condition,trial_id,map_id,undoIndicator,submit,checkEnd,currentChoice,chosen_all,n_city_all,n_within_reach,cities_reach,currentBudget,time_all,rt_all,n_opt_paths_all,n_subopt_paths_all,mas_all,tortuosity_all
basic,0,29,0,0,0,0,[0],1,29,"[1, 2, 3, 4, 5, 6, 7, 8, 9, 10, 11, 12, 13, 14, 15, 16, 17, 18, 19, 20, 21, 22, 23, 24, 25, 26, 27, 28, 29]",300,1661,-1,1,78,9,0
basic,0,29,0,0,0,14,"[0, 14]",2,22,"[1, 3, 4, 5, 6, 7, 9, 10, 11, 12, 13, 15, 16, 17, 21, 22, 23, 25, 26, 27, 28, 29]",209.490332,11566,9905,21,110,8,1
basic,0,29,0,0,0,13,"[0, 14, 13]",3,18,"[1, 4, 5, 6, 7, 9, 10, 12, 15, 16, 17, 21, 22, 25, 26, 27, 28, 29]",191.4625756,12478,912,20,75,8,1.00270065
basic,0,29,0,0,0,5,"[0, 14, 13, 5]",4,15,"[1, 4, 6, 7, 9, 12, 15, 17, 21, 22, 25, 26, 27, 28, 29]",165.7526554,13703,1225,19,49,8,1.080393733
basic,0,29,0,0,0,22,"[0, 14, 13, 5, 22]",5,9,"[4, 6, 7, 9, 12, 26, 27, 28, 29]",111.4111427,15249,1546,7,11,8,1.612341779
basic,0,29,0,0,0,27,"[0, 14, 13, 5, 22, 27]",6,5,"[6, 7, 12, 26, 28]",78.16960241,18015,2766,3,3,8,2.047500446
basic,0,29,0,0,0,28,"[0, 14, 13, 5, 22, 27, 28]",7,2,"[6, 26]",57.65131788,18931,916,2,0,8,2.496318429
basic,0,29,0,0,1,6,"[0, 14, 13, 5, 22, 27, 28, 6]",8,0,[],16.42026163,20169,1238,1,0,8,3.961213611
basic,0,29,0,1,1,6,"[0, 14, 13, 5, 22, 27, 28, 6]",8,0,[],16.42026163,23528,3359,1,0,8,3.961213611
basic,1,4,0,0,0,0,[0],1,26,"[3, 4, 5, 6, 7, 8, 10, 11, 12, 13, 14, 15, 16, 17, 18, 19, 20, 21, 22, 23, 24, 25, 26, 27, 28, 29]",300,1677,-1,4,489,10,0
basic,1,4,0,0,0,28,"[0, 28]",2,21,"[3, 4, 5, 6, 10, 11, 12, 13, 14, 15, 16, 17, 19, 20, 21, 22, 23, 24, 25, 26, 27]",225.9392142,4651,2974,2,216,10,1
basic,1,4,0,0,0,11,"[0, 28, 11]",3,16,"[3, 4, 5, 6, 12, 13, 14, 16, 17, 20, 21, 22, 23, 24, 25, 26]",177.0618165,6173,1522,1,99,10,1.000523011
basic,1,4,0,0,0,25,"[0, 28, 11, 25]",4,14,"[3, 4, 5, 6, 12, 13, 14, 16, 17, 20, 21, 22, 23, 24]",158.2735223,8630,2457,1,47,10,1.11762078
basic,1,4,0,0,0,14,"[0, 28, 11, 25, 14]",5,10,"[3, 4, 5, 6, 13, 16, 17, 20, 21, 22]",142.1490068,14453,5823,1,23,10,1.155898085
basic,1,4,0,0,0,16,"[0, 28, 11, 25, 14, 16]",6,9,"[3, 4, 5, 6, 13, 17, 20, 21, 22]",109.5913656,16287,1834,1,12,10,1.38133307
basic,1,4,0,0,0,21,"[0, 28, 11, 25, 14, 16, 21]",7,4,"[5, 17, 20, 22]",65.38729339,18126,1839,3,3,9,1.587360267
basic,1,4,0,0,0,22,"[0, 28, 11, 25, 14, 16, 21, 22]",8,3,"[5, 17, 20]",54.34193237,19334,1208,3,0,9,1.548330053
basic,1,4,0,0,1,20,"[0, 28, 11, 25, 14, 16, 21, 22, 20]",9,0,[],24.10949946,21468,2134,1,0,9,1.509854303
basic,1,4,0,1,1,20,"[0, 28, 11, 25, 14, 16, 21, 22, 20]",9,0,[],24.10949946,23274,1806,1,0,9,1.509854303
basic,2,8,0,0,0,0,[0],1,29,"[1, 2, 3, 4, 5, 6, 7, 8, 9, 10, 11, 12, 13, 14, 15, 16, 17, 18, 19, 20, 21, 22, 23, 24, 25, 26, 27, 28, 29]",300,1660,-1,10,149,9,0
basic,2,8,0,0,0,5,"[0, 5]",2,28,"[1, 2, 3, 4, 6, 7, 8, 9, 10, 11, 12, 13, 14, 15, 16, 17, 18, 19, 20, 21, 22, 23, 24, 25, 26, 27, 28, 29]",254.5137383,3331,1671,10,100,9,1
basic,2,8,0,0,0,25,"[0, 5, 25]",3,20,"[1, 2, 3, 4, 6, 11, 12, 14, 15, 16, 17, 18, 19, 20, 21, 22, 23, 24, 28, 29]",215.3091468,4567,1236,4,42,9,1.227274788
basic,2,8,0,0,0,1,"[0, 5, 25, 1]",4,17,"[3, 4, 6, 11, 12, 14, 15, 16, 17, 18, 20, 21, 22, 23, 24, 28, 29]",190.3091468,5509,942,3,24,9,1.177024501
basic,2,8,0,0,0,23,"[0, 5, 25, 1, 23]",5,15,"[3, 4, 6, 11, 14, 15, 16, 17, 18, 20, 21, 22, 24, 28, 29]",167.2874179,7670,2161,1,14,9,1.141996584
basic,2,8,0,0,0,18,"[0, 5, 25, 1, 23, 18]",6,9,"[3, 4, 11, 14, 15, 16, 17, 24, 28]",125.5261919,10759,3089,1,7,9,1.319916633
basic,2,8,0,0,0,28,"[0, 5, 25, 1, 23, 18, 28]",7,1,[16],59.906073,15085,4326,1,0,8,1.425373059
basic,2,8,0,0,1,16,"[0, 5, 25, 1, 23, 18, 28, 16]",8,0,[],37.54539323,16014,929,1,0,8,1.417514334
basic,2,8,0,1,1,16,"[0, 5, 25, 1, 23, 18, 28, 16]",8,0,[],37.54539323,17844,1830,1,0,8,1.417514334
basic,3,16,0,0,0,0,[0],1,29,"[1, 2, 3, 4, 5, 6, 7, 8, 9, 10, 11, 12, 13, 14, 15, 16, 17, 18, 19, 20, 21, 22, 23, 24, 25, 26, 27, 28, 29]",300,1696,-1,13,161,9,0
basic,3,16,0,0,0,17,"[0, 17]",2,27,"[1, 2, 3, 4, 5, 7, 8, 9, 10, 11, 12, 13, 14, 15, 16, 18, 19, 20, 21, 22, 23, 24, 25, 26, 27, 28, 29]",241.3058776,9912,8216,2,58,9,1
basic,3,16,0,0,0,16,"[0, 17, 16]",3,26,"[1, 2, 3, 4, 5, 7, 8, 9, 10, 11, 12, 13, 14, 15, 18, 19, 20, 21, 22, 23, 24, 25, 26, 27, 28, 29]",212.9862731,10838,926,2,52,9,1.052953552
basic,3,16,0,0,0,8,"[0, 17, 16, 8]",4,19,"[2, 3, 4, 5, 9, 12, 13, 14, 15, 19, 20, 21, 22, 23, 25, 26, 27, 28, 29]",164.6127266,12092,1254,2,38,9,1.09151345
basic,3,16,0,0,0,20,"[0, 17, 16, 8, 20]",5,10,"[3, 4, 5, 9, 12, 13, 15, 19, 21, 25]",106.8372993,13304,1212,1,15,9,1.067523143
basic,3,16,0,0,0,25,"[0, 17, 16, 8, 20, 25]",6,7,"[3, 4, 5, 9, 12, 13, 15]",94.18818869,15745,2441,1,9,9,1.117009333
basic,3,16,0,0,0,9,"[0, 17, 16, 8, 20, 25, 9]",7,5,"[3, 4, 5, 13, 15]",81.38194021,17279,1534,1,4,9,1.109507656
basic,3,16,0,0,0,15,"[0, 17, 16, 8, 20, 25, 9, 15]",8,1,[5],42.48463953,19709,2430,1,0,9,1.21383116
basic,3,16,0,0,1,5,"[0, 17, 16, 8, 20, 25, 9, 15, 5]",9,0,[],13.0567616,21843,2134,1,0,9,1.517177961
basic,3,16,0,1,1,5,"[0, 17, 16, 8, 20, 25, 9, 15, 5]",9,0,[],13.0567616,28852,7009,1,0,9,1.517177961
basic,4,33,0,0,0,0,[0],1,23,"[1, 2, 5, 7, 8, 11, 12, 13, 14, 15, 16, 17, 18, 19, 20, 21, 23, 24, 25, 26, 27, 28, 29]",300,1672,-1,5,108,9,0
basic,4,33,0,0,0,21,"[0, 21]",2,17,"[2, 5, 7, 8, 11, 13, 14, 16, 17, 18, 19, 20, 24, 26, 27, 28, 29]",174.4611614,5318,3646,21,129,8,1
basic,4,33,0,0,0,13,"[0, 21, 13]",3,15,"[2, 5, 7, 8, 11, 14, 16, 17, 18, 19, 20, 24, 26, 28, 29]",148.0604038,6830,1512,17,72,8,1.00010053
basic,4,33,0,0,0,19,"[0, 21, 13, 19]",4,11,"[7, 11, 14, 16, 17, 18, 20, 24, 26, 28, 29]",122.5653063,8975,2145,10,27,8,1.058844674
basic,4,33,0,0,0,7,"[0, 21, 13, 19, 7]",5,7,"[14, 16, 17, 18, 24, 26, 29]",76.94732734,11407,2432,3,5,8,1.046699741
basic,4,33,0,0,0,14,"[0, 21, 13, 19, 7, 14]",6,3,"[24, 26, 29]",62.0812586,12328,921,2,1,8,1.09667924
basic,4,33,0,0,0,26,"[0, 21, 13, 19, 7, 14, 26]",7,1,[29],49.43214796,13240,912,1,0,8,1.107526168
basic,4,33,0,0,1,29,"[0, 21, 13, 19, 7, 14, 26, 29]",8,0,[],21.53949659,15075,1835,1,0,8,1.323827822
basic,4,33,0,1,1,29,"[0, 21, 13, 19, 7, 14, 26, 29]",8,0,[],21.53949659,20257,5182,1,0,8,1.323827822
basic,5,27,0,0,0,0,[0],1,26,"[1, 3, 5, 6, 7, 8, 9, 10, 11, 12, 13, 14, 15, 16, 17, 18, 19, 21, 22, 23, 24, 25, 26, 27, 28, 29]",300,1713,-1,13,578,11,0
basic,5,27,0,0,0,15,"[0, 15]",2,24,"[1, 3, 5, 6, 7, 8, 9, 10, 11, 12, 13, 14, 16, 17, 18, 19, 21, 22, 23, 24, 25, 26, 27, 29]",263.7508621,3366,1653,6,219,11,1
basic,5,27,0,0,0,24,"[0, 15, 24]",3,20,"[1, 5, 6, 7, 8, 9, 10, 12, 13, 14, 16, 17, 18, 19, 21, 23, 25, 26, 27, 29]",246.5462115,4295,929,6,130,11,1.130933078
basic,5,27,0,0,0,17,"[0, 15, 24, 17]",4,15,"[1, 6, 8, 10, 12, 13, 14, 16, 18, 19, 23, 25, 26, 27, 29]",229.9932662,5233,938,4,60,11,1.128553844
basic,5,27,0,0,0,12,"[0, 15, 24, 17, 12]",5,14,"[1, 6, 8, 10, 13, 14, 16, 18, 19, 23, 25, 26, 27, 29]",218.8129263,6453,1220,2,32,11,1.256188029
basic,5,27,0,0,0,10,"[0, 15, 24, 17, 12, 10]",6,11,"[1, 8, 13, 14, 18, 19, 23, 25, 26, 27, 29]",207.7675653,7979,1526,2,28,11,1.222828934
basic,5,27,0,0,0,13,"[0, 15, 24, 17, 12, 10, 13]",7,9,"[1, 8, 14, 18, 19, 23, 26, 27, 29]",167.9178476,9503,1524,2,18,11,1.342129199
basic,5,27,0,0,0,19,"[0, 15, 24, 17, 12, 10, 13, 19]",8,5,"[1, 8, 14, 23, 29]",131.6825057,11344,1841,2,6,11,1.294749956
basic,5,27,0,0,0,8,"[0, 15, 24, 17, 12, 10, 13, 19, 8]",9,3,"[14, 23, 29]",116.816437,12572,1228,2,1,11,1.355428658
basic,5,27,0,0,0,14,"[0, 15, 24, 17, 12, 10, 13, 19, 8, 14]",10,1,[29],59.25777126,19015,6443,1,0,11,1.312380421
basic,5,27,0,0,1,29,"[0, 15, 24, 17, 12, 10, 13, 19, 8, 14, 29]",11,0,[],14.96330208,20557,1542,1,0,11,1.468013681
basic,5,27,0,1,1,29,"[0, 15, 24, 17, 12, 10, 13, 19, 8, 14, 29]",11,0,[],14.96330208,24221,3664,1,0,11,1.468013681
basic,6,6,0,0,0,0,[0],1,29,"[1, 2, 3, 4, 5, 6, 7, 8, 9, 10, 11, 12, 13, 14, 15, 16, 17, 18, 19, 20, 21, 22, 23, 24, 25, 26, 27, 28, 29]",300,1664,-1,180,4304,10,0
basic,6,6,0,0,0,26,"[0, 26]",2,25,"[1, 2, 3, 4, 5, 6, 7, 8, 9, 10, 11, 12, 13, 14, 15, 16, 17, 18, 20, 21, 22, 23, 24, 27, 29]",250.2606795,6263,4599,45,776,10,1
basic,6,6,0,0,0,7,"[0, 26, 7]",3,24,"[1, 2, 3, 4, 5, 6, 8, 9, 10, 11, 12, 13, 14, 15, 16, 17, 18, 20, 21, 22, 23, 24, 27, 29]",226.1774904,7196,933,25,520,10,1.537301863
basic,6,6,0,0,0,3,"[0, 26, 7, 3]",4,22,"[1, 2, 4, 6, 8, 9, 10, 11, 12, 13, 14, 15, 16, 17, 18, 20, 21, 22, 23, 24, 27, 29]",190.0388684,8737,1541,20,235,10,3.279865577
basic,6,6,0,0,0,16,"[0, 26, 7, 3, 16]",5,15,"[1, 2, 6, 10, 13, 14, 17, 18, 20, 21, 22, 23, 24, 27, 29]",143.8003563,11810,3073,3,39,10,2.164019537
basic,6,6,0,0,0,18,"[0, 26, 7, 3, 16, 18]",6,10,"[1, 2, 6, 10, 13, 17, 22, 23, 24, 29]",120.4551212,13033,1223,2,15,10,2.948116256
basic,6,6,0,0,0,17,"[0, 26, 7, 3, 16, 18, 17]",7,8,"[2, 6, 10, 13, 22, 23, 24, 29]",106.526733,15185,2152,2,8,10,2.741338683
basic,6,6,0,0,0,10,"[0, 26, 7, 3, 16, 18, 17, 10]",8,4,"[6, 23, 24, 29]",86.80365003,16396,1211,2,3,10,2.527684322
basic,6,6,0,0,0,24,"[0, 26, 7, 3, 16, 18, 17, 10, 24]",9,2,"[6, 23]",73.38724217,17306,910,2,0,10,2.329169562
basic,6,6,0,0,1,23,"[0, 26, 7, 3, 16, 18, 17, 10, 24, 23]",10,0,[],12.19900801,19440,2134,1,0,10,2.144546316
basic,6,6,0,1,1,23,"[0, 26, 7, 3, 16, 18, 17, 10, 24, 23]",10,0,[],12.19900801,24916,5476,1,0,10,2.144546316
basic,7,44,0,0,0,0,[0],1,29,"[1, 2, 3, 4, 5, 6, 7, 8, 9, 10, 11, 12, 13, 14, 15, 16, 17, 18, 19, 20, 21, 22, 23, 24, 25, 26, 27, 28, 29]",300,1688,-1,13,126,7,0
basic,7,44,0,0,0,14,"[0, 14]",2,15,"[4, 5, 6, 7, 9, 11, 12, 16, 17, 19, 22, 23, 24, 26, 28]",121.156493,6611,4923,2,9,6,1
basic,7,44,0,0,0,11,"[0, 14, 11]",3,5,"[4, 7, 9, 23, 24]",88.95400861,8132,1521,2,3,6,1.433532598
basic,7,44,0,0,0,24,"[0, 14, 11, 24]",4,3,"[4, 7, 9]",62.02818458,9375,1243,2,1,6,1.583630795
basic,7,44,0,0,0,9,"[0, 14, 11, 24, 9]",5,1,[4],29.27150587,10602,1227,1,0,6,1.706174131
basic,7,44,0,0,1,4,"[0, 14, 11, 24, 9, 4]",6,0,[],9.573790265,12141,1539,1,0,6,1.653515319
basic,7,44,0,1,1,4,"[0, 14, 11, 24, 9, 4]",6,0,[],9.573790265,22924,10783,1,0,6,1.653515319
basic,8,2,0,0,0,0,[0],1,23,"[1, 2, 4, 5, 6, 7, 8, 9, 12, 13, 15, 16, 17, 18, 19, 20, 22, 23, 25, 26, 27, 28, 29]",300,1861,-1,70,620,10,0
basic,8,2,0,0,0,19,"[0, 19]",2,22,"[1, 2, 4, 5, 6, 7, 8, 9, 12, 13, 15, 16, 17, 18, 20, 22, 23, 25, 26, 27, 28, 29]",210.306076,5320,3459,67,431,10,1
basic,8,2,0,0,0,12,"[0, 19, 12]",3,17,"[1, 4, 5, 6, 7, 13, 15, 16, 17, 18, 20, 22, 25, 26, 27, 28, 29]",174.2921898,6267,947,66,298,10,1.110763504
basic,8,2,0,0,0,5,"[0, 19, 12, 5]",4,11,"[1, 6, 7, 13, 15, 16, 18, 22, 25, 26, 29]",144.7625437,7611,1344,38,136,10,1.096817477
basic,8,2,0,0,0,22,"[0, 19, 12, 5, 22]",5,8,"[1, 6, 7, 13, 15, 18, 26, 29]",131.9562952,8652,1041,20,63,10,1.088991051
basic,8,2,0,0,0,13,"[0, 19, 12, 5, 22, 13]",6,7,"[1, 6, 7, 15, 18, 26, 29]",117.0902265,9593,941,19,20,10,1.236526217
basic,8,2,0,0,0,18,"[0, 19, 12, 5, 22, 13, 18]",7,4,"[7, 15, 26, 29]",81.91921567,10817,1224,10,3,10,1.212870821
basic,8,2,0,0,0,7,"[0, 19, 12, 5, 22, 13, 18, 7]",8,3,"[15, 26, 29]",71.62358553,11748,931,5,0,10,1.201981129
basic,8,2,0,0,0,26,"[0, 19, 12, 5, 22, 13, 18, 7, 26]",9,2,"[15, 29]",48.82007703,12369,621,2,0,10,1.188359334
basic,8,2,0,0,1,15,"[0, 19, 12, 5, 22, 13, 18, 7, 26, 15]",10,0,[],24.61264015,13585,1216,1,0,10,1.461975035
basic,8,2,0,1,1,15,"[0, 19, 12, 5, 22, 13, 18, 7, 26, 15]",10,0,[],24.61264015,25561,11976,1,0,10,1.461975035
basic,9,25,0,0,0,0,[0],1,28,"[1, 2, 3, 4, 5, 7, 8, 9, 10, 11, 12, 13, 14, 15, 16, 17, 18, 19, 20, 21, 22, 23, 24, 25, 26, 27, 28, 29]",300,1653,-1,5,94,10,0
basic,9,25,0,0,0,23,"[0, 23]",2,23,"[1, 2, 3, 5, 7, 8, 9, 11, 12, 13, 14, 16, 17, 19, 20, 21, 22, 24, 25, 26, 27, 28, 29]",259.7756293,4307,2654,3,33,10,1
basic,9,25,0,0,0,7,"[0, 23, 7]",3,16,"[1, 3, 5, 8, 9, 11, 13, 17, 19, 21, 22, 24, 26, 27, 28, 29]",181.9424744,6771,2464,1,21,9,1.007310905
basic,9,25,0,0,0,24,"[0, 23, 7, 24]",4,10,"[3, 5, 8, 9, 11, 13, 19, 22, 28, 29]",157.1836376,8000,1229,1,17,9,1.016158456
basic,9,25,0,0,0,9,"[0, 23, 7, 24, 9]",5,8,"[3, 8, 11, 13, 19, 22, 28, 29]",139.1558812,8925,925,1,16,9,1.030332552
basic,9,25,0,0,0,3,"[0, 23, 7, 24, 9, 3]",6,4,"[8, 11, 13, 28]",108.8903893,15644,6719,1,5,9,1.03216577
basic,9,25,0,0,0,8,"[0, 23, 7, 24, 9, 3, 8]",7,2,"[13, 28]",69.68579774,17182,1538,2,0,8,1.151729385
basic,9,25,0,0,1,28,"[0, 23, 7, 24, 9, 3, 8, 28]",8,0,[],29.07791673,19632,2450,1,0,8,1.251990046
basic,9,25,0,1,1,28,"[0, 23, 7, 24, 9, 3, 8, 28]",8,0,[],29.07791673,23034,3402,1,0,8,1.251990046
basic,10,14,0,0,0,0,[0],1,29,"[1, 2, 3, 4, 5, 6, 7, 8, 9, 10, 11, 12, 13, 14, 15, 16, 17, 18, 19, 20, 21, 22, 23, 24, 25, 26, 27, 28, 29]",300,1697,-1,8,157,10,0
basic,10,14,0,0,0,15,"[0, 15]",2,20,"[1, 2, 3, 4, 7, 8, 9, 13, 17, 18, 19, 20, 21, 22, 23, 25, 26, 27, 28, 29]",216.7053423,13135,11438,8,102,10,1
basic,10,14,0,0,0,28,"[0, 15, 28]",3,17,"[1, 2, 3, 4, 7, 8, 9, 13, 17, 18, 19, 20, 22, 23, 25, 26, 27]",197.4959696,14062,927,8,48,10,1.044600787
basic,10,14,0,0,0,17,"[0, 15, 28, 17]",4,14,"[1, 2, 3, 4, 7, 8, 13, 18, 19, 20, 22, 23, 25, 26]",184.0423455,15571,1509,8,39,10,1.072946335
basic,10,14,0,0,0,18,"[0, 15, 28, 17, 18]",5,9,"[1, 2, 4, 7, 8, 19, 23, 25, 26]",119.412631,17426,1855,8,27,10,1.503590108
basic,10,14,0,0,0,8,"[0, 15, 28, 17, 18, 8]",6,8,"[1, 2, 4, 7, 19, 23, 25, 26]",105.8111605,18328,902,8,18,10,1.481968999
basic,10,14,0,0,0,1,"[0, 15, 28, 17, 18, 8, 1]",7,5,"[7, 19, 23, 25, 26]",82.21031307,19555,1227,4,6,10,1.4084992
basic,10,14,0,0,0,19,"[0, 15, 28, 17, 18, 8, 1, 19]",8,4,"[7, 23, 25, 26]",66.97876686,22309,2754,4,1,10,1.575871333
basic,10,14,0,0,0,26,"[0, 15, 28, 17, 18, 8, 1, 19, 26]",9,1,[23],13.75283333,25982,3673,1,0,10,1.442788321
basic,10,14,0,0,1,23,"[0, 15, 28, 17, 18, 8, 1, 19, 26, 23]",10,0,[],2.936179503,27198,1216,1,0,10,1.580372651
basic,10,14,0,1,1,23,"[0, 15, 28, 17, 18, 8, 1, 19, 26, 23]",10,0,[],2.936179503,45841,18643,1,0,10,1.580372651
basic,11,9,0,0,0,0,[0],1,27,"[1, 3, 4, 5, 6, 7, 8, 9, 10, 11, 13, 14, 15, 16, 17, 18, 19, 20, 21, 22, 23, 24, 25, 26, 27, 28, 29]",300,1653,-1,2,182,10,0
basic,11,9,0,0,0,9,"[0, 9]",2,26,"[1, 3, 4, 5, 6, 7, 8, 10, 11, 13, 14, 15, 16, 17, 18, 19, 20, 21, 22, 23, 24, 25, 26, 27, 28, 29]",225.5352432,4315,2662,2,101,9,1
basic,11,9,0,0,0,23,"[0, 9, 23]",3,22,"[1, 3, 4, 5, 7, 8, 10, 11, 13, 15, 16, 17, 18, 19, 20, 21, 22, 24, 25, 26, 27, 28]",203.1745635,6151,1836,2,70,9,1.626227661
basic,11,9,0,0,0,8,"[0, 9, 23, 8]",4,18,"[3, 4, 5, 7, 10, 11, 15, 16, 17, 18, 19, 20, 21, 22, 25, 26, 27, 28]",181.7036529,7356,1205,1,36,9,1.854730706
basic,11,9,0,0,0,28,"[0, 9, 23, 8, 28]",5,17,"[3, 4, 5, 7, 10, 11, 15, 16, 17, 18, 19, 20, 21, 22, 25, 26, 27]",170.8869991,9493,2137,1,23,9,1.738274997
basic,11,9,0,0,0,10,"[0, 9, 23, 8, 28, 10]",6,8,"[4, 7, 20, 21, 22, 25, 26, 27]",113.8869991,18394,8901,1,6,9,3.425457119
basic,11,9,0,0,0,25,"[0, 9, 23, 8, 28, 10, 25]",7,3,"[4, 7, 27]",74.03728139,20227,1833,1,2,9,9.382591198
basic,11,9,0,0,0,7,"[0, 9, 23, 8, 28, 10, 25, 7]",8,1,[4],21.02784827,21747,1520,1,0,9,6.707146626
basic,11,9,0,0,1,4,"[0, 9, 23, 8, 28, 10, 25, 7, 4]",9,0,[],6.027848267,22685,938,1,0,9,5.208965402
basic,11,9,0,1,1,4,"[0, 9, 23, 8, 28, 10, 25, 7, 4]",9,0,[],6.027848267,25421,2736,1,0,9,5.208965402
basic,12,11,0,0,0,0,[0],1,25,"[1, 2, 3, 4, 5, 6, 8, 9, 10, 11, 12, 13, 14, 15, 16, 17, 18, 19, 20, 22, 23, 25, 26, 27, 28]",300,1654,-1,6,374,12,0
basic,12,11,0,0,0,8,"[0, 8]",2,19,"[1, 2, 4, 5, 6, 10, 11, 12, 14, 15, 17, 18, 19, 22, 23, 25, 26, 27, 28]",154.7932508,8913,7259,181,767,9,1
basic,12,11,0,0,0,17,"[0, 8, 17]",3,15,"[1, 2, 4, 5, 6, 11, 12, 15, 18, 19, 22, 23, 25, 27, 28]",140.4754298,10138,1225,86,201,9,1.08462409
basic,12,11,0,0,0,15,"[0, 8, 17, 15]",4,13,"[1, 2, 5, 6, 11, 12, 18, 19, 22, 23, 25, 27, 28]",127.8263191,11377,1239,67,51,9,1.097560845
basic,12,11,0,0,0,11,"[0, 8, 17, 15, 11]",5,9,"[2, 5, 6, 12, 19, 22, 25, 27, 28]",109.7155489,13200,1823,25,3,9,1.097583857
basic,12,11,0,0,0,22,"[0, 8, 17, 15, 11, 22]",6,4,"[2, 5, 19, 28]",76.29399893,16870,3670,6,0,9,1.18655637
basic,12,11,0,0,0,2,"[0, 8, 17, 15, 11, 22, 2]",7,2,"[5, 28]",66.24412331,18392,1522,2,0,9,1.30964408
basic,12,11,0,0,0,28,"[0, 8, 17, 15, 11, 22, 2, 28]",8,1,[5],55.6139775,19915,1523,1,0,9,1.414243493
basic,12,11,0,0,1,5,"[0, 8, 17, 15, 11, 22, 2, 28, 5]",9,0,[],37.72543368,21132,1217,1,0,9,1.612083046
basic,12,11,0,1,1,5,"[0, 8, 17, 15, 11, 22, 2, 28, 5]",9,0,[],37.72543368,24478,3346,1,0,9,1.612083046
basic,13,0,0,0,0,0,[0],1,27,"[2, 3, 4, 5, 6, 7, 8, 9, 10, 11, 12, 13, 14, 15, 16, 17, 19, 20, 21, 22, 23, 24, 25, 26, 27, 28, 29]",300,1696,-1,104,1136,9,0
basic,13,0,0,0,0,5,"[0, 5]",2,24,"[2, 3, 4, 7, 8, 9, 11, 12, 13, 14, 15, 16, 17, 19, 20, 21, 22, 23, 24, 25, 26, 27, 28, 29]",164.5156836,5653,3957,5,112,9,1
basic,13,0,0,0,0,4,"[0, 5, 4]",3,20,"[2, 3, 7, 8, 9, 11, 12, 13, 14, 15, 17, 19, 20, 21, 22, 23, 24, 25, 26, 28]",139.4358112,6898,1245,4,61,9,1.025702316
basic,13,0,0,0,0,26,"[0, 5, 4, 26]",4,18,"[3, 7, 8, 9, 11, 12, 13, 14, 15, 17, 19, 20, 21, 22, 23, 24, 25, 28]",127.3942166,8406,1508,4,26,9,1.068402977
basic,13,0,0,0,0,24,"[0, 5, 4, 26, 24]",5,12,"[3, 7, 8, 9, 11, 12, 15, 17, 19, 20, 23, 28]",110.2769738,9632,1226,4,16,9,1.137208333
basic,13,0,0,0,0,15,"[0, 5, 4, 26, 24, 15]",6,8,"[3, 7, 8, 9, 11, 12, 17, 19]",86.93173875,11469,1837,4,7,9,1.127171759
basic,13,0,0,0,0,7,"[0, 5, 4, 26, 24, 15, 7]",7,4,"[3, 8, 17, 19]",55.86728962,12707,1238,3,2,9,1.190834599
basic,13,0,0,0,0,3,"[0, 5, 4, 26, 24, 15, 7, 3]",8,1,[8],31.78410046,15754,3047,1,0,9,1.23738516
basic,13,0,0,0,1,8,"[0, 5, 4, 26, 24, 15, 7, 3, 8]",9,0,[],1.370287806,18184,2430,1,0,9,1.34237634
basic,13,0,0,1,1,8,"[0, 5, 4, 26, 24, 15, 7, 3, 8]",9,0,[],1.370287806,27035,8851,1,0,9,1.34237634
basic,14,10,0,0,0,0,[0],1,29,"[1, 2, 3, 4, 5, 6, 7, 8, 9, 10, 11, 12, 13, 14, 15, 16, 17, 18, 19, 20, 21, 22, 23, 24, 25, 26, 27, 28, 29]",300,1650,-1,1,100,9,0
basic,14,10,0,0,0,13,"[0, 13]",2,25,"[1, 2, 3, 4, 6, 7, 8, 9, 10, 11, 12, 14, 17, 18, 19, 20, 21, 22, 23, 24, 25, 26, 27, 28, 29]",249.4628849,3972,2322,1,79,9,1
basic,14,10,0,0,0,19,"[0, 13, 19]",3,12,"[2, 6, 8, 9, 10, 11, 14, 18, 20, 24, 26, 27]",180.5861835,5509,1537,11,79,8,1.000058196
basic,14,10,0,0,0,2,"[0, 13, 19, 2]",4,5,"[11, 14, 20, 26, 27]",136.6771867,7657,2148,3,9,8,1.000456581
basic,14,10,0,0,0,14,"[0, 13, 19, 2, 14]",5,4,"[11, 20, 26, 27]",124.5116616,8284,627,3,6,8,1.097273701
basic,14,10,0,0,0,26,"[0, 13, 19, 2, 14, 26]",6,3,"[11, 20, 27]",89.84178999,9509,1225,3,1,8,1.586834252
basic,14,10,0,0,0,11,"[0, 13, 19, 2, 14, 26, 11]",7,1,[20],48.08056395,13503,3994,1,0,8,2.777247176
basic,14,10,0,0,1,20,"[0, 13, 19, 2, 14, 26, 11, 20]",8,0,[],10.00169842,14730,1227,1,0,8,2.395943884
basic,14,10,0,1,1,20,"[0, 13, 19, 2, 14, 26, 11, 20]",8,0,[],10.00169842,18390,3660,1,0,8,2.395943884
basic,15,31,0,0,0,0,[0],1,27,"[1, 3, 4, 5, 6, 7, 8, 10, 11, 12, 13, 14, 15, 16, 17, 18, 19, 20, 21, 22, 23, 24, 25, 26, 27, 28, 29]",300,1665,-1,2,87,10,0
basic,15,31,0,0,0,14,"[0, 14]",2,25,"[1, 3, 5, 6, 7, 8, 10, 11, 12, 13, 15, 16, 17, 18, 19, 20, 21, 22, 23, 24, 25, 26, 27, 28, 29]",263.861378,7255,5590,2,59,10,1
basic,15,31,0,0,0,27,"[0, 14, 27]",3,22,"[1, 3, 5, 6, 7, 8, 10, 11, 12, 13, 15, 16, 17, 18, 19, 20, 21, 22, 24, 25, 28, 29]",235.6833724,8482,1227,1,39,10,1.588185916
basic,15,31,0,0,0,8,"[0, 14, 27, 8]",4,20,"[1, 3, 5, 6, 7, 10, 11, 12, 13, 16, 17, 18, 19, 20, 21, 22, 24, 25, 28, 29]",224.6380114,9703,1221,1,36,10,2.166504845
basic,15,31,0,0,0,18,"[0, 14, 27, 8, 18]",5,15,"[1, 5, 6, 7, 11, 12, 13, 16, 17, 19, 20, 22, 25, 28, 29]",188.7911147,11244,1541,1,26,10,1.727337574
basic,15,31,0,0,0,17,"[0, 14, 27, 8, 18, 17]",6,13,"[1, 5, 6, 7, 11, 12, 13, 16, 19, 20, 22, 25, 28]",159.584951,14956,3712,1,13,10,1.551192428
basic,15,31,0,0,0,11,"[0, 14, 27, 8, 18, 17, 11]",7,7,"[5, 12, 16, 19, 22, 25, 28]",118.4753414,17737,2781,1,4,10,2.965076054
basic,15,31,0,0,0,5,"[0, 14, 27, 8, 18, 17, 11, 5]",8,2,"[16, 28]",74.79468207,19293,1556,1,1,10,2.567119656
basic,15,31,0,0,0,28,"[0, 14, 27, 8, 18, 17, 11, 5, 28]",9,1,[16],54.57093365,20813,1520,1,0,10,2.286551076
basic,15,31,0,0,1,16,"[0, 14, 27, 8, 18, 17, 11, 5, 28, 16]",10,0,[],20.95546102,22040,1227,1,0,10,2.089356851
basic,15,31,0,1,1,16,"[0, 14, 27, 8, 18, 17, 11, 5, 28, 16]",10,0,[],20.95546102,27247,5207,1,0,10,2.089356851
basic,16,32,0,0,0,0,[0],1,29,"[1, 2, 3, 4, 5, 6, 7, 8, 9, 10, 11, 12, 13, 14, 15, 16, 17, 18, 19, 20, 21, 22, 23, 24, 25, 26, 27, 28, 29]",300,1703,-1,17,359,10,0
basic,16,32,0,0,0,19,"[0, 19]",2,28,"[1, 2, 3, 4, 5, 6, 7, 8, 9, 10, 11, 12, 13, 14, 15, 16, 17, 18, 20, 21, 22, 23, 24, 25, 26, 27, 28, 29]",283.5075775,9605,7902,16,294,10,1
basic,16,32,0,0,0,13,"[0, 19, 13]",3,24,"[2, 3, 4, 5, 6, 8, 9, 10, 11, 12, 14, 15, 16, 17, 18, 20, 21, 22, 23, 24, 25, 26, 27, 28]",260.3127505,10830,1225,14,227,10,1.017287423
basic,16,32,0,0,0,15,"[0, 19, 13, 15]",4,18,"[2, 3, 5, 8, 9, 10, 11, 12, 16, 17, 20, 22, 23, 24, 25, 26, 27, 28]",177.4393531,12372,1542,9,116,10,1.435447392
basic,16,32,0,0,0,28,"[0, 19, 13, 15, 28]",5,17,"[2, 3, 5, 8, 9, 10, 11, 12, 16, 17, 20, 22, 23, 24, 25, 26, 27]",166.0375988,13599,1227,9,70,10,1.384370132
basic,16,32,0,0,0,12,"[0, 19, 13, 15, 28, 12]",6,14,"[2, 3, 5, 8, 9, 10, 11, 16, 17, 20, 22, 24, 26, 27]",147.0639329,14510,911,6,35,10,1.358372255
basic,16,32,0,0,0,16,"[0, 19, 13, 15, 28, 12, 16]",7,13,"[2, 3, 5, 8, 9, 10, 11, 17, 20, 22, 24, 26, 27]",131.411457,15741,1231,5,15,10,1.435693293
basic,16,32,0,0,0,22,"[0, 19, 13, 15, 28, 12, 16, 22]",8,6,"[2, 8, 9, 17, 20, 27]",97.57360838,16979,1238,3,5,10,1.433522641
basic,16,32,0,0,0,9,"[0, 19, 13, 15, 28, 12, 16, 22, 9]",9,3,"[2, 8, 20]",75.37000507,19131,2152,3,0,10,1.483716638
basic,16,32,0,0,1,2,"[0, 19, 13, 15, 28, 12, 16, 22, 9, 2]",10,0,[],24.28184597,22800,3669,1,0,10,1.900962102
basic,16,32,0,1,1,2,"[0, 19, 13, 15, 28, 12, 16, 22, 9, 2]",10,0,[],24.28184597,24932,2132,1,0,10,1.900962102
basic,17,1,0,0,0,0,[0],1,26,"[1, 2, 4, 5, 7, 8, 9, 10, 11, 12, 13, 14, 15, 16, 17, 18, 19, 20, 21, 22, 23, 24, 25, 26, 28, 29]",300,1689,-1,6,74,7,0
basic,17,1,0,0,0,14,"[0, 14]",2,19,"[1, 4, 5, 8, 9, 13, 15, 17, 18, 19, 20, 21, 22, 23, 24, 25, 26, 28, 29]",200.1901808,6981,5292,5,42,7,1
basic,17,1,0,0,0,17,"[0, 14, 17]",3,15,"[1, 4, 5, 8, 9, 13, 15, 18, 19, 20, 22, 23, 25, 28, 29]",147.8356204,8521,1540,5,27,7,1.002884472
basic,17,1,0,0,0,1,"[0, 14, 17, 1]",4,12,"[4, 5, 8, 9, 15, 18, 20, 22, 23, 25, 28, 29]",123.4840291,9444,923,5,15,7,1.026498558
basic,17,1,0,0,0,28,"[0, 14, 17, 1, 28]",5,5,"[9, 15, 22, 23, 29]",88.59850198,13733,4289,5,3,7,1.033986158
basic,17,1,0,0,0,23,"[0, 14, 17, 1, 28, 23]",6,2,"[15, 22]",51.70676849,15872,2139,2,0,7,1.032745825
basic,17,1,0,0,1,22,"[0, 14, 17, 1, 28, 23, 22]",7,0,[],3.696352956,18636,2764,1,0,7,1.070078822
basic,17,1,0,1,1,22,"[0, 14, 17, 1, 28, 23, 22]",7,0,[],3.696352956,24436,5800,1,0,7,1.070078822
basic,18,37,0,0,0,0,[0],1,29,"[1, 2, 3, 4, 5, 6, 7, 8, 9, 10, 11, 12, 13, 14, 15, 16, 17, 18, 19, 20, 21, 22, 23, 24, 25, 26, 27, 28, 29]",300,1677,-1,6,168,10,0
basic,18,37,0,0,0,18,"[0, 18]",2,19,"[1, 2, 4, 6, 7, 9, 10, 12, 14, 15, 17, 19, 20, 21, 22, 23, 26, 28, 29]",202.4090168,4978,3301,6,89,10,1
basic,18,37,0,0,0,22,"[0, 18, 22]",3,9,"[1, 2, 4, 7, 15, 19, 20, 21, 26]",136.9720242,7441,2463,15,58,9,1.001057447
basic,18,37,0,0,0,4,"[0, 18, 22, 4]",4,8,"[1, 2, 7, 15, 19, 20, 21, 26]",111.9720242,8660,1219,8,28,9,1.156859781
basic,18,37,0,0,0,2,"[0, 18, 22, 4, 2]",5,7,"[1, 7, 15, 19, 20, 21, 26]",100.57027,9610,950,7,12,9,1.319223234
basic,18,37,0,0,0,1,"[0, 18, 22, 4, 2, 1]",6,6,"[7, 15, 19, 20, 21, 26]",83.36561943,10533,923,7,4,9,1.368338439
basic,18,37,0,0,0,20,"[0, 18, 22, 4, 2, 1, 20]",7,4,"[15, 19, 21, 26]",49.13113389,11766,1233,3,2,9,1.673612438
basic,18,37,0,0,0,15,"[0, 18, 22, 4, 2, 1, 20, 15]",8,1,[21],32.13113389,12997,1231,1,0,9,1.609816766
basic,18,37,0,0,1,21,"[0, 18, 22, 4, 2, 1, 20, 15, 21]",9,0,[],17.13113389,15132,2135,1,0,9,1.822685859
basic,18,37,0,1,1,21,"[0, 18, 22, 4, 2, 1, 20, 15, 21]",9,0,[],17.13113389,17276,2144,1,0,9,1.822685859
basic,19,26,0,0,0,0,[0],1,29,"[1, 2, 3, 4, 5, 6, 7, 8, 9, 10, 11, 12, 13, 14, 15, 16, 17, 18, 19, 20, 21, 22, 23, 24, 25, 26, 27, 28, 29]",300,1691,-1,9,226,9,0
basic,19,26,0,0,0,16,"[0, 16]",2,17,"[3, 4, 5, 6, 10, 11, 12, 13, 14, 17, 18, 19, 21, 22, 23, 26, 29]",188.0535842,10919,9228,34,176,8,1
basic,19,26,0,0,0,29,"[0, 16, 29]",3,12,"[4, 5, 6, 10, 12, 13, 14, 17, 19, 21, 23, 26]",163.8461474,11857,938,32,68,8,1.114294612
basic,19,26,0,0,0,4,"[0, 16, 29, 4]",4,9,"[5, 6, 10, 12, 13, 14, 17, 21, 23]",139.8461474,14024,2167,17,7,8,1.321376237
basic,19,26,0,0,0,17,"[0, 16, 29, 4, 17]",5,5,"[6, 10, 14, 21, 23]",118.7511243,15241,1217,6,0,8,1.275610006
basic,19,26,0,0,0,14,"[0, 16, 29, 4, 17, 14]",6,2,"[6, 10]",96.27891921,16167,926,2,0,8,1.264154039
basic,19,26,0,0,0,6,"[0, 16, 29, 4, 17, 14, 6]",7,1,[10],75.25512317,18309,2142,1,0,8,1.399308965
basic,19,26,0,0,1,10,"[0, 16, 29, 4, 17, 14, 6, 10]",8,0,[],45.98056083,19547,1238,1,0,8,1.569786767
basic,19,26,0,1,1,10,"[0, 16, 29, 4, 17, 14, 6, 10]",8,0,[],45.98056083,25649,6102,1,0,8,1.569786767
basic,20,3,0,0,0,0,[0],1,29,"[1, 2, 3, 4, 5, 6, 7, 8, 9, 10, 11, 12, 13, 14, 15, 16, 17, 18, 19, 20, 21, 22, 23, 24, 25, 26, 27, 28, 29]",300,1685,-1,34,427,10,0
basic,20,3,0,0,0,8,"[0, 8]",2,28,"[1, 2, 3, 4, 5, 6, 7, 9, 10, 11, 12, 13, 14, 15, 16, 17, 18, 19, 20, 21, 22, 23, 24, 25, 26, 27, 28, 29]",239.9666759,5966,4281,1,54,10,1
basic,20,3,0,0,0,24,"[0, 8, 24]",3,23,"[1, 2, 3, 4, 5, 6, 7, 10, 11, 12, 14, 15, 16, 17, 18, 19, 20, 21, 22, 25, 26, 27, 28]",227.8011509,7217,1251,1,50,10,1.226708383
basic,20,3,0,0,0,14,"[0, 8, 24, 14]",4,10,"[3, 4, 7, 10, 16, 17, 19, 20, 21, 22]",156.6885641,8456,1239,11,34,9,1.113486939
basic,20,3,0,0,0,21,"[0, 8, 24, 14, 21]",5,6,"[3, 4, 10, 17, 19, 20]",129.781316,9998,1542,5,9,9,1.106974379
basic,20,3,0,0,0,19,"[0, 8, 24, 14, 21, 19]",6,5,"[3, 4, 10, 17, 20]",117.5747604,10911,913,5,2,9,1.236106777
basic,20,3,0,0,0,20,"[0, 8, 24, 14, 21, 19, 20]",7,2,"[3, 17]",60.0074085,13053,2142,2,0,9,2.119764925
basic,20,3,0,0,0,3,"[0, 8, 24, 14, 21, 19, 20, 3]",8,1,[17],39.61133045,14571,1518,1,0,9,2.081444866
basic,20,3,0,0,1,17,"[0, 8, 24, 14, 21, 19, 20, 3, 17]",9,0,[],7.611330447,16420,1849,1,0,9,2.858052314
basic,20,3,0,1,1,17,"[0, 8, 24, 14, 21, 19, 20, 3, 17]",9,0,[],7.611330447,18556,2136,1,0,9,2.858052314
basic,21,15,0,0,0,0,[0],1,25,"[1, 2, 3, 4, 7, 8, 9, 10, 11, 12, 13, 14, 15, 16, 18, 20, 21, 22, 23, 24, 25, 26, 27, 28, 29]",300,1680,-1,4,65,9,0
basic,21,15,0,0,0,7,"[0, 7]",2,23,"[1, 3, 4, 8, 9, 10, 11, 12, 13, 14, 15, 16, 18, 20, 21, 22, 23, 24, 25, 26, 27, 28, 29]",215.1884442,3998,2318,30,107,8,1
basic,21,15,0,0,0,11,"[0, 7, 11]",3,18,"[3, 4, 8, 9, 10, 12, 13, 14, 15, 16, 18, 20, 21, 22, 23, 25, 27, 29]",173.7035072,5532,1534,12,34,8,1.017131888
basic,21,15,0,0,0,16,"[0, 7, 11, 16]",4,10,"[3, 4, 10, 12, 13, 14, 15, 18, 21, 22]",147.6842835,7369,1837,5,9,8,1.334204866
basic,21,15,0,0,0,3,"[0, 7, 11, 16, 3]",5,7,"[4, 12, 13, 14, 15, 21, 22]",122.6044111,8611,1242,5,3,8,1.340066018
basic,21,15,0,0,0,22,"[0, 7, 11, 16, 3, 22]",6,3,"[4, 13, 15]",72.87514405,9838,1227,2,1,8,1.316472288
basic,21,15,0,0,0,15,"[0, 7, 11, 16, 3, 22, 15]",7,1,[13],47.2626471,11058,1220,1,0,8,1.286982865
basic,21,15,0,0,1,13,"[0, 7, 11, 16, 3, 22, 15, 13]",8,0,[],31.99830958,11979,921,1,0,8,1.33773623
basic,21,15,0,1,1,13,"[0, 7, 11, 16, 3, 22, 15, 13]",8,0,[],31.99830958,13192,1213,1,0,8,1.33773623
basic,22,17,0,0,0,0,[0],1,28,"[1, 2, 3, 4, 5, 6, 7, 8, 9, 10, 11, 12, 13, 14, 15, 16, 17, 18, 19, 20, 22, 23, 24, 25, 26, 27, 28, 29]",300,1673,-1,2,73,8,0
basic,22,17,0,0,0,9,"[0, 9]",2,25,"[1, 2, 3, 5, 6, 7, 8, 10, 11, 12, 14, 15, 16, 17, 18, 19, 20, 22, 23, 24, 25, 26, 27, 28, 29]",210.5293344,11555,9882,1,34,8,1
basic,22,17,0,0,0,16,"[0, 9, 16]",3,21,"[1, 2, 3, 5, 7, 8, 10, 11, 12, 14, 17, 18, 19, 20, 22, 23, 25, 26, 27, 28, 29]",197.1876704,12782,1227,1,26,8,1.173103464
basic,22,17,0,0,0,2,"[0, 9, 16, 2]",4,18,"[1, 3, 5, 7, 8, 10, 11, 12, 14, 17, 18, 19, 23, 25, 26, 27, 28, 29]",181.0631549,13702,920,1,23,8,1.148250892
basic,22,17,0,0,0,17,"[0, 9, 16, 2, 17]",5,7,"[7, 8, 12, 14, 26, 27, 29]",142.7356191,14951,1249,4,5,7,1.48960407
basic,22,17,0,0,0,8,"[0, 9, 16, 2, 17, 8]",6,3,"[7, 12, 27]",104.5256727,16187,1236,3,0,7,1.460472697
basic,22,17,0,0,1,7,"[0, 9, 16, 2, 17, 8, 7]",7,0,[],33.81499459,17715,1528,1,0,7,1.447470187
basic,22,17,0,1,1,7,"[0, 9, 16, 2, 17, 8, 7]",7,0,[],33.81499459,22595,4880,1,0,7,1.447470187
undo,23,10,0,0,0,0,[0],1,26,"[1, 2, 3, 4, 6, 7, 8, 9, 10, 11, 12, 13, 14, 17, 18, 19, 20, 21, 22, 23, 24, 25, 26, 27, 28, 29]",300,1500,-1,1,79,9,1
undo,23,10,0,0,0,13,"[0, 13]",2,25,"[1, 2, 3, 4, 6, 7, 8, 9, 10, 11, 12, 14, 17, 18, 19, 20, 21, 22, 23, 24, 25, 26, 27, 28, 29]",249.4628849,2380,-1,1,79,9,1
undo,23,10,0,0,0,11,"[0, 13, 11]",3,20,"[1, 2, 3, 6, 7, 8, 9, 10, 12, 14, 18, 19, 20, 21, 22, 24, 26, 27, 28, 29]",206.4512586,3631,1251,1,54,9,0.999999999
undo,23,10,0,0,0,19,"[0, 13, 11, 19]",4,11,"[2, 6, 8, 9, 10, 14, 18, 20, 24, 26, 27]",170.0919407,4549,918,1,22,9,1.152362737
undo,23,10,0,0,0,2,"[0, 13, 11, 19, 2]",5,4,"[14, 20, 26, 27]",126.1829439,5769,1220,1,4,9,1.093760349
undo,23,10,0,0,0,14,"[0, 13, 11, 19, 2, 14]",6,3,"[20, 26, 27]",114.0174188,6384,615,1,3,9,1.236236263
undo,23,10,0,0,0,26,"[0, 13, 11, 19, 2, 14, 26]",7,2,"[20, 27]",79.34754716,9734,3350,1,1,9,2.031816406
undo,23,10,0,0,0,20,"[0, 13, 11, 19, 2, 14, 26, 20]",8,1,[27],47.56704999,10647,913,1,0,9,2.569056857
undo,23,10,0,0,1,27,"[0, 13, 11, 19, 2, 14, 26, 20, 27]",9,0,[],2.312215998,11879,1232,1,0,9,2.061881161
undo,23,10,1,0,0,20,"[0, 13, 11, 19, 2, 14, 26, 20]",8,1,[27],47.56704999,17077,5198,1,0,9,2.569056857
undo,23,10,1,0,0,26,"[0, 13, 11, 19, 2, 14, 26]",7,2,"[20, 27]",79.34754716,18005,928,1,1,9,2.031816406
undo,23,10,1,0,0,14,"[0, 13, 11, 19, 2, 14]",6,3,"[20, 26, 27]",114.0174188,19526,1521,1,3,9,1.236236263
undo,23,10,1,0,0,2,"[0, 13, 11, 19, 2]",5,4,"[14, 20, 26, 27]",126.1829439,20446,920,1,4,9,1.093760349
undo,23,10,1,0,0,19,"[0, 13, 11, 19]",4,11,"[2, 6, 8, 9, 10, 14, 18, 20, 24, 26, 27]",170.0919407,21675,1229,1,22,9,1.152362737
undo,23,10,1,0,0,11,"[0, 13, 11]",3,20,"[1, 2, 3, 6, 7, 8, 9, 10, 12, 14, 18, 19, 20, 21, 22, 24, 26, 27, 28, 29]",206.4512586,22904,1229,1,54,9,0.999999999
undo,23,10,1,0,0,13,"[0, 13]",2,25,"[1, 2, 3, 4, 6, 7, 8, 9, 10, 11, 12, 14, 17, 18, 19, 20, 21, 22, 23, 24, 25, 26, 27, 28, 29]",249.4628849,23518,614,1,79,9,1
undo,23,10,1,0,0,0,[0],1,29,"[1, 2, 3, 4, 5, 6, 7, 8, 9, 10, 11, 12, 13, 14, 15, 16, 17, 18, 19, 20, 21, 22, 23, 24, 25, 26, 27, 28, 29]",300,24437,919,1,100,9,0
undo,23,10,0,0,0,10,"[0, 10]",2,27,"[1, 2, 3, 4, 5, 6, 7, 8, 9, 11, 12, 13, 14, 15, 17, 18, 19, 20, 21, 22, 23, 24, 25, 26, 27, 28, 29]",211.2475352,31147,6710,5,73,8,1
undo,23,10,0,0,0,18,"[0, 10, 18]",3,24,"[1, 2, 3, 5, 6, 7, 8, 9, 11, 12, 13, 14, 15, 17, 19, 20, 21, 23, 24, 25, 26, 27, 28, 29]",197.7939112,32357,1210,5,49,8,0.574738661
undo,23,10,0,0,0,20,"[0, 10, 18, 20]",4,9,"[2, 6, 9, 11, 13, 14, 19, 26, 27]",126.4496753,33608,1251,3,23,8,1.565301878
undo,23,10,1,0,0,18,"[0, 10, 18]",3,24,"[1, 2, 3, 5, 6, 7, 8, 9, 11, 12, 13, 14, 15, 17, 19, 20, 21, 23, 24, 25, 26, 27, 28, 29]",197.7939112,34517,909,5,49,8,0.574738661
undo,23,10,1,0,0,10,"[0, 10]",2,27,"[1, 2, 3, 4, 5, 6, 7, 8, 9, 11, 12, 13, 14, 15, 17, 18, 19, 20, 21, 22, 23, 24, 25, 26, 27, 28, 29]",211.2475352,35130,613,5,73,8,1
undo,23,10,1,0,0,0,[0],1,29,"[1, 2, 3, 4, 5, 6, 7, 8, 9, 10, 11, 12, 13, 14, 15, 16, 17, 18, 19, 20, 21, 22, 23, 24, 25, 26, 27, 28, 29]",300,36369,1239,1,100,9,0
undo,23,10,0,0,0,13,"[0, 13]",2,25,"[1, 2, 3, 4, 6, 7, 8, 9, 10, 11, 12, 14, 17, 18, 19, 20, 21, 22, 23, 24, 25, 26, 27, 28, 29]",249.4628849,37287,918,1,79,9,1
undo,23,10,0,0,0,27,"[0, 13, 27]",3,13,"[1, 2, 6, 9, 10, 11, 12, 14, 18, 19, 20, 21, 26]",129.5962924,40955,3668,1,11,7,1
undo,23,10,0,0,0,20,"[0, 13, 27, 20]",4,7,"[2, 10, 11, 14, 18, 19, 26]",84.34145842,42184,1229,1,8,7,2.10111483
undo,23,10,1,0,0,27,"[0, 13, 27]",3,13,"[1, 2, 6, 9, 10, 11, 12, 14, 18, 19, 20, 21, 26]",129.5962924,43409,1225,1,11,7,1
undo,23,10,1,0,0,13,"[0, 13]",2,25,"[1, 2, 3, 4, 6, 7, 8, 9, 10, 11, 12, 14, 17, 18, 19, 20, 21, 22, 23, 24, 25, 26, 27, 28, 29]",249.4628849,44648,1239,1,79,9,1
undo,23,10,0,0,0,11,"[0, 13, 11]",3,20,"[1, 2, 3, 6, 7, 8, 9, 10, 12, 14, 18, 19, 20, 21, 22, 24, 26, 27, 28, 29]",206.4512586,48928,4280,1,54,9,0.999999999
undo,23,10,0,0,0,19,"[0, 13, 11, 19]",4,11,"[2, 6, 8, 9, 10, 14, 18, 20, 24, 26, 27]",170.0919407,49837,909,1,22,9,1.152362737
undo,23,10,0,0,0,2,"[0, 13, 11, 19, 2]",5,4,"[14, 20, 26, 27]",126.1829439,51065,1228,1,4,9,1.093760349
undo,23,10,0,0,0,14,"[0, 13, 11, 19, 2, 14]",6,3,"[20, 26, 27]",114.0174188,51986,921,1,3,9,1.236236263
undo,23,10,0,0,0,26,"[0, 13, 11, 19, 2, 14, 26]",7,2,"[20, 27]",79.34754716,53538,1552,1,1,9,2.031816406
undo,23,10,0,0,0,20,"[0, 13, 11, 19, 2, 14, 26, 20]",8,1,[27],47.56704999,55410,1872,1,0,9,2.569056857
undo,23,10,0,0,1,27,"[0, 13, 11, 19, 2, 14, 26, 20, 27]",9,0,[],2.312215998,56949,1539,1,0,9,2.061881161
undo,23,10,0,1,1,27,"[0, 13, 11, 19, 2, 14, 26, 20, 27]",9,0,[],2.312215998,59667,2718,1,0,9,2.061881161
undo,24,29,0,0,0,0,[0],1,29,"[1, 2, 3, 4, 5, 6, 7, 8, 9, 10, 11, 12, 13, 14, 15, 16, 17, 18, 19, 20, 21, 22, 23, 24, 25, 26, 27, 28, 29]",300,2360,-1,1,78,9,0
undo,24,29,0,0,0,6,"[0, 6]",2,28,"[1, 2, 3, 4, 5, 7, 8, 9, 10, 11, 12, 13, 14, 15, 16, 17, 18, 19, 20, 21, 22, 23, 24, 25, 26, 27, 28, 29]",228.4108947,4326,1966,1,25,9,1
undo,24,29,0,0,0,28,"[0, 6, 28]",3,24,"[1, 3, 4, 5, 7, 9, 10, 11, 12, 13, 14, 15, 16, 17, 18, 20, 21, 22, 23, 24, 25, 26, 27, 29]",187.1798384,5880,1554,1,22,9,1.162106788
undo,24,29,0,0,0,27,"[0, 6, 28, 27]",4,19,"[1, 3, 4, 5, 7, 9, 10, 11, 12, 13, 14, 15, 16, 21, 22, 23, 25, 26, 29]",166.6615539,6802,922,1,21,9,1.23071739
undo,24,29,0,0,0,22,"[0, 6, 28, 27, 22]",5,13,"[1, 3, 4, 5, 7, 9, 12, 13, 14, 15, 21, 26, 29]",133.4200136,8634,1832,1,19,9,1.424176781
undo,24,29,0,0,0,12,"[0, 6, 28, 27, 22, 12]",6,8,"[4, 5, 7, 9, 13, 14, 21, 26]",95.4726817,15704,7070,1,6,9,1.324835533
undo,24,29,0,0,0,7,"[0, 6, 28, 27, 22, 12, 7]",7,4,"[4, 5, 9, 21]",81.87121119,16630,926,1,3,9,1.326409196
undo,24,29,0,0,0,9,"[0, 6, 28, 27, 22, 12, 7, 9]",8,1,[4],52.80232748,17545,915,1,0,9,1.309391258
undo,24,29,0,0,1,4,"[0, 6, 28, 27, 22, 12, 7, 9, 4]",9,0,[],11.76575843,18480,935,1,0,9,1.639680779
undo,24,29,0,1,1,4,"[0, 6, 28, 27, 22, 12, 7, 9, 4]",9,0,[],11.76575843,20313,1833,1,0,9,1.639680779
undo,25,41,0,0,0,0,[0],1,29,"[1, 2, 3, 4, 5, 6, 7, 8, 9, 10, 11, 12, 13, 14, 15, 16, 17, 18, 19, 20, 21, 22, 23, 24, 25, 26, 27, 28, 29]",300,2337,-1,1,143,10,0
undo,25,41,0,0,0,13,"[0, 13]",2,23,"[1, 2, 3, 5, 6, 7, 9, 10, 11, 12, 14, 15, 17, 18, 19, 20, 21, 22, 24, 25, 26, 27, 28]",258.2747079,3978,1641,1,55,10,1
undo,25,41,0,0,0,28,"[0, 13, 28]",3,22,"[1, 2, 3, 5, 6, 7, 9, 10, 11, 12, 14, 15, 17, 18, 19, 20, 21, 22, 24, 25, 26, 27]",223.7928286,5203,1225,1,39,10,1.895724243
undo,25,41,0,0,0,5,"[0, 13, 28, 5]",4,19,"[1, 2, 3, 6, 9, 10, 11, 12, 14, 15, 17, 18, 19, 20, 21, 22, 24, 25, 27]",210.1913581,6129,926,1,34,10,2.861541269
undo,25,41,0,0,0,22,"[0, 13, 28, 5, 22]",5,12,"[2, 3, 6, 9, 10, 11, 12, 17, 18, 20, 21, 25]",155.4464953,8274,2145,11,12,9,2.096079269
undo,25,41,0,0,0,3,"[0, 13, 28, 5, 22, 3]",6,8,"[2, 9, 10, 12, 17, 18, 20, 21]",125.4798472,9794,1520,7,5,9,4.404491319
undo,25,41,0,0,0,21,"[0, 13, 28, 5, 22, 3, 21]",7,4,"[2, 9, 12, 17]",93.33952984,10725,931,5,1,9,4.228139798
undo,25,41,0,0,0,9,"[0, 13, 28, 5, 22, 3, 21, 9]",8,2,"[2, 17]",43.97354965,11952,1227,2,0,9,3.111188754
undo,25,41,0,0,1,2,"[0, 13, 28, 5, 22, 3, 21, 9, 2]",9,0,[],31.89050368,13181,1229,1,0,9,2.963304814
undo,25,41,1,0,0,9,"[0, 13, 28, 5, 22, 3, 21, 9]",8,2,"[2, 17]",43.97354965,16859,3678,2,0,9,3.111188754
undo,25,41,1,0,0,21,"[0, 13, 28, 5, 22, 3, 21]",7,4,"[2, 9, 12, 17]",93.33952984,18078,1219,5,1,9,4.228139798
undo,25,41,1,0,0,3,"[0, 13, 28, 5, 22, 3]",6,8,"[2, 9, 10, 12, 17, 18, 20, 21]",125.4798472,19000,922,7,5,9,4.404491319
undo,25,41,1,0,0,22,"[0, 13, 28, 5, 22]",5,12,"[2, 3, 6, 9, 10, 11, 12, 17, 18, 20, 21, 25]",155.4464953,19615,615,11,12,9,2.096079269
undo,25,41,1,0,0,5,"[0, 13, 28, 5]",4,19,"[1, 2, 3, 6, 9, 10, 11, 12, 14, 15, 17, 18, 19, 20, 21, 22, 24, 25, 27]",210.1913581,20221,606,1,34,10,2.861541269
undo,25,41,1,0,0,28,"[0, 13, 28]",3,22,"[1, 2, 3, 5, 6, 7, 9, 10, 11, 12, 14, 15, 17, 18, 19, 20, 21, 22, 24, 25, 26, 27]",223.7928286,20822,601,1,39,10,1.895724243
undo,25,41,1,0,0,13,"[0, 13]",2,23,"[1, 2, 3, 5, 6, 7, 9, 10, 11, 12, 14, 15, 17, 18, 19, 20, 21, 22, 24, 25, 26, 27, 28]",258.2747079,22957,2135,1,55,10,1
undo,25,41,1,0,0,0,[0],1,29,"[1, 2, 3, 4, 5, 6, 7, 8, 9, 10, 11, 12, 13, 14, 15, 16, 17, 18, 19, 20, 21, 22, 23, 24, 25, 26, 27, 28, 29]",300,23871,914,1,143,10,0
undo,25,41,0,0,0,17,"[0, 17]",2,25,"[1, 2, 3, 4, 5, 6, 9, 10, 11, 12, 13, 14, 15, 16, 18, 19, 20, 21, 22, 24, 25, 26, 27, 28, 29]",236.612304,27837,3966,10,71,9,1
undo,25,41,0,0,0,2,"[0, 17, 2]",3,23,"[1, 3, 4, 5, 6, 9, 10, 11, 12, 13, 14, 15, 18, 19, 20, 21, 22, 24, 25, 26, 27, 28, 29]",204.0546628,29058,1221,7,35,9,1.060444645
undo,25,41,0,0,0,9,"[0, 17, 2, 9]",4,20,"[1, 3, 5, 6, 10, 12, 13, 14, 15, 18, 19, 20, 21, 22, 24, 25, 26, 27, 28, 29]",191.9716169,29971,913,7,27,9,1.312742063
undo,25,41,0,0,0,21,"[0, 17, 2, 9, 21]",5,15,"[1, 3, 5, 6, 10, 12, 13, 14, 18, 19, 20, 22, 25, 27, 28]",142.6056367,31222,1251,7,18,9,3.220187058
undo,25,41,0,0,0,22,"[0, 17, 2, 9, 21, 22]",6,3,"[3, 5, 28]",91.60563668,32777,1555,1,4,9,3.021795325
undo,25,41,0,0,0,3,"[0, 17, 2, 9, 21, 22, 3]",7,2,"[5, 28]",61.63898855,33707,930,1,1,9,6.015689242
undo,25,41,0,0,0,5,"[0, 17, 2, 9, 21, 22, 3, 5]",8,1,[28],26.81083902,35252,1545,1,0,9,8.704530455
undo,25,41,0,0,1,28,"[0, 17, 2, 9, 21, 22, 3, 5, 28]",9,0,[],13.20936851,35875,623,1,0,9,7.134183603
undo,25,41,0,1,1,28,"[0, 17, 2, 9, 21, 22, 3, 5, 28]",9,0,[],13.20936851,42304,6429,1,0,9,7.134183603
undo,26,44,0,0,0,0,[0],1,29,"[1, 2, 3, 4, 5, 6, 7, 8, 9, 10, 11, 12, 13, 14, 15, 16, 17, 18, 19, 20, 21, 22, 23, 24, 25, 26, 27, 28, 29]",300,2359,-1,13,126,7,0
undo,26,44,0,0,0,9,"[0, 9]",2,17,"[2, 4, 5, 7, 8, 10, 11, 12, 13, 14, 20, 22, 23, 24, 25, 26, 28]",141.32423,5318,2959,3,26,7,1
undo,26,44,0,0,0,4,"[0, 9, 4]",3,15,"[2, 5, 7, 8, 10, 11, 12, 14, 20, 22, 23, 24, 25, 26, 28]",121.6265143,6561,1243,3,21,7,1.015553284
undo,26,44,0,0,0,7,"[0, 9, 4, 7]",4,10,"[2, 5, 11, 12, 14, 23, 24, 25, 26, 28]",90.61038951,7803,1242,3,9,7,1.013402284
undo,26,44,0,0,0,23,"[0, 9, 4, 7, 23]",5,7,"[5, 12, 14, 24, 25, 26, 28]",71.50541634,11206,3403,3,4,7,1.043310758
undo,26,44,0,0,0,28,"[0, 9, 4, 7, 23, 28]",6,1,[26],19.5342705,18314,7108,1,0,7,1.058007252
undo,26,44,0,0,1,26,"[0, 9, 4, 7, 23, 28, 26]",7,0,[],6.534270496,18927,613,1,0,7,1.055488729
undo,26,44,1,0,0,28,"[0, 9, 4, 7, 23, 28]",6,1,[26],19.5342705,21090,2163,1,0,7,1.058007252
undo,26,44,1,0,0,23,"[0, 9, 4, 7, 23]",5,7,"[5, 12, 14, 24, 25, 26, 28]",71.50541634,21999,909,3,4,7,1.043310758
undo,26,44,1,0,0,7,"[0, 9, 4, 7]",4,10,"[2, 5, 11, 12, 14, 23, 24, 25, 26, 28]",90.61038951,23224,1225,3,9,7,1.013402284
undo,26,44,1,0,0,4,"[0, 9, 4]",3,15,"[2, 5, 7, 8, 10, 11, 12, 14, 20, 22, 23, 24, 25, 26, 28]",121.6265143,23827,603,3,21,7,1.015553284
undo,26,44,1,0,0,9,"[0, 9]",2,17,"[2, 4, 5, 7, 8, 10, 11, 12, 13, 14, 20, 22, 23, 24, 25, 26, 28]",141.32423,24735,908,3,26,7,1
undo,26,44,1,0,0,0,[0],1,29,"[1, 2, 3, 4, 5, 6, 7, 8, 9, 10, 11, 12, 13, 14, 15, 16, 17, 18, 19, 20, 21, 22, 23, 24, 25, 26, 27, 28, 29]",300,30212,5477,13,126,7,0
undo,26,44,0,0,0,11,"[0, 11]",2,18,"[4, 5, 6, 7, 8, 9, 12, 14, 16, 17, 19, 20, 22, 23, 24, 25, 26, 28]",152.7790776,31136,924,5,34,7,1
undo,26,44,0,0,0,24,"[0, 11, 24]",3,13,"[4, 5, 7, 8, 9, 12, 14, 17, 20, 22, 23, 25, 28]",125.8532535,32660,1524,5,23,7,1.158894175
undo,26,44,0,0,0,4,"[0, 11, 24, 4]",4,9,"[5, 7, 8, 9, 12, 14, 20, 23, 25]",91.19780664,33899,1239,3,11,7,1.188796375
undo,26,44,0,0,0,7,"[0, 11, 24, 4, 7]",5,5,"[5, 9, 12, 23, 25]",60.1816818,36645,2746,1,4,7,1.160670918
undo,26,44,1,0,0,4,"[0, 11, 24, 4]",4,9,"[5, 7, 8, 9, 12, 14, 20, 23, 25]",91.19780664,38788,2143,3,11,7,1.188796375
undo,26,44,1,0,0,24,"[0, 11, 24]",3,13,"[4, 5, 7, 8, 9, 12, 14, 17, 20, 22, 23, 25, 28]",125.8532535,39709,921,5,23,7,1.158894175
undo,26,44,1,0,0,11,"[0, 11]",2,18,"[4, 5, 6, 7, 8, 9, 12, 14, 16, 17, 19, 20, 22, 23, 24, 25, 26, 28]",152.7790776,42505,2796,5,34,7,1
undo,26,44,1,0,0,0,[0],1,29,"[1, 2, 3, 4, 5, 6, 7, 8, 9, 10, 11, 12, 13, 14, 15, 16, 17, 18, 19, 20, 21, 22, 23, 24, 25, 26, 27, 28, 29]",300,48348,5843,13,126,7,0
undo,26,44,0,0,0,8,"[0, 8]",2,17,"[1, 4, 5, 7, 9, 10, 11, 12, 13, 14, 15, 20, 21, 23, 24, 25, 27]",145.7923478,51103,2755,1,10,7,1
undo,26,44,1,0,0,0,[0],1,29,"[1, 2, 3, 4, 5, 6, 7, 8, 9, 10, 11, 12, 13, 14, 15, 16, 17, 18, 19, 20, 21, 22, 23, 24, 25, 26, 27, 28, 29]",300,54787,3684,13,126,7,0
undo,26,44,0,0,0,24,"[0, 24]",2,19,"[2, 4, 5, 6, 7, 8, 9, 11, 12, 14, 16, 17, 19, 20, 22, 23, 25, 26, 28]",149.7302426,57235,2448,4,43,7,1
undo,26,44,0,0,0,9,"[0, 24, 9]",3,11,"[4, 5, 7, 8, 11, 12, 14, 20, 23, 25, 28]",116.9735639,59377,2142,2,15,7,1.15346178
undo,26,44,0,0,0,4,"[0, 24, 9, 4]",4,10,"[5, 7, 8, 11, 12, 14, 20, 23, 25, 28]",97.27584825,60300,923,2,10,7,1.154191596
undo,26,44,0,0,0,7,"[0, 24, 9, 4, 7]",5,4,"[5, 12, 23, 25]",66.25972341,61237,937,2,2,7,1.131254457
undo,26,44,0,0,1,23,"[0, 24, 9, 4, 7, 23]",6,0,[],47.15475024,63043,1806,1,0,6,1.154496377
undo,26,44,1,0,0,7,"[0, 24, 9, 4, 7]",5,4,"[5, 12, 23, 25]",66.25972341,65193,2150,2,2,7,1.131254457
undo,26,44,1,0,0,4,"[0, 24, 9, 4]",4,10,"[5, 7, 8, 11, 12, 14, 20, 23, 25, 28]",97.27584825,65800,607,2,10,7,1.154191596
undo,26,44,1,0,0,9,"[0, 24, 9]",3,11,"[4, 5, 7, 8, 11, 12, 14, 20, 23, 25, 28]",116.9735639,66418,618,2,15,7,1.15346178
undo,26,44,1,0,0,24,"[0, 24]",2,19,"[2, 4, 5, 6, 7, 8, 9, 11, 12, 14, 16, 17, 19, 20, 22, 23, 25, 26, 28]",149.7302426,68249,1831,4,43,7,1
undo,26,44,0,0,0,4,"[0, 24, 4]",3,13,"[5, 7, 8, 9, 11, 12, 14, 20, 22, 23, 25, 26, 28]",115.0747957,69480,1231,2,18,7,1.052854901
undo,26,44,0,0,0,7,"[0, 24, 4, 7]",4,9,"[5, 9, 11, 12, 14, 23, 25, 26, 28]",84.05867082,70710,1230,2,6,7,1.045111243
undo,26,44,0,0,0,23,"[0, 24, 4, 7, 23]",5,5,"[5, 12, 25, 26, 28]",64.95369765,71618,908,2,3,7,1.073226034
undo,26,44,0,0,0,5,"[0, 24, 4, 7, 23, 5]",6,1,[25],17.53007484,72848,1230,1,0,7,1.113346787
undo,26,44,0,0,1,25,"[0, 24, 4, 7, 23, 5, 25]",7,0,[],7.089768334,73760,912,1,0,7,1.160434187
undo,26,44,0,1,1,25,"[0, 24, 4, 7, 23, 5, 25]",7,0,[],7.089768334,85866,12106,1,0,7,1.160434187
undo,27,40,0,0,0,0,[0],1,29,"[1, 2, 3, 4, 5, 6, 7, 8, 9, 10, 11, 12, 13, 14, 15, 16, 17, 18, 19, 20, 21, 22, 23, 24, 25, 26, 27, 28, 29]",300,2343,-1,8,191,9,0
undo,27,40,0,0,0,1,"[0, 1]",2,18,"[2, 5, 6, 7, 8, 9, 10, 11, 13, 15, 17, 18, 19, 21, 22, 23, 27, 29]",247.8463808,3651,1308,4,80,9,1
undo,27,40,0,0,0,6,"[0, 1, 6]",3,17,"[2, 5, 7, 8, 9, 10, 11, 13, 15, 17, 18, 19, 21, 22, 23, 27, 29]",227.7466295,4566,915,4,74,9,1.045942701
undo,27,40,0,0,0,9,"[0, 1, 6, 9]",4,10,"[2, 5, 8, 11, 18, 19, 21, 22, 23, 27]",159.146338,5812,1246,17,39,8,1.142098433
undo,27,40,0,0,0,18,"[0, 1, 6, 9, 18]",5,9,"[2, 5, 8, 11, 19, 21, 22, 23, 27]",142.5933926,7037,1225,13,14,8,1.328810865
undo,27,40,0,0,0,5,"[0, 1, 6, 9, 18, 5]",6,7,"[2, 8, 19, 21, 22, 23, 27]",111.0180858,10408,3371,5,5,8,1.536641479
undo,27,40,0,0,0,23,"[0, 1, 6, 9, 18, 5, 23]",7,3,"[2, 19, 21]",82.71614241,11315,907,3,0,8,2.290882104
undo,27,40,0,0,1,19,"[0, 1, 6, 9, 18, 5, 23, 19]",8,0,[],50.76305179,12554,1239,1,0,8,2.42941312
undo,27,40,1,0,0,23,"[0, 1, 6, 9, 18, 5, 23]",7,3,"[2, 19, 21]",82.71614241,21174,8620,3,0,8,2.290882104
undo,27,40,1,0,0,5,"[0, 1, 6, 9, 18, 5]",6,7,"[2, 8, 19, 21, 22, 23, 27]",111.0180858,22408,1234,5,5,8,1.536641479
undo,27,40,1,0,0,18,"[0, 1, 6, 9, 18]",5,9,"[2, 5, 8, 11, 19, 21, 22, 23, 27]",142.5933926,23031,623,13,14,8,1.328810865
undo,27,40,1,0,0,9,"[0, 1, 6, 9]",4,10,"[2, 5, 8, 11, 18, 19, 21, 22, 23, 27]",159.146338,24241,1210,17,39,8,1.142098433
undo,27,40,1,0,0,6,"[0, 1, 6]",3,17,"[2, 5, 7, 8, 9, 10, 11, 13, 15, 17, 18, 19, 21, 22, 23, 27, 29]",227.7466295,26400,2159,4,74,9,1.045942701
undo,27,40,0,0,0,21,"[0, 1, 6, 21]",4,8,"[2, 5, 9, 17, 18, 19, 22, 23]",175.7754837,27314,914,4,25,9,1.030882226
undo,27,40,0,0,0,9,"[0, 1, 6, 21, 9]",5,6,"[2, 5, 18, 19, 22, 23]",130.0699041,28541,1227,4,12,9,1.377861913
undo,27,40,0,0,0,18,"[0, 1, 6, 21, 9, 18]",6,5,"[2, 5, 19, 22, 23]",113.5169588,29749,1208,4,4,9,1.574271217
undo,27,40,0,0,0,5,"[0, 1, 6, 21, 9, 18, 5]",7,3,"[19, 22, 23]",81.94165198,31591,1842,2,1,9,1.773066506
undo,27,40,0,0,0,23,"[0, 1, 6, 21, 9, 18, 5, 23]",8,1,[19],53.63970859,32500,909,1,0,9,2.59744276
undo,27,40,0,0,1,19,"[0, 1, 6, 21, 9, 18, 5, 23, 19]",9,0,[],21.68661797,34932,2432,1,0,9,2.712832855
undo,27,40,0,1,1,19,"[0, 1, 6, 21, 9, 18, 5, 23, 19]",9,0,[],21.68661797,37668,2736,1,0,9,2.712832855
undo,28,6,0,0,0,0,[0],1,29,"[1, 2, 3, 4, 5, 6, 7, 8, 9, 10, 11, 12, 13, 14, 15, 16, 17, 18, 19, 20, 21, 22, 23, 24, 25, 26, 27, 28, 29]",300,2327,-1,180,4304,10,0
undo,28,6,0,0,0,26,"[0, 26]",2,25,"[1, 2, 3, 4, 5, 6, 7, 8, 9, 10, 11, 12, 13, 14, 15, 16, 17, 18, 20, 21, 22, 23, 24, 27, 29]",250.2606795,2662,335,45,776,10,1
undo,28,6,0,0,0,7,"[0, 26, 7]",3,24,"[1, 2, 3, 4, 5, 6, 8, 9, 10, 11, 12, 13, 14, 15, 16, 17, 18, 20, 21, 22, 23, 24, 27, 29]",226.1774904,3592,930,25,520,10,1.537301863
undo,28,6,0,0,0,3,"[0, 26, 7, 3]",4,22,"[1, 2, 4, 6, 8, 9, 10, 11, 12, 13, 14, 15, 16, 17, 18, 20, 21, 22, 23, 24, 27, 29]",190.0388684,4819,1227,20,235,10,3.279865577
undo,28,6,0,0,0,16,"[0, 26, 7, 3, 16]",5,15,"[1, 2, 6, 10, 13, 14, 17, 18, 20, 21, 22, 23, 24, 27, 29]",143.8003563,13394,8575,3,39,10,2.164019537
undo,28,6,0,0,0,18,"[0, 26, 7, 3, 16, 18]",6,10,"[1, 2, 6, 10, 13, 17, 22, 23, 24, 29]",120.4551212,14605,1211,2,15,10,2.948116256
undo,28,6,0,0,0,17,"[0, 26, 7, 3, 16, 18, 17]",7,8,"[2, 6, 10, 13, 22, 23, 24, 29]",106.526733,15529,924,2,8,10,2.741338683
undo,28,6,0,0,0,10,"[0, 26, 7, 3, 16, 18, 17, 10]",8,4,"[6, 23, 24, 29]",86.80365003,17068,1539,2,3,10,2.527684322
undo,28,6,0,0,0,24,"[0, 26, 7, 3, 16, 18, 17, 10, 24]",9,2,"[6, 23]",73.38724217,18606,1538,2,0,10,2.329169562
undo,28,6,0,0,1,23,"[0, 26, 7, 3, 16, 18, 17, 10, 24, 23]",10,0,[],12.19900801,20142,1536,1,0,10,2.144546316
undo,28,6,0,1,1,23,"[0, 26, 7, 3, 16, 18, 17, 10, 24, 23]",10,0,[],12.19900801,29337,9195,1,0,10,2.144546316
undo,29,42,0,0,0,0,[0],1,29,"[1, 2, 3, 4, 5, 6, 7, 8, 9, 10, 11, 12, 13, 14, 15, 16, 17, 18, 19, 20, 21, 22, 23, 24, 25, 26, 27, 28, 29]",300,2340,-1,16,302,9,0
undo,29,42,0,0,0,5,"[0, 5]",2,28,"[1, 2, 3, 4, 6, 7, 8, 9, 10, 11, 12, 13, 14, 15, 16, 17, 18, 19, 20, 21, 22, 23, 24, 25, 26, 27, 28, 29]",191.2939744,5269,2929,1,22,9,1
undo,29,42,0,0,0,4,"[0, 5, 4]",3,23,"[1, 2, 3, 6, 7, 8, 9, 10, 11, 13, 15, 17, 18, 19, 20, 21, 22, 23, 24, 25, 26, 27, 29]",171.4445412,6513,1244,1,14,9,1.420957801
undo,29,42,0,0,0,22,"[0, 5, 4, 22]",4,20,"[1, 2, 3, 6, 7, 8, 9, 11, 15, 17, 18, 19, 20, 21, 23, 24, 25, 26, 27, 29]",160.2642013,7438,925,1,11,9,1.577149466
undo,29,42,0,0,0,8,"[0, 5, 4, 22, 8]",5,14,"[1, 2, 3, 6, 7, 11, 15, 18, 19, 24, 25, 26, 27, 29]",138.1282577,8678,1240,1,10,9,1.505539396
undo,29,42,0,0,0,1,"[0, 5, 4, 22, 8, 1]",6,5,"[2, 7, 19, 26, 27]",89.03650682,9924,1246,1,7,9,1.354725908
undo,29,42,0,0,0,7,"[0, 5, 4, 22, 8, 1, 7]",7,4,"[2, 19, 26, 27]",59.03650682,12076,2152,1,3,9,1.390971567
undo,29,42,0,0,0,26,"[0, 5, 4, 22, 8, 1, 7, 26]",8,1,[27],32.46584631,14544,2468,1,0,9,1.351182594
undo,29,42,0,0,1,27,"[0, 5, 4, 22, 8, 1, 7, 26, 27]",9,0,[],14.43808994,17272,2728,1,0,9,1.339191169
undo,29,42,0,1,1,27,"[0, 5, 4, 22, 8, 1, 7, 26, 27]",9,0,[],14.43808994,24028,6756,1,0,9,1.339191169
undo,30,15,0,0,0,0,[0],1,24,"[1, 3, 4, 7, 8, 9, 10, 11, 12, 13, 14, 15, 16, 18, 20, 21, 22, 23, 24, 25, 26, 27, 28, 29]",300,1500,-1,30,107,8,1
undo,30,15,0,0,0,7,"[0, 7]",2,23,"[1, 3, 4, 8, 9, 10, 11, 12, 13, 14, 15, 16, 18, 20, 21, 22, 23, 24, 25, 26, 27, 28, 29]",215.1884442,2329,-1,30,107,8,1
undo,30,15,0,0,0,16,"[0, 7, 16]",3,14,"[3, 4, 9, 10, 11, 12, 13, 14, 15, 18, 21, 22, 25, 27]",171.5306843,6025,3696,11,27,8,1
undo,30,15,0,0,0,11,"[0, 7, 16, 11]",4,10,"[3, 4, 12, 13, 14, 15, 18, 21, 22, 27]",145.5114606,7873,1848,6,10,8,1.679573084
undo,30,15,0,0,0,3,"[0, 7, 16, 11, 3]",5,8,"[4, 12, 13, 14, 15, 18, 21, 22]",134.1097064,9101,1228,6,4,8,1.570573887
undo,30,15,0,0,0,22,"[0, 7, 16, 11, 3, 22]",6,5,"[4, 13, 14, 15, 18]",84.38043933,10331,1230,2,3,8,1.319611045
undo,30,15,0,0,0,13,"[0, 7, 16, 11, 3, 22, 13]",7,1,[15],56.22018365,12160,1829,1,0,8,1.251563402
undo,30,15,0,0,1,15,"[0, 7, 16, 11, 3, 22, 13, 15]",8,0,[],40.95584612,12770,610,1,0,8,1.457924044
undo,30,15,1,0,0,13,"[0, 7, 16, 11, 3, 22, 13]",7,1,[15],56.22018365,19212,6442,1,0,8,1.251563402
undo,30,15,1,0,0,22,"[0, 7, 16, 11, 3, 22]",6,5,"[4, 13, 14, 15, 18]",84.38043933,20126,914,2,3,8,1.319611045
undo,30,15,1,0,0,3,"[0, 7, 16, 11, 3]",5,8,"[4, 12, 13, 14, 15, 18, 21, 22]",134.1097064,20433,307,6,4,8,1.570573887
undo,30,15,1,0,0,11,"[0, 7, 16, 11]",4,10,"[3, 4, 12, 13, 14, 15, 18, 21, 22, 27]",145.5114606,20741,308,6,10,8,1.679573084
undo,30,15,1,0,0,16,"[0, 7, 16]",3,14,"[3, 4, 9, 10, 11, 12, 13, 14, 15, 18, 21, 22, 25, 27]",171.5306843,21347,606,11,27,8,1
undo,30,15,1,0,0,7,"[0, 7]",2,23,"[1, 3, 4, 8, 9, 10, 11, 12, 13, 14, 15, 16, 18, 20, 21, 22, 23, 24, 25, 26, 27, 28, 29]",215.1884442,23190,1843,30,107,8,1
undo,30,15,1,0,0,0,[0],1,25,"[1, 2, 3, 4, 7, 8, 9, 10, 11, 12, 13, 14, 15, 16, 18, 20, 21, 22, 23, 24, 25, 26, 27, 28, 29]",300,26522,3332,4,65,9,0
undo,30,15,0,0,0,12,"[0, 12]",2,22,"[1, 2, 3, 4, 7, 8, 9, 10, 11, 13, 14, 15, 16, 18, 21, 22, 23, 24, 26, 27, 28, 29]",213.547701,27464,942,4,35,9,1
undo,30,15,0,0,0,7,"[0, 12, 7]",3,16,"[1, 3, 4, 8, 9, 10, 11, 13, 14, 15, 16, 18, 21, 22, 24, 27]",180.3061607,28694,1230,4,29,9,inf
undo,30,15,0,0,0,16,"[0, 12, 7, 16]",4,10,"[3, 4, 10, 11, 13, 14, 15, 18, 21, 22]",136.6484008,30232,1538,2,11,9,1.798993892
undo,30,15,0,0,0,11,"[0, 12, 7, 16, 11]",5,7,"[3, 4, 13, 14, 15, 21, 22]",110.6291772,31480,1248,2,5,9,2.520415228
undo,30,15,0,0,0,3,"[0, 12, 7, 16, 11, 3]",6,5,"[4, 13, 14, 15, 22]",99.22742292,32686,1206,2,3,9,2.246277593
undo,30,15,0,0,0,22,"[0, 12, 7, 16, 11, 3, 22]",7,2,"[13, 15]",49.49815588,34850,2164,2,0,9,1.671508825
undo,30,15,0,0,0,13,"[0, 12, 7, 16, 11, 3, 22, 13]",8,1,[15],21.3379002,36073,1223,1,0,9,1.526193
undo,30,15,0,0,1,15,"[0, 12, 7, 16, 11, 3, 22, 13, 15]",9,0,[],6.073562677,36993,920,1,0,9,1.749808113
undo,30,15,0,1,1,15,"[0, 12, 7, 16, 11, 3, 22, 13, 15]",9,0,[],6.073562677,42500,5507,1,0,9,1.749808113
undo,31,28,0,0,0,0,[0],1,27,"[1, 2, 3, 4, 5, 6, 7, 8, 9, 10, 11, 12, 13, 14, 15, 16, 17, 18, 19, 20, 22, 23, 25, 26, 27, 28, 29]",300,2326,-1,2,96,9,0
undo,31,28,0,0,0,3,"[0, 3]",2,26,"[1, 2, 4, 5, 6, 7, 8, 9, 10, 11, 12, 13, 14, 15, 16, 17, 18, 19, 20, 22, 23, 25, 26, 27, 28, 29]",251.0817008,2987,661,1,64,9,1
undo,31,28,0,0,0,19,"[0, 3, 19]",3,16,"[2, 4, 5, 7, 8, 9, 11, 12, 13, 14, 17, 18, 25, 26, 27, 28]",117.395501,5442,2455,1,25,8,1.000111027
undo,31,28,0,0,0,7,"[0, 3, 19, 7]",4,8,"[2, 11, 12, 13, 14, 17, 18, 26]",89.66465178,6668,1226,1,8,8,1.073754624
undo,31,28,0,0,0,12,"[0, 3, 19, 7, 12]",5,5,"[2, 13, 14, 17, 18]",76.51170534,7582,914,1,3,8,1.084779608
undo,31,28,0,0,0,13,"[0, 3, 19, 7, 12, 13]",6,2,"[14, 18]",59.30705481,8505,923,1,1,8,1.263223338
undo,31,28,0,0,0,18,"[0, 3, 19, 7, 12, 13, 18]",7,1,[14],34.89394358,10031,1526,1,0,8,1.593529628
undo,31,28,0,0,1,14,"[0, 3, 19, 7, 12, 13, 18, 14]",8,0,[],9.39884601,11269,1238,1,0,8,1.910485788
undo,31,28,1,0,0,18,"[0, 3, 19, 7, 12, 13, 18]",7,1,[14],34.89394358,19146,7877,1,0,8,1.593529628
undo,31,28,1,0,0,13,"[0, 3, 19, 7, 12, 13]",6,2,"[14, 18]",59.30705481,20359,1213,1,1,8,1.263223338
undo,31,28,1,0,0,12,"[0, 3, 19, 7, 12]",5,5,"[2, 13, 14, 17, 18]",76.51170534,20671,312,1,3,8,1.084779608
undo,31,28,1,0,0,7,"[0, 3, 19, 7]",4,8,"[2, 11, 12, 13, 14, 17, 18, 26]",89.66465178,20973,302,1,8,8,1.073754624
undo,31,28,1,0,0,19,"[0, 3, 19]",3,16,"[2, 4, 5, 7, 8, 9, 11, 12, 13, 14, 17, 18, 25, 26, 27, 28]",117.395501,22192,1219,1,25,8,1.000111027
undo,31,28,1,0,0,3,"[0, 3]",2,26,"[1, 2, 4, 5, 6, 7, 8, 9, 10, 11, 12, 13, 14, 15, 16, 17, 18, 19, 20, 22, 23, 25, 26, 27, 28, 29]",251.0817008,25556,3364,1,64,9,1
undo,31,28,0,0,0,5,"[0, 3, 5]",3,20,"[2, 4, 6, 7, 8, 9, 10, 11, 12, 13, 14, 15, 18, 19, 20, 23, 25, 26, 28, 29]",166.9865166,27100,1544,1,34,9,1.020376947
undo,31,28,0,0,0,26,"[0, 3, 5, 26]",4,13,"[2, 4, 7, 8, 9, 12, 13, 14, 18, 19, 20, 25, 28]",134.2298379,28619,1519,1,28,9,1.031520323
undo,31,28,0,0,0,19,"[0, 3, 5, 26, 19]",5,7,"[2, 7, 9, 12, 13, 14, 18]",93.22983789,30777,2158,1,17,9,1.132464536
undo,31,28,0,0,0,7,"[0, 3, 5, 26, 19, 7]",6,5,"[2, 12, 13, 14, 18]",65.49898864,31999,1222,1,6,9,1.197119492
undo,31,28,0,0,0,12,"[0, 3, 5, 26, 19, 7, 12]",7,2,"[13, 18]",52.3460422,33225,1226,1,1,9,1.202076215
undo,31,28,0,0,0,13,"[0, 3, 5, 26, 19, 7, 12, 13]",8,1,[18],35.14139167,34440,1215,1,0,9,1.390051441
undo,31,28,0,0,1,18,"[0, 3, 5, 26, 19, 7, 12, 13, 18]",9,0,[],10.72828044,35685,1245,1,0,9,1.738787344
undo,31,28,0,1,1,18,"[0, 3, 5, 26, 19, 7, 12, 13, 18]",9,0,[],10.72828044,38724,3039,1,0,9,1.738787344
undo,32,19,0,0,0,0,[0],1,29,"[1, 2, 3, 4, 5, 6, 7, 8, 9, 10, 11, 12, 13, 14, 15, 16, 17, 18, 19, 20, 21, 22, 23, 24, 25, 26, 27, 28, 29]",300,2335,-1,12,149,8,0
undo,32,19,0,0,0,28,"[0, 28]",2,10,"[4, 6, 9, 10, 11, 14, 20, 22, 24, 27]",136.1219966,9576,7241,2,14,7,1
undo,32,19,0,0,0,4,"[0, 28, 4]",3,9,"[6, 9, 10, 11, 14, 20, 22, 24, 27]",124.9416567,10796,1220,2,10,7,1.062208901
undo,32,19,0,0,0,11,"[0, 28, 4, 11]",4,4,"[14, 20, 22, 24]",66.80388929,12932,2136,4,1,6,1.063581294
undo,32,19,0,0,0,14,"[0, 28, 4, 11, 14]",5,2,"[20, 22]",55.98723547,13863,931,2,0,6,1.16684421
undo,32,19,0,0,1,20,"[0, 28, 4, 11, 14, 20]",6,0,[],10.33638662,15383,1520,1,0,6,1.281245952
undo,32,19,1,0,0,14,"[0, 28, 4, 11, 14]",5,2,"[20, 22]",55.98723547,17535,2152,2,0,6,1.16684421
undo,32,19,1,0,0,11,"[0, 28, 4, 11]",4,4,"[14, 20, 22, 24]",66.80388929,18144,609,4,1,6,1.063581294
undo,32,19,1,0,0,4,"[0, 28, 4]",3,9,"[6, 9, 10, 11, 14, 20, 22, 24, 27]",124.9416567,18444,300,2,10,7,1.062208901
undo,32,19,1,0,0,28,"[0, 28]",2,10,"[4, 6, 9, 10, 11, 14, 20, 22, 24, 27]",136.1219966,19372,928,2,14,7,1
undo,32,19,1,0,0,0,[0],1,29,"[1, 2, 3, 4, 5, 6, 7, 8, 9, 10, 11, 12, 13, 14, 15, 16, 17, 18, 19, 20, 21, 22, 23, 24, 25, 26, 27, 28, 29]",300,22139,2767,12,149,8,0
undo,32,19,0,0,0,29,"[0, 29]",2,28,"[1, 2, 3, 4, 5, 6, 7, 8, 9, 10, 11, 12, 13, 14, 15, 16, 17, 18, 19, 20, 21, 22, 23, 24, 25, 26, 27, 28]",265.0715016,23058,919,12,120,8,1
undo,32,19,0,0,0,9,"[0, 29, 9]",3,17,"[1, 4, 5, 6, 7, 10, 11, 12, 13, 14, 19, 20, 21, 22, 24, 27, 28]",181.7108394,24292,1234,11,65,8,1.037584297
undo,32,19,0,0,0,6,"[0, 29, 9, 6]",4,12,"[4, 7, 10, 11, 13, 14, 20, 21, 22, 24, 27, 28]",140.2741407,26429,2137,11,34,8,1.038978636
undo,32,19,0,0,0,28,"[0, 29, 9, 6, 28]",5,5,"[4, 11, 14, 22, 27]",89.18598161,28268,1839,2,4,8,1.286408267
undo,32,19,0,0,0,4,"[0, 29, 9, 6, 28, 4]",6,4,"[11, 14, 22, 27]",78.00564173,29190,922,2,2,8,1.347004541
undo,32,19,0,0,0,14,"[0, 29, 9, 6, 28, 4, 14]",7,1,[11],27.99564273,31344,2154,1,0,8,1.300697158
undo,32,19,0,0,1,11,"[0, 29, 9, 6, 28, 4, 14, 11]",8,0,[],17.1789889,32273,929,1,0,8,1.289914896
undo,32,19,0,1,1,11,"[0, 29, 9, 6, 28, 4, 14, 11]",8,0,[],17.1789889,40538,8265,1,0,8,1.289914896
undo,33,37,0,0,0,0,[0],1,29,"[1, 2, 3, 4, 5, 6, 7, 8, 9, 10, 11, 12, 13, 14, 15, 16, 17, 18, 19, 20, 21, 22, 23, 24, 25, 26, 27, 28, 29]",300,2370,-1,6,168,10,0
undo,33,37,0,0,0,19,"[0, 19]",2,19,"[1, 2, 4, 5, 6, 7, 9, 10, 11, 15, 17, 18, 20, 21, 22, 25, 26, 28, 29]",185.6627795,5002,2632,25,244,9,1
undo,33,37,0,0,0,26,"[0, 19, 26]",3,9,"[1, 2, 4, 15, 20, 21, 22, 25, 29]",120.4094271,8079,3077,12,37,8,1.025629203
undo,33,37,0,0,0,21,"[0, 19, 26, 21]",4,6,"[1, 2, 4, 15, 20, 22]",90.67728956,8694,615,8,18,8,1.348785922
undo,33,37,0,0,0,15,"[0, 19, 26, 21, 15]",5,4,"[1, 2, 4, 20]",75.67728956,10249,1555,4,7,8,1.348116582
undo,33,37,0,0,0,20,"[0, 19, 26, 21, 15, 20]",6,3,"[1, 2, 4]",58.67728956,10872,623,2,2,8,1.609927513
undo,33,37,0,0,0,1,"[0, 19, 26, 21, 15, 20, 1]",7,2,"[2, 4]",24.44280403,14894,4022,2,0,8,1.740515528
undo,33,37,0,0,1,2,"[0, 19, 26, 21, 15, 20, 1, 2]",8,0,[],7.238153493,15521,627,1,0,8,1.936613112
undo,33,37,1,0,0,1,"[0, 19, 26, 21, 15, 20, 1]",7,2,"[2, 4]",24.44280403,21973,6452,2,0,8,1.740515528
undo,33,37,1,0,0,20,"[0, 19, 26, 21, 15, 20]",6,3,"[1, 2, 4]",58.67728956,22588,615,2,2,8,1.609927513
undo,33,37,1,0,0,15,"[0, 19, 26, 21, 15]",5,4,"[1, 2, 4, 20]",75.67728956,22896,308,4,7,8,1.348116582
undo,33,37,1,0,0,21,"[0, 19, 26, 21]",4,6,"[1, 2, 4, 15, 20, 22]",90.67728956,23198,302,8,18,8,1.348785922
undo,33,37,1,0,0,26,"[0, 19, 26]",3,9,"[1, 2, 4, 15, 20, 21, 22, 25, 29]",120.4094271,23501,303,12,37,8,1.025629203
undo,33,37,1,0,0,19,"[0, 19]",2,19,"[1, 2, 4, 5, 6, 7, 9, 10, 11, 15, 17, 18, 20, 21, 22, 25, 26, 28, 29]",185.6627795,23808,307,25,244,9,1
undo,33,37,0,0,0,21,"[0, 19, 21]",3,14,"[1, 2, 4, 7, 10, 11, 15, 17, 18, 20, 22, 25, 26, 29]",144.5531699,25970,2162,10,75,9,1.001632817
undo,33,37,0,0,0,15,"[0, 19, 21, 15]",4,9,"[1, 2, 4, 7, 18, 20, 22, 26, 29]",129.5531699,26892,922,5,32,9,1.02433765
undo,33,37,0,0,0,20,"[0, 19, 21, 15, 20]",5,8,"[1, 2, 4, 7, 18, 22, 26, 29]",112.5531699,27814,922,5,14,9,1.250507292
undo,33,37,0,0,0,1,"[0, 19, 21, 15, 20, 1]",6,6,"[2, 4, 7, 18, 22, 26]",78.31868434,29345,1531,4,4,9,1.400216644
undo,33,37,0,0,0,2,"[0, 19, 21, 15, 20, 1, 2]",7,4,"[4, 7, 18, 22]",61.11403381,31202,1857,2,2,9,1.58022536
undo,33,37,0,0,0,4,"[0, 19, 21, 15, 20, 1, 2, 4]",8,1,[22],49.71227956,33038,1836,1,0,9,1.539918707
undo,33,37,0,0,1,22,"[0, 19, 21, 15, 20, 1, 2, 4, 22]",9,0,[],24.71227956,34268,1230,1,0,9,1.690377503
undo,33,37,0,1,1,22,"[0, 19, 21, 15, 20, 1, 2, 4, 22]",9,0,[],24.71227956,37330,3062,1,0,9,1.690377503
undo,34,45,0,0,0,0,[0],1,23,"[1, 2, 3, 4, 5, 6, 7, 9, 10, 11, 12, 14, 15, 16, 17, 19, 20, 21, 22, 23, 24, 25, 29]",300,1500,-1,1,34,10,1
undo,34,45,0,0,0,17,"[0, 17]",2,22,"[1, 2, 3, 4, 5, 6, 7, 9, 10, 11, 12, 14, 15, 16, 19, 20, 21, 22, 23, 24, 25, 29]",235.867325,2038,-1,1,34,10,1
undo,34,45,0,0,0,24,"[0, 17, 24]",3,20,"[1, 2, 3, 4, 5, 6, 7, 9, 10, 11, 12, 14, 15, 16, 19, 20, 21, 22, 23, 29]",193.8078433,4212,2174,1,33,10,1
undo,34,45,0,0,0,7,"[0, 17, 24, 7]",4,18,"[1, 2, 3, 4, 5, 6, 9, 10, 12, 14, 15, 16, 19, 20, 21, 22, 23, 29]",159.3985423,5141,929,1,32,10,1.011700733
undo,34,45,0,0,0,2,"[0, 17, 24, 7, 2]",5,12,"[3, 4, 6, 10, 12, 14, 16, 19, 20, 22, 23, 29]",121.3853866,6075,934,1,23,10,1.010860802
undo,34,45,0,0,0,3,"[0, 17, 24, 7, 2, 3]",6,8,"[6, 10, 12, 14, 16, 20, 22, 29]",96.06740884,7315,1240,1,13,10,1.071932702
undo,34,45,0,0,0,29,"[0, 17, 24, 7, 2, 3, 29]",7,5,"[6, 10, 12, 20, 22]",76.06740884,8843,1528,1,5,10,1.386214369
undo,34,45,0,0,0,10,"[0, 17, 24, 7, 2, 3, 29, 10]",8,2,"[6, 12]",54.52674961,9771,928,1,1,10,1.675563602
undo,34,45,0,0,0,6,"[0, 17, 24, 7, 2, 3, 29, 10, 6]",9,1,[12],28.27794012,10996,1225,1,0,10,1.544536514
undo,34,45,0,0,1,12,"[0, 17, 24, 7, 2, 3, 29, 10, 6, 12]",10,0,[],8.15332832,11909,913,1,0,10,1.476143643
undo,34,45,0,1,1,12,"[0, 17, 24, 7, 2, 3, 29, 10, 6, 12]",10,0,[],8.15332832,21152,9243,1,0,10,1.476143643
undo,35,23,0,0,0,0,[0],1,28,"[1, 2, 3, 4, 5, 6, 7, 8, 9, 10, 11, 12, 13, 14, 15, 16, 17, 18, 19, 20, 21, 22, 23, 25, 26, 27, 28, 29]",300,2351,-1,76,2626,10,0
undo,35,23,0,0,0,13,"[0, 13]",2,19,"[1, 2, 3, 5, 6, 7, 8, 9, 10, 12, 14, 17, 18, 19, 21, 22, 23, 27, 29]",189.3202819,12165,9814,9,168,10,1
undo,35,23,0,0,0,12,"[0, 13, 12]",3,16,"[1, 2, 3, 6, 7, 8, 9, 10, 14, 17, 18, 21, 22, 23, 27, 29]",177.2372359,15868,3703,9,96,10,1.001419549
undo,35,23,0,0,0,9,"[0, 13, 12, 9]",4,13,"[1, 2, 3, 6, 7, 10, 14, 17, 18, 21, 22, 27, 29]",162.9194149,17701,1833,3,30,10,1.049232925
undo,35,23,0,0,0,14,"[0, 13, 12, 9, 14]",5,11,"[1, 2, 3, 6, 7, 10, 18, 21, 22, 27, 29]",152.4791083,18616,915,1,9,10,1.047064109
undo,35,23,0,0,0,2,"[0, 13, 12, 9, 14, 2]",6,7,"[6, 7, 10, 18, 22, 27, 29]",137.6130396,19221,605,4,12,9,1.190007374
undo,35,23,0,0,0,6,"[0, 13, 12, 9, 14, 2, 6]",7,5,"[7, 18, 22, 27, 29]",119.1739507,20152,931,3,3,9,1.203556141
undo,35,23,0,0,0,27,"[0, 13, 12, 9, 14, 2, 6, 27]",8,2,"[18, 22]",90.87200729,21371,1219,2,0,9,1.460613258
undo,35,23,0,0,1,18,"[0, 13, 12, 9, 14, 2, 6, 27, 18]",9,0,[],15.55932576,24146,2775,1,0,9,2.959713935
undo,35,23,1,0,0,27,"[0, 13, 12, 9, 14, 2, 6, 27]",8,2,"[18, 22]",90.87200729,25671,1525,2,0,9,1.460613258
undo,35,23,1,0,0,6,"[0, 13, 12, 9, 14, 2, 6]",7,5,"[7, 18, 22, 27, 29]",119.1739507,25982,311,3,3,9,1.203556141
undo,35,23,1,0,0,2,"[0, 13, 12, 9, 14, 2]",6,7,"[6, 7, 10, 18, 22, 27, 29]",137.6130396,26592,610,4,12,9,1.190007374
undo,35,23,1,0,0,14,"[0, 13, 12, 9, 14]",5,11,"[1, 2, 3, 6, 7, 10, 18, 21, 22, 27, 29]",152.4791083,27802,1210,1,9,10,1.047064109
undo,35,23,1,0,0,9,"[0, 13, 12, 9]",4,13,"[1, 2, 3, 6, 7, 10, 14, 17, 18, 21, 22, 27, 29]",162.9194149,28105,303,3,30,10,1.049232925
undo,35,23,1,0,0,12,"[0, 13, 12]",3,16,"[1, 2, 3, 6, 7, 8, 9, 10, 14, 17, 18, 21, 22, 23, 27, 29]",177.2372359,29020,915,9,96,10,1.001419549
undo,35,23,1,0,0,13,"[0, 13]",2,19,"[1, 2, 3, 5, 6, 7, 8, 9, 10, 12, 14, 17, 18, 19, 21, 22, 23, 27, 29]",189.3202819,29639,619,9,168,10,1
undo,35,23,1,0,0,0,[0],1,28,"[1, 2, 3, 4, 5, 6, 7, 8, 9, 10, 11, 12, 13, 14, 15, 16, 17, 18, 19, 20, 21, 22, 23, 25, 26, 27, 28, 29]",300,31460,1821,76,2626,10,0
undo,35,23,0,0,0,22,"[0, 22]",2,24,"[1, 2, 3, 5, 6, 7, 8, 9, 10, 11, 12, 13, 14, 15, 17, 18, 19, 20, 21, 23, 25, 26, 27, 29]",210.5013967,32384,924,15,1362,10,1
undo,35,23,0,0,0,13,"[0, 22, 13]",3,14,"[1, 2, 5, 6, 7, 8, 9, 10, 12, 14, 18, 21, 27, 29]",168.3113504,33305,921,14,522,10,1.189817356
undo,35,23,0,0,0,12,"[0, 22, 13, 12]",4,11,"[1, 2, 6, 7, 9, 10, 14, 18, 21, 27, 29]",156.2283045,34509,1204,12,166,10,1.172796878
undo,35,23,0,0,0,9,"[0, 22, 13, 12, 9]",5,10,"[1, 2, 6, 7, 10, 14, 18, 21, 27, 29]",141.9104834,36961,2452,5,49,10,1.210038065
undo,35,23,0,0,0,14,"[0, 22, 13, 12, 9, 14]",6,8,"[1, 2, 6, 7, 10, 18, 27, 29]",131.4701769,37567,606,2,19,10,1.196179925
undo,35,23,0,0,0,2,"[0, 22, 13, 12, 9, 14, 2]",7,6,"[6, 7, 10, 18, 27, 29]",116.6041081,38182,615,1,8,10,1.343965447
undo,35,23,0,0,0,6,"[0, 22, 13, 12, 9, 14, 2, 6]",8,3,"[18, 27, 29]",98.16501923,39090,908,3,0,9,1.343389028
undo,35,23,0,0,1,27,"[0, 22, 13, 12, 9, 14, 2, 6, 27]",9,0,[],69.86307584,40621,1531,1,0,9,1.607346
undo,35,23,1,0,0,6,"[0, 22, 13, 12, 9, 14, 2, 6]",8,3,"[18, 27, 29]",98.16501923,44896,4275,3,0,9,1.343389028
undo,35,23,1,0,0,2,"[0, 22, 13, 12, 9, 14, 2]",7,6,"[6, 7, 10, 18, 27, 29]",116.6041081,46106,1210,1,8,10,1.343965447
undo,35,23,1,0,0,14,"[0, 22, 13, 12, 9, 14]",6,8,"[1, 2, 6, 7, 10, 18, 27, 29]",131.4701769,46405,299,2,19,10,1.196179925
undo,35,23,1,0,0,9,"[0, 22, 13, 12, 9]",5,10,"[1, 2, 6, 7, 10, 14, 18, 21, 27, 29]",141.9104834,47021,616,5,49,10,1.210038065
undo,35,23,1,0,0,12,"[0, 22, 13, 12]",4,11,"[1, 2, 6, 7, 9, 10, 14, 18, 21, 27, 29]",156.2283045,47322,301,12,166,10,1.172796878
undo,35,23,1,0,0,13,"[0, 22, 13]",3,14,"[1, 2, 5, 6, 7, 8, 9, 10, 12, 14, 18, 21, 27, 29]",168.3113504,48549,1227,14,522,10,1.189817356
undo,35,23,1,0,0,22,"[0, 22]",2,24,"[1, 2, 3, 5, 6, 7, 8, 9, 10, 11, 12, 13, 14, 15, 17, 18, 19, 20, 21, 23, 25, 26, 27, 29]",210.5013967,49150,601,15,1362,10,1
undo,35,23,1,0,0,0,[0],1,28,"[1, 2, 3, 4, 5, 6, 7, 8, 9, 10, 11, 12, 13, 14, 15, 16, 17, 18, 19, 20, 21, 22, 23, 25, 26, 27, 28, 29]",300,51306,2156,76,2626,10,0
undo,35,23,0,0,0,18,"[0, 18]",2,14,"[2, 5, 6, 7, 9, 10, 12, 13, 14, 19, 21, 22, 27, 29]",203.8958898,52219,913,73,787,9,1
undo,35,23,0,0,0,27,"[0, 18, 27]",3,9,"[2, 6, 7, 9, 12, 13, 14, 22, 29]",128.5832083,54695,2476,51,277,9,1.197226805
undo,35,23,0,0,0,6,"[0, 18, 27, 6]",4,8,"[2, 7, 9, 12, 13, 14, 22, 29]",100.2812649,55940,1245,43,68,9,1.329303555
undo,35,23,0,0,0,14,"[0, 18, 27, 6, 14]",5,7,"[2, 7, 9, 12, 13, 22, 29]",71.41952548,58684,2744,10,11,9,1.622403499
undo,35,23,0,0,0,9,"[0, 18, 27, 6, 14, 9]",6,5,"[2, 12, 13, 22, 29]",60.97921897,59600,916,5,1,9,1.829496664
undo,35,23,0,0,0,2,"[0, 18, 27, 6, 14, 9, 2]",7,2,"[12, 13]",47.94081416,60516,916,2,0,9,1.847145172
undo,35,23,0,0,0,12,"[0, 18, 27, 6, 14, 9, 2, 12]",8,1,[13],34.04837017,61444,928,1,0,9,2.169462077
undo,35,23,0,0,1,13,"[0, 18, 27, 6, 14, 9, 2, 12, 13]",9,0,[],21.96532419,62358,914,1,0,9,2.512065269
undo,35,23,0,1,1,13,"[0, 18, 27, 6, 14, 9, 2, 12, 13]",9,0,[],21.96532419,67838,5480,1,0,9,2.512065269
undo,36,34,0,0,0,0,[0],1,25,"[1, 3, 4, 5, 6, 7, 8, 9, 10, 11, 12, 13, 15, 18, 19, 20, 21, 22, 23, 24, 25, 26, 27, 28, 29]",300,2355,-1,12,367,10,0
undo,36,34,0,0,0,13,"[0, 13]",2,24,"[1, 3, 4, 5, 6, 7, 8, 9, 10, 11, 12, 15, 18, 19, 20, 21, 22, 23, 24, 25, 26, 27, 28, 29]",279.9750156,2682,327,12,331,10,1
undo,36,34,0,0,0,1,"[0, 13, 1]",3,16,"[3, 5, 7, 8, 9, 10, 11, 12, 19, 21, 22, 23, 24, 25, 27, 29]",211.8574701,4235,1553,3,92,10,1.001038129
undo,36,34,0,0,0,8,"[0, 13, 1, 8]",4,14,"[3, 5, 7, 9, 10, 11, 12, 19, 22, 23, 24, 25, 27, 29]",201.0871405,4856,621,2,54,10,1.1636807
undo,36,34,0,0,0,25,"[0, 13, 1, 8, 25]",5,12,"[3, 5, 7, 9, 10, 11, 12, 22, 23, 24, 27, 29]",183.999133,5773,917,2,28,10,1.139620882
undo,36,34,0,0,0,24,"[0, 13, 1, 8, 25, 24]",6,11,"[3, 5, 7, 9, 10, 11, 12, 22, 23, 27, 29]",166.5062774,43621,37848,2,23,10,1.374180769
undo,36,34,0,0,0,12,"[0, 13, 1, 8, 25, 24, 12]",7,7,"[7, 9, 10, 11, 22, 23, 27]",115.4670767,46671,3050,1,8,10,1.499425476
undo,36,34,0,0,0,7,"[0, 13, 1, 8, 25, 24, 12, 7]",8,5,"[9, 11, 22, 23, 27]",100.4337804,48483,1812,1,4,10,1.75899261
undo,36,34,0,0,0,23,"[0, 13, 1, 8, 25, 24, 12, 7, 23]",9,1,[27],72.27352467,49362,879,1,0,10,2.399781305
undo,36,34,0,0,1,27,"[0, 13, 1, 8, 25, 24, 12, 7, 23, 27]",10,0,[],18.60789321,50243,881,1,0,10,4.766619879
undo,36,34,0,1,1,27,"[0, 13, 1, 8, 25, 24, 12, 7, 23, 27]",10,0,[],18.60789321,53455,3212,1,0,10,4.766619879
undo,37,18,0,0,0,0,[0],1,28,"[1, 2, 3, 4, 5, 6, 7, 8, 9, 10, 11, 12, 13, 14, 16, 17, 18, 19, 20, 21, 22, 23, 24, 25, 26, 27, 28, 29]",300,1906,-1,3,136,10,0
undo,37,18,0,0,0,26,"[0, 26]",2,27,"[1, 2, 3, 4, 5, 6, 7, 8, 9, 10, 11, 12, 13, 14, 16, 17, 18, 19, 20, 21, 22, 23, 24, 25, 27, 28, 29]",258.0238163,5915,4009,1,61,10,1
undo,37,18,0,0,0,23,"[0, 26, 23]",3,24,"[1, 2, 3, 4, 5, 6, 7, 8, 9, 10, 12, 13, 14, 16, 17, 18, 19, 20, 21, 24, 25, 27, 28, 29]",239.422741,7635,1720,1,60,10,1.57676307
undo,37,18,0,0,0,28,"[0, 26, 23, 28]",4,8,"[1, 3, 7, 8, 9, 13, 14, 25]",149.3727549,9094,1459,7,25,9,2.369513066
undo,37,18,0,0,0,7,"[0, 26, 23, 28, 7]",5,6,"[1, 3, 8, 13, 14, 25]",127.3500394,9674,580,7,17,9,2.893619914
undo,37,18,0,0,0,25,"[0, 26, 23, 28, 7, 25]",6,4,"[3, 8, 13, 14]",99.54716183,11693,2019,7,6,9,3.340416722
undo,37,18,0,0,0,13,"[0, 26, 23, 28, 7, 25, 13]",7,3,"[3, 8, 14]",54.27023613,13148,1455,3,1,9,2.613998511
undo,37,18,0,0,0,14,"[0, 26, 23, 28, 7, 25, 13, 14]",8,2,"[3, 8]",35.29657017,14020,872,2,0,9,2.361071862
undo,37,18,0,0,1,8,"[0, 26, 23, 28, 7, 25, 13, 14, 8]",9,0,[],1.695974941,15169,1149,1,0,9,3.153523892
undo,37,18,1,0,0,14,"[0, 26, 23, 28, 7, 25, 13, 14]",8,2,"[3, 8]",35.29657017,17443,2274,2,0,9,2.361071862
undo,37,18,1,0,0,13,"[0, 26, 23, 28, 7, 25, 13]",7,3,"[3, 8, 14]",54.27023613,17725,282,3,1,9,2.613998511
undo,37,18,1,0,0,25,"[0, 26, 23, 28, 7, 25]",6,4,"[3, 8, 13, 14]",99.54716183,18299,574,7,6,9,3.340416722
undo,37,18,1,0,0,7,"[0, 26, 23, 28, 7]",5,6,"[1, 3, 8, 13, 14, 25]",127.3500394,18582,283,7,17,9,2.893619914
undo,37,18,1,0,0,28,"[0, 26, 23, 28]",4,8,"[1, 3, 7, 8, 9, 13, 14, 25]",149.3727549,19148,566,7,25,9,2.369513066
undo,37,18,1,0,0,23,"[0, 26, 23]",3,24,"[1, 2, 3, 4, 5, 6, 7, 8, 9, 10, 12, 13, 14, 16, 17, 18, 19, 20, 21, 24, 25, 27, 28, 29]",239.422741,21149,2001,1,60,10,1.57676307
undo,37,18,0,0,0,25,"[0, 26, 23, 25]",4,12,"[1, 3, 5, 7, 8, 9, 12, 13, 14, 16, 27, 28]",177.1571807,23428,2279,1,20,10,2.047096023
undo,37,18,0,0,0,13,"[0, 26, 23, 25, 13]",5,10,"[3, 5, 7, 8, 9, 12, 14, 16, 27, 28]",131.880255,25713,2285,4,19,9,1.788406728
undo,37,18,0,0,0,14,"[0, 26, 23, 25, 13, 14]",6,8,"[3, 5, 7, 8, 9, 12, 27, 28]",112.9065891,26573,860,2,7,9,1.66881475
undo,37,18,0,0,0,8,"[0, 26, 23, 25, 13, 14, 8]",7,2,"[3, 7]",79.30599385,27426,853,2,0,8,2.333068825
undo,37,18,0,0,1,3,"[0, 26, 23, 25, 13, 14, 8, 3]",8,0,[],51.23465615,28287,861,1,0,8,2.032787408
undo,37,18,1,0,0,8,"[0, 26, 23, 25, 13, 14, 8]",7,2,"[3, 7]",79.30599385,29131,844,2,0,8,2.333068825
undo,37,18,1,0,0,14,"[0, 26, 23, 25, 13, 14]",6,8,"[3, 5, 7, 8, 9, 12, 27, 28]",112.9065891,29412,281,2,7,9,1.66881475
undo,37,18,1,0,0,13,"[0, 26, 23, 25, 13]",5,10,"[3, 5, 7, 8, 9, 12, 14, 16, 27, 28]",131.880255,29980,568,4,19,9,1.788406728
undo,37,18,1,0,0,25,"[0, 26, 23, 25]",4,12,"[1, 3, 5, 7, 8, 9, 12, 13, 14, 16, 27, 28]",177.1571807,30557,577,1,20,10,2.047096023
undo,37,18,1,0,0,23,"[0, 26, 23]",3,24,"[1, 2, 3, 4, 5, 6, 7, 8, 9, 10, 12, 13, 14, 16, 17, 18, 19, 20, 21, 24, 25, 27, 28, 29]",239.422741,32259,1702,1,60,10,1.57676307
undo,37,18,0,0,0,28,"[0, 26, 23, 28]",4,8,"[1, 3, 7, 8, 9, 13, 14, 25]",149.3727549,34815,2556,7,25,9,2.369513066
undo,37,18,0,0,0,7,"[0, 26, 23, 28, 7]",5,6,"[1, 3, 8, 13, 14, 25]",127.3500394,37653,2838,7,17,9,2.893619914
undo,37,18,0,0,0,25,"[0, 26, 23, 28, 7, 25]",6,4,"[3, 8, 13, 14]",99.54716183,38522,869,7,6,9,3.340416722
undo,37,18,0,0,0,8,"[0, 26, 23, 28, 7, 25, 8]",7,3,"[3, 13, 14]",62.4931472,42219,3697,4,0,9,2.510805996
undo,37,18,0,0,0,3,"[0, 26, 23, 28, 7, 25, 8, 3]",8,1,[14],34.4218095,45052,2833,1,0,9,2.170173679
undo,37,18,0,0,1,14,"[0, 26, 23, 28, 7, 25, 8, 3, 14]",9,0,[],4.33859159,48181,3129,1,0,9,2.637207355
undo,37,18,0,1,1,14,"[0, 26, 23, 28, 7, 25, 8, 3, 14]",9,0,[],4.33859159,50168,1987,1,0,9,2.637207355
undo,38,20,0,0,0,0,[0],1,21,"[1, 2, 3, 4, 5, 6, 7, 8, 9, 12, 17, 18, 20, 21, 22, 23, 25, 26, 27, 28, 29]",300,1880,-1,1,9,9,0
undo,38,20,0,0,0,12,"[0, 12]",2,20,"[1, 2, 3, 4, 5, 6, 7, 8, 9, 17, 18, 20, 21, 22, 23, 25, 26, 27, 28, 29]",271.5570747,10712,8832,1,8,9,1
undo,38,20,0,0,0,5,"[0, 12, 5]",3,13,"[1, 3, 4, 6, 8, 9, 20, 21, 23, 26, 27, 28, 29]",171.4321527,11863,1151,2,19,8,1.023284329
undo,38,20,0,0,0,21,"[0, 12, 5, 21]",4,10,"[1, 4, 6, 8, 9, 20, 23, 26, 27, 28]",126.4321527,12732,869,2,12,8,1.017525191
undo,38,20,0,0,0,8,"[0, 12, 5, 21, 8]",5,6,"[1, 6, 9, 23, 27, 28]",108.9679035,13581,849,2,6,8,1.03916986
undo,38,20,0,0,0,23,"[0, 12, 5, 21, 8, 23]",6,3,"[6, 9, 27]",64.28009758,14727,1146,2,1,8,1.034845087
undo,38,20,0,0,0,9,"[0, 12, 5, 21, 8, 23, 9]",7,1,[6],45.07072487,15579,852,1,0,8,1.03353481
undo,38,20,0,0,1,6,"[0, 12, 5, 21, 8, 23, 9, 6]",8,0,[],22.048996,17000,1421,1,0,8,1.048685065
undo,38,20,1,0,0,9,"[0, 12, 5, 21, 8, 23, 9]",7,1,[6],45.07072487,24357,7357,1,0,8,1.03353481
undo,38,20,1,0,0,23,"[0, 12, 5, 21, 8, 23]",6,3,"[6, 9, 27]",64.28009758,24641,284,2,1,8,1.034845087
undo,38,20,1,0,0,8,"[0, 12, 5, 21, 8]",5,6,"[1, 6, 9, 23, 27, 28]",108.9679035,24921,280,2,6,8,1.03916986
undo,38,20,1,0,0,21,"[0, 12, 5, 21]",4,10,"[1, 4, 6, 8, 9, 20, 23, 26, 27, 28]",126.4321527,25201,280,2,12,8,1.017525191
undo,38,20,1,0,0,5,"[0, 12, 5]",3,13,"[1, 3, 4, 6, 8, 9, 20, 21, 23, 26, 27, 28, 29]",171.4321527,25483,282,2,19,8,1.023284329
undo,38,20,1,0,0,12,"[0, 12]",2,20,"[1, 2, 3, 4, 5, 6, 7, 8, 9, 17, 18, 20, 21, 22, 23, 25, 26, 27, 28, 29]",271.5570747,26622,1139,1,8,9,1
undo,38,20,0,0,0,1,"[0, 12, 1]",3,12,"[3, 4, 5, 6, 8, 9, 20, 21, 23, 27, 28, 29]",189.5692707,28914,2292,1,6,9,1.075799778
undo,38,20,0,0,0,5,"[0, 12, 1, 5]",4,10,"[4, 6, 8, 9, 20, 21, 23, 27, 28, 29]",152.8950291,29775,861,1,5,9,1.170823145
undo,38,20,0,0,0,21,"[0, 12, 1, 5, 21]",5,8,"[4, 6, 8, 9, 20, 23, 27, 28]",107.8950291,30628,853,1,4,9,1.126197336
undo,38,20,0,0,0,8,"[0, 12, 1, 5, 21, 8]",6,5,"[6, 9, 23, 27, 28]",90.43077988,31761,1133,1,3,9,1.140007471
undo,38,20,0,0,0,23,"[0, 12, 1, 5, 21, 8, 23]",7,2,"[6, 9]",45.74297394,32900,1139,1,1,9,1.11622579
undo,38,20,0,0,0,9,"[0, 12, 1, 5, 21, 8, 23, 9]",8,1,[6],26.53360123,33757,857,1,0,9,1.108688056
undo,38,20,0,0,1,6,"[0, 12, 1, 5, 21, 8, 23, 9, 6]",9,0,[],3.511872362,36025,2268,1,0,9,1.118624027
undo,38,20,0,1,1,6,"[0, 12, 1, 5, 21, 8, 23, 9, 6]",9,0,[],3.511872362,40274,4249,1,0,9,1.118624027
undo,39,16,0,0,0,0,[0],1,29,"[1, 2, 3, 4, 5, 6, 7, 8, 9, 10, 11, 12, 13, 14, 15, 16, 17, 18, 19, 20, 21, 22, 23, 24, 25, 26, 27, 28, 29]",300,2161,-1,13,161,9,0
undo,39,16,0,0,0,17,"[0, 17]",2,27,"[1, 2, 3, 4, 5, 7, 8, 9, 10, 11, 12, 13, 14, 15, 16, 18, 19, 20, 21, 22, 23, 24, 25, 26, 27, 28, 29]",241.3058776,8253,6092,2,58,9,1
undo,39,16,0,0,0,16,"[0, 17, 16]",3,26,"[1, 2, 3, 4, 5, 7, 8, 9, 10, 11, 12, 13, 14, 15, 18, 19, 20, 21, 22, 23, 24, 25, 26, 27, 28, 29]",212.9862731,10258,2005,2,52,9,1.052953552
undo,39,16,0,0,0,8,"[0, 17, 16, 8]",4,19,"[2, 3, 4, 5, 9, 12, 13, 14, 15, 19, 20, 21, 22, 23, 25, 26, 27, 28, 29]",164.6127266,11685,1427,2,38,9,1.09151345
undo,39,16,0,0,0,20,"[0, 17, 16, 8, 20]",5,10,"[3, 4, 5, 9, 12, 13, 15, 19, 21, 25]",106.8372993,13108,1423,1,15,9,1.067523143
undo,39,16,0,0,0,25,"[0, 17, 16, 8, 20, 25]",6,7,"[3, 4, 5, 9, 12, 13, 15]",94.18818869,13955,847,1,9,9,1.117009333
undo,39,16,0,0,0,9,"[0, 17, 16, 8, 20, 25, 9]",7,5,"[3, 4, 5, 13, 15]",81.38194021,15369,1414,1,4,9,1.109507656
undo,39,16,0,0,0,15,"[0, 17, 16, 8, 20, 25, 9, 15]",8,1,[5],42.48463953,16521,1152,1,0,9,1.21383116
undo,39,16,0,0,1,5,"[0, 17, 16, 8, 20, 25, 9, 15, 5]",9,0,[],13.0567616,18270,1749,1,0,9,1.517177961
undo,39,16,0,1,1,5,"[0, 17, 16, 8, 20, 25, 9, 15, 5]",9,0,[],13.0567616,22850,4580,1,0,9,1.517177961
undo,40,11,0,0,0,0,[0],1,21,"[1, 2, 4, 5, 6, 8, 9, 11, 12, 13, 14, 15, 16, 17, 18, 19, 20, 22, 23, 25, 27, 28]",300,1500,-1,157,1477,11,1
undo,40,11,0,0,0,18,"[0, 18]",2,21,"[1, 2, 4, 5, 6, 8, 9, 11, 12, 13, 14, 15, 16, 17, 19, 20, 22, 23, 25, 27, 28]",236.8493864,1866,-1,157,1477,11,1
undo,40,11,0,0,0,27,"[0, 18, 27]",3,19,"[1, 2, 4, 5, 6, 8, 9, 11, 12, 14, 15, 16, 17, 19, 20, 22, 23, 25, 28]",212.9956655,2722,856,157,1315,11,1.000000001
undo,40,11,0,0,0,8,"[0, 18, 27, 8]",4,14,"[1, 2, 4, 5, 6, 11, 12, 15, 17, 19, 22, 23, 25, 28]",142.7817068,4435,1713,68,433,11,1.000210738
undo,40,11,0,0,0,17,"[0, 18, 27, 8, 17]",5,13,"[1, 2, 4, 5, 6, 11, 12, 15, 19, 22, 23, 25, 28]",128.4638857,5284,849,42,137,11,1.078476041
undo,40,11,0,0,0,15,"[0, 18, 27, 8, 17, 15]",6,9,"[2, 5, 6, 11, 12, 19, 22, 25, 28]",115.8147751,7570,2286,38,57,11,1.12904635
undo,40,11,0,0,0,11,"[0, 18, 27, 8, 17, 15, 11]",7,7,"[2, 5, 6, 12, 19, 22, 28]",97.70400479,9828,2258,24,0,11,1.14921639
undo,40,11,0,0,0,5,"[0, 18, 27, 8, 17, 15, 11, 5]",8,3,"[2, 22, 28]",62.47617489,12946,3118,6,0,11,1.683449696
undo,40,11,0,0,0,28,"[0, 18, 27, 8, 17, 15, 11, 5, 28]",9,2,"[2, 22]",44.58763107,13798,852,2,0,11,1.653929581
undo,40,11,0,0,0,2,"[0, 18, 27, 8, 17, 15, 11, 5, 28, 2]",10,1,[22],33.95748525,14933,1135,1,0,11,1.687838108
undo,40,11,0,0,1,22,"[0, 18, 27, 8, 17, 15, 11, 5, 28, 2, 22]",11,0,[],23.90760963,15503,570,1,0,11,1.636996914
undo,40,11,0,1,1,22,"[0, 18, 27, 8, 17, 15, 11, 5, 28, 2, 22]",11,0,[],23.90760963,21177,5674,1,0,11,1.636996914
undo,41,1,0,0,0,0,[0],1,26,"[1, 2, 4, 5, 7, 8, 9, 10, 11, 12, 13, 14, 15, 16, 17, 18, 19, 20, 21, 22, 23, 24, 25, 26, 28, 29]",300,2133,-1,6,74,7,0
undo,41,1,0,0,0,14,"[0, 14]",2,19,"[1, 4, 5, 8, 9, 13, 15, 17, 18, 19, 20, 21, 22, 23, 24, 25, 26, 28, 29]",200.1901808,10023,7890,5,42,7,1
undo,41,1,0,0,0,17,"[0, 14, 17]",3,15,"[1, 4, 5, 8, 9, 13, 15, 18, 19, 20, 22, 23, 25, 28, 29]",147.8356204,11158,1135,5,27,7,1.002884472
undo,41,1,0,0,0,1,"[0, 14, 17, 1]",4,12,"[4, 5, 8, 9, 15, 18, 20, 22, 23, 25, 28, 29]",123.4840291,12012,854,5,15,7,1.026498558
undo,41,1,0,0,0,28,"[0, 14, 17, 1, 28]",5,5,"[9, 15, 22, 23, 29]",88.59850198,12595,583,5,3,7,1.033986158
undo,41,1,0,0,0,23,"[0, 14, 17, 1, 28, 23]",6,2,"[15, 22]",51.70676849,15153,2558,2,0,7,1.032745825
undo,41,1,0,0,1,15,"[0, 14, 17, 1, 28, 23, 15]",7,0,[],20.81987807,16576,1423,1,0,7,1.194868164
undo,41,1,0,1,1,15,"[0, 14, 17, 1, 28, 23, 15]",7,0,[],20.81987807,21635,5059,1,0,7,1.194868164
undo,42,5,0,0,0,0,[0],1,29,"[1, 2, 3, 4, 5, 6, 7, 8, 9, 10, 11, 12, 13, 14, 15, 16, 17, 18, 19, 20, 21, 22, 23, 24, 25, 26, 27, 28, 29]",300,2168,-1,5,139,9,0
undo,42,5,0,0,0,12,"[0, 12]",2,22,"[2, 4, 5, 6, 8, 9, 10, 13, 14, 15, 16, 17, 18, 19, 21, 22, 23, 24, 25, 26, 27, 28]",228.3062067,6460,4292,1,27,9,1
undo,42,5,0,0,0,25,"[0, 12, 25]",3,21,"[2, 4, 5, 6, 8, 9, 10, 13, 14, 15, 16, 17, 18, 19, 21, 22, 23, 24, 26, 27, 28]",200.5213187,7317,857,1,20,9,1.584023303
undo,42,5,0,0,0,23,"[0, 12, 25, 23]",4,19,"[2, 4, 5, 6, 8, 9, 10, 13, 14, 15, 16, 17, 18, 19, 21, 22, 24, 26, 27]",182.0822298,8179,862,1,14,9,2.350844699
undo,42,5,0,0,0,24,"[0, 12, 25, 23, 24]",5,15,"[2, 4, 5, 6, 8, 9, 13, 14, 15, 17, 18, 19, 22, 26, 27]",158.995437,9035,856,1,12,9,1.946975205
undo,42,5,0,0,0,17,"[0, 12, 25, 23, 24, 17]",6,7,"[4, 5, 6, 8, 15, 18, 19]",124.0097257,10177,1142,1,8,9,1.64822765
undo,42,5,0,0,0,6,"[0, 12, 25, 23, 24, 17, 6]",7,1,[4],45.11739397,15584,5407,1,0,8,1.52624315
undo,42,5,0,0,1,4,"[0, 12, 25, 23, 24, 17, 6, 4]",8,0,[],33.07579939,16437,853,1,0,8,1.523268032
undo,42,5,1,0,0,6,"[0, 12, 25, 23, 24, 17, 6]",7,1,[4],45.11739397,20670,4233,1,0,8,1.52624315
undo,42,5,1,0,0,17,"[0, 12, 25, 23, 24, 17]",6,7,"[4, 5, 6, 8, 15, 18, 19]",124.0097257,21513,843,1,8,9,1.64822765
undo,42,5,1,0,0,24,"[0, 12, 25, 23, 24]",5,15,"[2, 4, 5, 6, 8, 9, 13, 14, 15, 17, 18, 19, 22, 26, 27]",158.995437,23202,1689,1,12,9,1.946975205
undo,42,5,1,0,0,23,"[0, 12, 25, 23]",4,19,"[2, 4, 5, 6, 8, 9, 10, 13, 14, 15, 16, 17, 18, 19, 21, 22, 24, 26, 27]",182.0822298,23481,279,1,14,9,2.350844699
undo,42,5,1,0,0,25,"[0, 12, 25]",3,21,"[2, 4, 5, 6, 8, 9, 10, 13, 14, 15, 16, 17, 18, 19, 21, 22, 23, 24, 26, 27, 28]",200.5213187,24604,1123,1,20,9,1.584023303
undo,42,5,1,0,0,12,"[0, 12]",2,22,"[2, 4, 5, 6, 8, 9, 10, 13, 14, 15, 16, 17, 18, 19, 21, 22, 23, 24, 25, 26, 27, 28]",228.3062067,25724,1120,1,27,9,1
undo,42,5,1,0,0,0,[0],1,29,"[1, 2, 3, 4, 5, 6, 7, 8, 9, 10, 11, 12, 13, 14, 15, 16, 17, 18, 19, 20, 21, 22, 23, 24, 25, 26, 27, 28, 29]",300,26877,1153,5,139,9,0
undo,42,5,0,0,0,25,"[0, 25]",2,25,"[1, 2, 3, 4, 5, 6, 8, 9, 10, 11, 12, 13, 14, 15, 16, 17, 18, 19, 21, 22, 23, 24, 26, 27, 28]",237.1987261,28294,1417,1,27,9,1
undo,42,5,0,0,0,23,"[0, 25, 23]",3,24,"[1, 2, 3, 4, 5, 6, 8, 9, 10, 11, 12, 13, 14, 15, 16, 17, 18, 19, 21, 22, 24, 26, 27, 28]",218.7596372,29144,850,1,16,9,1.619632697
undo,42,5,0,0,0,24,"[0, 25, 23, 24]",4,19,"[2, 4, 5, 6, 8, 9, 10, 12, 13, 14, 15, 17, 18, 19, 21, 22, 26, 27, 28]",195.6728445,31136,1992,1,14,9,1.440537672
undo,42,5,0,0,0,17,"[0, 25, 23, 24, 17]",5,11,"[4, 5, 6, 8, 12, 14, 15, 18, 19, 22, 27]",160.6871331,33677,2541,1,10,9,1.304727321
undo,42,5,0,0,0,6,"[0, 25, 23, 24, 17, 6]",6,4,"[4, 5, 14, 18]",81.79480139,35678,2001,3,3,8,1.306617956
undo,42,5,0,0,0,4,"[0, 25, 23, 24, 17, 6, 4]",7,3,"[5, 14, 18]",69.75320681,36817,1139,3,0,8,1.313959464
undo,42,5,0,0,1,18,"[0, 25, 23, 24, 17, 6, 4, 18]",8,0,[],31.33446139,38808,1991,1,0,8,1.324874829
undo,42,5,0,1,1,18,"[0, 25, 23, 24, 17, 6, 4, 18]",8,0,[],31.33446139,41897,3089,1,0,8,1.324874829
undo,43,13,0,0,0,0,[0],1,29,"[1, 2, 3, 4, 5, 6, 7, 8, 9, 10, 11, 12, 13, 14, 15, 16, 17, 18, 19, 20, 21, 22, 23, 24, 25, 26, 27, 28, 29]",300,2191,-1,60,2676,11,0
undo,43,13,0,0,0,24,"[0, 24]",2,28,"[1, 2, 3, 4, 5, 6, 7, 8, 9, 10, 11, 12, 13, 14, 15, 16, 17, 18, 19, 20, 21, 22, 23, 25, 26, 27, 28, 29]",288.8196601,3718,1527,16,1444,11,1
undo,43,13,0,0,0,28,"[0, 24, 28]",3,23,"[1, 2, 3, 4, 6, 7, 8, 9, 10, 11, 12, 13, 15, 16, 17, 19, 20, 21, 22, 23, 26, 27, 29]",222.5324064,5719,2001,8,243,11,1.051381049
undo,43,13,0,0,0,2,"[0, 24, 28, 2]",4,19,"[1, 3, 4, 6, 7, 9, 11, 12, 13, 15, 16, 17, 19, 20, 21, 23, 26, 27, 29]",184.889346,7417,1698,7,110,11,1.050374132
undo,43,13,0,0,0,29,"[0, 24, 28, 2, 29]",5,18,"[1, 3, 4, 6, 7, 9, 11, 12, 13, 15, 16, 17, 19, 20, 21, 23, 26, 27]",173.1846461,8273,856,7,85,11,1.139340962
undo,43,13,0,0,0,7,"[0, 24, 28, 2, 29, 7]",6,17,"[1, 3, 4, 6, 9, 11, 12, 13, 15, 16, 17, 19, 20, 21, 23, 26, 27]",157.9203086,9128,855,5,45,11,1.349777315
undo,43,13,0,0,0,26,"[0, 24, 28, 2, 29, 7, 26]",7,16,"[1, 3, 4, 6, 9, 11, 12, 13, 15, 16, 17, 19, 20, 21, 23, 27]",147.480002,10826,1698,5,25,11,1.594208277
undo,43,13,0,0,0,11,"[0, 24, 28, 2, 29, 7, 26, 11]",8,7,"[1, 6, 13, 15, 16, 17, 23]",112.3659023,16460,5634,7,4,10,1.470927594
undo,43,13,0,0,0,6,"[0, 24, 28, 2, 29, 7, 26, 11, 6]",9,4,"[13, 16, 17, 23]",93.26092914,17593,1133,4,0,10,1.904075111
undo,43,13,1,0,0,11,"[0, 24, 28, 2, 29, 7, 26, 11]",8,7,"[1, 6, 13, 15, 16, 17, 23]",112.3659023,27075,9482,7,4,10,1.470927594
undo,43,13,1,0,0,26,"[0, 24, 28, 2, 29, 7, 26]",7,16,"[1, 3, 4, 6, 9, 11, 12, 13, 15, 16, 17, 19, 20, 21, 23, 27]",147.480002,28793,1718,5,25,11,1.594208277
undo,43,13,0,0,0,6,"[0, 24, 28, 2, 29, 7, 26, 6]",8,12,"[1, 3, 4, 11, 13, 15, 16, 17, 19, 20, 23, 27]",127.3802508,29640,847,4,12,11,1.589834794
undo,43,13,0,0,0,11,"[0, 24, 28, 2, 29, 7, 26, 6, 11]",9,6,"[1, 13, 15, 16, 17, 23]",108.2752776,31615,1975,3,4,11,1.502995395
undo,43,13,0,0,0,13,"[0, 24, 28, 2, 29, 7, 26, 6, 11, 13]",10,2,"[15, 17]",52.19497806,33908,2293,2,0,11,1.365591586
undo,43,13,0,0,1,15,"[0, 24, 28, 2, 29, 7, 26, 6, 11, 13, 15]",11,0,[],12.38291958,36466,2558,1,0,11,1.365308552
undo,43,13,0,1,1,15,"[0, 24, 28, 2, 29, 7, 26, 6, 11, 13, 15]",11,0,[],12.38291958,41539,5073,1,0,11,1.365308552
undo,44,27,0,0,0,0,[0],1,26,"[1, 3, 5, 6, 7, 8, 9, 10, 11, 12, 13, 14, 15, 16, 17, 18, 19, 21, 22, 23, 24, 25, 26, 27, 28, 29]",300,2173,-1,13,578,11,0
undo,44,27,0,0,0,15,"[0, 15]",2,24,"[1, 3, 5, 6, 7, 8, 9, 10, 11, 12, 13, 14, 16, 17, 18, 19, 21, 22, 23, 24, 25, 26, 27, 29]",263.7508621,2473,300,6,219,11,1
undo,44,27,0,0,0,24,"[0, 15, 24]",3,20,"[1, 5, 6, 7, 8, 9, 10, 12, 13, 14, 16, 17, 18, 19, 21, 23, 25, 26, 27, 29]",246.5462115,3613,1140,6,130,11,1.130933078
undo,44,27,0,0,0,17,"[0, 15, 24, 17]",4,15,"[1, 6, 8, 10, 12, 13, 14, 16, 18, 19, 23, 25, 26, 27, 29]",229.9932662,4463,850,4,60,11,1.128553844
undo,44,27,0,0,0,12,"[0, 15, 24, 17, 12]",5,14,"[1, 6, 8, 10, 13, 14, 16, 18, 19, 23, 25, 26, 27, 29]",218.8129263,7285,2822,2,32,11,1.256188029
undo,44,27,0,0,0,10,"[0, 15, 24, 17, 12, 10]",6,11,"[1, 8, 13, 14, 18, 19, 23, 25, 26, 27, 29]",207.7675653,8135,850,2,28,11,1.222828934
undo,44,27,0,0,0,13,"[0, 15, 24, 17, 12, 10, 13]",7,9,"[1, 8, 14, 18, 19, 23, 26, 27, 29]",167.9178476,9270,1135,2,18,11,1.342129199
undo,44,27,0,0,0,19,"[0, 15, 24, 17, 12, 10, 13, 19]",8,5,"[1, 8, 14, 23, 29]",131.6825057,10135,865,2,6,11,1.294749956
undo,44,27,0,0,0,8,"[0, 15, 24, 17, 12, 10, 13, 19, 8]",9,3,"[14, 23, 29]",116.816437,10993,858,2,1,11,1.355428658
undo,44,27,0,0,0,29,"[0, 15, 24, 17, 12, 10, 13, 19, 8, 29]",10,1,[14],57.61339652,15553,4560,1,0,11,1.24835452
undo,44,27,0,0,1,14,"[0, 15, 24, 17, 12, 10, 13, 19, 8, 29, 14]",11,0,[],13.31892734,16412,859,1,0,11,1.562811098
undo,44,27,0,1,1,14,"[0, 15, 24, 17, 12, 10, 13, 19, 8, 29, 14]",11,0,[],13.31892734,18678,2266,1,0,11,1.562811098
undo,45,2,0,0,0,0,[0],1,23,"[1, 2, 4, 5, 6, 7, 8, 9, 12, 13, 15, 16, 17, 18, 19, 20, 22, 23, 25, 26, 27, 28, 29]",300,2148,-1,70,620,10,0
undo,45,2,0,0,0,26,"[0, 26]",2,7,"[5, 7, 13, 15, 18, 22, 29]",88.63302055,6080,3932,8,25,6,1
undo,45,2,0,0,0,15,"[0, 26, 15]",3,6,"[5, 7, 13, 18, 22, 29]",64.42558368,7211,1131,2,8,6,1.25061628
undo,45,2,1,0,0,26,"[0, 26]",2,7,"[5, 7, 13, 15, 18, 22, 29]",88.63302055,9483,2272,8,25,6,1
undo,45,2,1,0,0,0,[0],1,23,"[1, 2, 4, 5, 6, 7, 8, 9, 12, 13, 15, 16, 17, 18, 19, 20, 22, 23, 25, 26, 27, 28, 29]",300,10046,563,70,620,10,0
undo,45,2,0,0,0,19,"[0, 19]",2,22,"[1, 2, 4, 5, 6, 7, 8, 9, 12, 13, 15, 16, 17, 18, 20, 22, 23, 25, 26, 27, 28, 29]",210.306076,12897,2851,67,431,10,1
undo,45,2,0,0,0,12,"[0, 19, 12]",3,17,"[1, 4, 5, 6, 7, 13, 15, 16, 17, 18, 20, 22, 25, 26, 27, 28, 29]",174.2921898,13760,863,66,298,10,1.110763504
undo,45,2,0,0,0,5,"[0, 19, 12, 5]",4,11,"[1, 6, 7, 13, 15, 16, 18, 22, 25, 26, 29]",144.7625437,14613,853,38,136,10,1.096817477
undo,45,2,0,0,0,22,"[0, 19, 12, 5, 22]",5,8,"[1, 6, 7, 13, 15, 18, 26, 29]",131.9562952,15183,570,20,63,10,1.088991051
undo,45,2,0,0,0,13,"[0, 19, 12, 5, 22, 13]",6,7,"[1, 6, 7, 15, 18, 26, 29]",117.0902265,16040,857,19,20,10,1.236526217
undo,45,2,0,0,0,18,"[0, 19, 12, 5, 22, 13, 18]",7,4,"[7, 15, 26, 29]",81.91921567,16893,853,10,3,10,1.212870821
undo,45,2,0,0,0,7,"[0, 19, 12, 5, 22, 13, 18, 7]",8,3,"[15, 26, 29]",71.62358553,17741,848,5,0,10,1.201981129
undo,45,2,0,0,0,26,"[0, 19, 12, 5, 22, 13, 18, 7, 26]",9,2,"[15, 29]",48.82007703,20015,2274,2,0,10,1.188359334
undo,45,2,0,0,1,15,"[0, 19, 12, 5, 22, 13, 18, 7, 26, 15]",10,0,[],24.61264015,20871,856,1,0,10,1.461975035
undo,45,2,1,0,0,26,"[0, 19, 12, 5, 22, 13, 18, 7, 26]",9,2,"[15, 29]",48.82007703,22580,1709,2,0,10,1.188359334
undo,45,2,1,0,0,7,"[0, 19, 12, 5, 22, 13, 18, 7]",8,3,"[15, 26, 29]",71.62358553,23700,1120,5,0,10,1.201981129
undo,45,2,1,0,0,18,"[0, 19, 12, 5, 22, 13, 18]",7,4,"[7, 15, 26, 29]",81.91921567,27931,4231,10,3,10,1.212870821
undo,45,2,1,0,0,13,"[0, 19, 12, 5, 22, 13]",6,7,"[1, 6, 7, 15, 18, 26, 29]",117.0902265,28498,567,19,20,10,1.236526217
undo,45,2,1,0,0,22,"[0, 19, 12, 5, 22]",5,8,"[1, 6, 7, 13, 15, 18, 26, 29]",131.9562952,28780,282,20,63,10,1.088991051
undo,45,2,1,0,0,5,"[0, 19, 12, 5]",4,11,"[1, 6, 7, 13, 15, 16, 18, 22, 25, 26, 29]",144.7625437,29063,283,38,136,10,1.096817477
undo,45,2,0,0,0,13,"[0, 19, 12, 5, 13]",5,9,"[1, 6, 7, 15, 18, 22, 25, 26, 29]",131.1610732,31906,2843,18,63,10,1.141402974
undo,45,2,0,0,0,18,"[0, 19, 12, 5, 13, 18]",6,5,"[7, 15, 22, 26, 29]",95.99006238,33342,1436,2,16,10,1.134614869
undo,45,2,0,0,0,7,"[0, 19, 12, 5, 13, 18, 7]",7,4,"[15, 22, 26, 29]",85.69443224,33627,285,2,4,10,1.127924041
undo,45,2,0,0,0,26,"[0, 19, 12, 5, 13, 18, 7, 26]",8,2,"[15, 29]",62.89092374,34759,1132,1,1,10,1.121788639
undo,45,2,0,0,0,15,"[0, 19, 12, 5, 13, 18, 7, 26, 15]",9,1,[29],38.68348687,36187,1428,1,0,10,1.387275795
undo,45,2,0,0,1,29,"[0, 19, 12, 5, 13, 18, 7, 26, 15, 29]",10,0,[],10.22298793,40133,3946,1,0,10,1.578515968
undo,45,2,1,0,0,15,"[0, 19, 12, 5, 13, 18, 7, 26, 15]",9,1,[29],38.68348687,48020,7887,1,0,10,1.387275795
undo,45,2,1,0,0,26,"[0, 19, 12, 5, 13, 18, 7, 26]",8,2,"[15, 29]",62.89092374,48303,283,1,1,10,1.121788639
undo,45,2,1,0,0,7,"[0, 19, 12, 5, 13, 18, 7]",7,4,"[15, 22, 26, 29]",85.69443224,48586,283,2,4,10,1.127924041
undo,45,2,1,0,0,18,"[0, 19, 12, 5, 13, 18]",6,5,"[7, 15, 22, 26, 29]",95.99006238,48866,280,2,16,10,1.134614869
undo,45,2,1,0,0,13,"[0, 19, 12, 5, 13]",5,9,"[1, 6, 7, 15, 18, 22, 25, 26, 29]",131.1610732,49148,282,18,63,10,1.141402974
undo,45,2,1,0,0,5,"[0, 19, 12, 5]",4,11,"[1, 6, 7, 13, 15, 16, 18, 22, 25, 26, 29]",144.7625437,49708,560,38,136,10,1.096817477
undo,45,2,0,0,0,22,"[0, 19, 12, 5, 22]",5,8,"[1, 6, 7, 13, 15, 18, 26, 29]",131.9562952,51140,1432,20,63,10,1.088991051
undo,45,2,0,0,0,13,"[0, 19, 12, 5, 22, 13]",6,7,"[1, 6, 7, 15, 18, 26, 29]",117.0902265,52283,1143,19,20,10,1.236526217
undo,45,2,0,0,0,18,"[0, 19, 12, 5, 22, 13, 18]",7,4,"[7, 15, 26, 29]",81.91921567,53420,1137,10,3,10,1.212870821
undo,45,2,0,0,0,7,"[0, 19, 12, 5, 22, 13, 18, 7]",8,3,"[15, 26, 29]",71.62358553,54838,1418,5,0,10,1.201981129
undo,45,2,0,0,0,26,"[0, 19, 12, 5, 22, 13, 18, 7, 26]",9,2,"[15, 29]",48.82007703,55977,1139,2,0,10,1.188359334
undo,45,2,0,0,1,15,"[0, 19, 12, 5, 22, 13, 18, 7, 26, 15]",10,0,[],24.61264015,57106,1129,1,0,10,1.461975035
undo,45,2,1,0,0,26,"[0, 19, 12, 5, 22, 13, 18, 7, 26]",9,2,"[15, 29]",48.82007703,70891,13785,2,0,10,1.188359334
undo,45,2,1,0,0,7,"[0, 19, 12, 5, 22, 13, 18, 7]",8,3,"[15, 26, 29]",71.62358553,71738,847,5,0,10,1.201981129
undo,45,2,1,0,0,18,"[0, 19, 12, 5, 22, 13, 18]",7,4,"[7, 15, 26, 29]",81.91921567,72863,1125,10,3,10,1.212870821
undo,45,2,1,0,0,13,"[0, 19, 12, 5, 22, 13]",6,7,"[1, 6, 7, 15, 18, 26, 29]",117.0902265,73149,286,19,20,10,1.236526217
undo,45,2,1,0,0,22,"[0, 19, 12, 5, 22]",5,8,"[1, 6, 7, 13, 15, 18, 26, 29]",131.9562952,73427,278,20,63,10,1.088991051
undo,45,2,1,0,0,5,"[0, 19, 12, 5]",4,11,"[1, 6, 7, 13, 15, 16, 18, 22, 25, 26, 29]",144.7625437,74551,1124,38,136,10,1.096817477
undo,45,2,1,0,0,12,"[0, 19, 12]",3,17,"[1, 4, 5, 6, 7, 13, 15, 16, 17, 18, 20, 22, 25, 26, 27, 28, 29]",174.2921898,75118,567,66,298,10,1.110763504
undo,45,2,1,0,0,19,"[0, 19]",2,22,"[1, 2, 4, 5, 6, 7, 8, 9, 12, 13, 15, 16, 17, 18, 20, 22, 23, 25, 26, 27, 28, 29]",210.306076,75687,569,67,431,10,1
undo,45,2,1,0,0,0,[0],1,23,"[1, 2, 4, 5, 6, 7, 8, 9, 12, 13, 15, 16, 17, 18, 19, 20, 22, 23, 25, 26, 27, 28, 29]",300,76249,562,70,620,10,0
undo,45,2,0,0,0,29,"[0, 29]",2,10,"[5, 7, 12, 13, 15, 18, 22, 25, 26, 28]",116.4244025,77095,846,2,13,8,1
undo,45,2,0,0,0,15,"[0, 29, 15]",3,7,"[5, 7, 12, 13, 18, 22, 26]",87.96390355,78240,1145,2,11,8,1.125656166
undo,45,2,0,0,0,7,"[0, 29, 15, 7]",4,5,"[5, 13, 18, 22, 26]",73.19908049,79093,853,2,6,8,1.19368905
undo,45,2,0,0,0,18,"[0, 29, 15, 7, 18]",5,4,"[5, 13, 22, 26]",62.90345035,79945,852,2,4,8,1.318628268
undo,45,2,1,0,0,7,"[0, 29, 15, 7]",4,5,"[5, 13, 18, 22, 26]",73.19908049,81909,1964,2,6,8,1.19368905
undo,45,2,1,0,0,15,"[0, 29, 15]",3,7,"[5, 7, 12, 13, 18, 22, 26]",87.96390355,82193,284,2,11,8,1.125656166
undo,45,2,1,0,0,29,"[0, 29]",2,10,"[5, 7, 12, 13, 15, 18, 22, 25, 26, 28]",116.4244025,83316,1123,2,13,8,1
undo,45,2,1,0,0,0,[0],1,23,"[1, 2, 4, 5, 6, 7, 8, 9, 12, 13, 15, 16, 17, 18, 19, 20, 22, 23, 25, 26, 27, 28, 29]",300,83886,570,70,620,10,0
undo,45,2,0,0,0,19,"[0, 19]",2,22,"[1, 2, 4, 5, 6, 7, 8, 9, 12, 13, 15, 16, 17, 18, 20, 22, 23, 25, 26, 27, 28, 29]",210.306076,86457,2571,67,431,10,1
undo,45,2,0,0,0,12,"[0, 19, 12]",3,17,"[1, 4, 5, 6, 7, 13, 15, 16, 17, 18, 20, 22, 25, 26, 27, 28, 29]",174.2921898,87324,867,66,298,10,1.110763504
undo,45,2,0,0,0,29,"[0, 19, 12, 29]",4,8,"[5, 7, 13, 15, 18, 22, 26, 28]",88.1992168,91019,3695,3,16,8,1.153752384
undo,45,2,0,0,0,15,"[0, 19, 12, 29, 15]",5,5,"[7, 13, 18, 22, 26]",59.73871786,92155,1136,3,5,8,1.27549789
undo,45,2,0,0,0,7,"[0, 19, 12, 29, 15, 7]",6,2,"[18, 26]",44.9738948,93012,857,1,1,8,1.342242659
undo,45,2,1,0,0,15,"[0, 19, 12, 29, 15]",5,5,"[7, 13, 18, 22, 26]",59.73871786,95280,2268,3,5,8,1.27549789
undo,45,2,1,0,0,29,"[0, 19, 12, 29]",4,8,"[5, 7, 13, 15, 18, 22, 26, 28]",88.1992168,95559,279,3,16,8,1.153752384
undo,45,2,1,0,0,12,"[0, 19, 12]",3,17,"[1, 4, 5, 6, 7, 13, 15, 16, 17, 18, 20, 22, 25, 26, 27, 28, 29]",174.2921898,95844,285,66,298,10,1.110763504
undo,45,2,1,0,0,19,"[0, 19]",2,22,"[1, 2, 4, 5, 6, 7, 8, 9, 12, 13, 15, 16, 17, 18, 20, 22, 23, 25, 26, 27, 28, 29]",210.306076,96412,568,67,431,10,1
undo,45,2,0,0,0,12,"[0, 19, 12]",3,17,"[1, 4, 5, 6, 7, 13, 15, 16, 17, 18, 20, 22, 25, 26, 27, 28, 29]",174.2921898,98963,2551,66,298,10,1.110763504
undo,45,2,0,0,0,5,"[0, 19, 12, 5]",4,11,"[1, 6, 7, 13, 15, 16, 18, 22, 25, 26, 29]",144.7625437,100383,1420,38,136,10,1.096817477
undo,45,2,0,0,0,22,"[0, 19, 12, 5, 22]",5,8,"[1, 6, 7, 13, 15, 18, 26, 29]",131.9562952,100953,570,20,63,10,1.088991051
undo,45,2,0,0,0,13,"[0, 19, 12, 5, 22, 13]",6,7,"[1, 6, 7, 15, 18, 26, 29]",117.0902265,101523,570,19,20,10,1.236526217
undo,45,2,0,0,0,18,"[0, 19, 12, 5, 22, 13, 18]",7,4,"[7, 15, 26, 29]",81.91921567,102657,1134,10,3,10,1.212870821
undo,45,2,0,0,0,7,"[0, 19, 12, 5, 22, 13, 18, 7]",8,3,"[15, 26, 29]",71.62358553,103506,849,5,0,10,1.201981129
undo,45,2,0,0,0,26,"[0, 19, 12, 5, 22, 13, 18, 7, 26]",9,2,"[15, 29]",48.82007703,106894,3388,2,0,10,1.188359334
undo,45,2,0,0,1,15,"[0, 19, 12, 5, 22, 13, 18, 7, 26, 15]",10,0,[],24.61264015,107748,854,1,0,10,1.461975035
undo,45,2,0,1,1,15,"[0, 19, 12, 5, 22, 13, 18, 7, 26, 15]",10,0,[],24.61264015,109745,1997,1,0,10,1.461975035
undo,46,24,0,0,0,0,[0],1,29,"[1, 2, 3, 4, 5, 6, 7, 8, 9, 10, 11, 12, 13, 14, 15, 16, 17, 18, 19, 20, 21, 22, 23, 24, 25, 26, 27, 28, 29]",300,2184,-1,4,76,10,0
undo,46,24,0,0,0,16,"[0, 16]",2,28,"[1, 2, 3, 4, 5, 6, 7, 8, 9, 10, 11, 12, 13, 14, 15, 17, 18, 19, 20, 21, 22, 23, 24, 25, 26, 27, 28, 29]",210.3562607,5549,3365,13,110,9,1
undo,46,24,0,0,0,8,"[0, 16, 8]",3,22,"[1, 2, 3, 4, 6, 9, 10, 11, 13, 14, 15, 17, 20, 21, 22, 23, 24, 25, 26, 27, 28, 29]",181.3562607,8380,2831,3,31,9,1.077466937
undo,46,24,0,0,0,22,"[0, 16, 8, 22]",4,18,"[2, 3, 4, 6, 9, 10, 11, 13, 14, 15, 17, 23, 24, 25, 26, 27, 28, 29]",167.9398528,9233,853,3,23,9,1.253177231
undo,46,24,0,0,0,15,"[0, 16, 8, 22, 15]",5,16,"[3, 4, 6, 9, 10, 11, 13, 14, 17, 23, 24, 25, 26, 27, 28, 29]",146.7266494,10082,849,3,16,9,1.281332995
undo,46,24,0,0,0,28,"[0, 16, 8, 22, 15, 28]",6,8,"[3, 4, 9, 11, 13, 23, 26, 27]",101.4497237,11225,1143,3,5,9,1.206084782
undo,46,24,0,0,0,23,"[0, 16, 8, 22, 15, 28, 23]",7,3,"[9, 11, 27]",82.42342609,12079,854,3,1,9,1.234935519
undo,46,24,0,0,0,11,"[0, 16, 8, 22, 15, 28, 23, 11]",8,2,"[9, 27]",55.49760206,12651,572,2,0,9,1.217258682
undo,46,24,0,0,1,27,"[0, 16, 8, 22, 15, 28, 23, 11, 27]",9,0,[],27.69472451,16050,3399,1,0,9,1.192247579
undo,46,24,0,1,1,27,"[0, 16, 8, 22, 15, 28, 23, 11, 27]",9,0,[],27.69472451,20568,4518,1,0,9,1.192247579
undo,47,25,0,0,0,0,[0],1,28,"[1, 2, 3, 4, 5, 7, 8, 9, 10, 11, 12, 13, 14, 15, 16, 17, 18, 19, 20, 21, 22, 23, 24, 25, 26, 27, 28, 29]",300,2171,-1,5,94,10,0
undo,47,25,0,0,0,19,"[0, 19]",2,27,"[1, 2, 3, 4, 5, 7, 8, 9, 10, 11, 12, 13, 14, 15, 16, 17, 18, 20, 21, 22, 23, 24, 25, 26, 27, 28, 29]",251.9479449,4892,2721,2,30,10,1
undo,47,25,0,0,0,29,"[0, 19, 29]",3,26,"[1, 2, 3, 4, 5, 7, 8, 9, 10, 11, 12, 13, 14, 15, 16, 17, 18, 20, 21, 22, 23, 24, 25, 26, 27, 28]",235.6691243,5469,577,2,22,10,1.027225208
undo,47,25,0,0,0,22,"[0, 19, 29, 22]",4,24,"[1, 2, 3, 4, 5, 7, 8, 9, 11, 12, 13, 14, 15, 16, 17, 18, 20, 21, 23, 24, 25, 26, 27, 28]",219.5446088,6328,859,2,17,10,1.039888546
undo,47,25,0,0,0,7,"[0, 19, 29, 22, 7]",5,10,"[1, 3, 5, 8, 9, 11, 13, 23, 24, 28]",143.9007062,7755,1427,2,14,10,1.33189748
undo,47,25,0,0,0,24,"[0, 19, 29, 22, 7, 24]",6,7,"[3, 8, 9, 11, 13, 23, 28]",119.1418694,8612,857,2,9,10,1.286830974
undo,47,25,0,0,0,9,"[0, 19, 29, 22, 7, 24, 9]",7,4,"[3, 8, 13, 28]",101.114113,9465,853,2,7,10,1.274019872
undo,47,25,0,0,0,3,"[0, 19, 29, 22, 7, 24, 9, 3]",8,3,"[8, 13, 28]",70.84862112,10603,1138,2,1,10,1.237625929
undo,47,25,0,0,0,28,"[0, 19, 29, 22, 7, 24, 9, 3, 28]",9,1,[13],39.54366943,14565,3962,1,0,10,1.20362552
undo,47,25,0,0,1,13,"[0, 19, 29, 22, 7, 24, 9, 3, 28, 13]",10,0,[],5.309183897,15706,1141,1,0,10,1.462057892
undo,47,25,0,1,1,13,"[0, 19, 29, 22, 7, 24, 9, 3, 28, 13]",10,0,[],5.309183897,17110,1404,1,0,10,1.462057892
undo,48,17,0,0,0,0,[0],1,28,"[1, 2, 3, 4, 5, 6, 7, 8, 9, 10, 11, 12, 13, 14, 15, 16, 17, 18, 19, 20, 22, 23, 24, 25, 26, 27, 28, 29]",300,2166,-1,2,73,8,0
undo,48,17,0,0,0,9,"[0, 9]",2,25,"[1, 2, 3, 5, 6, 7, 8, 10, 11, 12, 14, 15, 16, 17, 18, 19, 20, 22, 23, 24, 25, 26, 27, 28, 29]",210.5293344,3694,1528,1,34,8,1
undo,48,17,0,0,0,16,"[0, 9, 16]",3,21,"[1, 2, 3, 5, 7, 8, 10, 11, 12, 14, 17, 18, 19, 20, 22, 23, 25, 26, 27, 28, 29]",197.1876704,4540,846,1,26,8,1.173103464
undo,48,17,0,0,0,2,"[0, 9, 16, 2]",4,18,"[1, 3, 5, 7, 8, 10, 11, 12, 14, 17, 18, 19, 23, 25, 26, 27, 28, 29]",181.0631549,6819,2279,1,23,8,1.148250892
undo,48,17,0,0,0,17,"[0, 9, 16, 2, 17]",5,7,"[7, 8, 12, 14, 26, 27, 29]",142.7356191,8530,1711,4,5,7,1.48960407
undo,48,17,0,0,0,8,"[0, 9, 16, 2, 17, 8]",6,3,"[7, 12, 27]",104.5256727,11679,3149,3,0,7,1.460472697
undo,48,17,0,0,1,27,"[0, 9, 16, 2, 17, 8, 27]",7,0,[],21.88790895,16238,4559,1,0,7,1.294946067
undo,48,17,0,1,1,27,"[0, 9, 16, 2, 17, 8, 27]",7,0,[],21.88790895,19921,3683,1,0,7,1.294946067
undo,49,21,0,0,0,0,[0],1,29,"[1, 2, 3, 4, 5, 6, 7, 8, 9, 10, 11, 12, 13, 14, 15, 16, 17, 18, 19, 20, 21, 22, 23, 24, 25, 26, 27, 28, 29]",300,2188,-1,84,830,9,0
undo,49,21,0,0,0,20,"[0, 20]",2,28,"[1, 2, 3, 4, 5, 6, 7, 8, 9, 10, 11, 12, 13, 14, 15, 16, 17, 18, 19, 21, 22, 23, 24, 25, 26, 27, 28, 29]",217.6228187,4006,1818,6,67,9,1
undo,49,21,0,0,0,22,"[0, 20, 22]",3,23,"[2, 4, 6, 7, 8, 9, 10, 11, 12, 13, 14, 15, 16, 17, 18, 19, 21, 23, 24, 25, 26, 27, 29]",189.3916303,5145,1139,6,47,9,1.345186571
undo,49,21,0,0,0,18,"[0, 20, 22, 18]",4,20,"[2, 4, 6, 7, 8, 9, 10, 11, 12, 14, 15, 16, 17, 21, 23, 24, 25, 26, 27, 29]",162.9908727,5722,577,4,25,9,2.319192439
undo,49,21,0,0,0,29,"[0, 20, 22, 18, 29]",5,16,"[2, 4, 6, 7, 8, 10, 12, 14, 15, 16, 17, 21, 23, 24, 25, 27]",134.3377751,7143,1421,2,10,9,1.955473868
undo,49,21,0,0,0,25,"[0, 20, 22, 18, 29, 25]",6,5,"[4, 14, 17, 21, 23]",89.11609892,8003,860,2,5,9,3.525520617
undo,49,21,0,0,0,21,"[0, 20, 22, 18, 29, 25, 21]",7,3,"[4, 14, 23]",39.78051339,9989,1986,1,2,9,2.894903793
undo,49,21,0,0,0,14,"[0, 20, 22, 18, 29, 25, 21, 14]",8,1,[4],14.16801644,11690,1701,1,0,9,2.49542146
undo,49,21,0,0,1,4,"[0, 20, 22, 18, 29, 25, 21, 14, 4]",9,0,[],0.025880812,13381,1691,1,0,9,2.34526616
undo,49,21,0,1,1,4,"[0, 20, 22, 18, 29, 25, 21, 14, 4]",9,0,[],0.025880812,14512,1131,1,0,9,2.34526616
undo,50,43,0,0,0,0,[0],1,23,"[1, 2, 3, 4, 5, 6, 7, 9, 10, 11, 12, 14, 15, 16, 17, 19, 20, 21, 22, 23, 25, 27, 29]",300,2181,-1,16,556,12,0
undo,50,43,0,0,0,29,"[0, 29]",2,22,"[1, 2, 3, 4, 5, 6, 7, 9, 10, 11, 12, 14, 15, 16, 17, 19, 20, 21, 22, 23, 25, 27]",277.909278,2483,302,16,520,12,1
undo,50,43,0,0,0,20,"[0, 29, 20]",3,20,"[1, 2, 3, 4, 6, 7, 9, 10, 11, 12, 14, 15, 16, 17, 19, 21, 22, 23, 25, 27]",254.4785289,3341,858,15,422,12,1.082311747
undo,50,43,0,0,0,16,"[0, 29, 20, 16]",4,19,"[1, 2, 3, 4, 6, 7, 9, 10, 11, 12, 14, 15, 17, 19, 21, 22, 23, 25, 27]",231.8511119,4759,1418,15,389,12,1.215201927
undo,50,43,0,0,0,15,"[0, 29, 20, 16, 15]",5,14,"[1, 2, 3, 4, 6, 7, 9, 11, 12, 14, 19, 22, 23, 25]",188.5267539,7323,2564,3,109,12,1.348247492
undo,50,43,0,0,0,25,"[0, 29, 20, 16, 15, 25]",6,12,"[1, 3, 4, 6, 7, 9, 11, 12, 14, 19, 22, 23]",165.8551858,8174,851,2,43,12,1.691408721
undo,50,43,0,0,0,12,"[0, 29, 20, 16, 15, 25, 12]",7,11,"[1, 3, 4, 6, 7, 9, 11, 14, 19, 22, 23]",141.6684126,9031,857,2,32,12,1.601598364
undo,50,43,0,0,0,3,"[0, 29, 20, 16, 15, 25, 12, 3]",8,10,"[1, 4, 6, 7, 9, 11, 14, 19, 22, 23]",128.6684126,9880,849,2,24,12,1.537983046
undo,50,43,0,0,0,19,"[0, 29, 20, 16, 15, 25, 12, 3, 19]",9,6,"[1, 4, 6, 7, 11, 22]",87.55880297,11866,1986,1,10,12,1.529185197
undo,50,43,0,0,0,1,"[0, 29, 20, 16, 15, 25, 12, 3, 19, 1]",10,4,"[6, 7, 11, 22]",59.38079736,13572,1706,4,0,11,1.671531051
undo,50,43,0,0,1,22,"[0, 29, 20, 16, 15, 25, 12, 3, 19, 1, 22]",11,0,[],27.99608771,15000,1428,1,0,11,2.280599439
undo,50,43,1,0,0,1,"[0, 29, 20, 16, 15, 25, 12, 3, 19, 1]",10,4,"[6, 7, 11, 22]",59.38079736,18127,3127,4,0,11,1.671531051
undo,50,43,1,0,0,19,"[0, 29, 20, 16, 15, 25, 12, 3, 19]",9,6,"[1, 4, 6, 7, 11, 22]",87.55880297,18976,849,1,10,12,1.529185197
undo,50,43,0,0,0,22,"[0, 29, 20, 16, 15, 25, 12, 3, 19, 22]",10,4,"[1, 6, 7, 11]",66.94327484,19836,860,1,3,12,1.954049234
undo,50,43,0,0,1,1,"[0, 29, 20, 16, 15, 25, 12, 3, 19, 22, 1]",11,0,[],35.55856519,20971,1135,1,0,11,1.837019093
undo,50,43,0,1,1,1,"[0, 29, 20, 16, 15, 25, 12, 3, 19, 22, 1]",11,0,[],35.55856519,30841,9870,1,0,11,1.837019093
undo,51,26,0,0,0,0,[0],1,29,"[1, 2, 3, 4, 5, 6, 7, 8, 9, 10, 11, 12, 13, 14, 15, 16, 17, 18, 19, 20, 21, 22, 23, 24, 25, 26, 27, 28, 29]",300,2158,-1,9,226,9,0
undo,51,26,0,0,0,21,"[0, 21]",2,25,"[2, 3, 4, 5, 6, 7, 8, 10, 11, 12, 13, 14, 15, 16, 17, 18, 19, 22, 23, 24, 25, 26, 27, 28, 29]",211.1349337,4298,2140,7,90,9,1
undo,51,26,0,0,0,13,"[0, 21, 13]",3,21,"[3, 4, 5, 6, 7, 8, 10, 11, 12, 14, 15, 16, 17, 18, 19, 22, 23, 24, 25, 26, 29]",188.9989901,5151,853,6,45,9,1.010395228
undo,51,26,0,0,0,23,"[0, 21, 13, 23]",4,13,"[3, 4, 5, 6, 10, 11, 14, 16, 17, 18, 22, 26, 29]",150.9858345,6298,1147,3,17,9,1.106941047
undo,51,26,0,0,0,16,"[0, 21, 13, 23, 16]",5,7,"[4, 5, 6, 10, 14, 17, 29]",97.75050789,7451,1153,3,13,9,1.8066634
undo,51,26,0,0,0,29,"[0, 21, 13, 23, 16, 29]",6,5,"[4, 6, 10, 14, 17]",73.54307102,8312,861,3,9,9,1.853342605
undo,51,26,0,0,0,4,"[0, 21, 13, 23, 16, 29, 4]",7,3,"[6, 14, 17]",49.54307102,9453,1141,2,2,9,2.066436923
undo,51,26,0,0,0,17,"[0, 21, 13, 23, 16, 29, 4, 17]",8,2,"[6, 14]",28.44804791,10317,864,2,0,9,1.911153302
