condition,trial_id,map_id,undoIndicator,submit,checkEnd,currentChoice,chosen_all,n_city_all,n_within_reach,cities_reach,currentBudget,time_all,rt_all,n_opt_paths_all,n_subopt_paths_all,mas_all,tortuosity_all
undo,0,21,0,0,0,0,[0],1,29,"[1, 2, 3, 4, 5, 6, 7, 8, 9, 10, 11, 12, 13, 14, 15, 16, 17, 18, 19, 20, 21, 22, 23, 24, 25, 26, 27, 28, 29]",300,1188,-1,84,830,9,0.0
undo,0,21,0,0,0,18,"[0, 18]",2,28,"[1, 2, 3, 4, 5, 6, 7, 8, 9, 10, 11, 12, 13, 14, 15, 16, 17, 19, 20, 21, 22, 23, 24, 25, 26, 27, 28, 29]",240.923778,19117,17929,44,305,9,1.0
undo,0,21,0,0,0,22,"[0, 18, 22]",3,27,"[1, 2, 3, 4, 5, 6, 7, 8, 9, 10, 11, 12, 13, 14, 15, 16, 17, 19, 20, 21, 23, 24, 25, 26, 27, 28, 29]",214.5230205,20798,1681,13,86,9,1.0395459700082075
undo,0,21,0,0,0,29,"[0, 18, 22, 29]",4,20,"[2, 4, 6, 7, 8, 9, 10, 11, 12, 14, 15, 16, 17, 20, 21, 23, 24, 25, 26, 27]",184.2575286,21918,1120,13,48,9,1.3662220122820667
undo,0,21,0,0,0,25,"[0, 18, 22, 29, 25]",5,13,"[4, 6, 8, 9, 11, 12, 14, 15, 16, 17, 20, 21, 23]",139.0358524,23322,1404,11,18,9,2.6909708046730523
undo,0,21,0,0,0,23,"[0, 18, 22, 29, 25, 23]",6,7,"[4, 8, 14, 15, 16, 17, 21]",95.71149432,25863,2541,6,5,9,2.0630993046242816
undo,0,21,0,0,0,21,"[0, 18, 22, 29, 25, 23, 21]",7,2,"[4, 14]",66.09730853,27253,1390,2,0,9,2.602133289828447
undo,0,21,0,0,0,14,"[0, 18, 22, 29, 25, 23, 21, 14]",8,1,[4],40.48481158,30328,3075,1,0,9,2.26566587256098
undo,0,21,0,0,1,4,"[0, 18, 22, 29, 25, 23, 21, 14, 4]",9,0,[],26.34267596,31167,839,1,0,9,2.1395154462606985
undo,0,21,0,1,1,4,"[0, 18, 22, 29, 25, 23, 21, 14, 4]",9,0,[],26.34267596,57391,26224,1,0,9,2.1395154462606985
undo,1,6,0,0,0,0,[0],1,29,"[1, 2, 3, 4, 5, 6, 7, 8, 9, 10, 11, 12, 13, 14, 15, 16, 17, 18, 19, 20, 21, 22, 23, 24, 25, 26, 27, 28, 29]",300,1207,-1,180,4304,10,0.0
undo,1,6,0,0,0,26,"[0, 26]",2,25,"[1, 2, 3, 4, 5, 6, 7, 8, 9, 10, 11, 12, 13, 14, 15, 16, 17, 18, 20, 21, 22, 23, 24, 27, 29]",250.2606795,10805,9598,45,776,10,1.0
undo,1,6,0,0,0,7,"[0, 26, 7]",3,24,"[1, 2, 3, 4, 5, 6, 8, 9, 10, 11, 12, 13, 14, 15, 16, 17, 18, 20, 21, 22, 23, 24, 27, 29]",226.1774904,11920,1115,25,520,10,1.5373018630243536
undo,1,6,0,0,0,3,"[0, 26, 7, 3]",4,22,"[1, 2, 4, 6, 8, 9, 10, 11, 12, 13, 14, 15, 16, 17, 18, 20, 21, 22, 23, 24, 27, 29]",190.0388684,13878,1958,20,235,10,3.2798655773210936
undo,1,6,0,0,0,24,"[0, 26, 7, 3, 24]",5,13,"[2, 4, 6, 8, 10, 13, 16, 17, 18, 22, 23, 27, 29]",126.0857606,18323,4445,1,17,10,1.78752404182238
undo,1,6,0,0,0,10,"[0, 26, 7, 3, 24, 10]",6,8,"[2, 6, 16, 17, 18, 22, 23, 29]",112.6693527,19981,1658,1,10,10,2.2210171055417245
undo,1,6,0,0,0,17,"[0, 26, 7, 3, 24, 10, 17]",7,5,"[6, 16, 18, 23, 29]",92.94626977,23330,3349,1,4,10,2.933761386470952
undo,1,6,0,0,0,18,"[0, 26, 7, 3, 24, 10, 17, 18]",8,3,"[16, 23, 29]",79.01788149,24710,1380,1,2,10,3.628513273236627
undo,1,6,0,0,0,16,"[0, 26, 7, 3, 24, 10, 17, 18, 16]",9,1,[29],55.67264643,26102,1392,1,0,10,3.38495757060591
undo,1,6,0,0,1,29,"[0, 26, 7, 3, 24, 10, 17, 18, 16, 29]",10,0,[],18.98477378,27779,1677,1,0,10,2.6384370869115052
undo,1,6,0,1,1,29,"[0, 26, 7, 3, 24, 10, 17, 18, 16, 29]",10,0,[],18.98477378,34426,6647,1,0,10,2.6384370869115052
undo,2,9,0,0,0,0,[0],1,27,"[1, 3, 4, 5, 6, 7, 8, 9, 10, 11, 13, 14, 15, 16, 17, 18, 19, 20, 21, 22, 23, 24, 25, 26, 27, 28, 29]",300,1203,-1,2,182,10,0.0
undo,2,9,0,0,0,25,"[0, 25]",2,24,"[1, 3, 4, 5, 6, 7, 8, 9, 10, 11, 13, 15, 16, 17, 18, 19, 20, 21, 22, 23, 24, 26, 27, 28]",275.9168108,15157,13954,2,104,10,1.0
undo,2,9,0,0,0,10,"[0, 25, 10]",3,20,"[3, 4, 5, 7, 8, 9, 11, 13, 15, 16, 17, 18, 19, 20, 21, 22, 23, 26, 27, 28]",236.0670932,16554,1397,2,76,10,1.1767014107208227
undo,2,9,0,0,0,9,"[0, 25, 10, 9]",4,15,"[3, 4, 5, 7, 8, 11, 18, 19, 20, 21, 22, 23, 26, 27, 28]",150.5744034,26249,9695,4,26,9,2.006661984709317
undo,2,9,0,0,0,23,"[0, 25, 10, 9, 23]",5,12,"[4, 7, 8, 11, 18, 19, 20, 21, 22, 26, 27, 28]",128.2137236,27368,1119,4,12,9,2.8852293829447864
undo,2,9,0,0,0,8,"[0, 25, 10, 9, 23, 8]",6,7,"[7, 20, 21, 22, 26, 27, 28]",106.7428131,29030,1662,2,4,9,3.0300178113656524
undo,2,9,0,0,0,28,"[0, 25, 10, 9, 23, 8, 28]",7,3,"[20, 21, 26]",95.92615925,30141,1111,2,1,9,2.74748826512235
undo,2,9,0,0,1,26,"[0, 25, 10, 9, 23, 8, 28, 26]",8,0,[],51.1489329,31816,1675,1,0,8,2.1301245635578727
undo,2,9,1,0,0,28,"[0, 25, 10, 9, 23, 8, 28]",7,3,"[20, 21, 26]",95.92615925,37449,5633,2,1,9,2.74748826512235
undo,2,9,0,0,0,21,"[0, 25, 10, 9, 23, 8, 28, 21]",8,1,[20],42.92615925,39899,2450,1,0,9,2.168801095542273
undo,2,9,0,0,1,20,"[0, 25, 10, 9, 23, 8, 28, 21, 20]",9,0,[],30.84311328,41513,1614,1,0,9,2.1252171616894433
undo,2,9,0,1,1,20,"[0, 25, 10, 9, 23, 8, 28, 21, 20]",9,0,[],30.84311328,43026,1513,1,0,9,2.1252171616894433
undo,3,5,0,0,0,0,[0],1,29,"[1, 2, 3, 4, 5, 6, 7, 8, 9, 10, 11, 12, 13, 14, 15, 16, 17, 18, 19, 20, 21, 22, 23, 24, 25, 26, 27, 28, 29]",300,1315,-1,5,139,9,0.0
undo,3,5,0,0,0,12,"[0, 12]",2,22,"[2, 4, 5, 6, 8, 9, 10, 13, 14, 15, 16, 17, 18, 19, 21, 22, 23, 24, 25, 26, 27, 28]",228.3062067,25842,24527,1,27,9,1.0
undo,3,5,0,0,0,25,"[0, 12, 25]",3,21,"[2, 4, 5, 6, 8, 9, 10, 13, 14, 15, 16, 17, 18, 19, 21, 22, 23, 24, 26, 27, 28]",200.5213187,27366,1524,1,20,9,1.584023303445617
undo,3,5,0,0,0,23,"[0, 12, 25, 23]",4,19,"[2, 4, 5, 6, 8, 9, 10, 13, 14, 15, 16, 17, 18, 19, 21, 22, 24, 26, 27]",182.0822298,28586,1220,1,14,9,2.3508446989254357
undo,3,5,0,0,0,24,"[0, 12, 25, 23, 24]",5,15,"[2, 4, 5, 6, 8, 9, 13, 14, 15, 17, 18, 19, 22, 26, 27]",158.995437,30975,2389,1,12,9,1.9469752046288753
undo,3,5,0,0,0,17,"[0, 12, 25, 23, 24, 17]",6,7,"[4, 5, 6, 8, 15, 18, 19]",124.0097257,32947,1972,1,8,9,1.6482276497563642
undo,3,5,0,0,0,5,"[0, 12, 25, 23, 24, 17, 5]",7,4,"[4, 6, 15, 18]",80.96323916,34190,1243,1,3,9,1.4654649104389412
undo,3,5,0,0,1,6,"[0, 12, 25, 23, 24, 17, 5, 6]",8,0,[],11.64513186,39594,5404,1,0,8,1.7266758571257486
undo,3,5,1,0,0,5,"[0, 12, 25, 23, 24, 17, 5]",7,4,"[4, 6, 15, 18]",80.96323916,42639,3045,1,3,9,1.4654649104389412
undo,3,5,0,0,0,4,"[0, 12, 25, 23, 24, 17, 5, 4]",8,1,[6],15.16050365,45821,3182,1,0,9,1.6255060355828674
undo,3,5,0,0,1,6,"[0, 12, 25, 23, 24, 17, 5, 4, 6]",9,0,[],3.118909076,47756,1935,1,0,9,1.7777310833772453
undo,3,5,0,1,1,6,"[0, 12, 25, 23, 24, 17, 5, 4, 6]",9,0,[],3.118909076,52225,4469,1,0,9,1.7777310833772453
undo,4,0,0,0,0,0,[0],1,27,"[2, 3, 4, 5, 6, 7, 8, 9, 10, 11, 12, 13, 14, 15, 16, 17, 19, 20, 21, 22, 23, 24, 25, 26, 27, 28, 29]",300,1216,-1,104,1136,9,0.0
undo,4,0,0,0,0,5,"[0, 5]",2,24,"[2, 3, 4, 7, 8, 9, 11, 12, 13, 14, 15, 16, 17, 19, 20, 21, 22, 23, 24, 25, 26, 27, 28, 29]",164.5156836,11042,9826,5,112,9,1.0
undo,4,0,0,0,0,15,"[0, 5, 15]",3,16,"[2, 3, 4, 7, 8, 9, 11, 12, 17, 19, 22, 23, 24, 25, 26, 28]",110.8500521,12454,1412,1,27,8,1.000639317501739
undo,4,0,0,0,0,24,"[0, 5, 15, 24]",4,10,"[3, 4, 7, 8, 9, 11, 12, 17, 26, 28]",87.50481704,13847,1393,1,13,8,1.2737056629398797
undo,4,0,0,0,0,4,"[0, 5, 15, 24, 4]",5,9,"[3, 7, 8, 9, 11, 12, 17, 26, 28]",76.10306279,14683,836,1,7,8,1.430279122183626
undo,4,0,0,0,0,26,"[0, 5, 15, 24, 4, 26]",6,6,"[3, 7, 8, 12, 17, 28]",64.06146821,15514,831,1,5,8,1.4604228483247053
undo,4,0,1,0,0,4,"[0, 5, 15, 24, 4]",5,9,"[3, 7, 8, 9, 11, 12, 17, 26, 28]",76.10306279,22471,6957,1,7,8,1.430279122183626
undo,4,0,1,0,0,24,"[0, 5, 15, 24]",4,10,"[3, 4, 7, 8, 9, 11, 12, 17, 26, 28]",87.50481704,26386,3915,1,13,8,1.2737056629398797
undo,4,0,1,0,0,15,"[0, 5, 15]",3,16,"[2, 3, 4, 7, 8, 9, 11, 12, 17, 19, 22, 23, 24, 25, 26, 28]",110.8500521,27493,1107,1,27,8,1.000639317501739
undo,4,0,0,0,0,8,"[0, 5, 15, 8]",4,10,"[3, 4, 7, 9, 17, 19, 22, 24, 25, 26]",71.73483767,45691,18198,12,6,6,1.02607925659135
undo,4,0,0,0,0,7,"[0, 5, 15, 8, 7]",5,6,"[3, 4, 17, 19, 24, 26]",52.6298645,46804,1113,6,0,6,1.206626164963511
undo,4,0,0,0,1,26,"[0, 5, 15, 8, 7, 26]",6,0,[],9.167236875,48206,1402,1,0,6,1.8002096100487763
undo,4,0,0,1,1,26,"[0, 5, 15, 8, 7, 26]",6,0,[],9.167236875,50165,1959,1,0,6,1.8002096100487763
undo,5,42,0,0,0,0,[0],1,29,"[1, 2, 3, 4, 5, 6, 7, 8, 9, 10, 11, 12, 13, 14, 15, 16, 17, 18, 19, 20, 21, 22, 23, 24, 25, 26, 27, 28, 29]",300,1197,-1,16,302,9,0.0
undo,5,42,0,0,0,25,"[0, 25]",2,27,"[1, 2, 3, 4, 5, 6, 7, 8, 9, 10, 11, 12, 13, 15, 16, 17, 18, 19, 20, 21, 22, 23, 24, 26, 27, 28, 29]",270.2678625,9698,8501,3,59,9,1.0
undo,5,42,0,0,0,29,"[0, 25, 29]",3,22,"[1, 2, 3, 4, 5, 6, 7, 8, 9, 11, 13, 15, 16, 17, 18, 20, 21, 22, 23, 24, 26, 27]",247.0730355,11098,1400,1,23,9,1.0472889958702385
undo,5,42,0,0,0,4,"[0, 25, 29, 4]",4,14,"[1, 2, 3, 5, 7, 8, 11, 15, 18, 20, 22, 24, 26, 27]",140.6916461,20883,9785,1,11,9,1.7608777599021395
undo,5,42,0,0,0,22,"[0, 25, 29, 4, 22]",5,12,"[1, 2, 3, 5, 7, 8, 11, 15, 18, 24, 26, 27]",129.5113063,21723,840,1,8,9,1.9242467193380144
undo,5,42,0,0,0,8,"[0, 25, 29, 4, 22, 8]",6,9,"[1, 2, 3, 5, 7, 15, 24, 26, 27]",107.3753626,25897,4174,1,5,9,1.7915664342589837
undo,5,42,0,0,0,1,"[0, 25, 29, 4, 22, 8, 1]",7,3,"[7, 26, 27]",58.2836118,44202,18305,1,2,9,1.552209098525214
undo,5,42,0,0,1,26,"[0, 25, 29, 4, 22, 8, 1, 26]",8,0,[],12.74242166,51714,7512,1,0,8,1.4507958502020202
undo,5,42,0,1,1,26,"[0, 25, 29, 4, 22, 8, 1, 26]",8,0,[],12.74242166,55114,3400,1,0,8,1.4507958502020202
undo,6,12,0,0,0,0,[0],1,29,"[1, 2, 3, 4, 5, 6, 7, 8, 9, 10, 11, 12, 13, 14, 15, 16, 17, 18, 19, 20, 21, 22, 23, 24, 25, 26, 27, 28, 29]",300,1202,-1,2,32,9,0.0
undo,6,12,0,0,0,6,"[0, 6]",2,28,"[1, 2, 3, 4, 5, 7, 8, 9, 10, 11, 12, 13, 14, 15, 16, 17, 18, 19, 20, 21, 22, 23, 24, 25, 26, 27, 28, 29]",283.5987805,21592,20390,2,18,9,1.0
undo,6,12,0,0,0,22,"[0, 6, 22]",3,13,"[2, 4, 5, 7, 12, 13, 14, 16, 19, 23, 24, 25, 27]",182.0015365,28527,6935,2,9,9,1.3408050629015749
undo,6,12,0,0,0,16,"[0, 6, 22, 16]",4,10,"[2, 4, 5, 7, 12, 14, 19, 24, 25, 27]",161.0015365,30188,1661,2,7,9,1.5323672374573825
undo,6,12,0,0,0,4,"[0, 6, 22, 16, 4]",5,6,"[12, 14, 19, 24, 25, 27]",126.7962737,31306,1118,2,5,9,1.38665076120851
undo,6,12,0,0,0,12,"[0, 6, 22, 16, 4, 12]",6,3,"[14, 24, 27]",84.6062275,32426,1120,2,3,9,1.3036701691846924
undo,6,12,0,0,0,27,"[0, 6, 22, 16, 4, 12, 27]",7,2,"[14, 24]",60.25463618,33268,842,2,0,9,1.401636252408167
undo,6,12,0,0,0,14,"[0, 6, 22, 16, 4, 12, 27, 14]",8,1,[24],31.60153862,34385,1117,1,0,9,1.4415448388010776
undo,6,12,0,0,1,24,"[0, 6, 22, 16, 4, 12, 27, 14, 24]",9,0,[],14.39688808,37856,3471,1,0,9,1.6003250998053893
undo,6,12,0,1,1,24,"[0, 6, 22, 16, 4, 12, 27, 14, 24]",9,0,[],14.39688808,42881,5025,1,0,9,1.6003250998053893
undo,7,16,0,0,0,0,[0],1,29,"[1, 2, 3, 4, 5, 6, 7, 8, 9, 10, 11, 12, 13, 14, 15, 16, 17, 18, 19, 20, 21, 22, 23, 24, 25, 26, 27, 28, 29]",300,1189,-1,13,161,9,0.0
undo,7,16,0,0,0,28,"[0, 28]",2,27,"[1, 2, 3, 4, 5, 7, 8, 9, 10, 11, 12, 13, 14, 15, 16, 17, 18, 19, 20, 21, 22, 23, 24, 25, 26, 27, 29]",284.3475242,5565,4376,11,92,9,1.0
undo,7,16,0,0,0,21,"[0, 28, 21]",3,26,"[1, 2, 3, 4, 5, 7, 8, 9, 10, 11, 12, 13, 14, 15, 16, 17, 18, 19, 20, 22, 23, 24, 25, 26, 27, 29]",205.0380039,19651,14086,1,25,9,1.1196822789757879
undo,7,16,0,0,0,17,"[0, 28, 21, 17]",4,13,"[1, 8, 11, 12, 14, 16, 20, 22, 23, 24, 25, 26, 27]",146.728485,22955,3304,4,15,7,2.6113605388159473
undo,7,16,1,0,0,21,"[0, 28, 21]",3,26,"[1, 2, 3, 4, 5, 7, 8, 9, 10, 11, 12, 13, 14, 15, 16, 17, 18, 19, 20, 22, 23, 24, 25, 26, 27, 29]",205.0380039,32371,9416,1,25,9,1.1196822789757879
undo,7,16,0,0,0,16,"[0, 28, 21, 16]",4,18,"[1, 2, 5, 8, 9, 11, 12, 14, 15, 17, 18, 19, 20, 22, 23, 25, 26, 27]",160.3837768,34162,1791,7,15,8,1.6894966276900831
undo,7,16,0,0,0,8,"[0, 28, 21, 16, 8]",5,7,"[5, 9, 12, 15, 17, 20, 25]",112.0102303,38572,4410,7,4,8,1.5156030324451844
undo,7,16,0,0,0,20,"[0, 28, 21, 16, 8, 20]",6,2,"[9, 25]",54.23480301,43881,5309,2,0,8,1.3582334197052164
undo,7,16,0,0,0,25,"[0, 28, 21, 16, 8, 20, 25]",7,1,[9],41.58569237,45384,1503,1,0,8,1.402500621742398
undo,7,16,0,0,1,9,"[0, 28, 21, 16, 8, 20, 25, 9]",8,0,[],28.77944389,46556,1172,1,0,8,1.3764703786589931
undo,7,16,0,1,1,9,"[0, 28, 21, 16, 8, 20, 25, 9]",8,0,[],28.77944389,48373,1817,1,0,8,1.3764703786589931
undo,8,13,0,0,0,0,[0],1,29,"[1, 2, 3, 4, 5, 6, 7, 8, 9, 10, 11, 12, 13, 14, 15, 16, 17, 18, 19, 20, 21, 22, 23, 24, 25, 26, 27, 28, 29]",300,1276,-1,60,2676,11,0.0
undo,8,13,0,0,0,9,"[0, 9]",2,28,"[1, 2, 3, 4, 5, 6, 7, 8, 10, 11, 12, 13, 14, 15, 16, 17, 18, 19, 20, 21, 22, 23, 24, 25, 26, 27, 28, 29]",268.9516506,5147,3871,24,557,11,1.0
undo,8,13,0,0,0,21,"[0, 9, 21]",3,27,"[1, 2, 3, 4, 5, 6, 7, 8, 10, 11, 12, 13, 14, 15, 16, 17, 18, 19, 20, 22, 23, 24, 25, 26, 27, 28, 29]",245.6064155,6377,1230,23,375,11,1.8983491882127779
undo,8,13,0,0,0,24,"[0, 9, 21, 24]",4,24,"[1, 2, 3, 4, 5, 6, 7, 8, 10, 11, 12, 13, 14, 15, 16, 17, 19, 20, 22, 23, 26, 27, 28, 29]",207.1876701,7597,1220,23,335,11,8.301387152261452
undo,8,13,0,0,0,28,"[0, 9, 21, 24, 28]",5,14,"[1, 2, 3, 6, 7, 11, 12, 13, 16, 17, 19, 23, 26, 29]",140.9004164,9648,2051,14,141,11,2.1592807954160236
undo,8,13,0,0,0,2,"[0, 9, 21, 24, 28, 2]",6,9,"[1, 6, 7, 11, 13, 19, 23, 26, 29]",103.257356,11046,1398,9,44,11,1.7952585337512594
undo,8,13,0,0,0,29,"[0, 9, 21, 24, 28, 2, 29]",7,8,"[1, 6, 7, 11, 13, 19, 23, 26]",91.55265609,12446,1400,9,15,11,1.8727432445262708
undo,8,13,0,0,0,7,"[0, 9, 21, 24, 28, 2, 29, 7]",8,4,"[6, 11, 23, 26]",76.28831856,14166,1720,5,2,11,2.125292853311899
undo,8,13,0,0,0,11,"[0, 9, 21, 24, 28, 2, 29, 7, 11]",9,2,"[6, 26]",46.22172581,15572,1406,1,1,11,1.9894543206075619
undo,8,13,0,0,0,6,"[0, 9, 21, 24, 28, 2, 29, 7, 11, 6]",10,1,[26],27.11675263,16705,1133,1,0,11,2.513265622283025
undo,8,13,0,0,1,26,"[0, 9, 21, 24, 28, 2, 29, 7, 11, 6, 26]",11,0,[],7.01700139,18934,2229,1,0,11,3.062391343044772
undo,8,13,0,1,1,26,"[0, 9, 21, 24, 28, 2, 29, 7, 11, 6, 26]",11,0,[],7.01700139,20622,1688,1,0,11,3.062391343044772
undo,9,38,0,0,0,0,[0],1,29,"[1, 2, 3, 4, 5, 6, 7, 8, 9, 10, 11, 12, 13, 14, 15, 16, 17, 18, 19, 20, 21, 22, 23, 24, 25, 26, 27, 28, 29]",300,1354,-1,33,506,9,0.0
undo,9,38,0,0,0,15,"[0, 15]",2,24,"[1, 2, 3, 4, 5, 6, 7, 10, 11, 12, 13, 14, 16, 17, 18, 19, 20, 21, 22, 24, 25, 26, 27, 28]",226.6242547,32874,31520,26,315,8,1.0
undo,9,38,0,0,0,24,"[0, 15, 24]",3,11,"[4, 11, 13, 16, 17, 18, 19, 20, 26, 27, 28]",136.4854728,37965,5091,2,6,7,1.0535301217137132
undo,9,38,1,0,0,15,"[0, 15]",2,24,"[1, 2, 3, 4, 5, 6, 7, 10, 11, 12, 13, 14, 16, 17, 18, 19, 20, 21, 22, 24, 25, 26, 27, 28]",226.6242547,46064,8099,26,315,8,1.0
undo,9,38,1,0,0,0,[0],1,29,"[1, 2, 3, 4, 5, 6, 7, 8, 9, 10, 11, 12, 13, 14, 15, 16, 17, 18, 19, 20, 21, 22, 23, 24, 25, 26, 27, 28, 29]",300,56668,10604,33,506,9,0.0
undo,9,38,0,0,0,19,"[0, 19]",2,23,"[3, 4, 5, 6, 7, 8, 9, 11, 13, 14, 15, 16, 17, 18, 20, 22, 23, 24, 25, 26, 27, 28, 29]",219.5015528,58943,2275,6,61,9,1.0
undo,9,38,0,0,0,17,"[0, 19, 17]",3,21,"[3, 4, 5, 6, 7, 9, 11, 13, 14, 15, 16, 18, 20, 22, 23, 24, 25, 26, 27, 28, 29]",198.1239945,60367,1424,6,53,9,1.571793785769489
undo,9,38,0,0,0,20,"[0, 19, 17, 20]",4,17,"[3, 4, 5, 6, 7, 11, 13, 14, 15, 16, 18, 22, 24, 25, 26, 27, 28]",174.3542658,61486,1119,6,44,9,2.333182710277297
undo,9,38,0,0,0,15,"[0, 19, 17, 20, 15]",5,9,"[4, 5, 11, 13, 14, 16, 24, 26, 28]",118.8925673,66200,4714,10,14,8,2.468219326855957
undo,9,38,0,0,0,4,"[0, 19, 17, 20, 15, 4]",6,6,"[11, 13, 16, 24, 26, 28]",92.89256734,67869,1669,4,3,8,2.953858913055544
undo,9,38,0,0,0,13,"[0, 19, 17, 20, 15, 4, 13]",7,1,[26],61.4919304,70092,2223,1,0,8,2.4401159229489866
undo,9,38,0,0,1,26,"[0, 19, 17, 20, 15, 4, 13, 26]",8,0,[],30.44358101,72317,2225,1,0,8,2.1410906006451786
undo,9,38,0,1,1,26,"[0, 19, 17, 20, 15, 4, 13, 26]",8,0,[],30.44358101,82627,10310,1,0,8,2.1410906006451786
undo,10,7,0,0,0,0,[0],1,29,"[1, 2, 3, 4, 5, 6, 7, 8, 9, 10, 11, 12, 13, 14, 15, 16, 17, 18, 19, 20, 21, 22, 23, 24, 25, 26, 27, 28, 29]",300,1195,-1,3,79,9,0.0
undo,10,7,0,0,0,15,"[0, 15]",2,19,"[2, 4, 5, 6, 7, 8, 9, 10, 13, 14, 16, 18, 19, 20, 21, 23, 25, 27, 28]",230.9348134,24013,22818,2,38,9,1.0
undo,10,7,0,0,0,6,"[0, 15, 6]",3,18,"[2, 4, 5, 7, 8, 9, 10, 13, 14, 16, 18, 19, 20, 21, 23, 25, 27, 28]",205.854941,24862,849,2,36,9,1.366719602896943
undo,10,7,0,0,0,13,"[0, 15, 6, 13]",4,5,"[4, 7, 18, 20, 25]",107.7733423,26308,1446,4,8,7,1.156544829734667
undo,10,7,0,0,0,4,"[0, 15, 6, 13, 4]",5,3,"[18, 20, 25]",54.4348009,27736,1428,4,0,7,1.7486921657394103
undo,10,7,0,0,0,25,"[0, 15, 6, 13, 4, 25]",6,1,[18],29.69616714,29986,2250,1,0,7,2.282854315830149
undo,10,7,1,0,0,4,"[0, 15, 6, 13, 4]",5,3,"[18, 20, 25]",54.4348009,35909,5923,4,0,7,1.7486921657394103
undo,10,7,1,0,0,13,"[0, 15, 6, 13]",4,5,"[4, 7, 18, 20, 25]",107.7733423,37038,1129,4,8,7,1.156544829734667
undo,10,7,1,0,0,6,"[0, 15, 6]",3,18,"[2, 4, 5, 7, 8, 9, 10, 13, 14, 16, 18, 19, 20, 21, 23, 25, 27, 28]",205.854941,39854,2816,2,36,9,1.366719602896943
undo,10,7,0,0,0,25,"[0, 15, 6, 25]",4,11,"[2, 4, 7, 13, 14, 16, 18, 19, 20, 21, 23]",138.6760753,44969,5115,2,28,9,1.3624631728355765
undo,10,7,0,0,0,4,"[0, 15, 6, 25, 4]",5,7,"[2, 7, 13, 16, 18, 19, 20]",113.9374415,46102,1133,2,12,9,1.3249684384385587
undo,10,7,0,0,0,20,"[0, 15, 6, 25, 4, 20]",6,5,"[2, 7, 13, 18, 19]",94.29055881,50806,4704,1,6,9,1.3721893242679268
undo,10,7,0,0,0,18,"[0, 15, 6, 25, 4, 20, 18]",7,3,"[7, 13, 19]",81.48431034,51919,1113,1,2,9,1.5262542308371432
undo,10,7,0,0,0,7,"[0, 15, 6, 25, 4, 20, 18, 7]",8,1,[19],40.25325408,53882,1963,1,0,9,1.41986878673423
undo,10,7,0,0,1,19,"[0, 15, 6, 25, 4, 20, 18, 7, 19]",9,0,[],10.84237174,54999,1117,1,0,9,1.5285658163212987
undo,10,7,0,1,1,19,"[0, 15, 6, 25, 4, 20, 18, 7, 19]",9,0,[],10.84237174,57020,2021,1,0,9,1.5285658163212987
undo,11,44,0,0,0,0,[0],1,29,"[1, 2, 3, 4, 5, 6, 7, 8, 9, 10, 11, 12, 13, 14, 15, 16, 17, 18, 19, 20, 21, 22, 23, 24, 25, 26, 27, 28, 29]",300,1206,-1,13,126,7,0.0
undo,11,44,0,0,0,8,"[0, 8]",2,17,"[1, 4, 5, 7, 9, 10, 11, 12, 13, 14, 15, 20, 21, 23, 24, 25, 27]",145.7923478,16725,15519,1,10,7,1.0
undo,11,44,0,0,0,20,"[0, 8, 20]",3,16,"[1, 4, 5, 7, 9, 10, 11, 12, 13, 14, 15, 21, 23, 24, 25, 27]",133.7093018,17832,1107,1,9,7,1.0890794433668698
undo,11,44,0,0,0,9,"[0, 8, 20, 9]",4,7,"[4, 7, 11, 12, 14, 23, 24]",76.43801756,32647,14815,1,6,7,1.40892325509949
undo,11,44,0,0,0,4,"[0, 8, 20, 9, 4]",5,4,"[7, 12, 23, 24]",56.74030196,39093,6446,1,3,7,1.3849770570803555
undo,11,44,0,0,0,7,"[0, 8, 20, 9, 4, 7]",6,1,[23],25.72417712,40217,1124,1,0,7,1.3274380931474288
undo,11,44,0,0,1,23,"[0, 8, 20, 9, 4, 7, 23]",7,0,[],6.619203947,41608,1391,1,0,7,1.3395824779823196
undo,11,44,0,1,1,23,"[0, 8, 20, 9, 4, 7, 23]",7,0,[],6.619203947,42778,1170,1,0,7,1.3395824779823196
undo,12,30,0,0,0,0,[0],1,19,"[3, 4, 5, 7, 9, 11, 16, 17, 18, 19, 20, 21, 22, 24, 25, 26, 27, 28, 29]",300,1504,-1,5,41,8,0.0
undo,12,30,0,0,0,25,"[0, 25]",2,12,"[3, 5, 7, 9, 11, 16, 18, 19, 20, 24, 27, 29]",121.1005869,29266,27762,7,37,7,1.0
undo,12,30,0,0,0,20,"[0, 25, 20]",3,9,"[3, 5, 7, 9, 11, 18, 19, 27, 29]",99.16887472,32040,2774,5,16,7,1.0037291321296267
undo,12,30,0,0,0,27,"[0, 25, 20, 27]",4,4,"[3, 5, 18, 29]",65.11010199,33446,1406,4,6,7,1.1217072851053165
undo,12,30,0,0,0,3,"[0, 25, 20, 27, 3]",5,3,"[5, 18, 29]",46.00512882,34552,1106,4,0,7,1.1140018780928678
undo,12,30,0,0,0,5,"[0, 25, 20, 27, 3, 5]",6,1,[18],21.16564412,36780,2228,1,0,7,1.1530944492196908
undo,12,30,1,0,0,3,"[0, 25, 20, 27, 3]",5,3,"[5, 18, 29]",46.00512882,40692,3912,4,0,7,1.1140018780928678
undo,12,30,1,0,0,27,"[0, 25, 20, 27]",4,4,"[3, 5, 18, 29]",65.11010199,41519,827,4,6,7,1.1217072851053165
undo,12,30,1,0,0,20,"[0, 25, 20]",3,9,"[3, 5, 7, 9, 11, 18, 19, 27, 29]",99.16887472,42644,1125,5,16,7,1.0037291321296267
undo,12,30,1,0,0,25,"[0, 25]",2,12,"[3, 5, 7, 9, 11, 16, 18, 19, 20, 24, 27, 29]",121.1005869,44050,1406,7,37,7,1.0
undo,12,30,1,0,0,0,[0],1,19,"[3, 4, 5, 7, 9, 11, 16, 17, 18, 19, 20, 21, 22, 24, 25, 26, 27, 28, 29]",300,47715,3665,5,41,8,0.0
undo,12,30,0,0,0,27,"[0, 27]",2,10,"[3, 5, 7, 9, 18, 19, 20, 24, 25, 29]",90.59608409,68802,21087,7,22,6,1.0
undo,12,30,0,0,0,3,"[0, 27, 3]",3,8,"[5, 7, 18, 19, 20, 24, 25, 29]",71.49111091,71296,2494,5,9,6,1.0022223300201003
undo,12,30,0,0,0,5,"[0, 27, 3, 5]",4,4,"[7, 18, 24, 29]",46.65162621,73791,2495,1,3,6,1.047699458031665
undo,12,30,0,0,0,18,"[0, 27, 3, 5, 18]",5,1,[29],33.6132214,76304,2513,1,0,6,1.0906504953306948
undo,12,30,0,0,1,29,"[0, 27, 3, 5, 18, 29]",6,0,[],14.30001349,77969,1665,1,0,6,1.1734964103241567
undo,12,30,0,1,1,29,"[0, 27, 3, 5, 18, 29]",6,0,[],14.30001349,79678,1709,1,0,6,1.1734964103241567
undo,13,35,0,0,0,0,[0],1,29,"[1, 2, 3, 4, 5, 6, 7, 8, 9, 10, 11, 12, 13, 14, 15, 16, 17, 18, 19, 20, 21, 22, 23, 24, 25, 26, 27, 28, 29]",300,1497,-1,5,236,11,0.0
undo,13,35,0,0,0,27,"[0, 27]",2,27,"[1, 2, 4, 5, 6, 7, 8, 9, 10, 11, 12, 13, 14, 15, 16, 17, 18, 19, 20, 21, 22, 23, 24, 25, 26, 28, 29]",278.7867966,8723,7226,5,144,11,1.0
undo,13,35,0,0,0,2,"[0, 27, 2]",3,17,"[1, 5, 6, 7, 9, 10, 13, 15, 16, 17, 18, 19, 21, 23, 24, 26, 28]",217.43535,9868,1145,1,47,9,1.0198608620047263
undo,13,35,0,0,0,28,"[0, 27, 2, 28]",4,13,"[1, 5, 9, 10, 15, 16, 17, 18, 19, 21, 23, 24, 26]",171.8941598,10714,846,1,43,9,2.196997034279233
undo,13,35,0,0,0,19,"[0, 27, 2, 28, 19]",5,7,"[1, 9, 15, 17, 18, 23, 24]",122.9758606,11575,861,1,8,9,2.1510076450391287
undo,13,35,0,0,0,17,"[0, 27, 2, 28, 19, 17]",6,3,"[1, 15, 24]",57.58472969,18562,6987,1,3,9,6.112172636770407
undo,13,35,0,0,0,24,"[0, 27, 2, 28, 19, 17, 24]",7,2,"[1, 15]",45.88002977,19664,1102,1,1,9,8.193156674241337
undo,13,35,0,0,0,1,"[0, 27, 2, 28, 19, 17, 24, 1]",8,1,[15],28.76278701,20506,842,1,0,9,5.674220011584069
undo,13,35,0,0,1,15,"[0, 27, 2, 28, 19, 17, 24, 1, 15]",9,0,[],5.915467688,22185,1679,1,0,9,5.291310275986963
undo,13,35,0,1,1,15,"[0, 27, 2, 28, 19, 17, 24, 1, 15]",9,0,[],5.915467688,23359,1174,1,0,9,5.291310275986963
undo,14,27,0,0,0,0,[0],1,26,"[1, 3, 5, 6, 7, 8, 9, 10, 11, 12, 13, 14, 15, 16, 17, 18, 19, 21, 22, 23, 24, 25, 26, 27, 28, 29]",300,1672,-1,13,578,11,0.0
undo,14,27,0,0,0,26,"[0, 26]",2,23,"[1, 5, 6, 7, 8, 9, 10, 11, 12, 13, 14, 15, 16, 17, 18, 19, 21, 22, 23, 24, 25, 27, 29]",275.8132268,4613,2941,7,249,11,1.0
undo,14,27,0,0,0,1,"[0, 26, 1]",3,21,"[6, 7, 8, 9, 10, 11, 12, 13, 14, 15, 16, 17, 18, 19, 21, 22, 23, 24, 25, 27, 29]",201.3820505,6886,2273,2,115,10,1.355005262216786
undo,14,27,0,0,0,23,"[0, 26, 1, 23]",4,14,"[6, 8, 10, 12, 13, 14, 15, 17, 18, 19, 24, 25, 27, 29]",153.3404019,7743,857,1,63,10,1.9282298820252017
undo,14,27,0,0,0,13,"[0, 26, 1, 23, 13]",5,7,"[8, 10, 12, 15, 17, 19, 24]",93.72496765,8888,1145,8,21,9,2.0960268969679188
undo,14,27,0,0,0,10,"[0, 26, 1, 23, 13, 10]",6,4,"[12, 15, 17, 24]",53.87524996,10016,1128,6,5,9,3.2631521291442365
undo,14,27,0,0,0,12,"[0, 26, 1, 23, 13, 10, 12]",7,3,"[15, 17, 24]",42.82988894,11407,1391,3,1,9,3.979131161838641
undo,14,27,0,0,0,17,"[0, 26, 1, 23, 13, 10, 12, 17]",8,1,[24],31.64954906,12340,933,1,0,9,4.3259828933648565
undo,14,27,0,0,1,24,"[0, 26, 1, 23, 13, 10, 12, 17, 24]",9,0,[],15.0966037,13187,847,1,0,9,6.02776124697436
undo,14,27,1,0,0,17,"[0, 26, 1, 23, 13, 10, 12, 17]",8,1,[24],31.64954906,17951,4764,1,0,9,4.3259828933648565
undo,14,27,1,0,0,12,"[0, 26, 1, 23, 13, 10, 12]",7,3,"[15, 17, 24]",42.82988894,19058,1107,3,1,9,3.979131161838641
undo,14,27,1,0,0,10,"[0, 26, 1, 23, 13, 10]",6,4,"[12, 15, 17, 24]",53.87524996,20161,1103,6,5,9,3.2631521291442365
undo,14,27,1,0,0,13,"[0, 26, 1, 23, 13]",5,7,"[8, 10, 12, 15, 17, 19, 24]",93.72496765,21308,1147,8,21,9,2.0960268969679188
undo,14,27,1,0,0,23,"[0, 26, 1, 23]",4,14,"[6, 8, 10, 12, 13, 14, 15, 17, 18, 19, 24, 25, 27, 29]",153.3404019,25225,3917,1,63,10,1.9282298820252017
undo,14,27,1,0,0,1,"[0, 26, 1]",3,21,"[6, 7, 8, 9, 10, 11, 12, 13, 14, 15, 16, 17, 18, 19, 21, 22, 23, 24, 25, 27, 29]",201.3820505,27200,1975,2,115,10,1.355005262216786
undo,14,27,1,0,0,26,"[0, 26]",2,23,"[1, 5, 6, 7, 8, 9, 10, 11, 12, 13, 14, 15, 16, 17, 18, 19, 21, 22, 23, 24, 25, 27, 29]",275.8132268,29148,1948,7,249,11,1.0
undo,14,27,0,0,0,27,"[0, 26, 27]",3,21,"[1, 6, 7, 8, 9, 10, 11, 12, 13, 14, 15, 16, 17, 18, 19, 21, 22, 23, 24, 25, 29]",225.9935519,33581,4433,1,80,11,1.307240649445448
undo,14,27,0,0,0,1,"[0, 26, 27, 1]",4,20,"[6, 7, 8, 9, 10, 11, 12, 13, 14, 15, 16, 17, 18, 19, 21, 22, 23, 24, 25, 29]",195.761119,34974,1393,51,187,10,1.4322365552995941
undo,14,27,0,0,0,23,"[0, 26, 27, 1, 23]",5,13,"[6, 8, 10, 12, 13, 14, 15, 17, 18, 19, 24, 25, 29]",147.7194704,36156,1182,45,79,10,2.0021319533763484
undo,14,27,0,0,0,15,"[0, 26, 27, 1, 23, 15]",6,5,"[10, 12, 13, 17, 24]",93.71021195,37579,1423,24,9,10,5.690888111623813
undo,14,27,0,0,0,24,"[0, 26, 27, 1, 23, 15, 24]",7,4,"[10, 12, 13, 17]",76.50556141,38704,1125,9,3,10,4.728518976406084
undo,14,27,0,0,0,17,"[0, 26, 27, 1, 23, 15, 24, 17]",8,3,"[10, 12, 13]",59.95261606,39827,1123,4,1,10,3.869719141085435
undo,14,27,0,0,0,12,"[0, 26, 27, 1, 23, 15, 24, 17, 12]",9,2,"[10, 13]",48.77227617,40955,1128,2,0,10,3.8871860360806623
undo,14,27,0,0,1,10,"[0, 26, 27, 1, 23, 15, 24, 17, 12, 10]",10,0,[],37.72691515,41803,848,1,0,10,3.477248733036456
undo,14,27,1,0,0,12,"[0, 26, 27, 1, 23, 15, 24, 17, 12]",9,2,"[10, 13]",48.77227617,53712,11909,2,0,10,3.8871860360806623
undo,14,27,1,0,0,17,"[0, 26, 27, 1, 23, 15, 24, 17]",8,3,"[10, 12, 13]",59.95261606,54545,833,4,1,10,3.869719141085435
undo,14,27,1,0,0,24,"[0, 26, 27, 1, 23, 15, 24]",7,4,"[10, 12, 13, 17]",76.50556141,55659,1114,9,3,10,4.728518976406084
undo,14,27,1,0,0,15,"[0, 26, 27, 1, 23, 15]",6,5,"[10, 12, 13, 17, 24]",93.71021195,56488,829,24,9,10,5.690888111623813
undo,14,27,1,0,0,23,"[0, 26, 27, 1, 23]",5,13,"[6, 8, 10, 12, 13, 14, 15, 17, 18, 19, 24, 25, 29]",147.7194704,58460,1972,45,79,10,2.0021319533763484
undo,14,27,1,0,0,1,"[0, 26, 27, 1]",4,20,"[6, 7, 8, 9, 10, 11, 12, 13, 14, 15, 16, 17, 18, 19, 21, 22, 23, 24, 25, 29]",195.761119,60483,2023,51,187,10,1.4322365552995941
undo,14,27,1,0,0,27,"[0, 26, 27]",3,21,"[1, 6, 7, 8, 9, 10, 11, 12, 13, 14, 15, 16, 17, 18, 19, 21, 22, 23, 24, 25, 29]",225.9935519,62528,2045,1,80,11,1.307240649445448
undo,14,27,0,0,0,18,"[0, 26, 27, 18]",4,18,"[1, 6, 7, 8, 10, 11, 12, 13, 14, 15, 16, 17, 19, 21, 22, 23, 24, 25]",188.5102223,64223,1695,5,32,10,1.1895669400933468
undo,14,27,0,0,0,1,"[0, 26, 27, 18, 1]",5,13,"[6, 7, 8, 10, 12, 13, 15, 16, 17, 19, 23, 24, 25]",144.4988601,65545,1322,5,23,10,2.136577204388219
undo,14,27,0,0,0,23,"[0, 26, 27, 18, 1, 23]",6,8,"[8, 10, 12, 13, 15, 17, 19, 24]",96.45721153,66470,925,8,13,9,2.676110476799327
undo,14,27,0,0,0,15,"[0, 26, 27, 18, 1, 23, 15]",7,3,"[12, 17, 24]",42.44795307,67726,1256,2,2,9,7.105053022028715
undo,14,27,0,0,0,24,"[0, 26, 27, 18, 1, 23, 15, 24]",8,2,"[12, 17]",25.24330253,68961,1235,2,0,9,5.813085399699478
undo,14,27,0,0,1,17,"[0, 26, 27, 18, 1, 23, 15, 24, 17]",9,0,[],8.690357175,69873,912,1,0,9,4.696099921274001
undo,14,27,0,1,1,17,"[0, 26, 27, 18, 1, 23, 15, 24, 17]",9,0,[],8.690357175,73559,3686,1,0,9,4.696099921274001
undo,15,14,0,0,0,0,[0],1,29,"[1, 2, 3, 4, 5, 6, 7, 8, 9, 10, 11, 12, 13, 14, 15, 16, 17, 18, 19, 20, 21, 22, 23, 24, 25, 26, 27, 28, 29]",300,1512,-1,8,157,10,0.0
undo,15,14,0,0,0,28,"[0, 28]",2,18,"[1, 2, 3, 4, 7, 8, 9, 13, 15, 17, 18, 19, 20, 22, 23, 25, 26, 27]",201.8725319,12216,10704,30,170,9,1.0
undo,15,14,0,0,0,17,"[0, 28, 17]",3,16,"[1, 2, 3, 4, 7, 8, 9, 13, 15, 18, 19, 20, 22, 23, 25, 26]",188.4189078,13331,1115,18,87,9,1.032450375957012
undo,15,14,0,0,0,15,"[0, 28, 17, 15]",4,13,"[1, 2, 3, 7, 8, 13, 18, 19, 20, 22, 23, 25, 26]",163.2395512,14445,1114,9,38,9,1.6418873981807083
undo,15,14,0,0,0,18,"[0, 28, 17, 15, 18]",5,7,"[1, 7, 8, 19, 23, 25, 26]",100.1760911,17508,3063,9,20,9,1.6637556348048597
undo,15,14,0,0,0,8,"[0, 28, 17, 15, 18, 8]",6,6,"[1, 7, 19, 23, 25, 26]",86.5746206,18344,836,9,7,9,1.6287743242041242
undo,15,14,0,0,0,1,"[0, 28, 17, 15, 18, 8, 1]",7,4,"[19, 23, 25, 26]",62.97377315,19473,1129,3,2,9,1.5329066107995903
undo,15,14,0,0,0,19,"[0, 28, 17, 15, 18, 8, 1, 19]",8,2,"[23, 25]",47.74222694,20310,837,2,0,9,1.7059638206817227
undo,15,14,0,0,1,23,"[0, 28, 17, 15, 18, 8, 1, 19, 23]",9,0,[],3.4703397,26968,6658,1,0,9,1.5775309311823842
undo,15,14,0,1,1,23,"[0, 28, 17, 15, 18, 8, 1, 19, 23]",9,0,[],3.4703397,28450,1482,1,0,9,1.5775309311823842
undo,16,15,0,0,0,0,[0],1,25,"[1, 2, 3, 4, 7, 8, 9, 10, 11, 12, 13, 14, 15, 16, 18, 20, 21, 22, 23, 24, 25, 26, 27, 28, 29]",300,1546,-1,4,65,9,0.0
undo,16,15,0,0,0,9,"[0, 9]",2,12,"[1, 3, 4, 7, 8, 11, 12, 16, 21, 24, 26, 27]",216.5613998,13339,11793,3,19,7,1.0
undo,16,15,0,0,0,21,"[0, 9, 21]",3,10,"[1, 3, 7, 8, 11, 12, 16, 24, 26, 27]",144.0010801,15917,2578,2,7,7,1.6406402305521621
undo,16,15,0,0,0,12,"[0, 9, 21, 12]",4,5,"[3, 7, 11, 16, 27]",100.1718661,17611,1694,2,4,7,2.3114264888651324
undo,16,15,0,0,0,7,"[0, 9, 21, 12, 7]",5,3,"[3, 11, 16]",66.93032581,18458,847,2,1,7,2.7480886530901762
undo,16,15,0,0,1,16,"[0, 9, 21, 12, 7, 16]",6,0,[],23.2725659,19316,858,1,0,6,2.4239855053906014
undo,16,15,1,0,0,7,"[0, 9, 21, 12, 7]",5,3,"[3, 11, 16]",66.93032581,23695,4379,2,1,7,2.7480886530901762
undo,16,15,1,0,0,12,"[0, 9, 21, 12]",4,5,"[3, 7, 11, 16, 27]",100.1718661,25702,2007,2,4,7,2.3114264888651324
undo,16,15,1,0,0,21,"[0, 9, 21]",3,10,"[1, 3, 7, 8, 11, 12, 16, 24, 26, 27]",144.0010801,27704,2002,2,7,7,1.6406402305521621
undo,16,15,1,0,0,9,"[0, 9]",2,12,"[1, 3, 4, 7, 8, 11, 12, 16, 21, 24, 26, 27]",216.5613998,28542,838,3,19,7,1.0
undo,16,15,1,0,0,0,[0],1,25,"[1, 2, 3, 4, 7, 8, 9, 10, 11, 12, 13, 14, 15, 16, 18, 20, 21, 22, 23, 24, 25, 26, 27, 28, 29]",300,29646,1104,4,65,9,0.0
undo,16,15,0,0,0,12,"[0, 12]",2,22,"[1, 2, 3, 4, 7, 8, 9, 10, 11, 13, 14, 15, 16, 18, 21, 22, 23, 24, 26, 27, 28, 29]",213.547701,42618,12972,4,35,9,1.0
undo,16,15,0,0,0,7,"[0, 12, 7]",3,16,"[1, 3, 4, 8, 9, 10, 11, 13, 14, 15, 16, 18, 21, 22, 24, 27]",180.3061607,44051,1433,4,29,9,1.411291635294361
undo,16,15,0,0,0,16,"[0, 12, 7, 16]",4,10,"[3, 4, 10, 11, 13, 14, 15, 18, 21, 22]",136.6484008,44932,881,2,11,9,1.4308733430458784
undo,16,15,0,0,0,11,"[0, 12, 7, 16, 11]",5,7,"[3, 4, 13, 14, 15, 21, 22]",110.6291772,45787,855,2,5,9,1.5251025438826007
undo,16,15,0,0,0,3,"[0, 12, 7, 16, 11, 3]",6,5,"[4, 13, 14, 15, 22]",99.22742292,48777,2990,2,3,9,1.5166583878170454
undo,16,15,0,0,0,22,"[0, 12, 7, 16, 11, 3, 22]",7,2,"[13, 15]",49.49815588,52708,3931,2,0,9,1.4519711389669923
undo,16,15,0,0,0,13,"[0, 12, 7, 16, 11, 3, 22, 13]",8,1,[15],21.3379002,54133,1425,1,0,9,1.390947894090134
undo,16,15,0,0,1,15,"[0, 12, 7, 16, 11, 3, 22, 13, 15]",9,0,[],6.073562677,56084,1951,1,0,9,1.4967248964735906
undo,16,15,0,1,1,15,"[0, 12, 7, 16, 11, 3, 22, 13, 15]",9,0,[],6.073562677,57242,1158,1,0,9,1.4967248964735906
undo,17,8,0,0,0,0,[0],1,29,"[1, 2, 3, 4, 5, 6, 7, 8, 9, 10, 11, 12, 13, 14, 15, 16, 17, 18, 19, 20, 21, 22, 23, 24, 25, 26, 27, 28, 29]",300,1467,-1,10,149,9,0.0
undo,17,8,0,0,0,5,"[0, 5]",2,28,"[1, 2, 3, 4, 6, 7, 8, 9, 10, 11, 12, 13, 14, 15, 16, 17, 18, 19, 20, 21, 22, 23, 24, 25, 26, 27, 28, 29]",254.5137383,22884,21417,10,100,9,1.0
undo,17,8,0,0,0,25,"[0, 5, 25]",3,20,"[1, 2, 3, 4, 6, 11, 12, 14, 15, 16, 17, 18, 19, 20, 21, 22, 23, 24, 28, 29]",215.3091468,30968,8084,4,42,9,1.2272747879909065
undo,17,8,0,0,0,14,"[0, 5, 25, 14]",4,16,"[1, 3, 4, 6, 11, 15, 16, 17, 18, 19, 20, 21, 22, 23, 24, 28]",170.2092576,32391,1423,1,13,9,1.5190857385933465
undo,17,8,0,0,0,17,"[0, 5, 25, 14, 17]",5,9,"[1, 4, 11, 15, 16, 18, 23, 24, 28]",133.1957466,33807,1416,1,9,9,1.5271682935559303
undo,17,8,0,0,0,11,"[0, 5, 25, 14, 17, 11]",6,5,"[15, 16, 18, 24, 28]",108.01639,36026,2219,1,6,9,1.4664212485560129
undo,17,8,0,0,0,24,"[0, 5, 25, 14, 17, 11, 24]",7,2,"[15, 16]",70.80080183,38586,2560,1,1,9,1.3920548417170795
undo,17,8,0,0,0,15,"[0, 5, 25, 14, 17, 11, 24, 15]",8,1,[16],54.03774722,39719,1133,1,0,9,1.4585932832823736
undo,17,8,0,0,1,16,"[0, 5, 25, 14, 17, 11, 24, 15, 16]",9,0,[],2.959376062,40863,1144,1,0,9,1.6043130175078746
undo,17,8,0,1,1,16,"[0, 5, 25, 14, 17, 11, 24, 15, 16]",9,0,[],2.959376062,50576,9713,1,0,9,1.6043130175078746
undo,18,36,0,0,0,0,[0],1,24,"[2, 4, 5, 6, 7, 8, 9, 10, 12, 13, 14, 15, 16, 17, 18, 19, 20, 22, 23, 25, 26, 27, 28, 29]",300,1465,-1,2,200,10,0.0
undo,18,36,0,0,0,18,"[0, 18]",2,21,"[2, 4, 5, 6, 7, 8, 9, 10, 12, 13, 14, 16, 17, 19, 22, 23, 25, 26, 27, 28, 29]",279.6039219,18189,16724,2,110,10,1.0
undo,18,36,0,0,0,12,"[0, 18, 12]",3,19,"[2, 4, 5, 6, 7, 8, 9, 10, 13, 16, 17, 19, 22, 23, 25, 26, 27, 28, 29]",237.0245842,19297,1108,2,86,10,2.836270082716982
undo,18,36,0,0,0,16,"[0, 18, 12, 16]",4,6,"[2, 9, 13, 17, 19, 25]",130.8549087,22057,2760,15,25,8,1.5846755239984103
undo,18,36,0,0,0,9,"[0, 18, 12, 16, 9]",5,5,"[2, 13, 17, 19, 25]",83.55797435,29114,7057,2,6,8,3.133880270325743
undo,18,36,1,0,0,16,"[0, 18, 12, 16]",4,6,"[2, 9, 13, 17, 19, 25]",130.8549087,33808,4694,15,25,8,1.5846755239984103
undo,18,36,0,0,0,17,"[0, 18, 12, 16, 17]",5,5,"[2, 9, 13, 19, 25]",102.5353042,36028,2220,13,6,8,2.0892518409834624
undo,18,36,0,0,0,9,"[0, 18, 12, 16, 17, 9]",6,4,"[2, 13, 19, 25]",76.2864947,36871,843,4,2,8,3.23916456778496
undo,18,36,0,0,0,19,"[0, 18, 12, 16, 17, 9, 19]",7,3,"[2, 13, 25]",61.15374875,40467,3596,3,0,8,3.0987650790834835
undo,18,36,0,0,1,13,"[0, 18, 12, 16, 17, 9, 19, 13]",8,0,[],17.73716206,44330,3863,1,0,8,2.8778368392566693
undo,18,36,0,1,1,13,"[0, 18, 12, 16, 17, 9, 19, 13]",8,0,[],17.73716206,48274,3944,1,0,8,2.8778368392566693
undo,19,17,0,0,0,0,[0],1,28,"[1, 2, 3, 4, 5, 6, 7, 8, 9, 10, 11, 12, 13, 14, 15, 16, 17, 18, 19, 20, 22, 23, 24, 25, 26, 27, 28, 29]",300,1576,-1,2,73,8,0.0
undo,19,17,0,0,0,9,"[0, 9]",2,25,"[1, 2, 3, 5, 6, 7, 8, 10, 11, 12, 14, 15, 16, 17, 18, 19, 20, 22, 23, 24, 25, 26, 27, 28, 29]",210.5293344,15281,13705,1,34,8,1.0
undo,19,17,0,0,0,16,"[0, 9, 16]",3,21,"[1, 2, 3, 5, 7, 8, 10, 11, 12, 14, 17, 18, 19, 20, 22, 23, 25, 26, 27, 28, 29]",197.1876704,16967,1686,1,26,8,1.173103464220352
undo,19,17,0,0,0,2,"[0, 9, 16, 2]",4,18,"[1, 3, 5, 7, 8, 10, 11, 12, 14, 17, 18, 19, 23, 25, 26, 27, 28, 29]",181.0631549,18643,1676,1,23,8,1.14825089247282
undo,19,17,0,0,0,17,"[0, 9, 16, 2, 17]",5,7,"[7, 8, 12, 14, 26, 27, 29]",142.7356191,20036,1393,4,5,7,1.4896040699768547
undo,19,17,0,0,0,8,"[0, 9, 16, 2, 17, 8]",6,3,"[7, 12, 27]",104.5256727,21192,1156,3,0,7,1.4604726966175894
undo,19,17,0,0,1,27,"[0, 9, 16, 2, 17, 8, 27]",7,0,[],21.88790895,26871,5679,1,0,7,1.2949460667276491
undo,19,17,1,0,0,8,"[0, 9, 16, 2, 17, 8]",6,3,"[7, 12, 27]",104.5256727,35056,8185,3,0,7,1.4604726966175894
undo,19,17,1,0,0,17,"[0, 9, 16, 2, 17]",5,7,"[7, 8, 12, 14, 26, 27, 29]",142.7356191,45159,10103,4,5,7,1.4896040699768547
undo,19,17,1,0,0,2,"[0, 9, 16, 2]",4,18,"[1, 3, 5, 7, 8, 10, 11, 12, 14, 17, 18, 19, 23, 25, 26, 27, 28, 29]",181.0631549,47629,2470,1,23,8,1.14825089247282
undo,19,17,1,0,0,16,"[0, 9, 16]",3,21,"[1, 2, 3, 5, 7, 8, 10, 11, 12, 14, 17, 18, 19, 20, 22, 23, 25, 26, 27, 28, 29]",197.1876704,63651,16022,1,26,8,1.173103464220352
undo,19,17,0,0,0,10,"[0, 9, 16, 10]",4,6,"[3, 5, 7, 11, 23, 28]",81.1316494,71022,7371,6,4,6,1.2072842629718323
undo,19,17,0,0,0,11,"[0, 9, 16, 10, 11]",5,3,"[3, 23, 28]",59.177151,72727,1705,3,0,6,1.1873138837900705
undo,19,17,0,0,1,3,"[0, 9, 16, 10, 11, 3]",6,0,[],33.00464634,73823,1096,1,0,6,1.4094420633017635
undo,19,17,1,0,0,11,"[0, 9, 16, 10, 11]",5,3,"[3, 23, 28]",59.177151,79948,6125,3,0,6,1.1873138837900705
undo,19,17,1,0,0,10,"[0, 9, 16, 10]",4,6,"[3, 5, 7, 11, 23, 28]",81.1316494,80803,855,6,4,6,1.2072842629718323
undo,19,17,1,0,0,16,"[0, 9, 16]",3,21,"[1, 2, 3, 5, 7, 8, 10, 11, 12, 14, 17, 18, 19, 20, 22, 23, 25, 26, 27, 28, 29]",197.1876704,81659,856,1,26,8,1.173103464220352
undo,19,17,0,0,0,2,"[0, 9, 16, 2]",4,18,"[1, 3, 5, 7, 8, 10, 11, 12, 14, 17, 18, 19, 23, 25, 26, 27, 28, 29]",181.0631549,83903,2244,1,23,8,1.14825089247282
undo,19,17,0,0,0,17,"[0, 9, 16, 2, 17]",5,7,"[7, 8, 12, 14, 26, 27, 29]",142.7356191,85059,1156,4,5,7,1.4896040699768547
undo,19,17,0,0,0,8,"[0, 9, 16, 2, 17, 8]",6,3,"[7, 12, 27]",104.5256727,86215,1156,3,0,7,1.4604726966175894
undo,19,17,0,0,1,27,"[0, 9, 16, 2, 17, 8, 27]",7,0,[],21.88790895,91117,4902,1,0,7,1.2949460667276491
undo,19,17,1,0,0,8,"[0, 9, 16, 2, 17, 8]",6,3,"[7, 12, 27]",104.5256727,94165,3048,3,0,7,1.4604726966175894
undo,19,17,0,0,1,7,"[0, 9, 16, 2, 17, 8, 7]",7,0,[],33.81499459,95315,1150,1,0,7,1.4474701869793896
undo,19,17,0,1,1,7,"[0, 9, 16, 2, 17, 8, 7]",7,0,[],33.81499459,98862,3547,1,0,7,1.4474701869793896
undo,20,33,0,0,0,0,[0],1,23,"[1, 2, 5, 7, 8, 11, 12, 13, 14, 15, 16, 17, 18, 19, 20, 21, 23, 24, 25, 26, 27, 28, 29]",300,1476,-1,5,108,9,0.0
undo,20,33,0,0,0,8,"[0, 8]",2,22,"[1, 2, 5, 7, 11, 12, 13, 14, 15, 16, 17, 18, 19, 20, 21, 23, 24, 25, 26, 27, 28, 29]",265.8679037,5287,3811,5,87,9,1.0
undo,20,33,0,0,0,21,"[0, 8, 21]",3,16,"[2, 5, 7, 11, 13, 14, 16, 17, 18, 19, 20, 24, 26, 27, 28, 29]",166.0430571,7300,2013,5,80,9,1.0670557763739492
undo,20,33,0,0,0,17,"[0, 8, 21, 17]",4,11,"[2, 7, 11, 13, 14, 16, 19, 20, 24, 26, 29]",127.4036989,9017,1717,1,18,9,1.0830294710276618
undo,20,33,0,0,0,13,"[0, 8, 21, 17, 13]",5,10,"[2, 7, 11, 14, 16, 19, 20, 24, 26, 29]",104.6001904,10150,1133,1,10,9,1.2861654105061844
undo,20,33,0,0,0,19,"[0, 8, 21, 17, 13, 19]",6,6,"[7, 14, 16, 24, 26, 29]",79.10509282,11252,1102,1,6,9,1.3181942666818214
undo,20,33,0,0,0,24,"[0, 8, 21, 17, 13, 19, 24]",7,1,[7],37.05750074,12662,1410,1,0,8,1.2914654832859356
undo,20,33,1,0,0,19,"[0, 8, 21, 17, 13, 19]",6,6,"[7, 14, 16, 24, 26, 29]",79.10509282,17774,5112,1,6,9,1.3181942666818214
undo,20,33,0,0,0,7,"[0, 8, 21, 17, 13, 19, 7]",7,3,"[14, 24, 26]",33.48711391,19450,1676,1,2,9,1.25064167844248
undo,20,33,0,0,0,14,"[0, 8, 21, 17, 13, 19, 7, 14]",8,1,[26],18.62104516,20302,852,1,0,9,1.297007778404226
undo,20,33,0,0,1,26,"[0, 8, 21, 17, 13, 19, 7, 14, 26]",9,0,[],5.971934519,21167,865,1,0,9,1.2996231319325615
undo,20,33,0,1,1,26,"[0, 8, 21, 17, 13, 19, 7, 14, 26]",9,0,[],5.971934519,30119,8952,1,0,9,1.2996231319325615
undo,21,22,0,0,0,0,[0],1,29,"[1, 2, 3, 4, 5, 6, 7, 8, 9, 10, 11, 12, 13, 14, 15, 16, 17, 18, 19, 20, 21, 22, 23, 24, 25, 26, 27, 28, 29]",300,1495,-1,31,704,9,0.0
undo,21,22,0,0,0,29,"[0, 29]",2,22,"[1, 3, 5, 6, 7, 8, 9, 11, 13, 14, 15, 16, 17, 19, 20, 21, 22, 23, 24, 25, 27, 28]",222.9935068,10562,9067,11,235,9,1.0
undo,21,22,0,0,0,7,"[0, 29, 7]",3,15,"[1, 3, 6, 8, 9, 13, 14, 15, 16, 17, 19, 20, 21, 24, 28]",171.9151356,13066,2504,14,108,8,1.0184407206340897
undo,21,22,0,0,0,14,"[0, 29, 7, 14]",4,13,"[1, 3, 6, 9, 13, 15, 16, 17, 19, 20, 21, 24, 28]",158.8767308,13899,833,12,54,8,1.089405867112304
undo,21,22,0,0,0,19,"[0, 29, 7, 14, 19]",5,9,"[6, 9, 13, 16, 17, 20, 21, 24, 28]",108.5478127,15416,1517,4,9,8,2.404449740035903
undo,21,22,0,0,0,9,"[0, 29, 7, 14, 19, 9]",6,4,"[6, 16, 17, 28]",88.15173462,16526,1110,3,2,8,2.365580481726536
undo,21,22,0,0,0,6,"[0, 29, 7, 14, 19, 9, 6]",7,2,"[16, 28]",61.52468071,17640,1114,2,0,8,2.6910739994288657
undo,21,22,0,0,1,28,"[0, 29, 7, 14, 19, 9, 6, 28]",8,0,[],31.52468071,18781,1141,1,0,8,2.427380616809548
undo,21,22,1,0,0,6,"[0, 29, 7, 14, 19, 9, 6]",7,2,"[16, 28]",61.52468071,21602,2821,2,0,8,2.6910739994288657
undo,21,22,0,0,1,16,"[0, 29, 7, 14, 19, 9, 6, 16]",8,0,[],27.08632999,24988,3386,1,0,8,3.352990696087507
undo,21,22,1,0,0,6,"[0, 29, 7, 14, 19, 9, 6]",7,2,"[16, 28]",61.52468071,62506,37518,2,0,8,2.6910739994288657
undo,21,22,1,0,0,9,"[0, 29, 7, 14, 19, 9]",6,4,"[6, 16, 17, 28]",88.15173462,63626,1120,3,2,8,2.365580481726536
undo,21,22,1,0,0,19,"[0, 29, 7, 14, 19]",5,9,"[6, 9, 13, 16, 17, 20, 21, 24, 28]",108.5478127,64179,553,4,9,8,2.404449740035903
undo,21,22,1,0,0,14,"[0, 29, 7, 14]",4,13,"[1, 3, 6, 9, 13, 15, 16, 17, 19, 20, 21, 24, 28]",158.8767308,66695,2516,12,54,8,1.089405867112304
undo,21,22,1,0,0,7,"[0, 29, 7]",3,15,"[1, 3, 6, 8, 9, 13, 14, 15, 16, 17, 19, 20, 21, 24, 28]",171.9151356,67529,834,14,108,8,1.0184407206340897
undo,21,22,1,0,0,29,"[0, 29]",2,22,"[1, 3, 5, 6, 7, 8, 9, 11, 13, 14, 15, 16, 17, 19, 20, 21, 22, 23, 24, 25, 27, 28]",222.9935068,68375,846,11,235,9,1.0
undo,21,22,0,0,0,19,"[0, 29, 19]",3,18,"[1, 3, 6, 7, 8, 9, 13, 14, 15, 16, 17, 20, 21, 22, 23, 24, 25, 28]",207.9602104,70045,1670,11,172,9,1.1559285443414686
undo,21,22,0,0,0,9,"[0, 29, 19, 9]",4,16,"[1, 3, 6, 7, 8, 13, 14, 15, 16, 17, 20, 21, 22, 24, 25, 28]",187.5641323,75022,4977,7,84,9,1.2555028175473422
undo,21,22,0,0,0,16,"[0, 29, 19, 9, 16]",5,6,"[6, 7, 14, 22, 25, 28]",128.5302438,76717,1695,4,4,8,2.1066606783673625
undo,21,22,0,0,0,28,"[0, 29, 19, 9, 16, 28]",6,3,"[6, 7, 14]",94.09189305,77560,843,2,1,8,1.8616882511814346
undo,21,22,0,0,0,6,"[0, 29, 19, 9, 16, 28, 6]",7,1,[14],64.09189305,78679,1119,1,0,8,2.662104299756147
undo,21,22,0,0,1,14,"[0, 29, 19, 9, 16, 28, 6, 14]",8,0,[],1.322473741,82046,3367,1,0,8,2.305651302762931
undo,21,22,0,1,1,14,"[0, 29, 19, 9, 16, 28, 6, 14]",8,0,[],1.322473741,83508,1462,1,0,8,2.305651302762931
undo,22,1,0,0,0,0,[0],1,26,"[1, 2, 4, 5, 7, 8, 9, 10, 11, 12, 13, 14, 15, 16, 17, 18, 19, 20, 21, 22, 23, 24, 25, 26, 28, 29]",300,1546,-1,6,74,7,0.0
undo,22,1,0,0,0,14,"[0, 14]",2,19,"[1, 4, 5, 8, 9, 13, 15, 17, 18, 19, 20, 21, 22, 23, 24, 25, 26, 28, 29]",200.1901808,26612,25066,5,42,7,1.0
undo,22,1,0,0,0,17,"[0, 14, 17]",3,15,"[1, 4, 5, 8, 9, 13, 15, 18, 19, 20, 22, 23, 25, 28, 29]",147.8356204,30357,3745,5,27,7,1.0028844724416826
undo,22,1,0,0,0,1,"[0, 14, 17, 1]",4,12,"[4, 5, 8, 9, 15, 18, 20, 22, 23, 25, 28, 29]",123.4840291,31988,1631,5,15,7,1.0264985578353567
undo,22,1,0,0,0,28,"[0, 14, 17, 1, 28]",5,5,"[9, 15, 22, 23, 29]",88.59850198,33094,1106,5,3,7,1.0339861575999345
undo,22,1,0,0,0,23,"[0, 14, 17, 1, 28, 23]",6,2,"[15, 22]",51.70676849,33931,837,2,0,7,1.0327458250705703
undo,22,1,0,0,1,15,"[0, 14, 17, 1, 28, 23, 15]",7,0,[],20.81987807,35310,1379,1,0,7,1.1948681641401226
undo,22,1,0,1,1,15,"[0, 14, 17, 1, 28, 23, 15]",7,0,[],20.81987807,36444,1134,1,0,7,1.1948681641401226
basic,23,7,0,0,0,0,[0],1,29,"[1, 2, 3, 4, 5, 6, 7, 8, 9, 10, 11, 12, 13, 14, 15, 16, 17, 18, 19, 20, 21, 22, 23, 24, 25, 26, 27, 28, 29]",300,1401,-1,3,79,9,0.0
basic,23,7,0,0,0,13,"[0, 13]",2,9,"[4, 6, 7, 15, 18, 19, 20, 21, 25]",133.7922986,34401,33000,9,19,6,1.0
basic,23,7,0,0,0,4,"[0, 13, 4]",3,4,"[7, 18, 20, 25]",80.4537572,36956,2555,6,3,6,1.5634088063331057
basic,23,7,0,0,0,25,"[0, 13, 4, 25]",4,2,"[18, 20]",55.71512345,41279,4323,2,0,6,2.063110903103761
basic,23,7,0,0,0,18,"[0, 13, 4, 25, 18]",5,1,[20],27.39551893,42332,1053,1,0,6,1.9040451659358042
basic,23,7,0,0,1,20,"[0, 13, 4, 25, 18, 20]",6,0,[],14.58927046,43840,1508,1,0,6,1.9038385104774034
basic,23,7,0,1,1,20,"[0, 13, 4, 25, 18, 20]",6,0,[],14.58927046,45121,1281,1,0,6,1.9038385104774034
basic,24,38,0,0,0,0,[0],1,29,"[1, 2, 3, 4, 5, 6, 7, 8, 9, 10, 11, 12, 13, 14, 15, 16, 17, 18, 19, 20, 21, 22, 23, 24, 25, 26, 27, 28, 29]",300,1703,-1,33,506,9,0.0
basic,24,38,0,0,0,19,"[0, 19]",2,23,"[3, 4, 5, 6, 7, 8, 9, 11, 13, 14, 15, 16, 17, 18, 20, 22, 23, 24, 25, 26, 27, 28, 29]",219.5015528,5111,3408,6,61,9,1.0
basic,24,38,0,0,0,17,"[0, 19, 17]",3,21,"[3, 4, 5, 6, 7, 9, 11, 13, 14, 15, 16, 18, 20, 22, 23, 24, 25, 26, 27, 28, 29]",198.1239945,7973,2862,6,53,9,1.571793785769489
basic,24,38,0,0,0,20,"[0, 19, 17, 20]",4,17,"[3, 4, 5, 6, 7, 11, 13, 14, 15, 16, 18, 22, 24, 25, 26, 27, 28]",174.3542658,9096,1123,6,44,9,2.333182710277297
basic,24,38,0,0,0,15,"[0, 19, 17, 20, 15]",5,9,"[4, 5, 11, 13, 14, 16, 24, 26, 28]",118.8925673,25080,15984,10,14,8,2.468219326855957
basic,24,38,0,0,0,4,"[0, 19, 17, 20, 15, 4]",6,6,"[11, 13, 16, 24, 26, 28]",92.89256734,26181,1101,4,3,8,2.953858913055544
basic,24,38,0,0,0,13,"[0, 19, 17, 20, 15, 4, 13]",7,1,[26],61.4919304,27276,1095,1,0,8,2.4401159229489866
basic,24,38,0,0,1,26,"[0, 19, 17, 20, 15, 4, 13, 26]",8,0,[],30.44358101,28107,831,1,0,8,2.1410906006451786
basic,24,38,0,1,1,26,"[0, 19, 17, 20, 15, 4, 13, 26]",8,0,[],30.44358101,36947,8840,1,0,8,2.1410906006451786
basic,25,24,0,0,0,0,[0],1,29,"[1, 2, 3, 4, 5, 6, 7, 8, 9, 10, 11, 12, 13, 14, 15, 16, 17, 18, 19, 20, 21, 22, 23, 24, 25, 26, 27, 28, 29]",300,1482,-1,4,76,10,0.0
basic,25,24,0,0,0,14,"[0, 14]",2,27,"[1, 2, 3, 4, 5, 6, 8, 9, 10, 11, 12, 13, 15, 16, 17, 18, 19, 20, 21, 22, 23, 24, 25, 26, 27, 28, 29]",278.0455016,10150,8668,4,54,10,1.0
basic,25,24,0,0,0,8,"[0, 14, 8]",3,21,"[1, 2, 3, 4, 6, 9, 10, 11, 13, 15, 16, 17, 20, 22, 23, 24, 25, 26, 27, 28, 29]",173.561053,12678,2528,4,39,9,1.1482593664574312
basic,25,24,0,0,0,22,"[0, 14, 8, 22]",4,17,"[2, 3, 4, 6, 9, 10, 11, 13, 15, 16, 17, 23, 24, 26, 27, 28, 29]",160.1446451,14073,1395,3,23,9,1.3271494096498668
basic,25,24,0,0,0,16,"[0, 14, 8, 22, 16]",5,15,"[2, 3, 4, 6, 9, 10, 11, 15, 17, 23, 24, 26, 27, 28, 29]",142.1168888,15189,1116,1,6,9,1.7612285296272225
basic,25,24,0,0,0,15,"[0, 14, 8, 22, 16, 15]",6,9,"[3, 4, 6, 9, 11, 23, 26, 28, 29]",111.7030761,16883,1694,1,4,9,1.5741227058195353
basic,25,24,0,0,0,28,"[0, 14, 8, 22, 16, 15, 28]",7,2,"[11, 23]",66.42615041,18308,1425,1,1,9,1.4188339129092542
basic,25,24,0,0,0,23,"[0, 14, 8, 22, 16, 15, 28, 23]",8,1,[11],47.39985282,19695,1387,1,0,9,1.4337246342886751
basic,25,24,0,0,1,11,"[0, 14, 8, 22, 16, 15, 28, 23, 11]",9,0,[],20.47402879,23308,3613,1,0,9,1.3916240416785086
basic,25,24,0,1,1,11,"[0, 14, 8, 22, 16, 15, 28, 23, 11]",9,0,[],20.47402879,27883,4575,1,0,9,1.3916240416785086
basic,26,4,0,0,0,0,[0],1,26,"[3, 4, 5, 6, 7, 8, 10, 11, 12, 13, 14, 15, 16, 17, 18, 19, 20, 21, 22, 23, 24, 25, 26, 27, 28, 29]",300,1583,-1,4,489,10,0.0
basic,26,4,0,0,0,13,"[0, 13]",2,23,"[3, 4, 5, 6, 7, 10, 11, 12, 14, 15, 16, 17, 19, 20, 21, 22, 23, 24, 25, 26, 27, 28, 29]",232.1030192,9477,7894,2,270,10,1.0
basic,26,4,0,0,0,28,"[0, 13, 28]",3,19,"[3, 4, 5, 6, 10, 11, 12, 14, 15, 16, 17, 19, 20, 21, 22, 23, 24, 25, 26]",200.5277124,10425,948,2,221,10,1.3431168257921573
basic,26,4,0,0,0,14,"[0, 13, 28, 14]",4,11,"[3, 4, 5, 6, 11, 16, 17, 20, 21, 22, 25]",134.2857318,11587,1162,28,123,9,1.2134786195381546
basic,26,4,0,0,0,25,"[0, 13, 28, 14, 25]",5,10,"[3, 4, 5, 6, 11, 16, 17, 20, 21, 22]",118.1612163,16042,4455,22,51,9,1.4339367384350254
basic,26,4,0,0,0,11,"[0, 13, 28, 14, 25, 11]",6,9,"[3, 4, 5, 6, 16, 17, 20, 21, 22]",99.37292203,17703,1661,11,18,9,1.632788140935394
basic,26,4,0,0,0,16,"[0, 13, 28, 14, 25, 11, 16]",7,6,"[3, 5, 17, 20, 21, 22]",84.37292203,19967,2264,9,2,9,1.5642820747024264
basic,26,4,0,0,0,17,"[0, 13, 28, 14, 25, 11, 16, 17]",8,4,"[3, 20, 21, 22]",58.29611241,23592,3625,4,0,9,1.4745445015567764
basic,26,4,0,0,1,21,"[0, 13, 28, 14, 25, 11, 16, 17, 21]",9,0,[],9.041670989,33793,10201,1,0,9,1.968587709550512
basic,26,4,0,1,1,21,"[0, 13, 28, 14, 25, 11, 16, 17, 21]",9,0,[],9.041670989,36048,2255,1,0,9,1.968587709550512
basic,27,26,0,0,0,0,[0],1,29,"[1, 2, 3, 4, 5, 6, 7, 8, 9, 10, 11, 12, 13, 14, 15, 16, 17, 18, 19, 20, 21, 22, 23, 24, 25, 26, 27, 28, 29]",300,1525,-1,9,226,9,0.0
basic,27,26,0,0,0,12,"[0, 12]",2,26,"[1, 2, 3, 4, 5, 6, 8, 10, 11, 13, 14, 15, 16, 17, 18, 19, 20, 21, 22, 23, 24, 25, 26, 27, 28, 29]",279.8753882,7880,6355,2,80,9,1.0
basic,27,26,0,0,0,16,"[0, 12, 16]",3,12,"[4, 5, 6, 10, 11, 13, 14, 17, 21, 23, 26, 29]",152.8281529,12170,4290,1,35,9,1.3146633244997343
basic,27,26,0,0,0,29,"[0, 12, 16, 29]",4,9,"[4, 5, 6, 10, 13, 14, 17, 21, 23]",128.620716,13999,1829,1,28,9,1.4025825138871748
basic,27,26,0,0,0,4,"[0, 12, 16, 29, 4]",5,6,"[6, 10, 14, 17, 21, 23]",104.620716,17364,3365,1,12,9,1.6120095703050636
basic,27,26,0,0,0,17,"[0, 12, 16, 29, 4, 17]",6,3,"[6, 10, 14]",83.52569291,18767,1403,1,4,9,1.5235227867063668
basic,27,26,0,0,0,14,"[0, 12, 16, 29, 4, 17, 14]",7,2,"[6, 10]",61.05348785,19627,860,1,1,9,1.4827390340429785
basic,27,26,0,0,0,6,"[0, 12, 16, 29, 4, 17, 14, 6]",8,1,[10],40.02969181,21039,1412,1,0,9,1.6186299234650392
basic,27,26,0,0,1,10,"[0, 12, 16, 29, 4, 17, 14, 6, 10]",9,0,[],10.75512948,22455,1416,1,0,9,1.7874725321428664
basic,27,26,0,1,1,10,"[0, 12, 16, 29, 4, 17, 14, 6, 10]",9,0,[],10.75512948,23593,1138,1,0,9,1.7874725321428664
basic,28,8,0,0,0,0,[0],1,29,"[1, 2, 3, 4, 5, 6, 7, 8, 9, 10, 11, 12, 13, 14, 15, 16, 17, 18, 19, 20, 21, 22, 23, 24, 25, 26, 27, 28, 29]",300,1549,-1,10,149,9,0.0
basic,28,8,0,0,0,5,"[0, 5]",2,28,"[1, 2, 3, 4, 6, 7, 8, 9, 10, 11, 12, 13, 14, 15, 16, 17, 18, 19, 20, 21, 22, 23, 24, 25, 26, 27, 28, 29]",254.5137383,24884,23335,10,100,9,1.0
basic,28,8,0,0,0,14,"[0, 5, 14]",3,20,"[1, 2, 3, 4, 6, 7, 11, 15, 16, 17, 18, 19, 20, 21, 22, 23, 24, 25, 28, 29]",214.5512559,26275,1391,4,36,9,1.0001019035932595
basic,28,8,0,0,0,17,"[0, 5, 14, 17]",4,15,"[1, 4, 6, 7, 11, 15, 16, 18, 19, 20, 22, 23, 24, 25, 28]",177.5377449,27447,1172,4,16,9,1.121197267659591
basic,28,8,0,0,0,11,"[0, 5, 14, 17, 11]",5,11,"[1, 4, 15, 16, 18, 19, 22, 23, 24, 25, 28]",152.3583883,28519,1072,4,8,9,1.1277254166016362
basic,28,8,0,0,0,24,"[0, 5, 14, 17, 11, 24]",6,3,"[15, 16, 28]",115.1428001,29324,805,2,2,9,1.1227411011978805
basic,28,8,0,0,0,15,"[0, 5, 14, 17, 11, 24, 15]",7,2,"[16, 28]",98.37974552,30183,859,2,0,9,1.1956385406066814
basic,28,8,0,0,0,16,"[0, 5, 14, 17, 11, 24, 15, 16]",8,1,[28],47.30137436,34573,4390,1,0,9,1.36482239111247
basic,28,8,0,0,1,28,"[0, 5, 14, 17, 11, 24, 15, 16, 28]",9,0,[],24.94069458,35705,1132,1,0,9,1.632953105226947
basic,28,8,0,1,1,28,"[0, 5, 14, 17, 11, 24, 15, 16, 28]",9,0,[],24.94069458,37110,1405,1,0,9,1.632953105226947
basic,29,25,0,0,0,0,[0],1,28,"[1, 2, 3, 4, 5, 7, 8, 9, 10, 11, 12, 13, 14, 15, 16, 17, 18, 19, 20, 21, 22, 23, 24, 25, 26, 27, 28, 29]",300,1525,-1,5,94,10,0.0
basic,29,25,0,0,0,23,"[0, 23]",2,23,"[1, 2, 3, 5, 7, 8, 9, 11, 12, 13, 14, 16, 17, 19, 20, 21, 22, 24, 25, 26, 27, 28, 29]",259.7756293,22242,20717,3,33,10,1.0
basic,29,25,0,0,0,19,"[0, 23, 19]",3,21,"[1, 2, 3, 5, 7, 8, 9, 11, 12, 13, 14, 16, 17, 20, 21, 22, 24, 25, 27, 28, 29]",223.9287326,23392,1150,3,24,10,1.583101227007039
basic,29,25,0,0,0,29,"[0, 23, 19, 29]",4,19,"[1, 2, 3, 5, 7, 8, 9, 11, 12, 13, 14, 16, 17, 20, 21, 22, 24, 25, 28]",207.649912,24813,1421,3,17,10,1.474631541426484
basic,29,25,0,0,0,22,"[0, 23, 19, 29, 22]",5,18,"[1, 2, 3, 5, 7, 8, 9, 11, 12, 13, 14, 16, 17, 20, 21, 24, 25, 28]",191.5253965,25368,555,3,14,10,1.4020377754906637
basic,29,25,0,0,0,7,"[0, 23, 19, 29, 22, 7]",6,7,"[3, 8, 9, 11, 13, 24, 28]",115.8814939,27896,2528,3,11,10,1.5709678649326715
basic,29,25,0,0,0,24,"[0, 23, 19, 29, 22, 7, 24]",7,5,"[3, 8, 9, 13, 28]",91.12265712,34916,7020,3,7,10,1.486191600033379
basic,29,25,0,0,0,9,"[0, 23, 19, 29, 22, 7, 24, 9]",8,4,"[3, 8, 13, 28]",73.09490075,36075,1159,3,3,10,1.453504870342882
basic,29,25,0,0,0,3,"[0, 23, 19, 29, 22, 7, 24, 9, 3]",9,3,"[8, 13, 28]",42.82940885,43699,7624,3,0,10,1.388955167525479
basic,29,25,0,0,1,28,"[0, 23, 19, 29, 22, 7, 24, 9, 3, 28]",10,0,[],11.52445716,44565,866,1,0,10,1.3331084120212044
basic,29,25,0,1,1,28,"[0, 23, 19, 29, 22, 7, 24, 9, 3, 28]",10,0,[],11.52445716,45987,1422,1,0,10,1.3331084120212044
basic,30,33,0,0,0,0,[0],1,23,"[1, 2, 5, 7, 8, 11, 12, 13, 14, 15, 16, 17, 18, 19, 20, 21, 23, 24, 25, 26, 27, 28, 29]",300,1550,-1,5,108,9,0.0
basic,30,33,0,0,0,8,"[0, 8]",2,22,"[1, 2, 5, 7, 11, 12, 13, 14, 15, 16, 17, 18, 19, 20, 21, 23, 24, 25, 26, 27, 28, 29]",265.8679037,16710,15160,5,87,9,1.0
basic,30,33,0,0,0,21,"[0, 8, 21]",3,16,"[2, 5, 7, 11, 13, 14, 16, 17, 18, 19, 20, 24, 26, 27, 28, 29]",166.0430571,20043,3333,5,80,9,1.0670557763739492
basic,30,33,0,0,0,13,"[0, 8, 21, 13]",4,12,"[2, 7, 11, 14, 16, 17, 18, 19, 20, 24, 26, 29]",139.6422995,30787,10744,4,54,9,1.0555103820910288
basic,30,33,0,0,0,19,"[0, 8, 21, 13, 19]",5,10,"[7, 11, 14, 16, 17, 18, 20, 24, 26, 29]",114.1472019,32175,1388,3,19,9,1.1090798607799486
basic,30,33,0,0,0,24,"[0, 8, 21, 13, 19, 24]",6,6,"[7, 14, 16, 18, 26, 29]",72.09960985,33302,1127,2,3,9,1.1193530461391534
basic,30,33,0,0,0,7,"[0, 8, 21, 13, 19, 24, 7]",7,2,"[14, 26]",42.89344611,34978,1676,2,0,9,1.2065014071663551
basic,30,33,0,0,0,14,"[0, 8, 21, 13, 19, 24, 7, 14]",8,1,[26],28.02737737,35809,831,1,0,9,1.2536495746979057
basic,30,33,0,0,1,26,"[0, 8, 21, 13, 19, 24, 7, 14, 26]",9,0,[],15.37826672,39980,4171,1,0,9,1.2580465331304596
basic,30,33,0,1,1,26,"[0, 8, 21, 13, 19, 24, 7, 14, 26]",9,0,[],15.37826672,41408,1428,1,0,9,1.2580465331304596
basic,31,34,0,0,0,0,[0],1,25,"[1, 3, 4, 5, 6, 7, 8, 9, 10, 11, 12, 13, 15, 18, 19, 20, 21, 22, 23, 24, 25, 26, 27, 28, 29]",300,1497,-1,12,367,10,0.0
basic,31,34,0,0,0,13,"[0, 13]",2,24,"[1, 3, 4, 5, 6, 7, 8, 9, 10, 11, 12, 15, 18, 19, 20, 21, 22, 23, 24, 25, 26, 27, 28, 29]",279.9750156,14906,13409,12,331,10,1.0
basic,31,34,0,0,0,1,"[0, 13, 1]",3,16,"[3, 5, 7, 8, 9, 10, 11, 12, 19, 21, 22, 23, 24, 25, 27, 29]",211.8574701,16620,1714,3,92,10,1.0010381285747127
basic,31,34,0,0,0,8,"[0, 13, 1, 8]",4,14,"[3, 5, 7, 9, 10, 11, 12, 19, 22, 23, 24, 25, 27, 29]",201.0871405,17729,1109,2,54,10,1.1636807
basic,31,34,0,0,0,25,"[0, 13, 1, 8, 25]",5,12,"[3, 5, 7, 9, 10, 11, 12, 22, 23, 24, 27, 29]",183.999133,19138,1409,2,28,10,1.1396208815936457
basic,31,34,0,0,0,24,"[0, 13, 1, 8, 25, 24]",6,11,"[3, 5, 7, 9, 10, 11, 12, 22, 23, 27, 29]",166.5062774,19967,829,2,23,10,1.374180768736554
basic,31,34,0,0,0,12,"[0, 13, 1, 8, 25, 24, 12]",7,7,"[7, 9, 10, 11, 22, 23, 27]",115.4670767,23041,3074,1,8,10,1.4994254760835948
basic,31,34,0,0,0,7,"[0, 13, 1, 8, 25, 24, 12, 7]",8,5,"[9, 11, 22, 23, 27]",100.4337804,24428,1387,1,4,10,1.758992610425009
basic,31,34,0,0,0,23,"[0, 13, 1, 8, 25, 24, 12, 7, 23]",9,1,[27],72.27352467,25552,1124,1,0,10,2.399781305190153
basic,31,34,0,0,1,27,"[0, 13, 1, 8, 25, 24, 12, 7, 23, 27]",10,0,[],18.60789321,28616,3064,1,0,10,4.766619878750327
basic,31,34,0,1,1,27,"[0, 13, 1, 8, 25, 24, 12, 7, 23, 27]",10,0,[],18.60789321,30320,1704,1,0,10,4.766619878750327
basic,32,21,0,0,0,0,[0],1,29,"[1, 2, 3, 4, 5, 6, 7, 8, 9, 10, 11, 12, 13, 14, 15, 16, 17, 18, 19, 20, 21, 22, 23, 24, 25, 26, 27, 28, 29]",300,1513,-1,84,830,9,0.0
basic,32,21,0,0,0,25,"[0, 25]",2,26,"[1, 2, 3, 4, 5, 6, 7, 8, 9, 10, 11, 12, 13, 14, 15, 16, 17, 18, 20, 21, 22, 23, 24, 26, 27, 29]",240.1836143,22095,20582,30,238,9,1.0
basic,32,21,0,0,0,21,"[0, 25, 21]",3,18,"[1, 3, 4, 6, 8, 9, 11, 12, 14, 15, 16, 17, 18, 20, 22, 23, 24, 29]",190.8480288,27713,5618,15,84,9,1.2142997420204755
basic,32,21,0,0,0,23,"[0, 25, 21, 23]",4,14,"[1, 4, 6, 8, 9, 14, 15, 16, 17, 18, 20, 22, 24, 29]",161.233843,29109,1396,9,27,9,1.4013924134357778
basic,32,21,0,0,0,14,"[0, 25, 21, 23, 14]",5,9,"[4, 8, 15, 16, 17, 18, 22, 24, 29]",132.1649593,30221,1112,7,9,9,1.4652634639575024
basic,32,21,0,0,0,16,"[0, 25, 21, 23, 14, 16]",6,4,"[4, 8, 15, 24]",74.46747231,32475,2254,3,2,8,1.381764167193428
basic,32,21,0,0,0,8,"[0, 25, 21, 23, 14, 16, 8]",7,1,[15],55.86639707,33312,837,1,0,8,1.3474888899703545
basic,32,21,0,0,1,15,"[0, 25, 21, 23, 14, 16, 8, 15]",8,0,[],30.86639707,34157,845,1,0,8,1.5987037823060706
basic,32,21,0,1,1,15,"[0, 25, 21, 23, 14, 16, 8, 15]",8,0,[],30.86639707,35846,1689,1,0,8,1.5987037823060706
basic,33,36,0,0,0,0,[0],1,24,"[2, 4, 5, 6, 7, 8, 9, 10, 12, 13, 14, 15, 16, 17, 18, 19, 20, 22, 23, 25, 26, 27, 28, 29]",300,1527,-1,2,200,10,0.0
basic,33,36,0,0,0,12,"[0, 12]",2,23,"[2, 4, 5, 6, 7, 8, 9, 10, 13, 14, 15, 16, 17, 18, 19, 20, 22, 23, 25, 26, 27, 28, 29]",277.7963967,12483,10956,90,804,9,1.0
basic,33,36,0,0,0,18,"[0, 12, 18]",3,15,"[2, 4, 6, 7, 9, 10, 13, 16, 17, 19, 23, 25, 26, 28, 29]",235.217059,13621,1138,11,123,9,3.1762450029512506
basic,33,36,0,0,0,16,"[0, 12, 18, 16]",4,6,"[2, 9, 13, 17, 19, 25]",125.1943341,15894,2273,10,23,8,1.6377079469404239
basic,33,36,0,0,0,17,"[0, 12, 18, 16, 17]",5,5,"[2, 9, 13, 19, 25]",96.87472953,18472,2578,9,8,8,2.149142881264911
basic,33,36,0,0,0,9,"[0, 12, 18, 16, 17, 9]",6,4,"[2, 13, 19, 25]",70.62592004,20008,1536,3,3,8,3.321124451464694
basic,33,36,0,0,0,19,"[0, 12, 18, 16, 17, 9, 19]",7,3,"[2, 13, 25]",55.49317409,20851,843,3,0,8,3.1722047541554317
basic,33,36,0,0,1,2,"[0, 12, 18, 16, 17, 9, 19, 2]",8,0,[],18.3717517,21986,1135,1,0,8,2.4938483121679775
basic,33,36,0,1,1,2,"[0, 12, 18, 16, 17, 9, 19, 2]",8,0,[],18.3717517,24501,2515,1,0,8,2.4938483121679775
basic,34,31,0,0,0,0,[0],1,27,"[1, 3, 4, 5, 6, 7, 8, 10, 11, 12, 13, 14, 15, 16, 17, 18, 19, 20, 21, 22, 23, 24, 25, 26, 27, 28, 29]",300,1531,-1,2,87,10,0.0
basic,34,31,0,0,0,14,"[0, 14]",2,25,"[1, 3, 5, 6, 7, 8, 10, 11, 12, 13, 15, 16, 17, 18, 19, 20, 21, 22, 23, 24, 25, 26, 27, 28, 29]",263.861378,10499,8968,2,59,10,1.0
basic,34,31,0,0,0,27,"[0, 14, 27]",3,22,"[1, 3, 5, 6, 7, 8, 10, 11, 12, 13, 15, 16, 17, 18, 19, 20, 21, 22, 24, 25, 28, 29]",235.6833724,11978,1479,1,39,10,1.5881859159302467
basic,34,31,0,0,0,8,"[0, 14, 27, 8]",4,20,"[1, 3, 5, 6, 7, 10, 11, 12, 13, 16, 17, 18, 19, 20, 21, 22, 24, 25, 28, 29]",224.6380114,12859,881,1,36,10,2.1665048452331277
basic,34,31,0,0,0,18,"[0, 14, 27, 8, 18]",5,15,"[1, 5, 6, 7, 11, 12, 13, 16, 17, 19, 20, 22, 25, 28, 29]",188.7911147,17016,4157,1,26,10,1.7273375741920205
basic,34,31,0,0,0,11,"[0, 14, 27, 8, 18, 11]",6,11,"[1, 5, 7, 12, 16, 17, 19, 20, 22, 25, 28]",153.9055876,19241,2225,13,17,9,2.386348208737804
basic,34,31,0,0,0,5,"[0, 14, 27, 8, 18, 11, 5]",7,5,"[16, 17, 20, 25, 28]",110.2249283,20640,1399,3,3,9,2.163249612867222
basic,34,31,0,0,0,28,"[0, 14, 27, 8, 18, 11, 5, 28]",8,2,"[16, 17]",90.00117988,21480,840,2,0,9,1.9564635733184719
basic,34,31,0,0,1,16,"[0, 14, 27, 8, 18, 11, 5, 28, 16]",9,0,[],56.38570725,23168,1688,1,0,9,1.824071502589619
basic,34,31,0,1,1,16,"[0, 14, 27, 8, 18, 11, 5, 28, 16]",9,0,[],56.38570725,24565,1397,1,0,9,1.824071502589619
basic,35,13,0,0,0,0,[0],1,29,"[1, 2, 3, 4, 5, 6, 7, 8, 9, 10, 11, 12, 13, 14, 15, 16, 17, 18, 19, 20, 21, 22, 23, 24, 25, 26, 27, 28, 29]",300,1505,-1,60,2676,11,0.0
basic,35,13,0,0,0,21,"[0, 21]",2,28,"[1, 2, 3, 4, 5, 6, 7, 8, 9, 10, 11, 12, 13, 14, 15, 16, 17, 18, 19, 20, 22, 23, 24, 25, 26, 27, 28, 29]",271.3469024,14455,12950,20,656,11,1.0
basic,35,13,0,0,0,9,"[0, 21, 9]",3,25,"[1, 2, 3, 4, 5, 6, 7, 8, 10, 11, 12, 13, 14, 15, 16, 17, 19, 20, 22, 23, 24, 26, 27, 28, 29]",248.0016674,21972,7517,19,366,11,1.6747535253042172
basic,35,13,0,0,0,24,"[0, 21, 9, 24]",4,24,"[1, 2, 3, 4, 5, 6, 7, 8, 10, 11, 12, 13, 14, 15, 16, 17, 19, 20, 22, 23, 26, 27, 28, 29]",205.9421857,23648,1676,19,307,11,8.412786663594071
basic,35,13,0,0,0,11,"[0, 21, 9, 24, 11]",5,10,"[2, 6, 7, 13, 16, 17, 23, 26, 28, 29]",89.16461935,31191,7543,3,18,10,1.652810353092119
basic,35,13,0,0,0,6,"[0, 21, 9, 24, 11, 6]",6,6,"[2, 7, 23, 26, 28, 29]",70.05964617,32299,1108,3,9,10,2.1177598552723276
basic,35,13,0,0,0,26,"[0, 21, 9, 24, 11, 6, 26]",7,4,"[2, 7, 28, 29]",49.95989493,33693,1394,2,3,10,2.613532719690848
basic,35,13,0,0,0,7,"[0, 21, 9, 24, 11, 6, 26, 7]",8,2,"[2, 29]",39.51958842,34795,1102,2,0,10,2.4746010293038365
basic,35,13,0,0,0,29,"[0, 21, 9, 24, 11, 6, 26, 7, 29]",9,1,[2],24.2552509,37022,2227,1,0,10,2.477360020061368
basic,35,13,0,0,1,2,"[0, 21, 9, 24, 11, 6, 26, 7, 29, 2]",10,0,[],12.55055099,38409,1387,1,0,10,2.622949787933622
basic,35,13,0,1,1,2,"[0, 21, 9, 24, 11, 6, 26, 7, 29, 2]",10,0,[],12.55055099,40139,1730,1,0,10,2.622949787933622
basic,36,1,0,0,0,0,[0],1,26,"[1, 2, 4, 5, 7, 8, 9, 10, 11, 12, 13, 14, 15, 16, 17, 18, 19, 20, 21, 22, 23, 24, 25, 26, 28, 29]",300,1482,-1,6,74,7,0.0
basic,36,1,0,0,0,14,"[0, 14]",2,19,"[1, 4, 5, 8, 9, 13, 15, 17, 18, 19, 20, 21, 22, 23, 24, 25, 26, 28, 29]",200.1901808,19417,17935,5,42,7,1.0
basic,36,1,0,0,0,17,"[0, 14, 17]",3,15,"[1, 4, 5, 8, 9, 13, 15, 18, 19, 20, 22, 23, 25, 28, 29]",147.8356204,30849,11432,5,27,7,1.0028844724416826
basic,36,1,0,0,0,1,"[0, 14, 17, 1]",4,12,"[4, 5, 8, 9, 15, 18, 20, 22, 23, 25, 28, 29]",123.4840291,32809,1960,5,15,7,1.0264985578353567
basic,36,1,0,0,0,28,"[0, 14, 17, 1, 28]",5,5,"[9, 15, 22, 23, 29]",88.59850198,33663,854,5,3,7,1.0339861575999345
basic,36,1,0,0,0,23,"[0, 14, 17, 1, 28, 23]",6,2,"[15, 22]",51.70676849,34782,1119,2,0,7,1.0327458250705703
basic,36,1,0,0,1,15,"[0, 14, 17, 1, 28, 23, 15]",7,0,[],20.81987807,37009,2227,1,0,7,1.1948681641401226
basic,36,1,0,1,1,15,"[0, 14, 17, 1, 28, 23, 15]",7,0,[],20.81987807,44459,7450,1,0,7,1.1948681641401226
basic,37,10,0,0,0,0,[0],1,29,"[1, 2, 3, 4, 5, 6, 7, 8, 9, 10, 11, 12, 13, 14, 15, 16, 17, 18, 19, 20, 21, 22, 23, 24, 25, 26, 27, 28, 29]",300,1508,-1,1,100,9,0.0
basic,37,10,0,0,0,13,"[0, 13]",2,25,"[1, 2, 3, 4, 6, 7, 8, 9, 10, 11, 12, 14, 17, 18, 19, 20, 21, 22, 23, 24, 25, 26, 27, 28, 29]",249.4628849,24518,23010,1,79,9,1.0
basic,37,10,0,0,0,11,"[0, 13, 11]",3,20,"[1, 2, 3, 6, 7, 8, 9, 10, 12, 14, 18, 19, 20, 21, 22, 24, 26, 27, 28, 29]",206.4512586,27613,3095,1,54,9,1.0313137484914219
basic,37,10,0,0,0,19,"[0, 13, 11, 19]",4,11,"[2, 6, 8, 9, 10, 14, 18, 20, 24, 26, 27]",170.0919407,29015,1402,1,22,9,1.0879446220132545
basic,37,10,0,0,0,2,"[0, 13, 11, 19, 2]",5,4,"[14, 20, 26, 27]",126.1829439,30151,1136,1,4,9,1.06474052351343
basic,37,10,0,0,0,14,"[0, 13, 11, 19, 2, 14]",6,3,"[20, 26, 27]",114.0174188,31547,1396,1,3,9,1.1628909195912238
basic,37,10,0,0,0,26,"[0, 13, 11, 19, 2, 14, 26]",7,2,"[20, 27]",79.34754716,35483,3936,1,1,9,1.6660727647633602
basic,37,10,0,0,0,20,"[0, 13, 11, 19, 2, 14, 26, 20]",8,1,[27],47.56704999,37435,1952,1,0,9,2.085581809637999
basic,37,10,0,0,1,27,"[0, 13, 11, 19, 2, 14, 26, 20, 27]",9,0,[],2.312215998,39390,1955,1,0,9,1.9116357409137932
basic,37,10,0,1,1,27,"[0, 13, 11, 19, 2, 14, 26, 20, 27]",9,0,[],2.312215998,46299,6909,1,0,9,1.9116357409137932
basic,38,5,0,0,0,0,[0],1,29,"[1, 2, 3, 4, 5, 6, 7, 8, 9, 10, 11, 12, 13, 14, 15, 16, 17, 18, 19, 20, 21, 22, 23, 24, 25, 26, 27, 28, 29]",300,1499,-1,5,139,9,0.0
basic,38,5,0,0,0,22,"[0, 22]",2,27,"[1, 2, 3, 4, 5, 6, 7, 8, 9, 10, 11, 12, 13, 14, 15, 16, 17, 18, 19, 20, 21, 23, 24, 25, 26, 27, 28]",258.5633013,22859,21360,2,103,8,1.0
basic,38,5,0,0,0,12,"[0, 22, 12]",3,13,"[2, 4, 5, 6, 8, 10, 15, 17, 19, 23, 24, 25, 26]",151.7878359,35767,12908,1,20,8,2.067294213981302
basic,38,5,0,0,0,25,"[0, 22, 12, 25]",4,9,"[5, 6, 8, 15, 17, 19, 23, 24, 26]",124.002948,36883,1116,1,10,8,2.802443981590355
basic,38,5,0,0,0,23,"[0, 22, 12, 25, 23]",5,4,"[5, 8, 17, 24]",105.563859,37996,1113,1,4,8,3.8763383209680855
basic,38,5,0,0,0,24,"[0, 22, 12, 25, 23, 24]",6,3,"[5, 8, 17]",82.47706629,38831,835,1,2,8,3.0035322925790746
basic,38,5,0,0,0,17,"[0, 22, 12, 25, 23, 24, 17]",7,1,[5],47.49135492,39684,853,1,0,8,2.3648564233380043
basic,38,5,0,0,1,5,"[0, 22, 12, 25, 23, 24, 17, 5]",8,0,[],4.444868419,41362,1678,1,0,8,1.9774108819501097
basic,38,5,0,1,1,5,"[0, 22, 12, 25, 23, 24, 17, 5]",8,0,[],4.444868419,42480,1118,1,0,8,1.9774108819501097
basic,39,15,0,0,0,0,[0],1,25,"[1, 2, 3, 4, 7, 8, 9, 10, 11, 12, 13, 14, 15, 16, 18, 20, 21, 22, 23, 24, 25, 26, 27, 28, 29]",300,1480,-1,4,65,9,0.0
basic,39,15,0,0,0,7,"[0, 7]",2,23,"[1, 3, 4, 8, 9, 10, 11, 12, 13, 14, 15, 16, 18, 20, 21, 22, 23, 24, 25, 26, 27, 28, 29]",215.1884442,36189,34709,30,107,8,1.0
basic,39,15,0,0,0,11,"[0, 7, 11]",3,18,"[3, 4, 8, 9, 10, 12, 13, 14, 15, 16, 18, 20, 21, 22, 23, 25, 27, 29]",173.7035072,37302,1113,12,34,8,1.0171318876095128
basic,39,15,0,0,0,3,"[0, 7, 11, 3]",4,13,"[4, 10, 12, 13, 14, 15, 16, 18, 20, 21, 22, 25, 27]",162.3017529,38141,839,7,21,8,1.0401878806820521
basic,39,15,0,0,0,16,"[0, 7, 11, 3, 16]",5,9,"[4, 10, 12, 13, 14, 15, 18, 21, 22]",137.2218805,39811,1670,5,6,8,1.4258499651326737
basic,39,15,0,0,0,4,"[0, 7, 11, 3, 16, 4]",6,2,"[10, 22]",75.44809965,42060,2249,2,0,7,1.6149798547495569
basic,39,15,0,0,1,22,"[0, 7, 11, 3, 16, 4, 22]",7,0,[],5.591102867,45677,3617,1,0,7,1.7064673643178532
basic,39,15,0,1,1,22,"[0, 7, 11, 3, 16, 4, 22]",7,0,[],5.591102867,47354,1677,1,0,7,1.7064673643178532
basic,40,39,0,0,0,0,[0],1,28,"[1, 2, 3, 4, 5, 6, 7, 9, 10, 11, 12, 13, 14, 15, 16, 17, 18, 19, 20, 21, 22, 23, 24, 25, 26, 27, 28, 29]",300,1499,-1,1,30,10,0.0
basic,40,39,0,0,0,14,"[0, 14]",2,26,"[1, 2, 3, 4, 5, 6, 7, 9, 10, 12, 13, 15, 16, 17, 18, 19, 20, 21, 22, 23, 24, 25, 26, 27, 28, 29]",286.9615952,33608,32109,1,22,10,1.0
basic,40,39,0,0,0,29,"[0, 14, 29]",3,23,"[1, 2, 3, 4, 5, 6, 7, 9, 10, 12, 13, 15, 16, 17, 18, 19, 21, 22, 23, 24, 25, 26, 28]",218.9321898,35317,1709,1,21,10,1.4237768813412561
basic,40,39,0,0,0,12,"[0, 14, 29, 12]",4,16,"[1, 2, 4, 5, 7, 9, 10, 13, 15, 16, 18, 19, 22, 23, 24, 26]",158.3929463,36449,1132,1,11,10,1.2085522586932163
basic,40,39,0,0,0,10,"[0, 14, 29, 12, 10]",5,11,"[1, 4, 5, 7, 15, 16, 18, 19, 22, 23, 26]",122.8823845,37601,1152,1,8,10,1.4905426536315662
basic,40,39,0,0,0,7,"[0, 14, 29, 12, 10, 7]",6,6,"[1, 16, 18, 19, 22, 26]",89.46083457,38731,1130,1,6,10,1.3836596018032035
basic,40,39,0,0,0,26,"[0, 14, 29, 12, 10, 7, 26]",7,3,"[16, 19, 22]",70.77929288,39574,843,1,4,10,1.4191124441944845
basic,40,39,0,0,0,22,"[0, 14, 29, 12, 10, 7, 26, 22]",8,2,"[16, 19]",53.05924773,51318,11744,1,1,10,1.594793297833885
basic,40,39,0,0,0,16,"[0, 14, 29, 12, 10, 7, 26, 22, 16]",9,1,[19],18.05924773,52720,1402,1,0,10,1.48519520801471
basic,40,39,0,0,1,19,"[0, 14, 29, 12, 10, 7, 26, 22, 16, 19]",10,0,[],0.594998533,54109,1389,1,0,10,1.484277847976571
basic,40,39,0,1,1,19,"[0, 14, 29, 12, 10, 7, 26, 22, 16, 19]",10,0,[],0.594998533,55525,1416,1,0,10,1.484277847976571
basic,41,35,0,0,0,0,[0],1,29,"[1, 2, 3, 4, 5, 6, 7, 8, 9, 10, 11, 12, 13, 14, 15, 16, 17, 18, 19, 20, 21, 22, 23, 24, 25, 26, 27, 28, 29]",300,1512,-1,5,236,11,0.0
basic,41,35,0,0,0,15,"[0, 15]",2,27,"[1, 2, 4, 5, 6, 7, 8, 9, 10, 11, 12, 13, 14, 16, 17, 18, 19, 20, 21, 22, 23, 24, 25, 26, 27, 28, 29]",244.4212271,31484,29972,9,149,10,1.0
basic,41,35,0,0,0,1,"[0, 15, 1]",3,23,"[2, 4, 5, 6, 7, 8, 9, 10, 11, 12, 16, 17, 18, 19, 20, 21, 23, 24, 25, 26, 27, 28, 29]",221.5739078,33428,1944,4,66,10,1.6406557820220038
basic,41,35,0,0,0,24,"[0, 15, 1, 24]",4,19,"[2, 4, 5, 6, 8, 9, 10, 16, 17, 18, 19, 20, 21, 23, 25, 26, 27, 28, 29]",204.456665,34872,1444,2,36,10,3.080440754522459
basic,41,35,0,0,0,17,"[0, 15, 1, 24, 17]",5,16,"[2, 4, 5, 6, 9, 10, 16, 18, 19, 21, 23, 25, 26, 27, 28, 29]",192.7519651,36001,1129,2,33,10,2.7041139092636466
basic,41,35,0,0,0,19,"[0, 15, 1, 24, 17, 19]",6,6,"[2, 9, 18, 23, 27, 28]",127.3608342,40184,4183,6,2,8,2.097726144737172
basic,41,35,0,0,0,9,"[0, 15, 1, 24, 17, 19, 9]",7,2,"[18, 23]",41.85060087,57774,17590,2,0,8,2.296408394579101
basic,41,35,0,0,1,18,"[0, 15, 1, 24, 17, 19, 9, 18]",8,0,[],21.82561648,58614,840,1,0,8,2.1625722420783795
basic,41,35,0,1,1,18,"[0, 15, 1, 24, 17, 19, 9, 18]",8,0,[],21.82561648,60029,1415,1,0,8,2.1625722420783795
basic,42,2,0,0,0,0,[0],1,23,"[1, 2, 4, 5, 6, 7, 8, 9, 12, 13, 15, 16, 17, 18, 19, 20, 22, 23, 25, 26, 27, 28, 29]",300,1503,-1,70,620,10,0.0
basic,42,2,0,0,0,19,"[0, 19]",2,22,"[1, 2, 4, 5, 6, 7, 8, 9, 12, 13, 15, 16, 17, 18, 20, 22, 23, 25, 26, 27, 28, 29]",210.306076,6048,4545,67,431,10,1.0
basic,42,2,0,0,0,12,"[0, 19, 12]",3,17,"[1, 4, 5, 6, 7, 13, 15, 16, 17, 18, 20, 22, 25, 26, 27, 28, 29]",174.2921898,7183,1135,66,298,10,1.1107635036313153
basic,42,2,0,0,0,5,"[0, 19, 12, 5]",4,11,"[1, 6, 7, 13, 15, 16, 18, 22, 25, 26, 29]",144.7625437,8028,845,38,136,10,1.0968174771581647
basic,42,2,0,0,0,22,"[0, 19, 12, 5, 22]",5,8,"[1, 6, 7, 13, 15, 18, 26, 29]",131.9562952,10806,2778,20,63,10,1.0889910507461968
basic,42,2,0,0,0,13,"[0, 19, 12, 5, 22, 13]",6,7,"[1, 6, 7, 15, 18, 26, 29]",117.0902265,11634,828,19,20,10,1.236526217328057
basic,42,2,0,0,0,18,"[0, 19, 12, 5, 22, 13, 18]",7,4,"[7, 15, 26, 29]",81.91921567,13030,1396,10,3,10,1.2128708213409936
basic,42,2,0,0,0,7,"[0, 19, 12, 5, 22, 13, 18, 7]",8,3,"[15, 26, 29]",71.62358553,14155,1125,5,0,10,1.2019811287894737
basic,42,2,0,0,0,26,"[0, 19, 12, 5, 22, 13, 18, 7, 26]",9,2,"[15, 29]",48.82007703,16099,1944,2,0,10,1.1883593342191134
basic,42,2,0,0,1,15,"[0, 19, 12, 5, 22, 13, 18, 7, 26, 15]",10,0,[],24.61264015,17214,1115,1,0,10,1.4619750353663825
basic,42,2,0,1,1,15,"[0, 19, 12, 5, 22, 13, 18, 7, 26, 15]",10,0,[],24.61264015,29939,12725,1,0,10,1.4619750353663825
basic,43,20,0,0,0,0,[0],1,21,"[1, 2, 3, 4, 5, 6, 7, 8, 9, 12, 17, 18, 20, 21, 22, 23, 25, 26, 27, 28, 29]",300,1487,-1,1,9,9,0.0
basic,43,20,0,0,0,12,"[0, 12]",2,20,"[1, 2, 3, 4, 5, 6, 7, 8, 9, 17, 18, 20, 21, 22, 23, 25, 26, 27, 28, 29]",271.5570747,11918,10431,1,8,9,1.0
basic,43,20,0,0,0,5,"[0, 12, 5]",3,13,"[1, 3, 4, 6, 8, 9, 20, 21, 23, 26, 27, 28, 29]",171.4321527,20559,8641,2,19,8,1.0232843285905395
basic,43,20,0,0,0,21,"[0, 12, 5, 21]",4,10,"[1, 4, 6, 8, 9, 20, 23, 26, 27, 28]",126.4321527,21978,1419,2,12,8,1.017525191374897
basic,43,20,0,0,0,8,"[0, 12, 5, 21, 8]",5,6,"[1, 6, 9, 23, 27, 28]",108.9679035,23367,1389,2,6,8,1.0391698601004782
basic,43,20,0,0,0,9,"[0, 12, 5, 21, 8, 9]",6,2,"[6, 23]",45.07737214,25340,1973,2,0,7,1.0335078604526862
basic,43,20,0,0,1,6,"[0, 12, 5, 21, 8, 9, 6]",7,0,[],22.05564328,27304,1964,1,0,7,1.0486599850111684
basic,43,20,0,1,1,6,"[0, 12, 5, 21, 8, 9, 6]",7,0,[],22.05564328,33134,5830,1,0,7,1.0486599850111684
basic,44,28,0,0,0,0,[0],1,27,"[1, 2, 3, 4, 5, 6, 7, 8, 9, 10, 11, 12, 13, 14, 15, 16, 17, 18, 19, 20, 22, 23, 25, 26, 27, 28, 29]",300,1496,-1,2,96,9,0.0
basic,44,28,0,0,0,3,"[0, 3]",2,26,"[1, 2, 4, 5, 6, 7, 8, 9, 10, 11, 12, 13, 14, 15, 16, 17, 18, 19, 20, 22, 23, 25, 26, 27, 28, 29]",251.0817008,19147,17651,1,64,9,1.0
basic,44,28,0,0,0,5,"[0, 3, 5]",3,20,"[2, 4, 6, 7, 8, 9, 10, 11, 12, 13, 14, 15, 18, 19, 20, 23, 25, 26, 28, 29]",166.9865166,22234,3087,1,34,9,1.0203769473612083
basic,44,28,0,0,0,26,"[0, 3, 5, 26]",4,13,"[2, 4, 7, 8, 9, 12, 13, 14, 18, 19, 20, 25, 28]",134.2298379,30667,8433,1,28,9,1.0315203228799597
basic,44,28,0,0,0,19,"[0, 3, 5, 26, 19]",5,7,"[2, 7, 9, 12, 13, 14, 18]",93.22983789,37887,7220,1,17,9,1.1324645362297356
basic,44,28,0,0,0,7,"[0, 3, 5, 26, 19, 7]",6,5,"[2, 12, 13, 14, 18]",65.49898864,40389,2502,1,6,9,1.1971194919020265
basic,44,28,0,0,0,12,"[0, 3, 5, 26, 19, 7, 12]",7,2,"[13, 18]",52.3460422,41222,833,1,1,9,1.2020762147848982
basic,44,28,0,0,0,13,"[0, 3, 5, 26, 19, 7, 12, 13]",8,1,[18],35.14139167,42613,1391,1,0,9,1.39005144078531
basic,44,28,0,0,1,18,"[0, 3, 5, 26, 19, 7, 12, 13, 18]",9,0,[],10.72828044,44279,1666,1,0,9,1.738787343626007
basic,44,28,0,1,1,18,"[0, 3, 5, 26, 19, 7, 12, 13, 18]",9,0,[],10.72828044,45390,1111,1,0,9,1.738787343626007
basic,45,40,0,0,0,0,[0],1,29,"[1, 2, 3, 4, 5, 6, 7, 8, 9, 10, 11, 12, 13, 14, 15, 16, 17, 18, 19, 20, 21, 22, 23, 24, 25, 26, 27, 28, 29]",300,1502,-1,8,191,9,0.0
basic,45,40,0,0,0,2,"[0, 2]",2,28,"[1, 3, 4, 5, 6, 7, 8, 9, 10, 11, 12, 13, 14, 15, 16, 17, 18, 19, 20, 21, 22, 23, 24, 25, 26, 27, 28, 29]",263.7646581,16364,14862,4,79,9,1.0
basic,45,40,0,0,0,1,"[0, 2, 1]",3,13,"[5, 6, 8, 9, 10, 13, 17, 18, 19, 21, 22, 23, 27]",197.9695215,17497,1133,3,32,9,1.9563451201211088
basic,45,40,0,0,0,6,"[0, 2, 1, 6]",4,10,"[5, 8, 9, 13, 17, 18, 19, 21, 22, 23]",177.8697703,18338,841,3,29,9,1.767962123020631
basic,45,40,0,0,0,21,"[0, 2, 1, 6, 21]",5,5,"[5, 9, 18, 19, 23]",125.8986245,25009,6671,2,8,9,1.4447873803466464
basic,45,40,0,0,0,9,"[0, 2, 1, 6, 21, 9]",6,4,"[5, 18, 19, 23]",80.19304493,26956,1947,2,4,9,1.782283650173066
basic,45,40,0,0,0,18,"[0, 2, 1, 6, 21, 9, 18]",7,3,"[5, 19, 23]",63.64009957,29731,2775,2,1,9,1.995326683187404
basic,45,40,0,0,0,23,"[0, 2, 1, 6, 21, 9, 18, 23]",8,1,[5],29.64009957,37779,8048,1,0,9,2.8504770875343683
basic,45,40,0,0,1,5,"[0, 2, 1, 6, 21, 9, 18, 23, 5]",9,0,[],1.338156173,41683,3904,1,0,9,2.4284661275730834
basic,45,40,0,1,1,5,"[0, 2, 1, 6, 21, 9, 18, 23, 5]",9,0,[],1.338156173,42858,1175,1,0,9,2.4284661275730834
basic,46,12,0,0,0,0,[0],1,29,"[1, 2, 3, 4, 5, 6, 7, 8, 9, 10, 11, 12, 13, 14, 15, 16, 17, 18, 19, 20, 21, 22, 23, 24, 25, 26, 27, 28, 29]",300,1488,-1,2,32,9,0.0
basic,46,12,0,0,0,6,"[0, 6]",2,28,"[1, 2, 3, 4, 5, 7, 8, 9, 10, 11, 12, 13, 14, 15, 16, 17, 18, 19, 20, 21, 22, 23, 24, 25, 26, 27, 28, 29]",283.5987805,7377,5889,2,18,9,1.0
basic,46,12,0,0,0,22,"[0, 6, 22]",3,13,"[2, 4, 5, 7, 12, 13, 14, 16, 19, 23, 24, 25, 27]",182.0015365,9188,1811,2,9,9,1.3408050629015749
basic,46,12,0,0,0,16,"[0, 6, 22, 16]",4,10,"[2, 4, 5, 7, 12, 14, 19, 24, 25, 27]",161.0015365,10307,1119,2,7,9,1.5323672374573825
basic,46,12,0,0,0,4,"[0, 6, 22, 16, 4]",5,6,"[12, 14, 19, 24, 25, 27]",126.7962737,10855,548,2,5,9,1.38665076120851
basic,46,12,0,0,0,12,"[0, 6, 22, 16, 4, 12]",6,3,"[14, 24, 27]",84.6062275,11724,869,2,3,9,1.3036701691846924
basic,46,12,0,0,0,27,"[0, 6, 22, 16, 4, 12, 27]",7,2,"[14, 24]",60.25463618,12578,854,2,0,9,1.401636252408167
basic,46,12,0,0,0,14,"[0, 6, 22, 16, 4, 12, 27, 14]",8,1,[24],31.60153862,13718,1140,1,0,9,1.4415448388010776
basic,46,12,0,0,1,24,"[0, 6, 22, 16, 4, 12, 27, 14, 24]",9,0,[],14.39688808,15127,1409,1,0,9,1.6003250998053893
basic,46,12,0,1,1,24,"[0, 6, 22, 16, 4, 12, 27, 14, 24]",9,0,[],14.39688808,19319,4192,1,0,9,1.6003250998053893
basic,47,18,0,0,0,0,[0],1,28,"[1, 2, 3, 4, 5, 6, 7, 8, 9, 10, 11, 12, 13, 14, 16, 17, 18, 19, 20, 21, 22, 23, 24, 25, 26, 27, 28, 29]",300,1534,-1,3,136,10,0.0
basic,47,18,0,0,0,28,"[0, 28]",2,16,"[1, 3, 5, 7, 8, 9, 12, 13, 14, 16, 20, 23, 24, 25, 26, 27]",236.4311397,23495,21961,2,19,10,1.0
basic,47,18,0,0,0,7,"[0, 28, 7]",3,15,"[1, 3, 5, 8, 9, 12, 13, 14, 16, 20, 23, 24, 25, 26, 27]",214.4084242,24912,1417,2,17,10,1.4345180696367563
basic,47,18,0,0,0,25,"[0, 28, 7, 25]",4,13,"[1, 3, 5, 8, 9, 12, 13, 14, 16, 20, 23, 26, 27]",186.6055466,25765,853,2,15,10,1.8896451241781882
basic,47,18,0,0,0,8,"[0, 28, 7, 25, 8]",5,10,"[3, 5, 9, 12, 13, 14, 16, 23, 26, 27]",149.551532,28598,2833,2,10,10,1.590467437592877
basic,47,18,0,0,0,13,"[0, 28, 7, 25, 8, 13]",6,9,"[3, 5, 9, 12, 14, 16, 23, 26, 27]",128.4565089,29743,1145,2,5,10,1.8248274983549797
basic,47,18,0,0,0,14,"[0, 28, 7, 25, 8, 13, 14]",7,7,"[3, 5, 9, 12, 23, 26, 27]",109.4828429,30854,1111,2,3,10,1.6993534956692746
basic,47,18,0,0,0,3,"[0, 28, 7, 25, 8, 13, 14, 3]",8,3,"[5, 12, 27]",79.39962499,31990,1136,2,1,10,1.802637206541468
basic,47,18,0,0,0,5,"[0, 28, 7, 25, 8, 13, 14, 3, 5]",9,1,[12],21.21887216,33161,1171,1,0,10,1.559774889743805
basic,47,18,0,0,1,12,"[0, 28, 7, 25, 8, 13, 14, 3, 5, 12]",10,0,[],9.817117911,38862,5701,1,0,10,1.563993037384447
basic,47,18,0,1,1,12,"[0, 28, 7, 25, 8, 13, 14, 3, 5, 12]",10,0,[],9.817117911,44282,5420,1,0,10,1.563993037384447
basic,48,43,0,0,0,0,[0],1,23,"[1, 2, 3, 4, 5, 6, 7, 9, 10, 11, 12, 14, 15, 16, 17, 19, 20, 21, 22, 23, 25, 27, 29]",300,1519,-1,16,556,12,0.0
basic,48,43,0,0,0,29,"[0, 29]",2,22,"[1, 2, 3, 4, 5, 6, 7, 9, 10, 11, 12, 14, 15, 16, 17, 19, 20, 21, 22, 23, 25, 27]",277.909278,23727,22208,16,520,12,1.0
basic,48,43,0,0,0,20,"[0, 29, 20]",3,20,"[1, 2, 3, 4, 6, 7, 9, 10, 11, 12, 14, 15, 16, 17, 19, 21, 22, 23, 25, 27]",254.4785289,25139,1412,15,422,12,1.082311746871282
basic,48,43,0,0,0,16,"[0, 29, 20, 16]",4,19,"[1, 2, 3, 4, 6, 7, 9, 10, 11, 12, 14, 15, 17, 19, 21, 22, 23, 25, 27]",231.8511119,26301,1162,15,389,12,1.215201926898219
basic,48,43,0,0,0,25,"[0, 29, 20, 16, 25]",5,14,"[1, 2, 3, 4, 6, 7, 9, 11, 12, 14, 15, 19, 22, 23]",175.7708124,27727,1426,53,282,11,1.566384303308987
basic,48,43,0,0,0,15,"[0, 29, 20, 16, 25, 15]",6,13,"[1, 2, 3, 4, 6, 7, 9, 11, 12, 14, 19, 22, 23]",153.0992443,28842,1115,27,108,11,1.776736412604812
basic,48,43,0,0,0,12,"[0, 29, 20, 16, 25, 15, 12]",7,10,"[1, 3, 6, 7, 9, 11, 14, 19, 22, 23]",133.7860364,30803,1961,21,41,11,1.6813323012225032
basic,48,43,0,0,0,3,"[0, 29, 20, 16, 25, 15, 12, 3]",8,9,"[1, 6, 7, 9, 11, 14, 19, 22, 23]",120.7860364,31657,854,20,12,11,1.608740348096123
basic,48,43,0,0,0,22,"[0, 29, 20, 16, 25, 15, 12, 3, 22]",9,6,"[1, 6, 7, 11, 14, 19]",86.07292644,35827,4170,9,2,11,1.793657891802588
basic,48,43,0,0,0,19,"[0, 29, 20, 16, 25, 15, 12, 3, 22, 19]",10,3,"[1, 6, 7]",65.45739831,36961,1134,3,0,11,1.6882745891803936
basic,48,43,0,0,1,1,"[0, 29, 20, 16, 25, 15, 12, 3, 22, 19, 1]",11,0,[],37.2793927,38398,1437,1,0,11,1.825064866046553
basic,48,43,0,1,1,1,"[0, 29, 20, 16, 25, 15, 12, 3, 22, 19, 1]",11,0,[],37.2793927,43979,5581,1,0,11,1.825064866046553
basic,49,22,0,0,0,0,[0],1,29,"[1, 2, 3, 4, 5, 6, 7, 8, 9, 10, 11, 12, 13, 14, 15, 16, 17, 18, 19, 20, 21, 22, 23, 24, 25, 26, 27, 28, 29]",300,1534,-1,31,704,9,0.0
basic,49,22,0,0,0,29,"[0, 29]",2,22,"[1, 3, 5, 6, 7, 8, 9, 11, 13, 14, 15, 16, 17, 19, 20, 21, 22, 23, 24, 25, 27, 28]",222.9935068,53993,52459,11,235,9,1.0
basic,49,22,0,0,0,19,"[0, 29, 19]",3,18,"[1, 3, 6, 7, 8, 9, 13, 14, 15, 16, 17, 20, 21, 22, 23, 24, 25, 28]",207.9602104,55646,1653,11,172,9,1.1559285443414686
basic,49,22,0,0,0,7,"[0, 29, 19, 7]",4,14,"[1, 3, 6, 8, 9, 13, 14, 15, 16, 17, 20, 21, 24, 28]",161.6892692,56751,1105,2,38,9,1.0997496152822535
basic,49,22,0,0,0,14,"[0, 29, 19, 7, 14]",5,12,"[1, 3, 6, 9, 13, 15, 16, 17, 20, 21, 24, 28]",148.6508644,57738,987,2,24,9,1.1683447899109163
basic,49,22,0,0,0,9,"[0, 29, 19, 7, 14, 9]",6,5,"[6, 16, 17, 24, 28]",105.6043779,58889,1151,2,4,9,2.1706974496486087
basic,49,22,0,0,0,6,"[0, 29, 19, 7, 14, 9, 6]",7,2,"[16, 28]",78.97732396,60040,1151,2,0,9,2.4941297009110435
basic,49,22,0,0,0,28,"[0, 29, 19, 7, 14, 9, 6, 28]",8,1,[16],48.97732396,60905,865,1,0,9,2.269585076984223
basic,49,22,0,0,1,16,"[0, 29, 19, 7, 14, 9, 6, 28, 16]",9,0,[],14.53897325,62607,1702,1,0,9,3.507146295578618
basic,49,22,0,1,1,16,"[0, 29, 19, 7, 14, 9, 6, 28, 16]",9,0,[],14.53897325,63779,1172,1,0,9,3.507146295578618
basic,50,6,0,0,0,0,[0],1,29,"[1, 2, 3, 4, 5, 6, 7, 8, 9, 10, 11, 12, 13, 14, 15, 16, 17, 18, 19, 20, 21, 22, 23, 24, 25, 26, 27, 28, 29]",300,1510,-1,180,4304,10,0.0
basic,50,6,0,0,0,1,"[0, 1]",2,23,"[2, 3, 6, 7, 8, 9, 10, 12, 13, 14, 15, 16, 17, 18, 19, 20, 21, 22, 23, 24, 26, 27, 29]",250.6644145,40244,38734,7,266,10,1.0
basic,50,6,0,0,0,13,"[0, 1, 13]",3,22,"[2, 3, 6, 7, 8, 9, 10, 12, 14, 15, 16, 17, 18, 19, 20, 21, 22, 23, 24, 26, 27, 29]",233.6350281,41325,1081,7,257,10,2.0046272874013185
basic,50,6,0,0,0,7,"[0, 1, 13, 7]",4,12,"[2, 3, 6, 8, 10, 16, 17, 18, 23, 24, 26, 29]",152.6288555,45066,3741,34,120,9,3.0689004779631777
basic,50,6,0,0,0,3,"[0, 1, 13, 7, 3]",5,9,"[2, 10, 16, 17, 18, 23, 24, 26, 29]",116.4902335,46198,1132,22,26,9,5.47363743431667
basic,50,6,0,0,0,16,"[0, 1, 13, 7, 3, 16]",6,6,"[10, 17, 18, 23, 24, 29]",70.25172141,49523,3325,3,6,9,3.1829762962831247
basic,50,6,0,0,0,18,"[0, 1, 13, 7, 3, 16, 18]",7,3,"[10, 17, 24]",46.90648635,50633,1110,2,2,9,4.155780476000652
basic,50,6,0,0,0,17,"[0, 1, 13, 7, 3, 16, 18, 17]",8,2,"[10, 24]",32.97809807,52013,1380,2,0,9,3.783455358925786
basic,50,6,0,0,1,10,"[0, 1, 13, 7, 3, 16, 18, 17, 10]",9,0,[],13.25501515,53976,1963,1,0,9,3.399686732840071
basic,50,6,0,1,1,10,"[0, 1, 13, 7, 3, 16, 18, 17, 10]",9,0,[],13.25501515,55113,1137,1,0,9,3.399686732840071
basic,51,19,0,0,0,0,[0],1,29,"[1, 2, 3, 4, 5, 6, 7, 8, 9, 10, 11, 12, 13, 14, 15, 16, 17, 18, 19, 20, 21, 22, 23, 24, 25, 26, 27, 28, 29]",300,1525,-1,12,149,8,0.0
basic,51,19,0,0,0,29,"[0, 29]",2,28,"[1, 2, 3, 4, 5, 6, 7, 8, 9, 10, 11, 12, 13, 14, 15, 16, 17, 18, 19, 20, 21, 22, 23, 24, 25, 26, 27, 28]",265.0715016,15190,13665,12,120,8,1.0
basic,51,19,0,0,0,12,"[0, 29, 12]",3,10,"[1, 2, 3, 8, 13, 16, 17, 19, 23, 25]",151.2251139,16915,1725,1,15,8,1.2439006517653588
basic,51,19,0,0,0,17,"[0, 29, 12, 17]",4,9,"[1, 2, 3, 8, 13, 16, 19, 23, 25]",131.1005021,18335,1420,1,7,8,1.2186098272331718
basic,51,19,0,0,0,25,"[0, 29, 12, 17, 25]",5,8,"[1, 2, 3, 8, 13, 16, 19, 23]",120.0551411,19737,1402,1,6,8,1.319561617005615
basic,51,19,0,0,0,23,"[0, 29, 12, 17, 25, 23]",6,2,"[3, 8]",50.41319967,24886,5149,1,1,8,1.3880936298085154
basic,51,19,0,0,0,3,"[0, 29, 12, 17, 25, 23, 3]",7,1,[8],28.48148747,26034,1148,1,0,8,1.3473080672428304
basic,51,19,0,0,1,8,"[0, 29, 12, 17, 25, 23, 3, 8]",8,0,[],5.157679894,27486,1452,1,0,8,1.3530430001016291
basic,51,19,0,1,1,8,"[0, 29, 12, 17, 25, 23, 3, 8]",8,0,[],5.157679894,28681,1195,1,0,8,1.3530430001016291
basic,52,14,0,0,0,0,[0],1,29,"[1, 2, 3, 4, 5, 6, 7, 8, 9, 10, 11, 12, 13, 14, 15, 16, 17, 18, 19, 20, 21, 22, 23, 24, 25, 26, 27, 28, 29]",300,1578,-1,8,157,10,0.0
basic,52,14,0,0,0,15,"[0, 15]",2,20,"[1, 2, 3, 4, 7, 8, 9, 13, 17, 18, 19, 20, 21, 22, 23, 25, 26, 27, 28, 29]",216.7053423,6321,4743,8,102,10,1.0
basic,52,14,0,0,0,28,"[0, 15, 28]",3,17,"[1, 2, 3, 4, 7, 8, 9, 13, 17, 18, 19, 20, 22, 23, 25, 26, 27]",197.4959696,7467,1146,8,48,10,1.0446007867311968
basic,52,14,0,0,0,17,"[0, 15, 28, 17]",4,14,"[1, 2, 3, 4, 7, 8, 13, 18, 19, 20, 22, 23, 25, 26]",184.0423455,8294,827,8,39,10,1.0729463354689972
basic,52,14,0,0,0,18,"[0, 15, 28, 17, 18]",5,9,"[1, 2, 4, 7, 8, 19, 23, 25, 26]",119.412631,9417,1123,8,27,10,1.5035901079219378
basic,52,14,0,0,0,8,"[0, 15, 28, 17, 18, 8]",6,8,"[1, 2, 4, 7, 19, 23, 25, 26]",105.8111605,10521,1104,8,18,10,1.4819689987843856
basic,52,14,0,0,0,1,"[0, 15, 28, 17, 18, 8, 1]",7,5,"[7, 19, 23, 25, 26]",82.21031307,11909,1388,4,6,10,1.4084991998385268
basic,52,14,0,0,0,19,"[0, 15, 28, 17, 18, 8, 1, 19]",8,4,"[7, 23, 25, 26]",66.97876686,13830,1921,4,1,10,1.5758713333797987
basic,52,14,0,0,0,25,"[0, 15, 28, 17, 18, 8, 1, 19, 25]",9,2,"[7, 23]",31.1318702,15218,1388,2,0,10,1.6426186864061416
basic,52,14,0,0,1,23,"[0, 15, 28, 17, 18, 8, 1, 19, 25, 23]",10,0,[],1.72098786,24100,8882,1,0,10,1.586837442491671
basic,52,14,0,1,1,23,"[0, 15, 28, 17, 18, 8, 1, 19, 25, 23]",10,0,[],1.72098786,25799,1699,1,0,10,1.586837442491671
basic,53,32,0,0,0,0,[0],1,29,"[1, 2, 3, 4, 5, 6, 7, 8, 9, 10, 11, 12, 13, 14, 15, 16, 17, 18, 19, 20, 21, 22, 23, 24, 25, 26, 27, 28, 29]",300,1495,-1,17,359,10,0.0
basic,53,32,0,0,0,19,"[0, 19]",2,28,"[1, 2, 3, 4, 5, 6, 7, 8, 9, 10, 11, 12, 13, 14, 15, 16, 17, 18, 20, 21, 22, 23, 24, 25, 26, 27, 28, 29]",283.5075775,10490,8995,16,294,10,1.0
basic,53,32,0,0,0,13,"[0, 19, 13]",3,24,"[2, 3, 4, 5, 6, 8, 9, 10, 11, 12, 14, 15, 16, 17, 18, 20, 21, 22, 23, 24, 25, 26, 27, 28]",260.3127505,11337,847,14,227,10,1.0172874229878615
basic,53,32,0,0,0,15,"[0, 19, 13, 15]",4,18,"[2, 3, 5, 8, 9, 10, 11, 12, 16, 17, 20, 22, 23, 24, 25, 26, 27, 28]",177.4393531,12751,1414,9,116,10,1.435447391509833
basic,53,32,0,0,0,28,"[0, 19, 13, 15, 28]",5,17,"[2, 3, 5, 8, 9, 10, 11, 12, 16, 17, 20, 22, 23, 24, 25, 26, 27]",166.0375988,13873,1122,9,70,10,1.3843701324937985
basic,53,32,0,0,0,12,"[0, 19, 13, 15, 28, 12]",6,14,"[2, 3, 5, 8, 9, 10, 11, 16, 17, 20, 22, 24, 26, 27]",147.0639329,14990,1117,6,35,10,1.358372254952329
basic,53,32,0,0,0,16,"[0, 19, 13, 15, 28, 12, 16]",7,13,"[2, 3, 5, 8, 9, 10, 11, 17, 20, 22, 24, 26, 27]",131.411457,15822,832,5,15,10,1.4356932930709845
basic,53,32,0,0,0,22,"[0, 19, 13, 15, 28, 12, 16, 22]",8,6,"[2, 8, 9, 17, 20, 27]",97.57360838,17206,1384,3,5,10,1.4335226411545752
basic,53,32,0,0,0,9,"[0, 19, 13, 15, 28, 12, 16, 22, 9]",9,3,"[2, 8, 20]",75.37000507,18335,1129,3,0,10,1.4837166378374758
basic,53,32,0,0,1,2,"[0, 19, 13, 15, 28, 12, 16, 22, 9, 2]",10,0,[],24.28184597,24877,6542,1,0,10,1.9009621017233784
basic,53,32,0,1,1,2,"[0, 19, 13, 15, 28, 12, 16, 22, 9, 2]",10,0,[],24.28184597,26320,1443,1,0,10,1.9009621017233784
basic,54,30,0,0,0,0,[0],1,19,"[3, 4, 5, 7, 9, 11, 16, 17, 18, 19, 20, 21, 22, 24, 25, 26, 27, 28, 29]",300,1530,-1,5,41,8,0.0
basic,54,30,0,0,0,16,"[0, 16]",2,17,"[3, 5, 7, 9, 11, 17, 18, 19, 20, 21, 22, 24, 25, 26, 27, 28, 29]",219.3774225,9003,7473,5,34,8,1.0
basic,54,30,0,0,0,25,"[0, 16, 25]",3,10,"[3, 5, 7, 9, 11, 18, 19, 20, 27, 29]",115.0845656,10434,1431,5,28,8,1.0336279544884488
basic,54,30,0,0,0,20,"[0, 16, 25, 20]",4,8,"[3, 5, 7, 9, 18, 19, 27, 29]",93.15285342,11551,1117,4,14,8,1.0337964627284246
basic,54,30,0,0,0,27,"[0, 16, 25, 20, 27]",5,4,"[3, 5, 18, 29]",59.09408069,12683,1132,4,6,8,1.1504365534848
basic,54,30,0,0,0,3,"[0, 16, 25, 20, 27, 3]",6,3,"[5, 18, 29]",39.98910751,13796,1113,4,0,8,1.1403876826835333
basic,54,30,0,0,0,29,"[0, 16, 25, 20, 27, 3, 29]",7,1,[18],21.38803228,20448,6652,1,0,8,1.1443827771455848
basic,54,30,0,0,1,18,"[0, 16, 25, 20, 27, 3, 29, 18]",8,0,[],2.074824359,23830,3382,1,0,8,1.2197761544023602
basic,54,30,0,1,1,18,"[0, 16, 25, 20, 27, 3, 29, 18]",8,0,[],2.074824359,24970,1140,1,0,8,1.2197761544023602
basic,55,9,0,0,0,0,[0],1,27,"[1, 3, 4, 5, 6, 7, 8, 9, 10, 11, 13, 14, 15, 16, 17, 18, 19, 20, 21, 22, 23, 24, 25, 26, 27, 28, 29]",300,1508,-1,2,182,10,0.0
basic,55,9,0,0,0,7,"[0, 7]",2,19,"[3, 4, 5, 8, 9, 10, 11, 16, 17, 18, 19, 20, 21, 22, 23, 25, 26, 27, 28]",258.4067313,8812,7304,39,322,9,1.0
basic,55,9,0,0,0,4,"[0, 7, 4]",3,15,"[3, 8, 9, 10, 11, 18, 19, 20, 21, 22, 23, 25, 26, 27, 28]",243.4067313,9928,1116,32,159,9,1.002790151820037
basic,55,9,0,0,0,25,"[0, 7, 4, 25]",4,11,"[8, 9, 10, 11, 20, 21, 22, 23, 26, 27, 28]",177.6419991,11058,1130,12,72,9,5.080639449342423
basic,55,9,0,0,0,10,"[0, 7, 4, 25, 10]",5,9,"[8, 9, 20, 21, 22, 23, 26, 27, 28]",137.7922814,12469,1411,11,20,9,2.985474317686212
basic,55,9,0,0,0,8,"[0, 7, 4, 25, 10, 8]",6,6,"[9, 20, 21, 23, 26, 28]",89.41873494,18040,5571,7,5,9,3.301636508875995
basic,55,9,0,0,0,28,"[0, 7, 4, 25, 10, 8, 28]",7,5,"[9, 20, 21, 23, 26]",78.60208112,19424,1384,4,1,9,2.980725906905881
basic,55,9,0,0,0,23,"[0, 7, 4, 25, 10, 8, 28, 23]",8,1,[9],53.58208911,24722,5298,1,0,9,4.138701949207032
basic,55,9,0,0,1,9,"[0, 7, 4, 25, 10, 8, 28, 23, 9]",9,0,[],31.22140934,25564,842,1,0,9,3.6094738281350702
basic,55,9,0,1,1,9,"[0, 7, 4, 25, 10, 8, 28, 23, 9]",9,0,[],31.22140934,30300,4736,1,0,9,3.6094738281350702
basic,56,23,0,0,0,0,[0],1,28,"[1, 2, 3, 4, 5, 6, 7, 8, 9, 10, 11, 12, 13, 14, 15, 16, 17, 18, 19, 20, 21, 22, 23, 25, 26, 27, 28, 29]",300,1486,-1,76,2626,10,0.0
basic,56,23,0,0,0,22,"[0, 22]",2,24,"[1, 2, 3, 5, 6, 7, 8, 9, 10, 11, 12, 13, 14, 15, 17, 18, 19, 20, 21, 23, 25, 26, 27, 29]",210.5013967,20269,18783,15,1362,10,1.0
basic,56,23,0,0,0,13,"[0, 22, 13]",3,14,"[1, 2, 5, 6, 7, 8, 9, 10, 12, 14, 18, 21, 27, 29]",168.3113504,21399,1130,14,522,10,1.1898173563652046
basic,56,23,0,0,0,27,"[0, 22, 13, 27]",4,7,"[2, 6, 9, 12, 14, 18, 29]",123.2114613,23090,1691,59,60,9,1.2347447137291254
basic,56,23,0,0,0,6,"[0, 22, 13, 27, 6]",5,5,"[2, 9, 12, 14, 29]",94.90951791,24233,1143,25,4,9,1.3650572476361236
basic,56,23,0,0,0,2,"[0, 22, 13, 27, 6, 2]",6,4,"[9, 12, 14, 29]",76.47042899,25354,1121,7,2,9,1.6380738772667878
basic,56,23,0,0,0,12,"[0, 22, 13, 27, 6, 2, 12]",7,2,"[9, 14]",62.577985,26758,1404,2,0,9,1.9367358574807247
basic,56,23,0,0,0,9,"[0, 22, 13, 27, 6, 2, 12, 9]",8,1,[14],48.26016394,27664,906,1,0,9,1.926849993362044
basic,56,23,0,0,1,14,"[0, 22, 13, 27, 6, 2, 12, 9, 14]",9,0,[],37.81985743,28224,560,1,0,9,1.860885019505484
basic,56,23,0,1,1,14,"[0, 22, 13, 27, 6, 2, 12, 9, 14]",9,0,[],37.81985743,30499,2275,1,0,9,1.860885019505484
basic,57,17,0,0,0,0,[0],1,28,"[1, 2, 3, 4, 5, 6, 7, 8, 9, 10, 11, 12, 13, 14, 15, 16, 17, 18, 19, 20, 22, 23, 24, 25, 26, 27, 28, 29]",300,1510,-1,2,73,8,0.0
basic,57,17,0,0,0,9,"[0, 9]",2,25,"[1, 2, 3, 5, 6, 7, 8, 10, 11, 12, 14, 15, 16, 17, 18, 19, 20, 22, 23, 24, 25, 26, 27, 28, 29]",210.5293344,19643,18133,1,34,8,1.0
basic,57,17,0,0,0,16,"[0, 9, 16]",3,21,"[1, 2, 3, 5, 7, 8, 10, 11, 12, 14, 17, 18, 19, 20, 22, 23, 25, 26, 27, 28, 29]",197.1876704,21045,1402,1,26,8,1.173103464220352
basic,57,17,0,0,0,2,"[0, 9, 16, 2]",4,18,"[1, 3, 5, 7, 8, 10, 11, 12, 14, 17, 18, 19, 23, 25, 26, 27, 28, 29]",181.0631549,22985,1940,1,23,8,1.14825089247282
basic,57,17,0,0,0,17,"[0, 9, 16, 2, 17]",5,7,"[7, 8, 12, 14, 26, 27, 29]",142.7356191,24112,1127,4,5,7,1.4896040699768547
basic,57,17,0,0,0,8,"[0, 9, 16, 2, 17, 8]",6,3,"[7, 12, 27]",104.5256727,28344,4232,3,0,7,1.4604726966175894
basic,57,17,0,0,1,27,"[0, 9, 16, 2, 17, 8, 27]",7,0,[],21.88790895,35127,6783,1,0,7,1.2949460667276491
basic,57,17,0,1,1,27,"[0, 9, 16, 2, 17, 8, 27]",7,0,[],21.88790895,37110,1983,1,0,7,1.2949460667276491
basic,58,45,0,0,0,0,[0],1,24,"[1, 2, 3, 4, 5, 6, 7, 9, 10, 11, 12, 14, 15, 16, 17, 19, 20, 21, 22, 23, 24, 25, 27, 29]",300,1488,-1,6,248,10,0.0
basic,58,45,0,0,0,15,"[0, 15]",2,23,"[1, 2, 3, 4, 5, 6, 7, 9, 10, 11, 12, 14, 16, 17, 19, 20, 21, 22, 23, 24, 25, 27, 29]",253.9022777,6852,5364,5,207,10,1.0
basic,58,45,0,0,0,9,"[0, 15, 9]",3,15,"[2, 3, 6, 7, 10, 11, 12, 17, 19, 20, 22, 23, 24, 25, 29]",200.8645553,9639,2787,1,30,9,1.0587140791325185
basic,58,45,0,0,0,23,"[0, 15, 9, 23]",4,14,"[2, 3, 6, 7, 10, 11, 12, 17, 19, 20, 22, 24, 25, 29]",164.8090425,10497,858,1,23,9,1.9408288885107587
basic,58,45,0,0,0,20,"[0, 15, 9, 23, 20]",5,11,"[2, 3, 6, 7, 10, 11, 12, 17, 22, 24, 29]",123.3723438,14762,4265,1,17,9,1.9170367532686117
basic,58,45,0,0,0,10,"[0, 15, 9, 23, 20, 10]",6,7,"[2, 3, 6, 7, 12, 22, 29]",67.29204425,20587,5825,1,8,9,1.581474602692379
basic,58,45,0,0,0,6,"[0, 15, 9, 23, 20, 10, 6]",7,3,"[3, 12, 29]",41.04323476,26182,5595,3,0,8,1.5035057214254821
basic,58,45,0,0,1,29,"[0, 15, 9, 23, 20, 10, 6, 29]",8,0,[],12.88297908,27321,1139,1,0,8,1.7826823034802644
basic,58,45,0,1,1,29,"[0, 15, 9, 23, 20, 10, 6, 29]",8,0,[],12.88297908,28756,1435,1,0,8,1.7826823034802644
basic,59,41,0,0,0,0,[0],1,29,"[1, 2, 3, 4, 5, 6, 7, 8, 9, 10, 11, 12, 13, 14, 15, 16, 17, 18, 19, 20, 21, 22, 23, 24, 25, 26, 27, 28, 29]",300,1536,-1,1,143,10,0.0
basic,59,41,0,0,0,13,"[0, 13]",2,23,"[1, 2, 3, 5, 6, 7, 9, 10, 11, 12, 14, 15, 17, 18, 19, 20, 21, 22, 24, 25, 26, 27, 28]",258.2747079,5791,4255,1,55,10,1.0
basic,59,41,0,0,0,28,"[0, 13, 28]",3,22,"[1, 2, 3, 5, 6, 7, 9, 10, 11, 12, 14, 15, 17, 18, 19, 20, 21, 22, 24, 25, 26, 27]",223.7928286,7192,1401,1,39,10,1.895724242592676
basic,59,41,0,0,0,5,"[0, 13, 28, 5]",4,19,"[1, 2, 3, 6, 9, 10, 11, 12, 14, 15, 17, 18, 19, 20, 21, 22, 24, 25, 27]",210.1913581,8307,1115,1,34,10,2.861541269398273
basic,59,41,0,0,0,3,"[0, 13, 28, 5, 3]",5,16,"[1, 2, 6, 9, 10, 12, 14, 17, 18, 19, 20, 21, 22, 24, 25, 27]",175.3632086,14118,5811,1,22,10,3.1455488489005883
basic,59,41,0,0,0,22,"[0, 13, 28, 5, 3, 22]",6,10,"[2, 6, 9, 10, 12, 17, 18, 20, 21, 25]",145.3965604,14961,843,1,7,10,2.241807041008432
basic,59,41,0,0,0,21,"[0, 13, 28, 5, 3, 22, 21]",7,4,"[2, 9, 12, 17]",94.39656044,16103,1142,1,5,10,4.206513633906409
basic,59,41,0,0,0,17,"[0, 13, 28, 5, 3, 22, 21, 17]",8,2,"[2, 9]",42.73419503,20844,4741,2,0,9,4.058607921387277
basic,59,41,0,0,1,9,"[0, 13, 28, 5, 3, 22, 21, 17, 9]",9,0,[],11.71807019,23069,2225,1,0,9,3.503151712655469
basic,59,41,0,1,1,9,"[0, 13, 28, 5, 3, 22, 21, 17, 9]",9,0,[],11.71807019,24233,1164,1,0,9,3.503151712655469
basic,60,0,0,0,0,0,[0],1,27,"[2, 3, 4, 5, 6, 7, 8, 9, 10, 11, 12, 13, 14, 15, 16, 17, 19, 20, 21, 22, 23, 24, 25, 26, 27, 28, 29]",300,1526,-1,104,1136,9,0.0
basic,60,0,0,0,0,20,"[0, 20]",2,25,"[2, 3, 4, 5, 6, 7, 8, 9, 11, 12, 13, 14, 15, 16, 17, 19, 21, 22, 23, 24, 25, 26, 27, 28, 29]",215.4955622,5461,3935,36,372,9,1.0
basic,60,0,0,0,0,28,"[0, 20, 28]",3,19,"[3, 4, 5, 7, 8, 9, 11, 12, 13, 14, 15, 16, 17, 19, 21, 23, 24, 26, 29]",156.2925218,7693,2232,3,83,9,1.3675886789005969
basic,60,0,0,0,0,5,"[0, 20, 28, 5]",4,12,"[3, 4, 7, 8, 9, 11, 12, 15, 17, 21, 24, 26]",112.6347619,9379,1686,2,50,9,1.3829293532227536
basic,60,0,0,0,0,4,"[0, 20, 28, 5, 4]",5,10,"[3, 7, 8, 9, 11, 12, 15, 17, 24, 26]",87.55488947,17162,7783,2,26,9,1.3571235497342058
basic,60,0,0,0,0,26,"[0, 20, 28, 5, 4, 26]",6,9,"[3, 7, 8, 9, 11, 12, 15, 17, 24]",75.51329489,18271,1109,1,12,9,1.3895378207217857
basic,60,0,0,0,0,24,"[0, 20, 28, 5, 4, 26, 24]",7,6,"[7, 8, 9, 11, 12, 15]",58.39605212,19384,1113,1,5,9,1.4481849062023913
basic,60,0,0,0,0,15,"[0, 20, 28, 5, 4, 26, 24, 15]",8,1,[7],35.05081706,20502,1118,1,0,9,1.4016317346800864
basic,60,0,0,0,1,7,"[0, 20, 28, 5, 4, 26, 24, 15, 7]",9,0,[],3.986367929,21903,1401,1,0,9,1.4439002223158441
basic,60,0,0,1,1,7,"[0, 20, 28, 5, 4, 26, 24, 15, 7]",9,0,[],3.986367929,23027,1124,1,0,9,1.4439002223158441
basic,61,42,0,0,0,0,[0],1,29,"[1, 2, 3, 4, 5, 6, 7, 8, 9, 10, 11, 12, 13, 14, 15, 16, 17, 18, 19, 20, 21, 22, 23, 24, 25, 26, 27, 28, 29]",300,1500,-1,16,302,9,0.0
basic,61,42,0,0,0,4,"[0, 4]",2,28,"[1, 2, 3, 5, 6, 7, 8, 9, 10, 11, 12, 13, 14, 15, 16, 17, 18, 19, 20, 21, 22, 23, 24, 25, 26, 27, 28, 29]",209.5290102,15650,14150,4,80,9,1.0
basic,61,42,0,0,0,22,"[0, 4, 22]",3,24,"[1, 2, 3, 5, 6, 7, 8, 9, 10, 11, 13, 15, 17, 18, 19, 20, 21, 23, 24, 25, 26, 27, 28, 29]",198.3486703,18733,3083,3,53,9,1.1473032812120834
basic,61,42,0,0,0,5,"[0, 4, 22, 5]",4,20,"[1, 2, 3, 7, 8, 9, 10, 11, 13, 15, 18, 19, 20, 21, 23, 24, 25, 26, 27, 29]",170.1174819,20128,1395,1,14,9,1.1948051397585588
basic,61,42,0,0,0,8,"[0, 4, 22, 5, 8]",5,13,"[1, 2, 3, 7, 11, 15, 18, 19, 24, 25, 26, 27, 29]",135.6356026,21248,1120,1,10,9,1.5287231236031107
basic,61,42,0,0,0,1,"[0, 4, 22, 5, 8, 1]",6,5,"[2, 7, 19, 26, 27]",86.54385173,25447,4199,1,7,9,1.3707327746710105
basic,61,42,0,0,0,7,"[0, 4, 22, 5, 8, 1, 7]",7,4,"[2, 19, 26, 27]",56.54385173,26575,1128,1,3,9,1.4053605201578234
basic,61,42,0,0,0,26,"[0, 4, 22, 5, 8, 1, 7, 26]",8,1,[27],29.97319122,27971,1396,1,0,9,1.3637717615151517
basic,61,42,0,0,1,27,"[0, 4, 22, 5, 8, 1, 7, 26, 27]",9,0,[],11.94543484,28810,839,1,0,9,1.3508808991256835
basic,61,42,0,1,1,27,"[0, 4, 22, 5, 8, 1, 7, 26, 27]",9,0,[],11.94543484,29939,1129,1,0,9,1.3508808991256835
basic,62,11,0,0,0,0,[0],1,25,"[1, 2, 3, 4, 5, 6, 8, 9, 10, 11, 12, 13, 14, 15, 16, 17, 18, 19, 20, 22, 23, 25, 26, 27, 28]",300,1523,-1,6,374,12,0.0
basic,62,11,0,0,0,27,"[0, 27]",2,21,"[1, 2, 4, 5, 6, 8, 9, 11, 12, 13, 14, 15, 16, 17, 18, 19, 20, 22, 23, 25, 28]",217.9939027,9328,7805,276,2000,10,1.0
basic,62,11,0,0,0,17,"[0, 27, 17]",3,15,"[1, 2, 4, 5, 6, 8, 11, 12, 15, 18, 19, 22, 23, 25, 28]",140.91602,10753,1425,82,451,10,1.0816284715013953
basic,62,11,0,0,0,8,"[0, 27, 17, 8]",4,13,"[1, 2, 4, 5, 6, 11, 12, 15, 18, 19, 22, 25, 28]",126.5981989,12148,1395,40,179,10,1.1941717730735368
basic,62,11,0,0,0,15,"[0, 27, 17, 8, 15]",5,10,"[2, 5, 6, 11, 12, 18, 19, 22, 25, 28]",113.1445749,13259,1111,33,59,10,1.1911530098609295
basic,62,11,0,0,0,11,"[0, 27, 17, 8, 15, 11]",6,7,"[2, 5, 6, 12, 19, 22, 28]",95.03380459,14099,840,24,0,10,1.1822699434643233
basic,62,11,0,0,0,28,"[0, 27, 17, 8, 15, 11, 28]",7,3,"[2, 5, 22]",75.61731675,17706,3607,6,0,10,1.298485676789349
basic,62,11,0,0,0,22,"[0, 27, 17, 8, 15, 11, 28, 22]",8,2,"[2, 5]",57.23254044,18822,1116,2,0,10,1.2876600280207695
basic,62,11,0,0,0,2,"[0, 27, 17, 8, 15, 11, 28, 22, 2]",9,1,[5],47.18266482,19932,1110,1,0,10,1.416438084596588
basic,62,11,0,0,1,5,"[0, 27, 17, 8, 15, 11, 28, 22, 2, 5]",10,0,[],30.18266482,21052,1120,1,0,10,1.658445032124157
basic,62,11,0,1,1,5,"[0, 27, 17, 8, 15, 11, 28, 22, 2, 5]",10,0,[],30.18266482,22770,1718,1,0,10,1.658445032124157
basic,63,44,0,0,0,0,[0],1,29,"[1, 2, 3, 4, 5, 6, 7, 8, 9, 10, 11, 12, 13, 14, 15, 16, 17, 18, 19, 20, 21, 22, 23, 24, 25, 26, 27, 28, 29]",300,1489,-1,13,126,7,0.0
basic,63,44,0,0,0,11,"[0, 11]",2,18,"[4, 5, 6, 7, 8, 9, 12, 14, 16, 17, 19, 20, 22, 23, 24, 25, 26, 28]",152.7790776,28751,27262,5,34,7,1.0
basic,63,44,0,0,0,14,"[0, 11, 14]",3,14,"[4, 5, 6, 7, 9, 12, 16, 17, 19, 22, 23, 24, 26, 28]",120.5765932,34305,5554,6,17,6,1.0032424984204007
basic,63,44,0,0,0,24,"[0, 11, 14, 24]",4,4,"[4, 7, 9, 23]",74.92574436,35450,1145,3,2,6,1.4978014171296756
basic,63,44,0,0,0,9,"[0, 11, 14, 24, 9]",5,1,[4],42.16906565,36294,844,1,0,6,1.6248916534242954
basic,63,44,0,0,1,4,"[0, 11, 14, 24, 9, 4]",6,0,[],22.47135004,37161,867,1,0,6,1.5800842308612977
basic,63,44,0,1,1,4,"[0, 11, 14, 24, 9, 4]",6,0,[],22.47135004,38871,1710,1,0,6,1.5800842308612977
basic,64,27,0,0,0,0,[0],1,26,"[1, 3, 5, 6, 7, 8, 9, 10, 11, 12, 13, 14, 15, 16, 17, 18, 19, 21, 22, 23, 24, 25, 26, 27, 28, 29]",300,1492,-1,13,578,11,0.0
basic,64,27,0,0,0,26,"[0, 26]",2,23,"[1, 5, 6, 7, 8, 9, 10, 11, 12, 13, 14, 15, 16, 17, 18, 19, 21, 22, 23, 24, 25, 27, 29]",275.8132268,7560,6068,7,249,11,1.0
basic,64,27,0,0,0,27,"[0, 26, 27]",3,21,"[1, 6, 7, 8, 9, 10, 11, 12, 13, 14, 15, 16, 17, 18, 19, 21, 22, 23, 24, 25, 29]",225.9935519,9001,1441,1,80,11,1.307240649445448
basic,64,27,0,0,0,1,"[0, 26, 27, 1]",4,20,"[6, 7, 8, 9, 10, 11, 12, 13, 14, 15, 16, 17, 18, 19, 21, 22, 23, 24, 25, 29]",195.761119,9557,556,51,187,10,1.4322365552995941
basic,64,27,0,0,0,23,"[0, 26, 27, 1, 23]",5,13,"[6, 8, 10, 12, 13, 14, 15, 17, 18, 19, 24, 25, 29]",147.7194704,10679,1122,45,79,10,2.0021319533763484
basic,64,27,0,0,0,13,"[0, 26, 27, 1, 23, 13]",6,7,"[8, 10, 12, 15, 17, 19, 24]",88.10403617,12357,1678,5,17,10,2.153142988207226
basic,64,27,0,0,0,10,"[0, 26, 27, 1, 23, 13, 10]",7,4,"[12, 15, 17, 24]",48.25431848,13487,1130,4,5,10,3.3376751282483696
basic,64,27,0,0,0,12,"[0, 26, 27, 1, 23, 13, 10, 12]",8,3,"[15, 17, 24]",37.20895746,14598,1111,3,1,10,4.066102480233449
basic,64,27,0,0,0,17,"[0, 26, 27, 1, 23, 13, 10, 12, 17]",9,1,[24],26.02861758,15432,834,1,0,10,4.416595945595922
basic,64,27,0,0,1,24,"[0, 26, 27, 1, 23, 13, 10, 12, 17, 24]",10,0,[],9.475672218,16822,1390,1,0,10,6.146684479898621
basic,64,27,0,1,1,24,"[0, 26, 27, 1, 23, 13, 10, 12, 17, 24]",10,0,[],9.475672218,18554,1732,1,0,10,6.146684479898621
basic,65,3,0,0,0,0,[0],1,29,"[1, 2, 3, 4, 5, 6, 7, 8, 9, 10, 11, 12, 13, 14, 15, 16, 17, 18, 19, 20, 21, 22, 23, 24, 25, 26, 27, 28, 29]",300,1512,-1,34,427,10,0.0
basic,65,3,0,0,0,16,"[0, 16]",2,28,"[1, 2, 3, 4, 5, 6, 7, 8, 9, 10, 11, 12, 13, 14, 15, 17, 18, 19, 20, 21, 22, 23, 24, 25, 26, 27, 28, 29]",268.9355509,10154,8642,32,260,9,1.0
basic,65,3,0,0,0,15,"[0, 16, 15]",3,27,"[1, 2, 3, 4, 5, 6, 7, 8, 9, 10, 11, 12, 13, 14, 17, 18, 19, 20, 21, 22, 23, 24, 25, 26, 27, 28, 29]",229.8203364,10998,844,15,76,9,2.204989671213251
basic,65,3,0,0,0,7,"[0, 16, 15, 7]",4,25,"[1, 2, 3, 4, 5, 6, 8, 9, 10, 11, 12, 13, 14, 17, 18, 19, 20, 21, 22, 24, 25, 26, 27, 28, 29]",199.7537437,11850,852,15,59,9,4.730913335158226
basic,65,3,0,0,0,8,"[0, 16, 15, 7, 8]",5,13,"[3, 4, 5, 10, 14, 17, 18, 19, 20, 21, 22, 24, 26]",143.7805358,12706,856,9,26,9,2.6022124644283724
basic,65,3,0,0,0,24,"[0, 16, 15, 7, 8, 24]",6,9,"[3, 4, 10, 14, 17, 19, 20, 21, 22]",131.6150107,13820,1114,9,11,9,2.8609774318136
basic,65,3,0,0,0,17,"[0, 16, 15, 7, 8, 24, 17]",7,2,"[3, 20]",62.2608472,19468,5648,2,0,9,2.323862059665861
basic,65,3,0,0,0,20,"[0, 16, 15, 7, 8, 24, 17, 20]",8,1,[3],49.61173656,20590,1122,1,0,9,2.2115860124874804
basic,65,3,0,0,1,3,"[0, 16, 15, 7, 8, 24, 17, 20, 3]",9,0,[],29.21565851,24269,3679,1,0,9,2.164543788989251
basic,65,3,0,1,1,3,"[0, 16, 15, 7, 8, 24, 17, 20, 3]",9,0,[],29.21565851,26005,1736,1,0,9,2.164543788989251
basic,66,16,0,0,0,0,[0],1,29,"[1, 2, 3, 4, 5, 6, 7, 8, 9, 10, 11, 12, 13, 14, 15, 16, 17, 18, 19, 20, 21, 22, 23, 24, 25, 26, 27, 28, 29]",300,1580,-1,13,161,9,0.0
basic,66,16,0,0,0,28,"[0, 28]",2,27,"[1, 2, 3, 4, 5, 7, 8, 9, 10, 11, 12, 13, 14, 15, 16, 17, 18, 19, 20, 21, 22, 23, 24, 25, 26, 27, 29]",284.3475242,5495,3915,11,92,9,1.0
basic,66,16,0,0,0,21,"[0, 28, 21]",3,26,"[1, 2, 3, 4, 5, 7, 8, 9, 10, 11, 12, 13, 14, 15, 16, 17, 18, 19, 20, 22, 23, 24, 25, 26, 27, 29]",205.0380039,13820,8325,1,25,9,1.1196822789757879
basic,66,16,0,0,0,16,"[0, 28, 21, 16]",4,18,"[1, 2, 5, 8, 9, 11, 12, 14, 15, 17, 18, 19, 20, 22, 23, 25, 26, 27]",160.3837768,14667,847,7,15,8,1.6894966276900831
basic,66,16,0,0,0,17,"[0, 28, 21, 16, 17]",5,10,"[1, 8, 11, 12, 14, 20, 22, 23, 26, 27]",132.0641723,15514,847,3,8,7,2.8612034891752334
basic,66,16,0,0,0,14,"[0, 28, 21, 16, 17, 14]",6,2,"[1, 23]",41.62081984,21195,5681,2,0,7,2.2383289253923193
basic,66,16,0,0,1,23,"[0, 28, 21, 16, 17, 14, 23]",7,0,[],17.4547279,22594,1399,1,0,7,2.61604778728915
basic,66,16,0,1,1,23,"[0, 28, 21, 16, 17, 14, 23]",7,0,[],17.4547279,23752,1158,1,0,7,2.61604778728915
basic,67,29,0,0,0,0,[0],1,29,"[1, 2, 3, 4, 5, 6, 7, 8, 9, 10, 11, 12, 13, 14, 15, 16, 17, 18, 19, 20, 21, 22, 23, 24, 25, 26, 27, 28, 29]",300,1310,-1,1,78,9,0.0
basic,67,29,0,0,0,1,"[0, 1]",2,17,"[4, 5, 6, 7, 9, 10, 12, 13, 14, 15, 16, 17, 22, 25, 26, 27, 28]",214.2736913,17096,15786,12,79,8,1.0
basic,67,29,0,0,0,14,"[0, 1, 14]",3,15,"[4, 5, 6, 7, 9, 10, 12, 13, 15, 17, 22, 25, 26, 27, 28]",171.3202281,18523,1427,12,45,8,1.4217240517504397
basic,67,29,0,0,0,13,"[0, 1, 14, 13]",4,12,"[4, 5, 6, 7, 9, 12, 17, 22, 25, 26, 27, 28]",153.2924718,19365,842,12,27,8,1.3553272959243952
basic,67,29,0,0,0,5,"[0, 1, 14, 13, 5]",5,10,"[4, 6, 7, 9, 12, 17, 22, 25, 27, 28]",127.5825515,20206,841,11,13,8,1.3875785126283526
basic,67,29,0,0,0,9,"[0, 1, 14, 13, 5, 9]",6,3,"[4, 7, 12]",52.1570916,26944,6738,1,2,8,1.3128090334341642
basic,67,29,0,0,0,7,"[0, 1, 14, 13, 5, 9, 7]",7,1,[12],23.08820789,28325,1381,1,0,8,1.6838600241817216
basic,67,29,0,0,1,12,"[0, 1, 14, 13, 5, 9, 7, 12]",8,0,[],9.486737379,28910,585,1,0,8,1.8818136189548071
basic,67,29,0,1,1,12,"[0, 1, 14, 13, 5, 9, 7, 12]",8,0,[],9.486737379,30084,1174,1,0,8,1.8818136189548071
basic,68,37,0,0,0,0,[0],1,29,"[1, 2, 3, 4, 5, 6, 7, 8, 9, 10, 11, 12, 13, 14, 15, 16, 17, 18, 19, 20, 21, 22, 23, 24, 25, 26, 27, 28, 29]",300,1190,-1,6,168,10,0.0
basic,68,37,0,0,0,18,"[0, 18]",2,19,"[1, 2, 4, 6, 7, 9, 10, 12, 14, 15, 17, 19, 20, 21, 22, 23, 26, 28, 29]",202.4090168,7213,6023,6,89,10,1.0
