condition,trial_id,map_id,undoIndicator,submit,checkEnd,currentChoice,chosen_all,n_city_all,n_within_reach,cities_reach,currentBudget,time_all,rt_all,n_opt_paths_all,n_subopt_paths_all,mas_all,tortuosity_all
basic,0,43,0,0,0,0,[0],1,23,"[1, 2, 3, 4, 5, 6, 7, 9, 10, 11, 12, 14, 15, 16, 17, 19, 20, 21, 22, 23, 25, 27, 29]",300,309,-1,16,556,12,0.0
basic,0,43,0,0,0,29,"[0, 29]",2,22,"[1, 2, 3, 4, 5, 6, 7, 9, 10, 11, 12, 14, 15, 16, 17, 19, 20, 21, 22, 23, 25, 27]",277.909278,7033,6724,16,520,12,1.0
basic,0,43,0,0,0,20,"[0, 29, 20]",3,20,"[1, 2, 3, 4, 6, 7, 9, 10, 11, 12, 14, 15, 16, 17, 19, 21, 22, 23, 25, 27]",254.4785289,8382,1349,15,422,12,1.082311746871282
basic,0,43,0,0,0,16,"[0, 29, 20, 16]",4,19,"[1, 2, 3, 4, 6, 7, 9, 10, 11, 12, 14, 15, 17, 19, 21, 22, 23, 25, 27]",231.8511119,9832,1450,15,389,12,1.215201926898219
basic,0,43,0,0,0,15,"[0, 29, 20, 16, 15]",5,14,"[1, 2, 3, 4, 6, 7, 9, 11, 12, 14, 19, 22, 23, 25]",188.5267539,11682,1850,3,109,12,1.3482474915350444
basic,0,43,0,0,0,12,"[0, 29, 20, 16, 15, 12]",6,13,"[1, 2, 3, 4, 6, 7, 9, 11, 14, 19, 22, 23, 25]",169.213546,13337,1655,1,49,12,1.3229664037236823
basic,0,43,0,0,0,3,"[0, 29, 20, 16, 15, 12, 3]",7,11,"[1, 4, 6, 7, 9, 11, 14, 19, 22, 23, 25]",156.213546,15497,2160,1,35,12,1.2907201281243643
basic,0,43,0,0,0,22,"[0, 29, 20, 16, 15, 12, 3, 22]",8,9,"[1, 4, 6, 7, 11, 14, 19, 23, 25]",121.5004361,19097,3600,1,18,12,1.4966181986440266
basic,0,43,0,0,0,19,"[0, 29, 20, 16, 15, 12, 3, 22, 19]",9,7,"[1, 4, 6, 7, 11, 14, 25]",100.8849079,24397,5300,1,9,12,1.4332617950535695
basic,0,43,0,1,0,19,"[0, 29, 20, 16, 15, 12, 3, 22, 19]",9,7,"[1, 4, 6, 7, 11, 14, 25]",100.8849079,28424,4027,1,9,12,1.4332617950535695
basic,1,12,0,0,0,0,[0],1,29,"[1, 2, 3, 4, 5, 6, 7, 8, 9, 10, 11, 12, 13, 14, 15, 16, 17, 18, 19, 20, 21, 22, 23, 24, 25, 26, 27, 28, 29]",300,161,-1,2,32,9,0.0
basic,1,12,0,0,0,16,"[0, 16]",2,16,"[2, 4, 5, 6, 7, 12, 13, 14, 18, 19, 22, 23, 24, 25, 27, 29]",209.2916762,5054,4893,3,38,8,1.0
basic,1,12,0,0,0,4,"[0, 16, 4]",3,11,"[2, 5, 6, 7, 12, 14, 19, 22, 24, 25, 27]",175.0864135,6585,1531,1,16,8,1.00004499617691
basic,1,12,0,0,0,12,"[0, 16, 4, 12]",4,6,"[14, 19, 22, 24, 25, 27]",132.8963673,8421,1836,1,8,8,1.0113942412768022
basic,1,12,0,0,0,27,"[0, 16, 4, 12, 27]",5,4,"[14, 19, 22, 24]",108.5447759,10413,1992,1,3,8,1.1193150037844588
basic,1,12,0,0,0,14,"[0, 16, 4, 12, 27, 14]",6,2,"[19, 24]",79.89167838,12011,1598,1,1,8,1.1821826897854277
basic,1,12,0,1,0,14,"[0, 16, 4, 12, 27, 14]",6,2,"[19, 24]",79.89167838,14786,2775,1,1,8,1.1821826897854277
basic,2,22,0,0,0,0,[0],1,29,"[1, 2, 3, 4, 5, 6, 7, 8, 9, 10, 11, 12, 13, 14, 15, 16, 17, 18, 19, 20, 21, 22, 23, 24, 25, 26, 27, 28, 29]",300,197,-1,31,704,9,0.0
basic,2,22,0,0,0,29,"[0, 29]",2,22,"[1, 3, 5, 6, 7, 8, 9, 11, 13, 14, 15, 16, 17, 19, 20, 21, 22, 23, 24, 25, 27, 28]",222.9935068,3105,2908,11,235,9,1.0
basic,2,22,0,0,0,19,"[0, 29, 19]",3,18,"[1, 3, 6, 7, 8, 9, 13, 14, 15, 16, 17, 20, 21, 22, 23, 24, 25, 28]",207.9602104,6207,3102,11,172,9,1.1559285443414686
basic,2,22,0,0,0,9,"[0, 29, 19, 9]",4,16,"[1, 3, 6, 7, 8, 13, 14, 15, 16, 17, 20, 21, 22, 24, 25, 28]",187.5641323,7356,1149,7,84,9,1.2555028175473422
basic,2,22,0,0,0,6,"[0, 29, 19, 9, 6]",5,13,"[3, 7, 13, 14, 15, 16, 17, 20, 21, 22, 24, 25, 28]",160.9370784,8753,1397,17,16,8,1.5692551066355458
basic,2,22,0,0,0,16,"[0, 29, 19, 9, 6, 16]",6,5,"[7, 14, 22, 25, 28]",126.4987277,10919,2166,4,2,8,2.1316196867673534
basic,2,22,0,0,0,28,"[0, 29, 19, 9, 6, 16, 28]",7,2,"[7, 14]",92.06037699,13536,2617,2,0,8,1.8800559086622874
basic,2,22,0,1,0,28,"[0, 29, 19, 9, 6, 16, 28]",7,2,"[7, 14]",92.06037699,16611,3075,2,0,8,1.8800559086622874
basic,3,39,0,0,0,0,[0],1,28,"[1, 2, 3, 4, 5, 6, 7, 9, 10, 11, 12, 13, 14, 15, 16, 17, 18, 19, 20, 21, 22, 23, 24, 25, 26, 27, 28, 29]",300,183,-1,1,30,10,0.0
basic,3,39,0,0,0,14,"[0, 14]",2,26,"[1, 2, 3, 4, 5, 6, 7, 9, 10, 12, 13, 15, 16, 17, 18, 19, 20, 21, 22, 23, 24, 25, 26, 27, 28, 29]",286.9615952,5606,5423,1,22,10,1.0
basic,3,39,0,0,0,29,"[0, 14, 29]",3,23,"[1, 2, 3, 4, 5, 6, 7, 9, 10, 12, 13, 15, 16, 17, 18, 19, 21, 22, 23, 24, 25, 26, 28]",218.9321898,10703,5097,1,21,10,1.4237768813412561
basic,3,39,0,0,0,12,"[0, 14, 29, 12]",4,16,"[1, 2, 4, 5, 7, 9, 10, 13, 15, 16, 18, 19, 22, 23, 24, 26]",158.3929463,13472,2769,1,11,10,1.2085522586932163
basic,3,39,0,0,0,10,"[0, 14, 29, 12, 10]",5,11,"[1, 4, 5, 7, 15, 16, 18, 19, 22, 23, 26]",122.8823845,17420,3948,1,8,10,1.4905426536315662
basic,3,39,0,0,0,7,"[0, 14, 29, 12, 10, 7]",6,6,"[1, 16, 18, 19, 22, 26]",89.46083457,18919,1499,1,6,10,1.3836596018032035
basic,3,39,0,0,0,26,"[0, 14, 29, 12, 10, 7, 26]",7,3,"[16, 19, 22]",70.77929288,20777,1858,1,4,10,1.4191124441944845
basic,3,39,0,0,0,22,"[0, 14, 29, 12, 10, 7, 26, 22]",8,2,"[16, 19]",53.05924773,23152,2375,1,1,10,1.594793297833885
basic,3,39,0,1,0,22,"[0, 14, 29, 12, 10, 7, 26, 22]",8,2,"[16, 19]",53.05924773,25859,2707,1,1,10,1.594793297833885
basic,4,42,0,0,0,0,[0],1,29,"[1, 2, 3, 4, 5, 6, 7, 8, 9, 10, 11, 12, 13, 14, 15, 16, 17, 18, 19, 20, 21, 22, 23, 24, 25, 26, 27, 28, 29]",300,194,-1,16,302,9,0.0
basic,4,42,0,0,0,4,"[0, 4]",2,28,"[1, 2, 3, 5, 6, 7, 8, 9, 10, 11, 12, 13, 14, 15, 16, 17, 18, 19, 20, 21, 22, 23, 24, 25, 26, 27, 28, 29]",209.5290102,6482,6288,4,80,9,1.0
basic,4,42,0,0,0,22,"[0, 4, 22]",3,24,"[1, 2, 3, 5, 6, 7, 8, 9, 10, 11, 13, 15, 17, 18, 19, 20, 21, 23, 24, 25, 26, 27, 28, 29]",198.3486703,8614,2132,3,53,9,1.1473032812120834
basic,4,42,0,0,0,8,"[0, 4, 22, 8]",4,21,"[1, 2, 3, 5, 6, 7, 10, 11, 15, 17, 18, 19, 20, 21, 23, 24, 25, 26, 27, 28, 29]",176.2127267,12181,3567,2,36,9,1.1513227322639639
basic,4,42,0,0,0,5,"[0, 4, 22, 8, 5]",5,14,"[1, 2, 3, 7, 11, 15, 18, 20, 21, 24, 25, 26, 27, 29]",141.7308474,14676,2495,4,7,8,1.4559372558985804
basic,4,42,0,0,0,1,"[0, 4, 22, 8, 5, 1]",6,4,"[2, 7, 26, 27]",72.61500258,17614,2938,4,2,8,1.4601784533178637
basic,4,42,0,1,0,1,"[0, 4, 22, 8, 5, 1]",6,4,"[2, 7, 26, 27]",72.61500258,20082,2468,4,2,8,1.4601784533178637
basic,5,11,0,0,0,0,[0],1,25,"[1, 2, 3, 4, 5, 6, 8, 9, 10, 11, 12, 13, 14, 15, 16, 17, 18, 19, 20, 22, 23, 25, 26, 27, 28]",300,163,-1,6,374,12,0.0
basic,5,11,0,0,0,18,"[0, 18]",2,21,"[1, 2, 4, 5, 6, 8, 9, 11, 12, 13, 14, 15, 16, 17, 19, 20, 22, 23, 25, 27, 28]",236.8493864,5200,5037,157,1477,11,1.0
basic,5,11,0,0,0,27,"[0, 18, 27]",3,19,"[1, 2, 4, 5, 6, 8, 9, 11, 12, 14, 15, 16, 17, 19, 20, 22, 23, 25, 28]",212.9956655,7491,2291,157,1315,11,1.060949579704323
basic,5,11,0,0,0,8,"[0, 18, 27, 8]",4,14,"[1, 2, 4, 5, 6, 11, 12, 15, 17, 19, 22, 23, 25, 28]",142.7817068,10282,2791,68,433,11,1.0827202875589923
basic,5,11,0,0,0,17,"[0, 18, 27, 8, 17]",5,13,"[1, 2, 4, 5, 6, 11, 12, 15, 19, 22, 23, 25, 28]",128.4638857,11600,1318,42,137,11,1.1662918234607762
basic,5,11,0,0,0,15,"[0, 18, 27, 8, 17, 15]",6,9,"[2, 5, 6, 11, 12, 19, 22, 25, 28]",115.8147751,13399,1799,38,57,11,1.1741312027420885
basic,5,11,0,0,0,11,"[0, 18, 27, 8, 17, 15, 11]",7,7,"[2, 5, 6, 12, 19, 22, 28]",97.70400479,15865,2466,24,0,11,1.1668679039564056
basic,5,11,0,0,0,28,"[0, 18, 27, 8, 17, 15, 11, 28]",8,4,"[2, 5, 19, 22]",78.28751696,18770,2905,6,0,11,1.2830334294205898
basic,5,11,0,0,0,2,"[0, 18, 27, 8, 17, 15, 11, 28, 2]",9,2,"[5, 22]",67.65737114,20336,1566,2,0,11,1.3017261967352185
basic,5,11,0,1,0,2,"[0, 18, 27, 8, 17, 15, 11, 28, 2]",9,2,"[5, 22]",67.65737114,22656,2320,2,0,11,1.3017261967352185
basic,6,20,0,0,0,0,[0],1,21,"[1, 2, 3, 4, 5, 6, 7, 8, 9, 12, 17, 18, 20, 21, 22, 23, 25, 26, 27, 28, 29]",300,189,-1,1,9,9,0.0
basic,6,20,0,0,0,12,"[0, 12]",2,20,"[1, 2, 3, 4, 5, 6, 7, 8, 9, 17, 18, 20, 21, 22, 23, 25, 26, 27, 28, 29]",271.5570747,10675,10486,1,8,9,1.0
basic,6,20,0,0,0,5,"[0, 12, 5]",3,13,"[1, 3, 4, 6, 8, 9, 20, 21, 23, 26, 27, 28, 29]",171.4321527,15435,4760,2,19,8,1.0232843285905395
basic,6,20,0,0,0,21,"[0, 12, 5, 21]",4,10,"[1, 4, 6, 8, 9, 20, 23, 26, 27, 28]",126.4321527,18558,3123,2,12,8,1.017525191374897
basic,6,20,0,0,0,8,"[0, 12, 5, 21, 8]",5,6,"[1, 6, 9, 23, 27, 28]",108.9679035,22402,3844,2,6,8,1.0391698601004782
basic,6,20,0,0,0,23,"[0, 12, 5, 21, 8, 23]",6,3,"[6, 9, 27]",64.28009758,24102,1700,2,1,8,1.0348450868606567
basic,6,20,0,1,0,23,"[0, 12, 5, 21, 8, 23]",6,3,"[6, 9, 27]",64.28009758,27642,3540,2,1,8,1.0348450868606567
basic,7,2,0,0,0,0,[0],1,23,"[1, 2, 4, 5, 6, 7, 8, 9, 12, 13, 15, 16, 17, 18, 19, 20, 22, 23, 25, 26, 27, 28, 29]",300,161,-1,70,620,10,0.0
basic,7,2,0,0,0,19,"[0, 19]",2,22,"[1, 2, 4, 5, 6, 7, 8, 9, 12, 13, 15, 16, 17, 18, 20, 22, 23, 25, 26, 27, 28, 29]",210.306076,3661,3500,67,431,10,1.0
basic,7,2,0,0,0,12,"[0, 19, 12]",3,17,"[1, 4, 5, 6, 7, 13, 15, 16, 17, 18, 20, 22, 25, 26, 27, 28, 29]",174.2921898,5394,1733,66,298,10,1.1107635036313153
basic,7,2,0,0,0,5,"[0, 19, 12, 5]",4,11,"[1, 6, 7, 13, 15, 16, 18, 22, 25, 26, 29]",144.7625437,6894,1500,38,136,10,1.0968174771581647
basic,7,2,0,0,0,22,"[0, 19, 12, 5, 22]",5,8,"[1, 6, 7, 13, 15, 18, 26, 29]",131.9562952,7811,917,20,63,10,1.0889910507461968
basic,7,2,0,0,0,13,"[0, 19, 12, 5, 22, 13]",6,7,"[1, 6, 7, 15, 18, 26, 29]",117.0902265,9252,1441,19,20,10,1.236526217328057
basic,7,2,0,0,0,18,"[0, 19, 12, 5, 22, 13, 18]",7,4,"[7, 15, 26, 29]",81.91921567,11161,1909,10,3,10,1.2128708213409936
basic,7,2,0,0,0,7,"[0, 19, 12, 5, 22, 13, 18, 7]",8,3,"[15, 26, 29]",71.62358553,15061,3900,5,0,10,1.2019811287894737
basic,7,2,0,1,0,7,"[0, 19, 12, 5, 22, 13, 18, 7]",8,3,"[15, 26, 29]",71.62358553,18850,3789,5,0,10,1.2019811287894737
basic,8,27,0,0,0,0,[0],1,26,"[1, 3, 5, 6, 7, 8, 9, 10, 11, 12, 13, 14, 15, 16, 17, 18, 19, 21, 22, 23, 24, 25, 26, 27, 28, 29]",300,193,-1,13,578,11,0.0
basic,8,27,0,0,0,15,"[0, 15]",2,24,"[1, 3, 5, 6, 7, 8, 9, 10, 11, 12, 13, 14, 16, 17, 18, 19, 21, 22, 23, 24, 25, 26, 27, 29]",263.7508621,2867,2674,6,219,11,1.0
basic,8,27,0,0,0,24,"[0, 15, 24]",3,20,"[1, 5, 6, 7, 8, 9, 10, 12, 13, 14, 16, 17, 18, 19, 21, 23, 25, 26, 27, 29]",246.5462115,4922,2055,6,130,11,1.130933077698322
basic,8,27,0,0,0,17,"[0, 15, 24, 17]",4,15,"[1, 6, 8, 10, 12, 13, 14, 16, 18, 19, 23, 25, 26, 27, 29]",229.9932662,6166,1244,4,60,11,1.1285538435963374
basic,8,27,0,0,0,12,"[0, 15, 24, 17, 12]",5,14,"[1, 6, 8, 10, 13, 14, 16, 18, 19, 23, 25, 26, 27, 29]",218.8129263,7855,1689,2,32,11,1.2561880288755216
basic,8,27,0,0,0,10,"[0, 15, 24, 17, 12, 10]",6,11,"[1, 8, 13, 14, 18, 19, 23, 25, 26, 27, 29]",207.7675653,9447,1592,2,28,11,1.2228289337766665
basic,8,27,0,0,0,13,"[0, 15, 24, 17, 12, 10, 13]",7,9,"[1, 8, 14, 18, 19, 23, 26, 27, 29]",167.9178476,11605,2158,2,18,11,1.3421291994761178
basic,8,27,0,0,0,19,"[0, 15, 24, 17, 12, 10, 13, 19]",8,5,"[1, 8, 14, 23, 29]",131.6825057,13084,1479,2,6,11,1.294749956153846
basic,8,27,0,0,0,8,"[0, 15, 24, 17, 12, 10, 13, 19, 8]",9,3,"[14, 23, 29]",116.816437,14484,1400,2,1,11,1.3554286578836865
basic,8,27,0,1,0,8,"[0, 15, 24, 17, 12, 10, 13, 19, 8]",9,3,"[14, 23, 29]",116.816437,22073,7589,2,1,11,1.3554286578836865
basic,9,24,0,0,0,0,[0],1,29,"[1, 2, 3, 4, 5, 6, 7, 8, 9, 10, 11, 12, 13, 14, 15, 16, 17, 18, 19, 20, 21, 22, 23, 24, 25, 26, 27, 28, 29]",300,198,-1,4,76,10,0.0
basic,9,24,0,0,0,14,"[0, 14]",2,27,"[1, 2, 3, 4, 5, 6, 8, 9, 10, 11, 12, 13, 15, 16, 17, 18, 19, 20, 21, 22, 23, 24, 25, 26, 27, 28, 29]",278.0455016,9186,8988,4,54,10,1.0
basic,9,24,0,0,0,16,"[0, 14, 16]",3,25,"[2, 3, 4, 5, 6, 8, 9, 10, 11, 12, 13, 15, 17, 18, 19, 20, 21, 22, 23, 24, 25, 26, 27, 28, 29]",188.9949542,11966,2780,4,31,10,1.238291113657358
basic,9,24,0,0,0,22,"[0, 14, 16, 22]",4,20,"[2, 3, 4, 6, 8, 9, 10, 11, 13, 15, 17, 20, 21, 23, 24, 25, 26, 27, 28, 29]",170.9671978,18721,6755,2,14,10,1.2244494133788653
basic,9,24,0,0,0,15,"[0, 14, 16, 22, 15]",5,17,"[3, 4, 6, 8, 9, 10, 11, 13, 17, 21, 23, 24, 25, 26, 27, 28, 29]",149.7539943,22158,3437,4,24,9,1.2560250275605345
basic,9,24,0,0,0,28,"[0, 14, 16, 22, 15, 28]",6,9,"[3, 4, 8, 9, 11, 13, 23, 26, 27]",104.4770687,25809,3651,3,6,9,1.1876953099279792
basic,9,24,0,0,0,23,"[0, 14, 16, 22, 15, 28, 23]",7,4,"[8, 9, 11, 27]",85.45077106,27391,1582,3,2,9,1.2177527140541342
basic,9,24,0,0,0,11,"[0, 14, 16, 22, 15, 28, 23, 11]",8,2,"[9, 27]",58.52494703,30075,2684,2,0,9,1.202187001529758
basic,9,24,0,1,0,11,"[0, 14, 16, 22, 15, 28, 23, 11]",8,2,"[9, 27]",58.52494703,32599,2524,2,0,9,1.202187001529758
basic,10,4,0,0,0,0,[0],1,26,"[3, 4, 5, 6, 7, 8, 10, 11, 12, 13, 14, 15, 16, 17, 18, 19, 20, 21, 22, 23, 24, 25, 26, 27, 28, 29]",300,172,-1,4,489,10,0.0
basic,10,4,0,0,0,28,"[0, 28]",2,21,"[3, 4, 5, 6, 10, 11, 12, 13, 14, 15, 16, 17, 19, 20, 21, 22, 23, 24, 25, 26, 27]",225.9392142,6323,6151,2,216,10,1.0
basic,10,4,0,0,0,11,"[0, 28, 11]",3,16,"[3, 4, 5, 6, 12, 13, 14, 16, 17, 20, 21, 22, 23, 24, 25, 26]",177.0618165,10503,4180,1,99,10,1.0005230107421244
basic,10,4,0,0,0,16,"[0, 28, 11, 16]",4,13,"[3, 4, 5, 6, 12, 13, 14, 17, 20, 21, 22, 24, 25]",162.0618165,13117,2614,38,165,9,1.0006824277240565
basic,10,4,0,0,0,21,"[0, 28, 11, 16, 21]",5,11,"[3, 4, 5, 12, 13, 14, 17, 20, 22, 24, 25]",117.8577443,15750,2633,2,19,9,1.232351750092952
basic,10,4,0,0,0,22,"[0, 28, 11, 16, 21, 22]",6,10,"[3, 4, 5, 12, 13, 14, 17, 20, 24, 25]",106.8123833,18583,2833,2,11,9,1.2176200669124166
basic,10,4,0,0,0,20,"[0, 28, 11, 16, 21, 22, 20]",7,4,"[3, 5, 17, 24]",76.57995037,21566,2983,2,2,9,1.222701479970445
basic,10,4,0,0,0,5,"[0, 28, 11, 16, 21, 22, 20, 5]",8,1,[24],46.16613772,23814,2248,1,0,9,1.2856674257382679
basic,10,4,0,1,0,5,"[0, 28, 11, 16, 21, 22, 20, 5]",8,1,[24],46.16613772,25439,1625,1,0,9,1.2856674257382679
basic,11,0,0,0,0,0,[0],1,27,"[2, 3, 4, 5, 6, 7, 8, 9, 10, 11, 12, 13, 14, 15, 16, 17, 19, 20, 21, 22, 23, 24, 25, 26, 27, 28, 29]",300,191,-1,104,1136,9,0.0
basic,11,0,0,0,0,28,"[0, 28]",2,26,"[2, 3, 4, 5, 6, 7, 8, 9, 10, 11, 12, 13, 14, 15, 16, 17, 19, 20, 21, 22, 23, 24, 25, 26, 27, 29]",194.9190788,13170,12979,39,388,9,1.0
basic,11,0,0,0,0,5,"[0, 28, 5]",3,21,"[2, 3, 4, 7, 8, 9, 11, 12, 13, 14, 15, 16, 17, 19, 20, 21, 23, 24, 25, 26, 29]",151.2613189,16353,3183,27,210,9,1.0978295127671733
basic,11,0,0,0,0,4,"[0, 28, 5, 4]",4,16,"[3, 7, 8, 9, 11, 12, 13, 14, 15, 17, 19, 20, 21, 23, 24, 26]",126.1814465,18399,2046,17,114,9,1.1103727063761901
basic,11,0,0,0,0,24,"[0, 28, 5, 4, 24]",5,12,"[3, 7, 8, 9, 11, 12, 15, 17, 19, 20, 23, 26]",114.7796922,24207,5808,10,46,9,1.1102188371994124
basic,11,0,0,0,0,26,"[0, 28, 5, 4, 24, 26]",6,11,"[3, 7, 8, 9, 11, 12, 15, 17, 19, 20, 23]",97.66244947,26131,1924,4,19,9,1.2524379957194889
basic,11,0,0,0,0,15,"[0, 28, 5, 4, 24, 26, 15]",7,5,"[3, 7, 8, 9, 11]",60.89289685,30177,4046,3,3,9,1.2649222014712165
basic,11,0,0,1,0,15,"[0, 28, 5, 4, 24, 26, 15]",7,5,"[3, 7, 8, 9, 11]",60.89289685,35700,5523,3,3,9,1.2649222014712165
basic,12,45,0,0,0,0,[0],1,24,"[1, 2, 3, 4, 5, 6, 7, 9, 10, 11, 12, 14, 15, 16, 17, 19, 20, 21, 22, 23, 24, 25, 27, 29]",300,160,-1,6,248,10,0.0
basic,12,45,0,0,0,15,"[0, 15]",2,23,"[1, 2, 3, 4, 5, 6, 7, 9, 10, 11, 12, 14, 16, 17, 19, 20, 21, 22, 23, 24, 25, 27, 29]",253.9022777,5170,5010,5,207,10,1.0
basic,12,45,0,0,0,23,"[0, 15, 23]",3,22,"[1, 2, 3, 4, 5, 6, 7, 9, 10, 11, 12, 14, 16, 17, 19, 20, 21, 22, 24, 25, 27, 29]",230.3014303,6668,1498,5,163,10,1.0006068457769497
basic,12,45,0,0,0,20,"[0, 15, 23, 20]",4,19,"[1, 2, 3, 5, 6, 7, 9, 10, 11, 12, 14, 16, 17, 19, 21, 22, 24, 25, 29]",188.8647316,8170,1502,5,137,10,1.2062119754673604
basic,12,45,0,0,0,10,"[0, 15, 23, 20, 10]",5,12,"[2, 3, 6, 7, 9, 12, 14, 17, 22, 24, 25, 29]",132.784432,9984,1814,1,54,10,1.1363907740691004
basic,12,45,0,0,0,29,"[0, 15, 23, 20, 10, 29]",6,8,"[2, 3, 6, 7, 12, 14, 22, 24]",111.2437728,11014,1030,1,21,10,1.1719694806770014
basic,12,45,0,0,0,3,"[0, 15, 23, 20, 10, 29, 3]",7,5,"[2, 6, 7, 12, 22]",91.24377276,11938,924,1,7,10,1.1637144299354454
basic,12,45,0,0,0,2,"[0, 15, 23, 20, 10, 29, 3, 2]",8,2,"[6, 7]",65.92579496,13935,1997,2,0,9,1.3965435955776868
basic,12,45,0,0,1,7,"[0, 15, 23, 20, 10, 29, 3, 2, 7]",9,0,[],27.91263934,16234,2299,1,0,9,2.050819128376323
basic,12,45,0,1,1,7,"[0, 15, 23, 20, 10, 29, 3, 2, 7]",9,0,[],27.91263934,20324,4090,1,0,9,2.050819128376323
basic,13,16,0,0,0,0,[0],1,29,"[1, 2, 3, 4, 5, 6, 7, 8, 9, 10, 11, 12, 13, 14, 15, 16, 17, 18, 19, 20, 21, 22, 23, 24, 25, 26, 27, 28, 29]",300,181,-1,13,161,9,0.0
basic,13,16,0,0,0,17,"[0, 17]",2,27,"[1, 2, 3, 4, 5, 7, 8, 9, 10, 11, 12, 13, 14, 15, 16, 18, 19, 20, 21, 22, 23, 24, 25, 26, 27, 28, 29]",241.3058776,4925,4744,2,58,9,1.0
basic,13,16,0,0,0,16,"[0, 17, 16]",3,26,"[1, 2, 3, 4, 5, 7, 8, 9, 10, 11, 12, 13, 14, 15, 18, 19, 20, 21, 22, 23, 24, 25, 26, 27, 28, 29]",212.9862731,6454,1529,2,52,9,1.0529535521792848
basic,13,16,0,0,0,8,"[0, 17, 16, 8]",4,19,"[2, 3, 4, 5, 9, 12, 13, 14, 15, 19, 20, 21, 22, 23, 25, 26, 27, 28, 29]",164.6127266,9620,3166,2,38,9,1.0915134501573105
basic,13,16,0,0,0,20,"[0, 17, 16, 8, 20]",5,10,"[3, 4, 5, 9, 12, 13, 15, 19, 21, 25]",106.8372993,11485,1865,1,15,9,1.067523143001942
basic,13,16,0,0,0,25,"[0, 17, 16, 8, 20, 25]",6,7,"[3, 4, 5, 9, 12, 13, 15]",94.18818869,12518,1033,1,9,9,1.1170093326933646
basic,13,16,0,0,0,9,"[0, 17, 16, 8, 20, 25, 9]",7,5,"[3, 4, 5, 13, 15]",81.38194021,14218,1700,1,4,9,1.1095076562662525
basic,13,16,0,1,0,9,"[0, 17, 16, 8, 20, 25, 9]",7,5,"[3, 4, 5, 13, 15]",81.38194021,16209,1991,1,4,9,1.1095076562662525
basic,14,36,0,0,0,0,[0],1,24,"[2, 4, 5, 6, 7, 8, 9, 10, 12, 13, 14, 15, 16, 17, 18, 19, 20, 22, 23, 25, 26, 27, 28, 29]",300,165,-1,2,200,10,0.0
basic,14,36,0,0,0,12,"[0, 12]",2,23,"[2, 4, 5, 6, 7, 8, 9, 10, 13, 14, 15, 16, 17, 18, 19, 20, 22, 23, 25, 26, 27, 28, 29]",277.7963967,9490,9325,90,804,9,1.0
basic,14,36,0,0,0,19,"[0, 12, 19]",3,14,"[2, 4, 8, 9, 10, 13, 16, 17, 18, 23, 25, 27, 28, 29]",211.554416,12824,3334,19,154,9,1.1474833105564386
basic,14,36,0,0,0,9,"[0, 12, 19, 9]",4,13,"[2, 4, 8, 10, 13, 16, 17, 18, 23, 25, 27, 28, 29]",196.4216701,13872,1048,11,46,9,1.4997183820105362
basic,14,36,0,0,0,17,"[0, 12, 19, 9, 17]",5,8,"[2, 10, 13, 16, 18, 23, 25, 27]",170.1728606,15640,1768,5,14,9,1.3736206814193799
basic,14,36,0,0,0,2,"[0, 12, 19, 9, 17, 2]",6,6,"[10, 13, 16, 18, 25, 27]",128.9418043,17525,1885,2,3,9,1.514738649989837
basic,14,36,0,0,0,25,"[0, 12, 19, 9, 17, 2, 25]",7,3,"[10, 13, 16]",103.9418043,19537,2012,1,2,9,1.7124456048984449
basic,14,36,0,0,0,13,"[0, 12, 19, 9, 17, 2, 25, 13]",8,1,[10],83.35054406,21188,1651,1,0,9,2.208869541804787
basic,14,36,0,1,0,13,"[0, 12, 19, 9, 17, 2, 25, 13]",8,1,[10],83.35054406,26290,5102,1,0,9,2.208869541804787
basic,15,28,0,0,0,0,[0],1,27,"[1, 2, 3, 4, 5, 6, 7, 8, 9, 10, 11, 12, 13, 14, 15, 16, 17, 18, 19, 20, 22, 23, 25, 26, 27, 28, 29]",300,183,-1,2,96,9,0.0
basic,15,28,0,0,0,14,"[0, 14]",2,14,"[1, 2, 3, 5, 7, 10, 11, 12, 13, 17, 18, 19, 20, 26]",147.8914861,5389,5206,1,26,8,1.0
basic,15,28,0,0,0,18,"[0, 14, 18]",3,11,"[1, 2, 3, 5, 7, 11, 12, 13, 17, 19, 26]",122.3963885,7153,1764,1,23,8,1.0675599824559303
basic,15,28,0,0,0,13,"[0, 14, 18, 13]",4,7,"[2, 7, 11, 12, 17, 19, 26]",97.9832773,8201,1048,1,9,8,1.0602397944415018
basic,15,28,0,0,0,12,"[0, 14, 18, 13, 12]",5,4,"[2, 7, 17, 19]",80.77862677,9384,1183,1,3,8,1.0640685934245377
basic,15,28,0,0,0,7,"[0, 14, 18, 13, 12, 7]",6,2,"[2, 19]",67.62568033,10403,1019,1,1,8,1.186262804928269
basic,15,28,0,0,0,19,"[0, 14, 18, 13, 12, 7, 19]",7,1,[2],39.89483108,13116,2713,1,0,8,1.424576333867947
basic,15,28,0,1,0,19,"[0, 14, 18, 13, 12, 7, 19]",7,1,[2],39.89483108,16440,3324,1,0,8,1.424576333867947
basic,16,35,0,0,0,0,[0],1,29,"[1, 2, 3, 4, 5, 6, 7, 8, 9, 10, 11, 12, 13, 14, 15, 16, 17, 18, 19, 20, 21, 22, 23, 24, 25, 26, 27, 28, 29]",300,180,-1,5,236,11,0.0
basic,16,35,0,0,0,24,"[0, 24]",2,27,"[1, 2, 4, 5, 6, 7, 8, 9, 10, 11, 12, 13, 14, 15, 16, 17, 18, 19, 20, 21, 22, 23, 25, 26, 27, 28, 29]",268.9838752,4886,4706,49,512,10,1.0
basic,16,35,0,0,0,17,"[0, 24, 17]",3,26,"[1, 2, 4, 5, 6, 7, 8, 9, 10, 11, 12, 13, 14, 15, 16, 18, 19, 20, 21, 22, 23, 25, 26, 27, 28, 29]",257.2791753,6269,1383,33,238,10,1.0771477201815276
basic,16,35,0,0,0,1,"[0, 24, 17, 1]",4,25,"[2, 4, 5, 6, 7, 8, 9, 10, 11, 12, 13, 14, 15, 16, 18, 19, 20, 21, 22, 23, 25, 26, 27, 28, 29]",241.4677869,7294,1025,26,151,10,1.2244804141479215
basic,16,35,0,0,0,15,"[0, 24, 17, 1, 15]",5,23,"[2, 4, 5, 6, 7, 8, 9, 10, 11, 12, 14, 16, 18, 19, 20, 21, 22, 23, 25, 26, 27, 28, 29]",218.6204676,8588,1294,26,78,10,1.4642196672428094
basic,16,35,0,0,0,9,"[0, 24, 17, 1, 15, 9]",6,8,"[5, 6, 18, 19, 23, 25, 27, 28]",136.3283052,14169,5581,4,17,10,1.4559671847403095
basic,16,35,0,0,0,18,"[0, 24, 17, 1, 15, 9, 18]",7,5,"[5, 6, 19, 23, 25]",116.3033208,16352,2183,2,5,10,1.428087426214553
basic,16,35,0,0,0,6,"[0, 24, 17, 1, 15, 9, 18, 6]",8,2,"[23, 25]",82.68784816,19534,3182,2,0,9,1.4370435192860334
basic,16,35,0,1,0,6,"[0, 24, 17, 1, 15, 9, 18, 6]",8,2,"[23, 25]",82.68784816,25708,6174,2,0,9,1.4370435192860334
basic,17,30,0,0,0,0,[0],1,19,"[3, 4, 5, 7, 9, 11, 16, 17, 18, 19, 20, 21, 22, 24, 25, 26, 27, 28, 29]",300,177,-1,5,41,8,0.0
basic,17,30,0,0,0,25,"[0, 25]",2,12,"[3, 5, 7, 9, 11, 16, 18, 19, 20, 24, 27, 29]",121.1005869,9357,9180,7,37,7,1.0
basic,17,30,0,0,0,27,"[0, 25, 27]",3,8,"[3, 5, 7, 18, 19, 20, 24, 29]",81.54050603,10736,1379,2,17,7,1.0432445497342653
basic,17,30,0,0,0,3,"[0, 25, 27, 3]",4,5,"[5, 7, 18, 20, 29]",62.43553286,12250,1514,2,6,7,1.0419393955972533
basic,17,30,0,0,0,18,"[0, 25, 27, 3, 18]",5,3,"[5, 7, 29]",44.18724527,15643,3393,3,0,6,1.0473579399266177
basic,17,30,0,0,1,5,"[0, 25, 27, 3, 18, 5]",6,0,[],31.14884046,18043,2400,1,0,6,1.1118098368956684
basic,17,30,0,1,1,5,"[0, 25, 27, 3, 18, 5]",6,0,[],31.14884046,23700,5657,1,0,6,1.1118098368956684
basic,18,17,0,0,0,0,[0],1,28,"[1, 2, 3, 4, 5, 6, 7, 8, 9, 10, 11, 12, 13, 14, 15, 16, 17, 18, 19, 20, 22, 23, 24, 25, 26, 27, 28, 29]",300,159,-1,2,73,8,0.0
basic,18,17,0,0,0,9,"[0, 9]",2,25,"[1, 2, 3, 5, 6, 7, 8, 10, 11, 12, 14, 15, 16, 17, 18, 19, 20, 22, 23, 24, 25, 26, 27, 28, 29]",210.5293344,4102,3943,1,34,8,1.0
basic,18,17,0,0,0,16,"[0, 9, 16]",3,21,"[1, 2, 3, 5, 7, 8, 10, 11, 12, 14, 17, 18, 19, 20, 22, 23, 25, 26, 27, 28, 29]",197.1876704,5137,1035,1,26,8,1.173103464220352
basic,18,17,0,0,0,17,"[0, 9, 16, 17]",4,9,"[2, 7, 8, 10, 12, 14, 26, 27, 29]",155.5103384,9086,3949,2,9,7,1.3686022655428802
basic,18,17,0,0,0,2,"[0, 9, 16, 17, 2]",5,4,"[7, 8, 10, 27]",117.1828026,11652,2566,1,3,7,1.764970391617776
basic,18,17,0,0,0,8,"[0, 9, 16, 17, 2, 8]",6,1,[7],82.06870286,13583,1931,1,0,7,1.6282583682866314
basic,18,17,0,1,0,8,"[0, 9, 16, 17, 2, 8]",6,1,[7],82.06870286,15407,1824,1,0,7,1.6282583682866314
basic,19,26,0,0,0,0,[0],1,29,"[1, 2, 3, 4, 5, 6, 7, 8, 9, 10, 11, 12, 13, 14, 15, 16, 17, 18, 19, 20, 21, 22, 23, 24, 25, 26, 27, 28, 29]",300,169,-1,9,226,9,0.0
basic,19,26,0,0,0,4,"[0, 4]",2,13,"[5, 6, 10, 12, 13, 14, 16, 17, 19, 21, 23, 26, 29]",178.7976898,11485,11316,4,118,8,1.0
basic,19,26,0,0,0,17,"[0, 4, 17]",3,10,"[5, 6, 10, 12, 13, 14, 16, 21, 23, 29]",157.7026667,12572,1087,1,35,8,1.0014732588101924
basic,19,26,0,0,0,14,"[0, 4, 17, 14]",4,8,"[5, 6, 10, 13, 16, 21, 23, 29]",135.2304616,13418,846,8,10,7,1.0224473419120523
basic,19,26,0,0,0,6,"[0, 4, 17, 14, 6]",5,3,"[10, 16, 29]",114.2066656,14840,1422,3,0,7,1.1567884530120902
basic,19,26,0,0,0,10,"[0, 4, 17, 14, 6, 10]",6,1,[29],84.93210325,16103,1263,1,0,7,1.3290744181400498
basic,19,26,0,1,0,10,"[0, 4, 17, 14, 6, 10]",6,1,[29],84.93210325,18791,2688,1,0,7,1.3290744181400498
basic,20,10,0,0,0,0,[0],1,29,"[1, 2, 3, 4, 5, 6, 7, 8, 9, 10, 11, 12, 13, 14, 15, 16, 17, 18, 19, 20, 21, 22, 23, 24, 25, 26, 27, 28, 29]",300,157,-1,1,100,9,0.0
basic,20,10,0,0,1,16,"[0, 16]",2,0,[],27.26203051,6764,6607,1,0,2,1.0
basic,20,10,0,1,1,16,"[0, 16]",2,0,[],27.26203051,14689,7925,1,0,2,1.0
basic,21,32,0,0,0,0,[0],1,29,"[1, 2, 3, 4, 5, 6, 7, 8, 9, 10, 11, 12, 13, 14, 15, 16, 17, 18, 19, 20, 21, 22, 23, 24, 25, 26, 27, 28, 29]",300,177,-1,17,359,10,0.0
basic,21,32,0,0,0,15,"[0, 15]",2,24,"[2, 3, 4, 5, 6, 7, 8, 9, 10, 11, 12, 13, 14, 16, 17, 19, 20, 22, 23, 24, 25, 26, 27, 28]",214.6185032,3396,3219,11,153,9,1.0
basic,21,32,0,0,0,28,"[0, 15, 28]",3,21,"[2, 3, 5, 7, 8, 9, 10, 11, 12, 13, 14, 16, 17, 19, 20, 22, 23, 24, 25, 26, 27]",203.2167489,4830,1434,11,119,9,1.000160051986942
basic,21,32,0,0,0,12,"[0, 15, 28, 12]",4,19,"[2, 3, 5, 7, 8, 9, 10, 11, 13, 16, 17, 19, 20, 22, 23, 24, 25, 26, 27]",184.243083,6348,1518,8,71,9,1.0281484763748023
basic,21,32,0,0,0,16,"[0, 15, 28, 12, 16]",5,17,"[2, 3, 5, 7, 8, 9, 10, 11, 13, 17, 19, 20, 22, 23, 24, 26, 27]",168.5906071,7779,1431,6,38,9,1.1190771370096
basic,21,32,0,0,0,22,"[0, 15, 28, 12, 16, 22]",6,10,"[2, 3, 5, 8, 9, 10, 11, 17, 20, 27]",134.7527585,9366,1587,4,16,9,1.1702311155319893
basic,21,32,0,0,0,9,"[0, 15, 28, 12, 16, 22, 9]",7,6,"[2, 8, 10, 17, 20, 27]",112.5491552,10896,1530,2,4,9,1.2381424719932013
basic,21,32,0,0,0,8,"[0, 15, 28, 12, 16, 22, 9, 8]",8,1,[20],67.42709849,14311,3415,1,0,9,1.187013645273504
basic,21,32,0,1,0,8,"[0, 15, 28, 12, 16, 22, 9, 8]",8,1,[20],67.42709849,15668,1357,1,0,9,1.187013645273504
basic,22,14,0,0,0,0,[0],1,29,"[1, 2, 3, 4, 5, 6, 7, 8, 9, 10, 11, 12, 13, 14, 15, 16, 17, 18, 19, 20, 21, 22, 23, 24, 25, 26, 27, 28, 29]",300,177,-1,8,157,10,0.0
basic,22,14,0,0,0,15,"[0, 15]",2,20,"[1, 2, 3, 4, 7, 8, 9, 13, 17, 18, 19, 20, 21, 22, 23, 25, 26, 27, 28, 29]",216.7053423,3101,2924,8,102,10,1.0
basic,22,14,0,0,0,28,"[0, 15, 28]",3,17,"[1, 2, 3, 4, 7, 8, 9, 13, 17, 18, 19, 20, 22, 23, 25, 26, 27]",197.4959696,4874,1773,8,48,10,1.0446007867311968
basic,22,14,0,0,0,17,"[0, 15, 28, 17]",4,14,"[1, 2, 3, 4, 7, 8, 13, 18, 19, 20, 22, 23, 25, 26]",184.0423455,6640,1766,8,39,10,1.0729463354689972
basic,22,14,0,0,0,18,"[0, 15, 28, 17, 18]",5,9,"[1, 2, 4, 7, 8, 19, 23, 25, 26]",119.412631,8267,1627,8,27,10,1.5035901079219378
basic,22,14,0,0,0,8,"[0, 15, 28, 17, 18, 8]",6,8,"[1, 2, 4, 7, 19, 23, 25, 26]",105.8111605,9751,1484,8,18,10,1.4819689987843856
basic,22,14,0,0,0,19,"[0, 15, 28, 17, 18, 8, 19]",7,5,"[1, 7, 23, 25, 26]",85.19563238,11425,1674,4,9,10,1.4526746797093781
basic,22,14,0,0,0,1,"[0, 15, 28, 17, 18, 8, 19, 1]",8,4,"[7, 23, 25, 26]",69.96408617,13627,2202,3,1,10,1.4876985459270997
basic,22,14,0,1,0,1,"[0, 15, 28, 17, 18, 8, 19, 1]",8,4,"[7, 23, 25, 26]",69.96408617,15907,2280,3,1,10,1.4876985459270997
undo,23,32,0,0,0,0,[0],1,29,"[1, 2, 3, 4, 5, 6, 7, 8, 9, 10, 11, 12, 13, 14, 15, 16, 17, 18, 19, 20, 21, 22, 23, 24, 25, 26, 27, 28, 29]",300,165,-1,17,359,10,0.0
undo,23,32,0,0,0,15,"[0, 15]",2,24,"[2, 3, 4, 5, 6, 7, 8, 9, 10, 11, 12, 13, 14, 16, 17, 19, 20, 22, 23, 24, 25, 26, 27, 28]",214.6185032,8224,8059,11,153,9,1.0
undo,23,32,0,0,0,28,"[0, 15, 28]",3,21,"[2, 3, 5, 7, 8, 9, 10, 11, 12, 13, 14, 16, 17, 19, 20, 22, 23, 24, 25, 26, 27]",203.2167489,9262,1038,11,119,9,1.000160051986942
undo,23,32,0,0,0,12,"[0, 15, 28, 12]",4,19,"[2, 3, 5, 7, 8, 9, 10, 11, 13, 16, 17, 19, 20, 22, 23, 24, 25, 26, 27]",184.243083,10474,1212,8,71,9,1.0281484763748023
undo,23,32,0,0,0,16,"[0, 15, 28, 12, 16]",5,17,"[2, 3, 5, 7, 8, 9, 10, 11, 13, 17, 19, 20, 22, 23, 24, 26, 27]",168.5906071,11915,1441,6,38,9,1.1190771370096
undo,23,32,0,0,0,22,"[0, 15, 28, 12, 16, 22]",6,10,"[2, 3, 5, 8, 9, 10, 11, 17, 20, 27]",134.7527585,14047,2132,4,16,9,1.1702311155319893
undo,23,32,0,0,0,9,"[0, 15, 28, 12, 16, 22, 9]",7,6,"[2, 8, 10, 17, 20, 27]",112.5491552,14981,934,2,4,9,1.2381424719932013
undo,23,32,0,0,0,2,"[0, 15, 28, 12, 16, 22, 9, 2]",8,1,[17],61.46099608,17099,2118,1,0,9,1.6446273109221003
undo,23,32,0,0,1,17,"[0, 15, 28, 12, 16, 22, 9, 2, 17]",9,0,[],21.64893761,18947,1848,1,0,9,2.46318728800517
undo,23,32,1,0,0,2,"[0, 15, 28, 12, 16, 22, 9, 2]",8,1,[17],61.46099608,21504,2557,1,0,9,1.6446273109221003
undo,23,32,0,1,0,2,"[0, 15, 28, 12, 16, 22, 9, 2]",8,1,[17],61.46099608,24321,2817,1,0,9,1.6446273109221003
undo,24,16,0,0,0,0,[0],1,29,"[1, 2, 3, 4, 5, 6, 7, 8, 9, 10, 11, 12, 13, 14, 15, 16, 17, 18, 19, 20, 21, 22, 23, 24, 25, 26, 27, 28, 29]",300,160,-1,13,161,9,0.0
undo,24,16,0,0,0,28,"[0, 28]",2,27,"[1, 2, 3, 4, 5, 7, 8, 9, 10, 11, 12, 13, 14, 15, 16, 17, 18, 19, 20, 21, 22, 23, 24, 25, 26, 27, 29]",284.3475242,6339,6179,11,92,9,1.0
undo,24,16,0,0,0,8,"[0, 28, 8]",3,19,"[2, 3, 4, 5, 9, 12, 13, 14, 15, 16, 17, 19, 20, 21, 22, 25, 26, 27, 29]",161.7587808,13768,7429,1,32,8,1.1145224091863943
undo,24,16,0,0,0,20,"[0, 28, 8, 20]",4,10,"[3, 4, 5, 9, 12, 13, 15, 16, 19, 25]",103.9833535,16135,2367,1,13,8,1.083295614495312
undo,24,16,0,0,0,25,"[0, 28, 8, 20, 25]",5,7,"[3, 4, 5, 9, 12, 13, 15]",91.33424285,17417,1282,1,8,8,1.1324986484813673
undo,24,16,0,0,0,9,"[0, 28, 8, 20, 25, 9]",6,4,"[4, 5, 13, 15]",78.52799437,18968,1551,1,3,8,1.123991705585375
undo,24,16,0,0,0,15,"[0, 28, 8, 20, 25, 9, 15]",7,1,[5],39.6306937,22719,3751,1,0,8,1.2272835936235567
undo,24,16,0,0,1,5,"[0, 28, 8, 20, 25, 9, 15, 5]",8,0,[],10.20281576,25548,2829,1,0,8,1.5322678571157289
undo,24,16,1,0,0,15,"[0, 28, 8, 20, 25, 9, 15]",7,1,[5],39.6306937,27091,1543,1,0,8,1.2272835936235567
undo,24,16,0,1,0,15,"[0, 28, 8, 20, 25, 9, 15]",7,1,[5],39.6306937,30073,2982,1,0,8,1.2272835936235567
undo,25,17,0,0,0,0,[0],1,28,"[1, 2, 3, 4, 5, 6, 7, 8, 9, 10, 11, 12, 13, 14, 15, 16, 17, 18, 19, 20, 22, 23, 24, 25, 26, 27, 28, 29]",300,169,-1,2,73,8,0.0
undo,25,17,0,0,0,9,"[0, 9]",2,25,"[1, 2, 3, 5, 6, 7, 8, 10, 11, 12, 14, 15, 16, 17, 18, 19, 20, 22, 23, 24, 25, 26, 27, 28, 29]",210.5293344,5800,5631,1,34,8,1.0
undo,25,17,0,0,0,16,"[0, 9, 16]",3,21,"[1, 2, 3, 5, 7, 8, 10, 11, 12, 14, 17, 18, 19, 20, 22, 23, 25, 26, 27, 28, 29]",197.1876704,6921,1121,1,26,8,1.173103464220352
undo,25,17,0,0,0,2,"[0, 9, 16, 2]",4,18,"[1, 3, 5, 7, 8, 10, 11, 12, 14, 17, 18, 19, 23, 25, 26, 27, 28, 29]",181.0631549,15802,8881,1,23,8,1.14825089247282
undo,25,17,0,0,0,17,"[0, 9, 16, 2, 17]",5,7,"[7, 8, 12, 14, 26, 27, 29]",142.7356191,21408,5606,4,5,7,1.4896040699768547
undo,25,17,0,0,0,8,"[0, 9, 16, 2, 17, 8]",6,3,"[7, 12, 27]",104.5256727,23408,2000,3,0,7,1.4604726966175894
undo,25,17,0,0,1,7,"[0, 9, 16, 2, 17, 8, 7]",7,0,[],33.81499459,25808,2400,1,0,7,1.4474701869793896
undo,25,17,1,0,0,8,"[0, 9, 16, 2, 17, 8]",6,3,"[7, 12, 27]",104.5256727,27263,1455,3,0,7,1.4604726966175894
undo,25,17,0,1,0,8,"[0, 9, 16, 2, 17, 8]",6,3,"[7, 12, 27]",104.5256727,30563,3300,3,0,7,1.4604726966175894
undo,26,23,0,0,0,0,[0],1,28,"[1, 2, 3, 4, 5, 6, 7, 8, 9, 10, 11, 12, 13, 14, 15, 16, 17, 18, 19, 20, 21, 22, 23, 25, 26, 27, 28, 29]",300,187,-1,76,2626,10,0.0
undo,26,23,0,0,0,13,"[0, 13]",2,19,"[1, 2, 3, 5, 6, 7, 8, 9, 10, 12, 14, 17, 18, 19, 21, 22, 23, 27, 29]",189.3202819,4124,3937,9,168,10,1.0
undo,26,23,0,0,0,12,"[0, 13, 12]",3,16,"[1, 2, 3, 6, 7, 8, 9, 10, 14, 17, 18, 21, 22, 23, 27, 29]",177.2372359,5701,1577,9,96,10,1.0014195490503164
undo,26,23,0,0,0,2,"[0, 13, 12, 2]",4,12,"[1, 3, 6, 7, 9, 10, 14, 18, 21, 22, 27, 29]",163.3447919,7491,1790,4,30,10,1.0014394317924602
undo,26,23,0,0,0,9,"[0, 13, 12, 2, 9]",5,10,"[1, 6, 7, 10, 14, 18, 21, 22, 27, 29]",150.3063871,9739,2248,1,8,10,1.1457747074799831
undo,26,23,0,0,0,14,"[0, 13, 12, 2, 9, 14]",6,8,"[1, 6, 7, 10, 18, 22, 27, 29]",139.8660806,11781,2042,1,6,10,1.1365880299138118
undo,26,23,0,0,0,29,"[0, 13, 12, 2, 9, 14, 29]",7,5,"[1, 6, 7, 10, 22]",92.43191571,16783,5002,1,3,10,1.3460297288480787
undo,26,23,0,0,0,7,"[0, 13, 12, 2, 9, 14, 29, 7]",8,2,"[1, 10]",68.34872655,19566,2783,1,1,10,1.3773159292410473
undo,26,23,0,0,0,10,"[0, 13, 12, 2, 9, 14, 29, 7, 10]",9,1,[1],40.88966612,21969,2403,1,0,10,1.3556884556214648
undo,26,23,0,0,1,1,"[0, 13, 12, 2, 9, 14, 29, 7, 10, 1]",10,0,[],12.23656855,24284,2315,1,0,10,1.3259861306330887
undo,26,23,1,0,0,10,"[0, 13, 12, 2, 9, 14, 29, 7, 10]",9,1,[1],40.88966612,25974,1690,1,0,10,1.3556884556214648
undo,26,23,0,1,0,10,"[0, 13, 12, 2, 9, 14, 29, 7, 10]",9,1,[1],40.88966612,28790,2816,1,0,10,1.3556884556214648
undo,27,35,0,0,0,0,[0],1,29,"[1, 2, 3, 4, 5, 6, 7, 8, 9, 10, 11, 12, 13, 14, 15, 16, 17, 18, 19, 20, 21, 22, 23, 24, 25, 26, 27, 28, 29]",300,182,-1,5,236,11,0.0
undo,27,35,0,0,0,27,"[0, 27]",2,27,"[1, 2, 4, 5, 6, 7, 8, 9, 10, 11, 12, 13, 14, 15, 16, 17, 18, 19, 20, 21, 22, 23, 24, 25, 26, 28, 29]",278.7867966,12072,11890,5,144,11,1.0
undo,27,35,0,0,0,24,"[0, 27, 24]",3,25,"[1, 2, 4, 5, 6, 7, 8, 9, 10, 11, 12, 13, 15, 16, 17, 18, 19, 20, 21, 22, 23, 25, 26, 28, 29]",234.6053525,15167,3095,3,80,11,2.1084080567904624
undo,27,35,0,0,0,17,"[0, 27, 24, 17]",4,20,"[1, 2, 4, 5, 6, 7, 8, 9, 10, 15, 16, 18, 19, 20, 21, 23, 25, 26, 28, 29]",222.9006526,17326,2159,3,50,11,1.9439555968916868
undo,27,35,0,0,0,1,"[0, 27, 24, 17, 1]",5,18,"[2, 4, 5, 6, 8, 9, 10, 15, 16, 18, 19, 20, 21, 23, 25, 26, 28, 29]",207.0892643,19078,1752,3,39,11,1.9436711872547336
undo,27,35,0,0,0,23,"[0, 27, 24, 17, 1, 23]",6,11,"[4, 5, 6, 9, 15, 18, 19, 25, 26, 28, 29]",148.5657647,25577,6499,11,15,10,1.4243213833690815
undo,27,35,0,0,0,9,"[0, 27, 24, 17, 1, 23, 9]",7,6,"[5, 6, 15, 18, 19, 25]",110.9227043,28445,2868,4,3,10,1.6819666849239467
undo,27,35,0,0,0,18,"[0, 27, 24, 17, 1, 23, 9, 18]",8,3,"[5, 6, 25]",90.89771989,30126,1681,2,1,10,1.6255946395893497
undo,27,35,0,0,0,25,"[0, 27, 24, 17, 1, 23, 9, 18, 25]",9,1,[6],57.05987126,33443,3317,1,0,10,1.5001735667260112
undo,27,35,0,0,1,6,"[0, 27, 24, 17, 1, 23, 9, 18, 25, 6]",10,0,[],33.03904696,35594,2151,1,0,10,1.7653615051909883
undo,27,35,1,0,0,25,"[0, 27, 24, 17, 1, 23, 9, 18, 25]",9,1,[6],57.05987126,37449,1855,1,0,10,1.5001735667260112
undo,27,35,0,1,0,25,"[0, 27, 24, 17, 1, 23, 9, 18, 25]",9,1,[6],57.05987126,38783,1334,1,0,10,1.5001735667260112
undo,28,4,0,0,0,0,[0],1,26,"[3, 4, 5, 6, 7, 8, 10, 11, 12, 13, 14, 15, 16, 17, 18, 19, 20, 21, 22, 23, 24, 25, 26, 27, 28, 29]",300,164,-1,4,489,10,0.0
undo,28,4,0,0,0,13,"[0, 13]",2,23,"[3, 4, 5, 6, 7, 10, 11, 12, 14, 15, 16, 17, 19, 20, 21, 22, 23, 24, 25, 26, 27, 28, 29]",232.1030192,6133,5969,2,270,10,1.0
undo,28,4,0,0,0,28,"[0, 13, 28]",3,19,"[3, 4, 5, 6, 10, 11, 12, 14, 15, 16, 17, 19, 20, 21, 22, 23, 24, 25, 26]",200.5277124,7548,1415,2,221,10,1.3431168257921573
undo,28,4,0,0,0,11,"[0, 13, 28, 11]",4,13,"[3, 4, 5, 6, 12, 14, 16, 17, 20, 21, 22, 24, 25]",151.6503148,10164,2616,1,107,10,1.2073325752283492
undo,28,4,0,0,0,16,"[0, 13, 28, 11, 16]",5,11,"[3, 4, 5, 6, 14, 17, 20, 21, 22, 24, 25]",136.6503148,12547,2383,47,79,9,1.1850319861135215
undo,28,4,0,0,0,21,"[0, 13, 28, 11, 16, 21]",6,9,"[3, 4, 5, 14, 17, 20, 22, 24, 25]",92.44624256,15664,3117,5,13,9,1.4042827966336204
undo,28,4,0,0,0,22,"[0, 13, 28, 11, 16, 21, 22]",7,6,"[3, 5, 17, 20, 24, 25]",81.40088154,17380,1716,5,3,9,1.377783306160847
undo,28,4,0,0,0,20,"[0, 13, 28, 11, 16, 21, 22, 20]",8,2,"[5, 17]",51.16844862,19566,2186,2,0,9,1.3617699335378481
undo,28,4,0,0,1,5,"[0, 13, 28, 11, 16, 21, 22, 20, 5]",9,0,[],20.75463597,21697,2131,1,0,9,1.4143765733106568
undo,28,4,1,0,0,20,"[0, 13, 28, 11, 16, 21, 22, 20]",8,2,"[5, 17]",51.16844862,23205,1508,2,0,9,1.3617699335378481
undo,28,4,0,1,0,20,"[0, 13, 28, 11, 16, 21, 22, 20]",8,2,"[5, 17]",51.16844862,25105,1900,2,0,9,1.3617699335378481
undo,29,14,0,0,0,0,[0],1,29,"[1, 2, 3, 4, 5, 6, 7, 8, 9, 10, 11, 12, 13, 14, 15, 16, 17, 18, 19, 20, 21, 22, 23, 24, 25, 26, 27, 28, 29]",300,190,-1,8,157,10,0.0
undo,29,14,0,0,0,15,"[0, 15]",2,20,"[1, 2, 3, 4, 7, 8, 9, 13, 17, 18, 19, 20, 21, 22, 23, 25, 26, 27, 28, 29]",216.7053423,4803,4613,8,102,10,1.0
undo,29,14,0,0,0,18,"[0, 15, 18]",3,13,"[1, 2, 4, 7, 8, 13, 17, 19, 20, 23, 25, 26, 28]",153.6418822,7606,2803,26,101,9,1.2185936334127205
undo,29,14,0,0,0,8,"[0, 15, 18, 8]",4,10,"[1, 2, 4, 7, 17, 19, 23, 25, 26, 28]",140.0404117,9022,1416,26,60,9,1.2207454945880838
undo,29,14,0,0,0,1,"[0, 15, 18, 8, 1]",5,9,"[2, 4, 7, 17, 19, 23, 25, 26, 28]",116.4395643,10973,1951,13,25,9,1.1871302560279655
undo,29,14,0,0,0,19,"[0, 15, 18, 8, 1, 19]",6,7,"[2, 4, 7, 17, 23, 25, 26]",101.208018,12602,1629,11,8,9,1.3443864386012363
undo,29,14,0,0,0,23,"[0, 15, 18, 8, 1, 19, 23]",7,4,"[4, 7, 25, 26]",56.9361308,16925,4323,4,1,9,1.293094159713875
undo,29,14,0,0,0,26,"[0, 15, 18, 8, 1, 19, 23, 26]",8,2,"[7, 25]",46.11947697,18772,1847,2,0,9,1.2796488356473856
undo,29,14,0,1,0,26,"[0, 15, 18, 8, 1, 19, 23, 26]",8,2,"[7, 25]",46.11947697,24031,5259,2,0,9,1.2796488356473856
undo,30,37,0,0,0,0,[0],1,29,"[1, 2, 3, 4, 5, 6, 7, 8, 9, 10, 11, 12, 13, 14, 15, 16, 17, 18, 19, 20, 21, 22, 23, 24, 25, 26, 27, 28, 29]",300,167,-1,6,168,10,0.0
undo,30,37,0,0,0,19,"[0, 19]",2,19,"[1, 2, 4, 5, 6, 7, 9, 10, 11, 15, 17, 18, 20, 21, 22, 25, 26, 28, 29]",185.6627795,6471,6304,25,244,9,1.0
undo,30,37,0,0,0,21,"[0, 19, 21]",3,14,"[1, 2, 4, 7, 10, 11, 15, 17, 18, 20, 22, 25, 26, 29]",144.5531699,8024,1553,10,75,9,1.001632816594558
undo,30,37,0,0,0,15,"[0, 19, 21, 15]",4,9,"[1, 2, 4, 7, 18, 20, 22, 26, 29]",129.5531699,9491,1467,5,32,9,1.0243376499143988
undo,30,37,0,0,0,20,"[0, 19, 21, 15, 20]",5,8,"[1, 2, 4, 7, 18, 22, 26, 29]",112.5531699,11138,1647,5,14,9,1.250507291508492
undo,30,37,0,0,0,1,"[0, 19, 21, 15, 20, 1]",6,6,"[2, 4, 7, 18, 22, 26]",78.31868434,13055,1917,4,4,9,1.4002166443864243
undo,30,37,0,0,0,2,"[0, 19, 21, 15, 20, 1, 2]",7,4,"[4, 7, 18, 22]",61.11403381,14534,1479,2,2,9,1.5802253600182588
undo,30,37,0,0,0,4,"[0, 19, 21, 15, 20, 1, 2, 4]",8,1,[22],49.71227956,16723,2189,1,0,9,1.5399187067712754
undo,30,37,0,0,1,22,"[0, 19, 21, 15, 20, 1, 2, 4, 22]",9,0,[],24.71227956,18404,1681,1,0,9,1.6903775033413582
undo,30,37,1,0,0,4,"[0, 19, 21, 15, 20, 1, 2, 4]",8,1,[22],49.71227956,19910,1506,1,0,9,1.5399187067712754
undo,30,37,0,1,0,4,"[0, 19, 21, 15, 20, 1, 2, 4]",8,1,[22],49.71227956,22560,2650,1,0,9,1.5399187067712754
undo,31,34,0,0,0,0,[0],1,25,"[1, 3, 4, 5, 6, 7, 8, 9, 10, 11, 12, 13, 15, 18, 19, 20, 21, 22, 23, 24, 25, 26, 27, 28, 29]",300,170,-1,12,367,10,0.0
undo,31,34,0,0,0,13,"[0, 13]",2,24,"[1, 3, 4, 5, 6, 7, 8, 9, 10, 11, 12, 15, 18, 19, 20, 21, 22, 23, 24, 25, 26, 27, 28, 29]",279.9750156,8572,8402,12,331,10,1.0
undo,31,34,0,0,0,1,"[0, 13, 1]",3,16,"[3, 5, 7, 8, 9, 10, 11, 12, 19, 21, 22, 23, 24, 25, 27, 29]",211.8574701,11804,3232,3,92,10,1.0010381285747127
undo,31,34,0,0,0,8,"[0, 13, 1, 8]",4,14,"[3, 5, 7, 9, 10, 11, 12, 19, 22, 23, 24, 25, 27, 29]",201.0871405,13521,1717,2,54,10,1.1636807
undo,31,34,0,0,0,25,"[0, 13, 1, 8, 25]",5,12,"[3, 5, 7, 9, 10, 11, 12, 22, 23, 24, 27, 29]",183.999133,15239,1718,2,28,10,1.1396208815936457
undo,31,34,0,0,0,24,"[0, 13, 1, 8, 25, 24]",6,11,"[3, 5, 7, 9, 10, 11, 12, 22, 23, 27, 29]",166.5062774,17370,2131,2,23,10,1.374180768736554
undo,31,34,0,0,0,12,"[0, 13, 1, 8, 25, 24, 12]",7,7,"[7, 9, 10, 11, 22, 23, 27]",115.4670767,24902,7532,1,8,10,1.4994254760835948
undo,31,34,0,0,0,7,"[0, 13, 1, 8, 25, 24, 12, 7]",8,5,"[9, 11, 22, 23, 27]",100.4337804,26586,1684,1,4,10,1.758992610425009
undo,31,34,0,0,0,23,"[0, 13, 1, 8, 25, 24, 12, 7, 23]",9,1,[27],72.27352467,28459,1873,1,0,10,2.399781305190153
undo,31,34,0,0,1,27,"[0, 13, 1, 8, 25, 24, 12, 7, 23, 27]",10,0,[],18.60789321,34644,6185,1,0,10,4.766619878750327
undo,31,34,1,0,0,23,"[0, 13, 1, 8, 25, 24, 12, 7, 23]",9,1,[27],72.27352467,37416,2772,1,0,10,2.399781305190153
undo,31,34,0,1,0,23,"[0, 13, 1, 8, 25, 24, 12, 7, 23]",9,1,[27],72.27352467,39066,1650,1,0,10,2.399781305190153
undo,32,44,0,0,0,0,[0],1,29,"[1, 2, 3, 4, 5, 6, 7, 8, 9, 10, 11, 12, 13, 14, 15, 16, 17, 18, 19, 20, 21, 22, 23, 24, 25, 26, 27, 28, 29]",300,200,-1,13,126,7,0.0
undo,32,44,0,0,0,9,"[0, 9]",2,17,"[2, 4, 5, 7, 8, 10, 11, 12, 13, 14, 20, 22, 23, 24, 25, 26, 28]",141.32423,8132,7932,3,26,7,1.0
undo,32,44,0,0,0,4,"[0, 9, 4]",3,15,"[2, 5, 7, 8, 10, 11, 12, 14, 20, 22, 23, 24, 25, 26, 28]",121.6265143,12475,4343,3,21,7,1.0155532843148096
undo,32,44,0,0,0,24,"[0, 9, 4, 24]",4,5,"[7, 11, 14, 20, 23]",86.97106745,15049,2574,3,2,6,1.4176434179720834
undo,32,44,0,0,0,11,"[0, 9, 4, 24, 11]",5,1,[14],60.04524341,16899,1850,1,0,6,1.6298957555465912
undo,32,44,0,0,1,14,"[0, 9, 4, 24, 11, 14]",6,0,[],27.84275904,19864,2965,1,0,6,1.5217619331476957
undo,32,44,1,0,0,11,"[0, 9, 4, 24, 11]",5,1,[14],60.04524341,21438,1574,1,0,6,1.6298957555465912
undo,32,44,0,1,0,11,"[0, 9, 4, 24, 11]",5,1,[14],60.04524341,22538,1100,1,0,6,1.6298957555465912
undo,33,11,0,0,0,0,[0],1,25,"[1, 2, 3, 4, 5, 6, 8, 9, 10, 11, 12, 13, 14, 15, 16, 17, 18, 19, 20, 22, 23, 25, 26, 27, 28]",300,158,-1,6,374,12,0.0
undo,33,11,0,0,0,22,"[0, 22]",2,9,"[2, 5, 8, 11, 15, 17, 19, 27, 28]",111.4661834,19364,19206,2,39,9,1.0
undo,33,11,0,0,0,2,"[0, 22, 2]",3,8,"[5, 8, 11, 15, 17, 19, 27, 28]",101.4163078,22071,2707,2,31,9,1.1125878864739263
undo,33,11,0,0,0,28,"[0, 22, 2, 28]",4,6,"[5, 8, 11, 15, 17, 19]",90.78616197,23547,1476,19,22,8,1.210704712740268
undo,33,11,0,0,0,11,"[0, 22, 2, 28, 11]",5,4,"[5, 8, 15, 17]",71.36967413,25247,1700,7,3,8,1.318767526029646
undo,33,11,0,0,0,15,"[0, 22, 2, 28, 11, 15]",6,3,"[5, 8, 17]",53.25890386,27772,2525,3,1,8,1.5729080339318766
undo,33,11,0,0,0,17,"[0, 22, 2, 28, 11, 15, 17]",7,1,[8],40.60979321,29770,1998,1,0,8,1.7636209057172099
undo,33,11,0,0,1,8,"[0, 22, 2, 28, 11, 15, 17, 8]",8,0,[],26.29197215,31654,1884,1,0,8,1.8849538981062839
undo,33,11,1,0,0,17,"[0, 22, 2, 28, 11, 15, 17]",7,1,[8],40.60979321,33044,1390,1,0,8,1.7636209057172099
undo,33,11,0,1,0,17,"[0, 22, 2, 28, 11, 15, 17]",7,1,[8],40.60979321,34578,1534,1,0,8,1.7636209057172099
undo,34,13,0,0,0,0,[0],1,29,"[1, 2, 3, 4, 5, 6, 7, 8, 9, 10, 11, 12, 13, 14, 15, 16, 17, 18, 19, 20, 21, 22, 23, 24, 25, 26, 27, 28, 29]",300,161,-1,60,2676,11,0.0
undo,34,13,0,0,0,24,"[0, 24]",2,28,"[1, 2, 3, 4, 5, 6, 7, 8, 9, 10, 11, 12, 13, 14, 15, 16, 17, 18, 19, 20, 21, 22, 23, 25, 26, 27, 28, 29]",288.8196601,3204,3043,16,1444,11,1.0
undo,34,13,0,0,0,23,"[0, 24, 23]",3,27,"[1, 2, 3, 4, 5, 6, 7, 8, 9, 10, 11, 12, 13, 14, 15, 16, 17, 18, 19, 20, 21, 22, 25, 26, 27, 28, 29]",243.1140806,5671,2467,2,868,11,1.0065545717039834
undo,34,13,0,0,0,16,"[0, 24, 23, 16]",4,25,"[1, 2, 3, 4, 6, 7, 8, 9, 10, 11, 12, 13, 14, 15, 17, 18, 19, 20, 21, 22, 25, 26, 27, 28, 29]",202.8027918,7724,2053,1,145,11,1.055930143104189
undo,34,13,0,0,0,3,"[0, 24, 23, 16, 3]",5,20,"[2, 4, 6, 7, 8, 9, 10, 11, 13, 14, 15, 18, 20, 21, 22, 25, 26, 27, 28, 29]",174.3598665,9436,1712,3,44,10,1.233783650807853
undo,34,13,0,0,0,20,"[0, 24, 23, 16, 3, 20]",6,15,"[4, 6, 7, 8, 9, 11, 14, 18, 21, 22, 25, 26, 27, 28, 29]",155.3335689,10886,1450,7,15,9,1.3149320474556456
undo,34,13,0,0,0,4,"[0, 24, 23, 16, 3, 20, 4]",7,5,"[6, 8, 18, 25, 27]",133.3108534,12571,1685,2,4,9,1.2859964130018764
undo,34,13,0,0,0,27,"[0, 24, 23, 16, 3, 20, 4, 27]",8,2,"[8, 18]",111.2881379,14703,2132,2,0,9,1.3345945780156503
undo,34,13,0,0,1,8,"[0, 24, 23, 16, 3, 20, 4, 27, 8]",9,0,[],29.20890784,18147,3444,1,0,9,1.7643079168097482
undo,34,13,1,0,0,27,"[0, 24, 23, 16, 3, 20, 4, 27]",8,2,"[8, 18]",111.2881379,19660,1513,2,0,9,1.3345945780156503
undo,34,13,0,1,0,27,"[0, 24, 23, 16, 3, 20, 4, 27]",8,2,"[8, 18]",111.2881379,21109,1449,2,0,9,1.3345945780156503
undo,35,29,0,0,0,0,[0],1,29,"[1, 2, 3, 4, 5, 6, 7, 8, 9, 10, 11, 12, 13, 14, 15, 16, 17, 18, 19, 20, 21, 22, 23, 24, 25, 26, 27, 28, 29]",300,181,-1,1,78,9,0.0
undo,35,29,0,0,0,25,"[0, 25]",2,18,"[1, 2, 4, 5, 6, 7, 9, 10, 12, 13, 14, 15, 16, 17, 22, 26, 27, 28]",223.3449284,8317,8136,13,101,8,1.0
undo,35,29,0,0,0,1,"[0, 25, 1]",3,15,"[4, 5, 6, 7, 9, 10, 12, 13, 14, 15, 17, 22, 26, 27, 28]",187.8343666,12863,4546,11,61,8,1.308415527582314
undo,35,29,0,0,0,14,"[0, 25, 1, 14]",4,12,"[4, 5, 6, 7, 9, 12, 13, 17, 22, 26, 27, 28]",144.8809034,15149,2286,9,32,8,1.7138400796467363
undo,35,29,0,0,0,13,"[0, 25, 1, 14, 13]",5,10,"[4, 5, 6, 7, 9, 12, 17, 22, 27, 28]",126.853147,17820,2671,9,15,8,1.5995815549042065
undo,35,29,0,0,0,5,"[0, 25, 1, 14, 13, 5]",6,7,"[4, 7, 9, 12, 22, 27, 28]",101.1432268,19981,2161,7,3,8,1.6003565067425858
undo,35,29,0,0,0,12,"[0, 25, 1, 14, 13, 5, 12]",7,2,"[7, 22]",38.01637036,22429,2448,2,0,8,1.6970115503571057
undo,35,29,0,0,1,7,"[0, 25, 1, 14, 13, 5, 12, 7]",8,0,[],24.41489986,24720,2291,1,0,8,1.6757926047494769
undo,35,29,1,0,0,12,"[0, 25, 1, 14, 13, 5, 12]",7,2,"[7, 22]",38.01637036,26172,1452,2,0,8,1.6970115503571057
undo,35,29,0,1,0,12,"[0, 25, 1, 14, 13, 5, 12]",7,2,"[7, 22]",38.01637036,28705,2533,2,0,8,1.6970115503571057
undo,36,40,0,0,0,0,[0],1,29,"[1, 2, 3, 4, 5, 6, 7, 8, 9, 10, 11, 12, 13, 14, 15, 16, 17, 18, 19, 20, 21, 22, 23, 24, 25, 26, 27, 28, 29]",300,170,-1,8,191,9,0.0
undo,36,40,0,0,0,1,"[0, 1]",2,18,"[2, 5, 6, 7, 8, 9, 10, 11, 13, 15, 17, 18, 19, 21, 22, 23, 27, 29]",247.8463808,6412,6242,4,80,9,1.0
undo,36,40,0,0,0,6,"[0, 1, 6]",3,17,"[2, 5, 7, 8, 9, 10, 11, 13, 15, 17, 18, 19, 21, 22, 23, 27, 29]",227.7466295,7629,1217,4,74,9,1.0459427008232034
undo,36,40,0,0,0,9,"[0, 1, 6, 9]",4,10,"[2, 5, 8, 11, 18, 19, 21, 22, 23, 27]",159.146338,11213,3584,17,39,8,1.142098432552584
undo,36,40,0,0,0,18,"[0, 1, 6, 9, 18]",5,9,"[2, 5, 8, 11, 19, 21, 22, 23, 27]",142.5933926,13250,2037,13,14,8,1.3288108654802917
undo,36,40,0,0,0,23,"[0, 1, 6, 9, 18, 23]",6,6,"[2, 5, 8, 19, 21, 22]",108.5933926,15053,1803,6,4,8,2.0180513009829646
undo,36,40,0,0,0,19,"[0, 1, 6, 9, 18, 23, 19]",7,4,"[2, 5, 8, 22]",76.640302,16897,1844,4,0,8,2.1771771191471494
undo,36,40,0,0,1,5,"[0, 1, 6, 9, 18, 23, 19, 5]",8,0,[],38.56143647,18696,1799,1,0,8,2.1257978181562813
undo,36,40,1,0,0,19,"[0, 1, 6, 9, 18, 23, 19]",7,4,"[2, 5, 8, 22]",76.640302,20169,1473,4,0,8,2.1771771191471494
undo,36,40,0,1,0,19,"[0, 1, 6, 9, 18, 23, 19]",7,4,"[2, 5, 8, 22]",76.640302,21451,1282,4,0,8,2.1771771191471494
undo,37,39,0,0,0,0,[0],1,28,"[1, 2, 3, 4, 5, 6, 7, 9, 10, 11, 12, 13, 14, 15, 16, 17, 18, 19, 20, 21, 22, 23, 24, 25, 26, 27, 28, 29]",300,199,-1,1,30,10,0.0
undo,37,39,0,0,0,10,"[0, 10]",2,20,"[1, 2, 4, 5, 7, 9, 12, 13, 14, 15, 16, 17, 18, 19, 22, 23, 24, 26, 28, 29]",181.1723938,8471,8272,3,58,8,1.0
undo,37,39,0,0,0,7,"[0, 10, 7]",3,16,"[1, 2, 4, 5, 9, 12, 13, 15, 16, 18, 19, 22, 23, 24, 26, 29]",147.7508438,10886,2415,2,20,8,1.0005787113875788
undo,37,39,0,0,0,26,"[0, 10, 7, 26]",4,12,"[1, 2, 5, 9, 12, 13, 16, 18, 19, 22, 24, 29]",129.0693022,13386,2500,1,9,8,1.0582372046162405
undo,37,39,0,0,0,22,"[0, 10, 7, 26, 22]",5,7,"[1, 5, 12, 16, 18, 19, 29]",111.349257,14641,1255,1,3,8,1.2183446345009497
undo,37,39,0,0,0,16,"[0, 10, 7, 26, 22, 16]",6,2,"[18, 19]",76.34925701,18102,3461,1,1,8,1.1781376373699262
undo,37,39,0,0,0,19,"[0, 10, 7, 26, 22, 16, 19]",7,1,[18],58.88500781,19867,1765,1,0,8,1.1953094970663214
undo,37,39,0,0,1,18,"[0, 10, 7, 26, 22, 16, 19, 18]",8,0,[],15.71094152,22948,3081,1,0,8,1.2126315998801338
undo,37,39,1,0,0,19,"[0, 10, 7, 26, 22, 16, 19]",7,1,[18],58.88500781,24058,1110,1,0,8,1.1953094970663214
undo,37,39,0,1,0,19,"[0, 10, 7, 26, 22, 16, 19]",7,1,[18],58.88500781,25541,1483,1,0,8,1.1953094970663214
undo,38,25,0,0,0,0,[0],1,28,"[1, 2, 3, 4, 5, 7, 8, 9, 10, 11, 12, 13, 14, 15, 16, 17, 18, 19, 20, 21, 22, 23, 24, 25, 26, 27, 28, 29]",300,165,-1,5,94,10,0.0
undo,38,25,0,0,0,23,"[0, 23]",2,23,"[1, 2, 3, 5, 7, 8, 9, 11, 12, 13, 14, 16, 17, 19, 20, 21, 22, 24, 25, 26, 27, 28, 29]",259.7756293,6356,6191,3,33,10,1.0
undo,38,25,0,0,0,7,"[0, 23, 7]",3,16,"[1, 3, 5, 8, 9, 11, 13, 17, 19, 21, 22, 24, 26, 27, 28, 29]",181.9424744,8354,1998,1,21,9,1.0073109045884563
undo,38,25,0,0,0,24,"[0, 23, 7, 24]",4,10,"[3, 5, 8, 9, 11, 13, 19, 22, 28, 29]",157.1836376,10273,1919,1,17,9,1.0161584555781231
undo,38,25,0,0,0,9,"[0, 23, 7, 24, 9]",5,8,"[3, 8, 11, 13, 19, 22, 28, 29]",139.1558812,11721,1448,1,16,9,1.0303325523073676
undo,38,25,0,0,0,3,"[0, 23, 7, 24, 9, 3]",6,4,"[8, 11, 13, 28]",108.8903893,13543,1822,1,5,9,1.0321657704271587
undo,38,25,0,0,0,13,"[0, 23, 7, 24, 9, 3, 13]",7,2,"[8, 28]",77.6493906,16515,2972,1,1,9,1.1031543757060376
undo,38,25,0,0,0,28,"[0, 23, 7, 24, 9, 3, 13, 28]",8,1,[8],43.41490506,19177,2662,1,0,9,1.1857356956374323
undo,38,25,0,0,1,8,"[0, 23, 7, 24, 9, 3, 13, 28, 8]",9,0,[],2.807024055,20861,1684,1,0,9,1.486169242046657
undo,38,25,1,0,0,28,"[0, 23, 7, 24, 9, 3, 13, 28]",8,1,[8],43.41490506,22366,1505,1,0,9,1.1857356956374323
undo,38,25,0,1,0,28,"[0, 23, 7, 24, 9, 3, 13, 28]",8,1,[8],43.41490506,25383,3017,1,0,9,1.1857356956374323
undo,39,7,0,0,0,0,[0],1,29,"[1, 2, 3, 4, 5, 6, 7, 8, 9, 10, 11, 12, 13, 14, 15, 16, 17, 18, 19, 20, 21, 22, 23, 24, 25, 26, 27, 28, 29]",300,165,-1,3,79,9,0.0
undo,39,7,0,0,0,25,"[0, 25]",2,20,"[2, 3, 4, 5, 6, 7, 10, 13, 14, 15, 16, 18, 19, 20, 21, 22, 23, 24, 27, 28]",181.5939191,5810,5645,5,33,8,1.0
undo,39,7,0,0,0,4,"[0, 25, 4]",3,11,"[2, 6, 7, 13, 15, 16, 18, 19, 20, 21, 23]",156.8552853,7071,1261,2,14,8,1.0193465608331511
undo,39,7,0,0,0,20,"[0, 25, 4, 20]",4,8,"[2, 6, 7, 13, 15, 16, 18, 19]",137.2084026,8825,1754,1,9,8,1.085904909082323
undo,39,7,0,0,0,18,"[0, 25, 4, 20, 18]",5,7,"[2, 6, 7, 13, 15, 16, 19]",124.4021541,10494,1669,1,5,8,1.2264883846453758
undo,39,7,0,0,0,7,"[0, 25, 4, 20, 18, 7]",6,2,"[2, 19]",83.17109789,12371,1877,1,1,8,1.185264473968278
undo,39,7,0,0,0,19,"[0, 25, 4, 20, 18, 7, 19]",7,1,[2],53.76021555,13819,1448,1,0,8,1.3016904288278204
undo,39,7,0,0,1,2,"[0, 25, 4, 20, 18, 7, 19, 2]",8,0,[],23.61058868,15855,2036,1,0,8,1.3168868000947171
undo,39,7,1,0,0,19,"[0, 25, 4, 20, 18, 7, 19]",7,1,[2],53.76021555,17110,1255,1,0,8,1.3016904288278204
undo,39,7,0,1,0,19,"[0, 25, 4, 20, 18, 7, 19]",7,1,[2],53.76021555,18593,1483,1,0,8,1.3016904288278204
undo,40,9,0,0,0,0,[0],1,27,"[1, 3, 4, 5, 6, 7, 8, 9, 10, 11, 13, 14, 15, 16, 17, 18, 19, 20, 21, 22, 23, 24, 25, 26, 27, 28, 29]",300,171,-1,2,182,10,0.0
undo,40,9,0,0,0,9,"[0, 9]",2,26,"[1, 3, 4, 5, 6, 7, 8, 10, 11, 13, 14, 15, 16, 17, 18, 19, 20, 21, 22, 23, 24, 25, 26, 27, 28, 29]",225.5352432,13837,13666,2,101,9,1.0
undo,40,9,0,0,0,23,"[0, 9, 23]",3,22,"[1, 3, 4, 5, 7, 8, 10, 11, 13, 15, 16, 17, 18, 19, 20, 21, 22, 24, 25, 26, 27, 28]",203.1745635,15501,1664,2,70,9,1.6262276606762436
undo,40,9,0,0,0,8,"[0, 9, 23, 8]",4,18,"[3, 4, 5, 7, 10, 11, 15, 16, 17, 18, 19, 20, 21, 22, 25, 26, 27, 28]",181.7036529,17185,1684,1,36,9,1.8547307061753238
undo,40,9,0,0,0,28,"[0, 9, 23, 8, 28]",5,17,"[3, 4, 5, 7, 10, 11, 15, 16, 17, 18, 19, 20, 21, 22, 25, 26, 27]",170.8869991,18969,1784,1,23,9,1.7382749966569708
undo,40,9,0,0,0,21,"[0, 9, 23, 8, 28, 21]",6,8,"[10, 16, 17, 18, 20, 22, 25, 26]",117.8869991,22154,3185,7,5,8,1.5363946588735553
undo,40,9,0,0,0,20,"[0, 9, 23, 8, 28, 21, 20]",7,5,"[10, 16, 17, 22, 26]",105.8039531,23650,1496,5,0,8,1.5333390745950446
undo,40,9,0,0,1,22,"[0, 9, 23, 8, 28, 21, 20, 22]",8,0,[],29.74476563,26282,2632,1,0,8,2.2739446324527752
undo,40,9,1,0,0,20,"[0, 9, 23, 8, 28, 21, 20]",7,5,"[10, 16, 17, 22, 26]",105.8039531,28057,1775,5,0,8,1.5333390745950446
undo,40,9,0,1,0,20,"[0, 9, 23, 8, 28, 21, 20]",7,5,"[10, 16, 17, 22, 26]",105.8039531,29307,1250,5,0,8,1.5333390745950446
undo,41,0,0,0,0,0,[0],1,27,"[2, 3, 4, 5, 6, 7, 8, 9, 10, 11, 12, 13, 14, 15, 16, 17, 19, 20, 21, 22, 23, 24, 25, 26, 27, 28, 29]",300,167,-1,104,1136,9,0.0
undo,41,0,0,0,0,20,"[0, 20]",2,25,"[2, 3, 4, 5, 6, 7, 8, 9, 11, 12, 13, 14, 15, 16, 17, 19, 21, 22, 23, 24, 25, 26, 27, 28, 29]",215.4955622,3761,3594,36,372,9,1.0
undo,41,0,0,0,0,5,"[0, 20, 5]",3,22,"[2, 3, 4, 7, 8, 9, 11, 12, 13, 14, 15, 16, 17, 19, 21, 22, 23, 24, 25, 26, 28, 29]",153.2942761,5763,2002,33,251,9,1.0828244018179105
undo,41,0,0,0,0,24,"[0, 20, 5, 24]",4,15,"[2, 3, 4, 7, 8, 9, 11, 12, 15, 17, 19, 23, 25, 26, 28]",120.5375974,8761,2998,6,62,9,1.0757056950295427
undo,41,0,0,0,0,4,"[0, 20, 5, 24, 4]",5,12,"[3, 7, 8, 9, 11, 12, 15, 17, 19, 23, 26, 28]",109.1358431,10147,1386,4,29,9,1.219261961280001
undo,41,0,0,0,0,26,"[0, 20, 5, 24, 4, 26]",6,11,"[3, 7, 8, 9, 11, 12, 15, 17, 19, 23, 28]",97.09424855,11847,1700,4,19,9,1.2559550711192193
undo,41,0,0,0,0,7,"[0, 20, 5, 24, 4, 26, 7]",7,5,"[3, 8, 15, 17, 19]",53.63162092,15916,4069,1,4,9,1.2017397808215895
undo,41,0,0,0,0,8,"[0, 20, 5, 24, 4, 26, 7, 8]",8,1,[3],34.52664775,17577,1661,1,0,9,1.1933345287604298
undo,41,0,0,1,0,8,"[0, 20, 5, 24, 4, 26, 7, 8]",8,1,[3],34.52664775,22434,4857,1,0,9,1.1933345287604298
undo,42,45,0,0,0,0,[0],1,24,"[1, 2, 3, 4, 5, 6, 7, 9, 10, 11, 12, 14, 15, 16, 17, 19, 20, 21, 22, 23, 24, 25, 27, 29]",300,166,-1,6,248,10,0.0
undo,42,45,0,0,0,15,"[0, 15]",2,23,"[1, 2, 3, 4, 5, 6, 7, 9, 10, 11, 12, 14, 16, 17, 19, 20, 21, 22, 23, 24, 25, 27, 29]",253.9022777,9837,9671,5,207,10,1.0
undo,42,45,0,0,0,23,"[0, 15, 23]",3,22,"[1, 2, 3, 4, 5, 6, 7, 9, 10, 11, 12, 14, 16, 17, 19, 20, 21, 22, 24, 25, 27, 29]",230.3014303,10734,897,5,163,10,1.0006068457769497
undo,42,45,0,0,0,20,"[0, 15, 23, 20]",4,19,"[1, 2, 3, 5, 6, 7, 9, 10, 11, 12, 14, 16, 17, 19, 21, 22, 24, 25, 29]",188.8647316,11975,1241,5,137,10,1.2062119754673604
undo,42,45,0,0,0,10,"[0, 15, 23, 20, 10]",5,12,"[2, 3, 6, 7, 9, 12, 14, 17, 22, 24, 25, 29]",132.784432,14337,2362,1,54,10,1.1363907740691004
undo,42,45,0,0,0,29,"[0, 15, 23, 20, 10, 29]",6,8,"[2, 3, 6, 7, 12, 14, 22, 24]",111.2437728,15226,889,1,21,10,1.1719694806770014
undo,42,45,0,0,0,6,"[0, 15, 23, 20, 10, 29, 6]",7,5,"[2, 3, 7, 12, 22]",83.08351708,16592,1366,6,1,9,1.259419397054378
undo,42,45,0,0,0,12,"[0, 15, 23, 20, 10, 29, 6, 12]",8,2,"[3, 22]",62.95890528,17837,1245,2,0,9,1.2475847090526315
undo,42,45,0,0,1,22,"[0, 15, 23, 20, 10, 29, 6, 12, 22]",9,0,[],31.38359848,19019,1182,1,0,9,1.2641226753618862
undo,42,45,1,0,0,12,"[0, 15, 23, 20, 10, 29, 6, 12]",8,2,"[3, 22]",62.95890528,20609,1590,2,0,9,1.2475847090526315
undo,42,45,0,1,0,12,"[0, 15, 23, 20, 10, 29, 6, 12]",8,2,"[3, 22]",62.95890528,21893,1284,2,0,9,1.2475847090526315
undo,43,3,0,0,0,0,[0],1,29,"[1, 2, 3, 4, 5, 6, 7, 8, 9, 10, 11, 12, 13, 14, 15, 16, 17, 18, 19, 20, 21, 22, 23, 24, 25, 26, 27, 28, 29]",300,180,-1,34,427,10,0.0
undo,43,3,0,0,0,24,"[0, 24]",2,27,"[1, 2, 3, 4, 5, 6, 7, 8, 9, 10, 11, 12, 13, 14, 15, 16, 17, 18, 19, 20, 21, 22, 25, 26, 27, 28, 29]",241.1442441,16374,16194,1,40,10,1.0
undo,43,3,0,0,0,17,"[0, 24, 17]",3,13,"[3, 4, 7, 8, 10, 14, 15, 16, 19, 20, 21, 22, 27]",171.7900806,19586,3212,4,33,9,1.2532313834613698
undo,43,3,0,0,0,20,"[0, 24, 17, 20]",4,10,"[3, 4, 7, 8, 10, 14, 15, 16, 19, 21]",159.1409699,21006,1420,4,21,9,1.2441552028909786
undo,43,3,0,0,0,3,"[0, 24, 17, 20, 3]",5,8,"[4, 7, 8, 10, 14, 16, 19, 21]",138.7448919,22176,1170,4,12,9,1.2890100688984463
undo,43,3,0,0,0,19,"[0, 24, 17, 20, 3, 19]",6,5,"[4, 8, 10, 14, 21]",101.4085825,24259,2083,2,5,9,1.3456482099334586
undo,43,3,0,0,0,21,"[0, 24, 17, 20, 3, 19, 21]",7,3,"[4, 10, 14]",89.20202687,25519,1260,2,2,9,1.3708715753541716
undo,43,3,0,0,0,14,"[0, 24, 17, 20, 3, 19, 21, 14]",8,2,"[4, 10]",62.29477877,27038,1519,2,0,9,1.8468983830159784
undo,43,3,0,0,1,10,"[0, 24, 17, 20, 3, 19, 21, 14, 10]",9,0,[],16.84150606,29271,2233,1,0,9,1.7983120465283395
undo,43,3,1,0,0,14,"[0, 24, 17, 20, 3, 19, 21, 14]",8,2,"[4, 10]",62.29477877,30460,1189,2,0,9,1.8468983830159784
undo,43,3,0,1,0,14,"[0, 24, 17, 20, 3, 19, 21, 14]",8,2,"[4, 10]",62.29477877,32193,1733,2,0,9,1.8468983830159784
undo,44,20,0,0,0,0,[0],1,21,"[1, 2, 3, 4, 5, 6, 7, 8, 9, 12, 17, 18, 20, 21, 22, 23, 25, 26, 27, 28, 29]",300,160,-1,1,9,9,0.0
undo,44,20,0,0,0,12,"[0, 12]",2,20,"[1, 2, 3, 4, 5, 6, 7, 8, 9, 17, 18, 20, 21, 22, 23, 25, 26, 27, 28, 29]",271.5570747,5935,5775,1,8,9,1.0
undo,44,20,0,0,0,1,"[0, 12, 1]",3,12,"[3, 4, 5, 6, 8, 9, 20, 21, 23, 27, 28, 29]",189.5692707,13801,7866,1,6,9,1.0757997779162911
undo,44,20,0,0,0,5,"[0, 12, 1, 5]",4,10,"[4, 6, 8, 9, 20, 21, 23, 27, 28, 29]",152.8950291,16089,2288,1,5,9,1.1708231454516806
undo,44,20,0,0,0,21,"[0, 12, 1, 5, 21]",5,8,"[4, 6, 8, 9, 20, 23, 27, 28]",107.8950291,18374,2285,1,4,9,1.126197336199212
undo,44,20,0,0,0,8,"[0, 12, 1, 5, 21, 8]",6,5,"[6, 9, 23, 27, 28]",90.43077988,20342,1968,1,3,9,1.140007470699913
undo,44,20,0,0,0,23,"[0, 12, 1, 5, 21, 8, 23]",7,2,"[6, 9]",45.74297394,22725,2383,1,1,9,1.1162257896627588
undo,44,20,0,0,0,9,"[0, 12, 1, 5, 21, 8, 23, 9]",8,1,[6],26.53360123,24573,1848,1,0,9,1.1086880559449597
undo,44,20,0,1,0,9,"[0, 12, 1, 5, 21, 8, 23, 9]",8,1,[6],26.53360123,29347,4774,1,0,9,1.1086880559449597
undo,45,43,0,0,0,0,[0],1,23,"[1, 2, 3, 4, 5, 6, 7, 9, 10, 11, 12, 14, 15, 16, 17, 19, 20, 21, 22, 23, 25, 27, 29]",300,204,-1,16,556,12,0.0
undo,45,43,0,0,0,29,"[0, 29]",2,22,"[1, 2, 3, 4, 5, 6, 7, 9, 10, 11, 12, 14, 15, 16, 17, 19, 20, 21, 22, 23, 25, 27]",277.909278,3621,3417,16,520,12,1.0
undo,45,43,0,0,0,16,"[0, 29, 16]",3,21,"[1, 2, 3, 4, 5, 6, 7, 9, 10, 11, 12, 14, 15, 17, 19, 20, 21, 22, 23, 25, 27]",243.8945753,5525,1904,1,94,12,1.0004480205874837
undo,45,43,0,0,0,15,"[0, 29, 16, 15]",4,17,"[1, 2, 3, 4, 5, 6, 7, 9, 11, 12, 14, 19, 20, 21, 22, 23, 25]",200.5702172,8071,2546,19,260,11,1.2025841171227387
undo,45,43,0,0,0,25,"[0, 29, 16, 15, 25]",5,14,"[1, 2, 3, 4, 6, 7, 9, 11, 12, 14, 19, 20, 22, 23]",177.8986491,9922,1851,13,88,11,1.5395547790138062
undo,45,43,0,0,0,12,"[0, 29, 16, 15, 25, 12]",6,12,"[1, 3, 4, 6, 7, 9, 11, 14, 19, 20, 22, 23]",153.7118759,11741,1819,12,58,11,1.4797730768666666
undo,45,43,0,0,0,3,"[0, 29, 16, 15, 25, 12, 3]",7,11,"[1, 4, 6, 7, 9, 11, 14, 19, 20, 22, 23]",140.7118759,13123,1382,12,37,11,1.4298731363598527
undo,45,43,0,0,0,22,"[0, 29, 16, 15, 25, 12, 3, 22]",8,8,"[1, 4, 6, 7, 11, 14, 19, 20]",105.998766,15570,2447,7,14,11,1.6265909620174612
undo,45,43,0,0,0,19,"[0, 29, 16, 15, 25, 12, 3, 22, 19]",9,4,"[1, 6, 7, 11]",85.38323783,17204,1634,4,1,11,1.5448452578465257
undo,45,43,0,0,0,7,"[0, 29, 16, 15, 25, 12, 3, 22, 19, 7]",10,1,[1],46.2680234,19305,2101,1,0,11,1.4379038466459906
undo,45,43,0,0,1,1,"[0, 29, 16, 15, 25, 12, 3, 22, 19, 7, 1]",11,0,[],8.058077051,22402,3097,1,0,11,2.0280592069881753
undo,45,43,1,0,0,7,"[0, 29, 16, 15, 25, 12, 3, 22, 19, 7]",10,1,[1],46.2680234,24659,2257,1,0,11,1.4379038466459906
undo,45,43,0,1,0,7,"[0, 29, 16, 15, 25, 12, 3, 22, 19, 7]",10,1,[1],46.2680234,26326,1667,1,0,11,1.4379038466459906
undo,46,41,0,0,0,0,[0],1,29,"[1, 2, 3, 4, 5, 6, 7, 8, 9, 10, 11, 12, 13, 14, 15, 16, 17, 18, 19, 20, 21, 22, 23, 24, 25, 26, 27, 28, 29]",300,180,-1,1,143,10,0.0
undo,46,41,0,0,0,17,"[0, 17]",2,25,"[1, 2, 3, 4, 5, 6, 9, 10, 11, 12, 13, 14, 15, 16, 18, 19, 20, 21, 22, 24, 25, 26, 27, 28, 29]",236.612304,7240,7060,10,71,9,1.0
undo,46,41,0,0,0,9,"[0, 17, 9]",3,23,"[1, 2, 3, 4, 5, 6, 10, 11, 12, 13, 14, 15, 18, 19, 20, 21, 22, 24, 25, 26, 27, 28, 29]",205.5961792,9072,1832,3,31,9,1.1471787591220302
undo,46,41,0,0,0,2,"[0, 17, 9, 2]",4,19,"[1, 3, 5, 6, 10, 12, 13, 14, 15, 19, 20, 21, 22, 24, 25, 26, 27, 28, 29]",193.5131332,11988,2916,3,16,9,1.1769558683992412
undo,46,41,0,0,0,21,"[0, 17, 9, 2, 21]",5,10,"[3, 5, 10, 12, 13, 14, 20, 22, 25, 28]",132.5131332,14051,2063,3,13,9,3.4266731636503893
undo,46,41,0,0,0,3,"[0, 17, 9, 2, 21, 3]",6,4,"[5, 13, 22, 28]",100.3728159,15762,1711,2,5,9,5.0381356267409565
undo,46,41,0,0,0,5,"[0, 17, 9, 2, 21, 3, 5]",7,3,"[13, 22, 28]",65.54466633,17663,1901,1,2,9,7.470368095247273
undo,46,41,0,0,0,28,"[0, 17, 9, 2, 21, 3, 5, 28]",8,1,[13],51.94319582,19129,1466,1,0,9,6.170643636093417
undo,46,41,0,0,1,13,"[0, 17, 9, 2, 21, 3, 5, 28, 13]",9,0,[],17.46131652,23994,4865,1,0,9,6.771400973544641
undo,46,41,1,0,0,28,"[0, 17, 9, 2, 21, 3, 5, 28]",8,1,[13],51.94319582,26286,2292,1,0,9,6.170643636093417
undo,46,41,0,1,0,28,"[0, 17, 9, 2, 21, 3, 5, 28]",8,1,[13],51.94319582,28868,2582,1,0,9,6.170643636093417
undo,47,24,0,0,0,0,[0],1,29,"[1, 2, 3, 4, 5, 6, 7, 8, 9, 10, 11, 12, 13, 14, 15, 16, 17, 18, 19, 20, 21, 22, 23, 24, 25, 26, 27, 28, 29]",300,175,-1,4,76,10,0.0
undo,47,24,0,0,0,16,"[0, 16]",2,28,"[1, 2, 3, 4, 5, 6, 7, 8, 9, 10, 11, 12, 13, 14, 15, 17, 18, 19, 20, 21, 22, 23, 24, 25, 26, 27, 28, 29]",210.3562607,5486,5311,13,110,9,1.0
undo,47,24,0,0,0,8,"[0, 16, 8]",3,22,"[1, 2, 3, 4, 6, 9, 10, 11, 13, 14, 15, 17, 20, 21, 22, 23, 24, 25, 26, 27, 28, 29]",181.3562607,7118,1632,3,31,9,1.0774669368510212
undo,47,24,0,0,0,22,"[0, 16, 8, 22]",4,18,"[2, 3, 4, 6, 9, 10, 11, 13, 14, 15, 17, 23, 24, 25, 26, 27, 28, 29]",167.9398528,8654,1536,3,23,9,1.2531772310046492
undo,47,24,0,0,0,15,"[0, 16, 8, 22, 15]",5,16,"[3, 4, 6, 9, 10, 11, 13, 14, 17, 23, 24, 25, 26, 27, 28, 29]",146.7266494,9905,1251,3,16,9,1.2813329946092564
undo,47,24,0,0,0,28,"[0, 16, 8, 22, 15, 28]",6,8,"[3, 4, 9, 11, 13, 23, 26, 27]",101.4497237,11886,1981,3,5,9,1.2060847818642253
undo,47,24,0,0,0,23,"[0, 16, 8, 22, 15, 28, 23]",7,3,"[9, 11, 27]",82.42342609,13335,1449,3,1,9,1.2349355190066822
undo,47,24,0,0,0,11,"[0, 16, 8, 22, 15, 28, 23, 11]",8,2,"[9, 27]",55.49760206,15052,1717,2,0,9,1.2172586817191506
undo,47,24,0,0,1,27,"[0, 16, 8, 22, 15, 28, 23, 11, 27]",9,0,[],27.69472451,18534,3482,1,0,9,1.192247579330137
undo,47,24,1,0,0,11,"[0, 16, 8, 22, 15, 28, 23, 11]",8,2,"[9, 27]",55.49760206,20126,1592,2,0,9,1.2172586817191506
undo,47,24,0,1,0,11,"[0, 16, 8, 22, 15, 28, 23, 11]",8,2,"[9, 27]",55.49760206,21642,1516,2,0,9,1.2172586817191506
undo,48,33,0,0,0,0,[0],1,23,"[1, 2, 5, 7, 8, 11, 12, 13, 14, 15, 16, 17, 18, 19, 20, 21, 23, 24, 25, 26, 27, 28, 29]",300,204,-1,5,108,9,0.0
undo,48,33,0,0,0,8,"[0, 8]",2,22,"[1, 2, 5, 7, 11, 12, 13, 14, 15, 16, 17, 18, 19, 20, 21, 23, 24, 25, 26, 27, 28, 29]",265.8679037,5021,4817,5,87,9,1.0
undo,48,33,0,0,0,21,"[0, 8, 21]",3,16,"[2, 5, 7, 11, 13, 14, 16, 17, 18, 19, 20, 24, 26, 27, 28, 29]",166.0430571,8670,3649,5,80,9,1.0670557763739492
undo,48,33,0,0,0,13,"[0, 8, 21, 13]",4,12,"[2, 7, 11, 14, 16, 17, 18, 19, 20, 24, 26, 29]",139.6422995,11922,3252,4,54,9,1.0555103820910288
undo,48,33,0,0,0,19,"[0, 8, 21, 13, 19]",5,10,"[7, 11, 14, 16, 17, 18, 20, 24, 26, 29]",114.1472019,13653,1731,3,19,9,1.1090798607799486
undo,48,33,0,0,0,7,"[0, 8, 21, 13, 19, 7]",6,5,"[14, 18, 24, 26, 29]",68.52922302,16721,3068,1,4,9,1.086202642130009
undo,48,33,0,0,0,14,"[0, 8, 21, 13, 19, 7, 14]",7,3,"[24, 26, 29]",53.66315427,18756,2035,1,2,9,1.1354822367616264
undo,48,33,0,0,0,26,"[0, 8, 21, 13, 19, 7, 14, 26]",8,1,[29],41.01404363,21576,2820,1,0,9,1.144734735418919
undo,48,33,0,0,1,29,"[0, 8, 21, 13, 19, 7, 14, 26, 29]",9,0,[],13.12139227,23926,2350,1,0,9,1.3638482940300902
undo,48,33,1,0,0,26,"[0, 8, 21, 13, 19, 7, 14, 26]",8,1,[29],41.01404363,24583,657,1,0,9,1.144734735418919
undo,48,33,0,1,0,26,"[0, 8, 21, 13, 19, 7, 14, 26]",8,1,[29],41.01404363,25983,1400,1,0,9,1.144734735418919
undo,49,36,0,0,0,0,[0],1,24,"[2, 4, 5, 6, 7, 8, 9, 10, 12, 13, 14, 15, 16, 17, 18, 19, 20, 22, 23, 25, 26, 27, 28, 29]",300,174,-1,2,200,10,0.0
undo,49,36,0,0,0,12,"[0, 12]",2,23,"[2, 4, 5, 6, 7, 8, 9, 10, 13, 14, 15, 16, 17, 18, 19, 20, 22, 23, 25, 26, 27, 28, 29]",277.7963967,5922,5748,90,804,9,1.0
undo,49,36,0,0,0,9,"[0, 12, 9]",3,14,"[2, 4, 8, 10, 13, 16, 17, 18, 19, 23, 25, 27, 28, 29]",215.4345494,7706,1784,32,191,9,1.224429481246385
undo,49,36,0,0,0,17,"[0, 12, 9, 17]",4,11,"[2, 4, 8, 10, 13, 16, 18, 19, 23, 25, 27]",189.1857399,10122,2416,8,54,9,1.1724571624470872
undo,49,36,0,0,0,19,"[0, 12, 9, 17, 19]",5,8,"[2, 4, 10, 13, 16, 18, 23, 25]",161.2930885,11862,1740,3,14,9,1.7995682634090462
undo,49,36,0,0,0,2,"[0, 12, 9, 17, 19, 2]",6,4,"[10, 13, 16, 25]",124.1716661,13653,1791,2,3,9,1.5569787348204112
undo,49,36,0,0,0,25,"[0, 12, 9, 17, 19, 2, 25]",7,3,"[10, 13, 16]",99.17166613,16087,2434,1,2,9,1.7541097756555504
undo,49,36,0,0,0,13,"[0, 12, 9, 17, 19, 2, 25, 13]",8,1,[10],78.58040585,17721,1634,1,0,9,2.257503926583423
undo,49,36,0,0,1,10,"[0, 12, 9, 17, 19, 2, 25, 13, 10]",9,0,[],2.619889792,24157,6436,1,0,9,1.709815416525762
undo,49,36,1,0,0,13,"[0, 12, 9, 17, 19, 2, 25, 13]",8,1,[10],78.58040585,37325,13168,1,0,9,2.257503926583423
undo,49,36,0,1,0,13,"[0, 12, 9, 17, 19, 2, 25, 13]",8,1,[10],78.58040585,39776,2451,1,0,9,2.257503926583423
undo,50,27,0,0,0,0,[0],1,26,"[1, 3, 5, 6, 7, 8, 9, 10, 11, 12, 13, 14, 15, 16, 17, 18, 19, 21, 22, 23, 24, 25, 26, 27, 28, 29]",300,211,-1,13,578,11,0.0
undo,50,27,0,0,0,15,"[0, 15]",2,24,"[1, 3, 5, 6, 7, 8, 9, 10, 11, 12, 13, 14, 16, 17, 18, 19, 21, 22, 23, 24, 25, 26, 27, 29]",263.7508621,5841,5630,6,219,11,1.0
undo,50,27,0,0,0,24,"[0, 15, 24]",3,20,"[1, 5, 6, 7, 8, 9, 10, 12, 13, 14, 16, 17, 18, 19, 21, 23, 25, 26, 27, 29]",246.5462115,7410,1569,6,130,11,1.130933077698322
undo,50,27,0,0,0,17,"[0, 15, 24, 17]",4,15,"[1, 6, 8, 10, 12, 13, 14, 16, 18, 19, 23, 25, 26, 27, 29]",229.9932662,8441,1031,4,60,11,1.1285538435963374
undo,50,27,0,0,0,12,"[0, 15, 24, 17, 12]",5,14,"[1, 6, 8, 10, 13, 14, 16, 18, 19, 23, 25, 26, 27, 29]",218.8129263,9591,1150,2,32,11,1.2561880288755216
undo,50,27,0,0,0,10,"[0, 15, 24, 17, 12, 10]",6,11,"[1, 8, 13, 14, 18, 19, 23, 25, 26, 27, 29]",207.7675653,10941,1350,2,28,11,1.2228289337766665
undo,50,27,0,0,0,13,"[0, 15, 24, 17, 12, 10, 13]",7,9,"[1, 8, 14, 18, 19, 23, 26, 27, 29]",167.9178476,12594,1653,2,18,11,1.3421291994761178
undo,50,27,0,0,0,19,"[0, 15, 24, 17, 12, 10, 13, 19]",8,5,"[1, 8, 14, 23, 29]",131.6825057,13924,1330,2,6,11,1.294749956153846
undo,50,27,0,0,0,8,"[0, 15, 24, 17, 12, 10, 13, 19, 8]",9,3,"[14, 23, 29]",116.816437,15307,1383,2,1,11,1.3554286578836865
undo,50,27,0,0,0,29,"[0, 15, 24, 17, 12, 10, 13, 19, 8, 29]",10,1,[14],57.61339652,18440,3133,1,0,11,1.248354519573802
undo,50,27,0,0,1,14,"[0, 15, 24, 17, 12, 10, 13, 19, 8, 29, 14]",11,0,[],13.31892734,21606,3166,1,0,11,1.562811097555156
undo,50,27,1,0,0,29,"[0, 15, 24, 17, 12, 10, 13, 19, 8, 29]",10,1,[14],57.61339652,23663,2057,1,0,11,1.248354519573802
undo,50,27,0,1,0,29,"[0, 15, 24, 17, 12, 10, 13, 19, 8, 29]",10,1,[14],57.61339652,29779,6116,1,0,11,1.248354519573802
undo,51,31,0,0,0,0,[0],1,27,"[1, 3, 4, 5, 6, 7, 8, 10, 11, 12, 13, 14, 15, 16, 17, 18, 19, 20, 21, 22, 23, 24, 25, 26, 27, 28, 29]",300,174,-1,2,87,10,0.0
undo,51,31,0,0,0,8,"[0, 8]",2,26,"[1, 3, 4, 5, 6, 7, 10, 11, 12, 13, 14, 15, 16, 17, 18, 19, 20, 21, 22, 23, 24, 25, 26, 27, 28, 29]",265.2149457,13270,13096,14,226,9,1.0
undo,51,31,0,0,0,27,"[0, 8, 27]",3,25,"[1, 3, 4, 5, 6, 7, 10, 11, 12, 13, 14, 15, 16, 17, 18, 19, 20, 21, 22, 23, 24, 25, 26, 28, 29]",254.1695847,15895,2625,9,146,9,1.1317014404638044
undo,51,31,0,0,0,11,"[0, 8, 27, 11]",4,15,"[1, 5, 6, 7, 12, 13, 14, 16, 17, 18, 19, 20, 22, 25, 28]",192.5578975,18595,2700,26,70,8,1.7549902465941163
undo,51,31,0,0,0,5,"[0, 8, 27, 11, 5]",5,10,"[12, 14, 16, 17, 18, 19, 20, 22, 25, 28]",148.8772382,20643,2048,3,12,8,1.7226512050859384
undo,51,31,0,0,0,28,"[0, 8, 27, 11, 5, 28]",6,6,"[12, 16, 17, 18, 20, 25]",128.6534898,22298,1655,3,3,8,1.5963575672948023
undo,51,31,0,0,1,16,"[0, 8, 27, 11, 5, 28, 16]",7,0,[],95.03801714,24246,1948,1,0,7,1.5346608272809887
undo,51,31,1,0,0,28,"[0, 8, 27, 11, 5, 28]",6,6,"[12, 16, 17, 18, 20, 25]",128.6534898,26184,1938,3,3,8,1.5963575672948023
undo,51,31,0,1,0,28,"[0, 8, 27, 11, 5, 28]",6,6,"[12, 16, 17, 18, 20, 25]",128.6534898,29933,3749,3,3,8,1.5963575672948023
undo,52,19,0,0,0,0,[0],1,29,"[1, 2, 3, 4, 5, 6, 7, 8, 9, 10, 11, 12, 13, 14, 15, 16, 17, 18, 19, 20, 21, 22, 23, 24, 25, 26, 27, 28, 29]",300,170,-1,12,149,8,0.0
undo,52,19,0,0,0,29,"[0, 29]",2,28,"[1, 2, 3, 4, 5, 6, 7, 8, 9, 10, 11, 12, 13, 14, 15, 16, 17, 18, 19, 20, 21, 22, 23, 24, 25, 26, 27, 28]",265.0715016,7851,7681,12,120,8,1.0
undo,52,19,0,0,0,9,"[0, 29, 9]",3,17,"[1, 4, 5, 6, 7, 10, 11, 12, 13, 14, 19, 20, 21, 22, 24, 27, 28]",181.7108394,10733,2882,11,65,8,1.0375842971861238
undo,52,19,0,0,0,6,"[0, 29, 9, 6]",4,12,"[4, 7, 10, 11, 13, 14, 20, 21, 22, 24, 27, 28]",140.2741407,12918,2185,11,34,8,1.0389786364356892
undo,52,19,0,0,0,14,"[0, 29, 9, 6, 14]",5,7,"[4, 10, 11, 20, 22, 24, 28]",80.59164747,15883,2965,3,6,8,1.0491884155331486
undo,52,19,0,0,0,11,"[0, 29, 9, 6, 14, 11]",6,5,"[4, 20, 22, 24, 28]",69.77499364,17502,1619,3,2,8,1.050030420094996
undo,52,19,0,0,1,24,"[0, 29, 9, 6, 14, 11, 24]",7,0,[],18.77499364,20766,3264,1,0,7,1.083656358609317
undo,52,19,1,0,0,11,"[0, 29, 9, 6, 14, 11]",6,5,"[4, 20, 22, 24, 28]",69.77499364,21790,1024,3,2,8,1.050030420094996
undo,52,19,0,1,0,11,"[0, 29, 9, 6, 14, 11]",6,5,"[4, 20, 22, 24, 28]",69.77499364,23140,1350,3,2,8,1.050030420094996
undo,53,12,0,0,0,0,[0],1,29,"[1, 2, 3, 4, 5, 6, 7, 8, 9, 10, 11, 12, 13, 14, 15, 16, 17, 18, 19, 20, 21, 22, 23, 24, 25, 26, 27, 28, 29]",300,161,-1,2,32,9,0.0
undo,53,12,0,0,0,6,"[0, 6]",2,28,"[1, 2, 3, 4, 5, 7, 8, 9, 10, 11, 12, 13, 14, 15, 16, 17, 18, 19, 20, 21, 22, 23, 24, 25, 26, 27, 28, 29]",283.5987805,7171,7010,2,18,9,1.0
undo,53,12,0,0,0,22,"[0, 6, 22]",3,13,"[2, 4, 5, 7, 12, 13, 14, 16, 19, 23, 24, 25, 27]",182.0015365,12601,5430,2,9,9,1.3408050629015749
undo,53,12,0,0,0,16,"[0, 6, 22, 16]",4,10,"[2, 4, 5, 7, 12, 14, 19, 24, 25, 27]",161.0015365,13886,1285,2,7,9,1.5323672374573825
undo,53,12,0,0,0,4,"[0, 6, 22, 16, 4]",5,6,"[12, 14, 19, 24, 25, 27]",126.7962737,15433,1547,2,5,9,1.38665076120851
undo,53,12,0,0,0,12,"[0, 6, 22, 16, 4, 12]",6,3,"[14, 24, 27]",84.6062275,17067,1634,2,3,9,1.3036701691846924
undo,53,12,0,0,0,27,"[0, 6, 22, 16, 4, 12, 27]",7,2,"[14, 24]",60.25463618,18718,1651,2,0,9,1.401636252408167
undo,53,12,0,0,0,14,"[0, 6, 22, 16, 4, 12, 27, 14]",8,1,[24],31.60153862,20117,1399,1,0,9,1.4415448388010776
undo,53,12,0,0,1,24,"[0, 6, 22, 16, 4, 12, 27, 14, 24]",9,0,[],14.39688808,22259,2142,1,0,9,1.6003250998053893
undo,53,12,1,0,0,14,"[0, 6, 22, 16, 4, 12, 27, 14]",8,1,[24],31.60153862,23965,1706,1,0,9,1.4415448388010776
undo,53,12,0,1,0,14,"[0, 6, 22, 16, 4, 12, 27, 14]",8,1,[24],31.60153862,24915,950,1,0,9,1.4415448388010776
undo,54,8,0,0,0,0,[0],1,29,"[1, 2, 3, 4, 5, 6, 7, 8, 9, 10, 11, 12, 13, 14, 15, 16, 17, 18, 19, 20, 21, 22, 23, 24, 25, 26, 27, 28, 29]",300,181,-1,10,149,9,0.0
undo,54,8,0,0,0,5,"[0, 5]",2,28,"[1, 2, 3, 4, 6, 7, 8, 9, 10, 11, 12, 13, 14, 15, 16, 17, 18, 19, 20, 21, 22, 23, 24, 25, 26, 27, 28, 29]",254.5137383,2796,2615,10,100,9,1.0
undo,54,8,0,0,0,25,"[0, 5, 25]",3,20,"[1, 2, 3, 4, 6, 11, 12, 14, 15, 16, 17, 18, 19, 20, 21, 22, 23, 24, 28, 29]",215.3091468,5804,3008,4,42,9,1.2272747879909065
undo,54,8,0,0,0,1,"[0, 5, 25, 1]",4,17,"[3, 4, 6, 11, 12, 14, 15, 16, 17, 18, 20, 21, 22, 23, 24, 28, 29]",190.3091468,7223,1419,3,24,9,1.1770245007593956
undo,54,8,0,0,0,23,"[0, 5, 25, 1, 23]",5,15,"[3, 4, 6, 11, 14, 15, 16, 17, 18, 20, 21, 22, 24, 28, 29]",167.2874179,8720,1497,1,14,9,1.141996583852372
undo,54,8,0,0,0,18,"[0, 5, 25, 1, 23, 18]",6,9,"[3, 4, 11, 14, 15, 16, 17, 24, 28]",125.5261919,10270,1550,1,7,9,1.3199166330970717
undo,54,8,0,0,0,4,"[0, 5, 25, 1, 23, 18, 4]",7,1,[3],82.51456553,13386,3116,1,0,8,1.3326623611480932
undo,54,8,0,0,1,3,"[0, 5, 25, 1, 23, 18, 4, 3]",8,0,[],2.358467823,17919,4533,1,0,8,1.6284269942110083
undo,54,8,1,0,0,4,"[0, 5, 25, 1, 23, 18, 4]",7,1,[3],82.51456553,19243,1324,1,0,8,1.3326623611480932
undo,54,8,0,1,0,4,"[0, 5, 25, 1, 23, 18, 4]",7,1,[3],82.51456553,20659,1416,1,0,8,1.3326623611480932
undo,55,42,0,0,0,0,[0],1,29,"[1, 2, 3, 4, 5, 6, 7, 8, 9, 10, 11, 12, 13, 14, 15, 16, 17, 18, 19, 20, 21, 22, 23, 24, 25, 26, 27, 28, 29]",300,218,-1,16,302,9,0.0
undo,55,42,0,0,0,4,"[0, 4]",2,28,"[1, 2, 3, 5, 6, 7, 8, 9, 10, 11, 12, 13, 14, 15, 16, 17, 18, 19, 20, 21, 22, 23, 24, 25, 26, 27, 28, 29]",209.5290102,10988,10770,4,80,9,1.0
undo,55,42,0,0,0,22,"[0, 4, 22]",3,24,"[1, 2, 3, 5, 6, 7, 8, 9, 10, 11, 13, 15, 17, 18, 19, 20, 21, 23, 24, 25, 26, 27, 28, 29]",198.3486703,12787,1799,3,53,9,1.1473032812120834
undo,55,42,0,0,0,8,"[0, 4, 22, 8]",4,21,"[1, 2, 3, 5, 6, 7, 10, 11, 15, 17, 18, 19, 20, 21, 23, 24, 25, 26, 27, 28, 29]",176.2127267,15101,2314,2,36,9,1.1513227322639639
undo,55,42,0,0,0,1,"[0, 4, 22, 8, 1]",5,12,"[2, 5, 6, 7, 10, 15, 18, 19, 24, 26, 27, 28]",127.1209758,17184,2083,2,24,9,1.1101621876186907
undo,55,42,0,0,0,7,"[0, 4, 22, 8, 1, 7]",6,5,"[2, 19, 26, 27, 28]",97.12097583,18891,1707,2,10,9,1.1711274205343067
undo,55,42,0,0,0,26,"[0, 4, 22, 8, 1, 7, 26]",7,3,"[2, 19, 27]",70.55031532,21617,2726,2,1,9,1.1588367913131314
undo,55,42,0,0,0,27,"[0, 4, 22, 8, 1, 7, 26, 27]",8,1,[19],52.52255894,23051,1434,1,0,9,1.160587570992885
undo,55,42,0,0,1,19,"[0, 4, 22, 8, 1, 7, 26, 27, 19]",9,0,[],11.51036563,25450,2399,1,0,9,1.3341568614108437
undo,55,42,1,0,0,27,"[0, 4, 22, 8, 1, 7, 26, 27]",8,1,[19],52.52255894,26374,924,1,0,9,1.160587570992885
undo,55,42,0,1,0,27,"[0, 4, 22, 8, 1, 7, 26, 27]",8,1,[19],52.52255894,29390,3016,1,0,9,1.160587570992885
undo,56,5,0,0,0,0,[0],1,29,"[1, 2, 3, 4, 5, 6, 7, 8, 9, 10, 11, 12, 13, 14, 15, 16, 17, 18, 19, 20, 21, 22, 23, 24, 25, 26, 27, 28, 29]",300,167,-1,5,139,9,0.0
undo,56,5,0,0,0,12,"[0, 12]",2,22,"[2, 4, 5, 6, 8, 9, 10, 13, 14, 15, 16, 17, 18, 19, 21, 22, 23, 24, 25, 26, 27, 28]",228.3062067,17623,17456,1,27,9,1.0
undo,56,5,0,0,0,25,"[0, 12, 25]",3,21,"[2, 4, 5, 6, 8, 9, 10, 13, 14, 15, 16, 17, 18, 19, 21, 22, 23, 24, 26, 27, 28]",200.5213187,19345,1722,1,20,9,1.584023303445617
undo,56,5,0,0,0,23,"[0, 12, 25, 23]",4,19,"[2, 4, 5, 6, 8, 9, 10, 13, 14, 15, 16, 17, 18, 19, 21, 22, 24, 26, 27]",182.0822298,20613,1268,1,14,9,2.3508446989254357
undo,56,5,0,0,0,24,"[0, 12, 25, 23, 24]",5,15,"[2, 4, 5, 6, 8, 9, 13, 14, 15, 17, 18, 19, 22, 26, 27]",158.995437,21941,1328,1,12,9,1.9469752046288753
undo,56,5,0,0,0,17,"[0, 12, 25, 23, 24, 17]",6,7,"[4, 5, 6, 8, 15, 18, 19]",124.0097257,23338,1397,1,8,9,1.6482276497563642
undo,56,5,0,0,0,5,"[0, 12, 25, 23, 24, 17, 5]",7,4,"[4, 6, 15, 18]",80.96323916,25255,1917,1,3,9,1.4654649104389412
undo,56,5,0,0,1,15,"[0, 12, 25, 23, 24, 17, 5, 15]",8,0,[],40.93824697,26639,1384,1,0,8,1.4660376450939663
undo,56,5,1,0,0,5,"[0, 12, 25, 23, 24, 17, 5]",7,4,"[4, 6, 15, 18]",80.96323916,28463,1824,1,3,9,1.4654649104389412
undo,56,5,0,1,0,5,"[0, 12, 25, 23, 24, 17, 5]",7,4,"[4, 6, 15, 18]",80.96323916,29696,1233,1,3,9,1.4654649104389412
undo,57,10,0,0,0,0,[0],1,29,"[1, 2, 3, 4, 5, 6, 7, 8, 9, 10, 11, 12, 13, 14, 15, 16, 17, 18, 19, 20, 21, 22, 23, 24, 25, 26, 27, 28, 29]",300,183,-1,1,100,9,0.0
undo,57,10,0,0,0,13,"[0, 13]",2,25,"[1, 2, 3, 4, 6, 7, 8, 9, 10, 11, 12, 14, 17, 18, 19, 20, 21, 22, 23, 24, 25, 26, 27, 28, 29]",249.4628849,4606,4423,1,79,9,1.0
undo,57,10,0,0,0,19,"[0, 13, 19]",3,12,"[2, 6, 8, 9, 10, 11, 14, 18, 20, 24, 26, 27]",180.5861835,7649,3043,11,79,8,1.0000581961988606
undo,57,10,0,0,0,2,"[0, 13, 19, 2]",4,5,"[11, 14, 20, 26, 27]",136.6771867,8949,1300,3,9,8,1.000456581399483
undo,57,10,0,0,0,14,"[0, 13, 19, 2, 14]",5,4,"[11, 20, 26, 27]",124.5116616,12840,3891,3,6,8,1.0972737011325653
undo,57,10,0,0,0,26,"[0, 13, 19, 2, 14, 26]",6,3,"[11, 20, 27]",89.84178999,14415,1575,3,1,8,1.5868342521575007
undo,57,10,0,0,0,20,"[0, 13, 19, 2, 14, 26, 20]",7,2,"[11, 27]",58.06129282,16282,1867,2,0,8,1.9988791745370547
undo,57,10,0,0,1,27,"[0, 13, 19, 2, 14, 26, 20, 27]",8,0,[],12.80645883,19698,3416,1,0,8,1.8442457748164782
undo,57,10,1,0,0,20,"[0, 13, 19, 2, 14, 26, 20]",7,2,"[11, 27]",58.06129282,20990,1292,2,0,8,1.9988791745370547
undo,57,10,0,1,0,20,"[0, 13, 19, 2, 14, 26, 20]",7,2,"[11, 27]",58.06129282,22523,1533,2,0,8,1.9988791745370547
undo,58,22,0,0,0,0,[0],1,29,"[1, 2, 3, 4, 5, 6, 7, 8, 9, 10, 11, 12, 13, 14, 15, 16, 17, 18, 19, 20, 21, 22, 23, 24, 25, 26, 27, 28, 29]",300,169,-1,31,704,9,0.0
undo,58,22,0,0,0,16,"[0, 16]",2,21,"[1, 3, 6, 7, 8, 9, 11, 13, 14, 15, 17, 18, 19, 20, 21, 22, 24, 25, 27, 28, 29]",218.605897,4737,4568,17,147,9,1.0
undo,58,22,0,0,0,28,"[0, 16, 28]",3,13,"[6, 7, 9, 13, 14, 17, 19, 20, 21, 22, 24, 25, 29]",184.1675463,6818,2081,12,61,9,1.047282311284478
undo,58,22,0,0,0,6,"[0, 16, 28, 6]",4,12,"[7, 9, 13, 14, 17, 19, 20, 21, 22, 24, 25, 29]",154.1675463,8668,1850,12,43,9,1.645645870580622
undo,58,22,0,0,0,9,"[0, 16, 28, 6, 9]",5,8,"[7, 14, 17, 19, 20, 21, 24, 29]",127.5404924,11603,2935,8,17,9,1.925750226630103
undo,58,22,0,0,0,19,"[0, 16, 28, 6, 9, 19]",6,6,"[7, 14, 17, 21, 24, 29]",107.1444143,13051,1448,3,7,9,2.4220750331476455
undo,58,22,0,0,0,29,"[0, 16, 28, 6, 9, 19, 29]",7,4,"[7, 14, 17, 24]",92.11111796,15106,2055,2,2,9,2.6996279574991067
undo,58,22,0,0,0,7,"[0, 16, 28, 6, 9, 19, 29, 7]",8,1,[14],41.0327468,17556,2450,1,0,9,2.059125386946491
undo,58,22,0,0,1,14,"[0, 16, 28, 6, 9, 19, 29, 7, 14]",9,0,[],27.99434199,19921,2365,1,0,9,2.0997569104205307
undo,58,22,1,0,0,7,"[0, 16, 28, 6, 9, 19, 29, 7]",8,1,[14],41.0327468,21613,1692,1,0,9,2.059125386946491
undo,58,22,0,1,0,7,"[0, 16, 28, 6, 9, 19, 29, 7]",8,1,[14],41.0327468,22913,1300,1,0,9,2.059125386946491
undo,59,26,0,0,0,0,[0],1,29,"[1, 2, 3, 4, 5, 6, 7, 8, 9, 10, 11, 12, 13, 14, 15, 16, 17, 18, 19, 20, 21, 22, 23, 24, 25, 26, 27, 28, 29]",300,224,-1,9,226,9,0.0
undo,59,26,0,0,0,21,"[0, 21]",2,25,"[2, 3, 4, 5, 6, 7, 8, 10, 11, 12, 13, 14, 15, 16, 17, 18, 19, 22, 23, 24, 25, 26, 27, 28, 29]",211.1349337,5216,4992,7,90,9,1.0
undo,59,26,0,0,0,13,"[0, 21, 13]",3,21,"[3, 4, 5, 6, 7, 8, 10, 11, 12, 14, 15, 16, 17, 18, 19, 22, 23, 24, 25, 26, 29]",188.9989901,6923,1707,6,45,9,1.0103952279992225
undo,59,26,0,0,0,5,"[0, 21, 13, 5]",4,12,"[3, 4, 11, 14, 16, 17, 18, 22, 23, 25, 26, 29]",150.7106107,8249,1326,2,10,8,1.0086890649024711
undo,59,26,0,0,0,23,"[0, 21, 13, 5, 23]",5,8,"[3, 4, 11, 14, 16, 17, 22, 29]",118.0150452,10022,1773,2,7,8,1.3518621918690494
undo,59,26,0,0,0,16,"[0, 21, 13, 5, 23, 16]",6,4,"[4, 14, 17, 29]",64.77971862,11949,1927,2,3,8,2.1011863559657242
undo,59,26,0,0,0,29,"[0, 21, 13, 5, 23, 16, 29]",7,2,"[4, 17]",40.57228175,13898,1949,2,0,8,2.123178325538451
undo,59,26,0,0,1,4,"[0, 21, 13, 5, 23, 16, 29, 4]",8,0,[],16.57228175,15648,1750,1,0,8,2.338467952972574
undo,59,26,1,0,0,29,"[0, 21, 13, 5, 23, 16, 29]",7,2,"[4, 17]",40.57228175,16856,1208,2,0,8,2.123178325538451
undo,59,26,0,1,0,29,"[0, 21, 13, 5, 23, 16, 29]",7,2,"[4, 17]",40.57228175,17989,1133,2,0,8,2.123178325538451
undo,60,28,0,0,0,0,[0],1,27,"[1, 2, 3, 4, 5, 6, 7, 8, 9, 10, 11, 12, 13, 14, 15, 16, 17, 18, 19, 20, 22, 23, 25, 26, 27, 28, 29]",300,171,-1,2,96,9,0.0
undo,60,28,0,0,0,3,"[0, 3]",2,26,"[1, 2, 4, 5, 6, 7, 8, 9, 10, 11, 12, 13, 14, 15, 16, 17, 18, 19, 20, 22, 23, 25, 26, 27, 28, 29]",251.0817008,14471,14300,1,64,9,1.0
undo,60,28,0,0,0,18,"[0, 3, 18]",3,12,"[1, 2, 5, 7, 9, 11, 12, 13, 14, 17, 19, 26]",131.4656483,16688,2217,3,48,8,1.0130454444282153
undo,60,28,0,0,0,13,"[0, 3, 18, 13]",4,9,"[2, 5, 7, 11, 12, 14, 17, 19, 26]",107.0525371,18408,1720,2,15,8,1.012641803455538
undo,60,28,0,0,0,12,"[0, 3, 18, 13, 12]",5,7,"[2, 7, 11, 14, 17, 19, 26]",89.84788657,20400,1992,2,6,8,1.0200477282296878
undo,60,28,0,0,0,7,"[0, 3, 18, 13, 12, 7]",6,4,"[2, 14, 19, 26]",76.69494013,21956,1556,2,3,8,1.1399645496638764
undo,60,28,0,0,0,19,"[0, 3, 18, 13, 12, 7, 19]",7,2,"[2, 26]",48.96409088,23700,1744,2,0,8,1.3749046840102168
undo,60,28,0,0,1,2,"[0, 3, 18, 13, 12, 7, 19, 2]",8,0,[],11.6010075,30002,6302,1,0,8,1.437241957684137
undo,60,28,1,0,0,19,"[0, 3, 18, 13, 12, 7, 19]",7,2,"[2, 26]",48.96409088,31357,1355,2,0,8,1.3749046840102168
undo,60,28,0,1,0,19,"[0, 3, 18, 13, 12, 7, 19]",7,2,"[2, 26]",48.96409088,32607,1250,2,0,8,1.3749046840102168
undo,61,30,0,0,0,0,[0],1,19,"[3, 4, 5, 7, 9, 11, 16, 17, 18, 19, 20, 21, 22, 24, 25, 26, 27, 28, 29]",300,162,-1,5,41,8,0.0
undo,61,30,0,0,0,16,"[0, 16]",2,17,"[3, 5, 7, 9, 11, 17, 18, 19, 20, 21, 22, 24, 25, 26, 27, 28, 29]",219.3774225,5743,5581,5,34,8,1.0
undo,61,30,0,0,0,25,"[0, 16, 25]",3,10,"[3, 5, 7, 9, 11, 18, 19, 20, 27, 29]",115.0845656,9692,3949,5,28,8,1.0336279544884488
undo,61,30,0,0,0,27,"[0, 16, 25, 27]",4,7,"[3, 5, 7, 18, 19, 20, 29]",75.52448473,11923,2231,1,12,8,1.0719738181137488
undo,61,30,0,0,0,3,"[0, 16, 25, 27, 3]",5,5,"[5, 7, 18, 20, 29]",56.41951155,13609,1686,1,4,8,1.0683252001879187
undo,61,30,0,0,0,5,"[0, 16, 25, 27, 3, 5]",6,1,[18],31.58002686,16640,3031,1,0,7,1.1100267042438476
undo,61,30,0,0,1,18,"[0, 16, 25, 27, 3, 5, 18]",7,0,[],18.54162205,17929,1289,1,0,7,1.1523571888193607
undo,61,30,1,0,0,5,"[0, 16, 25, 27, 3, 5]",6,1,[18],31.58002686,19566,1637,1,0,7,1.1100267042438476
undo,61,30,0,1,0,5,"[0, 16, 25, 27, 3, 5]",6,1,[18],31.58002686,20865,1299,1,0,7,1.1100267042438476
undo,62,15,0,0,0,0,[0],1,25,"[1, 2, 3, 4, 7, 8, 9, 10, 11, 12, 13, 14, 15, 16, 18, 20, 21, 22, 23, 24, 25, 26, 27, 28, 29]",300,184,-1,4,65,9,0.0
undo,62,15,0,0,0,12,"[0, 12]",2,22,"[1, 2, 3, 4, 7, 8, 9, 10, 11, 13, 14, 15, 16, 18, 21, 22, 23, 24, 26, 27, 28, 29]",213.547701,10521,10337,4,35,9,1.0
undo,62,15,0,0,0,7,"[0, 12, 7]",3,16,"[1, 3, 4, 8, 9, 10, 11, 13, 14, 15, 16, 18, 21, 22, 24, 27]",180.3061607,12687,2166,4,29,9,1.411291635294361
undo,62,15,0,0,0,16,"[0, 12, 7, 16]",4,10,"[3, 4, 10, 11, 13, 14, 15, 18, 21, 22]",136.6484008,14550,1863,2,11,9,1.4308733430458784
undo,62,15,0,0,0,11,"[0, 12, 7, 16, 11]",5,7,"[3, 4, 13, 14, 15, 21, 22]",110.6291772,15852,1302,2,5,9,1.5251025438826007
undo,62,15,0,0,0,3,"[0, 12, 7, 16, 11, 3]",6,5,"[4, 13, 14, 15, 22]",99.22742292,17451,1599,2,3,9,1.5166583878170454
undo,62,15,0,0,0,22,"[0, 12, 7, 16, 11, 3, 22]",7,2,"[13, 15]",49.49815588,19684,2233,2,0,9,1.4519711389669923
undo,62,15,0,0,0,15,"[0, 12, 7, 16, 11, 3, 22, 15]",8,1,[13],23.88565893,22134,2450,1,0,9,1.4060225827822495
undo,62,15,0,0,1,13,"[0, 12, 7, 16, 11, 3, 22, 15, 13]",9,0,[],8.621321408,24404,2270,1,0,9,1.4544229719836068
undo,62,15,1,0,0,15,"[0, 12, 7, 16, 11, 3, 22, 15]",8,1,[13],23.88565893,25640,1236,1,0,9,1.4060225827822495
undo,62,15,0,1,0,15,"[0, 12, 7, 16, 11, 3, 22, 15]",8,1,[13],23.88565893,26990,1350,1,0,9,1.4060225827822495
undo,63,6,0,0,0,0,[0],1,29,"[1, 2, 3, 4, 5, 6, 7, 8, 9, 10, 11, 12, 13, 14, 15, 16, 17, 18, 19, 20, 21, 22, 23, 24, 25, 26, 27, 28, 29]",300,158,-1,180,4304,10,0.0
undo,63,6,0,0,0,3,"[0, 3]",2,28,"[1, 2, 4, 5, 6, 7, 8, 9, 10, 11, 12, 13, 14, 15, 16, 17, 18, 19, 20, 21, 22, 23, 24, 25, 26, 27, 28, 29]",266.4738908,3072,2914,90,1607,10,1.0
undo,63,6,0,0,0,16,"[0, 3, 16]",3,27,"[1, 2, 4, 5, 6, 7, 8, 9, 10, 11, 12, 13, 14, 15, 17, 18, 19, 20, 21, 22, 23, 24, 25, 26, 27, 28, 29]",220.2353787,9737,6665,16,190,10,1.1050742161728249
undo,63,6,0,0,0,18,"[0, 3, 16, 18]",4,24,"[1, 2, 4, 5, 6, 7, 8, 9, 10, 11, 12, 13, 14, 15, 17, 19, 20, 21, 22, 23, 24, 26, 27, 29]",196.8901436,11254,1517,10,97,10,1.6930577237270534
undo,63,6,0,0,0,17,"[0, 3, 16, 18, 17]",5,20,"[1, 2, 4, 5, 6, 7, 8, 9, 10, 11, 13, 14, 20, 21, 22, 23, 24, 26, 27, 29]",182.9617553,13091,1837,8,58,10,1.6583245453234965
undo,63,6,0,0,0,10,"[0, 3, 16, 18, 17, 10]",6,17,"[1, 2, 4, 5, 6, 7, 8, 11, 13, 14, 21, 22, 23, 24, 26, 27, 29]",163.2386724,14508,1417,6,33,10,1.6214605156931816
undo,63,6,0,0,0,24,"[0, 3, 16, 18, 17, 10, 24]",7,15,"[1, 2, 4, 5, 6, 7, 8, 11, 13, 14, 22, 23, 26, 27, 29]",149.8222646,16160,1652,6,18,10,1.5435556829623227
undo,63,6,0,0,0,23,"[0, 3, 16, 18, 17, 10, 24, 23]",8,6,"[6, 11, 14, 22, 27, 29]",88.6340304,19711,3551,3,4,10,1.5749914836315253
undo,63,6,0,0,0,22,"[0, 3, 16, 18, 17, 10, 24, 23, 22]",9,2,"[14, 27]",47.6340304,22573,2862,2,0,10,1.6207636864423158
undo,63,6,0,1,0,22,"[0, 3, 16, 18, 17, 10, 24, 23, 22]",9,2,"[14, 27]",47.6340304,28914,6341,2,0,10,1.6207636864423158
undo,64,21,0,0,0,0,[0],1,29,"[1, 2, 3, 4, 5, 6, 7, 8, 9, 10, 11, 12, 13, 14, 15, 16, 17, 18, 19, 20, 21, 22, 23, 24, 25, 26, 27, 28, 29]",300,160,-1,84,830,9,0.0
undo,64,21,0,0,0,25,"[0, 25]",2,26,"[1, 2, 3, 4, 5, 6, 7, 8, 9, 10, 11, 12, 13, 14, 15, 16, 17, 18, 20, 21, 22, 23, 24, 26, 27, 29]",240.1836143,4085,3925,30,238,9,1.0
undo,64,21,0,0,0,23,"[0, 25, 23]",3,21,"[1, 2, 4, 6, 7, 8, 9, 10, 11, 12, 14, 15, 16, 17, 18, 20, 21, 22, 24, 27, 29]",196.8592562,6551,2466,14,80,9,1.0416131642057598
undo,64,21,0,0,0,21,"[0, 25, 23, 21]",4,14,"[1, 4, 6, 8, 9, 14, 15, 16, 17, 18, 20, 22, 24, 29]",167.2450705,7837,1286,10,25,9,1.4768792067751173
undo,64,21,0,0,0,14,"[0, 25, 23, 21, 14]",5,10,"[4, 8, 9, 15, 16, 17, 18, 22, 24, 29]",141.6325735,9451,1614,8,13,9,1.3826076066332742
undo,64,21,0,0,0,4,"[0, 25, 23, 21, 14, 4]",6,7,"[8, 15, 16, 17, 18, 24, 29]",127.4904379,10693,1242,8,3,9,1.3487191473328533
undo,64,21,0,0,0,16,"[0, 25, 23, 21, 14, 4, 16]",7,3,"[8, 15, 24]",82.89223163,12417,1724,4,1,9,1.3301484172843694
undo,64,21,0,0,0,8,"[0, 25, 23, 21, 14, 4, 16, 8]",8,2,"[15, 24]",64.2911564,13835,1418,2,0,9,1.3009886562393016
undo,64,21,0,0,1,15,"[0, 25, 23, 21, 14, 4, 16, 8, 15]",9,0,[],39.2911564,15399,1564,1,0,9,1.5486591410600183
undo,64,21,1,0,0,8,"[0, 25, 23, 21, 14, 4, 16, 8]",8,2,"[15, 24]",64.2911564,17608,2209,2,0,9,1.3009886562393016
undo,64,21,0,1,0,8,"[0, 25, 23, 21, 14, 4, 16, 8]",8,2,"[15, 24]",64.2911564,21974,4366,2,0,9,1.3009886562393016
undo,65,38,0,0,0,0,[0],1,29,"[1, 2, 3, 4, 5, 6, 7, 8, 9, 10, 11, 12, 13, 14, 15, 16, 17, 18, 19, 20, 21, 22, 23, 24, 25, 26, 27, 28, 29]",300,175,-1,33,506,9,0.0
undo,65,38,0,0,0,19,"[0, 19]",2,23,"[3, 4, 5, 6, 7, 8, 9, 11, 13, 14, 15, 16, 17, 18, 20, 22, 23, 24, 25, 26, 27, 28, 29]",219.5015528,10018,9843,6,61,9,1.0
undo,65,38,0,0,0,17,"[0, 19, 17]",3,21,"[3, 4, 5, 6, 7, 9, 11, 13, 14, 15, 16, 18, 20, 22, 23, 24, 25, 26, 27, 28, 29]",198.1239945,11785,1767,6,53,9,1.571793785769489
undo,65,38,0,0,0,20,"[0, 19, 17, 20]",4,17,"[3, 4, 5, 6, 7, 11, 13, 14, 15, 16, 18, 22, 24, 25, 26, 27, 28]",174.3542658,13356,1571,6,44,9,2.333182710277297
undo,65,38,0,0,0,4,"[0, 19, 17, 20, 4]",5,10,"[5, 11, 13, 14, 15, 16, 24, 26, 27, 28]",140.4131403,15269,1913,5,22,9,2.276099229646013
undo,65,38,0,0,0,15,"[0, 19, 17, 20, 4, 15]",6,8,"[5, 11, 13, 14, 16, 24, 26, 28]",114.4131403,23356,8087,5,6,9,2.5292671156176403
undo,65,38,0,0,0,11,"[0, 19, 17, 20, 4, 15, 11]",7,2,"[16, 28]",78.01259089,25193,1837,2,0,9,2.778100109749787
undo,65,38,0,0,0,28,"[0, 19, 17, 20, 4, 15, 11, 28]",8,1,[16],50.99407872,27407,2214,1,0,9,2.3316428595723258
undo,65,38,0,0,1,16,"[0, 19, 17, 20, 4, 15, 11, 28, 16]",9,0,[],21.99407872,29523,2116,1,0,9,2.5408012360364265
undo,65,38,1,0,0,28,"[0, 19, 17, 20, 4, 15, 11, 28]",8,1,[16],50.99407872,34330,4807,1,0,9,2.3316428595723258
undo,65,38,0,1,0,28,"[0, 19, 17, 20, 4, 15, 11, 28]",8,1,[16],50.99407872,35346,1016,1,0,9,2.3316428595723258
undo,66,18,0,0,0,0,[0],1,28,"[1, 2, 3, 4, 5, 6, 7, 8, 9, 10, 11, 12, 13, 14, 16, 17, 18, 19, 20, 21, 22, 23, 24, 25, 26, 27, 28, 29]",300,185,-1,3,136,10,0.0
undo,66,18,0,0,0,28,"[0, 28]",2,16,"[1, 3, 5, 7, 8, 9, 12, 13, 14, 16, 20, 23, 24, 25, 26, 27]",236.4311397,5131,4946,2,19,10,1.0
undo,66,18,0,0,0,7,"[0, 28, 7]",3,15,"[1, 3, 5, 8, 9, 12, 13, 14, 16, 20, 23, 24, 25, 26, 27]",214.4084242,6652,1521,2,17,10,1.4345180696367563
undo,66,18,0,0,0,25,"[0, 28, 7, 25]",4,13,"[1, 3, 5, 8, 9, 12, 13, 14, 16, 20, 23, 26, 27]",186.6055466,8315,1663,2,15,10,1.8896451241781882
undo,66,18,0,0,0,8,"[0, 28, 7, 25, 8]",5,10,"[3, 5, 9, 12, 13, 14, 16, 23, 26, 27]",149.551532,10263,1948,2,10,10,1.590467437592877
undo,66,18,0,0,0,13,"[0, 28, 7, 25, 8, 13]",6,9,"[3, 5, 9, 12, 14, 16, 23, 26, 27]",128.4565089,12285,2022,2,5,10,1.8248274983549797
undo,66,18,0,0,0,14,"[0, 28, 7, 25, 8, 13, 14]",7,7,"[3, 5, 9, 12, 23, 26, 27]",109.4828429,13797,1512,2,3,10,1.6993534956692746
undo,66,18,0,0,0,3,"[0, 28, 7, 25, 8, 13, 14, 3]",8,3,"[5, 12, 27]",79.39962499,15748,1951,2,1,10,1.802637206541468
undo,66,18,0,0,0,5,"[0, 28, 7, 25, 8, 13, 14, 3, 5]",9,1,[12],21.21887216,18481,2733,1,0,10,1.559774889743805
undo,66,18,0,0,1,12,"[0, 28, 7, 25, 8, 13, 14, 3, 5, 12]",10,0,[],9.817117911,20829,2348,1,0,10,1.563993037384447
undo,66,18,1,0,0,5,"[0, 28, 7, 25, 8, 13, 14, 3, 5]",9,1,[12],21.21887216,22221,1392,1,0,10,1.559774889743805
undo,66,18,0,1,0,5,"[0, 28, 7, 25, 8, 13, 14, 3, 5]",9,1,[12],21.21887216,25004,2783,1,0,10,1.559774889743805
undo,67,2,0,0,0,0,[0],1,23,"[1, 2, 4, 5, 6, 7, 8, 9, 12, 13, 15, 16, 17, 18, 19, 20, 22, 23, 25, 26, 27, 28, 29]",300,218,-1,70,620,10,0.0
undo,67,2,0,0,0,19,"[0, 19]",2,22,"[1, 2, 4, 5, 6, 7, 8, 9, 12, 13, 15, 16, 17, 18, 20, 22, 23, 25, 26, 27, 28, 29]",210.306076,5322,5104,67,431,10,1.0
undo,67,2,0,0,0,12,"[0, 19, 12]",3,17,"[1, 4, 5, 6, 7, 13, 15, 16, 17, 18, 20, 22, 25, 26, 27, 28, 29]",174.2921898,7301,1979,66,298,10,1.1107635036313153
undo,67,2,0,0,0,5,"[0, 19, 12, 5]",4,11,"[1, 6, 7, 13, 15, 16, 18, 22, 25, 26, 29]",144.7625437,8984,1683,38,136,10,1.0968174771581647
undo,67,2,0,0,0,22,"[0, 19, 12, 5, 22]",5,8,"[1, 6, 7, 13, 15, 18, 26, 29]",131.9562952,10366,1382,20,63,10,1.0889910507461968
undo,67,2,0,0,0,13,"[0, 19, 12, 5, 22, 13]",6,7,"[1, 6, 7, 15, 18, 26, 29]",117.0902265,12231,1865,19,20,10,1.236526217328057
undo,67,2,0,0,0,18,"[0, 19, 12, 5, 22, 13, 18]",7,4,"[7, 15, 26, 29]",81.91921567,14965,2734,10,3,10,1.2128708213409936
undo,67,2,0,0,0,7,"[0, 19, 12, 5, 22, 13, 18, 7]",8,3,"[15, 26, 29]",71.62358553,16464,1499,5,0,10,1.2019811287894737
undo,67,2,0,0,0,26,"[0, 19, 12, 5, 22, 13, 18, 7, 26]",9,2,"[15, 29]",48.82007703,19716,3252,2,0,10,1.1883593342191134
undo,67,2,0,0,1,15,"[0, 19, 12, 5, 22, 13, 18, 7, 26, 15]",10,0,[],24.61264015,21517,1801,1,0,10,1.4619750353663825
undo,67,2,1,0,0,26,"[0, 19, 12, 5, 22, 13, 18, 7, 26]",9,2,"[15, 29]",48.82007703,23692,2175,2,0,10,1.1883593342191134
undo,67,2,0,1,0,26,"[0, 19, 12, 5, 22, 13, 18, 7, 26]",9,2,"[15, 29]",48.82007703,25642,1950,2,0,10,1.1883593342191134
undo,68,1,0,0,0,0,[0],1,26,"[1, 2, 4, 5, 7, 8, 9, 10, 11, 12, 13, 14, 15, 16, 17, 18, 19, 20, 21, 22, 23, 24, 25, 26, 28, 29]",300,203,-1,6,74,7,0.0
undo,68,1,0,0,0,14,"[0, 14]",2,19,"[1, 4, 5, 8, 9, 13, 15, 17, 18, 19, 20, 21, 22, 23, 24, 25, 26, 28, 29]",200.1901808,3256,3053,5,42,7,1.0
undo,68,1,0,0,0,17,"[0, 14, 17]",3,15,"[1, 4, 5, 8, 9, 13, 15, 18, 19, 20, 22, 23, 25, 28, 29]",147.8356204,5791,2535,5,27,7,1.0028844724416826
undo,68,1,0,0,0,1,"[0, 14, 17, 1]",4,12,"[4, 5, 8, 9, 15, 18, 20, 22, 23, 25, 28, 29]",123.4840291,7102,1311,5,15,7,1.0264985578353567
undo,68,1,0,0,0,28,"[0, 14, 17, 1, 28]",5,5,"[9, 15, 22, 23, 29]",88.59850198,8738,1636,5,3,7,1.0339861575999345
undo,68,1,0,0,0,15,"[0, 14, 17, 1, 28, 15]",6,3,"[22, 23, 29]",53.37067208,11035,2297,3,0,7,1.055553419196412
undo,68,1,0,0,1,22,"[0, 14, 17, 1, 28, 15, 22]",7,0,[],10.09250206,17534,6499,1,0,7,1.0469795997475408
undo,68,1,1,0,0,15,"[0, 14, 17, 1, 28, 15]",6,3,"[22, 23, 29]",53.37067208,19224,1690,3,0,7,1.055553419196412
undo,68,1,0,1,0,15,"[0, 14, 17, 1, 28, 15]",6,3,"[22, 23, 29]",53.37067208,20690,1466,3,0,7,1.055553419196412
basic,69,34,0,0,0,0,[0],1,25,"[1, 3, 4, 5, 6, 7, 8, 9, 10, 11, 12, 13, 15, 18, 19, 20, 21, 22, 23, 24, 25, 26, 27, 28, 29]",300,179,-1,12,367,10,0.0
basic,69,34,0,0,0,13,"[0, 13]",2,24,"[1, 3, 4, 5, 6, 7, 8, 9, 10, 11, 12, 15, 18, 19, 20, 21, 22, 23, 24, 25, 26, 27, 28, 29]",279.9750156,3673,3494,12,331,10,1.0
basic,69,34,0,0,0,1,"[0, 13, 1]",3,16,"[3, 5, 7, 8, 9, 10, 11, 12, 19, 21, 22, 23, 24, 25, 27, 29]",211.8574701,5738,2065,3,92,10,1.0010381285747127
basic,69,34,0,0,0,8,"[0, 13, 1, 8]",4,14,"[3, 5, 7, 9, 10, 11, 12, 19, 22, 23, 24, 25, 27, 29]",201.0871405,7738,2000,2,54,10,1.1636807
basic,69,34,0,0,0,25,"[0, 13, 1, 8, 25]",5,12,"[3, 5, 7, 9, 10, 11, 12, 22, 23, 24, 27, 29]",183.999133,9122,1384,2,28,10,1.1396208815936457
basic,69,34,0,0,0,24,"[0, 13, 1, 8, 25, 24]",6,11,"[3, 5, 7, 9, 10, 11, 12, 22, 23, 27, 29]",166.5062774,10338,1216,2,23,10,1.374180768736554
basic,69,34,0,0,0,7,"[0, 13, 1, 8, 25, 24, 7]",7,8,"[9, 10, 11, 12, 22, 23, 27, 29]",111.7979599,13439,3101,1,9,10,1.6588278239991836
basic,69,34,0,0,0,12,"[0, 13, 1, 8, 25, 24, 7, 12]",8,6,"[9, 10, 11, 22, 23, 27]",96.76466351,14788,1349,1,5,10,1.6513922595704515
basic,69,34,0,1,0,12,"[0, 13, 1, 8, 25, 24, 7, 12]",8,6,"[9, 10, 11, 22, 23, 27]",96.76466351,17911,3123,1,5,10,1.6513922595704515
basic,70,41,0,0,0,0,[0],1,29,"[1, 2, 3, 4, 5, 6, 7, 8, 9, 10, 11, 12, 13, 14, 15, 16, 17, 18, 19, 20, 21, 22, 23, 24, 25, 26, 27, 28, 29]",300,159,-1,1,143,10,0.0
basic,70,41,0,0,0,28,"[0, 28]",2,27,"[1, 2, 3, 5, 6, 7, 8, 9, 10, 11, 12, 13, 14, 15, 16, 17, 18, 19, 20, 21, 22, 23, 24, 25, 26, 27, 29]",259.8004975,7300,7141,37,249,9,1.0
basic,70,41,0,0,0,5,"[0, 28, 5]",3,26,"[1, 2, 3, 6, 7, 8, 9, 10, 11, 12, 13, 14, 15, 16, 17, 18, 19, 20, 21, 22, 23, 24, 25, 26, 27, 29]",246.199027,11427,4127,30,182,9,1.714241539747437
basic,70,41,0,0,0,3,"[0, 28, 5, 3]",4,25,"[1, 2, 6, 7, 8, 9, 10, 11, 12, 13, 14, 15, 16, 17, 18, 19, 20, 21, 22, 23, 24, 25, 26, 27, 29]",211.3708775,13389,1962,20,93,9,2.2367972660995847
basic,70,41,0,0,0,21,"[0, 28, 5, 3, 21]",5,19,"[1, 2, 6, 9, 10, 11, 12, 13, 14, 15, 17, 18, 19, 20, 22, 24, 25, 26, 27]",179.2305601,23089,9700,12,46,9,2.470864770481327
basic,70,41,0,0,0,9,"[0, 28, 5, 3, 21, 9]",6,13,"[1, 2, 10, 12, 13, 14, 15, 17, 19, 22, 24, 25, 26]",129.8645799,27387,4298,3,17,9,2.0674559404382
basic,70,41,0,0,0,2,"[0, 28, 5, 3, 21, 9, 2]",7,9,"[1, 10, 12, 14, 15, 17, 19, 22, 24]",117.7815339,29094,1707,2,7,9,2.0139863201149533
basic,70,41,0,0,0,17,"[0, 28, 5, 3, 21, 9, 2, 17]",8,1,[10],85.22389276,36469,7375,1,0,9,3.388293326704014
basic,70,41,0,1,0,17,"[0, 28, 5, 3, 21, 9, 2, 17]",8,1,[10],85.22389276,39161,2692,1,0,9,3.388293326704014
basic,71,13,0,0,0,0,[0],1,29,"[1, 2, 3, 4, 5, 6, 7, 8, 9, 10, 11, 12, 13, 14, 15, 16, 17, 18, 19, 20, 21, 22, 23, 24, 25, 26, 27, 28, 29]",300,161,-1,60,2676,11,0.0
basic,71,13,0,0,0,24,"[0, 24]",2,28,"[1, 2, 3, 4, 5, 6, 7, 8, 9, 10, 11, 12, 13, 14, 15, 16, 17, 18, 19, 20, 21, 22, 23, 25, 26, 27, 28, 29]",288.8196601,13151,12990,16,1444,11,1.0
basic,71,13,0,0,0,28,"[0, 24, 28]",3,23,"[1, 2, 3, 4, 6, 7, 8, 9, 10, 11, 12, 13, 15, 16, 17, 19, 20, 21, 22, 23, 26, 27, 29]",222.5324064,15316,2165,8,243,11,1.0513810491680837
basic,71,13,0,0,0,2,"[0, 24, 28, 2]",4,19,"[1, 3, 4, 6, 7, 9, 11, 12, 13, 15, 16, 17, 19, 20, 21, 23, 26, 27, 29]",184.889346,16619,1303,7,110,11,1.050374132001543
basic,71,13,0,0,0,29,"[0, 24, 28, 2, 29]",5,18,"[1, 3, 4, 6, 7, 9, 11, 12, 13, 15, 16, 17, 19, 20, 21, 23, 26, 27]",173.1846461,18251,1632,7,85,11,1.1393409619120594
basic,71,13,0,0,0,7,"[0, 24, 28, 2, 29, 7]",6,17,"[1, 3, 4, 6, 9, 11, 12, 13, 15, 16, 17, 19, 20, 21, 23, 26, 27]",157.9203086,19585,1334,5,45,11,1.349777315111579
basic,71,13,0,0,0,26,"[0, 24, 28, 2, 29, 7, 26]",7,16,"[1, 3, 4, 6, 9, 11, 12, 13, 15, 16, 17, 19, 20, 21, 23, 27]",147.480002,20801,1216,5,25,11,1.5942082773824946
basic,71,13,0,0,0,6,"[0, 24, 28, 2, 29, 7, 26, 6]",8,12,"[1, 3, 4, 11, 13, 15, 16, 17, 19, 20, 23, 27]",127.3802508,22149,1348,4,12,11,1.5898347940840756
basic,71,13,0,0,0,11,"[0, 24, 28, 2, 29, 7, 26, 6, 11]",9,6,"[1, 13, 15, 16, 17, 23]",108.2752776,23649,1500,3,4,11,1.5029953945561012
basic,71,13,0,1,0,11,"[0, 24, 28, 2, 29, 7, 26, 6, 11]",9,6,"[1, 13, 15, 16, 17, 23]",108.2752776,25975,2326,3,4,11,1.5029953945561012
basic,72,38,0,0,0,0,[0],1,29,"[1, 2, 3, 4, 5, 6, 7, 8, 9, 10, 11, 12, 13, 14, 15, 16, 17, 18, 19, 20, 21, 22, 23, 24, 25, 26, 27, 28, 29]",300,161,-1,33,506,9,0.0
basic,72,38,0,0,0,19,"[0, 19]",2,23,"[3, 4, 5, 6, 7, 8, 9, 11, 13, 14, 15, 16, 17, 18, 20, 22, 23, 24, 25, 26, 27, 28, 29]",219.5015528,25561,25400,6,61,9,1.0
basic,72,38,0,0,0,17,"[0, 19, 17]",3,21,"[3, 4, 5, 6, 7, 9, 11, 13, 14, 15, 16, 18, 20, 22, 23, 24, 25, 26, 27, 28, 29]",198.1239945,26890,1329,6,53,9,1.571793785769489
basic,72,38,0,0,0,4,"[0, 19, 17, 4]",4,11,"[5, 11, 13, 14, 15, 16, 20, 24, 26, 27, 28]",142.365587,31046,4156,5,33,8,2.2482525608278605
basic,72,38,0,0,0,15,"[0, 19, 17, 4, 15]",5,9,"[5, 11, 13, 14, 16, 20, 24, 26, 28]",116.365587,35840,4794,5,9,8,2.5026582315550034
basic,72,38,0,0,0,11,"[0, 19, 17, 4, 15, 11]",6,3,"[14, 16, 28]",79.9650376,38072,2232,2,1,8,2.7536658752088368
basic,72,38,0,0,0,28,"[0, 19, 17, 4, 15, 11, 28]",7,1,[16],52.94652543,39570,1498,1,0,8,2.3133605295511535
basic,72,38,0,1,0,28,"[0, 19, 17, 4, 15, 11, 28]",7,1,[16],52.94652543,42045,2475,1,0,8,2.3133605295511535
basic,73,6,0,0,0,0,[0],1,29,"[1, 2, 3, 4, 5, 6, 7, 8, 9, 10, 11, 12, 13, 14, 15, 16, 17, 18, 19, 20, 21, 22, 23, 24, 25, 26, 27, 28, 29]",300,167,-1,180,4304,10,0.0
basic,73,6,0,0,0,3,"[0, 3]",2,28,"[1, 2, 4, 5, 6, 7, 8, 9, 10, 11, 12, 13, 14, 15, 16, 17, 18, 19, 20, 21, 22, 23, 24, 25, 26, 27, 28, 29]",266.4738908,8015,7848,90,1607,10,1.0
basic,73,6,0,0,0,18,"[0, 3, 18]",3,27,"[1, 2, 4, 5, 6, 7, 8, 9, 10, 11, 12, 13, 14, 15, 16, 17, 19, 20, 21, 22, 23, 24, 25, 26, 27, 28, 29]",237.4738908,10524,2509,34,516,10,1.0266750028725786
basic,73,6,0,0,0,17,"[0, 3, 18, 17]",4,26,"[1, 2, 4, 5, 6, 7, 8, 9, 10, 11, 12, 13, 14, 15, 16, 19, 20, 21, 22, 23, 24, 25, 26, 27, 28, 29]",223.5455025,11680,1156,17,243,10,1.0832900829093166
basic,73,6,0,0,0,10,"[0, 3, 18, 17, 10]",5,22,"[1, 2, 4, 5, 6, 7, 8, 9, 11, 13, 14, 16, 19, 20, 21, 22, 23, 24, 26, 27, 28, 29]",203.8224196,12825,1145,10,111,10,1.140294203414171
basic,73,6,0,0,0,24,"[0, 3, 18, 17, 10, 24]",6,19,"[1, 2, 4, 5, 6, 7, 8, 11, 13, 14, 16, 20, 21, 22, 23, 26, 27, 28, 29]",190.4060117,13858,1033,10,80,10,1.1264281153820843
basic,73,6,0,0,0,16,"[0, 3, 18, 17, 10, 24, 16]",7,13,"[1, 2, 6, 7, 13, 14, 20, 21, 22, 23, 26, 27, 29]",134.3703088,15207,1349,6,21,10,2.2946652061367843
basic,73,6,0,0,0,29,"[0, 3, 18, 17, 10, 24, 16, 29]",8,7,"[6, 14, 20, 21, 22, 23, 27]",97.68243615,16840,1633,5,5,10,1.8995488998077483
basic,73,6,0,1,0,29,"[0, 3, 18, 17, 10, 24, 16, 29]",8,7,"[6, 14, 20, 21, 22, 23, 27]",97.68243615,18648,1808,5,5,10,1.8995488998077483
basic,74,31,0,0,0,0,[0],1,27,"[1, 3, 4, 5, 6, 7, 8, 10, 11, 12, 13, 14, 15, 16, 17, 18, 19, 20, 21, 22, 23, 24, 25, 26, 27, 28, 29]",300,163,-1,2,87,10,0.0
basic,74,31,0,0,0,14,"[0, 14]",2,25,"[1, 3, 5, 6, 7, 8, 10, 11, 12, 13, 15, 16, 17, 18, 19, 20, 21, 22, 23, 24, 25, 26, 27, 28, 29]",263.861378,2789,2626,2,59,10,1.0
basic,74,31,0,0,0,27,"[0, 14, 27]",3,22,"[1, 3, 5, 6, 7, 8, 10, 11, 12, 13, 15, 16, 17, 18, 19, 20, 21, 22, 24, 25, 28, 29]",235.6833724,4488,1699,1,39,10,1.5881859159302467
basic,74,31,0,0,0,8,"[0, 14, 27, 8]",4,20,"[1, 3, 5, 6, 7, 10, 11, 12, 13, 16, 17, 18, 19, 20, 21, 22, 24, 25, 28, 29]",224.6380114,5388,900,1,36,10,2.1665048452331277
basic,74,31,0,0,0,11,"[0, 14, 27, 8, 11]",5,13,"[1, 5, 7, 12, 13, 16, 17, 18, 19, 20, 22, 25, 28]",173.3934995,10521,5133,7,41,9,2.0680270430571026
basic,74,31,0,0,0,5,"[0, 14, 27, 8, 11, 5]",6,9,"[12, 16, 17, 18, 19, 20, 22, 25, 28]",129.7128401,12252,1731,9,4,8,1.9411065396000253
basic,74,31,0,0,0,28,"[0, 14, 27, 8, 11, 5, 28]",7,5,"[16, 17, 18, 20, 25]",109.4890917,13242,990,5,0,8,1.7749035551522492
basic,74,31,0,0,1,16,"[0, 14, 27, 8, 11, 5, 28, 16]",8,0,[],75.8736191,14441,1199,1,0,8,1.6781550038107784
basic,74,31,0,1,1,16,"[0, 14, 27, 8, 11, 5, 28, 16]",8,0,[],75.8736191,18365,3924,1,0,8,1.6781550038107784
basic,75,3,0,0,0,0,[0],1,29,"[1, 2, 3, 4, 5, 6, 7, 8, 9, 10, 11, 12, 13, 14, 15, 16, 17, 18, 19, 20, 21, 22, 23, 24, 25, 26, 27, 28, 29]",300,171,-1,34,427,10,0.0
basic,75,3,0,0,0,7,"[0, 7]",2,28,"[1, 2, 3, 4, 5, 6, 8, 9, 10, 11, 12, 13, 14, 15, 16, 17, 18, 19, 20, 21, 22, 23, 24, 25, 26, 27, 28, 29]",278.8103799,10769,10598,24,215,10,1.0
basic,75,3,0,0,0,8,"[0, 7, 8]",3,24,"[1, 2, 3, 4, 5, 6, 10, 11, 12, 13, 14, 15, 16, 17, 18, 19, 20, 21, 22, 24, 25, 26, 27, 28]",222.837172,12839,2070,16,114,10,1.2853332575451413
basic,75,3,0,0,0,24,"[0, 7, 8, 24]",4,21,"[1, 3, 4, 5, 6, 10, 11, 12, 14, 15, 16, 17, 18, 19, 20, 21, 22, 25, 26, 27, 28]",210.671647,15368,2529,16,91,10,1.5177505014936548
basic,75,3,0,0,0,14,"[0, 7, 8, 24, 14]",5,7,"[3, 4, 10, 17, 19, 20, 21]",139.5590602,16968,1600,4,18,10,1.2465780547557723
basic,75,3,0,0,0,21,"[0, 7, 8, 24, 14, 21]",6,6,"[3, 4, 10, 17, 19, 20]",112.6518121,18073,1105,2,7,10,1.2183717977583874
basic,75,3,0,0,0,19,"[0, 7, 8, 24, 14, 21, 19]",7,5,"[3, 4, 10, 17, 20]",100.4452565,19571,1498,2,4,10,1.3521756718137403
basic,75,3,0,1,0,19,"[0, 7, 8, 24, 14, 21, 19]",7,5,"[3, 4, 10, 17, 20]",100.4452565,21742,2171,2,4,10,1.3521756718137403
basic,76,1,0,0,0,0,[0],1,26,"[1, 2, 4, 5, 7, 8, 9, 10, 11, 12, 13, 14, 15, 16, 17, 18, 19, 20, 21, 22, 23, 24, 25, 26, 28, 29]",300,178,-1,6,74,7,0.0
basic,76,1,0,0,0,14,"[0, 14]",2,19,"[1, 4, 5, 8, 9, 13, 15, 17, 18, 19, 20, 21, 22, 23, 24, 25, 26, 28, 29]",200.1901808,8238,8060,5,42,7,1.0
basic,76,1,0,0,0,17,"[0, 14, 17]",3,15,"[1, 4, 5, 8, 9, 13, 15, 18, 19, 20, 22, 23, 25, 28, 29]",147.8356204,9669,1431,5,27,7,1.0028844724416826
basic,76,1,0,0,0,1,"[0, 14, 17, 1]",4,12,"[4, 5, 8, 9, 15, 18, 20, 22, 23, 25, 28, 29]",123.4840291,11137,1468,5,15,7,1.0264985578353567
basic,76,1,0,0,0,28,"[0, 14, 17, 1, 28]",5,5,"[9, 15, 22, 23, 29]",88.59850198,13291,2154,5,3,7,1.0339861575999345
basic,76,1,0,0,0,15,"[0, 14, 17, 1, 28, 15]",6,3,"[22, 23, 29]",53.37067208,14758,1467,3,0,7,1.055553419196412
basic,76,1,0,1,0,15,"[0, 14, 17, 1, 28, 15]",6,3,"[22, 23, 29]",53.37067208,16059,1301,3,0,7,1.055553419196412
basic,77,8,0,0,0,0,[0],1,29,"[1, 2, 3, 4, 5, 6, 7, 8, 9, 10, 11, 12, 13, 14, 15, 16, 17, 18, 19, 20, 21, 22, 23, 24, 25, 26, 27, 28, 29]",300,172,-1,10,149,9,0.0
basic,77,8,0,0,0,5,"[0, 5]",2,28,"[1, 2, 3, 4, 6, 7, 8, 9, 10, 11, 12, 13, 14, 15, 16, 17, 18, 19, 20, 21, 22, 23, 24, 25, 26, 27, 28, 29]",254.5137383,6292,6120,10,100,9,1.0
basic,77,8,0,0,0,14,"[0, 5, 14]",3,20,"[1, 2, 3, 4, 6, 7, 11, 15, 16, 17, 18, 19, 20, 21, 22, 23, 24, 25, 28, 29]",214.5512559,7789,1497,4,36,9,1.0001019035932595
basic,77,8,0,0,0,17,"[0, 5, 14, 17]",4,15,"[1, 4, 6, 7, 11, 15, 16, 18, 19, 20, 22, 23, 24, 25, 28]",177.5377449,9256,1467,4,16,9,1.121197267659591
