condition,trial_id,map_id,undoIndicator,submit,checkEnd,currentChoice,chosen_all,n_city_all,n_within_reach,cities_reach,currentBudget,time_all,rt_all,n_opt_paths_all,n_subopt_paths_all,mas_all,tortuosity_all
undo,0,14,0,0,0,0,[0],1,29,"[1, 2, 3, 4, 5, 6, 7, 8, 9, 10, 11, 12, 13, 14, 15, 16, 17, 18, 19, 20, 21, 22, 23, 24, 25, 26, 27, 28, 29]",300,144,-1,8,157,10,0.0
undo,0,14,0,0,0,18,"[0, 18]",2,17,"[1, 2, 3, 4, 7, 8, 9, 13, 15, 17, 19, 20, 22, 23, 25, 26, 28]",179.8958785,2937,2793,18,136,9,1.0
undo,0,14,0,0,0,8,"[0, 18, 8]",3,13,"[1, 2, 4, 7, 13, 15, 17, 19, 20, 23, 25, 26, 28]",166.294408,3609,672,18,99,9,1.0203858410107731
undo,0,14,0,0,0,1,"[0, 18, 8, 1]",4,10,"[2, 4, 7, 15, 17, 19, 23, 25, 26, 28]",142.6935606,4332,723,11,42,9,1.0173392374431458
undo,0,14,0,0,0,19,"[0, 18, 8, 1, 19]",5,9,"[2, 4, 7, 15, 17, 23, 25, 26, 28]",127.4620143,6257,1925,11,22,9,1.1668364376922102
undo,0,14,0,0,0,25,"[0, 18, 8, 1, 19, 25]",6,5,"[2, 4, 7, 23, 26]",91.61511768,9457,3200,5,7,9,1.273103293863789
undo,0,14,0,0,0,7,"[0, 18, 8, 1, 19, 25, 7]",7,4,"[2, 4, 23, 26]",71.91740208,11047,1590,2,2,9,1.3059971565497175
undo,0,14,0,0,0,23,"[0, 18, 8, 1, 19, 25, 7, 23]",8,1,[26],34.80945145,16918,5871,1,0,9,1.4108075818506876
undo,0,14,0,0,1,26,"[0, 18, 8, 1, 19, 25, 7, 23, 26]",9,0,[],23.99279762,18812,1894,1,0,9,1.3911752305399343
undo,0,14,0,1,1,26,"[0, 18, 8, 1, 19, 25, 7, 23, 26]",9,0,[],23.99279762,20022,1210,1,0,9,1.3911752305399343
undo,1,9,0,0,0,0,[0],1,27,"[1, 3, 4, 5, 6, 7, 8, 9, 10, 11, 13, 14, 15, 16, 17, 18, 19, 20, 21, 22, 23, 24, 25, 26, 27, 28, 29]",300,148,-1,2,182,10,0.0
undo,1,9,0,0,0,9,"[0, 9]",2,26,"[1, 3, 4, 5, 6, 7, 8, 10, 11, 13, 14, 15, 16, 17, 18, 19, 20, 21, 22, 23, 24, 25, 26, 27, 28, 29]",225.5352432,7128,6980,2,101,9,1.0
undo,1,9,0,0,0,23,"[0, 9, 23]",3,22,"[1, 3, 4, 5, 7, 8, 10, 11, 13, 15, 16, 17, 18, 19, 20, 21, 22, 24, 25, 26, 27, 28]",203.1745635,7777,649,2,70,9,1.6262276606762436
undo,1,9,0,0,0,8,"[0, 9, 23, 8]",4,18,"[3, 4, 5, 7, 10, 11, 15, 16, 17, 18, 19, 20, 21, 22, 25, 26, 27, 28]",181.7036529,8511,734,1,36,9,1.8547307061753238
undo,1,9,0,0,0,28,"[0, 9, 23, 8, 28]",5,17,"[3, 4, 5, 7, 10, 11, 15, 16, 17, 18, 19, 20, 21, 22, 25, 26, 27]",170.8869991,9187,676,1,23,9,1.7382749966569708
undo,1,9,0,0,0,26,"[0, 9, 23, 8, 28, 26]",6,10,"[3, 5, 10, 15, 16, 18, 19, 20, 21, 25]",126.1097727,10586,1399,4,7,8,1.4884719959249546
undo,1,9,0,0,0,21,"[0, 9, 23, 8, 28, 26, 21]",7,1,[20],72.20244484,11353,767,1,0,8,1.9218119811471304
undo,1,9,0,0,1,20,"[0, 9, 23, 8, 28, 26, 21, 20]",8,0,[],60.11939886,11961,608,1,0,8,1.8940565724013747
undo,1,9,0,1,1,20,"[0, 9, 23, 8, 28, 26, 21, 20]",8,0,[],60.11939886,13462,1501,1,0,8,1.8940565724013747
undo,2,21,0,0,0,0,[0],1,29,"[1, 2, 3, 4, 5, 6, 7, 8, 9, 10, 11, 12, 13, 14, 15, 16, 17, 18, 19, 20, 21, 22, 23, 24, 25, 26, 27, 28, 29]",300,148,-1,84,830,9,0.0
undo,2,21,0,0,0,18,"[0, 18]",2,28,"[1, 2, 3, 4, 5, 6, 7, 8, 9, 10, 11, 12, 13, 14, 15, 16, 17, 19, 20, 21, 22, 23, 24, 25, 26, 27, 28, 29]",240.923778,4827,4679,44,305,9,1.0
undo,2,21,0,0,0,29,"[0, 18, 29]",3,24,"[1, 2, 3, 4, 6, 7, 8, 9, 10, 11, 12, 13, 14, 15, 16, 17, 20, 21, 22, 23, 24, 25, 26, 27]",212.2706805,5912,1085,11,87,9,1.035555280387994
undo,2,21,0,0,0,25,"[0, 18, 29, 25]",4,18,"[1, 4, 6, 8, 9, 10, 11, 12, 14, 15, 16, 17, 20, 21, 22, 23, 24, 26]",167.0490043,7072,1160,6,45,9,2.2226517719335437
undo,2,21,0,0,0,23,"[0, 18, 29, 25, 23]",5,10,"[4, 8, 14, 15, 16, 17, 20, 21, 22, 24]",123.7246462,7977,905,3,20,9,1.7801958981326236
undo,2,21,0,0,0,21,"[0, 18, 29, 25, 23, 21]",6,3,"[4, 14, 16]",94.11046043,8504,527,1,3,9,2.290491065218303
undo,2,21,0,0,0,14,"[0, 18, 29, 25, 23, 21, 14]",7,2,"[4, 16]",68.49796348,9120,616,1,1,9,2.021100447974041
undo,2,21,0,0,0,4,"[0, 18, 29, 25, 23, 21, 14, 4]",8,1,[16],54.35582786,10018,898,1,0,9,1.9205022281831265
undo,2,21,0,0,1,16,"[0, 18, 29, 25, 23, 21, 14, 4, 16]",9,0,[],9.757621617,11453,1435,1,0,9,1.7782202964615115
undo,2,21,0,1,1,16,"[0, 18, 29, 25, 23, 21, 14, 4, 16]",9,0,[],9.757621617,12145,692,1,0,9,1.7782202964615115
undo,3,28,0,0,0,0,[0],1,27,"[1, 2, 3, 4, 5, 6, 7, 8, 9, 10, 11, 12, 13, 14, 15, 16, 17, 18, 19, 20, 22, 23, 25, 26, 27, 28, 29]",300,149,-1,2,96,9,0.0
undo,3,28,0,0,0,3,"[0, 3]",2,26,"[1, 2, 4, 5, 6, 7, 8, 9, 10, 11, 12, 13, 14, 15, 16, 17, 18, 19, 20, 22, 23, 25, 26, 27, 28, 29]",251.0817008,5656,5507,1,64,9,1.0
undo,3,28,0,0,0,14,"[0, 3, 14]",3,13,"[1, 2, 5, 7, 10, 11, 12, 13, 17, 18, 19, 20, 26]",142.7396498,6589,933,19,59,8,1.0338694802207566
undo,3,28,0,0,0,18,"[0, 3, 14, 18]",4,10,"[1, 2, 5, 7, 11, 12, 13, 17, 19, 26]",117.2445523,7154,565,18,18,8,1.098527225277385
undo,3,28,0,0,0,13,"[0, 3, 14, 18, 13]",5,7,"[2, 7, 11, 12, 17, 19, 26]",92.83144103,7887,733,8,6,8,1.0872780601597938
undo,3,28,0,0,0,12,"[0, 3, 14, 18, 13, 12]",6,3,"[2, 7, 19]",75.6267905,8504,617,3,1,8,1.0890748557820906
undo,3,28,0,0,0,7,"[0, 3, 14, 18, 13, 12, 7]",7,2,"[2, 19]",62.47384406,9135,631,2,0,8,1.2125627495730145
undo,3,28,0,0,1,19,"[0, 3, 14, 18, 13, 12, 7, 19]",8,0,[],34.74299481,9828,693,1,0,8,1.4527925513951803
undo,3,28,0,1,1,19,"[0, 3, 14, 18, 13, 12, 7, 19]",8,0,[],34.74299481,15645,5817,1,0,8,1.4527925513951803
undo,4,2,0,0,0,0,[0],1,23,"[1, 2, 4, 5, 6, 7, 8, 9, 12, 13, 15, 16, 17, 18, 19, 20, 22, 23, 25, 26, 27, 28, 29]",300,148,-1,70,620,10,0.0
undo,4,2,0,0,0,19,"[0, 19]",2,22,"[1, 2, 4, 5, 6, 7, 8, 9, 12, 13, 15, 16, 17, 18, 20, 22, 23, 25, 26, 27, 28, 29]",210.306076,2655,2507,67,431,10,1.0
undo,4,2,0,0,0,12,"[0, 19, 12]",3,17,"[1, 4, 5, 6, 7, 13, 15, 16, 17, 18, 20, 22, 25, 26, 27, 28, 29]",174.2921898,3262,607,66,298,10,1.1107635036313153
undo,4,2,0,0,0,5,"[0, 19, 12, 5]",4,11,"[1, 6, 7, 13, 15, 16, 18, 22, 25, 26, 29]",144.7625437,3813,551,38,136,10,1.0968174771581647
undo,4,2,0,0,0,22,"[0, 19, 12, 5, 22]",5,8,"[1, 6, 7, 13, 15, 18, 26, 29]",131.9562952,5117,1304,20,63,10,1.0889910507461968
undo,4,2,0,0,0,13,"[0, 19, 12, 5, 22, 13]",6,7,"[1, 6, 7, 15, 18, 26, 29]",117.0902265,5605,488,19,20,10,1.236526217328057
undo,4,2,0,0,0,18,"[0, 19, 12, 5, 22, 13, 18]",7,4,"[7, 15, 26, 29]",81.91921567,6551,946,10,3,10,1.2128708213409936
undo,4,2,0,0,0,7,"[0, 19, 12, 5, 22, 13, 18, 7]",8,3,"[15, 26, 29]",71.62358553,6987,436,5,0,10,1.2019811287894737
undo,4,2,0,0,0,26,"[0, 19, 12, 5, 22, 13, 18, 7, 26]",9,2,"[15, 29]",48.82007703,7645,658,2,0,10,1.1883593342191134
undo,4,2,0,0,1,15,"[0, 19, 12, 5, 22, 13, 18, 7, 26, 15]",10,0,[],24.61264015,8557,912,1,0,10,1.4619750353663825
undo,4,2,0,1,1,15,"[0, 19, 12, 5, 22, 13, 18, 7, 26, 15]",10,0,[],24.61264015,9562,1005,1,0,10,1.4619750353663825
undo,5,12,0,0,0,0,[0],1,29,"[1, 2, 3, 4, 5, 6, 7, 8, 9, 10, 11, 12, 13, 14, 15, 16, 17, 18, 19, 20, 21, 22, 23, 24, 25, 26, 27, 28, 29]",300,148,-1,2,32,9,0.0
undo,5,12,0,0,0,18,"[0, 18]",2,12,"[1, 2, 3, 5, 6, 7, 9, 11, 15, 17, 20, 21]",149.9166898,6704,6556,1,6,7,1.0
undo,5,12,0,0,0,21,"[0, 18, 21]",3,7,"[1, 3, 5, 9, 11, 15, 17]",133.6378692,7223,519,1,4,7,1.0169396745301669
undo,5,12,0,0,0,15,"[0, 18, 21, 15]",4,4,"[1, 5, 11, 17]",78.56518995,7971,748,1,3,7,1.1718752316940058
undo,5,12,0,0,0,17,"[0, 18, 21, 15, 17]",5,2,"[1, 11]",62.07276745,8521,550,1,1,7,1.219114137966991
undo,5,12,0,0,0,11,"[0, 18, 21, 15, 17, 11]",6,1,[1],18.65618076,9360,839,1,0,7,1.1797449530218118
undo,5,12,0,0,1,1,"[0, 18, 21, 15, 17, 11, 1]",7,0,[],2.103235402,9976,616,1,0,7,1.2259852812575018
undo,5,12,0,1,1,1,"[0, 18, 21, 15, 17, 11, 1]",7,0,[],2.103235402,11162,1186,1,0,7,1.2259852812575018
undo,6,4,0,0,0,0,[0],1,26,"[3, 4, 5, 6, 7, 8, 10, 11, 12, 13, 14, 15, 16, 17, 18, 19, 20, 21, 22, 23, 24, 25, 26, 27, 28, 29]",300,147,-1,4,489,10,0.0
undo,6,4,0,0,0,28,"[0, 28]",2,21,"[3, 4, 5, 6, 10, 11, 12, 13, 14, 15, 16, 17, 19, 20, 21, 22, 23, 24, 25, 26, 27]",225.9392142,2103,1956,2,216,10,1.0
undo,6,4,0,0,0,14,"[0, 28, 14]",3,13,"[3, 4, 5, 6, 11, 13, 16, 17, 20, 21, 22, 24, 25]",159.6972335,3012,909,1,26,10,1.0273973946789214
undo,6,4,0,0,0,25,"[0, 28, 14, 25]",4,12,"[3, 4, 5, 6, 11, 13, 16, 17, 20, 21, 22, 24]",143.572718,3595,583,1,25,10,1.233547772313525
undo,6,4,0,0,0,11,"[0, 28, 14, 25, 11]",5,10,"[3, 4, 5, 6, 13, 16, 17, 20, 21, 22]",124.7844238,4152,557,1,15,10,1.425978575879479
undo,6,4,0,0,0,16,"[0, 28, 14, 25, 11, 16]",6,9,"[3, 4, 5, 6, 13, 17, 20, 21, 22]",109.7844238,4614,462,1,12,10,1.3799325158051412
undo,6,4,0,0,0,17,"[0, 28, 14, 25, 11, 16, 17]",7,5,"[3, 5, 20, 21, 22]",83.70761416,5735,1121,1,5,10,1.3195184878861832
undo,6,4,0,0,0,20,"[0, 28, 14, 25, 11, 16, 17, 20]",8,3,"[5, 21, 22]",43.48324344,8011,2276,1,2,10,1.4038284317031835
undo,6,4,0,0,0,22,"[0, 28, 14, 25, 11, 16, 17, 20, 22]",9,1,[21],13.25081052,8851,840,1,0,10,1.807318570651008
undo,6,4,0,0,1,21,"[0, 28, 14, 25, 11, 16, 17, 20, 22, 21]",10,0,[],2.205449508,9512,661,1,0,10,2.0148407301566107
undo,6,4,0,1,1,21,"[0, 28, 14, 25, 11, 16, 17, 20, 22, 21]",10,0,[],2.205449508,10678,1166,1,0,10,2.0148407301566107
undo,7,40,0,0,0,0,[0],1,29,"[1, 2, 3, 4, 5, 6, 7, 8, 9, 10, 11, 12, 13, 14, 15, 16, 17, 18, 19, 20, 21, 22, 23, 24, 25, 26, 27, 28, 29]",300,164,-1,8,191,9,0.0
undo,7,40,0,0,0,2,"[0, 2]",2,28,"[1, 3, 4, 5, 6, 7, 8, 9, 10, 11, 12, 13, 14, 15, 16, 17, 18, 19, 20, 21, 22, 23, 24, 25, 26, 27, 28, 29]",263.7646581,2338,2174,4,79,9,1.0
undo,7,40,0,0,0,19,"[0, 2, 19]",3,22,"[1, 5, 6, 7, 8, 9, 10, 11, 13, 14, 15, 17, 18, 20, 21, 22, 23, 24, 25, 26, 27, 29]",194.4249148,7889,5551,19,105,8,1.02908296307533
undo,7,40,0,0,0,23,"[0, 2, 19, 23]",4,15,"[1, 5, 6, 7, 8, 9, 10, 11, 13, 17, 18, 21, 22, 27, 29]",162.4718242,8592,703,11,38,8,1.4499965171787688
undo,7,40,0,0,0,5,"[0, 2, 19, 23, 5]",5,10,"[1, 6, 7, 8, 9, 11, 18, 21, 22, 27]",134.1698808,9810,1218,4,12,8,1.3483906154476113
undo,7,40,0,0,0,18,"[0, 2, 19, 23, 5, 18]",6,5,"[1, 6, 9, 21, 22]",102.594574,11379,1569,3,3,8,1.6664768989460201
undo,7,40,0,0,0,9,"[0, 2, 19, 23, 5, 18, 9]",7,2,"[6, 21]",86.04162866,11837,458,2,0,8,1.7348609689602368
undo,7,40,0,0,1,21,"[0, 2, 19, 23, 5, 18, 9, 21]",8,0,[],40.33604914,12723,886,1,0,8,2.1548319090303782
undo,7,40,1,0,0,9,"[0, 2, 19, 23, 5, 18, 9]",7,2,"[6, 21]",86.04162866,14395,1672,2,0,8,1.7348609689602368
undo,7,40,1,0,0,18,"[0, 2, 19, 23, 5, 18]",6,5,"[1, 6, 9, 21, 22]",102.594574,14711,316,3,3,8,1.6664768989460201
undo,7,40,1,0,0,5,"[0, 2, 19, 23, 5]",5,10,"[1, 6, 7, 8, 9, 11, 18, 21, 22, 27]",134.1698808,14994,283,4,12,8,1.3483906154476113
undo,7,40,1,0,0,23,"[0, 2, 19, 23]",4,15,"[1, 5, 6, 7, 8, 9, 10, 11, 13, 17, 18, 21, 22, 27, 29]",162.4718242,15278,284,11,38,8,1.4499965171787688
undo,7,40,1,0,0,19,"[0, 2, 19]",3,22,"[1, 5, 6, 7, 8, 9, 10, 11, 13, 14, 15, 17, 18, 20, 21, 22, 23, 24, 25, 26, 27, 29]",194.4249148,15611,333,19,105,8,1.02908296307533
undo,7,40,0,0,0,22,"[0, 2, 19, 22]",4,12,"[5, 7, 8, 9, 11, 14, 18, 20, 23, 25, 27, 29]",119.258433,17832,2221,3,12,7,1.0205526089633497
undo,7,40,0,0,0,11,"[0, 2, 19, 22, 11]",5,1,[20],64.25843295,18987,1155,1,0,6,1.0157877978512315
undo,7,40,1,0,0,22,"[0, 2, 19, 22]",4,12,"[5, 7, 8, 9, 11, 14, 18, 20, 23, 25, 27, 29]",119.258433,20193,1206,3,12,7,1.0205526089633497
undo,7,40,1,0,0,19,"[0, 2, 19]",3,22,"[1, 5, 6, 7, 8, 9, 10, 11, 13, 14, 15, 17, 18, 20, 21, 22, 23, 24, 25, 26, 27, 29]",194.4249148,20443,250,19,105,8,1.02908296307533
undo,7,40,1,0,0,2,"[0, 2]",2,28,"[1, 3, 4, 5, 6, 7, 8, 9, 10, 11, 12, 13, 14, 15, 16, 17, 18, 19, 20, 21, 22, 23, 24, 25, 26, 27, 28, 29]",263.7646581,20760,317,4,79,9,1.0
undo,7,40,0,0,0,8,"[0, 2, 8]",3,16,"[5, 7, 10, 11, 14, 15, 18, 19, 20, 22, 23, 24, 25, 26, 27, 29]",138.9888592,22732,1972,16,30,6,1.0000884887877495
undo,7,40,0,0,0,7,"[0, 2, 8, 7]",4,8,"[11, 14, 22, 24, 25, 26, 27, 29]",101.1867429,23382,650,8,4,6,1.0028674595194957
undo,7,40,0,0,0,24,"[0, 2, 8, 7, 24]",5,1,[14],23.28937448,24307,925,1,0,6,1.0075002116443845
undo,7,40,0,0,1,14,"[0, 2, 8, 7, 24, 14]",6,0,[],8.057828269,24770,463,1,0,6,1.0961567697359191
undo,7,40,1,0,0,24,"[0, 2, 8, 7, 24]",5,1,[14],23.28937448,25659,889,1,0,6,1.0075002116443845
undo,7,40,1,0,0,7,"[0, 2, 8, 7]",4,8,"[11, 14, 22, 24, 25, 26, 27, 29]",101.1867429,25909,250,8,4,6,1.0028674595194957
undo,7,40,1,0,0,8,"[0, 2, 8]",3,16,"[5, 7, 10, 11, 14, 15, 18, 19, 20, 22, 23, 24, 25, 26, 27, 29]",138.9888592,26359,450,16,30,6,1.0000884887877495
undo,7,40,1,0,0,2,"[0, 2]",2,28,"[1, 3, 4, 5, 6, 7, 8, 9, 10, 11, 12, 13, 14, 15, 16, 17, 18, 19, 20, 21, 22, 23, 24, 25, 26, 27, 28, 29]",263.7646581,27459,1100,4,79,9,1.0
undo,7,40,0,0,0,19,"[0, 2, 19]",3,22,"[1, 5, 6, 7, 8, 9, 10, 11, 13, 14, 15, 17, 18, 20, 21, 22, 23, 24, 25, 26, 27, 29]",194.4249148,28298,839,19,105,8,1.02908296307533
undo,7,40,0,0,0,23,"[0, 2, 19, 23]",4,15,"[1, 5, 6, 7, 8, 9, 10, 11, 13, 17, 18, 21, 22, 27, 29]",162.4718242,28971,673,11,38,8,1.4499965171787688
undo,7,40,0,0,0,5,"[0, 2, 19, 23, 5]",5,10,"[1, 6, 7, 8, 9, 11, 18, 21, 22, 27]",134.1698808,29571,600,4,12,8,1.3483906154476113
undo,7,40,0,0,0,18,"[0, 2, 19, 23, 5, 18]",6,5,"[1, 6, 9, 21, 22]",102.594574,30257,686,3,3,8,1.6664768989460201
undo,7,40,0,0,0,9,"[0, 2, 19, 23, 5, 18, 9]",7,2,"[6, 21]",86.04162866,30781,524,2,0,8,1.7348609689602368
undo,7,40,0,0,1,6,"[0, 2, 19, 23, 5, 18, 9, 6]",8,0,[],17.44133712,32549,1768,1,0,8,4.090330581792032
undo,7,40,0,1,1,6,"[0, 2, 19, 23, 5, 18, 9, 6]",8,0,[],17.44133712,34340,1791,1,0,8,4.090330581792032
undo,8,37,0,0,0,0,[0],1,29,"[1, 2, 3, 4, 5, 6, 7, 8, 9, 10, 11, 12, 13, 14, 15, 16, 17, 18, 19, 20, 21, 22, 23, 24, 25, 26, 27, 28, 29]",300,145,-1,6,168,10,0.0
undo,8,37,0,0,0,19,"[0, 19]",2,19,"[1, 2, 4, 5, 6, 7, 9, 10, 11, 15, 17, 18, 20, 21, 22, 25, 26, 28, 29]",185.6627795,3176,3031,25,244,9,1.0
undo,8,37,0,0,0,21,"[0, 19, 21]",3,14,"[1, 2, 4, 7, 10, 11, 15, 17, 18, 20, 22, 25, 26, 29]",144.5531699,5939,2763,10,75,9,1.001632816594558
undo,8,37,0,0,0,15,"[0, 19, 21, 15]",4,9,"[1, 2, 4, 7, 18, 20, 22, 26, 29]",129.5531699,6500,561,5,32,9,1.0243376499143988
undo,8,37,0,0,0,20,"[0, 19, 21, 15, 20]",5,8,"[1, 2, 4, 7, 18, 22, 26, 29]",112.5531699,6977,477,5,14,9,1.250507291508492
undo,8,37,0,0,0,1,"[0, 19, 21, 15, 20, 1]",6,6,"[2, 4, 7, 18, 22, 26]",78.31868434,7850,873,4,4,9,1.4002166443864243
undo,8,37,0,0,0,2,"[0, 19, 21, 15, 20, 1, 2]",7,4,"[4, 7, 18, 22]",61.11403381,8371,521,2,2,9,1.5802253600182588
undo,8,37,0,0,0,4,"[0, 19, 21, 15, 20, 1, 2, 4]",8,1,[22],49.71227956,8999,628,1,0,9,1.5399187067712754
undo,8,37,0,0,1,22,"[0, 19, 21, 15, 20, 1, 2, 4, 22]",9,0,[],24.71227956,9865,866,1,0,9,1.6903775033413582
undo,8,37,0,1,1,22,"[0, 19, 21, 15, 20, 1, 2, 4, 22]",9,0,[],24.71227956,10793,928,1,0,9,1.6903775033413582
undo,9,20,0,0,0,0,[0],1,21,"[1, 2, 3, 4, 5, 6, 7, 8, 9, 12, 17, 18, 20, 21, 22, 23, 25, 26, 27, 28, 29]",300,182,-1,1,9,9,0.0
undo,9,20,0,0,0,12,"[0, 12]",2,20,"[1, 2, 3, 4, 5, 6, 7, 8, 9, 17, 18, 20, 21, 22, 23, 25, 26, 27, 28, 29]",271.5570747,2030,1848,1,8,9,1.0
undo,9,20,0,0,0,1,"[0, 12, 1]",3,12,"[3, 4, 5, 6, 8, 9, 20, 21, 23, 27, 28, 29]",189.5692707,2904,874,1,6,9,1.0757997779162911
undo,9,20,0,0,0,5,"[0, 12, 1, 5]",4,10,"[4, 6, 8, 9, 20, 21, 23, 27, 28, 29]",152.8950291,3570,666,1,5,9,1.1708231454516806
undo,9,20,0,0,0,21,"[0, 12, 1, 5, 21]",5,8,"[4, 6, 8, 9, 20, 23, 27, 28]",107.8950291,4375,805,1,4,9,1.126197336199212
undo,9,20,0,0,0,8,"[0, 12, 1, 5, 21, 8]",6,5,"[6, 9, 23, 27, 28]",90.43077988,5005,630,1,3,9,1.140007470699913
undo,9,20,0,0,0,23,"[0, 12, 1, 5, 21, 8, 23]",7,2,"[6, 9]",45.74297394,5721,716,1,1,9,1.1162257896627588
undo,9,20,0,0,0,9,"[0, 12, 1, 5, 21, 8, 23, 9]",8,1,[6],26.53360123,6203,482,1,0,9,1.1086880559449597
undo,9,20,0,0,1,6,"[0, 12, 1, 5, 21, 8, 23, 9, 6]",9,0,[],3.511872362,6769,566,1,0,9,1.1186240265999328
undo,9,20,0,1,1,6,"[0, 12, 1, 5, 21, 8, 23, 9, 6]",9,0,[],3.511872362,7280,511,1,0,9,1.1186240265999328
undo,10,15,0,0,0,0,[0],1,25,"[1, 2, 3, 4, 7, 8, 9, 10, 11, 12, 13, 14, 15, 16, 18, 20, 21, 22, 23, 24, 25, 26, 27, 28, 29]",300,149,-1,4,65,9,0.0
undo,10,15,0,0,0,7,"[0, 7]",2,23,"[1, 3, 4, 8, 9, 10, 11, 12, 13, 14, 15, 16, 18, 20, 21, 22, 23, 24, 25, 26, 27, 28, 29]",215.1884442,2141,1992,30,107,8,1.0
undo,10,15,0,0,0,16,"[0, 7, 16]",3,14,"[3, 4, 9, 10, 11, 12, 13, 14, 15, 18, 21, 22, 25, 27]",171.5306843,2980,839,11,27,8,1.1253230463291073
undo,10,15,0,0,0,11,"[0, 7, 16, 11]",4,10,"[3, 4, 12, 13, 14, 15, 18, 21, 22, 27]",145.5114606,3573,593,6,10,8,1.2441772230587118
undo,10,15,0,0,0,3,"[0, 7, 16, 11, 3]",5,8,"[4, 12, 13, 14, 15, 18, 21, 22]",134.1097064,4012,439,6,4,8,1.253153736954923
undo,10,15,0,0,0,22,"[0, 7, 16, 11, 3, 22]",6,5,"[4, 13, 14, 15, 18]",84.38043933,4724,712,2,3,8,1.249784727890499
undo,10,15,0,0,0,13,"[0, 7, 16, 11, 3, 22, 13]",7,1,[15],56.22018365,5572,848,1,0,8,1.2168322223118198
undo,10,15,0,0,1,15,"[0, 7, 16, 11, 3, 22, 13, 15]",8,0,[],40.95584612,6137,565,1,0,8,1.3190981999760136
undo,10,15,0,1,1,15,"[0, 7, 16, 11, 3, 22, 13, 15]",8,0,[],40.95584612,6764,627,1,0,8,1.3190981999760136
undo,11,38,0,0,0,0,[0],1,29,"[1, 2, 3, 4, 5, 6, 7, 8, 9, 10, 11, 12, 13, 14, 15, 16, 17, 18, 19, 20, 21, 22, 23, 24, 25, 26, 27, 28, 29]",300,146,-1,33,506,9,0.0
undo,11,38,0,0,0,19,"[0, 19]",2,23,"[3, 4, 5, 6, 7, 8, 9, 11, 13, 14, 15, 16, 17, 18, 20, 22, 23, 24, 25, 26, 27, 28, 29]",219.5015528,4901,4755,6,61,9,1.0
undo,11,38,0,0,0,17,"[0, 19, 17]",3,21,"[3, 4, 5, 6, 7, 9, 11, 13, 14, 15, 16, 18, 20, 22, 23, 24, 25, 26, 27, 28, 29]",198.1239945,5619,718,6,53,9,1.571793785769489
undo,11,38,0,0,0,20,"[0, 19, 17, 20]",4,17,"[3, 4, 5, 6, 7, 11, 13, 14, 15, 16, 18, 22, 24, 25, 26, 27, 28]",174.3542658,6151,532,6,44,9,2.333182710277297
undo,11,38,0,0,0,4,"[0, 19, 17, 20, 4]",5,10,"[5, 11, 13, 14, 15, 16, 24, 26, 27, 28]",140.4131403,7000,849,5,22,9,2.276099229646013
undo,11,38,0,0,0,15,"[0, 19, 17, 20, 4, 15]",6,8,"[5, 11, 13, 14, 16, 24, 26, 28]",114.4131403,7551,551,5,6,9,2.5292671156176403
undo,11,38,0,0,0,11,"[0, 19, 17, 20, 4, 15, 11]",7,2,"[16, 28]",78.01259089,8786,1235,2,0,9,2.778100109749787
undo,11,38,0,0,0,28,"[0, 19, 17, 20, 4, 15, 11, 28]",8,1,[16],50.99407872,9636,850,1,0,9,2.3316428595723258
undo,11,38,0,0,1,16,"[0, 19, 17, 20, 4, 15, 11, 28, 16]",9,0,[],21.99407872,10683,1047,1,0,9,2.5408012360364265
undo,11,38,0,1,1,16,"[0, 19, 17, 20, 4, 15, 11, 28, 16]",9,0,[],21.99407872,11260,577,1,0,9,2.5408012360364265
undo,12,33,0,0,0,0,[0],1,23,"[1, 2, 5, 7, 8, 11, 12, 13, 14, 15, 16, 17, 18, 19, 20, 21, 23, 24, 25, 26, 27, 28, 29]",300,197,-1,5,108,9,0.0
undo,12,33,0,0,0,21,"[0, 21]",2,17,"[2, 5, 7, 8, 11, 13, 14, 16, 17, 18, 19, 20, 24, 26, 27, 28, 29]",174.4611614,1319,1122,21,129,8,1.0
undo,12,33,1,0,0,0,[0],1,23,"[1, 2, 5, 7, 8, 11, 12, 13, 14, 15, 16, 17, 18, 19, 20, 21, 23, 24, 25, 26, 27, 28, 29]",300,4047,2728,5,108,9,0.0
undo,12,33,0,0,0,8,"[0, 8]",2,22,"[1, 2, 5, 7, 11, 12, 13, 14, 15, 16, 17, 18, 19, 20, 21, 23, 24, 25, 26, 27, 28, 29]",265.8679037,5189,1142,5,87,9,1.0
undo,12,33,0,0,0,21,"[0, 8, 21]",3,16,"[2, 5, 7, 11, 13, 14, 16, 17, 18, 19, 20, 24, 26, 27, 28, 29]",166.0430571,6119,930,5,80,9,1.0670557763739492
undo,12,33,0,0,0,13,"[0, 8, 21, 13]",4,12,"[2, 7, 11, 14, 16, 17, 18, 19, 20, 24, 26, 29]",139.6422995,6588,469,4,54,9,1.0555103820910288
undo,12,33,0,0,0,17,"[0, 8, 21, 13, 17]",5,10,"[2, 7, 11, 14, 16, 19, 20, 24, 26, 29]",116.838791,7293,705,1,21,9,1.149323514071861
undo,12,33,0,0,0,29,"[0, 8, 21, 13, 17, 29]",6,6,"[7, 11, 14, 19, 20, 26]",65.36064029,8189,896,1,6,9,1.115497920827825
undo,12,33,0,0,0,26,"[0, 8, 21, 13, 17, 29, 26]",7,2,"[7, 14]",37.46798893,8670,481,1,1,9,1.1604085273328952
undo,12,33,0,0,0,14,"[0, 8, 21, 13, 17, 29, 26, 14]",8,1,[7],24.81887829,9069,399,1,0,9,1.2684390541247845
undo,12,33,0,0,1,7,"[0, 8, 21, 13, 17, 29, 26, 14, 7]",9,0,[],9.95280954,9604,535,1,0,9,1.3610790473445362
undo,12,33,0,1,1,7,"[0, 8, 21, 13, 17, 29, 26, 14, 7]",9,0,[],9.95280954,10961,1357,1,0,9,1.3610790473445362
undo,13,24,0,0,0,0,[0],1,29,"[1, 2, 3, 4, 5, 6, 7, 8, 9, 10, 11, 12, 13, 14, 15, 16, 17, 18, 19, 20, 21, 22, 23, 24, 25, 26, 27, 28, 29]",300,148,-1,4,76,10,0.0
undo,13,24,0,0,0,16,"[0, 16]",2,28,"[1, 2, 3, 4, 5, 6, 7, 8, 9, 10, 11, 12, 13, 14, 15, 17, 18, 19, 20, 21, 22, 23, 24, 25, 26, 27, 28, 29]",210.3562607,1928,1780,13,110,9,1.0
undo,13,24,0,0,0,22,"[0, 16, 22]",3,27,"[1, 2, 3, 4, 5, 6, 7, 8, 9, 10, 11, 12, 13, 14, 15, 17, 18, 19, 20, 21, 23, 24, 25, 26, 27, 28, 29]",192.3285043,2544,616,7,54,9,1.0217425143037777
undo,13,24,0,0,0,8,"[0, 16, 22, 8]",4,21,"[1, 2, 3, 4, 6, 9, 10, 11, 13, 14, 15, 17, 20, 21, 23, 24, 25, 26, 27, 28, 29]",178.9120964,2971,427,4,28,9,1.0996636936037951
undo,13,24,0,0,0,15,"[0, 16, 22, 8, 15]",5,16,"[3, 4, 6, 9, 10, 11, 13, 14, 17, 23, 24, 25, 26, 27, 28, 29]",148.025206,4106,1135,3,17,9,1.2704773343758617
undo,13,24,0,0,0,28,"[0, 16, 22, 8, 15, 28]",6,8,"[3, 4, 9, 11, 13, 23, 26, 27]",102.7482803,5257,1151,3,5,9,1.1981967578189556
undo,13,24,0,0,0,23,"[0, 16, 22, 8, 15, 28, 23]",7,3,"[9, 11, 27]",83.72198273,6039,782,3,1,9,1.2275650852813986
undo,13,24,0,0,0,11,"[0, 16, 22, 8, 15, 28, 23, 11]",8,2,"[9, 27]",56.79615869,6760,721,2,0,9,1.2107937989822568
undo,13,24,0,0,1,27,"[0, 16, 22, 8, 15, 28, 23, 11, 27]",9,0,[],28.99328114,8173,1413,1,0,9,1.1865620449755248
undo,13,24,0,1,1,27,"[0, 16, 22, 8, 15, 28, 23, 11, 27]",9,0,[],28.99328114,9213,1040,1,0,9,1.1865620449755248
undo,14,16,0,0,0,0,[0],1,29,"[1, 2, 3, 4, 5, 6, 7, 8, 9, 10, 11, 12, 13, 14, 15, 16, 17, 18, 19, 20, 21, 22, 23, 24, 25, 26, 27, 28, 29]",300,163,-1,13,161,9,0.0
undo,14,16,0,0,0,28,"[0, 28]",2,27,"[1, 2, 3, 4, 5, 7, 8, 9, 10, 11, 12, 13, 14, 15, 16, 17, 18, 19, 20, 21, 22, 23, 24, 25, 26, 27, 29]",284.3475242,2392,2229,11,92,9,1.0
undo,14,16,0,0,0,17,"[0, 28, 17]",3,26,"[1, 2, 3, 4, 5, 7, 8, 9, 10, 11, 12, 13, 14, 15, 16, 18, 19, 20, 21, 22, 23, 24, 25, 26, 27, 29]",219.1555001,3112,720,10,46,9,1.3773866384707543
undo,14,16,0,0,0,16,"[0, 28, 17, 16]",4,25,"[1, 2, 3, 4, 5, 7, 8, 9, 10, 11, 12, 13, 14, 15, 18, 19, 20, 21, 22, 23, 24, 25, 26, 27, 29]",190.8358956,3819,707,10,34,9,1.3209953830681203
undo,14,16,0,0,0,8,"[0, 28, 17, 16, 8]",5,12,"[3, 4, 5, 9, 12, 13, 15, 19, 20, 21, 25, 29]",142.4623491,6317,2498,6,19,9,1.2700932705506198
undo,14,16,0,0,0,20,"[0, 28, 17, 16, 8, 20]",6,6,"[4, 5, 9, 12, 15, 25]",84.6869218,7143,826,4,4,9,1.1899382910703262
undo,14,16,0,0,0,25,"[0, 28, 17, 16, 8, 20, 25]",7,3,"[5, 9, 15]",72.03781116,7608,465,2,2,9,1.2372268181049477
undo,14,16,0,0,0,9,"[0, 28, 17, 16, 8, 20, 25, 9]",8,2,"[5, 15]",59.23156268,8135,527,2,0,9,1.221922950237529
undo,14,16,0,0,1,15,"[0, 28, 17, 16, 8, 20, 25, 9, 15]",9,0,[],20.334262,9224,1089,1,0,9,1.318239760375411
undo,14,16,0,1,1,15,"[0, 28, 17, 16, 8, 20, 25, 9, 15]",9,0,[],20.334262,10144,920,1,0,9,1.318239760375411
undo,15,0,0,0,0,0,[0],1,27,"[2, 3, 4, 5, 6, 7, 8, 9, 10, 11, 12, 13, 14, 15, 16, 17, 19, 20, 21, 22, 23, 24, 25, 26, 27, 28, 29]",300,146,-1,104,1136,9,0.0
undo,15,0,0,0,0,5,"[0, 5]",2,24,"[2, 3, 4, 7, 8, 9, 11, 12, 13, 14, 15, 16, 17, 19, 20, 21, 22, 23, 24, 25, 26, 27, 28, 29]",164.5156836,3703,3557,5,112,9,1.0
undo,15,0,0,0,0,4,"[0, 5, 4]",3,20,"[2, 3, 7, 8, 9, 11, 12, 13, 14, 15, 17, 19, 20, 21, 22, 23, 24, 25, 26, 28]",139.4358112,6909,3206,4,61,9,1.0257023158632692
undo,15,0,0,0,0,26,"[0, 5, 4, 26]",4,18,"[3, 7, 8, 9, 11, 12, 13, 14, 15, 17, 19, 20, 21, 22, 23, 24, 25, 28]",127.3942166,7348,439,4,26,9,1.0684029773259323
undo,15,0,0,0,0,24,"[0, 5, 4, 26, 24]",5,12,"[3, 7, 8, 9, 11, 12, 15, 17, 19, 20, 23, 28]",110.2769738,7907,559,4,16,9,1.1372083333602885
undo,15,0,0,0,0,15,"[0, 5, 4, 26, 24, 15]",6,8,"[3, 7, 8, 9, 11, 12, 17, 19]",86.93173875,8717,810,4,7,9,1.1271717591548023
undo,15,0,0,0,0,7,"[0, 5, 4, 26, 24, 15, 7]",7,4,"[3, 8, 17, 19]",55.86728962,9307,590,3,2,9,1.190834598819092
undo,15,0,0,0,0,8,"[0, 5, 4, 26, 24, 15, 7, 8]",8,2,"[3, 19]",36.76231644,11003,1696,2,0,9,1.1832849301094388
undo,15,0,0,0,1,3,"[0, 5, 4, 26, 24, 15, 7, 8, 3]",9,0,[],6.348503789,11756,753,1,0,9,1.3547295451928671
undo,15,0,0,1,1,3,"[0, 5, 4, 26, 24, 15, 7, 8, 3]",9,0,[],6.348503789,12660,904,1,0,9,1.3547295451928671
undo,16,23,0,0,0,0,[0],1,28,"[1, 2, 3, 4, 5, 6, 7, 8, 9, 10, 11, 12, 13, 14, 15, 16, 17, 18, 19, 20, 21, 22, 23, 25, 26, 27, 28, 29]",300,165,-1,76,2626,10,0.0
undo,16,23,0,0,0,13,"[0, 13]",2,19,"[1, 2, 3, 5, 6, 7, 8, 9, 10, 12, 14, 17, 18, 19, 21, 22, 23, 27, 29]",189.3202819,2159,1994,9,168,10,1.0
undo,16,23,0,0,0,12,"[0, 13, 12]",3,16,"[1, 2, 3, 6, 7, 8, 9, 10, 14, 17, 18, 21, 22, 23, 27, 29]",177.2372359,3088,929,9,96,10,1.0014195490503164
undo,16,23,0,0,0,2,"[0, 13, 12, 2]",4,12,"[1, 3, 6, 7, 9, 10, 14, 18, 21, 22, 27, 29]",163.3447919,5127,2039,4,30,10,1.0014394317924602
undo,16,23,0,0,0,9,"[0, 13, 12, 2, 9]",5,10,"[1, 6, 7, 10, 14, 18, 21, 22, 27, 29]",150.3063871,6061,934,1,8,10,1.1457747074799831
undo,16,23,0,0,0,14,"[0, 13, 12, 2, 9, 14]",6,8,"[1, 6, 7, 10, 18, 22, 27, 29]",139.8660806,6889,828,1,6,10,1.1365880299138118
undo,16,23,0,0,0,29,"[0, 13, 12, 2, 9, 14, 29]",7,5,"[1, 6, 7, 10, 22]",92.43191571,7753,864,1,3,10,1.3460297288480787
undo,16,23,0,0,0,7,"[0, 13, 12, 2, 9, 14, 29, 7]",8,2,"[1, 10]",68.34872655,8419,666,1,1,10,1.3773159292410473
undo,16,23,0,0,0,10,"[0, 13, 12, 2, 9, 14, 29, 7, 10]",9,1,[1],40.88966612,9055,636,1,0,10,1.3556884556214648
undo,16,23,0,0,1,1,"[0, 13, 12, 2, 9, 14, 29, 7, 10, 1]",10,0,[],12.23656855,9694,639,1,0,10,1.3259861306330887
undo,16,23,0,1,1,1,"[0, 13, 12, 2, 9, 14, 29, 7, 10, 1]",10,0,[],12.23656855,10596,902,1,0,10,1.3259861306330887
undo,17,36,0,0,0,0,[0],1,24,"[2, 4, 5, 6, 7, 8, 9, 10, 12, 13, 14, 15, 16, 17, 18, 19, 20, 22, 23, 25, 26, 27, 28, 29]",300,148,-1,2,200,10,0.0
undo,17,36,0,0,0,12,"[0, 12]",2,23,"[2, 4, 5, 6, 7, 8, 9, 10, 13, 14, 15, 16, 17, 18, 19, 20, 22, 23, 25, 26, 27, 28, 29]",277.7963967,3171,3023,90,804,9,1.0
undo,17,36,0,0,0,9,"[0, 12, 9]",3,14,"[2, 4, 8, 10, 13, 16, 17, 18, 19, 23, 25, 27, 28, 29]",215.4345494,3954,783,32,191,9,1.224429481246385
undo,17,36,0,0,0,17,"[0, 12, 9, 17]",4,11,"[2, 4, 8, 10, 13, 16, 18, 19, 23, 25, 27]",189.1857399,4694,740,8,54,9,1.1724571624470872
undo,17,36,0,0,0,19,"[0, 12, 9, 17, 19]",5,8,"[2, 4, 10, 13, 16, 18, 23, 25]",161.2930885,5638,944,3,14,9,1.7995682634090462
undo,17,36,0,0,0,2,"[0, 12, 9, 17, 19, 2]",6,4,"[10, 13, 16, 25]",124.1716661,6295,657,2,3,9,1.5569787348204112
undo,17,36,0,0,0,25,"[0, 12, 9, 17, 19, 2, 25]",7,3,"[10, 13, 16]",99.17166613,6853,558,1,2,9,1.7541097756555504
undo,17,36,0,0,0,13,"[0, 12, 9, 17, 19, 2, 25, 13]",8,1,[10],78.58040585,7587,734,1,0,9,2.257503926583423
undo,17,36,0,0,1,10,"[0, 12, 9, 17, 19, 2, 25, 13, 10]",9,0,[],2.619889792,8836,1249,1,0,9,1.709815416525762
undo,17,36,0,1,1,10,"[0, 12, 9, 17, 19, 2, 25, 13, 10]",9,0,[],2.619889792,9329,493,1,0,9,1.709815416525762
undo,18,32,0,0,0,0,[0],1,29,"[1, 2, 3, 4, 5, 6, 7, 8, 9, 10, 11, 12, 13, 14, 15, 16, 17, 18, 19, 20, 21, 22, 23, 24, 25, 26, 27, 28, 29]",300,165,-1,17,359,10,0.0
undo,18,32,0,0,0,19,"[0, 19]",2,28,"[1, 2, 3, 4, 5, 6, 7, 8, 9, 10, 11, 12, 13, 14, 15, 16, 17, 18, 20, 21, 22, 23, 24, 25, 26, 27, 28, 29]",283.5075775,2519,2354,16,294,10,1.0
undo,18,32,0,0,0,13,"[0, 19, 13]",3,24,"[2, 3, 4, 5, 6, 8, 9, 10, 11, 12, 14, 15, 16, 17, 18, 20, 21, 22, 23, 24, 25, 26, 27, 28]",260.3127505,3404,885,14,227,10,1.0172874229878615
undo,18,32,0,0,0,15,"[0, 19, 13, 15]",4,18,"[2, 3, 5, 8, 9, 10, 11, 12, 16, 17, 20, 22, 23, 24, 25, 26, 27, 28]",177.4393531,4389,985,9,116,10,1.435447391509833
undo,18,32,0,0,0,28,"[0, 19, 13, 15, 28]",5,17,"[2, 3, 5, 8, 9, 10, 11, 12, 16, 17, 20, 22, 23, 24, 25, 26, 27]",166.0375988,4822,433,9,70,10,1.3843701324937985
undo,18,32,0,0,0,12,"[0, 19, 13, 15, 28, 12]",6,14,"[2, 3, 5, 8, 9, 10, 11, 16, 17, 20, 22, 24, 26, 27]",147.0639329,5956,1134,6,35,10,1.358372254952329
undo,18,32,0,0,0,16,"[0, 19, 13, 15, 28, 12, 16]",7,13,"[2, 3, 5, 8, 9, 10, 11, 17, 20, 22, 24, 26, 27]",131.411457,6476,520,5,15,10,1.4356932930709845
undo,18,32,0,0,0,22,"[0, 19, 13, 15, 28, 12, 16, 22]",8,6,"[2, 8, 9, 17, 20, 27]",97.57360838,8924,2448,3,5,10,1.4335226411545752
undo,18,32,0,0,0,9,"[0, 19, 13, 15, 28, 12, 16, 22, 9]",9,3,"[2, 8, 20]",75.37000507,9771,847,3,0,10,1.4837166378374758
undo,18,32,0,0,1,2,"[0, 19, 13, 15, 28, 12, 16, 22, 9, 2]",10,0,[],24.28184597,12501,2730,1,0,10,1.9009621017233784
undo,18,32,0,1,1,2,"[0, 19, 13, 15, 28, 12, 16, 22, 9, 2]",10,0,[],24.28184597,13162,661,1,0,10,1.9009621017233784
undo,19,3,0,0,0,0,[0],1,29,"[1, 2, 3, 4, 5, 6, 7, 8, 9, 10, 11, 12, 13, 14, 15, 16, 17, 18, 19, 20, 21, 22, 23, 24, 25, 26, 27, 28, 29]",300,146,-1,34,427,10,0.0
undo,19,3,0,0,0,7,"[0, 7]",2,28,"[1, 2, 3, 4, 5, 6, 8, 9, 10, 11, 12, 13, 14, 15, 16, 17, 18, 19, 20, 21, 22, 23, 24, 25, 26, 27, 28, 29]",278.8103799,1838,1692,24,215,10,1.0
undo,19,3,0,0,0,8,"[0, 7, 8]",3,24,"[1, 2, 3, 4, 5, 6, 10, 11, 12, 13, 14, 15, 16, 17, 18, 19, 20, 21, 22, 24, 25, 26, 27, 28]",222.837172,2438,600,16,114,10,1.2853332575451413
undo,19,3,0,0,0,24,"[0, 7, 8, 24]",4,21,"[1, 3, 4, 5, 6, 10, 11, 12, 14, 15, 16, 17, 18, 19, 20, 21, 22, 25, 26, 27, 28]",210.671647,2926,488,16,91,10,1.5177505014936548
undo,19,3,0,0,0,17,"[0, 7, 8, 24, 17]",5,9,"[3, 4, 10, 14, 15, 16, 19, 20, 21]",141.3174834,3829,903,7,26,10,1.5510961300062232
undo,19,3,0,0,0,20,"[0, 7, 8, 24, 17, 20]",6,7,"[3, 4, 10, 14, 16, 19, 21]",128.6683728,4269,440,7,14,10,1.5133082717474817
undo,19,3,0,0,0,3,"[0, 7, 8, 24, 17, 20, 3]",7,5,"[4, 10, 14, 19, 21]",108.2722947,4861,592,7,4,10,1.5325960555943097
undo,19,3,0,0,0,19,"[0, 7, 8, 24, 17, 20, 3, 19]",8,3,"[10, 14, 21]",70.93598532,5586,725,3,1,10,1.5521294182529992
undo,19,3,0,0,0,21,"[0, 7, 8, 24, 17, 20, 3, 19, 21]",9,2,"[10, 14]",58.72942971,5974,388,2,0,10,1.5690424431931145
undo,19,3,0,0,1,14,"[0, 7, 8, 24, 17, 20, 3, 19, 21, 14]",10,0,[],31.82218161,7320,1346,1,0,10,2.0836613372745463
undo,19,3,0,1,1,14,"[0, 7, 8, 24, 17, 20, 3, 19, 21, 14]",10,0,[],31.82218161,7845,525,1,0,10,2.0836613372745463
undo,20,17,0,0,0,0,[0],1,28,"[1, 2, 3, 4, 5, 6, 7, 8, 9, 10, 11, 12, 13, 14, 15, 16, 17, 18, 19, 20, 22, 23, 24, 25, 26, 27, 28, 29]",300,148,-1,2,73,8,0.0
undo,20,17,0,0,0,9,"[0, 9]",2,25,"[1, 2, 3, 5, 6, 7, 8, 10, 11, 12, 14, 15, 16, 17, 18, 19, 20, 22, 23, 24, 25, 26, 27, 28, 29]",210.5293344,1463,1315,1,34,8,1.0
undo,20,17,0,0,0,16,"[0, 9, 16]",3,21,"[1, 2, 3, 5, 7, 8, 10, 11, 12, 14, 17, 18, 19, 20, 22, 23, 25, 26, 27, 28, 29]",197.1876704,1812,349,1,26,8,1.173103464220352
undo,20,17,0,0,0,2,"[0, 9, 16, 2]",4,18,"[1, 3, 5, 7, 8, 10, 11, 12, 14, 17, 18, 19, 23, 25, 26, 27, 28, 29]",181.0631549,2341,529,1,23,8,1.14825089247282
undo,20,17,0,0,0,8,"[0, 9, 16, 2, 8]",5,9,"[3, 7, 10, 11, 12, 14, 17, 26, 27]",145.9490551,2902,561,1,9,8,1.1509808066472915
undo,20,17,0,0,0,7,"[0, 9, 16, 2, 8, 7]",6,3,"[10, 12, 27]",75.238377,4462,1560,3,0,7,1.2222166608088694
undo,20,17,0,0,1,10,"[0, 9, 16, 2, 8, 7, 10]",7,0,[],1.211354911,5104,642,1,0,7,1.6481269593422236
undo,20,17,0,1,1,10,"[0, 9, 16, 2, 8, 7, 10]",7,0,[],1.211354911,5530,426,1,0,7,1.6481269593422236
undo,21,5,0,0,0,0,[0],1,29,"[1, 2, 3, 4, 5, 6, 7, 8, 9, 10, 11, 12, 13, 14, 15, 16, 17, 18, 19, 20, 21, 22, 23, 24, 25, 26, 27, 28, 29]",300,149,-1,5,139,9,0.0
undo,21,5,0,0,0,23,"[0, 23]",2,27,"[1, 2, 3, 4, 5, 6, 7, 8, 9, 10, 11, 12, 13, 14, 15, 16, 17, 18, 19, 20, 21, 22, 24, 25, 26, 27, 28]",249.8402552,1281,1132,3,75,9,1.0
undo,21,5,0,0,0,25,"[0, 23, 25]",3,23,"[1, 2, 3, 4, 5, 6, 8, 9, 10, 12, 13, 14, 15, 16, 17, 18, 19, 21, 22, 24, 26, 27, 28]",231.4011663,1687,406,3,43,9,1.0923159590575564
undo,21,5,0,0,0,24,"[0, 23, 25, 24]",4,21,"[2, 3, 4, 5, 6, 8, 9, 10, 12, 13, 14, 15, 16, 17, 18, 19, 21, 22, 26, 27, 28]",206.5616816,2459,772,3,25,9,1.2901858295679272
undo,21,5,0,0,0,17,"[0, 23, 25, 24, 17]",5,13,"[4, 5, 6, 8, 12, 13, 14, 15, 18, 19, 22, 26, 27]",171.5759702,3091,632,3,14,9,1.2027484907982513
undo,21,5,0,0,0,5,"[0, 23, 25, 24, 17, 5]",6,7,"[4, 6, 8, 12, 15, 18, 19]",128.5294837,3658,567,3,4,9,1.1472230681682432
undo,21,5,0,0,0,4,"[0, 23, 25, 24, 17, 5, 4]",7,2,"[6, 18]",62.7267482,4690,1032,1,1,9,1.354057663440583
undo,21,5,0,0,0,6,"[0, 23, 25, 24, 17, 5, 4, 6]",8,1,[18],50.68515362,5210,520,1,0,9,1.492903271736527
undo,21,5,0,1,0,6,"[0, 23, 25, 24, 17, 5, 4, 6]",8,1,[18],50.68515362,6614,1404,1,0,9,1.492903271736527
undo,22,44,0,0,0,0,[0],1,29,"[1, 2, 3, 4, 5, 6, 7, 8, 9, 10, 11, 12, 13, 14, 15, 16, 17, 18, 19, 20, 21, 22, 23, 24, 25, 26, 27, 28, 29]",300,147,-1,13,126,7,0.0
undo,22,44,0,0,0,8,"[0, 8]",2,17,"[1, 4, 5, 7, 9, 10, 11, 12, 13, 14, 15, 20, 21, 23, 24, 25, 27]",145.7923478,2020,1873,1,10,7,1.0
undo,22,44,0,0,0,20,"[0, 8, 20]",3,16,"[1, 4, 5, 7, 9, 10, 11, 12, 13, 14, 15, 21, 23, 24, 25, 27]",133.7093018,2453,433,1,9,7,1.0890794433668698
undo,22,44,0,0,0,9,"[0, 8, 20, 9]",4,7,"[4, 7, 11, 12, 14, 23, 24]",76.43801756,3302,849,1,6,7,1.40892325509949
undo,22,44,0,0,0,4,"[0, 8, 20, 9, 4]",5,4,"[7, 12, 23, 24]",56.74030196,3695,393,1,3,7,1.3849770570803555
undo,22,44,0,0,0,7,"[0, 8, 20, 9, 4, 7]",6,1,[23],25.72417712,4410,715,1,0,7,1.3274380931474288
undo,22,44,0,0,1,23,"[0, 8, 20, 9, 4, 7, 23]",7,0,[],6.619203947,5175,765,1,0,7,1.3395824779823196
undo,22,44,0,1,1,23,"[0, 8, 20, 9, 4, 7, 23]",7,0,[],6.619203947,5863,688,1,0,7,1.3395824779823196
basic,23,20,0,0,0,0,[0],1,21,"[1, 2, 3, 4, 5, 6, 7, 8, 9, 12, 17, 18, 20, 21, 22, 23, 25, 26, 27, 28, 29]",300,167,-1,1,9,9,0.0
basic,23,20,0,0,0,5,"[0, 5]",2,14,"[1, 3, 4, 6, 8, 9, 12, 20, 21, 23, 26, 27, 28, 29]",174.3576505,3705,3538,3,24,7,1.0
basic,23,20,0,0,0,21,"[0, 5, 21]",3,10,"[1, 4, 6, 8, 9, 20, 23, 26, 27, 28]",129.3576505,4430,725,3,13,7,1.000374735486217
basic,23,20,0,0,0,8,"[0, 5, 21, 8]",4,6,"[1, 6, 9, 23, 27, 28]",111.8934013,4905,475,3,7,7,1.0232558372988163
basic,23,20,0,0,0,23,"[0, 5, 21, 8, 23]",5,4,"[6, 9, 27, 28]",67.20559531,5547,642,2,2,7,1.022001720978389
basic,23,20,0,0,0,9,"[0, 5, 21, 8, 23, 9]",6,1,[6],47.9962226,5956,409,1,0,7,1.0216742507052117
basic,23,20,0,0,1,6,"[0, 5, 21, 8, 23, 9, 6]",7,0,[],24.97449373,6939,983,1,0,7,1.037647415066349
basic,23,20,0,1,1,6,"[0, 5, 21, 8, 23, 9, 6]",7,0,[],24.97449373,7948,1009,1,0,7,1.037647415066349
basic,24,14,0,0,0,0,[0],1,29,"[1, 2, 3, 4, 5, 6, 7, 8, 9, 10, 11, 12, 13, 14, 15, 16, 17, 18, 19, 20, 21, 22, 23, 24, 25, 26, 27, 28, 29]",300,147,-1,8,157,10,0.0
basic,24,14,0,0,0,18,"[0, 18]",2,17,"[1, 2, 3, 4, 7, 8, 9, 13, 15, 17, 19, 20, 22, 23, 25, 26, 28]",179.8958785,1735,1588,18,136,9,1.0
basic,24,14,0,0,0,8,"[0, 18, 8]",3,13,"[1, 2, 4, 7, 13, 15, 17, 19, 20, 23, 25, 26, 28]",166.294408,2338,603,18,99,9,1.0203858410107731
basic,24,14,0,0,0,1,"[0, 18, 8, 1]",4,10,"[2, 4, 7, 15, 17, 19, 23, 25, 26, 28]",142.6935606,3739,1401,11,42,9,1.0173392374431458
basic,24,14,0,0,0,19,"[0, 18, 8, 1, 19]",5,9,"[2, 4, 7, 15, 17, 23, 25, 26, 28]",127.4620143,4444,705,11,22,9,1.1668364376922102
basic,24,14,0,0,0,25,"[0, 18, 8, 1, 19, 25]",6,5,"[2, 4, 7, 23, 26]",91.61511768,6227,1783,5,7,9,1.273103293863789
basic,24,14,0,0,0,7,"[0, 18, 8, 1, 19, 25, 7]",7,4,"[2, 4, 23, 26]",71.91740208,7021,794,2,2,9,1.3059971565497175
basic,24,14,0,0,0,23,"[0, 18, 8, 1, 19, 25, 7, 23]",8,1,[26],34.80945145,7768,747,1,0,9,1.4108075818506876
basic,24,14,0,0,1,26,"[0, 18, 8, 1, 19, 25, 7, 23, 26]",9,0,[],23.99279762,8420,652,1,0,9,1.3911752305399343
basic,24,14,0,1,1,26,"[0, 18, 8, 1, 19, 25, 7, 23, 26]",9,0,[],23.99279762,9378,958,1,0,9,1.3911752305399343
basic,25,0,0,0,0,0,[0],1,27,"[2, 3, 4, 5, 6, 7, 8, 9, 10, 11, 12, 13, 14, 15, 16, 17, 19, 20, 21, 22, 23, 24, 25, 26, 27, 28, 29]",300,164,-1,104,1136,9,0.0
basic,25,0,0,0,0,5,"[0, 5]",2,24,"[2, 3, 4, 7, 8, 9, 11, 12, 13, 14, 15, 16, 17, 19, 20, 21, 22, 23, 24, 25, 26, 27, 28, 29]",164.5156836,4123,3959,5,112,9,1.0
basic,25,0,0,0,0,4,"[0, 5, 4]",3,20,"[2, 3, 7, 8, 9, 11, 12, 13, 14, 15, 17, 19, 20, 21, 22, 23, 24, 25, 26, 28]",139.4358112,4737,614,4,61,9,1.0257023158632692
basic,25,0,0,0,0,24,"[0, 5, 4, 24]",4,17,"[2, 3, 7, 8, 9, 11, 12, 14, 15, 17, 19, 20, 22, 23, 25, 26, 28]",128.0340569,5384,647,34,99,8,1.030771580363297
basic,25,0,0,0,0,26,"[0, 5, 4, 24, 26]",5,13,"[3, 7, 8, 9, 11, 12, 14, 15, 17, 19, 20, 23, 28]",110.9168141,6100,716,17,27,8,1.1703955383098288
basic,25,0,0,0,0,7,"[0, 5, 4, 24, 26, 7]",6,7,"[3, 8, 9, 12, 15, 17, 19]",67.45418651,6904,804,6,5,8,1.1343158402795903
basic,25,0,0,0,0,8,"[0, 5, 4, 24, 26, 7, 8]",7,3,"[3, 15, 19]",48.34921334,7509,605,3,0,8,1.1312004401417375
basic,25,0,0,0,1,19,"[0, 5, 4, 24, 26, 7, 8, 19]",8,0,[],12.50231668,9766,2257,1,0,8,1.15812619108303
basic,25,0,0,1,1,19,"[0, 5, 4, 24, 26, 7, 8, 19]",8,0,[],12.50231668,10544,778,1,0,8,1.15812619108303
basic,26,26,0,0,0,0,[0],1,29,"[1, 2, 3, 4, 5, 6, 7, 8, 9, 10, 11, 12, 13, 14, 15, 16, 17, 18, 19, 20, 21, 22, 23, 24, 25, 26, 27, 28, 29]",300,148,-1,9,226,9,0.0
basic,26,26,0,0,0,21,"[0, 21]",2,25,"[2, 3, 4, 5, 6, 7, 8, 10, 11, 12, 13, 14, 15, 16, 17, 18, 19, 22, 23, 24, 25, 26, 27, 28, 29]",211.1349337,4396,4248,7,90,9,1.0
basic,26,26,0,0,0,16,"[0, 21, 16]",3,12,"[4, 5, 6, 10, 11, 12, 13, 14, 17, 23, 26, 29]",151.2266705,5111,715,1,34,9,1.3289691188319968
basic,26,26,0,0,0,29,"[0, 21, 16, 29]",4,8,"[4, 5, 6, 10, 13, 14, 17, 23]",127.0192337,5670,559,1,28,9,1.4156891800947415
basic,26,26,0,0,0,17,"[0, 21, 16, 29, 17]",5,4,"[4, 6, 10, 14]",96.60542102,6844,1174,8,7,8,1.4314690733240023
basic,26,26,0,0,0,14,"[0, 21, 16, 29, 17, 14]",6,3,"[4, 6, 10]",74.13321597,7505,661,2,2,8,1.4015751649256132
basic,26,26,0,0,0,6,"[0, 21, 16, 29, 17, 14, 6]",7,2,"[4, 10]",53.10941992,8010,505,2,0,8,1.5371927799041687
basic,26,26,0,0,1,10,"[0, 21, 16, 29, 17, 14, 6, 10]",8,0,[],23.83485759,8622,612,1,0,8,1.7066425603529074
basic,26,26,0,1,1,10,"[0, 21, 16, 29, 17, 14, 6, 10]",8,0,[],23.83485759,9295,673,1,0,8,1.7066425603529074
basic,27,19,0,0,0,0,[0],1,29,"[1, 2, 3, 4, 5, 6, 7, 8, 9, 10, 11, 12, 13, 14, 15, 16, 17, 18, 19, 20, 21, 22, 23, 24, 25, 26, 27, 28, 29]",300,147,-1,12,149,8,0.0
basic,27,19,0,0,0,4,"[0, 4]",2,11,"[6, 7, 9, 10, 11, 14, 20, 22, 24, 27, 28]",135.1940535,1944,1797,12,29,6,1.0
basic,27,19,0,0,0,14,"[0, 4, 14]",3,7,"[6, 10, 11, 20, 22, 24, 28]",85.18405451,2456,512,2,6,6,1.0272279923759577
basic,27,19,0,0,0,11,"[0, 4, 14, 11]",4,5,"[6, 20, 22, 24, 28]",74.36740068,3337,881,2,3,6,1.0290849669068307
basic,27,19,0,0,0,20,"[0, 4, 14, 11, 20]",5,1,[22],26.56572707,4086,749,1,0,6,1.2094600054199376
basic,27,19,0,0,1,22,"[0, 4, 14, 11, 20, 22]",6,0,[],13.41278063,5386,1300,1,0,6,1.3452427149101815
basic,27,19,0,1,1,22,"[0, 4, 14, 11, 20, 22]",6,0,[],13.41278063,7096,1710,1,0,6,1.3452427149101815
basic,28,10,0,0,0,0,[0],1,29,"[1, 2, 3, 4, 5, 6, 7, 8, 9, 10, 11, 12, 13, 14, 15, 16, 17, 18, 19, 20, 21, 22, 23, 24, 25, 26, 27, 28, 29]",300,148,-1,1,100,9,0.0
basic,28,10,0,0,0,13,"[0, 13]",2,25,"[1, 2, 3, 4, 6, 7, 8, 9, 10, 11, 12, 14, 17, 18, 19, 20, 21, 22, 23, 24, 25, 26, 27, 28, 29]",249.4628849,2644,2496,1,79,9,1.0
basic,28,10,0,0,0,11,"[0, 13, 11]",3,20,"[1, 2, 3, 6, 7, 8, 9, 10, 12, 14, 18, 19, 20, 21, 22, 24, 26, 27, 28, 29]",206.4512586,3141,497,1,54,9,1.0313137484914219
basic,28,10,0,0,0,19,"[0, 13, 11, 19]",4,11,"[2, 6, 8, 9, 10, 14, 18, 20, 24, 26, 27]",170.0919407,3721,580,1,22,9,1.0879446220132545
basic,28,10,0,0,0,2,"[0, 13, 11, 19, 2]",5,4,"[14, 20, 26, 27]",126.1829439,4420,699,1,4,9,1.06474052351343
basic,28,10,0,0,0,14,"[0, 13, 11, 19, 2, 14]",6,3,"[20, 26, 27]",114.0174188,4862,442,1,3,9,1.1628909195912238
basic,28,10,0,0,0,26,"[0, 13, 11, 19, 2, 14, 26]",7,2,"[20, 27]",79.34754716,5539,677,1,1,9,1.6660727647633602
basic,28,10,0,0,0,20,"[0, 13, 11, 19, 2, 14, 26, 20]",8,1,[27],47.56704999,6088,549,1,0,9,2.085581809637999
basic,28,10,0,0,1,27,"[0, 13, 11, 19, 2, 14, 26, 20, 27]",9,0,[],2.312215998,6830,742,1,0,9,1.9116357409137932
basic,28,10,0,1,1,27,"[0, 13, 11, 19, 2, 14, 26, 20, 27]",9,0,[],2.312215998,7230,400,1,0,9,1.9116357409137932
basic,29,21,0,0,0,0,[0],1,29,"[1, 2, 3, 4, 5, 6, 7, 8, 9, 10, 11, 12, 13, 14, 15, 16, 17, 18, 19, 20, 21, 22, 23, 24, 25, 26, 27, 28, 29]",300,146,-1,84,830,9,0.0
basic,29,21,0,0,0,22,"[0, 22]",2,28,"[1, 2, 3, 4, 5, 6, 7, 8, 9, 10, 11, 12, 13, 14, 15, 16, 17, 18, 19, 20, 21, 23, 24, 25, 26, 27, 28, 29]",217.7746998,2321,2175,2,74,9,1.0
basic,29,21,0,0,0,18,"[0, 22, 18]",3,23,"[1, 2, 3, 4, 6, 7, 8, 9, 10, 11, 12, 14, 15, 16, 17, 20, 21, 23, 24, 25, 26, 27, 29]",191.3739422,3029,708,1,37,9,1.838744154799842
basic,29,21,0,0,0,29,"[0, 22, 18, 29]",4,18,"[2, 4, 6, 7, 8, 10, 11, 12, 14, 15, 16, 17, 20, 21, 23, 24, 25, 27]",162.7208446,3751,722,1,16,9,1.6204406357178456
basic,29,21,0,0,0,25,"[0, 22, 18, 29, 25]",5,9,"[4, 6, 14, 15, 16, 17, 20, 21, 23]",117.4991684,5340,1589,1,10,9,3.051017366206046
basic,29,21,0,0,0,23,"[0, 22, 18, 29, 25, 23]",6,5,"[4, 14, 15, 16, 21]",74.17481037,6060,720,1,4,9,2.280597188478585
basic,29,21,0,0,0,21,"[0, 22, 18, 29, 25, 23, 21]",7,2,"[4, 14]",44.56062458,6844,784,1,1,9,2.8417257541417396
basic,29,21,0,0,0,14,"[0, 22, 18, 29, 25, 23, 21, 14]",8,1,[4],18.94812763,7475,631,1,0,9,2.4536892793246605
basic,29,21,0,0,1,4,"[0, 22, 18, 29, 25, 23, 21, 14, 4]",9,0,[],4.805992002,7950,475,1,0,9,2.3078941591309627
basic,29,21,0,1,1,4,"[0, 22, 18, 29, 25, 23, 21, 14, 4]",9,0,[],4.805992002,9127,1177,1,0,9,2.3078941591309627
basic,30,16,0,0,0,0,[0],1,29,"[1, 2, 3, 4, 5, 6, 7, 8, 9, 10, 11, 12, 13, 14, 15, 16, 17, 18, 19, 20, 21, 22, 23, 24, 25, 26, 27, 28, 29]",300,149,-1,13,161,9,0.0
basic,30,16,0,0,0,21,"[0, 21]",2,28,"[1, 2, 3, 4, 5, 6, 7, 8, 9, 10, 11, 12, 13, 14, 15, 16, 17, 18, 19, 20, 22, 23, 24, 25, 26, 27, 28, 29]",215.1884442,2261,2112,5,68,8,1.0
basic,30,16,0,0,0,8,"[0, 21, 8]",3,21,"[2, 3, 4, 5, 9, 10, 12, 13, 14, 15, 16, 17, 19, 20, 22, 23, 25, 26, 27, 28, 29]",165.9340028,2840,579,4,44,8,1.0808611140295874
basic,30,16,0,0,0,20,"[0, 21, 8, 20]",4,10,"[3, 4, 5, 9, 12, 13, 15, 16, 19, 25]",108.1585755,3511,671,3,15,8,1.0602210452538456
basic,30,16,0,0,0,25,"[0, 21, 8, 20, 25]",5,7,"[3, 4, 5, 9, 12, 13, 15]",95.50946482,4171,660,3,9,8,1.1098383265257352
basic,30,16,0,0,0,9,"[0, 21, 8, 20, 25, 9]",6,5,"[3, 4, 5, 13, 15]",82.70321634,4564,393,3,3,8,1.1028020529703262
basic,30,16,0,0,0,15,"[0, 21, 8, 20, 25, 9, 15]",7,2,"[3, 5]",43.80591566,5154,590,2,0,8,1.207603157845383
basic,30,16,0,0,1,3,"[0, 21, 8, 20, 25, 9, 15, 3]",8,0,[],0.527745647,6453,1299,1,0,8,1.35808447535712
basic,30,16,0,1,1,3,"[0, 21, 8, 20, 25, 9, 15, 3]",8,0,[],0.527745647,6848,395,1,0,8,1.35808447535712
basic,31,13,0,0,0,0,[0],1,29,"[1, 2, 3, 4, 5, 6, 7, 8, 9, 10, 11, 12, 13, 14, 15, 16, 17, 18, 19, 20, 21, 22, 23, 24, 25, 26, 27, 28, 29]",300,148,-1,60,2676,11,0.0
basic,31,13,0,0,0,24,"[0, 24]",2,28,"[1, 2, 3, 4, 5, 6, 7, 8, 9, 10, 11, 12, 13, 14, 15, 16, 17, 18, 19, 20, 21, 22, 23, 25, 26, 27, 28, 29]",288.8196601,1741,1593,16,1444,11,1.0
basic,31,13,0,0,0,28,"[0, 24, 28]",3,23,"[1, 2, 3, 4, 6, 7, 8, 9, 10, 11, 12, 13, 15, 16, 17, 19, 20, 21, 22, 23, 26, 27, 29]",222.5324064,2628,887,8,243,11,1.0513810491680837
basic,31,13,0,0,0,2,"[0, 24, 28, 2]",4,19,"[1, 3, 4, 6, 7, 9, 11, 12, 13, 15, 16, 17, 19, 20, 21, 23, 26, 27, 29]",184.889346,3496,868,7,110,11,1.050374132001543
basic,31,13,0,0,0,29,"[0, 24, 28, 2, 29]",5,18,"[1, 3, 4, 6, 7, 9, 11, 12, 13, 15, 16, 17, 19, 20, 21, 23, 26, 27]",173.1846461,3893,397,7,85,11,1.1393409619120594
basic,31,13,0,0,0,7,"[0, 24, 28, 2, 29, 7]",6,17,"[1, 3, 4, 6, 9, 11, 12, 13, 15, 16, 17, 19, 20, 21, 23, 26, 27]",157.9203086,4325,432,5,45,11,1.349777315111579
basic,31,13,0,0,0,26,"[0, 24, 28, 2, 29, 7, 26]",7,16,"[1, 3, 4, 6, 9, 11, 12, 13, 15, 16, 17, 19, 20, 21, 23, 27]",147.480002,4839,514,5,25,11,1.5942082773824946
basic,31,13,0,0,0,6,"[0, 24, 28, 2, 29, 7, 26, 6]",8,12,"[1, 3, 4, 11, 13, 15, 16, 17, 19, 20, 23, 27]",127.3802508,5761,922,4,12,11,1.5898347940840756
basic,31,13,0,0,0,11,"[0, 24, 28, 2, 29, 7, 26, 6, 11]",9,6,"[1, 13, 15, 16, 17, 23]",108.2752776,6373,612,3,4,11,1.5029953945561012
basic,31,13,0,0,0,13,"[0, 24, 28, 2, 29, 7, 26, 6, 11, 13]",10,2,"[15, 17]",52.19497806,7272,899,2,0,11,1.3655915863754327
basic,31,13,0,0,1,15,"[0, 24, 28, 2, 29, 7, 26, 6, 11, 13, 15]",11,0,[],12.38291958,8029,757,1,0,11,1.3653085520078876
basic,31,13,0,1,1,15,"[0, 24, 28, 2, 29, 7, 26, 6, 11, 13, 15]",11,0,[],12.38291958,8980,951,1,0,11,1.3653085520078876
basic,32,8,0,0,0,0,[0],1,29,"[1, 2, 3, 4, 5, 6, 7, 8, 9, 10, 11, 12, 13, 14, 15, 16, 17, 18, 19, 20, 21, 22, 23, 24, 25, 26, 27, 28, 29]",300,149,-1,10,149,9,0.0
basic,32,8,0,0,0,5,"[0, 5]",2,28,"[1, 2, 3, 4, 6, 7, 8, 9, 10, 11, 12, 13, 14, 15, 16, 17, 18, 19, 20, 21, 22, 23, 24, 25, 26, 27, 28, 29]",254.5137383,2469,2320,10,100,9,1.0
basic,32,8,0,0,0,25,"[0, 5, 25]",3,20,"[1, 2, 3, 4, 6, 11, 12, 14, 15, 16, 17, 18, 19, 20, 21, 22, 23, 24, 28, 29]",215.3091468,4570,2101,4,42,9,1.2272747879909065
basic,32,8,0,0,0,1,"[0, 5, 25, 1]",4,17,"[3, 4, 6, 11, 12, 14, 15, 16, 17, 18, 20, 21, 22, 23, 24, 28, 29]",190.3091468,5020,450,3,24,9,1.1770245007593956
basic,32,8,0,0,0,23,"[0, 5, 25, 1, 23]",5,15,"[3, 4, 6, 11, 14, 15, 16, 17, 18, 20, 21, 22, 24, 28, 29]",167.2874179,5486,466,1,14,9,1.141996583852372
basic,32,8,0,0,0,14,"[0, 5, 25, 1, 23, 14]",6,5,"[11, 15, 17, 18, 28]",98.40345751,7624,2138,2,3,8,2.359509060380308
basic,32,8,0,0,0,17,"[0, 5, 25, 1, 23, 14, 17]",7,1,[11],61.38994646,8337,713,1,0,8,2.1845828320464817
basic,32,8,0,0,1,11,"[0, 5, 25, 1, 23, 14, 17, 11]",8,0,[],36.21058984,8913,576,1,0,8,2.014892814041164
basic,32,8,0,1,1,11,"[0, 5, 25, 1, 23, 14, 17, 11]",8,0,[],36.21058984,10129,1216,1,0,8,2.014892814041164
basic,33,38,0,0,0,0,[0],1,29,"[1, 2, 3, 4, 5, 6, 7, 8, 9, 10, 11, 12, 13, 14, 15, 16, 17, 18, 19, 20, 21, 22, 23, 24, 25, 26, 27, 28, 29]",300,148,-1,33,506,9,0.0
basic,33,38,0,0,0,20,"[0, 20]",2,28,"[1, 2, 3, 4, 5, 6, 7, 8, 9, 10, 11, 12, 13, 14, 15, 16, 17, 18, 19, 21, 22, 23, 24, 25, 26, 27, 28, 29]",246.1483519,2670,2522,14,198,9,1.0
basic,33,38,0,0,0,4,"[0, 20, 4]",3,23,"[1, 3, 5, 6, 7, 10, 11, 12, 13, 14, 15, 16, 17, 18, 19, 22, 23, 24, 25, 26, 27, 28, 29]",212.2072264,3421,751,4,62,9,1.2521398361687723
basic,33,38,0,0,0,15,"[0, 20, 4, 15]",4,18,"[1, 3, 5, 7, 10, 11, 12, 13, 14, 16, 17, 18, 19, 22, 24, 26, 27, 28]",186.2072264,4035,614,4,31,9,1.550822729188101
basic,33,38,0,0,0,11,"[0, 20, 4, 15, 11]",5,12,"[1, 5, 10, 12, 13, 14, 16, 17, 19, 24, 26, 28]",149.806677,4860,825,3,16,9,1.8796205099327365
basic,33,38,0,0,0,16,"[0, 20, 4, 15, 11, 16]",6,7,"[10, 12, 13, 14, 24, 26, 28]",112.806677,5458,598,1,7,9,1.7108305616884092
basic,33,38,0,0,0,28,"[0, 20, 4, 15, 11, 16, 28]",7,3,"[10, 12, 14]",83.80667699,5935,477,1,2,9,2.0243920919320235
basic,33,38,0,0,0,14,"[0, 20, 4, 15, 11, 16, 28, 14]",8,1,[12],28.36301188,7335,1400,1,0,9,1.753957416032906
basic,33,38,0,0,1,12,"[0, 20, 4, 15, 11, 16, 28, 14, 12]",9,0,[],13.59818882,7794,459,1,0,9,1.688547868672891
basic,33,38,0,1,1,12,"[0, 20, 4, 15, 11, 16, 28, 14, 12]",9,0,[],13.59818882,8229,435,1,0,9,1.688547868672891
basic,34,34,0,0,0,0,[0],1,25,"[1, 3, 4, 5, 6, 7, 8, 9, 10, 11, 12, 13, 15, 18, 19, 20, 21, 22, 23, 24, 25, 26, 27, 28, 29]",300,149,-1,12,367,10,0.0
basic,34,34,0,0,0,13,"[0, 13]",2,24,"[1, 3, 4, 5, 6, 7, 8, 9, 10, 11, 12, 15, 18, 19, 20, 21, 22, 23, 24, 25, 26, 27, 28, 29]",279.9750156,1123,974,12,331,10,1.0
basic,34,34,0,0,0,1,"[0, 13, 1]",3,16,"[3, 5, 7, 8, 9, 10, 11, 12, 19, 21, 22, 23, 24, 25, 27, 29]",211.8574701,1838,715,3,92,10,1.0010381285747127
basic,34,34,0,0,0,8,"[0, 13, 1, 8]",4,14,"[3, 5, 7, 9, 10, 11, 12, 19, 22, 23, 24, 25, 27, 29]",201.0871405,2211,373,2,54,10,1.1636807
basic,34,34,0,0,0,25,"[0, 13, 1, 8, 25]",5,12,"[3, 5, 7, 9, 10, 11, 12, 22, 23, 24, 27, 29]",183.999133,3044,833,2,28,10,1.1396208815936457
basic,34,34,0,0,0,24,"[0, 13, 1, 8, 25, 24]",6,11,"[3, 5, 7, 9, 10, 11, 12, 22, 23, 27, 29]",166.5062774,3459,415,2,23,10,1.374180768736554
basic,34,34,0,0,0,12,"[0, 13, 1, 8, 25, 24, 12]",7,7,"[7, 9, 10, 11, 22, 23, 27]",115.4670767,4491,1032,1,8,10,1.4994254760835948
basic,34,34,0,0,0,7,"[0, 13, 1, 8, 25, 24, 12, 7]",8,5,"[9, 11, 22, 23, 27]",100.4337804,4939,448,1,4,10,1.758992610425009
basic,34,34,0,0,0,23,"[0, 13, 1, 8, 25, 24, 12, 7, 23]",9,1,[27],72.27352467,5539,600,1,0,10,2.399781305190153
basic,34,34,0,0,1,27,"[0, 13, 1, 8, 25, 24, 12, 7, 23, 27]",10,0,[],18.60789321,6806,1267,1,0,10,4.766619878750327
basic,34,34,0,1,1,27,"[0, 13, 1, 8, 25, 24, 12, 7, 23, 27]",10,0,[],18.60789321,7197,391,1,0,10,4.766619878750327
basic,35,23,0,0,0,0,[0],1,28,"[1, 2, 3, 4, 5, 6, 7, 8, 9, 10, 11, 12, 13, 14, 15, 16, 17, 18, 19, 20, 21, 22, 23, 25, 26, 27, 28, 29]",300,152,-1,76,2626,10,0.0
basic,35,23,0,0,0,22,"[0, 22]",2,24,"[1, 2, 3, 5, 6, 7, 8, 9, 10, 11, 12, 13, 14, 15, 17, 18, 19, 20, 21, 23, 25, 26, 27, 29]",210.5013967,2164,2012,15,1362,10,1.0
basic,35,23,0,0,0,13,"[0, 22, 13]",3,14,"[1, 2, 5, 6, 7, 8, 9, 10, 12, 14, 18, 21, 27, 29]",168.3113504,2974,810,14,522,10,1.1898173563652046
basic,35,23,0,0,0,27,"[0, 22, 13, 27]",4,7,"[2, 6, 9, 12, 14, 18, 29]",123.2114613,4137,1163,59,60,9,1.2347447137291254
basic,35,23,0,0,0,6,"[0, 22, 13, 27, 6]",5,5,"[2, 9, 12, 14, 29]",94.90951791,4789,652,25,4,9,1.3650572476361236
basic,35,23,0,0,0,2,"[0, 22, 13, 27, 6, 2]",6,4,"[9, 12, 14, 29]",76.47042899,5541,752,7,2,9,1.6380738772667878
basic,35,23,0,0,0,12,"[0, 22, 13, 27, 6, 2, 12]",7,2,"[9, 14]",62.577985,6122,581,2,0,9,1.9367358574807247
basic,35,23,0,0,0,9,"[0, 22, 13, 27, 6, 2, 12, 9]",8,1,[14],48.26016394,6725,603,1,0,9,1.926849993362044
basic,35,23,0,0,1,14,"[0, 22, 13, 27, 6, 2, 12, 9, 14]",9,0,[],37.81985743,7244,519,1,0,9,1.860885019505484
basic,35,23,0,1,1,14,"[0, 22, 13, 27, 6, 2, 12, 9, 14]",9,0,[],37.81985743,8013,769,1,0,9,1.860885019505484
basic,36,33,0,0,0,0,[0],1,23,"[1, 2, 5, 7, 8, 11, 12, 13, 14, 15, 16, 17, 18, 19, 20, 21, 23, 24, 25, 26, 27, 28, 29]",300,148,-1,5,108,9,0.0
basic,36,33,0,0,0,21,"[0, 21]",2,17,"[2, 5, 7, 8, 11, 13, 14, 16, 17, 18, 19, 20, 24, 26, 27, 28, 29]",174.4611614,1430,1282,21,129,8,1.0
basic,36,33,0,0,0,13,"[0, 21, 13]",3,15,"[2, 5, 7, 8, 11, 14, 16, 17, 18, 19, 20, 24, 26, 28, 29]",148.0604038,1847,417,17,72,8,1.0001005298764474
basic,36,33,0,0,0,19,"[0, 21, 13, 19]",4,11,"[7, 11, 14, 16, 17, 18, 20, 24, 26, 28, 29]",122.5653063,3671,1824,10,27,8,1.0588446738393702
basic,36,33,0,0,0,7,"[0, 21, 13, 19, 7]",5,7,"[14, 16, 17, 18, 24, 26, 29]",76.94732734,4436,765,3,5,8,1.0466997412739754
basic,36,33,0,0,0,14,"[0, 21, 13, 19, 7, 14]",6,3,"[24, 26, 29]",62.0812586,4910,474,2,1,8,1.096679239566485
basic,36,33,0,0,0,26,"[0, 21, 13, 19, 7, 14, 26]",7,1,[29],49.43214796,5472,562,1,0,8,1.1075261679429118
basic,36,33,0,0,1,29,"[0, 21, 13, 19, 7, 14, 26, 29]",8,0,[],21.53949659,6093,621,1,0,8,1.3238278222819673
basic,36,33,0,1,1,29,"[0, 21, 13, 19, 7, 14, 26, 29]",8,0,[],21.53949659,6431,338,1,0,8,1.3238278222819673
basic,37,31,0,0,0,0,[0],1,27,"[1, 3, 4, 5, 6, 7, 8, 10, 11, 12, 13, 14, 15, 16, 17, 18, 19, 20, 21, 22, 23, 24, 25, 26, 27, 28, 29]",300,148,-1,2,87,10,0.0
basic,37,31,0,0,0,14,"[0, 14]",2,25,"[1, 3, 5, 6, 7, 8, 10, 11, 12, 13, 15, 16, 17, 18, 19, 20, 21, 22, 23, 24, 25, 26, 27, 28, 29]",263.861378,2756,2608,2,59,10,1.0
basic,37,31,0,0,0,27,"[0, 14, 27]",3,22,"[1, 3, 5, 6, 7, 8, 10, 11, 12, 13, 15, 16, 17, 18, 19, 20, 21, 22, 24, 25, 28, 29]",235.6833724,3422,666,1,39,10,1.5881859159302467
basic,37,31,0,0,0,8,"[0, 14, 27, 8]",4,20,"[1, 3, 5, 6, 7, 10, 11, 12, 13, 16, 17, 18, 19, 20, 21, 22, 24, 25, 28, 29]",224.6380114,4061,639,1,36,10,2.1665048452331277
basic,37,31,0,0,0,18,"[0, 14, 27, 8, 18]",5,15,"[1, 5, 6, 7, 11, 12, 13, 16, 17, 19, 20, 22, 25, 28, 29]",188.7911147,4989,928,1,26,10,1.7273375741920205
basic,37,31,0,0,0,17,"[0, 14, 27, 8, 18, 17]",6,13,"[1, 5, 6, 7, 11, 12, 13, 16, 19, 20, 22, 25, 28]",159.584951,5892,903,1,13,10,1.551192427769927
basic,37,31,0,0,0,11,"[0, 14, 27, 8, 18, 17, 11]",7,7,"[5, 12, 16, 19, 22, 25, 28]",118.4753414,7077,1185,1,4,10,2.9650760544203494
basic,37,31,0,0,0,5,"[0, 14, 27, 8, 18, 17, 11, 5]",8,2,"[16, 28]",74.79468207,7769,692,1,1,10,2.56711965625205
basic,37,31,0,0,0,28,"[0, 14, 27, 8, 18, 17, 11, 5, 28]",9,1,[16],54.57093365,9077,1308,1,0,10,2.2865510762058148
basic,37,31,0,0,1,16,"[0, 14, 27, 8, 18, 17, 11, 5, 28, 16]",10,0,[],20.95546102,9660,583,1,0,10,2.089356850786318
basic,37,31,0,1,1,16,"[0, 14, 27, 8, 18, 17, 11, 5, 28, 16]",10,0,[],20.95546102,10162,502,1,0,10,2.089356850786318
basic,38,25,0,0,0,0,[0],1,28,"[1, 2, 3, 4, 5, 7, 8, 9, 10, 11, 12, 13, 14, 15, 16, 17, 18, 19, 20, 21, 22, 23, 24, 25, 26, 27, 28, 29]",300,148,-1,5,94,10,0.0
basic,38,25,0,0,0,23,"[0, 23]",2,23,"[1, 2, 3, 5, 7, 8, 9, 11, 12, 13, 14, 16, 17, 19, 20, 21, 22, 24, 25, 26, 27, 28, 29]",259.7756293,1295,1147,3,33,10,1.0
basic,38,25,0,0,0,19,"[0, 23, 19]",3,21,"[1, 2, 3, 5, 7, 8, 9, 11, 12, 13, 14, 16, 17, 20, 21, 22, 24, 25, 27, 28, 29]",223.9287326,2421,1126,3,24,10,1.583101227007039
basic,38,25,0,0,0,29,"[0, 23, 19, 29]",4,19,"[1, 2, 3, 5, 7, 8, 9, 11, 12, 13, 14, 16, 17, 20, 21, 22, 24, 25, 28]",207.649912,2895,474,3,17,10,1.474631541426484
basic,38,25,0,0,0,22,"[0, 23, 19, 29, 22]",5,18,"[1, 2, 3, 5, 7, 8, 9, 11, 12, 13, 14, 16, 17, 20, 21, 24, 25, 28]",191.5253965,3295,400,3,14,10,1.4020377754906637
basic,38,25,0,0,0,7,"[0, 23, 19, 29, 22, 7]",6,7,"[3, 8, 9, 11, 13, 24, 28]",115.8814939,3938,643,3,11,10,1.5709678649326715
basic,38,25,0,0,0,24,"[0, 23, 19, 29, 22, 7, 24]",7,5,"[3, 8, 9, 13, 28]",91.12265712,4489,551,3,7,10,1.486191600033379
basic,38,25,0,0,0,9,"[0, 23, 19, 29, 22, 7, 24, 9]",8,4,"[3, 8, 13, 28]",73.09490075,4977,488,3,3,10,1.453504870342882
basic,38,25,0,0,0,3,"[0, 23, 19, 29, 22, 7, 24, 9, 3]",9,3,"[8, 13, 28]",42.82940885,6036,1059,3,0,10,1.388955167525479
basic,38,25,0,0,1,28,"[0, 23, 19, 29, 22, 7, 24, 9, 3, 28]",10,0,[],11.52445716,6792,756,1,0,10,1.3331084120212044
basic,38,25,0,1,1,28,"[0, 23, 19, 29, 22, 7, 24, 9, 3, 28]",10,0,[],11.52445716,7114,322,1,0,10,1.3331084120212044
basic,39,1,0,0,0,0,[0],1,26,"[1, 2, 4, 5, 7, 8, 9, 10, 11, 12, 13, 14, 15, 16, 17, 18, 19, 20, 21, 22, 23, 24, 25, 26, 28, 29]",300,147,-1,6,74,7,0.0
basic,39,1,0,0,0,14,"[0, 14]",2,19,"[1, 4, 5, 8, 9, 13, 15, 17, 18, 19, 20, 21, 22, 23, 24, 25, 26, 28, 29]",200.1901808,1690,1543,5,42,7,1.0
basic,39,1,0,0,0,17,"[0, 14, 17]",3,15,"[1, 4, 5, 8, 9, 13, 15, 18, 19, 20, 22, 23, 25, 28, 29]",147.8356204,2308,618,5,27,7,1.0028844724416826
basic,39,1,0,0,0,1,"[0, 14, 17, 1]",4,12,"[4, 5, 8, 9, 15, 18, 20, 22, 23, 25, 28, 29]",123.4840291,2902,594,5,15,7,1.0264985578353567
basic,39,1,0,0,0,28,"[0, 14, 17, 1, 28]",5,5,"[9, 15, 22, 23, 29]",88.59850198,3442,540,5,3,7,1.0339861575999345
basic,39,1,0,0,0,23,"[0, 14, 17, 1, 28, 23]",6,2,"[15, 22]",51.70676849,4579,1137,2,0,7,1.0327458250705703
basic,39,1,0,0,1,15,"[0, 14, 17, 1, 28, 23, 15]",7,0,[],20.81987807,5072,493,1,0,7,1.1948681641401226
basic,39,1,0,1,1,15,"[0, 14, 17, 1, 28, 23, 15]",7,0,[],20.81987807,5412,340,1,0,7,1.1948681641401226
basic,40,18,0,0,0,0,[0],1,28,"[1, 2, 3, 4, 5, 6, 7, 8, 9, 10, 11, 12, 13, 14, 16, 17, 18, 19, 20, 21, 22, 23, 24, 25, 26, 27, 28, 29]",300,148,-1,3,136,10,0.0
basic,40,18,0,0,0,28,"[0, 28]",2,16,"[1, 3, 5, 7, 8, 9, 12, 13, 14, 16, 20, 23, 24, 25, 26, 27]",236.4311397,2635,2487,2,19,10,1.0
basic,40,18,0,0,0,7,"[0, 28, 7]",3,15,"[1, 3, 5, 8, 9, 12, 13, 14, 16, 20, 23, 24, 25, 26, 27]",214.4084242,3070,435,2,17,10,1.4345180696367563
basic,40,18,0,0,0,25,"[0, 28, 7, 25]",4,13,"[1, 3, 5, 8, 9, 12, 13, 14, 16, 20, 23, 26, 27]",186.6055466,3580,510,2,15,10,1.8896451241781882
basic,40,18,0,0,0,8,"[0, 28, 7, 25, 8]",5,10,"[3, 5, 9, 12, 13, 14, 16, 23, 26, 27]",149.551532,4805,1225,2,10,10,1.590467437592877
basic,40,18,0,0,0,13,"[0, 28, 7, 25, 8, 13]",6,9,"[3, 5, 9, 12, 14, 16, 23, 26, 27]",128.4565089,5287,482,2,5,10,1.8248274983549797
basic,40,18,0,0,0,14,"[0, 28, 7, 25, 8, 13, 14]",7,7,"[3, 5, 9, 12, 23, 26, 27]",109.4828429,5735,448,2,3,10,1.6993534956692746
basic,40,18,0,0,0,3,"[0, 28, 7, 25, 8, 13, 14, 3]",8,3,"[5, 12, 27]",79.39962499,6368,633,2,1,10,1.802637206541468
basic,40,18,0,0,0,5,"[0, 28, 7, 25, 8, 13, 14, 3, 5]",9,1,[12],21.21887216,7358,990,1,0,10,1.559774889743805
basic,40,18,0,0,1,12,"[0, 28, 7, 25, 8, 13, 14, 3, 5, 12]",10,0,[],9.817117911,7739,381,1,0,10,1.563993037384447
basic,40,18,0,1,1,12,"[0, 28, 7, 25, 8, 13, 14, 3, 5, 12]",10,0,[],9.817117911,8146,407,1,0,10,1.563993037384447
basic,41,36,0,0,0,0,[0],1,24,"[2, 4, 5, 6, 7, 8, 9, 10, 12, 13, 14, 15, 16, 17, 18, 19, 20, 22, 23, 25, 26, 27, 28, 29]",300,147,-1,2,200,10,0.0
basic,41,36,0,0,0,12,"[0, 12]",2,23,"[2, 4, 5, 6, 7, 8, 9, 10, 13, 14, 15, 16, 17, 18, 19, 20, 22, 23, 25, 26, 27, 28, 29]",277.7963967,1447,1300,90,804,9,1.0
basic,41,36,0,0,0,9,"[0, 12, 9]",3,14,"[2, 4, 8, 10, 13, 16, 17, 18, 19, 23, 25, 27, 28, 29]",215.4345494,2292,845,32,191,9,1.224429481246385
basic,41,36,0,0,0,17,"[0, 12, 9, 17]",4,11,"[2, 4, 8, 10, 13, 16, 18, 19, 23, 25, 27]",189.1857399,2974,682,8,54,9,1.1724571624470872
basic,41,36,0,0,0,19,"[0, 12, 9, 17, 19]",5,8,"[2, 4, 10, 13, 16, 18, 23, 25]",161.2930885,3463,489,3,14,9,1.7995682634090462
basic,41,36,0,0,0,2,"[0, 12, 9, 17, 19, 2]",6,4,"[10, 13, 16, 25]",124.1716661,3985,522,2,3,9,1.5569787348204112
basic,41,36,0,0,0,25,"[0, 12, 9, 17, 19, 2, 25]",7,3,"[10, 13, 16]",99.17166613,4737,752,1,2,9,1.7541097756555504
basic,41,36,0,0,0,13,"[0, 12, 9, 17, 19, 2, 25, 13]",8,1,[10],78.58040585,5239,502,1,0,9,2.257503926583423
basic,41,36,0,0,1,10,"[0, 12, 9, 17, 19, 2, 25, 13, 10]",9,0,[],2.619889792,6279,1040,1,0,9,1.709815416525762
basic,41,36,0,1,1,10,"[0, 12, 9, 17, 19, 2, 25, 13, 10]",9,0,[],2.619889792,6713,434,1,0,9,1.709815416525762
basic,42,15,0,0,0,0,[0],1,25,"[1, 2, 3, 4, 7, 8, 9, 10, 11, 12, 13, 14, 15, 16, 18, 20, 21, 22, 23, 24, 25, 26, 27, 28, 29]",300,148,-1,4,65,9,0.0
basic,42,15,0,0,0,12,"[0, 12]",2,22,"[1, 2, 3, 4, 7, 8, 9, 10, 11, 13, 14, 15, 16, 18, 21, 22, 23, 24, 26, 27, 28, 29]",213.547701,1304,1156,4,35,9,1.0
basic,42,15,0,0,0,7,"[0, 12, 7]",3,16,"[1, 3, 4, 8, 9, 10, 11, 13, 14, 15, 16, 18, 21, 22, 24, 27]",180.3061607,1939,635,4,29,9,1.411291635294361
basic,42,15,0,0,0,11,"[0, 12, 7, 11]",4,9,"[3, 4, 13, 14, 15, 16, 21, 22, 27]",138.8212237,2671,732,2,12,9,1.2980572092387541
basic,42,15,0,0,0,16,"[0, 12, 7, 11, 16]",5,6,"[3, 4, 13, 14, 15, 22]",112.802,3259,588,5,7,8,1.639755162381675
basic,42,15,0,0,0,3,"[0, 12, 7, 11, 16, 3]",6,5,"[4, 13, 14, 15, 22]",87.72212764,4411,1152,3,3,8,1.6035706685901854
basic,42,15,0,0,0,22,"[0, 12, 7, 11, 16, 3, 22]",7,2,"[13, 15]",37.9928606,5204,793,2,0,8,1.5186586986954977
basic,42,15,0,0,1,15,"[0, 12, 7, 11, 16, 3, 22, 15]",8,0,[],12.38036365,5939,735,1,0,8,1.4646095613599284
basic,42,15,0,1,1,15,"[0, 12, 7, 11, 16, 3, 22, 15]",8,0,[],12.38036365,6830,891,1,0,8,1.4646095613599284
basic,43,17,0,0,0,0,[0],1,28,"[1, 2, 3, 4, 5, 6, 7, 8, 9, 10, 11, 12, 13, 14, 15, 16, 17, 18, 19, 20, 22, 23, 24, 25, 26, 27, 28, 29]",300,149,-1,2,73,8,0.0
basic,43,17,0,0,0,9,"[0, 9]",2,25,"[1, 2, 3, 5, 6, 7, 8, 10, 11, 12, 14, 15, 16, 17, 18, 19, 20, 22, 23, 24, 25, 26, 27, 28, 29]",210.5293344,1525,1376,1,34,8,1.0
basic,43,17,0,0,0,16,"[0, 9, 16]",3,21,"[1, 2, 3, 5, 7, 8, 10, 11, 12, 14, 17, 18, 19, 20, 22, 23, 25, 26, 27, 28, 29]",197.1876704,1869,344,1,26,8,1.173103464220352
basic,43,17,0,0,0,2,"[0, 9, 16, 2]",4,18,"[1, 3, 5, 7, 8, 10, 11, 12, 14, 17, 18, 19, 23, 25, 26, 27, 28, 29]",181.0631549,2364,495,1,23,8,1.14825089247282
basic,43,17,0,0,0,17,"[0, 9, 16, 2, 17]",5,7,"[7, 8, 12, 14, 26, 27, 29]",142.7356191,3387,1023,4,5,7,1.4896040699768547
basic,43,17,0,0,0,8,"[0, 9, 16, 2, 17, 8]",6,3,"[7, 12, 27]",104.5256727,3909,522,3,0,7,1.4604726966175894
basic,43,17,0,0,1,27,"[0, 9, 16, 2, 17, 8, 27]",7,0,[],21.88790895,4905,996,1,0,7,1.2949460667276491
basic,43,17,0,1,1,27,"[0, 9, 16, 2, 17, 8, 27]",7,0,[],21.88790895,5648,743,1,0,7,1.2949460667276491
basic,44,12,0,0,0,0,[0],1,29,"[1, 2, 3, 4, 5, 6, 7, 8, 9, 10, 11, 12, 13, 14, 15, 16, 17, 18, 19, 20, 21, 22, 23, 24, 25, 26, 27, 28, 29]",300,148,-1,2,32,9,0.0
basic,44,12,0,0,0,16,"[0, 16]",2,16,"[2, 4, 5, 6, 7, 12, 13, 14, 18, 19, 22, 23, 24, 25, 27, 29]",209.2916762,1557,1409,3,38,8,1.0
basic,44,12,0,0,0,4,"[0, 16, 4]",3,11,"[2, 5, 6, 7, 12, 14, 19, 22, 24, 25, 27]",175.0864135,2435,878,1,16,8,1.00004499617691
basic,44,12,0,0,0,12,"[0, 16, 4, 12]",4,6,"[14, 19, 22, 24, 25, 27]",132.8963673,2955,520,1,8,8,1.0113942412768022
basic,44,12,0,0,0,27,"[0, 16, 4, 12, 27]",5,4,"[14, 19, 22, 24]",108.5447759,3988,1033,1,3,8,1.1193150037844588
basic,44,12,0,0,0,14,"[0, 16, 4, 12, 27, 14]",6,2,"[19, 24]",79.89167838,4921,933,1,1,8,1.1821826897854277
basic,44,12,0,0,0,24,"[0, 16, 4, 12, 27, 14, 24]",7,1,[19],62.68702784,5522,601,1,0,8,1.3297400833764192
basic,44,12,0,0,1,19,"[0, 16, 4, 12, 27, 14, 24, 19]",8,0,[],3.865263163,6285,763,1,0,8,2.27325645157102
basic,44,12,0,1,1,19,"[0, 16, 4, 12, 27, 14, 24, 19]",8,0,[],3.865263163,6730,445,1,0,8,2.27325645157102
basic,45,30,0,0,0,0,[0],1,19,"[3, 4, 5, 7, 9, 11, 16, 17, 18, 19, 20, 21, 22, 24, 25, 26, 27, 28, 29]",300,149,-1,5,41,8,0.0
basic,45,30,0,0,0,16,"[0, 16]",2,17,"[3, 5, 7, 9, 11, 17, 18, 19, 20, 21, 22, 24, 25, 26, 27, 28, 29]",219.3774225,1494,1345,5,34,8,1.0
basic,45,30,0,0,0,25,"[0, 16, 25]",3,10,"[3, 5, 7, 9, 11, 18, 19, 20, 27, 29]",115.0845656,2321,827,5,28,8,1.0336279544884488
basic,45,30,0,0,0,20,"[0, 16, 25, 20]",4,8,"[3, 5, 7, 9, 18, 19, 27, 29]",93.15285342,2823,502,4,14,8,1.0337964627284246
basic,45,30,0,0,0,27,"[0, 16, 25, 20, 27]",5,4,"[3, 5, 18, 29]",59.09408069,3527,704,4,6,8,1.1504365534848
basic,45,30,0,0,0,3,"[0, 16, 25, 20, 27, 3]",6,3,"[5, 18, 29]",39.98910751,3957,430,4,0,8,1.1403876826835333
basic,45,30,0,0,0,18,"[0, 16, 25, 20, 27, 3, 18]",7,2,"[5, 29]",21.74081992,4554,597,2,0,8,1.1392589158498312
basic,45,30,0,0,1,29,"[0, 16, 25, 20, 27, 3, 18, 29]",8,0,[],2.427612006,5489,935,1,0,8,1.2222616227191303
basic,45,30,0,1,1,29,"[0, 16, 25, 20, 27, 3, 18, 29]",8,0,[],2.427612006,5831,342,1,0,8,1.2222616227191303
basic,46,28,0,0,0,0,[0],1,27,"[1, 2, 3, 4, 5, 6, 7, 8, 9, 10, 11, 12, 13, 14, 15, 16, 17, 18, 19, 20, 22, 23, 25, 26, 27, 28, 29]",300,150,-1,2,96,9,0.0
basic,46,28,0,0,0,14,"[0, 14]",2,14,"[1, 2, 3, 5, 7, 10, 11, 12, 13, 17, 18, 19, 20, 26]",147.8914861,2209,2059,1,26,8,1.0
basic,46,28,0,0,0,18,"[0, 14, 18]",3,11,"[1, 2, 3, 5, 7, 11, 12, 13, 17, 19, 26]",122.3963885,3873,1664,1,23,8,1.0675599824559303
basic,46,28,0,0,0,13,"[0, 14, 18, 13]",4,7,"[2, 7, 11, 12, 17, 19, 26]",97.9832773,4572,699,1,9,8,1.0602397944415018
basic,46,28,0,0,0,12,"[0, 14, 18, 13, 12]",5,4,"[2, 7, 17, 19]",80.77862677,5421,849,1,3,8,1.0640685934245377
basic,46,28,0,0,0,7,"[0, 14, 18, 13, 12, 7]",6,2,"[2, 19]",67.62568033,5837,416,1,1,8,1.186262804928269
basic,46,28,0,0,0,19,"[0, 14, 18, 13, 12, 7, 19]",7,1,[2],39.89483108,6469,632,1,0,8,1.424576333867947
basic,46,28,0,0,1,2,"[0, 14, 18, 13, 12, 7, 19, 2]",8,0,[],2.531747699,7456,987,1,0,8,1.4824387893309579
basic,46,28,0,1,1,2,"[0, 14, 18, 13, 12, 7, 19, 2]",8,0,[],2.531747699,7846,390,1,0,8,1.4824387893309579
basic,47,5,0,0,0,0,[0],1,29,"[1, 2, 3, 4, 5, 6, 7, 8, 9, 10, 11, 12, 13, 14, 15, 16, 17, 18, 19, 20, 21, 22, 23, 24, 25, 26, 27, 28, 29]",300,149,-1,5,139,9,0.0
basic,47,5,0,0,0,25,"[0, 25]",2,25,"[1, 2, 3, 4, 5, 6, 8, 9, 10, 11, 12, 13, 14, 15, 16, 17, 18, 19, 21, 22, 23, 24, 26, 27, 28]",237.1987261,3171,3022,1,27,9,1.0
basic,47,5,0,0,0,23,"[0, 25, 23]",3,24,"[1, 2, 3, 4, 5, 6, 8, 9, 10, 11, 12, 13, 14, 15, 16, 17, 18, 19, 21, 22, 24, 26, 27, 28]",218.7596372,3597,426,1,16,9,1.619632697457157
basic,47,5,0,0,0,24,"[0, 25, 23, 24]",4,19,"[2, 4, 5, 6, 8, 9, 10, 12, 13, 14, 15, 17, 18, 19, 21, 22, 26, 27, 28]",195.6728445,4080,483,1,14,9,1.4405376720181815
basic,47,5,0,0,0,17,"[0, 25, 23, 24, 17]",5,11,"[4, 5, 6, 8, 12, 14, 15, 18, 19, 22, 27]",160.6871331,4672,592,1,10,9,1.3047273214654462
basic,47,5,0,0,0,5,"[0, 25, 23, 24, 17, 5]",6,6,"[4, 6, 8, 12, 15, 18]",117.6406466,5404,732,1,4,9,1.2200748060424715
basic,47,5,0,0,0,18,"[0, 25, 23, 24, 17, 5, 18]",7,2,"[4, 6]",50.57351603,7339,1935,1,1,9,1.2300009599197665
basic,47,5,0,0,0,4,"[0, 25, 23, 24, 17, 5, 18, 4]",8,1,[6],12.15477061,8056,717,1,0,9,1.642658984034466
basic,47,5,0,0,1,6,"[0, 25, 23, 24, 17, 5, 18, 4, 6]",9,0,[],0.113176031,8464,408,1,0,9,1.7957294848443113
basic,47,5,0,1,1,6,"[0, 25, 23, 24, 17, 5, 18, 4, 6]",9,0,[],0.113176031,8797,333,1,0,9,1.7957294848443113
basic,48,39,0,0,0,0,[0],1,28,"[1, 2, 3, 4, 5, 6, 7, 9, 10, 11, 12, 13, 14, 15, 16, 17, 18, 19, 20, 21, 22, 23, 24, 25, 26, 27, 28, 29]",300,164,-1,1,30,10,0.0
basic,48,39,0,0,0,14,"[0, 14]",2,26,"[1, 2, 3, 4, 5, 6, 7, 9, 10, 12, 13, 15, 16, 17, 18, 19, 20, 21, 22, 23, 24, 25, 26, 27, 28, 29]",286.9615952,2064,1900,1,22,10,1.0
basic,48,39,0,0,0,29,"[0, 14, 29]",3,23,"[1, 2, 3, 4, 5, 6, 7, 9, 10, 12, 13, 15, 16, 17, 18, 19, 21, 22, 23, 24, 25, 26, 28]",218.9321898,3338,1274,1,21,10,1.4237768813412561
basic,48,39,0,0,0,12,"[0, 14, 29, 12]",4,16,"[1, 2, 4, 5, 7, 9, 10, 13, 15, 16, 18, 19, 22, 23, 24, 26]",158.3929463,4096,758,1,11,10,1.2085522586932163
basic,48,39,0,0,0,10,"[0, 14, 29, 12, 10]",5,11,"[1, 4, 5, 7, 15, 16, 18, 19, 22, 23, 26]",122.8823845,4607,511,1,8,10,1.4905426536315662
basic,48,39,0,0,0,7,"[0, 14, 29, 12, 10, 7]",6,6,"[1, 16, 18, 19, 22, 26]",89.46083457,5136,529,1,6,10,1.3836596018032035
basic,48,39,0,0,0,26,"[0, 14, 29, 12, 10, 7, 26]",7,3,"[16, 19, 22]",70.77929288,5605,469,1,4,10,1.4191124441944845
basic,48,39,0,0,0,22,"[0, 14, 29, 12, 10, 7, 26, 22]",8,2,"[16, 19]",53.05924773,6354,749,1,1,10,1.594793297833885
basic,48,39,0,0,0,16,"[0, 14, 29, 12, 10, 7, 26, 22, 16]",9,1,[19],18.05924773,7105,751,1,0,10,1.48519520801471
basic,48,39,0,0,1,19,"[0, 14, 29, 12, 10, 7, 26, 22, 16, 19]",10,0,[],0.594998533,7803,698,1,0,10,1.484277847976571
basic,48,39,0,1,1,19,"[0, 14, 29, 12, 10, 7, 26, 22, 16, 19]",10,0,[],0.594998533,8195,392,1,0,10,1.484277847976571
basic,49,6,0,0,0,0,[0],1,29,"[1, 2, 3, 4, 5, 6, 7, 8, 9, 10, 11, 12, 13, 14, 15, 16, 17, 18, 19, 20, 21, 22, 23, 24, 25, 26, 27, 28, 29]",300,148,-1,180,4304,10,0.0
basic,49,6,0,0,0,3,"[0, 3]",2,28,"[1, 2, 4, 5, 6, 7, 8, 9, 10, 11, 12, 13, 14, 15, 16, 17, 18, 19, 20, 21, 22, 23, 24, 25, 26, 27, 28, 29]",266.4738908,1225,1077,90,1607,10,1.0
basic,49,6,0,0,0,24,"[0, 3, 24]",3,24,"[1, 2, 4, 5, 6, 7, 8, 10, 11, 13, 14, 16, 17, 18, 19, 20, 21, 22, 23, 25, 26, 27, 28, 29]",202.520783,4162,2937,6,84,10,1.001910163116413
basic,49,6,0,0,0,10,"[0, 3, 24, 10]",4,20,"[1, 2, 4, 5, 6, 7, 8, 11, 13, 14, 16, 17, 18, 20, 21, 22, 23, 26, 27, 29]",189.1043751,4636,474,6,66,10,1.314793299348402
basic,49,6,0,0,0,17,"[0, 3, 24, 10, 17]",5,19,"[1, 2, 4, 5, 6, 7, 8, 11, 13, 14, 16, 18, 20, 21, 22, 23, 26, 27, 29]",169.3812922,5338,702,6,45,10,1.8507472474352449
basic,49,6,0,0,0,18,"[0, 3, 24, 10, 17, 18]",6,15,"[1, 2, 6, 7, 8, 13, 14, 16, 20, 21, 22, 23, 26, 27, 29]",155.4529039,5879,541,5,31,10,2.373454740786756
basic,49,6,0,0,0,16,"[0, 3, 24, 10, 17, 18, 16]",7,13,"[1, 2, 6, 7, 13, 14, 20, 21, 22, 23, 26, 27, 29]",132.1076688,6472,593,5,19,10,2.3260122505247613
basic,49,6,0,0,0,29,"[0, 3, 24, 10, 17, 18, 16, 29]",8,6,"[6, 14, 21, 22, 23, 27]",95.41979617,7602,1130,5,4,10,1.920792706835084
basic,49,6,0,0,0,23,"[0, 3, 24, 10, 17, 18, 16, 29, 23]",9,2,"[6, 22]",47.90137869,8722,1120,2,0,10,1.8785104449401346
basic,49,6,0,0,1,6,"[0, 3, 24, 10, 17, 18, 16, 29, 23, 6]",10,0,[],12.54603963,9287,565,1,0,10,1.7847743285121995
basic,49,6,0,1,1,6,"[0, 3, 24, 10, 17, 18, 16, 29, 23, 6]",10,0,[],12.54603963,9745,458,1,0,10,1.7847743285121995
basic,50,40,0,0,0,0,[0],1,29,"[1, 2, 3, 4, 5, 6, 7, 8, 9, 10, 11, 12, 13, 14, 15, 16, 17, 18, 19, 20, 21, 22, 23, 24, 25, 26, 27, 28, 29]",300,148,-1,8,191,9,0.0
basic,50,40,0,0,0,2,"[0, 2]",2,28,"[1, 3, 4, 5, 6, 7, 8, 9, 10, 11, 12, 13, 14, 15, 16, 17, 18, 19, 20, 21, 22, 23, 24, 25, 26, 27, 28, 29]",263.7646581,3905,3757,4,79,9,1.0
basic,50,40,0,0,0,23,"[0, 2, 23]",3,19,"[1, 5, 6, 7, 8, 9, 10, 11, 13, 14, 15, 17, 18, 19, 20, 21, 22, 27, 29]",194.3024382,4925,1020,1,12,9,1.1143977995255836
basic,50,40,0,0,0,9,"[0, 2, 23, 9]",4,9,"[1, 5, 6, 8, 18, 19, 21, 22, 27]",146.0323646,6006,1081,16,16,7,1.2484318302932567
basic,50,40,0,0,0,18,"[0, 2, 23, 9, 18]",5,8,"[1, 5, 6, 8, 19, 21, 22, 27]",129.4794193,6387,381,11,3,7,1.4395177188868689
basic,50,40,0,0,0,5,"[0, 2, 23, 9, 18, 5]",6,6,"[6, 8, 19, 21, 22, 27]",97.90411248,6994,607,6,0,7,1.6432732453377144
basic,50,40,0,0,1,19,"[0, 2, 23, 9, 18, 5, 19]",7,0,[],59.82524695,7940,946,1,0,7,2.3410802468817677
basic,50,40,0,1,1,19,"[0, 2, 23, 9, 18, 5, 19]",7,0,[],59.82524695,9712,1772,1,0,7,2.3410802468817677
basic,51,41,0,0,0,0,[0],1,29,"[1, 2, 3, 4, 5, 6, 7, 8, 9, 10, 11, 12, 13, 14, 15, 16, 17, 18, 19, 20, 21, 22, 23, 24, 25, 26, 27, 28, 29]",300,148,-1,1,143,10,0.0
basic,51,41,0,0,0,28,"[0, 28]",2,27,"[1, 2, 3, 5, 6, 7, 8, 9, 10, 11, 12, 13, 14, 15, 16, 17, 18, 19, 20, 21, 22, 23, 24, 25, 26, 27, 29]",259.8004975,1704,1556,37,249,9,1.0
basic,51,41,0,0,0,5,"[0, 28, 5]",3,26,"[1, 2, 3, 6, 7, 8, 9, 10, 11, 12, 13, 14, 15, 16, 17, 18, 19, 20, 21, 22, 23, 24, 25, 26, 27, 29]",246.199027,2043,339,30,182,9,1.714241539747437
basic,51,41,0,0,0,3,"[0, 28, 5, 3]",4,25,"[1, 2, 6, 7, 8, 9, 10, 11, 12, 13, 14, 15, 16, 17, 18, 19, 20, 21, 22, 23, 24, 25, 26, 27, 29]",211.3708775,2715,672,20,93,9,2.2367972660995847
basic,51,41,0,0,0,21,"[0, 28, 5, 3, 21]",5,19,"[1, 2, 6, 9, 10, 11, 12, 13, 14, 15, 17, 18, 19, 20, 22, 24, 25, 26, 27]",179.2305601,3195,480,12,46,9,2.470864770481327
basic,51,41,0,0,0,9,"[0, 28, 5, 3, 21, 9]",6,13,"[1, 2, 10, 12, 13, 14, 15, 17, 19, 22, 24, 25, 26]",129.8645799,4585,1390,3,17,9,2.0674559404382
basic,51,41,0,0,0,2,"[0, 28, 5, 3, 21, 9, 2]",7,9,"[1, 10, 12, 14, 15, 17, 19, 22, 24]",117.7815339,4971,386,2,7,9,2.0139863201149533
basic,51,41,0,0,0,17,"[0, 28, 5, 3, 21, 9, 2, 17]",8,1,[10],85.22389276,5555,584,1,0,9,3.388293326704014
basic,51,41,0,0,1,10,"[0, 28, 5, 3, 21, 9, 2, 17, 10]",9,0,[],35.97960375,6274,719,1,0,9,3.1208433501016275
basic,51,41,0,1,1,10,"[0, 28, 5, 3, 21, 9, 2, 17, 10]",9,0,[],35.97960375,6730,456,1,0,9,3.1208433501016275
basic,52,3,0,0,0,0,[0],1,29,"[1, 2, 3, 4, 5, 6, 7, 8, 9, 10, 11, 12, 13, 14, 15, 16, 17, 18, 19, 20, 21, 22, 23, 24, 25, 26, 27, 28, 29]",300,149,-1,34,427,10,0.0
basic,52,3,0,0,0,17,"[0, 17]",2,16,"[3, 4, 7, 8, 10, 12, 14, 15, 16, 19, 20, 21, 22, 24, 26, 27]",197.6965299,1847,1698,2,27,9,1.0
basic,52,3,0,0,0,20,"[0, 17, 20]",3,13,"[3, 4, 7, 8, 10, 14, 15, 16, 19, 21, 22, 24, 27]",185.0474192,2247,400,2,24,9,1.0153332121237257
basic,52,3,0,0,0,3,"[0, 17, 20, 3]",4,10,"[4, 7, 8, 10, 14, 15, 16, 19, 21, 24]",164.6513412,2812,565,2,22,9,1.0819240770773468
basic,52,3,0,0,0,19,"[0, 17, 20, 3, 19]",5,6,"[4, 8, 10, 14, 21, 24]",127.3150318,3423,611,2,11,9,1.1701070532957258
basic,52,3,0,0,0,21,"[0, 17, 20, 3, 19, 21]",6,5,"[4, 8, 10, 14, 24]",115.1084762,3959,536,2,6,9,1.202395500952127
basic,52,3,0,0,0,14,"[0, 17, 20, 3, 19, 21, 14]",7,4,"[4, 8, 10, 24]",88.20122806,4773,814,2,2,9,1.6456130302761207
basic,52,3,0,0,1,10,"[0, 17, 20, 3, 19, 21, 14, 10]",8,0,[],42.74795535,5325,552,1,0,8,1.6337827075255185
basic,52,3,0,1,1,10,"[0, 17, 20, 3, 19, 21, 14, 10]",8,0,[],42.74795535,5997,672,1,0,8,1.6337827075255185
basic,53,45,0,0,0,0,[0],1,24,"[1, 2, 3, 4, 5, 6, 7, 9, 10, 11, 12, 14, 15, 16, 17, 19, 20, 21, 22, 23, 24, 25, 27, 29]",300,152,-1,6,248,10,0.0
basic,53,45,0,0,0,15,"[0, 15]",2,23,"[1, 2, 3, 4, 5, 6, 7, 9, 10, 11, 12, 14, 16, 17, 19, 20, 21, 22, 23, 24, 25, 27, 29]",253.9022777,1327,1175,5,207,10,1.0
basic,53,45,0,0,0,23,"[0, 15, 23]",3,22,"[1, 2, 3, 4, 5, 6, 7, 9, 10, 11, 12, 14, 16, 17, 19, 20, 21, 22, 24, 25, 27, 29]",230.3014303,1879,552,5,163,10,1.0006068457769497
basic,53,45,0,0,0,20,"[0, 15, 23, 20]",4,19,"[1, 2, 3, 5, 6, 7, 9, 10, 11, 12, 14, 16, 17, 19, 21, 22, 24, 25, 29]",188.8647316,2489,610,5,137,10,1.2062119754673604
basic,53,45,0,0,0,7,"[0, 15, 23, 20, 7]",5,14,"[2, 3, 5, 6, 9, 10, 12, 14, 17, 19, 21, 22, 24, 29]",137.2410936,3272,783,3,38,10,1.2267717168083891
basic,53,45,0,0,0,2,"[0, 15, 23, 20, 7, 2]",6,8,"[3, 6, 10, 12, 19, 22, 24, 29]",99.22793795,3839,567,3,20,10,1.1978549169009853
basic,53,45,0,0,0,3,"[0, 15, 23, 20, 7, 2, 3]",7,5,"[6, 10, 12, 22, 29]",73.90996014,4988,1149,2,7,10,1.2603420042999722
basic,53,45,0,0,0,29,"[0, 15, 23, 20, 7, 2, 3, 29]",8,3,"[6, 10, 12]",53.90996014,5372,384,2,1,10,1.527949676112761
basic,53,45,0,0,0,10,"[0, 15, 23, 20, 7, 2, 3, 29, 10]",9,1,[6],32.36930092,5961,589,1,0,10,1.8188082660591487
basic,53,45,0,0,1,6,"[0, 15, 23, 20, 7, 2, 3, 29, 10, 6]",10,0,[],6.120491419,6543,582,1,0,10,1.7062675391073039
basic,53,45,0,1,1,6,"[0, 15, 23, 20, 7, 2, 3, 29, 10, 6]",10,0,[],6.120491419,6896,353,1,0,10,1.7062675391073039
basic,54,4,0,0,0,0,[0],1,26,"[3, 4, 5, 6, 7, 8, 10, 11, 12, 13, 14, 15, 16, 17, 18, 19, 20, 21, 22, 23, 24, 25, 26, 27, 28, 29]",300,148,-1,4,489,10,0.0
basic,54,4,0,0,0,28,"[0, 28]",2,21,"[3, 4, 5, 6, 10, 11, 12, 13, 14, 15, 16, 17, 19, 20, 21, 22, 23, 24, 25, 26, 27]",225.9392142,1903,1755,2,216,10,1.0
basic,54,4,0,0,0,11,"[0, 28, 11]",3,16,"[3, 4, 5, 6, 12, 13, 14, 16, 17, 20, 21, 22, 23, 24, 25, 26]",177.0618165,2753,850,1,99,10,1.0005230107421244
basic,54,4,0,0,0,25,"[0, 28, 11, 25]",4,14,"[3, 4, 5, 6, 12, 13, 14, 16, 17, 20, 21, 22, 23, 24]",158.2735223,3488,735,1,47,10,1.11762077950493
basic,54,4,0,0,0,14,"[0, 28, 11, 25, 14]",5,10,"[3, 4, 5, 6, 13, 16, 17, 20, 21, 22]",142.1490068,3876,388,1,23,10,1.1558980853108136
basic,54,4,0,0,0,16,"[0, 28, 11, 25, 14, 16]",6,9,"[3, 4, 5, 6, 13, 17, 20, 21, 22]",109.5913656,4553,677,1,12,10,1.3813330703388178
basic,54,4,0,0,0,21,"[0, 28, 11, 25, 14, 16, 21]",7,4,"[5, 17, 20, 22]",65.38729339,5394,841,3,3,9,1.5873602666977278
basic,54,4,0,0,0,22,"[0, 28, 11, 25, 14, 16, 21, 22]",8,3,"[5, 17, 20]",54.34193237,7794,2400,3,0,9,1.5483300526954302
basic,54,4,0,0,1,20,"[0, 28, 11, 25, 14, 16, 21, 22, 20]",9,0,[],24.10949946,8386,592,1,0,9,1.5098543030434866
basic,54,4,0,1,1,20,"[0, 28, 11, 25, 14, 16, 21, 22, 20]",9,0,[],24.10949946,9062,676,1,0,9,1.5098543030434866
basic,55,29,0,0,0,0,[0],1,29,"[1, 2, 3, 4, 5, 6, 7, 8, 9, 10, 11, 12, 13, 14, 15, 16, 17, 18, 19, 20, 21, 22, 23, 24, 25, 26, 27, 28, 29]",300,166,-1,1,78,9,0.0
basic,55,29,0,0,0,6,"[0, 6]",2,28,"[1, 2, 3, 4, 5, 7, 8, 9, 10, 11, 12, 13, 14, 15, 16, 17, 18, 19, 20, 21, 22, 23, 24, 25, 26, 27, 28, 29]",228.4108947,2724,2558,1,25,9,1.0
basic,55,29,0,0,0,28,"[0, 6, 28]",3,24,"[1, 3, 4, 5, 7, 9, 10, 11, 12, 13, 14, 15, 16, 17, 18, 20, 21, 22, 23, 24, 25, 26, 27, 29]",187.1798384,3372,648,1,22,9,1.162106788166845
basic,55,29,0,0,0,27,"[0, 6, 28, 27]",4,19,"[1, 3, 4, 5, 7, 9, 10, 11, 12, 13, 14, 15, 16, 21, 22, 23, 25, 26, 29]",166.6615539,3797,425,1,21,9,1.2307173895439045
basic,55,29,0,0,0,22,"[0, 6, 28, 27, 22]",5,13,"[1, 3, 4, 5, 7, 9, 12, 13, 14, 15, 21, 26, 29]",133.4200136,4349,552,1,19,9,1.4241767805149903
basic,55,29,0,0,0,12,"[0, 6, 28, 27, 22, 12]",6,8,"[4, 5, 7, 9, 13, 14, 21, 26]",95.4726817,5677,1328,1,6,9,1.3248355326460857
basic,55,29,0,0,0,7,"[0, 6, 28, 27, 22, 12, 7]",7,4,"[4, 5, 9, 21]",81.87121119,6104,427,1,3,9,1.3264091962339806
basic,55,29,0,0,0,9,"[0, 6, 28, 27, 22, 12, 7, 9]",8,1,[4],52.80232748,6704,600,1,0,9,1.309391257644539
basic,55,29,0,0,1,4,"[0, 6, 28, 27, 22, 12, 7, 9, 4]",9,0,[],11.76575843,7396,692,1,0,9,1.6396807789841599
basic,55,29,0,1,1,4,"[0, 6, 28, 27, 22, 12, 7, 9, 4]",9,0,[],11.76575843,7832,436,1,0,9,1.6396807789841599
basic,56,24,0,0,0,0,[0],1,29,"[1, 2, 3, 4, 5, 6, 7, 8, 9, 10, 11, 12, 13, 14, 15, 16, 17, 18, 19, 20, 21, 22, 23, 24, 25, 26, 27, 28, 29]",300,148,-1,4,76,10,0.0
basic,56,24,0,0,0,16,"[0, 16]",2,28,"[1, 2, 3, 4, 5, 6, 7, 8, 9, 10, 11, 12, 13, 14, 15, 17, 18, 19, 20, 21, 22, 23, 24, 25, 26, 27, 28, 29]",210.3562607,1612,1464,13,110,9,1.0
basic,56,24,0,0,0,22,"[0, 16, 22]",3,27,"[1, 2, 3, 4, 5, 6, 7, 8, 9, 10, 11, 12, 13, 14, 15, 17, 18, 19, 20, 21, 23, 24, 25, 26, 27, 28, 29]",192.3285043,2254,642,7,54,9,1.0217425143037777
basic,56,24,0,0,0,8,"[0, 16, 22, 8]",4,21,"[1, 2, 3, 4, 6, 9, 10, 11, 13, 14, 15, 17, 20, 21, 23, 24, 25, 26, 27, 28, 29]",178.9120964,2573,319,4,28,9,1.0996636936037951
basic,56,24,0,0,0,15,"[0, 16, 22, 8, 15]",5,16,"[3, 4, 6, 9, 10, 11, 13, 14, 17, 23, 24, 25, 26, 27, 28, 29]",148.025206,3043,470,3,17,9,1.2704773343758617
basic,56,24,0,0,0,28,"[0, 16, 22, 8, 15, 28]",6,8,"[3, 4, 9, 11, 13, 23, 26, 27]",102.7482803,3705,662,3,5,9,1.1981967578189556
basic,56,24,0,0,0,23,"[0, 16, 22, 8, 15, 28, 23]",7,3,"[9, 11, 27]",83.72198273,4163,458,3,1,9,1.2275650852813986
basic,56,24,0,0,0,11,"[0, 16, 22, 8, 15, 28, 23, 11]",8,2,"[9, 27]",56.79615869,4936,773,2,0,9,1.2107937989822568
basic,56,24,0,0,1,27,"[0, 16, 22, 8, 15, 28, 23, 11, 27]",9,0,[],28.99328114,5595,659,1,0,9,1.1865620449755248
basic,56,24,0,1,1,27,"[0, 16, 22, 8, 15, 28, 23, 11, 27]",9,0,[],28.99328114,5980,385,1,0,9,1.1865620449755248
basic,57,43,0,0,0,0,[0],1,23,"[1, 2, 3, 4, 5, 6, 7, 9, 10, 11, 12, 14, 15, 16, 17, 19, 20, 21, 22, 23, 25, 27, 29]",300,180,-1,16,556,12,0.0
basic,57,43,0,0,0,29,"[0, 29]",2,22,"[1, 2, 3, 4, 5, 6, 7, 9, 10, 11, 12, 14, 15, 16, 17, 19, 20, 21, 22, 23, 25, 27]",277.909278,1275,1095,16,520,12,1.0
basic,57,43,0,0,0,20,"[0, 29, 20]",3,20,"[1, 2, 3, 4, 6, 7, 9, 10, 11, 12, 14, 15, 16, 17, 19, 21, 22, 23, 25, 27]",254.4785289,1824,549,15,422,12,1.082311746871282
basic,57,43,0,0,0,16,"[0, 29, 20, 16]",4,19,"[1, 2, 3, 4, 6, 7, 9, 10, 11, 12, 14, 15, 17, 19, 21, 22, 23, 25, 27]",231.8511119,2352,528,15,389,12,1.215201926898219
basic,57,43,0,0,0,11,"[0, 29, 20, 16, 11]",5,17,"[1, 2, 3, 4, 6, 7, 9, 10, 12, 14, 15, 17, 19, 21, 22, 23, 25]",196.7227758,2988,636,12,188,12,1.1349145516483516
basic,57,43,0,0,0,6,"[0, 29, 20, 16, 11, 6]",6,15,"[1, 2, 3, 4, 7, 10, 12, 14, 15, 17, 19, 21, 22, 23, 25]",176.1072477,3554,566,10,100,12,1.123330873754209
basic,57,43,0,0,0,15,"[0, 29, 20, 16, 11, 6, 15]",7,8,"[1, 3, 7, 12, 14, 19, 22, 25]",110.5023698,5059,1505,9,30,11,2.2919374245170157
basic,57,43,0,0,0,25,"[0, 29, 20, 16, 11, 6, 15, 25]",8,4,"[3, 12, 19, 22]",87.83080171,5919,860,3,5,11,2.675204662186071
basic,57,43,0,0,0,12,"[0, 29, 20, 16, 11, 6, 15, 25, 12]",9,3,"[3, 19, 22]",63.64402846,6388,469,3,1,11,2.3908516524722874
basic,57,43,0,0,0,3,"[0, 29, 20, 16, 11, 6, 15, 25, 12, 3]",10,2,"[19, 22]",50.64402846,6745,357,2,0,11,2.238380338211026
basic,57,43,0,0,1,22,"[0, 29, 20, 16, 11, 6, 15, 25, 12, 3, 22]",11,0,[],15.93091855,7452,707,1,0,11,2.381759079301382
basic,57,43,0,1,1,22,"[0, 29, 20, 16, 11, 6, 15, 25, 12, 3, 22]",11,0,[],15.93091855,7961,509,1,0,11,2.381759079301382
basic,58,35,0,0,0,0,[0],1,29,"[1, 2, 3, 4, 5, 6, 7, 8, 9, 10, 11, 12, 13, 14, 15, 16, 17, 18, 19, 20, 21, 22, 23, 24, 25, 26, 27, 28, 29]",300,168,-1,5,236,11,0.0
basic,58,35,0,0,0,24,"[0, 24]",2,27,"[1, 2, 4, 5, 6, 7, 8, 9, 10, 11, 12, 13, 14, 15, 16, 17, 18, 19, 20, 21, 22, 23, 25, 26, 27, 28, 29]",268.9838752,1188,1020,49,512,10,1.0
basic,58,35,0,0,0,17,"[0, 24, 17]",3,26,"[1, 2, 4, 5, 6, 7, 8, 9, 10, 11, 12, 13, 14, 15, 16, 18, 19, 20, 21, 22, 23, 25, 26, 27, 28, 29]",257.2791753,1554,366,33,238,10,1.0771477201815276
basic,58,35,0,0,0,1,"[0, 24, 17, 1]",4,25,"[2, 4, 5, 6, 7, 8, 9, 10, 11, 12, 13, 14, 15, 16, 18, 19, 20, 21, 22, 23, 25, 26, 27, 28, 29]",241.4677869,1951,397,26,151,10,1.2244804141479215
basic,58,35,0,0,0,15,"[0, 24, 17, 1, 15]",5,23,"[2, 4, 5, 6, 7, 8, 9, 10, 11, 12, 14, 16, 18, 19, 20, 21, 22, 23, 25, 26, 27, 28, 29]",218.6204676,2759,808,26,78,10,1.4642196672428094
basic,58,35,0,0,0,23,"[0, 24, 17, 1, 15, 23]",6,11,"[4, 5, 6, 9, 18, 19, 25, 26, 27, 28, 29]",158.1804147,3495,736,15,12,10,1.3338903684702363
basic,58,35,0,0,0,9,"[0, 24, 17, 1, 15, 23, 9]",7,6,"[5, 6, 18, 19, 25, 27]",120.5373542,4064,569,6,1,10,1.5964380615155294
basic,58,35,0,0,0,18,"[0, 24, 17, 1, 15, 23, 9, 18]",8,3,"[5, 6, 25]",100.5123698,4454,390,2,1,10,1.5508488101942703
basic,58,35,0,0,0,25,"[0, 24, 17, 1, 15, 23, 9, 18, 25]",9,1,[6],66.67452121,5191,737,1,0,10,1.4408023801578587
basic,58,35,0,0,1,6,"[0, 24, 17, 1, 15, 23, 9, 18, 25, 6]",10,0,[],42.65369691,5710,519,1,0,10,1.701781671832088
basic,58,35,0,1,1,6,"[0, 24, 17, 1, 15, 23, 9, 18, 25, 6]",10,0,[],42.65369691,6097,387,1,0,10,1.701781671832088
basic,59,9,0,0,0,0,[0],1,27,"[1, 3, 4, 5, 6, 7, 8, 9, 10, 11, 13, 14, 15, 16, 17, 18, 19, 20, 21, 22, 23, 24, 25, 26, 27, 28, 29]",300,147,-1,2,182,10,0.0
basic,59,9,0,0,0,8,"[0, 8]",2,25,"[1, 3, 4, 5, 6, 7, 9, 10, 11, 13, 14, 15, 16, 17, 18, 19, 20, 21, 22, 23, 24, 25, 26, 27, 28]",236.2191251,2107,1960,2,102,9,1.0
basic,59,9,0,0,0,28,"[0, 8, 28]",3,23,"[1, 3, 4, 5, 6, 7, 9, 10, 11, 13, 15, 16, 17, 18, 19, 20, 21, 22, 23, 24, 25, 26, 27]",225.4024713,2521,414,2,52,9,1.0043219354187498
basic,59,9,0,0,0,23,"[0, 8, 28, 23]",4,21,"[1, 3, 4, 5, 7, 9, 10, 11, 13, 15, 16, 17, 18, 19, 20, 21, 22, 24, 25, 26, 27]",200.3824793,2993,472,19,104,8,1.6731219967216804
basic,59,9,0,0,0,9,"[0, 8, 28, 23, 9]",5,19,"[1, 3, 4, 5, 7, 10, 11, 13, 15, 16, 18, 19, 20, 21, 22, 24, 25, 26, 27]",178.0217995,3538,545,12,35,8,1.6380661913087589
basic,59,9,0,0,0,26,"[0, 8, 28, 23, 9, 26]",6,9,"[3, 5, 10, 15, 16, 18, 19, 20, 21]",121.3737634,4354,816,3,6,8,1.529011463409394
basic,59,9,0,0,0,18,"[0, 8, 28, 23, 9, 26, 18]",7,1,[19],60.49683834,5939,1585,1,0,8,1.3743231272597587
basic,59,9,0,1,0,18,"[0, 8, 28, 23, 9, 26, 18]",7,1,[19],60.49683834,7812,1873,1,0,8,1.3743231272597587
basic,60,11,0,0,0,0,[0],1,25,"[1, 2, 3, 4, 5, 6, 8, 9, 10, 11, 12, 13, 14, 15, 16, 17, 18, 19, 20, 22, 23, 25, 26, 27, 28]",300,164,-1,6,374,12,0.0
basic,60,11,0,0,0,27,"[0, 27]",2,21,"[1, 2, 4, 5, 6, 8, 9, 11, 12, 13, 14, 15, 16, 17, 18, 19, 20, 22, 23, 25, 28]",217.9939027,1787,1623,276,2000,10,1.0
basic,60,11,0,0,0,17,"[0, 27, 17]",3,15,"[1, 2, 4, 5, 6, 8, 11, 12, 15, 18, 19, 22, 23, 25, 28]",140.91602,3204,1417,82,451,10,1.0816284715013953
basic,60,11,0,0,0,8,"[0, 27, 17, 8]",4,13,"[1, 2, 4, 5, 6, 11, 12, 15, 18, 19, 22, 25, 28]",126.5981989,3902,698,40,179,10,1.1941717730735368
basic,60,11,0,0,0,15,"[0, 27, 17, 8, 15]",5,10,"[2, 5, 6, 11, 12, 18, 19, 22, 25, 28]",113.1445749,5061,1159,33,59,10,1.1911530098609295
basic,60,11,0,0,0,11,"[0, 27, 17, 8, 15, 11]",6,7,"[2, 5, 6, 12, 19, 22, 28]",95.03380459,5457,396,24,0,10,1.1822699434643233
basic,60,11,0,0,0,28,"[0, 27, 17, 8, 15, 11, 28]",7,3,"[2, 5, 22]",75.61731675,6026,569,6,0,10,1.298485676789349
basic,60,11,0,0,0,5,"[0, 27, 17, 8, 15, 11, 28, 5]",8,2,"[2, 22]",57.72877293,7075,1049,2,0,10,1.4891315737471853
basic,60,11,0,0,0,2,"[0, 27, 17, 8, 15, 11, 28, 5, 2]",9,1,[22],40.72877293,7553,478,1,0,10,1.4525967533063762
basic,60,11,0,0,1,22,"[0, 27, 17, 8, 15, 11, 28, 5, 2, 22]",10,0,[],30.67889731,7925,372,1,0,10,1.4285028943538445
basic,60,11,0,1,1,22,"[0, 27, 17, 8, 15, 11, 28, 5, 2, 22]",10,0,[],30.67889731,8595,670,1,0,10,1.4285028943538445
basic,61,37,0,0,0,0,[0],1,29,"[1, 2, 3, 4, 5, 6, 7, 8, 9, 10, 11, 12, 13, 14, 15, 16, 17, 18, 19, 20, 21, 22, 23, 24, 25, 26, 27, 28, 29]",300,154,-1,6,168,10,0.0
basic,61,37,0,0,0,18,"[0, 18]",2,19,"[1, 2, 4, 6, 7, 9, 10, 12, 14, 15, 17, 19, 20, 21, 22, 23, 26, 28, 29]",202.4090168,1423,1269,6,89,10,1.0
basic,61,37,0,0,0,7,"[0, 18, 7]",3,12,"[1, 2, 4, 9, 15, 17, 19, 20, 21, 22, 26, 29]",175.2428614,1808,385,6,53,10,1.0413073512834488
basic,61,37,0,0,0,22,"[0, 18, 7, 22]",4,8,"[1, 2, 4, 15, 19, 20, 21, 26]",125.2428614,2358,550,6,29,10,1.0730792320325544
basic,61,37,0,0,0,2,"[0, 18, 7, 22, 2]",5,7,"[1, 4, 15, 19, 20, 21, 26]",97.58422802,2903,545,2,13,10,1.338975835424605
basic,61,37,0,0,0,4,"[0, 18, 7, 22, 2, 4]",6,5,"[1, 15, 19, 20, 21]",86.18247377,3307,404,2,6,10,1.3155324116512812
basic,61,37,0,0,0,1,"[0, 18, 7, 22, 2, 4, 1]",7,4,"[15, 19, 20, 21]",68.46242863,3652,345,2,4,10,1.4624721991921241
basic,61,37,0,0,0,20,"[0, 18, 7, 22, 2, 4, 1, 20]",8,2,"[15, 21]",34.22794309,4602,950,2,0,10,1.7730355582319604
basic,61,37,0,0,0,15,"[0, 18, 7, 22, 2, 4, 1, 20, 15]",9,1,[21],17.22794309,5023,421,1,0,10,1.6993807632955802
basic,61,37,0,0,1,21,"[0, 18, 7, 22, 2, 4, 1, 20, 15, 21]",10,0,[],2.227943089,5354,331,1,0,10,1.9187156397788774
basic,61,37,0,1,1,21,"[0, 18, 7, 22, 2, 4, 1, 20, 15, 21]",10,0,[],2.227943089,5746,392,1,0,10,1.9187156397788774
basic,62,22,0,0,0,0,[0],1,29,"[1, 2, 3, 4, 5, 6, 7, 8, 9, 10, 11, 12, 13, 14, 15, 16, 17, 18, 19, 20, 21, 22, 23, 24, 25, 26, 27, 28, 29]",300,148,-1,31,704,9,0.0
basic,62,22,0,0,0,29,"[0, 29]",2,22,"[1, 3, 5, 6, 7, 8, 9, 11, 13, 14, 15, 16, 17, 19, 20, 21, 22, 23, 24, 25, 27, 28]",222.9935068,1087,939,11,235,9,1.0
basic,62,22,0,0,0,19,"[0, 29, 19]",3,18,"[1, 3, 6, 7, 8, 9, 13, 14, 15, 16, 17, 20, 21, 22, 23, 24, 25, 28]",207.9602104,1681,594,11,172,9,1.1559285443414686
basic,62,22,0,0,0,9,"[0, 29, 19, 9]",4,16,"[1, 3, 6, 7, 8, 13, 14, 15, 16, 17, 20, 21, 22, 24, 25, 28]",187.5641323,2178,497,7,84,9,1.2555028175473422
basic,62,22,0,0,0,6,"[0, 29, 19, 9, 6]",5,13,"[3, 7, 13, 14, 15, 16, 17, 20, 21, 22, 24, 25, 28]",160.9370784,2698,520,17,16,8,1.5692551066355458
basic,62,22,0,0,0,28,"[0, 29, 19, 9, 6, 28]",6,5,"[7, 14, 16, 17, 22]",130.9370784,3453,755,5,2,8,1.5285578577513508
basic,62,22,0,0,0,16,"[0, 29, 19, 9, 6, 28, 16]",7,1,[22],96.49872771,4017,564,1,0,8,2.5001967567448653
basic,62,22,0,0,1,22,"[0, 29, 19, 9, 6, 28, 16, 22]",8,0,[],8.039697643,4976,959,1,0,8,2.084367549440744
basic,62,22,0,1,1,22,"[0, 29, 19, 9, 6, 28, 16, 22]",8,0,[],8.039697643,5314,338,1,0,8,2.084367549440744
basic,63,2,0,0,0,0,[0],1,23,"[1, 2, 4, 5, 6, 7, 8, 9, 12, 13, 15, 16, 17, 18, 19, 20, 22, 23, 25, 26, 27, 28, 29]",300,146,-1,70,620,10,0.0
basic,63,2,0,0,0,19,"[0, 19]",2,22,"[1, 2, 4, 5, 6, 7, 8, 9, 12, 13, 15, 16, 17, 18, 20, 22, 23, 25, 26, 27, 28, 29]",210.306076,1253,1107,67,431,10,1.0
basic,63,2,0,0,0,12,"[0, 19, 12]",3,17,"[1, 4, 5, 6, 7, 13, 15, 16, 17, 18, 20, 22, 25, 26, 27, 28, 29]",174.2921898,1907,654,66,298,10,1.1107635036313153
basic,63,2,0,0,0,5,"[0, 19, 12, 5]",4,11,"[1, 6, 7, 13, 15, 16, 18, 22, 25, 26, 29]",144.7625437,2589,682,38,136,10,1.0968174771581647
basic,63,2,0,0,0,22,"[0, 19, 12, 5, 22]",5,8,"[1, 6, 7, 13, 15, 18, 26, 29]",131.9562952,2875,286,20,63,10,1.0889910507461968
basic,63,2,0,0,0,13,"[0, 19, 12, 5, 22, 13]",6,7,"[1, 6, 7, 15, 18, 26, 29]",117.0902265,3301,426,19,20,10,1.236526217328057
basic,63,2,0,0,0,18,"[0, 19, 12, 5, 22, 13, 18]",7,4,"[7, 15, 26, 29]",81.91921567,3891,590,10,3,10,1.2128708213409936
basic,63,2,0,0,0,7,"[0, 19, 12, 5, 22, 13, 18, 7]",8,3,"[15, 26, 29]",71.62358553,4185,294,5,0,10,1.2019811287894737
basic,63,2,0,0,0,15,"[0, 19, 12, 5, 22, 13, 18, 7, 15]",9,2,"[26, 29]",56.85876247,4634,449,2,0,10,1.2907869828541363
basic,63,2,0,0,1,29,"[0, 19, 12, 5, 22, 13, 18, 7, 15, 29]",10,0,[],28.39826353,5345,711,1,0,10,1.4795089334237532
basic,63,2,0,1,1,29,"[0, 19, 12, 5, 22, 13, 18, 7, 15, 29]",10,0,[],28.39826353,6294,949,1,0,10,1.4795089334237532
basic,64,7,0,0,0,0,[0],1,29,"[1, 2, 3, 4, 5, 6, 7, 8, 9, 10, 11, 12, 13, 14, 15, 16, 17, 18, 19, 20, 21, 22, 23, 24, 25, 26, 27, 28, 29]",300,146,-1,3,79,9,0.0
basic,64,7,0,0,0,25,"[0, 25]",2,20,"[2, 3, 4, 5, 6, 7, 10, 13, 14, 15, 16, 18, 19, 20, 21, 22, 23, 24, 27, 28]",181.5939191,1502,1356,5,33,8,1.0
basic,64,7,0,0,0,4,"[0, 25, 4]",3,11,"[2, 6, 7, 13, 15, 16, 18, 19, 20, 21, 23]",156.8552853,1910,408,2,14,8,1.0193465608331511
basic,64,7,0,0,0,20,"[0, 25, 4, 20]",4,8,"[2, 6, 7, 13, 15, 16, 18, 19]",137.2084026,2326,416,1,9,8,1.085904909082323
basic,64,7,0,0,0,18,"[0, 25, 4, 20, 18]",5,7,"[2, 6, 7, 13, 15, 16, 19]",124.4021541,2655,329,1,5,8,1.2264883846453758
basic,64,7,0,0,0,7,"[0, 25, 4, 20, 18, 7]",6,2,"[2, 19]",83.17109789,3550,895,1,1,8,1.185264473968278
basic,64,7,0,0,0,19,"[0, 25, 4, 20, 18, 7, 19]",7,1,[2],53.76021555,4040,490,1,0,8,1.3016904288278204
basic,64,7,0,0,1,2,"[0, 25, 4, 20, 18, 7, 19, 2]",8,0,[],23.61058868,4485,445,1,0,8,1.3168868000947171
basic,64,7,0,1,1,2,"[0, 25, 4, 20, 18, 7, 19, 2]",8,0,[],23.61058868,4879,394,1,0,8,1.3168868000947171
basic,65,32,0,0,0,0,[0],1,29,"[1, 2, 3, 4, 5, 6, 7, 8, 9, 10, 11, 12, 13, 14, 15, 16, 17, 18, 19, 20, 21, 22, 23, 24, 25, 26, 27, 28, 29]",300,148,-1,17,359,10,0.0
basic,65,32,0,0,0,19,"[0, 19]",2,28,"[1, 2, 3, 4, 5, 6, 7, 8, 9, 10, 11, 12, 13, 14, 15, 16, 17, 18, 20, 21, 22, 23, 24, 25, 26, 27, 28, 29]",283.5075775,1159,1011,16,294,10,1.0
basic,65,32,0,0,0,13,"[0, 19, 13]",3,24,"[2, 3, 4, 5, 6, 8, 9, 10, 11, 12, 14, 15, 16, 17, 18, 20, 21, 22, 23, 24, 25, 26, 27, 28]",260.3127505,1615,456,14,227,10,1.0172874229878615
basic,65,32,0,0,0,15,"[0, 19, 13, 15]",4,18,"[2, 3, 5, 8, 9, 10, 11, 12, 16, 17, 20, 22, 23, 24, 25, 26, 27, 28]",177.4393531,2404,789,9,116,10,1.435447391509833
basic,65,32,0,0,0,28,"[0, 19, 13, 15, 28]",5,17,"[2, 3, 5, 8, 9, 10, 11, 12, 16, 17, 20, 22, 23, 24, 25, 26, 27]",166.0375988,2744,340,9,70,10,1.3843701324937985
basic,65,32,0,0,0,16,"[0, 19, 13, 15, 28, 16]",6,14,"[2, 3, 5, 8, 9, 10, 11, 12, 17, 20, 22, 24, 26, 27]",134.0219776,3553,809,3,22,10,1.4134622039936937
basic,65,32,0,0,0,12,"[0, 19, 13, 15, 28, 16, 12]",7,10,"[2, 3, 5, 8, 9, 11, 17, 20, 22, 27]",118.3695018,4135,582,3,12,10,1.6132350863104477
basic,65,32,0,0,0,22,"[0, 19, 13, 15, 28, 16, 12, 22]",8,6,"[2, 8, 9, 17, 20, 27]",88.83985567,4612,477,3,5,10,1.4953724432077236
basic,65,32,0,0,0,9,"[0, 19, 13, 15, 28, 16, 12, 22, 9]",9,3,"[2, 8, 20]",66.63625236,5187,575,3,0,10,1.5414044555780373
basic,65,32,0,0,1,8,"[0, 19, 13, 15, 28, 16, 12, 22, 9, 8]",10,0,[],21.51419566,5786,599,1,0,10,1.421345511967712
basic,65,32,0,1,1,8,"[0, 19, 13, 15, 28, 16, 12, 22, 9, 8]",10,0,[],21.51419566,6080,294,1,0,10,1.421345511967712
basic,66,27,0,0,0,0,[0],1,26,"[1, 3, 5, 6, 7, 8, 9, 10, 11, 12, 13, 14, 15, 16, 17, 18, 19, 21, 22, 23, 24, 25, 26, 27, 28, 29]",300,146,-1,13,578,11,0.0
basic,66,27,0,0,0,15,"[0, 15]",2,24,"[1, 3, 5, 6, 7, 8, 9, 10, 11, 12, 13, 14, 16, 17, 18, 19, 21, 22, 23, 24, 25, 26, 27, 29]",263.7508621,1194,1048,6,219,11,1.0
basic,66,27,0,0,0,24,"[0, 15, 24]",3,20,"[1, 5, 6, 7, 8, 9, 10, 12, 13, 14, 16, 17, 18, 19, 21, 23, 25, 26, 27, 29]",246.5462115,1734,540,6,130,11,1.130933077698322
basic,66,27,0,0,0,17,"[0, 15, 24, 17]",4,15,"[1, 6, 8, 10, 12, 13, 14, 16, 18, 19, 23, 25, 26, 27, 29]",229.9932662,2591,857,4,60,11,1.1285538435963374
basic,66,27,0,0,0,12,"[0, 15, 24, 17, 12]",5,14,"[1, 6, 8, 10, 13, 14, 16, 18, 19, 23, 25, 26, 27, 29]",218.8129263,2935,344,2,32,11,1.2561880288755216
basic,66,27,0,0,0,10,"[0, 15, 24, 17, 12, 10]",6,11,"[1, 8, 13, 14, 18, 19, 23, 25, 26, 27, 29]",207.7675653,3636,701,2,28,11,1.2228289337766665
basic,66,27,0,0,0,13,"[0, 15, 24, 17, 12, 10, 13]",7,9,"[1, 8, 14, 18, 19, 23, 26, 27, 29]",167.9178476,4154,518,2,18,11,1.3421291994761178
basic,66,27,0,0,0,19,"[0, 15, 24, 17, 12, 10, 13, 19]",8,5,"[1, 8, 14, 23, 29]",131.6825057,4767,613,2,6,11,1.294749956153846
basic,66,27,0,0,0,8,"[0, 15, 24, 17, 12, 10, 13, 19, 8]",9,3,"[14, 23, 29]",116.816437,5152,385,2,1,11,1.3554286578836865
basic,66,27,0,0,0,29,"[0, 15, 24, 17, 12, 10, 13, 19, 8, 29]",10,1,[14],57.61339652,6226,1074,1,0,11,1.248354519573802
basic,66,27,0,0,1,14,"[0, 15, 24, 17, 12, 10, 13, 19, 8, 29, 14]",11,0,[],13.31892734,6869,643,1,0,11,1.562811097555156
basic,66,27,0,1,1,14,"[0, 15, 24, 17, 12, 10, 13, 19, 8, 29, 14]",11,0,[],13.31892734,7211,342,1,0,11,1.562811097555156
basic,67,44,0,0,0,0,[0],1,29,"[1, 2, 3, 4, 5, 6, 7, 8, 9, 10, 11, 12, 13, 14, 15, 16, 17, 18, 19, 20, 21, 22, 23, 24, 25, 26, 27, 28, 29]",300,163,-1,13,126,7,0.0
basic,67,44,0,0,0,11,"[0, 11]",2,18,"[4, 5, 6, 7, 8, 9, 12, 14, 16, 17, 19, 20, 22, 23, 24, 25, 26, 28]",152.7790776,3862,3699,5,34,7,1.0
basic,67,44,0,0,0,24,"[0, 11, 24]",3,13,"[4, 5, 7, 8, 9, 12, 14, 17, 20, 22, 23, 25, 28]",125.8532535,4420,558,5,23,7,1.1588941745226709
basic,67,44,0,0,0,9,"[0, 11, 24, 9]",4,7,"[4, 7, 8, 12, 14, 20, 23]",93.09657483,4934,514,2,8,7,1.3039383713641313
basic,67,44,0,0,0,4,"[0, 11, 24, 9, 4]",5,5,"[7, 12, 14, 20, 23]",73.39885923,5453,519,2,3,7,1.2901330701441578
basic,67,44,0,0,0,7,"[0, 11, 24, 9, 4, 7]",6,1,[23],42.38273439,5907,454,1,0,7,1.2468141312360979
basic,67,44,0,0,1,23,"[0, 11, 24, 9, 4, 7, 23]",7,0,[],23.27776121,6427,520,1,0,7,1.2635191782769477
basic,67,44,0,1,1,23,"[0, 11, 24, 9, 4, 7, 23]",7,0,[],23.27776121,7094,667,1,0,7,1.2635191782769477
basic,68,42,0,0,0,0,[0],1,29,"[1, 2, 3, 4, 5, 6, 7, 8, 9, 10, 11, 12, 13, 14, 15, 16, 17, 18, 19, 20, 21, 22, 23, 24, 25, 26, 27, 28, 29]",300,152,-1,16,302,9,0.0
basic,68,42,0,0,0,4,"[0, 4]",2,28,"[1, 2, 3, 5, 6, 7, 8, 9, 10, 11, 12, 13, 14, 15, 16, 17, 18, 19, 20, 21, 22, 23, 24, 25, 26, 27, 28, 29]",209.5290102,1493,1341,4,80,9,1.0
basic,68,42,0,0,0,22,"[0, 4, 22]",3,24,"[1, 2, 3, 5, 6, 7, 8, 9, 10, 11, 13, 15, 17, 18, 19, 20, 21, 23, 24, 25, 26, 27, 28, 29]",198.3486703,1937,444,3,53,9,1.1473032812120834
basic,68,42,0,0,0,8,"[0, 4, 22, 8]",4,21,"[1, 2, 3, 5, 6, 7, 10, 11, 15, 17, 18, 19, 20, 21, 23, 24, 25, 26, 27, 28, 29]",176.2127267,2363,426,2,36,9,1.1513227322639639
basic,68,42,0,0,0,1,"[0, 4, 22, 8, 1]",5,12,"[2, 5, 6, 7, 10, 15, 18, 19, 24, 26, 27, 28]",127.1209758,2961,598,2,24,9,1.1101621876186907
basic,68,42,0,0,0,7,"[0, 4, 22, 8, 1, 7]",6,5,"[2, 19, 26, 27, 28]",97.12097583,3555,594,2,10,9,1.1711274205343067
basic,68,42,0,0,0,26,"[0, 4, 22, 8, 1, 7, 26]",7,3,"[2, 19, 27]",70.55031532,4071,516,2,1,9,1.1588367913131314
basic,68,42,0,0,0,27,"[0, 4, 22, 8, 1, 7, 26, 27]",8,1,[19],52.52255894,4507,436,1,0,9,1.160587570992885
basic,68,42,0,0,1,19,"[0, 4, 22, 8, 1, 7, 26, 27, 19]",9,0,[],11.51036563,5041,534,1,0,9,1.3341568614108437
basic,68,42,0,1,1,19,"[0, 4, 22, 8, 1, 7, 26, 27, 19]",9,0,[],11.51036563,5714,673,1,0,9,1.3341568614108437
undo,69,22,0,0,0,0,[0],1,29,"[1, 2, 3, 4, 5, 6, 7, 8, 9, 10, 11, 12, 13, 14, 15, 16, 17, 18, 19, 20, 21, 22, 23, 24, 25, 26, 27, 28, 29]",300,170,-1,31,704,9,0.0
undo,69,22,0,0,0,6,"[0, 6]",2,19,"[1, 3, 7, 8, 9, 11, 13, 14, 15, 16, 17, 19, 20, 21, 22, 24, 25, 28, 29]",211.3828459,3522,3352,1,73,9,1.0
undo,69,22,0,0,0,9,"[0, 6, 9]",3,17,"[1, 3, 7, 8, 13, 14, 15, 16, 17, 19, 20, 21, 22, 24, 25, 28, 29]",184.755792,3990,468,1,39,9,1.2868618423088127
undo,69,22,0,0,0,14,"[0, 6, 9, 14]",4,12,"[1, 3, 7, 13, 16, 17, 19, 20, 21, 24, 28, 29]",141.7093055,5238,1248,4,31,8,1.2219303894752838
undo,69,22,0,0,0,7,"[0, 6, 9, 14, 7]",5,11,"[1, 3, 13, 16, 17, 19, 20, 21, 24, 28, 29]",128.6709007,6637,1399,4,20,8,1.3622884497247556
undo,69,22,0,0,0,24,"[0, 6, 9, 14, 7, 24]",6,4,"[3, 17, 20, 21]",61.64105658,7336,699,1,3,8,1.777017605128358
undo,69,22,0,0,0,21,"[0, 6, 9, 14, 7, 24, 21]",7,1,[3],34.43811557,7756,420,1,0,8,1.6463118174831908
undo,69,22,0,0,1,3,"[0, 6, 9, 14, 7, 24, 21, 3]",8,0,[],9.418123559,8336,580,1,0,8,1.7051212364811024
undo,69,22,0,1,1,3,"[0, 6, 9, 14, 7, 24, 21, 3]",8,0,[],9.418123559,8730,394,1,0,8,1.7051212364811024
undo,70,13,0,0,0,0,[0],1,29,"[1, 2, 3, 4, 5, 6, 7, 8, 9, 10, 11, 12, 13, 14, 15, 16, 17, 18, 19, 20, 21, 22, 23, 24, 25, 26, 27, 28, 29]",300,148,-1,60,2676,11,0.0
undo,70,13,0,0,0,24,"[0, 24]",2,28,"[1, 2, 3, 4, 5, 6, 7, 8, 9, 10, 11, 12, 13, 14, 15, 16, 17, 18, 19, 20, 21, 22, 23, 25, 26, 27, 28, 29]",288.8196601,1581,1433,16,1444,11,1.0
undo,70,13,0,0,0,23,"[0, 24, 23]",3,27,"[1, 2, 3, 4, 5, 6, 7, 8, 9, 10, 11, 12, 13, 14, 15, 16, 17, 18, 19, 20, 21, 22, 25, 26, 27, 28, 29]",243.1140806,2495,914,2,868,11,1.0065545717039834
undo,70,13,0,0,0,28,"[0, 24, 23, 28]",4,21,"[1, 2, 3, 4, 6, 7, 9, 10, 11, 12, 13, 15, 16, 17, 19, 20, 21, 22, 26, 27, 29]",177.7458926,3289,794,1,253,11,1.6592183354372274
undo,70,13,0,0,0,2,"[0, 24, 23, 28, 2]",5,15,"[1, 3, 6, 7, 9, 11, 12, 13, 15, 16, 17, 19, 21, 26, 29]",140.1028322,3937,648,1,80,11,1.459046951791535
undo,70,13,0,0,0,29,"[0, 24, 23, 28, 2, 29]",6,9,"[1, 6, 7, 11, 13, 16, 17, 19, 26]",128.3981322,4369,432,1,31,11,1.5417142413159963
undo,70,13,0,0,0,7,"[0, 24, 23, 28, 2, 29, 7]",7,8,"[1, 6, 11, 13, 16, 17, 19, 26]",113.1337947,4840,471,1,10,11,1.77525557938341
undo,70,13,0,0,0,26,"[0, 24, 23, 28, 2, 29, 7, 26]",8,6,"[1, 6, 11, 13, 16, 19]",102.6934882,5256,416,1,4,11,2.0623372568692724
undo,70,13,0,0,0,6,"[0, 24, 23, 28, 2, 29, 7, 26, 6]",9,3,"[11, 13, 16]",82.59373697,6236,980,1,2,11,2.002320377701536
undo,70,13,0,0,0,11,"[0, 24, 23, 28, 2, 29, 7, 26, 6, 11]",10,1,[13],63.48876379,6935,699,1,0,11,1.8540921292495773
undo,70,13,0,0,1,13,"[0, 24, 23, 28, 2, 29, 7, 26, 6, 11, 13]",11,0,[],7.408464223,7712,777,1,0,11,1.6123988786574368
undo,70,13,0,1,1,13,"[0, 24, 23, 28, 2, 29, 7, 26, 6, 11, 13]",11,0,[],7.408464223,8047,335,1,0,11,1.6123988786574368
undo,71,25,0,0,0,0,[0],1,28,"[1, 2, 3, 4, 5, 7, 8, 9, 10, 11, 12, 13, 14, 15, 16, 17, 18, 19, 20, 21, 22, 23, 24, 25, 26, 27, 28, 29]",300,147,-1,5,94,10,0.0
undo,71,25,0,0,0,19,"[0, 19]",2,27,"[1, 2, 3, 4, 5, 7, 8, 9, 10, 11, 12, 13, 14, 15, 16, 17, 18, 20, 21, 22, 23, 24, 25, 26, 27, 28, 29]",251.9479449,2895,2748,2,30,10,1.0
undo,71,25,0,0,0,29,"[0, 19, 29]",3,26,"[1, 2, 3, 4, 5, 7, 8, 9, 10, 11, 12, 13, 14, 15, 16, 17, 18, 20, 21, 22, 23, 24, 25, 26, 27, 28]",235.6691243,3358,463,2,22,10,1.0272252084351727
undo,71,25,0,0,0,22,"[0, 19, 29, 22]",4,24,"[1, 2, 3, 4, 5, 7, 8, 9, 11, 12, 13, 14, 15, 16, 17, 18, 20, 21, 23, 24, 25, 26, 27, 28]",219.5446088,3806,448,2,17,10,1.03988854593305
undo,71,25,0,0,0,7,"[0, 19, 29, 22, 7]",5,10,"[1, 3, 5, 8, 9, 11, 13, 23, 24, 28]",143.9007062,4369,563,2,14,10,1.3318974800137366
undo,71,25,0,0,0,24,"[0, 19, 29, 22, 7, 24]",6,7,"[3, 8, 9, 11, 13, 23, 28]",119.1418694,4968,599,2,9,10,1.2868309735722725
undo,71,25,0,0,0,9,"[0, 19, 29, 22, 7, 24, 9]",7,4,"[3, 8, 13, 28]",101.114113,5430,462,2,7,10,1.2740198715343065
undo,71,25,0,0,0,3,"[0, 19, 29, 22, 7, 24, 9, 3]",8,3,"[8, 13, 28]",70.84862112,6369,939,2,1,10,1.2376259292234586
undo,71,25,0,0,0,28,"[0, 19, 29, 22, 7, 24, 9, 3, 28]",9,1,[13],39.54366943,7153,784,1,0,10,1.203625519961748
undo,71,25,0,0,1,13,"[0, 19, 29, 22, 7, 24, 9, 3, 28, 13]",10,0,[],5.309183897,7757,604,1,0,10,1.4620578920005771
undo,71,25,0,1,1,13,"[0, 19, 29, 22, 7, 24, 9, 3, 28, 13]",10,0,[],5.309183897,8096,339,1,0,10,1.4620578920005771
undo,72,42,0,0,0,0,[0],1,29,"[1, 2, 3, 4, 5, 6, 7, 8, 9, 10, 11, 12, 13, 14, 15, 16, 17, 18, 19, 20, 21, 22, 23, 24, 25, 26, 27, 28, 29]",300,148,-1,16,302,9,0.0
undo,72,42,0,0,0,5,"[0, 5]",2,28,"[1, 2, 3, 4, 6, 7, 8, 9, 10, 11, 12, 13, 14, 15, 16, 17, 18, 19, 20, 21, 22, 23, 24, 25, 26, 27, 28, 29]",191.2939744,4725,4577,1,22,9,1.0
undo,72,42,0,0,0,4,"[0, 5, 4]",3,23,"[1, 2, 3, 6, 7, 8, 9, 10, 11, 13, 15, 17, 18, 19, 20, 21, 22, 23, 24, 25, 26, 27, 29]",171.4445412,5555,830,1,14,9,1.420957801478707
undo,72,42,0,0,0,22,"[0, 5, 4, 22]",4,20,"[1, 2, 3, 6, 7, 8, 9, 11, 15, 17, 18, 19, 20, 21, 23, 24, 25, 26, 27, 29]",160.2642013,6339,784,1,11,9,1.5771494659680896
undo,72,42,0,0,0,8,"[0, 5, 4, 22, 8]",5,14,"[1, 2, 3, 6, 7, 11, 15, 18, 19, 24, 25, 26, 27, 29]",138.1282577,7118,779,1,10,9,1.5055393955524201
undo,72,42,0,0,0,1,"[0, 5, 4, 22, 8, 1]",6,5,"[2, 7, 19, 26, 27]",89.03650682,7820,702,1,7,9,1.3547259083637835
undo,72,42,0,0,0,7,"[0, 5, 4, 22, 8, 1, 7]",7,4,"[2, 19, 26, 27]",59.03650682,8518,698,1,3,9,1.3909715672447451
undo,72,42,0,0,0,26,"[0, 5, 4, 22, 8, 1, 7, 26]",8,1,[27],32.46584631,9291,773,1,0,9,1.3511825943939393
undo,72,42,0,0,1,27,"[0, 5, 4, 22, 8, 1, 7, 26, 27]",9,0,[],14.43808994,10027,736,1,0,9,1.3391911688802078
undo,72,42,0,1,1,27,"[0, 5, 4, 22, 8, 1, 7, 26, 27]",9,0,[],14.43808994,10612,585,1,0,9,1.3391911688802078
undo,73,1,0,0,0,0,[0],1,26,"[1, 2, 4, 5, 7, 8, 9, 10, 11, 12, 13, 14, 15, 16, 17, 18, 19, 20, 21, 22, 23, 24, 25, 26, 28, 29]",300,152,-1,6,74,7,0.0
undo,73,1,0,0,0,8,"[0, 8]",2,23,"[1, 4, 5, 7, 9, 10, 11, 12, 13, 14, 15, 16, 17, 18, 19, 20, 21, 23, 24, 25, 26, 28, 29]",202,2076,1924,1,16,7,1.0
undo,73,1,0,0,0,20,"[0, 8, 20]",3,12,"[1, 4, 5, 11, 13, 14, 15, 17, 18, 19, 28, 29]",125.9408125,2651,575,1,7,7,1.02364736730791
undo,73,1,0,0,0,5,"[0, 8, 20, 5]",4,7,"[1, 4, 11, 13, 17, 18, 29]",104.469902,3077,426,1,3,7,1.0439599203945713
undo,73,1,0,0,0,18,"[0, 8, 20, 5, 18]",5,2,"[4, 29]",81.64447755,3688,611,1,1,7,1.0840407791793756
undo,73,1,0,0,0,4,"[0, 8, 20, 5, 18, 4]",6,1,[29],42.69579336,4220,532,1,0,7,1.0902329133216275
undo,73,1,0,0,1,29,"[0, 8, 20, 5, 18, 4, 29]",7,0,[],6.640280603,4924,704,1,0,7,1.2859729622882756
undo,73,1,0,1,1,29,"[0, 8, 20, 5, 18, 4, 29]",7,0,[],6.640280603,5229,305,1,0,7,1.2859729622882756
undo,74,27,0,0,0,0,[0],1,26,"[1, 3, 5, 6, 7, 8, 9, 10, 11, 12, 13, 14, 15, 16, 17, 18, 19, 21, 22, 23, 24, 25, 26, 27, 28, 29]",300,180,-1,13,578,11,0.0
undo,74,27,0,0,0,15,"[0, 15]",2,24,"[1, 3, 5, 6, 7, 8, 9, 10, 11, 12, 13, 14, 16, 17, 18, 19, 21, 22, 23, 24, 25, 26, 27, 29]",263.7508621,1092,912,6,219,11,1.0
undo,74,27,0,0,0,24,"[0, 15, 24]",3,20,"[1, 5, 6, 7, 8, 9, 10, 12, 13, 14, 16, 17, 18, 19, 21, 23, 25, 26, 27, 29]",246.5462115,1861,769,6,130,11,1.130933077698322
undo,74,27,0,0,0,17,"[0, 15, 24, 17]",4,15,"[1, 6, 8, 10, 12, 13, 14, 16, 18, 19, 23, 25, 26, 27, 29]",229.9932662,2222,361,4,60,11,1.1285538435963374
