condition,trial_id,map_id,undoIndicator,submit,checkEnd,currentChoice,chosen_all,n_city_all,n_within_reach,cities_reach,currentBudget,time_all,rt_all,n_opt_paths_all,n_subopt_paths_all,mas_all,tortuosity_all
undo,0,35,0,0,0,0,[0],1,29,"[1, 2, 3, 4, 5, 6, 7, 8, 9, 10, 11, 12, 13, 14, 15, 16, 17, 18, 19, 20, 21, 22, 23, 24, 25, 26, 27, 28, 29]",300,182,-1,5,236,11,0.0
undo,0,35,0,0,0,24,"[0, 24]",2,27,"[1, 2, 4, 5, 6, 7, 8, 9, 10, 11, 12, 13, 14, 15, 16, 17, 18, 19, 20, 21, 22, 23, 25, 26, 27, 28, 29]",268.9838752,3525,3343,49,512,10,1.0
undo,0,35,0,0,0,17,"[0, 24, 17]",3,26,"[1, 2, 4, 5, 6, 7, 8, 9, 10, 11, 12, 13, 14, 15, 16, 18, 19, 20, 21, 22, 23, 25, 26, 27, 28, 29]",257.2791753,4374,849,33,238,10,1.0771477201815276
undo,0,35,0,0,0,1,"[0, 24, 17, 1]",4,25,"[2, 4, 5, 6, 7, 8, 9, 10, 11, 12, 13, 14, 15, 16, 18, 19, 20, 21, 22, 23, 25, 26, 27, 28, 29]",241.4677869,5474,1100,26,151,10,1.2244804141479215
undo,0,35,0,0,0,15,"[0, 24, 17, 1, 15]",5,23,"[2, 4, 5, 6, 7, 8, 9, 10, 11, 12, 14, 16, 18, 19, 20, 21, 22, 23, 25, 26, 27, 28, 29]",218.6204676,7674,2200,26,78,10,1.4642196672428094
undo,0,35,0,0,0,23,"[0, 24, 17, 1, 15, 23]",6,11,"[4, 5, 6, 9, 18, 19, 25, 26, 27, 28, 29]",158.1804147,10075,2401,15,12,10,1.3338903684702363
undo,0,35,0,0,0,9,"[0, 24, 17, 1, 15, 23, 9]",7,6,"[5, 6, 18, 19, 25, 27]",120.5373542,11369,1294,6,1,10,1.5964380615155294
undo,0,35,0,0,0,18,"[0, 24, 17, 1, 15, 23, 9, 18]",8,3,"[5, 6, 25]",100.5123698,15016,3647,2,1,10,1.5508488101942703
undo,0,35,0,0,0,6,"[0, 24, 17, 1, 15, 23, 9, 18, 6]",9,1,[25],66.89689722,17501,2485,1,0,10,1.541466044761729
undo,0,35,0,0,1,25,"[0, 24, 17, 1, 15, 23, 9, 18, 6, 25]",10,0,[],42.87607292,18986,1485,1,0,10,1.5877595882523792
undo,0,35,0,1,1,25,"[0, 24, 17, 1, 15, 23, 9, 18, 6, 25]",10,0,[],42.87607292,19680,694,1,0,10,1.5877595882523792
undo,1,42,0,0,0,0,[0],1,29,"[1, 2, 3, 4, 5, 6, 7, 8, 9, 10, 11, 12, 13, 14, 15, 16, 17, 18, 19, 20, 21, 22, 23, 24, 25, 26, 27, 28, 29]",300,164,-1,16,302,9,0.0
undo,1,42,0,0,0,5,"[0, 5]",2,28,"[1, 2, 3, 4, 6, 7, 8, 9, 10, 11, 12, 13, 14, 15, 16, 17, 18, 19, 20, 21, 22, 23, 24, 25, 26, 27, 28, 29]",191.2939744,2668,2504,1,22,9,1.0
undo,1,42,0,0,0,4,"[0, 5, 4]",3,23,"[1, 2, 3, 6, 7, 8, 9, 10, 11, 13, 15, 17, 18, 19, 20, 21, 22, 23, 24, 25, 26, 27, 29]",171.4445412,4851,2183,1,14,9,1.420957801478707
undo,1,42,0,0,0,22,"[0, 5, 4, 22]",4,20,"[1, 2, 3, 6, 7, 8, 9, 11, 15, 17, 18, 19, 20, 21, 23, 24, 25, 26, 27, 29]",160.2642013,5629,778,1,11,9,1.5771494659680896
undo,1,42,0,0,0,8,"[0, 5, 4, 22, 8]",5,14,"[1, 2, 3, 6, 7, 11, 15, 18, 19, 24, 25, 26, 27, 29]",138.1282577,6957,1328,1,10,9,1.5055393955524201
undo,1,42,0,0,0,1,"[0, 5, 4, 22, 8, 1]",6,5,"[2, 7, 19, 26, 27]",89.03650682,8171,1214,1,7,9,1.3547259083637835
undo,1,42,0,0,0,7,"[0, 5, 4, 22, 8, 1, 7]",7,4,"[2, 19, 26, 27]",59.03650682,10590,2419,1,3,9,1.3909715672447451
undo,1,42,0,0,0,26,"[0, 5, 4, 22, 8, 1, 7, 26]",8,1,[27],32.46584631,12540,1950,1,0,9,1.3511825943939393
undo,1,42,0,0,1,27,"[0, 5, 4, 22, 8, 1, 7, 26, 27]",9,0,[],14.43808994,13777,1237,1,0,9,1.3391911688802078
undo,1,42,0,1,1,27,"[0, 5, 4, 22, 8, 1, 7, 26, 27]",9,0,[],14.43808994,15428,1651,1,0,9,1.3391911688802078
undo,2,32,0,0,0,0,[0],1,29,"[1, 2, 3, 4, 5, 6, 7, 8, 9, 10, 11, 12, 13, 14, 15, 16, 17, 18, 19, 20, 21, 22, 23, 24, 25, 26, 27, 28, 29]",300,163,-1,17,359,10,0.0
undo,2,32,0,0,0,15,"[0, 15]",2,24,"[2, 3, 4, 5, 6, 7, 8, 9, 10, 11, 12, 13, 14, 16, 17, 19, 20, 22, 23, 24, 25, 26, 27, 28]",214.6185032,2529,2366,11,153,9,1.0
undo,2,32,1,0,0,0,[0],1,29,"[1, 2, 3, 4, 5, 6, 7, 8, 9, 10, 11, 12, 13, 14, 15, 16, 17, 18, 19, 20, 21, 22, 23, 24, 25, 26, 27, 28, 29]",300,4380,1851,17,359,10,0.0
undo,2,32,0,0,0,19,"[0, 19]",2,28,"[1, 2, 3, 4, 5, 6, 7, 8, 9, 10, 11, 12, 13, 14, 15, 16, 17, 18, 20, 21, 22, 23, 24, 25, 26, 27, 28, 29]",283.5075775,5642,1262,16,294,10,1.0
undo,2,32,0,0,0,15,"[0, 19, 15]",3,21,"[2, 3, 5, 7, 8, 9, 10, 11, 12, 13, 14, 16, 17, 20, 22, 23, 24, 25, 26, 27, 28]",197.7987681,7028,1386,2,52,10,1.19699508325577
undo,2,32,0,0,0,28,"[0, 19, 15, 28]",4,19,"[2, 3, 5, 7, 8, 9, 10, 11, 12, 13, 16, 17, 20, 22, 23, 24, 25, 26, 27]",186.3970139,7958,930,2,41,10,1.1739755297768444
undo,2,32,0,0,0,12,"[0, 19, 15, 28, 12]",5,17,"[2, 3, 5, 7, 8, 9, 10, 11, 13, 16, 17, 20, 22, 23, 24, 26, 27]",167.4233479,11504,3546,2,25,10,1.177540715424265
undo,2,32,0,0,0,16,"[0, 19, 15, 28, 12, 16]",6,16,"[2, 3, 5, 7, 8, 9, 10, 11, 13, 17, 20, 22, 23, 24, 26, 27]",151.7708721,12955,1451,2,17,10,1.2623133279216439
undo,2,32,0,0,0,22,"[0, 19, 15, 28, 12, 16, 22]",7,10,"[2, 3, 5, 8, 9, 10, 11, 17, 20, 27]",117.9330235,14590,1635,2,7,10,1.2893434049314008
undo,2,32,0,0,0,9,"[0, 19, 15, 28, 12, 16, 22, 9]",8,4,"[2, 8, 17, 20]",95.72942015,16000,1410,2,2,10,1.3492394817468627
undo,2,32,0,0,0,2,"[0, 19, 15, 28, 12, 16, 22, 9, 2]",9,1,[17],44.64126105,20107,4107,1,0,10,1.760592394779365
undo,2,32,0,0,1,17,"[0, 19, 15, 28, 12, 16, 22, 9, 2, 17]",10,0,[],4.829202579,21639,1532,1,0,10,2.6120286725511583
undo,2,32,0,1,1,17,"[0, 19, 15, 28, 12, 16, 22, 9, 2, 17]",10,0,[],4.829202579,22544,905,1,0,10,2.6120286725511583
undo,3,26,0,0,0,0,[0],1,29,"[1, 2, 3, 4, 5, 6, 7, 8, 9, 10, 11, 12, 13, 14, 15, 16, 17, 18, 19, 20, 21, 22, 23, 24, 25, 26, 27, 28, 29]",300,162,-1,9,226,9,0.0
undo,3,26,0,0,0,4,"[0, 4]",2,13,"[5, 6, 10, 12, 13, 14, 16, 17, 19, 21, 23, 26, 29]",178.7976898,7392,7230,4,118,8,1.0
undo,3,26,0,0,0,17,"[0, 4, 17]",3,10,"[5, 6, 10, 12, 13, 14, 16, 21, 23, 29]",157.7026667,9253,1861,1,35,8,1.0014732588101924
undo,3,26,0,0,0,6,"[0, 4, 17, 6]",4,6,"[10, 14, 16, 21, 23, 29]",137.5780549,10752,1499,10,11,7,1.011273258075741
undo,3,26,0,0,0,14,"[0, 4, 17, 6, 14]",5,4,"[10, 16, 23, 29]",116.5542588,11581,829,5,2,7,1.1383391147196797
undo,3,26,0,0,0,29,"[0, 4, 17, 6, 14, 29]",6,3,"[10, 16, 23]",75.32320259,12776,1195,3,0,7,1.8387738585921345
undo,3,26,0,0,1,16,"[0, 4, 17, 6, 14, 29, 16]",7,0,[],51.11576571,14521,1745,1,0,7,2.2232443318112174
undo,3,26,1,0,0,29,"[0, 4, 17, 6, 14, 29]",6,3,"[10, 16, 23]",75.32320259,20794,6273,3,0,7,1.8387738585921345
undo,3,26,1,0,0,14,"[0, 4, 17, 6, 14]",5,4,"[10, 16, 23, 29]",116.5542588,21030,236,5,2,7,1.1383391147196797
undo,3,26,1,0,0,6,"[0, 4, 17, 6]",4,6,"[10, 14, 16, 21, 23, 29]",137.5780549,21228,198,10,11,7,1.011273258075741
undo,3,26,1,0,0,17,"[0, 4, 17]",3,10,"[5, 6, 10, 12, 13, 14, 16, 21, 23, 29]",157.7026667,22043,815,1,35,8,1.0014732588101924
undo,3,26,0,0,0,10,"[0, 4, 17, 10]",4,4,"[6, 14, 16, 29]",117.2057532,23678,1635,1,3,8,1.1296300418442562
undo,3,26,0,0,0,6,"[0, 4, 17, 10, 6]",5,3,"[14, 16, 29]",87.93119088,24957,1279,1,2,8,1.320385095763915
undo,3,26,0,0,0,14,"[0, 4, 17, 10, 6, 14]",6,2,"[16, 29]",66.90739484,25821,864,1,1,8,1.4464136810690826
undo,3,26,0,0,0,29,"[0, 4, 17, 10, 6, 14, 29]",7,1,[16],25.67633858,26865,1044,1,0,8,2.2450879807223245
undo,3,26,0,1,0,29,"[0, 4, 17, 10, 6, 14, 29]",7,1,[16],25.67633858,27359,494,1,0,8,2.2450879807223245
undo,4,16,0,0,0,0,[0],1,29,"[1, 2, 3, 4, 5, 6, 7, 8, 9, 10, 11, 12, 13, 14, 15, 16, 17, 18, 19, 20, 21, 22, 23, 24, 25, 26, 27, 28, 29]",300,297,-1,13,161,9,0.0
undo,4,16,0,0,0,28,"[0, 28]",2,27,"[1, 2, 3, 4, 5, 7, 8, 9, 10, 11, 12, 13, 14, 15, 16, 17, 18, 19, 20, 21, 22, 23, 24, 25, 26, 27, 29]",284.3475242,3384,3087,11,92,9,1.0
undo,4,16,0,0,0,16,"[0, 28, 16]",3,26,"[1, 2, 3, 4, 5, 7, 8, 9, 10, 11, 12, 13, 14, 15, 17, 18, 19, 20, 21, 22, 23, 24, 25, 26, 27, 29]",198.8372909,11463,8079,20,64,8,1.2241704578099695
undo,4,16,0,0,0,8,"[0, 28, 16, 8]",4,15,"[2, 3, 4, 5, 9, 12, 13, 14, 15, 17, 19, 20, 21, 25, 29]",150.4637444,12582,1119,10,28,8,1.205584765647267
undo,4,16,1,0,0,16,"[0, 28, 16]",3,26,"[1, 2, 3, 4, 5, 7, 8, 9, 10, 11, 12, 13, 14, 15, 17, 18, 19, 20, 21, 22, 23, 24, 25, 26, 27, 29]",198.8372909,15761,3179,20,64,8,1.2241704578099695
undo,4,16,1,0,0,28,"[0, 28]",2,27,"[1, 2, 3, 4, 5, 7, 8, 9, 10, 11, 12, 13, 14, 15, 16, 17, 18, 19, 20, 21, 22, 23, 24, 25, 26, 27, 29]",284.3475242,16112,351,11,92,9,1.0
undo,4,16,0,0,0,17,"[0, 28, 17]",3,26,"[1, 2, 3, 4, 5, 7, 8, 9, 10, 11, 12, 13, 14, 15, 16, 18, 19, 20, 21, 22, 23, 24, 25, 26, 27, 29]",219.1555001,17253,1141,10,46,9,1.3773866384707543
undo,4,16,0,0,0,21,"[0, 28, 17, 21]",4,17,"[3, 5, 7, 8, 9, 10, 12, 14, 15, 16, 20, 22, 23, 24, 25, 26, 29]",160.8459812,18625,1372,6,13,8,1.6407436163678495
undo,4,16,0,0,0,8,"[0, 28, 17, 21, 8]",5,7,"[5, 9, 12, 15, 16, 20, 25]",111.5915397,20424,1799,6,3,8,1.518978581785071
undo,4,16,0,0,0,20,"[0, 28, 17, 21, 8, 20]",6,2,"[9, 25]",53.81611243,21770,1346,2,0,8,1.36054733373876
undo,4,16,0,0,0,25,"[0, 28, 17, 21, 8, 20, 25]",7,1,[9],41.16700179,22704,934,1,0,8,1.4047729951421268
undo,4,16,0,0,1,9,"[0, 28, 17, 21, 8, 20, 25, 9]",8,0,[],28.36075331,23601,897,1,0,8,1.3785952735764706
undo,4,16,0,1,1,9,"[0, 28, 17, 21, 8, 20, 25, 9]",8,0,[],28.36075331,23943,342,1,0,8,1.3785952735764706
undo,5,40,0,0,0,0,[0],1,29,"[1, 2, 3, 4, 5, 6, 7, 8, 9, 10, 11, 12, 13, 14, 15, 16, 17, 18, 19, 20, 21, 22, 23, 24, 25, 26, 27, 28, 29]",300,162,-1,8,191,9,0.0
undo,5,40,0,0,0,2,"[0, 2]",2,28,"[1, 3, 4, 5, 6, 7, 8, 9, 10, 11, 12, 13, 14, 15, 16, 17, 18, 19, 20, 21, 22, 23, 24, 25, 26, 27, 28, 29]",263.7646581,5704,5542,4,79,9,1.0
undo,5,40,0,0,0,1,"[0, 2, 1]",3,13,"[5, 6, 8, 9, 10, 13, 17, 18, 19, 21, 22, 23, 27]",197.9695215,6923,1219,3,32,9,1.9563451201211088
undo,5,40,0,0,0,6,"[0, 2, 1, 6]",4,10,"[5, 8, 9, 13, 17, 18, 19, 21, 22, 23]",177.8697703,7903,980,3,29,9,1.767962123020631
undo,5,40,0,0,0,9,"[0, 2, 1, 6, 9]",5,6,"[5, 18, 19, 21, 22, 23]",109.2694788,10022,2119,1,5,9,1.5465201700077729
undo,5,40,0,0,0,18,"[0, 2, 1, 6, 9, 18]",6,5,"[5, 19, 21, 22, 23]",92.71653339,10987,965,1,3,9,1.7498663316327165
undo,5,40,0,0,0,5,"[0, 2, 1, 6, 9, 18, 5]",7,2,"[19, 23]",61.14122659,12934,1947,1,1,9,1.9421980158799246
undo,5,40,0,0,0,23,"[0, 2, 1, 6, 9, 18, 5, 23]",8,1,[19],32.83928319,16059,3125,1,0,9,2.816747234870858
undo,5,40,0,0,1,19,"[0, 2, 1, 6, 9, 18, 5, 23, 19]",9,0,[],0.886192572,17557,1498,1,0,9,2.915582996325632
undo,5,40,0,1,1,19,"[0, 2, 1, 6, 9, 18, 5, 23, 19]",9,0,[],0.886192572,17959,402,1,0,9,2.915582996325632
undo,6,3,0,0,0,0,[0],1,29,"[1, 2, 3, 4, 5, 6, 7, 8, 9, 10, 11, 12, 13, 14, 15, 16, 17, 18, 19, 20, 21, 22, 23, 24, 25, 26, 27, 28, 29]",300,163,-1,34,427,10,0.0
undo,6,3,0,0,0,17,"[0, 17]",2,16,"[3, 4, 7, 8, 10, 12, 14, 15, 16, 19, 20, 21, 22, 24, 26, 27]",197.6965299,2974,2811,2,27,9,1.0
undo,6,3,0,0,0,20,"[0, 17, 20]",3,13,"[3, 4, 7, 8, 10, 14, 15, 16, 19, 21, 22, 24, 27]",185.0474192,4976,2002,2,24,9,1.0153332121237257
undo,6,3,0,0,0,3,"[0, 17, 20, 3]",4,10,"[4, 7, 8, 10, 14, 15, 16, 19, 21, 24]",164.6513412,6971,1995,2,22,9,1.0819240770773468
undo,6,3,0,0,0,19,"[0, 17, 20, 3, 19]",5,6,"[4, 8, 10, 14, 21, 24]",127.3150318,8205,1234,2,11,9,1.1701070532957258
undo,6,3,0,0,0,21,"[0, 17, 20, 3, 19, 21]",6,5,"[4, 8, 10, 14, 24]",115.1084762,9021,816,2,6,9,1.202395500952127
undo,6,3,0,0,0,14,"[0, 17, 20, 3, 19, 21, 14]",7,4,"[4, 8, 10, 24]",88.20122806,9871,850,2,2,9,1.6456130302761207
undo,6,3,0,0,0,24,"[0, 17, 20, 3, 19, 21, 14, 24]",8,1,[8],17.08864127,12387,2516,1,0,9,4.806859660680286
undo,6,3,0,0,1,8,"[0, 17, 20, 3, 19, 21, 14, 24, 8]",9,0,[],4.923116212,13408,1021,1,0,9,4.915218144486606
undo,6,3,0,1,1,8,"[0, 17, 20, 3, 19, 21, 14, 24, 8]",9,0,[],4.923116212,13826,418,1,0,9,4.915218144486606
undo,7,37,0,0,0,0,[0],1,29,"[1, 2, 3, 4, 5, 6, 7, 8, 9, 10, 11, 12, 13, 14, 15, 16, 17, 18, 19, 20, 21, 22, 23, 24, 25, 26, 27, 28, 29]",300,164,-1,6,168,10,0.0
undo,7,37,0,0,0,19,"[0, 19]",2,19,"[1, 2, 4, 5, 6, 7, 9, 10, 11, 15, 17, 18, 20, 21, 22, 25, 26, 28, 29]",185.6627795,5833,5669,25,244,9,1.0
undo,7,37,0,0,0,21,"[0, 19, 21]",3,14,"[1, 2, 4, 7, 10, 11, 15, 17, 18, 20, 22, 25, 26, 29]",144.5531699,6701,868,10,75,9,1.001632816594558
undo,7,37,0,0,0,15,"[0, 19, 21, 15]",4,9,"[1, 2, 4, 7, 18, 20, 22, 26, 29]",129.5531699,9043,2342,5,32,9,1.0243376499143988
undo,7,37,0,0,0,20,"[0, 19, 21, 15, 20]",5,8,"[1, 2, 4, 7, 18, 22, 26, 29]",112.5531699,10768,1725,5,14,9,1.250507291508492
undo,7,37,0,0,0,1,"[0, 19, 21, 15, 20, 1]",6,6,"[2, 4, 7, 18, 22, 26]",78.31868434,11936,1168,4,4,9,1.4002166443864243
undo,7,37,0,0,0,2,"[0, 19, 21, 15, 20, 1, 2]",7,4,"[4, 7, 18, 22]",61.11403381,13568,1632,2,2,9,1.5802253600182588
undo,7,37,0,0,0,4,"[0, 19, 21, 15, 20, 1, 2, 4]",8,1,[22],49.71227956,14557,989,1,0,9,1.5399187067712754
undo,7,37,0,0,1,22,"[0, 19, 21, 15, 20, 1, 2, 4, 22]",9,0,[],24.71227956,18047,3490,1,0,9,1.6903775033413582
undo,7,37,0,1,1,22,"[0, 19, 21, 15, 20, 1, 2, 4, 22]",9,0,[],24.71227956,18476,429,1,0,9,1.6903775033413582
undo,8,34,0,0,0,0,[0],1,25,"[1, 3, 4, 5, 6, 7, 8, 9, 10, 11, 12, 13, 15, 18, 19, 20, 21, 22, 23, 24, 25, 26, 27, 28, 29]",300,169,-1,12,367,10,0.0
undo,8,34,0,0,0,13,"[0, 13]",2,24,"[1, 3, 4, 5, 6, 7, 8, 9, 10, 11, 12, 15, 18, 19, 20, 21, 22, 23, 24, 25, 26, 27, 28, 29]",279.9750156,2927,2758,12,331,10,1.0
undo,8,34,0,0,0,1,"[0, 13, 1]",3,16,"[3, 5, 7, 8, 9, 10, 11, 12, 19, 21, 22, 23, 24, 25, 27, 29]",211.8574701,5942,3015,3,92,10,1.0010381285747127
undo,8,34,0,0,0,25,"[0, 13, 1, 25]",4,13,"[3, 5, 7, 8, 9, 10, 11, 12, 22, 23, 24, 27, 29]",191.8574701,7293,1351,1,28,10,1.0624186564261213
undo,8,34,0,0,0,8,"[0, 13, 1, 25, 8]",5,11,"[5, 7, 9, 10, 11, 12, 22, 23, 24, 27, 29]",174.7694627,9365,2072,1,16,10,1.4733004388235296
undo,8,34,0,0,0,24,"[0, 13, 1, 25, 8, 24]",6,10,"[5, 7, 9, 10, 11, 12, 22, 23, 27, 29]",152.633519,12823,3458,1,14,10,1.5169865683750192
undo,8,34,0,0,0,12,"[0, 13, 1, 25, 8, 24, 12]",7,7,"[7, 9, 10, 11, 22, 23, 27]",101.5943184,13808,985,1,6,10,1.6121488148059382
undo,8,34,0,0,0,7,"[0, 13, 1, 25, 8, 24, 12, 7]",8,4,"[11, 22, 23, 27]",86.56102203,14521,713,1,3,10,1.8812682115159747
undo,8,34,0,0,0,23,"[0, 13, 1, 25, 8, 24, 12, 7, 23]",9,1,[27],58.40076635,17614,3093,1,0,10,2.5459724145880136
undo,8,34,0,0,1,27,"[0, 13, 1, 25, 8, 24, 12, 7, 23, 27]",10,0,[],4.73513489,18546,932,1,0,10,5.001616397791141
undo,8,34,0,1,1,27,"[0, 13, 1, 25, 8, 24, 12, 7, 23, 27]",10,0,[],4.73513489,19547,1001,1,0,10,5.001616397791141
undo,9,36,0,0,0,0,[0],1,24,"[2, 4, 5, 6, 7, 8, 9, 10, 12, 13, 14, 15, 16, 17, 18, 19, 20, 22, 23, 25, 26, 27, 28, 29]",300,278,-1,2,200,10,0.0
undo,9,36,0,0,0,12,"[0, 12]",2,23,"[2, 4, 5, 6, 7, 8, 9, 10, 13, 14, 15, 16, 17, 18, 19, 20, 22, 23, 25, 26, 27, 28, 29]",277.7963967,3675,3397,90,804,9,1.0
undo,9,36,0,0,0,16,"[0, 12, 16]",3,10,"[2, 9, 10, 13, 17, 18, 19, 23, 25, 27]",171.6267212,5275,1600,4,38,9,1.202695220335868
undo,9,36,0,0,0,17,"[0, 12, 16, 17]",4,7,"[2, 9, 10, 13, 18, 19, 25]",143.3071167,7343,2068,4,23,9,1.6578705047868705
undo,9,36,0,0,0,9,"[0, 12, 16, 17, 9]",5,5,"[2, 13, 18, 19, 25]",117.0583072,8353,1010,3,6,9,2.6488264465469484
undo,9,36,0,0,0,19,"[0, 12, 16, 17, 9, 19]",6,4,"[2, 13, 18, 25]",101.9255612,9574,1221,3,3,9,2.5697960541572393
undo,9,36,0,0,0,2,"[0, 12, 16, 17, 9, 19, 2]",7,2,"[13, 25]",64.80413882,10655,1081,2,0,9,2.082684549483941
undo,9,36,0,0,0,25,"[0, 12, 16, 17, 9, 19, 2, 25]",8,1,[13],39.80413882,12389,1734,1,0,9,2.272647961997219
undo,9,36,0,0,1,13,"[0, 12, 16, 17, 9, 19, 2, 25, 13]",9,0,[],19.21287854,14275,1886,1,0,9,2.86279103556024
undo,9,36,0,1,1,13,"[0, 12, 16, 17, 9, 19, 2, 25, 13]",9,0,[],19.21287854,14843,568,1,0,9,2.86279103556024
undo,10,20,0,0,0,0,[0],1,21,"[1, 2, 3, 4, 5, 6, 7, 8, 9, 12, 17, 18, 20, 21, 22, 23, 25, 26, 27, 28, 29]",300,164,-1,1,9,9,0.0
undo,10,20,0,0,0,12,"[0, 12]",2,20,"[1, 2, 3, 4, 5, 6, 7, 8, 9, 17, 18, 20, 21, 22, 23, 25, 26, 27, 28, 29]",271.5570747,8070,7906,1,8,9,1.0
undo,10,20,0,0,0,1,"[0, 12, 1]",3,12,"[3, 4, 5, 6, 8, 9, 20, 21, 23, 27, 28, 29]",189.5692707,9487,1417,1,6,9,1.0757997779162911
undo,10,20,0,0,0,5,"[0, 12, 1, 5]",4,10,"[4, 6, 8, 9, 20, 21, 23, 27, 28, 29]",152.8950291,10553,1066,1,5,9,1.1708231454516806
undo,10,20,0,0,0,21,"[0, 12, 1, 5, 21]",5,8,"[4, 6, 8, 9, 20, 23, 27, 28]",107.8950291,11841,1288,1,4,9,1.126197336199212
undo,10,20,0,0,0,8,"[0, 12, 1, 5, 21, 8]",6,5,"[6, 9, 23, 27, 28]",90.43077988,13252,1411,1,3,9,1.140007470699913
undo,10,20,0,0,0,23,"[0, 12, 1, 5, 21, 8, 23]",7,2,"[6, 9]",45.74297394,14627,1375,1,1,9,1.1162257896627588
undo,10,20,0,0,0,9,"[0, 12, 1, 5, 21, 8, 23, 9]",8,1,[6],26.53360123,15708,1081,1,0,9,1.1086880559449597
undo,10,20,0,0,1,6,"[0, 12, 1, 5, 21, 8, 23, 9, 6]",9,0,[],3.511872362,17901,2193,1,0,9,1.1186240265999328
undo,10,20,0,1,1,6,"[0, 12, 1, 5, 21, 8, 23, 9, 6]",9,0,[],3.511872362,18345,444,1,0,9,1.1186240265999328
undo,11,1,0,0,0,0,[0],1,26,"[1, 2, 4, 5, 7, 8, 9, 10, 11, 12, 13, 14, 15, 16, 17, 18, 19, 20, 21, 22, 23, 24, 25, 26, 28, 29]",300,320,-1,6,74,7,0.0
undo,11,1,0,0,0,8,"[0, 8]",2,23,"[1, 4, 5, 7, 9, 10, 11, 12, 13, 14, 15, 16, 17, 18, 19, 20, 21, 23, 24, 25, 26, 28, 29]",202,6743,6423,1,16,7,1.0
undo,11,1,0,0,0,20,"[0, 8, 20]",3,12,"[1, 4, 5, 11, 13, 14, 15, 17, 18, 19, 28, 29]",125.9408125,7921,1178,1,7,7,1.02364736730791
undo,11,1,0,0,0,18,"[0, 8, 20, 18]",4,7,"[1, 4, 5, 11, 13, 17, 29]",94.31803592,12224,4303,4,4,6,1.0211220403435577
undo,11,1,0,0,0,4,"[0, 8, 20, 18, 4]",5,2,"[13, 29]",55.36935173,13837,1613,2,0,6,1.0365333230805374
undo,11,1,1,0,0,18,"[0, 8, 20, 18]",4,7,"[1, 4, 5, 11, 13, 17, 29]",94.31803592,17429,3592,4,4,6,1.0211220403435577
undo,11,1,1,0,0,20,"[0, 8, 20]",3,12,"[1, 4, 5, 11, 13, 14, 15, 17, 18, 19, 28, 29]",125.9408125,17746,317,1,7,7,1.02364736730791
undo,11,1,0,0,0,5,"[0, 8, 20, 5]",4,7,"[1, 4, 11, 13, 17, 18, 29]",104.469902,20138,2392,1,3,7,1.0439599203945713
undo,11,1,0,0,0,18,"[0, 8, 20, 5, 18]",5,2,"[4, 29]",81.64447755,23171,3033,1,1,7,1.0840407791793756
undo,11,1,0,0,0,4,"[0, 8, 20, 5, 18, 4]",6,1,[29],42.69579336,24654,1483,1,0,7,1.0902329133216275
undo,11,1,0,0,1,29,"[0, 8, 20, 5, 18, 4, 29]",7,0,[],6.640280603,30538,5884,1,0,7,1.2859729622882756
undo,11,1,0,1,1,29,"[0, 8, 20, 5, 18, 4, 29]",7,0,[],6.640280603,30944,406,1,0,7,1.2859729622882756
undo,12,38,0,0,0,0,[0],1,29,"[1, 2, 3, 4, 5, 6, 7, 8, 9, 10, 11, 12, 13, 14, 15, 16, 17, 18, 19, 20, 21, 22, 23, 24, 25, 26, 27, 28, 29]",300,163,-1,33,506,9,0.0
undo,12,38,0,0,0,15,"[0, 15]",2,24,"[1, 2, 3, 4, 5, 6, 7, 10, 11, 12, 13, 14, 16, 17, 18, 19, 20, 21, 22, 24, 25, 26, 27, 28]",226.6242547,2371,2208,26,315,8,1.0
undo,12,38,0,0,0,4,"[0, 15, 4]",3,21,"[1, 3, 5, 6, 7, 10, 11, 12, 13, 14, 16, 17, 18, 19, 20, 22, 24, 25, 26, 27, 28]",200.6242547,3642,1271,13,104,8,1.4173413634934033
undo,12,38,0,0,0,20,"[0, 15, 4, 20]",4,16,"[3, 5, 6, 7, 11, 13, 14, 16, 17, 18, 19, 22, 24, 26, 27, 28]",166.6831292,6590,2948,6,33,8,2.4756321407912334
undo,12,38,0,0,0,17,"[0, 15, 4, 20, 17]",5,13,"[3, 5, 6, 11, 13, 16, 18, 19, 22, 24, 26, 27, 28]",142.9134005,7703,1113,5,14,8,2.4236103458312424
undo,12,38,0,0,0,19,"[0, 15, 4, 20, 17, 19]",6,7,"[3, 6, 13, 18, 22, 26, 27]",121.5358422,9592,1889,4,4,8,2.216988824378052
undo,12,38,0,0,0,13,"[0, 15, 4, 20, 17, 19, 13]",7,1,[26],44.84164426,13259,3667,1,0,8,2.610460802264847
undo,12,38,0,0,1,26,"[0, 15, 4, 20, 17, 19, 13, 26]",8,0,[],13.79329487,15174,1915,1,0,8,2.2733440683458648
undo,12,38,0,1,1,26,"[0, 15, 4, 20, 17, 19, 13, 26]",8,0,[],13.79329487,15628,454,1,0,8,2.2733440683458648
undo,13,6,0,0,0,0,[0],1,29,"[1, 2, 3, 4, 5, 6, 7, 8, 9, 10, 11, 12, 13, 14, 15, 16, 17, 18, 19, 20, 21, 22, 23, 24, 25, 26, 27, 28, 29]",300,164,-1,180,4304,10,0.0
undo,13,6,0,0,0,3,"[0, 3]",2,28,"[1, 2, 4, 5, 6, 7, 8, 9, 10, 11, 12, 13, 14, 15, 16, 17, 18, 19, 20, 21, 22, 23, 24, 25, 26, 27, 28, 29]",266.4738908,2498,2334,90,1607,10,1.0
undo,13,6,0,0,0,24,"[0, 3, 24]",3,24,"[1, 2, 4, 5, 6, 7, 8, 10, 11, 13, 14, 16, 17, 18, 19, 20, 21, 22, 23, 25, 26, 27, 28, 29]",202.520783,5027,2529,6,84,10,1.001910163116413
undo,13,6,0,0,0,17,"[0, 3, 24, 17]",4,20,"[1, 2, 4, 5, 6, 7, 8, 10, 11, 13, 14, 16, 18, 20, 21, 22, 23, 26, 27, 29]",173.2462206,10505,5478,14,116,9,1.795984758062078
undo,13,6,0,0,0,18,"[0, 3, 24, 17, 18]",5,17,"[1, 2, 6, 7, 8, 10, 11, 13, 14, 16, 20, 21, 22, 23, 26, 27, 29]",159.3178323,13610,3105,9,56,9,2.3099928457969376
undo,13,6,0,0,0,16,"[0, 3, 24, 17, 18, 16]",6,14,"[1, 2, 6, 7, 10, 13, 14, 20, 21, 22, 23, 26, 27, 29]",135.9725973,14923,1313,8,27,9,2.2724667968751056
undo,13,6,0,0,0,29,"[0, 3, 24, 17, 18, 16, 29]",7,8,"[6, 10, 14, 20, 21, 22, 23, 27]",99.28472462,16026,1103,6,5,9,1.8845050981602565
undo,13,6,0,0,0,23,"[0, 3, 24, 17, 18, 16, 29, 23]",8,2,"[6, 22]",51.76630714,18044,2018,2,0,9,1.8497109678761825
undo,13,6,0,0,1,6,"[0, 3, 24, 17, 18, 16, 29, 23, 6]",9,0,[],16.41096808,18991,947,1,0,9,1.7607773549787074
undo,13,6,0,1,1,6,"[0, 3, 24, 17, 18, 16, 29, 23, 6]",9,0,[],16.41096808,19528,537,1,0,9,1.7607773549787074
undo,14,28,0,0,0,0,[0],1,27,"[1, 2, 3, 4, 5, 6, 7, 8, 9, 10, 11, 12, 13, 14, 15, 16, 17, 18, 19, 20, 22, 23, 25, 26, 27, 28, 29]",300,162,-1,2,96,9,0.0
undo,14,28,0,0,0,3,"[0, 3]",2,26,"[1, 2, 4, 5, 6, 7, 8, 9, 10, 11, 12, 13, 14, 15, 16, 17, 18, 19, 20, 22, 23, 25, 26, 27, 28, 29]",251.0817008,1958,1796,1,64,9,1.0
undo,14,28,0,0,0,5,"[0, 3, 5]",3,20,"[2, 4, 6, 7, 8, 9, 10, 11, 12, 13, 14, 15, 18, 19, 20, 23, 25, 26, 28, 29]",166.9865166,3871,1913,1,34,9,1.0203769473612083
undo,14,28,0,0,0,26,"[0, 3, 5, 26]",4,13,"[2, 4, 7, 8, 9, 12, 13, 14, 18, 19, 20, 25, 28]",134.2298379,5841,1970,1,28,9,1.0315203228799597
undo,14,28,0,0,0,19,"[0, 3, 5, 26, 19]",5,7,"[2, 7, 9, 12, 13, 14, 18]",93.22983789,10909,5068,1,17,9,1.1324645362297356
undo,14,28,0,0,0,7,"[0, 3, 5, 26, 19, 7]",6,5,"[2, 12, 13, 14, 18]",65.49898864,12156,1247,1,6,9,1.1971194919020265
undo,14,28,0,0,0,12,"[0, 3, 5, 26, 19, 7, 12]",7,2,"[13, 18]",52.3460422,13453,1297,1,1,9,1.2020762147848982
undo,14,28,0,0,0,13,"[0, 3, 5, 26, 19, 7, 12, 13]",8,1,[18],35.14139167,14854,1401,1,0,9,1.39005144078531
undo,14,28,0,0,1,18,"[0, 3, 5, 26, 19, 7, 12, 13, 18]",9,0,[],10.72828044,16352,1498,1,0,9,1.738787343626007
undo,14,28,0,1,1,18,"[0, 3, 5, 26, 19, 7, 12, 13, 18]",9,0,[],10.72828044,16760,408,1,0,9,1.738787343626007
undo,15,24,0,0,0,0,[0],1,29,"[1, 2, 3, 4, 5, 6, 7, 8, 9, 10, 11, 12, 13, 14, 15, 16, 17, 18, 19, 20, 21, 22, 23, 24, 25, 26, 27, 28, 29]",300,172,-1,4,76,10,0.0
undo,15,24,0,0,0,16,"[0, 16]",2,28,"[1, 2, 3, 4, 5, 6, 7, 8, 9, 10, 11, 12, 13, 14, 15, 17, 18, 19, 20, 21, 22, 23, 24, 25, 26, 27, 28, 29]",210.3562607,2393,2221,13,110,9,1.0
undo,15,24,0,0,0,8,"[0, 16, 8]",3,22,"[1, 2, 3, 4, 6, 9, 10, 11, 13, 14, 15, 17, 20, 21, 22, 23, 24, 25, 26, 27, 28, 29]",181.3562607,5790,3397,3,31,9,1.0774669368510212
undo,15,24,0,0,0,22,"[0, 16, 8, 22]",4,18,"[2, 3, 4, 6, 9, 10, 11, 13, 14, 15, 17, 23, 24, 25, 26, 27, 28, 29]",167.9398528,7520,1730,3,23,9,1.2531772310046492
undo,15,24,0,0,0,15,"[0, 16, 8, 22, 15]",5,16,"[3, 4, 6, 9, 10, 11, 13, 14, 17, 23, 24, 25, 26, 27, 28, 29]",146.7266494,8751,1231,3,16,9,1.2813329946092564
undo,15,24,0,0,0,28,"[0, 16, 8, 22, 15, 28]",6,8,"[3, 4, 9, 11, 13, 23, 26, 27]",101.4497237,10199,1448,3,5,9,1.2060847818642253
undo,15,24,0,0,0,23,"[0, 16, 8, 22, 15, 28, 23]",7,3,"[9, 11, 27]",82.42342609,13390,3191,3,1,9,1.2349355190066822
undo,15,24,0,0,0,11,"[0, 16, 8, 22, 15, 28, 23, 11]",8,2,"[9, 27]",55.49760206,15550,2160,2,0,9,1.2172586817191506
undo,15,24,0,0,1,27,"[0, 16, 8, 22, 15, 28, 23, 11, 27]",9,0,[],27.69472451,16599,1049,1,0,9,1.192247579330137
undo,15,24,0,1,1,27,"[0, 16, 8, 22, 15, 28, 23, 11, 27]",9,0,[],27.69472451,17443,844,1,0,9,1.192247579330137
undo,16,8,0,0,0,0,[0],1,29,"[1, 2, 3, 4, 5, 6, 7, 8, 9, 10, 11, 12, 13, 14, 15, 16, 17, 18, 19, 20, 21, 22, 23, 24, 25, 26, 27, 28, 29]",300,221,-1,10,149,9,0.0
undo,16,8,0,0,0,5,"[0, 5]",2,28,"[1, 2, 3, 4, 6, 7, 8, 9, 10, 11, 12, 13, 14, 15, 16, 17, 18, 19, 20, 21, 22, 23, 24, 25, 26, 27, 28, 29]",254.5137383,2318,2097,10,100,9,1.0
undo,16,8,0,0,0,14,"[0, 5, 14]",3,20,"[1, 2, 3, 4, 6, 7, 11, 15, 16, 17, 18, 19, 20, 21, 22, 23, 24, 25, 28, 29]",214.5512559,3668,1350,4,36,9,1.0001019035932595
undo,16,8,0,0,0,17,"[0, 5, 14, 17]",4,15,"[1, 4, 6, 7, 11, 15, 16, 18, 19, 20, 22, 23, 24, 25, 28]",177.5377449,4973,1305,4,16,9,1.121197267659591
undo,16,8,0,0,0,11,"[0, 5, 14, 17, 11]",5,11,"[1, 4, 15, 16, 18, 19, 22, 23, 24, 25, 28]",152.3583883,6092,1119,4,8,9,1.1277254166016362
undo,16,8,0,0,0,24,"[0, 5, 14, 17, 11, 24]",6,3,"[15, 16, 28]",115.1428001,7316,1224,2,2,9,1.1227411011978805
undo,16,8,0,0,0,15,"[0, 5, 14, 17, 11, 24, 15]",7,2,"[16, 28]",98.37974552,8531,1215,2,0,9,1.1956385406066814
undo,16,8,0,0,0,16,"[0, 5, 14, 17, 11, 24, 15, 16]",8,1,[28],47.30137436,9676,1145,1,0,9,1.36482239111247
undo,16,8,0,0,1,28,"[0, 5, 14, 17, 11, 24, 15, 16, 28]",9,0,[],24.94069458,11072,1396,1,0,9,1.632953105226947
undo,16,8,0,1,1,28,"[0, 5, 14, 17, 11, 24, 15, 16, 28]",9,0,[],24.94069458,11419,347,1,0,9,1.632953105226947
undo,17,23,0,0,0,0,[0],1,28,"[1, 2, 3, 4, 5, 6, 7, 8, 9, 10, 11, 12, 13, 14, 15, 16, 17, 18, 19, 20, 21, 22, 23, 25, 26, 27, 28, 29]",300,278,-1,76,2626,10,0.0
undo,17,23,0,0,0,13,"[0, 13]",2,19,"[1, 2, 3, 5, 6, 7, 8, 9, 10, 12, 14, 17, 18, 19, 21, 22, 23, 27, 29]",189.3202819,6089,5811,9,168,10,1.0
undo,17,23,0,0,0,12,"[0, 13, 12]",3,16,"[1, 2, 3, 6, 7, 8, 9, 10, 14, 17, 18, 21, 22, 23, 27, 29]",177.2372359,8042,1953,9,96,10,1.0014195490503164
undo,17,23,0,0,0,2,"[0, 13, 12, 2]",4,12,"[1, 3, 6, 7, 9, 10, 14, 18, 21, 22, 27, 29]",163.3447919,9688,1646,4,30,10,1.0014394317924602
undo,17,23,0,0,0,9,"[0, 13, 12, 2, 9]",5,10,"[1, 6, 7, 10, 14, 18, 21, 22, 27, 29]",150.3063871,11132,1444,1,8,10,1.1457747074799831
undo,17,23,0,0,0,14,"[0, 13, 12, 2, 9, 14]",6,8,"[1, 6, 7, 10, 18, 22, 27, 29]",139.8660806,14325,3193,1,6,10,1.1365880299138118
undo,17,23,0,0,0,29,"[0, 13, 12, 2, 9, 14, 29]",7,5,"[1, 6, 7, 10, 22]",92.43191571,15529,1204,1,3,10,1.3460297288480787
undo,17,23,0,0,0,7,"[0, 13, 12, 2, 9, 14, 29, 7]",8,2,"[1, 10]",68.34872655,17045,1516,1,1,10,1.3773159292410473
undo,17,23,0,0,0,10,"[0, 13, 12, 2, 9, 14, 29, 7, 10]",9,1,[1],40.88966612,20436,3391,1,0,10,1.3556884556214648
undo,17,23,0,0,1,1,"[0, 13, 12, 2, 9, 14, 29, 7, 10, 1]",10,0,[],12.23656855,21555,1119,1,0,10,1.3259861306330887
undo,17,23,0,1,1,1,"[0, 13, 12, 2, 9, 14, 29, 7, 10, 1]",10,0,[],12.23656855,21908,353,1,0,10,1.3259861306330887
undo,18,10,0,0,0,0,[0],1,29,"[1, 2, 3, 4, 5, 6, 7, 8, 9, 10, 11, 12, 13, 14, 15, 16, 17, 18, 19, 20, 21, 22, 23, 24, 25, 26, 27, 28, 29]",300,152,-1,1,100,9,0.0
undo,18,10,0,0,0,13,"[0, 13]",2,25,"[1, 2, 3, 4, 6, 7, 8, 9, 10, 11, 12, 14, 17, 18, 19, 20, 21, 22, 23, 24, 25, 26, 27, 28, 29]",249.4628849,4050,3898,1,79,9,1.0
undo,18,10,0,0,0,20,"[0, 13, 20]",3,16,"[1, 2, 3, 6, 8, 9, 10, 11, 12, 14, 18, 19, 21, 24, 26, 27]",170.8753541,7664,3614,10,43,8,1.066817991289646
undo,18,10,0,0,0,26,"[0, 13, 20, 26]",4,9,"[2, 6, 9, 10, 11, 14, 18, 19, 27]",139.0948569,13221,5557,4,14,8,1.214940841032262
undo,18,10,0,0,0,14,"[0, 13, 20, 26, 14]",5,4,"[2, 11, 19, 27]",104.4249853,14554,1333,1,3,8,1.2228694065116572
undo,18,10,0,0,0,2,"[0, 13, 20, 26, 14, 2]",6,2,"[11, 19]",92.25946024,15401,847,1,1,8,1.2725435352660128
undo,18,10,0,0,0,19,"[0, 13, 20, 26, 14, 2, 19]",7,1,[11],48.35046344,16714,1313,1,0,8,2.10749634324327
undo,18,10,0,0,1,11,"[0, 13, 20, 26, 14, 2, 19, 11]",8,0,[],11.99114551,18087,1373,1,0,8,3.17510943362411
undo,18,10,0,1,1,11,"[0, 13, 20, 26, 14, 2, 19, 11]",8,0,[],11.99114551,18777,690,1,0,8,3.17510943362411
undo,19,39,0,0,0,0,[0],1,28,"[1, 2, 3, 4, 5, 6, 7, 9, 10, 11, 12, 13, 14, 15, 16, 17, 18, 19, 20, 21, 22, 23, 24, 25, 26, 27, 28, 29]",300,163,-1,1,30,10,0.0
undo,19,39,0,0,0,29,"[0, 29]",2,26,"[1, 2, 3, 4, 5, 6, 7, 9, 10, 12, 13, 14, 15, 16, 17, 18, 19, 20, 21, 22, 23, 24, 25, 26, 27, 28]",243.0614366,4293,4130,8,104,9,1.0
undo,19,39,0,0,0,12,"[0, 29, 12]",3,18,"[1, 2, 4, 5, 7, 9, 10, 13, 14, 15, 16, 18, 19, 22, 23, 24, 26, 28]",182.5221931,5159,866,5,54,9,1.0026200331524904
undo,19,39,0,0,0,10,"[0, 29, 12, 10]",4,16,"[1, 2, 4, 5, 7, 9, 13, 14, 15, 16, 18, 19, 22, 23, 24, 26]",147.0116313,6186,1027,5,34,9,1.2874817019928908
undo,19,39,0,0,0,7,"[0, 29, 12, 10, 7]",5,10,"[1, 2, 5, 13, 16, 18, 19, 22, 24, 26]",113.5900814,7371,1185,4,12,9,1.2250826263866774
undo,19,39,0,0,0,26,"[0, 29, 12, 10, 7, 26]",6,5,"[1, 16, 18, 19, 22]",94.90853971,8377,1006,3,4,9,1.2697275353190085
undo,19,39,0,0,0,22,"[0, 29, 12, 10, 7, 26, 22]",7,2,"[16, 19]",77.18849457,9184,807,2,0,9,1.438961743955176
undo,19,39,0,0,0,16,"[0, 29, 12, 10, 7, 26, 22, 16]",8,1,[19],42.18849457,11506,2322,1,0,9,1.3580882130477205
undo,19,39,0,0,1,19,"[0, 29, 12, 10, 7, 26, 22, 16, 19]",9,0,[],24.72424537,12522,1016,1,0,9,1.3646589157842668
undo,19,39,0,1,1,19,"[0, 29, 12, 10, 7, 26, 22, 16, 19]",9,0,[],24.72424537,13011,489,1,0,9,1.3646589157842668
undo,20,27,0,0,0,0,[0],1,26,"[1, 3, 5, 6, 7, 8, 9, 10, 11, 12, 13, 14, 15, 16, 17, 18, 19, 21, 22, 23, 24, 25, 26, 27, 28, 29]",300,178,-1,13,578,11,0.0
undo,20,27,0,0,0,15,"[0, 15]",2,24,"[1, 3, 5, 6, 7, 8, 9, 10, 11, 12, 13, 14, 16, 17, 18, 19, 21, 22, 23, 24, 25, 26, 27, 29]",263.7508621,2904,2726,6,219,11,1.0
undo,20,27,0,0,0,24,"[0, 15, 24]",3,20,"[1, 5, 6, 7, 8, 9, 10, 12, 13, 14, 16, 17, 18, 19, 21, 23, 25, 26, 27, 29]",246.5462115,3971,1067,6,130,11,1.130933077698322
undo,20,27,0,0,0,17,"[0, 15, 24, 17]",4,15,"[1, 6, 8, 10, 12, 13, 14, 16, 18, 19, 23, 25, 26, 27, 29]",229.9932662,4838,867,4,60,11,1.1285538435963374
undo,20,27,0,0,0,12,"[0, 15, 24, 17, 12]",5,14,"[1, 6, 8, 10, 13, 14, 16, 18, 19, 23, 25, 26, 27, 29]",218.8129263,5671,833,2,32,11,1.2561880288755216
undo,20,27,0,0,0,10,"[0, 15, 24, 17, 12, 10]",6,11,"[1, 8, 13, 14, 18, 19, 23, 25, 26, 27, 29]",207.7675653,7121,1450,2,28,11,1.2228289337766665
undo,20,27,0,0,0,13,"[0, 15, 24, 17, 12, 10, 13]",7,9,"[1, 8, 14, 18, 19, 23, 26, 27, 29]",167.9178476,8353,1232,2,18,11,1.3421291994761178
undo,20,27,0,0,0,19,"[0, 15, 24, 17, 12, 10, 13, 19]",8,5,"[1, 8, 14, 23, 29]",131.6825057,9470,1117,2,6,11,1.294749956153846
undo,20,27,0,0,0,8,"[0, 15, 24, 17, 12, 10, 13, 19, 8]",9,3,"[14, 23, 29]",116.816437,10355,885,2,1,11,1.3554286578836865
undo,20,27,0,0,0,29,"[0, 15, 24, 17, 12, 10, 13, 19, 8, 29]",10,1,[14],57.61339652,11539,1184,1,0,11,1.248354519573802
undo,20,27,0,0,1,14,"[0, 15, 24, 17, 12, 10, 13, 19, 8, 29, 14]",11,0,[],13.31892734,12418,879,1,0,11,1.562811097555156
undo,20,27,0,1,1,14,"[0, 15, 24, 17, 12, 10, 13, 19, 8, 29, 14]",11,0,[],13.31892734,12826,408,1,0,11,1.562811097555156
undo,21,31,0,0,0,0,[0],1,27,"[1, 3, 4, 5, 6, 7, 8, 10, 11, 12, 13, 14, 15, 16, 17, 18, 19, 20, 21, 22, 23, 24, 25, 26, 27, 28, 29]",300,165,-1,2,87,10,0.0
undo,21,31,0,0,0,14,"[0, 14]",2,25,"[1, 3, 5, 6, 7, 8, 10, 11, 12, 13, 15, 16, 17, 18, 19, 20, 21, 22, 23, 24, 25, 26, 27, 28, 29]",263.861378,1938,1773,2,59,10,1.0
undo,21,31,0,0,0,27,"[0, 14, 27]",3,22,"[1, 3, 5, 6, 7, 8, 10, 11, 12, 13, 15, 16, 17, 18, 19, 20, 21, 22, 24, 25, 28, 29]",235.6833724,7059,5121,1,39,10,1.5881859159302467
undo,21,31,0,0,0,8,"[0, 14, 27, 8]",4,20,"[1, 3, 5, 6, 7, 10, 11, 12, 13, 16, 17, 18, 19, 20, 21, 22, 24, 25, 28, 29]",224.6380114,12304,5245,1,36,10,2.1665048452331277
undo,21,31,0,0,0,18,"[0, 14, 27, 8, 18]",5,15,"[1, 5, 6, 7, 11, 12, 13, 16, 17, 19, 20, 22, 25, 28, 29]",188.7911147,13621,1317,1,26,10,1.7273375741920205
undo,21,31,0,0,0,17,"[0, 14, 27, 8, 18, 17]",6,13,"[1, 5, 6, 7, 11, 12, 13, 16, 19, 20, 22, 25, 28]",159.584951,14674,1053,1,13,10,1.551192427769927
undo,21,31,0,0,0,11,"[0, 14, 27, 8, 18, 17, 11]",7,7,"[5, 12, 16, 19, 22, 25, 28]",118.4753414,15638,964,1,4,10,2.9650760544203494
undo,21,31,0,0,0,5,"[0, 14, 27, 8, 18, 17, 11, 5]",8,2,"[16, 28]",74.79468207,16909,1271,1,1,10,2.56711965625205
undo,21,31,0,0,0,28,"[0, 14, 27, 8, 18, 17, 11, 5, 28]",9,1,[16],54.57093365,18335,1426,1,0,10,2.2865510762058148
undo,21,31,0,0,1,16,"[0, 14, 27, 8, 18, 17, 11, 5, 28, 16]",10,0,[],20.95546102,19176,841,1,0,10,2.089356850786318
undo,21,31,0,1,1,16,"[0, 14, 27, 8, 18, 17, 11, 5, 28, 16]",10,0,[],20.95546102,19509,333,1,0,10,2.089356850786318
undo,22,41,0,0,0,0,[0],1,29,"[1, 2, 3, 4, 5, 6, 7, 8, 9, 10, 11, 12, 13, 14, 15, 16, 17, 18, 19, 20, 21, 22, 23, 24, 25, 26, 27, 28, 29]",300,161,-1,1,143,10,0.0
undo,22,41,0,0,0,13,"[0, 13]",2,23,"[1, 2, 3, 5, 6, 7, 9, 10, 11, 12, 14, 15, 17, 18, 19, 20, 21, 22, 24, 25, 26, 27, 28]",258.2747079,2603,2442,1,55,10,1.0
undo,22,41,0,0,0,28,"[0, 13, 28]",3,22,"[1, 2, 3, 5, 6, 7, 9, 10, 11, 12, 14, 15, 17, 18, 19, 20, 21, 22, 24, 25, 26, 27]",223.7928286,3621,1018,1,39,10,1.895724242592676
undo,22,41,0,0,0,5,"[0, 13, 28, 5]",4,19,"[1, 2, 3, 6, 9, 10, 11, 12, 14, 15, 17, 18, 19, 20, 21, 22, 24, 25, 27]",210.1913581,4789,1168,1,34,10,2.861541269398273
undo,22,41,0,0,0,3,"[0, 13, 28, 5, 3]",5,16,"[1, 2, 6, 9, 10, 12, 14, 17, 18, 19, 20, 21, 22, 24, 25, 27]",175.3632086,9370,4581,1,22,10,3.1455488489005883
undo,22,41,0,0,0,21,"[0, 13, 28, 5, 3, 21]",6,14,"[1, 2, 6, 9, 10, 12, 14, 17, 18, 19, 20, 22, 25, 27]",143.2228912,10643,1273,13,11,9,3.207558429289677
undo,22,41,0,0,0,9,"[0, 13, 28, 5, 3, 21, 9]",7,6,"[1, 2, 10, 12, 14, 17]",93.85691102,13262,2619,7,4,9,2.5050148501792275
undo,22,41,0,0,0,2,"[0, 13, 28, 5, 3, 21, 9, 2]",8,5,"[1, 10, 12, 14, 17]",81.77386505,14163,901,5,0,9,2.4119643847713177
undo,22,41,0,0,1,17,"[0, 13, 28, 5, 3, 21, 9, 2, 17]",9,0,[],49.21622385,16228,2065,1,0,9,3.9563478735796007
undo,22,41,0,1,1,17,"[0, 13, 28, 5, 3, 21, 9, 2, 17]",9,0,[],49.21622385,17608,1380,1,0,9,3.9563478735796007
basic,23,0,0,0,0,0,[0],1,27,"[2, 3, 4, 5, 6, 7, 8, 9, 10, 11, 12, 13, 14, 15, 16, 17, 19, 20, 21, 22, 23, 24, 25, 26, 27, 28, 29]",300,234,-1,104,1136,9,0.0
basic,23,0,0,0,0,20,"[0, 20]",2,25,"[2, 3, 4, 5, 6, 7, 8, 9, 11, 12, 13, 14, 15, 16, 17, 19, 21, 22, 23, 24, 25, 26, 27, 28, 29]",215.4955622,2257,2023,36,372,9,1.0
basic,23,0,0,0,0,28,"[0, 20, 28]",3,19,"[3, 4, 5, 7, 8, 9, 11, 12, 13, 14, 15, 16, 17, 19, 21, 23, 24, 26, 29]",156.2925218,3309,1052,3,83,9,1.3675886789005969
basic,23,0,0,0,0,5,"[0, 20, 28, 5]",4,12,"[3, 4, 7, 8, 9, 11, 12, 15, 17, 21, 24, 26]",112.6347619,4560,1251,2,50,9,1.3829293532227536
basic,23,0,0,0,0,4,"[0, 20, 28, 5, 4]",5,10,"[3, 7, 8, 9, 11, 12, 15, 17, 24, 26]",87.55488947,6323,1763,2,26,9,1.3571235497342058
basic,23,0,0,0,0,24,"[0, 20, 28, 5, 4, 24]",6,9,"[3, 7, 8, 9, 11, 12, 15, 17, 26]",76.15313522,7421,1098,1,12,9,1.3417481532053999
basic,23,0,0,0,0,15,"[0, 20, 28, 5, 4, 24, 15]",7,4,"[7, 8, 9, 26]",52.80790016,9327,1906,1,3,9,1.3076933767197685
basic,23,0,0,0,0,7,"[0, 20, 28, 5, 4, 24, 15, 7]",8,1,[8],21.74345103,10491,1164,1,0,9,1.3572844267599655
basic,23,0,0,0,1,8,"[0, 20, 28, 5, 4, 24, 15, 7, 8]",9,0,[],2.638477851,11777,1286,1,0,9,1.3366756734626686
basic,23,0,0,1,1,8,"[0, 20, 28, 5, 4, 24, 15, 7, 8]",9,0,[],2.638477851,12647,870,1,0,9,1.3366756734626686
basic,24,25,0,0,0,0,[0],1,28,"[1, 2, 3, 4, 5, 7, 8, 9, 10, 11, 12, 13, 14, 15, 16, 17, 18, 19, 20, 21, 22, 23, 24, 25, 26, 27, 28, 29]",300,182,-1,5,94,10,0.0
basic,24,25,0,0,0,23,"[0, 23]",2,23,"[1, 2, 3, 5, 7, 8, 9, 11, 12, 13, 14, 16, 17, 19, 20, 21, 22, 24, 25, 26, 27, 28, 29]",259.7756293,2254,2072,3,33,10,1.0
basic,24,25,0,0,0,7,"[0, 23, 7]",3,16,"[1, 3, 5, 8, 9, 11, 13, 17, 19, 21, 22, 24, 26, 27, 28, 29]",181.9424744,4843,2589,1,21,9,1.0073109045884563
basic,24,25,0,0,0,24,"[0, 23, 7, 24]",4,10,"[3, 5, 8, 9, 11, 13, 19, 22, 28, 29]",157.1836376,5822,979,1,17,9,1.0161584555781231
basic,24,25,0,0,0,9,"[0, 23, 7, 24, 9]",5,8,"[3, 8, 11, 13, 19, 22, 28, 29]",139.1558812,6606,784,1,16,9,1.0303325523073676
basic,24,25,0,0,0,8,"[0, 23, 7, 24, 9, 8]",6,3,"[3, 13, 28]",88.9065031,9488,2882,4,1,8,1.055612641218378
basic,24,25,0,0,0,28,"[0, 23, 7, 24, 9, 8, 28]",7,2,"[3, 13]",48.29862209,10875,1387,2,0,8,1.16316697389926
basic,24,25,0,0,1,3,"[0, 23, 7, 24, 9, 8, 28, 3]",8,0,[],16.99367041,14230,3355,1,0,8,1.5284916606081744
basic,24,25,0,1,1,3,"[0, 23, 7, 24, 9, 8, 28, 3]",8,0,[],16.99367041,14645,415,1,0,8,1.5284916606081744
basic,25,2,0,0,0,0,[0],1,23,"[1, 2, 4, 5, 6, 7, 8, 9, 12, 13, 15, 16, 17, 18, 19, 20, 22, 23, 25, 26, 27, 28, 29]",300,280,-1,70,620,10,0.0
basic,25,2,0,0,0,19,"[0, 19]",2,22,"[1, 2, 4, 5, 6, 7, 8, 9, 12, 13, 15, 16, 17, 18, 20, 22, 23, 25, 26, 27, 28, 29]",210.306076,3750,3470,67,431,10,1.0
basic,25,2,0,0,0,12,"[0, 19, 12]",3,17,"[1, 4, 5, 6, 7, 13, 15, 16, 17, 18, 20, 22, 25, 26, 27, 28, 29]",174.2921898,4977,1227,66,298,10,1.1107635036313153
basic,25,2,0,0,0,5,"[0, 19, 12, 5]",4,11,"[1, 6, 7, 13, 15, 16, 18, 22, 25, 26, 29]",144.7625437,6310,1333,38,136,10,1.0968174771581647
basic,25,2,0,0,0,22,"[0, 19, 12, 5, 22]",5,8,"[1, 6, 7, 13, 15, 18, 26, 29]",131.9562952,7158,848,20,63,10,1.0889910507461968
basic,25,2,0,0,0,13,"[0, 19, 12, 5, 22, 13]",6,7,"[1, 6, 7, 15, 18, 26, 29]",117.0902265,8691,1533,19,20,10,1.236526217328057
basic,25,2,0,0,0,18,"[0, 19, 12, 5, 22, 13, 18]",7,4,"[7, 15, 26, 29]",81.91921567,10992,2301,10,3,10,1.2128708213409936
basic,25,2,0,0,0,7,"[0, 19, 12, 5, 22, 13, 18, 7]",8,3,"[15, 26, 29]",71.62358553,12011,1019,5,0,10,1.2019811287894737
basic,25,2,0,0,0,26,"[0, 19, 12, 5, 22, 13, 18, 7, 26]",9,2,"[15, 29]",48.82007703,15687,3676,2,0,10,1.1883593342191134
basic,25,2,0,0,1,15,"[0, 19, 12, 5, 22, 13, 18, 7, 26, 15]",10,0,[],24.61264015,17071,1384,1,0,10,1.4619750353663825
basic,25,2,0,1,1,15,"[0, 19, 12, 5, 22, 13, 18, 7, 26, 15]",10,0,[],24.61264015,18927,1856,1,0,10,1.4619750353663825
basic,26,17,0,0,0,0,[0],1,28,"[1, 2, 3, 4, 5, 6, 7, 8, 9, 10, 11, 12, 13, 14, 15, 16, 17, 18, 19, 20, 22, 23, 24, 25, 26, 27, 28, 29]",300,213,-1,2,73,8,0.0
basic,26,17,0,0,0,9,"[0, 9]",2,25,"[1, 2, 3, 5, 6, 7, 8, 10, 11, 12, 14, 15, 16, 17, 18, 19, 20, 22, 23, 24, 25, 26, 27, 28, 29]",210.5293344,5359,5146,1,34,8,1.0
basic,26,17,0,0,0,16,"[0, 9, 16]",3,21,"[1, 2, 3, 5, 7, 8, 10, 11, 12, 14, 17, 18, 19, 20, 22, 23, 25, 26, 27, 28, 29]",197.1876704,7289,1930,1,26,8,1.173103464220352
basic,26,17,0,0,0,2,"[0, 9, 16, 2]",4,18,"[1, 3, 5, 7, 8, 10, 11, 12, 14, 17, 18, 19, 23, 25, 26, 27, 28, 29]",181.0631549,8439,1150,1,23,8,1.14825089247282
basic,26,17,0,0,0,8,"[0, 9, 16, 2, 8]",5,9,"[3, 7, 10, 11, 12, 14, 17, 26, 27]",145.9490551,10251,1812,1,9,8,1.1509808066472915
basic,26,17,0,0,0,27,"[0, 9, 16, 2, 8, 27]",6,3,"[7, 12, 26]",63.31129136,11641,1390,1,2,8,1.1020704318716983
basic,26,17,0,0,0,12,"[0, 9, 16, 2, 8, 27, 12]",7,1,[26],40.31129136,12575,934,1,0,8,1.094321365620665
basic,26,17,0,0,1,26,"[0, 9, 16, 2, 8, 27, 12, 26]",8,0,[],5.197191627,13538,963,1,0,8,1.2018360298670372
basic,26,17,0,1,1,26,"[0, 9, 16, 2, 8, 27, 12, 26]",8,0,[],5.197191627,14028,490,1,0,8,1.2018360298670372
basic,27,12,0,0,0,0,[0],1,29,"[1, 2, 3, 4, 5, 6, 7, 8, 9, 10, 11, 12, 13, 14, 15, 16, 17, 18, 19, 20, 21, 22, 23, 24, 25, 26, 27, 28, 29]",300,199,-1,2,32,9,0.0
basic,27,12,0,0,0,25,"[0, 25]",2,16,"[2, 4, 5, 6, 7, 9, 12, 14, 16, 18, 19, 22, 23, 24, 27, 28]",225.7975742,10036,9837,5,34,8,1.0
basic,27,12,0,0,0,22,"[0, 25, 22]",3,11,"[2, 4, 5, 6, 7, 12, 14, 16, 19, 24, 27]",153.5964661,11331,1295,1,10,8,1.6635691148622656
basic,27,12,0,0,0,16,"[0, 25, 22, 16]",4,7,"[4, 6, 12, 14, 19, 24, 27]",132.5964661,13415,2084,1,6,8,1.8455145785330662
basic,27,12,0,0,0,4,"[0, 25, 22, 16, 4]",5,5,"[12, 14, 19, 24, 27]",98.39120339,14368,953,1,4,8,1.6140587576122385
basic,27,12,0,0,0,12,"[0, 25, 22, 16, 4, 12]",6,2,"[14, 27]",56.20115717,15465,1097,1,1,8,1.4755917731057815
basic,27,12,0,0,0,27,"[0, 25, 22, 16, 4, 12, 27]",7,1,[14],31.84956584,17973,2508,1,0,8,1.5677023473114235
basic,27,12,0,0,1,14,"[0, 25, 22, 16, 4, 12, 27, 14]",8,0,[],3.196468279,18806,833,1,0,8,1.5941060060123788
basic,27,12,0,1,1,14,"[0, 25, 22, 16, 4, 12, 27, 14]",8,0,[],3.196468279,19311,505,1,0,8,1.5941060060123788
basic,28,33,0,0,0,0,[0],1,23,"[1, 2, 5, 7, 8, 11, 12, 13, 14, 15, 16, 17, 18, 19, 20, 21, 23, 24, 25, 26, 27, 28, 29]",300,196,-1,5,108,9,0.0
basic,28,33,0,0,0,8,"[0, 8]",2,22,"[1, 2, 5, 7, 11, 12, 13, 14, 15, 16, 17, 18, 19, 20, 21, 23, 24, 25, 26, 27, 28, 29]",265.8679037,3620,3424,5,87,9,1.0
basic,28,33,0,0,0,21,"[0, 8, 21]",3,16,"[2, 5, 7, 11, 13, 14, 16, 17, 18, 19, 20, 24, 26, 27, 28, 29]",166.0430571,5386,1766,5,80,9,1.0670557763739492
basic,28,33,0,0,0,17,"[0, 8, 21, 17]",4,11,"[2, 7, 11, 13, 14, 16, 19, 20, 24, 26, 29]",127.4036989,6572,1186,1,18,9,1.0830294710276618
basic,28,33,0,0,0,7,"[0, 8, 21, 17, 7]",5,5,"[14, 19, 24, 26, 29]",56.74253558,9887,3315,1,3,8,1.141512997961211
basic,28,33,0,0,0,14,"[0, 8, 21, 17, 7, 14]",6,2,"[26, 29]",41.87646683,11304,1417,1,1,8,1.1898126158761277
basic,28,33,0,0,0,26,"[0, 8, 21, 17, 7, 14, 26]",7,1,[29],29.22735619,13175,1871,1,0,8,1.1968326588631448
basic,28,33,0,0,1,29,"[0, 8, 21, 17, 7, 14, 26, 29]",8,0,[],1.334704831,15653,2478,1,0,8,1.4198833315783606
basic,28,33,0,1,1,29,"[0, 8, 21, 17, 7, 14, 26, 29]",8,0,[],1.334704831,15960,307,1,0,8,1.4198833315783606
basic,29,3,0,0,0,0,[0],1,29,"[1, 2, 3, 4, 5, 6, 7, 8, 9, 10, 11, 12, 13, 14, 15, 16, 17, 18, 19, 20, 21, 22, 23, 24, 25, 26, 27, 28, 29]",300,165,-1,34,427,10,0.0
basic,29,3,0,0,0,24,"[0, 24]",2,27,"[1, 2, 3, 4, 5, 6, 7, 8, 9, 10, 11, 12, 13, 14, 15, 16, 17, 18, 19, 20, 21, 22, 25, 26, 27, 28, 29]",241.1442441,3167,3002,1,40,10,1.0
basic,29,3,0,0,0,14,"[0, 24, 14]",3,13,"[3, 4, 5, 7, 8, 10, 15, 16, 17, 19, 20, 21, 22]",170.0316573,4190,1023,18,48,8,1.0098151009633862
basic,29,3,0,0,0,21,"[0, 24, 14, 21]",4,7,"[3, 4, 8, 10, 17, 19, 20]",143.1244092,5456,1266,6,11,8,1.0202009303096395
basic,29,3,0,0,0,19,"[0, 24, 14, 21, 19]",5,6,"[3, 4, 8, 10, 17, 20]",130.9178536,6274,818,6,3,8,1.1456944640362767
basic,29,3,0,0,0,3,"[0, 24, 14, 21, 19, 3]",6,4,"[8, 10, 17, 20]",93.58154422,7970,1696,2,2,8,1.6500281513059782
basic,29,3,0,0,0,20,"[0, 24, 14, 21, 19, 3, 20]",7,1,[17],73.18546616,10000,2030,1,0,8,2.0033680635738516
basic,29,3,0,0,1,17,"[0, 24, 14, 21, 19, 3, 20, 17]",8,0,[],60.53635552,10921,921,1,0,8,2.3407186890437437
basic,29,3,0,1,1,17,"[0, 24, 14, 21, 19, 3, 20, 17]",8,0,[],60.53635552,12145,1224,1,0,8,2.3407186890437437
basic,30,31,0,0,0,0,[0],1,27,"[1, 3, 4, 5, 6, 7, 8, 10, 11, 12, 13, 14, 15, 16, 17, 18, 19, 20, 21, 22, 23, 24, 25, 26, 27, 28, 29]",300,167,-1,2,87,10,0.0
basic,30,31,0,0,0,14,"[0, 14]",2,25,"[1, 3, 5, 6, 7, 8, 10, 11, 12, 13, 15, 16, 17, 18, 19, 20, 21, 22, 23, 24, 25, 26, 27, 28, 29]",263.861378,2705,2538,2,59,10,1.0
basic,30,31,0,0,0,27,"[0, 14, 27]",3,22,"[1, 3, 5, 6, 7, 8, 10, 11, 12, 13, 15, 16, 17, 18, 19, 20, 21, 22, 24, 25, 28, 29]",235.6833724,3592,887,1,39,10,1.5881859159302467
basic,30,31,0,0,0,8,"[0, 14, 27, 8]",4,20,"[1, 3, 5, 6, 7, 10, 11, 12, 13, 16, 17, 18, 19, 20, 21, 22, 24, 25, 28, 29]",224.6380114,4378,786,1,36,10,2.1665048452331277
basic,30,31,0,0,0,18,"[0, 14, 27, 8, 18]",5,15,"[1, 5, 6, 7, 11, 12, 13, 16, 17, 19, 20, 22, 25, 28, 29]",188.7911147,5957,1579,1,26,10,1.7273375741920205
basic,30,31,0,0,0,17,"[0, 14, 27, 8, 18, 17]",6,13,"[1, 5, 6, 7, 11, 12, 13, 16, 19, 20, 22, 25, 28]",159.584951,8661,2704,1,13,10,1.551192427769927
basic,30,31,0,0,0,11,"[0, 14, 27, 8, 18, 17, 11]",7,7,"[5, 12, 16, 19, 22, 25, 28]",118.4753414,9517,856,1,4,10,2.9650760544203494
basic,30,31,0,0,0,5,"[0, 14, 27, 8, 18, 17, 11, 5]",8,2,"[16, 28]",74.79468207,10415,898,1,1,10,2.56711965625205
basic,30,31,0,0,0,28,"[0, 14, 27, 8, 18, 17, 11, 5, 28]",9,1,[16],54.57093365,11592,1177,1,0,10,2.2865510762058148
basic,30,31,0,0,1,16,"[0, 14, 27, 8, 18, 17, 11, 5, 28, 16]",10,0,[],20.95546102,12507,915,1,0,10,2.089356850786318
basic,30,31,0,1,1,16,"[0, 14, 27, 8, 18, 17, 11, 5, 28, 16]",10,0,[],20.95546102,12799,292,1,0,10,2.089356850786318
basic,31,43,0,0,0,0,[0],1,23,"[1, 2, 3, 4, 5, 6, 7, 9, 10, 11, 12, 14, 15, 16, 17, 19, 20, 21, 22, 23, 25, 27, 29]",300,179,-1,16,556,12,0.0
basic,31,43,0,0,0,29,"[0, 29]",2,22,"[1, 2, 3, 4, 5, 6, 7, 9, 10, 11, 12, 14, 15, 16, 17, 19, 20, 21, 22, 23, 25, 27]",277.909278,3540,3361,16,520,12,1.0
basic,31,43,0,0,0,20,"[0, 29, 20]",3,20,"[1, 2, 3, 4, 6, 7, 9, 10, 11, 12, 14, 15, 16, 17, 19, 21, 22, 23, 25, 27]",254.4785289,5189,1649,15,422,12,1.082311746871282
basic,31,43,0,0,0,16,"[0, 29, 20, 16]",4,19,"[1, 2, 3, 4, 6, 7, 9, 10, 11, 12, 14, 15, 17, 19, 21, 22, 23, 25, 27]",231.8511119,8022,2833,15,389,12,1.215201926898219
basic,31,43,0,0,0,25,"[0, 29, 20, 16, 25]",5,14,"[1, 2, 3, 4, 6, 7, 9, 11, 12, 14, 15, 19, 22, 23]",175.7708124,10872,2850,53,282,11,1.566384303308987
basic,31,43,0,0,0,15,"[0, 29, 20, 16, 25, 15]",6,13,"[1, 2, 3, 4, 6, 7, 9, 11, 12, 14, 19, 22, 23]",153.0992443,12754,1882,27,108,11,1.776736412604812
basic,31,43,0,0,0,12,"[0, 29, 20, 16, 25, 15, 12]",7,10,"[1, 3, 6, 7, 9, 11, 14, 19, 22, 23]",133.7860364,13641,887,21,41,11,1.6813323012225032
basic,31,43,0,0,0,3,"[0, 29, 20, 16, 25, 15, 12, 3]",8,9,"[1, 6, 7, 9, 11, 14, 19, 22, 23]",120.7860364,15521,1880,20,12,11,1.608740348096123
basic,31,43,0,0,0,22,"[0, 29, 20, 16, 25, 15, 12, 3, 22]",9,6,"[1, 6, 7, 11, 14, 19]",86.07292644,16691,1170,9,2,11,1.793657891802588
basic,31,43,0,0,0,19,"[0, 29, 20, 16, 25, 15, 12, 3, 22, 19]",10,3,"[1, 6, 7]",65.45739831,17698,1007,3,0,11,1.6882745891803936
basic,31,43,0,0,1,1,"[0, 29, 20, 16, 25, 15, 12, 3, 22, 19, 1]",11,0,[],37.2793927,21935,4237,1,0,11,1.825064866046553
basic,31,43,0,1,1,1,"[0, 29, 20, 16, 25, 15, 12, 3, 22, 19, 1]",11,0,[],37.2793927,26109,4174,1,0,11,1.825064866046553
basic,32,37,0,0,0,0,[0],1,29,"[1, 2, 3, 4, 5, 6, 7, 8, 9, 10, 11, 12, 13, 14, 15, 16, 17, 18, 19, 20, 21, 22, 23, 24, 25, 26, 27, 28, 29]",300,298,-1,6,168,10,0.0
basic,32,37,0,0,0,18,"[0, 18]",2,19,"[1, 2, 4, 6, 7, 9, 10, 12, 14, 15, 17, 19, 20, 21, 22, 23, 26, 28, 29]",202.4090168,4174,3876,6,89,10,1.0
basic,32,37,0,0,0,2,"[0, 18, 2]",3,10,"[1, 4, 7, 15, 19, 20, 21, 22, 26, 29]",143.7148944,5623,1449,14,82,9,1.0338225020126353
basic,32,37,0,0,0,4,"[0, 18, 2, 4]",4,8,"[1, 7, 15, 19, 20, 21, 22, 26]",132.3131402,6606,983,10,40,9,1.0317091538961647
basic,32,37,0,0,0,1,"[0, 18, 2, 4, 1]",5,7,"[7, 15, 19, 20, 21, 22, 26]",114.593095,7462,856,9,20,9,1.1710947925054036
basic,32,37,0,0,0,20,"[0, 18, 2, 4, 1, 20]",6,5,"[15, 19, 21, 22, 26]",80.35860951,8294,832,4,6,9,1.465285703568742
basic,32,37,0,0,0,15,"[0, 18, 2, 4, 1, 20, 15]",7,3,"[19, 21, 26]",63.35860951,9985,1691,2,2,9,1.4221483946916897
basic,32,37,0,0,0,21,"[0, 18, 2, 4, 1, 20, 15, 21]",8,2,"[19, 26]",48.35860951,12740,2755,2,0,9,1.6214693768031343
basic,32,37,0,0,1,26,"[0, 18, 2, 4, 1, 20, 15, 21, 26]",9,0,[],18.62647202,14023,1283,1,0,9,1.6069045423654578
basic,32,37,0,1,1,26,"[0, 18, 2, 4, 1, 20, 15, 21, 26]",9,0,[],18.62647202,15027,1004,1,0,9,1.6069045423654578
basic,33,30,0,0,0,0,[0],1,19,"[3, 4, 5, 7, 9, 11, 16, 17, 18, 19, 20, 21, 22, 24, 25, 26, 27, 28, 29]",300,214,-1,5,41,8,0.0
basic,33,30,0,0,0,16,"[0, 16]",2,17,"[3, 5, 7, 9, 11, 17, 18, 19, 20, 21, 22, 24, 25, 26, 27, 28, 29]",219.3774225,2478,2264,5,34,8,1.0
basic,33,30,0,0,0,25,"[0, 16, 25]",3,10,"[3, 5, 7, 9, 11, 18, 19, 20, 27, 29]",115.0845656,6035,3557,5,28,8,1.0336279544884488
basic,33,30,0,0,0,20,"[0, 16, 25, 20]",4,8,"[3, 5, 7, 9, 18, 19, 27, 29]",93.15285342,7225,1190,4,14,8,1.0337964627284246
basic,33,30,0,0,0,27,"[0, 16, 25, 20, 27]",5,4,"[3, 5, 18, 29]",59.09408069,8591,1366,4,6,8,1.1504365534848
basic,33,30,0,0,0,3,"[0, 16, 25, 20, 27, 3]",6,3,"[5, 18, 29]",39.98910751,10047,1456,4,0,8,1.1403876826835333
basic,33,30,0,0,0,29,"[0, 16, 25, 20, 27, 3, 29]",7,1,[18],21.38803228,10875,828,1,0,8,1.1443827771455848
basic,33,30,0,0,1,18,"[0, 16, 25, 20, 27, 3, 29, 18]",8,0,[],2.074824359,12891,2016,1,0,8,1.2197761544023602
basic,33,30,0,1,1,18,"[0, 16, 25, 20, 27, 3, 29, 18]",8,0,[],2.074824359,14193,1302,1,0,8,1.2197761544023602
basic,34,42,0,0,0,0,[0],1,29,"[1, 2, 3, 4, 5, 6, 7, 8, 9, 10, 11, 12, 13, 14, 15, 16, 17, 18, 19, 20, 21, 22, 23, 24, 25, 26, 27, 28, 29]",300,170,-1,16,302,9,0.0
basic,34,42,0,0,0,22,"[0, 22]",2,27,"[1, 2, 3, 4, 5, 6, 7, 8, 9, 10, 11, 12, 13, 15, 16, 17, 18, 19, 20, 21, 23, 24, 25, 26, 27, 28, 29]",211.3997743,12327,12157,5,83,9,1.0
basic,34,42,0,0,0,4,"[0, 22, 4]",3,26,"[1, 2, 3, 5, 6, 7, 8, 9, 10, 11, 12, 13, 15, 16, 17, 18, 19, 20, 21, 23, 24, 25, 26, 27, 28, 29]",200.2194344,13110,783,4,51,9,1.1029012260448476
basic,34,42,0,0,0,8,"[0, 22, 4, 8]",4,21,"[1, 2, 3, 5, 6, 7, 10, 11, 15, 17, 18, 19, 20, 21, 23, 24, 25, 26, 27, 28, 29]",171.0132706,17028,3918,1,27,9,1.1996819201170703
basic,34,42,0,0,0,1,"[0, 22, 4, 8, 1]",5,11,"[2, 5, 7, 10, 15, 18, 19, 24, 26, 27, 28]",121.9215198,18242,1214,1,21,9,1.1435510818127563
basic,34,42,0,0,0,7,"[0, 22, 4, 8, 1, 7]",6,5,"[2, 19, 26, 27, 28]",91.92151981,19274,1032,1,11,9,1.2011414919337324
basic,34,42,0,0,0,26,"[0, 22, 4, 8, 1, 7, 26]",7,3,"[2, 19, 27]",65.3508593,21239,1965,1,2,9,1.1850966702020203
basic,34,42,0,0,0,27,"[0, 22, 4, 8, 1, 7, 26, 27]",8,1,[19],47.32310292,22624,1385,1,0,9,1.1849713047461088
basic,34,42,0,0,1,19,"[0, 22, 4, 8, 1, 7, 26, 27, 19]",9,0,[],6.310909614,23791,1167,1,0,9,1.358202404449154
basic,34,42,0,1,1,19,"[0, 22, 4, 8, 1, 7, 26, 27, 19]",9,0,[],6.310909614,24444,653,1,0,9,1.358202404449154
basic,35,39,0,0,0,0,[0],1,28,"[1, 2, 3, 4, 5, 6, 7, 9, 10, 11, 12, 13, 14, 15, 16, 17, 18, 19, 20, 21, 22, 23, 24, 25, 26, 27, 28, 29]",300,180,-1,1,30,10,0.0
basic,35,39,0,0,0,29,"[0, 29]",2,26,"[1, 2, 3, 4, 5, 6, 7, 9, 10, 12, 13, 14, 15, 16, 17, 18, 19, 20, 21, 22, 23, 24, 25, 26, 27, 28]",243.0614366,2075,1895,8,104,9,1.0
basic,35,39,0,0,0,12,"[0, 29, 12]",3,18,"[1, 2, 4, 5, 7, 9, 10, 13, 14, 15, 16, 18, 19, 22, 23, 24, 26, 28]",182.5221931,3289,1214,5,54,9,1.0026200331524904
basic,35,39,0,0,0,10,"[0, 29, 12, 10]",4,16,"[1, 2, 4, 5, 7, 9, 13, 14, 15, 16, 18, 19, 22, 23, 24, 26]",147.0116313,4617,1328,5,34,9,1.2874817019928908
basic,35,39,0,0,0,7,"[0, 29, 12, 10, 7]",5,10,"[1, 2, 5, 13, 16, 18, 19, 22, 24, 26]",113.5900814,6167,1550,4,12,9,1.2250826263866774
basic,35,39,0,0,0,26,"[0, 29, 12, 10, 7, 26]",6,5,"[1, 16, 18, 19, 22]",94.90853971,7276,1109,3,4,9,1.2697275353190085
basic,35,39,0,0,0,22,"[0, 29, 12, 10, 7, 26, 22]",7,2,"[16, 19]",77.18849457,8451,1175,2,0,9,1.438961743955176
basic,35,39,0,0,0,16,"[0, 29, 12, 10, 7, 26, 22, 16]",8,1,[19],42.18849457,9411,960,1,0,9,1.3580882130477205
basic,35,39,0,0,1,19,"[0, 29, 12, 10, 7, 26, 22, 16, 19]",9,0,[],24.72424537,10404,993,1,0,9,1.3646589157842668
basic,35,39,0,1,1,19,"[0, 29, 12, 10, 7, 26, 22, 16, 19]",9,0,[],24.72424537,10845,441,1,0,9,1.3646589157842668
basic,36,20,0,0,0,0,[0],1,21,"[1, 2, 3, 4, 5, 6, 7, 8, 9, 12, 17, 18, 20, 21, 22, 23, 25, 26, 27, 28, 29]",300,161,-1,1,9,9,0.0
basic,36,20,0,0,0,12,"[0, 12]",2,20,"[1, 2, 3, 4, 5, 6, 7, 8, 9, 17, 18, 20, 21, 22, 23, 25, 26, 27, 28, 29]",271.5570747,3079,2918,1,8,9,1.0
basic,36,20,0,0,0,5,"[0, 12, 5]",3,13,"[1, 3, 4, 6, 8, 9, 20, 21, 23, 26, 27, 28, 29]",171.4321527,5825,2746,2,19,8,1.0232843285905395
basic,36,20,0,0,0,21,"[0, 12, 5, 21]",4,10,"[1, 4, 6, 8, 9, 20, 23, 26, 27, 28]",126.4321527,6832,1007,2,12,8,1.017525191374897
basic,36,20,0,0,0,8,"[0, 12, 5, 21, 8]",5,6,"[1, 6, 9, 23, 27, 28]",108.9679035,7965,1133,2,6,8,1.0391698601004782
basic,36,20,0,0,0,23,"[0, 12, 5, 21, 8, 23]",6,3,"[6, 9, 27]",64.28009758,9184,1219,2,1,8,1.0348450868606567
basic,36,20,0,0,0,9,"[0, 12, 5, 21, 8, 23, 9]",7,1,[6],45.07072487,10055,871,1,0,8,1.0335348098288684
basic,36,20,0,0,1,6,"[0, 12, 5, 21, 8, 23, 9, 6]",8,0,[],22.048996,12158,2103,1,0,8,1.0486850646228845
basic,36,20,0,1,1,6,"[0, 12, 5, 21, 8, 23, 9, 6]",8,0,[],22.048996,12844,686,1,0,8,1.0486850646228845
basic,37,10,0,0,0,0,[0],1,29,"[1, 2, 3, 4, 5, 6, 7, 8, 9, 10, 11, 12, 13, 14, 15, 16, 17, 18, 19, 20, 21, 22, 23, 24, 25, 26, 27, 28, 29]",300,198,-1,1,100,9,0.0
basic,37,10,0,0,0,13,"[0, 13]",2,25,"[1, 2, 3, 4, 6, 7, 8, 9, 10, 11, 12, 14, 17, 18, 19, 20, 21, 22, 23, 24, 25, 26, 27, 28, 29]",249.4628849,2729,2531,1,79,9,1.0
basic,37,10,0,0,0,11,"[0, 13, 11]",3,20,"[1, 2, 3, 6, 7, 8, 9, 10, 12, 14, 18, 19, 20, 21, 22, 24, 26, 27, 28, 29]",206.4512586,3613,884,1,54,9,1.0313137484914219
basic,37,10,0,0,0,26,"[0, 13, 11, 26]",4,11,"[2, 6, 8, 9, 10, 14, 18, 19, 20, 24, 27]",164.6900326,8673,5060,12,30,8,1.0216802423203832
basic,37,10,0,0,0,20,"[0, 13, 11, 26, 20]",5,8,"[2, 6, 9, 10, 14, 18, 19, 27]",132.9095354,9669,996,6,8,8,1.3804886942054004
basic,37,10,0,0,0,27,"[0, 13, 11, 26, 20, 27]",6,4,"[6, 9, 10, 18]",87.6547014,13461,3792,2,2,8,1.3635993279994467
basic,37,10,0,0,0,9,"[0, 13, 11, 26, 20, 27, 9]",7,1,[6],27.11545792,14623,1162,1,0,8,1.2670395013189537
basic,37,10,0,0,1,6,"[0, 13, 11, 26, 20, 27, 9, 6]",8,0,[],15.45355413,15638,1015,1,0,8,1.340575591823047
basic,37,10,0,1,1,6,"[0, 13, 11, 26, 20, 27, 9, 6]",8,0,[],15.45355413,16877,1239,1,0,8,1.340575591823047
basic,38,36,0,0,0,0,[0],1,24,"[2, 4, 5, 6, 7, 8, 9, 10, 12, 13, 14, 15, 16, 17, 18, 19, 20, 22, 23, 25, 26, 27, 28, 29]",300,161,-1,2,200,10,0.0
basic,38,36,0,0,0,12,"[0, 12]",2,23,"[2, 4, 5, 6, 7, 8, 9, 10, 13, 14, 15, 16, 17, 18, 19, 20, 22, 23, 25, 26, 27, 28, 29]",277.7963967,2631,2470,90,804,9,1.0
basic,38,36,0,0,0,9,"[0, 12, 9]",3,14,"[2, 4, 8, 10, 13, 16, 17, 18, 19, 23, 25, 27, 28, 29]",215.4345494,4717,2086,32,191,9,1.224429481246385
basic,38,36,0,0,0,17,"[0, 12, 9, 17]",4,11,"[2, 4, 8, 10, 13, 16, 18, 19, 23, 25, 27]",189.1857399,7708,2991,8,54,9,1.1724571624470872
basic,38,36,0,0,0,19,"[0, 12, 9, 17, 19]",5,8,"[2, 4, 10, 13, 16, 18, 23, 25]",161.2930885,9003,1295,3,14,9,1.7995682634090462
basic,38,36,0,0,0,2,"[0, 12, 9, 17, 19, 2]",6,4,"[10, 13, 16, 25]",124.1716661,10004,1001,2,3,9,1.5569787348204112
basic,38,36,0,0,0,25,"[0, 12, 9, 17, 19, 2, 25]",7,3,"[10, 13, 16]",99.17166613,11883,1879,1,2,9,1.7541097756555504
basic,38,36,0,0,0,13,"[0, 12, 9, 17, 19, 2, 25, 13]",8,1,[10],78.58040585,15737,3854,1,0,9,2.257503926583423
basic,38,36,0,0,1,10,"[0, 12, 9, 17, 19, 2, 25, 13, 10]",9,0,[],2.619889792,17187,1450,1,0,9,1.709815416525762
basic,38,36,0,1,1,10,"[0, 12, 9, 17, 19, 2, 25, 13, 10]",9,0,[],2.619889792,17642,455,1,0,9,1.709815416525762
basic,39,29,0,0,0,0,[0],1,29,"[1, 2, 3, 4, 5, 6, 7, 8, 9, 10, 11, 12, 13, 14, 15, 16, 17, 18, 19, 20, 21, 22, 23, 24, 25, 26, 27, 28, 29]",300,162,-1,1,78,9,0.0
basic,39,29,0,0,0,6,"[0, 6]",2,28,"[1, 2, 3, 4, 5, 7, 8, 9, 10, 11, 12, 13, 14, 15, 16, 17, 18, 19, 20, 21, 22, 23, 24, 25, 26, 27, 28, 29]",228.4108947,2649,2487,1,25,9,1.0
basic,39,29,0,0,0,28,"[0, 6, 28]",3,24,"[1, 3, 4, 5, 7, 9, 10, 11, 12, 13, 14, 15, 16, 17, 18, 20, 21, 22, 23, 24, 25, 26, 27, 29]",187.1798384,3756,1107,1,22,9,1.162106788166845
basic,39,29,0,0,0,27,"[0, 6, 28, 27]",4,19,"[1, 3, 4, 5, 7, 9, 10, 11, 12, 13, 14, 15, 16, 21, 22, 23, 25, 26, 29]",166.6615539,5443,1687,1,21,9,1.2307173895439045
basic,39,29,0,0,0,22,"[0, 6, 28, 27, 22]",5,13,"[1, 3, 4, 5, 7, 9, 12, 13, 14, 15, 21, 26, 29]",133.4200136,6798,1355,1,19,9,1.4241767805149903
basic,39,29,0,0,0,12,"[0, 6, 28, 27, 22, 12]",6,8,"[4, 5, 7, 9, 13, 14, 21, 26]",95.4726817,8206,1408,1,6,9,1.3248355326460857
basic,39,29,0,0,0,5,"[0, 6, 28, 27, 22, 12, 5]",7,1,[13],32.34582529,10573,2367,1,0,8,2.1540231854368908
basic,39,29,0,0,1,13,"[0, 6, 28, 27, 22, 12, 5, 13]",8,0,[],6.635905027,14435,3862,1,0,8,2.7101837951971133
basic,39,29,0,1,1,13,"[0, 6, 28, 27, 22, 12, 5, 13]",8,0,[],6.635905027,14742,307,1,0,8,2.7101837951971133
basic,40,21,0,0,0,0,[0],1,29,"[1, 2, 3, 4, 5, 6, 7, 8, 9, 10, 11, 12, 13, 14, 15, 16, 17, 18, 19, 20, 21, 22, 23, 24, 25, 26, 27, 28, 29]",300,163,-1,84,830,9,0.0
basic,40,21,0,0,0,20,"[0, 20]",2,28,"[1, 2, 3, 4, 5, 6, 7, 8, 9, 10, 11, 12, 13, 14, 15, 16, 17, 18, 19, 21, 22, 23, 24, 25, 26, 27, 28, 29]",217.6228187,2623,2460,6,67,9,1.0
basic,40,21,0,0,0,22,"[0, 20, 22]",3,23,"[2, 4, 6, 7, 8, 9, 10, 11, 12, 13, 14, 15, 16, 17, 18, 19, 21, 23, 24, 25, 26, 27, 29]",189.3916303,3758,1135,6,47,9,1.3451865712078994
basic,40,21,0,0,0,18,"[0, 20, 22, 18]",4,20,"[2, 4, 6, 7, 8, 9, 10, 11, 12, 14, 15, 16, 17, 21, 23, 24, 25, 26, 27, 29]",162.9908727,5688,1930,4,25,9,2.3191924394507706
basic,40,21,0,0,0,25,"[0, 20, 22, 18, 25]",5,9,"[4, 6, 14, 15, 16, 17, 21, 23, 29]",121.2296467,6844,1156,2,13,9,2.988651874620227
basic,40,21,0,0,0,23,"[0, 20, 22, 18, 25, 23]",6,6,"[4, 14, 15, 16, 21, 29]",77.90528862,10373,3529,2,4,9,2.2429232769784115
basic,40,21,0,0,0,21,"[0, 20, 22, 18, 25, 23, 21]",7,2,"[4, 14]",48.29110283,12157,1784,1,1,9,2.800224728307879
basic,40,21,0,0,0,14,"[0, 20, 22, 18, 25, 23, 21, 14]",8,1,[4],22.67860588,13686,1529,1,0,9,2.4211207914807917
basic,40,21,0,0,1,4,"[0, 20, 22, 18, 25, 23, 21, 14, 4]",9,0,[],8.536470258,14722,1036,1,0,9,2.278728428308114
basic,40,21,0,1,1,4,"[0, 20, 22, 18, 25, 23, 21, 14, 4]",9,0,[],8.536470258,15111,389,1,0,9,2.278728428308114
basic,41,41,0,0,0,0,[0],1,29,"[1, 2, 3, 4, 5, 6, 7, 8, 9, 10, 11, 12, 13, 14, 15, 16, 17, 18, 19, 20, 21, 22, 23, 24, 25, 26, 27, 28, 29]",300,162,-1,1,143,10,0.0
basic,41,41,0,0,0,13,"[0, 13]",2,23,"[1, 2, 3, 5, 6, 7, 9, 10, 11, 12, 14, 15, 17, 18, 19, 20, 21, 22, 24, 25, 26, 27, 28]",258.2747079,3671,3509,1,55,10,1.0
basic,41,41,0,0,0,28,"[0, 13, 28]",3,22,"[1, 2, 3, 5, 6, 7, 9, 10, 11, 12, 14, 15, 17, 18, 19, 20, 21, 22, 24, 25, 26, 27]",223.7928286,4970,1299,1,39,10,1.895724242592676
basic,41,41,0,0,0,5,"[0, 13, 28, 5]",4,19,"[1, 2, 3, 6, 9, 10, 11, 12, 14, 15, 17, 18, 19, 20, 21, 22, 24, 25, 27]",210.1913581,6454,1484,1,34,10,2.861541269398273
basic,41,41,0,0,0,3,"[0, 13, 28, 5, 3]",5,16,"[1, 2, 6, 9, 10, 12, 14, 17, 18, 19, 20, 21, 22, 24, 25, 27]",175.3632086,7712,1258,1,22,10,3.1455488489005883
basic,41,41,0,0,0,21,"[0, 13, 28, 5, 3, 21]",6,14,"[1, 2, 6, 9, 10, 12, 14, 17, 18, 19, 20, 22, 25, 27]",143.2228912,9020,1308,13,11,9,3.207558429289677
basic,41,41,0,0,0,9,"[0, 13, 28, 5, 3, 21, 9]",7,6,"[1, 2, 10, 12, 14, 17]",93.85691102,11071,2051,7,4,9,2.5050148501792275
basic,41,41,0,0,0,2,"[0, 13, 28, 5, 3, 21, 9, 2]",8,5,"[1, 10, 12, 14, 17]",81.77386505,11987,916,5,0,9,2.4119643847713177
basic,41,41,0,0,1,17,"[0, 13, 28, 5, 3, 21, 9, 2, 17]",9,0,[],49.21622385,13119,1132,1,0,9,3.9563478735796007
basic,41,41,0,1,1,17,"[0, 13, 28, 5, 3, 21, 9, 2, 17]",9,0,[],49.21622385,16360,3241,1,0,9,3.9563478735796007
basic,42,1,0,0,0,0,[0],1,26,"[1, 2, 4, 5, 7, 8, 9, 10, 11, 12, 13, 14, 15, 16, 17, 18, 19, 20, 21, 22, 23, 24, 25, 26, 28, 29]",300,161,-1,6,74,7,0.0
basic,42,1,0,0,0,14,"[0, 14]",2,19,"[1, 4, 5, 8, 9, 13, 15, 17, 18, 19, 20, 21, 22, 23, 24, 25, 26, 28, 29]",200.1901808,2154,1993,5,42,7,1.0
basic,42,1,0,0,0,17,"[0, 14, 17]",3,15,"[1, 4, 5, 8, 9, 13, 15, 18, 19, 20, 22, 23, 25, 28, 29]",147.8356204,5274,3120,5,27,7,1.0028844724416826
basic,42,1,0,0,0,1,"[0, 14, 17, 1]",4,12,"[4, 5, 8, 9, 15, 18, 20, 22, 23, 25, 28, 29]",123.4840291,6356,1082,5,15,7,1.0264985578353567
basic,42,1,0,0,0,28,"[0, 14, 17, 1, 28]",5,5,"[9, 15, 22, 23, 29]",88.59850198,7471,1115,5,3,7,1.0339861575999345
basic,42,1,0,0,0,23,"[0, 14, 17, 1, 28, 23]",6,2,"[15, 22]",51.70676849,8586,1115,2,0,7,1.0327458250705703
basic,42,1,0,0,1,15,"[0, 14, 17, 1, 28, 23, 15]",7,0,[],20.81987807,9522,936,1,0,7,1.1948681641401226
basic,42,1,0,1,1,15,"[0, 14, 17, 1, 28, 23, 15]",7,0,[],20.81987807,10260,738,1,0,7,1.1948681641401226
basic,43,34,0,0,0,0,[0],1,25,"[1, 3, 4, 5, 6, 7, 8, 9, 10, 11, 12, 13, 15, 18, 19, 20, 21, 22, 23, 24, 25, 26, 27, 28, 29]",300,151,-1,12,367,10,0.0
basic,43,34,0,0,0,1,"[0, 1]",2,17,"[3, 5, 7, 8, 9, 10, 11, 12, 13, 19, 21, 22, 23, 24, 25, 27, 29]",211.9488785,2360,2209,3,92,9,1.0
basic,43,34,0,0,0,8,"[0, 1, 8]",3,15,"[3, 5, 7, 9, 10, 11, 12, 13, 19, 22, 23, 24, 25, 27, 29]",201.1785489,3354,994,2,54,9,1.1626053070588234
basic,43,34,0,0,0,25,"[0, 1, 8, 25]",4,13,"[3, 5, 7, 9, 10, 11, 12, 13, 22, 23, 24, 27, 29]",184.0905414,4326,972,2,28,9,1.1387228631211366
basic,43,34,0,0,0,24,"[0, 1, 8, 25, 24]",5,12,"[3, 5, 7, 9, 10, 11, 12, 13, 22, 23, 27, 29]",166.5976857,5393,1067,2,23,9,1.3732398141694295
basic,43,34,0,0,0,12,"[0, 1, 8, 25, 24, 12]",6,8,"[7, 9, 10, 11, 13, 22, 23, 27]",115.5584851,7587,2194,1,8,9,1.4986827355404062
basic,43,34,0,0,0,7,"[0, 1, 8, 25, 24, 12, 7]",7,5,"[9, 11, 22, 23, 27]",100.5251887,9087,1500,1,4,9,1.7581869303627529
basic,43,34,0,0,0,23,"[0, 1, 8, 25, 24, 12, 7, 23]",8,1,[27],72.36493302,13054,3967,1,0,9,2.3988180441149956
basic,43,34,0,0,1,27,"[0, 1, 8, 25, 24, 12, 7, 23, 27]",9,0,[],18.69930156,14385,1331,1,0,9,4.765071474059221
basic,43,34,0,1,1,27,"[0, 1, 8, 25, 24, 12, 7, 23, 27]",9,0,[],18.69930156,15343,958,1,0,9,4.765071474059221
basic,44,18,0,0,0,0,[0],1,28,"[1, 2, 3, 4, 5, 6, 7, 8, 9, 10, 11, 12, 13, 14, 16, 17, 18, 19, 20, 21, 22, 23, 24, 25, 26, 27, 28, 29]",300,162,-1,3,136,10,0.0
basic,44,18,0,0,0,28,"[0, 28]",2,16,"[1, 3, 5, 7, 8, 9, 12, 13, 14, 16, 20, 23, 24, 25, 26, 27]",236.4311397,3632,3470,2,19,10,1.0
basic,44,18,0,0,0,7,"[0, 28, 7]",3,15,"[1, 3, 5, 8, 9, 12, 13, 14, 16, 20, 23, 24, 25, 26, 27]",214.4084242,4730,1098,2,17,10,1.4345180696367563
basic,44,18,0,0,0,25,"[0, 28, 7, 25]",4,13,"[1, 3, 5, 8, 9, 12, 13, 14, 16, 20, 23, 26, 27]",186.6055466,6753,2023,2,15,10,1.8896451241781882
basic,44,18,0,0,0,8,"[0, 28, 7, 25, 8]",5,10,"[3, 5, 9, 12, 13, 14, 16, 23, 26, 27]",149.551532,8638,1885,2,10,10,1.590467437592877
basic,44,18,0,0,0,13,"[0, 28, 7, 25, 8, 13]",6,9,"[3, 5, 9, 12, 14, 16, 23, 26, 27]",128.4565089,11219,2581,2,5,10,1.8248274983549797
basic,44,18,0,0,0,14,"[0, 28, 7, 25, 8, 13, 14]",7,7,"[3, 5, 9, 12, 23, 26, 27]",109.4828429,13129,1910,2,3,10,1.6993534956692746
basic,44,18,0,0,0,3,"[0, 28, 7, 25, 8, 13, 14, 3]",8,3,"[5, 12, 27]",79.39962499,14620,1491,2,1,10,1.802637206541468
basic,44,18,0,0,0,5,"[0, 28, 7, 25, 8, 13, 14, 3, 5]",9,1,[12],21.21887216,15897,1277,1,0,10,1.559774889743805
basic,44,18,0,0,1,12,"[0, 28, 7, 25, 8, 13, 14, 3, 5, 12]",10,0,[],9.817117911,18142,2245,1,0,10,1.563993037384447
basic,44,18,0,1,1,12,"[0, 28, 7, 25, 8, 13, 14, 3, 5, 12]",10,0,[],9.817117911,18493,351,1,0,10,1.563993037384447
basic,45,32,0,0,0,0,[0],1,29,"[1, 2, 3, 4, 5, 6, 7, 8, 9, 10, 11, 12, 13, 14, 15, 16, 17, 18, 19, 20, 21, 22, 23, 24, 25, 26, 27, 28, 29]",300,280,-1,17,359,10,0.0
basic,45,32,0,0,0,19,"[0, 19]",2,28,"[1, 2, 3, 4, 5, 6, 7, 8, 9, 10, 11, 12, 13, 14, 15, 16, 17, 18, 20, 21, 22, 23, 24, 25, 26, 27, 28, 29]",283.5075775,3989,3709,16,294,10,1.0
basic,45,32,0,0,0,13,"[0, 19, 13]",3,24,"[2, 3, 4, 5, 6, 8, 9, 10, 11, 12, 14, 15, 16, 17, 18, 20, 21, 22, 23, 24, 25, 26, 27, 28]",260.3127505,6222,2233,14,227,10,1.0172874229878615
basic,45,32,0,0,0,15,"[0, 19, 13, 15]",4,18,"[2, 3, 5, 8, 9, 10, 11, 12, 16, 17, 20, 22, 23, 24, 25, 26, 27, 28]",177.4393531,7375,1153,9,116,10,1.435447391509833
basic,45,32,0,0,0,28,"[0, 19, 13, 15, 28]",5,17,"[2, 3, 5, 8, 9, 10, 11, 12, 16, 17, 20, 22, 23, 24, 25, 26, 27]",166.0375988,8416,1041,9,70,10,1.3843701324937985
basic,45,32,0,0,0,12,"[0, 19, 13, 15, 28, 12]",6,14,"[2, 3, 5, 8, 9, 10, 11, 16, 17, 20, 22, 24, 26, 27]",147.0639329,11622,3206,6,35,10,1.358372254952329
basic,45,32,0,0,0,16,"[0, 19, 13, 15, 28, 12, 16]",7,13,"[2, 3, 5, 8, 9, 10, 11, 17, 20, 22, 24, 26, 27]",131.411457,15219,3597,5,15,10,1.4356932930709845
basic,45,32,0,0,0,27,"[0, 19, 13, 15, 28, 12, 16, 27]",8,2,"[3, 11]",55.13564171,17731,2512,2,0,10,1.3380566026775955
basic,45,32,0,0,0,3,"[0, 19, 13, 15, 28, 12, 16, 27, 3]",9,1,[11],29.64054414,20605,2874,1,0,10,1.3269345554887129
basic,45,32,0,0,1,11,"[0, 19, 13, 15, 28, 12, 16, 27, 3, 11]",10,0,[],14.02004479,22071,1466,1,0,10,1.356452519014518
basic,45,32,0,1,1,11,"[0, 19, 13, 15, 28, 12, 16, 27, 3, 11]",10,0,[],14.02004479,22943,872,1,0,10,1.356452519014518
basic,46,7,0,0,0,0,[0],1,29,"[1, 2, 3, 4, 5, 6, 7, 8, 9, 10, 11, 12, 13, 14, 15, 16, 17, 18, 19, 20, 21, 22, 23, 24, 25, 26, 27, 28, 29]",300,165,-1,3,79,9,0.0
basic,46,7,0,0,0,15,"[0, 15]",2,19,"[2, 4, 5, 6, 7, 8, 9, 10, 13, 14, 16, 18, 19, 20, 21, 23, 25, 27, 28]",230.9348134,3490,3325,2,38,9,1.0
basic,46,7,0,0,0,6,"[0, 15, 6]",3,18,"[2, 4, 5, 7, 8, 9, 10, 13, 14, 16, 18, 19, 20, 21, 23, 25, 27, 28]",205.854941,4789,1299,2,36,9,1.366719602896943
basic,46,7,0,0,0,4,"[0, 15, 6, 4]",4,8,"[2, 7, 13, 16, 18, 19, 20, 25]",123.3625171,5857,1068,8,24,8,1.2578516160075839
basic,46,7,0,0,0,25,"[0, 15, 6, 4, 25]",5,6,"[7, 13, 16, 18, 19, 20]",98.62388334,6741,884,2,4,8,1.7007244483303274
basic,46,7,0,0,0,18,"[0, 15, 6, 4, 25, 18]",6,3,"[7, 19, 20]",70.30427883,9278,2537,1,2,8,1.604342767269379
basic,46,7,0,0,0,20,"[0, 15, 6, 4, 25, 18, 20]",7,1,[7],57.49803035,12307,3029,1,0,8,1.6176146896453236
basic,46,7,0,0,1,7,"[0, 15, 6, 4, 25, 18, 20, 7]",8,0,[],17.00111689,13773,1466,1,0,8,1.5469733004173831
basic,46,7,0,1,1,7,"[0, 15, 6, 4, 25, 18, 20, 7]",8,0,[],17.00111689,14130,357,1,0,8,1.5469733004173831
basic,47,4,0,0,0,0,[0],1,26,"[3, 4, 5, 6, 7, 8, 10, 11, 12, 13, 14, 15, 16, 17, 18, 19, 20, 21, 22, 23, 24, 25, 26, 27, 28, 29]",300,162,-1,4,489,10,0.0
basic,47,4,0,0,0,28,"[0, 28]",2,21,"[3, 4, 5, 6, 10, 11, 12, 13, 14, 15, 16, 17, 19, 20, 21, 22, 23, 24, 25, 26, 27]",225.9392142,2651,2489,2,216,10,1.0
basic,47,4,0,0,0,14,"[0, 28, 14]",3,13,"[3, 4, 5, 6, 11, 13, 16, 17, 20, 21, 22, 24, 25]",159.6972335,4093,1442,1,26,10,1.0273973946789214
basic,47,4,0,0,0,25,"[0, 28, 14, 25]",4,12,"[3, 4, 5, 6, 11, 13, 16, 17, 20, 21, 22, 24]",143.572718,5006,913,1,25,10,1.233547772313525
basic,47,4,0,0,0,11,"[0, 28, 14, 25, 11]",5,10,"[3, 4, 5, 6, 13, 16, 17, 20, 21, 22]",124.7844238,6024,1018,1,15,10,1.425978575879479
basic,47,4,0,0,0,16,"[0, 28, 14, 25, 11, 16]",6,9,"[3, 4, 5, 6, 13, 17, 20, 21, 22]",109.7844238,7088,1064,1,12,10,1.3799325158051412
basic,47,4,0,0,0,21,"[0, 28, 14, 25, 11, 16, 21]",7,4,"[5, 17, 20, 22]",65.58035157,11604,4516,3,3,9,1.5860540591673642
basic,47,4,0,0,0,22,"[0, 28, 14, 25, 11, 16, 21, 22]",8,3,"[5, 17, 20]",54.53499056,12884,1280,3,0,9,1.5471132483772176
basic,47,4,0,0,1,20,"[0, 28, 14, 25, 11, 16, 21, 22, 20]",9,0,[],24.30255764,14502,1618,1,0,9,1.5087977616865345
basic,47,4,0,1,1,20,"[0, 28, 14, 25, 11, 16, 21, 22, 20]",9,0,[],24.30255764,16226,1724,1,0,9,1.5087977616865345
basic,48,38,0,0,0,0,[0],1,29,"[1, 2, 3, 4, 5, 6, 7, 8, 9, 10, 11, 12, 13, 14, 15, 16, 17, 18, 19, 20, 21, 22, 23, 24, 25, 26, 27, 28, 29]",300,160,-1,33,506,9,0.0
basic,48,38,0,0,0,19,"[0, 19]",2,23,"[3, 4, 5, 6, 7, 8, 9, 11, 13, 14, 15, 16, 17, 18, 20, 22, 23, 24, 25, 26, 27, 28, 29]",219.5015528,2754,2594,6,61,9,1.0
basic,48,38,0,0,0,17,"[0, 19, 17]",3,21,"[3, 4, 5, 6, 7, 9, 11, 13, 14, 15, 16, 18, 20, 22, 23, 24, 25, 26, 27, 28, 29]",198.1239945,4320,1566,6,53,9,1.571793785769489
basic,48,38,0,0,0,20,"[0, 19, 17, 20]",4,17,"[3, 4, 5, 6, 7, 11, 13, 14, 15, 16, 18, 22, 24, 25, 26, 27, 28]",174.3542658,5158,838,6,44,9,2.333182710277297
basic,48,38,0,0,0,4,"[0, 19, 17, 20, 4]",5,10,"[5, 11, 13, 14, 15, 16, 24, 26, 27, 28]",140.4131403,7420,2262,5,22,9,2.276099229646013
basic,48,38,0,0,0,15,"[0, 19, 17, 20, 4, 15]",6,8,"[5, 11, 13, 14, 16, 24, 26, 28]",114.4131403,9137,1717,5,6,9,2.5292671156176403
basic,48,38,0,0,0,11,"[0, 19, 17, 20, 4, 15, 11]",7,2,"[16, 28]",78.01259089,13662,4525,2,0,9,2.778100109749787
basic,48,38,0,0,0,16,"[0, 19, 17, 20, 4, 15, 11, 16]",8,1,[28],41.01259089,15080,1418,1,0,9,2.366983861907762
basic,48,38,0,0,1,28,"[0, 19, 17, 20, 4, 15, 11, 16, 28]",9,0,[],12.01259089,16451,1371,1,0,9,2.696657905347566
basic,48,38,0,1,1,28,"[0, 19, 17, 20, 4, 15, 11, 16, 28]",9,0,[],12.01259089,18724,2273,1,0,9,2.696657905347566
basic,49,8,0,0,0,0,[0],1,29,"[1, 2, 3, 4, 5, 6, 7, 8, 9, 10, 11, 12, 13, 14, 15, 16, 17, 18, 19, 20, 21, 22, 23, 24, 25, 26, 27, 28, 29]",300,162,-1,10,149,9,0.0
basic,49,8,0,0,0,5,"[0, 5]",2,28,"[1, 2, 3, 4, 6, 7, 8, 9, 10, 11, 12, 13, 14, 15, 16, 17, 18, 19, 20, 21, 22, 23, 24, 25, 26, 27, 28, 29]",254.5137383,4455,4293,10,100,9,1.0
basic,49,8,0,0,0,14,"[0, 5, 14]",3,20,"[1, 2, 3, 4, 6, 7, 11, 15, 16, 17, 18, 19, 20, 21, 22, 23, 24, 25, 28, 29]",214.5512559,7385,2930,4,36,9,1.0001019035932595
basic,49,8,0,0,0,17,"[0, 5, 14, 17]",4,15,"[1, 4, 6, 7, 11, 15, 16, 18, 19, 20, 22, 23, 24, 25, 28]",177.5377449,11236,3851,4,16,9,1.121197267659591
basic,49,8,0,0,0,11,"[0, 5, 14, 17, 11]",5,11,"[1, 4, 15, 16, 18, 19, 22, 23, 24, 25, 28]",152.3583883,12188,952,4,8,9,1.1277254166016362
basic,49,8,0,0,0,24,"[0, 5, 14, 17, 11, 24]",6,3,"[15, 16, 28]",115.1428001,13939,1751,2,2,9,1.1227411011978805
basic,49,8,0,0,0,16,"[0, 5, 14, 17, 11, 24, 16]",7,1,[28],47.36374732,17669,3730,1,0,8,1.3644855154678464
basic,49,8,0,0,1,28,"[0, 5, 14, 17, 11, 24, 16, 28]",8,0,[],25.00306754,19608,1939,1,0,8,1.6325828137417755
basic,49,8,0,1,1,28,"[0, 5, 14, 17, 11, 24, 16, 28]",8,0,[],25.00306754,19977,369,1,0,8,1.6325828137417755
basic,50,13,0,0,0,0,[0],1,29,"[1, 2, 3, 4, 5, 6, 7, 8, 9, 10, 11, 12, 13, 14, 15, 16, 17, 18, 19, 20, 21, 22, 23, 24, 25, 26, 27, 28, 29]",300,163,-1,60,2676,11,0.0
basic,50,13,0,0,0,28,"[0, 28]",2,24,"[1, 2, 3, 4, 6, 7, 8, 9, 10, 11, 12, 13, 15, 16, 17, 19, 20, 21, 22, 23, 24, 26, 27, 29]",226.3182519,2391,2228,12,378,10,1.0
basic,50,13,0,0,0,2,"[0, 28, 2]",3,20,"[1, 3, 4, 6, 7, 9, 11, 12, 13, 15, 16, 17, 19, 20, 21, 23, 24, 26, 27, 29]",188.6751915,5385,2994,9,174,10,1.0158286399660754
basic,50,13,0,0,0,7,"[0, 28, 2, 7]",4,19,"[1, 3, 4, 6, 9, 11, 12, 13, 15, 16, 17, 19, 20, 21, 23, 24, 26, 27, 29]",163.1800939,8075,2690,26,158,9,1.299808605225309
basic,50,13,0,0,0,26,"[0, 28, 2, 7, 26]",5,18,"[1, 3, 4, 6, 9, 11, 12, 13, 15, 16, 17, 19, 20, 21, 23, 24, 27, 29]",152.7397874,11619,3544,14,60,9,1.5392306119491683
basic,50,13,0,0,0,6,"[0, 28, 2, 7, 26, 6]",6,14,"[1, 3, 4, 11, 13, 15, 16, 17, 19, 20, 23, 24, 27, 29]",132.6400362,13856,2237,8,22,9,1.5413919601841903
basic,50,13,0,0,0,16,"[0, 28, 2, 7, 26, 6, 16]",7,5,"[3, 4, 20, 23, 27]",59.08733396,15757,1901,2,4,9,2.6172248219700296
basic,50,13,0,0,0,3,"[0, 28, 2, 7, 26, 6, 16, 3]",8,2,"[4, 20]",30.64440865,19636,3879,2,0,9,2.6450666327993924
basic,50,13,0,0,1,20,"[0, 28, 2, 7, 26, 6, 16, 3, 20]",9,0,[],11.61811106,20711,1075,1,0,9,2.6212203120631266
basic,50,13,0,1,1,20,"[0, 28, 2, 7, 26, 6, 16, 3, 20]",9,0,[],11.61811106,21060,349,1,0,9,2.6212203120631266
basic,51,15,0,0,0,0,[0],1,25,"[1, 2, 3, 4, 7, 8, 9, 10, 11, 12, 13, 14, 15, 16, 18, 20, 21, 22, 23, 24, 25, 26, 27, 28, 29]",300,281,-1,4,65,9,0.0
basic,51,15,0,0,0,7,"[0, 7]",2,23,"[1, 3, 4, 8, 9, 10, 11, 12, 13, 14, 15, 16, 18, 20, 21, 22, 23, 24, 25, 26, 27, 28, 29]",215.1884442,3905,3624,30,107,8,1.0
basic,51,15,0,0,0,11,"[0, 7, 11]",3,18,"[3, 4, 8, 9, 10, 12, 13, 14, 15, 16, 18, 20, 21, 22, 23, 25, 27, 29]",173.7035072,5007,1102,12,34,8,1.0171318876095128
basic,51,15,0,0,0,3,"[0, 7, 11, 3]",4,13,"[4, 10, 12, 13, 14, 15, 16, 18, 20, 21, 22, 25, 27]",162.3017529,6123,1116,7,21,8,1.0401878806820521
basic,51,15,0,0,0,16,"[0, 7, 11, 3, 16]",5,9,"[4, 10, 12, 13, 14, 15, 18, 21, 22]",137.2218805,7080,957,5,6,8,1.4258499651326737
basic,51,15,0,0,0,22,"[0, 7, 11, 3, 16, 22]",6,4,"[4, 13, 14, 15]",78.36612462,8293,1213,2,2,8,1.284645195326425
basic,51,15,0,0,0,15,"[0, 7, 11, 3, 16, 22, 15]",7,1,[13],52.75362767,10189,1896,1,0,8,1.2590218300860974
basic,51,15,0,0,1,13,"[0, 7, 11, 3, 16, 22, 15, 13]",8,0,[],37.48929015,11313,1124,1,0,8,1.3103278820622872
basic,51,15,0,1,1,13,"[0, 7, 11, 3, 16, 22, 15, 13]",8,0,[],37.48929015,11613,300,1,0,8,1.3103278820622872
basic,52,27,0,0,0,0,[0],1,26,"[1, 3, 5, 6, 7, 8, 9, 10, 11, 12, 13, 14, 15, 16, 17, 18, 19, 21, 22, 23, 24, 25, 26, 27, 28, 29]",300,163,-1,13,578,11,0.0
basic,52,27,0,0,0,15,"[0, 15]",2,24,"[1, 3, 5, 6, 7, 8, 9, 10, 11, 12, 13, 14, 16, 17, 18, 19, 21, 22, 23, 24, 25, 26, 27, 29]",263.7508621,1894,1731,6,219,11,1.0
basic,52,27,0,0,0,24,"[0, 15, 24]",3,20,"[1, 5, 6, 7, 8, 9, 10, 12, 13, 14, 16, 17, 18, 19, 21, 23, 25, 26, 27, 29]",246.5462115,2795,901,6,130,11,1.130933077698322
basic,52,27,0,0,0,17,"[0, 15, 24, 17]",4,15,"[1, 6, 8, 10, 12, 13, 14, 16, 18, 19, 23, 25, 26, 27, 29]",229.9932662,4780,1985,4,60,11,1.1285538435963374
basic,52,27,0,0,0,12,"[0, 15, 24, 17, 12]",5,14,"[1, 6, 8, 10, 13, 14, 16, 18, 19, 23, 25, 26, 27, 29]",218.8129263,6067,1287,2,32,11,1.2561880288755216
basic,52,27,0,0,0,10,"[0, 15, 24, 17, 12, 10]",6,11,"[1, 8, 13, 14, 18, 19, 23, 25, 26, 27, 29]",207.7675653,7261,1194,2,28,11,1.2228289337766665
basic,52,27,0,0,0,13,"[0, 15, 24, 17, 12, 10, 13]",7,9,"[1, 8, 14, 18, 19, 23, 26, 27, 29]",167.9178476,8133,872,2,18,11,1.3421291994761178
basic,52,27,0,0,0,19,"[0, 15, 24, 17, 12, 10, 13, 19]",8,5,"[1, 8, 14, 23, 29]",131.6825057,9193,1060,2,6,11,1.294749956153846
basic,52,27,0,0,0,8,"[0, 15, 24, 17, 12, 10, 13, 19, 8]",9,3,"[14, 23, 29]",116.816437,10511,1318,2,1,11,1.3554286578836865
basic,52,27,0,0,0,14,"[0, 15, 24, 17, 12, 10, 13, 19, 8, 14]",10,1,[29],59.25777126,14521,4010,1,0,11,1.312380420632942
basic,52,27,0,0,1,29,"[0, 15, 24, 17, 12, 10, 13, 19, 8, 14, 29]",11,0,[],14.96330208,16435,1914,1,0,11,1.4680136813839417
basic,52,27,0,1,1,29,"[0, 15, 24, 17, 12, 10, 13, 19, 8, 14, 29]",11,0,[],14.96330208,16728,293,1,0,11,1.4680136813839417
basic,53,35,0,0,0,0,[0],1,29,"[1, 2, 3, 4, 5, 6, 7, 8, 9, 10, 11, 12, 13, 14, 15, 16, 17, 18, 19, 20, 21, 22, 23, 24, 25, 26, 27, 28, 29]",300,167,-1,5,236,11,0.0
basic,53,35,0,0,0,24,"[0, 24]",2,27,"[1, 2, 4, 5, 6, 7, 8, 9, 10, 11, 12, 13, 14, 15, 16, 17, 18, 19, 20, 21, 22, 23, 25, 26, 27, 28, 29]",268.9838752,5859,5692,49,512,10,1.0
basic,53,35,0,0,0,17,"[0, 24, 17]",3,26,"[1, 2, 4, 5, 6, 7, 8, 9, 10, 11, 12, 13, 14, 15, 16, 18, 19, 20, 21, 22, 23, 25, 26, 27, 28, 29]",257.2791753,6911,1052,33,238,10,1.0771477201815276
basic,53,35,0,0,0,1,"[0, 24, 17, 1]",4,25,"[2, 4, 5, 6, 7, 8, 9, 10, 11, 12, 13, 14, 15, 16, 18, 19, 20, 21, 22, 23, 25, 26, 27, 28, 29]",241.4677869,7709,798,26,151,10,1.2244804141479215
basic,53,35,0,0,0,15,"[0, 24, 17, 1, 15]",5,23,"[2, 4, 5, 6, 7, 8, 9, 10, 11, 12, 14, 16, 18, 19, 20, 21, 22, 23, 25, 26, 27, 28, 29]",218.6204676,8513,804,26,78,10,1.4642196672428094
basic,53,35,0,0,0,23,"[0, 24, 17, 1, 15, 23]",6,11,"[4, 5, 6, 9, 18, 19, 25, 26, 27, 28, 29]",158.1804147,11991,3478,15,12,10,1.3338903684702363
basic,53,35,0,0,0,6,"[0, 24, 17, 1, 15, 23, 6]",7,4,"[5, 9, 18, 25]",112.5295658,14203,2212,4,2,10,1.2397059724630664
basic,53,35,0,0,0,25,"[0, 24, 17, 1, 15, 23, 6, 25]",8,2,"[9, 18]",88.50874155,15291,1088,2,0,10,1.305974427386027
basic,53,35,0,0,0,18,"[0, 24, 17, 1, 15, 23, 6, 25, 18]",9,1,[9],54.67089291,16854,1563,1,0,10,1.9072277988119046
basic,53,35,0,0,1,9,"[0, 24, 17, 1, 15, 23, 6, 25, 18, 9]",10,0,[],34.64590852,18035,1181,1,0,10,2.3604988633102257
basic,53,35,0,1,1,9,"[0, 24, 17, 1, 15, 23, 6, 25, 18, 9]",10,0,[],34.64590852,18561,526,1,0,10,2.3604988633102257
basic,54,45,0,0,0,0,[0],1,24,"[1, 2, 3, 4, 5, 6, 7, 9, 10, 11, 12, 14, 15, 16, 17, 19, 20, 21, 22, 23, 24, 25, 27, 29]",300,289,-1,6,248,10,0.0
basic,54,45,0,0,0,15,"[0, 15]",2,23,"[1, 2, 3, 4, 5, 6, 7, 9, 10, 11, 12, 14, 16, 17, 19, 20, 21, 22, 23, 24, 25, 27, 29]",253.9022777,3227,2938,5,207,10,1.0
basic,54,45,0,0,0,23,"[0, 15, 23]",3,22,"[1, 2, 3, 4, 5, 6, 7, 9, 10, 11, 12, 14, 16, 17, 19, 20, 21, 22, 24, 25, 27, 29]",230.3014303,3994,767,5,163,10,1.0006068457769497
basic,54,45,0,0,0,20,"[0, 15, 23, 20]",4,19,"[1, 2, 3, 5, 6, 7, 9, 10, 11, 12, 14, 16, 17, 19, 21, 22, 24, 25, 29]",188.8647316,5392,1398,5,137,10,1.2062119754673604
basic,54,45,0,0,0,7,"[0, 15, 23, 20, 7]",5,14,"[2, 3, 5, 6, 9, 10, 12, 14, 17, 19, 21, 22, 24, 29]",137.2410936,6625,1233,3,38,10,1.2267717168083891
basic,54,45,0,0,0,2,"[0, 15, 23, 20, 7, 2]",6,8,"[3, 6, 10, 12, 19, 22, 24, 29]",99.22793795,7524,899,3,20,10,1.1978549169009853
basic,54,45,0,0,0,3,"[0, 15, 23, 20, 7, 2, 3]",7,5,"[6, 10, 12, 22, 29]",73.90996014,8656,1132,2,7,10,1.2603420042999722
basic,54,45,0,0,0,29,"[0, 15, 23, 20, 7, 2, 3, 29]",8,3,"[6, 10, 12]",53.90996014,10090,1434,2,1,10,1.527949676112761
basic,54,45,0,0,0,10,"[0, 15, 23, 20, 7, 2, 3, 29, 10]",9,1,[6],32.36930092,10909,819,1,0,10,1.8188082660591487
basic,54,45,0,0,1,6,"[0, 15, 23, 20, 7, 2, 3, 29, 10, 6]",10,0,[],6.120491419,11743,834,1,0,10,1.7062675391073039
basic,54,45,0,1,1,6,"[0, 15, 23, 20, 7, 2, 3, 29, 10, 6]",10,0,[],6.120491419,12096,353,1,0,10,1.7062675391073039
basic,55,26,0,0,0,0,[0],1,29,"[1, 2, 3, 4, 5, 6, 7, 8, 9, 10, 11, 12, 13, 14, 15, 16, 17, 18, 19, 20, 21, 22, 23, 24, 25, 26, 27, 28, 29]",300,230,-1,9,226,9,0.0
basic,55,26,0,0,0,21,"[0, 21]",2,25,"[2, 3, 4, 5, 6, 7, 8, 10, 11, 12, 13, 14, 15, 16, 17, 18, 19, 22, 23, 24, 25, 26, 27, 28, 29]",211.1349337,6310,6080,7,90,9,1.0
basic,55,26,0,0,0,13,"[0, 21, 13]",3,21,"[3, 4, 5, 6, 7, 8, 10, 11, 12, 14, 15, 16, 17, 18, 19, 22, 23, 24, 25, 26, 29]",188.9989901,8293,1983,6,45,9,1.0103952279992225
basic,55,26,0,0,0,5,"[0, 21, 13, 5]",4,12,"[3, 4, 11, 14, 16, 17, 18, 22, 23, 25, 26, 29]",150.7106107,9404,1111,2,10,8,1.0086890649024711
basic,55,26,0,0,0,23,"[0, 21, 13, 5, 23]",5,8,"[3, 4, 11, 14, 16, 17, 22, 29]",118.0150452,10640,1236,2,7,8,1.3518621918690494
basic,55,26,0,0,0,16,"[0, 21, 13, 5, 23, 16]",6,4,"[4, 14, 17, 29]",64.77971862,12598,1958,2,3,8,2.1011863559657242
basic,55,26,0,0,0,29,"[0, 21, 13, 5, 23, 16, 29]",7,2,"[4, 17]",40.57228175,13869,1271,2,0,8,2.123178325538451
basic,55,26,0,0,1,4,"[0, 21, 13, 5, 23, 16, 29, 4]",8,0,[],16.57228175,15117,1248,1,0,8,2.338467952972574
basic,55,26,0,1,1,4,"[0, 21, 13, 5, 23, 16, 29, 4]",8,0,[],16.57228175,16911,1794,1,0,8,2.338467952972574
basic,56,11,0,0,0,0,[0],1,25,"[1, 2, 3, 4, 5, 6, 8, 9, 10, 11, 12, 13, 14, 15, 16, 17, 18, 19, 20, 22, 23, 25, 26, 27, 28]",300,180,-1,6,374,12,0.0
basic,56,11,0,0,0,1,"[0, 1]",2,24,"[2, 3, 4, 5, 6, 8, 9, 10, 11, 12, 13, 14, 15, 16, 17, 18, 19, 20, 22, 23, 25, 26, 27, 28]",264.6446609,2821,2641,6,217,12,1.0
basic,56,11,0,0,0,17,"[0, 1, 17]",3,17,"[2, 4, 5, 6, 8, 10, 11, 12, 15, 18, 19, 22, 23, 25, 26, 27, 28]",149.3971013,4511,1690,166,657,10,1.0239647205492373
basic,56,11,0,0,0,8,"[0, 1, 17, 8]",4,14,"[2, 4, 5, 6, 11, 12, 15, 18, 19, 22, 23, 25, 27, 28]",135.0792803,6193,1682,74,238,10,1.1357648364167585
basic,56,11,0,0,0,15,"[0, 1, 17, 8, 15]",5,11,"[2, 5, 6, 11, 12, 18, 19, 22, 25, 27, 28]",121.6256562,7023,830,46,62,10,1.1370884007549122
basic,56,11,0,0,0,11,"[0, 1, 17, 8, 15, 11]",6,8,"[2, 5, 6, 12, 19, 22, 27, 28]",103.5148859,8005,982,24,0,10,1.1333500349846208
basic,56,11,0,0,0,28,"[0, 1, 17, 8, 15, 11, 28]",7,4,"[2, 5, 19, 22]",84.09839809,9473,1468,6,0,10,1.2494062982732912
basic,56,11,0,0,0,5,"[0, 1, 17, 8, 15, 11, 28, 5]",8,2,"[2, 22]",66.20985427,10355,882,2,0,10,1.437002205535982
basic,56,11,0,0,0,2,"[0, 1, 17, 8, 15, 11, 28, 5, 2]",9,1,[22],49.20985427,11709,1354,1,0,10,1.4050805234561385
basic,56,11,0,0,1,22,"[0, 1, 17, 8, 15, 11, 28, 5, 2, 22]",10,0,[],39.15997865,12922,1213,1,0,10,1.3835184905309272
basic,56,11,0,1,1,22,"[0, 1, 17, 8, 15, 11, 28, 5, 2, 22]",10,0,[],39.15997865,13561,639,1,0,10,1.3835184905309272
basic,57,19,0,0,0,0,[0],1,29,"[1, 2, 3, 4, 5, 6, 7, 8, 9, 10, 11, 12, 13, 14, 15, 16, 17, 18, 19, 20, 21, 22, 23, 24, 25, 26, 27, 28, 29]",300,197,-1,12,149,8,0.0
basic,57,19,0,0,0,29,"[0, 29]",2,28,"[1, 2, 3, 4, 5, 6, 7, 8, 9, 10, 11, 12, 13, 14, 15, 16, 17, 18, 19, 20, 21, 22, 23, 24, 25, 26, 27, 28]",265.0715016,6773,6576,12,120,8,1.0
basic,57,19,0,0,0,9,"[0, 29, 9]",3,17,"[1, 4, 5, 6, 7, 10, 11, 12, 13, 14, 19, 20, 21, 22, 24, 27, 28]",181.7108394,8040,1267,11,65,8,1.0375842971861238
basic,57,19,0,0,0,6,"[0, 29, 9, 6]",4,12,"[4, 7, 10, 11, 13, 14, 20, 21, 22, 24, 27, 28]",140.2741407,8838,798,11,34,8,1.0389786364356892
basic,57,19,0,0,0,28,"[0, 29, 9, 6, 28]",5,5,"[4, 11, 14, 22, 27]",89.18598161,11155,2317,2,4,8,1.2864082671854424
basic,57,19,0,0,0,4,"[0, 29, 9, 6, 28, 4]",6,4,"[11, 14, 22, 27]",78.00564173,12996,1841,2,2,8,1.3470045407445053
basic,57,19,0,0,0,14,"[0, 29, 9, 6, 28, 4, 14]",7,1,[11],27.99564273,14355,1359,1,0,8,1.3006971582050546
basic,57,19,0,0,1,11,"[0, 29, 9, 6, 28, 4, 14, 11]",8,0,[],17.1789889,16652,2297,1,0,8,1.289914895833058
basic,57,19,0,1,1,11,"[0, 29, 9, 6, 28, 4, 14, 11]",8,0,[],17.1789889,17078,426,1,0,8,1.289914895833058
basic,58,9,0,0,0,0,[0],1,27,"[1, 3, 4, 5, 6, 7, 8, 9, 10, 11, 13, 14, 15, 16, 17, 18, 19, 20, 21, 22, 23, 24, 25, 26, 27, 28, 29]",300,162,-1,2,182,10,0.0
basic,58,9,0,0,0,8,"[0, 8]",2,25,"[1, 3, 4, 5, 6, 7, 9, 10, 11, 13, 14, 15, 16, 17, 18, 19, 20, 21, 22, 23, 24, 25, 26, 27, 28]",236.2191251,3928,3766,2,102,9,1.0
basic,58,9,0,0,0,23,"[0, 8, 23]",3,23,"[1, 3, 4, 5, 6, 7, 9, 10, 11, 13, 15, 16, 17, 18, 19, 20, 21, 22, 24, 25, 26, 27, 28]",214.7482146,4958,1030,30,187,8,1.431842876737407
basic,58,9,0,0,0,9,"[0, 8, 23, 9]",4,21,"[1, 3, 4, 5, 7, 10, 11, 13, 15, 16, 17, 18, 19, 20, 21, 22, 24, 25, 26, 27, 28]",192.3875348,6172,1214,18,69,8,1.4451462661765562
basic,58,9,0,0,0,28,"[0, 8, 23, 9, 28]",5,14,"[3, 4, 7, 10, 16, 17, 18, 19, 20, 21, 22, 25, 26, 27]",151.5708715,7991,1819,12,21,8,1.9983320118704992
basic,58,9,0,0,0,26,"[0, 8, 23, 9, 28, 26]",6,5,"[10, 18, 19, 20, 21]",106.7936452,9103,1112,2,3,8,1.653814898167891
basic,58,9,0,0,1,18,"[0, 8, 23, 9, 28, 26, 18]",7,0,[],45.91672016,10310,1207,1,0,7,1.4579871318351982
basic,58,9,0,1,1,18,"[0, 8, 23, 9, 28, 26, 18]",7,0,[],45.91672016,11561,1251,1,0,7,1.4579871318351982
basic,59,23,0,0,0,0,[0],1,28,"[1, 2, 3, 4, 5, 6, 7, 8, 9, 10, 11, 12, 13, 14, 15, 16, 17, 18, 19, 20, 21, 22, 23, 25, 26, 27, 28, 29]",300,182,-1,76,2626,10,0.0
basic,59,23,0,0,0,13,"[0, 13]",2,19,"[1, 2, 3, 5, 6, 7, 8, 9, 10, 12, 14, 17, 18, 19, 21, 22, 23, 27, 29]",189.3202819,2009,1827,9,168,10,1.0
basic,59,23,0,0,0,12,"[0, 13, 12]",3,16,"[1, 2, 3, 6, 7, 8, 9, 10, 14, 17, 18, 21, 22, 23, 27, 29]",177.2372359,3193,1184,9,96,10,1.0014195490503164
basic,59,23,0,0,0,2,"[0, 13, 12, 2]",4,12,"[1, 3, 6, 7, 9, 10, 14, 18, 21, 22, 27, 29]",163.3447919,4794,1601,4,30,10,1.0014394317924602
basic,59,23,0,0,0,9,"[0, 13, 12, 2, 9]",5,10,"[1, 6, 7, 10, 14, 18, 21, 22, 27, 29]",150.3063871,6409,1615,1,8,10,1.1457747074799831
basic,59,23,0,0,0,14,"[0, 13, 12, 2, 9, 14]",6,8,"[1, 6, 7, 10, 18, 22, 27, 29]",139.8660806,7354,945,1,6,10,1.1365880299138118
basic,59,23,0,0,0,29,"[0, 13, 12, 2, 9, 14, 29]",7,5,"[1, 6, 7, 10, 22]",92.43191571,8638,1284,1,3,10,1.3460297288480787
basic,59,23,0,0,0,7,"[0, 13, 12, 2, 9, 14, 29, 7]",8,2,"[1, 10]",68.34872655,9421,783,1,1,10,1.3773159292410473
basic,59,23,0,0,0,10,"[0, 13, 12, 2, 9, 14, 29, 7, 10]",9,1,[1],40.88966612,10487,1066,1,0,10,1.3556884556214648
basic,59,23,0,0,1,1,"[0, 13, 12, 2, 9, 14, 29, 7, 10, 1]",10,0,[],12.23656855,11445,958,1,0,10,1.3259861306330887
basic,59,23,0,1,1,1,"[0, 13, 12, 2, 9, 14, 29, 7, 10, 1]",10,0,[],12.23656855,12145,700,1,0,10,1.3259861306330887
basic,60,28,0,0,0,0,[0],1,27,"[1, 2, 3, 4, 5, 6, 7, 8, 9, 10, 11, 12, 13, 14, 15, 16, 17, 18, 19, 20, 22, 23, 25, 26, 27, 28, 29]",300,200,-1,2,96,9,0.0
basic,60,28,0,0,0,3,"[0, 3]",2,26,"[1, 2, 4, 5, 6, 7, 8, 9, 10, 11, 12, 13, 14, 15, 16, 17, 18, 19, 20, 22, 23, 25, 26, 27, 28, 29]",251.0817008,3301,3101,1,64,9,1.0
basic,60,28,0,0,0,5,"[0, 3, 5]",3,20,"[2, 4, 6, 7, 8, 9, 10, 11, 12, 13, 14, 15, 18, 19, 20, 23, 25, 26, 28, 29]",166.9865166,5165,1864,1,34,9,1.0203769473612083
basic,60,28,0,0,0,26,"[0, 3, 5, 26]",4,13,"[2, 4, 7, 8, 9, 12, 13, 14, 18, 19, 20, 25, 28]",134.2298379,7995,2830,1,28,9,1.0315203228799597
basic,60,28,0,0,0,19,"[0, 3, 5, 26, 19]",5,7,"[2, 7, 9, 12, 13, 14, 18]",93.22983789,12690,4695,1,17,9,1.1324645362297356
basic,60,28,0,0,0,7,"[0, 3, 5, 26, 19, 7]",6,5,"[2, 12, 13, 14, 18]",65.49898864,13872,1182,1,6,9,1.1971194919020265
basic,60,28,0,0,0,12,"[0, 3, 5, 26, 19, 7, 12]",7,2,"[13, 18]",52.3460422,14987,1115,1,1,9,1.2020762147848982
basic,60,28,0,0,0,13,"[0, 3, 5, 26, 19, 7, 12, 13]",8,1,[18],35.14139167,15773,786,1,0,9,1.39005144078531
basic,60,28,0,0,1,18,"[0, 3, 5, 26, 19, 7, 12, 13, 18]",9,0,[],10.72828044,16571,798,1,0,9,1.738787343626007
basic,60,28,0,1,1,18,"[0, 3, 5, 26, 19, 7, 12, 13, 18]",9,0,[],10.72828044,16845,274,1,0,9,1.738787343626007
basic,61,14,0,0,0,0,[0],1,29,"[1, 2, 3, 4, 5, 6, 7, 8, 9, 10, 11, 12, 13, 14, 15, 16, 17, 18, 19, 20, 21, 22, 23, 24, 25, 26, 27, 28, 29]",300,168,-1,8,157,10,0.0
basic,61,14,0,0,0,28,"[0, 28]",2,18,"[1, 2, 3, 4, 7, 8, 9, 13, 15, 17, 18, 19, 20, 22, 23, 25, 26, 27]",201.8725319,3128,2960,30,170,9,1.0
basic,61,14,0,0,0,17,"[0, 28, 17]",3,16,"[1, 2, 3, 4, 7, 8, 9, 13, 15, 18, 19, 20, 22, 23, 25, 26]",188.4189078,4080,952,18,87,9,1.032450375957012
basic,61,14,0,0,0,15,"[0, 28, 17, 15]",4,13,"[1, 2, 3, 7, 8, 13, 18, 19, 20, 22, 23, 25, 26]",163.2395512,5159,1079,9,38,9,1.6418873981807083
basic,61,14,0,0,0,18,"[0, 28, 17, 15, 18]",5,7,"[1, 7, 8, 19, 23, 25, 26]",100.1760911,6175,1016,9,20,9,1.6637556348048597
basic,61,14,0,0,0,8,"[0, 28, 17, 15, 18, 8]",6,6,"[1, 7, 19, 23, 25, 26]",86.5746206,7061,886,9,7,9,1.6287743242041242
basic,61,14,0,0,0,1,"[0, 28, 17, 15, 18, 8, 1]",7,4,"[19, 23, 25, 26]",62.97377315,11628,4567,3,2,9,1.5329066107995903
basic,61,14,0,0,0,19,"[0, 28, 17, 15, 18, 8, 1, 19]",8,2,"[23, 25]",47.74222694,13022,1394,2,0,9,1.7059638206817227
basic,61,14,0,0,1,25,"[0, 28, 17, 15, 18, 8, 1, 19, 25]",9,0,[],11.89533028,14574,1552,1,0,9,1.7601420981912959
basic,61,14,0,1,1,25,"[0, 28, 17, 15, 18, 8, 1, 19, 25]",9,0,[],11.89533028,14898,324,1,0,9,1.7601420981912959
basic,62,6,0,0,0,0,[0],1,29,"[1, 2, 3, 4, 5, 6, 7, 8, 9, 10, 11, 12, 13, 14, 15, 16, 17, 18, 19, 20, 21, 22, 23, 24, 25, 26, 27, 28, 29]",300,163,-1,180,4304,10,0.0
basic,62,6,0,0,0,3,"[0, 3]",2,28,"[1, 2, 4, 5, 6, 7, 8, 9, 10, 11, 12, 13, 14, 15, 16, 17, 18, 19, 20, 21, 22, 23, 24, 25, 26, 27, 28, 29]",266.4738908,2309,2146,90,1607,10,1.0
basic,62,6,0,0,0,10,"[0, 3, 10]",3,27,"[1, 2, 4, 5, 6, 7, 8, 9, 11, 12, 13, 14, 15, 16, 17, 18, 19, 20, 21, 22, 23, 24, 25, 26, 27, 28, 29]",215.2293789,3924,1615,8,136,10,1.0050517746249001
basic,62,6,0,0,0,24,"[0, 3, 10, 24]",4,23,"[1, 2, 4, 5, 6, 7, 8, 11, 13, 14, 16, 17, 18, 19, 20, 21, 22, 23, 25, 26, 27, 28, 29]",201.812971,4790,866,8,85,10,1.0091851911500884
basic,62,6,0,0,0,17,"[0, 3, 10, 24, 17]",5,19,"[1, 2, 4, 5, 6, 7, 8, 11, 13, 14, 16, 18, 20, 21, 22, 23, 26, 27, 29]",172.5384087,6071,1281,8,53,10,1.8060138032707682
basic,62,6,0,0,0,18,"[0, 3, 10, 24, 17, 18]",6,15,"[1, 2, 6, 7, 8, 13, 14, 16, 20, 21, 22, 23, 26, 27, 29]",158.6100204,7172,1101,7,36,10,2.3216150751946008
basic,62,6,0,0,0,16,"[0, 3, 10, 24, 17, 18, 16]",7,13,"[1, 2, 6, 7, 13, 14, 20, 21, 22, 23, 26, 27, 29]",135.2647853,9339,2167,7,21,10,2.2822729587843544
basic,62,6,0,0,0,29,"[0, 3, 10, 24, 17, 18, 16, 29]",8,7,"[6, 14, 20, 21, 22, 23, 27]",98.57691268,10604,1265,6,4,10,1.8911507070056388
basic,62,6,0,0,0,23,"[0, 3, 10, 24, 17, 18, 16, 29, 23]",9,2,"[6, 22]",51.05849519,12505,1901,2,0,10,1.8549852217940308
basic,62,6,0,0,1,6,"[0, 3, 10, 24, 17, 18, 16, 29, 23, 6]",10,0,[],15.70315613,13710,1205,1,0,10,1.7651720921259988
basic,62,6,0,1,1,6,"[0, 3, 10, 24, 17, 18, 16, 29, 23, 6]",10,0,[],15.70315613,14445,735,1,0,10,1.7651720921259988
basic,63,5,0,0,0,0,[0],1,29,"[1, 2, 3, 4, 5, 6, 7, 8, 9, 10, 11, 12, 13, 14, 15, 16, 17, 18, 19, 20, 21, 22, 23, 24, 25, 26, 27, 28, 29]",300,167,-1,5,139,9,0.0
basic,63,5,0,0,0,12,"[0, 12]",2,22,"[2, 4, 5, 6, 8, 9, 10, 13, 14, 15, 16, 17, 18, 19, 21, 22, 23, 24, 25, 26, 27, 28]",228.3062067,3039,2872,1,27,9,1.0
basic,63,5,0,0,0,25,"[0, 12, 25]",3,21,"[2, 4, 5, 6, 8, 9, 10, 13, 14, 15, 16, 17, 18, 19, 21, 22, 23, 24, 26, 27, 28]",200.5213187,5705,2666,1,20,9,1.584023303445617
basic,63,5,0,0,0,23,"[0, 12, 25, 23]",4,19,"[2, 4, 5, 6, 8, 9, 10, 13, 14, 15, 16, 17, 18, 19, 21, 22, 24, 26, 27]",182.0822298,9661,3956,1,14,9,2.3508446989254357
basic,63,5,0,0,0,24,"[0, 12, 25, 23, 24]",5,15,"[2, 4, 5, 6, 8, 9, 13, 14, 15, 17, 18, 19, 22, 26, 27]",158.995437,10789,1128,1,12,9,1.9469752046288753
basic,63,5,0,0,0,17,"[0, 12, 25, 23, 24, 17]",6,7,"[4, 5, 6, 8, 15, 18, 19]",124.0097257,11641,852,1,8,9,1.6482276497563642
basic,63,5,0,0,0,5,"[0, 12, 25, 23, 24, 17, 5]",7,4,"[4, 6, 15, 18]",80.96323916,12958,1317,1,3,9,1.4654649104389412
basic,63,5,0,0,0,4,"[0, 12, 25, 23, 24, 17, 5, 4]",8,1,[6],15.16050365,14419,1461,1,0,9,1.6255060355828674
basic,63,5,0,0,1,6,"[0, 12, 25, 23, 24, 17, 5, 4, 6]",9,0,[],3.118909076,17123,2704,1,0,9,1.7777310833772453
basic,63,5,0,1,1,6,"[0, 12, 25, 23, 24, 17, 5, 4, 6]",9,0,[],3.118909076,17595,472,1,0,9,1.7777310833772453
basic,64,22,0,0,0,0,[0],1,29,"[1, 2, 3, 4, 5, 6, 7, 8, 9, 10, 11, 12, 13, 14, 15, 16, 17, 18, 19, 20, 21, 22, 23, 24, 25, 26, 27, 28, 29]",300,166,-1,31,704,9,0.0
basic,64,22,0,0,0,16,"[0, 16]",2,21,"[1, 3, 6, 7, 8, 9, 11, 13, 14, 15, 17, 18, 19, 20, 21, 22, 24, 25, 27, 28, 29]",218.605897,4492,4326,17,147,9,1.0
basic,64,22,0,0,0,28,"[0, 16, 28]",3,13,"[6, 7, 9, 13, 14, 17, 19, 20, 21, 22, 24, 25, 29]",184.1675463,5428,936,12,61,9,1.047282311284478
basic,64,22,0,0,0,6,"[0, 16, 28, 6]",4,12,"[7, 9, 13, 14, 17, 19, 20, 21, 22, 24, 25, 29]",154.1675463,6642,1214,12,43,9,1.645645870580622
basic,64,22,0,0,0,9,"[0, 16, 28, 6, 9]",5,8,"[7, 14, 17, 19, 20, 21, 24, 29]",127.5404924,7513,871,8,17,9,1.925750226630103
basic,64,22,0,0,0,19,"[0, 16, 28, 6, 9, 19]",6,6,"[7, 14, 17, 21, 24, 29]",107.1444143,8454,941,3,7,9,2.4220750331476455
basic,64,22,0,0,0,29,"[0, 16, 28, 6, 9, 19, 29]",7,4,"[7, 14, 17, 24]",92.11111796,9289,835,2,2,9,2.6996279574991067
basic,64,22,0,0,0,14,"[0, 16, 28, 6, 9, 19, 29, 14]",8,1,[7],33.86165444,12448,3159,1,0,9,2.0544639927929462
basic,64,22,0,1,0,14,"[0, 16, 28, 6, 9, 19, 29, 14]",8,1,[7],33.86165444,13511,1063,1,0,9,2.0544639927929462
basic,65,16,0,0,0,0,[0],1,29,"[1, 2, 3, 4, 5, 6, 7, 8, 9, 10, 11, 12, 13, 14, 15, 16, 17, 18, 19, 20, 21, 22, 23, 24, 25, 26, 27, 28, 29]",300,164,-1,13,161,9,0.0
basic,65,16,0,0,0,17,"[0, 17]",2,27,"[1, 2, 3, 4, 5, 7, 8, 9, 10, 11, 12, 13, 14, 15, 16, 18, 19, 20, 21, 22, 23, 24, 25, 26, 27, 28, 29]",241.3058776,3394,3230,2,58,9,1.0
basic,65,16,0,0,0,16,"[0, 17, 16]",3,26,"[1, 2, 3, 4, 5, 7, 8, 9, 10, 11, 12, 13, 14, 15, 18, 19, 20, 21, 22, 23, 24, 25, 26, 27, 28, 29]",212.9862731,4477,1083,2,52,9,1.0529535521792848
basic,65,16,0,0,0,8,"[0, 17, 16, 8]",4,19,"[2, 3, 4, 5, 9, 12, 13, 14, 15, 19, 20, 21, 22, 23, 25, 26, 27, 28, 29]",164.6127266,6295,1818,2,38,9,1.0915134501573105
basic,65,16,0,0,0,20,"[0, 17, 16, 8, 20]",5,10,"[3, 4, 5, 9, 12, 13, 15, 19, 21, 25]",106.8372993,8669,2374,1,15,9,1.067523143001942
basic,65,16,0,0,0,25,"[0, 17, 16, 8, 20, 25]",6,7,"[3, 4, 5, 9, 12, 13, 15]",94.18818869,10271,1602,1,9,9,1.1170093326933646
basic,65,16,0,0,0,9,"[0, 17, 16, 8, 20, 25, 9]",7,5,"[3, 4, 5, 13, 15]",81.38194021,12252,1981,1,4,9,1.1095076562662525
basic,65,16,0,0,0,15,"[0, 17, 16, 8, 20, 25, 9, 15]",8,1,[5],42.48463953,14490,2238,1,0,9,1.213831159678775
basic,65,16,0,0,1,5,"[0, 17, 16, 8, 20, 25, 9, 15, 5]",9,0,[],13.0567616,16727,2237,1,0,9,1.5171779607523481
basic,65,16,0,1,1,5,"[0, 17, 16, 8, 20, 25, 9, 15, 5]",9,0,[],13.0567616,17095,368,1,0,9,1.5171779607523481
basic,66,44,0,0,0,0,[0],1,29,"[1, 2, 3, 4, 5, 6, 7, 8, 9, 10, 11, 12, 13, 14, 15, 16, 17, 18, 19, 20, 21, 22, 23, 24, 25, 26, 27, 28, 29]",300,166,-1,13,126,7,0.0
basic,66,44,0,0,0,11,"[0, 11]",2,18,"[4, 5, 6, 7, 8, 9, 12, 14, 16, 17, 19, 20, 22, 23, 24, 25, 26, 28]",152.7790776,5590,5424,5,34,7,1.0
basic,66,44,0,0,0,24,"[0, 11, 24]",3,13,"[4, 5, 7, 8, 9, 12, 14, 17, 20, 22, 23, 25, 28]",125.8532535,6824,1234,5,23,7,1.1588941745226709
basic,66,44,0,0,0,9,"[0, 11, 24, 9]",4,7,"[4, 7, 8, 12, 14, 20, 23]",93.09657483,7827,1003,2,8,7,1.3039383713641313
basic,66,44,0,0,0,4,"[0, 11, 24, 9, 4]",5,5,"[7, 12, 14, 20, 23]",73.39885923,9955,2128,2,3,7,1.2901330701441578
basic,66,44,0,0,0,7,"[0, 11, 24, 9, 4, 7]",6,1,[23],42.38273439,15329,5374,1,0,7,1.2468141312360979
basic,66,44,0,0,1,23,"[0, 11, 24, 9, 4, 7, 23]",7,0,[],23.27776121,16519,1190,1,0,7,1.2635191782769477
basic,66,44,0,1,1,23,"[0, 11, 24, 9, 4, 7, 23]",7,0,[],23.27776121,17610,1091,1,0,7,1.2635191782769477
basic,67,40,0,0,0,0,[0],1,29,"[1, 2, 3, 4, 5, 6, 7, 8, 9, 10, 11, 12, 13, 14, 15, 16, 17, 18, 19, 20, 21, 22, 23, 24, 25, 26, 27, 28, 29]",300,281,-1,8,191,9,0.0
basic,67,40,0,0,0,9,"[0, 9]",2,14,"[1, 2, 5, 6, 7, 8, 11, 17, 18, 19, 21, 22, 23, 27]",176.6711713,4490,4209,2,57,7,1.0
basic,67,40,0,0,0,18,"[0, 9, 18]",3,13,"[1, 2, 5, 6, 7, 8, 11, 17, 19, 21, 22, 23, 27]",160.1182259,5637,1147,2,34,7,1.1808679722979636
basic,67,40,0,0,0,23,"[0, 9, 18, 23]",4,9,"[1, 2, 5, 6, 8, 19, 21, 22, 27]",126.1182259,8459,2822,15,5,6,1.8332822738267238
basic,67,40,0,0,0,19,"[0, 9, 18, 23, 19]",5,5,"[2, 5, 8, 22, 27]",94.16513528,11259,2800,5,0,6,2.006355496554857
basic,67,40,0,0,1,27,"[0, 9, 18, 23, 19, 27]",6,0,[],5.773959249,17905,6646,1,0,6,1.5779427896182205
basic,67,40,0,1,1,27,"[0, 9, 18, 23, 19, 27]",6,0,[],5.773959249,18212,307,1,0,6,1.5779427896182205
basic,68,24,0,0,0,0,[0],1,29,"[1, 2, 3, 4, 5, 6, 7, 8, 9, 10, 11, 12, 13, 14, 15, 16, 17, 18, 19, 20, 21, 22, 23, 24, 25, 26, 27, 28, 29]",300,166,-1,4,76,10,0.0
basic,68,24,0,0,0,16,"[0, 16]",2,28,"[1, 2, 3, 4, 5, 6, 7, 8, 9, 10, 11, 12, 13, 14, 15, 17, 18, 19, 20, 21, 22, 23, 24, 25, 26, 27, 28, 29]",210.3562607,2373,2207,13,110,9,1.0
basic,68,24,0,0,0,22,"[0, 16, 22]",3,27,"[1, 2, 3, 4, 5, 6, 7, 8, 9, 10, 11, 12, 13, 14, 15, 17, 18, 19, 20, 21, 23, 24, 25, 26, 27, 28, 29]",192.3285043,3594,1221,7,54,9,1.0217425143037777
basic,68,24,0,0,0,8,"[0, 16, 22, 8]",4,21,"[1, 2, 3, 4, 6, 9, 10, 11, 13, 14, 15, 17, 20, 21, 23, 24, 25, 26, 27, 28, 29]",178.9120964,4372,778,4,28,9,1.0996636936037951
basic,68,24,0,0,0,15,"[0, 16, 22, 8, 15]",5,16,"[3, 4, 6, 9, 10, 11, 13, 14, 17, 23, 24, 25, 26, 27, 28, 29]",148.025206,5323,951,3,17,9,1.2704773343758617
basic,68,24,0,0,0,28,"[0, 16, 22, 8, 15, 28]",6,8,"[3, 4, 9, 11, 13, 23, 26, 27]",102.7482803,6408,1085,3,5,9,1.1981967578189556
basic,68,24,0,0,0,23,"[0, 16, 22, 8, 15, 28, 23]",7,3,"[9, 11, 27]",83.72198273,7342,934,3,1,9,1.2275650852813986
basic,68,24,0,0,0,11,"[0, 16, 22, 8, 15, 28, 23, 11]",8,2,"[9, 27]",56.79615869,8189,847,2,0,9,1.2107937989822568
basic,68,24,0,0,1,27,"[0, 16, 22, 8, 15, 28, 23, 11, 27]",9,0,[],28.99328114,9271,1082,1,0,9,1.1865620449755248
basic,68,24,0,1,1,27,"[0, 16, 22, 8, 15, 28, 23, 11, 27]",9,0,[],28.99328114,9611,340,1,0,9,1.1865620449755248
undo,69,0,0,0,0,0,[0],1,27,"[2, 3, 4, 5, 6, 7, 8, 9, 10, 11, 12, 13, 14, 15, 16, 17, 19, 20, 21, 22, 23, 24, 25, 26, 27, 28, 29]",300,182,-1,104,1136,9,0.0
undo,69,0,0,0,0,28,"[0, 28]",2,26,"[2, 3, 4, 5, 6, 7, 8, 9, 10, 11, 12, 13, 14, 15, 16, 17, 19, 20, 21, 22, 23, 24, 25, 26, 27, 29]",194.9190788,1593,1411,39,388,9,1.0
undo,69,0,0,0,0,5,"[0, 28, 5]",3,21,"[2, 3, 4, 7, 8, 9, 11, 12, 13, 14, 15, 16, 17, 19, 20, 21, 23, 24, 25, 26, 29]",151.2613189,2826,1233,27,210,9,1.0978295127671733
undo,69,0,0,0,0,26,"[0, 28, 5, 26]",4,15,"[3, 4, 7, 8, 9, 11, 12, 13, 14, 15, 17, 19, 20, 23, 24]",115.8212286,4210,1384,5,35,9,1.1400379746718978
undo,69,0,0,0,0,4,"[0, 28, 5, 26, 4]",5,12,"[3, 7, 8, 9, 11, 12, 15, 17, 19, 20, 23, 24]",103.779634,5200,990,4,17,9,1.2534780347343448
undo,69,0,0,0,0,24,"[0, 28, 5, 26, 4, 24]",6,9,"[3, 7, 8, 9, 11, 12, 15, 17, 19]",92.37787977,6808,1608,4,12,9,1.2444963062448124
undo,69,0,0,0,0,15,"[0, 28, 5, 26, 4, 24, 15]",7,6,"[3, 7, 8, 9, 11, 17]",69.03264471,8561,1753,3,4,9,1.2218613820858855
undo,69,0,0,0,0,7,"[0, 28, 5, 26, 4, 24, 15, 7]",8,2,"[3, 8]",37.96819558,10258,1697,2,0,9,1.2781430976973103
undo,69,0,0,0,1,3,"[0, 28, 5, 26, 4, 24, 15, 7, 3]",9,0,[],13.88500642,11208,950,1,0,9,1.319960702148038
undo,69,0,0,1,1,3,"[0, 28, 5, 26, 4, 24, 15, 7, 3]",9,0,[],13.88500642,11830,622,1,0,9,1.319960702148038
undo,70,17,0,0,0,0,[0],1,28,"[1, 2, 3, 4, 5, 6, 7, 8, 9, 10, 11, 12, 13, 14, 15, 16, 17, 18, 19, 20, 22, 23, 24, 25, 26, 27, 28, 29]",300,164,-1,2,73,8,0.0
undo,70,17,0,0,0,9,"[0, 9]",2,25,"[1, 2, 3, 5, 6, 7, 8, 10, 11, 12, 14, 15, 16, 17, 18, 19, 20, 22, 23, 24, 25, 26, 27, 28, 29]",210.5293344,3054,2890,1,34,8,1.0
undo,70,17,0,0,0,16,"[0, 9, 16]",3,21,"[1, 2, 3, 5, 7, 8, 10, 11, 12, 14, 17, 18, 19, 20, 22, 23, 25, 26, 27, 28, 29]",197.1876704,5818,2764,1,26,8,1.173103464220352
undo,70,17,0,0,0,2,"[0, 9, 16, 2]",4,18,"[1, 3, 5, 7, 8, 10, 11, 12, 14, 17, 18, 19, 23, 25, 26, 27, 28, 29]",181.0631549,7971,2153,1,23,8,1.14825089247282
undo,70,17,0,0,0,10,"[0, 9, 16, 2, 10]",5,4,"[3, 11, 23, 28]",71.04042993,13402,5431,3,2,7,1.2629477265421833
undo,70,17,0,0,0,11,"[0, 9, 16, 2, 10, 11]",6,1,[3],49.08593153,14465,1063,1,0,7,1.2370659942349713
undo,70,17,0,0,1,3,"[0, 9, 16, 2, 10, 11, 3]",7,0,[],22.91342687,15492,1027,1,0,7,1.4627126127553682
undo,70,17,0,1,1,3,"[0, 9, 16, 2, 10, 11, 3]",7,0,[],22.91342687,16145,653,1,0,7,1.4627126127553682
undo,71,30,0,0,0,0,[0],1,19,"[3, 4, 5, 7, 9, 11, 16, 17, 18, 19, 20, 21, 22, 24, 25, 26, 27, 28, 29]",300,281,-1,5,41,8,0.0
undo,71,30,0,0,0,25,"[0, 25]",2,12,"[3, 5, 7, 9, 11, 16, 18, 19, 20, 24, 27, 29]",121.1005869,4610,4329,7,37,7,1.0
undo,71,30,0,0,0,27,"[0, 25, 27]",3,8,"[3, 5, 7, 18, 19, 20, 24, 29]",81.54050603,6014,1404,2,17,7,1.0432445497342653
undo,71,30,0,0,0,3,"[0, 25, 27, 3]",4,5,"[5, 7, 18, 20, 29]",62.43553286,7551,1537,2,6,7,1.0419393955972533
undo,71,30,0,0,0,29,"[0, 25, 27, 3, 29]",5,3,"[5, 7, 18]",43.83445762,8537,986,1,2,7,1.0521853644580021
undo,71,30,0,0,0,18,"[0, 25, 27, 3, 29, 18]",6,1,[5],24.5212497,11923,3386,1,0,7,1.1278751785159948
undo,71,30,0,0,1,5,"[0, 25, 27, 3, 29, 18, 5]",7,0,[],11.48284489,12743,820,1,0,7,1.1931367962604076
undo,71,30,0,1,1,5,"[0, 25, 27, 3, 29, 18, 5]",7,0,[],11.48284489,13279,536,1,0,7,1.1931367962604076
undo,72,21,0,0,0,0,[0],1,29,"[1, 2, 3, 4, 5, 6, 7, 8, 9, 10, 11, 12, 13, 14, 15, 16, 17, 18, 19, 20, 21, 22, 23, 24, 25, 26, 27, 28, 29]",300,247,-1,84,830,9,0.0
undo,72,21,0,0,0,21,"[0, 21]",2,22,"[1, 3, 4, 6, 8, 9, 10, 11, 12, 14, 15, 16, 17, 18, 20, 22, 23, 24, 25, 26, 27, 29]",210.1111798,2478,2231,1,69,9,1.0
undo,72,21,0,0,0,14,"[0, 21, 14]",3,15,"[1, 4, 6, 8, 9, 15, 16, 17, 18, 20, 22, 23, 24, 25, 29]",184.4986828,3390,912,35,96,8,1.0083702391721483
undo,72,21,0,0,0,4,"[0, 21, 14, 4]",4,13,"[1, 8, 9, 15, 16, 17, 18, 20, 22, 23, 24, 25, 29]",170.3565472,5129,1739,20,39,8,1.0135821167776475
undo,72,21,0,0,0,16,"[0, 21, 14, 4, 16]",5,7,"[8, 15, 17, 23, 24, 25, 29]",125.758341,8107,2978,4,6,8,1.0675217597413178
undo,72,21,0,0,0,8,"[0, 21, 14, 4, 16, 8]",6,3,"[15, 23, 24]",107.1572657,9214,1107,3,1,8,1.0643903127717425
undo,72,21,0,0,0,15,"[0, 21, 14, 4, 16, 8, 15]",7,2,"[23, 24]",82.15726573,10376,1162,2,0,8,1.29402645910376
undo,72,21,0,0,1,24,"[0, 21, 14, 4, 16, 8, 15, 24]",8,0,[],36.4516862,13022,2646,1,0,8,1.3251667405154008
undo,72,21,0,1,1,24,"[0, 21, 14, 4, 16, 8, 15, 24]",8,0,[],36.4516862,13579,557,1,0,8,1.3251667405154008
undo,73,4,0,0,0,0,[0],1,26,"[3, 4, 5, 6, 7, 8, 10, 11, 12, 13, 14, 15, 16, 17, 18, 19, 20, 21, 22, 23, 24, 25, 26, 27, 28, 29]",300,164,-1,4,489,10,0.0
undo,73,4,0,0,0,28,"[0, 28]",2,21,"[3, 4, 5, 6, 10, 11, 12, 13, 14, 15, 16, 17, 19, 20, 21, 22, 23, 24, 25, 26, 27]",225.9392142,3426,3262,2,216,10,1.0
undo,73,4,0,0,0,14,"[0, 28, 14]",3,13,"[3, 4, 5, 6, 11, 13, 16, 17, 20, 21, 22, 24, 25]",159.6972335,5023,1597,1,26,10,1.0273973946789214
undo,73,4,0,0,0,25,"[0, 28, 14, 25]",4,12,"[3, 4, 5, 6, 11, 13, 16, 17, 20, 21, 22, 24]",143.572718,6604,1581,1,25,10,1.233547772313525
undo,73,4,0,0,0,11,"[0, 28, 14, 25, 11]",5,10,"[3, 4, 5, 6, 13, 16, 17, 20, 21, 22]",124.7844238,7606,1002,1,15,10,1.425978575879479
undo,73,4,0,0,0,16,"[0, 28, 14, 25, 11, 16]",6,9,"[3, 4, 5, 6, 13, 17, 20, 21, 22]",109.7844238,8813,1207,1,12,10,1.3799325158051412
undo,73,4,0,0,0,21,"[0, 28, 14, 25, 11, 16, 21]",7,4,"[5, 17, 20, 22]",65.58035157,10012,1199,3,3,9,1.5860540591673642
undo,73,4,0,0,0,22,"[0, 28, 14, 25, 11, 16, 21, 22]",8,3,"[5, 17, 20]",54.53499056,10993,981,3,0,9,1.5471132483772176
undo,73,4,0,0,1,20,"[0, 28, 14, 25, 11, 16, 21, 22, 20]",9,0,[],24.30255764,13107,2114,1,0,9,1.5087977616865345
undo,73,4,0,1,1,20,"[0, 28, 14, 25, 11, 16, 21, 22, 20]",9,0,[],24.30255764,15330,2223,1,0,9,1.5087977616865345
undo,74,29,0,0,0,0,[0],1,29,"[1, 2, 3, 4, 5, 6, 7, 8, 9, 10, 11, 12, 13, 14, 15, 16, 17, 18, 19, 20, 21, 22, 23, 24, 25, 26, 27, 28, 29]",300,181,-1,1,78,9,0.0
undo,74,29,0,0,0,14,"[0, 14]",2,22,"[1, 3, 4, 5, 6, 7, 9, 10, 11, 12, 13, 15, 16, 17, 21, 22, 23, 25, 26, 27, 28, 29]",209.490332,2642,2461,21,110,8,1.0
undo,74,29,0,0,0,13,"[0, 14, 13]",3,18,"[1, 4, 5, 6, 7, 9, 10, 12, 15, 16, 17, 21, 22, 25, 26, 27, 28, 29]",191.4625756,5122,2480,20,75,8,1.0027006502223275
undo,74,29,0,0,0,5,"[0, 14, 13, 5]",4,15,"[1, 4, 6, 7, 9, 12, 15, 17, 21, 22, 25, 26, 27, 28, 29]",165.7526554,6173,1051,19,49,8,1.0803937325657265
undo,74,29,0,0,0,22,"[0, 14, 13, 5, 22]",5,9,"[4, 6, 7, 9, 12, 26, 27, 28, 29]",111.4111427,7358,1185,7,11,8,1.6123417790752979
undo,74,29,0,0,0,12,"[0, 14, 13, 5, 22, 12]",6,4,"[4, 7, 9, 27]",73.46381077,8777,1419,3,2,8,1.4673990517096682
undo,74,29,0,0,0,7,"[0, 14, 13, 5, 22, 12, 7]",7,2,"[4, 9]",59.86234026,9523,746,2,0,8,1.4602419147831445
undo,74,29,0,0,1,9,"[0, 14, 13, 5, 22, 12, 7, 9]",8,0,[],30.79345655,11838,2315,1,0,8,1.4259709280459159
undo,74,29,0,1,1,9,"[0, 14, 13, 5, 22, 12, 7, 9]",8,0,[],30.79345655,12346,508,1,0,8,1.4259709280459159
undo,75,19,0,0,0,0,[0],1,29,"[1, 2, 3, 4, 5, 6, 7, 8, 9, 10, 11, 12, 13, 14, 15, 16, 17, 18, 19, 20, 21, 22, 23, 24, 25, 26, 27, 28, 29]",300,163,-1,12,149,8,0.0
