condition,trial_id,map_id,undoIndicator,submit,checkEnd,currentChoice,chosen_all,n_city_all,n_within_reach,cities_reach,currentBudget,time_all,rt_all,n_opt_paths_all,n_subopt_paths_all,mas_all,tortuosity_all
basic,0,43,0,0,0,0,[0],1,23,"[1, 2, 3, 4, 5, 6, 7, 9, 10, 11, 12, 14, 15, 16, 17, 19, 20, 21, 22, 23, 25, 27, 29]",300,478,-1,16,556,12,0.0
basic,0,43,0,0,0,29,"[0, 29]",2,22,"[1, 2, 3, 4, 5, 6, 7, 9, 10, 11, 12, 14, 15, 16, 17, 19, 20, 21, 22, 23, 25, 27]",277.909278,7248,6770,16,520,12,1.0
basic,0,43,0,0,0,20,"[0, 29, 20]",3,20,"[1, 2, 3, 4, 6, 7, 9, 10, 11, 12, 14, 15, 16, 17, 19, 21, 22, 23, 25, 27]",254.4785289,9248,2000,15,422,12,1.082311746871282
basic,0,43,0,0,0,16,"[0, 29, 20, 16]",4,19,"[1, 2, 3, 4, 6, 7, 9, 10, 11, 12, 14, 15, 17, 19, 21, 22, 23, 25, 27]",231.8511119,18041,8793,15,389,12,1.215201926898219
basic,0,43,0,0,0,25,"[0, 29, 20, 16, 25]",5,14,"[1, 2, 3, 4, 6, 7, 9, 11, 12, 14, 15, 19, 22, 23]",175.7708124,19765,1724,53,282,11,1.566384303308987
basic,0,43,0,0,0,15,"[0, 29, 20, 16, 25, 15]",6,13,"[1, 2, 3, 4, 6, 7, 9, 11, 12, 14, 19, 22, 23]",153.0992443,21133,1368,27,108,11,1.776736412604812
basic,0,43,0,0,0,12,"[0, 29, 20, 16, 25, 15, 12]",7,10,"[1, 3, 6, 7, 9, 11, 14, 19, 22, 23]",133.7860364,22298,1165,21,41,11,1.6813323012225032
basic,0,43,0,0,0,3,"[0, 29, 20, 16, 25, 15, 12, 3]",8,9,"[1, 6, 7, 9, 11, 14, 19, 22, 23]",120.7860364,23541,1243,20,12,11,1.608740348096123
basic,0,43,0,0,0,11,"[0, 29, 20, 16, 25, 15, 12, 3, 11]",9,3,"[6, 14, 22]",53.75619226,24781,1240,1,2,11,2.7059759092307694
basic,0,43,0,0,0,6,"[0, 29, 20, 16, 25, 15, 12, 3, 11, 6]",10,1,[14],33.14066413,26733,1952,1,0,11,2.419603450300579
basic,0,43,0,0,1,14,"[0, 29, 20, 16, 25, 15, 12, 3, 11, 6, 14]",11,0,[],4.680165186,28055,1322,1,0,11,2.3808374911788053
basic,0,43,0,1,1,14,"[0, 29, 20, 16, 25, 15, 12, 3, 11, 6, 14]",11,0,[],4.680165186,31608,3553,1,0,11,2.3808374911788053
basic,1,9,0,0,0,0,[0],1,27,"[1, 3, 4, 5, 6, 7, 8, 9, 10, 11, 13, 14, 15, 16, 17, 18, 19, 20, 21, 22, 23, 24, 25, 26, 27, 28, 29]",300,314,-1,2,182,10,0.0
basic,1,9,0,0,0,10,"[0, 10]",2,22,"[3, 4, 5, 6, 7, 8, 9, 11, 13, 15, 16, 17, 18, 19, 20, 21, 22, 23, 25, 26, 27, 28]",245.6676892,6924,6610,5,195,9,1.0
basic,1,9,0,0,0,8,"[0, 10, 8]",3,20,"[3, 4, 5, 7, 9, 11, 13, 15, 16, 17, 18, 19, 20, 21, 22, 23, 25, 26, 27, 28]",197.2941427,8793,1869,3,50,9,1.6102923877889634
basic,1,9,0,0,0,28,"[0, 10, 8, 28]",4,19,"[3, 4, 5, 7, 9, 11, 13, 15, 16, 17, 18, 19, 20, 21, 22, 23, 25, 26, 27]",186.4774889,11672,2879,2,25,9,1.528377012595975
basic,1,9,0,0,0,23,"[0, 10, 8, 28, 23]",5,13,"[3, 4, 7, 9, 11, 18, 19, 20, 21, 22, 25, 26, 27]",161.4574968,13098,1426,2,12,9,2.3268849491132118
basic,1,9,0,0,0,9,"[0, 10, 8, 28, 23, 9]",6,11,"[3, 4, 7, 11, 18, 19, 20, 21, 25, 26, 27]",139.0968171,14268,1170,2,6,9,2.1607964611878296
basic,1,9,0,0,0,26,"[0, 10, 8, 28, 23, 9, 26]",7,3,"[18, 20, 21]",82.44878092,15345,1077,2,1,9,1.8622029673999667
basic,1,9,0,0,0,21,"[0, 10, 8, 28, 23, 9, 26, 21]",8,1,[20],28.54145303,16624,1279,1,0,9,2.2901575374033833
basic,1,9,0,0,1,20,"[0, 10, 8, 28, 23, 9, 26, 21, 20]",9,0,[],16.45840706,17722,1098,1,0,9,2.23879636412838
basic,1,9,0,1,1,20,"[0, 10, 8, 28, 23, 9, 26, 21, 20]",9,0,[],16.45840706,21232,3510,1,0,9,2.23879636412838
basic,2,35,0,0,0,0,[0],1,29,"[1, 2, 3, 4, 5, 6, 7, 8, 9, 10, 11, 12, 13, 14, 15, 16, 17, 18, 19, 20, 21, 22, 23, 24, 25, 26, 27, 28, 29]",300,378,-1,5,236,11,0.0
basic,2,35,0,0,0,27,"[0, 27]",2,27,"[1, 2, 4, 5, 6, 7, 8, 9, 10, 11, 12, 13, 14, 15, 16, 17, 18, 19, 20, 21, 22, 23, 24, 25, 26, 28, 29]",278.7867966,7336,6958,5,144,11,1.0
basic,2,35,0,0,0,28,"[0, 27, 28]",3,18,"[1, 2, 5, 6, 7, 9, 10, 13, 15, 16, 17, 18, 19, 21, 23, 24, 25, 26]",240.707931,8494,1158,4,100,10,1.0168505943672008
basic,2,35,0,0,0,19,"[0, 27, 28, 19]",4,14,"[1, 2, 5, 6, 9, 10, 15, 17, 18, 21, 23, 24, 25, 26]",191.7896318,9622,1128,11,75,9,1.3148564374305836
basic,2,35,0,0,0,24,"[0, 27, 28, 19, 24]",5,9,"[1, 2, 5, 9, 15, 17, 18, 23, 26]",117.4592881,11190,1568,3,20,9,5.8853487613374895
basic,2,35,0,0,0,17,"[0, 27, 28, 19, 24, 17]",6,6,"[1, 5, 9, 15, 18, 23]",105.7545882,12678,1488,3,8,9,4.897634910968656
basic,2,35,0,0,0,1,"[0, 27, 28, 19, 24, 17, 1]",7,5,"[5, 9, 15, 18, 23]",89.94319985,13662,984,3,3,9,4.394339868933799
basic,2,35,0,0,0,15,"[0, 27, 28, 19, 24, 17, 1, 15]",8,2,"[5, 23]",67.09588053,14903,1241,2,0,9,4.190522877836577
basic,2,35,0,0,1,23,"[0, 27, 28, 19, 24, 17, 1, 15, 23]",9,0,[],6.65582759,17369,2466,1,0,9,2.7590615597757737
basic,2,35,0,1,1,23,"[0, 27, 28, 19, 24, 17, 1, 15, 23]",9,0,[],6.65582759,20017,2648,1,0,9,2.7590615597757737
basic,3,4,0,0,0,0,[0],1,26,"[3, 4, 5, 6, 7, 8, 10, 11, 12, 13, 14, 15, 16, 17, 18, 19, 20, 21, 22, 23, 24, 25, 26, 27, 28, 29]",300,382,-1,4,489,10,0.0
basic,3,4,0,0,0,28,"[0, 28]",2,21,"[3, 4, 5, 6, 10, 11, 12, 13, 14, 15, 16, 17, 19, 20, 21, 22, 23, 24, 25, 26, 27]",225.9392142,4691,4309,2,216,10,1.0
basic,3,4,0,0,0,14,"[0, 28, 14]",3,13,"[3, 4, 5, 6, 11, 13, 16, 17, 20, 21, 22, 24, 25]",159.6972335,6461,1770,1,26,10,1.0273973946789214
basic,3,4,0,0,0,25,"[0, 28, 14, 25]",4,12,"[3, 4, 5, 6, 11, 13, 16, 17, 20, 21, 22, 24]",143.572718,7717,1256,1,25,10,1.233547772313525
basic,3,4,0,0,0,11,"[0, 28, 14, 25, 11]",5,10,"[3, 4, 5, 6, 13, 16, 17, 20, 21, 22]",124.7844238,8733,1016,1,15,10,1.425978575879479
basic,3,4,0,0,0,16,"[0, 28, 14, 25, 11, 16]",6,9,"[3, 4, 5, 6, 13, 17, 20, 21, 22]",109.7844238,9985,1252,1,12,10,1.3799325158051412
basic,3,4,0,0,0,17,"[0, 28, 14, 25, 11, 16, 17]",7,5,"[3, 5, 20, 21, 22]",83.70761416,14230,4245,1,5,10,1.3195184878861832
basic,3,4,0,0,0,21,"[0, 28, 14, 25, 11, 16, 17, 21]",8,1,[22],34.45317274,15490,1260,1,0,9,1.7966566629354186
basic,3,4,0,0,1,22,"[0, 28, 14, 25, 11, 16, 17, 21, 22]",9,0,[],23.40781172,17077,1587,1,0,9,1.7433011729935863
basic,3,4,0,1,1,22,"[0, 28, 14, 25, 11, 16, 17, 21, 22]",9,0,[],23.40781172,19907,2830,1,0,9,1.7433011729935863
basic,4,24,0,0,0,0,[0],1,29,"[1, 2, 3, 4, 5, 6, 7, 8, 9, 10, 11, 12, 13, 14, 15, 16, 17, 18, 19, 20, 21, 22, 23, 24, 25, 26, 27, 28, 29]",300,349,-1,4,76,10,0.0
basic,4,24,0,0,0,16,"[0, 16]",2,28,"[1, 2, 3, 4, 5, 6, 7, 8, 9, 10, 11, 12, 13, 14, 15, 17, 18, 19, 20, 21, 22, 23, 24, 25, 26, 27, 28, 29]",210.3562607,10926,10577,13,110,9,1.0
basic,4,24,0,0,0,15,"[0, 16, 15]",3,25,"[2, 3, 4, 5, 6, 7, 8, 9, 10, 11, 12, 13, 14, 17, 18, 19, 21, 22, 23, 24, 25, 26, 27, 28, 29]",179.942448,12926,2000,3,25,9,1.003655899916215
basic,4,24,0,0,0,22,"[0, 16, 15, 22]",4,17,"[2, 3, 4, 6, 8, 9, 10, 11, 13, 14, 17, 23, 24, 26, 27, 28, 29]",158.7292446,14885,1959,2,12,9,1.3405807719265295
basic,4,24,0,0,0,8,"[0, 16, 15, 22, 8]",5,13,"[3, 4, 6, 9, 10, 11, 14, 23, 24, 26, 27, 28, 29]",145.3128367,16342,1457,2,10,9,1.4047964519188476
basic,4,24,0,0,0,28,"[0, 16, 15, 22, 8, 28]",6,5,"[4, 9, 11, 23, 27]",83.21613794,17988,1646,2,5,9,1.3168438838597547
basic,4,24,0,0,0,23,"[0, 16, 15, 22, 8, 28, 23]",7,3,"[9, 11, 27]",64.18984035,21192,3204,2,2,9,1.3384269117817793
basic,4,24,0,0,0,11,"[0, 16, 15, 22, 8, 28, 23, 11]",8,2,"[9, 27]",37.26401631,22204,1012,2,0,9,1.3080348489062907
basic,4,24,0,0,1,27,"[0, 16, 15, 22, 8, 28, 23, 11, 27]",9,0,[],9.461138764,23556,1352,1,0,9,1.2720805845080898
basic,4,24,0,1,1,27,"[0, 16, 15, 22, 8, 28, 23, 11, 27]",9,0,[],9.461138764,25164,1608,1,0,9,1.2720805845080898
basic,5,25,0,0,0,0,[0],1,28,"[1, 2, 3, 4, 5, 7, 8, 9, 10, 11, 12, 13, 14, 15, 16, 17, 18, 19, 20, 21, 22, 23, 24, 25, 26, 27, 28, 29]",300,398,-1,5,94,10,0.0
basic,5,25,0,0,0,19,"[0, 19]",2,27,"[1, 2, 3, 4, 5, 7, 8, 9, 10, 11, 12, 13, 14, 15, 16, 17, 18, 20, 21, 22, 23, 24, 25, 26, 27, 28, 29]",251.9479449,4910,4512,2,30,10,1.0
basic,5,25,0,0,0,29,"[0, 19, 29]",3,26,"[1, 2, 3, 4, 5, 7, 8, 9, 10, 11, 12, 13, 14, 15, 16, 17, 18, 20, 21, 22, 23, 24, 25, 26, 27, 28]",235.6691243,8119,3209,2,22,10,1.0272252084351727
basic,5,25,0,0,0,22,"[0, 19, 29, 22]",4,24,"[1, 2, 3, 4, 5, 7, 8, 9, 11, 12, 13, 14, 15, 16, 17, 18, 20, 21, 23, 24, 25, 26, 27, 28]",219.5446088,11189,3070,2,17,10,1.03988854593305
basic,5,25,0,0,0,7,"[0, 19, 29, 22, 7]",5,10,"[1, 3, 5, 8, 9, 11, 13, 23, 24, 28]",143.9007062,13046,1857,2,14,10,1.3318974800137366
basic,5,25,0,0,0,24,"[0, 19, 29, 22, 7, 24]",6,7,"[3, 8, 9, 11, 13, 23, 28]",119.1418694,14151,1105,2,9,10,1.2868309735722725
basic,5,25,0,0,0,9,"[0, 19, 29, 22, 7, 24, 9]",7,4,"[3, 8, 13, 28]",101.114113,15216,1065,2,7,10,1.2740198715343065
basic,5,25,0,0,0,3,"[0, 19, 29, 22, 7, 24, 9, 3]",8,3,"[8, 13, 28]",70.84862112,16967,1751,2,1,10,1.2376259292234586
basic,5,25,0,0,0,13,"[0, 19, 29, 22, 7, 24, 9, 3, 13]",9,1,[28],39.60762242,20174,3207,1,0,10,1.291892077575191
basic,5,25,0,0,1,28,"[0, 19, 29, 22, 7, 24, 9, 3, 13, 28]",10,0,[],5.373136879,21351,1177,1,0,10,1.3615350048994297
basic,5,25,0,1,1,28,"[0, 19, 29, 22, 7, 24, 9, 3, 13, 28]",10,0,[],5.373136879,24176,2825,1,0,10,1.3615350048994297
basic,6,32,0,0,0,0,[0],1,29,"[1, 2, 3, 4, 5, 6, 7, 8, 9, 10, 11, 12, 13, 14, 15, 16, 17, 18, 19, 20, 21, 22, 23, 24, 25, 26, 27, 28, 29]",300,460,-1,17,359,10,0.0
basic,6,32,0,0,0,17,"[0, 17]",2,15,"[2, 5, 8, 9, 10, 12, 13, 15, 16, 19, 20, 22, 25, 27, 28]",186.9955753,6446,5986,8,89,8,1.0
basic,6,32,0,0,0,15,"[0, 17, 15]",3,11,"[2, 5, 8, 9, 12, 13, 16, 19, 22, 27, 28]",121.4822179,9997,3551,2,18,8,2.0908251639912465
basic,6,32,0,0,0,28,"[0, 17, 15, 28]",4,10,"[2, 5, 8, 9, 12, 13, 16, 19, 22, 27]",110.0804636,11112,1115,2,12,8,1.9626322864779226
basic,6,32,0,0,0,12,"[0, 17, 15, 28, 12]",5,7,"[2, 5, 8, 9, 16, 22, 27]",91.10679768,12364,1252,1,5,8,1.8553813738004215
basic,6,32,0,0,0,16,"[0, 17, 15, 28, 12, 16]",6,2,"[9, 22]",75.45432184,13516,1152,1,1,8,1.9122220192767656
basic,6,32,0,0,0,22,"[0, 17, 15, 28, 12, 16, 22]",7,1,[9],41.61647321,14916,1400,1,0,8,1.829794192301548
basic,6,32,0,0,1,9,"[0, 17, 15, 28, 12, 16, 22, 9]",8,0,[],19.41286989,15933,1017,1,0,8,1.8533223643485728
basic,6,32,0,1,1,9,"[0, 17, 15, 28, 12, 16, 22, 9]",8,0,[],19.41286989,18042,2109,1,0,8,1.8533223643485728
basic,7,31,0,0,0,0,[0],1,27,"[1, 3, 4, 5, 6, 7, 8, 10, 11, 12, 13, 14, 15, 16, 17, 18, 19, 20, 21, 22, 23, 24, 25, 26, 27, 28, 29]",300,395,-1,2,87,10,0.0
basic,7,31,0,0,0,14,"[0, 14]",2,25,"[1, 3, 5, 6, 7, 8, 10, 11, 12, 13, 15, 16, 17, 18, 19, 20, 21, 22, 23, 24, 25, 26, 27, 28, 29]",263.861378,7759,7364,2,59,10,1.0
basic,7,31,0,0,0,27,"[0, 14, 27]",3,22,"[1, 3, 5, 6, 7, 8, 10, 11, 12, 13, 15, 16, 17, 18, 19, 20, 21, 22, 24, 25, 28, 29]",235.6833724,8902,1143,1,39,10,1.5881859159302467
basic,7,31,0,0,0,8,"[0, 14, 27, 8]",4,20,"[1, 3, 5, 6, 7, 10, 11, 12, 13, 16, 17, 18, 19, 20, 21, 22, 24, 25, 28, 29]",224.6380114,9895,993,1,36,10,2.1665048452331277
basic,7,31,0,0,0,18,"[0, 14, 27, 8, 18]",5,15,"[1, 5, 6, 7, 11, 12, 13, 16, 17, 19, 20, 22, 25, 28, 29]",188.7911147,11154,1259,1,26,10,1.7273375741920205
basic,7,31,0,0,0,17,"[0, 14, 27, 8, 18, 17]",6,13,"[1, 5, 6, 7, 11, 12, 13, 16, 19, 20, 22, 25, 28]",159.584951,15326,4172,1,13,10,1.551192427769927
basic,7,31,0,0,0,11,"[0, 14, 27, 8, 18, 17, 11]",7,7,"[5, 12, 16, 19, 22, 25, 28]",118.4753414,16392,1066,1,4,10,2.9650760544203494
basic,7,31,0,0,0,5,"[0, 14, 27, 8, 18, 17, 11, 5]",8,2,"[16, 28]",74.79468207,17654,1262,1,1,10,2.56711965625205
basic,7,31,0,0,0,28,"[0, 14, 27, 8, 18, 17, 11, 5, 28]",9,1,[16],54.57093365,18511,857,1,0,10,2.2865510762058148
basic,7,31,0,0,1,16,"[0, 14, 27, 8, 18, 17, 11, 5, 28, 16]",10,0,[],20.95546102,19727,1216,1,0,10,2.089356850786318
basic,7,31,0,1,1,16,"[0, 14, 27, 8, 18, 17, 11, 5, 28, 16]",10,0,[],20.95546102,21706,1979,1,0,10,2.089356850786318
basic,8,40,0,0,0,0,[0],1,29,"[1, 2, 3, 4, 5, 6, 7, 8, 9, 10, 11, 12, 13, 14, 15, 16, 17, 18, 19, 20, 21, 22, 23, 24, 25, 26, 27, 28, 29]",300,359,-1,8,191,9,0.0
basic,8,40,0,0,0,1,"[0, 1]",2,18,"[2, 5, 6, 7, 8, 9, 10, 11, 13, 15, 17, 18, 19, 21, 22, 23, 27, 29]",247.8463808,11984,11625,4,80,9,1.0
basic,8,40,0,0,0,6,"[0, 1, 6]",3,17,"[2, 5, 7, 8, 9, 10, 11, 13, 15, 17, 18, 19, 21, 22, 23, 27, 29]",227.7466295,17056,5072,4,74,9,1.0459427008232034
basic,8,40,0,0,0,21,"[0, 1, 6, 21]",4,8,"[2, 5, 9, 17, 18, 19, 22, 23]",175.7754837,19380,2324,4,25,9,1.0308822257404064
basic,8,40,0,0,0,9,"[0, 1, 6, 21, 9]",5,6,"[2, 5, 18, 19, 22, 23]",130.0699041,20752,1372,4,12,9,1.377861912961129
basic,8,40,0,0,0,18,"[0, 1, 6, 21, 9, 18]",6,5,"[2, 5, 19, 22, 23]",113.5169588,21680,928,4,4,9,1.5742712168661408
basic,8,40,0,0,0,23,"[0, 1, 6, 21, 9, 18, 23]",7,3,"[2, 5, 19]",79.51695879,26975,5295,2,1,9,2.324611956726637
basic,8,40,0,0,0,19,"[0, 1, 6, 21, 9, 18, 23, 19]",8,1,[5],47.56386817,27847,872,1,0,9,2.460596854255639
basic,8,40,0,0,1,5,"[0, 1, 6, 21, 9, 18, 23, 19, 5]",9,0,[],9.485002643,28996,1149,1,0,9,2.3622228457215413
basic,8,40,0,1,1,5,"[0, 1, 6, 21, 9, 18, 23, 19, 5]",9,0,[],9.485002643,30774,1778,1,0,9,2.3622228457215413
basic,9,6,0,0,0,0,[0],1,29,"[1, 2, 3, 4, 5, 6, 7, 8, 9, 10, 11, 12, 13, 14, 15, 16, 17, 18, 19, 20, 21, 22, 23, 24, 25, 26, 27, 28, 29]",300,356,-1,180,4304,10,0.0
basic,9,6,0,0,0,3,"[0, 3]",2,28,"[1, 2, 4, 5, 6, 7, 8, 9, 10, 11, 12, 13, 14, 15, 16, 17, 18, 19, 20, 21, 22, 23, 24, 25, 26, 27, 28, 29]",266.4738908,5590,5234,90,1607,10,1.0
basic,9,6,0,0,0,24,"[0, 3, 24]",3,24,"[1, 2, 4, 5, 6, 7, 8, 10, 11, 13, 14, 16, 17, 18, 19, 20, 21, 22, 23, 25, 26, 27, 28, 29]",202.520783,7630,2040,6,84,10,1.001910163116413
basic,9,6,0,0,0,10,"[0, 3, 24, 10]",4,20,"[1, 2, 4, 5, 6, 7, 8, 11, 13, 14, 16, 17, 18, 20, 21, 22, 23, 26, 27, 29]",189.1043751,9117,1487,6,66,10,1.314793299348402
basic,9,6,0,0,0,17,"[0, 3, 24, 10, 17]",5,19,"[1, 2, 4, 5, 6, 7, 8, 11, 13, 14, 16, 18, 20, 21, 22, 23, 26, 27, 29]",169.3812922,10293,1176,6,45,10,1.8507472474352449
basic,9,6,0,0,0,18,"[0, 3, 24, 10, 17, 18]",6,15,"[1, 2, 6, 7, 8, 13, 14, 16, 20, 21, 22, 23, 26, 27, 29]",155.4529039,11136,843,5,31,10,2.373454740786756
basic,9,6,0,0,0,16,"[0, 3, 24, 10, 17, 18, 16]",7,13,"[1, 2, 6, 7, 13, 14, 20, 21, 22, 23, 26, 27, 29]",132.1076688,11973,837,5,19,10,2.3260122505247613
basic,9,6,0,0,0,29,"[0, 3, 24, 10, 17, 18, 16, 29]",8,6,"[6, 14, 21, 22, 23, 27]",95.41979617,12901,928,5,4,10,1.920792706835084
basic,9,6,0,0,0,23,"[0, 3, 24, 10, 17, 18, 16, 29, 23]",9,2,"[6, 22]",47.90137869,14838,1937,2,0,10,1.8785104449401346
basic,9,6,0,0,1,6,"[0, 3, 24, 10, 17, 18, 16, 29, 23, 6]",10,0,[],12.54603963,15741,903,1,0,10,1.7847743285121995
basic,9,6,0,1,1,6,"[0, 3, 24, 10, 17, 18, 16, 29, 23, 6]",10,0,[],12.54603963,17364,1623,1,0,10,1.7847743285121995
basic,10,8,0,0,0,0,[0],1,29,"[1, 2, 3, 4, 5, 6, 7, 8, 9, 10, 11, 12, 13, 14, 15, 16, 17, 18, 19, 20, 21, 22, 23, 24, 25, 26, 27, 28, 29]",300,367,-1,10,149,9,0.0
basic,10,8,0,0,0,5,"[0, 5]",2,28,"[1, 2, 3, 4, 6, 7, 8, 9, 10, 11, 12, 13, 14, 15, 16, 17, 18, 19, 20, 21, 22, 23, 24, 25, 26, 27, 28, 29]",254.5137383,8266,7899,10,100,9,1.0
basic,10,8,0,0,0,14,"[0, 5, 14]",3,20,"[1, 2, 3, 4, 6, 7, 11, 15, 16, 17, 18, 19, 20, 21, 22, 23, 24, 25, 28, 29]",214.5512559,11088,2822,4,36,9,1.0001019035932595
basic,10,8,0,0,0,17,"[0, 5, 14, 17]",4,15,"[1, 4, 6, 7, 11, 15, 16, 18, 19, 20, 22, 23, 24, 25, 28]",177.5377449,12040,952,4,16,9,1.121197267659591
basic,10,8,0,0,0,11,"[0, 5, 14, 17, 11]",5,11,"[1, 4, 15, 16, 18, 19, 22, 23, 24, 25, 28]",152.3583883,12736,696,4,8,9,1.1277254166016362
basic,10,8,0,0,0,24,"[0, 5, 14, 17, 11, 24]",6,3,"[15, 16, 28]",115.1428001,13818,1082,2,2,9,1.1227411011978805
basic,10,8,0,0,0,15,"[0, 5, 14, 17, 11, 24, 15]",7,2,"[16, 28]",98.37974552,14352,534,2,0,9,1.1956385406066814
basic,10,8,0,0,0,16,"[0, 5, 14, 17, 11, 24, 15, 16]",8,1,[28],47.30137436,15362,1010,1,0,9,1.36482239111247
basic,10,8,0,0,1,28,"[0, 5, 14, 17, 11, 24, 15, 16, 28]",9,0,[],24.94069458,16652,1290,1,0,9,1.632953105226947
basic,10,8,0,1,1,28,"[0, 5, 14, 17, 11, 24, 15, 16, 28]",9,0,[],24.94069458,18213,1561,1,0,9,1.632953105226947
basic,11,2,0,0,0,0,[0],1,23,"[1, 2, 4, 5, 6, 7, 8, 9, 12, 13, 15, 16, 17, 18, 19, 20, 22, 23, 25, 26, 27, 28, 29]",300,362,-1,70,620,10,0.0
basic,11,2,0,0,0,19,"[0, 19]",2,22,"[1, 2, 4, 5, 6, 7, 8, 9, 12, 13, 15, 16, 17, 18, 20, 22, 23, 25, 26, 27, 28, 29]",210.306076,8967,8605,67,431,10,1.0
basic,11,2,0,0,0,12,"[0, 19, 12]",3,17,"[1, 4, 5, 6, 7, 13, 15, 16, 17, 18, 20, 22, 25, 26, 27, 28, 29]",174.2921898,10188,1221,66,298,10,1.1107635036313153
basic,11,2,0,0,0,5,"[0, 19, 12, 5]",4,11,"[1, 6, 7, 13, 15, 16, 18, 22, 25, 26, 29]",144.7625437,12278,2090,38,136,10,1.0968174771581647
basic,11,2,0,0,0,22,"[0, 19, 12, 5, 22]",5,8,"[1, 6, 7, 13, 15, 18, 26, 29]",131.9562952,13517,1239,20,63,10,1.0889910507461968
basic,11,2,0,0,0,13,"[0, 19, 12, 5, 22, 13]",6,7,"[1, 6, 7, 15, 18, 26, 29]",117.0902265,14717,1200,19,20,10,1.236526217328057
basic,11,2,0,0,0,18,"[0, 19, 12, 5, 22, 13, 18]",7,4,"[7, 15, 26, 29]",81.91921567,16558,1841,10,3,10,1.2128708213409936
basic,11,2,0,0,0,7,"[0, 19, 12, 5, 22, 13, 18, 7]",8,3,"[15, 26, 29]",71.62358553,17445,887,5,0,10,1.2019811287894737
basic,11,2,0,0,0,26,"[0, 19, 12, 5, 22, 13, 18, 7, 26]",9,2,"[15, 29]",48.82007703,23566,6121,2,0,10,1.1883593342191134
basic,11,2,0,0,1,15,"[0, 19, 12, 5, 22, 13, 18, 7, 26, 15]",10,0,[],24.61264015,24533,967,1,0,10,1.4619750353663825
basic,11,2,0,1,1,15,"[0, 19, 12, 5, 22, 13, 18, 7, 26, 15]",10,0,[],24.61264015,26931,2398,1,0,10,1.4619750353663825
basic,12,23,0,0,0,0,[0],1,28,"[1, 2, 3, 4, 5, 6, 7, 8, 9, 10, 11, 12, 13, 14, 15, 16, 17, 18, 19, 20, 21, 22, 23, 25, 26, 27, 28, 29]",300,375,-1,76,2626,10,0.0
basic,12,23,0,0,0,22,"[0, 22]",2,24,"[1, 2, 3, 5, 6, 7, 8, 9, 10, 11, 12, 13, 14, 15, 17, 18, 19, 20, 21, 23, 25, 26, 27, 29]",210.5013967,6087,5712,15,1362,10,1.0
basic,12,23,0,0,0,13,"[0, 22, 13]",3,14,"[1, 2, 5, 6, 7, 8, 9, 10, 12, 14, 18, 21, 27, 29]",168.3113504,7290,1203,14,522,10,1.1898173563652046
basic,12,23,0,0,0,12,"[0, 22, 13, 12]",4,11,"[1, 2, 6, 7, 9, 10, 14, 18, 21, 27, 29]",156.2283045,10168,2878,12,166,10,1.1727968780218219
basic,12,23,0,0,0,9,"[0, 22, 13, 12, 9]",5,10,"[1, 2, 6, 7, 10, 14, 18, 21, 27, 29]",141.9104834,11135,967,5,49,10,1.2100380646101494
basic,12,23,0,0,0,14,"[0, 22, 13, 12, 9, 14]",6,8,"[1, 2, 6, 7, 10, 18, 27, 29]",131.4701769,12384,1249,2,19,10,1.1961799245073135
basic,12,23,0,0,0,2,"[0, 22, 13, 12, 9, 14, 2]",7,6,"[6, 7, 10, 18, 27, 29]",116.6041081,13575,1191,1,8,10,1.343965446549325
basic,12,23,0,0,0,6,"[0, 22, 13, 12, 9, 14, 2, 6]",8,3,"[18, 27, 29]",98.16501923,14584,1009,3,0,9,1.3433890277057379
basic,12,23,0,0,1,27,"[0, 22, 13, 12, 9, 14, 2, 6, 27]",9,0,[],69.86307584,15528,944,1,0,9,1.607346000085698
basic,12,23,0,1,1,27,"[0, 22, 13, 12, 9, 14, 2, 6, 27]",9,0,[],69.86307584,18095,2567,1,0,9,1.607346000085698
basic,13,34,0,0,0,0,[0],1,25,"[1, 3, 4, 5, 6, 7, 8, 9, 10, 11, 12, 13, 15, 18, 19, 20, 21, 22, 23, 24, 25, 26, 27, 28, 29]",300,372,-1,12,367,10,0.0
basic,13,34,0,0,0,13,"[0, 13]",2,24,"[1, 3, 4, 5, 6, 7, 8, 9, 10, 11, 12, 15, 18, 19, 20, 21, 22, 23, 24, 25, 26, 27, 28, 29]",279.9750156,4552,4180,12,331,10,1.0
basic,13,34,0,0,0,1,"[0, 13, 1]",3,16,"[3, 5, 7, 8, 9, 10, 11, 12, 19, 21, 22, 23, 24, 25, 27, 29]",211.8574701,6238,1686,3,92,10,1.0010381285747127
basic,13,34,0,0,0,25,"[0, 13, 1, 25]",4,13,"[3, 5, 7, 8, 9, 10, 11, 12, 22, 23, 24, 27, 29]",191.8574701,7556,1318,1,28,10,1.0624186564261213
basic,13,34,0,0,0,8,"[0, 13, 1, 25, 8]",5,11,"[5, 7, 9, 10, 11, 12, 22, 23, 24, 27, 29]",174.7694627,8804,1248,1,16,10,1.4733004388235296
basic,13,34,0,0,0,24,"[0, 13, 1, 25, 8, 24]",6,10,"[5, 7, 9, 10, 11, 12, 22, 23, 27, 29]",152.633519,10160,1356,1,14,10,1.5169865683750192
basic,13,34,0,0,0,12,"[0, 13, 1, 25, 8, 24, 12]",7,7,"[7, 9, 10, 11, 22, 23, 27]",101.5943184,11135,975,1,6,10,1.6121488148059382
basic,13,34,0,0,0,7,"[0, 13, 1, 25, 8, 24, 12, 7]",8,4,"[11, 22, 23, 27]",86.56102203,11919,784,1,3,10,1.8812682115159747
basic,13,34,0,0,0,23,"[0, 13, 1, 25, 8, 24, 12, 7, 23]",9,1,[27],58.40076635,12686,767,1,0,10,2.5459724145880136
basic,13,34,0,0,1,27,"[0, 13, 1, 25, 8, 24, 12, 7, 23, 27]",10,0,[],4.73513489,13972,1286,1,0,10,5.001616397791141
basic,13,34,0,1,1,27,"[0, 13, 1, 25, 8, 24, 12, 7, 23, 27]",10,0,[],4.73513489,16279,2307,1,0,10,5.001616397791141
basic,14,18,0,0,0,0,[0],1,28,"[1, 2, 3, 4, 5, 6, 7, 8, 9, 10, 11, 12, 13, 14, 16, 17, 18, 19, 20, 21, 22, 23, 24, 25, 26, 27, 28, 29]",300,374,-1,3,136,10,0.0
basic,14,18,0,0,0,28,"[0, 28]",2,16,"[1, 3, 5, 7, 8, 9, 12, 13, 14, 16, 20, 23, 24, 25, 26, 27]",236.4311397,4765,4391,2,19,10,1.0
basic,14,18,0,0,0,7,"[0, 28, 7]",3,15,"[1, 3, 5, 8, 9, 12, 13, 14, 16, 20, 23, 24, 25, 26, 27]",214.4084242,5963,1198,2,17,10,1.4345180696367563
basic,14,18,0,0,0,25,"[0, 28, 7, 25]",4,13,"[1, 3, 5, 8, 9, 12, 13, 14, 16, 20, 23, 26, 27]",186.6055466,7157,1194,2,15,10,1.8896451241781882
basic,14,18,0,0,0,8,"[0, 28, 7, 25, 8]",5,10,"[3, 5, 9, 12, 13, 14, 16, 23, 26, 27]",149.551532,8173,1016,2,10,10,1.590467437592877
basic,14,18,0,0,0,13,"[0, 28, 7, 25, 8, 13]",6,9,"[3, 5, 9, 12, 14, 16, 23, 26, 27]",128.4565089,9123,950,2,5,10,1.8248274983549797
basic,14,18,0,0,0,14,"[0, 28, 7, 25, 8, 13, 14]",7,7,"[3, 5, 9, 12, 23, 26, 27]",109.4828429,9804,681,2,3,10,1.6993534956692746
basic,14,18,0,0,0,3,"[0, 28, 7, 25, 8, 13, 14, 3]",8,3,"[5, 12, 27]",79.39962499,10675,871,2,1,10,1.802637206541468
basic,14,18,0,0,0,5,"[0, 28, 7, 25, 8, 13, 14, 3, 5]",9,1,[12],21.21887216,11956,1281,1,0,10,1.559774889743805
basic,14,18,0,0,1,12,"[0, 28, 7, 25, 8, 13, 14, 3, 5, 12]",10,0,[],9.817117911,13011,1055,1,0,10,1.563993037384447
basic,14,18,0,1,1,12,"[0, 28, 7, 25, 8, 13, 14, 3, 5, 12]",10,0,[],9.817117911,15298,2287,1,0,10,1.563993037384447
basic,15,21,0,0,0,0,[0],1,29,"[1, 2, 3, 4, 5, 6, 7, 8, 9, 10, 11, 12, 13, 14, 15, 16, 17, 18, 19, 20, 21, 22, 23, 24, 25, 26, 27, 28, 29]",300,346,-1,84,830,9,0.0
basic,15,21,0,0,0,25,"[0, 25]",2,26,"[1, 2, 3, 4, 5, 6, 7, 8, 9, 10, 11, 12, 13, 14, 15, 16, 17, 18, 20, 21, 22, 23, 24, 26, 27, 29]",240.1836143,4886,4540,30,238,9,1.0
basic,15,21,0,0,0,29,"[0, 25, 29]",3,23,"[1, 2, 4, 6, 7, 8, 9, 10, 11, 12, 13, 14, 15, 16, 17, 18, 20, 21, 22, 23, 24, 26, 27]",194.9619381,9518,4632,17,102,8,1.239867358623088
basic,15,21,0,0,0,18,"[0, 25, 29, 18]",4,20,"[2, 4, 6, 7, 8, 9, 10, 11, 12, 14, 15, 16, 17, 20, 21, 22, 23, 24, 26, 27]",166.3088405,11073,1555,7,31,8,2.2630282554453367
basic,15,21,0,0,0,22,"[0, 25, 29, 18, 22]",5,13,"[2, 4, 6, 7, 10, 11, 12, 14, 17, 20, 21, 23, 27]",139.9080829,12486,1413,2,11,8,1.946990970266948
basic,15,21,0,0,0,20,"[0, 25, 29, 18, 22, 20]",6,6,"[6, 7, 10, 11, 12, 17]",111.6768945,13379,893,2,4,8,2.286107663715309
basic,15,21,0,0,0,12,"[0, 25, 29, 18, 22, 20, 12]",7,1,[10],57.556658,14087,708,1,0,8,2.1838197935916495
basic,15,21,0,0,1,10,"[0, 25, 29, 18, 22, 20, 12, 10]",8,0,[],34.7531495,14734,647,1,0,8,2.1784765272491082
basic,15,21,0,1,1,10,"[0, 25, 29, 18, 22, 20, 12, 10]",8,0,[],34.7531495,17024,2290,1,0,8,2.1784765272491082
basic,16,7,0,0,0,0,[0],1,29,"[1, 2, 3, 4, 5, 6, 7, 8, 9, 10, 11, 12, 13, 14, 15, 16, 17, 18, 19, 20, 21, 22, 23, 24, 25, 26, 27, 28, 29]",300,473,-1,3,79,9,0.0
basic,16,7,0,0,0,6,"[0, 6]",2,22,"[2, 4, 5, 7, 8, 9, 10, 11, 13, 14, 15, 16, 18, 19, 20, 21, 22, 23, 24, 25, 27, 28]",231.1160396,5941,5468,1,24,9,1.0
basic,16,7,0,0,0,25,"[0, 6, 25]",3,14,"[2, 4, 5, 7, 13, 14, 15, 16, 18, 19, 20, 21, 23, 28]",163.9371739,7556,1615,1,15,9,1.1491202566384209
basic,16,7,0,0,0,4,"[0, 6, 25, 4]",4,10,"[2, 7, 13, 15, 16, 18, 19, 20, 21, 23]",139.1985401,9075,1519,1,9,9,1.145081852791697
basic,16,7,0,0,0,20,"[0, 6, 25, 4, 20]",5,6,"[2, 7, 13, 16, 18, 19]",119.5516574,10333,1258,1,4,9,1.2036846139155144
basic,16,7,0,0,0,18,"[0, 6, 25, 4, 20, 18]",6,5,"[2, 7, 13, 16, 19]",106.7454089,11090,757,1,3,9,1.3498144584217913
basic,16,7,0,0,0,7,"[0, 6, 25, 4, 20, 18, 7]",7,2,"[2, 19]",65.51435269,12251,1161,1,1,9,1.2817825700699357
basic,16,7,0,0,0,19,"[0, 6, 25, 4, 20, 18, 7, 19]",8,1,[2],36.10347035,13074,823,1,0,9,1.3950287830764145
basic,16,7,0,0,1,2,"[0, 6, 25, 4, 20, 18, 7, 19, 2]",9,0,[],5.953843486,14426,1352,1,0,9,1.4010142439340676
basic,16,7,0,1,1,2,"[0, 6, 25, 4, 20, 18, 7, 19, 2]",9,0,[],5.953843486,16135,1709,1,0,9,1.4010142439340676
basic,17,16,0,0,0,0,[0],1,29,"[1, 2, 3, 4, 5, 6, 7, 8, 9, 10, 11, 12, 13, 14, 15, 16, 17, 18, 19, 20, 21, 22, 23, 24, 25, 26, 27, 28, 29]",300,373,-1,13,161,9,0.0
basic,17,16,0,0,0,21,"[0, 21]",2,28,"[1, 2, 3, 4, 5, 6, 7, 8, 9, 10, 11, 12, 13, 14, 15, 16, 17, 18, 19, 20, 22, 23, 24, 25, 26, 27, 28, 29]",215.1884442,6662,6289,5,68,8,1.0
basic,17,16,0,0,0,17,"[0, 21, 17]",3,19,"[1, 2, 5, 8, 9, 11, 12, 14, 16, 18, 19, 20, 22, 23, 24, 25, 26, 27, 28]",156.8789252,8478,1816,5,12,7,2.4384226058289142
basic,17,16,0,0,0,16,"[0, 21, 17, 16]",4,10,"[5, 8, 9, 12, 14, 20, 23, 25, 27, 28]",128.5593207,9527,1049,5,5,7,2.074604532965529
basic,17,16,0,0,0,8,"[0, 21, 17, 16, 8]",5,4,"[5, 9, 20, 25]",80.18577423,10819,1292,4,2,7,1.7721767928289685
basic,17,16,0,0,1,5,"[0, 21, 17, 16, 8, 5]",6,0,[],3.056013435,12702,1883,1,0,6,1.5700557173134606
basic,17,16,0,1,1,5,"[0, 21, 17, 16, 8, 5]",6,0,[],3.056013435,16930,4228,1,0,6,1.5700557173134606
basic,18,17,0,0,0,0,[0],1,28,"[1, 2, 3, 4, 5, 6, 7, 8, 9, 10, 11, 12, 13, 14, 15, 16, 17, 18, 19, 20, 22, 23, 24, 25, 26, 27, 28, 29]",300,355,-1,2,73,8,0.0
basic,18,17,0,0,0,9,"[0, 9]",2,25,"[1, 2, 3, 5, 6, 7, 8, 10, 11, 12, 14, 15, 16, 17, 18, 19, 20, 22, 23, 24, 25, 26, 27, 28, 29]",210.5293344,4141,3786,1,34,8,1.0
basic,18,17,0,0,0,16,"[0, 9, 16]",3,21,"[1, 2, 3, 5, 7, 8, 10, 11, 12, 14, 17, 18, 19, 20, 22, 23, 25, 26, 27, 28, 29]",197.1876704,5432,1291,1,26,8,1.173103464220352
basic,18,17,0,0,0,2,"[0, 9, 16, 2]",4,18,"[1, 3, 5, 7, 8, 10, 11, 12, 14, 17, 18, 19, 23, 25, 26, 27, 28, 29]",181.0631549,6267,835,1,23,8,1.14825089247282
basic,18,17,0,0,0,17,"[0, 9, 16, 2, 17]",5,7,"[7, 8, 12, 14, 26, 27, 29]",142.7356191,7479,1212,4,5,7,1.4896040699768547
basic,18,17,0,0,0,8,"[0, 9, 16, 2, 17, 8]",6,3,"[7, 12, 27]",104.5256727,8886,1407,3,0,7,1.4604726966175894
basic,18,17,0,0,1,7,"[0, 9, 16, 2, 17, 8, 7]",7,0,[],33.81499459,10066,1180,1,0,7,1.4474701869793896
basic,18,17,0,1,1,7,"[0, 9, 16, 2, 17, 8, 7]",7,0,[],33.81499459,11729,1663,1,0,7,1.4474701869793896
basic,19,12,0,0,0,0,[0],1,29,"[1, 2, 3, 4, 5, 6, 7, 8, 9, 10, 11, 12, 13, 14, 15, 16, 17, 18, 19, 20, 21, 22, 23, 24, 25, 26, 27, 28, 29]",300,403,-1,2,32,9,0.0
basic,19,12,0,0,0,16,"[0, 16]",2,16,"[2, 4, 5, 6, 7, 12, 13, 14, 18, 19, 22, 23, 24, 25, 27, 29]",209.2916762,4449,4046,3,38,8,1.0
basic,19,12,0,0,0,4,"[0, 16, 4]",3,11,"[2, 5, 6, 7, 12, 14, 19, 22, 24, 25, 27]",175.0864135,5888,1439,1,16,8,1.00004499617691
basic,19,12,0,0,0,12,"[0, 16, 4, 12]",4,6,"[14, 19, 22, 24, 25, 27]",132.8963673,7171,1283,1,8,8,1.0113942412768022
basic,19,12,0,0,0,27,"[0, 16, 4, 12, 27]",5,4,"[14, 19, 22, 24]",108.5447759,8235,1064,1,3,8,1.1193150037844588
basic,19,12,0,0,0,14,"[0, 16, 4, 12, 27, 14]",6,2,"[19, 24]",79.89167838,9118,883,1,1,8,1.1821826897854277
basic,19,12,0,0,0,24,"[0, 16, 4, 12, 27, 14, 24]",7,1,[19],62.68702784,9735,617,1,0,8,1.3297400833764192
basic,19,12,0,0,1,19,"[0, 16, 4, 12, 27, 14, 24, 19]",8,0,[],3.865263163,10787,1052,1,0,8,2.27325645157102
basic,19,12,0,1,1,19,"[0, 16, 4, 12, 27, 14, 24, 19]",8,0,[],3.865263163,12565,1778,1,0,8,2.27325645157102
basic,20,11,0,0,0,0,[0],1,25,"[1, 2, 3, 4, 5, 6, 8, 9, 10, 11, 12, 13, 14, 15, 16, 17, 18, 19, 20, 22, 23, 25, 26, 27, 28]",300,472,-1,6,374,12,0.0
basic,20,11,0,0,0,18,"[0, 18]",2,21,"[1, 2, 4, 5, 6, 8, 9, 11, 12, 13, 14, 15, 16, 17, 19, 20, 22, 23, 25, 27, 28]",236.8493864,7563,7091,157,1477,11,1.0
basic,20,11,0,0,0,27,"[0, 18, 27]",3,19,"[1, 2, 4, 5, 6, 8, 9, 11, 12, 14, 15, 16, 17, 19, 20, 22, 23, 25, 28]",212.9956655,8391,828,157,1315,11,1.060949579704323
basic,20,11,0,0,0,17,"[0, 18, 27, 17]",4,14,"[1, 2, 4, 5, 6, 8, 11, 12, 15, 19, 22, 23, 25, 28]",135.9177828,9665,1274,46,349,11,1.1156120043677304
basic,20,11,0,0,0,8,"[0, 18, 27, 17, 8]",5,11,"[1, 2, 5, 6, 11, 12, 15, 19, 22, 25, 28]",121.5999617,10791,1126,26,143,11,1.2285932943120847
basic,20,11,0,0,0,15,"[0, 18, 27, 17, 8, 15]",6,9,"[2, 5, 6, 11, 12, 19, 22, 25, 28]",108.1463377,12119,1328,24,54,11,1.223015425852291
basic,20,11,0,0,0,11,"[0, 18, 27, 17, 8, 15, 11]",7,6,"[2, 5, 12, 19, 22, 28]",90.03556742,13239,1120,22,2,11,1.2111003833550413
basic,20,11,0,0,0,28,"[0, 18, 27, 17, 8, 15, 11, 28]",8,3,"[2, 5, 22]",70.61907959,14319,1080,6,0,11,1.3274100985292616
basic,20,11,0,0,0,5,"[0, 18, 27, 17, 8, 15, 11, 28, 5]",9,2,"[2, 22]",52.73053577,15303,984,2,0,11,1.5198534752211967
basic,20,11,0,0,0,2,"[0, 18, 27, 17, 8, 15, 11, 28, 5, 2]",10,1,[22],35.73053577,16167,864,1,0,11,1.4805999496229154
basic,20,11,0,0,1,22,"[0, 18, 27, 17, 8, 15, 11, 28, 5, 2, 22]",11,0,[],25.68066014,16840,673,1,0,11,1.4550139853626707
basic,20,11,0,1,1,22,"[0, 18, 27, 17, 8, 15, 11, 28, 5, 2, 22]",11,0,[],25.68066014,19229,2389,1,0,11,1.4550139853626707
basic,21,45,0,0,0,0,[0],1,24,"[1, 2, 3, 4, 5, 6, 7, 9, 10, 11, 12, 14, 15, 16, 17, 19, 20, 21, 22, 23, 24, 25, 27, 29]",300,344,-1,6,248,10,0.0
basic,21,45,0,0,0,15,"[0, 15]",2,23,"[1, 2, 3, 4, 5, 6, 7, 9, 10, 11, 12, 14, 16, 17, 19, 20, 21, 22, 23, 24, 25, 27, 29]",253.9022777,8506,8162,5,207,10,1.0
basic,21,45,0,0,0,17,"[0, 15, 17]",3,17,"[1, 2, 3, 5, 6, 7, 9, 10, 11, 12, 19, 20, 21, 22, 23, 24, 29]",196.4740617,9642,1136,6,65,9,1.6142463780502154
basic,21,45,0,0,0,24,"[0, 15, 17, 24]",4,16,"[1, 2, 3, 5, 6, 7, 9, 10, 11, 12, 19, 20, 21, 22, 23, 29]",154.41458,10957,1315,6,48,9,1.4133840686792347
basic,21,45,0,0,0,7,"[0, 15, 17, 24, 7]",5,11,"[2, 3, 6, 9, 10, 12, 19, 20, 22, 23, 29]",120.0052789,11955,998,6,34,9,1.3566841772555323
basic,21,45,0,0,0,2,"[0, 15, 17, 24, 7, 2]",6,7,"[3, 6, 10, 12, 20, 22, 29]",81.99212328,12914,959,5,8,9,1.3006879761346553
basic,21,45,0,0,0,3,"[0, 15, 17, 24, 7, 2, 3]",7,5,"[6, 10, 12, 22, 29]",56.67414547,14883,1969,3,3,9,1.3564232877584654
basic,21,45,0,0,0,29,"[0, 15, 17, 24, 7, 2, 3, 29]",8,2,"[6, 10]",36.67414547,15561,678,2,0,9,1.6349652117985949
basic,21,45,0,0,1,10,"[0, 15, 17, 24, 7, 2, 3, 29, 10]",9,0,[],15.13348625,16673,1112,1,0,9,1.9359422208028416
basic,21,45,0,1,1,10,"[0, 15, 17, 24, 7, 2, 3, 29, 10]",9,0,[],15.13348625,18950,2277,1,0,9,1.9359422208028416
basic,22,0,0,0,0,0,[0],1,27,"[2, 3, 4, 5, 6, 7, 8, 9, 10, 11, 12, 13, 14, 15, 16, 17, 19, 20, 21, 22, 23, 24, 25, 26, 27, 28, 29]",300,380,-1,104,1136,9,0.0
basic,22,0,0,0,0,21,"[0, 21]",2,24,"[3, 4, 5, 6, 7, 8, 9, 10, 11, 12, 13, 14, 15, 16, 17, 19, 20, 22, 23, 24, 26, 27, 28, 29]",228.2156006,6900,6520,24,249,9,1.0
basic,22,0,0,0,0,28,"[0, 21, 28]",3,21,"[3, 4, 5, 6, 7, 8, 9, 11, 12, 13, 14, 15, 16, 17, 19, 20, 23, 24, 26, 27, 29]",166.6282642,8673,1773,24,214,9,1.269228840767463
basic,22,0,0,0,0,5,"[0, 21, 28, 5]",4,16,"[3, 4, 7, 8, 9, 11, 12, 14, 15, 17, 19, 20, 23, 24, 26, 29]",122.9705043,9968,1295,17,100,9,1.3066419815776449
basic,22,0,0,0,0,4,"[0, 21, 28, 5, 4]",5,13,"[3, 7, 8, 9, 11, 12, 15, 17, 19, 20, 23, 24, 26]",97.89063191,10896,928,12,40,9,1.2910976504592468
basic,22,0,0,0,0,26,"[0, 21, 28, 5, 4, 26]",6,10,"[3, 7, 8, 9, 11, 12, 15, 17, 23, 24]",85.84903733,12176,1280,5,20,9,1.3255611811315622
basic,22,0,0,0,0,24,"[0, 21, 28, 5, 4, 26, 24]",7,8,"[3, 7, 8, 9, 11, 12, 15, 17]",68.73179456,13529,1353,5,6,9,1.3862320021735308
basic,22,0,0,0,0,15,"[0, 21, 28, 5, 4, 26, 24, 15]",8,3,"[7, 8, 9]",45.3865595,14328,799,3,0,9,1.3469536849324695
basic,22,0,0,0,1,9,"[0, 21, 28, 5, 4, 26, 24, 15, 9]",9,0,[],7.730218731,15424,1096,1,0,9,1.4293672616889153
basic,22,0,0,1,1,9,"[0, 21, 28, 5, 4, 26, 24, 15, 9]",9,0,[],7.730218731,17220,1796,1,0,9,1.4293672616889153
undo,23,13,0,0,0,0,[0],1,29,"[1, 2, 3, 4, 5, 6, 7, 8, 9, 10, 11, 12, 13, 14, 15, 16, 17, 18, 19, 20, 21, 22, 23, 24, 25, 26, 27, 28, 29]",300,332,-1,60,2676,11,0.0
undo,23,13,0,0,0,24,"[0, 24]",2,28,"[1, 2, 3, 4, 5, 6, 7, 8, 9, 10, 11, 12, 13, 14, 15, 16, 17, 18, 19, 20, 21, 22, 23, 25, 26, 27, 28, 29]",288.8196601,12537,12205,16,1444,11,1.0
undo,23,13,0,0,0,23,"[0, 24, 23]",3,27,"[1, 2, 3, 4, 5, 6, 7, 8, 9, 10, 11, 12, 13, 14, 15, 16, 17, 18, 19, 20, 21, 22, 25, 26, 27, 28, 29]",243.1140806,14357,1820,2,868,11,1.0065545717039834
undo,23,13,0,0,0,16,"[0, 24, 23, 16]",4,25,"[1, 2, 3, 4, 6, 7, 8, 9, 10, 11, 12, 13, 14, 15, 17, 18, 19, 20, 21, 22, 25, 26, 27, 28, 29]",202.8027918,15893,1536,1,145,11,1.055930143104189
undo,23,13,0,0,0,3,"[0, 24, 23, 16, 3]",5,20,"[2, 4, 6, 7, 8, 9, 10, 11, 13, 14, 15, 18, 20, 21, 22, 25, 26, 27, 28, 29]",174.3598665,17839,1946,3,44,10,1.233783650807853
undo,23,13,0,0,0,27,"[0, 24, 23, 16, 3, 27]",6,8,"[4, 6, 8, 11, 18, 20, 25, 26]",134.1603641,21106,3267,2,3,9,1.1728392504279654
undo,23,13,0,0,0,4,"[0, 24, 23, 16, 3, 27, 4]",7,3,"[8, 18, 20]",112.1376485,22110,1004,1,2,9,1.449346373743434
undo,23,13,0,0,0,20,"[0, 24, 23, 16, 3, 27, 4, 20]",8,1,[8],90.11493296,22790,680,1,0,9,1.9077307626570228
undo,23,13,0,0,1,8,"[0, 24, 23, 16, 3, 27, 4, 20, 8]",9,0,[],28.5925793,23938,1148,1,0,9,1.7683235338442822
undo,23,13,0,1,1,8,"[0, 24, 23, 16, 3, 27, 4, 20, 8]",9,0,[],28.5925793,25716,1778,1,0,9,1.7683235338442822
undo,24,33,0,0,0,0,[0],1,23,"[1, 2, 5, 7, 8, 11, 12, 13, 14, 15, 16, 17, 18, 19, 20, 21, 23, 24, 25, 26, 27, 28, 29]",300,351,-1,5,108,9,0.0
undo,24,33,0,0,0,8,"[0, 8]",2,22,"[1, 2, 5, 7, 11, 12, 13, 14, 15, 16, 17, 18, 19, 20, 21, 23, 24, 25, 26, 27, 28, 29]",265.8679037,6469,6118,5,87,9,1.0
undo,24,33,0,0,0,21,"[0, 8, 21]",3,16,"[2, 5, 7, 11, 13, 14, 16, 17, 18, 19, 20, 24, 26, 27, 28, 29]",166.0430571,8624,2155,5,80,9,1.0670557763739492
undo,24,33,0,0,0,13,"[0, 8, 21, 13]",4,12,"[2, 7, 11, 14, 16, 17, 18, 19, 20, 24, 26, 29]",139.6422995,11508,2884,4,54,9,1.0555103820910288
undo,24,33,0,0,0,19,"[0, 8, 21, 13, 19]",5,10,"[7, 11, 14, 16, 17, 18, 20, 24, 26, 29]",114.1472019,12353,845,3,19,9,1.1090798607799486
undo,24,33,0,0,0,24,"[0, 8, 21, 13, 19, 24]",6,6,"[7, 14, 16, 18, 26, 29]",72.09960985,13157,804,2,3,9,1.1193530461391534
undo,24,33,0,0,0,7,"[0, 8, 21, 13, 19, 24, 7]",7,2,"[14, 26]",42.89344611,14434,1277,2,0,9,1.2065014071663551
undo,24,33,0,0,0,14,"[0, 8, 21, 13, 19, 24, 7, 14]",8,1,[26],28.02737737,15541,1107,1,0,9,1.2536495746979057
undo,24,33,0,0,1,26,"[0, 8, 21, 13, 19, 24, 7, 14, 26]",9,0,[],15.37826672,16477,936,1,0,9,1.2580465331304596
undo,24,33,0,1,1,26,"[0, 8, 21, 13, 19, 24, 7, 14, 26]",9,0,[],15.37826672,18395,1918,1,0,9,1.2580465331304596
undo,25,25,0,0,0,0,[0],1,28,"[1, 2, 3, 4, 5, 7, 8, 9, 10, 11, 12, 13, 14, 15, 16, 17, 18, 19, 20, 21, 22, 23, 24, 25, 26, 27, 28, 29]",300,393,-1,5,94,10,0.0
undo,25,25,0,0,0,7,"[0, 7]",2,18,"[1, 3, 5, 8, 9, 11, 13, 17, 19, 20, 21, 22, 23, 24, 26, 27, 28, 29]",182.7993174,5441,5048,1,22,8,1.0
undo,25,25,0,0,0,24,"[0, 7, 24]",3,11,"[3, 5, 8, 9, 11, 13, 19, 22, 23, 28, 29]",158.0404806,6423,982,1,18,8,1.0100618974182514
undo,25,25,0,0,0,9,"[0, 7, 24, 9]",4,9,"[3, 8, 11, 13, 19, 22, 23, 28, 29]",140.0127242,7894,1471,1,17,8,1.0248438018220953
undo,25,25,0,0,0,13,"[0, 7, 24, 9, 13]",5,4,"[3, 8, 11, 28]",83.69221286,9398,1504,4,2,7,1.0731739504860616
undo,25,25,0,0,0,3,"[0, 7, 24, 9, 13, 3]",6,2,"[8, 28]",52.45121416,10710,1312,2,0,7,1.3369886648764508
undo,25,25,0,0,1,28,"[0, 7, 24, 9, 13, 3, 28]",7,0,[],21.14626247,11662,952,1,0,7,1.2886439507663185
undo,25,25,0,1,1,28,"[0, 7, 24, 9, 13, 3, 28]",7,0,[],21.14626247,14606,2944,1,0,7,1.2886439507663185
undo,26,36,0,0,0,0,[0],1,24,"[2, 4, 5, 6, 7, 8, 9, 10, 12, 13, 14, 15, 16, 17, 18, 19, 20, 22, 23, 25, 26, 27, 28, 29]",300,335,-1,2,200,10,0.0
undo,26,36,0,0,0,18,"[0, 18]",2,21,"[2, 4, 5, 6, 7, 8, 9, 10, 12, 13, 14, 16, 17, 19, 22, 23, 25, 26, 27, 28, 29]",279.6039219,7951,7616,2,110,10,1.0
undo,26,36,0,0,0,12,"[0, 18, 12]",3,19,"[2, 4, 5, 6, 7, 8, 9, 10, 13, 16, 17, 19, 22, 23, 25, 26, 27, 28, 29]",237.0245842,9061,1110,2,86,10,2.836270082716982
undo,26,36,0,0,0,9,"[0, 18, 12, 9]",4,9,"[2, 4, 10, 13, 16, 17, 19, 23, 25]",174.6627369,10198,1137,1,40,10,1.8147676024843966
undo,26,36,0,0,0,16,"[0, 18, 12, 9, 16]",5,5,"[2, 13, 17, 19, 25]",127.3658026,11502,1304,4,11,9,1.6173640341692257
undo,26,36,0,0,0,17,"[0, 18, 12, 9, 16, 17]",6,4,"[2, 13, 19, 25]",99.04619804,12501,999,4,5,9,2.126167915720943
undo,26,36,0,0,0,19,"[0, 18, 12, 9, 16, 17, 19]",7,3,"[2, 13, 25]",71.15354668,13422,921,3,0,9,2.9690287970141402
undo,26,36,0,0,0,2,"[0, 18, 12, 9, 16, 17, 19, 2]",8,1,[25],34.0321243,14533,1111,1,0,9,2.355174034952613
undo,26,36,0,0,1,25,"[0, 18, 12, 9, 16, 17, 19, 2, 25]",9,0,[],9.032124296,15409,876,1,0,9,2.541422245252009
undo,26,36,0,1,1,25,"[0, 18, 12, 9, 16, 17, 19, 2, 25]",9,0,[],9.032124296,18092,2683,1,0,9,2.541422245252009
undo,27,11,0,0,0,0,[0],1,25,"[1, 2, 3, 4, 5, 6, 8, 9, 10, 11, 12, 13, 14, 15, 16, 17, 18, 19, 20, 22, 23, 25, 26, 27, 28]",300,383,-1,6,374,12,0.0
undo,27,11,0,0,0,18,"[0, 18]",2,21,"[1, 2, 4, 5, 6, 8, 9, 11, 12, 13, 14, 15, 16, 17, 19, 20, 22, 23, 25, 27, 28]",236.8493864,5660,5277,157,1477,11,1.0
undo,27,11,0,0,0,27,"[0, 18, 27]",3,19,"[1, 2, 4, 5, 6, 8, 9, 11, 12, 14, 15, 16, 17, 19, 20, 22, 23, 25, 28]",212.9956655,6339,679,157,1315,11,1.060949579704323
undo,27,11,0,0,0,17,"[0, 18, 27, 17]",4,14,"[1, 2, 4, 5, 6, 8, 11, 12, 15, 19, 22, 23, 25, 28]",135.9177828,7891,1552,46,349,11,1.1156120043677304
undo,27,11,0,0,0,15,"[0, 18, 27, 17, 15]",5,10,"[2, 5, 6, 8, 11, 12, 19, 22, 25, 28]",123.2686722,8706,815,20,158,11,1.1266146162629591
undo,27,11,0,0,0,8,"[0, 18, 27, 17, 15, 8]",6,8,"[2, 5, 11, 12, 19, 22, 25, 28]",109.8150481,9652,946,17,63,11,1.3097528386764161
undo,27,11,0,0,0,11,"[0, 18, 27, 17, 15, 8, 11]",7,5,"[2, 5, 19, 22, 28]",81.65479244,10564,912,14,10,11,1.2594417127238766
undo,27,11,0,0,0,28,"[0, 18, 27, 17, 15, 8, 11, 28]",8,3,"[2, 5, 22]",62.2383046,11461,897,6,0,11,1.3759090117577155
undo,27,11,0,0,0,2,"[0, 18, 27, 17, 15, 8, 11, 28, 2]",9,2,"[5, 22]",51.60815879,12587,1126,2,0,11,1.3916437476188743
undo,27,11,0,0,0,22,"[0, 18, 27, 17, 15, 8, 11, 28, 2, 22]",10,1,[5],41.55828317,13154,567,1,0,11,1.3707976717234038
undo,27,11,0,0,1,5,"[0, 18, 27, 17, 15, 8, 11, 28, 2, 22, 5]",11,0,[],14.98762266,14444,1290,1,0,11,1.7518420785606201
undo,27,11,0,1,1,5,"[0, 18, 27, 17, 15, 8, 11, 28, 2, 22, 5]",11,0,[],14.98762266,16197,1753,1,0,11,1.7518420785606201
undo,28,34,0,0,0,0,[0],1,25,"[1, 3, 4, 5, 6, 7, 8, 9, 10, 11, 12, 13, 15, 18, 19, 20, 21, 22, 23, 24, 25, 26, 27, 28, 29]",300,371,-1,12,367,10,0.0
undo,28,34,0,0,0,13,"[0, 13]",2,24,"[1, 3, 4, 5, 6, 7, 8, 9, 10, 11, 12, 15, 18, 19, 20, 21, 22, 23, 24, 25, 26, 27, 28, 29]",279.9750156,4347,3976,12,331,10,1.0
undo,28,34,0,0,0,1,"[0, 13, 1]",3,16,"[3, 5, 7, 8, 9, 10, 11, 12, 19, 21, 22, 23, 24, 25, 27, 29]",211.8574701,5390,1043,3,92,10,1.0010381285747127
undo,28,34,0,0,0,8,"[0, 13, 1, 8]",4,14,"[3, 5, 7, 9, 10, 11, 12, 19, 22, 23, 24, 25, 27, 29]",201.0871405,6363,973,2,54,10,1.1636807
undo,28,34,0,0,0,25,"[0, 13, 1, 8, 25]",5,12,"[3, 5, 7, 9, 10, 11, 12, 22, 23, 24, 27, 29]",183.999133,7476,1113,2,28,10,1.1396208815936457
undo,28,34,0,0,0,24,"[0, 13, 1, 8, 25, 24]",6,11,"[3, 5, 7, 9, 10, 11, 12, 22, 23, 27, 29]",166.5062774,8380,904,2,23,10,1.374180768736554
undo,28,34,0,0,0,12,"[0, 13, 1, 8, 25, 24, 12]",7,7,"[7, 9, 10, 11, 22, 23, 27]",115.4670767,9220,840,1,8,10,1.4994254760835948
undo,28,34,0,0,0,7,"[0, 13, 1, 8, 25, 24, 12, 7]",8,5,"[9, 11, 22, 23, 27]",100.4337804,10180,960,1,4,10,1.758992610425009
undo,28,34,0,0,0,23,"[0, 13, 1, 8, 25, 24, 12, 7, 23]",9,1,[27],72.27352467,11475,1295,1,0,10,2.399781305190153
undo,28,34,0,0,1,27,"[0, 13, 1, 8, 25, 24, 12, 7, 23, 27]",10,0,[],18.60789321,12651,1176,1,0,10,4.766619878750327
undo,28,34,0,1,1,27,"[0, 13, 1, 8, 25, 24, 12, 7, 23, 27]",10,0,[],18.60789321,14498,1847,1,0,10,4.766619878750327
undo,29,5,0,0,0,0,[0],1,29,"[1, 2, 3, 4, 5, 6, 7, 8, 9, 10, 11, 12, 13, 14, 15, 16, 17, 18, 19, 20, 21, 22, 23, 24, 25, 26, 27, 28, 29]",300,433,-1,5,139,9,0.0
undo,29,5,0,0,0,8,"[0, 8]",2,25,"[1, 2, 3, 4, 5, 6, 9, 11, 12, 13, 14, 15, 17, 18, 19, 20, 21, 22, 23, 24, 25, 26, 27, 28, 29]",208.239442,6953,6520,23,124,7,1.0
undo,29,5,0,0,0,19,"[0, 8, 19]",3,18,"[3, 4, 5, 6, 9, 12, 13, 14, 15, 17, 18, 22, 23, 24, 25, 27, 28, 29]",167.8785699,8239,1286,1,20,7,1.0250598739780148
undo,29,5,0,0,0,27,"[0, 8, 19, 27]",4,4,"[3, 9, 13, 28]",107.8785699,14015,5776,3,2,6,1.6337305206950226
undo,29,5,0,0,0,9,"[0, 8, 19, 27, 9]",5,2,"[3, 13]",68.8273215,14786,771,2,0,6,1.8076923008012051
undo,29,5,0,0,1,13,"[0, 8, 19, 27, 9, 13]",6,0,[],43.21482455,15471,685,1,0,6,2.451696087164628
undo,29,5,0,1,1,13,"[0, 8, 19, 27, 9, 13]",6,0,[],43.21482455,17128,1657,1,0,6,2.451696087164628
undo,30,32,0,0,0,0,[0],1,29,"[1, 2, 3, 4, 5, 6, 7, 8, 9, 10, 11, 12, 13, 14, 15, 16, 17, 18, 19, 20, 21, 22, 23, 24, 25, 26, 27, 28, 29]",300,463,-1,17,359,10,0.0
undo,30,32,0,0,0,19,"[0, 19]",2,28,"[1, 2, 3, 4, 5, 6, 7, 8, 9, 10, 11, 12, 13, 14, 15, 16, 17, 18, 20, 21, 22, 23, 24, 25, 26, 27, 28, 29]",283.5075775,5634,5171,16,294,10,1.0
undo,30,32,0,0,0,13,"[0, 19, 13]",3,24,"[2, 3, 4, 5, 6, 8, 9, 10, 11, 12, 14, 15, 16, 17, 18, 20, 21, 22, 23, 24, 25, 26, 27, 28]",260.3127505,7887,2253,14,227,10,1.0172874229878615
undo,30,32,0,0,0,15,"[0, 19, 13, 15]",4,18,"[2, 3, 5, 8, 9, 10, 11, 12, 16, 17, 20, 22, 23, 24, 25, 26, 27, 28]",177.4393531,8958,1071,9,116,10,1.435447391509833
undo,30,32,0,0,0,28,"[0, 19, 13, 15, 28]",5,17,"[2, 3, 5, 8, 9, 10, 11, 12, 16, 17, 20, 22, 23, 24, 25, 26, 27]",166.0375988,9818,860,9,70,10,1.3843701324937985
undo,30,32,0,0,0,12,"[0, 19, 13, 15, 28, 12]",6,14,"[2, 3, 5, 8, 9, 10, 11, 16, 17, 20, 22, 24, 26, 27]",147.0639329,10521,703,6,35,10,1.358372254952329
undo,30,32,0,0,0,16,"[0, 19, 13, 15, 28, 12, 16]",7,13,"[2, 3, 5, 8, 9, 10, 11, 17, 20, 22, 24, 26, 27]",131.411457,11118,597,5,15,10,1.4356932930709845
undo,30,32,0,0,0,22,"[0, 19, 13, 15, 28, 12, 16, 22]",8,6,"[2, 8, 9, 17, 20, 27]",97.57360838,12126,1008,3,5,10,1.4335226411545752
undo,30,32,0,0,0,9,"[0, 19, 13, 15, 28, 12, 16, 22, 9]",9,3,"[2, 8, 20]",75.37000507,13087,961,3,0,10,1.4837166378374758
undo,30,32,0,0,1,8,"[0, 19, 13, 15, 28, 12, 16, 22, 9, 8]",10,0,[],30.24794838,14047,960,1,0,10,1.3767698817641267
undo,30,32,0,1,1,8,"[0, 19, 13, 15, 28, 12, 16, 22, 9, 8]",10,0,[],30.24794838,15914,1867,1,0,10,1.3767698817641267
undo,31,42,0,0,0,0,[0],1,29,"[1, 2, 3, 4, 5, 6, 7, 8, 9, 10, 11, 12, 13, 14, 15, 16, 17, 18, 19, 20, 21, 22, 23, 24, 25, 26, 27, 28, 29]",300,431,-1,16,302,9,0.0
undo,31,42,0,0,0,3,"[0, 3]",2,25,"[1, 2, 4, 5, 6, 7, 8, 9, 10, 11, 13, 15, 17, 18, 19, 20, 21, 22, 23, 24, 25, 26, 27, 28, 29]",255.7959278,4506,4075,3,45,9,1.0
undo,31,42,0,0,0,23,"[0, 3, 23]",3,15,"[1, 2, 4, 5, 6, 7, 8, 9, 11, 15, 17, 22, 24, 25, 29]",202.4573864,6026,1520,1,24,8,1.2042297975308642
undo,31,42,0,0,0,17,"[0, 3, 23, 17]",4,11,"[4, 5, 6, 8, 9, 11, 15, 22, 24, 25, 29]",191.2770465,6809,783,1,14,8,1.192958341617778
undo,31,42,0,0,0,11,"[0, 3, 23, 17, 11]",5,7,"[4, 6, 8, 15, 22, 24, 25]",140.0813435,7722,913,1,7,8,1.7422648616902974
undo,31,42,0,0,0,24,"[0, 3, 23, 17, 11, 24]",6,2,"[6, 15]",82.0727235,9003,1281,1,1,8,1.6631309430247303
undo,31,42,0,0,0,15,"[0, 3, 23, 17, 11, 24, 15]",7,1,[6],68.47125299,10010,1007,1,0,8,1.6008668931493675
undo,31,42,0,0,1,6,"[0, 3, 23, 17, 11, 24, 15, 6]",8,0,[],19.07489685,11170,1160,1,0,8,1.4594939660868298
undo,31,42,0,1,1,6,"[0, 3, 23, 17, 11, 24, 15, 6]",8,0,[],19.07489685,12417,1247,1,0,8,1.4594939660868298
undo,32,12,0,0,0,0,[0],1,29,"[1, 2, 3, 4, 5, 6, 7, 8, 9, 10, 11, 12, 13, 14, 15, 16, 17, 18, 19, 20, 21, 22, 23, 24, 25, 26, 27, 28, 29]",300,399,-1,2,32,9,0.0
undo,32,12,0,0,0,25,"[0, 25]",2,16,"[2, 4, 5, 6, 7, 9, 12, 14, 16, 18, 19, 22, 23, 24, 27, 28]",225.7975742,2638,2239,5,34,8,1.0
undo,32,12,0,0,0,16,"[0, 25, 16]",3,11,"[2, 4, 5, 6, 7, 12, 14, 19, 22, 24, 27]",169.0701557,3833,1195,4,22,8,1.4434159828731936
undo,32,12,0,0,0,22,"[0, 25, 16, 22]",4,10,"[2, 4, 5, 6, 7, 12, 14, 19, 24, 27]",148.0701557,4655,822,2,13,8,1.726364042386772
undo,32,12,0,0,0,4,"[0, 25, 16, 22, 4]",5,5,"[12, 14, 19, 24, 27]",103.4719495,5736,1081,2,5,8,1.5733828402319396
undo,32,12,0,0,0,12,"[0, 25, 16, 22, 4, 12]",6,2,"[14, 27]",61.28190329,6559,823,1,1,8,1.4448405722842959
undo,32,12,0,0,0,27,"[0, 25, 16, 22, 4, 12, 27]",7,1,[14],36.93031196,7272,713,1,0,8,1.537998507213724
undo,32,12,0,0,1,14,"[0, 25, 16, 22, 4, 12, 27, 14]",8,0,[],8.2772144,7991,719,1,0,8,1.5668177596106356
undo,32,12,0,1,1,14,"[0, 25, 16, 22, 4, 12, 27, 14]",8,0,[],8.2772144,9482,1491,1,0,8,1.5668177596106356
undo,33,30,0,0,0,0,[0],1,19,"[3, 4, 5, 7, 9, 11, 16, 17, 18, 19, 20, 21, 22, 24, 25, 26, 27, 28, 29]",300,369,-1,5,41,8,0.0
undo,33,30,0,0,0,16,"[0, 16]",2,17,"[3, 5, 7, 9, 11, 17, 18, 19, 20, 21, 22, 24, 25, 26, 27, 28, 29]",219.3774225,5932,5563,5,34,8,1.0
undo,33,30,0,0,0,26,"[0, 16, 26]",3,8,"[9, 11, 17, 20, 22, 25, 27, 28]",176.927452,8066,2134,7,3,5,1.3420329969668985
undo,33,30,0,0,0,11,"[0, 16, 26, 11]",4,2,"[9, 22]",85.70793651,9034,968,2,0,5,1.2025792475959363
undo,33,30,0,0,1,22,"[0, 16, 26, 11, 22]",5,0,[],9.905561875,10330,1296,1,0,5,1.4535095654186367
undo,33,30,0,1,1,22,"[0, 16, 26, 11, 22]",5,0,[],9.905561875,12974,2644,1,0,5,1.4535095654186367
undo,34,8,0,0,0,0,[0],1,29,"[1, 2, 3, 4, 5, 6, 7, 8, 9, 10, 11, 12, 13, 14, 15, 16, 17, 18, 19, 20, 21, 22, 23, 24, 25, 26, 27, 28, 29]",300,339,-1,10,149,9,0.0
undo,34,8,0,0,0,5,"[0, 5]",2,28,"[1, 2, 3, 4, 6, 7, 8, 9, 10, 11, 12, 13, 14, 15, 16, 17, 18, 19, 20, 21, 22, 23, 24, 25, 26, 27, 28, 29]",254.5137383,6458,6119,10,100,9,1.0
undo,34,8,0,0,0,14,"[0, 5, 14]",3,20,"[1, 2, 3, 4, 6, 7, 11, 15, 16, 17, 18, 19, 20, 21, 22, 23, 24, 25, 28, 29]",214.5512559,10280,3822,4,36,9,1.0001019035932595
undo,34,8,0,0,0,17,"[0, 5, 14, 17]",4,15,"[1, 4, 6, 7, 11, 15, 16, 18, 19, 20, 22, 23, 24, 25, 28]",177.5377449,11551,1271,4,16,9,1.121197267659591
undo,34,8,0,0,0,11,"[0, 5, 14, 17, 11]",5,11,"[1, 4, 15, 16, 18, 19, 22, 23, 24, 25, 28]",152.3583883,12585,1034,4,8,9,1.1277254166016362
undo,34,8,0,0,0,24,"[0, 5, 14, 17, 11, 24]",6,3,"[15, 16, 28]",115.1428001,13551,966,2,2,9,1.1227411011978805
undo,34,8,0,0,0,15,"[0, 5, 14, 17, 11, 24, 15]",7,2,"[16, 28]",98.37974552,14263,712,2,0,9,1.1956385406066814
undo,34,8,0,0,0,16,"[0, 5, 14, 17, 11, 24, 15, 16]",8,1,[28],47.30137436,15243,980,1,0,9,1.36482239111247
undo,34,8,0,0,1,28,"[0, 5, 14, 17, 11, 24, 15, 16, 28]",9,0,[],24.94069458,16359,1116,1,0,9,1.632953105226947
undo,34,8,0,1,1,28,"[0, 5, 14, 17, 11, 24, 15, 16, 28]",9,0,[],24.94069458,18097,1738,1,0,9,1.632953105226947
undo,35,2,0,0,0,0,[0],1,23,"[1, 2, 4, 5, 6, 7, 8, 9, 12, 13, 15, 16, 17, 18, 19, 20, 22, 23, 25, 26, 27, 28, 29]",300,332,-1,70,620,10,0.0
undo,35,2,0,0,0,19,"[0, 19]",2,22,"[1, 2, 4, 5, 6, 7, 8, 9, 12, 13, 15, 16, 17, 18, 20, 22, 23, 25, 26, 27, 28, 29]",210.306076,2944,2612,67,431,10,1.0
undo,35,2,0,0,0,12,"[0, 19, 12]",3,17,"[1, 4, 5, 6, 7, 13, 15, 16, 17, 18, 20, 22, 25, 26, 27, 28, 29]",174.2921898,4068,1124,66,298,10,1.1107635036313153
undo,35,2,0,0,0,5,"[0, 19, 12, 5]",4,11,"[1, 6, 7, 13, 15, 16, 18, 22, 25, 26, 29]",144.7625437,6811,2743,38,136,10,1.0968174771581647
undo,35,2,0,0,0,22,"[0, 19, 12, 5, 22]",5,8,"[1, 6, 7, 13, 15, 18, 26, 29]",131.9562952,7532,721,20,63,10,1.0889910507461968
undo,35,2,0,0,0,13,"[0, 19, 12, 5, 22, 13]",6,7,"[1, 6, 7, 15, 18, 26, 29]",117.0902265,8729,1197,19,20,10,1.236526217328057
undo,35,2,0,0,0,18,"[0, 19, 12, 5, 22, 13, 18]",7,4,"[7, 15, 26, 29]",81.91921567,10127,1398,10,3,10,1.2128708213409936
undo,35,2,0,0,0,7,"[0, 19, 12, 5, 22, 13, 18, 7]",8,3,"[15, 26, 29]",71.62358553,10812,685,5,0,10,1.2019811287894737
undo,35,2,0,0,0,26,"[0, 19, 12, 5, 22, 13, 18, 7, 26]",9,2,"[15, 29]",48.82007703,11821,1009,2,0,10,1.1883593342191134
undo,35,2,0,0,1,15,"[0, 19, 12, 5, 22, 13, 18, 7, 26, 15]",10,0,[],24.61264015,12748,927,1,0,10,1.4619750353663825
undo,35,2,0,1,1,15,"[0, 19, 12, 5, 22, 13, 18, 7, 26, 15]",10,0,[],24.61264015,16337,3589,1,0,10,1.4619750353663825
undo,36,16,0,0,0,0,[0],1,29,"[1, 2, 3, 4, 5, 6, 7, 8, 9, 10, 11, 12, 13, 14, 15, 16, 17, 18, 19, 20, 21, 22, 23, 24, 25, 26, 27, 28, 29]",300,374,-1,13,161,9,0.0
undo,36,16,0,0,0,17,"[0, 17]",2,27,"[1, 2, 3, 4, 5, 7, 8, 9, 10, 11, 12, 13, 14, 15, 16, 18, 19, 20, 21, 22, 23, 24, 25, 26, 27, 28, 29]",241.3058776,3751,3377,2,58,9,1.0
undo,36,16,0,0,0,16,"[0, 17, 16]",3,26,"[1, 2, 3, 4, 5, 7, 8, 9, 10, 11, 12, 13, 14, 15, 18, 19, 20, 21, 22, 23, 24, 25, 26, 27, 28, 29]",212.9862731,4968,1217,2,52,9,1.0529535521792848
undo,36,16,0,0,0,21,"[0, 17, 16, 21]",4,19,"[3, 5, 7, 8, 9, 10, 12, 14, 15, 19, 20, 22, 23, 24, 25, 26, 27, 28, 29]",168.332046,6334,1366,9,18,8,1.5524765786046826
undo,36,16,0,0,0,8,"[0, 17, 16, 21, 8]",5,7,"[3, 5, 9, 12, 15, 20, 25]",119.0776046,7372,1038,9,6,8,1.458624751458944
undo,36,16,0,0,0,20,"[0, 17, 16, 21, 8, 20]",6,3,"[9, 15, 25]",61.30217727,8684,1312,4,1,8,1.3191752290945782
undo,36,16,0,0,0,25,"[0, 17, 16, 21, 8, 20, 25]",7,2,"[9, 15]",48.65306663,9572,888,2,0,8,1.3641436248537882
undo,36,16,0,0,1,9,"[0, 17, 16, 21, 8, 20, 25, 9]",8,0,[],35.84681815,10351,779,1,0,8,1.3406027753205443
undo,36,16,0,1,1,9,"[0, 17, 16, 21, 8, 20, 25, 9]",8,0,[],35.84681815,12264,1913,1,0,8,1.3406027753205443
undo,37,29,0,0,0,0,[0],1,29,"[1, 2, 3, 4, 5, 6, 7, 8, 9, 10, 11, 12, 13, 14, 15, 16, 17, 18, 19, 20, 21, 22, 23, 24, 25, 26, 27, 28, 29]",300,454,-1,1,78,9,0.0
undo,37,29,0,0,0,25,"[0, 25]",2,18,"[1, 2, 4, 5, 6, 7, 9, 10, 12, 13, 14, 15, 16, 17, 22, 26, 27, 28]",223.3449284,2748,2294,13,101,8,1.0
undo,37,29,0,0,0,17,"[0, 25, 17]",3,13,"[1, 4, 5, 6, 7, 9, 10, 12, 13, 14, 22, 27, 28]",188.41643,3690,942,2,22,8,1.014228463693056
undo,37,29,0,0,0,1,"[0, 25, 17, 1]",4,11,"[4, 5, 6, 7, 10, 12, 13, 14, 22, 27, 28]",149.5191293,4686,996,2,18,8,1.7553639368828857
undo,37,29,0,0,0,14,"[0, 25, 17, 1, 14]",5,8,"[4, 5, 7, 12, 13, 22, 27, 28]",106.5656662,5522,836,2,9,8,2.137167642879409
undo,37,29,0,0,0,13,"[0, 25, 17, 1, 14, 13]",6,4,"[4, 5, 12, 22]",88.53790978,6474,952,2,3,8,1.9535489858276616
undo,37,29,0,0,0,5,"[0, 25, 17, 1, 14, 13, 5]",7,2,"[4, 22]",62.82798951,7226,752,2,0,8,1.9087092890879327
undo,37,29,0,0,1,22,"[0, 25, 17, 1, 14, 13, 5, 22]",8,0,[],8.486476834,8466,1240,1,0,8,2.492296943176698
undo,37,29,0,1,1,22,"[0, 25, 17, 1, 14, 13, 5, 22]",8,0,[],8.486476834,10332,1866,1,0,8,2.492296943176698
undo,38,27,0,0,0,0,[0],1,26,"[1, 3, 5, 6, 7, 8, 9, 10, 11, 12, 13, 14, 15, 16, 17, 18, 19, 21, 22, 23, 24, 25, 26, 27, 28, 29]",300,468,-1,13,578,11,0.0
undo,38,27,0,0,0,15,"[0, 15]",2,24,"[1, 3, 5, 6, 7, 8, 9, 10, 11, 12, 13, 14, 16, 17, 18, 19, 21, 22, 23, 24, 25, 26, 27, 29]",263.7508621,2362,1894,6,219,11,1.0
undo,38,27,0,0,0,24,"[0, 15, 24]",3,20,"[1, 5, 6, 7, 8, 9, 10, 12, 13, 14, 16, 17, 18, 19, 21, 23, 25, 26, 27, 29]",246.5462115,3492,1130,6,130,11,1.130933077698322
undo,38,27,0,0,0,17,"[0, 15, 24, 17]",4,15,"[1, 6, 8, 10, 12, 13, 14, 16, 18, 19, 23, 25, 26, 27, 29]",229.9932662,4386,894,4,60,11,1.1285538435963374
undo,38,27,0,0,0,10,"[0, 15, 24, 17, 10]",5,12,"[1, 8, 12, 13, 14, 18, 19, 23, 25, 26, 27, 29]",213.5920467,5642,1256,2,28,11,1.1456072448628856
undo,38,27,0,0,0,12,"[0, 15, 24, 17, 10, 12]",6,11,"[1, 8, 13, 14, 18, 19, 23, 25, 26, 27, 29]",202.5466857,6707,1065,2,24,11,1.5078716502366516
undo,38,27,0,0,0,13,"[0, 15, 24, 17, 10, 12, 13]",7,9,"[1, 8, 14, 18, 19, 23, 26, 27, 29]",158.9806439,7562,855,2,14,11,1.4329429985358912
undo,38,27,0,0,0,19,"[0, 15, 24, 17, 10, 12, 13, 19]",8,5,"[1, 8, 14, 23, 29]",122.745302,8838,1276,2,4,11,1.363497676923077
undo,38,27,0,0,0,8,"[0, 15, 24, 17, 10, 12, 13, 19, 8]",9,3,"[14, 23, 29]",107.8792333,9699,861,2,1,11,1.4215576370231746
undo,38,27,0,0,0,29,"[0, 15, 24, 17, 10, 12, 13, 19, 8, 29]",10,1,[14],48.67619281,11043,1344,1,0,11,1.2943834604622402
undo,38,27,0,0,1,14,"[0, 15, 24, 17, 10, 12, 13, 19, 8, 29, 14]",11,0,[],4.381723628,12236,1193,1,0,11,1.6115313043432393
undo,38,27,0,1,1,14,"[0, 15, 24, 17, 10, 12, 13, 19, 8, 29, 14]",11,0,[],4.381723628,15516,3280,1,0,11,1.6115313043432393
undo,39,44,0,0,0,0,[0],1,29,"[1, 2, 3, 4, 5, 6, 7, 8, 9, 10, 11, 12, 13, 14, 15, 16, 17, 18, 19, 20, 21, 22, 23, 24, 25, 26, 27, 28, 29]",300,403,-1,13,126,7,0.0
undo,39,44,0,0,0,8,"[0, 8]",2,17,"[1, 4, 5, 7, 9, 10, 11, 12, 13, 14, 15, 20, 21, 23, 24, 25, 27]",145.7923478,8139,7736,1,10,7,1.0
undo,39,44,0,0,0,20,"[0, 8, 20]",3,16,"[1, 4, 5, 7, 9, 10, 11, 12, 13, 14, 15, 21, 23, 24, 25, 27]",133.7093018,9371,1232,1,9,7,1.0890794433668698
undo,39,44,0,0,0,9,"[0, 8, 20, 9]",4,7,"[4, 7, 11, 12, 14, 23, 24]",76.43801756,10462,1091,1,6,7,1.40892325509949
undo,39,44,0,0,0,24,"[0, 8, 20, 9, 24]",5,2,"[4, 11]",43.68133886,12603,2141,2,0,6,1.70572353022166
undo,39,44,0,0,1,11,"[0, 8, 20, 9, 24, 11]",6,0,[],16.75551482,13739,1136,1,0,6,1.9239417911005514
undo,39,44,0,1,1,11,"[0, 8, 20, 9, 24, 11]",6,0,[],16.75551482,16432,2693,1,0,6,1.9239417911005514
undo,40,26,0,0,0,0,[0],1,29,"[1, 2, 3, 4, 5, 6, 7, 8, 9, 10, 11, 12, 13, 14, 15, 16, 17, 18, 19, 20, 21, 22, 23, 24, 25, 26, 27, 28, 29]",300,477,-1,9,226,9,0.0
undo,40,26,0,0,0,21,"[0, 21]",2,25,"[2, 3, 4, 5, 6, 7, 8, 10, 11, 12, 13, 14, 15, 16, 17, 18, 19, 22, 23, 24, 25, 26, 27, 28, 29]",211.1349337,6893,6416,7,90,9,1.0
undo,40,26,0,0,0,13,"[0, 21, 13]",3,21,"[3, 4, 5, 6, 7, 8, 10, 11, 12, 14, 15, 16, 17, 18, 19, 22, 23, 24, 25, 26, 29]",188.9989901,8176,1283,6,45,9,1.0103952279992225
undo,40,26,0,0,0,5,"[0, 21, 13, 5]",4,12,"[3, 4, 11, 14, 16, 17, 18, 22, 23, 25, 26, 29]",150.7106107,9088,912,2,10,8,1.0086890649024711
undo,40,26,0,0,0,23,"[0, 21, 13, 5, 23]",5,8,"[3, 4, 11, 14, 16, 17, 22, 29]",118.0150452,10097,1009,2,7,8,1.3518621918690494
undo,40,26,0,0,0,16,"[0, 21, 13, 5, 23, 16]",6,4,"[4, 14, 17, 29]",64.77971862,10912,815,2,3,8,2.1011863559657242
undo,40,26,0,0,0,29,"[0, 21, 13, 5, 23, 16, 29]",7,2,"[4, 17]",40.57228175,11603,691,2,0,8,2.123178325538451
undo,40,26,0,0,1,4,"[0, 21, 13, 5, 23, 16, 29, 4]",8,0,[],16.57228175,12337,734,1,0,8,2.338467952972574
undo,40,26,0,1,1,4,"[0, 21, 13, 5, 23, 16, 29, 4]",8,0,[],16.57228175,14933,2596,1,0,8,2.338467952972574
undo,41,24,0,0,0,0,[0],1,29,"[1, 2, 3, 4, 5, 6, 7, 8, 9, 10, 11, 12, 13, 14, 15, 16, 17, 18, 19, 20, 21, 22, 23, 24, 25, 26, 27, 28, 29]",300,391,-1,4,76,10,0.0
undo,41,24,0,0,0,16,"[0, 16]",2,28,"[1, 2, 3, 4, 5, 6, 7, 8, 9, 10, 11, 12, 13, 14, 15, 17, 18, 19, 20, 21, 22, 23, 24, 25, 26, 27, 28, 29]",210.3562607,5348,4957,13,110,9,1.0
undo,41,24,0,0,0,22,"[0, 16, 22]",3,27,"[1, 2, 3, 4, 5, 6, 7, 8, 9, 10, 11, 12, 13, 14, 15, 17, 18, 19, 20, 21, 23, 24, 25, 26, 27, 28, 29]",192.3285043,6296,948,7,54,9,1.0217425143037777
undo,41,24,0,0,0,8,"[0, 16, 22, 8]",4,21,"[1, 2, 3, 4, 6, 9, 10, 11, 13, 14, 15, 17, 20, 21, 23, 24, 25, 26, 27, 28, 29]",178.9120964,7384,1088,4,28,9,1.0996636936037951
undo,41,24,0,0,0,15,"[0, 16, 22, 8, 15]",5,16,"[3, 4, 6, 9, 10, 11, 13, 14, 17, 23, 24, 25, 26, 27, 28, 29]",148.025206,8699,1315,3,17,9,1.2704773343758617
undo,41,24,0,0,0,28,"[0, 16, 22, 8, 15, 28]",6,8,"[3, 4, 9, 11, 13, 23, 26, 27]",102.7482803,10128,1429,3,5,9,1.1981967578189556
undo,41,24,0,0,0,23,"[0, 16, 22, 8, 15, 28, 23]",7,3,"[9, 11, 27]",83.72198273,11096,968,3,1,9,1.2275650852813986
undo,41,24,0,0,0,11,"[0, 16, 22, 8, 15, 28, 23, 11]",8,2,"[9, 27]",56.79615869,12320,1224,2,0,9,1.2107937989822568
undo,41,24,0,0,1,27,"[0, 16, 22, 8, 15, 28, 23, 11, 27]",9,0,[],28.99328114,14017,1697,1,0,9,1.1865620449755248
undo,41,24,0,1,1,27,"[0, 16, 22, 8, 15, 28, 23, 11, 27]",9,0,[],28.99328114,17172,3155,1,0,9,1.1865620449755248
undo,42,10,0,0,0,0,[0],1,29,"[1, 2, 3, 4, 5, 6, 7, 8, 9, 10, 11, 12, 13, 14, 15, 16, 17, 18, 19, 20, 21, 22, 23, 24, 25, 26, 27, 28, 29]",300,418,-1,1,100,9,0.0
undo,42,10,0,0,0,13,"[0, 13]",2,25,"[1, 2, 3, 4, 6, 7, 8, 9, 10, 11, 12, 14, 17, 18, 19, 20, 21, 22, 23, 24, 25, 26, 27, 28, 29]",249.4628849,4435,4017,1,79,9,1.0
undo,42,10,0,0,0,10,"[0, 13, 10]",3,19,"[1, 2, 3, 6, 7, 8, 9, 11, 12, 14, 18, 19, 20, 21, 23, 26, 27, 28, 29]",171.8420114,7778,3343,1,29,8,1.4439935719474426
undo,42,10,0,0,0,11,"[0, 13, 10, 11]",4,7,"[2, 14, 18, 19, 20, 26, 27]",99.47489184,8843,1065,7,7,7,2.2106582928665395
undo,42,10,0,0,0,19,"[0, 13, 10, 11, 19]",5,4,"[2, 14, 20, 26]",63.11557391,9970,1127,4,1,7,1.983842563671581
undo,42,10,0,0,0,26,"[0, 13, 10, 11, 19, 26]",6,2,"[14, 20]",34.7959694,11080,1110,2,0,7,2.0024668060614013
undo,42,10,0,0,1,14,"[0, 13, 10, 11, 19, 26, 14]",7,0,[],0.12609775,11986,906,1,0,7,1.8750177339129825
undo,42,10,0,1,1,14,"[0, 13, 10, 11, 19, 26, 14]",7,0,[],0.12609775,14714,2728,1,0,7,1.8750177339129825
undo,43,28,0,0,0,0,[0],1,27,"[1, 2, 3, 4, 5, 6, 7, 8, 9, 10, 11, 12, 13, 14, 15, 16, 17, 18, 19, 20, 22, 23, 25, 26, 27, 28, 29]",300,380,-1,2,96,9,0.0
undo,43,28,0,0,0,3,"[0, 3]",2,26,"[1, 2, 4, 5, 6, 7, 8, 9, 10, 11, 12, 13, 14, 15, 16, 17, 18, 19, 20, 22, 23, 25, 26, 27, 28, 29]",251.0817008,3310,2930,1,64,9,1.0
undo,43,28,0,0,0,5,"[0, 3, 5]",3,20,"[2, 4, 6, 7, 8, 9, 10, 11, 12, 13, 14, 15, 18, 19, 20, 23, 25, 26, 28, 29]",166.9865166,4389,1079,1,34,9,1.0203769473612083
undo,43,28,0,0,0,28,"[0, 3, 5, 28]",4,6,"[2, 4, 8, 9, 19, 26]",100.0761288,5285,896,8,4,7,1.0823311089558794
undo,43,28,0,0,0,8,"[0, 3, 5, 28, 8]",5,4,"[2, 4, 9, 26]",82.27163495,6432,1147,4,2,7,1.0795975941035891
undo,43,28,0,0,0,9,"[0, 3, 5, 28, 8, 9]",6,3,"[2, 4, 26]",67.138889,7310,878,3,0,7,1.131674521612193
undo,43,28,0,0,1,4,"[0, 3, 5, 28, 8, 9, 4]",7,0,[],44.11716013,8079,769,1,0,7,1.1196899491715564
undo,43,28,0,1,1,4,"[0, 3, 5, 28, 8, 9, 4]",7,0,[],44.11716013,10197,2118,1,0,7,1.1196899491715564
undo,44,20,0,0,0,0,[0],1,21,"[1, 2, 3, 4, 5, 6, 7, 8, 9, 12, 17, 18, 20, 21, 22, 23, 25, 26, 27, 28, 29]",300,396,-1,1,9,9,0.0
undo,44,20,0,0,0,29,"[0, 29]",2,16,"[1, 3, 4, 5, 7, 8, 12, 17, 18, 20, 21, 22, 23, 25, 27, 28]",245.8797635,5653,5257,1,18,7,1.0
undo,44,20,0,0,0,12,"[0, 29, 12]",3,11,"[1, 3, 4, 5, 8, 17, 18, 20, 21, 27, 28]",192.7949257,6610,957,1,7,7,3.7691296919769885
undo,44,20,0,0,0,1,"[0, 29, 12, 1]",4,6,"[4, 5, 8, 21, 27, 28]",110.8071218,7741,1131,1,4,7,1.8430889449075105
undo,44,20,0,0,0,5,"[0, 29, 12, 1, 5]",5,3,"[8, 21, 28]",74.13288012,8541,800,1,2,7,1.7976989501720055
undo,44,20,0,0,0,21,"[0, 29, 12, 1, 5, 21]",6,1,[8],29.13288012,9453,912,1,0,7,1.5879330318401907
undo,44,20,0,0,1,8,"[0, 29, 12, 1, 5, 21, 8]",7,0,[],11.66863092,10119,666,1,0,7,1.5684551128267752
undo,44,20,0,1,1,8,"[0, 29, 12, 1, 5, 21, 8]",7,0,[],11.66863092,13347,3228,1,0,7,1.5684551128267752
undo,45,45,0,0,0,0,[0],1,24,"[1, 2, 3, 4, 5, 6, 7, 9, 10, 11, 12, 14, 15, 16, 17, 19, 20, 21, 22, 23, 24, 25, 27, 29]",300,479,-1,6,248,10,0.0
undo,45,45,0,0,0,15,"[0, 15]",2,23,"[1, 2, 3, 4, 5, 6, 7, 9, 10, 11, 12, 14, 16, 17, 19, 20, 21, 22, 23, 24, 25, 27, 29]",253.9022777,3304,2825,5,207,10,1.0
undo,45,45,0,0,0,23,"[0, 15, 23]",3,22,"[1, 2, 3, 4, 5, 6, 7, 9, 10, 11, 12, 14, 16, 17, 19, 20, 21, 22, 24, 25, 27, 29]",230.3014303,4952,1648,5,163,10,1.0006068457769497
undo,45,45,0,0,0,20,"[0, 15, 23, 20]",4,19,"[1, 2, 3, 5, 6, 7, 9, 10, 11, 12, 14, 16, 17, 19, 21, 22, 24, 25, 29]",188.8647316,6703,1751,5,137,10,1.2062119754673604
undo,45,45,0,0,0,17,"[0, 15, 23, 20, 17]",5,10,"[2, 3, 5, 7, 9, 10, 11, 19, 24, 29]",133.1511785,7558,855,3,9,8,2.6016195574855456
undo,45,45,0,0,0,24,"[0, 15, 23, 20, 17, 24]",6,5,"[2, 7, 10, 19, 29]",91.09169676,8369,811,3,4,8,2.0281403701979674
undo,45,45,0,0,0,7,"[0, 15, 23, 20, 17, 24, 7]",7,3,"[2, 10, 29]",56.68239569,9152,783,3,0,8,1.8339712509218666
undo,45,45,0,0,1,2,"[0, 15, 23, 20, 17, 24, 7, 2]",8,0,[],18.66924008,10174,1022,1,0,8,1.6784876870056666
undo,45,45,0,1,1,2,"[0, 15, 23, 20, 17, 24, 7, 2]",8,0,[],18.66924008,12532,2358,1,0,8,1.6784876870056666
undo,46,39,0,0,0,0,[0],1,28,"[1, 2, 3, 4, 5, 6, 7, 9, 10, 11, 12, 13, 14, 15, 16, 17, 18, 19, 20, 21, 22, 23, 24, 25, 26, 27, 28, 29]",300,495,-1,1,30,10,0.0
undo,46,39,0,0,0,14,"[0, 14]",2,26,"[1, 2, 3, 4, 5, 6, 7, 9, 10, 12, 13, 15, 16, 17, 18, 19, 20, 21, 22, 23, 24, 25, 26, 27, 28, 29]",286.9615952,4215,3720,1,22,10,1.0
undo,46,39,0,0,0,29,"[0, 14, 29]",3,23,"[1, 2, 3, 4, 5, 6, 7, 9, 10, 12, 13, 15, 16, 17, 18, 19, 21, 22, 23, 24, 25, 26, 28]",218.9321898,10910,6695,1,21,10,1.4237768813412561
undo,46,39,0,0,0,12,"[0, 14, 29, 12]",4,16,"[1, 2, 4, 5, 7, 9, 10, 13, 15, 16, 18, 19, 22, 23, 24, 26]",158.3929463,12486,1576,1,11,10,1.2085522586932163
undo,46,39,0,0,0,10,"[0, 14, 29, 12, 10]",5,11,"[1, 4, 5, 7, 15, 16, 18, 19, 22, 23, 26]",122.8823845,13320,834,1,8,10,1.4905426536315662
undo,46,39,0,0,0,7,"[0, 14, 29, 12, 10, 7]",6,6,"[1, 16, 18, 19, 22, 26]",89.46083457,14536,1216,1,6,10,1.3836596018032035
undo,46,39,0,0,0,26,"[0, 14, 29, 12, 10, 7, 26]",7,3,"[16, 19, 22]",70.77929288,15156,620,1,4,10,1.4191124441944845
undo,46,39,0,0,0,22,"[0, 14, 29, 12, 10, 7, 26, 22]",8,2,"[16, 19]",53.05924773,15665,509,1,1,10,1.594793297833885
undo,46,39,0,0,0,16,"[0, 14, 29, 12, 10, 7, 26, 22, 16]",9,1,[19],18.05924773,16837,1172,1,0,10,1.48519520801471
undo,46,39,0,0,1,19,"[0, 14, 29, 12, 10, 7, 26, 22, 16, 19]",10,0,[],0.594998533,17309,472,1,0,10,1.484277847976571
undo,46,39,0,1,1,19,"[0, 14, 29, 12, 10, 7, 26, 22, 16, 19]",10,0,[],0.594998533,18179,870,1,0,10,1.484277847976571
undo,47,37,0,0,0,0,[0],1,29,"[1, 2, 3, 4, 5, 6, 7, 8, 9, 10, 11, 12, 13, 14, 15, 16, 17, 18, 19, 20, 21, 22, 23, 24, 25, 26, 27, 28, 29]",300,347,-1,6,168,10,0.0
undo,47,37,0,0,0,9,"[0, 9]",2,28,"[1, 2, 3, 4, 5, 6, 7, 8, 10, 11, 12, 13, 14, 15, 16, 17, 18, 19, 20, 21, 22, 23, 24, 25, 26, 27, 28, 29]",275.7925631,7074,6727,45,289,9,1.0
undo,47,37,0,0,0,18,"[0, 9, 18]",3,15,"[1, 2, 4, 6, 7, 10, 15, 17, 19, 20, 21, 22, 26, 28, 29]",172.2068498,8016,942,33,160,9,1.3094770236215172
undo,47,37,0,0,0,7,"[0, 9, 18, 7]",4,9,"[1, 2, 4, 15, 19, 20, 21, 22, 26]",145.0406944,8784,768,17,59,9,1.293395038406712
undo,47,37,0,0,0,22,"[0, 9, 18, 7, 22]",5,7,"[1, 2, 4, 15, 19, 20, 21]",95.04069441,9626,842,6,17,9,1.2585327043140475
undo,47,37,0,0,0,4,"[0, 9, 18, 7, 22, 4]",6,5,"[1, 2, 15, 20, 21]",70.04069441,10648,1022,4,7,9,1.4148462251829255
undo,47,37,0,0,0,2,"[0, 9, 18, 7, 22, 4, 2]",7,3,"[1, 15, 20]",58.63894016,11248,600,2,2,9,1.5965980495342236
undo,47,37,0,0,0,1,"[0, 9, 18, 7, 22, 4, 2, 1]",8,2,"[15, 20]",41.43428963,11768,520,2,0,9,1.6331913686535429
undo,47,37,0,0,1,20,"[0, 9, 18, 7, 22, 4, 2, 1, 20]",9,0,[],7.199804089,12543,775,1,0,9,1.9533474092172471
undo,47,37,0,1,1,20,"[0, 9, 18, 7, 22, 4, 2, 1, 20]",9,0,[],7.199804089,14440,1897,1,0,9,1.9533474092172471
undo,48,19,0,0,0,0,[0],1,29,"[1, 2, 3, 4, 5, 6, 7, 8, 9, 10, 11, 12, 13, 14, 15, 16, 17, 18, 19, 20, 21, 22, 23, 24, 25, 26, 27, 28, 29]",300,424,-1,12,149,8,0.0
undo,48,19,0,0,0,29,"[0, 29]",2,28,"[1, 2, 3, 4, 5, 6, 7, 8, 9, 10, 11, 12, 13, 14, 15, 16, 17, 18, 19, 20, 21, 22, 23, 24, 25, 26, 27, 28]",265.0715016,4279,3855,12,120,8,1.0
undo,48,19,0,0,0,9,"[0, 29, 9]",3,17,"[1, 4, 5, 6, 7, 10, 11, 12, 13, 14, 19, 20, 21, 22, 24, 27, 28]",181.7108394,5837,1558,11,65,8,1.0375842971861238
undo,48,19,0,0,0,6,"[0, 29, 9, 6]",4,12,"[4, 7, 10, 11, 13, 14, 20, 21, 22, 24, 27, 28]",140.2741407,6936,1099,11,34,8,1.0389786364356892
undo,48,19,0,0,0,14,"[0, 29, 9, 6, 14]",5,7,"[4, 10, 11, 20, 22, 24, 28]",80.59164747,9663,2727,3,6,8,1.0491884155331486
undo,48,19,0,0,0,11,"[0, 29, 9, 6, 14, 11]",6,5,"[4, 20, 22, 24, 28]",69.77499364,10189,526,3,2,8,1.050030420094996
undo,48,19,0,0,1,24,"[0, 29, 9, 6, 14, 11, 24]",7,0,[],18.77499364,11237,1048,1,0,7,1.083656358609317
undo,48,19,0,1,1,24,"[0, 29, 9, 6, 14, 11, 24]",7,0,[],18.77499364,12849,1612,1,0,7,1.083656358609317
undo,49,23,0,0,0,0,[0],1,28,"[1, 2, 3, 4, 5, 6, 7, 8, 9, 10, 11, 12, 13, 14, 15, 16, 17, 18, 19, 20, 21, 22, 23, 25, 26, 27, 28, 29]",300,527,-1,76,2626,10,0.0
undo,49,23,0,0,0,18,"[0, 18]",2,14,"[2, 5, 6, 7, 9, 10, 12, 13, 14, 19, 21, 22, 27, 29]",203.8958898,5161,4634,73,787,9,1.0
undo,49,23,0,0,0,13,"[0, 18, 13]",3,11,"[2, 6, 7, 9, 10, 12, 14, 21, 22, 27, 29]",126.423314,6185,1024,20,231,9,1.5682790756110327
undo,49,23,0,0,0,12,"[0, 18, 13, 12]",4,8,"[2, 6, 7, 9, 14, 22, 27, 29]",114.340268,7521,1336,13,77,9,1.5144924966400508
undo,49,23,0,0,0,27,"[0, 18, 13, 12, 27]",5,4,"[2, 6, 9, 14]",73.54811191,9573,2052,2,6,9,1.5816085917627813
undo,49,23,0,0,0,6,"[0, 18, 13, 12, 27, 6]",6,3,"[2, 9, 14]",45.24616851,10529,956,2,4,9,1.6956104471288498
undo,49,23,0,0,0,2,"[0, 18, 13, 12, 27, 6, 2]",7,2,"[9, 14]",26.8070796,11361,832,2,0,9,2.0020178285111316
undo,49,23,0,0,0,9,"[0, 18, 13, 12, 27, 6, 2, 9]",8,1,[14],13.76867479,12203,842,1,0,9,2.1908524122080006
undo,49,23,0,0,1,14,"[0, 18, 13, 12, 27, 6, 2, 9, 14]",9,0,[],3.328368281,12837,634,1,0,9,2.105696448886232
undo,49,23,0,1,1,14,"[0, 18, 13, 12, 27, 6, 2, 9, 14]",9,0,[],3.328368281,16666,3829,1,0,9,2.105696448886232
undo,50,38,0,0,0,0,[0],1,29,"[1, 2, 3, 4, 5, 6, 7, 8, 9, 10, 11, 12, 13, 14, 15, 16, 17, 18, 19, 20, 21, 22, 23, 24, 25, 26, 27, 28, 29]",300,465,-1,33,506,9,0.0
undo,50,38,0,0,0,11,"[0, 11]",2,23,"[1, 2, 3, 4, 5, 7, 10, 12, 13, 14, 15, 16, 17, 18, 19, 20, 21, 22, 24, 25, 26, 27, 28]",220.093805,4771,4306,2,40,9,1.0
undo,50,38,0,0,0,28,"[0, 11, 28]",3,16,"[1, 4, 5, 7, 10, 12, 13, 14, 15, 16, 17, 19, 20, 21, 24, 26]",193.0752928,5581,810,2,20,9,1.0012220945316377
undo,50,38,0,0,0,16,"[0, 11, 28, 16]",4,13,"[1, 4, 5, 10, 12, 13, 14, 15, 17, 19, 20, 24, 26]",164.0752928,6307,726,2,16,9,1.2422672958602723
undo,50,38,0,0,0,15,"[0, 11, 28, 16, 15]",5,9,"[4, 5, 13, 14, 17, 19, 20, 24, 26]",122.4579887,7327,1020,2,14,9,2.4196280466601676
undo,50,38,0,0,0,4,"[0, 11, 28, 16, 15, 4]",6,6,"[13, 17, 19, 20, 24, 26]",96.45798873,8069,742,2,9,9,2.9030072771852855
undo,50,38,0,0,0,20,"[0, 11, 28, 16, 15, 4, 20]",7,3,"[13, 17, 19]",62.51686323,9275,1206,1,2,9,4.409951139385221
undo,50,38,0,0,0,17,"[0, 11, 28, 16, 15, 4, 20, 17]",8,1,[19],38.74713459,10175,900,1,0,9,4.030739410625113
undo,50,38,0,0,1,19,"[0, 11, 28, 16, 15, 4, 20, 17, 19]",9,0,[],17.36957626,10668,493,1,0,9,3.511004666623391
undo,50,38,0,1,1,19,"[0, 11, 28, 16, 15, 4, 20, 17, 19]",9,0,[],17.36957626,12248,1580,1,0,9,3.511004666623391
undo,51,43,0,0,0,0,[0],1,23,"[1, 2, 3, 4, 5, 6, 7, 9, 10, 11, 12, 14, 15, 16, 17, 19, 20, 21, 22, 23, 25, 27, 29]",300,394,-1,16,556,12,0.0
undo,51,43,0,0,0,29,"[0, 29]",2,22,"[1, 2, 3, 4, 5, 6, 7, 9, 10, 11, 12, 14, 15, 16, 17, 19, 20, 21, 22, 23, 25, 27]",277.909278,2881,2487,16,520,12,1.0
undo,51,43,0,0,0,20,"[0, 29, 20]",3,20,"[1, 2, 3, 4, 6, 7, 9, 10, 11, 12, 14, 15, 16, 17, 19, 21, 22, 23, 25, 27]",254.4785289,4208,1327,15,422,12,1.082311746871282
undo,51,43,0,0,0,16,"[0, 29, 20, 16]",4,19,"[1, 2, 3, 4, 6, 7, 9, 10, 11, 12, 14, 15, 17, 19, 21, 22, 23, 25, 27]",231.8511119,5240,1032,15,389,12,1.215201926898219
undo,51,43,0,0,0,11,"[0, 29, 20, 16, 11]",5,17,"[1, 2, 3, 4, 6, 7, 9, 10, 12, 14, 15, 17, 19, 21, 22, 23, 25]",196.7227758,7240,2000,12,188,12,1.1349145516483516
undo,51,43,0,0,0,15,"[0, 29, 20, 16, 11, 15]",6,12,"[1, 2, 3, 4, 6, 7, 12, 14, 19, 22, 23, 25]",147.9682888,8809,1569,1,32,12,1.8387943334430294
undo,51,43,0,0,0,25,"[0, 29, 20, 16, 11, 15, 25]",7,9,"[1, 3, 6, 7, 12, 14, 19, 22, 23]",125.2967207,9636,827,1,12,12,2.202803380742111
undo,51,43,0,0,0,12,"[0, 29, 20, 16, 11, 15, 25, 12]",8,6,"[1, 3, 6, 7, 19, 22]",101.1099475,10725,1089,1,8,12,2.011866286185413
undo,51,43,0,0,0,3,"[0, 29, 20, 16, 11, 15, 25, 12, 3]",9,5,"[1, 6, 7, 19, 22]",88.10994748,11480,755,1,5,12,1.9020620380337963
undo,51,43,0,0,0,22,"[0, 29, 20, 16, 11, 15, 25, 12, 3, 22]",10,3,"[1, 6, 19]",53.39683757,12208,728,1,2,12,2.067628472989826
undo,51,43,0,0,0,19,"[0, 29, 20, 16, 11, 15, 25, 12, 3, 22, 19]",11,1,[1],32.78130944,12887,679,1,0,12,1.923482223595295
undo,51,43,0,0,1,1,"[0, 29, 20, 16, 11, 15, 25, 12, 3, 22, 19, 1]",12,0,[],4.603303833,14257,1370,1,0,12,2.0520587907480077
undo,51,43,0,1,1,1,"[0, 29, 20, 16, 11, 15, 25, 12, 3, 22, 19, 1]",12,0,[],4.603303833,17199,2942,1,0,12,2.0520587907480077
undo,52,4,0,0,0,0,[0],1,26,"[3, 4, 5, 6, 7, 8, 10, 11, 12, 13, 14, 15, 16, 17, 18, 19, 20, 21, 22, 23, 24, 25, 26, 27, 28, 29]",300,376,-1,4,489,10,0.0
undo,52,4,0,0,0,28,"[0, 28]",2,21,"[3, 4, 5, 6, 10, 11, 12, 13, 14, 15, 16, 17, 19, 20, 21, 22, 23, 24, 25, 26, 27]",225.9392142,6671,6295,2,216,10,1.0
undo,52,4,0,0,0,11,"[0, 28, 11]",3,16,"[3, 4, 5, 6, 12, 13, 14, 16, 17, 20, 21, 22, 23, 24, 25, 26]",177.0618165,12600,5929,1,99,10,1.0005230107421244
undo,52,4,0,0,0,25,"[0, 28, 11, 25]",4,14,"[3, 4, 5, 6, 12, 13, 14, 16, 17, 20, 21, 22, 23, 24]",158.2735223,15837,3237,1,47,10,1.11762077950493
undo,52,4,0,0,0,14,"[0, 28, 11, 25, 14]",5,10,"[3, 4, 5, 6, 13, 16, 17, 20, 21, 22]",142.1490068,16354,517,1,23,10,1.1558980853108136
undo,52,4,0,0,0,3,"[0, 28, 11, 25, 14, 3]",6,6,"[5, 16, 17, 20, 21, 22]",100.7123081,17255,901,6,10,9,1.1426175029934211
undo,52,4,0,0,0,17,"[0, 28, 11, 25, 14, 3, 17]",7,5,"[5, 16, 20, 21, 22]",76.19700674,18288,1033,5,1,9,1.3653378786495558
undo,52,4,0,0,0,16,"[0, 28, 11, 25, 14, 3, 17, 16]",8,1,[21],50.12019712,19921,1633,1,0,9,1.8127709198458963
undo,52,4,0,0,1,21,"[0, 28, 11, 25, 14, 3, 17, 16, 21]",9,0,[],5.916124905,21350,1429,1,0,9,1.989734763932872
undo,52,4,0,1,1,21,"[0, 28, 11, 25, 14, 3, 17, 16, 21]",9,0,[],5.916124905,23034,1684,1,0,9,1.989734763932872
undo,53,21,0,0,0,0,[0],1,29,"[1, 2, 3, 4, 5, 6, 7, 8, 9, 10, 11, 12, 13, 14, 15, 16, 17, 18, 19, 20, 21, 22, 23, 24, 25, 26, 27, 28, 29]",300,394,-1,84,830,9,0.0
undo,53,21,0,0,0,18,"[0, 18]",2,28,"[1, 2, 3, 4, 5, 6, 7, 8, 9, 10, 11, 12, 13, 14, 15, 16, 17, 19, 20, 21, 22, 23, 24, 25, 26, 27, 28, 29]",240.923778,3321,2927,44,305,9,1.0
undo,53,21,0,0,0,29,"[0, 18, 29]",3,24,"[1, 2, 3, 4, 6, 7, 8, 9, 10, 11, 12, 13, 14, 15, 16, 17, 20, 21, 22, 23, 24, 25, 26, 27]",212.2706805,7140,3819,11,87,9,1.035555280387994
undo,53,21,0,0,0,25,"[0, 18, 29, 25]",4,18,"[1, 4, 6, 8, 9, 10, 11, 12, 14, 15, 16, 17, 20, 21, 22, 23, 24, 26]",167.0490043,8099,959,6,45,9,2.2226517719335437
undo,53,21,0,0,0,23,"[0, 18, 29, 25, 23]",5,10,"[4, 8, 14, 15, 16, 17, 20, 21, 22, 24]",123.7246462,9328,1229,3,20,9,1.7801958981326236
undo,53,21,0,0,0,21,"[0, 18, 29, 25, 23, 21]",6,3,"[4, 14, 16]",94.11046043,10408,1080,1,3,9,2.290491065218303
undo,53,21,0,0,0,14,"[0, 18, 29, 25, 23, 21, 14]",7,2,"[4, 16]",68.49796348,11386,978,1,1,9,2.021100447974041
undo,53,21,0,0,0,4,"[0, 18, 29, 25, 23, 21, 14, 4]",8,1,[16],54.35582786,12105,719,1,0,9,1.9205022281831265
undo,53,21,0,0,1,16,"[0, 18, 29, 25, 23, 21, 14, 4, 16]",9,0,[],9.757621617,13313,1208,1,0,9,1.7782202964615115
undo,53,21,0,1,1,16,"[0, 18, 29, 25, 23, 21, 14, 4, 16]",9,0,[],9.757621617,16733,3420,1,0,9,1.7782202964615115
undo,54,41,0,0,0,0,[0],1,29,"[1, 2, 3, 4, 5, 6, 7, 8, 9, 10, 11, 12, 13, 14, 15, 16, 17, 18, 19, 20, 21, 22, 23, 24, 25, 26, 27, 28, 29]",300,340,-1,1,143,10,0.0
undo,54,41,0,0,0,3,"[0, 3]",2,28,"[1, 2, 4, 5, 6, 7, 8, 9, 10, 11, 12, 13, 14, 15, 16, 17, 18, 19, 20, 21, 22, 23, 24, 25, 26, 27, 28, 29]",260.3767745,7219,6879,2,145,9,1.0
undo,54,41,0,0,0,21,"[0, 3, 21]",3,27,"[1, 2, 4, 5, 6, 7, 8, 9, 10, 11, 12, 13, 14, 15, 16, 17, 18, 19, 20, 22, 23, 24, 25, 26, 27, 28, 29]",228.2364571,11521,4302,36,222,8,1.468235756523827
undo,54,41,0,0,0,17,"[0, 3, 21, 17]",4,17,"[1, 2, 5, 9, 10, 12, 13, 14, 15, 19, 20, 22, 24, 25, 26, 27, 28]",176.5740917,14185,2664,12,49,8,1.9471587729632955
undo,54,41,0,0,0,9,"[0, 3, 21, 17, 9]",5,15,"[1, 2, 5, 10, 12, 13, 14, 15, 19, 22, 24, 25, 26, 27, 28]",145.5579669,15044,859,6,18,8,1.8767526397399956
undo,54,41,0,0,0,2,"[0, 3, 21, 17, 9, 2]",6,13,"[1, 5, 10, 12, 13, 14, 15, 19, 22, 24, 25, 26, 28]",133.4749209,15778,734,6,7,8,1.8405337199985379
undo,54,41,0,0,0,12,"[0, 3, 21, 17, 9, 2, 12]",7,1,[25],58.16223937,16817,1039,1,0,8,1.90796424311416
undo,54,41,0,0,1,25,"[0, 3, 21, 17, 9, 2, 12, 25]",8,0,[],10.99233371,17842,1025,1,0,8,1.8235827707253072
undo,54,41,0,1,1,25,"[0, 3, 21, 17, 9, 2, 12, 25]",8,0,[],10.99233371,19872,2030,1,0,8,1.8235827707253072
undo,55,18,0,0,0,0,[0],1,28,"[1, 2, 3, 4, 5, 6, 7, 8, 9, 10, 11, 12, 13, 14, 16, 17, 18, 19, 20, 21, 22, 23, 24, 25, 26, 27, 28, 29]",300,351,-1,3,136,10,0.0
undo,55,18,0,0,0,25,"[0, 25]",2,22,"[1, 2, 3, 4, 5, 7, 8, 9, 10, 12, 13, 14, 16, 18, 19, 20, 21, 23, 24, 26, 27, 28]",239.9916672,5136,4785,7,151,9,1.0
undo,55,18,0,0,0,13,"[0, 25, 13]",3,19,"[1, 2, 3, 5, 7, 8, 9, 10, 12, 14, 16, 18, 19, 20, 21, 23, 26, 27, 28]",194.7147416,6909,1773,1,33,9,1.1199925655455523
undo,55,18,0,0,0,8,"[0, 25, 13, 8]",4,12,"[1, 3, 5, 7, 9, 12, 14, 16, 23, 26, 27, 28]",173.6197184,9183,2274,15,34,8,1.336030371798922
undo,55,18,0,0,0,14,"[0, 25, 13, 8, 14]",5,10,"[3, 5, 7, 9, 12, 16, 23, 26, 27, 28]",140.0191232,11604,2421,7,11,8,1.4269794194315928
undo,55,18,0,0,0,3,"[0, 25, 13, 8, 14, 3]",6,5,"[5, 7, 12, 27, 28]",109.9359053,12396,792,5,2,8,1.5531098200459086
undo,55,18,0,0,1,27,"[0, 25, 13, 8, 14, 3, 27]",7,0,[],31.29113433,13276,880,1,0,7,1.3628810922071846
undo,55,18,0,1,1,27,"[0, 25, 13, 8, 14, 3, 27]",7,0,[],31.29113433,15731,2455,1,0,7,1.3628810922071846
undo,56,22,0,0,0,0,[0],1,29,"[1, 2, 3, 4, 5, 6, 7, 8, 9, 10, 11, 12, 13, 14, 15, 16, 17, 18, 19, 20, 21, 22, 23, 24, 25, 26, 27, 28, 29]",300,435,-1,31,704,9,0.0
undo,56,22,0,0,0,16,"[0, 16]",2,21,"[1, 3, 6, 7, 8, 9, 11, 13, 14, 15, 17, 18, 19, 20, 21, 22, 24, 25, 27, 28, 29]",218.605897,4681,4246,17,147,9,1.0
undo,56,22,0,0,0,28,"[0, 16, 28]",3,13,"[6, 7, 9, 13, 14, 17, 19, 20, 21, 22, 24, 25, 29]",184.1675463,5785,1104,12,61,9,1.047282311284478
undo,56,22,0,0,0,6,"[0, 16, 28, 6]",4,12,"[7, 9, 13, 14, 17, 19, 20, 21, 22, 24, 25, 29]",154.1675463,6725,940,12,43,9,1.645645870580622
undo,56,22,0,0,0,9,"[0, 16, 28, 6, 9]",5,8,"[7, 14, 17, 19, 20, 21, 24, 29]",127.5404924,7618,893,8,17,9,1.925750226630103
undo,56,22,0,0,0,19,"[0, 16, 28, 6, 9, 19]",6,6,"[7, 14, 17, 21, 24, 29]",107.1444143,8231,613,3,7,9,2.4220750331476455
undo,56,22,0,0,0,29,"[0, 16, 28, 6, 9, 19, 29]",7,4,"[7, 14, 17, 24]",92.11111796,8862,631,2,2,9,2.6996279574991067
undo,56,22,0,0,0,14,"[0, 16, 28, 6, 9, 19, 29, 14]",8,1,[7],33.86165444,10526,1664,1,0,9,2.0544639927929462
undo,56,22,0,0,1,7,"[0, 16, 28, 6, 9, 19, 29, 14, 7]",9,0,[],20.82324963,11495,969,1,0,9,2.219817088951114
undo,56,22,0,1,1,7,"[0, 16, 28, 6, 9, 19, 29, 14, 7]",9,0,[],20.82324963,12980,1485,1,0,9,2.219817088951114
undo,57,0,0,0,0,0,[0],1,27,"[2, 3, 4, 5, 6, 7, 8, 9, 10, 11, 12, 13, 14, 15, 16, 17, 19, 20, 21, 22, 23, 24, 25, 26, 27, 28, 29]",300,381,-1,104,1136,9,0.0
undo,57,0,0,0,0,21,"[0, 21]",2,24,"[3, 4, 5, 6, 7, 8, 9, 10, 11, 12, 13, 14, 15, 16, 17, 19, 20, 22, 23, 24, 26, 27, 28, 29]",228.2156006,4503,4122,24,249,9,1.0
undo,57,0,0,0,0,28,"[0, 21, 28]",3,21,"[3, 4, 5, 6, 7, 8, 9, 11, 12, 13, 14, 15, 16, 17, 19, 20, 23, 24, 26, 27, 29]",166.6282642,5586,1083,24,214,9,1.269228840767463
undo,57,0,0,0,0,5,"[0, 21, 28, 5]",4,16,"[3, 4, 7, 8, 9, 11, 12, 14, 15, 17, 19, 20, 23, 24, 26, 29]",122.9705043,7004,1418,17,100,9,1.3066419815776449
undo,57,0,0,0,0,4,"[0, 21, 28, 5, 4]",5,13,"[3, 7, 8, 9, 11, 12, 15, 17, 19, 20, 23, 24, 26]",97.89063191,8760,1756,12,40,9,1.2910976504592468
undo,57,0,0,0,0,24,"[0, 21, 28, 5, 4, 24]",6,9,"[3, 7, 8, 9, 11, 12, 15, 17, 26]",86.48887766,9408,648,7,14,9,1.2797952491765392
undo,57,0,0,0,0,15,"[0, 21, 28, 5, 4, 24, 15]",7,6,"[3, 7, 8, 9, 11, 26]",63.1436426,10239,831,3,4,9,1.2530153269721516
undo,57,0,0,0,0,7,"[0, 21, 28, 5, 4, 24, 15, 7]",8,2,"[3, 8]",32.07919346,11041,802,2,0,9,1.3068685702736778
undo,57,0,0,0,1,3,"[0, 21, 28, 5, 4, 24, 15, 7, 3]",9,0,[],7.996004304,12803,1762,1,0,9,1.3471289790381242
undo,57,0,0,1,1,3,"[0, 21, 28, 5, 4, 24, 15, 7, 3]",9,0,[],7.996004304,14080,1277,1,0,9,1.3471289790381242
undo,58,40,0,0,0,0,[0],1,29,"[1, 2, 3, 4, 5, 6, 7, 8, 9, 10, 11, 12, 13, 14, 15, 16, 17, 18, 19, 20, 21, 22, 23, 24, 25, 26, 27, 28, 29]",300,416,-1,8,191,9,0.0
undo,58,40,0,0,0,1,"[0, 1]",2,18,"[2, 5, 6, 7, 8, 9, 10, 11, 13, 15, 17, 18, 19, 21, 22, 23, 27, 29]",247.8463808,4528,4112,4,80,9,1.0
undo,58,40,0,0,0,6,"[0, 1, 6]",3,17,"[2, 5, 7, 8, 9, 10, 11, 13, 15, 17, 18, 19, 21, 22, 23, 27, 29]",227.7466295,5294,766,4,74,9,1.0459427008232034
undo,58,40,0,0,0,21,"[0, 1, 6, 21]",4,8,"[2, 5, 9, 17, 18, 19, 22, 23]",175.7754837,6904,1610,4,25,9,1.0308822257404064
undo,58,40,0,0,0,9,"[0, 1, 6, 21, 9]",5,6,"[2, 5, 18, 19, 22, 23]",130.0699041,7856,952,4,12,9,1.377861912961129
undo,58,40,0,0,0,18,"[0, 1, 6, 21, 9, 18]",6,5,"[2, 5, 19, 22, 23]",113.5169588,8543,687,4,4,9,1.5742712168661408
undo,58,40,0,0,0,5,"[0, 1, 6, 21, 9, 18, 5]",7,3,"[19, 22, 23]",81.94165198,9422,879,2,1,9,1.7730665063055515
undo,58,40,0,0,0,23,"[0, 1, 6, 21, 9, 18, 5, 23]",8,1,[19],53.63970859,10512,1090,1,0,9,2.597442759912231
undo,58,40,0,0,1,19,"[0, 1, 6, 21, 9, 18, 5, 23, 19]",9,0,[],21.68661797,11336,824,1,0,9,2.7128328554069565
undo,58,40,0,1,1,19,"[0, 1, 6, 21, 9, 18, 5, 23, 19]",9,0,[],21.68661797,12734,1398,1,0,9,2.7128328554069565
undo,59,14,0,0,0,0,[0],1,29,"[1, 2, 3, 4, 5, 6, 7, 8, 9, 10, 11, 12, 13, 14, 15, 16, 17, 18, 19, 20, 21, 22, 23, 24, 25, 26, 27, 28, 29]",300,367,-1,8,157,10,0.0
undo,59,14,0,0,0,15,"[0, 15]",2,20,"[1, 2, 3, 4, 7, 8, 9, 13, 17, 18, 19, 20, 21, 22, 23, 25, 26, 27, 28, 29]",216.7053423,5079,4712,8,102,10,1.0
undo,59,14,0,0,0,18,"[0, 15, 18]",3,13,"[1, 2, 4, 7, 8, 13, 17, 19, 20, 23, 25, 26, 28]",153.6418822,5974,895,26,101,9,1.2185936334127205
undo,59,14,0,0,0,8,"[0, 15, 18, 8]",4,10,"[1, 2, 4, 7, 17, 19, 23, 25, 26, 28]",140.0404117,6726,752,26,60,9,1.2207454945880838
undo,59,14,0,0,0,1,"[0, 15, 18, 8, 1]",5,9,"[2, 4, 7, 17, 19, 23, 25, 26, 28]",116.4395643,8002,1276,13,25,9,1.1871302560279655
undo,59,14,0,0,0,19,"[0, 15, 18, 8, 1, 19]",6,7,"[2, 4, 7, 17, 23, 25, 26]",101.208018,8752,750,11,8,9,1.3443864386012363
undo,59,14,0,0,0,25,"[0, 15, 18, 8, 1, 19, 25]",7,4,"[4, 7, 23, 26]",65.36112139,9721,969,5,1,9,1.4334990422586273
undo,59,14,0,0,0,23,"[0, 15, 18, 8, 1, 19, 25, 23]",8,1,[26],35.95023905,11005,1284,1,0,9,1.4047386182161943
undo,59,14,0,0,1,26,"[0, 15, 18, 8, 1, 19, 25, 23, 26]",9,0,[],25.13358522,11670,665,1,0,9,1.3854252521381312
undo,59,14,0,1,1,26,"[0, 15, 18, 8, 1, 19, 25, 23, 26]",9,0,[],25.13358522,13930,2260,1,0,9,1.3854252521381312
undo,60,15,0,0,0,0,[0],1,25,"[1, 2, 3, 4, 7, 8, 9, 10, 11, 12, 13, 14, 15, 16, 18, 20, 21, 22, 23, 24, 25, 26, 27, 28, 29]",300,355,-1,4,65,9,0.0
undo,60,15,0,0,0,7,"[0, 7]",2,23,"[1, 3, 4, 8, 9, 10, 11, 12, 13, 14, 15, 16, 18, 20, 21, 22, 23, 24, 25, 26, 27, 28, 29]",215.1884442,3241,2886,30,107,8,1.0
undo,60,15,0,0,0,16,"[0, 7, 16]",3,14,"[3, 4, 9, 10, 11, 12, 13, 14, 15, 18, 21, 22, 25, 27]",171.5306843,4237,996,11,27,8,1.1253230463291073
undo,60,15,0,0,0,3,"[0, 7, 16, 3]",4,12,"[4, 10, 11, 12, 13, 14, 15, 18, 21, 22, 25, 27]",146.4508119,5866,1629,5,12,8,1.1599276527768434
undo,60,15,0,0,0,11,"[0, 7, 16, 3, 11]",5,8,"[4, 12, 13, 14, 15, 21, 22, 27]",135.0490576,6712,846,5,3,8,1.3284364410021055
undo,60,15,0,0,0,12,"[0, 7, 16, 3, 11, 12]",6,1,[21],69.93377523,7905,1193,1,0,7,2.661192674664603
undo,60,15,0,0,1,21,"[0, 7, 16, 3, 11, 12, 21]",7,0,[],26.10456123,8928,1023,1,0,7,2.88055760962226
undo,60,15,0,1,1,21,"[0, 7, 16, 3, 11, 12, 21]",7,0,[],26.10456123,11064,2136,1,0,7,2.88055760962226
undo,61,31,0,0,0,0,[0],1,27,"[1, 3, 4, 5, 6, 7, 8, 10, 11, 12, 13, 14, 15, 16, 17, 18, 19, 20, 21, 22, 23, 24, 25, 26, 27, 28, 29]",300,296,-1,2,87,10,0.0
undo,61,31,0,0,0,14,"[0, 14]",2,25,"[1, 3, 5, 6, 7, 8, 10, 11, 12, 13, 15, 16, 17, 18, 19, 20, 21, 22, 23, 24, 25, 26, 27, 28, 29]",263.861378,7605,7309,2,59,10,1.0
undo,61,31,0,0,0,27,"[0, 14, 27]",3,22,"[1, 3, 5, 6, 7, 8, 10, 11, 12, 13, 15, 16, 17, 18, 19, 20, 21, 22, 24, 25, 28, 29]",235.6833724,8756,1151,1,39,10,1.5881859159302467
undo,61,31,0,0,0,8,"[0, 14, 27, 8]",4,20,"[1, 3, 5, 6, 7, 10, 11, 12, 13, 16, 17, 18, 19, 20, 21, 22, 24, 25, 28, 29]",224.6380114,9932,1176,1,36,10,2.1665048452331277
undo,61,31,0,0,0,11,"[0, 14, 27, 8, 11]",5,13,"[1, 5, 7, 12, 13, 16, 17, 18, 19, 20, 22, 25, 28]",173.3934995,10948,1016,7,41,9,2.0680270430571026
undo,61,31,0,0,0,5,"[0, 14, 27, 8, 11, 5]",6,9,"[12, 16, 17, 18, 19, 20, 22, 25, 28]",129.7128401,11894,946,9,4,8,1.9411065396000253
undo,61,31,0,0,0,18,"[0, 14, 27, 8, 11, 5, 18]",7,1,[17],51.5271637,15613,3719,1,0,8,3.8593720739960786
undo,61,31,0,0,1,17,"[0, 14, 27, 8, 11, 5, 18, 17]",8,0,[],22.32099997,16573,960,1,0,8,3.0675740617892124
undo,61,31,0,1,1,17,"[0, 14, 27, 8, 11, 5, 18, 17]",8,0,[],22.32099997,18119,1546,1,0,8,3.0675740617892124
undo,62,9,0,0,0,0,[0],1,27,"[1, 3, 4, 5, 6, 7, 8, 9, 10, 11, 13, 14, 15, 16, 17, 18, 19, 20, 21, 22, 23, 24, 25, 26, 27, 28, 29]",300,383,-1,2,182,10,0.0
undo,62,9,0,0,0,27,"[0, 27]",2,18,"[3, 4, 7, 8, 9, 10, 11, 16, 17, 18, 19, 20, 21, 22, 23, 25, 26, 28]",246.3996269,3347,2964,6,149,9,1.0
undo,62,9,0,0,0,25,"[0, 27, 25]",3,16,"[3, 4, 7, 8, 9, 10, 11, 17, 18, 19, 20, 21, 22, 23, 26, 28]",210.4969807,4516,1169,6,109,9,3.7164105930635247
undo,62,9,0,0,0,10,"[0, 27, 25, 10]",4,13,"[4, 7, 8, 9, 11, 17, 18, 20, 21, 22, 23, 26, 28]",170.647263,5387,871,5,56,9,2.380770024811378
undo,62,9,0,0,0,9,"[0, 27, 25, 10, 9]",5,4,"[8, 23, 26, 28]",85.15457329,6555,1168,4,3,8,2.8851961121606706
undo,62,9,0,0,0,23,"[0, 27, 25, 10, 9, 23]",6,3,"[8, 26, 28]",62.79389351,7442,887,2,1,8,3.9839854649697615
undo,62,9,0,0,0,8,"[0, 27, 25, 10, 9, 23, 8]",7,1,[28],41.32298296,8194,752,1,0,8,4.05571446834579
undo,62,9,0,0,1,28,"[0, 27, 25, 10, 9, 23, 8, 28]",8,0,[],30.50632913,9019,825,1,0,8,3.6282489491004006
undo,62,9,0,1,1,28,"[0, 27, 25, 10, 9, 23, 8, 28]",8,0,[],30.50632913,14316,5297,1,0,8,3.6282489491004006
undo,63,3,0,0,0,0,[0],1,29,"[1, 2, 3, 4, 5, 6, 7, 8, 9, 10, 11, 12, 13, 14, 15, 16, 17, 18, 19, 20, 21, 22, 23, 24, 25, 26, 27, 28, 29]",300,305,-1,34,427,10,0.0
undo,63,3,0,0,0,7,"[0, 7]",2,28,"[1, 2, 3, 4, 5, 6, 8, 9, 10, 11, 12, 13, 14, 15, 16, 17, 18, 19, 20, 21, 22, 23, 24, 25, 26, 27, 28, 29]",278.8103799,5598,5293,24,215,10,1.0
undo,63,3,0,0,0,8,"[0, 7, 8]",3,24,"[1, 2, 3, 4, 5, 6, 10, 11, 12, 13, 14, 15, 16, 17, 18, 19, 20, 21, 22, 24, 25, 26, 27, 28]",222.837172,8418,2820,16,114,10,1.2853332575451413
undo,63,3,0,0,0,24,"[0, 7, 8, 24]",4,21,"[1, 3, 4, 5, 6, 10, 11, 12, 14, 15, 16, 17, 18, 19, 20, 21, 22, 25, 26, 27, 28]",210.671647,8948,530,16,91,10,1.5177505014936548
undo,63,3,0,0,0,17,"[0, 7, 8, 24, 17]",5,9,"[3, 4, 10, 14, 15, 16, 19, 20, 21]",141.3174834,10252,1304,7,26,10,1.5510961300062232
undo,63,3,0,0,0,20,"[0, 7, 8, 24, 17, 20]",6,7,"[3, 4, 10, 14, 16, 19, 21]",128.6683728,11073,821,7,14,10,1.5133082717474817
undo,63,3,0,0,0,3,"[0, 7, 8, 24, 17, 20, 3]",7,5,"[4, 10, 14, 19, 21]",108.2722947,11742,669,7,4,10,1.5325960555943097
undo,63,3,0,0,0,14,"[0, 7, 8, 24, 17, 20, 3, 14]",8,4,"[4, 10, 19, 21]",62.78603307,12858,1116,2,2,10,1.8430814842216443
undo,63,3,0,0,0,19,"[0, 7, 8, 24, 17, 20, 3, 14, 19]",9,1,[21],35.86020903,13892,1034,1,0,10,1.7898016005197124
undo,63,3,0,0,1,21,"[0, 7, 8, 24, 17, 20, 3, 14, 19, 21]",10,0,[],23.65365342,14475,583,1,0,10,1.7971489282103539
undo,63,3,0,1,1,21,"[0, 7, 8, 24, 17, 20, 3, 14, 19, 21]",10,0,[],23.65365342,15805,1330,1,0,10,1.7971489282103539
undo,64,7,0,0,0,0,[0],1,29,"[1, 2, 3, 4, 5, 6, 7, 8, 9, 10, 11, 12, 13, 14, 15, 16, 17, 18, 19, 20, 21, 22, 23, 24, 25, 26, 27, 28, 29]",300,353,-1,3,79,9,0.0
undo,64,7,0,0,0,6,"[0, 6]",2,22,"[2, 4, 5, 7, 8, 9, 10, 11, 13, 14, 15, 16, 18, 19, 20, 21, 22, 23, 24, 25, 27, 28]",231.1160396,2868,2515,1,24,9,1.0
undo,64,7,0,0,0,4,"[0, 6, 4]",3,11,"[2, 7, 13, 15, 16, 18, 19, 20, 21, 23, 25]",148.6236157,4679,1811,4,34,8,1.0779650303607222
undo,64,7,0,0,0,25,"[0, 6, 4, 25]",4,9,"[2, 7, 13, 15, 16, 18, 19, 20, 23]",123.884982,5519,840,2,11,8,1.4873815316264414
undo,64,7,0,0,0,20,"[0, 6, 4, 25, 20]",5,4,"[7, 13, 18, 19]",92.10448479,6604,1085,1,3,8,1.3867715788059323
undo,64,7,0,0,0,18,"[0, 6, 4, 25, 20, 18]",6,2,"[7, 19]",79.29823632,7396,792,1,1,8,1.5415231789256745
undo,64,7,0,0,0,7,"[0, 6, 4, 25, 20, 18, 7]",7,1,[19],38.06718006,8612,1216,1,0,8,1.431818650650695
undo,64,7,0,0,1,19,"[0, 6, 4, 25, 20, 18, 7, 19]",8,0,[],8.65629772,9339,727,1,0,8,1.540121997768172
undo,64,7,0,1,1,19,"[0, 6, 4, 25, 20, 18, 7, 19]",8,0,[],8.65629772,10530,1191,1,0,8,1.540121997768172
undo,65,35,0,0,0,0,[0],1,29,"[1, 2, 3, 4, 5, 6, 7, 8, 9, 10, 11, 12, 13, 14, 15, 16, 17, 18, 19, 20, 21, 22, 23, 24, 25, 26, 27, 28, 29]",300,397,-1,5,236,11,0.0
undo,65,35,0,0,0,15,"[0, 15]",2,27,"[1, 2, 4, 5, 6, 7, 8, 9, 10, 11, 12, 13, 14, 16, 17, 18, 19, 20, 21, 22, 23, 24, 25, 26, 27, 28, 29]",244.4212271,5689,5292,9,149,10,1.0
undo,65,35,0,0,0,24,"[0, 15, 24]",3,21,"[1, 2, 4, 5, 6, 7, 8, 9, 10, 16, 17, 18, 19, 20, 21, 23, 25, 26, 27, 28, 29]",212.2187427,6791,1102,3,53,10,2.8301813252608574
undo,65,35,0,0,0,1,"[0, 15, 24, 1]",4,18,"[2, 4, 5, 6, 9, 10, 16, 17, 18, 19, 20, 21, 23, 25, 26, 27, 28, 29]",195.1014999,7820,1029,18,85,9,2.1944524569145973
undo,65,35,0,0,0,17,"[0, 15, 24, 1, 17]",5,15,"[2, 4, 5, 6, 9, 10, 16, 18, 19, 21, 23, 25, 26, 27, 28]",179.2901116,11039,3219,12,38,9,3.0435363082638873
undo,65,35,0,0,0,23,"[0, 15, 24, 1, 17, 23]",6,6,"[5, 6, 9, 18, 19, 25]",109.8278917,12321,1282,8,5,9,1.7886721574911322
undo,65,35,0,0,0,6,"[0, 15, 24, 1, 17, 23, 6]",7,3,"[9, 18, 25]",64.17704284,13939,1618,2,1,9,1.5594519193531253
undo,65,35,0,0,0,25,"[0, 15, 24, 1, 17, 23, 6, 25]",8,1,[18],40.15621854,15279,1340,1,0,9,1.6045548936116958
undo,65,35,0,0,1,18,"[0, 15, 24, 1, 17, 23, 6, 25, 18]",9,0,[],6.318369908,16554,1275,1,0,9,2.2831280623638985
undo,65,35,0,1,1,18,"[0, 15, 24, 1, 17, 23, 6, 25, 18]",9,0,[],6.318369908,18166,1612,1,0,9,2.2831280623638985
undo,66,1,0,0,0,0,[0],1,26,"[1, 2, 4, 5, 7, 8, 9, 10, 11, 12, 13, 14, 15, 16, 17, 18, 19, 20, 21, 22, 23, 24, 25, 26, 28, 29]",300,370,-1,6,74,7,0.0
undo,66,1,0,0,0,8,"[0, 8]",2,23,"[1, 4, 5, 7, 9, 10, 11, 12, 13, 14, 15, 16, 17, 18, 19, 20, 21, 23, 24, 25, 26, 28, 29]",202,5952,5582,1,16,7,1.0
undo,66,1,0,0,0,14,"[0, 8, 14]",3,12,"[1, 5, 9, 15, 17, 18, 19, 20, 25, 26, 28, 29]",138.1094686,7294,1342,2,11,6,1.6219900283216735
undo,66,1,0,0,0,17,"[0, 8, 14, 17]",4,6,"[1, 15, 18, 20, 28, 29]",85.75490817,8449,1155,1,5,6,1.4120458181998161
undo,66,1,0,0,0,1,"[0, 8, 14, 17, 1]",5,1,[28],61.40331685,9152,703,1,0,6,1.3875183639701723
undo,66,1,0,0,1,28,"[0, 8, 14, 17, 1, 28]",6,0,[],26.51778976,10053,901,1,0,6,1.3376292144876023
undo,66,1,0,1,1,28,"[0, 8, 14, 17, 1, 28]",6,0,[],26.51778976,11995,1942,1,0,6,1.3376292144876023
undo,67,6,0,0,0,0,[0],1,29,"[1, 2, 3, 4, 5, 6, 7, 8, 9, 10, 11, 12, 13, 14, 15, 16, 17, 18, 19, 20, 21, 22, 23, 24, 25, 26, 27, 28, 29]",300,470,-1,180,4304,10,0.0
undo,67,6,0,0,0,3,"[0, 3]",2,28,"[1, 2, 4, 5, 6, 7, 8, 9, 10, 11, 12, 13, 14, 15, 16, 17, 18, 19, 20, 21, 22, 23, 24, 25, 26, 27, 28, 29]",266.4738908,3350,2880,90,1607,10,1.0
undo,67,6,0,0,0,24,"[0, 3, 24]",3,24,"[1, 2, 4, 5, 6, 7, 8, 10, 11, 13, 14, 16, 17, 18, 19, 20, 21, 22, 23, 25, 26, 27, 28, 29]",202.520783,6874,3524,6,84,10,1.001910163116413
undo,67,6,0,0,0,10,"[0, 3, 24, 10]",4,20,"[1, 2, 4, 5, 6, 7, 8, 11, 13, 14, 16, 17, 18, 20, 21, 22, 23, 26, 27, 29]",189.1043751,8742,1868,6,66,10,1.314793299348402
undo,67,6,0,0,0,17,"[0, 3, 24, 10, 17]",5,19,"[1, 2, 4, 5, 6, 7, 8, 11, 13, 14, 16, 18, 20, 21, 22, 23, 26, 27, 29]",169.3812922,9974,1232,6,45,10,1.8507472474352449
undo,67,6,0,0,0,18,"[0, 3, 24, 10, 17, 18]",6,15,"[1, 2, 6, 7, 8, 13, 14, 16, 20, 21, 22, 23, 26, 27, 29]",155.4529039,11440,1466,5,31,10,2.373454740786756
undo,67,6,0,0,0,16,"[0, 3, 24, 10, 17, 18, 16]",7,13,"[1, 2, 6, 7, 13, 14, 20, 21, 22, 23, 26, 27, 29]",132.1076688,12863,1423,5,19,10,2.3260122505247613
undo,67,6,0,0,0,29,"[0, 3, 24, 10, 17, 18, 16, 29]",8,6,"[6, 14, 21, 22, 23, 27]",95.41979617,13774,911,5,4,10,1.920792706835084
undo,67,6,0,0,0,22,"[0, 3, 24, 10, 17, 18, 16, 29, 22]",9,3,"[14, 23, 27]",45.09087804,16430,2656,3,0,10,1.6370965105576718
undo,67,6,0,0,1,14,"[0, 3, 24, 10, 17, 18, 16, 29, 22, 14]",10,0,[],10.68157697,17646,1216,1,0,10,1.7202754742850823
undo,67,6,0,1,1,14,"[0, 3, 24, 10, 17, 18, 16, 29, 22, 14]",10,0,[],10.68157697,19287,1641,1,0,10,1.7202754742850823
undo,68,17,0,0,0,0,[0],1,28,"[1, 2, 3, 4, 5, 6, 7, 8, 9, 10, 11, 12, 13, 14, 15, 16, 17, 18, 19, 20, 22, 23, 24, 25, 26, 27, 28, 29]",300,381,-1,2,73,8,0.0
undo,68,17,0,0,0,9,"[0, 9]",2,25,"[1, 2, 3, 5, 6, 7, 8, 10, 11, 12, 14, 15, 16, 17, 18, 19, 20, 22, 23, 24, 25, 26, 27, 28, 29]",210.5293344,4804,4423,1,34,8,1.0
undo,68,17,0,0,0,16,"[0, 9, 16]",3,21,"[1, 2, 3, 5, 7, 8, 10, 11, 12, 14, 17, 18, 19, 20, 22, 23, 25, 26, 27, 28, 29]",197.1876704,5876,1072,1,26,8,1.173103464220352
undo,68,17,0,0,0,17,"[0, 9, 16, 17]",4,9,"[2, 7, 8, 10, 12, 14, 26, 27, 29]",155.5103384,7140,1264,2,9,7,1.3686022655428802
undo,68,17,0,0,0,2,"[0, 9, 16, 17, 2]",5,4,"[7, 8, 10, 27]",117.1828026,9568,2428,1,3,7,1.764970391617776
undo,68,17,0,0,0,8,"[0, 9, 16, 17, 2, 8]",6,1,[7],82.06870286,10653,1085,1,0,7,1.6282583682866314
undo,68,17,0,0,1,7,"[0, 9, 16, 17, 2, 8, 7]",7,0,[],11.35802474,11524,871,1,0,7,1.5695874876804634
undo,68,17,0,1,1,7,"[0, 9, 16, 17, 2, 8, 7]",7,0,[],11.35802474,13483,1959,1,0,7,1.5695874876804634
basic,69,1,0,0,0,0,[0],1,26,"[1, 2, 4, 5, 7, 8, 9, 10, 11, 12, 13, 14, 15, 16, 17, 18, 19, 20, 21, 22, 23, 24, 25, 26, 28, 29]",300,556,-1,6,74,7,0.0
basic,69,1,0,0,0,14,"[0, 14]",2,19,"[1, 4, 5, 8, 9, 13, 15, 17, 18, 19, 20, 21, 22, 23, 24, 25, 26, 28, 29]",200.1901808,5782,5226,5,42,7,1.0
basic,69,1,0,0,0,17,"[0, 14, 17]",3,15,"[1, 4, 5, 8, 9, 13, 15, 18, 19, 20, 22, 23, 25, 28, 29]",147.8356204,7212,1430,5,27,7,1.0028844724416826
basic,69,1,0,0,0,1,"[0, 14, 17, 1]",4,12,"[4, 5, 8, 9, 15, 18, 20, 22, 23, 25, 28, 29]",123.4840291,8152,940,5,15,7,1.0264985578353567
basic,69,1,0,0,0,28,"[0, 14, 17, 1, 28]",5,5,"[9, 15, 22, 23, 29]",88.59850198,9011,859,5,3,7,1.0339861575999345
basic,69,1,0,0,0,23,"[0, 14, 17, 1, 28, 23]",6,2,"[15, 22]",51.70676849,9816,805,2,0,7,1.0327458250705703
basic,69,1,0,0,1,15,"[0, 14, 17, 1, 28, 23, 15]",7,0,[],20.81987807,11016,1200,1,0,7,1.1948681641401226
basic,69,1,0,1,1,15,"[0, 14, 17, 1, 28, 23, 15]",7,0,[],20.81987807,13456,2440,1,0,7,1.1948681641401226
basic,70,20,0,0,0,0,[0],1,21,"[1, 2, 3, 4, 5, 6, 7, 8, 9, 12, 17, 18, 20, 21, 22, 23, 25, 26, 27, 28, 29]",300,372,-1,1,9,9,0.0
basic,70,20,0,0,0,12,"[0, 12]",2,20,"[1, 2, 3, 4, 5, 6, 7, 8, 9, 17, 18, 20, 21, 22, 23, 25, 26, 27, 28, 29]",271.5570747,5320,4948,1,8,9,1.0
basic,70,20,0,0,0,1,"[0, 12, 1]",3,12,"[3, 4, 5, 6, 8, 9, 20, 21, 23, 27, 28, 29]",189.5692707,6798,1478,1,6,9,1.0757997779162911
basic,70,20,0,0,0,5,"[0, 12, 1, 5]",4,10,"[4, 6, 8, 9, 20, 21, 23, 27, 28, 29]",152.8950291,8574,1776,1,5,9,1.1708231454516806
basic,70,20,0,0,0,28,"[0, 12, 1, 5, 28]",5,4,"[8, 9, 21, 23]",82.8593239,9709,1135,2,2,7,1.1313554119713172
basic,70,20,0,0,0,21,"[0, 12, 1, 5, 28, 21]",6,1,[8],46.61018598,10805,1096,1,0,7,1.4854739689057037
basic,70,20,0,0,1,8,"[0, 12, 1, 5, 28, 21, 8]",7,0,[],29.14593678,11390,585,1,0,7,1.473382662603891
basic,70,20,0,1,1,8,"[0, 12, 1, 5, 28, 21, 8]",7,0,[],29.14593678,12832,1442,1,0,7,1.473382662603891
basic,71,37,0,0,0,0,[0],1,29,"[1, 2, 3, 4, 5, 6, 7, 8, 9, 10, 11, 12, 13, 14, 15, 16, 17, 18, 19, 20, 21, 22, 23, 24, 25, 26, 27, 28, 29]",300,455,-1,6,168,10,0.0
basic,71,37,0,0,0,26,"[0, 26]",2,11,"[1, 2, 4, 15, 18, 19, 20, 21, 22, 25, 29]",124.8971731,3686,3231,1,17,8,1.0
basic,71,37,0,0,0,19,"[0, 26, 19]",3,4,"[1, 15, 20, 21]",59.64382066,5187,1501,4,2,5,2.102169164269507
basic,71,37,0,0,0,21,"[0, 26, 19, 21]",4,2,"[15, 20]",18.53421108,6370,1183,2,0,5,1.8136450305843126
basic,71,37,0,0,1,15,"[0, 26, 19, 21, 15]",5,0,[],3.53421108,7299,929,1,0,5,1.7816762524956518
basic,71,37,0,1,1,15,"[0, 26, 19, 21, 15]",5,0,[],3.53421108,11433,4134,1,0,5,1.7816762524956518
basic,72,30,0,0,0,0,[0],1,19,"[3, 4, 5, 7, 9, 11, 16, 17, 18, 19, 20, 21, 22, 24, 25, 26, 27, 28, 29]",300,407,-1,5,41,8,0.0
basic,72,30,0,0,0,26,"[0, 26]",2,15,"[3, 5, 9, 11, 16, 17, 18, 19, 20, 21, 22, 25, 27, 28, 29]",208.2939479,8527,8120,5,27,6,1.0
basic,72,30,0,0,0,16,"[0, 26, 16]",3,9,"[3, 9, 11, 17, 20, 22, 25, 27, 28]",165.8439773,9710,1183,2,8,6,1.6640006669138325
basic,72,30,0,0,0,11,"[0, 26, 16, 11]",4,1,[9],63.66276572,10983,1273,1,0,5,1.3262938848531356
basic,72,30,0,0,1,9,"[0, 26, 16, 11, 9]",5,0,[],7.147281118,12032,1049,1,0,5,1.4423442524407728
basic,72,30,0,1,1,9,"[0, 26, 16, 11, 9]",5,0,[],7.147281118,14285,2253,1,0,5,1.4423442524407728
basic,73,42,0,0,0,0,[0],1,29,"[1, 2, 3, 4, 5, 6, 7, 8, 9, 10, 11, 12, 13, 14, 15, 16, 17, 18, 19, 20, 21, 22, 23, 24, 25, 26, 27, 28, 29]",300,343,-1,16,302,9,0.0
basic,73,42,0,0,0,3,"[0, 3]",2,25,"[1, 2, 4, 5, 6, 7, 8, 9, 10, 11, 13, 15, 17, 18, 19, 20, 21, 22, 23, 24, 25, 26, 27, 28, 29]",255.7959278,5745,5402,3,45,9,1.0
basic,73,42,0,0,0,23,"[0, 3, 23]",3,15,"[1, 2, 4, 5, 6, 7, 8, 9, 11, 15, 17, 22, 24, 25, 29]",202.4573864,6839,1094,1,24,8,1.2042297975308642
basic,73,42,0,0,0,17,"[0, 3, 23, 17]",4,11,"[4, 5, 6, 8, 9, 11, 15, 22, 24, 25, 29]",191.2770465,7433,594,1,14,8,1.192958341617778
basic,73,42,0,0,0,11,"[0, 3, 23, 17, 11]",5,7,"[4, 6, 8, 15, 22, 24, 25]",140.0813435,8519,1086,1,7,8,1.7422648616902974
basic,73,42,0,0,0,24,"[0, 3, 23, 17, 11, 24]",6,2,"[6, 15]",82.0727235,10519,2000,1,1,8,1.6631309430247303
basic,73,42,0,0,0,15,"[0, 3, 23, 17, 11, 24, 15]",7,1,[6],68.47125299,12671,2152,1,0,8,1.6008668931493675
basic,73,42,0,0,1,6,"[0, 3, 23, 17, 11, 24, 15, 6]",8,0,[],19.07489685,13681,1010,1,0,8,1.4594939660868298
basic,73,42,0,1,1,6,"[0, 3, 23, 17, 11, 24, 15, 6]",8,0,[],19.07489685,15632,1951,1,0,8,1.4594939660868298
basic,74,36,0,0,0,0,[0],1,24,"[2, 4, 5, 6, 7, 8, 9, 10, 12, 13, 14, 15, 16, 17, 18, 19, 20, 22, 23, 25, 26, 27, 28, 29]",300,399,-1,2,200,10,0.0
basic,74,36,0,0,0,12,"[0, 12]",2,23,"[2, 4, 5, 6, 7, 8, 9, 10, 13, 14, 15, 16, 17, 18, 19, 20, 22, 23, 25, 26, 27, 28, 29]",277.7963967,5310,4911,90,804,9,1.0
basic,74,36,0,0,0,13,"[0, 12, 13]",3,18,"[2, 4, 7, 8, 9, 10, 16, 17, 18, 19, 20, 22, 23, 25, 26, 27, 28, 29]",198.6193798,6486,1176,15,125,9,1.033635478646562
basic,74,36,0,0,0,19,"[0, 12, 13, 19]",4,9,"[2, 4, 9, 10, 16, 17, 18, 23, 25]",155.2027931,7908,1422,25,34,8,1.8785830882516144
basic,74,36,0,0,0,9,"[0, 12, 13, 19, 9]",5,7,"[2, 10, 16, 17, 18, 23, 25]",140.0700472,8861,953,11,6,8,2.3156377427575943
basic,74,36,0,0,0,17,"[0, 12, 13, 19, 9, 17]",6,4,"[2, 16, 18, 25]",113.8212377,10004,1143,4,1,8,1.9698423574473582
basic,74,36,0,0,0,2,"[0, 12, 13, 19, 9, 17, 2]",7,2,"[16, 25]",72.59018143,11136,1132,2,0,8,2.0137383079807356
basic,74,36,0,0,1,25,"[0, 12, 13, 19, 9, 17, 2, 25]",8,0,[],47.59018143,11924,788,1,0,8,2.2046417539453587
basic,74,36,0,1,1,25,"[0, 12, 13, 19, 9, 17, 2, 25]",8,0,[],47.59018143,13965,2041,1,0,8,2.2046417539453587
basic,75,27,0,0,0,0,[0],1,26,"[1, 3, 5, 6, 7, 8, 9, 10, 11, 12, 13, 14, 15, 16, 17, 18, 19, 21, 22, 23, 24, 25, 26, 27, 28, 29]",300,353,-1,13,578,11,0.0
basic,75,27,0,0,0,17,"[0, 17]",2,20,"[1, 6, 7, 8, 9, 10, 12, 13, 14, 15, 16, 18, 19, 21, 23, 24, 25, 26, 27, 29]",237.9677503,3389,3036,13,326,10,1.0
basic,75,27,0,0,0,24,"[0, 17, 24]",3,18,"[1, 6, 7, 8, 10, 12, 13, 14, 15, 16, 18, 19, 21, 23, 25, 26, 27, 29]",221.414805,4435,1046,3,88,10,1.6626435457025237
basic,75,27,0,0,0,15,"[0, 17, 24, 15]",4,17,"[1, 6, 7, 8, 10, 12, 13, 14, 16, 18, 19, 21, 23, 25, 26, 27, 29]",204.2101544,5352,917,2,31,10,2.642541342895721
basic,75,27,0,0,0,12,"[0, 17, 24, 15, 12]",5,11,"[1, 8, 10, 13, 14, 18, 19, 23, 26, 27, 29]",172.6348476,6628,1276,2,20,10,1.970690313731389
basic,75,27,0,0,0,10,"[0, 17, 24, 15, 12, 10]",6,10,"[1, 8, 13, 14, 18, 19, 23, 26, 27, 29]",161.5894866,7603,975,2,16,10,1.8350635660320809
basic,75,27,0,0,0,13,"[0, 17, 24, 15, 12, 10, 13]",7,8,"[1, 8, 14, 19, 23, 26, 27, 29]",121.7397689,8492,889,2,8,10,1.811359497989758
basic,75,27,0,0,0,19,"[0, 17, 24, 15, 12, 10, 13, 19]",8,4,"[8, 14, 23, 29]",85.50442705,9307,815,2,3,10,1.6499659457692308
basic,75,27,0,0,0,8,"[0, 17, 24, 15, 12, 10, 13, 19, 8]",9,2,"[14, 29]",70.63835831,10285,978,2,0,10,1.6971137424915996
basic,75,27,0,0,1,14,"[0, 17, 24, 15, 12, 10, 13, 19, 8, 14]",10,0,[],13.07969258,12086,1801,1,0,10,1.5641152601717523
basic,75,27,0,1,1,14,"[0, 17, 24, 15, 12, 10, 13, 19, 8, 14]",10,0,[],13.07969258,14028,1942,1,0,10,1.5641152601717523
basic,76,33,0,0,0,0,[0],1,23,"[1, 2, 5, 7, 8, 11, 12, 13, 14, 15, 16, 17, 18, 19, 20, 21, 23, 24, 25, 26, 27, 28, 29]",300,367,-1,5,108,9,0.0
basic,76,33,0,0,0,8,"[0, 8]",2,22,"[1, 2, 5, 7, 11, 12, 13, 14, 15, 16, 17, 18, 19, 20, 21, 23, 24, 25, 26, 27, 28, 29]",265.8679037,3872,3505,5,87,9,1.0
basic,76,33,0,0,0,21,"[0, 8, 21]",3,16,"[2, 5, 7, 11, 13, 14, 16, 17, 18, 19, 20, 24, 26, 27, 28, 29]",166.0430571,5388,1516,5,80,9,1.0670557763739492
basic,76,33,0,0,0,13,"[0, 8, 21, 13]",4,12,"[2, 7, 11, 14, 16, 17, 18, 19, 20, 24, 26, 29]",139.6422995,6884,1496,4,54,9,1.0555103820910288
basic,76,33,0,0,0,19,"[0, 8, 21, 13, 19]",5,10,"[7, 11, 14, 16, 17, 18, 20, 24, 26, 29]",114.1472019,7989,1105,3,19,9,1.1090798607799486
basic,76,33,0,0,0,24,"[0, 8, 21, 13, 19, 24]",6,6,"[7, 14, 16, 18, 26, 29]",72.09960985,9427,1438,2,3,9,1.1193530461391534
basic,76,33,0,0,0,7,"[0, 8, 21, 13, 19, 24, 7]",7,2,"[14, 26]",42.89344611,10532,1105,2,0,9,1.2065014071663551
basic,76,33,0,0,0,14,"[0, 8, 21, 13, 19, 24, 7, 14]",8,1,[26],28.02737737,11347,815,1,0,9,1.2536495746979057
basic,76,33,0,0,1,26,"[0, 8, 21, 13, 19, 24, 7, 14, 26]",9,0,[],15.37826672,12076,729,1,0,9,1.2580465331304596
basic,76,33,0,1,1,26,"[0, 8, 21, 13, 19, 24, 7, 14, 26]",9,0,[],15.37826672,15485,3409,1,0,9,1.2580465331304596
basic,77,29,0,0,0,0,[0],1,29,"[1, 2, 3, 4, 5, 6, 7, 8, 9, 10, 11, 12, 13, 14, 15, 16, 17, 18, 19, 20, 21, 22, 23, 24, 25, 26, 27, 28, 29]",300,409,-1,1,78,9,0.0
basic,77,29,0,0,0,6,"[0, 6]",2,28,"[1, 2, 3, 4, 5, 7, 8, 9, 10, 11, 12, 13, 14, 15, 16, 17, 18, 19, 20, 21, 22, 23, 24, 25, 26, 27, 28, 29]",228.4108947,2339,1930,1,25,9,1.0
basic,77,29,0,0,0,28,"[0, 6, 28]",3,24,"[1, 3, 4, 5, 7, 9, 10, 11, 12, 13, 14, 15, 16, 17, 18, 20, 21, 22, 23, 24, 25, 26, 27, 29]",187.1798384,3740,1401,1,22,9,1.162106788166845
basic,77,29,0,0,0,27,"[0, 6, 28, 27]",4,19,"[1, 3, 4, 5, 7, 9, 10, 11, 12, 13, 14, 15, 16, 21, 22, 23, 25, 26, 29]",166.6615539,4869,1129,1,21,9,1.2307173895439045
basic,77,29,0,0,0,22,"[0, 6, 28, 27, 22]",5,13,"[1, 3, 4, 5, 7, 9, 12, 13, 14, 15, 21, 26, 29]",133.4200136,6454,1585,1,19,9,1.4241767805149903
basic,77,29,0,0,0,12,"[0, 6, 28, 27, 22, 12]",6,8,"[4, 5, 7, 9, 13, 14, 21, 26]",95.4726817,7765,1311,1,6,9,1.3248355326460857
basic,77,29,0,0,0,7,"[0, 6, 28, 27, 22, 12, 7]",7,4,"[4, 5, 9, 21]",81.87121119,8595,830,1,3,9,1.3264091962339806
basic,77,29,0,0,0,9,"[0, 6, 28, 27, 22, 12, 7, 9]",8,1,[4],52.80232748,9291,696,1,0,9,1.309391257644539
basic,77,29,0,0,1,4,"[0, 6, 28, 27, 22, 12, 7, 9, 4]",9,0,[],11.76575843,10437,1146,1,0,9,1.6396807789841599
basic,77,29,0,1,1,4,"[0, 6, 28, 27, 22, 12, 7, 9, 4]",9,0,[],11.76575843,12242,1805,1,0,9,1.6396807789841599
basic,78,28,0,0,0,0,[0],1,27,"[1, 2, 3, 4, 5, 6, 7, 8, 9, 10, 11, 12, 13, 14, 15, 16, 17, 18, 19, 20, 22, 23, 25, 26, 27, 28, 29]",300,400,-1,2,96,9,0.0
basic,78,28,0,0,0,20,"[0, 20]",2,22,"[2, 3, 4, 5, 6, 7, 8, 9, 10, 11, 12, 13, 14, 15, 16, 18, 19, 22, 23, 26, 28, 29]",245.9629757,3599,3199,1,24,9,1.0
basic,78,28,0,0,0,3,"[0, 20, 3]",3,19,"[2, 4, 5, 6, 7, 8, 9, 10, 11, 12, 13, 14, 15, 16, 18, 19, 23, 26, 28]",204.6229224,4448,849,9,50,8,1.9497218646689283
basic,78,28,0,0,0,5,"[0, 20, 3, 5]",4,13,"[2, 4, 7, 8, 9, 12, 13, 14, 15, 18, 19, 26, 28]",120.5277383,6167,1719,2,20,8,1.3767728943595041
basic,78,28,0,0,0,26,"[0, 20, 3, 5, 26]",5,11,"[2, 4, 7, 8, 9, 12, 13, 14, 18, 19, 28]",87.77105956,6978,811,2,12,8,1.32061441211042
basic,78,28,0,0,0,2,"[0, 20, 3, 5, 26, 2]",6,1,[19],47.41018742,7887,909,1,0,7,1.2587862168885644
basic,78,28,0,0,1,19,"[0, 20, 3, 5, 26, 2, 19]",7,0,[],10.04710404,9079,1192,1,0,7,1.5880500769599661
basic,78,28,0,1,1,19,"[0, 20, 3, 5, 26, 2, 19]",7,0,[],10.04710404,11141,2062,1,0,7,1.5880500769599661
basic,79,3,0,0,0,0,[0],1,29,"[1, 2, 3, 4, 5, 6, 7, 8, 9, 10, 11, 12, 13, 14, 15, 16, 17, 18, 19, 20, 21, 22, 23, 24, 25, 26, 27, 28, 29]",300,411,-1,34,427,10,0.0
basic,79,3,0,0,0,7,"[0, 7]",2,28,"[1, 2, 3, 4, 5, 6, 8, 9, 10, 11, 12, 13, 14, 15, 16, 17, 18, 19, 20, 21, 22, 23, 24, 25, 26, 27, 28, 29]",278.8103799,2529,2118,24,215,10,1.0
basic,79,3,0,0,0,24,"[0, 7, 24]",3,23,"[1, 2, 3, 4, 5, 6, 8, 10, 11, 12, 14, 15, 16, 17, 18, 19, 20, 21, 22, 25, 26, 27, 28]",219.6411311,4033,1504,8,84,10,1.3653527628841189
basic,79,3,0,0,0,8,"[0, 7, 24, 8]",4,21,"[1, 3, 4, 5, 6, 10, 11, 12, 14, 15, 16, 17, 18, 19, 20, 21, 22, 25, 26, 27, 28]",207.4756061,4777,744,8,60,10,1.5412172375781357
basic,79,3,0,0,0,10,"[0, 7, 24, 8, 10]",5,6,"[3, 4, 14, 19, 20, 21]",109.4705042,14690,9913,6,6,8,1.210034291214703
basic,79,3,0,0,0,14,"[0, 7, 24, 8, 10, 14]",6,5,"[3, 4, 19, 20, 21]",64.01723145,15909,1219,2,3,8,1.8335154415178803
basic,79,3,0,0,0,21,"[0, 7, 24, 8, 10, 14, 21]",7,1,[19],37.10998336,16660,751,1,0,8,1.709639072449279
