condition,trial_id,map_id,undoIndicator,submit,checkEnd,currentChoice,chosen_all,n_city_all,n_within_reach,cities_reach,currentBudget,time_all,rt_all,n_opt_paths_all,n_subopt_paths_all,mas_all,tortuosity_all
basic,0,11,0,0,0,0,[0],1,25,"[1, 2, 3, 4, 5, 6, 8, 9, 10, 11, 12, 13, 14, 15, 16, 17, 18, 19, 20, 22, 23, 25, 26, 27, 28]",300,141,-1,6,374,12,0.0
basic,0,11,0,0,0,1,"[0, 1]",2,24,"[2, 3, 4, 5, 6, 8, 9, 10, 11, 12, 13, 14, 15, 16, 17, 18, 19, 20, 22, 23, 25, 26, 27, 28]",264.6446609,8715,8574,6,217,12,1.0
basic,0,11,0,0,0,18,"[0, 1, 18]",3,19,"[2, 4, 5, 6, 8, 9, 11, 12, 14, 15, 16, 17, 19, 20, 22, 23, 25, 27, 28]",212.3187591,9455,740,6,161,12,1.3884463804898786
basic,0,11,0,0,0,27,"[0, 1, 18, 27]",4,18,"[2, 4, 5, 6, 8, 9, 11, 12, 14, 15, 16, 17, 19, 20, 22, 23, 25, 28]",188.4650382,9935,480,6,155,12,1.3600813284083875
basic,0,11,0,0,0,8,"[0, 1, 18, 27, 8]",5,11,"[2, 5, 6, 11, 12, 15, 17, 19, 22, 25, 28]",118.2510795,11305,1370,4,75,12,1.2516561493067806
basic,0,11,0,0,0,17,"[0, 1, 18, 27, 8, 17]",6,10,"[2, 5, 6, 11, 12, 15, 19, 22, 25, 28]",103.9332585,12007,702,4,40,12,1.3330781007673067
basic,0,11,0,0,0,15,"[0, 1, 18, 27, 8, 17, 15]",7,7,"[2, 5, 11, 12, 19, 22, 28]",91.28414782,12579,572,4,35,12,1.3305073448996472
basic,0,11,0,0,0,11,"[0, 1, 18, 27, 8, 17, 15, 11]",8,5,"[2, 5, 19, 22, 28]",73.17337754,13265,686,4,17,12,1.308363545391271
basic,0,11,0,0,0,28,"[0, 1, 18, 27, 8, 17, 15, 11, 28]",9,3,"[2, 5, 22]",53.7568897,14089,824,3,3,12,1.4249903205603536
basic,0,11,0,0,0,5,"[0, 1, 18, 27, 8, 17, 15, 11, 28, 5]",10,2,"[2, 22]",35.86834588,14911,822,1,1,12,1.623497724154086
basic,0,11,0,0,0,2,"[0, 1, 18, 27, 8, 17, 15, 11, 28, 5, 2]",11,1,[22],18.86834588,15536,625,1,0,12,1.5750723003139413
basic,0,11,0,0,1,22,"[0, 1, 18, 27, 8, 17, 15, 11, 28, 5, 2, 22]",12,0,[],8.818470263,16141,605,1,0,12,1.5444525284394994
basic,0,11,0,1,1,22,"[0, 1, 18, 27, 8, 17, 15, 11, 28, 5, 2, 22]",12,0,[],8.818470263,18268,2127,1,0,12,1.5444525284394994
basic,1,10,0,0,0,0,[0],1,29,"[1, 2, 3, 4, 5, 6, 7, 8, 9, 10, 11, 12, 13, 14, 15, 16, 17, 18, 19, 20, 21, 22, 23, 24, 25, 26, 27, 28, 29]",300,132,-1,1,100,9,0.0
basic,1,10,0,0,0,13,"[0, 13]",2,25,"[1, 2, 3, 4, 6, 7, 8, 9, 10, 11, 12, 14, 17, 18, 19, 20, 21, 22, 23, 24, 25, 26, 27, 28, 29]",249.4628849,11613,11481,1,79,9,1.0
basic,1,10,0,0,0,11,"[0, 13, 11]",3,20,"[1, 2, 3, 6, 7, 8, 9, 10, 12, 14, 18, 19, 20, 21, 22, 24, 26, 27, 28, 29]",206.4512586,12292,679,1,54,9,1.0313137484914219
basic,1,10,0,0,0,19,"[0, 13, 11, 19]",4,11,"[2, 6, 8, 9, 10, 14, 18, 20, 24, 26, 27]",170.0919407,13988,1696,1,22,9,1.0879446220132545
basic,1,10,0,0,0,2,"[0, 13, 11, 19, 2]",5,4,"[14, 20, 26, 27]",126.1829439,14696,708,1,4,9,1.06474052351343
basic,1,10,0,0,0,14,"[0, 13, 11, 19, 2, 14]",6,3,"[20, 26, 27]",114.0174188,15006,310,1,3,9,1.1628909195912238
basic,1,10,0,0,0,26,"[0, 13, 11, 19, 2, 14, 26]",7,2,"[20, 27]",79.34754716,17033,2027,1,1,9,1.6660727647633602
basic,1,10,0,0,0,20,"[0, 13, 11, 19, 2, 14, 26, 20]",8,1,[27],47.56704999,17484,451,1,0,9,2.085581809637999
basic,1,10,0,0,1,27,"[0, 13, 11, 19, 2, 14, 26, 20, 27]",9,0,[],2.312215998,18438,954,1,0,9,1.9116357409137932
basic,1,10,0,1,1,27,"[0, 13, 11, 19, 2, 14, 26, 20, 27]",9,0,[],2.312215998,19926,1488,1,0,9,1.9116357409137932
basic,2,41,0,0,0,0,[0],1,29,"[1, 2, 3, 4, 5, 6, 7, 8, 9, 10, 11, 12, 13, 14, 15, 16, 17, 18, 19, 20, 21, 22, 23, 24, 25, 26, 27, 28, 29]",300,132,-1,1,143,10,0.0
basic,2,41,0,0,0,13,"[0, 13]",2,23,"[1, 2, 3, 5, 6, 7, 9, 10, 11, 12, 14, 15, 17, 18, 19, 20, 21, 22, 24, 25, 26, 27, 28]",258.2747079,26771,26639,1,55,10,1.0
basic,2,41,0,0,0,28,"[0, 13, 28]",3,22,"[1, 2, 3, 5, 6, 7, 9, 10, 11, 12, 14, 15, 17, 18, 19, 20, 21, 22, 24, 25, 26, 27]",223.7928286,27267,496,1,39,10,1.895724242592676
basic,2,41,0,0,0,5,"[0, 13, 28, 5]",4,19,"[1, 2, 3, 6, 9, 10, 11, 12, 14, 15, 17, 18, 19, 20, 21, 22, 24, 25, 27]",210.1913581,27798,531,1,34,10,2.861541269398273
basic,2,41,0,0,0,3,"[0, 13, 28, 5, 3]",5,16,"[1, 2, 6, 9, 10, 12, 14, 17, 18, 19, 20, 21, 22, 24, 25, 27]",175.3632086,28757,959,1,22,10,3.1455488489005883
basic,2,41,0,0,0,21,"[0, 13, 28, 5, 3, 21]",6,14,"[1, 2, 6, 9, 10, 12, 14, 17, 18, 19, 20, 22, 25, 27]",143.2228912,32150,3393,13,11,9,3.207558429289677
basic,2,41,0,0,0,9,"[0, 13, 28, 5, 3, 21, 9]",7,6,"[1, 2, 10, 12, 14, 17]",93.85691102,33893,1743,7,4,9,2.5050148501792275
basic,2,41,0,0,0,2,"[0, 13, 28, 5, 3, 21, 9, 2]",8,5,"[1, 10, 12, 14, 17]",81.77386505,34580,687,5,0,9,2.4119643847713177
basic,2,41,0,0,1,17,"[0, 13, 28, 5, 3, 21, 9, 2, 17]",9,0,[],49.21622385,35631,1051,1,0,9,3.9563478735796007
basic,2,41,0,1,1,17,"[0, 13, 28, 5, 3, 21, 9, 2, 17]",9,0,[],49.21622385,38506,2875,1,0,9,3.9563478735796007
basic,3,35,0,0,0,0,[0],1,29,"[1, 2, 3, 4, 5, 6, 7, 8, 9, 10, 11, 12, 13, 14, 15, 16, 17, 18, 19, 20, 21, 22, 23, 24, 25, 26, 27, 28, 29]",300,130,-1,5,236,11,0.0
basic,3,35,0,0,0,27,"[0, 27]",2,27,"[1, 2, 4, 5, 6, 7, 8, 9, 10, 11, 12, 13, 14, 15, 16, 17, 18, 19, 20, 21, 22, 23, 24, 25, 26, 28, 29]",278.7867966,10024,9894,5,144,11,1.0
basic,3,35,0,0,0,24,"[0, 27, 24]",3,25,"[1, 2, 4, 5, 6, 7, 8, 9, 10, 11, 12, 13, 15, 16, 17, 18, 19, 20, 21, 22, 23, 25, 26, 28, 29]",234.6053525,11112,1088,3,80,11,2.1084080567904624
basic,3,35,0,0,0,17,"[0, 27, 24, 17]",4,20,"[1, 2, 4, 5, 6, 7, 8, 9, 10, 15, 16, 18, 19, 20, 21, 23, 25, 26, 28, 29]",222.9006526,14984,3872,3,50,11,1.9439555968916868
basic,3,35,0,0,0,15,"[0, 27, 24, 17, 15]",5,18,"[1, 2, 4, 5, 6, 8, 9, 10, 16, 18, 19, 20, 21, 23, 25, 26, 28, 29]",185.6985021,15638,654,11,49,10,2.056567496577219
basic,3,35,0,0,0,1,"[0, 27, 24, 17, 15, 1]",6,12,"[2, 4, 5, 6, 9, 10, 18, 19, 23, 25, 26, 28]",162.8511828,16280,642,8,23,10,2.8691216612302255
basic,3,35,0,0,0,23,"[0, 27, 24, 17, 15, 1, 23]",7,5,"[5, 6, 9, 18, 25]",104.3276832,17462,1182,6,6,10,1.8404046112788683
basic,3,35,0,0,0,9,"[0, 27, 24, 17, 15, 1, 23, 9]",8,3,"[6, 18, 25]",66.68462279,18122,660,2,2,10,2.075493464695687
basic,3,35,0,0,0,18,"[0, 27, 24, 17, 15, 1, 23, 9, 18]",9,2,"[6, 25]",46.65963839,18760,638,2,0,10,1.9695085754598065
basic,3,35,0,0,1,25,"[0, 27, 24, 17, 15, 1, 23, 9, 18, 25]",10,0,[],12.82178976,19766,1006,1,0,10,1.7733470471763986
basic,3,35,0,1,1,25,"[0, 27, 24, 17, 15, 1, 23, 9, 18, 25]",10,0,[],12.82178976,21524,1758,1,0,10,1.7733470471763986
basic,4,32,0,0,0,0,[0],1,29,"[1, 2, 3, 4, 5, 6, 7, 8, 9, 10, 11, 12, 13, 14, 15, 16, 17, 18, 19, 20, 21, 22, 23, 24, 25, 26, 27, 28, 29]",300,132,-1,17,359,10,0.0
basic,4,32,0,0,0,19,"[0, 19]",2,28,"[1, 2, 3, 4, 5, 6, 7, 8, 9, 10, 11, 12, 13, 14, 15, 16, 17, 18, 20, 21, 22, 23, 24, 25, 26, 27, 28, 29]",283.5075775,4755,4623,16,294,10,1.0
basic,4,32,0,0,0,13,"[0, 19, 13]",3,24,"[2, 3, 4, 5, 6, 8, 9, 10, 11, 12, 14, 15, 16, 17, 18, 20, 21, 22, 23, 24, 25, 26, 27, 28]",260.3127505,5391,636,14,227,10,1.0172874229878615
basic,4,32,0,0,0,15,"[0, 19, 13, 15]",4,18,"[2, 3, 5, 8, 9, 10, 11, 12, 16, 17, 20, 22, 23, 24, 25, 26, 27, 28]",177.4393531,6231,840,9,116,10,1.435447391509833
basic,4,32,0,0,0,28,"[0, 19, 13, 15, 28]",5,17,"[2, 3, 5, 8, 9, 10, 11, 12, 16, 17, 20, 22, 23, 24, 25, 26, 27]",166.0375988,6769,538,9,70,10,1.3843701324937985
basic,4,32,0,0,0,16,"[0, 19, 13, 15, 28, 16]",6,14,"[2, 3, 5, 8, 9, 10, 11, 12, 17, 20, 22, 24, 26, 27]",134.0219776,9087,2318,3,22,10,1.4134622039936937
basic,4,32,0,0,0,12,"[0, 19, 13, 15, 28, 16, 12]",7,10,"[2, 3, 5, 8, 9, 11, 17, 20, 22, 27]",118.3695018,9953,866,3,12,10,1.6132350863104477
basic,4,32,0,0,0,22,"[0, 19, 13, 15, 28, 16, 12, 22]",8,6,"[2, 8, 9, 17, 20, 27]",88.83985567,10757,804,3,5,10,1.4953724432077236
basic,4,32,0,0,0,9,"[0, 19, 13, 15, 28, 16, 12, 22, 9]",9,3,"[2, 8, 20]",66.63625236,11535,778,3,0,10,1.5414044555780373
basic,4,32,0,0,1,2,"[0, 19, 13, 15, 28, 16, 12, 22, 9, 2]",10,0,[],15.54809326,12938,1403,1,0,10,1.9611776974861712
basic,4,32,0,1,1,2,"[0, 19, 13, 15, 28, 16, 12, 22, 9, 2]",10,0,[],15.54809326,14124,1186,1,0,10,1.9611776974861712
basic,5,22,0,0,0,0,[0],1,29,"[1, 2, 3, 4, 5, 6, 7, 8, 9, 10, 11, 12, 13, 14, 15, 16, 17, 18, 19, 20, 21, 22, 23, 24, 25, 26, 27, 28, 29]",300,172,-1,31,704,9,0.0
basic,5,22,0,0,0,16,"[0, 16]",2,21,"[1, 3, 6, 7, 8, 9, 11, 13, 14, 15, 17, 18, 19, 20, 21, 22, 24, 25, 27, 28, 29]",218.605897,7882,7710,17,147,9,1.0
basic,5,22,0,0,0,28,"[0, 16, 28]",3,13,"[6, 7, 9, 13, 14, 17, 19, 20, 21, 22, 24, 25, 29]",184.1675463,8454,572,12,61,9,1.047282311284478
basic,5,22,0,0,0,6,"[0, 16, 28, 6]",4,12,"[7, 9, 13, 14, 17, 19, 20, 21, 22, 24, 25, 29]",154.1675463,8891,437,12,43,9,1.645645870580622
basic,5,22,0,0,0,9,"[0, 16, 28, 6, 9]",5,8,"[7, 14, 17, 19, 20, 21, 24, 29]",127.5404924,9567,676,8,17,9,1.925750226630103
basic,5,22,0,0,0,14,"[0, 16, 28, 6, 9, 14]",6,5,"[7, 17, 19, 24, 29]",84.49400589,10839,1272,2,4,9,1.6636058370259441
basic,5,22,0,0,0,7,"[0, 16, 28, 6, 9, 14, 7]",7,4,"[17, 19, 24, 29]",71.45560108,11131,292,2,2,9,1.8172242553661921
basic,5,22,0,0,0,19,"[0, 16, 28, 6, 9, 14, 7, 19]",8,1,[29],25.18465988,11735,604,1,0,9,3.451408325118739
basic,5,22,0,0,1,29,"[0, 16, 28, 6, 9, 14, 7, 19, 29]",9,0,[],10.1513635,12406,671,1,0,9,3.763950601205494
basic,5,22,0,1,1,29,"[0, 16, 28, 6, 9, 14, 7, 19, 29]",9,0,[],10.1513635,13457,1051,1,0,9,3.763950601205494
basic,6,2,0,0,0,0,[0],1,23,"[1, 2, 4, 5, 6, 7, 8, 9, 12, 13, 15, 16, 17, 18, 19, 20, 22, 23, 25, 26, 27, 28, 29]",300,132,-1,70,620,10,0.0
basic,6,2,0,0,0,19,"[0, 19]",2,22,"[1, 2, 4, 5, 6, 7, 8, 9, 12, 13, 15, 16, 17, 18, 20, 22, 23, 25, 26, 27, 28, 29]",210.306076,2888,2756,67,431,10,1.0
basic,6,2,0,0,0,12,"[0, 19, 12]",3,17,"[1, 4, 5, 6, 7, 13, 15, 16, 17, 18, 20, 22, 25, 26, 27, 28, 29]",174.2921898,3495,607,66,298,10,1.1107635036313153
basic,6,2,0,0,0,5,"[0, 19, 12, 5]",4,11,"[1, 6, 7, 13, 15, 16, 18, 22, 25, 26, 29]",144.7625437,4264,769,38,136,10,1.0968174771581647
basic,6,2,0,0,0,22,"[0, 19, 12, 5, 22]",5,8,"[1, 6, 7, 13, 15, 18, 26, 29]",131.9562952,4722,458,20,63,10,1.0889910507461968
basic,6,2,0,0,0,13,"[0, 19, 12, 5, 22, 13]",6,7,"[1, 6, 7, 15, 18, 26, 29]",117.0902265,5120,398,19,20,10,1.236526217328057
basic,6,2,0,0,0,18,"[0, 19, 12, 5, 22, 13, 18]",7,4,"[7, 15, 26, 29]",81.91921567,6772,1652,10,3,10,1.2128708213409936
basic,6,2,0,0,0,7,"[0, 19, 12, 5, 22, 13, 18, 7]",8,3,"[15, 26, 29]",71.62358553,7258,486,5,0,10,1.2019811287894737
basic,6,2,0,0,0,26,"[0, 19, 12, 5, 22, 13, 18, 7, 26]",9,2,"[15, 29]",48.82007703,8206,948,2,0,10,1.1883593342191134
basic,6,2,0,0,1,15,"[0, 19, 12, 5, 22, 13, 18, 7, 26, 15]",10,0,[],24.61264015,9532,1326,1,0,10,1.4619750353663825
basic,6,2,0,1,1,15,"[0, 19, 12, 5, 22, 13, 18, 7, 26, 15]",10,0,[],24.61264015,11176,1644,1,0,10,1.4619750353663825
basic,7,26,0,0,0,0,[0],1,29,"[1, 2, 3, 4, 5, 6, 7, 8, 9, 10, 11, 12, 13, 14, 15, 16, 17, 18, 19, 20, 21, 22, 23, 24, 25, 26, 27, 28, 29]",300,145,-1,9,226,9,0.0
basic,7,26,0,0,0,12,"[0, 12]",2,26,"[1, 2, 3, 4, 5, 6, 8, 10, 11, 13, 14, 15, 16, 17, 18, 19, 20, 21, 22, 23, 24, 25, 26, 27, 28, 29]",279.8753882,2054,1909,2,80,9,1.0
basic,7,26,0,0,0,4,"[0, 12, 4]",3,11,"[5, 6, 10, 13, 14, 16, 17, 19, 21, 23, 29]",149.4108336,7273,5219,16,95,8,1.242461188572386
basic,7,26,0,0,0,17,"[0, 12, 4, 17]",4,8,"[6, 10, 13, 14, 16, 21, 23, 29]",128.3158105,12165,4892,4,24,8,1.2082947779651163
basic,7,26,0,0,0,6,"[0, 12, 4, 17, 6]",5,4,"[10, 14, 16, 29]",108.1911987,12629,464,2,6,8,1.1942420175970017
basic,7,26,0,0,0,14,"[0, 12, 4, 17, 6, 14]",6,3,"[10, 16, 29]",87.16740268,13152,523,2,1,8,1.3206938947282516
basic,7,26,0,0,0,29,"[0, 12, 4, 17, 6, 14, 29]",7,1,[16],45.93634642,13590,438,1,0,8,2.0792783678895326
basic,7,26,0,0,1,16,"[0, 12, 4, 17, 6, 14, 29, 16]",8,0,[],21.72890955,14904,1314,1,0,8,2.485752568115748
basic,7,26,0,1,1,16,"[0, 12, 4, 17, 6, 14, 29, 16]",8,0,[],21.72890955,18952,4048,1,0,8,2.485752568115748
basic,8,12,0,0,0,0,[0],1,29,"[1, 2, 3, 4, 5, 6, 7, 8, 9, 10, 11, 12, 13, 14, 15, 16, 17, 18, 19, 20, 21, 22, 23, 24, 25, 26, 27, 28, 29]",300,132,-1,2,32,9,0.0
basic,8,12,0,0,0,6,"[0, 6]",2,28,"[1, 2, 3, 4, 5, 7, 8, 9, 10, 11, 12, 13, 14, 15, 16, 17, 18, 19, 20, 21, 22, 23, 24, 25, 26, 27, 28, 29]",283.5987805,15291,15159,2,18,9,1.0
basic,8,12,0,0,0,22,"[0, 6, 22]",3,13,"[2, 4, 5, 7, 12, 13, 14, 16, 19, 23, 24, 25, 27]",182.0015365,15987,696,2,9,9,1.3408050629015749
basic,8,12,0,0,0,16,"[0, 6, 22, 16]",4,10,"[2, 4, 5, 7, 12, 14, 19, 24, 25, 27]",161.0015365,17657,1670,2,7,9,1.5323672374573825
basic,8,12,0,0,0,4,"[0, 6, 22, 16, 4]",5,6,"[12, 14, 19, 24, 25, 27]",126.7962737,19005,1348,2,5,9,1.38665076120851
basic,8,12,0,0,0,12,"[0, 6, 22, 16, 4, 12]",6,3,"[14, 24, 27]",84.6062275,19963,958,2,3,9,1.3036701691846924
basic,8,12,0,0,0,27,"[0, 6, 22, 16, 4, 12, 27]",7,2,"[14, 24]",60.25463618,20539,576,2,0,9,1.401636252408167
basic,8,12,0,0,0,14,"[0, 6, 22, 16, 4, 12, 27, 14]",8,1,[24],31.60153862,21137,598,1,0,9,1.4415448388010776
basic,8,12,0,0,1,24,"[0, 6, 22, 16, 4, 12, 27, 14, 24]",9,0,[],14.39688808,21659,522,1,0,9,1.6003250998053893
basic,8,12,0,1,1,24,"[0, 6, 22, 16, 4, 12, 27, 14, 24]",9,0,[],14.39688808,22834,1175,1,0,9,1.6003250998053893
basic,9,5,0,0,0,0,[0],1,29,"[1, 2, 3, 4, 5, 6, 7, 8, 9, 10, 11, 12, 13, 14, 15, 16, 17, 18, 19, 20, 21, 22, 23, 24, 25, 26, 27, 28, 29]",300,145,-1,5,139,9,0.0
basic,9,5,0,0,0,12,"[0, 12]",2,22,"[2, 4, 5, 6, 8, 9, 10, 13, 14, 15, 16, 17, 18, 19, 21, 22, 23, 24, 25, 26, 27, 28]",228.3062067,9371,9226,1,27,9,1.0
basic,9,5,0,0,0,25,"[0, 12, 25]",3,21,"[2, 4, 5, 6, 8, 9, 10, 13, 14, 15, 16, 17, 18, 19, 21, 22, 23, 24, 26, 27, 28]",200.5213187,9817,446,1,20,9,1.584023303445617
basic,9,5,0,0,0,23,"[0, 12, 25, 23]",4,19,"[2, 4, 5, 6, 8, 9, 10, 13, 14, 15, 16, 17, 18, 19, 21, 22, 24, 26, 27]",182.0822298,10178,361,1,14,9,2.3508446989254357
basic,9,5,0,0,0,24,"[0, 12, 25, 23, 24]",5,15,"[2, 4, 5, 6, 8, 9, 13, 14, 15, 17, 18, 19, 22, 26, 27]",158.995437,10534,356,1,12,9,1.9469752046288753
basic,9,5,0,0,0,17,"[0, 12, 25, 23, 24, 17]",6,7,"[4, 5, 6, 8, 15, 18, 19]",124.0097257,10991,457,1,8,9,1.6482276497563642
basic,9,5,0,0,0,15,"[0, 12, 25, 23, 24, 17, 15]",7,1,[5],47.60946388,13006,2015,1,0,8,1.4282850435838743
basic,9,5,0,0,1,5,"[0, 12, 25, 23, 24, 17, 15, 5]",8,0,[],7.584471688,14043,1037,1,0,8,1.956405373989828
basic,9,5,0,1,1,5,"[0, 12, 25, 23, 24, 17, 15, 5]",8,0,[],7.584471688,15137,1094,1,0,8,1.956405373989828
basic,10,42,0,0,0,0,[0],1,29,"[1, 2, 3, 4, 5, 6, 7, 8, 9, 10, 11, 12, 13, 14, 15, 16, 17, 18, 19, 20, 21, 22, 23, 24, 25, 26, 27, 28, 29]",300,132,-1,16,302,9,0.0
basic,10,42,0,0,0,25,"[0, 25]",2,27,"[1, 2, 3, 4, 5, 6, 7, 8, 9, 10, 11, 12, 13, 15, 16, 17, 18, 19, 20, 21, 22, 23, 24, 26, 27, 28, 29]",270.2678625,19316,19184,3,59,9,1.0
basic,10,42,0,0,0,17,"[0, 25, 17]",3,10,"[3, 4, 8, 9, 11, 15, 22, 23, 24, 29]",156.2766348,20231,915,2,11,7,1.5769989857819515
basic,10,42,0,0,0,23,"[0, 25, 17, 23]",4,9,"[3, 4, 8, 9, 11, 15, 22, 24, 29]",145.0962949,20612,381,2,7,7,1.9123914209876542
basic,10,42,0,0,0,3,"[0, 25, 17, 23, 3]",5,4,"[4, 11, 22, 24]",91.75775347,21466,854,4,0,6,4.710929018889371
basic,10,42,0,0,1,22,"[0, 25, 17, 23, 3, 22]",6,0,[],8.307169293,23119,1653,1,0,6,3.2922357510113502
basic,10,42,0,1,1,22,"[0, 25, 17, 23, 3, 22]",6,0,[],8.307169293,24740,1621,1,0,6,3.2922357510113502
basic,11,28,0,0,0,0,[0],1,27,"[1, 2, 3, 4, 5, 6, 7, 8, 9, 10, 11, 12, 13, 14, 15, 16, 17, 18, 19, 20, 22, 23, 25, 26, 27, 28, 29]",300,146,-1,2,96,9,0.0
basic,11,28,0,0,0,3,"[0, 3]",2,26,"[1, 2, 4, 5, 6, 7, 8, 9, 10, 11, 12, 13, 14, 15, 16, 17, 18, 19, 20, 22, 23, 25, 26, 27, 28, 29]",251.0817008,4385,4239,1,64,9,1.0
basic,11,28,0,0,0,5,"[0, 3, 5]",3,20,"[2, 4, 6, 7, 8, 9, 10, 11, 12, 13, 14, 15, 18, 19, 20, 23, 25, 26, 28, 29]",166.9865166,9939,5554,1,34,9,1.0203769473612083
basic,11,28,0,0,0,28,"[0, 3, 5, 28]",4,6,"[2, 4, 8, 9, 19, 26]",100.0761288,11406,1467,8,4,7,1.0823311089558794
basic,11,28,0,0,0,8,"[0, 3, 5, 28, 8]",5,4,"[2, 4, 9, 26]",82.27163495,12571,1165,4,2,7,1.0795975941035891
basic,11,28,0,0,0,9,"[0, 3, 5, 28, 8, 9]",6,3,"[2, 4, 26]",67.138889,13007,436,3,0,7,1.131674521612193
basic,11,28,0,0,1,4,"[0, 3, 5, 28, 8, 9, 4]",7,0,[],44.11716013,13617,610,1,0,7,1.1196899491715564
basic,11,28,0,1,1,4,"[0, 3, 5, 28, 8, 9, 4]",7,0,[],44.11716013,14712,1095,1,0,7,1.1196899491715564
basic,12,23,0,0,0,0,[0],1,28,"[1, 2, 3, 4, 5, 6, 7, 8, 9, 10, 11, 12, 13, 14, 15, 16, 17, 18, 19, 20, 21, 22, 23, 25, 26, 27, 28, 29]",300,145,-1,76,2626,10,0.0
basic,12,23,0,0,0,13,"[0, 13]",2,19,"[1, 2, 3, 5, 6, 7, 8, 9, 10, 12, 14, 17, 18, 19, 21, 22, 23, 27, 29]",189.3202819,3318,3173,9,168,10,1.0
basic,12,23,0,0,0,12,"[0, 13, 12]",3,16,"[1, 2, 3, 6, 7, 8, 9, 10, 14, 17, 18, 21, 22, 23, 27, 29]",177.2372359,4926,1608,9,96,10,1.0014195490503164
basic,12,23,0,0,0,6,"[0, 13, 12, 6]",4,9,"[2, 7, 9, 10, 14, 18, 22, 27, 29]",147.5555918,5630,704,2,17,10,1.0146513975411646
basic,12,23,0,0,0,2,"[0, 13, 12, 6, 2]",5,8,"[7, 9, 10, 14, 18, 22, 27, 29]",129.1165028,6297,667,2,8,10,1.252271865214601
basic,12,23,0,0,0,9,"[0, 13, 12, 6, 2, 9]",6,7,"[7, 10, 14, 18, 22, 27, 29]",116.078098,8744,2447,1,4,10,1.4077625583396691
basic,12,23,0,0,0,14,"[0, 13, 12, 6, 2, 9, 14]",7,5,"[7, 10, 22, 27, 29]",105.6377915,9184,440,1,3,10,1.3795313352500915
basic,12,23,0,0,0,29,"[0, 13, 12, 6, 2, 9, 14, 29]",8,2,"[7, 10]",58.20362662,10031,847,1,1,10,1.5679920543199335
basic,12,23,0,0,0,7,"[0, 13, 12, 6, 2, 9, 14, 29, 7]",9,1,[10],34.12043747,10792,761,1,0,10,1.5808251397817217
basic,12,23,0,0,1,10,"[0, 13, 12, 6, 2, 9, 14, 29, 7, 10]",10,0,[],6.661377032,11740,948,1,0,10,1.5347739273486019
basic,12,23,0,1,1,10,"[0, 13, 12, 6, 2, 9, 14, 29, 7, 10]",10,0,[],6.661377032,12829,1089,1,0,10,1.5347739273486019
basic,13,44,0,0,0,0,[0],1,29,"[1, 2, 3, 4, 5, 6, 7, 8, 9, 10, 11, 12, 13, 14, 15, 16, 17, 18, 19, 20, 21, 22, 23, 24, 25, 26, 27, 28, 29]",300,145,-1,13,126,7,0.0
basic,13,44,0,0,0,8,"[0, 8]",2,17,"[1, 4, 5, 7, 9, 10, 11, 12, 13, 14, 15, 20, 21, 23, 24, 25, 27]",145.7923478,10330,10185,1,10,7,1.0
basic,13,44,0,0,0,20,"[0, 8, 20]",3,16,"[1, 4, 5, 7, 9, 10, 11, 12, 13, 14, 15, 21, 23, 24, 25, 27]",133.7093018,10788,458,1,9,7,1.0890794433668698
basic,13,44,0,0,0,9,"[0, 8, 20, 9]",4,7,"[4, 7, 11, 12, 14, 23, 24]",76.43801756,11740,952,1,6,7,1.40892325509949
basic,13,44,0,0,0,24,"[0, 8, 20, 9, 24]",5,2,"[4, 11]",43.68133886,17102,5362,2,0,6,1.70572353022166
basic,13,44,0,0,1,11,"[0, 8, 20, 9, 24, 11]",6,0,[],16.75551482,17556,454,1,0,6,1.9239417911005514
basic,13,44,0,1,1,11,"[0, 8, 20, 9, 24, 11]",6,0,[],16.75551482,18191,635,1,0,6,1.9239417911005514
basic,14,7,0,0,0,0,[0],1,29,"[1, 2, 3, 4, 5, 6, 7, 8, 9, 10, 11, 12, 13, 14, 15, 16, 17, 18, 19, 20, 21, 22, 23, 24, 25, 26, 27, 28, 29]",300,145,-1,3,79,9,0.0
basic,14,7,0,0,0,25,"[0, 25]",2,20,"[2, 3, 4, 5, 6, 7, 10, 13, 14, 15, 16, 18, 19, 20, 21, 22, 23, 24, 27, 28]",181.5939191,3176,3031,5,33,8,1.0
basic,14,7,0,0,0,4,"[0, 25, 4]",3,11,"[2, 6, 7, 13, 15, 16, 18, 19, 20, 21, 23]",156.8552853,3620,444,2,14,8,1.0193465608331511
basic,14,7,0,0,0,20,"[0, 25, 4, 20]",4,8,"[2, 6, 7, 13, 15, 16, 18, 19]",137.2084026,4104,484,1,9,8,1.085904909082323
basic,14,7,0,0,0,18,"[0, 25, 4, 20, 18]",5,7,"[2, 6, 7, 13, 15, 16, 19]",124.4021541,4496,392,1,5,8,1.2264883846453758
basic,14,7,0,0,0,7,"[0, 25, 4, 20, 18, 7]",6,2,"[2, 19]",83.17109789,5582,1086,1,1,8,1.185264473968278
basic,14,7,0,0,0,19,"[0, 25, 4, 20, 18, 7, 19]",7,1,[2],53.76021555,6126,544,1,0,8,1.3016904288278204
basic,14,7,0,0,1,2,"[0, 25, 4, 20, 18, 7, 19, 2]",8,0,[],23.61058868,6702,576,1,0,8,1.3168868000947171
basic,14,7,0,1,1,2,"[0, 25, 4, 20, 18, 7, 19, 2]",8,0,[],23.61058868,7668,966,1,0,8,1.3168868000947171
basic,15,43,0,0,0,0,[0],1,23,"[1, 2, 3, 4, 5, 6, 7, 9, 10, 11, 12, 14, 15, 16, 17, 19, 20, 21, 22, 23, 25, 27, 29]",300,172,-1,16,556,12,0.0
basic,15,43,0,0,0,29,"[0, 29]",2,22,"[1, 2, 3, 4, 5, 6, 7, 9, 10, 11, 12, 14, 15, 16, 17, 19, 20, 21, 22, 23, 25, 27]",277.909278,1631,1459,16,520,12,1.0
basic,15,43,0,0,0,20,"[0, 29, 20]",3,20,"[1, 2, 3, 4, 6, 7, 9, 10, 11, 12, 14, 15, 16, 17, 19, 21, 22, 23, 25, 27]",254.4785289,2155,524,15,422,12,1.082311746871282
basic,15,43,0,0,0,16,"[0, 29, 20, 16]",4,19,"[1, 2, 3, 4, 6, 7, 9, 10, 11, 12, 14, 15, 17, 19, 21, 22, 23, 25, 27]",231.8511119,2628,473,15,389,12,1.215201926898219
basic,15,43,0,0,0,25,"[0, 29, 20, 16, 25]",5,14,"[1, 2, 3, 4, 6, 7, 9, 11, 12, 14, 15, 19, 22, 23]",175.7708124,5093,2465,53,282,11,1.566384303308987
basic,15,43,0,0,0,15,"[0, 29, 20, 16, 25, 15]",6,13,"[1, 2, 3, 4, 6, 7, 9, 11, 12, 14, 19, 22, 23]",153.0992443,5489,396,27,108,11,1.776736412604812
basic,15,43,0,0,0,12,"[0, 29, 20, 16, 25, 15, 12]",7,10,"[1, 3, 6, 7, 9, 11, 14, 19, 22, 23]",133.7860364,5809,320,21,41,11,1.6813323012225032
basic,15,43,0,0,0,3,"[0, 29, 20, 16, 25, 15, 12, 3]",8,9,"[1, 6, 7, 9, 11, 14, 19, 22, 23]",120.7860364,7285,1476,20,12,11,1.608740348096123
basic,15,43,0,0,0,22,"[0, 29, 20, 16, 25, 15, 12, 3, 22]",9,6,"[1, 6, 7, 11, 14, 19]",86.07292644,11343,4058,9,2,11,1.793657891802588
basic,15,43,0,0,0,19,"[0, 29, 20, 16, 25, 15, 12, 3, 22, 19]",10,3,"[1, 6, 7]",65.45739831,11695,352,3,0,11,1.6882745891803936
basic,15,43,0,0,1,1,"[0, 29, 20, 16, 25, 15, 12, 3, 22, 19, 1]",11,0,[],37.2793927,12300,605,1,0,11,1.825064866046553
basic,15,43,0,1,1,1,"[0, 29, 20, 16, 25, 15, 12, 3, 22, 19, 1]",11,0,[],37.2793927,14270,1970,1,0,11,1.825064866046553
basic,16,29,0,0,0,0,[0],1,29,"[1, 2, 3, 4, 5, 6, 7, 8, 9, 10, 11, 12, 13, 14, 15, 16, 17, 18, 19, 20, 21, 22, 23, 24, 25, 26, 27, 28, 29]",300,132,-1,1,78,9,0.0
basic,16,29,0,0,0,14,"[0, 14]",2,22,"[1, 3, 4, 5, 6, 7, 9, 10, 11, 12, 13, 15, 16, 17, 21, 22, 23, 25, 26, 27, 28, 29]",209.490332,5879,5747,21,110,8,1.0
basic,16,29,0,0,0,13,"[0, 14, 13]",3,18,"[1, 4, 5, 6, 7, 9, 10, 12, 15, 16, 17, 21, 22, 25, 26, 27, 28, 29]",191.4625756,7594,1715,20,75,8,1.0027006502223275
basic,16,29,0,0,0,5,"[0, 14, 13, 5]",4,15,"[1, 4, 6, 7, 9, 12, 15, 17, 21, 22, 25, 26, 27, 28, 29]",165.7526554,8320,726,19,49,8,1.0803937325657265
basic,16,29,0,0,0,4,"[0, 14, 13, 5, 4]",5,5,"[7, 9, 12, 21, 22]",113.8585324,9127,807,5,5,8,1.0589046774357636
basic,16,29,0,0,0,9,"[0, 14, 13, 5, 4, 9]",6,3,"[7, 12, 21]",72.82196333,9861,734,2,1,8,1.2033484462540056
basic,16,29,0,0,0,7,"[0, 14, 13, 5, 4, 9, 7]",7,1,[12],43.75307962,10440,579,1,0,8,1.5581999677939193
basic,16,29,0,0,1,12,"[0, 14, 13, 5, 4, 9, 7, 12]",8,0,[],30.15160911,10809,369,1,0,8,1.747955919287298
basic,16,29,0,1,1,12,"[0, 14, 13, 5, 4, 9, 7, 12]",8,0,[],30.15160911,12363,1554,1,0,8,1.747955919287298
basic,17,27,0,0,0,0,[0],1,26,"[1, 3, 5, 6, 7, 8, 9, 10, 11, 12, 13, 14, 15, 16, 17, 18, 19, 21, 22, 23, 24, 25, 26, 27, 28, 29]",300,145,-1,13,578,11,0.0
basic,17,27,0,0,0,15,"[0, 15]",2,24,"[1, 3, 5, 6, 7, 8, 9, 10, 11, 12, 13, 14, 16, 17, 18, 19, 21, 22, 23, 24, 25, 26, 27, 29]",263.7508621,3593,3448,6,219,11,1.0
basic,17,27,0,0,0,24,"[0, 15, 24]",3,20,"[1, 5, 6, 7, 8, 9, 10, 12, 13, 14, 16, 17, 18, 19, 21, 23, 25, 26, 27, 29]",246.5462115,4904,1311,6,130,11,1.130933077698322
basic,17,27,0,0,0,17,"[0, 15, 24, 17]",4,15,"[1, 6, 8, 10, 12, 13, 14, 16, 18, 19, 23, 25, 26, 27, 29]",229.9932662,5327,423,4,60,11,1.1285538435963374
basic,17,27,0,0,0,12,"[0, 15, 24, 17, 12]",5,14,"[1, 6, 8, 10, 13, 14, 16, 18, 19, 23, 25, 26, 27, 29]",218.8129263,5719,392,2,32,11,1.2561880288755216
basic,17,27,0,0,0,10,"[0, 15, 24, 17, 12, 10]",6,11,"[1, 8, 13, 14, 18, 19, 23, 25, 26, 27, 29]",207.7675653,6109,390,2,28,11,1.2228289337766665
basic,17,27,0,0,0,13,"[0, 15, 24, 17, 12, 10, 13]",7,9,"[1, 8, 14, 18, 19, 23, 26, 27, 29]",167.9178476,6885,776,2,18,11,1.3421291994761178
basic,17,27,0,0,0,19,"[0, 15, 24, 17, 12, 10, 13, 19]",8,5,"[1, 8, 14, 23, 29]",131.6825057,8259,1374,2,6,11,1.294749956153846
basic,17,27,0,0,0,8,"[0, 15, 24, 17, 12, 10, 13, 19, 8]",9,3,"[14, 23, 29]",116.816437,8564,305,2,1,11,1.3554286578836865
basic,17,27,0,0,1,23,"[0, 15, 24, 17, 12, 10, 13, 19, 8, 23]",10,0,[],45.97859399,9931,1367,1,0,10,3.3397859539241304
basic,17,27,0,1,1,23,"[0, 15, 24, 17, 12, 10, 13, 19, 8, 23]",10,0,[],45.97859399,11429,1498,1,0,10,3.3397859539241304
basic,18,17,0,0,0,0,[0],1,28,"[1, 2, 3, 4, 5, 6, 7, 8, 9, 10, 11, 12, 13, 14, 15, 16, 17, 18, 19, 20, 22, 23, 24, 25, 26, 27, 28, 29]",300,145,-1,2,73,8,0.0
basic,18,17,0,0,0,9,"[0, 9]",2,25,"[1, 2, 3, 5, 6, 7, 8, 10, 11, 12, 14, 15, 16, 17, 18, 19, 20, 22, 23, 24, 25, 26, 27, 28, 29]",210.5293344,3813,3668,1,34,8,1.0
basic,18,17,0,0,0,16,"[0, 9, 16]",3,21,"[1, 2, 3, 5, 7, 8, 10, 11, 12, 14, 17, 18, 19, 20, 22, 23, 25, 26, 27, 28, 29]",197.1876704,4207,394,1,26,8,1.173103464220352
basic,18,17,0,0,0,2,"[0, 9, 16, 2]",4,18,"[1, 3, 5, 7, 8, 10, 11, 12, 14, 17, 18, 19, 23, 25, 26, 27, 28, 29]",181.0631549,4617,410,1,23,8,1.14825089247282
basic,18,17,0,0,0,17,"[0, 9, 16, 2, 17]",5,7,"[7, 8, 12, 14, 26, 27, 29]",142.7356191,6444,1827,4,5,7,1.4896040699768547
basic,18,17,0,0,0,8,"[0, 9, 16, 2, 17, 8]",6,3,"[7, 12, 27]",104.5256727,7031,587,3,0,7,1.4604726966175894
basic,18,17,0,0,1,7,"[0, 9, 16, 2, 17, 8, 7]",7,0,[],33.81499459,7710,679,1,0,7,1.4474701869793896
basic,18,17,0,1,1,7,"[0, 9, 16, 2, 17, 8, 7]",7,0,[],33.81499459,8322,612,1,0,7,1.4474701869793896
basic,19,31,0,0,0,0,[0],1,27,"[1, 3, 4, 5, 6, 7, 8, 10, 11, 12, 13, 14, 15, 16, 17, 18, 19, 20, 21, 22, 23, 24, 25, 26, 27, 28, 29]",300,146,-1,2,87,10,0.0
basic,19,31,0,0,0,14,"[0, 14]",2,25,"[1, 3, 5, 6, 7, 8, 10, 11, 12, 13, 15, 16, 17, 18, 19, 20, 21, 22, 23, 24, 25, 26, 27, 28, 29]",263.861378,4301,4155,2,59,10,1.0
basic,19,31,0,0,0,27,"[0, 14, 27]",3,22,"[1, 3, 5, 6, 7, 8, 10, 11, 12, 13, 15, 16, 17, 18, 19, 20, 21, 22, 24, 25, 28, 29]",235.6833724,4751,450,1,39,10,1.5881859159302467
basic,19,31,0,0,0,8,"[0, 14, 27, 8]",4,20,"[1, 3, 5, 6, 7, 10, 11, 12, 13, 16, 17, 18, 19, 20, 21, 22, 24, 25, 28, 29]",224.6380114,5163,412,1,36,10,2.1665048452331277
basic,19,31,0,0,0,18,"[0, 14, 27, 8, 18]",5,15,"[1, 5, 6, 7, 11, 12, 13, 16, 17, 19, 20, 22, 25, 28, 29]",188.7911147,5860,697,1,26,10,1.7273375741920205
basic,19,31,0,0,0,17,"[0, 14, 27, 8, 18, 17]",6,13,"[1, 5, 6, 7, 11, 12, 13, 16, 19, 20, 22, 25, 28]",159.584951,6533,673,1,13,10,1.551192427769927
basic,19,31,0,0,0,11,"[0, 14, 27, 8, 18, 17, 11]",7,7,"[5, 12, 16, 19, 22, 25, 28]",118.4753414,7003,470,1,4,10,2.9650760544203494
basic,19,31,0,0,0,5,"[0, 14, 27, 8, 18, 17, 11, 5]",8,2,"[16, 28]",74.79468207,7611,608,1,1,10,2.56711965625205
basic,19,31,0,0,0,28,"[0, 14, 27, 8, 18, 17, 11, 5, 28]",9,1,[16],54.57093365,8597,986,1,0,10,2.2865510762058148
basic,19,31,0,0,1,16,"[0, 14, 27, 8, 18, 17, 11, 5, 28, 16]",10,0,[],20.95546102,9415,818,1,0,10,2.089356850786318
basic,19,31,0,1,1,16,"[0, 14, 27, 8, 18, 17, 11, 5, 28, 16]",10,0,[],20.95546102,10670,1255,1,0,10,2.089356850786318
basic,20,0,0,0,0,0,[0],1,27,"[2, 3, 4, 5, 6, 7, 8, 9, 10, 11, 12, 13, 14, 15, 16, 17, 19, 20, 21, 22, 23, 24, 25, 26, 27, 28, 29]",300,131,-1,104,1136,9,0.0
basic,20,0,0,0,0,20,"[0, 20]",2,25,"[2, 3, 4, 5, 6, 7, 8, 9, 11, 12, 13, 14, 15, 16, 17, 19, 21, 22, 23, 24, 25, 26, 27, 28, 29]",215.4955622,4098,3967,36,372,9,1.0
basic,20,0,0,0,0,5,"[0, 20, 5]",3,22,"[2, 3, 4, 7, 8, 9, 11, 12, 13, 14, 15, 16, 17, 19, 21, 22, 23, 24, 25, 26, 28, 29]",153.2942761,5060,962,33,251,9,1.0828244018179105
basic,20,0,0,0,0,4,"[0, 20, 5, 4]",4,19,"[2, 3, 7, 8, 9, 11, 12, 13, 14, 15, 17, 19, 21, 22, 23, 24, 25, 26, 28]",128.2144037,6364,1304,21,127,9,1.0973859443611045
basic,20,0,0,0,0,26,"[0, 20, 5, 4, 26]",5,14,"[3, 7, 8, 9, 11, 12, 13, 14, 15, 17, 19, 23, 24, 28]",116.1728091,6692,328,9,63,9,1.1378617460104323
basic,20,0,0,0,0,24,"[0, 20, 5, 4, 26, 24]",6,11,"[3, 7, 8, 9, 11, 12, 15, 17, 19, 23, 28]",99.05556633,7398,706,9,24,9,1.204469953325506
basic,20,0,0,0,0,15,"[0, 20, 5, 4, 26, 24, 15]",7,8,"[3, 7, 8, 9, 11, 12, 17, 19]",75.71033127,8987,1589,5,6,9,1.1865351459643638
basic,20,0,0,0,0,7,"[0, 20, 5, 4, 26, 24, 15, 7]",8,2,"[3, 8]",44.64588214,11396,2409,2,0,9,1.2455705670301183
basic,20,0,0,0,1,8,"[0, 20, 5, 4, 26, 24, 15, 7, 8]",9,0,[],25.54090896,12259,863,1,0,9,1.2337265013393985
basic,20,0,0,1,1,8,"[0, 20, 5, 4, 26, 24, 15, 7, 8]",9,0,[],25.54090896,14803,2544,1,0,9,1.2337265013393985
basic,21,13,0,0,0,0,[0],1,29,"[1, 2, 3, 4, 5, 6, 7, 8, 9, 10, 11, 12, 13, 14, 15, 16, 17, 18, 19, 20, 21, 22, 23, 24, 25, 26, 27, 28, 29]",300,145,-1,60,2676,11,0.0
basic,21,13,0,0,0,24,"[0, 24]",2,28,"[1, 2, 3, 4, 5, 6, 7, 8, 9, 10, 11, 12, 13, 14, 15, 16, 17, 18, 19, 20, 21, 22, 23, 25, 26, 27, 28, 29]",288.8196601,2539,2394,16,1444,11,1.0
basic,21,13,0,0,0,28,"[0, 24, 28]",3,23,"[1, 2, 3, 4, 6, 7, 8, 9, 10, 11, 12, 13, 15, 16, 17, 19, 20, 21, 22, 23, 26, 27, 29]",222.5324064,4622,2083,8,243,11,1.0513810491680837
basic,21,13,0,0,0,2,"[0, 24, 28, 2]",4,19,"[1, 3, 4, 6, 7, 9, 11, 12, 13, 15, 16, 17, 19, 20, 21, 23, 26, 27, 29]",184.889346,5232,610,7,110,11,1.050374132001543
basic,21,13,0,0,0,29,"[0, 24, 28, 2, 29]",5,18,"[1, 3, 4, 6, 7, 9, 11, 12, 13, 15, 16, 17, 19, 20, 21, 23, 26, 27]",173.1846461,5853,621,7,85,11,1.1393409619120594
basic,21,13,0,0,0,7,"[0, 24, 28, 2, 29, 7]",6,17,"[1, 3, 4, 6, 9, 11, 12, 13, 15, 16, 17, 19, 20, 21, 23, 26, 27]",157.9203086,6342,489,5,45,11,1.349777315111579
basic,21,13,0,0,0,26,"[0, 24, 28, 2, 29, 7, 26]",7,16,"[1, 3, 4, 6, 9, 11, 12, 13, 15, 16, 17, 19, 20, 21, 23, 27]",147.480002,6892,550,5,25,11,1.5942082773824946
basic,21,13,0,0,0,6,"[0, 24, 28, 2, 29, 7, 26, 6]",8,12,"[1, 3, 4, 11, 13, 15, 16, 17, 19, 20, 23, 27]",127.3802508,7771,879,4,12,11,1.5898347940840756
basic,21,13,0,0,0,11,"[0, 24, 28, 2, 29, 7, 26, 6, 11]",9,6,"[1, 13, 15, 16, 17, 23]",108.2752776,8397,626,3,4,11,1.5029953945561012
basic,21,13,0,0,0,13,"[0, 24, 28, 2, 29, 7, 26, 6, 11, 13]",10,2,"[15, 17]",52.19497806,13207,4810,2,0,11,1.3655915863754327
basic,21,13,0,0,1,17,"[0, 24, 28, 2, 29, 7, 26, 6, 11, 13, 17]",11,0,[],18.81833952,14395,1188,1,0,11,1.4149038511024103
basic,21,13,0,1,1,17,"[0, 24, 28, 2, 29, 7, 26, 6, 11, 13, 17]",11,0,[],18.81833952,15311,916,1,0,11,1.4149038511024103
basic,22,14,0,0,0,0,[0],1,29,"[1, 2, 3, 4, 5, 6, 7, 8, 9, 10, 11, 12, 13, 14, 15, 16, 17, 18, 19, 20, 21, 22, 23, 24, 25, 26, 27, 28, 29]",300,172,-1,8,157,10,0.0
basic,22,14,0,0,0,15,"[0, 15]",2,20,"[1, 2, 3, 4, 7, 8, 9, 13, 17, 18, 19, 20, 21, 22, 23, 25, 26, 27, 28, 29]",216.7053423,7941,7769,8,102,10,1.0
basic,22,14,0,0,0,28,"[0, 15, 28]",3,17,"[1, 2, 3, 4, 7, 8, 9, 13, 17, 18, 19, 20, 22, 23, 25, 26, 27]",197.4959696,8459,518,8,48,10,1.0446007867311968
basic,22,14,0,0,0,17,"[0, 15, 28, 17]",4,14,"[1, 2, 3, 4, 7, 8, 13, 18, 19, 20, 22, 23, 25, 26]",184.0423455,9707,1248,8,39,10,1.0729463354689972
basic,22,14,0,0,0,18,"[0, 15, 28, 17, 18]",5,9,"[1, 2, 4, 7, 8, 19, 23, 25, 26]",119.412631,10805,1098,8,27,10,1.5035901079219378
basic,22,14,0,0,0,8,"[0, 15, 28, 17, 18, 8]",6,8,"[1, 2, 4, 7, 19, 23, 25, 26]",105.8111605,11397,592,8,18,10,1.4819689987843856
basic,22,14,0,0,0,19,"[0, 15, 28, 17, 18, 8, 19]",7,5,"[1, 7, 23, 25, 26]",85.19563238,12053,656,4,9,10,1.4526746797093781
basic,22,14,0,0,0,25,"[0, 15, 28, 17, 18, 8, 19, 25]",8,4,"[1, 7, 23, 26]",49.34873573,17950,5897,1,3,10,1.5313248571613565
basic,22,14,0,0,0,23,"[0, 15, 28, 17, 18, 8, 19, 25, 23]",9,1,[26],19.93785339,18629,679,1,0,10,1.4899241394052571
basic,22,14,0,0,1,26,"[0, 15, 28, 17, 18, 8, 19, 25, 23, 26]",10,0,[],9.12119956,19282,653,1,0,10,1.4661334152583665
basic,22,14,0,1,1,26,"[0, 15, 28, 17, 18, 8, 19, 25, 23, 26]",10,0,[],9.12119956,20433,1151,1,0,10,1.4661334152583665
undo,23,36,0,0,0,0,[0],1,24,"[2, 4, 5, 6, 7, 8, 9, 10, 12, 13, 14, 15, 16, 17, 18, 19, 20, 22, 23, 25, 26, 27, 28, 29]",300,146,-1,2,200,10,0.0
undo,23,36,0,0,0,12,"[0, 12]",2,23,"[2, 4, 5, 6, 7, 8, 9, 10, 13, 14, 15, 16, 17, 18, 19, 20, 22, 23, 25, 26, 27, 28, 29]",277.7963967,6184,6038,90,804,9,1.0
undo,23,36,0,0,0,9,"[0, 12, 9]",3,14,"[2, 4, 8, 10, 13, 16, 17, 18, 19, 23, 25, 27, 28, 29]",215.4345494,6890,706,32,191,9,1.224429481246385
undo,23,36,0,0,0,16,"[0, 12, 9, 16]",4,8,"[2, 10, 13, 17, 18, 19, 23, 25]",168.137615,8371,1481,7,26,9,1.235383731443557
undo,23,36,0,0,0,17,"[0, 12, 9, 16, 17]",5,6,"[2, 10, 13, 18, 19, 25]",139.8180105,9552,1181,7,14,9,1.6947865799475665
undo,23,36,0,0,0,19,"[0, 12, 9, 16, 17, 19]",6,5,"[2, 10, 13, 18, 25]",111.9253591,10096,544,6,1,9,2.440059772477113
undo,23,36,0,0,0,2,"[0, 12, 9, 16, 17, 19, 2]",7,2,"[13, 25]",74.80393675,11968,1872,2,0,9,1.994135267441798
undo,23,36,0,0,0,25,"[0, 12, 9, 16, 17, 19, 2, 25]",8,1,[13],49.80393675,12494,526,1,0,9,2.1853059870598197
undo,23,36,0,0,1,13,"[0, 12, 9, 16, 17, 19, 2, 25, 13]",9,0,[],29.21267647,13212,718,1,0,9,2.7608371719978186
undo,23,36,1,0,0,25,"[0, 12, 9, 16, 17, 19, 2, 25]",8,1,[13],49.80393675,14445,1233,1,0,9,2.1853059870598197
undo,23,36,1,0,0,2,"[0, 12, 9, 16, 17, 19, 2]",7,2,"[13, 25]",74.80393675,14631,186,2,0,9,1.994135267441798
undo,23,36,1,0,0,19,"[0, 12, 9, 16, 17, 19]",6,5,"[2, 10, 13, 18, 25]",111.9253591,14805,174,6,1,9,2.440059772477113
undo,23,36,1,0,0,17,"[0, 12, 9, 16, 17]",5,6,"[2, 10, 13, 18, 19, 25]",139.8180105,14965,160,7,14,9,1.6947865799475665
undo,23,36,1,0,0,16,"[0, 12, 9, 16]",4,8,"[2, 10, 13, 17, 18, 19, 23, 25]",168.137615,15151,186,7,26,9,1.235383731443557
undo,23,36,1,0,0,9,"[0, 12, 9]",3,14,"[2, 4, 8, 10, 13, 16, 17, 18, 19, 23, 25, 27, 28, 29]",215.4345494,15325,174,32,191,9,1.224429481246385
undo,23,36,1,0,0,12,"[0, 12]",2,23,"[2, 4, 5, 6, 7, 8, 9, 10, 13, 14, 15, 16, 17, 18, 19, 20, 22, 23, 25, 26, 27, 28, 29]",277.7963967,15485,160,90,804,9,1.0
undo,23,36,1,0,0,0,[0],1,24,"[2, 4, 5, 6, 7, 8, 9, 10, 12, 13, 14, 15, 16, 17, 18, 19, 20, 22, 23, 25, 26, 27, 28, 29]",300,15658,173,2,200,10,0.0
undo,23,36,0,0,0,18,"[0, 18]",2,21,"[2, 4, 5, 6, 7, 8, 9, 10, 12, 13, 14, 16, 17, 19, 22, 23, 25, 26, 27, 28, 29]",279.6039219,17414,1756,2,110,10,1.0
undo,23,36,0,0,0,12,"[0, 18, 12]",3,19,"[2, 4, 5, 6, 7, 8, 9, 10, 13, 16, 17, 19, 22, 23, 25, 26, 27, 28, 29]",237.0245842,17941,527,2,86,10,2.836270082716982
undo,23,36,0,0,0,9,"[0, 18, 12, 9]",4,9,"[2, 4, 10, 13, 16, 17, 19, 23, 25]",174.6627369,18902,961,1,40,10,1.8147676024843966
undo,23,36,0,0,0,19,"[0, 18, 12, 9, 19]",5,8,"[2, 4, 10, 13, 16, 17, 23, 25]",159.529991,19244,342,1,19,10,1.8224424970862618
undo,23,36,0,0,0,16,"[0, 18, 12, 9, 19, 16]",6,4,"[2, 13, 17, 25]",104.9406147,21183,1939,1,3,9,1.8274596752136745
undo,23,36,0,0,0,17,"[0, 18, 12, 9, 19, 16, 17]",7,3,"[2, 13, 25]",76.6210102,21566,383,1,2,9,2.363434961302465
undo,23,36,0,0,0,2,"[0, 18, 12, 9, 19, 16, 17, 2]",8,1,[25],35.38995394,22228,662,1,0,9,2.343150308013409
undo,23,36,0,0,1,25,"[0, 18, 12, 9, 19, 16, 17, 2, 25]",9,0,[],10.38995394,22703,475,1,0,9,2.5295624533276433
undo,23,36,1,0,0,2,"[0, 18, 12, 9, 19, 16, 17, 2]",8,1,[25],35.38995394,24382,1679,1,0,9,2.343150308013409
undo,23,36,1,0,0,17,"[0, 18, 12, 9, 19, 16, 17]",7,3,"[2, 13, 25]",76.6210102,24542,160,1,2,9,2.363434961302465
undo,23,36,1,0,0,16,"[0, 18, 12, 9, 19, 16]",6,4,"[2, 13, 17, 25]",104.9406147,24728,186,1,3,9,1.8274596752136745
undo,23,36,1,0,0,19,"[0, 18, 12, 9, 19]",5,8,"[2, 4, 10, 13, 16, 17, 23, 25]",159.529991,24902,174,1,19,10,1.8224424970862618
undo,23,36,1,0,0,9,"[0, 18, 12, 9]",4,9,"[2, 4, 10, 13, 16, 17, 19, 23, 25]",174.6627369,25089,187,1,40,10,1.8147676024843966
undo,23,36,1,0,0,12,"[0, 18, 12]",3,19,"[2, 4, 5, 6, 7, 8, 9, 10, 13, 16, 17, 19, 22, 23, 25, 26, 27, 28, 29]",237.0245842,25275,186,2,86,10,2.836270082716982
undo,23,36,1,0,0,18,"[0, 18]",2,21,"[2, 4, 5, 6, 7, 8, 9, 10, 12, 13, 14, 16, 17, 19, 22, 23, 25, 26, 27, 28, 29]",279.6039219,25462,187,2,110,10,1.0
undo,23,36,1,0,0,0,[0],1,24,"[2, 4, 5, 6, 7, 8, 9, 10, 12, 13, 14, 15, 16, 17, 18, 19, 20, 22, 23, 25, 26, 27, 28, 29]",300,26209,747,2,200,10,0.0
undo,23,36,0,0,0,12,"[0, 12]",2,23,"[2, 4, 5, 6, 7, 8, 9, 10, 13, 14, 15, 16, 17, 18, 19, 20, 22, 23, 25, 26, 27, 28, 29]",277.7963967,27467,1258,90,804,9,1.0
undo,23,36,0,0,0,23,"[0, 12, 23]",3,18,"[2, 4, 5, 6, 7, 9, 10, 13, 14, 16, 17, 18, 19, 22, 25, 26, 28, 29]",217.6299609,28082,615,33,68,7,1.343843436819112
undo,23,36,0,0,0,28,"[0, 12, 23, 28]",4,6,"[5, 6, 7, 14, 22, 26]",115.0970393,29200,1118,1,6,7,1.1952878801390319
undo,23,36,0,0,0,26,"[0, 12, 23, 28, 26]",5,5,"[5, 6, 7, 14, 22]",68.13961179,30500,1300,1,4,7,1.1838706188052548
undo,23,36,0,0,0,7,"[0, 12, 23, 28, 26, 7]",6,1,[22],27.97744054,31138,638,1,0,7,1.280024668378619
undo,23,36,0,0,1,22,"[0, 12, 23, 28, 26, 7, 22]",7,0,[],9.003774576,32174,1036,1,0,7,1.3072179341133348
undo,23,36,1,0,0,7,"[0, 12, 23, 28, 26, 7]",6,1,[22],27.97744054,32865,691,1,0,7,1.280024668378619
undo,23,36,1,0,0,26,"[0, 12, 23, 28, 26]",5,5,"[5, 6, 7, 14, 22]",68.13961179,33078,213,1,4,7,1.1838706188052548
undo,23,36,1,0,0,28,"[0, 12, 23, 28]",4,6,"[5, 6, 7, 14, 22, 26]",115.0970393,33251,173,1,6,7,1.1952878801390319
undo,23,36,1,0,0,23,"[0, 12, 23]",3,18,"[2, 4, 5, 6, 7, 9, 10, 13, 14, 16, 17, 18, 19, 22, 25, 26, 28, 29]",217.6299609,33412,161,33,68,7,1.343843436819112
undo,23,36,1,0,0,12,"[0, 12]",2,23,"[2, 4, 5, 6, 7, 8, 9, 10, 13, 14, 15, 16, 17, 18, 19, 20, 22, 23, 25, 26, 27, 28, 29]",277.7963967,33585,173,90,804,9,1.0
undo,23,36,1,0,0,0,[0],1,24,"[2, 4, 5, 6, 7, 8, 9, 10, 12, 13, 14, 15, 16, 17, 18, 19, 20, 22, 23, 25, 26, 27, 28, 29]",300,33758,173,2,200,10,0.0
undo,23,36,0,0,0,12,"[0, 12]",2,23,"[2, 4, 5, 6, 7, 8, 9, 10, 13, 14, 15, 16, 17, 18, 19, 20, 22, 23, 25, 26, 27, 28, 29]",277.7963967,35036,1278,90,804,9,1.0
undo,23,36,0,0,0,9,"[0, 12, 9]",3,14,"[2, 4, 8, 10, 13, 16, 17, 18, 19, 23, 25, 27, 28, 29]",215.4345494,36204,1168,32,191,9,1.224429481246385
undo,23,36,0,0,0,16,"[0, 12, 9, 16]",4,8,"[2, 10, 13, 17, 18, 19, 23, 25]",168.137615,36898,694,7,26,9,1.235383731443557
undo,23,36,0,0,0,17,"[0, 12, 9, 16, 17]",5,6,"[2, 10, 13, 18, 19, 25]",139.8180105,37324,426,7,14,9,1.6947865799475665
undo,23,36,0,0,0,19,"[0, 12, 9, 16, 17, 19]",6,5,"[2, 10, 13, 18, 25]",111.9253591,37748,424,6,1,9,2.440059772477113
undo,23,36,0,0,0,2,"[0, 12, 9, 16, 17, 19, 2]",7,2,"[13, 25]",74.80393675,38252,504,2,0,9,1.994135267441798
undo,23,36,0,0,0,25,"[0, 12, 9, 16, 17, 19, 2, 25]",8,1,[13],49.80393675,39372,1120,1,0,9,2.1853059870598197
undo,23,36,0,0,1,13,"[0, 12, 9, 16, 17, 19, 2, 25, 13]",9,0,[],29.21267647,39670,298,1,0,9,2.7608371719978186
undo,23,36,0,1,1,13,"[0, 12, 9, 16, 17, 19, 2, 25, 13]",9,0,[],29.21267647,42348,2678,1,0,9,2.7608371719978186
undo,24,30,0,0,0,0,[0],1,19,"[3, 4, 5, 7, 9, 11, 16, 17, 18, 19, 20, 21, 22, 24, 25, 26, 27, 28, 29]",300,143,-1,5,41,8,0.0
undo,24,30,0,0,0,16,"[0, 16]",2,17,"[3, 5, 7, 9, 11, 17, 18, 19, 20, 21, 22, 24, 25, 26, 27, 28, 29]",219.3774225,3276,3133,5,34,8,1.0
undo,24,30,0,0,0,25,"[0, 16, 25]",3,10,"[3, 5, 7, 9, 11, 18, 19, 20, 27, 29]",115.0845656,5467,2191,5,28,8,1.0336279544884488
undo,24,30,0,0,0,20,"[0, 16, 25, 20]",4,8,"[3, 5, 7, 9, 18, 19, 27, 29]",93.15285342,5837,370,4,14,8,1.0337964627284246
undo,24,30,0,0,0,27,"[0, 16, 25, 20, 27]",5,4,"[3, 5, 18, 29]",59.09408069,6340,503,4,6,8,1.1504365534848
undo,24,30,0,0,0,3,"[0, 16, 25, 20, 27, 3]",6,3,"[5, 18, 29]",39.98910751,6731,391,4,0,8,1.1403876826835333
undo,24,30,0,0,0,5,"[0, 16, 25, 20, 27, 3, 5]",7,1,[18],15.14962282,8125,1394,1,0,8,1.1779731652786363
undo,24,30,0,0,1,18,"[0, 16, 25, 20, 27, 3, 5, 18]",8,0,[],2.111218006,8457,332,1,0,8,1.2196271502012654
undo,24,30,1,0,0,5,"[0, 16, 25, 20, 27, 3, 5]",7,1,[18],15.14962282,9719,1262,1,0,8,1.1779731652786363
undo,24,30,1,0,0,3,"[0, 16, 25, 20, 27, 3]",6,3,"[5, 18, 29]",39.98910751,9906,187,4,0,8,1.1403876826835333
undo,24,30,1,0,0,27,"[0, 16, 25, 20, 27]",5,4,"[3, 5, 18, 29]",59.09408069,10079,173,4,6,8,1.1504365534848
undo,24,30,1,0,0,20,"[0, 16, 25, 20]",4,8,"[3, 5, 7, 9, 18, 19, 27, 29]",93.15285342,10266,187,4,14,8,1.0337964627284246
undo,24,30,1,0,0,25,"[0, 16, 25]",3,10,"[3, 5, 7, 9, 11, 18, 19, 20, 27, 29]",115.0845656,10439,173,5,28,8,1.0336279544884488
undo,24,30,0,0,0,27,"[0, 16, 25, 27]",4,7,"[3, 5, 7, 18, 19, 20, 29]",75.52448473,11602,1163,1,12,8,1.0719738181137488
undo,24,30,0,0,0,3,"[0, 16, 25, 27, 3]",5,5,"[5, 7, 18, 20, 29]",56.41951155,12082,480,1,4,8,1.0683252001879187
undo,24,30,0,0,0,18,"[0, 16, 25, 27, 3, 18]",6,2,"[5, 29]",38.17122396,13456,1374,2,0,7,1.071988954484303
undo,24,30,0,0,1,5,"[0, 16, 25, 27, 3, 18, 5]",7,0,[],25.13281915,13865,409,1,0,7,1.1366885529959678
undo,24,30,1,0,0,18,"[0, 16, 25, 27, 3, 18]",6,2,"[5, 29]",38.17122396,15254,1389,2,0,7,1.071988954484303
undo,24,30,1,0,0,3,"[0, 16, 25, 27, 3]",5,5,"[5, 7, 18, 20, 29]",56.41951155,15441,187,1,4,8,1.0683252001879187
undo,24,30,0,0,0,29,"[0, 16, 25, 27, 3, 29]",6,2,"[5, 18]",37.81843632,16129,688,1,1,8,1.0768958290478794
undo,24,30,0,0,0,18,"[0, 16, 25, 27, 3, 29, 18]",7,1,[5],18.5052284,16433,304,1,0,8,1.1525061930327378
undo,24,30,0,0,1,5,"[0, 16, 25, 27, 3, 29, 18, 5]",8,0,[],5.466823591,16765,332,1,0,8,1.2180155123152177
undo,24,30,1,0,0,18,"[0, 16, 25, 27, 3, 29, 18]",7,1,[5],18.5052284,17776,1011,1,0,8,1.1525061930327378
undo,24,30,1,0,0,29,"[0, 16, 25, 27, 3, 29]",6,2,"[5, 18]",37.81843632,17962,186,1,1,8,1.0768958290478794
undo,24,30,1,0,0,3,"[0, 16, 25, 27, 3]",5,5,"[5, 7, 18, 20, 29]",56.41951155,18162,200,1,4,8,1.0683252001879187
undo,24,30,1,0,0,27,"[0, 16, 25, 27]",4,7,"[3, 5, 7, 18, 19, 20, 29]",75.52448473,18362,200,1,12,8,1.0719738181137488
undo,24,30,1,0,0,25,"[0, 16, 25]",3,10,"[3, 5, 7, 9, 11, 18, 19, 20, 27, 29]",115.0845656,18562,200,5,28,8,1.0336279544884488
undo,24,30,1,0,0,16,"[0, 16]",2,17,"[3, 5, 7, 9, 11, 17, 18, 19, 20, 21, 22, 24, 25, 26, 27, 28, 29]",219.3774225,18976,414,5,34,8,1.0
undo,24,30,1,0,0,0,[0],1,19,"[3, 4, 5, 7, 9, 11, 16, 17, 18, 19, 20, 21, 22, 24, 25, 26, 27, 28, 29]",300,19336,360,5,41,8,0.0
undo,24,30,0,0,0,27,"[0, 27]",2,10,"[3, 5, 7, 9, 18, 19, 20, 24, 25, 29]",90.59608409,20855,1519,7,22,6,1.0
undo,24,30,0,0,0,3,"[0, 27, 3]",3,8,"[5, 7, 18, 19, 20, 24, 25, 29]",71.49111091,21185,330,5,9,6,1.0022223300201003
undo,24,30,0,0,0,5,"[0, 27, 3, 5]",4,4,"[7, 18, 24, 29]",46.65162621,21886,701,1,3,6,1.047699458031665
undo,24,30,0,0,0,18,"[0, 27, 3, 5, 18]",5,1,[29],33.6132214,22195,309,1,0,6,1.0906504953306948
undo,24,30,0,0,1,29,"[0, 27, 3, 5, 18, 29]",6,0,[],14.30001349,24641,2446,1,0,6,1.1734964103241567
undo,24,30,1,0,0,18,"[0, 27, 3, 5, 18]",5,1,[29],33.6132214,25178,537,1,0,6,1.0906504953306948
undo,24,30,1,0,0,5,"[0, 27, 3, 5]",4,4,"[7, 18, 24, 29]",46.65162621,25392,214,1,3,6,1.047699458031665
undo,24,30,1,0,0,3,"[0, 27, 3]",3,8,"[5, 7, 18, 19, 20, 24, 25, 29]",71.49111091,25592,200,5,9,6,1.0022223300201003
undo,24,30,1,0,0,27,"[0, 27]",2,10,"[3, 5, 7, 9, 18, 19, 20, 24, 25, 29]",90.59608409,25792,200,7,22,6,1.0
undo,24,30,1,0,0,0,[0],1,19,"[3, 4, 5, 7, 9, 11, 16, 17, 18, 19, 20, 21, 22, 24, 25, 26, 27, 28, 29]",300,25979,187,5,41,8,0.0
undo,24,30,0,0,0,16,"[0, 16]",2,17,"[3, 5, 7, 9, 11, 17, 18, 19, 20, 21, 22, 24, 25, 26, 27, 28, 29]",219.3774225,28095,2116,5,34,8,1.0
undo,24,30,0,0,0,25,"[0, 16, 25]",3,10,"[3, 5, 7, 9, 11, 18, 19, 20, 27, 29]",115.0845656,28935,840,5,28,8,1.0336279544884488
undo,24,30,0,0,0,27,"[0, 16, 25, 27]",4,7,"[3, 5, 7, 18, 19, 20, 29]",75.52448473,29787,852,1,12,8,1.0719738181137488
undo,24,30,0,0,0,3,"[0, 16, 25, 27, 3]",5,5,"[5, 7, 18, 20, 29]",56.41951155,30262,475,1,4,8,1.0683252001879187
undo,24,30,0,0,0,29,"[0, 16, 25, 27, 3, 29]",6,2,"[5, 18]",37.81843632,30974,712,1,1,8,1.0768958290478794
undo,24,30,0,0,0,18,"[0, 16, 25, 27, 3, 29, 18]",7,1,[5],18.5052284,32499,1525,1,0,8,1.1525061930327378
undo,24,30,0,0,1,5,"[0, 16, 25, 27, 3, 29, 18, 5]",8,0,[],5.466823591,32930,431,1,0,8,1.2180155123152177
undo,24,30,0,1,1,5,"[0, 16, 25, 27, 3, 29, 18, 5]",8,0,[],5.466823591,34408,1478,1,0,8,1.2180155123152177
undo,25,18,0,0,0,0,[0],1,28,"[1, 2, 3, 4, 5, 6, 7, 8, 9, 10, 11, 12, 13, 14, 16, 17, 18, 19, 20, 21, 22, 23, 24, 25, 26, 27, 28, 29]",300,131,-1,3,136,10,0.0
undo,25,18,0,0,0,28,"[0, 28]",2,16,"[1, 3, 5, 7, 8, 9, 12, 13, 14, 16, 20, 23, 24, 25, 26, 27]",236.4311397,1899,1768,2,19,10,1.0
undo,25,18,0,0,0,7,"[0, 28, 7]",3,15,"[1, 3, 5, 8, 9, 12, 13, 14, 16, 20, 23, 24, 25, 26, 27]",214.4084242,2631,732,2,17,10,1.4345180696367563
undo,25,18,0,0,0,25,"[0, 28, 7, 25]",4,13,"[1, 3, 5, 8, 9, 12, 13, 14, 16, 20, 23, 26, 27]",186.6055466,3014,383,2,15,10,1.8896451241781882
undo,25,18,0,0,0,8,"[0, 28, 7, 25, 8]",5,10,"[3, 5, 9, 12, 13, 14, 16, 23, 26, 27]",149.551532,4849,1835,2,10,10,1.590467437592877
undo,25,18,0,0,0,3,"[0, 28, 7, 25, 8, 3]",6,6,"[5, 12, 13, 14, 23, 27]",121.4801943,5331,482,1,10,9,1.4587755974793148
undo,25,18,0,0,0,14,"[0, 28, 7, 25, 8, 3, 14]",7,4,"[5, 12, 13, 27]",91.39697637,5872,541,4,0,8,1.8606737724243565
undo,25,18,0,0,1,13,"[0, 28, 7, 25, 8, 3, 14, 13]",8,0,[],72.42331041,6259,387,1,0,8,2.4208916262893254
undo,25,18,1,0,0,14,"[0, 28, 7, 25, 8, 3, 14]",7,4,"[5, 12, 13, 27]",91.39697637,9481,3222,4,0,8,1.8606737724243565
undo,25,18,1,0,0,3,"[0, 28, 7, 25, 8, 3]",6,6,"[5, 12, 13, 14, 23, 27]",121.4801943,9694,213,1,10,9,1.4587755974793148
undo,25,18,1,0,0,8,"[0, 28, 7, 25, 8]",5,10,"[3, 5, 9, 12, 13, 14, 16, 23, 26, 27]",149.551532,9894,200,2,10,10,1.590467437592877
undo,25,18,1,0,0,25,"[0, 28, 7, 25]",4,13,"[1, 3, 5, 8, 9, 12, 13, 14, 16, 20, 23, 26, 27]",186.6055466,10121,227,2,15,10,1.8896451241781882
undo,25,18,1,0,0,7,"[0, 28, 7]",3,15,"[1, 3, 5, 8, 9, 12, 13, 14, 16, 20, 23, 24, 25, 26, 27]",214.4084242,10401,280,2,17,10,1.4345180696367563
undo,25,18,1,0,0,28,"[0, 28]",2,16,"[1, 3, 5, 7, 8, 9, 12, 13, 14, 16, 20, 23, 24, 25, 26, 27]",236.4311397,10655,254,2,19,10,1.0
undo,25,18,1,0,0,0,[0],1,28,"[1, 2, 3, 4, 5, 6, 7, 8, 9, 10, 11, 12, 13, 14, 16, 17, 18, 19, 20, 21, 22, 23, 24, 25, 26, 27, 28, 29]",300,11095,440,3,136,10,0.0
undo,25,18,0,0,0,7,"[0, 7]",2,20,"[1, 3, 4, 5, 8, 9, 12, 13, 14, 16, 18, 19, 20, 21, 23, 24, 25, 26, 27, 28]",240.3342644,14173,3078,24,182,9,1.0
undo,25,18,0,0,0,25,"[0, 7, 25]",3,17,"[1, 3, 5, 8, 9, 12, 13, 14, 16, 18, 19, 20, 23, 24, 26, 27, 28]",212.5313869,15399,1226,18,95,9,1.4576077868641448
undo,25,18,0,0,0,8,"[0, 7, 25, 8]",4,12,"[1, 3, 5, 9, 12, 13, 14, 16, 23, 26, 27, 28]",175.4773723,16540,1141,10,47,9,1.316392165590884
undo,25,18,0,0,0,3,"[0, 7, 25, 8, 3]",5,9,"[5, 9, 12, 13, 14, 23, 26, 27, 28]",147.4060346,18033,1493,2,19,9,1.2469224474857408
undo,25,18,0,0,0,5,"[0, 7, 25, 8, 3, 5]",6,3,"[12, 14, 27]",89.22528174,19523,1490,1,2,8,1.1792803748303147
undo,25,18,0,0,0,12,"[0, 7, 25, 8, 3, 5, 12]",7,1,[27],77.82352749,19854,331,1,0,8,1.1974602139684556
undo,25,18,0,0,1,27,"[0, 7, 25, 8, 3, 5, 12, 27]",8,0,[],37.10498134,20548,694,1,0,8,1.3333934824732907
undo,25,18,1,0,0,12,"[0, 7, 25, 8, 3, 5, 12]",7,1,[27],77.82352749,21792,1244,1,0,8,1.1974602139684556
undo,25,18,1,0,0,5,"[0, 7, 25, 8, 3, 5]",6,3,"[12, 14, 27]",89.22528174,21992,200,1,2,8,1.1792803748303147
undo,25,18,1,0,0,3,"[0, 7, 25, 8, 3]",5,9,"[5, 9, 12, 13, 14, 23, 26, 27, 28]",147.4060346,22486,494,2,19,9,1.2469224474857408
undo,25,18,0,0,0,14,"[0, 7, 25, 8, 3, 14]",6,8,"[5, 9, 12, 13, 23, 26, 27, 28]",117.3228167,24336,1850,1,8,9,1.6294233797375501
undo,25,18,0,0,0,13,"[0, 7, 25, 8, 3, 14, 13]",7,6,"[5, 9, 12, 23, 26, 28]",98.34915069,24672,336,1,5,9,2.145100420470132
undo,25,18,0,0,0,23,"[0, 7, 25, 8, 3, 14, 13, 23]",8,1,[26],21.79198251,25356,684,1,0,9,7.2414654464974015
undo,25,18,0,0,1,26,"[0, 7, 25, 8, 3, 14, 13, 23, 26]",9,0,[],3.190907274,25924,568,1,0,9,7.070892739563406
undo,25,18,0,1,1,26,"[0, 7, 25, 8, 3, 14, 13, 23, 26]",9,0,[],3.190907274,27955,2031,1,0,9,7.070892739563406
undo,26,3,0,0,0,0,[0],1,29,"[1, 2, 3, 4, 5, 6, 7, 8, 9, 10, 11, 12, 13, 14, 15, 16, 17, 18, 19, 20, 21, 22, 23, 24, 25, 26, 27, 28, 29]",300,130,-1,34,427,10,0.0
undo,26,3,0,0,0,7,"[0, 7]",2,28,"[1, 2, 3, 4, 5, 6, 8, 9, 10, 11, 12, 13, 14, 15, 16, 17, 18, 19, 20, 21, 22, 23, 24, 25, 26, 27, 28, 29]",278.8103799,3016,2886,24,215,10,1.0
undo,26,3,0,0,0,8,"[0, 7, 8]",3,24,"[1, 2, 3, 4, 5, 6, 10, 11, 12, 13, 14, 15, 16, 17, 18, 19, 20, 21, 22, 24, 25, 26, 27, 28]",222.837172,3626,610,16,114,10,1.2853332575451413
undo,26,3,0,0,0,24,"[0, 7, 8, 24]",4,21,"[1, 3, 4, 5, 6, 10, 11, 12, 14, 15, 16, 17, 18, 19, 20, 21, 22, 25, 26, 27, 28]",210.671647,3870,244,16,91,10,1.5177505014936548
undo,26,3,0,0,0,17,"[0, 7, 8, 24, 17]",5,9,"[3, 4, 10, 14, 15, 16, 19, 20, 21]",141.3174834,4604,734,7,26,10,1.5510961300062232
undo,26,3,0,0,0,20,"[0, 7, 8, 24, 17, 20]",6,7,"[3, 4, 10, 14, 16, 19, 21]",128.6683728,4920,316,7,14,10,1.5133082717474817
undo,26,3,0,0,0,3,"[0, 7, 8, 24, 17, 20, 3]",7,5,"[4, 10, 14, 19, 21]",108.2722947,5294,374,7,4,10,1.5325960555943097
undo,26,3,0,0,0,19,"[0, 7, 8, 24, 17, 20, 3, 19]",8,3,"[10, 14, 21]",70.93598532,6014,720,3,1,10,1.5521294182529992
undo,26,3,0,0,0,21,"[0, 7, 8, 24, 17, 20, 3, 19, 21]",9,2,"[10, 14]",58.72942971,6298,284,2,0,10,1.5690424431931145
undo,26,3,0,0,1,14,"[0, 7, 8, 24, 17, 20, 3, 19, 21, 14]",10,0,[],31.82218161,6766,468,1,0,10,2.0836613372745463
undo,26,3,0,1,1,14,"[0, 7, 8, 24, 17, 20, 3, 19, 21, 14]",10,0,[],31.82218161,9239,2473,1,0,10,2.0836613372745463
undo,27,26,0,0,0,0,[0],1,29,"[1, 2, 3, 4, 5, 6, 7, 8, 9, 10, 11, 12, 13, 14, 15, 16, 17, 18, 19, 20, 21, 22, 23, 24, 25, 26, 27, 28, 29]",300,132,-1,9,226,9,0.0
undo,27,26,0,0,0,21,"[0, 21]",2,25,"[2, 3, 4, 5, 6, 7, 8, 10, 11, 12, 13, 14, 15, 16, 17, 18, 19, 22, 23, 24, 25, 26, 27, 28, 29]",211.1349337,1704,1572,7,90,9,1.0
undo,27,26,0,0,0,13,"[0, 21, 13]",3,21,"[3, 4, 5, 6, 7, 8, 10, 11, 12, 14, 15, 16, 17, 18, 19, 22, 23, 24, 25, 26, 29]",188.9989901,2276,572,6,45,9,1.0103952279992225
undo,27,26,1,0,0,21,"[0, 21]",2,25,"[2, 3, 4, 5, 6, 7, 8, 10, 11, 12, 13, 14, 15, 16, 17, 18, 19, 22, 23, 24, 25, 26, 27, 28, 29]",211.1349337,4013,1737,7,90,9,1.0
undo,27,26,1,0,0,0,[0],1,29,"[1, 2, 3, 4, 5, 6, 7, 8, 9, 10, 11, 12, 13, 14, 15, 16, 17, 18, 19, 20, 21, 22, 23, 24, 25, 26, 27, 28, 29]",300,4240,227,9,226,9,0.0
undo,27,26,0,0,0,16,"[0, 16]",2,17,"[3, 4, 5, 6, 10, 11, 12, 13, 14, 17, 18, 19, 21, 22, 23, 26, 29]",188.0535842,5720,1480,34,176,8,1.0
undo,27,26,0,0,0,29,"[0, 16, 29]",3,12,"[4, 5, 6, 10, 12, 13, 14, 17, 19, 21, 23, 26]",163.8461474,6325,605,32,68,8,1.1142946124989752
undo,27,26,0,0,0,4,"[0, 16, 29, 4]",4,9,"[5, 6, 10, 12, 13, 14, 17, 21, 23]",139.8461474,7386,1061,17,7,8,1.3213762371676339
undo,27,26,0,0,0,17,"[0, 16, 29, 4, 17]",5,5,"[6, 10, 14, 21, 23]",118.7511243,8272,886,6,0,8,1.2756100061290643
undo,27,26,0,0,0,10,"[0, 16, 29, 4, 17, 10]",6,2,"[6, 14]",78.2542108,8904,632,2,0,8,1.3703423905176408
undo,27,26,0,0,0,6,"[0, 16, 29, 4, 17, 10, 6]",7,1,[14],48.97964846,10140,1236,1,0,8,1.5629056072988359
undo,27,26,0,0,1,14,"[0, 16, 29, 4, 17, 10, 6, 14]",8,0,[],27.95585242,11299,1159,1,0,8,1.6881203787841719
undo,27,26,1,0,0,6,"[0, 16, 29, 4, 17, 10, 6]",7,1,[14],48.97964846,12457,1158,1,0,8,1.5629056072988359
undo,27,26,1,0,0,10,"[0, 16, 29, 4, 17, 10]",6,2,"[6, 14]",78.2542108,12630,173,2,0,8,1.3703423905176408
undo,27,26,1,0,0,17,"[0, 16, 29, 4, 17]",5,5,"[6, 10, 14, 21, 23]",118.7511243,12830,200,6,0,8,1.2756100061290643
undo,27,26,1,0,0,4,"[0, 16, 29, 4]",4,9,"[5, 6, 10, 12, 13, 14, 17, 21, 23]",139.8461474,13017,187,17,7,8,1.3213762371676339
undo,27,26,1,0,0,29,"[0, 16, 29]",3,12,"[4, 5, 6, 10, 12, 13, 14, 17, 19, 21, 23, 26]",163.8461474,13190,173,32,68,8,1.1142946124989752
undo,27,26,1,0,0,16,"[0, 16]",2,17,"[3, 4, 5, 6, 10, 11, 12, 13, 14, 17, 18, 19, 21, 22, 23, 26, 29]",188.0535842,13377,187,34,176,8,1.0
undo,27,26,1,0,0,0,[0],1,29,"[1, 2, 3, 4, 5, 6, 7, 8, 9, 10, 11, 12, 13, 14, 15, 16, 17, 18, 19, 20, 21, 22, 23, 24, 25, 26, 27, 28, 29]",300,13564,187,9,226,9,0.0
undo,27,26,0,0,0,21,"[0, 21]",2,25,"[2, 3, 4, 5, 6, 7, 8, 10, 11, 12, 13, 14, 15, 16, 17, 18, 19, 22, 23, 24, 25, 26, 27, 28, 29]",211.1349337,14900,1336,7,90,9,1.0
undo,27,26,0,0,0,23,"[0, 21, 23]",3,16,"[3, 4, 5, 6, 10, 11, 12, 13, 14, 16, 17, 18, 22, 25, 26, 29]",161.8906447,17634,2734,10,34,8,1.0259354460299557
undo,27,26,0,0,0,16,"[0, 21, 23, 16]",4,8,"[4, 5, 6, 10, 13, 14, 17, 29]",108.6553181,19074,1440,9,21,8,1.709252418780019
undo,27,26,0,0,0,29,"[0, 21, 23, 16, 29]",5,5,"[4, 6, 10, 14, 17]",84.44788125,19829,755,8,8,8,1.7640967188897918
undo,27,26,0,0,0,4,"[0, 21, 23, 16, 29, 4]",6,4,"[6, 10, 14, 17]",60.44788125,20480,651,3,2,8,1.9764649562942154
undo,27,26,0,0,0,17,"[0, 21, 23, 16, 29, 4, 17]",7,2,"[6, 14]",39.35285814,20939,459,2,0,8,1.8344064256480113
undo,27,26,0,0,1,14,"[0, 21, 23, 16, 29, 4, 17, 14]",8,0,[],16.88065308,21364,425,1,0,8,1.7568455098750841
undo,27,26,1,0,0,17,"[0, 21, 23, 16, 29, 4, 17]",7,2,"[6, 14]",39.35285814,22727,1363,2,0,8,1.8344064256480113
undo,27,26,1,0,0,4,"[0, 21, 23, 16, 29, 4]",6,4,"[6, 10, 14, 17]",60.44788125,22954,227,3,2,8,1.9764649562942154
undo,27,26,1,0,0,29,"[0, 21, 23, 16, 29]",5,5,"[4, 6, 10, 14, 17]",84.44788125,23181,227,8,8,8,1.7640967188897918
undo,27,26,1,0,0,16,"[0, 21, 23, 16]",4,8,"[4, 5, 6, 10, 13, 14, 17, 29]",108.6553181,23781,600,9,21,8,1.709252418780019
undo,27,26,1,0,0,23,"[0, 21, 23]",3,16,"[3, 4, 5, 6, 10, 11, 12, 13, 14, 16, 17, 18, 22, 25, 26, 29]",161.8906447,25248,1467,10,34,8,1.0259354460299557
undo,27,26,1,0,0,21,"[0, 21]",2,25,"[2, 3, 4, 5, 6, 7, 8, 10, 11, 12, 13, 14, 15, 16, 17, 18, 19, 22, 23, 24, 25, 26, 27, 28, 29]",211.1349337,25661,413,7,90,9,1.0
undo,27,26,0,0,0,16,"[0, 21, 16]",3,12,"[4, 5, 6, 10, 11, 12, 13, 14, 17, 23, 26, 29]",151.2266705,26274,613,1,34,9,1.3289691188319968
undo,27,26,0,0,0,29,"[0, 21, 16, 29]",4,8,"[4, 5, 6, 10, 13, 14, 17, 23]",127.0192337,27110,836,1,28,9,1.4156891800947415
undo,27,26,0,0,0,4,"[0, 21, 16, 29, 4]",5,5,"[6, 10, 14, 17, 23]",103.0192337,27969,859,1,12,9,1.6252228687746915
undo,27,26,0,0,0,17,"[0, 21, 16, 29, 4, 17]",6,3,"[6, 10, 14]",81.92421056,28387,418,1,4,9,1.534793846471065
undo,27,26,0,0,0,14,"[0, 21, 16, 29, 4, 17, 14]",7,2,"[6, 10]",59.45200551,29145,758,1,1,9,1.4926767408397108
undo,27,26,0,0,0,6,"[0, 21, 16, 29, 4, 17, 14, 6]",8,1,[10],38.42820947,29653,508,1,0,9,1.6286010900012204
undo,27,26,0,0,1,10,"[0, 21, 16, 29, 4, 17, 14, 6, 10]",9,0,[],9.153647129,30583,930,1,0,9,1.797369356615424
undo,27,26,0,1,1,10,"[0, 21, 16, 29, 4, 17, 14, 6, 10]",9,0,[],9.153647129,31904,1321,1,0,9,1.797369356615424
undo,28,6,0,0,0,0,[0],1,29,"[1, 2, 3, 4, 5, 6, 7, 8, 9, 10, 11, 12, 13, 14, 15, 16, 17, 18, 19, 20, 21, 22, 23, 24, 25, 26, 27, 28, 29]",300,142,-1,180,4304,10,0.0
undo,28,6,0,0,0,3,"[0, 3]",2,28,"[1, 2, 4, 5, 6, 7, 8, 9, 10, 11, 12, 13, 14, 15, 16, 17, 18, 19, 20, 21, 22, 23, 24, 25, 26, 27, 28, 29]",266.4738908,4815,4673,90,1607,10,1.0
undo,28,6,0,0,0,18,"[0, 3, 18]",3,27,"[1, 2, 4, 5, 6, 7, 8, 9, 10, 11, 12, 13, 14, 15, 16, 17, 19, 20, 21, 22, 23, 24, 25, 26, 27, 28, 29]",237.4738908,6055,1240,34,516,10,1.0266750028725786
undo,28,6,0,0,0,10,"[0, 3, 18, 10]",4,24,"[1, 2, 4, 5, 6, 7, 8, 9, 11, 13, 14, 15, 16, 17, 19, 20, 21, 22, 23, 24, 26, 27, 28, 29]",203.9328711,7101,1046,4,78,10,1.1389846757187911
undo,28,6,0,0,0,24,"[0, 3, 18, 10, 24]",5,20,"[1, 2, 4, 5, 6, 7, 8, 11, 13, 14, 16, 17, 20, 21, 22, 23, 26, 27, 28, 29]",190.5164632,7553,452,4,48,10,1.1252928735963255
undo,28,6,0,0,0,17,"[0, 3, 18, 10, 24, 17]",6,18,"[1, 2, 4, 5, 6, 7, 8, 11, 13, 14, 16, 20, 21, 22, 23, 26, 27, 29]",161.2419009,8195,642,4,34,10,1.9660749543004736
undo,28,6,0,0,0,16,"[0, 3, 18, 10, 24, 17, 16]",7,13,"[1, 2, 6, 7, 13, 14, 20, 21, 22, 23, 26, 27, 29]",128.4852222,9227,1032,4,16,10,2.376198313868146
undo,28,6,0,0,0,29,"[0, 3, 18, 10, 24, 17, 16, 29]",8,6,"[6, 14, 21, 22, 23, 27]",91.79734954,9855,628,4,4,10,1.9548036665347095
undo,28,6,0,0,0,23,"[0, 3, 18, 10, 24, 17, 16, 29, 23]",9,2,"[6, 22]",44.27893206,10835,980,2,0,10,1.905503071061344
undo,28,6,0,0,1,22,"[0, 3, 18, 10, 24, 17, 16, 29, 23, 22]",10,0,[],3.278932061,12629,1794,1,0,10,1.9056243307295522
undo,28,6,0,1,1,22,"[0, 3, 18, 10, 24, 17, 16, 29, 23, 22]",10,0,[],3.278932061,14654,2025,1,0,10,1.9056243307295522
undo,29,11,0,0,0,0,[0],1,25,"[1, 2, 3, 4, 5, 6, 8, 9, 10, 11, 12, 13, 14, 15, 16, 17, 18, 19, 20, 22, 23, 25, 26, 27, 28]",300,145,-1,6,374,12,0.0
undo,29,11,0,0,0,1,"[0, 1]",2,24,"[2, 3, 4, 5, 6, 8, 9, 10, 11, 12, 13, 14, 15, 16, 17, 18, 19, 20, 22, 23, 25, 26, 27, 28]",264.6446609,3213,3068,6,217,12,1.0
undo,29,11,0,0,0,27,"[0, 1, 27]",3,19,"[2, 4, 5, 6, 8, 9, 11, 12, 14, 15, 16, 17, 18, 19, 20, 22, 23, 25, 28]",202.7980766,3907,694,56,618,11,1.1853011734453505
undo,29,11,1,0,0,1,"[0, 1]",2,24,"[2, 3, 4, 5, 6, 8, 9, 10, 11, 12, 13, 14, 15, 16, 17, 18, 19, 20, 22, 23, 25, 26, 27, 28]",264.6446609,5614,1707,6,217,12,1.0
undo,29,11,0,0,0,18,"[0, 1, 18]",3,19,"[2, 4, 5, 6, 8, 9, 11, 12, 14, 15, 16, 17, 19, 20, 22, 23, 25, 27, 28]",212.3187591,6154,540,6,161,12,1.3884463804898786
undo,29,11,0,0,0,27,"[0, 1, 18, 27]",4,18,"[2, 4, 5, 6, 8, 9, 11, 12, 14, 15, 16, 17, 19, 20, 22, 23, 25, 28]",188.4650382,7172,1018,6,155,12,1.3600813284083875
undo,29,11,0,0,0,8,"[0, 1, 18, 27, 8]",5,11,"[2, 5, 6, 11, 12, 15, 17, 19, 22, 25, 28]",118.2510795,8924,1752,4,75,12,1.2516561493067806
undo,29,11,0,0,0,17,"[0, 1, 18, 27, 8, 17]",6,10,"[2, 5, 6, 11, 12, 15, 19, 22, 25, 28]",103.9332585,10352,1428,4,40,12,1.3330781007673067
undo,29,11,0,0,0,15,"[0, 1, 18, 27, 8, 17, 15]",7,7,"[2, 5, 11, 12, 19, 22, 28]",91.28414782,10835,483,4,35,12,1.3305073448996472
undo,29,11,0,0,0,11,"[0, 1, 18, 27, 8, 17, 15, 11]",8,5,"[2, 5, 19, 22, 28]",73.17337754,11680,845,4,17,12,1.308363545391271
undo,29,11,0,0,0,28,"[0, 1, 18, 27, 8, 17, 15, 11, 28]",9,3,"[2, 5, 22]",53.7568897,12212,532,3,3,12,1.4249903205603536
undo,29,11,0,0,0,5,"[0, 1, 18, 27, 8, 17, 15, 11, 28, 5]",10,2,"[2, 22]",35.86834588,12674,462,1,1,12,1.623497724154086
undo,29,11,0,0,0,2,"[0, 1, 18, 27, 8, 17, 15, 11, 28, 5, 2]",11,1,[22],18.86834588,13224,550,1,0,12,1.5750723003139413
undo,29,11,0,0,1,22,"[0, 1, 18, 27, 8, 17, 15, 11, 28, 5, 2, 22]",12,0,[],8.818470263,13635,411,1,0,12,1.5444525284394994
undo,29,11,0,1,1,22,"[0, 1, 18, 27, 8, 17, 15, 11, 28, 5, 2, 22]",12,0,[],8.818470263,16351,2716,1,0,12,1.5444525284394994
undo,30,14,0,0,0,0,[0],1,29,"[1, 2, 3, 4, 5, 6, 7, 8, 9, 10, 11, 12, 13, 14, 15, 16, 17, 18, 19, 20, 21, 22, 23, 24, 25, 26, 27, 28, 29]",300,132,-1,8,157,10,0.0
undo,30,14,0,0,0,15,"[0, 15]",2,20,"[1, 2, 3, 4, 7, 8, 9, 13, 17, 18, 19, 20, 21, 22, 23, 25, 26, 27, 28, 29]",216.7053423,4431,4299,8,102,10,1.0
undo,30,14,0,0,0,28,"[0, 15, 28]",3,17,"[1, 2, 3, 4, 7, 8, 9, 13, 17, 18, 19, 20, 22, 23, 25, 26, 27]",197.4959696,4953,522,8,48,10,1.0446007867311968
undo,30,14,0,0,0,17,"[0, 15, 28, 17]",4,14,"[1, 2, 3, 4, 7, 8, 13, 18, 19, 20, 22, 23, 25, 26]",184.0423455,6177,1224,8,39,10,1.0729463354689972
undo,30,14,0,0,0,18,"[0, 15, 28, 17, 18]",5,9,"[1, 2, 4, 7, 8, 19, 23, 25, 26]",119.412631,6829,652,8,27,10,1.5035901079219378
undo,30,14,0,0,0,8,"[0, 15, 28, 17, 18, 8]",6,8,"[1, 2, 4, 7, 19, 23, 25, 26]",105.8111605,7181,352,8,18,10,1.4819689987843856
undo,30,14,0,0,0,1,"[0, 15, 28, 17, 18, 8, 1]",7,5,"[7, 19, 23, 25, 26]",82.21031307,7951,770,4,6,10,1.4084991998385268
undo,30,14,0,0,0,19,"[0, 15, 28, 17, 18, 8, 1, 19]",8,4,"[7, 23, 25, 26]",66.97876686,8289,338,4,1,10,1.5758713333797987
undo,30,14,0,0,0,23,"[0, 15, 28, 17, 18, 8, 1, 19, 23]",9,1,[26],22.70687962,12003,3714,1,0,10,1.4751929839361517
undo,30,14,0,0,1,26,"[0, 15, 28, 17, 18, 8, 1, 19, 23, 26]",10,0,[],11.89022579,12327,324,1,0,10,1.4521765305442214
undo,30,14,0,1,1,26,"[0, 15, 28, 17, 18, 8, 1, 19, 23, 26]",10,0,[],11.89022579,14204,1877,1,0,10,1.4521765305442214
undo,31,27,0,0,0,0,[0],1,26,"[1, 3, 5, 6, 7, 8, 9, 10, 11, 12, 13, 14, 15, 16, 17, 18, 19, 21, 22, 23, 24, 25, 26, 27, 28, 29]",300,186,-1,13,578,11,0.0
undo,31,27,0,0,0,26,"[0, 26]",2,23,"[1, 5, 6, 7, 8, 9, 10, 11, 12, 13, 14, 15, 16, 17, 18, 19, 21, 22, 23, 24, 25, 27, 29]",275.8132268,2043,1857,7,249,11,1.0
undo,31,27,0,0,0,15,"[0, 26, 15]",3,18,"[1, 6, 7, 8, 10, 12, 13, 14, 16, 17, 18, 19, 21, 23, 24, 25, 27, 29]",216.0386502,2743,700,6,105,11,2.316230250316108
undo,31,27,0,0,0,24,"[0, 26, 15, 24]",4,14,"[1, 8, 10, 12, 13, 14, 16, 17, 18, 19, 23, 25, 27, 29]",198.8339997,3633,890,6,63,11,2.140390406148825
undo,31,27,0,0,0,17,"[0, 26, 15, 24, 17]",5,11,"[1, 8, 10, 12, 13, 14, 18, 19, 23, 27, 29]",182.2810543,4059,426,4,33,11,1.897705569486853
undo,31,27,0,0,0,12,"[0, 26, 15, 24, 17, 12]",6,10,"[1, 8, 10, 13, 14, 18, 19, 23, 27, 29]",171.1007144,4409,350,2,17,11,1.994427587076918
undo,31,27,0,0,0,10,"[0, 26, 15, 24, 17, 12, 10]",7,9,"[1, 8, 13, 14, 18, 19, 23, 27, 29]",160.0553534,4783,374,2,14,11,1.8554032921959762
undo,31,27,0,0,0,13,"[0, 26, 15, 24, 17, 12, 10, 13]",8,7,"[1, 8, 14, 19, 23, 27, 29]",120.2056357,5691,908,2,8,11,1.8269483184790714
undo,31,27,0,0,0,19,"[0, 26, 15, 24, 17, 12, 10, 13, 19]",9,4,"[8, 14, 23, 29]",83.97029387,6285,594,2,3,11,1.6617669702307691
undo,31,27,0,0,0,8,"[0, 26, 15, 24, 17, 12, 10, 13, 19, 8]",10,2,"[14, 29]",69.10422512,7027,742,2,0,11,1.708465241811091
undo,31,27,0,0,1,29,"[0, 26, 15, 24, 17, 12, 10, 13, 19, 8, 29]",11,0,[],9.901184659,8151,1124,1,0,11,1.4940849125097164
undo,31,27,1,0,0,8,"[0, 26, 15, 24, 17, 12, 10, 13, 19, 8]",10,2,"[14, 29]",69.10422512,10149,1998,2,0,11,1.708465241811091
undo,31,27,1,0,0,19,"[0, 26, 15, 24, 17, 12, 10, 13, 19]",9,4,"[8, 14, 23, 29]",83.97029387,10336,187,2,3,11,1.6617669702307691
undo,31,27,1,0,0,13,"[0, 26, 15, 24, 17, 12, 10, 13]",8,7,"[1, 8, 14, 19, 23, 27, 29]",120.2056357,10523,187,2,8,11,1.8269483184790714
undo,31,27,1,0,0,10,"[0, 26, 15, 24, 17, 12, 10]",7,9,"[1, 8, 13, 14, 18, 19, 23, 27, 29]",160.0553534,10696,173,2,14,11,1.8554032921959762
undo,31,27,1,0,0,12,"[0, 26, 15, 24, 17, 12]",6,10,"[1, 8, 10, 13, 14, 18, 19, 23, 27, 29]",171.1007144,10870,174,2,17,11,1.994427587076918
undo,31,27,1,0,0,17,"[0, 26, 15, 24, 17]",5,11,"[1, 8, 10, 12, 13, 14, 18, 19, 23, 27, 29]",182.2810543,11230,360,4,33,11,1.897705569486853
undo,31,27,1,0,0,24,"[0, 26, 15, 24]",4,14,"[1, 8, 10, 12, 13, 14, 16, 17, 18, 19, 23, 25, 27, 29]",198.8339997,11496,266,6,63,11,2.140390406148825
undo,31,27,1,0,0,15,"[0, 26, 15]",3,18,"[1, 6, 7, 8, 10, 12, 13, 14, 16, 17, 18, 19, 21, 23, 24, 25, 27, 29]",216.0386502,11710,214,6,105,11,2.316230250316108
undo,31,27,1,0,0,26,"[0, 26]",2,23,"[1, 5, 6, 7, 8, 9, 10, 11, 12, 13, 14, 15, 16, 17, 18, 19, 21, 22, 23, 24, 25, 27, 29]",275.8132268,11910,200,7,249,11,1.0
undo,31,27,1,0,0,0,[0],1,26,"[1, 3, 5, 6, 7, 8, 9, 10, 11, 12, 13, 14, 15, 16, 17, 18, 19, 21, 22, 23, 24, 25, 26, 27, 28, 29]",300,12150,240,13,578,11,0.0
undo,31,27,0,0,0,15,"[0, 15]",2,24,"[1, 3, 5, 6, 7, 8, 9, 10, 11, 12, 13, 14, 16, 17, 18, 19, 21, 22, 23, 24, 25, 26, 27, 29]",263.7508621,13043,893,6,219,11,1.0
undo,31,27,0,0,0,24,"[0, 15, 24]",3,20,"[1, 5, 6, 7, 8, 9, 10, 12, 13, 14, 16, 17, 18, 19, 21, 23, 25, 26, 27, 29]",246.5462115,13535,492,6,130,11,1.130933077698322
undo,31,27,0,0,0,17,"[0, 15, 24, 17]",4,15,"[1, 6, 8, 10, 12, 13, 14, 16, 18, 19, 23, 25, 26, 27, 29]",229.9932662,13855,320,4,60,11,1.1285538435963374
undo,31,27,0,0,0,12,"[0, 15, 24, 17, 12]",5,14,"[1, 6, 8, 10, 13, 14, 16, 18, 19, 23, 25, 26, 27, 29]",218.8129263,14857,1002,2,32,11,1.2561880288755216
undo,31,27,0,0,0,10,"[0, 15, 24, 17, 12, 10]",6,11,"[1, 8, 13, 14, 18, 19, 23, 25, 26, 27, 29]",207.7675653,15167,310,2,28,11,1.2228289337766665
undo,31,27,0,0,0,13,"[0, 15, 24, 17, 12, 10, 13]",7,9,"[1, 8, 14, 18, 19, 23, 26, 27, 29]",167.9178476,15742,575,2,18,11,1.3421291994761178
undo,31,27,0,0,0,19,"[0, 15, 24, 17, 12, 10, 13, 19]",8,5,"[1, 8, 14, 23, 29]",131.6825057,16501,759,2,6,11,1.294749956153846
undo,31,27,0,0,0,8,"[0, 15, 24, 17, 12, 10, 13, 19, 8]",9,3,"[14, 23, 29]",116.816437,16821,320,2,1,11,1.3554286578836865
undo,31,27,0,0,0,29,"[0, 15, 24, 17, 12, 10, 13, 19, 8, 29]",10,1,[14],57.61339652,17405,584,1,0,11,1.248354519573802
undo,31,27,0,0,1,14,"[0, 15, 24, 17, 12, 10, 13, 19, 8, 29, 14]",11,0,[],13.31892734,18051,646,1,0,11,1.562811097555156
undo,31,27,0,1,1,14,"[0, 15, 24, 17, 12, 10, 13, 19, 8, 29, 14]",11,0,[],13.31892734,21033,2982,1,0,11,1.562811097555156
undo,32,21,0,0,0,0,[0],1,29,"[1, 2, 3, 4, 5, 6, 7, 8, 9, 10, 11, 12, 13, 14, 15, 16, 17, 18, 19, 20, 21, 22, 23, 24, 25, 26, 27, 28, 29]",300,131,-1,84,830,9,0.0
undo,32,21,0,0,0,25,"[0, 25]",2,26,"[1, 2, 3, 4, 5, 6, 7, 8, 9, 10, 11, 12, 13, 14, 15, 16, 17, 18, 20, 21, 22, 23, 24, 26, 27, 29]",240.1836143,2614,2483,30,238,9,1.0
undo,32,21,0,0,0,23,"[0, 25, 23]",3,21,"[1, 2, 4, 6, 7, 8, 9, 10, 11, 12, 14, 15, 16, 17, 18, 20, 21, 22, 24, 27, 29]",196.8592562,3128,514,14,80,9,1.0416131642057598
undo,32,21,0,0,0,21,"[0, 25, 23, 21]",4,14,"[1, 4, 6, 8, 9, 14, 15, 16, 17, 18, 20, 22, 24, 29]",167.2450705,3646,518,10,25,9,1.4768792067751173
undo,32,21,0,0,0,14,"[0, 25, 23, 21, 14]",5,10,"[4, 8, 9, 15, 16, 17, 18, 22, 24, 29]",141.6325735,5104,1458,8,13,9,1.3826076066332742
undo,32,21,0,0,0,4,"[0, 25, 23, 21, 14, 4]",6,7,"[8, 15, 16, 17, 18, 24, 29]",127.4904379,5441,337,8,3,9,1.3487191473328533
undo,32,21,0,0,0,16,"[0, 25, 23, 21, 14, 4, 16]",7,3,"[8, 15, 24]",82.89223163,6932,1491,4,1,9,1.3301484172843694
undo,32,21,0,0,0,8,"[0, 25, 23, 21, 14, 4, 16, 8]",8,2,"[15, 24]",64.2911564,7684,752,2,0,9,1.3009886562393016
undo,32,21,0,0,1,15,"[0, 25, 23, 21, 14, 4, 16, 8, 15]",9,0,[],39.2911564,8676,992,1,0,9,1.5486591410600183
undo,32,21,1,0,0,8,"[0, 25, 23, 21, 14, 4, 16, 8]",8,2,"[15, 24]",64.2911564,10601,1925,2,0,9,1.3009886562393016
undo,32,21,1,0,0,16,"[0, 25, 23, 21, 14, 4, 16]",7,3,"[8, 15, 24]",82.89223163,10828,227,4,1,9,1.3301484172843694
undo,32,21,1,0,0,4,"[0, 25, 23, 21, 14, 4]",6,7,"[8, 15, 16, 17, 18, 24, 29]",127.4904379,11041,213,8,3,9,1.3487191473328533
undo,32,21,0,0,0,16,"[0, 25, 23, 21, 14, 4, 16]",7,3,"[8, 15, 24]",82.89223163,15304,4263,4,1,9,1.3301484172843694
undo,32,21,0,0,0,8,"[0, 25, 23, 21, 14, 4, 16, 8]",8,2,"[15, 24]",64.2911564,17433,2129,2,0,9,1.3009886562393016
undo,32,21,0,0,1,15,"[0, 25, 23, 21, 14, 4, 16, 8, 15]",9,0,[],39.2911564,17774,341,1,0,9,1.5486591410600183
undo,32,21,1,0,0,8,"[0, 25, 23, 21, 14, 4, 16, 8]",8,2,"[15, 24]",64.2911564,19111,1337,2,0,9,1.3009886562393016
undo,32,21,1,0,0,16,"[0, 25, 23, 21, 14, 4, 16]",7,3,"[8, 15, 24]",82.89223163,19311,200,4,1,9,1.3301484172843694
undo,32,21,1,0,0,4,"[0, 25, 23, 21, 14, 4]",6,7,"[8, 15, 16, 17, 18, 24, 29]",127.4904379,19511,200,8,3,9,1.3487191473328533
undo,32,21,1,0,0,14,"[0, 25, 23, 21, 14]",5,10,"[4, 8, 9, 15, 16, 17, 18, 22, 24, 29]",141.6325735,19684,173,8,13,9,1.3826076066332742
undo,32,21,1,0,0,21,"[0, 25, 23, 21]",4,14,"[1, 4, 6, 8, 9, 14, 15, 16, 17, 18, 20, 22, 24, 29]",167.2450705,19911,227,10,25,9,1.4768792067751173
undo,32,21,1,0,0,23,"[0, 25, 23]",3,21,"[1, 2, 4, 6, 7, 8, 9, 10, 11, 12, 14, 15, 16, 17, 18, 20, 21, 22, 24, 27, 29]",196.8592562,20271,360,14,80,9,1.0416131642057598
undo,32,21,1,0,0,25,"[0, 25]",2,26,"[1, 2, 3, 4, 5, 6, 7, 8, 9, 10, 11, 12, 13, 14, 15, 16, 17, 18, 20, 21, 22, 23, 24, 26, 27, 29]",240.1836143,20498,227,30,238,9,1.0
undo,32,21,1,0,0,0,[0],1,29,"[1, 2, 3, 4, 5, 6, 7, 8, 9, 10, 11, 12, 13, 14, 15, 16, 17, 18, 19, 20, 21, 22, 23, 24, 25, 26, 27, 28, 29]",300,20738,240,84,830,9,0.0
undo,32,21,0,0,0,29,"[0, 29]",2,26,"[1, 2, 3, 4, 6, 7, 8, 9, 10, 11, 12, 13, 14, 15, 16, 17, 18, 19, 20, 21, 22, 23, 24, 25, 26, 27]",215.2828235,24466,3728,1,45,9,1.0
undo,32,21,1,0,0,0,[0],1,29,"[1, 2, 3, 4, 5, 6, 7, 8, 9, 10, 11, 12, 13, 14, 15, 16, 17, 18, 19, 20, 21, 22, 23, 24, 25, 26, 27, 28, 29]",300,26073,1607,84,830,9,0.0
undo,32,21,0,0,0,18,"[0, 18]",2,28,"[1, 2, 3, 4, 5, 6, 7, 8, 9, 10, 11, 12, 13, 14, 15, 16, 17, 19, 20, 21, 22, 23, 24, 25, 26, 27, 28, 29]",240.923778,26734,661,44,305,9,1.0
undo,32,21,0,0,0,29,"[0, 18, 29]",3,24,"[1, 2, 3, 4, 6, 7, 8, 9, 10, 11, 12, 13, 14, 15, 16, 17, 20, 21, 22, 23, 24, 25, 26, 27]",212.2706805,27236,502,11,87,9,1.035555280387994
undo,32,21,0,0,0,25,"[0, 18, 29, 25]",4,18,"[1, 4, 6, 8, 9, 10, 11, 12, 14, 15, 16, 17, 20, 21, 22, 23, 24, 26]",167.0490043,28424,1188,6,45,9,2.2226517719335437
undo,32,21,0,0,0,23,"[0, 18, 29, 25, 23]",5,10,"[4, 8, 14, 15, 16, 17, 20, 21, 22, 24]",123.7246462,28950,526,3,20,9,1.7801958981326236
undo,32,21,0,0,0,21,"[0, 18, 29, 25, 23, 21]",6,3,"[4, 14, 16]",94.11046043,29838,888,1,3,9,2.290491065218303
undo,32,21,0,0,0,14,"[0, 18, 29, 25, 23, 21, 14]",7,2,"[4, 16]",68.49796348,30468,630,1,1,9,2.021100447974041
undo,32,21,0,0,0,4,"[0, 18, 29, 25, 23, 21, 14, 4]",8,1,[16],54.35582786,30879,411,1,0,9,1.9205022281831265
undo,32,21,0,0,1,16,"[0, 18, 29, 25, 23, 21, 14, 4, 16]",9,0,[],9.757621617,31704,825,1,0,9,1.7782202964615115
undo,32,21,1,0,0,4,"[0, 18, 29, 25, 23, 21, 14, 4]",8,1,[16],54.35582786,32903,1199,1,0,9,1.9205022281831265
undo,32,21,1,0,0,14,"[0, 18, 29, 25, 23, 21, 14]",7,2,"[4, 16]",68.49796348,33129,226,1,1,9,2.021100447974041
undo,32,21,1,0,0,21,"[0, 18, 29, 25, 23, 21]",6,3,"[4, 14, 16]",94.11046043,33770,641,1,3,9,2.290491065218303
undo,32,21,1,0,0,23,"[0, 18, 29, 25, 23]",5,10,"[4, 8, 14, 15, 16, 17, 20, 21, 22, 24]",123.7246462,34503,733,3,20,9,1.7801958981326236
undo,32,21,1,0,0,25,"[0, 18, 29, 25]",4,18,"[1, 4, 6, 8, 9, 10, 11, 12, 14, 15, 16, 17, 20, 21, 22, 23, 24, 26]",167.0490043,34823,320,6,45,9,2.2226517719335437
undo,32,21,1,0,0,29,"[0, 18, 29]",3,24,"[1, 2, 3, 4, 6, 7, 8, 9, 10, 11, 12, 13, 14, 15, 16, 17, 20, 21, 22, 23, 24, 25, 26, 27]",212.2706805,35050,227,11,87,9,1.035555280387994
undo,32,21,1,0,0,18,"[0, 18]",2,28,"[1, 2, 3, 4, 5, 6, 7, 8, 9, 10, 11, 12, 13, 14, 15, 16, 17, 19, 20, 21, 22, 23, 24, 25, 26, 27, 28, 29]",240.923778,35370,320,44,305,9,1.0
undo,32,21,1,0,0,0,[0],1,29,"[1, 2, 3, 4, 5, 6, 7, 8, 9, 10, 11, 12, 13, 14, 15, 16, 17, 18, 19, 20, 21, 22, 23, 24, 25, 26, 27, 28, 29]",300,35784,414,84,830,9,0.0
undo,32,21,0,0,0,18,"[0, 18]",2,28,"[1, 2, 3, 4, 5, 6, 7, 8, 9, 10, 11, 12, 13, 14, 15, 16, 17, 19, 20, 21, 22, 23, 24, 25, 26, 27, 28, 29]",240.923778,37240,1456,44,305,9,1.0
undo,32,21,0,0,0,25,"[0, 18, 25]",3,23,"[1, 2, 3, 4, 6, 7, 8, 9, 10, 11, 12, 14, 15, 16, 17, 20, 21, 22, 23, 24, 26, 27, 29]",199.162552,38641,1401,16,84,9,1.6857830307656476
undo,32,21,0,0,0,23,"[0, 18, 25, 23]",4,13,"[4, 6, 8, 9, 14, 15, 16, 17, 20, 21, 22, 24, 29]",155.838194,39189,548,9,35,9,1.4558828002680828
undo,32,21,0,0,0,21,"[0, 18, 25, 23, 21]",5,9,"[4, 8, 9, 14, 15, 16, 17, 22, 29]",126.2240082,39657,468,3,11,9,1.9332325352644872
undo,32,21,0,0,0,14,"[0, 18, 25, 23, 21, 14]",6,5,"[4, 8, 15, 16, 29]",100.6115112,40135,478,3,6,9,1.7407370150704153
undo,32,21,0,0,0,4,"[0, 18, 25, 23, 21, 14, 4]",7,3,"[8, 15, 16]",86.46937561,40521,386,3,1,9,1.6694311790658276
undo,32,21,0,0,0,16,"[0, 18, 25, 23, 21, 14, 4, 16]",8,2,"[8, 15]",41.87116936,41995,1474,2,0,9,1.5814710736011837
undo,32,21,0,0,1,8,"[0, 18, 25, 23, 21, 14, 4, 16, 8]",9,0,[],23.27009413,42631,636,1,0,9,1.5274033119860408
undo,32,21,1,0,0,16,"[0, 18, 25, 23, 21, 14, 4, 16]",8,2,"[8, 15]",41.87116936,44333,1702,2,0,9,1.5814710736011837
undo,32,21,1,0,0,4,"[0, 18, 25, 23, 21, 14, 4]",7,3,"[8, 15, 16]",86.46937561,44654,321,3,1,9,1.6694311790658276
undo,32,21,0,0,0,16,"[0, 18, 25, 23, 21, 14, 4, 16]",8,2,"[8, 15]",41.87116936,48151,3497,2,0,9,1.5814710736011837
undo,32,21,0,0,1,15,"[0, 18, 25, 23, 21, 14, 4, 16, 15]",9,0,[],16.31730468,48715,564,1,0,9,1.6851281038318489
undo,32,21,1,0,0,16,"[0, 18, 25, 23, 21, 14, 4, 16]",8,2,"[8, 15]",41.87116936,49549,834,2,0,9,1.5814710736011837
undo,32,21,0,0,1,8,"[0, 18, 25, 23, 21, 14, 4, 16, 8]",9,0,[],23.27009413,50301,752,1,0,9,1.5274033119860408
undo,32,21,0,1,1,8,"[0, 18, 25, 23, 21, 14, 4, 16, 8]",9,0,[],23.27009413,52977,2676,1,0,9,1.5274033119860408
undo,33,12,0,0,0,0,[0],1,29,"[1, 2, 3, 4, 5, 6, 7, 8, 9, 10, 11, 12, 13, 14, 15, 16, 17, 18, 19, 20, 21, 22, 23, 24, 25, 26, 27, 28, 29]",300,127,-1,2,32,9,0.0
undo,33,12,0,0,0,19,"[0, 19]",2,20,"[2, 4, 5, 6, 7, 8, 10, 12, 13, 14, 15, 16, 17, 18, 22, 24, 25, 26, 27, 29]",169.7310474,13009,12882,8,46,6,1.0
undo,33,12,0,0,0,22,"[0, 19, 22]",3,8,"[4, 6, 12, 14, 16, 24, 25, 27]",107.4654871,13537,528,1,8,6,2.1877509420248384
undo,33,12,0,0,0,16,"[0, 19, 22, 16]",4,4,"[4, 12, 25, 27]",86.46548714,14839,1302,1,3,6,2.3540784792422262
undo,33,12,0,0,0,4,"[0, 19, 22, 16, 4]",5,1,[12],52.26022439,15536,697,1,0,6,1.983378509052504
undo,33,12,0,0,1,12,"[0, 19, 22, 16, 4, 12]",6,0,[],10.07017817,16966,1430,1,0,6,1.7547993866758789
undo,33,12,1,0,0,4,"[0, 19, 22, 16, 4]",5,1,[12],52.26022439,18347,1381,1,0,6,1.983378509052504
undo,33,12,1,0,0,16,"[0, 19, 22, 16]",4,4,"[4, 12, 25, 27]",86.46548714,18507,160,1,3,6,2.3540784792422262
undo,33,12,1,0,0,22,"[0, 19, 22]",3,8,"[4, 6, 12, 14, 16, 24, 25, 27]",107.4654871,18668,161,1,8,6,2.1877509420248384
undo,33,12,1,0,0,19,"[0, 19]",2,20,"[2, 4, 5, 6, 7, 8, 10, 12, 13, 14, 15, 16, 17, 18, 22, 24, 25, 26, 27, 29]",169.7310474,18801,133,8,46,6,1.0
undo,33,12,1,0,0,0,[0],1,29,"[1, 2, 3, 4, 5, 6, 7, 8, 9, 10, 11, 12, 13, 14, 15, 16, 17, 18, 19, 20, 21, 22, 23, 24, 25, 26, 27, 28, 29]",300,19014,213,2,32,9,0.0
undo,33,12,0,0,0,22,"[0, 22]",2,22,"[2, 4, 5, 6, 7, 9, 10, 12, 13, 14, 15, 16, 17, 18, 19, 21, 23, 24, 25, 27, 28, 29]",211.9943184,20357,1343,6,42,8,1.0
undo,33,12,0,0,0,16,"[0, 22, 16]",3,12,"[2, 4, 5, 6, 7, 12, 14, 19, 23, 24, 25, 27]",190.9943184,20771,414,6,24,8,1.2017164145167045
undo,33,12,0,0,0,4,"[0, 22, 16, 4]",4,9,"[2, 6, 7, 12, 14, 19, 24, 25, 27]",156.7890556,21185,414,6,14,8,1.146531713305579
undo,33,12,0,0,0,12,"[0, 22, 16, 4, 12]",5,4,"[14, 19, 24, 27]",114.5990094,22153,968,4,3,8,1.1221389456954312
undo,33,12,0,0,0,27,"[0, 22, 16, 4, 12, 27]",6,3,"[14, 19, 24]",90.24741807,22596,443,2,1,8,1.2262878338287035
undo,33,12,0,0,0,14,"[0, 22, 16, 4, 12, 27, 14]",7,1,[24],61.59432051,23167,571,1,0,8,1.2804562106751427
undo,33,12,0,0,1,24,"[0, 22, 16, 4, 12, 27, 14, 24]",8,0,[],44.38966997,23694,527,1,0,8,1.4322660007679802
undo,33,12,1,0,0,14,"[0, 22, 16, 4, 12, 27, 14]",7,1,[24],61.59432051,25484,1790,1,0,8,1.2804562106751427
undo,33,12,1,0,0,27,"[0, 22, 16, 4, 12, 27]",6,3,"[14, 19, 24]",90.24741807,25683,199,2,1,8,1.2262878338287035
undo,33,12,1,0,0,12,"[0, 22, 16, 4, 12]",5,4,"[14, 19, 24, 27]",114.5990094,25843,160,4,3,8,1.1221389456954312
undo,33,12,1,0,0,4,"[0, 22, 16, 4]",4,9,"[2, 6, 7, 12, 14, 19, 24, 25, 27]",156.7890556,26097,254,6,14,8,1.146531713305579
undo,33,12,1,0,0,16,"[0, 22, 16]",3,12,"[2, 4, 5, 6, 7, 12, 14, 19, 23, 24, 25, 27]",190.9943184,26364,267,6,24,8,1.2017164145167045
undo,33,12,1,0,0,22,"[0, 22]",2,22,"[2, 4, 5, 6, 7, 9, 10, 12, 13, 14, 15, 16, 17, 18, 19, 21, 23, 24, 25, 27, 28, 29]",211.9943184,26697,333,6,42,8,1.0
undo,33,12,1,0,0,0,[0],1,29,"[1, 2, 3, 4, 5, 6, 7, 8, 9, 10, 11, 12, 13, 14, 15, 16, 17, 18, 19, 20, 21, 22, 23, 24, 25, 26, 27, 28, 29]",300,27164,467,2,32,9,0.0
undo,33,12,0,0,0,2,"[0, 2]",2,19,"[1, 5, 7, 8, 10, 11, 13, 14, 15, 16, 17, 18, 19, 21, 22, 24, 26, 27, 29]",143.2677442,28685,1521,4,18,6,1.0
undo,33,12,0,0,0,7,"[0, 2, 7]",3,12,"[5, 8, 10, 13, 14, 15, 17, 19, 22, 24, 26, 29]",125.803495,28956,271,3,10,6,1.0526285265704103
undo,33,12,0,0,0,13,"[0, 2, 7, 13]",4,4,"[8, 10, 26, 29]",70.35982993,29570,614,3,2,6,1.0408126813158507
undo,33,12,0,0,0,10,"[0, 2, 7, 13, 10]",5,2,"[8, 26]",40.62769243,30160,590,2,0,6,1.0459581219471208
undo,33,12,0,0,1,8,"[0, 2, 7, 13, 10, 8]",6,0,[],9.951969132,30644,484,1,0,6,1.0967408066880349
undo,33,12,1,0,0,10,"[0, 2, 7, 13, 10]",5,2,"[8, 26]",40.62769243,32326,1682,2,0,6,1.0459581219471208
undo,33,12,1,0,0,13,"[0, 2, 7, 13]",4,4,"[8, 10, 26, 29]",70.35982993,32553,227,3,2,6,1.0408126813158507
undo,33,12,1,0,0,7,"[0, 2, 7]",3,12,"[5, 8, 10, 13, 14, 15, 17, 19, 22, 24, 26, 29]",125.803495,32753,200,3,10,6,1.0526285265704103
undo,33,12,1,0,0,2,"[0, 2]",2,19,"[1, 5, 7, 8, 10, 11, 13, 14, 15, 16, 17, 18, 19, 21, 22, 24, 26, 27, 29]",143.2677442,33060,307,4,18,6,1.0
undo,33,12,1,0,0,0,[0],1,29,"[1, 2, 3, 4, 5, 6, 7, 8, 9, 10, 11, 12, 13, 14, 15, 16, 17, 18, 19, 20, 21, 22, 23, 24, 25, 26, 27, 28, 29]",300,33273,213,2,32,9,0.0
undo,33,12,0,0,0,22,"[0, 22]",2,22,"[2, 4, 5, 6, 7, 9, 10, 12, 13, 14, 15, 16, 17, 18, 19, 21, 23, 24, 25, 27, 28, 29]",211.9943184,34170,897,6,42,8,1.0
undo,33,12,0,0,0,16,"[0, 22, 16]",3,12,"[2, 4, 5, 6, 7, 12, 14, 19, 23, 24, 25, 27]",190.9943184,34850,680,6,24,8,1.2017164145167045
undo,33,12,0,0,0,4,"[0, 22, 16, 4]",4,9,"[2, 6, 7, 12, 14, 19, 24, 25, 27]",156.7890556,35330,480,6,14,8,1.146531713305579
undo,33,12,0,0,0,12,"[0, 22, 16, 4, 12]",5,4,"[14, 19, 24, 27]",114.5990094,35950,620,4,3,8,1.1221389456954312
undo,33,12,0,0,0,27,"[0, 22, 16, 4, 12, 27]",6,3,"[14, 19, 24]",90.24741807,36506,556,2,1,8,1.2262878338287035
undo,33,12,0,0,0,14,"[0, 22, 16, 4, 12, 27, 14]",7,1,[24],61.59432051,37779,1273,1,0,8,1.2804562106751427
undo,33,12,0,0,1,24,"[0, 22, 16, 4, 12, 27, 14, 24]",8,0,[],44.38966997,38184,405,1,0,8,1.4322660007679802
undo,33,12,0,1,1,24,"[0, 22, 16, 4, 12, 27, 14, 24]",8,0,[],44.38966997,39515,1331,1,0,8,1.4322660007679802
undo,34,7,0,0,0,0,[0],1,29,"[1, 2, 3, 4, 5, 6, 7, 8, 9, 10, 11, 12, 13, 14, 15, 16, 17, 18, 19, 20, 21, 22, 23, 24, 25, 26, 27, 28, 29]",300,133,-1,3,79,9,0.0
undo,34,7,0,0,0,25,"[0, 25]",2,20,"[2, 3, 4, 5, 6, 7, 10, 13, 14, 15, 16, 18, 19, 20, 21, 22, 23, 24, 27, 28]",181.5939191,4851,4718,5,33,8,1.0
undo,34,7,0,0,0,4,"[0, 25, 4]",3,11,"[2, 6, 7, 13, 15, 16, 18, 19, 20, 21, 23]",156.8552853,5927,1076,2,14,8,1.0193465608331511
undo,34,7,0,0,0,20,"[0, 25, 4, 20]",4,8,"[2, 6, 7, 13, 15, 16, 18, 19]",137.2084026,6505,578,1,9,8,1.085904909082323
undo,34,7,0,0,0,18,"[0, 25, 4, 20, 18]",5,7,"[2, 6, 7, 13, 15, 16, 19]",124.4021541,7887,1382,1,5,8,1.2264883846453758
undo,34,7,0,0,0,7,"[0, 25, 4, 20, 18, 7]",6,2,"[2, 19]",83.17109789,8584,697,1,1,8,1.185264473968278
undo,34,7,0,0,0,19,"[0, 25, 4, 20, 18, 7, 19]",7,1,[2],53.76021555,9161,577,1,0,8,1.3016904288278204
undo,34,7,0,0,1,2,"[0, 25, 4, 20, 18, 7, 19, 2]",8,0,[],23.61058868,9753,592,1,0,8,1.3168868000947171
undo,34,7,0,1,1,2,"[0, 25, 4, 20, 18, 7, 19, 2]",8,0,[],23.61058868,14699,4946,1,0,8,1.3168868000947171
undo,35,40,0,0,0,0,[0],1,29,"[1, 2, 3, 4, 5, 6, 7, 8, 9, 10, 11, 12, 13, 14, 15, 16, 17, 18, 19, 20, 21, 22, 23, 24, 25, 26, 27, 28, 29]",300,146,-1,8,191,9,0.0
undo,35,40,0,0,0,1,"[0, 1]",2,18,"[2, 5, 6, 7, 8, 9, 10, 11, 13, 15, 17, 18, 19, 21, 22, 23, 27, 29]",247.8463808,6054,5908,4,80,9,1.0
undo,35,40,0,0,0,6,"[0, 1, 6]",3,17,"[2, 5, 7, 8, 9, 10, 11, 13, 15, 17, 18, 19, 21, 22, 23, 27, 29]",227.7466295,6421,367,4,74,9,1.0459427008232034
undo,35,40,0,0,0,9,"[0, 1, 6, 9]",4,10,"[2, 5, 8, 11, 18, 19, 21, 22, 23, 27]",159.146338,7551,1130,17,39,8,1.142098432552584
undo,35,40,0,0,0,18,"[0, 1, 6, 9, 18]",5,9,"[2, 5, 8, 11, 19, 21, 22, 23, 27]",142.5933926,8619,1068,13,14,8,1.3288108654802917
undo,35,40,0,0,0,23,"[0, 1, 6, 9, 18, 23]",6,6,"[2, 5, 8, 19, 21, 22]",108.5933926,10529,1910,6,4,8,2.0180513009829646
undo,35,40,0,0,0,19,"[0, 1, 6, 9, 18, 23, 19]",7,4,"[2, 5, 8, 22]",76.640302,11362,833,4,0,8,2.1771771191471494
undo,35,40,0,0,1,5,"[0, 1, 6, 9, 18, 23, 19, 5]",8,0,[],38.56143647,12009,647,1,0,8,2.1257978181562813
undo,35,40,1,0,0,19,"[0, 1, 6, 9, 18, 23, 19]",7,4,"[2, 5, 8, 22]",76.640302,15111,3102,4,0,8,2.1771771191471494
undo,35,40,1,0,0,23,"[0, 1, 6, 9, 18, 23]",6,6,"[2, 5, 8, 19, 21, 22]",108.5933926,15298,187,6,4,8,2.0180513009829646
undo,35,40,1,0,0,18,"[0, 1, 6, 9, 18]",5,9,"[2, 5, 8, 11, 19, 21, 22, 23, 27]",142.5933926,15485,187,13,14,8,1.3288108654802917
undo,35,40,1,0,0,9,"[0, 1, 6, 9]",4,10,"[2, 5, 8, 11, 18, 19, 21, 22, 23, 27]",159.146338,15912,427,17,39,8,1.142098432552584
undo,35,40,1,0,0,6,"[0, 1, 6]",3,17,"[2, 5, 7, 8, 9, 10, 11, 13, 15, 17, 18, 19, 21, 22, 23, 27, 29]",227.7466295,16445,533,4,74,9,1.0459427008232034
undo,35,40,0,0,0,21,"[0, 1, 6, 21]",4,8,"[2, 5, 9, 17, 18, 19, 22, 23]",175.7754837,16735,290,4,25,9,1.0308822257404064
undo,35,40,0,0,0,9,"[0, 1, 6, 21, 9]",5,6,"[2, 5, 18, 19, 22, 23]",130.0699041,17675,940,4,12,9,1.377861912961129
undo,35,40,0,0,0,18,"[0, 1, 6, 21, 9, 18]",6,5,"[2, 5, 19, 22, 23]",113.5169588,18053,378,4,4,9,1.5742712168661408
undo,35,40,0,0,0,5,"[0, 1, 6, 21, 9, 18, 5]",7,3,"[19, 22, 23]",81.94165198,18797,744,2,1,9,1.7730665063055515
undo,35,40,0,0,0,23,"[0, 1, 6, 21, 9, 18, 5, 23]",8,1,[19],53.63970859,19201,404,1,0,9,2.597442759912231
undo,35,40,0,0,1,19,"[0, 1, 6, 21, 9, 18, 5, 23, 19]",9,0,[],21.68661797,20243,1042,1,0,9,2.7128328554069565
undo,35,40,0,1,1,19,"[0, 1, 6, 21, 9, 18, 5, 23, 19]",9,0,[],21.68661797,22221,1978,1,0,9,2.7128328554069565
undo,36,22,0,0,0,0,[0],1,29,"[1, 2, 3, 4, 5, 6, 7, 8, 9, 10, 11, 12, 13, 14, 15, 16, 17, 18, 19, 20, 21, 22, 23, 24, 25, 26, 27, 28, 29]",300,145,-1,31,704,9,0.0
undo,36,22,0,0,0,16,"[0, 16]",2,21,"[1, 3, 6, 7, 8, 9, 11, 13, 14, 15, 17, 18, 19, 20, 21, 22, 24, 25, 27, 28, 29]",218.605897,5309,5164,17,147,9,1.0
undo,36,22,0,0,0,28,"[0, 16, 28]",3,13,"[6, 7, 9, 13, 14, 17, 19, 20, 21, 22, 24, 25, 29]",184.1675463,5793,484,12,61,9,1.047282311284478
undo,36,22,0,0,0,6,"[0, 16, 28, 6]",4,12,"[7, 9, 13, 14, 17, 19, 20, 21, 22, 24, 25, 29]",154.1675463,8543,2750,12,43,9,1.645645870580622
undo,36,22,0,0,0,29,"[0, 16, 28, 6, 29]",5,9,"[7, 9, 13, 14, 17, 19, 20, 21, 24]",96.29700112,9795,1252,2,4,9,2.64527042238385
undo,36,22,0,0,0,19,"[0, 16, 28, 6, 29, 19]",6,4,"[7, 9, 14, 24]",81.26370474,10573,778,2,2,9,2.747111096987313
undo,36,22,0,0,0,9,"[0, 16, 28, 6, 29, 19, 9]",7,2,"[7, 14]",60.86762669,11215,642,2,0,9,2.6702454883753064
undo,36,22,0,0,0,14,"[0, 16, 28, 6, 29, 19, 9, 14]",8,1,[7],17.82114019,11957,742,1,0,9,2.1782892870517085
undo,36,22,0,0,1,7,"[0, 16, 28, 6, 29, 19, 9, 14, 7]",9,0,[],4.782735376,12477,520,1,0,9,2.3473599721224465
undo,36,22,0,1,1,7,"[0, 16, 28, 6, 29, 19, 9, 14, 7]",9,0,[],4.782735376,13950,1473,1,0,9,2.3473599721224465
undo,37,5,0,0,0,0,[0],1,29,"[1, 2, 3, 4, 5, 6, 7, 8, 9, 10, 11, 12, 13, 14, 15, 16, 17, 18, 19, 20, 21, 22, 23, 24, 25, 26, 27, 28, 29]",300,131,-1,5,139,9,0.0
undo,37,5,0,0,0,23,"[0, 23]",2,27,"[1, 2, 3, 4, 5, 6, 7, 8, 9, 10, 11, 12, 13, 14, 15, 16, 17, 18, 19, 20, 21, 22, 24, 25, 26, 27, 28]",249.8402552,1384,1253,3,75,9,1.0
undo,37,5,0,0,0,25,"[0, 23, 25]",3,23,"[1, 2, 3, 4, 5, 6, 8, 9, 10, 12, 13, 14, 15, 16, 17, 18, 19, 21, 22, 24, 26, 27, 28]",231.4011663,1788,404,3,43,9,1.0923159590575564
undo,37,5,0,0,0,24,"[0, 23, 25, 24]",4,21,"[2, 3, 4, 5, 6, 8, 9, 10, 12, 13, 14, 15, 16, 17, 18, 19, 21, 22, 26, 27, 28]",206.5616816,2210,422,3,25,9,1.2901858295679272
undo,37,5,0,0,0,17,"[0, 23, 25, 24, 17]",5,13,"[4, 5, 6, 8, 12, 13, 14, 15, 18, 19, 22, 26, 27]",171.5759702,2684,474,3,14,9,1.2027484907982513
undo,37,5,0,0,0,5,"[0, 23, 25, 24, 17, 5]",6,7,"[4, 6, 8, 12, 15, 18, 19]",128.5294837,3366,682,3,4,9,1.1472230681682432
undo,37,5,0,0,0,18,"[0, 23, 25, 24, 17, 5, 18]",7,2,"[4, 6]",61.46235316,5332,1966,1,1,9,1.1763046566678599
undo,37,5,0,0,0,4,"[0, 23, 25, 24, 17, 5, 18, 4]",8,1,[6],23.04360773,5904,572,1,0,9,1.580519180089265
undo,37,5,0,0,1,6,"[0, 23, 25, 24, 17, 5, 18, 4, 6]",9,0,[],11.00201315,6262,358,1,0,9,1.7305268673652696
undo,37,5,0,1,1,6,"[0, 23, 25, 24, 17, 5, 18, 4, 6]",9,0,[],11.00201315,7801,1539,1,0,9,1.7305268673652696
undo,38,24,0,0,0,0,[0],1,29,"[1, 2, 3, 4, 5, 6, 7, 8, 9, 10, 11, 12, 13, 14, 15, 16, 17, 18, 19, 20, 21, 22, 23, 24, 25, 26, 27, 28, 29]",300,133,-1,4,76,10,0.0
undo,38,24,0,0,0,14,"[0, 14]",2,27,"[1, 2, 3, 4, 5, 6, 8, 9, 10, 11, 12, 13, 15, 16, 17, 18, 19, 20, 21, 22, 23, 24, 25, 26, 27, 28, 29]",278.0455016,1966,1833,4,54,10,1.0
undo,38,24,1,0,0,0,[0],1,29,"[1, 2, 3, 4, 5, 6, 7, 8, 9, 10, 11, 12, 13, 14, 15, 16, 17, 18, 19, 20, 21, 22, 23, 24, 25, 26, 27, 28, 29]",300,3854,1888,4,76,10,0.0
undo,38,24,0,0,0,16,"[0, 16]",2,28,"[1, 2, 3, 4, 5, 6, 7, 8, 9, 10, 11, 12, 13, 14, 15, 17, 18, 19, 20, 21, 22, 23, 24, 25, 26, 27, 28, 29]",210.3562607,4633,779,13,110,9,1.0
undo,38,24,0,0,0,22,"[0, 16, 22]",3,27,"[1, 2, 3, 4, 5, 6, 7, 8, 9, 10, 11, 12, 13, 14, 15, 17, 18, 19, 20, 21, 23, 24, 25, 26, 27, 28, 29]",192.3285043,5738,1105,7,54,9,1.0217425143037777
undo,38,24,0,0,0,8,"[0, 16, 22, 8]",4,21,"[1, 2, 3, 4, 6, 9, 10, 11, 13, 14, 15, 17, 20, 21, 23, 24, 25, 26, 27, 28, 29]",178.9120964,6087,349,4,28,9,1.0996636936037951
undo,38,24,0,0,0,15,"[0, 16, 22, 8, 15]",5,16,"[3, 4, 6, 9, 10, 11, 13, 14, 17, 23, 24, 25, 26, 27, 28, 29]",148.025206,6540,453,3,17,9,1.2704773343758617
undo,38,24,0,0,0,28,"[0, 16, 22, 8, 15, 28]",6,8,"[3, 4, 9, 11, 13, 23, 26, 27]",102.7482803,7385,845,3,5,9,1.1981967578189556
undo,38,24,0,0,0,23,"[0, 16, 22, 8, 15, 28, 23]",7,3,"[9, 11, 27]",83.72198273,7806,421,3,1,9,1.2275650852813986
undo,38,24,0,0,0,11,"[0, 16, 22, 8, 15, 28, 23, 11]",8,2,"[9, 27]",56.79615869,8807,1001,2,0,9,1.2107937989822568
undo,38,24,0,0,1,9,"[0, 16, 22, 8, 15, 28, 23, 11, 9]",9,0,[],24.5471277,9335,528,1,0,9,1.2976612913524237
undo,38,24,1,0,0,11,"[0, 16, 22, 8, 15, 28, 23, 11]",8,2,"[9, 27]",56.79615869,10176,841,2,0,9,1.2107937989822568
undo,38,24,1,0,0,23,"[0, 16, 22, 8, 15, 28, 23]",7,3,"[9, 11, 27]",83.72198273,10390,214,3,1,9,1.2275650852813986
undo,38,24,0,0,0,11,"[0, 16, 22, 8, 15, 28, 23, 11]",8,2,"[9, 27]",56.79615869,12667,2277,2,0,9,1.2107937989822568
undo,38,24,0,0,1,27,"[0, 16, 22, 8, 15, 28, 23, 11, 27]",9,0,[],28.99328114,13366,699,1,0,9,1.1865620449755248
undo,38,24,0,1,1,27,"[0, 16, 22, 8, 15, 28, 23, 11, 27]",9,0,[],28.99328114,15045,1679,1,0,9,1.1865620449755248
undo,39,4,0,0,0,0,[0],1,26,"[3, 4, 5, 6, 7, 8, 10, 11, 12, 13, 14, 15, 16, 17, 18, 19, 20, 21, 22, 23, 24, 25, 26, 27, 28, 29]",300,147,-1,4,489,10,0.0
undo,39,4,0,0,0,28,"[0, 28]",2,21,"[3, 4, 5, 6, 10, 11, 12, 13, 14, 15, 16, 17, 19, 20, 21, 22, 23, 24, 25, 26, 27]",225.9392142,2414,2267,2,216,10,1.0
undo,39,4,0,0,0,14,"[0, 28, 14]",3,13,"[3, 4, 5, 6, 11, 13, 16, 17, 20, 21, 22, 24, 25]",159.6972335,4127,1713,1,26,10,1.0273973946789214
undo,39,4,0,0,0,25,"[0, 28, 14, 25]",4,12,"[3, 4, 5, 6, 11, 13, 16, 17, 20, 21, 22, 24]",143.572718,5572,1445,1,25,10,1.233547772313525
undo,39,4,0,0,0,11,"[0, 28, 14, 25, 11]",5,10,"[3, 4, 5, 6, 13, 16, 17, 20, 21, 22]",124.7844238,6596,1024,1,15,10,1.425978575879479
undo,39,4,0,0,0,16,"[0, 28, 14, 25, 11, 16]",6,9,"[3, 4, 5, 6, 13, 17, 20, 21, 22]",109.7844238,7558,962,1,12,10,1.3799325158051412
undo,39,4,0,0,0,17,"[0, 28, 14, 25, 11, 16, 17]",7,5,"[3, 5, 20, 21, 22]",83.70761416,8312,754,1,5,10,1.3195184878861832
undo,39,4,0,0,0,20,"[0, 28, 14, 25, 11, 16, 17, 20]",8,3,"[5, 21, 22]",43.48324344,9062,750,1,2,10,1.4038284317031835
undo,39,4,0,0,0,22,"[0, 28, 14, 25, 11, 16, 17, 20, 22]",9,1,[21],13.25081052,10198,1136,1,0,10,1.807318570651008
undo,39,4,0,0,1,21,"[0, 28, 14, 25, 11, 16, 17, 20, 22, 21]",10,0,[],2.205449508,10532,334,1,0,10,2.0148407301566107
undo,39,4,0,1,1,21,"[0, 28, 14, 25, 11, 16, 17, 20, 22, 21]",10,0,[],2.205449508,12136,1604,1,0,10,2.0148407301566107
undo,40,20,0,0,0,0,[0],1,21,"[1, 2, 3, 4, 5, 6, 7, 8, 9, 12, 17, 18, 20, 21, 22, 23, 25, 26, 27, 28, 29]",300,132,-1,1,9,9,0.0
undo,40,20,0,0,0,12,"[0, 12]",2,20,"[1, 2, 3, 4, 5, 6, 7, 8, 9, 17, 18, 20, 21, 22, 23, 25, 26, 27, 28, 29]",271.5570747,1325,1193,1,8,9,1.0
undo,40,20,0,0,0,1,"[0, 12, 1]",3,12,"[3, 4, 5, 6, 8, 9, 20, 21, 23, 27, 28, 29]",189.5692707,2136,811,1,6,9,1.0757997779162911
undo,40,20,0,0,0,5,"[0, 12, 1, 5]",4,10,"[4, 6, 8, 9, 20, 21, 23, 27, 28, 29]",152.8950291,2807,671,1,5,9,1.1708231454516806
undo,40,20,0,0,0,21,"[0, 12, 1, 5, 21]",5,8,"[4, 6, 8, 9, 20, 23, 27, 28]",107.8950291,3543,736,1,4,9,1.126197336199212
undo,40,20,0,0,0,8,"[0, 12, 1, 5, 21, 8]",6,5,"[6, 9, 23, 27, 28]",90.43077988,4433,890,1,3,9,1.140007470699913
undo,40,20,0,0,1,28,"[0, 12, 1, 5, 21, 8, 28]",7,0,[],47.24513412,5427,994,1,0,7,1.316913949755462
undo,40,20,1,0,0,8,"[0, 12, 1, 5, 21, 8]",6,5,"[6, 9, 23, 27, 28]",90.43077988,8148,2721,1,3,9,1.140007470699913
undo,40,20,0,0,0,23,"[0, 12, 1, 5, 21, 8, 23]",7,2,"[6, 9]",45.74297394,8977,829,1,1,9,1.1162257896627588
undo,40,20,0,0,0,9,"[0, 12, 1, 5, 21, 8, 23, 9]",8,1,[6],26.53360123,9521,544,1,0,9,1.1086880559449597
undo,40,20,0,0,1,6,"[0, 12, 1, 5, 21, 8, 23, 9, 6]",9,0,[],3.511872362,10591,1070,1,0,9,1.1186240265999328
undo,40,20,0,1,1,6,"[0, 12, 1, 5, 21, 8, 23, 9, 6]",9,0,[],3.511872362,12189,1598,1,0,9,1.1186240265999328
undo,41,2,0,0,0,0,[0],1,23,"[1, 2, 4, 5, 6, 7, 8, 9, 12, 13, 15, 16, 17, 18, 19, 20, 22, 23, 25, 26, 27, 28, 29]",300,148,-1,70,620,10,0.0
undo,41,2,0,0,0,19,"[0, 19]",2,22,"[1, 2, 4, 5, 6, 7, 8, 9, 12, 13, 15, 16, 17, 18, 20, 22, 23, 25, 26, 27, 28, 29]",210.306076,2348,2200,67,431,10,1.0
undo,41,2,0,0,0,12,"[0, 19, 12]",3,17,"[1, 4, 5, 6, 7, 13, 15, 16, 17, 18, 20, 22, 25, 26, 27, 28, 29]",174.2921898,6176,3828,66,298,10,1.1107635036313153
undo,41,2,0,0,0,5,"[0, 19, 12, 5]",4,11,"[1, 6, 7, 13, 15, 16, 18, 22, 25, 26, 29]",144.7625437,7073,897,38,136,10,1.0968174771581647
undo,41,2,0,0,0,13,"[0, 19, 12, 5, 13]",5,9,"[1, 6, 7, 15, 18, 22, 25, 26, 29]",131.1610732,7541,468,18,63,10,1.1414029742578664
undo,41,2,0,0,0,22,"[0, 19, 12, 5, 13, 22]",6,7,"[1, 6, 7, 15, 18, 26, 29]",116.2950044,8001,460,16,16,10,1.1904825380032296
undo,41,2,0,0,0,18,"[0, 19, 12, 5, 13, 22, 18]",7,4,"[7, 15, 26, 29]",76.97579792,9701,1700,8,3,10,1.2403639687317394
undo,41,2,0,0,0,7,"[0, 19, 12, 5, 13, 22, 18, 7]",8,3,"[15, 26, 29]",66.68016778,10484,783,3,1,10,1.2279991169473683
undo,41,2,0,0,0,26,"[0, 19, 12, 5, 13, 22, 18, 7, 26]",9,1,[15],43.87665928,13465,2981,1,0,10,1.2117471773106117
undo,41,2,0,0,1,15,"[0, 19, 12, 5, 13, 22, 18, 7, 26, 15]",10,0,[],19.66922241,13993,528,1,0,10,1.4882186266815536
undo,41,2,0,1,1,15,"[0, 19, 12, 5, 13, 22, 18, 7, 26, 15]",10,0,[],19.66922241,15858,1865,1,0,10,1.4882186266815536
undo,42,31,0,0,0,0,[0],1,27,"[1, 3, 4, 5, 6, 7, 8, 10, 11, 12, 13, 14, 15, 16, 17, 18, 19, 20, 21, 22, 23, 24, 25, 26, 27, 28, 29]",300,145,-1,2,87,10,0.0
undo,42,31,0,0,0,14,"[0, 14]",2,25,"[1, 3, 5, 6, 7, 8, 10, 11, 12, 13, 15, 16, 17, 18, 19, 20, 21, 22, 23, 24, 25, 26, 27, 28, 29]",263.861378,1456,1311,2,59,10,1.0
undo,42,31,0,0,0,27,"[0, 14, 27]",3,22,"[1, 3, 5, 6, 7, 8, 10, 11, 12, 13, 15, 16, 17, 18, 19, 20, 21, 22, 24, 25, 28, 29]",235.6833724,3004,1548,1,39,10,1.5881859159302467
undo,42,31,0,0,0,8,"[0, 14, 27, 8]",4,20,"[1, 3, 5, 6, 7, 10, 11, 12, 13, 16, 17, 18, 19, 20, 21, 22, 24, 25, 28, 29]",224.6380114,3441,437,1,36,10,2.1665048452331277
undo,42,31,0,0,0,18,"[0, 14, 27, 8, 18]",5,15,"[1, 5, 6, 7, 11, 12, 13, 16, 17, 19, 20, 22, 25, 28, 29]",188.7911147,4426,985,1,26,10,1.7273375741920205
undo,42,31,0,0,0,11,"[0, 14, 27, 8, 18, 11]",6,11,"[1, 5, 7, 12, 16, 17, 19, 20, 22, 25, 28]",153.9055876,4994,568,13,17,9,2.386348208737804
undo,42,31,0,0,0,5,"[0, 14, 27, 8, 18, 11, 5]",7,5,"[16, 17, 20, 25, 28]",110.2249283,5663,669,3,3,9,2.163249612867222
undo,42,31,0,0,0,28,"[0, 14, 27, 8, 18, 11, 5, 28]",8,2,"[16, 17]",90.00117988,6122,459,2,0,9,1.9564635733184719
undo,42,31,0,0,1,16,"[0, 14, 27, 8, 18, 11, 5, 28, 16]",9,0,[],56.38570725,8046,1924,1,0,9,1.824071502589619
undo,42,31,1,0,0,28,"[0, 14, 27, 8, 18, 11, 5, 28]",8,2,"[16, 17]",90.00117988,10028,1982,2,0,9,1.9564635733184719
undo,42,31,1,0,0,5,"[0, 14, 27, 8, 18, 11, 5]",7,5,"[16, 17, 20, 25, 28]",110.2249283,10242,214,3,3,9,2.163249612867222
undo,42,31,1,0,0,11,"[0, 14, 27, 8, 18, 11]",6,11,"[1, 5, 7, 12, 16, 17, 19, 20, 22, 25, 28]",153.9055876,10509,267,13,17,9,2.386348208737804
undo,42,31,0,0,0,17,"[0, 14, 27, 8, 18, 11, 17]",7,7,"[1, 5, 12, 20, 22, 25, 28]",112.7959781,11303,794,7,3,9,2.0680793354233384
undo,42,31,0,0,0,25,"[0, 14, 27, 8, 18, 11, 17, 25]",8,2,"[12, 22]",52.35592511,11999,696,2,0,9,1.7167313436380267
undo,42,31,0,0,1,12,"[0, 14, 27, 8, 18, 11, 17, 25, 12]",9,0,[],21.76180802,13819,1820,1,0,9,1.603498569183538
undo,42,31,0,1,1,12,"[0, 14, 27, 8, 18, 11, 17, 25, 12]",9,0,[],21.76180802,15404,1585,1,0,9,1.603498569183538
undo,43,41,0,0,0,0,[0],1,29,"[1, 2, 3, 4, 5, 6, 7, 8, 9, 10, 11, 12, 13, 14, 15, 16, 17, 18, 19, 20, 21, 22, 23, 24, 25, 26, 27, 28, 29]",300,131,-1,1,143,10,0.0
undo,43,41,0,0,0,13,"[0, 13]",2,23,"[1, 2, 3, 5, 6, 7, 9, 10, 11, 12, 14, 15, 17, 18, 19, 20, 21, 22, 24, 25, 26, 27, 28]",258.2747079,2322,2191,1,55,10,1.0
undo,43,41,0,0,0,28,"[0, 13, 28]",3,22,"[1, 2, 3, 5, 6, 7, 9, 10, 11, 12, 14, 15, 17, 18, 19, 20, 21, 22, 24, 25, 26, 27]",223.7928286,3353,1031,1,39,10,1.895724242592676
undo,43,41,0,0,0,5,"[0, 13, 28, 5]",4,19,"[1, 2, 3, 6, 9, 10, 11, 12, 14, 15, 17, 18, 19, 20, 21, 22, 24, 25, 27]",210.1913581,3717,364,1,34,10,2.861541269398273
undo,43,41,0,0,0,3,"[0, 13, 28, 5, 3]",5,16,"[1, 2, 6, 9, 10, 12, 14, 17, 18, 19, 20, 21, 22, 24, 25, 27]",175.3632086,4380,663,1,22,10,3.1455488489005883
undo,43,41,0,0,0,21,"[0, 13, 28, 5, 3, 21]",6,14,"[1, 2, 6, 9, 10, 12, 14, 17, 18, 19, 20, 22, 25, 27]",143.2228912,6386,2006,13,11,9,3.207558429289677
undo,43,41,0,0,0,9,"[0, 13, 28, 5, 3, 21, 9]",7,6,"[1, 2, 10, 12, 14, 17]",93.85691102,7270,884,7,4,9,2.5050148501792275
undo,43,41,0,0,0,2,"[0, 13, 28, 5, 3, 21, 9, 2]",8,5,"[1, 10, 12, 14, 17]",81.77386505,8243,973,5,0,9,2.4119643847713177
undo,43,41,0,0,1,17,"[0, 13, 28, 5, 3, 21, 9, 2, 17]",9,0,[],49.21622385,10498,2255,1,0,9,3.9563478735796007
undo,43,41,0,1,1,17,"[0, 13, 28, 5, 3, 21, 9, 2, 17]",9,0,[],49.21622385,13030,2532,1,0,9,3.9563478735796007
undo,44,10,0,0,0,0,[0],1,29,"[1, 2, 3, 4, 5, 6, 7, 8, 9, 10, 11, 12, 13, 14, 15, 16, 17, 18, 19, 20, 21, 22, 23, 24, 25, 26, 27, 28, 29]",300,146,-1,1,100,9,0.0
undo,44,10,0,0,0,13,"[0, 13]",2,25,"[1, 2, 3, 4, 6, 7, 8, 9, 10, 11, 12, 14, 17, 18, 19, 20, 21, 22, 23, 24, 25, 26, 27, 28, 29]",249.4628849,1724,1578,1,79,9,1.0
undo,44,10,0,0,0,11,"[0, 13, 11]",3,20,"[1, 2, 3, 6, 7, 8, 9, 10, 12, 14, 18, 19, 20, 21, 22, 24, 26, 27, 28, 29]",206.4512586,3502,1778,1,54,9,1.0313137484914219
undo,44,10,0,0,0,19,"[0, 13, 11, 19]",4,11,"[2, 6, 8, 9, 10, 14, 18, 20, 24, 26, 27]",170.0919407,4186,684,1,22,9,1.0879446220132545
undo,44,10,0,0,0,2,"[0, 13, 11, 19, 2]",5,4,"[14, 20, 26, 27]",126.1829439,5163,977,1,4,9,1.06474052351343
undo,44,10,0,0,0,14,"[0, 13, 11, 19, 2, 14]",6,3,"[20, 26, 27]",114.0174188,6817,1654,1,3,9,1.1628909195912238
undo,44,10,0,0,0,26,"[0, 13, 11, 19, 2, 14, 26]",7,2,"[20, 27]",79.34754716,8088,1271,1,1,9,1.6660727647633602
undo,44,10,0,0,0,20,"[0, 13, 11, 19, 2, 14, 26, 20]",8,1,[27],47.56704999,11882,3794,1,0,9,2.085581809637999
undo,44,10,0,0,1,27,"[0, 13, 11, 19, 2, 14, 26, 20, 27]",9,0,[],2.312215998,12694,812,1,0,9,1.9116357409137932
undo,44,10,0,1,1,27,"[0, 13, 11, 19, 2, 14, 26, 20, 27]",9,0,[],2.312215998,13951,1257,1,0,9,1.9116357409137932
undo,45,39,0,0,0,0,[0],1,28,"[1, 2, 3, 4, 5, 6, 7, 9, 10, 11, 12, 13, 14, 15, 16, 17, 18, 19, 20, 21, 22, 23, 24, 25, 26, 27, 28, 29]",300,146,-1,1,30,10,0.0
undo,45,39,0,0,0,14,"[0, 14]",2,26,"[1, 2, 3, 4, 5, 6, 7, 9, 10, 12, 13, 15, 16, 17, 18, 19, 20, 21, 22, 23, 24, 25, 26, 27, 28, 29]",286.9615952,1884,1738,1,22,10,1.0
undo,45,39,1,0,0,0,[0],1,28,"[1, 2, 3, 4, 5, 6, 7, 9, 10, 11, 12, 13, 14, 15, 16, 17, 18, 19, 20, 21, 22, 23, 24, 25, 26, 27, 28, 29]",300,4333,2449,1,30,10,0.0
undo,45,39,0,0,0,29,"[0, 29]",2,26,"[1, 2, 3, 4, 5, 6, 7, 9, 10, 12, 13, 14, 15, 16, 17, 18, 19, 20, 21, 22, 23, 24, 25, 26, 27, 28]",243.0614366,7648,3315,8,104,9,1.0
undo,45,39,0,0,0,12,"[0, 29, 12]",3,18,"[1, 2, 4, 5, 7, 9, 10, 13, 14, 15, 16, 18, 19, 22, 23, 24, 26, 28]",182.5221931,9080,1432,5,54,9,1.0026200331524904
undo,45,39,0,0,0,10,"[0, 29, 12, 10]",4,16,"[1, 2, 4, 5, 7, 9, 13, 14, 15, 16, 18, 19, 22, 23, 24, 26]",147.0116313,11128,2048,5,34,9,1.2874817019928908
undo,45,39,0,0,0,7,"[0, 29, 12, 10, 7]",5,10,"[1, 2, 5, 13, 16, 18, 19, 22, 24, 26]",113.5900814,13199,2071,4,12,9,1.2250826263866774
undo,45,39,0,0,0,26,"[0, 29, 12, 10, 7, 26]",6,5,"[1, 16, 18, 19, 22]",94.90853971,14108,909,3,4,9,1.2697275353190085
undo,45,39,0,0,0,22,"[0, 29, 12, 10, 7, 26, 22]",7,2,"[16, 19]",77.18849457,14497,389,2,0,9,1.438961743955176
undo,45,39,0,0,0,16,"[0, 29, 12, 10, 7, 26, 22, 16]",8,1,[19],42.18849457,16367,1870,1,0,9,1.3580882130477205
undo,45,39,0,0,1,19,"[0, 29, 12, 10, 7, 26, 22, 16, 19]",9,0,[],24.72424537,17143,776,1,0,9,1.3646589157842668
undo,45,39,0,1,1,19,"[0, 29, 12, 10, 7, 26, 22, 16, 19]",9,0,[],24.72424537,20859,3716,1,0,9,1.3646589157842668
undo,46,35,0,0,0,0,[0],1,29,"[1, 2, 3, 4, 5, 6, 7, 8, 9, 10, 11, 12, 13, 14, 15, 16, 17, 18, 19, 20, 21, 22, 23, 24, 25, 26, 27, 28, 29]",300,149,-1,5,236,11,0.0
undo,46,35,0,0,0,27,"[0, 27]",2,27,"[1, 2, 4, 5, 6, 7, 8, 9, 10, 11, 12, 13, 14, 15, 16, 17, 18, 19, 20, 21, 22, 23, 24, 25, 26, 28, 29]",278.7867966,5114,4965,5,144,11,1.0
undo,46,35,0,0,0,24,"[0, 27, 24]",3,25,"[1, 2, 4, 5, 6, 7, 8, 9, 10, 11, 12, 13, 15, 16, 17, 18, 19, 20, 21, 22, 23, 25, 26, 28, 29]",234.6053525,6554,1440,3,80,11,2.1084080567904624
undo,46,35,0,0,0,17,"[0, 27, 24, 17]",4,20,"[1, 2, 4, 5, 6, 7, 8, 9, 10, 15, 16, 18, 19, 20, 21, 23, 25, 26, 28, 29]",222.9006526,6842,288,3,50,11,1.9439555968916868
undo,46,35,0,0,0,1,"[0, 27, 24, 17, 1]",5,18,"[2, 4, 5, 6, 8, 9, 10, 15, 16, 18, 19, 20, 21, 23, 25, 26, 28, 29]",207.0892643,7210,368,3,39,11,1.9436711872547336
undo,46,35,0,0,0,15,"[0, 27, 24, 17, 1, 15]",6,16,"[2, 4, 5, 6, 8, 9, 10, 16, 18, 19, 20, 23, 25, 26, 28, 29]",184.241945,8426,1216,3,24,11,2.082774572108194
undo,46,35,0,0,0,23,"[0, 27, 24, 17, 1, 15, 23]",7,7,"[5, 6, 9, 18, 19, 25, 26]",123.801892,9760,1334,3,14,11,1.657239080954205
undo,46,35,0,0,0,9,"[0, 27, 24, 17, 1, 15, 23, 9]",8,4,"[6, 18, 19, 25]",86.15883157,10416,656,2,2,11,1.9022575917054987
undo,46,35,0,0,0,18,"[0, 27, 24, 17, 1, 15, 23, 9, 18]",9,2,"[6, 25]",66.13384718,11254,838,2,0,11,1.8181129550839106
undo,46,35,0,0,0,6,"[0, 27, 24, 17, 1, 15, 23, 9, 18, 6]",10,1,[25],32.51837455,11964,710,1,0,11,1.768804611828727
undo,46,35,0,0,1,25,"[0, 27, 24, 17, 1, 15, 23, 9, 18, 6, 25]",11,0,[],8.497550251,12913,949,1,0,11,1.8000495513746106
undo,46,35,0,1,1,25,"[0, 27, 24, 17, 1, 15, 23, 9, 18, 6, 25]",11,0,[],8.497550251,14205,1292,1,0,11,1.8000495513746106
undo,47,1,0,0,0,0,[0],1,26,"[1, 2, 4, 5, 7, 8, 9, 10, 11, 12, 13, 14, 15, 16, 17, 18, 19, 20, 21, 22, 23, 24, 25, 26, 28, 29]",300,133,-1,6,74,7,0.0
undo,47,1,0,0,0,8,"[0, 8]",2,23,"[1, 4, 5, 7, 9, 10, 11, 12, 13, 14, 15, 16, 17, 18, 19, 20, 21, 23, 24, 25, 26, 28, 29]",202,3150,3017,1,16,7,1.0
undo,47,1,0,0,0,20,"[0, 8, 20]",3,12,"[1, 4, 5, 11, 13, 14, 15, 17, 18, 19, 28, 29]",125.9408125,4236,1086,1,7,7,1.02364736730791
undo,47,1,0,0,0,5,"[0, 8, 20, 5]",4,7,"[1, 4, 11, 13, 17, 18, 29]",104.469902,4764,528,1,3,7,1.0439599203945713
undo,47,1,0,0,0,18,"[0, 8, 20, 5, 18]",5,2,"[4, 29]",81.64447755,5266,502,1,1,7,1.0840407791793756
undo,47,1,0,0,0,4,"[0, 8, 20, 5, 18, 4]",6,1,[29],42.69579336,7118,1852,1,0,7,1.0902329133216275
undo,47,1,1,0,0,18,"[0, 8, 20, 5, 18]",5,2,"[4, 29]",81.64447755,10082,2964,1,1,7,1.0840407791793756
undo,47,1,1,0,0,5,"[0, 8, 20, 5]",4,7,"[1, 4, 11, 13, 17, 18, 29]",104.469902,10309,227,1,3,7,1.0439599203945713
undo,47,1,1,0,0,20,"[0, 8, 20]",3,12,"[1, 4, 5, 11, 13, 14, 15, 17, 18, 19, 28, 29]",125.9408125,10509,200,1,7,7,1.02364736730791
undo,47,1,0,0,0,18,"[0, 8, 20, 18]",4,7,"[1, 4, 5, 11, 13, 17, 29]",94.31803592,12050,1541,4,4,6,1.0211220403435577
undo,47,1,0,0,0,4,"[0, 8, 20, 18, 4]",5,2,"[13, 29]",55.36935173,12605,555,2,0,6,1.0365333230805374
undo,47,1,0,0,1,13,"[0, 8, 20, 18, 4, 13]",6,0,[],10.98466969,13287,682,1,0,6,1.031447975879294
undo,47,1,1,0,0,4,"[0, 8, 20, 18, 4]",5,2,"[13, 29]",55.36935173,14603,1316,2,0,6,1.0365333230805374
undo,47,1,1,0,0,18,"[0, 8, 20, 18]",4,7,"[1, 4, 5, 11, 13, 17, 29]",94.31803592,14804,201,4,4,6,1.0211220403435577
undo,47,1,1,0,0,20,"[0, 8, 20]",3,12,"[1, 4, 5, 11, 13, 14, 15, 17, 18, 19, 28, 29]",125.9408125,14977,173,1,7,7,1.02364736730791
undo,47,1,1,0,0,8,"[0, 8]",2,23,"[1, 4, 5, 7, 9, 10, 11, 12, 13, 14, 15, 16, 17, 18, 19, 20, 21, 23, 24, 25, 26, 28, 29]",202,15417,440,1,16,7,1.0
undo,47,1,1,0,0,0,[0],1,26,"[1, 2, 4, 5, 7, 8, 9, 10, 11, 12, 13, 14, 15, 16, 17, 18, 19, 20, 21, 22, 23, 24, 25, 26, 28, 29]",300,15951,534,6,74,7,0.0
undo,47,1,0,0,0,14,"[0, 14]",2,19,"[1, 4, 5, 8, 9, 13, 15, 17, 18, 19, 20, 21, 22, 23, 24, 25, 26, 28, 29]",200.1901808,16608,657,5,42,7,1.0
undo,47,1,0,0,0,17,"[0, 14, 17]",3,15,"[1, 4, 5, 8, 9, 13, 15, 18, 19, 20, 22, 23, 25, 28, 29]",147.8356204,18424,1816,5,27,7,1.0028844724416826
undo,47,1,0,0,0,1,"[0, 14, 17, 1]",4,12,"[4, 5, 8, 9, 15, 18, 20, 22, 23, 25, 28, 29]",123.4840291,19041,617,5,15,7,1.0264985578353567
undo,47,1,0,0,0,28,"[0, 14, 17, 1, 28]",5,5,"[9, 15, 22, 23, 29]",88.59850198,19885,844,5,3,7,1.0339861575999345
undo,47,1,0,0,0,23,"[0, 14, 17, 1, 28, 23]",6,2,"[15, 22]",51.70676849,21115,1230,2,0,7,1.0327458250705703
undo,47,1,0,0,1,15,"[0, 14, 17, 1, 28, 23, 15]",7,0,[],20.81987807,21593,478,1,0,7,1.1948681641401226
undo,47,1,1,0,0,23,"[0, 14, 17, 1, 28, 23]",6,2,"[15, 22]",51.70676849,22687,1094,2,0,7,1.0327458250705703
undo,47,1,1,0,0,28,"[0, 14, 17, 1, 28]",5,5,"[9, 15, 22, 23, 29]",88.59850198,22927,240,5,3,7,1.0339861575999345
undo,47,1,0,0,0,15,"[0, 14, 17, 1, 28, 15]",6,3,"[22, 23, 29]",53.37067208,23425,498,3,0,7,1.055553419196412
