condition,trial_id,map_id,undoIndicator,submit,checkEnd,currentChoice,chosen_all,n_city_all,n_within_reach,cities_reach,currentBudget,time_all,rt_all,n_opt_paths_all,n_subopt_paths_all,mas_all,tortuosity_all
undo,0,37,0,0,0,0,[0],1,29,"[1, 2, 3, 4, 5, 6, 7, 8, 9, 10, 11, 12, 13, 14, 15, 16, 17, 18, 19, 20, 21, 22, 23, 24, 25, 26, 27, 28, 29]",300,177,-1,6,168,10,0.0
undo,0,37,0,0,0,19,"[0, 19]",2,19,"[1, 2, 4, 5, 6, 7, 9, 10, 11, 15, 17, 18, 20, 21, 22, 25, 26, 28, 29]",185.6627795,15271,15094,25,244,9,1.0
undo,0,37,0,0,0,1,"[0, 19, 1]",3,9,"[2, 4, 7, 15, 18, 20, 21, 22, 26]",128.7242161,19704,4433,18,68,8,1.081837694273419
undo,0,37,0,0,0,4,"[0, 19, 1, 4]",4,8,"[2, 7, 15, 18, 20, 21, 22, 26]",111.0041709,20689,985,8,20,8,1.1628145888308006
undo,0,37,0,0,0,22,"[0, 19, 1, 4, 22]",5,5,"[2, 7, 15, 18, 20]",86.00417093,22126,1437,4,3,7,1.314020598850692
undo,0,37,0,0,0,2,"[0, 19, 1, 4, 22, 2]",6,3,"[7, 15, 20]",58.34553756,23918,1792,3,0,7,1.5985389012159275
undo,0,37,0,0,1,7,"[0, 19, 1, 4, 22, 2, 7]",7,0,[],2.802761255,25169,1251,1,0,7,2.4806089091106385
undo,0,37,0,1,1,7,"[0, 19, 1, 4, 22, 2, 7]",7,0,[],2.802761255,27360,2191,1,0,7,2.4806089091106385
undo,1,40,0,0,0,0,[0],1,29,"[1, 2, 3, 4, 5, 6, 7, 8, 9, 10, 11, 12, 13, 14, 15, 16, 17, 18, 19, 20, 21, 22, 23, 24, 25, 26, 27, 28, 29]",300,146,-1,8,191,9,0.0
undo,1,40,0,0,0,9,"[0, 9]",2,14,"[1, 2, 5, 6, 7, 8, 11, 17, 18, 19, 21, 22, 23, 27]",176.6711713,6461,6315,2,57,7,1.0
undo,1,40,1,0,0,0,[0],1,29,"[1, 2, 3, 4, 5, 6, 7, 8, 9, 10, 11, 12, 13, 14, 15, 16, 17, 18, 19, 20, 21, 22, 23, 24, 25, 26, 27, 28, 29]",300,8896,2435,8,191,9,0.0
undo,1,40,0,0,0,2,"[0, 2]",2,28,"[1, 3, 4, 5, 6, 7, 8, 9, 10, 11, 12, 13, 14, 15, 16, 17, 18, 19, 20, 21, 22, 23, 24, 25, 26, 27, 28, 29]",263.7646581,10271,1375,4,79,9,1.0
undo,1,40,0,0,0,19,"[0, 2, 19]",3,22,"[1, 5, 6, 7, 8, 9, 10, 11, 13, 14, 15, 17, 18, 20, 21, 22, 23, 24, 25, 26, 27, 29]",194.4249148,11895,1624,19,105,8,1.02908296307533
undo,1,40,0,0,0,23,"[0, 2, 19, 23]",4,15,"[1, 5, 6, 7, 8, 9, 10, 11, 13, 17, 18, 21, 22, 27, 29]",162.4718242,12787,892,11,38,8,1.4499965171787688
undo,1,40,0,0,0,9,"[0, 2, 19, 23, 9]",5,6,"[1, 5, 6, 18, 21, 22]",114.2017507,14142,1355,2,9,8,1.5065273155379109
undo,1,40,0,0,0,18,"[0, 2, 19, 23, 9, 18]",6,5,"[1, 5, 6, 21, 22]",97.64880532,15510,1368,2,3,8,1.7082285843974157
undo,1,40,0,0,0,5,"[0, 2, 19, 23, 9, 18, 5]",7,1,[22],66.07349852,22244,6734,1,0,8,1.9020929419926735
undo,1,40,0,0,1,22,"[0, 2, 19, 23, 9, 18, 5, 22]",8,0,[],3.463595146,25285,3041,1,0,8,1.6743851823878557
undo,1,40,0,1,1,22,"[0, 2, 19, 23, 9, 18, 5, 22]",8,0,[],3.463595146,26395,1110,1,0,8,1.6743851823878557
undo,2,33,0,0,0,0,[0],1,23,"[1, 2, 5, 7, 8, 11, 12, 13, 14, 15, 16, 17, 18, 19, 20, 21, 23, 24, 25, 26, 27, 28, 29]",300,150,-1,5,108,9,0.0
undo,2,33,0,0,0,21,"[0, 21]",2,17,"[2, 5, 7, 8, 11, 13, 14, 16, 17, 18, 19, 20, 24, 26, 27, 28, 29]",174.4611614,7787,7637,21,129,8,1.0
undo,2,33,0,0,0,13,"[0, 21, 13]",3,15,"[2, 5, 7, 8, 11, 14, 16, 17, 18, 19, 20, 24, 26, 28, 29]",148.0604038,15902,8115,17,72,8,1.0001005298764474
undo,2,33,0,0,0,26,"[0, 21, 13, 26]",4,8,"[7, 11, 14, 17, 19, 20, 24, 29]",73.73678712,16920,1018,4,10,7,1.0000980854775965
undo,2,33,0,0,0,14,"[0, 21, 13, 26, 14]",5,4,"[7, 19, 24, 29]",61.08767648,17608,688,3,3,7,1.1012591262849363
undo,2,33,0,0,0,7,"[0, 21, 13, 26, 14, 7]",6,3,"[19, 24, 29]",46.22160773,18394,786,3,0,7,1.1908836346239835
undo,2,33,0,0,1,24,"[0, 21, 13, 26, 14, 7, 24]",7,0,[],17.015444,20451,2057,1,0,7,1.3899038284245597
undo,2,33,0,1,1,24,"[0, 21, 13, 26, 14, 7, 24]",7,0,[],17.015444,23779,3328,1,0,7,1.3899038284245597
undo,3,7,0,0,0,0,[0],1,29,"[1, 2, 3, 4, 5, 6, 7, 8, 9, 10, 11, 12, 13, 14, 15, 16, 17, 18, 19, 20, 21, 22, 23, 24, 25, 26, 27, 28, 29]",300,162,-1,3,79,9,0.0
undo,3,7,0,0,0,23,"[0, 23]",2,28,"[1, 2, 3, 4, 5, 6, 7, 8, 9, 10, 11, 12, 13, 14, 15, 16, 17, 18, 19, 20, 21, 22, 24, 25, 26, 27, 28, 29]",253.7290588,4641,4479,6,103,8,1.0
undo,3,7,0,0,0,25,"[0, 23, 25]",3,12,"[2, 4, 6, 7, 13, 14, 15, 16, 18, 19, 20, 21]",143.833654,7054,2413,3,39,8,1.3189047790460706
undo,3,7,0,0,0,4,"[0, 23, 25, 4]",4,9,"[2, 6, 7, 13, 15, 16, 18, 19, 20]",119.0950202,11155,4101,2,16,8,1.2882408504092724
undo,3,7,0,0,0,20,"[0, 23, 25, 4, 20]",5,6,"[2, 6, 7, 13, 18, 19]",99.44813752,11803,648,1,7,8,1.33778558273816
undo,3,7,0,0,0,18,"[0, 23, 25, 4, 20, 18]",6,3,"[7, 13, 19]",86.64188904,12370,567,1,2,8,1.4902303813643722
undo,3,7,0,0,0,7,"[0, 23, 25, 4, 20, 18, 7]",7,1,[19],45.41083279,13623,1253,1,0,8,1.3916756134202917
undo,3,7,0,0,1,19,"[0, 23, 25, 4, 20, 18, 7, 19]",8,0,[],15.99995045,14695,1072,1,0,8,1.501301453425073
undo,3,7,0,1,1,19,"[0, 23, 25, 4, 20, 18, 7, 19]",8,0,[],15.99995045,15928,1233,1,0,8,1.501301453425073
undo,4,22,0,0,0,0,[0],1,29,"[1, 2, 3, 4, 5, 6, 7, 8, 9, 10, 11, 12, 13, 14, 15, 16, 17, 18, 19, 20, 21, 22, 23, 24, 25, 26, 27, 28, 29]",300,148,-1,31,704,9,0.0
undo,4,22,0,0,0,13,"[0, 13]",2,22,"[1, 3, 5, 6, 7, 8, 9, 10, 12, 14, 15, 16, 17, 19, 20, 21, 23, 24, 25, 26, 28, 29]",189.3202819,14757,14609,2,52,8,1.0
undo,4,22,0,0,0,15,"[0, 13, 15]",3,17,"[1, 3, 5, 6, 7, 8, 9, 10, 14, 17, 19, 20, 21, 23, 24, 26, 29]",173.7639327,17696,2939,2,40,8,1.001747361505262
undo,4,22,0,0,0,20,"[0, 13, 15, 20]",4,12,"[1, 3, 7, 8, 9, 14, 17, 19, 21, 23, 24, 29]",124.9172337,18707,1011,1,19,8,1.2067501174044284
undo,4,22,0,0,0,24,"[0, 13, 15, 20, 24]",5,8,"[1, 3, 7, 14, 17, 19, 21, 29]",87.26089297,20590,1883,1,6,8,1.5860161698462862
undo,4,22,1,0,0,20,"[0, 13, 15, 20]",4,12,"[1, 3, 7, 8, 9, 14, 17, 19, 21, 23, 24, 29]",124.9172337,25798,5208,1,19,8,1.2067501174044284
undo,4,22,1,0,0,15,"[0, 13, 15]",3,17,"[1, 3, 5, 6, 7, 8, 9, 10, 14, 17, 19, 20, 21, 23, 24, 26, 29]",173.7639327,25964,166,2,40,8,1.001747361505262
undo,4,22,1,0,0,13,"[0, 13]",2,22,"[1, 3, 5, 6, 7, 8, 9, 10, 12, 14, 15, 16, 17, 19, 20, 21, 23, 24, 25, 26, 28, 29]",189.3202819,26131,167,2,52,8,1.0
undo,4,22,1,0,0,0,[0],1,29,"[1, 2, 3, 4, 5, 6, 7, 8, 9, 10, 11, 12, 13, 14, 15, 16, 17, 18, 19, 20, 21, 22, 23, 24, 25, 26, 27, 28, 29]",300,26315,184,31,704,9,0.0
undo,4,22,0,0,0,16,"[0, 16]",2,21,"[1, 3, 6, 7, 8, 9, 11, 13, 14, 15, 17, 18, 19, 20, 21, 22, 24, 25, 27, 28, 29]",218.605897,27803,1488,17,147,9,1.0
undo,4,22,0,0,0,28,"[0, 16, 28]",3,13,"[6, 7, 9, 13, 14, 17, 19, 20, 21, 22, 24, 25, 29]",184.1675463,28658,855,12,61,9,1.047282311284478
undo,4,22,0,0,0,6,"[0, 16, 28, 6]",4,12,"[7, 9, 13, 14, 17, 19, 20, 21, 22, 24, 25, 29]",154.1675463,29330,672,12,43,9,1.645645870580622
undo,4,22,0,0,0,9,"[0, 16, 28, 6, 9]",5,8,"[7, 14, 17, 19, 20, 21, 24, 29]",127.5404924,31533,2203,8,17,9,1.925750226630103
undo,4,22,0,0,0,14,"[0, 16, 28, 6, 9, 14]",6,5,"[7, 17, 19, 24, 29]",84.49400589,35842,4309,2,4,9,1.6636058370259441
undo,4,22,0,0,0,7,"[0, 16, 28, 6, 9, 14, 7]",7,4,"[17, 19, 24, 29]",71.45560108,36974,1132,2,2,9,1.8172242553661921
undo,4,22,0,0,0,19,"[0, 16, 28, 6, 9, 14, 7, 19]",8,1,[29],25.18465988,38311,1337,1,0,9,3.451408325118739
undo,4,22,0,0,1,29,"[0, 16, 28, 6, 9, 14, 7, 19, 29]",9,0,[],10.1513635,39049,738,1,0,9,3.763950601205494
undo,4,22,0,1,1,29,"[0, 16, 28, 6, 9, 14, 7, 19, 29]",9,0,[],10.1513635,40398,1349,1,0,9,3.763950601205494
undo,5,21,0,0,0,0,[0],1,29,"[1, 2, 3, 4, 5, 6, 7, 8, 9, 10, 11, 12, 13, 14, 15, 16, 17, 18, 19, 20, 21, 22, 23, 24, 25, 26, 27, 28, 29]",300,147,-1,84,830,9,0.0
undo,5,21,0,0,0,25,"[0, 25]",2,26,"[1, 2, 3, 4, 5, 6, 7, 8, 9, 10, 11, 12, 13, 14, 15, 16, 17, 18, 20, 21, 22, 23, 24, 26, 27, 29]",240.1836143,11605,11458,30,238,9,1.0
undo,5,21,0,0,0,21,"[0, 25, 21]",3,18,"[1, 3, 4, 6, 8, 9, 11, 12, 14, 15, 16, 17, 18, 20, 22, 23, 24, 29]",190.8480288,24152,12547,15,84,9,1.2142997420204755
undo,5,21,0,0,0,14,"[0, 25, 21, 14]",4,14,"[1, 4, 6, 8, 9, 15, 16, 17, 18, 20, 22, 23, 24, 29]",165.2355318,26122,1970,5,37,9,1.1765448423019491
undo,5,21,0,0,0,4,"[0, 25, 21, 14, 4]",5,10,"[8, 9, 15, 16, 17, 18, 22, 23, 24, 29]",151.0933962,26752,630,3,20,9,1.1641858298437302
undo,5,21,0,0,0,16,"[0, 25, 21, 14, 4, 16]",6,5,"[8, 15, 17, 23, 24]",106.4951899,28175,1423,1,5,9,1.1855407976594248
undo,5,21,0,0,0,8,"[0, 25, 21, 14, 4, 16, 8]",7,3,"[15, 23, 24]",87.8941147,29320,1145,1,2,9,1.1707127593616282
undo,5,21,0,0,0,15,"[0, 25, 21, 14, 4, 16, 8, 15]",8,1,[24],62.8941147,30676,1356,1,0,9,1.4084531679038648
undo,5,21,0,0,1,24,"[0, 25, 21, 14, 4, 16, 8, 15, 24]",9,0,[],17.18853517,31752,1076,1,0,9,1.4220252128555146
undo,5,21,0,1,1,24,"[0, 25, 21, 14, 4, 16, 8, 15, 24]",9,0,[],17.18853517,33012,1260,1,0,9,1.4220252128555146
undo,6,36,0,0,0,0,[0],1,24,"[2, 4, 5, 6, 7, 8, 9, 10, 12, 13, 14, 15, 16, 17, 18, 19, 20, 22, 23, 25, 26, 27, 28, 29]",300,147,-1,2,200,10,0.0
undo,6,36,0,0,0,12,"[0, 12]",2,23,"[2, 4, 5, 6, 7, 8, 9, 10, 13, 14, 15, 16, 17, 18, 19, 20, 22, 23, 25, 26, 27, 28, 29]",277.7963967,6696,6549,90,804,9,1.0
undo,6,36,0,0,0,9,"[0, 12, 9]",3,14,"[2, 4, 8, 10, 13, 16, 17, 18, 19, 23, 25, 27, 28, 29]",215.4345494,8507,1811,32,191,9,1.224429481246385
undo,6,36,0,0,0,16,"[0, 12, 9, 16]",4,8,"[2, 10, 13, 17, 18, 19, 23, 25]",168.137615,9593,1086,7,26,9,1.235383731443557
undo,6,36,0,0,0,17,"[0, 12, 9, 16, 17]",5,6,"[2, 10, 13, 18, 19, 25]",139.8180105,10571,978,7,14,9,1.6947865799475665
undo,6,36,0,0,0,2,"[0, 12, 9, 16, 17, 2]",6,4,"[10, 13, 19, 25]",98.58695424,11742,1171,1,6,9,1.783534099470474
undo,6,36,0,0,0,25,"[0, 12, 9, 16, 17, 2, 25]",7,3,"[10, 13, 19]",73.58695424,14554,2812,1,2,9,1.9775762177096403
undo,6,36,0,0,0,13,"[0, 12, 9, 16, 17, 2, 25, 13]",8,1,[19],52.99569396,15357,803,1,0,9,2.518355220137204
undo,6,36,0,0,1,19,"[0, 12, 9, 16, 17, 2, 25, 13, 19]",9,0,[],9.579107269,16755,1398,1,0,9,3.767888823547416
undo,6,36,0,1,1,19,"[0, 12, 9, 16, 17, 2, 25, 13, 19]",9,0,[],9.579107269,18080,1325,1,0,9,3.767888823547416
undo,7,32,0,0,0,0,[0],1,29,"[1, 2, 3, 4, 5, 6, 7, 8, 9, 10, 11, 12, 13, 14, 15, 16, 17, 18, 19, 20, 21, 22, 23, 24, 25, 26, 27, 28, 29]",300,163,-1,17,359,10,0.0
undo,7,32,0,0,0,15,"[0, 15]",2,24,"[2, 3, 4, 5, 6, 7, 8, 9, 10, 11, 12, 13, 14, 16, 17, 19, 20, 22, 23, 24, 25, 26, 27, 28]",214.6185032,8528,8365,11,153,9,1.0
undo,7,32,0,0,0,28,"[0, 15, 28]",3,21,"[2, 3, 5, 7, 8, 9, 10, 11, 12, 13, 14, 16, 17, 19, 20, 22, 23, 24, 25, 26, 27]",203.2167489,9129,601,11,119,9,1.000160051986942
undo,7,32,0,0,0,12,"[0, 15, 28, 12]",4,19,"[2, 3, 5, 7, 8, 9, 10, 11, 13, 16, 17, 19, 20, 22, 23, 24, 25, 26, 27]",184.243083,9778,649,8,71,9,1.0281484763748023
undo,7,32,0,0,0,16,"[0, 15, 28, 12, 16]",5,17,"[2, 3, 5, 7, 8, 9, 10, 11, 13, 17, 19, 20, 22, 23, 24, 26, 27]",168.5906071,10428,650,6,38,9,1.1190771370096
undo,7,32,0,0,0,22,"[0, 15, 28, 12, 16, 22]",6,10,"[2, 3, 5, 8, 9, 10, 11, 17, 20, 27]",134.7527585,17693,7265,4,16,9,1.1702311155319893
undo,7,32,0,0,0,9,"[0, 15, 28, 12, 16, 22, 9]",7,6,"[2, 8, 10, 17, 20, 27]",112.5491552,18953,1260,2,4,9,1.2381424719932013
undo,7,32,0,0,1,20,"[0, 15, 28, 12, 16, 22, 9, 20]",8,0,[],49.89933475,23919,4966,1,0,8,1.2364565983287013
undo,7,32,1,0,0,9,"[0, 15, 28, 12, 16, 22, 9]",7,6,"[2, 8, 10, 17, 20, 27]",112.5491552,26279,2360,2,4,9,1.2381424719932013
undo,7,32,0,0,1,20,"[0, 15, 28, 12, 16, 22, 9, 20]",8,0,[],49.89933475,27484,1205,1,0,8,1.2364565983287013
undo,7,32,1,0,0,9,"[0, 15, 28, 12, 16, 22, 9]",7,6,"[2, 8, 10, 17, 20, 27]",112.5491552,29062,1578,2,4,9,1.2381424719932013
undo,7,32,1,0,0,22,"[0, 15, 28, 12, 16, 22]",6,10,"[2, 3, 5, 8, 9, 10, 11, 17, 20, 27]",134.7527585,29245,183,4,16,9,1.1702311155319893
undo,7,32,0,0,0,27,"[0, 15, 28, 12, 16, 22, 27]",7,2,"[3, 11]",51.22432022,35567,6322,2,0,9,1.3594299441530053
undo,7,32,0,0,0,3,"[0, 15, 28, 12, 16, 22, 27, 3]",8,1,[11],25.72922265,37334,1767,1,0,9,1.3461314710402597
undo,7,32,0,0,1,11,"[0, 15, 28, 12, 16, 22, 27, 3, 11]",9,0,[],10.1087233,38585,1251,1,0,9,1.3750045950993266
undo,7,32,0,1,1,11,"[0, 15, 28, 12, 16, 22, 27, 3, 11]",9,0,[],10.1087233,39495,910,1,0,9,1.3750045950993266
undo,8,13,0,0,0,0,[0],1,29,"[1, 2, 3, 4, 5, 6, 7, 8, 9, 10, 11, 12, 13, 14, 15, 16, 17, 18, 19, 20, 21, 22, 23, 24, 25, 26, 27, 28, 29]",300,162,-1,60,2676,11,0.0
undo,8,13,0,0,0,28,"[0, 28]",2,24,"[1, 2, 3, 4, 6, 7, 8, 9, 10, 11, 12, 13, 15, 16, 17, 19, 20, 21, 22, 23, 24, 26, 27, 29]",226.3182519,3128,2966,12,378,10,1.0
undo,8,13,0,0,0,2,"[0, 28, 2]",3,20,"[1, 3, 4, 6, 7, 9, 11, 12, 13, 15, 16, 17, 19, 20, 21, 23, 24, 26, 27, 29]",188.6751915,5626,2498,9,174,10,1.0158286399660754
undo,8,13,0,0,0,29,"[0, 28, 2, 29]",4,19,"[1, 3, 4, 6, 7, 9, 11, 12, 13, 15, 16, 17, 19, 20, 21, 23, 24, 26, 27]",176.9704916,6293,667,9,132,10,1.1053279759370194
undo,8,13,0,0,0,7,"[0, 28, 2, 29, 7]",5,18,"[1, 3, 4, 6, 9, 11, 12, 13, 15, 16, 17, 19, 20, 21, 23, 24, 26, 27]",161.706154,6877,584,6,72,10,1.313811244316471
undo,8,13,0,0,0,26,"[0, 28, 2, 29, 7, 26]",6,17,"[1, 3, 4, 6, 9, 11, 12, 13, 15, 16, 17, 19, 20, 21, 23, 24, 27]",151.2658475,10905,4028,6,39,10,1.554636901089982
undo,8,13,0,0,0,23,"[0, 28, 2, 29, 7, 26, 23]",7,9,"[3, 4, 6, 9, 11, 16, 20, 21, 24]",91.72594494,27504,16599,1,7,10,3.6852564659079787
undo,8,13,0,0,0,16,"[0, 28, 2, 29, 7, 26, 23, 16]",8,2,"[3, 20]",51.4146562,28893,1389,1,1,10,2.700579188573217
undo,8,13,0,0,0,3,"[0, 28, 2, 29, 7, 26, 23, 16, 3]",9,1,[20],22.97173089,30404,1511,1,0,10,2.7204121781637247
undo,8,13,0,0,1,20,"[0, 28, 2, 29, 7, 26, 23, 16, 3, 20]",10,0,[],3.945433304,31576,1172,1,0,10,2.690960401691732
undo,8,13,0,1,1,20,"[0, 28, 2, 29, 7, 26, 23, 16, 3, 20]",10,0,[],3.945433304,32394,818,1,0,10,2.690960401691732
undo,9,38,0,0,0,0,[0],1,29,"[1, 2, 3, 4, 5, 6, 7, 8, 9, 10, 11, 12, 13, 14, 15, 16, 17, 18, 19, 20, 21, 22, 23, 24, 25, 26, 27, 28, 29]",300,148,-1,33,506,9,0.0
undo,9,38,0,0,0,11,"[0, 11]",2,23,"[1, 2, 3, 4, 5, 7, 10, 12, 13, 14, 15, 16, 17, 18, 19, 20, 21, 22, 24, 25, 26, 27, 28]",220.093805,2340,2192,2,40,9,1.0
undo,9,38,0,0,0,28,"[0, 11, 28]",3,16,"[1, 4, 5, 7, 10, 12, 13, 14, 15, 16, 17, 19, 20, 21, 24, 26]",193.0752928,3388,1048,2,20,9,1.0012220945316377
undo,9,38,0,0,0,16,"[0, 11, 28, 16]",4,13,"[1, 4, 5, 10, 12, 13, 14, 15, 17, 19, 20, 24, 26]",164.0752928,4658,1270,2,16,9,1.2422672958602723
undo,9,38,0,0,0,15,"[0, 11, 28, 16, 15]",5,9,"[4, 5, 13, 14, 17, 19, 20, 24, 26]",122.4579887,6056,1398,2,14,9,2.4196280466601676
undo,9,38,0,0,0,4,"[0, 11, 28, 16, 15, 4]",6,6,"[13, 17, 19, 20, 24, 26]",96.45798873,7154,1098,2,9,9,2.9030072771852855
undo,9,38,0,0,0,20,"[0, 11, 28, 16, 15, 4, 20]",7,3,"[13, 17, 19]",62.51686323,11641,4487,1,2,9,4.409951139385221
undo,9,38,0,0,0,17,"[0, 11, 28, 16, 15, 4, 20, 17]",8,1,[19],38.74713459,12438,797,1,0,9,4.030739410625113
undo,9,38,0,0,1,19,"[0, 11, 28, 16, 15, 4, 20, 17, 19]",9,0,[],17.36957626,13340,902,1,0,9,3.511004666623391
undo,9,38,0,1,1,19,"[0, 11, 28, 16, 15, 4, 20, 17, 19]",9,0,[],17.36957626,14396,1056,1,0,9,3.511004666623391
undo,10,24,0,0,0,0,[0],1,29,"[1, 2, 3, 4, 5, 6, 7, 8, 9, 10, 11, 12, 13, 14, 15, 16, 17, 18, 19, 20, 21, 22, 23, 24, 25, 26, 27, 28, 29]",300,147,-1,4,76,10,0.0
undo,10,24,0,0,0,14,"[0, 14]",2,27,"[1, 2, 3, 4, 5, 6, 8, 9, 10, 11, 12, 13, 15, 16, 17, 18, 19, 20, 21, 22, 23, 24, 25, 26, 27, 28, 29]",278.0455016,20886,20739,4,54,10,1.0
undo,10,24,0,0,0,10,"[0, 14, 10]",3,20,"[1, 2, 3, 4, 6, 8, 9, 11, 15, 16, 17, 19, 20, 22, 23, 24, 26, 27, 28, 29]",229.342319,21722,836,10,99,9,1.0038790212375874
undo,10,24,0,0,0,24,"[0, 14, 10, 24]",4,14,"[1, 2, 4, 6, 8, 9, 11, 15, 16, 20, 22, 23, 28, 29]",176.0037775,22597,875,4,26,9,1.0345598967195753
undo,10,24,0,0,0,6,"[0, 14, 10, 24, 6]",5,11,"[1, 8, 9, 11, 15, 16, 20, 22, 23, 28, 29]",138.6674681,23709,1112,4,19,9,1.4136213103786264
undo,10,24,0,0,0,8,"[0, 14, 10, 24, 6, 8]",6,5,"[15, 16, 22, 23, 28]",77.83984283,24951,1242,4,4,9,2.0175546172818692
undo,10,24,0,0,0,22,"[0, 14, 10, 24, 6, 8, 22]",7,3,"[15, 16, 28]",64.42343497,25864,913,2,1,9,2.235490370965466
undo,10,24,0,0,0,15,"[0, 14, 10, 24, 6, 8, 22, 15]",8,1,[16],43.21023153,27434,1570,1,0,9,2.146708489966832
undo,10,24,0,0,1,16,"[0, 14, 10, 24, 6, 8, 22, 15, 16]",9,0,[],12.79641888,32127,4693,1,0,9,3.20383312081356
undo,10,24,0,1,1,16,"[0, 14, 10, 24, 6, 8, 22, 15, 16]",9,0,[],12.79641888,34047,1920,1,0,9,3.20383312081356
undo,11,16,0,0,0,0,[0],1,29,"[1, 2, 3, 4, 5, 6, 7, 8, 9, 10, 11, 12, 13, 14, 15, 16, 17, 18, 19, 20, 21, 22, 23, 24, 25, 26, 27, 28, 29]",300,163,-1,13,161,9,0.0
undo,11,16,0,0,0,17,"[0, 17]",2,27,"[1, 2, 3, 4, 5, 7, 8, 9, 10, 11, 12, 13, 14, 15, 16, 18, 19, 20, 21, 22, 23, 24, 25, 26, 27, 28, 29]",241.3058776,8343,8180,2,58,9,1.0
undo,11,16,0,0,0,16,"[0, 17, 16]",3,26,"[1, 2, 3, 4, 5, 7, 8, 9, 10, 11, 12, 13, 14, 15, 18, 19, 20, 21, 22, 23, 24, 25, 26, 27, 28, 29]",212.9862731,9269,926,2,52,9,1.0529535521792848
undo,11,16,0,0,0,8,"[0, 17, 16, 8]",4,19,"[2, 3, 4, 5, 9, 12, 13, 14, 15, 19, 20, 21, 22, 23, 25, 26, 27, 28, 29]",164.6127266,10539,1270,2,38,9,1.0915134501573105
undo,11,16,0,0,0,20,"[0, 17, 16, 8, 20]",5,10,"[3, 4, 5, 9, 12, 13, 15, 19, 21, 25]",106.8372993,12658,2119,1,15,9,1.067523143001942
undo,11,16,0,0,0,25,"[0, 17, 16, 8, 20, 25]",6,7,"[3, 4, 5, 9, 12, 13, 15]",94.18818869,20094,7436,1,9,9,1.1170093326933646
undo,11,16,0,0,0,15,"[0, 17, 16, 8, 20, 25, 15]",7,3,"[3, 5, 9]",49.14376617,22495,2401,3,0,8,1.182442525629426
undo,11,16,0,0,1,9,"[0, 17, 16, 8, 20, 25, 15, 9]",8,0,[],10.24646549,23606,1111,1,0,8,1.4705270245187587
undo,11,16,0,1,1,9,"[0, 17, 16, 8, 20, 25, 15, 9]",8,0,[],10.24646549,24512,906,1,0,8,1.4705270245187587
undo,12,41,0,0,0,0,[0],1,29,"[1, 2, 3, 4, 5, 6, 7, 8, 9, 10, 11, 12, 13, 14, 15, 16, 17, 18, 19, 20, 21, 22, 23, 24, 25, 26, 27, 28, 29]",300,148,-1,1,143,10,0.0
undo,12,41,0,0,0,28,"[0, 28]",2,27,"[1, 2, 3, 5, 6, 7, 8, 9, 10, 11, 12, 13, 14, 15, 16, 17, 18, 19, 20, 21, 22, 23, 24, 25, 26, 27, 29]",259.8004975,3338,3190,37,249,9,1.0
undo,12,41,0,0,0,5,"[0, 28, 5]",3,26,"[1, 2, 3, 6, 7, 8, 9, 10, 11, 12, 13, 14, 15, 16, 17, 18, 19, 20, 21, 22, 23, 24, 25, 26, 27, 29]",246.199027,4424,1086,30,182,9,1.714241539747437
undo,12,41,0,0,0,3,"[0, 28, 5, 3]",4,25,"[1, 2, 6, 7, 8, 9, 10, 11, 12, 13, 14, 15, 16, 17, 18, 19, 20, 21, 22, 23, 24, 25, 26, 27, 29]",211.3708775,6244,1820,20,93,9,2.2367972660995847
undo,12,41,0,0,0,22,"[0, 28, 5, 3, 22]",5,19,"[2, 6, 7, 8, 9, 10, 11, 12, 13, 14, 16, 17, 18, 19, 20, 21, 23, 25, 27]",181.4042293,7194,950,8,18,9,1.7196825276135803
undo,12,41,0,0,0,21,"[0, 28, 5, 3, 22, 21]",6,8,"[2, 9, 10, 12, 13, 14, 17, 25]",130.4042293,8024,830,8,6,9,3.469819975916434
undo,12,41,0,0,0,9,"[0, 28, 5, 3, 22, 21, 9]",7,5,"[2, 10, 12, 14, 17]",81.03824916,9073,1049,4,3,9,2.6607849925478684
undo,12,41,0,0,0,2,"[0, 28, 5, 3, 22, 21, 9, 2]",8,2,"[14, 17]",68.95520318,10189,1116,2,0,9,2.5536438215534885
undo,12,41,0,0,1,17,"[0, 28, 5, 3, 22, 21, 9, 2, 17]",9,0,[],36.39756199,12690,2501,1,0,9,4.158574215213491
undo,12,41,1,0,0,2,"[0, 28, 5, 3, 22, 21, 9, 2]",8,2,"[14, 17]",68.95520318,15530,2840,2,0,9,2.5536438215534885
undo,12,41,1,0,0,9,"[0, 28, 5, 3, 22, 21, 9]",7,5,"[2, 10, 12, 14, 17]",81.03824916,15730,200,4,3,9,2.6607849925478684
undo,12,41,1,0,0,21,"[0, 28, 5, 3, 22, 21]",6,8,"[2, 9, 10, 12, 13, 14, 17, 25]",130.4042293,15897,167,8,6,9,3.469819975916434
undo,12,41,1,0,0,22,"[0, 28, 5, 3, 22]",5,19,"[2, 6, 7, 8, 9, 10, 11, 12, 13, 14, 16, 17, 18, 19, 20, 21, 23, 25, 27]",181.4042293,16080,183,8,18,9,1.7196825276135803
undo,12,41,1,0,0,3,"[0, 28, 5, 3]",4,25,"[1, 2, 6, 7, 8, 9, 10, 11, 12, 13, 14, 15, 16, 17, 18, 19, 20, 21, 22, 23, 24, 25, 26, 27, 29]",211.3708775,16230,150,20,93,9,2.2367972660995847
undo,12,41,1,0,0,5,"[0, 28, 5]",3,26,"[1, 2, 3, 6, 7, 8, 9, 10, 11, 12, 13, 14, 15, 16, 17, 18, 19, 20, 21, 22, 23, 24, 25, 26, 27, 29]",246.199027,16413,183,30,182,9,1.714241539747437
undo,12,41,1,0,0,28,"[0, 28]",2,27,"[1, 2, 3, 5, 6, 7, 8, 9, 10, 11, 12, 13, 14, 15, 16, 17, 18, 19, 20, 21, 22, 23, 24, 25, 26, 27, 29]",259.8004975,16946,533,37,249,9,1.0
undo,12,41,1,0,0,0,[0],1,29,"[1, 2, 3, 4, 5, 6, 7, 8, 9, 10, 11, 12, 13, 14, 15, 16, 17, 18, 19, 20, 21, 22, 23, 24, 25, 26, 27, 28, 29]",300,17446,500,1,143,10,0.0
undo,12,41,0,0,0,5,"[0, 5]",2,27,"[1, 2, 3, 6, 7, 8, 9, 10, 11, 12, 13, 14, 15, 16, 17, 18, 19, 20, 21, 22, 23, 24, 25, 26, 27, 28, 29]",268.6152903,23105,5659,38,328,9,1.0
undo,12,41,0,0,0,28,"[0, 5, 28]",3,25,"[1, 2, 3, 6, 7, 8, 9, 10, 11, 12, 13, 14, 15, 16, 17, 18, 19, 20, 21, 22, 23, 24, 25, 26, 27]",255.0138198,24419,1314,28,163,9,1.1190730586122064
undo,12,41,0,0,0,13,"[0, 5, 28, 13]",4,18,"[1, 2, 3, 6, 9, 10, 12, 14, 15, 17, 18, 20, 21, 22, 24, 25, 26, 27]",220.5319405,25995,1576,7,37,9,1.904553701589307
undo,12,41,0,0,0,3,"[0, 5, 28, 13, 3]",5,12,"[2, 6, 9, 10, 12, 17, 18, 20, 21, 22, 25, 27]",148.7475411,27963,1968,6,10,9,3.817267699546047
undo,12,41,0,0,0,21,"[0, 5, 28, 13, 3, 21]",6,7,"[2, 9, 10, 12, 17, 22, 25]",116.6072238,28923,960,5,2,9,3.7520978009714723
undo,12,41,0,0,0,9,"[0, 5, 28, 13, 3, 21, 9]",7,2,"[2, 17]",67.24124357,30557,1634,2,0,9,2.82844379722557
undo,12,41,0,0,0,2,"[0, 5, 28, 13, 3, 21, 9, 2]",8,1,[17],55.1581976,31712,1155,1,0,9,2.706136491980318
undo,12,41,0,0,1,17,"[0, 5, 28, 13, 3, 21, 9, 2, 17]",9,0,[],22.60055641,33418,1706,1,0,9,4.376234841136715
undo,12,41,0,1,1,17,"[0, 5, 28, 13, 3, 21, 9, 2, 17]",9,0,[],22.60055641,39095,5677,1,0,9,4.376234841136715
undo,13,20,0,0,0,0,[0],1,21,"[1, 2, 3, 4, 5, 6, 7, 8, 9, 12, 17, 18, 20, 21, 22, 23, 25, 26, 27, 28, 29]",300,160,-1,1,9,9,0.0
undo,13,20,0,0,0,1,"[0, 1]",2,14,"[3, 4, 5, 6, 8, 9, 12, 20, 21, 23, 26, 27, 28, 29]",197.3501096,8523,8363,1,9,8,1.0
undo,13,20,0,0,0,8,"[0, 1, 8]",3,8,"[5, 6, 9, 21, 23, 26, 27, 28]",112.8220078,11122,2599,4,15,6,1.0182044354434565
undo,13,20,0,0,0,23,"[0, 1, 8, 23]",4,5,"[6, 9, 21, 27, 28]",68.13420182,12273,1151,2,3,6,1.0179250016405874
undo,13,20,0,0,0,9,"[0, 1, 8, 23, 9]",5,1,[6],48.9248291,13873,1600,1,0,6,1.017909492256446
undo,13,20,0,0,1,6,"[0, 1, 8, 23, 9, 6]",6,0,[],25.90310024,16305,2432,1,0,6,1.0341438631311721
undo,13,20,1,0,0,9,"[0, 1, 8, 23, 9]",5,1,[6],48.9248291,25864,9559,1,0,6,1.017909492256446
undo,13,20,1,0,0,23,"[0, 1, 8, 23]",4,5,"[6, 9, 21, 27, 28]",68.13420182,26214,350,2,3,6,1.0179250016405874
undo,13,20,1,0,0,8,"[0, 1, 8]",3,8,"[5, 6, 9, 21, 23, 26, 27, 28]",112.8220078,26414,200,4,15,6,1.0182044354434565
undo,13,20,1,0,0,1,"[0, 1]",2,14,"[3, 4, 5, 6, 8, 9, 12, 20, 21, 23, 26, 27, 28, 29]",197.3501096,26564,150,1,9,8,1.0
undo,13,20,0,0,0,27,"[0, 1, 27]",3,7,"[5, 6, 8, 9, 21, 23, 28]",109.5491984,28340,1776,4,10,6,1.0009871899390972
undo,13,20,0,0,0,21,"[0, 1, 27, 21]",4,3,"[5, 8, 28]",56.06088196,29837,1497,3,0,5,1.4300701519818564
undo,13,20,0,0,1,8,"[0, 1, 27, 21, 8]",5,0,[],38.59663276,30743,906,1,0,5,1.4219730900800993
undo,13,20,1,0,0,21,"[0, 1, 27, 21]",4,3,"[5, 8, 28]",56.06088196,33214,2471,3,0,5,1.4300701519818564
undo,13,20,1,0,0,27,"[0, 1, 27]",3,7,"[5, 6, 8, 9, 21, 23, 28]",109.5491984,33397,183,4,10,6,1.0009871899390972
undo,13,20,1,0,0,1,"[0, 1]",2,14,"[3, 4, 5, 6, 8, 9, 12, 20, 21, 23, 26, 27, 28, 29]",197.3501096,34215,818,1,9,8,1.0
undo,13,20,0,0,0,21,"[0, 1, 21]",3,10,"[4, 5, 6, 8, 9, 20, 23, 26, 27, 28]",122.6239428,36461,2246,1,10,7,1.0398504639848392
undo,13,20,0,0,0,8,"[0, 1, 21, 8]",4,6,"[5, 6, 9, 23, 27, 28]",105.1596936,37275,814,1,6,7,1.0598856299712038
undo,13,20,0,0,0,23,"[0, 1, 21, 8, 23]",5,3,"[6, 9, 27]",60.47188769,38273,998,1,2,7,1.0515636891252158
undo,13,20,0,0,0,9,"[0, 1, 21, 8, 23, 9]",6,1,[6],41.26251497,39120,847,1,0,7,1.0489740625109225
undo,13,20,0,0,1,6,"[0, 1, 21, 8, 23, 9, 6]",7,0,[],18.24078611,39776,656,1,0,7,1.0630531107069783
undo,13,20,0,1,1,6,"[0, 1, 21, 8, 23, 9, 6]",7,0,[],18.24078611,41347,1571,1,0,7,1.0630531107069783
undo,14,15,0,0,0,0,[0],1,25,"[1, 2, 3, 4, 7, 8, 9, 10, 11, 12, 13, 14, 15, 16, 18, 20, 21, 22, 23, 24, 25, 26, 27, 28, 29]",300,198,-1,4,65,9,0.0
undo,14,15,0,0,0,7,"[0, 7]",2,23,"[1, 3, 4, 8, 9, 10, 11, 12, 13, 14, 15, 16, 18, 20, 21, 22, 23, 24, 25, 26, 27, 28, 29]",215.1884442,8873,8675,30,107,8,1.0
undo,14,15,0,0,0,11,"[0, 7, 11]",3,18,"[3, 4, 8, 9, 10, 12, 13, 14, 15, 16, 18, 20, 21, 22, 23, 25, 27, 29]",173.7035072,10105,1232,12,34,8,1.0171318876095128
undo,14,15,0,0,0,3,"[0, 7, 11, 3]",4,13,"[4, 10, 12, 13, 14, 15, 16, 18, 20, 21, 22, 25, 27]",162.3017529,11202,1097,7,21,8,1.0401878806820521
undo,14,15,0,0,0,22,"[0, 7, 11, 3, 22]",5,8,"[4, 10, 13, 14, 15, 16, 18, 25]",112.5724859,13574,2372,2,7,8,1.08637659765556
undo,14,15,0,0,0,13,"[0, 7, 11, 3, 22, 13]",6,4,"[14, 15, 18, 25]",84.41223019,22402,8828,1,3,8,1.07611101267101
undo,14,15,0,0,0,15,"[0, 7, 11, 3, 22, 13, 15]",7,1,[14],69.14789267,23254,852,1,0,8,1.175539361450856
undo,14,15,0,0,1,14,"[0, 7, 11, 3, 22, 13, 15, 14]",8,0,[],1.40573445,24370,1116,1,0,8,1.5431279710819559
undo,14,15,0,1,1,14,"[0, 7, 11, 3, 22, 13, 15, 14]",8,0,[],1.40573445,27813,3443,1,0,8,1.5431279710819559
undo,15,1,0,0,0,0,[0],1,26,"[1, 2, 4, 5, 7, 8, 9, 10, 11, 12, 13, 14, 15, 16, 17, 18, 19, 20, 21, 22, 23, 24, 25, 26, 28, 29]",300,147,-1,6,74,7,0.0
undo,15,1,0,0,0,17,"[0, 17]",2,16,"[1, 4, 5, 8, 9, 13, 14, 15, 18, 19, 20, 22, 23, 25, 28, 29]",148.273272,7419,7272,5,27,6,1.0
undo,15,1,0,0,0,1,"[0, 17, 1]",3,13,"[4, 5, 8, 9, 14, 15, 18, 20, 22, 23, 25, 28, 29]",123.9216806,8388,969,5,15,6,1.023953470094605
undo,15,1,0,0,0,28,"[0, 17, 1, 28]",4,5,"[9, 15, 22, 23, 29]",89.03615356,14241,5853,5,3,6,1.031845559355314
undo,15,1,0,0,0,23,"[0, 17, 1, 28, 23]",5,2,"[15, 22]",52.14442007,15104,863,2,0,6,1.0309254659760763
undo,15,1,0,0,1,22,"[0, 17, 1, 28, 23, 22]",6,0,[],4.134004529,17569,2465,1,0,6,1.068498275202407
undo,15,1,0,1,1,22,"[0, 17, 1, 28, 23, 22]",6,0,[],4.134004529,19697,2128,1,0,6,1.068498275202407
undo,16,17,0,0,0,0,[0],1,28,"[1, 2, 3, 4, 5, 6, 7, 8, 9, 10, 11, 12, 13, 14, 15, 16, 17, 18, 19, 20, 22, 23, 24, 25, 26, 27, 28, 29]",300,196,-1,2,73,8,0.0
undo,16,17,0,0,0,9,"[0, 9]",2,25,"[1, 2, 3, 5, 6, 7, 8, 10, 11, 12, 14, 15, 16, 17, 18, 19, 20, 22, 23, 24, 25, 26, 27, 28, 29]",210.5293344,3219,3023,1,34,8,1.0
undo,16,17,0,0,0,16,"[0, 9, 16]",3,21,"[1, 2, 3, 5, 7, 8, 10, 11, 12, 14, 17, 18, 19, 20, 22, 23, 25, 26, 27, 28, 29]",197.1876704,4436,1217,1,26,8,1.173103464220352
undo,16,17,0,0,0,17,"[0, 9, 16, 17]",4,9,"[2, 7, 8, 10, 12, 14, 26, 27, 29]",155.5103384,5350,914,2,9,7,1.3686022655428802
undo,16,17,0,0,0,8,"[0, 9, 16, 17, 8]",5,6,"[2, 7, 12, 14, 26, 27]",117.300392,6252,902,1,5,7,1.365027279297032
undo,16,17,0,0,1,2,"[0, 9, 16, 17, 8, 2]",6,0,[],82.1862923,7178,926,1,0,6,2.1028368799345176
undo,16,17,1,0,0,8,"[0, 9, 16, 17, 8]",5,6,"[2, 7, 12, 14, 26, 27]",117.300392,11662,4484,1,5,7,1.365027279297032
undo,16,17,1,0,0,17,"[0, 9, 16, 17]",4,9,"[2, 7, 8, 10, 12, 14, 26, 27, 29]",155.5103384,13912,2250,2,9,7,1.3686022655428802
undo,16,17,0,0,0,2,"[0, 9, 16, 17, 2]",5,4,"[7, 8, 10, 27]",117.1828026,16752,2840,1,3,7,1.764970391617776
undo,16,17,0,0,0,8,"[0, 9, 16, 17, 2, 8]",6,1,[7],82.06870286,18013,1261,1,0,7,1.6282583682866314
undo,16,17,0,0,1,7,"[0, 9, 16, 17, 2, 8, 7]",7,0,[],11.35802474,19468,1455,1,0,7,1.5695874876804634
undo,16,17,0,1,1,7,"[0, 9, 16, 17, 2, 8, 7]",7,0,[],11.35802474,20828,1360,1,0,7,1.5695874876804634
undo,17,10,0,0,0,0,[0],1,29,"[1, 2, 3, 4, 5, 6, 7, 8, 9, 10, 11, 12, 13, 14, 15, 16, 17, 18, 19, 20, 21, 22, 23, 24, 25, 26, 27, 28, 29]",300,163,-1,1,100,9,0.0
undo,17,10,0,0,0,13,"[0, 13]",2,25,"[1, 2, 3, 4, 6, 7, 8, 9, 10, 11, 12, 14, 17, 18, 19, 20, 21, 22, 23, 24, 25, 26, 27, 28, 29]",249.4628849,4789,4626,1,79,9,1.0
undo,17,10,0,0,0,11,"[0, 13, 11]",3,20,"[1, 2, 3, 6, 7, 8, 9, 10, 12, 14, 18, 19, 20, 21, 22, 24, 26, 27, 28, 29]",206.4512586,6428,1639,1,54,9,1.0313137484914219
undo,17,10,0,0,0,19,"[0, 13, 11, 19]",4,11,"[2, 6, 8, 9, 10, 14, 18, 20, 24, 26, 27]",170.0919407,7455,1027,1,22,9,1.0879446220132545
undo,17,10,0,0,0,2,"[0, 13, 11, 19, 2]",5,4,"[14, 20, 26, 27]",126.1829439,8841,1386,1,4,9,1.06474052351343
undo,17,10,0,0,0,14,"[0, 13, 11, 19, 2, 14]",6,3,"[20, 26, 27]",114.0174188,9413,572,1,3,9,1.1628909195912238
undo,17,10,0,0,0,26,"[0, 13, 11, 19, 2, 14, 26]",7,2,"[20, 27]",79.34754716,10595,1182,1,1,9,1.6660727647633602
undo,17,10,0,0,0,20,"[0, 13, 11, 19, 2, 14, 26, 20]",8,1,[27],47.56704999,12069,1474,1,0,9,2.085581809637999
undo,17,10,0,0,1,27,"[0, 13, 11, 19, 2, 14, 26, 20, 27]",9,0,[],2.312215998,13135,1066,1,0,9,1.9116357409137932
undo,17,10,0,1,1,27,"[0, 13, 11, 19, 2, 14, 26, 20, 27]",9,0,[],2.312215998,14312,1177,1,0,9,1.9116357409137932
undo,18,11,0,0,0,0,[0],1,25,"[1, 2, 3, 4, 5, 6, 8, 9, 10, 11, 12, 13, 14, 15, 16, 17, 18, 19, 20, 22, 23, 25, 26, 27, 28]",300,197,-1,6,374,12,0.0
undo,18,11,0,0,0,17,"[0, 17]",2,18,"[1, 2, 4, 5, 6, 8, 10, 11, 12, 15, 18, 19, 22, 23, 25, 26, 27, 28]",152.9217895,8071,7874,218,762,9,1.0
undo,18,11,0,0,0,15,"[0, 17, 15]",3,16,"[1, 2, 4, 5, 6, 8, 11, 12, 18, 19, 22, 23, 25, 26, 27, 28]",140.2726789,8776,705,97,260,9,1.0182186531831565
undo,18,11,0,0,0,11,"[0, 17, 15, 11]",4,12,"[2, 5, 6, 8, 12, 18, 19, 22, 25, 26, 27, 28]",122.1619086,9540,764,27,56,9,1.0257917401682095
undo,18,11,0,0,0,28,"[0, 17, 15, 11, 28]",5,6,"[2, 5, 8, 19, 22, 27]",102.7454208,10325,785,5,15,9,1.1414973832313782
undo,18,11,0,0,0,22,"[0, 17, 15, 11, 28, 22]",6,4,"[2, 5, 8, 19]",84.36064445,11228,903,1,3,9,1.143770170488057
undo,18,11,0,0,0,2,"[0, 17, 15, 11, 28, 22, 2]",7,2,"[5, 8]",74.31076883,11838,610,1,1,9,1.264449773924365
undo,18,11,0,0,0,5,"[0, 17, 15, 11, 28, 22, 2, 5]",8,1,[8],57.31076883,14440,2602,1,0,9,1.4917008557489886
undo,18,11,0,0,1,8,"[0, 17, 15, 11, 28, 22, 2, 5, 8]",9,0,[],21.84247312,15975,1535,1,0,9,1.9155964065014521
undo,18,11,0,1,1,8,"[0, 17, 15, 11, 28, 22, 2, 5, 8]",9,0,[],21.84247312,18679,2704,1,0,9,1.9155964065014521
undo,19,35,0,0,0,0,[0],1,29,"[1, 2, 3, 4, 5, 6, 7, 8, 9, 10, 11, 12, 13, 14, 15, 16, 17, 18, 19, 20, 21, 22, 23, 24, 25, 26, 27, 28, 29]",300,174,-1,5,236,11,0.0
undo,19,35,0,0,0,27,"[0, 27]",2,27,"[1, 2, 4, 5, 6, 7, 8, 9, 10, 11, 12, 13, 14, 15, 16, 17, 18, 19, 20, 21, 22, 23, 24, 25, 26, 28, 29]",278.7867966,6976,6802,5,144,11,1.0
undo,19,35,0,0,0,24,"[0, 27, 24]",3,25,"[1, 2, 4, 5, 6, 7, 8, 9, 10, 11, 12, 13, 15, 16, 17, 18, 19, 20, 21, 22, 23, 25, 26, 28, 29]",234.6053525,7790,814,3,80,11,2.1084080567904624
undo,19,35,0,0,0,17,"[0, 27, 24, 17]",4,20,"[1, 2, 4, 5, 6, 7, 8, 9, 10, 15, 16, 18, 19, 20, 21, 23, 25, 26, 28, 29]",222.9006526,8478,688,3,50,11,1.9439555968916868
undo,19,35,0,0,0,1,"[0, 27, 24, 17, 1]",5,18,"[2, 4, 5, 6, 8, 9, 10, 15, 16, 18, 19, 20, 21, 23, 25, 26, 28, 29]",207.0892643,9340,862,3,39,11,1.9436711872547336
undo,19,35,0,0,0,15,"[0, 27, 24, 17, 1, 15]",6,16,"[2, 4, 5, 6, 8, 9, 10, 16, 18, 19, 20, 23, 25, 26, 28, 29]",184.241945,10078,738,3,24,11,2.082774572108194
undo,19,35,0,0,0,23,"[0, 27, 24, 17, 1, 15, 23]",7,7,"[5, 6, 9, 18, 19, 25, 26]",123.801892,11803,1725,3,14,11,1.657239080954205
undo,19,35,0,0,0,9,"[0, 27, 24, 17, 1, 15, 23, 9]",8,4,"[6, 18, 19, 25]",86.15883157,12791,988,2,2,11,1.9022575917054987
undo,19,35,0,0,0,18,"[0, 27, 24, 17, 1, 15, 23, 9, 18]",9,2,"[6, 25]",66.13384718,14035,1244,2,0,11,1.8181129550839106
undo,19,35,0,0,0,25,"[0, 27, 24, 17, 1, 15, 23, 9, 18, 25]",10,1,[6],32.29599855,16058,2023,1,0,11,1.6530923432245144
undo,19,35,0,0,1,6,"[0, 27, 24, 17, 1, 15, 23, 9, 18, 25, 6]",11,0,[],8.275174247,17026,968,1,0,11,1.9291202388527962
undo,19,35,0,1,1,6,"[0, 27, 24, 17, 1, 15, 23, 9, 18, 25, 6]",11,0,[],8.275174247,18395,1369,1,0,11,1.9291202388527962
undo,20,44,0,0,0,0,[0],1,29,"[1, 2, 3, 4, 5, 6, 7, 8, 9, 10, 11, 12, 13, 14, 15, 16, 17, 18, 19, 20, 21, 22, 23, 24, 25, 26, 27, 28, 29]",300,163,-1,13,126,7,0.0
undo,20,44,0,0,0,9,"[0, 9]",2,17,"[2, 4, 5, 7, 8, 10, 11, 12, 13, 14, 20, 22, 23, 24, 25, 26, 28]",141.32423,9589,9426,3,26,7,1.0
undo,20,44,0,0,0,4,"[0, 9, 4]",3,15,"[2, 5, 7, 8, 10, 11, 12, 14, 20, 22, 23, 24, 25, 26, 28]",121.6265143,11940,2351,3,21,7,1.0155532843148096
undo,20,44,0,0,0,7,"[0, 9, 4, 7]",4,10,"[2, 5, 11, 12, 14, 23, 24, 25, 26, 28]",90.61038951,13119,1179,3,9,7,1.0134022837125412
undo,20,44,0,0,0,25,"[0, 9, 4, 7, 25]",5,1,[5],38.40885697,17575,4456,1,0,6,1.0363561002690058
undo,20,44,0,0,1,5,"[0, 9, 4, 7, 25, 5]",6,0,[],27.96855046,18370,795,1,0,6,1.0722038470458448
undo,20,44,1,0,0,25,"[0, 9, 4, 7, 25]",5,1,[5],38.40885697,20162,1792,1,0,6,1.0363561002690058
undo,20,44,1,0,0,7,"[0, 9, 4, 7]",4,10,"[2, 5, 11, 12, 14, 23, 24, 25, 26, 28]",90.61038951,20345,183,3,9,7,1.0134022837125412
undo,20,44,1,0,0,4,"[0, 9, 4]",3,15,"[2, 5, 7, 8, 10, 11, 12, 14, 20, 22, 23, 24, 25, 26, 28]",121.6265143,20512,167,3,21,7,1.0155532843148096
undo,20,44,1,0,0,9,"[0, 9]",2,17,"[2, 4, 5, 7, 8, 10, 11, 12, 13, 14, 20, 22, 23, 24, 25, 26, 28]",141.32423,20946,434,3,26,7,1.0
undo,20,44,0,0,0,4,"[0, 9, 4]",3,15,"[2, 5, 7, 8, 10, 11, 12, 14, 20, 22, 23, 24, 25, 26, 28]",121.6265143,27140,6194,3,21,7,1.0155532843148096
undo,20,44,0,0,0,24,"[0, 9, 4, 24]",4,5,"[7, 11, 14, 20, 23]",86.97106745,28487,1347,3,2,6,1.4176434179720834
undo,20,44,0,0,0,11,"[0, 9, 4, 24, 11]",5,1,[14],60.04524341,29911,1424,1,0,6,1.6298957555465912
undo,20,44,0,0,1,14,"[0, 9, 4, 24, 11, 14]",6,0,[],27.84275904,31018,1107,1,0,6,1.5217619331476957
undo,20,44,0,1,1,14,"[0, 9, 4, 24, 11, 14]",6,0,[],27.84275904,31812,794,1,0,6,1.5217619331476957
undo,21,6,0,0,0,0,[0],1,29,"[1, 2, 3, 4, 5, 6, 7, 8, 9, 10, 11, 12, 13, 14, 15, 16, 17, 18, 19, 20, 21, 22, 23, 24, 25, 26, 27, 28, 29]",300,151,-1,180,4304,10,0.0
undo,21,6,0,0,0,26,"[0, 26]",2,25,"[1, 2, 3, 4, 5, 6, 7, 8, 9, 10, 11, 12, 13, 14, 15, 16, 17, 18, 20, 21, 22, 23, 24, 27, 29]",250.2606795,4860,4709,45,776,10,1.0
undo,21,6,0,0,0,7,"[0, 26, 7]",3,24,"[1, 2, 3, 4, 5, 6, 8, 9, 10, 11, 12, 13, 14, 15, 16, 17, 18, 20, 21, 22, 23, 24, 27, 29]",226.1774904,5722,862,25,520,10,1.5373018630243536
undo,21,6,0,0,0,3,"[0, 26, 7, 3]",4,22,"[1, 2, 4, 6, 8, 9, 10, 11, 12, 13, 14, 15, 16, 17, 18, 20, 21, 22, 23, 24, 27, 29]",190.0388684,6992,1270,20,235,10,3.2798655773210936
undo,21,6,0,0,0,10,"[0, 26, 7, 3, 10]",5,15,"[1, 2, 4, 6, 8, 13, 14, 16, 17, 18, 22, 23, 24, 27, 29]",138.7943565,10887,3895,1,29,10,1.9112755808182227
undo,21,6,0,0,0,24,"[0, 26, 7, 3, 10, 24]",6,12,"[2, 4, 6, 8, 13, 16, 17, 18, 22, 23, 27, 29]",125.3779486,11828,941,1,10,10,1.7947990698560559
undo,21,6,0,0,0,17,"[0, 26, 7, 3, 10, 24, 17]",7,6,"[2, 6, 16, 18, 23, 29]",96.10338628,13125,1297,1,4,10,2.889027942164785
undo,21,6,0,0,0,18,"[0, 26, 7, 3, 10, 24, 17, 18]",8,3,"[16, 23, 29]",82.174998,14172,1047,1,2,10,3.576673607480272
undo,21,6,0,0,0,16,"[0, 26, 7, 3, 10, 24, 17, 18, 16]",9,1,[29],58.82976294,16391,2219,1,0,10,3.341218278726961
undo,21,6,0,0,1,29,"[0, 26, 7, 3, 10, 24, 17, 18, 16, 29]",10,0,[],22.14189029,17517,1126,1,0,10,2.608795087082061
undo,21,6,0,1,1,29,"[0, 26, 7, 3, 10, 24, 17, 18, 16, 29]",10,0,[],22.14189029,18527,1010,1,0,10,2.608795087082061
undo,22,30,0,0,0,0,[0],1,19,"[3, 4, 5, 7, 9, 11, 16, 17, 18, 19, 20, 21, 22, 24, 25, 26, 27, 28, 29]",300,163,-1,5,41,8,0.0
undo,22,30,0,0,0,16,"[0, 16]",2,17,"[3, 5, 7, 9, 11, 17, 18, 19, 20, 21, 22, 24, 25, 26, 27, 28, 29]",219.3774225,19369,19206,5,34,8,1.0
undo,22,30,0,0,0,27,"[0, 16, 27]",3,8,"[3, 5, 7, 18, 19, 20, 25, 29]",79.57041268,23669,4300,2,16,7,1.05265265149494
undo,22,30,0,0,0,3,"[0, 16, 27, 3]",4,6,"[5, 7, 18, 20, 25, 29]",60.4654395,24239,570,2,6,7,1.0505800728395231
undo,22,30,0,0,0,18,"[0, 16, 27, 3, 18]",5,3,"[5, 7, 29]",42.21715191,24971,732,3,0,6,1.0554239682416273
undo,22,30,1,0,0,3,"[0, 16, 27, 3]",4,6,"[5, 7, 18, 20, 25, 29]",60.4654395,27280,2309,2,6,7,1.0505800728395231
undo,22,30,0,0,0,5,"[0, 16, 27, 3, 5]",5,2,"[18, 29]",35.62595481,29435,2155,1,1,7,1.093295132388708
undo,22,30,0,0,0,18,"[0, 16, 27, 3, 5, 18]",6,1,[29],22.58755,30568,1133,1,0,7,1.1357922025766845
undo,22,30,0,0,1,29,"[0, 16, 27, 3, 5, 18, 29]",7,0,[],3.274342081,32271,1703,1,0,7,1.2187837271978046
undo,22,30,0,1,1,29,"[0, 16, 27, 3, 5, 18, 29]",7,0,[],3.274342081,33278,1007,1,0,7,1.2187837271978046
basic,23,33,0,0,0,0,[0],1,23,"[1, 2, 5, 7, 8, 11, 12, 13, 14, 15, 16, 17, 18, 19, 20, 21, 23, 24, 25, 26, 27, 28, 29]",300,150,-1,5,108,9,0.0
basic,23,33,0,0,0,21,"[0, 21]",2,17,"[2, 5, 7, 8, 11, 13, 14, 16, 17, 18, 19, 20, 24, 26, 27, 28, 29]",174.4611614,10873,10723,21,129,8,1.0
basic,23,33,0,0,0,13,"[0, 21, 13]",3,15,"[2, 5, 7, 8, 11, 14, 16, 17, 18, 19, 20, 24, 26, 28, 29]",148.0604038,11894,1021,17,72,8,1.0001005298764474
basic,23,33,0,0,0,26,"[0, 21, 13, 26]",4,8,"[7, 11, 14, 17, 19, 20, 24, 29]",73.73678712,13173,1279,4,10,7,1.0000980854775965
basic,23,33,0,0,0,14,"[0, 21, 13, 26, 14]",5,4,"[7, 19, 24, 29]",61.08767648,18176,5003,3,3,7,1.1012591262849363
basic,23,33,0,0,0,7,"[0, 21, 13, 26, 14, 7]",6,3,"[19, 24, 29]",46.22160773,19688,1512,3,0,7,1.1908836346239835
basic,23,33,0,0,1,24,"[0, 21, 13, 26, 14, 7, 24]",7,0,[],17.015444,21062,1374,1,0,7,1.3899038284245597
basic,23,33,0,1,1,24,"[0, 21, 13, 26, 14, 7, 24]",7,0,[],17.015444,22332,1270,1,0,7,1.3899038284245597
basic,24,36,0,0,0,0,[0],1,24,"[2, 4, 5, 6, 7, 8, 9, 10, 12, 13, 14, 15, 16, 17, 18, 19, 20, 22, 23, 25, 26, 27, 28, 29]",300,178,-1,2,200,10,0.0
basic,24,36,0,0,0,16,"[0, 16]",2,12,"[2, 8, 9, 10, 12, 13, 17, 18, 19, 23, 25, 27]",193.262003,5791,5613,20,112,8,1.0
basic,24,36,0,0,0,17,"[0, 16, 17]",3,10,"[2, 9, 10, 12, 13, 18, 19, 23, 25, 27]",164.9423985,8610,2819,14,64,8,1.4289609665642613
basic,24,36,0,0,0,2,"[0, 16, 17, 2]",4,6,"[9, 10, 12, 13, 19, 25]",123.7113422,10452,1842,3,15,8,1.5610549522737212
basic,24,36,0,0,0,25,"[0, 16, 17, 2, 25]",5,5,"[9, 10, 12, 13, 19]",98.71134224,11758,1306,2,4,8,1.75813041666699
basic,24,36,0,0,0,13,"[0, 16, 17, 2, 25, 13]",6,3,"[9, 10, 19]",78.12008196,12873,1115,2,1,8,2.2621972013279845
basic,24,36,0,0,0,19,"[0, 16, 17, 2, 25, 13, 19]",7,1,[9],34.70349527,14201,1328,1,0,8,3.44192776800063
basic,24,36,0,0,1,9,"[0, 16, 17, 2, 25, 13, 19, 9]",8,0,[],19.57074932,15091,890,1,0,8,4.0603560851412865
basic,24,36,0,1,1,9,"[0, 16, 17, 2, 25, 13, 19, 9]",8,0,[],19.57074932,16178,1087,1,0,8,4.0603560851412865
basic,25,39,0,0,0,0,[0],1,28,"[1, 2, 3, 4, 5, 6, 7, 9, 10, 11, 12, 13, 14, 15, 16, 17, 18, 19, 20, 21, 22, 23, 24, 25, 26, 27, 28, 29]",300,164,-1,1,30,10,0.0
basic,25,39,0,0,0,14,"[0, 14]",2,26,"[1, 2, 3, 4, 5, 6, 7, 9, 10, 12, 13, 15, 16, 17, 18, 19, 20, 21, 22, 23, 24, 25, 26, 27, 28, 29]",286.9615952,4174,4010,1,22,10,1.0
basic,25,39,0,0,0,29,"[0, 14, 29]",3,23,"[1, 2, 3, 4, 5, 6, 7, 9, 10, 12, 13, 15, 16, 17, 18, 19, 21, 22, 23, 24, 25, 26, 28]",218.9321898,8386,4212,1,21,10,1.4237768813412561
basic,25,39,0,0,0,10,"[0, 14, 29, 10]",4,16,"[1, 2, 4, 5, 7, 9, 12, 13, 15, 16, 18, 19, 22, 23, 24, 26]",154.2947393,9423,1037,10,55,9,1.2261903217179273
basic,25,39,0,0,0,7,"[0, 14, 29, 10, 7]",5,13,"[1, 2, 5, 9, 12, 13, 15, 16, 18, 19, 22, 24, 26]",120.8731894,11794,2371,7,19,9,1.1772181718345374
basic,25,39,0,0,0,22,"[0, 14, 29, 10, 7, 22]",6,5,"[12, 16, 18, 19, 26]",89.04552848,12908,1114,2,5,9,1.3623866220361263
basic,25,39,0,0,0,26,"[0, 14, 29, 10, 7, 22, 26]",7,3,"[12, 16, 19]",71.32548333,13724,816,2,1,9,1.4157309623282348
basic,25,39,0,0,0,16,"[0, 14, 29, 10, 7, 22, 26, 16]",8,1,[19],38.08394305,15390,1666,1,0,9,1.3797099906711112
basic,25,39,0,0,1,19,"[0, 14, 29, 10, 7, 22, 26, 16, 19]",9,0,[],20.61969386,16306,916,1,0,9,1.3850069221713388
basic,25,39,0,1,1,19,"[0, 14, 29, 10, 7, 22, 26, 16, 19]",9,0,[],20.61969386,17947,1641,1,0,9,1.3850069221713388
basic,26,42,0,0,0,0,[0],1,29,"[1, 2, 3, 4, 5, 6, 7, 8, 9, 10, 11, 12, 13, 14, 15, 16, 17, 18, 19, 20, 21, 22, 23, 24, 25, 26, 27, 28, 29]",300,147,-1,16,302,9,0.0
basic,26,42,0,0,0,5,"[0, 5]",2,28,"[1, 2, 3, 4, 6, 7, 8, 9, 10, 11, 12, 13, 14, 15, 16, 17, 18, 19, 20, 21, 22, 23, 24, 25, 26, 27, 28, 29]",191.2939744,20574,20427,1,22,9,1.0
basic,26,42,0,0,0,4,"[0, 5, 4]",3,23,"[1, 2, 3, 6, 7, 8, 9, 10, 11, 13, 15, 17, 18, 19, 20, 21, 22, 23, 24, 25, 26, 27, 29]",171.4445412,21789,1215,1,14,9,1.420957801478707
basic,26,42,0,0,0,22,"[0, 5, 4, 22]",4,20,"[1, 2, 3, 6, 7, 8, 9, 11, 15, 17, 18, 19, 20, 21, 23, 24, 25, 26, 27, 29]",160.2642013,22508,719,1,11,9,1.5771494659680896
basic,26,42,0,0,0,8,"[0, 5, 4, 22, 8]",5,14,"[1, 2, 3, 6, 7, 11, 15, 18, 19, 24, 25, 26, 27, 29]",138.1282577,23431,923,1,10,9,1.5055393955524201
basic,26,42,0,0,0,1,"[0, 5, 4, 22, 8, 1]",6,5,"[2, 7, 19, 26, 27]",89.03650682,27525,4094,1,7,9,1.3547259083637835
basic,26,42,0,0,0,7,"[0, 5, 4, 22, 8, 1, 7]",7,4,"[2, 19, 26, 27]",59.03650682,28530,1005,1,3,9,1.3909715672447451
basic,26,42,0,0,0,26,"[0, 5, 4, 22, 8, 1, 7, 26]",8,1,[27],32.46584631,31142,2612,1,0,9,1.3511825943939393
basic,26,42,0,0,1,27,"[0, 5, 4, 22, 8, 1, 7, 26, 27]",9,0,[],14.43808994,36202,5060,1,0,9,1.3391911688802078
basic,26,42,0,1,1,27,"[0, 5, 4, 22, 8, 1, 7, 26, 27]",9,0,[],14.43808994,37480,1278,1,0,9,1.3391911688802078
basic,27,23,0,0,0,0,[0],1,28,"[1, 2, 3, 4, 5, 6, 7, 8, 9, 10, 11, 12, 13, 14, 15, 16, 17, 18, 19, 20, 21, 22, 23, 25, 26, 27, 28, 29]",300,147,-1,76,2626,10,0.0
basic,27,23,0,0,0,27,"[0, 27]",2,11,"[2, 6, 7, 9, 10, 12, 13, 14, 18, 22, 29]",156.8217894,2927,2780,6,455,9,1.0
basic,27,23,0,0,0,6,"[0, 27, 6]",3,10,"[2, 7, 9, 10, 12, 13, 14, 18, 22, 29]",128.519846,4312,1385,6,168,9,1.1413510010705277
basic,27,23,0,0,0,2,"[0, 27, 6, 2]",4,8,"[7, 9, 12, 13, 14, 18, 22, 29]",110.0807571,8407,4095,3,50,9,1.3917699979429488
basic,27,23,0,0,0,14,"[0, 27, 6, 2, 14]",5,6,"[7, 9, 12, 13, 22, 29]",95.21468831,9518,1111,1,12,9,1.4535117534194508
basic,27,23,0,0,0,9,"[0, 27, 6, 2, 14, 9]",6,5,"[7, 12, 13, 22, 29]",84.7743818,10444,926,1,5,9,1.6473653414995069
basic,27,23,0,0,0,12,"[0, 27, 6, 2, 14, 9, 12]",7,3,"[13, 22, 29]",70.45656074,11627,1183,1,2,9,1.872467511760823
basic,27,23,0,0,0,13,"[0, 27, 6, 2, 14, 9, 12, 13]",8,1,[22],58.37351476,12324,697,1,0,9,2.1831143896555902
basic,27,23,0,0,1,22,"[0, 27, 6, 2, 14, 9, 12, 13, 22]",9,0,[],16.18346854,14127,1803,1,0,9,3.1711839164511098
basic,27,23,0,1,1,22,"[0, 27, 6, 2, 14, 9, 12, 13, 22]",9,0,[],16.18346854,15563,1436,1,0,9,3.1711839164511098
basic,28,4,0,0,0,0,[0],1,26,"[3, 4, 5, 6, 7, 8, 10, 11, 12, 13, 14, 15, 16, 17, 18, 19, 20, 21, 22, 23, 24, 25, 26, 27, 28, 29]",300,196,-1,4,489,10,0.0
basic,28,4,0,0,0,28,"[0, 28]",2,21,"[3, 4, 5, 6, 10, 11, 12, 13, 14, 15, 16, 17, 19, 20, 21, 22, 23, 24, 25, 26, 27]",225.9392142,3952,3756,2,216,10,1.0
basic,28,4,0,0,0,14,"[0, 28, 14]",3,13,"[3, 4, 5, 6, 11, 13, 16, 17, 20, 21, 22, 24, 25]",159.6972335,5948,1996,1,26,10,1.0273973946789214
basic,28,4,0,0,0,25,"[0, 28, 14, 25]",4,12,"[3, 4, 5, 6, 11, 13, 16, 17, 20, 21, 22, 24]",143.572718,7508,1560,1,25,10,1.233547772313525
basic,28,4,0,0,0,11,"[0, 28, 14, 25, 11]",5,10,"[3, 4, 5, 6, 13, 16, 17, 20, 21, 22]",124.7844238,8120,612,1,15,10,1.425978575879479
basic,28,4,0,0,0,16,"[0, 28, 14, 25, 11, 16]",6,9,"[3, 4, 5, 6, 13, 17, 20, 21, 22]",109.7844238,9889,1769,1,12,10,1.3799325158051412
basic,28,4,0,0,0,3,"[0, 28, 14, 25, 11, 16, 3]",7,2,"[17, 20]",68.15510719,19358,9469,1,1,9,1.3292844629725955
basic,28,4,0,0,0,17,"[0, 28, 14, 25, 11, 16, 3, 17]",8,1,[20],43.63980585,22089,2731,1,0,9,1.5639571149270572
basic,28,4,0,0,1,20,"[0, 28, 14, 25, 11, 16, 3, 17, 20]",9,0,[],3.415435124,23103,1014,1,0,9,1.6231058358944275
basic,28,4,0,1,1,20,"[0, 28, 14, 25, 11, 16, 3, 17, 20]",9,0,[],3.415435124,25345,2242,1,0,9,1.6231058358944275
basic,29,43,0,0,0,0,[0],1,23,"[1, 2, 3, 4, 5, 6, 7, 9, 10, 11, 12, 14, 15, 16, 17, 19, 20, 21, 22, 23, 25, 27, 29]",300,155,-1,16,556,12,0.0
basic,29,43,0,0,0,25,"[0, 25]",2,19,"[1, 2, 3, 4, 5, 6, 7, 9, 11, 12, 14, 15, 16, 19, 20, 21, 22, 23, 29]",220.6904798,5902,5747,8,323,10,1.0
basic,29,43,0,0,0,15,"[0, 25, 15]",3,18,"[1, 2, 3, 4, 5, 6, 7, 9, 11, 12, 14, 16, 19, 20, 21, 22, 23, 29]",198.0189117,8972,3070,8,141,10,1.233441666901354
basic,29,43,0,0,0,12,"[0, 25, 15, 12]",4,15,"[1, 2, 3, 4, 6, 7, 9, 11, 14, 16, 19, 20, 22, 23, 29]",178.7057038,10188,1216,8,95,10,1.226948769754925
basic,29,43,0,0,0,3,"[0, 25, 15, 12, 3]",5,14,"[1, 2, 4, 6, 7, 9, 11, 14, 16, 19, 20, 22, 23, 29]",165.7057038,12388,2200,8,83,10,1.2055123857330492
basic,29,43,0,0,0,22,"[0, 25, 15, 12, 3, 22]",6,12,"[1, 4, 6, 7, 9, 11, 14, 16, 19, 20, 23, 29]",130.9925938,16140,3752,5,39,10,1.417031808359187
basic,29,43,0,0,0,11,"[0, 25, 15, 12, 3, 22, 11]",7,7,"[1, 6, 14, 16, 19, 20, 29]",84.92742261,17369,1229,1,7,10,2.363434916373626
basic,29,43,0,0,0,16,"[0, 25, 15, 12, 3, 22, 11, 16]",8,2,"[20, 29]",49.79908647,19135,1766,1,1,10,4.461476052070037
basic,29,43,0,0,0,20,"[0, 25, 15, 12, 3, 22, 11, 16, 20]",9,1,[29],27.17166947,20226,1091,1,0,10,6.486725931225447
basic,29,43,0,0,1,29,"[0, 25, 15, 12, 3, 22, 11, 16, 20, 29]",10,0,[],3.740920444,21535,1309,1,0,10,13.411018394736155
basic,29,43,0,1,1,29,"[0, 25, 15, 12, 3, 22, 11, 16, 20, 29]",10,0,[],3.740920444,23162,1627,1,0,10,13.411018394736155
basic,30,9,0,0,0,0,[0],1,27,"[1, 3, 4, 5, 6, 7, 8, 9, 10, 11, 13, 14, 15, 16, 17, 18, 19, 20, 21, 22, 23, 24, 25, 26, 27, 28, 29]",300,166,-1,2,182,10,0.0
basic,30,9,0,0,0,7,"[0, 7]",2,19,"[3, 4, 5, 8, 9, 10, 11, 16, 17, 18, 19, 20, 21, 22, 23, 25, 26, 27, 28]",258.4067313,21253,21087,39,322,9,1.0
basic,30,9,0,0,0,4,"[0, 7, 4]",3,15,"[3, 8, 9, 10, 11, 18, 19, 20, 21, 22, 23, 25, 26, 27, 28]",243.4067313,22022,769,32,159,9,1.002790151820037
basic,30,9,0,0,0,25,"[0, 7, 4, 25]",4,11,"[8, 9, 10, 11, 20, 21, 22, 23, 26, 27, 28]",177.6419991,26417,4395,12,72,9,5.080639449342423
basic,30,9,0,0,0,10,"[0, 7, 4, 25, 10]",5,9,"[8, 9, 20, 21, 22, 23, 26, 27, 28]",137.7922814,27724,1307,11,20,9,2.985474317686212
basic,30,9,0,0,0,8,"[0, 7, 4, 25, 10, 8]",6,6,"[9, 20, 21, 23, 26, 28]",89.41873494,32273,4549,7,5,9,3.301636508875995
basic,30,9,0,0,0,28,"[0, 7, 4, 25, 10, 8, 28]",7,5,"[9, 20, 21, 23, 26]",78.60208112,36404,4131,4,1,9,2.980725906905881
basic,30,9,0,0,0,21,"[0, 7, 4, 25, 10, 8, 28, 21]",8,1,[20],25.60208112,38201,1797,1,0,9,2.3149555215157136
basic,30,9,0,0,1,20,"[0, 7, 4, 25, 10, 8, 28, 21, 20]",9,0,[],13.51903514,39156,955,1,0,9,2.2620051466533115
basic,30,9,0,1,1,20,"[0, 7, 4, 25, 10, 8, 28, 21, 20]",9,0,[],13.51903514,40211,1055,1,0,9,2.2620051466533115
basic,31,3,0,0,0,0,[0],1,29,"[1, 2, 3, 4, 5, 6, 7, 8, 9, 10, 11, 12, 13, 14, 15, 16, 17, 18, 19, 20, 21, 22, 23, 24, 25, 26, 27, 28, 29]",300,146,-1,34,427,10,0.0
basic,31,3,0,0,0,17,"[0, 17]",2,16,"[3, 4, 7, 8, 10, 12, 14, 15, 16, 19, 20, 21, 22, 24, 26, 27]",197.6965299,13371,13225,2,27,9,1.0
basic,31,3,0,0,0,20,"[0, 17, 20]",3,13,"[3, 4, 7, 8, 10, 14, 15, 16, 19, 21, 22, 24, 27]",185.0474192,14476,1105,2,24,9,1.0153332121237257
basic,31,3,0,0,0,3,"[0, 17, 20, 3]",4,10,"[4, 7, 8, 10, 14, 15, 16, 19, 21, 24]",164.6513412,15660,1184,2,22,9,1.0819240770773468
basic,31,3,0,0,0,19,"[0, 17, 20, 3, 19]",5,6,"[4, 8, 10, 14, 21, 24]",127.3150318,24866,9206,2,11,9,1.1701070532957258
basic,31,3,0,0,0,21,"[0, 17, 20, 3, 19, 21]",6,5,"[4, 8, 10, 14, 24]",115.1084762,26572,1706,2,6,9,1.202395500952127
basic,31,3,0,0,0,14,"[0, 17, 20, 3, 19, 21, 14]",7,4,"[4, 8, 10, 24]",88.20122806,29307,2735,2,2,9,1.6456130302761207
basic,31,3,0,0,0,24,"[0, 17, 20, 3, 19, 21, 14, 24]",8,1,[8],17.08864127,30788,1481,1,0,9,4.806859660680286
basic,31,3,0,0,1,8,"[0, 17, 20, 3, 19, 21, 14, 24, 8]",9,0,[],4.923116212,31878,1090,1,0,9,4.915218144486606
basic,31,3,0,1,1,8,"[0, 17, 20, 3, 19, 21, 14, 24, 8]",9,0,[],4.923116212,34862,2984,1,0,9,4.915218144486606
basic,32,45,0,0,0,0,[0],1,24,"[1, 2, 3, 4, 5, 6, 7, 9, 10, 11, 12, 14, 15, 16, 17, 19, 20, 21, 22, 23, 24, 25, 27, 29]",300,152,-1,6,248,10,0.0
basic,32,45,0,0,0,15,"[0, 15]",2,23,"[1, 2, 3, 4, 5, 6, 7, 9, 10, 11, 12, 14, 16, 17, 19, 20, 21, 22, 23, 24, 25, 27, 29]",253.9022777,3344,3192,5,207,10,1.0
basic,32,45,0,0,0,23,"[0, 15, 23]",3,22,"[1, 2, 3, 4, 5, 6, 7, 9, 10, 11, 12, 14, 16, 17, 19, 20, 21, 22, 24, 25, 27, 29]",230.3014303,4339,995,5,163,10,1.0006068457769497
basic,32,45,0,0,0,20,"[0, 15, 23, 20]",4,19,"[1, 2, 3, 5, 6, 7, 9, 10, 11, 12, 14, 16, 17, 19, 21, 22, 24, 25, 29]",188.8647316,6258,1919,5,137,10,1.2062119754673604
basic,32,45,0,0,0,10,"[0, 15, 23, 20, 10]",5,12,"[2, 3, 6, 7, 9, 12, 14, 17, 22, 24, 25, 29]",132.784432,9093,2835,1,54,10,1.1363907740691004
basic,32,45,0,0,0,29,"[0, 15, 23, 20, 10, 29]",6,8,"[2, 3, 6, 7, 12, 14, 22, 24]",111.2437728,12137,3044,1,21,10,1.1719694806770014
basic,32,45,0,0,0,3,"[0, 15, 23, 20, 10, 29, 3]",7,5,"[2, 6, 7, 12, 22]",91.24377276,13425,1288,1,7,10,1.1637144299354454
basic,32,45,0,0,0,22,"[0, 15, 23, 20, 10, 29, 3, 22]",8,2,"[6, 12]",47.78114514,14636,1211,2,0,9,1.1869549728838704
basic,32,45,0,0,1,12,"[0, 15, 23, 20, 10, 29, 3, 22, 12]",9,0,[],16.20583833,15712,1076,1,0,9,1.4936534824736842
basic,32,45,0,1,1,12,"[0, 15, 23, 20, 10, 29, 3, 22, 12]",9,0,[],16.20583833,18898,3186,1,0,9,1.4936534824736842
basic,33,40,0,0,0,0,[0],1,29,"[1, 2, 3, 4, 5, 6, 7, 8, 9, 10, 11, 12, 13, 14, 15, 16, 17, 18, 19, 20, 21, 22, 23, 24, 25, 26, 27, 28, 29]",300,146,-1,8,191,9,0.0
basic,33,40,0,0,0,1,"[0, 1]",2,18,"[2, 5, 6, 7, 8, 9, 10, 11, 13, 15, 17, 18, 19, 21, 22, 23, 27, 29]",247.8463808,13435,13289,4,80,9,1.0
basic,33,40,0,0,0,6,"[0, 1, 6]",3,17,"[2, 5, 7, 8, 9, 10, 11, 13, 15, 17, 18, 19, 21, 22, 23, 27, 29]",227.7466295,14792,1357,4,74,9,1.0459427008232034
basic,33,40,0,0,0,9,"[0, 1, 6, 9]",4,10,"[2, 5, 8, 11, 18, 19, 21, 22, 23, 27]",159.146338,16003,1211,17,39,8,1.142098432552584
basic,33,40,0,0,0,18,"[0, 1, 6, 9, 18]",5,9,"[2, 5, 8, 11, 19, 21, 22, 23, 27]",142.5933926,16623,620,13,14,8,1.3288108654802917
basic,33,40,0,0,0,23,"[0, 1, 6, 9, 18, 23]",6,6,"[2, 5, 8, 19, 21, 22]",108.5933926,19090,2467,6,4,8,2.0180513009829646
basic,33,40,0,0,0,5,"[0, 1, 6, 9, 18, 23, 5]",7,2,"[19, 22]",80.29144922,20034,944,2,0,8,1.786484562843798
basic,33,40,0,0,1,22,"[0, 1, 6, 9, 18, 23, 5, 22]",8,0,[],17.68154585,27388,7354,1,0,8,1.5941038894571624
basic,33,40,0,1,1,22,"[0, 1, 6, 9, 18, 23, 5, 22]",8,0,[],17.68154585,28312,924,1,0,8,1.5941038894571624
basic,34,24,0,0,0,0,[0],1,29,"[1, 2, 3, 4, 5, 6, 7, 8, 9, 10, 11, 12, 13, 14, 15, 16, 17, 18, 19, 20, 21, 22, 23, 24, 25, 26, 27, 28, 29]",300,152,-1,4,76,10,0.0
basic,34,24,0,0,0,16,"[0, 16]",2,28,"[1, 2, 3, 4, 5, 6, 7, 8, 9, 10, 11, 12, 13, 14, 15, 17, 18, 19, 20, 21, 22, 23, 24, 25, 26, 27, 28, 29]",210.3562607,6670,6518,13,110,9,1.0
basic,34,24,0,0,0,22,"[0, 16, 22]",3,27,"[1, 2, 3, 4, 5, 6, 7, 8, 9, 10, 11, 12, 13, 14, 15, 17, 18, 19, 20, 21, 23, 24, 25, 26, 27, 28, 29]",192.3285043,7744,1074,7,54,9,1.0217425143037777
basic,34,24,0,0,0,23,"[0, 16, 22, 23]",4,11,"[3, 4, 6, 8, 9, 11, 13, 15, 26, 27, 28]",121.4906613,12988,5244,12,16,7,1.0131951196465283
basic,34,24,0,0,0,11,"[0, 16, 22, 23, 11]",5,6,"[8, 9, 13, 15, 27, 28]",94.56483727,13693,705,3,3,7,1.0227618930136002
basic,34,24,0,0,0,27,"[0, 16, 22, 23, 11, 27]",6,1,[9],66.76195972,14708,1015,1,0,7,1.0211975821296455
basic,34,24,0,0,1,9,"[0, 16, 22, 23, 11, 27, 9]",7,0,[],27.20187883,18288,3580,1,0,7,1.2851547316973726
basic,34,24,0,1,1,9,"[0, 16, 22, 23, 11, 27, 9]",7,0,[],27.20187883,19213,925,1,0,7,1.2851547316973726
basic,35,11,0,0,0,0,[0],1,25,"[1, 2, 3, 4, 5, 6, 8, 9, 10, 11, 12, 13, 14, 15, 16, 17, 18, 19, 20, 22, 23, 25, 26, 27, 28]",300,163,-1,6,374,12,0.0
basic,35,11,0,0,0,17,"[0, 17]",2,18,"[1, 2, 4, 5, 6, 8, 10, 11, 12, 15, 18, 19, 22, 23, 25, 26, 27, 28]",152.9217895,6657,6494,218,762,9,1.0
basic,35,11,0,0,0,8,"[0, 17, 8]",3,15,"[1, 2, 4, 5, 6, 11, 12, 15, 18, 19, 22, 23, 25, 27, 28]",138.6039684,7473,816,95,263,9,1.1114912532636003
basic,35,11,0,0,0,15,"[0, 17, 8, 15]",4,11,"[2, 5, 6, 11, 12, 18, 19, 22, 25, 27, 28]",125.1503444,9012,1539,62,51,9,1.1146194627724886
basic,35,11,0,0,0,11,"[0, 17, 8, 15, 11]",5,9,"[2, 5, 6, 12, 19, 22, 25, 27, 28]",107.0395741,9844,832,24,2,9,1.1130192047684102
basic,35,11,0,0,0,28,"[0, 17, 8, 15, 11, 28]",6,4,"[2, 5, 19, 22]",87.62308629,11089,1245,6,2,9,1.2290091933070886
basic,35,11,0,0,0,22,"[0, 17, 8, 15, 11, 28, 22]",7,3,"[2, 5, 19]",69.23830998,12277,1188,2,1,9,1.2239803669562004
basic,35,11,0,0,0,2,"[0, 17, 8, 15, 11, 28, 22, 2]",8,1,[5],59.18843436,13226,949,1,0,9,1.3491743852967035
basic,35,11,0,0,1,5,"[0, 17, 8, 15, 11, 28, 22, 2, 5]",9,0,[],42.18843436,14304,1078,1,0,9,1.5846510009246513
basic,35,11,0,1,1,5,"[0, 17, 8, 15, 11, 28, 22, 2, 5]",9,0,[],42.18843436,15312,1008,1,0,9,1.5846510009246513
basic,36,5,0,0,0,0,[0],1,29,"[1, 2, 3, 4, 5, 6, 7, 8, 9, 10, 11, 12, 13, 14, 15, 16, 17, 18, 19, 20, 21, 22, 23, 24, 25, 26, 27, 28, 29]",300,148,-1,5,139,9,0.0
basic,36,5,0,0,0,12,"[0, 12]",2,22,"[2, 4, 5, 6, 8, 9, 10, 13, 14, 15, 16, 17, 18, 19, 21, 22, 23, 24, 25, 26, 27, 28]",228.3062067,8470,8322,1,27,9,1.0
basic,36,5,0,0,0,25,"[0, 12, 25]",3,21,"[2, 4, 5, 6, 8, 9, 10, 13, 14, 15, 16, 17, 18, 19, 21, 22, 23, 24, 26, 27, 28]",200.5213187,11845,3375,1,20,9,1.584023303445617
basic,36,5,0,0,0,23,"[0, 12, 25, 23]",4,19,"[2, 4, 5, 6, 8, 9, 10, 13, 14, 15, 16, 17, 18, 19, 21, 22, 24, 26, 27]",182.0822298,12688,843,1,14,9,2.3508446989254357
basic,36,5,0,0,0,24,"[0, 12, 25, 23, 24]",5,15,"[2, 4, 5, 6, 8, 9, 13, 14, 15, 17, 18, 19, 22, 26, 27]",158.995437,13458,770,1,12,9,1.9469752046288753
basic,36,5,0,0,0,17,"[0, 12, 25, 23, 24, 17]",6,7,"[4, 5, 6, 8, 15, 18, 19]",124.0097257,14989,1531,1,8,9,1.6482276497563642
basic,36,5,0,0,0,6,"[0, 12, 25, 23, 24, 17, 6]",7,1,[4],45.11739397,18841,3852,1,0,8,1.5262431498802396
basic,36,5,0,0,1,4,"[0, 12, 25, 23, 24, 17, 6, 4]",8,0,[],33.07579939,21140,2299,1,0,8,1.5232680323291379
basic,36,5,0,1,1,4,"[0, 12, 25, 23, 24, 17, 6, 4]",8,0,[],33.07579939,22830,1690,1,0,8,1.5232680323291379
basic,37,16,0,0,0,0,[0],1,29,"[1, 2, 3, 4, 5, 6, 7, 8, 9, 10, 11, 12, 13, 14, 15, 16, 17, 18, 19, 20, 21, 22, 23, 24, 25, 26, 27, 28, 29]",300,168,-1,13,161,9,0.0
basic,37,16,0,0,0,16,"[0, 16]",2,27,"[1, 2, 3, 4, 5, 7, 8, 9, 10, 11, 12, 13, 14, 15, 17, 18, 19, 20, 21, 22, 23, 24, 25, 26, 27, 28, 29]",217.3622362,12185,12017,6,77,8,1.0
basic,37,16,0,0,0,8,"[0, 16, 8]",3,22,"[2, 3, 4, 5, 9, 10, 12, 13, 14, 15, 17, 18, 19, 20, 21, 22, 23, 25, 26, 27, 28, 29]",168.9886897,17635,5450,5,48,8,1.0562337487415785
basic,37,16,0,0,0,20,"[0, 16, 8, 20]",4,10,"[3, 4, 5, 9, 12, 13, 15, 19, 21, 25]",111.2132624,18901,1266,4,18,8,1.0433391682219053
basic,37,16,0,0,0,25,"[0, 16, 8, 20, 25]",5,7,"[3, 4, 5, 9, 12, 13, 15]",98.5641518,19791,890,3,10,8,1.0932595216291714
basic,37,16,0,0,0,9,"[0, 16, 8, 20, 25, 9]",6,6,"[3, 4, 5, 12, 13, 15]",85.75790333,26134,6343,3,4,8,1.0872992230295722
basic,37,16,0,0,0,15,"[0, 16, 8, 20, 25, 9, 15]",7,2,"[3, 5]",46.86060265,27652,1518,2,0,8,1.1932045051018727
basic,37,16,0,0,1,5,"[0, 16, 8, 20, 25, 9, 15, 5]",8,0,[],17.43272471,28627,975,1,0,8,1.494040580605051
basic,37,16,0,1,1,5,"[0, 16, 8, 20, 25, 9, 15, 5]",8,0,[],17.43272471,30128,1501,1,0,8,1.494040580605051
basic,38,29,0,0,0,0,[0],1,29,"[1, 2, 3, 4, 5, 6, 7, 8, 9, 10, 11, 12, 13, 14, 15, 16, 17, 18, 19, 20, 21, 22, 23, 24, 25, 26, 27, 28, 29]",300,149,-1,1,78,9,0.0
basic,38,29,0,0,0,6,"[0, 6]",2,28,"[1, 2, 3, 4, 5, 7, 8, 9, 10, 11, 12, 13, 14, 15, 16, 17, 18, 19, 20, 21, 22, 23, 24, 25, 26, 27, 28, 29]",228.4108947,13792,13643,1,25,9,1.0
basic,38,29,0,0,0,28,"[0, 6, 28]",3,24,"[1, 3, 4, 5, 7, 9, 10, 11, 12, 13, 14, 15, 16, 17, 18, 20, 21, 22, 23, 24, 25, 26, 27, 29]",187.1798384,16024,2232,1,22,9,1.162106788166845
basic,38,29,0,0,0,27,"[0, 6, 28, 27]",4,19,"[1, 3, 4, 5, 7, 9, 10, 11, 12, 13, 14, 15, 16, 21, 22, 23, 25, 26, 29]",166.6615539,18409,2385,1,21,9,1.2307173895439045
basic,38,29,0,0,0,22,"[0, 6, 28, 27, 22]",5,13,"[1, 3, 4, 5, 7, 9, 12, 13, 14, 15, 21, 26, 29]",133.4200136,28256,9847,1,19,9,1.4241767805149903
basic,38,29,0,0,0,12,"[0, 6, 28, 27, 22, 12]",6,8,"[4, 5, 7, 9, 13, 14, 21, 26]",95.4726817,29700,1444,1,6,9,1.3248355326460857
basic,38,29,0,0,0,7,"[0, 6, 28, 27, 22, 12, 7]",7,4,"[4, 5, 9, 21]",81.87121119,31441,1741,1,3,9,1.3264091962339806
basic,38,29,0,0,0,9,"[0, 6, 28, 27, 22, 12, 7, 9]",8,1,[4],52.80232748,32388,947,1,0,9,1.309391257644539
basic,38,29,0,0,1,4,"[0, 6, 28, 27, 22, 12, 7, 9, 4]",9,0,[],11.76575843,33680,1292,1,0,9,1.6396807789841599
basic,38,29,0,1,1,4,"[0, 6, 28, 27, 22, 12, 7, 9, 4]",9,0,[],11.76575843,35013,1333,1,0,9,1.6396807789841599
basic,39,18,0,0,0,0,[0],1,28,"[1, 2, 3, 4, 5, 6, 7, 8, 9, 10, 11, 12, 13, 14, 16, 17, 18, 19, 20, 21, 22, 23, 24, 25, 26, 27, 28, 29]",300,147,-1,3,136,10,0.0
basic,39,18,0,0,0,28,"[0, 28]",2,16,"[1, 3, 5, 7, 8, 9, 12, 13, 14, 16, 20, 23, 24, 25, 26, 27]",236.4311397,14213,14066,2,19,10,1.0
basic,39,18,0,0,0,7,"[0, 28, 7]",3,15,"[1, 3, 5, 8, 9, 12, 13, 14, 16, 20, 23, 24, 25, 26, 27]",214.4084242,15155,942,2,17,10,1.4345180696367563
basic,39,18,0,0,0,25,"[0, 28, 7, 25]",4,13,"[1, 3, 5, 8, 9, 12, 13, 14, 16, 20, 23, 26, 27]",186.6055466,16704,1549,2,15,10,1.8896451241781882
basic,39,18,0,0,0,8,"[0, 28, 7, 25, 8]",5,10,"[3, 5, 9, 12, 13, 14, 16, 23, 26, 27]",149.551532,19467,2763,2,10,10,1.590467437592877
basic,39,18,0,0,0,13,"[0, 28, 7, 25, 8, 13]",6,9,"[3, 5, 9, 12, 14, 16, 23, 26, 27]",128.4565089,20185,718,2,5,10,1.8248274983549797
basic,39,18,0,0,0,3,"[0, 28, 7, 25, 8, 13, 3]",7,4,"[5, 12, 14, 27]",93.74339895,21791,1606,2,2,9,1.6854269768610128
basic,39,18,0,0,0,5,"[0, 28, 7, 25, 8, 13, 3, 5]",8,1,[12],35.56264612,23038,1247,1,0,9,1.479521758478013
basic,39,18,0,0,1,12,"[0, 28, 7, 25, 8, 13, 3, 5, 12]",9,0,[],24.16089187,23905,867,1,0,9,1.4866846777727596
basic,39,18,0,1,1,12,"[0, 28, 7, 25, 8, 13, 3, 5, 12]",9,0,[],24.16089187,25180,1275,1,0,9,1.4866846777727596
basic,40,15,0,0,0,0,[0],1,25,"[1, 2, 3, 4, 7, 8, 9, 10, 11, 12, 13, 14, 15, 16, 18, 20, 21, 22, 23, 24, 25, 26, 27, 28, 29]",300,147,-1,4,65,9,0.0
basic,40,15,0,0,0,11,"[0, 11]",2,19,"[3, 4, 7, 8, 9, 10, 12, 13, 14, 15, 16, 18, 20, 21, 22, 23, 25, 27, 29]",175.8307607,10378,10231,13,59,7,1.0
basic,40,15,0,0,0,3,"[0, 11, 3]",3,15,"[4, 7, 10, 12, 13, 14, 15, 16, 18, 20, 21, 22, 25, 27, 29]",164.4290064,12674,2296,8,32,7,1.0241183710373032
basic,40,15,0,0,0,16,"[0, 11, 3, 16]",4,10,"[4, 7, 10, 12, 13, 14, 15, 18, 21, 22]",139.349134,22508,9834,6,8,7,1.4072163530838298
basic,40,15,0,0,0,22,"[0, 11, 3, 16, 22]",5,4,"[4, 13, 14, 15]",80.49337812,23887,1379,2,2,7,1.2723151037132594
basic,40,15,0,0,0,15,"[0, 11, 3, 16, 22, 15]",6,1,[13],54.88088117,24679,792,1,0,7,1.2481894827016335
basic,40,15,0,0,1,13,"[0, 11, 3, 16, 22, 15, 13]",7,0,[],39.61654364,27783,3104,1,0,7,1.299709650288985
basic,40,15,0,1,1,13,"[0, 11, 3, 16, 22, 15, 13]",7,0,[],39.61654364,29829,2046,1,0,7,1.299709650288985
basic,41,8,0,0,0,0,[0],1,29,"[1, 2, 3, 4, 5, 6, 7, 8, 9, 10, 11, 12, 13, 14, 15, 16, 17, 18, 19, 20, 21, 22, 23, 24, 25, 26, 27, 28, 29]",300,163,-1,10,149,9,0.0
basic,41,8,0,0,0,5,"[0, 5]",2,28,"[1, 2, 3, 4, 6, 7, 8, 9, 10, 11, 12, 13, 14, 15, 16, 17, 18, 19, 20, 21, 22, 23, 24, 25, 26, 27, 28, 29]",254.5137383,11352,11189,10,100,9,1.0
basic,41,8,0,0,0,25,"[0, 5, 25]",3,20,"[1, 2, 3, 4, 6, 11, 12, 14, 15, 16, 17, 18, 19, 20, 21, 22, 23, 24, 28, 29]",215.3091468,20545,9193,4,42,9,1.2272747879909065
basic,41,8,0,0,0,1,"[0, 5, 25, 1]",4,17,"[3, 4, 6, 11, 12, 14, 15, 16, 17, 18, 20, 21, 22, 23, 24, 28, 29]",190.3091468,21448,903,3,24,9,1.1770245007593956
basic,41,8,0,0,0,23,"[0, 5, 25, 1, 23]",5,15,"[3, 4, 6, 11, 14, 15, 16, 17, 18, 20, 21, 22, 24, 28, 29]",167.2874179,22028,580,1,14,9,1.141996583852372
basic,41,8,0,0,0,14,"[0, 5, 25, 1, 23, 14]",6,5,"[11, 15, 17, 18, 28]",98.40345751,41271,19243,2,3,8,2.359509060380308
basic,41,8,0,0,0,17,"[0, 5, 25, 1, 23, 14, 17]",7,1,[11],61.38994646,43522,2251,1,0,8,2.1845828320464817
basic,41,8,0,0,1,11,"[0, 5, 25, 1, 23, 14, 17, 11]",8,0,[],36.21058984,47475,3953,1,0,8,2.014892814041164
basic,41,8,0,1,1,11,"[0, 5, 25, 1, 23, 14, 17, 11]",8,0,[],36.21058984,52794,5319,1,0,8,2.014892814041164
basic,42,35,0,0,0,0,[0],1,29,"[1, 2, 3, 4, 5, 6, 7, 8, 9, 10, 11, 12, 13, 14, 15, 16, 17, 18, 19, 20, 21, 22, 23, 24, 25, 26, 27, 28, 29]",300,168,-1,5,236,11,0.0
basic,42,35,0,0,0,24,"[0, 24]",2,27,"[1, 2, 4, 5, 6, 7, 8, 9, 10, 11, 12, 13, 14, 15, 16, 17, 18, 19, 20, 21, 22, 23, 25, 26, 27, 28, 29]",268.9838752,13021,12853,49,512,10,1.0
basic,42,35,0,0,0,1,"[0, 24, 1]",3,26,"[2, 4, 5, 6, 7, 8, 9, 10, 11, 12, 13, 14, 15, 16, 17, 18, 19, 20, 21, 22, 23, 25, 26, 27, 28, 29]",251.8666324,14194,1173,9,159,10,1.0069389618412046
basic,42,35,0,0,0,23,"[0, 24, 1, 23]",4,16,"[2, 4, 5, 6, 9, 11, 15, 17, 18, 19, 20, 25, 26, 27, 28, 29]",193.3431328,15902,1708,42,94,8,1.0031658715426313
basic,42,35,0,0,0,6,"[0, 24, 1, 23, 6]",5,9,"[4, 5, 9, 15, 17, 18, 19, 25, 29]",147.692284,22268,6366,12,14,8,1.007181670982701
basic,42,35,0,0,0,25,"[0, 24, 1, 23, 6, 25]",6,5,"[5, 9, 15, 17, 18]",123.6714597,23536,1268,4,3,8,1.0888419981885376
basic,42,35,0,0,0,18,"[0, 24, 1, 23, 6, 25, 18]",7,3,"[5, 9, 17]",89.83361107,28787,5251,3,0,8,1.6338671921068153
basic,42,35,0,0,1,9,"[0, 24, 1, 23, 6, 25, 18, 9]",8,0,[],69.80862667,31947,3160,1,0,8,2.0477033991022475
basic,42,35,0,1,1,9,"[0, 24, 1, 23, 6, 25, 18, 9]",8,0,[],69.80862667,33761,1814,1,0,8,2.0477033991022475
basic,43,31,0,0,0,0,[0],1,27,"[1, 3, 4, 5, 6, 7, 8, 10, 11, 12, 13, 14, 15, 16, 17, 18, 19, 20, 21, 22, 23, 24, 25, 26, 27, 28, 29]",300,182,-1,2,87,10,0.0
basic,43,31,0,0,0,14,"[0, 14]",2,25,"[1, 3, 5, 6, 7, 8, 10, 11, 12, 13, 15, 16, 17, 18, 19, 20, 21, 22, 23, 24, 25, 26, 27, 28, 29]",263.861378,13758,13576,2,59,10,1.0
basic,43,31,0,0,0,27,"[0, 14, 27]",3,22,"[1, 3, 5, 6, 7, 8, 10, 11, 12, 13, 15, 16, 17, 18, 19, 20, 21, 22, 24, 25, 28, 29]",235.6833724,15276,1518,1,39,10,1.5881859159302467
basic,43,31,0,0,0,8,"[0, 14, 27, 8]",4,20,"[1, 3, 5, 6, 7, 10, 11, 12, 13, 16, 17, 18, 19, 20, 21, 22, 24, 25, 28, 29]",224.6380114,16758,1482,1,36,10,2.1665048452331277
basic,43,31,0,0,0,18,"[0, 14, 27, 8, 18]",5,15,"[1, 5, 6, 7, 11, 12, 13, 16, 17, 19, 20, 22, 25, 28, 29]",188.7911147,26976,10218,1,26,10,1.7273375741920205
basic,43,31,0,0,0,11,"[0, 14, 27, 8, 18, 11]",6,11,"[1, 5, 7, 12, 16, 17, 19, 20, 22, 25, 28]",153.9055876,28605,1629,13,17,9,2.386348208737804
basic,43,31,0,0,0,5,"[0, 14, 27, 8, 18, 11, 5]",7,5,"[16, 17, 20, 25, 28]",110.2249283,39114,10509,3,3,9,2.163249612867222
basic,43,31,0,0,0,28,"[0, 14, 27, 8, 18, 11, 5, 28]",8,2,"[16, 17]",90.00117988,42320,3206,2,0,9,1.9564635733184719
basic,43,31,0,0,1,16,"[0, 14, 27, 8, 18, 11, 5, 28, 16]",9,0,[],56.38570725,46981,4661,1,0,9,1.824071502589619
basic,43,31,0,1,1,16,"[0, 14, 27, 8, 18, 11, 5, 28, 16]",9,0,[],56.38570725,48414,1433,1,0,9,1.824071502589619
basic,44,41,0,0,0,0,[0],1,29,"[1, 2, 3, 4, 5, 6, 7, 8, 9, 10, 11, 12, 13, 14, 15, 16, 17, 18, 19, 20, 21, 22, 23, 24, 25, 26, 27, 28, 29]",300,178,-1,1,143,10,0.0
basic,44,41,0,0,0,28,"[0, 28]",2,27,"[1, 2, 3, 5, 6, 7, 8, 9, 10, 11, 12, 13, 14, 15, 16, 17, 18, 19, 20, 21, 22, 23, 24, 25, 26, 27, 29]",259.8004975,4606,4428,37,249,9,1.0
basic,44,41,0,0,0,5,"[0, 28, 5]",3,26,"[1, 2, 3, 6, 7, 8, 9, 10, 11, 12, 13, 14, 15, 16, 17, 18, 19, 20, 21, 22, 23, 24, 25, 26, 27, 29]",246.199027,7294,2688,30,182,9,1.714241539747437
basic,44,41,0,0,0,21,"[0, 28, 5, 21]",4,20,"[1, 2, 3, 6, 9, 10, 11, 12, 13, 14, 15, 17, 18, 19, 20, 22, 24, 25, 26, 27]",184.4252462,9873,2579,31,83,8,2.3645848466129458
basic,44,41,0,0,0,9,"[0, 28, 5, 21, 9]",5,14,"[1, 2, 3, 10, 12, 13, 14, 15, 17, 19, 22, 24, 25, 26]",135.059266,16286,6413,11,21,8,2.004331021301172
basic,44,41,0,0,0,2,"[0, 28, 5, 21, 9, 2]",6,12,"[1, 3, 10, 12, 14, 15, 17, 19, 22, 24, 25, 26]",122.97622,18759,2473,9,5,8,1.9565715752397006
basic,44,41,0,0,0,14,"[0, 28, 5, 21, 9, 2, 14]",7,1,[15],55.19716719,20841,2082,1,0,8,1.5470319277943323
basic,44,41,0,0,1,15,"[0, 28, 5, 21, 9, 2, 14, 15]",8,0,[],26.33542781,22036,1195,1,0,8,1.4979417630467793
basic,44,41,0,1,1,15,"[0, 28, 5, 21, 9, 2, 14, 15]",8,0,[],26.33542781,23311,1275,1,0,8,1.4979417630467793
basic,45,19,0,0,0,0,[0],1,29,"[1, 2, 3, 4, 5, 6, 7, 8, 9, 10, 11, 12, 13, 14, 15, 16, 17, 18, 19, 20, 21, 22, 23, 24, 25, 26, 27, 28, 29]",300,148,-1,12,149,8,0.0
basic,45,19,0,0,0,16,"[0, 16]",2,13,"[1, 2, 3, 5, 8, 12, 13, 15, 17, 19, 23, 25, 29]",194.2408396,16818,16670,1,26,7,1.0
basic,45,19,0,0,0,12,"[0, 16, 12]",3,10,"[1, 2, 3, 8, 13, 17, 19, 23, 25, 29]",126.5651424,19571,2753,1,12,7,1.450081650625254
basic,45,19,0,0,0,17,"[0, 16, 12, 17]",4,6,"[1, 2, 3, 8, 23, 25]",106.4405306,21293,1722,1,5,7,1.3965315142886428
basic,45,19,0,0,0,25,"[0, 16, 12, 17, 25]",5,5,"[1, 2, 3, 8, 23]",95.39516956,23141,1848,1,4,7,1.5003967468312378
basic,45,19,0,0,1,1,"[0, 16, 12, 17, 25, 1]",6,0,[],20.20873462,24357,1216,1,0,6,2.0916671290900632
basic,45,19,0,1,1,1,"[0, 16, 12, 17, 25, 1]",6,0,[],20.20873462,25580,1223,1,0,6,2.0916671290900632
basic,46,14,0,0,0,0,[0],1,29,"[1, 2, 3, 4, 5, 6, 7, 8, 9, 10, 11, 12, 13, 14, 15, 16, 17, 18, 19, 20, 21, 22, 23, 24, 25, 26, 27, 28, 29]",300,183,-1,8,157,10,0.0
basic,46,14,0,0,0,15,"[0, 15]",2,20,"[1, 2, 3, 4, 7, 8, 9, 13, 17, 18, 19, 20, 21, 22, 23, 25, 26, 27, 28, 29]",216.7053423,22130,21947,8,102,10,1.0
basic,46,14,0,0,0,18,"[0, 15, 18]",3,13,"[1, 2, 4, 7, 8, 13, 17, 19, 20, 23, 25, 26, 28]",153.6418822,24774,2644,26,101,9,1.2185936334127205
basic,46,14,0,0,0,8,"[0, 15, 18, 8]",4,10,"[1, 2, 4, 7, 17, 19, 23, 25, 26, 28]",140.0404117,26540,1766,26,60,9,1.2207454945880838
basic,46,14,0,0,0,19,"[0, 15, 18, 8, 19]",5,9,"[1, 2, 4, 7, 17, 23, 25, 26, 28]",119.4248836,31280,4740,13,29,9,1.2211897843897934
basic,46,14,0,0,0,25,"[0, 15, 18, 8, 19, 25]",6,6,"[1, 2, 4, 7, 23, 26]",83.57798691,34036,2756,2,7,9,1.322205213074936
basic,46,14,0,0,0,7,"[0, 15, 18, 8, 19, 25, 7]",7,4,"[2, 4, 23, 26]",63.88027131,34822,786,2,2,9,1.3520176334653646
basic,46,14,0,0,0,23,"[0, 15, 18, 8, 19, 25, 7, 23]",8,1,[26],26.77232068,36570,1748,1,0,9,1.4535649315701236
basic,46,14,0,0,1,26,"[0, 15, 18, 8, 19, 25, 7, 23, 26]",9,0,[],15.95566685,37595,1025,1,0,9,1.4316852504068815
basic,46,14,0,1,1,26,"[0, 15, 18, 8, 19, 25, 7, 23, 26]",9,0,[],15.95566685,38948,1353,1,0,9,1.4316852504068815
basic,47,12,0,0,0,0,[0],1,29,"[1, 2, 3, 4, 5, 6, 7, 8, 9, 10, 11, 12, 13, 14, 15, 16, 17, 18, 19, 20, 21, 22, 23, 24, 25, 26, 27, 28, 29]",300,147,-1,2,32,9,0.0
basic,47,12,0,0,0,22,"[0, 22]",2,22,"[2, 4, 5, 6, 7, 9, 10, 12, 13, 14, 15, 16, 17, 18, 19, 21, 23, 24, 25, 27, 28, 29]",211.9943184,26342,26195,6,42,8,1.0
basic,47,12,0,0,0,16,"[0, 22, 16]",3,12,"[2, 4, 5, 6, 7, 12, 14, 19, 23, 24, 25, 27]",190.9943184,27036,694,6,24,8,1.2017164145167045
basic,47,12,0,0,0,4,"[0, 22, 16, 4]",4,9,"[2, 6, 7, 12, 14, 19, 24, 25, 27]",156.7890556,28122,1086,6,14,8,1.146531713305579
basic,47,12,0,0,0,12,"[0, 22, 16, 4, 12]",5,4,"[14, 19, 24, 27]",114.5990094,32610,4488,4,3,8,1.1221389456954312
basic,47,12,0,0,0,27,"[0, 22, 16, 4, 12, 27]",6,3,"[14, 19, 24]",90.24741807,33455,845,2,1,8,1.2262878338287035
basic,47,12,0,0,0,14,"[0, 22, 16, 4, 12, 27, 14]",7,1,[24],61.59432051,34367,912,1,0,8,1.2804562106751427
basic,47,12,0,0,1,24,"[0, 22, 16, 4, 12, 27, 14, 24]",8,0,[],44.38966997,35422,1055,1,0,8,1.4322660007679802
basic,47,12,0,1,1,24,"[0, 22, 16, 4, 12, 27, 14, 24]",8,0,[],44.38966997,36563,1141,1,0,8,1.4322660007679802
basic,48,37,0,0,0,0,[0],1,29,"[1, 2, 3, 4, 5, 6, 7, 8, 9, 10, 11, 12, 13, 14, 15, 16, 17, 18, 19, 20, 21, 22, 23, 24, 25, 26, 27, 28, 29]",300,146,-1,6,168,10,0.0
basic,48,37,0,0,0,2,"[0, 2]",2,11,"[1, 4, 7, 15, 18, 19, 20, 21, 22, 26, 29]",148.8279126,5237,5091,22,111,8,1.0
basic,48,37,0,0,0,4,"[0, 2, 4]",3,9,"[1, 7, 15, 18, 19, 20, 21, 22, 26]",137.4261584,6423,1186,16,48,8,1.0002508292112766
basic,48,37,0,0,0,1,"[0, 2, 4, 1]",4,8,"[7, 15, 18, 19, 20, 21, 22, 26]",119.7061132,7753,1330,13,22,8,1.1387991830834925
basic,48,37,0,0,0,15,"[0, 2, 4, 1, 15]",5,4,"[19, 20, 21, 26]",79.74363083,8890,1137,5,5,8,1.3236790114659696
basic,48,37,0,0,0,20,"[0, 2, 4, 1, 15, 20]",6,3,"[19, 21, 26]",62.74363083,12937,4047,2,2,8,1.5827998768804765
basic,48,37,0,0,0,21,"[0, 2, 4, 1, 15, 20, 21]",7,2,"[19, 26]",48.32142572,13841,904,2,0,8,1.621708973225174
basic,48,37,0,0,1,26,"[0, 2, 4, 1, 15, 20, 21, 26]",8,0,[],18.58928823,14893,1052,1,0,8,1.6071168963899543
basic,48,37,0,1,1,26,"[0, 2, 4, 1, 15, 20, 21, 26]",8,0,[],18.58928823,15829,936,1,0,8,1.6071168963899543
basic,49,44,0,0,0,0,[0],1,29,"[1, 2, 3, 4, 5, 6, 7, 8, 9, 10, 11, 12, 13, 14, 15, 16, 17, 18, 19, 20, 21, 22, 23, 24, 25, 26, 27, 28, 29]",300,146,-1,13,126,7,0.0
basic,49,44,0,0,0,9,"[0, 9]",2,17,"[2, 4, 5, 7, 8, 10, 11, 12, 13, 14, 20, 22, 23, 24, 25, 26, 28]",141.32423,7854,7708,3,26,7,1.0
basic,49,44,0,0,0,4,"[0, 9, 4]",3,15,"[2, 5, 7, 8, 10, 11, 12, 14, 20, 22, 23, 24, 25, 26, 28]",121.6265143,8693,839,3,21,7,1.0155532843148096
basic,49,44,0,0,0,7,"[0, 9, 4, 7]",4,10,"[2, 5, 11, 12, 14, 23, 24, 25, 26, 28]",90.61038951,13484,4791,3,9,7,1.0134022837125412
basic,49,44,0,0,0,23,"[0, 9, 4, 7, 23]",5,7,"[5, 12, 14, 24, 25, 26, 28]",71.50541634,17211,3727,3,4,7,1.043310757564056
basic,49,44,0,0,0,28,"[0, 9, 4, 7, 23, 28]",6,1,[26],19.5342705,19035,1824,1,0,7,1.0580072524850708
basic,49,44,0,0,1,26,"[0, 9, 4, 7, 23, 28, 26]",7,0,[],6.534270496,20071,1036,1,0,7,1.055488728885845
basic,49,44,0,1,1,26,"[0, 9, 4, 7, 23, 28, 26]",7,0,[],6.534270496,21012,941,1,0,7,1.055488728885845
basic,50,34,0,0,0,0,[0],1,25,"[1, 3, 4, 5, 6, 7, 8, 9, 10, 11, 12, 13, 15, 18, 19, 20, 21, 22, 23, 24, 25, 26, 27, 28, 29]",300,168,-1,12,367,10,0.0
basic,50,34,0,0,0,13,"[0, 13]",2,24,"[1, 3, 4, 5, 6, 7, 8, 9, 10, 11, 12, 15, 18, 19, 20, 21, 22, 23, 24, 25, 26, 27, 28, 29]",279.9750156,2451,2283,12,331,10,1.0
basic,50,34,0,0,0,1,"[0, 13, 1]",3,16,"[3, 5, 7, 8, 9, 10, 11, 12, 19, 21, 22, 23, 24, 25, 27, 29]",211.8574701,4186,1735,3,92,10,1.0010381285747127
basic,50,34,0,0,0,8,"[0, 13, 1, 8]",4,14,"[3, 5, 7, 9, 10, 11, 12, 19, 22, 23, 24, 25, 27, 29]",201.0871405,4958,772,2,54,10,1.1636807
basic,50,34,0,0,0,25,"[0, 13, 1, 8, 25]",5,12,"[3, 5, 7, 9, 10, 11, 12, 22, 23, 24, 27, 29]",183.999133,5922,964,2,28,10,1.1396208815936457
basic,50,34,0,0,0,24,"[0, 13, 1, 8, 25, 24]",6,11,"[3, 5, 7, 9, 10, 11, 12, 22, 23, 27, 29]",166.5062774,14385,8463,2,23,10,1.374180768736554
basic,50,34,0,0,0,12,"[0, 13, 1, 8, 25, 24, 12]",7,7,"[7, 9, 10, 11, 22, 23, 27]",115.4670767,15976,1591,1,8,10,1.4994254760835948
basic,50,34,0,0,0,7,"[0, 13, 1, 8, 25, 24, 12, 7]",8,5,"[9, 11, 22, 23, 27]",100.4337804,18954,2978,1,4,10,1.758992610425009
basic,50,34,0,0,0,23,"[0, 13, 1, 8, 25, 24, 12, 7, 23]",9,1,[27],72.27352467,19843,889,1,0,10,2.399781305190153
basic,50,34,0,0,1,27,"[0, 13, 1, 8, 25, 24, 12, 7, 23, 27]",10,0,[],18.60789321,21210,1367,1,0,10,4.766619878750327
basic,50,34,0,1,1,27,"[0, 13, 1, 8, 25, 24, 12, 7, 23, 27]",10,0,[],18.60789321,22929,1719,1,0,10,4.766619878750327
basic,51,17,0,0,0,0,[0],1,28,"[1, 2, 3, 4, 5, 6, 7, 8, 9, 10, 11, 12, 13, 14, 15, 16, 17, 18, 19, 20, 22, 23, 24, 25, 26, 27, 28, 29]",300,148,-1,2,73,8,0.0
basic,51,17,0,0,0,17,"[0, 17]",2,19,"[1, 2, 3, 5, 7, 8, 9, 10, 11, 12, 14, 16, 18, 19, 23, 25, 26, 27, 29]",194.4253818,5391,5243,3,56,7,1.0
basic,51,17,0,0,0,8,"[0, 17, 8]",3,14,"[2, 3, 7, 9, 10, 11, 12, 14, 16, 23, 25, 26, 27, 29]",156.2154355,6705,1314,11,17,6,1.0742762671080475
basic,51,17,0,0,0,16,"[0, 17, 8, 16]",4,3,"[2, 7, 9]",106.2054365,8418,1713,3,1,6,2.211223835442796
basic,51,17,0,0,0,2,"[0, 17, 8, 16, 2]",5,2,"[7, 9]",90.08092099,9720,1302,2,0,6,2.0266198386012593
basic,51,17,0,0,1,7,"[0, 17, 8, 16, 2, 7]",6,0,[],6.480681758,13890,4170,1,0,6,1.5961096749360681
basic,51,17,0,1,1,7,"[0, 17, 8, 16, 2, 7]",6,0,[],6.480681758,15295,1405,1,0,6,1.5961096749360681
basic,52,2,0,0,0,0,[0],1,23,"[1, 2, 4, 5, 6, 7, 8, 9, 12, 13, 15, 16, 17, 18, 19, 20, 22, 23, 25, 26, 27, 28, 29]",300,148,-1,70,620,10,0.0
basic,52,2,0,0,0,5,"[0, 5]",2,15,"[1, 4, 6, 7, 12, 13, 15, 16, 18, 19, 22, 25, 26, 28, 29]",158.4655519,5873,5725,2,112,9,1.0
basic,52,2,0,0,0,22,"[0, 5, 22]",3,12,"[1, 6, 7, 12, 13, 15, 18, 19, 25, 26, 28, 29]",145.6593034,6804,931,1,52,9,1.000190025347108
basic,52,2,0,0,0,13,"[0, 5, 22, 13]",4,10,"[1, 6, 7, 12, 15, 18, 19, 25, 26, 29]",130.7932347,8821,2017,1,42,9,1.1438896754345678
basic,52,2,0,0,0,18,"[0, 5, 22, 13, 18]",5,5,"[7, 12, 15, 26, 29]",95.62222388,10537,1716,1,14,9,1.1366606276113354
basic,52,2,0,0,0,7,"[0, 5, 22, 13, 18, 7]",6,4,"[12, 15, 26, 29]",85.32659374,11291,754,1,4,9,1.1298600329473683
basic,52,2,0,0,0,26,"[0, 5, 22, 13, 18, 7, 26]",7,2,"[15, 29]",62.52308524,12606,1315,1,1,9,1.1235289229319043
basic,52,2,0,0,0,15,"[0, 5, 22, 13, 18, 7, 26, 15]",8,1,[29],38.31564837,13587,981,1,0,9,1.3892285740256285
basic,52,2,0,0,1,29,"[0, 5, 22, 13, 18, 7, 26, 15, 29]",9,0,[],9.855149426,15141,1554,1,0,9,1.5805197123934758
basic,52,2,0,1,1,29,"[0, 5, 22, 13, 18, 7, 26, 15, 29]",9,0,[],9.855149426,16048,907,1,0,9,1.5805197123934758
basic,53,25,0,0,0,0,[0],1,28,"[1, 2, 3, 4, 5, 7, 8, 9, 10, 11, 12, 13, 14, 15, 16, 17, 18, 19, 20, 21, 22, 23, 24, 25, 26, 27, 28, 29]",300,165,-1,5,94,10,0.0
basic,53,25,0,0,0,7,"[0, 7]",2,18,"[1, 3, 5, 8, 9, 11, 13, 17, 19, 20, 21, 22, 23, 24, 26, 27, 28, 29]",182.7993174,8492,8327,1,22,8,1.0
basic,53,25,0,0,0,24,"[0, 7, 24]",3,11,"[3, 5, 8, 9, 11, 13, 19, 22, 23, 28, 29]",158.0404806,9353,861,1,18,8,1.0100618974182514
basic,53,25,0,0,0,9,"[0, 7, 24, 9]",4,9,"[3, 8, 11, 13, 19, 22, 23, 28, 29]",140.0127242,10475,1122,1,17,8,1.0248438018220953
basic,53,25,0,0,0,3,"[0, 7, 24, 9, 3]",5,4,"[8, 11, 13, 28]",109.7472323,11521,1046,1,6,8,1.0275380386663606
basic,53,25,0,0,0,13,"[0, 7, 24, 9, 3, 13]",6,3,"[8, 11, 28]",78.50623362,13589,2068,1,2,8,1.098903296163882
basic,53,25,0,0,0,28,"[0, 7, 24, 9, 3, 13, 28]",7,1,[8],44.27174808,14658,1069,1,0,8,1.181776037128783
basic,53,25,0,0,1,8,"[0, 7, 24, 9, 3, 13, 28, 8]",8,0,[],3.663867074,15489,831,1,0,8,1.481884437750556
basic,53,25,0,1,1,8,"[0, 7, 24, 9, 3, 13, 28, 8]",8,0,[],3.663867074,16462,973,1,0,8,1.481884437750556
basic,54,27,0,0,0,0,[0],1,26,"[1, 3, 5, 6, 7, 8, 9, 10, 11, 12, 13, 14, 15, 16, 17, 18, 19, 21, 22, 23, 24, 25, 26, 27, 28, 29]",300,148,-1,13,578,11,0.0
basic,54,27,0,0,0,15,"[0, 15]",2,24,"[1, 3, 5, 6, 7, 8, 9, 10, 11, 12, 13, 14, 16, 17, 18, 19, 21, 22, 23, 24, 25, 26, 27, 29]",263.7508621,2324,2176,6,219,11,1.0
basic,54,27,0,0,0,24,"[0, 15, 24]",3,20,"[1, 5, 6, 7, 8, 9, 10, 12, 13, 14, 16, 17, 18, 19, 21, 23, 25, 26, 27, 29]",246.5462115,2937,613,6,130,11,1.130933077698322
basic,54,27,0,0,0,17,"[0, 15, 24, 17]",4,15,"[1, 6, 8, 10, 12, 13, 14, 16, 18, 19, 23, 25, 26, 27, 29]",229.9932662,4090,1153,4,60,11,1.1285538435963374
basic,54,27,0,0,0,12,"[0, 15, 24, 17, 12]",5,14,"[1, 6, 8, 10, 13, 14, 16, 18, 19, 23, 25, 26, 27, 29]",218.8129263,4922,832,2,32,11,1.2561880288755216
basic,54,27,0,0,0,10,"[0, 15, 24, 17, 12, 10]",6,11,"[1, 8, 13, 14, 18, 19, 23, 25, 26, 27, 29]",207.7675653,5603,681,2,28,11,1.2228289337766665
basic,54,27,0,0,0,13,"[0, 15, 24, 17, 12, 10, 13]",7,9,"[1, 8, 14, 18, 19, 23, 26, 27, 29]",167.9178476,13586,7983,2,18,11,1.3421291994761178
basic,54,27,0,0,0,19,"[0, 15, 24, 17, 12, 10, 13, 19]",8,5,"[1, 8, 14, 23, 29]",131.6825057,14524,938,2,6,11,1.294749956153846
basic,54,27,0,0,0,8,"[0, 15, 24, 17, 12, 10, 13, 19, 8]",9,3,"[14, 23, 29]",116.816437,18074,3550,2,1,11,1.3554286578836865
basic,54,27,0,0,0,14,"[0, 15, 24, 17, 12, 10, 13, 19, 8, 14]",10,1,[29],59.25777126,19056,982,1,0,11,1.312380420632942
basic,54,27,0,0,1,29,"[0, 15, 24, 17, 12, 10, 13, 19, 8, 14, 29]",11,0,[],14.96330208,20718,1662,1,0,11,1.4680136813839417
basic,54,27,0,1,1,29,"[0, 15, 24, 17, 12, 10, 13, 19, 8, 14, 29]",11,0,[],14.96330208,21529,811,1,0,11,1.4680136813839417
basic,55,1,0,0,0,0,[0],1,26,"[1, 2, 4, 5, 7, 8, 9, 10, 11, 12, 13, 14, 15, 16, 17, 18, 19, 20, 21, 22, 23, 24, 25, 26, 28, 29]",300,150,-1,6,74,7,0.0
basic,55,1,0,0,0,17,"[0, 17]",2,16,"[1, 4, 5, 8, 9, 13, 14, 15, 18, 19, 20, 22, 23, 25, 28, 29]",148.273272,5684,5534,5,27,6,1.0
basic,55,1,0,0,0,1,"[0, 17, 1]",3,13,"[4, 5, 8, 9, 14, 15, 18, 20, 22, 23, 25, 28, 29]",123.9216806,6471,787,5,15,6,1.023953470094605
basic,55,1,0,0,0,28,"[0, 17, 1, 28]",4,5,"[9, 15, 22, 23, 29]",89.03615356,7740,1269,5,3,6,1.031845559355314
basic,55,1,0,0,0,23,"[0, 17, 1, 28, 23]",5,2,"[15, 22]",52.14442007,14553,6813,2,0,6,1.0309254659760763
basic,55,1,0,0,1,22,"[0, 17, 1, 28, 23, 22]",6,0,[],4.134004529,18207,3654,1,0,6,1.068498275202407
basic,55,1,0,1,1,22,"[0, 17, 1, 28, 23, 22]",6,0,[],4.134004529,19295,1088,1,0,6,1.068498275202407
basic,56,38,0,0,0,0,[0],1,29,"[1, 2, 3, 4, 5, 6, 7, 8, 9, 10, 11, 12, 13, 14, 15, 16, 17, 18, 19, 20, 21, 22, 23, 24, 25, 26, 27, 28, 29]",300,170,-1,33,506,9,0.0
basic,56,38,0,0,0,20,"[0, 20]",2,28,"[1, 2, 3, 4, 5, 6, 7, 8, 9, 10, 11, 12, 13, 14, 15, 16, 17, 18, 19, 21, 22, 23, 24, 25, 26, 27, 28, 29]",246.1483519,9395,9225,14,198,9,1.0
basic,56,38,0,0,0,13,"[0, 20, 13]",3,19,"[3, 4, 5, 6, 10, 11, 12, 14, 15, 16, 17, 18, 19, 22, 24, 26, 27, 28, 29]",196.8939105,10489,1094,1,26,9,1.0548524046330772
basic,56,38,0,0,0,26,"[0, 20, 13, 26]",4,15,"[3, 4, 5, 11, 12, 14, 15, 16, 17, 18, 19, 22, 24, 27, 28]",165.8455611,11536,1047,7,35,8,1.0655906813121516
basic,56,38,0,0,0,24,"[0, 20, 13, 26, 24]",5,7,"[4, 11, 15, 16, 17, 18, 28]",135.0397175,12670,1134,7,4,7,1.062845176365183
basic,56,38,0,0,0,4,"[0, 20, 13, 26, 24, 4]",6,1,[15],49.94565191,14853,2183,1,0,7,3.5663870454447264
basic,56,38,0,0,1,15,"[0, 20, 13, 26, 24, 4, 15]",7,0,[],23.94565191,16190,1337,1,0,7,3.762201622873316
basic,56,38,0,1,1,15,"[0, 20, 13, 26, 24, 4, 15]",7,0,[],23.94565191,17595,1405,1,0,7,3.762201622873316
basic,57,6,0,0,0,0,[0],1,29,"[1, 2, 3, 4, 5, 6, 7, 8, 9, 10, 11, 12, 13, 14, 15, 16, 17, 18, 19, 20, 21, 22, 23, 24, 25, 26, 27, 28, 29]",300,150,-1,180,4304,10,0.0
basic,57,6,0,0,0,3,"[0, 3]",2,28,"[1, 2, 4, 5, 6, 7, 8, 9, 10, 11, 12, 13, 14, 15, 16, 17, 18, 19, 20, 21, 22, 23, 24, 25, 26, 27, 28, 29]",266.4738908,12443,12293,90,1607,10,1.0
basic,57,6,0,0,0,10,"[0, 3, 10]",3,27,"[1, 2, 4, 5, 6, 7, 8, 9, 11, 12, 13, 14, 15, 16, 17, 18, 19, 20, 21, 22, 23, 24, 25, 26, 27, 28, 29]",215.2293789,17289,4846,8,136,10,1.0050517746249001
basic,57,6,0,0,0,24,"[0, 3, 10, 24]",4,23,"[1, 2, 4, 5, 6, 7, 8, 11, 13, 14, 16, 17, 18, 19, 20, 21, 22, 23, 25, 26, 27, 28, 29]",201.812971,18275,986,8,85,10,1.0091851911500884
basic,57,6,0,0,0,17,"[0, 3, 10, 24, 17]",5,19,"[1, 2, 4, 5, 6, 7, 8, 11, 13, 14, 16, 18, 20, 21, 22, 23, 26, 27, 29]",172.5384087,19940,1665,8,53,10,1.8060138032707682
basic,57,6,0,0,0,18,"[0, 3, 10, 24, 17, 18]",6,15,"[1, 2, 6, 7, 8, 13, 14, 16, 20, 21, 22, 23, 26, 27, 29]",158.6100204,20472,532,7,36,10,2.3216150751946008
basic,57,6,0,0,0,16,"[0, 3, 10, 24, 17, 18, 16]",7,13,"[1, 2, 6, 7, 13, 14, 20, 21, 22, 23, 26, 27, 29]",135.2647853,21170,698,7,21,10,2.2822729587843544
basic,57,6,0,0,0,29,"[0, 3, 10, 24, 17, 18, 16, 29]",8,7,"[6, 14, 20, 21, 22, 23, 27]",98.57691268,22452,1282,6,4,10,1.8911507070056388
basic,57,6,0,0,0,23,"[0, 3, 10, 24, 17, 18, 16, 29, 23]",9,2,"[6, 22]",51.05849519,28256,5804,2,0,10,1.8549852217940308
basic,57,6,0,0,1,6,"[0, 3, 10, 24, 17, 18, 16, 29, 23, 6]",10,0,[],15.70315613,29155,899,1,0,10,1.7651720921259988
basic,57,6,0,1,1,6,"[0, 3, 10, 24, 17, 18, 16, 29, 23, 6]",10,0,[],15.70315613,30362,1207,1,0,10,1.7651720921259988
basic,58,22,0,0,0,0,[0],1,29,"[1, 2, 3, 4, 5, 6, 7, 8, 9, 10, 11, 12, 13, 14, 15, 16, 17, 18, 19, 20, 21, 22, 23, 24, 25, 26, 27, 28, 29]",300,150,-1,31,704,9,0.0
basic,58,22,0,0,0,16,"[0, 16]",2,21,"[1, 3, 6, 7, 8, 9, 11, 13, 14, 15, 17, 18, 19, 20, 21, 22, 24, 25, 27, 28, 29]",218.605897,15356,15206,17,147,9,1.0
basic,58,22,0,0,0,6,"[0, 16, 6]",3,16,"[1, 3, 7, 9, 13, 14, 15, 17, 19, 20, 21, 22, 24, 25, 28, 29]",184.1675463,18951,3595,5,77,9,1.3071109638102874
basic,58,22,0,0,0,9,"[0, 16, 6, 9]",4,15,"[1, 3, 7, 13, 14, 15, 17, 19, 20, 21, 22, 24, 25, 28, 29]",157.5404924,23792,4841,4,33,9,1.5907585082674378
basic,58,22,0,0,0,19,"[0, 16, 6, 9, 19]",5,12,"[3, 7, 13, 14, 15, 17, 20, 21, 24, 25, 28, 29]",137.1444143,28473,4681,3,17,9,2.0453047636701496
basic,58,22,0,0,0,29,"[0, 16, 6, 9, 19, 29]",6,10,"[3, 7, 13, 14, 15, 17, 20, 21, 24, 28]",122.111118,29626,1153,3,10,9,2.310050419546042
basic,58,22,0,0,0,24,"[0, 16, 6, 9, 19, 29, 24]",7,4,"[3, 17, 20, 21]",54.21413717,39002,9376,1,3,9,1.8323868996640549
basic,58,22,0,0,0,21,"[0, 16, 6, 9, 19, 29, 24, 21]",8,1,[3],27.01119616,40184,1182,1,0,9,1.6923539112814867
basic,58,22,0,0,1,3,"[0, 16, 6, 9, 19, 29, 24, 21, 3]",9,0,[],1.991204149,41139,955,1,0,9,1.7487020618330784
basic,58,22,0,1,1,3,"[0, 16, 6, 9, 19, 29, 24, 21, 3]",9,0,[],1.991204149,42796,1657,1,0,9,1.7487020618330784
basic,59,7,0,0,0,0,[0],1,29,"[1, 2, 3, 4, 5, 6, 7, 8, 9, 10, 11, 12, 13, 14, 15, 16, 17, 18, 19, 20, 21, 22, 23, 24, 25, 26, 27, 28, 29]",300,170,-1,3,79,9,0.0
basic,59,7,0,0,0,25,"[0, 25]",2,20,"[2, 3, 4, 5, 6, 7, 10, 13, 14, 15, 16, 18, 19, 20, 21, 22, 23, 24, 27, 28]",181.5939191,14441,14271,5,33,8,1.0
basic,59,7,0,0,0,4,"[0, 25, 4]",3,11,"[2, 6, 7, 13, 15, 16, 18, 19, 20, 21, 23]",156.8552853,19528,5087,2,14,8,1.0193465608331511
basic,59,7,0,0,0,18,"[0, 25, 4, 18]",4,9,"[2, 6, 7, 13, 15, 16, 19, 20, 23]",129.3962249,21825,2297,1,5,8,1.1916065795930246
basic,59,7,0,0,0,20,"[0, 25, 4, 18, 20]",5,6,"[2, 6, 7, 13, 16, 19]",116.5899764,24345,2520,1,3,8,1.2234405717683847
basic,59,7,0,0,0,7,"[0, 25, 4, 18, 20, 7]",6,2,"[2, 19]",76.09306295,25742,1397,1,1,8,1.2239555491812688
basic,59,7,0,0,0,19,"[0, 25, 4, 18, 20, 7, 19]",7,1,[2],46.68218061,26848,1106,1,0,8,1.3391068453377923
basic,59,7,0,0,1,2,"[0, 25, 4, 18, 20, 7, 19, 2]",8,0,[],16.53255375,28436,1588,1,0,8,1.3506108516978905
basic,59,7,0,1,1,2,"[0, 25, 4, 18, 20, 7, 19, 2]",8,0,[],16.53255375,29663,1227,1,0,8,1.3506108516978905
basic,60,20,0,0,0,0,[0],1,21,"[1, 2, 3, 4, 5, 6, 7, 8, 9, 12, 17, 18, 20, 21, 22, 23, 25, 26, 27, 28, 29]",300,171,-1,1,9,9,0.0
basic,60,20,0,0,0,5,"[0, 5]",2,14,"[1, 3, 4, 6, 8, 9, 12, 20, 21, 23, 26, 27, 28, 29]",174.3576505,7766,7595,3,24,7,1.0
basic,60,20,0,0,0,21,"[0, 5, 21]",3,10,"[1, 4, 6, 8, 9, 20, 23, 26, 27, 28]",129.3576505,13293,5527,3,13,7,1.000374735486217
basic,60,20,0,0,0,23,"[0, 5, 21, 23]",4,5,"[6, 8, 9, 27, 28]",68.61228026,17539,4246,2,3,6,1.0158261668808202
basic,60,20,0,0,0,9,"[0, 5, 21, 23, 9]",5,1,[6],49.40290755,19939,2400,1,0,6,1.0159712655869038
basic,60,20,0,0,1,6,"[0, 5, 21, 23, 9, 6]",6,0,[],26.38117868,21133,1194,1,0,6,1.032340114583654
basic,60,20,0,1,1,6,"[0, 5, 21, 23, 9, 6]",6,0,[],26.38117868,23565,2432,1,0,6,1.032340114583654
basic,61,13,0,0,0,0,[0],1,29,"[1, 2, 3, 4, 5, 6, 7, 8, 9, 10, 11, 12, 13, 14, 15, 16, 17, 18, 19, 20, 21, 22, 23, 24, 25, 26, 27, 28, 29]",300,167,-1,60,2676,11,0.0
basic,61,13,0,0,0,28,"[0, 28]",2,24,"[1, 2, 3, 4, 6, 7, 8, 9, 10, 11, 12, 13, 15, 16, 17, 19, 20, 21, 22, 23, 24, 26, 27, 29]",226.3182519,4740,4573,12,378,10,1.0
basic,61,13,0,0,0,2,"[0, 28, 2]",3,20,"[1, 3, 4, 6, 7, 9, 11, 12, 13, 15, 16, 17, 19, 20, 21, 23, 24, 26, 27, 29]",188.6751915,5807,1067,9,174,10,1.0158286399660754
basic,61,13,0,0,0,29,"[0, 28, 2, 29]",4,19,"[1, 3, 4, 6, 7, 9, 11, 12, 13, 15, 16, 17, 19, 20, 21, 23, 24, 26, 27]",176.9704916,7054,1247,9,132,10,1.1053279759370194
basic,61,13,0,0,0,11,"[0, 28, 2, 29, 11]",5,15,"[1, 3, 4, 6, 7, 13, 15, 16, 17, 19, 20, 23, 24, 26, 27]",137.4104107,10187,3133,11,35,9,1.2745951636369035
basic,61,13,0,0,0,7,"[0, 28, 2, 29, 11, 7]",6,9,"[1, 6, 13, 16, 17, 19, 23, 24, 26]",107.3438179,11022,835,4,8,9,1.8302611840736687
basic,61,13,0,0,0,26,"[0, 28, 2, 29, 11, 7, 26]",7,6,"[1, 6, 13, 16, 23, 24]",96.90351141,12225,1203,3,5,9,2.1228567234671574
basic,61,13,0,0,0,6,"[0, 28, 2, 29, 11, 7, 26, 6]",8,3,"[13, 16, 23]",76.80376016,18437,6212,3,0,9,2.055646295692604
basic,61,13,0,0,1,23,"[0, 28, 2, 29, 11, 7, 26, 6, 23]",9,0,[],13.29785493,19551,1114,1,0,9,5.0729839278566216
basic,61,13,0,1,1,23,"[0, 28, 2, 29, 11, 7, 26, 6, 23]",9,0,[],13.29785493,20529,978,1,0,9,5.0729839278566216
basic,62,0,0,0,0,0,[0],1,27,"[2, 3, 4, 5, 6, 7, 8, 9, 10, 11, 12, 13, 14, 15, 16, 17, 19, 20, 21, 22, 23, 24, 25, 26, 27, 28, 29]",300,180,-1,104,1136,9,0.0
basic,62,0,0,0,0,5,"[0, 5]",2,24,"[2, 3, 4, 7, 8, 9, 11, 12, 13, 14, 15, 16, 17, 19, 20, 21, 22, 23, 24, 25, 26, 27, 28, 29]",164.5156836,9636,9456,5,112,9,1.0
basic,62,0,0,0,0,4,"[0, 5, 4]",3,20,"[2, 3, 7, 8, 9, 11, 12, 13, 14, 15, 17, 19, 20, 21, 22, 23, 24, 25, 26, 28]",139.4358112,10977,1341,4,61,9,1.0257023158632692
basic,62,0,0,0,0,26,"[0, 5, 4, 26]",4,18,"[3, 7, 8, 9, 11, 12, 13, 14, 15, 17, 19, 20, 21, 22, 23, 24, 25, 28]",127.3942166,15009,4032,4,26,9,1.0684029773259323
basic,62,0,0,0,0,24,"[0, 5, 4, 26, 24]",5,12,"[3, 7, 8, 9, 11, 12, 15, 17, 19, 20, 23, 28]",110.2769738,16756,1747,4,16,9,1.1372083333602885
basic,62,0,0,0,0,7,"[0, 5, 4, 26, 24, 7]",6,7,"[3, 8, 9, 12, 15, 17, 19]",68.27697381,19527,2771,6,5,8,1.1303024346905406
basic,62,0,0,0,0,8,"[0, 5, 4, 26, 24, 7, 8]",7,3,"[3, 15, 19]",49.17200063,20679,1152,3,0,8,1.1275019126825385
basic,62,0,0,0,1,3,"[0, 5, 4, 26, 24, 7, 8, 3]",8,0,[],18.75818798,23408,2729,1,0,8,1.2974788039673546
basic,62,0,0,1,1,3,"[0, 5, 4, 26, 24, 7, 8, 3]",8,0,[],18.75818798,24413,1005,1,0,8,1.2974788039673546
basic,63,10,0,0,0,0,[0],1,29,"[1, 2, 3, 4, 5, 6, 7, 8, 9, 10, 11, 12, 13, 14, 15, 16, 17, 18, 19, 20, 21, 22, 23, 24, 25, 26, 27, 28, 29]",300,147,-1,1,100,9,0.0
basic,63,10,0,0,0,13,"[0, 13]",2,25,"[1, 2, 3, 4, 6, 7, 8, 9, 10, 11, 12, 14, 17, 18, 19, 20, 21, 22, 23, 24, 25, 26, 27, 28, 29]",249.4628849,9945,9798,1,79,9,1.0
basic,63,10,0,0,0,19,"[0, 13, 19]",3,12,"[2, 6, 8, 9, 10, 11, 14, 18, 20, 24, 26, 27]",180.5861835,11789,1844,11,79,8,1.0000581961988606
basic,63,10,0,0,0,14,"[0, 13, 19, 14]",4,9,"[2, 6, 9, 10, 11, 18, 20, 26, 27]",139.3551272,13688,1899,3,12,8,1.0044621525986606
basic,63,10,0,0,0,26,"[0, 13, 19, 14, 26]",5,6,"[2, 10, 11, 18, 20, 27]",104.6852556,14952,1264,5,4,7,1.4747562150941418
basic,63,10,0,0,0,11,"[0, 13, 19, 14, 26, 11]",6,1,[20],62.92402956,21726,6774,1,0,7,2.6136076668982087
basic,63,10,0,0,1,20,"[0, 13, 19, 14, 26, 11, 20]",7,0,[],24.84516403,22675,949,1,0,7,2.2733083011161037
basic,63,10,0,1,1,20,"[0, 13, 19, 14, 26, 11, 20]",7,0,[],24.84516403,23645,970,1,0,7,2.2733083011161037
basic,64,32,0,0,0,0,[0],1,29,"[1, 2, 3, 4, 5, 6, 7, 8, 9, 10, 11, 12, 13, 14, 15, 16, 17, 18, 19, 20, 21, 22, 23, 24, 25, 26, 27, 28, 29]",300,164,-1,17,359,10,0.0
basic,64,32,0,0,0,15,"[0, 15]",2,24,"[2, 3, 4, 5, 6, 7, 8, 9, 10, 11, 12, 13, 14, 16, 17, 19, 20, 22, 23, 24, 25, 26, 27, 28]",214.6185032,5022,4858,11,153,9,1.0
basic,64,32,0,0,0,28,"[0, 15, 28]",3,21,"[2, 3, 5, 7, 8, 9, 10, 11, 12, 13, 14, 16, 17, 19, 20, 22, 23, 24, 25, 26, 27]",203.2167489,6102,1080,11,119,9,1.000160051986942
basic,64,32,0,0,0,12,"[0, 15, 28, 12]",4,19,"[2, 3, 5, 7, 8, 9, 10, 11, 13, 16, 17, 19, 20, 22, 23, 24, 25, 26, 27]",184.243083,7151,1049,8,71,9,1.0281484763748023
basic,64,32,0,0,0,16,"[0, 15, 28, 12, 16]",5,17,"[2, 3, 5, 7, 8, 9, 10, 11, 13, 17, 19, 20, 22, 23, 24, 26, 27]",168.5906071,8058,907,6,38,9,1.1190771370096
basic,64,32,0,0,0,22,"[0, 15, 28, 12, 16, 22]",6,10,"[2, 3, 5, 8, 9, 10, 11, 17, 20, 27]",134.7527585,10507,2449,4,16,9,1.1702311155319893
basic,64,32,0,0,0,9,"[0, 15, 28, 12, 16, 22, 9]",7,6,"[2, 8, 10, 17, 20, 27]",112.5491552,11607,1100,2,4,9,1.2381424719932013
basic,64,32,0,0,0,2,"[0, 15, 28, 12, 16, 22, 9, 2]",8,1,[17],61.46099608,13672,2065,1,0,9,1.6446273109221003
basic,64,32,0,0,1,17,"[0, 15, 28, 12, 16, 22, 9, 2, 17]",9,0,[],21.64893761,14951,1279,1,0,9,2.46318728800517
basic,64,32,0,1,1,17,"[0, 15, 28, 12, 16, 22, 9, 2, 17]",9,0,[],21.64893761,16278,1327,1,0,9,2.46318728800517
basic,65,28,0,0,0,0,[0],1,27,"[1, 2, 3, 4, 5, 6, 7, 8, 9, 10, 11, 12, 13, 14, 15, 16, 17, 18, 19, 20, 22, 23, 25, 26, 27, 28, 29]",300,154,-1,2,96,9,0.0
basic,65,28,0,0,0,19,"[0, 19]",2,16,"[2, 4, 5, 7, 8, 9, 11, 12, 13, 14, 17, 18, 25, 26, 27, 28]",117.4157729,10789,10635,1,25,7,1.0
basic,65,28,0,0,0,7,"[0, 19, 7]",3,8,"[2, 11, 12, 13, 14, 17, 18, 26]",89.68492361,11991,1202,1,8,7,1.0736511366290795
basic,65,28,0,0,0,12,"[0, 19, 7, 12]",4,5,"[2, 13, 14, 17, 18]",76.53197718,12811,820,1,3,7,1.084681211571297
basic,65,28,0,0,0,13,"[0, 19, 7, 12, 13]",5,2,"[14, 18]",59.32732664,14673,1862,1,1,7,1.2631169455700368
basic,65,28,0,0,0,18,"[0, 19, 7, 12, 13, 18]",6,1,[14],34.91421541,15503,830,1,0,7,1.59340777564209
basic,65,28,0,0,1,14,"[0, 19, 7, 12, 13, 18, 14]",7,0,[],9.419117842,16208,705,1,0,7,1.9103525155368781
basic,65,28,0,1,1,14,"[0, 19, 7, 12, 13, 18, 14]",7,0,[],9.419117842,17096,888,1,0,7,1.9103525155368781
basic,66,26,0,0,0,0,[0],1,29,"[1, 2, 3, 4, 5, 6, 7, 8, 9, 10, 11, 12, 13, 14, 15, 16, 17, 18, 19, 20, 21, 22, 23, 24, 25, 26, 27, 28, 29]",300,150,-1,9,226,9,0.0
basic,66,26,0,0,0,10,"[0, 10]",2,6,"[4, 6, 14, 16, 17, 29]",138.1822012,2356,2206,9,66,7,1.0
basic,66,26,0,0,0,4,"[0, 10, 4]",3,5,"[6, 14, 16, 17, 29]",87.97264038,6255,3899,12,5,6,1.7493673120122266
basic,66,26,0,0,0,29,"[0, 10, 4, 29]",4,4,"[6, 14, 16, 17]",63.97264038,16962,10707,4,2,6,1.9316678169922323
basic,66,26,0,0,0,17,"[0, 10, 4, 29, 17]",5,2,"[6, 14]",33.55882773,19367,2405,2,0,6,1.8751841857211022
basic,66,26,0,0,1,6,"[0, 10, 4, 29, 17, 6]",6,0,[],13.43421593,20342,975,1,0,6,1.7842189608742607
basic,66,26,0,1,1,6,"[0, 10, 4, 29, 17, 6]",6,0,[],13.43421593,21296,954,1,0,6,1.7842189608742607
basic,67,21,0,0,0,0,[0],1,29,"[1, 2, 3, 4, 5, 6, 7, 8, 9, 10, 11, 12, 13, 14, 15, 16, 17, 18, 19, 20, 21, 22, 23, 24, 25, 26, 27, 28, 29]",300,153,-1,84,830,9,0.0
basic,67,21,0,0,0,21,"[0, 21]",2,22,"[1, 3, 4, 6, 8, 9, 10, 11, 12, 14, 15, 16, 17, 18, 20, 22, 23, 24, 25, 26, 27, 29]",210.1111798,8655,8502,1,69,9,1.0
basic,67,21,0,0,0,25,"[0, 21, 25]",3,19,"[1, 4, 6, 8, 9, 10, 11, 12, 14, 15, 16, 17, 18, 20, 22, 23, 24, 26, 29]",160.7755942,11676,3021,2,28,8,2.3275295579284236
basic,67,21,0,0,0,23,"[0, 21, 25, 23]",4,10,"[4, 8, 14, 15, 16, 17, 18, 22, 24, 29]",117.4512362,13798,2122,2,12,8,1.8435507489870155
basic,67,21,0,0,0,14,"[0, 21, 25, 23, 14]",5,4,"[4, 8, 15, 16]",88.3823525,14941,1143,2,4,8,1.8475022016685918
basic,67,21,0,0,0,4,"[0, 21, 25, 23, 14, 4]",6,3,"[8, 15, 16]",74.24021687,16138,1197,2,2,8,1.7650415345013708
basic,67,21,0,0,0,16,"[0, 21, 25, 23, 14, 4, 16]",7,2,"[8, 15]",29.64201063,17373,1235,2,0,8,1.6563951366669831
basic,67,21,0,0,1,8,"[0, 21, 25, 23, 14, 4, 16, 8]",8,0,[],11.04093539,18410,1037,1,0,8,1.5949018264800032
basic,67,21,0,1,1,8,"[0, 21, 25, 23, 14, 4, 16, 8]",8,0,[],11.04093539,20214,1804,1,0,8,1.5949018264800032
basic,68,30,0,0,0,0,[0],1,19,"[3, 4, 5, 7, 9, 11, 16, 17, 18, 19, 20, 21, 22, 24, 25, 26, 27, 28, 29]",300,145,-1,5,41,8,0.0
basic,68,30,0,0,0,27,"[0, 27]",2,10,"[3, 5, 7, 9, 18, 19, 20, 24, 25, 29]",90.59608409,12056,11911,7,22,6,1.0
basic,68,30,0,0,0,3,"[0, 27, 3]",3,8,"[5, 7, 18, 19, 20, 24, 25, 29]",71.49111091,17636,5580,5,9,6,1.0022223300201003
basic,68,30,0,0,0,5,"[0, 27, 3, 5]",4,4,"[7, 18, 24, 29]",46.65162621,21270,3634,1,3,6,1.047699458031665
basic,68,30,0,0,0,18,"[0, 27, 3, 5, 18]",5,1,[29],33.6132214,22436,1166,1,0,6,1.0906504953306948
basic,68,30,0,0,1,29,"[0, 27, 3, 5, 18, 29]",6,0,[],14.30001349,23251,815,1,0,6,1.1734964103241567
basic,68,30,0,1,1,29,"[0, 27, 3, 5, 18, 29]",6,0,[],14.30001349,24278,1027,1,0,6,1.1734964103241567
undo,69,9,0,0,0,0,[0],1,27,"[1, 3, 4, 5, 6, 7, 8, 9, 10, 11, 13, 14, 15, 16, 17, 18, 19, 20, 21, 22, 23, 24, 25, 26, 27, 28, 29]",300,164,-1,2,182,10,0.0
undo,69,9,0,0,0,8,"[0, 8]",2,25,"[1, 3, 4, 5, 6, 7, 9, 10, 11, 13, 14, 15, 16, 17, 18, 19, 20, 21, 22, 23, 24, 25, 26, 27, 28]",236.2191251,26173,26009,2,102,9,1.0
undo,69,9,0,0,0,28,"[0, 8, 28]",3,23,"[1, 3, 4, 5, 6, 7, 9, 10, 11, 13, 15, 16, 17, 18, 19, 20, 21, 22, 23, 24, 25, 26, 27]",225.4024713,26890,717,2,52,9,1.0043219354187498
undo,69,9,0,0,0,23,"[0, 8, 28, 23]",4,21,"[1, 3, 4, 5, 7, 9, 10, 11, 13, 15, 16, 17, 18, 19, 20, 21, 22, 24, 25, 26, 27]",200.3824793,27990,1100,19,104,8,1.6731219967216804
undo,69,9,0,0,0,26,"[0, 8, 28, 23, 26]",5,14,"[3, 5, 9, 10, 13, 15, 16, 17, 18, 19, 20, 21, 22, 25]",141.6542919,35669,7679,1,13,8,1.355413445835189
undo,69,9,0,0,0,18,"[0, 8, 28, 23, 26, 18]",6,4,"[5, 13, 15, 19]",80.77736683,40707,5038,1,3,8,1.2579488834139734
undo,69,9,0,0,0,5,"[0, 8, 28, 23, 26, 18, 5]",7,1,[13],16.88683545,43869,3162,1,0,8,1.2716259037563553
undo,69,9,0,0,1,13,"[0, 8, 28, 23, 26, 18, 5, 13]",8,0,[],1.622497927,45362,1493,1,0,8,1.281345634195004
undo,69,9,0,1,1,13,"[0, 8, 28, 23, 26, 18, 5, 13]",8,0,[],1.622497927,46763,1401,1,0,8,1.281345634195004
undo,70,31,0,0,0,0,[0],1,27,"[1, 3, 4, 5, 6, 7, 8, 10, 11, 12, 13, 14, 15, 16, 17, 18, 19, 20, 21, 22, 23, 24, 25, 26, 27, 28, 29]",300,162,-1,2,87,10,0.0
undo,70,31,0,0,0,14,"[0, 14]",2,25,"[1, 3, 5, 6, 7, 8, 10, 11, 12, 13, 15, 16, 17, 18, 19, 20, 21, 22, 23, 24, 25, 26, 27, 28, 29]",263.861378,9987,9825,2,59,10,1.0
undo,70,31,0,0,0,27,"[0, 14, 27]",3,22,"[1, 3, 5, 6, 7, 8, 10, 11, 12, 13, 15, 16, 17, 18, 19, 20, 21, 22, 24, 25, 28, 29]",235.6833724,11595,1608,1,39,10,1.5881859159302467
undo,70,31,0,0,0,8,"[0, 14, 27, 8]",4,20,"[1, 3, 5, 6, 7, 10, 11, 12, 13, 16, 17, 18, 19, 20, 21, 22, 24, 25, 28, 29]",224.6380114,12837,1242,1,36,10,2.1665048452331277
undo,70,31,0,0,0,11,"[0, 14, 27, 8, 11]",5,13,"[1, 5, 7, 12, 13, 16, 17, 18, 19, 20, 22, 25, 28]",173.3934995,16440,3603,7,41,9,2.0680270430571026
undo,70,31,0,0,0,18,"[0, 14, 27, 8, 11, 18]",6,12,"[1, 5, 7, 12, 13, 16, 17, 19, 20, 22, 25, 28]",138.5079724,17490,1050,5,9,9,2.50835395439338
undo,70,31,0,0,0,5,"[0, 14, 27, 8, 11, 18, 5]",7,2,"[16, 28]",60.32229595,27651,10161,1,1,9,2.732090657927371
undo,70,31,0,0,0,28,"[0, 14, 27, 8, 11, 18, 5, 28]",8,1,[16],40.09854754,28401,750,1,0,9,2.4213837206322704
undo,70,31,0,0,1,16,"[0, 14, 27, 8, 11, 18, 5, 28, 16]",9,0,[],6.483074908,29452,1051,1,0,9,2.197719405312064
undo,70,31,0,1,1,16,"[0, 14, 27, 8, 11, 18, 5, 28, 16]",9,0,[],6.483074908,30594,1142,1,0,9,2.197719405312064
undo,71,29,0,0,0,0,[0],1,29,"[1, 2, 3, 4, 5, 6, 7, 8, 9, 10, 11, 12, 13, 14, 15, 16, 17, 18, 19, 20, 21, 22, 23, 24, 25, 26, 27, 28, 29]",300,148,-1,1,78,9,0.0
undo,71,29,0,0,0,6,"[0, 6]",2,28,"[1, 2, 3, 4, 5, 7, 8, 9, 10, 11, 12, 13, 14, 15, 16, 17, 18, 19, 20, 21, 22, 23, 24, 25, 26, 27, 28, 29]",228.4108947,6256,6108,1,25,9,1.0
undo,71,29,0,0,0,14,"[0, 6, 14]",3,12,"[1, 4, 5, 7, 9, 12, 13, 17, 22, 25, 27, 28]",116.9613545,9543,3287,9,21,6,2.0223104289414144
undo,71,29,0,0,0,13,"[0, 6, 14, 13]",4,9,"[1, 4, 5, 7, 12, 17, 22, 25, 27]",98.93359815,13408,3865,6,7,6,1.857510559029433
undo,71,29,0,0,0,5,"[0, 6, 14, 13, 5]",5,4,"[4, 7, 12, 22]",73.22367789,14309,901,4,0,6,1.825047026680261
undo,71,29,0,0,1,12,"[0, 6, 14, 13, 5, 12]",6,0,[],10.09682148,22954,8645,1,0,6,1.8778617698735918
undo,71,29,0,1,1,12,"[0, 6, 14, 13, 5, 12]",6,0,[],10.09682148,24078,1124,1,0,6,1.8778617698735918
undo,72,2,0,0,0,0,[0],1,23,"[1, 2, 4, 5, 6, 7, 8, 9, 12, 13, 15, 16, 17, 18, 19, 20, 22, 23, 25, 26, 27, 28, 29]",300,152,-1,70,620,10,0.0
undo,72,2,0,0,0,12,"[0, 12]",2,19,"[1, 2, 4, 5, 6, 7, 13, 15, 16, 17, 18, 19, 20, 22, 25, 26, 27, 28, 29]",186.8275652,5087,4935,3,169,10,1.0
undo,72,2,0,0,0,18,"[0, 12, 18]",3,11,"[1, 5, 6, 7, 13, 15, 19, 22, 26, 28, 29]",118.4024236,15641,10554,12,44,8,1.0099670281289557
undo,72,2,0,0,0,7,"[0, 12, 18, 7]",4,7,"[5, 13, 15, 22, 26, 28, 29]",108.1067935,17795,2154,6,19,8,1.0099642447368422
undo,72,2,0,0,0,13,"[0, 12, 18, 7, 13]",5,3,"[5, 15, 22]",62.88511726,19418,1623,2,1,7,1.6029693953269146
undo,72,2,0,0,0,22,"[0, 12, 18, 7, 13, 22]",6,1,[5],48.01904851,20849,1431,1,0,7,1.6329382969609554
undo,72,2,0,0,1,5,"[0, 12, 18, 7, 13, 22, 5]",7,0,[],35.21280003,21888,1039,1,0,7,1.8708321791463798
undo,72,2,0,1,1,5,"[0, 12, 18, 7, 13, 22, 5]",7,0,[],35.21280003,23946,2058,1,0,7,1.8708321791463798
undo,73,43,0,0,0,0,[0],1,23,"[1, 2, 3, 4, 5, 6, 7, 9, 10, 11, 12, 14, 15, 16, 17, 19, 20, 21, 22, 23, 25, 27, 29]",300,161,-1,16,556,12,0.0
undo,73,43,0,0,0,29,"[0, 29]",2,22,"[1, 2, 3, 4, 5, 6, 7, 9, 10, 11, 12, 14, 15, 16, 17, 19, 20, 21, 22, 23, 25, 27]",277.909278,5781,5620,16,520,12,1.0
undo,73,43,0,0,0,16,"[0, 29, 16]",3,21,"[1, 2, 3, 4, 5, 6, 7, 9, 10, 11, 12, 14, 15, 17, 19, 20, 21, 22, 23, 25, 27]",243.8945753,7519,1738,1,94,12,1.0004480205874837
undo,73,43,0,0,0,11,"[0, 29, 16, 11]",4,19,"[1, 2, 3, 4, 6, 7, 9, 10, 12, 14, 15, 17, 19, 20, 21, 22, 23, 25, 27]",208.7662391,9055,1536,1,46,12,1.0025688010989011
undo,73,43,0,0,0,15,"[0, 29, 16, 11, 15]",5,14,"[1, 2, 3, 4, 6, 7, 9, 12, 14, 19, 20, 22, 23, 25]",160.0117521,14906,5851,5,63,11,1.6931309590307242
undo,73,43,0,0,0,12,"[0, 29, 16, 11, 15, 12]",6,12,"[1, 3, 4, 6, 7, 9, 14, 19, 20, 22, 23, 25]",140.6985442,17523,2617,1,27,11,1.6114090384901265
undo,73,43,0,0,0,22,"[0, 29, 16, 11, 15, 12, 22]",7,9,"[1, 3, 4, 6, 7, 14, 19, 20, 25]",99.88188097,21304,3781,5,15,10,1.6778775940679453
undo,73,43,0,0,0,3,"[0, 29, 16, 11, 15, 12, 22, 3]",8,3,"[1, 19, 25]",65.16877105,26043,4739,3,0,9,2.1079968626108965
undo,73,43,0,0,1,19,"[0, 29, 16, 11, 15, 12, 22, 3, 19]",9,0,[],24.05916147,27287,1244,1,0,9,1.9862656184869625
undo,73,43,0,1,1,19,"[0, 29, 16, 11, 15, 12, 22, 3, 19]",9,0,[],24.05916147,29744,2457,1,0,9,1.9862656184869625
undo,74,26,0,0,0,0,[0],1,29,"[1, 2, 3, 4, 5, 6, 7, 8, 9, 10, 11, 12, 13, 14, 15, 16, 17, 18, 19, 20, 21, 22, 23, 24, 25, 26, 27, 28, 29]",300,150,-1,9,226,9,0.0
undo,74,26,0,0,0,4,"[0, 4]",2,13,"[5, 6, 10, 12, 13, 14, 16, 17, 19, 21, 23, 26, 29]",178.7976898,6891,6741,4,118,8,1.0
undo,74,26,0,0,0,29,"[0, 4, 29]",3,11,"[5, 6, 10, 12, 13, 14, 16, 17, 21, 23, 26]",154.7976898,15141,8250,1,41,8,1.188347952618015
undo,74,26,0,0,0,10,"[0, 4, 29, 10]",4,3,"[6, 14, 17]",85.33546984,16828,1687,4,2,7,1.3265816973574378
undo,74,26,0,0,0,6,"[0, 4, 29, 10, 6]",5,2,"[14, 17]",56.06090751,17825,997,2,0,7,1.5188161961890079
undo,74,26,0,0,0,17,"[0, 4, 29, 10, 6, 17]",6,1,[14],35.93629571,19190,1365,1,0,7,1.8584518229253233
undo,74,26,0,0,1,14,"[0, 4, 29, 10, 6, 17, 14]",7,0,[],13.46409066,20179,989,1,0,7,1.7780463653167329
undo,74,26,0,1,1,14,"[0, 4, 29, 10, 6, 17, 14]",7,0,[],13.46409066,21480,1301,1,0,7,1.7780463653167329
undo,75,45,0,0,0,0,[0],1,24,"[1, 2, 3, 4, 5, 6, 7, 9, 10, 11, 12, 14, 15, 16, 17, 19, 20, 21, 22, 23, 24, 25, 27, 29]",300,163,-1,6,248,10,0.0
undo,75,45,0,0,0,15,"[0, 15]",2,23,"[1, 2, 3, 4, 5, 6, 7, 9, 10, 11, 12, 14, 16, 17, 19, 20, 21, 22, 23, 24, 25, 27, 29]",253.9022777,4870,4707,5,207,10,1.0
undo,75,45,0,0,0,10,"[0, 15, 10]",3,17,"[2, 3, 4, 6, 7, 9, 12, 14, 16, 17, 19, 20, 22, 23, 24, 25, 29]",149.513581,8089,3219,23,121,8,1.0227001003536764
undo,75,45,0,0,0,6,"[0, 15, 10, 6]",4,13,"[2, 3, 7, 9, 12, 14, 16, 20, 22, 23, 24, 25, 29]",123.2647715,10234,2145,8,31,8,1.0261266083584246
undo,75,45,0,0,0,12,"[0, 15, 10, 6, 12]",5,7,"[2, 3, 7, 20, 22, 25, 29]",103.1401597,11116,882,6,7,8,1.036104422631579
undo,75,45,0,0,0,22,"[0, 15, 10, 6, 12, 22]",6,3,"[2, 3, 29]",71.56485291,12823,1707,2,2,8,1.0750276142933
undo,75,45,0,0,0,3,"[0, 15, 10, 6, 12, 22, 3]",7,2,"[2, 29]",28.10222528,14176,1353,2,0,8,1.5156978457233448
undo,75,45,0,0,1,29,"[0, 15, 10, 6, 12, 22, 3, 29]",8,0,[],8.102225281,15420,1244,1,0,8,1.812365549591779
undo,75,45,0,1,1,29,"[0, 15, 10, 6, 12, 22, 3, 29]",8,0,[],8.102225281,16345,925,1,0,8,1.812365549591779
undo,76,14,0,0,0,0,[0],1,29,"[1, 2, 3, 4, 5, 6, 7, 8, 9, 10, 11, 12, 13, 14, 15, 16, 17, 18, 19, 20, 21, 22, 23, 24, 25, 26, 27, 28, 29]",300,182,-1,8,157,10,0.0
undo,76,14,0,0,0,7,"[0, 7]",2,9,"[1, 2, 4, 8, 18, 19, 23, 25, 26]",125.357508,11527,11345,4,44,7,1.0
undo,76,14,0,0,0,25,"[0, 7, 25]",3,8,"[1, 2, 4, 8, 18, 19, 23, 26]",105.6597924,13273,1746,4,26,7,1.18729898095869
undo,76,14,0,0,0,19,"[0, 7, 25, 19]",4,5,"[1, 8, 18, 23, 26]",69.81289577,14092,819,3,6,7,1.556704743090198
undo,76,14,0,0,0,8,"[0, 7, 25, 19, 8]",5,2,"[1, 18]",49.19736764,15342,1250,1,1,7,1.9140220773142709
undo,76,14,0,0,0,18,"[0, 7, 25, 19, 8, 18]",6,1,[1],35.59589714,16324,982,1,0,7,2.2014573652394844
undo,76,14,0,0,1,1,"[0, 7, 25, 19, 8, 18, 1]",7,0,[],0.127601434,17478,1154,1,0,7,1.939348182127766
undo,76,14,1,0,0,18,"[0, 7, 25, 19, 8, 18]",6,1,[1],35.59589714,19749,2271,1,0,7,2.2014573652394844
undo,76,14,1,0,0,8,"[0, 7, 25, 19, 8]",5,2,"[1, 18]",49.19736764,20515,766,1,1,7,1.9140220773142709
undo,76,14,1,0,0,19,"[0, 7, 25, 19]",4,5,"[1, 8, 18, 23, 26]",69.81289577,22549,2034,3,6,7,1.556704743090198
undo,76,14,1,0,0,25,"[0, 7, 25]",3,8,"[1, 2, 4, 8, 18, 19, 23, 26]",105.6597924,22882,333,4,26,7,1.18729898095869
undo,76,14,1,0,0,7,"[0, 7]",2,9,"[1, 2, 4, 8, 18, 19, 23, 25, 26]",125.357508,23282,400,4,44,7,1.0
undo,76,14,1,0,0,0,[0],1,29,"[1, 2, 3, 4, 5, 6, 7, 8, 9, 10, 11, 12, 13, 14, 15, 16, 17, 18, 19, 20, 21, 22, 23, 24, 25, 26, 27, 28, 29]",300,23682,400,8,157,10,0.0
undo,76,14,0,0,0,15,"[0, 15]",2,20,"[1, 2, 3, 4, 7, 8, 9, 13, 17, 18, 19, 20, 21, 22, 23, 25, 26, 27, 28, 29]",216.7053423,25261,1579,8,102,10,1.0
undo,76,14,0,0,0,18,"[0, 15, 18]",3,13,"[1, 2, 4, 7, 8, 13, 17, 19, 20, 23, 25, 26, 28]",153.6418822,26760,1499,26,101,9,1.2185936334127205
undo,76,14,0,0,0,8,"[0, 15, 18, 8]",4,10,"[1, 2, 4, 7, 17, 19, 23, 25, 26, 28]",140.0404117,29506,2746,26,60,9,1.2207454945880838
