condition,trial_id,map_id,undoIndicator,submit,checkEnd,currentChoice,chosen_all,n_city_all,n_within_reach,cities_reach,currentBudget,time_all,rt_all,n_opt_paths_all,n_subopt_paths_all,mas_all,tortuosity_all
undo,0,17,0,0,0,0,[0],1,28,"[1, 2, 3, 4, 5, 6, 7, 8, 9, 10, 11, 12, 13, 14, 15, 16, 17, 18, 19, 20, 22, 23, 24, 25, 26, 27, 28, 29]",300,208,-1,2,73,8,0.0
undo,0,17,0,0,0,9,"[0, 9]",2,25,"[1, 2, 3, 5, 6, 7, 8, 10, 11, 12, 14, 15, 16, 17, 18, 19, 20, 22, 23, 24, 25, 26, 27, 28, 29]",210.5293344,15354,15146,1,34,8,1.0
undo,0,17,0,0,0,16,"[0, 9, 16]",3,21,"[1, 2, 3, 5, 7, 8, 10, 11, 12, 14, 17, 18, 19, 20, 22, 23, 25, 26, 27, 28, 29]",197.1876704,16603,1249,1,26,8,1.173103464220352
undo,0,17,0,0,0,2,"[0, 9, 16, 2]",4,18,"[1, 3, 5, 7, 8, 10, 11, 12, 14, 17, 18, 19, 23, 25, 26, 27, 28, 29]",181.0631549,18883,2280,1,23,8,1.14825089247282
undo,0,17,0,0,0,8,"[0, 9, 16, 2, 8]",5,9,"[3, 7, 10, 11, 12, 14, 17, 26, 27]",145.9490551,21214,2331,1,9,8,1.1509808066472915
undo,0,17,0,0,0,7,"[0, 9, 16, 2, 8, 7]",6,3,"[10, 12, 27]",75.238377,26999,5785,3,0,7,1.2222166608088694
undo,0,17,0,0,1,27,"[0, 9, 16, 2, 8, 7, 27]",7,0,[],21.63800387,33990,6991,1,0,7,1.2961096752539074
undo,0,17,0,1,1,27,"[0, 9, 16, 2, 8, 7, 27]",7,0,[],21.63800387,36742,2752,1,0,7,1.2961096752539074
undo,1,12,0,0,0,0,[0],1,29,"[1, 2, 3, 4, 5, 6, 7, 8, 9, 10, 11, 12, 13, 14, 15, 16, 17, 18, 19, 20, 21, 22, 23, 24, 25, 26, 27, 28, 29]",300,145,-1,2,32,9,0.0
undo,1,12,0,0,0,22,"[0, 22]",2,22,"[2, 4, 5, 6, 7, 9, 10, 12, 13, 14, 15, 16, 17, 18, 19, 21, 23, 24, 25, 27, 28, 29]",211.9943184,11573,11428,6,42,8,1.0
undo,1,12,0,0,0,16,"[0, 22, 16]",3,12,"[2, 4, 5, 6, 7, 12, 14, 19, 23, 24, 25, 27]",190.9943184,12322,749,6,24,8,1.2017164145167045
undo,1,12,0,0,0,4,"[0, 22, 16, 4]",4,9,"[2, 6, 7, 12, 14, 19, 24, 25, 27]",156.7890556,13202,880,6,14,8,1.146531713305579
undo,1,12,0,0,0,12,"[0, 22, 16, 4, 12]",5,4,"[14, 19, 24, 27]",114.5990094,14339,1137,4,3,8,1.1221389456954312
undo,1,12,0,0,0,27,"[0, 22, 16, 4, 12, 27]",6,3,"[14, 19, 24]",90.24741807,15540,1201,2,1,8,1.2262878338287035
undo,1,12,0,0,0,14,"[0, 22, 16, 4, 12, 27, 14]",7,1,[24],61.59432051,16286,746,1,0,8,1.2804562106751427
undo,1,12,0,0,1,24,"[0, 22, 16, 4, 12, 27, 14, 24]",8,0,[],44.38966997,17521,1235,1,0,8,1.4322660007679802
undo,1,12,0,1,1,24,"[0, 22, 16, 4, 12, 27, 14, 24]",8,0,[],44.38966997,23111,5590,1,0,8,1.4322660007679802
undo,2,24,0,0,0,0,[0],1,29,"[1, 2, 3, 4, 5, 6, 7, 8, 9, 10, 11, 12, 13, 14, 15, 16, 17, 18, 19, 20, 21, 22, 23, 24, 25, 26, 27, 28, 29]",300,172,-1,4,76,10,0.0
undo,2,24,0,0,0,14,"[0, 14]",2,27,"[1, 2, 3, 4, 5, 6, 8, 9, 10, 11, 12, 13, 15, 16, 17, 18, 19, 20, 21, 22, 23, 24, 25, 26, 27, 28, 29]",278.0455016,18652,18480,4,54,10,1.0
undo,2,24,0,0,0,10,"[0, 14, 10]",3,20,"[1, 2, 3, 4, 6, 8, 9, 11, 15, 16, 17, 19, 20, 22, 23, 24, 26, 27, 28, 29]",229.342319,19758,1106,10,99,9,1.0038790212375874
undo,2,24,0,0,0,24,"[0, 14, 10, 24]",4,14,"[1, 2, 4, 6, 8, 9, 11, 15, 16, 20, 22, 23, 28, 29]",176.0037775,20892,1134,4,26,9,1.0345598967195753
undo,2,24,0,0,0,6,"[0, 14, 10, 24, 6]",5,11,"[1, 8, 9, 11, 15, 16, 20, 22, 23, 28, 29]",138.6674681,21870,978,4,19,9,1.4136213103786264
undo,2,24,0,0,0,16,"[0, 14, 10, 24, 6, 16]",6,3,"[8, 15, 22]",60.14995416,29437,7567,5,0,8,2.6755917105705294
undo,2,24,0,0,0,8,"[0, 14, 10, 24, 6, 16, 8]",7,2,"[15, 22]",31.14995416,30955,1518,2,0,8,2.4415703438932446
undo,2,24,0,0,1,22,"[0, 14, 10, 24, 6, 16, 8, 22]",8,0,[],17.7335463,33169,2214,1,0,8,2.6785514051984034
undo,2,24,1,0,0,8,"[0, 14, 10, 24, 6, 16, 8]",7,2,"[15, 22]",31.14995416,46796,13627,2,0,8,2.4415703438932446
undo,2,24,1,0,0,16,"[0, 14, 10, 24, 6, 16]",6,3,"[8, 15, 22]",60.14995416,47128,332,5,0,8,2.6755917105705294
undo,2,24,1,0,0,6,"[0, 14, 10, 24, 6]",5,11,"[1, 8, 9, 11, 15, 16, 20, 22, 23, 28, 29]",138.6674681,47479,351,4,19,9,1.4136213103786264
undo,2,24,1,0,0,24,"[0, 14, 10, 24]",4,14,"[1, 2, 4, 6, 8, 9, 11, 15, 16, 20, 22, 23, 28, 29]",176.0037775,48629,1150,4,26,9,1.0345598967195753
undo,2,24,1,0,0,10,"[0, 14, 10]",3,20,"[1, 2, 3, 4, 6, 8, 9, 11, 15, 16, 17, 19, 20, 22, 23, 24, 26, 27, 28, 29]",229.342319,49678,1049,10,99,9,1.0038790212375874
undo,2,24,1,0,0,14,"[0, 14]",2,27,"[1, 2, 3, 4, 5, 6, 8, 9, 10, 11, 12, 13, 15, 16, 17, 18, 19, 20, 21, 22, 23, 24, 25, 26, 27, 28, 29]",278.0455016,50498,820,4,54,10,1.0
undo,2,24,0,0,0,16,"[0, 14, 16]",3,25,"[2, 3, 4, 5, 6, 8, 9, 10, 11, 12, 13, 15, 17, 18, 19, 20, 21, 22, 23, 24, 25, 26, 27, 28, 29]",188.9949542,57906,7408,4,31,10,1.238291113657358
undo,2,24,0,0,0,8,"[0, 14, 16, 8]",4,17,"[2, 3, 4, 6, 9, 10, 11, 13, 15, 20, 22, 23, 24, 26, 27, 28, 29]",159.9949542,59327,1421,2,13,10,1.2714603293172921
undo,2,24,0,0,0,22,"[0, 14, 16, 8, 22]",5,13,"[3, 4, 6, 9, 10, 11, 15, 23, 24, 26, 27, 28, 29]",146.5785463,60255,928,2,10,10,1.4558841300797367
undo,2,24,0,0,0,15,"[0, 14, 16, 8, 22, 15]",6,11,"[3, 4, 6, 9, 10, 11, 23, 26, 27, 28, 29]",125.3653429,61289,1034,2,8,10,1.459909027032803
undo,2,24,0,0,0,28,"[0, 14, 16, 8, 22, 15, 28]",7,5,"[4, 9, 11, 23, 27]",80.08841717,62836,1547,2,5,10,1.3358430839259279
undo,2,24,0,0,0,23,"[0, 14, 16, 8, 22, 15, 28, 23]",8,3,"[9, 11, 27]",61.06211957,63721,885,2,2,10,1.3561794364003306
undo,2,24,0,0,0,11,"[0, 14, 16, 8, 22, 15, 28, 23, 11]",9,2,"[9, 27]",34.13629554,64636,915,2,0,10,1.323606251450204
undo,2,24,0,0,1,27,"[0, 14, 16, 8, 22, 15, 28, 23, 11, 27]",10,0,[],6.33341799,67123,2487,1,0,10,1.2857748381905127
undo,2,24,0,1,1,27,"[0, 14, 16, 8, 22, 15, 28, 23, 11, 27]",10,0,[],6.33341799,72230,5107,1,0,10,1.2857748381905127
undo,3,7,0,0,0,0,[0],1,29,"[1, 2, 3, 4, 5, 6, 7, 8, 9, 10, 11, 12, 13, 14, 15, 16, 17, 18, 19, 20, 21, 22, 23, 24, 25, 26, 27, 28, 29]",300,228,-1,3,79,9,0.0
undo,3,7,0,0,0,15,"[0, 15]",2,19,"[2, 4, 5, 6, 7, 8, 9, 10, 13, 14, 16, 18, 19, 20, 21, 23, 25, 27, 28]",230.9348134,21035,20807,2,38,9,1.0
undo,3,7,0,0,0,6,"[0, 15, 6]",3,18,"[2, 4, 5, 7, 8, 9, 10, 13, 14, 16, 18, 19, 20, 21, 23, 25, 27, 28]",205.854941,21902,867,2,36,9,1.366719602896943
undo,3,7,0,0,0,25,"[0, 15, 6, 25]",4,11,"[2, 4, 7, 13, 14, 16, 18, 19, 20, 21, 23]",138.6760753,27871,5969,2,28,9,1.3624631728355765
undo,3,7,0,0,0,4,"[0, 15, 6, 25, 4]",5,7,"[2, 7, 13, 16, 18, 19, 20]",113.9374415,31201,3330,2,12,9,1.3249684384385587
undo,3,7,0,0,0,20,"[0, 15, 6, 25, 4, 20]",6,5,"[2, 7, 13, 18, 19]",94.29055881,35505,4304,1,6,9,1.3721893242679268
undo,3,7,0,0,0,18,"[0, 15, 6, 25, 4, 20, 18]",7,3,"[7, 13, 19]",81.48431034,36631,1126,1,2,9,1.5262542308371432
undo,3,7,0,0,0,7,"[0, 15, 6, 25, 4, 20, 18, 7]",8,1,[19],40.25325408,38217,1586,1,0,9,1.41986878673423
undo,3,7,0,0,1,19,"[0, 15, 6, 25, 4, 20, 18, 7, 19]",9,0,[],10.84237174,39816,1599,1,0,9,1.5285658163212987
undo,3,7,0,1,1,19,"[0, 15, 6, 25, 4, 20, 18, 7, 19]",9,0,[],10.84237174,41691,1875,1,0,9,1.5285658163212987
undo,4,44,0,0,0,0,[0],1,29,"[1, 2, 3, 4, 5, 6, 7, 8, 9, 10, 11, 12, 13, 14, 15, 16, 17, 18, 19, 20, 21, 22, 23, 24, 25, 26, 27, 28, 29]",300,151,-1,13,126,7,0.0
undo,4,44,0,0,0,9,"[0, 9]",2,17,"[2, 4, 5, 7, 8, 10, 11, 12, 13, 14, 20, 22, 23, 24, 25, 26, 28]",141.32423,15276,15125,3,26,7,1.0
undo,4,44,0,0,0,4,"[0, 9, 4]",3,15,"[2, 5, 7, 8, 10, 11, 12, 14, 20, 22, 23, 24, 25, 26, 28]",121.6265143,17237,1961,3,21,7,1.0155532843148096
undo,4,44,0,0,0,7,"[0, 9, 4, 7]",4,10,"[2, 5, 11, 12, 14, 23, 24, 25, 26, 28]",90.61038951,18219,982,3,9,7,1.0134022837125412
undo,4,44,0,0,0,23,"[0, 9, 4, 7, 23]",5,7,"[5, 12, 14, 24, 25, 26, 28]",71.50541634,20439,2220,3,4,7,1.043310757564056
undo,4,44,0,0,0,28,"[0, 9, 4, 7, 23, 28]",6,1,[26],19.5342705,21403,964,1,0,7,1.0580072524850708
undo,4,44,0,0,1,26,"[0, 9, 4, 7, 23, 28, 26]",7,0,[],6.534270496,21925,522,1,0,7,1.055488728885845
undo,4,44,1,0,0,28,"[0, 9, 4, 7, 23, 28]",6,1,[26],19.5342705,44794,22869,1,0,7,1.0580072524850708
undo,4,44,1,0,0,23,"[0, 9, 4, 7, 23]",5,7,"[5, 12, 14, 24, 25, 26, 28]",71.50541634,44964,170,3,4,7,1.043310757564056
undo,4,44,1,0,0,7,"[0, 9, 4, 7]",4,10,"[2, 5, 11, 12, 14, 23, 24, 25, 26, 28]",90.61038951,45111,147,3,9,7,1.0134022837125412
undo,4,44,1,0,0,4,"[0, 9, 4]",3,15,"[2, 5, 7, 8, 10, 11, 12, 14, 20, 22, 23, 24, 25, 26, 28]",121.6265143,45561,450,3,21,7,1.0155532843148096
undo,4,44,1,0,0,9,"[0, 9]",2,17,"[2, 4, 5, 7, 8, 10, 11, 12, 13, 14, 20, 22, 23, 24, 25, 26, 28]",141.32423,45961,400,3,26,7,1.0
undo,4,44,0,0,0,4,"[0, 9, 4]",3,15,"[2, 5, 7, 8, 10, 11, 12, 14, 20, 22, 23, 24, 25, 26, 28]",121.6265143,51735,5774,3,21,7,1.0155532843148096
undo,4,44,0,0,0,7,"[0, 9, 4, 7]",4,10,"[2, 5, 11, 12, 14, 23, 24, 25, 26, 28]",90.61038951,54719,2984,3,9,7,1.0134022837125412
undo,4,44,0,0,0,23,"[0, 9, 4, 7, 23]",5,7,"[5, 12, 14, 24, 25, 26, 28]",71.50541634,60554,5835,3,4,7,1.043310757564056
undo,4,44,0,0,0,28,"[0, 9, 4, 7, 23, 28]",6,1,[26],19.5342705,62239,1685,1,0,7,1.0580072524850708
undo,4,44,0,0,1,26,"[0, 9, 4, 7, 23, 28, 26]",7,0,[],6.534270496,63697,1458,1,0,7,1.055488728885845
undo,4,44,0,1,1,26,"[0, 9, 4, 7, 23, 28, 26]",7,0,[],6.534270496,70027,6330,1,0,7,1.055488728885845
undo,5,41,0,0,0,0,[0],1,29,"[1, 2, 3, 4, 5, 6, 7, 8, 9, 10, 11, 12, 13, 14, 15, 16, 17, 18, 19, 20, 21, 22, 23, 24, 25, 26, 27, 28, 29]",300,159,-1,1,143,10,0.0
undo,5,41,0,0,0,21,"[0, 21]",2,28,"[1, 2, 3, 4, 5, 6, 7, 8, 9, 10, 11, 12, 13, 14, 15, 16, 17, 18, 19, 20, 22, 23, 24, 25, 26, 27, 28, 29]",251.1226024,17775,17616,50,469,8,1.0
undo,5,41,0,0,0,22,"[0, 21, 22]",3,24,"[1, 2, 3, 5, 6, 7, 8, 9, 10, 11, 12, 13, 14, 15, 16, 17, 18, 19, 20, 23, 24, 25, 27, 28]",200.1226024,35418,17643,5,62,8,1.4482591962803824
undo,5,41,0,0,0,3,"[0, 21, 22, 3]",4,17,"[1, 2, 5, 6, 9, 10, 12, 13, 14, 17, 18, 19, 20, 24, 25, 27, 28]",170.1559542,36235,817,5,30,8,3.2769680943726964
undo,5,41,0,0,0,5,"[0, 21, 22, 3, 5]",5,9,"[2, 9, 10, 13, 17, 18, 20, 27, 28]",135.3278047,37717,1482,4,10,8,5.246892423760862
undo,5,41,0,0,0,28,"[0, 21, 22, 3, 5, 28]",6,5,"[9, 13, 17, 18, 20]",121.7263342,40983,3266,2,3,8,4.434723187651666
undo,5,41,0,0,0,13,"[0, 21, 22, 3, 5, 28, 13]",7,1,[20],87.24445489,44840,3857,1,0,8,5.09895879580275
undo,5,41,0,0,1,20,"[0, 21, 22, 3, 5, 28, 13, 20]",8,0,[],24.59463446,74194,29354,1,0,8,2.9252131924261637
undo,5,41,0,1,1,20,"[0, 21, 22, 3, 5, 28, 13, 20]",8,0,[],24.59463446,75677,1483,1,0,8,2.9252131924261637
undo,6,33,0,0,0,0,[0],1,23,"[1, 2, 5, 7, 8, 11, 12, 13, 14, 15, 16, 17, 18, 19, 20, 21, 23, 24, 25, 26, 27, 28, 29]",300,185,-1,5,108,9,0.0
undo,6,33,0,0,0,21,"[0, 21]",2,17,"[2, 5, 7, 8, 11, 13, 14, 16, 17, 18, 19, 20, 24, 26, 27, 28, 29]",174.4611614,13848,13663,21,129,8,1.0
undo,6,33,0,0,0,17,"[0, 21, 17]",3,12,"[2, 7, 11, 13, 14, 16, 18, 19, 20, 24, 26, 29]",135.8218032,17057,3209,3,35,8,1.0302064673538902
undo,6,33,0,0,0,13,"[0, 21, 17, 13]",4,10,"[2, 7, 11, 14, 16, 19, 20, 24, 26, 29]",113.0182947,19267,2210,3,18,8,1.2307555582916028
undo,6,33,0,0,0,19,"[0, 21, 17, 13, 19]",5,6,"[7, 14, 16, 24, 26, 29]",87.52319715,20639,1372,3,6,8,1.267959080158969
undo,6,33,0,0,0,24,"[0, 21, 17, 13, 19, 24]",6,2,"[7, 14]",45.47560506,22098,1459,1,1,8,1.2501192148258107
undo,6,33,0,0,0,7,"[0, 21, 17, 13, 19, 24, 7]",7,1,[14],16.26944133,23859,1761,1,0,8,1.3314375425758662
undo,6,33,0,0,1,14,"[0, 21, 17, 13, 19, 24, 7, 14]",8,0,[],1.403372582,24885,1026,1,0,8,1.37637211918224
undo,6,33,0,1,1,14,"[0, 21, 17, 13, 19, 24, 7, 14]",8,0,[],1.403372582,38491,13606,1,0,8,1.37637211918224
undo,7,3,0,0,0,0,[0],1,29,"[1, 2, 3, 4, 5, 6, 7, 8, 9, 10, 11, 12, 13, 14, 15, 16, 17, 18, 19, 20, 21, 22, 23, 24, 25, 26, 27, 28, 29]",300,165,-1,34,427,10,0.0
undo,7,3,0,0,0,7,"[0, 7]",2,28,"[1, 2, 3, 4, 5, 6, 8, 9, 10, 11, 12, 13, 14, 15, 16, 17, 18, 19, 20, 21, 22, 23, 24, 25, 26, 27, 28, 29]",278.8103799,13693,13528,24,215,10,1.0
undo,7,3,0,0,0,8,"[0, 7, 8]",3,24,"[1, 2, 3, 4, 5, 6, 10, 11, 12, 13, 14, 15, 16, 17, 18, 19, 20, 21, 22, 24, 25, 26, 27, 28]",222.837172,14707,1014,16,114,10,1.2853332575451413
undo,7,3,0,0,0,24,"[0, 7, 8, 24]",4,21,"[1, 3, 4, 5, 6, 10, 11, 12, 14, 15, 16, 17, 18, 19, 20, 21, 22, 25, 26, 27, 28]",210.671647,15622,915,16,91,10,1.5177505014936548
undo,7,3,0,0,0,17,"[0, 7, 8, 24, 17]",5,9,"[3, 4, 10, 14, 15, 16, 19, 20, 21]",141.3174834,17399,1777,7,26,10,1.5510961300062232
undo,7,3,0,0,0,20,"[0, 7, 8, 24, 17, 20]",6,7,"[3, 4, 10, 14, 16, 19, 21]",128.6683728,18417,1018,7,14,10,1.5133082717474817
undo,7,3,0,0,0,3,"[0, 7, 8, 24, 17, 20, 3]",7,5,"[4, 10, 14, 19, 21]",108.2722947,19384,967,7,4,10,1.5325960555943097
undo,7,3,0,0,0,19,"[0, 7, 8, 24, 17, 20, 3, 19]",8,3,"[10, 14, 21]",70.93598532,21965,2581,3,1,10,1.5521294182529992
undo,7,3,0,0,0,21,"[0, 7, 8, 24, 17, 20, 3, 19, 21]",9,2,"[10, 14]",58.72942971,23019,1054,2,0,10,1.5690424431931145
undo,7,3,0,0,1,14,"[0, 7, 8, 24, 17, 20, 3, 19, 21, 14]",10,0,[],31.82218161,26199,3180,1,0,10,2.0836613372745463
undo,7,3,0,1,1,14,"[0, 7, 8, 24, 17, 20, 3, 19, 21, 14]",10,0,[],31.82218161,31360,5161,1,0,10,2.0836613372745463
undo,8,34,0,0,0,0,[0],1,25,"[1, 3, 4, 5, 6, 7, 8, 9, 10, 11, 12, 13, 15, 18, 19, 20, 21, 22, 23, 24, 25, 26, 27, 28, 29]",300,182,-1,12,367,10,0.0
undo,8,34,0,0,0,13,"[0, 13]",2,24,"[1, 3, 4, 5, 6, 7, 8, 9, 10, 11, 12, 15, 18, 19, 20, 21, 22, 23, 24, 25, 26, 27, 28, 29]",279.9750156,21183,21001,12,331,10,1.0
undo,8,34,0,0,0,8,"[0, 13, 8]",3,20,"[1, 3, 4, 5, 7, 9, 10, 11, 12, 18, 19, 21, 22, 23, 24, 25, 26, 27, 28, 29]",214.4616582,22170,987,1,79,10,1.0063334329411766
undo,8,34,0,0,0,1,"[0, 13, 8, 1]",4,13,"[3, 5, 7, 9, 10, 11, 12, 22, 23, 24, 25, 27, 29]",203.6913286,23569,1399,1,44,10,1.0937813141187471
undo,8,34,0,0,0,25,"[0, 13, 8, 1, 25]",5,12,"[3, 5, 7, 9, 10, 11, 12, 22, 23, 24, 27, 29]",183.6913286,24941,1372,1,29,10,1.1426448272826586
undo,8,34,0,0,0,24,"[0, 13, 8, 1, 25, 24]",6,11,"[3, 5, 7, 9, 10, 11, 12, 22, 23, 27, 29]",166.1984729,25725,784,1,24,10,1.377349299931822
undo,8,34,0,0,0,23,"[0, 13, 8, 1, 25, 24, 23]",7,6,"[5, 7, 11, 12, 27, 29]",99.67028338,29633,3908,4,3,9,2.1110742970138303
undo,8,34,0,0,0,7,"[0, 13, 8, 1, 25, 24, 23, 7]",8,2,"[11, 12]",71.5100277,30584,951,2,0,9,2.013928878532081
undo,8,34,0,0,1,12,"[0, 13, 8, 1, 25, 24, 23, 7, 12]",9,0,[],56.47673132,32625,2041,1,0,9,1.978752552921499
undo,8,34,0,1,1,12,"[0, 13, 8, 1, 25, 24, 23, 7, 12]",9,0,[],56.47673132,60794,28169,1,0,9,1.978752552921499
undo,9,37,0,0,0,0,[0],1,29,"[1, 2, 3, 4, 5, 6, 7, 8, 9, 10, 11, 12, 13, 14, 15, 16, 17, 18, 19, 20, 21, 22, 23, 24, 25, 26, 27, 28, 29]",300,187,-1,6,168,10,0.0
undo,9,37,0,0,0,18,"[0, 18]",2,19,"[1, 2, 4, 6, 7, 9, 10, 12, 14, 15, 17, 19, 20, 21, 22, 23, 26, 28, 29]",202.4090168,10376,10189,6,89,10,1.0
undo,9,37,0,0,0,7,"[0, 18, 7]",3,12,"[1, 2, 4, 9, 15, 17, 19, 20, 21, 22, 26, 29]",175.2428614,11890,1514,6,53,10,1.0413073512834488
undo,9,37,0,0,0,22,"[0, 18, 7, 22]",4,8,"[1, 2, 4, 15, 19, 20, 21, 26]",125.2428614,14132,2242,6,29,10,1.0730792320325544
undo,9,37,0,0,0,4,"[0, 18, 7, 22, 4]",5,7,"[1, 2, 15, 19, 20, 21, 26]",100.2428614,16169,2037,4,16,10,1.2290245562206235
undo,9,37,0,0,0,2,"[0, 18, 7, 22, 4, 2]",6,5,"[1, 15, 19, 20, 21]",88.84110714,17369,1200,4,7,10,1.3968113858365216
undo,9,37,0,0,0,1,"[0, 18, 7, 22, 4, 2, 1]",7,4,"[15, 19, 20, 21]",71.63645661,18169,800,4,3,10,1.4424239294761476
undo,9,37,0,0,0,20,"[0, 18, 7, 22, 4, 2, 1, 20]",8,3,"[15, 19, 21]",37.40197107,19448,1279,2,1,10,1.7518607796010042
undo,9,37,0,0,0,21,"[0, 18, 7, 22, 4, 2, 1, 20, 21]",9,1,[15],22.97976597,20920,1472,1,0,10,1.7849997782949483
undo,9,37,0,0,1,15,"[0, 18, 7, 22, 4, 2, 1, 20, 21, 15]",10,0,[],7.979765971,23556,2636,1,0,10,1.7549597142828803
undo,9,37,0,1,1,15,"[0, 18, 7, 22, 4, 2, 1, 20, 21, 15]",10,0,[],7.979765971,27711,4155,1,0,10,1.7549597142828803
undo,10,27,0,0,0,0,[0],1,26,"[1, 3, 5, 6, 7, 8, 9, 10, 11, 12, 13, 14, 15, 16, 17, 18, 19, 21, 22, 23, 24, 25, 26, 27, 28, 29]",300,159,-1,13,578,11,0.0
undo,10,27,0,0,0,15,"[0, 15]",2,24,"[1, 3, 5, 6, 7, 8, 9, 10, 11, 12, 13, 14, 16, 17, 18, 19, 21, 22, 23, 24, 25, 26, 27, 29]",263.7508621,3681,3522,6,219,11,1.0
undo,10,27,0,0,0,24,"[0, 15, 24]",3,20,"[1, 5, 6, 7, 8, 9, 10, 12, 13, 14, 16, 17, 18, 19, 21, 23, 25, 26, 27, 29]",246.5462115,4439,758,6,130,11,1.130933077698322
undo,10,27,0,0,0,17,"[0, 15, 24, 17]",4,15,"[1, 6, 8, 10, 12, 13, 14, 16, 18, 19, 23, 25, 26, 27, 29]",229.9932662,5369,930,4,60,11,1.1285538435963374
undo,10,27,0,0,0,12,"[0, 15, 24, 17, 12]",5,14,"[1, 6, 8, 10, 13, 14, 16, 18, 19, 23, 25, 26, 27, 29]",218.8129263,7483,2114,2,32,11,1.2561880288755216
undo,10,27,0,0,0,10,"[0, 15, 24, 17, 12, 10]",6,11,"[1, 8, 13, 14, 18, 19, 23, 25, 26, 27, 29]",207.7675653,8217,734,2,28,11,1.2228289337766665
undo,10,27,0,0,0,13,"[0, 15, 24, 17, 12, 10, 13]",7,9,"[1, 8, 14, 18, 19, 23, 26, 27, 29]",167.9178476,9490,1273,2,18,11,1.3421291994761178
undo,10,27,0,0,0,19,"[0, 15, 24, 17, 12, 10, 13, 19]",8,5,"[1, 8, 14, 23, 29]",131.6825057,10787,1297,2,6,11,1.294749956153846
undo,10,27,0,0,0,8,"[0, 15, 24, 17, 12, 10, 13, 19, 8]",9,3,"[14, 23, 29]",116.816437,11708,921,2,1,11,1.3554286578836865
undo,10,27,0,0,1,23,"[0, 15, 24, 17, 12, 10, 13, 19, 8, 23]",10,0,[],45.97859399,17517,5809,1,0,10,3.3397859539241304
undo,10,27,1,0,0,8,"[0, 15, 24, 17, 12, 10, 13, 19, 8]",9,3,"[14, 23, 29]",116.816437,21892,4375,2,1,11,1.3554286578836865
undo,10,27,1,0,0,19,"[0, 15, 24, 17, 12, 10, 13, 19]",8,5,"[1, 8, 14, 23, 29]",131.6825057,23042,1150,2,6,11,1.294749956153846
undo,10,27,0,0,0,8,"[0, 15, 24, 17, 12, 10, 13, 19, 8]",9,3,"[14, 23, 29]",116.816437,27568,4526,2,1,11,1.3554286578836865
undo,10,27,0,0,0,29,"[0, 15, 24, 17, 12, 10, 13, 19, 8, 29]",10,1,[14],57.61339652,32135,4567,1,0,11,1.248354519573802
undo,10,27,0,0,1,14,"[0, 15, 24, 17, 12, 10, 13, 19, 8, 29, 14]",11,0,[],13.31892734,34587,2452,1,0,11,1.562811097555156
undo,10,27,0,1,1,14,"[0, 15, 24, 17, 12, 10, 13, 19, 8, 29, 14]",11,0,[],13.31892734,37192,2605,1,0,11,1.562811097555156
undo,11,8,0,0,0,0,[0],1,29,"[1, 2, 3, 4, 5, 6, 7, 8, 9, 10, 11, 12, 13, 14, 15, 16, 17, 18, 19, 20, 21, 22, 23, 24, 25, 26, 27, 28, 29]",300,178,-1,10,149,9,0.0
undo,11,8,0,0,0,5,"[0, 5]",2,28,"[1, 2, 3, 4, 6, 7, 8, 9, 10, 11, 12, 13, 14, 15, 16, 17, 18, 19, 20, 21, 22, 23, 24, 25, 26, 27, 28, 29]",254.5137383,7403,7225,10,100,9,1.0
undo,11,8,0,0,0,14,"[0, 5, 14]",3,20,"[1, 2, 3, 4, 6, 7, 11, 15, 16, 17, 18, 19, 20, 21, 22, 23, 24, 25, 28, 29]",214.5512559,10839,3436,4,36,9,1.0001019035932595
undo,11,8,0,0,0,17,"[0, 5, 14, 17]",4,15,"[1, 4, 6, 7, 11, 15, 16, 18, 19, 20, 22, 23, 24, 25, 28]",177.5377449,11719,880,4,16,9,1.121197267659591
undo,11,8,0,0,0,11,"[0, 5, 14, 17, 11]",5,11,"[1, 4, 15, 16, 18, 19, 22, 23, 24, 25, 28]",152.3583883,13987,2268,4,8,9,1.1277254166016362
undo,11,8,0,0,0,24,"[0, 5, 14, 17, 11, 24]",6,3,"[15, 16, 28]",115.1428001,16453,2466,2,2,9,1.1227411011978805
undo,11,8,0,0,0,15,"[0, 5, 14, 17, 11, 24, 15]",7,2,"[16, 28]",98.37974552,19307,2854,2,0,9,1.1956385406066814
undo,11,8,0,0,0,16,"[0, 5, 14, 17, 11, 24, 15, 16]",8,1,[28],47.30137436,21043,1736,1,0,9,1.36482239111247
undo,11,8,0,0,1,28,"[0, 5, 14, 17, 11, 24, 15, 16, 28]",9,0,[],24.94069458,22389,1346,1,0,9,1.632953105226947
undo,11,8,0,1,1,28,"[0, 5, 14, 17, 11, 24, 15, 16, 28]",9,0,[],24.94069458,42045,19656,1,0,9,1.632953105226947
undo,12,20,0,0,0,0,[0],1,21,"[1, 2, 3, 4, 5, 6, 7, 8, 9, 12, 17, 18, 20, 21, 22, 23, 25, 26, 27, 28, 29]",300,165,-1,1,9,9,0.0
undo,12,20,0,0,0,12,"[0, 12]",2,20,"[1, 2, 3, 4, 5, 6, 7, 8, 9, 17, 18, 20, 21, 22, 23, 25, 26, 27, 28, 29]",271.5570747,10086,9921,1,8,9,1.0
undo,12,20,0,0,0,1,"[0, 12, 1]",3,12,"[3, 4, 5, 6, 8, 9, 20, 21, 23, 27, 28, 29]",189.5692707,11569,1483,1,6,9,1.0757997779162911
undo,12,20,0,0,0,5,"[0, 12, 1, 5]",4,10,"[4, 6, 8, 9, 20, 21, 23, 27, 28, 29]",152.8950291,16435,4866,1,5,9,1.1708231454516806
undo,12,20,0,0,0,21,"[0, 12, 1, 5, 21]",5,8,"[4, 6, 8, 9, 20, 23, 27, 28]",107.8950291,17808,1373,1,4,9,1.126197336199212
undo,12,20,0,0,0,8,"[0, 12, 1, 5, 21, 8]",6,5,"[6, 9, 23, 27, 28]",90.43077988,18933,1125,1,3,9,1.140007470699913
undo,12,20,0,0,0,23,"[0, 12, 1, 5, 21, 8, 23]",7,2,"[6, 9]",45.74297394,20456,1523,1,1,9,1.1162257896627588
undo,12,20,0,0,0,9,"[0, 12, 1, 5, 21, 8, 23, 9]",8,1,[6],26.53360123,21449,993,1,0,9,1.1086880559449597
undo,12,20,0,0,1,6,"[0, 12, 1, 5, 21, 8, 23, 9, 6]",9,0,[],3.511872362,22639,1190,1,0,9,1.1186240265999328
undo,12,20,0,1,1,6,"[0, 12, 1, 5, 21, 8, 23, 9, 6]",9,0,[],3.511872362,26694,4055,1,0,9,1.1186240265999328
undo,13,1,0,0,0,0,[0],1,26,"[1, 2, 4, 5, 7, 8, 9, 10, 11, 12, 13, 14, 15, 16, 17, 18, 19, 20, 21, 22, 23, 24, 25, 26, 28, 29]",300,168,-1,6,74,7,0.0
undo,13,1,0,0,0,14,"[0, 14]",2,19,"[1, 4, 5, 8, 9, 13, 15, 17, 18, 19, 20, 21, 22, 23, 24, 25, 26, 28, 29]",200.1901808,10406,10238,5,42,7,1.0
undo,13,1,0,0,0,17,"[0, 14, 17]",3,15,"[1, 4, 5, 8, 9, 13, 15, 18, 19, 20, 22, 23, 25, 28, 29]",147.8356204,11202,796,5,27,7,1.0028844724416826
undo,13,1,0,0,0,1,"[0, 14, 17, 1]",4,12,"[4, 5, 8, 9, 15, 18, 20, 22, 23, 25, 28, 29]",123.4840291,12175,973,5,15,7,1.0264985578353567
undo,13,1,0,0,0,28,"[0, 14, 17, 1, 28]",5,5,"[9, 15, 22, 23, 29]",88.59850198,13623,1448,5,3,7,1.0339861575999345
undo,13,1,0,0,0,15,"[0, 14, 17, 1, 28, 15]",6,3,"[22, 23, 29]",53.37067208,14824,1201,3,0,7,1.055553419196412
undo,13,1,0,0,1,23,"[0, 14, 17, 1, 28, 15, 23]",7,0,[],22.48378165,16939,2115,1,0,7,1.1542953231038533
undo,13,1,1,0,0,15,"[0, 14, 17, 1, 28, 15]",6,3,"[22, 23, 29]",53.37067208,32479,15540,3,0,7,1.055553419196412
undo,13,1,1,0,0,28,"[0, 14, 17, 1, 28]",5,5,"[9, 15, 22, 23, 29]",88.59850198,32713,234,5,3,7,1.0339861575999345
undo,13,1,1,0,0,1,"[0, 14, 17, 1]",4,12,"[4, 5, 8, 9, 15, 18, 20, 22, 23, 25, 28, 29]",123.4840291,33079,366,5,15,7,1.0264985578353567
undo,13,1,1,0,0,17,"[0, 14, 17]",3,15,"[1, 4, 5, 8, 9, 13, 15, 18, 19, 20, 22, 23, 25, 28, 29]",147.8356204,34196,1117,5,27,7,1.0028844724416826
undo,13,1,0,0,0,20,"[0, 14, 17, 20]",4,5,"[4, 5, 8, 18, 29]",79.42509489,38771,4575,3,3,6,1.2972077151057804
undo,13,1,0,0,0,5,"[0, 14, 17, 20, 5]",5,1,[18],57.95418433,40524,1753,1,0,6,1.2923132195161702
undo,13,1,0,0,1,18,"[0, 14, 17, 20, 5, 18]",6,0,[],35.12875991,41577,1053,1,0,6,1.3149712096478787
undo,13,1,1,0,0,5,"[0, 14, 17, 20, 5]",5,1,[18],57.95418433,47913,6336,1,0,6,1.2923132195161702
undo,13,1,1,0,0,20,"[0, 14, 17, 20]",4,5,"[4, 5, 8, 18, 29]",79.42509489,48279,366,3,3,6,1.2972077151057804
undo,13,1,1,0,0,17,"[0, 14, 17]",3,15,"[1, 4, 5, 8, 9, 13, 15, 18, 19, 20, 22, 23, 25, 28, 29]",147.8356204,48646,367,5,27,7,1.0028844724416826
undo,13,1,0,0,0,1,"[0, 14, 17, 1]",4,12,"[4, 5, 8, 9, 15, 18, 20, 22, 23, 25, 28, 29]",123.4840291,54277,5631,5,15,7,1.0264985578353567
undo,13,1,0,0,0,28,"[0, 14, 17, 1, 28]",5,5,"[9, 15, 22, 23, 29]",88.59850198,55130,853,5,3,7,1.0339861575999345
undo,13,1,0,0,0,23,"[0, 14, 17, 1, 28, 23]",6,2,"[15, 22]",51.70676849,57170,2040,2,0,7,1.0327458250705703
undo,13,1,0,0,1,22,"[0, 14, 17, 1, 28, 23, 22]",7,0,[],3.696352956,63361,6191,1,0,7,1.0700788216594126
undo,13,1,0,1,1,22,"[0, 14, 17, 1, 28, 23, 22]",7,0,[],3.696352956,65679,2318,1,0,7,1.0700788216594126
undo,14,39,0,0,0,0,[0],1,28,"[1, 2, 3, 4, 5, 6, 7, 9, 10, 11, 12, 13, 14, 15, 16, 17, 18, 19, 20, 21, 22, 23, 24, 25, 26, 27, 28, 29]",300,156,-1,1,30,10,0.0
undo,14,39,0,0,0,29,"[0, 29]",2,26,"[1, 2, 3, 4, 5, 6, 7, 9, 10, 12, 13, 14, 15, 16, 17, 18, 19, 20, 21, 22, 23, 24, 25, 26, 27, 28]",243.0614366,5969,5813,8,104,9,1.0
undo,14,39,0,0,0,12,"[0, 29, 12]",3,18,"[1, 2, 4, 5, 7, 9, 10, 13, 14, 15, 16, 18, 19, 22, 23, 24, 26, 28]",182.5221931,8354,2385,5,54,9,1.0026200331524904
undo,14,39,0,0,0,10,"[0, 29, 12, 10]",4,16,"[1, 2, 4, 5, 7, 9, 13, 14, 15, 16, 18, 19, 22, 23, 24, 26]",147.0116313,9352,998,5,34,9,1.2874817019928908
undo,14,39,0,0,0,7,"[0, 29, 12, 10, 7]",5,10,"[1, 2, 5, 13, 16, 18, 19, 22, 24, 26]",113.5900814,11394,2042,4,12,9,1.2250826263866774
undo,14,39,0,0,0,26,"[0, 29, 12, 10, 7, 26]",6,5,"[1, 16, 18, 19, 22]",94.90853971,12219,825,3,4,9,1.2697275353190085
undo,14,39,0,0,0,22,"[0, 29, 12, 10, 7, 26, 22]",7,2,"[16, 19]",77.18849457,13154,935,2,0,9,1.438961743955176
undo,14,39,0,0,0,16,"[0, 29, 12, 10, 7, 26, 22, 16]",8,1,[19],42.18849457,14522,1368,1,0,9,1.3580882130477205
undo,14,39,0,0,1,19,"[0, 29, 12, 10, 7, 26, 22, 16, 19]",9,0,[],24.72424537,16408,1886,1,0,9,1.3646589157842668
undo,14,39,0,1,1,19,"[0, 29, 12, 10, 7, 26, 22, 16, 19]",9,0,[],24.72424537,28497,12089,1,0,9,1.3646589157842668
undo,15,14,0,0,0,0,[0],1,29,"[1, 2, 3, 4, 5, 6, 7, 8, 9, 10, 11, 12, 13, 14, 15, 16, 17, 18, 19, 20, 21, 22, 23, 24, 25, 26, 27, 28, 29]",300,160,-1,8,157,10,0.0
undo,15,14,0,0,0,15,"[0, 15]",2,20,"[1, 2, 3, 4, 7, 8, 9, 13, 17, 18, 19, 20, 21, 22, 23, 25, 26, 27, 28, 29]",216.7053423,8951,8791,8,102,10,1.0
undo,15,14,0,0,0,28,"[0, 15, 28]",3,17,"[1, 2, 3, 4, 7, 8, 9, 13, 17, 18, 19, 20, 22, 23, 25, 26, 27]",197.4959696,11942,2991,8,48,10,1.0446007867311968
undo,15,14,0,0,0,17,"[0, 15, 28, 17]",4,14,"[1, 2, 3, 4, 7, 8, 13, 18, 19, 20, 22, 23, 25, 26]",184.0423455,12935,993,8,39,10,1.0729463354689972
undo,15,14,0,0,0,18,"[0, 15, 28, 17, 18]",5,9,"[1, 2, 4, 7, 8, 19, 23, 25, 26]",119.412631,14258,1323,8,27,10,1.5035901079219378
undo,15,14,0,0,0,8,"[0, 15, 28, 17, 18, 8]",6,8,"[1, 2, 4, 7, 19, 23, 25, 26]",105.8111605,15202,944,8,18,10,1.4819689987843856
undo,15,14,0,0,0,1,"[0, 15, 28, 17, 18, 8, 1]",7,5,"[7, 19, 23, 25, 26]",82.21031307,16986,1784,4,6,10,1.4084991998385268
undo,15,14,0,0,0,19,"[0, 15, 28, 17, 18, 8, 1, 19]",8,4,"[7, 23, 25, 26]",66.97876686,18122,1136,4,1,10,1.5758713333797987
undo,15,14,0,0,0,25,"[0, 15, 28, 17, 18, 8, 1, 19, 25]",9,2,"[7, 23]",31.1318702,22068,3946,2,0,10,1.6426186864061416
undo,15,14,0,0,1,7,"[0, 15, 28, 17, 18, 8, 1, 19, 25, 7]",10,0,[],11.4341546,23168,1100,1,0,10,1.652323224159132
undo,15,14,1,0,0,25,"[0, 15, 28, 17, 18, 8, 1, 19, 25]",9,2,"[7, 23]",31.1318702,38210,15042,2,0,10,1.6426186864061416
undo,15,14,1,0,0,19,"[0, 15, 28, 17, 18, 8, 1, 19]",8,4,"[7, 23, 25, 26]",66.97876686,38676,466,4,1,10,1.5758713333797987
undo,15,14,1,0,0,1,"[0, 15, 28, 17, 18, 8, 1]",7,5,"[7, 19, 23, 25, 26]",82.21031307,39059,383,4,6,10,1.4084991998385268
undo,15,14,0,0,0,19,"[0, 15, 28, 17, 18, 8, 1, 19]",8,4,"[7, 23, 25, 26]",66.97876686,43551,4492,4,1,10,1.5758713333797987
undo,15,14,0,0,0,26,"[0, 15, 28, 17, 18, 8, 1, 19, 26]",9,1,[23],13.75283333,45418,1867,1,0,10,1.4427883209195413
undo,15,14,0,0,1,23,"[0, 15, 28, 17, 18, 8, 1, 19, 26, 23]",10,0,[],2.936179503,46839,1421,1,0,10,1.5803726510701064
undo,15,14,0,1,1,23,"[0, 15, 28, 17, 18, 8, 1, 19, 26, 23]",10,0,[],2.936179503,53594,6755,1,0,10,1.5803726510701064
undo,16,35,0,0,0,0,[0],1,29,"[1, 2, 3, 4, 5, 6, 7, 8, 9, 10, 11, 12, 13, 14, 15, 16, 17, 18, 19, 20, 21, 22, 23, 24, 25, 26, 27, 28, 29]",300,159,-1,5,236,11,0.0
undo,16,35,0,0,0,24,"[0, 24]",2,27,"[1, 2, 4, 5, 6, 7, 8, 9, 10, 11, 12, 13, 14, 15, 16, 17, 18, 19, 20, 21, 22, 23, 25, 26, 27, 28, 29]",268.9838752,8222,8063,49,512,10,1.0
undo,16,35,0,0,0,1,"[0, 24, 1]",3,26,"[2, 4, 5, 6, 7, 8, 9, 10, 11, 12, 13, 14, 15, 16, 17, 18, 19, 20, 21, 22, 23, 25, 26, 27, 28, 29]",251.8666324,13252,5030,9,159,10,1.0069389618412046
undo,16,35,0,0,0,17,"[0, 24, 1, 17]",4,24,"[2, 4, 5, 6, 7, 8, 9, 10, 11, 12, 13, 15, 16, 18, 19, 20, 21, 22, 23, 25, 26, 27, 28, 29]",236.0552441,15270,2018,5,86,10,1.6122803929683807
undo,16,35,0,0,0,23,"[0, 24, 1, 17, 23]",5,12,"[4, 5, 6, 9, 15, 18, 19, 25, 26, 27, 28, 29]",166.5930241,17235,1965,17,18,9,1.254765199484411
undo,16,35,0,0,0,6,"[0, 24, 1, 17, 23, 6]",6,5,"[5, 9, 15, 18, 25]",120.9421753,18426,1191,5,1,9,1.1840750017147756
undo,16,35,0,0,0,18,"[0, 24, 1, 17, 23, 6, 18]",7,2,"[9, 25]",87.32670267,20458,2032,2,0,9,1.6533562998049127
undo,16,35,0,0,0,9,"[0, 24, 1, 17, 23, 6, 18, 9]",8,1,[25],67.30171828,23056,2598,1,0,9,2.0700039951549143
undo,16,35,0,0,1,25,"[0, 24, 1, 17, 23, 6, 18, 9, 25]",9,0,[],14.3489091,24863,1807,1,0,9,1.7639169703958106
undo,16,35,1,0,0,9,"[0, 24, 1, 17, 23, 6, 18, 9]",8,1,[25],67.30171828,28079,3216,1,0,9,2.0700039951549143
undo,16,35,1,0,0,18,"[0, 24, 1, 17, 23, 6, 18]",7,2,"[9, 25]",87.32670267,28445,366,2,0,9,1.6533562998049127
undo,16,35,1,0,0,6,"[0, 24, 1, 17, 23, 6]",6,5,"[5, 9, 15, 18, 25]",120.9421753,28662,217,5,1,9,1.1840750017147756
undo,16,35,1,0,0,23,"[0, 24, 1, 17, 23]",5,12,"[4, 5, 6, 9, 15, 18, 19, 25, 26, 27, 28, 29]",166.5930241,29445,783,17,18,9,1.254765199484411
undo,16,35,1,0,0,17,"[0, 24, 1, 17]",4,24,"[2, 4, 5, 6, 7, 8, 9, 10, 11, 12, 13, 15, 16, 18, 19, 20, 21, 22, 23, 25, 26, 27, 28, 29]",236.0552441,29762,317,5,86,10,1.6122803929683807
undo,16,35,1,0,0,1,"[0, 24, 1]",3,26,"[2, 4, 5, 6, 7, 8, 9, 10, 11, 12, 13, 14, 15, 16, 17, 18, 19, 20, 21, 22, 23, 25, 26, 27, 28, 29]",251.8666324,32529,2767,9,159,10,1.0069389618412046
undo,16,35,1,0,0,24,"[0, 24]",2,27,"[1, 2, 4, 5, 6, 7, 8, 9, 10, 11, 12, 13, 14, 15, 16, 17, 18, 19, 20, 21, 22, 23, 25, 26, 27, 28, 29]",268.9838752,39764,7235,49,512,10,1.0
undo,16,35,0,0,0,17,"[0, 24, 17]",3,26,"[1, 2, 4, 5, 6, 7, 8, 9, 10, 11, 12, 13, 14, 15, 16, 18, 19, 20, 21, 22, 23, 25, 26, 27, 28, 29]",257.2791753,43488,3724,33,238,10,1.0771477201815276
undo,16,35,0,0,0,1,"[0, 24, 17, 1]",4,25,"[2, 4, 5, 6, 7, 8, 9, 10, 11, 12, 13, 14, 15, 16, 18, 19, 20, 21, 22, 23, 25, 26, 27, 28, 29]",241.4677869,44442,954,26,151,10,1.2244804141479215
undo,16,35,0,0,0,15,"[0, 24, 17, 1, 15]",5,23,"[2, 4, 5, 6, 7, 8, 9, 10, 11, 12, 14, 16, 18, 19, 20, 21, 22, 23, 25, 26, 27, 28, 29]",218.6204676,45235,793,26,78,10,1.4642196672428094
undo,16,35,0,0,0,23,"[0, 24, 17, 1, 15, 23]",6,11,"[4, 5, 6, 9, 18, 19, 25, 26, 27, 28, 29]",158.1804147,47154,1919,15,12,10,1.3338903684702363
undo,16,35,0,0,0,6,"[0, 24, 17, 1, 15, 23, 6]",7,4,"[5, 9, 18, 25]",112.5295658,49471,2317,4,2,10,1.2397059724630664
undo,16,35,0,0,0,25,"[0, 24, 17, 1, 15, 23, 6, 25]",8,2,"[9, 18]",88.50874155,50424,953,2,0,10,1.305974427386027
undo,16,35,0,0,0,18,"[0, 24, 17, 1, 15, 23, 6, 25, 18]",9,1,[9],54.67089291,52282,1858,1,0,10,1.9072277988119046
undo,16,35,0,0,1,9,"[0, 24, 17, 1, 15, 23, 6, 25, 18, 9]",10,0,[],34.64590852,53324,1042,1,0,10,2.3604988633102257
undo,16,35,0,1,1,9,"[0, 24, 17, 1, 15, 23, 6, 25, 18, 9]",10,0,[],34.64590852,63779,10455,1,0,10,2.3604988633102257
undo,17,29,0,0,0,0,[0],1,29,"[1, 2, 3, 4, 5, 6, 7, 8, 9, 10, 11, 12, 13, 14, 15, 16, 17, 18, 19, 20, 21, 22, 23, 24, 25, 26, 27, 28, 29]",300,160,-1,1,78,9,0.0
undo,17,29,0,0,0,6,"[0, 6]",2,28,"[1, 2, 3, 4, 5, 7, 8, 9, 10, 11, 12, 13, 14, 15, 16, 17, 18, 19, 20, 21, 22, 23, 24, 25, 26, 27, 28, 29]",228.4108947,10851,10691,1,25,9,1.0
undo,17,29,0,0,0,28,"[0, 6, 28]",3,24,"[1, 3, 4, 5, 7, 9, 10, 11, 12, 13, 14, 15, 16, 17, 18, 20, 21, 22, 23, 24, 25, 26, 27, 29]",187.1798384,14456,3605,1,22,9,1.162106788166845
undo,17,29,0,0,0,27,"[0, 6, 28, 27]",4,19,"[1, 3, 4, 5, 7, 9, 10, 11, 12, 13, 14, 15, 16, 21, 22, 23, 25, 26, 29]",166.6615539,15494,1038,1,21,9,1.2307173895439045
undo,17,29,0,0,0,22,"[0, 6, 28, 27, 22]",5,13,"[1, 3, 4, 5, 7, 9, 12, 13, 14, 15, 21, 26, 29]",133.4200136,17258,1764,1,19,9,1.4241767805149903
undo,17,29,0,0,0,5,"[0, 6, 28, 27, 22, 5]",6,6,"[4, 7, 9, 12, 13, 14]",79.07850094,18987,1729,4,2,8,1.7779286710260118
undo,17,29,0,0,0,13,"[0, 6, 28, 27, 22, 5, 13]",7,1,[14],53.36858068,21254,2267,1,0,8,2.2784535922470215
undo,17,29,0,0,1,14,"[0, 6, 28, 27, 22, 5, 13, 14]",8,0,[],35.3408243,22388,1134,1,0,8,2.9240984037611235
undo,17,29,1,0,0,13,"[0, 6, 28, 27, 22, 5, 13]",7,1,[14],53.36858068,27060,4672,1,0,8,2.2784535922470215
undo,17,29,1,0,0,5,"[0, 6, 28, 27, 22, 5]",6,6,"[4, 7, 9, 12, 13, 14]",79.07850094,27260,200,4,2,8,1.7779286710260118
undo,17,29,1,0,0,22,"[0, 6, 28, 27, 22]",5,13,"[1, 3, 4, 5, 7, 9, 12, 13, 14, 15, 21, 26, 29]",133.4200136,27460,200,1,19,9,1.4241767805149903
undo,17,29,1,0,0,27,"[0, 6, 28, 27]",4,19,"[1, 3, 4, 5, 7, 9, 10, 11, 12, 13, 14, 15, 16, 21, 22, 23, 25, 26, 29]",166.6615539,27893,433,1,21,9,1.2307173895439045
undo,17,29,1,0,0,28,"[0, 6, 28]",3,24,"[1, 3, 4, 5, 7, 9, 10, 11, 12, 13, 14, 15, 16, 17, 18, 20, 21, 22, 23, 24, 25, 26, 27, 29]",187.1798384,31660,3767,1,22,9,1.162106788166845
undo,17,29,1,0,0,6,"[0, 6]",2,28,"[1, 2, 3, 4, 5, 7, 8, 9, 10, 11, 12, 13, 14, 15, 16, 17, 18, 19, 20, 21, 22, 23, 24, 25, 26, 27, 28, 29]",228.4108947,32044,384,1,25,9,1.0
undo,17,29,1,0,0,0,[0],1,29,"[1, 2, 3, 4, 5, 6, 7, 8, 9, 10, 11, 12, 13, 14, 15, 16, 17, 18, 19, 20, 21, 22, 23, 24, 25, 26, 27, 28, 29]",300,33093,1049,1,78,9,0.0
undo,17,29,0,0,0,25,"[0, 25]",2,18,"[1, 2, 4, 5, 6, 7, 9, 10, 12, 13, 14, 15, 16, 17, 22, 26, 27, 28]",223.3449284,36076,2983,13,101,8,1.0
undo,17,29,0,0,0,17,"[0, 25, 17]",3,13,"[1, 4, 5, 6, 7, 9, 10, 12, 13, 14, 22, 27, 28]",188.41643,37253,1177,2,22,8,1.014228463693056
undo,17,29,0,0,0,1,"[0, 25, 17, 1]",4,11,"[4, 5, 6, 7, 10, 12, 13, 14, 22, 27, 28]",149.5191293,38408,1155,2,18,8,1.7553639368828857
undo,17,29,0,0,0,14,"[0, 25, 17, 1, 14]",5,8,"[4, 5, 7, 12, 13, 22, 27, 28]",106.5656662,40526,2118,2,9,8,2.137167642879409
undo,17,29,0,0,0,13,"[0, 25, 17, 1, 14, 13]",6,4,"[4, 5, 12, 22]",88.53790978,41251,725,2,3,8,1.9535489858276616
undo,17,29,0,0,0,5,"[0, 25, 17, 1, 14, 13, 5]",7,2,"[4, 22]",62.82798951,42151,900,2,0,8,1.9087092890879327
undo,17,29,0,0,1,22,"[0, 25, 17, 1, 14, 13, 5, 22]",8,0,[],8.486476834,48502,6351,1,0,8,2.492296943176698
undo,17,29,1,0,0,5,"[0, 25, 17, 1, 14, 13, 5]",7,2,"[4, 22]",62.82798951,61926,13424,2,0,8,1.9087092890879327
undo,17,29,1,0,0,13,"[0, 25, 17, 1, 14, 13]",6,4,"[4, 5, 12, 22]",88.53790978,62343,417,2,3,8,1.9535489858276616
undo,17,29,1,0,0,14,"[0, 25, 17, 1, 14]",5,8,"[4, 5, 7, 12, 13, 22, 27, 28]",106.5656662,62660,317,2,9,8,2.137167642879409
undo,17,29,1,0,0,1,"[0, 25, 17, 1]",4,11,"[4, 5, 6, 7, 10, 12, 13, 14, 22, 27, 28]",149.5191293,62926,266,2,18,8,1.7553639368828857
undo,17,29,1,0,0,17,"[0, 25, 17]",3,13,"[1, 4, 5, 6, 7, 9, 10, 12, 13, 14, 22, 27, 28]",188.41643,63293,367,2,22,8,1.014228463693056
undo,17,29,1,0,0,25,"[0, 25]",2,18,"[1, 2, 4, 5, 6, 7, 9, 10, 12, 13, 14, 15, 16, 17, 22, 26, 27, 28]",223.3449284,63693,400,13,101,8,1.0
undo,17,29,1,0,0,0,[0],1,29,"[1, 2, 3, 4, 5, 6, 7, 8, 9, 10, 11, 12, 13, 14, 15, 16, 17, 18, 19, 20, 21, 22, 23, 24, 25, 26, 27, 28, 29]",300,64026,333,1,78,9,0.0
undo,17,29,0,0,0,6,"[0, 6]",2,28,"[1, 2, 3, 4, 5, 7, 8, 9, 10, 11, 12, 13, 14, 15, 16, 17, 18, 19, 20, 21, 22, 23, 24, 25, 26, 27, 28, 29]",228.4108947,66938,2912,1,25,9,1.0
undo,17,29,0,0,0,28,"[0, 6, 28]",3,24,"[1, 3, 4, 5, 7, 9, 10, 11, 12, 13, 14, 15, 16, 17, 18, 20, 21, 22, 23, 24, 25, 26, 27, 29]",187.1798384,67984,1046,1,22,9,1.162106788166845
undo,17,29,0,0,0,27,"[0, 6, 28, 27]",4,19,"[1, 3, 4, 5, 7, 9, 10, 11, 12, 13, 14, 15, 16, 21, 22, 23, 25, 26, 29]",166.6615539,69636,1652,1,21,9,1.2307173895439045
undo,17,29,0,0,0,22,"[0, 6, 28, 27, 22]",5,13,"[1, 3, 4, 5, 7, 9, 12, 13, 14, 15, 21, 26, 29]",133.4200136,74100,4464,1,19,9,1.4241767805149903
undo,17,29,0,0,0,12,"[0, 6, 28, 27, 22, 12]",6,8,"[4, 5, 7, 9, 13, 14, 21, 26]",95.4726817,81650,7550,1,6,9,1.3248355326460857
undo,17,29,0,0,0,7,"[0, 6, 28, 27, 22, 12, 7]",7,4,"[4, 5, 9, 21]",81.87121119,82400,750,1,3,9,1.3264091962339806
undo,17,29,0,0,0,9,"[0, 6, 28, 27, 22, 12, 7, 9]",8,1,[4],52.80232748,83420,1020,1,0,9,1.309391257644539
undo,17,29,0,0,1,4,"[0, 6, 28, 27, 22, 12, 7, 9, 4]",9,0,[],11.76575843,85934,2514,1,0,9,1.6396807789841599
undo,17,29,0,1,1,4,"[0, 6, 28, 27, 22, 12, 7, 9, 4]",9,0,[],11.76575843,89347,3413,1,0,9,1.6396807789841599
undo,18,36,0,0,0,0,[0],1,24,"[2, 4, 5, 6, 7, 8, 9, 10, 12, 13, 14, 15, 16, 17, 18, 19, 20, 22, 23, 25, 26, 27, 28, 29]",300,201,-1,2,200,10,0.0
undo,18,36,0,0,0,12,"[0, 12]",2,23,"[2, 4, 5, 6, 7, 8, 9, 10, 13, 14, 15, 16, 17, 18, 19, 20, 22, 23, 25, 26, 27, 28, 29]",277.7963967,5100,4899,90,804,9,1.0
undo,18,36,0,0,0,9,"[0, 12, 9]",3,14,"[2, 4, 8, 10, 13, 16, 17, 18, 19, 23, 25, 27, 28, 29]",215.4345494,6651,1551,32,191,9,1.224429481246385
undo,18,36,0,0,0,19,"[0, 12, 9, 19]",4,13,"[2, 4, 8, 10, 13, 16, 17, 18, 23, 25, 27, 28, 29]",200.3018034,8821,2170,14,61,9,1.293473472808712
undo,18,36,1,0,0,9,"[0, 12, 9]",3,14,"[2, 4, 8, 10, 13, 16, 17, 18, 19, 23, 25, 27, 28, 29]",215.4345494,16175,7354,32,191,9,1.224429481246385
undo,18,36,0,0,0,16,"[0, 12, 9, 16]",4,8,"[2, 10, 13, 17, 18, 19, 23, 25]",168.137615,19488,3313,7,26,9,1.235383731443557
undo,18,36,0,0,0,17,"[0, 12, 9, 16, 17]",5,6,"[2, 10, 13, 18, 19, 25]",139.8180105,21557,2069,7,14,9,1.6947865799475665
undo,18,36,0,0,0,19,"[0, 12, 9, 16, 17, 19]",6,5,"[2, 10, 13, 18, 25]",111.9253591,22820,1263,6,1,9,2.440059772477113
undo,18,36,0,0,0,2,"[0, 12, 9, 16, 17, 19, 2]",7,2,"[13, 25]",74.80393675,24336,1516,2,0,9,1.994135267441798
undo,18,36,0,0,0,25,"[0, 12, 9, 16, 17, 19, 2, 25]",8,1,[13],49.80393675,25252,916,1,0,9,2.1853059870598197
undo,18,36,0,0,1,13,"[0, 12, 9, 16, 17, 19, 2, 25, 13]",9,0,[],29.21267647,26837,1585,1,0,9,2.7608371719978186
undo,18,36,0,1,1,13,"[0, 12, 9, 16, 17, 19, 2, 25, 13]",9,0,[],29.21267647,33242,6405,1,0,9,2.7608371719978186
undo,19,11,0,0,0,0,[0],1,25,"[1, 2, 3, 4, 5, 6, 8, 9, 10, 11, 12, 13, 14, 15, 16, 17, 18, 19, 20, 22, 23, 25, 26, 27, 28]",300,168,-1,6,374,12,0.0
undo,19,11,0,0,0,18,"[0, 18]",2,21,"[1, 2, 4, 5, 6, 8, 9, 11, 12, 13, 14, 15, 16, 17, 19, 20, 22, 23, 25, 27, 28]",236.8493864,11461,11293,157,1477,11,1.0
undo,19,11,0,0,0,27,"[0, 18, 27]",3,19,"[1, 2, 4, 5, 6, 8, 9, 11, 12, 14, 15, 16, 17, 19, 20, 22, 23, 25, 28]",212.9956655,13154,1693,157,1315,11,1.060949579704323
undo,19,11,0,0,0,17,"[0, 18, 27, 17]",4,14,"[1, 2, 4, 5, 6, 8, 11, 12, 15, 19, 22, 23, 25, 28]",135.9177828,16607,3453,46,349,11,1.1156120043677304
undo,19,11,0,0,0,8,"[0, 18, 27, 17, 8]",5,11,"[1, 2, 5, 6, 11, 12, 15, 19, 22, 25, 28]",121.5999617,18208,1601,26,143,11,1.2285932943120847
undo,19,11,0,0,0,15,"[0, 18, 27, 17, 8, 15]",6,9,"[2, 5, 6, 11, 12, 19, 22, 25, 28]",108.1463377,19530,1322,24,54,11,1.223015425852291
undo,19,11,0,0,0,11,"[0, 18, 27, 17, 8, 15, 11]",7,6,"[2, 5, 12, 19, 22, 28]",90.03556742,20742,1212,22,2,11,1.2111003833550413
undo,19,11,0,0,0,28,"[0, 18, 27, 17, 8, 15, 11, 28]",8,3,"[2, 5, 22]",70.61907959,21932,1190,6,0,11,1.3274100985292616
undo,19,11,0,0,0,5,"[0, 18, 27, 17, 8, 15, 11, 28, 5]",9,2,"[2, 22]",52.73053577,23865,1933,2,0,11,1.5198534752211967
undo,19,11,0,0,0,2,"[0, 18, 27, 17, 8, 15, 11, 28, 5, 2]",10,1,[22],35.73053577,24874,1009,1,0,11,1.4805999496229154
undo,19,11,0,0,1,22,"[0, 18, 27, 17, 8, 15, 11, 28, 5, 2, 22]",11,0,[],25.68066014,25693,819,1,0,11,1.4550139853626707
undo,19,11,0,1,1,22,"[0, 18, 27, 17, 8, 15, 11, 28, 5, 2, 22]",11,0,[],25.68066014,33233,7540,1,0,11,1.4550139853626707
undo,20,6,0,0,0,0,[0],1,29,"[1, 2, 3, 4, 5, 6, 7, 8, 9, 10, 11, 12, 13, 14, 15, 16, 17, 18, 19, 20, 21, 22, 23, 24, 25, 26, 27, 28, 29]",300,153,-1,180,4304,10,0.0
undo,20,6,0,0,0,26,"[0, 26]",2,25,"[1, 2, 3, 4, 5, 6, 7, 8, 9, 10, 11, 12, 13, 14, 15, 16, 17, 18, 20, 21, 22, 23, 24, 27, 29]",250.2606795,9654,9501,45,776,10,1.0
undo,20,6,0,0,0,7,"[0, 26, 7]",3,24,"[1, 2, 3, 4, 5, 6, 8, 9, 10, 11, 12, 13, 14, 15, 16, 17, 18, 20, 21, 22, 23, 24, 27, 29]",226.1774904,11407,1753,25,520,10,1.5373018630243536
undo,20,6,0,0,0,3,"[0, 26, 7, 3]",4,22,"[1, 2, 4, 6, 8, 9, 10, 11, 12, 13, 14, 15, 16, 17, 18, 20, 21, 22, 23, 24, 27, 29]",190.0388684,12145,738,20,235,10,3.2798655773210936
undo,20,6,0,0,0,18,"[0, 26, 7, 3, 18]",5,17,"[1, 2, 6, 8, 10, 11, 13, 14, 16, 17, 20, 21, 22, 23, 24, 27, 29]",161.0388684,21935,9790,12,95,10,2.2817335351582497
undo,20,6,0,0,0,17,"[0, 26, 7, 3, 18, 17]",6,14,"[1, 2, 6, 8, 10, 13, 14, 16, 21, 22, 23, 24, 27, 29]",147.1104801,22858,923,7,40,10,2.166304221519952
undo,20,6,0,0,0,10,"[0, 26, 7, 3, 18, 17, 10]",7,10,"[2, 6, 8, 13, 16, 22, 23, 24, 27, 29]",127.3873972,26136,3278,6,14,10,2.0465180096074933
undo,20,6,0,0,0,24,"[0, 26, 7, 3, 18, 17, 10, 24]",8,7,"[2, 6, 16, 22, 23, 27, 29]",113.9709893,27090,954,6,3,10,1.9120419940880518
undo,20,6,0,0,0,23,"[0, 26, 7, 3, 18, 17, 10, 24, 23]",9,3,"[6, 22, 29]",52.78275515,28951,1861,3,0,10,1.8421369153343572
undo,20,6,0,0,1,22,"[0, 26, 7, 3, 18, 17, 10, 24, 23, 22]",10,0,[],11.78275515,30903,1952,1,0,10,1.8510104393224558
undo,20,6,0,1,1,22,"[0, 26, 7, 3, 18, 17, 10, 24, 23, 22]",10,0,[],11.78275515,53845,22942,1,0,10,1.8510104393224558
undo,21,13,0,0,0,0,[0],1,29,"[1, 2, 3, 4, 5, 6, 7, 8, 9, 10, 11, 12, 13, 14, 15, 16, 17, 18, 19, 20, 21, 22, 23, 24, 25, 26, 27, 28, 29]",300,168,-1,60,2676,11,0.0
undo,21,13,0,0,0,24,"[0, 24]",2,28,"[1, 2, 3, 4, 5, 6, 7, 8, 9, 10, 11, 12, 13, 14, 15, 16, 17, 18, 19, 20, 21, 22, 23, 25, 26, 27, 28, 29]",288.8196601,3560,3392,16,1444,11,1.0
undo,21,13,0,0,0,28,"[0, 24, 28]",3,23,"[1, 2, 3, 4, 6, 7, 8, 9, 10, 11, 12, 13, 15, 16, 17, 19, 20, 21, 22, 23, 26, 27, 29]",222.5324064,6852,3292,8,243,11,1.0513810491680837
undo,21,13,0,0,0,2,"[0, 24, 28, 2]",4,19,"[1, 3, 4, 6, 7, 9, 11, 12, 13, 15, 16, 17, 19, 20, 21, 23, 26, 27, 29]",184.889346,7801,949,7,110,11,1.050374132001543
undo,21,13,0,0,0,29,"[0, 24, 28, 2, 29]",5,18,"[1, 3, 4, 6, 7, 9, 11, 12, 13, 15, 16, 17, 19, 20, 21, 23, 26, 27]",173.1846461,8583,782,7,85,11,1.1393409619120594
undo,21,13,0,0,0,7,"[0, 24, 28, 2, 29, 7]",6,17,"[1, 3, 4, 6, 9, 11, 12, 13, 15, 16, 17, 19, 20, 21, 23, 26, 27]",157.9203086,9926,1343,5,45,11,1.349777315111579
undo,21,13,0,0,0,26,"[0, 24, 28, 2, 29, 7, 26]",7,16,"[1, 3, 4, 6, 9, 11, 12, 13, 15, 16, 17, 19, 20, 21, 23, 27]",147.480002,10770,844,5,25,11,1.5942082773824946
undo,21,13,0,0,0,6,"[0, 24, 28, 2, 29, 7, 26, 6]",8,12,"[1, 3, 4, 11, 13, 15, 16, 17, 19, 20, 23, 27]",127.3802508,11719,949,4,12,11,1.5898347940840756
undo,21,13,0,0,0,11,"[0, 24, 28, 2, 29, 7, 26, 6, 11]",9,6,"[1, 13, 15, 16, 17, 23]",108.2752776,13007,1288,3,4,11,1.5029953945561012
undo,21,13,0,0,0,17,"[0, 24, 28, 2, 29, 7, 26, 6, 11, 17]",10,1,[13],36.68617231,21569,8562,1,0,11,1.324993060397683
undo,21,13,0,0,1,13,"[0, 24, 28, 2, 29, 7, 26, 6, 11, 17, 13]",11,0,[],3.309533775,22489,920,1,0,11,1.6349870606446535
undo,21,13,0,1,1,13,"[0, 24, 28, 2, 29, 7, 26, 6, 11, 17, 13]",11,0,[],3.309533775,26578,4089,1,0,11,1.6349870606446535
undo,22,0,0,0,0,0,[0],1,27,"[2, 3, 4, 5, 6, 7, 8, 9, 10, 11, 12, 13, 14, 15, 16, 17, 19, 20, 21, 22, 23, 24, 25, 26, 27, 28, 29]",300,169,-1,104,1136,9,0.0
undo,22,0,0,0,0,28,"[0, 28]",2,26,"[2, 3, 4, 5, 6, 7, 8, 9, 10, 11, 12, 13, 14, 15, 16, 17, 19, 20, 21, 22, 23, 24, 25, 26, 27, 29]",194.9190788,5721,5552,39,388,9,1.0
undo,22,0,0,0,0,5,"[0, 28, 5]",3,21,"[2, 3, 4, 7, 8, 9, 11, 12, 13, 14, 15, 16, 17, 19, 20, 21, 23, 24, 25, 26, 29]",151.2613189,9571,3850,27,210,9,1.0978295127671733
undo,22,0,0,0,0,4,"[0, 28, 5, 4]",4,16,"[3, 7, 8, 9, 11, 12, 13, 14, 15, 17, 19, 20, 21, 23, 24, 26]",126.1814465,10654,1083,17,114,9,1.1103727063761901
undo,22,0,0,0,0,26,"[0, 28, 5, 4, 26]",5,14,"[3, 7, 8, 9, 11, 12, 13, 14, 15, 17, 19, 20, 23, 24]",114.1398519,11387,733,7,54,9,1.1504454351688815
undo,22,0,0,0,0,24,"[0, 28, 5, 4, 26, 24]",6,11,"[3, 7, 8, 9, 11, 12, 15, 17, 19, 20, 23]",97.02260914,12208,821,7,22,9,1.2166555899566422
undo,22,0,0,0,0,15,"[0, 28, 5, 4, 26, 24, 15]",7,7,"[3, 7, 8, 9, 11, 12, 17]",73.67737408,16590,4382,4,5,9,1.1972898774231708
undo,22,0,0,0,0,7,"[0, 28, 5, 4, 26, 24, 15, 7]",8,2,"[3, 8]",42.61292495,18754,2164,2,0,9,1.2554869594545575
undo,22,0,0,0,1,3,"[0, 28, 5, 4, 26, 24, 15, 7, 3]",9,0,[],18.52973579,19777,1023,1,0,9,1.2985327435367093
undo,22,0,0,1,1,3,"[0, 28, 5, 4, 26, 24, 15, 7, 3]",9,0,[],18.52973579,33862,14085,1,0,9,1.2985327435367093
basic,23,35,0,0,0,0,[0],1,29,"[1, 2, 3, 4, 5, 6, 7, 8, 9, 10, 11, 12, 13, 14, 15, 16, 17, 18, 19, 20, 21, 22, 23, 24, 25, 26, 27, 28, 29]",300,214,-1,5,236,11,0.0
basic,23,35,0,0,0,24,"[0, 24]",2,27,"[1, 2, 4, 5, 6, 7, 8, 9, 10, 11, 12, 13, 14, 15, 16, 17, 18, 19, 20, 21, 22, 23, 25, 26, 27, 28, 29]",268.9838752,8242,8028,49,512,10,1.0
basic,23,35,0,0,0,17,"[0, 24, 17]",3,26,"[1, 2, 4, 5, 6, 7, 8, 9, 10, 11, 12, 13, 14, 15, 16, 18, 19, 20, 21, 22, 23, 25, 26, 27, 28, 29]",257.2791753,13992,5750,33,238,10,1.0771477201815276
basic,23,35,0,0,0,1,"[0, 24, 17, 1]",4,25,"[2, 4, 5, 6, 7, 8, 9, 10, 11, 12, 13, 14, 15, 16, 18, 19, 20, 21, 22, 23, 25, 26, 27, 28, 29]",241.4677869,16910,2918,26,151,10,1.2244804141479215
basic,23,35,0,0,0,23,"[0, 24, 17, 1, 23]",5,14,"[2, 4, 5, 6, 9, 15, 18, 19, 20, 25, 26, 27, 28, 29]",182.9442874,34541,17631,25,33,9,1.1009726708851126
basic,23,35,0,0,0,6,"[0, 24, 17, 1, 23, 6]",6,7,"[4, 5, 9, 15, 18, 25, 29]",137.2934386,36244,1703,6,5,9,1.0759472382259443
basic,23,35,0,0,0,25,"[0, 24, 17, 1, 23, 6, 25]",7,3,"[5, 9, 18]",113.2726143,38727,2483,2,1,9,1.153055650640521
basic,23,35,0,0,0,18,"[0, 24, 17, 1, 23, 6, 25, 18]",8,1,[9],79.43476562,42160,3433,1,0,9,1.7147094833173437
basic,23,35,0,0,1,9,"[0, 24, 17, 1, 23, 6, 25, 18, 9]",9,0,[],59.40978123,45128,2968,1,0,9,2.1402079567065866
basic,23,35,0,1,1,9,"[0, 24, 17, 1, 23, 6, 25, 18, 9]",9,0,[],59.40978123,52447,7319,1,0,9,2.1402079567065866
basic,24,39,0,0,0,0,[0],1,28,"[1, 2, 3, 4, 5, 6, 7, 9, 10, 11, 12, 13, 14, 15, 16, 17, 18, 19, 20, 21, 22, 23, 24, 25, 26, 27, 28, 29]",300,182,-1,1,30,10,0.0
basic,24,39,0,0,0,29,"[0, 29]",2,26,"[1, 2, 3, 4, 5, 6, 7, 9, 10, 12, 13, 14, 15, 16, 17, 18, 19, 20, 21, 22, 23, 24, 25, 26, 27, 28]",243.0614366,10072,9890,8,104,9,1.0
basic,24,39,0,0,0,12,"[0, 29, 12]",3,18,"[1, 2, 4, 5, 7, 9, 10, 13, 14, 15, 16, 18, 19, 22, 23, 24, 26, 28]",182.5221931,16270,6198,5,54,9,1.0026200331524904
basic,24,39,0,0,0,10,"[0, 29, 12, 10]",4,16,"[1, 2, 4, 5, 7, 9, 13, 14, 15, 16, 18, 19, 22, 23, 24, 26]",147.0116313,17561,1291,5,34,9,1.2874817019928908
basic,24,39,0,0,0,7,"[0, 29, 12, 10, 7]",5,10,"[1, 2, 5, 13, 16, 18, 19, 22, 24, 26]",113.5900814,18722,1161,4,12,9,1.2250826263866774
basic,24,39,0,0,0,26,"[0, 29, 12, 10, 7, 26]",6,5,"[1, 16, 18, 19, 22]",94.90853971,20561,1839,3,4,9,1.2697275353190085
basic,24,39,0,0,0,22,"[0, 29, 12, 10, 7, 26, 22]",7,2,"[16, 19]",77.18849457,22337,1776,2,0,9,1.438961743955176
basic,24,39,0,0,0,16,"[0, 29, 12, 10, 7, 26, 22, 16]",8,1,[19],42.18849457,24987,2650,1,0,9,1.3580882130477205
basic,24,39,0,0,1,19,"[0, 29, 12, 10, 7, 26, 22, 16, 19]",9,0,[],24.72424537,26952,1965,1,0,9,1.3646589157842668
basic,24,39,0,1,1,19,"[0, 29, 12, 10, 7, 26, 22, 16, 19]",9,0,[],24.72424537,28693,1741,1,0,9,1.3646589157842668
basic,25,33,0,0,0,0,[0],1,23,"[1, 2, 5, 7, 8, 11, 12, 13, 14, 15, 16, 17, 18, 19, 20, 21, 23, 24, 25, 26, 27, 28, 29]",300,171,-1,5,108,9,0.0
basic,25,33,0,0,0,21,"[0, 21]",2,17,"[2, 5, 7, 8, 11, 13, 14, 16, 17, 18, 19, 20, 24, 26, 27, 28, 29]",174.4611614,15604,15433,21,129,8,1.0
basic,25,33,0,0,0,13,"[0, 21, 13]",3,15,"[2, 5, 7, 8, 11, 14, 16, 17, 18, 19, 20, 24, 26, 28, 29]",148.0604038,17072,1468,17,72,8,1.0001005298764474
basic,25,33,0,0,0,19,"[0, 21, 13, 19]",4,11,"[7, 11, 14, 16, 17, 18, 20, 24, 26, 28, 29]",122.5653063,20510,3438,10,27,8,1.0588446738393702
basic,25,33,0,0,0,24,"[0, 21, 13, 19, 24]",5,7,"[7, 14, 16, 18, 26, 28, 29]",80.51771417,22297,1787,3,5,8,1.078006777679028
basic,25,33,0,0,0,7,"[0, 21, 13, 19, 24, 7]",6,3,"[14, 26, 29]",51.31155044,24071,1774,3,1,8,1.1669985062633954
basic,25,33,0,0,0,14,"[0, 21, 13, 19, 24, 7, 14]",7,2,"[26, 29]",36.44548169,26239,2168,2,0,8,1.2148465775488593
basic,25,33,0,0,1,26,"[0, 21, 13, 19, 24, 7, 14, 26]",8,0,[],23.79637105,30411,4172,1,0,8,1.2208379656544521
basic,25,33,0,1,1,26,"[0, 21, 13, 19, 24, 7, 14, 26]",8,0,[],23.79637105,34396,3985,1,0,8,1.2208379656544521
basic,26,26,0,0,0,0,[0],1,29,"[1, 2, 3, 4, 5, 6, 7, 8, 9, 10, 11, 12, 13, 14, 15, 16, 17, 18, 19, 20, 21, 22, 23, 24, 25, 26, 27, 28, 29]",300,186,-1,9,226,9,0.0
basic,26,26,0,0,0,4,"[0, 4]",2,13,"[5, 6, 10, 12, 13, 14, 16, 17, 19, 21, 23, 26, 29]",178.7976898,14310,14124,4,118,8,1.0
basic,26,26,0,0,0,17,"[0, 4, 17]",3,10,"[5, 6, 10, 12, 13, 14, 16, 21, 23, 29]",157.7026667,19054,4744,1,35,8,1.0014732588101924
basic,26,26,0,0,0,6,"[0, 4, 17, 6]",4,6,"[10, 14, 16, 21, 23, 29]",137.5780549,20255,1201,10,11,7,1.011273258075741
basic,26,26,0,0,0,14,"[0, 4, 17, 6, 14]",5,4,"[10, 16, 23, 29]",116.5542588,21814,1559,5,2,7,1.1383391147196797
basic,26,26,0,0,0,29,"[0, 4, 17, 6, 14, 29]",6,3,"[10, 16, 23]",75.32320259,23969,2155,3,0,7,1.8387738585921345
basic,26,26,0,0,1,16,"[0, 4, 17, 6, 14, 29, 16]",7,0,[],51.11576571,32569,8600,1,0,7,2.2232443318112174
basic,26,26,0,1,1,16,"[0, 4, 17, 6, 14, 29, 16]",7,0,[],51.11576571,45912,13343,1,0,7,2.2232443318112174
basic,27,0,0,0,0,0,[0],1,27,"[2, 3, 4, 5, 6, 7, 8, 9, 10, 11, 12, 13, 14, 15, 16, 17, 19, 20, 21, 22, 23, 24, 25, 26, 27, 28, 29]",300,205,-1,104,1136,9,0.0
basic,27,0,0,0,0,28,"[0, 28]",2,26,"[2, 3, 4, 5, 6, 7, 8, 9, 10, 11, 12, 13, 14, 15, 16, 17, 19, 20, 21, 22, 23, 24, 25, 26, 27, 29]",194.9190788,12355,12150,39,388,9,1.0
basic,27,0,0,0,0,26,"[0, 28, 26]",3,21,"[2, 3, 4, 5, 7, 8, 9, 10, 11, 12, 13, 14, 15, 17, 19, 20, 21, 22, 23, 24, 25]",136.9363227,20953,8598,5,55,9,1.0093388233539051
basic,27,0,0,0,0,4,"[0, 28, 26, 4]",4,16,"[3, 5, 7, 8, 9, 11, 12, 13, 14, 15, 17, 19, 20, 21, 23, 24]",124.8947282,22844,1891,5,33,9,1.1185924093500432
basic,27,0,0,0,0,24,"[0, 28, 26, 4, 24]",5,12,"[3, 5, 7, 8, 9, 11, 12, 15, 17, 19, 20, 23]",113.4929739,24286,1442,5,21,9,1.1179314844344648
basic,27,0,0,0,0,15,"[0, 28, 26, 4, 24, 15]",6,9,"[3, 5, 7, 8, 9, 11, 12, 17, 19]",90.14773885,25803,1517,5,8,9,1.1101585049568639
basic,27,0,0,0,0,7,"[0, 28, 26, 4, 24, 15, 7]",7,4,"[3, 8, 17, 19]",59.08328972,32915,7112,4,2,9,1.1751475399938958
basic,27,0,0,0,0,8,"[0, 28, 26, 4, 24, 15, 7, 8]",8,2,"[3, 19]",39.97831655,39169,6254,2,0,9,1.1688286242571428
basic,27,0,0,0,1,19,"[0, 28, 26, 4, 24, 15, 7, 8, 19]",9,0,[],4.131419888,42403,3234,1,0,9,1.1918466534732524
basic,27,0,0,1,1,19,"[0, 28, 26, 4, 24, 15, 7, 8, 19]",9,0,[],4.131419888,44194,1791,1,0,9,1.1918466534732524
basic,28,41,0,0,0,0,[0],1,29,"[1, 2, 3, 4, 5, 6, 7, 8, 9, 10, 11, 12, 13, 14, 15, 16, 17, 18, 19, 20, 21, 22, 23, 24, 25, 26, 27, 28, 29]",300,162,-1,1,143,10,0.0
basic,28,41,0,0,0,21,"[0, 21]",2,28,"[1, 2, 3, 4, 5, 6, 7, 8, 9, 10, 11, 12, 13, 14, 15, 16, 17, 18, 19, 20, 22, 23, 24, 25, 26, 27, 28, 29]",251.1226024,27923,27761,50,469,8,1.0
basic,28,41,0,0,0,22,"[0, 21, 22]",3,24,"[1, 2, 3, 5, 6, 7, 8, 9, 10, 11, 12, 13, 14, 15, 16, 17, 18, 19, 20, 23, 24, 25, 27, 28]",200.1226024,32287,4364,5,62,8,1.4482591962803824
basic,28,41,0,0,0,3,"[0, 21, 22, 3]",4,17,"[1, 2, 5, 6, 9, 10, 12, 13, 14, 17, 18, 19, 20, 24, 25, 27, 28]",170.1559542,34288,2001,5,30,8,3.2769680943726964
basic,28,41,0,0,0,5,"[0, 21, 22, 3, 5]",5,9,"[2, 9, 10, 13, 17, 18, 20, 27, 28]",135.3278047,36023,1735,4,10,8,5.246892423760862
basic,28,41,0,0,0,28,"[0, 21, 22, 3, 5, 28]",6,5,"[9, 13, 17, 18, 20]",121.7263342,37139,1116,2,3,8,4.434723187651666
basic,28,41,0,0,0,20,"[0, 21, 22, 3, 5, 28, 20]",7,1,[13],64.45504994,38963,1824,1,0,8,2.5018364982609627
basic,28,41,0,0,1,13,"[0, 21, 22, 3, 5, 28, 20, 13]",8,0,[],1.805229506,51287,12324,1,0,8,7.14661912612729
basic,28,41,0,1,1,13,"[0, 21, 22, 3, 5, 28, 20, 13]",8,0,[],1.805229506,53478,2191,1,0,8,7.14661912612729
basic,29,12,0,0,0,0,[0],1,29,"[1, 2, 3, 4, 5, 6, 7, 8, 9, 10, 11, 12, 13, 14, 15, 16, 17, 18, 19, 20, 21, 22, 23, 24, 25, 26, 27, 28, 29]",300,171,-1,2,32,9,0.0
basic,29,12,0,0,0,22,"[0, 22]",2,22,"[2, 4, 5, 6, 7, 9, 10, 12, 13, 14, 15, 16, 17, 18, 19, 21, 23, 24, 25, 27, 28, 29]",211.9943184,6474,6303,6,42,8,1.0
basic,29,12,0,0,0,16,"[0, 22, 16]",3,12,"[2, 4, 5, 6, 7, 12, 14, 19, 23, 24, 25, 27]",190.9943184,7675,1201,6,24,8,1.2017164145167045
basic,29,12,0,0,0,4,"[0, 22, 16, 4]",4,9,"[2, 6, 7, 12, 14, 19, 24, 25, 27]",156.7890556,9236,1561,6,14,8,1.146531713305579
basic,29,12,0,0,0,12,"[0, 22, 16, 4, 12]",5,4,"[14, 19, 24, 27]",114.5990094,10602,1366,4,3,8,1.1221389456954312
basic,29,12,0,0,0,27,"[0, 22, 16, 4, 12, 27]",6,3,"[14, 19, 24]",90.24741807,16152,5550,2,1,8,1.2262878338287035
basic,29,12,0,0,0,14,"[0, 22, 16, 4, 12, 27, 14]",7,1,[24],61.59432051,17739,1587,1,0,8,1.2804562106751427
basic,29,12,0,0,1,24,"[0, 22, 16, 4, 12, 27, 14, 24]",8,0,[],44.38966997,19986,2247,1,0,8,1.4322660007679802
basic,29,12,0,1,1,24,"[0, 22, 16, 4, 12, 27, 14, 24]",8,0,[],44.38966997,27231,7245,1,0,8,1.4322660007679802
basic,30,45,0,0,0,0,[0],1,24,"[1, 2, 3, 4, 5, 6, 7, 9, 10, 11, 12, 14, 15, 16, 17, 19, 20, 21, 22, 23, 24, 25, 27, 29]",300,282,-1,6,248,10,0.0
basic,30,45,0,0,0,15,"[0, 15]",2,23,"[1, 2, 3, 4, 5, 6, 7, 9, 10, 11, 12, 14, 16, 17, 19, 20, 21, 22, 23, 24, 25, 27, 29]",253.9022777,11030,10748,5,207,10,1.0
basic,30,45,0,0,0,23,"[0, 15, 23]",3,22,"[1, 2, 3, 4, 5, 6, 7, 9, 10, 11, 12, 14, 16, 17, 19, 20, 21, 22, 24, 25, 27, 29]",230.3014303,12557,1527,5,163,10,1.0006068457769497
basic,30,45,0,0,0,20,"[0, 15, 23, 20]",4,19,"[1, 2, 3, 5, 6, 7, 9, 10, 11, 12, 14, 16, 17, 19, 21, 22, 24, 25, 29]",188.8647316,18638,6081,5,137,10,1.2062119754673604
basic,30,45,0,0,0,10,"[0, 15, 23, 20, 10]",5,12,"[2, 3, 6, 7, 9, 12, 14, 17, 22, 24, 25, 29]",132.784432,21447,2809,1,54,10,1.1363907740691004
basic,30,45,0,0,0,6,"[0, 15, 23, 20, 10, 6]",6,7,"[2, 3, 7, 12, 22, 24, 29]",106.5356225,25457,4010,20,9,9,1.12325622461992
basic,30,45,0,0,0,3,"[0, 15, 23, 20, 10, 6, 3]",7,5,"[2, 7, 12, 22, 29]",70.30028063,32965,7508,5,3,9,1.2804642118564442
basic,30,45,0,0,0,29,"[0, 15, 23, 20, 10, 6, 3, 29]",8,3,"[2, 7, 12]",50.30028063,34063,1098,3,0,9,1.5503618332293718
basic,30,45,0,0,1,2,"[0, 15, 23, 20, 10, 6, 3, 29, 2]",9,0,[],20.61863647,37888,3825,1,0,9,1.6668571143706703
basic,30,45,0,1,1,2,"[0, 15, 23, 20, 10, 6, 3, 29, 2]",9,0,[],20.61863647,42115,4227,1,0,9,1.6668571143706703
basic,31,13,0,0,0,0,[0],1,29,"[1, 2, 3, 4, 5, 6, 7, 8, 9, 10, 11, 12, 13, 14, 15, 16, 17, 18, 19, 20, 21, 22, 23, 24, 25, 26, 27, 28, 29]",300,170,-1,60,2676,11,0.0
basic,31,13,0,0,0,24,"[0, 24]",2,28,"[1, 2, 3, 4, 5, 6, 7, 8, 9, 10, 11, 12, 13, 14, 15, 16, 17, 18, 19, 20, 21, 22, 23, 25, 26, 27, 28, 29]",288.8196601,31805,31635,16,1444,11,1.0
basic,31,13,0,0,0,23,"[0, 24, 23]",3,27,"[1, 2, 3, 4, 5, 6, 7, 8, 9, 10, 11, 12, 13, 14, 15, 16, 17, 18, 19, 20, 21, 22, 25, 26, 27, 28, 29]",243.1140806,33388,1583,2,868,11,1.0065545717039834
basic,31,13,0,0,0,16,"[0, 24, 23, 16]",4,25,"[1, 2, 3, 4, 6, 7, 8, 9, 10, 11, 12, 13, 14, 15, 17, 18, 19, 20, 21, 22, 25, 26, 27, 28, 29]",202.8027918,36160,2772,1,145,11,1.055930143104189
basic,31,13,0,0,0,3,"[0, 24, 23, 16, 3]",5,20,"[2, 4, 6, 7, 8, 9, 10, 11, 13, 14, 15, 18, 20, 21, 22, 25, 26, 27, 28, 29]",174.3598665,37673,1513,3,44,10,1.233783650807853
basic,31,13,0,0,0,20,"[0, 24, 23, 16, 3, 20]",6,15,"[4, 6, 7, 8, 9, 11, 14, 18, 21, 22, 25, 26, 27, 28, 29]",155.3335689,38753,1080,7,15,9,1.3149320474556456
basic,31,13,0,0,0,4,"[0, 24, 23, 16, 3, 20, 4]",7,5,"[6, 8, 18, 25, 27]",133.3108534,42404,3651,2,4,9,1.2859964130018764
basic,31,13,0,0,0,27,"[0, 24, 23, 16, 3, 20, 4, 27]",8,2,"[8, 18]",111.2881379,46304,3900,2,0,9,1.3345945780156503
basic,31,13,0,0,1,8,"[0, 24, 23, 16, 3, 20, 4, 27, 8]",9,0,[],29.20890784,49654,3350,1,0,9,1.7643079168097482
basic,31,13,0,1,1,8,"[0, 24, 23, 16, 3, 20, 4, 27, 8]",9,0,[],29.20890784,52279,2625,1,0,9,1.7643079168097482
basic,32,38,0,0,0,0,[0],1,29,"[1, 2, 3, 4, 5, 6, 7, 8, 9, 10, 11, 12, 13, 14, 15, 16, 17, 18, 19, 20, 21, 22, 23, 24, 25, 26, 27, 28, 29]",300,201,-1,33,506,9,0.0
basic,32,38,0,0,0,11,"[0, 11]",2,23,"[1, 2, 3, 4, 5, 7, 10, 12, 13, 14, 15, 16, 17, 18, 19, 20, 21, 22, 24, 25, 26, 27, 28]",220.093805,13604,13403,2,40,9,1.0
basic,32,38,0,0,0,28,"[0, 11, 28]",3,16,"[1, 4, 5, 7, 10, 12, 13, 14, 15, 16, 17, 19, 20, 21, 24, 26]",193.0752928,15621,2017,2,20,9,1.0012220945316377
basic,32,38,0,0,0,16,"[0, 11, 28, 16]",4,13,"[1, 4, 5, 10, 12, 13, 14, 15, 17, 19, 20, 24, 26]",164.0752928,16653,1032,2,16,9,1.2422672958602723
basic,32,38,0,0,0,15,"[0, 11, 28, 16, 15]",5,9,"[4, 5, 13, 14, 17, 19, 20, 24, 26]",122.4579887,18022,1369,2,14,9,2.4196280466601676
basic,32,38,0,0,0,4,"[0, 11, 28, 16, 15, 4]",6,6,"[13, 17, 19, 20, 24, 26]",96.45798873,27768,9746,2,9,9,2.9030072771852855
basic,32,38,0,0,0,20,"[0, 11, 28, 16, 15, 4, 20]",7,3,"[13, 17, 19]",62.51686323,28683,915,1,2,9,4.409951139385221
basic,32,38,0,0,0,17,"[0, 11, 28, 16, 15, 4, 20, 17]",8,1,[19],38.74713459,29503,820,1,0,9,4.030739410625113
basic,32,38,0,0,1,19,"[0, 11, 28, 16, 15, 4, 20, 17, 19]",9,0,[],17.36957626,30935,1432,1,0,9,3.511004666623391
basic,32,38,0,1,1,19,"[0, 11, 28, 16, 15, 4, 20, 17, 19]",9,0,[],17.36957626,32643,1708,1,0,9,3.511004666623391
basic,33,9,0,0,0,0,[0],1,27,"[1, 3, 4, 5, 6, 7, 8, 9, 10, 11, 13, 14, 15, 16, 17, 18, 19, 20, 21, 22, 23, 24, 25, 26, 27, 28, 29]",300,162,-1,2,182,10,0.0
basic,33,9,0,0,0,23,"[0, 23]",2,26,"[1, 3, 4, 5, 6, 7, 8, 9, 10, 11, 13, 14, 15, 16, 17, 18, 19, 20, 21, 22, 24, 25, 26, 27, 28, 29]",240.4600974,237932,237770,7,160,9,1.0
basic,33,9,0,0,0,9,"[0, 23, 9]",3,25,"[1, 3, 4, 5, 6, 7, 8, 10, 11, 13, 14, 15, 16, 17, 18, 19, 20, 21, 22, 24, 25, 26, 27, 28, 29]",218.0994176,239872,1940,2,63,9,1.0998569787716874
basic,33,9,0,0,0,26,"[0, 23, 9, 26]",4,20,"[1, 3, 5, 6, 7, 8, 10, 13, 15, 16, 17, 18, 19, 20, 21, 22, 24, 25, 27, 28]",161.4513815,244283,4411,12,35,8,1.1859535864287187
basic,33,9,0,0,0,28,"[0, 23, 9, 26, 28]",5,9,"[7, 8, 10, 18, 20, 21, 22, 25, 27]",116.6741551,246454,2171,4,9,8,2.468153711937183
basic,33,9,0,0,0,8,"[0, 23, 9, 26, 28, 8]",6,7,"[7, 10, 20, 21, 22, 25, 27]",105.8575013,247350,896,4,3,8,3.04389833278709
basic,33,9,0,0,0,25,"[0, 23, 9, 26, 28, 8, 25]",7,1,[27],37.8575013,251223,3873,1,0,8,10.884874797299952
basic,33,9,0,0,1,27,"[0, 23, 9, 26, 28, 8, 25, 27]",8,0,[],1.954855163,252336,1113,1,0,8,5.560505037852784
basic,33,9,0,1,1,27,"[0, 23, 9, 26, 28, 8, 25, 27]",8,0,[],1.954855163,254259,1923,1,0,8,5.560505037852784
basic,34,37,0,0,0,0,[0],1,29,"[1, 2, 3, 4, 5, 6, 7, 8, 9, 10, 11, 12, 13, 14, 15, 16, 17, 18, 19, 20, 21, 22, 23, 24, 25, 26, 27, 28, 29]",300,161,-1,6,168,10,0.0
basic,34,37,0,0,0,18,"[0, 18]",2,19,"[1, 2, 4, 6, 7, 9, 10, 12, 14, 15, 17, 19, 20, 21, 22, 23, 26, 28, 29]",202.4090168,15810,15649,6,89,10,1.0
basic,34,37,0,0,0,7,"[0, 18, 7]",3,12,"[1, 2, 4, 9, 15, 17, 19, 20, 21, 22, 26, 29]",175.2428614,17106,1296,6,53,10,1.0413073512834488
basic,34,37,0,0,0,22,"[0, 18, 7, 22]",4,8,"[1, 2, 4, 15, 19, 20, 21, 26]",125.2428614,19371,2265,6,29,10,1.0730792320325544
basic,34,37,0,0,0,4,"[0, 18, 7, 22, 4]",5,7,"[1, 2, 15, 19, 20, 21, 26]",100.2428614,21021,1650,4,16,10,1.2290245562206235
basic,34,37,0,0,0,2,"[0, 18, 7, 22, 4, 2]",6,5,"[1, 15, 19, 20, 21]",88.84110714,21920,899,4,7,10,1.3968113858365216
basic,34,37,0,0,0,1,"[0, 18, 7, 22, 4, 2, 1]",7,4,"[15, 19, 20, 21]",71.63645661,22810,890,4,3,10,1.4424239294761476
basic,34,37,0,0,0,20,"[0, 18, 7, 22, 4, 2, 1, 20]",8,3,"[15, 19, 21]",37.40197107,32869,10059,2,1,10,1.7518607796010042
basic,34,37,0,0,0,21,"[0, 18, 7, 22, 4, 2, 1, 20, 21]",9,1,[15],22.97976597,33754,885,1,0,10,1.7849997782949483
basic,34,37,0,0,1,15,"[0, 18, 7, 22, 4, 2, 1, 20, 21, 15]",10,0,[],7.979765971,34585,831,1,0,10,1.7549597142828803
basic,34,37,0,1,1,15,"[0, 18, 7, 22, 4, 2, 1, 20, 21, 15]",10,0,[],7.979765971,36878,2293,1,0,10,1.7549597142828803
basic,35,24,0,0,0,0,[0],1,29,"[1, 2, 3, 4, 5, 6, 7, 8, 9, 10, 11, 12, 13, 14, 15, 16, 17, 18, 19, 20, 21, 22, 23, 24, 25, 26, 27, 28, 29]",300,205,-1,4,76,10,0.0
basic,35,24,0,0,0,16,"[0, 16]",2,28,"[1, 2, 3, 4, 5, 6, 7, 8, 9, 10, 11, 12, 13, 14, 15, 17, 18, 19, 20, 21, 22, 23, 24, 25, 26, 27, 28, 29]",210.3562607,12485,12280,13,110,9,1.0
basic,35,24,0,0,0,8,"[0, 16, 8]",3,22,"[1, 2, 3, 4, 6, 9, 10, 11, 13, 14, 15, 17, 20, 21, 22, 23, 24, 25, 26, 27, 28, 29]",181.3562607,27656,15171,3,31,9,1.0774669368510212
basic,35,24,0,0,0,22,"[0, 16, 8, 22]",4,18,"[2, 3, 4, 6, 9, 10, 11, 13, 14, 15, 17, 23, 24, 25, 26, 27, 28, 29]",167.9398528,28688,1032,3,23,9,1.2531772310046492
basic,35,24,0,0,0,15,"[0, 16, 8, 22, 15]",5,16,"[3, 4, 6, 9, 10, 11, 13, 14, 17, 23, 24, 25, 26, 27, 28, 29]",146.7266494,29871,1183,3,16,9,1.2813329946092564
basic,35,24,0,0,0,28,"[0, 16, 8, 22, 15, 28]",6,8,"[3, 4, 9, 11, 13, 23, 26, 27]",101.4497237,30994,1123,3,5,9,1.2060847818642253
basic,35,24,0,0,0,23,"[0, 16, 8, 22, 15, 28, 23]",7,3,"[9, 11, 27]",82.42342609,31919,925,3,1,9,1.2349355190066822
basic,35,24,0,0,0,11,"[0, 16, 8, 22, 15, 28, 23, 11]",8,2,"[9, 27]",55.49760206,33235,1316,2,0,9,1.2172586817191506
basic,35,24,0,0,1,27,"[0, 16, 8, 22, 15, 28, 23, 11, 27]",9,0,[],27.69472451,37470,4235,1,0,9,1.192247579330137
basic,35,24,0,1,1,27,"[0, 16, 8, 22, 15, 28, 23, 11, 27]",9,0,[],27.69472451,41560,4090,1,0,9,1.192247579330137
basic,36,14,0,0,0,0,[0],1,29,"[1, 2, 3, 4, 5, 6, 7, 8, 9, 10, 11, 12, 13, 14, 15, 16, 17, 18, 19, 20, 21, 22, 23, 24, 25, 26, 27, 28, 29]",300,167,-1,8,157,10,0.0
basic,36,14,0,0,0,18,"[0, 18]",2,17,"[1, 2, 3, 4, 7, 8, 9, 13, 15, 17, 19, 20, 22, 23, 25, 26, 28]",179.8958785,8634,8467,18,136,9,1.0
basic,36,14,0,0,0,8,"[0, 18, 8]",3,13,"[1, 2, 4, 7, 13, 15, 17, 19, 20, 23, 25, 26, 28]",166.294408,10886,2252,18,99,9,1.0203858410107731
basic,36,14,0,0,0,1,"[0, 18, 8, 1]",4,10,"[2, 4, 7, 15, 17, 19, 23, 25, 26, 28]",142.6935606,11901,1015,11,42,9,1.0173392374431458
basic,36,14,0,0,0,19,"[0, 18, 8, 1, 19]",5,9,"[2, 4, 7, 15, 17, 23, 25, 26, 28]",127.4620143,12842,941,11,22,9,1.1668364376922102
basic,36,14,0,0,0,25,"[0, 18, 8, 1, 19, 25]",6,5,"[2, 4, 7, 23, 26]",91.61511768,19433,6591,5,7,9,1.273103293863789
basic,36,14,0,0,0,7,"[0, 18, 8, 1, 19, 25, 7]",7,4,"[2, 4, 23, 26]",71.91740208,20404,971,2,2,9,1.3059971565497175
basic,36,14,0,0,0,23,"[0, 18, 8, 1, 19, 25, 7, 23]",8,1,[26],34.80945145,21803,1399,1,0,9,1.4108075818506876
basic,36,14,0,0,1,26,"[0, 18, 8, 1, 19, 25, 7, 23, 26]",9,0,[],23.99279762,22921,1118,1,0,9,1.3911752305399343
basic,36,14,0,1,1,26,"[0, 18, 8, 1, 19, 25, 7, 23, 26]",9,0,[],23.99279762,24944,2023,1,0,9,1.3911752305399343
basic,37,4,0,0,0,0,[0],1,26,"[3, 4, 5, 6, 7, 8, 10, 11, 12, 13, 14, 15, 16, 17, 18, 19, 20, 21, 22, 23, 24, 25, 26, 27, 28, 29]",300,149,-1,4,489,10,0.0
basic,37,4,0,0,0,28,"[0, 28]",2,21,"[3, 4, 5, 6, 10, 11, 12, 13, 14, 15, 16, 17, 19, 20, 21, 22, 23, 24, 25, 26, 27]",225.9392142,6175,6026,2,216,10,1.0
basic,37,4,0,0,0,14,"[0, 28, 14]",3,13,"[3, 4, 5, 6, 11, 13, 16, 17, 20, 21, 22, 24, 25]",159.6972335,7860,1685,1,26,10,1.0273973946789214
basic,37,4,0,0,0,25,"[0, 28, 14, 25]",4,12,"[3, 4, 5, 6, 11, 13, 16, 17, 20, 21, 22, 24]",143.572718,8541,681,1,25,10,1.233547772313525
basic,37,4,0,0,0,11,"[0, 28, 14, 25, 11]",5,10,"[3, 4, 5, 6, 13, 16, 17, 20, 21, 22]",124.7844238,9640,1099,1,15,10,1.425978575879479
basic,37,4,0,0,0,16,"[0, 28, 14, 25, 11, 16]",6,9,"[3, 4, 5, 6, 13, 17, 20, 21, 22]",109.7844238,10390,750,1,12,10,1.3799325158051412
basic,37,4,0,0,0,3,"[0, 28, 14, 25, 11, 16, 3]",7,2,"[17, 20]",68.15510719,12998,2608,1,1,9,1.3292844629725955
basic,37,4,0,0,0,17,"[0, 28, 14, 25, 11, 16, 3, 17]",8,1,[20],43.63980585,13976,978,1,0,9,1.5639571149270572
basic,37,4,0,0,1,20,"[0, 28, 14, 25, 11, 16, 3, 17, 20]",9,0,[],3.415435124,16625,2649,1,0,9,1.6231058358944275
basic,37,4,0,1,1,20,"[0, 28, 14, 25, 11, 16, 3, 17, 20]",9,0,[],3.415435124,18766,2141,1,0,9,1.6231058358944275
basic,38,5,0,0,0,0,[0],1,29,"[1, 2, 3, 4, 5, 6, 7, 8, 9, 10, 11, 12, 13, 14, 15, 16, 17, 18, 19, 20, 21, 22, 23, 24, 25, 26, 27, 28, 29]",300,170,-1,5,139,9,0.0
basic,38,5,0,0,0,12,"[0, 12]",2,22,"[2, 4, 5, 6, 8, 9, 10, 13, 14, 15, 16, 17, 18, 19, 21, 22, 23, 24, 25, 26, 27, 28]",228.3062067,10671,10501,1,27,9,1.0
basic,38,5,0,0,0,25,"[0, 12, 25]",3,21,"[2, 4, 5, 6, 8, 9, 10, 13, 14, 15, 16, 17, 18, 19, 21, 22, 23, 24, 26, 27, 28]",200.5213187,11773,1102,1,20,9,1.584023303445617
basic,38,5,0,0,0,23,"[0, 12, 25, 23]",4,19,"[2, 4, 5, 6, 8, 9, 10, 13, 14, 15, 16, 17, 18, 19, 21, 22, 24, 26, 27]",182.0822298,12570,797,1,14,9,2.3508446989254357
basic,38,5,0,0,0,24,"[0, 12, 25, 23, 24]",5,15,"[2, 4, 5, 6, 8, 9, 13, 14, 15, 17, 18, 19, 22, 26, 27]",158.995437,13687,1117,1,12,9,1.9469752046288753
basic,38,5,0,0,0,17,"[0, 12, 25, 23, 24, 17]",6,7,"[4, 5, 6, 8, 15, 18, 19]",124.0097257,17738,4051,1,8,9,1.6482276497563642
basic,38,5,0,0,0,5,"[0, 12, 25, 23, 24, 17, 5]",7,4,"[4, 6, 15, 18]",80.96323916,30259,12521,1,3,9,1.4654649104389412
basic,38,5,0,0,1,15,"[0, 12, 25, 23, 24, 17, 5, 15]",8,0,[],40.93824697,31555,1296,1,0,8,1.4660376450939663
basic,38,5,0,1,1,15,"[0, 12, 25, 23, 24, 17, 5, 15]",8,0,[],40.93824697,38462,6907,1,0,8,1.4660376450939663
basic,39,32,0,0,0,0,[0],1,29,"[1, 2, 3, 4, 5, 6, 7, 8, 9, 10, 11, 12, 13, 14, 15, 16, 17, 18, 19, 20, 21, 22, 23, 24, 25, 26, 27, 28, 29]",300,145,-1,17,359,10,0.0
basic,39,32,0,0,0,19,"[0, 19]",2,28,"[1, 2, 3, 4, 5, 6, 7, 8, 9, 10, 11, 12, 13, 14, 15, 16, 17, 18, 20, 21, 22, 23, 24, 25, 26, 27, 28, 29]",283.5075775,12402,12257,16,294,10,1.0
basic,39,32,0,0,0,13,"[0, 19, 13]",3,24,"[2, 3, 4, 5, 6, 8, 9, 10, 11, 12, 14, 15, 16, 17, 18, 20, 21, 22, 23, 24, 25, 26, 27, 28]",260.3127505,13386,984,14,227,10,1.0172874229878615
basic,39,32,0,0,0,15,"[0, 19, 13, 15]",4,18,"[2, 3, 5, 8, 9, 10, 11, 12, 16, 17, 20, 22, 23, 24, 25, 26, 27, 28]",177.4393531,14990,1604,9,116,10,1.435447391509833
basic,39,32,0,0,0,28,"[0, 19, 13, 15, 28]",5,17,"[2, 3, 5, 8, 9, 10, 11, 12, 16, 17, 20, 22, 23, 24, 25, 26, 27]",166.0375988,15763,773,9,70,10,1.3843701324937985
basic,39,32,0,0,0,12,"[0, 19, 13, 15, 28, 12]",6,14,"[2, 3, 5, 8, 9, 10, 11, 16, 17, 20, 22, 24, 26, 27]",147.0639329,16930,1167,6,35,10,1.358372254952329
basic,39,32,0,0,0,16,"[0, 19, 13, 15, 28, 12, 16]",7,13,"[2, 3, 5, 8, 9, 10, 11, 17, 20, 22, 24, 26, 27]",131.411457,18936,2006,5,15,10,1.4356932930709845
basic,39,32,0,0,0,22,"[0, 19, 13, 15, 28, 12, 16, 22]",8,6,"[2, 8, 9, 17, 20, 27]",97.57360838,21807,2871,3,5,10,1.4335226411545752
basic,39,32,0,0,0,9,"[0, 19, 13, 15, 28, 12, 16, 22, 9]",9,3,"[2, 8, 20]",75.37000507,27803,5996,3,0,10,1.4837166378374758
basic,39,32,0,0,1,20,"[0, 19, 13, 15, 28, 12, 16, 22, 9, 20]",10,0,[],12.72018464,33754,5951,1,0,10,1.420264208067807
basic,39,32,0,1,1,20,"[0, 19, 13, 15, 28, 12, 16, 22, 9, 20]",10,0,[],12.72018464,36994,3240,1,0,10,1.420264208067807
basic,40,11,0,0,0,0,[0],1,25,"[1, 2, 3, 4, 5, 6, 8, 9, 10, 11, 12, 13, 14, 15, 16, 17, 18, 19, 20, 22, 23, 25, 26, 27, 28]",300,166,-1,6,374,12,0.0
basic,40,11,0,0,0,1,"[0, 1]",2,24,"[2, 3, 4, 5, 6, 8, 9, 10, 11, 12, 13, 14, 15, 16, 17, 18, 19, 20, 22, 23, 25, 26, 27, 28]",264.6446609,9005,8839,6,217,12,1.0
basic,40,11,0,0,0,18,"[0, 1, 18]",3,19,"[2, 4, 5, 6, 8, 9, 11, 12, 14, 15, 16, 17, 19, 20, 22, 23, 25, 27, 28]",212.3187591,10216,1211,6,161,12,1.3884463804898786
basic,40,11,0,0,0,27,"[0, 1, 18, 27]",4,18,"[2, 4, 5, 6, 8, 9, 11, 12, 14, 15, 16, 17, 19, 20, 22, 23, 25, 28]",188.4650382,10922,706,6,155,12,1.3600813284083875
basic,40,11,0,0,0,17,"[0, 1, 18, 27, 17]",5,11,"[2, 5, 6, 8, 11, 12, 15, 19, 22, 25, 28]",111.3871556,15036,4114,2,45,12,1.282398281674261
basic,40,11,0,0,0,8,"[0, 1, 18, 27, 17, 8]",6,7,"[2, 5, 11, 12, 15, 22, 28]",97.0693345,16157,1121,2,21,12,1.3975291553712
basic,40,11,0,0,0,15,"[0, 1, 18, 27, 17, 8, 15]",7,6,"[2, 5, 11, 12, 22, 28]",83.61571045,17654,1497,2,18,12,1.3793915678186077
basic,40,11,0,0,0,11,"[0, 1, 18, 27, 17, 8, 15, 11]",8,4,"[2, 5, 22, 28]",65.50494017,18668,1014,2,14,12,1.3525960247899067
basic,40,11,0,0,0,28,"[0, 1, 18, 27, 17, 8, 15, 11, 28]",9,3,"[2, 5, 22]",46.08845233,22451,3783,2,4,12,1.4693669896690256
basic,40,11,0,0,0,2,"[0, 1, 18, 27, 17, 8, 15, 11, 28, 2]",10,2,"[5, 22]",35.45830652,23350,899,2,0,11,1.482125145184235
basic,40,11,0,0,1,22,"[0, 1, 18, 27, 17, 8, 15, 11, 28, 2, 22]",11,0,[],25.4084309,24199,849,1,0,11,1.4564579132739395
basic,40,11,0,1,1,22,"[0, 1, 18, 27, 17, 8, 15, 11, 28, 2, 22]",11,0,[],25.4084309,34075,9876,1,0,11,1.4564579132739395
basic,41,22,0,0,0,0,[0],1,29,"[1, 2, 3, 4, 5, 6, 7, 8, 9, 10, 11, 12, 13, 14, 15, 16, 17, 18, 19, 20, 21, 22, 23, 24, 25, 26, 27, 28, 29]",300,160,-1,31,704,9,0.0
basic,41,22,0,0,0,16,"[0, 16]",2,21,"[1, 3, 6, 7, 8, 9, 11, 13, 14, 15, 17, 18, 19, 20, 21, 22, 24, 25, 27, 28, 29]",218.605897,15655,15495,17,147,9,1.0
basic,41,22,0,0,0,28,"[0, 16, 28]",3,13,"[6, 7, 9, 13, 14, 17, 19, 20, 21, 22, 24, 25, 29]",184.1675463,18141,2486,12,61,9,1.047282311284478
basic,41,22,0,0,0,6,"[0, 16, 28, 6]",4,12,"[7, 9, 13, 14, 17, 19, 20, 21, 22, 24, 25, 29]",154.1675463,19679,1538,12,43,9,1.645645870580622
basic,41,22,0,0,0,9,"[0, 16, 28, 6, 9]",5,8,"[7, 14, 17, 19, 20, 21, 24, 29]",127.5404924,20717,1038,8,17,9,1.925750226630103
basic,41,22,0,0,0,19,"[0, 16, 28, 6, 9, 19]",6,6,"[7, 14, 17, 21, 24, 29]",107.1444143,23034,2317,3,7,9,2.4220750331476455
basic,41,22,0,0,0,29,"[0, 16, 28, 6, 9, 19, 29]",7,4,"[7, 14, 17, 24]",92.11111796,24235,1201,2,2,9,2.6996279574991067
basic,41,22,0,0,0,14,"[0, 16, 28, 6, 9, 19, 29, 14]",8,1,[7],33.86165444,28535,4300,1,0,9,2.0544639927929462
basic,41,22,0,0,1,7,"[0, 16, 28, 6, 9, 19, 29, 14, 7]",9,0,[],20.82324963,29588,1053,1,0,9,2.219817088951114
basic,41,22,0,1,1,7,"[0, 16, 28, 6, 9, 19, 29, 14, 7]",9,0,[],20.82324963,32276,2688,1,0,9,2.219817088951114
basic,42,1,0,0,0,0,[0],1,26,"[1, 2, 4, 5, 7, 8, 9, 10, 11, 12, 13, 14, 15, 16, 17, 18, 19, 20, 21, 22, 23, 24, 25, 26, 28, 29]",300,163,-1,6,74,7,0.0
basic,42,1,0,0,0,14,"[0, 14]",2,19,"[1, 4, 5, 8, 9, 13, 15, 17, 18, 19, 20, 21, 22, 23, 24, 25, 26, 28, 29]",200.1901808,11002,10839,5,42,7,1.0
basic,42,1,0,0,0,17,"[0, 14, 17]",3,15,"[1, 4, 5, 8, 9, 13, 15, 18, 19, 20, 22, 23, 25, 28, 29]",147.8356204,12368,1366,5,27,7,1.0028844724416826
basic,42,1,0,0,0,20,"[0, 14, 17, 20]",4,5,"[4, 5, 8, 18, 29]",79.42509489,22635,10267,3,3,6,1.2972077151057804
basic,42,1,0,0,0,5,"[0, 14, 17, 20, 5]",5,1,[18],57.95418433,23942,1307,1,0,6,1.2923132195161702
basic,42,1,0,0,1,18,"[0, 14, 17, 20, 5, 18]",6,0,[],35.12875991,24987,1045,1,0,6,1.3149712096478787
basic,42,1,0,1,1,18,"[0, 14, 17, 20, 5, 18]",6,0,[],35.12875991,39080,14093,1,0,6,1.3149712096478787
basic,43,18,0,0,0,0,[0],1,28,"[1, 2, 3, 4, 5, 6, 7, 8, 9, 10, 11, 12, 13, 14, 16, 17, 18, 19, 20, 21, 22, 23, 24, 25, 26, 27, 28, 29]",300,163,-1,3,136,10,0.0
basic,43,18,0,0,0,23,"[0, 23]",2,27,"[1, 2, 3, 4, 5, 6, 7, 8, 9, 10, 11, 12, 13, 14, 16, 17, 18, 19, 20, 21, 22, 24, 25, 26, 27, 28, 29]",261.5812546,9524,9361,25,425,9,1.0
basic,43,18,0,0,0,25,"[0, 23, 25]",3,16,"[1, 3, 5, 7, 8, 9, 12, 13, 14, 16, 18, 20, 24, 26, 27, 28]",199.3156943,18684,9160,5,84,9,1.6778387446882934
basic,43,18,0,0,0,8,"[0, 23, 25, 8]",4,12,"[1, 3, 5, 7, 9, 12, 13, 14, 16, 26, 27, 28]",162.2616796,21318,2634,4,20,9,1.4561019890540507
basic,43,18,0,0,0,13,"[0, 23, 25, 8, 13]",5,10,"[3, 5, 7, 9, 12, 14, 16, 26, 27, 28]",141.1666565,22268,950,2,8,9,1.689620812867217
basic,43,18,0,0,0,14,"[0, 23, 25, 8, 13, 14]",6,8,"[3, 5, 7, 9, 12, 26, 27, 28]",122.1929906,23001,733,2,5,9,1.5859829507102674
basic,43,18,0,0,0,3,"[0, 23, 25, 8, 13, 14, 3]",7,4,"[5, 7, 12, 27]",92.10977266,23845,844,2,2,9,1.6987761632883016
basic,43,18,0,0,0,5,"[0, 23, 25, 8, 13, 14, 3, 5]",8,1,[12],33.92901983,24868,1023,1,0,9,1.488661865220926
basic,43,18,0,0,1,12,"[0, 23, 25, 8, 13, 14, 3, 5, 12]",9,0,[],22.52726558,26134,1266,1,0,9,1.4954894016243359
basic,43,18,0,1,1,12,"[0, 23, 25, 8, 13, 14, 3, 5, 12]",9,0,[],22.52726558,28125,1991,1,0,9,1.4954894016243359
basic,44,27,0,0,0,0,[0],1,26,"[1, 3, 5, 6, 7, 8, 9, 10, 11, 12, 13, 14, 15, 16, 17, 18, 19, 21, 22, 23, 24, 25, 26, 27, 28, 29]",300,172,-1,13,578,11,0.0
basic,44,27,0,0,0,15,"[0, 15]",2,24,"[1, 3, 5, 6, 7, 8, 9, 10, 11, 12, 13, 14, 16, 17, 18, 19, 21, 22, 23, 24, 25, 26, 27, 29]",263.7508621,30104,29932,6,219,11,1.0
basic,44,27,0,0,0,24,"[0, 15, 24]",3,20,"[1, 5, 6, 7, 8, 9, 10, 12, 13, 14, 16, 17, 18, 19, 21, 23, 25, 26, 27, 29]",246.5462115,30955,851,6,130,11,1.130933077698322
basic,44,27,0,0,0,17,"[0, 15, 24, 17]",4,15,"[1, 6, 8, 10, 12, 13, 14, 16, 18, 19, 23, 25, 26, 27, 29]",229.9932662,34073,3118,4,60,11,1.1285538435963374
basic,44,27,0,0,0,12,"[0, 15, 24, 17, 12]",5,14,"[1, 6, 8, 10, 13, 14, 16, 18, 19, 23, 25, 26, 27, 29]",218.8129263,37704,3631,2,32,11,1.2561880288755216
basic,44,27,0,0,0,10,"[0, 15, 24, 17, 12, 10]",6,11,"[1, 8, 13, 14, 18, 19, 23, 25, 26, 27, 29]",207.7675653,39152,1448,2,28,11,1.2228289337766665
basic,44,27,0,0,0,13,"[0, 15, 24, 17, 12, 10, 13]",7,9,"[1, 8, 14, 18, 19, 23, 26, 27, 29]",167.9178476,43864,4712,2,18,11,1.3421291994761178
basic,44,27,0,0,0,19,"[0, 15, 24, 17, 12, 10, 13, 19]",8,5,"[1, 8, 14, 23, 29]",131.6825057,44892,1028,2,6,11,1.294749956153846
basic,44,27,0,0,0,8,"[0, 15, 24, 17, 12, 10, 13, 19, 8]",9,3,"[14, 23, 29]",116.816437,45951,1059,2,1,11,1.3554286578836865
basic,44,27,0,0,0,14,"[0, 15, 24, 17, 12, 10, 13, 19, 8, 14]",10,1,[29],59.25777126,59993,14042,1,0,11,1.312380420632942
basic,44,27,0,0,1,29,"[0, 15, 24, 17, 12, 10, 13, 19, 8, 14, 29]",11,0,[],14.96330208,61153,1160,1,0,11,1.4680136813839417
basic,44,27,0,1,1,29,"[0, 15, 24, 17, 12, 10, 13, 19, 8, 14, 29]",11,0,[],14.96330208,63428,2275,1,0,11,1.4680136813839417
basic,45,25,0,0,0,0,[0],1,28,"[1, 2, 3, 4, 5, 7, 8, 9, 10, 11, 12, 13, 14, 15, 16, 17, 18, 19, 20, 21, 22, 23, 24, 25, 26, 27, 28, 29]",300,160,-1,5,94,10,0.0
basic,45,25,0,0,0,23,"[0, 23]",2,23,"[1, 2, 3, 5, 7, 8, 9, 11, 12, 13, 14, 16, 17, 19, 20, 21, 22, 24, 25, 26, 27, 28, 29]",259.7756293,7685,7525,3,33,10,1.0
basic,45,25,0,0,0,19,"[0, 23, 19]",3,21,"[1, 2, 3, 5, 7, 8, 9, 11, 12, 13, 14, 16, 17, 20, 21, 22, 24, 25, 27, 28, 29]",223.9287326,8889,1204,3,24,10,1.583101227007039
basic,45,25,0,0,0,29,"[0, 23, 19, 29]",4,19,"[1, 2, 3, 5, 7, 8, 9, 11, 12, 13, 14, 16, 17, 20, 21, 22, 24, 25, 28]",207.649912,9518,629,3,17,10,1.474631541426484
basic,45,25,0,0,0,22,"[0, 23, 19, 29, 22]",5,18,"[1, 2, 3, 5, 7, 8, 9, 11, 12, 13, 14, 16, 17, 20, 21, 24, 25, 28]",191.5253965,10283,765,3,14,10,1.4020377754906637
basic,45,25,0,0,0,7,"[0, 23, 19, 29, 22, 7]",6,7,"[3, 8, 9, 11, 13, 24, 28]",115.8814939,11736,1453,3,11,10,1.5709678649326715
basic,45,25,0,0,0,24,"[0, 23, 19, 29, 22, 7, 24]",7,5,"[3, 8, 9, 13, 28]",91.12265712,13668,1932,3,7,10,1.486191600033379
basic,45,25,0,0,0,9,"[0, 23, 19, 29, 22, 7, 24, 9]",8,4,"[3, 8, 13, 28]",73.09490075,15018,1350,3,3,10,1.453504870342882
basic,45,25,0,0,0,3,"[0, 23, 19, 29, 22, 7, 24, 9, 3]",9,3,"[8, 13, 28]",42.82940885,19375,4357,3,0,10,1.388955167525479
basic,45,25,0,0,1,28,"[0, 23, 19, 29, 22, 7, 24, 9, 3, 28]",10,0,[],11.52445716,20959,1584,1,0,10,1.3331084120212044
basic,45,25,0,1,1,28,"[0, 23, 19, 29, 22, 7, 24, 9, 3, 28]",10,0,[],11.52445716,24810,3851,1,0,10,1.3331084120212044
basic,46,30,0,0,0,0,[0],1,19,"[3, 4, 5, 7, 9, 11, 16, 17, 18, 19, 20, 21, 22, 24, 25, 26, 27, 28, 29]",300,184,-1,5,41,8,0.0
basic,46,30,0,0,0,16,"[0, 16]",2,17,"[3, 5, 7, 9, 11, 17, 18, 19, 20, 21, 22, 24, 25, 26, 27, 28, 29]",219.3774225,11561,11377,5,34,8,1.0
basic,46,30,0,0,0,25,"[0, 16, 25]",3,10,"[3, 5, 7, 9, 11, 18, 19, 20, 27, 29]",115.0845656,13748,2187,5,28,8,1.0336279544884488
basic,46,30,0,0,0,20,"[0, 16, 25, 20]",4,8,"[3, 5, 7, 9, 18, 19, 27, 29]",93.15285342,14529,781,4,14,8,1.0337964627284246
basic,46,30,0,0,0,27,"[0, 16, 25, 20, 27]",5,4,"[3, 5, 18, 29]",59.09408069,16440,1911,4,6,8,1.1504365534848
basic,46,30,0,0,0,3,"[0, 16, 25, 20, 27, 3]",6,3,"[5, 18, 29]",39.98910751,17257,817,4,0,8,1.1403876826835333
basic,46,30,0,0,0,29,"[0, 16, 25, 20, 27, 3, 29]",7,1,[18],21.38803228,17865,608,1,0,8,1.1443827771455848
basic,46,30,0,0,1,18,"[0, 16, 25, 20, 27, 3, 29, 18]",8,0,[],2.074824359,18641,776,1,0,8,1.2197761544023602
basic,46,30,0,1,1,18,"[0, 16, 25, 20, 27, 3, 29, 18]",8,0,[],2.074824359,20516,1875,1,0,8,1.2197761544023602
basic,47,34,0,0,0,0,[0],1,25,"[1, 3, 4, 5, 6, 7, 8, 9, 10, 11, 12, 13, 15, 18, 19, 20, 21, 22, 23, 24, 25, 26, 27, 28, 29]",300,173,-1,12,367,10,0.0
basic,47,34,0,0,0,1,"[0, 1]",2,17,"[3, 5, 7, 8, 9, 10, 11, 12, 13, 19, 21, 22, 23, 24, 25, 27, 29]",211.9488785,4069,3896,3,92,9,1.0
basic,47,34,0,0,0,8,"[0, 1, 8]",3,15,"[3, 5, 7, 9, 10, 11, 12, 13, 19, 22, 23, 24, 25, 27, 29]",201.1785489,5609,1540,2,54,9,1.1626053070588234
basic,47,34,0,0,0,25,"[0, 1, 8, 25]",4,13,"[3, 5, 7, 9, 10, 11, 12, 13, 22, 23, 24, 27, 29]",184.0905414,6919,1310,2,28,9,1.1387228631211366
basic,47,34,0,0,0,24,"[0, 1, 8, 25, 24]",5,12,"[3, 5, 7, 9, 10, 11, 12, 13, 22, 23, 27, 29]",166.5976857,9503,2584,2,23,9,1.3732398141694295
basic,47,34,0,0,0,12,"[0, 1, 8, 25, 24, 12]",6,8,"[7, 9, 10, 11, 13, 22, 23, 27]",115.5584851,10503,1000,1,8,9,1.4986827355404062
basic,47,34,0,0,0,7,"[0, 1, 8, 25, 24, 12, 7]",7,5,"[9, 11, 22, 23, 27]",100.5251887,11974,1471,1,4,9,1.7581869303627529
basic,47,34,0,0,0,23,"[0, 1, 8, 25, 24, 12, 7, 23]",8,1,[27],72.36493302,12741,767,1,0,9,2.3988180441149956
basic,47,34,0,0,1,27,"[0, 1, 8, 25, 24, 12, 7, 23, 27]",9,0,[],18.69930156,14259,1518,1,0,9,4.765071474059221
basic,47,34,0,1,1,27,"[0, 1, 8, 25, 24, 12, 7, 23, 27]",9,0,[],18.69930156,16028,1769,1,0,9,4.765071474059221
basic,48,31,0,0,0,0,[0],1,27,"[1, 3, 4, 5, 6, 7, 8, 10, 11, 12, 13, 14, 15, 16, 17, 18, 19, 20, 21, 22, 23, 24, 25, 26, 27, 28, 29]",300,171,-1,2,87,10,0.0
basic,48,31,0,0,0,8,"[0, 8]",2,26,"[1, 3, 4, 5, 6, 7, 10, 11, 12, 13, 14, 15, 16, 17, 18, 19, 20, 21, 22, 23, 24, 25, 26, 27, 28, 29]",265.2149457,2637,2466,14,226,9,1.0
basic,48,31,0,0,0,27,"[0, 8, 27]",3,25,"[1, 3, 4, 5, 6, 7, 10, 11, 12, 13, 14, 15, 16, 17, 18, 19, 20, 21, 22, 23, 24, 25, 26, 28, 29]",254.1695847,3287,650,9,146,9,1.1317014404638044
basic,48,31,0,0,0,5,"[0, 8, 27, 5]",4,11,"[11, 12, 14, 16, 17, 18, 19, 20, 22, 25, 28]",152.1499788,4980,1693,1,17,8,1.6853451734109421
basic,48,31,0,0,0,28,"[0, 8, 27, 5, 28]",5,8,"[11, 12, 16, 17, 18, 20, 22, 25]",131.9262303,6203,1223,1,7,8,1.565866931349728
basic,48,31,0,0,0,25,"[0, 8, 27, 5, 28, 25]",6,1,[12],41.48287791,8227,2024,1,0,7,1.7921060560650728
basic,48,31,0,1,0,25,"[0, 8, 27, 5, 28, 25]",6,1,[12],41.48287791,12913,4686,1,0,7,1.7921060560650728
basic,49,3,0,0,0,0,[0],1,29,"[1, 2, 3, 4, 5, 6, 7, 8, 9, 10, 11, 12, 13, 14, 15, 16, 17, 18, 19, 20, 21, 22, 23, 24, 25, 26, 27, 28, 29]",300,151,-1,34,427,10,0.0
basic,49,3,0,0,0,16,"[0, 16]",2,28,"[1, 2, 3, 4, 5, 6, 7, 8, 9, 10, 11, 12, 13, 14, 15, 17, 18, 19, 20, 21, 22, 23, 24, 25, 26, 27, 28, 29]",268.9355509,3853,3702,32,260,9,1.0
basic,49,3,0,0,0,15,"[0, 16, 15]",3,27,"[1, 2, 3, 4, 5, 6, 7, 8, 9, 10, 11, 12, 13, 14, 17, 18, 19, 20, 21, 22, 23, 24, 25, 26, 27, 28, 29]",229.8203364,4670,817,15,76,9,2.204989671213251
basic,49,3,0,0,0,7,"[0, 16, 15, 7]",4,25,"[1, 2, 3, 4, 5, 6, 8, 9, 10, 11, 12, 13, 14, 17, 18, 19, 20, 21, 22, 24, 25, 26, 27, 28, 29]",199.7537437,5321,651,15,59,9,4.730913335158226
basic,49,3,0,0,0,8,"[0, 16, 15, 7, 8]",5,13,"[3, 4, 5, 10, 14, 17, 18, 19, 20, 21, 22, 24, 26]",143.7805358,6518,1197,9,26,9,2.6022124644283724
basic,49,3,0,0,0,24,"[0, 16, 15, 7, 8, 24]",6,9,"[3, 4, 10, 14, 17, 19, 20, 21, 22]",131.6150107,7709,1191,9,11,9,2.8609774318136
basic,49,3,0,0,0,17,"[0, 16, 15, 7, 8, 24, 17]",7,2,"[3, 20]",62.2608472,11209,3500,2,0,9,2.323862059665861
basic,49,3,0,0,0,20,"[0, 16, 15, 7, 8, 24, 17, 20]",8,1,[3],49.61173656,12588,1379,1,0,9,2.2115860124874804
basic,49,3,0,0,1,3,"[0, 16, 15, 7, 8, 24, 17, 20, 3]",9,0,[],29.21565851,13788,1200,1,0,9,2.164543788989251
basic,49,3,0,1,1,3,"[0, 16, 15, 7, 8, 24, 17, 20, 3]",9,0,[],29.21565851,16462,2674,1,0,9,2.164543788989251
basic,50,23,0,0,0,0,[0],1,28,"[1, 2, 3, 4, 5, 6, 7, 8, 9, 10, 11, 12, 13, 14, 15, 16, 17, 18, 19, 20, 21, 22, 23, 25, 26, 27, 28, 29]",300,159,-1,76,2626,10,0.0
basic,50,23,0,0,0,22,"[0, 22]",2,24,"[1, 2, 3, 5, 6, 7, 8, 9, 10, 11, 12, 13, 14, 15, 17, 18, 19, 20, 21, 23, 25, 26, 27, 29]",210.5013967,3392,3233,15,1362,10,1.0
basic,50,23,0,0,0,13,"[0, 22, 13]",3,14,"[1, 2, 5, 6, 7, 8, 9, 10, 12, 14, 18, 21, 27, 29]",168.3113504,4601,1209,14,522,10,1.1898173563652046
basic,50,23,0,0,0,2,"[0, 22, 13, 2]",4,10,"[1, 6, 7, 9, 10, 12, 14, 18, 27, 29]",142.3691069,6270,1669,1,83,10,1.155153866536039
basic,50,23,0,0,0,6,"[0, 22, 13, 2, 6]",5,8,"[7, 9, 10, 12, 14, 18, 27, 29]",123.930018,7324,1054,20,19,9,1.1719003367245038
basic,50,23,0,0,0,14,"[0, 22, 13, 2, 6, 14]",6,5,"[7, 9, 12, 27, 29]",95.0682786,9252,1928,5,6,9,1.454550930656058
basic,50,23,0,0,0,9,"[0, 22, 13, 2, 6, 14, 9]",7,4,"[7, 12, 27, 29]",84.62797209,10453,1201,3,2,9,1.648485980779952
basic,50,23,0,0,0,29,"[0, 22, 13, 2, 6, 14, 9, 29]",8,1,[7],33.0043341,11672,1219,1,0,9,1.7314034814373591
basic,50,23,0,0,1,7,"[0, 22, 13, 2, 6, 14, 9, 29, 7]",9,0,[],8.92114494,14206,2534,1,0,9,1.7306511540758553
basic,50,23,0,1,1,7,"[0, 22, 13, 2, 6, 14, 9, 29, 7]",9,0,[],8.92114494,16062,1856,1,0,9,1.7306511540758553
basic,51,40,0,0,0,0,[0],1,29,"[1, 2, 3, 4, 5, 6, 7, 8, 9, 10, 11, 12, 13, 14, 15, 16, 17, 18, 19, 20, 21, 22, 23, 24, 25, 26, 27, 28, 29]",300,150,-1,8,191,9,0.0
basic,51,40,0,0,0,19,"[0, 19]",2,23,"[1, 2, 5, 6, 7, 8, 9, 10, 11, 13, 14, 15, 17, 18, 20, 21, 22, 23, 24, 25, 26, 27, 29]",197.4085774,6345,6195,1,23,8,1.0
basic,51,40,0,0,0,23,"[0, 19, 23]",3,16,"[1, 2, 5, 6, 7, 8, 9, 10, 11, 13, 17, 18, 21, 22, 27, 29]",165.4554867,7039,694,1,13,8,1.4185389616031867
basic,51,40,0,0,0,5,"[0, 19, 23, 5]",4,11,"[1, 2, 6, 7, 8, 9, 11, 18, 21, 22, 27]",137.1535433,8054,1015,1,6,8,1.324129989367913
basic,51,40,0,0,0,18,"[0, 19, 23, 5, 18]",5,6,"[1, 2, 6, 9, 21, 22]",105.5782365,9056,1002,1,3,8,1.6412891179855233
basic,51,40,0,0,0,9,"[0, 19, 23, 5, 18, 9]",6,3,"[1, 6, 21]",89.02529118,9575,519,1,2,8,1.710668227082089
basic,51,40,0,0,1,21,"[0, 19, 23, 5, 18, 9, 21]",7,0,[],43.31971165,10703,1128,1,0,7,2.1300718637448
basic,51,40,0,1,1,21,"[0, 19, 23, 5, 18, 9, 21]",7,0,[],43.31971165,13513,2810,1,0,7,2.1300718637448
basic,52,7,0,0,0,0,[0],1,29,"[1, 2, 3, 4, 5, 6, 7, 8, 9, 10, 11, 12, 13, 14, 15, 16, 17, 18, 19, 20, 21, 22, 23, 24, 25, 26, 27, 28, 29]",300,162,-1,3,79,9,0.0
basic,52,7,0,0,0,25,"[0, 25]",2,20,"[2, 3, 4, 5, 6, 7, 10, 13, 14, 15, 16, 18, 19, 20, 21, 22, 23, 24, 27, 28]",181.5939191,7176,7014,5,33,8,1.0
basic,52,7,0,0,0,4,"[0, 25, 4]",3,11,"[2, 6, 7, 13, 15, 16, 18, 19, 20, 21, 23]",156.8552853,8104,928,2,14,8,1.0193465608331511
basic,52,7,0,0,0,20,"[0, 25, 4, 20]",4,8,"[2, 6, 7, 13, 15, 16, 18, 19]",137.2084026,9358,1254,1,9,8,1.085904909082323
basic,52,7,0,0,0,18,"[0, 25, 4, 20, 18]",5,7,"[2, 6, 7, 13, 15, 16, 19]",124.4021541,10242,884,1,5,8,1.2264883846453758
basic,52,7,0,0,0,7,"[0, 25, 4, 20, 18, 7]",6,2,"[2, 19]",83.17109789,11351,1109,1,1,8,1.185264473968278
basic,52,7,0,0,0,19,"[0, 25, 4, 20, 18, 7, 19]",7,1,[2],53.76021555,12304,953,1,0,8,1.3016904288278204
basic,52,7,0,0,1,2,"[0, 25, 4, 20, 18, 7, 19, 2]",8,0,[],23.61058868,13323,1019,1,0,8,1.3168868000947171
basic,52,7,0,1,1,2,"[0, 25, 4, 20, 18, 7, 19, 2]",8,0,[],23.61058868,15195,1872,1,0,8,1.3168868000947171
basic,53,8,0,0,0,0,[0],1,29,"[1, 2, 3, 4, 5, 6, 7, 8, 9, 10, 11, 12, 13, 14, 15, 16, 17, 18, 19, 20, 21, 22, 23, 24, 25, 26, 27, 28, 29]",300,147,-1,10,149,9,0.0
basic,53,8,0,0,0,5,"[0, 5]",2,28,"[1, 2, 3, 4, 6, 7, 8, 9, 10, 11, 12, 13, 14, 15, 16, 17, 18, 19, 20, 21, 22, 23, 24, 25, 26, 27, 28, 29]",254.5137383,3054,2907,10,100,9,1.0
basic,53,8,0,0,0,14,"[0, 5, 14]",3,20,"[1, 2, 3, 4, 6, 7, 11, 15, 16, 17, 18, 19, 20, 21, 22, 23, 24, 25, 28, 29]",214.5512559,4856,1802,4,36,9,1.0001019035932595
basic,53,8,0,0,0,17,"[0, 5, 14, 17]",4,15,"[1, 4, 6, 7, 11, 15, 16, 18, 19, 20, 22, 23, 24, 25, 28]",177.5377449,5816,960,4,16,9,1.121197267659591
basic,53,8,0,0,0,11,"[0, 5, 14, 17, 11]",5,11,"[1, 4, 15, 16, 18, 19, 22, 23, 24, 25, 28]",152.3583883,8145,2329,4,8,9,1.1277254166016362
basic,53,8,0,0,0,24,"[0, 5, 14, 17, 11, 24]",6,3,"[15, 16, 28]",115.1428001,9421,1276,2,2,9,1.1227411011978805
basic,53,8,0,0,0,15,"[0, 5, 14, 17, 11, 24, 15]",7,2,"[16, 28]",98.37974552,10739,1318,2,0,9,1.1956385406066814
basic,53,8,0,0,0,16,"[0, 5, 14, 17, 11, 24, 15, 16]",8,1,[28],47.30137436,12388,1649,1,0,9,1.36482239111247
basic,53,8,0,0,1,28,"[0, 5, 14, 17, 11, 24, 15, 16, 28]",9,0,[],24.94069458,13372,984,1,0,9,1.632953105226947
basic,53,8,0,1,1,28,"[0, 5, 14, 17, 11, 24, 15, 16, 28]",9,0,[],24.94069458,14630,1258,1,0,9,1.632953105226947
basic,54,6,0,0,0,0,[0],1,29,"[1, 2, 3, 4, 5, 6, 7, 8, 9, 10, 11, 12, 13, 14, 15, 16, 17, 18, 19, 20, 21, 22, 23, 24, 25, 26, 27, 28, 29]",300,169,-1,180,4304,10,0.0
basic,54,6,0,0,0,3,"[0, 3]",2,28,"[1, 2, 4, 5, 6, 7, 8, 9, 10, 11, 12, 13, 14, 15, 16, 17, 18, 19, 20, 21, 22, 23, 24, 25, 26, 27, 28, 29]",266.4738908,6954,6785,90,1607,10,1.0
basic,54,6,0,0,0,10,"[0, 3, 10]",3,27,"[1, 2, 4, 5, 6, 7, 8, 9, 11, 12, 13, 14, 15, 16, 17, 18, 19, 20, 21, 22, 23, 24, 25, 26, 27, 28, 29]",215.2293789,8452,1498,8,136,10,1.0050517746249001
basic,54,6,0,0,0,24,"[0, 3, 10, 24]",4,23,"[1, 2, 4, 5, 6, 7, 8, 11, 13, 14, 16, 17, 18, 19, 20, 21, 22, 23, 25, 26, 27, 28, 29]",201.812971,9318,866,8,85,10,1.0091851911500884
basic,54,6,0,0,0,17,"[0, 3, 10, 24, 17]",5,19,"[1, 2, 4, 5, 6, 7, 8, 11, 13, 14, 16, 18, 20, 21, 22, 23, 26, 27, 29]",172.5384087,10285,967,8,53,10,1.8060138032707682
basic,54,6,0,0,0,18,"[0, 3, 10, 24, 17, 18]",6,15,"[1, 2, 6, 7, 8, 13, 14, 16, 20, 21, 22, 23, 26, 27, 29]",158.6100204,11156,871,7,36,10,2.3216150751946008
basic,54,6,0,0,0,16,"[0, 3, 10, 24, 17, 18, 16]",7,13,"[1, 2, 6, 7, 13, 14, 20, 21, 22, 23, 26, 27, 29]",135.2647853,11973,817,7,21,10,2.2822729587843544
basic,54,6,0,0,0,29,"[0, 3, 10, 24, 17, 18, 16, 29]",8,7,"[6, 14, 20, 21, 22, 23, 27]",98.57691268,12816,843,6,4,10,1.8911507070056388
basic,54,6,0,0,0,23,"[0, 3, 10, 24, 17, 18, 16, 29, 23]",9,2,"[6, 22]",51.05849519,14338,1522,2,0,10,1.8549852217940308
basic,54,6,0,0,1,6,"[0, 3, 10, 24, 17, 18, 16, 29, 23, 6]",10,0,[],15.70315613,15254,916,1,0,10,1.7651720921259988
basic,54,6,0,1,1,6,"[0, 3, 10, 24, 17, 18, 16, 29, 23, 6]",10,0,[],15.70315613,16910,1656,1,0,10,1.7651720921259988
basic,55,21,0,0,0,0,[0],1,29,"[1, 2, 3, 4, 5, 6, 7, 8, 9, 10, 11, 12, 13, 14, 15, 16, 17, 18, 19, 20, 21, 22, 23, 24, 25, 26, 27, 28, 29]",300,162,-1,84,830,9,0.0
basic,55,21,0,0,0,20,"[0, 20]",2,28,"[1, 2, 3, 4, 5, 6, 7, 8, 9, 10, 11, 12, 13, 14, 15, 16, 17, 18, 19, 21, 22, 23, 24, 25, 26, 27, 28, 29]",217.6228187,8117,7955,6,67,9,1.0
basic,55,21,0,0,0,22,"[0, 20, 22]",3,23,"[2, 4, 6, 7, 8, 9, 10, 11, 12, 13, 14, 15, 16, 17, 18, 19, 21, 23, 24, 25, 26, 27, 29]",189.3916303,9121,1004,6,47,9,1.3451865712078994
basic,55,21,0,0,0,18,"[0, 20, 22, 18]",4,20,"[2, 4, 6, 7, 8, 9, 10, 11, 12, 14, 15, 16, 17, 21, 23, 24, 25, 26, 27, 29]",162.9908727,12353,3232,4,25,9,2.3191924394507706
basic,55,21,0,0,0,29,"[0, 20, 22, 18, 29]",5,16,"[2, 4, 6, 7, 8, 10, 12, 14, 15, 16, 17, 21, 23, 24, 25, 27]",134.3377751,13224,871,2,10,9,1.9554738681863184
basic,55,21,0,0,0,25,"[0, 20, 22, 18, 29, 25]",6,5,"[4, 14, 17, 21, 23]",89.11609892,14237,1013,2,5,9,3.5255206171255487
basic,55,21,0,0,0,21,"[0, 20, 22, 18, 29, 25, 21]",7,3,"[4, 14, 23]",39.78051339,16406,2169,1,2,9,2.8949037931733077
basic,55,21,0,0,0,14,"[0, 20, 22, 18, 29, 25, 21, 14]",8,1,[4],14.16801644,17716,1310,1,0,9,2.4954214602277003
basic,55,21,0,0,1,4,"[0, 20, 22, 18, 29, 25, 21, 14, 4]",9,0,[],0.025880812,19153,1437,1,0,9,2.345266159905017
basic,55,21,0,1,1,4,"[0, 20, 22, 18, 29, 25, 21, 14, 4]",9,0,[],0.025880812,21061,1908,1,0,9,2.345266159905017
basic,56,28,0,0,0,0,[0],1,27,"[1, 2, 3, 4, 5, 6, 7, 8, 9, 10, 11, 12, 13, 14, 15, 16, 17, 18, 19, 20, 22, 23, 25, 26, 27, 28, 29]",300,161,-1,2,96,9,0.0
basic,56,28,0,0,0,3,"[0, 3]",2,26,"[1, 2, 4, 5, 6, 7, 8, 9, 10, 11, 12, 13, 14, 15, 16, 17, 18, 19, 20, 22, 23, 25, 26, 27, 28, 29]",251.0817008,6972,6811,1,64,9,1.0
basic,56,28,0,0,0,5,"[0, 3, 5]",3,20,"[2, 4, 6, 7, 8, 9, 10, 11, 12, 13, 14, 15, 18, 19, 20, 23, 25, 26, 28, 29]",166.9865166,8273,1301,1,34,9,1.0203769473612083
basic,56,28,0,0,0,26,"[0, 3, 5, 26]",4,13,"[2, 4, 7, 8, 9, 12, 13, 14, 18, 19, 20, 25, 28]",134.2298379,9960,1687,1,28,9,1.0315203228799597
basic,56,28,0,0,0,19,"[0, 3, 5, 26, 19]",5,7,"[2, 7, 9, 12, 13, 14, 18]",93.22983789,11511,1551,1,17,9,1.1324645362297356
basic,56,28,0,0,0,7,"[0, 3, 5, 26, 19, 7]",6,5,"[2, 12, 13, 14, 18]",65.49898864,12459,948,1,6,9,1.1971194919020265
basic,56,28,0,0,0,12,"[0, 3, 5, 26, 19, 7, 12]",7,2,"[13, 18]",52.3460422,13021,562,1,1,9,1.2020762147848982
basic,56,28,0,0,0,13,"[0, 3, 5, 26, 19, 7, 12, 13]",8,1,[18],35.14139167,14386,1365,1,0,9,1.39005144078531
basic,56,28,0,0,1,18,"[0, 3, 5, 26, 19, 7, 12, 13, 18]",9,0,[],10.72828044,15538,1152,1,0,9,1.738787343626007
basic,56,28,0,1,1,18,"[0, 3, 5, 26, 19, 7, 12, 13, 18]",9,0,[],10.72828044,17530,1992,1,0,9,1.738787343626007
basic,57,29,0,0,0,0,[0],1,29,"[1, 2, 3, 4, 5, 6, 7, 8, 9, 10, 11, 12, 13, 14, 15, 16, 17, 18, 19, 20, 21, 22, 23, 24, 25, 26, 27, 28, 29]",300,164,-1,1,78,9,0.0
basic,57,29,0,0,0,6,"[0, 6]",2,28,"[1, 2, 3, 4, 5, 7, 8, 9, 10, 11, 12, 13, 14, 15, 16, 17, 18, 19, 20, 21, 22, 23, 24, 25, 26, 27, 28, 29]",228.4108947,2822,2658,1,25,9,1.0
basic,57,29,0,0,0,28,"[0, 6, 28]",3,24,"[1, 3, 4, 5, 7, 9, 10, 11, 12, 13, 14, 15, 16, 17, 18, 20, 21, 22, 23, 24, 25, 26, 27, 29]",187.1798384,4813,1991,1,22,9,1.162106788166845
basic,57,29,0,0,0,27,"[0, 6, 28, 27]",4,19,"[1, 3, 4, 5, 7, 9, 10, 11, 12, 13, 14, 15, 16, 21, 22, 23, 25, 26, 29]",166.6615539,5771,958,1,21,9,1.2307173895439045
basic,57,29,0,0,0,22,"[0, 6, 28, 27, 22]",5,13,"[1, 3, 4, 5, 7, 9, 12, 13, 14, 15, 21, 26, 29]",133.4200136,7204,1433,1,19,9,1.4241767805149903
basic,57,29,0,0,0,12,"[0, 6, 28, 27, 22, 12]",6,8,"[4, 5, 7, 9, 13, 14, 21, 26]",95.4726817,10222,3018,1,6,9,1.3248355326460857
basic,57,29,0,0,0,7,"[0, 6, 28, 27, 22, 12, 7]",7,4,"[4, 5, 9, 21]",81.87121119,12571,2349,1,3,9,1.3264091962339806
basic,57,29,0,0,0,9,"[0, 6, 28, 27, 22, 12, 7, 9]",8,1,[4],52.80232748,13540,969,1,0,9,1.309391257644539
basic,57,29,0,0,1,4,"[0, 6, 28, 27, 22, 12, 7, 9, 4]",9,0,[],11.76575843,14855,1315,1,0,9,1.6396807789841599
basic,57,29,0,1,1,4,"[0, 6, 28, 27, 22, 12, 7, 9, 4]",9,0,[],11.76575843,16396,1541,1,0,9,1.6396807789841599
basic,58,16,0,0,0,0,[0],1,29,"[1, 2, 3, 4, 5, 6, 7, 8, 9, 10, 11, 12, 13, 14, 15, 16, 17, 18, 19, 20, 21, 22, 23, 24, 25, 26, 27, 28, 29]",300,177,-1,13,161,9,0.0
basic,58,16,0,0,0,17,"[0, 17]",2,27,"[1, 2, 3, 4, 5, 7, 8, 9, 10, 11, 12, 13, 14, 15, 16, 18, 19, 20, 21, 22, 23, 24, 25, 26, 27, 28, 29]",241.3058776,11848,11671,2,58,9,1.0
basic,58,16,0,0,0,16,"[0, 17, 16]",3,26,"[1, 2, 3, 4, 5, 7, 8, 9, 10, 11, 12, 13, 14, 15, 18, 19, 20, 21, 22, 23, 24, 25, 26, 27, 28, 29]",212.9862731,13123,1275,2,52,9,1.0529535521792848
basic,58,16,0,0,0,8,"[0, 17, 16, 8]",4,19,"[2, 3, 4, 5, 9, 12, 13, 14, 15, 19, 20, 21, 22, 23, 25, 26, 27, 28, 29]",164.6127266,14756,1633,2,38,9,1.0915134501573105
basic,58,16,0,0,0,20,"[0, 17, 16, 8, 20]",5,10,"[3, 4, 5, 9, 12, 13, 15, 19, 21, 25]",106.8372993,16194,1438,1,15,9,1.067523143001942
basic,58,16,0,0,0,25,"[0, 17, 16, 8, 20, 25]",6,7,"[3, 4, 5, 9, 12, 13, 15]",94.18818869,16825,631,1,9,9,1.1170093326933646
basic,58,16,0,0,0,9,"[0, 17, 16, 8, 20, 25, 9]",7,5,"[3, 4, 5, 13, 15]",81.38194021,17806,981,1,4,9,1.1095076562662525
basic,58,16,0,0,0,15,"[0, 17, 16, 8, 20, 25, 9, 15]",8,1,[5],42.48463953,19187,1381,1,0,9,1.213831159678775
basic,58,16,0,0,1,5,"[0, 17, 16, 8, 20, 25, 9, 15, 5]",9,0,[],13.0567616,20572,1385,1,0,9,1.5171779607523481
basic,58,16,0,1,1,5,"[0, 17, 16, 8, 20, 25, 9, 15, 5]",9,0,[],13.0567616,22347,1775,1,0,9,1.5171779607523481
basic,59,44,0,0,0,0,[0],1,29,"[1, 2, 3, 4, 5, 6, 7, 8, 9, 10, 11, 12, 13, 14, 15, 16, 17, 18, 19, 20, 21, 22, 23, 24, 25, 26, 27, 28, 29]",300,145,-1,13,126,7,0.0
basic,59,44,0,0,0,8,"[0, 8]",2,17,"[1, 4, 5, 7, 9, 10, 11, 12, 13, 14, 15, 20, 21, 23, 24, 25, 27]",145.7923478,6388,6243,1,10,7,1.0
basic,59,44,0,0,0,20,"[0, 8, 20]",3,16,"[1, 4, 5, 7, 9, 10, 11, 12, 13, 14, 15, 21, 23, 24, 25, 27]",133.7093018,7410,1022,1,9,7,1.0890794433668698
basic,59,44,0,0,0,9,"[0, 8, 20, 9]",4,7,"[4, 7, 11, 12, 14, 23, 24]",76.43801756,8608,1198,1,6,7,1.40892325509949
basic,59,44,0,0,0,4,"[0, 8, 20, 9, 4]",5,4,"[7, 12, 23, 24]",56.74030196,9422,814,1,3,7,1.3849770570803555
basic,59,44,0,0,0,7,"[0, 8, 20, 9, 4, 7]",6,1,[23],25.72417712,12605,3183,1,0,7,1.3274380931474288
basic,59,44,0,0,1,23,"[0, 8, 20, 9, 4, 7, 23]",7,0,[],6.619203947,13670,1065,1,0,7,1.3395824779823196
basic,59,44,0,1,1,23,"[0, 8, 20, 9, 4, 7, 23]",7,0,[],6.619203947,15448,1778,1,0,7,1.3395824779823196
basic,60,2,0,0,0,0,[0],1,23,"[1, 2, 4, 5, 6, 7, 8, 9, 12, 13, 15, 16, 17, 18, 19, 20, 22, 23, 25, 26, 27, 28, 29]",300,159,-1,70,620,10,0.0
basic,60,2,0,0,0,19,"[0, 19]",2,22,"[1, 2, 4, 5, 6, 7, 8, 9, 12, 13, 15, 16, 17, 18, 20, 22, 23, 25, 26, 27, 28, 29]",210.306076,4334,4175,67,431,10,1.0
basic,60,2,0,0,0,12,"[0, 19, 12]",3,17,"[1, 4, 5, 6, 7, 13, 15, 16, 17, 18, 20, 22, 25, 26, 27, 28, 29]",174.2921898,5433,1099,66,298,10,1.1107635036313153
basic,60,2,0,0,0,5,"[0, 19, 12, 5]",4,11,"[1, 6, 7, 13, 15, 16, 18, 22, 25, 26, 29]",144.7625437,6735,1302,38,136,10,1.0968174771581647
basic,60,2,0,0,0,22,"[0, 19, 12, 5, 22]",5,8,"[1, 6, 7, 13, 15, 18, 26, 29]",131.9562952,7573,838,20,63,10,1.0889910507461968
basic,60,2,0,0,0,13,"[0, 19, 12, 5, 22, 13]",6,7,"[1, 6, 7, 15, 18, 26, 29]",117.0902265,8922,1349,19,20,10,1.236526217328057
basic,60,2,0,0,0,18,"[0, 19, 12, 5, 22, 13, 18]",7,4,"[7, 15, 26, 29]",81.91921567,9901,979,10,3,10,1.2128708213409936
basic,60,2,0,0,0,7,"[0, 19, 12, 5, 22, 13, 18, 7]",8,3,"[15, 26, 29]",71.62358553,12667,2766,5,0,10,1.2019811287894737
basic,60,2,0,0,0,15,"[0, 19, 12, 5, 22, 13, 18, 7, 15]",9,2,"[26, 29]",56.85876247,13737,1070,2,0,10,1.2907869828541363
basic,60,2,0,0,1,29,"[0, 19, 12, 5, 22, 13, 18, 7, 15, 29]",10,0,[],28.39826353,20969,7232,1,0,10,1.4795089334237532
basic,60,2,0,1,1,29,"[0, 19, 12, 5, 22, 13, 18, 7, 15, 29]",10,0,[],28.39826353,25278,4309,1,0,10,1.4795089334237532
basic,61,10,0,0,0,0,[0],1,29,"[1, 2, 3, 4, 5, 6, 7, 8, 9, 10, 11, 12, 13, 14, 15, 16, 17, 18, 19, 20, 21, 22, 23, 24, 25, 26, 27, 28, 29]",300,174,-1,1,100,9,0.0
basic,61,10,0,0,0,13,"[0, 13]",2,25,"[1, 2, 3, 4, 6, 7, 8, 9, 10, 11, 12, 14, 17, 18, 19, 20, 21, 22, 23, 24, 25, 26, 27, 28, 29]",249.4628849,3175,3001,1,79,9,1.0
basic,61,10,0,0,0,11,"[0, 13, 11]",3,20,"[1, 2, 3, 6, 7, 8, 9, 10, 12, 14, 18, 19, 20, 21, 22, 24, 26, 27, 28, 29]",206.4512586,3906,731,1,54,9,1.0313137484914219
basic,61,10,0,0,0,19,"[0, 13, 11, 19]",4,11,"[2, 6, 8, 9, 10, 14, 18, 20, 24, 26, 27]",170.0919407,5746,1840,1,22,9,1.0879446220132545
basic,61,10,0,0,0,26,"[0, 13, 11, 19, 26]",5,8,"[2, 6, 9, 10, 14, 18, 20, 27]",141.7723361,6496,750,10,10,8,1.1947240924037068
basic,61,10,0,0,0,20,"[0, 13, 11, 19, 26, 20]",6,7,"[2, 6, 9, 10, 14, 18, 27]",109.991839,7290,794,6,2,8,1.5698329566273737
basic,61,10,0,0,0,27,"[0, 13, 11, 19, 26, 20, 27]",7,2,"[6, 9]",64.73700499,11490,4200,2,0,8,1.5107679049823484
basic,61,10,0,0,1,6,"[0, 13, 11, 19, 26, 20, 27, 6]",8,0,[],4.828741785,12624,1134,1,0,8,1.3906319685732755
basic,61,10,0,1,1,6,"[0, 13, 11, 19, 26, 20, 27, 6]",8,0,[],4.828741785,14481,1857,1,0,8,1.3906319685732755
basic,62,17,0,0,0,0,[0],1,28,"[1, 2, 3, 4, 5, 6, 7, 8, 9, 10, 11, 12, 13, 14, 15, 16, 17, 18, 19, 20, 22, 23, 24, 25, 26, 27, 28, 29]",300,159,-1,2,73,8,0.0
basic,62,17,0,0,0,9,"[0, 9]",2,25,"[1, 2, 3, 5, 6, 7, 8, 10, 11, 12, 14, 15, 16, 17, 18, 19, 20, 22, 23, 24, 25, 26, 27, 28, 29]",210.5293344,6433,6274,1,34,8,1.0
basic,62,17,0,0,0,16,"[0, 9, 16]",3,21,"[1, 2, 3, 5, 7, 8, 10, 11, 12, 14, 17, 18, 19, 20, 22, 23, 25, 26, 27, 28, 29]",197.1876704,8157,1724,1,26,8,1.173103464220352
basic,62,17,0,0,0,2,"[0, 9, 16, 2]",4,18,"[1, 3, 5, 7, 8, 10, 11, 12, 14, 17, 18, 19, 23, 25, 26, 27, 28, 29]",181.0631549,8950,793,1,23,8,1.14825089247282
basic,62,17,0,0,0,17,"[0, 9, 16, 2, 17]",5,7,"[7, 8, 12, 14, 26, 27, 29]",142.7356191,10068,1118,4,5,7,1.4896040699768547
basic,62,17,0,0,0,8,"[0, 9, 16, 2, 17, 8]",6,3,"[7, 12, 27]",104.5256727,10875,807,3,0,7,1.4604726966175894
basic,62,17,0,0,1,7,"[0, 9, 16, 2, 17, 8, 7]",7,0,[],33.81499459,12404,1529,1,0,7,1.4474701869793896
basic,62,17,0,1,1,7,"[0, 9, 16, 2, 17, 8, 7]",7,0,[],33.81499459,15360,2956,1,0,7,1.4474701869793896
basic,63,19,0,0,0,0,[0],1,29,"[1, 2, 3, 4, 5, 6, 7, 8, 9, 10, 11, 12, 13, 14, 15, 16, 17, 18, 19, 20, 21, 22, 23, 24, 25, 26, 27, 28, 29]",300,165,-1,12,149,8,0.0
basic,63,19,0,0,0,29,"[0, 29]",2,28,"[1, 2, 3, 4, 5, 6, 7, 8, 9, 10, 11, 12, 13, 14, 15, 16, 17, 18, 19, 20, 21, 22, 23, 24, 25, 26, 27, 28]",265.0715016,17987,17822,12,120,8,1.0
basic,63,19,0,0,0,9,"[0, 29, 9]",3,17,"[1, 4, 5, 6, 7, 10, 11, 12, 13, 14, 19, 20, 21, 22, 24, 27, 28]",181.7108394,20271,2284,11,65,8,1.0375842971861238
basic,63,19,0,0,0,6,"[0, 29, 9, 6]",4,12,"[4, 7, 10, 11, 13, 14, 20, 21, 22, 24, 27, 28]",140.2741407,21421,1150,11,34,8,1.0389786364356892
basic,63,19,0,0,0,4,"[0, 29, 9, 6, 4]",5,7,"[10, 11, 14, 20, 22, 27, 28]",99.22538921,22508,1087,2,6,8,1.2182485830176533
basic,63,19,0,0,0,28,"[0, 29, 9, 6, 4, 28]",6,3,"[11, 14, 27]",88.04504932,23373,865,2,1,8,1.2933703503588658
basic,63,19,0,0,0,14,"[0, 29, 9, 6, 4, 28, 14]",7,1,[11],30.46032912,25355,1982,1,0,8,1.2889112786863766
basic,63,19,0,0,1,11,"[0, 29, 9, 6, 4, 28, 14, 11]",8,0,[],19.6436753,26670,1315,1,0,8,1.2786737377290265
basic,63,19,0,1,1,11,"[0, 29, 9, 6, 4, 28, 14, 11]",8,0,[],19.6436753,28911,2241,1,0,8,1.2786737377290265
basic,64,42,0,0,0,0,[0],1,29,"[1, 2, 3, 4, 5, 6, 7, 8, 9, 10, 11, 12, 13, 14, 15, 16, 17, 18, 19, 20, 21, 22, 23, 24, 25, 26, 27, 28, 29]",300,172,-1,16,302,9,0.0
basic,64,42,0,0,0,22,"[0, 22]",2,27,"[1, 2, 3, 4, 5, 6, 7, 8, 9, 10, 11, 12, 13, 15, 16, 17, 18, 19, 20, 21, 23, 24, 25, 26, 27, 28, 29]",211.3997743,6068,5896,5,83,9,1.0
basic,64,42,0,0,0,4,"[0, 22, 4]",3,26,"[1, 2, 3, 5, 6, 7, 8, 9, 10, 11, 12, 13, 15, 16, 17, 18, 19, 20, 21, 23, 24, 25, 26, 27, 28, 29]",200.2194344,6685,617,4,51,9,1.1029012260448476
basic,64,42,0,0,0,5,"[0, 22, 4, 5]",4,24,"[1, 2, 3, 6, 7, 8, 9, 10, 11, 12, 13, 15, 17, 18, 19, 20, 21, 23, 24, 25, 26, 27, 28, 29]",180.3700011,7557,872,3,22,9,1.1004909640339868
basic,64,42,0,0,0,8,"[0, 22, 4, 5, 8]",5,16,"[1, 2, 3, 6, 7, 11, 15, 18, 19, 23, 24, 25, 26, 27, 28, 29]",145.8881218,9334,1777,3,12,9,1.4333663223483832
basic,64,42,0,0,0,1,"[0, 22, 4, 5, 8, 1]",6,6,"[2, 7, 18, 19, 26, 27]",96.796371,10980,1646,3,7,9,1.3048950637395882
basic,64,42,0,0,0,7,"[0, 22, 4, 5, 8, 1, 7]",7,4,"[2, 19, 26, 27]",66.796371,12267,1287,3,2,9,1.3461774355793397
basic,64,42,0,0,0,26,"[0, 22, 4, 5, 8, 1, 7, 26]",8,2,"[19, 27]",40.22571049,14101,1834,2,0,9,1.3119913611616163
basic,64,42,0,0,1,27,"[0, 22, 4, 5, 8, 1, 7, 26, 27]",9,0,[],22.19795412,15034,933,1,0,9,1.3027999653776734
basic,64,42,0,1,1,27,"[0, 22, 4, 5, 8, 1, 7, 26, 27]",9,0,[],22.19795412,16442,1408,1,0,9,1.3027999653776734
basic,65,15,0,0,0,0,[0],1,25,"[1, 2, 3, 4, 7, 8, 9, 10, 11, 12, 13, 14, 15, 16, 18, 20, 21, 22, 23, 24, 25, 26, 27, 28, 29]",300,169,-1,4,65,9,0.0
basic,65,15,0,0,0,21,"[0, 21]",2,17,"[1, 3, 4, 7, 8, 9, 11, 12, 13, 14, 15, 16, 22, 23, 24, 26, 27]",204.9158268,12803,12634,21,65,7,1.0
basic,65,15,0,0,0,12,"[0, 21, 12]",3,14,"[1, 3, 4, 7, 8, 9, 11, 13, 14, 15, 16, 22, 24, 27]",161.0866128,14753,1950,20,39,7,1.6068212046294776
basic,65,15,0,0,0,7,"[0, 21, 12, 7]",4,10,"[3, 4, 9, 11, 13, 14, 15, 16, 22, 27]",127.8450725,15869,1116,13,11,7,2.0298522511797907
basic,65,15,0,0,0,11,"[0, 21, 12, 7, 11]",5,6,"[3, 4, 14, 15, 16, 22]",86.36013546,17606,1737,6,4,7,1.7205538639328775
basic,65,15,0,0,0,3,"[0, 21, 12, 7, 11, 3]",6,4,"[14, 15, 16, 22]",74.95838121,18586,980,4,0,7,1.6999894293819835
basic,65,15,0,0,1,22,"[0, 21, 12, 7, 11, 3, 22]",7,0,[],25.22911417,32313,13727,1,0,7,1.592640555022971
basic,65,15,0,1,1,22,"[0, 21, 12, 7, 11, 3, 22]",7,0,[],25.22911417,38928,6615,1,0,7,1.592640555022971
basic,66,36,0,0,0,0,[0],1,24,"[2, 4, 5, 6, 7, 8, 9, 10, 12, 13, 14, 15, 16, 17, 18, 19, 20, 22, 23, 25, 26, 27, 28, 29]",300,177,-1,2,200,10,0.0
basic,66,36,0,0,0,9,"[0, 9]",2,16,"[2, 4, 8, 10, 12, 13, 16, 17, 18, 19, 23, 25, 26, 27, 28, 29]",230.9348134,8402,8225,81,367,8,1.0
basic,66,36,0,0,0,16,"[0, 9, 16]",3,10,"[2, 10, 12, 13, 17, 18, 19, 23, 25, 27]",183.637879,11369,2967,16,49,8,1.090165866783516
basic,66,36,0,0,0,17,"[0, 9, 16, 17]",4,8,"[2, 10, 12, 13, 18, 19, 23, 25]",155.3182745,13273,1904,13,21,8,1.530787871385863
basic,66,36,0,0,0,19,"[0, 9, 16, 17, 19]",5,7,"[2, 10, 12, 13, 18, 23, 25]",127.4256232,14207,934,8,6,8,2.238961045332441
basic,66,36,0,0,0,2,"[0, 9, 16, 17, 19, 2]",6,3,"[10, 13, 25]",90.30420077,15315,1108,3,1,8,1.8568787688562653
basic,66,36,0,0,0,25,"[0, 9, 16, 17, 19, 2, 25]",7,2,"[10, 13]",65.30420077,16124,809,2,0,8,2.049920884177255
basic,66,36,0,0,1,13,"[0, 9, 16, 17, 19, 2, 25, 13]",8,0,[],44.71294049,17081,957,1,0,8,2.602802798289571
basic,66,36,0,1,1,13,"[0, 9, 16, 17, 19, 2, 25, 13]",8,0,[],44.71294049,18979,1898,1,0,8,2.602802798289571
basic,67,20,0,0,0,0,[0],1,21,"[1, 2, 3, 4, 5, 6, 7, 8, 9, 12, 17, 18, 20, 21, 22, 23, 25, 26, 27, 28, 29]",300,159,-1,1,9,9,0.0
basic,67,20,0,0,0,12,"[0, 12]",2,20,"[1, 2, 3, 4, 5, 6, 7, 8, 9, 17, 18, 20, 21, 22, 23, 25, 26, 27, 28, 29]",271.5570747,3742,3583,1,8,9,1.0
