condition,trial_id,map_id,undoIndicator,submit,checkEnd,currentChoice,chosen_all,n_city_all,n_within_reach,cities_reach,currentBudget,time_all,rt_all,n_opt_paths_all,n_subopt_paths_all,mas_all,tortuosity_all
undo,0,41,0,0,0,0,[0],1,29,"[1, 2, 3, 4, 5, 6, 7, 8, 9, 10, 11, 12, 13, 14, 15, 16, 17, 18, 19, 20, 21, 22, 23, 24, 25, 26, 27, 28, 29]",300,192,-1,1,143,10,0.0
undo,0,41,0,0,0,13,"[0, 13]",2,23,"[1, 2, 3, 5, 6, 7, 9, 10, 11, 12, 14, 15, 17, 18, 19, 20, 21, 22, 24, 25, 26, 27, 28]",258.2747079,6959,6767,1,55,10,1.0
undo,0,41,0,0,0,28,"[0, 13, 28]",3,22,"[1, 2, 3, 5, 6, 7, 9, 10, 11, 12, 14, 15, 17, 18, 19, 20, 21, 22, 24, 25, 26, 27]",223.7928286,8406,1447,1,39,10,1.895724242592676
undo,0,41,0,0,0,5,"[0, 13, 28, 5]",4,19,"[1, 2, 3, 6, 9, 10, 11, 12, 14, 15, 17, 18, 19, 20, 21, 22, 24, 25, 27]",210.1913581,9537,1131,1,34,10,2.861541269398273
undo,0,41,0,0,0,3,"[0, 13, 28, 5, 3]",5,16,"[1, 2, 6, 9, 10, 12, 14, 17, 18, 19, 20, 21, 22, 24, 25, 27]",175.3632086,11599,2062,1,22,10,3.1455488489005883
undo,0,41,0,0,0,21,"[0, 13, 28, 5, 3, 21]",6,14,"[1, 2, 6, 9, 10, 12, 14, 17, 18, 19, 20, 22, 25, 27]",143.2228912,13527,1928,13,11,9,3.207558429289677
undo,0,41,0,0,0,9,"[0, 13, 28, 5, 3, 21, 9]",7,6,"[1, 2, 10, 12, 14, 17]",93.85691102,14647,1120,7,4,9,2.5050148501792275
undo,0,41,0,0,0,2,"[0, 13, 28, 5, 3, 21, 9, 2]",8,5,"[1, 10, 12, 14, 17]",81.77386505,15519,872,5,0,9,2.4119643847713177
undo,0,41,0,0,1,17,"[0, 13, 28, 5, 3, 21, 9, 2, 17]",9,0,[],49.21622385,16463,944,1,0,9,3.9563478735796007
undo,0,41,1,0,0,2,"[0, 13, 28, 5, 3, 21, 9, 2]",8,5,"[1, 10, 12, 14, 17]",81.77386505,26451,9988,5,0,9,2.4119643847713177
undo,0,41,1,0,0,9,"[0, 13, 28, 5, 3, 21, 9]",7,6,"[1, 2, 10, 12, 14, 17]",93.85691102,27035,584,7,4,9,2.5050148501792275
undo,0,41,1,0,0,21,"[0, 13, 28, 5, 3, 21]",6,14,"[1, 2, 6, 9, 10, 12, 14, 17, 18, 19, 20, 22, 25, 27]",143.2228912,27436,401,13,11,9,3.207558429289677
undo,0,41,1,0,0,3,"[0, 13, 28, 5, 3]",5,16,"[1, 2, 6, 9, 10, 12, 14, 17, 18, 19, 20, 21, 22, 24, 25, 27]",175.3632086,27719,283,1,22,10,3.1455488489005883
undo,0,41,0,0,0,22,"[0, 13, 28, 5, 3, 22]",6,10,"[2, 6, 9, 10, 12, 17, 18, 20, 21, 25]",145.3965604,29680,1961,1,7,10,2.241807041008432
undo,0,41,0,0,0,21,"[0, 13, 28, 5, 3, 22, 21]",7,4,"[2, 9, 12, 17]",94.39656044,31177,1497,1,5,10,4.206513633906409
undo,0,41,0,0,0,9,"[0, 13, 28, 5, 3, 22, 21, 9]",8,2,"[2, 17]",45.03058025,32377,1200,1,1,10,3.098343902653451
undo,0,41,0,0,0,2,"[0, 13, 28, 5, 3, 22, 21, 9, 2]",9,1,[17],32.94753428,33097,720,1,0,10,2.9516218867624824
undo,0,41,0,0,1,17,"[0, 13, 28, 5, 3, 22, 21, 9, 2, 17]",10,0,[],0.389893085,34409,1312,1,0,10,4.726628762010198
undo,0,41,0,1,1,17,"[0, 13, 28, 5, 3, 22, 21, 9, 2, 17]",10,0,[],0.389893085,41583,7174,1,0,10,4.726628762010198
undo,1,18,0,0,0,0,[0],1,28,"[1, 2, 3, 4, 5, 6, 7, 8, 9, 10, 11, 12, 13, 14, 16, 17, 18, 19, 20, 21, 22, 23, 24, 25, 26, 27, 28, 29]",300,132,-1,3,136,10,0.0
undo,1,18,0,0,0,28,"[0, 28]",2,16,"[1, 3, 5, 7, 8, 9, 12, 13, 14, 16, 20, 23, 24, 25, 26, 27]",236.4311397,5074,4942,2,19,10,1.0
undo,1,18,0,0,0,7,"[0, 28, 7]",3,15,"[1, 3, 5, 8, 9, 12, 13, 14, 16, 20, 23, 24, 25, 26, 27]",214.4084242,6075,1001,2,17,10,1.4345180696367563
undo,1,18,0,0,0,25,"[0, 28, 7, 25]",4,13,"[1, 3, 5, 8, 9, 12, 13, 14, 16, 20, 23, 26, 27]",186.6055466,7113,1038,2,15,10,1.8896451241781882
undo,1,18,0,0,0,8,"[0, 28, 7, 25, 8]",5,10,"[3, 5, 9, 12, 13, 14, 16, 23, 26, 27]",149.551532,7768,655,2,10,10,1.590467437592877
undo,1,18,0,0,0,3,"[0, 28, 7, 25, 8, 3]",6,6,"[5, 12, 13, 14, 23, 27]",121.4801943,8643,875,1,10,9,1.4587755974793148
undo,1,18,0,0,0,13,"[0, 28, 7, 25, 8, 3, 13]",7,2,"[14, 23]",86.76708437,9506,863,2,0,8,2.2683069203086266
undo,1,18,0,0,1,14,"[0, 28, 7, 25, 8, 3, 13, 14]",8,0,[],67.79341841,10499,993,1,0,8,2.071210132194331
undo,1,18,1,0,0,13,"[0, 28, 7, 25, 8, 3, 13]",7,2,"[14, 23]",86.76708437,17283,6784,2,0,8,2.2683069203086266
undo,1,18,1,0,0,3,"[0, 28, 7, 25, 8, 3]",6,6,"[5, 12, 13, 14, 23, 27]",121.4801943,17633,350,1,10,9,1.4587755974793148
undo,1,18,0,0,0,5,"[0, 28, 7, 25, 8, 3, 5]",7,2,"[12, 27]",63.29944145,19866,2233,1,1,9,1.324334937860345
undo,1,18,0,0,0,12,"[0, 28, 7, 25, 8, 3, 5, 12]",8,1,[27],51.8976872,20882,1016,1,0,9,1.3371922112868397
undo,1,18,0,0,1,27,"[0, 28, 7, 25, 8, 3, 5, 12, 27]",9,0,[],11.17914106,25251,4369,1,0,9,1.4648883530615529
undo,1,18,0,1,1,27,"[0, 28, 7, 25, 8, 3, 5, 12, 27]",9,0,[],11.17914106,27693,2442,1,0,9,1.4648883530615529
undo,2,5,0,0,0,0,[0],1,29,"[1, 2, 3, 4, 5, 6, 7, 8, 9, 10, 11, 12, 13, 14, 15, 16, 17, 18, 19, 20, 21, 22, 23, 24, 25, 26, 27, 28, 29]",300,113,-1,5,139,9,0.0
undo,2,5,0,0,0,23,"[0, 23]",2,27,"[1, 2, 3, 4, 5, 6, 7, 8, 9, 10, 11, 12, 13, 14, 15, 16, 17, 18, 19, 20, 21, 22, 24, 25, 26, 27, 28]",249.8402552,2986,2873,3,75,9,1.0
undo,2,5,0,0,0,12,"[0, 23, 12]",3,20,"[2, 4, 5, 6, 8, 9, 10, 13, 14, 15, 16, 17, 18, 19, 21, 22, 24, 25, 26, 27]",206.6661889,10235,7249,12,56,8,1.3018394868431302
undo,2,5,0,0,0,25,"[0, 23, 12, 25]",4,18,"[2, 4, 5, 6, 8, 9, 10, 13, 14, 15, 17, 18, 19, 21, 22, 24, 26, 27]",178.8813009,11411,1176,12,34,8,1.9286025844958365
undo,2,5,0,0,0,24,"[0, 23, 12, 25, 24]",5,14,"[4, 5, 6, 8, 9, 13, 14, 15, 17, 18, 19, 22, 26, 27]",154.0418162,12354,943,9,16,8,2.0153742455218557
undo,2,5,0,0,0,8,"[0, 23, 12, 25, 24, 8]",6,4,"[6, 17, 19, 27]",97.4290968,23676,11322,4,0,7,2.2076032193896067
undo,2,5,0,0,1,19,"[0, 23, 12, 25, 24, 8, 19]",7,0,[],57.06822466,25467,1791,1,0,7,1.8847783802127933
undo,2,5,1,0,0,8,"[0, 23, 12, 25, 24, 8]",6,4,"[6, 17, 19, 27]",97.4290968,28258,2791,4,0,7,2.2076032193896067
undo,2,5,1,0,0,24,"[0, 23, 12, 25, 24]",5,14,"[4, 5, 6, 8, 9, 13, 14, 15, 17, 18, 19, 22, 26, 27]",154.0418162,31945,3687,9,16,8,2.0153742455218557
undo,2,5,0,0,0,17,"[0, 23, 12, 25, 24, 17]",6,7,"[4, 5, 6, 8, 15, 18, 19]",119.0561048,33516,1571,8,2,8,1.6946205255346762
undo,2,5,0,0,0,5,"[0, 23, 12, 25, 24, 17, 5]",7,4,"[4, 6, 15, 18]",76.00961835,34990,1474,4,0,8,1.498607098302
undo,2,5,0,0,1,15,"[0, 23, 12, 25, 24, 17, 5, 15]",8,0,[],35.98462616,36724,1734,1,0,8,1.4940703226391534
undo,2,5,1,0,0,5,"[0, 23, 12, 25, 24, 17, 5]",7,4,"[4, 6, 15, 18]",76.00961835,38451,1727,4,0,8,1.498607098302
undo,2,5,1,0,0,17,"[0, 23, 12, 25, 24, 17]",6,7,"[4, 5, 6, 8, 15, 18, 19]",119.0561048,38801,350,8,2,8,1.6946205255346762
undo,2,5,1,0,0,24,"[0, 23, 12, 25, 24]",5,14,"[4, 5, 6, 8, 9, 13, 14, 15, 17, 18, 19, 22, 26, 27]",154.0418162,45175,6374,9,16,8,2.0153742455218557
undo,2,5,1,0,0,25,"[0, 23, 12, 25]",4,18,"[2, 4, 5, 6, 8, 9, 10, 13, 14, 15, 17, 18, 19, 21, 22, 24, 26, 27]",178.8813009,48395,3220,12,34,8,1.9286025844958365
undo,2,5,0,0,0,24,"[0, 23, 12, 25, 24]",5,14,"[4, 5, 6, 8, 9, 13, 14, 15, 17, 18, 19, 22, 26, 27]",154.0418162,52751,4356,9,16,8,2.0153742455218557
undo,2,5,0,0,0,17,"[0, 23, 12, 25, 24, 17]",6,7,"[4, 5, 6, 8, 15, 18, 19]",119.0561048,55726,2975,8,2,8,1.6946205255346762
undo,2,5,0,0,0,6,"[0, 23, 12, 25, 24, 17, 6]",7,1,[4],40.16377316,58462,2736,1,0,8,1.5559055499401198
undo,2,5,0,0,1,4,"[0, 23, 12, 25, 24, 17, 6, 4]",8,0,[],28.12217858,59518,1056,1,0,8,1.551537077274891
undo,2,5,0,1,1,4,"[0, 23, 12, 25, 24, 17, 6, 4]",8,0,[],28.12217858,63360,3842,1,0,8,1.551537077274891
undo,3,30,0,0,0,0,[0],1,19,"[3, 4, 5, 7, 9, 11, 16, 17, 18, 19, 20, 21, 22, 24, 25, 26, 27, 28, 29]",300,114,-1,5,41,8,0.0
undo,3,30,0,0,0,16,"[0, 16]",2,17,"[3, 5, 7, 9, 11, 17, 18, 19, 20, 21, 22, 24, 25, 26, 27, 28, 29]",219.3774225,8228,8114,5,34,8,1.0
undo,3,30,0,0,0,25,"[0, 16, 25]",3,10,"[3, 5, 7, 9, 11, 18, 19, 20, 27, 29]",115.0845656,9836,1608,5,28,8,1.0336279544884488
undo,3,30,0,0,0,27,"[0, 16, 25, 27]",4,7,"[3, 5, 7, 18, 19, 20, 29]",75.52448473,11308,1472,1,12,8,1.0719738181137488
undo,3,30,0,0,0,3,"[0, 16, 25, 27, 3]",5,5,"[5, 7, 18, 20, 29]",56.41951155,12068,760,1,4,8,1.0683252001879187
undo,3,30,0,0,0,29,"[0, 16, 25, 27, 3, 29]",6,2,"[5, 18]",37.81843632,12652,584,1,1,8,1.0768958290478794
undo,3,30,0,0,0,18,"[0, 16, 25, 27, 3, 29, 18]",7,1,[5],18.5052284,13717,1065,1,0,8,1.1525061930327378
undo,3,30,0,0,1,5,"[0, 16, 25, 27, 3, 29, 18, 5]",8,0,[],5.466823591,15268,1551,1,0,8,1.2180155123152177
undo,3,30,0,1,1,5,"[0, 16, 25, 27, 3, 29, 18, 5]",8,0,[],5.466823591,20218,4950,1,0,8,1.2180155123152177
undo,4,9,0,0,0,0,[0],1,27,"[1, 3, 4, 5, 6, 7, 8, 9, 10, 11, 13, 14, 15, 16, 17, 18, 19, 20, 21, 22, 23, 24, 25, 26, 27, 28, 29]",300,98,-1,2,182,10,0.0
undo,4,9,0,0,0,25,"[0, 25]",2,24,"[1, 3, 4, 5, 6, 7, 8, 9, 10, 11, 13, 15, 16, 17, 18, 19, 20, 21, 22, 23, 24, 26, 27, 28]",275.9168108,7297,7199,2,104,10,1.0
undo,4,9,0,0,0,10,"[0, 25, 10]",3,20,"[3, 4, 5, 7, 8, 9, 11, 13, 15, 16, 17, 18, 19, 20, 21, 22, 23, 26, 27, 28]",236.0670932,8426,1129,2,76,10,1.1767014107208227
undo,4,9,0,0,0,26,"[0, 25, 10, 26]",4,15,"[3, 5, 8, 9, 13, 15, 16, 17, 18, 19, 20, 21, 22, 23, 28]",136.4277435,14316,5890,17,20,8,1.4001518480418
undo,4,9,0,0,0,28,"[0, 25, 10, 26, 28]",5,5,"[8, 9, 20, 21, 23]",91.65051714,15139,823,6,4,8,2.8050521178920884
undo,4,9,0,0,0,8,"[0, 25, 10, 26, 28, 8]",6,4,"[9, 20, 21, 23]",80.83386331,16018,879,3,1,8,3.4362359737882495
undo,4,9,0,0,0,23,"[0, 25, 10, 26, 28, 8, 23]",7,1,[9],59.36295276,17178,1160,1,0,8,4.041609690085353
undo,4,9,0,0,1,9,"[0, 25, 10, 26, 28, 8, 23, 9]",8,0,[],37.00227299,19188,2010,1,0,8,3.5318416179301755
undo,4,9,1,0,0,23,"[0, 25, 10, 26, 28, 8, 23]",7,1,[9],59.36295276,25541,6353,1,0,8,4.041609690085353
undo,4,9,1,0,0,8,"[0, 25, 10, 26, 28, 8]",6,4,"[9, 20, 21, 23]",80.83386331,25891,350,3,1,8,3.4362359737882495
undo,4,9,1,0,0,28,"[0, 25, 10, 26, 28]",5,5,"[8, 9, 20, 21, 23]",91.65051714,26125,234,6,4,8,2.8050521178920884
undo,4,9,1,0,0,26,"[0, 25, 10, 26]",4,15,"[3, 5, 8, 9, 13, 15, 16, 17, 18, 19, 20, 21, 22, 23, 28]",136.4277435,26291,166,17,20,8,1.4001518480418
undo,4,9,1,0,0,10,"[0, 25, 10]",3,20,"[3, 4, 5, 7, 8, 9, 11, 13, 15, 16, 17, 18, 19, 20, 21, 22, 23, 26, 27, 28]",236.0670932,26458,167,2,76,10,1.1767014107208227
undo,4,9,1,0,0,25,"[0, 25]",2,24,"[1, 3, 4, 5, 6, 7, 8, 9, 10, 11, 13, 15, 16, 17, 18, 19, 20, 21, 22, 23, 24, 26, 27, 28]",275.9168108,26608,150,2,104,10,1.0
undo,4,9,0,0,0,27,"[0, 25, 27]",3,16,"[3, 4, 7, 8, 9, 10, 11, 17, 18, 19, 20, 21, 22, 23, 26, 28]",240.0141647,28259,1651,9,144,9,1.119130927524002
undo,4,9,0,0,0,10,"[0, 25, 27, 10]",4,13,"[4, 7, 8, 9, 11, 17, 18, 20, 21, 22, 23, 26, 28]",174.2494325,29340,1081,8,67,9,2.3144711789671666
undo,4,9,0,0,0,8,"[0, 25, 27, 10, 8]",5,10,"[4, 7, 9, 18, 20, 21, 22, 23, 26, 28]",125.875886,30750,1410,4,24,9,2.7300364621434086
undo,4,9,0,0,0,28,"[0, 25, 27, 10, 8, 28]",6,8,"[7, 9, 18, 20, 21, 22, 23, 26]",115.0592322,31732,982,2,12,9,2.489895752467811
undo,4,9,0,0,0,23,"[0, 25, 27, 10, 8, 28, 23]",7,4,"[9, 20, 21, 26]",90.03924019,32596,864,1,3,9,3.5263873585493517
undo,4,9,0,0,0,9,"[0, 25, 27, 10, 8, 28, 23, 9]",8,1,[26],67.67856041,33588,992,1,0,9,3.1198844887743626
undo,4,9,0,0,1,26,"[0, 25, 27, 10, 8, 28, 23, 9, 26]",9,0,[],11.03052426,37749,4161,1,0,9,2.4735316009107637
undo,4,9,0,1,1,26,"[0, 25, 27, 10, 8, 28, 23, 9, 26]",9,0,[],11.03052426,39438,1689,1,0,9,2.4735316009107637
undo,5,17,0,0,0,0,[0],1,28,"[1, 2, 3, 4, 5, 6, 7, 8, 9, 10, 11, 12, 13, 14, 15, 16, 17, 18, 19, 20, 22, 23, 24, 25, 26, 27, 28, 29]",300,116,-1,2,73,8,0.0
undo,5,17,0,0,0,9,"[0, 9]",2,25,"[1, 2, 3, 5, 6, 7, 8, 10, 11, 12, 14, 15, 16, 17, 18, 19, 20, 22, 23, 24, 25, 26, 27, 28, 29]",210.5293344,14544,14428,1,34,8,1.0
undo,5,17,0,0,0,16,"[0, 9, 16]",3,21,"[1, 2, 3, 5, 7, 8, 10, 11, 12, 14, 17, 18, 19, 20, 22, 23, 25, 26, 27, 28, 29]",197.1876704,15648,1104,1,26,8,1.173103464220352
undo,5,17,0,0,0,17,"[0, 9, 16, 17]",4,9,"[2, 7, 8, 10, 12, 14, 26, 27, 29]",155.5103384,17160,1512,2,9,7,1.3686022655428802
undo,5,17,0,0,0,2,"[0, 9, 16, 17, 2]",5,4,"[7, 8, 10, 27]",117.1828026,18280,1120,1,3,7,1.764970391617776
undo,5,17,0,0,0,8,"[0, 9, 16, 17, 2, 8]",6,1,[7],82.06870286,19488,1208,1,0,7,1.6282583682866314
undo,5,17,1,0,0,2,"[0, 9, 16, 17, 2]",5,4,"[7, 8, 10, 27]",117.1828026,28978,9490,1,3,7,1.764970391617776
undo,5,17,1,0,0,17,"[0, 9, 16, 17]",4,9,"[2, 7, 8, 10, 12, 14, 26, 27, 29]",155.5103384,29211,233,2,9,7,1.3686022655428802
undo,5,17,1,0,0,16,"[0, 9, 16]",3,21,"[1, 2, 3, 5, 7, 8, 10, 11, 12, 14, 17, 18, 19, 20, 22, 23, 25, 26, 27, 28, 29]",197.1876704,29612,401,1,26,8,1.173103464220352
undo,5,17,0,0,0,2,"[0, 9, 16, 2]",4,18,"[1, 3, 5, 7, 8, 10, 11, 12, 14, 17, 18, 19, 23, 25, 26, 27, 28, 29]",181.0631549,31585,1973,1,23,8,1.14825089247282
undo,5,17,0,0,0,10,"[0, 9, 16, 2, 10]",5,4,"[3, 11, 23, 28]",71.04042993,32689,1104,3,2,7,1.2629477265421833
undo,5,17,0,0,0,3,"[0, 9, 16, 2, 10, 3]",6,2,"[11, 28]",44.41337602,34049,1360,2,0,7,1.349216507765288
undo,5,17,0,0,1,11,"[0, 9, 16, 2, 10, 3, 11]",7,0,[],18.24087136,43635,9586,1,0,7,1.389139472055928
undo,5,17,0,1,1,11,"[0, 9, 16, 2, 10, 3, 11]",7,0,[],18.24087136,45779,2144,1,0,7,1.389139472055928
undo,6,43,0,0,0,0,[0],1,23,"[1, 2, 3, 4, 5, 6, 7, 9, 10, 11, 12, 14, 15, 16, 17, 19, 20, 21, 22, 23, 25, 27, 29]",300,115,-1,16,556,12,0.0
undo,6,43,0,0,0,29,"[0, 29]",2,22,"[1, 2, 3, 4, 5, 6, 7, 9, 10, 11, 12, 14, 15, 16, 17, 19, 20, 21, 22, 23, 25, 27]",277.909278,4094,3979,16,520,12,1.0
undo,6,43,0,0,0,20,"[0, 29, 20]",3,20,"[1, 2, 3, 4, 6, 7, 9, 10, 11, 12, 14, 15, 16, 17, 19, 21, 22, 23, 25, 27]",254.4785289,5126,1032,15,422,12,1.082311746871282
undo,6,43,0,0,0,16,"[0, 29, 20, 16]",4,19,"[1, 2, 3, 4, 6, 7, 9, 10, 11, 12, 14, 15, 17, 19, 21, 22, 23, 25, 27]",231.8511119,5998,872,15,389,12,1.215201926898219
undo,6,43,0,0,0,15,"[0, 29, 20, 16, 15]",5,14,"[1, 2, 3, 4, 6, 7, 9, 11, 12, 14, 19, 22, 23, 25]",188.5267539,7150,1152,3,109,12,1.3482474915350444
undo,6,43,0,0,0,25,"[0, 29, 20, 16, 15, 25]",6,12,"[1, 3, 4, 6, 7, 9, 11, 12, 14, 19, 22, 23]",165.8551858,7903,753,2,43,12,1.691408721191545
undo,6,43,0,0,0,12,"[0, 29, 20, 16, 15, 25, 12]",7,11,"[1, 3, 4, 6, 7, 9, 11, 14, 19, 22, 23]",141.6684126,9111,1208,2,32,12,1.6015983641428178
undo,6,43,0,0,0,3,"[0, 29, 20, 16, 15, 25, 12, 3]",8,10,"[1, 4, 6, 7, 9, 11, 14, 19, 22, 23]",128.6684126,9911,800,2,24,12,1.5379830456120627
undo,6,43,0,0,0,22,"[0, 29, 20, 16, 15, 25, 12, 3, 22]",9,6,"[1, 6, 7, 11, 14, 19]",93.95530264,10944,1033,1,11,12,1.7275686117408873
undo,6,43,0,0,0,19,"[0, 29, 20, 16, 15, 25, 12, 3, 22, 19]",10,4,"[1, 6, 7, 11]",73.33977451,11729,785,1,3,12,1.6315360037595275
undo,6,43,0,0,0,1,"[0, 29, 20, 16, 15, 25, 12, 3, 22, 19, 1]",11,1,[7],45.1617689,12871,1142,1,0,12,1.7703076545303877
undo,6,43,0,0,1,7,"[0, 29, 20, 16, 15, 25, 12, 3, 22, 19, 1, 7]",12,0,[],6.951822553,18473,5602,1,0,12,1.6607094905815594
undo,6,43,0,1,1,7,"[0, 29, 20, 16, 15, 25, 12, 3, 22, 19, 1, 7]",12,0,[],6.951822553,25174,6701,1,0,12,1.6607094905815594
undo,7,32,0,0,0,0,[0],1,29,"[1, 2, 3, 4, 5, 6, 7, 8, 9, 10, 11, 12, 13, 14, 15, 16, 17, 18, 19, 20, 21, 22, 23, 24, 25, 26, 27, 28, 29]",300,115,-1,17,359,10,0.0
undo,7,32,0,0,0,19,"[0, 19]",2,28,"[1, 2, 3, 4, 5, 6, 7, 8, 9, 10, 11, 12, 13, 14, 15, 16, 17, 18, 20, 21, 22, 23, 24, 25, 26, 27, 28, 29]",283.5075775,2369,2254,16,294,10,1.0
undo,7,32,0,0,0,13,"[0, 19, 13]",3,24,"[2, 3, 4, 5, 6, 8, 9, 10, 11, 12, 14, 15, 16, 17, 18, 20, 21, 22, 23, 24, 25, 26, 27, 28]",260.3127505,3409,1040,14,227,10,1.0172874229878615
undo,7,32,0,0,0,15,"[0, 19, 13, 15]",4,18,"[2, 3, 5, 8, 9, 10, 11, 12, 16, 17, 20, 22, 23, 24, 25, 26, 27, 28]",177.4393531,4705,1296,9,116,10,1.435447391509833
undo,7,32,0,0,0,28,"[0, 19, 13, 15, 28]",5,17,"[2, 3, 5, 8, 9, 10, 11, 12, 16, 17, 20, 22, 23, 24, 25, 26, 27]",166.0375988,5792,1087,9,70,10,1.3843701324937985
undo,7,32,0,0,0,12,"[0, 19, 13, 15, 28, 12]",6,14,"[2, 3, 5, 8, 9, 10, 11, 16, 17, 20, 22, 24, 26, 27]",147.0639329,6752,960,6,35,10,1.358372254952329
undo,7,32,0,0,0,16,"[0, 19, 13, 15, 28, 12, 16]",7,13,"[2, 3, 5, 8, 9, 10, 11, 17, 20, 22, 24, 26, 27]",131.411457,7728,976,5,15,10,1.4356932930709845
undo,7,32,0,0,0,22,"[0, 19, 13, 15, 28, 12, 16, 22]",8,6,"[2, 8, 9, 17, 20, 27]",97.57360838,8827,1099,3,5,10,1.4335226411545752
undo,7,32,0,0,0,9,"[0, 19, 13, 15, 28, 12, 16, 22, 9]",9,3,"[2, 8, 20]",75.37000507,10072,1245,3,0,10,1.4837166378374758
undo,7,32,0,0,1,2,"[0, 19, 13, 15, 28, 12, 16, 22, 9, 2]",10,0,[],24.28184597,20802,10730,1,0,10,1.9009621017233784
undo,7,32,0,1,1,2,"[0, 19, 13, 15, 28, 12, 16, 22, 9, 2]",10,0,[],24.28184597,27125,6323,1,0,10,1.9009621017233784
undo,8,8,0,0,0,0,[0],1,29,"[1, 2, 3, 4, 5, 6, 7, 8, 9, 10, 11, 12, 13, 14, 15, 16, 17, 18, 19, 20, 21, 22, 23, 24, 25, 26, 27, 28, 29]",300,115,-1,10,149,9,0.0
undo,8,8,0,0,0,5,"[0, 5]",2,28,"[1, 2, 3, 4, 6, 7, 8, 9, 10, 11, 12, 13, 14, 15, 16, 17, 18, 19, 20, 21, 22, 23, 24, 25, 26, 27, 28, 29]",254.5137383,2626,2511,10,100,9,1.0
undo,8,8,0,0,0,25,"[0, 5, 25]",3,20,"[1, 2, 3, 4, 6, 11, 12, 14, 15, 16, 17, 18, 19, 20, 21, 22, 23, 24, 28, 29]",215.3091468,5668,3042,4,42,9,1.2272747879909065
undo,8,8,0,0,0,14,"[0, 5, 25, 14]",4,16,"[1, 3, 4, 6, 11, 15, 16, 17, 18, 19, 20, 21, 22, 23, 24, 28]",170.2092576,6963,1295,1,13,9,1.5190857385933465
undo,8,8,0,0,0,17,"[0, 5, 25, 14, 17]",5,9,"[1, 4, 11, 15, 16, 18, 23, 24, 28]",133.1957466,10931,3968,1,9,9,1.5271682935559303
undo,8,8,0,0,0,11,"[0, 5, 25, 14, 17, 11]",6,5,"[15, 16, 18, 24, 28]",108.01639,11692,761,1,6,9,1.4664212485560129
undo,8,8,0,0,0,24,"[0, 5, 25, 14, 17, 11, 24]",7,2,"[15, 16]",70.80080183,12707,1015,1,1,9,1.3920548417170795
undo,8,8,0,0,0,15,"[0, 5, 25, 14, 17, 11, 24, 15]",8,1,[16],54.03774722,13571,864,1,0,9,1.4585932832823736
undo,8,8,0,0,1,16,"[0, 5, 25, 14, 17, 11, 24, 15, 16]",9,0,[],2.959376062,16087,2516,1,0,9,1.6043130175078746
undo,8,8,0,1,1,16,"[0, 5, 25, 14, 17, 11, 24, 15, 16]",9,0,[],2.959376062,26675,10588,1,0,9,1.6043130175078746
undo,9,14,0,0,0,0,[0],1,29,"[1, 2, 3, 4, 5, 6, 7, 8, 9, 10, 11, 12, 13, 14, 15, 16, 17, 18, 19, 20, 21, 22, 23, 24, 25, 26, 27, 28, 29]",300,116,-1,8,157,10,0.0
undo,9,14,0,0,0,15,"[0, 15]",2,20,"[1, 2, 3, 4, 7, 8, 9, 13, 17, 18, 19, 20, 21, 22, 23, 25, 26, 27, 28, 29]",216.7053423,4368,4252,8,102,10,1.0
undo,9,14,0,0,0,28,"[0, 15, 28]",3,17,"[1, 2, 3, 4, 7, 8, 9, 13, 17, 18, 19, 20, 22, 23, 25, 26, 27]",197.4959696,5720,1352,8,48,10,1.0446007867311968
undo,9,14,0,0,0,17,"[0, 15, 28, 17]",4,14,"[1, 2, 3, 4, 7, 8, 13, 18, 19, 20, 22, 23, 25, 26]",184.0423455,7393,1673,8,39,10,1.0729463354689972
undo,9,14,0,0,0,18,"[0, 15, 28, 17, 18]",5,9,"[1, 2, 4, 7, 8, 19, 23, 25, 26]",119.412631,8577,1184,8,27,10,1.5035901079219378
undo,9,14,0,0,0,8,"[0, 15, 28, 17, 18, 8]",6,8,"[1, 2, 4, 7, 19, 23, 25, 26]",105.8111605,9449,872,8,18,10,1.4819689987843856
undo,9,14,0,0,0,19,"[0, 15, 28, 17, 18, 8, 19]",7,5,"[1, 7, 23, 25, 26]",85.19563238,10336,887,4,9,10,1.4526746797093781
undo,9,14,0,0,0,1,"[0, 15, 28, 17, 18, 8, 19, 1]",8,4,"[7, 23, 25, 26]",69.96408617,10881,545,3,1,10,1.4876985459270997
undo,9,14,0,0,0,25,"[0, 15, 28, 17, 18, 8, 19, 1, 25]",9,1,[7],21.95367064,12225,1344,1,0,10,1.6986918331790049
undo,9,14,0,0,1,7,"[0, 15, 28, 17, 18, 8, 19, 1, 25, 7]",10,0,[],2.255955032,13368,1143,1,0,10,1.7048774420055028
undo,9,14,0,1,1,7,"[0, 15, 28, 17, 18, 8, 19, 1, 25, 7]",10,0,[],2.255955032,16182,2814,1,0,10,1.7048774420055028
undo,10,16,0,0,0,0,[0],1,29,"[1, 2, 3, 4, 5, 6, 7, 8, 9, 10, 11, 12, 13, 14, 15, 16, 17, 18, 19, 20, 21, 22, 23, 24, 25, 26, 27, 28, 29]",300,116,-1,13,161,9,0.0
undo,10,16,0,0,0,28,"[0, 28]",2,27,"[1, 2, 3, 4, 5, 7, 8, 9, 10, 11, 12, 13, 14, 15, 16, 17, 18, 19, 20, 21, 22, 23, 24, 25, 26, 27, 29]",284.3475242,8571,8455,11,92,9,1.0
undo,10,16,0,0,0,17,"[0, 28, 17]",3,26,"[1, 2, 3, 4, 5, 7, 8, 9, 10, 11, 12, 13, 14, 15, 16, 18, 19, 20, 21, 22, 23, 24, 25, 26, 27, 29]",219.1555001,9787,1216,10,46,9,1.3773866384707543
undo,10,16,0,0,0,16,"[0, 28, 17, 16]",4,25,"[1, 2, 3, 4, 5, 7, 8, 9, 10, 11, 12, 13, 14, 15, 18, 19, 20, 21, 22, 23, 24, 25, 26, 27, 29]",190.8358956,10682,895,10,34,9,1.3209953830681203
undo,10,16,0,0,0,21,"[0, 28, 17, 16, 21]",5,13,"[3, 5, 7, 8, 9, 10, 12, 15, 20, 22, 25, 26, 29]",146.1816685,11660,978,4,7,9,1.8136482702070456
undo,10,16,0,0,0,8,"[0, 28, 17, 16, 21, 8]",6,6,"[5, 9, 12, 15, 20, 25]",96.92722704,12691,1031,4,2,9,1.637204572335983
undo,10,16,0,0,0,20,"[0, 28, 17, 16, 21, 8, 20]",7,2,"[9, 25]",39.15179974,13854,1163,2,0,9,1.441590377328759
undo,10,16,0,0,0,25,"[0, 28, 17, 16, 21, 8, 20, 25]",8,1,[9],26.5026891,14507,653,1,0,9,1.484361110265371
undo,10,16,0,0,1,9,"[0, 28, 17, 16, 21, 8, 20, 25, 9]",9,0,[],13.69644062,15532,1025,1,0,9,1.4530180692918209
undo,10,16,0,1,1,9,"[0, 28, 17, 16, 21, 8, 20, 25, 9]",9,0,[],13.69644062,17284,1752,1,0,9,1.4530180692918209
undo,11,38,0,0,0,0,[0],1,29,"[1, 2, 3, 4, 5, 6, 7, 8, 9, 10, 11, 12, 13, 14, 15, 16, 17, 18, 19, 20, 21, 22, 23, 24, 25, 26, 27, 28, 29]",300,115,-1,33,506,9,0.0
undo,11,38,0,0,0,19,"[0, 19]",2,23,"[3, 4, 5, 6, 7, 8, 9, 11, 13, 14, 15, 16, 17, 18, 20, 22, 23, 24, 25, 26, 27, 28, 29]",219.5015528,4056,3941,6,61,9,1.0
undo,11,38,0,0,0,17,"[0, 19, 17]",3,21,"[3, 4, 5, 6, 7, 9, 11, 13, 14, 15, 16, 18, 20, 22, 23, 24, 25, 26, 27, 28, 29]",198.1239945,4814,758,6,53,9,1.571793785769489
undo,11,38,0,0,0,20,"[0, 19, 17, 20]",4,17,"[3, 4, 5, 6, 7, 11, 13, 14, 15, 16, 18, 22, 24, 25, 26, 27, 28]",174.3542658,5630,816,6,44,9,2.333182710277297
undo,11,38,0,0,0,13,"[0, 19, 17, 20, 13]",5,9,"[4, 11, 15, 16, 18, 24, 26, 27, 28]",125.0998244,8232,2602,1,11,9,1.7893595974504246
undo,11,38,0,0,0,26,"[0, 19, 17, 20, 13, 26]",6,4,"[4, 15, 16, 24]",94.05147502,10758,2526,2,2,8,1.6358521629854983
undo,11,38,0,0,0,4,"[0, 19, 17, 20, 13, 26, 4]",7,1,[15],37.96226037,11959,1201,1,0,8,3.7372995397692232
undo,11,38,0,0,1,15,"[0, 19, 17, 20, 13, 26, 4, 15]",8,0,[],11.96226037,12855,896,1,0,8,3.9255170548208533
undo,11,38,1,0,0,4,"[0, 19, 17, 20, 13, 26, 4]",7,1,[15],37.96226037,16698,3843,1,0,8,3.7372995397692232
undo,11,38,1,0,0,26,"[0, 19, 17, 20, 13, 26]",6,4,"[4, 15, 16, 24]",94.05147502,17183,485,2,2,8,1.6358521629854983
undo,11,38,1,0,0,13,"[0, 19, 17, 20, 13]",5,9,"[4, 11, 15, 16, 18, 24, 26, 27, 28]",125.0998244,17616,433,1,11,9,1.7893595974504246
undo,11,38,0,0,0,4,"[0, 19, 17, 20, 13, 4]",6,6,"[11, 15, 16, 24, 26, 28]",93.69918748,18936,1320,1,6,9,2.942354535547757
undo,11,38,0,0,0,15,"[0, 19, 17, 20, 13, 4, 15]",7,4,"[11, 16, 26, 28]",67.69918748,19711,775,1,3,9,3.165907365359093
undo,11,38,0,0,0,11,"[0, 19, 17, 20, 13, 4, 15, 11]",8,1,[28],31.29863803,20599,888,1,0,9,3.362710012119994
undo,11,38,0,0,1,28,"[0, 19, 17, 20, 13, 4, 15, 11, 28]",9,0,[],4.280125857,21880,1281,1,0,9,2.7690631991189285
undo,11,38,0,1,1,28,"[0, 19, 17, 20, 13, 4, 15, 11, 28]",9,0,[],4.280125857,23038,1158,1,0,9,2.7690631991189285
undo,12,23,0,0,0,0,[0],1,28,"[1, 2, 3, 4, 5, 6, 7, 8, 9, 10, 11, 12, 13, 14, 15, 16, 17, 18, 19, 20, 21, 22, 23, 25, 26, 27, 28, 29]",300,115,-1,76,2626,10,0.0
undo,12,23,0,0,0,13,"[0, 13]",2,19,"[1, 2, 3, 5, 6, 7, 8, 9, 10, 12, 14, 17, 18, 19, 21, 22, 23, 27, 29]",189.3202819,1999,1884,9,168,10,1.0
undo,12,23,0,0,0,12,"[0, 13, 12]",3,16,"[1, 2, 3, 6, 7, 8, 9, 10, 14, 17, 18, 21, 22, 23, 27, 29]",177.2372359,2743,744,9,96,10,1.0014195490503164
undo,12,23,0,0,0,2,"[0, 13, 12, 2]",4,12,"[1, 3, 6, 7, 9, 10, 14, 18, 21, 22, 27, 29]",163.3447919,3590,847,4,30,10,1.0014394317924602
undo,12,23,0,0,0,6,"[0, 13, 12, 2, 6]",5,8,"[7, 9, 10, 14, 18, 22, 27, 29]",144.905703,4312,722,2,11,10,1.0322887343644427
undo,12,23,0,0,0,14,"[0, 13, 12, 2, 6, 14]",6,7,"[7, 9, 10, 18, 22, 27, 29]",116.0439636,5103,791,1,4,10,1.305671089460822
undo,12,23,0,0,0,9,"[0, 13, 12, 2, 6, 14, 9]",7,6,"[7, 10, 18, 22, 27, 29]",105.6036571,6090,987,1,3,10,1.4879353140485658
undo,12,23,1,0,0,14,"[0, 13, 12, 2, 6, 14]",6,7,"[7, 9, 10, 18, 22, 27, 29]",116.0439636,11793,5703,1,4,10,1.305671089460822
undo,12,23,1,0,0,6,"[0, 13, 12, 2, 6]",5,8,"[7, 9, 10, 14, 18, 22, 27, 29]",144.905703,12110,317,2,11,10,1.0322887343644427
undo,12,23,1,0,0,2,"[0, 13, 12, 2]",4,12,"[1, 3, 6, 7, 9, 10, 14, 18, 21, 22, 27, 29]",163.3447919,13144,1034,4,30,10,1.0014394317924602
undo,12,23,0,0,0,27,"[0, 13, 12, 2, 27]",5,7,"[6, 7, 9, 14, 18, 22, 29]",124.7572292,13775,631,3,13,9,1.2239486024132442
undo,12,23,0,0,0,6,"[0, 13, 12, 2, 27, 6]",6,4,"[9, 14, 22, 29]",96.45528577,14961,1186,3,4,9,1.3547688051937776
undo,12,23,0,0,0,14,"[0, 13, 12, 2, 27, 6, 14]",7,3,"[9, 22, 29]",67.59354639,16040,1079,2,2,9,1.6495592828651242
undo,12,23,0,0,0,9,"[0, 13, 12, 2, 27, 6, 14, 9]",8,2,"[22, 29]",57.15323988,16664,624,2,0,9,1.8587812141646465
undo,12,23,0,0,1,29,"[0, 13, 12, 2, 27, 6, 14, 9, 29]",9,0,[],5.529601887,18208,1544,1,0,9,1.9095705945430979
undo,12,23,0,1,1,29,"[0, 13, 12, 2, 27, 6, 14, 9, 29]",9,0,[],5.529601887,19551,1343,1,0,9,1.9095705945430979
undo,13,42,0,0,0,0,[0],1,29,"[1, 2, 3, 4, 5, 6, 7, 8, 9, 10, 11, 12, 13, 14, 15, 16, 17, 18, 19, 20, 21, 22, 23, 24, 25, 26, 27, 28, 29]",300,115,-1,16,302,9,0.0
undo,13,42,0,0,0,3,"[0, 3]",2,25,"[1, 2, 4, 5, 6, 7, 8, 9, 10, 11, 13, 15, 17, 18, 19, 20, 21, 22, 23, 24, 25, 26, 27, 28, 29]",255.7959278,3783,3668,3,45,9,1.0
undo,13,42,0,0,0,23,"[0, 3, 23]",3,15,"[1, 2, 4, 5, 6, 7, 8, 9, 11, 15, 17, 22, 24, 25, 29]",202.4573864,5800,2017,1,24,8,1.2042297975308642
undo,13,42,0,0,0,17,"[0, 3, 23, 17]",4,11,"[4, 5, 6, 8, 9, 11, 15, 22, 24, 25, 29]",191.2770465,6640,840,1,14,8,1.192958341617778
undo,13,42,0,0,0,11,"[0, 3, 23, 17, 11]",5,7,"[4, 6, 8, 15, 22, 24, 25]",140.0813435,7793,1153,1,7,8,1.7422648616902974
undo,13,42,0,0,0,24,"[0, 3, 23, 17, 11, 24]",6,2,"[6, 15]",82.0727235,8961,1168,1,1,8,1.6631309430247303
undo,13,42,0,0,0,15,"[0, 3, 23, 17, 11, 24, 15]",7,1,[6],68.47125299,10104,1143,1,0,8,1.6008668931493675
undo,13,42,0,0,1,6,"[0, 3, 23, 17, 11, 24, 15, 6]",8,0,[],19.07489685,11640,1536,1,0,8,1.4594939660868298
undo,13,42,1,0,0,15,"[0, 3, 23, 17, 11, 24, 15]",7,1,[6],68.47125299,16665,5025,1,0,8,1.6008668931493675
undo,13,42,1,0,0,24,"[0, 3, 23, 17, 11, 24]",6,2,"[6, 15]",82.0727235,16899,234,1,1,8,1.6631309430247303
undo,13,42,1,0,0,11,"[0, 3, 23, 17, 11]",5,7,"[4, 6, 8, 15, 22, 24, 25]",140.0813435,17016,117,1,7,8,1.7422648616902974
undo,13,42,1,0,0,17,"[0, 3, 23, 17]",4,11,"[4, 5, 6, 8, 9, 11, 15, 22, 24, 25, 29]",191.2770465,17183,167,1,14,8,1.192958341617778
undo,13,42,1,0,0,23,"[0, 3, 23]",3,15,"[1, 2, 4, 5, 6, 7, 8, 9, 11, 15, 17, 22, 24, 25, 29]",202.4573864,17350,167,1,24,8,1.2042297975308642
undo,13,42,1,0,0,3,"[0, 3]",2,25,"[1, 2, 4, 5, 6, 7, 8, 9, 10, 11, 13, 15, 17, 18, 19, 20, 21, 22, 23, 24, 25, 26, 27, 28, 29]",255.7959278,17783,433,3,45,9,1.0
undo,13,42,0,0,0,22,"[0, 3, 22]",3,24,"[1, 2, 4, 5, 6, 7, 8, 9, 10, 11, 13, 15, 17, 18, 19, 20, 21, 23, 24, 25, 26, 27, 28, 29]",172.3453436,20849,3066,2,25,9,1.4407938054716964
undo,13,42,0,0,0,4,"[0, 3, 22, 4]",4,20,"[1, 2, 5, 7, 8, 9, 11, 13, 15, 17, 18, 19, 20, 21, 23, 24, 25, 26, 27, 29]",161.1650037,21497,648,2,16,9,1.534580273387445
undo,13,42,0,0,0,5,"[0, 3, 22, 4, 5]",5,14,"[1, 2, 7, 8, 11, 15, 18, 20, 21, 24, 25, 26, 27, 29]",141.3155705,22145,648,1,7,9,1.4597574387977212
undo,13,42,0,0,0,8,"[0, 3, 22, 4, 5, 8]",6,5,"[1, 2, 7, 24, 26]",106.8336912,23442,1297,1,3,9,1.7966044206336076
undo,13,42,0,0,0,1,"[0, 3, 22, 4, 5, 8, 1]",7,2,"[7, 26]",57.74194035,24769,1327,1,1,9,1.5556875029452142
undo,13,42,0,0,0,7,"[0, 3, 22, 4, 5, 8, 1, 7]",8,1,[26],27.74194035,26090,1321,1,0,9,1.5716207253166026
undo,13,42,0,0,1,26,"[0, 3, 22, 4, 5, 8, 1, 7, 26]",9,0,[],1.171279836,27228,1138,1,0,9,1.5092359604242425
undo,13,42,0,1,1,26,"[0, 3, 22, 4, 5, 8, 1, 7, 26]",9,0,[],1.171279836,28944,1716,1,0,9,1.5092359604242425
undo,14,31,0,0,0,0,[0],1,27,"[1, 3, 4, 5, 6, 7, 8, 10, 11, 12, 13, 14, 15, 16, 17, 18, 19, 20, 21, 22, 23, 24, 25, 26, 27, 28, 29]",300,114,-1,2,87,10,0.0
undo,14,31,0,0,0,14,"[0, 14]",2,25,"[1, 3, 5, 6, 7, 8, 10, 11, 12, 13, 15, 16, 17, 18, 19, 20, 21, 22, 23, 24, 25, 26, 27, 28, 29]",263.861378,2630,2516,2,59,10,1.0
undo,14,31,0,0,0,27,"[0, 14, 27]",3,22,"[1, 3, 5, 6, 7, 8, 10, 11, 12, 13, 15, 16, 17, 18, 19, 20, 21, 22, 24, 25, 28, 29]",235.6833724,3374,744,1,39,10,1.5881859159302467
undo,14,31,0,0,0,8,"[0, 14, 27, 8]",4,20,"[1, 3, 5, 6, 7, 10, 11, 12, 13, 16, 17, 18, 19, 20, 21, 22, 24, 25, 28, 29]",224.6380114,4214,840,1,36,10,2.1665048452331277
undo,14,31,0,0,0,18,"[0, 14, 27, 8, 18]",5,15,"[1, 5, 6, 7, 11, 12, 13, 16, 17, 19, 20, 22, 25, 28, 29]",188.7911147,7847,3633,1,26,10,1.7273375741920205
undo,14,31,0,0,0,17,"[0, 14, 27, 8, 18, 17]",6,13,"[1, 5, 6, 7, 11, 12, 13, 16, 19, 20, 22, 25, 28]",159.584951,8799,952,1,13,10,1.551192427769927
undo,14,31,0,0,0,11,"[0, 14, 27, 8, 18, 17, 11]",7,7,"[5, 12, 16, 19, 22, 25, 28]",118.4753414,9518,719,1,4,10,2.9650760544203494
undo,14,31,0,0,0,5,"[0, 14, 27, 8, 18, 17, 11, 5]",8,2,"[16, 28]",74.79468207,10495,977,1,1,10,2.56711965625205
undo,14,31,0,0,0,28,"[0, 14, 27, 8, 18, 17, 11, 5, 28]",9,1,[16],54.57093365,11166,671,1,0,10,2.2865510762058148
undo,14,31,0,0,1,16,"[0, 14, 27, 8, 18, 17, 11, 5, 28, 16]",10,0,[],20.95546102,12207,1041,1,0,10,2.089356850786318
undo,14,31,0,1,1,16,"[0, 14, 27, 8, 18, 17, 11, 5, 28, 16]",10,0,[],20.95546102,13494,1287,1,0,10,2.089356850786318
undo,15,1,0,0,0,0,[0],1,26,"[1, 2, 4, 5, 7, 8, 9, 10, 11, 12, 13, 14, 15, 16, 17, 18, 19, 20, 21, 22, 23, 24, 25, 26, 28, 29]",300,115,-1,6,74,7,0.0
undo,15,1,0,0,0,8,"[0, 8]",2,23,"[1, 4, 5, 7, 9, 10, 11, 12, 13, 14, 15, 16, 17, 18, 19, 20, 21, 23, 24, 25, 26, 28, 29]",202,4591,4476,1,16,7,1.0
undo,15,1,0,0,0,20,"[0, 8, 20]",3,12,"[1, 4, 5, 11, 13, 14, 15, 17, 18, 19, 28, 29]",125.9408125,5399,808,1,7,7,1.02364736730791
undo,15,1,0,0,0,5,"[0, 8, 20, 5]",4,7,"[1, 4, 11, 13, 17, 18, 29]",104.469902,6047,648,1,3,7,1.0439599203945713
undo,15,1,0,0,0,18,"[0, 8, 20, 5, 18]",5,2,"[4, 29]",81.64447755,6809,762,1,1,7,1.0840407791793756
undo,15,1,0,0,0,4,"[0, 8, 20, 5, 18, 4]",6,1,[29],42.69579336,7882,1073,1,0,7,1.0902329133216275
undo,15,1,1,0,0,18,"[0, 8, 20, 5, 18]",5,2,"[4, 29]",81.64447755,12294,4412,1,1,7,1.0840407791793756
undo,15,1,1,0,0,5,"[0, 8, 20, 5]",4,7,"[1, 4, 11, 13, 17, 18, 29]",104.469902,12578,284,1,3,7,1.0439599203945713
undo,15,1,1,0,0,20,"[0, 8, 20]",3,12,"[1, 4, 5, 11, 13, 14, 15, 17, 18, 19, 28, 29]",125.9408125,13729,1151,1,7,7,1.02364736730791
undo,15,1,1,0,0,8,"[0, 8]",2,23,"[1, 4, 5, 7, 9, 10, 11, 12, 13, 14, 15, 16, 17, 18, 19, 20, 21, 23, 24, 25, 26, 28, 29]",202,14947,1218,1,16,7,1.0
undo,15,1,0,0,0,14,"[0, 8, 14]",3,12,"[1, 5, 9, 15, 17, 18, 19, 20, 25, 26, 28, 29]",138.1094686,15769,822,2,11,6,1.6219900283216735
undo,15,1,0,0,0,17,"[0, 8, 14, 17]",4,6,"[1, 15, 18, 20, 28, 29]",85.75490817,16834,1065,1,5,6,1.4120458181998161
undo,15,1,1,0,0,14,"[0, 8, 14]",3,12,"[1, 5, 9, 15, 17, 18, 19, 20, 25, 26, 28, 29]",138.1094686,19234,2400,2,11,6,1.6219900283216735
undo,15,1,1,0,0,8,"[0, 8]",2,23,"[1, 4, 5, 7, 9, 10, 11, 12, 13, 14, 15, 16, 17, 18, 19, 20, 21, 23, 24, 25, 26, 28, 29]",202,21570,2336,1,16,7,1.0
undo,15,1,0,0,0,20,"[0, 8, 20]",3,12,"[1, 4, 5, 11, 13, 14, 15, 17, 18, 19, 28, 29]",125.9408125,22321,751,1,7,7,1.02364736730791
undo,15,1,0,0,0,5,"[0, 8, 20, 5]",4,7,"[1, 4, 11, 13, 17, 18, 29]",104.469902,23160,839,1,3,7,1.0439599203945713
undo,15,1,0,0,0,18,"[0, 8, 20, 5, 18]",5,2,"[4, 29]",81.64447755,24089,929,1,1,7,1.0840407791793756
undo,15,1,0,0,0,4,"[0, 8, 20, 5, 18, 4]",6,1,[29],42.69579336,25177,1088,1,0,7,1.0902329133216275
undo,15,1,0,0,1,29,"[0, 8, 20, 5, 18, 4, 29]",7,0,[],6.640280603,28265,3088,1,0,7,1.2859729622882756
undo,15,1,0,1,1,29,"[0, 8, 20, 5, 18, 4, 29]",7,0,[],6.640280603,29495,1230,1,0,7,1.2859729622882756
undo,16,7,0,0,0,0,[0],1,29,"[1, 2, 3, 4, 5, 6, 7, 8, 9, 10, 11, 12, 13, 14, 15, 16, 17, 18, 19, 20, 21, 22, 23, 24, 25, 26, 27, 28, 29]",300,115,-1,3,79,9,0.0
undo,16,7,0,0,0,15,"[0, 15]",2,19,"[2, 4, 5, 6, 7, 8, 9, 10, 13, 14, 16, 18, 19, 20, 21, 23, 25, 27, 28]",230.9348134,8162,8047,2,38,9,1.0
undo,16,7,0,0,0,6,"[0, 15, 6]",3,18,"[2, 4, 5, 7, 8, 9, 10, 13, 14, 16, 18, 19, 20, 21, 23, 25, 27, 28]",205.854941,9098,936,2,36,9,1.366719602896943
undo,16,7,0,0,0,25,"[0, 15, 6, 25]",4,11,"[2, 4, 7, 13, 14, 16, 18, 19, 20, 21, 23]",138.6760753,10201,1103,2,28,9,1.3624631728355765
undo,16,7,0,0,0,4,"[0, 15, 6, 25, 4]",5,7,"[2, 7, 13, 16, 18, 19, 20]",113.9374415,10986,785,2,12,9,1.3249684384385587
undo,16,7,0,0,0,20,"[0, 15, 6, 25, 4, 20]",6,5,"[2, 7, 13, 18, 19]",94.29055881,11730,744,1,6,9,1.3721893242679268
undo,16,7,0,0,0,18,"[0, 15, 6, 25, 4, 20, 18]",7,3,"[7, 13, 19]",81.48431034,12410,680,1,2,9,1.5262542308371432
undo,16,7,0,0,0,7,"[0, 15, 6, 25, 4, 20, 18, 7]",8,1,[19],40.25325408,13561,1151,1,0,9,1.41986878673423
undo,16,7,0,0,1,19,"[0, 15, 6, 25, 4, 20, 18, 7, 19]",9,0,[],10.84237174,17289,3728,1,0,9,1.5285658163212987
undo,16,7,0,1,1,19,"[0, 15, 6, 25, 4, 20, 18, 7, 19]",9,0,[],10.84237174,19117,1828,1,0,9,1.5285658163212987
undo,17,37,0,0,0,0,[0],1,29,"[1, 2, 3, 4, 5, 6, 7, 8, 9, 10, 11, 12, 13, 14, 15, 16, 17, 18, 19, 20, 21, 22, 23, 24, 25, 26, 27, 28, 29]",300,114,-1,6,168,10,0.0
undo,17,37,0,0,0,19,"[0, 19]",2,19,"[1, 2, 4, 5, 6, 7, 9, 10, 11, 15, 17, 18, 20, 21, 22, 25, 26, 28, 29]",185.6627795,5171,5057,25,244,9,1.0
undo,17,37,0,0,0,26,"[0, 19, 26]",3,9,"[1, 2, 4, 15, 20, 21, 22, 25, 29]",120.4094271,6242,1071,12,37,8,1.0256292033966232
undo,17,37,0,0,0,21,"[0, 19, 26, 21]",4,6,"[1, 2, 4, 15, 20, 22]",90.67728956,7074,832,8,18,8,1.3487859218508713
undo,17,37,0,0,0,20,"[0, 19, 26, 21, 20]",5,5,"[1, 2, 4, 15, 22]",76.25508446,8481,1407,4,8,8,1.4926614025505558
undo,17,37,0,0,0,15,"[0, 19, 26, 21, 20, 15]",6,3,"[1, 2, 4]",59.25508446,9345,864,2,2,8,1.4468094294766474
undo,17,37,0,0,0,1,"[0, 19, 26, 21, 20, 15, 1]",7,2,"[2, 4]",19.29260206,10218,873,2,0,8,1.7730460035740097
undo,17,37,0,0,1,2,"[0, 19, 26, 21, 20, 15, 1, 2]",8,0,[],2.087951523,10921,703,1,0,8,1.9706815832116096
undo,17,37,1,0,0,1,"[0, 19, 26, 21, 20, 15, 1]",7,2,"[2, 4]",19.29260206,16848,5927,2,0,8,1.7730460035740097
undo,17,37,1,0,0,15,"[0, 19, 26, 21, 20, 15]",6,3,"[1, 2, 4]",59.25508446,17214,366,2,2,8,1.4468094294766474
undo,17,37,1,0,0,20,"[0, 19, 26, 21, 20]",5,5,"[1, 2, 4, 15, 22]",76.25508446,17415,201,4,8,8,1.4926614025505558
undo,17,37,1,0,0,21,"[0, 19, 26, 21]",4,6,"[1, 2, 4, 15, 20, 22]",90.67728956,17648,233,8,18,8,1.3487859218508713
undo,17,37,1,0,0,26,"[0, 19, 26]",3,9,"[1, 2, 4, 15, 20, 21, 22, 25, 29]",120.4094271,17999,351,12,37,8,1.0256292033966232
undo,17,37,1,0,0,19,"[0, 19]",2,19,"[1, 2, 4, 5, 6, 7, 9, 10, 11, 15, 17, 18, 20, 21, 22, 25, 26, 28, 29]",185.6627795,18399,400,25,244,9,1.0
undo,17,37,0,0,0,21,"[0, 19, 21]",3,14,"[1, 2, 4, 7, 10, 11, 15, 17, 18, 20, 22, 25, 26, 29]",144.5531699,20155,1756,10,75,9,1.001632816594558
undo,17,37,0,0,0,15,"[0, 19, 21, 15]",4,9,"[1, 2, 4, 7, 18, 20, 22, 26, 29]",129.5531699,21731,1576,5,32,9,1.0243376499143988
undo,17,37,0,0,0,20,"[0, 19, 21, 15, 20]",5,8,"[1, 2, 4, 7, 18, 22, 26, 29]",112.5531699,22389,658,5,14,9,1.250507291508492
undo,17,37,0,0,0,1,"[0, 19, 21, 15, 20, 1]",6,6,"[2, 4, 7, 18, 22, 26]",78.31868434,23427,1038,4,4,9,1.4002166443864243
undo,17,37,0,0,0,2,"[0, 19, 21, 15, 20, 1, 2]",7,4,"[4, 7, 18, 22]",61.11403381,24235,808,2,2,9,1.5802253600182588
undo,17,37,0,0,0,4,"[0, 19, 21, 15, 20, 1, 2, 4]",8,1,[22],49.71227956,25076,841,1,0,9,1.5399187067712754
undo,17,37,0,0,1,22,"[0, 19, 21, 15, 20, 1, 2, 4, 22]",9,0,[],24.71227956,26515,1439,1,0,9,1.6903775033413582
undo,17,37,0,1,1,22,"[0, 19, 21, 15, 20, 1, 2, 4, 22]",9,0,[],24.71227956,29977,3462,1,0,9,1.6903775033413582
undo,18,45,0,0,0,0,[0],1,24,"[1, 2, 3, 4, 5, 6, 7, 9, 10, 11, 12, 14, 15, 16, 17, 19, 20, 21, 22, 23, 24, 25, 27, 29]",300,114,-1,6,248,10,0.0
undo,18,45,0,0,0,15,"[0, 15]",2,23,"[1, 2, 3, 4, 5, 6, 7, 9, 10, 11, 12, 14, 16, 17, 19, 20, 21, 22, 23, 24, 25, 27, 29]",253.9022777,2127,2013,5,207,10,1.0
undo,18,45,0,0,0,23,"[0, 15, 23]",3,22,"[1, 2, 3, 4, 5, 6, 7, 9, 10, 11, 12, 14, 16, 17, 19, 20, 21, 22, 24, 25, 27, 29]",230.3014303,2887,760,5,163,10,1.0006068457769497
undo,18,45,0,0,0,17,"[0, 15, 23, 17]",4,14,"[2, 3, 5, 6, 7, 9, 10, 11, 12, 19, 20, 21, 24, 29]",161.6210109,4007,1120,1,14,9,2.1576986948489725
undo,18,45,1,0,0,23,"[0, 15, 23]",3,22,"[1, 2, 3, 4, 5, 6, 7, 9, 10, 11, 12, 14, 16, 17, 19, 20, 21, 22, 24, 25, 27, 29]",230.3014303,6270,2263,5,163,10,1.0006068457769497
undo,18,45,0,0,0,10,"[0, 15, 23, 10]",4,15,"[2, 3, 6, 7, 9, 12, 14, 16, 17, 19, 20, 22, 24, 25, 29]",145.4014892,7351,1081,16,100,9,1.0506457231179707
undo,18,45,1,0,0,23,"[0, 15, 23]",3,22,"[1, 2, 3, 4, 5, 6, 7, 9, 10, 11, 12, 14, 16, 17, 19, 20, 21, 22, 24, 25, 27, 29]",230.3014303,10040,2689,5,163,10,1.0006068457769497
undo,18,45,0,0,0,20,"[0, 15, 23, 20]",4,19,"[1, 2, 3, 5, 6, 7, 9, 10, 11, 12, 14, 16, 17, 19, 21, 22, 24, 25, 29]",188.8647316,10703,663,5,137,10,1.2062119754673604
undo,18,45,0,0,0,10,"[0, 15, 23, 20, 10]",5,12,"[2, 3, 6, 7, 9, 12, 14, 17, 22, 24, 25, 29]",132.784432,11583,880,1,54,10,1.1363907740691004
undo,18,45,0,0,0,29,"[0, 15, 23, 20, 10, 29]",6,8,"[2, 3, 6, 7, 12, 14, 22, 24]",111.2437728,12786,1203,1,21,10,1.1719694806770014
undo,18,45,0,0,0,3,"[0, 15, 23, 20, 10, 29, 3]",7,5,"[2, 6, 7, 12, 22]",91.24377276,13744,958,1,7,10,1.1637144299354454
undo,18,45,0,0,0,2,"[0, 15, 23, 20, 10, 29, 3, 2]",8,2,"[6, 7]",65.92579496,16135,2391,2,0,9,1.3965435955776868
undo,18,45,1,0,0,3,"[0, 15, 23, 20, 10, 29, 3]",7,5,"[2, 6, 7, 12, 22]",91.24377276,21434,5299,1,7,10,1.1637144299354454
undo,18,45,0,0,0,6,"[0, 15, 23, 20, 10, 29, 3, 6]",8,2,"[12, 22]",55.0084309,23192,1758,1,1,10,1.422423644740367
undo,18,45,0,0,0,12,"[0, 15, 23, 20, 10, 29, 3, 6, 12]",9,1,[22],34.8838191,24328,1136,1,0,10,1.395348320526316
undo,18,45,0,0,1,22,"[0, 15, 23, 20, 10, 29, 3, 6, 12, 22]",10,0,[],3.308512292,25409,1081,1,0,10,1.3962454826892252
undo,18,45,0,1,1,22,"[0, 15, 23, 20, 10, 29, 3, 6, 12, 22]",10,0,[],3.308512292,27774,2365,1,0,10,1.3962454826892252
undo,19,0,0,0,0,0,[0],1,27,"[2, 3, 4, 5, 6, 7, 8, 9, 10, 11, 12, 13, 14, 15, 16, 17, 19, 20, 21, 22, 23, 24, 25, 26, 27, 28, 29]",300,131,-1,104,1136,9,0.0
undo,19,0,0,0,0,21,"[0, 21]",2,24,"[3, 4, 5, 6, 7, 8, 9, 10, 11, 12, 13, 14, 15, 16, 17, 19, 20, 22, 23, 24, 26, 27, 28, 29]",228.2156006,6367,6236,24,249,9,1.0
undo,19,0,0,0,0,28,"[0, 21, 28]",3,21,"[3, 4, 5, 6, 7, 8, 9, 11, 12, 13, 14, 15, 16, 17, 19, 20, 23, 24, 26, 27, 29]",166.6282642,11519,5152,24,214,9,1.269228840767463
undo,19,0,0,0,0,5,"[0, 21, 28, 5]",4,16,"[3, 4, 7, 8, 9, 11, 12, 14, 15, 17, 19, 20, 23, 24, 26, 29]",122.9705043,12231,712,17,100,9,1.3066419815776449
undo,19,0,0,0,0,26,"[0, 21, 28, 5, 26]",5,11,"[3, 4, 7, 8, 9, 11, 12, 15, 17, 23, 24]",87.53041402,13544,1313,4,25,9,1.3151537206964767
undo,19,0,0,0,0,4,"[0, 21, 28, 5, 26, 4]",6,9,"[3, 7, 8, 9, 11, 12, 15, 17, 24]",75.48881944,14104,560,4,12,9,1.4342029786257582
undo,19,0,0,0,0,24,"[0, 21, 28, 5, 26, 4, 24]",7,8,"[3, 7, 8, 9, 11, 12, 15, 17]",64.08706519,14833,729,4,6,9,1.414072718461701
undo,19,0,0,0,0,15,"[0, 21, 28, 5, 26, 4, 24, 15]",8,3,"[7, 8, 9]",40.74183013,15760,927,3,0,9,1.371525189595184
undo,19,0,0,0,1,7,"[0, 21, 28, 5, 26, 4, 24, 15, 7]",9,0,[],9.677380997,16849,1089,1,0,9,1.4161405040332866
undo,19,0,0,1,1,7,"[0, 21, 28, 5, 26, 4, 24, 15, 7]",9,0,[],9.677380997,18049,1200,1,0,9,1.4161405040332866
undo,20,34,0,0,0,0,[0],1,25,"[1, 3, 4, 5, 6, 7, 8, 9, 10, 11, 12, 13, 15, 18, 19, 20, 21, 22, 23, 24, 25, 26, 27, 28, 29]",300,115,-1,12,367,10,0.0
undo,20,34,0,0,0,13,"[0, 13]",2,24,"[1, 3, 4, 5, 6, 7, 8, 9, 10, 11, 12, 15, 18, 19, 20, 21, 22, 23, 24, 25, 26, 27, 28, 29]",279.9750156,2189,2074,12,331,10,1.0
undo,20,34,0,0,0,1,"[0, 13, 1]",3,16,"[3, 5, 7, 8, 9, 10, 11, 12, 19, 21, 22, 23, 24, 25, 27, 29]",211.8574701,3471,1282,3,92,10,1.0010381285747127
undo,20,34,0,0,0,8,"[0, 13, 1, 8]",4,14,"[3, 5, 7, 9, 10, 11, 12, 19, 22, 23, 24, 25, 27, 29]",201.0871405,4117,646,2,54,10,1.1636807
undo,20,34,0,0,0,25,"[0, 13, 1, 8, 25]",5,12,"[3, 5, 7, 9, 10, 11, 12, 22, 23, 24, 27, 29]",183.999133,5125,1008,2,28,10,1.1396208815936457
undo,20,34,0,0,0,24,"[0, 13, 1, 8, 25, 24]",6,11,"[3, 5, 7, 9, 10, 11, 12, 22, 23, 27, 29]",166.5062774,5965,840,2,23,10,1.374180768736554
undo,20,34,0,0,0,27,"[0, 13, 1, 8, 25, 24, 27]",7,2,"[5, 23]",70.20466781,12655,6690,2,0,8,3.8926002969881988
undo,20,34,1,0,0,24,"[0, 13, 1, 8, 25, 24]",6,11,"[3, 5, 7, 9, 10, 11, 12, 22, 23, 27, 29]",166.5062774,13678,1023,2,23,10,1.374180768736554
undo,20,34,0,0,0,23,"[0, 13, 1, 8, 25, 24, 23]",7,6,"[5, 7, 11, 12, 27, 29]",99.97808784,14637,959,4,3,9,2.1078306540088096
undo,20,34,0,0,0,7,"[0, 13, 1, 8, 25, 24, 23, 7]",8,2,"[11, 12]",71.81783216,15599,962,2,0,9,2.011215865419536
undo,20,34,0,0,1,12,"[0, 13, 1, 8, 25, 24, 23, 7, 12]",9,0,[],56.78453578,16326,727,1,0,9,1.9762514824310813
undo,20,34,1,0,0,7,"[0, 13, 1, 8, 25, 24, 23, 7]",8,2,"[11, 12]",71.81783216,21452,5126,2,0,9,2.011215865419536
undo,20,34,1,0,0,23,"[0, 13, 1, 8, 25, 24, 23]",7,6,"[5, 7, 11, 12, 27, 29]",99.97808784,21887,435,4,3,9,2.1078306540088096
undo,20,34,1,0,0,24,"[0, 13, 1, 8, 25, 24]",6,11,"[3, 5, 7, 9, 10, 11, 12, 22, 23, 27, 29]",166.5062774,22287,400,2,23,10,1.374180768736554
undo,20,34,0,0,0,22,"[0, 13, 1, 8, 25, 24, 22]",7,4,"[7, 9, 10, 12]",92.1019764,23209,922,1,3,9,1.223247043445626
undo,20,34,1,0,0,24,"[0, 13, 1, 8, 25, 24]",6,11,"[3, 5, 7, 9, 10, 11, 12, 22, 23, 27, 29]",166.5062774,24539,1330,2,23,10,1.374180768736554
undo,20,34,0,0,0,7,"[0, 13, 1, 8, 25, 24, 7]",7,8,"[9, 10, 11, 12, 22, 23, 27, 29]",111.7979599,27215,2676,1,9,10,1.6588278239991836
undo,20,34,0,0,0,12,"[0, 13, 1, 8, 25, 24, 7, 12]",8,6,"[9, 10, 11, 22, 23, 27]",96.76466351,27902,687,1,5,10,1.6513922595704515
undo,20,34,0,0,1,22,"[0, 13, 1, 8, 25, 24, 7, 12, 22]",9,0,[],34.37075355,28697,795,1,0,9,1.5629306365981828
undo,20,34,1,0,0,12,"[0, 13, 1, 8, 25, 24, 7, 12]",8,6,"[9, 10, 11, 22, 23, 27]",96.76466351,31830,3133,1,5,10,1.6513922595704515
undo,20,34,0,0,0,23,"[0, 13, 1, 8, 25, 24, 7, 12, 23]",9,1,[27],53.71817701,34128,2298,1,0,10,2.595317535052074
undo,20,34,1,0,0,12,"[0, 13, 1, 8, 25, 24, 7, 12]",8,6,"[9, 10, 11, 22, 23, 27]",96.76466351,34800,672,1,5,10,1.6513922595704515
undo,20,34,1,0,0,7,"[0, 13, 1, 8, 25, 24, 7]",7,8,"[9, 10, 11, 12, 22, 23, 27, 29]",111.7979599,35200,400,1,9,10,1.6588278239991836
undo,20,34,0,0,0,12,"[0, 13, 1, 8, 25, 24, 7, 12]",8,6,"[9, 10, 11, 22, 23, 27]",96.76466351,44546,9346,1,5,10,1.6513922595704515
undo,20,34,0,0,1,22,"[0, 13, 1, 8, 25, 24, 7, 12, 22]",9,0,[],34.37075355,45681,1135,1,0,9,1.5629306365981828
undo,20,34,0,1,1,22,"[0, 13, 1, 8, 25, 24, 7, 12, 22]",9,0,[],34.37075355,47746,2065,1,0,9,1.5629306365981828
undo,21,19,0,0,0,0,[0],1,29,"[1, 2, 3, 4, 5, 6, 7, 8, 9, 10, 11, 12, 13, 14, 15, 16, 17, 18, 19, 20, 21, 22, 23, 24, 25, 26, 27, 28, 29]",300,114,-1,12,149,8,0.0
undo,21,19,0,0,0,29,"[0, 29]",2,28,"[1, 2, 3, 4, 5, 6, 7, 8, 9, 10, 11, 12, 13, 14, 15, 16, 17, 18, 19, 20, 21, 22, 23, 24, 25, 26, 27, 28]",265.0715016,1691,1577,12,120,8,1.0
undo,21,19,0,0,0,9,"[0, 29, 9]",3,17,"[1, 4, 5, 6, 7, 10, 11, 12, 13, 14, 19, 20, 21, 22, 24, 27, 28]",181.7108394,3139,1448,11,65,8,1.0375842971861238
undo,21,19,0,0,0,6,"[0, 29, 9, 6]",4,12,"[4, 7, 10, 11, 13, 14, 20, 21, 22, 24, 27, 28]",140.2741407,4323,1184,11,34,8,1.0389786364356892
undo,21,19,0,0,0,28,"[0, 29, 9, 6, 28]",5,5,"[4, 11, 14, 22, 27]",89.18598161,9700,5377,2,4,8,1.2864082671854424
undo,21,19,0,0,0,4,"[0, 29, 9, 6, 28, 4]",6,4,"[11, 14, 22, 27]",78.00564173,10724,1024,2,2,8,1.3470045407445053
undo,21,19,0,0,0,14,"[0, 29, 9, 6, 28, 4, 14]",7,1,[11],27.99564273,11956,1232,1,0,8,1.3006971582050546
undo,21,19,0,0,1,11,"[0, 29, 9, 6, 28, 4, 14, 11]",8,0,[],17.1789889,12829,873,1,0,8,1.289914895833058
undo,21,19,0,1,1,11,"[0, 29, 9, 6, 28, 4, 14, 11]",8,0,[],17.1789889,19033,6204,1,0,8,1.289914895833058
undo,22,36,0,0,0,0,[0],1,24,"[2, 4, 5, 6, 7, 8, 9, 10, 12, 13, 14, 15, 16, 17, 18, 19, 20, 22, 23, 25, 26, 27, 28, 29]",300,115,-1,2,200,10,0.0
undo,22,36,0,0,0,18,"[0, 18]",2,21,"[2, 4, 5, 6, 7, 8, 9, 10, 12, 13, 14, 16, 17, 19, 22, 23, 25, 26, 27, 28, 29]",279.6039219,2906,2791,2,110,10,1.0
undo,22,36,0,0,0,12,"[0, 18, 12]",3,19,"[2, 4, 5, 6, 7, 8, 9, 10, 13, 16, 17, 19, 22, 23, 25, 26, 27, 28, 29]",237.0245842,3994,1088,2,86,10,2.836270082716982
undo,22,36,0,0,0,9,"[0, 18, 12, 9]",4,9,"[2, 4, 10, 13, 16, 17, 19, 23, 25]",174.6627369,6546,2552,1,40,10,1.8147676024843966
undo,22,36,0,0,0,16,"[0, 18, 12, 9, 16]",5,5,"[2, 13, 17, 19, 25]",127.3658026,7509,963,4,11,9,1.6173640341692257
undo,22,36,0,0,0,17,"[0, 18, 12, 9, 16, 17]",6,4,"[2, 13, 19, 25]",99.04619804,8243,734,4,5,9,2.126167915720943
undo,22,36,0,0,0,19,"[0, 18, 12, 9, 16, 17, 19]",7,3,"[2, 13, 25]",71.15354668,8843,600,3,0,9,2.9690287970141402
undo,22,36,0,0,0,2,"[0, 18, 12, 9, 16, 17, 19, 2]",8,1,[25],34.0321243,9970,1127,1,0,9,2.355174034952613
undo,22,36,0,0,1,25,"[0, 18, 12, 9, 16, 17, 19, 2, 25]",9,0,[],9.032124296,10674,704,1,0,9,2.541422245252009
undo,22,36,0,1,1,25,"[0, 18, 12, 9, 16, 17, 19, 2, 25]",9,0,[],9.032124296,14797,4123,1,0,9,2.541422245252009
basic,23,29,0,0,0,0,[0],1,29,"[1, 2, 3, 4, 5, 6, 7, 8, 9, 10, 11, 12, 13, 14, 15, 16, 17, 18, 19, 20, 21, 22, 23, 24, 25, 26, 27, 28, 29]",300,133,-1,1,78,9,0.0
basic,23,29,0,0,0,25,"[0, 25]",2,18,"[1, 2, 4, 5, 6, 7, 9, 10, 12, 13, 14, 15, 16, 17, 22, 26, 27, 28]",223.3449284,6908,6775,13,101,8,1.0
basic,23,29,0,0,0,1,"[0, 25, 1]",3,15,"[4, 5, 6, 7, 9, 10, 12, 13, 14, 15, 17, 22, 26, 27, 28]",187.8343666,7778,870,11,61,8,1.308415527582314
basic,23,29,0,0,0,14,"[0, 25, 1, 14]",4,12,"[4, 5, 6, 7, 9, 12, 13, 17, 22, 26, 27, 28]",144.8809034,8586,808,9,32,8,1.7138400796467363
basic,23,29,0,0,0,13,"[0, 25, 1, 14, 13]",5,10,"[4, 5, 6, 7, 9, 12, 17, 22, 27, 28]",126.853147,9411,825,9,15,8,1.5995815549042065
basic,23,29,0,0,0,5,"[0, 25, 1, 14, 13, 5]",6,7,"[4, 7, 9, 12, 22, 27, 28]",101.1432268,10154,743,7,3,8,1.6003565067425858
basic,23,29,0,0,0,22,"[0, 25, 1, 14, 13, 5, 22]",7,2,"[12, 27]",46.8017141,12834,2680,2,0,8,2.1647205491966353
basic,23,29,0,0,1,12,"[0, 25, 1, 14, 13, 5, 22, 12]",8,0,[],8.854382174,18347,5513,1,0,8,1.8859097301823977
basic,23,29,0,1,1,12,"[0, 25, 1, 14, 13, 5, 22, 12]",8,0,[],8.854382174,22288,3941,1,0,8,1.8859097301823977
basic,24,9,0,0,0,0,[0],1,27,"[1, 3, 4, 5, 6, 7, 8, 9, 10, 11, 13, 14, 15, 16, 17, 18, 19, 20, 21, 22, 23, 24, 25, 26, 27, 28, 29]",300,115,-1,2,182,10,0.0
basic,24,9,0,0,0,25,"[0, 25]",2,24,"[1, 3, 4, 5, 6, 7, 8, 9, 10, 11, 13, 15, 16, 17, 18, 19, 20, 21, 22, 23, 24, 26, 27, 28]",275.9168108,50335,50220,2,104,10,1.0
basic,24,9,0,0,0,10,"[0, 25, 10]",3,20,"[3, 4, 5, 7, 8, 9, 11, 13, 15, 16, 17, 18, 19, 20, 21, 22, 23, 26, 27, 28]",236.0670932,51519,1184,2,76,10,1.1767014107208227
basic,24,9,0,0,0,8,"[0, 25, 10, 8]",4,19,"[3, 4, 5, 7, 9, 11, 13, 15, 16, 17, 18, 19, 20, 21, 22, 23, 26, 27, 28]",187.6935467,56526,5007,1,29,10,1.7608170712242983
basic,24,9,0,0,0,28,"[0, 25, 10, 8, 28]",5,18,"[3, 4, 5, 7, 9, 11, 13, 15, 16, 17, 18, 19, 20, 21, 22, 23, 26, 27]",176.8768928,57430,904,1,15,10,1.6576318206889098
basic,24,9,0,0,0,23,"[0, 25, 10, 8, 28, 23]",6,12,"[3, 4, 7, 9, 11, 18, 19, 20, 21, 22, 26, 27]",151.8569008,58150,720,1,7,10,2.488131366775142
basic,24,9,0,0,0,9,"[0, 25, 10, 8, 28, 23, 9]",7,10,"[3, 4, 7, 11, 18, 19, 20, 21, 26, 27]",129.4962211,58974,824,1,5,10,2.289724512754012
basic,24,9,0,0,0,26,"[0, 25, 10, 8, 28, 23, 9, 26]",8,3,"[18, 20, 21]",72.8481849,59975,1001,1,2,10,1.944382504121744
basic,24,9,0,0,0,21,"[0, 25, 10, 8, 28, 23, 9, 26, 21]",9,1,[20],18.94085701,62087,2112,1,0,10,2.3711528775176802
basic,24,9,0,0,1,20,"[0, 25, 10, 8, 28, 23, 9, 26, 21, 20]",10,0,[],6.85781104,63142,1055,1,0,10,2.3146010432238726
basic,24,9,0,1,1,20,"[0, 25, 10, 8, 28, 23, 9, 26, 21, 20]",10,0,[],6.85781104,67433,4291,1,0,10,2.3146010432238726
basic,25,25,0,0,0,0,[0],1,28,"[1, 2, 3, 4, 5, 7, 8, 9, 10, 11, 12, 13, 14, 15, 16, 17, 18, 19, 20, 21, 22, 23, 24, 25, 26, 27, 28, 29]",300,115,-1,5,94,10,0.0
basic,25,25,0,0,0,23,"[0, 23]",2,23,"[1, 2, 3, 5, 7, 8, 9, 11, 12, 13, 14, 16, 17, 19, 20, 21, 22, 24, 25, 26, 27, 28, 29]",259.7756293,5628,5513,3,33,10,1.0
basic,25,25,0,0,0,19,"[0, 23, 19]",3,21,"[1, 2, 3, 5, 7, 8, 9, 11, 12, 13, 14, 16, 17, 20, 21, 22, 24, 25, 27, 28, 29]",223.9287326,6612,984,3,24,10,1.583101227007039
basic,25,25,0,0,0,29,"[0, 23, 19, 29]",4,19,"[1, 2, 3, 5, 7, 8, 9, 11, 12, 13, 14, 16, 17, 20, 21, 22, 24, 25, 28]",207.649912,7412,800,3,17,10,1.474631541426484
basic,25,25,0,0,0,22,"[0, 23, 19, 29, 22]",5,18,"[1, 2, 3, 5, 7, 8, 9, 11, 12, 13, 14, 16, 17, 20, 21, 24, 25, 28]",191.5253965,8587,1175,3,14,10,1.4020377754906637
basic,25,25,0,0,0,7,"[0, 23, 19, 29, 22, 7]",6,7,"[3, 8, 9, 11, 13, 24, 28]",115.8814939,16213,7626,3,11,10,1.5709678649326715
basic,25,25,0,0,0,24,"[0, 23, 19, 29, 22, 7, 24]",7,5,"[3, 8, 9, 13, 28]",91.12265712,17045,832,3,7,10,1.486191600033379
basic,25,25,0,0,0,9,"[0, 23, 19, 29, 22, 7, 24, 9]",8,4,"[3, 8, 13, 28]",73.09490075,25701,8656,3,3,10,1.453504870342882
basic,25,25,0,0,0,3,"[0, 23, 19, 29, 22, 7, 24, 9, 3]",9,3,"[8, 13, 28]",42.82940885,30031,4330,3,0,10,1.388955167525479
basic,25,25,0,0,1,13,"[0, 23, 19, 29, 22, 7, 24, 9, 3, 13]",10,0,[],11.58841014,32462,2431,1,0,10,1.4309045890044414
basic,25,25,0,1,1,13,"[0, 23, 19, 29, 22, 7, 24, 9, 3, 13]",10,0,[],11.58841014,46595,14133,1,0,10,1.4309045890044414
basic,26,17,0,0,0,0,[0],1,28,"[1, 2, 3, 4, 5, 6, 7, 8, 9, 10, 11, 12, 13, 14, 15, 16, 17, 18, 19, 20, 22, 23, 24, 25, 26, 27, 28, 29]",300,115,-1,2,73,8,0.0
basic,26,17,0,0,0,9,"[0, 9]",2,25,"[1, 2, 3, 5, 6, 7, 8, 10, 11, 12, 14, 15, 16, 17, 18, 19, 20, 22, 23, 24, 25, 26, 27, 28, 29]",210.5293344,35678,35563,1,34,8,1.0
basic,26,17,0,0,0,16,"[0, 9, 16]",3,21,"[1, 2, 3, 5, 7, 8, 10, 11, 12, 14, 17, 18, 19, 20, 22, 23, 25, 26, 27, 28, 29]",197.1876704,36653,975,1,26,8,1.173103464220352
basic,26,17,0,0,0,2,"[0, 9, 16, 2]",4,18,"[1, 3, 5, 7, 8, 10, 11, 12, 14, 17, 18, 19, 23, 25, 26, 27, 28, 29]",181.0631549,37741,1088,1,23,8,1.14825089247282
basic,26,17,0,0,0,17,"[0, 9, 16, 2, 17]",5,7,"[7, 8, 12, 14, 26, 27, 29]",142.7356191,38645,904,4,5,7,1.4896040699768547
basic,26,17,0,0,0,8,"[0, 9, 16, 2, 17, 8]",6,3,"[7, 12, 27]",104.5256727,40029,1384,3,0,7,1.4604726966175894
basic,26,17,0,0,1,7,"[0, 9, 16, 2, 17, 8, 7]",7,0,[],33.81499459,40998,969,1,0,7,1.4474701869793896
basic,26,17,0,1,1,7,"[0, 9, 16, 2, 17, 8, 7]",7,0,[],33.81499459,48347,7349,1,0,7,1.4474701869793896
basic,27,15,0,0,0,0,[0],1,25,"[1, 2, 3, 4, 7, 8, 9, 10, 11, 12, 13, 14, 15, 16, 18, 20, 21, 22, 23, 24, 25, 26, 27, 28, 29]",300,148,-1,4,65,9,0.0
basic,27,15,0,0,0,12,"[0, 12]",2,22,"[1, 2, 3, 4, 7, 8, 9, 10, 11, 13, 14, 15, 16, 18, 21, 22, 23, 24, 26, 27, 28, 29]",213.547701,23141,22993,4,35,9,1.0
basic,27,15,0,0,0,7,"[0, 12, 7]",3,16,"[1, 3, 4, 8, 9, 10, 11, 13, 14, 15, 16, 18, 21, 22, 24, 27]",180.3061607,25050,1909,4,29,9,1.411291635294361
basic,27,15,0,0,0,16,"[0, 12, 7, 16]",4,10,"[3, 4, 10, 11, 13, 14, 15, 18, 21, 22]",136.6484008,26098,1048,2,11,9,1.4308733430458784
basic,27,15,0,0,0,11,"[0, 12, 7, 16, 11]",5,7,"[3, 4, 13, 14, 15, 21, 22]",110.6291772,26915,817,2,5,9,1.5251025438826007
basic,27,15,0,0,0,3,"[0, 12, 7, 16, 11, 3]",6,5,"[4, 13, 14, 15, 22]",99.22742292,27571,656,2,3,9,1.5166583878170454
basic,27,15,0,0,0,22,"[0, 12, 7, 16, 11, 3, 22]",7,2,"[13, 15]",49.49815588,28579,1008,2,0,9,1.4519711389669923
basic,27,15,0,0,0,15,"[0, 12, 7, 16, 11, 3, 22, 15]",8,1,[13],23.88565893,29458,879,1,0,9,1.4060225827822495
basic,27,15,0,0,1,13,"[0, 12, 7, 16, 11, 3, 22, 15, 13]",9,0,[],8.621321408,31315,1857,1,0,9,1.4544229719836068
basic,27,15,0,1,1,13,"[0, 12, 7, 16, 11, 3, 22, 15, 13]",9,0,[],8.621321408,41055,9740,1,0,9,1.4544229719836068
basic,28,4,0,0,0,0,[0],1,26,"[3, 4, 5, 6, 7, 8, 10, 11, 12, 13, 14, 15, 16, 17, 18, 19, 20, 21, 22, 23, 24, 25, 26, 27, 28, 29]",300,114,-1,4,489,10,0.0
basic,28,4,0,0,0,13,"[0, 13]",2,23,"[3, 4, 5, 6, 7, 10, 11, 12, 14, 15, 16, 17, 19, 20, 21, 22, 23, 24, 25, 26, 27, 28, 29]",232.1030192,5690,5576,2,270,10,1.0
basic,28,4,0,0,0,28,"[0, 13, 28]",3,19,"[3, 4, 5, 6, 10, 11, 12, 14, 15, 16, 17, 19, 20, 21, 22, 23, 24, 25, 26]",200.5277124,6540,850,2,221,10,1.3431168257921573
basic,28,4,0,0,0,14,"[0, 13, 28, 14]",4,11,"[3, 4, 5, 6, 11, 16, 17, 20, 21, 22, 25]",134.2857318,7586,1046,28,123,9,1.2134786195381546
basic,28,4,0,0,0,25,"[0, 13, 28, 14, 25]",5,10,"[3, 4, 5, 6, 11, 16, 17, 20, 21, 22]",118.1612163,8162,576,22,51,9,1.4339367384350254
basic,28,4,0,0,0,11,"[0, 13, 28, 14, 25, 11]",6,9,"[3, 4, 5, 6, 16, 17, 20, 21, 22]",99.37292203,8834,672,11,18,9,1.632788140935394
basic,28,4,0,0,0,16,"[0, 13, 28, 14, 25, 11, 16]",7,6,"[3, 5, 17, 20, 21, 22]",84.37292203,9689,855,9,2,9,1.5642820747024264
basic,28,4,0,0,0,17,"[0, 13, 28, 14, 25, 11, 16, 17]",8,4,"[3, 20, 21, 22]",58.29611241,10658,969,4,0,9,1.4745445015567764
basic,28,4,0,0,1,21,"[0, 13, 28, 14, 25, 11, 16, 17, 21]",9,0,[],9.041670989,15802,5144,1,0,9,1.968587709550512
basic,28,4,0,1,1,21,"[0, 13, 28, 14, 25, 11, 16, 17, 21]",9,0,[],9.041670989,17764,1962,1,0,9,1.968587709550512
basic,29,42,0,0,0,0,[0],1,29,"[1, 2, 3, 4, 5, 6, 7, 8, 9, 10, 11, 12, 13, 14, 15, 16, 17, 18, 19, 20, 21, 22, 23, 24, 25, 26, 27, 28, 29]",300,115,-1,16,302,9,0.0
basic,29,42,0,0,0,3,"[0, 3]",2,25,"[1, 2, 4, 5, 6, 7, 8, 9, 10, 11, 13, 15, 17, 18, 19, 20, 21, 22, 23, 24, 25, 26, 27, 28, 29]",255.7959278,5883,5768,3,45,9,1.0
basic,29,42,0,0,0,22,"[0, 3, 22]",3,24,"[1, 2, 4, 5, 6, 7, 8, 9, 10, 11, 13, 15, 17, 18, 19, 20, 21, 23, 24, 25, 26, 27, 28, 29]",172.3453436,9084,3201,2,25,9,1.4407938054716964
basic,29,42,0,0,0,4,"[0, 3, 22, 4]",4,20,"[1, 2, 5, 7, 8, 9, 11, 13, 15, 17, 18, 19, 20, 21, 23, 24, 25, 26, 27, 29]",161.1650037,9596,512,2,16,9,1.534580273387445
basic,29,42,0,0,0,5,"[0, 3, 22, 4, 5]",5,14,"[1, 2, 7, 8, 11, 15, 18, 20, 21, 24, 25, 26, 27, 29]",141.3155705,10260,664,1,7,9,1.4597574387977212
basic,29,42,0,0,0,8,"[0, 3, 22, 4, 5, 8]",6,5,"[1, 2, 7, 24, 26]",106.8336912,11835,1575,1,3,9,1.7966044206336076
basic,29,42,0,0,0,1,"[0, 3, 22, 4, 5, 8, 1]",7,2,"[7, 26]",57.74194035,12950,1115,1,1,9,1.5556875029452142
basic,29,42,0,0,0,7,"[0, 3, 22, 4, 5, 8, 1, 7]",8,1,[26],27.74194035,14108,1158,1,0,9,1.5716207253166026
basic,29,42,0,0,1,26,"[0, 3, 22, 4, 5, 8, 1, 7, 26]",9,0,[],1.171279836,15380,1272,1,0,9,1.5092359604242425
basic,29,42,0,1,1,26,"[0, 3, 22, 4, 5, 8, 1, 7, 26]",9,0,[],1.171279836,17416,2036,1,0,9,1.5092359604242425
basic,30,38,0,0,0,0,[0],1,29,"[1, 2, 3, 4, 5, 6, 7, 8, 9, 10, 11, 12, 13, 14, 15, 16, 17, 18, 19, 20, 21, 22, 23, 24, 25, 26, 27, 28, 29]",300,99,-1,33,506,9,0.0
basic,30,38,0,0,0,19,"[0, 19]",2,23,"[3, 4, 5, 6, 7, 8, 9, 11, 13, 14, 15, 16, 17, 18, 20, 22, 23, 24, 25, 26, 27, 28, 29]",219.5015528,12483,12384,6,61,9,1.0
basic,30,38,0,0,0,17,"[0, 19, 17]",3,21,"[3, 4, 5, 6, 7, 9, 11, 13, 14, 15, 16, 18, 20, 22, 23, 24, 25, 26, 27, 28, 29]",198.1239945,13803,1320,6,53,9,1.571793785769489
basic,30,38,0,0,0,20,"[0, 19, 17, 20]",4,17,"[3, 4, 5, 6, 7, 11, 13, 14, 15, 16, 18, 22, 24, 25, 26, 27, 28]",174.3542658,14517,714,6,44,9,2.333182710277297
basic,30,38,0,0,0,4,"[0, 19, 17, 20, 4]",5,10,"[5, 11, 13, 14, 15, 16, 24, 26, 27, 28]",140.4131403,18028,3511,5,22,9,2.276099229646013
basic,30,38,0,0,0,13,"[0, 19, 17, 20, 4, 13]",6,7,"[11, 15, 16, 24, 26, 27, 28]",109.0125034,20116,2088,8,3,8,1.9539449223642764
basic,30,38,0,0,0,15,"[0, 19, 17, 20, 4, 13, 15]",7,3,"[11, 16, 28]",57.5343527,21005,889,3,0,8,3.304438629837084
basic,30,38,0,0,1,11,"[0, 19, 17, 20, 4, 13, 15, 11]",8,0,[],21.13380325,22373,1368,1,0,8,3.4899196080656516
basic,30,38,0,1,1,11,"[0, 19, 17, 20, 4, 13, 15, 11]",8,0,[],21.13380325,45161,22788,1,0,8,3.4899196080656516
basic,31,10,0,0,0,0,[0],1,29,"[1, 2, 3, 4, 5, 6, 7, 8, 9, 10, 11, 12, 13, 14, 15, 16, 17, 18, 19, 20, 21, 22, 23, 24, 25, 26, 27, 28, 29]",300,98,-1,1,100,9,0.0
basic,31,10,0,0,0,13,"[0, 13]",2,25,"[1, 2, 3, 4, 6, 7, 8, 9, 10, 11, 12, 14, 17, 18, 19, 20, 21, 22, 23, 24, 25, 26, 27, 28, 29]",249.4628849,7267,7169,1,79,9,1.0
basic,31,10,0,0,0,19,"[0, 13, 19]",3,12,"[2, 6, 8, 9, 10, 11, 14, 18, 20, 24, 26, 27]",180.5861835,8467,1200,11,79,8,1.0000581961988606
basic,31,10,0,0,0,26,"[0, 13, 19, 26]",4,9,"[2, 6, 9, 10, 11, 14, 18, 20, 27]",152.266579,9595,1128,2,31,8,1.1154855792693006
basic,31,10,0,0,0,11,"[0, 13, 19, 26, 11]",5,6,"[2, 10, 14, 18, 20, 27]",110.5053529,12198,2603,8,1,7,2.0890546670653563
basic,31,10,0,0,0,10,"[0, 13, 19, 26, 11, 10]",6,1,[18],38.13823334,25349,13151,1,0,7,2.9504731771035386
basic,31,10,0,0,1,18,"[0, 13, 19, 26, 11, 10, 18]",7,0,[],24.68460929,26756,1407,1,0,7,2.6970974012310793
basic,31,10,0,1,1,18,"[0, 13, 19, 26, 11, 10, 18]",7,0,[],24.68460929,28893,2137,1,0,7,2.6970974012310793
basic,32,16,0,0,0,0,[0],1,29,"[1, 2, 3, 4, 5, 6, 7, 8, 9, 10, 11, 12, 13, 14, 15, 16, 17, 18, 19, 20, 21, 22, 23, 24, 25, 26, 27, 28, 29]",300,116,-1,13,161,9,0.0
basic,32,16,0,0,0,28,"[0, 28]",2,27,"[1, 2, 3, 4, 5, 7, 8, 9, 10, 11, 12, 13, 14, 15, 16, 17, 18, 19, 20, 21, 22, 23, 24, 25, 26, 27, 29]",284.3475242,11015,10899,11,92,9,1.0
basic,32,16,0,0,0,17,"[0, 28, 17]",3,26,"[1, 2, 3, 4, 5, 7, 8, 9, 10, 11, 12, 13, 14, 15, 16, 18, 19, 20, 21, 22, 23, 24, 25, 26, 27, 29]",219.1555001,12135,1120,10,46,9,1.3773866384707543
basic,32,16,0,0,0,16,"[0, 28, 17, 16]",4,25,"[1, 2, 3, 4, 5, 7, 8, 9, 10, 11, 12, 13, 14, 15, 18, 19, 20, 21, 22, 23, 24, 25, 26, 27, 29]",190.8358956,13135,1000,10,34,9,1.3209953830681203
basic,32,16,0,0,0,21,"[0, 28, 17, 16, 21]",5,13,"[3, 5, 7, 8, 9, 10, 12, 15, 20, 22, 25, 26, 29]",146.1816685,15071,1936,4,7,9,1.8136482702070456
basic,32,16,0,0,0,8,"[0, 28, 17, 16, 21, 8]",6,6,"[5, 9, 12, 15, 20, 25]",96.92722704,15951,880,4,2,9,1.637204572335983
basic,32,16,0,0,0,20,"[0, 28, 17, 16, 21, 8, 20]",7,2,"[9, 25]",39.15179974,17031,1080,2,0,9,1.441590377328759
basic,32,16,0,0,0,25,"[0, 28, 17, 16, 21, 8, 20, 25]",8,1,[9],26.5026891,18279,1248,1,0,9,1.484361110265371
basic,32,16,0,0,1,9,"[0, 28, 17, 16, 21, 8, 20, 25, 9]",9,0,[],13.69644062,19425,1146,1,0,9,1.4530180692918209
basic,32,16,0,1,1,9,"[0, 28, 17, 16, 21, 8, 20, 25, 9]",9,0,[],13.69644062,20786,1361,1,0,9,1.4530180692918209
basic,33,3,0,0,0,0,[0],1,29,"[1, 2, 3, 4, 5, 6, 7, 8, 9, 10, 11, 12, 13, 14, 15, 16, 17, 18, 19, 20, 21, 22, 23, 24, 25, 26, 27, 28, 29]",300,116,-1,34,427,10,0.0
basic,33,3,0,0,0,16,"[0, 16]",2,28,"[1, 2, 3, 4, 5, 6, 7, 8, 9, 10, 11, 12, 13, 14, 15, 17, 18, 19, 20, 21, 22, 23, 24, 25, 26, 27, 28, 29]",268.9355509,15589,15473,32,260,9,1.0
basic,33,3,0,0,0,15,"[0, 16, 15]",3,27,"[1, 2, 3, 4, 5, 6, 7, 8, 9, 10, 11, 12, 13, 14, 17, 18, 19, 20, 21, 22, 23, 24, 25, 26, 27, 28, 29]",229.8203364,17229,1640,15,76,9,2.204989671213251
basic,33,3,0,0,0,7,"[0, 16, 15, 7]",4,25,"[1, 2, 3, 4, 5, 6, 8, 9, 10, 11, 12, 13, 14, 17, 18, 19, 20, 21, 22, 24, 25, 26, 27, 28, 29]",199.7537437,18117,888,15,59,9,4.730913335158226
basic,33,3,0,0,0,8,"[0, 16, 15, 7, 8]",5,13,"[3, 4, 5, 10, 14, 17, 18, 19, 20, 21, 22, 24, 26]",143.7805358,19077,960,9,26,9,2.6022124644283724
basic,33,3,0,0,0,24,"[0, 16, 15, 7, 8, 24]",6,9,"[3, 4, 10, 14, 17, 19, 20, 21, 22]",131.6150107,20005,928,9,11,9,2.8609774318136
basic,33,3,0,0,0,14,"[0, 16, 15, 7, 8, 24, 14]",7,4,"[3, 10, 19, 21]",60.50242395,21149,1144,2,2,9,1.8608244432081769
basic,33,3,0,0,0,21,"[0, 16, 15, 7, 8, 24, 14, 21]",8,1,[19],33.59517586,22365,1216,1,0,9,1.7324967385978056
basic,33,3,0,0,1,19,"[0, 16, 15, 7, 8, 24, 14, 21, 19]",9,0,[],21.38862024,23310,945,1,0,9,1.8878605589344515
basic,33,3,0,1,1,19,"[0, 16, 15, 7, 8, 24, 14, 21, 19]",9,0,[],21.38862024,27226,3916,1,0,9,1.8878605589344515
basic,34,30,0,0,0,0,[0],1,19,"[3, 4, 5, 7, 9, 11, 16, 17, 18, 19, 20, 21, 22, 24, 25, 26, 27, 28, 29]",300,114,-1,5,41,8,0.0
basic,34,30,0,0,0,16,"[0, 16]",2,17,"[3, 5, 7, 9, 11, 17, 18, 19, 20, 21, 22, 24, 25, 26, 27, 28, 29]",219.3774225,2873,2759,5,34,8,1.0
basic,34,30,0,0,0,25,"[0, 16, 25]",3,10,"[3, 5, 7, 9, 11, 18, 19, 20, 27, 29]",115.0845656,4185,1312,5,28,8,1.0336279544884488
basic,34,30,0,0,0,20,"[0, 16, 25, 20]",4,8,"[3, 5, 7, 9, 18, 19, 27, 29]",93.15285342,4993,808,4,14,8,1.0337964627284246
basic,34,30,0,0,0,27,"[0, 16, 25, 20, 27]",5,4,"[3, 5, 18, 29]",59.09408069,5865,872,4,6,8,1.1504365534848
basic,34,30,0,0,0,3,"[0, 16, 25, 20, 27, 3]",6,3,"[5, 18, 29]",39.98910751,6777,912,4,0,8,1.1403876826835333
basic,34,30,0,0,0,29,"[0, 16, 25, 20, 27, 3, 29]",7,1,[18],21.38803228,7281,504,1,0,8,1.1443827771455848
basic,34,30,0,0,1,18,"[0, 16, 25, 20, 27, 3, 29, 18]",8,0,[],2.074824359,8049,768,1,0,8,1.2197761544023602
basic,34,30,0,1,1,18,"[0, 16, 25, 20, 27, 3, 29, 18]",8,0,[],2.074824359,9674,1625,1,0,8,1.2197761544023602
basic,35,43,0,0,0,0,[0],1,23,"[1, 2, 3, 4, 5, 6, 7, 9, 10, 11, 12, 14, 15, 16, 17, 19, 20, 21, 22, 23, 25, 27, 29]",300,115,-1,16,556,12,0.0
basic,35,43,0,0,0,29,"[0, 29]",2,22,"[1, 2, 3, 4, 5, 6, 7, 9, 10, 11, 12, 14, 15, 16, 17, 19, 20, 21, 22, 23, 25, 27]",277.909278,2110,1995,16,520,12,1.0
basic,35,43,0,0,0,20,"[0, 29, 20]",3,20,"[1, 2, 3, 4, 6, 7, 9, 10, 11, 12, 14, 15, 16, 17, 19, 21, 22, 23, 25, 27]",254.4785289,2782,672,15,422,12,1.082311746871282
basic,35,43,0,0,0,16,"[0, 29, 20, 16]",4,19,"[1, 2, 3, 4, 6, 7, 9, 10, 11, 12, 14, 15, 17, 19, 21, 22, 23, 25, 27]",231.8511119,3597,815,15,389,12,1.215201926898219
basic,35,43,0,0,0,25,"[0, 29, 20, 16, 25]",5,14,"[1, 2, 3, 4, 6, 7, 9, 11, 12, 14, 15, 19, 22, 23]",175.7708124,6742,3145,53,282,11,1.566384303308987
basic,35,43,0,0,0,15,"[0, 29, 20, 16, 25, 15]",6,13,"[1, 2, 3, 4, 6, 7, 9, 11, 12, 14, 19, 22, 23]",153.0992443,7486,744,27,108,11,1.776736412604812
basic,35,43,0,0,0,12,"[0, 29, 20, 16, 25, 15, 12]",7,10,"[1, 3, 6, 7, 9, 11, 14, 19, 22, 23]",133.7860364,8030,544,21,41,11,1.6813323012225032
basic,35,43,0,0,0,3,"[0, 29, 20, 16, 25, 15, 12, 3]",8,9,"[1, 6, 7, 9, 11, 14, 19, 22, 23]",120.7860364,8560,530,20,12,11,1.608740348096123
basic,35,43,0,0,0,22,"[0, 29, 20, 16, 25, 15, 12, 3, 22]",9,6,"[1, 6, 7, 11, 14, 19]",86.07292644,9550,990,9,2,11,1.793657891802588
basic,35,43,0,0,0,19,"[0, 29, 20, 16, 25, 15, 12, 3, 22, 19]",10,3,"[1, 6, 7]",65.45739831,11214,1664,3,0,11,1.6882745891803936
basic,35,43,0,0,1,1,"[0, 29, 20, 16, 25, 15, 12, 3, 22, 19, 1]",11,0,[],37.2793927,12086,872,1,0,11,1.825064866046553
basic,35,43,0,1,1,1,"[0, 29, 20, 16, 25, 15, 12, 3, 22, 19, 1]",11,0,[],37.2793927,23872,11786,1,0,11,1.825064866046553
basic,36,32,0,0,0,0,[0],1,29,"[1, 2, 3, 4, 5, 6, 7, 8, 9, 10, 11, 12, 13, 14, 15, 16, 17, 18, 19, 20, 21, 22, 23, 24, 25, 26, 27, 28, 29]",300,116,-1,17,359,10,0.0
basic,36,32,0,0,0,19,"[0, 19]",2,28,"[1, 2, 3, 4, 5, 6, 7, 8, 9, 10, 11, 12, 13, 14, 15, 16, 17, 18, 20, 21, 22, 23, 24, 25, 26, 27, 28, 29]",283.5075775,11726,11610,16,294,10,1.0
basic,36,32,0,0,0,13,"[0, 19, 13]",3,24,"[2, 3, 4, 5, 6, 8, 9, 10, 11, 12, 14, 15, 16, 17, 18, 20, 21, 22, 23, 24, 25, 26, 27, 28]",260.3127505,12582,856,14,227,10,1.0172874229878615
basic,36,32,0,0,0,15,"[0, 19, 13, 15]",4,18,"[2, 3, 5, 8, 9, 10, 11, 12, 16, 17, 20, 22, 23, 24, 25, 26, 27, 28]",177.4393531,14616,2034,9,116,10,1.435447391509833
basic,36,32,0,0,0,28,"[0, 19, 13, 15, 28]",5,17,"[2, 3, 5, 8, 9, 10, 11, 12, 16, 17, 20, 22, 23, 24, 25, 26, 27]",166.0375988,15558,942,9,70,10,1.3843701324937985
basic,36,32,0,0,0,12,"[0, 19, 13, 15, 28, 12]",6,14,"[2, 3, 5, 8, 9, 10, 11, 16, 17, 20, 22, 24, 26, 27]",147.0639329,16246,688,6,35,10,1.358372254952329
basic,36,32,0,0,0,16,"[0, 19, 13, 15, 28, 12, 16]",7,13,"[2, 3, 5, 8, 9, 10, 11, 17, 20, 22, 24, 26, 27]",131.411457,17414,1168,5,15,10,1.4356932930709845
basic,36,32,0,0,0,22,"[0, 19, 13, 15, 28, 12, 16, 22]",8,6,"[2, 8, 9, 17, 20, 27]",97.57360838,18903,1489,3,5,10,1.4335226411545752
basic,36,32,0,0,0,9,"[0, 19, 13, 15, 28, 12, 16, 22, 9]",9,3,"[2, 8, 20]",75.37000507,19719,816,3,0,10,1.4837166378374758
basic,36,32,0,0,1,8,"[0, 19, 13, 15, 28, 12, 16, 22, 9, 8]",10,0,[],30.24794838,22168,2449,1,0,10,1.3767698817641267
basic,36,32,0,1,1,8,"[0, 19, 13, 15, 28, 12, 16, 22, 9, 8]",10,0,[],30.24794838,27243,5075,1,0,10,1.3767698817641267
basic,37,37,0,0,0,0,[0],1,29,"[1, 2, 3, 4, 5, 6, 7, 8, 9, 10, 11, 12, 13, 14, 15, 16, 17, 18, 19, 20, 21, 22, 23, 24, 25, 26, 27, 28, 29]",300,115,-1,6,168,10,0.0
basic,37,37,0,0,0,18,"[0, 18]",2,19,"[1, 2, 4, 6, 7, 9, 10, 12, 14, 15, 17, 19, 20, 21, 22, 23, 26, 28, 29]",202.4090168,4826,4711,6,89,10,1.0
basic,37,37,0,0,0,7,"[0, 18, 7]",3,12,"[1, 2, 4, 9, 15, 17, 19, 20, 21, 22, 26, 29]",175.2428614,5467,641,6,53,10,1.0413073512834488
basic,37,37,0,0,0,22,"[0, 18, 7, 22]",4,8,"[1, 2, 4, 15, 19, 20, 21, 26]",125.2428614,6347,880,6,29,10,1.0730792320325544
basic,37,37,0,0,0,4,"[0, 18, 7, 22, 4]",5,7,"[1, 2, 15, 19, 20, 21, 26]",100.2428614,7092,745,4,16,10,1.2290245562206235
basic,37,37,0,0,0,2,"[0, 18, 7, 22, 4, 2]",6,5,"[1, 15, 19, 20, 21]",88.84110714,7994,902,4,7,10,1.3968113858365216
basic,37,37,0,0,0,1,"[0, 18, 7, 22, 4, 2, 1]",7,4,"[15, 19, 20, 21]",71.63645661,8683,689,4,3,10,1.4424239294761476
basic,37,37,0,0,0,15,"[0, 18, 7, 22, 4, 2, 1, 15]",8,2,"[20, 21]",31.67397421,11475,2792,2,0,10,1.612564167414217
basic,37,37,0,0,0,20,"[0, 18, 7, 22, 4, 2, 1, 15, 20]",9,1,[21],14.67397421,12523,1048,1,0,10,1.9034852470814607
basic,37,37,0,0,1,21,"[0, 18, 7, 22, 4, 2, 1, 15, 20, 21]",10,0,[],0.251769103,13941,1418,1,0,10,1.9314492588202221
basic,37,37,0,1,1,21,"[0, 18, 7, 22, 4, 2, 1, 15, 20, 21]",10,0,[],0.251769103,16248,2307,1,0,10,1.9314492588202221
basic,38,14,0,0,0,0,[0],1,29,"[1, 2, 3, 4, 5, 6, 7, 8, 9, 10, 11, 12, 13, 14, 15, 16, 17, 18, 19, 20, 21, 22, 23, 24, 25, 26, 27, 28, 29]",300,115,-1,8,157,10,0.0
basic,38,14,0,0,0,15,"[0, 15]",2,20,"[1, 2, 3, 4, 7, 8, 9, 13, 17, 18, 19, 20, 21, 22, 23, 25, 26, 27, 28, 29]",216.7053423,13010,12895,8,102,10,1.0
basic,38,14,0,0,0,28,"[0, 15, 28]",3,17,"[1, 2, 3, 4, 7, 8, 9, 13, 17, 18, 19, 20, 22, 23, 25, 26, 27]",197.4959696,13521,511,8,48,10,1.0446007867311968
basic,38,14,0,0,0,17,"[0, 15, 28, 17]",4,14,"[1, 2, 3, 4, 7, 8, 13, 18, 19, 20, 22, 23, 25, 26]",184.0423455,14162,641,8,39,10,1.0729463354689972
basic,38,14,0,0,0,18,"[0, 15, 28, 17, 18]",5,9,"[1, 2, 4, 7, 8, 19, 23, 25, 26]",119.412631,15210,1048,8,27,10,1.5035901079219378
basic,38,14,0,0,0,8,"[0, 15, 28, 17, 18, 8]",6,8,"[1, 2, 4, 7, 19, 23, 25, 26]",105.8111605,15986,776,8,18,10,1.4819689987843856
basic,38,14,0,0,0,19,"[0, 15, 28, 17, 18, 8, 19]",7,5,"[1, 7, 23, 25, 26]",85.19563238,16570,584,4,9,10,1.4526746797093781
basic,38,14,0,0,0,1,"[0, 15, 28, 17, 18, 8, 19, 1]",8,4,"[7, 23, 25, 26]",69.96408617,17074,504,3,1,10,1.4876985459270997
basic,38,14,0,0,0,23,"[0, 15, 28, 17, 18, 8, 19, 1, 23]",9,1,[26],21.96408617,19562,2488,1,0,10,1.4791446279021185
basic,38,14,0,0,1,26,"[0, 15, 28, 17, 18, 8, 19, 1, 23, 26]",10,0,[],11.14743235,20539,977,1,0,10,1.4559204757247275
basic,38,14,0,1,1,26,"[0, 15, 28, 17, 18, 8, 19, 1, 23, 26]",10,0,[],11.14743235,22137,1598,1,0,10,1.4559204757247275
basic,39,44,0,0,0,0,[0],1,29,"[1, 2, 3, 4, 5, 6, 7, 8, 9, 10, 11, 12, 13, 14, 15, 16, 17, 18, 19, 20, 21, 22, 23, 24, 25, 26, 27, 28, 29]",300,114,-1,13,126,7,0.0
basic,39,44,0,0,0,24,"[0, 24]",2,19,"[2, 4, 5, 6, 7, 8, 9, 11, 12, 14, 16, 17, 19, 20, 22, 23, 25, 26, 28]",149.7302426,9432,9318,4,43,7,1.0
basic,39,44,0,0,0,9,"[0, 24, 9]",3,11,"[4, 5, 7, 8, 11, 12, 14, 20, 23, 25, 28]",116.9735639,10335,903,2,15,7,1.153461779613976
basic,39,44,0,0,0,4,"[0, 24, 9, 4]",4,10,"[5, 7, 8, 11, 12, 14, 20, 23, 25, 28]",97.27584825,11815,1480,2,10,7,1.1541915958625368
basic,39,44,0,0,0,7,"[0, 24, 9, 4, 7]",5,4,"[5, 12, 23, 25]",66.25972341,15666,3851,2,2,7,1.1312544568834735
basic,39,44,0,0,0,25,"[0, 24, 9, 4, 7, 25]",6,1,[5],14.05819087,17904,2238,1,0,7,1.1328271086756418
basic,39,44,0,0,1,5,"[0, 24, 9, 4, 7, 25, 5]",7,0,[],3.61788436,19208,1304,1,0,7,1.1681812714013686
basic,39,44,0,1,1,5,"[0, 24, 9, 4, 7, 25, 5]",7,0,[],3.61788436,20735,1527,1,0,7,1.1681812714013686
basic,40,19,0,0,0,0,[0],1,29,"[1, 2, 3, 4, 5, 6, 7, 8, 9, 10, 11, 12, 13, 14, 15, 16, 17, 18, 19, 20, 21, 22, 23, 24, 25, 26, 27, 28, 29]",300,115,-1,12,149,8,0.0
basic,40,19,0,0,0,29,"[0, 29]",2,28,"[1, 2, 3, 4, 5, 6, 7, 8, 9, 10, 11, 12, 13, 14, 15, 16, 17, 18, 19, 20, 21, 22, 23, 24, 25, 26, 27, 28]",265.0715016,17002,16887,12,120,8,1.0
basic,40,19,0,0,0,9,"[0, 29, 9]",3,17,"[1, 4, 5, 6, 7, 10, 11, 12, 13, 14, 19, 20, 21, 22, 24, 27, 28]",181.7108394,17865,863,11,65,8,1.0375842971861238
basic,40,19,0,0,0,6,"[0, 29, 9, 6]",4,12,"[4, 7, 10, 11, 13, 14, 20, 21, 22, 24, 27, 28]",140.2741407,18649,784,11,34,8,1.0389786364356892
basic,40,19,0,0,0,28,"[0, 29, 9, 6, 28]",5,5,"[4, 11, 14, 22, 27]",89.18598161,20473,1824,2,4,8,1.2864082671854424
basic,40,19,0,0,0,4,"[0, 29, 9, 6, 28, 4]",6,4,"[11, 14, 22, 27]",78.00564173,21361,888,2,2,8,1.3470045407445053
basic,40,19,0,0,0,14,"[0, 29, 9, 6, 28, 4, 14]",7,1,[11],27.99564273,22417,1056,1,0,8,1.3006971582050546
basic,40,19,0,0,1,11,"[0, 29, 9, 6, 28, 4, 14, 11]",8,0,[],17.1789889,26081,3664,1,0,8,1.289914895833058
basic,40,19,0,1,1,11,"[0, 29, 9, 6, 28, 4, 14, 11]",8,0,[],17.1789889,33883,7802,1,0,8,1.289914895833058
basic,41,6,0,0,0,0,[0],1,29,"[1, 2, 3, 4, 5, 6, 7, 8, 9, 10, 11, 12, 13, 14, 15, 16, 17, 18, 19, 20, 21, 22, 23, 24, 25, 26, 27, 28, 29]",300,116,-1,180,4304,10,0.0
basic,41,6,0,0,0,3,"[0, 3]",2,28,"[1, 2, 4, 5, 6, 7, 8, 9, 10, 11, 12, 13, 14, 15, 16, 17, 18, 19, 20, 21, 22, 23, 24, 25, 26, 27, 28, 29]",266.4738908,19648,19532,90,1607,10,1.0
basic,41,6,0,0,0,7,"[0, 3, 7]",3,24,"[1, 2, 4, 5, 6, 8, 9, 10, 11, 12, 13, 14, 15, 16, 17, 18, 20, 21, 22, 23, 24, 26, 27, 29]",230.3352688,29137,9489,8,253,10,1.450719050884865
basic,41,6,0,0,0,18,"[0, 3, 7, 18]",4,22,"[1, 2, 4, 5, 6, 8, 9, 10, 11, 13, 14, 15, 16, 17, 20, 21, 22, 23, 24, 26, 27, 29]",174.041397,30901,1764,42,192,9,2.068232787093859
basic,41,6,0,0,0,17,"[0, 3, 7, 18, 17]",5,19,"[1, 2, 4, 5, 6, 8, 10, 11, 13, 14, 16, 20, 21, 22, 23, 24, 26, 27, 29]",160.1130087,31696,795,27,77,9,1.982070321020838
basic,41,6,0,0,0,10,"[0, 3, 7, 18, 17, 10]",6,15,"[1, 2, 4, 5, 6, 8, 13, 14, 16, 22, 23, 24, 26, 27, 29]",140.3899258,32850,1154,15,26,9,1.8923582986785734
basic,41,6,0,0,0,24,"[0, 3, 7, 18, 17, 10, 24]",7,12,"[2, 4, 5, 6, 8, 13, 16, 22, 23, 26, 27, 29]",126.9735179,34004,1154,13,7,9,1.7783995013446825
basic,41,6,0,0,0,16,"[0, 3, 7, 18, 17, 10, 24, 16]",8,2,"[23, 29]",70.93781502,35626,1622,2,0,9,3.1734710250747233
basic,41,6,0,0,1,29,"[0, 3, 7, 18, 17, 10, 24, 16, 29]",9,0,[],34.24994237,36842,1216,1,0,9,2.4951132268930403
basic,41,6,0,1,1,29,"[0, 3, 7, 18, 17, 10, 24, 16, 29]",9,0,[],34.24994237,40290,3448,1,0,9,2.4951132268930403
basic,42,0,0,0,0,0,[0],1,27,"[2, 3, 4, 5, 6, 7, 8, 9, 10, 11, 12, 13, 14, 15, 16, 17, 19, 20, 21, 22, 23, 24, 25, 26, 27, 28, 29]",300,114,-1,104,1136,9,0.0
basic,42,0,0,0,0,28,"[0, 28]",2,26,"[2, 3, 4, 5, 6, 7, 8, 9, 10, 11, 12, 13, 14, 15, 16, 17, 19, 20, 21, 22, 23, 24, 25, 26, 27, 29]",194.9190788,4382,4268,39,388,9,1.0
basic,42,0,0,0,0,5,"[0, 28, 5]",3,21,"[2, 3, 4, 7, 8, 9, 11, 12, 13, 14, 15, 16, 17, 19, 20, 21, 23, 24, 25, 26, 29]",151.2613189,6766,2384,27,210,9,1.0978295127671733
basic,42,0,0,0,0,12,"[0, 28, 5, 12]",4,11,"[3, 4, 7, 8, 13, 14, 15, 17, 23, 24, 26]",92.3631016,7774,1008,1,9,8,1.3308690478575147
basic,42,0,0,0,0,26,"[0, 28, 5, 12, 26]",5,5,"[4, 7, 15, 17, 24]",57.1352717,8998,1224,1,3,8,1.503294928431544
basic,42,0,0,0,0,4,"[0, 28, 5, 12, 26, 4]",6,2,"[15, 24]",45.09367712,9543,545,1,1,8,1.6283706077939981
basic,42,0,0,0,0,24,"[0, 28, 5, 12, 26, 4, 24]",7,1,[15],33.69192287,10382,839,1,0,8,1.596262565589366
basic,42,0,0,0,1,15,"[0, 28, 5, 12, 26, 4, 24, 15]",8,0,[],10.34668781,11342,960,1,0,8,1.5323212923915361
basic,42,0,0,1,1,15,"[0, 28, 5, 12, 26, 4, 24, 15]",8,0,[],10.34668781,13528,2186,1,0,8,1.5323212923915361
basic,43,12,0,0,0,0,[0],1,29,"[1, 2, 3, 4, 5, 6, 7, 8, 9, 10, 11, 12, 13, 14, 15, 16, 17, 18, 19, 20, 21, 22, 23, 24, 25, 26, 27, 28, 29]",300,115,-1,2,32,9,0.0
basic,43,12,0,0,0,6,"[0, 6]",2,28,"[1, 2, 3, 4, 5, 7, 8, 9, 10, 11, 12, 13, 14, 15, 16, 17, 18, 19, 20, 21, 22, 23, 24, 25, 26, 27, 28, 29]",283.5987805,29471,29356,2,18,9,1.0
basic,43,12,0,0,0,22,"[0, 6, 22]",3,13,"[2, 4, 5, 7, 12, 13, 14, 16, 19, 23, 24, 25, 27]",182.0015365,33655,4184,2,9,9,1.3408050629015749
basic,43,12,0,0,0,16,"[0, 6, 22, 16]",4,10,"[2, 4, 5, 7, 12, 14, 19, 24, 25, 27]",161.0015365,34431,776,2,7,9,1.5323672374573825
basic,43,12,0,0,0,4,"[0, 6, 22, 16, 4]",5,6,"[12, 14, 19, 24, 25, 27]",126.7962737,35415,984,2,5,9,1.38665076120851
basic,43,12,0,0,0,12,"[0, 6, 22, 16, 4, 12]",6,3,"[14, 24, 27]",84.6062275,37223,1808,2,3,9,1.3036701691846924
basic,43,12,0,0,0,27,"[0, 6, 22, 16, 4, 12, 27]",7,2,"[14, 24]",60.25463618,38058,835,2,0,9,1.401636252408167
basic,43,12,0,0,0,14,"[0, 6, 22, 16, 4, 12, 27, 14]",8,1,[24],31.60153862,39247,1189,1,0,9,1.4415448388010776
basic,43,12,0,0,1,24,"[0, 6, 22, 16, 4, 12, 27, 14, 24]",9,0,[],14.39688808,40168,921,1,0,9,1.6003250998053893
basic,43,12,0,1,1,24,"[0, 6, 22, 16, 4, 12, 27, 14, 24]",9,0,[],14.39688808,41573,1405,1,0,9,1.6003250998053893
basic,44,22,0,0,0,0,[0],1,29,"[1, 2, 3, 4, 5, 6, 7, 8, 9, 10, 11, 12, 13, 14, 15, 16, 17, 18, 19, 20, 21, 22, 23, 24, 25, 26, 27, 28, 29]",300,115,-1,31,704,9,0.0
basic,44,22,0,0,0,29,"[0, 29]",2,22,"[1, 3, 5, 6, 7, 8, 9, 11, 13, 14, 15, 16, 17, 19, 20, 21, 22, 23, 24, 25, 27, 28]",222.9935068,3306,3191,11,235,9,1.0
basic,44,22,0,0,0,19,"[0, 29, 19]",3,18,"[1, 3, 6, 7, 8, 9, 13, 14, 15, 16, 17, 20, 21, 22, 23, 24, 25, 28]",207.9602104,3937,631,11,172,9,1.1559285443414686
basic,44,22,0,0,0,9,"[0, 29, 19, 9]",4,16,"[1, 3, 6, 7, 8, 13, 14, 15, 16, 17, 20, 21, 22, 24, 25, 28]",187.5641323,4752,815,7,84,9,1.2555028175473422
basic,44,22,0,0,0,6,"[0, 29, 19, 9, 6]",5,13,"[3, 7, 13, 14, 15, 16, 17, 20, 21, 22, 24, 25, 28]",160.9370784,8811,4059,17,16,8,1.5692551066355458
basic,44,22,0,0,0,14,"[0, 29, 19, 9, 6, 14]",6,6,"[7, 16, 17, 21, 24, 28]",98.16765912,9816,1005,4,4,8,1.5580516067557377
basic,44,22,0,0,0,7,"[0, 29, 19, 9, 6, 14, 7]",7,3,"[17, 21, 24]",85.12925431,10296,480,3,0,8,1.708500985723867
basic,44,22,0,0,1,17,"[0, 29, 19, 9, 6, 14, 7, 17]",8,0,[],43.51195021,11680,1384,1,0,8,1.6230495434240886
basic,44,22,0,1,1,17,"[0, 29, 19, 9, 6, 14, 7, 17]",8,0,[],43.51195021,15197,3517,1,0,8,1.6230495434240886
basic,45,34,0,0,0,0,[0],1,25,"[1, 3, 4, 5, 6, 7, 8, 9, 10, 11, 12, 13, 15, 18, 19, 20, 21, 22, 23, 24, 25, 26, 27, 28, 29]",300,163,-1,12,367,10,0.0
basic,45,34,0,0,0,13,"[0, 13]",2,24,"[1, 3, 4, 5, 6, 7, 8, 9, 10, 11, 12, 15, 18, 19, 20, 21, 22, 23, 24, 25, 26, 27, 28, 29]",279.9750156,1986,1823,12,331,10,1.0
basic,45,34,0,0,0,1,"[0, 13, 1]",3,16,"[3, 5, 7, 8, 9, 10, 11, 12, 19, 21, 22, 23, 24, 25, 27, 29]",211.8574701,3576,1590,3,92,10,1.0010381285747127
basic,45,34,0,0,0,8,"[0, 13, 1, 8]",4,14,"[3, 5, 7, 9, 10, 11, 12, 19, 22, 23, 24, 25, 27, 29]",201.0871405,5312,1736,2,54,10,1.1636807
basic,45,34,0,0,0,25,"[0, 13, 1, 8, 25]",5,12,"[3, 5, 7, 9, 10, 11, 12, 22, 23, 24, 27, 29]",183.999133,6000,688,2,28,10,1.1396208815936457
basic,45,34,0,0,0,24,"[0, 13, 1, 8, 25, 24]",6,11,"[3, 5, 7, 9, 10, 11, 12, 22, 23, 27, 29]",166.5062774,6888,888,2,23,10,1.374180768736554
basic,45,34,0,0,0,12,"[0, 13, 1, 8, 25, 24, 12]",7,7,"[7, 9, 10, 11, 22, 23, 27]",115.4670767,10227,3339,1,8,10,1.4994254760835948
basic,45,34,0,0,0,7,"[0, 13, 1, 8, 25, 24, 12, 7]",8,5,"[9, 11, 22, 23, 27]",100.4337804,11089,862,1,4,10,1.758992610425009
basic,45,34,0,0,0,23,"[0, 13, 1, 8, 25, 24, 12, 7, 23]",9,1,[27],72.27352467,12163,1074,1,0,10,2.399781305190153
basic,45,34,0,0,1,27,"[0, 13, 1, 8, 25, 24, 12, 7, 23, 27]",10,0,[],18.60789321,13274,1111,1,0,10,4.766619878750327
basic,45,34,0,1,1,27,"[0, 13, 1, 8, 25, 24, 12, 7, 23, 27]",10,0,[],18.60789321,30160,16886,1,0,10,4.766619878750327
basic,46,36,0,0,0,0,[0],1,24,"[2, 4, 5, 6, 7, 8, 9, 10, 12, 13, 14, 15, 16, 17, 18, 19, 20, 22, 23, 25, 26, 27, 28, 29]",300,166,-1,2,200,10,0.0
basic,46,36,0,0,0,18,"[0, 18]",2,21,"[2, 4, 5, 6, 7, 8, 9, 10, 12, 13, 14, 16, 17, 19, 22, 23, 25, 26, 27, 28, 29]",279.6039219,3497,3331,2,110,10,1.0
basic,46,36,0,0,0,12,"[0, 18, 12]",3,19,"[2, 4, 5, 6, 7, 8, 9, 10, 13, 16, 17, 19, 22, 23, 25, 26, 27, 28, 29]",237.0245842,4546,1049,2,86,10,2.836270082716982
basic,46,36,0,0,0,19,"[0, 18, 12, 19]",4,11,"[2, 4, 9, 10, 13, 16, 17, 23, 25, 27, 29]",170.7826036,7492,2946,20,105,9,1.6764523348339884
basic,46,36,0,0,0,9,"[0, 18, 12, 19, 9]",5,7,"[2, 10, 13, 16, 17, 23, 25]",155.6498576,8234,742,11,29,9,2.090056503248548
basic,46,36,0,0,0,17,"[0, 18, 12, 19, 9, 17]",6,5,"[2, 10, 13, 16, 25]",129.4010481,10122,1888,8,5,9,1.805002017615972
basic,46,36,0,0,0,16,"[0, 18, 12, 19, 9, 17, 16]",7,3,"[2, 13, 25]",101.0814436,20283,10161,1,2,9,1.8636152262739494
basic,46,36,0,0,0,2,"[0, 18, 12, 19, 9, 17, 16, 2]",8,1,[25],34.43311281,21363,1080,1,0,9,2.351623238734909
basic,46,36,0,0,1,25,"[0, 18, 12, 19, 9, 17, 16, 2, 25]",9,0,[],9.433112811,23172,1809,1,0,9,2.537919861596611
basic,46,36,0,1,1,25,"[0, 18, 12, 19, 9, 17, 16, 2, 25]",9,0,[],9.433112811,25841,2669,1,0,9,2.537919861596611
basic,47,2,0,0,0,0,[0],1,23,"[1, 2, 4, 5, 6, 7, 8, 9, 12, 13, 15, 16, 17, 18, 19, 20, 22, 23, 25, 26, 27, 28, 29]",300,114,-1,70,620,10,0.0
basic,47,2,0,0,0,16,"[0, 16]",2,19,"[1, 4, 5, 6, 7, 8, 12, 13, 15, 17, 18, 19, 20, 22, 25, 26, 27, 28, 29]",245.6216955,8231,8117,15,108,9,1.0
basic,47,2,0,0,0,19,"[0, 16, 19]",3,16,"[1, 4, 5, 6, 7, 12, 13, 15, 17, 18, 20, 22, 25, 26, 27, 29]",139.6216955,10023,1792,2,22,9,1.7880620823891722
basic,47,2,0,0,0,12,"[0, 16, 19, 12]",4,10,"[1, 5, 6, 7, 13, 15, 18, 22, 26, 29]",103.6078093,11199,1176,2,15,9,1.7353359149339584
basic,47,2,0,0,0,5,"[0, 16, 19, 12, 5]",5,6,"[6, 7, 13, 15, 18, 22]",74.07816317,12151,952,2,9,9,1.5962321530697432
basic,47,2,0,0,0,22,"[0, 16, 19, 12, 5, 22]",6,4,"[7, 13, 15, 18]",61.2719147,12903,752,1,4,9,1.547054373520779
basic,47,2,0,0,0,13,"[0, 16, 19, 12, 5, 22, 13]",7,2,"[7, 18]",46.40584595,14160,1257,1,1,9,1.7143743280834307
basic,47,2,0,0,0,18,"[0, 16, 19, 12, 5, 22, 13, 18]",8,1,[7],11.23483516,15368,1208,1,0,9,1.605986716024382
basic,47,2,0,0,1,7,"[0, 16, 19, 12, 5, 22, 13, 18, 7]",9,0,[],0.939205018,16160,792,1,0,9,1.5740041841157895
basic,47,2,0,1,1,7,"[0, 16, 19, 12, 5, 22, 13, 18, 7]",9,0,[],0.939205018,19183,3023,1,0,9,1.5740041841157895
basic,48,40,0,0,0,0,[0],1,29,"[1, 2, 3, 4, 5, 6, 7, 8, 9, 10, 11, 12, 13, 14, 15, 16, 17, 18, 19, 20, 21, 22, 23, 24, 25, 26, 27, 28, 29]",300,114,-1,8,191,9,0.0
basic,48,40,0,0,0,2,"[0, 2]",2,28,"[1, 3, 4, 5, 6, 7, 8, 9, 10, 11, 12, 13, 14, 15, 16, 17, 18, 19, 20, 21, 22, 23, 24, 25, 26, 27, 28, 29]",263.7646581,6359,6245,4,79,9,1.0
basic,48,40,0,0,0,1,"[0, 2, 1]",3,13,"[5, 6, 8, 9, 10, 13, 17, 18, 19, 21, 22, 23, 27]",197.9695215,8335,1976,3,32,9,1.9563451201211088
basic,48,40,0,0,0,6,"[0, 2, 1, 6]",4,10,"[5, 8, 9, 13, 17, 18, 19, 21, 22, 23]",177.8697703,9238,903,3,29,9,1.767962123020631
basic,48,40,0,0,0,19,"[0, 2, 1, 6, 19]",5,6,"[5, 8, 9, 18, 22, 23]",81.24161705,13248,4010,6,3,7,2.132326244371847
basic,48,40,0,0,0,23,"[0, 2, 1, 6, 19, 23]",6,3,"[5, 9, 18]",49.28852643,14207,959,3,0,7,2.643318442774378
basic,48,40,0,0,1,5,"[0, 2, 1, 6, 19, 23, 5]",7,0,[],20.98658303,18463,4256,1,0,7,2.2687016981069577
basic,48,40,0,1,1,5,"[0, 2, 1, 6, 19, 23, 5]",7,0,[],20.98658303,21135,2672,1,0,7,2.2687016981069577
basic,49,33,0,0,0,0,[0],1,23,"[1, 2, 5, 7, 8, 11, 12, 13, 14, 15, 16, 17, 18, 19, 20, 21, 23, 24, 25, 26, 27, 28, 29]",300,99,-1,5,108,9,0.0
basic,49,33,0,0,0,8,"[0, 8]",2,22,"[1, 2, 5, 7, 11, 12, 13, 14, 15, 16, 17, 18, 19, 20, 21, 23, 24, 25, 26, 27, 28, 29]",265.8679037,2814,2715,5,87,9,1.0
basic,49,33,0,0,0,21,"[0, 8, 21]",3,16,"[2, 5, 7, 11, 13, 14, 16, 17, 18, 19, 20, 24, 26, 27, 28, 29]",166.0430571,4574,1760,5,80,9,1.0670557763739492
basic,49,33,0,0,0,17,"[0, 8, 21, 17]",4,11,"[2, 7, 11, 13, 14, 16, 19, 20, 24, 26, 29]",127.4036989,6040,1466,1,18,9,1.0830294710276618
basic,49,33,0,0,0,13,"[0, 8, 21, 17, 13]",5,10,"[2, 7, 11, 14, 16, 19, 20, 24, 26, 29]",104.6001904,8951,2911,1,10,9,1.2861654105061844
basic,49,33,0,0,0,19,"[0, 8, 21, 17, 13, 19]",6,6,"[7, 14, 16, 24, 26, 29]",79.10509282,10127,1176,1,6,9,1.3181942666818214
basic,49,33,0,0,0,24,"[0, 8, 21, 17, 13, 19, 24]",7,1,[7],37.05750074,11279,1152,1,0,8,1.2914654832859356
basic,49,33,0,0,1,7,"[0, 8, 21, 17, 13, 19, 24, 7]",8,0,[],7.851337003,12503,1224,1,0,8,1.370940443464748
basic,49,33,0,1,1,7,"[0, 8, 21, 17, 13, 19, 24, 7]",8,0,[],7.851337003,13879,1376,1,0,8,1.370940443464748
basic,50,8,0,0,0,0,[0],1,29,"[1, 2, 3, 4, 5, 6, 7, 8, 9, 10, 11, 12, 13, 14, 15, 16, 17, 18, 19, 20, 21, 22, 23, 24, 25, 26, 27, 28, 29]",300,115,-1,10,149,9,0.0
basic,50,8,0,0,0,5,"[0, 5]",2,28,"[1, 2, 3, 4, 6, 7, 8, 9, 10, 11, 12, 13, 14, 15, 16, 17, 18, 19, 20, 21, 22, 23, 24, 25, 26, 27, 28, 29]",254.5137383,3926,3811,10,100,9,1.0
basic,50,8,0,0,0,14,"[0, 5, 14]",3,20,"[1, 2, 3, 4, 6, 7, 11, 15, 16, 17, 18, 19, 20, 21, 22, 23, 24, 25, 28, 29]",214.5512559,4807,881,4,36,9,1.0001019035932595
basic,50,8,0,0,0,17,"[0, 5, 14, 17]",4,15,"[1, 4, 6, 7, 11, 15, 16, 18, 19, 20, 22, 23, 24, 25, 28]",177.5377449,7654,2847,4,16,9,1.121197267659591
basic,50,8,0,0,0,11,"[0, 5, 14, 17, 11]",5,11,"[1, 4, 15, 16, 18, 19, 22, 23, 24, 25, 28]",152.3583883,8495,841,4,8,9,1.1277254166016362
basic,50,8,0,0,0,24,"[0, 5, 14, 17, 11, 24]",6,3,"[15, 16, 28]",115.1428001,9799,1304,2,2,9,1.1227411011978805
basic,50,8,0,0,0,15,"[0, 5, 14, 17, 11, 24, 15]",7,2,"[16, 28]",98.37974552,10816,1017,2,0,9,1.1956385406066814
basic,50,8,0,0,0,16,"[0, 5, 14, 17, 11, 24, 15, 16]",8,1,[28],47.30137436,12055,1239,1,0,9,1.36482239111247
basic,50,8,0,0,1,28,"[0, 5, 14, 17, 11, 24, 15, 16, 28]",9,0,[],24.94069458,13159,1104,1,0,9,1.632953105226947
basic,50,8,0,1,1,28,"[0, 5, 14, 17, 11, 24, 15, 16, 28]",9,0,[],24.94069458,15481,2322,1,0,9,1.632953105226947
basic,51,18,0,0,0,0,[0],1,28,"[1, 2, 3, 4, 5, 6, 7, 8, 9, 10, 11, 12, 13, 14, 16, 17, 18, 19, 20, 21, 22, 23, 24, 25, 26, 27, 28, 29]",300,115,-1,3,136,10,0.0
basic,51,18,0,0,0,28,"[0, 28]",2,16,"[1, 3, 5, 7, 8, 9, 12, 13, 14, 16, 20, 23, 24, 25, 26, 27]",236.4311397,7453,7338,2,19,10,1.0
basic,51,18,0,0,0,7,"[0, 28, 7]",3,15,"[1, 3, 5, 8, 9, 12, 13, 14, 16, 20, 23, 24, 25, 26, 27]",214.4084242,8293,840,2,17,10,1.4345180696367563
basic,51,18,0,0,0,25,"[0, 28, 7, 25]",4,13,"[1, 3, 5, 8, 9, 12, 13, 14, 16, 20, 23, 26, 27]",186.6055466,9213,920,2,15,10,1.8896451241781882
basic,51,18,0,0,0,8,"[0, 28, 7, 25, 8]",5,10,"[3, 5, 9, 12, 13, 14, 16, 23, 26, 27]",149.551532,9917,704,2,10,10,1.590467437592877
basic,51,18,0,0,0,13,"[0, 28, 7, 25, 8, 13]",6,9,"[3, 5, 9, 12, 14, 16, 23, 26, 27]",128.4565089,10981,1064,2,5,10,1.8248274983549797
basic,51,18,0,0,0,14,"[0, 28, 7, 25, 8, 13, 14]",7,7,"[3, 5, 9, 12, 23, 26, 27]",109.4828429,11733,752,2,3,10,1.6993534956692746
basic,51,18,0,0,0,3,"[0, 28, 7, 25, 8, 13, 14, 3]",8,3,"[5, 12, 27]",79.39962499,12590,857,2,1,10,1.802637206541468
basic,51,18,0,0,0,5,"[0, 28, 7, 25, 8, 13, 14, 3, 5]",9,1,[12],21.21887216,13789,1199,1,0,10,1.559774889743805
basic,51,18,0,0,1,12,"[0, 28, 7, 25, 8, 13, 14, 3, 5, 12]",10,0,[],9.817117911,15245,1456,1,0,10,1.563993037384447
basic,51,18,0,1,1,12,"[0, 28, 7, 25, 8, 13, 14, 3, 5, 12]",10,0,[],9.817117911,16932,1687,1,0,10,1.563993037384447
basic,52,41,0,0,0,0,[0],1,29,"[1, 2, 3, 4, 5, 6, 7, 8, 9, 10, 11, 12, 13, 14, 15, 16, 17, 18, 19, 20, 21, 22, 23, 24, 25, 26, 27, 28, 29]",300,114,-1,1,143,10,0.0
basic,52,41,0,0,0,13,"[0, 13]",2,23,"[1, 2, 3, 5, 6, 7, 9, 10, 11, 12, 14, 15, 17, 18, 19, 20, 21, 22, 24, 25, 26, 27, 28]",258.2747079,3737,3623,1,55,10,1.0
basic,52,41,0,0,0,28,"[0, 13, 28]",3,22,"[1, 2, 3, 5, 6, 7, 9, 10, 11, 12, 14, 15, 17, 18, 19, 20, 21, 22, 24, 25, 26, 27]",223.7928286,4575,838,1,39,10,1.895724242592676
basic,52,41,0,0,0,5,"[0, 13, 28, 5]",4,19,"[1, 2, 3, 6, 9, 10, 11, 12, 14, 15, 17, 18, 19, 20, 21, 22, 24, 25, 27]",210.1913581,5311,736,1,34,10,2.861541269398273
basic,52,41,0,0,0,22,"[0, 13, 28, 5, 22]",5,12,"[2, 3, 6, 9, 10, 11, 12, 17, 18, 20, 21, 25]",155.4464953,9079,3768,11,12,9,2.096079268852861
basic,52,41,0,0,0,3,"[0, 13, 28, 5, 22, 3]",6,8,"[2, 9, 10, 12, 17, 18, 20, 21]",125.4798472,10032,953,7,5,9,4.404491319005463
basic,52,41,0,0,0,21,"[0, 13, 28, 5, 22, 3, 21]",7,4,"[2, 9, 12, 17]",93.33952984,10967,935,5,1,9,4.228139797553632
basic,52,41,0,0,0,17,"[0, 13, 28, 5, 22, 3, 21, 17]",8,2,"[2, 9]",41.67716443,13200,2233,2,0,9,4.075283564568108
basic,52,41,0,0,1,9,"[0, 13, 28, 5, 22, 3, 21, 17, 9]",9,0,[],10.66103959,14288,1088,1,0,9,3.515996564079767
basic,52,41,0,1,1,9,"[0, 13, 28, 5, 22, 3, 21, 17, 9]",9,0,[],10.66103959,15663,1375,1,0,9,3.515996564079767
basic,53,27,0,0,0,0,[0],1,26,"[1, 3, 5, 6, 7, 8, 9, 10, 11, 12, 13, 14, 15, 16, 17, 18, 19, 21, 22, 23, 24, 25, 26, 27, 28, 29]",300,149,-1,13,578,11,0.0
basic,53,27,0,0,0,15,"[0, 15]",2,24,"[1, 3, 5, 6, 7, 8, 9, 10, 11, 12, 13, 14, 16, 17, 18, 19, 21, 22, 23, 24, 25, 26, 27, 29]",263.7508621,3095,2946,6,219,11,1.0
basic,53,27,0,0,0,24,"[0, 15, 24]",3,20,"[1, 5, 6, 7, 8, 9, 10, 12, 13, 14, 16, 17, 18, 19, 21, 23, 25, 26, 27, 29]",246.5462115,3976,881,6,130,11,1.130933077698322
basic,53,27,0,0,0,17,"[0, 15, 24, 17]",4,15,"[1, 6, 8, 10, 12, 13, 14, 16, 18, 19, 23, 25, 26, 27, 29]",229.9932662,4783,807,4,60,11,1.1285538435963374
basic,53,27,0,0,0,12,"[0, 15, 24, 17, 12]",5,14,"[1, 6, 8, 10, 13, 14, 16, 18, 19, 23, 25, 26, 27, 29]",218.8129263,5615,832,2,32,11,1.2561880288755216
basic,53,27,0,0,0,10,"[0, 15, 24, 17, 12, 10]",6,11,"[1, 8, 13, 14, 18, 19, 23, 25, 26, 27, 29]",207.7675653,6720,1105,2,28,11,1.2228289337766665
basic,53,27,0,0,0,13,"[0, 15, 24, 17, 12, 10, 13]",7,9,"[1, 8, 14, 18, 19, 23, 26, 27, 29]",167.9178476,9296,2576,2,18,11,1.3421291994761178
basic,53,27,0,0,0,19,"[0, 15, 24, 17, 12, 10, 13, 19]",8,5,"[1, 8, 14, 23, 29]",131.6825057,12720,3424,2,6,11,1.294749956153846
basic,53,27,0,0,0,8,"[0, 15, 24, 17, 12, 10, 13, 19, 8]",9,3,"[14, 23, 29]",116.816437,13760,1040,2,1,11,1.3554286578836865
basic,53,27,0,0,0,14,"[0, 15, 24, 17, 12, 10, 13, 19, 8, 14]",10,1,[29],59.25777126,19105,5345,1,0,11,1.312380420632942
basic,53,27,0,0,1,29,"[0, 15, 24, 17, 12, 10, 13, 19, 8, 14, 29]",11,0,[],14.96330208,20361,1256,1,0,11,1.4680136813839417
basic,53,27,0,1,1,29,"[0, 15, 24, 17, 12, 10, 13, 19, 8, 14, 29]",11,0,[],14.96330208,22772,2411,1,0,11,1.4680136813839417
basic,54,7,0,0,0,0,[0],1,29,"[1, 2, 3, 4, 5, 6, 7, 8, 9, 10, 11, 12, 13, 14, 15, 16, 17, 18, 19, 20, 21, 22, 23, 24, 25, 26, 27, 28, 29]",300,115,-1,3,79,9,0.0
basic,54,7,0,0,0,6,"[0, 6]",2,22,"[2, 4, 5, 7, 8, 9, 10, 11, 13, 14, 15, 16, 18, 19, 20, 21, 22, 23, 24, 25, 27, 28]",231.1160396,11571,11456,1,24,9,1.0
basic,54,7,0,0,0,25,"[0, 6, 25]",3,14,"[2, 4, 5, 7, 13, 14, 15, 16, 18, 19, 20, 21, 23, 28]",163.9371739,12635,1064,1,15,9,1.1491202566384209
basic,54,7,0,0,0,4,"[0, 6, 25, 4]",4,10,"[2, 7, 13, 15, 16, 18, 19, 20, 21, 23]",139.1985401,14523,1888,1,9,9,1.145081852791697
basic,54,7,0,0,0,20,"[0, 6, 25, 4, 20]",5,6,"[2, 7, 13, 16, 18, 19]",119.5516574,15523,1000,1,4,9,1.2036846139155144
basic,54,7,0,0,0,18,"[0, 6, 25, 4, 20, 18]",6,5,"[2, 7, 13, 16, 19]",106.7454089,16563,1040,1,3,9,1.3498144584217913
basic,54,7,0,0,0,7,"[0, 6, 25, 4, 20, 18, 7]",7,2,"[2, 19]",65.51435269,17987,1424,1,1,9,1.2817825700699357
basic,54,7,0,0,0,19,"[0, 6, 25, 4, 20, 18, 7, 19]",8,1,[2],36.10347035,19187,1200,1,0,9,1.3950287830764145
basic,54,7,0,0,1,2,"[0, 6, 25, 4, 20, 18, 7, 19, 2]",9,0,[],5.953843486,20267,1080,1,0,9,1.4010142439340676
basic,54,7,0,1,1,2,"[0, 6, 25, 4, 20, 18, 7, 19, 2]",9,0,[],5.953843486,21886,1619,1,0,9,1.4010142439340676
basic,55,35,0,0,0,0,[0],1,29,"[1, 2, 3, 4, 5, 6, 7, 8, 9, 10, 11, 12, 13, 14, 15, 16, 17, 18, 19, 20, 21, 22, 23, 24, 25, 26, 27, 28, 29]",300,132,-1,5,236,11,0.0
basic,55,35,0,0,0,27,"[0, 27]",2,27,"[1, 2, 4, 5, 6, 7, 8, 9, 10, 11, 12, 13, 14, 15, 16, 17, 18, 19, 20, 21, 22, 23, 24, 25, 26, 28, 29]",278.7867966,2316,2184,5,144,11,1.0
basic,55,35,0,0,0,24,"[0, 27, 24]",3,25,"[1, 2, 4, 5, 6, 7, 8, 9, 10, 11, 12, 13, 15, 16, 17, 18, 19, 20, 21, 22, 23, 25, 26, 28, 29]",234.6053525,3476,1160,3,80,11,2.1084080567904624
basic,55,35,0,0,0,17,"[0, 27, 24, 17]",4,20,"[1, 2, 4, 5, 6, 7, 8, 9, 10, 15, 16, 18, 19, 20, 21, 23, 25, 26, 28, 29]",222.9006526,4044,568,3,50,11,1.9439555968916868
basic,55,35,0,0,0,1,"[0, 27, 24, 17, 1]",5,18,"[2, 4, 5, 6, 8, 9, 10, 15, 16, 18, 19, 20, 21, 23, 25, 26, 28, 29]",207.0892643,4789,745,3,39,11,1.9436711872547336
basic,55,35,0,0,0,15,"[0, 27, 24, 17, 1, 15]",6,16,"[2, 4, 5, 6, 8, 9, 10, 16, 18, 19, 20, 23, 25, 26, 28, 29]",184.241945,6564,1775,3,24,11,2.082774572108194
basic,55,35,0,0,0,9,"[0, 27, 24, 17, 1, 15, 9]",7,6,"[5, 6, 18, 19, 23, 25]",101.9497825,8300,1736,4,9,10,1.7617867155529752
basic,55,35,0,0,0,18,"[0, 27, 24, 17, 1, 15, 9, 18]",8,3,"[6, 23, 25]",81.92479813,11389,3089,4,0,10,1.6953515714929015
basic,55,35,0,0,0,25,"[0, 27, 24, 17, 1, 15, 9, 18, 25]",9,1,[6],48.08694949,12292,903,1,0,10,1.5555820335176815
basic,55,35,0,0,1,6,"[0, 27, 24, 17, 1, 15, 9, 18, 25, 6]",10,0,[],24.0661252,13341,1049,1,0,10,1.824697713291134
basic,55,35,0,1,1,6,"[0, 27, 24, 17, 1, 15, 9, 18, 25, 6]",10,0,[],24.0661252,15731,2390,1,0,10,1.824697713291134
basic,56,31,0,0,0,0,[0],1,27,"[1, 3, 4, 5, 6, 7, 8, 10, 11, 12, 13, 14, 15, 16, 17, 18, 19, 20, 21, 22, 23, 24, 25, 26, 27, 28, 29]",300,116,-1,2,87,10,0.0
basic,56,31,0,0,0,14,"[0, 14]",2,25,"[1, 3, 5, 6, 7, 8, 10, 11, 12, 13, 15, 16, 17, 18, 19, 20, 21, 22, 23, 24, 25, 26, 27, 28, 29]",263.861378,1720,1604,2,59,10,1.0
basic,56,31,0,0,0,27,"[0, 14, 27]",3,22,"[1, 3, 5, 6, 7, 8, 10, 11, 12, 13, 15, 16, 17, 18, 19, 20, 21, 22, 24, 25, 28, 29]",235.6833724,2456,736,1,39,10,1.5881859159302467
basic,56,31,0,0,0,8,"[0, 14, 27, 8]",4,20,"[1, 3, 5, 6, 7, 10, 11, 12, 13, 16, 17, 18, 19, 20, 21, 22, 24, 25, 28, 29]",224.6380114,3056,600,1,36,10,2.1665048452331277
basic,56,31,0,0,0,18,"[0, 14, 27, 8, 18]",5,15,"[1, 5, 6, 7, 11, 12, 13, 16, 17, 19, 20, 22, 25, 28, 29]",188.7911147,6417,3361,1,26,10,1.7273375741920205
basic,56,31,0,0,0,17,"[0, 14, 27, 8, 18, 17]",6,13,"[1, 5, 6, 7, 11, 12, 13, 16, 19, 20, 22, 25, 28]",159.584951,7144,727,1,13,10,1.551192427769927
basic,56,31,0,0,0,11,"[0, 14, 27, 8, 18, 17, 11]",7,7,"[5, 12, 16, 19, 22, 25, 28]",118.4753414,8064,920,1,4,10,2.9650760544203494
basic,56,31,0,0,0,5,"[0, 14, 27, 8, 18, 17, 11, 5]",8,2,"[16, 28]",74.79468207,10120,2056,1,1,10,2.56711965625205
basic,56,31,0,0,0,28,"[0, 14, 27, 8, 18, 17, 11, 5, 28]",9,1,[16],54.57093365,10929,809,1,0,10,2.2865510762058148
basic,56,31,0,0,1,16,"[0, 14, 27, 8, 18, 17, 11, 5, 28, 16]",10,0,[],20.95546102,12361,1432,1,0,10,2.089356850786318
basic,56,31,0,1,1,16,"[0, 14, 27, 8, 18, 17, 11, 5, 28, 16]",10,0,[],20.95546102,14163,1802,1,0,10,2.089356850786318
basic,57,13,0,0,0,0,[0],1,29,"[1, 2, 3, 4, 5, 6, 7, 8, 9, 10, 11, 12, 13, 14, 15, 16, 17, 18, 19, 20, 21, 22, 23, 24, 25, 26, 27, 28, 29]",300,116,-1,60,2676,11,0.0
basic,57,13,0,0,0,9,"[0, 9]",2,28,"[1, 2, 3, 4, 5, 6, 7, 8, 10, 11, 12, 13, 14, 15, 16, 17, 18, 19, 20, 21, 22, 23, 24, 25, 26, 27, 28, 29]",268.9516506,9427,9311,24,557,11,1.0
basic,57,13,0,0,0,21,"[0, 9, 21]",3,27,"[1, 2, 3, 4, 5, 6, 7, 8, 10, 11, 12, 13, 14, 15, 16, 17, 18, 19, 20, 22, 23, 24, 25, 26, 27, 28, 29]",245.6064155,10196,769,23,375,11,1.8983491882127779
basic,57,13,0,0,0,24,"[0, 9, 21, 24]",4,24,"[1, 2, 3, 4, 5, 6, 7, 8, 10, 11, 12, 13, 14, 15, 16, 17, 19, 20, 22, 23, 26, 27, 28, 29]",207.1876701,11380,1184,23,335,11,8.301387152261452
basic,57,13,0,0,0,28,"[0, 9, 21, 24, 28]",5,14,"[1, 2, 3, 6, 7, 11, 12, 13, 16, 17, 19, 23, 26, 29]",140.9004164,12531,1151,14,141,11,2.1592807954160236
basic,57,13,0,0,0,2,"[0, 9, 21, 24, 28, 2]",6,9,"[1, 6, 7, 11, 13, 19, 23, 26, 29]",103.257356,13378,847,9,44,11,1.7952585337512594
basic,57,13,0,0,0,29,"[0, 9, 21, 24, 28, 2, 29]",7,8,"[1, 6, 7, 11, 13, 19, 23, 26]",91.55265609,13970,592,9,15,11,1.8727432445262708
basic,57,13,0,0,0,7,"[0, 9, 21, 24, 28, 2, 29, 7]",8,4,"[6, 11, 23, 26]",76.28831856,15307,1337,5,2,11,2.125292853311899
basic,57,13,0,0,0,26,"[0, 9, 21, 24, 28, 2, 29, 7, 26]",9,3,"[6, 11, 23]",65.84801205,16643,1336,2,1,11,2.4474629048674403
basic,57,13,0,0,0,6,"[0, 9, 21, 24, 28, 2, 29, 7, 26, 6]",10,1,[11],45.74826081,17795,1152,1,0,11,2.341668686775335
basic,57,13,0,0,1,11,"[0, 9, 21, 24, 28, 2, 29, 7, 26, 6, 11]",11,0,[],26.64328764,20108,2313,1,0,11,2.1429363652482034
basic,57,13,0,1,1,11,"[0, 9, 21, 24, 28, 2, 29, 7, 26, 6, 11]",11,0,[],26.64328764,22121,2013,1,0,11,2.1429363652482034
basic,58,45,0,0,0,0,[0],1,24,"[1, 2, 3, 4, 5, 6, 7, 9, 10, 11, 12, 14, 15, 16, 17, 19, 20, 21, 22, 23, 24, 25, 27, 29]",300,99,-1,6,248,10,0.0
basic,58,45,0,0,0,15,"[0, 15]",2,23,"[1, 2, 3, 4, 5, 6, 7, 9, 10, 11, 12, 14, 16, 17, 19, 20, 21, 22, 23, 24, 25, 27, 29]",253.9022777,7585,7486,5,207,10,1.0
basic,58,45,0,0,0,9,"[0, 15, 9]",3,15,"[2, 3, 6, 7, 10, 11, 12, 17, 19, 20, 22, 23, 24, 25, 29]",200.8645553,8553,968,1,30,9,1.0587140791325185
basic,58,45,0,0,0,23,"[0, 15, 9, 23]",4,14,"[2, 3, 6, 7, 10, 11, 12, 17, 19, 20, 22, 24, 25, 29]",164.8090425,9449,896,1,23,9,1.9408288885107587
basic,58,45,0,0,0,20,"[0, 15, 9, 23, 20]",5,11,"[2, 3, 6, 7, 10, 11, 12, 17, 22, 24, 29]",123.3723438,10313,864,1,17,9,1.9170367532686117
basic,58,45,0,0,0,10,"[0, 15, 9, 23, 20, 10]",6,7,"[2, 3, 6, 7, 12, 22, 29]",67.29204425,12674,2361,1,8,9,1.581474602692379
basic,58,45,0,0,0,29,"[0, 15, 9, 23, 20, 10, 29]",7,3,"[2, 3, 6]",45.75138502,14099,1425,1,2,9,1.5786054938745748
basic,58,45,0,0,0,3,"[0, 15, 9, 23, 20, 10, 29, 3]",8,1,[2],25.75138502,20106,6007,1,0,9,1.5288026367478063
basic,58,45,0,0,1,2,"[0, 15, 9, 23, 20, 10, 29, 3, 2]",9,0,[],0.433407222,21811,1705,1,0,9,1.787287097788726
basic,58,45,0,1,1,2,"[0, 15, 9, 23, 20, 10, 29, 3, 2]",9,0,[],0.433407222,23506,1695,1,0,9,1.787287097788726
basic,59,5,0,0,0,0,[0],1,29,"[1, 2, 3, 4, 5, 6, 7, 8, 9, 10, 11, 12, 13, 14, 15, 16, 17, 18, 19, 20, 21, 22, 23, 24, 25, 26, 27, 28, 29]",300,115,-1,5,139,9,0.0
basic,59,5,0,0,0,12,"[0, 12]",2,22,"[2, 4, 5, 6, 8, 9, 10, 13, 14, 15, 16, 17, 18, 19, 21, 22, 23, 24, 25, 26, 27, 28]",228.3062067,6567,6452,1,27,9,1.0
basic,59,5,0,0,0,25,"[0, 12, 25]",3,21,"[2, 4, 5, 6, 8, 9, 10, 13, 14, 15, 16, 17, 18, 19, 21, 22, 23, 24, 26, 27, 28]",200.5213187,7415,848,1,20,9,1.584023303445617
basic,59,5,0,0,0,23,"[0, 12, 25, 23]",4,19,"[2, 4, 5, 6, 8, 9, 10, 13, 14, 15, 16, 17, 18, 19, 21, 22, 24, 26, 27]",182.0822298,8335,920,1,14,9,2.3508446989254357
basic,59,5,0,0,0,24,"[0, 12, 25, 23, 24]",5,15,"[2, 4, 5, 6, 8, 9, 13, 14, 15, 17, 18, 19, 22, 26, 27]",158.995437,9247,912,1,12,9,1.9469752046288753
basic,59,5,0,0,0,17,"[0, 12, 25, 23, 24, 17]",6,7,"[4, 5, 6, 8, 15, 18, 19]",124.0097257,10295,1048,1,8,9,1.6482276497563642
basic,59,5,0,0,0,5,"[0, 12, 25, 23, 24, 17, 5]",7,4,"[4, 6, 15, 18]",80.96323916,12439,2144,1,3,9,1.4654649104389412
basic,59,5,0,0,1,18,"[0, 12, 25, 23, 24, 17, 5, 18]",8,0,[],13.89610861,14071,1632,1,0,8,1.4108688678336447
basic,59,5,0,1,1,18,"[0, 12, 25, 23, 24, 17, 5, 18]",8,0,[],13.89610861,16014,1943,1,0,8,1.4108688678336447
basic,60,39,0,0,0,0,[0],1,28,"[1, 2, 3, 4, 5, 6, 7, 9, 10, 11, 12, 13, 14, 15, 16, 17, 18, 19, 20, 21, 22, 23, 24, 25, 26, 27, 28, 29]",300,132,-1,1,30,10,0.0
basic,60,39,0,0,0,14,"[0, 14]",2,26,"[1, 2, 3, 4, 5, 6, 7, 9, 10, 12, 13, 15, 16, 17, 18, 19, 20, 21, 22, 23, 24, 25, 26, 27, 28, 29]",286.9615952,9081,8949,1,22,10,1.0
basic,60,39,0,0,0,29,"[0, 14, 29]",3,23,"[1, 2, 3, 4, 5, 6, 7, 9, 10, 12, 13, 15, 16, 17, 18, 19, 21, 22, 23, 24, 25, 26, 28]",218.9321898,10105,1024,1,21,10,1.4237768813412561
basic,60,39,0,0,0,12,"[0, 14, 29, 12]",4,16,"[1, 2, 4, 5, 7, 9, 10, 13, 15, 16, 18, 19, 22, 23, 24, 26]",158.3929463,10984,879,1,11,10,1.2085522586932163
basic,60,39,0,0,0,10,"[0, 14, 29, 12, 10]",5,11,"[1, 4, 5, 7, 15, 16, 18, 19, 22, 23, 26]",122.8823845,11920,936,1,8,10,1.4905426536315662
basic,60,39,0,0,0,7,"[0, 14, 29, 12, 10, 7]",6,6,"[1, 16, 18, 19, 22, 26]",89.46083457,12832,912,1,6,10,1.3836596018032035
basic,60,39,0,0,0,26,"[0, 14, 29, 12, 10, 7, 26]",7,3,"[16, 19, 22]",70.77929288,13809,977,1,4,10,1.4191124441944845
basic,60,39,0,0,0,22,"[0, 14, 29, 12, 10, 7, 26, 22]",8,2,"[16, 19]",53.05924773,14705,896,1,1,10,1.594793297833885
basic,60,39,0,0,0,16,"[0, 14, 29, 12, 10, 7, 26, 22, 16]",9,1,[19],18.05924773,15609,904,1,0,10,1.48519520801471
basic,60,39,0,0,1,19,"[0, 14, 29, 12, 10, 7, 26, 22, 16, 19]",10,0,[],0.594998533,16472,863,1,0,10,1.484277847976571
basic,60,39,0,1,1,19,"[0, 14, 29, 12, 10, 7, 26, 22, 16, 19]",10,0,[],0.594998533,18084,1612,1,0,10,1.484277847976571
basic,61,23,0,0,0,0,[0],1,28,"[1, 2, 3, 4, 5, 6, 7, 8, 9, 10, 11, 12, 13, 14, 15, 16, 17, 18, 19, 20, 21, 22, 23, 25, 26, 27, 28, 29]",300,115,-1,76,2626,10,0.0
basic,61,23,0,0,0,22,"[0, 22]",2,24,"[1, 2, 3, 5, 6, 7, 8, 9, 10, 11, 12, 13, 14, 15, 17, 18, 19, 20, 21, 23, 25, 26, 27, 29]",210.5013967,3644,3529,15,1362,10,1.0
basic,61,23,0,0,0,13,"[0, 22, 13]",3,14,"[1, 2, 5, 6, 7, 8, 9, 10, 12, 14, 18, 21, 27, 29]",168.3113504,4699,1055,14,522,10,1.1898173563652046
basic,61,23,0,0,0,12,"[0, 22, 13, 12]",4,11,"[1, 2, 6, 7, 9, 10, 14, 18, 21, 27, 29]",156.2283045,5587,888,12,166,10,1.1727968780218219
basic,61,23,0,0,0,9,"[0, 22, 13, 12, 9]",5,10,"[1, 2, 6, 7, 10, 14, 18, 21, 27, 29]",141.9104834,6675,1088,5,49,10,1.2100380646101494
basic,61,23,0,0,0,14,"[0, 22, 13, 12, 9, 14]",6,8,"[1, 2, 6, 7, 10, 18, 27, 29]",131.4701769,7451,776,2,19,10,1.1961799245073135
basic,61,23,0,0,0,2,"[0, 22, 13, 12, 9, 14, 2]",7,6,"[6, 7, 10, 18, 27, 29]",116.6041081,8164,713,1,8,10,1.343965446549325
basic,61,23,0,0,0,6,"[0, 22, 13, 12, 9, 14, 2, 6]",8,3,"[18, 27, 29]",98.16501923,9172,1008,3,0,9,1.3433890277057379
basic,61,23,0,0,1,27,"[0, 22, 13, 12, 9, 14, 2, 6, 27]",9,0,[],69.86307584,10316,1144,1,0,9,1.607346000085698
basic,61,23,0,1,1,27,"[0, 22, 13, 12, 9, 14, 2, 6, 27]",9,0,[],69.86307584,13212,2896,1,0,9,1.607346000085698
basic,62,26,0,0,0,0,[0],1,29,"[1, 2, 3, 4, 5, 6, 7, 8, 9, 10, 11, 12, 13, 14, 15, 16, 17, 18, 19, 20, 21, 22, 23, 24, 25, 26, 27, 28, 29]",300,115,-1,9,226,9,0.0
basic,62,26,0,0,0,4,"[0, 4]",2,13,"[5, 6, 10, 12, 13, 14, 16, 17, 19, 21, 23, 26, 29]",178.7976898,4943,4828,4,118,8,1.0
basic,62,26,0,0,0,6,"[0, 4, 6]",3,7,"[10, 14, 16, 17, 21, 23, 29]",139.1744643,6551,1608,12,32,7,1.0013336767330427
basic,62,26,0,0,0,14,"[0, 4, 6, 14]",4,5,"[10, 16, 17, 23, 29]",118.1506682,7654,1103,4,7,7,1.1284328871275937
basic,62,26,0,0,0,17,"[0, 4, 6, 14, 17]",5,3,"[10, 16, 29]",95.67846318,8960,1306,2,1,7,1.4379929024589257
basic,62,26,0,0,0,29,"[0, 4, 6, 14, 17, 29]",6,1,[16],65.26465053,10047,1087,1,0,7,1.9210938969602482
basic,62,26,0,0,1,16,"[0, 4, 6, 14, 17, 29, 16]",7,0,[],41.05721366,11247,1200,1,0,7,2.3130958199747207
basic,62,26,0,1,1,16,"[0, 4, 6, 14, 17, 29, 16]",7,0,[],41.05721366,15798,4551,1,0,7,2.3130958199747207
basic,63,1,0,0,0,0,[0],1,26,"[1, 2, 4, 5, 7, 8, 9, 10, 11, 12, 13, 14, 15, 16, 17, 18, 19, 20, 21, 22, 23, 24, 25, 26, 28, 29]",300,115,-1,6,74,7,0.0
basic,63,1,0,0,0,14,"[0, 14]",2,19,"[1, 4, 5, 8, 9, 13, 15, 17, 18, 19, 20, 21, 22, 23, 24, 25, 26, 28, 29]",200.1901808,3888,3773,5,42,7,1.0
basic,63,1,0,0,0,17,"[0, 14, 17]",3,15,"[1, 4, 5, 8, 9, 13, 15, 18, 19, 20, 22, 23, 25, 28, 29]",147.8356204,4919,1031,5,27,7,1.0028844724416826
basic,63,1,0,0,0,1,"[0, 14, 17, 1]",4,12,"[4, 5, 8, 9, 15, 18, 20, 22, 23, 25, 28, 29]",123.4840291,5711,792,5,15,7,1.0264985578353567
basic,63,1,0,0,0,28,"[0, 14, 17, 1, 28]",5,5,"[9, 15, 22, 23, 29]",88.59850198,6584,873,5,3,7,1.0339861575999345
basic,63,1,0,0,0,23,"[0, 14, 17, 1, 28, 23]",6,2,"[15, 22]",51.70676849,17867,11283,2,0,7,1.0327458250705703
basic,63,1,0,0,1,15,"[0, 14, 17, 1, 28, 23, 15]",7,0,[],20.81987807,20356,2489,1,0,7,1.1948681641401226
basic,63,1,0,1,1,15,"[0, 14, 17, 1, 28, 23, 15]",7,0,[],20.81987807,22405,2049,1,0,7,1.1948681641401226
basic,64,28,0,0,0,0,[0],1,27,"[1, 2, 3, 4, 5, 6, 7, 8, 9, 10, 11, 12, 13, 14, 15, 16, 17, 18, 19, 20, 22, 23, 25, 26, 27, 28, 29]",300,131,-1,2,96,9,0.0
basic,64,28,0,0,0,20,"[0, 20]",2,22,"[2, 3, 4, 5, 6, 7, 8, 9, 10, 11, 12, 13, 14, 15, 16, 18, 19, 22, 23, 26, 28, 29]",245.9629757,10396,10265,1,24,9,1.0
basic,64,28,0,0,0,3,"[0, 20, 3]",3,19,"[2, 4, 5, 6, 7, 8, 9, 10, 11, 12, 13, 14, 15, 16, 18, 19, 23, 26, 28]",204.6229224,13076,2680,9,50,8,1.9497218646689283
basic,64,28,0,0,0,5,"[0, 20, 3, 5]",4,13,"[2, 4, 7, 8, 9, 12, 13, 14, 15, 18, 19, 26, 28]",120.5277383,14965,1889,2,20,8,1.3767728943595041
basic,64,28,0,0,0,28,"[0, 20, 3, 5, 28]",5,3,"[4, 8, 9]",53.61735044,22806,7841,4,1,7,1.3338457520112414
basic,64,28,0,0,0,8,"[0, 20, 3, 5, 28, 8]",6,2,"[4, 9]",35.81285662,23548,742,2,0,7,1.3099616318739633
basic,64,28,0,0,1,9,"[0, 20, 3, 5, 28, 8, 9]",7,0,[],20.68011067,24524,976,1,0,7,1.3574581035744457
basic,64,28,0,1,1,9,"[0, 20, 3, 5, 28, 8, 9]",7,0,[],20.68011067,26908,2384,1,0,7,1.3574581035744457
