condition,trial_id,map_id,undoIndicator,submit,checkEnd,currentChoice,chosen_all,n_city_all,n_within_reach,cities_reach,currentBudget,time_all,rt_all,n_opt_paths_all,n_subopt_paths_all,mas_all,tortuosity_all
undo,0,16,0,0,0,0,[0],1,29,"[1, 2, 3, 4, 5, 6, 7, 8, 9, 10, 11, 12, 13, 14, 15, 16, 17, 18, 19, 20, 21, 22, 23, 24, 25, 26, 27, 28, 29]",300,115,-1,13,161,9,0.0
undo,0,16,0,0,0,28,"[0, 28]",2,27,"[1, 2, 3, 4, 5, 7, 8, 9, 10, 11, 12, 13, 14, 15, 16, 17, 18, 19, 20, 21, 22, 23, 24, 25, 26, 27, 29]",284.3475242,5473,5358,11,92,9,1.0
undo,0,16,0,0,0,17,"[0, 28, 17]",3,26,"[1, 2, 3, 4, 5, 7, 8, 9, 10, 11, 12, 13, 14, 15, 16, 18, 19, 20, 21, 22, 23, 24, 25, 26, 27, 29]",219.1555001,6675,1202,10,46,9,1.3773866384707543
undo,0,16,0,0,0,16,"[0, 28, 17, 16]",4,25,"[1, 2, 3, 4, 5, 7, 8, 9, 10, 11, 12, 13, 14, 15, 18, 19, 20, 21, 22, 23, 24, 25, 26, 27, 29]",190.8358956,7466,791,10,34,9,1.3209953830681203
undo,0,16,0,0,0,21,"[0, 28, 17, 16, 21]",5,13,"[3, 5, 7, 8, 9, 10, 12, 15, 20, 22, 25, 26, 29]",146.1816685,8598,1132,4,7,9,1.8136482702070456
undo,0,16,0,0,0,8,"[0, 28, 17, 16, 21, 8]",6,6,"[5, 9, 12, 15, 20, 25]",96.92722704,9865,1267,4,2,9,1.637204572335983
undo,0,16,0,0,0,20,"[0, 28, 17, 16, 21, 8, 20]",7,2,"[9, 25]",39.15179974,10955,1090,2,0,9,1.441590377328759
undo,0,16,0,0,0,25,"[0, 28, 17, 16, 21, 8, 20, 25]",8,1,[9],26.5026891,11825,870,1,0,9,1.484361110265371
undo,0,16,0,0,1,9,"[0, 28, 17, 16, 21, 8, 20, 25, 9]",9,0,[],13.69644062,12553,728,1,0,9,1.4530180692918209
undo,0,16,0,1,1,9,"[0, 28, 17, 16, 21, 8, 20, 25, 9]",9,0,[],13.69644062,14376,1823,1,0,9,1.4530180692918209
undo,1,21,0,0,0,0,[0],1,29,"[1, 2, 3, 4, 5, 6, 7, 8, 9, 10, 11, 12, 13, 14, 15, 16, 17, 18, 19, 20, 21, 22, 23, 24, 25, 26, 27, 28, 29]",300,148,-1,84,830,9,0.0
undo,1,21,0,0,0,25,"[0, 25]",2,26,"[1, 2, 3, 4, 5, 6, 7, 8, 9, 10, 11, 12, 13, 14, 15, 16, 17, 18, 20, 21, 22, 23, 24, 26, 27, 29]",240.1836143,4594,4446,30,238,9,1.0
undo,1,21,0,0,0,23,"[0, 25, 23]",3,21,"[1, 2, 4, 6, 7, 8, 9, 10, 11, 12, 14, 15, 16, 17, 18, 20, 21, 22, 24, 27, 29]",196.8592562,5225,631,14,80,9,1.0416131642057598
undo,1,21,0,0,0,21,"[0, 25, 23, 21]",4,14,"[1, 4, 6, 8, 9, 14, 15, 16, 17, 18, 20, 22, 24, 29]",167.2450705,6177,952,10,25,9,1.4768792067751173
undo,1,21,0,0,0,14,"[0, 25, 23, 21, 14]",5,10,"[4, 8, 9, 15, 16, 17, 18, 22, 24, 29]",141.6325735,7010,833,8,13,9,1.3826076066332742
undo,1,21,0,0,0,4,"[0, 25, 23, 21, 14, 4]",6,7,"[8, 15, 16, 17, 18, 24, 29]",127.4904379,7700,690,8,3,9,1.3487191473328533
undo,1,21,0,0,0,16,"[0, 25, 23, 21, 14, 4, 16]",7,3,"[8, 15, 24]",82.89223163,9312,1612,4,1,9,1.3301484172843694
undo,1,21,0,0,0,8,"[0, 25, 23, 21, 14, 4, 16, 8]",8,2,"[15, 24]",64.2911564,10375,1063,2,0,9,1.3009886562393016
undo,1,21,0,0,1,15,"[0, 25, 23, 21, 14, 4, 16, 8, 15]",9,0,[],39.2911564,11320,945,1,0,9,1.5486591410600183
undo,1,21,0,1,1,15,"[0, 25, 23, 21, 14, 4, 16, 8, 15]",9,0,[],39.2911564,12547,1227,1,0,9,1.5486591410600183
undo,2,39,0,0,0,0,[0],1,28,"[1, 2, 3, 4, 5, 6, 7, 9, 10, 11, 12, 13, 14, 15, 16, 17, 18, 19, 20, 21, 22, 23, 24, 25, 26, 27, 28, 29]",300,116,-1,1,30,10,0.0
undo,2,39,0,0,0,29,"[0, 29]",2,26,"[1, 2, 3, 4, 5, 6, 7, 9, 10, 12, 13, 14, 15, 16, 17, 18, 19, 20, 21, 22, 23, 24, 25, 26, 27, 28]",243.0614366,4330,4214,8,104,9,1.0
undo,2,39,0,0,0,12,"[0, 29, 12]",3,18,"[1, 2, 4, 5, 7, 9, 10, 13, 14, 15, 16, 18, 19, 22, 23, 24, 26, 28]",182.5221931,5339,1009,5,54,9,1.0026200331524904
undo,2,39,0,0,0,10,"[0, 29, 12, 10]",4,16,"[1, 2, 4, 5, 7, 9, 13, 14, 15, 16, 18, 19, 22, 23, 24, 26]",147.0116313,6213,874,5,34,9,1.2874817019928908
undo,2,39,0,0,0,7,"[0, 29, 12, 10, 7]",5,10,"[1, 2, 5, 13, 16, 18, 19, 22, 24, 26]",113.5900814,7260,1047,4,12,9,1.2250826263866774
undo,2,39,0,0,0,26,"[0, 29, 12, 10, 7, 26]",6,5,"[1, 16, 18, 19, 22]",94.90853971,8010,750,3,4,9,1.2697275353190085
undo,2,39,0,0,0,22,"[0, 29, 12, 10, 7, 26, 22]",7,2,"[16, 19]",77.18849457,8507,497,2,0,9,1.438961743955176
undo,2,39,0,0,0,16,"[0, 29, 12, 10, 7, 26, 22, 16]",8,1,[19],42.18849457,9894,1387,1,0,9,1.3580882130477205
undo,2,39,0,0,1,19,"[0, 29, 12, 10, 7, 26, 22, 16, 19]",9,0,[],24.72424537,10626,732,1,0,9,1.3646589157842668
undo,2,39,0,1,1,19,"[0, 29, 12, 10, 7, 26, 22, 16, 19]",9,0,[],24.72424537,11252,626,1,0,9,1.3646589157842668
undo,3,24,0,0,0,0,[0],1,29,"[1, 2, 3, 4, 5, 6, 7, 8, 9, 10, 11, 12, 13, 14, 15, 16, 17, 18, 19, 20, 21, 22, 23, 24, 25, 26, 27, 28, 29]",300,115,-1,4,76,10,0.0
undo,3,24,0,0,0,14,"[0, 14]",2,27,"[1, 2, 3, 4, 5, 6, 8, 9, 10, 11, 12, 13, 15, 16, 17, 18, 19, 20, 21, 22, 23, 24, 25, 26, 27, 28, 29]",278.0455016,7004,6889,4,54,10,1.0
undo,3,24,0,0,0,2,"[0, 14, 2]",3,15,"[4, 6, 8, 10, 15, 16, 17, 18, 19, 20, 22, 23, 24, 28, 29]",229.9414477,8829,1825,35,48,7,1.4963765161513798
undo,3,24,0,0,0,10,"[0, 14, 2, 10]",4,8,"[6, 8, 15, 16, 20, 22, 24, 29]",147.1767209,9884,1055,8,10,7,2.171258406361039
undo,3,24,0,0,0,24,"[0, 14, 2, 10, 24]",5,2,"[6, 20]",93.83817952,10959,1075,2,0,6,1.7201068500559236
undo,3,24,0,0,1,6,"[0, 14, 2, 10, 24, 6]",6,0,[],56.50187011,11953,994,1,0,6,2.133569351426306
undo,3,24,1,0,0,24,"[0, 14, 2, 10, 24]",5,2,"[6, 20]",93.83817952,13361,1408,2,0,6,1.7201068500559236
undo,3,24,1,0,0,10,"[0, 14, 2, 10]",4,8,"[6, 8, 15, 16, 20, 22, 24, 29]",147.1767209,13560,199,8,10,7,2.171258406361039
undo,3,24,1,0,0,2,"[0, 14, 2]",3,15,"[4, 6, 8, 10, 15, 16, 17, 18, 19, 20, 22, 23, 24, 28, 29]",229.9414477,13710,150,35,48,7,1.4963765161513798
undo,3,24,1,0,0,14,"[0, 14]",2,27,"[1, 2, 3, 4, 5, 6, 8, 9, 10, 11, 12, 13, 15, 16, 17, 18, 19, 20, 21, 22, 23, 24, 25, 26, 27, 28, 29]",278.0455016,13894,184,4,54,10,1.0
undo,3,24,1,0,0,0,[0],1,29,"[1, 2, 3, 4, 5, 6, 7, 8, 9, 10, 11, 12, 13, 14, 15, 16, 17, 18, 19, 20, 21, 22, 23, 24, 25, 26, 27, 28, 29]",300,14076,182,4,76,10,0.0
undo,3,24,0,0,0,16,"[0, 16]",2,28,"[1, 2, 3, 4, 5, 6, 7, 8, 9, 10, 11, 12, 13, 14, 15, 17, 18, 19, 20, 21, 22, 23, 24, 25, 26, 27, 28, 29]",210.3562607,16750,2674,13,110,9,1.0
undo,3,24,0,0,0,22,"[0, 16, 22]",3,27,"[1, 2, 3, 4, 5, 6, 7, 8, 9, 10, 11, 12, 13, 14, 15, 17, 18, 19, 20, 21, 23, 24, 25, 26, 27, 28, 29]",192.3285043,17413,663,7,54,9,1.0217425143037777
undo,3,24,0,0,0,8,"[0, 16, 22, 8]",4,21,"[1, 2, 3, 4, 6, 9, 10, 11, 13, 14, 15, 17, 20, 21, 23, 24, 25, 26, 27, 28, 29]",178.9120964,17879,466,4,28,9,1.0996636936037951
undo,3,24,0,0,0,15,"[0, 16, 22, 8, 15]",5,16,"[3, 4, 6, 9, 10, 11, 13, 14, 17, 23, 24, 25, 26, 27, 28, 29]",148.025206,18622,743,3,17,9,1.2704773343758617
undo,3,24,0,0,0,28,"[0, 16, 22, 8, 15, 28]",6,8,"[3, 4, 9, 11, 13, 23, 26, 27]",102.7482803,21125,2503,3,5,9,1.1981967578189556
undo,3,24,0,0,0,23,"[0, 16, 22, 8, 15, 28, 23]",7,3,"[9, 11, 27]",83.72198273,22519,1394,3,1,9,1.2275650852813986
undo,3,24,0,0,0,11,"[0, 16, 22, 8, 15, 28, 23, 11]",8,2,"[9, 27]",56.79615869,23677,1158,2,0,9,1.2107937989822568
undo,3,24,0,0,1,9,"[0, 16, 22, 8, 15, 28, 23, 11, 9]",9,0,[],24.5471277,24692,1015,1,0,9,1.2976612913524237
undo,3,24,0,1,1,9,"[0, 16, 22, 8, 15, 28, 23, 11, 9]",9,0,[],24.5471277,25943,1251,1,0,9,1.2976612913524237
undo,4,12,0,0,0,0,[0],1,29,"[1, 2, 3, 4, 5, 6, 7, 8, 9, 10, 11, 12, 13, 14, 15, 16, 17, 18, 19, 20, 21, 22, 23, 24, 25, 26, 27, 28, 29]",300,113,-1,2,32,9,0.0
undo,4,12,0,0,0,25,"[0, 25]",2,16,"[2, 4, 5, 6, 7, 9, 12, 14, 16, 18, 19, 22, 23, 24, 27, 28]",225.7975742,5626,5513,5,34,8,1.0
undo,4,12,0,0,0,22,"[0, 25, 22]",3,11,"[2, 4, 5, 6, 7, 12, 14, 16, 19, 24, 27]",153.5964661,7354,1728,1,10,8,1.6635691148622656
undo,4,12,0,0,0,16,"[0, 25, 22, 16]",4,7,"[4, 6, 12, 14, 19, 24, 27]",132.5964661,8060,706,1,6,8,1.8455145785330662
undo,4,12,0,0,0,4,"[0, 25, 22, 16, 4]",5,5,"[12, 14, 19, 24, 27]",98.39120339,8901,841,1,4,8,1.6140587576122385
undo,4,12,0,0,0,12,"[0, 25, 22, 16, 4, 12]",6,2,"[14, 27]",56.20115717,9806,905,1,1,8,1.4755917731057815
undo,4,12,0,0,0,27,"[0, 25, 22, 16, 4, 12, 27]",7,1,[14],31.84956584,10996,1190,1,0,8,1.5677023473114235
undo,4,12,0,0,1,14,"[0, 25, 22, 16, 4, 12, 27, 14]",8,0,[],3.196468279,11797,801,1,0,8,1.5941060060123788
undo,4,12,0,1,1,14,"[0, 25, 22, 16, 4, 12, 27, 14]",8,0,[],3.196468279,12662,865,1,0,8,1.5941060060123788
undo,5,37,0,0,0,0,[0],1,29,"[1, 2, 3, 4, 5, 6, 7, 8, 9, 10, 11, 12, 13, 14, 15, 16, 17, 18, 19, 20, 21, 22, 23, 24, 25, 26, 27, 28, 29]",300,115,-1,6,168,10,0.0
undo,5,37,0,0,0,19,"[0, 19]",2,19,"[1, 2, 4, 5, 6, 7, 9, 10, 11, 15, 17, 18, 20, 21, 22, 25, 26, 28, 29]",185.6627795,2441,2326,25,244,9,1.0
undo,5,37,0,0,0,21,"[0, 19, 21]",3,14,"[1, 2, 4, 7, 10, 11, 15, 17, 18, 20, 22, 25, 26, 29]",144.5531699,3279,838,10,75,9,1.001632816594558
undo,5,37,0,0,0,26,"[0, 19, 21, 26]",4,7,"[1, 2, 4, 15, 20, 25, 29]",114.8210324,4049,770,1,7,9,1.0575441347422592
undo,5,37,0,0,0,15,"[0, 19, 21, 26, 15]",5,4,"[1, 2, 4, 20]",80.28120031,5018,969,1,5,9,1.3204483696436145
undo,5,37,0,0,0,20,"[0, 19, 21, 26, 15, 20]",6,3,"[1, 2, 4]",63.28120031,5657,639,1,3,9,1.5792136089554665
undo,5,37,0,0,0,1,"[0, 19, 21, 26, 15, 20, 1]",7,2,"[2, 4]",29.04671477,6386,729,1,1,9,1.7114356196447176
undo,5,37,0,0,1,4,"[0, 19, 21, 26, 15, 20, 1, 4]",8,0,[],11.32666962,6918,532,1,0,8,1.7760897770639614
undo,5,37,0,1,1,4,"[0, 19, 21, 26, 15, 20, 1, 4]",8,0,[],11.32666962,8375,1457,1,0,8,1.7760897770639614
undo,6,35,0,0,0,0,[0],1,29,"[1, 2, 3, 4, 5, 6, 7, 8, 9, 10, 11, 12, 13, 14, 15, 16, 17, 18, 19, 20, 21, 22, 23, 24, 25, 26, 27, 28, 29]",300,115,-1,5,236,11,0.0
undo,6,35,0,0,0,24,"[0, 24]",2,27,"[1, 2, 4, 5, 6, 7, 8, 9, 10, 11, 12, 13, 14, 15, 16, 17, 18, 19, 20, 21, 22, 23, 25, 26, 27, 28, 29]",268.9838752,2586,2471,49,512,10,1.0
undo,6,35,0,0,0,27,"[0, 24, 27]",3,21,"[1, 2, 4, 5, 6, 7, 8, 9, 10, 13, 15, 16, 17, 18, 19, 21, 22, 23, 25, 26, 28]",224.8024311,3451,865,16,114,9,3.5448473931955085
undo,6,35,0,0,0,17,"[0, 24, 27, 17]",4,16,"[1, 2, 4, 5, 6, 9, 10, 15, 16, 18, 19, 21, 23, 25, 26, 28]",176.2946998,4353,902,16,56,9,3.1190615588654946
undo,6,35,0,0,0,1,"[0, 24, 27, 17, 1]",5,13,"[2, 4, 5, 6, 9, 10, 15, 18, 19, 23, 25, 26, 28]",160.4833114,4940,587,14,33,9,2.918656985438239
undo,6,35,0,0,0,15,"[0, 24, 27, 17, 1, 15]",6,10,"[2, 5, 6, 9, 18, 19, 23, 25, 26, 28]",137.6359921,5774,834,7,12,9,2.9213312808313323
undo,6,35,0,0,0,5,"[0, 24, 27, 17, 1, 15, 5]",7,2,"[23, 26]",81.31548077,8052,2278,2,0,8,1.9593467822275124
undo,6,35,0,0,1,23,"[0, 24, 27, 17, 1, 15, 5, 23]",8,0,[],26.86366721,9172,1120,1,0,8,2.5689958323962334
undo,6,35,0,1,1,23,"[0, 24, 27, 17, 1, 15, 5, 23]",8,0,[],26.86366721,10187,1015,1,0,8,2.5689958323962334
undo,7,6,0,0,0,0,[0],1,29,"[1, 2, 3, 4, 5, 6, 7, 8, 9, 10, 11, 12, 13, 14, 15, 16, 17, 18, 19, 20, 21, 22, 23, 24, 25, 26, 27, 28, 29]",300,115,-1,180,4304,10,0.0
undo,7,6,0,0,0,26,"[0, 26]",2,25,"[1, 2, 3, 4, 5, 6, 7, 8, 9, 10, 11, 12, 13, 14, 15, 16, 17, 18, 20, 21, 22, 23, 24, 27, 29]",250.2606795,3365,3250,45,776,10,1.0
undo,7,6,0,0,0,2,"[0, 26, 2]",3,20,"[1, 3, 4, 5, 6, 7, 8, 9, 10, 13, 14, 16, 17, 18, 21, 22, 23, 24, 27, 29]",220.4278118,4205,840,20,184,10,1.003152463832065
undo,7,6,0,0,0,7,"[0, 26, 2, 7]",4,18,"[1, 3, 4, 6, 8, 9, 10, 13, 14, 16, 17, 18, 21, 22, 23, 24, 27, 29]",179.3182022,5093,888,20,157,10,2.5131135963314413
undo,7,6,0,0,0,3,"[0, 26, 2, 7, 3]",5,13,"[1, 6, 8, 10, 13, 16, 17, 18, 21, 22, 23, 24, 29]",143.1795802,5910,817,18,67,10,4.677560963942129
undo,7,6,0,0,0,18,"[0, 26, 2, 7, 3, 18]",6,10,"[1, 6, 10, 13, 16, 17, 22, 23, 24, 29]",114.1795802,6687,777,9,21,10,3.0511602668529507
undo,7,6,0,0,0,17,"[0, 26, 2, 7, 3, 18, 17]",7,7,"[6, 10, 13, 16, 23, 24, 29]",100.2511919,7172,485,4,9,10,2.830257342122825
undo,7,6,0,0,0,10,"[0, 26, 2, 7, 3, 18, 17, 10]",8,4,"[16, 23, 24, 29]",80.52810898,7636,464,2,3,10,2.602087972078497
undo,7,6,0,0,0,24,"[0, 26, 2, 7, 3, 18, 17, 10, 24]",9,2,"[16, 23]",67.11170111,8956,1320,2,0,10,2.393670781421888
undo,7,6,0,0,1,16,"[0, 26, 2, 7, 3, 18, 17, 10, 24, 16]",10,0,[],11.07599821,10148,1192,1,0,10,4.002808006957843
undo,7,6,0,1,1,16,"[0, 26, 2, 7, 3, 18, 17, 10, 24, 16]",10,0,[],11.07599821,11234,1086,1,0,10,4.002808006957843
undo,8,14,0,0,0,0,[0],1,29,"[1, 2, 3, 4, 5, 6, 7, 8, 9, 10, 11, 12, 13, 14, 15, 16, 17, 18, 19, 20, 21, 22, 23, 24, 25, 26, 27, 28, 29]",300,115,-1,8,157,10,0.0
undo,8,14,0,0,0,15,"[0, 15]",2,20,"[1, 2, 3, 4, 7, 8, 9, 13, 17, 18, 19, 20, 21, 22, 23, 25, 26, 27, 28, 29]",216.7053423,2721,2606,8,102,10,1.0
undo,8,14,0,0,0,28,"[0, 15, 28]",3,17,"[1, 2, 3, 4, 7, 8, 9, 13, 17, 18, 19, 20, 22, 23, 25, 26, 27]",197.4959696,3612,891,8,48,10,1.0446007867311968
undo,8,14,0,0,0,17,"[0, 15, 28, 17]",4,14,"[1, 2, 3, 4, 7, 8, 13, 18, 19, 20, 22, 23, 25, 26]",184.0423455,4250,638,8,39,10,1.0729463354689972
undo,8,14,0,0,0,18,"[0, 15, 28, 17, 18]",5,9,"[1, 2, 4, 7, 8, 19, 23, 25, 26]",119.412631,5243,993,8,27,10,1.5035901079219378
undo,8,14,0,0,0,8,"[0, 15, 28, 17, 18, 8]",6,8,"[1, 2, 4, 7, 19, 23, 25, 26]",105.8111605,5721,478,8,18,10,1.4819689987843856
undo,8,14,0,0,0,19,"[0, 15, 28, 17, 18, 8, 19]",7,5,"[1, 7, 23, 25, 26]",85.19563238,6411,690,4,9,10,1.4526746797093781
undo,8,14,0,0,0,1,"[0, 15, 28, 17, 18, 8, 19, 1]",8,4,"[7, 23, 25, 26]",69.96408617,7300,889,3,1,10,1.4876985459270997
undo,8,14,0,0,0,25,"[0, 15, 28, 17, 18, 8, 19, 1, 25]",9,1,[7],21.95367064,8399,1099,1,0,10,1.6986918331790049
undo,8,14,0,0,1,7,"[0, 15, 28, 17, 18, 8, 19, 1, 25, 7]",10,0,[],2.255955032,9464,1065,1,0,10,1.7048774420055028
undo,8,14,0,1,1,7,"[0, 15, 28, 17, 18, 8, 19, 1, 25, 7]",10,0,[],2.255955032,11118,1654,1,0,10,1.7048774420055028
undo,9,23,0,0,0,0,[0],1,28,"[1, 2, 3, 4, 5, 6, 7, 8, 9, 10, 11, 12, 13, 14, 15, 16, 17, 18, 19, 20, 21, 22, 23, 25, 26, 27, 28, 29]",300,115,-1,76,2626,10,0.0
undo,9,23,0,0,0,13,"[0, 13]",2,19,"[1, 2, 3, 5, 6, 7, 8, 9, 10, 12, 14, 17, 18, 19, 21, 22, 23, 27, 29]",189.3202819,1866,1751,9,168,10,1.0
undo,9,23,0,0,0,12,"[0, 13, 12]",3,16,"[1, 2, 3, 6, 7, 8, 9, 10, 14, 17, 18, 21, 22, 23, 27, 29]",177.2372359,2283,417,9,96,10,1.0014195490503164
undo,9,23,0,0,0,2,"[0, 13, 12, 2]",4,12,"[1, 3, 6, 7, 9, 10, 14, 18, 21, 22, 27, 29]",163.3447919,2929,646,4,30,10,1.0014394317924602
undo,9,23,0,0,0,6,"[0, 13, 12, 2, 6]",5,8,"[7, 9, 10, 14, 18, 22, 27, 29]",144.905703,3694,765,2,11,10,1.0322887343644427
undo,9,23,0,0,0,9,"[0, 13, 12, 2, 6, 9]",6,7,"[7, 10, 14, 18, 22, 27, 29]",113.76088,4625,931,1,4,10,1.4254988513229307
undo,9,23,0,0,0,14,"[0, 13, 12, 2, 6, 9, 14]",7,5,"[7, 10, 22, 27, 29]",103.3205735,5208,583,1,3,10,1.3959783331838773
undo,9,23,0,0,0,29,"[0, 13, 12, 2, 6, 9, 14, 29]",8,2,"[7, 10]",55.8864086,6144,936,1,1,10,1.5830186628364178
undo,9,23,0,0,0,7,"[0, 13, 12, 2, 6, 9, 14, 29, 7]",9,1,[10],31.80321944,6907,763,1,0,10,1.5946024925098619
undo,9,23,0,0,1,10,"[0, 13, 12, 2, 6, 9, 14, 29, 7, 10]",10,0,[],4.344159007,7551,644,1,0,10,1.5468978194319851
undo,9,23,0,1,1,10,"[0, 13, 12, 2, 6, 9, 14, 29, 7, 10]",10,0,[],4.344159007,9173,1622,1,0,10,1.5468978194319851
undo,10,41,0,0,0,0,[0],1,29,"[1, 2, 3, 4, 5, 6, 7, 8, 9, 10, 11, 12, 13, 14, 15, 16, 17, 18, 19, 20, 21, 22, 23, 24, 25, 26, 27, 28, 29]",300,115,-1,1,143,10,0.0
undo,10,41,0,0,0,21,"[0, 21]",2,28,"[1, 2, 3, 4, 5, 6, 7, 8, 9, 10, 11, 12, 13, 14, 15, 16, 17, 18, 19, 20, 22, 23, 24, 25, 26, 27, 28, 29]",251.1226024,1972,1857,50,469,8,1.0
undo,10,41,0,0,0,3,"[0, 21, 3]",3,26,"[1, 2, 5, 6, 7, 8, 9, 10, 11, 12, 13, 14, 15, 16, 17, 18, 19, 20, 22, 23, 24, 25, 26, 27, 28, 29]",218.982285,2599,627,16,151,8,2.044702670024013
undo,10,41,0,0,0,5,"[0, 21, 3, 5]",4,16,"[1, 2, 6, 9, 10, 12, 13, 14, 17, 18, 20, 22, 24, 25, 27, 28]",184.1541355,3204,605,8,39,8,3.691156164291917
undo,10,41,0,0,0,28,"[0, 21, 3, 5, 28]",5,12,"[2, 6, 9, 10, 12, 13, 17, 18, 20, 22, 24, 27]",170.552665,4725,1521,7,18,8,3.22012281246428
undo,10,41,0,0,0,13,"[0, 21, 3, 5, 28, 13]",6,8,"[2, 9, 10, 17, 18, 20, 22, 27]",136.0707857,5579,854,4,5,8,3.9287733192187955
undo,10,41,0,0,1,22,"[0, 21, 3, 5, 28, 13, 22]",7,0,[],40.54591979,6371,792,1,0,7,3.7621800998607573
undo,10,41,1,0,0,13,"[0, 21, 3, 5, 28, 13]",6,8,"[2, 9, 10, 17, 18, 20, 22, 27]",136.0707857,8608,2237,4,5,8,3.9287733192187955
undo,10,41,1,0,0,28,"[0, 21, 3, 5, 28]",5,12,"[2, 6, 9, 10, 12, 13, 17, 18, 20, 22, 24, 27]",170.552665,8741,133,7,18,8,3.22012281246428
undo,10,41,1,0,0,5,"[0, 21, 3, 5]",4,16,"[1, 2, 6, 9, 10, 12, 13, 14, 17, 18, 20, 22, 24, 25, 27, 28]",184.1541355,8891,150,8,39,8,3.691156164291917
undo,10,41,1,0,0,3,"[0, 21, 3]",3,26,"[1, 2, 5, 6, 7, 8, 9, 10, 11, 12, 13, 14, 15, 16, 17, 18, 19, 20, 22, 23, 24, 25, 26, 27, 28, 29]",218.982285,9023,132,16,151,8,2.044702670024013
undo,10,41,1,0,0,21,"[0, 21]",2,28,"[1, 2, 3, 4, 5, 6, 7, 8, 9, 10, 11, 12, 13, 14, 15, 16, 17, 18, 19, 20, 22, 23, 24, 25, 26, 27, 28, 29]",251.1226024,9173,150,50,469,8,1.0
undo,10,41,1,0,0,0,[0],1,29,"[1, 2, 3, 4, 5, 6, 7, 8, 9, 10, 11, 12, 13, 14, 15, 16, 17, 18, 19, 20, 21, 22, 23, 24, 25, 26, 27, 28, 29]",300,9306,133,1,143,10,0.0
undo,10,41,0,0,0,5,"[0, 5]",2,27,"[1, 2, 3, 6, 7, 8, 9, 10, 11, 12, 13, 14, 15, 16, 17, 18, 19, 20, 21, 22, 23, 24, 25, 26, 27, 28, 29]",268.6152903,12220,2914,38,328,9,1.0
undo,10,41,0,0,0,28,"[0, 5, 28]",3,25,"[1, 2, 3, 6, 7, 8, 9, 10, 11, 12, 13, 14, 15, 16, 17, 18, 19, 20, 21, 22, 23, 24, 25, 26, 27]",255.0138198,12670,450,28,163,9,1.1190730586122064
undo,10,41,0,0,0,3,"[0, 5, 28, 3]",4,24,"[1, 2, 6, 7, 8, 9, 10, 11, 12, 13, 14, 15, 16, 17, 18, 19, 20, 21, 22, 23, 24, 25, 26, 27]",206.909766,13386,716,15,68,9,2.349385563551875
undo,10,41,0,0,0,21,"[0, 5, 28, 3, 21]",5,19,"[1, 2, 6, 9, 10, 11, 12, 13, 14, 15, 17, 18, 19, 20, 22, 24, 25, 26, 27]",174.7694486,13971,585,9,33,9,2.562136231636287
undo,10,41,0,0,0,17,"[0, 5, 28, 3, 21, 17]",6,12,"[1, 2, 9, 10, 12, 13, 14, 15, 22, 24, 26, 27]",123.1070832,14995,1024,6,10,9,2.790650679150694
undo,10,41,0,0,0,9,"[0, 5, 28, 3, 21, 17, 9]",7,4,"[2, 10, 12, 14]",92.09095834,16234,1239,3,3,9,2.526474399029507
undo,10,41,0,0,0,2,"[0, 5, 28, 3, 21, 17, 9, 2]",8,3,"[10, 12, 14]",80.00791237,16730,496,3,0,9,2.431482738841637
undo,10,41,0,0,1,10,"[0, 5, 28, 3, 21, 17, 9, 2, 10]",9,0,[],7.172481432,17939,1209,1,0,9,3.461356876323921
undo,10,41,0,1,1,10,"[0, 5, 28, 3, 21, 17, 9, 2, 10]",9,0,[],7.172481432,18780,841,1,0,9,3.461356876323921
undo,11,30,0,0,0,0,[0],1,19,"[3, 4, 5, 7, 9, 11, 16, 17, 18, 19, 20, 21, 22, 24, 25, 26, 27, 28, 29]",300,115,-1,5,41,8,0.0
undo,11,30,0,0,0,26,"[0, 26]",2,15,"[3, 5, 9, 11, 16, 17, 18, 19, 20, 21, 22, 25, 27, 28, 29]",208.2939479,2701,2586,5,27,6,1.0
undo,11,30,0,0,0,16,"[0, 26, 16]",3,9,"[3, 9, 11, 17, 20, 22, 25, 27, 28]",165.8439773,3478,777,2,8,6,1.6640006669138325
undo,11,30,0,0,0,25,"[0, 26, 16, 25]",4,4,"[3, 9, 20, 27]",61.5511204,4318,840,2,2,6,1.332865633800282
undo,11,30,0,0,0,20,"[0, 26, 16, 25, 20]",5,1,[27],39.6194082,4741,423,1,0,6,1.3013500027270901
undo,11,30,0,0,1,27,"[0, 26, 16, 25, 20, 27]",6,0,[],5.560635472,5860,1119,1,0,6,1.4060833735760603
undo,11,30,0,1,1,27,"[0, 26, 16, 25, 20, 27]",6,0,[],5.560635472,6780,920,1,0,6,1.4060833735760603
undo,12,42,0,0,0,0,[0],1,29,"[1, 2, 3, 4, 5, 6, 7, 8, 9, 10, 11, 12, 13, 14, 15, 16, 17, 18, 19, 20, 21, 22, 23, 24, 25, 26, 27, 28, 29]",300,116,-1,16,302,9,0.0
undo,12,42,0,0,0,25,"[0, 25]",2,27,"[1, 2, 3, 4, 5, 6, 7, 8, 9, 10, 11, 12, 13, 15, 16, 17, 18, 19, 20, 21, 22, 23, 24, 26, 27, 28, 29]",270.2678625,2441,2325,3,59,9,1.0
undo,12,42,0,0,0,29,"[0, 25, 29]",3,22,"[1, 2, 3, 4, 5, 6, 7, 8, 9, 11, 13, 15, 16, 17, 18, 20, 21, 22, 23, 24, 26, 27]",247.0730355,2823,382,1,23,9,1.0472889958702385
undo,12,42,0,0,0,9,"[0, 25, 29, 9]",4,10,"[3, 4, 5, 8, 11, 13, 17, 20, 22, 23]",200.0623984,3864,1041,6,12,7,1.2087260879292598
undo,12,42,0,0,0,22,"[0, 25, 29, 9, 22]",5,3,"[4, 5, 8]",43.90222422,4905,1041,2,2,7,2.890486718970194
undo,12,42,0,0,0,4,"[0, 25, 29, 9, 22, 4]",6,2,"[5, 8]",32.72188433,5325,420,2,0,7,2.9542963571595506
undo,12,42,0,0,1,5,"[0, 25, 29, 9, 22, 4, 5]",7,0,[],12.87245109,6001,676,1,0,7,2.6413213742885153
undo,12,42,0,1,1,5,"[0, 25, 29, 9, 22, 4, 5]",7,0,[],12.87245109,7462,1461,1,0,7,2.6413213742885153
undo,13,15,0,0,0,0,[0],1,25,"[1, 2, 3, 4, 7, 8, 9, 10, 11, 12, 13, 14, 15, 16, 18, 20, 21, 22, 23, 24, 25, 26, 27, 28, 29]",300,116,-1,4,65,9,0.0
undo,13,15,0,0,0,7,"[0, 7]",2,23,"[1, 3, 4, 8, 9, 10, 11, 12, 13, 14, 15, 16, 18, 20, 21, 22, 23, 24, 25, 26, 27, 28, 29]",215.1884442,2920,2804,30,107,8,1.0
undo,13,15,0,0,0,16,"[0, 7, 16]",3,14,"[3, 4, 9, 10, 11, 12, 13, 14, 15, 18, 21, 22, 25, 27]",171.5306843,3728,808,11,27,8,1.1253230463291073
undo,13,15,0,0,0,3,"[0, 7, 16, 3]",4,12,"[4, 10, 11, 12, 13, 14, 15, 18, 21, 22, 25, 27]",146.4508119,4856,1128,5,12,8,1.1599276527768434
undo,13,15,0,0,0,11,"[0, 7, 16, 3, 11]",5,8,"[4, 12, 13, 14, 15, 21, 22, 27]",135.0490576,5432,576,5,3,8,1.3284364410021055
undo,13,15,0,0,0,22,"[0, 7, 16, 3, 11, 22]",6,3,"[4, 13, 15]",73.91805076,6464,1032,2,1,8,1.3104273403297952
undo,13,15,0,0,0,13,"[0, 7, 16, 3, 11, 22, 13]",7,1,[15],45.75779508,7003,539,1,0,8,1.2690554609906313
undo,13,15,0,0,1,15,"[0, 7, 16, 3, 11, 22, 13, 15]",8,0,[],30.49345755,7665,662,1,0,8,1.3723745149340023
undo,13,15,0,1,1,15,"[0, 7, 16, 3, 11, 22, 13, 15]",8,0,[],30.49345755,8958,1293,1,0,8,1.3723745149340023
undo,14,18,0,0,0,0,[0],1,28,"[1, 2, 3, 4, 5, 6, 7, 8, 9, 10, 11, 12, 13, 14, 16, 17, 18, 19, 20, 21, 22, 23, 24, 25, 26, 27, 28, 29]",300,115,-1,3,136,10,0.0
undo,14,18,0,0,0,28,"[0, 28]",2,16,"[1, 3, 5, 7, 8, 9, 12, 13, 14, 16, 20, 23, 24, 25, 26, 27]",236.4311397,2497,2382,2,19,10,1.0
undo,14,18,0,0,0,7,"[0, 28, 7]",3,15,"[1, 3, 5, 8, 9, 12, 13, 14, 16, 20, 23, 24, 25, 26, 27]",214.4084242,3616,1119,2,17,10,1.4345180696367563
undo,14,18,0,0,0,25,"[0, 28, 7, 25]",4,13,"[1, 3, 5, 8, 9, 12, 13, 14, 16, 20, 23, 26, 27]",186.6055466,4243,627,2,15,10,1.8896451241781882
undo,14,18,0,0,0,8,"[0, 28, 7, 25, 8]",5,10,"[3, 5, 9, 12, 13, 14, 16, 23, 26, 27]",149.551532,4840,597,2,10,10,1.590467437592877
undo,14,18,0,0,0,3,"[0, 28, 7, 25, 8, 3]",6,6,"[5, 12, 13, 14, 23, 27]",121.4801943,5338,498,1,10,9,1.4587755974793148
undo,14,18,0,0,0,13,"[0, 28, 7, 25, 8, 3, 13]",7,2,"[14, 23]",86.76708437,5841,503,2,0,8,2.2683069203086266
undo,14,18,0,0,1,14,"[0, 28, 7, 25, 8, 3, 13, 14]",8,0,[],67.79341841,6361,520,1,0,8,2.071210132194331
undo,14,18,0,1,1,14,"[0, 28, 7, 25, 8, 3, 13, 14]",8,0,[],67.79341841,7743,1382,1,0,8,2.071210132194331
undo,15,38,0,0,0,0,[0],1,29,"[1, 2, 3, 4, 5, 6, 7, 8, 9, 10, 11, 12, 13, 14, 15, 16, 17, 18, 19, 20, 21, 22, 23, 24, 25, 26, 27, 28, 29]",300,115,-1,33,506,9,0.0
undo,15,38,0,0,0,19,"[0, 19]",2,23,"[3, 4, 5, 6, 7, 8, 9, 11, 13, 14, 15, 16, 17, 18, 20, 22, 23, 24, 25, 26, 27, 28, 29]",219.5015528,1833,1718,6,61,9,1.0
undo,15,38,0,0,0,17,"[0, 19, 17]",3,21,"[3, 4, 5, 6, 7, 9, 11, 13, 14, 15, 16, 18, 20, 22, 23, 24, 25, 26, 27, 28, 29]",198.1239945,2649,816,6,53,9,1.571793785769489
undo,15,38,0,0,0,20,"[0, 19, 17, 20]",4,17,"[3, 4, 5, 6, 7, 11, 13, 14, 15, 16, 18, 22, 24, 25, 26, 27, 28]",174.3542658,3386,737,6,44,9,2.333182710277297
undo,15,38,0,0,0,13,"[0, 19, 17, 20, 13]",5,9,"[4, 11, 15, 16, 18, 24, 26, 27, 28]",125.0998244,4665,1279,1,11,9,1.7893595974504246
undo,15,38,0,0,0,4,"[0, 19, 17, 20, 13, 4]",6,6,"[11, 15, 16, 24, 26, 28]",93.69918748,5727,1062,1,6,9,2.942354535547757
undo,15,38,0,0,0,15,"[0, 19, 17, 20, 13, 4, 15]",7,4,"[11, 16, 26, 28]",67.69918748,6409,682,1,3,9,3.165907365359093
undo,15,38,0,0,0,11,"[0, 19, 17, 20, 13, 4, 15, 11]",8,1,[28],31.29863803,8287,1878,1,0,9,3.362710012119994
undo,15,38,0,0,1,28,"[0, 19, 17, 20, 13, 4, 15, 11, 28]",9,0,[],4.280125857,9313,1026,1,0,9,2.7690631991189285
undo,15,38,0,1,1,28,"[0, 19, 17, 20, 13, 4, 15, 11, 28]",9,0,[],4.280125857,10088,775,1,0,9,2.7690631991189285
undo,16,43,0,0,0,0,[0],1,23,"[1, 2, 3, 4, 5, 6, 7, 9, 10, 11, 12, 14, 15, 16, 17, 19, 20, 21, 22, 23, 25, 27, 29]",300,116,-1,16,556,12,0.0
undo,16,43,0,0,0,29,"[0, 29]",2,22,"[1, 2, 3, 4, 5, 6, 7, 9, 10, 11, 12, 14, 15, 16, 17, 19, 20, 21, 22, 23, 25, 27]",277.909278,1558,1442,16,520,12,1.0
undo,16,43,0,0,0,20,"[0, 29, 20]",3,20,"[1, 2, 3, 4, 6, 7, 9, 10, 11, 12, 14, 15, 16, 17, 19, 21, 22, 23, 25, 27]",254.4785289,2255,697,15,422,12,1.082311746871282
undo,16,43,0,0,0,16,"[0, 29, 20, 16]",4,19,"[1, 2, 3, 4, 6, 7, 9, 10, 11, 12, 14, 15, 17, 19, 21, 22, 23, 25, 27]",231.8511119,3214,959,15,389,12,1.215201926898219
undo,16,43,0,0,0,11,"[0, 29, 20, 16, 11]",5,17,"[1, 2, 3, 4, 6, 7, 9, 10, 12, 14, 15, 17, 19, 21, 22, 23, 25]",196.7227758,3854,640,12,188,12,1.1349145516483516
undo,16,43,0,0,0,6,"[0, 29, 20, 16, 11, 6]",6,15,"[1, 2, 3, 4, 7, 10, 12, 14, 15, 17, 19, 21, 22, 23, 25]",176.1072477,4413,559,10,100,12,1.123330873754209
undo,16,43,0,0,0,14,"[0, 29, 20, 16, 11, 6, 14]",7,13,"[1, 2, 3, 4, 7, 10, 12, 15, 17, 19, 21, 22, 25]",147.6467487,5342,929,2,29,11,1.2282559104994817
undo,16,43,0,0,0,15,"[0, 29, 20, 16, 11, 6, 14, 15]",8,4,"[3, 12, 22, 25]",54.68439076,6920,1578,4,1,10,2.9670451553506982
undo,16,43,0,0,0,12,"[0, 29, 20, 16, 11, 6, 14, 15, 12]",9,2,"[3, 25]",35.37118284,8550,1630,2,0,10,2.676844763753722
undo,16,43,0,0,1,3,"[0, 29, 20, 16, 11, 6, 14, 15, 12, 3]",10,0,[],22.37118284,9199,649,1,0,10,2.492175670844285
undo,16,43,0,1,1,3,"[0, 29, 20, 16, 11, 6, 14, 15, 12, 3]",10,0,[],22.37118284,10303,1104,1,0,10,2.492175670844285
undo,17,45,0,0,0,0,[0],1,24,"[1, 2, 3, 4, 5, 6, 7, 9, 10, 11, 12, 14, 15, 16, 17, 19, 20, 21, 22, 23, 24, 25, 27, 29]",300,164,-1,6,248,10,0.0
undo,17,45,0,0,0,17,"[0, 17]",2,22,"[1, 2, 3, 4, 5, 6, 7, 9, 10, 11, 12, 14, 15, 16, 19, 20, 21, 22, 23, 24, 25, 29]",235.867325,3117,2953,1,34,10,1.0
undo,17,45,0,0,0,24,"[0, 17, 24]",3,20,"[1, 2, 3, 4, 5, 6, 7, 9, 10, 11, 12, 14, 15, 16, 19, 20, 21, 22, 23, 29]",193.8078433,4441,1324,1,33,10,1.0309432256229287
undo,17,45,0,0,0,7,"[0, 17, 24, 7]",4,18,"[1, 2, 3, 4, 5, 6, 9, 10, 12, 14, 15, 16, 19, 20, 21, 22, 23, 29]",159.3985423,5500,1059,1,32,10,1.059763151913087
undo,17,45,0,0,0,20,"[0, 17, 24, 7, 20]",5,9,"[2, 3, 6, 9, 10, 12, 15, 23, 29]",107.7749043,6452,952,4,15,8,2.0863243123161377
undo,17,45,0,0,0,23,"[0, 17, 24, 7, 20, 23]",6,2,"[9, 15]",66.33820556,7259,807,2,0,7,3.354496256085875
undo,17,45,0,0,1,15,"[0, 17, 24, 7, 20, 23, 15]",7,0,[],42.73735811,8019,760,1,0,7,5.580810268483469
undo,17,45,0,1,1,15,"[0, 17, 24, 7, 20, 23, 15]",7,0,[],42.73735811,9055,1036,1,0,7,5.580810268483469
undo,18,8,0,0,0,0,[0],1,29,"[1, 2, 3, 4, 5, 6, 7, 8, 9, 10, 11, 12, 13, 14, 15, 16, 17, 18, 19, 20, 21, 22, 23, 24, 25, 26, 27, 28, 29]",300,114,-1,10,149,9,0.0
undo,18,8,0,0,0,5,"[0, 5]",2,28,"[1, 2, 3, 4, 6, 7, 8, 9, 10, 11, 12, 13, 14, 15, 16, 17, 18, 19, 20, 21, 22, 23, 24, 25, 26, 27, 28, 29]",254.5137383,1787,1673,10,100,9,1.0
undo,18,8,0,0,0,14,"[0, 5, 14]",3,20,"[1, 2, 3, 4, 6, 7, 11, 15, 16, 17, 18, 19, 20, 21, 22, 23, 24, 25, 28, 29]",214.5512559,2476,689,4,36,9,1.0001019035932595
undo,18,8,0,0,0,25,"[0, 5, 14, 25]",4,16,"[1, 3, 4, 6, 11, 15, 16, 17, 18, 20, 21, 22, 23, 24, 28, 29]",169.4513668,3710,1234,9,37,8,1.8918105093907904
undo,18,8,0,0,0,1,"[0, 5, 14, 25, 1]",5,12,"[3, 4, 6, 11, 16, 17, 18, 20, 21, 22, 23, 28]",144.4513668,4358,648,6,17,8,1.669095890814316
undo,18,8,0,0,0,23,"[0, 5, 14, 25, 1, 23]",6,7,"[3, 4, 6, 17, 18, 21, 28]",121.4296379,5007,649,4,5,8,1.5366044444966092
undo,18,8,0,0,0,18,"[0, 5, 14, 25, 1, 23, 18]",7,3,"[4, 17, 28]",79.6684119,5792,785,3,0,8,1.6668365933940024
undo,18,8,0,0,1,28,"[0, 5, 14, 25, 1, 23, 18, 28]",8,0,[],14.04829303,7623,1831,1,0,8,1.697618363169382
undo,18,8,0,1,1,28,"[0, 5, 14, 25, 1, 23, 18, 28]",8,0,[],14.04829303,8640,1017,1,0,8,1.697618363169382
undo,19,7,0,0,0,0,[0],1,29,"[1, 2, 3, 4, 5, 6, 7, 8, 9, 10, 11, 12, 13, 14, 15, 16, 17, 18, 19, 20, 21, 22, 23, 24, 25, 26, 27, 28, 29]",300,115,-1,3,79,9,0.0
undo,19,7,0,0,0,15,"[0, 15]",2,19,"[2, 4, 5, 6, 7, 8, 9, 10, 13, 14, 16, 18, 19, 20, 21, 23, 25, 27, 28]",230.9348134,2590,2475,2,38,9,1.0
undo,19,7,0,0,0,6,"[0, 15, 6]",3,18,"[2, 4, 5, 7, 8, 9, 10, 13, 14, 16, 18, 19, 20, 21, 23, 25, 27, 28]",205.854941,3408,818,2,36,9,1.366719602896943
undo,19,7,0,0,0,25,"[0, 15, 6, 25]",4,11,"[2, 4, 7, 13, 14, 16, 18, 19, 20, 21, 23]",138.6760753,4278,870,2,28,9,1.3624631728355765
undo,19,7,0,0,0,4,"[0, 15, 6, 25, 4]",5,7,"[2, 7, 13, 16, 18, 19, 20]",113.9374415,5503,1225,2,12,9,1.3249684384385587
undo,19,7,0,0,0,20,"[0, 15, 6, 25, 4, 20]",6,5,"[2, 7, 13, 18, 19]",94.29055881,6784,1281,1,6,9,1.3721893242679268
undo,19,7,0,0,0,18,"[0, 15, 6, 25, 4, 20, 18]",7,3,"[7, 13, 19]",81.48431034,7335,551,1,2,9,1.5262542308371432
undo,19,7,0,0,0,7,"[0, 15, 6, 25, 4, 20, 18, 7]",8,1,[19],40.25325408,8270,935,1,0,9,1.41986878673423
undo,19,7,0,0,1,19,"[0, 15, 6, 25, 4, 20, 18, 7, 19]",9,0,[],10.84237174,9446,1176,1,0,9,1.5285658163212987
undo,19,7,0,1,1,19,"[0, 15, 6, 25, 4, 20, 18, 7, 19]",9,0,[],10.84237174,9772,326,1,0,9,1.5285658163212987
undo,20,20,0,0,0,0,[0],1,21,"[1, 2, 3, 4, 5, 6, 7, 8, 9, 12, 17, 18, 20, 21, 22, 23, 25, 26, 27, 28, 29]",300,131,-1,1,9,9,0.0
undo,20,20,0,0,0,1,"[0, 1]",2,14,"[3, 4, 5, 6, 8, 9, 12, 20, 21, 23, 26, 27, 28, 29]",197.3501096,2977,2846,1,9,8,1.0
undo,20,20,0,0,0,12,"[0, 1, 12]",3,3,"[4, 5, 29]",115.3623056,4031,1054,3,0,4,6.491515637345286
undo,20,20,0,0,1,29,"[0, 1, 12, 29]",4,0,[],62.27746786,4657,626,1,0,4,4.392488789141739
undo,20,20,0,1,1,29,"[0, 1, 12, 29]",4,0,[],62.27746786,5217,560,1,0,4,4.392488789141739
undo,21,10,0,0,0,0,[0],1,29,"[1, 2, 3, 4, 5, 6, 7, 8, 9, 10, 11, 12, 13, 14, 15, 16, 17, 18, 19, 20, 21, 22, 23, 24, 25, 26, 27, 28, 29]",300,115,-1,1,100,9,0.0
undo,21,10,0,0,0,13,"[0, 13]",2,25,"[1, 2, 3, 4, 6, 7, 8, 9, 10, 11, 12, 14, 17, 18, 19, 20, 21, 22, 23, 24, 25, 26, 27, 28, 29]",249.4628849,2301,2186,1,79,9,1.0
undo,21,10,0,0,0,11,"[0, 13, 11]",3,20,"[1, 2, 3, 6, 7, 8, 9, 10, 12, 14, 18, 19, 20, 21, 22, 24, 26, 27, 28, 29]",206.4512586,3117,816,1,54,9,1.0313137484914219
undo,21,10,0,0,0,19,"[0, 13, 11, 19]",4,11,"[2, 6, 8, 9, 10, 14, 18, 20, 24, 26, 27]",170.0919407,3669,552,1,22,9,1.0879446220132545
undo,21,10,0,0,0,26,"[0, 13, 11, 19, 26]",5,8,"[2, 6, 9, 10, 14, 18, 20, 27]",141.7723361,4397,728,10,10,8,1.1947240924037068
undo,21,10,0,0,0,14,"[0, 13, 11, 19, 26, 14]",6,3,"[2, 20, 27]",107.1024645,5132,735,1,2,8,1.206127966377938
undo,21,10,0,0,0,2,"[0, 13, 11, 19, 26, 14, 2]",7,1,[20],94.93693944,5718,586,1,0,8,1.256142264475509
undo,21,10,0,0,1,20,"[0, 13, 11, 19, 26, 14, 2, 20]",8,0,[],19.0422756,6557,839,1,0,8,2.321251323421581
undo,21,10,0,1,1,20,"[0, 13, 11, 19, 26, 14, 2, 20]",8,0,[],19.0422756,6913,356,1,0,8,2.321251323421581
undo,22,27,0,0,0,0,[0],1,26,"[1, 3, 5, 6, 7, 8, 9, 10, 11, 12, 13, 14, 15, 16, 17, 18, 19, 21, 22, 23, 24, 25, 26, 27, 28, 29]",300,116,-1,13,578,11,0.0
undo,22,27,0,0,0,15,"[0, 15]",2,24,"[1, 3, 5, 6, 7, 8, 9, 10, 11, 12, 13, 14, 16, 17, 18, 19, 21, 22, 23, 24, 25, 26, 27, 29]",263.7508621,1203,1087,6,219,11,1.0
undo,22,27,0,0,0,24,"[0, 15, 24]",3,20,"[1, 5, 6, 7, 8, 9, 10, 12, 13, 14, 16, 17, 18, 19, 21, 23, 25, 26, 27, 29]",246.5462115,2067,864,6,130,11,1.130933077698322
undo,22,27,0,0,0,17,"[0, 15, 24, 17]",4,15,"[1, 6, 8, 10, 12, 13, 14, 16, 18, 19, 23, 25, 26, 27, 29]",229.9932662,2771,704,4,60,11,1.1285538435963374
undo,22,27,0,0,0,12,"[0, 15, 24, 17, 12]",5,14,"[1, 6, 8, 10, 13, 14, 16, 18, 19, 23, 25, 26, 27, 29]",218.8129263,3323,552,2,32,11,1.2561880288755216
undo,22,27,0,0,0,10,"[0, 15, 24, 17, 12, 10]",6,11,"[1, 8, 13, 14, 18, 19, 23, 25, 26, 27, 29]",207.7675653,3742,419,2,28,11,1.2228289337766665
undo,22,27,0,0,0,13,"[0, 15, 24, 17, 12, 10, 13]",7,9,"[1, 8, 14, 18, 19, 23, 26, 27, 29]",167.9178476,4924,1182,2,18,11,1.3421291994761178
undo,22,27,0,0,0,19,"[0, 15, 24, 17, 12, 10, 13, 19]",8,5,"[1, 8, 14, 23, 29]",131.6825057,5962,1038,2,6,11,1.294749956153846
undo,22,27,0,0,0,8,"[0, 15, 24, 17, 12, 10, 13, 19, 8]",9,3,"[14, 23, 29]",116.816437,6562,600,2,1,11,1.3554286578836865
undo,22,27,0,0,1,23,"[0, 15, 24, 17, 12, 10, 13, 19, 8, 23]",10,0,[],45.97859399,7580,1018,1,0,10,3.3397859539241304
undo,22,27,0,1,1,23,"[0, 15, 24, 17, 12, 10, 13, 19, 8, 23]",10,0,[],45.97859399,9107,1527,1,0,10,3.3397859539241304
basic,23,20,0,0,0,0,[0],1,21,"[1, 2, 3, 4, 5, 6, 7, 8, 9, 12, 17, 18, 20, 21, 22, 23, 25, 26, 27, 28, 29]",300,116,-1,1,9,9,0.0
basic,23,20,0,0,0,12,"[0, 12]",2,20,"[1, 2, 3, 4, 5, 6, 7, 8, 9, 17, 18, 20, 21, 22, 23, 25, 26, 27, 28, 29]",271.5570747,2330,2214,1,8,9,1.0
basic,23,20,0,0,0,1,"[0, 12, 1]",3,12,"[3, 4, 5, 6, 8, 9, 20, 21, 23, 27, 28, 29]",189.5692707,3074,744,1,6,9,1.0757997779162911
basic,23,20,0,0,0,5,"[0, 12, 1, 5]",4,10,"[4, 6, 8, 9, 20, 21, 23, 27, 28, 29]",152.8950291,4098,1024,1,5,9,1.1708231454516806
basic,23,20,0,0,0,21,"[0, 12, 1, 5, 21]",5,8,"[4, 6, 8, 9, 20, 23, 27, 28]",107.8950291,4780,682,1,4,9,1.126197336199212
basic,23,20,0,0,0,8,"[0, 12, 1, 5, 21, 8]",6,5,"[6, 9, 23, 27, 28]",90.43077988,5243,463,1,3,9,1.140007470699913
basic,23,20,0,0,1,27,"[0, 12, 1, 5, 21, 8, 27]",7,0,[],50.20640916,6378,1135,1,0,7,1.3128859656095468
basic,23,20,0,1,1,27,"[0, 12, 1, 5, 21, 8, 27]",7,0,[],50.20640916,7412,1034,1,0,7,1.3128859656095468
basic,24,13,0,0,0,0,[0],1,29,"[1, 2, 3, 4, 5, 6, 7, 8, 9, 10, 11, 12, 13, 14, 15, 16, 17, 18, 19, 20, 21, 22, 23, 24, 25, 26, 27, 28, 29]",300,115,-1,60,2676,11,0.0
basic,24,13,0,0,0,28,"[0, 28]",2,24,"[1, 2, 3, 4, 6, 7, 8, 9, 10, 11, 12, 13, 15, 16, 17, 19, 20, 21, 22, 23, 24, 26, 27, 29]",226.3182519,1617,1502,12,378,10,1.0
basic,24,13,0,0,0,2,"[0, 28, 2]",3,20,"[1, 3, 4, 6, 7, 9, 11, 12, 13, 15, 16, 17, 19, 20, 21, 23, 24, 26, 27, 29]",188.6751915,2358,741,9,174,10,1.0158286399660754
basic,24,13,0,0,0,29,"[0, 28, 2, 29]",4,19,"[1, 3, 4, 6, 7, 9, 11, 12, 13, 15, 16, 17, 19, 20, 21, 23, 24, 26, 27]",176.9704916,2997,639,9,132,10,1.1053279759370194
basic,24,13,0,0,0,7,"[0, 28, 2, 29, 7]",5,18,"[1, 3, 4, 6, 9, 11, 12, 13, 15, 16, 17, 19, 20, 21, 23, 24, 26, 27]",161.706154,4179,1182,6,72,10,1.313811244316471
basic,24,13,0,0,0,26,"[0, 28, 2, 29, 7, 26]",6,17,"[1, 3, 4, 6, 9, 11, 12, 13, 15, 16, 17, 19, 20, 21, 23, 24, 27]",151.2658475,4659,480,6,39,10,1.554636901089982
basic,24,13,0,0,0,6,"[0, 28, 2, 29, 7, 26, 6]",7,13,"[1, 3, 4, 11, 13, 15, 16, 17, 19, 20, 23, 24, 27]",131.1660963,5349,690,4,17,10,1.554967005613632
basic,24,13,0,0,0,11,"[0, 28, 2, 29, 7, 26, 6, 11]",8,6,"[1, 13, 15, 16, 17, 23]",112.0611231,6121,772,3,4,10,1.4733168623367165
basic,24,13,0,0,1,23,"[0, 28, 2, 29, 7, 26, 6, 11, 23]",9,0,[],30.07331914,7358,1237,1,0,9,4.776154407104741
basic,24,13,0,1,1,23,"[0, 28, 2, 29, 7, 26, 6, 11, 23]",9,0,[],30.07331914,9954,2596,1,0,9,4.776154407104741
basic,25,11,0,0,0,0,[0],1,25,"[1, 2, 3, 4, 5, 6, 8, 9, 10, 11, 12, 13, 14, 15, 16, 17, 18, 19, 20, 22, 23, 25, 26, 27, 28]",300,115,-1,6,374,12,0.0
basic,25,11,0,0,0,17,"[0, 17]",2,18,"[1, 2, 4, 5, 6, 8, 10, 11, 12, 15, 18, 19, 22, 23, 25, 26, 27, 28]",152.9217895,2439,2324,218,762,9,1.0
basic,25,11,0,0,0,15,"[0, 17, 15]",3,16,"[1, 2, 4, 5, 6, 8, 11, 12, 18, 19, 22, 23, 25, 26, 27, 28]",140.2726789,3063,624,97,260,9,1.0182186531831565
basic,25,11,0,0,0,8,"[0, 17, 15, 8]",4,13,"[1, 2, 4, 5, 6, 11, 12, 18, 19, 22, 25, 27, 28]",126.8190548,3551,488,64,49,9,1.192650797627932
basic,25,11,0,0,0,11,"[0, 17, 15, 8, 11]",5,8,"[2, 5, 6, 12, 19, 22, 27, 28]",98.65879914,4127,576,24,0,9,1.1613605340218829
basic,25,11,0,0,0,28,"[0, 17, 15, 8, 11, 28]",6,4,"[2, 5, 19, 22]",79.24231131,4672,545,6,0,9,1.2775081064776734
basic,25,11,0,0,0,2,"[0, 17, 15, 8, 11, 28, 2]",7,2,"[5, 22]",68.61216549,5208,536,2,0,9,1.2963768520024503
basic,25,11,0,0,0,22,"[0, 17, 15, 8, 11, 28, 2, 22]",8,1,[5],58.56228987,5840,632,1,0,9,1.2806069197030494
basic,25,11,0,0,1,5,"[0, 17, 15, 8, 11, 28, 2, 22, 5]",9,0,[],31.99162936,6866,1026,1,0,9,1.6473261458871022
basic,25,11,0,1,1,5,"[0, 17, 15, 8, 11, 28, 2, 22, 5]",9,0,[],31.99162936,7578,712,1,0,9,1.6473261458871022
basic,26,26,0,0,0,0,[0],1,29,"[1, 2, 3, 4, 5, 6, 7, 8, 9, 10, 11, 12, 13, 14, 15, 16, 17, 18, 19, 20, 21, 22, 23, 24, 25, 26, 27, 28, 29]",300,115,-1,9,226,9,0.0
basic,26,26,0,0,0,16,"[0, 16]",2,17,"[3, 4, 5, 6, 10, 11, 12, 13, 14, 17, 18, 19, 21, 22, 23, 26, 29]",188.0535842,1956,1841,34,176,8,1.0
basic,26,26,0,0,0,29,"[0, 16, 29]",3,12,"[4, 5, 6, 10, 12, 13, 14, 17, 19, 21, 23, 26]",163.8461474,2532,576,32,68,8,1.1142946124989752
basic,26,26,0,0,0,4,"[0, 16, 29, 4]",4,9,"[5, 6, 10, 12, 13, 14, 17, 21, 23]",139.8461474,3253,721,17,7,8,1.3213762371676339
basic,26,26,0,0,0,17,"[0, 16, 29, 4, 17]",5,5,"[6, 10, 14, 21, 23]",118.7511243,3794,541,6,0,8,1.2756100061290643
basic,26,26,0,0,0,14,"[0, 16, 29, 4, 17, 14]",6,2,"[6, 10]",96.27891921,4859,1065,2,0,8,1.264154039440982
basic,26,26,0,0,0,6,"[0, 16, 29, 4, 17, 14, 6]",7,1,[10],75.25512317,5796,937,1,0,8,1.3993089646092733
basic,26,26,0,0,1,10,"[0, 16, 29, 4, 17, 14, 6, 10]",8,0,[],45.98056083,6589,793,1,0,8,1.5697867669370302
basic,26,26,0,1,1,10,"[0, 16, 29, 4, 17, 14, 6, 10]",8,0,[],45.98056083,7228,639,1,0,8,1.5697867669370302
basic,27,12,0,0,0,0,[0],1,29,"[1, 2, 3, 4, 5, 6, 7, 8, 9, 10, 11, 12, 13, 14, 15, 16, 17, 18, 19, 20, 21, 22, 23, 24, 25, 26, 27, 28, 29]",300,116,-1,2,32,9,0.0
basic,27,12,0,0,0,25,"[0, 25]",2,16,"[2, 4, 5, 6, 7, 9, 12, 14, 16, 18, 19, 22, 23, 24, 27, 28]",225.7975742,1968,1852,5,34,8,1.0
basic,27,12,0,0,0,6,"[0, 25, 6]",3,6,"[5, 9, 16, 22, 23, 28]",135.6587923,2886,918,3,3,5,10.020060278572432
basic,27,12,0,0,0,16,"[0, 25, 6, 16]",4,1,[22],29.71069177,3936,1050,1,0,5,2.9797630141909592
basic,27,12,0,1,0,16,"[0, 25, 6, 16]",4,1,[22],29.71069177,4187,251,1,0,5,2.9797630141909592
basic,28,15,0,0,0,0,[0],1,25,"[1, 2, 3, 4, 7, 8, 9, 10, 11, 12, 13, 14, 15, 16, 18, 20, 21, 22, 23, 24, 25, 26, 27, 28, 29]",300,115,-1,4,65,9,0.0
basic,28,15,0,0,0,7,"[0, 7]",2,23,"[1, 3, 4, 8, 9, 10, 11, 12, 13, 14, 15, 16, 18, 20, 21, 22, 23, 24, 25, 26, 27, 28, 29]",215.1884442,2137,2022,30,107,8,1.0
basic,28,15,0,0,0,16,"[0, 7, 16]",3,14,"[3, 4, 9, 10, 11, 12, 13, 14, 15, 18, 21, 22, 25, 27]",171.5306843,2810,673,11,27,8,1.1253230463291073
basic,28,15,0,0,0,3,"[0, 7, 16, 3]",4,12,"[4, 10, 11, 12, 13, 14, 15, 18, 21, 22, 25, 27]",146.4508119,3429,619,5,12,8,1.1599276527768434
basic,28,15,0,0,0,11,"[0, 7, 16, 3, 11]",5,8,"[4, 12, 13, 14, 15, 21, 22, 27]",135.0490576,3893,464,5,3,8,1.3284364410021055
basic,28,15,0,0,0,12,"[0, 7, 16, 3, 11, 12]",6,1,[21],69.93377523,5216,1323,1,0,7,2.661192674664603
basic,28,15,0,0,1,21,"[0, 7, 16, 3, 11, 12, 21]",7,0,[],26.10456123,5882,666,1,0,7,2.88055760962226
basic,28,15,0,1,1,21,"[0, 7, 16, 3, 11, 12, 21]",7,0,[],26.10456123,6680,798,1,0,7,2.88055760962226
basic,29,35,0,0,0,0,[0],1,29,"[1, 2, 3, 4, 5, 6, 7, 8, 9, 10, 11, 12, 13, 14, 15, 16, 17, 18, 19, 20, 21, 22, 23, 24, 25, 26, 27, 28, 29]",300,115,-1,5,236,11,0.0
basic,29,35,0,0,0,24,"[0, 24]",2,27,"[1, 2, 4, 5, 6, 7, 8, 9, 10, 11, 12, 13, 14, 15, 16, 17, 18, 19, 20, 21, 22, 23, 25, 26, 27, 28, 29]",268.9838752,1881,1766,49,512,10,1.0
basic,29,35,0,0,0,17,"[0, 24, 17]",3,26,"[1, 2, 4, 5, 6, 7, 8, 9, 10, 11, 12, 13, 14, 15, 16, 18, 19, 20, 21, 22, 23, 25, 26, 27, 28, 29]",257.2791753,2352,471,33,238,10,1.0771477201815276
basic,29,35,0,0,0,1,"[0, 24, 17, 1]",4,25,"[2, 4, 5, 6, 7, 8, 9, 10, 11, 12, 13, 14, 15, 16, 18, 19, 20, 21, 22, 23, 25, 26, 27, 28, 29]",241.4677869,2964,612,26,151,10,1.2244804141479215
basic,29,35,0,0,0,15,"[0, 24, 17, 1, 15]",5,23,"[2, 4, 5, 6, 7, 8, 9, 10, 11, 12, 14, 16, 18, 19, 20, 21, 22, 23, 25, 26, 27, 28, 29]",218.6204676,3471,507,26,78,10,1.4642196672428094
basic,29,35,0,0,0,23,"[0, 24, 17, 1, 15, 23]",6,11,"[4, 5, 6, 9, 18, 19, 25, 26, 27, 28, 29]",158.1804147,4248,777,15,12,10,1.3338903684702363
basic,29,35,0,0,0,9,"[0, 24, 17, 1, 15, 23, 9]",7,6,"[5, 6, 18, 19, 25, 27]",120.5373542,4940,692,6,1,10,1.5964380615155294
basic,29,35,0,0,0,18,"[0, 24, 17, 1, 15, 23, 9, 18]",8,3,"[5, 6, 25]",100.5123698,5505,565,2,1,10,1.5508488101942703
basic,29,35,0,0,0,6,"[0, 24, 17, 1, 15, 23, 9, 18, 6]",9,1,[25],66.89689722,6672,1167,1,0,10,1.541466044761729
basic,29,35,0,0,1,25,"[0, 24, 17, 1, 15, 23, 9, 18, 6, 25]",10,0,[],42.87607292,7385,713,1,0,10,1.5877595882523792
basic,29,35,0,1,1,25,"[0, 24, 17, 1, 15, 23, 9, 18, 6, 25]",10,0,[],42.87607292,8126,741,1,0,10,1.5877595882523792
basic,30,44,0,0,0,0,[0],1,29,"[1, 2, 3, 4, 5, 6, 7, 8, 9, 10, 11, 12, 13, 14, 15, 16, 17, 18, 19, 20, 21, 22, 23, 24, 25, 26, 27, 28, 29]",300,115,-1,13,126,7,0.0
basic,30,44,0,0,0,11,"[0, 11]",2,18,"[4, 5, 6, 7, 8, 9, 12, 14, 16, 17, 19, 20, 22, 23, 24, 25, 26, 28]",152.7790776,2022,1907,5,34,7,1.0
basic,30,44,0,0,0,24,"[0, 11, 24]",3,13,"[4, 5, 7, 8, 9, 12, 14, 17, 20, 22, 23, 25, 28]",125.8532535,3176,1154,5,23,7,1.1588941745226709
basic,30,44,0,0,0,9,"[0, 11, 24, 9]",4,7,"[4, 7, 8, 12, 14, 20, 23]",93.09657483,3784,608,2,8,7,1.3039383713641313
basic,30,44,0,0,0,4,"[0, 11, 24, 9, 4]",5,5,"[7, 12, 14, 20, 23]",73.39885923,4382,598,2,3,7,1.2901330701441578
basic,30,44,0,0,0,7,"[0, 11, 24, 9, 4, 7]",6,1,[23],42.38273439,5030,648,1,0,7,1.2468141312360979
basic,30,44,0,0,1,23,"[0, 11, 24, 9, 4, 7, 23]",7,0,[],23.27776121,5664,634,1,0,7,1.2635191782769477
basic,30,44,0,1,1,23,"[0, 11, 24, 9, 4, 7, 23]",7,0,[],23.27776121,5999,335,1,0,7,1.2635191782769477
basic,31,31,0,0,0,0,[0],1,27,"[1, 3, 4, 5, 6, 7, 8, 10, 11, 12, 13, 14, 15, 16, 17, 18, 19, 20, 21, 22, 23, 24, 25, 26, 27, 28, 29]",300,115,-1,2,87,10,0.0
basic,31,31,0,0,0,14,"[0, 14]",2,25,"[1, 3, 5, 6, 7, 8, 10, 11, 12, 13, 15, 16, 17, 18, 19, 20, 21, 22, 23, 24, 25, 26, 27, 28, 29]",263.861378,1359,1244,2,59,10,1.0
basic,31,31,0,0,0,27,"[0, 14, 27]",3,22,"[1, 3, 5, 6, 7, 8, 10, 11, 12, 13, 15, 16, 17, 18, 19, 20, 21, 22, 24, 25, 28, 29]",235.6833724,1912,553,1,39,10,1.5881859159302467
basic,31,31,0,0,0,8,"[0, 14, 27, 8]",4,20,"[1, 3, 5, 6, 7, 10, 11, 12, 13, 16, 17, 18, 19, 20, 21, 22, 24, 25, 28, 29]",224.6380114,2318,406,1,36,10,2.1665048452331277
basic,31,31,0,0,0,18,"[0, 14, 27, 8, 18]",5,15,"[1, 5, 6, 7, 11, 12, 13, 16, 17, 19, 20, 22, 25, 28, 29]",188.7911147,2886,568,1,26,10,1.7273375741920205
basic,31,31,0,0,0,17,"[0, 14, 27, 8, 18, 17]",6,13,"[1, 5, 6, 7, 11, 12, 13, 16, 19, 20, 22, 25, 28]",159.584951,3472,586,1,13,10,1.551192427769927
basic,31,31,0,0,0,11,"[0, 14, 27, 8, 18, 17, 11]",7,7,"[5, 12, 16, 19, 22, 25, 28]",118.4753414,4475,1003,1,4,10,2.9650760544203494
basic,31,31,0,0,0,5,"[0, 14, 27, 8, 18, 17, 11, 5]",8,2,"[16, 28]",74.79468207,5797,1322,1,1,10,2.56711965625205
basic,31,31,0,0,0,28,"[0, 14, 27, 8, 18, 17, 11, 5, 28]",9,1,[16],54.57093365,6479,682,1,0,10,2.2865510762058148
basic,31,31,0,0,1,16,"[0, 14, 27, 8, 18, 17, 11, 5, 28, 16]",10,0,[],20.95546102,7574,1095,1,0,10,2.089356850786318
basic,31,31,0,1,1,16,"[0, 14, 27, 8, 18, 17, 11, 5, 28, 16]",10,0,[],20.95546102,8092,518,1,0,10,2.089356850786318
basic,32,2,0,0,0,0,[0],1,23,"[1, 2, 4, 5, 6, 7, 8, 9, 12, 13, 15, 16, 17, 18, 19, 20, 22, 23, 25, 26, 27, 28, 29]",300,115,-1,70,620,10,0.0
basic,32,2,0,0,0,20,"[0, 20]",2,19,"[1, 4, 5, 6, 7, 8, 12, 13, 15, 16, 17, 18, 19, 22, 25, 26, 27, 28, 29]",254.6458381,2105,1990,2,35,9,1.0
basic,32,2,0,0,0,16,"[0, 20, 16]",3,17,"[1, 4, 5, 6, 7, 12, 13, 15, 17, 18, 19, 22, 25, 26, 27, 28, 29]",216.5669726,2782,677,2,23,9,1.534307260428795
basic,32,2,0,0,0,19,"[0, 20, 16, 19]",4,7,"[1, 5, 6, 12, 13, 18, 22]",110.5669726,4281,1499,6,11,8,2.1119939788746747
basic,32,2,0,0,0,12,"[0, 20, 16, 19, 12]",5,5,"[5, 6, 13, 18, 22]",74.55308638,4913,632,6,1,8,1.9920655944686694
basic,32,2,0,0,0,5,"[0, 20, 16, 19, 12, 5]",6,2,"[13, 22]",45.02344026,5774,861,2,0,8,1.8015159076559468
basic,32,2,0,0,0,13,"[0, 20, 16, 19, 12, 5, 13]",7,1,[22],31.42196975,6216,442,1,0,8,1.8156699308495556
basic,32,2,0,0,1,22,"[0, 20, 16, 19, 12, 5, 13, 22]",8,0,[],16.555901,6656,440,1,0,8,1.8368321953219577
basic,32,2,0,1,1,22,"[0, 20, 16, 19, 12, 5, 13, 22]",8,0,[],16.555901,7361,705,1,0,8,1.8368321953219577
basic,33,39,0,0,0,0,[0],1,28,"[1, 2, 3, 4, 5, 6, 7, 9, 10, 11, 12, 13, 14, 15, 16, 17, 18, 19, 20, 21, 22, 23, 24, 25, 26, 27, 28, 29]",300,116,-1,1,30,10,0.0
basic,33,39,0,0,0,14,"[0, 14]",2,26,"[1, 2, 3, 4, 5, 6, 7, 9, 10, 12, 13, 15, 16, 17, 18, 19, 20, 21, 22, 23, 24, 25, 26, 27, 28, 29]",286.9615952,1852,1736,1,22,10,1.0
basic,33,39,0,0,0,23,"[0, 14, 23]",3,17,"[1, 2, 4, 5, 7, 9, 10, 12, 15, 16, 19, 21, 22, 24, 26, 28, 29]",213.6131119,2815,963,7,40,8,1.4069451109593787
basic,33,39,0,0,0,15,"[0, 14, 23, 15]",4,9,"[1, 2, 7, 9, 10, 12, 24, 26, 29]",138.8802543,3758,943,1,14,7,1.269762049375962
basic,33,39,0,0,1,29,"[0, 14, 23, 15, 29]",5,0,[],50.19541911,4640,882,1,0,5,4.387265256664399
basic,33,39,0,1,1,29,"[0, 14, 23, 15, 29]",5,0,[],50.19541911,5451,811,1,0,5,4.387265256664399
basic,34,38,0,0,0,0,[0],1,29,"[1, 2, 3, 4, 5, 6, 7, 8, 9, 10, 11, 12, 13, 14, 15, 16, 17, 18, 19, 20, 21, 22, 23, 24, 25, 26, 27, 28, 29]",300,115,-1,33,506,9,0.0
basic,34,38,0,0,0,20,"[0, 20]",2,28,"[1, 2, 3, 4, 5, 6, 7, 8, 9, 10, 11, 12, 13, 14, 15, 16, 17, 18, 19, 21, 22, 23, 24, 25, 26, 27, 28, 29]",246.1483519,1513,1398,14,198,9,1.0
basic,34,38,0,0,0,4,"[0, 20, 4]",3,23,"[1, 3, 5, 6, 7, 10, 11, 12, 13, 14, 15, 16, 17, 18, 19, 22, 23, 24, 25, 26, 27, 28, 29]",212.2072264,2008,495,4,62,9,1.2521398361687723
basic,34,38,0,0,0,15,"[0, 20, 4, 15]",4,18,"[1, 3, 5, 7, 10, 11, 12, 13, 14, 16, 17, 18, 19, 22, 24, 26, 27, 28]",186.2072264,2664,656,4,31,9,1.550822729188101
basic,34,38,0,0,0,11,"[0, 20, 4, 15, 11]",5,12,"[1, 5, 10, 12, 13, 14, 16, 17, 19, 24, 26, 28]",149.806677,3596,932,3,16,9,1.8796205099327365
basic,34,38,0,0,0,28,"[0, 20, 4, 15, 11, 28]",6,8,"[5, 10, 12, 13, 14, 16, 24, 26]",122.7881648,4737,1141,2,7,9,1.6593770463440594
basic,34,38,0,0,0,16,"[0, 20, 4, 15, 11, 28, 16]",7,5,"[12, 13, 14, 24, 26]",93.78816481,5681,944,1,4,9,1.884647935999861
basic,34,38,0,0,1,13,"[0, 20, 4, 15, 11, 28, 16, 13]",8,0,[],14.78183595,6544,863,1,0,8,2.9179951218417024
basic,34,38,0,1,1,13,"[0, 20, 4, 15, 11, 28, 16, 13]",8,0,[],14.78183595,6863,319,1,0,8,2.9179951218417024
basic,35,21,0,0,0,0,[0],1,29,"[1, 2, 3, 4, 5, 6, 7, 8, 9, 10, 11, 12, 13, 14, 15, 16, 17, 18, 19, 20, 21, 22, 23, 24, 25, 26, 27, 28, 29]",300,115,-1,84,830,9,0.0
basic,35,21,0,0,0,25,"[0, 25]",2,26,"[1, 2, 3, 4, 5, 6, 7, 8, 9, 10, 11, 12, 13, 14, 15, 16, 17, 18, 20, 21, 22, 23, 24, 26, 27, 29]",240.1836143,1785,1670,30,238,9,1.0
basic,35,21,0,0,0,21,"[0, 25, 21]",3,18,"[1, 3, 4, 6, 8, 9, 11, 12, 14, 15, 16, 17, 18, 20, 22, 23, 24, 29]",190.8480288,2502,717,15,84,9,1.2142997420204755
basic,35,21,0,0,0,23,"[0, 25, 21, 23]",4,14,"[1, 4, 6, 8, 9, 14, 15, 16, 17, 18, 20, 22, 24, 29]",161.233843,3147,645,9,27,9,1.4013924134357778
basic,35,21,0,0,0,14,"[0, 25, 21, 23, 14]",5,9,"[4, 8, 15, 16, 17, 18, 22, 24, 29]",132.1649593,3943,796,7,9,9,1.4652634639575024
basic,35,21,0,0,0,4,"[0, 25, 21, 23, 14, 4]",6,7,"[8, 15, 16, 17, 18, 24, 29]",118.0228236,5824,1881,7,2,9,1.422739117765393
basic,35,21,0,0,0,16,"[0, 25, 21, 23, 14, 4, 16]",7,3,"[8, 15, 24]",73.42461739,6473,649,3,1,9,1.3881533988257628
basic,35,21,0,0,0,8,"[0, 25, 21, 23, 14, 4, 16, 8]",8,1,[15],54.82354215,7417,944,1,0,9,1.353244899801389
basic,35,21,0,0,1,15,"[0, 25, 21, 23, 14, 4, 16, 8, 15]",9,0,[],29.82354215,8128,711,1,0,9,1.604898534974819
basic,35,21,0,1,1,15,"[0, 25, 21, 23, 14, 4, 16, 8, 15]",9,0,[],29.82354215,8608,480,1,0,9,1.604898534974819
basic,36,40,0,0,0,0,[0],1,29,"[1, 2, 3, 4, 5, 6, 7, 8, 9, 10, 11, 12, 13, 14, 15, 16, 17, 18, 19, 20, 21, 22, 23, 24, 25, 26, 27, 28, 29]",300,115,-1,8,191,9,0.0
basic,36,40,0,0,0,1,"[0, 1]",2,18,"[2, 5, 6, 7, 8, 9, 10, 11, 13, 15, 17, 18, 19, 21, 22, 23, 27, 29]",247.8463808,1665,1550,4,80,9,1.0
basic,36,40,0,0,0,6,"[0, 1, 6]",3,17,"[2, 5, 7, 8, 9, 10, 11, 13, 15, 17, 18, 19, 21, 22, 23, 27, 29]",227.7466295,2326,661,4,74,9,1.0459427008232034
basic,36,40,0,0,0,23,"[0, 1, 6, 23]",4,15,"[2, 5, 7, 8, 9, 10, 11, 13, 17, 18, 19, 21, 22, 27, 29]",158.176521,3231,905,12,41,8,1.4952830531485621
basic,36,40,0,0,0,5,"[0, 1, 6, 23, 5]",5,10,"[2, 7, 8, 9, 11, 18, 19, 21, 22, 27]",129.8745776,4084,853,5,13,8,1.3833163970446014
basic,36,40,0,0,0,18,"[0, 1, 6, 23, 5, 18]",6,4,"[9, 19, 21, 22]",98.29927079,5518,1434,2,3,8,1.7027374198368375
basic,36,40,0,0,0,9,"[0, 1, 6, 23, 5, 18, 9]",7,2,"[19, 21]",81.74632543,6022,504,2,0,8,1.769689023954796
basic,36,40,0,0,1,21,"[0, 1, 6, 23, 5, 18, 9, 21]",8,0,[],36.0407459,7566,1544,1,0,8,2.190476658522401
basic,36,40,0,1,1,21,"[0, 1, 6, 23, 5, 18, 9, 21]",8,0,[],36.0407459,7827,261,1,0,8,2.190476658522401
basic,37,28,0,0,0,0,[0],1,27,"[1, 2, 3, 4, 5, 6, 7, 8, 9, 10, 11, 12, 13, 14, 15, 16, 17, 18, 19, 20, 22, 23, 25, 26, 27, 28, 29]",300,115,-1,2,96,9,0.0
basic,37,28,0,0,0,20,"[0, 20]",2,22,"[2, 3, 4, 5, 6, 7, 8, 9, 10, 11, 12, 13, 14, 15, 16, 18, 19, 22, 23, 26, 28, 29]",245.9629757,1135,1020,1,24,9,1.0
basic,37,28,0,0,0,3,"[0, 20, 3]",3,19,"[2, 4, 5, 6, 7, 8, 9, 10, 11, 12, 13, 14, 15, 16, 18, 19, 23, 26, 28]",204.6229224,1875,740,9,50,8,1.9497218646689283
basic,37,28,0,0,0,5,"[0, 20, 3, 5]",4,13,"[2, 4, 7, 8, 9, 12, 13, 14, 15, 18, 19, 26, 28]",120.5277383,3013,1138,2,20,8,1.3767728943595041
basic,37,28,0,0,0,26,"[0, 20, 3, 5, 26]",5,11,"[2, 4, 7, 8, 9, 12, 13, 14, 18, 19, 28]",87.77105956,3687,674,2,12,8,1.32061441211042
basic,37,28,0,0,0,2,"[0, 20, 3, 5, 26, 2]",6,1,[19],47.41018742,5219,1532,1,0,7,1.2587862168885644
basic,37,28,0,1,0,2,"[0, 20, 3, 5, 26, 2]",6,1,[19],47.41018742,5483,264,1,0,7,1.2587862168885644
basic,38,24,0,0,0,0,[0],1,29,"[1, 2, 3, 4, 5, 6, 7, 8, 9, 10, 11, 12, 13, 14, 15, 16, 17, 18, 19, 20, 21, 22, 23, 24, 25, 26, 27, 28, 29]",300,149,-1,4,76,10,0.0
basic,38,24,0,0,0,14,"[0, 14]",2,27,"[1, 2, 3, 4, 5, 6, 8, 9, 10, 11, 12, 13, 15, 16, 17, 18, 19, 20, 21, 22, 23, 24, 25, 26, 27, 28, 29]",278.0455016,1203,1054,4,54,10,1.0
basic,38,24,0,0,0,16,"[0, 14, 16]",3,25,"[2, 3, 4, 5, 6, 8, 9, 10, 11, 12, 13, 15, 17, 18, 19, 20, 21, 22, 23, 24, 25, 26, 27, 28, 29]",188.9949542,2115,912,4,31,10,1.238291113657358
basic,38,24,0,0,0,15,"[0, 14, 16, 15]",4,18,"[3, 4, 6, 8, 9, 10, 11, 13, 17, 21, 22, 23, 24, 25, 26, 27, 28, 29]",158.5811415,2893,778,4,36,9,1.1822319323397614
basic,38,24,0,0,0,22,"[0, 14, 16, 15, 22]",5,13,"[3, 4, 6, 8, 9, 10, 11, 23, 24, 26, 27, 28, 29]",137.3679381,3389,496,3,15,9,1.543287671001617
basic,38,24,0,0,0,8,"[0, 14, 16, 15, 22, 8]",6,10,"[4, 6, 9, 10, 11, 23, 24, 27, 28, 29]",123.9515302,3852,463,2,8,9,1.5987898443851183
basic,38,24,0,0,0,28,"[0, 14, 16, 15, 22, 8, 28]",7,2,"[11, 23]",61.85483142,4827,975,1,1,9,1.4466021858607128
basic,38,24,0,0,0,23,"[0, 14, 16, 15, 22, 8, 28, 23]",8,1,[11],42.82853383,5261,434,1,0,9,1.4596708291754277
basic,38,24,0,0,1,11,"[0, 14, 16, 15, 22, 8, 28, 23, 11]",9,0,[],15.90270979,6013,752,1,0,9,1.414382418637344
basic,38,24,0,1,1,11,"[0, 14, 16, 15, 22, 8, 28, 23, 11]",9,0,[],15.90270979,7029,1016,1,0,9,1.414382418637344
basic,39,27,0,0,0,0,[0],1,26,"[1, 3, 5, 6, 7, 8, 9, 10, 11, 12, 13, 14, 15, 16, 17, 18, 19, 21, 22, 23, 24, 25, 26, 27, 28, 29]",300,115,-1,13,578,11,0.0
basic,39,27,0,0,0,15,"[0, 15]",2,24,"[1, 3, 5, 6, 7, 8, 9, 10, 11, 12, 13, 14, 16, 17, 18, 19, 21, 22, 23, 24, 25, 26, 27, 29]",263.7508621,1617,1502,6,219,11,1.0
basic,39,27,0,0,0,24,"[0, 15, 24]",3,20,"[1, 5, 6, 7, 8, 9, 10, 12, 13, 14, 16, 17, 18, 19, 21, 23, 25, 26, 27, 29]",246.5462115,2045,428,6,130,11,1.130933077698322
basic,39,27,0,0,0,17,"[0, 15, 24, 17]",4,15,"[1, 6, 8, 10, 12, 13, 14, 16, 18, 19, 23, 25, 26, 27, 29]",229.9932662,2500,455,4,60,11,1.1285538435963374
basic,39,27,0,0,0,12,"[0, 15, 24, 17, 12]",5,14,"[1, 6, 8, 10, 13, 14, 16, 18, 19, 23, 25, 26, 27, 29]",218.8129263,3020,520,2,32,11,1.2561880288755216
basic,39,27,0,0,0,10,"[0, 15, 24, 17, 12, 10]",6,11,"[1, 8, 13, 14, 18, 19, 23, 25, 26, 27, 29]",207.7675653,3684,664,2,28,11,1.2228289337766665
basic,39,27,0,0,0,13,"[0, 15, 24, 17, 12, 10, 13]",7,9,"[1, 8, 14, 18, 19, 23, 26, 27, 29]",167.9178476,4524,840,2,18,11,1.3421291994761178
basic,39,27,0,0,0,19,"[0, 15, 24, 17, 12, 10, 13, 19]",8,5,"[1, 8, 14, 23, 29]",131.6825057,5073,549,2,6,11,1.294749956153846
basic,39,27,0,0,0,8,"[0, 15, 24, 17, 12, 10, 13, 19, 8]",9,3,"[14, 23, 29]",116.816437,5508,435,2,1,11,1.3554286578836865
basic,39,27,0,0,0,29,"[0, 15, 24, 17, 12, 10, 13, 19, 8, 29]",10,1,[14],57.61339652,6971,1463,1,0,11,1.248354519573802
basic,39,27,0,0,1,14,"[0, 15, 24, 17, 12, 10, 13, 19, 8, 29, 14]",11,0,[],13.31892734,8187,1216,1,0,11,1.562811097555156
basic,39,27,0,1,1,14,"[0, 15, 24, 17, 12, 10, 13, 19, 8, 29, 14]",11,0,[],13.31892734,9322,1135,1,0,11,1.562811097555156
basic,40,43,0,0,0,0,[0],1,23,"[1, 2, 3, 4, 5, 6, 7, 9, 10, 11, 12, 14, 15, 16, 17, 19, 20, 21, 22, 23, 25, 27, 29]",300,116,-1,16,556,12,0.0
basic,40,43,0,0,0,29,"[0, 29]",2,22,"[1, 2, 3, 4, 5, 6, 7, 9, 10, 11, 12, 14, 15, 16, 17, 19, 20, 21, 22, 23, 25, 27]",277.909278,1793,1677,16,520,12,1.0
basic,40,43,0,0,0,20,"[0, 29, 20]",3,20,"[1, 2, 3, 4, 6, 7, 9, 10, 11, 12, 14, 15, 16, 17, 19, 21, 22, 23, 25, 27]",254.4785289,2608,815,15,422,12,1.082311746871282
basic,40,43,0,0,0,16,"[0, 29, 20, 16]",4,19,"[1, 2, 3, 4, 6, 7, 9, 10, 11, 12, 14, 15, 17, 19, 21, 22, 23, 25, 27]",231.8511119,3482,874,15,389,12,1.215201926898219
basic,40,43,0,0,0,15,"[0, 29, 20, 16, 15]",5,14,"[1, 2, 3, 4, 6, 7, 9, 11, 12, 14, 19, 22, 23, 25]",188.5267539,4507,1025,3,109,12,1.3482474915350444
basic,40,43,0,0,0,25,"[0, 29, 20, 16, 15, 25]",6,12,"[1, 3, 4, 6, 7, 9, 11, 12, 14, 19, 22, 23]",165.8551858,5121,614,2,43,12,1.691408721191545
basic,40,43,0,0,0,12,"[0, 29, 20, 16, 15, 25, 12]",7,11,"[1, 3, 4, 6, 7, 9, 11, 14, 19, 22, 23]",141.6684126,5743,622,2,32,12,1.6015983641428178
basic,40,43,0,0,0,3,"[0, 29, 20, 16, 15, 25, 12, 3]",8,10,"[1, 4, 6, 7, 9, 11, 14, 19, 22, 23]",128.6684126,6239,496,2,24,12,1.5379830456120627
basic,40,43,0,0,0,22,"[0, 29, 20, 16, 15, 25, 12, 3, 22]",9,6,"[1, 6, 7, 11, 14, 19]",93.95530264,7256,1017,1,11,12,1.7275686117408873
basic,40,43,0,0,0,11,"[0, 29, 20, 16, 15, 25, 12, 3, 22, 11]",10,2,"[6, 14]",47.89013141,7999,743,2,0,11,2.7704381163736262
basic,40,43,0,0,1,6,"[0, 29, 20, 16, 15, 25, 12, 3, 22, 11, 6]",11,0,[],27.27460328,8767,768,1,0,11,2.472790800955036
basic,40,43,0,1,1,6,"[0, 29, 20, 16, 15, 25, 12, 3, 22, 11, 6]",11,0,[],27.27460328,10852,2085,1,0,11,2.472790800955036
basic,41,29,0,0,0,0,[0],1,29,"[1, 2, 3, 4, 5, 6, 7, 8, 9, 10, 11, 12, 13, 14, 15, 16, 17, 18, 19, 20, 21, 22, 23, 24, 25, 26, 27, 28, 29]",300,115,-1,1,78,9,0.0
basic,41,29,0,0,0,25,"[0, 25]",2,18,"[1, 2, 4, 5, 6, 7, 9, 10, 12, 13, 14, 15, 16, 17, 22, 26, 27, 28]",223.3449284,2089,1974,13,101,8,1.0
basic,41,29,0,0,0,17,"[0, 25, 17]",3,13,"[1, 4, 5, 6, 7, 9, 10, 12, 13, 14, 22, 27, 28]",188.41643,2721,632,2,22,8,1.014228463693056
basic,41,29,0,0,0,1,"[0, 25, 17, 1]",4,11,"[4, 5, 6, 7, 10, 12, 13, 14, 22, 27, 28]",149.5191293,3435,714,2,18,8,1.7553639368828857
basic,41,29,0,0,0,14,"[0, 25, 17, 1, 14]",5,8,"[4, 5, 7, 12, 13, 22, 27, 28]",106.5656662,4066,631,2,9,8,2.137167642879409
basic,41,29,0,0,0,13,"[0, 25, 17, 1, 14, 13]",6,4,"[4, 5, 12, 22]",88.53790978,4561,495,2,3,8,1.9535489858276616
basic,41,29,0,0,0,5,"[0, 25, 17, 1, 14, 13, 5]",7,2,"[4, 22]",62.82798951,5065,504,2,0,8,1.9087092890879327
basic,41,29,0,0,1,4,"[0, 25, 17, 1, 14, 13, 5, 4]",8,0,[],10.93386653,6130,1065,1,0,8,1.6444131700810427
basic,41,29,0,1,1,4,"[0, 25, 17, 1, 14, 13, 5, 4]",8,0,[],10.93386653,6979,849,1,0,8,1.6444131700810427
basic,42,41,0,0,0,0,[0],1,29,"[1, 2, 3, 4, 5, 6, 7, 8, 9, 10, 11, 12, 13, 14, 15, 16, 17, 18, 19, 20, 21, 22, 23, 24, 25, 26, 27, 28, 29]",300,114,-1,1,143,10,0.0
basic,42,41,0,0,0,13,"[0, 13]",2,23,"[1, 2, 3, 5, 6, 7, 9, 10, 11, 12, 14, 15, 17, 18, 19, 20, 21, 22, 24, 25, 26, 27, 28]",258.2747079,1666,1552,1,55,10,1.0
basic,42,41,0,0,0,28,"[0, 13, 28]",3,22,"[1, 2, 3, 5, 6, 7, 9, 10, 11, 12, 14, 15, 17, 18, 19, 20, 21, 22, 24, 25, 26, 27]",223.7928286,2670,1004,1,39,10,1.895724242592676
basic,42,41,0,0,0,5,"[0, 13, 28, 5]",4,19,"[1, 2, 3, 6, 9, 10, 11, 12, 14, 15, 17, 18, 19, 20, 21, 22, 24, 25, 27]",210.1913581,3213,543,1,34,10,2.861541269398273
basic,42,41,0,0,0,20,"[0, 13, 28, 5, 20]",5,4,"[3, 18, 21, 22]",139.5301948,4147,934,2,3,7,1.7044271822253931
basic,42,41,0,0,1,18,"[0, 13, 28, 5, 20, 18]",6,0,[],68.3613814,5429,1282,1,0,6,1.8867359158176786
basic,42,41,0,1,1,18,"[0, 13, 28, 5, 20, 18]",6,0,[],68.3613814,6879,1450,1,0,6,1.8867359158176786
basic,43,10,0,0,0,0,[0],1,29,"[1, 2, 3, 4, 5, 6, 7, 8, 9, 10, 11, 12, 13, 14, 15, 16, 17, 18, 19, 20, 21, 22, 23, 24, 25, 26, 27, 28, 29]",300,148,-1,1,100,9,0.0
basic,43,10,0,0,0,8,"[0, 8]",2,23,"[2, 3, 4, 6, 7, 9, 10, 11, 12, 13, 14, 17, 18, 19, 20, 21, 22, 23, 24, 26, 27, 28, 29]",256.9883737,2133,1985,13,64,8,1.0
basic,43,10,0,0,0,22,"[0, 8, 22]",3,8,"[4, 7, 10, 11, 13, 19, 24, 29]",196.2430035,3204,1071,5,3,5,1.0449101169018098
basic,43,10,0,0,0,24,"[0, 8, 22, 24]",4,1,[13],106.6159986,4327,1123,1,0,5,1.7844074658110356
basic,43,10,0,0,1,13,"[0, 8, 22, 24, 13]",5,0,[],5.91346637,5490,1163,1,0,5,5.819218869132801
basic,43,10,0,1,1,13,"[0, 8, 22, 24, 13]",5,0,[],5.91346637,6347,857,1,0,5,5.819218869132801
basic,44,36,0,0,0,0,[0],1,24,"[2, 4, 5, 6, 7, 8, 9, 10, 12, 13, 14, 15, 16, 17, 18, 19, 20, 22, 23, 25, 26, 27, 28, 29]",300,115,-1,2,200,10,0.0
basic,44,36,0,0,0,12,"[0, 12]",2,23,"[2, 4, 5, 6, 7, 8, 9, 10, 13, 14, 15, 16, 17, 18, 19, 20, 22, 23, 25, 26, 27, 28, 29]",277.7963967,2389,2274,90,804,9,1.0
basic,44,36,0,0,0,18,"[0, 12, 18]",3,15,"[2, 4, 6, 7, 9, 10, 13, 16, 17, 19, 23, 25, 26, 28, 29]",235.217059,3199,810,11,123,9,3.1762450029512506
basic,44,36,0,0,0,13,"[0, 12, 18, 13]",4,8,"[2, 4, 9, 10, 16, 17, 19, 25]",119.2687947,4752,1553,9,28,8,1.842661699327773
basic,44,36,0,0,0,25,"[0, 12, 18, 13, 25]",5,6,"[2, 9, 10, 16, 17, 19]",98.67753437,5872,1120,7,8,8,1.7584257072473495
basic,44,36,0,0,0,2,"[0, 12, 18, 13, 25, 2]",6,4,"[9, 16, 17, 19]",73.67753437,6654,782,6,1,8,2.004109681198733
basic,44,36,0,0,0,19,"[0, 12, 18, 13, 25, 2, 19]",7,2,"[9, 17]",36.55611198,7424,770,2,0,8,3.4178921219068363
basic,44,36,0,0,1,9,"[0, 12, 18, 13, 25, 2, 19, 9]",8,0,[],21.42336603,7918,494,1,0,8,4.033531909297852
basic,44,36,0,1,1,9,"[0, 12, 18, 13, 25, 2, 19, 9]",8,0,[],21.42336603,8924,1006,1,0,8,4.033531909297852
basic,45,14,0,0,0,0,[0],1,29,"[1, 2, 3, 4, 5, 6, 7, 8, 9, 10, 11, 12, 13, 14, 15, 16, 17, 18, 19, 20, 21, 22, 23, 24, 25, 26, 27, 28, 29]",300,115,-1,8,157,10,0.0
basic,45,14,0,0,0,22,"[0, 22]",2,24,"[1, 2, 3, 4, 6, 7, 8, 9, 10, 11, 13, 15, 17, 18, 19, 20, 21, 23, 24, 25, 26, 27, 28, 29]",254.745166,2026,1911,1,39,8,1.0
basic,45,14,0,0,0,3,"[0, 22, 3]",3,20,"[1, 2, 6, 7, 8, 9, 10, 11, 13, 15, 17, 18, 19, 20, 21, 24, 25, 27, 28, 29]",212.0251473,2633,607,3,37,7,1.8452653659638358
basic,45,14,0,0,0,27,"[0, 22, 3, 27]",4,8,"[6, 9, 10, 11, 20, 21, 24, 29]",162.0951963,3400,767,1,6,7,1.5153459107133316
basic,45,14,0,0,0,29,"[0, 22, 3, 27, 29]",5,1,[10],115.0845593,3919,519,1,0,6,1.3714381851836104
basic,45,14,0,0,1,10,"[0, 22, 3, 27, 29, 10]",6,0,[],93.87135582,4513,594,1,0,6,1.4234398875843992
basic,45,14,0,1,1,10,"[0, 22, 3, 27, 29, 10]",6,0,[],93.87135582,7411,2898,1,0,6,1.4234398875843992
basic,46,25,0,0,0,0,[0],1,28,"[1, 2, 3, 4, 5, 7, 8, 9, 10, 11, 12, 13, 14, 15, 16, 17, 18, 19, 20, 21, 22, 23, 24, 25, 26, 27, 28, 29]",300,149,-1,5,94,10,0.0
basic,46,25,0,0,0,1,"[0, 1]",2,22,"[2, 3, 5, 7, 8, 9, 11, 12, 13, 14, 16, 17, 18, 19, 20, 21, 22, 23, 24, 25, 28, 29]",268.9516506,3069,2920,16,145,9,1.0
basic,46,25,0,0,0,23,"[0, 1, 23]",3,16,"[3, 5, 7, 8, 9, 11, 12, 13, 17, 19, 20, 21, 22, 24, 28, 29]",201.9441883,3950,881,2,17,9,2.4377214593885763
basic,46,25,0,0,0,19,"[0, 1, 23, 19]",4,13,"[3, 5, 7, 9, 11, 12, 13, 17, 20, 21, 22, 24, 29]",166.0972917,4598,648,2,9,9,2.7866177211778074
basic,46,25,0,0,0,29,"[0, 1, 23, 19, 29]",5,11,"[3, 5, 7, 9, 11, 12, 17, 20, 21, 22, 24]",149.8184711,5043,445,2,5,9,2.398074806984407
basic,46,25,0,0,0,22,"[0, 1, 23, 19, 29, 22]",6,10,"[3, 5, 7, 9, 11, 12, 17, 20, 21, 24]",133.6939556,5464,421,2,3,9,2.149511028553587
basic,46,25,0,0,0,7,"[0, 1, 23, 19, 29, 22, 7]",7,2,"[9, 24]",58.05005299,6671,1207,2,0,9,2.0644073196446207
basic,46,25,0,0,0,24,"[0, 1, 23, 19, 29, 22, 7, 24]",8,1,[9],33.29121618,8050,1379,1,0,9,1.8976704160590687
basic,46,25,0,0,1,9,"[0, 1, 23, 19, 29, 22, 7, 24, 9]",9,0,[],15.26345981,9127,1077,1,0,9,1.8239605425295298
basic,46,25,0,1,1,9,"[0, 1, 23, 19, 29, 22, 7, 24, 9]",9,0,[],15.26345981,10255,1128,1,0,9,1.8239605425295298
basic,47,34,0,0,0,0,[0],1,25,"[1, 3, 4, 5, 6, 7, 8, 9, 10, 11, 12, 13, 15, 18, 19, 20, 21, 22, 23, 24, 25, 26, 27, 28, 29]",300,115,-1,12,367,10,0.0
basic,47,34,0,0,0,13,"[0, 13]",2,24,"[1, 3, 4, 5, 6, 7, 8, 9, 10, 11, 12, 15, 18, 19, 20, 21, 22, 23, 24, 25, 26, 27, 28, 29]",279.9750156,1925,1810,12,331,10,1.0
basic,47,34,0,0,0,1,"[0, 13, 1]",3,16,"[3, 5, 7, 8, 9, 10, 11, 12, 19, 21, 22, 23, 24, 25, 27, 29]",211.8574701,2573,648,3,92,10,1.0010381285747127
basic,47,34,0,0,0,8,"[0, 13, 1, 8]",4,14,"[3, 5, 7, 9, 10, 11, 12, 19, 22, 23, 24, 25, 27, 29]",201.0871405,3846,1273,2,54,10,1.1636807
basic,47,34,0,0,0,25,"[0, 13, 1, 8, 25]",5,12,"[3, 5, 7, 9, 10, 11, 12, 22, 23, 24, 27, 29]",183.999133,4862,1016,2,28,10,1.1396208815936457
basic,47,34,0,0,0,24,"[0, 13, 1, 8, 25, 24]",6,11,"[3, 5, 7, 9, 10, 11, 12, 22, 23, 27, 29]",166.5062774,5605,743,2,23,10,1.374180768736554
basic,47,34,0,0,0,23,"[0, 13, 1, 8, 25, 24, 23]",7,6,"[5, 7, 11, 12, 27, 29]",99.97808784,8223,2618,4,3,9,2.1078306540088096
basic,47,34,0,0,0,7,"[0, 13, 1, 8, 25, 24, 23, 7]",8,2,"[11, 12]",71.81783216,9191,968,2,0,9,2.011215865419536
basic,47,34,0,0,1,12,"[0, 13, 1, 8, 25, 24, 23, 7, 12]",9,0,[],56.78453578,10094,903,1,0,9,1.9762514824310813
basic,47,34,0,1,1,12,"[0, 13, 1, 8, 25, 24, 23, 7, 12]",9,0,[],56.78453578,11566,1472,1,0,9,1.9762514824310813
basic,48,0,0,0,0,0,[0],1,27,"[2, 3, 4, 5, 6, 7, 8, 9, 10, 11, 12, 13, 14, 15, 16, 17, 19, 20, 21, 22, 23, 24, 25, 26, 27, 28, 29]",300,148,-1,104,1136,9,0.0
basic,48,0,0,0,0,20,"[0, 20]",2,25,"[2, 3, 4, 5, 6, 7, 8, 9, 11, 12, 13, 14, 15, 16, 17, 19, 21, 22, 23, 24, 25, 26, 27, 28, 29]",215.4955622,3478,3330,36,372,9,1.0
basic,48,0,0,0,0,5,"[0, 20, 5]",3,22,"[2, 3, 4, 7, 8, 9, 11, 12, 13, 14, 15, 16, 17, 19, 21, 22, 23, 24, 25, 26, 28, 29]",153.2942761,4885,1407,33,251,9,1.0828244018179105
basic,48,0,0,0,0,4,"[0, 20, 5, 4]",4,19,"[2, 3, 7, 8, 9, 11, 12, 13, 14, 15, 17, 19, 21, 22, 23, 24, 25, 26, 28]",128.2144037,6005,1120,21,127,9,1.0973859443611045
basic,48,0,0,0,0,26,"[0, 20, 5, 4, 26]",5,14,"[3, 7, 8, 9, 11, 12, 13, 14, 15, 17, 19, 23, 24, 28]",116.1728091,6702,697,9,63,9,1.1378617460104323
basic,48,0,0,0,0,24,"[0, 20, 5, 4, 26, 24]",6,11,"[3, 7, 8, 9, 11, 12, 15, 17, 19, 23, 28]",99.05556633,7318,616,9,24,9,1.204469953325506
basic,48,0,0,0,0,15,"[0, 20, 5, 4, 26, 24, 15]",7,8,"[3, 7, 8, 9, 11, 12, 17, 19]",75.71033127,7888,570,5,6,9,1.1865351459643638
basic,48,0,0,0,0,7,"[0, 20, 5, 4, 26, 24, 15, 7]",8,2,"[3, 8]",44.64588214,8743,855,2,0,9,1.2455705670301183
basic,48,0,0,0,1,8,"[0, 20, 5, 4, 26, 24, 15, 7, 8]",9,0,[],25.54090896,9360,617,1,0,9,1.2337265013393985
basic,48,0,0,1,1,8,"[0, 20, 5, 4, 26, 24, 15, 7, 8]",9,0,[],25.54090896,10802,1442,1,0,9,1.2337265013393985
basic,49,19,0,0,0,0,[0],1,29,"[1, 2, 3, 4, 5, 6, 7, 8, 9, 10, 11, 12, 13, 14, 15, 16, 17, 18, 19, 20, 21, 22, 23, 24, 25, 26, 27, 28, 29]",300,115,-1,12,149,8,0.0
basic,49,19,0,0,0,5,"[0, 5]",2,22,"[1, 4, 6, 7, 9, 10, 11, 12, 13, 14, 15, 16, 17, 19, 20, 21, 22, 23, 25, 27, 28, 29]",246.5397344,2963,2848,18,50,6,1.0
basic,49,19,0,0,0,29,"[0, 5, 29]",3,16,"[1, 4, 6, 9, 10, 12, 13, 15, 16, 17, 19, 21, 23, 25, 27, 28]",169.0155446,4143,1180,8,11,6,3.7500740491524587
basic,49,19,0,0,0,9,"[0, 5, 29, 9]",4,4,"[4, 6, 10, 28]",85.65488242,5010,867,3,1,6,1.8801479953990083
basic,49,19,0,0,0,6,"[0, 5, 29, 9, 6]",5,1,[4],44.21818371,6271,1261,1,0,6,1.6637997371163815
basic,49,19,0,0,1,4,"[0, 5, 29, 9, 6, 4]",6,0,[],3.169432209,7306,1035,1,0,6,1.8010913689975492
basic,49,19,0,1,1,4,"[0, 5, 29, 9, 6, 4]",6,0,[],3.169432209,8126,820,1,0,6,1.8010913689975492
basic,50,7,0,0,0,0,[0],1,29,"[1, 2, 3, 4, 5, 6, 7, 8, 9, 10, 11, 12, 13, 14, 15, 16, 17, 18, 19, 20, 21, 22, 23, 24, 25, 26, 27, 28, 29]",300,115,-1,3,79,9,0.0
basic,50,7,0,0,0,6,"[0, 6]",2,22,"[2, 4, 5, 7, 8, 9, 10, 11, 13, 14, 15, 16, 18, 19, 20, 21, 22, 23, 24, 25, 27, 28]",231.1160396,2584,2469,1,24,9,1.0
basic,50,7,0,0,0,13,"[0, 6, 13]",3,8,"[4, 7, 15, 18, 19, 20, 21, 25]",133.0344409,3616,1032,6,22,7,1.0045597027558524
basic,50,7,0,0,0,4,"[0, 6, 13, 4]",4,4,"[7, 18, 20, 25]",79.69589951,4244,628,5,4,7,1.5688055800213379
basic,50,7,0,0,0,25,"[0, 6, 13, 4, 25]",5,2,"[18, 20]",54.95726575,4851,607,2,0,7,2.069511399548538
basic,50,7,0,0,0,18,"[0, 6, 13, 4, 25, 18]",6,1,[20],26.63766124,6323,1472,1,0,7,1.9093385318608538
basic,50,7,0,0,1,20,"[0, 6, 13, 4, 25, 18, 20]",7,0,[],13.83141276,6851,528,1,0,7,1.908893816832029
basic,50,7,0,1,1,20,"[0, 6, 13, 4, 25, 18, 20]",7,0,[],13.83141276,7677,826,1,0,7,1.908893816832029
basic,51,42,0,0,0,0,[0],1,29,"[1, 2, 3, 4, 5, 6, 7, 8, 9, 10, 11, 12, 13, 14, 15, 16, 17, 18, 19, 20, 21, 22, 23, 24, 25, 26, 27, 28, 29]",300,148,-1,16,302,9,0.0
basic,51,42,0,0,0,3,"[0, 3]",2,25,"[1, 2, 4, 5, 6, 7, 8, 9, 10, 11, 13, 15, 17, 18, 19, 20, 21, 22, 23, 24, 25, 26, 27, 28, 29]",255.7959278,1569,1421,3,45,9,1.0
basic,51,42,0,0,0,23,"[0, 3, 23]",3,15,"[1, 2, 4, 5, 6, 7, 8, 9, 11, 15, 17, 22, 24, 25, 29]",202.4573864,2448,879,1,24,8,1.2042297975308642
basic,51,42,0,0,0,17,"[0, 3, 23, 17]",4,11,"[4, 5, 6, 8, 9, 11, 15, 22, 24, 25, 29]",191.2770465,3474,1026,1,14,8,1.192958341617778
basic,51,42,0,0,0,25,"[0, 3, 23, 17, 25]",5,2,"[9, 29]",77.28581876,4577,1103,1,1,7,7.490688527865596
basic,51,42,0,0,0,29,"[0, 3, 23, 17, 25, 29]",6,1,[9],54.09099175,5145,568,1,0,7,4.865909102449825
basic,51,42,0,0,1,9,"[0, 3, 23, 17, 25, 29, 9]",7,0,[],7.080354653,6073,928,1,0,7,3.542806824752792
basic,51,42,0,1,1,9,"[0, 3, 23, 17, 25, 29, 9]",7,0,[],7.080354653,6896,823,1,0,7,3.542806824752792
basic,52,8,0,0,0,0,[0],1,29,"[1, 2, 3, 4, 5, 6, 7, 8, 9, 10, 11, 12, 13, 14, 15, 16, 17, 18, 19, 20, 21, 22, 23, 24, 25, 26, 27, 28, 29]",300,115,-1,10,149,9,0.0
basic,52,8,0,0,0,5,"[0, 5]",2,28,"[1, 2, 3, 4, 6, 7, 8, 9, 10, 11, 12, 13, 14, 15, 16, 17, 18, 19, 20, 21, 22, 23, 24, 25, 26, 27, 28, 29]",254.5137383,2224,2109,10,100,9,1.0
basic,52,8,0,0,0,25,"[0, 5, 25]",3,20,"[1, 2, 3, 4, 6, 11, 12, 14, 15, 16, 17, 18, 19, 20, 21, 22, 23, 24, 28, 29]",215.3091468,2930,706,4,42,9,1.2272747879909065
basic,52,8,0,0,0,1,"[0, 5, 25, 1]",4,17,"[3, 4, 6, 11, 12, 14, 15, 16, 17, 18, 20, 21, 22, 23, 24, 28, 29]",190.3091468,3657,727,3,24,9,1.1770245007593956
basic,52,8,0,0,0,23,"[0, 5, 25, 1, 23]",5,15,"[3, 4, 6, 11, 14, 15, 16, 17, 18, 20, 21, 22, 24, 28, 29]",167.2874179,4319,662,1,14,9,1.141996583852372
basic,52,8,0,0,0,14,"[0, 5, 25, 1, 23, 14]",6,5,"[11, 15, 17, 18, 28]",98.40345751,5472,1153,2,3,8,2.359509060380308
basic,52,8,0,0,0,17,"[0, 5, 25, 1, 23, 14, 17]",7,1,[11],61.38994646,7001,1529,1,0,8,2.1845828320464817
basic,52,8,0,0,1,11,"[0, 5, 25, 1, 23, 14, 17, 11]",8,0,[],36.21058984,7575,574,1,0,8,2.014892814041164
basic,52,8,0,1,1,11,"[0, 5, 25, 1, 23, 14, 17, 11]",8,0,[],36.21058984,9456,1881,1,0,8,2.014892814041164
basic,53,22,0,0,0,0,[0],1,29,"[1, 2, 3, 4, 5, 6, 7, 8, 9, 10, 11, 12, 13, 14, 15, 16, 17, 18, 19, 20, 21, 22, 23, 24, 25, 26, 27, 28, 29]",300,165,-1,31,704,9,0.0
basic,53,22,0,0,0,16,"[0, 16]",2,21,"[1, 3, 6, 7, 8, 9, 11, 13, 14, 15, 17, 18, 19, 20, 21, 22, 24, 25, 27, 28, 29]",218.605897,1880,1715,17,147,9,1.0
basic,53,22,0,0,0,28,"[0, 16, 28]",3,13,"[6, 7, 9, 13, 14, 17, 19, 20, 21, 22, 24, 25, 29]",184.1675463,2665,785,12,61,9,1.047282311284478
basic,53,22,0,0,0,6,"[0, 16, 28, 6]",4,12,"[7, 9, 13, 14, 17, 19, 20, 21, 22, 24, 25, 29]",154.1675463,3233,568,12,43,9,1.645645870580622
basic,53,22,0,0,0,9,"[0, 16, 28, 6, 9]",5,8,"[7, 14, 17, 19, 20, 21, 24, 29]",127.5404924,4303,1070,8,17,9,1.925750226630103
basic,53,22,0,0,0,19,"[0, 16, 28, 6, 9, 19]",6,6,"[7, 14, 17, 21, 24, 29]",107.1444143,4862,559,3,7,9,2.4220750331476455
basic,53,22,0,0,0,29,"[0, 16, 28, 6, 9, 19, 29]",7,4,"[7, 14, 17, 24]",92.11111796,5769,907,2,2,9,2.6996279574991067
basic,53,22,0,0,0,14,"[0, 16, 28, 6, 9, 19, 29, 14]",8,1,[7],33.86165444,6695,926,1,0,9,2.0544639927929462
basic,53,22,0,0,1,7,"[0, 16, 28, 6, 9, 19, 29, 14, 7]",9,0,[],20.82324963,7434,739,1,0,9,2.219817088951114
basic,53,22,0,1,1,7,"[0, 16, 28, 6, 9, 19, 29, 14, 7]",9,0,[],20.82324963,8392,958,1,0,9,2.219817088951114
basic,54,32,0,0,0,0,[0],1,29,"[1, 2, 3, 4, 5, 6, 7, 8, 9, 10, 11, 12, 13, 14, 15, 16, 17, 18, 19, 20, 21, 22, 23, 24, 25, 26, 27, 28, 29]",300,115,-1,17,359,10,0.0
basic,54,32,0,0,0,19,"[0, 19]",2,28,"[1, 2, 3, 4, 5, 6, 7, 8, 9, 10, 11, 12, 13, 14, 15, 16, 17, 18, 20, 21, 22, 23, 24, 25, 26, 27, 28, 29]",283.5075775,6436,6321,16,294,10,1.0
basic,54,32,0,0,0,13,"[0, 19, 13]",3,24,"[2, 3, 4, 5, 6, 8, 9, 10, 11, 12, 14, 15, 16, 17, 18, 20, 21, 22, 23, 24, 25, 26, 27, 28]",260.3127505,7103,667,14,227,10,1.0172874229878615
basic,54,32,0,0,0,15,"[0, 19, 13, 15]",4,18,"[2, 3, 5, 8, 9, 10, 11, 12, 16, 17, 20, 22, 23, 24, 25, 26, 27, 28]",177.4393531,8191,1088,9,116,10,1.435447391509833
basic,54,32,0,0,0,28,"[0, 19, 13, 15, 28]",5,17,"[2, 3, 5, 8, 9, 10, 11, 12, 16, 17, 20, 22, 23, 24, 25, 26, 27]",166.0375988,8950,759,9,70,10,1.3843701324937985
basic,54,32,0,0,0,12,"[0, 19, 13, 15, 28, 12]",6,14,"[2, 3, 5, 8, 9, 10, 11, 16, 17, 20, 22, 24, 26, 27]",147.0639329,9631,681,6,35,10,1.358372254952329
basic,54,32,0,0,0,16,"[0, 19, 13, 15, 28, 12, 16]",7,13,"[2, 3, 5, 8, 9, 10, 11, 17, 20, 22, 24, 26, 27]",131.411457,10500,869,5,15,10,1.4356932930709845
basic,54,32,0,0,0,22,"[0, 19, 13, 15, 28, 12, 16, 22]",8,6,"[2, 8, 9, 17, 20, 27]",97.57360838,11089,589,3,5,10,1.4335226411545752
basic,54,32,0,0,0,9,"[0, 19, 13, 15, 28, 12, 16, 22, 9]",9,3,"[2, 8, 20]",75.37000507,12172,1083,3,0,10,1.4837166378374758
basic,54,32,0,0,1,20,"[0, 19, 13, 15, 28, 12, 16, 22, 9, 20]",10,0,[],12.72018464,13334,1162,1,0,10,1.420264208067807
basic,54,32,0,1,1,20,"[0, 19, 13, 15, 28, 12, 16, 22, 9, 20]",10,0,[],12.72018464,14226,892,1,0,10,1.420264208067807
basic,55,3,0,0,0,0,[0],1,29,"[1, 2, 3, 4, 5, 6, 7, 8, 9, 10, 11, 12, 13, 14, 15, 16, 17, 18, 19, 20, 21, 22, 23, 24, 25, 26, 27, 28, 29]",300,115,-1,34,427,10,0.0
basic,55,3,0,0,0,8,"[0, 8]",2,28,"[1, 2, 3, 4, 5, 6, 7, 9, 10, 11, 12, 13, 14, 15, 16, 17, 18, 19, 20, 21, 22, 23, 24, 25, 26, 27, 28, 29]",239.9666759,2184,2069,1,54,10,1.0
basic,55,3,0,0,0,24,"[0, 8, 24]",3,23,"[1, 2, 3, 4, 5, 6, 7, 10, 11, 12, 14, 15, 16, 17, 18, 19, 20, 21, 22, 25, 26, 27, 28]",227.8011509,2697,513,1,50,10,1.2267083825981846
basic,55,3,0,0,0,14,"[0, 8, 24, 14]",4,10,"[3, 4, 7, 10, 16, 17, 19, 20, 21, 22]",156.6885641,3661,964,11,34,9,1.1134869392511408
basic,55,3,0,0,0,21,"[0, 8, 24, 14, 21]",5,6,"[3, 4, 10, 17, 19, 20]",129.781316,4216,555,5,9,9,1.1069743794257796
basic,55,3,0,0,0,19,"[0, 8, 24, 14, 21, 19]",6,5,"[3, 4, 10, 17, 20]",117.5747604,4618,402,5,2,9,1.2361067774463228
basic,55,3,0,0,0,3,"[0, 8, 24, 14, 21, 19, 3]",7,2,"[17, 20]",80.23845095,5222,604,2,0,9,1.7566876040075643
basic,55,3,0,0,0,20,"[0, 8, 24, 14, 21, 19, 3, 20]",8,1,[17],59.8423729,5789,567,1,0,9,2.1212226227760778
basic,55,3,0,0,1,17,"[0, 8, 24, 14, 21, 19, 3, 20, 17]",9,0,[],47.19326226,6482,693,1,0,9,2.4711452839916217
basic,55,3,0,1,1,17,"[0, 8, 24, 14, 21, 19, 3, 20, 17]",9,0,[],47.19326226,7893,1411,1,0,9,2.4711452839916217
basic,56,17,0,0,0,0,[0],1,28,"[1, 2, 3, 4, 5, 6, 7, 8, 9, 10, 11, 12, 13, 14, 15, 16, 17, 18, 19, 20, 22, 23, 24, 25, 26, 27, 28, 29]",300,148,-1,2,73,8,0.0
basic,56,17,0,0,0,19,"[0, 19]",2,9,"[3, 4, 5, 10, 11, 18, 20, 22, 28]",138.1049723,3218,3070,1,8,6,1.0
basic,56,17,0,0,0,22,"[0, 19, 22]",3,2,"[5, 28]",85.49318653,3858,640,2,0,4,1.0002084079157765
basic,56,17,0,1,0,22,"[0, 19, 22]",3,2,"[5, 28]",85.49318653,6563,2705,2,0,4,1.0002084079157765
basic,57,23,0,0,0,0,[0],1,28,"[1, 2, 3, 4, 5, 6, 7, 8, 9, 10, 11, 12, 13, 14, 15, 16, 17, 18, 19, 20, 21, 22, 23, 25, 26, 27, 28, 29]",300,115,-1,76,2626,10,0.0
basic,57,23,0,0,0,13,"[0, 13]",2,19,"[1, 2, 3, 5, 6, 7, 8, 9, 10, 12, 14, 17, 18, 19, 21, 22, 23, 27, 29]",189.3202819,2004,1889,9,168,10,1.0
basic,57,23,0,0,0,12,"[0, 13, 12]",3,16,"[1, 2, 3, 6, 7, 8, 9, 10, 14, 17, 18, 21, 22, 23, 27, 29]",177.2372359,2508,504,9,96,10,1.0014195490503164
basic,57,23,0,0,0,2,"[0, 13, 12, 2]",4,12,"[1, 3, 6, 7, 9, 10, 14, 18, 21, 22, 27, 29]",163.3447919,3548,1040,4,30,10,1.0014394317924602
basic,57,23,0,0,0,14,"[0, 13, 12, 2, 14]",5,10,"[1, 3, 6, 7, 9, 10, 18, 22, 27, 29]",148.4787232,4659,1111,1,8,10,1.0754577801718215
basic,57,23,0,0,0,9,"[0, 13, 12, 2, 14, 9]",6,8,"[1, 6, 7, 10, 18, 22, 27, 29]",138.0384167,5099,440,1,6,10,1.2396753751445624
basic,57,23,0,0,0,6,"[0, 13, 12, 2, 14, 9, 6]",7,5,"[7, 18, 22, 27, 29]",106.8935937,5885,786,2,3,9,1.285292700073252
basic,57,23,0,0,0,27,"[0, 13, 12, 2, 14, 9, 6, 27]",8,1,[18],78.59165027,6370,485,1,0,9,1.5463829918777812
basic,57,23,0,0,1,18,"[0, 13, 12, 2, 14, 9, 6, 27, 18]",9,0,[],3.278968739,7584,1214,1,0,9,3.0874957439455195
basic,57,23,0,1,1,18,"[0, 13, 12, 2, 14, 9, 6, 27, 18]",9,0,[],3.278968739,8475,891,1,0,9,3.0874957439455195
basic,58,30,0,0,0,0,[0],1,19,"[3, 4, 5, 7, 9, 11, 16, 17, 18, 19, 20, 21, 22, 24, 25, 26, 27, 28, 29]",300,114,-1,5,41,8,0.0
basic,58,30,0,0,0,25,"[0, 25]",2,12,"[3, 5, 7, 9, 11, 16, 18, 19, 20, 24, 27, 29]",121.1005869,3455,3341,7,37,7,1.0
basic,58,30,0,0,0,20,"[0, 25, 20]",3,9,"[3, 5, 7, 9, 11, 18, 19, 27, 29]",99.16887472,3927,472,5,16,7,1.0037291321296267
basic,58,30,0,0,0,27,"[0, 25, 20, 27]",4,4,"[3, 5, 18, 29]",65.11010199,4967,1040,4,6,7,1.1217072851053165
basic,58,30,0,0,0,3,"[0, 25, 20, 27, 3]",5,3,"[5, 18, 29]",46.00512882,5398,431,4,0,7,1.1140018780928678
basic,58,30,0,0,0,18,"[0, 25, 20, 27, 3, 18]",6,2,"[5, 29]",27.75684122,5960,562,2,0,7,1.1146279013330882
basic,58,30,0,0,1,5,"[0, 25, 20, 27, 3, 18, 5]",7,0,[],14.71843641,6535,575,1,0,7,1.179756297971811
basic,58,30,0,1,1,5,"[0, 25, 20, 27, 3, 18, 5]",7,0,[],14.71843641,7560,1025,1,0,7,1.179756297971811
basic,59,6,0,0,0,0,[0],1,29,"[1, 2, 3, 4, 5, 6, 7, 8, 9, 10, 11, 12, 13, 14, 15, 16, 17, 18, 19, 20, 21, 22, 23, 24, 25, 26, 27, 28, 29]",300,116,-1,180,4304,10,0.0
basic,59,6,0,0,0,3,"[0, 3]",2,28,"[1, 2, 4, 5, 6, 7, 8, 9, 10, 11, 12, 13, 14, 15, 16, 17, 18, 19, 20, 21, 22, 23, 24, 25, 26, 27, 28, 29]",266.4738908,1852,1736,90,1607,10,1.0
basic,59,6,0,0,0,18,"[0, 3, 18]",3,27,"[1, 2, 4, 5, 6, 7, 8, 9, 10, 11, 12, 13, 14, 15, 16, 17, 19, 20, 21, 22, 23, 24, 25, 26, 27, 28, 29]",237.4738908,2635,783,34,516,10,1.0266750028725786
basic,59,6,0,0,0,17,"[0, 3, 18, 17]",4,26,"[1, 2, 4, 5, 6, 7, 8, 9, 10, 11, 12, 13, 14, 15, 16, 19, 20, 21, 22, 23, 24, 25, 26, 27, 28, 29]",223.5455025,3084,449,17,243,10,1.0832900829093166
basic,59,6,0,0,0,10,"[0, 3, 18, 17, 10]",5,22,"[1, 2, 4, 5, 6, 7, 8, 9, 11, 13, 14, 16, 19, 20, 21, 22, 23, 24, 26, 27, 28, 29]",203.8224196,3515,431,10,111,10,1.140294203414171
basic,59,6,0,0,0,24,"[0, 3, 18, 17, 10, 24]",6,19,"[1, 2, 4, 5, 6, 7, 8, 11, 13, 14, 16, 20, 21, 22, 23, 26, 27, 28, 29]",190.4060117,4308,793,10,80,10,1.1264281153820843
basic,59,6,0,0,0,7,"[0, 3, 18, 17, 10, 24, 7]",7,7,"[1, 2, 8, 13, 16, 26, 29]",119.4694203,5116,808,7,2,9,3.7594224039448885
basic,59,6,0,0,0,26,"[0, 3, 18, 17, 10, 24, 7, 26]",8,3,"[1, 2, 13]",95.38623114,5836,720,3,0,9,4.113722643581588
basic,59,6,0,0,1,2,"[0, 3, 18, 17, 10, 24, 7, 26, 2]",9,0,[],65.55336336,8355,2519,1,0,9,2.9556271670125684
basic,59,6,0,1,1,2,"[0, 3, 18, 17, 10, 24, 7, 26, 2]",9,0,[],65.55336336,9540,1185,1,0,9,2.9556271670125684
basic,60,18,0,0,0,0,[0],1,28,"[1, 2, 3, 4, 5, 6, 7, 8, 9, 10, 11, 12, 13, 14, 16, 17, 18, 19, 20, 21, 22, 23, 24, 25, 26, 27, 28, 29]",300,115,-1,3,136,10,0.0
basic,60,18,0,0,0,28,"[0, 28]",2,16,"[1, 3, 5, 7, 8, 9, 12, 13, 14, 16, 20, 23, 24, 25, 26, 27]",236.4311397,3253,3138,2,19,10,1.0
basic,60,18,0,0,0,7,"[0, 28, 7]",3,15,"[1, 3, 5, 8, 9, 12, 13, 14, 16, 20, 23, 24, 25, 26, 27]",214.4084242,4086,833,2,17,10,1.4345180696367563
basic,60,18,0,0,0,25,"[0, 28, 7, 25]",4,13,"[1, 3, 5, 8, 9, 12, 13, 14, 16, 20, 23, 26, 27]",186.6055466,4813,727,2,15,10,1.8896451241781882
basic,60,18,0,0,0,8,"[0, 28, 7, 25, 8]",5,10,"[3, 5, 9, 12, 13, 14, 16, 23, 26, 27]",149.551532,5319,506,2,10,10,1.590467437592877
basic,60,18,0,0,0,13,"[0, 28, 7, 25, 8, 13]",6,9,"[3, 5, 9, 12, 14, 16, 23, 26, 27]",128.4565089,6445,1126,2,5,10,1.8248274983549797
basic,60,18,0,0,0,14,"[0, 28, 7, 25, 8, 13, 14]",7,7,"[3, 5, 9, 12, 23, 26, 27]",109.4828429,7205,760,2,3,10,1.6993534956692746
basic,60,18,0,0,0,3,"[0, 28, 7, 25, 8, 13, 14, 3]",8,3,"[5, 12, 27]",79.39962499,8078,873,2,1,10,1.802637206541468
basic,60,18,0,0,0,5,"[0, 28, 7, 25, 8, 13, 14, 3, 5]",9,1,[12],21.21887216,9349,1271,1,0,10,1.559774889743805
basic,60,18,0,0,1,12,"[0, 28, 7, 25, 8, 13, 14, 3, 5, 12]",10,0,[],9.817117911,10597,1248,1,0,10,1.563993037384447
basic,60,18,0,1,1,12,"[0, 28, 7, 25, 8, 13, 14, 3, 5, 12]",10,0,[],9.817117911,11683,1086,1,0,10,1.563993037384447
basic,61,33,0,0,0,0,[0],1,23,"[1, 2, 5, 7, 8, 11, 12, 13, 14, 15, 16, 17, 18, 19, 20, 21, 23, 24, 25, 26, 27, 28, 29]",300,116,-1,5,108,9,0.0
basic,61,33,0,0,0,8,"[0, 8]",2,22,"[1, 2, 5, 7, 11, 12, 13, 14, 15, 16, 17, 18, 19, 20, 21, 23, 24, 25, 26, 27, 28, 29]",265.8679037,3762,3646,5,87,9,1.0
basic,61,33,0,0,0,21,"[0, 8, 21]",3,16,"[2, 5, 7, 11, 13, 14, 16, 17, 18, 19, 20, 24, 26, 27, 28, 29]",166.0430571,4874,1112,5,80,9,1.0670557763739492
basic,61,33,0,0,0,13,"[0, 8, 21, 13]",4,12,"[2, 7, 11, 14, 16, 17, 18, 19, 20, 24, 26, 29]",139.6422995,6202,1328,4,54,9,1.0555103820910288
basic,61,33,0,0,0,19,"[0, 8, 21, 13, 19]",5,10,"[7, 11, 14, 16, 17, 18, 20, 24, 26, 29]",114.1472019,7157,955,3,19,9,1.1090798607799486
basic,61,33,0,0,0,24,"[0, 8, 21, 13, 19, 24]",6,6,"[7, 14, 16, 18, 26, 29]",72.09960985,7834,677,2,3,9,1.1193530461391534
basic,61,33,0,0,0,7,"[0, 8, 21, 13, 19, 24, 7]",7,2,"[14, 26]",42.89344611,8615,781,2,0,9,1.2065014071663551
basic,61,33,0,0,0,26,"[0, 8, 21, 13, 19, 24, 7, 26]",8,1,[14],16.2663922,9298,683,1,0,9,1.254120960869259
basic,61,33,0,0,1,14,"[0, 8, 21, 13, 19, 24, 7, 26, 14]",9,0,[],3.617281561,9986,688,1,0,9,1.3661671727317324
basic,61,33,0,1,1,14,"[0, 8, 21, 13, 19, 24, 7, 26, 14]",9,0,[],3.617281561,11567,1581,1,0,9,1.3661671727317324
basic,62,9,0,0,0,0,[0],1,27,"[1, 3, 4, 5, 6, 7, 8, 9, 10, 11, 13, 14, 15, 16, 17, 18, 19, 20, 21, 22, 23, 24, 25, 26, 27, 28, 29]",300,115,-1,2,182,10,0.0
basic,62,9,0,0,0,7,"[0, 7]",2,19,"[3, 4, 5, 8, 9, 10, 11, 16, 17, 18, 19, 20, 21, 22, 23, 25, 26, 27, 28]",258.4067313,2987,2872,39,322,9,1.0
basic,62,9,0,0,0,4,"[0, 7, 4]",3,15,"[3, 8, 9, 10, 11, 18, 19, 20, 21, 22, 23, 25, 26, 27, 28]",243.4067313,3417,430,32,159,9,1.002790151820037
basic,62,9,0,0,0,27,"[0, 7, 4, 27]",4,11,"[8, 9, 10, 11, 20, 21, 22, 23, 25, 26, 28]",181.165266,4358,941,19,48,9,2.2170504989781823
basic,62,9,0,0,0,25,"[0, 7, 4, 27, 25]",5,10,"[8, 9, 10, 11, 20, 21, 22, 23, 26, 28]",145.2626199,5681,1323,17,30,9,6.425119990857526
basic,62,9,0,0,0,10,"[0, 7, 4, 27, 25, 10]",6,8,"[8, 9, 20, 21, 22, 23, 26, 28]",105.4129022,6883,1202,10,7,9,3.581425027421569
basic,62,9,0,0,0,8,"[0, 7, 4, 27, 25, 10, 8]",7,4,"[9, 23, 26, 28]",57.03935571,7793,910,5,2,9,3.8093024713254513
basic,62,9,0,0,0,28,"[0, 7, 4, 27, 25, 10, 8, 28]",8,3,"[9, 23, 26]",46.22270189,8289,496,3,0,9,3.4166561767504806
basic,62,9,0,0,1,23,"[0, 7, 4, 27, 25, 10, 8, 28, 23]",9,0,[],21.20270988,9249,960,1,0,9,4.682528489450431
basic,62,9,0,1,1,23,"[0, 7, 4, 27, 25, 10, 8, 28, 23]",9,0,[],21.20270988,11733,2484,1,0,9,4.682528489450431
basic,63,5,0,0,0,0,[0],1,29,"[1, 2, 3, 4, 5, 6, 7, 8, 9, 10, 11, 12, 13, 14, 15, 16, 17, 18, 19, 20, 21, 22, 23, 24, 25, 26, 27, 28, 29]",300,115,-1,5,139,9,0.0
basic,63,5,0,0,0,23,"[0, 23]",2,27,"[1, 2, 3, 4, 5, 6, 7, 8, 9, 10, 11, 12, 13, 14, 15, 16, 17, 18, 19, 20, 21, 22, 24, 25, 26, 27, 28]",249.8402552,2085,1970,3,75,9,1.0
basic,63,5,0,0,0,24,"[0, 23, 24]",3,24,"[1, 2, 3, 4, 5, 6, 8, 9, 10, 11, 12, 13, 14, 15, 16, 17, 18, 19, 21, 22, 25, 26, 27, 28]",226.7534624,2900,815,20,147,8,1.0113799830159869
basic,63,5,0,0,0,25,"[0, 23, 24, 25]",4,20,"[2, 4, 5, 6, 8, 9, 10, 12, 13, 14, 15, 16, 17, 18, 19, 21, 22, 26, 27, 28]",201.9139777,3564,664,10,54,8,1.5618476545435112
basic,63,5,0,0,0,12,"[0, 23, 24, 25, 12]",5,14,"[2, 4, 5, 6, 8, 10, 13, 15, 17, 18, 19, 22, 26, 27]",174.1290897,4642,1078,3,17,8,1.75567374076113
basic,63,5,0,0,0,17,"[0, 23, 24, 25, 12, 17]",6,7,"[4, 5, 6, 8, 15, 18, 19]",107.3982873,5655,1013,3,4,8,1.8038012016586276
basic,63,5,0,0,0,5,"[0, 23, 24, 25, 12, 17, 5]",7,1,[15],64.35180076,6490,835,1,0,8,1.576603698255933
basic,63,5,0,0,1,15,"[0, 23, 24, 25, 12, 17, 5, 15]",8,0,[],24.32680857,8631,2141,1,0,8,1.5600422356934105
basic,63,5,0,1,1,15,"[0, 23, 24, 25, 12, 17, 5, 15]",8,0,[],24.32680857,9605,974,1,0,8,1.5600422356934105
basic,64,1,0,0,0,0,[0],1,26,"[1, 2, 4, 5, 7, 8, 9, 10, 11, 12, 13, 14, 15, 16, 17, 18, 19, 20, 21, 22, 23, 24, 25, 26, 28, 29]",300,115,-1,6,74,7,0.0
basic,64,1,0,0,0,8,"[0, 8]",2,23,"[1, 4, 5, 7, 9, 10, 11, 12, 13, 14, 15, 16, 17, 18, 19, 20, 21, 23, 24, 25, 26, 28, 29]",202,4813,4698,1,16,7,1.0
basic,64,1,0,0,0,14,"[0, 8, 14]",3,12,"[1, 5, 9, 15, 17, 18, 19, 20, 25, 26, 28, 29]",138.1094686,5851,1038,2,11,6,1.6219900283216735
basic,64,1,0,0,0,17,"[0, 8, 14, 17]",4,6,"[1, 15, 18, 20, 28, 29]",85.75490817,7818,1967,1,5,6,1.4120458181998161
basic,64,1,0,0,1,20,"[0, 8, 14, 17, 20]",5,0,[],17.34438266,9340,1522,1,0,5,1.6623062689229378
basic,64,1,0,1,1,20,"[0, 8, 14, 17, 20]",5,0,[],17.34438266,10120,780,1,0,5,1.6623062689229378
basic,65,4,0,0,0,0,[0],1,26,"[3, 4, 5, 6, 7, 8, 10, 11, 12, 13, 14, 15, 16, 17, 18, 19, 20, 21, 22, 23, 24, 25, 26, 27, 28, 29]",300,149,-1,4,489,10,0.0
basic,65,4,0,0,0,28,"[0, 28]",2,21,"[3, 4, 5, 6, 10, 11, 12, 13, 14, 15, 16, 17, 19, 20, 21, 22, 23, 24, 25, 26, 27]",225.9392142,2233,2084,2,216,10,1.0
basic,65,4,0,0,0,14,"[0, 28, 14]",3,13,"[3, 4, 5, 6, 11, 13, 16, 17, 20, 21, 22, 24, 25]",159.6972335,3169,936,1,26,10,1.0273973946789214
basic,65,4,0,0,0,25,"[0, 28, 14, 25]",4,12,"[3, 4, 5, 6, 11, 13, 16, 17, 20, 21, 22, 24]",143.572718,3786,617,1,25,10,1.233547772313525
basic,65,4,0,0,0,11,"[0, 28, 14, 25, 11]",5,10,"[3, 4, 5, 6, 13, 16, 17, 20, 21, 22]",124.7844238,4353,567,1,15,10,1.425978575879479
basic,65,4,0,0,0,16,"[0, 28, 14, 25, 11, 16]",6,9,"[3, 4, 5, 6, 13, 17, 20, 21, 22]",109.7844238,4906,553,1,12,10,1.3799325158051412
basic,65,4,0,0,0,17,"[0, 28, 14, 25, 11, 16, 17]",7,5,"[3, 5, 20, 21, 22]",83.70761416,5673,767,1,5,10,1.3195184878861832
basic,65,4,0,0,0,21,"[0, 28, 14, 25, 11, 16, 17, 21]",8,1,[22],34.45317274,6761,1088,1,0,9,1.7966566629354186
basic,65,4,0,0,1,22,"[0, 28, 14, 25, 11, 16, 17, 21, 22]",9,0,[],23.40781172,7561,800,1,0,9,1.7433011729935863
basic,65,4,0,1,1,22,"[0, 28, 14, 25, 11, 16, 17, 21, 22]",9,0,[],23.40781172,8642,1081,1,0,9,1.7433011729935863
basic,66,37,0,0,0,0,[0],1,29,"[1, 2, 3, 4, 5, 6, 7, 8, 9, 10, 11, 12, 13, 14, 15, 16, 17, 18, 19, 20, 21, 22, 23, 24, 25, 26, 27, 28, 29]",300,116,-1,6,168,10,0.0
basic,66,37,0,0,0,19,"[0, 19]",2,19,"[1, 2, 4, 5, 6, 7, 9, 10, 11, 15, 17, 18, 20, 21, 22, 25, 26, 28, 29]",185.6627795,1832,1716,25,244,9,1.0
basic,66,37,0,0,0,20,"[0, 19, 20]",3,13,"[1, 2, 4, 7, 10, 15, 17, 18, 21, 22, 25, 26, 29]",149.4136415,3584,1752,12,75,9,1.004601353917277
basic,66,37,0,0,0,15,"[0, 19, 20, 15]",4,9,"[1, 2, 4, 7, 18, 21, 22, 26, 29]",132.4136415,4415,831,3,28,9,1.0071470177702175
basic,66,37,0,0,0,21,"[0, 19, 20, 15, 21]",5,8,"[1, 2, 4, 7, 18, 22, 26, 29]",117.4136415,4943,528,3,10,9,1.1765083174642281
basic,66,37,0,0,0,1,"[0, 19, 20, 15, 21, 1]",6,3,"[2, 4, 22]",69.87418425,5631,688,3,3,9,1.4535550574337186
basic,66,37,0,0,0,4,"[0, 19, 20, 15, 21, 1, 4]",7,2,"[2, 22]",52.1541391,6281,650,1,1,9,1.5248949366144997
basic,66,37,0,0,0,2,"[0, 19, 20, 15, 21, 1, 4, 2]",8,1,[22],40.75238485,6766,485,1,0,9,1.714917215599218
basic,66,37,0,0,1,22,"[0, 19, 20, 15, 21, 1, 4, 2, 22]",9,0,[],13.09375148,8931,2165,1,0,9,1.761719946284259
basic,66,37,0,1,1,22,"[0, 19, 20, 15, 21, 1, 4, 2, 22]",9,0,[],13.09375148,9656,725,1,0,9,1.761719946284259
basic,67,16,0,0,0,0,[0],1,29,"[1, 2, 3, 4, 5, 6, 7, 8, 9, 10, 11, 12, 13, 14, 15, 16, 17, 18, 19, 20, 21, 22, 23, 24, 25, 26, 27, 28, 29]",300,115,-1,13,161,9,0.0
basic,67,16,0,0,0,17,"[0, 17]",2,27,"[1, 2, 3, 4, 5, 7, 8, 9, 10, 11, 12, 13, 14, 15, 16, 18, 19, 20, 21, 22, 23, 24, 25, 26, 27, 28, 29]",241.3058776,1743,1628,2,58,9,1.0
basic,67,16,0,0,0,16,"[0, 17, 16]",3,26,"[1, 2, 3, 4, 5, 7, 8, 9, 10, 11, 12, 13, 14, 15, 18, 19, 20, 21, 22, 23, 24, 25, 26, 27, 28, 29]",212.9862731,2516,773,2,52,9,1.0529535521792848
basic,67,16,0,0,0,8,"[0, 17, 16, 8]",4,19,"[2, 3, 4, 5, 9, 12, 13, 14, 15, 19, 20, 21, 22, 23, 25, 26, 27, 28, 29]",164.6127266,3888,1372,2,38,9,1.0915134501573105
basic,67,16,0,0,0,25,"[0, 17, 16, 8, 25]",5,8,"[3, 4, 5, 9, 12, 13, 15, 20]",104.3964498,5228,1340,1,10,9,1.0616056954683581
basic,67,16,0,0,0,9,"[0, 17, 16, 8, 25, 9]",6,7,"[3, 4, 5, 12, 13, 15, 20]",91.59020129,5656,428,8,4,8,1.0576997505685053
basic,67,16,0,0,0,20,"[0, 17, 16, 8, 25, 9, 20]",7,3,"[5, 12, 15]",70.70958827,6125,469,3,0,8,1.2671847106257557
basic,67,16,0,0,1,5,"[0, 17, 16, 8, 25, 9, 20, 5]",8,0,[],8.027852491,7229,1104,1,0,8,1.5437677145633986
basic,67,16,0,1,1,5,"[0, 17, 16, 8, 25, 9, 20, 5]",8,0,[],8.027852491,8376,1147,1,0,8,1.5437677145633986
basic,68,45,0,0,0,0,[0],1,24,"[1, 2, 3, 4, 5, 6, 7, 9, 10, 11, 12, 14, 15, 16, 17, 19, 20, 21, 22, 23, 24, 25, 27, 29]",300,115,-1,6,248,10,0.0
basic,68,45,0,0,0,15,"[0, 15]",2,23,"[1, 2, 3, 4, 5, 6, 7, 9, 10, 11, 12, 14, 16, 17, 19, 20, 21, 22, 23, 24, 25, 27, 29]",253.9022777,3446,3331,5,207,10,1.0
basic,68,45,0,0,0,23,"[0, 15, 23]",3,22,"[1, 2, 3, 4, 5, 6, 7, 9, 10, 11, 12, 14, 16, 17, 19, 20, 21, 22, 24, 25, 27, 29]",230.3014303,4030,584,5,163,10,1.0006068457769497
basic,68,45,0,0,0,20,"[0, 15, 23, 20]",4,19,"[1, 2, 3, 5, 6, 7, 9, 10, 11, 12, 14, 16, 17, 19, 21, 22, 24, 25, 29]",188.8647316,4607,577,5,137,10,1.2062119754673604
basic,68,45,0,0,0,10,"[0, 15, 23, 20, 10]",5,12,"[2, 3, 6, 7, 9, 12, 14, 17, 22, 24, 25, 29]",132.784432,5364,757,1,54,10,1.1363907740691004
basic,68,45,0,0,0,29,"[0, 15, 23, 20, 10, 29]",6,8,"[2, 3, 6, 7, 12, 14, 22, 24]",111.2437728,6021,657,1,21,10,1.1719694806770014
basic,68,45,0,0,0,3,"[0, 15, 23, 20, 10, 29, 3]",7,5,"[2, 6, 7, 12, 22]",91.24377276,6468,447,1,7,10,1.1637144299354454
basic,68,45,0,0,0,6,"[0, 15, 23, 20, 10, 29, 3, 6]",8,2,"[12, 22]",55.0084309,7237,769,1,1,10,1.422423644740367
basic,68,45,0,0,0,12,"[0, 15, 23, 20, 10, 29, 3, 6, 12]",9,1,[22],34.8838191,7821,584,1,0,10,1.395348320526316
basic,68,45,0,0,1,22,"[0, 15, 23, 20, 10, 29, 3, 6, 12, 22]",10,0,[],3.308512292,8748,927,1,0,10,1.3962454826892252
basic,68,45,0,1,1,22,"[0, 15, 23, 20, 10, 29, 3, 6, 12, 22]",10,0,[],3.308512292,9539,791,1,0,10,1.3962454826892252
undo,69,34,0,0,0,0,[0],1,25,"[1, 3, 4, 5, 6, 7, 8, 9, 10, 11, 12, 13, 15, 18, 19, 20, 21, 22, 23, 24, 25, 26, 27, 28, 29]",300,133,-1,12,367,10,0.0
undo,69,34,0,0,0,27,"[0, 27]",2,24,"[1, 3, 4, 5, 6, 7, 8, 9, 10, 11, 12, 13, 15, 18, 19, 20, 21, 22, 23, 24, 25, 26, 28, 29]",240.9661114,1694,1561,31,159,9,1.0
undo,69,34,0,0,0,23,"[0, 27, 23]",3,22,"[1, 3, 4, 5, 6, 7, 8, 9, 10, 11, 12, 13, 15, 18, 19, 21, 22, 24, 25, 26, 28, 29]",187.30048,2351,657,30,73,9,1.187627397332641
undo,69,34,0,0,0,7,"[0, 27, 23, 7]",4,19,"[1, 3, 4, 5, 8, 9, 10, 11, 12, 13, 15, 18, 19, 22, 24, 25, 26, 28, 29]",159.1402243,3487,1136,21,30,9,1.241549321618879
undo,69,34,0,0,0,12,"[0, 27, 23, 7, 12]",5,15,"[1, 3, 4, 5, 8, 9, 10, 11, 13, 19, 22, 24, 25, 28, 29]",144.1069279,4119,632,21,4,9,1.2667118673000326
undo,69,34,0,0,0,24,"[0, 27, 23, 7, 12, 24]",6,6,"[1, 8, 10, 13, 22, 25]",93.06772729,5108,989,6,1,9,2.1301552166695665
undo,69,34,0,0,0,25,"[0, 27, 23, 7, 12, 24, 25]",7,2,"[1, 8]",75.5748716,5933,825,2,0,9,2.204807337163912
undo,69,34,0,0,0,1,"[0, 27, 23, 7, 12, 24, 25, 1]",8,1,[8],55.5748716,6446,513,1,0,9,2.7759456574228634
undo,69,34,0,0,1,8,"[0, 27, 23, 7, 12, 24, 25, 1, 8]",9,0,[],44.80454199,6987,541,1,0,9,3.002299506
undo,69,34,0,1,1,8,"[0, 27, 23, 7, 12, 24, 25, 1, 8]",9,0,[],44.80454199,8293,1306,1,0,9,3.002299506
undo,70,17,0,0,0,0,[0],1,28,"[1, 2, 3, 4, 5, 6, 7, 8, 9, 10, 11, 12, 13, 14, 15, 16, 17, 18, 19, 20, 22, 23, 24, 25, 26, 27, 28, 29]",300,115,-1,2,73,8,0.0
undo,70,17,0,0,0,16,"[0, 16]",2,23,"[1, 2, 3, 5, 7, 8, 9, 10, 11, 12, 14, 17, 18, 19, 20, 22, 23, 24, 25, 26, 27, 28, 29]",212.3586855,1967,1852,1,29,8,1.0
undo,70,17,0,0,0,9,"[0, 16, 9]",3,22,"[1, 2, 3, 5, 7, 8, 10, 11, 12, 14, 17, 18, 19, 20, 22, 23, 24, 25, 26, 27, 28, 29]",199.0170215,3063,1096,1,16,8,1.1286713677732607
undo,70,17,0,0,0,2,"[0, 16, 9, 2]",4,18,"[1, 3, 5, 7, 8, 10, 11, 12, 14, 17, 18, 19, 23, 25, 26, 27, 28, 29]",177.0625231,3793,730,1,12,8,1.1868741553560993
undo,70,17,0,0,0,8,"[0, 16, 9, 2, 8]",5,8,"[7, 10, 11, 12, 14, 17, 26, 27]",141.9484233,4709,916,1,5,8,1.1808712459383446
undo,70,17,0,0,1,17,"[0, 16, 9, 2, 8, 17]",6,0,[],103.738477,5629,920,1,0,6,1.8589839718795222
undo,70,17,0,1,1,17,"[0, 16, 9, 2, 8, 17]",6,0,[],103.738477,7046,1417,1,0,6,1.8589839718795222
undo,71,13,0,0,0,0,[0],1,29,"[1, 2, 3, 4, 5, 6, 7, 8, 9, 10, 11, 12, 13, 14, 15, 16, 17, 18, 19, 20, 21, 22, 23, 24, 25, 26, 27, 28, 29]",300,116,-1,60,2676,11,0.0
undo,71,13,0,0,0,9,"[0, 9]",2,28,"[1, 2, 3, 4, 5, 6, 7, 8, 10, 11, 12, 13, 14, 15, 16, 17, 18, 19, 20, 21, 22, 23, 24, 25, 26, 27, 28, 29]",268.9516506,1685,1569,24,557,11,1.0
undo,71,13,0,0,0,21,"[0, 9, 21]",3,27,"[1, 2, 3, 4, 5, 6, 7, 8, 10, 11, 12, 13, 14, 15, 16, 17, 18, 19, 20, 22, 23, 24, 25, 26, 27, 28, 29]",245.6064155,2383,698,23,375,11,1.8983491882127779
undo,71,13,0,0,0,24,"[0, 9, 21, 24]",4,24,"[1, 2, 3, 4, 5, 6, 7, 8, 10, 11, 12, 13, 14, 15, 16, 17, 19, 20, 22, 23, 26, 27, 28, 29]",207.1876701,3167,784,23,335,11,8.301387152261452
undo,71,13,0,0,0,23,"[0, 9, 21, 24, 23]",5,21,"[1, 2, 3, 4, 6, 7, 8, 10, 11, 12, 13, 15, 16, 17, 19, 20, 22, 26, 27, 28, 29]",161.4820906,3769,602,9,132,11,2.4509726913097616
undo,71,13,0,0,0,28,"[0, 9, 21, 24, 23, 28]",6,9,"[1, 2, 6, 7, 11, 12, 19, 26, 29]",96.11390261,4527,758,1,13,11,2.7671180815494485
undo,71,13,0,0,0,26,"[0, 9, 21, 24, 23, 28, 26]",7,5,"[2, 6, 7, 11, 29]",56.06393382,5296,769,3,8,10,2.5497305334103144
undo,71,13,0,0,0,7,"[0, 9, 21, 24, 23, 28, 26, 7]",8,4,"[2, 6, 11, 29]",45.62362732,5841,545,3,1,10,2.4166117899087216
undo,71,13,0,0,0,29,"[0, 9, 21, 24, 23, 28, 26, 7, 29]",9,1,[2],30.35928979,6370,529,1,0,10,2.4225198029535466
undo,71,13,0,0,1,2,"[0, 9, 21, 24, 23, 28, 26, 7, 29, 2]",10,0,[],18.65458988,7032,662,1,0,10,2.5672509943989468
undo,71,13,0,1,1,2,"[0, 9, 21, 24, 23, 28, 26, 7, 29, 2]",10,0,[],18.65458988,7878,846,1,0,10,2.5672509943989468
undo,72,9,0,0,0,0,[0],1,27,"[1, 3, 4, 5, 6, 7, 8, 9, 10, 11, 13, 14, 15, 16, 17, 18, 19, 20, 21, 22, 23, 24, 25, 26, 27, 28, 29]",300,115,-1,2,182,10,0.0
undo,72,9,0,0,0,8,"[0, 8]",2,25,"[1, 3, 4, 5, 6, 7, 9, 10, 11, 13, 14, 15, 16, 17, 18, 19, 20, 21, 22, 23, 24, 25, 26, 27, 28]",236.2191251,2698,2583,2,102,9,1.0
undo,72,9,0,0,0,28,"[0, 8, 28]",3,23,"[1, 3, 4, 5, 6, 7, 9, 10, 11, 13, 15, 16, 17, 18, 19, 20, 21, 22, 23, 24, 25, 26, 27]",225.4024713,3088,390,2,52,9,1.0043219354187498
undo,72,9,0,0,0,23,"[0, 8, 28, 23]",4,21,"[1, 3, 4, 5, 7, 9, 10, 11, 13, 15, 16, 17, 18, 19, 20, 21, 22, 24, 25, 26, 27]",200.3824793,4391,1303,19,104,8,1.6731219967216804
undo,72,9,0,0,0,9,"[0, 8, 28, 23, 9]",5,19,"[1, 3, 4, 5, 7, 10, 11, 13, 15, 16, 18, 19, 20, 21, 22, 24, 25, 26, 27]",178.0217995,4920,529,12,35,8,1.6380661913087589
undo,72,9,0,0,0,26,"[0, 8, 28, 23, 9, 26]",6,9,"[3, 5, 10, 15, 16, 18, 19, 20, 21]",121.3737634,6025,1105,3,6,8,1.529011463409394
undo,72,9,0,0,0,21,"[0, 8, 28, 23, 9, 26, 21]",7,1,[20],67.46643547,7152,1127,1,0,8,1.9617672806835904
undo,72,9,0,0,1,20,"[0, 8, 28, 23, 9, 26, 21, 20]",8,0,[],55.3833895,8624,1472,1,0,8,1.9314512996641564
undo,72,9,0,1,1,20,"[0, 8, 28, 23, 9, 26, 21, 20]",8,0,[],55.3833895,9588,964,1,0,8,1.9314512996641564
undo,73,29,0,0,0,0,[0],1,29,"[1, 2, 3, 4, 5, 6, 7, 8, 9, 10, 11, 12, 13, 14, 15, 16, 17, 18, 19, 20, 21, 22, 23, 24, 25, 26, 27, 28, 29]",300,115,-1,1,78,9,0.0
undo,73,29,0,0,0,25,"[0, 25]",2,18,"[1, 2, 4, 5, 6, 7, 9, 10, 12, 13, 14, 15, 16, 17, 22, 26, 27, 28]",223.3449284,3013,2898,13,101,8,1.0
undo,73,29,0,0,0,17,"[0, 25, 17]",3,13,"[1, 4, 5, 6, 7, 9, 10, 12, 13, 14, 22, 27, 28]",188.41643,3794,781,2,22,8,1.014228463693056
undo,73,29,0,0,0,1,"[0, 25, 17, 1]",4,11,"[4, 5, 6, 7, 10, 12, 13, 14, 22, 27, 28]",149.5191293,4701,907,2,18,8,1.7553639368828857
undo,73,29,0,0,0,14,"[0, 25, 17, 1, 14]",5,8,"[4, 5, 7, 12, 13, 22, 27, 28]",106.5656662,5369,668,2,9,8,2.137167642879409
undo,73,29,0,0,0,13,"[0, 25, 17, 1, 14, 13]",6,4,"[4, 5, 12, 22]",88.53790978,5855,486,2,3,8,1.9535489858276616
undo,73,29,0,0,0,5,"[0, 25, 17, 1, 14, 13, 5]",7,2,"[4, 22]",62.82798951,6497,642,2,0,8,1.9087092890879327
undo,73,29,0,0,1,22,"[0, 25, 17, 1, 14, 13, 5, 22]",8,0,[],8.486476834,7578,1081,1,0,8,2.492296943176698
undo,73,29,0,1,1,22,"[0, 25, 17, 1, 14, 13, 5, 22]",8,0,[],8.486476834,8292,714,1,0,8,2.492296943176698
undo,74,44,0,0,0,0,[0],1,29,"[1, 2, 3, 4, 5, 6, 7, 8, 9, 10, 11, 12, 13, 14, 15, 16, 17, 18, 19, 20, 21, 22, 23, 24, 25, 26, 27, 28, 29]",300,149,-1,13,126,7,0.0
undo,74,44,0,0,0,8,"[0, 8]",2,17,"[1, 4, 5, 7, 9, 10, 11, 12, 13, 14, 15, 20, 21, 23, 24, 25, 27]",145.7923478,1563,1414,1,10,7,1.0
undo,74,44,0,0,0,20,"[0, 8, 20]",3,16,"[1, 4, 5, 7, 9, 10, 11, 12, 13, 14, 15, 21, 23, 24, 25, 27]",133.7093018,2021,458,1,9,7,1.0890794433668698
undo,74,44,0,0,0,9,"[0, 8, 20, 9]",4,7,"[4, 7, 11, 12, 14, 23, 24]",76.43801756,3036,1015,1,6,7,1.40892325509949
undo,74,44,0,0,0,4,"[0, 8, 20, 9, 4]",5,4,"[7, 12, 23, 24]",56.74030196,3469,433,1,3,7,1.3849770570803555
undo,74,44,0,0,0,7,"[0, 8, 20, 9, 4, 7]",6,1,[23],25.72417712,4044,575,1,0,7,1.3274380931474288
undo,74,44,0,0,1,23,"[0, 8, 20, 9, 4, 7, 23]",7,0,[],6.619203947,4726,682,1,0,7,1.3395824779823196
undo,74,44,0,1,1,23,"[0, 8, 20, 9, 4, 7, 23]",7,0,[],6.619203947,5417,691,1,0,7,1.3395824779823196
undo,75,11,0,0,0,0,[0],1,25,"[1, 2, 3, 4, 5, 6, 8, 9, 10, 11, 12, 13, 14, 15, 16, 17, 18, 19, 20, 22, 23, 25, 26, 27, 28]",300,115,-1,6,374,12,0.0
undo,75,11,0,0,0,18,"[0, 18]",2,21,"[1, 2, 4, 5, 6, 8, 9, 11, 12, 13, 14, 15, 16, 17, 19, 20, 22, 23, 25, 27, 28]",236.8493864,1633,1518,157,1477,11,1.0
undo,75,11,0,0,0,27,"[0, 18, 27]",3,19,"[1, 2, 4, 5, 6, 8, 9, 11, 12, 14, 15, 16, 17, 19, 20, 22, 23, 25, 28]",212.9956655,2521,888,157,1315,11,1.060949579704323
undo,75,11,0,0,0,17,"[0, 18, 27, 17]",4,14,"[1, 2, 4, 5, 6, 8, 11, 12, 15, 19, 22, 23, 25, 28]",135.9177828,3551,1030,46,349,11,1.1156120043677304
undo,75,11,0,0,0,15,"[0, 18, 27, 17, 15]",5,10,"[2, 5, 6, 8, 11, 12, 19, 22, 25, 28]",123.2686722,4311,760,20,158,11,1.1266146162629591
undo,75,11,0,0,0,8,"[0, 18, 27, 17, 15, 8]",6,8,"[2, 5, 11, 12, 19, 22, 25, 28]",109.8150481,4946,635,17,63,11,1.3097528386764161
undo,75,11,0,0,0,11,"[0, 18, 27, 17, 15, 8, 11]",7,5,"[2, 5, 19, 22, 28]",81.65479244,5727,781,14,10,11,1.2594417127238766
undo,75,11,0,0,0,28,"[0, 18, 27, 17, 15, 8, 11, 28]",8,3,"[2, 5, 22]",62.2383046,6546,819,6,0,11,1.3759090117577155
undo,75,11,0,0,0,2,"[0, 18, 27, 17, 15, 8, 11, 28, 2]",9,2,"[5, 22]",51.60815879,7305,759,2,0,11,1.3916437476188743
undo,75,11,0,0,0,22,"[0, 18, 27, 17, 15, 8, 11, 28, 2, 22]",10,1,[5],41.55828317,8234,929,1,0,11,1.3707976717234038
undo,75,11,0,0,1,5,"[0, 18, 27, 17, 15, 8, 11, 28, 2, 22, 5]",11,0,[],14.98762266,9011,777,1,0,11,1.7518420785606201
undo,75,11,0,1,1,5,"[0, 18, 27, 17, 15, 8, 11, 28, 2, 22, 5]",11,0,[],14.98762266,10885,1874,1,0,11,1.7518420785606201
undo,76,25,0,0,0,0,[0],1,28,"[1, 2, 3, 4, 5, 7, 8, 9, 10, 11, 12, 13, 14, 15, 16, 17, 18, 19, 20, 21, 22, 23, 24, 25, 26, 27, 28, 29]",300,116,-1,5,94,10,0.0
undo,76,25,0,0,0,23,"[0, 23]",2,23,"[1, 2, 3, 5, 7, 8, 9, 11, 12, 13, 14, 16, 17, 19, 20, 21, 22, 24, 25, 26, 27, 28, 29]",259.7756293,1984,1868,3,33,10,1.0
undo,76,25,0,0,0,19,"[0, 23, 19]",3,21,"[1, 2, 3, 5, 7, 8, 9, 11, 12, 13, 14, 16, 17, 20, 21, 22, 24, 25, 27, 28, 29]",223.9287326,2647,663,3,24,10,1.583101227007039
undo,76,25,0,0,0,29,"[0, 23, 19, 29]",4,19,"[1, 2, 3, 5, 7, 8, 9, 11, 12, 13, 14, 16, 17, 20, 21, 22, 24, 25, 28]",207.649912,3018,371,3,17,10,1.474631541426484
undo,76,25,0,0,0,22,"[0, 23, 19, 29, 22]",5,18,"[1, 2, 3, 5, 7, 8, 9, 11, 12, 13, 14, 16, 17, 20, 21, 24, 25, 28]",191.5253965,3994,976,3,14,10,1.4020377754906637
undo,76,25,0,0,0,1,"[0, 23, 19, 29, 22, 1]",6,3,"[5, 20, 21]",107.7996538,4993,999,2,1,8,6.190356330063188
undo,76,25,0,0,0,21,"[0, 23, 19, 29, 22, 1, 21]",7,1,[20],79.35672846,5562,569,1,0,8,4.394447349021464
undo,76,25,0,0,1,20,"[0, 23, 19, 29, 22, 1, 21, 20]",8,0,[],41.87339884,6670,1108,1,0,8,3.3093153994871796
undo,76,25,0,1,1,20,"[0, 23, 19, 29, 22, 1, 21, 20]",8,0,[],41.87339884,7412,742,1,0,8,3.3093153994871796
undo,77,33,0,0,0,0,[0],1,23,"[1, 2, 5, 7, 8, 11, 12, 13, 14, 15, 16, 17, 18, 19, 20, 21, 23, 24, 25, 26, 27, 28, 29]",300,132,-1,5,108,9,0.0
undo,77,33,0,0,0,21,"[0, 21]",2,17,"[2, 5, 7, 8, 11, 13, 14, 16, 17, 18, 19, 20, 24, 26, 27, 28, 29]",174.4611614,3279,3147,21,129,8,1.0
undo,77,33,0,0,0,13,"[0, 21, 13]",3,15,"[2, 5, 7, 8, 11, 14, 16, 17, 18, 19, 20, 24, 26, 28, 29]",148.0604038,3812,533,17,72,8,1.0001005298764474
undo,77,33,0,0,0,17,"[0, 21, 13, 17]",4,10,"[2, 7, 11, 14, 16, 19, 20, 24, 26, 29]",125.2568953,4492,680,6,21,8,1.0965005103980894
undo,77,33,0,0,0,29,"[0, 21, 13, 17, 29]",5,7,"[7, 11, 14, 19, 20, 24, 26]",73.77874462,5257,765,5,3,8,1.075477449032161
undo,77,33,0,0,0,26,"[0, 21, 13, 17, 29, 26]",6,2,"[7, 14]",45.88609325,6554,1297,2,0,8,1.1231999599010887
undo,77,33,0,0,0,14,"[0, 21, 13, 17, 29, 26, 14]",7,1,[7],33.23698261,7028,474,1,0,8,1.2296360569757379
undo,77,33,0,0,1,7,"[0, 21, 13, 17, 29, 26, 14, 7]",8,0,[],18.37091387,7509,481,1,0,8,1.3215761464415763
undo,77,33,0,1,1,7,"[0, 21, 13, 17, 29, 26, 14, 7]",8,0,[],18.37091387,8891,1382,1,0,8,1.3215761464415763
undo,78,4,0,0,0,0,[0],1,26,"[3, 4, 5, 6, 7, 8, 10, 11, 12, 13, 14, 15, 16, 17, 18, 19, 20, 21, 22, 23, 24, 25, 26, 27, 28, 29]",300,115,-1,4,489,10,0.0
undo,78,4,0,0,0,28,"[0, 28]",2,21,"[3, 4, 5, 6, 10, 11, 12, 13, 14, 15, 16, 17, 19, 20, 21, 22, 23, 24, 25, 26, 27]",225.9392142,2998,2883,2,216,10,1.0
undo,78,4,0,0,0,11,"[0, 28, 11]",3,16,"[3, 4, 5, 6, 12, 13, 14, 16, 17, 20, 21, 22, 23, 24, 25, 26]",177.0618165,3685,687,1,99,10,1.0005230107421244
undo,78,4,0,0,0,25,"[0, 28, 11, 25]",4,14,"[3, 4, 5, 6, 12, 13, 14, 16, 17, 20, 21, 22, 23, 24]",158.2735223,4338,653,1,47,10,1.11762077950493
undo,78,4,0,0,0,14,"[0, 28, 11, 25, 14]",5,10,"[3, 4, 5, 6, 13, 16, 17, 20, 21, 22]",142.1490068,4871,533,1,23,10,1.1558980853108136
undo,78,4,0,0,0,16,"[0, 28, 11, 25, 14, 16]",6,9,"[3, 4, 5, 6, 13, 17, 20, 21, 22]",109.5913656,5774,903,1,12,10,1.3813330703388178
undo,78,4,0,0,0,17,"[0, 28, 11, 25, 14, 16, 17]",7,5,"[3, 5, 20, 21, 22]",83.51455598,6831,1057,1,5,10,1.3206962632237582
undo,78,4,0,0,1,3,"[0, 28, 11, 25, 14, 16, 17, 3]",8,0,[],58.99925463,7418,587,1,0,8,1.3817796135267635
undo,78,4,0,1,1,3,"[0, 28, 11, 25, 14, 16, 17, 3]",8,0,[],58.99925463,9305,1887,1,0,8,1.3817796135267635
undo,79,26,0,0,0,0,[0],1,29,"[1, 2, 3, 4, 5, 6, 7, 8, 9, 10, 11, 12, 13, 14, 15, 16, 17, 18, 19, 20, 21, 22, 23, 24, 25, 26, 27, 28, 29]",300,115,-1,9,226,9,0.0
undo,79,26,0,0,0,16,"[0, 16]",2,17,"[3, 4, 5, 6, 10, 11, 12, 13, 14, 17, 18, 19, 21, 22, 23, 26, 29]",188.0535842,2228,2113,34,176,8,1.0
undo,79,26,0,0,0,29,"[0, 16, 29]",3,12,"[4, 5, 6, 10, 12, 13, 14, 17, 19, 21, 23, 26]",163.8461474,2916,688,32,68,8,1.1142946124989752
undo,79,26,0,0,0,4,"[0, 16, 29, 4]",4,9,"[5, 6, 10, 12, 13, 14, 17, 21, 23]",139.8461474,3699,783,17,7,8,1.3213762371676339
undo,79,26,0,0,0,17,"[0, 16, 29, 4, 17]",5,5,"[6, 10, 14, 21, 23]",118.7511243,4376,677,6,0,8,1.2756100061290643
undo,79,26,0,0,0,14,"[0, 16, 29, 4, 17, 14]",6,2,"[6, 10]",96.27891921,5125,749,2,0,8,1.264154039440982
undo,79,26,0,0,0,6,"[0, 16, 29, 4, 17, 14, 6]",7,1,[10],75.25512317,5840,715,1,0,8,1.3993089646092733
undo,79,26,0,0,1,10,"[0, 16, 29, 4, 17, 14, 6, 10]",8,0,[],45.98056083,6994,1154,1,0,8,1.5697867669370302
undo,79,26,0,1,1,10,"[0, 16, 29, 4, 17, 14, 6, 10]",8,0,[],45.98056083,7827,833,1,0,8,1.5697867669370302
undo,80,19,0,0,0,0,[0],1,29,"[1, 2, 3, 4, 5, 6, 7, 8, 9, 10, 11, 12, 13, 14, 15, 16, 17, 18, 19, 20, 21, 22, 23, 24, 25, 26, 27, 28, 29]",300,115,-1,12,149,8,0.0
undo,80,19,0,0,0,29,"[0, 29]",2,28,"[1, 2, 3, 4, 5, 6, 7, 8, 9, 10, 11, 12, 13, 14, 15, 16, 17, 18, 19, 20, 21, 22, 23, 24, 25, 26, 27, 28]",265.0715016,2254,2139,12,120,8,1.0
undo,80,19,0,0,0,9,"[0, 29, 9]",3,17,"[1, 4, 5, 6, 7, 10, 11, 12, 13, 14, 19, 20, 21, 22, 24, 27, 28]",181.7108394,2993,739,11,65,8,1.0375842971861238
