condition,trial_id,map_id,undoIndicator,submit,checkEnd,currentChoice,chosen_all,n_city_all,n_within_reach,cities_reach,currentBudget,time_all,rt_all,n_opt_paths_all,n_subopt_paths_all,mas_all,tortuosity_all
undo,0,2,0,0,0,0,[0],1,23,"[1, 2, 4, 5, 6, 7, 8, 9, 12, 13, 15, 16, 17, 18, 19, 20, 22, 23, 25, 26, 27, 28, 29]",300,299,-1,70,620,10,0.0
undo,0,2,0,0,0,19,"[0, 19]",2,22,"[1, 2, 4, 5, 6, 7, 8, 9, 12, 13, 15, 16, 17, 18, 20, 22, 23, 25, 26, 27, 28, 29]",210.306076,5943,5644,67,431,10,1.0
undo,0,2,0,0,0,12,"[0, 19, 12]",3,17,"[1, 4, 5, 6, 7, 13, 15, 16, 17, 18, 20, 22, 25, 26, 27, 28, 29]",174.2921898,7621,1678,66,298,10,1.1107635036313153
undo,0,2,0,0,0,5,"[0, 19, 12, 5]",4,11,"[1, 6, 7, 13, 15, 16, 18, 22, 25, 26, 29]",144.7625437,8849,1228,38,136,10,1.0968174771581647
undo,0,2,0,0,0,22,"[0, 19, 12, 5, 22]",5,8,"[1, 6, 7, 13, 15, 18, 26, 29]",131.9562952,10525,1676,20,63,10,1.0889910507461968
undo,0,2,0,0,0,13,"[0, 19, 12, 5, 22, 13]",6,7,"[1, 6, 7, 15, 18, 26, 29]",117.0902265,12349,1824,19,20,10,1.236526217328057
undo,0,2,0,0,0,18,"[0, 19, 12, 5, 22, 13, 18]",7,4,"[7, 15, 26, 29]",81.91921567,13713,1364,10,3,10,1.2128708213409936
undo,0,2,0,0,0,7,"[0, 19, 12, 5, 22, 13, 18, 7]",8,3,"[15, 26, 29]",71.62358553,15085,1372,5,0,10,1.2019811287894737
undo,0,2,0,0,0,29,"[0, 19, 12, 5, 22, 13, 18, 7, 29]",9,1,[15],28.54226707,19114,4029,1,0,10,1.4787244961567325
undo,0,2,1,0,0,7,"[0, 19, 12, 5, 22, 13, 18, 7]",8,3,"[15, 26, 29]",71.62358553,30458,11344,5,0,10,1.2019811287894737
undo,0,2,0,0,0,26,"[0, 19, 12, 5, 22, 13, 18, 7, 26]",9,2,"[15, 29]",48.82007703,33675,3217,2,0,10,1.1883593342191134
undo,0,2,0,0,1,15,"[0, 19, 12, 5, 22, 13, 18, 7, 26, 15]",10,0,[],24.61264015,35293,1618,1,0,10,1.4619750353663825
undo,0,2,0,1,1,15,"[0, 19, 12, 5, 22, 13, 18, 7, 26, 15]",10,0,[],24.61264015,38903,3610,1,0,10,1.4619750353663825
undo,1,10,0,0,0,0,[0],1,29,"[1, 2, 3, 4, 5, 6, 7, 8, 9, 10, 11, 12, 13, 14, 15, 16, 17, 18, 19, 20, 21, 22, 23, 24, 25, 26, 27, 28, 29]",300,298,-1,1,100,9,0.0
undo,1,10,0,0,0,29,"[0, 29]",2,22,"[3, 4, 7, 8, 10, 11, 12, 13, 15, 16, 17, 18, 19, 20, 21, 22, 23, 24, 25, 26, 27, 28]",219.9375244,5008,4710,3,19,7,1.0
undo,1,10,0,0,0,7,"[0, 29, 7]",3,18,"[3, 4, 8, 10, 11, 12, 13, 15, 16, 17, 18, 20, 21, 22, 23, 25, 27, 28]",191.3368251,5857,849,3,16,7,1.1306818684255975
undo,1,10,0,0,0,28,"[0, 29, 7, 28]",4,8,"[3, 10, 12, 15, 17, 18, 23, 25]",121.3011199,7519,1662,2,9,7,1.2100517791866654
undo,1,10,0,0,0,23,"[0, 29, 7, 28, 23]",5,4,"[3, 15, 17, 25]",74.03591073,8538,1019,2,2,7,1.1685418500626352
undo,1,10,0,0,0,25,"[0, 29, 7, 28, 23, 25]",6,1,[15],48.71793293,10192,1654,1,0,7,1.1491210813070147
undo,1,10,0,0,1,15,"[0, 29, 7, 28, 23, 25, 15]",7,0,[],33.42087439,11034,842,1,0,7,1.1429485717660537
undo,1,10,1,0,0,25,"[0, 29, 7, 28, 23, 25]",6,1,[15],48.71793293,12144,1110,1,0,7,1.1491210813070147
undo,1,10,1,0,0,23,"[0, 29, 7, 28, 23]",5,4,"[3, 15, 17, 25]",74.03591073,12444,300,2,2,7,1.1685418500626352
undo,1,10,1,0,0,28,"[0, 29, 7, 28]",4,8,"[3, 10, 12, 15, 17, 18, 23, 25]",121.3011199,12628,184,2,9,7,1.2100517791866654
undo,1,10,1,0,0,7,"[0, 29, 7]",3,18,"[3, 4, 8, 10, 11, 12, 13, 15, 16, 17, 18, 20, 21, 22, 23, 25, 27, 28]",191.3368251,13028,400,3,16,7,1.1306818684255975
undo,1,10,1,0,0,29,"[0, 29]",2,22,"[3, 4, 7, 8, 10, 11, 12, 13, 15, 16, 17, 18, 19, 20, 21, 22, 23, 24, 25, 26, 27, 28]",219.9375244,13462,434,3,19,7,1.0
undo,1,10,1,0,0,0,[0],1,29,"[1, 2, 3, 4, 5, 6, 7, 8, 9, 10, 11, 12, 13, 14, 15, 16, 17, 18, 19, 20, 21, 22, 23, 24, 25, 26, 27, 28, 29]",300,13795,333,1,100,9,0.0
undo,1,10,0,0,0,13,"[0, 13]",2,25,"[1, 2, 3, 4, 6, 7, 8, 9, 10, 11, 12, 14, 17, 18, 19, 20, 21, 22, 23, 24, 25, 26, 27, 28, 29]",249.4628849,15484,1689,1,79,9,1.0
undo,1,10,0,0,0,11,"[0, 13, 11]",3,20,"[1, 2, 3, 6, 7, 8, 9, 10, 12, 14, 18, 19, 20, 21, 22, 24, 26, 27, 28, 29]",206.4512586,18189,2705,1,54,9,1.0313137484914219
undo,1,10,0,0,0,19,"[0, 13, 11, 19]",4,11,"[2, 6, 8, 9, 10, 14, 18, 20, 24, 26, 27]",170.0919407,21306,3117,1,22,9,1.0879446220132545
undo,1,10,0,0,0,2,"[0, 13, 11, 19, 2]",5,4,"[14, 20, 26, 27]",126.1829439,23608,2302,1,4,9,1.06474052351343
undo,1,10,0,0,0,14,"[0, 13, 11, 19, 2, 14]",6,3,"[20, 26, 27]",114.0174188,24904,1296,1,3,9,1.1628909195912238
undo,1,10,0,0,0,26,"[0, 13, 11, 19, 2, 14, 26]",7,2,"[20, 27]",79.34754716,28070,3166,1,1,9,1.6660727647633602
undo,1,10,0,0,0,20,"[0, 13, 11, 19, 2, 14, 26, 20]",8,1,[27],47.56704999,29296,1226,1,0,9,2.085581809637999
undo,1,10,0,0,1,27,"[0, 13, 11, 19, 2, 14, 26, 20, 27]",9,0,[],2.312215998,31238,1942,1,0,9,1.9116357409137932
undo,1,10,0,1,1,27,"[0, 13, 11, 19, 2, 14, 26, 20, 27]",9,0,[],2.312215998,32594,1356,1,0,9,1.9116357409137932
undo,2,6,0,0,0,0,[0],1,29,"[1, 2, 3, 4, 5, 6, 7, 8, 9, 10, 11, 12, 13, 14, 15, 16, 17, 18, 19, 20, 21, 22, 23, 24, 25, 26, 27, 28, 29]",300,295,-1,180,4304,10,0.0
undo,2,6,0,0,0,3,"[0, 3]",2,28,"[1, 2, 4, 5, 6, 7, 8, 9, 10, 11, 12, 13, 14, 15, 16, 17, 18, 19, 20, 21, 22, 23, 24, 25, 26, 27, 28, 29]",266.4738908,3055,2760,90,1607,10,1.0
undo,2,6,0,0,0,18,"[0, 3, 18]",3,27,"[1, 2, 4, 5, 6, 7, 8, 9, 10, 11, 12, 13, 14, 15, 16, 17, 19, 20, 21, 22, 23, 24, 25, 26, 27, 28, 29]",237.4738908,4069,1014,34,516,10,1.0266750028725786
undo,2,6,0,0,0,17,"[0, 3, 18, 17]",4,26,"[1, 2, 4, 5, 6, 7, 8, 9, 10, 11, 12, 13, 14, 15, 16, 19, 20, 21, 22, 23, 24, 25, 26, 27, 28, 29]",223.5455025,5214,1145,17,243,10,1.0832900829093166
undo,2,6,0,0,0,10,"[0, 3, 18, 17, 10]",5,22,"[1, 2, 4, 5, 6, 7, 8, 9, 11, 13, 14, 16, 19, 20, 21, 22, 23, 24, 26, 27, 28, 29]",203.8224196,5868,654,10,111,10,1.140294203414171
undo,2,6,0,0,0,24,"[0, 3, 18, 17, 10, 24]",6,19,"[1, 2, 4, 5, 6, 7, 8, 11, 13, 14, 16, 20, 21, 22, 23, 26, 27, 28, 29]",190.4060117,8721,2853,10,80,10,1.1264281153820843
undo,2,6,0,0,0,16,"[0, 3, 18, 17, 10, 24, 16]",7,13,"[1, 2, 6, 7, 13, 14, 20, 21, 22, 23, 26, 27, 29]",134.3703088,9804,1083,6,21,10,2.2946652061367843
undo,2,6,0,0,0,29,"[0, 3, 18, 17, 10, 24, 16, 29]",8,7,"[6, 14, 20, 21, 22, 23, 27]",97.68243615,11037,1233,5,5,10,1.8995488998077483
undo,2,6,0,0,0,23,"[0, 3, 18, 17, 10, 24, 16, 29, 23]",9,2,"[6, 22]",50.16401866,13635,2598,2,0,10,1.8616504050291767
undo,2,6,0,0,1,6,"[0, 3, 18, 17, 10, 24, 16, 29, 23, 6]",10,0,[],14.8086796,14867,1232,1,0,10,1.7707258119152334
undo,2,6,0,1,1,6,"[0, 3, 18, 17, 10, 24, 16, 29, 23, 6]",10,0,[],14.8086796,24178,9311,1,0,10,1.7707258119152334
undo,3,41,0,0,0,0,[0],1,29,"[1, 2, 3, 4, 5, 6, 7, 8, 9, 10, 11, 12, 13, 14, 15, 16, 17, 18, 19, 20, 21, 22, 23, 24, 25, 26, 27, 28, 29]",300,295,-1,1,143,10,0.0
undo,3,41,0,0,0,28,"[0, 28]",2,27,"[1, 2, 3, 5, 6, 7, 8, 9, 10, 11, 12, 13, 14, 15, 16, 17, 18, 19, 20, 21, 22, 23, 24, 25, 26, 27, 29]",259.8004975,2527,2232,37,249,9,1.0
undo,3,41,0,0,0,5,"[0, 28, 5]",3,26,"[1, 2, 3, 6, 7, 8, 9, 10, 11, 12, 13, 14, 15, 16, 17, 18, 19, 20, 21, 22, 23, 24, 25, 26, 27, 29]",246.199027,3291,764,30,182,9,1.714241539747437
undo,3,41,0,0,0,3,"[0, 28, 5, 3]",4,25,"[1, 2, 6, 7, 8, 9, 10, 11, 12, 13, 14, 15, 16, 17, 18, 19, 20, 21, 22, 23, 24, 25, 26, 27, 29]",211.3708775,4029,738,20,93,9,2.2367972660995847
undo,3,41,0,0,0,21,"[0, 28, 5, 3, 21]",5,19,"[1, 2, 6, 9, 10, 11, 12, 13, 14, 15, 17, 18, 19, 20, 22, 24, 25, 26, 27]",179.2305601,4808,779,12,46,9,2.470864770481327
undo,3,41,0,0,0,9,"[0, 28, 5, 3, 21, 9]",6,13,"[1, 2, 10, 12, 13, 14, 15, 17, 19, 22, 24, 25, 26]",129.8645799,6712,1904,3,17,9,2.0674559404382
undo,3,41,0,0,0,2,"[0, 28, 5, 3, 21, 9, 2]",7,9,"[1, 10, 12, 14, 15, 17, 19, 22, 24]",117.7815339,13070,6358,2,7,9,2.0139863201149533
undo,3,41,0,0,0,17,"[0, 28, 5, 3, 21, 9, 2, 17]",8,1,[10],85.22389276,14238,1168,1,0,9,3.388293326704014
undo,3,41,0,0,1,10,"[0, 28, 5, 3, 21, 9, 2, 17, 10]",9,0,[],35.97960375,15491,1253,1,0,9,3.1208433501016275
undo,3,41,1,0,0,17,"[0, 28, 5, 3, 21, 9, 2, 17]",8,1,[10],85.22389276,16663,1172,1,0,9,3.388293326704014
undo,3,41,1,0,0,2,"[0, 28, 5, 3, 21, 9, 2]",7,9,"[1, 10, 12, 14, 15, 17, 19, 22, 24]",117.7815339,16880,217,2,7,9,2.0139863201149533
undo,3,41,1,0,0,9,"[0, 28, 5, 3, 21, 9]",6,13,"[1, 2, 10, 12, 13, 14, 15, 17, 19, 22, 24, 25, 26]",129.8645799,17047,167,3,17,9,2.0674559404382
undo,3,41,1,0,0,21,"[0, 28, 5, 3, 21]",5,19,"[1, 2, 6, 9, 10, 11, 12, 13, 14, 15, 17, 18, 19, 20, 22, 24, 25, 26, 27]",179.2305601,17231,184,12,46,9,2.470864770481327
undo,3,41,1,0,0,3,"[0, 28, 5, 3]",4,25,"[1, 2, 6, 7, 8, 9, 10, 11, 12, 13, 14, 15, 16, 17, 18, 19, 20, 21, 22, 23, 24, 25, 26, 27, 29]",211.3708775,17563,332,20,93,9,2.2367972660995847
undo,3,41,1,0,0,5,"[0, 28, 5]",3,26,"[1, 2, 3, 6, 7, 8, 9, 10, 11, 12, 13, 14, 15, 16, 17, 18, 19, 20, 21, 22, 23, 24, 25, 26, 27, 29]",246.199027,17830,267,30,182,9,1.714241539747437
undo,3,41,1,0,0,28,"[0, 28]",2,27,"[1, 2, 3, 5, 6, 7, 8, 9, 10, 11, 12, 13, 14, 15, 16, 17, 18, 19, 20, 21, 22, 23, 24, 25, 26, 27, 29]",259.8004975,18077,247,37,249,9,1.0
undo,3,41,1,0,0,0,[0],1,29,"[1, 2, 3, 4, 5, 6, 7, 8, 9, 10, 11, 12, 13, 14, 15, 16, 17, 18, 19, 20, 21, 22, 23, 24, 25, 26, 27, 28, 29]",300,18593,516,1,143,10,0.0
undo,3,41,0,0,0,13,"[0, 13]",2,23,"[1, 2, 3, 5, 6, 7, 9, 10, 11, 12, 14, 15, 17, 18, 19, 20, 21, 22, 24, 25, 26, 27, 28]",258.2747079,23462,4869,1,55,10,1.0
undo,3,41,0,0,0,28,"[0, 13, 28]",3,22,"[1, 2, 3, 5, 6, 7, 9, 10, 11, 12, 14, 15, 17, 18, 19, 20, 21, 22, 24, 25, 26, 27]",223.7928286,26461,2999,1,39,10,1.895724242592676
undo,3,41,0,0,0,5,"[0, 13, 28, 5]",4,19,"[1, 2, 3, 6, 9, 10, 11, 12, 14, 15, 17, 18, 19, 20, 21, 22, 24, 25, 27]",210.1913581,27756,1295,1,34,10,2.861541269398273
undo,3,41,0,0,0,3,"[0, 13, 28, 5, 3]",5,16,"[1, 2, 6, 9, 10, 12, 14, 17, 18, 19, 20, 21, 22, 24, 25, 27]",175.3632086,29068,1312,1,22,10,3.1455488489005883
undo,3,41,0,0,0,21,"[0, 13, 28, 5, 3, 21]",6,14,"[1, 2, 6, 9, 10, 12, 14, 17, 18, 19, 20, 22, 25, 27]",143.2228912,30802,1734,13,11,9,3.207558429289677
undo,3,41,0,0,0,9,"[0, 13, 28, 5, 3, 21, 9]",7,6,"[1, 2, 10, 12, 14, 17]",93.85691102,32797,1995,7,4,9,2.5050148501792275
undo,3,41,0,0,0,2,"[0, 13, 28, 5, 3, 21, 9, 2]",8,5,"[1, 10, 12, 14, 17]",81.77386505,33607,810,5,0,9,2.4119643847713177
undo,3,41,0,0,1,17,"[0, 13, 28, 5, 3, 21, 9, 2, 17]",9,0,[],49.21622385,34751,1144,1,0,9,3.9563478735796007
undo,3,41,0,1,1,17,"[0, 13, 28, 5, 3, 21, 9, 2, 17]",9,0,[],49.21622385,38692,3941,1,0,9,3.9563478735796007
undo,4,27,0,0,0,0,[0],1,26,"[1, 3, 5, 6, 7, 8, 9, 10, 11, 12, 13, 14, 15, 16, 17, 18, 19, 21, 22, 23, 24, 25, 26, 27, 28, 29]",300,278,-1,13,578,11,0.0
undo,4,27,0,0,0,15,"[0, 15]",2,24,"[1, 3, 5, 6, 7, 8, 9, 10, 11, 12, 13, 14, 16, 17, 18, 19, 21, 22, 23, 24, 25, 26, 27, 29]",263.7508621,2862,2584,6,219,11,1.0
undo,4,27,0,0,0,24,"[0, 15, 24]",3,20,"[1, 5, 6, 7, 8, 9, 10, 12, 13, 14, 16, 17, 18, 19, 21, 23, 25, 26, 27, 29]",246.5462115,5978,3116,6,130,11,1.130933077698322
undo,4,27,0,0,0,17,"[0, 15, 24, 17]",4,15,"[1, 6, 8, 10, 12, 13, 14, 16, 18, 19, 23, 25, 26, 27, 29]",229.9932662,8921,2943,4,60,11,1.1285538435963374
undo,4,27,0,0,0,12,"[0, 15, 24, 17, 12]",5,14,"[1, 6, 8, 10, 13, 14, 16, 18, 19, 23, 25, 26, 27, 29]",218.8129263,10737,1816,2,32,11,1.2561880288755216
undo,4,27,0,0,0,10,"[0, 15, 24, 17, 12, 10]",6,11,"[1, 8, 13, 14, 18, 19, 23, 25, 26, 27, 29]",207.7675653,12187,1450,2,28,11,1.2228289337766665
undo,4,27,0,0,0,13,"[0, 15, 24, 17, 12, 10, 13]",7,9,"[1, 8, 14, 18, 19, 23, 26, 27, 29]",167.9178476,16275,4088,2,18,11,1.3421291994761178
undo,4,27,0,0,0,19,"[0, 15, 24, 17, 12, 10, 13, 19]",8,5,"[1, 8, 14, 23, 29]",131.6825057,17605,1330,2,6,11,1.294749956153846
undo,4,27,0,0,0,8,"[0, 15, 24, 17, 12, 10, 13, 19, 8]",9,3,"[14, 23, 29]",116.816437,18568,963,2,1,11,1.3554286578836865
undo,4,27,0,0,0,29,"[0, 15, 24, 17, 12, 10, 13, 19, 8, 29]",10,1,[14],57.61339652,22257,3689,1,0,11,1.248354519573802
undo,4,27,0,0,1,14,"[0, 15, 24, 17, 12, 10, 13, 19, 8, 29, 14]",11,0,[],13.31892734,24833,2576,1,0,11,1.562811097555156
undo,4,27,0,1,1,14,"[0, 15, 24, 17, 12, 10, 13, 19, 8, 29, 14]",11,0,[],13.31892734,26741,1908,1,0,11,1.562811097555156
undo,5,8,0,0,0,0,[0],1,29,"[1, 2, 3, 4, 5, 6, 7, 8, 9, 10, 11, 12, 13, 14, 15, 16, 17, 18, 19, 20, 21, 22, 23, 24, 25, 26, 27, 28, 29]",300,279,-1,10,149,9,0.0
undo,5,8,0,0,0,5,"[0, 5]",2,28,"[1, 2, 3, 4, 6, 7, 8, 9, 10, 11, 12, 13, 14, 15, 16, 17, 18, 19, 20, 21, 22, 23, 24, 25, 26, 27, 28, 29]",254.5137383,5152,4873,10,100,9,1.0
undo,5,8,0,0,0,25,"[0, 5, 25]",3,20,"[1, 2, 3, 4, 6, 11, 12, 14, 15, 16, 17, 18, 19, 20, 21, 22, 23, 24, 28, 29]",215.3091468,6771,1619,4,42,9,1.2272747879909065
undo,5,8,0,0,0,1,"[0, 5, 25, 1]",4,17,"[3, 4, 6, 11, 12, 14, 15, 16, 17, 18, 20, 21, 22, 23, 24, 28, 29]",190.3091468,7557,786,3,24,9,1.1770245007593956
undo,5,8,0,0,0,23,"[0, 5, 25, 1, 23]",5,15,"[3, 4, 6, 11, 14, 15, 16, 17, 18, 20, 21, 22, 24, 28, 29]",167.2874179,8804,1247,1,14,9,1.141996583852372
undo,5,8,0,0,0,14,"[0, 5, 25, 1, 23, 14]",6,5,"[11, 15, 17, 18, 28]",98.40345751,12575,3771,2,3,8,2.359509060380308
undo,5,8,0,0,0,17,"[0, 5, 25, 1, 23, 14, 17]",7,1,[11],61.38994646,14091,1516,1,0,8,2.1845828320464817
undo,5,8,0,0,1,11,"[0, 5, 25, 1, 23, 14, 17, 11]",8,0,[],36.21058984,15070,979,1,0,8,2.014892814041164
undo,5,8,1,0,0,17,"[0, 5, 25, 1, 23, 14, 17]",7,1,[11],61.38994646,19013,3943,1,0,8,2.1845828320464817
undo,5,8,1,0,0,14,"[0, 5, 25, 1, 23, 14]",6,5,"[11, 15, 17, 18, 28]",98.40345751,19180,167,2,3,8,2.359509060380308
undo,5,8,1,0,0,23,"[0, 5, 25, 1, 23]",5,15,"[3, 4, 6, 11, 14, 15, 16, 17, 18, 20, 21, 22, 24, 28, 29]",167.2874179,19613,433,1,14,9,1.141996583852372
undo,5,8,0,0,0,18,"[0, 5, 25, 1, 23, 18]",6,9,"[3, 4, 11, 14, 15, 16, 17, 24, 28]",125.5261919,20876,1263,1,7,9,1.3199166330970717
undo,5,8,0,0,0,28,"[0, 5, 25, 1, 23, 18, 28]",7,1,[16],59.906073,22323,1447,1,0,8,1.425373059246715
undo,5,8,0,0,1,16,"[0, 5, 25, 1, 23, 18, 28, 16]",8,0,[],37.54539323,23189,866,1,0,8,1.4175143337764708
undo,5,8,1,0,0,28,"[0, 5, 25, 1, 23, 18, 28]",7,1,[16],59.906073,24745,1556,1,0,8,1.425373059246715
undo,5,8,1,0,0,18,"[0, 5, 25, 1, 23, 18]",6,9,"[3, 4, 11, 14, 15, 16, 17, 24, 28]",125.5261919,24912,167,1,7,9,1.3199166330970717
undo,5,8,1,0,0,23,"[0, 5, 25, 1, 23]",5,15,"[3, 4, 6, 11, 14, 15, 16, 17, 18, 20, 21, 22, 24, 28, 29]",167.2874179,25062,150,1,14,9,1.141996583852372
undo,5,8,1,0,0,1,"[0, 5, 25, 1]",4,17,"[3, 4, 6, 11, 12, 14, 15, 16, 17, 18, 20, 21, 22, 23, 24, 28, 29]",190.3091468,25213,151,3,24,9,1.1770245007593956
undo,5,8,1,0,0,25,"[0, 5, 25]",3,20,"[1, 2, 3, 4, 6, 11, 12, 14, 15, 16, 17, 18, 19, 20, 21, 22, 23, 24, 28, 29]",215.3091468,25396,183,4,42,9,1.2272747879909065
undo,5,8,1,0,0,5,"[0, 5]",2,28,"[1, 2, 3, 4, 6, 7, 8, 9, 10, 11, 12, 13, 14, 15, 16, 17, 18, 19, 20, 21, 22, 23, 24, 25, 26, 27, 28, 29]",254.5137383,25762,366,10,100,9,1.0
undo,5,8,1,0,0,0,[0],1,29,"[1, 2, 3, 4, 5, 6, 7, 8, 9, 10, 11, 12, 13, 14, 15, 16, 17, 18, 19, 20, 21, 22, 23, 24, 25, 26, 27, 28, 29]",300,25963,201,10,149,9,0.0
undo,5,8,0,0,0,5,"[0, 5]",2,28,"[1, 2, 3, 4, 6, 7, 8, 9, 10, 11, 12, 13, 14, 15, 16, 17, 18, 19, 20, 21, 22, 23, 24, 25, 26, 27, 28, 29]",254.5137383,31105,5142,10,100,9,1.0
undo,5,8,0,0,0,25,"[0, 5, 25]",3,20,"[1, 2, 3, 4, 6, 11, 12, 14, 15, 16, 17, 18, 19, 20, 21, 22, 23, 24, 28, 29]",215.3091468,32338,1233,4,42,9,1.2272747879909065
undo,5,8,0,0,0,1,"[0, 5, 25, 1]",4,17,"[3, 4, 6, 11, 12, 14, 15, 16, 17, 18, 20, 21, 22, 23, 24, 28, 29]",190.3091468,33538,1200,3,24,9,1.1770245007593956
undo,5,8,0,0,0,23,"[0, 5, 25, 1, 23]",5,15,"[3, 4, 6, 11, 14, 15, 16, 17, 18, 20, 21, 22, 24, 28, 29]",167.2874179,35618,2080,1,14,9,1.141996583852372
undo,5,8,0,0,0,4,"[0, 5, 25, 1, 23, 4]",6,6,"[3, 14, 16, 18, 21, 28]",117.9518324,36785,1167,3,4,8,1.115517190692443
undo,5,8,0,0,0,18,"[0, 5, 25, 1, 23, 4, 18]",7,2,"[14, 28]",74.94020603,43202,6417,2,0,8,1.702606074443807
undo,5,8,1,0,0,4,"[0, 5, 25, 1, 23, 4]",6,6,"[3, 14, 16, 18, 21, 28]",117.9518324,43280,78,3,4,8,1.115517190692443
undo,5,8,0,0,0,18,"[0, 5, 25, 1, 23, 4, 18]",7,2,"[14, 28]",74.94020603,43902,622,2,0,8,1.702606074443807
undo,5,8,0,0,1,28,"[0, 5, 25, 1, 23, 4, 18, 28]",8,0,[],9.320087168,46228,2326,1,0,8,1.7256884494830071
undo,5,8,0,1,1,28,"[0, 5, 25, 1, 23, 4, 18, 28]",8,0,[],9.320087168,47579,1351,1,0,8,1.7256884494830071
undo,6,42,0,0,0,0,[0],1,29,"[1, 2, 3, 4, 5, 6, 7, 8, 9, 10, 11, 12, 13, 14, 15, 16, 17, 18, 19, 20, 21, 22, 23, 24, 25, 26, 27, 28, 29]",300,314,-1,16,302,9,0.0
undo,6,42,0,0,0,5,"[0, 5]",2,28,"[1, 2, 3, 4, 6, 7, 8, 9, 10, 11, 12, 13, 14, 15, 16, 17, 18, 19, 20, 21, 22, 23, 24, 25, 26, 27, 28, 29]",191.2939744,3548,3234,1,22,9,1.0
undo,6,42,0,0,0,4,"[0, 5, 4]",3,23,"[1, 2, 3, 6, 7, 8, 9, 10, 11, 13, 15, 17, 18, 19, 20, 21, 22, 23, 24, 25, 26, 27, 29]",171.4445412,5170,1622,1,14,9,1.420957801478707
undo,6,42,0,0,0,22,"[0, 5, 4, 22]",4,20,"[1, 2, 3, 6, 7, 8, 9, 11, 15, 17, 18, 19, 20, 21, 23, 24, 25, 26, 27, 29]",160.2642013,8406,3236,1,11,9,1.5771494659680896
undo,6,42,0,0,0,8,"[0, 5, 4, 22, 8]",5,14,"[1, 2, 3, 6, 7, 11, 15, 18, 19, 24, 25, 26, 27, 29]",138.1282577,10702,2296,1,10,9,1.5055393955524201
undo,6,42,0,0,0,1,"[0, 5, 4, 22, 8, 1]",6,5,"[2, 7, 19, 26, 27]",89.03650682,12767,2065,1,7,9,1.3547259083637835
undo,6,42,0,0,0,7,"[0, 5, 4, 22, 8, 1, 7]",7,4,"[2, 19, 26, 27]",59.03650682,15536,2769,1,3,9,1.3909715672447451
undo,6,42,0,0,1,27,"[0, 5, 4, 22, 8, 1, 7, 27]",8,0,[],14.75332717,17838,2302,1,0,8,1.337712810248871
undo,6,42,0,1,1,27,"[0, 5, 4, 22, 8, 1, 7, 27]",8,0,[],14.75332717,22457,4619,1,0,8,1.337712810248871
undo,7,9,0,0,0,0,[0],1,27,"[1, 3, 4, 5, 6, 7, 8, 9, 10, 11, 13, 14, 15, 16, 17, 18, 19, 20, 21, 22, 23, 24, 25, 26, 27, 28, 29]",300,295,-1,2,182,10,0.0
undo,7,9,0,0,0,10,"[0, 10]",2,22,"[3, 4, 5, 6, 7, 8, 9, 11, 13, 15, 16, 17, 18, 19, 20, 21, 22, 23, 25, 26, 27, 28]",245.6676892,4087,3792,5,195,9,1.0
undo,7,9,0,0,0,8,"[0, 10, 8]",3,20,"[3, 4, 5, 7, 9, 11, 13, 15, 16, 17, 18, 19, 20, 21, 22, 23, 25, 26, 27, 28]",197.2941427,5320,1233,3,50,9,1.6102923877889634
undo,7,9,0,0,0,28,"[0, 10, 8, 28]",4,19,"[3, 4, 5, 7, 9, 11, 13, 15, 16, 17, 18, 19, 20, 21, 22, 23, 25, 26, 27]",186.4774889,6406,1086,2,25,9,1.528377012595975
undo,7,9,0,0,0,21,"[0, 10, 8, 28, 21]",5,9,"[9, 16, 17, 18, 20, 22, 23, 25, 26]",133.4774889,7503,1097,2,12,8,1.404865634918283
undo,7,9,0,0,0,20,"[0, 10, 8, 28, 21, 20]",6,8,"[9, 16, 17, 18, 22, 23, 25, 26]",121.3944429,9054,1551,1,7,8,1.4102392093607874
undo,7,9,0,0,1,26,"[0, 10, 8, 28, 21, 20, 26]",7,0,[],56.34061901,12126,3072,1,0,7,2.085684576869975
undo,7,9,1,0,0,20,"[0, 10, 8, 28, 21, 20]",6,8,"[9, 16, 17, 18, 22, 23, 25, 26]",121.3944429,19695,7569,1,7,8,1.4102392093607874
undo,7,9,1,0,0,21,"[0, 10, 8, 28, 21]",5,9,"[9, 16, 17, 18, 20, 22, 23, 25, 26]",133.4774889,20612,917,2,12,8,1.404865634918283
undo,7,9,1,0,0,28,"[0, 10, 8, 28]",4,19,"[3, 4, 5, 7, 9, 11, 13, 15, 16, 17, 18, 19, 20, 21, 22, 23, 25, 26, 27]",186.4774889,20979,367,2,25,9,1.528377012595975
undo,7,9,0,0,0,23,"[0, 10, 8, 28, 23]",5,13,"[3, 4, 7, 9, 11, 18, 19, 20, 21, 22, 25, 26, 27]",161.4574968,22059,1080,2,12,9,2.3268849491132118
undo,7,9,0,0,0,9,"[0, 10, 8, 28, 23, 9]",6,11,"[3, 4, 7, 11, 18, 19, 20, 21, 25, 26, 27]",139.0968171,23085,1026,2,6,9,2.1607964611878296
undo,7,9,0,0,0,26,"[0, 10, 8, 28, 23, 9, 26]",7,3,"[18, 20, 21]",82.44878092,24022,937,2,1,9,1.8622029673999667
undo,7,9,0,0,1,18,"[0, 10, 8, 28, 23, 9, 26, 18]",8,0,[],21.5718559,26174,2152,1,0,8,1.5976834504583917
undo,7,9,0,1,1,18,"[0, 10, 8, 28, 23, 9, 26, 18]",8,0,[],21.5718559,29377,3203,1,0,8,1.5976834504583917
undo,8,39,0,0,0,0,[0],1,28,"[1, 2, 3, 4, 5, 6, 7, 9, 10, 11, 12, 13, 14, 15, 16, 17, 18, 19, 20, 21, 22, 23, 24, 25, 26, 27, 28, 29]",300,295,-1,1,30,10,0.0
undo,8,39,0,0,0,29,"[0, 29]",2,26,"[1, 2, 3, 4, 5, 6, 7, 9, 10, 12, 13, 14, 15, 16, 17, 18, 19, 20, 21, 22, 23, 24, 25, 26, 27, 28]",243.0614366,3136,2841,8,104,9,1.0
undo,8,39,0,0,0,12,"[0, 29, 12]",3,18,"[1, 2, 4, 5, 7, 9, 10, 13, 14, 15, 16, 18, 19, 22, 23, 24, 26, 28]",182.5221931,5323,2187,5,54,9,1.0026200331524904
undo,8,39,0,0,0,10,"[0, 29, 12, 10]",4,16,"[1, 2, 4, 5, 7, 9, 13, 14, 15, 16, 18, 19, 22, 23, 24, 26]",147.0116313,6908,1585,5,34,9,1.2874817019928908
undo,8,39,0,0,0,7,"[0, 29, 12, 10, 7]",5,10,"[1, 2, 5, 13, 16, 18, 19, 22, 24, 26]",113.5900814,8211,1303,4,12,9,1.2250826263866774
undo,8,39,0,0,0,26,"[0, 29, 12, 10, 7, 26]",6,5,"[1, 16, 18, 19, 22]",94.90853971,10019,1808,3,4,9,1.2697275353190085
undo,8,39,0,0,0,22,"[0, 29, 12, 10, 7, 26, 22]",7,2,"[16, 19]",77.18849457,12656,2637,2,0,9,1.438961743955176
undo,8,39,0,0,0,16,"[0, 29, 12, 10, 7, 26, 22, 16]",8,1,[19],42.18849457,15166,2510,1,0,9,1.3580882130477205
undo,8,39,0,0,1,19,"[0, 29, 12, 10, 7, 26, 22, 16, 19]",9,0,[],24.72424537,15992,826,1,0,9,1.3646589157842668
undo,8,39,1,0,0,16,"[0, 29, 12, 10, 7, 26, 22, 16]",8,1,[19],42.18849457,20497,4505,1,0,9,1.3580882130477205
undo,8,39,1,0,0,22,"[0, 29, 12, 10, 7, 26, 22]",7,2,"[16, 19]",77.18849457,20646,149,2,0,9,1.438961743955176
undo,8,39,1,0,0,26,"[0, 29, 12, 10, 7, 26]",6,5,"[1, 16, 18, 19, 22]",94.90853971,20814,168,3,4,9,1.2697275353190085
undo,8,39,1,0,0,7,"[0, 29, 12, 10, 7]",5,10,"[1, 2, 5, 13, 16, 18, 19, 22, 24, 26]",113.5900814,20963,149,4,12,9,1.2250826263866774
undo,8,39,1,0,0,10,"[0, 29, 12, 10]",4,16,"[1, 2, 4, 5, 7, 9, 13, 14, 15, 16, 18, 19, 22, 23, 24, 26]",147.0116313,21097,134,5,34,9,1.2874817019928908
undo,8,39,1,0,0,12,"[0, 29, 12]",3,18,"[1, 2, 4, 5, 7, 9, 10, 13, 14, 15, 16, 18, 19, 22, 23, 24, 26, 28]",182.5221931,21297,200,5,54,9,1.0026200331524904
undo,8,39,1,0,0,29,"[0, 29]",2,26,"[1, 2, 3, 4, 5, 6, 7, 9, 10, 12, 13, 14, 15, 16, 17, 18, 19, 20, 21, 22, 23, 24, 25, 26, 27, 28]",243.0614366,21513,216,8,104,9,1.0
undo,8,39,1,0,0,0,[0],1,28,"[1, 2, 3, 4, 5, 6, 7, 9, 10, 11, 12, 13, 14, 15, 16, 17, 18, 19, 20, 21, 22, 23, 24, 25, 26, 27, 28, 29]",300,21729,216,1,30,10,0.0
undo,8,39,0,0,0,14,"[0, 14]",2,26,"[1, 2, 3, 4, 5, 6, 7, 9, 10, 12, 13, 15, 16, 17, 18, 19, 20, 21, 22, 23, 24, 25, 26, 27, 28, 29]",286.9615952,23636,1907,1,22,10,1.0
undo,8,39,0,0,0,29,"[0, 14, 29]",3,23,"[1, 2, 3, 4, 5, 6, 7, 9, 10, 12, 13, 15, 16, 17, 18, 19, 21, 22, 23, 24, 25, 26, 28]",218.9321898,24918,1282,1,21,10,1.4237768813412561
undo,8,39,0,0,0,12,"[0, 14, 29, 12]",4,16,"[1, 2, 4, 5, 7, 9, 10, 13, 15, 16, 18, 19, 22, 23, 24, 26]",158.3929463,26957,2039,1,11,10,1.2085522586932163
undo,8,39,0,0,0,10,"[0, 14, 29, 12, 10]",5,11,"[1, 4, 5, 7, 15, 16, 18, 19, 22, 23, 26]",122.8823845,28226,1269,1,8,10,1.4905426536315662
undo,8,39,0,0,0,7,"[0, 14, 29, 12, 10, 7]",6,6,"[1, 16, 18, 19, 22, 26]",89.46083457,30039,1813,1,6,10,1.3836596018032035
undo,8,39,0,0,0,26,"[0, 14, 29, 12, 10, 7, 26]",7,3,"[16, 19, 22]",70.77929288,31646,1607,1,4,10,1.4191124441944845
undo,8,39,0,0,0,22,"[0, 14, 29, 12, 10, 7, 26, 22]",8,2,"[16, 19]",53.05924773,34351,2705,1,1,10,1.594793297833885
undo,8,39,0,0,0,16,"[0, 14, 29, 12, 10, 7, 26, 22, 16]",9,1,[19],18.05924773,35540,1189,1,0,10,1.48519520801471
undo,8,39,0,0,1,19,"[0, 14, 29, 12, 10, 7, 26, 22, 16, 19]",10,0,[],0.594998533,36952,1412,1,0,10,1.484277847976571
undo,8,39,0,1,1,19,"[0, 14, 29, 12, 10, 7, 26, 22, 16, 19]",10,0,[],0.594998533,39096,2144,1,0,10,1.484277847976571
undo,9,1,0,0,0,0,[0],1,26,"[1, 2, 4, 5, 7, 8, 9, 10, 11, 12, 13, 14, 15, 16, 17, 18, 19, 20, 21, 22, 23, 24, 25, 26, 28, 29]",300,310,-1,6,74,7,0.0
undo,9,1,0,0,0,14,"[0, 14]",2,19,"[1, 4, 5, 8, 9, 13, 15, 17, 18, 19, 20, 21, 22, 23, 24, 25, 26, 28, 29]",200.1901808,2266,1956,5,42,7,1.0
undo,9,1,0,0,0,17,"[0, 14, 17]",3,15,"[1, 4, 5, 8, 9, 13, 15, 18, 19, 20, 22, 23, 25, 28, 29]",147.8356204,3284,1018,5,27,7,1.0028844724416826
undo,9,1,0,0,0,1,"[0, 14, 17, 1]",4,12,"[4, 5, 8, 9, 15, 18, 20, 22, 23, 25, 28, 29]",123.4840291,4267,983,5,15,7,1.0264985578353567
undo,9,1,0,0,0,28,"[0, 14, 17, 1, 28]",5,5,"[9, 15, 22, 23, 29]",88.59850198,6284,2017,5,3,7,1.0339861575999345
undo,9,1,0,0,0,23,"[0, 14, 17, 1, 28, 23]",6,2,"[15, 22]",51.70676849,9501,3217,2,0,7,1.0327458250705703
undo,9,1,0,0,1,15,"[0, 14, 17, 1, 28, 23, 15]",7,0,[],20.81987807,10658,1157,1,0,7,1.1948681641401226
undo,9,1,1,0,0,23,"[0, 14, 17, 1, 28, 23]",6,2,"[15, 22]",51.70676849,12759,2101,2,0,7,1.0327458250705703
undo,9,1,1,0,0,28,"[0, 14, 17, 1, 28]",5,5,"[9, 15, 22, 23, 29]",88.59850198,13092,333,5,3,7,1.0339861575999345
undo,9,1,1,0,0,1,"[0, 14, 17, 1]",4,12,"[4, 5, 8, 9, 15, 18, 20, 22, 23, 25, 28, 29]",123.4840291,13258,166,5,15,7,1.0264985578353567
undo,9,1,1,0,0,17,"[0, 14, 17]",3,15,"[1, 4, 5, 8, 9, 13, 15, 18, 19, 20, 22, 23, 25, 28, 29]",147.8356204,13525,267,5,27,7,1.0028844724416826
undo,9,1,0,0,0,20,"[0, 14, 17, 20]",4,5,"[4, 5, 8, 18, 29]",79.42509489,16281,2756,3,3,6,1.2972077151057804
undo,9,1,0,0,0,5,"[0, 14, 17, 20, 5]",5,1,[18],57.95418433,18264,1983,1,0,6,1.2923132195161702
undo,9,1,0,0,1,18,"[0, 14, 17, 20, 5, 18]",6,0,[],35.12875991,19348,1084,1,0,6,1.3149712096478787
undo,9,1,1,0,0,5,"[0, 14, 17, 20, 5]",5,1,[18],57.95418433,21140,1792,1,0,6,1.2923132195161702
undo,9,1,1,0,0,20,"[0, 14, 17, 20]",4,5,"[4, 5, 8, 18, 29]",79.42509489,21324,184,3,3,6,1.2972077151057804
undo,9,1,1,0,0,17,"[0, 14, 17]",3,15,"[1, 4, 5, 8, 9, 13, 15, 18, 19, 20, 22, 23, 25, 28, 29]",147.8356204,21492,168,5,27,7,1.0028844724416826
undo,9,1,0,0,0,1,"[0, 14, 17, 1]",4,12,"[4, 5, 8, 9, 15, 18, 20, 22, 23, 25, 28, 29]",123.4840291,22773,1281,5,15,7,1.0264985578353567
undo,9,1,0,0,0,28,"[0, 14, 17, 1, 28]",5,5,"[9, 15, 22, 23, 29]",88.59850198,24833,2060,5,3,7,1.0339861575999345
undo,9,1,0,0,0,23,"[0, 14, 17, 1, 28, 23]",6,2,"[15, 22]",51.70676849,25847,1014,2,0,7,1.0327458250705703
undo,9,1,0,0,1,15,"[0, 14, 17, 1, 28, 23, 15]",7,0,[],20.81987807,26679,832,1,0,7,1.1948681641401226
undo,9,1,0,1,1,15,"[0, 14, 17, 1, 28, 23, 15]",7,0,[],20.81987807,27756,1077,1,0,7,1.1948681641401226
undo,10,37,0,0,0,0,[0],1,29,"[1, 2, 3, 4, 5, 6, 7, 8, 9, 10, 11, 12, 13, 14, 15, 16, 17, 18, 19, 20, 21, 22, 23, 24, 25, 26, 27, 28, 29]",300,227,-1,6,168,10,0.0
undo,10,37,0,0,0,9,"[0, 9]",2,28,"[1, 2, 3, 4, 5, 6, 7, 8, 10, 11, 12, 13, 14, 15, 16, 17, 18, 19, 20, 21, 22, 23, 24, 25, 26, 27, 28, 29]",275.7925631,3173,2946,45,289,9,1.0
undo,10,37,0,0,0,19,"[0, 9, 19]",3,14,"[1, 2, 4, 6, 7, 10, 15, 17, 18, 20, 21, 22, 26, 29]",144.5485156,4960,1787,9,55,9,1.3595877499090316
undo,10,37,0,0,0,26,"[0, 9, 19, 26]",4,4,"[1, 15, 20, 21]",79.29516324,6725,1765,7,3,7,1.2604298892569576
undo,10,37,0,0,0,21,"[0, 9, 19, 26, 21]",5,3,"[1, 15, 20]",49.56302574,8158,1433,3,1,7,1.6137086343033933
undo,10,37,0,0,0,15,"[0, 9, 19, 26, 21, 15]",6,1,[20],34.56302574,9388,1230,1,0,7,1.595201777905503
undo,10,37,0,0,1,20,"[0, 9, 19, 26, 21, 15, 20]",7,0,[],17.56302574,10353,965,1,0,7,1.8842116215851992
undo,10,37,1,0,0,15,"[0, 9, 19, 26, 21, 15]",6,1,[20],34.56302574,11831,1478,1,0,7,1.595201777905503
undo,10,37,1,0,0,21,"[0, 9, 19, 26, 21]",5,3,"[1, 15, 20]",49.56302574,11967,136,3,1,7,1.6137086343033933
undo,10,37,1,0,0,26,"[0, 9, 19, 26]",4,4,"[1, 15, 20, 21]",79.29516324,12114,147,7,3,7,1.2604298892569576
undo,10,37,1,0,0,19,"[0, 9, 19]",3,14,"[1, 2, 4, 6, 7, 10, 15, 17, 18, 20, 21, 22, 26, 29]",144.5485156,12314,200,9,55,9,1.3595877499090316
undo,10,37,1,0,0,9,"[0, 9]",2,28,"[1, 2, 3, 4, 5, 6, 7, 8, 10, 11, 12, 13, 14, 15, 16, 17, 18, 19, 20, 21, 22, 23, 24, 25, 26, 27, 28, 29]",275.7925631,12548,234,45,289,9,1.0
undo,10,37,1,0,0,0,[0],1,29,"[1, 2, 3, 4, 5, 6, 7, 8, 9, 10, 11, 12, 13, 14, 15, 16, 17, 18, 19, 20, 21, 22, 23, 24, 25, 26, 27, 28, 29]",300,13565,1017,6,168,10,0.0
undo,10,37,0,0,0,19,"[0, 19]",2,19,"[1, 2, 4, 5, 6, 7, 9, 10, 11, 15, 17, 18, 20, 21, 22, 25, 26, 28, 29]",185.6627795,14925,1360,25,244,9,1.0
undo,10,37,0,0,0,26,"[0, 19, 26]",3,9,"[1, 2, 4, 15, 20, 21, 22, 25, 29]",120.4094271,19141,4216,12,37,8,1.0256292033966232
undo,10,37,0,0,0,21,"[0, 19, 26, 21]",4,6,"[1, 2, 4, 15, 20, 22]",90.67728956,21118,1977,8,18,8,1.3487859218508713
undo,10,37,0,0,0,15,"[0, 19, 26, 21, 15]",5,4,"[1, 2, 4, 20]",75.67728956,22415,1297,4,7,8,1.3481165821607015
undo,10,37,0,0,0,20,"[0, 19, 26, 21, 15, 20]",6,3,"[1, 2, 4]",58.67728956,25286,2871,2,2,8,1.6099275130490058
undo,10,37,0,0,0,1,"[0, 19, 26, 21, 15, 20, 1]",7,2,"[2, 4]",24.44280403,26502,1216,2,0,8,1.7405155284688993
undo,10,37,0,0,1,4,"[0, 19, 26, 21, 15, 20, 1, 4]",8,0,[],6.722758881,28152,1650,1,0,8,1.8044157702802002
undo,10,37,0,1,1,4,"[0, 19, 26, 21, 15, 20, 1, 4]",8,0,[],6.722758881,29880,1728,1,0,8,1.8044157702802002
undo,11,38,0,0,0,0,[0],1,29,"[1, 2, 3, 4, 5, 6, 7, 8, 9, 10, 11, 12, 13, 14, 15, 16, 17, 18, 19, 20, 21, 22, 23, 24, 25, 26, 27, 28, 29]",300,310,-1,33,506,9,0.0
undo,11,38,0,0,0,19,"[0, 19]",2,23,"[3, 4, 5, 6, 7, 8, 9, 11, 13, 14, 15, 16, 17, 18, 20, 22, 23, 24, 25, 26, 27, 28, 29]",219.5015528,3449,3139,6,61,9,1.0
undo,11,38,0,0,0,17,"[0, 19, 17]",3,21,"[3, 4, 5, 6, 7, 9, 11, 13, 14, 15, 16, 18, 20, 22, 23, 24, 25, 26, 27, 28, 29]",198.1239945,4683,1234,6,53,9,1.571793785769489
undo,11,38,0,0,0,20,"[0, 19, 17, 20]",4,17,"[3, 4, 5, 6, 7, 11, 13, 14, 15, 16, 18, 22, 24, 25, 26, 27, 28]",174.3542658,6506,1823,6,44,9,2.333182710277297
undo,11,38,0,0,0,4,"[0, 19, 17, 20, 4]",5,10,"[5, 11, 13, 14, 15, 16, 24, 26, 27, 28]",140.4131403,8421,1915,5,22,9,2.276099229646013
undo,11,38,0,0,0,15,"[0, 19, 17, 20, 4, 15]",6,8,"[5, 11, 13, 14, 16, 24, 26, 28]",114.4131403,9406,985,5,6,9,2.5292671156176403
undo,11,38,0,0,0,11,"[0, 19, 17, 20, 4, 15, 11]",7,2,"[16, 28]",78.01259089,11265,1859,2,0,9,2.778100109749787
undo,11,38,0,0,0,16,"[0, 19, 17, 20, 4, 15, 11, 16]",8,1,[28],41.01259089,14003,2738,1,0,9,2.366983861907762
undo,11,38,0,0,1,28,"[0, 19, 17, 20, 4, 15, 11, 16, 28]",9,0,[],12.01259089,15466,1463,1,0,9,2.696657905347566
undo,11,38,0,1,1,28,"[0, 19, 17, 20, 4, 15, 11, 16, 28]",9,0,[],12.01259089,17290,1824,1,0,9,2.696657905347566
undo,12,17,0,0,0,0,[0],1,28,"[1, 2, 3, 4, 5, 6, 7, 8, 9, 10, 11, 12, 13, 14, 15, 16, 17, 18, 19, 20, 22, 23, 24, 25, 26, 27, 28, 29]",300,213,-1,2,73,8,0.0
undo,12,17,0,0,0,9,"[0, 9]",2,25,"[1, 2, 3, 5, 6, 7, 8, 10, 11, 12, 14, 15, 16, 17, 18, 19, 20, 22, 23, 24, 25, 26, 27, 28, 29]",210.5293344,1958,1745,1,34,8,1.0
undo,12,17,0,0,0,16,"[0, 9, 16]",3,21,"[1, 2, 3, 5, 7, 8, 10, 11, 12, 14, 17, 18, 19, 20, 22, 23, 25, 26, 27, 28, 29]",197.1876704,3874,1916,1,26,8,1.173103464220352
undo,12,17,0,0,0,2,"[0, 9, 16, 2]",4,18,"[1, 3, 5, 7, 8, 10, 11, 12, 14, 17, 18, 19, 23, 25, 26, 27, 28, 29]",181.0631549,5005,1131,1,23,8,1.14825089247282
undo,12,17,0,0,0,17,"[0, 9, 16, 2, 17]",5,7,"[7, 8, 12, 14, 26, 27, 29]",142.7356191,6941,1936,4,5,7,1.4896040699768547
undo,12,17,0,0,0,8,"[0, 9, 16, 2, 17, 8]",6,3,"[7, 12, 27]",104.5256727,12021,5080,3,0,7,1.4604726966175894
undo,12,17,0,0,1,27,"[0, 9, 16, 2, 17, 8, 27]",7,0,[],21.88790895,17051,5030,1,0,7,1.2949460667276491
undo,12,17,1,0,0,8,"[0, 9, 16, 2, 17, 8]",6,3,"[7, 12, 27]",104.5256727,20260,3209,3,0,7,1.4604726966175894
undo,12,17,1,0,0,17,"[0, 9, 16, 2, 17]",5,7,"[7, 8, 12, 14, 26, 27, 29]",142.7356191,22677,2417,4,5,7,1.4896040699768547
undo,12,17,0,0,0,27,"[0, 9, 16, 2, 17, 27]",6,1,[12],23.73561906,23967,1290,1,0,7,1.2863427552701576
undo,12,17,0,0,1,12,"[0, 9, 16, 2, 17, 27, 12]",7,0,[],0.735619062,26178,2211,1,0,7,1.2610922043733839
undo,12,17,0,1,1,12,"[0, 9, 16, 2, 17, 27, 12]",7,0,[],0.735619062,27726,1548,1,0,7,1.2610922043733839
undo,13,36,0,0,0,0,[0],1,24,"[2, 4, 5, 6, 7, 8, 9, 10, 12, 13, 14, 15, 16, 17, 18, 19, 20, 22, 23, 25, 26, 27, 28, 29]",300,296,-1,2,200,10,0.0
undo,13,36,0,0,0,16,"[0, 16]",2,12,"[2, 8, 9, 10, 12, 13, 17, 18, 19, 23, 25, 27]",193.262003,3254,2958,20,112,8,1.0
undo,13,36,0,0,0,17,"[0, 16, 17]",3,10,"[2, 9, 10, 12, 13, 18, 19, 23, 25, 27]",164.9423985,8125,4871,14,64,8,1.4289609665642613
undo,13,36,0,0,0,9,"[0, 16, 17, 9]",4,8,"[2, 10, 12, 13, 18, 19, 23, 25]",138.693589,9745,1620,6,21,8,2.335567583937715
undo,13,36,0,0,0,19,"[0, 16, 17, 9, 19]",5,6,"[2, 10, 12, 13, 18, 25]",123.5608431,10988,1243,6,5,8,2.2891022786553017
undo,13,36,0,0,0,2,"[0, 16, 17, 9, 19, 2]",6,3,"[10, 13, 25]",86.43942067,13329,2341,2,1,8,1.891101810711848
undo,13,36,0,0,0,25,"[0, 16, 17, 9, 19, 2, 25]",7,1,[13],61.43942067,14439,1110,1,0,8,2.0836773189568087
undo,13,36,0,0,1,13,"[0, 16, 17, 9, 19, 2, 25, 13]",8,0,[],40.84816038,16376,1937,1,0,8,2.642206520923964
undo,13,36,1,0,0,25,"[0, 16, 17, 9, 19, 2, 25]",7,1,[13],61.43942067,19965,3589,1,0,8,2.0836773189568087
undo,13,36,1,0,0,2,"[0, 16, 17, 9, 19, 2]",6,3,"[10, 13, 25]",86.43942067,20132,167,2,1,8,1.891101810711848
undo,13,36,1,0,0,19,"[0, 16, 17, 9, 19]",5,6,"[2, 10, 12, 13, 18, 25]",123.5608431,20282,150,6,5,8,2.2891022786553017
undo,13,36,1,0,0,9,"[0, 16, 17, 9]",4,8,"[2, 10, 12, 13, 18, 19, 23, 25]",138.693589,20465,183,6,21,8,2.335567583937715
undo,13,36,1,0,0,17,"[0, 16, 17]",3,10,"[2, 9, 10, 12, 13, 18, 19, 23, 25, 27]",164.9423985,20848,383,14,64,8,1.4289609665642613
undo,13,36,1,0,0,16,"[0, 16]",2,12,"[2, 8, 9, 10, 12, 13, 17, 18, 19, 23, 25, 27]",193.262003,21215,367,20,112,8,1.0
undo,13,36,1,0,0,0,[0],1,24,"[2, 4, 5, 6, 7, 8, 9, 10, 12, 13, 14, 15, 16, 17, 18, 19, 20, 22, 23, 25, 26, 27, 28, 29]",300,21565,350,2,200,10,0.0
undo,13,36,0,0,0,12,"[0, 12]",2,23,"[2, 4, 5, 6, 7, 8, 9, 10, 13, 14, 15, 16, 17, 18, 19, 20, 22, 23, 25, 26, 27, 28, 29]",277.7963967,22304,739,90,804,9,1.0
undo,13,36,0,0,0,18,"[0, 12, 18]",3,15,"[2, 4, 6, 7, 9, 10, 13, 16, 17, 19, 23, 25, 26, 28, 29]",235.217059,23317,1013,11,123,9,3.1762450029512506
undo,13,36,0,0,0,16,"[0, 12, 18, 16]",4,6,"[2, 9, 13, 17, 19, 25]",125.1943341,25604,2287,10,23,8,1.6377079469404239
undo,13,36,0,0,0,17,"[0, 12, 18, 16, 17]",5,5,"[2, 9, 13, 19, 25]",96.87472953,26907,1303,9,8,8,2.149142881264911
undo,13,36,0,0,0,9,"[0, 12, 18, 16, 17, 9]",6,4,"[2, 13, 19, 25]",70.62592004,28431,1524,3,3,8,3.321124451464694
undo,13,36,0,0,0,19,"[0, 12, 18, 16, 17, 9, 19]",7,3,"[2, 13, 25]",55.49317409,29831,1400,3,0,8,3.1722047541554317
undo,13,36,0,0,1,2,"[0, 12, 18, 16, 17, 9, 19, 2]",8,0,[],18.3717517,30877,1046,1,0,8,2.4938483121679775
undo,13,36,1,0,0,19,"[0, 12, 18, 16, 17, 9, 19]",7,3,"[2, 13, 25]",55.49317409,32496,1619,3,0,8,3.1722047541554317
undo,13,36,1,0,0,9,"[0, 12, 18, 16, 17, 9]",6,4,"[2, 13, 19, 25]",70.62592004,32680,184,3,3,8,3.321124451464694
undo,13,36,1,0,0,17,"[0, 12, 18, 16, 17]",5,5,"[2, 9, 13, 19, 25]",96.87472953,32830,150,9,8,8,2.149142881264911
undo,13,36,1,0,0,16,"[0, 12, 18, 16]",4,6,"[2, 9, 13, 17, 19, 25]",125.1943341,33013,183,10,23,8,1.6377079469404239
undo,13,36,1,0,0,18,"[0, 12, 18]",3,15,"[2, 4, 6, 7, 9, 10, 13, 16, 17, 19, 23, 25, 26, 28, 29]",235.217059,33180,167,11,123,9,3.1762450029512506
undo,13,36,1,0,0,12,"[0, 12]",2,23,"[2, 4, 5, 6, 7, 8, 9, 10, 13, 14, 15, 16, 17, 18, 19, 20, 22, 23, 25, 26, 27, 28, 29]",277.7963967,33980,800,90,804,9,1.0
undo,13,36,0,0,0,16,"[0, 12, 16]",3,10,"[2, 9, 10, 13, 17, 18, 19, 23, 25, 27]",171.6267212,35377,1397,4,38,9,1.202695220335868
undo,13,36,0,0,0,17,"[0, 12, 16, 17]",4,7,"[2, 9, 10, 13, 18, 19, 25]",143.3071167,38269,2892,4,23,9,1.6578705047868705
undo,13,36,0,0,0,9,"[0, 12, 16, 17, 9]",5,5,"[2, 13, 18, 19, 25]",117.0583072,39470,1201,3,6,9,2.6488264465469484
undo,13,36,0,0,0,19,"[0, 12, 16, 17, 9, 19]",6,4,"[2, 13, 18, 25]",101.9255612,40421,951,3,3,9,2.5697960541572393
undo,13,36,0,0,0,2,"[0, 12, 16, 17, 9, 19, 2]",7,2,"[13, 25]",64.80413882,44239,3818,2,0,9,2.082684549483941
undo,13,36,0,0,0,25,"[0, 12, 16, 17, 9, 19, 2, 25]",8,1,[13],39.80413882,45804,1565,1,0,9,2.272647961997219
undo,13,36,0,0,1,13,"[0, 12, 16, 17, 9, 19, 2, 25, 13]",9,0,[],19.21287854,47105,1301,1,0,9,2.86279103556024
undo,13,36,0,1,1,13,"[0, 12, 16, 17, 9, 19, 2, 25, 13]",9,0,[],19.21287854,48661,1556,1,0,9,2.86279103556024
undo,14,26,0,0,0,0,[0],1,29,"[1, 2, 3, 4, 5, 6, 7, 8, 9, 10, 11, 12, 13, 14, 15, 16, 17, 18, 19, 20, 21, 22, 23, 24, 25, 26, 27, 28, 29]",300,310,-1,9,226,9,0.0
undo,14,26,0,0,0,21,"[0, 21]",2,25,"[2, 3, 4, 5, 6, 7, 8, 10, 11, 12, 13, 14, 15, 16, 17, 18, 19, 22, 23, 24, 25, 26, 27, 28, 29]",211.1349337,5064,4754,7,90,9,1.0
undo,14,26,0,0,0,13,"[0, 21, 13]",3,21,"[3, 4, 5, 6, 7, 8, 10, 11, 12, 14, 15, 16, 17, 18, 19, 22, 23, 24, 25, 26, 29]",188.9989901,7088,2024,6,45,9,1.0103952279992225
undo,14,26,0,0,0,23,"[0, 21, 13, 23]",4,13,"[3, 4, 5, 6, 10, 11, 14, 16, 17, 18, 22, 26, 29]",150.9858345,8253,1165,3,17,9,1.1069410469330032
undo,14,26,0,0,0,16,"[0, 21, 13, 23, 16]",5,7,"[4, 5, 6, 10, 14, 17, 29]",97.75050789,11306,3053,3,13,9,1.8066634000662438
undo,14,26,0,0,0,29,"[0, 21, 13, 23, 16, 29]",6,5,"[4, 6, 10, 14, 17]",73.54307102,12788,1482,3,9,9,1.853342605492142
undo,14,26,0,0,0,4,"[0, 21, 13, 23, 16, 29, 4]",7,3,"[6, 14, 17]",49.54307102,14435,1647,2,2,9,2.0664369230924997
undo,14,26,0,0,0,17,"[0, 21, 13, 23, 16, 29, 4, 17]",8,2,"[6, 14]",28.44804791,17951,3516,2,0,9,1.911153301956092
undo,14,26,0,0,1,14,"[0, 21, 13, 23, 16, 29, 4, 17, 14]",9,0,[],5.975842855,20410,2459,1,0,9,1.8245133223656398
undo,14,26,0,1,1,14,"[0, 21, 13, 23, 16, 29, 4, 17, 14]",9,0,[],5.975842855,22060,1650,1,0,9,1.8245133223656398
undo,15,24,0,0,0,0,[0],1,29,"[1, 2, 3, 4, 5, 6, 7, 8, 9, 10, 11, 12, 13, 14, 15, 16, 17, 18, 19, 20, 21, 22, 23, 24, 25, 26, 27, 28, 29]",300,293,-1,4,76,10,0.0
undo,15,24,0,0,0,16,"[0, 16]",2,28,"[1, 2, 3, 4, 5, 6, 7, 8, 9, 10, 11, 12, 13, 14, 15, 17, 18, 19, 20, 21, 22, 23, 24, 25, 26, 27, 28, 29]",210.3562607,3894,3601,13,110,9,1.0
undo,15,24,0,0,0,22,"[0, 16, 22]",3,27,"[1, 2, 3, 4, 5, 6, 7, 8, 9, 10, 11, 12, 13, 14, 15, 17, 18, 19, 20, 21, 23, 24, 25, 26, 27, 28, 29]",192.3285043,4819,925,7,54,9,1.0217425143037777
undo,15,24,0,0,0,8,"[0, 16, 22, 8]",4,21,"[1, 2, 3, 4, 6, 9, 10, 11, 13, 14, 15, 17, 20, 21, 23, 24, 25, 26, 27, 28, 29]",178.9120964,5761,942,4,28,9,1.0996636936037951
undo,15,24,0,0,0,15,"[0, 16, 22, 8, 15]",5,16,"[3, 4, 6, 9, 10, 11, 13, 14, 17, 23, 24, 25, 26, 27, 28, 29]",148.025206,7586,1825,3,17,9,1.2704773343758617
undo,15,24,0,0,0,28,"[0, 16, 22, 8, 15, 28]",6,8,"[3, 4, 9, 11, 13, 23, 26, 27]",102.7482803,9150,1564,3,5,9,1.1981967578189556
undo,15,24,0,0,0,23,"[0, 16, 22, 8, 15, 28, 23]",7,3,"[9, 11, 27]",83.72198273,10240,1090,3,1,9,1.2275650852813986
undo,15,24,0,0,0,11,"[0, 16, 22, 8, 15, 28, 23, 11]",8,2,"[9, 27]",56.79615869,11135,895,2,0,9,1.2107937989822568
undo,15,24,0,0,1,9,"[0, 16, 22, 8, 15, 28, 23, 11, 9]",9,0,[],24.5471277,12894,1759,1,0,9,1.2976612913524237
undo,15,24,0,1,1,9,"[0, 16, 22, 8, 15, 28, 23, 11, 9]",9,0,[],24.5471277,14711,1817,1,0,9,1.2976612913524237
undo,16,12,0,0,0,0,[0],1,29,"[1, 2, 3, 4, 5, 6, 7, 8, 9, 10, 11, 12, 13, 14, 15, 16, 17, 18, 19, 20, 21, 22, 23, 24, 25, 26, 27, 28, 29]",300,268,-1,2,32,9,0.0
undo,16,12,0,0,0,6,"[0, 6]",2,28,"[1, 2, 3, 4, 5, 7, 8, 9, 10, 11, 12, 13, 14, 15, 16, 17, 18, 19, 20, 21, 22, 23, 24, 25, 26, 27, 28, 29]",283.5987805,4062,3794,2,18,9,1.0
undo,16,12,0,0,0,25,"[0, 6, 25]",3,13,"[2, 4, 5, 7, 12, 14, 16, 19, 22, 23, 24, 27, 28]",193.4599986,5606,1544,3,21,8,1.4358021344876182
undo,16,12,0,0,0,22,"[0, 6, 25, 22]",4,9,"[2, 4, 7, 12, 14, 16, 19, 24, 27]",121.2588906,9468,3862,4,10,7,2.031017839754873
undo,16,12,0,0,0,16,"[0, 6, 25, 22, 16]",5,4,"[4, 12, 19, 27]",100.2588906,11071,1603,3,2,7,2.2020152188081616
undo,16,12,0,0,0,4,"[0, 6, 25, 22, 16, 4]",6,2,"[12, 27]",66.05362787,12002,931,2,0,7,1.8729499758807084
undo,16,12,0,0,1,12,"[0, 6, 25, 22, 16, 4, 12]",7,0,[],23.86358165,13291,1289,1,0,7,1.6713148530252862
undo,16,12,1,0,0,4,"[0, 6, 25, 22, 16, 4]",6,2,"[12, 27]",66.05362787,15644,2353,2,0,7,1.8729499758807084
undo,16,12,1,0,0,16,"[0, 6, 25, 22, 16]",5,4,"[4, 12, 19, 27]",100.2588906,15794,150,3,2,7,2.2020152188081616
undo,16,12,1,0,0,22,"[0, 6, 25, 22]",4,9,"[2, 4, 7, 12, 14, 16, 19, 24, 27]",121.2588906,15977,183,4,10,7,2.031017839754873
undo,16,12,1,0,0,25,"[0, 6, 25]",3,13,"[2, 4, 5, 7, 12, 14, 16, 19, 22, 23, 24, 27, 28]",193.4599986,16294,317,3,21,8,1.4358021344876182
undo,16,12,1,0,0,6,"[0, 6]",2,28,"[1, 2, 3, 4, 5, 7, 8, 9, 10, 11, 12, 13, 14, 15, 16, 17, 18, 19, 20, 21, 22, 23, 24, 25, 26, 27, 28, 29]",283.5987805,16461,167,2,18,9,1.0
undo,16,12,1,0,0,0,[0],1,29,"[1, 2, 3, 4, 5, 6, 7, 8, 9, 10, 11, 12, 13, 14, 15, 16, 17, 18, 19, 20, 21, 22, 23, 24, 25, 26, 27, 28, 29]",300,16627,166,2,32,9,0.0
undo,16,12,0,0,0,25,"[0, 25]",2,16,"[2, 4, 5, 6, 7, 9, 12, 14, 16, 18, 19, 22, 23, 24, 27, 28]",225.7975742,18405,1778,5,34,8,1.0
undo,16,12,0,0,0,22,"[0, 25, 22]",3,11,"[2, 4, 5, 6, 7, 12, 14, 16, 19, 24, 27]",153.5964661,20051,1646,1,10,8,1.6635691148622656
undo,16,12,0,0,0,16,"[0, 25, 22, 16]",4,7,"[4, 6, 12, 14, 19, 24, 27]",132.5964661,22339,2288,1,6,8,1.8455145785330662
undo,16,12,0,0,0,4,"[0, 25, 22, 16, 4]",5,5,"[12, 14, 19, 24, 27]",98.39120339,23699,1360,1,4,8,1.6140587576122385
undo,16,12,0,0,0,12,"[0, 25, 22, 16, 4, 12]",6,2,"[14, 27]",56.20115717,24900,1201,1,1,8,1.4755917731057815
undo,16,12,0,0,1,14,"[0, 25, 22, 16, 4, 12, 14]",7,0,[],3.399642037,28274,3374,1,0,7,1.5930147773938583
undo,16,12,1,0,0,12,"[0, 25, 22, 16, 4, 12]",6,2,"[14, 27]",56.20115717,30625,2351,1,1,8,1.4755917731057815
undo,16,12,1,0,0,4,"[0, 25, 22, 16, 4]",5,5,"[12, 14, 19, 24, 27]",98.39120339,30825,200,1,4,8,1.6140587576122385
undo,16,12,1,0,0,16,"[0, 25, 22, 16]",4,7,"[4, 6, 12, 14, 19, 24, 27]",132.5964661,31008,183,1,6,8,1.8455145785330662
undo,16,12,1,0,0,22,"[0, 25, 22]",3,11,"[2, 4, 5, 6, 7, 12, 14, 16, 19, 24, 27]",153.5964661,31191,183,1,10,8,1.6635691148622656
undo,16,12,1,0,0,25,"[0, 25]",2,16,"[2, 4, 5, 6, 7, 9, 12, 14, 16, 18, 19, 22, 23, 24, 27, 28]",225.7975742,31360,169,5,34,8,1.0
undo,16,12,1,0,0,0,[0],1,29,"[1, 2, 3, 4, 5, 6, 7, 8, 9, 10, 11, 12, 13, 14, 15, 16, 17, 18, 19, 20, 21, 22, 23, 24, 25, 26, 27, 28, 29]",300,31675,315,2,32,9,0.0
undo,16,12,0,0,0,5,"[0, 5]",2,21,"[1, 2, 6, 7, 8, 9, 10, 11, 13, 14, 15, 16, 17, 18, 19, 20, 21, 22, 24, 26, 29]",164.9148417,33787,2112,7,27,6,1.0
undo,16,12,0,0,0,7,"[0, 5, 7]",3,6,"[2, 10, 13, 19, 24, 29]",103.5145159,37875,4088,3,4,5,1.1873155871907808
undo,16,12,0,0,0,13,"[0, 5, 7, 13]",4,1,[10],48.07085084,42003,4128,1,0,5,1.1418344323596004
undo,16,12,0,0,1,10,"[0, 5, 7, 13, 10]",5,0,[],18.33871334,43258,1255,1,0,5,1.135841806630009
undo,16,12,1,0,0,13,"[0, 5, 7, 13]",4,1,[10],48.07085084,45393,2135,1,0,5,1.1418344323596004
undo,16,12,1,0,0,7,"[0, 5, 7]",3,6,"[2, 10, 13, 19, 24, 29]",103.5145159,45626,233,3,4,5,1.1873155871907808
undo,16,12,1,0,0,5,"[0, 5]",2,21,"[1, 2, 6, 7, 8, 9, 10, 11, 13, 14, 15, 16, 17, 18, 19, 20, 21, 22, 24, 26, 29]",164.9148417,45776,150,7,27,6,1.0
undo,16,12,1,0,0,0,[0],1,29,"[1, 2, 3, 4, 5, 6, 7, 8, 9, 10, 11, 12, 13, 14, 15, 16, 17, 18, 19, 20, 21, 22, 23, 24, 25, 26, 27, 28, 29]",300,45961,185,2,32,9,0.0
undo,16,12,0,0,0,6,"[0, 6]",2,28,"[1, 2, 3, 4, 5, 7, 8, 9, 10, 11, 12, 13, 14, 15, 16, 17, 18, 19, 20, 21, 22, 23, 24, 25, 26, 27, 28, 29]",283.5987805,48863,2902,2,18,9,1.0
undo,16,12,0,0,0,9,"[0, 6, 9]",3,8,"[3, 5, 15, 17, 18, 21, 23, 28]",165.4082564,50821,1958,2,6,7,1.0066610065144597
undo,16,12,0,0,0,21,"[0, 6, 9, 21]",4,5,"[3, 5, 15, 17, 18]",96.05409284,52868,2047,1,3,7,1.2466820631095812
undo,16,12,0,0,0,18,"[0, 6, 9, 21, 18]",5,2,"[15, 17]",79.77527224,54688,1820,1,1,7,1.4673498836706853
undo,16,12,0,0,0,15,"[0, 6, 9, 21, 18, 15]",6,1,[17],26.01655202,57633,2945,1,0,7,1.4499726421034995
undo,16,12,0,0,1,17,"[0, 6, 9, 21, 18, 15, 17]",7,0,[],9.524129519,58933,1300,1,0,7,1.4883678368647324
undo,16,12,0,1,1,17,"[0, 6, 9, 21, 18, 15, 17]",7,0,[],9.524129519,60728,1795,1,0,7,1.4883678368647324
undo,17,20,0,0,0,0,[0],1,21,"[1, 2, 3, 4, 5, 6, 7, 8, 9, 12, 17, 18, 20, 21, 22, 23, 25, 26, 27, 28, 29]",300,308,-1,1,9,9,0.0
undo,17,20,0,0,0,12,"[0, 12]",2,20,"[1, 2, 3, 4, 5, 6, 7, 8, 9, 17, 18, 20, 21, 22, 23, 25, 26, 27, 28, 29]",271.5570747,3025,2717,1,8,9,1.0
undo,17,20,0,0,0,1,"[0, 12, 1]",3,12,"[3, 4, 5, 6, 8, 9, 20, 21, 23, 27, 28, 29]",189.5692707,4223,1198,1,6,9,1.0757997779162911
undo,17,20,0,0,0,5,"[0, 12, 1, 5]",4,10,"[4, 6, 8, 9, 20, 21, 23, 27, 28, 29]",152.8950291,5554,1331,1,5,9,1.1708231454516806
undo,17,20,0,0,0,21,"[0, 12, 1, 5, 21]",5,8,"[4, 6, 8, 9, 20, 23, 27, 28]",107.8950291,7100,1546,1,4,9,1.126197336199212
undo,17,20,0,0,0,8,"[0, 12, 1, 5, 21, 8]",6,5,"[6, 9, 23, 27, 28]",90.43077988,7882,782,1,3,9,1.140007470699913
undo,17,20,0,0,0,23,"[0, 12, 1, 5, 21, 8, 23]",7,2,"[6, 9]",45.74297394,9016,1134,1,1,9,1.1162257896627588
undo,17,20,0,0,0,9,"[0, 12, 1, 5, 21, 8, 23, 9]",8,1,[6],26.53360123,10303,1287,1,0,9,1.1086880559449597
undo,17,20,0,0,1,6,"[0, 12, 1, 5, 21, 8, 23, 9, 6]",9,0,[],3.511872362,12240,1937,1,0,9,1.1186240265999328
undo,17,20,0,1,1,6,"[0, 12, 1, 5, 21, 8, 23, 9, 6]",9,0,[],3.511872362,13429,1189,1,0,9,1.1186240265999328
undo,18,18,0,0,0,0,[0],1,28,"[1, 2, 3, 4, 5, 6, 7, 8, 9, 10, 11, 12, 13, 14, 16, 17, 18, 19, 20, 21, 22, 23, 24, 25, 26, 27, 28, 29]",300,302,-1,3,136,10,0.0
undo,18,18,0,0,0,28,"[0, 28]",2,16,"[1, 3, 5, 7, 8, 9, 12, 13, 14, 16, 20, 23, 24, 25, 26, 27]",236.4311397,4322,4020,2,19,10,1.0
undo,18,18,0,0,0,7,"[0, 28, 7]",3,15,"[1, 3, 5, 8, 9, 12, 13, 14, 16, 20, 23, 24, 25, 26, 27]",214.4084242,6134,1812,2,17,10,1.4345180696367563
undo,18,18,0,0,0,25,"[0, 28, 7, 25]",4,13,"[1, 3, 5, 8, 9, 12, 13, 14, 16, 20, 23, 26, 27]",186.6055466,7285,1151,2,15,10,1.8896451241781882
undo,18,18,0,0,0,8,"[0, 28, 7, 25, 8]",5,10,"[3, 5, 9, 12, 13, 14, 16, 23, 26, 27]",149.551532,9118,1833,2,10,10,1.590467437592877
undo,18,18,0,0,0,13,"[0, 28, 7, 25, 8, 13]",6,9,"[3, 5, 9, 12, 14, 16, 23, 26, 27]",128.4565089,10044,926,2,5,10,1.8248274983549797
undo,18,18,0,0,0,14,"[0, 28, 7, 25, 8, 13, 14]",7,7,"[3, 5, 9, 12, 23, 26, 27]",109.4828429,11020,976,2,3,10,1.6993534956692746
undo,18,18,0,0,0,3,"[0, 28, 7, 25, 8, 13, 14, 3]",8,3,"[5, 12, 27]",79.39962499,12557,1537,2,1,10,1.802637206541468
undo,18,18,0,0,0,5,"[0, 28, 7, 25, 8, 13, 14, 3, 5]",9,1,[12],21.21887216,13801,1244,1,0,10,1.559774889743805
undo,18,18,0,0,1,12,"[0, 28, 7, 25, 8, 13, 14, 3, 5, 12]",10,0,[],9.817117911,14522,721,1,0,10,1.563993037384447
undo,18,18,0,1,1,12,"[0, 28, 7, 25, 8, 13, 14, 3, 5, 12]",10,0,[],9.817117911,16428,1906,1,0,10,1.563993037384447
undo,19,22,0,0,0,0,[0],1,29,"[1, 2, 3, 4, 5, 6, 7, 8, 9, 10, 11, 12, 13, 14, 15, 16, 17, 18, 19, 20, 21, 22, 23, 24, 25, 26, 27, 28, 29]",300,281,-1,31,704,9,0.0
undo,19,22,0,0,0,22,"[0, 22]",2,7,"[6, 9, 11, 16, 19, 25, 28]",159.9285896,7092,6811,3,8,5,1.0
undo,19,22,0,0,0,16,"[0, 22, 16]",3,4,"[6, 9, 19, 28]",71.46955958,8386,1294,3,2,5,2.8077026719583644
undo,19,22,0,0,0,6,"[0, 22, 16, 6]",4,2,"[9, 28]",37.03120886,9586,1200,2,0,5,2.967470506402918
undo,19,22,0,0,1,28,"[0, 22, 16, 6, 28]",5,0,[],7.031208861,11538,1952,1,0,5,2.6488347860861334
undo,19,22,1,0,0,6,"[0, 22, 16, 6]",4,2,"[9, 28]",37.03120886,13413,1875,2,0,5,2.967470506402918
undo,19,22,1,0,0,16,"[0, 22, 16]",3,4,"[6, 9, 19, 28]",71.46955958,13581,168,3,2,5,2.8077026719583644
undo,19,22,1,0,0,22,"[0, 22]",2,7,"[6, 9, 11, 16, 19, 25, 28]",159.9285896,13746,165,3,8,5,1.0
undo,19,22,1,0,0,0,[0],1,29,"[1, 2, 3, 4, 5, 6, 7, 8, 9, 10, 11, 12, 13, 14, 15, 16, 17, 18, 19, 20, 21, 22, 23, 24, 25, 26, 27, 28, 29]",300,14163,417,31,704,9,0.0
undo,19,22,0,0,0,16,"[0, 16]",2,21,"[1, 3, 6, 7, 8, 9, 11, 13, 14, 15, 17, 18, 19, 20, 21, 22, 24, 25, 27, 28, 29]",218.605897,15812,1649,17,147,9,1.0
undo,19,22,0,0,0,28,"[0, 16, 28]",3,13,"[6, 7, 9, 13, 14, 17, 19, 20, 21, 22, 24, 25, 29]",184.1675463,17321,1509,12,61,9,1.047282311284478
undo,19,22,0,0,0,6,"[0, 16, 28, 6]",4,12,"[7, 9, 13, 14, 17, 19, 20, 21, 22, 24, 25, 29]",154.1675463,18410,1089,12,43,9,1.645645870580622
undo,19,22,0,0,0,9,"[0, 16, 28, 6, 9]",5,8,"[7, 14, 17, 19, 20, 21, 24, 29]",127.5404924,19837,1427,8,17,9,1.925750226630103
undo,19,22,0,0,0,29,"[0, 16, 28, 6, 9, 29]",6,5,"[7, 14, 17, 19, 24]",92.18515333,22946,3109,2,2,9,2.6986665402615206
undo,19,22,0,0,0,14,"[0, 16, 28, 6, 9, 29, 14]",7,1,[7],33.93568982,25543,2597,1,0,8,2.053892474163856
undo,19,22,0,0,1,7,"[0, 16, 28, 6, 9, 29, 14, 7]",8,0,[],20.89728501,26721,1178,1,0,8,2.2192284117009735
undo,19,22,0,1,1,7,"[0, 16, 28, 6, 9, 29, 14, 7]",8,0,[],20.89728501,30481,3760,1,0,8,2.2192284117009735
undo,20,28,0,0,0,0,[0],1,27,"[1, 2, 3, 4, 5, 6, 7, 8, 9, 10, 11, 12, 13, 14, 15, 16, 17, 18, 19, 20, 22, 23, 25, 26, 27, 28, 29]",300,316,-1,2,96,9,0.0
undo,20,28,0,0,0,3,"[0, 3]",2,26,"[1, 2, 4, 5, 6, 7, 8, 9, 10, 11, 12, 13, 14, 15, 16, 17, 18, 19, 20, 22, 23, 25, 26, 27, 28, 29]",251.0817008,3003,2687,1,64,9,1.0
undo,20,28,0,0,0,14,"[0, 3, 14]",3,13,"[1, 2, 5, 7, 10, 11, 12, 13, 17, 18, 19, 20, 26]",142.7396498,4574,1571,19,59,8,1.0338694802207566
undo,20,28,0,0,0,18,"[0, 3, 14, 18]",4,10,"[1, 2, 5, 7, 11, 12, 13, 17, 19, 26]",117.2445523,6256,1682,18,18,8,1.098527225277385
undo,20,28,0,0,0,13,"[0, 3, 14, 18, 13]",5,7,"[2, 7, 11, 12, 17, 19, 26]",92.83144103,7952,1696,8,6,8,1.0872780601597938
undo,20,28,0,0,0,12,"[0, 3, 14, 18, 13, 12]",6,3,"[2, 7, 19]",75.6267905,9216,1264,3,1,8,1.0890748557820906
undo,20,28,0,0,0,7,"[0, 3, 14, 18, 13, 12, 7]",7,2,"[2, 19]",62.47384406,10240,1024,2,0,8,1.2125627495730145
undo,20,28,0,0,1,19,"[0, 3, 14, 18, 13, 12, 7, 19]",8,0,[],34.74299481,11581,1341,1,0,8,1.4527925513951803
undo,20,28,0,1,1,19,"[0, 3, 14, 18, 13, 12, 7, 19]",8,0,[],34.74299481,14862,3281,1,0,8,1.4527925513951803
undo,21,11,0,0,0,0,[0],1,25,"[1, 2, 3, 4, 5, 6, 8, 9, 10, 11, 12, 13, 14, 15, 16, 17, 18, 19, 20, 22, 23, 25, 26, 27, 28]",300,311,-1,6,374,12,0.0
undo,21,11,0,0,0,17,"[0, 17]",2,18,"[1, 2, 4, 5, 6, 8, 10, 11, 12, 15, 18, 19, 22, 23, 25, 26, 27, 28]",152.9217895,2354,2043,218,762,9,1.0
undo,21,11,0,0,0,8,"[0, 17, 8]",3,15,"[1, 2, 4, 5, 6, 11, 12, 15, 18, 19, 22, 23, 25, 27, 28]",138.6039684,3585,1231,95,263,9,1.1114912532636003
undo,21,11,0,0,0,15,"[0, 17, 8, 15]",4,11,"[2, 5, 6, 11, 12, 18, 19, 22, 25, 27, 28]",125.1503444,5317,1732,62,51,9,1.1146194627724886
undo,21,11,0,0,0,11,"[0, 17, 8, 15, 11]",5,9,"[2, 5, 6, 12, 19, 22, 25, 27, 28]",107.0395741,6538,1221,24,2,9,1.1130192047684102
undo,21,11,0,0,0,28,"[0, 17, 8, 15, 11, 28]",6,4,"[2, 5, 19, 22]",87.62308629,7289,751,6,2,9,1.2290091933070886
undo,21,11,0,0,0,2,"[0, 17, 8, 15, 11, 28, 2]",7,3,"[5, 19, 22]",76.99294047,8383,1094,2,1,9,1.2494226000258029
undo,21,11,0,0,0,22,"[0, 17, 8, 15, 11, 28, 2, 22]",8,1,[5],66.94306485,12858,4475,1,0,9,1.2361545496649002
undo,21,11,0,0,1,5,"[0, 17, 8, 15, 11, 28, 2, 22, 5]",9,0,[],40.37240434,14988,2130,1,0,9,1.595813315469223
undo,21,11,0,1,1,5,"[0, 17, 8, 15, 11, 28, 2, 22, 5]",9,0,[],40.37240434,17596,2608,1,0,9,1.595813315469223
undo,22,7,0,0,0,0,[0],1,29,"[1, 2, 3, 4, 5, 6, 7, 8, 9, 10, 11, 12, 13, 14, 15, 16, 17, 18, 19, 20, 21, 22, 23, 24, 25, 26, 27, 28, 29]",300,326,-1,3,79,9,0.0
undo,22,7,0,0,0,25,"[0, 25]",2,20,"[2, 3, 4, 5, 6, 7, 10, 13, 14, 15, 16, 18, 19, 20, 21, 22, 23, 24, 27, 28]",181.5939191,2603,2277,5,33,8,1.0
undo,22,7,0,0,0,4,"[0, 25, 4]",3,11,"[2, 6, 7, 13, 15, 16, 18, 19, 20, 21, 23]",156.8552853,6044,3441,2,14,8,1.0193465608331511
undo,22,7,0,0,0,20,"[0, 25, 4, 20]",4,8,"[2, 6, 7, 13, 15, 16, 18, 19]",137.2084026,7041,997,1,9,8,1.085904909082323
undo,22,7,0,0,0,18,"[0, 25, 4, 20, 18]",5,7,"[2, 6, 7, 13, 15, 16, 19]",124.4021541,7780,739,1,5,8,1.2264883846453758
undo,22,7,0,0,0,7,"[0, 25, 4, 20, 18, 7]",6,2,"[2, 19]",83.17109789,11187,3407,1,1,8,1.185264473968278
undo,22,7,0,0,0,19,"[0, 25, 4, 20, 18, 7, 19]",7,1,[2],53.76021555,12418,1231,1,0,8,1.3016904288278204
undo,22,7,0,0,1,2,"[0, 25, 4, 20, 18, 7, 19, 2]",8,0,[],23.61058868,13600,1182,1,0,8,1.3168868000947171
undo,22,7,0,1,1,2,"[0, 25, 4, 20, 18, 7, 19, 2]",8,0,[],23.61058868,15627,2027,1,0,8,1.3168868000947171
basic,23,31,0,0,0,0,[0],1,27,"[1, 3, 4, 5, 6, 7, 8, 10, 11, 12, 13, 14, 15, 16, 17, 18, 19, 20, 21, 22, 23, 24, 25, 26, 27, 28, 29]",300,214,-1,2,87,10,0.0
basic,23,31,0,0,0,14,"[0, 14]",2,25,"[1, 3, 5, 6, 7, 8, 10, 11, 12, 13, 15, 16, 17, 18, 19, 20, 21, 22, 23, 24, 25, 26, 27, 28, 29]",263.861378,5676,5462,2,59,10,1.0
basic,23,31,0,0,0,27,"[0, 14, 27]",3,22,"[1, 3, 5, 6, 7, 8, 10, 11, 12, 13, 15, 16, 17, 18, 19, 20, 21, 22, 24, 25, 28, 29]",235.6833724,8335,2659,1,39,10,1.5881859159302467
basic,23,31,0,0,0,8,"[0, 14, 27, 8]",4,20,"[1, 3, 5, 6, 7, 10, 11, 12, 13, 16, 17, 18, 19, 20, 21, 22, 24, 25, 28, 29]",224.6380114,10369,2034,1,36,10,2.1665048452331277
basic,23,31,0,0,0,18,"[0, 14, 27, 8, 18]",5,15,"[1, 5, 6, 7, 11, 12, 13, 16, 17, 19, 20, 22, 25, 28, 29]",188.7911147,12957,2588,1,26,10,1.7273375741920205
basic,23,31,0,0,0,17,"[0, 14, 27, 8, 18, 17]",6,13,"[1, 5, 6, 7, 11, 12, 13, 16, 19, 20, 22, 25, 28]",159.584951,15326,2369,1,13,10,1.551192427769927
basic,23,31,0,0,0,11,"[0, 14, 27, 8, 18, 17, 11]",7,7,"[5, 12, 16, 19, 22, 25, 28]",118.4753414,16768,1442,1,4,10,2.9650760544203494
basic,23,31,0,0,0,5,"[0, 14, 27, 8, 18, 17, 11, 5]",8,2,"[16, 28]",74.79468207,19230,2462,1,1,10,2.56711965625205
basic,23,31,0,0,0,28,"[0, 14, 27, 8, 18, 17, 11, 5, 28]",9,1,[16],54.57093365,20801,1571,1,0,10,2.2865510762058148
basic,23,31,0,0,1,16,"[0, 14, 27, 8, 18, 17, 11, 5, 28, 16]",10,0,[],20.95546102,23076,2275,1,0,10,2.089356850786318
basic,23,31,0,1,1,16,"[0, 14, 27, 8, 18, 17, 11, 5, 28, 16]",10,0,[],20.95546102,25079,2003,1,0,10,2.089356850786318
basic,24,15,0,0,0,0,[0],1,25,"[1, 2, 3, 4, 7, 8, 9, 10, 11, 12, 13, 14, 15, 16, 18, 20, 21, 22, 23, 24, 25, 26, 27, 28, 29]",300,163,-1,4,65,9,0.0
basic,24,15,0,0,0,12,"[0, 12]",2,22,"[1, 2, 3, 4, 7, 8, 9, 10, 11, 13, 14, 15, 16, 18, 21, 22, 23, 24, 26, 27, 28, 29]",213.547701,5542,5379,4,35,9,1.0
basic,24,15,0,0,0,7,"[0, 12, 7]",3,16,"[1, 3, 4, 8, 9, 10, 11, 13, 14, 15, 16, 18, 21, 22, 24, 27]",180.3061607,6935,1393,4,29,9,1.411291635294361
basic,24,15,0,0,0,11,"[0, 12, 7, 11]",4,9,"[3, 4, 13, 14, 15, 16, 21, 22, 27]",138.8212237,10838,3903,2,12,9,1.2980572092387541
basic,24,15,0,0,0,3,"[0, 12, 7, 11, 3]",5,7,"[4, 13, 14, 15, 16, 21, 22]",127.4194695,12444,1606,2,7,9,1.3036925309398455
basic,24,15,0,0,0,16,"[0, 12, 7, 11, 3, 16]",6,5,"[4, 13, 14, 15, 22]",102.3395971,14050,1606,2,2,9,1.731400260973498
basic,24,15,0,0,0,13,"[0, 12, 7, 11, 3, 16, 13]",7,1,[15],15.3625886,18289,4239,1,0,8,1.4207737910905425
basic,24,15,0,0,1,15,"[0, 12, 7, 11, 3, 16, 13, 15]",8,0,[],0.098251074,19297,1008,1,0,8,1.5271522296588989
basic,24,15,0,1,1,15,"[0, 12, 7, 11, 3, 16, 13, 15]",8,0,[],0.098251074,21530,2233,1,0,8,1.5271522296588989
basic,25,6,0,0,0,0,[0],1,29,"[1, 2, 3, 4, 5, 6, 7, 8, 9, 10, 11, 12, 13, 14, 15, 16, 17, 18, 19, 20, 21, 22, 23, 24, 25, 26, 27, 28, 29]",300,178,-1,180,4304,10,0.0
basic,25,6,0,0,0,3,"[0, 3]",2,28,"[1, 2, 4, 5, 6, 7, 8, 9, 10, 11, 12, 13, 14, 15, 16, 17, 18, 19, 20, 21, 22, 23, 24, 25, 26, 27, 28, 29]",266.4738908,2573,2395,90,1607,10,1.0
basic,25,6,0,0,0,18,"[0, 3, 18]",3,27,"[1, 2, 4, 5, 6, 7, 8, 9, 10, 11, 12, 13, 14, 15, 16, 17, 19, 20, 21, 22, 23, 24, 25, 26, 27, 28, 29]",237.4738908,5415,2842,34,516,10,1.0266750028725786
basic,25,6,0,0,0,17,"[0, 3, 18, 17]",4,26,"[1, 2, 4, 5, 6, 7, 8, 9, 10, 11, 12, 13, 14, 15, 16, 19, 20, 21, 22, 23, 24, 25, 26, 27, 28, 29]",223.5455025,6434,1019,17,243,10,1.0832900829093166
basic,25,6,0,0,0,10,"[0, 3, 18, 17, 10]",5,22,"[1, 2, 4, 5, 6, 7, 8, 9, 11, 13, 14, 16, 19, 20, 21, 22, 23, 24, 26, 27, 28, 29]",203.8224196,7365,931,10,111,10,1.140294203414171
basic,25,6,0,0,0,24,"[0, 3, 18, 17, 10, 24]",6,19,"[1, 2, 4, 5, 6, 7, 8, 11, 13, 14, 16, 20, 21, 22, 23, 26, 27, 28, 29]",190.4060117,8576,1211,10,80,10,1.1264281153820843
basic,25,6,0,0,0,16,"[0, 3, 18, 17, 10, 24, 16]",7,13,"[1, 2, 6, 7, 13, 14, 20, 21, 22, 23, 26, 27, 29]",134.3703088,10553,1977,6,21,10,2.2946652061367843
basic,25,6,0,0,0,29,"[0, 3, 18, 17, 10, 24, 16, 29]",8,7,"[6, 14, 20, 21, 22, 23, 27]",97.68243615,12922,2369,5,5,10,1.8995488998077483
basic,25,6,0,0,0,23,"[0, 3, 18, 17, 10, 24, 16, 29, 23]",9,2,"[6, 22]",50.16401866,15181,2259,2,0,10,1.8616504050291767
basic,25,6,0,0,1,6,"[0, 3, 18, 17, 10, 24, 16, 29, 23, 6]",10,0,[],14.8086796,17044,1863,1,0,10,1.7707258119152334
basic,25,6,0,1,1,6,"[0, 3, 18, 17, 10, 24, 16, 29, 23, 6]",10,0,[],14.8086796,18927,1883,1,0,10,1.7707258119152334
basic,26,44,0,0,0,0,[0],1,29,"[1, 2, 3, 4, 5, 6, 7, 8, 9, 10, 11, 12, 13, 14, 15, 16, 17, 18, 19, 20, 21, 22, 23, 24, 25, 26, 27, 28, 29]",300,164,-1,13,126,7,0.0
basic,26,44,0,0,0,11,"[0, 11]",2,18,"[4, 5, 6, 7, 8, 9, 12, 14, 16, 17, 19, 20, 22, 23, 24, 25, 26, 28]",152.7790776,6287,6123,5,34,7,1.0
basic,26,44,0,0,0,9,"[0, 11, 9]",3,8,"[4, 7, 8, 12, 14, 20, 23, 24]",93.11334201,9781,3494,2,11,6,1.3038327019226341
basic,26,44,0,0,0,4,"[0, 11, 9, 4]",4,6,"[7, 12, 14, 20, 23, 24]",73.41562641,12272,2491,2,4,6,1.290037607723547
basic,26,44,0,0,0,7,"[0, 11, 9, 4, 7]",5,1,[23],42.39950157,14463,2191,1,0,6,1.2467329815627037
basic,26,44,0,0,1,23,"[0, 11, 9, 4, 7, 23]",6,0,[],23.2945284,18818,4355,1,0,6,1.2634426189580312
basic,26,44,0,1,1,23,"[0, 11, 9, 4, 7, 23]",6,0,[],23.2945284,22046,3228,1,0,6,1.2634426189580312
basic,27,24,0,0,0,0,[0],1,29,"[1, 2, 3, 4, 5, 6, 7, 8, 9, 10, 11, 12, 13, 14, 15, 16, 17, 18, 19, 20, 21, 22, 23, 24, 25, 26, 27, 28, 29]",300,165,-1,4,76,10,0.0
basic,27,24,0,0,0,16,"[0, 16]",2,28,"[1, 2, 3, 4, 5, 6, 7, 8, 9, 10, 11, 12, 13, 14, 15, 17, 18, 19, 20, 21, 22, 23, 24, 25, 26, 27, 28, 29]",210.3562607,3769,3604,13,110,9,1.0
basic,27,24,0,0,0,8,"[0, 16, 8]",3,22,"[1, 2, 3, 4, 6, 9, 10, 11, 13, 14, 15, 17, 20, 21, 22, 23, 24, 25, 26, 27, 28, 29]",181.3562607,7067,3298,3,31,9,1.0774669368510212
basic,27,24,0,0,0,22,"[0, 16, 8, 22]",4,18,"[2, 3, 4, 6, 9, 10, 11, 13, 14, 15, 17, 23, 24, 25, 26, 27, 28, 29]",167.9398528,8985,1918,3,23,9,1.2531772310046492
basic,27,24,0,0,0,15,"[0, 16, 8, 22, 15]",5,16,"[3, 4, 6, 9, 10, 11, 13, 14, 17, 23, 24, 25, 26, 27, 28, 29]",146.7266494,10291,1306,3,16,9,1.2813329946092564
basic,27,24,0,0,0,28,"[0, 16, 8, 22, 15, 28]",6,8,"[3, 4, 9, 11, 13, 23, 26, 27]",101.4497237,12304,2013,3,5,9,1.2060847818642253
basic,27,24,0,0,0,23,"[0, 16, 8, 22, 15, 28, 23]",7,3,"[9, 11, 27]",82.42342609,15517,3213,3,1,9,1.2349355190066822
basic,27,24,0,0,0,11,"[0, 16, 8, 22, 15, 28, 23, 11]",8,2,"[9, 27]",55.49760206,17307,1790,2,0,9,1.2172586817191506
basic,27,24,0,0,1,9,"[0, 16, 8, 22, 15, 28, 23, 11, 9]",9,0,[],23.24857107,19899,2592,1,0,9,1.3037788048831767
basic,27,24,0,1,1,9,"[0, 16, 8, 22, 15, 28, 23, 11, 9]",9,0,[],23.24857107,21861,1962,1,0,9,1.3037788048831767
basic,28,28,0,0,0,0,[0],1,27,"[1, 2, 3, 4, 5, 6, 7, 8, 9, 10, 11, 12, 13, 14, 15, 16, 17, 18, 19, 20, 22, 23, 25, 26, 27, 28, 29]",300,199,-1,2,96,9,0.0
basic,28,28,0,0,0,3,"[0, 3]",2,26,"[1, 2, 4, 5, 6, 7, 8, 9, 10, 11, 12, 13, 14, 15, 16, 17, 18, 19, 20, 22, 23, 25, 26, 27, 28, 29]",251.0817008,7591,7392,1,64,9,1.0
basic,28,28,0,0,0,5,"[0, 3, 5]",3,20,"[2, 4, 6, 7, 8, 9, 10, 11, 12, 13, 14, 15, 18, 19, 20, 23, 25, 26, 28, 29]",166.9865166,8835,1244,1,34,9,1.0203769473612083
basic,28,28,0,0,0,26,"[0, 3, 5, 26]",4,13,"[2, 4, 7, 8, 9, 12, 13, 14, 18, 19, 20, 25, 28]",134.2298379,9960,1125,1,28,9,1.0315203228799597
basic,28,28,0,0,0,19,"[0, 3, 5, 26, 19]",5,7,"[2, 7, 9, 12, 13, 14, 18]",93.22983789,11972,2012,1,17,9,1.1324645362297356
basic,28,28,0,0,0,12,"[0, 3, 5, 26, 19, 12]",6,3,"[7, 13, 18]",52.73292443,14477,2505,4,1,8,1.2001983448298317
basic,28,28,0,0,0,13,"[0, 3, 5, 26, 19, 12, 13]",7,2,"[7, 18]",35.52827389,17134,2657,2,0,8,1.38802097558459
basic,28,28,0,0,1,18,"[0, 3, 5, 26, 19, 12, 13, 18]",8,0,[],11.11516266,18175,1041,1,0,8,1.7364618279875161
basic,28,28,0,1,1,18,"[0, 3, 5, 26, 19, 12, 13, 18]",8,0,[],11.11516266,19647,1472,1,0,8,1.7364618279875161
basic,29,12,0,0,0,0,[0],1,29,"[1, 2, 3, 4, 5, 6, 7, 8, 9, 10, 11, 12, 13, 14, 15, 16, 17, 18, 19, 20, 21, 22, 23, 24, 25, 26, 27, 28, 29]",300,164,-1,2,32,9,0.0
basic,29,12,0,0,0,25,"[0, 25]",2,16,"[2, 4, 5, 6, 7, 9, 12, 14, 16, 18, 19, 22, 23, 24, 27, 28]",225.7975742,3379,3215,5,34,8,1.0
basic,29,12,0,0,0,16,"[0, 25, 16]",3,11,"[2, 4, 5, 6, 7, 12, 14, 19, 22, 24, 27]",169.0701557,4963,1584,4,22,8,1.4434159828731936
basic,29,12,0,0,0,4,"[0, 25, 16, 4]",4,6,"[12, 14, 19, 22, 24, 27]",134.864893,6235,1272,2,7,8,1.3220542462647857
basic,29,12,0,0,0,12,"[0, 25, 16, 4, 12]",5,5,"[14, 19, 22, 24, 27]",92.67484678,7711,1476,2,3,8,1.2548348749245275
basic,29,12,0,0,0,27,"[0, 25, 16, 4, 12, 27]",6,2,"[14, 24]",68.32325545,9718,2007,2,0,8,1.3544642483472162
basic,29,12,0,0,0,14,"[0, 25, 16, 4, 12, 27, 14]",7,1,[24],39.67015789,12185,2467,1,0,8,1.3982089850666115
basic,29,12,0,0,1,24,"[0, 25, 16, 4, 12, 27, 14, 24]",8,0,[],22.46550735,15155,2970,1,0,8,1.5551140590301356
basic,29,12,0,1,1,24,"[0, 25, 16, 4, 12, 27, 14, 24]",8,0,[],22.46550735,18095,2940,1,0,8,1.5551140590301356
basic,30,19,0,0,0,0,[0],1,29,"[1, 2, 3, 4, 5, 6, 7, 8, 9, 10, 11, 12, 13, 14, 15, 16, 17, 18, 19, 20, 21, 22, 23, 24, 25, 26, 27, 28, 29]",300,165,-1,12,149,8,0.0
basic,30,19,0,0,0,29,"[0, 29]",2,28,"[1, 2, 3, 4, 5, 6, 7, 8, 9, 10, 11, 12, 13, 14, 15, 16, 17, 18, 19, 20, 21, 22, 23, 24, 25, 26, 27, 28]",265.0715016,4120,3955,12,120,8,1.0
basic,30,19,0,0,0,9,"[0, 29, 9]",3,17,"[1, 4, 5, 6, 7, 10, 11, 12, 13, 14, 19, 20, 21, 22, 24, 27, 28]",181.7108394,5712,1592,11,65,8,1.0375842971861238
basic,30,19,0,0,0,6,"[0, 29, 9, 6]",4,12,"[4, 7, 10, 11, 13, 14, 20, 21, 22, 24, 27, 28]",140.2741407,8809,3097,11,34,8,1.0389786364356892
basic,30,19,0,0,0,14,"[0, 29, 9, 6, 14]",5,7,"[4, 10, 11, 20, 22, 24, 28]",80.59164747,9923,1114,3,6,8,1.0491884155331486
basic,30,19,0,0,0,11,"[0, 29, 9, 6, 14, 11]",6,5,"[4, 20, 22, 24, 28]",69.77499364,10793,870,3,2,8,1.050030420094996
basic,30,19,0,0,0,20,"[0, 29, 9, 6, 14, 11, 20]",7,1,[22],21.97332003,12420,1627,1,0,8,1.2297732331070566
basic,30,19,0,0,1,22,"[0, 29, 9, 6, 14, 11, 20, 22]",8,0,[],8.82037359,13655,1235,1,0,8,1.3667995105273867
basic,30,19,0,1,1,22,"[0, 29, 9, 6, 14, 11, 20, 22]",8,0,[],8.82037359,15663,2008,1,0,8,1.3667995105273867
basic,31,20,0,0,0,0,[0],1,21,"[1, 2, 3, 4, 5, 6, 7, 8, 9, 12, 17, 18, 20, 21, 22, 23, 25, 26, 27, 28, 29]",300,165,-1,1,9,9,0.0
basic,31,20,0,0,0,1,"[0, 1]",2,14,"[3, 4, 5, 6, 8, 9, 12, 20, 21, 23, 26, 27, 28, 29]",197.3501096,4876,4711,1,9,8,1.0
basic,31,20,0,0,0,5,"[0, 1, 5]",3,12,"[4, 6, 8, 9, 12, 20, 21, 23, 26, 27, 28, 29]",160.675868,6735,1859,1,8,8,1.1088946720668915
basic,31,20,0,0,0,21,"[0, 1, 5, 21]",4,8,"[4, 6, 8, 9, 20, 23, 27, 28]",115.675868,8223,1488,1,6,8,1.0805828994591202
basic,31,20,0,0,0,8,"[0, 1, 5, 21, 8]",5,5,"[6, 9, 23, 27, 28]",98.21161876,9602,1379,1,5,8,1.0976815296746363
basic,31,20,0,0,0,23,"[0, 1, 5, 21, 8, 23]",6,3,"[6, 9, 27]",53.52381281,11356,1754,1,2,8,1.0820667611140062
basic,31,20,0,0,0,9,"[0, 1, 5, 21, 8, 23, 9]",7,1,[6],34.3144401,13375,2019,1,0,8,1.0771429624373048
basic,31,20,0,0,1,6,"[0, 1, 5, 21, 8, 23, 9, 6]",8,0,[],11.29271124,14660,1285,1,0,8,1.0892675954154076
basic,31,20,0,1,1,6,"[0, 1, 5, 21, 8, 23, 9, 6]",8,0,[],11.29271124,15564,904,1,0,8,1.0892675954154076
basic,32,18,0,0,0,0,[0],1,28,"[1, 2, 3, 4, 5, 6, 7, 8, 9, 10, 11, 12, 13, 14, 16, 17, 18, 19, 20, 21, 22, 23, 24, 25, 26, 27, 28, 29]",300,165,-1,3,136,10,0.0
basic,32,18,0,0,0,28,"[0, 28]",2,16,"[1, 3, 5, 7, 8, 9, 12, 13, 14, 16, 20, 23, 24, 25, 26, 27]",236.4311397,2362,2197,2,19,10,1.0
basic,32,18,0,0,0,7,"[0, 28, 7]",3,15,"[1, 3, 5, 8, 9, 12, 13, 14, 16, 20, 23, 24, 25, 26, 27]",214.4084242,5559,3197,2,17,10,1.4345180696367563
basic,32,18,0,0,0,25,"[0, 28, 7, 25]",4,13,"[1, 3, 5, 8, 9, 12, 13, 14, 16, 20, 23, 26, 27]",186.6055466,6802,1243,2,15,10,1.8896451241781882
basic,32,18,0,0,0,8,"[0, 28, 7, 25, 8]",5,10,"[3, 5, 9, 12, 13, 14, 16, 23, 26, 27]",149.551532,8686,1884,2,10,10,1.590467437592877
basic,32,18,0,0,0,13,"[0, 28, 7, 25, 8, 13]",6,9,"[3, 5, 9, 12, 14, 16, 23, 26, 27]",128.4565089,9535,849,2,5,10,1.8248274983549797
basic,32,18,0,0,0,14,"[0, 28, 7, 25, 8, 13, 14]",7,7,"[3, 5, 9, 12, 23, 26, 27]",109.4828429,10702,1167,2,3,10,1.6993534956692746
basic,32,18,0,0,0,3,"[0, 28, 7, 25, 8, 13, 14, 3]",8,3,"[5, 12, 27]",79.39962499,12626,1924,2,1,10,1.802637206541468
basic,32,18,0,0,0,5,"[0, 28, 7, 25, 8, 13, 14, 3, 5]",9,1,[12],21.21887216,15395,2769,1,0,10,1.559774889743805
basic,32,18,0,0,1,12,"[0, 28, 7, 25, 8, 13, 14, 3, 5, 12]",10,0,[],9.817117911,17137,1742,1,0,10,1.563993037384447
basic,32,18,0,1,1,12,"[0, 28, 7, 25, 8, 13, 14, 3, 5, 12]",10,0,[],9.817117911,19797,2660,1,0,10,1.563993037384447
basic,33,30,0,0,0,0,[0],1,19,"[3, 4, 5, 7, 9, 11, 16, 17, 18, 19, 20, 21, 22, 24, 25, 26, 27, 28, 29]",300,166,-1,5,41,8,0.0
basic,33,30,0,0,0,16,"[0, 16]",2,17,"[3, 5, 7, 9, 11, 17, 18, 19, 20, 21, 22, 24, 25, 26, 27, 28, 29]",219.3774225,2971,2805,5,34,8,1.0
basic,33,30,0,0,0,25,"[0, 16, 25]",3,10,"[3, 5, 7, 9, 11, 18, 19, 20, 27, 29]",115.0845656,4420,1449,5,28,8,1.0336279544884488
basic,33,30,0,0,0,20,"[0, 16, 25, 20]",4,8,"[3, 5, 7, 9, 18, 19, 27, 29]",93.15285342,6924,2504,4,14,8,1.0337964627284246
basic,33,30,0,0,0,27,"[0, 16, 25, 20, 27]",5,4,"[3, 5, 18, 29]",59.09408069,7909,985,4,6,8,1.1504365534848
basic,33,30,0,0,0,3,"[0, 16, 25, 20, 27, 3]",6,3,"[5, 18, 29]",39.98910751,10752,2843,4,0,8,1.1403876826835333
basic,33,30,0,0,0,29,"[0, 16, 25, 20, 27, 3, 29]",7,1,[18],21.38803228,12027,1275,1,0,8,1.1443827771455848
basic,33,30,0,0,1,18,"[0, 16, 25, 20, 27, 3, 29, 18]",8,0,[],2.074824359,12926,899,1,0,8,1.2197761544023602
basic,33,30,0,1,1,18,"[0, 16, 25, 20, 27, 3, 29, 18]",8,0,[],2.074824359,15530,2604,1,0,8,1.2197761544023602
basic,34,32,0,0,0,0,[0],1,29,"[1, 2, 3, 4, 5, 6, 7, 8, 9, 10, 11, 12, 13, 14, 15, 16, 17, 18, 19, 20, 21, 22, 23, 24, 25, 26, 27, 28, 29]",300,165,-1,17,359,10,0.0
basic,34,32,0,0,0,15,"[0, 15]",2,24,"[2, 3, 4, 5, 6, 7, 8, 9, 10, 11, 12, 13, 14, 16, 17, 19, 20, 22, 23, 24, 25, 26, 27, 28]",214.6185032,3057,2892,11,153,9,1.0
basic,34,32,0,0,0,28,"[0, 15, 28]",3,21,"[2, 3, 5, 7, 8, 9, 10, 11, 12, 13, 14, 16, 17, 19, 20, 22, 23, 24, 25, 26, 27]",203.2167489,3878,821,11,119,9,1.000160051986942
basic,34,32,0,0,0,12,"[0, 15, 28, 12]",4,19,"[2, 3, 5, 7, 8, 9, 10, 11, 13, 16, 17, 19, 20, 22, 23, 24, 25, 26, 27]",184.243083,4992,1114,8,71,9,1.0281484763748023
basic,34,32,0,0,0,16,"[0, 15, 28, 12, 16]",5,17,"[2, 3, 5, 7, 8, 9, 10, 11, 13, 17, 19, 20, 22, 23, 24, 26, 27]",168.5906071,6127,1135,6,38,9,1.1190771370096
basic,34,32,0,0,0,27,"[0, 15, 28, 12, 16, 27]",6,6,"[3, 7, 10, 11, 22, 24]",92.31479182,7847,1720,2,3,9,1.1348918479781422
basic,34,32,0,0,0,11,"[0, 15, 28, 12, 16, 27, 11]",7,2,"[3, 7]",64.42214046,9045,1198,1,1,9,1.1173866390825542
basic,34,32,0,0,0,3,"[0, 15, 28, 12, 16, 27, 11, 3]",8,1,[7],48.80164111,10702,1657,1,0,9,1.232891158302231
basic,34,32,0,0,1,7,"[0, 15, 28, 12, 16, 27, 11, 3, 7]",9,0,[],5.235599283,13120,2418,1,0,9,1.199568025419382
basic,34,32,0,1,1,7,"[0, 15, 28, 12, 16, 27, 11, 3, 7]",9,0,[],5.235599283,14296,1176,1,0,9,1.199568025419382
basic,35,17,0,0,0,0,[0],1,28,"[1, 2, 3, 4, 5, 6, 7, 8, 9, 10, 11, 12, 13, 14, 15, 16, 17, 18, 19, 20, 22, 23, 24, 25, 26, 27, 28, 29]",300,163,-1,2,73,8,0.0
basic,35,17,0,0,0,9,"[0, 9]",2,25,"[1, 2, 3, 5, 6, 7, 8, 10, 11, 12, 14, 15, 16, 17, 18, 19, 20, 22, 23, 24, 25, 26, 27, 28, 29]",210.5293344,3842,3679,1,34,8,1.0
basic,35,17,0,0,0,16,"[0, 9, 16]",3,21,"[1, 2, 3, 5, 7, 8, 10, 11, 12, 14, 17, 18, 19, 20, 22, 23, 25, 26, 27, 28, 29]",197.1876704,5284,1442,1,26,8,1.173103464220352
basic,35,17,0,0,0,2,"[0, 9, 16, 2]",4,18,"[1, 3, 5, 7, 8, 10, 11, 12, 14, 17, 18, 19, 23, 25, 26, 27, 28, 29]",181.0631549,6275,991,1,23,8,1.14825089247282
basic,35,17,0,0,0,8,"[0, 9, 16, 2, 8]",5,9,"[3, 7, 10, 11, 12, 14, 17, 26, 27]",145.9490551,7649,1374,1,9,8,1.1509808066472915
basic,35,17,0,0,0,7,"[0, 9, 16, 2, 8, 7]",6,3,"[10, 12, 27]",75.238377,9974,2325,3,0,7,1.2222166608088694
basic,35,17,0,0,1,27,"[0, 9, 16, 2, 8, 7, 27]",7,0,[],21.63800387,11002,1028,1,0,7,1.2961096752539074
basic,35,17,0,1,1,27,"[0, 9, 16, 2, 8, 7, 27]",7,0,[],21.63800387,19796,8794,1,0,7,1.2961096752539074
basic,36,38,0,0,0,0,[0],1,29,"[1, 2, 3, 4, 5, 6, 7, 8, 9, 10, 11, 12, 13, 14, 15, 16, 17, 18, 19, 20, 21, 22, 23, 24, 25, 26, 27, 28, 29]",300,163,-1,33,506,9,0.0
basic,36,38,0,0,0,19,"[0, 19]",2,23,"[3, 4, 5, 6, 7, 8, 9, 11, 13, 14, 15, 16, 17, 18, 20, 22, 23, 24, 25, 26, 27, 28, 29]",219.5015528,3057,2894,6,61,9,1.0
basic,36,38,0,0,0,17,"[0, 19, 17]",3,21,"[3, 4, 5, 6, 7, 9, 11, 13, 14, 15, 16, 18, 20, 22, 23, 24, 25, 26, 27, 28, 29]",198.1239945,4195,1138,6,53,9,1.571793785769489
basic,36,38,0,0,0,20,"[0, 19, 17, 20]",4,17,"[3, 4, 5, 6, 7, 11, 13, 14, 15, 16, 18, 22, 24, 25, 26, 27, 28]",174.3542658,5134,939,6,44,9,2.333182710277297
basic,36,38,0,0,0,4,"[0, 19, 17, 20, 4]",5,10,"[5, 11, 13, 14, 15, 16, 24, 26, 27, 28]",140.4131403,6626,1492,5,22,9,2.276099229646013
basic,36,38,0,0,0,15,"[0, 19, 17, 20, 4, 15]",6,8,"[5, 11, 13, 14, 16, 24, 26, 28]",114.4131403,8483,1857,5,6,9,2.5292671156176403
basic,36,38,0,0,0,16,"[0, 19, 17, 20, 4, 15, 16]",7,2,"[11, 28]",72.79583625,10139,1656,2,0,9,2.0765047644693917
basic,36,38,0,0,0,11,"[0, 19, 17, 20, 4, 15, 16, 11]",8,1,[28],35.79583625,12722,2583,1,0,9,3.3064290414170228
basic,36,38,0,0,1,28,"[0, 19, 17, 20, 4, 15, 16, 11, 28]",9,0,[],8.777324073,13840,1118,1,0,9,2.726952312540345
basic,36,38,0,1,1,28,"[0, 19, 17, 20, 4, 15, 16, 11, 28]",9,0,[],8.777324073,14895,1055,1,0,9,2.726952312540345
basic,37,36,0,0,0,0,[0],1,24,"[2, 4, 5, 6, 7, 8, 9, 10, 12, 13, 14, 15, 16, 17, 18, 19, 20, 22, 23, 25, 26, 27, 28, 29]",300,164,-1,2,200,10,0.0
basic,37,36,0,0,0,12,"[0, 12]",2,23,"[2, 4, 5, 6, 7, 8, 9, 10, 13, 14, 15, 16, 17, 18, 19, 20, 22, 23, 25, 26, 27, 28, 29]",277.7963967,6086,5922,90,804,9,1.0
basic,37,36,0,0,0,16,"[0, 12, 16]",3,10,"[2, 9, 10, 13, 17, 18, 19, 23, 25, 27]",171.6267212,10037,3951,4,38,9,1.202695220335868
basic,37,36,0,0,0,9,"[0, 12, 16, 9]",4,7,"[2, 13, 17, 18, 19, 23, 25]",124.3297868,11597,1560,11,17,8,2.5435421498116852
basic,37,36,0,0,0,17,"[0, 12, 16, 9, 17]",5,4,"[2, 13, 19, 25]",98.08097731,12736,1139,4,5,8,2.1363803194062605
basic,37,36,0,0,0,19,"[0, 12, 16, 9, 17, 19]",6,3,"[2, 13, 25]",70.18832595,14129,1393,3,0,8,2.981551464948337
basic,37,36,0,0,0,2,"[0, 12, 16, 9, 17, 19, 2]",7,1,[25],33.06690356,15285,1156,1,0,8,2.3637211680184493
basic,37,36,0,0,1,25,"[0, 12, 16, 9, 17, 19, 2, 25]",8,0,[],8.066903562,16268,983,1,0,8,2.549852844124929
basic,37,36,0,1,1,25,"[0, 12, 16, 9, 17, 19, 2, 25]",8,0,[],8.066903562,18865,2597,1,0,8,2.549852844124929
basic,38,27,0,0,0,0,[0],1,26,"[1, 3, 5, 6, 7, 8, 9, 10, 11, 12, 13, 14, 15, 16, 17, 18, 19, 21, 22, 23, 24, 25, 26, 27, 28, 29]",300,162,-1,13,578,11,0.0
basic,38,27,0,0,0,15,"[0, 15]",2,24,"[1, 3, 5, 6, 7, 8, 9, 10, 11, 12, 13, 14, 16, 17, 18, 19, 21, 22, 23, 24, 25, 26, 27, 29]",263.7508621,1444,1282,6,219,11,1.0
basic,38,27,0,0,0,24,"[0, 15, 24]",3,20,"[1, 5, 6, 7, 8, 9, 10, 12, 13, 14, 16, 17, 18, 19, 21, 23, 25, 26, 27, 29]",246.5462115,2257,813,6,130,11,1.130933077698322
basic,38,27,0,0,0,17,"[0, 15, 24, 17]",4,15,"[1, 6, 8, 10, 12, 13, 14, 16, 18, 19, 23, 25, 26, 27, 29]",229.9932662,4450,2193,4,60,11,1.1285538435963374
basic,38,27,0,0,0,12,"[0, 15, 24, 17, 12]",5,14,"[1, 6, 8, 10, 13, 14, 16, 18, 19, 23, 25, 26, 27, 29]",218.8129263,5454,1004,2,32,11,1.2561880288755216
basic,38,27,0,0,0,10,"[0, 15, 24, 17, 12, 10]",6,11,"[1, 8, 13, 14, 18, 19, 23, 25, 26, 27, 29]",207.7675653,6468,1014,2,28,11,1.2228289337766665
basic,38,27,0,0,0,13,"[0, 15, 24, 17, 12, 10, 13]",7,9,"[1, 8, 14, 18, 19, 23, 26, 27, 29]",167.9178476,7974,1506,2,18,11,1.3421291994761178
basic,38,27,0,0,0,19,"[0, 15, 24, 17, 12, 10, 13, 19]",8,5,"[1, 8, 14, 23, 29]",131.6825057,9540,1566,2,6,11,1.294749956153846
basic,38,27,0,0,0,8,"[0, 15, 24, 17, 12, 10, 13, 19, 8]",9,3,"[14, 23, 29]",116.816437,11096,1556,2,1,11,1.3554286578836865
basic,38,27,0,0,0,29,"[0, 15, 24, 17, 12, 10, 13, 19, 8, 29]",10,1,[14],57.61339652,13708,2612,1,0,11,1.248354519573802
basic,38,27,0,0,1,14,"[0, 15, 24, 17, 12, 10, 13, 19, 8, 29, 14]",11,0,[],13.31892734,15069,1361,1,0,11,1.562811097555156
basic,38,27,0,1,1,14,"[0, 15, 24, 17, 12, 10, 13, 19, 8, 29, 14]",11,0,[],13.31892734,17248,2179,1,0,11,1.562811097555156
basic,39,10,0,0,0,0,[0],1,29,"[1, 2, 3, 4, 5, 6, 7, 8, 9, 10, 11, 12, 13, 14, 15, 16, 17, 18, 19, 20, 21, 22, 23, 24, 25, 26, 27, 28, 29]",300,162,-1,1,100,9,0.0
basic,39,10,0,0,0,13,"[0, 13]",2,25,"[1, 2, 3, 4, 6, 7, 8, 9, 10, 11, 12, 14, 17, 18, 19, 20, 21, 22, 23, 24, 25, 26, 27, 28, 29]",249.4628849,5682,5520,1,79,9,1.0
basic,39,10,0,0,0,19,"[0, 13, 19]",3,12,"[2, 6, 8, 9, 10, 11, 14, 18, 20, 24, 26, 27]",180.5861835,6672,990,11,79,8,1.0000581961988606
basic,39,10,0,0,0,2,"[0, 13, 19, 2]",4,5,"[11, 14, 20, 26, 27]",136.6771867,7576,904,3,9,8,1.000456581399483
basic,39,10,0,0,0,14,"[0, 13, 19, 2, 14]",5,4,"[11, 20, 26, 27]",124.5116616,10525,2949,3,6,8,1.0972737011325653
basic,39,10,0,0,0,26,"[0, 13, 19, 2, 14, 26]",6,3,"[11, 20, 27]",89.84178999,11938,1413,3,1,8,1.5868342521575007
basic,39,10,0,0,0,11,"[0, 13, 19, 2, 14, 26, 11]",7,1,[20],48.08056395,14008,2070,1,0,8,2.7772471764176028
basic,39,10,0,0,1,20,"[0, 13, 19, 2, 14, 26, 11, 20]",8,0,[],10.00169842,15214,1206,1,0,8,2.3959438836221785
basic,39,10,0,1,1,20,"[0, 13, 19, 2, 14, 26, 11, 20]",8,0,[],10.00169842,17147,1933,1,0,8,2.3959438836221785
basic,40,43,0,0,0,0,[0],1,23,"[1, 2, 3, 4, 5, 6, 7, 9, 10, 11, 12, 14, 15, 16, 17, 19, 20, 21, 22, 23, 25, 27, 29]",300,178,-1,16,556,12,0.0
basic,40,43,0,0,0,29,"[0, 29]",2,22,"[1, 2, 3, 4, 5, 6, 7, 9, 10, 11, 12, 14, 15, 16, 17, 19, 20, 21, 22, 23, 25, 27]",277.909278,1872,1694,16,520,12,1.0
basic,40,43,0,0,0,20,"[0, 29, 20]",3,20,"[1, 2, 3, 4, 6, 7, 9, 10, 11, 12, 14, 15, 16, 17, 19, 21, 22, 23, 25, 27]",254.4785289,3056,1184,15,422,12,1.082311746871282
basic,40,43,0,0,0,25,"[0, 29, 20, 25]",4,15,"[1, 2, 3, 4, 6, 7, 9, 11, 12, 14, 15, 16, 19, 22, 23]",181.31433,4350,1294,1,94,11,1.496487050324318
basic,40,43,0,0,0,16,"[0, 29, 20, 25, 16]",5,11,"[1, 2, 3, 6, 7, 11, 12, 14, 15, 19, 22]",125.2340305,5574,1224,4,43,9,3.116352281214041
basic,40,43,0,0,0,15,"[0, 29, 20, 25, 16, 15]",6,7,"[1, 3, 6, 11, 12, 19, 22]",81.90967243,6837,1263,3,9,9,2.637760605002321
basic,40,43,0,0,0,12,"[0, 29, 20, 25, 16, 15, 12]",7,3,"[3, 19, 22]",62.59646451,8085,1248,3,1,9,2.4014482537961683
basic,40,43,0,0,0,3,"[0, 29, 20, 25, 16, 15, 12, 3]",8,2,"[19, 22]",49.59646451,9355,1270,2,0,9,2.2477839491781797
basic,40,43,0,0,1,22,"[0, 29, 20, 25, 16, 15, 12, 3, 22]",9,0,[],14.8833546,11914,2559,1,0,9,2.390542312366824
basic,40,43,0,1,1,22,"[0, 29, 20, 25, 16, 15, 12, 3, 22]",9,0,[],14.8833546,13943,2029,1,0,9,2.390542312366824
basic,41,23,0,0,0,0,[0],1,28,"[1, 2, 3, 4, 5, 6, 7, 8, 9, 10, 11, 12, 13, 14, 15, 16, 17, 18, 19, 20, 21, 22, 23, 25, 26, 27, 28, 29]",300,163,-1,76,2626,10,0.0
basic,41,23,0,0,0,27,"[0, 27]",2,11,"[2, 6, 7, 9, 10, 12, 13, 14, 18, 22, 29]",156.8217894,2096,1933,6,455,9,1.0
basic,41,23,0,0,0,6,"[0, 27, 6]",3,10,"[2, 7, 9, 10, 12, 13, 14, 18, 22, 29]",128.519846,4462,2366,6,168,9,1.1413510010705277
basic,41,23,0,0,0,2,"[0, 27, 6, 2]",4,8,"[7, 9, 12, 13, 14, 18, 22, 29]",110.0807571,13268,8806,3,50,9,1.3917699979429488
basic,41,23,0,0,0,12,"[0, 27, 6, 2, 12]",5,7,"[7, 9, 13, 14, 18, 22, 29]",96.18831307,15084,1816,1,16,9,1.6625644519568523
basic,41,23,0,0,0,13,"[0, 27, 6, 2, 12, 13]",6,5,"[9, 14, 18, 22, 29]",84.10526709,16245,1161,1,4,9,1.9506259737980345
basic,41,23,0,0,0,9,"[0, 27, 6, 2, 12, 13, 9]",7,3,"[14, 22, 29]",60.08444279,17927,1682,1,2,9,1.8363453994915562
basic,41,23,0,0,0,14,"[0, 27, 6, 2, 12, 13, 9, 14]",8,1,[29],49.64413629,19390,1463,1,0,9,1.7769594285688837
basic,41,23,0,0,1,29,"[0, 27, 6, 2, 12, 13, 9, 14, 29]",9,0,[],2.209971383,20826,1436,1,0,9,1.931097609943655
basic,41,23,0,1,1,29,"[0, 27, 6, 2, 12, 13, 9, 14, 29]",9,0,[],2.209971383,21997,1171,1,0,9,1.931097609943655
basic,42,40,0,0,0,0,[0],1,29,"[1, 2, 3, 4, 5, 6, 7, 8, 9, 10, 11, 12, 13, 14, 15, 16, 17, 18, 19, 20, 21, 22, 23, 24, 25, 26, 27, 28, 29]",300,163,-1,8,191,9,0.0
basic,42,40,0,0,0,1,"[0, 1]",2,18,"[2, 5, 6, 7, 8, 9, 10, 11, 13, 15, 17, 18, 19, 21, 22, 23, 27, 29]",247.8463808,2122,1959,4,80,9,1.0
basic,42,40,0,0,0,6,"[0, 1, 6]",3,17,"[2, 5, 7, 8, 9, 10, 11, 13, 15, 17, 18, 19, 21, 22, 23, 27, 29]",227.7466295,3153,1031,4,74,9,1.0459427008232034
basic,42,40,0,0,0,21,"[0, 1, 6, 21]",4,8,"[2, 5, 9, 17, 18, 19, 22, 23]",175.7754837,4534,1381,4,25,9,1.0308822257404064
basic,42,40,0,0,0,9,"[0, 1, 6, 21, 9]",5,6,"[2, 5, 18, 19, 22, 23]",130.0699041,5803,1269,4,12,9,1.377861912961129
basic,42,40,0,0,0,18,"[0, 1, 6, 21, 9, 18]",6,5,"[2, 5, 19, 22, 23]",113.5169588,6584,781,4,4,9,1.5742712168661408
basic,42,40,0,0,0,23,"[0, 1, 6, 21, 9, 18, 23]",7,3,"[2, 5, 19]",79.51695879,8689,2105,2,1,9,2.324611956726637
basic,42,40,0,0,0,5,"[0, 1, 6, 21, 9, 18, 23, 5]",8,1,[19],51.21501539,10400,1711,1,0,9,2.022909590433451
basic,42,40,0,0,1,19,"[0, 1, 6, 21, 9, 18, 23, 5, 19]",9,0,[],13.13614986,13447,3047,1,0,9,2.796177718843732
basic,42,40,0,1,1,19,"[0, 1, 6, 21, 9, 18, 23, 5, 19]",9,0,[],13.13614986,14194,747,1,0,9,2.796177718843732
basic,43,11,0,0,0,0,[0],1,25,"[1, 2, 3, 4, 5, 6, 8, 9, 10, 11, 12, 13, 14, 15, 16, 17, 18, 19, 20, 22, 23, 25, 26, 27, 28]",300,164,-1,6,374,12,0.0
basic,43,11,0,0,0,18,"[0, 18]",2,21,"[1, 2, 4, 5, 6, 8, 9, 11, 12, 13, 14, 15, 16, 17, 19, 20, 22, 23, 25, 27, 28]",236.8493864,5422,5258,157,1477,11,1.0
basic,43,11,0,0,0,27,"[0, 18, 27]",3,19,"[1, 2, 4, 5, 6, 8, 9, 11, 12, 14, 15, 16, 17, 19, 20, 22, 23, 25, 28]",212.9956655,8005,2583,157,1315,11,1.060949579704323
basic,43,11,0,0,0,17,"[0, 18, 27, 17]",4,14,"[1, 2, 4, 5, 6, 8, 11, 12, 15, 19, 22, 23, 25, 28]",135.9177828,9376,1371,46,349,11,1.1156120043677304
basic,43,11,0,0,0,8,"[0, 18, 27, 17, 8]",5,11,"[1, 2, 5, 6, 11, 12, 15, 19, 22, 25, 28]",121.5999617,10573,1197,26,143,11,1.2285932943120847
basic,43,11,0,0,0,15,"[0, 18, 27, 17, 8, 15]",6,9,"[2, 5, 6, 11, 12, 19, 22, 25, 28]",108.1463377,11742,1169,24,54,11,1.223015425852291
basic,43,11,0,0,0,11,"[0, 18, 27, 17, 8, 15, 11]",7,6,"[2, 5, 12, 19, 22, 28]",90.03556742,13754,2012,22,2,11,1.2111003833550413
basic,43,11,0,0,0,5,"[0, 18, 27, 17, 8, 15, 11, 5]",8,3,"[2, 22, 28]",54.80773752,16223,2469,5,1,11,1.5070858562662883
basic,43,11,0,0,0,28,"[0, 18, 27, 17, 8, 15, 11, 5, 28]",9,2,"[2, 22]",36.9191937,17701,1478,2,0,11,1.5224287982960607
basic,43,11,0,0,0,2,"[0, 18, 27, 17, 8, 15, 11, 5, 28, 2]",10,1,[22],26.28904788,18675,974,1,0,11,1.5334969671993883
basic,43,11,0,0,1,22,"[0, 18, 27, 17, 8, 15, 11, 5, 28, 2, 22]",11,0,[],16.23917226,19657,982,1,0,11,1.5050924702228456
basic,43,11,0,1,1,22,"[0, 18, 27, 17, 8, 15, 11, 5, 28, 2, 22]",11,0,[],16.23917226,20864,1207,1,0,11,1.5050924702228456
basic,44,35,0,0,0,0,[0],1,29,"[1, 2, 3, 4, 5, 6, 7, 8, 9, 10, 11, 12, 13, 14, 15, 16, 17, 18, 19, 20, 21, 22, 23, 24, 25, 26, 27, 28, 29]",300,162,-1,5,236,11,0.0
basic,44,35,0,0,0,27,"[0, 27]",2,27,"[1, 2, 4, 5, 6, 7, 8, 9, 10, 11, 12, 13, 14, 15, 16, 17, 18, 19, 20, 21, 22, 23, 24, 25, 26, 28, 29]",278.7867966,6351,6189,5,144,11,1.0
basic,44,35,0,0,0,2,"[0, 27, 2]",3,17,"[1, 5, 6, 7, 9, 10, 13, 15, 16, 17, 18, 19, 21, 23, 24, 26, 28]",217.43535,8153,1802,1,47,9,1.0198608620047263
basic,44,35,0,0,0,28,"[0, 27, 2, 28]",4,13,"[1, 5, 9, 10, 15, 16, 17, 18, 19, 21, 23, 24, 26]",171.8941598,9690,1537,1,43,9,2.196997034279233
basic,44,35,0,0,0,19,"[0, 27, 2, 28, 19]",5,7,"[1, 9, 15, 17, 18, 23, 24]",122.9758606,10751,1061,1,8,9,2.1510076450391287
basic,44,35,0,0,0,24,"[0, 27, 2, 28, 19, 24]",6,3,"[1, 15, 17]",48.64551685,12721,1970,3,1,8,8.10399379221155
basic,44,35,0,0,0,17,"[0, 27, 2, 28, 19, 24, 17]",7,1,[1],36.94081693,13697,976,1,0,8,6.632680930353522
basic,44,35,0,0,1,1,"[0, 27, 2, 28, 19, 24, 17, 1]",8,0,[],21.12942863,15284,1587,1,0,8,5.833908110418006
basic,44,35,0,1,1,1,"[0, 27, 2, 28, 19, 24, 17, 1]",8,0,[],21.12942863,17529,2245,1,0,8,5.833908110418006
basic,45,13,0,0,0,0,[0],1,29,"[1, 2, 3, 4, 5, 6, 7, 8, 9, 10, 11, 12, 13, 14, 15, 16, 17, 18, 19, 20, 21, 22, 23, 24, 25, 26, 27, 28, 29]",300,179,-1,60,2676,11,0.0
basic,45,13,0,0,0,24,"[0, 24]",2,28,"[1, 2, 3, 4, 5, 6, 7, 8, 9, 10, 11, 12, 13, 14, 15, 16, 17, 18, 19, 20, 21, 22, 23, 25, 26, 27, 28, 29]",288.8196601,1911,1732,16,1444,11,1.0
basic,45,13,0,0,0,28,"[0, 24, 28]",3,23,"[1, 2, 3, 4, 6, 7, 8, 9, 10, 11, 12, 13, 15, 16, 17, 19, 20, 21, 22, 23, 26, 27, 29]",222.5324064,3017,1106,8,243,11,1.0513810491680837
basic,45,13,0,0,0,2,"[0, 24, 28, 2]",4,19,"[1, 3, 4, 6, 7, 9, 11, 12, 13, 15, 16, 17, 19, 20, 21, 23, 26, 27, 29]",184.889346,4466,1449,7,110,11,1.050374132001543
basic,45,13,0,0,0,29,"[0, 24, 28, 2, 29]",5,18,"[1, 3, 4, 6, 7, 9, 11, 12, 13, 15, 16, 17, 19, 20, 21, 23, 26, 27]",173.1846461,6531,2065,7,85,11,1.1393409619120594
basic,45,13,0,0,0,7,"[0, 24, 28, 2, 29, 7]",6,17,"[1, 3, 4, 6, 9, 11, 12, 13, 15, 16, 17, 19, 20, 21, 23, 26, 27]",157.9203086,8026,1495,5,45,11,1.349777315111579
basic,45,13,0,0,0,26,"[0, 24, 28, 2, 29, 7, 26]",7,16,"[1, 3, 4, 6, 9, 11, 12, 13, 15, 16, 17, 19, 20, 21, 23, 27]",147.480002,9267,1241,5,25,11,1.5942082773824946
basic,45,13,0,0,0,6,"[0, 24, 28, 2, 29, 7, 26, 6]",8,12,"[1, 3, 4, 11, 13, 15, 16, 17, 19, 20, 23, 27]",127.3802508,10032,765,4,12,11,1.5898347940840756
basic,45,13,0,0,0,11,"[0, 24, 28, 2, 29, 7, 26, 6, 11]",9,6,"[1, 13, 15, 16, 17, 23]",108.2752776,11432,1400,3,4,11,1.5029953945561012
basic,45,13,0,0,0,17,"[0, 24, 28, 2, 29, 7, 26, 6, 11, 17]",10,1,[13],36.68617231,12950,1518,1,0,11,1.324993060397683
basic,45,13,0,0,1,13,"[0, 24, 28, 2, 29, 7, 26, 6, 11, 17, 13]",11,0,[],3.309533775,14899,1949,1,0,11,1.6349870606446535
basic,45,13,0,1,1,13,"[0, 24, 28, 2, 29, 7, 26, 6, 11, 17, 13]",11,0,[],3.309533775,16243,1344,1,0,11,1.6349870606446535
basic,46,33,0,0,0,0,[0],1,23,"[1, 2, 5, 7, 8, 11, 12, 13, 14, 15, 16, 17, 18, 19, 20, 21, 23, 24, 25, 26, 27, 28, 29]",300,149,-1,5,108,9,0.0
basic,46,33,0,0,0,2,"[0, 2]",2,6,"[11, 13, 17, 20, 21, 29]",108.4745448,4207,4058,1,5,5,1.0
basic,46,33,0,0,0,20,"[0, 2, 20]",3,3,"[11, 17, 29]",57.55303655,5648,1441,1,2,5,1.172939774297112
basic,46,33,0,0,0,11,"[0, 2, 20, 11]",4,1,[29],38.44806337,9467,3819,1,0,5,1.1779706787427942
basic,46,33,0,0,1,29,"[0, 2, 20, 11, 29]",5,0,[],1.23247524,11148,1681,1,0,5,1.420369340815466
basic,46,33,0,1,1,29,"[0, 2, 20, 11, 29]",5,0,[],1.23247524,12001,853,1,0,5,1.420369340815466
basic,47,29,0,0,0,0,[0],1,29,"[1, 2, 3, 4, 5, 6, 7, 8, 9, 10, 11, 12, 13, 14, 15, 16, 17, 18, 19, 20, 21, 22, 23, 24, 25, 26, 27, 28, 29]",300,162,-1,1,78,9,0.0
basic,47,29,0,0,0,1,"[0, 1]",2,17,"[4, 5, 6, 7, 9, 10, 12, 13, 14, 15, 16, 17, 22, 25, 26, 27, 28]",214.2736913,3900,3738,12,79,8,1.0
basic,47,29,0,0,0,14,"[0, 1, 14]",3,15,"[4, 5, 6, 7, 9, 10, 12, 13, 15, 17, 22, 25, 26, 27, 28]",171.3202281,5138,1238,12,45,8,1.4217240517504397
basic,47,29,0,0,0,13,"[0, 1, 14, 13]",4,12,"[4, 5, 6, 7, 9, 12, 17, 22, 25, 26, 27, 28]",153.2924718,6083,945,12,27,8,1.3553272959243952
basic,47,29,0,0,0,5,"[0, 1, 14, 13, 5]",5,10,"[4, 6, 7, 9, 12, 17, 22, 25, 27, 28]",127.5825515,9048,2965,11,13,8,1.3875785126283526
basic,47,29,0,0,0,4,"[0, 1, 14, 13, 5, 4]",6,3,"[7, 9, 12]",75.68842851,10224,1176,2,1,8,1.2760432982302738
basic,47,29,0,0,0,9,"[0, 1, 14, 13, 5, 4, 9]",7,1,[7],34.65185945,10968,744,1,0,8,1.405533199105237
basic,47,29,0,0,1,7,"[0, 1, 14, 13, 5, 4, 9, 7]",8,0,[],5.582975742,12215,1247,1,0,8,1.7903067753418485
basic,47,29,0,1,1,7,"[0, 1, 14, 13, 5, 4, 9, 7]",8,0,[],5.582975742,13243,1028,1,0,8,1.7903067753418485
basic,48,0,0,0,0,0,[0],1,27,"[2, 3, 4, 5, 6, 7, 8, 9, 10, 11, 12, 13, 14, 15, 16, 17, 19, 20, 21, 22, 23, 24, 25, 26, 27, 28, 29]",300,164,-1,104,1136,9,0.0
basic,48,0,0,0,0,20,"[0, 20]",2,25,"[2, 3, 4, 5, 6, 7, 8, 9, 11, 12, 13, 14, 15, 16, 17, 19, 21, 22, 23, 24, 25, 26, 27, 28, 29]",215.4955622,1986,1822,36,372,9,1.0
basic,48,0,0,0,0,5,"[0, 20, 5]",3,22,"[2, 3, 4, 7, 8, 9, 11, 12, 13, 14, 15, 16, 17, 19, 21, 22, 23, 24, 25, 26, 28, 29]",153.2942761,3453,1467,33,251,9,1.0828244018179105
basic,48,0,0,0,0,4,"[0, 20, 5, 4]",4,19,"[2, 3, 7, 8, 9, 11, 12, 13, 14, 15, 17, 19, 21, 22, 23, 24, 25, 26, 28]",128.2144037,4619,1166,21,127,9,1.0973859443611045
basic,48,0,0,0,0,26,"[0, 20, 5, 4, 26]",5,14,"[3, 7, 8, 9, 11, 12, 13, 14, 15, 17, 19, 23, 24, 28]",116.1728091,5769,1150,9,63,9,1.1378617460104323
basic,48,0,0,0,0,24,"[0, 20, 5, 4, 26, 24]",6,11,"[3, 7, 8, 9, 11, 12, 15, 17, 19, 23, 28]",99.05556633,7188,1419,9,24,9,1.204469953325506
basic,48,0,0,0,0,15,"[0, 20, 5, 4, 26, 24, 15]",7,8,"[3, 7, 8, 9, 11, 12, 17, 19]",75.71033127,8905,1717,5,6,9,1.1865351459643638
basic,48,0,0,0,0,7,"[0, 20, 5, 4, 26, 24, 15, 7]",8,2,"[3, 8]",44.64588214,10476,1571,2,0,9,1.2455705670301183
basic,48,0,0,0,1,8,"[0, 20, 5, 4, 26, 24, 15, 7, 8]",9,0,[],25.54090896,14447,3971,1,0,9,1.2337265013393985
basic,48,0,0,1,1,8,"[0, 20, 5, 4, 26, 24, 15, 7, 8]",9,0,[],25.54090896,16279,1832,1,0,9,1.2337265013393985
basic,49,37,0,0,0,0,[0],1,29,"[1, 2, 3, 4, 5, 6, 7, 8, 9, 10, 11, 12, 13, 14, 15, 16, 17, 18, 19, 20, 21, 22, 23, 24, 25, 26, 27, 28, 29]",300,147,-1,6,168,10,0.0
basic,49,37,0,0,0,9,"[0, 9]",2,28,"[1, 2, 3, 4, 5, 6, 7, 8, 10, 11, 12, 13, 14, 15, 16, 17, 18, 19, 20, 21, 22, 23, 24, 25, 26, 27, 28, 29]",275.7925631,2751,2604,45,289,9,1.0
basic,49,37,0,0,0,18,"[0, 9, 18]",3,15,"[1, 2, 4, 6, 7, 10, 15, 17, 19, 20, 21, 22, 26, 28, 29]",172.2068498,5355,2604,33,160,9,1.3094770236215172
basic,49,37,0,0,0,7,"[0, 9, 18, 7]",4,9,"[1, 2, 4, 15, 19, 20, 21, 22, 26]",145.0406944,6726,1371,17,59,9,1.293395038406712
basic,49,37,0,0,0,22,"[0, 9, 18, 7, 22]",5,7,"[1, 2, 4, 15, 19, 20, 21]",95.04069441,8020,1294,6,17,9,1.2585327043140475
basic,49,37,0,0,0,4,"[0, 9, 18, 7, 22, 4]",6,5,"[1, 2, 15, 20, 21]",70.04069441,9470,1450,4,7,9,1.4148462251829255
basic,49,37,0,0,0,2,"[0, 9, 18, 7, 22, 4, 2]",7,3,"[1, 15, 20]",58.63894016,10803,1333,2,2,9,1.5965980495342236
basic,49,37,0,0,0,1,"[0, 9, 18, 7, 22, 4, 2, 1]",8,2,"[15, 20]",41.43428963,12008,1205,2,0,9,1.6331913686535429
basic,49,37,0,0,1,20,"[0, 9, 18, 7, 22, 4, 2, 1, 20]",9,0,[],7.199804089,13870,1862,1,0,9,1.9533474092172471
basic,49,37,0,1,1,20,"[0, 9, 18, 7, 22, 4, 2, 1, 20]",9,0,[],7.199804089,14966,1096,1,0,9,1.9533474092172471
basic,50,5,0,0,0,0,[0],1,29,"[1, 2, 3, 4, 5, 6, 7, 8, 9, 10, 11, 12, 13, 14, 15, 16, 17, 18, 19, 20, 21, 22, 23, 24, 25, 26, 27, 28, 29]",300,178,-1,5,139,9,0.0
basic,50,5,0,0,0,12,"[0, 12]",2,22,"[2, 4, 5, 6, 8, 9, 10, 13, 14, 15, 16, 17, 18, 19, 21, 22, 23, 24, 25, 26, 27, 28]",228.3062067,2174,1996,1,27,9,1.0
basic,50,5,0,0,0,25,"[0, 12, 25]",3,21,"[2, 4, 5, 6, 8, 9, 10, 13, 14, 15, 16, 17, 18, 19, 21, 22, 23, 24, 26, 27, 28]",200.5213187,4693,2519,1,20,9,1.584023303445617
basic,50,5,0,0,0,23,"[0, 12, 25, 23]",4,19,"[2, 4, 5, 6, 8, 9, 10, 13, 14, 15, 16, 17, 18, 19, 21, 22, 24, 26, 27]",182.0822298,7413,2720,1,14,9,2.3508446989254357
basic,50,5,0,0,0,24,"[0, 12, 25, 23, 24]",5,15,"[2, 4, 5, 6, 8, 9, 13, 14, 15, 17, 18, 19, 22, 26, 27]",158.995437,8300,887,1,12,9,1.9469752046288753
basic,50,5,0,0,0,17,"[0, 12, 25, 23, 24, 17]",6,7,"[4, 5, 6, 8, 15, 18, 19]",124.0097257,9706,1406,1,8,9,1.6482276497563642
basic,50,5,0,0,0,5,"[0, 12, 25, 23, 24, 17, 5]",7,4,"[4, 6, 15, 18]",80.96323916,11554,1848,1,3,9,1.4654649104389412
basic,50,5,0,0,1,15,"[0, 12, 25, 23, 24, 17, 5, 15]",8,0,[],40.93824697,12566,1012,1,0,8,1.4660376450939663
basic,50,5,0,1,1,15,"[0, 12, 25, 23, 24, 17, 5, 15]",8,0,[],40.93824697,13813,1247,1,0,8,1.4660376450939663
basic,51,7,0,0,0,0,[0],1,29,"[1, 2, 3, 4, 5, 6, 7, 8, 9, 10, 11, 12, 13, 14, 15, 16, 17, 18, 19, 20, 21, 22, 23, 24, 25, 26, 27, 28, 29]",300,228,-1,3,79,9,0.0
basic,51,7,0,0,0,15,"[0, 15]",2,19,"[2, 4, 5, 6, 7, 8, 9, 10, 13, 14, 16, 18, 19, 20, 21, 23, 25, 27, 28]",230.9348134,3300,3072,2,38,9,1.0
basic,51,7,0,0,0,6,"[0, 15, 6]",3,18,"[2, 4, 5, 7, 8, 9, 10, 13, 14, 16, 18, 19, 20, 21, 23, 25, 27, 28]",205.854941,4836,1536,2,36,9,1.366719602896943
basic,51,7,0,0,0,4,"[0, 15, 6, 4]",4,8,"[2, 7, 13, 16, 18, 19, 20, 25]",123.3625171,6309,1473,8,24,8,1.2578516160075839
basic,51,7,0,0,0,25,"[0, 15, 6, 4, 25]",5,6,"[7, 13, 16, 18, 19, 20]",98.62388334,7723,1414,2,4,8,1.7007244483303274
basic,51,7,0,0,0,20,"[0, 15, 6, 4, 25, 20]",6,3,"[7, 18, 19]",66.84338618,9793,2070,1,2,8,1.5552762892917555
basic,51,7,0,0,0,18,"[0, 15, 6, 4, 25, 20, 18]",7,1,[7],54.03713771,11564,1771,1,0,8,1.7179629516902586
basic,51,7,0,0,1,7,"[0, 15, 6, 4, 25, 20, 18, 7]",8,0,[],12.80608145,13372,1808,1,0,8,1.5699048673149887
basic,51,7,0,1,1,7,"[0, 15, 6, 4, 25, 20, 18, 7]",8,0,[],12.80608145,14046,674,1,0,8,1.5699048673149887
basic,52,21,0,0,0,0,[0],1,29,"[1, 2, 3, 4, 5, 6, 7, 8, 9, 10, 11, 12, 13, 14, 15, 16, 17, 18, 19, 20, 21, 22, 23, 24, 25, 26, 27, 28, 29]",300,212,-1,84,830,9,0.0
basic,52,21,0,0,0,21,"[0, 21]",2,22,"[1, 3, 4, 6, 8, 9, 10, 11, 12, 14, 15, 16, 17, 18, 20, 22, 23, 24, 25, 26, 27, 29]",210.1111798,3809,3597,1,69,9,1.0
basic,52,21,0,0,0,14,"[0, 21, 14]",3,15,"[1, 4, 6, 8, 9, 15, 16, 17, 18, 20, 22, 23, 24, 25, 29]",184.4986828,4928,1119,35,96,8,1.0083702391721483
basic,52,21,0,0,0,4,"[0, 21, 14, 4]",4,13,"[1, 8, 9, 15, 16, 17, 18, 20, 22, 23, 24, 25, 29]",170.3565472,7792,2864,20,39,8,1.0135821167776475
basic,52,21,0,0,0,16,"[0, 21, 14, 4, 16]",5,7,"[8, 15, 17, 23, 24, 25, 29]",125.758341,9864,2072,4,6,8,1.0675217597413178
basic,52,21,0,0,0,8,"[0, 21, 14, 4, 16, 8]",6,3,"[15, 23, 24]",107.1572657,11622,1758,3,1,8,1.0643903127717425
basic,52,21,0,0,0,15,"[0, 21, 14, 4, 16, 8, 15]",7,2,"[23, 24]",82.15726573,12885,1263,2,0,8,1.29402645910376
basic,52,21,0,0,1,24,"[0, 21, 14, 4, 16, 8, 15, 24]",8,0,[],36.4516862,14365,1480,1,0,8,1.3251667405154008
basic,52,21,0,1,1,24,"[0, 21, 14, 4, 16, 8, 15, 24]",8,0,[],36.4516862,15342,977,1,0,8,1.3251667405154008
basic,53,26,0,0,0,0,[0],1,29,"[1, 2, 3, 4, 5, 6, 7, 8, 9, 10, 11, 12, 13, 14, 15, 16, 17, 18, 19, 20, 21, 22, 23, 24, 25, 26, 27, 28, 29]",300,165,-1,9,226,9,0.0
basic,53,26,0,0,0,21,"[0, 21]",2,25,"[2, 3, 4, 5, 6, 7, 8, 10, 11, 12, 13, 14, 15, 16, 17, 18, 19, 22, 23, 24, 25, 26, 27, 28, 29]",211.1349337,1936,1771,7,90,9,1.0
basic,53,26,0,0,0,13,"[0, 21, 13]",3,21,"[3, 4, 5, 6, 7, 8, 10, 11, 12, 14, 15, 16, 17, 18, 19, 22, 23, 24, 25, 26, 29]",188.9989901,3637,1701,6,45,9,1.0103952279992225
basic,53,26,0,0,0,5,"[0, 21, 13, 5]",4,12,"[3, 4, 11, 14, 16, 17, 18, 22, 23, 25, 26, 29]",150.7106107,4368,731,2,10,8,1.0086890649024711
basic,53,26,0,0,0,23,"[0, 21, 13, 5, 23]",5,8,"[3, 4, 11, 14, 16, 17, 22, 29]",118.0150452,5351,983,2,7,8,1.3518621918690494
basic,53,26,0,0,0,16,"[0, 21, 13, 5, 23, 16]",6,4,"[4, 14, 17, 29]",64.77971862,8206,2855,2,3,8,2.1011863559657242
basic,53,26,0,0,0,29,"[0, 21, 13, 5, 23, 16, 29]",7,2,"[4, 17]",40.57228175,9202,996,2,0,8,2.123178325538451
basic,53,26,0,0,1,4,"[0, 21, 13, 5, 23, 16, 29, 4]",8,0,[],16.57228175,10689,1487,1,0,8,2.338467952972574
basic,53,26,0,1,1,4,"[0, 21, 13, 5, 23, 16, 29, 4]",8,0,[],16.57228175,12032,1343,1,0,8,2.338467952972574
basic,54,25,0,0,0,0,[0],1,28,"[1, 2, 3, 4, 5, 7, 8, 9, 10, 11, 12, 13, 14, 15, 16, 17, 18, 19, 20, 21, 22, 23, 24, 25, 26, 27, 28, 29]",300,147,-1,5,94,10,0.0
basic,54,25,0,0,0,23,"[0, 23]",2,23,"[1, 2, 3, 5, 7, 8, 9, 11, 12, 13, 14, 16, 17, 19, 20, 21, 22, 24, 25, 26, 27, 28, 29]",259.7756293,2178,2031,3,33,10,1.0
basic,54,25,0,0,0,19,"[0, 23, 19]",3,21,"[1, 2, 3, 5, 7, 8, 9, 11, 12, 13, 14, 16, 17, 20, 21, 22, 24, 25, 27, 28, 29]",223.9287326,3356,1178,3,24,10,1.583101227007039
basic,54,25,0,0,0,29,"[0, 23, 19, 29]",4,19,"[1, 2, 3, 5, 7, 8, 9, 11, 12, 13, 14, 16, 17, 20, 21, 22, 24, 25, 28]",207.649912,4191,835,3,17,10,1.474631541426484
basic,54,25,0,0,0,22,"[0, 23, 19, 29, 22]",5,18,"[1, 2, 3, 5, 7, 8, 9, 11, 12, 13, 14, 16, 17, 20, 21, 24, 25, 28]",191.5253965,4812,621,3,14,10,1.4020377754906637
basic,54,25,0,0,0,7,"[0, 23, 19, 29, 22, 7]",6,7,"[3, 8, 9, 11, 13, 24, 28]",115.8814939,5625,813,3,11,10,1.5709678649326715
basic,54,25,0,0,0,24,"[0, 23, 19, 29, 22, 7, 24]",7,5,"[3, 8, 9, 13, 28]",91.12265712,6810,1185,3,7,10,1.486191600033379
basic,54,25,0,0,0,9,"[0, 23, 19, 29, 22, 7, 24, 9]",8,4,"[3, 8, 13, 28]",73.09490075,7552,742,3,3,10,1.453504870342882
basic,54,25,0,0,0,3,"[0, 23, 19, 29, 22, 7, 24, 9, 3]",9,3,"[8, 13, 28]",42.82940885,9167,1615,3,0,10,1.388955167525479
basic,54,25,0,0,1,28,"[0, 23, 19, 29, 22, 7, 24, 9, 3, 28]",10,0,[],11.52445716,10356,1189,1,0,10,1.3331084120212044
basic,54,25,0,1,1,28,"[0, 23, 19, 29, 22, 7, 24, 9, 3, 28]",10,0,[],11.52445716,11196,840,1,0,10,1.3331084120212044
basic,55,1,0,0,0,0,[0],1,26,"[1, 2, 4, 5, 7, 8, 9, 10, 11, 12, 13, 14, 15, 16, 17, 18, 19, 20, 21, 22, 23, 24, 25, 26, 28, 29]",300,197,-1,6,74,7,0.0
basic,55,1,0,0,0,14,"[0, 14]",2,19,"[1, 4, 5, 8, 9, 13, 15, 17, 18, 19, 20, 21, 22, 23, 24, 25, 26, 28, 29]",200.1901808,3367,3170,5,42,7,1.0
basic,55,1,0,0,0,17,"[0, 14, 17]",3,15,"[1, 4, 5, 8, 9, 13, 15, 18, 19, 20, 22, 23, 25, 28, 29]",147.8356204,4651,1284,5,27,7,1.0028844724416826
basic,55,1,0,0,0,20,"[0, 14, 17, 20]",4,5,"[4, 5, 8, 18, 29]",79.42509489,17452,12801,3,3,6,1.2972077151057804
basic,55,1,0,0,0,5,"[0, 14, 17, 20, 5]",5,1,[18],57.95418433,18344,892,1,0,6,1.2923132195161702
basic,55,1,0,0,1,18,"[0, 14, 17, 20, 5, 18]",6,0,[],35.12875991,21150,2806,1,0,6,1.3149712096478787
basic,55,1,0,1,1,18,"[0, 14, 17, 20, 5, 18]",6,0,[],35.12875991,22563,1413,1,0,6,1.3149712096478787
basic,56,14,0,0,0,0,[0],1,29,"[1, 2, 3, 4, 5, 6, 7, 8, 9, 10, 11, 12, 13, 14, 15, 16, 17, 18, 19, 20, 21, 22, 23, 24, 25, 26, 27, 28, 29]",300,162,-1,8,157,10,0.0
basic,56,14,0,0,0,15,"[0, 15]",2,20,"[1, 2, 3, 4, 7, 8, 9, 13, 17, 18, 19, 20, 21, 22, 23, 25, 26, 27, 28, 29]",216.7053423,6260,6098,8,102,10,1.0
basic,56,14,0,0,0,28,"[0, 15, 28]",3,17,"[1, 2, 3, 4, 7, 8, 9, 13, 17, 18, 19, 20, 22, 23, 25, 26, 27]",197.4959696,7587,1327,8,48,10,1.0446007867311968
basic,56,14,0,0,0,17,"[0, 15, 28, 17]",4,14,"[1, 2, 3, 4, 7, 8, 13, 18, 19, 20, 22, 23, 25, 26]",184.0423455,8936,1349,8,39,10,1.0729463354689972
basic,56,14,0,0,0,18,"[0, 15, 28, 17, 18]",5,9,"[1, 2, 4, 7, 8, 19, 23, 25, 26]",119.412631,10349,1413,8,27,10,1.5035901079219378
basic,56,14,0,0,0,8,"[0, 15, 28, 17, 18, 8]",6,8,"[1, 2, 4, 7, 19, 23, 25, 26]",105.8111605,11628,1279,8,18,10,1.4819689987843856
basic,56,14,0,0,0,19,"[0, 15, 28, 17, 18, 8, 19]",7,5,"[1, 7, 23, 25, 26]",85.19563238,12682,1054,4,9,10,1.4526746797093781
basic,56,14,0,0,0,1,"[0, 15, 28, 17, 18, 8, 19, 1]",8,4,"[7, 23, 25, 26]",69.96408617,14247,1565,3,1,10,1.4876985459270997
basic,56,14,0,0,0,23,"[0, 15, 28, 17, 18, 8, 19, 1, 23]",9,1,[26],21.96408617,15560,1313,1,0,10,1.4791446279021185
basic,56,14,0,0,1,26,"[0, 15, 28, 17, 18, 8, 19, 1, 23, 26]",10,0,[],11.14743235,17369,1809,1,0,10,1.4559204757247275
basic,56,14,0,1,1,26,"[0, 15, 28, 17, 18, 8, 19, 1, 23, 26]",10,0,[],11.14743235,18111,742,1,0,10,1.4559204757247275
basic,57,42,0,0,0,0,[0],1,29,"[1, 2, 3, 4, 5, 6, 7, 8, 9, 10, 11, 12, 13, 14, 15, 16, 17, 18, 19, 20, 21, 22, 23, 24, 25, 26, 27, 28, 29]",300,162,-1,16,302,9,0.0
basic,57,42,0,0,0,3,"[0, 3]",2,25,"[1, 2, 4, 5, 6, 7, 8, 9, 10, 11, 13, 15, 17, 18, 19, 20, 21, 22, 23, 24, 25, 26, 27, 28, 29]",255.7959278,3417,3255,3,45,9,1.0
basic,57,42,0,0,0,4,"[0, 3, 4]",3,23,"[1, 2, 5, 6, 7, 8, 9, 10, 11, 13, 15, 17, 18, 19, 20, 21, 22, 23, 24, 25, 26, 27, 29]",165.3691618,4802,1385,1,16,9,1.4881105916904676
basic,57,42,0,0,0,22,"[0, 3, 4, 22]",4,19,"[1, 2, 5, 6, 7, 8, 11, 15, 17, 18, 19, 20, 21, 23, 24, 25, 26, 27, 29]",154.188822,6332,1530,1,11,9,1.645720163725504
basic,57,42,0,0,0,8,"[0, 3, 4, 22, 8]",5,13,"[1, 2, 5, 7, 11, 15, 18, 19, 24, 25, 26, 27, 29]",132.0528783,7906,1574,1,8,9,1.5620453854161471
basic,57,42,0,0,0,1,"[0, 3, 4, 22, 8, 1]",6,6,"[2, 5, 7, 19, 26, 27]",82.9611275,10223,2317,1,7,9,1.3937396431284002
basic,57,42,0,0,0,7,"[0, 3, 4, 22, 8, 1, 7]",7,4,"[2, 19, 26, 27]",52.9611275,12366,2143,1,3,9,1.4260419415276828
basic,57,42,0,0,0,26,"[0, 3, 4, 22, 8, 1, 7, 26]",8,1,[27],26.39046699,14387,2021,1,0,9,1.3818663283333334
basic,57,42,0,0,1,27,"[0, 3, 4, 22, 8, 1, 7, 26, 27]",9,0,[],8.362710609,15832,1445,1,0,9,1.3676826940488238
basic,57,42,0,1,1,27,"[0, 3, 4, 22, 8, 1, 7, 26, 27]",9,0,[],8.362710609,16660,828,1,0,9,1.3676826940488238
basic,58,3,0,0,0,0,[0],1,29,"[1, 2, 3, 4, 5, 6, 7, 8, 9, 10, 11, 12, 13, 14, 15, 16, 17, 18, 19, 20, 21, 22, 23, 24, 25, 26, 27, 28, 29]",300,165,-1,34,427,10,0.0
basic,58,3,0,0,0,24,"[0, 24]",2,27,"[1, 2, 3, 4, 5, 6, 7, 8, 9, 10, 11, 12, 13, 14, 15, 16, 17, 18, 19, 20, 21, 22, 25, 26, 27, 28, 29]",241.1442441,1626,1461,1,40,10,1.0
basic,58,3,0,0,0,17,"[0, 24, 17]",3,13,"[3, 4, 7, 8, 10, 14, 15, 16, 19, 20, 21, 22, 27]",171.7900806,5669,4043,4,33,9,1.2532313834613698
basic,58,3,0,0,0,20,"[0, 24, 17, 20]",4,10,"[3, 4, 7, 8, 10, 14, 15, 16, 19, 21]",159.1409699,6628,959,4,21,9,1.2441552028909786
basic,58,3,0,0,0,3,"[0, 24, 17, 20, 3]",5,8,"[4, 7, 8, 10, 14, 16, 19, 21]",138.7448919,7577,949,4,12,9,1.2890100688984463
basic,58,3,0,0,0,19,"[0, 24, 17, 20, 3, 19]",6,5,"[4, 8, 10, 14, 21]",101.4085825,8569,992,2,5,9,1.3456482099334586
basic,58,3,0,0,0,21,"[0, 24, 17, 20, 3, 19, 21]",7,3,"[4, 10, 14]",89.20202687,9490,921,2,2,9,1.3708715753541716
basic,58,3,0,0,0,14,"[0, 24, 17, 20, 3, 19, 21, 14]",8,2,"[4, 10]",62.29477877,11154,1664,2,0,9,1.8468983830159784
basic,58,3,0,0,1,10,"[0, 24, 17, 20, 3, 19, 21, 14, 10]",9,0,[],16.84150606,12424,1270,1,0,9,1.7983120465283395
basic,58,3,0,1,1,10,"[0, 24, 17, 20, 3, 19, 21, 14, 10]",9,0,[],16.84150606,13114,690,1,0,9,1.7983120465283395
basic,59,22,0,0,0,0,[0],1,29,"[1, 2, 3, 4, 5, 6, 7, 8, 9, 10, 11, 12, 13, 14, 15, 16, 17, 18, 19, 20, 21, 22, 23, 24, 25, 26, 27, 28, 29]",300,196,-1,31,704,9,0.0
basic,59,22,0,0,0,16,"[0, 16]",2,21,"[1, 3, 6, 7, 8, 9, 11, 13, 14, 15, 17, 18, 19, 20, 21, 22, 24, 25, 27, 28, 29]",218.605897,1577,1381,17,147,9,1.0
basic,59,22,0,0,0,28,"[0, 16, 28]",3,13,"[6, 7, 9, 13, 14, 17, 19, 20, 21, 22, 24, 25, 29]",184.1675463,3150,1573,12,61,9,1.047282311284478
basic,59,22,0,0,0,6,"[0, 16, 28, 6]",4,12,"[7, 9, 13, 14, 17, 19, 20, 21, 22, 24, 25, 29]",154.1675463,5144,1994,12,43,9,1.645645870580622
basic,59,22,0,0,0,9,"[0, 16, 28, 6, 9]",5,8,"[7, 14, 17, 19, 20, 21, 24, 29]",127.5404924,7117,1973,8,17,9,1.925750226630103
basic,59,22,0,0,0,19,"[0, 16, 28, 6, 9, 19]",6,6,"[7, 14, 17, 21, 24, 29]",107.1444143,9033,1916,3,7,9,2.4220750331476455
basic,59,22,0,0,0,29,"[0, 16, 28, 6, 9, 19, 29]",7,4,"[7, 14, 17, 24]",92.11111796,9799,766,2,2,9,2.6996279574991067
basic,59,22,0,0,0,14,"[0, 16, 28, 6, 9, 19, 29, 14]",8,1,[7],33.86165444,11666,1867,1,0,9,2.0544639927929462
basic,59,22,0,0,1,7,"[0, 16, 28, 6, 9, 19, 29, 14, 7]",9,0,[],20.82324963,13243,1577,1,0,9,2.219817088951114
basic,59,22,0,1,1,7,"[0, 16, 28, 6, 9, 19, 29, 14, 7]",9,0,[],20.82324963,13911,668,1,0,9,2.219817088951114
basic,60,41,0,0,0,0,[0],1,29,"[1, 2, 3, 4, 5, 6, 7, 8, 9, 10, 11, 12, 13, 14, 15, 16, 17, 18, 19, 20, 21, 22, 23, 24, 25, 26, 27, 28, 29]",300,163,-1,1,143,10,0.0
basic,60,41,0,0,0,13,"[0, 13]",2,23,"[1, 2, 3, 5, 6, 7, 9, 10, 11, 12, 14, 15, 17, 18, 19, 20, 21, 22, 24, 25, 26, 27, 28]",258.2747079,1817,1654,1,55,10,1.0
basic,60,41,0,0,0,28,"[0, 13, 28]",3,22,"[1, 2, 3, 5, 6, 7, 9, 10, 11, 12, 14, 15, 17, 18, 19, 20, 21, 22, 24, 25, 26, 27]",223.7928286,2806,989,1,39,10,1.895724242592676
basic,60,41,0,0,0,5,"[0, 13, 28, 5]",4,19,"[1, 2, 3, 6, 9, 10, 11, 12, 14, 15, 17, 18, 19, 20, 21, 22, 24, 25, 27]",210.1913581,4818,2012,1,34,10,2.861541269398273
basic,60,41,0,0,0,3,"[0, 13, 28, 5, 3]",5,16,"[1, 2, 6, 9, 10, 12, 14, 17, 18, 19, 20, 21, 22, 24, 25, 27]",175.3632086,6921,2103,1,22,10,3.1455488489005883
basic,60,41,0,0,0,21,"[0, 13, 28, 5, 3, 21]",6,14,"[1, 2, 6, 9, 10, 12, 14, 17, 18, 19, 20, 22, 25, 27]",143.2228912,8223,1302,13,11,9,3.207558429289677
basic,60,41,0,0,0,9,"[0, 13, 28, 5, 3, 21, 9]",7,6,"[1, 2, 10, 12, 14, 17]",93.85691102,9417,1194,7,4,9,2.5050148501792275
basic,60,41,0,0,0,2,"[0, 13, 28, 5, 3, 21, 9, 2]",8,5,"[1, 10, 12, 14, 17]",81.77386505,11007,1590,5,0,9,2.4119643847713177
basic,60,41,0,0,1,17,"[0, 13, 28, 5, 3, 21, 9, 2, 17]",9,0,[],49.21622385,12104,1097,1,0,9,3.9563478735796007
basic,60,41,0,1,1,17,"[0, 13, 28, 5, 3, 21, 9, 2, 17]",9,0,[],49.21622385,13211,1107,1,0,9,3.9563478735796007
basic,61,2,0,0,0,0,[0],1,23,"[1, 2, 4, 5, 6, 7, 8, 9, 12, 13, 15, 16, 17, 18, 19, 20, 22, 23, 25, 26, 27, 28, 29]",300,215,-1,70,620,10,0.0
basic,61,2,0,0,0,19,"[0, 19]",2,22,"[1, 2, 4, 5, 6, 7, 8, 9, 12, 13, 15, 16, 17, 18, 20, 22, 23, 25, 26, 27, 28, 29]",210.306076,2209,1994,67,431,10,1.0
basic,61,2,0,0,0,12,"[0, 19, 12]",3,17,"[1, 4, 5, 6, 7, 13, 15, 16, 17, 18, 20, 22, 25, 26, 27, 28, 29]",174.2921898,3995,1786,66,298,10,1.1107635036313153
basic,61,2,0,0,0,5,"[0, 19, 12, 5]",4,11,"[1, 6, 7, 13, 15, 16, 18, 22, 25, 26, 29]",144.7625437,5420,1425,38,136,10,1.0968174771581647
basic,61,2,0,0,0,22,"[0, 19, 12, 5, 22]",5,8,"[1, 6, 7, 13, 15, 18, 26, 29]",131.9562952,6110,690,20,63,10,1.0889910507461968
basic,61,2,0,0,0,13,"[0, 19, 12, 5, 22, 13]",6,7,"[1, 6, 7, 15, 18, 26, 29]",117.0902265,8825,2715,19,20,10,1.236526217328057
