condition,trial_id,map_id,undoIndicator,submit,checkEnd,currentChoice,chosen_all,n_city_all,n_within_reach,cities_reach,currentBudget,time_all,rt_all,n_opt_paths_all,n_subopt_paths_all,mas_all,tortuosity_all
basic,0,37,0,0,0,0,[0],1,29,"[1, 2, 3, 4, 5, 6, 7, 8, 9, 10, 11, 12, 13, 14, 15, 16, 17, 18, 19, 20, 21, 22, 23, 24, 25, 26, 27, 28, 29]",300,142,-1,6,168,10,0.0
basic,0,37,0,0,0,9,"[0, 9]",2,28,"[1, 2, 3, 4, 5, 6, 7, 8, 10, 11, 12, 13, 14, 15, 16, 17, 18, 19, 20, 21, 22, 23, 24, 25, 26, 27, 28, 29]",275.7925631,18635,18493,45,289,9,1.0
basic,0,37,0,0,0,12,"[0, 9, 12]",3,12,"[5, 6, 7, 8, 10, 13, 14, 16, 17, 18, 23, 28]",194.0490619,19988,1353,10,13,6,1.0254170250851105
basic,0,37,0,0,0,16,"[0, 9, 12, 16]",4,4,"[8, 13, 14, 23]",136.0404418,21317,1329,3,2,6,1.1137230906502282
basic,0,37,0,0,0,13,"[0, 9, 12, 16, 13]",5,1,[8],106.4938684,22433,1116,1,0,6,1.1048297662184086
basic,0,37,0,0,1,8,"[0, 9, 12, 16, 13, 8]",6,0,[],76.41065049,25360,2927,1,0,6,1.4980377585122178
basic,0,37,0,1,1,8,"[0, 9, 12, 16, 13, 8]",6,0,[],76.41065049,27735,2375,1,0,6,1.4980377585122178
basic,1,27,0,0,0,0,[0],1,26,"[1, 3, 5, 6, 7, 8, 9, 10, 11, 12, 13, 14, 15, 16, 17, 18, 19, 21, 22, 23, 24, 25, 26, 27, 28, 29]",300,143,-1,13,578,11,0.0
basic,1,27,0,0,0,15,"[0, 15]",2,24,"[1, 3, 5, 6, 7, 8, 9, 10, 11, 12, 13, 14, 16, 17, 18, 19, 21, 22, 23, 24, 25, 26, 27, 29]",263.7508621,7028,6885,6,219,11,1.0
basic,1,27,0,0,0,24,"[0, 15, 24]",3,20,"[1, 5, 6, 7, 8, 9, 10, 12, 13, 14, 16, 17, 18, 19, 21, 23, 25, 26, 27, 29]",246.5462115,7882,854,6,130,11,1.130933077698322
basic,1,27,0,0,0,17,"[0, 15, 24, 17]",4,15,"[1, 6, 8, 10, 12, 13, 14, 16, 18, 19, 23, 25, 26, 27, 29]",229.9932662,9209,1327,4,60,11,1.1285538435963374
basic,1,27,0,0,0,12,"[0, 15, 24, 17, 12]",5,14,"[1, 6, 8, 10, 13, 14, 16, 18, 19, 23, 25, 26, 27, 29]",218.8129263,10026,817,2,32,11,1.2561880288755216
basic,1,27,0,0,0,10,"[0, 15, 24, 17, 12, 10]",6,11,"[1, 8, 13, 14, 18, 19, 23, 25, 26, 27, 29]",207.7675653,10875,849,2,28,11,1.2228289337766665
basic,1,27,0,0,0,13,"[0, 15, 24, 17, 12, 10, 13]",7,9,"[1, 8, 14, 18, 19, 23, 26, 27, 29]",167.9178476,11763,888,2,18,11,1.3421291994761178
basic,1,27,0,0,0,19,"[0, 15, 24, 17, 12, 10, 13, 19]",8,5,"[1, 8, 14, 23, 29]",131.6825057,12823,1060,2,6,11,1.294749956153846
basic,1,27,0,0,0,8,"[0, 15, 24, 17, 12, 10, 13, 19, 8]",9,3,"[14, 23, 29]",116.816437,13988,1165,2,1,11,1.3554286578836865
basic,1,27,0,0,0,14,"[0, 15, 24, 17, 12, 10, 13, 19, 8, 14]",10,1,[29],59.25777126,16652,2664,1,0,11,1.312380420632942
basic,1,27,0,1,0,14,"[0, 15, 24, 17, 12, 10, 13, 19, 8, 14]",10,1,[29],59.25777126,18027,1375,1,0,11,1.312380420632942
basic,2,30,0,0,0,0,[0],1,19,"[3, 4, 5, 7, 9, 11, 16, 17, 18, 19, 20, 21, 22, 24, 25, 26, 27, 28, 29]",300,158,-1,5,41,8,0.0
basic,2,30,0,0,0,16,"[0, 16]",2,17,"[3, 5, 7, 9, 11, 17, 18, 19, 20, 21, 22, 24, 25, 26, 27, 28, 29]",219.3774225,3100,2942,5,34,8,1.0
basic,2,30,0,0,0,26,"[0, 16, 26]",3,8,"[9, 11, 17, 20, 22, 25, 27, 28]",176.927452,4516,1416,7,3,5,1.3420329969668985
basic,2,30,0,0,0,17,"[0, 16, 26, 17]",4,1,[22],74.96177146,5997,1481,1,0,5,1.193219858893313
basic,2,30,0,0,1,22,"[0, 16, 26, 17, 22]",5,0,[],55.7263874,7594,1597,1,0,5,1.223925680162388
basic,2,30,0,1,1,22,"[0, 16, 26, 17, 22]",5,0,[],55.7263874,10567,2973,1,0,5,1.223925680162388
basic,3,3,0,0,0,0,[0],1,29,"[1, 2, 3, 4, 5, 6, 7, 8, 9, 10, 11, 12, 13, 14, 15, 16, 17, 18, 19, 20, 21, 22, 23, 24, 25, 26, 27, 28, 29]",300,161,-1,34,427,10,0.0
basic,3,3,0,0,0,7,"[0, 7]",2,28,"[1, 2, 3, 4, 5, 6, 8, 9, 10, 11, 12, 13, 14, 15, 16, 17, 18, 19, 20, 21, 22, 23, 24, 25, 26, 27, 28, 29]",278.8103799,5034,4873,24,215,10,1.0
basic,3,3,0,0,0,8,"[0, 7, 8]",3,24,"[1, 2, 3, 4, 5, 6, 10, 11, 12, 13, 14, 15, 16, 17, 18, 19, 20, 21, 22, 24, 25, 26, 27, 28]",222.837172,6779,1745,16,114,10,1.2853332575451413
basic,3,3,0,0,0,24,"[0, 7, 8, 24]",4,21,"[1, 3, 4, 5, 6, 10, 11, 12, 14, 15, 16, 17, 18, 19, 20, 21, 22, 25, 26, 27, 28]",210.671647,7735,956,16,91,10,1.5177505014936548
basic,3,3,0,0,0,14,"[0, 7, 8, 24, 14]",5,7,"[3, 4, 10, 17, 19, 20, 21]",139.5590602,9693,1958,4,18,10,1.2465780547557723
basic,3,3,0,0,0,21,"[0, 7, 8, 24, 14, 21]",6,6,"[3, 4, 10, 17, 19, 20]",112.6518121,11944,2251,2,7,10,1.2183717977583874
basic,3,3,0,0,0,19,"[0, 7, 8, 24, 14, 21, 19]",7,5,"[3, 4, 10, 17, 20]",100.4452565,13124,1180,2,4,10,1.3521756718137403
basic,3,3,0,0,0,3,"[0, 7, 8, 24, 14, 21, 19, 3]",8,2,"[17, 20]",63.10894706,14163,1039,2,0,10,1.8936141376820974
basic,3,3,0,1,0,3,"[0, 7, 8, 24, 14, 21, 19, 3]",8,2,"[17, 20]",63.10894706,15147,984,2,0,10,1.8936141376820974
basic,4,22,0,0,0,0,[0],1,29,"[1, 2, 3, 4, 5, 6, 7, 8, 9, 10, 11, 12, 13, 14, 15, 16, 17, 18, 19, 20, 21, 22, 23, 24, 25, 26, 27, 28, 29]",300,160,-1,31,704,9,0.0
basic,4,22,0,0,0,29,"[0, 29]",2,22,"[1, 3, 5, 6, 7, 8, 9, 11, 13, 14, 15, 16, 17, 19, 20, 21, 22, 23, 24, 25, 27, 28]",222.9935068,8231,8071,11,235,9,1.0
basic,4,22,0,0,0,19,"[0, 29, 19]",3,18,"[1, 3, 6, 7, 8, 9, 13, 14, 15, 16, 17, 20, 21, 22, 23, 24, 25, 28]",207.9602104,8963,732,11,172,9,1.1559285443414686
basic,4,22,0,0,0,9,"[0, 29, 19, 9]",4,16,"[1, 3, 6, 7, 8, 13, 14, 15, 16, 17, 20, 21, 22, 24, 25, 28]",187.5641323,10143,1180,7,84,9,1.2555028175473422
basic,4,22,0,0,0,6,"[0, 29, 19, 9, 6]",5,13,"[3, 7, 13, 14, 15, 16, 17, 20, 21, 22, 24, 25, 28]",160.9370784,11127,984,17,16,8,1.5692551066355458
basic,4,22,0,0,0,16,"[0, 29, 19, 9, 6, 16]",6,5,"[7, 14, 22, 25, 28]",126.4987277,12208,1081,4,2,8,2.1316196867673534
basic,4,22,0,0,0,28,"[0, 29, 19, 9, 6, 16, 28]",7,2,"[7, 14]",92.06037699,13341,1133,2,0,8,1.8800559086622874
basic,4,22,0,1,0,28,"[0, 29, 19, 9, 6, 16, 28]",7,2,"[7, 14]",92.06037699,14582,1241,2,0,8,1.8800559086622874
basic,5,1,0,0,0,0,[0],1,26,"[1, 2, 4, 5, 7, 8, 9, 10, 11, 12, 13, 14, 15, 16, 17, 18, 19, 20, 21, 22, 23, 24, 25, 26, 28, 29]",300,144,-1,6,74,7,0.0
basic,5,1,0,0,0,14,"[0, 14]",2,19,"[1, 4, 5, 8, 9, 13, 15, 17, 18, 19, 20, 21, 22, 23, 24, 25, 26, 28, 29]",200.1901808,5899,5755,5,42,7,1.0
basic,5,1,0,0,0,17,"[0, 14, 17]",3,15,"[1, 4, 5, 8, 9, 13, 15, 18, 19, 20, 22, 23, 25, 28, 29]",147.8356204,7099,1200,5,27,7,1.0028844724416826
basic,5,1,0,0,0,1,"[0, 14, 17, 1]",4,12,"[4, 5, 8, 9, 15, 18, 20, 22, 23, 25, 28, 29]",123.4840291,8362,1263,5,15,7,1.0264985578353567
basic,5,1,0,0,0,28,"[0, 14, 17, 1, 28]",5,5,"[9, 15, 22, 23, 29]",88.59850198,9898,1536,5,3,7,1.0339861575999345
basic,5,1,0,0,0,23,"[0, 14, 17, 1, 28, 23]",6,2,"[15, 22]",51.70676849,11776,1878,2,0,7,1.0327458250705703
basic,5,1,0,1,0,23,"[0, 14, 17, 1, 28, 23]",6,2,"[15, 22]",51.70676849,13015,1239,2,0,7,1.0327458250705703
basic,6,38,0,0,0,0,[0],1,29,"[1, 2, 3, 4, 5, 6, 7, 8, 9, 10, 11, 12, 13, 14, 15, 16, 17, 18, 19, 20, 21, 22, 23, 24, 25, 26, 27, 28, 29]",300,194,-1,33,506,9,0.0
basic,6,38,0,0,0,20,"[0, 20]",2,28,"[1, 2, 3, 4, 5, 6, 7, 8, 9, 10, 11, 12, 13, 14, 15, 16, 17, 18, 19, 21, 22, 23, 24, 25, 26, 27, 28, 29]",246.1483519,8095,7901,14,198,9,1.0
basic,6,38,0,0,0,17,"[0, 20, 17]",3,24,"[3, 4, 5, 6, 7, 8, 9, 10, 11, 12, 13, 14, 15, 16, 18, 19, 22, 23, 24, 25, 26, 27, 28, 29]",222.3786233,9559,1464,7,72,9,1.1975812846326472
basic,6,38,0,0,0,19,"[0, 20, 17, 19]",4,20,"[3, 4, 5, 6, 7, 8, 9, 11, 13, 15, 16, 18, 22, 23, 24, 25, 26, 27, 28, 29]",201.001065,10479,920,3,27,9,1.2298241575560172
basic,6,38,0,0,0,3,"[0, 20, 17, 19, 3]",5,7,"[6, 9, 18, 22, 23, 27, 29]",124.8958746,11548,1069,7,3,7,1.142156166414804
basic,6,38,0,0,0,27,"[0, 20, 17, 19, 3, 27]",6,2,"[18, 22]",76.63616054,12630,1082,2,0,7,1.5398544698551566
basic,6,38,0,0,1,22,"[0, 20, 17, 19, 3, 27, 22]",7,0,[],48.00051842,14905,2275,1,0,7,1.4647914660952526
basic,6,38,0,1,1,22,"[0, 20, 17, 19, 3, 27, 22]",7,0,[],48.00051842,16329,1424,1,0,7,1.4647914660952526
basic,7,7,0,0,0,0,[0],1,29,"[1, 2, 3, 4, 5, 6, 7, 8, 9, 10, 11, 12, 13, 14, 15, 16, 17, 18, 19, 20, 21, 22, 23, 24, 25, 26, 27, 28, 29]",300,145,-1,3,79,9,0.0
basic,7,7,0,0,0,25,"[0, 25]",2,20,"[2, 3, 4, 5, 6, 7, 10, 13, 14, 15, 16, 18, 19, 20, 21, 22, 23, 24, 27, 28]",181.5939191,5753,5608,5,33,8,1.0
basic,7,7,0,0,0,4,"[0, 25, 4]",3,11,"[2, 6, 7, 13, 15, 16, 18, 19, 20, 21, 23]",156.8552853,6780,1027,2,14,8,1.0193465608331511
basic,7,7,0,0,0,20,"[0, 25, 4, 20]",4,8,"[2, 6, 7, 13, 15, 16, 18, 19]",137.2084026,8866,2086,1,9,8,1.085904909082323
basic,7,7,0,0,0,18,"[0, 25, 4, 20, 18]",5,7,"[2, 6, 7, 13, 15, 16, 19]",124.4021541,10275,1409,1,5,8,1.2264883846453758
basic,7,7,0,0,0,7,"[0, 25, 4, 20, 18, 7]",6,2,"[2, 19]",83.17109789,11243,968,1,1,8,1.185264473968278
basic,7,7,0,0,0,19,"[0, 25, 4, 20, 18, 7, 19]",7,1,[2],53.76021555,12473,1230,1,0,8,1.3016904288278204
basic,7,7,0,1,0,19,"[0, 25, 4, 20, 18, 7, 19]",7,1,[2],53.76021555,13516,1043,1,0,8,1.3016904288278204
basic,8,34,0,0,0,0,[0],1,25,"[1, 3, 4, 5, 6, 7, 8, 9, 10, 11, 12, 13, 15, 18, 19, 20, 21, 22, 23, 24, 25, 26, 27, 28, 29]",300,161,-1,12,367,10,0.0
basic,8,34,0,0,0,13,"[0, 13]",2,24,"[1, 3, 4, 5, 6, 7, 8, 9, 10, 11, 12, 15, 18, 19, 20, 21, 22, 23, 24, 25, 26, 27, 28, 29]",279.9750156,2036,1875,12,331,10,1.0
basic,8,34,0,0,0,1,"[0, 13, 1]",3,16,"[3, 5, 7, 8, 9, 10, 11, 12, 19, 21, 22, 23, 24, 25, 27, 29]",211.8574701,3100,1064,3,92,10,1.0010381285747127
basic,8,34,0,0,0,8,"[0, 13, 1, 8]",4,14,"[3, 5, 7, 9, 10, 11, 12, 19, 22, 23, 24, 25, 27, 29]",201.0871405,3899,799,2,54,10,1.1636807
basic,8,34,0,0,0,25,"[0, 13, 1, 8, 25]",5,12,"[3, 5, 7, 9, 10, 11, 12, 22, 23, 24, 27, 29]",183.999133,4606,707,2,28,10,1.1396208815936457
basic,8,34,0,0,0,24,"[0, 13, 1, 8, 25, 24]",6,11,"[3, 5, 7, 9, 10, 11, 12, 22, 23, 27, 29]",166.5062774,5597,991,2,23,10,1.374180768736554
basic,8,34,0,0,0,12,"[0, 13, 1, 8, 25, 24, 12]",7,7,"[7, 9, 10, 11, 22, 23, 27]",115.4670767,7620,2023,1,8,10,1.4994254760835948
basic,8,34,0,0,0,7,"[0, 13, 1, 8, 25, 24, 12, 7]",8,5,"[9, 11, 22, 23, 27]",100.4337804,8318,698,1,4,10,1.758992610425009
basic,8,34,0,0,0,23,"[0, 13, 1, 8, 25, 24, 12, 7, 23]",9,1,[27],72.27352467,9261,943,1,0,10,2.399781305190153
basic,8,34,0,1,0,23,"[0, 13, 1, 8, 25, 24, 12, 7, 23]",9,1,[27],72.27352467,10070,809,1,0,10,2.399781305190153
basic,9,19,0,0,0,0,[0],1,29,"[1, 2, 3, 4, 5, 6, 7, 8, 9, 10, 11, 12, 13, 14, 15, 16, 17, 18, 19, 20, 21, 22, 23, 24, 25, 26, 27, 28, 29]",300,144,-1,12,149,8,0.0
basic,9,19,0,0,0,29,"[0, 29]",2,28,"[1, 2, 3, 4, 5, 6, 7, 8, 9, 10, 11, 12, 13, 14, 15, 16, 17, 18, 19, 20, 21, 22, 23, 24, 25, 26, 27, 28]",265.0715016,7819,7675,12,120,8,1.0
basic,9,19,0,0,0,9,"[0, 29, 9]",3,17,"[1, 4, 5, 6, 7, 10, 11, 12, 13, 14, 19, 20, 21, 22, 24, 27, 28]",181.7108394,10708,2889,11,65,8,1.0375842971861238
basic,9,19,0,0,0,6,"[0, 29, 9, 6]",4,12,"[4, 7, 10, 11, 13, 14, 20, 21, 22, 24, 27, 28]",140.2741407,11580,872,11,34,8,1.0389786364356892
basic,9,19,0,0,0,4,"[0, 29, 9, 6, 4]",5,7,"[10, 11, 14, 20, 22, 27, 28]",99.22538921,12530,950,2,6,8,1.2182485830176533
basic,9,19,0,0,0,28,"[0, 29, 9, 6, 4, 28]",6,3,"[11, 14, 27]",88.04504932,13607,1077,2,1,8,1.2933703503588658
basic,9,19,0,1,0,28,"[0, 29, 9, 6, 4, 28]",6,3,"[11, 14, 27]",88.04504932,14464,857,2,1,8,1.2933703503588658
basic,10,18,0,0,0,0,[0],1,28,"[1, 2, 3, 4, 5, 6, 7, 8, 9, 10, 11, 12, 13, 14, 16, 17, 18, 19, 20, 21, 22, 23, 24, 25, 26, 27, 28, 29]",300,160,-1,3,136,10,0.0
basic,10,18,0,0,0,28,"[0, 28]",2,16,"[1, 3, 5, 7, 8, 9, 12, 13, 14, 16, 20, 23, 24, 25, 26, 27]",236.4311397,5947,5787,2,19,10,1.0
basic,10,18,0,0,0,7,"[0, 28, 7]",3,15,"[1, 3, 5, 8, 9, 12, 13, 14, 16, 20, 23, 24, 25, 26, 27]",214.4084242,6684,737,2,17,10,1.4345180696367563
basic,10,18,0,0,0,25,"[0, 28, 7, 25]",4,13,"[1, 3, 5, 8, 9, 12, 13, 14, 16, 20, 23, 26, 27]",186.6055466,8661,1977,2,15,10,1.8896451241781882
basic,10,18,0,0,0,13,"[0, 28, 7, 25, 13]",5,10,"[3, 5, 8, 9, 12, 14, 16, 23, 26, 27]",141.3286209,10950,2289,5,21,9,1.6878978848273398
basic,10,18,0,0,0,8,"[0, 28, 7, 25, 13, 8]",6,8,"[3, 5, 9, 12, 14, 23, 26, 27]",120.2335978,11891,941,2,9,9,1.900402263134541
basic,10,18,0,0,0,14,"[0, 28, 7, 25, 13, 8, 14]",7,4,"[3, 5, 12, 27]",86.63300257,12814,923,4,0,8,1.903166929752216
basic,10,18,0,0,1,3,"[0, 28, 7, 25, 13, 8, 14, 3]",8,0,[],56.54978466,13573,759,1,0,8,1.9893548054599768
basic,10,18,0,1,1,3,"[0, 28, 7, 25, 13, 8, 14, 3]",8,0,[],56.54978466,15130,1557,1,0,8,1.9893548054599768
basic,11,11,0,0,0,0,[0],1,25,"[1, 2, 3, 4, 5, 6, 8, 9, 10, 11, 12, 13, 14, 15, 16, 17, 18, 19, 20, 22, 23, 25, 26, 27, 28]",300,144,-1,6,374,12,0.0
basic,11,11,0,0,0,18,"[0, 18]",2,21,"[1, 2, 4, 5, 6, 8, 9, 11, 12, 13, 14, 15, 16, 17, 19, 20, 22, 23, 25, 27, 28]",236.8493864,4781,4637,157,1477,11,1.0
basic,11,11,0,0,0,27,"[0, 18, 27]",3,19,"[1, 2, 4, 5, 6, 8, 9, 11, 12, 14, 15, 16, 17, 19, 20, 22, 23, 25, 28]",212.9956655,5864,1083,157,1315,11,1.060949579704323
basic,11,11,0,0,0,17,"[0, 18, 27, 17]",4,14,"[1, 2, 4, 5, 6, 8, 11, 12, 15, 19, 22, 23, 25, 28]",135.9177828,8612,2748,46,349,11,1.1156120043677304
basic,11,11,0,0,0,8,"[0, 18, 27, 17, 8]",5,11,"[1, 2, 5, 6, 11, 12, 15, 19, 22, 25, 28]",121.5999617,9394,782,26,143,11,1.2285932943120847
basic,11,11,0,0,0,15,"[0, 18, 27, 17, 8, 15]",6,9,"[2, 5, 6, 11, 12, 19, 22, 25, 28]",108.1463377,10776,1382,24,54,11,1.223015425852291
basic,11,11,0,0,0,11,"[0, 18, 27, 17, 8, 15, 11]",7,6,"[2, 5, 12, 19, 22, 28]",90.03556742,11483,707,22,2,11,1.2111003833550413
basic,11,11,0,0,0,28,"[0, 18, 27, 17, 8, 15, 11, 28]",8,3,"[2, 5, 22]",70.61907959,12733,1250,6,0,11,1.3274100985292616
basic,11,11,0,0,0,2,"[0, 18, 27, 17, 8, 15, 11, 28, 2]",9,2,"[5, 22]",59.98893377,13430,697,2,0,11,1.3446894956422268
basic,11,11,0,0,0,22,"[0, 18, 27, 17, 8, 15, 11, 28, 2, 22]",10,1,[5],49.93905815,14155,725,1,0,11,1.3263453016852544
basic,11,11,0,1,0,22,"[0, 18, 27, 17, 8, 15, 11, 28, 2, 22]",10,1,[5],49.93905815,16213,2058,1,0,11,1.3263453016852544
basic,12,15,0,0,0,0,[0],1,25,"[1, 2, 3, 4, 7, 8, 9, 10, 11, 12, 13, 14, 15, 16, 18, 20, 21, 22, 23, 24, 25, 26, 27, 28, 29]",300,159,-1,4,65,9,0.0
basic,12,15,0,0,0,7,"[0, 7]",2,23,"[1, 3, 4, 8, 9, 10, 11, 12, 13, 14, 15, 16, 18, 20, 21, 22, 23, 24, 25, 26, 27, 28, 29]",215.1884442,5034,4875,30,107,8,1.0
basic,12,15,0,0,0,16,"[0, 7, 16]",3,14,"[3, 4, 9, 10, 11, 12, 13, 14, 15, 18, 21, 22, 25, 27]",171.5306843,6030,996,11,27,8,1.1253230463291073
basic,12,15,0,0,0,3,"[0, 7, 16, 3]",4,12,"[4, 10, 11, 12, 13, 14, 15, 18, 21, 22, 25, 27]",146.4508119,6897,867,5,12,8,1.1599276527768434
basic,12,15,0,0,0,11,"[0, 7, 16, 3, 11]",5,8,"[4, 12, 13, 14, 15, 21, 22, 27]",135.0490576,8649,1752,5,3,8,1.3284364410021055
basic,12,15,0,0,0,12,"[0, 7, 16, 3, 11, 12]",6,1,[21],69.93377523,17270,8621,1,0,7,2.661192674664603
basic,12,15,0,1,0,12,"[0, 7, 16, 3, 11, 12]",6,1,[21],69.93377523,18842,1572,1,0,7,2.661192674664603
basic,13,20,0,0,0,0,[0],1,21,"[1, 2, 3, 4, 5, 6, 7, 8, 9, 12, 17, 18, 20, 21, 22, 23, 25, 26, 27, 28, 29]",300,144,-1,1,9,9,0.0
basic,13,20,0,0,0,12,"[0, 12]",2,20,"[1, 2, 3, 4, 5, 6, 7, 8, 9, 17, 18, 20, 21, 22, 23, 25, 26, 27, 28, 29]",271.5570747,7394,7250,1,8,9,1.0
basic,13,20,0,0,0,4,"[0, 12, 4]",3,16,"[1, 2, 3, 5, 7, 8, 17, 18, 20, 21, 22, 23, 25, 27, 28, 29]",172.5621253,8484,1090,15,27,6,1.008841403233763
basic,13,20,0,0,0,20,"[0, 12, 4, 20]",4,9,"[1, 2, 3, 5, 8, 17, 21, 22, 28]",136.5482391,9427,943,5,5,6,1.0077334792951635
basic,13,20,0,0,1,22,"[0, 12, 4, 20, 22]",5,0,[],33.93245086,10641,1214,1,0,5,1.0509856187763968
basic,13,20,0,1,1,22,"[0, 12, 4, 20, 22]",5,0,[],33.93245086,11816,1175,1,0,5,1.0509856187763968
basic,14,6,0,0,0,0,[0],1,29,"[1, 2, 3, 4, 5, 6, 7, 8, 9, 10, 11, 12, 13, 14, 15, 16, 17, 18, 19, 20, 21, 22, 23, 24, 25, 26, 27, 28, 29]",300,159,-1,180,4304,10,0.0
basic,14,6,0,0,0,3,"[0, 3]",2,28,"[1, 2, 4, 5, 6, 7, 8, 9, 10, 11, 12, 13, 14, 15, 16, 17, 18, 19, 20, 21, 22, 23, 24, 25, 26, 27, 28, 29]",266.4738908,4686,4527,90,1607,10,1.0
basic,14,6,0,0,0,10,"[0, 3, 10]",3,27,"[1, 2, 4, 5, 6, 7, 8, 9, 11, 12, 13, 14, 15, 16, 17, 18, 19, 20, 21, 22, 23, 24, 25, 26, 27, 28, 29]",215.2293789,5845,1159,8,136,10,1.0050517746249001
basic,14,6,0,0,0,24,"[0, 3, 10, 24]",4,23,"[1, 2, 4, 5, 6, 7, 8, 11, 13, 14, 16, 17, 18, 19, 20, 21, 22, 23, 25, 26, 27, 28, 29]",201.812971,6768,923,8,85,10,1.0091851911500884
basic,14,6,0,0,0,17,"[0, 3, 10, 24, 17]",5,19,"[1, 2, 4, 5, 6, 7, 8, 11, 13, 14, 16, 18, 20, 21, 22, 23, 26, 27, 29]",172.5384087,8212,1444,8,53,10,1.8060138032707682
basic,14,6,0,0,0,18,"[0, 3, 10, 24, 17, 18]",6,15,"[1, 2, 6, 7, 8, 13, 14, 16, 20, 21, 22, 23, 26, 27, 29]",158.6100204,9447,1235,7,36,10,2.3216150751946008
basic,14,6,0,0,0,16,"[0, 3, 10, 24, 17, 18, 16]",7,13,"[1, 2, 6, 7, 13, 14, 20, 21, 22, 23, 26, 27, 29]",135.2647853,10396,949,7,21,10,2.2822729587843544
basic,14,6,0,0,0,29,"[0, 3, 10, 24, 17, 18, 16, 29]",8,7,"[6, 14, 20, 21, 22, 23, 27]",98.57691268,11528,1132,6,4,10,1.8911507070056388
basic,14,6,0,1,0,29,"[0, 3, 10, 24, 17, 18, 16, 29]",8,7,"[6, 14, 20, 21, 22, 23, 27]",98.57691268,12398,870,6,4,10,1.8911507070056388
basic,15,16,0,0,0,0,[0],1,29,"[1, 2, 3, 4, 5, 6, 7, 8, 9, 10, 11, 12, 13, 14, 15, 16, 17, 18, 19, 20, 21, 22, 23, 24, 25, 26, 27, 28, 29]",300,148,-1,13,161,9,0.0
basic,15,16,0,0,0,28,"[0, 28]",2,27,"[1, 2, 3, 4, 5, 7, 8, 9, 10, 11, 12, 13, 14, 15, 16, 17, 18, 19, 20, 21, 22, 23, 24, 25, 26, 27, 29]",284.3475242,13976,13828,11,92,9,1.0
basic,15,16,0,0,0,22,"[0, 28, 22]",3,15,"[3, 5, 7, 8, 10, 14, 16, 17, 20, 21, 23, 24, 25, 26, 29]",214.820551,15657,1681,2,24,7,1.0043377718996989
basic,15,16,0,0,0,26,"[0, 28, 22, 26]",4,10,"[7, 8, 10, 14, 16, 17, 21, 23, 24, 29]",190.7373618,16460,803,2,10,7,1.5828517111998486
basic,15,16,0,0,1,24,"[0, 28, 22, 26, 24]",5,0,[],127.6659737,17961,1501,1,0,5,2.0964961791545376
basic,15,16,0,1,1,24,"[0, 28, 22, 26, 24]",5,0,[],127.6659737,18648,687,1,0,5,2.0964961791545376
basic,16,41,0,0,0,0,[0],1,29,"[1, 2, 3, 4, 5, 6, 7, 8, 9, 10, 11, 12, 13, 14, 15, 16, 17, 18, 19, 20, 21, 22, 23, 24, 25, 26, 27, 28, 29]",300,128,-1,1,143,10,0.0
basic,16,41,0,0,0,13,"[0, 13]",2,23,"[1, 2, 3, 5, 6, 7, 9, 10, 11, 12, 14, 15, 17, 18, 19, 20, 21, 22, 24, 25, 26, 27, 28]",258.2747079,3055,2927,1,55,10,1.0
basic,16,41,0,0,0,28,"[0, 13, 28]",3,22,"[1, 2, 3, 5, 6, 7, 9, 10, 11, 12, 14, 15, 17, 18, 19, 20, 21, 22, 24, 25, 26, 27]",223.7928286,4166,1111,1,39,10,1.895724242592676
basic,16,41,0,0,0,5,"[0, 13, 28, 5]",4,19,"[1, 2, 3, 6, 9, 10, 11, 12, 14, 15, 17, 18, 19, 20, 21, 22, 24, 25, 27]",210.1913581,5015,849,1,34,10,2.861541269398273
basic,16,41,0,0,0,22,"[0, 13, 28, 5, 22]",5,12,"[2, 3, 6, 9, 10, 11, 12, 17, 18, 20, 21, 25]",155.4464953,6936,1921,11,12,9,2.096079268852861
basic,16,41,0,0,0,3,"[0, 13, 28, 5, 22, 3]",6,8,"[2, 9, 10, 12, 17, 18, 20, 21]",125.4798472,7766,830,7,5,9,4.404491319005463
basic,16,41,0,0,0,21,"[0, 13, 28, 5, 22, 3, 21]",7,4,"[2, 9, 12, 17]",93.33952984,8834,1068,5,1,9,4.228139797553632
basic,16,41,0,1,0,21,"[0, 13, 28, 5, 22, 3, 21]",7,4,"[2, 9, 12, 17]",93.33952984,10036,1202,5,1,9,4.228139797553632
basic,17,13,0,0,0,0,[0],1,29,"[1, 2, 3, 4, 5, 6, 7, 8, 9, 10, 11, 12, 13, 14, 15, 16, 17, 18, 19, 20, 21, 22, 23, 24, 25, 26, 27, 28, 29]",300,162,-1,60,2676,11,0.0
basic,17,13,0,0,0,24,"[0, 24]",2,28,"[1, 2, 3, 4, 5, 6, 7, 8, 9, 10, 11, 12, 13, 14, 15, 16, 17, 18, 19, 20, 21, 22, 23, 25, 26, 27, 28, 29]",288.8196601,5883,5721,16,1444,11,1.0
basic,17,13,0,0,0,23,"[0, 24, 23]",3,27,"[1, 2, 3, 4, 5, 6, 7, 8, 9, 10, 11, 12, 13, 14, 15, 16, 17, 18, 19, 20, 21, 22, 25, 26, 27, 28, 29]",243.1140806,6697,814,2,868,11,1.0065545717039834
basic,17,13,0,0,0,16,"[0, 24, 23, 16]",4,25,"[1, 2, 3, 4, 6, 7, 8, 9, 10, 11, 12, 13, 14, 15, 17, 18, 19, 20, 21, 22, 25, 26, 27, 28, 29]",202.8027918,7879,1182,1,145,11,1.055930143104189
basic,17,13,0,0,0,3,"[0, 24, 23, 16, 3]",5,20,"[2, 4, 6, 7, 8, 9, 10, 11, 13, 14, 15, 18, 20, 21, 22, 25, 26, 27, 28, 29]",174.3598665,8921,1042,3,44,10,1.233783650807853
basic,17,13,0,0,0,20,"[0, 24, 23, 16, 3, 20]",6,15,"[4, 6, 7, 8, 9, 11, 14, 18, 21, 22, 25, 26, 27, 28, 29]",155.3335689,9696,775,7,15,9,1.3149320474556456
basic,17,13,0,0,0,4,"[0, 24, 23, 16, 3, 20, 4]",7,5,"[6, 8, 18, 25, 27]",133.3108534,10627,931,2,4,9,1.2859964130018764
basic,17,13,0,0,0,27,"[0, 24, 23, 16, 3, 20, 4, 27]",8,2,"[8, 18]",111.2881379,11496,869,2,0,9,1.3345945780156503
basic,17,13,0,1,0,27,"[0, 24, 23, 16, 3, 20, 4, 27]",8,2,"[8, 18]",111.2881379,12417,921,2,0,9,1.3345945780156503
basic,18,10,0,0,0,0,[0],1,29,"[1, 2, 3, 4, 5, 6, 7, 8, 9, 10, 11, 12, 13, 14, 15, 16, 17, 18, 19, 20, 21, 22, 23, 24, 25, 26, 27, 28, 29]",300,144,-1,1,100,9,0.0
basic,18,10,0,0,0,13,"[0, 13]",2,25,"[1, 2, 3, 4, 6, 7, 8, 9, 10, 11, 12, 14, 17, 18, 19, 20, 21, 22, 23, 24, 25, 26, 27, 28, 29]",249.4628849,3923,3779,1,79,9,1.0
basic,18,10,0,0,0,11,"[0, 13, 11]",3,20,"[1, 2, 3, 6, 7, 8, 9, 10, 12, 14, 18, 19, 20, 21, 22, 24, 26, 27, 28, 29]",206.4512586,5732,1809,1,54,9,1.0313137484914219
basic,18,10,0,0,0,19,"[0, 13, 11, 19]",4,11,"[2, 6, 8, 9, 10, 14, 18, 20, 24, 26, 27]",170.0919407,6763,1031,1,22,9,1.0879446220132545
basic,18,10,0,0,0,26,"[0, 13, 11, 19, 26]",5,8,"[2, 6, 9, 10, 14, 18, 20, 27]",141.7723361,7999,1236,10,10,8,1.1947240924037068
basic,18,10,0,0,0,20,"[0, 13, 11, 19, 26, 20]",6,7,"[2, 6, 9, 10, 14, 18, 27]",109.991839,8879,880,6,2,8,1.5698329566273737
basic,18,10,0,0,0,27,"[0, 13, 11, 19, 26, 20, 27]",7,2,"[6, 9]",64.73700499,11193,2314,2,0,8,1.5107679049823484
basic,18,10,0,1,0,27,"[0, 13, 11, 19, 26, 20, 27]",7,2,"[6, 9]",64.73700499,12433,1240,2,0,8,1.5107679049823484
basic,19,31,0,0,0,0,[0],1,27,"[1, 3, 4, 5, 6, 7, 8, 10, 11, 12, 13, 14, 15, 16, 17, 18, 19, 20, 21, 22, 23, 24, 25, 26, 27, 28, 29]",300,161,-1,2,87,10,0.0
basic,19,31,0,0,0,14,"[0, 14]",2,25,"[1, 3, 5, 6, 7, 8, 10, 11, 12, 13, 15, 16, 17, 18, 19, 20, 21, 22, 23, 24, 25, 26, 27, 28, 29]",263.861378,2455,2294,2,59,10,1.0
basic,19,31,0,0,0,27,"[0, 14, 27]",3,22,"[1, 3, 5, 6, 7, 8, 10, 11, 12, 13, 15, 16, 17, 18, 19, 20, 21, 22, 24, 25, 28, 29]",235.6833724,4753,2298,1,39,10,1.5881859159302467
basic,19,31,0,0,0,8,"[0, 14, 27, 8]",4,20,"[1, 3, 5, 6, 7, 10, 11, 12, 13, 16, 17, 18, 19, 20, 21, 22, 24, 25, 28, 29]",224.6380114,5423,670,1,36,10,2.1665048452331277
basic,19,31,0,0,0,18,"[0, 14, 27, 8, 18]",5,15,"[1, 5, 6, 7, 11, 12, 13, 16, 17, 19, 20, 22, 25, 28, 29]",188.7911147,6757,1334,1,26,10,1.7273375741920205
basic,19,31,0,0,0,11,"[0, 14, 27, 8, 18, 11]",6,11,"[1, 5, 7, 12, 16, 17, 19, 20, 22, 25, 28]",153.9055876,8279,1522,13,17,9,2.386348208737804
basic,19,31,0,0,0,5,"[0, 14, 27, 8, 18, 11, 5]",7,5,"[16, 17, 20, 25, 28]",110.2249283,9583,1304,3,3,9,2.163249612867222
basic,19,31,0,0,0,28,"[0, 14, 27, 8, 18, 11, 5, 28]",8,2,"[16, 17]",90.00117988,11349,1766,2,0,9,1.9564635733184719
basic,19,31,0,1,0,28,"[0, 14, 27, 8, 18, 11, 5, 28]",8,2,"[16, 17]",90.00117988,12133,784,2,0,9,1.9564635733184719
basic,20,0,0,0,0,0,[0],1,27,"[2, 3, 4, 5, 6, 7, 8, 9, 10, 11, 12, 13, 14, 15, 16, 17, 19, 20, 21, 22, 23, 24, 25, 26, 27, 28, 29]",300,142,-1,104,1136,9,0.0
basic,20,0,0,0,0,28,"[0, 28]",2,26,"[2, 3, 4, 5, 6, 7, 8, 9, 10, 11, 12, 13, 14, 15, 16, 17, 19, 20, 21, 22, 23, 24, 25, 26, 27, 29]",194.9190788,8427,8285,39,388,9,1.0
basic,20,0,0,0,0,5,"[0, 28, 5]",3,21,"[2, 3, 4, 7, 8, 9, 11, 12, 13, 14, 15, 16, 17, 19, 20, 21, 23, 24, 25, 26, 29]",151.2613189,11191,2764,27,210,9,1.0978295127671733
basic,20,0,0,0,0,4,"[0, 28, 5, 4]",4,16,"[3, 7, 8, 9, 11, 12, 13, 14, 15, 17, 19, 20, 21, 23, 24, 26]",126.1814465,13006,1815,17,114,9,1.1103727063761901
basic,20,0,0,0,0,24,"[0, 28, 5, 4, 24]",5,12,"[3, 7, 8, 9, 11, 12, 15, 17, 19, 20, 23, 26]",114.7796922,13837,831,10,46,9,1.1102188371994124
basic,20,0,0,0,0,26,"[0, 28, 5, 4, 24, 26]",6,11,"[3, 7, 8, 9, 11, 12, 15, 17, 19, 20, 23]",97.66244947,14745,908,4,19,9,1.2524379957194889
basic,20,0,0,0,0,12,"[0, 28, 5, 4, 24, 26, 12]",7,1,[17],62.43461956,15721,976,1,0,8,1.522698586361137
basic,20,0,0,1,0,12,"[0, 28, 5, 4, 24, 26, 12]",7,1,[17],62.43461956,16444,723,1,0,8,1.522698586361137
basic,21,39,0,0,0,0,[0],1,28,"[1, 2, 3, 4, 5, 6, 7, 9, 10, 11, 12, 13, 14, 15, 16, 17, 18, 19, 20, 21, 22, 23, 24, 25, 26, 27, 28, 29]",300,161,-1,1,30,10,0.0
basic,21,39,0,0,0,29,"[0, 29]",2,26,"[1, 2, 3, 4, 5, 6, 7, 9, 10, 12, 13, 14, 15, 16, 17, 18, 19, 20, 21, 22, 23, 24, 25, 26, 27, 28]",243.0614366,7780,7619,8,104,9,1.0
basic,21,39,0,0,0,10,"[0, 29, 10]",3,19,"[1, 2, 4, 5, 7, 9, 12, 13, 14, 15, 16, 17, 18, 19, 22, 23, 24, 26, 28]",178.4239862,9063,1283,3,48,9,1.0231293692376968
basic,21,39,0,0,0,7,"[0, 29, 10, 7]",4,14,"[1, 2, 4, 5, 9, 12, 13, 15, 16, 18, 19, 22, 24, 26]",145.0024362,10033,970,2,20,9,1.0186411966151707
basic,21,39,0,0,0,26,"[0, 29, 10, 7, 26]",5,9,"[1, 2, 5, 12, 13, 16, 18, 19, 22]",126.3208945,12281,2248,1,9,9,1.0752526811750318
basic,21,39,0,0,0,22,"[0, 29, 10, 7, 26, 22]",6,6,"[1, 5, 12, 16, 18, 19]",108.6008494,14074,1793,1,3,9,1.2360944063790367
basic,21,39,0,0,0,16,"[0, 29, 10, 7, 26, 22, 16]",7,2,"[18, 19]",73.6008494,15456,1382,1,1,9,1.1926155792040818
basic,21,39,0,0,0,19,"[0, 29, 10, 7, 26, 22, 16, 19]",8,1,[18],56.1366002,16721,1265,1,0,9,1.2089345217410772
basic,21,39,0,1,0,19,"[0, 29, 10, 7, 26, 22, 16, 19]",8,1,[18],56.1366002,17545,824,1,0,9,1.2089345217410772
basic,22,32,0,0,0,0,[0],1,29,"[1, 2, 3, 4, 5, 6, 7, 8, 9, 10, 11, 12, 13, 14, 15, 16, 17, 18, 19, 20, 21, 22, 23, 24, 25, 26, 27, 28, 29]",300,161,-1,17,359,10,0.0
basic,22,32,0,0,0,19,"[0, 19]",2,28,"[1, 2, 3, 4, 5, 6, 7, 8, 9, 10, 11, 12, 13, 14, 15, 16, 17, 18, 20, 21, 22, 23, 24, 25, 26, 27, 28, 29]",283.5075775,2106,1945,16,294,10,1.0
basic,22,32,0,0,0,13,"[0, 19, 13]",3,24,"[2, 3, 4, 5, 6, 8, 9, 10, 11, 12, 14, 15, 16, 17, 18, 20, 21, 22, 23, 24, 25, 26, 27, 28]",260.3127505,3050,944,14,227,10,1.0172874229878615
basic,22,32,0,0,0,25,"[0, 19, 13, 25]",4,8,"[5, 6, 12, 14, 15, 17, 26, 28]",180.6823543,5314,2264,4,5,6,1.797760024804656
basic,22,32,0,0,0,6,"[0, 19, 13, 25, 6]",5,1,[14],41.41283141,7861,2547,1,0,6,1.7535867885403753
basic,22,32,0,0,1,14,"[0, 19, 13, 25, 6, 14]",6,0,[],9.16380042,10060,2199,1,0,6,1.9777454903987244
basic,22,32,0,1,1,14,"[0, 19, 13, 25, 6, 14]",6,0,[],9.16380042,12766,2706,1,0,6,1.9777454903987244
undo,23,19,0,0,0,0,[0],1,29,"[1, 2, 3, 4, 5, 6, 7, 8, 9, 10, 11, 12, 13, 14, 15, 16, 17, 18, 19, 20, 21, 22, 23, 24, 25, 26, 27, 28, 29]",300,148,-1,12,149,8,0.0
undo,23,19,0,0,0,29,"[0, 29]",2,28,"[1, 2, 3, 4, 5, 6, 7, 8, 9, 10, 11, 12, 13, 14, 15, 16, 17, 18, 19, 20, 21, 22, 23, 24, 25, 26, 27, 28]",265.0715016,7717,7569,12,120,8,1.0
undo,23,19,0,0,0,9,"[0, 29, 9]",3,17,"[1, 4, 5, 6, 7, 10, 11, 12, 13, 14, 19, 20, 21, 22, 24, 27, 28]",181.7108394,8808,1091,11,65,8,1.0375842971861238
undo,23,19,0,0,0,6,"[0, 29, 9, 6]",4,12,"[4, 7, 10, 11, 13, 14, 20, 21, 22, 24, 27, 28]",140.2741407,9952,1144,11,34,8,1.0389786364356892
undo,23,19,0,0,0,4,"[0, 29, 9, 6, 4]",5,7,"[10, 11, 14, 20, 22, 27, 28]",99.22538921,13532,3580,2,6,8,1.2182485830176533
undo,23,19,0,0,0,14,"[0, 29, 9, 6, 4, 14]",6,3,"[11, 20, 22]",49.21539021,14600,1068,3,0,7,1.1992264850067285
undo,23,19,0,0,1,11,"[0, 29, 9, 6, 4, 14, 11]",7,0,[],38.39873638,15815,1215,1,0,7,1.1931340086782847
undo,23,19,1,0,0,14,"[0, 29, 9, 6, 4, 14]",6,3,"[11, 20, 22]",49.21539021,17949,2134,3,0,7,1.1992264850067285
undo,23,19,0,1,0,14,"[0, 29, 9, 6, 4, 14]",6,3,"[11, 20, 22]",49.21539021,27607,9658,3,0,7,1.1992264850067285
undo,24,33,0,0,0,0,[0],1,23,"[1, 2, 5, 7, 8, 11, 12, 13, 14, 15, 16, 17, 18, 19, 20, 21, 23, 24, 25, 26, 27, 28, 29]",300,159,-1,5,108,9,0.0
undo,24,33,0,0,0,8,"[0, 8]",2,22,"[1, 2, 5, 7, 11, 12, 13, 14, 15, 16, 17, 18, 19, 20, 21, 23, 24, 25, 26, 27, 28, 29]",265.8679037,4132,3973,5,87,9,1.0
undo,24,33,0,0,0,21,"[0, 8, 21]",3,16,"[2, 5, 7, 11, 13, 14, 16, 17, 18, 19, 20, 24, 26, 27, 28, 29]",166.0430571,5688,1556,5,80,9,1.0670557763739492
undo,24,33,0,0,0,13,"[0, 8, 21, 13]",4,12,"[2, 7, 11, 14, 16, 17, 18, 19, 20, 24, 26, 29]",139.6422995,6713,1025,4,54,9,1.0555103820910288
undo,24,33,0,0,0,19,"[0, 8, 21, 13, 19]",5,10,"[7, 11, 14, 16, 17, 18, 20, 24, 26, 29]",114.1472019,7959,1246,3,19,9,1.1090798607799486
undo,24,33,0,0,0,16,"[0, 8, 21, 13, 19, 16]",6,1,[24],62.13758743,13675,5716,1,0,7,1.4116028629140698
undo,24,33,0,1,0,16,"[0, 8, 21, 13, 19, 16]",6,1,[24],62.13758743,14546,871,1,0,7,1.4116028629140698
undo,25,20,0,0,0,0,[0],1,21,"[1, 2, 3, 4, 5, 6, 7, 8, 9, 12, 17, 18, 20, 21, 22, 23, 25, 26, 27, 28, 29]",300,178,-1,1,9,9,0.0
undo,25,20,0,0,0,12,"[0, 12]",2,20,"[1, 2, 3, 4, 5, 6, 7, 8, 9, 17, 18, 20, 21, 22, 23, 25, 26, 27, 28, 29]",271.5570747,7761,7583,1,8,9,1.0
undo,25,20,0,0,0,1,"[0, 12, 1]",3,12,"[3, 4, 5, 6, 8, 9, 20, 21, 23, 27, 28, 29]",189.5692707,8994,1233,1,6,9,1.0757997779162911
undo,25,20,0,0,0,5,"[0, 12, 1, 5]",4,10,"[4, 6, 8, 9, 20, 21, 23, 27, 28, 29]",152.8950291,10259,1265,1,5,9,1.1708231454516806
undo,25,20,0,0,0,21,"[0, 12, 1, 5, 21]",5,8,"[4, 6, 8, 9, 20, 23, 27, 28]",107.8950291,12062,1803,1,4,9,1.126197336199212
undo,25,20,0,0,0,8,"[0, 12, 1, 5, 21, 8]",6,5,"[6, 9, 23, 27, 28]",90.43077988,14409,2347,1,3,9,1.140007470699913
undo,25,20,0,0,0,23,"[0, 12, 1, 5, 21, 8, 23]",7,2,"[6, 9]",45.74297394,17069,2660,1,1,9,1.1162257896627588
undo,25,20,0,0,0,9,"[0, 12, 1, 5, 21, 8, 23, 9]",8,1,[6],26.53360123,19121,2052,1,0,9,1.1086880559449597
undo,25,20,0,1,0,9,"[0, 12, 1, 5, 21, 8, 23, 9]",8,1,[6],26.53360123,20193,1072,1,0,9,1.1086880559449597
undo,26,28,0,0,0,0,[0],1,27,"[1, 2, 3, 4, 5, 6, 7, 8, 9, 10, 11, 12, 13, 14, 15, 16, 17, 18, 19, 20, 22, 23, 25, 26, 27, 28, 29]",300,160,-1,2,96,9,0.0
undo,26,28,0,0,0,3,"[0, 3]",2,26,"[1, 2, 4, 5, 6, 7, 8, 9, 10, 11, 12, 13, 14, 15, 16, 17, 18, 19, 20, 22, 23, 25, 26, 27, 28, 29]",251.0817008,2516,2356,1,64,9,1.0
undo,26,28,0,0,0,20,"[0, 3, 20]",3,20,"[2, 4, 5, 6, 7, 8, 9, 10, 11, 12, 13, 14, 15, 16, 18, 19, 22, 23, 26, 28]",209.7416475,4462,1946,2,29,8,1.6703057504555512
undo,26,28,0,0,0,15,"[0, 3, 20, 15]",4,10,"[5, 6, 8, 9, 10, 16, 22, 23, 26, 28]",157.2440286,5562,1100,1,6,7,1.4376587969564578
undo,26,28,0,0,0,23,"[0, 3, 20, 15, 23]",5,2,"[16, 22]",88.73855432,8126,2564,2,0,6,1.269324093812023
undo,26,28,0,0,1,16,"[0, 3, 20, 15, 23, 16]",6,0,[],48.42726558,9252,1126,1,0,6,1.2537020201649651
undo,26,28,1,0,0,23,"[0, 3, 20, 15, 23]",5,2,"[16, 22]",88.73855432,11149,1897,2,0,6,1.269324093812023
undo,26,28,0,1,0,23,"[0, 3, 20, 15, 23]",5,2,"[16, 22]",88.73855432,13364,2215,2,0,6,1.269324093812023
undo,27,37,0,0,0,0,[0],1,29,"[1, 2, 3, 4, 5, 6, 7, 8, 9, 10, 11, 12, 13, 14, 15, 16, 17, 18, 19, 20, 21, 22, 23, 24, 25, 26, 27, 28, 29]",300,131,-1,6,168,10,0.0
undo,27,37,0,0,0,17,"[0, 17]",2,23,"[1, 2, 3, 4, 5, 6, 7, 9, 10, 11, 12, 15, 18, 19, 20, 21, 22, 23, 25, 26, 27, 28, 29]",208.7147328,6835,6704,35,171,7,1.0
undo,27,37,0,0,0,10,"[0, 17, 10]",3,21,"[1, 2, 3, 4, 5, 6, 7, 9, 11, 12, 15, 18, 19, 20, 21, 23, 25, 26, 27, 28, 29]",194.1545131,9081,2246,14,55,7,1.062446542005504
undo,27,37,0,0,0,6,"[0, 17, 10, 6]",4,18,"[1, 3, 5, 7, 9, 11, 12, 15, 18, 19, 20, 21, 23, 25, 26, 27, 28, 29]",179.836692,10004,923,6,22,7,1.3417904343687392
undo,27,37,0,0,0,28,"[0, 17, 10, 6, 28]",5,4,"[3, 5, 9, 23]",119.1654468,12412,2408,1,3,7,2.5530502742443484
undo,27,37,0,0,1,23,"[0, 17, 10, 6, 28, 23]",6,0,[],64.15635659,15359,2947,1,0,6,2.3654247601724605
undo,27,37,1,0,0,28,"[0, 17, 10, 6, 28]",5,4,"[3, 5, 9, 23]",119.1654468,16849,1490,1,3,7,2.5530502742443484
undo,27,37,0,0,0,5,"[0, 17, 10, 6, 28, 5]",6,1,[3],62.84493539,18322,1473,1,0,7,1.9280899561788618
undo,27,37,0,1,0,5,"[0, 17, 10, 6, 28, 5]",6,1,[3],62.84493539,20680,2358,1,0,7,1.9280899561788618
undo,28,45,0,0,0,0,[0],1,24,"[1, 2, 3, 4, 5, 6, 7, 9, 10, 11, 12, 14, 15, 16, 17, 19, 20, 21, 22, 23, 24, 25, 27, 29]",300,159,-1,6,248,10,0.0
undo,28,45,0,0,0,15,"[0, 15]",2,23,"[1, 2, 3, 4, 5, 6, 7, 9, 10, 11, 12, 14, 16, 17, 19, 20, 21, 22, 23, 24, 25, 27, 29]",253.9022777,4188,4029,5,207,10,1.0
undo,28,45,0,0,0,23,"[0, 15, 23]",3,22,"[1, 2, 3, 4, 5, 6, 7, 9, 10, 11, 12, 14, 16, 17, 19, 20, 21, 22, 24, 25, 27, 29]",230.3014303,5546,1358,5,163,10,1.0006068457769497
undo,28,45,0,0,0,20,"[0, 15, 23, 20]",4,19,"[1, 2, 3, 5, 6, 7, 9, 10, 11, 12, 14, 16, 17, 19, 21, 22, 24, 25, 29]",188.8647316,8817,3271,5,137,10,1.2062119754673604
undo,28,45,0,0,0,7,"[0, 15, 23, 20, 7]",5,14,"[2, 3, 5, 6, 9, 10, 12, 14, 17, 19, 21, 22, 24, 29]",137.2410936,14641,5824,3,38,10,1.2267717168083891
undo,28,45,0,0,0,2,"[0, 15, 23, 20, 7, 2]",6,8,"[3, 6, 10, 12, 19, 22, 24, 29]",99.22793795,15302,661,3,20,10,1.1978549169009853
undo,28,45,0,0,0,3,"[0, 15, 23, 20, 7, 2, 3]",7,5,"[6, 10, 12, 22, 29]",73.90996014,16303,1001,2,7,10,1.2603420042999722
undo,28,45,0,0,0,29,"[0, 15, 23, 20, 7, 2, 3, 29]",8,3,"[6, 10, 12]",53.90996014,18563,2260,2,1,10,1.527949676112761
undo,28,45,0,0,0,10,"[0, 15, 23, 20, 7, 2, 3, 29, 10]",9,1,[6],32.36930092,21131,2568,1,0,10,1.8188082660591487
undo,28,45,0,1,0,10,"[0, 15, 23, 20, 7, 2, 3, 29, 10]",9,1,[6],32.36930092,22638,1507,1,0,10,1.8188082660591487
undo,29,6,0,0,0,0,[0],1,29,"[1, 2, 3, 4, 5, 6, 7, 8, 9, 10, 11, 12, 13, 14, 15, 16, 17, 18, 19, 20, 21, 22, 23, 24, 25, 26, 27, 28, 29]",300,144,-1,180,4304,10,0.0
undo,29,6,0,0,0,3,"[0, 3]",2,28,"[1, 2, 4, 5, 6, 7, 8, 9, 10, 11, 12, 13, 14, 15, 16, 17, 18, 19, 20, 21, 22, 23, 24, 25, 26, 27, 28, 29]",266.4738908,2584,2440,90,1607,10,1.0
undo,29,6,0,0,0,18,"[0, 3, 18]",3,27,"[1, 2, 4, 5, 6, 7, 8, 9, 10, 11, 12, 13, 14, 15, 16, 17, 19, 20, 21, 22, 23, 24, 25, 26, 27, 28, 29]",237.4738908,3573,989,34,516,10,1.0266750028725786
undo,29,6,0,0,0,17,"[0, 3, 18, 17]",4,26,"[1, 2, 4, 5, 6, 7, 8, 9, 10, 11, 12, 13, 14, 15, 16, 19, 20, 21, 22, 23, 24, 25, 26, 27, 28, 29]",223.5455025,4217,644,17,243,10,1.0832900829093166
undo,29,6,0,0,0,10,"[0, 3, 18, 17, 10]",5,22,"[1, 2, 4, 5, 6, 7, 8, 9, 11, 13, 14, 16, 19, 20, 21, 22, 23, 24, 26, 27, 28, 29]",203.8224196,5069,852,10,111,10,1.140294203414171
undo,29,6,0,0,0,24,"[0, 3, 18, 17, 10, 24]",6,19,"[1, 2, 4, 5, 6, 7, 8, 11, 13, 14, 16, 20, 21, 22, 23, 26, 27, 28, 29]",190.4060117,7079,2010,10,80,10,1.1264281153820843
undo,29,6,0,0,0,7,"[0, 3, 18, 17, 10, 24, 7]",7,7,"[1, 2, 8, 13, 16, 26, 29]",119.4694203,10125,3046,7,2,9,3.7594224039448885
undo,29,6,0,0,0,26,"[0, 3, 18, 17, 10, 24, 7, 26]",8,3,"[1, 2, 13]",95.38623114,11575,1450,3,0,9,4.113722643581588
undo,29,6,0,0,1,2,"[0, 3, 18, 17, 10, 24, 7, 26, 2]",9,0,[],65.55336336,13096,1521,1,0,9,2.9556271670125684
undo,29,6,1,0,0,26,"[0, 3, 18, 17, 10, 24, 7, 26]",8,3,"[1, 2, 13]",95.38623114,15297,2201,3,0,9,4.113722643581588
undo,29,6,0,1,0,26,"[0, 3, 18, 17, 10, 24, 7, 26]",8,3,"[1, 2, 13]",95.38623114,16512,1215,3,0,9,4.113722643581588
undo,30,42,0,0,0,0,[0],1,29,"[1, 2, 3, 4, 5, 6, 7, 8, 9, 10, 11, 12, 13, 14, 15, 16, 17, 18, 19, 20, 21, 22, 23, 24, 25, 26, 27, 28, 29]",300,145,-1,16,302,9,0.0
undo,30,42,0,0,0,25,"[0, 25]",2,27,"[1, 2, 3, 4, 5, 6, 7, 8, 9, 10, 11, 12, 13, 15, 16, 17, 18, 19, 20, 21, 22, 23, 24, 26, 27, 28, 29]",270.2678625,11059,10914,3,59,9,1.0
undo,30,42,0,0,0,29,"[0, 25, 29]",3,22,"[1, 2, 3, 4, 5, 6, 7, 8, 9, 11, 13, 15, 16, 17, 18, 20, 21, 22, 23, 24, 26, 27]",247.0730355,12025,966,1,23,9,1.0472889958702385
undo,30,42,0,0,0,4,"[0, 25, 29, 4]",4,14,"[1, 2, 3, 5, 7, 8, 11, 15, 18, 20, 22, 24, 26, 27]",140.6916461,13108,1083,1,11,9,1.7608777599021395
undo,30,42,0,0,0,22,"[0, 25, 29, 4, 22]",5,12,"[1, 2, 3, 5, 7, 8, 11, 15, 18, 24, 26, 27]",129.5113063,14894,1786,1,8,9,1.9242467193380144
undo,30,42,0,0,0,8,"[0, 25, 29, 4, 22, 8]",6,9,"[1, 2, 3, 5, 7, 15, 24, 26, 27]",107.3753626,15808,914,1,5,9,1.7915664342589837
undo,30,42,0,0,0,5,"[0, 25, 29, 4, 22, 8, 5]",7,1,[1],72.89348334,17093,1285,1,0,8,2.0891805713923155
undo,30,42,0,1,0,5,"[0, 25, 29, 4, 22, 8, 5]",7,1,[1],72.89348334,20059,2966,1,0,8,2.0891805713923155
undo,31,40,0,0,0,0,[0],1,29,"[1, 2, 3, 4, 5, 6, 7, 8, 9, 10, 11, 12, 13, 14, 15, 16, 17, 18, 19, 20, 21, 22, 23, 24, 25, 26, 27, 28, 29]",300,145,-1,8,191,9,0.0
undo,31,40,0,0,0,2,"[0, 2]",2,28,"[1, 3, 4, 5, 6, 7, 8, 9, 10, 11, 12, 13, 14, 15, 16, 17, 18, 19, 20, 21, 22, 23, 24, 25, 26, 27, 28, 29]",263.7646581,4056,3911,4,79,9,1.0
undo,31,40,0,0,0,19,"[0, 2, 19]",3,22,"[1, 5, 6, 7, 8, 9, 10, 11, 13, 14, 15, 17, 18, 20, 21, 22, 23, 24, 25, 26, 27, 29]",194.4249148,5314,1258,19,105,8,1.02908296307533
undo,31,40,0,0,0,23,"[0, 2, 19, 23]",4,15,"[1, 5, 6, 7, 8, 9, 10, 11, 13, 17, 18, 21, 22, 27, 29]",162.4718242,8612,3298,11,38,8,1.4499965171787688
undo,31,40,0,0,0,18,"[0, 2, 19, 23, 18]",5,8,"[1, 5, 6, 8, 9, 21, 22, 27]",128.4718242,9695,1083,5,10,8,1.4480237361310007
undo,31,40,0,0,0,9,"[0, 2, 19, 23, 18, 9]",6,5,"[1, 5, 6, 21, 22]",111.9188789,10741,1046,4,1,8,1.5250377629588554
undo,31,40,0,0,0,21,"[0, 2, 19, 23, 18, 9, 21]",7,1,[6],66.21329934,11909,1168,1,0,8,1.940088490607284
undo,31,40,0,1,0,21,"[0, 2, 19, 23, 18, 9, 21]",7,1,[6],66.21329934,12733,824,1,0,8,1.940088490607284
undo,32,8,0,0,0,0,[0],1,29,"[1, 2, 3, 4, 5, 6, 7, 8, 9, 10, 11, 12, 13, 14, 15, 16, 17, 18, 19, 20, 21, 22, 23, 24, 25, 26, 27, 28, 29]",300,161,-1,10,149,9,0.0
undo,32,8,0,0,0,6,"[0, 6]",2,28,"[1, 2, 3, 4, 5, 7, 8, 9, 10, 11, 12, 13, 14, 15, 16, 17, 18, 19, 20, 21, 22, 23, 24, 25, 26, 27, 28, 29]",257.8929935,3532,3371,12,179,8,1.0
undo,32,8,0,0,0,20,"[0, 6, 20]",3,19,"[1, 2, 3, 4, 5, 10, 11, 12, 13, 14, 17, 18, 19, 21, 22, 23, 25, 28, 29]",224.9992251,4550,1018,1,39,8,1.0090196160774303
undo,32,8,0,0,0,29,"[0, 6, 20, 29]",4,6,"[1, 3, 12, 21, 23, 25]",161.6115291,5711,1161,6,0,5,1.005644125733414
undo,32,8,1,0,0,20,"[0, 6, 20]",3,19,"[1, 2, 3, 4, 5, 10, 11, 12, 13, 14, 17, 18, 19, 21, 22, 23, 25, 28, 29]",224.9992251,10801,5090,1,39,8,1.0090196160774303
undo,32,8,1,0,0,6,"[0, 6]",2,28,"[1, 2, 3, 4, 5, 7, 8, 9, 10, 11, 12, 13, 14, 15, 16, 17, 18, 19, 20, 21, 22, 23, 24, 25, 26, 27, 28, 29]",257.8929935,11268,467,12,179,8,1.0
undo,32,8,1,0,0,0,[0],1,29,"[1, 2, 3, 4, 5, 6, 7, 8, 9, 10, 11, 12, 13, 14, 15, 16, 17, 18, 19, 20, 21, 22, 23, 24, 25, 26, 27, 28, 29]",300,11801,533,10,149,9,0.0
undo,32,8,0,0,0,5,"[0, 5]",2,28,"[1, 2, 3, 4, 6, 7, 8, 9, 10, 11, 12, 13, 14, 15, 16, 17, 18, 19, 20, 21, 22, 23, 24, 25, 26, 27, 28, 29]",254.5137383,13765,1964,10,100,9,1.0
undo,32,8,0,0,0,25,"[0, 5, 25]",3,20,"[1, 2, 3, 4, 6, 11, 12, 14, 15, 16, 17, 18, 19, 20, 21, 22, 23, 24, 28, 29]",215.3091468,15138,1373,4,42,9,1.2272747879909065
undo,32,8,0,0,0,1,"[0, 5, 25, 1]",4,17,"[3, 4, 6, 11, 12, 14, 15, 16, 17, 18, 20, 21, 22, 23, 24, 28, 29]",190.3091468,16487,1349,3,24,9,1.1770245007593956
undo,32,8,0,0,0,23,"[0, 5, 25, 1, 23]",5,15,"[3, 4, 6, 11, 14, 15, 16, 17, 18, 20, 21, 22, 24, 28, 29]",167.2874179,17270,783,1,14,9,1.141996583852372
undo,32,8,0,0,0,18,"[0, 5, 25, 1, 23, 18]",6,9,"[3, 4, 11, 14, 15, 16, 17, 24, 28]",125.5261919,18141,871,1,7,9,1.3199166330970717
undo,32,8,0,0,0,4,"[0, 5, 25, 1, 23, 18, 4]",7,1,[3],82.51456553,19333,1192,1,0,8,1.3326623611480932
undo,32,8,0,1,0,4,"[0, 5, 25, 1, 23, 18, 4]",7,1,[3],82.51456553,21125,1792,1,0,8,1.3326623611480932
undo,33,39,0,0,0,0,[0],1,28,"[1, 2, 3, 4, 5, 6, 7, 9, 10, 11, 12, 13, 14, 15, 16, 17, 18, 19, 20, 21, 22, 23, 24, 25, 26, 27, 28, 29]",300,146,-1,1,30,10,0.0
undo,33,39,0,0,0,29,"[0, 29]",2,26,"[1, 2, 3, 4, 5, 6, 7, 9, 10, 12, 13, 14, 15, 16, 17, 18, 19, 20, 21, 22, 23, 24, 25, 26, 27, 28]",243.0614366,9111,8965,8,104,9,1.0
undo,33,39,0,0,0,12,"[0, 29, 12]",3,18,"[1, 2, 4, 5, 7, 9, 10, 13, 14, 15, 16, 18, 19, 22, 23, 24, 26, 28]",182.5221931,10408,1297,5,54,9,1.0026200331524904
undo,33,39,0,0,0,10,"[0, 29, 12, 10]",4,16,"[1, 2, 4, 5, 7, 9, 13, 14, 15, 16, 18, 19, 22, 23, 24, 26]",147.0116313,11441,1033,5,34,9,1.2874817019928908
undo,33,39,0,0,0,7,"[0, 29, 12, 10, 7]",5,10,"[1, 2, 5, 13, 16, 18, 19, 22, 24, 26]",113.5900814,12672,1231,4,12,9,1.2250826263866774
undo,33,39,0,0,0,26,"[0, 29, 12, 10, 7, 26]",6,5,"[1, 16, 18, 19, 22]",94.90853971,13740,1068,3,4,9,1.2697275353190085
undo,33,39,0,0,0,22,"[0, 29, 12, 10, 7, 26, 22]",7,2,"[16, 19]",77.18849457,14804,1064,2,0,9,1.438961743955176
undo,33,39,0,0,0,16,"[0, 29, 12, 10, 7, 26, 22, 16]",8,1,[19],42.18849457,18724,3920,1,0,9,1.3580882130477205
undo,33,39,0,0,1,19,"[0, 29, 12, 10, 7, 26, 22, 16, 19]",9,0,[],24.72424537,20924,2200,1,0,9,1.3646589157842668
undo,33,39,1,0,0,16,"[0, 29, 12, 10, 7, 26, 22, 16]",8,1,[19],42.18849457,22374,1450,1,0,9,1.3580882130477205
undo,33,39,0,1,0,16,"[0, 29, 12, 10, 7, 26, 22, 16]",8,1,[19],42.18849457,26653,4279,1,0,9,1.3580882130477205
undo,34,44,0,0,0,0,[0],1,29,"[1, 2, 3, 4, 5, 6, 7, 8, 9, 10, 11, 12, 13, 14, 15, 16, 17, 18, 19, 20, 21, 22, 23, 24, 25, 26, 27, 28, 29]",300,210,-1,13,126,7,0.0
undo,34,44,0,0,0,11,"[0, 11]",2,18,"[4, 5, 6, 7, 8, 9, 12, 14, 16, 17, 19, 20, 22, 23, 24, 25, 26, 28]",152.7790776,10125,9915,5,34,7,1.0
undo,34,44,0,0,0,24,"[0, 11, 24]",3,13,"[4, 5, 7, 8, 9, 12, 14, 17, 20, 22, 23, 25, 28]",125.8532535,11114,989,5,23,7,1.1588941745226709
undo,34,44,0,0,0,9,"[0, 11, 24, 9]",4,7,"[4, 7, 8, 12, 14, 20, 23]",93.09657483,11882,768,2,8,7,1.3039383713641313
undo,34,44,0,0,0,4,"[0, 11, 24, 9, 4]",5,5,"[7, 12, 14, 20, 23]",73.39885923,12670,788,2,3,7,1.2901330701441578
undo,34,44,0,0,0,7,"[0, 11, 24, 9, 4, 7]",6,1,[23],42.38273439,14095,1425,1,0,7,1.2468141312360979
undo,34,44,0,0,1,23,"[0, 11, 24, 9, 4, 7, 23]",7,0,[],23.27776121,16176,2081,1,0,7,1.2635191782769477
undo,34,44,1,0,0,7,"[0, 11, 24, 9, 4, 7]",6,1,[23],42.38273439,18176,2000,1,0,7,1.2468141312360979
undo,34,44,0,1,0,7,"[0, 11, 24, 9, 4, 7]",6,1,[23],42.38273439,20041,1865,1,0,7,1.2468141312360979
undo,35,26,0,0,0,0,[0],1,29,"[1, 2, 3, 4, 5, 6, 7, 8, 9, 10, 11, 12, 13, 14, 15, 16, 17, 18, 19, 20, 21, 22, 23, 24, 25, 26, 27, 28, 29]",300,129,-1,9,226,9,0.0
undo,35,26,0,0,0,16,"[0, 16]",2,17,"[3, 4, 5, 6, 10, 11, 12, 13, 14, 17, 18, 19, 21, 22, 23, 26, 29]",188.0535842,6019,5890,34,176,8,1.0
undo,35,26,0,0,0,29,"[0, 16, 29]",3,12,"[4, 5, 6, 10, 12, 13, 14, 17, 19, 21, 23, 26]",163.8461474,7331,1312,32,68,8,1.1142946124989752
undo,35,26,0,0,0,4,"[0, 16, 29, 4]",4,9,"[5, 6, 10, 12, 13, 14, 17, 21, 23]",139.8461474,8281,950,17,7,8,1.3213762371676339
undo,35,26,0,0,0,17,"[0, 16, 29, 4, 17]",5,5,"[6, 10, 14, 21, 23]",118.7511243,10277,1996,6,0,8,1.2756100061290643
undo,35,26,0,0,0,14,"[0, 16, 29, 4, 17, 14]",6,2,"[6, 10]",96.27891921,11142,865,2,0,8,1.264154039440982
undo,35,26,0,0,0,6,"[0, 16, 29, 4, 17, 14, 6]",7,1,[10],75.25512317,12458,1316,1,0,8,1.3993089646092733
undo,35,26,0,0,1,10,"[0, 16, 29, 4, 17, 14, 6, 10]",8,0,[],45.98056083,13426,968,1,0,8,1.5697867669370302
undo,35,26,1,0,0,6,"[0, 16, 29, 4, 17, 14, 6]",7,1,[10],75.25512317,14866,1440,1,0,8,1.3993089646092733
undo,35,26,0,1,0,6,"[0, 16, 29, 4, 17, 14, 6]",7,1,[10],75.25512317,15698,832,1,0,8,1.3993089646092733
undo,36,4,0,0,0,0,[0],1,26,"[3, 4, 5, 6, 7, 8, 10, 11, 12, 13, 14, 15, 16, 17, 18, 19, 20, 21, 22, 23, 24, 25, 26, 27, 28, 29]",300,162,-1,4,489,10,0.0
undo,36,4,0,0,0,23,"[0, 23]",2,20,"[3, 4, 5, 6, 7, 10, 11, 12, 13, 14, 15, 16, 17, 19, 20, 21, 22, 25, 26, 28]",258.0238163,3187,3025,27,227,8,1.0
undo,36,4,0,0,0,15,"[0, 23, 15]",3,12,"[4, 6, 7, 10, 11, 13, 14, 16, 19, 21, 25, 28]",206.0142018,6022,2835,9,19,6,1.5636093306022785
undo,36,4,1,0,0,23,"[0, 23]",2,20,"[3, 4, 5, 6, 7, 10, 11, 12, 13, 14, 15, 16, 17, 19, 20, 21, 22, 25, 26, 28]",258.0238163,9720,3698,27,227,8,1.0
undo,36,4,1,0,0,0,[0],1,26,"[3, 4, 5, 6, 7, 8, 10, 11, 12, 13, 14, 15, 16, 17, 18, 19, 20, 21, 22, 23, 24, 25, 26, 27, 28, 29]",300,10270,550,4,489,10,0.0
undo,36,4,0,0,0,28,"[0, 28]",2,21,"[3, 4, 5, 6, 10, 11, 12, 13, 14, 15, 16, 17, 19, 20, 21, 22, 23, 24, 25, 26, 27]",225.9392142,13040,2770,2,216,10,1.0
undo,36,4,0,0,0,11,"[0, 28, 11]",3,16,"[3, 4, 5, 6, 12, 13, 14, 16, 17, 20, 21, 22, 23, 24, 25, 26]",177.0618165,13874,834,1,99,10,1.0005230107421244
undo,36,4,0,0,0,16,"[0, 28, 11, 16]",4,13,"[3, 4, 5, 6, 12, 13, 14, 17, 20, 21, 22, 24, 25]",162.0618165,16654,2780,38,165,9,1.0006824277240565
undo,36,4,0,0,0,25,"[0, 28, 11, 16, 25]",5,10,"[3, 4, 5, 6, 13, 14, 17, 20, 21, 22]",140.5211573,17565,911,15,40,9,1.2576116431130224
undo,36,4,0,0,0,14,"[0, 28, 11, 16, 25, 14]",6,9,"[3, 4, 5, 6, 13, 17, 20, 21, 22]",124.3966418,18972,1407,9,13,9,1.2858936228570335
undo,36,4,0,0,0,3,"[0, 28, 11, 16, 25, 14, 3]",7,4,"[17, 20, 21, 22]",82.95994308,20187,1215,3,3,9,1.2444008233680606
undo,36,4,0,0,0,17,"[0, 28, 11, 16, 25, 14, 3, 17]",8,3,"[20, 21, 22]",58.44464174,23464,3277,3,0,9,1.4736383799835773
undo,36,4,0,1,0,17,"[0, 28, 11, 16, 25, 14, 3, 17]",8,3,"[20, 21, 22]",58.44464174,25472,2008,3,0,9,1.4736383799835773
undo,37,24,0,0,0,0,[0],1,29,"[1, 2, 3, 4, 5, 6, 7, 8, 9, 10, 11, 12, 13, 14, 15, 16, 17, 18, 19, 20, 21, 22, 23, 24, 25, 26, 27, 28, 29]",300,193,-1,4,76,10,0.0
undo,37,24,0,0,0,16,"[0, 16]",2,28,"[1, 2, 3, 4, 5, 6, 7, 8, 9, 10, 11, 12, 13, 14, 15, 17, 18, 19, 20, 21, 22, 23, 24, 25, 26, 27, 28, 29]",210.3562607,3887,3694,13,110,9,1.0
undo,37,24,0,0,0,22,"[0, 16, 22]",3,27,"[1, 2, 3, 4, 5, 6, 7, 8, 9, 10, 11, 12, 13, 14, 15, 17, 18, 19, 20, 21, 23, 24, 25, 26, 27, 28, 29]",192.3285043,4705,818,7,54,9,1.0217425143037777
undo,37,24,0,0,0,8,"[0, 16, 22, 8]",4,21,"[1, 2, 3, 4, 6, 9, 10, 11, 13, 14, 15, 17, 20, 21, 23, 24, 25, 26, 27, 28, 29]",178.9120964,6833,2128,4,28,9,1.0996636936037951
undo,37,24,0,0,0,15,"[0, 16, 22, 8, 15]",5,16,"[3, 4, 6, 9, 10, 11, 13, 14, 17, 23, 24, 25, 26, 27, 28, 29]",148.025206,9342,2509,3,17,9,1.2704773343758617
undo,37,24,0,0,0,28,"[0, 16, 22, 8, 15, 28]",6,8,"[3, 4, 9, 11, 13, 23, 26, 27]",102.7482803,11378,2036,3,5,9,1.1981967578189556
undo,37,24,0,0,0,23,"[0, 16, 22, 8, 15, 28, 23]",7,3,"[9, 11, 27]",83.72198273,12363,985,3,1,9,1.2275650852813986
undo,37,24,0,0,0,11,"[0, 16, 22, 8, 15, 28, 23, 11]",8,2,"[9, 27]",56.79615869,13905,1542,2,0,9,1.2107937989822568
undo,37,24,0,0,1,27,"[0, 16, 22, 8, 15, 28, 23, 11, 27]",9,0,[],28.99328114,15321,1416,1,0,9,1.1865620449755248
undo,37,24,1,0,0,11,"[0, 16, 22, 8, 15, 28, 23, 11]",8,2,"[9, 27]",56.79615869,16728,1407,2,0,9,1.2107937989822568
undo,37,24,0,0,1,9,"[0, 16, 22, 8, 15, 28, 23, 11, 9]",9,0,[],24.5471277,18384,1656,1,0,9,1.2976612913524237
undo,37,24,0,1,1,9,"[0, 16, 22, 8, 15, 28, 23, 11, 9]",9,0,[],24.5471277,19975,1591,1,0,9,1.2976612913524237
undo,38,0,0,0,0,0,[0],1,27,"[2, 3, 4, 5, 6, 7, 8, 9, 10, 11, 12, 13, 14, 15, 16, 17, 19, 20, 21, 22, 23, 24, 25, 26, 27, 28, 29]",300,161,-1,104,1136,9,0.0
undo,38,0,0,0,0,5,"[0, 5]",2,24,"[2, 3, 4, 7, 8, 9, 11, 12, 13, 14, 15, 16, 17, 19, 20, 21, 22, 23, 24, 25, 26, 27, 28, 29]",164.5156836,8393,8232,5,112,9,1.0
undo,38,0,0,0,0,4,"[0, 5, 4]",3,20,"[2, 3, 7, 8, 9, 11, 12, 13, 14, 15, 17, 19, 20, 21, 22, 23, 24, 25, 26, 28]",139.4358112,12018,3625,4,61,9,1.0257023158632692
undo,38,0,0,0,0,26,"[0, 5, 4, 26]",4,18,"[3, 7, 8, 9, 11, 12, 13, 14, 15, 17, 19, 20, 21, 22, 23, 24, 25, 28]",127.3942166,14796,2778,4,26,9,1.0684029773259323
undo,38,0,0,0,0,24,"[0, 5, 4, 26, 24]",5,12,"[3, 7, 8, 9, 11, 12, 15, 17, 19, 20, 23, 28]",110.2769738,17308,2512,4,16,9,1.1372083333602885
undo,38,0,0,0,0,15,"[0, 5, 4, 26, 24, 15]",6,8,"[3, 7, 8, 9, 11, 12, 17, 19]",86.93173875,18801,1493,4,7,9,1.1271717591548023
undo,38,0,0,0,0,8,"[0, 5, 4, 26, 24, 15, 8]",7,3,"[3, 7, 19]",47.81652432,21582,2781,1,2,9,1.1335949411162043
undo,38,0,0,0,0,7,"[0, 5, 4, 26, 24, 15, 8, 7]",8,1,[3],28.71155114,23137,1555,1,0,9,1.3232953120440094
undo,38,0,0,0,1,3,"[0, 5, 4, 26, 24, 15, 8, 7, 3]",9,0,[],4.628361986,25118,1981,1,0,9,1.3626652341047705
undo,38,0,1,0,0,7,"[0, 5, 4, 26, 24, 15, 8, 7]",8,1,[3],28.71155114,26504,1386,1,0,9,1.3232953120440094
undo,38,0,0,1,0,7,"[0, 5, 4, 26, 24, 15, 8, 7]",8,1,[3],28.71155114,36477,9973,1,0,9,1.3232953120440094
undo,39,11,0,0,0,0,[0],1,25,"[1, 2, 3, 4, 5, 6, 8, 9, 10, 11, 12, 13, 14, 15, 16, 17, 18, 19, 20, 22, 23, 25, 26, 27, 28]",300,145,-1,6,374,12,0.0
undo,39,11,0,0,0,18,"[0, 18]",2,21,"[1, 2, 4, 5, 6, 8, 9, 11, 12, 13, 14, 15, 16, 17, 19, 20, 22, 23, 25, 27, 28]",236.8493864,7037,6892,157,1477,11,1.0
undo,39,11,0,0,0,27,"[0, 18, 27]",3,19,"[1, 2, 4, 5, 6, 8, 9, 11, 12, 14, 15, 16, 17, 19, 20, 22, 23, 25, 28]",212.9956655,8095,1058,157,1315,11,1.060949579704323
undo,39,11,0,0,0,17,"[0, 18, 27, 17]",4,14,"[1, 2, 4, 5, 6, 8, 11, 12, 15, 19, 22, 23, 25, 28]",135.9177828,9501,1406,46,349,11,1.1156120043677304
undo,39,11,0,0,0,8,"[0, 18, 27, 17, 8]",5,11,"[1, 2, 5, 6, 11, 12, 15, 19, 22, 25, 28]",121.5999617,10309,808,26,143,11,1.2285932943120847
undo,39,11,0,0,0,15,"[0, 18, 27, 17, 8, 15]",6,9,"[2, 5, 6, 11, 12, 19, 22, 25, 28]",108.1463377,11783,1474,24,54,11,1.223015425852291
undo,39,11,0,0,0,11,"[0, 18, 27, 17, 8, 15, 11]",7,6,"[2, 5, 12, 19, 22, 28]",90.03556742,12957,1174,22,2,11,1.2111003833550413
undo,39,11,0,0,0,28,"[0, 18, 27, 17, 8, 15, 11, 28]",8,3,"[2, 5, 22]",70.61907959,13625,668,6,0,11,1.3274100985292616
undo,39,11,0,0,0,2,"[0, 18, 27, 17, 8, 15, 11, 28, 2]",9,2,"[5, 22]",59.98893377,14514,889,2,0,11,1.3446894956422268
undo,39,11,0,0,0,22,"[0, 18, 27, 17, 8, 15, 11, 28, 2, 22]",10,1,[5],49.93905815,16545,2031,1,0,11,1.3263453016852544
undo,39,11,0,1,0,22,"[0, 18, 27, 17, 8, 15, 11, 28, 2, 22]",10,1,[5],49.93905815,17746,1201,1,0,11,1.3263453016852544
undo,40,5,0,0,0,0,[0],1,29,"[1, 2, 3, 4, 5, 6, 7, 8, 9, 10, 11, 12, 13, 14, 15, 16, 17, 18, 19, 20, 21, 22, 23, 24, 25, 26, 27, 28, 29]",300,160,-1,5,139,9,0.0
undo,40,5,0,0,0,23,"[0, 23]",2,27,"[1, 2, 3, 4, 5, 6, 7, 8, 9, 10, 11, 12, 13, 14, 15, 16, 17, 18, 19, 20, 21, 22, 24, 25, 26, 27, 28]",249.8402552,6378,6218,3,75,9,1.0
undo,40,5,0,0,0,25,"[0, 23, 25]",3,23,"[1, 2, 3, 4, 5, 6, 8, 9, 10, 12, 13, 14, 15, 16, 17, 18, 19, 21, 22, 24, 26, 27, 28]",231.4011663,7384,1006,3,43,9,1.0923159590575564
undo,40,5,0,0,0,24,"[0, 23, 25, 24]",4,21,"[2, 3, 4, 5, 6, 8, 9, 10, 12, 13, 14, 15, 16, 17, 18, 19, 21, 22, 26, 27, 28]",206.5616816,8145,761,3,25,9,1.2901858295679272
undo,40,5,0,0,0,17,"[0, 23, 25, 24, 17]",5,13,"[4, 5, 6, 8, 12, 13, 14, 15, 18, 19, 22, 26, 27]",171.5759702,9765,1620,3,14,9,1.2027484907982513
undo,40,5,0,0,0,5,"[0, 23, 25, 24, 17, 5]",6,7,"[4, 6, 8, 12, 15, 18, 19]",128.5294837,12626,2861,3,4,9,1.1472230681682432
undo,40,5,0,0,0,15,"[0, 23, 25, 24, 17, 5, 15]",7,1,[18],88.50449151,13743,1117,1,0,8,1.196858948062182
undo,40,5,1,0,0,5,"[0, 23, 25, 24, 17, 5]",6,7,"[4, 6, 8, 12, 15, 18, 19]",128.5294837,21091,7348,3,4,9,1.1472230681682432
undo,40,5,0,0,0,4,"[0, 23, 25, 24, 17, 5, 4]",7,2,"[6, 18]",62.7267482,22830,1739,1,1,9,1.354057663440583
undo,40,5,0,0,0,6,"[0, 23, 25, 24, 17, 5, 4, 6]",8,1,[18],50.68515362,23900,1070,1,0,9,1.492903271736527
undo,40,5,0,1,0,6,"[0, 23, 25, 24, 17, 5, 4, 6]",8,1,[18],50.68515362,25953,2053,1,0,9,1.492903271736527
undo,41,31,0,0,0,0,[0],1,27,"[1, 3, 4, 5, 6, 7, 8, 10, 11, 12, 13, 14, 15, 16, 17, 18, 19, 20, 21, 22, 23, 24, 25, 26, 27, 28, 29]",300,160,-1,2,87,10,0.0
undo,41,31,0,0,0,14,"[0, 14]",2,25,"[1, 3, 5, 6, 7, 8, 10, 11, 12, 13, 15, 16, 17, 18, 19, 20, 21, 22, 23, 24, 25, 26, 27, 28, 29]",263.861378,4904,4744,2,59,10,1.0
undo,41,31,0,0,0,27,"[0, 14, 27]",3,22,"[1, 3, 5, 6, 7, 8, 10, 11, 12, 13, 15, 16, 17, 18, 19, 20, 21, 22, 24, 25, 28, 29]",235.6833724,5845,941,1,39,10,1.5881859159302467
undo,41,31,0,0,0,8,"[0, 14, 27, 8]",4,20,"[1, 3, 5, 6, 7, 10, 11, 12, 13, 16, 17, 18, 19, 20, 21, 22, 24, 25, 28, 29]",224.6380114,6587,742,1,36,10,2.1665048452331277
undo,41,31,0,0,0,18,"[0, 14, 27, 8, 18]",5,15,"[1, 5, 6, 7, 11, 12, 13, 16, 17, 19, 20, 22, 25, 28, 29]",188.7911147,9561,2974,1,26,10,1.7273375741920205
undo,41,31,0,0,0,11,"[0, 14, 27, 8, 18, 11]",6,11,"[1, 5, 7, 12, 16, 17, 19, 20, 22, 25, 28]",153.9055876,11682,2121,13,17,9,2.386348208737804
undo,41,31,0,0,0,5,"[0, 14, 27, 8, 18, 11, 5]",7,5,"[16, 17, 20, 25, 28]",110.2249283,12672,990,3,3,9,2.163249612867222
undo,41,31,0,0,0,28,"[0, 14, 27, 8, 18, 11, 5, 28]",8,2,"[16, 17]",90.00117988,13789,1117,2,0,9,1.9564635733184719
undo,41,31,0,0,1,16,"[0, 14, 27, 8, 18, 11, 5, 28, 16]",9,0,[],56.38570725,14654,865,1,0,9,1.824071502589619
undo,41,31,1,0,0,28,"[0, 14, 27, 8, 18, 11, 5, 28]",8,2,"[16, 17]",90.00117988,16595,1941,2,0,9,1.9564635733184719
undo,41,31,0,1,0,28,"[0, 14, 27, 8, 18, 11, 5, 28]",8,2,"[16, 17]",90.00117988,26352,9757,2,0,9,1.9564635733184719
undo,42,41,0,0,0,0,[0],1,29,"[1, 2, 3, 4, 5, 6, 7, 8, 9, 10, 11, 12, 13, 14, 15, 16, 17, 18, 19, 20, 21, 22, 23, 24, 25, 26, 27, 28, 29]",300,162,-1,1,143,10,0.0
undo,42,41,0,0,0,13,"[0, 13]",2,23,"[1, 2, 3, 5, 6, 7, 9, 10, 11, 12, 14, 15, 17, 18, 19, 20, 21, 22, 24, 25, 26, 27, 28]",258.2747079,3216,3054,1,55,10,1.0
undo,42,41,0,0,0,28,"[0, 13, 28]",3,22,"[1, 2, 3, 5, 6, 7, 9, 10, 11, 12, 14, 15, 17, 18, 19, 20, 21, 22, 24, 25, 26, 27]",223.7928286,4209,993,1,39,10,1.895724242592676
undo,42,41,0,0,0,5,"[0, 13, 28, 5]",4,19,"[1, 2, 3, 6, 9, 10, 11, 12, 14, 15, 17, 18, 19, 20, 21, 22, 24, 25, 27]",210.1913581,5102,893,1,34,10,2.861541269398273
undo,42,41,0,0,0,3,"[0, 13, 28, 5, 3]",5,16,"[1, 2, 6, 9, 10, 12, 14, 17, 18, 19, 20, 21, 22, 24, 25, 27]",175.3632086,6135,1033,1,22,10,3.1455488489005883
undo,42,41,0,0,0,22,"[0, 13, 28, 5, 3, 22]",6,10,"[2, 6, 9, 10, 12, 17, 18, 20, 21, 25]",145.3965604,7163,1028,1,7,10,2.241807041008432
undo,42,41,0,0,0,21,"[0, 13, 28, 5, 3, 22, 21]",7,4,"[2, 9, 12, 17]",94.39656044,9018,1855,1,5,10,4.206513633906409
undo,42,41,0,0,0,9,"[0, 13, 28, 5, 3, 22, 21, 9]",8,2,"[2, 17]",45.03058025,10394,1376,1,1,10,3.098343902653451
undo,42,41,0,0,0,2,"[0, 13, 28, 5, 3, 22, 21, 9, 2]",9,1,[17],32.94753428,11280,886,1,0,10,2.9516218867624824
undo,42,41,0,1,0,2,"[0, 13, 28, 5, 3, 22, 21, 9, 2]",9,1,[17],32.94753428,12568,1288,1,0,10,2.9516218867624824
undo,43,38,0,0,0,0,[0],1,29,"[1, 2, 3, 4, 5, 6, 7, 8, 9, 10, 11, 12, 13, 14, 15, 16, 17, 18, 19, 20, 21, 22, 23, 24, 25, 26, 27, 28, 29]",300,145,-1,33,506,9,0.0
undo,43,38,0,0,0,15,"[0, 15]",2,24,"[1, 2, 3, 4, 5, 6, 7, 10, 11, 12, 13, 14, 16, 17, 18, 19, 20, 21, 22, 24, 25, 26, 27, 28]",226.6242547,3956,3811,26,315,8,1.0
undo,43,38,0,0,0,4,"[0, 15, 4]",3,21,"[1, 3, 5, 6, 7, 10, 11, 12, 13, 14, 16, 17, 18, 19, 20, 22, 24, 25, 26, 27, 28]",200.6242547,4919,963,13,104,8,1.4173413634934033
undo,43,38,0,0,0,20,"[0, 15, 4, 20]",4,16,"[3, 5, 6, 7, 11, 13, 14, 16, 17, 18, 19, 22, 24, 26, 27, 28]",166.6831292,6163,1244,6,33,8,2.4756321407912334
undo,43,38,0,0,0,17,"[0, 15, 4, 20, 17]",5,13,"[3, 5, 6, 11, 13, 16, 18, 19, 22, 24, 26, 27, 28]",142.9134005,7118,955,5,14,8,2.4236103458312424
undo,43,38,0,0,0,19,"[0, 15, 4, 20, 17, 19]",6,7,"[3, 6, 13, 18, 22, 26, 27]",121.5358422,8312,1194,4,4,8,2.216988824378052
undo,43,38,0,0,0,13,"[0, 15, 4, 20, 17, 19, 13]",7,1,[26],44.84164426,10078,1766,1,0,8,2.610460802264847
undo,43,38,0,0,1,26,"[0, 15, 4, 20, 17, 19, 13, 26]",8,0,[],13.79329487,11275,1197,1,0,8,2.2733440683458648
undo,43,38,1,0,0,13,"[0, 15, 4, 20, 17, 19, 13]",7,1,[26],44.84164426,13383,2108,1,0,8,2.610460802264847
undo,43,38,1,0,0,19,"[0, 15, 4, 20, 17, 19]",6,7,"[3, 6, 13, 18, 22, 26, 27]",121.5358422,26354,12971,4,4,8,2.216988824378052
undo,43,38,0,0,0,27,"[0, 15, 4, 20, 17, 19, 27]",7,2,"[3, 22]",55.67993891,29808,3454,2,0,8,1.684325175705508
undo,43,38,0,0,1,22,"[0, 15, 4, 20, 17, 19, 27, 22]",8,0,[],27.04429679,31399,1591,1,0,8,1.5866032032177348
undo,43,38,1,0,0,27,"[0, 15, 4, 20, 17, 19, 27]",7,2,"[3, 22]",55.67993891,41040,9641,2,0,8,1.684325175705508
undo,43,38,1,0,0,19,"[0, 15, 4, 20, 17, 19]",6,7,"[3, 6, 13, 18, 22, 26, 27]",121.5358422,41923,883,4,4,8,2.216988824378052
undo,43,38,1,0,0,17,"[0, 15, 4, 20, 17]",5,13,"[3, 5, 6, 11, 13, 16, 18, 19, 22, 24, 26, 27, 28]",142.9134005,42222,299,5,14,8,2.4236103458312424
undo,43,38,1,0,0,20,"[0, 15, 4, 20]",4,16,"[3, 5, 6, 7, 11, 13, 14, 16, 17, 18, 19, 22, 24, 26, 27, 28]",166.6831292,42589,367,6,33,8,2.4756321407912334
undo,43,38,1,0,0,4,"[0, 15, 4]",3,21,"[1, 3, 5, 6, 7, 10, 11, 12, 13, 14, 16, 17, 18, 19, 20, 22, 24, 25, 26, 27, 28]",200.6242547,42922,333,13,104,8,1.4173413634934033
undo,43,38,1,0,0,15,"[0, 15]",2,24,"[1, 2, 3, 4, 5, 6, 7, 10, 11, 12, 13, 14, 16, 17, 18, 19, 20, 21, 22, 24, 25, 26, 27, 28]",226.6242547,43421,499,26,315,8,1.0
undo,43,38,1,0,0,0,[0],1,29,"[1, 2, 3, 4, 5, 6, 7, 8, 9, 10, 11, 12, 13, 14, 15, 16, 17, 18, 19, 20, 21, 22, 23, 24, 25, 26, 27, 28, 29]",300,43837,416,33,506,9,0.0
undo,43,38,0,0,0,11,"[0, 11]",2,23,"[1, 2, 3, 4, 5, 7, 10, 12, 13, 14, 15, 16, 17, 18, 19, 20, 21, 22, 24, 25, 26, 27, 28]",220.093805,47841,4004,2,40,9,1.0
undo,43,38,0,0,0,28,"[0, 11, 28]",3,16,"[1, 4, 5, 7, 10, 12, 13, 14, 15, 16, 17, 19, 20, 21, 24, 26]",193.0752928,49589,1748,2,20,9,1.0012220945316377
undo,43,38,0,0,0,16,"[0, 11, 28, 16]",4,13,"[1, 4, 5, 10, 12, 13, 14, 15, 17, 19, 20, 24, 26]",164.0752928,50813,1224,2,16,9,1.2422672958602723
undo,43,38,0,0,0,15,"[0, 11, 28, 16, 15]",5,9,"[4, 5, 13, 14, 17, 19, 20, 24, 26]",122.4579887,51921,1108,2,14,9,2.4196280466601676
undo,43,38,0,0,0,4,"[0, 11, 28, 16, 15, 4]",6,6,"[13, 17, 19, 20, 24, 26]",96.45798873,52739,818,2,9,9,2.9030072771852855
undo,43,38,0,0,0,20,"[0, 11, 28, 16, 15, 4, 20]",7,3,"[13, 17, 19]",62.51686323,54051,1312,1,2,9,4.409951139385221
undo,43,38,0,0,0,17,"[0, 11, 28, 16, 15, 4, 20, 17]",8,1,[19],38.74713459,55017,966,1,0,9,4.030739410625113
undo,43,38,0,1,0,17,"[0, 11, 28, 16, 15, 4, 20, 17]",8,1,[19],38.74713459,56642,1625,1,0,9,4.030739410625113
undo,44,34,0,0,0,0,[0],1,25,"[1, 3, 4, 5, 6, 7, 8, 9, 10, 11, 12, 13, 15, 18, 19, 20, 21, 22, 23, 24, 25, 26, 27, 28, 29]",300,160,-1,12,367,10,0.0
undo,44,34,0,0,0,13,"[0, 13]",2,24,"[1, 3, 4, 5, 6, 7, 8, 9, 10, 11, 12, 15, 18, 19, 20, 21, 22, 23, 24, 25, 26, 27, 28, 29]",279.9750156,6503,6343,12,331,10,1.0
undo,44,34,0,0,0,1,"[0, 13, 1]",3,16,"[3, 5, 7, 8, 9, 10, 11, 12, 19, 21, 22, 23, 24, 25, 27, 29]",211.8574701,7761,1258,3,92,10,1.0010381285747127
undo,44,34,0,0,0,8,"[0, 13, 1, 8]",4,14,"[3, 5, 7, 9, 10, 11, 12, 19, 22, 23, 24, 25, 27, 29]",201.0871405,8661,900,2,54,10,1.1636807
undo,44,34,0,0,0,25,"[0, 13, 1, 8, 25]",5,12,"[3, 5, 7, 9, 10, 11, 12, 22, 23, 24, 27, 29]",183.999133,9676,1015,2,28,10,1.1396208815936457
undo,44,34,0,0,0,24,"[0, 13, 1, 8, 25, 24]",6,11,"[3, 5, 7, 9, 10, 11, 12, 22, 23, 27, 29]",166.5062774,10531,855,2,23,10,1.374180768736554
undo,44,34,0,0,0,12,"[0, 13, 1, 8, 25, 24, 12]",7,7,"[7, 9, 10, 11, 22, 23, 27]",115.4670767,11598,1067,1,8,10,1.4994254760835948
undo,44,34,0,0,0,7,"[0, 13, 1, 8, 25, 24, 12, 7]",8,5,"[9, 11, 22, 23, 27]",100.4337804,12506,908,1,4,10,1.758992610425009
undo,44,34,0,0,0,23,"[0, 13, 1, 8, 25, 24, 12, 7, 23]",9,1,[27],72.27352467,15420,2914,1,0,10,2.399781305190153
undo,44,34,0,0,1,27,"[0, 13, 1, 8, 25, 24, 12, 7, 23, 27]",10,0,[],18.60789321,17037,1617,1,0,10,4.766619878750327
undo,44,34,1,0,0,23,"[0, 13, 1, 8, 25, 24, 12, 7, 23]",9,1,[27],72.27352467,20141,3104,1,0,10,2.399781305190153
undo,44,34,1,0,0,7,"[0, 13, 1, 8, 25, 24, 12, 7]",8,5,"[9, 11, 22, 23, 27]",100.4337804,27784,7643,1,4,10,1.758992610425009
undo,44,34,0,0,1,11,"[0, 13, 1, 8, 25, 24, 12, 7, 11]",9,0,[],32.02325485,29207,1423,1,0,9,1.5082508332294333
undo,44,34,0,1,1,11,"[0, 13, 1, 8, 25, 24, 12, 7, 11]",9,0,[],32.02325485,36577,7370,1,0,9,1.5082508332294333
undo,45,32,0,0,0,0,[0],1,29,"[1, 2, 3, 4, 5, 6, 7, 8, 9, 10, 11, 12, 13, 14, 15, 16, 17, 18, 19, 20, 21, 22, 23, 24, 25, 26, 27, 28, 29]",300,145,-1,17,359,10,0.0
undo,45,32,0,0,0,19,"[0, 19]",2,28,"[1, 2, 3, 4, 5, 6, 7, 8, 9, 10, 11, 12, 13, 14, 15, 16, 17, 18, 20, 21, 22, 23, 24, 25, 26, 27, 28, 29]",283.5075775,3750,3605,16,294,10,1.0
undo,45,32,0,0,0,13,"[0, 19, 13]",3,24,"[2, 3, 4, 5, 6, 8, 9, 10, 11, 12, 14, 15, 16, 17, 18, 20, 21, 22, 23, 24, 25, 26, 27, 28]",260.3127505,5751,2001,14,227,10,1.0172874229878615
undo,45,32,0,0,0,15,"[0, 19, 13, 15]",4,18,"[2, 3, 5, 8, 9, 10, 11, 12, 16, 17, 20, 22, 23, 24, 25, 26, 27, 28]",177.4393531,6715,964,9,116,10,1.435447391509833
undo,45,32,0,0,0,28,"[0, 19, 13, 15, 28]",5,17,"[2, 3, 5, 8, 9, 10, 11, 12, 16, 17, 20, 22, 23, 24, 25, 26, 27]",166.0375988,7596,881,9,70,10,1.3843701324937985
undo,45,32,0,0,0,12,"[0, 19, 13, 15, 28, 12]",6,14,"[2, 3, 5, 8, 9, 10, 11, 16, 17, 20, 22, 24, 26, 27]",147.0639329,8495,899,6,35,10,1.358372254952329
undo,45,32,0,0,0,16,"[0, 19, 13, 15, 28, 12, 16]",7,13,"[2, 3, 5, 8, 9, 10, 11, 17, 20, 22, 24, 26, 27]",131.411457,9279,784,5,15,10,1.4356932930709845
undo,45,32,0,0,0,22,"[0, 19, 13, 15, 28, 12, 16, 22]",8,6,"[2, 8, 9, 17, 20, 27]",97.57360838,10163,884,3,5,10,1.4335226411545752
undo,45,32,0,0,0,9,"[0, 19, 13, 15, 28, 12, 16, 22, 9]",9,3,"[2, 8, 20]",75.37000507,11010,847,3,0,10,1.4837166378374758
undo,45,32,0,1,0,9,"[0, 19, 13, 15, 28, 12, 16, 22, 9]",9,3,"[2, 8, 20]",75.37000507,12351,1341,3,0,10,1.4837166378374758
undo,46,17,0,0,0,0,[0],1,28,"[1, 2, 3, 4, 5, 6, 7, 8, 9, 10, 11, 12, 13, 14, 15, 16, 17, 18, 19, 20, 22, 23, 24, 25, 26, 27, 28, 29]",300,148,-1,2,73,8,0.0
undo,46,17,0,0,0,9,"[0, 9]",2,25,"[1, 2, 3, 5, 6, 7, 8, 10, 11, 12, 14, 15, 16, 17, 18, 19, 20, 22, 23, 24, 25, 26, 27, 28, 29]",210.5293344,5924,5776,1,34,8,1.0
undo,46,17,0,0,0,16,"[0, 9, 16]",3,21,"[1, 2, 3, 5, 7, 8, 10, 11, 12, 14, 17, 18, 19, 20, 22, 23, 25, 26, 27, 28, 29]",197.1876704,7620,1696,1,26,8,1.173103464220352
undo,46,17,0,0,0,2,"[0, 9, 16, 2]",4,18,"[1, 3, 5, 7, 8, 10, 11, 12, 14, 17, 18, 19, 23, 25, 26, 27, 28, 29]",181.0631549,8856,1236,1,23,8,1.14825089247282
undo,46,17,1,0,0,16,"[0, 9, 16]",3,21,"[1, 2, 3, 5, 7, 8, 10, 11, 12, 14, 17, 18, 19, 20, 22, 23, 25, 26, 27, 28, 29]",197.1876704,10722,1866,1,26,8,1.173103464220352
undo,46,17,0,0,0,17,"[0, 9, 16, 17]",4,9,"[2, 7, 8, 10, 12, 14, 26, 27, 29]",155.5103384,11694,972,2,9,7,1.3686022655428802
undo,46,17,0,0,0,2,"[0, 9, 16, 17, 2]",5,4,"[7, 8, 10, 27]",117.1828026,12686,992,1,3,7,1.764970391617776
undo,46,17,0,0,0,8,"[0, 9, 16, 17, 2, 8]",6,1,[7],82.06870286,13877,1191,1,0,7,1.6282583682866314
undo,46,17,0,0,1,7,"[0, 9, 16, 17, 2, 8, 7]",7,0,[],11.35802474,15807,1930,1,0,7,1.5695874876804634
undo,46,17,1,0,0,8,"[0, 9, 16, 17, 2, 8]",6,1,[7],82.06870286,16982,1175,1,0,7,1.6282583682866314
undo,46,17,0,1,0,8,"[0, 9, 16, 17, 2, 8]",6,1,[7],82.06870286,19647,2665,1,0,7,1.6282583682866314
undo,47,25,0,0,0,0,[0],1,28,"[1, 2, 3, 4, 5, 7, 8, 9, 10, 11, 12, 13, 14, 15, 16, 17, 18, 19, 20, 21, 22, 23, 24, 25, 26, 27, 28, 29]",300,161,-1,5,94,10,0.0
undo,47,25,0,0,0,23,"[0, 23]",2,23,"[1, 2, 3, 5, 7, 8, 9, 11, 12, 13, 14, 16, 17, 19, 20, 21, 22, 24, 25, 26, 27, 28, 29]",259.7756293,2091,1930,3,33,10,1.0
undo,47,25,0,0,0,19,"[0, 23, 19]",3,21,"[1, 2, 3, 5, 7, 8, 9, 11, 12, 13, 14, 16, 17, 20, 21, 22, 24, 25, 27, 28, 29]",223.9287326,4452,2361,3,24,10,1.583101227007039
undo,47,25,0,0,0,1,"[0, 23, 19, 1]",4,8,"[5, 7, 12, 20, 21, 22, 24, 29]",165.4052331,6903,2451,4,11,7,4.33500554887551
undo,47,25,0,0,0,21,"[0, 23, 19, 1, 21]",5,5,"[5, 12, 20, 22, 29]",136.9623078,8527,1624,3,2,7,3.2471443578508654
undo,47,25,0,0,0,20,"[0, 23, 19, 1, 21, 20]",6,1,[12],99.47897813,9610,1083,1,0,7,2.5707823316666665
undo,47,25,0,1,0,20,"[0, 23, 19, 1, 21, 20]",6,1,[12],99.47897813,10635,1025,1,0,7,2.5707823316666665
undo,48,23,0,0,0,0,[0],1,28,"[1, 2, 3, 4, 5, 6, 7, 8, 9, 10, 11, 12, 13, 14, 15, 16, 17, 18, 19, 20, 21, 22, 23, 25, 26, 27, 28, 29]",300,177,-1,76,2626,10,0.0
undo,48,23,0,0,0,22,"[0, 22]",2,24,"[1, 2, 3, 5, 6, 7, 8, 9, 10, 11, 12, 13, 14, 15, 17, 18, 19, 20, 21, 23, 25, 26, 27, 29]",210.5013967,2399,2222,15,1362,10,1.0
undo,48,23,0,0,0,13,"[0, 22, 13]",3,14,"[1, 2, 5, 6, 7, 8, 9, 10, 12, 14, 18, 21, 27, 29]",168.3113504,3586,1187,14,522,10,1.1898173563652046
undo,48,23,0,0,0,12,"[0, 22, 13, 12]",4,11,"[1, 2, 6, 7, 9, 10, 14, 18, 21, 27, 29]",156.2283045,4698,1112,12,166,10,1.1727968780218219
undo,48,23,0,0,0,9,"[0, 22, 13, 12, 9]",5,10,"[1, 2, 6, 7, 10, 14, 18, 21, 27, 29]",141.9104834,7035,2337,5,49,10,1.2100380646101494
undo,48,23,0,0,0,14,"[0, 22, 13, 12, 9, 14]",6,8,"[1, 2, 6, 7, 10, 18, 27, 29]",131.4701769,7880,845,2,19,10,1.1961799245073135
undo,48,23,0,0,0,2,"[0, 22, 13, 12, 9, 14, 2]",7,6,"[6, 7, 10, 18, 27, 29]",116.6041081,8709,829,1,8,10,1.343965446549325
undo,48,23,0,0,0,6,"[0, 22, 13, 12, 9, 14, 2, 6]",8,3,"[18, 27, 29]",98.16501923,9884,1175,3,0,9,1.3433890277057379
undo,48,23,0,0,1,27,"[0, 22, 13, 12, 9, 14, 2, 6, 27]",9,0,[],69.86307584,12410,2526,1,0,9,1.607346000085698
undo,48,23,1,0,0,6,"[0, 22, 13, 12, 9, 14, 2, 6]",8,3,"[18, 27, 29]",98.16501923,14513,2103,3,0,9,1.3433890277057379
undo,48,23,1,0,0,2,"[0, 22, 13, 12, 9, 14, 2]",7,6,"[6, 7, 10, 18, 27, 29]",116.6041081,16645,2132,1,8,10,1.343965446549325
undo,48,23,1,0,0,14,"[0, 22, 13, 12, 9, 14]",6,8,"[1, 2, 6, 7, 10, 18, 27, 29]",131.4701769,17278,633,2,19,10,1.1961799245073135
undo,48,23,0,0,0,29,"[0, 22, 13, 12, 9, 14, 29]",7,5,"[1, 2, 6, 7, 10]",84.03601199,19400,2122,1,4,10,1.4004751704308847
undo,48,23,0,0,0,7,"[0, 22, 13, 12, 9, 14, 29, 7]",8,2,"[1, 10]",59.95282283,20632,1232,1,1,10,1.4272349811059881
undo,48,23,0,0,0,10,"[0, 22, 13, 12, 9, 14, 29, 7, 10]",9,1,[1],32.4937624,22214,1582,1,0,10,1.3996165752656036
undo,48,23,0,1,0,10,"[0, 22, 13, 12, 9, 14, 29, 7, 10]",9,1,[1],32.4937624,23439,1225,1,0,10,1.3996165752656036
undo,49,27,0,0,0,0,[0],1,26,"[1, 3, 5, 6, 7, 8, 9, 10, 11, 12, 13, 14, 15, 16, 17, 18, 19, 21, 22, 23, 24, 25, 26, 27, 28, 29]",300,145,-1,13,578,11,0.0
undo,49,27,0,0,0,15,"[0, 15]",2,24,"[1, 3, 5, 6, 7, 8, 9, 10, 11, 12, 13, 14, 16, 17, 18, 19, 21, 22, 23, 24, 25, 26, 27, 29]",263.7508621,3017,2872,6,219,11,1.0
undo,49,27,0,0,0,24,"[0, 15, 24]",3,20,"[1, 5, 6, 7, 8, 9, 10, 12, 13, 14, 16, 17, 18, 19, 21, 23, 25, 26, 27, 29]",246.5462115,4202,1185,6,130,11,1.130933077698322
undo,49,27,0,0,0,17,"[0, 15, 24, 17]",4,15,"[1, 6, 8, 10, 12, 13, 14, 16, 18, 19, 23, 25, 26, 27, 29]",229.9932662,5474,1272,4,60,11,1.1285538435963374
undo,49,27,0,0,0,12,"[0, 15, 24, 17, 12]",5,14,"[1, 6, 8, 10, 13, 14, 16, 18, 19, 23, 25, 26, 27, 29]",218.8129263,6436,962,2,32,11,1.2561880288755216
undo,49,27,0,0,0,10,"[0, 15, 24, 17, 12, 10]",6,11,"[1, 8, 13, 14, 18, 19, 23, 25, 26, 27, 29]",207.7675653,7213,777,2,28,11,1.2228289337766665
undo,49,27,0,0,0,13,"[0, 15, 24, 17, 12, 10, 13]",7,9,"[1, 8, 14, 18, 19, 23, 26, 27, 29]",167.9178476,8648,1435,2,18,11,1.3421291994761178
undo,49,27,0,0,0,19,"[0, 15, 24, 17, 12, 10, 13, 19]",8,5,"[1, 8, 14, 23, 29]",131.6825057,9761,1113,2,6,11,1.294749956153846
undo,49,27,0,0,0,8,"[0, 15, 24, 17, 12, 10, 13, 19, 8]",9,3,"[14, 23, 29]",116.816437,10693,932,2,1,11,1.3554286578836865
undo,49,27,0,0,0,14,"[0, 15, 24, 17, 12, 10, 13, 19, 8, 14]",10,1,[29],59.25777126,12174,1481,1,0,11,1.312380420632942
undo,49,27,0,1,0,14,"[0, 15, 24, 17, 12, 10, 13, 19, 8, 14]",10,1,[29],59.25777126,14299,2125,1,0,11,1.312380420632942
undo,50,43,0,0,0,0,[0],1,23,"[1, 2, 3, 4, 5, 6, 7, 9, 10, 11, 12, 14, 15, 16, 17, 19, 20, 21, 22, 23, 25, 27, 29]",300,145,-1,16,556,12,0.0
undo,50,43,0,0,0,29,"[0, 29]",2,22,"[1, 2, 3, 4, 5, 6, 7, 9, 10, 11, 12, 14, 15, 16, 17, 19, 20, 21, 22, 23, 25, 27]",277.909278,2234,2089,16,520,12,1.0
undo,50,43,0,0,0,20,"[0, 29, 20]",3,20,"[1, 2, 3, 4, 6, 7, 9, 10, 11, 12, 14, 15, 16, 17, 19, 21, 22, 23, 25, 27]",254.4785289,3449,1215,15,422,12,1.082311746871282
undo,50,43,0,0,0,16,"[0, 29, 20, 16]",4,19,"[1, 2, 3, 4, 6, 7, 9, 10, 11, 12, 14, 15, 17, 19, 21, 22, 23, 25, 27]",231.8511119,4381,932,15,389,12,1.215201926898219
undo,50,43,0,0,0,11,"[0, 29, 20, 16, 11]",5,17,"[1, 2, 3, 4, 6, 7, 9, 10, 12, 14, 15, 17, 19, 21, 22, 23, 25]",196.7227758,5532,1151,12,188,12,1.1349145516483516
undo,50,43,0,0,0,6,"[0, 29, 20, 16, 11, 6]",6,15,"[1, 2, 3, 4, 7, 10, 12, 14, 15, 17, 19, 21, 22, 23, 25]",176.1072477,6795,1263,10,100,12,1.123330873754209
undo,50,43,0,0,0,14,"[0, 29, 20, 16, 11, 6, 14]",7,13,"[1, 2, 3, 4, 7, 10, 12, 15, 17, 19, 21, 22, 25]",147.6467487,7751,956,2,29,11,1.2282559104994817
undo,50,43,0,0,1,2,"[0, 29, 20, 16, 11, 6, 14, 2]",8,0,[],86.57302279,8847,1096,1,0,8,1.4174390622189017
undo,50,43,1,0,0,14,"[0, 29, 20, 16, 11, 6, 14]",7,13,"[1, 2, 3, 4, 7, 10, 12, 15, 17, 19, 21, 22, 25]",147.6467487,10818,1971,2,29,11,1.2282559104994817
undo,50,43,1,0,0,6,"[0, 29, 20, 16, 11, 6]",6,15,"[1, 2, 3, 4, 7, 10, 12, 14, 15, 17, 19, 21, 22, 23, 25]",176.1072477,11850,1032,10,100,12,1.123330873754209
undo,50,43,0,0,0,1,"[0, 29, 20, 16, 11, 6, 1]",7,10,"[2, 3, 4, 7, 12, 14, 15, 19, 22, 25]",127.8371741,13424,1574,7,36,12,1.1959789832191803
undo,50,43,0,0,0,22,"[0, 29, 20, 16, 11, 6, 1, 22]",8,7,"[3, 7, 12, 14, 15, 19, 25]",96.45246447,14912,1488,3,18,12,1.7066313177885561
undo,50,43,0,0,0,15,"[0, 29, 20, 16, 11, 6, 1, 22, 15]",9,3,"[3, 12, 25]",54.34545793,16103,1191,4,0,11,2.9711444828022056
undo,50,43,0,0,0,25,"[0, 29, 20, 16, 11, 6, 1, 22, 15, 25]",10,1,[12],31.67388983,19850,3747,1,0,11,3.383277434700426
undo,50,43,0,0,1,12,"[0, 29, 20, 16, 11, 6, 1, 22, 15, 25, 12]",11,0,[],7.487116589,21733,1883,1,0,11,2.958905189134461
undo,50,43,1,0,0,25,"[0, 29, 20, 16, 11, 6, 1, 22, 15, 25]",10,1,[12],31.67388983,23473,1740,1,0,11,3.383277434700426
undo,50,43,1,0,0,15,"[0, 29, 20, 16, 11, 6, 1, 22, 15]",9,3,"[3, 12, 25]",54.34545793,25372,1899,4,0,11,2.9711444828022056
undo,50,43,0,0,0,12,"[0, 29, 20, 16, 11, 6, 1, 22, 15, 12]",10,2,"[3, 25]",35.03225002,26228,856,2,0,11,2.6802732284017456
undo,50,43,0,0,1,3,"[0, 29, 20, 16, 11, 6, 1, 22, 15, 12, 3]",11,0,[],22.03225002,27115,887,1,0,11,2.495218150860212
undo,50,43,0,1,1,3,"[0, 29, 20, 16, 11, 6, 1, 22, 15, 12, 3]",11,0,[],22.03225002,31132,4017,1,0,11,2.495218150860212
undo,51,14,0,0,0,0,[0],1,29,"[1, 2, 3, 4, 5, 6, 7, 8, 9, 10, 11, 12, 13, 14, 15, 16, 17, 18, 19, 20, 21, 22, 23, 24, 25, 26, 27, 28, 29]",300,144,-1,8,157,10,0.0
undo,51,14,0,0,0,15,"[0, 15]",2,20,"[1, 2, 3, 4, 7, 8, 9, 13, 17, 18, 19, 20, 21, 22, 23, 25, 26, 27, 28, 29]",216.7053423,7584,7440,8,102,10,1.0
undo,51,14,0,0,0,28,"[0, 15, 28]",3,17,"[1, 2, 3, 4, 7, 8, 9, 13, 17, 18, 19, 20, 22, 23, 25, 26, 27]",197.4959696,8278,694,8,48,10,1.0446007867311968
undo,51,14,0,0,0,17,"[0, 15, 28, 17]",4,14,"[1, 2, 3, 4, 7, 8, 13, 18, 19, 20, 22, 23, 25, 26]",184.0423455,8950,672,8,39,10,1.0729463354689972
undo,51,14,0,0,0,18,"[0, 15, 28, 17, 18]",5,9,"[1, 2, 4, 7, 8, 19, 23, 25, 26]",119.412631,9843,893,8,27,10,1.5035901079219378
undo,51,14,0,0,0,8,"[0, 15, 28, 17, 18, 8]",6,8,"[1, 2, 4, 7, 19, 23, 25, 26]",105.8111605,10495,652,8,18,10,1.4819689987843856
undo,51,14,0,0,0,19,"[0, 15, 28, 17, 18, 8, 19]",7,5,"[1, 7, 23, 25, 26]",85.19563238,11947,1452,4,9,10,1.4526746797093781
undo,51,14,0,0,0,1,"[0, 15, 28, 17, 18, 8, 19, 1]",8,4,"[7, 23, 25, 26]",69.96408617,13691,1744,3,1,10,1.4876985459270997
undo,51,14,0,1,0,1,"[0, 15, 28, 17, 18, 8, 19, 1]",8,4,"[7, 23, 25, 26]",69.96408617,17079,3388,3,1,10,1.4876985459270997
undo,52,10,0,0,0,0,[0],1,29,"[1, 2, 3, 4, 5, 6, 7, 8, 9, 10, 11, 12, 13, 14, 15, 16, 17, 18, 19, 20, 21, 22, 23, 24, 25, 26, 27, 28, 29]",300,147,-1,1,100,9,0.0
undo,52,10,0,0,0,13,"[0, 13]",2,25,"[1, 2, 3, 4, 6, 7, 8, 9, 10, 11, 12, 14, 17, 18, 19, 20, 21, 22, 23, 24, 25, 26, 27, 28, 29]",249.4628849,4917,4770,1,79,9,1.0
undo,52,10,0,0,0,11,"[0, 13, 11]",3,20,"[1, 2, 3, 6, 7, 8, 9, 10, 12, 14, 18, 19, 20, 21, 22, 24, 26, 27, 28, 29]",206.4512586,6205,1288,1,54,9,1.0313137484914219
undo,52,10,0,0,0,19,"[0, 13, 11, 19]",4,11,"[2, 6, 8, 9, 10, 14, 18, 20, 24, 26, 27]",170.0919407,8264,2059,1,22,9,1.0879446220132545
undo,52,10,0,0,0,26,"[0, 13, 11, 19, 26]",5,8,"[2, 6, 9, 10, 14, 18, 20, 27]",141.7723361,9496,1232,10,10,8,1.1947240924037068
undo,52,10,0,0,0,14,"[0, 13, 11, 19, 26, 14]",6,3,"[2, 20, 27]",107.1024645,10484,988,1,2,8,1.206127966377938
undo,52,10,0,0,0,2,"[0, 13, 11, 19, 26, 14, 2]",7,1,[20],94.93693944,11245,761,1,0,8,1.256142264475509
undo,52,10,0,1,0,2,"[0, 13, 11, 19, 26, 14, 2]",7,1,[20],94.93693944,12086,841,1,0,8,1.256142264475509
undo,53,16,0,0,0,0,[0],1,29,"[1, 2, 3, 4, 5, 6, 7, 8, 9, 10, 11, 12, 13, 14, 15, 16, 17, 18, 19, 20, 21, 22, 23, 24, 25, 26, 27, 28, 29]",300,179,-1,13,161,9,0.0
undo,53,16,0,0,0,28,"[0, 28]",2,27,"[1, 2, 3, 4, 5, 7, 8, 9, 10, 11, 12, 13, 14, 15, 16, 17, 18, 19, 20, 21, 22, 23, 24, 25, 26, 27, 29]",284.3475242,8067,7888,11,92,9,1.0
undo,53,16,0,0,0,16,"[0, 28, 16]",3,26,"[1, 2, 3, 4, 5, 7, 8, 9, 10, 11, 12, 13, 14, 15, 17, 18, 19, 20, 21, 22, 23, 24, 25, 26, 27, 29]",198.8372909,10167,2100,20,64,8,1.2241704578099695
undo,53,16,0,0,0,8,"[0, 28, 16, 8]",4,15,"[2, 3, 4, 5, 9, 12, 13, 14, 15, 17, 19, 20, 21, 25, 29]",150.4637444,12345,2178,10,28,8,1.205584765647267
undo,53,16,0,0,0,20,"[0, 28, 16, 8, 20]",5,6,"[4, 5, 9, 12, 15, 25]",92.68831706,13407,1062,7,4,8,1.1457181875751794
undo,53,16,0,0,0,25,"[0, 28, 16, 8, 20, 25]",6,4,"[5, 9, 12, 15]",80.03920642,14891,1484,4,1,8,1.1938005777784082
undo,53,16,0,0,0,9,"[0, 28, 16, 8, 20, 25, 9]",7,2,"[5, 15]",67.23295794,15961,1070,2,0,8,1.1813151005918494
undo,53,16,0,1,0,9,"[0, 28, 16, 8, 20, 25, 9]",7,2,"[5, 15]",67.23295794,18745,2784,2,0,8,1.1813151005918494
undo,54,13,0,0,0,0,[0],1,29,"[1, 2, 3, 4, 5, 6, 7, 8, 9, 10, 11, 12, 13, 14, 15, 16, 17, 18, 19, 20, 21, 22, 23, 24, 25, 26, 27, 28, 29]",300,195,-1,60,2676,11,0.0
undo,54,13,0,0,0,24,"[0, 24]",2,28,"[1, 2, 3, 4, 5, 6, 7, 8, 9, 10, 11, 12, 13, 14, 15, 16, 17, 18, 19, 20, 21, 22, 23, 25, 26, 27, 28, 29]",288.8196601,21670,21475,16,1444,11,1.0
undo,54,13,0,0,0,23,"[0, 24, 23]",3,27,"[1, 2, 3, 4, 5, 6, 7, 8, 9, 10, 11, 12, 13, 14, 15, 16, 17, 18, 19, 20, 21, 22, 25, 26, 27, 28, 29]",243.1140806,23831,2161,2,868,11,1.0065545717039834
undo,54,13,0,0,0,16,"[0, 24, 23, 16]",4,25,"[1, 2, 3, 4, 6, 7, 8, 9, 10, 11, 12, 13, 14, 15, 17, 18, 19, 20, 21, 22, 25, 26, 27, 28, 29]",202.8027918,25045,1214,1,145,11,1.055930143104189
undo,54,13,0,0,0,3,"[0, 24, 23, 16, 3]",5,20,"[2, 4, 6, 7, 8, 9, 10, 11, 13, 14, 15, 18, 20, 21, 22, 25, 26, 27, 28, 29]",174.3598665,26128,1083,3,44,10,1.233783650807853
undo,54,13,0,0,0,20,"[0, 24, 23, 16, 3, 20]",6,15,"[4, 6, 7, 8, 9, 11, 14, 18, 21, 22, 25, 26, 27, 28, 29]",155.3335689,27046,918,7,15,9,1.3149320474556456
undo,54,13,0,0,0,4,"[0, 24, 23, 16, 3, 20, 4]",7,5,"[6, 8, 18, 25, 27]",133.3108534,28029,983,2,4,9,1.2859964130018764
undo,54,13,0,0,0,27,"[0, 24, 23, 16, 3, 20, 4, 27]",8,2,"[8, 18]",111.2881379,29625,1596,2,0,9,1.3345945780156503
undo,54,13,0,1,0,27,"[0, 24, 23, 16, 3, 20, 4, 27]",8,2,"[8, 18]",111.2881379,32668,3043,2,0,9,1.3345945780156503
undo,55,22,0,0,0,0,[0],1,29,"[1, 2, 3, 4, 5, 6, 7, 8, 9, 10, 11, 12, 13, 14, 15, 16, 17, 18, 19, 20, 21, 22, 23, 24, 25, 26, 27, 28, 29]",300,128,-1,31,704,9,0.0
undo,55,22,0,0,0,16,"[0, 16]",2,21,"[1, 3, 6, 7, 8, 9, 11, 13, 14, 15, 17, 18, 19, 20, 21, 22, 24, 25, 27, 28, 29]",218.605897,3365,3237,17,147,9,1.0
undo,55,22,0,0,0,6,"[0, 16, 6]",3,16,"[1, 3, 7, 9, 13, 14, 15, 17, 19, 20, 21, 22, 24, 25, 28, 29]",184.1675463,4516,1151,5,77,9,1.3071109638102874
undo,55,22,0,0,0,9,"[0, 16, 6, 9]",4,15,"[1, 3, 7, 13, 14, 15, 17, 19, 20, 21, 22, 24, 25, 28, 29]",157.5404924,5317,801,4,33,9,1.5907585082674378
undo,55,22,0,0,0,19,"[0, 16, 6, 9, 19]",5,12,"[3, 7, 13, 14, 15, 17, 20, 21, 24, 25, 28, 29]",137.1444143,6101,784,3,17,9,2.0453047636701496
undo,55,22,0,0,0,29,"[0, 16, 6, 9, 19, 29]",6,10,"[3, 7, 13, 14, 15, 17, 20, 21, 24, 28]",122.111118,7095,994,3,10,9,2.310050419546042
undo,55,22,0,0,0,13,"[0, 16, 6, 9, 19, 29, 13]",7,1,[15],29.05199697,8796,1701,1,0,8,2.4480366201400097
undo,55,22,0,1,0,13,"[0, 16, 6, 9, 19, 29, 13]",7,1,[15],29.05199697,9719,923,1,0,8,2.4480366201400097
undo,56,30,0,0,0,0,[0],1,19,"[3, 4, 5, 7, 9, 11, 16, 17, 18, 19, 20, 21, 22, 24, 25, 26, 27, 28, 29]",300,162,-1,5,41,8,0.0
undo,56,30,0,0,0,25,"[0, 25]",2,12,"[3, 5, 7, 9, 11, 16, 18, 19, 20, 24, 27, 29]",121.1005869,7886,7724,7,37,7,1.0
undo,56,30,0,0,0,27,"[0, 25, 27]",3,8,"[3, 5, 7, 18, 19, 20, 24, 29]",81.54050603,9554,1668,2,17,7,1.0432445497342653
undo,56,30,0,0,0,3,"[0, 25, 27, 3]",4,5,"[5, 7, 18, 20, 29]",62.43553286,10726,1172,2,6,7,1.0419393955972533
undo,56,30,0,0,0,18,"[0, 25, 27, 3, 18]",5,3,"[5, 7, 29]",44.18724527,11661,935,3,0,6,1.0473579399266177
undo,56,30,0,0,1,5,"[0, 25, 27, 3, 18, 5]",6,0,[],31.14884046,12591,930,1,0,6,1.1118098368956684
undo,56,30,1,0,0,18,"[0, 25, 27, 3, 18]",5,3,"[5, 7, 29]",44.18724527,15315,2724,3,0,6,1.0473579399266177
undo,56,30,1,0,0,3,"[0, 25, 27, 3]",4,5,"[5, 7, 18, 20, 29]",62.43553286,18629,3314,2,6,7,1.0419393955972533
undo,56,30,0,0,0,29,"[0, 25, 27, 3, 29]",5,3,"[5, 7, 18]",43.83445762,20121,1492,1,2,7,1.0521853644580021
undo,56,30,0,0,0,18,"[0, 25, 27, 3, 29, 18]",6,1,[5],24.5212497,21216,1095,1,0,7,1.1278751785159948
undo,56,30,0,1,0,18,"[0, 25, 27, 3, 29, 18]",6,1,[5],24.5212497,22741,1525,1,0,7,1.1278751785159948
undo,57,18,0,0,0,0,[0],1,28,"[1, 2, 3, 4, 5, 6, 7, 8, 9, 10, 11, 12, 13, 14, 16, 17, 18, 19, 20, 21, 22, 23, 24, 25, 26, 27, 28, 29]",300,162,-1,3,136,10,0.0
undo,57,18,0,0,0,7,"[0, 7]",2,20,"[1, 3, 4, 5, 8, 9, 12, 13, 14, 16, 18, 19, 20, 21, 23, 24, 25, 26, 27, 28]",240.3342644,5974,5812,24,182,9,1.0
undo,57,18,0,0,0,25,"[0, 7, 25]",3,17,"[1, 3, 5, 8, 9, 12, 13, 14, 16, 18, 19, 20, 23, 24, 26, 27, 28]",212.5313869,6847,873,18,95,9,1.4576077868641448
undo,57,18,0,0,0,8,"[0, 7, 25, 8]",4,12,"[1, 3, 5, 9, 12, 13, 14, 16, 23, 26, 27, 28]",175.4773723,7998,1151,10,47,9,1.316392165590884
undo,57,18,0,0,0,13,"[0, 7, 25, 8, 13]",5,10,"[3, 5, 9, 12, 14, 16, 23, 26, 27, 28]",154.3823492,10496,2498,5,17,9,1.5490362923230319
undo,57,18,0,0,0,14,"[0, 7, 25, 8, 13, 14]",6,9,"[3, 5, 9, 12, 16, 23, 26, 27, 28]",135.4086832,11393,897,4,8,9,1.4681031032500589
undo,57,18,0,0,0,3,"[0, 7, 25, 8, 13, 14, 3]",7,3,"[5, 12, 27]",105.3254653,12563,1170,3,1,9,1.5907840564661788
undo,57,18,0,0,0,5,"[0, 7, 25, 8, 13, 14, 3, 5]",8,1,[12],47.14471245,16144,3581,1,0,9,1.4147203267137747
undo,57,18,0,0,1,12,"[0, 7, 25, 8, 13, 14, 3, 5, 12]",9,0,[],35.7429582,18126,1982,1,0,9,1.4242610400714528
undo,57,18,1,0,0,5,"[0, 7, 25, 8, 13, 14, 3, 5]",8,1,[12],47.14471245,20344,2218,1,0,9,1.4147203267137747
undo,57,18,1,0,0,3,"[0, 7, 25, 8, 13, 14, 3]",7,3,"[5, 12, 27]",105.3254653,25389,5045,3,1,9,1.5907840564661788
undo,57,18,1,0,0,14,"[0, 7, 25, 8, 13, 14]",6,9,"[3, 5, 9, 12, 16, 23, 26, 27, 28]",135.4086832,27588,2199,4,8,9,1.4681031032500589
undo,57,18,0,0,0,23,"[0, 7, 25, 8, 13, 14, 23]",7,1,[26],43.92644448,33855,6267,1,0,8,6.665328414291538
undo,57,18,0,0,1,26,"[0, 7, 25, 8, 13, 14, 23, 26]",8,0,[],25.32536924,35002,1147,1,0,8,6.543582727015998
undo,57,18,1,0,0,23,"[0, 7, 25, 8, 13, 14, 23]",7,1,[26],43.92644448,37478,2476,1,0,8,6.665328414291538
undo,57,18,1,0,0,14,"[0, 7, 25, 8, 13, 14]",6,9,"[3, 5, 9, 12, 16, 23, 26, 27, 28]",135.4086832,38210,732,4,8,9,1.4681031032500589
undo,57,18,0,0,0,9,"[0, 7, 25, 8, 13, 14, 9]",7,1,[16],42.49474452,44098,5888,1,0,8,2.5343237827900205
undo,57,18,0,1,0,9,"[0, 7, 25, 8, 13, 14, 9]",7,1,[16],42.49474452,45787,1689,1,0,8,2.5343237827900205
undo,58,15,0,0,0,0,[0],1,25,"[1, 2, 3, 4, 7, 8, 9, 10, 11, 12, 13, 14, 15, 16, 18, 20, 21, 22, 23, 24, 25, 26, 27, 28, 29]",300,178,-1,4,65,9,0.0
undo,58,15,0,0,0,12,"[0, 12]",2,22,"[1, 2, 3, 4, 7, 8, 9, 10, 11, 13, 14, 15, 16, 18, 21, 22, 23, 24, 26, 27, 28, 29]",213.547701,4098,3920,4,35,9,1.0
undo,58,15,0,0,0,7,"[0, 12, 7]",3,16,"[1, 3, 4, 8, 9, 10, 11, 13, 14, 15, 16, 18, 21, 22, 24, 27]",180.3061607,5064,966,4,29,9,1.411291635294361
undo,58,15,0,0,0,16,"[0, 12, 7, 16]",4,10,"[3, 4, 10, 11, 13, 14, 15, 18, 21, 22]",136.6484008,6283,1219,2,11,9,1.4308733430458784
undo,58,15,0,0,0,11,"[0, 12, 7, 16, 11]",5,7,"[3, 4, 13, 14, 15, 21, 22]",110.6291772,8011,1728,2,5,9,1.5251025438826007
undo,58,15,0,0,0,3,"[0, 12, 7, 16, 11, 3]",6,5,"[4, 13, 14, 15, 22]",99.22742292,8777,766,2,3,9,1.5166583878170454
undo,58,15,0,0,0,22,"[0, 12, 7, 16, 11, 3, 22]",7,2,"[13, 15]",49.49815588,9943,1166,2,0,9,1.4519711389669923
undo,58,15,0,0,0,13,"[0, 12, 7, 16, 11, 3, 22, 13]",8,1,[15],21.3379002,12182,2239,1,0,9,1.390947894090134
undo,58,15,0,1,0,13,"[0, 12, 7, 16, 11, 3, 22, 13]",8,1,[15],21.3379002,13383,1201,1,0,9,1.390947894090134
undo,59,3,0,0,0,0,[0],1,29,"[1, 2, 3, 4, 5, 6, 7, 8, 9, 10, 11, 12, 13, 14, 15, 16, 17, 18, 19, 20, 21, 22, 23, 24, 25, 26, 27, 28, 29]",300,145,-1,34,427,10,0.0
undo,59,3,0,0,0,17,"[0, 17]",2,16,"[3, 4, 7, 8, 10, 12, 14, 15, 16, 19, 20, 21, 22, 24, 26, 27]",197.6965299,9992,9847,2,27,9,1.0
undo,59,3,0,0,0,20,"[0, 17, 20]",3,13,"[3, 4, 7, 8, 10, 14, 15, 16, 19, 21, 22, 24, 27]",185.0474192,11060,1068,2,24,9,1.0153332121237257
undo,59,3,0,0,0,3,"[0, 17, 20, 3]",4,10,"[4, 7, 8, 10, 14, 15, 16, 19, 21, 24]",164.6513412,11958,898,2,22,9,1.0819240770773468
undo,59,3,0,0,0,19,"[0, 17, 20, 3, 19]",5,6,"[4, 8, 10, 14, 21, 24]",127.3150318,13457,1499,2,11,9,1.1701070532957258
undo,59,3,0,0,0,21,"[0, 17, 20, 3, 19, 21]",6,5,"[4, 8, 10, 14, 24]",115.1084762,14245,788,2,6,9,1.202395500952127
undo,59,3,0,0,0,14,"[0, 17, 20, 3, 19, 21, 14]",7,4,"[4, 8, 10, 24]",88.20122806,15341,1096,2,2,9,1.6456130302761207
undo,59,3,0,0,1,10,"[0, 17, 20, 3, 19, 21, 14, 10]",8,0,[],42.74795535,17722,2381,1,0,8,1.6337827075255185
undo,59,3,1,0,0,14,"[0, 17, 20, 3, 19, 21, 14]",7,4,"[4, 8, 10, 24]",88.20122806,19044,1322,2,2,9,1.6456130302761207
undo,59,3,0,0,0,24,"[0, 17, 20, 3, 19, 21, 14, 24]",8,1,[8],17.08864127,20484,1440,1,0,9,4.806859660680286
undo,59,3,0,1,0,24,"[0, 17, 20, 3, 19, 21, 14, 24]",8,1,[8],17.08864127,22557,2073,1,0,9,4.806859660680286
undo,60,7,0,0,0,0,[0],1,29,"[1, 2, 3, 4, 5, 6, 7, 8, 9, 10, 11, 12, 13, 14, 15, 16, 17, 18, 19, 20, 21, 22, 23, 24, 25, 26, 27, 28, 29]",300,143,-1,3,79,9,0.0
undo,60,7,0,0,0,25,"[0, 25]",2,20,"[2, 3, 4, 5, 6, 7, 10, 13, 14, 15, 16, 18, 19, 20, 21, 22, 23, 24, 27, 28]",181.5939191,7532,7389,5,33,8,1.0
undo,60,7,0,0,0,4,"[0, 25, 4]",3,11,"[2, 6, 7, 13, 15, 16, 18, 19, 20, 21, 23]",156.8552853,8794,1262,2,14,8,1.0193465608331511
undo,60,7,0,0,0,20,"[0, 25, 4, 20]",4,8,"[2, 6, 7, 13, 15, 16, 18, 19]",137.2084026,9669,875,1,9,8,1.085904909082323
undo,60,7,0,0,0,18,"[0, 25, 4, 20, 18]",5,7,"[2, 6, 7, 13, 15, 16, 19]",124.4021541,11287,1618,1,5,8,1.2264883846453758
undo,60,7,0,0,0,7,"[0, 25, 4, 20, 18, 7]",6,2,"[2, 19]",83.17109789,12557,1270,1,1,8,1.185264473968278
undo,60,7,0,0,0,19,"[0, 25, 4, 20, 18, 7, 19]",7,1,[2],53.76021555,14088,1531,1,0,8,1.3016904288278204
undo,60,7,0,0,1,2,"[0, 25, 4, 20, 18, 7, 19, 2]",8,0,[],23.61058868,14945,857,1,0,8,1.3168868000947171
undo,60,7,0,1,1,2,"[0, 25, 4, 20, 18, 7, 19, 2]",8,0,[],23.61058868,20942,5997,1,0,8,1.3168868000947171
undo,61,35,0,0,0,0,[0],1,29,"[1, 2, 3, 4, 5, 6, 7, 8, 9, 10, 11, 12, 13, 14, 15, 16, 17, 18, 19, 20, 21, 22, 23, 24, 25, 26, 27, 28, 29]",300,162,-1,5,236,11,0.0
undo,61,35,0,0,0,24,"[0, 24]",2,27,"[1, 2, 4, 5, 6, 7, 8, 9, 10, 11, 12, 13, 14, 15, 16, 17, 18, 19, 20, 21, 22, 23, 25, 26, 27, 28, 29]",268.9838752,2578,2416,49,512,10,1.0
undo,61,35,0,0,0,17,"[0, 24, 17]",3,26,"[1, 2, 4, 5, 6, 7, 8, 9, 10, 11, 12, 13, 14, 15, 16, 18, 19, 20, 21, 22, 23, 25, 26, 27, 28, 29]",257.2791753,3526,948,33,238,10,1.0771477201815276
undo,61,35,0,0,0,1,"[0, 24, 17, 1]",4,25,"[2, 4, 5, 6, 7, 8, 9, 10, 11, 12, 13, 14, 15, 16, 18, 19, 20, 21, 22, 23, 25, 26, 27, 28, 29]",241.4677869,4632,1106,26,151,10,1.2244804141479215
undo,61,35,0,0,0,15,"[0, 24, 17, 1, 15]",5,23,"[2, 4, 5, 6, 7, 8, 9, 10, 11, 12, 14, 16, 18, 19, 20, 21, 22, 23, 25, 26, 27, 28, 29]",218.6204676,5514,882,26,78,10,1.4642196672428094
undo,61,35,0,0,0,5,"[0, 24, 17, 1, 15, 5]",6,13,"[4, 6, 9, 11, 18, 19, 20, 23, 25, 26, 27, 28, 29]",162.2999563,12880,7366,7,20,10,1.2337505118614283
undo,61,35,0,0,0,4,"[0, 24, 17, 1, 15, 5, 4]",7,3,"[11, 20, 29]",75.09330515,14359,1479,3,0,8,1.139765646892342
undo,61,35,0,0,1,29,"[0, 24, 17, 1, 15, 5, 4, 29]",8,0,[],55.85792109,15771,1412,1,0,8,1.1378731447589667
undo,61,35,1,0,0,4,"[0, 24, 17, 1, 15, 5, 4]",7,3,"[11, 20, 29]",75.09330515,17530,1759,3,0,8,1.139765646892342
undo,61,35,1,0,0,5,"[0, 24, 17, 1, 15, 5]",6,13,"[4, 6, 9, 11, 18, 19, 20, 23, 25, 26, 27, 28, 29]",162.2999563,18462,932,7,20,10,1.2337505118614283
undo,61,35,0,0,0,23,"[0, 24, 17, 1, 15, 5, 23]",7,4,"[6, 9, 18, 25]",107.8481427,21270,2808,6,6,10,1.8072927740829974
undo,61,35,0,0,0,9,"[0, 24, 17, 1, 15, 5, 23, 9]",8,3,"[6, 18, 25]",70.20508226,23548,2278,2,2,10,2.044176666334238
undo,61,35,0,1,0,9,"[0, 24, 17, 1, 15, 5, 23, 9]",8,3,"[6, 18, 25]",70.20508226,24689,1141,2,2,10,2.044176666334238
undo,62,29,0,0,0,0,[0],1,29,"[1, 2, 3, 4, 5, 6, 7, 8, 9, 10, 11, 12, 13, 14, 15, 16, 17, 18, 19, 20, 21, 22, 23, 24, 25, 26, 27, 28, 29]",300,144,-1,1,78,9,0.0
undo,62,29,0,0,0,25,"[0, 25]",2,18,"[1, 2, 4, 5, 6, 7, 9, 10, 12, 13, 14, 15, 16, 17, 22, 26, 27, 28]",223.3449284,4164,4020,13,101,8,1.0
undo,62,29,0,0,0,1,"[0, 25, 1]",3,15,"[4, 5, 6, 7, 9, 10, 12, 13, 14, 15, 17, 22, 26, 27, 28]",187.8343666,5814,1650,11,61,8,1.308415527582314
undo,62,29,0,0,0,14,"[0, 25, 1, 14]",4,12,"[4, 5, 6, 7, 9, 12, 13, 17, 22, 26, 27, 28]",144.8809034,9709,3895,9,32,8,1.7138400796467363
undo,62,29,0,0,0,13,"[0, 25, 1, 14, 13]",5,10,"[4, 5, 6, 7, 9, 12, 17, 22, 27, 28]",126.853147,10763,1054,9,15,8,1.5995815549042065
undo,62,29,0,0,0,5,"[0, 25, 1, 14, 13, 5]",6,7,"[4, 7, 9, 12, 22, 27, 28]",101.1432268,11623,860,7,3,8,1.6003565067425858
undo,62,29,0,0,0,22,"[0, 25, 1, 14, 13, 5, 22]",7,2,"[12, 27]",46.8017141,13423,1800,2,0,8,2.1647205491966353
undo,62,29,0,0,1,27,"[0, 25, 1, 14, 13, 5, 22, 27]",8,0,[],13.56017382,16229,2806,1,0,8,2.6438471832293193
undo,62,29,1,0,0,22,"[0, 25, 1, 14, 13, 5, 22]",7,2,"[12, 27]",46.8017141,18660,2431,2,0,8,2.1647205491966353
undo,62,29,0,0,1,12,"[0, 25, 1, 14, 13, 5, 22, 12]",8,0,[],8.854382174,20198,1538,1,0,8,1.8859097301823977
undo,62,29,1,0,0,22,"[0, 25, 1, 14, 13, 5, 22]",7,2,"[12, 27]",46.8017141,21690,1492,2,0,8,2.1647205491966353
undo,62,29,1,0,0,5,"[0, 25, 1, 14, 13, 5]",6,7,"[4, 7, 9, 12, 22, 27, 28]",101.1432268,26602,4912,7,3,8,1.6003565067425858
undo,62,29,0,0,0,12,"[0, 25, 1, 14, 13, 5, 12]",7,2,"[7, 22]",38.01637036,27683,1081,2,0,8,1.6970115503571057
undo,62,29,0,0,1,7,"[0, 25, 1, 14, 13, 5, 12, 7]",8,0,[],24.41489986,28778,1095,1,0,8,1.6757926047494769
undo,62,29,1,0,0,12,"[0, 25, 1, 14, 13, 5, 12]",7,2,"[7, 22]",38.01637036,31298,2520,2,0,8,1.6970115503571057
undo,62,29,0,0,1,22,"[0, 25, 1, 14, 13, 5, 12, 22]",8,0,[],0.069038442,35867,4569,1,0,8,2.56426189267859
undo,62,29,0,1,1,22,"[0, 25, 1, 14, 13, 5, 12, 22]",8,0,[],0.069038442,37176,1309,1,0,8,2.56426189267859
undo,63,36,0,0,0,0,[0],1,24,"[2, 4, 5, 6, 7, 8, 9, 10, 12, 13, 14, 15, 16, 17, 18, 19, 20, 22, 23, 25, 26, 27, 28, 29]",300,144,-1,2,200,10,0.0
undo,63,36,0,0,0,16,"[0, 16]",2,12,"[2, 8, 9, 10, 12, 13, 17, 18, 19, 23, 25, 27]",193.262003,4998,4854,20,112,8,1.0
undo,63,36,0,0,0,17,"[0, 16, 17]",3,10,"[2, 9, 10, 12, 13, 18, 19, 23, 25, 27]",164.9423985,5863,865,14,64,8,1.4289609665642613
undo,63,36,0,0,0,9,"[0, 16, 17, 9]",4,8,"[2, 10, 12, 13, 18, 19, 23, 25]",138.693589,6946,1083,6,21,8,2.335567583937715
undo,63,36,0,0,0,19,"[0, 16, 17, 9, 19]",5,6,"[2, 10, 12, 13, 18, 25]",123.5608431,7928,982,6,5,8,2.2891022786553017
undo,63,36,0,0,0,2,"[0, 16, 17, 9, 19, 2]",6,3,"[10, 13, 25]",86.43942067,8850,922,2,1,8,1.891101810711848
undo,63,36,0,0,0,25,"[0, 16, 17, 9, 19, 2, 25]",7,1,[13],61.43942067,10410,1560,1,0,8,2.0836773189568087
undo,63,36,0,0,1,13,"[0, 16, 17, 9, 19, 2, 25, 13]",8,0,[],40.84816038,11476,1066,1,0,8,2.642206520923964
undo,63,36,1,0,0,25,"[0, 16, 17, 9, 19, 2, 25]",7,1,[13],61.43942067,13799,2323,1,0,8,2.0836773189568087
undo,63,36,1,0,0,2,"[0, 16, 17, 9, 19, 2]",6,3,"[10, 13, 25]",86.43942067,22957,9158,2,1,8,1.891101810711848
undo,63,36,1,0,0,19,"[0, 16, 17, 9, 19]",5,6,"[2, 10, 12, 13, 18, 25]",123.5608431,24122,1165,6,5,8,2.2891022786553017
undo,63,36,0,0,0,13,"[0, 16, 17, 9, 19, 13]",6,4,"[2, 10, 12, 25]",80.14425636,30675,6553,2,2,8,2.2415595442424334
undo,63,36,0,0,0,25,"[0, 16, 17, 9, 19, 13, 25]",7,1,[2],59.55299608,31490,815,1,0,8,2.100154056828358
undo,63,36,0,0,1,2,"[0, 16, 17, 9, 19, 13, 25, 2]",8,0,[],34.55299608,32990,1500,1,0,8,2.3505616595348418
undo,63,36,0,1,1,2,"[0, 16, 17, 9, 19, 13, 25, 2]",8,0,[],34.55299608,34013,1023,1,0,8,2.3505616595348418
undo,64,12,0,0,0,0,[0],1,29,"[1, 2, 3, 4, 5, 6, 7, 8, 9, 10, 11, 12, 13, 14, 15, 16, 17, 18, 19, 20, 21, 22, 23, 24, 25, 26, 27, 28, 29]",300,165,-1,2,32,9,0.0
undo,64,12,0,0,0,16,"[0, 16]",2,16,"[2, 4, 5, 6, 7, 12, 13, 14, 18, 19, 22, 23, 24, 25, 27, 29]",209.2916762,8439,8274,3,38,8,1.0
undo,64,12,0,0,0,4,"[0, 16, 4]",3,11,"[2, 5, 6, 7, 12, 14, 19, 22, 24, 25, 27]",175.0864135,9347,908,1,16,8,1.00004499617691
undo,64,12,0,0,0,12,"[0, 16, 4, 12]",4,6,"[14, 19, 22, 24, 25, 27]",132.8963673,10712,1365,1,8,8,1.0113942412768022
undo,64,12,0,0,0,27,"[0, 16, 4, 12, 27]",5,4,"[14, 19, 22, 24]",108.5447759,11483,771,1,3,8,1.1193150037844588
undo,64,12,0,0,0,14,"[0, 16, 4, 12, 27, 14]",6,2,"[19, 24]",79.89167838,12433,950,1,1,8,1.1821826897854277
undo,64,12,0,0,0,24,"[0, 16, 4, 12, 27, 14, 24]",7,1,[19],62.68702784,13885,1452,1,0,8,1.3297400833764192
undo,64,12,0,1,0,24,"[0, 16, 4, 12, 27, 14, 24]",7,1,[19],62.68702784,14684,799,1,0,8,1.3297400833764192
undo,65,1,0,0,0,0,[0],1,26,"[1, 2, 4, 5, 7, 8, 9, 10, 11, 12, 13, 14, 15, 16, 17, 18, 19, 20, 21, 22, 23, 24, 25, 26, 28, 29]",300,145,-1,6,74,7,0.0
undo,65,1,0,0,0,14,"[0, 14]",2,19,"[1, 4, 5, 8, 9, 13, 15, 17, 18, 19, 20, 21, 22, 23, 24, 25, 26, 28, 29]",200.1901808,3919,3774,5,42,7,1.0
undo,65,1,0,0,0,17,"[0, 14, 17]",3,15,"[1, 4, 5, 8, 9, 13, 15, 18, 19, 20, 22, 23, 25, 28, 29]",147.8356204,5371,1452,5,27,7,1.0028844724416826
undo,65,1,0,0,0,1,"[0, 14, 17, 1]",4,12,"[4, 5, 8, 9, 15, 18, 20, 22, 23, 25, 28, 29]",123.4840291,6930,1559,5,15,7,1.0264985578353567
undo,65,1,0,0,0,28,"[0, 14, 17, 1, 28]",5,5,"[9, 15, 22, 23, 29]",88.59850198,8178,1248,5,3,7,1.0339861575999345
undo,65,1,0,0,0,23,"[0, 14, 17, 1, 28, 23]",6,2,"[15, 22]",51.70676849,9061,883,2,0,7,1.0327458250705703
undo,65,1,0,0,1,15,"[0, 14, 17, 1, 28, 23, 15]",7,0,[],20.81987807,10544,1483,1,0,7,1.1948681641401226
undo,65,1,1,0,0,23,"[0, 14, 17, 1, 28, 23]",6,2,"[15, 22]",51.70676849,12933,2389,2,0,7,1.0327458250705703
undo,65,1,1,0,0,28,"[0, 14, 17, 1, 28]",5,5,"[9, 15, 22, 23, 29]",88.59850198,17563,4630,5,3,7,1.0339861575999345
undo,65,1,0,0,1,29,"[0, 14, 17, 1, 28, 29]",6,0,[],17.79595966,19101,1538,1,0,6,1.2370708782777118
undo,65,1,1,0,0,28,"[0, 14, 17, 1, 28]",5,5,"[9, 15, 22, 23, 29]",88.59850198,20460,1359,5,3,7,1.0339861575999345
undo,65,1,1,0,0,1,"[0, 14, 17, 1]",4,12,"[4, 5, 8, 9, 15, 18, 20, 22, 23, 25, 28, 29]",123.4840291,22308,1848,5,15,7,1.0264985578353567
undo,65,1,1,0,0,17,"[0, 14, 17]",3,15,"[1, 4, 5, 8, 9, 13, 15, 18, 19, 20, 22, 23, 25, 28, 29]",147.8356204,24039,1731,5,27,7,1.0028844724416826
undo,65,1,0,0,0,20,"[0, 14, 17, 20]",4,5,"[4, 5, 8, 18, 29]",79.42509489,25928,1889,3,3,6,1.2972077151057804
undo,65,1,0,0,0,5,"[0, 14, 17, 20, 5]",5,1,[18],57.95418433,27527,1599,1,0,6,1.2923132195161702
undo,65,1,0,0,1,18,"[0, 14, 17, 20, 5, 18]",6,0,[],35.12875991,28659,1132,1,0,6,1.3149712096478787
undo,65,1,1,0,0,5,"[0, 14, 17, 20, 5]",5,1,[18],57.95418433,33131,4472,1,0,6,1.2923132195161702
undo,65,1,1,0,0,20,"[0, 14, 17, 20]",4,5,"[4, 5, 8, 18, 29]",79.42509489,33964,833,3,3,6,1.2972077151057804
undo,65,1,0,0,1,8,"[0, 14, 17, 20, 8]",5,0,[],3.365907408,35835,1871,1,0,5,3.0268784958367347
undo,65,1,1,0,0,20,"[0, 14, 17, 20]",4,5,"[4, 5, 8, 18, 29]",79.42509489,37627,1792,3,3,6,1.2972077151057804
undo,65,1,1,0,0,17,"[0, 14, 17]",3,15,"[1, 4, 5, 8, 9, 13, 15, 18, 19, 20, 22, 23, 25, 28, 29]",147.8356204,38892,1265,5,27,7,1.0028844724416826
undo,65,1,0,0,0,1,"[0, 14, 17, 1]",4,12,"[4, 5, 8, 9, 15, 18, 20, 22, 23, 25, 28, 29]",123.4840291,43344,4452,5,15,7,1.0264985578353567
undo,65,1,0,0,0,15,"[0, 14, 17, 1, 15]",5,4,"[22, 23, 28, 29]",61.62936069,46144,2800,4,0,6,1.0202069051630458
undo,65,1,0,0,1,23,"[0, 14, 17, 1, 15, 23]",6,0,[],30.74247027,47826,1682,1,0,6,1.1199443013663988
undo,65,1,1,0,0,15,"[0, 14, 17, 1, 15]",5,4,"[22, 23, 28, 29]",61.62936069,50381,2555,4,0,6,1.0202069051630458
undo,65,1,0,0,1,28,"[0, 14, 17, 1, 15, 28]",6,0,[],26.40153078,51515,1134,1,0,6,1.338197848944513
undo,65,1,0,1,1,28,"[0, 14, 17, 1, 15, 28]",6,0,[],26.40153078,53478,1963,1,0,6,1.338197848944513
undo,66,9,0,0,0,0,[0],1,27,"[1, 3, 4, 5, 6, 7, 8, 9, 10, 11, 13, 14, 15, 16, 17, 18, 19, 20, 21, 22, 23, 24, 25, 26, 27, 28, 29]",300,159,-1,2,182,10,0.0
undo,66,9,0,0,0,25,"[0, 25]",2,24,"[1, 3, 4, 5, 6, 7, 8, 9, 10, 11, 13, 15, 16, 17, 18, 19, 20, 21, 22, 23, 24, 26, 27, 28]",275.9168108,2980,2821,2,104,10,1.0
undo,66,9,0,0,0,10,"[0, 25, 10]",3,20,"[3, 4, 5, 7, 8, 9, 11, 13, 15, 16, 17, 18, 19, 20, 21, 22, 23, 26, 27, 28]",236.0670932,3963,983,2,76,10,1.1767014107208227
undo,66,9,0,0,0,28,"[0, 25, 10, 28]",4,19,"[3, 4, 5, 7, 8, 9, 11, 13, 15, 16, 17, 18, 19, 20, 21, 22, 23, 26, 27]",179.0670932,6428,2465,1,17,10,1.628144700364468
undo,66,9,0,0,0,8,"[0, 25, 10, 28, 8]",5,15,"[3, 4, 7, 9, 11, 16, 17, 18, 19, 20, 21, 22, 23, 26, 27]",168.2504393,8497,2069,1,10,10,2.0656593525143574
undo,66,9,0,0,0,23,"[0, 25, 10, 28, 8, 23]",6,12,"[3, 4, 7, 9, 11, 18, 19, 20, 21, 22, 26, 27]",146.7795288,9940,1443,1,7,10,2.573408160646792
undo,66,9,0,0,0,9,"[0, 25, 10, 28, 8, 23, 9]",7,9,"[3, 4, 7, 11, 18, 19, 20, 21, 26]",124.418849,11164,1224,1,5,10,2.3579094141840375
undo,66,9,0,0,0,26,"[0, 25, 10, 28, 8, 23, 9, 26]",8,3,"[18, 20, 21]",67.77081284,12294,1130,1,2,10,1.9878439811785502
undo,66,9,0,1,0,26,"[0, 25, 10, 28, 8, 23, 9, 26]",8,3,"[18, 20, 21]",67.77081284,13364,1070,1,2,10,1.9878439811785502
undo,67,2,0,0,0,0,[0],1,23,"[1, 2, 4, 5, 6, 7, 8, 9, 12, 13, 15, 16, 17, 18, 19, 20, 22, 23, 25, 26, 27, 28, 29]",300,178,-1,70,620,10,0.0
undo,67,2,0,0,0,19,"[0, 19]",2,22,"[1, 2, 4, 5, 6, 7, 8, 9, 12, 13, 15, 16, 17, 18, 20, 22, 23, 25, 26, 27, 28, 29]",210.306076,4089,3911,67,431,10,1.0
undo,67,2,0,0,0,12,"[0, 19, 12]",3,17,"[1, 4, 5, 6, 7, 13, 15, 16, 17, 18, 20, 22, 25, 26, 27, 28, 29]",174.2921898,5596,1507,66,298,10,1.1107635036313153
undo,67,2,0,0,0,5,"[0, 19, 12, 5]",4,11,"[1, 6, 7, 13, 15, 16, 18, 22, 25, 26, 29]",144.7625437,7188,1592,38,136,10,1.0968174771581647
undo,67,2,0,0,0,22,"[0, 19, 12, 5, 22]",5,8,"[1, 6, 7, 13, 15, 18, 26, 29]",131.9562952,8178,990,20,63,10,1.0889910507461968
undo,67,2,0,0,0,13,"[0, 19, 12, 5, 22, 13]",6,7,"[1, 6, 7, 15, 18, 26, 29]",117.0902265,10592,2414,19,20,10,1.236526217328057
undo,67,2,0,0,0,18,"[0, 19, 12, 5, 22, 13, 18]",7,4,"[7, 15, 26, 29]",81.91921567,12425,1833,10,3,10,1.2128708213409936
undo,67,2,0,0,0,7,"[0, 19, 12, 5, 22, 13, 18, 7]",8,3,"[15, 26, 29]",71.62358553,13491,1066,5,0,10,1.2019811287894737
undo,67,2,0,0,0,26,"[0, 19, 12, 5, 22, 13, 18, 7, 26]",9,2,"[15, 29]",48.82007703,14589,1098,2,0,10,1.1883593342191134
undo,67,2,0,1,0,26,"[0, 19, 12, 5, 22, 13, 18, 7, 26]",9,2,"[15, 29]",48.82007703,15447,858,2,0,10,1.1883593342191134
undo,68,21,0,0,0,0,[0],1,29,"[1, 2, 3, 4, 5, 6, 7, 8, 9, 10, 11, 12, 13, 14, 15, 16, 17, 18, 19, 20, 21, 22, 23, 24, 25, 26, 27, 28, 29]",300,179,-1,84,830,9,0.0
undo,68,21,0,0,0,25,"[0, 25]",2,26,"[1, 2, 3, 4, 5, 6, 7, 8, 9, 10, 11, 12, 13, 14, 15, 16, 17, 18, 20, 21, 22, 23, 24, 26, 27, 29]",240.1836143,4032,3853,30,238,9,1.0
undo,68,21,0,0,0,23,"[0, 25, 23]",3,21,"[1, 2, 4, 6, 7, 8, 9, 10, 11, 12, 14, 15, 16, 17, 18, 20, 21, 22, 24, 27, 29]",196.8592562,4999,967,14,80,9,1.0416131642057598
undo,68,21,0,0,0,21,"[0, 25, 23, 21]",4,14,"[1, 4, 6, 8, 9, 14, 15, 16, 17, 18, 20, 22, 24, 29]",167.2450705,5807,808,10,25,9,1.4768792067751173
undo,68,21,0,0,0,14,"[0, 25, 23, 21, 14]",5,10,"[4, 8, 9, 15, 16, 17, 18, 22, 24, 29]",141.6325735,8348,2541,8,13,9,1.3826076066332742
undo,68,21,0,0,0,4,"[0, 25, 23, 21, 14, 4]",6,7,"[8, 15, 16, 17, 18, 24, 29]",127.4904379,9164,816,8,3,9,1.3487191473328533
undo,68,21,0,0,0,16,"[0, 25, 23, 21, 14, 4, 16]",7,3,"[8, 15, 24]",82.89223163,10909,1745,4,1,9,1.3301484172843694
undo,68,21,0,0,0,8,"[0, 25, 23, 21, 14, 4, 16, 8]",8,2,"[15, 24]",64.2911564,12241,1332,2,0,9,1.3009886562393016
undo,68,21,0,0,1,15,"[0, 25, 23, 21, 14, 4, 16, 8, 15]",9,0,[],39.2911564,13258,1017,1,0,9,1.5486591410600183
undo,68,21,1,0,0,8,"[0, 25, 23, 21, 14, 4, 16, 8]",8,2,"[15, 24]",64.2911564,15431,2173,2,0,9,1.3009886562393016
undo,68,21,0,0,1,24,"[0, 25, 23, 21, 14, 4, 16, 8, 24]",9,0,[],3.233806307,16606,1175,1,0,9,1.4921920156535446
undo,68,21,1,0,0,8,"[0, 25, 23, 21, 14, 4, 16, 8]",8,2,"[15, 24]",64.2911564,18212,1606,2,0,9,1.3009886562393016
undo,68,21,1,0,0,16,"[0, 25, 23, 21, 14, 4, 16]",7,3,"[8, 15, 24]",82.89223163,18828,616,4,1,9,1.3301484172843694
undo,68,21,0,0,0,15,"[0, 25, 23, 21, 14, 4, 16, 15]",8,2,"[8, 24]",57.33836696,20751,1923,2,0,9,1.4414553453680685
undo,68,21,0,0,1,8,"[0, 25, 23, 21, 14, 4, 16, 15, 8]",9,0,[],32.33836696,22867,2116,1,0,9,1.4773512227079062
undo,68,21,1,0,0,15,"[0, 25, 23, 21, 14, 4, 16, 15]",8,2,"[8, 24]",57.33836696,25356,2489,2,0,9,1.4414553453680685
undo,68,21,0,0,1,24,"[0, 25, 23, 21, 14, 4, 16, 15, 24]",9,0,[],11.63278743,26897,1541,1,0,9,1.4499604783769957
undo,68,21,1,0,0,15,"[0, 25, 23, 21, 14, 4, 16, 15]",8,2,"[8, 24]",57.33836696,27870,973,2,0,9,1.4414553453680685
undo,68,21,1,0,0,16,"[0, 25, 23, 21, 14, 4, 16]",7,3,"[8, 15, 24]",82.89223163,31500,3630,4,1,9,1.3301484172843694
undo,68,21,1,0,0,4,"[0, 25, 23, 21, 14, 4]",6,7,"[8, 15, 16, 17, 18, 24, 29]",127.4904379,31817,317,8,3,9,1.3487191473328533
undo,68,21,1,0,0,14,"[0, 25, 23, 21, 14]",5,10,"[4, 8, 9, 15, 16, 17, 18, 22, 24, 29]",141.6325735,32216,399,8,13,9,1.3826076066332742
undo,68,21,1,0,0,21,"[0, 25, 23, 21]",4,14,"[1, 4, 6, 8, 9, 14, 15, 16, 17, 18, 20, 22, 24, 29]",167.2450705,32666,450,10,25,9,1.4768792067751173
undo,68,21,1,0,0,23,"[0, 25, 23]",3,21,"[1, 2, 4, 6, 7, 8, 9, 10, 11, 12, 14, 15, 16, 17, 18, 20, 21, 22, 24, 27, 29]",196.8592562,33065,399,14,80,9,1.0416131642057598
undo,68,21,1,0,0,25,"[0, 25]",2,26,"[1, 2, 3, 4, 5, 6, 7, 8, 9, 10, 11, 12, 13, 14, 15, 16, 17, 18, 20, 21, 22, 23, 24, 26, 27, 29]",240.1836143,33465,400,30,238,9,1.0
undo,68,21,0,0,0,18,"[0, 25, 18]",3,23,"[1, 2, 3, 4, 6, 7, 8, 9, 10, 11, 12, 14, 15, 16, 17, 20, 21, 22, 23, 24, 26, 27, 29]",198.4223882,35676,2211,1,22,9,1.7194331060017298
undo,68,21,0,0,0,29,"[0, 25, 18, 29]",4,19,"[2, 4, 6, 7, 8, 10, 11, 12, 14, 15, 16, 17, 20, 21, 22, 23, 24, 26, 27]",169.7692907,36941,1265,11,44,8,1.5372409070640154
undo,68,21,0,0,0,22,"[0, 25, 18, 29, 22]",5,13,"[2, 4, 6, 7, 10, 11, 12, 14, 17, 20, 21, 23, 27]",139.5037988,40383,3442,2,11,8,1.9519077549890076
undo,68,21,0,0,0,20,"[0, 25, 18, 29, 22, 20]",6,6,"[6, 7, 10, 11, 12, 17]",111.2726104,42769,2386,2,4,8,2.2910153832268065
undo,68,21,0,0,0,12,"[0, 25, 18, 29, 22, 20, 12]",7,1,[10],57.15237385,44263,1494,1,0,8,2.1874614020669414
undo,68,21,0,0,1,10,"[0, 25, 18, 29, 22, 20, 12, 10]",8,0,[],34.34886534,45795,1532,1,0,8,2.181796919371535
undo,68,21,0,1,1,10,"[0, 25, 18, 29, 22, 20, 12, 10]",8,0,[],34.34886534,47136,1341,1,0,8,2.181796919371535
basic,69,4,0,0,0,0,[0],1,26,"[3, 4, 5, 6, 7, 8, 10, 11, 12, 13, 14, 15, 16, 17, 18, 19, 20, 21, 22, 23, 24, 25, 26, 27, 28, 29]",300,165,-1,4,489,10,0.0
basic,69,4,0,0,0,28,"[0, 28]",2,21,"[3, 4, 5, 6, 10, 11, 12, 13, 14, 15, 16, 17, 19, 20, 21, 22, 23, 24, 25, 26, 27]",225.9392142,3821,3656,2,216,10,1.0
basic,69,4,0,0,0,11,"[0, 28, 11]",3,16,"[3, 4, 5, 6, 12, 13, 14, 16, 17, 20, 21, 22, 23, 24, 25, 26]",177.0618165,6633,2812,1,99,10,1.0005230107421244
basic,69,4,0,0,0,16,"[0, 28, 11, 16]",4,13,"[3, 4, 5, 6, 12, 13, 14, 17, 20, 21, 22, 24, 25]",162.0618165,7955,1322,38,165,9,1.0006824277240565
basic,69,4,0,0,0,17,"[0, 28, 11, 16, 17]",5,12,"[3, 4, 5, 6, 12, 13, 14, 20, 21, 22, 24, 25]",135.9850069,8965,1010,9,39,9,1.000593778858539
basic,69,4,0,0,0,20,"[0, 28, 11, 16, 17, 20]",6,7,"[3, 5, 14, 21, 22, 24, 25]",95.76063617,9980,1015,4,4,9,1.117732149987094
basic,69,4,0,0,0,22,"[0, 28, 11, 16, 17, 20, 22]",7,2,"[5, 21]",65.52820326,10789,809,1,1,9,1.4778253891862074
basic,69,4,0,0,0,21,"[0, 28, 11, 16, 17, 20, 22, 21]",8,1,[5],54.48284224,11761,972,1,0,9,1.6611384210686666
basic,69,4,0,1,0,21,"[0, 28, 11, 16, 17, 20, 22, 21]",8,1,[5],54.48284224,12520,759,1,0,9,1.6611384210686666
basic,70,26,0,0,0,0,[0],1,29,"[1, 2, 3, 4, 5, 6, 7, 8, 9, 10, 11, 12, 13, 14, 15, 16, 17, 18, 19, 20, 21, 22, 23, 24, 25, 26, 27, 28, 29]",300,161,-1,9,226,9,0.0
basic,70,26,0,0,0,21,"[0, 21]",2,25,"[2, 3, 4, 5, 6, 7, 8, 10, 11, 12, 13, 14, 15, 16, 17, 18, 19, 22, 23, 24, 25, 26, 27, 28, 29]",211.1349337,4835,4674,7,90,9,1.0
basic,70,26,0,0,0,16,"[0, 21, 16]",3,12,"[4, 5, 6, 10, 11, 12, 13, 14, 17, 23, 26, 29]",151.2266705,7348,2513,1,34,9,1.3289691188319968
basic,70,26,0,0,0,29,"[0, 21, 16, 29]",4,8,"[4, 5, 6, 10, 13, 14, 17, 23]",127.0192337,9945,2597,1,28,9,1.4156891800947415
basic,70,26,0,0,0,4,"[0, 21, 16, 29, 4]",5,5,"[6, 10, 14, 17, 23]",103.0192337,11574,1629,1,12,9,1.6252228687746915
basic,70,26,0,0,0,17,"[0, 21, 16, 29, 4, 17]",6,3,"[6, 10, 14]",81.92421056,12506,932,1,4,9,1.534793846471065
basic,70,26,0,0,0,6,"[0, 21, 16, 29, 4, 17, 6]",7,2,"[10, 14]",61.79959876,13464,958,2,0,8,1.4830858951271333
