condition,trial_id,map_id,undoIndicator,submit,checkEnd,currentChoice,chosen_all,n_city_all,n_within_reach,cities_reach,currentBudget,time_all,rt_all,n_opt_paths_all,n_subopt_paths_all,mas_all,tortuosity_all
undo,0,33,0,0,0,0,[0],1,23,"[1, 2, 5, 7, 8, 11, 12, 13, 14, 15, 16, 17, 18, 19, 20, 21, 23, 24, 25, 26, 27, 28, 29]",300,125,-1,5,108,9,0.0
undo,0,33,0,0,0,8,"[0, 8]",2,22,"[1, 2, 5, 7, 11, 12, 13, 14, 15, 16, 17, 18, 19, 20, 21, 23, 24, 25, 26, 27, 28, 29]",265.8679037,7238,7113,5,87,9,1.0
undo,0,33,0,0,0,21,"[0, 8, 21]",3,16,"[2, 5, 7, 11, 13, 14, 16, 17, 18, 19, 20, 24, 26, 27, 28, 29]",166.0430571,10705,3467,5,80,9,1.0670557763739492
undo,0,33,0,0,0,13,"[0, 8, 21, 13]",4,12,"[2, 7, 11, 14, 16, 17, 18, 19, 20, 24, 26, 29]",139.6422995,11891,1186,4,54,9,1.0555103820910288
undo,0,33,0,0,0,19,"[0, 8, 21, 13, 19]",5,10,"[7, 11, 14, 16, 17, 18, 20, 24, 26, 29]",114.1472019,13130,1239,3,19,9,1.1090798607799486
undo,0,33,0,0,0,24,"[0, 8, 21, 13, 19, 24]",6,6,"[7, 14, 16, 18, 26, 29]",72.09960985,14370,1240,2,3,9,1.1193530461391534
undo,0,33,0,0,0,7,"[0, 8, 21, 13, 19, 24, 7]",7,2,"[14, 26]",42.89344611,15420,1050,2,0,9,1.2065014071663551
undo,0,33,0,0,0,14,"[0, 8, 21, 13, 19, 24, 7, 14]",8,1,[26],28.02737737,16679,1259,1,0,9,1.2536495746979057
undo,0,33,0,0,1,26,"[0, 8, 21, 13, 19, 24, 7, 14, 26]",9,0,[],15.37826672,17750,1071,1,0,9,1.2580465331304596
undo,0,33,0,1,1,26,"[0, 8, 21, 13, 19, 24, 7, 14, 26]",9,0,[],15.37826672,19061,1311,1,0,9,1.2580465331304596
undo,1,39,0,0,0,0,[0],1,28,"[1, 2, 3, 4, 5, 6, 7, 9, 10, 11, 12, 13, 14, 15, 16, 17, 18, 19, 20, 21, 22, 23, 24, 25, 26, 27, 28, 29]",300,130,-1,1,30,10,0.0
undo,1,39,0,0,0,14,"[0, 14]",2,26,"[1, 2, 3, 4, 5, 6, 7, 9, 10, 12, 13, 15, 16, 17, 18, 19, 20, 21, 22, 23, 24, 25, 26, 27, 28, 29]",286.9615952,3219,3089,1,22,10,1.0
undo,1,39,0,0,0,29,"[0, 14, 29]",3,23,"[1, 2, 3, 4, 5, 6, 7, 9, 10, 12, 13, 15, 16, 17, 18, 19, 21, 22, 23, 24, 25, 26, 28]",218.9321898,4534,1315,1,21,10,1.4237768813412561
undo,1,39,0,0,0,12,"[0, 14, 29, 12]",4,16,"[1, 2, 4, 5, 7, 9, 10, 13, 15, 16, 18, 19, 22, 23, 24, 26]",158.3929463,6104,1570,1,11,10,1.2085522586932163
undo,1,39,0,0,0,10,"[0, 14, 29, 12, 10]",5,11,"[1, 4, 5, 7, 15, 16, 18, 19, 22, 23, 26]",122.8823845,7076,972,1,8,10,1.4905426536315662
undo,1,39,0,0,0,7,"[0, 14, 29, 12, 10, 7]",6,6,"[1, 16, 18, 19, 22, 26]",89.46083457,8252,1176,1,6,10,1.3836596018032035
undo,1,39,0,0,0,22,"[0, 14, 29, 12, 10, 7, 22]",7,3,"[16, 19, 26]",57.63317364,10368,2116,2,1,9,1.5652539596768476
undo,1,39,0,0,0,26,"[0, 14, 29, 12, 10, 7, 22, 26]",8,1,[16],39.9131285,11450,1082,1,0,9,1.610205816719853
undo,1,39,0,0,1,16,"[0, 14, 29, 12, 10, 7, 22, 26, 16]",9,0,[],6.671588219,12810,1360,1,0,9,1.5451826245200178
undo,1,39,0,1,1,16,"[0, 14, 29, 12, 10, 7, 22, 26, 16]",9,0,[],6.671588219,15514,2704,1,0,9,1.5451826245200178
undo,2,42,0,0,0,0,[0],1,29,"[1, 2, 3, 4, 5, 6, 7, 8, 9, 10, 11, 12, 13, 14, 15, 16, 17, 18, 19, 20, 21, 22, 23, 24, 25, 26, 27, 28, 29]",300,130,-1,16,302,9,0.0
undo,2,42,0,0,0,4,"[0, 4]",2,28,"[1, 2, 3, 5, 6, 7, 8, 9, 10, 11, 12, 13, 14, 15, 16, 17, 18, 19, 20, 21, 22, 23, 24, 25, 26, 27, 28, 29]",209.5290102,5702,5572,4,80,9,1.0
undo,2,42,0,0,0,22,"[0, 4, 22]",3,24,"[1, 2, 3, 5, 6, 7, 8, 9, 10, 11, 13, 15, 17, 18, 19, 20, 21, 23, 24, 25, 26, 27, 28, 29]",198.3486703,7779,2077,3,53,9,1.1473032812120834
undo,2,42,0,0,0,8,"[0, 4, 22, 8]",4,21,"[1, 2, 3, 5, 6, 7, 10, 11, 15, 17, 18, 19, 20, 21, 23, 24, 25, 26, 27, 28, 29]",176.2127267,8692,913,2,36,9,1.1513227322639639
undo,2,42,0,0,0,1,"[0, 4, 22, 8, 1]",5,12,"[2, 5, 6, 7, 10, 15, 18, 19, 24, 26, 27, 28]",127.1209758,9789,1097,2,24,9,1.1101621876186907
undo,2,42,0,0,0,7,"[0, 4, 22, 8, 1, 7]",6,5,"[2, 19, 26, 27, 28]",97.12097583,10761,972,2,10,9,1.1711274205343067
undo,2,42,0,0,0,26,"[0, 4, 22, 8, 1, 7, 26]",7,3,"[2, 19, 27]",70.55031532,13089,2328,2,1,9,1.1588367913131314
undo,2,42,0,0,0,27,"[0, 4, 22, 8, 1, 7, 26, 27]",8,1,[19],52.52255894,14196,1107,1,0,9,1.160587570992885
undo,2,42,0,0,1,19,"[0, 4, 22, 8, 1, 7, 26, 27, 19]",9,0,[],11.51036563,15581,1385,1,0,9,1.3341568614108437
undo,2,42,0,1,1,19,"[0, 4, 22, 8, 1, 7, 26, 27, 19]",9,0,[],11.51036563,16581,1000,1,0,9,1.3341568614108437
undo,3,0,0,0,0,0,[0],1,27,"[2, 3, 4, 5, 6, 7, 8, 9, 10, 11, 12, 13, 14, 15, 16, 17, 19, 20, 21, 22, 23, 24, 25, 26, 27, 28, 29]",300,164,-1,104,1136,9,0.0
undo,3,0,0,0,0,20,"[0, 20]",2,25,"[2, 3, 4, 5, 6, 7, 8, 9, 11, 12, 13, 14, 15, 16, 17, 19, 21, 22, 23, 24, 25, 26, 27, 28, 29]",215.4955622,6085,5921,36,372,9,1.0
undo,3,0,0,0,0,5,"[0, 20, 5]",3,22,"[2, 3, 4, 7, 8, 9, 11, 12, 13, 14, 15, 16, 17, 19, 21, 22, 23, 24, 25, 26, 28, 29]",153.2942761,7508,1423,33,251,9,1.0828244018179105
undo,3,0,0,0,0,4,"[0, 20, 5, 4]",4,19,"[2, 3, 7, 8, 9, 11, 12, 13, 14, 15, 17, 19, 21, 22, 23, 24, 25, 26, 28]",128.2144037,8542,1034,21,127,9,1.0973859443611045
undo,3,0,0,0,0,26,"[0, 20, 5, 4, 26]",5,14,"[3, 7, 8, 9, 11, 12, 13, 14, 15, 17, 19, 23, 24, 28]",116.1728091,9639,1097,9,63,9,1.1378617460104323
undo,3,0,0,0,0,24,"[0, 20, 5, 4, 26, 24]",6,11,"[3, 7, 8, 9, 11, 12, 15, 17, 19, 23, 28]",99.05556633,10701,1062,9,24,9,1.204469953325506
undo,3,0,0,0,0,15,"[0, 20, 5, 4, 26, 24, 15]",7,8,"[3, 7, 8, 9, 11, 12, 17, 19]",75.71033127,11779,1078,5,6,9,1.1865351459643638
undo,3,0,0,0,0,7,"[0, 20, 5, 4, 26, 24, 15, 7]",8,2,"[3, 8]",44.64588214,13179,1400,2,0,9,1.2455705670301183
undo,3,0,0,0,1,8,"[0, 20, 5, 4, 26, 24, 15, 7, 8]",9,0,[],25.54090896,14730,1551,1,0,9,1.2337265013393985
undo,3,0,0,1,1,8,"[0, 20, 5, 4, 26, 24, 15, 7, 8]",9,0,[],25.54090896,18148,3418,1,0,9,1.2337265013393985
undo,4,32,0,0,0,0,[0],1,29,"[1, 2, 3, 4, 5, 6, 7, 8, 9, 10, 11, 12, 13, 14, 15, 16, 17, 18, 19, 20, 21, 22, 23, 24, 25, 26, 27, 28, 29]",300,131,-1,17,359,10,0.0
undo,4,32,0,0,0,19,"[0, 19]",2,28,"[1, 2, 3, 4, 5, 6, 7, 8, 9, 10, 11, 12, 13, 14, 15, 16, 17, 18, 20, 21, 22, 23, 24, 25, 26, 27, 28, 29]",283.5075775,2522,2391,16,294,10,1.0
undo,4,32,0,0,0,13,"[0, 19, 13]",3,24,"[2, 3, 4, 5, 6, 8, 9, 10, 11, 12, 14, 15, 16, 17, 18, 20, 21, 22, 23, 24, 25, 26, 27, 28]",260.3127505,3524,1002,14,227,10,1.0172874229878615
undo,4,32,0,0,0,15,"[0, 19, 13, 15]",4,18,"[2, 3, 5, 8, 9, 10, 11, 12, 16, 17, 20, 22, 23, 24, 25, 26, 27, 28]",177.4393531,4788,1264,9,116,10,1.435447391509833
undo,4,32,0,0,0,28,"[0, 19, 13, 15, 28]",5,17,"[2, 3, 5, 8, 9, 10, 11, 12, 16, 17, 20, 22, 23, 24, 25, 26, 27]",166.0375988,5560,772,9,70,10,1.3843701324937985
undo,4,32,0,0,0,12,"[0, 19, 13, 15, 28, 12]",6,14,"[2, 3, 5, 8, 9, 10, 11, 16, 17, 20, 22, 24, 26, 27]",147.0639329,6809,1249,6,35,10,1.358372254952329
undo,4,32,0,0,0,16,"[0, 19, 13, 15, 28, 12, 16]",7,13,"[2, 3, 5, 8, 9, 10, 11, 17, 20, 22, 24, 26, 27]",131.411457,7842,1033,5,15,10,1.4356932930709845
undo,4,32,0,0,0,22,"[0, 19, 13, 15, 28, 12, 16, 22]",8,6,"[2, 8, 9, 17, 20, 27]",97.57360838,8852,1010,3,5,10,1.4335226411545752
undo,4,32,0,0,0,9,"[0, 19, 13, 15, 28, 12, 16, 22, 9]",9,3,"[2, 8, 20]",75.37000507,9957,1105,3,0,10,1.4837166378374758
undo,4,32,0,0,1,8,"[0, 19, 13, 15, 28, 12, 16, 22, 9, 8]",10,0,[],30.24794838,12328,2371,1,0,10,1.3767698817641267
undo,4,32,0,1,1,8,"[0, 19, 13, 15, 28, 12, 16, 22, 9, 8]",10,0,[],30.24794838,13066,738,1,0,10,1.3767698817641267
undo,5,36,0,0,0,0,[0],1,24,"[2, 4, 5, 6, 7, 8, 9, 10, 12, 13, 14, 15, 16, 17, 18, 19, 20, 22, 23, 25, 26, 27, 28, 29]",300,130,-1,2,200,10,0.0
undo,5,36,0,0,0,18,"[0, 18]",2,21,"[2, 4, 5, 6, 7, 8, 9, 10, 12, 13, 14, 16, 17, 19, 22, 23, 25, 26, 27, 28, 29]",279.6039219,3250,3120,2,110,10,1.0
undo,5,36,0,0,0,16,"[0, 18, 16]",3,9,"[2, 9, 10, 12, 13, 17, 19, 23, 25]",169.581197,8370,5120,4,33,9,1.2218591943452424
undo,5,36,0,0,0,17,"[0, 18, 16, 17]",4,7,"[2, 9, 10, 12, 13, 19, 25]",141.2615925,9477,1107,4,21,9,1.6795129314662942
undo,5,36,0,0,0,9,"[0, 18, 16, 17, 9]",5,5,"[2, 12, 13, 19, 25]",115.012783,10767,1290,3,6,9,2.6784437443596194
undo,5,36,0,0,0,19,"[0, 18, 16, 17, 9, 19]",6,4,"[2, 12, 13, 25]",99.88003706,11696,929,3,3,9,2.5963344600994773
undo,5,36,0,0,0,2,"[0, 18, 16, 17, 9, 19, 2]",7,2,"[13, 25]",62.75861467,12689,993,2,0,9,2.100797884988348
undo,5,36,0,0,0,25,"[0, 18, 16, 17, 9, 19, 2, 25]",8,1,[13],37.75861467,13795,1106,1,0,9,2.290514334927331
undo,5,36,0,0,1,13,"[0, 18, 16, 17, 9, 19, 2, 25, 13]",9,0,[],17.16735439,14637,842,1,0,9,2.883646365994176
undo,5,36,0,1,1,13,"[0, 18, 16, 17, 9, 19, 2, 25, 13]",9,0,[],17.16735439,15731,1094,1,0,9,2.883646365994176
undo,6,4,0,0,0,0,[0],1,26,"[3, 4, 5, 6, 7, 8, 10, 11, 12, 13, 14, 15, 16, 17, 18, 19, 20, 21, 22, 23, 24, 25, 26, 27, 28, 29]",300,132,-1,4,489,10,0.0
undo,6,4,0,0,0,28,"[0, 28]",2,21,"[3, 4, 5, 6, 10, 11, 12, 13, 14, 15, 16, 17, 19, 20, 21, 22, 23, 24, 25, 26, 27]",225.9392142,3414,3282,2,216,10,1.0
undo,6,4,0,0,0,14,"[0, 28, 14]",3,13,"[3, 4, 5, 6, 11, 13, 16, 17, 20, 21, 22, 24, 25]",159.6972335,4860,1446,1,26,10,1.0273973946789214
undo,6,4,0,0,0,25,"[0, 28, 14, 25]",4,12,"[3, 4, 5, 6, 11, 13, 16, 17, 20, 21, 22, 24]",143.572718,5569,709,1,25,10,1.233547772313525
undo,6,4,0,0,0,11,"[0, 28, 14, 25, 11]",5,10,"[3, 4, 5, 6, 13, 16, 17, 20, 21, 22]",124.7844238,6881,1312,1,15,10,1.425978575879479
undo,6,4,0,0,0,16,"[0, 28, 14, 25, 11, 16]",6,9,"[3, 4, 5, 6, 13, 17, 20, 21, 22]",109.7844238,7627,746,1,12,10,1.3799325158051412
undo,6,4,0,0,0,3,"[0, 28, 14, 25, 11, 16, 3]",7,2,"[17, 20]",68.15510719,8669,1042,1,1,9,1.3292844629725955
undo,6,4,0,0,0,17,"[0, 28, 14, 25, 11, 16, 3, 17]",8,1,[20],43.63980585,9663,994,1,0,9,1.5639571149270572
undo,6,4,0,0,1,20,"[0, 28, 14, 25, 11, 16, 3, 17, 20]",9,0,[],3.415435124,12448,2785,1,0,9,1.6231058358944275
undo,6,4,0,1,1,20,"[0, 28, 14, 25, 11, 16, 3, 17, 20]",9,0,[],3.415435124,14633,2185,1,0,9,1.6231058358944275
undo,7,40,0,0,0,0,[0],1,29,"[1, 2, 3, 4, 5, 6, 7, 8, 9, 10, 11, 12, 13, 14, 15, 16, 17, 18, 19, 20, 21, 22, 23, 24, 25, 26, 27, 28, 29]",300,130,-1,8,191,9,0.0
undo,7,40,0,0,0,1,"[0, 1]",2,18,"[2, 5, 6, 7, 8, 9, 10, 11, 13, 15, 17, 18, 19, 21, 22, 23, 27, 29]",247.8463808,6097,5967,4,80,9,1.0
undo,7,40,0,0,0,6,"[0, 1, 6]",3,17,"[2, 5, 7, 8, 9, 10, 11, 13, 15, 17, 18, 19, 21, 22, 23, 27, 29]",227.7466295,6893,796,4,74,9,1.0459427008232034
undo,7,40,0,0,0,9,"[0, 1, 6, 9]",4,10,"[2, 5, 8, 11, 18, 19, 21, 22, 23, 27]",159.146338,8533,1640,17,39,8,1.142098432552584
undo,7,40,0,0,0,18,"[0, 1, 6, 9, 18]",5,9,"[2, 5, 8, 11, 19, 21, 22, 23, 27]",142.5933926,9207,674,13,14,8,1.3288108654802917
undo,7,40,0,0,0,5,"[0, 1, 6, 9, 18, 5]",6,7,"[2, 8, 19, 21, 22, 23, 27]",111.0180858,10406,1199,5,5,8,1.5366414787972102
undo,7,40,0,0,0,23,"[0, 1, 6, 9, 18, 5, 23]",7,3,"[2, 19, 21]",82.71614241,11751,1345,3,0,8,2.2908821040631264
undo,7,40,0,0,1,19,"[0, 1, 6, 9, 18, 5, 23, 19]",8,0,[],50.76305179,12866,1115,1,0,8,2.4294131203959415
undo,7,40,0,1,1,19,"[0, 1, 6, 9, 18, 5, 23, 19]",8,0,[],50.76305179,14164,1298,1,0,8,2.4294131203959415
undo,8,8,0,0,0,0,[0],1,29,"[1, 2, 3, 4, 5, 6, 7, 8, 9, 10, 11, 12, 13, 14, 15, 16, 17, 18, 19, 20, 21, 22, 23, 24, 25, 26, 27, 28, 29]",300,114,-1,10,149,9,0.0
undo,8,8,0,0,0,5,"[0, 5]",2,28,"[1, 2, 3, 4, 6, 7, 8, 9, 10, 11, 12, 13, 14, 15, 16, 17, 18, 19, 20, 21, 22, 23, 24, 25, 26, 27, 28, 29]",254.5137383,3843,3729,10,100,9,1.0
undo,8,8,0,0,0,25,"[0, 5, 25]",3,20,"[1, 2, 3, 4, 6, 11, 12, 14, 15, 16, 17, 18, 19, 20, 21, 22, 23, 24, 28, 29]",215.3091468,5456,1613,4,42,9,1.2272747879909065
undo,8,8,0,0,0,1,"[0, 5, 25, 1]",4,17,"[3, 4, 6, 11, 12, 14, 15, 16, 17, 18, 20, 21, 22, 23, 24, 28, 29]",190.3091468,6435,979,3,24,9,1.1770245007593956
undo,8,8,0,0,0,23,"[0, 5, 25, 1, 23]",5,15,"[3, 4, 6, 11, 14, 15, 16, 17, 18, 20, 21, 22, 24, 28, 29]",167.2874179,7921,1486,1,14,9,1.141996583852372
undo,8,8,0,0,0,18,"[0, 5, 25, 1, 23, 18]",6,9,"[3, 4, 11, 14, 15, 16, 17, 24, 28]",125.5261919,9186,1265,1,7,9,1.3199166330970717
undo,8,8,0,0,0,28,"[0, 5, 25, 1, 23, 18, 28]",7,1,[16],59.906073,10197,1011,1,0,8,1.425373059246715
undo,8,8,0,0,1,16,"[0, 5, 25, 1, 23, 18, 28, 16]",8,0,[],37.54539323,11177,980,1,0,8,1.4175143337764708
undo,8,8,0,1,1,16,"[0, 5, 25, 1, 23, 18, 28, 16]",8,0,[],37.54539323,13082,1905,1,0,8,1.4175143337764708
undo,9,37,0,0,0,0,[0],1,29,"[1, 2, 3, 4, 5, 6, 7, 8, 9, 10, 11, 12, 13, 14, 15, 16, 17, 18, 19, 20, 21, 22, 23, 24, 25, 26, 27, 28, 29]",300,163,-1,6,168,10,0.0
undo,9,37,0,0,0,18,"[0, 18]",2,19,"[1, 2, 4, 6, 7, 9, 10, 12, 14, 15, 17, 19, 20, 21, 22, 23, 26, 28, 29]",202.4090168,3596,3433,6,89,10,1.0
undo,9,37,0,0,0,7,"[0, 18, 7]",3,12,"[1, 2, 4, 9, 15, 17, 19, 20, 21, 22, 26, 29]",175.2428614,4263,667,6,53,10,1.0413073512834488
undo,9,37,0,0,0,22,"[0, 18, 7, 22]",4,8,"[1, 2, 4, 15, 19, 20, 21, 26]",125.2428614,5100,837,6,29,10,1.0730792320325544
undo,9,37,0,0,0,4,"[0, 18, 7, 22, 4]",5,7,"[1, 2, 15, 19, 20, 21, 26]",100.2428614,6036,936,4,16,10,1.2290245562206235
undo,9,37,0,0,0,2,"[0, 18, 7, 22, 4, 2]",6,5,"[1, 15, 19, 20, 21]",88.84110714,6839,803,4,7,10,1.3968113858365216
undo,9,37,0,0,0,1,"[0, 18, 7, 22, 4, 2, 1]",7,4,"[15, 19, 20, 21]",71.63645661,7770,931,4,3,10,1.4424239294761476
undo,9,37,0,0,0,20,"[0, 18, 7, 22, 4, 2, 1, 20]",8,3,"[15, 19, 21]",37.40197107,9957,2187,2,1,10,1.7518607796010042
undo,9,37,0,0,0,15,"[0, 18, 7, 22, 4, 2, 1, 20, 15]",9,1,[21],20.40197107,11900,1943,1,0,10,1.680305745239285
undo,9,37,0,0,1,21,"[0, 18, 7, 22, 4, 2, 1, 20, 15, 21]",10,0,[],5.401971073,12616,716,1,0,10,1.8982635624510946
undo,9,37,0,1,1,21,"[0, 18, 7, 22, 4, 2, 1, 20, 15, 21]",10,0,[],5.401971073,14081,1465,1,0,10,1.8982635624510946
undo,10,10,0,0,0,0,[0],1,29,"[1, 2, 3, 4, 5, 6, 7, 8, 9, 10, 11, 12, 13, 14, 15, 16, 17, 18, 19, 20, 21, 22, 23, 24, 25, 26, 27, 28, 29]",300,130,-1,1,100,9,0.0
undo,10,10,0,0,0,13,"[0, 13]",2,25,"[1, 2, 3, 4, 6, 7, 8, 9, 10, 11, 12, 14, 17, 18, 19, 20, 21, 22, 23, 24, 25, 26, 27, 28, 29]",249.4628849,3061,2931,1,79,9,1.0
undo,10,10,0,0,0,11,"[0, 13, 11]",3,20,"[1, 2, 3, 6, 7, 8, 9, 10, 12, 14, 18, 19, 20, 21, 22, 24, 26, 27, 28, 29]",206.4512586,4119,1058,1,54,9,1.0313137484914219
undo,10,10,0,0,0,19,"[0, 13, 11, 19]",4,11,"[2, 6, 8, 9, 10, 14, 18, 20, 24, 26, 27]",170.0919407,5012,893,1,22,9,1.0879446220132545
undo,10,10,0,0,0,2,"[0, 13, 11, 19, 2]",5,4,"[14, 20, 26, 27]",126.1829439,6202,1190,1,4,9,1.06474052351343
undo,10,10,0,0,0,14,"[0, 13, 11, 19, 2, 14]",6,3,"[20, 26, 27]",114.0174188,7172,970,1,3,9,1.1628909195912238
undo,10,10,0,0,0,26,"[0, 13, 11, 19, 2, 14, 26]",7,2,"[20, 27]",79.34754716,8143,971,1,1,9,1.6660727647633602
undo,10,10,0,0,0,20,"[0, 13, 11, 19, 2, 14, 26, 20]",8,1,[27],47.56704999,9033,890,1,0,9,2.085581809637999
undo,10,10,0,0,1,27,"[0, 13, 11, 19, 2, 14, 26, 20, 27]",9,0,[],2.312215998,10085,1052,1,0,9,1.9116357409137932
undo,10,10,0,1,1,27,"[0, 13, 11, 19, 2, 14, 26, 20, 27]",9,0,[],2.312215998,10897,812,1,0,9,1.9116357409137932
undo,11,18,0,0,0,0,[0],1,28,"[1, 2, 3, 4, 5, 6, 7, 8, 9, 10, 11, 12, 13, 14, 16, 17, 18, 19, 20, 21, 22, 23, 24, 25, 26, 27, 28, 29]",300,129,-1,3,136,10,0.0
undo,11,18,0,0,0,28,"[0, 28]",2,16,"[1, 3, 5, 7, 8, 9, 12, 13, 14, 16, 20, 23, 24, 25, 26, 27]",236.4311397,2266,2137,2,19,10,1.0
undo,11,18,0,0,0,7,"[0, 28, 7]",3,15,"[1, 3, 5, 8, 9, 12, 13, 14, 16, 20, 23, 24, 25, 26, 27]",214.4084242,2991,725,2,17,10,1.4345180696367563
undo,11,18,0,0,0,25,"[0, 28, 7, 25]",4,13,"[1, 3, 5, 8, 9, 12, 13, 14, 16, 20, 23, 26, 27]",186.6055466,3899,908,2,15,10,1.8896451241781882
undo,11,18,0,0,0,8,"[0, 28, 7, 25, 8]",5,10,"[3, 5, 9, 12, 13, 14, 16, 23, 26, 27]",149.551532,5058,1159,2,10,10,1.590467437592877
undo,11,18,0,0,0,3,"[0, 28, 7, 25, 8, 3]",6,6,"[5, 12, 13, 14, 23, 27]",121.4801943,5701,643,1,10,9,1.4587755974793148
undo,11,18,0,0,0,14,"[0, 28, 7, 25, 8, 3, 14]",7,4,"[5, 12, 13, 27]",91.39697637,6608,907,4,0,8,1.8606737724243565
undo,11,18,0,0,1,13,"[0, 28, 7, 25, 8, 3, 14, 13]",8,0,[],72.42331041,7517,909,1,0,8,2.4208916262893254
undo,11,18,0,1,1,13,"[0, 28, 7, 25, 8, 3, 14, 13]",8,0,[],72.42331041,10831,3314,1,0,8,2.4208916262893254
undo,12,1,0,0,0,0,[0],1,26,"[1, 2, 4, 5, 7, 8, 9, 10, 11, 12, 13, 14, 15, 16, 17, 18, 19, 20, 21, 22, 23, 24, 25, 26, 28, 29]",300,130,-1,6,74,7,0.0
undo,12,1,0,0,0,8,"[0, 8]",2,23,"[1, 4, 5, 7, 9, 10, 11, 12, 13, 14, 15, 16, 17, 18, 19, 20, 21, 23, 24, 25, 26, 28, 29]",202,3226,3096,1,16,7,1.0
undo,12,1,0,0,0,20,"[0, 8, 20]",3,12,"[1, 4, 5, 11, 13, 14, 15, 17, 18, 19, 28, 29]",125.9408125,4276,1050,1,7,7,1.02364736730791
undo,12,1,0,0,0,5,"[0, 8, 20, 5]",4,7,"[1, 4, 11, 13, 17, 18, 29]",104.469902,5834,1558,1,3,7,1.0439599203945713
undo,12,1,0,0,0,18,"[0, 8, 20, 5, 18]",5,2,"[4, 29]",81.64447755,6684,850,1,1,7,1.0840407791793756
undo,12,1,0,0,0,4,"[0, 8, 20, 5, 18, 4]",6,1,[29],42.69579336,7766,1082,1,0,7,1.0902329133216275
undo,12,1,0,0,1,29,"[0, 8, 20, 5, 18, 4, 29]",7,0,[],6.640280603,11019,3253,1,0,7,1.2859729622882756
undo,12,1,0,1,1,29,"[0, 8, 20, 5, 18, 4, 29]",7,0,[],6.640280603,11531,512,1,0,7,1.2859729622882756
undo,13,15,0,0,0,0,[0],1,25,"[1, 2, 3, 4, 7, 8, 9, 10, 11, 12, 13, 14, 15, 16, 18, 20, 21, 22, 23, 24, 25, 26, 27, 28, 29]",300,129,-1,4,65,9,0.0
undo,13,15,0,0,0,12,"[0, 12]",2,22,"[1, 2, 3, 4, 7, 8, 9, 10, 11, 13, 14, 15, 16, 18, 21, 22, 23, 24, 26, 27, 28, 29]",213.547701,8852,8723,4,35,9,1.0
undo,13,15,0,0,0,7,"[0, 12, 7]",3,16,"[1, 3, 4, 8, 9, 10, 11, 13, 14, 15, 16, 18, 21, 22, 24, 27]",180.3061607,9927,1075,4,29,9,1.411291635294361
undo,13,15,0,0,0,11,"[0, 12, 7, 11]",4,9,"[3, 4, 13, 14, 15, 16, 21, 22, 27]",138.8212237,10857,930,2,12,9,1.2980572092387541
undo,13,15,0,0,0,16,"[0, 12, 7, 11, 16]",5,6,"[3, 4, 13, 14, 15, 22]",112.802,11908,1051,5,7,8,1.639755162381675
undo,13,15,0,0,0,3,"[0, 12, 7, 11, 16, 3]",6,5,"[4, 13, 14, 15, 22]",87.72212764,13068,1160,3,3,8,1.6035706685901854
undo,13,15,0,0,0,22,"[0, 12, 7, 11, 16, 3, 22]",7,2,"[13, 15]",37.9928606,14722,1654,2,0,8,1.5186586986954977
undo,13,15,0,0,1,15,"[0, 12, 7, 11, 16, 3, 22, 15]",8,0,[],12.38036365,16137,1415,1,0,8,1.4646095613599284
undo,13,15,0,1,1,15,"[0, 12, 7, 11, 16, 3, 22, 15]",8,0,[],12.38036365,18081,1944,1,0,8,1.4646095613599284
undo,14,26,0,0,0,0,[0],1,29,"[1, 2, 3, 4, 5, 6, 7, 8, 9, 10, 11, 12, 13, 14, 15, 16, 17, 18, 19, 20, 21, 22, 23, 24, 25, 26, 27, 28, 29]",300,147,-1,9,226,9,0.0
undo,14,26,0,0,0,16,"[0, 16]",2,17,"[3, 4, 5, 6, 10, 11, 12, 13, 14, 17, 18, 19, 21, 22, 23, 26, 29]",188.0535842,5450,5303,34,176,8,1.0
undo,14,26,0,0,0,29,"[0, 16, 29]",3,12,"[4, 5, 6, 10, 12, 13, 14, 17, 19, 21, 23, 26]",163.8461474,6522,1072,32,68,8,1.1142946124989752
undo,14,26,0,0,0,4,"[0, 16, 29, 4]",4,9,"[5, 6, 10, 12, 13, 14, 17, 21, 23]",139.8461474,7583,1061,17,7,8,1.3213762371676339
undo,14,26,0,0,0,17,"[0, 16, 29, 4, 17]",5,5,"[6, 10, 14, 21, 23]",118.7511243,8695,1112,6,0,8,1.2756100061290643
undo,14,26,0,0,0,14,"[0, 16, 29, 4, 17, 14]",6,2,"[6, 10]",96.27891921,9973,1278,2,0,8,1.264154039440982
undo,14,26,0,0,0,6,"[0, 16, 29, 4, 17, 14, 6]",7,1,[10],75.25512317,10867,894,1,0,8,1.3993089646092733
undo,14,26,0,0,1,10,"[0, 16, 29, 4, 17, 14, 6, 10]",8,0,[],45.98056083,12734,1867,1,0,8,1.5697867669370302
undo,14,26,0,1,1,10,"[0, 16, 29, 4, 17, 14, 6, 10]",8,0,[],45.98056083,14046,1312,1,0,8,1.5697867669370302
undo,15,11,0,0,0,0,[0],1,25,"[1, 2, 3, 4, 5, 6, 8, 9, 10, 11, 12, 13, 14, 15, 16, 17, 18, 19, 20, 22, 23, 25, 26, 27, 28]",300,131,-1,6,374,12,0.0
undo,15,11,0,0,0,1,"[0, 1]",2,24,"[2, 3, 4, 5, 6, 8, 9, 10, 11, 12, 13, 14, 15, 16, 17, 18, 19, 20, 22, 23, 25, 26, 27, 28]",264.6446609,2312,2181,6,217,12,1.0
undo,15,11,0,0,0,17,"[0, 1, 17]",3,17,"[2, 4, 5, 6, 8, 10, 11, 12, 15, 18, 19, 22, 23, 25, 26, 27, 28]",149.3971013,4641,2329,166,657,10,1.0239647205492373
undo,15,11,0,0,0,8,"[0, 1, 17, 8]",4,14,"[2, 4, 5, 6, 11, 12, 15, 18, 19, 22, 23, 25, 27, 28]",135.0792803,5285,644,74,238,10,1.1357648364167585
undo,15,11,0,0,0,15,"[0, 1, 17, 8, 15]",5,11,"[2, 5, 6, 11, 12, 18, 19, 22, 25, 27, 28]",121.6256562,5946,661,46,62,10,1.1370884007549122
undo,15,11,0,0,0,11,"[0, 1, 17, 8, 15, 11]",6,8,"[2, 5, 6, 12, 19, 22, 27, 28]",103.5148859,7003,1057,24,0,10,1.1333500349846208
undo,15,11,0,0,0,28,"[0, 1, 17, 8, 15, 11, 28]",7,4,"[2, 5, 19, 22]",84.09839809,8021,1018,6,0,10,1.2494062982732912
undo,15,11,0,0,0,22,"[0, 1, 17, 8, 15, 11, 28, 22]",8,2,"[2, 5]",65.71362178,8935,914,2,0,10,1.242675624197852
undo,15,11,0,0,0,2,"[0, 1, 17, 8, 15, 11, 28, 22, 2]",9,1,[5],55.66374616,9686,751,1,0,10,1.3689218547463504
undo,15,11,0,0,1,5,"[0, 1, 17, 8, 15, 11, 28, 22, 2, 5]",10,0,[],38.66374616,10694,1008,1,0,10,1.6063156639129539
undo,15,11,0,1,1,5,"[0, 1, 17, 8, 15, 11, 28, 22, 2, 5]",10,0,[],38.66374616,11882,1188,1,0,10,1.6063156639129539
undo,16,7,0,0,0,0,[0],1,29,"[1, 2, 3, 4, 5, 6, 7, 8, 9, 10, 11, 12, 13, 14, 15, 16, 17, 18, 19, 20, 21, 22, 23, 24, 25, 26, 27, 28, 29]",300,128,-1,3,79,9,0.0
undo,16,7,0,0,0,15,"[0, 15]",2,19,"[2, 4, 5, 6, 7, 8, 9, 10, 13, 14, 16, 18, 19, 20, 21, 23, 25, 27, 28]",230.9348134,4899,4771,2,38,9,1.0
undo,16,7,0,0,0,6,"[0, 15, 6]",3,18,"[2, 4, 5, 7, 8, 9, 10, 13, 14, 16, 18, 19, 20, 21, 23, 25, 27, 28]",205.854941,6107,1208,2,36,9,1.366719602896943
undo,16,7,0,0,0,25,"[0, 15, 6, 25]",4,11,"[2, 4, 7, 13, 14, 16, 18, 19, 20, 21, 23]",138.6760753,8850,2743,2,28,9,1.3624631728355765
undo,16,7,0,0,0,4,"[0, 15, 6, 25, 4]",5,7,"[2, 7, 13, 16, 18, 19, 20]",113.9374415,9822,972,2,12,9,1.3249684384385587
undo,16,7,0,0,0,18,"[0, 15, 6, 25, 4, 18]",6,4,"[7, 13, 19, 20]",86.47838108,11427,1605,1,4,9,1.4913724262038701
undo,16,7,0,0,0,20,"[0, 15, 6, 25, 4, 18, 20]",7,3,"[7, 13, 19]",73.6721326,12572,1145,1,2,9,1.509724987020694
undo,16,7,0,0,0,7,"[0, 15, 6, 25, 4, 18, 20, 7]",8,1,[19],33.17521914,13767,1195,1,0,9,1.4585598619472202
undo,16,7,0,0,1,19,"[0, 15, 6, 25, 4, 18, 20, 7, 19]",9,0,[],3.764336802,14736,969,1,0,9,1.565982232820698
undo,16,7,0,1,1,19,"[0, 15, 6, 25, 4, 18, 20, 7, 19]",9,0,[],3.764336802,15813,1077,1,0,9,1.565982232820698
undo,17,41,0,0,0,0,[0],1,29,"[1, 2, 3, 4, 5, 6, 7, 8, 9, 10, 11, 12, 13, 14, 15, 16, 17, 18, 19, 20, 21, 22, 23, 24, 25, 26, 27, 28, 29]",300,130,-1,1,143,10,0.0
undo,17,41,0,0,0,13,"[0, 13]",2,23,"[1, 2, 3, 5, 6, 7, 9, 10, 11, 12, 14, 15, 17, 18, 19, 20, 21, 22, 24, 25, 26, 27, 28]",258.2747079,3066,2936,1,55,10,1.0
undo,17,41,0,0,0,28,"[0, 13, 28]",3,22,"[1, 2, 3, 5, 6, 7, 9, 10, 11, 12, 14, 15, 17, 18, 19, 20, 21, 22, 24, 25, 26, 27]",223.7928286,4072,1006,1,39,10,1.895724242592676
undo,17,41,0,0,0,5,"[0, 13, 28, 5]",4,19,"[1, 2, 3, 6, 9, 10, 11, 12, 14, 15, 17, 18, 19, 20, 21, 22, 24, 25, 27]",210.1913581,4922,850,1,34,10,2.861541269398273
undo,17,41,0,0,0,3,"[0, 13, 28, 5, 3]",5,16,"[1, 2, 6, 9, 10, 12, 14, 17, 18, 19, 20, 21, 22, 24, 25, 27]",175.3632086,6085,1163,1,22,10,3.1455488489005883
undo,17,41,0,0,0,21,"[0, 13, 28, 5, 3, 21]",6,14,"[1, 2, 6, 9, 10, 12, 14, 17, 18, 19, 20, 22, 25, 27]",143.2228912,7133,1048,13,11,9,3.207558429289677
undo,17,41,0,0,0,9,"[0, 13, 28, 5, 3, 21, 9]",7,6,"[1, 2, 10, 12, 14, 17]",93.85691102,9034,1901,7,4,9,2.5050148501792275
undo,17,41,0,0,0,2,"[0, 13, 28, 5, 3, 21, 9, 2]",8,5,"[1, 10, 12, 14, 17]",81.77386505,9909,875,5,0,9,2.4119643847713177
undo,17,41,0,0,1,17,"[0, 13, 28, 5, 3, 21, 9, 2, 17]",9,0,[],49.21622385,11007,1098,1,0,9,3.9563478735796007
undo,17,41,0,1,1,17,"[0, 13, 28, 5, 3, 21, 9, 2, 17]",9,0,[],49.21622385,13080,2073,1,0,9,3.9563478735796007
undo,18,43,0,0,0,0,[0],1,23,"[1, 2, 3, 4, 5, 6, 7, 9, 10, 11, 12, 14, 15, 16, 17, 19, 20, 21, 22, 23, 25, 27, 29]",300,131,-1,16,556,12,0.0
undo,18,43,0,0,0,29,"[0, 29]",2,22,"[1, 2, 3, 4, 5, 6, 7, 9, 10, 11, 12, 14, 15, 16, 17, 19, 20, 21, 22, 23, 25, 27]",277.909278,2075,1944,16,520,12,1.0
undo,18,43,0,0,0,20,"[0, 29, 20]",3,20,"[1, 2, 3, 4, 6, 7, 9, 10, 11, 12, 14, 15, 16, 17, 19, 21, 22, 23, 25, 27]",254.4785289,2988,913,15,422,12,1.082311746871282
undo,18,43,0,0,0,16,"[0, 29, 20, 16]",4,19,"[1, 2, 3, 4, 6, 7, 9, 10, 11, 12, 14, 15, 17, 19, 21, 22, 23, 25, 27]",231.8511119,3912,924,15,389,12,1.215201926898219
undo,18,43,0,0,0,25,"[0, 29, 20, 16, 25]",5,14,"[1, 2, 3, 4, 6, 7, 9, 11, 12, 14, 15, 19, 22, 23]",175.7708124,5375,1463,53,282,11,1.566384303308987
undo,18,43,0,0,0,15,"[0, 29, 20, 16, 25, 15]",6,13,"[1, 2, 3, 4, 6, 7, 9, 11, 12, 14, 19, 22, 23]",153.0992443,7004,1629,27,108,11,1.776736412604812
undo,18,43,0,0,0,12,"[0, 29, 20, 16, 25, 15, 12]",7,10,"[1, 3, 6, 7, 9, 11, 14, 19, 22, 23]",133.7860364,7880,876,21,41,11,1.6813323012225032
undo,18,43,0,0,0,3,"[0, 29, 20, 16, 25, 15, 12, 3]",8,9,"[1, 6, 7, 9, 11, 14, 19, 22, 23]",120.7860364,9010,1130,20,12,11,1.608740348096123
undo,18,43,0,0,0,19,"[0, 29, 20, 16, 25, 15, 12, 3, 19]",9,5,"[1, 6, 7, 11, 22]",79.67642677,9828,818,8,2,11,1.5859237827218742
undo,18,43,0,0,0,1,"[0, 29, 20, 16, 25, 15, 12, 3, 19, 1]",10,3,"[6, 7, 22]",51.49842117,11179,1351,3,0,11,1.7262882624271816
undo,18,43,0,0,1,22,"[0, 29, 20, 16, 25, 15, 12, 3, 19, 1, 22]",11,0,[],20.11371151,12247,1068,1,0,11,2.3466887187451895
undo,18,43,0,1,1,22,"[0, 29, 20, 16, 25, 15, 12, 3, 19, 1, 22]",11,0,[],20.11371151,13132,885,1,0,11,2.3466887187451895
undo,19,44,0,0,0,0,[0],1,29,"[1, 2, 3, 4, 5, 6, 7, 8, 9, 10, 11, 12, 13, 14, 15, 16, 17, 18, 19, 20, 21, 22, 23, 24, 25, 26, 27, 28, 29]",300,131,-1,13,126,7,0.0
undo,19,44,0,0,0,8,"[0, 8]",2,17,"[1, 4, 5, 7, 9, 10, 11, 12, 13, 14, 15, 20, 21, 23, 24, 25, 27]",145.7923478,6278,6147,1,10,7,1.0
undo,19,44,0,0,0,20,"[0, 8, 20]",3,16,"[1, 4, 5, 7, 9, 10, 11, 12, 13, 14, 15, 21, 23, 24, 25, 27]",133.7093018,7285,1007,1,9,7,1.0890794433668698
undo,19,44,0,0,0,9,"[0, 8, 20, 9]",4,7,"[4, 7, 11, 12, 14, 23, 24]",76.43801756,8584,1299,1,6,7,1.40892325509949
undo,19,44,0,0,0,4,"[0, 8, 20, 9, 4]",5,4,"[7, 12, 23, 24]",56.74030196,10293,1709,1,3,7,1.3849770570803555
undo,19,44,0,0,0,7,"[0, 8, 20, 9, 4, 7]",6,1,[23],25.72417712,11201,908,1,0,7,1.3274380931474288
undo,19,44,0,0,1,23,"[0, 8, 20, 9, 4, 7, 23]",7,0,[],6.619203947,12585,1384,1,0,7,1.3395824779823196
undo,19,44,0,1,1,23,"[0, 8, 20, 9, 4, 7, 23]",7,0,[],6.619203947,14248,1663,1,0,7,1.3395824779823196
undo,20,17,0,0,0,0,[0],1,28,"[1, 2, 3, 4, 5, 6, 7, 8, 9, 10, 11, 12, 13, 14, 15, 16, 17, 18, 19, 20, 22, 23, 24, 25, 26, 27, 28, 29]",300,130,-1,2,73,8,0.0
undo,20,17,0,0,0,17,"[0, 17]",2,19,"[1, 2, 3, 5, 7, 8, 9, 10, 11, 12, 14, 16, 18, 19, 23, 25, 26, 27, 29]",194.4253818,2887,2757,3,56,7,1.0
undo,20,17,0,0,0,16,"[0, 17, 16]",3,14,"[1, 2, 3, 5, 7, 8, 9, 10, 11, 12, 18, 19, 27, 29]",152.7480499,4320,1433,1,17,7,1.6801659241413822
undo,20,17,0,0,0,9,"[0, 17, 16, 9]",4,11,"[2, 3, 5, 7, 8, 10, 11, 18, 19, 27, 29]",139.4063858,5322,1002,1,7,7,1.7949303623953352
undo,20,17,0,0,0,2,"[0, 17, 16, 9, 2]",5,4,"[7, 8, 10, 27]",117.4518874,6283,961,1,3,7,1.7623725687018317
undo,20,17,0,0,0,8,"[0, 17, 16, 9, 2, 8]",6,1,[7],82.33778767,7266,983,1,0,7,1.6262479200425692
undo,20,17,0,0,1,7,"[0, 17, 16, 9, 2, 8, 7]",7,0,[],11.62710955,8757,1491,1,0,7,1.5681242488340676
undo,20,17,0,1,1,7,"[0, 17, 16, 9, 2, 8, 7]",7,0,[],11.62710955,10381,1624,1,0,7,1.5681242488340676
undo,21,30,0,0,0,0,[0],1,19,"[3, 4, 5, 7, 9, 11, 16, 17, 18, 19, 20, 21, 22, 24, 25, 26, 27, 28, 29]",300,132,-1,5,41,8,0.0
undo,21,30,0,0,0,16,"[0, 16]",2,17,"[3, 5, 7, 9, 11, 17, 18, 19, 20, 21, 22, 24, 25, 26, 27, 28, 29]",219.3774225,5514,5382,5,34,8,1.0
undo,21,30,0,0,0,25,"[0, 16, 25]",3,10,"[3, 5, 7, 9, 11, 18, 19, 20, 27, 29]",115.0845656,6794,1280,5,28,8,1.0336279544884488
undo,21,30,0,0,0,27,"[0, 16, 25, 27]",4,7,"[3, 5, 7, 18, 19, 20, 29]",75.52448473,7851,1057,1,12,8,1.0719738181137488
undo,21,30,0,0,0,3,"[0, 16, 25, 27, 3]",5,5,"[5, 7, 18, 20, 29]",56.41951155,8569,718,1,4,8,1.0683252001879187
undo,21,30,0,0,0,29,"[0, 16, 25, 27, 3, 29]",6,2,"[5, 18]",37.81843632,10214,1645,1,1,8,1.0768958290478794
undo,21,30,0,0,0,18,"[0, 16, 25, 27, 3, 29, 18]",7,1,[5],18.5052284,11470,1256,1,0,8,1.1525061930327378
undo,21,30,0,0,1,5,"[0, 16, 25, 27, 3, 29, 18, 5]",8,0,[],5.466823591,12480,1010,1,0,8,1.2180155123152177
undo,21,30,0,1,1,5,"[0, 16, 25, 27, 3, 29, 18, 5]",8,0,[],5.466823591,13082,602,1,0,8,1.2180155123152177
undo,22,16,0,0,0,0,[0],1,29,"[1, 2, 3, 4, 5, 6, 7, 8, 9, 10, 11, 12, 13, 14, 15, 16, 17, 18, 19, 20, 21, 22, 23, 24, 25, 26, 27, 28, 29]",300,130,-1,13,161,9,0.0
undo,22,16,0,0,0,28,"[0, 28]",2,27,"[1, 2, 3, 4, 5, 7, 8, 9, 10, 11, 12, 13, 14, 15, 16, 17, 18, 19, 20, 21, 22, 23, 24, 25, 26, 27, 29]",284.3475242,3195,3065,11,92,9,1.0
undo,22,16,0,0,0,17,"[0, 28, 17]",3,26,"[1, 2, 3, 4, 5, 7, 8, 9, 10, 11, 12, 13, 14, 15, 16, 18, 19, 20, 21, 22, 23, 24, 25, 26, 27, 29]",219.1555001,7196,4001,10,46,9,1.3773866384707543
undo,22,16,0,0,0,16,"[0, 28, 17, 16]",4,25,"[1, 2, 3, 4, 5, 7, 8, 9, 10, 11, 12, 13, 14, 15, 18, 19, 20, 21, 22, 23, 24, 25, 26, 27, 29]",190.8358956,8151,955,10,34,9,1.3209953830681203
undo,22,16,0,0,0,8,"[0, 28, 17, 16, 8]",5,12,"[3, 4, 5, 9, 12, 13, 15, 19, 20, 21, 25, 29]",142.4623491,9144,993,6,19,9,1.2700932705506198
undo,22,16,0,0,0,20,"[0, 28, 17, 16, 8, 20]",6,6,"[4, 5, 9, 12, 15, 25]",84.6869218,10011,867,4,4,9,1.1899382910703262
undo,22,16,0,0,0,25,"[0, 28, 17, 16, 8, 20, 25]",7,3,"[5, 9, 15]",72.03781116,11317,1306,2,2,9,1.2372268181049477
undo,22,16,0,0,0,9,"[0, 28, 17, 16, 8, 20, 25, 9]",8,2,"[5, 15]",59.23156268,12039,722,2,0,9,1.221922950237529
undo,22,16,0,0,1,15,"[0, 28, 17, 16, 8, 20, 25, 9, 15]",9,0,[],20.334262,13342,1303,1,0,9,1.318239760375411
undo,22,16,0,1,1,15,"[0, 28, 17, 16, 8, 20, 25, 9, 15]",9,0,[],20.334262,14364,1022,1,0,9,1.318239760375411
basic,23,21,0,0,0,0,[0],1,29,"[1, 2, 3, 4, 5, 6, 7, 8, 9, 10, 11, 12, 13, 14, 15, 16, 17, 18, 19, 20, 21, 22, 23, 24, 25, 26, 27, 28, 29]",300,147,-1,84,830,9,0.0
basic,23,21,0,0,0,18,"[0, 18]",2,28,"[1, 2, 3, 4, 5, 6, 7, 8, 9, 10, 11, 12, 13, 14, 15, 16, 17, 19, 20, 21, 22, 23, 24, 25, 26, 27, 28, 29]",240.923778,3517,3370,44,305,9,1.0
basic,23,21,0,0,0,29,"[0, 18, 29]",3,24,"[1, 2, 3, 4, 6, 7, 8, 9, 10, 11, 12, 13, 14, 15, 16, 17, 20, 21, 22, 23, 24, 25, 26, 27]",212.2706805,4368,851,11,87,9,1.035555280387994
basic,23,21,0,0,0,25,"[0, 18, 29, 25]",4,18,"[1, 4, 6, 8, 9, 10, 11, 12, 14, 15, 16, 17, 20, 21, 22, 23, 24, 26]",167.0490043,5317,949,6,45,9,2.2226517719335437
basic,23,21,0,0,0,21,"[0, 18, 29, 25, 21]",5,9,"[4, 8, 9, 14, 15, 16, 17, 22, 23]",117.7134187,7461,2144,3,15,9,2.027911600797407
basic,23,21,0,0,0,14,"[0, 18, 29, 25, 21, 14]",6,5,"[4, 8, 15, 16, 23]",92.10092178,8470,1009,2,6,9,1.815037683642716
basic,23,21,0,0,0,4,"[0, 18, 29, 25, 21, 14, 4]",7,4,"[8, 15, 16, 23]",77.95878616,9919,1449,2,3,9,1.7359689106940037
basic,23,21,0,0,0,16,"[0, 18, 29, 25, 21, 14, 4, 16]",8,2,"[8, 15]",33.36057992,11400,1481,2,0,9,1.6336126766343864
basic,23,21,0,0,1,8,"[0, 18, 29, 25, 21, 14, 4, 16, 8]",9,0,[],14.75950468,12496,1096,1,0,9,1.574377282768187
basic,23,21,0,1,1,8,"[0, 18, 29, 25, 21, 14, 4, 16, 8]",9,0,[],14.75950468,14131,1635,1,0,9,1.574377282768187
basic,24,35,0,0,0,0,[0],1,29,"[1, 2, 3, 4, 5, 6, 7, 8, 9, 10, 11, 12, 13, 14, 15, 16, 17, 18, 19, 20, 21, 22, 23, 24, 25, 26, 27, 28, 29]",300,130,-1,5,236,11,0.0
basic,24,35,0,0,0,27,"[0, 27]",2,27,"[1, 2, 4, 5, 6, 7, 8, 9, 10, 11, 12, 13, 14, 15, 16, 17, 18, 19, 20, 21, 22, 23, 24, 25, 26, 28, 29]",278.7867966,3756,3626,5,144,11,1.0
basic,24,35,0,0,0,24,"[0, 27, 24]",3,25,"[1, 2, 4, 5, 6, 7, 8, 9, 10, 11, 12, 13, 15, 16, 17, 18, 19, 20, 21, 22, 23, 25, 26, 28, 29]",234.6053525,4618,862,3,80,11,2.1084080567904624
basic,24,35,0,0,0,17,"[0, 27, 24, 17]",4,20,"[1, 2, 4, 5, 6, 7, 8, 9, 10, 15, 16, 18, 19, 20, 21, 23, 25, 26, 28, 29]",222.9006526,5300,682,3,50,11,1.9439555968916868
basic,24,35,0,0,0,1,"[0, 27, 24, 17, 1]",5,18,"[2, 4, 5, 6, 8, 9, 10, 15, 16, 18, 19, 20, 21, 23, 25, 26, 28, 29]",207.0892643,6159,859,3,39,11,1.9436711872547336
basic,24,35,0,0,0,15,"[0, 27, 24, 17, 1, 15]",6,16,"[2, 4, 5, 6, 8, 9, 10, 16, 18, 19, 20, 23, 25, 26, 28, 29]",184.241945,6993,834,3,24,11,2.082774572108194
basic,24,35,0,0,0,23,"[0, 27, 24, 17, 1, 15, 23]",7,7,"[5, 6, 9, 18, 19, 25, 26]",123.801892,8306,1313,3,14,11,1.657239080954205
basic,24,35,0,0,0,18,"[0, 27, 24, 17, 1, 15, 23, 18]",8,3,"[6, 9, 25]",87.66327002,9275,969,6,0,10,1.6507397712824454
basic,24,35,0,0,0,25,"[0, 27, 24, 17, 1, 15, 23, 18, 25]",9,2,"[6, 9]",53.82542139,10492,1217,2,0,10,1.5201465379392904
basic,24,35,0,0,1,6,"[0, 27, 24, 17, 1, 15, 23, 18, 25, 6]",10,0,[],29.80459709,11224,732,1,0,10,1.7867503009154044
basic,24,35,0,1,1,6,"[0, 27, 24, 17, 1, 15, 23, 18, 25, 6]",10,0,[],29.80459709,12380,1156,1,0,10,1.7867503009154044
basic,25,27,0,0,0,0,[0],1,26,"[1, 3, 5, 6, 7, 8, 9, 10, 11, 12, 13, 14, 15, 16, 17, 18, 19, 21, 22, 23, 24, 25, 26, 27, 28, 29]",300,129,-1,13,578,11,0.0
basic,25,27,0,0,0,15,"[0, 15]",2,24,"[1, 3, 5, 6, 7, 8, 9, 10, 11, 12, 13, 14, 16, 17, 18, 19, 21, 22, 23, 24, 25, 26, 27, 29]",263.7508621,3936,3807,6,219,11,1.0
basic,25,27,0,0,0,24,"[0, 15, 24]",3,20,"[1, 5, 6, 7, 8, 9, 10, 12, 13, 14, 16, 17, 18, 19, 21, 23, 25, 26, 27, 29]",246.5462115,4724,788,6,130,11,1.130933077698322
basic,25,27,0,0,0,17,"[0, 15, 24, 17]",4,15,"[1, 6, 8, 10, 12, 13, 14, 16, 18, 19, 23, 25, 26, 27, 29]",229.9932662,5535,811,4,60,11,1.1285538435963374
basic,25,27,0,0,0,12,"[0, 15, 24, 17, 12]",5,14,"[1, 6, 8, 10, 13, 14, 16, 18, 19, 23, 25, 26, 27, 29]",218.8129263,6171,636,2,32,11,1.2561880288755216
basic,25,27,0,0,0,10,"[0, 15, 24, 17, 12, 10]",6,11,"[1, 8, 13, 14, 18, 19, 23, 25, 26, 27, 29]",207.7675653,6871,700,2,28,11,1.2228289337766665
basic,25,27,0,0,0,13,"[0, 15, 24, 17, 12, 10, 13]",7,9,"[1, 8, 14, 18, 19, 23, 26, 27, 29]",167.9178476,7778,907,2,18,11,1.3421291994761178
basic,25,27,0,0,0,19,"[0, 15, 24, 17, 12, 10, 13, 19]",8,5,"[1, 8, 14, 23, 29]",131.6825057,8556,778,2,6,11,1.294749956153846
basic,25,27,0,0,0,8,"[0, 15, 24, 17, 12, 10, 13, 19, 8]",9,3,"[14, 23, 29]",116.816437,9467,911,2,1,11,1.3554286578836865
basic,25,27,0,0,1,23,"[0, 15, 24, 17, 12, 10, 13, 19, 8, 23]",10,0,[],45.97859399,10672,1205,1,0,10,3.3397859539241304
basic,25,27,0,1,1,23,"[0, 15, 24, 17, 12, 10, 13, 19, 8, 23]",10,0,[],45.97859399,11747,1075,1,0,10,3.3397859539241304
basic,26,39,0,0,0,0,[0],1,28,"[1, 2, 3, 4, 5, 6, 7, 9, 10, 11, 12, 13, 14, 15, 16, 17, 18, 19, 20, 21, 22, 23, 24, 25, 26, 27, 28, 29]",300,130,-1,1,30,10,0.0
basic,26,39,0,0,0,29,"[0, 29]",2,26,"[1, 2, 3, 4, 5, 6, 7, 9, 10, 12, 13, 14, 15, 16, 17, 18, 19, 20, 21, 22, 23, 24, 25, 26, 27, 28]",243.0614366,3358,3228,8,104,9,1.0
basic,26,39,0,0,0,10,"[0, 29, 10]",3,19,"[1, 2, 4, 5, 7, 9, 12, 13, 14, 15, 16, 17, 18, 19, 22, 23, 24, 26, 28]",178.4239862,4480,1122,3,48,9,1.0231293692376968
basic,26,39,0,0,0,7,"[0, 29, 10, 7]",4,14,"[1, 2, 4, 5, 9, 12, 13, 15, 16, 18, 19, 22, 24, 26]",145.0024362,5252,772,2,20,9,1.0186411966151707
basic,26,39,0,0,0,22,"[0, 29, 10, 7, 22]",5,7,"[1, 5, 12, 16, 18, 19, 26]",113.1747753,6834,1582,1,7,9,1.2065550682865813
basic,26,39,0,0,0,26,"[0, 29, 10, 7, 22, 26]",6,5,"[1, 12, 16, 18, 19]",95.45473017,7589,755,1,3,9,1.2663460533908488
basic,26,39,0,0,0,16,"[0, 29, 10, 7, 22, 26, 16]",7,2,"[18, 19]",62.21318989,8817,1228,1,1,9,1.252602995704122
basic,26,39,0,0,0,19,"[0, 29, 10, 7, 22, 26, 16, 19]",8,1,[18],44.74894069,9792,975,1,0,9,1.2653879900137364
basic,26,39,0,0,1,18,"[0, 29, 10, 7, 22, 26, 16, 19, 18]",9,0,[],1.574874403,11283,1491,1,0,9,1.2729288261460776
basic,26,39,0,1,1,18,"[0, 29, 10, 7, 22, 26, 16, 19, 18]",9,0,[],1.574874403,12214,931,1,0,9,1.2729288261460776
basic,27,42,0,0,0,0,[0],1,29,"[1, 2, 3, 4, 5, 6, 7, 8, 9, 10, 11, 12, 13, 14, 15, 16, 17, 18, 19, 20, 21, 22, 23, 24, 25, 26, 27, 28, 29]",300,130,-1,16,302,9,0.0
basic,27,42,0,0,0,4,"[0, 4]",2,28,"[1, 2, 3, 5, 6, 7, 8, 9, 10, 11, 12, 13, 14, 15, 16, 17, 18, 19, 20, 21, 22, 23, 24, 25, 26, 27, 28, 29]",209.5290102,5417,5287,4,80,9,1.0
basic,27,42,0,0,0,22,"[0, 4, 22]",3,24,"[1, 2, 3, 5, 6, 7, 8, 9, 10, 11, 13, 15, 17, 18, 19, 20, 21, 23, 24, 25, 26, 27, 28, 29]",198.3486703,6768,1351,3,53,9,1.1473032812120834
basic,27,42,0,0,0,5,"[0, 4, 22, 5]",4,20,"[1, 2, 3, 7, 8, 9, 10, 11, 13, 15, 18, 19, 20, 21, 23, 24, 25, 26, 27, 29]",170.1174819,8469,1701,1,14,9,1.1948051397585588
basic,27,42,0,0,0,8,"[0, 4, 22, 5, 8]",5,13,"[1, 2, 3, 7, 11, 15, 18, 19, 24, 25, 26, 27, 29]",135.6356026,9385,916,1,10,9,1.5287231236031107
basic,27,42,0,0,0,1,"[0, 4, 22, 5, 8, 1]",6,5,"[2, 7, 19, 26, 27]",86.54385173,10561,1176,1,7,9,1.3707327746710105
basic,27,42,0,0,0,7,"[0, 4, 22, 5, 8, 1, 7]",7,4,"[2, 19, 26, 27]",56.54385173,11644,1083,1,3,9,1.4053605201578234
basic,27,42,0,0,0,26,"[0, 4, 22, 5, 8, 1, 7, 26]",8,1,[27],29.97319122,12583,939,1,0,9,1.3637717615151517
basic,27,42,0,0,1,27,"[0, 4, 22, 5, 8, 1, 7, 26, 27]",9,0,[],11.94543484,13634,1051,1,0,9,1.3508808991256835
basic,27,42,0,1,1,27,"[0, 4, 22, 5, 8, 1, 7, 26, 27]",9,0,[],11.94543484,14331,697,1,0,9,1.3508808991256835
basic,28,30,0,0,0,0,[0],1,19,"[3, 4, 5, 7, 9, 11, 16, 17, 18, 19, 20, 21, 22, 24, 25, 26, 27, 28, 29]",300,132,-1,5,41,8,0.0
basic,28,30,0,0,0,16,"[0, 16]",2,17,"[3, 5, 7, 9, 11, 17, 18, 19, 20, 21, 22, 24, 25, 26, 27, 28, 29]",219.3774225,6114,5982,5,34,8,1.0
basic,28,30,0,0,0,25,"[0, 16, 25]",3,10,"[3, 5, 7, 9, 11, 18, 19, 20, 27, 29]",115.0845656,7123,1009,5,28,8,1.0336279544884488
basic,28,30,0,0,0,27,"[0, 16, 25, 27]",4,7,"[3, 5, 7, 18, 19, 20, 29]",75.52448473,8086,963,1,12,8,1.0719738181137488
basic,28,30,0,0,0,3,"[0, 16, 25, 27, 3]",5,5,"[5, 7, 18, 20, 29]",56.41951155,8826,740,1,4,8,1.0683252001879187
basic,28,30,0,0,0,29,"[0, 16, 25, 27, 3, 29]",6,2,"[5, 18]",37.81843632,10806,1980,1,1,8,1.0768958290478794
basic,28,30,0,0,0,18,"[0, 16, 25, 27, 3, 29, 18]",7,1,[5],18.5052284,11918,1112,1,0,8,1.1525061930327378
basic,28,30,0,0,1,5,"[0, 16, 25, 27, 3, 29, 18, 5]",8,0,[],5.466823591,12853,935,1,0,8,1.2180155123152177
basic,28,30,0,1,1,5,"[0, 16, 25, 27, 3, 29, 18, 5]",8,0,[],5.466823591,13600,747,1,0,8,1.2180155123152177
basic,29,19,0,0,0,0,[0],1,29,"[1, 2, 3, 4, 5, 6, 7, 8, 9, 10, 11, 12, 13, 14, 15, 16, 17, 18, 19, 20, 21, 22, 23, 24, 25, 26, 27, 28, 29]",300,131,-1,12,149,8,0.0
basic,29,19,0,0,0,29,"[0, 29]",2,28,"[1, 2, 3, 4, 5, 6, 7, 8, 9, 10, 11, 12, 13, 14, 15, 16, 17, 18, 19, 20, 21, 22, 23, 24, 25, 26, 27, 28]",265.0715016,4671,4540,12,120,8,1.0
basic,29,19,0,0,0,9,"[0, 29, 9]",3,17,"[1, 4, 5, 6, 7, 10, 11, 12, 13, 14, 19, 20, 21, 22, 24, 27, 28]",181.7108394,7011,2340,11,65,8,1.0375842971861238
basic,29,19,0,0,0,6,"[0, 29, 9, 6]",4,12,"[4, 7, 10, 11, 13, 14, 20, 21, 22, 24, 27, 28]",140.2741407,7917,906,11,34,8,1.0389786364356892
basic,29,19,0,0,0,28,"[0, 29, 9, 6, 28]",5,5,"[4, 11, 14, 22, 27]",89.18598161,9020,1103,2,4,8,1.2864082671854424
basic,29,19,0,0,0,4,"[0, 29, 9, 6, 28, 4]",6,4,"[11, 14, 22, 27]",78.00564173,10238,1218,2,2,8,1.3470045407445053
basic,29,19,0,0,0,14,"[0, 29, 9, 6, 28, 4, 14]",7,1,[11],27.99564273,11510,1272,1,0,8,1.3006971582050546
basic,29,19,0,0,1,11,"[0, 29, 9, 6, 28, 4, 14, 11]",8,0,[],17.1789889,12226,716,1,0,8,1.289914895833058
basic,29,19,0,1,1,11,"[0, 29, 9, 6, 28, 4, 14, 11]",8,0,[],17.1789889,14315,2089,1,0,8,1.289914895833058
basic,30,8,0,0,0,0,[0],1,29,"[1, 2, 3, 4, 5, 6, 7, 8, 9, 10, 11, 12, 13, 14, 15, 16, 17, 18, 19, 20, 21, 22, 23, 24, 25, 26, 27, 28, 29]",300,130,-1,10,149,9,0.0
basic,30,8,0,0,0,5,"[0, 5]",2,28,"[1, 2, 3, 4, 6, 7, 8, 9, 10, 11, 12, 13, 14, 15, 16, 17, 18, 19, 20, 21, 22, 23, 24, 25, 26, 27, 28, 29]",254.5137383,7480,7350,10,100,9,1.0
basic,30,8,0,0,0,25,"[0, 5, 25]",3,20,"[1, 2, 3, 4, 6, 11, 12, 14, 15, 16, 17, 18, 19, 20, 21, 22, 23, 24, 28, 29]",215.3091468,8552,1072,4,42,9,1.2272747879909065
basic,30,8,0,0,0,1,"[0, 5, 25, 1]",4,17,"[3, 4, 6, 11, 12, 14, 15, 16, 17, 18, 20, 21, 22, 23, 24, 28, 29]",190.3091468,9355,803,3,24,9,1.1770245007593956
basic,30,8,0,0,0,23,"[0, 5, 25, 1, 23]",5,15,"[3, 4, 6, 11, 14, 15, 16, 17, 18, 20, 21, 22, 24, 28, 29]",167.2874179,10167,812,1,14,9,1.141996583852372
basic,30,8,0,0,0,14,"[0, 5, 25, 1, 23, 14]",6,5,"[11, 15, 17, 18, 28]",98.40345751,12154,1987,2,3,8,2.359509060380308
basic,30,8,0,0,0,17,"[0, 5, 25, 1, 23, 14, 17]",7,1,[11],61.38994646,13169,1015,1,0,8,2.1845828320464817
basic,30,8,0,0,1,11,"[0, 5, 25, 1, 23, 14, 17, 11]",8,0,[],36.21058984,14285,1116,1,0,8,2.014892814041164
basic,30,8,0,1,1,11,"[0, 5, 25, 1, 23, 14, 17, 11]",8,0,[],36.21058984,16048,1763,1,0,8,2.014892814041164
basic,31,40,0,0,0,0,[0],1,29,"[1, 2, 3, 4, 5, 6, 7, 8, 9, 10, 11, 12, 13, 14, 15, 16, 17, 18, 19, 20, 21, 22, 23, 24, 25, 26, 27, 28, 29]",300,131,-1,8,191,9,0.0
basic,31,40,0,0,0,1,"[0, 1]",2,18,"[2, 5, 6, 7, 8, 9, 10, 11, 13, 15, 17, 18, 19, 21, 22, 23, 27, 29]",247.8463808,2211,2080,4,80,9,1.0
basic,31,40,0,0,0,6,"[0, 1, 6]",3,17,"[2, 5, 7, 8, 9, 10, 11, 13, 15, 17, 18, 19, 21, 22, 23, 27, 29]",227.7466295,3229,1018,4,74,9,1.0459427008232034
basic,31,40,0,0,0,9,"[0, 1, 6, 9]",4,10,"[2, 5, 8, 11, 18, 19, 21, 22, 23, 27]",159.146338,4317,1088,17,39,8,1.142098432552584
basic,31,40,0,0,0,18,"[0, 1, 6, 9, 18]",5,9,"[2, 5, 8, 11, 19, 21, 22, 23, 27]",142.5933926,5152,835,13,14,8,1.3288108654802917
basic,31,40,0,0,0,5,"[0, 1, 6, 9, 18, 5]",6,7,"[2, 8, 19, 21, 22, 23, 27]",111.0180858,7602,2450,5,5,8,1.5366414787972102
basic,31,40,0,0,0,23,"[0, 1, 6, 9, 18, 5, 23]",7,3,"[2, 19, 21]",82.71614241,8603,1001,3,0,8,2.2908821040631264
basic,31,40,0,0,1,19,"[0, 1, 6, 9, 18, 5, 23, 19]",8,0,[],50.76305179,10106,1503,1,0,8,2.4294131203959415
basic,31,40,0,1,1,19,"[0, 1, 6, 9, 18, 5, 23, 19]",8,0,[],50.76305179,10614,508,1,0,8,2.4294131203959415
basic,32,9,0,0,0,0,[0],1,27,"[1, 3, 4, 5, 6, 7, 8, 9, 10, 11, 13, 14, 15, 16, 17, 18, 19, 20, 21, 22, 23, 24, 25, 26, 27, 28, 29]",300,130,-1,2,182,10,0.0
basic,32,9,0,0,0,25,"[0, 25]",2,24,"[1, 3, 4, 5, 6, 7, 8, 9, 10, 11, 13, 15, 16, 17, 18, 19, 20, 21, 22, 23, 24, 26, 27, 28]",275.9168108,3067,2937,2,104,10,1.0
basic,32,9,0,0,0,10,"[0, 25, 10]",3,20,"[3, 4, 5, 7, 8, 9, 11, 13, 15, 16, 17, 18, 19, 20, 21, 22, 23, 26, 27, 28]",236.0670932,4684,1617,2,76,10,1.1767014107208227
basic,32,9,0,0,0,8,"[0, 25, 10, 8]",4,19,"[3, 4, 5, 7, 9, 11, 13, 15, 16, 17, 18, 19, 20, 21, 22, 23, 26, 27, 28]",187.6935467,6152,1468,1,29,10,1.7608170712242983
basic,32,9,0,0,0,23,"[0, 25, 10, 8, 23]",5,15,"[3, 4, 5, 7, 9, 11, 16, 18, 19, 20, 21, 22, 26, 27, 28]",166.2226361,7369,1217,10,32,9,2.2468522467908687
basic,32,9,0,0,0,9,"[0, 25, 10, 8, 23, 9]",6,12,"[3, 4, 7, 11, 18, 19, 20, 21, 22, 26, 27, 28]",143.8619563,8334,965,5,10,9,2.096804588964727
basic,32,9,0,0,0,28,"[0, 25, 10, 8, 23, 9, 28]",7,4,"[20, 21, 22, 26]",103.0452931,9922,1588,3,1,9,2.651641895794339
basic,32,9,0,0,0,21,"[0, 25, 10, 8, 23, 9, 28, 21]",8,1,[20],50.04529307,11083,1161,1,0,9,2.108740588479078
basic,32,9,0,0,1,20,"[0, 25, 10, 8, 23, 9, 28, 21, 20]",9,0,[],37.9622471,12021,938,1,0,9,2.0690056875748426
basic,32,9,0,1,1,20,"[0, 25, 10, 8, 23, 9, 28, 21, 20]",9,0,[],37.9622471,12947,926,1,0,9,2.0690056875748426
basic,33,16,0,0,0,0,[0],1,29,"[1, 2, 3, 4, 5, 6, 7, 8, 9, 10, 11, 12, 13, 14, 15, 16, 17, 18, 19, 20, 21, 22, 23, 24, 25, 26, 27, 28, 29]",300,131,-1,13,161,9,0.0
basic,33,16,0,0,0,28,"[0, 28]",2,27,"[1, 2, 3, 4, 5, 7, 8, 9, 10, 11, 12, 13, 14, 15, 16, 17, 18, 19, 20, 21, 22, 23, 24, 25, 26, 27, 29]",284.3475242,2651,2520,11,92,9,1.0
basic,33,16,0,0,0,17,"[0, 28, 17]",3,26,"[1, 2, 3, 4, 5, 7, 8, 9, 10, 11, 12, 13, 14, 15, 16, 18, 19, 20, 21, 22, 23, 24, 25, 26, 27, 29]",219.1555001,4130,1479,10,46,9,1.3773866384707543
basic,33,16,0,0,0,16,"[0, 28, 17, 16]",4,25,"[1, 2, 3, 4, 5, 7, 8, 9, 10, 11, 12, 13, 14, 15, 18, 19, 20, 21, 22, 23, 24, 25, 26, 27, 29]",190.8358956,5118,988,10,34,9,1.3209953830681203
basic,33,16,0,0,0,8,"[0, 28, 17, 16, 8]",5,12,"[3, 4, 5, 9, 12, 13, 15, 19, 20, 21, 25, 29]",142.4623491,6086,968,6,19,9,1.2700932705506198
basic,33,16,0,0,0,20,"[0, 28, 17, 16, 8, 20]",6,6,"[4, 5, 9, 12, 15, 25]",84.6869218,7311,1225,4,4,9,1.1899382910703262
basic,33,16,0,0,0,25,"[0, 28, 17, 16, 8, 20, 25]",7,3,"[5, 9, 15]",72.03781116,8853,1542,2,2,9,1.2372268181049477
basic,33,16,0,0,0,9,"[0, 28, 17, 16, 8, 20, 25, 9]",8,2,"[5, 15]",59.23156268,9802,949,2,0,9,1.221922950237529
basic,33,16,0,0,1,15,"[0, 28, 17, 16, 8, 20, 25, 9, 15]",9,0,[],20.334262,11056,1254,1,0,9,1.318239760375411
basic,33,16,0,1,1,15,"[0, 28, 17, 16, 8, 20, 25, 9, 15]",9,0,[],20.334262,12215,1159,1,0,9,1.318239760375411
basic,34,7,0,0,0,0,[0],1,29,"[1, 2, 3, 4, 5, 6, 7, 8, 9, 10, 11, 12, 13, 14, 15, 16, 17, 18, 19, 20, 21, 22, 23, 24, 25, 26, 27, 28, 29]",300,163,-1,3,79,9,0.0
basic,34,7,0,0,0,15,"[0, 15]",2,19,"[2, 4, 5, 6, 7, 8, 9, 10, 13, 14, 16, 18, 19, 20, 21, 23, 25, 27, 28]",230.9348134,4890,4727,2,38,9,1.0
basic,34,7,0,0,0,6,"[0, 15, 6]",3,18,"[2, 4, 5, 7, 8, 9, 10, 13, 14, 16, 18, 19, 20, 21, 23, 25, 27, 28]",205.854941,5837,947,2,36,9,1.366719602896943
basic,34,7,0,0,0,25,"[0, 15, 6, 25]",4,11,"[2, 4, 7, 13, 14, 16, 18, 19, 20, 21, 23]",138.6760753,6894,1057,2,28,9,1.3624631728355765
basic,34,7,0,0,0,4,"[0, 15, 6, 25, 4]",5,7,"[2, 7, 13, 16, 18, 19, 20]",113.9374415,7753,859,2,12,9,1.3249684384385587
basic,34,7,0,0,0,20,"[0, 15, 6, 25, 4, 20]",6,5,"[2, 7, 13, 18, 19]",94.29055881,8691,938,1,6,9,1.3721893242679268
basic,34,7,0,0,0,18,"[0, 15, 6, 25, 4, 20, 18]",7,3,"[7, 13, 19]",81.48431034,9557,866,1,2,9,1.5262542308371432
basic,34,7,0,0,0,7,"[0, 15, 6, 25, 4, 20, 18, 7]",8,1,[19],40.25325408,10727,1170,1,0,9,1.41986878673423
basic,34,7,0,0,1,19,"[0, 15, 6, 25, 4, 20, 18, 7, 19]",9,0,[],10.84237174,11531,804,1,0,9,1.5285658163212987
basic,34,7,0,1,1,19,"[0, 15, 6, 25, 4, 20, 18, 7, 19]",9,0,[],10.84237174,12215,684,1,0,9,1.5285658163212987
basic,35,13,0,0,0,0,[0],1,29,"[1, 2, 3, 4, 5, 6, 7, 8, 9, 10, 11, 12, 13, 14, 15, 16, 17, 18, 19, 20, 21, 22, 23, 24, 25, 26, 27, 28, 29]",300,131,-1,60,2676,11,0.0
basic,35,13,0,0,0,24,"[0, 24]",2,28,"[1, 2, 3, 4, 5, 6, 7, 8, 9, 10, 11, 12, 13, 14, 15, 16, 17, 18, 19, 20, 21, 22, 23, 25, 26, 27, 28, 29]",288.8196601,2526,2395,16,1444,11,1.0
basic,35,13,0,0,0,23,"[0, 24, 23]",3,27,"[1, 2, 3, 4, 5, 6, 7, 8, 9, 10, 11, 12, 13, 14, 15, 16, 17, 18, 19, 20, 21, 22, 25, 26, 27, 28, 29]",243.1140806,3807,1281,2,868,11,1.0065545717039834
basic,35,13,0,0,0,26,"[0, 24, 23, 26]",4,20,"[1, 2, 3, 4, 6, 7, 9, 11, 12, 13, 15, 16, 17, 19, 20, 21, 22, 27, 28, 29]",183.574178,5215,1408,156,611,10,1.2169355597123794
basic,35,13,0,0,0,2,"[0, 24, 23, 26, 2]",5,15,"[1, 3, 6, 7, 9, 11, 12, 13, 15, 16, 17, 19, 21, 28, 29]",152.1894683,6391,1176,19,91,10,1.3487575088842259
basic,35,13,0,0,0,29,"[0, 24, 23, 26, 2, 29]",6,14,"[1, 3, 6, 7, 9, 11, 12, 13, 15, 16, 17, 19, 21, 28]",140.4847684,7234,843,13,32,10,1.433124868729077
basic,35,13,0,0,0,7,"[0, 24, 23, 26, 2, 29, 7]",7,10,"[1, 3, 6, 11, 13, 15, 16, 17, 19, 28]",125.2204309,8762,1528,9,14,10,1.660430813098998
basic,35,13,0,0,0,6,"[0, 24, 23, 26, 2, 29, 7, 6]",8,7,"[1, 3, 11, 13, 16, 17, 28]",104.4117789,10402,1640,4,5,10,1.801375338910463
basic,35,13,0,0,0,11,"[0, 24, 23, 26, 2, 29, 7, 6, 11]",9,3,"[13, 17, 28]",85.30680569,11226,824,3,0,10,1.6830530682279299
basic,35,13,0,0,1,13,"[0, 24, 23, 26, 2, 29, 7, 6, 11, 13]",10,0,[],29.22650612,12339,1113,1,0,10,1.4921650988394317
basic,35,13,0,1,1,13,"[0, 24, 23, 26, 2, 29, 7, 6, 11, 13]",10,0,[],29.22650612,13583,1244,1,0,10,1.4921650988394317
basic,36,31,0,0,0,0,[0],1,27,"[1, 3, 4, 5, 6, 7, 8, 10, 11, 12, 13, 14, 15, 16, 17, 18, 19, 20, 21, 22, 23, 24, 25, 26, 27, 28, 29]",300,131,-1,2,87,10,0.0
basic,36,31,0,0,0,14,"[0, 14]",2,25,"[1, 3, 5, 6, 7, 8, 10, 11, 12, 13, 15, 16, 17, 18, 19, 20, 21, 22, 23, 24, 25, 26, 27, 28, 29]",263.861378,1880,1749,2,59,10,1.0
basic,36,31,0,0,0,27,"[0, 14, 27]",3,22,"[1, 3, 5, 6, 7, 8, 10, 11, 12, 13, 15, 16, 17, 18, 19, 20, 21, 22, 24, 25, 28, 29]",235.6833724,2795,915,1,39,10,1.5881859159302467
basic,36,31,0,0,0,8,"[0, 14, 27, 8]",4,20,"[1, 3, 5, 6, 7, 10, 11, 12, 13, 16, 17, 18, 19, 20, 21, 22, 24, 25, 28, 29]",224.6380114,3614,819,1,36,10,2.1665048452331277
basic,36,31,0,0,0,18,"[0, 14, 27, 8, 18]",5,15,"[1, 5, 6, 7, 11, 12, 13, 16, 17, 19, 20, 22, 25, 28, 29]",188.7911147,4561,947,1,26,10,1.7273375741920205
basic,36,31,0,0,0,11,"[0, 14, 27, 8, 18, 11]",6,11,"[1, 5, 7, 12, 16, 17, 19, 20, 22, 25, 28]",153.9055876,5347,786,13,17,9,2.386348208737804
basic,36,31,0,0,0,5,"[0, 14, 27, 8, 18, 11, 5]",7,5,"[16, 17, 20, 25, 28]",110.2249283,6311,964,3,3,9,2.163249612867222
basic,36,31,0,0,0,28,"[0, 14, 27, 8, 18, 11, 5, 28]",8,2,"[16, 17]",90.00117988,7677,1366,2,0,9,1.9564635733184719
basic,36,31,0,0,1,16,"[0, 14, 27, 8, 18, 11, 5, 28, 16]",9,0,[],56.38570725,8751,1074,1,0,9,1.824071502589619
basic,36,31,0,1,1,16,"[0, 14, 27, 8, 18, 11, 5, 28, 16]",9,0,[],56.38570725,9266,515,1,0,9,1.824071502589619
basic,37,18,0,0,0,0,[0],1,28,"[1, 2, 3, 4, 5, 6, 7, 8, 9, 10, 11, 12, 13, 14, 16, 17, 18, 19, 20, 21, 22, 23, 24, 25, 26, 27, 28, 29]",300,130,-1,3,136,10,0.0
basic,37,18,0,0,0,28,"[0, 28]",2,16,"[1, 3, 5, 7, 8, 9, 12, 13, 14, 16, 20, 23, 24, 25, 26, 27]",236.4311397,2137,2007,2,19,10,1.0
basic,37,18,0,0,0,7,"[0, 28, 7]",3,15,"[1, 3, 5, 8, 9, 12, 13, 14, 16, 20, 23, 24, 25, 26, 27]",214.4084242,3537,1400,2,17,10,1.4345180696367563
basic,37,18,0,0,0,25,"[0, 28, 7, 25]",4,13,"[1, 3, 5, 8, 9, 12, 13, 14, 16, 20, 23, 26, 27]",186.6055466,4310,773,2,15,10,1.8896451241781882
basic,37,18,0,0,0,8,"[0, 28, 7, 25, 8]",5,10,"[3, 5, 9, 12, 13, 14, 16, 23, 26, 27]",149.551532,5367,1057,2,10,10,1.590467437592877
basic,37,18,0,0,0,3,"[0, 28, 7, 25, 8, 3]",6,6,"[5, 12, 13, 14, 23, 27]",121.4801943,6266,899,1,10,9,1.4587755974793148
basic,37,18,0,0,0,14,"[0, 28, 7, 25, 8, 3, 14]",7,4,"[5, 12, 13, 27]",91.39697637,7084,818,4,0,8,1.8606737724243565
basic,37,18,0,0,1,13,"[0, 28, 7, 25, 8, 3, 14, 13]",8,0,[],72.42331041,8055,971,1,0,8,2.4208916262893254
basic,37,18,0,1,1,13,"[0, 28, 7, 25, 8, 3, 14, 13]",8,0,[],72.42331041,10047,1992,1,0,8,2.4208916262893254
basic,38,25,0,0,0,0,[0],1,28,"[1, 2, 3, 4, 5, 7, 8, 9, 10, 11, 12, 13, 14, 15, 16, 17, 18, 19, 20, 21, 22, 23, 24, 25, 26, 27, 28, 29]",300,164,-1,5,94,10,0.0
basic,38,25,0,0,0,1,"[0, 1]",2,22,"[2, 3, 5, 7, 8, 9, 11, 12, 13, 14, 16, 17, 18, 19, 20, 21, 22, 23, 24, 25, 28, 29]",268.9516506,3550,3386,16,145,9,1.0
basic,38,25,0,0,0,19,"[0, 1, 19]",3,19,"[2, 3, 5, 7, 8, 9, 11, 12, 13, 16, 17, 20, 21, 22, 23, 24, 25, 28, 29]",210.4281511,6488,2938,10,62,9,1.8640586484941235
basic,38,25,0,0,0,29,"[0, 1, 19, 29]",4,18,"[2, 3, 5, 7, 8, 9, 11, 12, 13, 16, 17, 20, 21, 22, 23, 24, 25, 28]",194.1493305,7229,741,7,38,9,1.6902066831361364
basic,38,25,0,0,0,22,"[0, 1, 19, 29, 22]",5,16,"[3, 5, 7, 8, 9, 11, 12, 13, 16, 17, 20, 21, 23, 24, 25, 28]",178.024815,8081,852,5,24,9,1.5765332301257242
basic,38,25,0,0,0,7,"[0, 1, 19, 29, 22, 7]",6,7,"[3, 8, 9, 13, 23, 24, 28]",102.3809124,9058,977,5,10,9,1.6861598689503736
basic,38,25,0,0,0,24,"[0, 1, 19, 29, 22, 7, 24]",7,4,"[3, 8, 9, 13]",77.62207556,10020,962,3,3,9,1.582250131961203
basic,38,25,0,0,0,9,"[0, 1, 19, 29, 22, 7, 24, 9]",8,3,"[3, 8, 13]",59.59431918,10688,668,3,0,9,1.5399866688098078
basic,38,25,0,0,1,3,"[0, 1, 19, 29, 22, 7, 24, 9, 3]",9,0,[],29.32882728,11731,1043,1,0,9,1.461870590911948
basic,38,25,0,1,1,3,"[0, 1, 19, 29, 22, 7, 24, 9, 3]",9,0,[],29.32882728,12749,1018,1,0,9,1.461870590911948
basic,39,22,0,0,0,0,[0],1,29,"[1, 2, 3, 4, 5, 6, 7, 8, 9, 10, 11, 12, 13, 14, 15, 16, 17, 18, 19, 20, 21, 22, 23, 24, 25, 26, 27, 28, 29]",300,130,-1,31,704,9,0.0
basic,39,22,0,0,0,6,"[0, 6]",2,19,"[1, 3, 7, 8, 9, 11, 13, 14, 15, 16, 17, 19, 20, 21, 22, 24, 25, 28, 29]",211.3828459,1991,1861,1,73,9,1.0
basic,39,22,0,0,0,9,"[0, 6, 9]",3,17,"[1, 3, 7, 8, 13, 14, 15, 16, 17, 19, 20, 21, 22, 24, 25, 28, 29]",184.755792,3800,1809,1,39,9,1.2868618423088127
basic,39,22,0,0,0,19,"[0, 6, 9, 19]",4,16,"[1, 3, 7, 8, 13, 14, 15, 16, 17, 20, 21, 22, 24, 25, 28, 29]",164.3597139,4483,683,1,29,9,1.7035075715300563
basic,39,22,0,0,0,29,"[0, 6, 9, 19, 29]",5,14,"[1, 3, 7, 8, 13, 14, 15, 16, 17, 20, 21, 24, 25, 28]",149.3264176,5061,578,1,21,9,1.9566347729231615
basic,39,22,0,0,0,14,"[0, 6, 9, 19, 29, 14]",6,4,"[7, 17, 24, 28]",91.07695404,6134,1073,2,3,8,1.612788545319481
basic,39,22,0,0,0,7,"[0, 6, 9, 19, 29, 14, 7]",7,2,"[17, 24]",78.03854923,6968,834,2,0,8,1.7648812834687035
basic,39,22,0,0,1,17,"[0, 6, 9, 19, 29, 14, 7, 17]",8,0,[],36.42124514,7983,1015,1,0,8,1.6679193361331097
basic,39,22,0,1,1,17,"[0, 6, 9, 19, 29, 14, 7, 17]",8,0,[],36.42124514,8746,763,1,0,8,1.6679193361331097
basic,40,41,0,0,0,0,[0],1,29,"[1, 2, 3, 4, 5, 6, 7, 8, 9, 10, 11, 12, 13, 14, 15, 16, 17, 18, 19, 20, 21, 22, 23, 24, 25, 26, 27, 28, 29]",300,129,-1,1,143,10,0.0
basic,40,41,0,0,0,28,"[0, 28]",2,27,"[1, 2, 3, 5, 6, 7, 8, 9, 10, 11, 12, 13, 14, 15, 16, 17, 18, 19, 20, 21, 22, 23, 24, 25, 26, 27, 29]",259.8004975,4129,4000,37,249,9,1.0
basic,40,41,0,0,0,5,"[0, 28, 5]",3,26,"[1, 2, 3, 6, 7, 8, 9, 10, 11, 12, 13, 14, 15, 16, 17, 18, 19, 20, 21, 22, 23, 24, 25, 26, 27, 29]",246.199027,4949,820,30,182,9,1.714241539747437
basic,40,41,0,0,0,3,"[0, 28, 5, 3]",4,25,"[1, 2, 6, 7, 8, 9, 10, 11, 12, 13, 14, 15, 16, 17, 18, 19, 20, 21, 22, 23, 24, 25, 26, 27, 29]",211.3708775,6227,1278,20,93,9,2.2367972660995847
basic,40,41,0,0,0,21,"[0, 28, 5, 3, 21]",5,19,"[1, 2, 6, 9, 10, 11, 12, 13, 14, 15, 17, 18, 19, 20, 22, 24, 25, 26, 27]",179.2305601,6973,746,12,46,9,2.470864770481327
basic,40,41,0,0,0,9,"[0, 28, 5, 3, 21, 9]",6,13,"[1, 2, 10, 12, 13, 14, 15, 17, 19, 22, 24, 25, 26]",129.8645799,9344,2371,3,17,9,2.0674559404382
basic,40,41,0,0,0,2,"[0, 28, 5, 3, 21, 9, 2]",7,9,"[1, 10, 12, 14, 15, 17, 19, 22, 24]",117.7815339,11125,1781,2,7,9,2.0139863201149533
basic,40,41,0,0,0,17,"[0, 28, 5, 3, 21, 9, 2, 17]",8,1,[10],85.22389276,12082,957,1,0,9,3.388293326704014
basic,40,41,0,0,1,10,"[0, 28, 5, 3, 21, 9, 2, 17, 10]",9,0,[],35.97960375,13209,1127,1,0,9,3.1208433501016275
basic,40,41,0,1,1,10,"[0, 28, 5, 3, 21, 9, 2, 17, 10]",9,0,[],35.97960375,14313,1104,1,0,9,3.1208433501016275
basic,41,23,0,0,0,0,[0],1,28,"[1, 2, 3, 4, 5, 6, 7, 8, 9, 10, 11, 12, 13, 14, 15, 16, 17, 18, 19, 20, 21, 22, 23, 25, 26, 27, 28, 29]",300,131,-1,76,2626,10,0.0
basic,41,23,0,0,0,13,"[0, 13]",2,19,"[1, 2, 3, 5, 6, 7, 8, 9, 10, 12, 14, 17, 18, 19, 21, 22, 23, 27, 29]",189.3202819,2201,2070,9,168,10,1.0
basic,41,23,0,0,0,12,"[0, 13, 12]",3,16,"[1, 2, 3, 6, 7, 8, 9, 10, 14, 17, 18, 21, 22, 23, 27, 29]",177.2372359,2924,723,9,96,10,1.0014195490503164
basic,41,23,0,0,0,6,"[0, 13, 12, 6]",4,9,"[2, 7, 9, 10, 14, 18, 22, 27, 29]",147.5555918,3801,877,2,17,10,1.0146513975411646
basic,41,23,0,0,0,2,"[0, 13, 12, 6, 2]",5,8,"[7, 9, 10, 14, 18, 22, 27, 29]",129.1165028,4737,936,2,8,10,1.252271865214601
basic,41,23,0,0,0,9,"[0, 13, 12, 6, 2, 9]",6,7,"[7, 10, 14, 18, 22, 27, 29]",116.078098,5765,1028,1,4,10,1.4077625583396691
basic,41,23,0,0,0,14,"[0, 13, 12, 6, 2, 9, 14]",7,5,"[7, 10, 22, 27, 29]",105.6377915,6710,945,1,3,10,1.3795313352500915
basic,41,23,0,0,0,29,"[0, 13, 12, 6, 2, 9, 14, 29]",8,2,"[7, 10]",58.20362662,7744,1034,1,1,10,1.5679920543199335
basic,41,23,0,0,0,7,"[0, 13, 12, 6, 2, 9, 14, 29, 7]",9,1,[10],34.12043747,8730,986,1,0,10,1.5808251397817217
basic,41,23,0,0,1,10,"[0, 13, 12, 6, 2, 9, 14, 29, 7, 10]",10,0,[],6.661377032,9568,838,1,0,10,1.5347739273486019
basic,41,23,0,1,1,10,"[0, 13, 12, 6, 2, 9, 14, 29, 7, 10]",10,0,[],6.661377032,10365,797,1,0,10,1.5347739273486019
basic,42,15,0,0,0,0,[0],1,25,"[1, 2, 3, 4, 7, 8, 9, 10, 11, 12, 13, 14, 15, 16, 18, 20, 21, 22, 23, 24, 25, 26, 27, 28, 29]",300,132,-1,4,65,9,0.0
basic,42,15,0,0,0,12,"[0, 12]",2,22,"[1, 2, 3, 4, 7, 8, 9, 10, 11, 13, 14, 15, 16, 18, 21, 22, 23, 24, 26, 27, 28, 29]",213.547701,3375,3243,4,35,9,1.0
basic,42,15,0,0,0,7,"[0, 12, 7]",3,16,"[1, 3, 4, 8, 9, 10, 11, 13, 14, 15, 16, 18, 21, 22, 24, 27]",180.3061607,4115,740,4,29,9,1.411291635294361
basic,42,15,0,0,0,11,"[0, 12, 7, 11]",4,9,"[3, 4, 13, 14, 15, 16, 21, 22, 27]",138.8212237,5486,1371,2,12,9,1.2980572092387541
basic,42,15,0,0,0,3,"[0, 12, 7, 11, 3]",5,7,"[4, 13, 14, 15, 16, 21, 22]",127.4194695,6309,823,2,7,9,1.3036925309398455
basic,42,15,0,0,0,22,"[0, 12, 7, 11, 3, 22]",6,5,"[4, 13, 14, 15, 16]",77.69020242,7232,923,2,3,8,1.2885630089059408
basic,42,15,0,0,0,15,"[0, 12, 7, 11, 3, 22, 15]",7,1,[13],52.07770547,8786,1554,1,0,8,1.2624637443080136
basic,42,15,0,0,1,13,"[0, 12, 7, 11, 3, 22, 15, 13]",8,0,[],36.81336795,9954,1168,1,0,8,1.313701762332814
basic,42,15,0,1,1,13,"[0, 12, 7, 11, 3, 22, 15, 13]",8,0,[],36.81336795,10583,629,1,0,8,1.313701762332814
basic,43,6,0,0,0,0,[0],1,29,"[1, 2, 3, 4, 5, 6, 7, 8, 9, 10, 11, 12, 13, 14, 15, 16, 17, 18, 19, 20, 21, 22, 23, 24, 25, 26, 27, 28, 29]",300,132,-1,180,4304,10,0.0
basic,43,6,0,0,0,3,"[0, 3]",2,28,"[1, 2, 4, 5, 6, 7, 8, 9, 10, 11, 12, 13, 14, 15, 16, 17, 18, 19, 20, 21, 22, 23, 24, 25, 26, 27, 28, 29]",266.4738908,3098,2966,90,1607,10,1.0
basic,43,6,0,0,0,16,"[0, 3, 16]",3,27,"[1, 2, 4, 5, 6, 7, 8, 9, 10, 11, 12, 13, 14, 15, 17, 18, 19, 20, 21, 22, 23, 24, 25, 26, 27, 28, 29]",220.2353787,6079,2981,16,190,10,1.1050742161728249
basic,43,6,0,0,0,18,"[0, 3, 16, 18]",4,24,"[1, 2, 4, 5, 6, 7, 8, 9, 10, 11, 12, 13, 14, 15, 17, 19, 20, 21, 22, 23, 24, 26, 27, 29]",196.8901436,6780,701,10,97,10,1.6930577237270534
basic,43,6,0,0,0,17,"[0, 3, 16, 18, 17]",5,20,"[1, 2, 4, 5, 6, 7, 8, 9, 10, 11, 13, 14, 20, 21, 22, 23, 24, 26, 27, 29]",182.9617553,7418,638,8,58,10,1.6583245453234965
basic,43,6,0,0,0,10,"[0, 3, 16, 18, 17, 10]",6,17,"[1, 2, 4, 5, 6, 7, 8, 11, 13, 14, 21, 22, 23, 24, 26, 27, 29]",163.2386724,8711,1293,6,33,10,1.6214605156931816
basic,43,6,0,0,0,24,"[0, 3, 16, 18, 17, 10, 24]",7,15,"[1, 2, 4, 5, 6, 7, 8, 11, 13, 14, 22, 23, 26, 27, 29]",149.8222646,9868,1157,6,18,10,1.5435556829623227
basic,43,6,0,0,0,7,"[0, 3, 16, 18, 17, 10, 24, 7]",8,2,"[2, 26]",78.88567316,11065,1197,2,0,10,4.604550406567428
basic,43,6,0,0,0,26,"[0, 3, 16, 18, 17, 10, 24, 7, 26]",9,1,[2],54.802484,11772,707,1,0,10,4.929651505560752
basic,43,6,0,0,1,2,"[0, 3, 16, 18, 17, 10, 24, 7, 26, 2]",10,0,[],24.96961622,14103,2331,1,0,10,3.4672592693333204
basic,43,6,0,1,1,2,"[0, 3, 16, 18, 17, 10, 24, 7, 26, 2]",10,0,[],24.96961622,14600,497,1,0,10,3.4672592693333204
basic,44,44,0,0,0,0,[0],1,29,"[1, 2, 3, 4, 5, 6, 7, 8, 9, 10, 11, 12, 13, 14, 15, 16, 17, 18, 19, 20, 21, 22, 23, 24, 25, 26, 27, 28, 29]",300,114,-1,13,126,7,0.0
basic,44,44,0,0,0,11,"[0, 11]",2,18,"[4, 5, 6, 7, 8, 9, 12, 14, 16, 17, 19, 20, 22, 23, 24, 25, 26, 28]",152.7790776,3085,2971,5,34,7,1.0
basic,44,44,0,0,0,24,"[0, 11, 24]",3,13,"[4, 5, 7, 8, 9, 12, 14, 17, 20, 22, 23, 25, 28]",125.8532535,3888,803,5,23,7,1.1588941745226709
basic,44,44,0,0,0,9,"[0, 11, 24, 9]",4,7,"[4, 7, 8, 12, 14, 20, 23]",93.09657483,5002,1114,2,8,7,1.3039383713641313
basic,44,44,0,0,0,4,"[0, 11, 24, 9, 4]",5,5,"[7, 12, 14, 20, 23]",73.39885923,5853,851,2,3,7,1.2901330701441578
basic,44,44,0,0,0,7,"[0, 11, 24, 9, 4, 7]",6,1,[23],42.38273439,6704,851,1,0,7,1.2468141312360979
basic,44,44,0,0,1,23,"[0, 11, 24, 9, 4, 7, 23]",7,0,[],23.27776121,9284,2580,1,0,7,1.2635191782769477
basic,44,44,0,1,1,23,"[0, 11, 24, 9, 4, 7, 23]",7,0,[],23.27776121,9764,480,1,0,7,1.2635191782769477
basic,45,37,0,0,0,0,[0],1,29,"[1, 2, 3, 4, 5, 6, 7, 8, 9, 10, 11, 12, 13, 14, 15, 16, 17, 18, 19, 20, 21, 22, 23, 24, 25, 26, 27, 28, 29]",300,131,-1,6,168,10,0.0
basic,45,37,0,0,0,18,"[0, 18]",2,19,"[1, 2, 4, 6, 7, 9, 10, 12, 14, 15, 17, 19, 20, 21, 22, 23, 26, 28, 29]",202.4090168,2686,2555,6,89,10,1.0
basic,45,37,0,0,0,7,"[0, 18, 7]",3,12,"[1, 2, 4, 9, 15, 17, 19, 20, 21, 22, 26, 29]",175.2428614,3984,1298,6,53,10,1.0413073512834488
basic,45,37,0,0,0,22,"[0, 18, 7, 22]",4,8,"[1, 2, 4, 15, 19, 20, 21, 26]",125.2428614,5280,1296,6,29,10,1.0730792320325544
basic,45,37,0,0,0,4,"[0, 18, 7, 22, 4]",5,7,"[1, 2, 15, 19, 20, 21, 26]",100.2428614,6101,821,4,16,10,1.2290245562206235
basic,45,37,0,0,0,2,"[0, 18, 7, 22, 4, 2]",6,5,"[1, 15, 19, 20, 21]",88.84110714,6837,736,4,7,10,1.3968113858365216
basic,45,37,0,0,0,1,"[0, 18, 7, 22, 4, 2, 1]",7,4,"[15, 19, 20, 21]",71.63645661,7563,726,4,3,10,1.4424239294761476
basic,45,37,0,0,0,15,"[0, 18, 7, 22, 4, 2, 1, 15]",8,2,"[20, 21]",31.67397421,8535,972,2,0,10,1.612564167414217
basic,45,37,0,0,0,21,"[0, 18, 7, 22, 4, 2, 1, 15, 21]",9,1,[20],16.67397421,9344,809,1,0,10,1.8256316004901285
basic,45,37,0,0,1,20,"[0, 18, 7, 22, 4, 2, 1, 15, 21, 20]",10,0,[],2.251769103,10386,1042,1,0,10,1.9863570569415172
basic,45,37,0,1,1,20,"[0, 18, 7, 22, 4, 2, 1, 15, 21, 20]",10,0,[],2.251769103,11699,1313,1,0,10,1.9863570569415172
basic,46,38,0,0,0,0,[0],1,29,"[1, 2, 3, 4, 5, 6, 7, 8, 9, 10, 11, 12, 13, 14, 15, 16, 17, 18, 19, 20, 21, 22, 23, 24, 25, 26, 27, 28, 29]",300,131,-1,33,506,9,0.0
basic,46,38,0,0,0,11,"[0, 11]",2,23,"[1, 2, 3, 4, 5, 7, 10, 12, 13, 14, 15, 16, 17, 18, 19, 20, 21, 22, 24, 25, 26, 27, 28]",220.093805,2452,2321,2,40,9,1.0
basic,46,38,0,0,0,28,"[0, 11, 28]",3,16,"[1, 4, 5, 7, 10, 12, 13, 14, 15, 16, 17, 19, 20, 21, 24, 26]",193.0752928,3785,1333,2,20,9,1.0012220945316377
basic,46,38,0,0,0,16,"[0, 11, 28, 16]",4,13,"[1, 4, 5, 10, 12, 13, 14, 15, 17, 19, 20, 24, 26]",164.0752928,5407,1622,2,16,9,1.2422672958602723
basic,46,38,0,0,0,15,"[0, 11, 28, 16, 15]",5,9,"[4, 5, 13, 14, 17, 19, 20, 24, 26]",122.4579887,6472,1065,2,14,9,2.4196280466601676
basic,46,38,0,0,0,4,"[0, 11, 28, 16, 15, 4]",6,6,"[13, 17, 19, 20, 24, 26]",96.45798873,7323,851,2,9,9,2.9030072771852855
basic,46,38,0,0,0,20,"[0, 11, 28, 16, 15, 4, 20]",7,3,"[13, 17, 19]",62.51686323,8215,892,1,2,9,4.409951139385221
basic,46,38,0,0,0,17,"[0, 11, 28, 16, 15, 4, 20, 17]",8,1,[19],38.74713459,9089,874,1,0,9,4.030739410625113
basic,46,38,0,0,1,19,"[0, 11, 28, 16, 15, 4, 20, 17, 19]",9,0,[],17.36957626,10052,963,1,0,9,3.511004666623391
basic,46,38,0,1,1,19,"[0, 11, 28, 16, 15, 4, 20, 17, 19]",9,0,[],17.36957626,10683,631,1,0,9,3.511004666623391
basic,47,10,0,0,0,0,[0],1,29,"[1, 2, 3, 4, 5, 6, 7, 8, 9, 10, 11, 12, 13, 14, 15, 16, 17, 18, 19, 20, 21, 22, 23, 24, 25, 26, 27, 28, 29]",300,131,-1,1,100,9,0.0
basic,47,10,0,0,0,29,"[0, 29]",2,22,"[3, 4, 7, 8, 10, 11, 12, 13, 15, 16, 17, 18, 19, 20, 21, 22, 23, 24, 25, 26, 27, 28]",219.9375244,2721,2590,3,19,7,1.0
basic,47,10,0,0,0,7,"[0, 29, 7]",3,18,"[3, 4, 8, 10, 11, 12, 13, 15, 16, 17, 18, 20, 21, 22, 23, 25, 27, 28]",191.3368251,3343,622,3,16,7,1.1306818684255975
basic,47,10,0,0,0,28,"[0, 29, 7, 28]",4,8,"[3, 10, 12, 15, 17, 18, 23, 25]",121.3011199,4497,1154,2,9,7,1.2100517791866654
basic,47,10,0,0,0,23,"[0, 29, 7, 28, 23]",5,4,"[3, 15, 17, 25]",74.03591073,5473,976,2,2,7,1.1685418500626352
basic,47,10,0,0,0,25,"[0, 29, 7, 28, 23, 25]",6,1,[15],48.71793293,6324,851,1,0,7,1.1491210813070147
basic,47,10,0,0,1,15,"[0, 29, 7, 28, 23, 25, 15]",7,0,[],33.42087439,6992,668,1,0,7,1.1429485717660537
basic,47,10,0,1,1,15,"[0, 29, 7, 28, 23, 25, 15]",7,0,[],33.42087439,7664,672,1,0,7,1.1429485717660537
basic,48,17,0,0,0,0,[0],1,28,"[1, 2, 3, 4, 5, 6, 7, 8, 9, 10, 11, 12, 13, 14, 15, 16, 17, 18, 19, 20, 22, 23, 24, 25, 26, 27, 28, 29]",300,131,-1,2,73,8,0.0
basic,48,17,0,0,0,17,"[0, 17]",2,19,"[1, 2, 3, 5, 7, 8, 9, 10, 11, 12, 14, 16, 18, 19, 23, 25, 26, 27, 29]",194.4253818,3168,3037,3,56,7,1.0
basic,48,17,0,0,0,8,"[0, 17, 8]",3,14,"[2, 3, 7, 9, 10, 11, 12, 14, 16, 23, 25, 26, 27, 29]",156.2154355,4041,873,11,17,6,1.0742762671080475
basic,48,17,0,0,0,2,"[0, 17, 8, 2]",4,5,"[7, 9, 10, 16, 27]",121.1013358,4877,836,4,3,6,1.72713973249527
basic,48,17,0,0,0,16,"[0, 17, 8, 2, 16]",5,2,"[7, 9]",104.9768203,6285,1408,2,0,6,2.225242522948709
basic,48,17,0,0,1,9,"[0, 17, 8, 2, 16, 9]",6,0,[],91.6351562,6901,616,1,0,6,2.328862118556028
basic,48,17,0,1,1,9,"[0, 17, 8, 2, 16, 9]",6,0,[],91.6351562,7982,1081,1,0,6,2.328862118556028
basic,49,33,0,0,0,0,[0],1,23,"[1, 2, 5, 7, 8, 11, 12, 13, 14, 15, 16, 17, 18, 19, 20, 21, 23, 24, 25, 26, 27, 28, 29]",300,130,-1,5,108,9,0.0
basic,49,33,0,0,0,8,"[0, 8]",2,22,"[1, 2, 5, 7, 11, 12, 13, 14, 15, 16, 17, 18, 19, 20, 21, 23, 24, 25, 26, 27, 28, 29]",265.8679037,3055,2925,5,87,9,1.0
basic,49,33,0,0,0,21,"[0, 8, 21]",3,16,"[2, 5, 7, 11, 13, 14, 16, 17, 18, 19, 20, 24, 26, 27, 28, 29]",166.0430571,4343,1288,5,80,9,1.0670557763739492
basic,49,33,0,0,0,13,"[0, 8, 21, 13]",4,12,"[2, 7, 11, 14, 16, 17, 18, 19, 20, 24, 26, 29]",139.6422995,5123,780,4,54,9,1.0555103820910288
basic,49,33,0,0,0,19,"[0, 8, 21, 13, 19]",5,10,"[7, 11, 14, 16, 17, 18, 20, 24, 26, 29]",114.1472019,6188,1065,3,19,9,1.1090798607799486
basic,49,33,0,0,0,24,"[0, 8, 21, 13, 19, 24]",6,6,"[7, 14, 16, 18, 26, 29]",72.09960985,7175,987,2,3,9,1.1193530461391534
basic,49,33,0,0,0,7,"[0, 8, 21, 13, 19, 24, 7]",7,2,"[14, 26]",42.89344611,8153,978,2,0,9,1.2065014071663551
basic,49,33,0,0,0,14,"[0, 8, 21, 13, 19, 24, 7, 14]",8,1,[26],28.02737737,8893,740,1,0,9,1.2536495746979057
basic,49,33,0,0,1,26,"[0, 8, 21, 13, 19, 24, 7, 14, 26]",9,0,[],15.37826672,9759,866,1,0,9,1.2580465331304596
basic,49,33,0,1,1,26,"[0, 8, 21, 13, 19, 24, 7, 14, 26]",9,0,[],15.37826672,11932,2173,1,0,9,1.2580465331304596
basic,50,24,0,0,0,0,[0],1,29,"[1, 2, 3, 4, 5, 6, 7, 8, 9, 10, 11, 12, 13, 14, 15, 16, 17, 18, 19, 20, 21, 22, 23, 24, 25, 26, 27, 28, 29]",300,130,-1,4,76,10,0.0
basic,50,24,0,0,0,16,"[0, 16]",2,28,"[1, 2, 3, 4, 5, 6, 7, 8, 9, 10, 11, 12, 13, 14, 15, 17, 18, 19, 20, 21, 22, 23, 24, 25, 26, 27, 28, 29]",210.3562607,3486,3356,13,110,9,1.0
basic,50,24,0,0,0,8,"[0, 16, 8]",3,22,"[1, 2, 3, 4, 6, 9, 10, 11, 13, 14, 15, 17, 20, 21, 22, 23, 24, 25, 26, 27, 28, 29]",181.3562607,4452,966,3,31,9,1.0774669368510212
basic,50,24,0,0,0,22,"[0, 16, 8, 22]",4,18,"[2, 3, 4, 6, 9, 10, 11, 13, 14, 15, 17, 23, 24, 25, 26, 27, 28, 29]",167.9398528,5151,699,3,23,9,1.2531772310046492
basic,50,24,0,0,0,15,"[0, 16, 8, 22, 15]",5,16,"[3, 4, 6, 9, 10, 11, 13, 14, 17, 23, 24, 25, 26, 27, 28, 29]",146.7266494,6006,855,3,16,9,1.2813329946092564
basic,50,24,0,0,0,28,"[0, 16, 8, 22, 15, 28]",6,8,"[3, 4, 9, 11, 13, 23, 26, 27]",101.4497237,7017,1011,3,5,9,1.2060847818642253
basic,50,24,0,0,0,23,"[0, 16, 8, 22, 15, 28, 23]",7,3,"[9, 11, 27]",82.42342609,7668,651,3,1,9,1.2349355190066822
basic,50,24,0,0,0,11,"[0, 16, 8, 22, 15, 28, 23, 11]",8,2,"[9, 27]",55.49760206,8471,803,2,0,9,1.2172586817191506
basic,50,24,0,0,1,27,"[0, 16, 8, 22, 15, 28, 23, 11, 27]",9,0,[],27.69472451,9426,955,1,0,9,1.192247579330137
basic,50,24,0,1,1,27,"[0, 16, 8, 22, 15, 28, 23, 11, 27]",9,0,[],27.69472451,10514,1088,1,0,9,1.192247579330137
basic,51,29,0,0,0,0,[0],1,29,"[1, 2, 3, 4, 5, 6, 7, 8, 9, 10, 11, 12, 13, 14, 15, 16, 17, 18, 19, 20, 21, 22, 23, 24, 25, 26, 27, 28, 29]",300,130,-1,1,78,9,0.0
basic,51,29,0,0,0,6,"[0, 6]",2,28,"[1, 2, 3, 4, 5, 7, 8, 9, 10, 11, 12, 13, 14, 15, 16, 17, 18, 19, 20, 21, 22, 23, 24, 25, 26, 27, 28, 29]",228.4108947,4189,4059,1,25,9,1.0
basic,51,29,0,0,0,28,"[0, 6, 28]",3,24,"[1, 3, 4, 5, 7, 9, 10, 11, 12, 13, 14, 15, 16, 17, 18, 20, 21, 22, 23, 24, 25, 26, 27, 29]",187.1798384,5185,996,1,22,9,1.162106788166845
basic,51,29,0,0,0,27,"[0, 6, 28, 27]",4,19,"[1, 3, 4, 5, 7, 9, 10, 11, 12, 13, 14, 15, 16, 21, 22, 23, 25, 26, 29]",166.6615539,5951,766,1,21,9,1.2307173895439045
basic,51,29,0,0,0,22,"[0, 6, 28, 27, 22]",5,13,"[1, 3, 4, 5, 7, 9, 12, 13, 14, 15, 21, 26, 29]",133.4200136,6711,760,1,19,9,1.4241767805149903
basic,51,29,0,0,0,12,"[0, 6, 28, 27, 22, 12]",6,8,"[4, 5, 7, 9, 13, 14, 21, 26]",95.4726817,11784,5073,1,6,9,1.3248355326460857
basic,51,29,0,0,0,7,"[0, 6, 28, 27, 22, 12, 7]",7,4,"[4, 5, 9, 21]",81.87121119,12722,938,1,3,9,1.3264091962339806
basic,51,29,0,0,0,9,"[0, 6, 28, 27, 22, 12, 7, 9]",8,1,[4],52.80232748,15672,2950,1,0,9,1.309391257644539
basic,51,29,0,0,1,4,"[0, 6, 28, 27, 22, 12, 7, 9, 4]",9,0,[],11.76575843,17088,1416,1,0,9,1.6396807789841599
basic,51,29,0,1,1,4,"[0, 6, 28, 27, 22, 12, 7, 9, 4]",9,0,[],11.76575843,17682,594,1,0,9,1.6396807789841599
basic,52,1,0,0,0,0,[0],1,26,"[1, 2, 4, 5, 7, 8, 9, 10, 11, 12, 13, 14, 15, 16, 17, 18, 19, 20, 21, 22, 23, 24, 25, 26, 28, 29]",300,132,-1,6,74,7,0.0
basic,52,1,0,0,0,8,"[0, 8]",2,23,"[1, 4, 5, 7, 9, 10, 11, 12, 13, 14, 15, 16, 17, 18, 19, 20, 21, 23, 24, 25, 26, 28, 29]",202,3071,2939,1,16,7,1.0
basic,52,1,0,0,0,20,"[0, 8, 20]",3,12,"[1, 4, 5, 11, 13, 14, 15, 17, 18, 19, 28, 29]",125.9408125,3931,860,1,7,7,1.02364736730791
basic,52,1,0,0,0,5,"[0, 8, 20, 5]",4,7,"[1, 4, 11, 13, 17, 18, 29]",104.469902,5203,1272,1,3,7,1.0439599203945713
basic,52,1,0,0,0,18,"[0, 8, 20, 5, 18]",5,2,"[4, 29]",81.64447755,5855,652,1,1,7,1.0840407791793756
basic,52,1,0,0,0,4,"[0, 8, 20, 5, 18, 4]",6,1,[29],42.69579336,6914,1059,1,0,7,1.0902329133216275
basic,52,1,0,0,1,29,"[0, 8, 20, 5, 18, 4, 29]",7,0,[],6.640280603,10022,3108,1,0,7,1.2859729622882756
basic,52,1,0,1,1,29,"[0, 8, 20, 5, 18, 4, 29]",7,0,[],6.640280603,10916,894,1,0,7,1.2859729622882756
basic,53,20,0,0,0,0,[0],1,21,"[1, 2, 3, 4, 5, 6, 7, 8, 9, 12, 17, 18, 20, 21, 22, 23, 25, 26, 27, 28, 29]",300,129,-1,1,9,9,0.0
basic,53,20,0,0,0,12,"[0, 12]",2,20,"[1, 2, 3, 4, 5, 6, 7, 8, 9, 17, 18, 20, 21, 22, 23, 25, 26, 27, 28, 29]",271.5570747,2507,2378,1,8,9,1.0
basic,53,20,0,0,0,1,"[0, 12, 1]",3,12,"[3, 4, 5, 6, 8, 9, 20, 21, 23, 27, 28, 29]",189.5692707,4512,2005,1,6,9,1.0757997779162911
basic,53,20,0,0,0,5,"[0, 12, 1, 5]",4,10,"[4, 6, 8, 9, 20, 21, 23, 27, 28, 29]",152.8950291,5466,954,1,5,9,1.1708231454516806
basic,53,20,0,0,0,21,"[0, 12, 1, 5, 21]",5,8,"[4, 6, 8, 9, 20, 23, 27, 28]",107.8950291,6309,843,1,4,9,1.126197336199212
basic,53,20,0,0,0,8,"[0, 12, 1, 5, 21, 8]",6,5,"[6, 9, 23, 27, 28]",90.43077988,7144,835,1,3,9,1.140007470699913
basic,53,20,0,0,0,23,"[0, 12, 1, 5, 21, 8, 23]",7,2,"[6, 9]",45.74297394,8083,939,1,1,9,1.1162257896627588
basic,53,20,0,0,0,9,"[0, 12, 1, 5, 21, 8, 23, 9]",8,1,[6],26.53360123,8750,667,1,0,9,1.1086880559449597
basic,53,20,0,0,1,6,"[0, 12, 1, 5, 21, 8, 23, 9, 6]",9,0,[],3.511872362,9433,683,1,0,9,1.1186240265999328
basic,53,20,0,1,1,6,"[0, 12, 1, 5, 21, 8, 23, 9, 6]",9,0,[],3.511872362,9997,564,1,0,9,1.1186240265999328
basic,54,43,0,0,0,0,[0],1,23,"[1, 2, 3, 4, 5, 6, 7, 9, 10, 11, 12, 14, 15, 16, 17, 19, 20, 21, 22, 23, 25, 27, 29]",300,130,-1,16,556,12,0.0
basic,54,43,0,0,0,29,"[0, 29]",2,22,"[1, 2, 3, 4, 5, 6, 7, 9, 10, 11, 12, 14, 15, 16, 17, 19, 20, 21, 22, 23, 25, 27]",277.909278,2893,2763,16,520,12,1.0
basic,54,43,0,0,0,20,"[0, 29, 20]",3,20,"[1, 2, 3, 4, 6, 7, 9, 10, 11, 12, 14, 15, 16, 17, 19, 21, 22, 23, 25, 27]",254.4785289,3600,707,15,422,12,1.082311746871282
basic,54,43,0,0,0,16,"[0, 29, 20, 16]",4,19,"[1, 2, 3, 4, 6, 7, 9, 10, 11, 12, 14, 15, 17, 19, 21, 22, 23, 25, 27]",231.8511119,4372,772,15,389,12,1.215201926898219
basic,54,43,0,0,0,25,"[0, 29, 20, 16, 25]",5,14,"[1, 2, 3, 4, 6, 7, 9, 11, 12, 14, 15, 19, 22, 23]",175.7708124,5668,1296,53,282,11,1.566384303308987
basic,54,43,0,0,0,15,"[0, 29, 20, 16, 25, 15]",6,13,"[1, 2, 3, 4, 6, 7, 9, 11, 12, 14, 19, 22, 23]",153.0992443,7667,1999,27,108,11,1.776736412604812
basic,54,43,0,0,0,12,"[0, 29, 20, 16, 25, 15, 12]",7,10,"[1, 3, 6, 7, 9, 11, 14, 19, 22, 23]",133.7860364,8475,808,21,41,11,1.6813323012225032
basic,54,43,0,0,0,3,"[0, 29, 20, 16, 25, 15, 12, 3]",8,9,"[1, 6, 7, 9, 11, 14, 19, 22, 23]",120.7860364,9360,885,20,12,11,1.608740348096123
basic,54,43,0,0,0,22,"[0, 29, 20, 16, 25, 15, 12, 3, 22]",9,6,"[1, 6, 7, 11, 14, 19]",86.07292644,10120,760,9,2,11,1.793657891802588
basic,54,43,0,0,0,19,"[0, 29, 20, 16, 25, 15, 12, 3, 22, 19]",10,3,"[1, 6, 7]",65.45739831,11285,1165,3,0,11,1.6882745891803936
basic,54,43,0,0,1,1,"[0, 29, 20, 16, 25, 15, 12, 3, 22, 19, 1]",11,0,[],37.2793927,12251,966,1,0,11,1.825064866046553
basic,54,43,0,1,1,1,"[0, 29, 20, 16, 25, 15, 12, 3, 22, 19, 1]",11,0,[],37.2793927,13814,1563,1,0,11,1.825064866046553
basic,55,14,0,0,0,0,[0],1,29,"[1, 2, 3, 4, 5, 6, 7, 8, 9, 10, 11, 12, 13, 14, 15, 16, 17, 18, 19, 20, 21, 22, 23, 24, 25, 26, 27, 28, 29]",300,164,-1,8,157,10,0.0
basic,55,14,0,0,0,15,"[0, 15]",2,20,"[1, 2, 3, 4, 7, 8, 9, 13, 17, 18, 19, 20, 21, 22, 23, 25, 26, 27, 28, 29]",216.7053423,2522,2358,8,102,10,1.0
basic,55,14,0,0,0,28,"[0, 15, 28]",3,17,"[1, 2, 3, 4, 7, 8, 9, 13, 17, 18, 19, 20, 22, 23, 25, 26, 27]",197.4959696,3233,711,8,48,10,1.0446007867311968
basic,55,14,0,0,0,17,"[0, 15, 28, 17]",4,14,"[1, 2, 3, 4, 7, 8, 13, 18, 19, 20, 22, 23, 25, 26]",184.0423455,3931,698,8,39,10,1.0729463354689972
basic,55,14,0,0,0,18,"[0, 15, 28, 17, 18]",5,9,"[1, 2, 4, 7, 8, 19, 23, 25, 26]",119.412631,4783,852,8,27,10,1.5035901079219378
basic,55,14,0,0,0,8,"[0, 15, 28, 17, 18, 8]",6,8,"[1, 2, 4, 7, 19, 23, 25, 26]",105.8111605,5451,668,8,18,10,1.4819689987843856
basic,55,14,0,0,0,19,"[0, 15, 28, 17, 18, 8, 19]",7,5,"[1, 7, 23, 25, 26]",85.19563238,6204,753,4,9,10,1.4526746797093781
basic,55,14,0,0,0,1,"[0, 15, 28, 17, 18, 8, 19, 1]",8,4,"[7, 23, 25, 26]",69.96408617,7087,883,3,1,10,1.4876985459270997
basic,55,14,0,0,0,26,"[0, 15, 28, 17, 18, 8, 19, 1, 26]",9,1,[23],15.2192234,8224,1137,1,0,10,1.4353971893617312
basic,55,14,0,0,1,23,"[0, 15, 28, 17, 18, 8, 19, 1, 26, 23]",10,0,[],4.402569573,9806,1582,1,0,10,1.5725714898295635
basic,55,14,0,1,1,23,"[0, 15, 28, 17, 18, 8, 19, 1, 26, 23]",10,0,[],4.402569573,10914,1108,1,0,10,1.5725714898295635
basic,56,45,0,0,0,0,[0],1,24,"[1, 2, 3, 4, 5, 6, 7, 9, 10, 11, 12, 14, 15, 16, 17, 19, 20, 21, 22, 23, 24, 25, 27, 29]",300,129,-1,6,248,10,0.0
basic,56,45,0,0,0,15,"[0, 15]",2,23,"[1, 2, 3, 4, 5, 6, 7, 9, 10, 11, 12, 14, 16, 17, 19, 20, 21, 22, 23, 24, 25, 27, 29]",253.9022777,2333,2204,5,207,10,1.0
basic,56,45,0,0,0,23,"[0, 15, 23]",3,22,"[1, 2, 3, 4, 5, 6, 7, 9, 10, 11, 12, 14, 16, 17, 19, 20, 21, 22, 24, 25, 27, 29]",230.3014303,3103,770,5,163,10,1.0006068457769497
basic,56,45,0,0,0,20,"[0, 15, 23, 20]",4,19,"[1, 2, 3, 5, 6, 7, 9, 10, 11, 12, 14, 16, 17, 19, 21, 22, 24, 25, 29]",188.8647316,3834,731,5,137,10,1.2062119754673604
basic,56,45,0,0,0,24,"[0, 15, 23, 20, 24]",5,14,"[1, 2, 3, 5, 6, 7, 9, 10, 12, 17, 19, 21, 22, 29]",145.0355176,4684,850,1,23,10,1.5044386356496664
basic,56,45,0,0,0,7,"[0, 15, 23, 20, 24, 7]",6,9,"[2, 3, 6, 10, 12, 17, 19, 22, 29]",110.6262165,5504,820,1,22,10,1.4273775035809357
basic,56,45,0,0,0,2,"[0, 15, 23, 20, 24, 7, 2]",7,6,"[3, 6, 10, 12, 22, 29]",72.61306087,6419,915,1,7,10,1.3566457419165387
basic,56,45,0,0,0,3,"[0, 15, 23, 20, 24, 7, 2, 3]",8,4,"[6, 10, 22, 29]",47.29508307,7883,1464,1,3,10,1.4087069987569252
basic,56,45,0,0,0,29,"[0, 15, 23, 20, 24, 7, 2, 3, 29]",9,1,[10],27.29508307,8926,1043,1,0,10,1.6931989191216303
basic,56,45,0,0,1,10,"[0, 15, 23, 20, 24, 7, 2, 3, 29, 10]",10,0,[],5.754423843,9822,896,1,0,10,1.9996819797033594
basic,56,45,0,1,1,10,"[0, 15, 23, 20, 24, 7, 2, 3, 29, 10]",10,0,[],5.754423843,10680,858,1,0,10,1.9996819797033594
basic,57,36,0,0,0,0,[0],1,24,"[2, 4, 5, 6, 7, 8, 9, 10, 12, 13, 14, 15, 16, 17, 18, 19, 20, 22, 23, 25, 26, 27, 28, 29]",300,130,-1,2,200,10,0.0
basic,57,36,0,0,0,12,"[0, 12]",2,23,"[2, 4, 5, 6, 7, 8, 9, 10, 13, 14, 15, 16, 17, 18, 19, 20, 22, 23, 25, 26, 27, 28, 29]",277.7963967,2296,2166,90,804,9,1.0
basic,57,36,0,0,0,9,"[0, 12, 9]",3,14,"[2, 4, 8, 10, 13, 16, 17, 18, 19, 23, 25, 27, 28, 29]",215.4345494,3212,916,32,191,9,1.224429481246385
basic,57,36,0,0,0,17,"[0, 12, 9, 17]",4,11,"[2, 4, 8, 10, 13, 16, 18, 19, 23, 25, 27]",189.1857399,5024,1812,8,54,9,1.1724571624470872
basic,57,36,0,0,0,19,"[0, 12, 9, 17, 19]",5,8,"[2, 4, 10, 13, 16, 18, 23, 25]",161.2930885,5936,912,3,14,9,1.7995682634090462
basic,57,36,0,0,0,2,"[0, 12, 9, 17, 19, 2]",6,4,"[10, 13, 16, 25]",124.1716661,7520,1584,2,3,9,1.5569787348204112
basic,57,36,0,0,0,13,"[0, 12, 9, 17, 19, 2, 13]",7,2,"[10, 25]",85.84413034,8555,1035,1,1,9,2.183445952533094
basic,57,36,0,0,0,25,"[0, 12, 9, 17, 19, 2, 13, 25]",8,1,[10],65.25287006,9478,923,1,0,9,2.050369225795528
basic,57,36,0,0,1,10,"[0, 12, 9, 17, 19, 2, 13, 25, 10]",9,0,[],2.181481932,10520,1042,1,0,9,1.712336084492526
basic,57,36,0,1,1,10,"[0, 12, 9, 17, 19, 2, 13, 25, 10]",9,0,[],2.181481932,12149,1629,1,0,9,1.712336084492526
basic,58,0,0,0,0,0,[0],1,27,"[2, 3, 4, 5, 6, 7, 8, 9, 10, 11, 12, 13, 14, 15, 16, 17, 19, 20, 21, 22, 23, 24, 25, 26, 27, 28, 29]",300,131,-1,104,1136,9,0.0
basic,58,0,0,0,0,20,"[0, 20]",2,25,"[2, 3, 4, 5, 6, 7, 8, 9, 11, 12, 13, 14, 15, 16, 17, 19, 21, 22, 23, 24, 25, 26, 27, 28, 29]",215.4955622,4053,3922,36,372,9,1.0
basic,58,0,0,0,0,5,"[0, 20, 5]",3,22,"[2, 3, 4, 7, 8, 9, 11, 12, 13, 14, 15, 16, 17, 19, 21, 22, 23, 24, 25, 26, 28, 29]",153.2942761,5796,1743,33,251,9,1.0828244018179105
basic,58,0,0,0,0,4,"[0, 20, 5, 4]",4,19,"[2, 3, 7, 8, 9, 11, 12, 13, 14, 15, 17, 19, 21, 22, 23, 24, 25, 26, 28]",128.2144037,6677,881,21,127,9,1.0973859443611045
basic,58,0,0,0,0,26,"[0, 20, 5, 4, 26]",5,14,"[3, 7, 8, 9, 11, 12, 13, 14, 15, 17, 19, 23, 24, 28]",116.1728091,7650,973,9,63,9,1.1378617460104323
basic,58,0,0,0,0,24,"[0, 20, 5, 4, 26, 24]",6,11,"[3, 7, 8, 9, 11, 12, 15, 17, 19, 23, 28]",99.05556633,9568,1918,9,24,9,1.204469953325506
basic,58,0,0,0,0,15,"[0, 20, 5, 4, 26, 24, 15]",7,8,"[3, 7, 8, 9, 11, 12, 17, 19]",75.71033127,10438,870,5,6,9,1.1865351459643638
basic,58,0,0,0,0,7,"[0, 20, 5, 4, 26, 24, 15, 7]",8,2,"[3, 8]",44.64588214,11497,1059,2,0,9,1.2455705670301183
basic,58,0,0,0,1,8,"[0, 20, 5, 4, 26, 24, 15, 7, 8]",9,0,[],25.54090896,14574,3077,1,0,9,1.2337265013393985
basic,58,0,0,1,1,8,"[0, 20, 5, 4, 26, 24, 15, 7, 8]",9,0,[],25.54090896,15649,1075,1,0,9,1.2337265013393985
basic,59,28,0,0,0,0,[0],1,27,"[1, 2, 3, 4, 5, 6, 7, 8, 9, 10, 11, 12, 13, 14, 15, 16, 17, 18, 19, 20, 22, 23, 25, 26, 27, 28, 29]",300,129,-1,2,96,9,0.0
basic,59,28,0,0,0,20,"[0, 20]",2,22,"[2, 3, 4, 5, 6, 7, 8, 9, 10, 11, 12, 13, 14, 15, 16, 18, 19, 22, 23, 26, 28, 29]",245.9629757,2595,2466,1,24,9,1.0
basic,59,28,0,0,0,28,"[0, 20, 28]",3,8,"[2, 4, 5, 8, 9, 19, 26, 29]",111.798897,5316,2721,11,15,6,1.0188673683341003
basic,59,28,0,0,0,8,"[0, 20, 28, 8]",4,6,"[2, 4, 5, 9, 26, 29]",93.99440319,6111,795,6,4,6,1.021470705651404
basic,59,28,0,0,0,9,"[0, 20, 28, 8, 9]",5,3,"[2, 4, 26]",78.86165724,6841,730,3,0,6,1.0747034022913178
basic,59,28,0,0,1,4,"[0, 20, 28, 8, 9, 4]",6,0,[],55.83992837,7768,927,1,0,6,1.0683935598495367
basic,59,28,0,1,1,4,"[0, 20, 28, 8, 9, 4]",6,0,[],55.83992837,8763,995,1,0,6,1.0683935598495367
basic,60,3,0,0,0,0,[0],1,29,"[1, 2, 3, 4, 5, 6, 7, 8, 9, 10, 11, 12, 13, 14, 15, 16, 17, 18, 19, 20, 21, 22, 23, 24, 25, 26, 27, 28, 29]",300,131,-1,34,427,10,0.0
basic,60,3,0,0,0,15,"[0, 15]",2,28,"[1, 2, 3, 4, 5, 6, 7, 8, 9, 10, 11, 12, 13, 14, 16, 17, 18, 19, 20, 21, 22, 23, 24, 25, 26, 27, 28, 29]",268.1723391,3309,3178,8,84,10,1.0
basic,60,3,0,0,0,7,"[0, 15, 7]",3,27,"[1, 2, 3, 4, 5, 6, 8, 9, 10, 11, 12, 13, 14, 16, 17, 18, 19, 20, 21, 22, 23, 24, 25, 26, 27, 28, 29]",238.1057463,4024,715,8,69,10,2.9209704282891646
basic,60,3,0,0,0,8,"[0, 15, 7, 8]",4,18,"[3, 4, 5, 6, 10, 11, 14, 16, 17, 18, 19, 20, 21, 22, 24, 26, 27, 28]",182.1325384,5042,1018,6,40,10,1.9633672365780177
basic,60,3,0,0,0,24,"[0, 15, 7, 8, 24]",5,14,"[3, 4, 5, 10, 14, 16, 17, 18, 19, 20, 21, 22, 26, 27]",169.9670134,5726,684,6,34,10,2.209350379748608
basic,60,3,0,0,0,17,"[0, 15, 7, 8, 24, 17]",6,5,"[3, 14, 19, 20, 21]",100.6128498,6745,1019,3,7,10,1.9489773900408984
basic,60,3,0,0,0,20,"[0, 15, 7, 8, 24, 17, 20]",7,4,"[3, 14, 19, 21]",87.9637392,7620,875,3,4,10,1.872837097405716
basic,60,3,0,0,0,3,"[0, 15, 7, 8, 24, 17, 20, 3]",8,3,"[14, 19, 21]",67.56766115,8503,883,3,1,10,1.8579729265349425
basic,60,3,0,0,0,19,"[0, 15, 7, 8, 24, 17, 20, 3, 19]",9,2,"[14, 21]",30.23135174,9608,1105,2,0,10,1.8279425324472436
basic,60,3,0,0,1,21,"[0, 15, 7, 8, 24, 17, 20, 3, 19, 21]",10,0,[],18.02479613,10587,979,1,0,10,1.8337547852117746
basic,60,3,0,1,1,21,"[0, 15, 7, 8, 24, 17, 20, 3, 19, 21]",10,0,[],18.02479613,11433,846,1,0,10,1.8337547852117746
basic,61,26,0,0,0,0,[0],1,29,"[1, 2, 3, 4, 5, 6, 7, 8, 9, 10, 11, 12, 13, 14, 15, 16, 17, 18, 19, 20, 21, 22, 23, 24, 25, 26, 27, 28, 29]",300,165,-1,9,226,9,0.0
basic,61,26,0,0,0,16,"[0, 16]",2,17,"[3, 4, 5, 6, 10, 11, 12, 13, 14, 17, 18, 19, 21, 22, 23, 26, 29]",188.0535842,3002,2837,34,176,8,1.0
basic,61,26,0,0,0,29,"[0, 16, 29]",3,12,"[4, 5, 6, 10, 12, 13, 14, 17, 19, 21, 23, 26]",163.8461474,3842,840,32,68,8,1.1142946124989752
basic,61,26,0,0,0,4,"[0, 16, 29, 4]",4,9,"[5, 6, 10, 12, 13, 14, 17, 21, 23]",139.8461474,4584,742,17,7,8,1.3213762371676339
basic,61,26,0,0,0,17,"[0, 16, 29, 4, 17]",5,5,"[6, 10, 14, 21, 23]",118.7511243,5274,690,6,0,8,1.2756100061290643
basic,61,26,0,0,0,14,"[0, 16, 29, 4, 17, 14]",6,2,"[6, 10]",96.27891921,6110,836,2,0,8,1.264154039440982
basic,61,26,0,0,0,6,"[0, 16, 29, 4, 17, 14, 6]",7,1,[10],75.25512317,6793,683,1,0,8,1.3993089646092733
basic,61,26,0,0,1,10,"[0, 16, 29, 4, 17, 14, 6, 10]",8,0,[],45.98056083,7493,700,1,0,8,1.5697867669370302
basic,61,26,0,1,1,10,"[0, 16, 29, 4, 17, 14, 6, 10]",8,0,[],45.98056083,8732,1239,1,0,8,1.5697867669370302
basic,62,34,0,0,0,0,[0],1,25,"[1, 3, 4, 5, 6, 7, 8, 9, 10, 11, 12, 13, 15, 18, 19, 20, 21, 22, 23, 24, 25, 26, 27, 28, 29]",300,132,-1,12,367,10,0.0
basic,62,34,0,0,0,13,"[0, 13]",2,24,"[1, 3, 4, 5, 6, 7, 8, 9, 10, 11, 12, 15, 18, 19, 20, 21, 22, 23, 24, 25, 26, 27, 28, 29]",279.9750156,2165,2033,12,331,10,1.0
basic,62,34,0,0,0,1,"[0, 13, 1]",3,16,"[3, 5, 7, 8, 9, 10, 11, 12, 19, 21, 22, 23, 24, 25, 27, 29]",211.8574701,3141,976,3,92,10,1.0010381285747127
basic,62,34,0,0,0,8,"[0, 13, 1, 8]",4,14,"[3, 5, 7, 9, 10, 11, 12, 19, 22, 23, 24, 25, 27, 29]",201.0871405,4430,1289,2,54,10,1.1636807
basic,62,34,0,0,0,25,"[0, 13, 1, 8, 25]",5,12,"[3, 5, 7, 9, 10, 11, 12, 22, 23, 24, 27, 29]",183.999133,5203,773,2,28,10,1.1396208815936457
basic,62,34,0,0,0,24,"[0, 13, 1, 8, 25, 24]",6,11,"[3, 5, 7, 9, 10, 11, 12, 22, 23, 27, 29]",166.5062774,5972,769,2,23,10,1.374180768736554
basic,62,34,0,0,0,12,"[0, 13, 1, 8, 25, 24, 12]",7,7,"[7, 9, 10, 11, 22, 23, 27]",115.4670767,7673,1701,1,8,10,1.4994254760835948
basic,62,34,0,0,0,7,"[0, 13, 1, 8, 25, 24, 12, 7]",8,5,"[9, 11, 22, 23, 27]",100.4337804,8588,915,1,4,10,1.758992610425009
basic,62,34,0,0,0,23,"[0, 13, 1, 8, 25, 24, 12, 7, 23]",9,1,[27],72.27352467,9487,899,1,0,10,2.399781305190153
basic,62,34,0,0,1,27,"[0, 13, 1, 8, 25, 24, 12, 7, 23, 27]",10,0,[],18.60789321,11396,1909,1,0,10,4.766619878750327
basic,62,34,0,1,1,27,"[0, 13, 1, 8, 25, 24, 12, 7, 23, 27]",10,0,[],18.60789321,12316,920,1,0,10,4.766619878750327
basic,63,5,0,0,0,0,[0],1,29,"[1, 2, 3, 4, 5, 6, 7, 8, 9, 10, 11, 12, 13, 14, 15, 16, 17, 18, 19, 20, 21, 22, 23, 24, 25, 26, 27, 28, 29]",300,130,-1,5,139,9,0.0
basic,63,5,0,0,0,23,"[0, 23]",2,27,"[1, 2, 3, 4, 5, 6, 7, 8, 9, 10, 11, 12, 13, 14, 15, 16, 17, 18, 19, 20, 21, 22, 24, 25, 26, 27, 28]",249.8402552,2250,2120,3,75,9,1.0
basic,63,5,0,0,0,12,"[0, 23, 12]",3,20,"[2, 4, 5, 6, 8, 9, 10, 13, 14, 15, 16, 17, 18, 19, 21, 22, 24, 25, 26, 27]",206.6661889,3167,917,12,56,8,1.3018394868431302
basic,63,5,0,0,0,25,"[0, 23, 12, 25]",4,18,"[2, 4, 5, 6, 8, 9, 10, 13, 14, 15, 17, 18, 19, 21, 22, 24, 26, 27]",178.8813009,4037,870,12,34,8,1.9286025844958365
basic,63,5,0,0,0,24,"[0, 23, 12, 25, 24]",5,14,"[4, 5, 6, 8, 9, 13, 14, 15, 17, 18, 19, 22, 26, 27]",154.0418162,4746,709,9,16,8,2.0153742455218557
basic,63,5,0,0,0,17,"[0, 23, 12, 25, 24, 17]",6,7,"[4, 5, 6, 8, 15, 18, 19]",119.0561048,5906,1160,8,2,8,1.6946205255346762
basic,63,5,0,0,0,6,"[0, 23, 12, 25, 24, 17, 6]",7,1,[4],40.16377316,8628,2722,1,0,8,1.5559055499401198
basic,63,5,0,0,1,4,"[0, 23, 12, 25, 24, 17, 6, 4]",8,0,[],28.12217858,9389,761,1,0,8,1.551537077274891
basic,63,5,0,1,1,4,"[0, 23, 12, 25, 24, 17, 6, 4]",8,0,[],28.12217858,10214,825,1,0,8,1.551537077274891
basic,64,2,0,0,0,0,[0],1,23,"[1, 2, 4, 5, 6, 7, 8, 9, 12, 13, 15, 16, 17, 18, 19, 20, 22, 23, 25, 26, 27, 28, 29]",300,131,-1,70,620,10,0.0
basic,64,2,0,0,0,19,"[0, 19]",2,22,"[1, 2, 4, 5, 6, 7, 8, 9, 12, 13, 15, 16, 17, 18, 20, 22, 23, 25, 26, 27, 28, 29]",210.306076,1974,1843,67,431,10,1.0
basic,64,2,0,0,0,12,"[0, 19, 12]",3,17,"[1, 4, 5, 6, 7, 13, 15, 16, 17, 18, 20, 22, 25, 26, 27, 28, 29]",174.2921898,2486,512,66,298,10,1.1107635036313153
basic,64,2,0,0,0,5,"[0, 19, 12, 5]",4,11,"[1, 6, 7, 13, 15, 16, 18, 22, 25, 26, 29]",144.7625437,3352,866,38,136,10,1.0968174771581647
basic,64,2,0,0,0,22,"[0, 19, 12, 5, 22]",5,8,"[1, 6, 7, 13, 15, 18, 26, 29]",131.9562952,4056,704,20,63,10,1.0889910507461968
basic,64,2,0,0,0,13,"[0, 19, 12, 5, 22, 13]",6,7,"[1, 6, 7, 15, 18, 26, 29]",117.0902265,5607,1551,19,20,10,1.236526217328057
basic,64,2,0,0,0,18,"[0, 19, 12, 5, 22, 13, 18]",7,4,"[7, 15, 26, 29]",81.91921567,6603,996,10,3,10,1.2128708213409936
basic,64,2,0,0,0,7,"[0, 19, 12, 5, 22, 13, 18, 7]",8,3,"[15, 26, 29]",71.62358553,7447,844,5,0,10,1.2019811287894737
basic,64,2,0,0,0,26,"[0, 19, 12, 5, 22, 13, 18, 7, 26]",9,2,"[15, 29]",48.82007703,8487,1040,2,0,10,1.1883593342191134
basic,64,2,0,0,1,15,"[0, 19, 12, 5, 22, 13, 18, 7, 26, 15]",10,0,[],24.61264015,9269,782,1,0,10,1.4619750353663825
basic,64,2,0,1,1,15,"[0, 19, 12, 5, 22, 13, 18, 7, 26, 15]",10,0,[],24.61264015,10599,1330,1,0,10,1.4619750353663825
basic,65,12,0,0,0,0,[0],1,29,"[1, 2, 3, 4, 5, 6, 7, 8, 9, 10, 11, 12, 13, 14, 15, 16, 17, 18, 19, 20, 21, 22, 23, 24, 25, 26, 27, 28, 29]",300,130,-1,2,32,9,0.0
basic,65,12,0,0,0,6,"[0, 6]",2,28,"[1, 2, 3, 4, 5, 7, 8, 9, 10, 11, 12, 13, 14, 15, 16, 17, 18, 19, 20, 21, 22, 23, 24, 25, 26, 27, 28, 29]",283.5987805,2728,2598,2,18,9,1.0
basic,65,12,0,0,0,22,"[0, 6, 22]",3,13,"[2, 4, 5, 7, 12, 13, 14, 16, 19, 23, 24, 25, 27]",182.0015365,8239,5511,2,9,9,1.3408050629015749
basic,65,12,0,0,0,16,"[0, 6, 22, 16]",4,10,"[2, 4, 5, 7, 12, 14, 19, 24, 25, 27]",161.0015365,8939,700,2,7,9,1.5323672374573825
basic,65,12,0,0,0,4,"[0, 6, 22, 16, 4]",5,6,"[12, 14, 19, 24, 25, 27]",126.7962737,9785,846,2,5,9,1.38665076120851
basic,65,12,0,0,0,12,"[0, 6, 22, 16, 4, 12]",6,3,"[14, 24, 27]",84.6062275,10699,914,2,3,9,1.3036701691846924
basic,65,12,0,0,0,27,"[0, 6, 22, 16, 4, 12, 27]",7,2,"[14, 24]",60.25463618,12025,1326,2,0,9,1.401636252408167
basic,65,12,0,0,0,14,"[0, 6, 22, 16, 4, 12, 27, 14]",8,1,[24],31.60153862,14641,2616,1,0,9,1.4415448388010776
basic,65,12,0,0,1,24,"[0, 6, 22, 16, 4, 12, 27, 14, 24]",9,0,[],14.39688808,15367,726,1,0,9,1.6003250998053893
basic,65,12,0,1,1,24,"[0, 6, 22, 16, 4, 12, 27, 14, 24]",9,0,[],14.39688808,16613,1246,1,0,9,1.6003250998053893
basic,66,11,0,0,0,0,[0],1,25,"[1, 2, 3, 4, 5, 6, 8, 9, 10, 11, 12, 13, 14, 15, 16, 17, 18, 19, 20, 22, 23, 25, 26, 27, 28]",300,132,-1,6,374,12,0.0
basic,66,11,0,0,0,1,"[0, 1]",2,24,"[2, 3, 4, 5, 6, 8, 9, 10, 11, 12, 13, 14, 15, 16, 17, 18, 19, 20, 22, 23, 25, 26, 27, 28]",264.6446609,2934,2802,6,217,12,1.0
basic,66,11,0,0,0,17,"[0, 1, 17]",3,17,"[2, 4, 5, 6, 8, 10, 11, 12, 15, 18, 19, 22, 23, 25, 26, 27, 28]",149.3971013,4475,1541,166,657,10,1.0239647205492373
basic,66,11,0,0,0,8,"[0, 1, 17, 8]",4,14,"[2, 4, 5, 6, 11, 12, 15, 18, 19, 22, 23, 25, 27, 28]",135.0792803,5176,701,74,238,10,1.1357648364167585
basic,66,11,0,0,0,15,"[0, 1, 17, 8, 15]",5,11,"[2, 5, 6, 11, 12, 18, 19, 22, 25, 27, 28]",121.6256562,5859,683,46,62,10,1.1370884007549122
basic,66,11,0,0,0,11,"[0, 1, 17, 8, 15, 11]",6,8,"[2, 5, 6, 12, 19, 22, 27, 28]",103.5148859,6719,860,24,0,10,1.1333500349846208
basic,66,11,0,0,0,28,"[0, 1, 17, 8, 15, 11, 28]",7,4,"[2, 5, 19, 22]",84.09839809,7671,952,6,0,10,1.2494062982732912
basic,66,11,0,0,0,5,"[0, 1, 17, 8, 15, 11, 28, 5]",8,2,"[2, 22]",66.20985427,8959,1288,2,0,10,1.437002205535982
basic,66,11,0,0,0,2,"[0, 1, 17, 8, 15, 11, 28, 5, 2]",9,1,[22],49.20985427,11252,2293,1,0,10,1.4050805234561385
basic,66,11,0,0,1,22,"[0, 1, 17, 8, 15, 11, 28, 5, 2, 22]",10,0,[],39.15997865,12538,1286,1,0,10,1.3835184905309272
basic,66,11,0,1,1,22,"[0, 1, 17, 8, 15, 11, 28, 5, 2, 22]",10,0,[],39.15997865,14249,1711,1,0,10,1.3835184905309272
basic,67,4,0,0,0,0,[0],1,26,"[3, 4, 5, 6, 7, 8, 10, 11, 12, 13, 14, 15, 16, 17, 18, 19, 20, 21, 22, 23, 24, 25, 26, 27, 28, 29]",300,130,-1,4,489,10,0.0
basic,67,4,0,0,0,28,"[0, 28]",2,21,"[3, 4, 5, 6, 10, 11, 12, 13, 14, 15, 16, 17, 19, 20, 21, 22, 23, 24, 25, 26, 27]",225.9392142,3009,2879,2,216,10,1.0
basic,67,4,0,0,0,14,"[0, 28, 14]",3,13,"[3, 4, 5, 6, 11, 13, 16, 17, 20, 21, 22, 24, 25]",159.6972335,4467,1458,1,26,10,1.0273973946789214
basic,67,4,0,0,0,25,"[0, 28, 14, 25]",4,12,"[3, 4, 5, 6, 11, 13, 16, 17, 20, 21, 22, 24]",143.572718,5183,716,1,25,10,1.233547772313525
basic,67,4,0,0,0,11,"[0, 28, 14, 25, 11]",5,10,"[3, 4, 5, 6, 13, 16, 17, 20, 21, 22]",124.7844238,6463,1280,1,15,10,1.425978575879479
basic,67,4,0,0,0,16,"[0, 28, 14, 25, 11, 16]",6,9,"[3, 4, 5, 6, 13, 17, 20, 21, 22]",109.7844238,7195,732,1,12,10,1.3799325158051412
basic,67,4,0,0,0,21,"[0, 28, 14, 25, 11, 16, 21]",7,4,"[5, 17, 20, 22]",65.58035157,8029,834,3,3,9,1.5860540591673642
basic,67,4,0,0,0,22,"[0, 28, 14, 25, 11, 16, 21, 22]",8,3,"[5, 17, 20]",54.53499056,8697,668,3,0,9,1.5471132483772176
basic,67,4,0,0,1,20,"[0, 28, 14, 25, 11, 16, 21, 22, 20]",9,0,[],24.30255764,10604,1907,1,0,9,1.5087977616865345
basic,67,4,0,1,1,20,"[0, 28, 14, 25, 11, 16, 21, 22, 20]",9,0,[],24.30255764,11747,1143,1,0,9,1.5087977616865345
basic,68,32,0,0,0,0,[0],1,29,"[1, 2, 3, 4, 5, 6, 7, 8, 9, 10, 11, 12, 13, 14, 15, 16, 17, 18, 19, 20, 21, 22, 23, 24, 25, 26, 27, 28, 29]",300,130,-1,17,359,10,0.0
basic,68,32,0,0,0,19,"[0, 19]",2,28,"[1, 2, 3, 4, 5, 6, 7, 8, 9, 10, 11, 12, 13, 14, 15, 16, 17, 18, 20, 21, 22, 23, 24, 25, 26, 27, 28, 29]",283.5075775,1549,1419,16,294,10,1.0
basic,68,32,0,0,0,13,"[0, 19, 13]",3,24,"[2, 3, 4, 5, 6, 8, 9, 10, 11, 12, 14, 15, 16, 17, 18, 20, 21, 22, 23, 24, 25, 26, 27, 28]",260.3127505,2654,1105,14,227,10,1.0172874229878615
basic,68,32,0,0,0,15,"[0, 19, 13, 15]",4,18,"[2, 3, 5, 8, 9, 10, 11, 12, 16, 17, 20, 22, 23, 24, 25, 26, 27, 28]",177.4393531,3561,907,9,116,10,1.435447391509833
basic,68,32,0,0,0,28,"[0, 19, 13, 15, 28]",5,17,"[2, 3, 5, 8, 9, 10, 11, 12, 16, 17, 20, 22, 23, 24, 25, 26, 27]",166.0375988,4419,858,9,70,10,1.3843701324937985
basic,68,32,0,0,0,16,"[0, 19, 13, 15, 28, 16]",6,14,"[2, 3, 5, 8, 9, 10, 11, 12, 17, 20, 22, 24, 26, 27]",134.0219776,5979,1560,3,22,10,1.4134622039936937
basic,68,32,0,0,0,12,"[0, 19, 13, 15, 28, 16, 12]",7,10,"[2, 3, 5, 8, 9, 11, 17, 20, 22, 27]",118.3695018,6773,794,3,12,10,1.6132350863104477
basic,68,32,0,0,0,22,"[0, 19, 13, 15, 28, 16, 12, 22]",8,6,"[2, 8, 9, 17, 20, 27]",88.83985567,7672,899,3,5,10,1.4953724432077236
basic,68,32,0,0,0,9,"[0, 19, 13, 15, 28, 16, 12, 22, 9]",9,3,"[2, 8, 20]",66.63625236,8673,1001,3,0,10,1.5414044555780373
basic,68,32,0,0,1,8,"[0, 19, 13, 15, 28, 16, 12, 22, 9, 8]",10,0,[],21.51419566,9969,1296,1,0,10,1.421345511967712
basic,68,32,0,1,1,8,"[0, 19, 13, 15, 28, 16, 12, 22, 9, 8]",10,0,[],21.51419566,10747,778,1,0,10,1.421345511967712
undo,69,5,0,0,0,0,[0],1,29,"[1, 2, 3, 4, 5, 6, 7, 8, 9, 10, 11, 12, 13, 14, 15, 16, 17, 18, 19, 20, 21, 22, 23, 24, 25, 26, 27, 28, 29]",300,133,-1,5,139,9,0.0
undo,69,5,0,0,0,23,"[0, 23]",2,27,"[1, 2, 3, 4, 5, 6, 7, 8, 9, 10, 11, 12, 13, 14, 15, 16, 17, 18, 19, 20, 21, 22, 24, 25, 26, 27, 28]",249.8402552,3772,3639,3,75,9,1.0
undo,69,5,0,0,0,25,"[0, 23, 25]",3,23,"[1, 2, 3, 4, 5, 6, 8, 9, 10, 12, 13, 14, 15, 16, 17, 18, 19, 21, 22, 24, 26, 27, 28]",231.4011663,4648,876,3,43,9,1.0923159590575564
undo,69,5,0,0,0,24,"[0, 23, 25, 24]",4,21,"[2, 3, 4, 5, 6, 8, 9, 10, 12, 13, 14, 15, 16, 17, 18, 19, 21, 22, 26, 27, 28]",206.5616816,5419,771,3,25,9,1.2901858295679272
undo,69,5,0,0,0,17,"[0, 23, 25, 24, 17]",5,13,"[4, 5, 6, 8, 12, 13, 14, 15, 18, 19, 22, 26, 27]",171.5759702,6372,953,3,14,9,1.2027484907982513
undo,69,5,0,0,0,5,"[0, 23, 25, 24, 17, 5]",6,7,"[4, 6, 8, 12, 15, 18, 19]",128.5294837,8066,1694,3,4,9,1.1472230681682432
undo,69,5,0,0,0,18,"[0, 23, 25, 24, 17, 5, 18]",7,2,"[4, 6]",61.46235316,10062,1996,1,1,9,1.1763046566678599
undo,69,5,0,0,0,4,"[0, 23, 25, 24, 17, 5, 18, 4]",8,1,[6],23.04360773,11772,1710,1,0,9,1.580519180089265
undo,69,5,0,0,1,6,"[0, 23, 25, 24, 17, 5, 18, 4, 6]",9,0,[],11.00201315,12663,891,1,0,9,1.7305268673652696
undo,69,5,0,1,1,6,"[0, 23, 25, 24, 17, 5, 18, 4, 6]",9,0,[],11.00201315,13700,1037,1,0,9,1.7305268673652696
undo,70,28,0,0,0,0,[0],1,27,"[1, 2, 3, 4, 5, 6, 7, 8, 9, 10, 11, 12, 13, 14, 15, 16, 17, 18, 19, 20, 22, 23, 25, 26, 27, 28, 29]",300,131,-1,2,96,9,0.0
undo,70,28,0,0,0,3,"[0, 3]",2,26,"[1, 2, 4, 5, 6, 7, 8, 9, 10, 11, 12, 13, 14, 15, 16, 17, 18, 19, 20, 22, 23, 25, 26, 27, 28, 29]",251.0817008,3177,3046,1,64,9,1.0
undo,70,28,0,0,0,5,"[0, 3, 5]",3,20,"[2, 4, 6, 7, 8, 9, 10, 11, 12, 13, 14, 15, 18, 19, 20, 23, 25, 26, 28, 29]",166.9865166,4322,1145,1,34,9,1.0203769473612083
undo,70,28,0,0,0,26,"[0, 3, 5, 26]",4,13,"[2, 4, 7, 8, 9, 12, 13, 14, 18, 19, 20, 25, 28]",134.2298379,5825,1503,1,28,9,1.0315203228799597
undo,70,28,0,0,0,19,"[0, 3, 5, 26, 19]",5,7,"[2, 7, 9, 12, 13, 14, 18]",93.22983789,7386,1561,1,17,9,1.1324645362297356
undo,70,28,0,0,0,7,"[0, 3, 5, 26, 19, 7]",6,5,"[2, 12, 13, 14, 18]",65.49898864,8489,1103,1,6,9,1.1971194919020265
undo,70,28,0,0,0,12,"[0, 3, 5, 26, 19, 7, 12]",7,2,"[13, 18]",52.3460422,10007,1518,1,1,9,1.2020762147848982
undo,70,28,0,0,0,13,"[0, 3, 5, 26, 19, 7, 12, 13]",8,1,[18],35.14139167,11035,1028,1,0,9,1.39005144078531
undo,70,28,0,0,1,18,"[0, 3, 5, 26, 19, 7, 12, 13, 18]",9,0,[],10.72828044,11694,659,1,0,9,1.738787343626007
undo,70,28,0,1,1,18,"[0, 3, 5, 26, 19, 7, 12, 13, 18]",9,0,[],10.72828044,12417,723,1,0,9,1.738787343626007
undo,71,19,0,0,0,0,[0],1,29,"[1, 2, 3, 4, 5, 6, 7, 8, 9, 10, 11, 12, 13, 14, 15, 16, 17, 18, 19, 20, 21, 22, 23, 24, 25, 26, 27, 28, 29]",300,131,-1,12,149,8,0.0
undo,71,19,0,0,0,29,"[0, 29]",2,28,"[1, 2, 3, 4, 5, 6, 7, 8, 9, 10, 11, 12, 13, 14, 15, 16, 17, 18, 19, 20, 21, 22, 23, 24, 25, 26, 27, 28]",265.0715016,1501,1370,12,120,8,1.0
undo,71,19,0,0,0,12,"[0, 29, 12]",3,10,"[1, 2, 3, 8, 13, 16, 17, 19, 23, 25]",151.2251139,3481,1980,1,15,8,1.2439006517653588
undo,71,19,0,0,0,17,"[0, 29, 12, 17]",4,9,"[1, 2, 3, 8, 13, 16, 19, 23, 25]",131.1005021,4364,883,1,7,8,1.2186098272331718
undo,71,19,0,0,0,25,"[0, 29, 12, 17, 25]",5,8,"[1, 2, 3, 8, 13, 16, 19, 23]",120.0551411,5119,755,1,6,8,1.319561617005615
undo,71,19,0,0,1,2,"[0, 29, 12, 17, 25, 2]",6,0,[],50.47066003,6303,1184,1,0,6,1.2120217152259305
undo,71,19,0,1,1,2,"[0, 29, 12, 17, 25, 2]",6,0,[],50.47066003,6931,628,1,0,6,1.2120217152259305
undo,72,38,0,0,0,0,[0],1,29,"[1, 2, 3, 4, 5, 6, 7, 8, 9, 10, 11, 12, 13, 14, 15, 16, 17, 18, 19, 20, 21, 22, 23, 24, 25, 26, 27, 28, 29]",300,132,-1,33,506,9,0.0
undo,72,38,0,0,0,19,"[0, 19]",2,23,"[3, 4, 5, 6, 7, 8, 9, 11, 13, 14, 15, 16, 17, 18, 20, 22, 23, 24, 25, 26, 27, 28, 29]",219.5015528,2114,1982,6,61,9,1.0
undo,72,38,0,0,0,17,"[0, 19, 17]",3,21,"[3, 4, 5, 6, 7, 9, 11, 13, 14, 15, 16, 18, 20, 22, 23, 24, 25, 26, 27, 28, 29]",198.1239945,2686,572,6,53,9,1.571793785769489
undo,72,38,0,0,0,20,"[0, 19, 17, 20]",4,17,"[3, 4, 5, 6, 7, 11, 13, 14, 15, 16, 18, 22, 24, 25, 26, 27, 28]",174.3542658,3457,771,6,44,9,2.333182710277297
undo,72,38,0,0,0,13,"[0, 19, 17, 20, 13]",5,9,"[4, 11, 15, 16, 18, 24, 26, 27, 28]",125.0998244,6981,3524,1,11,9,1.7893595974504246
undo,72,38,0,0,0,4,"[0, 19, 17, 20, 13, 4]",6,6,"[11, 15, 16, 24, 26, 28]",93.69918748,8030,1049,1,6,9,2.942354535547757
undo,72,38,0,0,0,15,"[0, 19, 17, 20, 13, 4, 15]",7,4,"[11, 16, 26, 28]",67.69918748,8888,858,1,3,9,3.165907365359093
undo,72,38,0,0,0,11,"[0, 19, 17, 20, 13, 4, 15, 11]",8,1,[28],31.29863803,9843,955,1,0,9,3.362710012119994
undo,72,38,0,0,1,28,"[0, 19, 17, 20, 13, 4, 15, 11, 28]",9,0,[],4.280125857,10686,843,1,0,9,2.7690631991189285
undo,72,38,0,1,1,28,"[0, 19, 17, 20, 13, 4, 15, 11, 28]",9,0,[],4.280125857,11332,646,1,0,9,2.7690631991189285
undo,73,20,0,0,0,0,[0],1,21,"[1, 2, 3, 4, 5, 6, 7, 8, 9, 12, 17, 18, 20, 21, 22, 23, 25, 26, 27, 28, 29]",300,130,-1,1,9,9,0.0
undo,73,20,0,0,0,12,"[0, 12]",2,20,"[1, 2, 3, 4, 5, 6, 7, 8, 9, 17, 18, 20, 21, 22, 23, 25, 26, 27, 28, 29]",271.5570747,2618,2488,1,8,9,1.0
undo,73,20,0,0,0,1,"[0, 12, 1]",3,12,"[3, 4, 5, 6, 8, 9, 20, 21, 23, 27, 28, 29]",189.5692707,4169,1551,1,6,9,1.0757997779162911
undo,73,20,0,0,0,5,"[0, 12, 1, 5]",4,10,"[4, 6, 8, 9, 20, 21, 23, 27, 28, 29]",152.8950291,4950,781,1,5,9,1.1708231454516806
undo,73,20,0,0,0,21,"[0, 12, 1, 5, 21]",5,8,"[4, 6, 8, 9, 20, 23, 27, 28]",107.8950291,6038,1088,1,4,9,1.126197336199212
undo,73,20,0,0,0,8,"[0, 12, 1, 5, 21, 8]",6,5,"[6, 9, 23, 27, 28]",90.43077988,6674,636,1,3,9,1.140007470699913
undo,73,20,0,0,0,23,"[0, 12, 1, 5, 21, 8, 23]",7,2,"[6, 9]",45.74297394,7454,780,1,1,9,1.1162257896627588
undo,73,20,0,0,0,9,"[0, 12, 1, 5, 21, 8, 23, 9]",8,1,[6],26.53360123,8320,866,1,0,9,1.1086880559449597
undo,73,20,0,0,1,6,"[0, 12, 1, 5, 21, 8, 23, 9, 6]",9,0,[],3.511872362,9052,732,1,0,9,1.1186240265999328
undo,73,20,0,1,1,6,"[0, 12, 1, 5, 21, 8, 23, 9, 6]",9,0,[],3.511872362,9947,895,1,0,9,1.1186240265999328
undo,74,2,0,0,0,0,[0],1,23,"[1, 2, 4, 5, 6, 7, 8, 9, 12, 13, 15, 16, 17, 18, 19, 20, 22, 23, 25, 26, 27, 28, 29]",300,131,-1,70,620,10,0.0
undo,74,2,0,0,0,19,"[0, 19]",2,22,"[1, 2, 4, 5, 6, 7, 8, 9, 12, 13, 15, 16, 17, 18, 20, 22, 23, 25, 26, 27, 28, 29]",210.306076,1935,1804,67,431,10,1.0
undo,74,2,0,0,0,12,"[0, 19, 12]",3,17,"[1, 4, 5, 6, 7, 13, 15, 16, 17, 18, 20, 22, 25, 26, 27, 28, 29]",174.2921898,2871,936,66,298,10,1.1107635036313153
undo,74,2,0,0,0,5,"[0, 19, 12, 5]",4,11,"[1, 6, 7, 13, 15, 16, 18, 22, 25, 26, 29]",144.7625437,3571,700,38,136,10,1.0968174771581647
undo,74,2,0,0,0,22,"[0, 19, 12, 5, 22]",5,8,"[1, 6, 7, 13, 15, 18, 26, 29]",131.9562952,4185,614,20,63,10,1.0889910507461968
undo,74,2,0,0,0,13,"[0, 19, 12, 5, 22, 13]",6,7,"[1, 6, 7, 15, 18, 26, 29]",117.0902265,4771,586,19,20,10,1.236526217328057
undo,74,2,0,0,0,18,"[0, 19, 12, 5, 22, 13, 18]",7,4,"[7, 15, 26, 29]",81.91921567,5956,1185,10,3,10,1.2128708213409936
undo,74,2,0,0,0,7,"[0, 19, 12, 5, 22, 13, 18, 7]",8,3,"[15, 26, 29]",71.62358553,6681,725,5,0,10,1.2019811287894737
undo,74,2,0,0,0,26,"[0, 19, 12, 5, 22, 13, 18, 7, 26]",9,2,"[15, 29]",48.82007703,7485,804,2,0,10,1.1883593342191134
undo,74,2,0,0,1,15,"[0, 19, 12, 5, 22, 13, 18, 7, 26, 15]",10,0,[],24.61264015,8620,1135,1,0,10,1.4619750353663825
undo,74,2,0,1,1,15,"[0, 19, 12, 5, 22, 13, 18, 7, 26, 15]",10,0,[],24.61264015,9948,1328,1,0,10,1.4619750353663825
undo,75,24,0,0,0,0,[0],1,29,"[1, 2, 3, 4, 5, 6, 7, 8, 9, 10, 11, 12, 13, 14, 15, 16, 17, 18, 19, 20, 21, 22, 23, 24, 25, 26, 27, 28, 29]",300,133,-1,4,76,10,0.0
undo,75,24,0,0,0,14,"[0, 14]",2,27,"[1, 2, 3, 4, 5, 6, 8, 9, 10, 11, 12, 13, 15, 16, 17, 18, 19, 20, 21, 22, 23, 24, 25, 26, 27, 28, 29]",278.0455016,2585,2452,4,54,10,1.0
undo,75,24,0,0,0,16,"[0, 14, 16]",3,25,"[2, 3, 4, 5, 6, 8, 9, 10, 11, 12, 13, 15, 17, 18, 19, 20, 21, 22, 23, 24, 25, 26, 27, 28, 29]",188.9949542,5190,2605,4,31,10,1.238291113657358
undo,75,24,0,0,0,8,"[0, 14, 16, 8]",4,17,"[2, 3, 4, 6, 9, 10, 11, 13, 15, 20, 22, 23, 24, 26, 27, 28, 29]",159.9949542,6552,1362,2,13,10,1.2714603293172921
undo,75,24,0,0,0,22,"[0, 14, 16, 8, 22]",5,13,"[3, 4, 6, 9, 10, 11, 15, 23, 24, 26, 27, 28, 29]",146.5785463,7346,794,2,10,10,1.4558841300797367
undo,75,24,0,0,0,15,"[0, 14, 16, 8, 22, 15]",6,11,"[3, 4, 6, 9, 10, 11, 23, 26, 27, 28, 29]",125.3653429,8260,914,2,8,10,1.459909027032803
undo,75,24,0,0,0,28,"[0, 14, 16, 8, 22, 15, 28]",7,5,"[4, 9, 11, 23, 27]",80.08841717,9270,1010,2,5,10,1.3358430839259279
undo,75,24,0,0,0,23,"[0, 14, 16, 8, 22, 15, 28, 23]",8,3,"[9, 11, 27]",61.06211957,9844,574,2,2,10,1.3561794364003306
undo,75,24,0,0,0,11,"[0, 14, 16, 8, 22, 15, 28, 23, 11]",9,2,"[9, 27]",34.13629554,10814,970,2,0,10,1.323606251450204
undo,75,24,0,0,1,27,"[0, 14, 16, 8, 22, 15, 28, 23, 11, 27]",10,0,[],6.33341799,11807,993,1,0,10,1.2857748381905127
undo,75,24,0,1,1,27,"[0, 14, 16, 8, 22, 15, 28, 23, 11, 27]",10,0,[],6.33341799,12801,994,1,0,10,1.2857748381905127
undo,76,13,0,0,0,0,[0],1,29,"[1, 2, 3, 4, 5, 6, 7, 8, 9, 10, 11, 12, 13, 14, 15, 16, 17, 18, 19, 20, 21, 22, 23, 24, 25, 26, 27, 28, 29]",300,130,-1,60,2676,11,0.0
undo,76,13,0,0,0,24,"[0, 24]",2,28,"[1, 2, 3, 4, 5, 6, 7, 8, 9, 10, 11, 12, 13, 14, 15, 16, 17, 18, 19, 20, 21, 22, 23, 25, 26, 27, 28, 29]",288.8196601,2129,1999,16,1444,11,1.0
undo,76,13,0,0,0,23,"[0, 24, 23]",3,27,"[1, 2, 3, 4, 5, 6, 7, 8, 9, 10, 11, 12, 13, 14, 15, 16, 17, 18, 19, 20, 21, 22, 25, 26, 27, 28, 29]",243.1140806,4634,2505,2,868,11,1.0065545717039834
undo,76,13,0,0,0,28,"[0, 24, 23, 28]",4,21,"[1, 2, 3, 4, 6, 7, 9, 10, 11, 12, 13, 15, 16, 17, 19, 20, 21, 22, 26, 27, 29]",177.7458926,7002,2368,1,253,11,1.6592183354372274
undo,76,13,0,0,0,2,"[0, 24, 23, 28, 2]",5,15,"[1, 3, 6, 7, 9, 11, 12, 13, 15, 16, 17, 19, 21, 26, 29]",140.1028322,8196,1194,1,80,11,1.459046951791535
undo,76,13,0,0,0,29,"[0, 24, 23, 28, 2, 29]",6,9,"[1, 6, 7, 11, 13, 16, 17, 19, 26]",128.3981322,8768,572,1,31,11,1.5417142413159963
undo,76,13,0,0,0,7,"[0, 24, 23, 28, 2, 29, 7]",7,8,"[1, 6, 11, 13, 16, 17, 19, 26]",113.1337947,9667,899,1,10,11,1.77525557938341
undo,76,13,0,0,0,26,"[0, 24, 23, 28, 2, 29, 7, 26]",8,6,"[1, 6, 11, 13, 16, 19]",102.6934882,10438,771,1,4,11,2.0623372568692724
