condition,trial_id,map_id,undoIndicator,submit,checkEnd,currentChoice,chosen_all,n_city_all,n_within_reach,cities_reach,currentBudget,time_all,rt_all,n_opt_paths_all,n_subopt_paths_all,mas_all,tortuosity_all
basic,0,22,0,0,0,0,[0],1,29,"[1, 2, 3, 4, 5, 6, 7, 8, 9, 10, 11, 12, 13, 14, 15, 16, 17, 18, 19, 20, 21, 22, 23, 24, 25, 26, 27, 28, 29]",300,116,-1,31,704,9,0.0
basic,0,22,0,0,0,16,"[0, 16]",2,21,"[1, 3, 6, 7, 8, 9, 11, 13, 14, 15, 17, 18, 19, 20, 21, 22, 24, 25, 27, 28, 29]",218.605897,2993,2877,17,147,9,1.0
basic,0,22,0,0,0,28,"[0, 16, 28]",3,13,"[6, 7, 9, 13, 14, 17, 19, 20, 21, 22, 24, 25, 29]",184.1675463,3977,984,12,61,9,1.047282311284478
basic,0,22,0,0,0,6,"[0, 16, 28, 6]",4,12,"[7, 9, 13, 14, 17, 19, 20, 21, 22, 24, 25, 29]",154.1675463,5735,1758,12,43,9,1.645645870580622
basic,0,22,0,0,0,9,"[0, 16, 28, 6, 9]",5,8,"[7, 14, 17, 19, 20, 21, 24, 29]",127.5404924,6686,951,8,17,9,1.925750226630103
basic,0,22,0,0,0,19,"[0, 16, 28, 6, 9, 19]",6,6,"[7, 14, 17, 21, 24, 29]",107.1444143,7682,996,3,7,9,2.4220750331476455
basic,0,22,0,0,0,14,"[0, 16, 28, 6, 9, 19, 14]",7,2,"[7, 17]",56.81549621,10381,2699,1,1,9,1.8772710320660593
basic,0,22,0,0,0,7,"[0, 16, 28, 6, 9, 19, 14, 7]",8,1,[17],43.7770914,11045,664,1,0,9,2.0373042896202382
basic,0,22,0,0,1,17,"[0, 16, 28, 6, 9, 19, 14, 7, 17]",9,0,[],2.159787306,12430,1385,1,0,9,1.884724928206684
basic,0,22,0,1,1,17,"[0, 16, 28, 6, 9, 19, 14, 7, 17]",9,0,[],2.159787306,13574,1144,1,0,9,1.884724928206684
basic,1,39,0,0,0,0,[0],1,28,"[1, 2, 3, 4, 5, 6, 7, 9, 10, 11, 12, 13, 14, 15, 16, 17, 18, 19, 20, 21, 22, 23, 24, 25, 26, 27, 28, 29]",300,157,-1,1,30,10,0.0
basic,1,39,0,0,0,29,"[0, 29]",2,26,"[1, 2, 3, 4, 5, 6, 7, 9, 10, 12, 13, 14, 15, 16, 17, 18, 19, 20, 21, 22, 23, 24, 25, 26, 27, 28]",243.0614366,4564,4407,8,104,9,1.0
basic,1,39,0,0,0,12,"[0, 29, 12]",3,18,"[1, 2, 4, 5, 7, 9, 10, 13, 14, 15, 16, 18, 19, 22, 23, 24, 26, 28]",182.5221931,5932,1368,5,54,9,1.0026200331524904
basic,1,39,0,0,0,10,"[0, 29, 12, 10]",4,16,"[1, 2, 4, 5, 7, 9, 13, 14, 15, 16, 18, 19, 22, 23, 24, 26]",147.0116313,7158,1226,5,34,9,1.2874817019928908
basic,1,39,0,0,0,7,"[0, 29, 12, 10, 7]",5,10,"[1, 2, 5, 13, 16, 18, 19, 22, 24, 26]",113.5900814,8805,1647,4,12,9,1.2250826263866774
basic,1,39,0,0,0,26,"[0, 29, 12, 10, 7, 26]",6,5,"[1, 16, 18, 19, 22]",94.90853971,9577,772,3,4,9,1.2697275353190085
basic,1,39,0,0,0,22,"[0, 29, 12, 10, 7, 26, 22]",7,2,"[16, 19]",77.18849457,10285,708,2,0,9,1.438961743955176
basic,1,39,0,0,0,16,"[0, 29, 12, 10, 7, 26, 22, 16]",8,1,[19],42.18849457,11369,1084,1,0,9,1.3580882130477205
basic,1,39,0,0,1,19,"[0, 29, 12, 10, 7, 26, 22, 16, 19]",9,0,[],24.72424537,12102,733,1,0,9,1.3646589157842668
basic,1,39,0,1,1,19,"[0, 29, 12, 10, 7, 26, 22, 16, 19]",9,0,[],24.72424537,14315,2213,1,0,9,1.3646589157842668
basic,2,35,0,0,0,0,[0],1,29,"[1, 2, 3, 4, 5, 6, 7, 8, 9, 10, 11, 12, 13, 14, 15, 16, 17, 18, 19, 20, 21, 22, 23, 24, 25, 26, 27, 28, 29]",300,123,-1,5,236,11,0.0
basic,2,35,0,0,0,27,"[0, 27]",2,27,"[1, 2, 4, 5, 6, 7, 8, 9, 10, 11, 12, 13, 14, 15, 16, 17, 18, 19, 20, 21, 22, 23, 24, 25, 26, 28, 29]",278.7867966,4089,3966,5,144,11,1.0
basic,2,35,0,0,0,24,"[0, 27, 24]",3,25,"[1, 2, 4, 5, 6, 7, 8, 9, 10, 11, 12, 13, 15, 16, 17, 18, 19, 20, 21, 22, 23, 25, 26, 28, 29]",234.6053525,5209,1120,3,80,11,2.1084080567904624
basic,2,35,0,0,0,17,"[0, 27, 24, 17]",4,20,"[1, 2, 4, 5, 6, 7, 8, 9, 10, 15, 16, 18, 19, 20, 21, 23, 25, 26, 28, 29]",222.9006526,5876,667,3,50,11,1.9439555968916868
basic,2,35,0,0,0,1,"[0, 27, 24, 17, 1]",5,18,"[2, 4, 5, 6, 8, 9, 10, 15, 16, 18, 19, 20, 21, 23, 25, 26, 28, 29]",207.0892643,6926,1050,3,39,11,1.9436711872547336
basic,2,35,0,0,0,15,"[0, 27, 24, 17, 1, 15]",6,16,"[2, 4, 5, 6, 8, 9, 10, 16, 18, 19, 20, 23, 25, 26, 28, 29]",184.241945,7717,791,3,24,11,2.082774572108194
basic,2,35,0,0,0,5,"[0, 27, 24, 17, 1, 15, 5]",7,9,"[4, 6, 9, 18, 20, 23, 25, 26, 29]",127.9214336,9188,1471,5,10,10,1.5417716194695787
basic,2,35,0,0,0,23,"[0, 27, 24, 17, 1, 15, 5, 23]",8,4,"[6, 9, 18, 25]",73.46962004,10376,1188,5,1,10,2.1306414861907443
basic,2,35,0,0,0,9,"[0, 27, 24, 17, 1, 15, 5, 23, 9]",9,1,[18],35.8265596,11451,1075,1,0,10,2.349996196791077
basic,2,35,0,0,1,18,"[0, 27, 24, 17, 1, 15, 5, 23, 9, 18]",10,0,[],15.8015752,12560,1109,1,0,10,2.2094041044965294
basic,2,35,0,1,1,18,"[0, 27, 24, 17, 1, 15, 5, 23, 9, 18]",10,0,[],15.8015752,14890,2330,1,0,10,2.2094041044965294
basic,3,11,0,0,0,0,[0],1,25,"[1, 2, 3, 4, 5, 6, 8, 9, 10, 11, 12, 13, 14, 15, 16, 17, 18, 19, 20, 22, 23, 25, 26, 27, 28]",300,163,-1,6,374,12,0.0
basic,3,11,0,0,0,18,"[0, 18]",2,21,"[1, 2, 4, 5, 6, 8, 9, 11, 12, 13, 14, 15, 16, 17, 19, 20, 22, 23, 25, 27, 28]",236.8493864,4867,4704,157,1477,11,1.0
basic,3,11,0,0,0,27,"[0, 18, 27]",3,19,"[1, 2, 4, 5, 6, 8, 9, 11, 12, 14, 15, 16, 17, 19, 20, 22, 23, 25, 28]",212.9956655,6417,1550,157,1315,11,1.060949579704323
basic,3,11,0,0,0,8,"[0, 18, 27, 8]",4,14,"[1, 2, 4, 5, 6, 11, 12, 15, 17, 19, 22, 23, 25, 28]",142.7817068,8042,1625,68,433,11,1.0827202875589923
basic,3,11,0,0,0,17,"[0, 18, 27, 8, 17]",5,13,"[1, 2, 4, 5, 6, 11, 12, 15, 19, 22, 23, 25, 28]",128.4638857,8883,841,42,137,11,1.1662918234607762
basic,3,11,0,0,0,15,"[0, 18, 27, 8, 17, 15]",6,9,"[2, 5, 6, 11, 12, 19, 22, 25, 28]",115.8147751,9729,846,38,57,11,1.1741312027420885
basic,3,11,0,0,0,11,"[0, 18, 27, 8, 17, 15, 11]",7,7,"[2, 5, 6, 12, 19, 22, 28]",97.70400479,10986,1257,24,0,11,1.1668679039564056
basic,3,11,0,0,0,28,"[0, 18, 27, 8, 17, 15, 11, 28]",8,4,"[2, 5, 19, 22]",78.28751696,15661,4675,6,0,11,1.2830334294205898
basic,3,11,0,0,0,2,"[0, 18, 27, 8, 17, 15, 11, 28, 2]",9,2,"[5, 22]",67.65737114,17341,1680,2,0,11,1.3017261967352185
basic,3,11,0,0,0,22,"[0, 18, 27, 8, 17, 15, 11, 28, 2, 22]",10,1,[5],57.60749552,30417,13076,1,0,11,1.2856712331893108
basic,3,11,0,0,1,5,"[0, 18, 27, 8, 17, 15, 11, 28, 2, 22, 5]",11,0,[],31.03683501,31859,1442,1,0,11,1.653194834588669
basic,3,11,0,1,1,5,"[0, 18, 27, 8, 17, 15, 11, 28, 2, 22, 5]",11,0,[],31.03683501,34122,2263,1,0,11,1.653194834588669
basic,4,45,0,0,0,0,[0],1,24,"[1, 2, 3, 4, 5, 6, 7, 9, 10, 11, 12, 14, 15, 16, 17, 19, 20, 21, 22, 23, 24, 25, 27, 29]",300,121,-1,6,248,10,0.0
basic,4,45,0,0,0,17,"[0, 17]",2,22,"[1, 2, 3, 4, 5, 6, 7, 9, 10, 11, 12, 14, 15, 16, 19, 20, 21, 22, 23, 24, 25, 29]",235.867325,4033,3912,1,34,10,1.0
basic,4,45,0,0,0,24,"[0, 17, 24]",3,20,"[1, 2, 3, 4, 5, 6, 7, 9, 10, 11, 12, 14, 15, 16, 19, 20, 21, 22, 23, 29]",193.8078433,6399,2366,1,33,10,1.0309432256229287
basic,4,45,0,0,0,7,"[0, 17, 24, 7]",4,18,"[1, 2, 3, 4, 5, 6, 9, 10, 12, 14, 15, 16, 19, 20, 21, 22, 23, 29]",159.3985423,8168,1769,1,32,10,1.059763151913087
basic,4,45,0,0,0,2,"[0, 17, 24, 7, 2]",5,12,"[3, 4, 6, 10, 12, 14, 16, 19, 20, 22, 23, 29]",121.3853866,9066,898,1,23,10,1.0656581932115423
basic,4,45,0,0,0,3,"[0, 17, 24, 7, 2, 3]",6,8,"[6, 10, 12, 14, 16, 20, 22, 29]",96.06740884,10208,1142,1,13,10,1.1368250049574795
basic,4,45,0,0,0,29,"[0, 17, 24, 7, 2, 3, 29]",7,5,"[6, 10, 12, 20, 22]",76.06740884,10987,779,1,5,10,1.390376182346372
basic,4,45,0,0,0,10,"[0, 17, 24, 7, 2, 3, 29, 10]",8,2,"[6, 12]",54.52674961,11757,770,1,1,10,1.6682270697663164
basic,4,45,0,0,0,6,"[0, 17, 24, 7, 2, 3, 29, 10, 6]",9,1,[12],28.27794012,12652,895,1,0,10,1.5776211572942243
basic,4,45,0,0,1,12,"[0, 17, 24, 7, 2, 3, 29, 10, 6, 12]",10,0,[],8.15332832,13879,1227,1,0,10,1.536035114105263
basic,4,45,0,1,1,12,"[0, 17, 24, 7, 2, 3, 29, 10, 6, 12]",10,0,[],8.15332832,15763,1884,1,0,10,1.536035114105263
basic,5,41,0,0,0,0,[0],1,29,"[1, 2, 3, 4, 5, 6, 7, 8, 9, 10, 11, 12, 13, 14, 15, 16, 17, 18, 19, 20, 21, 22, 23, 24, 25, 26, 27, 28, 29]",300,124,-1,1,143,10,0.0
basic,5,41,0,0,0,13,"[0, 13]",2,23,"[1, 2, 3, 5, 6, 7, 9, 10, 11, 12, 14, 15, 17, 18, 19, 20, 21, 22, 24, 25, 26, 27, 28]",258.2747079,3419,3295,1,55,10,1.0
basic,5,41,0,0,0,28,"[0, 13, 28]",3,22,"[1, 2, 3, 5, 6, 7, 9, 10, 11, 12, 14, 15, 17, 18, 19, 20, 21, 22, 24, 25, 26, 27]",223.7928286,5926,2507,1,39,10,1.895724242592676
basic,5,41,0,0,0,5,"[0, 13, 28, 5]",4,19,"[1, 2, 3, 6, 9, 10, 11, 12, 14, 15, 17, 18, 19, 20, 21, 22, 24, 25, 27]",210.1913581,10818,4892,1,34,10,2.861541269398273
basic,5,41,0,0,0,22,"[0, 13, 28, 5, 22]",5,12,"[2, 3, 6, 9, 10, 11, 12, 17, 18, 20, 21, 25]",155.4464953,11922,1104,11,12,9,2.096079268852861
basic,5,41,0,0,0,3,"[0, 13, 28, 5, 22, 3]",6,8,"[2, 9, 10, 12, 17, 18, 20, 21]",125.4798472,12893,971,7,5,9,4.404491319005463
basic,5,41,0,0,0,21,"[0, 13, 28, 5, 22, 3, 21]",7,4,"[2, 9, 12, 17]",93.33952984,14478,1585,5,1,9,4.228139797553632
basic,5,41,0,0,0,9,"[0, 13, 28, 5, 22, 3, 21, 9]",8,2,"[2, 17]",43.97354965,15743,1265,2,0,9,3.111188754077749
basic,5,41,0,0,1,17,"[0, 13, 28, 5, 22, 3, 21, 9, 17]",9,0,[],12.95742481,17852,2109,1,0,9,4.528364232383654
basic,5,41,0,1,1,17,"[0, 13, 28, 5, 22, 3, 21, 9, 17]",9,0,[],12.95742481,20215,2363,1,0,9,4.528364232383654
basic,6,14,0,0,0,0,[0],1,29,"[1, 2, 3, 4, 5, 6, 7, 8, 9, 10, 11, 12, 13, 14, 15, 16, 17, 18, 19, 20, 21, 22, 23, 24, 25, 26, 27, 28, 29]",300,114,-1,8,157,10,0.0
basic,6,14,0,0,0,15,"[0, 15]",2,20,"[1, 2, 3, 4, 7, 8, 9, 13, 17, 18, 19, 20, 21, 22, 23, 25, 26, 27, 28, 29]",216.7053423,3304,3190,8,102,10,1.0
basic,6,14,0,0,0,28,"[0, 15, 28]",3,17,"[1, 2, 3, 4, 7, 8, 9, 13, 17, 18, 19, 20, 22, 23, 25, 26, 27]",197.4959696,4043,739,8,48,10,1.0446007867311968
basic,6,14,0,0,0,17,"[0, 15, 28, 17]",4,14,"[1, 2, 3, 4, 7, 8, 13, 18, 19, 20, 22, 23, 25, 26]",184.0423455,4727,684,8,39,10,1.0729463354689972
basic,6,14,0,0,0,18,"[0, 15, 28, 17, 18]",5,9,"[1, 2, 4, 7, 8, 19, 23, 25, 26]",119.412631,5838,1111,8,27,10,1.5035901079219378
basic,6,14,0,0,0,8,"[0, 15, 28, 17, 18, 8]",6,8,"[1, 2, 4, 7, 19, 23, 25, 26]",105.8111605,6426,588,8,18,10,1.4819689987843856
basic,6,14,0,0,0,19,"[0, 15, 28, 17, 18, 8, 19]",7,5,"[1, 7, 23, 25, 26]",85.19563238,8600,2174,4,9,10,1.4526746797093781
basic,6,14,0,0,0,1,"[0, 15, 28, 17, 18, 8, 19, 1]",8,4,"[7, 23, 25, 26]",69.96408617,9328,728,3,1,10,1.4876985459270997
basic,6,14,0,0,0,23,"[0, 15, 28, 17, 18, 8, 19, 1, 23]",9,1,[26],21.96408617,10770,1442,1,0,10,1.4791446279021185
basic,6,14,0,1,0,23,"[0, 15, 28, 17, 18, 8, 19, 1, 23]",9,1,[26],21.96408617,12973,2203,1,0,10,1.4791446279021185
basic,7,18,0,0,0,0,[0],1,28,"[1, 2, 3, 4, 5, 6, 7, 8, 9, 10, 11, 12, 13, 14, 16, 17, 18, 19, 20, 21, 22, 23, 24, 25, 26, 27, 28, 29]",300,114,-1,3,136,10,0.0
basic,7,18,0,0,0,28,"[0, 28]",2,16,"[1, 3, 5, 7, 8, 9, 12, 13, 14, 16, 20, 23, 24, 25, 26, 27]",236.4311397,2144,2030,2,19,10,1.0
basic,7,18,0,0,0,7,"[0, 28, 7]",3,15,"[1, 3, 5, 8, 9, 12, 13, 14, 16, 20, 23, 24, 25, 26, 27]",214.4084242,4242,2098,2,17,10,1.4345180696367563
basic,7,18,0,0,0,25,"[0, 28, 7, 25]",4,13,"[1, 3, 5, 8, 9, 12, 13, 14, 16, 20, 23, 26, 27]",186.6055466,4933,691,2,15,10,1.8896451241781882
basic,7,18,0,0,0,13,"[0, 28, 7, 25, 13]",5,10,"[3, 5, 8, 9, 12, 14, 16, 23, 26, 27]",141.3286209,5776,843,5,21,9,1.6878978848273398
basic,7,18,0,0,0,8,"[0, 28, 7, 25, 13, 8]",6,8,"[3, 5, 9, 12, 14, 23, 26, 27]",120.2335978,7225,1449,2,9,9,1.900402263134541
basic,7,18,0,0,0,14,"[0, 28, 7, 25, 13, 8, 14]",7,4,"[3, 5, 12, 27]",86.63300257,8427,1202,4,0,8,1.903166929752216
basic,7,18,0,0,1,3,"[0, 28, 7, 25, 13, 8, 14, 3]",8,0,[],56.54978466,9935,1508,1,0,8,1.9893548054599768
basic,7,18,0,1,1,3,"[0, 28, 7, 25, 13, 8, 14, 3]",8,0,[],56.54978466,12664,2729,1,0,8,1.9893548054599768
basic,8,42,0,0,0,0,[0],1,29,"[1, 2, 3, 4, 5, 6, 7, 8, 9, 10, 11, 12, 13, 14, 15, 16, 17, 18, 19, 20, 21, 22, 23, 24, 25, 26, 27, 28, 29]",300,115,-1,16,302,9,0.0
basic,8,42,0,0,0,5,"[0, 5]",2,28,"[1, 2, 3, 4, 6, 7, 8, 9, 10, 11, 12, 13, 14, 15, 16, 17, 18, 19, 20, 21, 22, 23, 24, 25, 26, 27, 28, 29]",191.2939744,8439,8324,1,22,9,1.0
basic,8,42,0,0,0,4,"[0, 5, 4]",3,23,"[1, 2, 3, 6, 7, 8, 9, 10, 11, 13, 15, 17, 18, 19, 20, 21, 22, 23, 24, 25, 26, 27, 29]",171.4445412,9735,1296,1,14,9,1.420957801478707
basic,8,42,0,0,0,22,"[0, 5, 4, 22]",4,20,"[1, 2, 3, 6, 7, 8, 9, 11, 15, 17, 18, 19, 20, 21, 23, 24, 25, 26, 27, 29]",160.2642013,10598,863,1,11,9,1.5771494659680896
basic,8,42,0,0,0,8,"[0, 5, 4, 22, 8]",5,14,"[1, 2, 3, 6, 7, 11, 15, 18, 19, 24, 25, 26, 27, 29]",138.1282577,11477,879,1,10,9,1.5055393955524201
basic,8,42,0,0,0,1,"[0, 5, 4, 22, 8, 1]",6,5,"[2, 7, 19, 26, 27]",89.03650682,12827,1350,1,7,9,1.3547259083637835
basic,8,42,0,0,0,7,"[0, 5, 4, 22, 8, 1, 7]",7,4,"[2, 19, 26, 27]",59.03650682,15578,2751,1,3,9,1.3909715672447451
basic,8,42,0,0,1,2,"[0, 5, 4, 22, 8, 1, 7, 2]",8,0,[],19.81916372,17593,2015,1,0,8,1.4622930129805476
basic,8,42,0,1,1,2,"[0, 5, 4, 22, 8, 1, 7, 2]",8,0,[],19.81916372,19398,1805,1,0,8,1.4622930129805476
basic,9,10,0,0,0,0,[0],1,29,"[1, 2, 3, 4, 5, 6, 7, 8, 9, 10, 11, 12, 13, 14, 15, 16, 17, 18, 19, 20, 21, 22, 23, 24, 25, 26, 27, 28, 29]",300,123,-1,1,100,9,0.0
basic,9,10,0,0,0,13,"[0, 13]",2,25,"[1, 2, 3, 4, 6, 7, 8, 9, 10, 11, 12, 14, 17, 18, 19, 20, 21, 22, 23, 24, 25, 26, 27, 28, 29]",249.4628849,3280,3157,1,79,9,1.0
basic,9,10,0,0,0,11,"[0, 13, 11]",3,20,"[1, 2, 3, 6, 7, 8, 9, 10, 12, 14, 18, 19, 20, 21, 22, 24, 26, 27, 28, 29]",206.4512586,4981,1701,1,54,9,1.0313137484914219
basic,9,10,0,0,0,19,"[0, 13, 11, 19]",4,11,"[2, 6, 8, 9, 10, 14, 18, 20, 24, 26, 27]",170.0919407,5993,1012,1,22,9,1.0879446220132545
basic,9,10,0,0,0,2,"[0, 13, 11, 19, 2]",5,4,"[14, 20, 26, 27]",126.1829439,6793,800,1,4,9,1.06474052351343
basic,9,10,0,0,0,14,"[0, 13, 11, 19, 2, 14]",6,3,"[20, 26, 27]",114.0174188,7579,786,1,3,9,1.1628909195912238
basic,9,10,0,0,0,26,"[0, 13, 11, 19, 2, 14, 26]",7,2,"[20, 27]",79.34754716,9167,1588,1,1,9,1.6660727647633602
basic,9,10,0,0,0,20,"[0, 13, 11, 19, 2, 14, 26, 20]",8,1,[27],47.56704999,10200,1033,1,0,9,2.085581809637999
basic,9,10,0,0,1,27,"[0, 13, 11, 19, 2, 14, 26, 20, 27]",9,0,[],2.312215998,12339,2139,1,0,9,1.9116357409137932
basic,9,10,0,1,1,27,"[0, 13, 11, 19, 2, 14, 26, 20, 27]",9,0,[],2.312215998,13256,917,1,0,9,1.9116357409137932
basic,10,25,0,0,0,0,[0],1,28,"[1, 2, 3, 4, 5, 7, 8, 9, 10, 11, 12, 13, 14, 15, 16, 17, 18, 19, 20, 21, 22, 23, 24, 25, 26, 27, 28, 29]",300,115,-1,5,94,10,0.0
basic,10,25,0,0,0,23,"[0, 23]",2,23,"[1, 2, 3, 5, 7, 8, 9, 11, 12, 13, 14, 16, 17, 19, 20, 21, 22, 24, 25, 26, 27, 28, 29]",259.7756293,4422,4307,3,33,10,1.0
basic,10,25,0,0,0,19,"[0, 23, 19]",3,21,"[1, 2, 3, 5, 7, 8, 9, 11, 12, 13, 14, 16, 17, 20, 21, 22, 24, 25, 27, 28, 29]",223.9287326,5818,1396,3,24,10,1.583101227007039
basic,10,25,0,0,0,22,"[0, 23, 19, 22]",4,20,"[1, 2, 3, 5, 7, 8, 9, 11, 12, 13, 14, 16, 17, 20, 21, 24, 25, 27, 28, 29]",194.5178503,7326,1508,5,32,9,1.363360212875645
basic,10,25,0,0,0,7,"[0, 23, 19, 22, 7]",5,8,"[3, 8, 9, 11, 13, 24, 28, 29]",118.8739477,13759,6433,3,14,9,1.5454351313869061
basic,10,25,0,0,0,24,"[0, 23, 19, 22, 7, 24]",6,5,"[3, 8, 9, 13, 28]",94.11511088,14626,867,3,7,9,1.4648998716904187
basic,10,25,0,0,0,9,"[0, 23, 19, 22, 7, 24, 9]",7,4,"[3, 8, 13, 28]",76.0873545,15310,684,3,3,9,1.4343358604163639
basic,10,25,0,0,0,3,"[0, 23, 19, 22, 7, 24, 9, 3]",8,3,"[8, 13, 28]",45.8218626,16359,1049,3,0,9,1.3727931947234675
basic,10,25,0,0,1,28,"[0, 23, 19, 22, 7, 24, 9, 3, 28]",9,0,[],14.51691091,17156,797,1,0,9,1.3192796304633794
basic,10,25,0,1,1,28,"[0, 23, 19, 22, 7, 24, 9, 3, 28]",9,0,[],14.51691091,18473,1317,1,0,9,1.3192796304633794
basic,11,30,0,0,0,0,[0],1,19,"[3, 4, 5, 7, 9, 11, 16, 17, 18, 19, 20, 21, 22, 24, 25, 26, 27, 28, 29]",300,116,-1,5,41,8,0.0
basic,11,30,0,0,0,16,"[0, 16]",2,17,"[3, 5, 7, 9, 11, 17, 18, 19, 20, 21, 22, 24, 25, 26, 27, 28, 29]",219.3774225,9796,9680,5,34,8,1.0
basic,11,30,0,0,0,26,"[0, 16, 26]",3,8,"[9, 11, 17, 20, 22, 25, 27, 28]",176.927452,10736,940,7,3,5,1.3420329969668985
basic,11,30,0,0,0,17,"[0, 16, 26, 17]",4,1,[22],74.96177146,11826,1090,1,0,5,1.193219858893313
basic,11,30,0,0,1,22,"[0, 16, 26, 17, 22]",5,0,[],55.7263874,12689,863,1,0,5,1.223925680162388
basic,11,30,0,1,1,22,"[0, 16, 26, 17, 22]",5,0,[],55.7263874,14374,1685,1,0,5,1.223925680162388
basic,12,26,0,0,0,0,[0],1,29,"[1, 2, 3, 4, 5, 6, 7, 8, 9, 10, 11, 12, 13, 14, 15, 16, 17, 18, 19, 20, 21, 22, 23, 24, 25, 26, 27, 28, 29]",300,116,-1,9,226,9,0.0
basic,12,26,0,0,0,10,"[0, 10]",2,6,"[4, 6, 14, 16, 17, 29]",138.1822012,3328,3212,9,66,7,1.0
basic,12,26,0,0,0,6,"[0, 10, 6]",3,5,"[4, 14, 16, 17, 29]",108.9076389,4415,1087,8,23,7,1.1897813099332413
basic,12,26,0,0,0,14,"[0, 10, 6, 14]",4,4,"[4, 16, 17, 29]",87.88384285,5244,829,4,6,7,1.3162481558218453
basic,12,26,0,0,0,17,"[0, 10, 6, 14, 17]",5,3,"[4, 16, 29]",65.41163779,6172,928,3,1,7,1.6510075497064465
basic,12,26,0,0,0,4,"[0, 10, 6, 14, 17, 4]",6,1,[29],44.31661468,6969,797,1,0,7,2.1095586782058087
basic,12,26,0,0,1,29,"[0, 10, 6, 14, 17, 4, 29]",7,0,[],20.31661468,8327,1358,1,0,7,2.288952413143475
basic,12,26,0,1,1,29,"[0, 10, 6, 14, 17, 4, 29]",7,0,[],20.31661468,10749,2422,1,0,7,2.288952413143475
basic,13,37,0,0,0,0,[0],1,29,"[1, 2, 3, 4, 5, 6, 7, 8, 9, 10, 11, 12, 13, 14, 15, 16, 17, 18, 19, 20, 21, 22, 23, 24, 25, 26, 27, 28, 29]",300,125,-1,6,168,10,0.0
basic,13,37,0,0,0,26,"[0, 26]",2,11,"[1, 2, 4, 15, 18, 19, 20, 21, 22, 25, 29]",124.8971731,5063,4938,1,17,8,1.0
basic,13,37,0,0,0,21,"[0, 26, 21]",3,9,"[1, 2, 4, 15, 18, 19, 20, 22, 29]",95.16503557,6763,1700,1,12,8,1.319868808048901
basic,13,37,0,0,0,15,"[0, 26, 21, 15]",4,5,"[1, 2, 4, 19, 20]",80.16503557,7719,956,1,4,8,1.32114648715454
basic,13,37,0,0,0,20,"[0, 26, 21, 15, 20]",5,4,"[1, 2, 4, 19]",63.16503557,9977,2258,1,2,8,1.5799885746047053
basic,13,37,0,0,0,1,"[0, 26, 21, 15, 20, 1]",6,2,"[2, 4]",28.93055003,11139,1162,1,1,8,1.7121693567301122
basic,13,37,0,0,1,4,"[0, 26, 21, 15, 20, 1, 4]",7,0,[],11.21050489,13868,2729,1,0,7,1.7768044914753582
basic,13,37,0,1,1,4,"[0, 26, 21, 15, 20, 1, 4]",7,0,[],11.21050489,15382,1514,1,0,7,1.7768044914753582
basic,14,8,0,0,0,0,[0],1,29,"[1, 2, 3, 4, 5, 6, 7, 8, 9, 10, 11, 12, 13, 14, 15, 16, 17, 18, 19, 20, 21, 22, 23, 24, 25, 26, 27, 28, 29]",300,124,-1,10,149,9,0.0
basic,14,8,0,0,0,5,"[0, 5]",2,28,"[1, 2, 3, 4, 6, 7, 8, 9, 10, 11, 12, 13, 14, 15, 16, 17, 18, 19, 20, 21, 22, 23, 24, 25, 26, 27, 28, 29]",254.5137383,5155,5031,10,100,9,1.0
basic,14,8,0,0,0,25,"[0, 5, 25]",3,20,"[1, 2, 3, 4, 6, 11, 12, 14, 15, 16, 17, 18, 19, 20, 21, 22, 23, 24, 28, 29]",215.3091468,6302,1147,4,42,9,1.2272747879909065
basic,14,8,0,0,0,1,"[0, 5, 25, 1]",4,17,"[3, 4, 6, 11, 12, 14, 15, 16, 17, 18, 20, 21, 22, 23, 24, 28, 29]",190.3091468,7289,987,3,24,9,1.1770245007593956
basic,14,8,0,0,0,23,"[0, 5, 25, 1, 23]",5,15,"[3, 4, 6, 11, 14, 15, 16, 17, 18, 20, 21, 22, 24, 28, 29]",167.2874179,8684,1395,1,14,9,1.141996583852372
basic,14,8,0,0,0,18,"[0, 5, 25, 1, 23, 18]",6,9,"[3, 4, 11, 14, 15, 16, 17, 24, 28]",125.5261919,10359,1675,1,7,9,1.3199166330970717
basic,14,8,0,0,0,14,"[0, 5, 25, 1, 23, 18, 14]",7,2,"[11, 17]",68.03706246,11521,1162,1,1,9,2.714920831666598
basic,14,8,0,0,0,17,"[0, 5, 25, 1, 23, 18, 14, 17]",8,1,[11],31.02355141,12589,1068,1,0,9,2.462600896722246
basic,14,8,0,0,1,11,"[0, 5, 25, 1, 23, 18, 14, 17, 11]",9,0,[],5.84419479,13623,1034,1,0,9,2.246839316887767
basic,14,8,0,1,1,11,"[0, 5, 25, 1, 23, 18, 14, 17, 11]",9,0,[],5.84419479,14732,1109,1,0,9,2.246839316887767
basic,15,31,0,0,0,0,[0],1,27,"[1, 3, 4, 5, 6, 7, 8, 10, 11, 12, 13, 14, 15, 16, 17, 18, 19, 20, 21, 22, 23, 24, 25, 26, 27, 28, 29]",300,124,-1,2,87,10,0.0
basic,15,31,0,0,0,14,"[0, 14]",2,25,"[1, 3, 5, 6, 7, 8, 10, 11, 12, 13, 15, 16, 17, 18, 19, 20, 21, 22, 23, 24, 25, 26, 27, 28, 29]",263.861378,7209,7085,2,59,10,1.0
basic,15,31,0,0,0,27,"[0, 14, 27]",3,22,"[1, 3, 5, 6, 7, 8, 10, 11, 12, 13, 15, 16, 17, 18, 19, 20, 21, 22, 24, 25, 28, 29]",235.6833724,7894,685,1,39,10,1.5881859159302467
basic,15,31,0,0,0,18,"[0, 14, 27, 18]",4,16,"[1, 5, 6, 7, 8, 11, 12, 13, 16, 17, 19, 20, 22, 25, 28, 29]",193.9580803,9922,2028,2,46,9,1.6470823517665727
basic,15,31,0,0,0,11,"[0, 14, 27, 18, 11]",5,13,"[1, 5, 7, 8, 12, 13, 16, 17, 19, 20, 22, 25, 28]",159.0725532,12521,2599,17,23,8,2.301949504491605
basic,15,31,0,0,0,5,"[0, 14, 27, 18, 11, 5]",6,6,"[8, 16, 17, 20, 25, 28]",115.3918939,21630,9109,4,4,8,2.104351274777972
basic,15,31,0,0,0,28,"[0, 14, 27, 18, 11, 5, 28]",7,3,"[16, 17, 25]",95.16814547,34336,12706,3,0,8,1.9083253030384368
basic,15,31,0,0,1,16,"[0, 14, 27, 18, 11, 5, 28, 16]",8,0,[],61.55267284,35414,1078,1,0,8,1.785383646548052
basic,15,31,0,1,1,16,"[0, 14, 27, 18, 11, 5, 28, 16]",8,0,[],61.55267284,37774,2360,1,0,8,1.785383646548052
basic,16,36,0,0,0,0,[0],1,24,"[2, 4, 5, 6, 7, 8, 9, 10, 12, 13, 14, 15, 16, 17, 18, 19, 20, 22, 23, 25, 26, 27, 28, 29]",300,122,-1,2,200,10,0.0
basic,16,36,0,0,0,12,"[0, 12]",2,23,"[2, 4, 5, 6, 7, 8, 9, 10, 13, 14, 15, 16, 17, 18, 19, 20, 22, 23, 25, 26, 27, 28, 29]",277.7963967,11083,10961,90,804,9,1.0
basic,16,36,0,0,0,9,"[0, 12, 9]",3,14,"[2, 4, 8, 10, 13, 16, 17, 18, 19, 23, 25, 27, 28, 29]",215.4345494,12425,1342,32,191,9,1.224429481246385
basic,16,36,0,0,0,19,"[0, 12, 9, 19]",4,13,"[2, 4, 8, 10, 13, 16, 17, 18, 23, 25, 27, 28, 29]",200.3018034,13519,1094,14,61,9,1.293473472808712
basic,16,36,0,0,0,2,"[0, 12, 9, 19, 2]",5,11,"[4, 8, 10, 13, 16, 17, 18, 23, 25, 27, 29]",163.180381,14453,934,2,17,9,1.2115523850119965
basic,16,36,0,0,0,25,"[0, 12, 9, 19, 2, 25]",6,9,"[4, 8, 10, 13, 16, 17, 18, 27, 29]",138.180381,17523,3070,1,8,9,1.413393071141534
basic,16,36,0,0,0,13,"[0, 12, 9, 19, 2, 25, 13]",7,5,"[4, 10, 16, 17, 18]",117.5891208,18425,902,1,4,9,1.8597869697411082
basic,16,36,0,0,1,10,"[0, 12, 9, 19, 2, 25, 13, 10]",8,0,[],41.6286047,19517,1092,1,0,8,1.4855310752431334
basic,16,36,0,1,1,10,"[0, 12, 9, 19, 2, 25, 13, 10]",8,0,[],41.6286047,20921,1404,1,0,8,1.4855310752431334
basic,17,23,0,0,0,0,[0],1,28,"[1, 2, 3, 4, 5, 6, 7, 8, 9, 10, 11, 12, 13, 14, 15, 16, 17, 18, 19, 20, 21, 22, 23, 25, 26, 27, 28, 29]",300,139,-1,76,2626,10,0.0
basic,17,23,0,0,0,22,"[0, 22]",2,24,"[1, 2, 3, 5, 6, 7, 8, 9, 10, 11, 12, 13, 14, 15, 17, 18, 19, 20, 21, 23, 25, 26, 27, 29]",210.5013967,3029,2890,15,1362,10,1.0
basic,17,23,0,0,0,13,"[0, 22, 13]",3,14,"[1, 2, 5, 6, 7, 8, 9, 10, 12, 14, 18, 21, 27, 29]",168.3113504,3851,822,14,522,10,1.1898173563652046
basic,17,23,0,0,0,12,"[0, 22, 13, 12]",4,11,"[1, 2, 6, 7, 9, 10, 14, 18, 21, 27, 29]",156.2283045,5005,1154,12,166,10,1.1727968780218219
basic,17,23,0,0,0,27,"[0, 22, 13, 12, 27]",5,6,"[2, 6, 9, 14, 18, 29]",115.4361484,7482,2477,24,10,9,1.2890498546136056
basic,17,23,0,0,0,6,"[0, 22, 13, 12, 27, 6]",6,4,"[2, 9, 14, 29]",87.13420496,8459,977,8,3,9,1.4168087827969746
basic,17,23,0,0,0,2,"[0, 22, 13, 12, 27, 6, 2]",7,3,"[9, 14, 29]",68.69511605,9535,1076,4,1,9,1.6950530812130016
basic,17,23,0,0,0,9,"[0, 22, 13, 12, 27, 6, 2, 9]",8,2,"[14, 29]",55.65671124,10350,815,2,0,9,1.8702358422647571
basic,17,23,0,0,1,14,"[0, 22, 13, 12, 27, 6, 2, 9, 14]",9,0,[],45.21640473,10979,629,1,0,9,1.808386291219993
basic,17,23,0,1,1,14,"[0, 22, 13, 12, 27, 6, 2, 9, 14]",9,0,[],45.21640473,12248,1269,1,0,9,1.808386291219993
basic,18,13,0,0,0,0,[0],1,29,"[1, 2, 3, 4, 5, 6, 7, 8, 9, 10, 11, 12, 13, 14, 15, 16, 17, 18, 19, 20, 21, 22, 23, 24, 25, 26, 27, 28, 29]",300,164,-1,60,2676,11,0.0
basic,18,13,0,0,0,24,"[0, 24]",2,28,"[1, 2, 3, 4, 5, 6, 7, 8, 9, 10, 11, 12, 13, 14, 15, 16, 17, 18, 19, 20, 21, 22, 23, 25, 26, 27, 28, 29]",288.8196601,5833,5669,16,1444,11,1.0
basic,18,13,0,0,0,23,"[0, 24, 23]",3,27,"[1, 2, 3, 4, 5, 6, 7, 8, 9, 10, 11, 12, 13, 14, 15, 16, 17, 18, 19, 20, 21, 22, 25, 26, 27, 28, 29]",243.1140806,6902,1069,2,868,11,1.0065545717039834
basic,18,13,0,0,0,16,"[0, 24, 23, 16]",4,25,"[1, 2, 3, 4, 6, 7, 8, 9, 10, 11, 12, 13, 14, 15, 17, 18, 19, 20, 21, 22, 25, 26, 27, 28, 29]",202.8027918,8382,1480,1,145,11,1.055930143104189
basic,18,13,0,0,0,3,"[0, 24, 23, 16, 3]",5,20,"[2, 4, 6, 7, 8, 9, 10, 11, 13, 14, 15, 18, 20, 21, 22, 25, 26, 27, 28, 29]",174.3598665,10197,1815,3,44,10,1.233783650807853
basic,18,13,0,0,0,20,"[0, 24, 23, 16, 3, 20]",6,15,"[4, 6, 7, 8, 9, 11, 14, 18, 21, 22, 25, 26, 27, 28, 29]",155.3335689,11371,1174,7,15,9,1.3149320474556456
basic,18,13,0,0,0,4,"[0, 24, 23, 16, 3, 20, 4]",7,5,"[6, 8, 18, 25, 27]",133.3108534,12501,1130,2,4,9,1.2859964130018764
basic,18,13,0,0,0,27,"[0, 24, 23, 16, 3, 20, 4, 27]",8,2,"[8, 18]",111.2881379,14153,1652,2,0,9,1.3345945780156503
basic,18,13,0,0,1,8,"[0, 24, 23, 16, 3, 20, 4, 27, 8]",9,0,[],29.20890784,17055,2902,1,0,9,1.7643079168097482
basic,18,13,0,1,1,8,"[0, 24, 23, 16, 3, 20, 4, 27, 8]",9,0,[],29.20890784,18497,1442,1,0,9,1.7643079168097482
basic,19,33,0,0,0,0,[0],1,23,"[1, 2, 5, 7, 8, 11, 12, 13, 14, 15, 16, 17, 18, 19, 20, 21, 23, 24, 25, 26, 27, 28, 29]",300,115,-1,5,108,9,0.0
basic,19,33,0,0,0,21,"[0, 21]",2,17,"[2, 5, 7, 8, 11, 13, 14, 16, 17, 18, 19, 20, 24, 26, 27, 28, 29]",174.4611614,4027,3912,21,129,8,1.0
basic,19,33,0,0,0,13,"[0, 21, 13]",3,15,"[2, 5, 7, 8, 11, 14, 16, 17, 18, 19, 20, 24, 26, 28, 29]",148.0604038,7184,3157,17,72,8,1.0001005298764474
basic,19,33,0,0,0,17,"[0, 21, 13, 17]",4,10,"[2, 7, 11, 14, 16, 19, 20, 24, 26, 29]",125.2568953,8342,1158,6,21,8,1.0965005103980894
basic,19,33,0,0,0,29,"[0, 21, 13, 17, 29]",5,7,"[7, 11, 14, 19, 20, 24, 26]",73.77874462,10843,2501,5,3,8,1.075477449032161
basic,19,33,0,0,0,26,"[0, 21, 13, 17, 29, 26]",6,2,"[7, 14]",45.88609325,11843,1000,2,0,8,1.1231999599010887
basic,19,33,0,0,0,14,"[0, 21, 13, 17, 29, 26, 14]",7,1,[7],33.23698261,12926,1083,1,0,8,1.2296360569757379
basic,19,33,0,0,1,7,"[0, 21, 13, 17, 29, 26, 14, 7]",8,0,[],18.37091387,14467,1541,1,0,8,1.3215761464415763
basic,19,33,0,1,1,7,"[0, 21, 13, 17, 29, 26, 14, 7]",8,0,[],18.37091387,18014,3547,1,0,8,1.3215761464415763
basic,20,34,0,0,0,0,[0],1,25,"[1, 3, 4, 5, 6, 7, 8, 9, 10, 11, 12, 13, 15, 18, 19, 20, 21, 22, 23, 24, 25, 26, 27, 28, 29]",300,114,-1,12,367,10,0.0
basic,20,34,0,0,0,13,"[0, 13]",2,24,"[1, 3, 4, 5, 6, 7, 8, 9, 10, 11, 12, 15, 18, 19, 20, 21, 22, 23, 24, 25, 26, 27, 28, 29]",279.9750156,2961,2847,12,331,10,1.0
basic,20,34,0,0,0,1,"[0, 13, 1]",3,16,"[3, 5, 7, 8, 9, 10, 11, 12, 19, 21, 22, 23, 24, 25, 27, 29]",211.8574701,4212,1251,3,92,10,1.0010381285747127
basic,20,34,0,0,0,8,"[0, 13, 1, 8]",4,14,"[3, 5, 7, 9, 10, 11, 12, 19, 22, 23, 24, 25, 27, 29]",201.0871405,4890,678,2,54,10,1.1636807
basic,20,34,0,0,0,25,"[0, 13, 1, 8, 25]",5,12,"[3, 5, 7, 9, 10, 11, 12, 22, 23, 24, 27, 29]",183.999133,5501,611,2,28,10,1.1396208815936457
basic,20,34,0,0,0,24,"[0, 13, 1, 8, 25, 24]",6,11,"[3, 5, 7, 9, 10, 11, 12, 22, 23, 27, 29]",166.5062774,6060,559,2,23,10,1.374180768736554
basic,20,34,0,0,0,12,"[0, 13, 1, 8, 25, 24, 12]",7,7,"[7, 9, 10, 11, 22, 23, 27]",115.4670767,7517,1457,1,8,10,1.4994254760835948
basic,20,34,0,0,0,7,"[0, 13, 1, 8, 25, 24, 12, 7]",8,5,"[9, 11, 22, 23, 27]",100.4337804,8320,803,1,4,10,1.758992610425009
basic,20,34,0,0,0,23,"[0, 13, 1, 8, 25, 24, 12, 7, 23]",9,1,[27],72.27352467,9370,1050,1,0,10,2.399781305190153
basic,20,34,0,0,1,27,"[0, 13, 1, 8, 25, 24, 12, 7, 23, 27]",10,0,[],18.60789321,10251,881,1,0,10,4.766619878750327
basic,20,34,0,1,1,27,"[0, 13, 1, 8, 25, 24, 12, 7, 23, 27]",10,0,[],18.60789321,11631,1380,1,0,10,4.766619878750327
basic,21,4,0,0,0,0,[0],1,26,"[3, 4, 5, 6, 7, 8, 10, 11, 12, 13, 14, 15, 16, 17, 18, 19, 20, 21, 22, 23, 24, 25, 26, 27, 28, 29]",300,115,-1,4,489,10,0.0
basic,21,4,0,0,0,28,"[0, 28]",2,21,"[3, 4, 5, 6, 10, 11, 12, 13, 14, 15, 16, 17, 19, 20, 21, 22, 23, 24, 25, 26, 27]",225.9392142,3759,3644,2,216,10,1.0
basic,21,4,0,0,0,14,"[0, 28, 14]",3,13,"[3, 4, 5, 6, 11, 13, 16, 17, 20, 21, 22, 24, 25]",159.6972335,6952,3193,1,26,10,1.0273973946789214
basic,21,4,0,0,0,11,"[0, 28, 14, 11]",4,11,"[3, 4, 5, 6, 13, 16, 17, 20, 21, 22, 25]",125.2153542,12669,5717,1,35,9,1.4224714817533626
basic,21,4,0,0,0,16,"[0, 28, 14, 11, 16]",5,10,"[3, 4, 5, 6, 13, 17, 20, 21, 22, 25]",110.2153542,14889,2220,1,19,9,1.3768063003663824
basic,21,4,0,0,0,17,"[0, 28, 14, 11, 16, 17]",6,6,"[3, 5, 20, 21, 22, 25]",84.13854459,16089,1200,1,6,9,1.3168895434267218
basic,21,4,0,0,0,20,"[0, 28, 14, 11, 16, 17, 20]",7,3,"[5, 21, 22]",43.91417387,17068,979,1,2,9,1.401470096919005
basic,21,4,0,0,1,5,"[0, 28, 14, 11, 16, 17, 20, 5]",8,0,[],13.50036121,24162,7094,1,0,8,1.4511194439131585
basic,21,4,0,1,1,5,"[0, 28, 14, 11, 16, 17, 20, 5]",8,0,[],13.50036121,25215,1053,1,0,8,1.4511194439131585
basic,22,3,0,0,0,0,[0],1,29,"[1, 2, 3, 4, 5, 6, 7, 8, 9, 10, 11, 12, 13, 14, 15, 16, 17, 18, 19, 20, 21, 22, 23, 24, 25, 26, 27, 28, 29]",300,124,-1,34,427,10,0.0
basic,22,3,0,0,0,7,"[0, 7]",2,28,"[1, 2, 3, 4, 5, 6, 8, 9, 10, 11, 12, 13, 14, 15, 16, 17, 18, 19, 20, 21, 22, 23, 24, 25, 26, 27, 28, 29]",278.8103799,4947,4823,24,215,10,1.0
basic,22,3,0,0,0,8,"[0, 7, 8]",3,24,"[1, 2, 3, 4, 5, 6, 10, 11, 12, 13, 14, 15, 16, 17, 18, 19, 20, 21, 22, 24, 25, 26, 27, 28]",222.837172,6379,1432,16,114,10,1.2853332575451413
basic,22,3,0,0,0,24,"[0, 7, 8, 24]",4,21,"[1, 3, 4, 5, 6, 10, 11, 12, 14, 15, 16, 17, 18, 19, 20, 21, 22, 25, 26, 27, 28]",210.671647,7152,773,16,91,10,1.5177505014936548
basic,22,3,0,0,0,17,"[0, 7, 8, 24, 17]",5,9,"[3, 4, 10, 14, 15, 16, 19, 20, 21]",141.3174834,13251,6099,7,26,10,1.5510961300062232
basic,22,3,0,0,0,20,"[0, 7, 8, 24, 17, 20]",6,7,"[3, 4, 10, 14, 16, 19, 21]",128.6683728,14459,1208,7,14,10,1.5133082717474817
basic,22,3,0,0,0,3,"[0, 7, 8, 24, 17, 20, 3]",7,5,"[4, 10, 14, 19, 21]",108.2722947,16135,1676,7,4,10,1.5325960555943097
basic,22,3,0,0,0,19,"[0, 7, 8, 24, 17, 20, 3, 19]",8,3,"[10, 14, 21]",70.93598532,17360,1225,3,1,10,1.5521294182529992
basic,22,3,0,0,0,21,"[0, 7, 8, 24, 17, 20, 3, 19, 21]",9,2,"[10, 14]",58.72942971,19639,2279,2,0,10,1.5690424431931145
basic,22,3,0,0,1,14,"[0, 7, 8, 24, 17, 20, 3, 19, 21, 14]",10,0,[],31.82218161,20579,940,1,0,10,2.0836613372745463
basic,22,3,0,1,1,14,"[0, 7, 8, 24, 17, 20, 3, 19, 21, 14]",10,0,[],31.82218161,22731,2152,1,0,10,2.0836613372745463
undo,23,29,0,0,0,0,[0],1,29,"[1, 2, 3, 4, 5, 6, 7, 8, 9, 10, 11, 12, 13, 14, 15, 16, 17, 18, 19, 20, 21, 22, 23, 24, 25, 26, 27, 28, 29]",300,141,-1,1,78,9,0.0
undo,23,29,0,0,0,25,"[0, 25]",2,18,"[1, 2, 4, 5, 6, 7, 9, 10, 12, 13, 14, 15, 16, 17, 22, 26, 27, 28]",223.3449284,9814,9673,13,101,8,1.0
undo,23,29,0,0,0,1,"[0, 25, 1]",3,15,"[4, 5, 6, 7, 9, 10, 12, 13, 14, 15, 17, 22, 26, 27, 28]",187.8343666,10689,875,11,61,8,1.308415527582314
undo,23,29,0,0,0,14,"[0, 25, 1, 14]",4,12,"[4, 5, 6, 7, 9, 12, 13, 17, 22, 26, 27, 28]",144.8809034,11815,1126,9,32,8,1.7138400796467363
undo,23,29,0,0,0,13,"[0, 25, 1, 14, 13]",5,10,"[4, 5, 6, 7, 9, 12, 17, 22, 27, 28]",126.853147,13385,1570,9,15,8,1.5995815549042065
undo,23,29,0,0,0,5,"[0, 25, 1, 14, 13, 5]",6,7,"[4, 7, 9, 12, 22, 27, 28]",101.1432268,14050,665,7,3,8,1.6003565067425858
undo,23,29,0,0,0,4,"[0, 25, 1, 14, 13, 5, 4]",7,1,[9],49.24910379,15547,1497,1,0,8,1.4264489277507912
undo,23,29,0,0,1,9,"[0, 25, 1, 14, 13, 5, 4, 9]",8,0,[],8.212534734,17677,2130,1,0,8,1.545580717709421
undo,23,29,0,1,1,9,"[0, 25, 1, 14, 13, 5, 4, 9]",8,0,[],8.212534734,19216,1539,1,0,8,1.545580717709421
undo,24,42,0,0,0,0,[0],1,29,"[1, 2, 3, 4, 5, 6, 7, 8, 9, 10, 11, 12, 13, 14, 15, 16, 17, 18, 19, 20, 21, 22, 23, 24, 25, 26, 27, 28, 29]",300,123,-1,16,302,9,0.0
undo,24,42,0,0,0,22,"[0, 22]",2,27,"[1, 2, 3, 4, 5, 6, 7, 8, 9, 10, 11, 12, 13, 15, 16, 17, 18, 19, 20, 21, 23, 24, 25, 26, 27, 28, 29]",211.3997743,4608,4485,5,83,9,1.0
undo,24,42,0,0,0,4,"[0, 22, 4]",3,26,"[1, 2, 3, 5, 6, 7, 8, 9, 10, 11, 12, 13, 15, 16, 17, 18, 19, 20, 21, 23, 24, 25, 26, 27, 28, 29]",200.2194344,5476,868,4,51,9,1.1029012260448476
undo,24,42,0,0,0,8,"[0, 22, 4, 8]",4,21,"[1, 2, 3, 5, 6, 7, 10, 11, 15, 17, 18, 19, 20, 21, 23, 24, 25, 26, 27, 28, 29]",171.0132706,7850,2374,1,27,9,1.1996819201170703
undo,24,42,0,0,0,1,"[0, 22, 4, 8, 1]",5,11,"[2, 5, 7, 10, 15, 18, 19, 24, 26, 27, 28]",121.9215198,9369,1519,1,21,9,1.1435510818127563
undo,24,42,0,0,0,7,"[0, 22, 4, 8, 1, 7]",6,5,"[2, 19, 26, 27, 28]",91.92151981,11121,1752,1,11,9,1.2011414919337324
undo,24,42,0,0,0,26,"[0, 22, 4, 8, 1, 7, 26]",7,3,"[2, 19, 27]",65.3508593,12493,1372,1,2,9,1.1850966702020203
undo,24,42,0,0,0,27,"[0, 22, 4, 8, 1, 7, 26, 27]",8,1,[19],47.32310292,13259,766,1,0,9,1.1849713047461088
undo,24,42,0,0,1,19,"[0, 22, 4, 8, 1, 7, 26, 27, 19]",9,0,[],6.310909614,14467,1208,1,0,9,1.358202404449154
undo,24,42,0,1,1,19,"[0, 22, 4, 8, 1, 7, 26, 27, 19]",9,0,[],6.310909614,15622,1155,1,0,9,1.358202404449154
undo,25,15,0,0,0,0,[0],1,25,"[1, 2, 3, 4, 7, 8, 9, 10, 11, 12, 13, 14, 15, 16, 18, 20, 21, 22, 23, 24, 25, 26, 27, 28, 29]",300,115,-1,4,65,9,0.0
undo,25,15,0,0,0,12,"[0, 12]",2,22,"[1, 2, 3, 4, 7, 8, 9, 10, 11, 13, 14, 15, 16, 18, 21, 22, 23, 24, 26, 27, 28, 29]",213.547701,19175,19060,4,35,9,1.0
undo,25,15,0,0,0,7,"[0, 12, 7]",3,16,"[1, 3, 4, 8, 9, 10, 11, 13, 14, 15, 16, 18, 21, 22, 24, 27]",180.3061607,21001,1826,4,29,9,1.411291635294361
undo,25,15,0,0,0,11,"[0, 12, 7, 11]",4,9,"[3, 4, 13, 14, 15, 16, 21, 22, 27]",138.8212237,21797,796,2,12,9,1.2980572092387541
undo,25,15,0,0,0,3,"[0, 12, 7, 11, 3]",5,7,"[4, 13, 14, 15, 16, 21, 22]",127.4194695,22901,1104,2,7,9,1.3036925309398455
undo,25,15,0,0,0,22,"[0, 12, 7, 11, 3, 22]",6,5,"[4, 13, 14, 15, 16]",77.69020242,24234,1333,2,3,8,1.2885630089059408
undo,25,15,0,0,0,15,"[0, 12, 7, 11, 3, 22, 15]",7,1,[13],52.07770547,38566,14332,1,0,8,1.2624637443080136
undo,25,15,0,0,1,13,"[0, 12, 7, 11, 3, 22, 15, 13]",8,0,[],36.81336795,40351,1785,1,0,8,1.313701762332814
undo,25,15,0,1,1,13,"[0, 12, 7, 11, 3, 22, 15, 13]",8,0,[],36.81336795,42447,2096,1,0,8,1.313701762332814
undo,26,11,0,0,0,0,[0],1,25,"[1, 2, 3, 4, 5, 6, 8, 9, 10, 11, 12, 13, 14, 15, 16, 17, 18, 19, 20, 22, 23, 25, 26, 27, 28]",300,130,-1,6,374,12,0.0
undo,26,11,0,0,0,18,"[0, 18]",2,21,"[1, 2, 4, 5, 6, 8, 9, 11, 12, 13, 14, 15, 16, 17, 19, 20, 22, 23, 25, 27, 28]",236.8493864,3891,3761,157,1477,11,1.0
undo,26,11,0,0,0,27,"[0, 18, 27]",3,19,"[1, 2, 4, 5, 6, 8, 9, 11, 12, 14, 15, 16, 17, 19, 20, 22, 23, 25, 28]",212.9956655,5901,2010,157,1315,11,1.060949579704323
undo,26,11,0,0,0,8,"[0, 18, 27, 8]",4,14,"[1, 2, 4, 5, 6, 11, 12, 15, 17, 19, 22, 23, 25, 28]",142.7817068,7780,1879,68,433,11,1.0827202875589923
undo,26,11,0,0,0,17,"[0, 18, 27, 8, 17]",5,13,"[1, 2, 4, 5, 6, 11, 12, 15, 19, 22, 23, 25, 28]",128.4638857,8967,1187,42,137,11,1.1662918234607762
undo,26,11,0,0,0,15,"[0, 18, 27, 8, 17, 15]",6,9,"[2, 5, 6, 11, 12, 19, 22, 25, 28]",115.8147751,9891,924,38,57,11,1.1741312027420885
undo,26,11,0,0,0,11,"[0, 18, 27, 8, 17, 15, 11]",7,7,"[2, 5, 6, 12, 19, 22, 28]",97.70400479,11933,2042,24,0,11,1.1668679039564056
undo,26,11,0,0,0,28,"[0, 18, 27, 8, 17, 15, 11, 28]",8,4,"[2, 5, 19, 22]",78.28751696,13368,1435,6,0,11,1.2830334294205898
undo,26,11,0,0,0,5,"[0, 18, 27, 8, 17, 15, 11, 28, 5]",9,2,"[2, 22]",60.39897314,14675,1307,2,0,11,1.472719061667125
undo,26,11,0,0,0,2,"[0, 18, 27, 8, 17, 15, 11, 28, 5, 2]",10,1,[22],43.39897314,15715,1040,1,0,11,1.437636650715907
undo,26,11,0,0,1,22,"[0, 18, 27, 8, 17, 15, 11, 28, 5, 2, 22]",11,0,[],33.34909751,16792,1077,1,0,11,1.414339916866727
undo,26,11,0,1,1,22,"[0, 18, 27, 8, 17, 15, 11, 28, 5, 2, 22]",11,0,[],33.34909751,19438,2646,1,0,11,1.414339916866727
undo,27,14,0,0,0,0,[0],1,29,"[1, 2, 3, 4, 5, 6, 7, 8, 9, 10, 11, 12, 13, 14, 15, 16, 17, 18, 19, 20, 21, 22, 23, 24, 25, 26, 27, 28, 29]",300,123,-1,8,157,10,0.0
undo,27,14,0,0,0,15,"[0, 15]",2,20,"[1, 2, 3, 4, 7, 8, 9, 13, 17, 18, 19, 20, 21, 22, 23, 25, 26, 27, 28, 29]",216.7053423,3784,3661,8,102,10,1.0
undo,27,14,0,0,0,28,"[0, 15, 28]",3,17,"[1, 2, 3, 4, 7, 8, 9, 13, 17, 18, 19, 20, 22, 23, 25, 26, 27]",197.4959696,5218,1434,8,48,10,1.0446007867311968
undo,27,14,0,0,0,17,"[0, 15, 28, 17]",4,14,"[1, 2, 3, 4, 7, 8, 13, 18, 19, 20, 22, 23, 25, 26]",184.0423455,6718,1500,8,39,10,1.0729463354689972
undo,27,14,0,0,0,18,"[0, 15, 28, 17, 18]",5,9,"[1, 2, 4, 7, 8, 19, 23, 25, 26]",119.412631,8275,1557,8,27,10,1.5035901079219378
undo,27,14,0,0,0,8,"[0, 15, 28, 17, 18, 8]",6,8,"[1, 2, 4, 7, 19, 23, 25, 26]",105.8111605,21286,13011,8,18,10,1.4819689987843856
undo,27,14,0,0,0,19,"[0, 15, 28, 17, 18, 8, 19]",7,5,"[1, 7, 23, 25, 26]",85.19563238,22406,1120,4,9,10,1.4526746797093781
undo,27,14,0,0,0,25,"[0, 15, 28, 17, 18, 8, 19, 25]",8,4,"[1, 7, 23, 26]",49.34873573,26137,3731,1,3,10,1.5313248571613565
undo,27,14,0,0,1,7,"[0, 15, 28, 17, 18, 8, 19, 25, 7]",9,0,[],29.65102012,27085,948,1,0,9,1.5480137556274147
undo,27,14,0,1,1,7,"[0, 15, 28, 17, 18, 8, 19, 25, 7]",9,0,[],29.65102012,29607,2522,1,0,9,1.5480137556274147
undo,28,2,0,0,0,0,[0],1,23,"[1, 2, 4, 5, 6, 7, 8, 9, 12, 13, 15, 16, 17, 18, 19, 20, 22, 23, 25, 26, 27, 28, 29]",300,114,-1,70,620,10,0.0
undo,28,2,0,0,0,12,"[0, 12]",2,19,"[1, 2, 4, 5, 6, 7, 13, 15, 16, 17, 18, 19, 20, 22, 25, 26, 27, 28, 29]",186.8275652,27813,27699,3,169,10,1.0
undo,28,2,0,0,0,5,"[0, 12, 5]",3,14,"[1, 4, 6, 7, 13, 15, 16, 18, 19, 22, 25, 26, 28, 29]",157.2979191,29084,1271,2,88,10,1.0082498134695237
undo,28,2,0,0,0,22,"[0, 12, 5, 22]",4,11,"[1, 6, 7, 13, 15, 18, 19, 25, 26, 28, 29]",144.4916706,30041,957,1,45,10,1.0077567572950326
undo,28,2,0,0,0,13,"[0, 12, 5, 22, 13]",5,9,"[1, 6, 7, 15, 18, 19, 25, 26, 29]",129.6256019,30711,670,1,39,10,1.151783231594989
undo,28,2,0,0,0,18,"[0, 12, 5, 22, 13, 18]",6,4,"[7, 15, 26, 29]",94.45459106,32158,1447,1,14,10,1.1431544953850095
undo,28,2,0,0,0,7,"[0, 12, 5, 22, 13, 18, 7]",7,3,"[15, 26, 29]",84.15896092,33118,960,1,4,10,1.1360054688421053
undo,28,2,0,0,0,26,"[0, 12, 5, 22, 13, 18, 7, 26]",8,2,"[15, 29]",61.35545242,34205,1087,1,1,10,1.1290531198668372
undo,28,2,0,0,0,15,"[0, 12, 5, 22, 13, 18, 7, 26, 15]",9,1,[29],37.14801554,35775,1570,1,0,10,1.395427297339814
undo,28,2,0,0,1,29,"[0, 12, 5, 22, 13, 18, 7, 26, 15, 29]",10,0,[],8.687516603,37111,1336,1,0,10,1.5868802136739162
undo,28,2,0,1,1,29,"[0, 12, 5, 22, 13, 18, 7, 26, 15, 29]",10,0,[],8.687516603,46747,9636,1,0,10,1.5868802136739162
undo,29,9,0,0,0,0,[0],1,27,"[1, 3, 4, 5, 6, 7, 8, 9, 10, 11, 13, 14, 15, 16, 17, 18, 19, 20, 21, 22, 23, 24, 25, 26, 27, 28, 29]",300,115,-1,2,182,10,0.0
undo,29,9,0,0,0,9,"[0, 9]",2,26,"[1, 3, 4, 5, 6, 7, 8, 10, 11, 13, 14, 15, 16, 17, 18, 19, 20, 21, 22, 23, 24, 25, 26, 27, 28, 29]",225.5352432,6643,6528,2,101,9,1.0
undo,29,9,0,0,0,23,"[0, 9, 23]",3,22,"[1, 3, 4, 5, 7, 8, 10, 11, 13, 15, 16, 17, 18, 19, 20, 21, 22, 24, 25, 26, 27, 28]",203.1745635,7458,815,2,70,9,1.6262276606762436
undo,29,9,0,0,0,8,"[0, 9, 23, 8]",4,18,"[3, 4, 5, 7, 10, 11, 15, 16, 17, 18, 19, 20, 21, 22, 25, 26, 27, 28]",181.7036529,8254,796,1,36,9,1.8547307061753238
undo,29,9,0,0,0,28,"[0, 9, 23, 8, 28]",5,17,"[3, 4, 5, 7, 10, 11, 15, 16, 17, 18, 19, 20, 21, 22, 25, 26, 27]",170.8869991,9212,958,1,23,9,1.7382749966569708
undo,29,9,0,0,0,26,"[0, 9, 23, 8, 28, 26]",6,10,"[3, 5, 10, 15, 16, 18, 19, 20, 21, 25]",126.1097727,10525,1313,4,7,8,1.4884719959249546
undo,29,9,0,0,0,18,"[0, 9, 23, 8, 28, 26, 18]",7,2,"[5, 19]",65.23284771,11730,1205,2,0,8,1.3471468379657168
undo,29,9,0,0,1,5,"[0, 9, 23, 8, 28, 26, 18, 5]",8,0,[],1.342316325,13309,1579,1,0,8,1.3414453811098892
undo,29,9,0,1,1,5,"[0, 9, 23, 8, 28, 26, 18, 5]",8,0,[],1.342316325,14039,730,1,0,8,1.3414453811098892
undo,30,6,0,0,0,0,[0],1,29,"[1, 2, 3, 4, 5, 6, 7, 8, 9, 10, 11, 12, 13, 14, 15, 16, 17, 18, 19, 20, 21, 22, 23, 24, 25, 26, 27, 28, 29]",300,115,-1,180,4304,10,0.0
undo,30,6,0,0,0,7,"[0, 7]",2,26,"[1, 2, 3, 4, 5, 6, 8, 9, 10, 11, 12, 13, 14, 15, 16, 17, 18, 19, 20, 21, 22, 23, 24, 26, 27, 29]",251.9791712,5381,5266,16,572,10,1.0
undo,30,6,0,0,0,24,"[0, 7, 24]",3,21,"[1, 2, 3, 4, 5, 6, 8, 10, 11, 13, 14, 16, 17, 18, 20, 21, 22, 23, 26, 27, 29]",181.0425798,7113,1732,21,192,9,1.2226672714912108
undo,30,6,0,0,0,10,"[0, 7, 24, 10]",4,20,"[1, 2, 3, 4, 5, 6, 8, 11, 13, 14, 16, 17, 18, 20, 21, 22, 23, 26, 27, 29]",167.6261719,8605,1492,21,113,9,1.569441737236445
undo,30,6,0,0,0,17,"[0, 7, 24, 10, 17]",5,15,"[1, 2, 3, 6, 8, 13, 14, 16, 18, 21, 22, 23, 26, 27, 29]",147.903089,9968,1363,15,52,9,2.1550736806221367
undo,30,6,0,0,0,18,"[0, 7, 24, 10, 17, 18]",6,13,"[1, 2, 3, 6, 13, 14, 16, 21, 22, 23, 26, 27, 29]",133.9747007,11137,1169,12,22,9,2.7261255628512417
undo,30,6,0,0,0,16,"[0, 7, 24, 10, 17, 18, 16]",7,10,"[1, 3, 6, 13, 14, 21, 22, 23, 26, 29]",110.6294657,17739,6602,8,6,9,2.6235753564318816
undo,30,6,0,0,0,29,"[0, 7, 24, 10, 17, 18, 16, 29]",8,3,"[14, 22, 23]",73.941593,18950,1211,3,0,9,2.1224504197149674
undo,30,6,0,0,1,23,"[0, 7, 24, 10, 17, 18, 16, 29, 23]",9,0,[],26.42317552,19875,925,1,0,9,2.038555068681958
undo,30,6,0,1,1,23,"[0, 7, 24, 10, 17, 18, 16, 29, 23]",9,0,[],26.42317552,31289,11414,1,0,9,2.038555068681958
undo,31,41,0,0,0,0,[0],1,29,"[1, 2, 3, 4, 5, 6, 7, 8, 9, 10, 11, 12, 13, 14, 15, 16, 17, 18, 19, 20, 21, 22, 23, 24, 25, 26, 27, 28, 29]",300,124,-1,1,143,10,0.0
undo,31,41,0,0,0,13,"[0, 13]",2,23,"[1, 2, 3, 5, 6, 7, 9, 10, 11, 12, 14, 15, 17, 18, 19, 20, 21, 22, 24, 25, 26, 27, 28]",258.2747079,3065,2941,1,55,10,1.0
undo,31,41,0,0,0,28,"[0, 13, 28]",3,22,"[1, 2, 3, 5, 6, 7, 9, 10, 11, 12, 14, 15, 17, 18, 19, 20, 21, 22, 24, 25, 26, 27]",223.7928286,4001,936,1,39,10,1.895724242592676
undo,31,41,0,0,0,5,"[0, 13, 28, 5]",4,19,"[1, 2, 3, 6, 9, 10, 11, 12, 14, 15, 17, 18, 19, 20, 21, 22, 24, 25, 27]",210.1913581,4919,918,1,34,10,2.861541269398273
undo,31,41,0,0,0,22,"[0, 13, 28, 5, 22]",5,12,"[2, 3, 6, 9, 10, 11, 12, 17, 18, 20, 21, 25]",155.4464953,6135,1216,11,12,9,2.096079268852861
undo,31,41,0,0,0,3,"[0, 13, 28, 5, 22, 3]",6,8,"[2, 9, 10, 12, 17, 18, 20, 21]",125.4798472,7176,1041,7,5,9,4.404491319005463
undo,31,41,0,0,0,21,"[0, 13, 28, 5, 22, 3, 21]",7,4,"[2, 9, 12, 17]",93.33952984,8112,936,5,1,9,4.228139797553632
undo,31,41,0,0,0,9,"[0, 13, 28, 5, 22, 3, 21, 9]",8,2,"[2, 17]",43.97354965,9496,1384,2,0,9,3.111188754077749
undo,31,41,0,0,1,2,"[0, 13, 28, 5, 22, 3, 21, 9, 2]",9,0,[],31.89050368,11503,2007,1,0,9,2.963304814480547
undo,31,41,0,1,1,2,"[0, 13, 28, 5, 22, 3, 21, 9, 2]",9,0,[],31.89050368,13690,2187,1,0,9,2.963304814480547
undo,32,20,0,0,0,0,[0],1,21,"[1, 2, 3, 4, 5, 6, 7, 8, 9, 12, 17, 18, 20, 21, 22, 23, 25, 26, 27, 28, 29]",300,123,-1,1,9,9,0.0
undo,32,20,0,0,0,12,"[0, 12]",2,20,"[1, 2, 3, 4, 5, 6, 7, 8, 9, 17, 18, 20, 21, 22, 23, 25, 26, 27, 28, 29]",271.5570747,3744,3621,1,8,9,1.0
undo,32,20,0,0,0,1,"[0, 12, 1]",3,12,"[3, 4, 5, 6, 8, 9, 20, 21, 23, 27, 28, 29]",189.5692707,5134,1390,1,6,9,1.0757997779162911
undo,32,20,0,0,0,5,"[0, 12, 1, 5]",4,10,"[4, 6, 8, 9, 20, 21, 23, 27, 28, 29]",152.8950291,6068,934,1,5,9,1.1708231454516806
undo,32,20,0,0,0,21,"[0, 12, 1, 5, 21]",5,8,"[4, 6, 8, 9, 20, 23, 27, 28]",107.8950291,7476,1408,1,4,9,1.126197336199212
undo,32,20,0,0,0,8,"[0, 12, 1, 5, 21, 8]",6,5,"[6, 9, 23, 27, 28]",90.43077988,8328,852,1,3,9,1.140007470699913
undo,32,20,0,0,1,27,"[0, 12, 1, 5, 21, 8, 27]",7,0,[],50.20640916,9310,982,1,0,7,1.3128859656095468
undo,32,20,0,1,1,27,"[0, 12, 1, 5, 21, 8, 27]",7,0,[],50.20640916,17047,7737,1,0,7,1.3128859656095468
undo,33,45,0,0,0,0,[0],1,24,"[1, 2, 3, 4, 5, 6, 7, 9, 10, 11, 12, 14, 15, 16, 17, 19, 20, 21, 22, 23, 24, 25, 27, 29]",300,114,-1,6,248,10,0.0
undo,33,45,0,0,0,15,"[0, 15]",2,23,"[1, 2, 3, 4, 5, 6, 7, 9, 10, 11, 12, 14, 16, 17, 19, 20, 21, 22, 23, 24, 25, 27, 29]",253.9022777,4011,3897,5,207,10,1.0
undo,33,45,0,0,0,20,"[0, 15, 20]",3,21,"[1, 2, 3, 4, 5, 6, 7, 9, 10, 11, 12, 14, 16, 17, 19, 21, 22, 23, 24, 25, 29]",200.6669511,7992,3981,32,328,9,1.0781160190446337
undo,33,45,0,0,0,17,"[0, 15, 20, 17]",4,12,"[2, 3, 5, 6, 7, 9, 10, 11, 19, 23, 24, 29]",144.953398,9302,1310,2,11,8,2.4175913767834287
undo,33,45,0,0,0,24,"[0, 15, 20, 17, 24]",5,7,"[2, 3, 7, 10, 19, 23, 29]",102.8939163,10218,916,2,8,8,1.9135611144394526
undo,33,45,0,0,0,7,"[0, 15, 20, 17, 24, 7]",6,4,"[2, 3, 10, 29]",68.48461523,11152,934,2,3,8,1.7450137281203044
undo,33,45,0,0,0,2,"[0, 15, 20, 17, 24, 7, 2]",7,2,"[3, 29]",30.47145961,13373,2221,2,0,8,1.6080727769329963
undo,33,45,0,0,1,3,"[0, 15, 20, 17, 24, 7, 2, 3]",8,0,[],5.15348181,15108,1735,1,0,8,1.6436259285307766
undo,33,45,0,1,1,3,"[0, 15, 20, 17, 24, 7, 2, 3]",8,0,[],5.15348181,16356,1248,1,0,8,1.6436259285307766
undo,34,10,0,0,0,0,[0],1,29,"[1, 2, 3, 4, 5, 6, 7, 8, 9, 10, 11, 12, 13, 14, 15, 16, 17, 18, 19, 20, 21, 22, 23, 24, 25, 26, 27, 28, 29]",300,123,-1,1,100,9,0.0
undo,34,10,0,0,0,13,"[0, 13]",2,25,"[1, 2, 3, 4, 6, 7, 8, 9, 10, 11, 12, 14, 17, 18, 19, 20, 21, 22, 23, 24, 25, 26, 27, 28, 29]",249.4628849,2452,2329,1,79,9,1.0
undo,34,10,0,0,0,11,"[0, 13, 11]",3,20,"[1, 2, 3, 6, 7, 8, 9, 10, 12, 14, 18, 19, 20, 21, 22, 24, 26, 27, 28, 29]",206.4512586,4380,1928,1,54,9,1.0313137484914219
undo,34,10,0,0,0,20,"[0, 13, 11, 20]",4,15,"[1, 2, 3, 6, 8, 9, 10, 12, 14, 18, 19, 21, 24, 26, 27]",168.3723931,18927,14547,15,34,8,1.0874972644654597
undo,34,10,0,0,0,27,"[0, 13, 11, 20, 27]",5,11,"[1, 2, 6, 9, 10, 12, 14, 18, 19, 21, 26]",123.1175591,19946,1019,1,10,8,1.1358705803065132
undo,34,10,0,0,0,6,"[0, 13, 11, 20, 27, 6]",6,2,"[1, 9]",63.20929586,21262,1316,2,0,7,1.1155853216515053
undo,34,10,0,0,1,1,"[0, 13, 11, 20, 27, 6, 1]",7,0,[],9.973969246,22300,1038,1,0,7,1.2202674746305302
undo,34,10,0,1,1,1,"[0, 13, 11, 20, 27, 6, 1]",7,0,[],9.973969246,23481,1181,1,0,7,1.2202674746305302
undo,35,13,0,0,0,0,[0],1,29,"[1, 2, 3, 4, 5, 6, 7, 8, 9, 10, 11, 12, 13, 14, 15, 16, 17, 18, 19, 20, 21, 22, 23, 24, 25, 26, 27, 28, 29]",300,123,-1,60,2676,11,0.0
undo,35,13,0,0,0,24,"[0, 24]",2,28,"[1, 2, 3, 4, 5, 6, 7, 8, 9, 10, 11, 12, 13, 14, 15, 16, 17, 18, 19, 20, 21, 22, 23, 25, 26, 27, 28, 29]",288.8196601,4195,4072,16,1444,11,1.0
undo,35,13,0,0,0,23,"[0, 24, 23]",3,27,"[1, 2, 3, 4, 5, 6, 7, 8, 9, 10, 11, 12, 13, 14, 15, 16, 17, 18, 19, 20, 21, 22, 25, 26, 27, 28, 29]",243.1140806,6983,2788,2,868,11,1.0065545717039834
undo,35,13,0,0,0,16,"[0, 24, 23, 16]",4,25,"[1, 2, 3, 4, 6, 7, 8, 9, 10, 11, 12, 13, 14, 15, 17, 18, 19, 20, 21, 22, 25, 26, 27, 28, 29]",202.8027918,8076,1093,1,145,11,1.055930143104189
undo,35,13,0,0,0,3,"[0, 24, 23, 16, 3]",5,20,"[2, 4, 6, 7, 8, 9, 10, 11, 13, 14, 15, 18, 20, 21, 22, 25, 26, 27, 28, 29]",174.3598665,9312,1236,3,44,10,1.233783650807853
undo,35,13,0,0,0,20,"[0, 24, 23, 16, 3, 20]",6,15,"[4, 6, 7, 8, 9, 11, 14, 18, 21, 22, 25, 26, 27, 28, 29]",155.3335689,26485,17173,7,15,9,1.3149320474556456
undo,35,13,0,0,0,4,"[0, 24, 23, 16, 3, 20, 4]",7,5,"[6, 8, 18, 25, 27]",133.3108534,28125,1640,2,4,9,1.2859964130018764
undo,35,13,0,0,0,27,"[0, 24, 23, 16, 3, 20, 4, 27]",8,2,"[8, 18]",111.2881379,29035,910,2,0,9,1.3345945780156503
undo,35,13,0,0,1,18,"[0, 24, 23, 16, 3, 20, 4, 27, 18]",9,0,[],16.20922326,30235,1200,1,0,9,1.2000709670094927
undo,35,13,0,1,1,18,"[0, 24, 23, 16, 3, 20, 4, 27, 18]",9,0,[],16.20922326,33047,2812,1,0,9,1.2000709670094927
undo,36,31,0,0,0,0,[0],1,27,"[1, 3, 4, 5, 6, 7, 8, 10, 11, 12, 13, 14, 15, 16, 17, 18, 19, 20, 21, 22, 23, 24, 25, 26, 27, 28, 29]",300,122,-1,2,87,10,0.0
undo,36,31,0,0,0,14,"[0, 14]",2,25,"[1, 3, 5, 6, 7, 8, 10, 11, 12, 13, 15, 16, 17, 18, 19, 20, 21, 22, 23, 24, 25, 26, 27, 28, 29]",263.861378,2283,2161,2,59,10,1.0
undo,36,31,0,0,0,27,"[0, 14, 27]",3,22,"[1, 3, 5, 6, 7, 8, 10, 11, 12, 13, 15, 16, 17, 18, 19, 20, 21, 22, 24, 25, 28, 29]",235.6833724,3366,1083,1,39,10,1.5881859159302467
undo,36,31,0,0,0,8,"[0, 14, 27, 8]",4,20,"[1, 3, 5, 6, 7, 10, 11, 12, 13, 16, 17, 18, 19, 20, 21, 22, 24, 25, 28, 29]",224.6380114,5932,2566,1,36,10,2.1665048452331277
undo,36,31,0,0,0,18,"[0, 14, 27, 8, 18]",5,15,"[1, 5, 6, 7, 11, 12, 13, 16, 17, 19, 20, 22, 25, 28, 29]",188.7911147,6971,1039,1,26,10,1.7273375741920205
undo,36,31,0,0,0,17,"[0, 14, 27, 8, 18, 17]",6,13,"[1, 5, 6, 7, 11, 12, 13, 16, 19, 20, 22, 25, 28]",159.584951,8176,1205,1,13,10,1.551192427769927
undo,36,31,0,0,0,22,"[0, 14, 27, 8, 18, 17, 22]",7,4,"[1, 12, 20, 25]",98.51122505,25545,17369,2,2,9,1.3376815885663693
undo,36,31,0,0,1,1,"[0, 14, 27, 8, 18, 17, 22, 1]",8,0,[],60.39298794,26492,947,1,0,8,1.2767288797388159
undo,36,31,0,1,1,1,"[0, 14, 27, 8, 18, 17, 22, 1]",8,0,[],60.39298794,28563,2071,1,0,8,1.2767288797388159
undo,37,39,0,0,0,0,[0],1,28,"[1, 2, 3, 4, 5, 6, 7, 9, 10, 11, 12, 13, 14, 15, 16, 17, 18, 19, 20, 21, 22, 23, 24, 25, 26, 27, 28, 29]",300,115,-1,1,30,10,0.0
undo,37,39,0,0,0,29,"[0, 29]",2,26,"[1, 2, 3, 4, 5, 6, 7, 9, 10, 12, 13, 14, 15, 16, 17, 18, 19, 20, 21, 22, 23, 24, 25, 26, 27, 28]",243.0614366,2443,2328,8,104,9,1.0
undo,37,39,0,0,0,7,"[0, 29, 7]",3,15,"[1, 2, 4, 5, 9, 10, 12, 13, 15, 16, 18, 19, 22, 24, 26]",145.8760468,6603,4160,2,34,8,1.012899843492305
undo,37,39,0,0,0,26,"[0, 29, 7, 26]",4,10,"[1, 2, 5, 10, 12, 13, 16, 18, 19, 22]",127.1945051,39399,32796,1,12,8,1.069844131094994
undo,37,39,0,0,0,22,"[0, 29, 7, 26, 22]",5,7,"[1, 5, 10, 12, 16, 18, 19]",109.4744599,42617,3218,1,4,8,1.2304524531675474
undo,37,39,0,0,0,16,"[0, 29, 7, 26, 22, 16]",6,2,"[18, 19]",74.47445993,43771,1154,1,1,8,1.1880136117255222
undo,37,39,0,0,0,19,"[0, 29, 7, 26, 22, 16, 19]",7,1,[18],57.01021073,45192,1421,1,0,8,1.20460366303436
undo,37,39,0,0,1,18,"[0, 29, 7, 26, 22, 16, 19, 18]",8,0,[],13.83614444,57723,12531,1,0,8,1.2206285245409925
undo,37,39,0,1,1,18,"[0, 29, 7, 26, 22, 16, 19, 18]",8,0,[],13.83614444,58922,1199,1,0,8,1.2206285245409925
undo,38,25,0,0,0,0,[0],1,28,"[1, 2, 3, 4, 5, 7, 8, 9, 10, 11, 12, 13, 14, 15, 16, 17, 18, 19, 20, 21, 22, 23, 24, 25, 26, 27, 28, 29]",300,122,-1,5,94,10,0.0
undo,38,25,0,0,0,23,"[0, 23]",2,23,"[1, 2, 3, 5, 7, 8, 9, 11, 12, 13, 14, 16, 17, 19, 20, 21, 22, 24, 25, 26, 27, 28, 29]",259.7756293,2944,2822,3,33,10,1.0
undo,38,25,0,0,0,7,"[0, 23, 7]",3,16,"[1, 3, 5, 8, 9, 11, 13, 17, 19, 21, 22, 24, 26, 27, 28, 29]",181.9424744,6385,3441,1,21,9,1.0073109045884563
undo,38,25,0,0,0,24,"[0, 23, 7, 24]",4,10,"[3, 5, 8, 9, 11, 13, 19, 22, 28, 29]",157.1836376,7994,1609,1,17,9,1.0161584555781231
undo,38,25,0,0,0,9,"[0, 23, 7, 24, 9]",5,8,"[3, 8, 11, 13, 19, 22, 28, 29]",139.1558812,8878,884,1,16,9,1.0303325523073676
undo,38,25,0,0,0,3,"[0, 23, 7, 24, 9, 3]",6,4,"[8, 11, 13, 28]",108.8903893,9926,1048,1,5,9,1.0321657704271587
undo,38,25,0,0,0,8,"[0, 23, 7, 24, 9, 3, 8]",7,2,"[13, 28]",69.68579774,11104,1178,2,0,8,1.1517293849793737
undo,38,25,0,0,1,28,"[0, 23, 7, 24, 9, 3, 8, 28]",8,0,[],29.07791673,13625,2521,1,0,8,1.251990046205978
undo,38,25,0,1,1,28,"[0, 23, 7, 24, 9, 3, 8, 28]",8,0,[],29.07791673,23322,9697,1,0,8,1.251990046205978
undo,39,17,0,0,0,0,[0],1,28,"[1, 2, 3, 4, 5, 6, 7, 8, 9, 10, 11, 12, 13, 14, 15, 16, 17, 18, 19, 20, 22, 23, 24, 25, 26, 27, 28, 29]",300,165,-1,2,73,8,0.0
undo,39,17,0,0,0,16,"[0, 16]",2,23,"[1, 2, 3, 5, 7, 8, 9, 10, 11, 12, 14, 17, 18, 19, 20, 22, 23, 24, 25, 26, 27, 28, 29]",212.3586855,2893,2728,1,29,8,1.0
undo,39,17,0,0,0,2,"[0, 16, 2]",3,21,"[1, 3, 5, 7, 8, 9, 10, 11, 12, 14, 17, 18, 19, 20, 23, 24, 25, 26, 27, 28, 29]",196.23417,4068,1175,13,69,7,1.0017855005780958
undo,39,17,0,0,0,8,"[0, 16, 2, 8]",4,13,"[3, 7, 9, 10, 11, 12, 14, 17, 23, 25, 26, 27, 29]",161.1200703,5245,1177,2,21,7,1.037631632944467
undo,39,17,0,0,0,17,"[0, 16, 2, 8, 17]",5,4,"[7, 9, 27, 29]",122.910124,6093,848,4,0,6,1.6773906369111997
undo,39,17,0,0,1,29,"[0, 16, 2, 8, 17, 29]",6,0,[],11.89210741,7660,1567,1,0,6,3.066192361137491
undo,39,17,0,1,1,29,"[0, 16, 2, 8, 17, 29]",6,0,[],11.89210741,8390,730,1,0,6,3.066192361137491
undo,40,5,0,0,0,0,[0],1,29,"[1, 2, 3, 4, 5, 6, 7, 8, 9, 10, 11, 12, 13, 14, 15, 16, 17, 18, 19, 20, 21, 22, 23, 24, 25, 26, 27, 28, 29]",300,114,-1,5,139,9,0.0
undo,40,5,0,0,0,23,"[0, 23]",2,27,"[1, 2, 3, 4, 5, 6, 7, 8, 9, 10, 11, 12, 13, 14, 15, 16, 17, 18, 19, 20, 21, 22, 24, 25, 26, 27, 28]",249.8402552,1688,1574,3,75,9,1.0
undo,40,5,0,0,0,25,"[0, 23, 25]",3,23,"[1, 2, 3, 4, 5, 6, 8, 9, 10, 12, 13, 14, 15, 16, 17, 18, 19, 21, 22, 24, 26, 27, 28]",231.4011663,3125,1437,3,43,9,1.0923159590575564
undo,40,5,0,0,0,24,"[0, 23, 25, 24]",4,21,"[2, 3, 4, 5, 6, 8, 9, 10, 12, 13, 14, 15, 16, 17, 18, 19, 21, 22, 26, 27, 28]",206.5616816,3761,636,3,25,9,1.2901858295679272
undo,40,5,0,0,0,17,"[0, 23, 25, 24, 17]",5,13,"[4, 5, 6, 8, 12, 13, 14, 15, 18, 19, 22, 26, 27]",171.5759702,4705,944,3,14,9,1.2027484907982513
undo,40,5,0,0,0,5,"[0, 23, 25, 24, 17, 5]",6,7,"[4, 6, 8, 12, 15, 18, 19]",128.5294837,5826,1121,3,4,9,1.1472230681682432
undo,40,5,0,0,0,15,"[0, 23, 25, 24, 17, 5, 15]",7,1,[18],88.50449151,7397,1571,1,0,8,1.196858948062182
undo,40,5,0,0,1,18,"[0, 23, 25, 24, 17, 5, 15, 18]",8,0,[],6.285272347,20988,13591,1,0,8,1.4484003110079315
undo,40,5,0,1,1,18,"[0, 23, 25, 24, 17, 5, 15, 18]",8,0,[],6.285272347,22122,1134,1,0,8,1.4484003110079315
undo,41,8,0,0,0,0,[0],1,29,"[1, 2, 3, 4, 5, 6, 7, 8, 9, 10, 11, 12, 13, 14, 15, 16, 17, 18, 19, 20, 21, 22, 23, 24, 25, 26, 27, 28, 29]",300,124,-1,10,149,9,0.0
undo,41,8,0,0,0,5,"[0, 5]",2,28,"[1, 2, 3, 4, 6, 7, 8, 9, 10, 11, 12, 13, 14, 15, 16, 17, 18, 19, 20, 21, 22, 23, 24, 25, 26, 27, 28, 29]",254.5137383,4360,4236,10,100,9,1.0
undo,41,8,0,0,0,25,"[0, 5, 25]",3,20,"[1, 2, 3, 4, 6, 11, 12, 14, 15, 16, 17, 18, 19, 20, 21, 22, 23, 24, 28, 29]",215.3091468,5702,1342,4,42,9,1.2272747879909065
undo,41,8,0,0,0,1,"[0, 5, 25, 1]",4,17,"[3, 4, 6, 11, 12, 14, 15, 16, 17, 18, 20, 21, 22, 23, 24, 28, 29]",190.3091468,6617,915,3,24,9,1.1770245007593956
undo,41,8,0,0,0,23,"[0, 5, 25, 1, 23]",5,15,"[3, 4, 6, 11, 14, 15, 16, 17, 18, 20, 21, 22, 24, 28, 29]",167.2874179,7444,827,1,14,9,1.141996583852372
undo,41,8,0,0,0,4,"[0, 5, 25, 1, 23, 4]",6,6,"[3, 14, 16, 18, 21, 28]",117.9518324,8585,1141,3,4,8,1.115517190692443
undo,41,8,0,0,0,18,"[0, 5, 25, 1, 23, 4, 18]",7,2,"[14, 28]",74.94020603,9612,1027,2,0,8,1.702606074443807
undo,41,8,0,0,1,14,"[0, 5, 25, 1, 23, 4, 18, 14]",8,0,[],17.45107663,10654,1042,1,0,8,3.306985013025639
undo,41,8,0,1,1,14,"[0, 5, 25, 1, 23, 4, 18, 14]",8,0,[],17.45107663,12124,1470,1,0,8,3.306985013025639
undo,42,43,0,0,0,0,[0],1,23,"[1, 2, 3, 4, 5, 6, 7, 9, 10, 11, 12, 14, 15, 16, 17, 19, 20, 21, 22, 23, 25, 27, 29]",300,123,-1,16,556,12,0.0
undo,42,43,0,0,0,29,"[0, 29]",2,22,"[1, 2, 3, 4, 5, 6, 7, 9, 10, 11, 12, 14, 15, 16, 17, 19, 20, 21, 22, 23, 25, 27]",277.909278,3976,3853,16,520,12,1.0
undo,42,43,0,0,0,20,"[0, 29, 20]",3,20,"[1, 2, 3, 4, 6, 7, 9, 10, 11, 12, 14, 15, 16, 17, 19, 21, 22, 23, 25, 27]",254.4785289,4910,934,15,422,12,1.082311746871282
undo,42,43,0,0,0,16,"[0, 29, 20, 16]",4,19,"[1, 2, 3, 4, 6, 7, 9, 10, 11, 12, 14, 15, 17, 19, 21, 22, 23, 25, 27]",231.8511119,5652,742,15,389,12,1.215201926898219
undo,42,43,0,0,0,11,"[0, 29, 20, 16, 11]",5,17,"[1, 2, 3, 4, 6, 7, 9, 10, 12, 14, 15, 17, 19, 21, 22, 23, 25]",196.7227758,6495,843,12,188,12,1.1349145516483516
undo,42,43,0,0,0,6,"[0, 29, 20, 16, 11, 6]",6,15,"[1, 2, 3, 4, 7, 10, 12, 14, 15, 17, 19, 21, 22, 23, 25]",176.1072477,7484,989,10,100,12,1.123330873754209
undo,42,43,0,0,0,1,"[0, 29, 20, 16, 11, 6, 1]",7,10,"[2, 3, 4, 7, 12, 14, 15, 19, 22, 25]",127.8371741,8858,1374,7,36,12,1.1959789832191803
undo,42,43,0,0,0,22,"[0, 29, 20, 16, 11, 6, 1, 22]",8,7,"[3, 7, 12, 14, 15, 19, 25]",96.45246447,10200,1342,3,18,12,1.7066313177885561
undo,42,43,0,0,0,19,"[0, 29, 20, 16, 11, 6, 1, 22, 19]",9,5,"[3, 7, 12, 15, 25]",75.83693635,17262,7062,1,4,12,1.6135610395135214
undo,42,43,0,0,0,3,"[0, 29, 20, 16, 11, 6, 1, 22, 19, 3]",10,2,"[12, 15]",34.72732676,18384,1122,1,1,12,2.3812589382879246
undo,42,43,0,0,0,12,"[0, 29, 20, 16, 11, 6, 1, 22, 19, 3, 12]",11,1,[15],21.72732676,18951,567,1,0,12,2.814858775595355
undo,42,43,0,0,1,15,"[0, 29, 20, 16, 11, 6, 1, 22, 19, 3, 12, 15]",12,0,[],2.414118848,20534,1583,1,0,12,3.5992440501777927
undo,42,43,0,1,1,15,"[0, 29, 20, 16, 11, 6, 1, 22, 19, 3, 12, 15]",12,0,[],2.414118848,29431,8897,1,0,12,3.5992440501777927
undo,43,44,0,0,0,0,[0],1,29,"[1, 2, 3, 4, 5, 6, 7, 8, 9, 10, 11, 12, 13, 14, 15, 16, 17, 18, 19, 20, 21, 22, 23, 24, 25, 26, 27, 28, 29]",300,114,-1,13,126,7,0.0
undo,43,44,0,0,0,14,"[0, 14]",2,15,"[4, 5, 6, 7, 9, 11, 12, 16, 17, 19, 22, 23, 24, 26, 28]",121.156493,4354,4240,2,9,6,1.0
undo,43,44,0,0,0,11,"[0, 14, 11]",3,5,"[4, 7, 9, 23, 24]",88.95400861,5676,1322,2,3,6,1.4335325978948263
undo,43,44,0,0,0,24,"[0, 14, 11, 24]",4,3,"[4, 7, 9]",62.02818458,14303,8627,2,1,6,1.5836307949102126
undo,43,44,0,0,0,9,"[0, 14, 11, 24, 9]",5,1,[4],29.27150587,15302,999,1,0,6,1.7061741313740282
undo,43,44,0,0,1,4,"[0, 14, 11, 24, 9, 4]",6,0,[],9.573790265,16128,826,1,0,6,1.653515319219223
undo,43,44,0,1,1,4,"[0, 14, 11, 24, 9, 4]",6,0,[],9.573790265,19747,3619,1,0,6,1.653515319219223
undo,44,34,0,0,0,0,[0],1,25,"[1, 3, 4, 5, 6, 7, 8, 9, 10, 11, 12, 13, 15, 18, 19, 20, 21, 22, 23, 24, 25, 26, 27, 28, 29]",300,123,-1,12,367,10,0.0
undo,44,34,0,0,0,13,"[0, 13]",2,24,"[1, 3, 4, 5, 6, 7, 8, 9, 10, 11, 12, 15, 18, 19, 20, 21, 22, 23, 24, 25, 26, 27, 28, 29]",279.9750156,2629,2506,12,331,10,1.0
undo,44,34,0,0,0,8,"[0, 13, 8]",3,20,"[1, 3, 4, 5, 7, 9, 10, 11, 12, 18, 19, 21, 22, 23, 24, 25, 26, 27, 28, 29]",214.4616582,4435,1806,1,79,10,1.0063334329411766
undo,44,34,0,0,0,1,"[0, 13, 8, 1]",4,13,"[3, 5, 7, 9, 10, 11, 12, 22, 23, 24, 25, 27, 29]",203.6913286,5867,1432,1,44,10,1.0937813141187471
undo,44,34,0,0,0,25,"[0, 13, 8, 1, 25]",5,12,"[3, 5, 7, 9, 10, 11, 12, 22, 23, 24, 27, 29]",183.6913286,6845,978,1,29,10,1.1426448272826586
undo,44,34,0,0,0,24,"[0, 13, 8, 1, 25, 24]",6,11,"[3, 5, 7, 9, 10, 11, 12, 22, 23, 27, 29]",166.1984729,8008,1163,1,24,10,1.377349299931822
undo,44,34,0,0,0,27,"[0, 13, 8, 1, 25, 24, 27]",7,2,"[5, 23]",69.89686335,16775,8767,2,0,8,3.8978143268859844
undo,44,34,0,0,1,23,"[0, 13, 8, 1, 25, 24, 27, 23]",8,0,[],16.23123189,17529,754,1,0,8,2.990354914686141
undo,44,34,0,1,1,23,"[0, 13, 8, 1, 25, 24, 27, 23]",8,0,[],16.23123189,18523,994,1,0,8,2.990354914686141
undo,45,37,0,0,0,0,[0],1,29,"[1, 2, 3, 4, 5, 6, 7, 8, 9, 10, 11, 12, 13, 14, 15, 16, 17, 18, 19, 20, 21, 22, 23, 24, 25, 26, 27, 28, 29]",300,122,-1,6,168,10,0.0
undo,45,37,0,0,0,19,"[0, 19]",2,19,"[1, 2, 4, 5, 6, 7, 9, 10, 11, 15, 17, 18, 20, 21, 22, 25, 26, 28, 29]",185.6627795,2961,2839,25,244,9,1.0
undo,45,37,0,0,0,21,"[0, 19, 21]",3,14,"[1, 2, 4, 7, 10, 11, 15, 17, 18, 20, 22, 25, 26, 29]",144.5531699,5116,2155,10,75,9,1.001632816594558
undo,45,37,0,0,0,15,"[0, 19, 21, 15]",4,9,"[1, 2, 4, 7, 18, 20, 22, 26, 29]",129.5531699,6122,1006,5,32,9,1.0243376499143988
undo,45,37,0,0,0,20,"[0, 19, 21, 15, 20]",5,8,"[1, 2, 4, 7, 18, 22, 26, 29]",112.5531699,6909,787,5,14,9,1.250507291508492
undo,45,37,0,0,0,1,"[0, 19, 21, 15, 20, 1]",6,6,"[2, 4, 7, 18, 22, 26]",78.31868434,8500,1591,4,4,9,1.4002166443864243
undo,45,37,0,0,0,2,"[0, 19, 21, 15, 20, 1, 2]",7,4,"[4, 7, 18, 22]",61.11403381,15725,7225,2,2,9,1.5802253600182588
undo,45,37,0,0,0,4,"[0, 19, 21, 15, 20, 1, 2, 4]",8,1,[22],49.71227956,16448,723,1,0,9,1.5399187067712754
undo,45,37,0,0,1,22,"[0, 19, 21, 15, 20, 1, 2, 4, 22]",9,0,[],24.71227956,17558,1110,1,0,9,1.6903775033413582
undo,45,37,0,1,1,22,"[0, 19, 21, 15, 20, 1, 2, 4, 22]",9,0,[],24.71227956,24138,6580,1,0,9,1.6903775033413582
undo,46,38,0,0,0,0,[0],1,29,"[1, 2, 3, 4, 5, 6, 7, 8, 9, 10, 11, 12, 13, 14, 15, 16, 17, 18, 19, 20, 21, 22, 23, 24, 25, 26, 27, 28, 29]",300,125,-1,33,506,9,0.0
undo,46,38,0,0,0,5,"[0, 5]",2,28,"[1, 2, 3, 4, 6, 7, 8, 9, 10, 11, 12, 13, 14, 15, 16, 17, 18, 19, 20, 21, 22, 23, 24, 25, 26, 27, 28, 29]",257.5618097,3299,3174,17,232,8,1.0
undo,46,38,0,0,0,7,"[0, 5, 7]",3,12,"[1, 2, 4, 10, 11, 15, 17, 19, 20, 21, 25, 28]",185.9936603,5285,1986,7,7,5,1.0889399059478846
undo,46,38,0,0,0,25,"[0, 5, 7, 25]",4,2,"[2, 21]",155.3832046,6069,784,2,0,5,1.1893053779444847
undo,46,38,0,0,1,2,"[0, 5, 7, 25, 2]",5,0,[],66.56879134,7118,1049,1,0,5,1.3492908035154374
undo,46,38,0,1,1,2,"[0, 5, 7, 25, 2]",5,0,[],66.56879134,8199,1081,1,0,5,1.3492908035154374
undo,47,7,0,0,0,0,[0],1,29,"[1, 2, 3, 4, 5, 6, 7, 8, 9, 10, 11, 12, 13, 14, 15, 16, 17, 18, 19, 20, 21, 22, 23, 24, 25, 26, 27, 28, 29]",300,124,-1,3,79,9,0.0
undo,47,7,0,0,0,15,"[0, 15]",2,19,"[2, 4, 5, 6, 7, 8, 9, 10, 13, 14, 16, 18, 19, 20, 21, 23, 25, 27, 28]",230.9348134,3110,2986,2,38,9,1.0
undo,47,7,0,0,0,6,"[0, 15, 6]",3,18,"[2, 4, 5, 7, 8, 9, 10, 13, 14, 16, 18, 19, 20, 21, 23, 25, 27, 28]",205.854941,3918,808,2,36,9,1.366719602896943
undo,47,7,0,0,0,25,"[0, 15, 6, 25]",4,11,"[2, 4, 7, 13, 14, 16, 18, 19, 20, 21, 23]",138.6760753,4856,938,2,28,9,1.3624631728355765
undo,47,7,0,0,0,4,"[0, 15, 6, 25, 4]",5,7,"[2, 7, 13, 16, 18, 19, 20]",113.9374415,5663,807,2,12,9,1.3249684384385587
undo,47,7,0,0,0,20,"[0, 15, 6, 25, 4, 20]",6,5,"[2, 7, 13, 18, 19]",94.29055881,6729,1066,1,6,9,1.3721893242679268
undo,47,7,0,0,0,18,"[0, 15, 6, 25, 4, 20, 18]",7,3,"[7, 13, 19]",81.48431034,7375,646,1,2,9,1.5262542308371432
undo,47,7,0,0,0,7,"[0, 15, 6, 25, 4, 20, 18, 7]",8,1,[19],40.25325408,8569,1194,1,0,9,1.41986878673423
undo,47,7,0,0,1,19,"[0, 15, 6, 25, 4, 20, 18, 7, 19]",9,0,[],10.84237174,12299,3730,1,0,9,1.5285658163212987
undo,47,7,0,1,1,19,"[0, 15, 6, 25, 4, 20, 18, 7, 19]",9,0,[],10.84237174,13764,1465,1,0,9,1.5285658163212987
undo,48,1,0,0,0,0,[0],1,26,"[1, 2, 4, 5, 7, 8, 9, 10, 11, 12, 13, 14, 15, 16, 17, 18, 19, 20, 21, 22, 23, 24, 25, 26, 28, 29]",300,114,-1,6,74,7,0.0
undo,48,1,0,0,0,26,"[0, 26]",2,12,"[1, 5, 7, 8, 14, 16, 17, 18, 19, 20, 21, 24]",201.5876024,18384,18270,8,23,6,1.0
undo,48,1,0,0,0,19,"[0, 26, 19]",3,10,"[1, 5, 7, 8, 14, 16, 17, 18, 20, 24]",162.9611866,19568,1184,6,8,6,1.1347243455071356
undo,48,1,0,0,0,8,"[0, 26, 19, 8]",4,6,"[5, 14, 17, 18, 20, 24]",109.8104575,31127,11559,2,5,6,1.940709617346939
undo,48,1,0,0,1,14,"[0, 26, 19, 8, 14]",5,0,[],45.91992613,32367,1240,1,0,5,2.5456420622532727
undo,48,1,0,1,1,14,"[0, 26, 19, 8, 14]",5,0,[],45.91992613,34047,1680,1,0,5,2.5456420622532727
undo,49,19,0,0,0,0,[0],1,29,"[1, 2, 3, 4, 5, 6, 7, 8, 9, 10, 11, 12, 13, 14, 15, 16, 17, 18, 19, 20, 21, 22, 23, 24, 25, 26, 27, 28, 29]",300,123,-1,12,149,8,0.0
undo,49,19,0,0,0,29,"[0, 29]",2,28,"[1, 2, 3, 4, 5, 6, 7, 8, 9, 10, 11, 12, 13, 14, 15, 16, 17, 18, 19, 20, 21, 22, 23, 24, 25, 26, 27, 28]",265.0715016,2451,2328,12,120,8,1.0
undo,49,19,0,0,0,9,"[0, 29, 9]",3,17,"[1, 4, 5, 6, 7, 10, 11, 12, 13, 14, 19, 20, 21, 22, 24, 27, 28]",181.7108394,3261,810,11,65,8,1.0375842971861238
undo,49,19,0,0,0,6,"[0, 29, 9, 6]",4,12,"[4, 7, 10, 11, 13, 14, 20, 21, 22, 24, 27, 28]",140.2741407,4935,1674,11,34,8,1.0389786364356892
undo,49,19,0,0,0,4,"[0, 29, 9, 6, 4]",5,7,"[10, 11, 14, 20, 22, 27, 28]",99.22538921,6319,1384,2,6,8,1.2182485830176533
undo,49,19,0,0,0,14,"[0, 29, 9, 6, 4, 14]",6,3,"[11, 20, 22]",49.21539021,7364,1045,3,0,7,1.1992264850067285
undo,49,19,0,0,1,11,"[0, 29, 9, 6, 4, 14, 11]",7,0,[],38.39873638,8079,715,1,0,7,1.1931340086782847
undo,49,19,0,1,1,11,"[0, 29, 9, 6, 4, 14, 11]",7,0,[],38.39873638,9665,1586,1,0,7,1.1931340086782847
undo,50,3,0,0,0,0,[0],1,29,"[1, 2, 3, 4, 5, 6, 7, 8, 9, 10, 11, 12, 13, 14, 15, 16, 17, 18, 19, 20, 21, 22, 23, 24, 25, 26, 27, 28, 29]",300,115,-1,34,427,10,0.0
undo,50,3,0,0,0,7,"[0, 7]",2,28,"[1, 2, 3, 4, 5, 6, 8, 9, 10, 11, 12, 13, 14, 15, 16, 17, 18, 19, 20, 21, 22, 23, 24, 25, 26, 27, 28, 29]",278.8103799,2020,1905,24,215,10,1.0
undo,50,3,0,0,0,8,"[0, 7, 8]",3,24,"[1, 2, 3, 4, 5, 6, 10, 11, 12, 13, 14, 15, 16, 17, 18, 19, 20, 21, 22, 24, 25, 26, 27, 28]",222.837172,3436,1416,16,114,10,1.2853332575451413
undo,50,3,0,0,0,24,"[0, 7, 8, 24]",4,21,"[1, 3, 4, 5, 6, 10, 11, 12, 14, 15, 16, 17, 18, 19, 20, 21, 22, 25, 26, 27, 28]",210.671647,4335,899,16,91,10,1.5177505014936548
undo,50,3,0,0,0,17,"[0, 7, 8, 24, 17]",5,9,"[3, 4, 10, 14, 15, 16, 19, 20, 21]",141.3174834,5773,1438,7,26,10,1.5510961300062232
undo,50,3,0,0,0,20,"[0, 7, 8, 24, 17, 20]",6,7,"[3, 4, 10, 14, 16, 19, 21]",128.6683728,6969,1196,7,14,10,1.5133082717474817
undo,50,3,0,0,0,3,"[0, 7, 8, 24, 17, 20, 3]",7,5,"[4, 10, 14, 19, 21]",108.2722947,7831,862,7,4,10,1.5325960555943097
undo,50,3,0,0,0,19,"[0, 7, 8, 24, 17, 20, 3, 19]",8,3,"[10, 14, 21]",70.93598532,9530,1699,3,1,10,1.5521294182529992
undo,50,3,0,0,0,21,"[0, 7, 8, 24, 17, 20, 3, 19, 21]",9,2,"[10, 14]",58.72942971,10706,1176,2,0,10,1.5690424431931145
undo,50,3,0,0,1,14,"[0, 7, 8, 24, 17, 20, 3, 19, 21, 14]",10,0,[],31.82218161,11716,1010,1,0,10,2.0836613372745463
undo,50,3,0,1,1,14,"[0, 7, 8, 24, 17, 20, 3, 19, 21, 14]",10,0,[],31.82218161,13324,1608,1,0,10,2.0836613372745463
undo,51,30,0,0,0,0,[0],1,19,"[3, 4, 5, 7, 9, 11, 16, 17, 18, 19, 20, 21, 22, 24, 25, 26, 27, 28, 29]",300,123,-1,5,41,8,0.0
undo,51,30,0,0,0,27,"[0, 27]",2,10,"[3, 5, 7, 9, 18, 19, 20, 24, 25, 29]",90.59608409,4852,4729,7,22,6,1.0
undo,51,30,0,0,0,3,"[0, 27, 3]",3,8,"[5, 7, 18, 19, 20, 24, 25, 29]",71.49111091,17296,12444,5,9,6,1.0022223300201003
undo,51,30,0,0,0,5,"[0, 27, 3, 5]",4,4,"[7, 18, 24, 29]",46.65162621,18289,993,1,3,6,1.047699458031665
undo,51,30,0,0,0,18,"[0, 27, 3, 5, 18]",5,1,[29],33.6132214,18849,560,1,0,6,1.0906504953306948
undo,51,30,0,0,1,29,"[0, 27, 3, 5, 18, 29]",6,0,[],14.30001349,19684,835,1,0,6,1.1734964103241567
undo,51,30,0,1,1,29,"[0, 27, 3, 5, 18, 29]",6,0,[],14.30001349,34172,14488,1,0,6,1.1734964103241567
undo,52,22,0,0,0,0,[0],1,29,"[1, 2, 3, 4, 5, 6, 7, 8, 9, 10, 11, 12, 13, 14, 15, 16, 17, 18, 19, 20, 21, 22, 23, 24, 25, 26, 27, 28, 29]",300,124,-1,31,704,9,0.0
undo,52,22,0,0,0,16,"[0, 16]",2,21,"[1, 3, 6, 7, 8, 9, 11, 13, 14, 15, 17, 18, 19, 20, 21, 22, 24, 25, 27, 28, 29]",218.605897,4937,4813,17,147,9,1.0
undo,52,22,0,0,0,6,"[0, 16, 6]",3,16,"[1, 3, 7, 9, 13, 14, 15, 17, 19, 20, 21, 22, 24, 25, 28, 29]",184.1675463,5837,900,5,77,9,1.3071109638102874
undo,52,22,0,0,0,9,"[0, 16, 6, 9]",4,15,"[1, 3, 7, 13, 14, 15, 17, 19, 20, 21, 22, 24, 25, 28, 29]",157.5404924,7475,1638,4,33,9,1.5907585082674378
undo,52,22,0,0,0,19,"[0, 16, 6, 9, 19]",5,12,"[3, 7, 13, 14, 15, 17, 20, 21, 24, 25, 28, 29]",137.1444143,8527,1052,3,17,9,2.0453047636701496
undo,52,22,0,0,0,29,"[0, 16, 6, 9, 19, 29]",6,10,"[3, 7, 13, 14, 15, 17, 20, 21, 24, 28]",122.111118,9056,529,3,10,9,2.310050419546042
undo,52,22,0,0,0,13,"[0, 16, 6, 9, 19, 29, 13]",7,1,[15],29.05199697,14190,5134,1,0,8,2.4480366201400097
undo,52,22,0,0,1,15,"[0, 16, 6, 9, 19, 29, 13, 15]",8,0,[],13.49564778,15330,1140,1,0,8,2.2735576688561747
undo,52,22,0,1,1,15,"[0, 16, 6, 9, 19, 29, 13, 15]",8,0,[],13.49564778,24015,8685,1,0,8,2.2735576688561747
undo,53,16,0,0,0,0,[0],1,29,"[1, 2, 3, 4, 5, 6, 7, 8, 9, 10, 11, 12, 13, 14, 15, 16, 17, 18, 19, 20, 21, 22, 23, 24, 25, 26, 27, 28, 29]",300,114,-1,13,161,9,0.0
undo,53,16,0,0,0,28,"[0, 28]",2,27,"[1, 2, 3, 4, 5, 7, 8, 9, 10, 11, 12, 13, 14, 15, 16, 17, 18, 19, 20, 21, 22, 23, 24, 25, 26, 27, 29]",284.3475242,5710,5596,11,92,9,1.0
undo,53,16,0,0,0,17,"[0, 28, 17]",3,26,"[1, 2, 3, 4, 5, 7, 8, 9, 10, 11, 12, 13, 14, 15, 16, 18, 19, 20, 21, 22, 23, 24, 25, 26, 27, 29]",219.1555001,6622,912,10,46,9,1.3773866384707543
undo,53,16,0,0,0,16,"[0, 28, 17, 16]",4,25,"[1, 2, 3, 4, 5, 7, 8, 9, 10, 11, 12, 13, 14, 15, 18, 19, 20, 21, 22, 23, 24, 25, 26, 27, 29]",190.8358956,7388,766,10,34,9,1.3209953830681203
undo,53,16,0,0,0,21,"[0, 28, 17, 16, 21]",5,13,"[3, 5, 7, 8, 9, 10, 12, 15, 20, 22, 25, 26, 29]",146.1816685,15562,8174,4,7,9,1.8136482702070456
undo,53,16,0,0,0,8,"[0, 28, 17, 16, 21, 8]",6,6,"[5, 9, 12, 15, 20, 25]",96.92722704,16702,1140,4,2,9,1.637204572335983
undo,53,16,0,0,0,20,"[0, 28, 17, 16, 21, 8, 20]",7,2,"[9, 25]",39.15179974,30575,13873,2,0,9,1.441590377328759
undo,53,16,0,0,0,25,"[0, 28, 17, 16, 21, 8, 20, 25]",8,1,[9],26.5026891,31078,503,1,0,9,1.484361110265371
undo,53,16,0,0,1,9,"[0, 28, 17, 16, 21, 8, 20, 25, 9]",9,0,[],13.69644062,31634,556,1,0,9,1.4530180692918209
undo,53,16,0,1,1,9,"[0, 28, 17, 16, 21, 8, 20, 25, 9]",9,0,[],13.69644062,32989,1355,1,0,9,1.4530180692918209
undo,54,36,0,0,0,0,[0],1,24,"[2, 4, 5, 6, 7, 8, 9, 10, 12, 13, 14, 15, 16, 17, 18, 19, 20, 22, 23, 25, 26, 27, 28, 29]",300,122,-1,2,200,10,0.0
undo,54,36,0,0,0,12,"[0, 12]",2,23,"[2, 4, 5, 6, 7, 8, 9, 10, 13, 14, 15, 16, 17, 18, 19, 20, 22, 23, 25, 26, 27, 28, 29]",277.7963967,3091,2969,90,804,9,1.0
undo,54,36,0,0,0,19,"[0, 12, 19]",3,14,"[2, 4, 8, 9, 10, 13, 16, 17, 18, 23, 25, 27, 28, 29]",211.554416,5302,2211,19,154,9,1.1474833105564386
undo,54,36,0,0,0,2,"[0, 12, 19, 2]",4,12,"[4, 8, 9, 10, 13, 16, 17, 18, 23, 25, 27, 29]",174.4329937,7441,2139,1,20,9,1.1119092939557258
undo,54,36,0,0,0,25,"[0, 12, 19, 2, 25]",5,11,"[4, 8, 9, 10, 13, 16, 17, 18, 23, 27, 29]",149.4329937,8062,621,1,10,9,1.3151085434637175
undo,54,36,0,0,0,13,"[0, 12, 19, 2, 25, 13]",6,8,"[4, 9, 10, 16, 17, 18, 23, 29]",128.8417334,8817,755,1,4,9,1.745059918477465
undo,54,36,0,0,1,4,"[0, 12, 19, 2, 25, 13, 4]",7,0,[],19.23790132,10586,1769,1,0,7,1.6077181704774772
undo,54,36,0,1,1,4,"[0, 12, 19, 2, 25, 13, 4]",7,0,[],19.23790132,13247,2661,1,0,7,1.6077181704774772
undo,55,21,0,0,0,0,[0],1,29,"[1, 2, 3, 4, 5, 6, 7, 8, 9, 10, 11, 12, 13, 14, 15, 16, 17, 18, 19, 20, 21, 22, 23, 24, 25, 26, 27, 28, 29]",300,123,-1,84,830,9,0.0
undo,55,21,0,0,0,25,"[0, 25]",2,26,"[1, 2, 3, 4, 5, 6, 7, 8, 9, 10, 11, 12, 13, 14, 15, 16, 17, 18, 20, 21, 22, 23, 24, 26, 27, 29]",240.1836143,5593,5470,30,238,9,1.0
undo,55,21,0,0,0,18,"[0, 25, 18]",3,23,"[1, 2, 3, 4, 6, 7, 8, 9, 10, 11, 12, 14, 15, 16, 17, 20, 21, 22, 23, 24, 26, 27, 29]",198.4223882,7977,2384,1,22,9,1.7194331060017298
undo,55,21,0,0,0,29,"[0, 25, 18, 29]",4,19,"[2, 4, 6, 7, 8, 10, 11, 12, 14, 15, 16, 17, 20, 21, 22, 23, 24, 26, 27]",169.7692907,15127,7150,11,44,8,1.5372409070640154
undo,55,21,0,0,0,22,"[0, 25, 18, 29, 22]",5,13,"[2, 4, 6, 7, 10, 11, 12, 14, 17, 20, 21, 23, 27]",139.5037988,16083,956,2,11,8,1.9519077549890076
undo,55,21,0,0,0,20,"[0, 25, 18, 29, 22, 20]",6,6,"[6, 7, 10, 11, 12, 17]",111.2726104,17192,1109,2,4,8,2.2910153832268065
undo,55,21,0,0,0,12,"[0, 25, 18, 29, 22, 20, 12]",7,1,[10],57.15237385,18276,1084,1,0,8,2.1874614020669414
undo,55,21,0,0,1,10,"[0, 25, 18, 29, 22, 20, 12, 10]",8,0,[],34.34886534,19043,767,1,0,8,2.181796919371535
undo,55,21,0,1,1,10,"[0, 25, 18, 29, 22, 20, 12, 10]",8,0,[],34.34886534,25839,6796,1,0,8,2.181796919371535
undo,56,35,0,0,0,0,[0],1,29,"[1, 2, 3, 4, 5, 6, 7, 8, 9, 10, 11, 12, 13, 14, 15, 16, 17, 18, 19, 20, 21, 22, 23, 24, 25, 26, 27, 28, 29]",300,117,-1,5,236,11,0.0
undo,56,35,0,0,0,24,"[0, 24]",2,27,"[1, 2, 4, 5, 6, 7, 8, 9, 10, 11, 12, 13, 14, 15, 16, 17, 18, 19, 20, 21, 22, 23, 25, 26, 27, 28, 29]",268.9838752,3532,3415,49,512,10,1.0
undo,56,35,0,0,0,17,"[0, 24, 17]",3,26,"[1, 2, 4, 5, 6, 7, 8, 9, 10, 11, 12, 13, 14, 15, 16, 18, 19, 20, 21, 22, 23, 25, 26, 27, 28, 29]",257.2791753,5377,1845,33,238,10,1.0771477201815276
undo,56,35,0,0,0,1,"[0, 24, 17, 1]",4,25,"[2, 4, 5, 6, 7, 8, 9, 10, 11, 12, 13, 14, 15, 16, 18, 19, 20, 21, 22, 23, 25, 26, 27, 28, 29]",241.4677869,6585,1208,26,151,10,1.2244804141479215
undo,56,35,0,0,0,15,"[0, 24, 17, 1, 15]",5,23,"[2, 4, 5, 6, 7, 8, 9, 10, 11, 12, 14, 16, 18, 19, 20, 21, 22, 23, 25, 26, 27, 28, 29]",218.6204676,7431,846,26,78,10,1.4642196672428094
undo,56,35,0,0,0,23,"[0, 24, 17, 1, 15, 23]",6,11,"[4, 5, 6, 9, 18, 19, 25, 26, 27, 28, 29]",158.1804147,9019,1588,15,12,10,1.3338903684702363
undo,56,35,0,0,0,9,"[0, 24, 17, 1, 15, 23, 9]",7,6,"[5, 6, 18, 19, 25, 27]",120.5373542,10661,1642,6,1,10,1.5964380615155294
undo,56,35,0,0,0,18,"[0, 24, 17, 1, 15, 23, 9, 18]",8,3,"[5, 6, 25]",100.5123698,11954,1293,2,1,10,1.5508488101942703
undo,56,35,0,0,0,25,"[0, 24, 17, 1, 15, 23, 9, 18, 25]",9,1,[6],66.67452121,17365,5411,1,0,10,1.4408023801578587
undo,56,35,0,0,1,6,"[0, 24, 17, 1, 15, 23, 9, 18, 25, 6]",10,0,[],42.65369691,20132,2767,1,0,10,1.701781671832088
undo,56,35,0,1,1,6,"[0, 24, 17, 1, 15, 23, 9, 18, 25, 6]",10,0,[],42.65369691,21574,1442,1,0,10,1.701781671832088
undo,57,33,0,0,0,0,[0],1,23,"[1, 2, 5, 7, 8, 11, 12, 13, 14, 15, 16, 17, 18, 19, 20, 21, 23, 24, 25, 26, 27, 28, 29]",300,123,-1,5,108,9,0.0
undo,57,33,0,0,0,21,"[0, 21]",2,17,"[2, 5, 7, 8, 11, 13, 14, 16, 17, 18, 19, 20, 24, 26, 27, 28, 29]",174.4611614,1801,1678,21,129,8,1.0
undo,57,33,0,0,0,17,"[0, 21, 17]",3,12,"[2, 7, 11, 13, 14, 16, 18, 19, 20, 24, 26, 29]",135.8218032,2547,746,3,35,8,1.0302064673538902
undo,57,33,0,0,0,13,"[0, 21, 17, 13]",4,10,"[2, 7, 11, 14, 16, 19, 20, 24, 26, 29]",113.0182947,3300,753,3,18,8,1.2307555582916028
undo,57,33,0,0,0,19,"[0, 21, 17, 13, 19]",5,6,"[7, 14, 16, 24, 26, 29]",87.52319715,4450,1150,3,6,8,1.267959080158969
undo,57,33,0,0,0,24,"[0, 21, 17, 13, 19, 24]",6,2,"[7, 14]",45.47560506,5342,892,1,1,8,1.2501192148258107
undo,57,33,0,0,0,7,"[0, 21, 17, 13, 19, 24, 7]",7,1,[14],16.26944133,6669,1327,1,0,8,1.3314375425758662
undo,57,33,0,0,1,14,"[0, 21, 17, 13, 19, 24, 7, 14]",8,0,[],1.403372582,10592,3923,1,0,8,1.37637211918224
undo,57,33,0,1,1,14,"[0, 21, 17, 13, 19, 24, 7, 14]",8,0,[],1.403372582,12147,1555,1,0,8,1.37637211918224
undo,58,4,0,0,0,0,[0],1,26,"[3, 4, 5, 6, 7, 8, 10, 11, 12, 13, 14, 15, 16, 17, 18, 19, 20, 21, 22, 23, 24, 25, 26, 27, 28, 29]",300,114,-1,4,489,10,0.0
undo,58,4,0,0,0,4,"[0, 4]",2,23,"[3, 5, 6, 7, 10, 11, 12, 13, 14, 15, 16, 17, 19, 20, 21, 22, 23, 24, 25, 26, 27, 28, 29]",205.9521398,1613,1499,96,515,8,1.0
undo,58,4,0,0,0,13,"[0, 4, 13]",3,19,"[3, 5, 6, 10, 11, 12, 14, 15, 16, 17, 19, 20, 21, 22, 23, 24, 25, 26, 28]",169.8827622,5126,3513,68,178,8,1.9163921030311182
undo,58,4,0,0,0,11,"[0, 4, 13, 11]",4,11,"[3, 5, 6, 14, 16, 17, 20, 21, 22, 25, 28]",103.3094943,7755,2629,13,40,8,1.6007506483724396
undo,58,4,0,0,0,21,"[0, 4, 13, 11, 21]",5,5,"[5, 16, 17, 20, 22]",56.43732776,77309,69554,2,4,7,1.6479146161814004
undo,58,4,0,0,0,22,"[0, 4, 13, 11, 21, 22]",6,2,"[5, 20]",45.39196674,77834,525,2,0,7,1.6047397643292114
undo,58,4,0,0,1,20,"[0, 4, 13, 11, 21, 22, 20]",7,0,[],15.15953383,78597,763,1,0,7,1.5588344023658538
undo,58,4,0,1,1,20,"[0, 4, 13, 11, 21, 22, 20]",7,0,[],15.15953383,82373,3776,1,0,7,1.5588344023658538
undo,59,24,0,0,0,0,[0],1,29,"[1, 2, 3, 4, 5, 6, 7, 8, 9, 10, 11, 12, 13, 14, 15, 16, 17, 18, 19, 20, 21, 22, 23, 24, 25, 26, 27, 28, 29]",300,131,-1,4,76,10,0.0
undo,59,24,0,0,0,14,"[0, 14]",2,27,"[1, 2, 3, 4, 5, 6, 8, 9, 10, 11, 12, 13, 15, 16, 17, 18, 19, 20, 21, 22, 23, 24, 25, 26, 27, 28, 29]",278.0455016,2313,2182,4,54,10,1.0
undo,59,24,0,0,0,10,"[0, 14, 10]",3,20,"[1, 2, 3, 4, 6, 8, 9, 11, 15, 16, 17, 19, 20, 22, 23, 24, 26, 27, 28, 29]",229.342319,3655,1342,10,99,9,1.0038790212375874
undo,59,24,0,0,0,24,"[0, 14, 10, 24]",4,14,"[1, 2, 4, 6, 8, 9, 11, 15, 16, 20, 22, 23, 28, 29]",176.0037775,4992,1337,4,26,9,1.0345598967195753
undo,59,24,0,0,0,6,"[0, 14, 10, 24, 6]",5,11,"[1, 8, 9, 11, 15, 16, 20, 22, 23, 28, 29]",138.6674681,5935,943,4,19,9,1.4136213103786264
undo,59,24,0,0,0,8,"[0, 14, 10, 24, 6, 8]",6,5,"[15, 16, 22, 23, 28]",77.83984283,7081,1146,4,4,9,2.0175546172818692
undo,59,24,0,0,0,22,"[0, 14, 10, 24, 6, 8, 22]",7,3,"[15, 16, 28]",64.42343497,8134,1053,2,1,9,2.235490370965466
undo,59,24,0,0,0,16,"[0, 14, 10, 24, 6, 8, 22, 16]",8,1,[15],46.39567859,9051,917,1,0,9,2.829024350414776
undo,59,24,0,0,1,15,"[0, 14, 10, 24, 6, 8, 22, 16, 15]",9,0,[],15.98186594,10335,1284,1,0,9,2.374331903190176
undo,59,24,0,1,1,15,"[0, 14, 10, 24, 6, 8, 22, 16, 15]",9,0,[],15.98186594,11506,1171,1,0,9,2.374331903190176
undo,60,18,0,0,0,0,[0],1,28,"[1, 2, 3, 4, 5, 6, 7, 8, 9, 10, 11, 12, 13, 14, 16, 17, 18, 19, 20, 21, 22, 23, 24, 25, 26, 27, 28, 29]",300,123,-1,3,136,10,0.0
undo,60,18,0,0,0,28,"[0, 28]",2,16,"[1, 3, 5, 7, 8, 9, 12, 13, 14, 16, 20, 23, 24, 25, 26, 27]",236.4311397,2827,2704,2,19,10,1.0
undo,60,18,0,0,0,7,"[0, 28, 7]",3,15,"[1, 3, 5, 8, 9, 12, 13, 14, 16, 20, 23, 24, 25, 26, 27]",214.4084242,3774,947,2,17,10,1.4345180696367563
undo,60,18,0,0,0,25,"[0, 28, 7, 25]",4,13,"[1, 3, 5, 8, 9, 12, 13, 14, 16, 20, 23, 26, 27]",186.6055466,4505,731,2,15,10,1.8896451241781882
undo,60,18,0,0,0,8,"[0, 28, 7, 25, 8]",5,10,"[3, 5, 9, 12, 13, 14, 16, 23, 26, 27]",149.551532,5935,1430,2,10,10,1.590467437592877
undo,60,18,0,0,0,13,"[0, 28, 7, 25, 8, 13]",6,9,"[3, 5, 9, 12, 14, 16, 23, 26, 27]",128.4565089,6619,684,2,5,10,1.8248274983549797
undo,60,18,0,0,0,14,"[0, 28, 7, 25, 8, 13, 14]",7,7,"[3, 5, 9, 12, 23, 26, 27]",109.4828429,7342,723,2,3,10,1.6993534956692746
undo,60,18,0,0,0,3,"[0, 28, 7, 25, 8, 13, 14, 3]",8,3,"[5, 12, 27]",79.39962499,8279,937,2,1,10,1.802637206541468
undo,60,18,0,0,0,5,"[0, 28, 7, 25, 8, 13, 14, 3, 5]",9,1,[12],21.21887216,10276,1997,1,0,10,1.559774889743805
undo,60,18,0,0,1,12,"[0, 28, 7, 25, 8, 13, 14, 3, 5, 12]",10,0,[],9.817117911,12411,2135,1,0,10,1.563993037384447
undo,60,18,0,1,1,12,"[0, 28, 7, 25, 8, 13, 14, 3, 5, 12]",10,0,[],9.817117911,13223,812,1,0,10,1.563993037384447
undo,61,27,0,0,0,0,[0],1,26,"[1, 3, 5, 6, 7, 8, 9, 10, 11, 12, 13, 14, 15, 16, 17, 18, 19, 21, 22, 23, 24, 25, 26, 27, 28, 29]",300,123,-1,13,578,11,0.0
undo,61,27,0,0,0,15,"[0, 15]",2,24,"[1, 3, 5, 6, 7, 8, 9, 10, 11, 12, 13, 14, 16, 17, 18, 19, 21, 22, 23, 24, 25, 26, 27, 29]",263.7508621,2230,2107,6,219,11,1.0
undo,61,27,0,0,0,24,"[0, 15, 24]",3,20,"[1, 5, 6, 7, 8, 9, 10, 12, 13, 14, 16, 17, 18, 19, 21, 23, 25, 26, 27, 29]",246.5462115,2984,754,6,130,11,1.130933077698322
undo,61,27,0,0,0,17,"[0, 15, 24, 17]",4,15,"[1, 6, 8, 10, 12, 13, 14, 16, 18, 19, 23, 25, 26, 27, 29]",229.9932662,4244,1260,4,60,11,1.1285538435963374
undo,61,27,0,0,0,12,"[0, 15, 24, 17, 12]",5,14,"[1, 6, 8, 10, 13, 14, 16, 18, 19, 23, 25, 26, 27, 29]",218.8129263,4794,550,2,32,11,1.2561880288755216
undo,61,27,0,0,0,10,"[0, 15, 24, 17, 12, 10]",6,11,"[1, 8, 13, 14, 18, 19, 23, 25, 26, 27, 29]",207.7675653,5633,839,2,28,11,1.2228289337766665
undo,61,27,0,0,0,13,"[0, 15, 24, 17, 12, 10, 13]",7,9,"[1, 8, 14, 18, 19, 23, 26, 27, 29]",167.9178476,7000,1367,2,18,11,1.3421291994761178
undo,61,27,0,0,0,19,"[0, 15, 24, 17, 12, 10, 13, 19]",8,5,"[1, 8, 14, 23, 29]",131.6825057,8526,1526,2,6,11,1.294749956153846
undo,61,27,0,0,0,8,"[0, 15, 24, 17, 12, 10, 13, 19, 8]",9,3,"[14, 23, 29]",116.816437,9386,860,2,1,11,1.3554286578836865
undo,61,27,0,0,0,29,"[0, 15, 24, 17, 12, 10, 13, 19, 8, 29]",10,1,[14],57.61339652,10408,1022,1,0,11,1.248354519573802
undo,61,27,0,0,1,14,"[0, 15, 24, 17, 12, 10, 13, 19, 8, 29, 14]",11,0,[],13.31892734,11460,1052,1,0,11,1.562811097555156
undo,61,27,0,1,1,14,"[0, 15, 24, 17, 12, 10, 13, 19, 8, 29, 14]",11,0,[],13.31892734,13247,1787,1,0,11,1.562811097555156
undo,62,0,0,0,0,0,[0],1,27,"[2, 3, 4, 5, 6, 7, 8, 9, 10, 11, 12, 13, 14, 15, 16, 17, 19, 20, 21, 22, 23, 24, 25, 26, 27, 28, 29]",300,123,-1,104,1136,9,0.0
undo,62,0,0,0,0,20,"[0, 20]",2,25,"[2, 3, 4, 5, 6, 7, 8, 9, 11, 12, 13, 14, 15, 16, 17, 19, 21, 22, 23, 24, 25, 26, 27, 28, 29]",215.4955622,2860,2737,36,372,9,1.0
undo,62,0,0,0,0,28,"[0, 20, 28]",3,19,"[3, 4, 5, 7, 8, 9, 11, 12, 13, 14, 15, 16, 17, 19, 21, 23, 24, 26, 29]",156.2925218,3943,1083,3,83,9,1.3675886789005969
undo,62,0,0,0,0,5,"[0, 20, 28, 5]",4,12,"[3, 4, 7, 8, 9, 11, 12, 15, 17, 21, 24, 26]",112.6347619,4714,771,2,50,9,1.3829293532227536
undo,62,0,0,0,0,26,"[0, 20, 28, 5, 26]",5,10,"[3, 4, 7, 8, 9, 11, 12, 15, 17, 24]",77.19467159,6383,1669,9,19,8,1.3791303602248017
undo,62,0,0,0,0,4,"[0, 20, 28, 5, 26, 4]",6,7,"[7, 9, 11, 12, 15, 17, 24]",65.15307701,7447,1064,4,5,8,1.5002288778368358
undo,62,0,0,0,0,24,"[0, 20, 28, 5, 26, 4, 24]",7,3,"[7, 12, 15]",53.75132276,8118,671,3,0,8,1.4760256224306212
undo,62,0,0,0,1,15,"[0, 20, 28, 5, 26, 4, 24, 15]",8,0,[],30.4060877,9026,908,1,0,8,1.4262032392898991
undo,62,0,0,1,1,15,"[0, 20, 28, 5, 26, 4, 24, 15]",8,0,[],30.4060877,10907,1881,1,0,8,1.4262032392898991
undo,63,26,0,0,0,0,[0],1,29,"[1, 2, 3, 4, 5, 6, 7, 8, 9, 10, 11, 12, 13, 14, 15, 16, 17, 18, 19, 20, 21, 22, 23, 24, 25, 26, 27, 28, 29]",300,157,-1,9,226,9,0.0
undo,63,26,0,0,0,21,"[0, 21]",2,25,"[2, 3, 4, 5, 6, 7, 8, 10, 11, 12, 13, 14, 15, 16, 17, 18, 19, 22, 23, 24, 25, 26, 27, 28, 29]",211.1349337,2054,1897,7,90,9,1.0
undo,63,26,0,0,0,13,"[0, 21, 13]",3,21,"[3, 4, 5, 6, 7, 8, 10, 11, 12, 14, 15, 16, 17, 18, 19, 22, 23, 24, 25, 26, 29]",188.9989901,3428,1374,6,45,9,1.0103952279992225
undo,63,26,0,0,0,16,"[0, 21, 13, 16]",4,8,"[4, 5, 6, 10, 14, 17, 23, 29]",119.9700107,4396,968,3,23,9,1.608180021563306
undo,63,26,0,0,0,29,"[0, 21, 13, 16, 29]",5,6,"[4, 6, 10, 14, 17, 23]",95.76257383,5851,1455,3,20,9,1.6714963205667543
undo,63,26,0,0,0,4,"[0, 21, 13, 16, 29, 4]",6,4,"[6, 10, 14, 17]",71.76257383,7668,1817,3,6,9,1.8831111863826637
undo,63,26,0,0,0,17,"[0, 21, 13, 16, 29, 4, 17]",7,3,"[6, 10, 14]",50.66755072,8236,568,3,1,9,1.7547748416418751
undo,63,26,0,0,0,6,"[0, 21, 13, 16, 29, 4, 17, 6]",8,2,"[10, 14]",30.54293892,9118,882,2,0,9,1.67769644614289
undo,63,26,0,0,1,14,"[0, 21, 13, 16, 29, 4, 17, 6, 14]",9,0,[],9.519142882,9804,686,1,0,9,1.8025260198012052
undo,63,26,0,1,1,14,"[0, 21, 13, 16, 29, 4, 17, 6, 14]",9,0,[],9.519142882,10715,911,1,0,9,1.8025260198012052
undo,64,23,0,0,0,0,[0],1,28,"[1, 2, 3, 4, 5, 6, 7, 8, 9, 10, 11, 12, 13, 14, 15, 16, 17, 18, 19, 20, 21, 22, 23, 25, 26, 27, 28, 29]",300,123,-1,76,2626,10,0.0
undo,64,23,0,0,0,13,"[0, 13]",2,19,"[1, 2, 3, 5, 6, 7, 8, 9, 10, 12, 14, 17, 18, 19, 21, 22, 23, 27, 29]",189.3202819,2545,2422,9,168,10,1.0
undo,64,23,0,0,0,12,"[0, 13, 12]",3,16,"[1, 2, 3, 6, 7, 8, 9, 10, 14, 17, 18, 21, 22, 23, 27, 29]",177.2372359,3247,702,9,96,10,1.0014195490503164
undo,64,23,0,0,0,2,"[0, 13, 12, 2]",4,12,"[1, 3, 6, 7, 9, 10, 14, 18, 21, 22, 27, 29]",163.3447919,5235,1988,4,30,10,1.0014394317924602
undo,64,23,0,0,0,9,"[0, 13, 12, 2, 9]",5,10,"[1, 6, 7, 10, 14, 18, 21, 22, 27, 29]",150.3063871,6393,1158,1,8,10,1.1457747074799831
undo,64,23,0,0,0,14,"[0, 13, 12, 2, 9, 14]",6,8,"[1, 6, 7, 10, 18, 22, 27, 29]",139.8660806,7052,659,1,6,10,1.1365880299138118
undo,64,23,0,0,0,29,"[0, 13, 12, 2, 9, 14, 29]",7,5,"[1, 6, 7, 10, 22]",92.43191571,10308,3256,1,3,10,1.3460297288480787
undo,64,23,0,0,0,7,"[0, 13, 12, 2, 9, 14, 29, 7]",8,2,"[1, 10]",68.34872655,11709,1401,1,1,10,1.3773159292410473
undo,64,23,0,0,0,10,"[0, 13, 12, 2, 9, 14, 29, 7, 10]",9,1,[1],40.88966612,12632,923,1,0,10,1.3556884556214648
undo,64,23,0,0,1,1,"[0, 13, 12, 2, 9, 14, 29, 7, 10, 1]",10,0,[],12.23656855,13463,831,1,0,10,1.3259861306330887
undo,64,23,0,1,1,1,"[0, 13, 12, 2, 9, 14, 29, 7, 10, 1]",10,0,[],12.23656855,14548,1085,1,0,10,1.3259861306330887
undo,65,28,0,0,0,0,[0],1,27,"[1, 2, 3, 4, 5, 6, 7, 8, 9, 10, 11, 12, 13, 14, 15, 16, 17, 18, 19, 20, 22, 23, 25, 26, 27, 28, 29]",300,122,-1,2,96,9,0.0
undo,65,28,0,0,0,5,"[0, 5]",2,21,"[2, 3, 4, 6, 7, 8, 9, 10, 11, 12, 13, 14, 15, 18, 19, 20, 23, 25, 26, 28, 29]",169.6427984,4346,4224,4,42,8,1.0
undo,65,28,0,0,0,26,"[0, 5, 26]",3,15,"[2, 3, 4, 7, 8, 9, 12, 13, 14, 15, 18, 19, 20, 25, 28]",136.8861197,5368,1022,4,35,8,1.0149913611821164
undo,65,28,0,0,0,2,"[0, 5, 26, 2]",4,10,"[4, 7, 8, 9, 12, 13, 18, 19, 25, 28]",96.52524758,6025,657,1,8,8,1.0140203645386032
undo,65,28,0,0,0,19,"[0, 5, 26, 2, 19]",5,4,"[7, 12, 13, 18]",59.1621642,6717,692,1,5,8,1.3190506078953725
undo,65,28,0,0,0,7,"[0, 5, 26, 2, 19, 7]",6,2,"[12, 13]",31.43131495,7625,908,1,1,8,1.3710337790154739
undo,65,28,0,0,0,12,"[0, 5, 26, 2, 19, 7, 12]",7,1,[13],18.27836851,8220,595,1,0,8,1.3674357374010244
undo,65,28,0,0,1,13,"[0, 5, 26, 2, 19, 7, 12, 13]",8,0,[],1.073717981,8958,738,1,0,8,1.5688480417120785
undo,65,28,0,1,1,13,"[0, 5, 26, 2, 19, 7, 12, 13]",8,0,[],1.073717981,9814,856,1,0,8,1.5688480417120785
undo,66,32,0,0,0,0,[0],1,29,"[1, 2, 3, 4, 5, 6, 7, 8, 9, 10, 11, 12, 13, 14, 15, 16, 17, 18, 19, 20, 21, 22, 23, 24, 25, 26, 27, 28, 29]",300,123,-1,17,359,10,0.0
undo,66,32,0,0,0,15,"[0, 15]",2,24,"[2, 3, 4, 5, 6, 7, 8, 9, 10, 11, 12, 13, 14, 16, 17, 19, 20, 22, 23, 24, 25, 26, 27, 28]",214.6185032,1776,1653,11,153,9,1.0
undo,66,32,0,0,0,28,"[0, 15, 28]",3,21,"[2, 3, 5, 7, 8, 9, 10, 11, 12, 13, 14, 16, 17, 19, 20, 22, 23, 24, 25, 26, 27]",203.2167489,2230,454,11,119,9,1.000160051986942
undo,66,32,0,0,0,12,"[0, 15, 28, 12]",4,19,"[2, 3, 5, 7, 8, 9, 10, 11, 13, 16, 17, 19, 20, 22, 23, 24, 25, 26, 27]",184.243083,2754,524,8,71,9,1.0281484763748023
undo,66,32,0,0,0,16,"[0, 15, 28, 12, 16]",5,17,"[2, 3, 5, 7, 8, 9, 10, 11, 13, 17, 19, 20, 22, 23, 24, 26, 27]",168.5906071,3264,510,6,38,9,1.1190771370096
undo,66,32,0,0,0,22,"[0, 15, 28, 12, 16, 22]",6,10,"[2, 3, 5, 8, 9, 10, 11, 17, 20, 27]",134.7527585,3926,662,4,16,9,1.1702311155319893
undo,66,32,0,0,0,9,"[0, 15, 28, 12, 16, 22, 9]",7,6,"[2, 8, 10, 17, 20, 27]",112.5491552,4894,968,2,4,9,1.2381424719932013
undo,66,32,0,0,0,8,"[0, 15, 28, 12, 16, 22, 9, 8]",8,1,[20],67.42709849,5630,736,1,0,9,1.187013645273504
undo,66,32,0,0,1,20,"[0, 15, 28, 12, 16, 22, 9, 8, 20]",9,0,[],17.09818036,6780,1150,1,0,9,1.3986201165175596
undo,66,32,0,1,1,20,"[0, 15, 28, 12, 16, 22, 9, 8, 20]",9,0,[],17.09818036,7465,685,1,0,9,1.3986201165175596
undo,67,40,0,0,0,0,[0],1,29,"[1, 2, 3, 4, 5, 6, 7, 8, 9, 10, 11, 12, 13, 14, 15, 16, 17, 18, 19, 20, 21, 22, 23, 24, 25, 26, 27, 28, 29]",300,124,-1,8,191,9,0.0
undo,67,40,0,0,0,1,"[0, 1]",2,18,"[2, 5, 6, 7, 8, 9, 10, 11, 13, 15, 17, 18, 19, 21, 22, 23, 27, 29]",247.8463808,2329,2205,4,80,9,1.0
undo,67,40,0,0,0,6,"[0, 1, 6]",3,17,"[2, 5, 7, 8, 9, 10, 11, 13, 15, 17, 18, 19, 21, 22, 23, 27, 29]",227.7466295,4309,1980,4,74,9,1.0459427008232034
undo,67,40,0,0,0,21,"[0, 1, 6, 21]",4,8,"[2, 5, 9, 17, 18, 19, 22, 23]",175.7754837,5403,1094,4,25,9,1.0308822257404064
undo,67,40,0,0,0,9,"[0, 1, 6, 21, 9]",5,6,"[2, 5, 18, 19, 22, 23]",130.0699041,6347,944,4,12,9,1.377861912961129
undo,67,40,0,0,0,18,"[0, 1, 6, 21, 9, 18]",6,5,"[2, 5, 19, 22, 23]",113.5169588,7769,1422,4,4,9,1.5742712168661408
undo,67,40,0,0,0,23,"[0, 1, 6, 21, 9, 18, 23]",7,3,"[2, 5, 19]",79.51695879,8737,968,2,1,9,2.324611956726637
undo,67,40,0,0,0,19,"[0, 1, 6, 21, 9, 18, 23, 19]",8,1,[5],47.56386817,9787,1050,1,0,9,2.460596854255639
undo,67,40,0,0,1,5,"[0, 1, 6, 21, 9, 18, 23, 19, 5]",9,0,[],9.485002643,10513,726,1,0,9,2.3622228457215413
undo,67,40,0,1,1,5,"[0, 1, 6, 21, 9, 18, 23, 19, 5]",9,0,[],9.485002643,11298,785,1,0,9,2.3622228457215413
undo,68,12,0,0,0,0,[0],1,29,"[1, 2, 3, 4, 5, 6, 7, 8, 9, 10, 11, 12, 13, 14, 15, 16, 17, 18, 19, 20, 21, 22, 23, 24, 25, 26, 27, 28, 29]",300,114,-1,2,32,9,0.0
undo,68,12,0,0,0,25,"[0, 25]",2,16,"[2, 4, 5, 6, 7, 9, 12, 14, 16, 18, 19, 22, 23, 24, 27, 28]",225.7975742,1736,1622,5,34,8,1.0
undo,68,12,0,0,0,22,"[0, 25, 22]",3,11,"[2, 4, 5, 6, 7, 12, 14, 16, 19, 24, 27]",153.5964661,4085,2349,1,10,8,1.6635691148622656
undo,68,12,0,0,0,16,"[0, 25, 22, 16]",4,7,"[4, 6, 12, 14, 19, 24, 27]",132.5964661,4955,870,1,6,8,1.8455145785330662
undo,68,12,0,0,0,4,"[0, 25, 22, 16, 4]",5,5,"[12, 14, 19, 24, 27]",98.39120339,6664,1709,1,4,8,1.6140587576122385
undo,68,12,0,0,0,12,"[0, 25, 22, 16, 4, 12]",6,2,"[14, 27]",56.20115717,7778,1114,1,1,8,1.4755917731057815
undo,68,12,0,0,0,27,"[0, 25, 22, 16, 4, 12, 27]",7,1,[14],31.84956584,8858,1080,1,0,8,1.5677023473114235
undo,68,12,0,0,1,14,"[0, 25, 22, 16, 4, 12, 27, 14]",8,0,[],3.196468279,9809,951,1,0,8,1.5941060060123788
undo,68,12,0,1,1,14,"[0, 25, 22, 16, 4, 12, 27, 14]",8,0,[],3.196468279,10714,905,1,0,8,1.5941060060123788
basic,69,21,0,0,0,0,[0],1,29,"[1, 2, 3, 4, 5, 6, 7, 8, 9, 10, 11, 12, 13, 14, 15, 16, 17, 18, 19, 20, 21, 22, 23, 24, 25, 26, 27, 28, 29]",300,125,-1,84,830,9,0.0
basic,69,21,0,0,0,20,"[0, 20]",2,28,"[1, 2, 3, 4, 5, 6, 7, 8, 9, 10, 11, 12, 13, 14, 15, 16, 17, 18, 19, 21, 22, 23, 24, 25, 26, 27, 28, 29]",217.6228187,7458,7333,6,67,9,1.0
basic,69,21,0,0,0,22,"[0, 20, 22]",3,23,"[2, 4, 6, 7, 8, 9, 10, 11, 12, 13, 14, 15, 16, 17, 18, 19, 21, 23, 24, 25, 26, 27, 29]",189.3916303,8265,807,6,47,9,1.3451865712078994
basic,69,21,0,0,0,18,"[0, 20, 22, 18]",4,20,"[2, 4, 6, 7, 8, 9, 10, 11, 12, 14, 15, 16, 17, 21, 23, 24, 25, 26, 27, 29]",162.9908727,9623,1358,4,25,9,2.3191924394507706
basic,69,21,0,0,0,29,"[0, 20, 22, 18, 29]",5,16,"[2, 4, 6, 7, 8, 10, 12, 14, 15, 16, 17, 21, 23, 24, 25, 27]",134.3377751,10877,1254,2,10,9,1.9554738681863184
basic,69,21,0,0,0,25,"[0, 20, 22, 18, 29, 25]",6,5,"[4, 14, 17, 21, 23]",89.11609892,11845,968,2,5,9,3.5255206171255487
basic,69,21,0,0,0,21,"[0, 20, 22, 18, 29, 25, 21]",7,3,"[4, 14, 23]",39.78051339,13159,1314,1,2,9,2.8949037931733077
basic,69,21,0,0,1,23,"[0, 20, 22, 18, 29, 25, 21, 23]",8,0,[],10.1663276,14117,958,1,0,8,2.9270156242749494
basic,69,21,0,1,1,23,"[0, 20, 22, 18, 29, 25, 21, 23]",8,0,[],10.1663276,16313,2196,1,0,8,2.9270156242749494
basic,70,20,0,0,0,0,[0],1,21,"[1, 2, 3, 4, 5, 6, 7, 8, 9, 12, 17, 18, 20, 21, 22, 23, 25, 26, 27, 28, 29]",300,127,-1,1,9,9,0.0
basic,70,20,0,0,0,1,"[0, 1]",2,14,"[3, 4, 5, 6, 8, 9, 12, 20, 21, 23, 26, 27, 28, 29]",197.3501096,6276,6149,1,9,8,1.0
basic,70,20,0,0,0,5,"[0, 1, 5]",3,12,"[4, 6, 8, 9, 12, 20, 21, 23, 26, 27, 28, 29]",160.675868,7280,1004,1,8,8,1.1088946720668915
basic,70,20,0,0,0,21,"[0, 1, 5, 21]",4,8,"[4, 6, 8, 9, 20, 23, 27, 28]",115.675868,8450,1170,1,6,8,1.0805828994591202
basic,70,20,0,0,0,8,"[0, 1, 5, 21, 8]",5,5,"[6, 9, 23, 27, 28]",98.21161876,9254,804,1,5,8,1.0976815296746363
basic,70,20,0,0,0,27,"[0, 1, 5, 21, 8, 27]",6,1,[23],57.98724804,10476,1222,1,0,7,1.2719907843846436
basic,70,20,0,0,1,23,"[0, 1, 5, 21, 8, 27, 23]",7,0,[],5.977633539,11702,1226,1,0,7,1.2908014903941913
basic,70,20,0,1,1,23,"[0, 1, 5, 21, 8, 27, 23]",7,0,[],5.977633539,13506,1804,1,0,7,1.2908014903941913
basic,71,32,0,0,0,0,[0],1,29,"[1, 2, 3, 4, 5, 6, 7, 8, 9, 10, 11, 12, 13, 14, 15, 16, 17, 18, 19, 20, 21, 22, 23, 24, 25, 26, 27, 28, 29]",300,114,-1,17,359,10,0.0
basic,71,32,0,0,0,19,"[0, 19]",2,28,"[1, 2, 3, 4, 5, 6, 7, 8, 9, 10, 11, 12, 13, 14, 15, 16, 17, 18, 20, 21, 22, 23, 24, 25, 26, 27, 28, 29]",283.5075775,4962,4848,16,294,10,1.0
basic,71,32,0,0,0,13,"[0, 19, 13]",3,24,"[2, 3, 4, 5, 6, 8, 9, 10, 11, 12, 14, 15, 16, 17, 18, 20, 21, 22, 23, 24, 25, 26, 27, 28]",260.3127505,6942,1980,14,227,10,1.0172874229878615
basic,71,32,0,0,0,15,"[0, 19, 13, 15]",4,18,"[2, 3, 5, 8, 9, 10, 11, 12, 16, 17, 20, 22, 23, 24, 25, 26, 27, 28]",177.4393531,8250,1308,9,116,10,1.435447391509833
basic,71,32,0,0,0,28,"[0, 19, 13, 15, 28]",5,17,"[2, 3, 5, 8, 9, 10, 11, 12, 16, 17, 20, 22, 23, 24, 25, 26, 27]",166.0375988,9264,1014,9,70,10,1.3843701324937985
basic,71,32,0,0,0,12,"[0, 19, 13, 15, 28, 12]",6,14,"[2, 3, 5, 8, 9, 10, 11, 16, 17, 20, 22, 24, 26, 27]",147.0639329,10062,798,6,35,10,1.358372254952329
basic,71,32,0,0,0,16,"[0, 19, 13, 15, 28, 12, 16]",7,13,"[2, 3, 5, 8, 9, 10, 11, 17, 20, 22, 24, 26, 27]",131.411457,11041,979,5,15,10,1.4356932930709845
basic,71,32,0,0,0,22,"[0, 19, 13, 15, 28, 12, 16, 22]",8,6,"[2, 8, 9, 17, 20, 27]",97.57360838,12117,1076,3,5,10,1.4335226411545752
basic,71,32,0,0,0,9,"[0, 19, 13, 15, 28, 12, 16, 22, 9]",9,3,"[2, 8, 20]",75.37000507,13125,1008,3,0,10,1.4837166378374758
basic,71,32,0,0,1,8,"[0, 19, 13, 15, 28, 12, 16, 22, 9, 8]",10,0,[],30.24794838,14201,1076,1,0,10,1.3767698817641267
basic,71,32,0,1,1,8,"[0, 19, 13, 15, 28, 12, 16, 22, 9, 8]",10,0,[],30.24794838,16322,2121,1,0,10,1.3767698817641267
basic,72,15,0,0,0,0,[0],1,25,"[1, 2, 3, 4, 7, 8, 9, 10, 11, 12, 13, 14, 15, 16, 18, 20, 21, 22, 23, 24, 25, 26, 27, 28, 29]",300,131,-1,4,65,9,0.0
basic,72,15,0,0,0,12,"[0, 12]",2,22,"[1, 2, 3, 4, 7, 8, 9, 10, 11, 13, 14, 15, 16, 18, 21, 22, 23, 24, 26, 27, 28, 29]",213.547701,8670,8539,4,35,9,1.0
basic,72,15,0,0,0,7,"[0, 12, 7]",3,16,"[1, 3, 4, 8, 9, 10, 11, 13, 14, 15, 16, 18, 21, 22, 24, 27]",180.3061607,10384,1714,4,29,9,1.411291635294361
basic,72,15,0,0,0,11,"[0, 12, 7, 11]",4,9,"[3, 4, 13, 14, 15, 16, 21, 22, 27]",138.8212237,11985,1601,2,12,9,1.2980572092387541
basic,72,15,0,0,0,3,"[0, 12, 7, 11, 3]",5,7,"[4, 13, 14, 15, 16, 21, 22]",127.4194695,12885,900,2,7,9,1.3036925309398455
basic,72,15,0,0,0,16,"[0, 12, 7, 11, 3, 16]",6,5,"[4, 13, 14, 15, 22]",102.3395971,14780,1895,2,2,9,1.731400260973498
basic,72,15,0,0,0,22,"[0, 12, 7, 11, 3, 16, 22]",7,2,"[13, 15]",43.48384117,15659,879,2,0,9,1.4868316064029183
basic,72,15,0,0,0,15,"[0, 12, 7, 11, 3, 16, 22, 15]",8,1,[13],17.87134422,16576,917,1,0,9,1.4366485266193194
basic,72,15,0,0,1,13,"[0, 12, 7, 11, 3, 16, 22, 15, 13]",9,0,[],2.607006702,18493,1917,1,0,9,1.4844435538306184
basic,72,15,0,1,1,13,"[0, 12, 7, 11, 3, 16, 22, 15, 13]",9,0,[],2.607006702,20972,2479,1,0,9,1.4844435538306184
basic,73,28,0,0,0,0,[0],1,27,"[1, 2, 3, 4, 5, 6, 7, 8, 9, 10, 11, 12, 13, 14, 15, 16, 17, 18, 19, 20, 22, 23, 25, 26, 27, 28, 29]",300,115,-1,2,96,9,0.0
basic,73,28,0,0,0,3,"[0, 3]",2,26,"[1, 2, 4, 5, 6, 7, 8, 9, 10, 11, 12, 13, 14, 15, 16, 17, 18, 19, 20, 22, 23, 25, 26, 27, 28, 29]",251.0817008,8252,8137,1,64,9,1.0
basic,73,28,0,0,0,5,"[0, 3, 5]",3,20,"[2, 4, 6, 7, 8, 9, 10, 11, 12, 13, 14, 15, 18, 19, 20, 23, 25, 26, 28, 29]",166.9865166,9911,1659,1,34,9,1.0203769473612083
basic,73,28,0,0,0,26,"[0, 3, 5, 26]",4,13,"[2, 4, 7, 8, 9, 12, 13, 14, 18, 19, 20, 25, 28]",134.2298379,10981,1070,1,28,9,1.0315203228799597
basic,73,28,0,0,0,2,"[0, 3, 5, 26, 2]",5,10,"[4, 7, 8, 9, 12, 13, 18, 19, 25, 28]",93.86896575,13272,2291,7,13,8,1.027257996419408
basic,73,28,0,0,0,19,"[0, 3, 5, 26, 2, 19]",6,4,"[7, 12, 13, 18]",56.50588236,14428,1156,4,1,8,1.3335988625919608
basic,73,28,0,0,0,7,"[0, 3, 5, 26, 2, 19, 7]",7,2,"[12, 13]",28.77503312,15567,1139,2,0,8,1.3845940052005818
basic,73,28,0,0,1,12,"[0, 3, 5, 26, 2, 19, 7, 12]",8,0,[],15.62208668,16335,768,1,0,8,1.380328942242059
basic,73,28,0,1,1,12,"[0, 3, 5, 26, 2, 19, 7, 12]",8,0,[],15.62208668,18631,2296,1,0,8,1.380328942242059
basic,74,2,0,0,0,0,[0],1,23,"[1, 2, 4, 5, 6, 7, 8, 9, 12, 13, 15, 16, 17, 18, 19, 20, 22, 23, 25, 26, 27, 28, 29]",300,124,-1,70,620,10,0.0
basic,74,2,0,0,0,19,"[0, 19]",2,22,"[1, 2, 4, 5, 6, 7, 8, 9, 12, 13, 15, 16, 17, 18, 20, 22, 23, 25, 26, 27, 28, 29]",210.306076,4975,4851,67,431,10,1.0
basic,74,2,0,0,0,12,"[0, 19, 12]",3,17,"[1, 4, 5, 6, 7, 13, 15, 16, 17, 18, 20, 22, 25, 26, 27, 28, 29]",174.2921898,6280,1305,66,298,10,1.1107635036313153
basic,74,2,0,0,0,5,"[0, 19, 12, 5]",4,11,"[1, 6, 7, 13, 15, 16, 18, 22, 25, 26, 29]",144.7625437,7210,930,38,136,10,1.0968174771581647
basic,74,2,0,0,0,22,"[0, 19, 12, 5, 22]",5,8,"[1, 6, 7, 13, 15, 18, 26, 29]",131.9562952,7895,685,20,63,10,1.0889910507461968
basic,74,2,0,0,0,13,"[0, 19, 12, 5, 22, 13]",6,7,"[1, 6, 7, 15, 18, 26, 29]",117.0902265,8785,890,19,20,10,1.236526217328057
basic,74,2,0,0,0,18,"[0, 19, 12, 5, 22, 13, 18]",7,4,"[7, 15, 26, 29]",81.91921567,9693,908,10,3,10,1.2128708213409936
basic,74,2,0,0,0,7,"[0, 19, 12, 5, 22, 13, 18, 7]",8,3,"[15, 26, 29]",71.62358553,10930,1237,5,0,10,1.2019811287894737
basic,74,2,0,0,0,15,"[0, 19, 12, 5, 22, 13, 18, 7, 15]",9,2,"[26, 29]",56.85876247,12593,1663,2,0,10,1.2907869828541363
basic,74,2,0,0,1,29,"[0, 19, 12, 5, 22, 13, 18, 7, 15, 29]",10,0,[],28.39826353,14038,1445,1,0,10,1.4795089334237532
basic,74,2,0,1,1,29,"[0, 19, 12, 5, 22, 13, 18, 7, 15, 29]",10,0,[],28.39826353,15932,1894,1,0,10,1.4795089334237532
basic,75,9,0,0,0,0,[0],1,27,"[1, 3, 4, 5, 6, 7, 8, 9, 10, 11, 13, 14, 15, 16, 17, 18, 19, 20, 21, 22, 23, 24, 25, 26, 27, 28, 29]",300,116,-1,2,182,10,0.0
basic,75,9,0,0,0,8,"[0, 8]",2,25,"[1, 3, 4, 5, 6, 7, 9, 10, 11, 13, 14, 15, 16, 17, 18, 19, 20, 21, 22, 23, 24, 25, 26, 27, 28]",236.2191251,6202,6086,2,102,9,1.0
basic,75,9,0,0,0,28,"[0, 8, 28]",3,23,"[1, 3, 4, 5, 6, 7, 9, 10, 11, 13, 15, 16, 17, 18, 19, 20, 21, 22, 23, 24, 25, 26, 27]",225.4024713,7144,942,2,52,9,1.0043219354187498
basic,75,9,0,0,0,23,"[0, 8, 28, 23]",4,21,"[1, 3, 4, 5, 7, 9, 10, 11, 13, 15, 16, 17, 18, 19, 20, 21, 22, 24, 25, 26, 27]",200.3824793,7826,682,19,104,8,1.6731219967216804
basic,75,9,0,0,0,9,"[0, 8, 28, 23, 9]",5,19,"[1, 3, 4, 5, 7, 10, 11, 13, 15, 16, 18, 19, 20, 21, 22, 24, 25, 26, 27]",178.0217995,9324,1498,12,35,8,1.6380661913087589
basic,75,9,0,0,0,26,"[0, 8, 28, 23, 9, 26]",6,9,"[3, 5, 10, 15, 16, 18, 19, 20, 21]",121.3737634,10760,1436,3,6,8,1.529011463409394
basic,75,9,0,0,0,18,"[0, 8, 28, 23, 9, 26, 18]",7,1,[19],60.49683834,11647,887,1,0,8,1.3743231272597587
basic,75,9,0,0,1,19,"[0, 8, 28, 23, 9, 26, 18, 19]",8,0,[],4.176326981,13293,1646,1,0,8,1.7377957110303042
basic,75,9,0,1,1,19,"[0, 8, 28, 23, 9, 26, 18, 19]",8,0,[],4.176326981,14565,1272,1,0,8,1.7377957110303042
basic,76,1,0,0,0,0,[0],1,26,"[1, 2, 4, 5, 7, 8, 9, 10, 11, 12, 13, 14, 15, 16, 17, 18, 19, 20, 21, 22, 23, 24, 25, 26, 28, 29]",300,143,-1,6,74,7,0.0
basic,76,1,0,0,0,14,"[0, 14]",2,19,"[1, 4, 5, 8, 9, 13, 15, 17, 18, 19, 20, 21, 22, 23, 24, 25, 26, 28, 29]",200.1901808,2166,2023,5,42,7,1.0
basic,76,1,0,0,0,17,"[0, 14, 17]",3,15,"[1, 4, 5, 8, 9, 13, 15, 18, 19, 20, 22, 23, 25, 28, 29]",147.8356204,3330,1164,5,27,7,1.0028844724416826
basic,76,1,0,0,0,1,"[0, 14, 17, 1]",4,12,"[4, 5, 8, 9, 15, 18, 20, 22, 23, 25, 28, 29]",123.4840291,4108,778,5,15,7,1.0264985578353567
basic,76,1,0,0,0,28,"[0, 14, 17, 1, 28]",5,5,"[9, 15, 22, 23, 29]",88.59850198,6031,1923,5,3,7,1.0339861575999345
basic,76,1,0,0,0,23,"[0, 14, 17, 1, 28, 23]",6,2,"[15, 22]",51.70676849,6747,716,2,0,7,1.0327458250705703
basic,76,1,0,0,1,15,"[0, 14, 17, 1, 28, 23, 15]",7,0,[],20.81987807,7811,1064,1,0,7,1.1948681641401226
basic,76,1,0,1,1,15,"[0, 14, 17, 1, 28, 23, 15]",7,0,[],20.81987807,8989,1178,1,0,7,1.1948681641401226
basic,77,7,0,0,0,0,[0],1,29,"[1, 2, 3, 4, 5, 6, 7, 8, 9, 10, 11, 12, 13, 14, 15, 16, 17, 18, 19, 20, 21, 22, 23, 24, 25, 26, 27, 28, 29]",300,117,-1,3,79,9,0.0
basic,77,7,0,0,0,15,"[0, 15]",2,19,"[2, 4, 5, 6, 7, 8, 9, 10, 13, 14, 16, 18, 19, 20, 21, 23, 25, 27, 28]",230.9348134,5256,5139,2,38,9,1.0
basic,77,7,0,0,0,6,"[0, 15, 6]",3,18,"[2, 4, 5, 7, 8, 9, 10, 13, 14, 16, 18, 19, 20, 21, 23, 25, 27, 28]",205.854941,6271,1015,2,36,9,1.366719602896943
basic,77,7,0,0,0,25,"[0, 15, 6, 25]",4,11,"[2, 4, 7, 13, 14, 16, 18, 19, 20, 21, 23]",138.6760753,7815,1544,2,28,9,1.3624631728355765
basic,77,7,0,0,0,4,"[0, 15, 6, 25, 4]",5,7,"[2, 7, 13, 16, 18, 19, 20]",113.9374415,9268,1453,2,12,9,1.3249684384385587
basic,77,7,0,0,0,20,"[0, 15, 6, 25, 4, 20]",6,5,"[2, 7, 13, 18, 19]",94.29055881,10039,771,1,6,9,1.3721893242679268
basic,77,7,0,0,0,18,"[0, 15, 6, 25, 4, 20, 18]",7,3,"[7, 13, 19]",81.48431034,10660,621,1,2,9,1.5262542308371432
basic,77,7,0,0,0,7,"[0, 15, 6, 25, 4, 20, 18, 7]",8,1,[19],40.25325408,11952,1292,1,0,9,1.41986878673423
basic,77,7,0,0,1,19,"[0, 15, 6, 25, 4, 20, 18, 7, 19]",9,0,[],10.84237174,13230,1278,1,0,9,1.5285658163212987
basic,77,7,0,1,1,19,"[0, 15, 6, 25, 4, 20, 18, 7, 19]",9,0,[],10.84237174,14232,1002,1,0,9,1.5285658163212987
basic,78,19,0,0,0,0,[0],1,29,"[1, 2, 3, 4, 5, 6, 7, 8, 9, 10, 11, 12, 13, 14, 15, 16, 17, 18, 19, 20, 21, 22, 23, 24, 25, 26, 27, 28, 29]",300,123,-1,12,149,8,0.0
basic,78,19,0,0,0,29,"[0, 29]",2,28,"[1, 2, 3, 4, 5, 6, 7, 8, 9, 10, 11, 12, 13, 14, 15, 16, 17, 18, 19, 20, 21, 22, 23, 24, 25, 26, 27, 28]",265.0715016,2643,2520,12,120,8,1.0
basic,78,19,0,0,0,9,"[0, 29, 9]",3,17,"[1, 4, 5, 6, 7, 10, 11, 12, 13, 14, 19, 20, 21, 22, 24, 27, 28]",181.7108394,3802,1159,11,65,8,1.0375842971861238
basic,78,19,0,0,0,6,"[0, 29, 9, 6]",4,12,"[4, 7, 10, 11, 13, 14, 20, 21, 22, 24, 27, 28]",140.2741407,4818,1016,11,34,8,1.0389786364356892
basic,78,19,0,0,0,4,"[0, 29, 9, 6, 4]",5,7,"[10, 11, 14, 20, 22, 27, 28]",99.22538921,5789,971,2,6,8,1.2182485830176533
basic,78,19,0,0,0,28,"[0, 29, 9, 6, 4, 28]",6,3,"[11, 14, 27]",88.04504932,6569,780,2,1,8,1.2933703503588658
basic,78,19,0,0,0,14,"[0, 29, 9, 6, 4, 28, 14]",7,1,[11],30.46032912,7522,953,1,0,8,1.2889112786863766
basic,78,19,0,0,1,11,"[0, 29, 9, 6, 4, 28, 14, 11]",8,0,[],19.6436753,8556,1034,1,0,8,1.2786737377290265
basic,78,19,0,1,1,11,"[0, 29, 9, 6, 4, 28, 14, 11]",8,0,[],19.6436753,10148,1592,1,0,8,1.2786737377290265
basic,79,38,0,0,0,0,[0],1,29,"[1, 2, 3, 4, 5, 6, 7, 8, 9, 10, 11, 12, 13, 14, 15, 16, 17, 18, 19, 20, 21, 22, 23, 24, 25, 26, 27, 28, 29]",300,116,-1,33,506,9,0.0
basic,79,38,0,0,0,20,"[0, 20]",2,28,"[1, 2, 3, 4, 5, 6, 7, 8, 9, 10, 11, 12, 13, 14, 15, 16, 17, 18, 19, 21, 22, 23, 24, 25, 26, 27, 28, 29]",246.1483519,2409,2293,14,198,9,1.0
basic,79,38,0,0,0,4,"[0, 20, 4]",3,23,"[1, 3, 5, 6, 7, 10, 11, 12, 13, 14, 15, 16, 17, 18, 19, 22, 23, 24, 25, 26, 27, 28, 29]",212.2072264,7326,4917,4,62,9,1.2521398361687723
basic,79,38,0,0,0,13,"[0, 20, 4, 13]",4,15,"[3, 5, 11, 12, 14, 15, 16, 17, 18, 19, 22, 24, 26, 27, 28]",180.8065895,8379,1053,20,54,8,1.2194377295469292
basic,79,38,0,0,0,26,"[0, 20, 4, 13, 26]",5,10,"[11, 15, 16, 17, 18, 19, 22, 24, 27, 28]",149.7582401,10334,1955,8,13,8,1.1933725086257858
basic,79,38,0,0,0,24,"[0, 20, 4, 13, 26, 24]",6,4,"[11, 15, 16, 28]",118.9523965,11710,1376,1,3,8,1.1664963781354531
basic,79,38,0,0,1,15,"[0, 20, 4, 13, 26, 24, 15]",7,0,[],28.81361461,12909,1199,1,0,7,3.6958586824460347
basic,79,38,0,1,1,15,"[0, 20, 4, 13, 26, 24, 15]",7,0,[],28.81361461,14315,1406,1,0,7,3.6958586824460347
basic,80,40,0,0,0,0,[0],1,29,"[1, 2, 3, 4, 5, 6, 7, 8, 9, 10, 11, 12, 13, 14, 15, 16, 17, 18, 19, 20, 21, 22, 23, 24, 25, 26, 27, 28, 29]",300,116,-1,8,191,9,0.0
basic,80,40,0,0,0,1,"[0, 1]",2,18,"[2, 5, 6, 7, 8, 9, 10, 11, 13, 15, 17, 18, 19, 21, 22, 23, 27, 29]",247.8463808,5629,5513,4,80,9,1.0
