condition,trial_id,map_id,undoIndicator,submit,checkEnd,currentChoice,chosen_all,n_city_all,n_within_reach,cities_reach,currentBudget,time_all,rt_all,n_opt_paths_all,n_subopt_paths_all,mas_all,tortuosity_all
basic,0,41,0,0,0,0,[0],1,29,"[1, 2, 3, 4, 5, 6, 7, 8, 9, 10, 11, 12, 13, 14, 15, 16, 17, 18, 19, 20, 21, 22, 23, 24, 25, 26, 27, 28, 29]",300,125,-1,1,143,10,0.0
basic,0,41,0,0,0,28,"[0, 28]",2,27,"[1, 2, 3, 5, 6, 7, 8, 9, 10, 11, 12, 13, 14, 15, 16, 17, 18, 19, 20, 21, 22, 23, 24, 25, 26, 27, 29]",259.8004975,7569,7444,37,249,9,1.0
basic,0,41,0,0,0,5,"[0, 28, 5]",3,26,"[1, 2, 3, 6, 7, 8, 9, 10, 11, 12, 13, 14, 15, 16, 17, 18, 19, 20, 21, 22, 23, 24, 25, 26, 27, 29]",246.199027,8681,1112,30,182,9,1.714241539747437
basic,0,41,0,0,0,3,"[0, 28, 5, 3]",4,25,"[1, 2, 6, 7, 8, 9, 10, 11, 12, 13, 14, 15, 16, 17, 18, 19, 20, 21, 22, 23, 24, 25, 26, 27, 29]",211.3708775,10085,1404,20,93,9,2.2367972660995847
basic,0,41,0,0,0,21,"[0, 28, 5, 3, 21]",5,19,"[1, 2, 6, 9, 10, 11, 12, 13, 14, 15, 17, 18, 19, 20, 22, 24, 25, 26, 27]",179.2305601,11207,1122,12,46,9,2.470864770481327
basic,0,41,0,0,0,9,"[0, 28, 5, 3, 21, 9]",6,13,"[1, 2, 10, 12, 13, 14, 15, 17, 19, 22, 24, 25, 26]",129.8645799,12412,1205,3,17,9,2.0674559404382
basic,0,41,0,0,0,2,"[0, 28, 5, 3, 21, 9, 2]",7,9,"[1, 10, 12, 14, 15, 17, 19, 22, 24]",117.7815339,13229,817,2,7,9,2.0139863201149533
basic,0,41,0,0,0,17,"[0, 28, 5, 3, 21, 9, 2, 17]",8,1,[10],85.22389276,14174,945,1,0,9,3.388293326704014
basic,0,41,0,0,1,10,"[0, 28, 5, 3, 21, 9, 2, 17, 10]",9,0,[],35.97960375,19789,5615,1,0,9,3.1208433501016275
basic,0,41,0,1,1,10,"[0, 28, 5, 3, 21, 9, 2, 17, 10]",9,0,[],35.97960375,21252,1463,1,0,9,3.1208433501016275
basic,1,3,0,0,0,0,[0],1,29,"[1, 2, 3, 4, 5, 6, 7, 8, 9, 10, 11, 12, 13, 14, 15, 16, 17, 18, 19, 20, 21, 22, 23, 24, 25, 26, 27, 28, 29]",300,131,-1,34,427,10,0.0
basic,1,3,0,0,0,7,"[0, 7]",2,28,"[1, 2, 3, 4, 5, 6, 8, 9, 10, 11, 12, 13, 14, 15, 16, 17, 18, 19, 20, 21, 22, 23, 24, 25, 26, 27, 28, 29]",278.8103799,3671,3540,24,215,10,1.0
basic,1,3,0,0,0,8,"[0, 7, 8]",3,24,"[1, 2, 3, 4, 5, 6, 10, 11, 12, 13, 14, 15, 16, 17, 18, 19, 20, 21, 22, 24, 25, 26, 27, 28]",222.837172,5366,1695,16,114,10,1.2853332575451413
basic,1,3,0,0,0,24,"[0, 7, 8, 24]",4,21,"[1, 3, 4, 5, 6, 10, 11, 12, 14, 15, 16, 17, 18, 19, 20, 21, 22, 25, 26, 27, 28]",210.671647,6110,744,16,91,10,1.5177505014936548
basic,1,3,0,0,0,17,"[0, 7, 8, 24, 17]",5,9,"[3, 4, 10, 14, 15, 16, 19, 20, 21]",141.3174834,7509,1399,7,26,10,1.5510961300062232
basic,1,3,0,0,0,20,"[0, 7, 8, 24, 17, 20]",6,7,"[3, 4, 10, 14, 16, 19, 21]",128.6683728,8202,693,7,14,10,1.5133082717474817
basic,1,3,0,0,0,3,"[0, 7, 8, 24, 17, 20, 3]",7,5,"[4, 10, 14, 19, 21]",108.2722947,8926,724,7,4,10,1.5325960555943097
basic,1,3,0,0,0,19,"[0, 7, 8, 24, 17, 20, 3, 19]",8,3,"[10, 14, 21]",70.93598532,9854,928,3,1,10,1.5521294182529992
basic,1,3,0,0,0,21,"[0, 7, 8, 24, 17, 20, 3, 19, 21]",9,2,"[10, 14]",58.72942971,10450,596,2,0,10,1.5690424431931145
basic,1,3,0,0,1,14,"[0, 7, 8, 24, 17, 20, 3, 19, 21, 14]",10,0,[],31.82218161,11824,1374,1,0,10,2.0836613372745463
basic,1,3,0,1,1,14,"[0, 7, 8, 24, 17, 20, 3, 19, 21, 14]",10,0,[],31.82218161,13527,1703,1,0,10,2.0836613372745463
basic,2,31,0,0,0,0,[0],1,27,"[1, 3, 4, 5, 6, 7, 8, 10, 11, 12, 13, 14, 15, 16, 17, 18, 19, 20, 21, 22, 23, 24, 25, 26, 27, 28, 29]",300,131,-1,2,87,10,0.0
basic,2,31,0,0,0,14,"[0, 14]",2,25,"[1, 3, 5, 6, 7, 8, 10, 11, 12, 13, 15, 16, 17, 18, 19, 20, 21, 22, 23, 24, 25, 26, 27, 28, 29]",263.861378,2120,1989,2,59,10,1.0
basic,2,31,0,0,0,27,"[0, 14, 27]",3,22,"[1, 3, 5, 6, 7, 8, 10, 11, 12, 13, 15, 16, 17, 18, 19, 20, 21, 22, 24, 25, 28, 29]",235.6833724,4376,2256,1,39,10,1.5881859159302467
basic,2,31,0,0,0,8,"[0, 14, 27, 8]",4,20,"[1, 3, 5, 6, 7, 10, 11, 12, 13, 16, 17, 18, 19, 20, 21, 22, 24, 25, 28, 29]",224.6380114,5024,648,1,36,10,2.1665048452331277
basic,2,31,0,0,0,18,"[0, 14, 27, 8, 18]",5,15,"[1, 5, 6, 7, 11, 12, 13, 16, 17, 19, 20, 22, 25, 28, 29]",188.7911147,5839,815,1,26,10,1.7273375741920205
basic,2,31,0,0,0,17,"[0, 14, 27, 8, 18, 17]",6,13,"[1, 5, 6, 7, 11, 12, 13, 16, 19, 20, 22, 25, 28]",159.584951,9432,3593,1,13,10,1.551192427769927
basic,2,31,0,0,0,11,"[0, 14, 27, 8, 18, 17, 11]",7,7,"[5, 12, 16, 19, 22, 25, 28]",118.4753414,11831,2399,1,4,10,2.9650760544203494
basic,2,31,0,0,0,5,"[0, 14, 27, 8, 18, 17, 11, 5]",8,2,"[16, 28]",74.79468207,13014,1183,1,1,10,2.56711965625205
basic,2,31,0,0,0,28,"[0, 14, 27, 8, 18, 17, 11, 5, 28]",9,1,[16],54.57093365,14203,1189,1,0,10,2.2865510762058148
basic,2,31,0,0,1,16,"[0, 14, 27, 8, 18, 17, 11, 5, 28, 16]",10,0,[],20.95546102,15200,997,1,0,10,2.089356850786318
basic,2,31,0,1,1,16,"[0, 14, 27, 8, 18, 17, 11, 5, 28, 16]",10,0,[],20.95546102,16126,926,1,0,10,2.089356850786318
basic,3,42,0,0,0,0,[0],1,29,"[1, 2, 3, 4, 5, 6, 7, 8, 9, 10, 11, 12, 13, 14, 15, 16, 17, 18, 19, 20, 21, 22, 23, 24, 25, 26, 27, 28, 29]",300,137,-1,16,302,9,0.0
basic,3,42,0,0,0,5,"[0, 5]",2,28,"[1, 2, 3, 4, 6, 7, 8, 9, 10, 11, 12, 13, 14, 15, 16, 17, 18, 19, 20, 21, 22, 23, 24, 25, 26, 27, 28, 29]",191.2939744,9286,9149,1,22,9,1.0
basic,3,42,0,0,0,4,"[0, 5, 4]",3,23,"[1, 2, 3, 6, 7, 8, 9, 10, 11, 13, 15, 17, 18, 19, 20, 21, 22, 23, 24, 25, 26, 27, 29]",171.4445412,11065,1779,1,14,9,1.420957801478707
basic,3,42,0,0,0,22,"[0, 5, 4, 22]",4,20,"[1, 2, 3, 6, 7, 8, 9, 11, 15, 17, 18, 19, 20, 21, 23, 24, 25, 26, 27, 29]",160.2642013,11672,607,1,11,9,1.5771494659680896
basic,3,42,0,0,0,8,"[0, 5, 4, 22, 8]",5,14,"[1, 2, 3, 6, 7, 11, 15, 18, 19, 24, 25, 26, 27, 29]",138.1282577,12434,762,1,10,9,1.5055393955524201
basic,3,42,0,0,0,1,"[0, 5, 4, 22, 8, 1]",6,5,"[2, 7, 19, 26, 27]",89.03650682,13669,1235,1,7,9,1.3547259083637835
basic,3,42,0,0,0,7,"[0, 5, 4, 22, 8, 1, 7]",7,4,"[2, 19, 26, 27]",59.03650682,14646,977,1,3,9,1.3909715672447451
basic,3,42,0,0,0,26,"[0, 5, 4, 22, 8, 1, 7, 26]",8,1,[27],32.46584631,16157,1511,1,0,9,1.3511825943939393
basic,3,42,0,0,1,27,"[0, 5, 4, 22, 8, 1, 7, 26, 27]",9,0,[],14.43808994,17138,981,1,0,9,1.3391911688802078
basic,3,42,0,1,1,27,"[0, 5, 4, 22, 8, 1, 7, 26, 27]",9,0,[],14.43808994,18092,954,1,0,9,1.3391911688802078
basic,4,11,0,0,0,0,[0],1,25,"[1, 2, 3, 4, 5, 6, 8, 9, 10, 11, 12, 13, 14, 15, 16, 17, 18, 19, 20, 22, 23, 25, 26, 27, 28]",300,130,-1,6,374,12,0.0
basic,4,11,0,0,0,18,"[0, 18]",2,21,"[1, 2, 4, 5, 6, 8, 9, 11, 12, 13, 14, 15, 16, 17, 19, 20, 22, 23, 25, 27, 28]",236.8493864,2639,2509,157,1477,11,1.0
basic,4,11,0,0,0,27,"[0, 18, 27]",3,19,"[1, 2, 4, 5, 6, 8, 9, 11, 12, 14, 15, 16, 17, 19, 20, 22, 23, 25, 28]",212.9956655,3567,928,157,1315,11,1.060949579704323
basic,4,11,0,0,0,17,"[0, 18, 27, 17]",4,14,"[1, 2, 4, 5, 6, 8, 11, 12, 15, 19, 22, 23, 25, 28]",135.9177828,4622,1055,46,349,11,1.1156120043677304
basic,4,11,0,0,0,8,"[0, 18, 27, 17, 8]",5,11,"[1, 2, 5, 6, 11, 12, 15, 19, 22, 25, 28]",121.5999617,5689,1067,26,143,11,1.2285932943120847
basic,4,11,0,0,0,11,"[0, 18, 27, 17, 8, 11]",6,7,"[2, 5, 12, 15, 19, 22, 28]",93.43970607,7306,1617,43,16,10,1.1914648976046733
basic,4,11,0,0,0,28,"[0, 18, 27, 17, 8, 11, 28]",7,4,"[2, 5, 15, 22]",74.02321823,9415,2109,9,5,10,1.3077106047812512
basic,4,11,0,0,0,5,"[0, 18, 27, 17, 8, 11, 28, 5]",8,3,"[2, 15, 22]",56.13467441,12496,3081,2,1,10,1.498929775813953
basic,4,11,0,0,0,2,"[0, 18, 27, 17, 8, 11, 28, 5, 2]",9,1,[22],39.13467441,13225,729,1,0,10,1.46152787289404
basic,4,11,0,0,1,22,"[0, 18, 27, 17, 8, 11, 28, 5, 2, 22]",10,0,[],29.08479879,14586,1361,1,0,10,1.436958133571866
basic,4,11,0,1,1,22,"[0, 18, 27, 17, 8, 11, 28, 5, 2, 22]",10,0,[],29.08479879,16026,1440,1,0,10,1.436958133571866
basic,5,28,0,0,0,0,[0],1,27,"[1, 2, 3, 4, 5, 6, 7, 8, 9, 10, 11, 12, 13, 14, 15, 16, 17, 18, 19, 20, 22, 23, 25, 26, 27, 28, 29]",300,130,-1,2,96,9,0.0
basic,5,28,0,0,0,3,"[0, 3]",2,26,"[1, 2, 4, 5, 6, 7, 8, 9, 10, 11, 12, 13, 14, 15, 16, 17, 18, 19, 20, 22, 23, 25, 26, 27, 28, 29]",251.0817008,6685,6555,1,64,9,1.0
basic,5,28,0,0,0,5,"[0, 3, 5]",3,20,"[2, 4, 6, 7, 8, 9, 10, 11, 12, 13, 14, 15, 18, 19, 20, 23, 25, 26, 28, 29]",166.9865166,7730,1045,1,34,9,1.0203769473612083
basic,5,28,0,0,0,26,"[0, 3, 5, 26]",4,13,"[2, 4, 7, 8, 9, 12, 13, 14, 18, 19, 20, 25, 28]",134.2298379,8542,812,1,28,9,1.0315203228799597
basic,5,28,0,0,0,19,"[0, 3, 5, 26, 19]",5,7,"[2, 7, 9, 12, 13, 14, 18]",93.22983789,9598,1056,1,17,9,1.1324645362297356
basic,5,28,0,0,0,7,"[0, 3, 5, 26, 19, 7]",6,5,"[2, 12, 13, 14, 18]",65.49898864,10953,1355,1,6,9,1.1971194919020265
basic,5,28,0,0,0,12,"[0, 3, 5, 26, 19, 7, 12]",7,2,"[13, 18]",52.3460422,11601,648,1,1,9,1.2020762147848982
basic,5,28,0,0,0,13,"[0, 3, 5, 26, 19, 7, 12, 13]",8,1,[18],35.14139167,12729,1128,1,0,9,1.39005144078531
basic,5,28,0,0,1,18,"[0, 3, 5, 26, 19, 7, 12, 13, 18]",9,0,[],10.72828044,14196,1467,1,0,9,1.738787343626007
basic,5,28,0,1,1,18,"[0, 3, 5, 26, 19, 7, 12, 13, 18]",9,0,[],10.72828044,14893,697,1,0,9,1.738787343626007
basic,6,21,0,0,0,0,[0],1,29,"[1, 2, 3, 4, 5, 6, 7, 8, 9, 10, 11, 12, 13, 14, 15, 16, 17, 18, 19, 20, 21, 22, 23, 24, 25, 26, 27, 28, 29]",300,131,-1,84,830,9,0.0
basic,6,21,0,0,0,18,"[0, 18]",2,28,"[1, 2, 3, 4, 5, 6, 7, 8, 9, 10, 11, 12, 13, 14, 15, 16, 17, 19, 20, 21, 22, 23, 24, 25, 26, 27, 28, 29]",240.923778,4936,4805,44,305,9,1.0
basic,6,21,0,0,0,25,"[0, 18, 25]",3,23,"[1, 2, 3, 4, 6, 7, 8, 9, 10, 11, 12, 14, 15, 16, 17, 20, 21, 22, 23, 24, 26, 27, 29]",199.162552,7577,2641,16,84,9,1.6857830307656476
basic,6,21,0,0,0,23,"[0, 18, 25, 23]",4,13,"[4, 6, 8, 9, 14, 15, 16, 17, 20, 21, 22, 24, 29]",155.838194,8571,994,9,35,9,1.4558828002680828
basic,6,21,0,0,0,14,"[0, 18, 25, 23, 14]",5,8,"[4, 8, 15, 16, 17, 21, 24, 29]",126.7693103,9683,1112,5,10,9,1.5123695230442378
basic,6,21,0,0,0,4,"[0, 18, 25, 23, 14, 4]",6,6,"[8, 15, 16, 21, 24, 29]",112.6271746,10836,1153,5,2,9,1.4649235336899369
basic,6,21,0,0,0,16,"[0, 18, 25, 23, 14, 4, 16]",7,2,"[8, 15]",68.0289684,11806,970,2,0,9,1.421210778661381
basic,6,21,0,0,0,8,"[0, 18, 25, 23, 14, 4, 16, 8]",8,1,[15],49.42789316,13217,1411,1,0,9,1.383026040049786
basic,6,21,0,0,1,15,"[0, 18, 25, 23, 14, 4, 16, 8, 15]",9,0,[],24.42789316,13993,776,1,0,9,1.6369496960130507
basic,6,21,0,1,1,15,"[0, 18, 25, 23, 14, 4, 16, 8, 15]",9,0,[],24.42789316,15226,1233,1,0,9,1.6369496960130507
basic,7,36,0,0,0,0,[0],1,24,"[2, 4, 5, 6, 7, 8, 9, 10, 12, 13, 14, 15, 16, 17, 18, 19, 20, 22, 23, 25, 26, 27, 28, 29]",300,148,-1,2,200,10,0.0
basic,7,36,0,0,0,12,"[0, 12]",2,23,"[2, 4, 5, 6, 7, 8, 9, 10, 13, 14, 15, 16, 17, 18, 19, 20, 22, 23, 25, 26, 27, 28, 29]",277.7963967,2110,1962,90,804,9,1.0
basic,7,36,0,0,0,9,"[0, 12, 9]",3,14,"[2, 4, 8, 10, 13, 16, 17, 18, 19, 23, 25, 27, 28, 29]",215.4345494,3693,1583,32,191,9,1.224429481246385
basic,7,36,0,0,0,16,"[0, 12, 9, 16]",4,8,"[2, 10, 13, 17, 18, 19, 23, 25]",168.137615,5001,1308,7,26,9,1.235383731443557
basic,7,36,0,0,0,17,"[0, 12, 9, 16, 17]",5,6,"[2, 10, 13, 18, 19, 25]",139.8180105,5677,676,7,14,9,1.6947865799475665
basic,7,36,0,0,0,19,"[0, 12, 9, 16, 17, 19]",6,5,"[2, 10, 13, 18, 25]",111.9253591,8262,2585,6,1,9,2.440059772477113
basic,7,36,0,0,0,2,"[0, 12, 9, 16, 17, 19, 2]",7,2,"[13, 25]",74.80393675,10039,1777,2,0,9,1.994135267441798
basic,7,36,0,0,0,25,"[0, 12, 9, 16, 17, 19, 2, 25]",8,1,[13],49.80393675,10870,831,1,0,9,2.1853059870598197
basic,7,36,0,0,1,13,"[0, 12, 9, 16, 17, 19, 2, 25, 13]",9,0,[],29.21267647,12024,1154,1,0,9,2.7608371719978186
basic,7,36,0,1,1,13,"[0, 12, 9, 16, 17, 19, 2, 25, 13]",9,0,[],29.21267647,15227,3203,1,0,9,2.7608371719978186
basic,8,7,0,0,0,0,[0],1,29,"[1, 2, 3, 4, 5, 6, 7, 8, 9, 10, 11, 12, 13, 14, 15, 16, 17, 18, 19, 20, 21, 22, 23, 24, 25, 26, 27, 28, 29]",300,131,-1,3,79,9,0.0
basic,8,7,0,0,0,25,"[0, 25]",2,20,"[2, 3, 4, 5, 6, 7, 10, 13, 14, 15, 16, 18, 19, 20, 21, 22, 23, 24, 27, 28]",181.5939191,4253,4122,5,33,8,1.0
basic,8,7,0,0,0,4,"[0, 25, 4]",3,11,"[2, 6, 7, 13, 15, 16, 18, 19, 20, 21, 23]",156.8552853,5254,1001,2,14,8,1.0193465608331511
basic,8,7,0,0,0,20,"[0, 25, 4, 20]",4,8,"[2, 6, 7, 13, 15, 16, 18, 19]",137.2084026,6825,1571,1,9,8,1.085904909082323
basic,8,7,0,0,0,18,"[0, 25, 4, 20, 18]",5,7,"[2, 6, 7, 13, 15, 16, 19]",124.4021541,7627,802,1,5,8,1.2264883846453758
basic,8,7,0,0,0,7,"[0, 25, 4, 20, 18, 7]",6,2,"[2, 19]",83.17109789,8764,1137,1,1,8,1.185264473968278
basic,8,7,0,0,0,19,"[0, 25, 4, 20, 18, 7, 19]",7,1,[2],53.76021555,11304,2540,1,0,8,1.3016904288278204
basic,8,7,0,0,1,2,"[0, 25, 4, 20, 18, 7, 19, 2]",8,0,[],23.61058868,12281,977,1,0,8,1.3168868000947171
basic,8,7,0,1,1,2,"[0, 25, 4, 20, 18, 7, 19, 2]",8,0,[],23.61058868,13077,796,1,0,8,1.3168868000947171
basic,9,2,0,0,0,0,[0],1,23,"[1, 2, 4, 5, 6, 7, 8, 9, 12, 13, 15, 16, 17, 18, 19, 20, 22, 23, 25, 26, 27, 28, 29]",300,131,-1,70,620,10,0.0
basic,9,2,0,0,0,19,"[0, 19]",2,22,"[1, 2, 4, 5, 6, 7, 8, 9, 12, 13, 15, 16, 17, 18, 20, 22, 23, 25, 26, 27, 28, 29]",210.306076,2157,2026,67,431,10,1.0
basic,9,2,0,0,0,12,"[0, 19, 12]",3,17,"[1, 4, 5, 6, 7, 13, 15, 16, 17, 18, 20, 22, 25, 26, 27, 28, 29]",174.2921898,3184,1027,66,298,10,1.1107635036313153
basic,9,2,0,0,0,5,"[0, 19, 12, 5]",4,11,"[1, 6, 7, 13, 15, 16, 18, 22, 25, 26, 29]",144.7625437,4317,1133,38,136,10,1.0968174771581647
basic,9,2,0,0,0,22,"[0, 19, 12, 5, 22]",5,8,"[1, 6, 7, 13, 15, 18, 26, 29]",131.9562952,5489,1172,20,63,10,1.0889910507461968
basic,9,2,0,0,0,13,"[0, 19, 12, 5, 22, 13]",6,7,"[1, 6, 7, 15, 18, 26, 29]",117.0902265,6481,992,19,20,10,1.236526217328057
basic,9,2,0,0,0,18,"[0, 19, 12, 5, 22, 13, 18]",7,4,"[7, 15, 26, 29]",81.91921567,7733,1252,10,3,10,1.2128708213409936
basic,9,2,0,0,0,7,"[0, 19, 12, 5, 22, 13, 18, 7]",8,3,"[15, 26, 29]",71.62358553,8974,1241,5,0,10,1.2019811287894737
basic,9,2,0,0,0,26,"[0, 19, 12, 5, 22, 13, 18, 7, 26]",9,2,"[15, 29]",48.82007703,11470,2496,2,0,10,1.1883593342191134
basic,9,2,0,0,1,15,"[0, 19, 12, 5, 22, 13, 18, 7, 26, 15]",10,0,[],24.61264015,12973,1503,1,0,10,1.4619750353663825
basic,9,2,0,1,1,15,"[0, 19, 12, 5, 22, 13, 18, 7, 26, 15]",10,0,[],24.61264015,15493,2520,1,0,10,1.4619750353663825
basic,10,4,0,0,0,0,[0],1,26,"[3, 4, 5, 6, 7, 8, 10, 11, 12, 13, 14, 15, 16, 17, 18, 19, 20, 21, 22, 23, 24, 25, 26, 27, 28, 29]",300,131,-1,4,489,10,0.0
basic,10,4,0,0,0,28,"[0, 28]",2,21,"[3, 4, 5, 6, 10, 11, 12, 13, 14, 15, 16, 17, 19, 20, 21, 22, 23, 24, 25, 26, 27]",225.9392142,1841,1710,2,216,10,1.0
basic,10,4,0,0,0,14,"[0, 28, 14]",3,13,"[3, 4, 5, 6, 11, 13, 16, 17, 20, 21, 22, 24, 25]",159.6972335,4174,2333,1,26,10,1.0273973946789214
basic,10,4,0,0,0,25,"[0, 28, 14, 25]",4,12,"[3, 4, 5, 6, 11, 13, 16, 17, 20, 21, 22, 24]",143.572718,5316,1142,1,25,10,1.233547772313525
basic,10,4,0,0,0,11,"[0, 28, 14, 25, 11]",5,10,"[3, 4, 5, 6, 13, 16, 17, 20, 21, 22]",124.7844238,6122,806,1,15,10,1.425978575879479
basic,10,4,0,0,0,16,"[0, 28, 14, 25, 11, 16]",6,9,"[3, 4, 5, 6, 13, 17, 20, 21, 22]",109.7844238,8077,1955,1,12,10,1.3799325158051412
basic,10,4,0,0,0,17,"[0, 28, 14, 25, 11, 16, 17]",7,5,"[3, 5, 20, 21, 22]",83.70761416,9368,1291,1,5,10,1.3195184878861832
basic,10,4,0,0,0,20,"[0, 28, 14, 25, 11, 16, 17, 20]",8,3,"[5, 21, 22]",43.48324344,10482,1114,1,2,10,1.4038284317031835
basic,10,4,0,0,1,5,"[0, 28, 14, 25, 11, 16, 17, 20, 5]",9,0,[],13.06943079,11541,1059,1,0,9,1.4533021046455652
basic,10,4,0,1,1,5,"[0, 28, 14, 25, 11, 16, 17, 20, 5]",9,0,[],13.06943079,12428,887,1,0,9,1.4533021046455652
basic,11,45,0,0,0,0,[0],1,24,"[1, 2, 3, 4, 5, 6, 7, 9, 10, 11, 12, 14, 15, 16, 17, 19, 20, 21, 22, 23, 24, 25, 27, 29]",300,114,-1,6,248,10,0.0
basic,11,45,0,0,0,15,"[0, 15]",2,23,"[1, 2, 3, 4, 5, 6, 7, 9, 10, 11, 12, 14, 16, 17, 19, 20, 21, 22, 23, 24, 25, 27, 29]",253.9022777,3008,2894,5,207,10,1.0
basic,11,45,0,0,0,23,"[0, 15, 23]",3,22,"[1, 2, 3, 4, 5, 6, 7, 9, 10, 11, 12, 14, 16, 17, 19, 20, 21, 22, 24, 25, 27, 29]",230.3014303,3862,854,5,163,10,1.0006068457769497
basic,11,45,0,0,0,20,"[0, 15, 23, 20]",4,19,"[1, 2, 3, 5, 6, 7, 9, 10, 11, 12, 14, 16, 17, 19, 21, 22, 24, 25, 29]",188.8647316,4971,1109,5,137,10,1.2062119754673604
basic,11,45,0,0,0,10,"[0, 15, 23, 20, 10]",5,12,"[2, 3, 6, 7, 9, 12, 14, 17, 22, 24, 25, 29]",132.784432,6209,1238,1,54,10,1.1363907740691004
basic,11,45,0,0,0,29,"[0, 15, 23, 20, 10, 29]",6,8,"[2, 3, 6, 7, 12, 14, 22, 24]",111.2437728,7516,1307,1,21,10,1.1719694806770014
basic,11,45,0,0,0,3,"[0, 15, 23, 20, 10, 29, 3]",7,5,"[2, 6, 7, 12, 22]",91.24377276,8785,1269,1,7,10,1.1637144299354454
basic,11,45,0,0,0,6,"[0, 15, 23, 20, 10, 29, 3, 6]",8,2,"[12, 22]",55.0084309,9586,801,1,1,10,1.422423644740367
basic,11,45,0,0,0,12,"[0, 15, 23, 20, 10, 29, 3, 6, 12]",9,1,[22],34.8838191,11814,2228,1,0,10,1.395348320526316
basic,11,45,0,0,1,22,"[0, 15, 23, 20, 10, 29, 3, 6, 12, 22]",10,0,[],3.308512292,12786,972,1,0,10,1.3962454826892252
basic,11,45,0,1,1,22,"[0, 15, 23, 20, 10, 29, 3, 6, 12, 22]",10,0,[],3.308512292,14177,1391,1,0,10,1.3962454826892252
basic,12,30,0,0,0,0,[0],1,19,"[3, 4, 5, 7, 9, 11, 16, 17, 18, 19, 20, 21, 22, 24, 25, 26, 27, 28, 29]",300,147,-1,5,41,8,0.0
basic,12,30,0,0,0,27,"[0, 27]",2,10,"[3, 5, 7, 9, 18, 19, 20, 24, 25, 29]",90.59608409,6069,5922,7,22,6,1.0
basic,12,30,0,0,0,3,"[0, 27, 3]",3,8,"[5, 7, 18, 19, 20, 24, 25, 29]",71.49111091,8325,2256,5,9,6,1.0022223300201003
basic,12,30,0,0,0,29,"[0, 27, 3, 29]",4,5,"[5, 7, 18, 19, 20]",52.89003567,9204,879,2,3,6,1.0149900937654948
basic,12,30,0,0,0,18,"[0, 27, 3, 29, 18]",5,1,[5],33.57682776,14835,5631,1,0,6,1.0907994995031296
basic,12,30,0,0,1,5,"[0, 27, 3, 29, 18, 5]",6,0,[],20.53842295,18025,3190,1,0,6,1.1556882660658163
basic,12,30,0,1,1,5,"[0, 27, 3, 29, 18, 5]",6,0,[],20.53842295,19875,1850,1,0,6,1.1556882660658163
basic,13,17,0,0,0,0,[0],1,28,"[1, 2, 3, 4, 5, 6, 7, 8, 9, 10, 11, 12, 13, 14, 15, 16, 17, 18, 19, 20, 22, 23, 24, 25, 26, 27, 28, 29]",300,181,-1,2,73,8,0.0
basic,13,17,0,0,0,9,"[0, 9]",2,25,"[1, 2, 3, 5, 6, 7, 8, 10, 11, 12, 14, 15, 16, 17, 18, 19, 20, 22, 23, 24, 25, 26, 27, 28, 29]",210.5293344,6788,6607,1,34,8,1.0
basic,13,17,0,0,0,16,"[0, 9, 16]",3,21,"[1, 2, 3, 5, 7, 8, 10, 11, 12, 14, 17, 18, 19, 20, 22, 23, 25, 26, 27, 28, 29]",197.1876704,7491,703,1,26,8,1.173103464220352
basic,13,17,0,0,0,2,"[0, 9, 16, 2]",4,18,"[1, 3, 5, 7, 8, 10, 11, 12, 14, 17, 18, 19, 23, 25, 26, 27, 28, 29]",181.0631549,8148,657,1,23,8,1.14825089247282
basic,13,17,0,0,0,8,"[0, 9, 16, 2, 8]",5,9,"[3, 7, 10, 11, 12, 14, 17, 26, 27]",145.9490551,9044,896,1,9,8,1.1509808066472915
basic,13,17,0,0,0,27,"[0, 9, 16, 2, 8, 27]",6,3,"[7, 12, 26]",63.31129136,10577,1533,1,2,8,1.1020704318716983
basic,13,17,0,0,0,12,"[0, 9, 16, 2, 8, 27, 12]",7,1,[26],40.31129136,11613,1036,1,0,8,1.094321365620665
basic,13,17,0,0,1,26,"[0, 9, 16, 2, 8, 27, 12, 26]",8,0,[],5.197191627,13168,1555,1,0,8,1.2018360298670372
basic,13,17,0,1,1,26,"[0, 9, 16, 2, 8, 27, 12, 26]",8,0,[],5.197191627,14393,1225,1,0,8,1.2018360298670372
basic,14,0,0,0,0,0,[0],1,27,"[2, 3, 4, 5, 6, 7, 8, 9, 10, 11, 12, 13, 14, 15, 16, 17, 19, 20, 21, 22, 23, 24, 25, 26, 27, 28, 29]",300,131,-1,104,1136,9,0.0
basic,14,0,0,0,0,5,"[0, 5]",2,24,"[2, 3, 4, 7, 8, 9, 11, 12, 13, 14, 15, 16, 17, 19, 20, 21, 22, 23, 24, 25, 26, 27, 28, 29]",164.5156836,2103,1972,5,112,9,1.0
basic,14,0,0,0,0,4,"[0, 5, 4]",3,20,"[2, 3, 7, 8, 9, 11, 12, 13, 14, 15, 17, 19, 20, 21, 22, 23, 24, 25, 26, 28]",139.4358112,2891,788,4,61,9,1.0257023158632692
basic,14,0,0,0,0,26,"[0, 5, 4, 26]",4,18,"[3, 7, 8, 9, 11, 12, 13, 14, 15, 17, 19, 20, 21, 22, 23, 24, 25, 28]",127.3942166,4003,1112,4,26,9,1.0684029773259323
basic,14,0,0,0,0,24,"[0, 5, 4, 26, 24]",5,12,"[3, 7, 8, 9, 11, 12, 15, 17, 19, 20, 23, 28]",110.2769738,6378,2375,4,16,9,1.1372083333602885
basic,14,0,0,0,0,15,"[0, 5, 4, 26, 24, 15]",6,8,"[3, 7, 8, 9, 11, 12, 17, 19]",86.93173875,7257,879,4,7,9,1.1271717591548023
basic,14,0,0,0,0,7,"[0, 5, 4, 26, 24, 15, 7]",7,4,"[3, 8, 17, 19]",55.86728962,8719,1462,3,2,9,1.190834598819092
basic,14,0,0,0,0,3,"[0, 5, 4, 26, 24, 15, 7, 3]",8,1,[8],31.78410046,10436,1717,1,0,9,1.23738515991157
basic,14,0,0,0,1,8,"[0, 5, 4, 26, 24, 15, 7, 3, 8]",9,0,[],1.370287806,13124,2688,1,0,9,1.3423763396760653
basic,14,0,0,1,1,8,"[0, 5, 4, 26, 24, 15, 7, 3, 8]",9,0,[],1.370287806,14610,1486,1,0,9,1.3423763396760653
basic,15,15,0,0,0,0,[0],1,25,"[1, 2, 3, 4, 7, 8, 9, 10, 11, 12, 13, 14, 15, 16, 18, 20, 21, 22, 23, 24, 25, 26, 27, 28, 29]",300,115,-1,4,65,9,0.0
basic,15,15,0,0,0,12,"[0, 12]",2,22,"[1, 2, 3, 4, 7, 8, 9, 10, 11, 13, 14, 15, 16, 18, 21, 22, 23, 24, 26, 27, 28, 29]",213.547701,7465,7350,4,35,9,1.0
basic,15,15,0,0,0,7,"[0, 12, 7]",3,16,"[1, 3, 4, 8, 9, 10, 11, 13, 14, 15, 16, 18, 21, 22, 24, 27]",180.3061607,8323,858,4,29,9,1.411291635294361
basic,15,15,0,0,0,11,"[0, 12, 7, 11]",4,9,"[3, 4, 13, 14, 15, 16, 21, 22, 27]",138.8212237,9335,1012,2,12,9,1.2980572092387541
basic,15,15,0,0,0,3,"[0, 12, 7, 11, 3]",5,7,"[4, 13, 14, 15, 16, 21, 22]",127.4194695,9940,605,2,7,9,1.3036925309398455
basic,15,15,0,0,0,16,"[0, 12, 7, 11, 3, 16]",6,5,"[4, 13, 14, 15, 22]",102.3395971,10916,976,2,2,9,1.731400260973498
basic,15,15,0,0,0,22,"[0, 12, 7, 11, 3, 16, 22]",7,2,"[13, 15]",43.48384117,12336,1420,2,0,9,1.4868316064029183
basic,15,15,0,0,0,15,"[0, 12, 7, 11, 3, 16, 22, 15]",8,1,[13],17.87134422,13328,992,1,0,9,1.4366485266193194
basic,15,15,0,0,1,13,"[0, 12, 7, 11, 3, 16, 22, 15, 13]",9,0,[],2.607006702,14018,690,1,0,9,1.4844435538306184
basic,15,15,0,1,1,13,"[0, 12, 7, 11, 3, 16, 22, 15, 13]",9,0,[],2.607006702,15611,1593,1,0,9,1.4844435538306184
basic,16,22,0,0,0,0,[0],1,29,"[1, 2, 3, 4, 5, 6, 7, 8, 9, 10, 11, 12, 13, 14, 15, 16, 17, 18, 19, 20, 21, 22, 23, 24, 25, 26, 27, 28, 29]",300,131,-1,31,704,9,0.0
basic,16,22,0,0,0,16,"[0, 16]",2,21,"[1, 3, 6, 7, 8, 9, 11, 13, 14, 15, 17, 18, 19, 20, 21, 22, 24, 25, 27, 28, 29]",218.605897,8412,8281,17,147,9,1.0
basic,16,22,0,0,0,28,"[0, 16, 28]",3,13,"[6, 7, 9, 13, 14, 17, 19, 20, 21, 22, 24, 25, 29]",184.1675463,9493,1081,12,61,9,1.047282311284478
basic,16,22,0,0,0,6,"[0, 16, 28, 6]",4,12,"[7, 9, 13, 14, 17, 19, 20, 21, 22, 24, 25, 29]",154.1675463,10330,837,12,43,9,1.645645870580622
basic,16,22,0,0,0,9,"[0, 16, 28, 6, 9]",5,8,"[7, 14, 17, 19, 20, 21, 24, 29]",127.5404924,12142,1812,8,17,9,1.925750226630103
basic,16,22,0,0,0,19,"[0, 16, 28, 6, 9, 19]",6,6,"[7, 14, 17, 21, 24, 29]",107.1444143,12823,681,3,7,9,2.4220750331476455
basic,16,22,0,0,0,29,"[0, 16, 28, 6, 9, 19, 29]",7,4,"[7, 14, 17, 24]",92.11111796,13505,682,2,2,9,2.6996279574991067
basic,16,22,0,0,0,14,"[0, 16, 28, 6, 9, 19, 29, 14]",8,1,[7],33.86165444,20441,6936,1,0,9,2.0544639927929462
basic,16,22,0,0,1,7,"[0, 16, 28, 6, 9, 19, 29, 14, 7]",9,0,[],20.82324963,21073,632,1,0,9,2.219817088951114
basic,16,22,0,1,1,7,"[0, 16, 28, 6, 9, 19, 29, 14, 7]",9,0,[],20.82324963,22175,1102,1,0,9,2.219817088951114
basic,17,44,0,0,0,0,[0],1,29,"[1, 2, 3, 4, 5, 6, 7, 8, 9, 10, 11, 12, 13, 14, 15, 16, 17, 18, 19, 20, 21, 22, 23, 24, 25, 26, 27, 28, 29]",300,131,-1,13,126,7,0.0
basic,17,44,0,0,0,11,"[0, 11]",2,18,"[4, 5, 6, 7, 8, 9, 12, 14, 16, 17, 19, 20, 22, 23, 24, 25, 26, 28]",152.7790776,3741,3610,5,34,7,1.0
basic,17,44,0,0,0,24,"[0, 11, 24]",3,13,"[4, 5, 7, 8, 9, 12, 14, 17, 20, 22, 23, 25, 28]",125.8532535,5420,1679,5,23,7,1.1588941745226709
basic,17,44,0,0,0,9,"[0, 11, 24, 9]",4,7,"[4, 7, 8, 12, 14, 20, 23]",93.09657483,6635,1215,2,8,7,1.3039383713641313
basic,17,44,0,0,0,4,"[0, 11, 24, 9, 4]",5,5,"[7, 12, 14, 20, 23]",73.39885923,7536,901,2,3,7,1.2901330701441578
basic,17,44,0,0,0,7,"[0, 11, 24, 9, 4, 7]",6,1,[23],42.38273439,8269,733,1,0,7,1.2468141312360979
basic,17,44,0,0,1,23,"[0, 11, 24, 9, 4, 7, 23]",7,0,[],23.27776121,10016,1747,1,0,7,1.2635191782769477
basic,17,44,0,1,1,23,"[0, 11, 24, 9, 4, 7, 23]",7,0,[],23.27776121,11111,1095,1,0,7,1.2635191782769477
basic,18,37,0,0,0,0,[0],1,29,"[1, 2, 3, 4, 5, 6, 7, 8, 9, 10, 11, 12, 13, 14, 15, 16, 17, 18, 19, 20, 21, 22, 23, 24, 25, 26, 27, 28, 29]",300,132,-1,6,168,10,0.0
basic,18,37,0,0,0,18,"[0, 18]",2,19,"[1, 2, 4, 6, 7, 9, 10, 12, 14, 15, 17, 19, 20, 21, 22, 23, 26, 28, 29]",202.4090168,2523,2391,6,89,10,1.0
basic,18,37,0,0,0,7,"[0, 18, 7]",3,12,"[1, 2, 4, 9, 15, 17, 19, 20, 21, 22, 26, 29]",175.2428614,3689,1166,6,53,10,1.0413073512834488
basic,18,37,0,0,0,22,"[0, 18, 7, 22]",4,8,"[1, 2, 4, 15, 19, 20, 21, 26]",125.2428614,5096,1407,6,29,10,1.0730792320325544
basic,18,37,0,0,0,4,"[0, 18, 7, 22, 4]",5,7,"[1, 2, 15, 19, 20, 21, 26]",100.2428614,6103,1007,4,16,10,1.2290245562206235
basic,18,37,0,0,0,2,"[0, 18, 7, 22, 4, 2]",6,5,"[1, 15, 19, 20, 21]",88.84110714,6845,742,4,7,10,1.3968113858365216
basic,18,37,0,0,0,1,"[0, 18, 7, 22, 4, 2, 1]",7,4,"[15, 19, 20, 21]",71.63645661,7605,760,4,3,10,1.4424239294761476
basic,18,37,0,0,0,20,"[0, 18, 7, 22, 4, 2, 1, 20]",8,3,"[15, 19, 21]",37.40197107,8866,1261,2,1,10,1.7518607796010042
basic,18,37,0,0,0,21,"[0, 18, 7, 22, 4, 2, 1, 20, 21]",9,1,[15],22.97976597,9811,945,1,0,10,1.7849997782949483
basic,18,37,0,0,1,15,"[0, 18, 7, 22, 4, 2, 1, 20, 21, 15]",10,0,[],7.979765971,10712,901,1,0,10,1.7549597142828803
basic,18,37,0,1,1,15,"[0, 18, 7, 22, 4, 2, 1, 20, 21, 15]",10,0,[],7.979765971,12145,1433,1,0,10,1.7549597142828803
basic,19,29,0,0,0,0,[0],1,29,"[1, 2, 3, 4, 5, 6, 7, 8, 9, 10, 11, 12, 13, 14, 15, 16, 17, 18, 19, 20, 21, 22, 23, 24, 25, 26, 27, 28, 29]",300,131,-1,1,78,9,0.0
basic,19,29,0,0,0,6,"[0, 6]",2,28,"[1, 2, 3, 4, 5, 7, 8, 9, 10, 11, 12, 13, 14, 15, 16, 17, 18, 19, 20, 21, 22, 23, 24, 25, 26, 27, 28, 29]",228.4108947,2577,2446,1,25,9,1.0
basic,19,29,0,0,0,28,"[0, 6, 28]",3,24,"[1, 3, 4, 5, 7, 9, 10, 11, 12, 13, 14, 15, 16, 17, 18, 20, 21, 22, 23, 24, 25, 26, 27, 29]",187.1798384,3984,1407,1,22,9,1.162106788166845
basic,19,29,0,0,0,27,"[0, 6, 28, 27]",4,19,"[1, 3, 4, 5, 7, 9, 10, 11, 12, 13, 14, 15, 16, 21, 22, 23, 25, 26, 29]",166.6615539,4619,635,1,21,9,1.2307173895439045
basic,19,29,0,0,0,22,"[0, 6, 28, 27, 22]",5,13,"[1, 3, 4, 5, 7, 9, 12, 13, 14, 15, 21, 26, 29]",133.4200136,5689,1070,1,19,9,1.4241767805149903
basic,19,29,0,0,0,12,"[0, 6, 28, 27, 22, 12]",6,8,"[4, 5, 7, 9, 13, 14, 21, 26]",95.4726817,6685,996,1,6,9,1.3248355326460857
basic,19,29,0,0,0,7,"[0, 6, 28, 27, 22, 12, 7]",7,4,"[4, 5, 9, 21]",81.87121119,8830,2145,1,3,9,1.3264091962339806
basic,19,29,0,0,0,9,"[0, 6, 28, 27, 22, 12, 7, 9]",8,1,[4],52.80232748,10618,1788,1,0,9,1.309391257644539
basic,19,29,0,0,1,4,"[0, 6, 28, 27, 22, 12, 7, 9, 4]",9,0,[],11.76575843,11626,1008,1,0,9,1.6396807789841599
basic,19,29,0,1,1,4,"[0, 6, 28, 27, 22, 12, 7, 9, 4]",9,0,[],11.76575843,12960,1334,1,0,9,1.6396807789841599
basic,20,5,0,0,0,0,[0],1,29,"[1, 2, 3, 4, 5, 6, 7, 8, 9, 10, 11, 12, 13, 14, 15, 16, 17, 18, 19, 20, 21, 22, 23, 24, 25, 26, 27, 28, 29]",300,130,-1,5,139,9,0.0
basic,20,5,0,0,0,12,"[0, 12]",2,22,"[2, 4, 5, 6, 8, 9, 10, 13, 14, 15, 16, 17, 18, 19, 21, 22, 23, 24, 25, 26, 27, 28]",228.3062067,6869,6739,1,27,9,1.0
basic,20,5,0,0,0,25,"[0, 12, 25]",3,21,"[2, 4, 5, 6, 8, 9, 10, 13, 14, 15, 16, 17, 18, 19, 21, 22, 23, 24, 26, 27, 28]",200.5213187,7811,942,1,20,9,1.584023303445617
basic,20,5,0,0,0,23,"[0, 12, 25, 23]",4,19,"[2, 4, 5, 6, 8, 9, 10, 13, 14, 15, 16, 17, 18, 19, 21, 22, 24, 26, 27]",182.0822298,8570,759,1,14,9,2.3508446989254357
basic,20,5,0,0,0,8,"[0, 12, 25, 23, 8]",5,9,"[4, 5, 6, 9, 13, 17, 19, 24, 27]",116.4773519,9843,1273,8,3,7,2.000016697247297
basic,20,5,0,0,0,24,"[0, 12, 25, 23, 8, 24]",6,1,[17],59.8646325,11034,1191,1,0,7,3.3157622443533454
basic,20,5,0,0,1,17,"[0, 12, 25, 23, 8, 24, 17]",7,0,[],24.87892114,12000,966,1,0,7,2.5766319815767975
basic,20,5,0,1,1,17,"[0, 12, 25, 23, 8, 24, 17]",7,0,[],24.87892114,13243,1243,1,0,7,2.5766319815767975
basic,21,43,0,0,0,0,[0],1,23,"[1, 2, 3, 4, 5, 6, 7, 9, 10, 11, 12, 14, 15, 16, 17, 19, 20, 21, 22, 23, 25, 27, 29]",300,131,-1,16,556,12,0.0
basic,21,43,0,0,0,29,"[0, 29]",2,22,"[1, 2, 3, 4, 5, 6, 7, 9, 10, 11, 12, 14, 15, 16, 17, 19, 20, 21, 22, 23, 25, 27]",277.909278,2793,2662,16,520,12,1.0
basic,21,43,0,0,0,20,"[0, 29, 20]",3,20,"[1, 2, 3, 4, 6, 7, 9, 10, 11, 12, 14, 15, 16, 17, 19, 21, 22, 23, 25, 27]",254.4785289,3689,896,15,422,12,1.082311746871282
basic,21,43,0,0,0,16,"[0, 29, 20, 16]",4,19,"[1, 2, 3, 4, 6, 7, 9, 10, 11, 12, 14, 15, 17, 19, 21, 22, 23, 25, 27]",231.8511119,4606,917,15,389,12,1.215201926898219
basic,21,43,0,0,0,15,"[0, 29, 20, 16, 15]",5,14,"[1, 2, 3, 4, 6, 7, 9, 11, 12, 14, 19, 22, 23, 25]",188.5267539,5518,912,3,109,12,1.3482474915350444
basic,21,43,0,0,0,25,"[0, 29, 20, 16, 15, 25]",6,12,"[1, 3, 4, 6, 7, 9, 11, 12, 14, 19, 22, 23]",165.8551858,7620,2102,2,43,12,1.691408721191545
basic,21,43,0,0,0,12,"[0, 29, 20, 16, 15, 25, 12]",7,11,"[1, 3, 4, 6, 7, 9, 11, 14, 19, 22, 23]",141.6684126,8577,957,2,32,12,1.6015983641428178
basic,21,43,0,0,0,3,"[0, 29, 20, 16, 15, 25, 12, 3]",8,10,"[1, 4, 6, 7, 9, 11, 14, 19, 22, 23]",128.6684126,9502,925,2,24,12,1.5379830456120627
basic,21,43,0,0,0,22,"[0, 29, 20, 16, 15, 25, 12, 3, 22]",9,6,"[1, 6, 7, 11, 14, 19]",93.95530264,10293,791,1,11,12,1.7275686117408873
basic,21,43,0,0,0,19,"[0, 29, 20, 16, 15, 25, 12, 3, 22, 19]",10,4,"[1, 6, 7, 11]",73.33977451,11528,1235,1,3,12,1.6315360037595275
basic,21,43,0,0,0,1,"[0, 29, 20, 16, 15, 25, 12, 3, 22, 19, 1]",11,1,[7],45.1617689,12701,1173,1,0,12,1.7703076545303877
basic,21,43,0,0,1,7,"[0, 29, 20, 16, 15, 25, 12, 3, 22, 19, 1, 7]",12,0,[],6.951822553,14059,1358,1,0,12,1.6607094905815594
basic,21,43,0,1,1,7,"[0, 29, 20, 16, 15, 25, 12, 3, 22, 19, 1, 7]",12,0,[],6.951822553,15077,1018,1,0,12,1.6607094905815594
basic,22,40,0,0,0,0,[0],1,29,"[1, 2, 3, 4, 5, 6, 7, 8, 9, 10, 11, 12, 13, 14, 15, 16, 17, 18, 19, 20, 21, 22, 23, 24, 25, 26, 27, 28, 29]",300,147,-1,8,191,9,0.0
basic,22,40,0,0,0,1,"[0, 1]",2,18,"[2, 5, 6, 7, 8, 9, 10, 11, 13, 15, 17, 18, 19, 21, 22, 23, 27, 29]",247.8463808,2786,2639,4,80,9,1.0
basic,22,40,0,0,0,6,"[0, 1, 6]",3,17,"[2, 5, 7, 8, 9, 10, 11, 13, 15, 17, 18, 19, 21, 22, 23, 27, 29]",227.7466295,3557,771,4,74,9,1.0459427008232034
basic,22,40,0,0,0,9,"[0, 1, 6, 9]",4,10,"[2, 5, 8, 11, 18, 19, 21, 22, 23, 27]",159.146338,4984,1427,17,39,8,1.142098432552584
basic,22,40,0,0,0,18,"[0, 1, 6, 9, 18]",5,9,"[2, 5, 8, 11, 19, 21, 22, 23, 27]",142.5933926,6489,1505,13,14,8,1.3288108654802917
basic,22,40,0,0,0,23,"[0, 1, 6, 9, 18, 23]",6,6,"[2, 5, 8, 19, 21, 22]",108.5933926,7311,822,6,4,8,2.0180513009829646
basic,22,40,0,0,0,5,"[0, 1, 6, 9, 18, 23, 5]",7,2,"[19, 22]",80.29144922,8684,1373,2,0,8,1.786484562843798
basic,22,40,0,0,1,22,"[0, 1, 6, 9, 18, 23, 5, 22]",8,0,[],17.68154585,14016,5332,1,0,8,1.5941038894571624
basic,22,40,0,1,1,22,"[0, 1, 6, 9, 18, 23, 5, 22]",8,0,[],17.68154585,15293,1277,1,0,8,1.5941038894571624
undo,23,39,0,0,0,0,[0],1,28,"[1, 2, 3, 4, 5, 6, 7, 9, 10, 11, 12, 13, 14, 15, 16, 17, 18, 19, 20, 21, 22, 23, 24, 25, 26, 27, 28, 29]",300,150,-1,1,30,10,0.0
undo,23,39,0,0,0,29,"[0, 29]",2,26,"[1, 2, 3, 4, 5, 6, 7, 9, 10, 12, 13, 14, 15, 16, 17, 18, 19, 20, 21, 22, 23, 24, 25, 26, 27, 28]",243.0614366,2592,2442,8,104,9,1.0
undo,23,39,0,0,0,12,"[0, 29, 12]",3,18,"[1, 2, 4, 5, 7, 9, 10, 13, 14, 15, 16, 18, 19, 22, 23, 24, 26, 28]",182.5221931,3822,1230,5,54,9,1.0026200331524904
undo,23,39,0,0,0,10,"[0, 29, 12, 10]",4,16,"[1, 2, 4, 5, 7, 9, 13, 14, 15, 16, 18, 19, 22, 23, 24, 26]",147.0116313,4952,1130,5,34,9,1.2874817019928908
undo,23,39,0,0,0,7,"[0, 29, 12, 10, 7]",5,10,"[1, 2, 5, 13, 16, 18, 19, 22, 24, 26]",113.5900814,5792,840,4,12,9,1.2250826263866774
undo,23,39,0,0,0,26,"[0, 29, 12, 10, 7, 26]",6,5,"[1, 16, 18, 19, 22]",94.90853971,6528,736,3,4,9,1.2697275353190085
undo,23,39,0,0,0,22,"[0, 29, 12, 10, 7, 26, 22]",7,2,"[16, 19]",77.18849457,7870,1342,2,0,9,1.438961743955176
undo,23,39,0,0,0,16,"[0, 29, 12, 10, 7, 26, 22, 16]",8,1,[19],42.18849457,10041,2171,1,0,9,1.3580882130477205
undo,23,39,0,0,1,19,"[0, 29, 12, 10, 7, 26, 22, 16, 19]",9,0,[],24.72424537,10751,710,1,0,9,1.3646589157842668
undo,23,39,1,0,0,16,"[0, 29, 12, 10, 7, 26, 22, 16]",8,1,[19],42.18849457,12162,1411,1,0,9,1.3580882130477205
undo,23,39,1,0,0,22,"[0, 29, 12, 10, 7, 26, 22]",7,2,"[16, 19]",77.18849457,12412,250,2,0,9,1.438961743955176
undo,23,39,1,0,0,26,"[0, 29, 12, 10, 7, 26]",6,5,"[1, 16, 18, 19, 22]",94.90853971,12612,200,3,4,9,1.2697275353190085
undo,23,39,1,0,0,7,"[0, 29, 12, 10, 7]",5,10,"[1, 2, 5, 13, 16, 18, 19, 22, 24, 26]",113.5900814,12795,183,4,12,9,1.2250826263866774
undo,23,39,1,0,0,10,"[0, 29, 12, 10]",4,16,"[1, 2, 4, 5, 7, 9, 13, 14, 15, 16, 18, 19, 22, 23, 24, 26]",147.0116313,13012,217,5,34,9,1.2874817019928908
undo,23,39,1,0,0,12,"[0, 29, 12]",3,18,"[1, 2, 4, 5, 7, 9, 10, 13, 14, 15, 16, 18, 19, 22, 23, 24, 26, 28]",182.5221931,13195,183,5,54,9,1.0026200331524904
undo,23,39,1,0,0,29,"[0, 29]",2,26,"[1, 2, 3, 4, 5, 6, 7, 9, 10, 12, 13, 14, 15, 16, 17, 18, 19, 20, 21, 22, 23, 24, 25, 26, 27, 28]",243.0614366,13395,200,8,104,9,1.0
undo,23,39,1,0,0,0,[0],1,28,"[1, 2, 3, 4, 5, 6, 7, 9, 10, 11, 12, 13, 14, 15, 16, 17, 18, 19, 20, 21, 22, 23, 24, 25, 26, 27, 28, 29]",300,13795,400,1,30,10,0.0
undo,23,39,0,0,0,14,"[0, 14]",2,26,"[1, 2, 3, 4, 5, 6, 7, 9, 10, 12, 13, 15, 16, 17, 18, 19, 20, 21, 22, 23, 24, 25, 26, 27, 28, 29]",286.9615952,21940,8145,1,22,10,1.0
undo,23,39,0,0,0,23,"[0, 14, 23]",3,17,"[1, 2, 4, 5, 7, 9, 10, 12, 15, 16, 19, 21, 22, 24, 26, 28, 29]",213.6131119,22875,935,7,40,8,1.4069451109593787
undo,23,39,0,0,0,29,"[0, 14, 23, 29]",4,12,"[1, 4, 5, 7, 10, 12, 15, 16, 19, 22, 26, 28]",153.4799264,24591,1716,6,18,8,2.573301202159514
undo,23,39,0,0,0,12,"[0, 14, 23, 29, 12]",5,6,"[1, 7, 10, 15, 22, 26]",92.94068292,27228,2637,2,6,8,1.7671577707608845
undo,23,39,0,0,0,10,"[0, 14, 23, 29, 12, 10]",6,3,"[7, 22, 26]",57.43012111,28681,1453,1,2,8,2.041359635240732
undo,23,39,0,0,0,7,"[0, 14, 23, 29, 12, 10, 7]",7,1,[26],24.00857118,29882,1201,1,0,8,1.8138106975119797
undo,23,39,0,0,1,26,"[0, 14, 23, 29, 12, 10, 7, 26]",8,0,[],5.327029486,30486,604,1,0,8,1.8243294189178652
undo,23,39,1,0,0,7,"[0, 14, 23, 29, 12, 10, 7]",7,1,[26],24.00857118,30907,421,1,0,8,1.8138106975119797
undo,23,39,1,0,0,10,"[0, 14, 23, 29, 12, 10]",6,3,"[7, 22, 26]",57.43012111,31123,216,1,2,8,2.041359635240732
undo,23,39,1,0,0,12,"[0, 14, 23, 29, 12]",5,6,"[1, 7, 10, 15, 22, 26]",92.94068292,31356,233,2,6,8,1.7671577707608845
undo,23,39,1,0,0,29,"[0, 14, 23, 29]",4,12,"[1, 4, 5, 7, 10, 12, 15, 16, 19, 22, 26, 28]",153.4799264,31556,200,6,18,8,2.573301202159514
undo,23,39,1,0,0,23,"[0, 14, 23]",3,17,"[1, 2, 4, 5, 7, 9, 10, 12, 15, 16, 19, 21, 22, 24, 26, 28, 29]",213.6131119,31756,200,7,40,8,1.4069451109593787
undo,23,39,1,0,0,14,"[0, 14]",2,26,"[1, 2, 3, 4, 5, 6, 7, 9, 10, 12, 13, 15, 16, 17, 18, 19, 20, 21, 22, 23, 24, 25, 26, 27, 28, 29]",286.9615952,32022,266,1,22,10,1.0
undo,23,39,0,0,0,29,"[0, 14, 29]",3,23,"[1, 2, 3, 4, 5, 6, 7, 9, 10, 12, 13, 15, 16, 17, 18, 19, 21, 22, 23, 24, 25, 26, 28]",218.9321898,33409,1387,1,21,10,1.4237768813412561
undo,23,39,0,0,0,10,"[0, 14, 29, 10]",4,16,"[1, 2, 4, 5, 7, 9, 12, 13, 15, 16, 18, 19, 22, 23, 24, 26]",154.2947393,34149,740,10,55,9,1.2261903217179273
undo,23,39,0,0,0,7,"[0, 14, 29, 10, 7]",5,13,"[1, 2, 5, 9, 12, 13, 15, 16, 18, 19, 22, 24, 26]",120.8731894,35075,926,7,19,9,1.1772181718345374
undo,23,39,0,0,0,26,"[0, 14, 29, 10, 7, 26]",6,6,"[1, 12, 16, 18, 19, 22]",102.1916477,36008,933,5,7,9,1.2246375898647768
undo,23,39,0,0,0,22,"[0, 14, 29, 10, 7, 26, 22]",7,4,"[12, 16, 18, 19]",84.47160256,37382,1374,3,2,9,1.3919259602577456
undo,23,39,0,0,0,16,"[0, 14, 29, 10, 7, 26, 22, 16]",8,2,"[18, 19]",49.47160256,38561,1179,2,0,9,1.3197225741710712
undo,23,39,0,0,1,19,"[0, 14, 29, 10, 7, 26, 22, 16, 19]",9,0,[],32.00735337,40053,1492,1,0,9,1.3285534538986796
undo,23,39,0,1,1,19,"[0, 14, 29, 10, 7, 26, 22, 16, 19]",9,0,[],32.00735337,42420,2367,1,0,9,1.3285534538986796
undo,24,21,0,0,0,0,[0],1,29,"[1, 2, 3, 4, 5, 6, 7, 8, 9, 10, 11, 12, 13, 14, 15, 16, 17, 18, 19, 20, 21, 22, 23, 24, 25, 26, 27, 28, 29]",300,130,-1,84,830,9,0.0
undo,24,21,0,0,0,6,"[0, 6]",2,27,"[1, 2, 3, 4, 5, 7, 8, 9, 10, 11, 12, 14, 15, 16, 17, 18, 19, 20, 21, 22, 23, 24, 25, 26, 27, 28, 29]",256.1365756,3889,3759,7,134,8,1.0
undo,24,21,0,0,0,11,"[0, 6, 11]",3,19,"[1, 3, 4, 5, 7, 9, 10, 12, 14, 17, 18, 20, 21, 22, 23, 25, 26, 28, 29]",212.846854,4752,863,2,27,8,1.1024097864367723
undo,24,21,0,0,0,10,"[0, 6, 11, 10]",4,9,"[5, 7, 12, 18, 20, 22, 26, 28, 29]",136.5251663,5659,907,2,7,8,1.3426213632323658
undo,24,21,0,0,0,12,"[0, 6, 11, 10, 12]",5,5,"[18, 20, 22, 26, 29]",113.7216578,6377,718,2,5,8,1.677910919136722
undo,24,21,0,0,0,20,"[0, 6, 11, 10, 12, 20]",6,3,"[18, 22, 29]",59.60142133,7753,1376,2,2,8,2.9182666225932357
undo,24,21,0,0,0,22,"[0, 6, 11, 10, 12, 20, 22]",7,2,"[18, 29]",31.3702329,8484,731,2,0,8,3.266996487785911
undo,24,21,0,0,1,18,"[0, 6, 11, 10, 12, 20, 22, 18]",8,0,[],4.96947534,10925,2441,1,0,8,4.994065546454045
undo,24,21,1,0,0,22,"[0, 6, 11, 10, 12, 20, 22]",7,2,"[18, 29]",31.3702329,11426,501,2,0,8,3.266996487785911
undo,24,21,1,0,0,20,"[0, 6, 11, 10, 12, 20]",6,3,"[18, 22, 29]",59.60142133,11626,200,2,2,8,2.9182666225932357
undo,24,21,1,0,0,12,"[0, 6, 11, 10, 12]",5,5,"[18, 20, 22, 26, 29]",113.7216578,11860,234,2,5,8,1.677910919136722
undo,24,21,1,0,0,10,"[0, 6, 11, 10]",4,9,"[5, 7, 12, 18, 20, 22, 26, 28, 29]",136.5251663,12059,199,2,7,8,1.3426213632323658
undo,24,21,1,0,0,11,"[0, 6, 11]",3,19,"[1, 3, 4, 5, 7, 9, 10, 12, 14, 17, 18, 20, 21, 22, 23, 25, 26, 28, 29]",212.846854,12343,284,2,27,8,1.1024097864367723
undo,24,21,1,0,0,6,"[0, 6]",2,27,"[1, 2, 3, 4, 5, 7, 8, 9, 10, 11, 12, 14, 15, 16, 17, 18, 19, 20, 21, 22, 23, 24, 25, 26, 27, 28, 29]",256.1365756,12543,200,7,134,8,1.0
undo,24,21,1,0,0,0,[0],1,29,"[1, 2, 3, 4, 5, 6, 7, 8, 9, 10, 11, 12, 13, 14, 15, 16, 17, 18, 19, 20, 21, 22, 23, 24, 25, 26, 27, 28, 29]",300,12909,366,84,830,9,0.0
undo,24,21,0,0,0,20,"[0, 20]",2,28,"[1, 2, 3, 4, 5, 6, 7, 8, 9, 10, 11, 12, 13, 14, 15, 16, 17, 18, 19, 21, 22, 23, 24, 25, 26, 27, 28, 29]",217.6228187,15451,2542,6,67,9,1.0
undo,24,21,0,0,0,22,"[0, 20, 22]",3,23,"[2, 4, 6, 7, 8, 9, 10, 11, 12, 13, 14, 15, 16, 17, 18, 19, 21, 23, 24, 25, 26, 27, 29]",189.3916303,16638,1187,6,47,9,1.3451865712078994
undo,24,21,0,0,0,29,"[0, 20, 22, 29]",4,18,"[2, 4, 6, 7, 8, 10, 11, 12, 14, 15, 16, 17, 18, 21, 23, 24, 25, 27]",159.1261384,17545,907,2,19,9,1.6628724818562788
undo,24,21,0,0,0,18,"[0, 20, 22, 29, 18]",5,10,"[4, 6, 10, 11, 12, 14, 17, 21, 23, 25]",130.4730408,18755,1210,1,6,9,2.869631022456117
undo,24,21,0,0,0,25,"[0, 20, 22, 29, 18, 25]",6,5,"[4, 14, 17, 21, 23]",88.71181477,20165,1410,1,5,9,3.532279369684197
undo,24,21,0,0,0,23,"[0, 20, 22, 29, 18, 25, 23]",7,3,"[4, 14, 21]",45.38745672,21266,1101,1,2,9,2.5713192195571195
undo,24,21,0,0,1,21,"[0, 20, 22, 29, 18, 25, 23, 21]",8,0,[],15.77327093,22815,1549,1,0,8,3.161980860177307
undo,24,21,1,0,0,23,"[0, 20, 22, 29, 18, 25, 23]",7,3,"[4, 14, 21]",45.38745672,23791,976,1,2,9,2.5713192195571195
undo,24,21,1,0,0,25,"[0, 20, 22, 29, 18, 25]",6,5,"[4, 14, 17, 21, 23]",88.71181477,24040,249,1,5,9,3.532279369684197
undo,24,21,1,0,0,18,"[0, 20, 22, 29, 18]",5,10,"[4, 6, 10, 11, 12, 14, 17, 21, 23, 25]",130.4730408,24257,217,1,6,9,2.869631022456117
undo,24,21,1,0,0,29,"[0, 20, 22, 29]",4,18,"[2, 4, 6, 7, 8, 10, 11, 12, 14, 15, 16, 17, 18, 21, 23, 24, 25, 27]",159.1261384,24624,367,2,19,9,1.6628724818562788
undo,24,21,1,0,0,22,"[0, 20, 22]",3,23,"[2, 4, 6, 7, 8, 9, 10, 11, 12, 13, 14, 15, 16, 17, 18, 19, 21, 23, 24, 25, 26, 27, 29]",189.3916303,24807,183,6,47,9,1.3451865712078994
undo,24,21,1,0,0,20,"[0, 20]",2,28,"[1, 2, 3, 4, 5, 6, 7, 8, 9, 10, 11, 12, 13, 14, 15, 16, 17, 18, 19, 21, 22, 23, 24, 25, 26, 27, 28, 29]",217.6228187,24990,183,6,67,9,1.0
undo,24,21,1,0,0,0,[0],1,29,"[1, 2, 3, 4, 5, 6, 7, 8, 9, 10, 11, 12, 13, 14, 15, 16, 17, 18, 19, 20, 21, 22, 23, 24, 25, 26, 27, 28, 29]",300,25173,183,84,830,9,0.0
undo,24,21,0,0,0,21,"[0, 21]",2,22,"[1, 3, 4, 6, 8, 9, 10, 11, 12, 14, 15, 16, 17, 18, 20, 22, 23, 24, 25, 26, 27, 29]",210.1111798,26564,1391,1,69,9,1.0
undo,24,21,0,0,0,14,"[0, 21, 14]",3,15,"[1, 4, 6, 8, 9, 15, 16, 17, 18, 20, 22, 23, 24, 25, 29]",184.4986828,27258,694,35,96,8,1.0083702391721483
undo,24,21,0,0,0,4,"[0, 21, 14, 4]",4,13,"[1, 8, 9, 15, 16, 17, 18, 20, 22, 23, 24, 25, 29]",170.3565472,27995,737,20,39,8,1.0135821167776475
undo,24,21,0,0,0,23,"[0, 21, 14, 4, 23]",5,10,"[8, 15, 16, 17, 18, 20, 22, 24, 25, 29]",134.2317635,29501,1506,14,14,8,1.6740850510094318
undo,24,21,0,0,0,25,"[0, 21, 14, 4, 23, 25]",6,5,"[17, 18, 20, 22, 29]",90.90740543,30366,865,5,3,8,3.4955738644324623
undo,24,21,0,0,0,18,"[0, 21, 14, 4, 23, 25, 18]",7,3,"[20, 22, 29]",49.14617939,31459,1093,3,0,8,4.246273920803611
undo,24,21,0,0,1,20,"[0, 21, 14, 4, 23, 25, 18, 20]",8,0,[],5.972113103,33601,2142,1,0,8,3.569288026536126
undo,24,21,0,1,1,20,"[0, 21, 14, 4, 23, 25, 18, 20]",8,0,[],5.972113103,35237,1636,1,0,8,3.569288026536126
undo,25,33,0,0,0,0,[0],1,23,"[1, 2, 5, 7, 8, 11, 12, 13, 14, 15, 16, 17, 18, 19, 20, 21, 23, 24, 25, 26, 27, 28, 29]",300,149,-1,5,108,9,0.0
undo,25,33,0,0,0,21,"[0, 21]",2,17,"[2, 5, 7, 8, 11, 13, 14, 16, 17, 18, 19, 20, 24, 26, 27, 28, 29]",174.4611614,3153,3004,21,129,8,1.0
undo,25,33,0,0,0,13,"[0, 21, 13]",3,15,"[2, 5, 7, 8, 11, 14, 16, 17, 18, 19, 20, 24, 26, 28, 29]",148.0604038,4411,1258,17,72,8,1.0001005298764474
undo,25,33,0,0,0,19,"[0, 21, 13, 19]",4,11,"[7, 11, 14, 16, 17, 18, 20, 24, 26, 28, 29]",122.5653063,5405,994,10,27,8,1.0588446738393702
undo,25,33,0,0,0,24,"[0, 21, 13, 19, 24]",5,7,"[7, 14, 16, 18, 26, 28, 29]",80.51771417,6873,1468,3,5,8,1.078006777679028
undo,25,33,0,0,0,7,"[0, 21, 13, 19, 24, 7]",6,3,"[14, 26, 29]",51.31155044,7645,772,3,1,8,1.1669985062633954
undo,25,33,0,0,0,14,"[0, 21, 13, 19, 24, 7, 14]",7,2,"[26, 29]",36.44548169,8825,1180,2,0,8,1.2148465775488593
undo,25,33,0,0,1,26,"[0, 21, 13, 19, 24, 7, 14, 26]",8,0,[],23.79637105,9990,1165,1,0,8,1.2208379656544521
undo,25,33,1,0,0,14,"[0, 21, 13, 19, 24, 7, 14]",7,2,"[26, 29]",36.44548169,11379,1389,2,0,8,1.2148465775488593
undo,25,33,1,0,0,7,"[0, 21, 13, 19, 24, 7]",6,3,"[14, 26, 29]",51.31155044,11596,217,3,1,8,1.1669985062633954
undo,25,33,1,0,0,24,"[0, 21, 13, 19, 24]",5,7,"[7, 14, 16, 18, 26, 28, 29]",80.51771417,11912,316,3,5,8,1.078006777679028
undo,25,33,1,0,0,19,"[0, 21, 13, 19]",4,11,"[7, 11, 14, 16, 17, 18, 20, 24, 26, 28, 29]",122.5653063,12195,283,10,27,8,1.0588446738393702
undo,25,33,1,0,0,13,"[0, 21, 13]",3,15,"[2, 5, 7, 8, 11, 14, 16, 17, 18, 19, 20, 24, 26, 28, 29]",148.0604038,12612,417,17,72,8,1.0001005298764474
undo,25,33,0,0,0,17,"[0, 21, 13, 17]",4,10,"[2, 7, 11, 14, 16, 19, 20, 24, 26, 29]",125.2568953,13184,572,6,21,8,1.0965005103980894
undo,25,33,0,0,0,29,"[0, 21, 13, 17, 29]",5,7,"[7, 11, 14, 19, 20, 24, 26]",73.77874462,14217,1033,5,3,8,1.075477449032161
undo,25,33,0,0,0,26,"[0, 21, 13, 17, 29, 26]",6,2,"[7, 14]",45.88609325,15109,892,2,0,8,1.1231999599010887
undo,25,33,0,0,0,14,"[0, 21, 13, 17, 29, 26, 14]",7,1,[7],33.23698261,16067,958,1,0,8,1.2296360569757379
undo,25,33,0,0,1,7,"[0, 21, 13, 17, 29, 26, 14, 7]",8,0,[],18.37091387,17614,1547,1,0,8,1.3215761464415763
undo,25,33,0,1,1,7,"[0, 21, 13, 17, 29, 26, 14, 7]",8,0,[],18.37091387,19660,2046,1,0,8,1.3215761464415763
undo,26,9,0,0,0,0,[0],1,27,"[1, 3, 4, 5, 6, 7, 8, 9, 10, 11, 13, 14, 15, 16, 17, 18, 19, 20, 21, 22, 23, 24, 25, 26, 27, 28, 29]",300,113,-1,2,182,10,0.0
undo,26,9,0,0,0,25,"[0, 25]",2,24,"[1, 3, 4, 5, 6, 7, 8, 9, 10, 11, 13, 15, 16, 17, 18, 19, 20, 21, 22, 23, 24, 26, 27, 28]",275.9168108,3864,3751,2,104,10,1.0
undo,26,9,0,0,0,10,"[0, 25, 10]",3,20,"[3, 4, 5, 7, 8, 9, 11, 13, 15, 16, 17, 18, 19, 20, 21, 22, 23, 26, 27, 28]",236.0670932,4797,933,2,76,10,1.1767014107208227
undo,26,9,0,0,0,8,"[0, 25, 10, 8]",4,19,"[3, 4, 5, 7, 9, 11, 13, 15, 16, 17, 18, 19, 20, 21, 22, 23, 26, 27, 28]",187.6935467,5704,907,1,29,10,1.7608170712242983
undo,26,9,0,0,0,28,"[0, 25, 10, 8, 28]",5,18,"[3, 4, 5, 7, 9, 11, 13, 15, 16, 17, 18, 19, 20, 21, 22, 23, 26, 27]",176.8768928,6990,1286,1,15,10,1.6576318206889098
undo,26,9,1,0,0,8,"[0, 25, 10, 8]",4,19,"[3, 4, 5, 7, 9, 11, 13, 15, 16, 17, 18, 19, 20, 21, 22, 23, 26, 27, 28]",187.6935467,8478,1488,1,29,10,1.7608170712242983
undo,26,9,0,0,0,23,"[0, 25, 10, 8, 23]",5,15,"[3, 4, 5, 7, 9, 11, 16, 18, 19, 20, 21, 22, 26, 27, 28]",166.2226361,9336,858,10,32,9,2.2468522467908687
undo,26,9,0,0,0,9,"[0, 25, 10, 8, 23, 9]",6,12,"[3, 4, 7, 11, 18, 19, 20, 21, 22, 26, 27, 28]",143.8619563,10250,914,5,10,9,2.096804588964727
undo,26,9,0,0,0,28,"[0, 25, 10, 8, 23, 9, 28]",7,4,"[20, 21, 22, 26]",103.0452931,11289,1039,3,1,9,2.651641895794339
undo,26,9,0,0,0,21,"[0, 25, 10, 8, 23, 9, 28, 21]",8,1,[20],50.04529307,12701,1412,1,0,9,2.108740588479078
undo,26,9,0,0,1,20,"[0, 25, 10, 8, 23, 9, 28, 21, 20]",9,0,[],37.9622471,13406,705,1,0,9,2.0690056875748426
undo,26,9,0,1,1,20,"[0, 25, 10, 8, 23, 9, 28, 21, 20]",9,0,[],37.9622471,15392,1986,1,0,9,2.0690056875748426
undo,27,44,0,0,0,0,[0],1,29,"[1, 2, 3, 4, 5, 6, 7, 8, 9, 10, 11, 12, 13, 14, 15, 16, 17, 18, 19, 20, 21, 22, 23, 24, 25, 26, 27, 28, 29]",300,130,-1,13,126,7,0.0
undo,27,44,0,0,0,24,"[0, 24]",2,19,"[2, 4, 5, 6, 7, 8, 9, 11, 12, 14, 16, 17, 19, 20, 22, 23, 25, 26, 28]",149.7302426,4572,4442,4,43,7,1.0
undo,27,44,0,0,0,9,"[0, 24, 9]",3,11,"[4, 5, 7, 8, 11, 12, 14, 20, 23, 25, 28]",116.9735639,5492,920,2,15,7,1.153461779613976
undo,27,44,0,0,0,4,"[0, 24, 9, 4]",4,10,"[5, 7, 8, 11, 12, 14, 20, 23, 25, 28]",97.27584825,6294,802,2,10,7,1.1541915958625368
undo,27,44,0,0,0,7,"[0, 24, 9, 4, 7]",5,4,"[5, 12, 23, 25]",66.25972341,7073,779,2,2,7,1.1312544568834735
undo,27,44,0,0,1,23,"[0, 24, 9, 4, 7, 23]",6,0,[],47.15475024,7861,788,1,0,6,1.154496377323794
undo,27,44,1,0,0,7,"[0, 24, 9, 4, 7]",5,4,"[5, 12, 23, 25]",66.25972341,9811,1950,2,2,7,1.1312544568834735
undo,27,44,1,0,0,4,"[0, 24, 9, 4]",4,10,"[5, 7, 8, 11, 12, 14, 20, 23, 25, 28]",97.27584825,10028,217,2,10,7,1.1541915958625368
undo,27,44,1,0,0,9,"[0, 24, 9]",3,11,"[4, 5, 7, 8, 11, 12, 14, 20, 23, 25, 28]",116.9735639,10244,216,2,15,7,1.153461779613976
undo,27,44,1,0,0,24,"[0, 24]",2,19,"[2, 4, 5, 6, 7, 8, 9, 11, 12, 14, 16, 17, 19, 20, 22, 23, 25, 26, 28]",149.7302426,10661,417,4,43,7,1.0
undo,27,44,1,0,0,0,[0],1,29,"[1, 2, 3, 4, 5, 6, 7, 8, 9, 10, 11, 12, 13, 14, 15, 16, 17, 18, 19, 20, 21, 22, 23, 24, 25, 26, 27, 28, 29]",300,12160,1499,13,126,7,0.0
undo,27,44,0,0,0,9,"[0, 9]",2,17,"[2, 4, 5, 7, 8, 10, 11, 12, 13, 14, 20, 22, 23, 24, 25, 26, 28]",141.32423,13963,1803,3,26,7,1.0
undo,27,44,0,0,0,4,"[0, 9, 4]",3,15,"[2, 5, 7, 8, 10, 11, 12, 14, 20, 22, 23, 24, 25, 26, 28]",121.6265143,14722,759,3,21,7,1.0155532843148096
undo,27,44,0,0,0,7,"[0, 9, 4, 7]",4,10,"[2, 5, 11, 12, 14, 23, 24, 25, 26, 28]",90.61038951,15769,1047,3,9,7,1.0134022837125412
undo,27,44,0,0,0,23,"[0, 9, 4, 7, 23]",5,7,"[5, 12, 14, 24, 25, 26, 28]",71.50541634,16541,772,3,4,7,1.043310757564056
undo,27,44,0,0,0,5,"[0, 9, 4, 7, 23, 5]",6,1,[25],24.08179353,17588,1047,1,0,7,1.0875233835918032
undo,27,44,0,0,1,25,"[0, 9, 4, 7, 23, 5, 25]",7,0,[],13.64148702,18283,695,1,0,7,1.1344779809947538
undo,27,44,0,1,1,25,"[0, 9, 4, 7, 23, 5, 25]",7,0,[],13.64148702,21241,2958,1,0,7,1.1344779809947538
undo,28,0,0,0,0,0,[0],1,27,"[2, 3, 4, 5, 6, 7, 8, 9, 10, 11, 12, 13, 14, 15, 16, 17, 19, 20, 21, 22, 23, 24, 25, 26, 27, 28, 29]",300,147,-1,104,1136,9,0.0
undo,28,0,0,0,0,28,"[0, 28]",2,26,"[2, 3, 4, 5, 6, 7, 8, 9, 10, 11, 12, 13, 14, 15, 16, 17, 19, 20, 21, 22, 23, 24, 25, 26, 27, 29]",194.9190788,2491,2344,39,388,9,1.0
undo,28,0,0,0,0,5,"[0, 28, 5]",3,21,"[2, 3, 4, 7, 8, 9, 11, 12, 13, 14, 15, 16, 17, 19, 20, 21, 23, 24, 25, 26, 29]",151.2613189,3567,1076,27,210,9,1.0978295127671733
undo,28,0,0,0,0,4,"[0, 28, 5, 4]",4,16,"[3, 7, 8, 9, 11, 12, 13, 14, 15, 17, 19, 20, 21, 23, 24, 26]",126.1814465,4403,836,17,114,9,1.1103727063761901
undo,28,0,0,0,0,26,"[0, 28, 5, 4, 26]",5,14,"[3, 7, 8, 9, 11, 12, 13, 14, 15, 17, 19, 20, 23, 24]",114.1398519,4999,596,7,54,9,1.1504454351688815
undo,28,0,0,0,0,24,"[0, 28, 5, 4, 26, 24]",6,11,"[3, 7, 8, 9, 11, 12, 15, 17, 19, 20, 23]",97.02260914,5669,670,7,22,9,1.2166555899566422
undo,28,0,0,0,0,15,"[0, 28, 5, 4, 26, 24, 15]",7,7,"[3, 7, 8, 9, 11, 12, 17]",73.67737408,8087,2418,4,5,9,1.1972898774231708
undo,28,0,0,0,0,7,"[0, 28, 5, 4, 26, 24, 15, 7]",8,2,"[3, 8]",42.61292495,10089,2002,2,0,9,1.2554869594545575
undo,28,0,0,0,1,3,"[0, 28, 5, 4, 26, 24, 15, 7, 3]",9,0,[],18.52973579,11938,1849,1,0,9,1.2985327435367093
undo,28,0,0,1,1,3,"[0, 28, 5, 4, 26, 24, 15, 7, 3]",9,0,[],18.52973579,14009,2071,1,0,9,1.2985327435367093
undo,29,6,0,0,0,0,[0],1,29,"[1, 2, 3, 4, 5, 6, 7, 8, 9, 10, 11, 12, 13, 14, 15, 16, 17, 18, 19, 20, 21, 22, 23, 24, 25, 26, 27, 28, 29]",300,181,-1,180,4304,10,0.0
undo,29,6,0,0,0,1,"[0, 1]",2,23,"[2, 3, 6, 7, 8, 9, 10, 12, 13, 14, 15, 16, 17, 18, 19, 20, 21, 22, 23, 24, 26, 27, 29]",250.6644145,4169,3988,7,266,10,1.0
undo,29,6,0,0,0,13,"[0, 1, 13]",3,22,"[2, 3, 6, 7, 8, 9, 10, 12, 14, 15, 16, 17, 18, 19, 20, 21, 22, 23, 24, 26, 27, 29]",233.6350281,5518,1349,7,257,10,2.0046272874013185
undo,29,6,0,0,0,3,"[0, 1, 13, 3]",4,20,"[2, 6, 7, 8, 9, 10, 12, 14, 15, 16, 17, 18, 20, 21, 22, 23, 24, 26, 27, 29]",171.5061298,6343,825,5,146,10,3.8326508251916236
undo,29,6,0,0,0,24,"[0, 1, 13, 3, 24]",5,11,"[2, 6, 7, 10, 16, 17, 18, 22, 23, 26, 29]",107.553022,8787,2444,1,10,10,1.9780070978539015
undo,29,6,0,0,0,10,"[0, 1, 13, 3, 24, 10]",6,9,"[2, 6, 7, 16, 17, 18, 23, 26, 29]",94.13661415,10071,1284,1,8,10,2.4407437222237482
undo,29,6,0,0,0,17,"[0, 1, 13, 3, 24, 10, 17]",7,5,"[7, 16, 18, 23, 29]",74.41353122,11819,1748,1,4,10,3.196353288018225
undo,29,6,0,0,0,18,"[0, 1, 13, 3, 24, 10, 17, 18]",8,3,"[7, 16, 29]",60.48514295,12626,807,1,2,10,3.9328197403627025
undo,29,6,0,0,0,16,"[0, 1, 13, 3, 24, 10, 17, 18, 16]",9,1,[29],37.13990789,14270,1644,1,0,10,3.6417136509563646
undo,29,6,0,0,1,29,"[0, 1, 13, 3, 24, 10, 17, 18, 16, 29]",10,0,[],0.45203523,15317,1047,1,0,10,2.8124399883559774
undo,29,6,0,1,1,29,"[0, 1, 13, 3, 24, 10, 17, 18, 16, 29]",10,0,[],0.45203523,16493,1176,1,0,10,2.8124399883559774
undo,30,41,0,0,0,0,[0],1,29,"[1, 2, 3, 4, 5, 6, 7, 8, 9, 10, 11, 12, 13, 14, 15, 16, 17, 18, 19, 20, 21, 22, 23, 24, 25, 26, 27, 28, 29]",300,113,-1,1,143,10,0.0
undo,30,41,0,0,0,13,"[0, 13]",2,23,"[1, 2, 3, 5, 6, 7, 9, 10, 11, 12, 14, 15, 17, 18, 19, 20, 21, 22, 24, 25, 26, 27, 28]",258.2747079,1743,1630,1,55,10,1.0
undo,30,41,0,0,0,28,"[0, 13, 28]",3,22,"[1, 2, 3, 5, 6, 7, 9, 10, 11, 12, 14, 15, 17, 18, 19, 20, 21, 22, 24, 25, 26, 27]",223.7928286,2488,745,1,39,10,1.895724242592676
undo,30,41,0,0,0,5,"[0, 13, 28, 5]",4,19,"[1, 2, 3, 6, 9, 10, 11, 12, 14, 15, 17, 18, 19, 20, 21, 22, 24, 25, 27]",210.1913581,4354,1866,1,34,10,2.861541269398273
undo,30,41,0,0,0,3,"[0, 13, 28, 5, 3]",5,16,"[1, 2, 6, 9, 10, 12, 14, 17, 18, 19, 20, 21, 22, 24, 25, 27]",175.3632086,5306,952,1,22,10,3.1455488489005883
undo,30,41,0,0,0,21,"[0, 13, 28, 5, 3, 21]",6,14,"[1, 2, 6, 9, 10, 12, 14, 17, 18, 19, 20, 22, 25, 27]",143.2228912,6464,1158,13,11,9,3.207558429289677
undo,30,41,0,0,0,9,"[0, 13, 28, 5, 3, 21, 9]",7,6,"[1, 2, 10, 12, 14, 17]",93.85691102,7769,1305,7,4,9,2.5050148501792275
undo,30,41,0,0,0,2,"[0, 13, 28, 5, 3, 21, 9, 2]",8,5,"[1, 10, 12, 14, 17]",81.77386505,9151,1382,5,0,9,2.4119643847713177
undo,30,41,0,0,1,17,"[0, 13, 28, 5, 3, 21, 9, 2, 17]",9,0,[],49.21622385,9930,779,1,0,9,3.9563478735796007
undo,30,41,1,0,0,2,"[0, 13, 28, 5, 3, 21, 9, 2]",8,5,"[1, 10, 12, 14, 17]",81.77386505,16259,6329,5,0,9,2.4119643847713177
undo,30,41,1,0,0,9,"[0, 13, 28, 5, 3, 21, 9]",7,6,"[1, 2, 10, 12, 14, 17]",93.85691102,16725,466,7,4,9,2.5050148501792275
undo,30,41,1,0,0,21,"[0, 13, 28, 5, 3, 21]",6,14,"[1, 2, 6, 9, 10, 12, 14, 17, 18, 19, 20, 22, 25, 27]",143.2228912,17292,567,13,11,9,3.207558429289677
undo,30,41,0,0,0,9,"[0, 13, 28, 5, 3, 21, 9]",7,6,"[1, 2, 10, 12, 14, 17]",93.85691102,20913,3621,7,4,9,2.5050148501792275
undo,30,41,0,0,0,2,"[0, 13, 28, 5, 3, 21, 9, 2]",8,5,"[1, 10, 12, 14, 17]",81.77386505,22134,1221,5,0,9,2.4119643847713177
undo,30,41,0,0,1,17,"[0, 13, 28, 5, 3, 21, 9, 2, 17]",9,0,[],49.21622385,23580,1446,1,0,9,3.9563478735796007
undo,30,41,1,0,0,2,"[0, 13, 28, 5, 3, 21, 9, 2]",8,5,"[1, 10, 12, 14, 17]",81.77386505,24673,1093,5,0,9,2.4119643847713177
undo,30,41,1,0,0,9,"[0, 13, 28, 5, 3, 21, 9]",7,6,"[1, 2, 10, 12, 14, 17]",93.85691102,24956,283,7,4,9,2.5050148501792275
undo,30,41,1,0,0,21,"[0, 13, 28, 5, 3, 21]",6,14,"[1, 2, 6, 9, 10, 12, 14, 17, 18, 19, 20, 22, 25, 27]",143.2228912,25272,316,13,11,9,3.207558429289677
undo,30,41,1,0,0,3,"[0, 13, 28, 5, 3]",5,16,"[1, 2, 6, 9, 10, 12, 14, 17, 18, 19, 20, 21, 22, 24, 25, 27]",175.3632086,25639,367,1,22,10,3.1455488489005883
undo,30,41,1,0,0,5,"[0, 13, 28, 5]",4,19,"[1, 2, 3, 6, 9, 10, 11, 12, 14, 15, 17, 18, 19, 20, 21, 22, 24, 25, 27]",210.1913581,26089,450,1,34,10,2.861541269398273
undo,30,41,0,0,0,3,"[0, 13, 28, 5, 3]",5,16,"[1, 2, 6, 9, 10, 12, 14, 17, 18, 19, 20, 21, 22, 24, 25, 27]",175.3632086,27067,978,1,22,10,3.1455488489005883
undo,30,41,0,0,0,22,"[0, 13, 28, 5, 3, 22]",6,10,"[2, 6, 9, 10, 12, 17, 18, 20, 21, 25]",145.3965604,27778,711,1,7,10,2.241807041008432
undo,30,41,0,0,0,21,"[0, 13, 28, 5, 3, 22, 21]",7,4,"[2, 9, 12, 17]",94.39656044,28480,702,1,5,10,4.206513633906409
undo,30,41,0,0,0,9,"[0, 13, 28, 5, 3, 22, 21, 9]",8,2,"[2, 17]",45.03058025,29745,1265,1,1,10,3.098343902653451
undo,30,41,0,0,0,2,"[0, 13, 28, 5, 3, 22, 21, 9, 2]",9,1,[17],32.94753428,30746,1001,1,0,10,2.9516218867624824
undo,30,41,0,0,1,17,"[0, 13, 28, 5, 3, 22, 21, 9, 2, 17]",10,0,[],0.389893085,32128,1382,1,0,10,4.726628762010198
undo,30,41,0,1,1,17,"[0, 13, 28, 5, 3, 22, 21, 9, 2, 17]",10,0,[],0.389893085,33537,1409,1,0,10,4.726628762010198
undo,31,42,0,0,0,0,[0],1,29,"[1, 2, 3, 4, 5, 6, 7, 8, 9, 10, 11, 12, 13, 14, 15, 16, 17, 18, 19, 20, 21, 22, 23, 24, 25, 26, 27, 28, 29]",300,130,-1,16,302,9,0.0
undo,31,42,0,0,0,3,"[0, 3]",2,25,"[1, 2, 4, 5, 6, 7, 8, 9, 10, 11, 13, 15, 17, 18, 19, 20, 21, 22, 23, 24, 25, 26, 27, 28, 29]",255.7959278,5127,4997,3,45,9,1.0
undo,31,42,0,0,0,11,"[0, 3, 11]",3,19,"[1, 2, 4, 5, 6, 7, 8, 9, 15, 17, 19, 22, 23, 24, 25, 26, 27, 28, 29]",207.3294445,7256,2129,49,82,7,1.0096173648192857
undo,31,42,0,0,0,24,"[0, 3, 11, 24]",4,15,"[1, 2, 4, 5, 6, 7, 8, 15, 17, 19, 22, 23, 26, 27, 28]",149.3208245,8155,899,18,27,7,1.149921218069753
undo,31,42,0,0,0,15,"[0, 3, 11, 24, 15]",5,12,"[1, 2, 4, 6, 7, 8, 17, 19, 22, 23, 26, 28]",135.719354,8970,815,12,5,7,1.135891118329389
undo,31,42,1,0,0,24,"[0, 3, 11, 24]",4,15,"[1, 2, 4, 5, 6, 7, 8, 15, 17, 19, 22, 23, 26, 27, 28]",149.3208245,12059,3089,18,27,7,1.149921218069753
undo,31,42,1,0,0,11,"[0, 3, 11]",3,19,"[1, 2, 4, 5, 6, 7, 8, 9, 15, 17, 19, 22, 23, 24, 25, 26, 27, 28, 29]",207.3294445,12343,284,49,82,7,1.0096173648192857
undo,31,42,1,0,0,3,"[0, 3]",2,25,"[1, 2, 4, 5, 6, 7, 8, 9, 10, 11, 13, 15, 17, 18, 19, 20, 21, 22, 23, 24, 25, 26, 27, 28, 29]",255.7959278,12576,233,3,45,9,1.0
undo,31,42,1,0,0,0,[0],1,29,"[1, 2, 3, 4, 5, 6, 7, 8, 9, 10, 11, 12, 13, 14, 15, 16, 17, 18, 19, 20, 21, 22, 23, 24, 25, 26, 27, 28, 29]",300,12876,300,16,302,9,0.0
undo,31,42,0,0,0,22,"[0, 22]",2,27,"[1, 2, 3, 4, 5, 6, 7, 8, 9, 10, 11, 12, 13, 15, 16, 17, 18, 19, 20, 21, 23, 24, 25, 26, 27, 28, 29]",211.3997743,13982,1106,5,83,9,1.0
undo,31,42,0,0,0,4,"[0, 22, 4]",3,26,"[1, 2, 3, 5, 6, 7, 8, 9, 10, 11, 12, 13, 15, 16, 17, 18, 19, 20, 21, 23, 24, 25, 26, 27, 28, 29]",200.2194344,15060,1078,4,51,9,1.1029012260448476
undo,31,42,0,0,0,5,"[0, 22, 4, 5]",4,24,"[1, 2, 3, 6, 7, 8, 9, 10, 11, 12, 13, 15, 17, 18, 19, 20, 21, 23, 24, 25, 26, 27, 28, 29]",180.3700011,15813,753,3,22,9,1.1004909640339868
undo,31,42,0,0,0,8,"[0, 22, 4, 5, 8]",5,16,"[1, 2, 3, 6, 7, 11, 15, 18, 19, 23, 24, 25, 26, 27, 28, 29]",145.8881218,16829,1016,3,12,9,1.4333663223483832
undo,31,42,0,0,0,1,"[0, 22, 4, 5, 8, 1]",6,6,"[2, 7, 18, 19, 26, 27]",96.796371,18368,1539,3,7,9,1.3048950637395882
undo,31,42,0,0,0,7,"[0, 22, 4, 5, 8, 1, 7]",7,4,"[2, 19, 26, 27]",66.796371,20766,2398,3,2,9,1.3461774355793397
undo,31,42,0,0,0,26,"[0, 22, 4, 5, 8, 1, 7, 26]",8,2,"[19, 27]",40.22571049,22003,1237,2,0,9,1.3119913611616163
undo,31,42,0,0,1,27,"[0, 22, 4, 5, 8, 1, 7, 26, 27]",9,0,[],22.19795412,23618,1615,1,0,9,1.3027999653776734
undo,31,42,0,1,1,27,"[0, 22, 4, 5, 8, 1, 7, 26, 27]",9,0,[],22.19795412,24839,1221,1,0,9,1.3027999653776734
undo,32,1,0,0,0,0,[0],1,26,"[1, 2, 4, 5, 7, 8, 9, 10, 11, 12, 13, 14, 15, 16, 17, 18, 19, 20, 21, 22, 23, 24, 25, 26, 28, 29]",300,113,-1,6,74,7,0.0
undo,32,1,0,0,0,8,"[0, 8]",2,23,"[1, 4, 5, 7, 9, 10, 11, 12, 13, 14, 15, 16, 17, 18, 19, 20, 21, 23, 24, 25, 26, 28, 29]",202,4315,4202,1,16,7,1.0
undo,32,1,0,0,0,20,"[0, 8, 20]",3,12,"[1, 4, 5, 11, 13, 14, 15, 17, 18, 19, 28, 29]",125.9408125,5752,1437,1,7,7,1.02364736730791
undo,32,1,0,0,0,5,"[0, 8, 20, 5]",4,7,"[1, 4, 11, 13, 17, 18, 29]",104.469902,6599,847,1,3,7,1.0439599203945713
undo,32,1,0,0,0,18,"[0, 8, 20, 5, 18]",5,2,"[4, 29]",81.64447755,7832,1233,1,1,7,1.0840407791793756
undo,32,1,0,0,0,4,"[0, 8, 20, 5, 18, 4]",6,1,[29],42.69579336,8790,958,1,0,7,1.0902329133216275
undo,32,1,0,0,1,29,"[0, 8, 20, 5, 18, 4, 29]",7,0,[],6.640280603,9493,703,1,0,7,1.2859729622882756
undo,32,1,1,0,0,4,"[0, 8, 20, 5, 18, 4]",6,1,[29],42.69579336,10078,585,1,0,7,1.0902329133216275
undo,32,1,1,0,0,18,"[0, 8, 20, 5, 18]",5,2,"[4, 29]",81.64447755,10261,183,1,1,7,1.0840407791793756
undo,32,1,1,0,0,5,"[0, 8, 20, 5]",4,7,"[1, 4, 11, 13, 17, 18, 29]",104.469902,10427,166,1,3,7,1.0439599203945713
undo,32,1,1,0,0,20,"[0, 8, 20]",3,12,"[1, 4, 5, 11, 13, 14, 15, 17, 18, 19, 28, 29]",125.9408125,10611,184,1,7,7,1.02364736730791
undo,32,1,1,0,0,8,"[0, 8]",2,23,"[1, 4, 5, 7, 9, 10, 11, 12, 13, 14, 15, 16, 17, 18, 19, 20, 21, 23, 24, 25, 26, 28, 29]",202,10927,316,1,16,7,1.0
undo,32,1,1,0,0,0,[0],1,26,"[1, 2, 4, 5, 7, 8, 9, 10, 11, 12, 13, 14, 15, 16, 17, 18, 19, 20, 21, 22, 23, 24, 25, 26, 28, 29]",300,11311,384,6,74,7,0.0
undo,32,1,0,0,0,14,"[0, 14]",2,19,"[1, 4, 5, 8, 9, 13, 15, 17, 18, 19, 20, 21, 22, 23, 24, 25, 26, 28, 29]",200.1901808,11899,588,5,42,7,1.0
undo,32,1,0,0,0,17,"[0, 14, 17]",3,15,"[1, 4, 5, 8, 9, 13, 15, 18, 19, 20, 22, 23, 25, 28, 29]",147.8356204,13105,1206,5,27,7,1.0028844724416826
undo,32,1,0,0,0,1,"[0, 14, 17, 1]",4,12,"[4, 5, 8, 9, 15, 18, 20, 22, 23, 25, 28, 29]",123.4840291,13922,817,5,15,7,1.0264985578353567
undo,32,1,0,0,0,28,"[0, 14, 17, 1, 28]",5,5,"[9, 15, 22, 23, 29]",88.59850198,14983,1061,5,3,7,1.0339861575999345
undo,32,1,0,0,0,23,"[0, 14, 17, 1, 28, 23]",6,2,"[15, 22]",51.70676849,15982,999,2,0,7,1.0327458250705703
undo,32,1,0,0,1,15,"[0, 14, 17, 1, 28, 23, 15]",7,0,[],20.81987807,18265,2283,1,0,7,1.1948681641401226
undo,32,1,0,1,1,15,"[0, 14, 17, 1, 28, 23, 15]",7,0,[],20.81987807,23007,4742,1,0,7,1.1948681641401226
undo,33,28,0,0,0,0,[0],1,27,"[1, 2, 3, 4, 5, 6, 7, 8, 9, 10, 11, 12, 13, 14, 15, 16, 17, 18, 19, 20, 22, 23, 25, 26, 27, 28, 29]",300,130,-1,2,96,9,0.0
undo,33,28,0,0,0,20,"[0, 20]",2,22,"[2, 3, 4, 5, 6, 7, 8, 9, 10, 11, 12, 13, 14, 15, 16, 18, 19, 22, 23, 26, 28, 29]",245.9629757,2729,2599,1,24,9,1.0
undo,33,28,0,0,0,3,"[0, 20, 3]",3,19,"[2, 4, 5, 6, 7, 8, 9, 10, 11, 12, 13, 14, 15, 16, 18, 19, 23, 26, 28]",204.6229224,3769,1040,9,50,8,1.9497218646689283
undo,33,28,0,0,0,5,"[0, 20, 3, 5]",4,13,"[2, 4, 7, 8, 9, 12, 13, 14, 15, 18, 19, 26, 28]",120.5277383,5519,1750,2,20,8,1.3767728943595041
undo,33,28,0,0,0,26,"[0, 20, 3, 5, 26]",5,11,"[2, 4, 7, 8, 9, 12, 13, 14, 18, 19, 28]",87.77105956,6602,1083,2,12,8,1.32061441211042
undo,33,28,0,0,0,19,"[0, 20, 3, 5, 26, 19]",6,5,"[2, 7, 12, 13, 18]",46.77105956,7594,992,2,4,8,1.3869157506525107
undo,33,28,0,0,0,7,"[0, 20, 3, 5, 26, 19, 7]",7,2,"[12, 13]",19.04021032,8718,1124,2,0,8,1.4342899363887067
undo,33,28,0,0,1,12,"[0, 20, 3, 5, 26, 19, 7, 12]",8,0,[],5.887263878,9849,1131,1,0,8,1.4275803532406273
undo,33,28,1,0,0,7,"[0, 20, 3, 5, 26, 19, 7]",7,2,"[12, 13]",19.04021032,10411,562,2,0,8,1.4342899363887067
undo,33,28,1,0,0,19,"[0, 20, 3, 5, 26, 19]",6,5,"[2, 7, 12, 13, 18]",46.77105956,10611,200,2,4,8,1.3869157506525107
undo,33,28,1,0,0,26,"[0, 20, 3, 5, 26]",5,11,"[2, 4, 7, 8, 9, 12, 13, 14, 18, 19, 28]",87.77105956,10760,149,2,12,8,1.32061441211042
undo,33,28,1,0,0,5,"[0, 20, 3, 5]",4,13,"[2, 4, 7, 8, 9, 12, 13, 14, 15, 18, 19, 26, 28]",120.5277383,10961,201,2,20,8,1.3767728943595041
undo,33,28,1,0,0,3,"[0, 20, 3]",3,19,"[2, 4, 5, 6, 7, 8, 9, 10, 11, 12, 13, 14, 15, 16, 18, 19, 23, 26, 28]",204.6229224,11110,149,9,50,8,1.9497218646689283
undo,33,28,1,0,0,20,"[0, 20]",2,22,"[2, 3, 4, 5, 6, 7, 8, 9, 10, 11, 12, 13, 14, 15, 16, 18, 19, 22, 23, 26, 28, 29]",245.9629757,11460,350,1,24,9,1.0
undo,33,28,1,0,0,0,[0],1,27,"[1, 2, 3, 4, 5, 6, 7, 8, 9, 10, 11, 12, 13, 14, 15, 16, 17, 18, 19, 20, 22, 23, 25, 26, 27, 28, 29]",300,11943,483,2,96,9,0.0
undo,33,28,0,0,0,14,"[0, 14]",2,14,"[1, 2, 3, 5, 7, 10, 11, 12, 13, 17, 18, 19, 20, 26]",147.8914861,13185,1242,1,26,8,1.0
undo,33,28,0,0,0,18,"[0, 14, 18]",3,11,"[1, 2, 3, 5, 7, 11, 12, 13, 17, 19, 26]",122.3963885,14058,873,1,23,8,1.0675599824559303
undo,33,28,0,0,0,13,"[0, 14, 18, 13]",4,7,"[2, 7, 11, 12, 17, 19, 26]",97.9832773,15450,1392,1,9,8,1.0602397944415018
undo,33,28,0,0,0,12,"[0, 14, 18, 13, 12]",5,4,"[2, 7, 17, 19]",80.77862677,16062,612,1,3,8,1.0640685934245377
undo,33,28,0,0,0,7,"[0, 14, 18, 13, 12, 7]",6,2,"[2, 19]",67.62568033,16949,887,1,1,8,1.186262804928269
undo,33,28,0,0,0,19,"[0, 14, 18, 13, 12, 7, 19]",7,1,[2],39.89483108,17998,1049,1,0,8,1.424576333867947
undo,33,28,0,0,1,2,"[0, 14, 18, 13, 12, 7, 19, 2]",8,0,[],2.531747699,18963,965,1,0,8,1.4824387893309579
undo,33,28,0,1,1,2,"[0, 14, 18, 13, 12, 7, 19, 2]",8,0,[],2.531747699,20724,1761,1,0,8,1.4824387893309579
undo,34,31,0,0,0,0,[0],1,27,"[1, 3, 4, 5, 6, 7, 8, 10, 11, 12, 13, 14, 15, 16, 17, 18, 19, 20, 21, 22, 23, 24, 25, 26, 27, 28, 29]",300,147,-1,2,87,10,0.0
undo,34,31,0,0,0,14,"[0, 14]",2,25,"[1, 3, 5, 6, 7, 8, 10, 11, 12, 13, 15, 16, 17, 18, 19, 20, 21, 22, 23, 24, 25, 26, 27, 28, 29]",263.861378,2155,2008,2,59,10,1.0
undo,34,31,0,0,0,27,"[0, 14, 27]",3,22,"[1, 3, 5, 6, 7, 8, 10, 11, 12, 13, 15, 16, 17, 18, 19, 20, 21, 22, 24, 25, 28, 29]",235.6833724,3906,1751,1,39,10,1.5881859159302467
undo,34,31,0,0,0,8,"[0, 14, 27, 8]",4,20,"[1, 3, 5, 6, 7, 10, 11, 12, 13, 16, 17, 18, 19, 20, 21, 22, 24, 25, 28, 29]",224.6380114,4771,865,1,36,10,2.1665048452331277
undo,34,31,0,0,0,18,"[0, 14, 27, 8, 18]",5,15,"[1, 5, 6, 7, 11, 12, 13, 16, 17, 19, 20, 22, 25, 28, 29]",188.7911147,5882,1111,1,26,10,1.7273375741920205
undo,34,31,0,0,0,17,"[0, 14, 27, 8, 18, 17]",6,13,"[1, 5, 6, 7, 11, 12, 13, 16, 19, 20, 22, 25, 28]",159.584951,7716,1834,1,13,10,1.551192427769927
undo,34,31,0,0,0,11,"[0, 14, 27, 8, 18, 17, 11]",7,7,"[5, 12, 16, 19, 22, 25, 28]",118.4753414,8587,871,1,4,10,2.9650760544203494
undo,34,31,0,0,0,5,"[0, 14, 27, 8, 18, 17, 11, 5]",8,2,"[16, 28]",74.79468207,9557,970,1,1,10,2.56711965625205
undo,34,31,0,0,0,28,"[0, 14, 27, 8, 18, 17, 11, 5, 28]",9,1,[16],54.57093365,10449,892,1,0,10,2.2865510762058148
undo,34,31,0,0,1,16,"[0, 14, 27, 8, 18, 17, 11, 5, 28, 16]",10,0,[],20.95546102,11406,957,1,0,10,2.089356850786318
undo,34,31,0,1,1,16,"[0, 14, 27, 8, 18, 17, 11, 5, 28, 16]",10,0,[],20.95546102,12578,1172,1,0,10,2.089356850786318
undo,35,25,0,0,0,0,[0],1,28,"[1, 2, 3, 4, 5, 7, 8, 9, 10, 11, 12, 13, 14, 15, 16, 17, 18, 19, 20, 21, 22, 23, 24, 25, 26, 27, 28, 29]",300,114,-1,5,94,10,0.0
undo,35,25,0,0,0,23,"[0, 23]",2,23,"[1, 2, 3, 5, 7, 8, 9, 11, 12, 13, 14, 16, 17, 19, 20, 21, 22, 24, 25, 26, 27, 28, 29]",259.7756293,3645,3531,3,33,10,1.0
undo,35,25,0,0,0,19,"[0, 23, 19]",3,21,"[1, 2, 3, 5, 7, 8, 9, 11, 12, 13, 14, 16, 17, 20, 21, 22, 24, 25, 27, 28, 29]",223.9287326,4733,1088,3,24,10,1.583101227007039
undo,35,25,0,0,0,29,"[0, 23, 19, 29]",4,19,"[1, 2, 3, 5, 7, 8, 9, 11, 12, 13, 14, 16, 17, 20, 21, 22, 24, 25, 28]",207.649912,5704,971,3,17,10,1.474631541426484
undo,35,25,0,0,0,22,"[0, 23, 19, 29, 22]",5,18,"[1, 2, 3, 5, 7, 8, 9, 11, 12, 13, 14, 16, 17, 20, 21, 24, 25, 28]",191.5253965,8070,2366,3,14,10,1.4020377754906637
undo,35,25,0,0,0,7,"[0, 23, 19, 29, 22, 7]",6,7,"[3, 8, 9, 11, 13, 24, 28]",115.8814939,11060,2990,3,11,10,1.5709678649326715
undo,35,25,0,0,0,24,"[0, 23, 19, 29, 22, 7, 24]",7,5,"[3, 8, 9, 13, 28]",91.12265712,12537,1477,3,7,10,1.486191600033379
undo,35,25,0,0,0,9,"[0, 23, 19, 29, 22, 7, 24, 9]",8,4,"[3, 8, 13, 28]",73.09490075,13735,1198,3,3,10,1.453504870342882
undo,35,25,0,0,0,3,"[0, 23, 19, 29, 22, 7, 24, 9, 3]",9,3,"[8, 13, 28]",42.82940885,14904,1169,3,0,10,1.388955167525479
undo,35,25,0,0,1,28,"[0, 23, 19, 29, 22, 7, 24, 9, 3, 28]",10,0,[],11.52445716,15929,1025,1,0,10,1.3331084120212044
undo,35,25,0,1,1,28,"[0, 23, 19, 29, 22, 7, 24, 9, 3, 28]",10,0,[],11.52445716,17375,1446,1,0,10,1.3331084120212044
undo,36,22,0,0,0,0,[0],1,29,"[1, 2, 3, 4, 5, 6, 7, 8, 9, 10, 11, 12, 13, 14, 15, 16, 17, 18, 19, 20, 21, 22, 23, 24, 25, 26, 27, 28, 29]",300,131,-1,31,704,9,0.0
undo,36,22,0,0,0,16,"[0, 16]",2,21,"[1, 3, 6, 7, 8, 9, 11, 13, 14, 15, 17, 18, 19, 20, 21, 22, 24, 25, 27, 28, 29]",218.605897,2920,2789,17,147,9,1.0
undo,36,22,0,0,0,28,"[0, 16, 28]",3,13,"[6, 7, 9, 13, 14, 17, 19, 20, 21, 22, 24, 25, 29]",184.1675463,3817,897,12,61,9,1.047282311284478
undo,36,22,0,0,0,6,"[0, 16, 28, 6]",4,12,"[7, 9, 13, 14, 17, 19, 20, 21, 22, 24, 25, 29]",154.1675463,4484,667,12,43,9,1.645645870580622
undo,36,22,0,0,0,9,"[0, 16, 28, 6, 9]",5,8,"[7, 14, 17, 19, 20, 21, 24, 29]",127.5404924,5375,891,8,17,9,1.925750226630103
undo,36,22,0,0,0,19,"[0, 16, 28, 6, 9, 19]",6,6,"[7, 14, 17, 21, 24, 29]",107.1444143,6064,689,3,7,9,2.4220750331476455
undo,36,22,0,0,0,29,"[0, 16, 28, 6, 9, 19, 29]",7,4,"[7, 14, 17, 24]",92.11111796,6916,852,2,2,9,2.6996279574991067
undo,36,22,0,0,0,7,"[0, 16, 28, 6, 9, 19, 29, 7]",8,1,[14],41.0327468,11614,4698,1,0,9,2.059125386946491
undo,36,22,0,0,1,14,"[0, 16, 28, 6, 9, 19, 29, 7, 14]",9,0,[],27.99434199,12270,656,1,0,9,2.0997569104205307
undo,36,22,0,1,1,14,"[0, 16, 28, 6, 9, 19, 29, 7, 14]",9,0,[],27.99434199,14193,1923,1,0,9,2.0997569104205307
undo,37,3,0,0,0,0,[0],1,29,"[1, 2, 3, 4, 5, 6, 7, 8, 9, 10, 11, 12, 13, 14, 15, 16, 17, 18, 19, 20, 21, 22, 23, 24, 25, 26, 27, 28, 29]",300,165,-1,34,427,10,0.0
undo,37,3,0,0,0,8,"[0, 8]",2,28,"[1, 2, 3, 4, 5, 6, 7, 9, 10, 11, 12, 13, 14, 15, 16, 17, 18, 19, 20, 21, 22, 23, 24, 25, 26, 27, 28, 29]",239.9666759,2118,1953,1,54,10,1.0
undo,37,3,0,0,0,24,"[0, 8, 24]",3,23,"[1, 2, 3, 4, 5, 6, 7, 10, 11, 12, 14, 15, 16, 17, 18, 19, 20, 21, 22, 25, 26, 27, 28]",227.8011509,2863,745,1,50,10,1.2267083825981846
undo,37,3,0,0,0,14,"[0, 8, 24, 14]",4,10,"[3, 4, 7, 10, 16, 17, 19, 20, 21, 22]",156.6885641,4670,1807,11,34,9,1.1134869392511408
undo,37,3,0,0,0,21,"[0, 8, 24, 14, 21]",5,6,"[3, 4, 10, 17, 19, 20]",129.781316,5469,799,5,9,9,1.1069743794257796
undo,37,3,0,0,0,19,"[0, 8, 24, 14, 21, 19]",6,5,"[3, 4, 10, 17, 20]",117.5747604,7374,1905,5,2,9,1.2361067774463228
undo,37,3,0,0,0,3,"[0, 8, 24, 14, 21, 19, 3]",7,2,"[17, 20]",80.23845095,9160,1786,2,0,9,1.7566876040075643
undo,37,3,0,0,0,20,"[0, 8, 24, 14, 21, 19, 3, 20]",8,1,[17],59.8423729,9933,773,1,0,9,2.1212226227760778
undo,37,3,0,0,1,17,"[0, 8, 24, 14, 21, 19, 3, 20, 17]",9,0,[],47.19326226,10767,834,1,0,9,2.4711452839916217
undo,37,3,1,0,0,20,"[0, 8, 24, 14, 21, 19, 3, 20]",8,1,[17],59.8423729,11278,511,1,0,9,2.1212226227760778
undo,37,3,1,0,0,3,"[0, 8, 24, 14, 21, 19, 3]",7,2,"[17, 20]",80.23845095,11511,233,2,0,9,1.7566876040075643
undo,37,3,1,0,0,19,"[0, 8, 24, 14, 21, 19]",6,5,"[3, 4, 10, 17, 20]",117.5747604,11695,184,5,2,9,1.2361067774463228
undo,37,3,1,0,0,21,"[0, 8, 24, 14, 21]",5,6,"[3, 4, 10, 17, 19, 20]",129.781316,12061,366,5,9,9,1.1069743794257796
undo,37,3,1,0,0,14,"[0, 8, 24, 14]",4,10,"[3, 4, 7, 10, 16, 17, 19, 20, 21, 22]",156.6885641,12511,450,11,34,9,1.1134869392511408
undo,37,3,0,0,0,10,"[0, 8, 24, 14, 10]",5,5,"[3, 4, 19, 20, 21]",111.2352914,13015,504,1,4,8,1.198826299403617
undo,37,3,0,0,0,21,"[0, 8, 24, 14, 10, 21]",6,2,"[3, 19]",61.89970583,13852,837,1,1,8,1.5484253501803087
undo,37,3,0,0,0,19,"[0, 8, 24, 14, 10, 21, 19]",7,1,[3],49.69315021,15301,1449,1,0,8,1.6960700950432392
undo,37,3,0,0,1,3,"[0, 8, 24, 14, 10, 21, 19, 3]",8,0,[],12.35684081,16267,966,1,0,8,2.2993065634592984
undo,37,3,1,0,0,19,"[0, 8, 24, 14, 10, 21, 19]",7,1,[3],49.69315021,16694,427,1,0,8,1.6960700950432392
undo,37,3,1,0,0,21,"[0, 8, 24, 14, 10, 21]",6,2,"[3, 19]",61.89970583,16910,216,1,1,8,1.5484253501803087
undo,37,3,1,0,0,10,"[0, 8, 24, 14, 10]",5,5,"[3, 4, 19, 20, 21]",111.2352914,17060,150,1,4,8,1.198826299403617
undo,37,3,1,0,0,14,"[0, 8, 24, 14]",4,10,"[3, 4, 7, 10, 16, 17, 19, 20, 21, 22]",156.6885641,17243,183,11,34,9,1.1134869392511408
undo,37,3,1,0,0,24,"[0, 8, 24]",3,23,"[1, 2, 3, 4, 5, 6, 7, 10, 11, 12, 14, 15, 16, 17, 18, 19, 20, 21, 22, 25, 26, 27, 28]",227.8011509,17676,433,1,50,10,1.2267083825981846
undo,37,3,1,0,0,8,"[0, 8]",2,28,"[1, 2, 3, 4, 5, 6, 7, 9, 10, 11, 12, 13, 14, 15, 16, 17, 18, 19, 20, 21, 22, 23, 24, 25, 26, 27, 28, 29]",239.9666759,18427,751,1,54,10,1.0
undo,37,3,0,0,0,24,"[0, 8, 24]",3,23,"[1, 2, 3, 4, 5, 6, 7, 10, 11, 12, 14, 15, 16, 17, 18, 19, 20, 21, 22, 25, 26, 27, 28]",227.8011509,21116,2689,1,50,10,1.2267083825981846
undo,37,3,0,0,0,4,"[0, 8, 24, 4]",4,15,"[3, 5, 6, 7, 10, 14, 15, 16, 17, 18, 19, 20, 21, 22, 28]",165.6239846,22535,1419,2,24,9,1.1727066717264518
undo,37,3,0,0,0,10,"[0, 8, 24, 4, 10]",5,5,"[3, 14, 19, 20, 21]",111.8001981,23447,912,8,5,8,1.1952386319116792
undo,37,3,1,0,0,4,"[0, 8, 24, 4]",4,15,"[3, 5, 6, 7, 10, 14, 15, 16, 17, 18, 19, 20, 21, 22, 28]",165.6239846,24557,1110,2,24,9,1.1727066717264518
undo,37,3,1,0,0,24,"[0, 8, 24]",3,23,"[1, 2, 3, 4, 5, 6, 7, 10, 11, 12, 14, 15, 16, 17, 18, 19, 20, 21, 22, 25, 26, 27, 28]",227.8011509,24775,218,1,50,10,1.2267083825981846
undo,37,3,0,0,0,14,"[0, 8, 24, 14]",4,10,"[3, 4, 7, 10, 16, 17, 19, 20, 21, 22]",156.6885641,25716,941,11,34,9,1.1134869392511408
undo,37,3,0,0,0,21,"[0, 8, 24, 14, 21]",5,6,"[3, 4, 10, 17, 19, 20]",129.781316,27082,1366,5,9,9,1.1069743794257796
undo,37,3,0,0,0,19,"[0, 8, 24, 14, 21, 19]",6,5,"[3, 4, 10, 17, 20]",117.5747604,28031,949,5,2,9,1.2361067774463228
undo,37,3,0,0,0,3,"[0, 8, 24, 14, 21, 19, 3]",7,2,"[17, 20]",80.23845095,29642,1611,2,0,9,1.7566876040075643
undo,37,3,0,0,0,20,"[0, 8, 24, 14, 21, 19, 3, 20]",8,1,[17],59.8423729,30659,1017,1,0,9,2.1212226227760778
undo,37,3,0,0,1,17,"[0, 8, 24, 14, 21, 19, 3, 20, 17]",9,0,[],47.19326226,31348,689,1,0,9,2.4711452839916217
undo,37,3,1,0,0,20,"[0, 8, 24, 14, 21, 19, 3, 20]",8,1,[17],59.8423729,32956,1608,1,0,9,2.1212226227760778
undo,37,3,1,0,0,3,"[0, 8, 24, 14, 21, 19, 3]",7,2,"[17, 20]",80.23845095,33172,216,2,0,9,1.7566876040075643
undo,37,3,1,0,0,19,"[0, 8, 24, 14, 21, 19]",6,5,"[3, 4, 10, 17, 20]",117.5747604,33322,150,5,2,9,1.2361067774463228
undo,37,3,1,0,0,21,"[0, 8, 24, 14, 21]",5,6,"[3, 4, 10, 17, 19, 20]",129.781316,33505,183,5,9,9,1.1069743794257796
undo,37,3,1,0,0,14,"[0, 8, 24, 14]",4,10,"[3, 4, 7, 10, 16, 17, 19, 20, 21, 22]",156.6885641,33688,183,11,34,9,1.1134869392511408
undo,37,3,1,0,0,24,"[0, 8, 24]",3,23,"[1, 2, 3, 4, 5, 6, 7, 10, 11, 12, 14, 15, 16, 17, 18, 19, 20, 21, 22, 25, 26, 27, 28]",227.8011509,33905,217,1,50,10,1.2267083825981846
undo,37,3,1,0,0,8,"[0, 8]",2,28,"[1, 2, 3, 4, 5, 6, 7, 9, 10, 11, 12, 13, 14, 15, 16, 17, 18, 19, 20, 21, 22, 23, 24, 25, 26, 27, 28, 29]",239.9666759,34122,217,1,54,10,1.0
undo,37,3,1,0,0,0,[0],1,29,"[1, 2, 3, 4, 5, 6, 7, 8, 9, 10, 11, 12, 13, 14, 15, 16, 17, 18, 19, 20, 21, 22, 23, 24, 25, 26, 27, 28, 29]",300,34471,349,34,427,10,0.0
undo,37,3,0,0,0,7,"[0, 7]",2,28,"[1, 2, 3, 4, 5, 6, 8, 9, 10, 11, 12, 13, 14, 15, 16, 17, 18, 19, 20, 21, 22, 23, 24, 25, 26, 27, 28, 29]",278.8103799,35833,1362,24,215,10,1.0
undo,37,3,0,0,0,24,"[0, 7, 24]",3,23,"[1, 2, 3, 4, 5, 6, 8, 10, 11, 12, 14, 15, 16, 17, 18, 19, 20, 21, 22, 25, 26, 27, 28]",219.6411311,36675,842,8,84,10,1.3653527628841189
undo,37,3,1,0,0,7,"[0, 7]",2,28,"[1, 2, 3, 4, 5, 6, 8, 9, 10, 11, 12, 13, 14, 15, 16, 17, 18, 19, 20, 21, 22, 23, 24, 25, 26, 27, 28, 29]",278.8103799,37504,829,24,215,10,1.0
undo,37,3,0,0,0,8,"[0, 7, 8]",3,24,"[1, 2, 3, 4, 5, 6, 10, 11, 12, 13, 14, 15, 16, 17, 18, 19, 20, 21, 22, 24, 25, 26, 27, 28]",222.837172,38576,1072,16,114,10,1.2853332575451413
undo,37,3,0,0,0,24,"[0, 7, 8, 24]",4,21,"[1, 3, 4, 5, 6, 10, 11, 12, 14, 15, 16, 17, 18, 19, 20, 21, 22, 25, 26, 27, 28]",210.671647,39225,649,16,91,10,1.5177505014936548
undo,37,3,0,0,0,14,"[0, 7, 8, 24, 14]",5,7,"[3, 4, 10, 17, 19, 20, 21]",139.5590602,40148,923,4,18,10,1.2465780547557723
undo,37,3,0,0,0,21,"[0, 7, 8, 24, 14, 21]",6,6,"[3, 4, 10, 17, 19, 20]",112.6518121,40976,828,2,7,10,1.2183717977583874
undo,37,3,0,0,0,19,"[0, 7, 8, 24, 14, 21, 19]",7,5,"[3, 4, 10, 17, 20]",100.4452565,41645,669,2,4,10,1.3521756718137403
undo,37,3,0,0,0,3,"[0, 7, 8, 24, 14, 21, 19, 3]",8,2,"[17, 20]",63.10894706,42360,715,2,0,10,1.8936141376820974
undo,37,3,0,0,0,20,"[0, 7, 8, 24, 14, 21, 19, 3, 20]",9,1,[17],42.712869,43262,902,1,0,10,2.2725211329603123
undo,37,3,0,0,1,17,"[0, 7, 8, 24, 14, 21, 19, 3, 20, 17]",10,0,[],30.06375836,44695,1433,1,0,10,2.638583435197603
undo,37,3,0,1,1,17,"[0, 7, 8, 24, 14, 21, 19, 3, 20, 17]",10,0,[],30.06375836,47234,2539,1,0,10,2.638583435197603
undo,38,37,0,0,0,0,[0],1,29,"[1, 2, 3, 4, 5, 6, 7, 8, 9, 10, 11, 12, 13, 14, 15, 16, 17, 18, 19, 20, 21, 22, 23, 24, 25, 26, 27, 28, 29]",300,128,-1,6,168,10,0.0
undo,38,37,0,0,0,9,"[0, 9]",2,28,"[1, 2, 3, 4, 5, 6, 7, 8, 10, 11, 12, 13, 14, 15, 16, 17, 18, 19, 20, 21, 22, 23, 24, 25, 26, 27, 28, 29]",275.7925631,4115,3987,45,289,9,1.0
undo,38,37,0,0,0,18,"[0, 9, 18]",3,15,"[1, 2, 4, 6, 7, 10, 15, 17, 19, 20, 21, 22, 26, 28, 29]",172.2068498,5923,1808,33,160,9,1.3094770236215172
undo,38,37,0,0,0,2,"[0, 9, 18, 2]",4,9,"[1, 4, 7, 15, 19, 20, 21, 22, 26]",113.5127275,10115,4192,8,33,9,1.2336091651811387
undo,38,37,0,0,0,4,"[0, 9, 18, 2, 4]",5,8,"[1, 7, 15, 19, 20, 21, 22, 26]",102.1109732,10737,622,7,13,9,1.2175308229199928
undo,38,37,0,0,0,1,"[0, 9, 18, 2, 4, 1]",6,7,"[7, 15, 19, 20, 21, 22, 26]",84.39092806,12182,1445,7,4,9,1.3618622314301452
undo,38,37,0,0,0,15,"[0, 9, 18, 2, 4, 1, 15]",7,3,"[20, 21, 26]",44.42844566,13168,986,2,1,9,1.5359133707796992
undo,38,37,0,0,0,21,"[0, 9, 18, 2, 4, 1, 15, 21]",8,1,[20],29.42844566,14061,893,1,0,9,1.7434472474581628
undo,38,37,1,0,0,15,"[0, 9, 18, 2, 4, 1, 15]",7,3,"[20, 21, 26]",44.42844566,15824,1763,2,1,9,1.5359133707796992
undo,38,37,0,0,0,20,"[0, 9, 18, 2, 4, 1, 15, 20]",8,1,[21],27.42844566,16530,706,1,0,9,1.818396800725483
undo,38,37,1,0,0,15,"[0, 9, 18, 2, 4, 1, 15]",7,3,"[20, 21, 26]",44.42844566,18456,1926,2,1,9,1.5359133707796992
undo,38,37,0,0,0,21,"[0, 9, 18, 2, 4, 1, 15, 21]",8,1,[20],29.42844566,19268,812,1,0,9,1.7434472474581628
undo,38,37,0,0,1,20,"[0, 9, 18, 2, 4, 1, 15, 21, 20]",9,0,[],15.00624056,22255,2987,1,0,9,1.901268610538841
undo,38,37,0,1,1,20,"[0, 9, 18, 2, 4, 1, 15, 21, 20]",9,0,[],15.00624056,24455,2200,1,0,9,1.901268610538841
undo,39,24,0,0,0,0,[0],1,29,"[1, 2, 3, 4, 5, 6, 7, 8, 9, 10, 11, 12, 13, 14, 15, 16, 17, 18, 19, 20, 21, 22, 23, 24, 25, 26, 27, 28, 29]",300,130,-1,4,76,10,0.0
undo,39,24,0,0,0,16,"[0, 16]",2,28,"[1, 2, 3, 4, 5, 6, 7, 8, 9, 10, 11, 12, 13, 14, 15, 17, 18, 19, 20, 21, 22, 23, 24, 25, 26, 27, 28, 29]",210.3562607,2982,2852,13,110,9,1.0
undo,39,24,0,0,0,22,"[0, 16, 22]",3,27,"[1, 2, 3, 4, 5, 6, 7, 8, 9, 10, 11, 12, 13, 14, 15, 17, 18, 19, 20, 21, 23, 24, 25, 26, 27, 28, 29]",192.3285043,3650,668,7,54,9,1.0217425143037777
undo,39,24,0,0,0,15,"[0, 16, 22, 15]",4,24,"[2, 3, 4, 5, 6, 7, 8, 9, 10, 11, 12, 13, 14, 17, 18, 19, 21, 23, 24, 25, 26, 27, 28, 29]",171.1153009,4274,624,3,24,9,1.077448994301009
undo,39,24,0,0,0,28,"[0, 16, 22, 15, 28]",5,12,"[3, 4, 6, 8, 9, 11, 13, 21, 23, 25, 26, 27]",125.8383752,5187,913,2,10,9,1.0579370080485104
undo,39,24,0,0,0,23,"[0, 16, 22, 15, 28, 23]",6,7,"[3, 4, 8, 9, 11, 13, 27]",106.8120776,5926,739,2,4,9,1.0965087965469686
undo,39,24,0,0,0,11,"[0, 16, 22, 15, 28, 23, 11]",7,2,"[9, 27]",79.88625355,6636,710,2,0,9,1.0958394317987046
undo,39,24,0,0,0,9,"[0, 16, 22, 15, 28, 23, 11, 9]",8,1,[27],47.63722255,8384,1748,1,0,9,1.1888836189676257
undo,39,24,0,0,1,27,"[0, 16, 22, 15, 28, 23, 11, 9, 27]",9,0,[],8.077141663,9196,812,1,0,9,1.278140207078743
undo,39,24,0,1,1,27,"[0, 16, 22, 15, 28, 23, 11, 9, 27]",9,0,[],8.077141663,10377,1181,1,0,9,1.278140207078743
undo,40,38,0,0,0,0,[0],1,29,"[1, 2, 3, 4, 5, 6, 7, 8, 9, 10, 11, 12, 13, 14, 15, 16, 17, 18, 19, 20, 21, 22, 23, 24, 25, 26, 27, 28, 29]",300,148,-1,33,506,9,0.0
undo,40,38,0,0,0,19,"[0, 19]",2,23,"[3, 4, 5, 6, 7, 8, 9, 11, 13, 14, 15, 16, 17, 18, 20, 22, 23, 24, 25, 26, 27, 28, 29]",219.5015528,1803,1655,6,61,9,1.0
undo,40,38,1,0,0,0,[0],1,29,"[1, 2, 3, 4, 5, 6, 7, 8, 9, 10, 11, 12, 13, 14, 15, 16, 17, 18, 19, 20, 21, 22, 23, 24, 25, 26, 27, 28, 29]",300,3930,2127,33,506,9,0.0
undo,40,38,0,0,0,17,"[0, 17]",2,26,"[1, 3, 4, 5, 6, 7, 8, 9, 10, 11, 12, 13, 14, 15, 16, 18, 19, 20, 22, 23, 24, 25, 26, 27, 28, 29]",235.1848783,5617,1687,11,115,9,1.0
undo,40,38,0,0,0,20,"[0, 17, 20]",3,24,"[1, 3, 4, 5, 6, 7, 9, 10, 11, 12, 13, 14, 15, 16, 18, 19, 22, 23, 24, 25, 26, 27, 28, 29]",211.4151497,7253,1636,7,70,9,1.6449793733822013
undo,40,38,0,0,0,4,"[0, 17, 20, 4]",4,17,"[3, 5, 7, 10, 11, 12, 13, 14, 15, 16, 18, 19, 22, 24, 26, 27, 28]",177.4740242,10656,3403,4,40,9,1.7475203137292266
undo,40,38,0,0,0,15,"[0, 17, 20, 4, 15]",5,12,"[5, 10, 11, 12, 13, 14, 16, 19, 24, 26, 27, 28]",151.4740242,11745,1089,3,20,9,2.0241835387118274
undo,40,38,0,0,0,11,"[0, 17, 20, 4, 15, 11]",6,8,"[5, 10, 12, 13, 14, 16, 26, 28]",115.0734747,12755,1010,2,7,9,2.3142952219285746
undo,40,38,0,0,0,28,"[0, 17, 20, 4, 15, 11, 28]",7,4,"[10, 12, 14, 16]",88.05496254,14091,1336,2,2,9,1.9846119749887663
undo,40,38,0,0,0,14,"[0, 17, 20, 4, 15, 11, 28, 14]",8,1,[12],32.61129744,15448,1357,1,0,9,1.7265262770891336
undo,40,38,0,0,1,12,"[0, 17, 20, 4, 15, 11, 28, 14, 12]",9,0,[],17.84647438,16952,1504,1,0,9,1.6635011222913068
undo,40,38,0,1,1,12,"[0, 17, 20, 4, 15, 11, 28, 14, 12]",9,0,[],17.84647438,18242,1290,1,0,9,1.6635011222913068
undo,41,11,0,0,0,0,[0],1,25,"[1, 2, 3, 4, 5, 6, 8, 9, 10, 11, 12, 13, 14, 15, 16, 17, 18, 19, 20, 22, 23, 25, 26, 27, 28]",300,114,-1,6,374,12,0.0
undo,41,11,0,0,0,18,"[0, 18]",2,21,"[1, 2, 4, 5, 6, 8, 9, 11, 12, 13, 14, 15, 16, 17, 19, 20, 22, 23, 25, 27, 28]",236.8493864,2572,2458,157,1477,11,1.0
undo,41,11,0,0,0,27,"[0, 18, 27]",3,19,"[1, 2, 4, 5, 6, 8, 9, 11, 12, 14, 15, 16, 17, 19, 20, 22, 23, 25, 28]",212.9956655,4289,1717,157,1315,11,1.060949579704323
undo,41,11,0,0,0,17,"[0, 18, 27, 17]",4,14,"[1, 2, 4, 5, 6, 8, 11, 12, 15, 19, 22, 23, 25, 28]",135.9177828,5627,1338,46,349,11,1.1156120043677304
undo,41,11,0,0,0,8,"[0, 18, 27, 17, 8]",5,11,"[1, 2, 5, 6, 11, 12, 15, 19, 22, 25, 28]",121.5999617,7029,1402,26,143,11,1.2285932943120847
undo,41,11,0,0,0,15,"[0, 18, 27, 17, 8, 15]",6,9,"[2, 5, 6, 11, 12, 19, 22, 25, 28]",108.1463377,8098,1069,24,54,11,1.223015425852291
undo,41,11,0,0,0,11,"[0, 18, 27, 17, 8, 15, 11]",7,6,"[2, 5, 12, 19, 22, 28]",90.03556742,8854,756,22,2,11,1.2111003833550413
undo,41,11,0,0,0,28,"[0, 18, 27, 17, 8, 15, 11, 28]",8,3,"[2, 5, 22]",70.61907959,9894,1040,6,0,11,1.3274100985292616
undo,41,11,0,0,0,2,"[0, 18, 27, 17, 8, 15, 11, 28, 2]",9,2,"[5, 22]",59.98893377,10735,841,2,0,11,1.3446894956422268
undo,41,11,0,0,0,22,"[0, 18, 27, 17, 8, 15, 11, 28, 2, 22]",10,1,[5],49.93905815,12135,1400,1,0,11,1.3263453016852544
undo,41,11,1,0,0,2,"[0, 18, 27, 17, 8, 15, 11, 28, 2]",9,2,"[5, 22]",59.98893377,14395,2260,2,0,11,1.3446894956422268
undo,41,11,1,0,0,28,"[0, 18, 27, 17, 8, 15, 11, 28]",8,3,"[2, 5, 22]",70.61907959,14661,266,6,0,11,1.3274100985292616
undo,41,11,1,0,0,11,"[0, 18, 27, 17, 8, 15, 11]",7,6,"[2, 5, 12, 19, 22, 28]",90.03556742,15410,749,22,2,11,1.2111003833550413
undo,41,11,1,0,0,15,"[0, 18, 27, 17, 8, 15]",6,9,"[2, 5, 6, 11, 12, 19, 22, 25, 28]",108.1463377,15660,250,24,54,11,1.223015425852291
undo,41,11,1,0,0,8,"[0, 18, 27, 17, 8]",5,11,"[1, 2, 5, 6, 11, 12, 15, 19, 22, 25, 28]",121.5999617,15927,267,26,143,11,1.2285932943120847
undo,41,11,1,0,0,17,"[0, 18, 27, 17]",4,14,"[1, 2, 4, 5, 6, 8, 11, 12, 15, 19, 22, 23, 25, 28]",135.9177828,16210,283,46,349,11,1.1156120043677304
undo,41,11,1,0,0,27,"[0, 18, 27]",3,19,"[1, 2, 4, 5, 6, 8, 9, 11, 12, 14, 15, 16, 17, 19, 20, 22, 23, 25, 28]",212.9956655,16410,200,157,1315,11,1.060949579704323
undo,41,11,1,0,0,18,"[0, 18]",2,21,"[1, 2, 4, 5, 6, 8, 9, 11, 12, 13, 14, 15, 16, 17, 19, 20, 22, 23, 25, 27, 28]",236.8493864,16626,216,157,1477,11,1.0
undo,41,11,1,0,0,0,[0],1,25,"[1, 2, 3, 4, 5, 6, 8, 9, 10, 11, 12, 13, 14, 15, 16, 17, 18, 19, 20, 22, 23, 25, 26, 27, 28]",300,17077,451,6,374,12,0.0
undo,41,11,0,0,0,1,"[0, 1]",2,24,"[2, 3, 4, 5, 6, 8, 9, 10, 11, 12, 13, 14, 15, 16, 17, 18, 19, 20, 22, 23, 25, 26, 27, 28]",264.6446609,17979,902,6,217,12,1.0
undo,41,11,0,0,0,18,"[0, 1, 18]",3,19,"[2, 4, 5, 6, 8, 9, 11, 12, 14, 15, 16, 17, 19, 20, 22, 23, 25, 27, 28]",212.3187591,18935,956,6,161,12,1.3884463804898786
undo,41,11,0,0,0,27,"[0, 1, 18, 27]",4,18,"[2, 4, 5, 6, 8, 9, 11, 12, 14, 15, 16, 17, 19, 20, 22, 23, 25, 28]",188.4650382,19754,819,6,155,12,1.3600813284083875
undo,41,11,0,0,0,8,"[0, 1, 18, 27, 8]",5,11,"[2, 5, 6, 11, 12, 15, 17, 19, 22, 25, 28]",118.2510795,20732,978,4,75,12,1.2516561493067806
undo,41,11,0,0,0,17,"[0, 1, 18, 27, 8, 17]",6,10,"[2, 5, 6, 11, 12, 15, 19, 22, 25, 28]",103.9332585,21715,983,4,40,12,1.3330781007673067
undo,41,11,0,0,0,15,"[0, 1, 18, 27, 8, 17, 15]",7,7,"[2, 5, 11, 12, 19, 22, 28]",91.28414782,22437,722,4,35,12,1.3305073448996472
undo,41,11,0,0,0,11,"[0, 1, 18, 27, 8, 17, 15, 11]",8,5,"[2, 5, 19, 22, 28]",73.17337754,23384,947,4,17,12,1.308363545391271
undo,41,11,0,0,0,28,"[0, 1, 18, 27, 8, 17, 15, 11, 28]",9,3,"[2, 5, 22]",53.7568897,26922,3538,3,3,12,1.4249903205603536
undo,41,11,0,0,0,5,"[0, 1, 18, 27, 8, 17, 15, 11, 28, 5]",10,2,"[2, 22]",35.86834588,28625,1703,1,1,12,1.623497724154086
undo,41,11,0,0,0,2,"[0, 1, 18, 27, 8, 17, 15, 11, 28, 5, 2]",11,1,[22],18.86834588,29488,863,1,0,12,1.5750723003139413
undo,41,11,0,0,1,22,"[0, 1, 18, 27, 8, 17, 15, 11, 28, 5, 2, 22]",12,0,[],8.818470263,31264,1776,1,0,12,1.5444525284394994
undo,41,11,0,1,1,22,"[0, 1, 18, 27, 8, 17, 15, 11, 28, 5, 2, 22]",12,0,[],8.818470263,33255,1991,1,0,12,1.5444525284394994
undo,42,4,0,0,0,0,[0],1,26,"[3, 4, 5, 6, 7, 8, 10, 11, 12, 13, 14, 15, 16, 17, 18, 19, 20, 21, 22, 23, 24, 25, 26, 27, 28, 29]",300,132,-1,4,489,10,0.0
undo,42,4,0,0,0,28,"[0, 28]",2,21,"[3, 4, 5, 6, 10, 11, 12, 13, 14, 15, 16, 17, 19, 20, 21, 22, 23, 24, 25, 26, 27]",225.9392142,3840,3708,2,216,10,1.0
undo,42,4,0,0,0,25,"[0, 28, 25]",3,15,"[3, 4, 5, 6, 11, 12, 13, 14, 16, 17, 20, 21, 22, 23, 24]",171.9021898,5746,1906,69,420,9,1.0101483986051152
undo,42,4,0,0,0,11,"[0, 28, 25, 11]",4,13,"[3, 4, 5, 6, 12, 13, 14, 16, 17, 20, 21, 22, 24]",153.1138956,8585,2839,28,131,9,1.1954213347431635
undo,42,4,0,0,0,16,"[0, 28, 25, 11, 16]",5,12,"[3, 4, 5, 6, 12, 13, 14, 17, 20, 21, 22, 24]",138.1138956,9268,683,25,53,9,1.1744143344165616
undo,42,4,0,0,0,17,"[0, 28, 25, 11, 16, 17]",6,8,"[3, 5, 13, 14, 20, 21, 22, 24]",112.037086,10767,1499,12,11,9,1.1466910362874783
undo,42,4,0,0,0,20,"[0, 28, 25, 11, 16, 17, 20]",7,5,"[3, 5, 21, 22, 24]",71.81271524,11720,953,5,2,9,1.2487909265463955
undo,42,4,0,0,0,5,"[0, 28, 25, 11, 16, 17, 20, 5]",8,2,"[22, 24]",41.39890259,12986,1266,2,0,9,1.3098134512622983
undo,42,4,0,0,1,22,"[0, 28, 25, 11, 16, 17, 20, 5, 22]",9,0,[],2.19431102,14102,1116,1,0,9,1.8770053129535085
undo,42,4,1,0,0,5,"[0, 28, 25, 11, 16, 17, 20, 5]",8,2,"[22, 24]",41.39890259,15411,1309,2,0,9,1.3098134512622983
undo,42,4,1,0,0,20,"[0, 28, 25, 11, 16, 17, 20]",7,5,"[3, 5, 21, 22, 24]",71.81271524,15628,217,5,2,9,1.2487909265463955
undo,42,4,1,0,0,17,"[0, 28, 25, 11, 16, 17]",6,8,"[3, 5, 13, 14, 20, 21, 22, 24]",112.037086,15794,166,12,11,9,1.1466910362874783
undo,42,4,1,0,0,16,"[0, 28, 25, 11, 16]",5,12,"[3, 4, 5, 6, 12, 13, 14, 17, 20, 21, 22, 24]",138.1138956,15977,183,25,53,9,1.1744143344165616
undo,42,4,1,0,0,11,"[0, 28, 25, 11]",4,13,"[3, 4, 5, 6, 12, 13, 14, 16, 17, 20, 21, 22, 24]",153.1138956,16178,201,28,131,9,1.1954213347431635
undo,42,4,1,0,0,25,"[0, 28, 25]",3,15,"[3, 4, 5, 6, 11, 12, 13, 14, 16, 17, 20, 21, 22, 23, 24]",171.9021898,16527,349,69,420,9,1.0101483986051152
undo,42,4,0,0,0,14,"[0, 28, 25, 14]",4,12,"[3, 4, 5, 6, 11, 13, 16, 17, 20, 21, 22, 24]",155.7776743,17800,1273,28,135,9,1.0560992158249058
undo,42,4,0,0,0,3,"[0, 28, 25, 14, 3]",5,7,"[5, 11, 16, 17, 20, 21, 22]",114.3409756,18756,956,5,20,9,1.064477433832544
undo,42,4,0,0,0,17,"[0, 28, 25, 14, 3, 17]",6,6,"[5, 11, 16, 20, 21, 22]",89.82567426,19452,696,5,9,9,1.2821945045171124
undo,42,4,0,0,0,16,"[0, 28, 25, 14, 3, 17, 16]",7,4,"[11, 20, 21, 22]",63.74886464,20224,772,3,1,9,1.7139007755935067
undo,42,4,0,0,0,11,"[0, 28, 25, 14, 3, 17, 16, 11]",8,1,[21],48.74886464,20942,718,1,0,9,2.044788163010105
undo,42,4,0,0,1,21,"[0, 28, 25, 14, 3, 17, 16, 11, 21]",9,0,[],1.876698058,22998,2056,1,0,9,2.017065021401913
undo,42,4,0,1,1,21,"[0, 28, 25, 14, 3, 17, 16, 11, 21]",9,0,[],1.876698058,26024,3026,1,0,9,2.017065021401913
undo,43,13,0,0,0,0,[0],1,29,"[1, 2, 3, 4, 5, 6, 7, 8, 9, 10, 11, 12, 13, 14, 15, 16, 17, 18, 19, 20, 21, 22, 23, 24, 25, 26, 27, 28, 29]",300,130,-1,60,2676,11,0.0
undo,43,13,0,0,0,24,"[0, 24]",2,28,"[1, 2, 3, 4, 5, 6, 7, 8, 9, 10, 11, 12, 13, 14, 15, 16, 17, 18, 19, 20, 21, 22, 23, 25, 26, 27, 28, 29]",288.8196601,2603,2473,16,1444,11,1.0
undo,43,13,0,0,0,23,"[0, 24, 23]",3,27,"[1, 2, 3, 4, 5, 6, 7, 8, 9, 10, 11, 12, 13, 14, 15, 16, 17, 18, 19, 20, 21, 22, 25, 26, 27, 28, 29]",243.1140806,3668,1065,2,868,11,1.0065545717039834
undo,43,13,0,0,0,11,"[0, 24, 23, 11]",4,18,"[1, 2, 3, 4, 6, 7, 9, 13, 15, 16, 17, 19, 20, 21, 26, 27, 28, 29]",161.1262766,6607,2939,58,284,10,1.0886784139375956
undo,43,13,0,0,0,6,"[0, 24, 23, 11, 6]",5,17,"[1, 2, 3, 4, 7, 9, 13, 15, 16, 17, 19, 20, 21, 26, 27, 28, 29]",142.0213034,7967,1360,46,76,10,1.454990114067039
undo,43,13,0,0,0,26,"[0, 24, 23, 11, 6, 26]",6,10,"[1, 2, 3, 7, 13, 16, 17, 19, 28, 29]",121.9215522,8626,659,20,16,10,1.8613568006091012
undo,43,13,0,0,0,7,"[0, 24, 23, 11, 6, 26, 7]",7,8,"[1, 2, 13, 16, 17, 19, 28, 29]",111.4812457,9432,806,9,6,10,1.7909550303769413
undo,43,13,0,0,0,29,"[0, 24, 23, 11, 6, 26, 7, 29]",8,6,"[1, 2, 13, 17, 19, 28]",96.21690817,10266,834,4,4,10,1.830838433413115
undo,43,13,0,0,0,2,"[0, 24, 23, 11, 6, 26, 7, 29, 2]",9,3,"[1, 19, 28]",84.51220825,10959,693,3,0,10,1.9663062831380966
undo,43,13,1,0,0,29,"[0, 24, 23, 11, 6, 26, 7, 29]",8,6,"[1, 2, 13, 17, 19, 28]",96.21690817,13043,2084,4,4,10,1.830838433413115
undo,43,13,1,0,0,7,"[0, 24, 23, 11, 6, 26, 7]",7,8,"[1, 2, 13, 16, 17, 19, 28, 29]",111.4812457,13359,316,9,6,10,1.7909550303769413
undo,43,13,1,0,0,26,"[0, 24, 23, 11, 6, 26]",6,10,"[1, 2, 3, 7, 13, 16, 17, 19, 28, 29]",121.9215522,13693,334,20,16,10,1.8613568006091012
undo,43,13,1,0,0,6,"[0, 24, 23, 11, 6]",5,17,"[1, 2, 3, 4, 7, 9, 13, 15, 16, 17, 19, 20, 21, 26, 27, 28, 29]",142.0213034,13893,200,46,76,10,1.454990114067039
undo,43,13,1,0,0,11,"[0, 24, 23, 11]",4,18,"[1, 2, 3, 4, 6, 7, 9, 13, 15, 16, 17, 19, 20, 21, 26, 27, 28, 29]",161.1262766,14126,233,58,284,10,1.0886784139375956
undo,43,13,1,0,0,23,"[0, 24, 23]",3,27,"[1, 2, 3, 4, 5, 6, 7, 8, 9, 10, 11, 12, 13, 14, 15, 16, 17, 18, 19, 20, 21, 22, 25, 26, 27, 28, 29]",243.1140806,14476,350,2,868,11,1.0065545717039834
undo,43,13,0,0,0,16,"[0, 24, 23, 16]",4,25,"[1, 2, 3, 4, 6, 7, 8, 9, 10, 11, 12, 13, 14, 15, 17, 18, 19, 20, 21, 22, 25, 26, 27, 28, 29]",202.8027918,15125,649,1,145,11,1.055930143104189
undo,43,13,0,0,0,6,"[0, 24, 23, 16, 6]",5,15,"[1, 2, 3, 4, 7, 11, 13, 15, 17, 19, 20, 26, 27, 28, 29]",129.2500896,16295,1170,65,114,10,1.5726135039515996
undo,43,13,0,0,0,11,"[0, 24, 23, 16, 6, 11]",6,9,"[1, 2, 7, 13, 15, 17, 26, 28, 29]",110.1451165,17064,769,26,16,10,1.4883370906082225
undo,43,13,0,0,0,26,"[0, 24, 23, 16, 6, 11, 26]",7,4,"[2, 7, 28, 29]",75.03101674,18057,993,9,3,10,2.351477969908024
undo,43,13,0,0,0,7,"[0, 24, 23, 16, 6, 11, 26, 7]",8,3,"[2, 28, 29]",64.59071023,18865,808,4,1,10,2.236421799393592
undo,43,13,0,0,0,29,"[0, 24, 23, 16, 6, 11, 26, 7, 29]",9,2,"[2, 28]",49.32637271,19548,683,2,0,10,2.2521147704857976
undo,43,13,0,0,1,2,"[0, 24, 23, 16, 6, 11, 26, 7, 29, 2]",10,0,[],37.6216728,20879,1331,1,0,10,2.394178106995351
undo,43,13,0,1,1,2,"[0, 24, 23, 16, 6, 11, 26, 7, 29, 2]",10,0,[],37.6216728,25872,4993,1,0,10,2.394178106995351
undo,44,26,0,0,0,0,[0],1,29,"[1, 2, 3, 4, 5, 6, 7, 8, 9, 10, 11, 12, 13, 14, 15, 16, 17, 18, 19, 20, 21, 22, 23, 24, 25, 26, 27, 28, 29]",300,114,-1,9,226,9,0.0
undo,44,26,0,0,0,21,"[0, 21]",2,25,"[2, 3, 4, 5, 6, 7, 8, 10, 11, 12, 13, 14, 15, 16, 17, 18, 19, 22, 23, 24, 25, 26, 27, 28, 29]",211.1349337,2309,2195,7,90,9,1.0
undo,44,26,1,0,0,0,[0],1,29,"[1, 2, 3, 4, 5, 6, 7, 8, 9, 10, 11, 12, 13, 14, 15, 16, 17, 18, 19, 20, 21, 22, 23, 24, 25, 26, 27, 28, 29]",300,3598,1289,9,226,9,0.0
undo,44,26,0,0,0,16,"[0, 16]",2,17,"[3, 4, 5, 6, 10, 11, 12, 13, 14, 17, 18, 19, 21, 22, 23, 26, 29]",188.0535842,4089,491,34,176,8,1.0
undo,44,26,0,0,0,29,"[0, 16, 29]",3,12,"[4, 5, 6, 10, 12, 13, 14, 17, 19, 21, 23, 26]",163.8461474,4784,695,32,68,8,1.1142946124989752
undo,44,26,0,0,0,4,"[0, 16, 29, 4]",4,9,"[5, 6, 10, 12, 13, 14, 17, 21, 23]",139.8461474,5418,634,17,7,8,1.3213762371676339
undo,44,26,0,0,0,17,"[0, 16, 29, 4, 17]",5,5,"[6, 10, 14, 21, 23]",118.7511243,7087,1669,6,0,8,1.2756100061290643
undo,44,26,0,0,0,10,"[0, 16, 29, 4, 17, 10]",6,2,"[6, 14]",78.2542108,7741,654,2,0,8,1.3703423905176408
undo,44,26,0,0,0,6,"[0, 16, 29, 4, 17, 10, 6]",7,1,[14],48.97964846,8500,759,1,0,8,1.5629056072988359
undo,44,26,0,0,1,14,"[0, 16, 29, 4, 17, 10, 6, 14]",8,0,[],27.95585242,10107,1607,1,0,8,1.6881203787841719
undo,44,26,1,0,0,6,"[0, 16, 29, 4, 17, 10, 6]",7,1,[14],48.97964846,11478,1371,1,0,8,1.5629056072988359
undo,44,26,1,0,0,10,"[0, 16, 29, 4, 17, 10]",6,2,"[6, 14]",78.2542108,11678,200,2,0,8,1.3703423905176408
undo,44,26,1,0,0,17,"[0, 16, 29, 4, 17]",5,5,"[6, 10, 14, 21, 23]",118.7511243,11862,184,6,0,8,1.2756100061290643
undo,44,26,1,0,0,4,"[0, 16, 29, 4]",4,9,"[5, 6, 10, 12, 13, 14, 17, 21, 23]",139.8461474,12045,183,17,7,8,1.3213762371676339
undo,44,26,1,0,0,29,"[0, 16, 29]",3,12,"[4, 5, 6, 10, 12, 13, 14, 17, 19, 21, 23, 26]",163.8461474,12245,200,32,68,8,1.1142946124989752
undo,44,26,1,0,0,16,"[0, 16]",2,17,"[3, 4, 5, 6, 10, 11, 12, 13, 14, 17, 18, 19, 21, 22, 23, 26, 29]",188.0535842,12645,400,34,176,8,1.0
undo,44,26,1,0,0,0,[0],1,29,"[1, 2, 3, 4, 5, 6, 7, 8, 9, 10, 11, 12, 13, 14, 15, 16, 17, 18, 19, 20, 21, 22, 23, 24, 25, 26, 27, 28, 29]",300,12961,316,9,226,9,0.0
undo,44,26,0,0,0,12,"[0, 12]",2,26,"[1, 2, 3, 4, 5, 6, 8, 10, 11, 13, 14, 15, 16, 17, 18, 19, 20, 21, 22, 23, 24, 25, 26, 27, 28, 29]",279.8753882,13786,825,2,80,9,1.0
undo,44,26,0,0,0,16,"[0, 12, 16]",3,12,"[4, 5, 6, 10, 11, 13, 14, 17, 21, 23, 26, 29]",152.8281529,14716,930,1,35,9,1.3146633244997343
undo,44,26,0,0,0,29,"[0, 12, 16, 29]",4,9,"[4, 5, 6, 10, 13, 14, 17, 21, 23]",128.620716,15493,777,1,28,9,1.4025825138871748
undo,44,26,0,0,0,4,"[0, 12, 16, 29, 4]",5,6,"[6, 10, 14, 17, 21, 23]",104.620716,16582,1089,1,12,9,1.6120095703050636
undo,44,26,0,0,0,17,"[0, 12, 16, 29, 4, 17]",6,3,"[6, 10, 14]",83.52569291,17442,860,1,4,9,1.5235227867063668
undo,44,26,0,0,0,14,"[0, 12, 16, 29, 4, 17, 14]",7,2,"[6, 10]",61.05348785,19165,1723,1,1,9,1.4827390340429785
undo,44,26,0,0,0,6,"[0, 12, 16, 29, 4, 17, 14, 6]",8,1,[10],40.02969181,19950,785,1,0,9,1.6186299234650392
undo,44,26,0,0,1,10,"[0, 12, 16, 29, 4, 17, 14, 6, 10]",9,0,[],10.75512948,20702,752,1,0,9,1.7874725321428664
undo,44,26,0,1,1,10,"[0, 12, 16, 29, 4, 17, 14, 6, 10]",9,0,[],10.75512948,21808,1106,1,0,9,1.7874725321428664
undo,45,27,0,0,0,0,[0],1,26,"[1, 3, 5, 6, 7, 8, 9, 10, 11, 12, 13, 14, 15, 16, 17, 18, 19, 21, 22, 23, 24, 25, 26, 27, 28, 29]",300,114,-1,13,578,11,0.0
undo,45,27,0,0,0,15,"[0, 15]",2,24,"[1, 3, 5, 6, 7, 8, 9, 10, 11, 12, 13, 14, 16, 17, 18, 19, 21, 22, 23, 24, 25, 26, 27, 29]",263.7508621,2289,2175,6,219,11,1.0
undo,45,27,0,0,0,24,"[0, 15, 24]",3,20,"[1, 5, 6, 7, 8, 9, 10, 12, 13, 14, 16, 17, 18, 19, 21, 23, 25, 26, 27, 29]",246.5462115,3283,994,6,130,11,1.130933077698322
undo,45,27,0,0,0,17,"[0, 15, 24, 17]",4,15,"[1, 6, 8, 10, 12, 13, 14, 16, 18, 19, 23, 25, 26, 27, 29]",229.9932662,3893,610,4,60,11,1.1285538435963374
undo,45,27,0,0,0,12,"[0, 15, 24, 17, 12]",5,14,"[1, 6, 8, 10, 13, 14, 16, 18, 19, 23, 25, 26, 27, 29]",218.8129263,4519,626,2,32,11,1.2561880288755216
undo,45,27,0,0,0,10,"[0, 15, 24, 17, 12, 10]",6,11,"[1, 8, 13, 14, 18, 19, 23, 25, 26, 27, 29]",207.7675653,5424,905,2,28,11,1.2228289337766665
undo,45,27,0,0,0,13,"[0, 15, 24, 17, 12, 10, 13]",7,9,"[1, 8, 14, 18, 19, 23, 26, 27, 29]",167.9178476,6823,1399,2,18,11,1.3421291994761178
undo,45,27,0,0,0,19,"[0, 15, 24, 17, 12, 10, 13, 19]",8,5,"[1, 8, 14, 23, 29]",131.6825057,7744,921,2,6,11,1.294749956153846
undo,45,27,0,0,0,8,"[0, 15, 24, 17, 12, 10, 13, 19, 8]",9,3,"[14, 23, 29]",116.816437,8418,674,2,1,11,1.3554286578836865
undo,45,27,0,0,0,29,"[0, 15, 24, 17, 12, 10, 13, 19, 8, 29]",10,1,[14],57.61339652,9266,848,1,0,11,1.248354519573802
undo,45,27,0,0,1,14,"[0, 15, 24, 17, 12, 10, 13, 19, 8, 29, 14]",11,0,[],13.31892734,10399,1133,1,0,11,1.562811097555156
undo,45,27,0,1,1,14,"[0, 15, 24, 17, 12, 10, 13, 19, 8, 29, 14]",11,0,[],13.31892734,12094,1695,1,0,11,1.562811097555156
undo,46,19,0,0,0,0,[0],1,29,"[1, 2, 3, 4, 5, 6, 7, 8, 9, 10, 11, 12, 13, 14, 15, 16, 17, 18, 19, 20, 21, 22, 23, 24, 25, 26, 27, 28, 29]",300,166,-1,12,149,8,0.0
undo,46,19,0,0,0,29,"[0, 29]",2,28,"[1, 2, 3, 4, 5, 6, 7, 8, 9, 10, 11, 12, 13, 14, 15, 16, 17, 18, 19, 20, 21, 22, 23, 24, 25, 26, 27, 28]",265.0715016,3512,3346,12,120,8,1.0
undo,46,19,0,0,0,9,"[0, 29, 9]",3,17,"[1, 4, 5, 6, 7, 10, 11, 12, 13, 14, 19, 20, 21, 22, 24, 27, 28]",181.7108394,4689,1177,11,65,8,1.0375842971861238
undo,46,19,0,0,0,6,"[0, 29, 9, 6]",4,12,"[4, 7, 10, 11, 13, 14, 20, 21, 22, 24, 27, 28]",140.2741407,5492,803,11,34,8,1.0389786364356892
undo,46,19,0,0,0,4,"[0, 29, 9, 6, 4]",5,7,"[10, 11, 14, 20, 22, 27, 28]",99.22538921,6454,962,2,6,8,1.2182485830176533
undo,46,19,0,0,0,28,"[0, 29, 9, 6, 4, 28]",6,3,"[11, 14, 27]",88.04504932,7996,1542,2,1,8,1.2933703503588658
undo,46,19,0,0,0,14,"[0, 29, 9, 6, 4, 28, 14]",7,1,[11],30.46032912,9232,1236,1,0,8,1.2889112786863766
undo,46,19,0,0,1,11,"[0, 29, 9, 6, 4, 28, 14, 11]",8,0,[],19.6436753,10720,1488,1,0,8,1.2786737377290265
undo,46,19,0,1,1,11,"[0, 29, 9, 6, 4, 28, 14, 11]",8,0,[],19.6436753,12429,1709,1,0,8,1.2786737377290265
undo,47,45,0,0,0,0,[0],1,24,"[1, 2, 3, 4, 5, 6, 7, 9, 10, 11, 12, 14, 15, 16, 17, 19, 20, 21, 22, 23, 24, 25, 27, 29]",300,131,-1,6,248,10,0.0
undo,47,45,0,0,0,17,"[0, 17]",2,22,"[1, 2, 3, 4, 5, 6, 7, 9, 10, 11, 12, 14, 15, 16, 19, 20, 21, 22, 23, 24, 25, 29]",235.867325,3601,3470,1,34,10,1.0
undo,47,45,0,0,0,24,"[0, 17, 24]",3,20,"[1, 2, 3, 4, 5, 6, 7, 9, 10, 11, 12, 14, 15, 16, 19, 20, 21, 22, 23, 29]",193.8078433,5469,1868,1,33,10,1.0309432256229287
undo,47,45,0,0,0,7,"[0, 17, 24, 7]",4,18,"[1, 2, 3, 4, 5, 6, 9, 10, 12, 14, 15, 16, 19, 20, 21, 22, 23, 29]",159.3985423,7202,1733,1,32,10,1.059763151913087
undo,47,45,0,0,0,2,"[0, 17, 24, 7, 2]",5,12,"[3, 4, 6, 10, 12, 14, 16, 19, 20, 22, 23, 29]",121.3853866,9355,2153,1,23,10,1.0656581932115423
undo,47,45,0,0,0,3,"[0, 17, 24, 7, 2, 3]",6,8,"[6, 10, 12, 14, 16, 20, 22, 29]",96.06740884,10606,1251,1,13,10,1.1368250049574795
undo,47,45,0,0,0,29,"[0, 17, 24, 7, 2, 3, 29]",7,5,"[6, 10, 12, 20, 22]",76.06740884,11282,676,1,5,10,1.390376182346372
undo,47,45,0,0,0,10,"[0, 17, 24, 7, 2, 3, 29, 10]",8,2,"[6, 12]",54.52674961,12320,1038,1,1,10,1.6682270697663164
undo,47,45,0,0,0,6,"[0, 17, 24, 7, 2, 3, 29, 10, 6]",9,1,[12],28.27794012,13124,804,1,0,10,1.5776211572942243
undo,47,45,0,0,1,12,"[0, 17, 24, 7, 2, 3, 29, 10, 6, 12]",10,0,[],8.15332832,13826,702,1,0,10,1.536035114105263
undo,47,45,0,1,1,12,"[0, 17, 24, 7, 2, 3, 29, 10, 6, 12]",10,0,[],8.15332832,15394,1568,1,0,10,1.536035114105263
undo,48,15,0,0,0,0,[0],1,25,"[1, 2, 3, 4, 7, 8, 9, 10, 11, 12, 13, 14, 15, 16, 18, 20, 21, 22, 23, 24, 25, 26, 27, 28, 29]",300,113,-1,4,65,9,0.0
undo,48,15,0,0,0,7,"[0, 7]",2,23,"[1, 3, 4, 8, 9, 10, 11, 12, 13, 14, 15, 16, 18, 20, 21, 22, 23, 24, 25, 26, 27, 28, 29]",215.1884442,4358,4245,30,107,8,1.0
undo,48,15,0,0,0,11,"[0, 7, 11]",3,18,"[3, 4, 8, 9, 10, 12, 13, 14, 15, 16, 18, 20, 21, 22, 23, 25, 27, 29]",173.7035072,6014,1656,12,34,8,1.0171318876095128
undo,48,15,0,0,0,3,"[0, 7, 11, 3]",4,13,"[4, 10, 12, 13, 14, 15, 16, 18, 20, 21, 22, 25, 27]",162.3017529,6860,846,7,21,8,1.0401878806820521
undo,48,15,0,0,0,16,"[0, 7, 11, 3, 16]",5,9,"[4, 10, 12, 13, 14, 15, 18, 21, 22]",137.2218805,7773,913,5,6,8,1.4258499651326737
undo,48,15,0,0,0,22,"[0, 7, 11, 3, 16, 22]",6,4,"[4, 13, 14, 15]",78.36612462,9107,1334,2,2,8,1.284645195326425
undo,48,15,0,0,0,15,"[0, 7, 11, 3, 16, 22, 15]",7,1,[13],52.75362767,10366,1259,1,0,8,1.2590218300860974
undo,48,15,0,0,1,13,"[0, 7, 11, 3, 16, 22, 15, 13]",8,0,[],37.48929015,17194,6828,1,0,8,1.3103278820622872
undo,48,15,0,1,1,13,"[0, 7, 11, 3, 16, 22, 15, 13]",8,0,[],37.48929015,18824,1630,1,0,8,1.3103278820622872
undo,49,10,0,0,0,0,[0],1,29,"[1, 2, 3, 4, 5, 6, 7, 8, 9, 10, 11, 12, 13, 14, 15, 16, 17, 18, 19, 20, 21, 22, 23, 24, 25, 26, 27, 28, 29]",300,147,-1,1,100,9,0.0
undo,49,10,0,0,0,13,"[0, 13]",2,25,"[1, 2, 3, 4, 6, 7, 8, 9, 10, 11, 12, 14, 17, 18, 19, 20, 21, 22, 23, 24, 25, 26, 27, 28, 29]",249.4628849,4249,4102,1,79,9,1.0
undo,49,10,0,0,0,11,"[0, 13, 11]",3,20,"[1, 2, 3, 6, 7, 8, 9, 10, 12, 14, 18, 19, 20, 21, 22, 24, 26, 27, 28, 29]",206.4512586,5835,1586,1,54,9,1.0313137484914219
undo,49,10,0,0,0,19,"[0, 13, 11, 19]",4,11,"[2, 6, 8, 9, 10, 14, 18, 20, 24, 26, 27]",170.0919407,6605,770,1,22,9,1.0879446220132545
undo,49,10,0,0,0,2,"[0, 13, 11, 19, 2]",5,4,"[14, 20, 26, 27]",126.1829439,7674,1069,1,4,9,1.06474052351343
undo,49,10,0,0,0,14,"[0, 13, 11, 19, 2, 14]",6,3,"[20, 26, 27]",114.0174188,8671,997,1,3,9,1.1628909195912238
undo,49,10,0,0,0,26,"[0, 13, 11, 19, 2, 14, 26]",7,2,"[20, 27]",79.34754716,9553,882,1,1,9,1.6660727647633602
undo,49,10,0,0,0,20,"[0, 13, 11, 19, 2, 14, 26, 20]",8,1,[27],47.56704999,10296,743,1,0,9,2.085581809637999
undo,49,10,0,0,1,27,"[0, 13, 11, 19, 2, 14, 26, 20, 27]",9,0,[],2.312215998,11572,1276,1,0,9,1.9116357409137932
undo,49,10,0,1,1,27,"[0, 13, 11, 19, 2, 14, 26, 20, 27]",9,0,[],2.312215998,12827,1255,1,0,9,1.9116357409137932
undo,50,43,0,0,0,0,[0],1,23,"[1, 2, 3, 4, 5, 6, 7, 9, 10, 11, 12, 14, 15, 16, 17, 19, 20, 21, 22, 23, 25, 27, 29]",300,132,-1,16,556,12,0.0
undo,50,43,0,0,0,29,"[0, 29]",2,22,"[1, 2, 3, 4, 5, 6, 7, 9, 10, 11, 12, 14, 15, 16, 17, 19, 20, 21, 22, 23, 25, 27]",277.909278,1926,1794,16,520,12,1.0
undo,50,43,0,0,0,20,"[0, 29, 20]",3,20,"[1, 2, 3, 4, 6, 7, 9, 10, 11, 12, 14, 15, 16, 17, 19, 21, 22, 23, 25, 27]",254.4785289,2692,766,15,422,12,1.082311746871282
undo,50,43,0,0,0,16,"[0, 29, 20, 16]",4,19,"[1, 2, 3, 4, 6, 7, 9, 10, 11, 12, 14, 15, 17, 19, 21, 22, 23, 25, 27]",231.8511119,3622,930,15,389,12,1.215201926898219
undo,50,43,0,0,0,11,"[0, 29, 20, 16, 11]",5,17,"[1, 2, 3, 4, 6, 7, 9, 10, 12, 14, 15, 17, 19, 21, 22, 23, 25]",196.7227758,7228,3606,12,188,12,1.1349145516483516
undo,50,43,0,0,0,15,"[0, 29, 20, 16, 11, 15]",6,12,"[1, 2, 3, 4, 6, 7, 12, 14, 19, 22, 23, 25]",147.9682888,8189,961,1,32,12,1.8387943334430294
undo,50,43,0,0,0,25,"[0, 29, 20, 16, 11, 15, 25]",7,9,"[1, 3, 6, 7, 12, 14, 19, 22, 23]",125.2967207,9233,1044,1,12,12,2.202803380742111
undo,50,43,0,0,0,12,"[0, 29, 20, 16, 11, 15, 25, 12]",8,6,"[1, 3, 6, 7, 19, 22]",101.1099475,10165,932,1,8,12,2.011866286185413
undo,50,43,0,0,0,3,"[0, 29, 20, 16, 11, 15, 25, 12, 3]",9,5,"[1, 6, 7, 19, 22]",88.10994748,11585,1420,1,5,12,1.9020620380337963
undo,50,43,0,0,0,22,"[0, 29, 20, 16, 11, 15, 25, 12, 3, 22]",10,3,"[1, 6, 19]",53.39683757,12602,1017,1,2,12,2.067628472989826
undo,50,43,0,0,0,19,"[0, 29, 20, 16, 11, 15, 25, 12, 3, 22, 19]",11,1,[1],32.78130944,13898,1296,1,0,12,1.923482223595295
undo,50,43,0,0,1,1,"[0, 29, 20, 16, 11, 15, 25, 12, 3, 22, 19, 1]",12,0,[],4.603303833,14817,919,1,0,12,2.0520587907480077
undo,50,43,0,1,1,1,"[0, 29, 20, 16, 11, 15, 25, 12, 3, 22, 19, 1]",12,0,[],4.603303833,16311,1494,1,0,12,2.0520587907480077
