condition,trial_id,map_id,undoIndicator,submit,checkEnd,currentChoice,chosen_all,n_city_all,n_within_reach,cities_reach,currentBudget,time_all,rt_all,n_opt_paths_all,n_subopt_paths_all,mas_all,tortuosity_all
basic,0,37,0,0,0,0,[0],1,29,"[1, 2, 3, 4, 5, 6, 7, 8, 9, 10, 11, 12, 13, 14, 15, 16, 17, 18, 19, 20, 21, 22, 23, 24, 25, 26, 27, 28, 29]",300,142,-1,6,168,10,0.0
basic,0,37,0,0,0,19,"[0, 19]",2,19,"[1, 2, 4, 5, 6, 7, 9, 10, 11, 15, 17, 18, 20, 21, 22, 25, 26, 28, 29]",185.6627795,4453,4311,25,244,9,1.0
basic,0,37,0,0,0,21,"[0, 19, 21]",3,14,"[1, 2, 4, 7, 10, 11, 15, 17, 18, 20, 22, 25, 26, 29]",144.5531699,5686,1233,10,75,9,1.001632816594558
basic,0,37,0,0,0,20,"[0, 19, 21, 20]",4,9,"[1, 2, 4, 7, 15, 18, 22, 26, 29]",130.1309648,6383,697,4,34,9,1.1332411810100422
basic,0,37,0,0,0,15,"[0, 19, 21, 20, 15]",5,8,"[1, 2, 4, 7, 18, 22, 26, 29]",113.1309648,7070,687,4,11,9,1.1230304972303446
basic,0,37,0,0,0,1,"[0, 19, 21, 20, 15, 1]",6,5,"[2, 4, 7, 18, 22]",73.16848237,8067,997,4,3,9,1.4327471194915349
basic,0,37,0,0,0,2,"[0, 19, 21, 20, 15, 1, 2]",7,3,"[4, 7, 22]",55.96383184,8928,861,2,1,9,1.6142938316493505
basic,0,37,0,0,0,4,"[0, 19, 21, 20, 15, 1, 2, 4]",8,1,[22],44.56207759,10018,1090,1,0,9,1.5716058080933497
basic,0,37,0,0,1,22,"[0, 19, 21, 20, 15, 1, 2, 4, 22]",9,0,[],19.56207759,11022,1004,1,0,9,1.722001818199419
basic,0,37,0,1,1,22,"[0, 19, 21, 20, 15, 1, 2, 4, 22]",9,0,[],19.56207759,12007,985,1,0,9,1.722001818199419
basic,1,13,0,0,0,0,[0],1,29,"[1, 2, 3, 4, 5, 6, 7, 8, 9, 10, 11, 12, 13, 14, 15, 16, 17, 18, 19, 20, 21, 22, 23, 24, 25, 26, 27, 28, 29]",300,130,-1,60,2676,11,0.0
basic,1,13,0,0,0,24,"[0, 24]",2,28,"[1, 2, 3, 4, 5, 6, 7, 8, 9, 10, 11, 12, 13, 14, 15, 16, 17, 18, 19, 20, 21, 22, 23, 25, 26, 27, 28, 29]",288.8196601,3690,3560,16,1444,11,1.0
basic,1,13,0,0,0,28,"[0, 24, 28]",3,23,"[1, 2, 3, 4, 6, 7, 8, 9, 10, 11, 12, 13, 15, 16, 17, 19, 20, 21, 22, 23, 26, 27, 29]",222.5324064,4789,1099,8,243,11,1.0513810491680837
basic,1,13,0,0,0,2,"[0, 24, 28, 2]",4,19,"[1, 3, 4, 6, 7, 9, 11, 12, 13, 15, 16, 17, 19, 20, 21, 23, 26, 27, 29]",184.889346,5785,996,7,110,11,1.050374132001543
basic,1,13,0,0,0,29,"[0, 24, 28, 2, 29]",5,18,"[1, 3, 4, 6, 7, 9, 11, 12, 13, 15, 16, 17, 19, 20, 21, 23, 26, 27]",173.1846461,6488,703,7,85,11,1.1393409619120594
basic,1,13,0,0,0,7,"[0, 24, 28, 2, 29, 7]",6,17,"[1, 3, 4, 6, 9, 11, 12, 13, 15, 16, 17, 19, 20, 21, 23, 26, 27]",157.9203086,7368,880,5,45,11,1.349777315111579
basic,1,13,0,0,0,26,"[0, 24, 28, 2, 29, 7, 26]",7,16,"[1, 3, 4, 6, 9, 11, 12, 13, 15, 16, 17, 19, 20, 21, 23, 27]",147.480002,8168,800,5,25,11,1.5942082773824946
basic,1,13,0,0,0,6,"[0, 24, 28, 2, 29, 7, 26, 6]",8,12,"[1, 3, 4, 11, 13, 15, 16, 17, 19, 20, 23, 27]",127.3802508,11382,3214,4,12,11,1.5898347940840756
basic,1,13,0,0,0,11,"[0, 24, 28, 2, 29, 7, 26, 6, 11]",9,6,"[1, 13, 15, 16, 17, 23]",108.2752776,12352,970,3,4,11,1.5029953945561012
basic,1,13,0,0,0,13,"[0, 24, 28, 2, 29, 7, 26, 6, 11, 13]",10,2,"[15, 17]",52.19497806,13925,1573,2,0,11,1.3655915863754327
basic,1,13,0,0,1,15,"[0, 24, 28, 2, 29, 7, 26, 6, 11, 13, 15]",11,0,[],12.38291958,15090,1165,1,0,11,1.3653085520078876
basic,1,13,0,1,1,15,"[0, 24, 28, 2, 29, 7, 26, 6, 11, 13, 15]",11,0,[],12.38291958,16130,1040,1,0,11,1.3653085520078876
basic,2,2,0,0,0,0,[0],1,23,"[1, 2, 4, 5, 6, 7, 8, 9, 12, 13, 15, 16, 17, 18, 19, 20, 22, 23, 25, 26, 27, 28, 29]",300,130,-1,70,620,10,0.0
basic,2,2,0,0,0,19,"[0, 19]",2,22,"[1, 2, 4, 5, 6, 7, 8, 9, 12, 13, 15, 16, 17, 18, 20, 22, 23, 25, 26, 27, 28, 29]",210.306076,3342,3212,67,431,10,1.0
basic,2,2,0,0,0,12,"[0, 19, 12]",3,17,"[1, 4, 5, 6, 7, 13, 15, 16, 17, 18, 20, 22, 25, 26, 27, 28, 29]",174.2921898,4084,742,66,298,10,1.1107635036313153
basic,2,2,0,0,0,5,"[0, 19, 12, 5]",4,11,"[1, 6, 7, 13, 15, 16, 18, 22, 25, 26, 29]",144.7625437,5158,1074,38,136,10,1.0968174771581647
basic,2,2,0,0,0,22,"[0, 19, 12, 5, 22]",5,8,"[1, 6, 7, 13, 15, 18, 26, 29]",131.9562952,5951,793,20,63,10,1.0889910507461968
basic,2,2,0,0,0,13,"[0, 19, 12, 5, 22, 13]",6,7,"[1, 6, 7, 15, 18, 26, 29]",117.0902265,6873,922,19,20,10,1.236526217328057
basic,2,2,0,0,0,18,"[0, 19, 12, 5, 22, 13, 18]",7,4,"[7, 15, 26, 29]",81.91921567,8320,1447,10,3,10,1.2128708213409936
basic,2,2,0,0,0,7,"[0, 19, 12, 5, 22, 13, 18, 7]",8,3,"[15, 26, 29]",71.62358553,9206,886,5,0,10,1.2019811287894737
basic,2,2,0,0,0,26,"[0, 19, 12, 5, 22, 13, 18, 7, 26]",9,2,"[15, 29]",48.82007703,9989,783,2,0,10,1.1883593342191134
basic,2,2,0,0,1,15,"[0, 19, 12, 5, 22, 13, 18, 7, 26, 15]",10,0,[],24.61264015,10826,837,1,0,10,1.4619750353663825
basic,2,2,0,1,1,15,"[0, 19, 12, 5, 22, 13, 18, 7, 26, 15]",10,0,[],24.61264015,13663,2837,1,0,10,1.4619750353663825
basic,3,38,0,0,0,0,[0],1,29,"[1, 2, 3, 4, 5, 6, 7, 8, 9, 10, 11, 12, 13, 14, 15, 16, 17, 18, 19, 20, 21, 22, 23, 24, 25, 26, 27, 28, 29]",300,116,-1,33,506,9,0.0
basic,3,38,0,0,0,11,"[0, 11]",2,23,"[1, 2, 3, 4, 5, 7, 10, 12, 13, 14, 15, 16, 17, 18, 19, 20, 21, 22, 24, 25, 26, 27, 28]",220.093805,6258,6142,2,40,9,1.0
basic,3,38,0,0,0,28,"[0, 11, 28]",3,16,"[1, 4, 5, 7, 10, 12, 13, 14, 15, 16, 17, 19, 20, 21, 24, 26]",193.0752928,7096,838,2,20,9,1.0012220945316377
basic,3,38,0,0,0,16,"[0, 11, 28, 16]",4,13,"[1, 4, 5, 10, 12, 13, 14, 15, 17, 19, 20, 24, 26]",164.0752928,7958,862,2,16,9,1.2422672958602723
basic,3,38,0,0,0,15,"[0, 11, 28, 16, 15]",5,9,"[4, 5, 13, 14, 17, 19, 20, 24, 26]",122.4579887,9048,1090,2,14,9,2.4196280466601676
basic,3,38,0,0,0,4,"[0, 11, 28, 16, 15, 4]",6,6,"[13, 17, 19, 20, 24, 26]",96.45798873,9870,822,2,9,9,2.9030072771852855
basic,3,38,0,0,0,20,"[0, 11, 28, 16, 15, 4, 20]",7,3,"[13, 17, 19]",62.51686323,10853,983,1,2,9,4.409951139385221
basic,3,38,0,0,0,17,"[0, 11, 28, 16, 15, 4, 20, 17]",8,1,[19],38.74713459,11652,799,1,0,9,4.030739410625113
basic,3,38,0,0,1,19,"[0, 11, 28, 16, 15, 4, 20, 17, 19]",9,0,[],17.36957626,12575,923,1,0,9,3.511004666623391
basic,3,38,0,1,1,19,"[0, 11, 28, 16, 15, 4, 20, 17, 19]",9,0,[],17.36957626,13432,857,1,0,9,3.511004666623391
basic,4,19,0,0,0,0,[0],1,29,"[1, 2, 3, 4, 5, 6, 7, 8, 9, 10, 11, 12, 13, 14, 15, 16, 17, 18, 19, 20, 21, 22, 23, 24, 25, 26, 27, 28, 29]",300,130,-1,12,149,8,0.0
basic,4,19,0,0,0,27,"[0, 27]",2,8,"[4, 5, 6, 9, 11, 14, 22, 28]",144.275885,8033,7903,3,9,6,1.0
basic,4,19,0,0,0,28,"[0, 27, 28]",3,6,"[4, 6, 9, 11, 14, 22]",91.87359495,9041,1008,2,5,6,1.2700081812424961
basic,4,19,0,0,0,4,"[0, 27, 28, 4]",4,5,"[6, 9, 11, 14, 22]",80.69325506,9817,776,2,3,6,1.3306967958653657
basic,4,19,0,0,0,14,"[0, 27, 28, 4, 14]",5,1,[11],30.68325606,10940,1123,1,0,6,1.2878452647436014
basic,4,19,0,0,1,11,"[0, 27, 28, 4, 14, 11]",6,0,[],19.86660224,11777,837,1,0,6,1.2776569929706716
basic,4,19,0,1,1,11,"[0, 27, 28, 4, 14, 11]",6,0,[],19.86660224,12662,885,1,0,6,1.2776569929706716
basic,5,36,0,0,0,0,[0],1,24,"[2, 4, 5, 6, 7, 8, 9, 10, 12, 13, 14, 15, 16, 17, 18, 19, 20, 22, 23, 25, 26, 27, 28, 29]",300,114,-1,2,200,10,0.0
basic,5,36,0,0,0,12,"[0, 12]",2,23,"[2, 4, 5, 6, 7, 8, 9, 10, 13, 14, 15, 16, 17, 18, 19, 20, 22, 23, 25, 26, 27, 28, 29]",277.7963967,2990,2876,90,804,9,1.0
basic,5,36,0,0,0,9,"[0, 12, 9]",3,14,"[2, 4, 8, 10, 13, 16, 17, 18, 19, 23, 25, 27, 28, 29]",215.4345494,3860,870,32,191,9,1.224429481246385
basic,5,36,0,0,0,17,"[0, 12, 9, 17]",4,11,"[2, 4, 8, 10, 13, 16, 18, 19, 23, 25, 27]",189.1857399,4825,965,8,54,9,1.1724571624470872
basic,5,36,0,0,0,19,"[0, 12, 9, 17, 19]",5,8,"[2, 4, 10, 13, 16, 18, 23, 25]",161.2930885,5693,868,3,14,9,1.7995682634090462
basic,5,36,0,0,0,13,"[0, 12, 9, 17, 19, 13]",6,6,"[2, 4, 10, 16, 18, 25]",117.8765018,6722,1029,1,4,9,1.8568569502077603
basic,5,36,0,0,0,2,"[0, 12, 9, 17, 19, 13, 2]",7,2,"[16, 25]",79.54896603,9329,2607,2,0,8,1.9521175247879776
basic,5,36,0,0,1,25,"[0, 12, 9, 17, 19, 13, 2, 25]",8,0,[],54.54896603,10294,965,1,0,8,2.143861126738429
basic,5,36,0,1,1,25,"[0, 12, 9, 17, 19, 13, 2, 25]",8,0,[],54.54896603,13230,2936,1,0,8,2.143861126738429
basic,6,22,0,0,0,0,[0],1,29,"[1, 2, 3, 4, 5, 6, 7, 8, 9, 10, 11, 12, 13, 14, 15, 16, 17, 18, 19, 20, 21, 22, 23, 24, 25, 26, 27, 28, 29]",300,129,-1,31,704,9,0.0
basic,6,22,0,0,0,16,"[0, 16]",2,21,"[1, 3, 6, 7, 8, 9, 11, 13, 14, 15, 17, 18, 19, 20, 21, 22, 24, 25, 27, 28, 29]",218.605897,2376,2247,17,147,9,1.0
basic,6,22,0,0,0,28,"[0, 16, 28]",3,13,"[6, 7, 9, 13, 14, 17, 19, 20, 21, 22, 24, 25, 29]",184.1675463,3270,894,12,61,9,1.047282311284478
basic,6,22,0,0,0,6,"[0, 16, 28, 6]",4,12,"[7, 9, 13, 14, 17, 19, 20, 21, 22, 24, 25, 29]",154.1675463,4053,783,12,43,9,1.645645870580622
basic,6,22,0,0,0,9,"[0, 16, 28, 6, 9]",5,8,"[7, 14, 17, 19, 20, 21, 24, 29]",127.5404924,6162,2109,8,17,9,1.925750226630103
basic,6,22,0,0,0,19,"[0, 16, 28, 6, 9, 19]",6,6,"[7, 14, 17, 21, 24, 29]",107.1444143,7009,847,3,7,9,2.4220750331476455
basic,6,22,0,0,0,29,"[0, 16, 28, 6, 9, 19, 29]",7,4,"[7, 14, 17, 24]",92.11111796,7878,869,2,2,9,2.6996279574991067
basic,6,22,0,0,0,14,"[0, 16, 28, 6, 9, 19, 29, 14]",8,1,[7],33.86165444,9877,1999,1,0,9,2.0544639927929462
basic,6,22,0,0,1,7,"[0, 16, 28, 6, 9, 19, 29, 14, 7]",9,0,[],20.82324963,10660,783,1,0,9,2.219817088951114
basic,6,22,0,1,1,7,"[0, 16, 28, 6, 9, 19, 29, 14, 7]",9,0,[],20.82324963,11447,787,1,0,9,2.219817088951114
basic,7,14,0,0,0,0,[0],1,29,"[1, 2, 3, 4, 5, 6, 7, 8, 9, 10, 11, 12, 13, 14, 15, 16, 17, 18, 19, 20, 21, 22, 23, 24, 25, 26, 27, 28, 29]",300,114,-1,8,157,10,0.0
basic,7,14,0,0,0,15,"[0, 15]",2,20,"[1, 2, 3, 4, 7, 8, 9, 13, 17, 18, 19, 20, 21, 22, 23, 25, 26, 27, 28, 29]",216.7053423,2278,2164,8,102,10,1.0
basic,7,14,0,0,0,28,"[0, 15, 28]",3,17,"[1, 2, 3, 4, 7, 8, 9, 13, 17, 18, 19, 20, 22, 23, 25, 26, 27]",197.4959696,4325,2047,8,48,10,1.0446007867311968
basic,7,14,0,0,0,17,"[0, 15, 28, 17]",4,14,"[1, 2, 3, 4, 7, 8, 13, 18, 19, 20, 22, 23, 25, 26]",184.0423455,5163,838,8,39,10,1.0729463354689972
basic,7,14,0,0,0,18,"[0, 15, 28, 17, 18]",5,9,"[1, 2, 4, 7, 8, 19, 23, 25, 26]",119.412631,6326,1163,8,27,10,1.5035901079219378
basic,7,14,0,0,0,8,"[0, 15, 28, 17, 18, 8]",6,8,"[1, 2, 4, 7, 19, 23, 25, 26]",105.8111605,7258,932,8,18,10,1.4819689987843856
basic,7,14,0,0,0,1,"[0, 15, 28, 17, 18, 8, 1]",7,5,"[7, 19, 23, 25, 26]",82.21031307,8175,917,4,6,10,1.4084991998385268
basic,7,14,0,0,0,19,"[0, 15, 28, 17, 18, 8, 1, 19]",8,4,"[7, 23, 25, 26]",66.97876686,9955,1780,4,1,10,1.5758713333797987
basic,7,14,0,0,0,25,"[0, 15, 28, 17, 18, 8, 1, 19, 25]",9,2,"[7, 23]",31.1318702,13163,3208,2,0,10,1.6426186864061416
basic,7,14,0,0,1,7,"[0, 15, 28, 17, 18, 8, 1, 19, 25, 7]",10,0,[],11.4341546,14152,989,1,0,10,1.652323224159132
basic,7,14,0,1,1,7,"[0, 15, 28, 17, 18, 8, 1, 19, 25, 7]",10,0,[],11.4341546,15099,947,1,0,10,1.652323224159132
basic,8,45,0,0,0,0,[0],1,24,"[1, 2, 3, 4, 5, 6, 7, 9, 10, 11, 12, 14, 15, 16, 17, 19, 20, 21, 22, 23, 24, 25, 27, 29]",300,129,-1,6,248,10,0.0
basic,8,45,0,0,0,17,"[0, 17]",2,22,"[1, 2, 3, 4, 5, 6, 7, 9, 10, 11, 12, 14, 15, 16, 19, 20, 21, 22, 23, 24, 25, 29]",235.867325,2724,2595,1,34,10,1.0
basic,8,45,0,0,0,24,"[0, 17, 24]",3,20,"[1, 2, 3, 4, 5, 6, 7, 9, 10, 11, 12, 14, 15, 16, 19, 20, 21, 22, 23, 29]",193.8078433,3522,798,1,33,10,1.0309432256229287
basic,8,45,0,0,0,7,"[0, 17, 24, 7]",4,18,"[1, 2, 3, 4, 5, 6, 9, 10, 12, 14, 15, 16, 19, 20, 21, 22, 23, 29]",159.3985423,4399,877,1,32,10,1.059763151913087
basic,8,45,0,0,0,2,"[0, 17, 24, 7, 2]",5,12,"[3, 4, 6, 10, 12, 14, 16, 19, 20, 22, 23, 29]",121.3853866,5245,846,1,23,10,1.0656581932115423
basic,8,45,0,0,0,3,"[0, 17, 24, 7, 2, 3]",6,8,"[6, 10, 12, 14, 16, 20, 22, 29]",96.06740884,6154,909,1,13,10,1.1368250049574795
basic,8,45,0,0,0,29,"[0, 17, 24, 7, 2, 3, 29]",7,5,"[6, 10, 12, 20, 22]",76.06740884,7023,869,1,5,10,1.390376182346372
basic,8,45,0,0,0,10,"[0, 17, 24, 7, 2, 3, 29, 10]",8,2,"[6, 12]",54.52674961,7800,777,1,1,10,1.6682270697663164
basic,8,45,0,0,0,6,"[0, 17, 24, 7, 2, 3, 29, 10, 6]",9,1,[12],28.27794012,8685,885,1,0,10,1.5776211572942243
basic,8,45,0,0,1,12,"[0, 17, 24, 7, 2, 3, 29, 10, 6, 12]",10,0,[],8.15332832,9682,997,1,0,10,1.536035114105263
basic,8,45,0,1,1,12,"[0, 17, 24, 7, 2, 3, 29, 10, 6, 12]",10,0,[],8.15332832,10412,730,1,0,10,1.536035114105263
basic,9,31,0,0,0,0,[0],1,27,"[1, 3, 4, 5, 6, 7, 8, 10, 11, 12, 13, 14, 15, 16, 17, 18, 19, 20, 21, 22, 23, 24, 25, 26, 27, 28, 29]",300,131,-1,2,87,10,0.0
basic,9,31,0,0,0,14,"[0, 14]",2,25,"[1, 3, 5, 6, 7, 8, 10, 11, 12, 13, 15, 16, 17, 18, 19, 20, 21, 22, 23, 24, 25, 26, 27, 28, 29]",263.861378,3595,3464,2,59,10,1.0
basic,9,31,0,0,0,27,"[0, 14, 27]",3,22,"[1, 3, 5, 6, 7, 8, 10, 11, 12, 13, 15, 16, 17, 18, 19, 20, 21, 22, 24, 25, 28, 29]",235.6833724,5361,1766,1,39,10,1.5881859159302467
basic,9,31,0,0,0,8,"[0, 14, 27, 8]",4,20,"[1, 3, 5, 6, 7, 10, 11, 12, 13, 16, 17, 18, 19, 20, 21, 22, 24, 25, 28, 29]",224.6380114,6071,710,1,36,10,2.1665048452331277
basic,9,31,0,0,0,18,"[0, 14, 27, 8, 18]",5,15,"[1, 5, 6, 7, 11, 12, 13, 16, 17, 19, 20, 22, 25, 28, 29]",188.7911147,6971,900,1,26,10,1.7273375741920205
basic,9,31,0,0,0,17,"[0, 14, 27, 8, 18, 17]",6,13,"[1, 5, 6, 7, 11, 12, 13, 16, 19, 20, 22, 25, 28]",159.584951,10489,3518,1,13,10,1.551192427769927
basic,9,31,0,0,0,11,"[0, 14, 27, 8, 18, 17, 11]",7,7,"[5, 12, 16, 19, 22, 25, 28]",118.4753414,11423,934,1,4,10,2.9650760544203494
basic,9,31,0,0,0,5,"[0, 14, 27, 8, 18, 17, 11, 5]",8,2,"[16, 28]",74.79468207,12425,1002,1,1,10,2.56711965625205
basic,9,31,0,0,0,28,"[0, 14, 27, 8, 18, 17, 11, 5, 28]",9,1,[16],54.57093365,14236,1811,1,0,10,2.2865510762058148
basic,9,31,0,0,1,16,"[0, 14, 27, 8, 18, 17, 11, 5, 28, 16]",10,0,[],20.95546102,15144,908,1,0,10,2.089356850786318
basic,9,31,0,1,1,16,"[0, 14, 27, 8, 18, 17, 11, 5, 28, 16]",10,0,[],20.95546102,16047,903,1,0,10,2.089356850786318
basic,10,32,0,0,0,0,[0],1,29,"[1, 2, 3, 4, 5, 6, 7, 8, 9, 10, 11, 12, 13, 14, 15, 16, 17, 18, 19, 20, 21, 22, 23, 24, 25, 26, 27, 28, 29]",300,130,-1,17,359,10,0.0
basic,10,32,0,0,0,19,"[0, 19]",2,28,"[1, 2, 3, 4, 5, 6, 7, 8, 9, 10, 11, 12, 13, 14, 15, 16, 17, 18, 20, 21, 22, 23, 24, 25, 26, 27, 28, 29]",283.5075775,2684,2554,16,294,10,1.0
basic,10,32,0,0,0,13,"[0, 19, 13]",3,24,"[2, 3, 4, 5, 6, 8, 9, 10, 11, 12, 14, 15, 16, 17, 18, 20, 21, 22, 23, 24, 25, 26, 27, 28]",260.3127505,3466,782,14,227,10,1.0172874229878615
basic,10,32,0,0,0,15,"[0, 19, 13, 15]",4,18,"[2, 3, 5, 8, 9, 10, 11, 12, 16, 17, 20, 22, 23, 24, 25, 26, 27, 28]",177.4393531,4572,1106,9,116,10,1.435447391509833
basic,10,32,0,0,0,28,"[0, 19, 13, 15, 28]",5,17,"[2, 3, 5, 8, 9, 10, 11, 12, 16, 17, 20, 22, 23, 24, 25, 26, 27]",166.0375988,5338,766,9,70,10,1.3843701324937985
basic,10,32,0,0,0,12,"[0, 19, 13, 15, 28, 12]",6,14,"[2, 3, 5, 8, 9, 10, 11, 16, 17, 20, 22, 24, 26, 27]",147.0639329,6177,839,6,35,10,1.358372254952329
basic,10,32,0,0,0,16,"[0, 19, 13, 15, 28, 12, 16]",7,13,"[2, 3, 5, 8, 9, 10, 11, 17, 20, 22, 24, 26, 27]",131.411457,7126,949,5,15,10,1.4356932930709845
basic,10,32,0,0,0,27,"[0, 19, 13, 15, 28, 12, 16, 27]",8,2,"[3, 11]",55.13564171,10400,3274,2,0,10,1.3380566026775955
basic,10,32,0,0,0,3,"[0, 19, 13, 15, 28, 12, 16, 27, 3]",9,1,[11],29.64054414,11274,874,1,0,10,1.3269345554887129
basic,10,32,0,0,1,11,"[0, 19, 13, 15, 28, 12, 16, 27, 3, 11]",10,0,[],14.02004479,12357,1083,1,0,10,1.356452519014518
basic,10,32,0,1,1,11,"[0, 19, 13, 15, 28, 12, 16, 27, 3, 11]",10,0,[],14.02004479,13330,973,1,0,10,1.356452519014518
basic,11,23,0,0,0,0,[0],1,28,"[1, 2, 3, 4, 5, 6, 7, 8, 9, 10, 11, 12, 13, 14, 15, 16, 17, 18, 19, 20, 21, 22, 23, 25, 26, 27, 28, 29]",300,148,-1,76,2626,10,0.0
basic,11,23,0,0,0,18,"[0, 18]",2,14,"[2, 5, 6, 7, 9, 10, 12, 13, 14, 19, 21, 22, 27, 29]",203.8958898,2851,2703,73,787,9,1.0
basic,11,23,0,0,0,27,"[0, 18, 27]",3,9,"[2, 6, 7, 9, 12, 13, 14, 22, 29]",128.5832083,3758,907,51,277,9,1.1972268052690318
basic,11,23,0,0,0,6,"[0, 18, 27, 6]",4,8,"[2, 7, 9, 12, 13, 14, 22, 29]",100.2812649,4518,760,43,68,9,1.3293035545030156
basic,11,23,0,0,0,2,"[0, 18, 27, 6, 2]",5,6,"[9, 12, 13, 14, 22, 29]",81.84217594,5244,726,16,17,9,1.5987085337271232
basic,11,23,0,0,0,14,"[0, 18, 27, 6, 2, 14]",6,5,"[9, 12, 13, 22, 29]",66.97610719,7467,2223,5,3,9,1.653941702320971
basic,11,23,0,0,0,9,"[0, 18, 27, 6, 2, 14, 9]",7,4,"[12, 13, 22, 29]",56.53580068,8327,860,2,2,9,1.8635071754469044
basic,11,23,0,0,0,12,"[0, 18, 27, 6, 2, 14, 9, 12]",8,1,[13],42.21797962,9228,901,1,0,9,2.1028196660017944
basic,11,23,0,0,1,13,"[0, 18, 27, 6, 2, 14, 9, 12, 13]",9,0,[],30.13493365,10802,1574,1,0,9,2.43825220165275
basic,11,23,0,1,1,13,"[0, 18, 27, 6, 2, 14, 9, 12, 13]",9,0,[],30.13493365,12047,1245,1,0,9,2.43825220165275
basic,12,10,0,0,0,0,[0],1,29,"[1, 2, 3, 4, 5, 6, 7, 8, 9, 10, 11, 12, 13, 14, 15, 16, 17, 18, 19, 20, 21, 22, 23, 24, 25, 26, 27, 28, 29]",300,131,-1,1,100,9,0.0
basic,12,10,0,0,0,13,"[0, 13]",2,25,"[1, 2, 3, 4, 6, 7, 8, 9, 10, 11, 12, 14, 17, 18, 19, 20, 21, 22, 23, 24, 25, 26, 27, 28, 29]",249.4628849,3146,3015,1,79,9,1.0
basic,12,10,0,0,0,19,"[0, 13, 19]",3,12,"[2, 6, 8, 9, 10, 11, 14, 18, 20, 24, 26, 27]",180.5861835,3970,824,11,79,8,1.0000581961988606
basic,12,10,0,0,0,2,"[0, 13, 19, 2]",4,5,"[11, 14, 20, 26, 27]",136.6771867,5922,1952,3,9,8,1.000456581399483
basic,12,10,0,0,0,14,"[0, 13, 19, 2, 14]",5,4,"[11, 20, 26, 27]",124.5116616,6625,703,3,6,8,1.0972737011325653
basic,12,10,0,0,0,26,"[0, 13, 19, 2, 14, 26]",6,3,"[11, 20, 27]",89.84178999,7568,943,3,1,8,1.5868342521575007
basic,12,10,0,0,0,11,"[0, 13, 19, 2, 14, 26, 11]",7,1,[20],48.08056395,8402,834,1,0,8,2.7772471764176028
basic,12,10,0,0,1,20,"[0, 13, 19, 2, 14, 26, 11, 20]",8,0,[],10.00169842,9320,918,1,0,8,2.3959438836221785
basic,12,10,0,1,1,20,"[0, 13, 19, 2, 14, 26, 11, 20]",8,0,[],10.00169842,10198,878,1,0,8,2.3959438836221785
basic,13,18,0,0,0,0,[0],1,28,"[1, 2, 3, 4, 5, 6, 7, 8, 9, 10, 11, 12, 13, 14, 16, 17, 18, 19, 20, 21, 22, 23, 24, 25, 26, 27, 28, 29]",300,130,-1,3,136,10,0.0
basic,13,18,0,0,0,28,"[0, 28]",2,16,"[1, 3, 5, 7, 8, 9, 12, 13, 14, 16, 20, 23, 24, 25, 26, 27]",236.4311397,1924,1794,2,19,10,1.0
basic,13,18,0,0,0,7,"[0, 28, 7]",3,15,"[1, 3, 5, 8, 9, 12, 13, 14, 16, 20, 23, 24, 25, 26, 27]",214.4084242,2778,854,2,17,10,1.4345180696367563
basic,13,18,0,0,0,25,"[0, 28, 7, 25]",4,13,"[1, 3, 5, 8, 9, 12, 13, 14, 16, 20, 23, 26, 27]",186.6055466,3669,891,2,15,10,1.8896451241781882
basic,13,18,0,0,0,8,"[0, 28, 7, 25, 8]",5,10,"[3, 5, 9, 12, 13, 14, 16, 23, 26, 27]",149.551532,4668,999,2,10,10,1.590467437592877
basic,13,18,0,0,0,13,"[0, 28, 7, 25, 8, 13]",6,9,"[3, 5, 9, 12, 14, 16, 23, 26, 27]",128.4565089,5458,790,2,5,10,1.8248274983549797
basic,13,18,0,0,0,14,"[0, 28, 7, 25, 8, 13, 14]",7,7,"[3, 5, 9, 12, 23, 26, 27]",109.4828429,6218,760,2,3,10,1.6993534956692746
basic,13,18,0,0,0,3,"[0, 28, 7, 25, 8, 13, 14, 3]",8,3,"[5, 12, 27]",79.39962499,7054,836,2,1,10,1.802637206541468
basic,13,18,0,0,0,5,"[0, 28, 7, 25, 8, 13, 14, 3, 5]",9,1,[12],21.21887216,10516,3462,1,0,10,1.559774889743805
basic,13,18,0,0,1,12,"[0, 28, 7, 25, 8, 13, 14, 3, 5, 12]",10,0,[],9.817117911,11734,1218,1,0,10,1.563993037384447
basic,13,18,0,1,1,12,"[0, 28, 7, 25, 8, 13, 14, 3, 5, 12]",10,0,[],9.817117911,12746,1012,1,0,10,1.563993037384447
basic,14,4,0,0,0,0,[0],1,26,"[3, 4, 5, 6, 7, 8, 10, 11, 12, 13, 14, 15, 16, 17, 18, 19, 20, 21, 22, 23, 24, 25, 26, 27, 28, 29]",300,114,-1,4,489,10,0.0
basic,14,4,0,0,0,28,"[0, 28]",2,21,"[3, 4, 5, 6, 10, 11, 12, 13, 14, 15, 16, 17, 19, 20, 21, 22, 23, 24, 25, 26, 27]",225.9392142,3127,3013,2,216,10,1.0
basic,14,4,0,0,0,14,"[0, 28, 14]",3,13,"[3, 4, 5, 6, 11, 13, 16, 17, 20, 21, 22, 24, 25]",159.6972335,4303,1176,1,26,10,1.0273973946789214
basic,14,4,0,0,0,25,"[0, 28, 14, 25]",4,12,"[3, 4, 5, 6, 11, 13, 16, 17, 20, 21, 22, 24]",143.572718,5176,873,1,25,10,1.233547772313525
basic,14,4,0,0,0,11,"[0, 28, 14, 25, 11]",5,10,"[3, 4, 5, 6, 13, 16, 17, 20, 21, 22]",124.7844238,6327,1151,1,15,10,1.425978575879479
basic,14,4,0,0,0,16,"[0, 28, 14, 25, 11, 16]",6,9,"[3, 4, 5, 6, 13, 17, 20, 21, 22]",109.7844238,7402,1075,1,12,10,1.3799325158051412
basic,14,4,0,0,0,3,"[0, 28, 14, 25, 11, 16, 3]",7,2,"[17, 20]",68.15510719,9285,1883,1,1,9,1.3292844629725955
basic,14,4,0,0,0,17,"[0, 28, 14, 25, 11, 16, 3, 17]",8,1,[20],43.63980585,11770,2485,1,0,9,1.5639571149270572
basic,14,4,0,0,1,20,"[0, 28, 14, 25, 11, 16, 3, 17, 20]",9,0,[],3.415435124,13045,1275,1,0,9,1.6231058358944275
basic,14,4,0,1,1,20,"[0, 28, 14, 25, 11, 16, 3, 17, 20]",9,0,[],3.415435124,13964,919,1,0,9,1.6231058358944275
basic,15,27,0,0,0,0,[0],1,26,"[1, 3, 5, 6, 7, 8, 9, 10, 11, 12, 13, 14, 15, 16, 17, 18, 19, 21, 22, 23, 24, 25, 26, 27, 28, 29]",300,132,-1,13,578,11,0.0
basic,15,27,0,0,0,15,"[0, 15]",2,24,"[1, 3, 5, 6, 7, 8, 9, 10, 11, 12, 13, 14, 16, 17, 18, 19, 21, 22, 23, 24, 25, 26, 27, 29]",263.7508621,1887,1755,6,219,11,1.0
basic,15,27,0,0,0,24,"[0, 15, 24]",3,20,"[1, 5, 6, 7, 8, 9, 10, 12, 13, 14, 16, 17, 18, 19, 21, 23, 25, 26, 27, 29]",246.5462115,2890,1003,6,130,11,1.130933077698322
basic,15,27,0,0,0,17,"[0, 15, 24, 17]",4,15,"[1, 6, 8, 10, 12, 13, 14, 16, 18, 19, 23, 25, 26, 27, 29]",229.9932662,3802,912,4,60,11,1.1285538435963374
basic,15,27,0,0,0,12,"[0, 15, 24, 17, 12]",5,14,"[1, 6, 8, 10, 13, 14, 16, 18, 19, 23, 25, 26, 27, 29]",218.8129263,4554,752,2,32,11,1.2561880288755216
basic,15,27,0,0,0,10,"[0, 15, 24, 17, 12, 10]",6,11,"[1, 8, 13, 14, 18, 19, 23, 25, 26, 27, 29]",207.7675653,5347,793,2,28,11,1.2228289337766665
basic,15,27,0,0,0,13,"[0, 15, 24, 17, 12, 10, 13]",7,9,"[1, 8, 14, 18, 19, 23, 26, 27, 29]",167.9178476,6446,1099,2,18,11,1.3421291994761178
basic,15,27,0,0,0,19,"[0, 15, 24, 17, 12, 10, 13, 19]",8,5,"[1, 8, 14, 23, 29]",131.6825057,7451,1005,2,6,11,1.294749956153846
basic,15,27,0,0,0,8,"[0, 15, 24, 17, 12, 10, 13, 19, 8]",9,3,"[14, 23, 29]",116.816437,8510,1059,2,1,11,1.3554286578836865
basic,15,27,0,0,0,29,"[0, 15, 24, 17, 12, 10, 13, 19, 8, 29]",10,1,[14],57.61339652,10119,1609,1,0,11,1.248354519573802
basic,15,27,0,0,1,14,"[0, 15, 24, 17, 12, 10, 13, 19, 8, 29, 14]",11,0,[],13.31892734,11253,1134,1,0,11,1.562811097555156
basic,15,27,0,1,1,14,"[0, 15, 24, 17, 12, 10, 13, 19, 8, 29, 14]",11,0,[],13.31892734,12247,994,1,0,11,1.562811097555156
basic,16,42,0,0,0,0,[0],1,29,"[1, 2, 3, 4, 5, 6, 7, 8, 9, 10, 11, 12, 13, 14, 15, 16, 17, 18, 19, 20, 21, 22, 23, 24, 25, 26, 27, 28, 29]",300,112,-1,16,302,9,0.0
basic,16,42,0,0,0,3,"[0, 3]",2,25,"[1, 2, 4, 5, 6, 7, 8, 9, 10, 11, 13, 15, 17, 18, 19, 20, 21, 22, 23, 24, 25, 26, 27, 28, 29]",255.7959278,9403,9291,3,45,9,1.0
basic,16,42,0,0,0,11,"[0, 3, 11]",3,19,"[1, 2, 4, 5, 6, 7, 8, 9, 15, 17, 19, 22, 23, 24, 25, 26, 27, 28, 29]",207.3294445,10509,1106,49,82,7,1.0096173648192857
basic,16,42,0,0,0,24,"[0, 3, 11, 24]",4,15,"[1, 2, 4, 5, 6, 7, 8, 15, 17, 19, 22, 23, 26, 27, 28]",149.3208245,11458,949,18,27,7,1.149921218069753
basic,16,42,0,0,0,15,"[0, 3, 11, 24, 15]",5,12,"[1, 2, 4, 6, 7, 8, 17, 19, 22, 23, 26, 28]",135.719354,12337,879,12,5,7,1.135891118329389
basic,16,42,0,0,0,2,"[0, 3, 11, 24, 15, 2]",6,4,"[7, 19, 26, 28]",51.85637048,13607,1270,4,0,7,1.2950874887820845
basic,16,42,0,0,1,7,"[0, 3, 11, 24, 15, 2, 7]",7,0,[],12.63902737,14692,1085,1,0,7,1.6588029049095039
basic,16,42,0,1,1,7,"[0, 3, 11, 24, 15, 2, 7]",7,0,[],12.63902737,15546,854,1,0,7,1.6588029049095039
basic,17,40,0,0,0,0,[0],1,29,"[1, 2, 3, 4, 5, 6, 7, 8, 9, 10, 11, 12, 13, 14, 15, 16, 17, 18, 19, 20, 21, 22, 23, 24, 25, 26, 27, 28, 29]",300,130,-1,8,191,9,0.0
basic,17,40,0,0,0,1,"[0, 1]",2,18,"[2, 5, 6, 7, 8, 9, 10, 11, 13, 15, 17, 18, 19, 21, 22, 23, 27, 29]",247.8463808,1891,1761,4,80,9,1.0
basic,17,40,0,0,0,6,"[0, 1, 6]",3,17,"[2, 5, 7, 8, 9, 10, 11, 13, 15, 17, 18, 19, 21, 22, 23, 27, 29]",227.7466295,2785,894,4,74,9,1.0459427008232034
basic,17,40,0,0,0,21,"[0, 1, 6, 21]",4,8,"[2, 5, 9, 17, 18, 19, 22, 23]",175.7754837,3656,871,4,25,9,1.0308822257404064
basic,17,40,0,0,0,9,"[0, 1, 6, 21, 9]",5,6,"[2, 5, 18, 19, 22, 23]",130.0699041,4556,900,4,12,9,1.377861912961129
basic,17,40,0,0,0,18,"[0, 1, 6, 21, 9, 18]",6,5,"[2, 5, 19, 22, 23]",113.5169588,5318,762,4,4,9,1.5742712168661408
basic,17,40,0,0,0,23,"[0, 1, 6, 21, 9, 18, 23]",7,3,"[2, 5, 19]",79.51695879,6271,953,2,1,9,2.324611956726637
basic,17,40,0,0,0,19,"[0, 1, 6, 21, 9, 18, 23, 19]",8,1,[5],47.56386817,9035,2764,1,0,9,2.460596854255639
basic,17,40,0,0,1,5,"[0, 1, 6, 21, 9, 18, 23, 19, 5]",9,0,[],9.485002643,10115,1080,1,0,9,2.3622228457215413
basic,17,40,0,1,1,5,"[0, 1, 6, 21, 9, 18, 23, 19, 5]",9,0,[],9.485002643,11195,1080,1,0,9,2.3622228457215413
basic,18,12,0,0,0,0,[0],1,29,"[1, 2, 3, 4, 5, 6, 7, 8, 9, 10, 11, 12, 13, 14, 15, 16, 17, 18, 19, 20, 21, 22, 23, 24, 25, 26, 27, 28, 29]",300,115,-1,2,32,9,0.0
basic,18,12,0,0,0,6,"[0, 6]",2,28,"[1, 2, 3, 4, 5, 7, 8, 9, 10, 11, 12, 13, 14, 15, 16, 17, 18, 19, 20, 21, 22, 23, 24, 25, 26, 27, 28, 29]",283.5987805,4655,4540,2,18,9,1.0
basic,18,12,0,0,0,22,"[0, 6, 22]",3,13,"[2, 4, 5, 7, 12, 13, 14, 16, 19, 23, 24, 25, 27]",182.0015365,5770,1115,2,9,9,1.3408050629015749
basic,18,12,0,0,0,16,"[0, 6, 22, 16]",4,10,"[2, 4, 5, 7, 12, 14, 19, 24, 25, 27]",161.0015365,7319,1549,2,7,9,1.5323672374573825
basic,18,12,0,0,0,4,"[0, 6, 22, 16, 4]",5,6,"[12, 14, 19, 24, 25, 27]",126.7962737,8093,774,2,5,9,1.38665076120851
basic,18,12,0,0,0,12,"[0, 6, 22, 16, 4, 12]",6,3,"[14, 24, 27]",84.6062275,9026,933,2,3,9,1.3036701691846924
basic,18,12,0,0,0,27,"[0, 6, 22, 16, 4, 12, 27]",7,2,"[14, 24]",60.25463618,9799,773,2,0,9,1.401636252408167
basic,18,12,0,0,0,14,"[0, 6, 22, 16, 4, 12, 27, 14]",8,1,[24],31.60153862,10720,921,1,0,9,1.4415448388010776
basic,18,12,0,0,1,24,"[0, 6, 22, 16, 4, 12, 27, 14, 24]",9,0,[],14.39688808,11547,827,1,0,9,1.6003250998053893
basic,18,12,0,1,1,24,"[0, 6, 22, 16, 4, 12, 27, 14, 24]",9,0,[],14.39688808,12367,820,1,0,9,1.6003250998053893
basic,19,35,0,0,0,0,[0],1,29,"[1, 2, 3, 4, 5, 6, 7, 8, 9, 10, 11, 12, 13, 14, 15, 16, 17, 18, 19, 20, 21, 22, 23, 24, 25, 26, 27, 28, 29]",300,114,-1,5,236,11,0.0
basic,19,35,0,0,0,27,"[0, 27]",2,27,"[1, 2, 4, 5, 6, 7, 8, 9, 10, 11, 12, 13, 14, 15, 16, 17, 18, 19, 20, 21, 22, 23, 24, 25, 26, 28, 29]",278.7867966,3959,3845,5,144,11,1.0
basic,19,35,0,0,0,24,"[0, 27, 24]",3,25,"[1, 2, 4, 5, 6, 7, 8, 9, 10, 11, 12, 13, 15, 16, 17, 18, 19, 20, 21, 22, 23, 25, 26, 28, 29]",234.6053525,5091,1132,3,80,11,2.1084080567904624
basic,19,35,0,0,0,17,"[0, 27, 24, 17]",4,20,"[1, 2, 4, 5, 6, 7, 8, 9, 10, 15, 16, 18, 19, 20, 21, 23, 25, 26, 28, 29]",222.9006526,5834,743,3,50,11,1.9439555968916868
basic,19,35,0,0,0,1,"[0, 27, 24, 17, 1]",5,18,"[2, 4, 5, 6, 8, 9, 10, 15, 16, 18, 19, 20, 21, 23, 25, 26, 28, 29]",207.0892643,6800,966,3,39,11,1.9436711872547336
basic,19,35,0,0,0,15,"[0, 27, 24, 17, 1, 15]",6,16,"[2, 4, 5, 6, 8, 9, 10, 16, 18, 19, 20, 23, 25, 26, 28, 29]",184.241945,7589,789,3,24,11,2.082774572108194
basic,19,35,0,0,0,23,"[0, 27, 24, 17, 1, 15, 23]",7,7,"[5, 6, 9, 18, 19, 25, 26]",123.801892,8687,1098,3,14,11,1.657239080954205
basic,19,35,0,0,0,9,"[0, 27, 24, 17, 1, 15, 23, 9]",8,4,"[6, 18, 19, 25]",86.15883157,9700,1013,2,2,11,1.9022575917054987
basic,19,35,0,0,0,18,"[0, 27, 24, 17, 1, 15, 23, 9, 18]",9,2,"[6, 25]",66.13384718,10486,786,2,0,11,1.8181129550839106
basic,19,35,0,0,0,25,"[0, 27, 24, 17, 1, 15, 23, 9, 18, 25]",10,1,[6],32.29599855,11534,1048,1,0,11,1.6530923432245144
basic,19,35,0,0,1,6,"[0, 27, 24, 17, 1, 15, 23, 9, 18, 25, 6]",11,0,[],8.275174247,12512,978,1,0,11,1.9291202388527962
basic,19,35,0,1,1,6,"[0, 27, 24, 17, 1, 15, 23, 9, 18, 25, 6]",11,0,[],8.275174247,13363,851,1,0,11,1.9291202388527962
basic,20,20,0,0,0,0,[0],1,21,"[1, 2, 3, 4, 5, 6, 7, 8, 9, 12, 17, 18, 20, 21, 22, 23, 25, 26, 27, 28, 29]",300,113,-1,1,9,9,0.0
basic,20,20,0,0,0,1,"[0, 1]",2,14,"[3, 4, 5, 6, 8, 9, 12, 20, 21, 23, 26, 27, 28, 29]",197.3501096,5327,5214,1,9,8,1.0
basic,20,20,0,0,0,5,"[0, 1, 5]",3,12,"[4, 6, 8, 9, 12, 20, 21, 23, 26, 27, 28, 29]",160.675868,6227,900,1,8,8,1.1088946720668915
basic,20,20,0,0,0,21,"[0, 1, 5, 21]",4,8,"[4, 6, 8, 9, 20, 23, 27, 28]",115.675868,7191,964,1,6,8,1.0805828994591202
basic,20,20,0,0,0,8,"[0, 1, 5, 21, 8]",5,5,"[6, 9, 23, 27, 28]",98.21161876,7934,743,1,5,8,1.0976815296746363
basic,20,20,0,0,0,23,"[0, 1, 5, 21, 8, 23]",6,3,"[6, 9, 27]",53.52381281,8922,988,1,2,8,1.0820667611140062
basic,20,20,0,0,0,9,"[0, 1, 5, 21, 8, 23, 9]",7,1,[6],34.3144401,9832,910,1,0,8,1.0771429624373048
basic,20,20,0,0,1,6,"[0, 1, 5, 21, 8, 23, 9, 6]",8,0,[],11.29271124,10811,979,1,0,8,1.0892675954154076
basic,20,20,0,1,1,6,"[0, 1, 5, 21, 8, 23, 9, 6]",8,0,[],11.29271124,11612,801,1,0,8,1.0892675954154076
basic,21,17,0,0,0,0,[0],1,28,"[1, 2, 3, 4, 5, 6, 7, 8, 9, 10, 11, 12, 13, 14, 15, 16, 17, 18, 19, 20, 22, 23, 24, 25, 26, 27, 28, 29]",300,131,-1,2,73,8,0.0
basic,21,17,0,0,0,9,"[0, 9]",2,25,"[1, 2, 3, 5, 6, 7, 8, 10, 11, 12, 14, 15, 16, 17, 18, 19, 20, 22, 23, 24, 25, 26, 27, 28, 29]",210.5293344,4492,4361,1,34,8,1.0
basic,21,17,0,0,0,16,"[0, 9, 16]",3,21,"[1, 2, 3, 5, 7, 8, 10, 11, 12, 14, 17, 18, 19, 20, 22, 23, 25, 26, 27, 28, 29]",197.1876704,5251,759,1,26,8,1.173103464220352
basic,21,17,0,0,0,2,"[0, 9, 16, 2]",4,18,"[1, 3, 5, 7, 8, 10, 11, 12, 14, 17, 18, 19, 23, 25, 26, 27, 28, 29]",181.0631549,5970,719,1,23,8,1.14825089247282
basic,21,17,0,0,0,17,"[0, 9, 16, 2, 17]",5,7,"[7, 8, 12, 14, 26, 27, 29]",142.7356191,6802,832,4,5,7,1.4896040699768547
basic,21,17,0,0,0,8,"[0, 9, 16, 2, 17, 8]",6,3,"[7, 12, 27]",104.5256727,7685,883,3,0,7,1.4604726966175894
basic,21,17,0,0,1,7,"[0, 9, 16, 2, 17, 8, 7]",7,0,[],33.81499459,8952,1267,1,0,7,1.4474701869793896
basic,21,17,0,1,1,7,"[0, 9, 16, 2, 17, 8, 7]",7,0,[],33.81499459,9979,1027,1,0,7,1.4474701869793896
basic,22,5,0,0,0,0,[0],1,29,"[1, 2, 3, 4, 5, 6, 7, 8, 9, 10, 11, 12, 13, 14, 15, 16, 17, 18, 19, 20, 21, 22, 23, 24, 25, 26, 27, 28, 29]",300,115,-1,5,139,9,0.0
basic,22,5,0,0,0,12,"[0, 12]",2,22,"[2, 4, 5, 6, 8, 9, 10, 13, 14, 15, 16, 17, 18, 19, 21, 22, 23, 24, 25, 26, 27, 28]",228.3062067,2193,2078,1,27,9,1.0
basic,22,5,0,0,0,25,"[0, 12, 25]",3,21,"[2, 4, 5, 6, 8, 9, 10, 13, 14, 15, 16, 17, 18, 19, 21, 22, 23, 24, 26, 27, 28]",200.5213187,3228,1035,1,20,9,1.584023303445617
basic,22,5,0,0,0,23,"[0, 12, 25, 23]",4,19,"[2, 4, 5, 6, 8, 9, 10, 13, 14, 15, 16, 17, 18, 19, 21, 22, 24, 26, 27]",182.0822298,4043,815,1,14,9,2.3508446989254357
basic,22,5,0,0,0,24,"[0, 12, 25, 23, 24]",5,15,"[2, 4, 5, 6, 8, 9, 13, 14, 15, 17, 18, 19, 22, 26, 27]",158.995437,4852,809,1,12,9,1.9469752046288753
basic,22,5,0,0,0,17,"[0, 12, 25, 23, 24, 17]",6,7,"[4, 5, 6, 8, 15, 18, 19]",124.0097257,5781,929,1,8,9,1.6482276497563642
basic,22,5,0,0,0,5,"[0, 12, 25, 23, 24, 17, 5]",7,4,"[4, 6, 15, 18]",80.96323916,6788,1007,1,3,9,1.4654649104389412
basic,22,5,0,0,1,18,"[0, 12, 25, 23, 24, 17, 5, 18]",8,0,[],13.89610861,9559,2771,1,0,8,1.4108688678336447
basic,22,5,0,1,1,18,"[0, 12, 25, 23, 24, 17, 5, 18]",8,0,[],13.89610861,10316,757,1,0,8,1.4108688678336447
undo,23,18,0,0,0,0,[0],1,28,"[1, 2, 3, 4, 5, 6, 7, 8, 9, 10, 11, 12, 13, 14, 16, 17, 18, 19, 20, 21, 22, 23, 24, 25, 26, 27, 28, 29]",300,184,-1,3,136,10,0.0
undo,23,18,0,0,0,28,"[0, 28]",2,16,"[1, 3, 5, 7, 8, 9, 12, 13, 14, 16, 20, 23, 24, 25, 26, 27]",236.4311397,3092,2908,2,19,10,1.0
undo,23,18,0,0,0,7,"[0, 28, 7]",3,15,"[1, 3, 5, 8, 9, 12, 13, 14, 16, 20, 23, 24, 25, 26, 27]",214.4084242,4757,1665,2,17,10,1.4345180696367563
undo,23,18,0,0,0,25,"[0, 28, 7, 25]",4,13,"[1, 3, 5, 8, 9, 12, 13, 14, 16, 20, 23, 26, 27]",186.6055466,5536,779,2,15,10,1.8896451241781882
undo,23,18,0,0,0,13,"[0, 28, 7, 25, 13]",5,10,"[3, 5, 8, 9, 12, 14, 16, 23, 26, 27]",141.3286209,6563,1027,5,21,9,1.6878978848273398
undo,23,18,0,0,0,14,"[0, 28, 7, 25, 13, 14]",6,8,"[3, 5, 8, 9, 12, 23, 26, 27]",122.354955,7306,743,3,7,9,1.584538278883837
undo,23,18,0,0,0,8,"[0, 28, 7, 25, 13, 14, 8]",7,3,"[3, 5, 23]",88.75435972,8064,758,1,2,9,2.2331853335907565
undo,23,18,0,0,0,3,"[0, 28, 7, 25, 13, 14, 8, 3]",8,1,[5],60.68302202,8896,832,1,0,9,1.9555800330994786
undo,23,18,0,0,1,5,"[0, 28, 7, 25, 13, 14, 8, 3, 5]",9,0,[],2.502269193,10020,1124,1,0,9,1.6644939127114788
undo,23,18,1,0,0,3,"[0, 28, 7, 25, 13, 14, 8, 3]",8,1,[5],60.68302202,11849,1829,1,0,9,1.9555800330994786
undo,23,18,1,0,0,8,"[0, 28, 7, 25, 13, 14, 8]",7,3,"[3, 5, 23]",88.75435972,13450,1601,1,2,9,2.2331853335907565
undo,23,18,1,0,0,14,"[0, 28, 7, 25, 13, 14]",6,8,"[3, 5, 8, 9, 12, 23, 26, 27]",122.354955,14050,600,3,7,9,1.584538278883837
undo,23,18,1,0,0,13,"[0, 28, 7, 25, 13]",5,10,"[3, 5, 8, 9, 12, 14, 16, 23, 26, 27]",141.3286209,14566,516,5,21,9,1.6878978848273398
undo,23,18,0,0,0,8,"[0, 28, 7, 25, 13, 8]",6,8,"[3, 5, 9, 12, 14, 23, 26, 27]",120.2335978,15949,1383,2,9,9,1.900402263134541
undo,23,18,0,0,0,3,"[0, 28, 7, 25, 13, 8, 3]",7,4,"[5, 12, 14, 27]",92.16226011,17814,1865,2,2,9,1.6983472617950826
undo,23,18,0,0,0,5,"[0, 28, 7, 25, 13, 8, 3, 5]",8,1,[12],33.98150728,18740,926,1,0,9,1.4883681989775508
undo,23,18,0,0,1,12,"[0, 28, 7, 25, 13, 8, 3, 5, 12]",9,0,[],22.57975303,19554,814,1,0,9,1.4952065110356179
undo,23,18,0,1,1,12,"[0, 28, 7, 25, 13, 8, 3, 5, 12]",9,0,[],22.57975303,20267,713,1,0,9,1.4952065110356179
undo,24,17,0,0,0,0,[0],1,28,"[1, 2, 3, 4, 5, 6, 7, 8, 9, 10, 11, 12, 13, 14, 15, 16, 17, 18, 19, 20, 22, 23, 24, 25, 26, 27, 28, 29]",300,129,-1,2,73,8,0.0
undo,24,17,0,0,0,9,"[0, 9]",2,25,"[1, 2, 3, 5, 6, 7, 8, 10, 11, 12, 14, 15, 16, 17, 18, 19, 20, 22, 23, 24, 25, 26, 27, 28, 29]",210.5293344,1874,1745,1,34,8,1.0
undo,24,17,0,0,0,16,"[0, 9, 16]",3,21,"[1, 2, 3, 5, 7, 8, 10, 11, 12, 14, 17, 18, 19, 20, 22, 23, 25, 26, 27, 28, 29]",197.1876704,2484,610,1,26,8,1.173103464220352
undo,24,17,0,0,0,2,"[0, 9, 16, 2]",4,18,"[1, 3, 5, 7, 8, 10, 11, 12, 14, 17, 18, 19, 23, 25, 26, 27, 28, 29]",181.0631549,3053,569,1,23,8,1.14825089247282
undo,24,17,0,0,0,17,"[0, 9, 16, 2, 17]",5,7,"[7, 8, 12, 14, 26, 27, 29]",142.7356191,3885,832,4,5,7,1.4896040699768547
undo,24,17,0,0,0,8,"[0, 9, 16, 2, 17, 8]",6,3,"[7, 12, 27]",104.5256727,4641,756,3,0,7,1.4604726966175894
undo,24,17,0,0,1,7,"[0, 9, 16, 2, 17, 8, 7]",7,0,[],33.81499459,5932,1291,1,0,7,1.4474701869793896
undo,24,17,1,0,0,8,"[0, 9, 16, 2, 17, 8]",6,3,"[7, 12, 27]",104.5256727,7062,1130,3,0,7,1.4604726966175894
undo,24,17,1,0,0,17,"[0, 9, 16, 2, 17]",5,7,"[7, 8, 12, 14, 26, 27, 29]",142.7356191,7479,417,4,5,7,1.4896040699768547
undo,24,17,1,0,0,2,"[0, 9, 16, 2]",4,18,"[1, 3, 5, 7, 8, 10, 11, 12, 14, 17, 18, 19, 23, 25, 26, 27, 28, 29]",181.0631549,7879,400,1,23,8,1.14825089247282
undo,24,17,1,0,0,16,"[0, 9, 16]",3,21,"[1, 2, 3, 5, 7, 8, 10, 11, 12, 14, 17, 18, 19, 20, 22, 23, 25, 26, 27, 28, 29]",197.1876704,8663,784,1,26,8,1.173103464220352
undo,24,17,1,0,0,9,"[0, 9]",2,25,"[1, 2, 3, 5, 6, 7, 8, 10, 11, 12, 14, 15, 16, 17, 18, 19, 20, 22, 23, 24, 25, 26, 27, 28, 29]",210.5293344,9147,484,1,34,8,1.0
undo,24,17,1,0,0,0,[0],1,28,"[1, 2, 3, 4, 5, 6, 7, 8, 9, 10, 11, 12, 13, 14, 15, 16, 17, 18, 19, 20, 22, 23, 24, 25, 26, 27, 28, 29]",300,10112,965,2,73,8,0.0
undo,24,17,0,0,0,9,"[0, 9]",2,25,"[1, 2, 3, 5, 6, 7, 8, 10, 11, 12, 14, 15, 16, 17, 18, 19, 20, 22, 23, 24, 25, 26, 27, 28, 29]",210.5293344,14026,3914,1,34,8,1.0
undo,24,17,0,0,0,16,"[0, 9, 16]",3,21,"[1, 2, 3, 5, 7, 8, 10, 11, 12, 14, 17, 18, 19, 20, 22, 23, 25, 26, 27, 28, 29]",197.1876704,14573,547,1,26,8,1.173103464220352
undo,24,17,0,0,0,2,"[0, 9, 16, 2]",4,18,"[1, 3, 5, 7, 8, 10, 11, 12, 14, 17, 18, 19, 23, 25, 26, 27, 28, 29]",181.0631549,15152,579,1,23,8,1.14825089247282
undo,24,17,0,0,0,10,"[0, 9, 16, 2, 10]",5,4,"[3, 11, 23, 28]",71.04042993,16351,1199,3,2,7,1.2629477265421833
undo,24,17,0,0,0,11,"[0, 9, 16, 2, 10, 11]",6,1,[3],49.08593153,17800,1449,1,0,7,1.2370659942349713
undo,24,17,0,0,1,3,"[0, 9, 16, 2, 10, 11, 3]",7,0,[],22.91342687,19434,1634,1,0,7,1.4627126127553682
undo,24,17,0,1,1,3,"[0, 9, 16, 2, 10, 11, 3]",7,0,[],22.91342687,20446,1012,1,0,7,1.4627126127553682
undo,25,30,0,0,0,0,[0],1,19,"[3, 4, 5, 7, 9, 11, 16, 17, 18, 19, 20, 21, 22, 24, 25, 26, 27, 28, 29]",300,114,-1,5,41,8,0.0
undo,25,30,0,0,0,25,"[0, 25]",2,12,"[3, 5, 7, 9, 11, 16, 18, 19, 20, 24, 27, 29]",121.1005869,2557,2443,7,37,7,1.0
undo,25,30,0,0,0,20,"[0, 25, 20]",3,9,"[3, 5, 7, 9, 11, 18, 19, 27, 29]",99.16887472,3260,703,5,16,7,1.0037291321296267
undo,25,30,0,0,0,27,"[0, 25, 20, 27]",4,4,"[3, 5, 18, 29]",65.11010199,4003,743,4,6,7,1.1217072851053165
undo,25,30,0,0,0,3,"[0, 25, 20, 27, 3]",5,3,"[5, 18, 29]",46.00512882,4785,782,4,0,7,1.1140018780928678
undo,25,30,0,0,0,5,"[0, 25, 20, 27, 3, 5]",6,1,[18],21.16564412,6203,1418,1,0,7,1.1530944492196908
undo,25,30,0,0,1,18,"[0, 25, 20, 27, 3, 5, 18]",7,0,[],8.127239308,6802,599,1,0,7,1.194996135676334
undo,25,30,1,0,0,5,"[0, 25, 20, 27, 3, 5]",6,1,[18],21.16564412,7566,764,1,0,7,1.1530944492196908
undo,25,30,1,0,0,3,"[0, 25, 20, 27, 3]",5,3,"[5, 18, 29]",46.00512882,7964,398,4,0,7,1.1140018780928678
undo,25,30,1,0,0,27,"[0, 25, 20, 27]",4,4,"[3, 5, 18, 29]",65.11010199,8381,417,4,6,7,1.1217072851053165
undo,25,30,1,0,0,20,"[0, 25, 20]",3,9,"[3, 5, 7, 9, 11, 18, 19, 27, 29]",99.16887472,8815,434,5,16,7,1.0037291321296267
undo,25,30,1,0,0,25,"[0, 25]",2,12,"[3, 5, 7, 9, 11, 16, 18, 19, 20, 24, 27, 29]",121.1005869,9580,765,7,37,7,1.0
undo,25,30,1,0,0,0,[0],1,19,"[3, 4, 5, 7, 9, 11, 16, 17, 18, 19, 20, 21, 22, 24, 25, 26, 27, 28, 29]",300,10314,734,5,41,8,0.0
undo,25,30,0,0,0,27,"[0, 27]",2,10,"[3, 5, 7, 9, 18, 19, 20, 24, 25, 29]",90.59608409,10979,665,7,22,6,1.0
undo,25,30,0,0,0,3,"[0, 27, 3]",3,8,"[5, 7, 18, 19, 20, 24, 25, 29]",71.49111091,11701,722,5,9,6,1.0022223300201003
undo,25,30,0,0,0,5,"[0, 27, 3, 5]",4,4,"[7, 18, 24, 29]",46.65162621,12378,677,1,3,6,1.047699458031665
undo,25,30,0,0,0,18,"[0, 27, 3, 5, 18]",5,1,[29],33.6132214,13020,642,1,0,6,1.0906504953306948
undo,25,30,0,0,1,29,"[0, 27, 3, 5, 18, 29]",6,0,[],14.30001349,13905,885,1,0,6,1.1734964103241567
undo,25,30,1,0,0,18,"[0, 27, 3, 5, 18]",5,1,[29],33.6132214,15481,1576,1,0,6,1.0906504953306948
undo,25,30,1,0,0,5,"[0, 27, 3, 5]",4,4,"[7, 18, 24, 29]",46.65162621,15863,382,1,3,6,1.047699458031665
undo,25,30,1,0,0,3,"[0, 27, 3]",3,8,"[5, 7, 18, 19, 20, 24, 25, 29]",71.49111091,16298,435,5,9,6,1.0022223300201003
undo,25,30,1,0,0,27,"[0, 27]",2,10,"[3, 5, 7, 9, 18, 19, 20, 24, 25, 29]",90.59608409,17031,733,7,22,6,1.0
undo,25,30,1,0,0,0,[0],1,19,"[3, 4, 5, 7, 9, 11, 16, 17, 18, 19, 20, 21, 22, 24, 25, 26, 27, 28, 29]",300,17680,649,5,41,8,0.0
undo,25,30,0,0,0,25,"[0, 25]",2,12,"[3, 5, 7, 9, 11, 16, 18, 19, 20, 24, 27, 29]",121.1005869,18676,996,7,37,7,1.0
undo,25,30,0,0,0,27,"[0, 25, 27]",3,8,"[3, 5, 7, 18, 19, 20, 24, 29]",81.54050603,19501,825,2,17,7,1.0432445497342653
undo,25,30,0,0,0,3,"[0, 25, 27, 3]",4,5,"[5, 7, 18, 20, 29]",62.43553286,20218,717,2,6,7,1.0419393955972533
undo,25,30,0,0,0,5,"[0, 25, 27, 3, 5]",5,2,"[18, 29]",37.59604816,20938,720,1,1,7,1.0851479881849022
undo,25,30,0,0,0,18,"[0, 25, 27, 3, 5, 18]",6,1,[29],24.55764335,21490,552,1,0,7,1.1277261743026177
undo,25,30,0,0,1,29,"[0, 25, 27, 3, 5, 18, 29]",7,0,[],5.244435434,22551,1061,1,0,7,1.210691681041309
undo,25,30,0,1,1,29,"[0, 25, 27, 3, 5, 18, 29]",7,0,[],5.244435434,23147,596,1,0,7,1.210691681041309
undo,26,12,0,0,0,0,[0],1,29,"[1, 2, 3, 4, 5, 6, 7, 8, 9, 10, 11, 12, 13, 14, 15, 16, 17, 18, 19, 20, 21, 22, 23, 24, 25, 26, 27, 28, 29]",300,129,-1,2,32,9,0.0
undo,26,12,0,0,0,22,"[0, 22]",2,22,"[2, 4, 5, 6, 7, 9, 10, 12, 13, 14, 15, 16, 17, 18, 19, 21, 23, 24, 25, 27, 28, 29]",211.9943184,3573,3444,6,42,8,1.0
undo,26,12,0,0,0,16,"[0, 22, 16]",3,12,"[2, 4, 5, 6, 7, 12, 14, 19, 23, 24, 25, 27]",190.9943184,4243,670,6,24,8,1.2017164145167045
undo,26,12,0,0,0,4,"[0, 22, 16, 4]",4,9,"[2, 6, 7, 12, 14, 19, 24, 25, 27]",156.7890556,5009,766,6,14,8,1.146531713305579
undo,26,12,0,0,0,12,"[0, 22, 16, 4, 12]",5,4,"[14, 19, 24, 27]",114.5990094,5839,830,4,3,8,1.1221389456954312
undo,26,12,0,0,0,27,"[0, 22, 16, 4, 12, 27]",6,3,"[14, 19, 24]",90.24741807,8436,2597,2,1,8,1.2262878338287035
undo,26,12,0,0,0,14,"[0, 22, 16, 4, 12, 27, 14]",7,1,[24],61.59432051,9278,842,1,0,8,1.2804562106751427
undo,26,12,0,0,1,24,"[0, 22, 16, 4, 12, 27, 14, 24]",8,0,[],44.38966997,10269,991,1,0,8,1.4322660007679802
undo,26,12,0,1,1,24,"[0, 22, 16, 4, 12, 27, 14, 24]",8,0,[],44.38966997,12730,2461,1,0,8,1.4322660007679802
undo,27,39,0,0,0,0,[0],1,28,"[1, 2, 3, 4, 5, 6, 7, 9, 10, 11, 12, 13, 14, 15, 16, 17, 18, 19, 20, 21, 22, 23, 24, 25, 26, 27, 28, 29]",300,115,-1,1,30,10,0.0
undo,27,39,0,0,0,14,"[0, 14]",2,26,"[1, 2, 3, 4, 5, 6, 7, 9, 10, 12, 13, 15, 16, 17, 18, 19, 20, 21, 22, 23, 24, 25, 26, 27, 28, 29]",286.9615952,2603,2488,1,22,10,1.0
undo,27,39,0,0,0,29,"[0, 14, 29]",3,23,"[1, 2, 3, 4, 5, 6, 7, 9, 10, 12, 13, 15, 16, 17, 18, 19, 21, 22, 23, 24, 25, 26, 28]",218.9321898,4061,1458,1,21,10,1.4237768813412561
undo,27,39,0,0,0,10,"[0, 14, 29, 10]",4,16,"[1, 2, 4, 5, 7, 9, 12, 13, 15, 16, 18, 19, 22, 23, 24, 26]",154.2947393,5020,959,10,55,9,1.2261903217179273
undo,27,39,0,0,0,7,"[0, 14, 29, 10, 7]",5,13,"[1, 2, 5, 9, 12, 13, 15, 16, 18, 19, 22, 24, 26]",120.8731894,5820,800,7,19,9,1.1772181718345374
undo,27,39,0,0,0,26,"[0, 14, 29, 10, 7, 26]",6,6,"[1, 12, 16, 18, 19, 22]",102.1916477,6567,747,5,7,9,1.2246375898647768
undo,27,39,0,0,0,22,"[0, 14, 29, 10, 7, 26, 22]",7,4,"[12, 16, 18, 19]",84.47160256,7292,725,3,2,9,1.3919259602577456
undo,27,39,0,0,0,16,"[0, 14, 29, 10, 7, 26, 22, 16]",8,2,"[18, 19]",49.47160256,8162,870,2,0,9,1.3197225741710712
undo,27,39,0,0,1,19,"[0, 14, 29, 10, 7, 26, 22, 16, 19]",9,0,[],32.00735337,8897,735,1,0,9,1.3285534538986796
undo,27,39,0,1,1,19,"[0, 14, 29, 10, 7, 26, 22, 16, 19]",9,0,[],32.00735337,11997,3100,1,0,9,1.3285534538986796
undo,28,38,0,0,0,0,[0],1,29,"[1, 2, 3, 4, 5, 6, 7, 8, 9, 10, 11, 12, 13, 14, 15, 16, 17, 18, 19, 20, 21, 22, 23, 24, 25, 26, 27, 28, 29]",300,146,-1,33,506,9,0.0
undo,28,38,0,0,0,19,"[0, 19]",2,23,"[3, 4, 5, 6, 7, 8, 9, 11, 13, 14, 15, 16, 17, 18, 20, 22, 23, 24, 25, 26, 27, 28, 29]",219.5015528,3563,3417,6,61,9,1.0
undo,28,38,0,0,0,17,"[0, 19, 17]",3,21,"[3, 4, 5, 6, 7, 9, 11, 13, 14, 15, 16, 18, 20, 22, 23, 24, 25, 26, 27, 28, 29]",198.1239945,4318,755,6,53,9,1.571793785769489
undo,28,38,0,0,0,20,"[0, 19, 17, 20]",4,17,"[3, 4, 5, 6, 7, 11, 13, 14, 15, 16, 18, 22, 24, 25, 26, 27, 28]",174.3542658,5144,826,6,44,9,2.333182710277297
undo,28,38,0,0,0,4,"[0, 19, 17, 20, 4]",5,10,"[5, 11, 13, 14, 15, 16, 24, 26, 27, 28]",140.4131403,6014,870,5,22,9,2.276099229646013
undo,28,38,0,0,0,15,"[0, 19, 17, 20, 4, 15]",6,8,"[5, 11, 13, 14, 16, 24, 26, 28]",114.4131403,6917,903,5,6,9,2.5292671156176403
undo,28,38,0,0,0,11,"[0, 19, 17, 20, 4, 15, 11]",7,2,"[16, 28]",78.01259089,8393,1476,2,0,9,2.778100109749787
undo,28,38,0,0,0,28,"[0, 19, 17, 20, 4, 15, 11, 28]",8,1,[16],50.99407872,9351,958,1,0,9,2.3316428595723258
undo,28,38,0,0,1,16,"[0, 19, 17, 20, 4, 15, 11, 28, 16]",9,0,[],21.99407872,10345,994,1,0,9,2.5408012360364265
undo,28,38,0,1,1,16,"[0, 19, 17, 20, 4, 15, 11, 28, 16]",9,0,[],21.99407872,11231,886,1,0,9,2.5408012360364265
undo,29,21,0,0,0,0,[0],1,29,"[1, 2, 3, 4, 5, 6, 7, 8, 9, 10, 11, 12, 13, 14, 15, 16, 17, 18, 19, 20, 21, 22, 23, 24, 25, 26, 27, 28, 29]",300,130,-1,84,830,9,0.0
undo,29,21,0,0,0,18,"[0, 18]",2,28,"[1, 2, 3, 4, 5, 6, 7, 8, 9, 10, 11, 12, 13, 14, 15, 16, 17, 19, 20, 21, 22, 23, 24, 25, 26, 27, 28, 29]",240.923778,4569,4439,44,305,9,1.0
undo,29,21,0,0,0,22,"[0, 18, 22]",3,27,"[1, 2, 3, 4, 5, 6, 7, 8, 9, 10, 11, 12, 13, 14, 15, 16, 17, 19, 20, 21, 23, 24, 25, 26, 27, 28, 29]",214.5230205,5362,793,13,86,9,1.0395459700082075
undo,29,21,0,0,0,29,"[0, 18, 22, 29]",4,20,"[2, 4, 6, 7, 8, 9, 10, 11, 12, 14, 15, 16, 17, 20, 21, 23, 24, 25, 26, 27]",184.2575286,6116,754,13,48,9,1.3662220122820667
undo,29,21,0,0,0,25,"[0, 18, 22, 29, 25]",5,13,"[4, 6, 8, 9, 11, 12, 14, 15, 16, 17, 20, 21, 23]",139.0358524,6984,868,11,18,9,2.6909708046730523
undo,29,21,0,0,0,23,"[0, 18, 22, 29, 25, 23]",6,7,"[4, 8, 14, 15, 16, 17, 21]",95.71149432,7916,932,6,5,9,2.0630993046242816
undo,29,21,0,0,0,21,"[0, 18, 22, 29, 25, 23, 21]",7,2,"[4, 14]",66.09730853,8724,808,2,0,9,2.602133289828447
undo,29,21,0,0,0,14,"[0, 18, 22, 29, 25, 23, 21, 14]",8,1,[4],40.48481158,9703,979,1,0,9,2.26566587256098
undo,29,21,0,0,1,4,"[0, 18, 22, 29, 25, 23, 21, 14, 4]",9,0,[],26.34267596,10485,782,1,0,9,2.1395154462606985
undo,29,21,0,1,1,4,"[0, 18, 22, 29, 25, 23, 21, 14, 4]",9,0,[],26.34267596,12430,1945,1,0,9,2.1395154462606985
undo,30,26,0,0,0,0,[0],1,29,"[1, 2, 3, 4, 5, 6, 7, 8, 9, 10, 11, 12, 13, 14, 15, 16, 17, 18, 19, 20, 21, 22, 23, 24, 25, 26, 27, 28, 29]",300,114,-1,9,226,9,0.0
undo,30,26,0,0,0,4,"[0, 4]",2,13,"[5, 6, 10, 12, 13, 14, 16, 17, 19, 21, 23, 26, 29]",178.7976898,2652,2538,4,118,8,1.0
undo,30,26,0,0,0,10,"[0, 4, 10]",3,5,"[6, 14, 16, 17, 29]",128.5881289,3560,908,1,11,8,1.0592893513500627
undo,30,26,0,0,0,6,"[0, 4, 10, 6]",4,4,"[14, 16, 17, 29]",99.31356661,4826,1266,1,7,8,1.249516025811376
undo,30,26,0,0,0,14,"[0, 4, 10, 6, 14]",5,3,"[16, 17, 29]",78.28977057,5513,687,1,3,8,1.3757824228717679
undo,30,26,0,0,0,17,"[0, 4, 10, 6, 14, 17]",6,2,"[16, 29]",55.81756552,6336,823,1,1,8,1.7185295938563587
undo,30,26,0,0,0,29,"[0, 4, 10, 6, 14, 17, 29]",7,1,[16],25.40375286,7204,868,1,0,8,2.2473188452438926
undo,30,26,0,0,1,16,"[0, 4, 10, 6, 14, 17, 29, 16]",8,0,[],1.196315991,8074,870,1,0,8,2.669167047452515
undo,30,26,1,0,0,29,"[0, 4, 10, 6, 14, 17, 29]",7,1,[16],25.40375286,9147,1073,1,0,8,2.2473188452438926
undo,30,26,1,0,0,17,"[0, 4, 10, 6, 14, 17]",6,2,"[16, 29]",55.81756552,9564,417,1,1,8,1.7185295938563587
undo,30,26,1,0,0,14,"[0, 4, 10, 6, 14]",5,3,"[16, 17, 29]",78.28977057,9914,350,1,3,8,1.3757824228717679
undo,30,26,1,0,0,6,"[0, 4, 10, 6]",4,4,"[14, 16, 17, 29]",99.31356661,10297,383,1,7,8,1.249516025811376
undo,30,26,1,0,0,10,"[0, 4, 10]",3,5,"[6, 14, 16, 17, 29]",128.5881289,10714,417,1,11,8,1.0592893513500627
undo,30,26,1,0,0,4,"[0, 4]",2,13,"[5, 6, 10, 12, 13, 14, 16, 17, 19, 21, 23, 26, 29]",178.7976898,11114,400,4,118,8,1.0
undo,30,26,0,0,0,17,"[0, 4, 17]",3,10,"[5, 6, 10, 12, 13, 14, 16, 21, 23, 29]",157.7026667,12606,1492,1,35,8,1.0014732588101924
undo,30,26,0,0,0,6,"[0, 4, 17, 6]",4,6,"[10, 14, 16, 21, 23, 29]",137.5780549,13934,1328,10,11,7,1.011273258075741
undo,30,26,0,0,0,14,"[0, 4, 17, 6, 14]",5,4,"[10, 16, 23, 29]",116.5542588,14569,635,5,2,7,1.1383391147196797
undo,30,26,0,0,0,29,"[0, 4, 17, 6, 14, 29]",6,3,"[10, 16, 23]",75.32320259,15403,834,3,0,7,1.8387738585921345
undo,30,26,0,0,1,16,"[0, 4, 17, 6, 14, 29, 16]",7,0,[],51.11576571,16217,814,1,0,7,2.2232443318112174
undo,30,26,1,0,0,29,"[0, 4, 17, 6, 14, 29]",6,3,"[10, 16, 23]",75.32320259,18296,2079,3,0,7,1.8387738585921345
undo,30,26,1,0,0,14,"[0, 4, 17, 6, 14]",5,4,"[10, 16, 23, 29]",116.5542588,18663,367,5,2,7,1.1383391147196797
undo,30,26,1,0,0,6,"[0, 4, 17, 6]",4,6,"[10, 14, 16, 21, 23, 29]",137.5780549,19014,351,10,11,7,1.011273258075741
undo,30,26,1,0,0,17,"[0, 4, 17]",3,10,"[5, 6, 10, 12, 13, 14, 16, 21, 23, 29]",157.7026667,19380,366,1,35,8,1.0014732588101924
undo,30,26,1,0,0,4,"[0, 4]",2,13,"[5, 6, 10, 12, 13, 14, 16, 17, 19, 21, 23, 26, 29]",178.7976898,19797,417,4,118,8,1.0
undo,30,26,0,0,0,10,"[0, 4, 10]",3,5,"[6, 14, 16, 17, 29]",128.5881289,20702,905,1,11,8,1.0592893513500627
undo,30,26,0,0,0,6,"[0, 4, 10, 6]",4,4,"[14, 16, 17, 29]",99.31356661,21307,605,1,7,8,1.249516025811376
undo,30,26,0,0,0,14,"[0, 4, 10, 6, 14]",5,3,"[16, 17, 29]",78.28977057,22686,1379,1,3,8,1.3757824228717679
undo,30,26,0,0,0,17,"[0, 4, 10, 6, 14, 17]",6,2,"[16, 29]",55.81756552,23441,755,1,1,8,1.7185295938563587
undo,30,26,0,0,0,29,"[0, 4, 10, 6, 14, 17, 29]",7,1,[16],25.40375286,24493,1052,1,0,8,2.2473188452438926
undo,30,26,0,0,1,16,"[0, 4, 10, 6, 14, 17, 29, 16]",8,0,[],1.196315991,25402,909,1,0,8,2.669167047452515
undo,30,26,0,1,1,16,"[0, 4, 10, 6, 14, 17, 29, 16]",8,0,[],1.196315991,26164,762,1,0,8,2.669167047452515
undo,31,4,0,0,0,0,[0],1,26,"[3, 4, 5, 6, 7, 8, 10, 11, 12, 13, 14, 15, 16, 17, 18, 19, 20, 21, 22, 23, 24, 25, 26, 27, 28, 29]",300,146,-1,4,489,10,0.0
undo,31,4,0,0,0,28,"[0, 28]",2,21,"[3, 4, 5, 6, 10, 11, 12, 13, 14, 15, 16, 17, 19, 20, 21, 22, 23, 24, 25, 26, 27]",225.9392142,1667,1521,2,216,10,1.0
undo,31,4,0,0,0,14,"[0, 28, 14]",3,13,"[3, 4, 5, 6, 11, 13, 16, 17, 20, 21, 22, 24, 25]",159.6972335,2618,951,1,26,10,1.0273973946789214
undo,31,4,0,0,0,25,"[0, 28, 14, 25]",4,12,"[3, 4, 5, 6, 11, 13, 16, 17, 20, 21, 22, 24]",143.572718,3312,694,1,25,10,1.233547772313525
undo,31,4,0,0,0,11,"[0, 28, 14, 25, 11]",5,10,"[3, 4, 5, 6, 13, 16, 17, 20, 21, 22]",124.7844238,3953,641,1,15,10,1.425978575879479
undo,31,4,0,0,0,16,"[0, 28, 14, 25, 11, 16]",6,9,"[3, 4, 5, 6, 13, 17, 20, 21, 22]",109.7844238,5574,1621,1,12,10,1.3799325158051412
undo,31,4,0,0,0,17,"[0, 28, 14, 25, 11, 16, 17]",7,5,"[3, 5, 20, 21, 22]",83.70761416,6316,742,1,5,10,1.3195184878861832
undo,31,4,0,0,0,20,"[0, 28, 14, 25, 11, 16, 17, 20]",8,3,"[5, 21, 22]",43.48324344,7176,860,1,2,10,1.4038284317031835
undo,31,4,0,0,0,22,"[0, 28, 14, 25, 11, 16, 17, 20, 22]",9,1,[21],13.25081052,8212,1036,1,0,10,1.807318570651008
undo,31,4,0,0,1,21,"[0, 28, 14, 25, 11, 16, 17, 20, 22, 21]",10,0,[],2.205449508,9004,792,1,0,10,2.0148407301566107
undo,31,4,0,1,1,21,"[0, 28, 14, 25, 11, 16, 17, 20, 22, 21]",10,0,[],2.205449508,9846,842,1,0,10,2.0148407301566107
undo,32,28,0,0,0,0,[0],1,27,"[1, 2, 3, 4, 5, 6, 7, 8, 9, 10, 11, 12, 13, 14, 15, 16, 17, 18, 19, 20, 22, 23, 25, 26, 27, 28, 29]",300,130,-1,2,96,9,0.0
undo,32,28,0,0,0,14,"[0, 14]",2,14,"[1, 2, 3, 5, 7, 10, 11, 12, 13, 17, 18, 19, 20, 26]",147.8914861,1818,1688,1,26,8,1.0
undo,32,28,0,0,0,18,"[0, 14, 18]",3,11,"[1, 2, 3, 5, 7, 11, 12, 13, 17, 19, 26]",122.3963885,2751,933,1,23,8,1.0675599824559303
undo,32,28,0,0,0,13,"[0, 14, 18, 13]",4,7,"[2, 7, 11, 12, 17, 19, 26]",97.9832773,3468,717,1,9,8,1.0602397944415018
undo,32,28,0,0,0,12,"[0, 14, 18, 13, 12]",5,4,"[2, 7, 17, 19]",80.77862677,5058,1590,1,3,8,1.0640685934245377
undo,32,28,0,0,0,7,"[0, 14, 18, 13, 12, 7]",6,2,"[2, 19]",67.62568033,5736,678,1,1,8,1.186262804928269
undo,32,28,0,0,0,19,"[0, 14, 18, 13, 12, 7, 19]",7,1,[2],39.89483108,6684,948,1,0,8,1.424576333867947
undo,32,28,0,0,1,2,"[0, 14, 18, 13, 12, 7, 19, 2]",8,0,[],2.531747699,7712,1028,1,0,8,1.4824387893309579
undo,32,28,0,1,1,2,"[0, 14, 18, 13, 12, 7, 19, 2]",8,0,[],2.531747699,11014,3302,1,0,8,1.4824387893309579
undo,33,42,0,0,0,0,[0],1,29,"[1, 2, 3, 4, 5, 6, 7, 8, 9, 10, 11, 12, 13, 14, 15, 16, 17, 18, 19, 20, 21, 22, 23, 24, 25, 26, 27, 28, 29]",300,132,-1,16,302,9,0.0
undo,33,42,0,0,0,3,"[0, 3]",2,25,"[1, 2, 4, 5, 6, 7, 8, 9, 10, 11, 13, 15, 17, 18, 19, 20, 21, 22, 23, 24, 25, 26, 27, 28, 29]",255.7959278,4884,4752,3,45,9,1.0
undo,33,42,0,0,0,23,"[0, 3, 23]",3,15,"[1, 2, 4, 5, 6, 7, 8, 9, 11, 15, 17, 22, 24, 25, 29]",202.4573864,5674,790,1,24,8,1.2042297975308642
undo,33,42,0,0,0,17,"[0, 3, 23, 17]",4,11,"[4, 5, 6, 8, 9, 11, 15, 22, 24, 25, 29]",191.2770465,6307,633,1,14,8,1.192958341617778
undo,33,42,0,0,0,11,"[0, 3, 23, 17, 11]",5,7,"[4, 6, 8, 15, 22, 24, 25]",140.0813435,7214,907,1,7,8,1.7422648616902974
undo,33,42,0,0,0,24,"[0, 3, 23, 17, 11, 24]",6,2,"[6, 15]",82.0727235,8134,920,1,1,8,1.6631309430247303
undo,33,42,0,0,0,15,"[0, 3, 23, 17, 11, 24, 15]",7,1,[6],68.47125299,8954,820,1,0,8,1.6008668931493675
undo,33,42,0,0,1,6,"[0, 3, 23, 17, 11, 24, 15, 6]",8,0,[],19.07489685,9957,1003,1,0,8,1.4594939660868298
undo,33,42,1,0,0,15,"[0, 3, 23, 17, 11, 24, 15]",7,1,[6],68.47125299,10982,1025,1,0,8,1.6008668931493675
undo,33,42,1,0,0,24,"[0, 3, 23, 17, 11, 24]",6,2,"[6, 15]",82.0727235,11380,398,1,1,8,1.6631309430247303
undo,33,42,1,0,0,11,"[0, 3, 23, 17, 11]",5,7,"[4, 6, 8, 15, 22, 24, 25]",140.0813435,11814,434,1,7,8,1.7422648616902974
undo,33,42,1,0,0,17,"[0, 3, 23, 17]",4,11,"[4, 5, 6, 8, 9, 11, 15, 22, 24, 25, 29]",191.2770465,12182,368,1,14,8,1.192958341617778
undo,33,42,1,0,0,23,"[0, 3, 23]",3,15,"[1, 2, 4, 5, 6, 7, 8, 9, 11, 15, 17, 22, 24, 25, 29]",202.4573864,12531,349,1,24,8,1.2042297975308642
undo,33,42,1,0,0,3,"[0, 3]",2,25,"[1, 2, 4, 5, 6, 7, 8, 9, 10, 11, 13, 15, 17, 18, 19, 20, 21, 22, 23, 24, 25, 26, 27, 28, 29]",255.7959278,12964,433,3,45,9,1.0
undo,33,42,1,0,0,0,[0],1,29,"[1, 2, 3, 4, 5, 6, 7, 8, 9, 10, 11, 12, 13, 14, 15, 16, 17, 18, 19, 20, 21, 22, 23, 24, 25, 26, 27, 28, 29]",300,13430,466,16,302,9,0.0
undo,33,42,0,0,0,5,"[0, 5]",2,28,"[1, 2, 3, 4, 6, 7, 8, 9, 10, 11, 12, 13, 14, 15, 16, 17, 18, 19, 20, 21, 22, 23, 24, 25, 26, 27, 28, 29]",191.2939744,14447,1017,1,22,9,1.0
undo,33,42,0,0,0,4,"[0, 5, 4]",3,23,"[1, 2, 3, 6, 7, 8, 9, 10, 11, 13, 15, 17, 18, 19, 20, 21, 22, 23, 24, 25, 26, 27, 29]",171.4445412,15127,680,1,14,9,1.420957801478707
undo,33,42,0,0,0,22,"[0, 5, 4, 22]",4,20,"[1, 2, 3, 6, 7, 8, 9, 11, 15, 17, 18, 19, 20, 21, 23, 24, 25, 26, 27, 29]",160.2642013,15793,666,1,11,9,1.5771494659680896
undo,33,42,0,0,0,8,"[0, 5, 4, 22, 8]",5,14,"[1, 2, 3, 6, 7, 11, 15, 18, 19, 24, 25, 26, 27, 29]",138.1282577,16526,733,1,10,9,1.5055393955524201
undo,33,42,0,0,0,1,"[0, 5, 4, 22, 8, 1]",6,5,"[2, 7, 19, 26, 27]",89.03650682,17387,861,1,7,9,1.3547259083637835
undo,33,42,0,0,0,7,"[0, 5, 4, 22, 8, 1, 7]",7,4,"[2, 19, 26, 27]",59.03650682,18288,901,1,3,9,1.3909715672447451
undo,33,42,0,0,0,26,"[0, 5, 4, 22, 8, 1, 7, 26]",8,1,[27],32.46584631,19237,949,1,0,9,1.3511825943939393
undo,33,42,0,0,1,27,"[0, 5, 4, 22, 8, 1, 7, 26, 27]",9,0,[],14.43808994,20069,832,1,0,9,1.3391911688802078
undo,33,42,0,1,1,27,"[0, 5, 4, 22, 8, 1, 7, 26, 27]",9,0,[],14.43808994,20914,845,1,0,9,1.3391911688802078
undo,34,36,0,0,0,0,[0],1,24,"[2, 4, 5, 6, 7, 8, 9, 10, 12, 13, 14, 15, 16, 17, 18, 19, 20, 22, 23, 25, 26, 27, 28, 29]",300,148,-1,2,200,10,0.0
undo,34,36,0,0,0,16,"[0, 16]",2,12,"[2, 8, 9, 10, 12, 13, 17, 18, 19, 23, 25, 27]",193.262003,2352,2204,20,112,8,1.0
undo,34,36,0,0,0,17,"[0, 16, 17]",3,10,"[2, 9, 10, 12, 13, 18, 19, 23, 25, 27]",164.9423985,3535,1183,14,64,8,1.4289609665642613
undo,34,36,0,0,0,9,"[0, 16, 17, 9]",4,8,"[2, 10, 12, 13, 18, 19, 23, 25]",138.693589,4247,712,6,21,8,2.335567583937715
undo,34,36,0,0,0,19,"[0, 16, 17, 9, 19]",5,6,"[2, 10, 12, 13, 18, 25]",123.5608431,4902,655,6,5,8,2.2891022786553017
undo,34,36,0,0,0,2,"[0, 16, 17, 9, 19, 2]",6,3,"[10, 13, 25]",86.43942067,5752,850,2,1,8,1.891101810711848
undo,34,36,0,0,0,13,"[0, 16, 17, 9, 19, 2, 13]",7,1,[25],48.11188487,6602,850,1,0,8,2.5681485468736347
undo,34,36,0,0,1,25,"[0, 16, 17, 9, 19, 2, 13, 25]",8,0,[],27.52062459,7352,750,1,0,8,2.37993676918413
undo,34,36,1,0,0,13,"[0, 16, 17, 9, 19, 2, 13]",7,1,[25],48.11188487,8881,1529,1,0,8,2.5681485468736347
undo,34,36,1,0,0,2,"[0, 16, 17, 9, 19, 2]",6,3,"[10, 13, 25]",86.43942067,9265,384,2,1,8,1.891101810711848
undo,34,36,1,0,0,19,"[0, 16, 17, 9, 19]",5,6,"[2, 10, 12, 13, 18, 25]",123.5608431,9681,416,6,5,8,2.2891022786553017
undo,34,36,1,0,0,9,"[0, 16, 17, 9]",4,8,"[2, 10, 12, 13, 18, 19, 23, 25]",138.693589,10064,383,6,21,8,2.335567583937715
undo,34,36,1,0,0,17,"[0, 16, 17]",3,10,"[2, 9, 10, 12, 13, 18, 19, 23, 25, 27]",164.9423985,10448,384,14,64,8,1.4289609665642613
undo,34,36,1,0,0,16,"[0, 16]",2,12,"[2, 8, 9, 10, 12, 13, 17, 18, 19, 23, 25, 27]",193.262003,10815,367,20,112,8,1.0
undo,34,36,1,0,0,0,[0],1,24,"[2, 4, 5, 6, 7, 8, 9, 10, 12, 13, 14, 15, 16, 17, 18, 19, 20, 22, 23, 25, 26, 27, 28, 29]",300,11231,416,2,200,10,0.0
undo,34,36,0,0,0,12,"[0, 12]",2,23,"[2, 4, 5, 6, 7, 8, 9, 10, 13, 14, 15, 16, 17, 18, 19, 20, 22, 23, 25, 26, 27, 28, 29]",277.7963967,12930,1699,90,804,9,1.0
undo,34,36,0,0,0,16,"[0, 12, 16]",3,10,"[2, 9, 10, 13, 17, 18, 19, 23, 25, 27]",171.6267212,13852,922,4,38,9,1.202695220335868
undo,34,36,0,0,0,17,"[0, 12, 16, 17]",4,7,"[2, 9, 10, 13, 18, 19, 25]",143.3071167,14607,755,4,23,9,1.6578705047868705
undo,34,36,0,0,0,9,"[0, 12, 16, 17, 9]",5,5,"[2, 13, 18, 19, 25]",117.0583072,15254,647,3,6,9,2.6488264465469484
undo,34,36,0,0,0,19,"[0, 12, 16, 17, 9, 19]",6,4,"[2, 13, 18, 25]",101.9255612,15998,744,3,3,9,2.5697960541572393
undo,34,36,0,0,0,2,"[0, 12, 16, 17, 9, 19, 2]",7,2,"[13, 25]",64.80413882,16757,759,2,0,9,2.082684549483941
undo,34,36,0,0,0,13,"[0, 12, 16, 17, 9, 19, 2, 13]",8,1,[25],26.47660302,17572,815,1,0,9,2.7887330616118673
undo,34,36,0,0,1,25,"[0, 12, 16, 17, 9, 19, 2, 13, 25]",9,0,[],5.885342743,18313,741,1,0,9,2.568907412198337
undo,34,36,0,1,1,25,"[0, 12, 16, 17, 9, 19, 2, 13, 25]",9,0,[],5.885342743,18982,669,1,0,9,2.568907412198337
undo,35,8,0,0,0,0,[0],1,29,"[1, 2, 3, 4, 5, 6, 7, 8, 9, 10, 11, 12, 13, 14, 15, 16, 17, 18, 19, 20, 21, 22, 23, 24, 25, 26, 27, 28, 29]",300,133,-1,10,149,9,0.0
undo,35,8,0,0,0,5,"[0, 5]",2,28,"[1, 2, 3, 4, 6, 7, 8, 9, 10, 11, 12, 13, 14, 15, 16, 17, 18, 19, 20, 21, 22, 23, 24, 25, 26, 27, 28, 29]",254.5137383,3876,3743,10,100,9,1.0
undo,35,8,0,0,0,25,"[0, 5, 25]",3,20,"[1, 2, 3, 4, 6, 11, 12, 14, 15, 16, 17, 18, 19, 20, 21, 22, 23, 24, 28, 29]",215.3091468,4643,767,4,42,9,1.2272747879909065
undo,35,8,0,0,0,1,"[0, 5, 25, 1]",4,17,"[3, 4, 6, 11, 12, 14, 15, 16, 17, 18, 20, 21, 22, 23, 24, 28, 29]",190.3091468,5388,745,3,24,9,1.1770245007593956
undo,35,8,0,0,0,23,"[0, 5, 25, 1, 23]",5,15,"[3, 4, 6, 11, 14, 15, 16, 17, 18, 20, 21, 22, 24, 28, 29]",167.2874179,6160,772,1,14,9,1.141996583852372
undo,35,8,0,0,0,18,"[0, 5, 25, 1, 23, 18]",6,9,"[3, 4, 11, 14, 15, 16, 17, 24, 28]",125.5261919,7022,862,1,7,9,1.3199166330970717
undo,35,8,0,0,0,14,"[0, 5, 25, 1, 23, 18, 14]",7,2,"[11, 17]",68.03706246,8359,1337,1,1,9,2.714920831666598
undo,35,8,0,0,0,17,"[0, 5, 25, 1, 23, 18, 14, 17]",8,1,[11],31.02355141,9314,955,1,0,9,2.462600896722246
undo,35,8,0,0,1,11,"[0, 5, 25, 1, 23, 18, 14, 17, 11]",9,0,[],5.84419479,10144,830,1,0,9,2.246839316887767
undo,35,8,0,1,1,11,"[0, 5, 25, 1, 23, 18, 14, 17, 11]",9,0,[],5.84419479,10983,839,1,0,9,2.246839316887767
undo,36,6,0,0,0,0,[0],1,29,"[1, 2, 3, 4, 5, 6, 7, 8, 9, 10, 11, 12, 13, 14, 15, 16, 17, 18, 19, 20, 21, 22, 23, 24, 25, 26, 27, 28, 29]",300,131,-1,180,4304,10,0.0
undo,36,6,0,0,0,3,"[0, 3]",2,28,"[1, 2, 4, 5, 6, 7, 8, 9, 10, 11, 12, 13, 14, 15, 16, 17, 18, 19, 20, 21, 22, 23, 24, 25, 26, 27, 28, 29]",266.4738908,1792,1661,90,1607,10,1.0
undo,36,6,1,0,0,0,[0],1,29,"[1, 2, 3, 4, 5, 6, 7, 8, 9, 10, 11, 12, 13, 14, 15, 16, 17, 18, 19, 20, 21, 22, 23, 24, 25, 26, 27, 28, 29]",300,3913,2121,180,4304,10,0.0
undo,36,6,0,0,0,3,"[0, 3]",2,28,"[1, 2, 4, 5, 6, 7, 8, 9, 10, 11, 12, 13, 14, 15, 16, 17, 18, 19, 20, 21, 22, 23, 24, 25, 26, 27, 28, 29]",266.4738908,8067,4154,90,1607,10,1.0
undo,36,6,0,0,0,16,"[0, 3, 16]",3,27,"[1, 2, 4, 5, 6, 7, 8, 9, 10, 11, 12, 13, 14, 15, 17, 18, 19, 20, 21, 22, 23, 24, 25, 26, 27, 28, 29]",220.2353787,8801,734,16,190,10,1.1050742161728249
undo,36,6,0,0,0,18,"[0, 3, 16, 18]",4,24,"[1, 2, 4, 5, 6, 7, 8, 9, 10, 11, 12, 13, 14, 15, 17, 19, 20, 21, 22, 23, 24, 26, 27, 29]",196.8901436,9734,933,10,97,10,1.6930577237270534
undo,36,6,0,0,0,17,"[0, 3, 16, 18, 17]",5,20,"[1, 2, 4, 5, 6, 7, 8, 9, 10, 11, 13, 14, 20, 21, 22, 23, 24, 26, 27, 29]",182.9617553,10421,687,8,58,10,1.6583245453234965
undo,36,6,0,0,0,10,"[0, 3, 16, 18, 17, 10]",6,17,"[1, 2, 4, 5, 6, 7, 8, 11, 13, 14, 21, 22, 23, 24, 26, 27, 29]",163.2386724,11938,1517,6,33,10,1.6214605156931816
undo,36,6,0,0,0,24,"[0, 3, 16, 18, 17, 10, 24]",7,15,"[1, 2, 4, 5, 6, 7, 8, 11, 13, 14, 22, 23, 26, 27, 29]",149.8222646,12658,720,6,18,10,1.5435556829623227
undo,36,6,0,0,0,23,"[0, 3, 16, 18, 17, 10, 24, 23]",8,6,"[6, 11, 14, 22, 27, 29]",88.6340304,13724,1066,3,4,10,1.5749914836315253
undo,36,6,0,0,0,22,"[0, 3, 16, 18, 17, 10, 24, 23, 22]",9,2,"[14, 27]",47.6340304,14705,981,2,0,10,1.6207636864423158
undo,36,6,0,0,1,14,"[0, 3, 16, 18, 17, 10, 24, 23, 22, 14]",10,0,[],13.22472933,15589,884,1,0,10,1.7051539946832646
undo,36,6,0,1,1,14,"[0, 3, 16, 18, 17, 10, 24, 23, 22, 14]",10,0,[],13.22472933,16363,774,1,0,10,1.7051539946832646
undo,37,43,0,0,0,0,[0],1,23,"[1, 2, 3, 4, 5, 6, 7, 9, 10, 11, 12, 14, 15, 16, 17, 19, 20, 21, 22, 23, 25, 27, 29]",300,131,-1,16,556,12,0.0
undo,37,43,0,0,0,29,"[0, 29]",2,22,"[1, 2, 3, 4, 5, 6, 7, 9, 10, 11, 12, 14, 15, 16, 17, 19, 20, 21, 22, 23, 25, 27]",277.909278,2944,2813,16,520,12,1.0
undo,37,43,0,0,0,20,"[0, 29, 20]",3,20,"[1, 2, 3, 4, 6, 7, 9, 10, 11, 12, 14, 15, 16, 17, 19, 21, 22, 23, 25, 27]",254.4785289,3633,689,15,422,12,1.082311746871282
undo,37,43,0,0,0,16,"[0, 29, 20, 16]",4,19,"[1, 2, 3, 4, 6, 7, 9, 10, 11, 12, 14, 15, 17, 19, 21, 22, 23, 25, 27]",231.8511119,4857,1224,15,389,12,1.215201926898219
undo,37,43,0,0,0,15,"[0, 29, 20, 16, 15]",5,14,"[1, 2, 3, 4, 6, 7, 9, 11, 12, 14, 19, 22, 23, 25]",188.5267539,5757,900,3,109,12,1.3482474915350444
undo,37,43,0,0,0,25,"[0, 29, 20, 16, 15, 25]",6,12,"[1, 3, 4, 6, 7, 9, 11, 12, 14, 19, 22, 23]",165.8551858,6461,704,2,43,12,1.691408721191545
undo,37,43,0,0,0,12,"[0, 29, 20, 16, 15, 25, 12]",7,11,"[1, 3, 4, 6, 7, 9, 11, 14, 19, 22, 23]",141.6684126,7180,719,2,32,12,1.6015983641428178
undo,37,43,0,0,0,3,"[0, 29, 20, 16, 15, 25, 12, 3]",8,10,"[1, 4, 6, 7, 9, 11, 14, 19, 22, 23]",128.6684126,7924,744,2,24,12,1.5379830456120627
undo,37,43,0,0,0,19,"[0, 29, 20, 16, 15, 25, 12, 3, 19]",9,6,"[1, 4, 6, 7, 11, 22]",87.55880297,8776,852,1,10,12,1.529185197301008
undo,37,43,0,0,0,22,"[0, 29, 20, 16, 15, 25, 12, 3, 19, 22]",10,4,"[1, 6, 7, 11]",66.94327484,9504,728,1,3,12,1.9540492344633407
undo,37,43,0,0,0,11,"[0, 29, 20, 16, 15, 25, 12, 3, 19, 22, 11]",11,1,[6],20.87810362,10460,956,1,0,12,3.067273586593407
undo,37,43,0,0,1,6,"[0, 29, 20, 16, 15, 25, 12, 3, 19, 22, 11, 6]",12,0,[],0.262575489,11286,826,1,0,12,2.717707829732166
undo,37,43,0,1,1,6,"[0, 29, 20, 16, 15, 25, 12, 3, 19, 22, 11, 6]",12,0,[],0.262575489,12164,878,1,0,12,2.717707829732166
undo,38,23,0,0,0,0,[0],1,28,"[1, 2, 3, 4, 5, 6, 7, 8, 9, 10, 11, 12, 13, 14, 15, 16, 17, 18, 19, 20, 21, 22, 23, 25, 26, 27, 28, 29]",300,132,-1,76,2626,10,0.0
undo,38,23,0,0,0,18,"[0, 18]",2,14,"[2, 5, 6, 7, 9, 10, 12, 13, 14, 19, 21, 22, 27, 29]",203.8958898,4039,3907,73,787,9,1.0
undo,38,23,0,0,0,27,"[0, 18, 27]",3,9,"[2, 6, 7, 9, 12, 13, 14, 22, 29]",128.5832083,4908,869,51,277,9,1.1972268052690318
undo,38,23,0,0,0,6,"[0, 18, 27, 6]",4,8,"[2, 7, 9, 12, 13, 14, 22, 29]",100.2812649,5747,839,43,68,9,1.3293035545030156
undo,38,23,0,0,0,2,"[0, 18, 27, 6, 2]",5,6,"[9, 12, 13, 14, 22, 29]",81.84217594,7210,1463,16,17,9,1.5987085337271232
undo,38,23,0,0,0,12,"[0, 18, 27, 6, 2, 12]",6,5,"[9, 13, 14, 22, 29]",67.94973195,8002,792,4,5,9,1.8929166061978238
undo,38,23,0,0,0,13,"[0, 18, 27, 6, 2, 12, 13]",7,3,"[9, 14, 22]",55.86668598,8725,723,2,1,9,2.205763785795194
undo,38,23,0,0,0,9,"[0, 18, 27, 6, 2, 12, 13, 9]",8,1,[14],31.84586168,9637,912,1,0,9,2.0524872333624122
undo,38,23,0,0,1,14,"[0, 18, 27, 6, 2, 12, 13, 9, 14]",9,0,[],21.40555517,10314,677,1,0,9,1.9773893774704039
undo,38,23,1,0,0,9,"[0, 18, 27, 6, 2, 12, 13, 9]",8,1,[14],31.84586168,11215,901,1,0,9,2.0524872333624122
undo,38,23,1,0,0,13,"[0, 18, 27, 6, 2, 12, 13]",7,3,"[9, 14, 22]",55.86668598,12715,1500,2,1,9,2.205763785795194
undo,38,23,1,0,0,12,"[0, 18, 27, 6, 2, 12]",6,5,"[9, 13, 14, 22, 29]",67.94973195,13097,382,4,5,9,1.8929166061978238
undo,38,23,1,0,0,2,"[0, 18, 27, 6, 2]",5,6,"[9, 12, 13, 14, 22, 29]",81.84217594,13447,350,16,17,9,1.5987085337271232
undo,38,23,1,0,0,6,"[0, 18, 27, 6]",4,8,"[2, 7, 9, 12, 13, 14, 22, 29]",100.2812649,13831,384,43,68,9,1.3293035545030156
undo,38,23,1,0,0,27,"[0, 18, 27]",3,9,"[2, 6, 7, 9, 12, 13, 14, 22, 29]",128.5832083,14180,349,51,277,9,1.1972268052690318
undo,38,23,1,0,0,18,"[0, 18]",2,14,"[2, 5, 6, 7, 9, 10, 12, 13, 14, 19, 21, 22, 27, 29]",203.8958898,14580,400,73,787,9,1.0
undo,38,23,1,0,0,0,[0],1,28,"[1, 2, 3, 4, 5, 6, 7, 8, 9, 10, 11, 12, 13, 14, 15, 16, 17, 18, 19, 20, 21, 22, 23, 25, 26, 27, 28, 29]",300,15115,535,76,2626,10,0.0
undo,38,23,0,0,0,27,"[0, 27]",2,11,"[2, 6, 7, 9, 10, 12, 13, 14, 18, 22, 29]",156.8217894,16142,1027,6,455,9,1.0
undo,38,23,0,0,0,13,"[0, 27, 13]",3,9,"[2, 6, 7, 9, 12, 14, 18, 22, 29]",111.7219002,17020,878,87,69,8,1.7011075111328362
undo,38,23,0,0,0,12,"[0, 27, 13, 12]",4,8,"[2, 6, 7, 9, 14, 18, 22, 29]",99.63885426,17714,694,30,13,8,1.6344171596748487
undo,38,23,0,0,0,2,"[0, 27, 13, 12, 2]",5,5,"[6, 9, 14, 22, 29]",85.74641027,18640,926,10,4,8,1.5700974455484809
undo,38,23,0,0,0,6,"[0, 27, 13, 12, 2, 6]",6,2,"[9, 14]",67.30732135,19437,797,2,0,8,1.548774103147587
undo,38,23,0,0,0,14,"[0, 27, 13, 12, 2, 6, 14]",7,1,[9],38.44558198,21224,1787,1,0,8,1.8564437928358446
undo,38,23,0,0,1,9,"[0, 27, 13, 12, 2, 6, 14, 9]",8,0,[],28.00527547,22093,869,1,0,8,2.081883588063625
undo,38,23,1,0,0,14,"[0, 27, 13, 12, 2, 6, 14]",7,1,[9],38.44558198,22932,839,1,0,8,1.8564437928358446
undo,38,23,1,0,0,6,"[0, 27, 13, 12, 2, 6]",6,2,"[9, 14]",67.30732135,23297,365,2,0,8,1.548774103147587
undo,38,23,1,0,0,2,"[0, 27, 13, 12, 2]",5,5,"[6, 9, 14, 22, 29]",85.74641027,23614,317,10,4,8,1.5700974455484809
undo,38,23,1,0,0,12,"[0, 27, 13, 12]",4,8,"[2, 6, 7, 9, 14, 18, 22, 29]",99.63885426,23931,317,30,13,8,1.6344171596748487
undo,38,23,1,0,0,13,"[0, 27, 13]",3,9,"[2, 6, 7, 9, 12, 14, 18, 22, 29]",111.7219002,24297,366,87,69,8,1.7011075111328362
undo,38,23,1,0,0,27,"[0, 27]",2,11,"[2, 6, 7, 9, 10, 12, 13, 14, 18, 22, 29]",156.8217894,24631,334,6,455,9,1.0
undo,38,23,1,0,0,0,[0],1,28,"[1, 2, 3, 4, 5, 6, 7, 8, 9, 10, 11, 12, 13, 14, 15, 16, 17, 18, 19, 20, 21, 22, 23, 25, 26, 27, 28, 29]",300,25131,500,76,2626,10,0.0
undo,38,23,0,0,0,18,"[0, 18]",2,14,"[2, 5, 6, 7, 9, 10, 12, 13, 14, 19, 21, 22, 27, 29]",203.8958898,26072,941,73,787,9,1.0
undo,38,23,0,0,0,27,"[0, 18, 27]",3,9,"[2, 6, 7, 9, 12, 13, 14, 22, 29]",128.5832083,26901,829,51,277,9,1.1972268052690318
undo,38,23,0,0,0,6,"[0, 18, 27, 6]",4,8,"[2, 7, 9, 12, 13, 14, 22, 29]",100.2812649,27660,759,43,68,9,1.3293035545030156
undo,38,23,0,0,0,14,"[0, 18, 27, 6, 14]",5,7,"[2, 7, 9, 12, 13, 22, 29]",71.41952548,28560,900,10,11,9,1.6224034994265621
undo,38,23,0,0,0,9,"[0, 18, 27, 6, 14, 9]",6,5,"[2, 12, 13, 22, 29]",60.97921897,29224,664,5,1,9,1.8294966642914483
undo,38,23,0,0,0,2,"[0, 18, 27, 6, 14, 9, 2]",7,2,"[12, 13]",47.94081416,29801,577,2,0,9,1.8471451718178584
undo,38,23,0,0,0,12,"[0, 18, 27, 6, 14, 9, 2, 12]",8,1,[13],34.04837017,30443,642,1,0,9,2.169462077251772
undo,38,23,0,0,1,13,"[0, 18, 27, 6, 14, 9, 2, 12, 13]",9,0,[],21.96532419,31090,647,1,0,9,2.512065268760345
undo,38,23,0,1,1,13,"[0, 18, 27, 6, 14, 9, 2, 12, 13]",9,0,[],21.96532419,32014,924,1,0,9,2.512065268760345
undo,39,15,0,0,0,0,[0],1,25,"[1, 2, 3, 4, 7, 8, 9, 10, 11, 12, 13, 14, 15, 16, 18, 20, 21, 22, 23, 24, 25, 26, 27, 28, 29]",300,129,-1,4,65,9,0.0
undo,39,15,0,0,0,7,"[0, 7]",2,23,"[1, 3, 4, 8, 9, 10, 11, 12, 13, 14, 15, 16, 18, 20, 21, 22, 23, 24, 25, 26, 27, 28, 29]",215.1884442,2601,2472,30,107,8,1.0
undo,39,15,0,0,0,11,"[0, 7, 11]",3,18,"[3, 4, 8, 9, 10, 12, 13, 14, 15, 16, 18, 20, 21, 22, 23, 25, 27, 29]",173.7035072,3521,920,12,34,8,1.0171318876095128
undo,39,15,0,0,0,3,"[0, 7, 11, 3]",4,13,"[4, 10, 12, 13, 14, 15, 16, 18, 20, 21, 22, 25, 27]",162.3017529,4783,1262,7,21,8,1.0401878806820521
undo,39,15,0,0,0,16,"[0, 7, 11, 3, 16]",5,9,"[4, 10, 12, 13, 14, 15, 18, 21, 22]",137.2218805,5529,746,5,6,8,1.4258499651326737
undo,39,15,0,0,0,22,"[0, 7, 11, 3, 16, 22]",6,4,"[4, 13, 14, 15]",78.36612462,6526,997,2,2,8,1.284645195326425
undo,39,15,0,0,0,13,"[0, 7, 11, 3, 16, 22, 13]",7,1,[15],50.20586894,7259,733,1,0,8,1.2468528041787974
undo,39,15,0,0,1,15,"[0, 7, 11, 3, 16, 22, 13, 15]",8,0,[],34.94153142,8170,911,1,0,8,1.349724143762162
undo,39,15,0,1,1,15,"[0, 7, 11, 3, 16, 22, 13, 15]",8,0,[],34.94153142,10730,2560,1,0,8,1.349724143762162
undo,40,13,0,0,0,0,[0],1,29,"[1, 2, 3, 4, 5, 6, 7, 8, 9, 10, 11, 12, 13, 14, 15, 16, 17, 18, 19, 20, 21, 22, 23, 24, 25, 26, 27, 28, 29]",300,130,-1,60,2676,11,0.0
undo,40,13,0,0,0,24,"[0, 24]",2,28,"[1, 2, 3, 4, 5, 6, 7, 8, 9, 10, 11, 12, 13, 14, 15, 16, 17, 18, 19, 20, 21, 22, 23, 25, 26, 27, 28, 29]",288.8196601,2444,2314,16,1444,11,1.0
undo,40,13,0,0,0,28,"[0, 24, 28]",3,23,"[1, 2, 3, 4, 6, 7, 8, 9, 10, 11, 12, 13, 15, 16, 17, 19, 20, 21, 22, 23, 26, 27, 29]",222.5324064,3370,926,8,243,11,1.0513810491680837
undo,40,13,0,0,0,2,"[0, 24, 28, 2]",4,19,"[1, 3, 4, 6, 7, 9, 11, 12, 13, 15, 16, 17, 19, 20, 21, 23, 26, 27, 29]",184.889346,4239,869,7,110,11,1.050374132001543
undo,40,13,0,0,0,29,"[0, 24, 28, 2, 29]",5,18,"[1, 3, 4, 6, 7, 9, 11, 12, 13, 15, 16, 17, 19, 20, 21, 23, 26, 27]",173.1846461,4888,649,7,85,11,1.1393409619120594
undo,40,13,0,0,0,7,"[0, 24, 28, 2, 29, 7]",6,17,"[1, 3, 4, 6, 9, 11, 12, 13, 15, 16, 17, 19, 20, 21, 23, 26, 27]",157.9203086,5725,837,5,45,11,1.349777315111579
undo,40,13,0,0,0,26,"[0, 24, 28, 2, 29, 7, 26]",7,16,"[1, 3, 4, 6, 9, 11, 12, 13, 15, 16, 17, 19, 20, 21, 23, 27]",147.480002,6373,648,5,25,11,1.5942082773824946
undo,40,13,0,0,0,6,"[0, 24, 28, 2, 29, 7, 26, 6]",8,12,"[1, 3, 4, 11, 13, 15, 16, 17, 19, 20, 23, 27]",127.3802508,7210,837,4,12,11,1.5898347940840756
undo,40,13,0,0,0,16,"[0, 24, 28, 2, 29, 7, 26, 6, 16]",9,3,"[3, 20, 23]",53.82754861,9384,2174,1,2,11,2.6743660300373904
undo,40,13,0,0,0,3,"[0, 24, 28, 2, 29, 7, 26, 6, 16, 3]",10,1,[20],25.3846233,10169,785,1,0,11,2.696717621944423
undo,40,13,0,0,1,20,"[0, 24, 28, 2, 29, 7, 26, 6, 16, 3, 20]",11,0,[],6.358325711,11093,924,1,0,11,2.6690286409584245
undo,40,13,0,1,1,20,"[0, 24, 28, 2, 29, 7, 26, 6, 16, 3, 20]",11,0,[],6.358325711,11780,687,1,0,11,2.6690286409584245
undo,41,10,0,0,0,0,[0],1,29,"[1, 2, 3, 4, 5, 6, 7, 8, 9, 10, 11, 12, 13, 14, 15, 16, 17, 18, 19, 20, 21, 22, 23, 24, 25, 26, 27, 28, 29]",300,131,-1,1,100,9,0.0
undo,41,10,0,0,0,13,"[0, 13]",2,25,"[1, 2, 3, 4, 6, 7, 8, 9, 10, 11, 12, 14, 17, 18, 19, 20, 21, 22, 23, 24, 25, 26, 27, 28, 29]",249.4628849,3348,3217,1,79,9,1.0
undo,41,10,0,0,0,11,"[0, 13, 11]",3,20,"[1, 2, 3, 6, 7, 8, 9, 10, 12, 14, 18, 19, 20, 21, 22, 24, 26, 27, 28, 29]",206.4512586,4169,821,1,54,9,1.0313137484914219
undo,41,10,0,0,0,19,"[0, 13, 11, 19]",4,11,"[2, 6, 8, 9, 10, 14, 18, 20, 24, 26, 27]",170.0919407,4943,774,1,22,9,1.0879446220132545
undo,41,10,0,0,0,2,"[0, 13, 11, 19, 2]",5,4,"[14, 20, 26, 27]",126.1829439,5797,854,1,4,9,1.06474052351343
undo,41,10,0,0,0,14,"[0, 13, 11, 19, 2, 14]",6,3,"[20, 26, 27]",114.0174188,6493,696,1,3,9,1.1628909195912238
undo,41,10,0,0,0,26,"[0, 13, 11, 19, 2, 14, 26]",7,2,"[20, 27]",79.34754716,7354,861,1,1,9,1.6660727647633602
undo,41,10,0,0,0,20,"[0, 13, 11, 19, 2, 14, 26, 20]",8,1,[27],47.56704999,8186,832,1,0,9,2.085581809637999
undo,41,10,0,0,1,27,"[0, 13, 11, 19, 2, 14, 26, 20, 27]",9,0,[],2.312215998,9157,971,1,0,9,1.9116357409137932
undo,41,10,0,1,1,27,"[0, 13, 11, 19, 2, 14, 26, 20, 27]",9,0,[],2.312215998,10032,875,1,0,9,1.9116357409137932
undo,42,16,0,0,0,0,[0],1,29,"[1, 2, 3, 4, 5, 6, 7, 8, 9, 10, 11, 12, 13, 14, 15, 16, 17, 18, 19, 20, 21, 22, 23, 24, 25, 26, 27, 28, 29]",300,130,-1,13,161,9,0.0
undo,42,16,0,0,0,17,"[0, 17]",2,27,"[1, 2, 3, 4, 5, 7, 8, 9, 10, 11, 12, 13, 14, 15, 16, 18, 19, 20, 21, 22, 23, 24, 25, 26, 27, 28, 29]",241.3058776,4083,3953,2,58,9,1.0
undo,42,16,0,0,0,16,"[0, 17, 16]",3,26,"[1, 2, 3, 4, 5, 7, 8, 9, 10, 11, 12, 13, 14, 15, 18, 19, 20, 21, 22, 23, 24, 25, 26, 27, 28, 29]",212.9862731,4852,769,2,52,9,1.0529535521792848
undo,42,16,0,0,0,8,"[0, 17, 16, 8]",4,19,"[2, 3, 4, 5, 9, 12, 13, 14, 15, 19, 20, 21, 22, 23, 25, 26, 27, 28, 29]",164.6127266,5560,708,2,38,9,1.0915134501573105
undo,42,16,0,0,0,20,"[0, 17, 16, 8, 20]",5,10,"[3, 4, 5, 9, 12, 13, 15, 19, 21, 25]",106.8372993,6462,902,1,15,9,1.067523143001942
undo,42,16,0,0,0,25,"[0, 17, 16, 8, 20, 25]",6,7,"[3, 4, 5, 9, 12, 13, 15]",94.18818869,7039,577,1,9,9,1.1170093326933646
undo,42,16,0,0,0,9,"[0, 17, 16, 8, 20, 25, 9]",7,5,"[3, 4, 5, 13, 15]",81.38194021,7702,663,1,4,9,1.1095076562662525
undo,42,16,0,0,0,15,"[0, 17, 16, 8, 20, 25, 9, 15]",8,1,[5],42.48463953,8470,768,1,0,9,1.213831159678775
undo,42,16,0,0,1,5,"[0, 17, 16, 8, 20, 25, 9, 15, 5]",9,0,[],13.0567616,9306,836,1,0,9,1.5171779607523481
undo,42,16,0,1,1,5,"[0, 17, 16, 8, 20, 25, 9, 15, 5]",9,0,[],13.0567616,10396,1090,1,0,9,1.5171779607523481
undo,43,32,0,0,0,0,[0],1,29,"[1, 2, 3, 4, 5, 6, 7, 8, 9, 10, 11, 12, 13, 14, 15, 16, 17, 18, 19, 20, 21, 22, 23, 24, 25, 26, 27, 28, 29]",300,130,-1,17,359,10,0.0
undo,43,32,0,0,0,19,"[0, 19]",2,28,"[1, 2, 3, 4, 5, 6, 7, 8, 9, 10, 11, 12, 13, 14, 15, 16, 17, 18, 20, 21, 22, 23, 24, 25, 26, 27, 28, 29]",283.5075775,1669,1539,16,294,10,1.0
undo,43,32,0,0,0,13,"[0, 19, 13]",3,24,"[2, 3, 4, 5, 6, 8, 9, 10, 11, 12, 14, 15, 16, 17, 18, 20, 21, 22, 23, 24, 25, 26, 27, 28]",260.3127505,2553,884,14,227,10,1.0172874229878615
undo,43,32,0,0,0,15,"[0, 19, 13, 15]",4,18,"[2, 3, 5, 8, 9, 10, 11, 12, 16, 17, 20, 22, 23, 24, 25, 26, 27, 28]",177.4393531,3523,970,9,116,10,1.435447391509833
undo,43,32,0,0,0,28,"[0, 19, 13, 15, 28]",5,17,"[2, 3, 5, 8, 9, 10, 11, 12, 16, 17, 20, 22, 23, 24, 25, 26, 27]",166.0375988,4258,735,9,70,10,1.3843701324937985
undo,43,32,0,0,0,12,"[0, 19, 13, 15, 28, 12]",6,14,"[2, 3, 5, 8, 9, 10, 11, 16, 17, 20, 22, 24, 26, 27]",147.0639329,4977,719,6,35,10,1.358372254952329
undo,43,32,0,0,0,16,"[0, 19, 13, 15, 28, 12, 16]",7,13,"[2, 3, 5, 8, 9, 10, 11, 17, 20, 22, 24, 26, 27]",131.411457,5681,704,5,15,10,1.4356932930709845
undo,43,32,0,0,0,22,"[0, 19, 13, 15, 28, 12, 16, 22]",8,6,"[2, 8, 9, 17, 20, 27]",97.57360838,6503,822,3,5,10,1.4335226411545752
undo,43,32,0,0,0,9,"[0, 19, 13, 15, 28, 12, 16, 22, 9]",9,3,"[2, 8, 20]",75.37000507,7420,917,3,0,10,1.4837166378374758
undo,43,32,0,0,1,2,"[0, 19, 13, 15, 28, 12, 16, 22, 9, 2]",10,0,[],24.28184597,10289,2869,1,0,10,1.9009621017233784
undo,43,32,0,1,1,2,"[0, 19, 13, 15, 28, 12, 16, 22, 9, 2]",10,0,[],24.28184597,11648,1359,1,0,10,1.9009621017233784
undo,44,14,0,0,0,0,[0],1,29,"[1, 2, 3, 4, 5, 6, 7, 8, 9, 10, 11, 12, 13, 14, 15, 16, 17, 18, 19, 20, 21, 22, 23, 24, 25, 26, 27, 28, 29]",300,132,-1,8,157,10,0.0
undo,44,14,0,0,0,15,"[0, 15]",2,20,"[1, 2, 3, 4, 7, 8, 9, 13, 17, 18, 19, 20, 21, 22, 23, 25, 26, 27, 28, 29]",216.7053423,1658,1526,8,102,10,1.0
undo,44,14,0,0,0,28,"[0, 15, 28]",3,17,"[1, 2, 3, 4, 7, 8, 9, 13, 17, 18, 19, 20, 22, 23, 25, 26, 27]",197.4959696,2321,663,8,48,10,1.0446007867311968
undo,44,14,0,0,0,17,"[0, 15, 28, 17]",4,14,"[1, 2, 3, 4, 7, 8, 13, 18, 19, 20, 22, 23, 25, 26]",184.0423455,3002,681,8,39,10,1.0729463354689972
undo,44,14,0,0,0,18,"[0, 15, 28, 17, 18]",5,9,"[1, 2, 4, 7, 8, 19, 23, 25, 26]",119.412631,4011,1009,8,27,10,1.5035901079219378
undo,44,14,0,0,0,8,"[0, 15, 28, 17, 18, 8]",6,8,"[1, 2, 4, 7, 19, 23, 25, 26]",105.8111605,4644,633,8,18,10,1.4819689987843856
undo,44,14,0,0,0,1,"[0, 15, 28, 17, 18, 8, 1]",7,5,"[7, 19, 23, 25, 26]",82.21031307,5752,1108,4,6,10,1.4084991998385268
undo,44,14,0,0,0,19,"[0, 15, 28, 17, 18, 8, 1, 19]",8,4,"[7, 23, 25, 26]",66.97876686,6430,678,4,1,10,1.5758713333797987
undo,44,14,0,0,0,25,"[0, 15, 28, 17, 18, 8, 1, 19, 25]",9,2,"[7, 23]",31.1318702,9137,2707,2,0,10,1.6426186864061416
undo,44,14,1,0,0,19,"[0, 15, 28, 17, 18, 8, 1, 19]",8,4,"[7, 23, 25, 26]",66.97876686,10448,1311,4,1,10,1.5758713333797987
undo,44,14,0,0,0,23,"[0, 15, 28, 17, 18, 8, 1, 19, 23]",9,1,[26],22.70687962,11108,660,1,0,10,1.4751929839361517
undo,44,14,0,0,1,26,"[0, 15, 28, 17, 18, 8, 1, 19, 23, 26]",10,0,[],11.89022579,11819,711,1,0,10,1.4521765305442214
undo,44,14,0,1,1,26,"[0, 15, 28, 17, 18, 8, 1, 19, 23, 26]",10,0,[],11.89022579,13182,1363,1,0,10,1.4521765305442214
undo,45,44,0,0,0,0,[0],1,29,"[1, 2, 3, 4, 5, 6, 7, 8, 9, 10, 11, 12, 13, 14, 15, 16, 17, 18, 19, 20, 21, 22, 23, 24, 25, 26, 27, 28, 29]",300,131,-1,13,126,7,0.0
undo,45,44,0,0,0,8,"[0, 8]",2,17,"[1, 4, 5, 7, 9, 10, 11, 12, 13, 14, 15, 20, 21, 23, 24, 25, 27]",145.7923478,2546,2415,1,10,7,1.0
undo,45,44,0,0,0,20,"[0, 8, 20]",3,16,"[1, 4, 5, 7, 9, 10, 11, 12, 13, 14, 15, 21, 23, 24, 25, 27]",133.7093018,3146,600,1,9,7,1.0890794433668698
undo,45,44,0,0,0,9,"[0, 8, 20, 9]",4,7,"[4, 7, 11, 12, 14, 23, 24]",76.43801756,3928,782,1,6,7,1.40892325509949
undo,45,44,0,0,0,4,"[0, 8, 20, 9, 4]",5,4,"[7, 12, 23, 24]",56.74030196,5430,1502,1,3,7,1.3849770570803555
undo,45,44,0,0,0,7,"[0, 8, 20, 9, 4, 7]",6,1,[23],25.72417712,6062,632,1,0,7,1.3274380931474288
undo,45,44,0,0,1,23,"[0, 8, 20, 9, 4, 7, 23]",7,0,[],6.619203947,6688,626,1,0,7,1.3395824779823196
undo,45,44,1,0,0,7,"[0, 8, 20, 9, 4, 7]",6,1,[23],25.72417712,7697,1009,1,0,7,1.3274380931474288
undo,45,44,1,0,0,4,"[0, 8, 20, 9, 4]",5,4,"[7, 12, 23, 24]",56.74030196,8114,417,1,3,7,1.3849770570803555
undo,45,44,1,0,0,9,"[0, 8, 20, 9]",4,7,"[4, 7, 11, 12, 14, 23, 24]",76.43801756,8513,399,1,6,7,1.40892325509949
undo,45,44,1,0,0,20,"[0, 8, 20]",3,16,"[1, 4, 5, 7, 9, 10, 11, 12, 13, 14, 15, 21, 23, 24, 25, 27]",133.7093018,8896,383,1,9,7,1.0890794433668698
undo,45,44,1,0,0,8,"[0, 8]",2,17,"[1, 4, 5, 7, 9, 10, 11, 12, 13, 14, 15, 20, 21, 23, 24, 25, 27]",145.7923478,9263,367,1,10,7,1.0
undo,45,44,1,0,0,0,[0],1,29,"[1, 2, 3, 4, 5, 6, 7, 8, 9, 10, 11, 12, 13, 14, 15, 16, 17, 18, 19, 20, 21, 22, 23, 24, 25, 26, 27, 28, 29]",300,9713,450,13,126,7,0.0
undo,45,44,0,0,0,9,"[0, 9]",2,17,"[2, 4, 5, 7, 8, 10, 11, 12, 13, 14, 20, 22, 23, 24, 25, 26, 28]",141.32423,11953,2240,3,26,7,1.0
undo,45,44,0,0,0,4,"[0, 9, 4]",3,15,"[2, 5, 7, 8, 10, 11, 12, 14, 20, 22, 23, 24, 25, 26, 28]",121.6265143,12727,774,3,21,7,1.0155532843148096
undo,45,44,0,0,0,7,"[0, 9, 4, 7]",4,10,"[2, 5, 11, 12, 14, 23, 24, 25, 26, 28]",90.61038951,13557,830,3,9,7,1.0134022837125412
undo,45,44,0,0,0,23,"[0, 9, 4, 7, 23]",5,7,"[5, 12, 14, 24, 25, 26, 28]",71.50541634,14238,681,3,4,7,1.043310757564056
undo,45,44,0,0,0,28,"[0, 9, 4, 7, 23, 28]",6,1,[26],19.5342705,15100,862,1,0,7,1.0580072524850708
undo,45,44,0,0,1,26,"[0, 9, 4, 7, 23, 28, 26]",7,0,[],6.534270496,15943,843,1,0,7,1.055488728885845
undo,45,44,0,1,1,26,"[0, 9, 4, 7, 23, 28, 26]",7,0,[],6.534270496,16713,770,1,0,7,1.055488728885845
undo,46,40,0,0,0,0,[0],1,29,"[1, 2, 3, 4, 5, 6, 7, 8, 9, 10, 11, 12, 13, 14, 15, 16, 17, 18, 19, 20, 21, 22, 23, 24, 25, 26, 27, 28, 29]",300,133,-1,8,191,9,0.0
undo,46,40,0,0,0,1,"[0, 1]",2,18,"[2, 5, 6, 7, 8, 9, 10, 11, 13, 15, 17, 18, 19, 21, 22, 23, 27, 29]",247.8463808,2599,2466,4,80,9,1.0
undo,46,40,0,0,0,6,"[0, 1, 6]",3,17,"[2, 5, 7, 8, 9, 10, 11, 13, 15, 17, 18, 19, 21, 22, 23, 27, 29]",227.7466295,3295,696,4,74,9,1.0459427008232034
undo,46,40,0,0,0,9,"[0, 1, 6, 9]",4,10,"[2, 5, 8, 11, 18, 19, 21, 22, 23, 27]",159.146338,5043,1748,17,39,8,1.142098432552584
undo,46,40,0,0,0,18,"[0, 1, 6, 9, 18]",5,9,"[2, 5, 8, 11, 19, 21, 22, 23, 27]",142.5933926,5729,686,13,14,8,1.3288108654802917
undo,46,40,0,0,0,5,"[0, 1, 6, 9, 18, 5]",6,7,"[2, 8, 19, 21, 22, 23, 27]",111.0180858,6614,885,5,5,8,1.5366414787972102
undo,46,40,0,0,0,23,"[0, 1, 6, 9, 18, 5, 23]",7,3,"[2, 19, 21]",82.71614241,7555,941,3,0,8,2.2908821040631264
undo,46,40,0,0,1,19,"[0, 1, 6, 9, 18, 5, 23, 19]",8,0,[],50.76305179,8389,834,1,0,8,2.4294131203959415
undo,46,40,1,0,0,23,"[0, 1, 6, 9, 18, 5, 23]",7,3,"[2, 19, 21]",82.71614241,9766,1377,3,0,8,2.2908821040631264
undo,46,40,1,0,0,5,"[0, 1, 6, 9, 18, 5]",6,7,"[2, 8, 19, 21, 22, 23, 27]",111.0180858,11383,1617,5,5,8,1.5366414787972102
undo,46,40,1,0,0,18,"[0, 1, 6, 9, 18]",5,9,"[2, 5, 8, 11, 19, 21, 22, 23, 27]",142.5933926,11833,450,13,14,8,1.3288108654802917
undo,46,40,1,0,0,9,"[0, 1, 6, 9]",4,10,"[2, 5, 8, 11, 18, 19, 21, 22, 23, 27]",159.146338,12249,416,17,39,8,1.142098432552584
undo,46,40,1,0,0,6,"[0, 1, 6]",3,17,"[2, 5, 7, 8, 9, 10, 11, 13, 15, 17, 18, 19, 21, 22, 23, 27, 29]",227.7466295,12749,500,4,74,9,1.0459427008232034
undo,46,40,0,0,0,21,"[0, 1, 6, 21]",4,8,"[2, 5, 9, 17, 18, 19, 22, 23]",175.7754837,14190,1441,4,25,9,1.0308822257404064
undo,46,40,0,0,0,9,"[0, 1, 6, 21, 9]",5,6,"[2, 5, 18, 19, 22, 23]",130.0699041,15026,836,4,12,9,1.377861912961129
undo,46,40,0,0,0,18,"[0, 1, 6, 21, 9, 18]",6,5,"[2, 5, 19, 22, 23]",113.5169588,15682,656,4,4,9,1.5742712168661408
undo,46,40,0,0,0,5,"[0, 1, 6, 21, 9, 18, 5]",7,3,"[19, 22, 23]",81.94165198,16465,783,2,1,9,1.7730665063055515
undo,46,40,0,0,0,23,"[0, 1, 6, 21, 9, 18, 5, 23]",8,1,[19],53.63970859,17358,893,1,0,9,2.597442759912231
undo,46,40,0,0,1,19,"[0, 1, 6, 21, 9, 18, 5, 23, 19]",9,0,[],21.68661797,18308,950,1,0,9,2.7128328554069565
undo,46,40,0,1,1,19,"[0, 1, 6, 21, 9, 18, 5, 23, 19]",9,0,[],21.68661797,19217,909,1,0,9,2.7128328554069565
undo,47,22,0,0,0,0,[0],1,29,"[1, 2, 3, 4, 5, 6, 7, 8, 9, 10, 11, 12, 13, 14, 15, 16, 17, 18, 19, 20, 21, 22, 23, 24, 25, 26, 27, 28, 29]",300,129,-1,31,704,9,0.0
undo,47,22,0,0,0,29,"[0, 29]",2,22,"[1, 3, 5, 6, 7, 8, 9, 11, 13, 14, 15, 16, 17, 19, 20, 21, 22, 23, 24, 25, 27, 28]",222.9935068,2041,1912,11,235,9,1.0
undo,47,22,0,0,0,19,"[0, 29, 19]",3,18,"[1, 3, 6, 7, 8, 9, 13, 14, 15, 16, 17, 20, 21, 22, 23, 24, 25, 28]",207.9602104,2641,600,11,172,9,1.1559285443414686
undo,47,22,0,0,0,9,"[0, 29, 19, 9]",4,16,"[1, 3, 6, 7, 8, 13, 14, 15, 16, 17, 20, 21, 22, 24, 25, 28]",187.5641323,3384,743,7,84,9,1.2555028175473422
undo,47,22,0,0,0,14,"[0, 29, 19, 9, 14]",5,11,"[1, 3, 6, 7, 13, 16, 17, 20, 21, 24, 28]",144.5176458,4220,836,4,28,9,1.200251311198461
undo,47,22,0,0,0,7,"[0, 29, 19, 9, 14, 7]",6,10,"[1, 3, 6, 13, 16, 17, 20, 21, 24, 28]",131.479241,4902,682,4,18,9,1.3399585036197592
undo,47,22,0,0,0,17,"[0, 29, 19, 9, 14, 7, 17]",7,5,"[1, 3, 20, 21, 24]",89.86193693,5789,887,3,3,9,1.3297480627305363
undo,47,22,0,0,0,21,"[0, 29, 19, 9, 14, 7, 17, 21]",8,2,"[3, 24]",38.51020862,6656,867,2,0,9,1.621067475944888
undo,47,22,0,0,1,24,"[0, 29, 19, 9, 14, 7, 17, 21, 24]",9,0,[],11.30726761,7478,822,1,0,9,2.1522669154716283
undo,47,22,1,0,0,21,"[0, 29, 19, 9, 14, 7, 17, 21]",8,2,"[3, 24]",38.51020862,10346,2868,2,0,9,1.621067475944888
undo,47,22,1,0,0,17,"[0, 29, 19, 9, 14, 7, 17]",7,5,"[1, 3, 20, 21, 24]",89.86193693,10747,401,3,3,9,1.3297480627305363
undo,47,22,1,0,0,7,"[0, 29, 19, 9, 14, 7]",6,10,"[1, 3, 6, 13, 16, 17, 20, 21, 24, 28]",131.479241,11129,382,4,18,9,1.3399585036197592
undo,47,22,1,0,0,14,"[0, 29, 19, 9, 14]",5,11,"[1, 3, 6, 7, 13, 16, 17, 20, 21, 24, 28]",144.5176458,11496,367,4,28,9,1.200251311198461
undo,47,22,1,0,0,9,"[0, 29, 19, 9]",4,16,"[1, 3, 6, 7, 8, 13, 14, 15, 16, 17, 20, 21, 22, 24, 25, 28]",187.5641323,11912,416,7,84,9,1.2555028175473422
undo,47,22,0,0,0,6,"[0, 29, 19, 9, 6]",5,13,"[3, 7, 13, 14, 15, 16, 17, 20, 21, 22, 24, 25, 28]",160.9370784,13330,1418,17,16,8,1.5692551066355458
undo,47,22,0,0,0,28,"[0, 29, 19, 9, 6, 28]",6,5,"[7, 14, 16, 17, 22]",130.9370784,14001,671,5,2,8,1.5285578577513508
undo,47,22,0,0,0,14,"[0, 29, 19, 9, 6, 28, 14]",7,2,"[7, 17]",51.6906274,14911,910,2,0,8,1.9168326308119228
undo,47,22,0,0,1,7,"[0, 29, 19, 9, 6, 28, 14, 7]",8,0,[],38.65222259,15616,705,1,0,8,2.0780536405170924
undo,47,22,1,0,0,14,"[0, 29, 19, 9, 6, 28, 14]",7,2,"[7, 17]",51.6906274,17813,2197,2,0,8,1.9168326308119228
undo,47,22,1,0,0,28,"[0, 29, 19, 9, 6, 28]",6,5,"[7, 14, 16, 17, 22]",130.9370784,18129,316,5,2,8,1.5285578577513508
undo,47,22,1,0,0,6,"[0, 29, 19, 9, 6]",5,13,"[3, 7, 13, 14, 15, 16, 17, 20, 21, 22, 24, 25, 28]",160.9370784,18479,350,17,16,8,1.5692551066355458
undo,47,22,0,0,0,14,"[0, 29, 19, 9, 6, 14]",6,6,"[7, 16, 17, 21, 24, 28]",98.16765912,19756,1277,4,4,8,1.5580516067557377
undo,47,22,0,0,0,7,"[0, 29, 19, 9, 6, 14, 7]",7,3,"[17, 21, 24]",85.12925431,20427,671,3,0,8,1.708500985723867
undo,47,22,0,0,1,17,"[0, 29, 19, 9, 6, 14, 7, 17]",8,0,[],43.51195021,21194,767,1,0,8,1.6230495434240886
undo,47,22,1,0,0,7,"[0, 29, 19, 9, 6, 14, 7]",7,3,"[17, 21, 24]",85.12925431,22062,868,3,0,8,1.708500985723867
undo,47,22,1,0,0,14,"[0, 29, 19, 9, 6, 14]",6,6,"[7, 16, 17, 21, 24, 28]",98.16765912,22430,368,4,4,8,1.5580516067557377
undo,47,22,1,0,0,6,"[0, 29, 19, 9, 6]",5,13,"[3, 7, 13, 14, 15, 16, 17, 20, 21, 22, 24, 25, 28]",160.9370784,22762,332,17,16,8,1.5692551066355458
undo,47,22,1,0,0,9,"[0, 29, 19, 9]",4,16,"[1, 3, 6, 7, 8, 13, 14, 15, 16, 17, 20, 21, 22, 24, 25, 28]",187.5641323,23180,418,7,84,9,1.2555028175473422
undo,47,22,0,0,0,14,"[0, 29, 19, 9, 14]",5,11,"[1, 3, 6, 7, 13, 16, 17, 20, 21, 24, 28]",144.5176458,24301,1121,4,28,9,1.200251311198461
undo,47,22,0,0,0,7,"[0, 29, 19, 9, 14, 7]",6,10,"[1, 3, 6, 13, 16, 17, 20, 21, 24, 28]",131.479241,24966,665,4,18,9,1.3399585036197592
undo,47,22,0,0,0,17,"[0, 29, 19, 9, 14, 7, 17]",7,5,"[1, 3, 20, 21, 24]",89.86193693,25794,828,3,3,9,1.3297480627305363
undo,47,22,0,0,0,21,"[0, 29, 19, 9, 14, 7, 17, 21]",8,2,"[3, 24]",38.51020862,26640,846,2,0,9,1.621067475944888
undo,47,22,0,0,1,3,"[0, 29, 19, 9, 14, 7, 17, 21, 3]",9,0,[],13.49021662,27556,916,1,0,9,1.6812263795812836
undo,47,22,0,1,1,3,"[0, 29, 19, 9, 14, 7, 17, 21, 3]",9,0,[],13.49021662,28263,707,1,0,9,1.6812263795812836
undo,48,20,0,0,0,0,[0],1,21,"[1, 2, 3, 4, 5, 6, 7, 8, 9, 12, 17, 18, 20, 21, 22, 23, 25, 26, 27, 28, 29]",300,128,-1,1,9,9,0.0
undo,48,20,0,0,0,1,"[0, 1]",2,14,"[3, 4, 5, 6, 8, 9, 12, 20, 21, 23, 26, 27, 28, 29]",197.3501096,2711,2583,1,9,8,1.0
undo,48,20,0,0,0,5,"[0, 1, 5]",3,12,"[4, 6, 8, 9, 12, 20, 21, 23, 26, 27, 28, 29]",160.675868,3432,721,1,8,8,1.1088946720668915
undo,48,20,0,0,0,21,"[0, 1, 5, 21]",4,8,"[4, 6, 8, 9, 20, 23, 27, 28]",115.675868,4275,843,1,6,8,1.0805828994591202
undo,48,20,0,0,0,8,"[0, 1, 5, 21, 8]",5,5,"[6, 9, 23, 27, 28]",98.21161876,5594,1319,1,5,8,1.0976815296746363
undo,48,20,0,0,0,23,"[0, 1, 5, 21, 8, 23]",6,3,"[6, 9, 27]",53.52381281,6417,823,1,2,8,1.0820667611140062
undo,48,20,0,0,0,9,"[0, 1, 5, 21, 8, 23, 9]",7,1,[6],34.3144401,7216,799,1,0,8,1.0771429624373048
undo,48,20,0,0,1,6,"[0, 1, 5, 21, 8, 23, 9, 6]",8,0,[],11.29271124,8052,836,1,0,8,1.0892675954154076
undo,48,20,0,1,1,6,"[0, 1, 5, 21, 8, 23, 9, 6]",8,0,[],11.29271124,9029,977,1,0,8,1.0892675954154076
undo,49,2,0,0,0,0,[0],1,23,"[1, 2, 4, 5, 6, 7, 8, 9, 12, 13, 15, 16, 17, 18, 19, 20, 22, 23, 25, 26, 27, 28, 29]",300,131,-1,70,620,10,0.0
undo,49,2,0,0,0,12,"[0, 12]",2,19,"[1, 2, 4, 5, 6, 7, 13, 15, 16, 17, 18, 19, 20, 22, 25, 26, 27, 28, 29]",186.8275652,1826,1695,3,169,10,1.0
undo,49,2,0,0,0,5,"[0, 12, 5]",3,14,"[1, 4, 6, 7, 13, 15, 16, 18, 19, 22, 25, 26, 28, 29]",157.2979191,2656,830,2,88,10,1.0082498134695237
undo,49,2,0,0,0,22,"[0, 12, 5, 22]",4,11,"[1, 6, 7, 13, 15, 18, 19, 25, 26, 28, 29]",144.4916706,3290,634,1,45,10,1.0077567572950326
undo,49,2,0,0,0,13,"[0, 12, 5, 22, 13]",5,9,"[1, 6, 7, 15, 18, 19, 25, 26, 29]",129.6256019,3975,685,1,39,10,1.151783231594989
undo,49,2,0,0,0,18,"[0, 12, 5, 22, 13, 18]",6,4,"[7, 15, 26, 29]",94.45459106,4861,886,1,14,10,1.1431544953850095
undo,49,2,0,0,0,7,"[0, 12, 5, 22, 13, 18, 7]",7,3,"[15, 26, 29]",84.15896092,5583,722,1,4,10,1.1360054688421053
undo,49,2,0,0,0,26,"[0, 12, 5, 22, 13, 18, 7, 26]",8,2,"[15, 29]",61.35545242,6434,851,1,1,10,1.1290531198668372
undo,49,2,0,0,0,15,"[0, 12, 5, 22, 13, 18, 7, 26, 15]",9,1,[29],37.14801554,7208,774,1,0,10,1.395427297339814
undo,49,2,0,0,1,29,"[0, 12, 5, 22, 13, 18, 7, 26, 15, 29]",10,0,[],8.687516603,8055,847,1,0,10,1.5868802136739162
undo,49,2,0,1,1,29,"[0, 12, 5, 22, 13, 18, 7, 26, 15, 29]",10,0,[],8.687516603,8948,893,1,0,10,1.5868802136739162
undo,50,24,0,0,0,0,[0],1,29,"[1, 2, 3, 4, 5, 6, 7, 8, 9, 10, 11, 12, 13, 14, 15, 16, 17, 18, 19, 20, 21, 22, 23, 24, 25, 26, 27, 28, 29]",300,129,-1,4,76,10,0.0
undo,50,24,0,0,0,8,"[0, 8]",2,25,"[1, 2, 3, 4, 6, 7, 9, 10, 11, 13, 14, 15, 16, 17, 19, 20, 21, 22, 23, 24, 25, 26, 27, 28, 29]",189.8864223,3157,3028,3,32,9,1.0
undo,50,24,0,0,0,16,"[0, 8, 16]",3,18,"[2, 3, 4, 6, 9, 10, 11, 14, 15, 17, 19, 22, 23, 24, 26, 27, 28, 29]",160.8864223,4990,1833,1,11,9,1.5518493399422786
undo,50,24,0,0,0,22,"[0, 8, 16, 22]",4,14,"[3, 4, 6, 9, 10, 11, 14, 15, 23, 24, 26, 27, 28, 29]",142.8586659,5677,687,1,8,9,1.4911837228651403
undo,50,24,0,0,0,15,"[0, 8, 16, 22, 15]",5,11,"[3, 4, 6, 9, 11, 14, 23, 26, 27, 28, 29]",121.6454625,6501,824,1,6,9,1.4910064452980252
undo,50,24,0,0,0,28,"[0, 8, 16, 22, 15, 28]",6,5,"[4, 9, 11, 23, 27]",76.36853677,8421,1920,1,4,9,1.3584393312059677
undo,50,24,0,0,0,23,"[0, 8, 16, 22, 15, 28, 23]",7,3,"[9, 11, 27]",57.34223918,9155,734,1,2,9,1.3772929797267717
undo,50,24,0,0,0,11,"[0, 8, 16, 22, 15, 28, 23, 11]",8,1,[27],30.41641514,10034,879,1,0,9,1.3421257291731505
undo,50,24,0,0,1,27,"[0, 8, 16, 22, 15, 28, 23, 11, 27]",9,0,[],2.613537594,10988,954,1,0,9,1.3020617734676498
undo,50,24,0,1,1,27,"[0, 8, 16, 22, 15, 28, 23, 11, 27]",9,0,[],2.613537594,11812,824,1,0,9,1.3020617734676498
undo,51,25,0,0,0,0,[0],1,28,"[1, 2, 3, 4, 5, 7, 8, 9, 10, 11, 12, 13, 14, 15, 16, 17, 18, 19, 20, 21, 22, 23, 24, 25, 26, 27, 28, 29]",300,147,-1,5,94,10,0.0
undo,51,25,0,0,0,19,"[0, 19]",2,27,"[1, 2, 3, 4, 5, 7, 8, 9, 10, 11, 12, 13, 14, 15, 16, 17, 18, 20, 21, 22, 23, 24, 25, 26, 27, 28, 29]",251.9479449,4453,4306,2,30,10,1.0
undo,51,25,0,0,0,29,"[0, 19, 29]",3,26,"[1, 2, 3, 4, 5, 7, 8, 9, 10, 11, 12, 13, 14, 15, 16, 17, 18, 20, 21, 22, 23, 24, 25, 26, 27, 28]",235.6691243,6138,1685,2,22,10,1.0272252084351727
undo,51,25,0,0,0,22,"[0, 19, 29, 22]",4,24,"[1, 2, 3, 4, 5, 7, 8, 9, 11, 12, 13, 14, 15, 16, 17, 18, 20, 21, 23, 24, 25, 26, 27, 28]",219.5446088,7029,891,2,17,10,1.03988854593305
undo,51,25,0,0,0,7,"[0, 19, 29, 22, 7]",5,10,"[1, 3, 5, 8, 9, 11, 13, 23, 24, 28]",143.9007062,8064,1035,2,14,10,1.3318974800137366
undo,51,25,0,0,0,24,"[0, 19, 29, 22, 7, 24]",6,7,"[3, 8, 9, 11, 13, 23, 28]",119.1418694,8878,814,2,9,10,1.2868309735722725
undo,51,25,0,0,0,9,"[0, 19, 29, 22, 7, 24, 9]",7,4,"[3, 8, 13, 28]",101.114113,9613,735,2,7,10,1.2740198715343065
undo,51,25,0,0,0,3,"[0, 19, 29, 22, 7, 24, 9, 3]",8,3,"[8, 13, 28]",70.84862112,10625,1012,2,1,10,1.2376259292234586
undo,51,25,0,0,0,28,"[0, 19, 29, 22, 7, 24, 9, 3, 28]",9,1,[13],39.54366943,11890,1265,1,0,10,1.203625519961748
undo,51,25,0,0,1,13,"[0, 19, 29, 22, 7, 24, 9, 3, 28, 13]",10,0,[],5.309183897,15076,3186,1,0,10,1.4620578920005771
undo,51,25,0,1,1,13,"[0, 19, 29, 22, 7, 24, 9, 3, 28, 13]",10,0,[],5.309183897,16032,956,1,0,10,1.4620578920005771
undo,52,31,0,0,0,0,[0],1,27,"[1, 3, 4, 5, 6, 7, 8, 10, 11, 12, 13, 14, 15, 16, 17, 18, 19, 20, 21, 22, 23, 24, 25, 26, 27, 28, 29]",300,128,-1,2,87,10,0.0
undo,52,31,0,0,0,14,"[0, 14]",2,25,"[1, 3, 5, 6, 7, 8, 10, 11, 12, 13, 15, 16, 17, 18, 19, 20, 21, 22, 23, 24, 25, 26, 27, 28, 29]",263.861378,1906,1778,2,59,10,1.0
undo,52,31,0,0,0,27,"[0, 14, 27]",3,22,"[1, 3, 5, 6, 7, 8, 10, 11, 12, 13, 15, 16, 17, 18, 19, 20, 21, 22, 24, 25, 28, 29]",235.6833724,2744,838,1,39,10,1.5881859159302467
undo,52,31,0,0,0,8,"[0, 14, 27, 8]",4,20,"[1, 3, 5, 6, 7, 10, 11, 12, 13, 16, 17, 18, 19, 20, 21, 22, 24, 25, 28, 29]",224.6380114,3449,705,1,36,10,2.1665048452331277
undo,52,31,0,0,0,18,"[0, 14, 27, 8, 18]",5,15,"[1, 5, 6, 7, 11, 12, 13, 16, 17, 19, 20, 22, 25, 28, 29]",188.7911147,5116,1667,1,26,10,1.7273375741920205
undo,52,31,0,0,0,17,"[0, 14, 27, 8, 18, 17]",6,13,"[1, 5, 6, 7, 11, 12, 13, 16, 19, 20, 22, 25, 28]",159.584951,6082,966,1,13,10,1.551192427769927
undo,52,31,0,0,0,11,"[0, 14, 27, 8, 18, 17, 11]",7,7,"[5, 12, 16, 19, 22, 25, 28]",118.4753414,7477,1395,1,4,10,2.9650760544203494
undo,52,31,0,0,0,5,"[0, 14, 27, 8, 18, 17, 11, 5]",8,2,"[16, 28]",74.79468207,8402,925,1,1,10,2.56711965625205
undo,52,31,0,0,0,28,"[0, 14, 27, 8, 18, 17, 11, 5, 28]",9,1,[16],54.57093365,9193,791,1,0,10,2.2865510762058148
undo,52,31,0,0,1,16,"[0, 14, 27, 8, 18, 17, 11, 5, 28, 16]",10,0,[],20.95546102,10157,964,1,0,10,2.089356850786318
undo,52,31,0,1,1,16,"[0, 14, 27, 8, 18, 17, 11, 5, 28, 16]",10,0,[],20.95546102,10911,754,1,0,10,2.089356850786318
undo,53,41,0,0,0,0,[0],1,29,"[1, 2, 3, 4, 5, 6, 7, 8, 9, 10, 11, 12, 13, 14, 15, 16, 17, 18, 19, 20, 21, 22, 23, 24, 25, 26, 27, 28, 29]",300,131,-1,1,143,10,0.0
undo,53,41,0,0,0,13,"[0, 13]",2,23,"[1, 2, 3, 5, 6, 7, 9, 10, 11, 12, 14, 15, 17, 18, 19, 20, 21, 22, 24, 25, 26, 27, 28]",258.2747079,3006,2875,1,55,10,1.0
undo,53,41,0,0,0,28,"[0, 13, 28]",3,22,"[1, 2, 3, 5, 6, 7, 9, 10, 11, 12, 14, 15, 17, 18, 19, 20, 21, 22, 24, 25, 26, 27]",223.7928286,3987,981,1,39,10,1.895724242592676
undo,53,41,0,0,0,5,"[0, 13, 28, 5]",4,19,"[1, 2, 3, 6, 9, 10, 11, 12, 14, 15, 17, 18, 19, 20, 21, 22, 24, 25, 27]",210.1913581,4807,820,1,34,10,2.861541269398273
undo,53,41,0,0,0,3,"[0, 13, 28, 5, 3]",5,16,"[1, 2, 6, 9, 10, 12, 14, 17, 18, 19, 20, 21, 22, 24, 25, 27]",175.3632086,6626,1819,1,22,10,3.1455488489005883
undo,53,41,0,0,0,21,"[0, 13, 28, 5, 3, 21]",6,14,"[1, 2, 6, 9, 10, 12, 14, 17, 18, 19, 20, 22, 25, 27]",143.2228912,8270,1644,13,11,9,3.207558429289677
undo,53,41,0,0,0,9,"[0, 13, 28, 5, 3, 21, 9]",7,6,"[1, 2, 10, 12, 14, 17]",93.85691102,9224,954,7,4,9,2.5050148501792275
undo,53,41,0,0,0,2,"[0, 13, 28, 5, 3, 21, 9, 2]",8,5,"[1, 10, 12, 14, 17]",81.77386505,9920,696,5,0,9,2.4119643847713177
undo,53,41,0,0,1,17,"[0, 13, 28, 5, 3, 21, 9, 2, 17]",9,0,[],49.21622385,10796,876,1,0,9,3.9563478735796007
undo,53,41,1,0,0,2,"[0, 13, 28, 5, 3, 21, 9, 2]",8,5,"[1, 10, 12, 14, 17]",81.77386505,16931,6135,5,0,9,2.4119643847713177
undo,53,41,1,0,0,9,"[0, 13, 28, 5, 3, 21, 9]",7,6,"[1, 2, 10, 12, 14, 17]",93.85691102,17598,667,7,4,9,2.5050148501792275
undo,53,41,1,0,0,21,"[0, 13, 28, 5, 3, 21]",6,14,"[1, 2, 6, 9, 10, 12, 14, 17, 18, 19, 20, 22, 25, 27]",143.2228912,17997,399,13,11,9,3.207558429289677
undo,53,41,1,0,0,3,"[0, 13, 28, 5, 3]",5,16,"[1, 2, 6, 9, 10, 12, 14, 17, 18, 19, 20, 21, 22, 24, 25, 27]",175.3632086,18382,385,1,22,10,3.1455488489005883
undo,53,41,1,0,0,5,"[0, 13, 28, 5]",4,19,"[1, 2, 3, 6, 9, 10, 11, 12, 14, 15, 17, 18, 19, 20, 21, 22, 24, 25, 27]",210.1913581,19331,949,1,34,10,2.861541269398273
undo,53,41,0,0,0,22,"[0, 13, 28, 5, 22]",5,12,"[2, 3, 6, 9, 10, 11, 12, 17, 18, 20, 21, 25]",155.4464953,20134,803,11,12,9,2.096079268852861
undo,53,41,0,0,0,3,"[0, 13, 28, 5, 22, 3]",6,8,"[2, 9, 10, 12, 17, 18, 20, 21]",125.4798472,21011,877,7,5,9,4.404491319005463
undo,53,41,0,0,0,21,"[0, 13, 28, 5, 22, 3, 21]",7,4,"[2, 9, 12, 17]",93.33952984,21753,742,5,1,9,4.228139797553632
undo,53,41,0,0,0,9,"[0, 13, 28, 5, 22, 3, 21, 9]",8,2,"[2, 17]",43.97354965,22678,925,2,0,9,3.111188754077749
undo,53,41,0,0,1,2,"[0, 13, 28, 5, 22, 3, 21, 9, 2]",9,0,[],31.89050368,23504,826,1,0,9,2.963304814480547
undo,53,41,0,1,1,2,"[0, 13, 28, 5, 22, 3, 21, 9, 2]",9,0,[],31.89050368,25465,1961,1,0,9,2.963304814480547
undo,54,27,0,0,0,0,[0],1,26,"[1, 3, 5, 6, 7, 8, 9, 10, 11, 12, 13, 14, 15, 16, 17, 18, 19, 21, 22, 23, 24, 25, 26, 27, 28, 29]",300,162,-1,13,578,11,0.0
undo,54,27,0,0,0,15,"[0, 15]",2,24,"[1, 3, 5, 6, 7, 8, 9, 10, 11, 12, 13, 14, 16, 17, 18, 19, 21, 22, 23, 24, 25, 26, 27, 29]",263.7508621,1706,1544,6,219,11,1.0
undo,54,27,0,0,0,24,"[0, 15, 24]",3,20,"[1, 5, 6, 7, 8, 9, 10, 12, 13, 14, 16, 17, 18, 19, 21, 23, 25, 26, 27, 29]",246.5462115,2559,853,6,130,11,1.130933077698322
undo,54,27,0,0,0,17,"[0, 15, 24, 17]",4,15,"[1, 6, 8, 10, 12, 13, 14, 16, 18, 19, 23, 25, 26, 27, 29]",229.9932662,3350,791,4,60,11,1.1285538435963374
undo,54,27,0,0,0,12,"[0, 15, 24, 17, 12]",5,14,"[1, 6, 8, 10, 13, 14, 16, 18, 19, 23, 25, 26, 27, 29]",218.8129263,4107,757,2,32,11,1.2561880288755216
undo,54,27,0,0,0,10,"[0, 15, 24, 17, 12, 10]",6,11,"[1, 8, 13, 14, 18, 19, 23, 25, 26, 27, 29]",207.7675653,4850,743,2,28,11,1.2228289337766665
undo,54,27,0,0,0,13,"[0, 15, 24, 17, 12, 10, 13]",7,9,"[1, 8, 14, 18, 19, 23, 26, 27, 29]",167.9178476,6336,1486,2,18,11,1.3421291994761178
undo,54,27,0,0,0,19,"[0, 15, 24, 17, 12, 10, 13, 19]",8,5,"[1, 8, 14, 23, 29]",131.6825057,7126,790,2,6,11,1.294749956153846
undo,54,27,0,0,0,8,"[0, 15, 24, 17, 12, 10, 13, 19, 8]",9,3,"[14, 23, 29]",116.816437,7877,751,2,1,11,1.3554286578836865
undo,54,27,0,0,0,29,"[0, 15, 24, 17, 12, 10, 13, 19, 8, 29]",10,1,[14],57.61339652,10611,2734,1,0,11,1.248354519573802
undo,54,27,0,0,1,14,"[0, 15, 24, 17, 12, 10, 13, 19, 8, 29, 14]",11,0,[],13.31892734,12217,1606,1,0,11,1.562811097555156
undo,54,27,0,1,1,14,"[0, 15, 24, 17, 12, 10, 13, 19, 8, 29, 14]",11,0,[],13.31892734,14329,2112,1,0,11,1.562811097555156
undo,55,5,0,0,0,0,[0],1,29,"[1, 2, 3, 4, 5, 6, 7, 8, 9, 10, 11, 12, 13, 14, 15, 16, 17, 18, 19, 20, 21, 22, 23, 24, 25, 26, 27, 28, 29]",300,134,-1,5,139,9,0.0
undo,55,5,0,0,0,12,"[0, 12]",2,22,"[2, 4, 5, 6, 8, 9, 10, 13, 14, 15, 16, 17, 18, 19, 21, 22, 23, 24, 25, 26, 27, 28]",228.3062067,3802,3668,1,27,9,1.0
undo,55,5,0,0,0,25,"[0, 12, 25]",3,21,"[2, 4, 5, 6, 8, 9, 10, 13, 14, 15, 16, 17, 18, 19, 21, 22, 23, 24, 26, 27, 28]",200.5213187,4527,725,1,20,9,1.584023303445617
undo,55,5,0,0,0,23,"[0, 12, 25, 23]",4,19,"[2, 4, 5, 6, 8, 9, 10, 13, 14, 15, 16, 17, 18, 19, 21, 22, 24, 26, 27]",182.0822298,5112,585,1,14,9,2.3508446989254357
undo,55,5,0,0,0,24,"[0, 12, 25, 23, 24]",5,15,"[2, 4, 5, 6, 8, 9, 13, 14, 15, 17, 18, 19, 22, 26, 27]",158.995437,5807,695,1,12,9,1.9469752046288753
undo,55,5,0,0,0,17,"[0, 12, 25, 23, 24, 17]",6,7,"[4, 5, 6, 8, 15, 18, 19]",124.0097257,6685,878,1,8,9,1.6482276497563642
undo,55,5,0,0,0,5,"[0, 12, 25, 23, 24, 17, 5]",7,4,"[4, 6, 15, 18]",80.96323916,10582,3897,1,3,9,1.4654649104389412
undo,55,5,0,0,1,18,"[0, 12, 25, 23, 24, 17, 5, 18]",8,0,[],13.89610861,11537,955,1,0,8,1.4108688678336447
undo,55,5,0,1,1,18,"[0, 12, 25, 23, 24, 17, 5, 18]",8,0,[],13.89610861,12281,744,1,0,8,1.4108688678336447
undo,56,34,0,0,0,0,[0],1,25,"[1, 3, 4, 5, 6, 7, 8, 9, 10, 11, 12, 13, 15, 18, 19, 20, 21, 22, 23, 24, 25, 26, 27, 28, 29]",300,133,-1,12,367,10,0.0
undo,56,34,0,0,0,13,"[0, 13]",2,24,"[1, 3, 4, 5, 6, 7, 8, 9, 10, 11, 12, 15, 18, 19, 20, 21, 22, 23, 24, 25, 26, 27, 28, 29]",279.9750156,2414,2281,12,331,10,1.0
undo,56,34,0,0,0,1,"[0, 13, 1]",3,16,"[3, 5, 7, 8, 9, 10, 11, 12, 19, 21, 22, 23, 24, 25, 27, 29]",211.8574701,3285,871,3,92,10,1.0010381285747127
undo,56,34,0,0,0,8,"[0, 13, 1, 8]",4,14,"[3, 5, 7, 9, 10, 11, 12, 19, 22, 23, 24, 25, 27, 29]",201.0871405,3931,646,2,54,10,1.1636807
undo,56,34,0,0,0,25,"[0, 13, 1, 8, 25]",5,12,"[3, 5, 7, 9, 10, 11, 12, 22, 23, 24, 27, 29]",183.999133,4745,814,2,28,10,1.1396208815936457
undo,56,34,0,0,0,24,"[0, 13, 1, 8, 25, 24]",6,11,"[3, 5, 7, 9, 10, 11, 12, 22, 23, 27, 29]",166.5062774,5646,901,2,23,10,1.374180768736554
undo,56,34,0,0,0,12,"[0, 13, 1, 8, 25, 24, 12]",7,7,"[7, 9, 10, 11, 22, 23, 27]",115.4670767,6697,1051,1,8,10,1.4994254760835948
undo,56,34,0,0,0,7,"[0, 13, 1, 8, 25, 24, 12, 7]",8,5,"[9, 11, 22, 23, 27]",100.4337804,7404,707,1,4,10,1.758992610425009
undo,56,34,0,0,0,23,"[0, 13, 1, 8, 25, 24, 12, 7, 23]",9,1,[27],72.27352467,8208,804,1,0,10,2.399781305190153
undo,56,34,0,0,1,27,"[0, 13, 1, 8, 25, 24, 12, 7, 23, 27]",10,0,[],18.60789321,9162,954,1,0,10,4.766619878750327
undo,56,34,0,1,1,27,"[0, 13, 1, 8, 25, 24, 12, 7, 23, 27]",10,0,[],18.60789321,9983,821,1,0,10,4.766619878750327
undo,57,0,0,0,0,0,[0],1,27,"[2, 3, 4, 5, 6, 7, 8, 9, 10, 11, 12, 13, 14, 15, 16, 17, 19, 20, 21, 22, 23, 24, 25, 26, 27, 28, 29]",300,129,-1,104,1136,9,0.0
undo,57,0,0,0,0,20,"[0, 20]",2,25,"[2, 3, 4, 5, 6, 7, 8, 9, 11, 12, 13, 14, 15, 16, 17, 19, 21, 22, 23, 24, 25, 26, 27, 28, 29]",215.4955622,2037,1908,36,372,9,1.0
undo,57,0,0,0,0,5,"[0, 20, 5]",3,22,"[2, 3, 4, 7, 8, 9, 11, 12, 13, 14, 15, 16, 17, 19, 21, 22, 23, 24, 25, 26, 28, 29]",153.2942761,2858,821,33,251,9,1.0828244018179105
undo,57,0,0,0,0,26,"[0, 20, 5, 26]",4,16,"[3, 4, 7, 8, 9, 11, 12, 13, 14, 15, 17, 19, 21, 23, 24, 28]",117.8541858,3683,825,6,51,9,1.1274542855134486
undo,57,0,0,0,0,4,"[0, 20, 5, 26, 4]",5,12,"[3, 7, 8, 9, 11, 12, 15, 17, 19, 23, 24, 28]",105.8125912,4541,858,5,27,9,1.240491272719259
undo,57,0,0,0,0,24,"[0, 20, 5, 26, 4, 24]",6,11,"[3, 7, 8, 9, 11, 12, 15, 17, 19, 23, 28]",94.41083696,5244,703,5,18,9,1.2323106696136763
undo,57,0,0,0,0,15,"[0, 20, 5, 26, 4, 24, 15]",7,7,"[3, 7, 8, 9, 11, 12, 17]",71.0656019,6061,817,4,5,9,1.2111066506270785
undo,57,0,0,0,0,8,"[0, 20, 5, 26, 4, 24, 15, 8]",8,2,"[3, 7]",31.95038747,7238,1177,2,0,9,1.2049151274199248
undo,57,0,0,0,1,7,"[0, 20, 5, 26, 4, 24, 15, 8, 7]",9,0,[],12.8454143,7994,756,1,0,9,1.4006874184490101
undo,57,0,1,0,0,8,"[0, 20, 5, 26, 4, 24, 15, 8]",8,2,"[3, 7]",31.95038747,9662,1668,2,0,9,1.2049151274199248
undo,57,0,1,0,0,15,"[0, 20, 5, 26, 4, 24, 15]",7,7,"[3, 7, 8, 9, 11, 12, 17]",71.0656019,10796,1134,4,5,9,1.2111066506270785
undo,57,0,0,0,0,7,"[0, 20, 5, 26, 4, 24, 15, 7]",8,2,"[3, 8]",40.00115277,11535,739,2,0,9,1.268226705272871
undo,57,0,0,0,1,3,"[0, 20, 5, 26, 4, 24, 15, 7, 3]",9,0,[],15.91796361,12343,808,1,0,9,1.3105818731451497
undo,57,0,0,1,1,3,"[0, 20, 5, 26, 4, 24, 15, 7, 3]",9,0,[],15.91796361,13230,887,1,0,9,1.3105818731451497
undo,58,29,0,0,0,0,[0],1,29,"[1, 2, 3, 4, 5, 6, 7, 8, 9, 10, 11, 12, 13, 14, 15, 16, 17, 18, 19, 20, 21, 22, 23, 24, 25, 26, 27, 28, 29]",300,130,-1,1,78,9,0.0
undo,58,29,0,0,0,25,"[0, 25]",2,18,"[1, 2, 4, 5, 6, 7, 9, 10, 12, 13, 14, 15, 16, 17, 22, 26, 27, 28]",223.3449284,4859,4729,13,101,8,1.0
undo,58,29,0,0,0,17,"[0, 25, 17]",3,13,"[1, 4, 5, 6, 7, 9, 10, 12, 13, 14, 22, 27, 28]",188.41643,5636,777,2,22,8,1.014228463693056
