condition,trial_id,map_id,undoIndicator,submit,checkEnd,currentChoice,chosen_all,n_city_all,n_within_reach,cities_reach,currentBudget,time_all,rt_all,n_opt_paths_all,n_subopt_paths_all,mas_all,tortuosity_all
undo,0,10,0,0,0,0,[0],1,29,"[1, 2, 3, 4, 5, 6, 7, 8, 9, 10, 11, 12, 13, 14, 15, 16, 17, 18, 19, 20, 21, 22, 23, 24, 25, 26, 27, 28, 29]",300,143,-1,1,100,9,0.0
undo,0,10,0,0,0,13,"[0, 13]",2,25,"[1, 2, 3, 4, 6, 7, 8, 9, 10, 11, 12, 14, 17, 18, 19, 20, 21, 22, 23, 24, 25, 26, 27, 28, 29]",249.4628849,16797,16654,1,79,9,1.0
undo,0,10,0,0,0,11,"[0, 13, 11]",3,20,"[1, 2, 3, 6, 7, 8, 9, 10, 12, 14, 18, 19, 20, 21, 22, 24, 26, 27, 28, 29]",206.4512586,18865,2068,1,54,9,1.0313137484914219
undo,0,10,0,0,0,20,"[0, 13, 11, 20]",4,15,"[1, 2, 3, 6, 8, 9, 10, 12, 14, 18, 19, 21, 24, 26, 27]",168.3723931,20168,1303,15,34,8,1.0874972644654597
undo,0,10,0,0,0,26,"[0, 13, 11, 20, 26]",5,8,"[2, 6, 9, 10, 14, 18, 19, 27]",136.5918959,21321,1153,6,9,8,1.2338398611867702
undo,0,10,0,0,0,14,"[0, 13, 11, 20, 26, 14]",6,3,"[2, 19, 27]",101.9220243,22705,1384,2,1,8,1.2385196389162765
undo,0,10,0,0,0,2,"[0, 13, 11, 20, 26, 14, 2]",7,1,[19],89.75649919,23844,1139,1,0,8,1.2878757708849242
undo,0,10,0,0,1,19,"[0, 13, 11, 20, 26, 14, 2, 19]",8,0,[],45.84750239,25112,1268,1,0,8,2.1284579604680154
undo,0,10,0,1,1,19,"[0, 13, 11, 20, 26, 14, 2, 19]",8,0,[],45.84750239,29256,4144,1,0,8,2.1284579604680154
undo,1,24,0,0,0,0,[0],1,29,"[1, 2, 3, 4, 5, 6, 7, 8, 9, 10, 11, 12, 13, 14, 15, 16, 17, 18, 19, 20, 21, 22, 23, 24, 25, 26, 27, 28, 29]",300,148,-1,4,76,10,0.0
undo,1,24,0,0,0,16,"[0, 16]",2,28,"[1, 2, 3, 4, 5, 6, 7, 8, 9, 10, 11, 12, 13, 14, 15, 17, 18, 19, 20, 21, 22, 23, 24, 25, 26, 27, 28, 29]",210.3562607,6389,6241,13,110,9,1.0
undo,1,24,0,0,0,22,"[0, 16, 22]",3,27,"[1, 2, 3, 4, 5, 6, 7, 8, 9, 10, 11, 12, 13, 14, 15, 17, 18, 19, 20, 21, 23, 24, 25, 26, 27, 28, 29]",192.3285043,8117,1728,7,54,9,1.0217425143037777
undo,1,24,0,0,0,8,"[0, 16, 22, 8]",4,21,"[1, 2, 3, 4, 6, 9, 10, 11, 13, 14, 15, 17, 20, 21, 23, 24, 25, 26, 27, 28, 29]",178.9120964,8989,872,4,28,9,1.0996636936037951
undo,1,24,0,0,0,15,"[0, 16, 22, 8, 15]",5,16,"[3, 4, 6, 9, 10, 11, 13, 14, 17, 23, 24, 25, 26, 27, 28, 29]",148.025206,10590,1601,3,17,9,1.2704773343758617
undo,1,24,0,0,0,28,"[0, 16, 22, 8, 15, 28]",6,8,"[3, 4, 9, 11, 13, 23, 26, 27]",102.7482803,13477,2887,3,5,9,1.1981967578189556
undo,1,24,0,0,0,23,"[0, 16, 22, 8, 15, 28, 23]",7,3,"[9, 11, 27]",83.72198273,14412,935,3,1,9,1.2275650852813986
undo,1,24,0,0,0,11,"[0, 16, 22, 8, 15, 28, 23, 11]",8,2,"[9, 27]",56.79615869,16126,1714,2,0,9,1.2107937989822568
undo,1,24,0,0,1,9,"[0, 16, 22, 8, 15, 28, 23, 11, 9]",9,0,[],24.5471277,18248,2122,1,0,9,1.2976612913524237
undo,1,24,0,1,1,9,"[0, 16, 22, 8, 15, 28, 23, 11, 9]",9,0,[],24.5471277,20110,1862,1,0,9,1.2976612913524237
undo,2,39,0,0,0,0,[0],1,28,"[1, 2, 3, 4, 5, 6, 7, 9, 10, 11, 12, 13, 14, 15, 16, 17, 18, 19, 20, 21, 22, 23, 24, 25, 26, 27, 28, 29]",300,146,-1,1,30,10,0.0
undo,2,39,0,0,0,29,"[0, 29]",2,26,"[1, 2, 3, 4, 5, 6, 7, 9, 10, 12, 13, 14, 15, 16, 17, 18, 19, 20, 21, 22, 23, 24, 25, 26, 27, 28]",243.0614366,5243,5097,8,104,9,1.0
undo,2,39,0,0,0,12,"[0, 29, 12]",3,18,"[1, 2, 4, 5, 7, 9, 10, 13, 14, 15, 16, 18, 19, 22, 23, 24, 26, 28]",182.5221931,6533,1290,5,54,9,1.0026200331524904
undo,2,39,0,0,0,10,"[0, 29, 12, 10]",4,16,"[1, 2, 4, 5, 7, 9, 13, 14, 15, 16, 18, 19, 22, 23, 24, 26]",147.0116313,7566,1033,5,34,9,1.2874817019928908
undo,2,39,0,0,0,7,"[0, 29, 12, 10, 7]",5,10,"[1, 2, 5, 13, 16, 18, 19, 22, 24, 26]",113.5900814,8795,1229,4,12,9,1.2250826263866774
undo,2,39,0,0,0,26,"[0, 29, 12, 10, 7, 26]",6,5,"[1, 16, 18, 19, 22]",94.90853971,9779,984,3,4,9,1.2697275353190085
undo,2,39,0,0,0,22,"[0, 29, 12, 10, 7, 26, 22]",7,2,"[16, 19]",77.18849457,10819,1040,2,0,9,1.438961743955176
undo,2,39,0,0,0,16,"[0, 29, 12, 10, 7, 26, 22, 16]",8,1,[19],42.18849457,11955,1136,1,0,9,1.3580882130477205
undo,2,39,0,0,1,19,"[0, 29, 12, 10, 7, 26, 22, 16, 19]",9,0,[],24.72424537,12827,872,1,0,9,1.3646589157842668
undo,2,39,0,1,1,19,"[0, 29, 12, 10, 7, 26, 22, 16, 19]",9,0,[],24.72424537,14545,1718,1,0,9,1.3646589157842668
undo,3,32,0,0,0,0,[0],1,29,"[1, 2, 3, 4, 5, 6, 7, 8, 9, 10, 11, 12, 13, 14, 15, 16, 17, 18, 19, 20, 21, 22, 23, 24, 25, 26, 27, 28, 29]",300,147,-1,17,359,10,0.0
undo,3,32,0,0,0,15,"[0, 15]",2,24,"[2, 3, 4, 5, 6, 7, 8, 9, 10, 11, 12, 13, 14, 16, 17, 19, 20, 22, 23, 24, 25, 26, 27, 28]",214.6185032,3135,2988,11,153,9,1.0
undo,3,32,0,0,0,28,"[0, 15, 28]",3,21,"[2, 3, 5, 7, 8, 9, 10, 11, 12, 13, 14, 16, 17, 19, 20, 22, 23, 24, 25, 26, 27]",203.2167489,4951,1816,11,119,9,1.000160051986942
undo,3,32,0,0,0,12,"[0, 15, 28, 12]",4,19,"[2, 3, 5, 7, 8, 9, 10, 11, 13, 16, 17, 19, 20, 22, 23, 24, 25, 26, 27]",184.243083,5663,712,8,71,9,1.0281484763748023
undo,3,32,0,0,0,16,"[0, 15, 28, 12, 16]",5,17,"[2, 3, 5, 7, 8, 9, 10, 11, 13, 17, 19, 20, 22, 23, 24, 26, 27]",168.5906071,6423,760,6,38,9,1.1190771370096
undo,3,32,0,0,0,22,"[0, 15, 28, 12, 16, 22]",6,10,"[2, 3, 5, 8, 9, 10, 11, 17, 20, 27]",134.7527585,7671,1248,4,16,9,1.1702311155319893
undo,3,32,0,0,0,9,"[0, 15, 28, 12, 16, 22, 9]",7,6,"[2, 8, 10, 17, 20, 27]",112.5491552,8574,903,2,4,9,1.2381424719932013
undo,3,32,0,0,0,8,"[0, 15, 28, 12, 16, 22, 9, 8]",8,1,[20],67.42709849,11134,2560,1,0,9,1.187013645273504
undo,3,32,0,0,1,20,"[0, 15, 28, 12, 16, 22, 9, 8, 20]",9,0,[],17.09818036,12535,1401,1,0,9,1.3986201165175596
undo,3,32,0,1,1,20,"[0, 15, 28, 12, 16, 22, 9, 8, 20]",9,0,[],17.09818036,13961,1426,1,0,9,1.3986201165175596
undo,4,42,0,0,0,0,[0],1,29,"[1, 2, 3, 4, 5, 6, 7, 8, 9, 10, 11, 12, 13, 14, 15, 16, 17, 18, 19, 20, 21, 22, 23, 24, 25, 26, 27, 28, 29]",300,147,-1,16,302,9,0.0
undo,4,42,0,0,0,22,"[0, 22]",2,27,"[1, 2, 3, 4, 5, 6, 7, 8, 9, 10, 11, 12, 13, 15, 16, 17, 18, 19, 20, 21, 23, 24, 25, 26, 27, 28, 29]",211.3997743,6993,6846,5,83,9,1.0
undo,4,42,0,0,0,4,"[0, 22, 4]",3,26,"[1, 2, 3, 5, 6, 7, 8, 9, 10, 11, 12, 13, 15, 16, 17, 18, 19, 20, 21, 23, 24, 25, 26, 27, 28, 29]",200.2194344,7749,756,4,51,9,1.1029012260448476
undo,4,42,0,0,0,5,"[0, 22, 4, 5]",4,24,"[1, 2, 3, 6, 7, 8, 9, 10, 11, 12, 13, 15, 17, 18, 19, 20, 21, 23, 24, 25, 26, 27, 28, 29]",180.3700011,8417,668,3,22,9,1.1004909640339868
undo,4,42,0,0,0,8,"[0, 22, 4, 5, 8]",5,16,"[1, 2, 3, 6, 7, 11, 15, 18, 19, 23, 24, 25, 26, 27, 28, 29]",145.8881218,9498,1081,3,12,9,1.4333663223483832
undo,4,42,0,0,0,1,"[0, 22, 4, 5, 8, 1]",6,6,"[2, 7, 18, 19, 26, 27]",96.796371,10473,975,3,7,9,1.3048950637395882
undo,4,42,0,0,0,7,"[0, 22, 4, 5, 8, 1, 7]",7,4,"[2, 19, 26, 27]",66.796371,11376,903,3,2,9,1.3461774355793397
undo,4,42,0,0,0,26,"[0, 22, 4, 5, 8, 1, 7, 26]",8,2,"[19, 27]",40.22571049,12441,1065,2,0,9,1.3119913611616163
undo,4,42,0,0,1,27,"[0, 22, 4, 5, 8, 1, 7, 26, 27]",9,0,[],22.19795412,13952,1511,1,0,9,1.3027999653776734
undo,4,42,0,1,1,27,"[0, 22, 4, 5, 8, 1, 7, 26, 27]",9,0,[],22.19795412,17110,3158,1,0,9,1.3027999653776734
undo,5,3,0,0,0,0,[0],1,29,"[1, 2, 3, 4, 5, 6, 7, 8, 9, 10, 11, 12, 13, 14, 15, 16, 17, 18, 19, 20, 21, 22, 23, 24, 25, 26, 27, 28, 29]",300,147,-1,34,427,10,0.0
undo,5,3,0,0,0,8,"[0, 8]",2,28,"[1, 2, 3, 4, 5, 6, 7, 9, 10, 11, 12, 13, 14, 15, 16, 17, 18, 19, 20, 21, 22, 23, 24, 25, 26, 27, 28, 29]",239.9666759,8272,8125,1,54,10,1.0
undo,5,3,0,0,0,24,"[0, 8, 24]",3,23,"[1, 2, 3, 4, 5, 6, 7, 10, 11, 12, 14, 15, 16, 17, 18, 19, 20, 21, 22, 25, 26, 27, 28]",227.8011509,9066,794,1,50,10,1.2267083825981846
undo,5,3,0,0,0,17,"[0, 8, 24, 17]",4,11,"[3, 4, 7, 10, 14, 15, 16, 19, 20, 21, 27]",158.4469873,9975,909,1,18,10,1.3836579788002414
undo,5,3,0,0,0,20,"[0, 8, 24, 17, 20]",5,9,"[3, 4, 7, 10, 14, 15, 16, 19, 21]",145.7978767,10667,692,1,14,10,1.3620097615632467
undo,5,3,0,0,0,3,"[0, 8, 24, 17, 20, 3]",6,5,"[4, 10, 14, 19, 21]",125.4017986,13233,2566,1,11,10,1.3956695218398405
undo,5,3,0,0,0,19,"[0, 8, 24, 17, 20, 3, 19]",7,4,"[4, 10, 14, 21]",88.06548922,14267,1034,1,4,10,1.4360605238855817
undo,5,3,0,0,0,21,"[0, 8, 24, 17, 20, 3, 19, 21]",8,2,"[10, 14]",75.85893361,15233,966,1,1,10,1.4576450248605066
undo,5,3,0,0,0,14,"[0, 8, 24, 17, 20, 3, 19, 21, 14]",9,1,[10],48.95168551,17483,2250,1,0,10,1.9505702217699148
undo,5,3,0,0,1,10,"[0, 8, 24, 17, 20, 3, 19, 21, 14, 10]",10,0,[],3.498412803,19067,1584,1,0,10,1.8830527336542522
undo,5,3,0,1,1,10,"[0, 8, 24, 17, 20, 3, 19, 21, 14, 10]",10,0,[],3.498412803,20961,1894,1,0,10,1.8830527336542522
undo,6,21,0,0,0,0,[0],1,29,"[1, 2, 3, 4, 5, 6, 7, 8, 9, 10, 11, 12, 13, 14, 15, 16, 17, 18, 19, 20, 21, 22, 23, 24, 25, 26, 27, 28, 29]",300,148,-1,84,830,9,0.0
undo,6,21,0,0,0,25,"[0, 25]",2,26,"[1, 2, 3, 4, 5, 6, 7, 8, 9, 10, 11, 12, 13, 14, 15, 16, 17, 18, 20, 21, 22, 23, 24, 26, 27, 29]",240.1836143,18076,17928,30,238,9,1.0
undo,6,21,0,0,0,23,"[0, 25, 23]",3,21,"[1, 2, 4, 6, 7, 8, 9, 10, 11, 12, 14, 15, 16, 17, 18, 20, 21, 22, 24, 27, 29]",196.8592562,19371,1295,14,80,9,1.0416131642057598
undo,6,21,0,0,0,21,"[0, 25, 23, 21]",4,14,"[1, 4, 6, 8, 9, 14, 15, 16, 17, 18, 20, 22, 24, 29]",167.2450705,20522,1151,10,25,9,1.4768792067751173
undo,6,21,0,0,0,14,"[0, 25, 23, 21, 14]",5,10,"[4, 8, 9, 15, 16, 17, 18, 22, 24, 29]",141.6325735,21675,1153,8,13,9,1.3826076066332742
undo,6,21,0,0,0,4,"[0, 25, 23, 21, 14, 4]",6,7,"[8, 15, 16, 17, 18, 24, 29]",127.4904379,22891,1216,8,3,9,1.3487191473328533
undo,6,21,0,0,0,16,"[0, 25, 23, 21, 14, 4, 16]",7,3,"[8, 15, 24]",82.89223163,24315,1424,4,1,9,1.3301484172843694
undo,6,21,0,0,0,8,"[0, 25, 23, 21, 14, 4, 16, 8]",8,2,"[15, 24]",64.2911564,25075,760,2,0,9,1.3009886562393016
undo,6,21,0,0,1,15,"[0, 25, 23, 21, 14, 4, 16, 8, 15]",9,0,[],39.2911564,26219,1144,1,0,9,1.5486591410600183
undo,6,21,0,1,1,15,"[0, 25, 23, 21, 14, 4, 16, 8, 15]",9,0,[],39.2911564,29659,3440,1,0,9,1.5486591410600183
undo,7,28,0,0,0,0,[0],1,27,"[1, 2, 3, 4, 5, 6, 7, 8, 9, 10, 11, 12, 13, 14, 15, 16, 17, 18, 19, 20, 22, 23, 25, 26, 27, 28, 29]",300,146,-1,2,96,9,0.0
undo,7,28,0,0,0,3,"[0, 3]",2,26,"[1, 2, 4, 5, 6, 7, 8, 9, 10, 11, 12, 13, 14, 15, 16, 17, 18, 19, 20, 22, 23, 25, 26, 27, 28, 29]",251.0817008,13100,12954,1,64,9,1.0
undo,7,28,0,0,0,5,"[0, 3, 5]",3,20,"[2, 4, 6, 7, 8, 9, 10, 11, 12, 13, 14, 15, 18, 19, 20, 23, 25, 26, 28, 29]",166.9865166,14300,1200,1,34,9,1.0203769473612083
undo,7,28,0,0,0,26,"[0, 3, 5, 26]",4,13,"[2, 4, 7, 8, 9, 12, 13, 14, 18, 19, 20, 25, 28]",134.2298379,16684,2384,1,28,9,1.0315203228799597
undo,7,28,0,0,0,19,"[0, 3, 5, 26, 19]",5,7,"[2, 7, 9, 12, 13, 14, 18]",93.22983789,19476,2792,1,17,9,1.1324645362297356
undo,7,28,0,0,0,7,"[0, 3, 5, 26, 19, 7]",6,5,"[2, 12, 13, 14, 18]",65.49898864,20492,1016,1,6,9,1.1971194919020265
undo,7,28,0,0,0,12,"[0, 3, 5, 26, 19, 7, 12]",7,2,"[13, 18]",52.3460422,21324,832,1,1,9,1.2020762147848982
undo,7,28,0,0,0,13,"[0, 3, 5, 26, 19, 7, 12, 13]",8,1,[18],35.14139167,22484,1160,1,0,9,1.39005144078531
undo,7,28,0,0,1,18,"[0, 3, 5, 26, 19, 7, 12, 13, 18]",9,0,[],10.72828044,23516,1032,1,0,9,1.738787343626007
undo,7,28,0,1,1,18,"[0, 3, 5, 26, 19, 7, 12, 13, 18]",9,0,[],10.72828044,25443,1927,1,0,9,1.738787343626007
undo,8,41,0,0,0,0,[0],1,29,"[1, 2, 3, 4, 5, 6, 7, 8, 9, 10, 11, 12, 13, 14, 15, 16, 17, 18, 19, 20, 21, 22, 23, 24, 25, 26, 27, 28, 29]",300,141,-1,1,143,10,0.0
undo,8,41,0,0,0,13,"[0, 13]",2,23,"[1, 2, 3, 5, 6, 7, 9, 10, 11, 12, 14, 15, 17, 18, 19, 20, 21, 22, 24, 25, 26, 27, 28]",258.2747079,9871,9730,1,55,10,1.0
undo,8,41,0,0,0,28,"[0, 13, 28]",3,22,"[1, 2, 3, 5, 6, 7, 9, 10, 11, 12, 14, 15, 17, 18, 19, 20, 21, 22, 24, 25, 26, 27]",223.7928286,10735,864,1,39,10,1.895724242592676
undo,8,41,0,0,0,5,"[0, 13, 28, 5]",4,19,"[1, 2, 3, 6, 9, 10, 11, 12, 14, 15, 17, 18, 19, 20, 21, 22, 24, 25, 27]",210.1913581,11455,720,1,34,10,2.861541269398273
undo,8,41,0,0,0,22,"[0, 13, 28, 5, 22]",5,12,"[2, 3, 6, 9, 10, 11, 12, 17, 18, 20, 21, 25]",155.4464953,13378,1923,11,12,9,2.096079268852861
undo,8,41,0,0,0,3,"[0, 13, 28, 5, 22, 3]",6,8,"[2, 9, 10, 12, 17, 18, 20, 21]",125.4798472,14151,773,7,5,9,4.404491319005463
undo,8,41,0,0,0,21,"[0, 13, 28, 5, 22, 3, 21]",7,4,"[2, 9, 12, 17]",93.33952984,15159,1008,5,1,9,4.228139797553632
undo,8,41,0,0,0,9,"[0, 13, 28, 5, 22, 3, 21, 9]",8,2,"[2, 17]",43.97354965,16378,1219,2,0,9,3.111188754077749
undo,8,41,0,0,1,2,"[0, 13, 28, 5, 22, 3, 21, 9, 2]",9,0,[],31.89050368,17111,733,1,0,9,2.963304814480547
undo,8,41,1,0,0,9,"[0, 13, 28, 5, 22, 3, 21, 9]",8,2,"[2, 17]",43.97354965,22754,5643,2,0,9,3.111188754077749
undo,8,41,1,0,0,21,"[0, 13, 28, 5, 22, 3, 21]",7,4,"[2, 9, 12, 17]",93.33952984,22921,167,5,1,9,4.228139797553632
undo,8,41,1,0,0,3,"[0, 13, 28, 5, 22, 3]",6,8,"[2, 9, 10, 12, 17, 18, 20, 21]",125.4798472,23138,217,7,5,9,4.404491319005463
undo,8,41,1,0,0,22,"[0, 13, 28, 5, 22]",5,12,"[2, 3, 6, 9, 10, 11, 12, 17, 18, 20, 21, 25]",155.4464953,23304,166,11,12,9,2.096079268852861
undo,8,41,1,0,0,5,"[0, 13, 28, 5]",4,19,"[1, 2, 3, 6, 9, 10, 11, 12, 14, 15, 17, 18, 19, 20, 21, 22, 24, 25, 27]",210.1913581,23472,168,1,34,10,2.861541269398273
undo,8,41,1,0,0,28,"[0, 13, 28]",3,22,"[1, 2, 3, 5, 6, 7, 9, 10, 11, 12, 14, 15, 17, 18, 19, 20, 21, 22, 24, 25, 26, 27]",223.7928286,23621,149,1,39,10,1.895724242592676
undo,8,41,1,0,0,13,"[0, 13]",2,23,"[1, 2, 3, 5, 6, 7, 9, 10, 11, 12, 14, 15, 17, 18, 19, 20, 21, 22, 24, 25, 26, 27, 28]",258.2747079,23788,167,1,55,10,1.0
undo,8,41,1,0,0,0,[0],1,29,"[1, 2, 3, 4, 5, 6, 7, 8, 9, 10, 11, 12, 13, 14, 15, 16, 17, 18, 19, 20, 21, 22, 23, 24, 25, 26, 27, 28, 29]",300,24172,384,1,143,10,0.0
undo,8,41,0,0,0,3,"[0, 3]",2,28,"[1, 2, 4, 5, 6, 7, 8, 9, 10, 11, 12, 13, 14, 15, 16, 17, 18, 19, 20, 21, 22, 23, 24, 25, 26, 27, 28, 29]",260.3767745,30559,6387,2,145,9,1.0
undo,8,41,0,0,0,21,"[0, 3, 21]",3,27,"[1, 2, 4, 5, 6, 7, 8, 9, 10, 11, 12, 13, 14, 15, 16, 17, 18, 19, 20, 22, 23, 24, 25, 26, 27, 28, 29]",228.2364571,31625,1066,36,222,8,1.468235756523827
undo,8,41,0,0,0,17,"[0, 3, 21, 17]",4,17,"[1, 2, 5, 9, 10, 12, 13, 14, 15, 19, 20, 22, 24, 25, 26, 27, 28]",176.5740917,33408,1783,12,49,8,1.9471587729632955
undo,8,41,0,0,0,9,"[0, 3, 21, 17, 9]",5,15,"[1, 2, 5, 10, 12, 13, 14, 15, 19, 22, 24, 25, 26, 27, 28]",145.5579669,34335,927,6,18,8,1.8767526397399956
undo,8,41,0,0,0,2,"[0, 3, 21, 17, 9, 2]",6,13,"[1, 5, 10, 12, 13, 14, 15, 19, 22, 24, 25, 26, 28]",133.4749209,35102,767,6,7,8,1.8405337199985379
undo,8,41,0,0,0,14,"[0, 3, 21, 17, 9, 2, 14]",7,1,[15],65.69586809,36183,1081,1,0,8,1.4806853691935626
undo,8,41,0,0,1,15,"[0, 3, 21, 17, 9, 2, 14, 15]",8,0,[],36.83412871,37174,991,1,0,8,1.4404756379652752
undo,8,41,1,0,0,14,"[0, 3, 21, 17, 9, 2, 14]",7,1,[15],65.69586809,40818,3644,1,0,8,1.4806853691935626
undo,8,41,1,0,0,2,"[0, 3, 21, 17, 9, 2]",6,13,"[1, 5, 10, 12, 13, 14, 15, 19, 22, 24, 25, 26, 28]",133.4749209,41002,184,6,7,8,1.8405337199985379
undo,8,41,1,0,0,9,"[0, 3, 21, 17, 9]",5,15,"[1, 2, 5, 10, 12, 13, 14, 15, 19, 22, 24, 25, 26, 27, 28]",145.5579669,41169,167,6,18,8,1.8767526397399956
undo,8,41,1,0,0,17,"[0, 3, 21, 17]",4,17,"[1, 2, 5, 9, 10, 12, 13, 14, 15, 19, 20, 22, 24, 25, 26, 27, 28]",176.5740917,41351,182,12,49,8,1.9471587729632955
undo,8,41,1,0,0,21,"[0, 3, 21]",3,27,"[1, 2, 4, 5, 6, 7, 8, 9, 10, 11, 12, 13, 14, 15, 16, 17, 18, 19, 20, 22, 23, 24, 25, 26, 27, 28, 29]",228.2364571,41518,167,36,222,8,1.468235756523827
undo,8,41,1,0,0,3,"[0, 3]",2,28,"[1, 2, 4, 5, 6, 7, 8, 9, 10, 11, 12, 13, 14, 15, 16, 17, 18, 19, 20, 21, 22, 23, 24, 25, 26, 27, 28, 29]",260.3767745,41784,266,2,145,9,1.0
undo,8,41,1,0,0,0,[0],1,29,"[1, 2, 3, 4, 5, 6, 7, 8, 9, 10, 11, 12, 13, 14, 15, 16, 17, 18, 19, 20, 21, 22, 23, 24, 25, 26, 27, 28, 29]",300,42251,467,1,143,10,0.0
undo,8,41,0,0,0,13,"[0, 13]",2,23,"[1, 2, 3, 5, 6, 7, 9, 10, 11, 12, 14, 15, 17, 18, 19, 20, 21, 22, 24, 25, 26, 27, 28]",258.2747079,45391,3140,1,55,10,1.0
undo,8,41,0,0,0,28,"[0, 13, 28]",3,22,"[1, 2, 3, 5, 6, 7, 9, 10, 11, 12, 14, 15, 17, 18, 19, 20, 21, 22, 24, 25, 26, 27]",223.7928286,46302,911,1,39,10,1.895724242592676
undo,8,41,0,0,0,5,"[0, 13, 28, 5]",4,19,"[1, 2, 3, 6, 9, 10, 11, 12, 14, 15, 17, 18, 19, 20, 21, 22, 24, 25, 27]",210.1913581,47110,808,1,34,10,2.861541269398273
undo,8,41,0,0,0,22,"[0, 13, 28, 5, 22]",5,12,"[2, 3, 6, 9, 10, 11, 12, 17, 18, 20, 21, 25]",155.4464953,48522,1412,11,12,9,2.096079268852861
undo,8,41,0,0,0,3,"[0, 13, 28, 5, 22, 3]",6,8,"[2, 9, 10, 12, 17, 18, 20, 21]",125.4798472,49726,1204,7,5,9,4.404491319005463
undo,8,41,0,0,0,21,"[0, 13, 28, 5, 22, 3, 21]",7,4,"[2, 9, 12, 17]",93.33952984,50614,888,5,1,9,4.228139797553632
undo,8,41,0,0,0,9,"[0, 13, 28, 5, 22, 3, 21, 9]",8,2,"[2, 17]",43.97354965,51582,968,2,0,9,3.111188754077749
undo,8,41,0,0,1,2,"[0, 13, 28, 5, 22, 3, 21, 9, 2]",9,0,[],31.89050368,52199,617,1,0,9,2.963304814480547
undo,8,41,0,1,1,2,"[0, 13, 28, 5, 22, 3, 21, 9, 2]",9,0,[],31.89050368,56233,4034,1,0,9,2.963304814480547
undo,9,20,0,0,0,0,[0],1,21,"[1, 2, 3, 4, 5, 6, 7, 8, 9, 12, 17, 18, 20, 21, 22, 23, 25, 26, 27, 28, 29]",300,179,-1,1,9,9,0.0
undo,9,20,0,0,0,12,"[0, 12]",2,20,"[1, 2, 3, 4, 5, 6, 7, 8, 9, 17, 18, 20, 21, 22, 23, 25, 26, 27, 28, 29]",271.5570747,11549,11370,1,8,9,1.0
undo,9,20,0,0,0,1,"[0, 12, 1]",3,12,"[3, 4, 5, 6, 8, 9, 20, 21, 23, 27, 28, 29]",189.5692707,13465,1916,1,6,9,1.0757997779162911
undo,9,20,0,0,0,5,"[0, 12, 1, 5]",4,10,"[4, 6, 8, 9, 20, 21, 23, 27, 28, 29]",152.8950291,15673,2208,1,5,9,1.1708231454516806
undo,9,20,0,0,0,21,"[0, 12, 1, 5, 21]",5,8,"[4, 6, 8, 9, 20, 23, 27, 28]",107.8950291,16748,1075,1,4,9,1.126197336199212
undo,9,20,0,0,0,8,"[0, 12, 1, 5, 21, 8]",6,5,"[6, 9, 23, 27, 28]",90.43077988,17932,1184,1,3,9,1.140007470699913
undo,9,20,0,0,0,23,"[0, 12, 1, 5, 21, 8, 23]",7,2,"[6, 9]",45.74297394,19257,1325,1,1,9,1.1162257896627588
undo,9,20,0,0,0,9,"[0, 12, 1, 5, 21, 8, 23, 9]",8,1,[6],26.53360123,20634,1377,1,0,9,1.1086880559449597
undo,9,20,0,0,1,6,"[0, 12, 1, 5, 21, 8, 23, 9, 6]",9,0,[],3.511872362,22033,1399,1,0,9,1.1186240265999328
undo,9,20,0,1,1,6,"[0, 12, 1, 5, 21, 8, 23, 9, 6]",9,0,[],3.511872362,24275,2242,1,0,9,1.1186240265999328
undo,10,35,0,0,0,0,[0],1,29,"[1, 2, 3, 4, 5, 6, 7, 8, 9, 10, 11, 12, 13, 14, 15, 16, 17, 18, 19, 20, 21, 22, 23, 24, 25, 26, 27, 28, 29]",300,148,-1,5,236,11,0.0
undo,10,35,0,0,0,24,"[0, 24]",2,27,"[1, 2, 4, 5, 6, 7, 8, 9, 10, 11, 12, 13, 14, 15, 16, 17, 18, 19, 20, 21, 22, 23, 25, 26, 27, 28, 29]",268.9838752,4468,4320,49,512,10,1.0
undo,10,35,0,0,0,17,"[0, 24, 17]",3,26,"[1, 2, 4, 5, 6, 7, 8, 9, 10, 11, 12, 13, 14, 15, 16, 18, 19, 20, 21, 22, 23, 25, 26, 27, 28, 29]",257.2791753,5290,822,33,238,10,1.0771477201815276
undo,10,35,0,0,0,1,"[0, 24, 17, 1]",4,25,"[2, 4, 5, 6, 7, 8, 9, 10, 11, 12, 13, 14, 15, 16, 18, 19, 20, 21, 22, 23, 25, 26, 27, 28, 29]",241.4677869,8154,2864,26,151,10,1.2244804141479215
undo,10,35,0,0,0,15,"[0, 24, 17, 1, 15]",5,23,"[2, 4, 5, 6, 7, 8, 9, 10, 11, 12, 14, 16, 18, 19, 20, 21, 22, 23, 25, 26, 27, 28, 29]",218.6204676,8994,840,26,78,10,1.4642196672428094
undo,10,35,0,0,0,23,"[0, 24, 17, 1, 15, 23]",6,11,"[4, 5, 6, 9, 18, 19, 25, 26, 27, 28, 29]",158.1804147,10272,1278,15,12,10,1.3338903684702363
undo,10,35,0,0,0,9,"[0, 24, 17, 1, 15, 23, 9]",7,6,"[5, 6, 18, 19, 25, 27]",120.5373542,11236,964,6,1,10,1.5964380615155294
undo,10,35,0,0,0,18,"[0, 24, 17, 1, 15, 23, 9, 18]",8,3,"[5, 6, 25]",100.5123698,12002,766,2,1,10,1.5508488101942703
undo,10,35,0,0,0,25,"[0, 24, 17, 1, 15, 23, 9, 18, 25]",9,1,[6],66.67452121,13232,1230,1,0,10,1.4408023801578587
undo,10,35,0,0,1,6,"[0, 24, 17, 1, 15, 23, 9, 18, 25, 6]",10,0,[],42.65369691,14018,786,1,0,10,1.701781671832088
undo,10,35,0,1,1,6,"[0, 24, 17, 1, 15, 23, 9, 18, 25, 6]",10,0,[],42.65369691,18260,4242,1,0,10,1.701781671832088
undo,11,43,0,0,0,0,[0],1,23,"[1, 2, 3, 4, 5, 6, 7, 9, 10, 11, 12, 14, 15, 16, 17, 19, 20, 21, 22, 23, 25, 27, 29]",300,147,-1,16,556,12,0.0
undo,11,43,0,0,0,29,"[0, 29]",2,22,"[1, 2, 3, 4, 5, 6, 7, 9, 10, 11, 12, 14, 15, 16, 17, 19, 20, 21, 22, 23, 25, 27]",277.909278,2530,2383,16,520,12,1.0
undo,11,43,0,0,0,20,"[0, 29, 20]",3,20,"[1, 2, 3, 4, 6, 7, 9, 10, 11, 12, 14, 15, 16, 17, 19, 21, 22, 23, 25, 27]",254.4785289,3338,808,15,422,12,1.082311746871282
undo,11,43,0,0,0,16,"[0, 29, 20, 16]",4,19,"[1, 2, 3, 4, 6, 7, 9, 10, 11, 12, 14, 15, 17, 19, 21, 22, 23, 25, 27]",231.8511119,4330,992,15,389,12,1.215201926898219
undo,11,43,0,0,0,15,"[0, 29, 20, 16, 15]",5,14,"[1, 2, 3, 4, 6, 7, 9, 11, 12, 14, 19, 22, 23, 25]",188.5267539,7362,3032,3,109,12,1.3482474915350444
undo,11,43,0,0,0,25,"[0, 29, 20, 16, 15, 25]",6,12,"[1, 3, 4, 6, 7, 9, 11, 12, 14, 19, 22, 23]",165.8551858,8305,943,2,43,12,1.691408721191545
undo,11,43,0,0,0,12,"[0, 29, 20, 16, 15, 25, 12]",7,11,"[1, 3, 4, 6, 7, 9, 11, 14, 19, 22, 23]",141.6684126,9451,1146,2,32,12,1.6015983641428178
undo,11,43,0,0,0,3,"[0, 29, 20, 16, 15, 25, 12, 3]",8,10,"[1, 4, 6, 7, 9, 11, 14, 19, 22, 23]",128.6684126,10290,839,2,24,12,1.5379830456120627
undo,11,43,0,0,0,22,"[0, 29, 20, 16, 15, 25, 12, 3, 22]",9,6,"[1, 6, 7, 11, 14, 19]",93.95530264,11274,984,1,11,12,1.7275686117408873
undo,11,43,0,0,0,19,"[0, 29, 20, 16, 15, 25, 12, 3, 22, 19]",10,4,"[1, 6, 7, 11]",73.33977451,12210,936,1,3,12,1.6315360037595275
undo,11,43,0,0,1,7,"[0, 29, 20, 16, 15, 25, 12, 3, 22, 19, 7]",11,0,[],34.22456008,15705,3495,1,0,11,1.5061543780406526
undo,11,43,0,1,1,7,"[0, 29, 20, 16, 15, 25, 12, 3, 22, 19, 7]",11,0,[],34.22456008,18444,2739,1,0,11,1.5061543780406526
undo,12,26,0,0,0,0,[0],1,29,"[1, 2, 3, 4, 5, 6, 7, 8, 9, 10, 11, 12, 13, 14, 15, 16, 17, 18, 19, 20, 21, 22, 23, 24, 25, 26, 27, 28, 29]",300,147,-1,9,226,9,0.0
undo,12,26,0,0,0,21,"[0, 21]",2,25,"[2, 3, 4, 5, 6, 7, 8, 10, 11, 12, 13, 14, 15, 16, 17, 18, 19, 22, 23, 24, 25, 26, 27, 28, 29]",211.1349337,5468,5321,7,90,9,1.0
undo,12,26,0,0,0,13,"[0, 21, 13]",3,21,"[3, 4, 5, 6, 7, 8, 10, 11, 12, 14, 15, 16, 17, 18, 19, 22, 23, 24, 25, 26, 29]",188.9989901,6901,1433,6,45,9,1.0103952279992225
undo,12,26,0,0,0,5,"[0, 21, 13, 5]",4,12,"[3, 4, 11, 14, 16, 17, 18, 22, 23, 25, 26, 29]",150.7106107,8085,1184,2,10,8,1.0086890649024711
undo,12,26,0,0,0,23,"[0, 21, 13, 5, 23]",5,8,"[3, 4, 11, 14, 16, 17, 22, 29]",118.0150452,9226,1141,2,7,8,1.3518621918690494
undo,12,26,0,0,0,16,"[0, 21, 13, 5, 23, 16]",6,4,"[4, 14, 17, 29]",64.77971862,11450,2224,2,3,8,2.1011863559657242
undo,12,26,0,0,0,29,"[0, 21, 13, 5, 23, 16, 29]",7,2,"[4, 17]",40.57228175,12516,1066,2,0,8,2.123178325538451
undo,12,26,0,0,1,4,"[0, 21, 13, 5, 23, 16, 29, 4]",8,0,[],16.57228175,13467,951,1,0,8,2.338467952972574
undo,12,26,1,0,0,29,"[0, 21, 13, 5, 23, 16, 29]",7,2,"[4, 17]",40.57228175,17044,3577,2,0,8,2.123178325538451
undo,12,26,1,0,0,16,"[0, 21, 13, 5, 23, 16]",6,4,"[4, 14, 17, 29]",64.77971862,17844,800,2,3,8,2.1011863559657242
undo,12,26,1,0,0,23,"[0, 21, 13, 5, 23]",5,8,"[3, 4, 11, 14, 16, 17, 22, 29]",118.0150452,18060,216,2,7,8,1.3518621918690494
undo,12,26,1,0,0,5,"[0, 21, 13, 5]",4,12,"[3, 4, 11, 14, 16, 17, 18, 22, 23, 25, 26, 29]",150.7106107,18227,167,2,10,8,1.0086890649024711
undo,12,26,1,0,0,13,"[0, 21, 13]",3,21,"[3, 4, 5, 6, 7, 8, 10, 11, 12, 14, 15, 16, 17, 18, 19, 22, 23, 24, 25, 26, 29]",188.9989901,18427,200,6,45,9,1.0103952279992225
undo,12,26,1,0,0,21,"[0, 21]",2,25,"[2, 3, 4, 5, 6, 7, 8, 10, 11, 12, 13, 14, 15, 16, 17, 18, 19, 22, 23, 24, 25, 26, 27, 28, 29]",211.1349337,18577,150,7,90,9,1.0
undo,12,26,1,0,0,0,[0],1,29,"[1, 2, 3, 4, 5, 6, 7, 8, 9, 10, 11, 12, 13, 14, 15, 16, 17, 18, 19, 20, 21, 22, 23, 24, 25, 26, 27, 28, 29]",300,18795,218,9,226,9,0.0
undo,12,26,0,0,0,10,"[0, 10]",2,6,"[4, 6, 14, 16, 17, 29]",138.1822012,22226,3431,9,66,7,1.0
undo,12,26,0,0,0,6,"[0, 10, 6]",3,5,"[4, 14, 16, 17, 29]",108.9076389,23386,1160,8,23,7,1.1897813099332413
undo,12,26,0,0,0,14,"[0, 10, 6, 14]",4,4,"[4, 16, 17, 29]",87.88384285,25473,2087,4,6,7,1.3162481558218453
undo,12,26,0,0,0,17,"[0, 10, 6, 14, 17]",5,3,"[4, 16, 29]",65.41163779,26490,1017,3,1,7,1.6510075497064465
undo,12,26,0,0,0,4,"[0, 10, 6, 14, 17, 4]",6,1,[29],44.31661468,27250,760,1,0,7,2.1095586782058087
undo,12,26,0,0,1,29,"[0, 10, 6, 14, 17, 4, 29]",7,0,[],20.31661468,28233,983,1,0,7,2.288952413143475
undo,12,26,1,0,0,4,"[0, 10, 6, 14, 17, 4]",6,1,[29],44.31661468,31376,3143,1,0,7,2.1095586782058087
undo,12,26,1,0,0,17,"[0, 10, 6, 14, 17]",5,3,"[4, 16, 29]",65.41163779,31559,183,3,1,7,1.6510075497064465
undo,12,26,1,0,0,14,"[0, 10, 6, 14]",4,4,"[4, 16, 17, 29]",87.88384285,31742,183,4,6,7,1.3162481558218453
undo,12,26,1,0,0,6,"[0, 10, 6]",3,5,"[4, 14, 16, 17, 29]",108.9076389,31925,183,8,23,7,1.1897813099332413
undo,12,26,1,0,0,10,"[0, 10]",2,6,"[4, 6, 14, 16, 17, 29]",138.1822012,32075,150,9,66,7,1.0
undo,12,26,1,0,0,0,[0],1,29,"[1, 2, 3, 4, 5, 6, 7, 8, 9, 10, 11, 12, 13, 14, 15, 16, 17, 18, 19, 20, 21, 22, 23, 24, 25, 26, 27, 28, 29]",300,32225,150,9,226,9,0.0
undo,12,26,0,0,0,21,"[0, 21]",2,25,"[2, 3, 4, 5, 6, 7, 8, 10, 11, 12, 13, 14, 15, 16, 17, 18, 19, 22, 23, 24, 25, 26, 27, 28, 29]",211.1349337,37213,4988,7,90,9,1.0
undo,12,26,0,0,0,13,"[0, 21, 13]",3,21,"[3, 4, 5, 6, 7, 8, 10, 11, 12, 14, 15, 16, 17, 18, 19, 22, 23, 24, 25, 26, 29]",188.9989901,38122,909,6,45,9,1.0103952279992225
undo,12,26,0,0,0,5,"[0, 21, 13, 5]",4,12,"[3, 4, 11, 14, 16, 17, 18, 22, 23, 25, 26, 29]",150.7106107,38898,776,2,10,8,1.0086890649024711
undo,12,26,0,0,0,23,"[0, 21, 13, 5, 23]",5,8,"[3, 4, 11, 14, 16, 17, 22, 29]",118.0150452,39996,1098,2,7,8,1.3518621918690494
undo,12,26,0,0,0,16,"[0, 21, 13, 5, 23, 16]",6,4,"[4, 14, 17, 29]",64.77971862,40996,1000,2,3,8,2.1011863559657242
undo,12,26,0,0,0,29,"[0, 21, 13, 5, 23, 16, 29]",7,2,"[4, 17]",40.57228175,41762,766,2,0,8,2.123178325538451
undo,12,26,0,0,1,4,"[0, 21, 13, 5, 23, 16, 29, 4]",8,0,[],16.57228175,48553,6791,1,0,8,2.338467952972574
undo,12,26,0,1,1,4,"[0, 21, 13, 5, 23, 16, 29, 4]",8,0,[],16.57228175,49955,1402,1,0,8,2.338467952972574
undo,13,38,0,0,0,0,[0],1,29,"[1, 2, 3, 4, 5, 6, 7, 8, 9, 10, 11, 12, 13, 14, 15, 16, 17, 18, 19, 20, 21, 22, 23, 24, 25, 26, 27, 28, 29]",300,146,-1,33,506,9,0.0
undo,13,38,0,0,0,19,"[0, 19]",2,23,"[3, 4, 5, 6, 7, 8, 9, 11, 13, 14, 15, 16, 17, 18, 20, 22, 23, 24, 25, 26, 27, 28, 29]",219.5015528,7533,7387,6,61,9,1.0
undo,13,38,0,0,0,17,"[0, 19, 17]",3,21,"[3, 4, 5, 6, 7, 9, 11, 13, 14, 15, 16, 18, 20, 22, 23, 24, 25, 26, 27, 28, 29]",198.1239945,8594,1061,6,53,9,1.571793785769489
undo,13,38,0,0,0,20,"[0, 19, 17, 20]",4,17,"[3, 4, 5, 6, 7, 11, 13, 14, 15, 16, 18, 22, 24, 25, 26, 27, 28]",174.3542658,9457,863,6,44,9,2.333182710277297
undo,13,38,0,0,0,13,"[0, 19, 17, 20, 13]",5,9,"[4, 11, 15, 16, 18, 24, 26, 27, 28]",125.0998244,11017,1560,1,11,9,1.7893595974504246
undo,13,38,0,0,0,4,"[0, 19, 17, 20, 13, 4]",6,6,"[11, 15, 16, 24, 26, 28]",93.69918748,11753,736,1,6,9,2.942354535547757
undo,13,38,0,0,0,15,"[0, 19, 17, 20, 13, 4, 15]",7,4,"[11, 16, 26, 28]",67.69918748,12921,1168,1,3,9,3.165907365359093
undo,13,38,0,0,0,11,"[0, 19, 17, 20, 13, 4, 15, 11]",8,1,[28],31.29863803,14164,1243,1,0,9,3.362710012119994
undo,13,38,0,0,1,28,"[0, 19, 17, 20, 13, 4, 15, 11, 28]",9,0,[],4.280125857,15674,1510,1,0,9,2.7690631991189285
undo,13,38,0,1,1,28,"[0, 19, 17, 20, 13, 4, 15, 11, 28]",9,0,[],4.280125857,17177,1503,1,0,9,2.7690631991189285
undo,14,0,0,0,0,0,[0],1,27,"[2, 3, 4, 5, 6, 7, 8, 9, 10, 11, 12, 13, 14, 15, 16, 17, 19, 20, 21, 22, 23, 24, 25, 26, 27, 28, 29]",300,147,-1,104,1136,9,0.0
undo,14,0,0,0,0,5,"[0, 5]",2,24,"[2, 3, 4, 7, 8, 9, 11, 12, 13, 14, 15, 16, 17, 19, 20, 21, 22, 23, 24, 25, 26, 27, 28, 29]",164.5156836,4973,4826,5,112,9,1.0
undo,14,0,0,0,0,4,"[0, 5, 4]",3,20,"[2, 3, 7, 8, 9, 11, 12, 13, 14, 15, 17, 19, 20, 21, 22, 23, 24, 25, 26, 28]",139.4358112,6478,1505,4,61,9,1.0257023158632692
undo,14,0,0,0,0,26,"[0, 5, 4, 26]",4,18,"[3, 7, 8, 9, 11, 12, 13, 14, 15, 17, 19, 20, 21, 22, 23, 24, 25, 28]",127.3942166,7485,1007,4,26,9,1.0684029773259323
undo,14,0,0,0,0,24,"[0, 5, 4, 26, 24]",5,12,"[3, 7, 8, 9, 11, 12, 15, 17, 19, 20, 23, 28]",110.2769738,8405,920,4,16,9,1.1372083333602885
undo,14,0,0,0,0,15,"[0, 5, 4, 26, 24, 15]",6,8,"[3, 7, 8, 9, 11, 12, 17, 19]",86.93173875,9412,1007,4,7,9,1.1271717591548023
undo,14,0,0,0,0,7,"[0, 5, 4, 26, 24, 15, 7]",7,4,"[3, 8, 17, 19]",55.86728962,10605,1193,3,2,9,1.190834598819092
undo,14,0,0,0,0,8,"[0, 5, 4, 26, 24, 15, 7, 8]",8,2,"[3, 19]",36.76231644,11469,864,2,0,9,1.1832849301094388
undo,14,0,0,0,1,19,"[0, 5, 4, 26, 24, 15, 7, 8, 19]",9,0,[],0.915419783,13285,1816,1,0,9,1.2048016585679566
undo,14,0,1,0,0,8,"[0, 5, 4, 26, 24, 15, 7, 8]",8,2,"[3, 19]",36.76231644,17928,4643,2,0,9,1.1832849301094388
undo,14,0,1,0,0,7,"[0, 5, 4, 26, 24, 15, 7]",7,4,"[3, 8, 17, 19]",55.86728962,18111,183,3,2,9,1.190834598819092
undo,14,0,1,0,0,15,"[0, 5, 4, 26, 24, 15]",6,8,"[3, 7, 8, 9, 11, 12, 17, 19]",86.93173875,18311,200,4,7,9,1.1271717591548023
undo,14,0,1,0,0,24,"[0, 5, 4, 26, 24]",5,12,"[3, 7, 8, 9, 11, 12, 15, 17, 19, 20, 23, 28]",110.2769738,18427,116,4,16,9,1.1372083333602885
undo,14,0,1,0,0,26,"[0, 5, 4, 26]",4,18,"[3, 7, 8, 9, 11, 12, 13, 14, 15, 17, 19, 20, 21, 22, 23, 24, 25, 28]",127.3942166,18611,184,4,26,9,1.0684029773259323
undo,14,0,1,0,0,4,"[0, 5, 4]",3,20,"[2, 3, 7, 8, 9, 11, 12, 13, 14, 15, 17, 19, 20, 21, 22, 23, 24, 25, 26, 28]",139.4358112,18811,200,4,61,9,1.0257023158632692
undo,14,0,1,0,0,5,"[0, 5]",2,24,"[2, 3, 4, 7, 8, 9, 11, 12, 13, 14, 15, 16, 17, 19, 20, 21, 22, 23, 24, 25, 26, 27, 28, 29]",164.5156836,19160,349,5,112,9,1.0
undo,14,0,1,0,0,0,[0],1,27,"[2, 3, 4, 5, 6, 7, 8, 9, 10, 11, 12, 13, 14, 15, 16, 17, 19, 20, 21, 22, 23, 24, 25, 26, 27, 28, 29]",300,19360,200,104,1136,9,0.0
undo,14,0,0,0,0,28,"[0, 28]",2,26,"[2, 3, 4, 5, 6, 7, 8, 9, 10, 11, 12, 13, 14, 15, 16, 17, 19, 20, 21, 22, 23, 24, 25, 26, 27, 29]",194.9190788,22464,3104,39,388,9,1.0
undo,14,0,0,0,0,12,"[0, 28, 12]",3,19,"[3, 4, 5, 7, 8, 9, 10, 11, 13, 14, 15, 17, 19, 20, 21, 22, 23, 24, 26]",141.7683497,23864,1400,3,43,9,1.0142012686492925
undo,14,0,0,0,0,26,"[0, 28, 12, 26]",4,14,"[3, 4, 5, 7, 8, 9, 11, 14, 15, 17, 19, 20, 23, 24]",106.5405198,24798,934,3,25,9,1.1974841199765223
undo,14,0,0,0,0,4,"[0, 28, 12, 26, 4]",5,11,"[3, 5, 7, 8, 9, 11, 15, 17, 20, 23, 24]",94.49892525,26669,1871,3,13,9,1.3127642586979258
undo,14,0,0,0,0,5,"[0, 28, 12, 26, 4, 5]",6,4,"[11, 15, 20, 24]",69.41905284,27421,752,1,3,8,1.7019013951311428
undo,14,0,0,0,0,24,"[0, 28, 12, 26, 4, 5, 24]",7,1,[15],36.66237413,28646,1225,1,0,8,1.5784575474301492
undo,14,0,0,0,1,15,"[0, 28, 12, 26, 4, 5, 24, 15]",8,0,[],13.31713907,29869,1223,1,0,8,1.516607038412201
undo,14,0,1,0,0,24,"[0, 28, 12, 26, 4, 5, 24]",7,1,[15],36.66237413,33342,3473,1,0,8,1.5784575474301492
undo,14,0,1,0,0,5,"[0, 28, 12, 26, 4, 5]",6,4,"[11, 15, 20, 24]",69.41905284,33559,217,1,3,8,1.7019013951311428
undo,14,0,1,0,0,4,"[0, 28, 12, 26, 4]",5,11,"[3, 5, 7, 8, 9, 11, 15, 17, 20, 23, 24]",94.49892525,33709,150,3,13,9,1.3127642586979258
undo,14,0,1,0,0,26,"[0, 28, 12, 26]",4,14,"[3, 4, 5, 7, 8, 9, 11, 14, 15, 17, 19, 20, 23, 24]",106.5405198,33891,182,3,25,9,1.1974841199765223
undo,14,0,1,0,0,12,"[0, 28, 12]",3,19,"[3, 4, 5, 7, 8, 9, 10, 11, 13, 14, 15, 17, 19, 20, 21, 22, 23, 24, 26]",141.7683497,34041,150,3,43,9,1.0142012686492925
undo,14,0,1,0,0,28,"[0, 28]",2,26,"[2, 3, 4, 5, 6, 7, 8, 9, 10, 11, 12, 13, 14, 15, 16, 17, 19, 20, 21, 22, 23, 24, 25, 26, 27, 29]",194.9190788,34224,183,39,388,9,1.0
undo,14,0,1,0,0,0,[0],1,27,"[2, 3, 4, 5, 6, 7, 8, 9, 10, 11, 12, 13, 14, 15, 16, 17, 19, 20, 21, 22, 23, 24, 25, 26, 27, 28, 29]",300,34758,534,104,1136,9,0.0
undo,14,0,0,0,0,20,"[0, 20]",2,25,"[2, 3, 4, 5, 6, 7, 8, 9, 11, 12, 13, 14, 15, 16, 17, 19, 21, 22, 23, 24, 25, 26, 27, 28, 29]",215.4955622,39117,4359,36,372,9,1.0
undo,14,0,0,0,0,5,"[0, 20, 5]",3,22,"[2, 3, 4, 7, 8, 9, 11, 12, 13, 14, 15, 16, 17, 19, 21, 22, 23, 24, 25, 26, 28, 29]",153.2942761,40389,1272,33,251,9,1.0828244018179105
undo,14,0,0,0,0,4,"[0, 20, 5, 4]",4,19,"[2, 3, 7, 8, 9, 11, 12, 13, 14, 15, 17, 19, 21, 22, 23, 24, 25, 26, 28]",128.2144037,41268,879,21,127,9,1.0973859443611045
undo,14,0,0,0,0,26,"[0, 20, 5, 4, 26]",5,14,"[3, 7, 8, 9, 11, 12, 13, 14, 15, 17, 19, 23, 24, 28]",116.1728091,42005,737,9,63,9,1.1378617460104323
undo,14,0,0,0,0,24,"[0, 20, 5, 4, 26, 24]",6,11,"[3, 7, 8, 9, 11, 12, 15, 17, 19, 23, 28]",99.05556633,42853,848,9,24,9,1.204469953325506
undo,14,0,0,0,0,15,"[0, 20, 5, 4, 26, 24, 15]",7,8,"[3, 7, 8, 9, 11, 12, 17, 19]",75.71033127,43837,984,5,6,9,1.1865351459643638
undo,14,0,0,0,0,7,"[0, 20, 5, 4, 26, 24, 15, 7]",8,2,"[3, 8]",44.64588214,45662,1825,2,0,9,1.2455705670301183
undo,14,0,0,0,1,3,"[0, 20, 5, 4, 26, 24, 15, 7, 3]",9,0,[],20.56269298,46668,1006,1,0,9,1.289153914533821
undo,14,0,0,1,1,3,"[0, 20, 5, 4, 26, 24, 15, 7, 3]",9,0,[],20.56269298,50523,3855,1,0,9,1.289153914533821
undo,15,22,0,0,0,0,[0],1,29,"[1, 2, 3, 4, 5, 6, 7, 8, 9, 10, 11, 12, 13, 14, 15, 16, 17, 18, 19, 20, 21, 22, 23, 24, 25, 26, 27, 28, 29]",300,148,-1,31,704,9,0.0
undo,15,22,0,0,0,16,"[0, 16]",2,21,"[1, 3, 6, 7, 8, 9, 11, 13, 14, 15, 17, 18, 19, 20, 21, 22, 24, 25, 27, 28, 29]",218.605897,10311,10163,17,147,9,1.0
undo,15,22,0,0,0,28,"[0, 16, 28]",3,13,"[6, 7, 9, 13, 14, 17, 19, 20, 21, 22, 24, 25, 29]",184.1675463,11638,1327,12,61,9,1.047282311284478
undo,15,22,0,0,0,6,"[0, 16, 28, 6]",4,12,"[7, 9, 13, 14, 17, 19, 20, 21, 22, 24, 25, 29]",154.1675463,12527,889,12,43,9,1.645645870580622
undo,15,22,0,0,0,9,"[0, 16, 28, 6, 9]",5,8,"[7, 14, 17, 19, 20, 21, 24, 29]",127.5404924,13417,890,8,17,9,1.925750226630103
undo,15,22,0,0,0,19,"[0, 16, 28, 6, 9, 19]",6,6,"[7, 14, 17, 21, 24, 29]",107.1444143,14438,1021,3,7,9,2.4220750331476455
undo,15,22,0,0,0,29,"[0, 16, 28, 6, 9, 19, 29]",7,4,"[7, 14, 17, 24]",92.11111796,16478,2040,2,2,9,2.6996279574991067
undo,15,22,0,0,0,7,"[0, 16, 28, 6, 9, 19, 29, 7]",8,1,[14],41.0327468,17927,1449,1,0,9,2.059125386946491
undo,15,22,0,0,1,14,"[0, 16, 28, 6, 9, 19, 29, 7, 14]",9,0,[],27.99434199,18918,991,1,0,9,2.0997569104205307
undo,15,22,0,1,1,14,"[0, 16, 28, 6, 9, 19, 29, 7, 14]",9,0,[],27.99434199,20627,1709,1,0,9,2.0997569104205307
undo,16,27,0,0,0,0,[0],1,26,"[1, 3, 5, 6, 7, 8, 9, 10, 11, 12, 13, 14, 15, 16, 17, 18, 19, 21, 22, 23, 24, 25, 26, 27, 28, 29]",300,147,-1,13,578,11,0.0
undo,16,27,0,0,0,15,"[0, 15]",2,24,"[1, 3, 5, 6, 7, 8, 9, 10, 11, 12, 13, 14, 16, 17, 18, 19, 21, 22, 23, 24, 25, 26, 27, 29]",263.7508621,3402,3255,6,219,11,1.0
undo,16,27,0,0,0,24,"[0, 15, 24]",3,20,"[1, 5, 6, 7, 8, 9, 10, 12, 13, 14, 16, 17, 18, 19, 21, 23, 25, 26, 27, 29]",246.5462115,4808,1406,6,130,11,1.130933077698322
undo,16,27,0,0,0,17,"[0, 15, 24, 17]",4,15,"[1, 6, 8, 10, 12, 13, 14, 16, 18, 19, 23, 25, 26, 27, 29]",229.9932662,5823,1015,4,60,11,1.1285538435963374
undo,16,27,0,0,0,12,"[0, 15, 24, 17, 12]",5,14,"[1, 6, 8, 10, 13, 14, 16, 18, 19, 23, 25, 26, 27, 29]",218.8129263,6703,880,2,32,11,1.2561880288755216
undo,16,27,0,0,0,10,"[0, 15, 24, 17, 12, 10]",6,11,"[1, 8, 13, 14, 18, 19, 23, 25, 26, 27, 29]",207.7675653,7519,816,2,28,11,1.2228289337766665
undo,16,27,0,0,0,13,"[0, 15, 24, 17, 12, 10, 13]",7,9,"[1, 8, 14, 18, 19, 23, 26, 27, 29]",167.9178476,10352,2833,2,18,11,1.3421291994761178
undo,16,27,0,0,0,19,"[0, 15, 24, 17, 12, 10, 13, 19]",8,5,"[1, 8, 14, 23, 29]",131.6825057,11855,1503,2,6,11,1.294749956153846
undo,16,27,0,0,0,8,"[0, 15, 24, 17, 12, 10, 13, 19, 8]",9,3,"[14, 23, 29]",116.816437,12744,889,2,1,11,1.3554286578836865
undo,16,27,0,0,0,29,"[0, 15, 24, 17, 12, 10, 13, 19, 8, 29]",10,1,[14],57.61339652,16399,3655,1,0,11,1.248354519573802
undo,16,27,0,0,1,14,"[0, 15, 24, 17, 12, 10, 13, 19, 8, 29, 14]",11,0,[],13.31892734,17816,1417,1,0,11,1.562811097555156
undo,16,27,0,1,1,14,"[0, 15, 24, 17, 12, 10, 13, 19, 8, 29, 14]",11,0,[],13.31892734,20259,2443,1,0,11,1.562811097555156
undo,17,31,0,0,0,0,[0],1,27,"[1, 3, 4, 5, 6, 7, 8, 10, 11, 12, 13, 14, 15, 16, 17, 18, 19, 20, 21, 22, 23, 24, 25, 26, 27, 28, 29]",300,146,-1,2,87,10,0.0
undo,17,31,0,0,0,14,"[0, 14]",2,25,"[1, 3, 5, 6, 7, 8, 10, 11, 12, 13, 15, 16, 17, 18, 19, 20, 21, 22, 23, 24, 25, 26, 27, 28, 29]",263.861378,2559,2413,2,59,10,1.0
undo,17,31,0,0,0,27,"[0, 14, 27]",3,22,"[1, 3, 5, 6, 7, 8, 10, 11, 12, 13, 15, 16, 17, 18, 19, 20, 21, 22, 24, 25, 28, 29]",235.6833724,4471,1912,1,39,10,1.5881859159302467
undo,17,31,0,0,0,8,"[0, 14, 27, 8]",4,20,"[1, 3, 5, 6, 7, 10, 11, 12, 13, 16, 17, 18, 19, 20, 21, 22, 24, 25, 28, 29]",224.6380114,5359,888,1,36,10,2.1665048452331277
undo,17,31,0,0,0,18,"[0, 14, 27, 8, 18]",5,15,"[1, 5, 6, 7, 11, 12, 13, 16, 17, 19, 20, 22, 25, 28, 29]",188.7911147,6695,1336,1,26,10,1.7273375741920205
undo,17,31,0,0,0,17,"[0, 14, 27, 8, 18, 17]",6,13,"[1, 5, 6, 7, 11, 12, 13, 16, 19, 20, 22, 25, 28]",159.584951,7823,1128,1,13,10,1.551192427769927
undo,17,31,0,0,0,11,"[0, 14, 27, 8, 18, 17, 11]",7,7,"[5, 12, 16, 19, 22, 25, 28]",118.4753414,8927,1104,1,4,10,2.9650760544203494
undo,17,31,0,0,0,5,"[0, 14, 27, 8, 18, 17, 11, 5]",8,2,"[16, 28]",74.79468207,10559,1632,1,1,10,2.56711965625205
undo,17,31,0,0,0,28,"[0, 14, 27, 8, 18, 17, 11, 5, 28]",9,1,[16],54.57093365,11450,891,1,0,10,2.2865510762058148
undo,17,31,0,0,1,16,"[0, 14, 27, 8, 18, 17, 11, 5, 28, 16]",10,0,[],20.95546102,13119,1669,1,0,10,2.089356850786318
undo,17,31,0,1,1,16,"[0, 14, 27, 8, 18, 17, 11, 5, 28, 16]",10,0,[],20.95546102,14643,1524,1,0,10,2.089356850786318
undo,18,13,0,0,0,0,[0],1,29,"[1, 2, 3, 4, 5, 6, 7, 8, 9, 10, 11, 12, 13, 14, 15, 16, 17, 18, 19, 20, 21, 22, 23, 24, 25, 26, 27, 28, 29]",300,147,-1,60,2676,11,0.0
undo,18,13,0,0,0,24,"[0, 24]",2,28,"[1, 2, 3, 4, 5, 6, 7, 8, 9, 10, 11, 12, 13, 14, 15, 16, 17, 18, 19, 20, 21, 22, 23, 25, 26, 27, 28, 29]",288.8196601,5871,5724,16,1444,11,1.0
undo,18,13,0,0,0,28,"[0, 24, 28]",3,23,"[1, 2, 3, 4, 6, 7, 8, 9, 10, 11, 12, 13, 15, 16, 17, 19, 20, 21, 22, 23, 26, 27, 29]",222.5324064,7927,2056,8,243,11,1.0513810491680837
undo,18,13,0,0,0,2,"[0, 24, 28, 2]",4,19,"[1, 3, 4, 6, 7, 9, 11, 12, 13, 15, 16, 17, 19, 20, 21, 23, 26, 27, 29]",184.889346,9367,1440,7,110,11,1.050374132001543
undo,18,13,0,0,0,29,"[0, 24, 28, 2, 29]",5,18,"[1, 3, 4, 6, 7, 9, 11, 12, 13, 15, 16, 17, 19, 20, 21, 23, 26, 27]",173.1846461,10800,1433,7,85,11,1.1393409619120594
undo,18,13,0,0,0,7,"[0, 24, 28, 2, 29, 7]",6,17,"[1, 3, 4, 6, 9, 11, 12, 13, 15, 16, 17, 19, 20, 21, 23, 26, 27]",157.9203086,11666,866,5,45,11,1.349777315111579
undo,18,13,0,0,0,26,"[0, 24, 28, 2, 29, 7, 26]",7,16,"[1, 3, 4, 6, 9, 11, 12, 13, 15, 16, 17, 19, 20, 21, 23, 27]",147.480002,12222,556,5,25,11,1.5942082773824946
undo,18,13,0,0,0,6,"[0, 24, 28, 2, 29, 7, 26, 6]",8,12,"[1, 3, 4, 11, 13, 15, 16, 17, 19, 20, 23, 27]",127.3802508,13279,1057,4,12,11,1.5898347940840756
undo,18,13,0,0,0,11,"[0, 24, 28, 2, 29, 7, 26, 6, 11]",9,6,"[1, 13, 15, 16, 17, 23]",108.2752776,14233,954,3,4,11,1.5029953945561012
undo,18,13,0,0,0,17,"[0, 24, 28, 2, 29, 7, 26, 6, 11, 17]",10,1,[13],36.68617231,16119,1886,1,0,11,1.324993060397683
undo,18,13,0,0,1,13,"[0, 24, 28, 2, 29, 7, 26, 6, 11, 17, 13]",11,0,[],3.309533775,17098,979,1,0,11,1.6349870606446535
undo,18,13,0,1,1,13,"[0, 24, 28, 2, 29, 7, 26, 6, 11, 17, 13]",11,0,[],3.309533775,18994,1896,1,0,11,1.6349870606446535
undo,19,40,0,0,0,0,[0],1,29,"[1, 2, 3, 4, 5, 6, 7, 8, 9, 10, 11, 12, 13, 14, 15, 16, 17, 18, 19, 20, 21, 22, 23, 24, 25, 26, 27, 28, 29]",300,149,-1,8,191,9,0.0
undo,19,40,0,0,0,1,"[0, 1]",2,18,"[2, 5, 6, 7, 8, 9, 10, 11, 13, 15, 17, 18, 19, 21, 22, 23, 27, 29]",247.8463808,4971,4822,4,80,9,1.0
undo,19,40,0,0,0,6,"[0, 1, 6]",3,17,"[2, 5, 7, 8, 9, 10, 11, 13, 15, 17, 18, 19, 21, 22, 23, 27, 29]",227.7466295,5939,968,4,74,9,1.0459427008232034
undo,19,40,0,0,0,21,"[0, 1, 6, 21]",4,8,"[2, 5, 9, 17, 18, 19, 22, 23]",175.7754837,8011,2072,4,25,9,1.0308822257404064
undo,19,40,0,0,0,9,"[0, 1, 6, 21, 9]",5,6,"[2, 5, 18, 19, 22, 23]",130.0699041,9101,1090,4,12,9,1.377861912961129
undo,19,40,0,0,0,18,"[0, 1, 6, 21, 9, 18]",6,5,"[2, 5, 19, 22, 23]",113.5169588,9955,854,4,4,9,1.5742712168661408
undo,19,40,0,0,0,5,"[0, 1, 6, 21, 9, 18, 5]",7,3,"[19, 22, 23]",81.94165198,11122,1167,2,1,9,1.7730665063055515
undo,19,40,0,0,0,23,"[0, 1, 6, 21, 9, 18, 5, 23]",8,1,[19],53.63970859,11922,800,1,0,9,2.597442759912231
undo,19,40,0,0,1,19,"[0, 1, 6, 21, 9, 18, 5, 23, 19]",9,0,[],21.68661797,12859,937,1,0,9,2.7128328554069565
undo,19,40,1,0,0,23,"[0, 1, 6, 21, 9, 18, 5, 23]",8,1,[19],53.63970859,16395,3536,1,0,9,2.597442759912231
undo,19,40,1,0,0,5,"[0, 1, 6, 21, 9, 18, 5]",7,3,"[19, 22, 23]",81.94165198,16745,350,2,1,9,1.7730665063055515
undo,19,40,1,0,0,18,"[0, 1, 6, 21, 9, 18]",6,5,"[2, 5, 19, 22, 23]",113.5169588,16929,184,4,4,9,1.5742712168661408
undo,19,40,1,0,0,9,"[0, 1, 6, 21, 9]",5,6,"[2, 5, 18, 19, 22, 23]",130.0699041,17079,150,4,12,9,1.377861912961129
undo,19,40,1,0,0,21,"[0, 1, 6, 21]",4,8,"[2, 5, 9, 17, 18, 19, 22, 23]",175.7754837,17246,167,4,25,9,1.0308822257404064
undo,19,40,1,0,0,6,"[0, 1, 6]",3,17,"[2, 5, 7, 8, 9, 10, 11, 13, 15, 17, 18, 19, 21, 22, 23, 27, 29]",227.7466295,17412,166,4,74,9,1.0459427008232034
undo,19,40,1,0,0,1,"[0, 1]",2,18,"[2, 5, 6, 7, 8, 9, 10, 11, 13, 15, 17, 18, 19, 21, 22, 23, 27, 29]",247.8463808,17595,183,4,80,9,1.0
undo,19,40,1,0,0,0,[0],1,29,"[1, 2, 3, 4, 5, 6, 7, 8, 9, 10, 11, 12, 13, 14, 15, 16, 17, 18, 19, 20, 21, 22, 23, 24, 25, 26, 27, 28, 29]",300,18062,467,8,191,9,0.0
undo,19,40,0,0,0,2,"[0, 2]",2,28,"[1, 3, 4, 5, 6, 7, 8, 9, 10, 11, 12, 13, 14, 15, 16, 17, 18, 19, 20, 21, 22, 23, 24, 25, 26, 27, 28, 29]",263.7646581,23138,5076,4,79,9,1.0
undo,19,40,0,0,0,19,"[0, 2, 19]",3,22,"[1, 5, 6, 7, 8, 9, 10, 11, 13, 14, 15, 17, 18, 20, 21, 22, 23, 24, 25, 26, 27, 29]",194.4249148,24500,1362,19,105,8,1.02908296307533
undo,19,40,1,0,0,2,"[0, 2]",2,28,"[1, 3, 4, 5, 6, 7, 8, 9, 10, 11, 12, 13, 14, 15, 16, 17, 18, 19, 20, 21, 22, 23, 24, 25, 26, 27, 28, 29]",263.7646581,32592,8092,4,79,9,1.0
undo,19,40,1,0,0,0,[0],1,29,"[1, 2, 3, 4, 5, 6, 7, 8, 9, 10, 11, 12, 13, 14, 15, 16, 17, 18, 19, 20, 21, 22, 23, 24, 25, 26, 27, 28, 29]",300,32775,183,8,191,9,0.0
undo,19,40,0,0,0,27,"[0, 27]",2,12,"[5, 7, 8, 11, 14, 19, 20, 22, 24, 25, 26, 29]",113.5382077,34298,1523,3,16,5,1.0
undo,19,40,0,0,0,7,"[0, 27, 7]",3,5,"[8, 14, 22, 24, 29]",87.98434299,35802,1504,2,3,5,1.0694639101306462
undo,19,40,0,0,1,24,"[0, 27, 7, 24]",4,0,[],10.08697461,37418,1616,1,0,4,1.0555699980439581
undo,19,40,1,0,0,7,"[0, 27, 7]",3,5,"[8, 14, 22, 24, 29]",87.98434299,40542,3124,2,3,5,1.0694639101306462
undo,19,40,1,0,0,27,"[0, 27]",2,12,"[5, 7, 8, 11, 14, 19, 20, 22, 24, 25, 26, 29]",113.5382077,40692,150,3,16,5,1.0
undo,19,40,1,0,0,0,[0],1,29,"[1, 2, 3, 4, 5, 6, 7, 8, 9, 10, 11, 12, 13, 14, 15, 16, 17, 18, 19, 20, 21, 22, 23, 24, 25, 26, 27, 28, 29]",300,40909,217,8,191,9,0.0
undo,19,40,0,0,0,1,"[0, 1]",2,18,"[2, 5, 6, 7, 8, 9, 10, 11, 13, 15, 17, 18, 19, 21, 22, 23, 27, 29]",247.8463808,44780,3871,4,80,9,1.0
undo,19,40,0,0,0,6,"[0, 1, 6]",3,17,"[2, 5, 7, 8, 9, 10, 11, 13, 15, 17, 18, 19, 21, 22, 23, 27, 29]",227.7466295,45634,854,4,74,9,1.0459427008232034
undo,19,40,0,0,0,21,"[0, 1, 6, 21]",4,8,"[2, 5, 9, 17, 18, 19, 22, 23]",175.7754837,46546,912,4,25,9,1.0308822257404064
undo,19,40,0,0,0,9,"[0, 1, 6, 21, 9]",5,6,"[2, 5, 18, 19, 22, 23]",130.0699041,47666,1120,4,12,9,1.377861912961129
undo,19,40,0,0,0,18,"[0, 1, 6, 21, 9, 18]",6,5,"[2, 5, 19, 22, 23]",113.5169588,48498,832,4,4,9,1.5742712168661408
undo,19,40,0,0,0,5,"[0, 1, 6, 21, 9, 18, 5]",7,3,"[19, 22, 23]",81.94165198,49866,1368,2,1,9,1.7730665063055515
undo,19,40,0,0,0,23,"[0, 1, 6, 21, 9, 18, 5, 23]",8,1,[19],53.63970859,50787,921,1,0,9,2.597442759912231
undo,19,40,0,0,1,19,"[0, 1, 6, 21, 9, 18, 5, 23, 19]",9,0,[],21.68661797,53012,2225,1,0,9,2.7128328554069565
undo,19,40,0,1,1,19,"[0, 1, 6, 21, 9, 18, 5, 23, 19]",9,0,[],21.68661797,54290,1278,1,0,9,2.7128328554069565
undo,20,17,0,0,0,0,[0],1,28,"[1, 2, 3, 4, 5, 6, 7, 8, 9, 10, 11, 12, 13, 14, 15, 16, 17, 18, 19, 20, 22, 23, 24, 25, 26, 27, 28, 29]",300,146,-1,2,73,8,0.0
undo,20,17,0,0,0,9,"[0, 9]",2,25,"[1, 2, 3, 5, 6, 7, 8, 10, 11, 12, 14, 15, 16, 17, 18, 19, 20, 22, 23, 24, 25, 26, 27, 28, 29]",210.5293344,3413,3267,1,34,8,1.0
undo,20,17,0,0,0,16,"[0, 9, 16]",3,21,"[1, 2, 3, 5, 7, 8, 10, 11, 12, 14, 17, 18, 19, 20, 22, 23, 25, 26, 27, 28, 29]",197.1876704,4141,728,1,26,8,1.173103464220352
undo,20,17,0,0,0,2,"[0, 9, 16, 2]",4,18,"[1, 3, 5, 7, 8, 10, 11, 12, 14, 17, 18, 19, 23, 25, 26, 27, 28, 29]",181.0631549,4751,610,1,23,8,1.14825089247282
undo,20,17,0,0,0,17,"[0, 9, 16, 2, 17]",5,7,"[7, 8, 12, 14, 26, 27, 29]",142.7356191,5862,1111,4,5,7,1.4896040699768547
undo,20,17,0,0,0,8,"[0, 9, 16, 2, 17, 8]",6,3,"[7, 12, 27]",104.5256727,7317,1455,3,0,7,1.4604726966175894
undo,20,17,0,0,1,7,"[0, 9, 16, 2, 17, 8, 7]",7,0,[],33.81499459,9661,2344,1,0,7,1.4474701869793896
undo,20,17,1,0,0,8,"[0, 9, 16, 2, 17, 8]",6,3,"[7, 12, 27]",104.5256727,15811,6150,3,0,7,1.4604726966175894
undo,20,17,1,0,0,17,"[0, 9, 16, 2, 17]",5,7,"[7, 8, 12, 14, 26, 27, 29]",142.7356191,15978,167,4,5,7,1.4896040699768547
undo,20,17,1,0,0,2,"[0, 9, 16, 2]",4,18,"[1, 3, 5, 7, 8, 10, 11, 12, 14, 17, 18, 19, 23, 25, 26, 27, 28, 29]",181.0631549,16194,216,1,23,8,1.14825089247282
undo,20,17,1,0,0,16,"[0, 9, 16]",3,21,"[1, 2, 3, 5, 7, 8, 10, 11, 12, 14, 17, 18, 19, 20, 22, 23, 25, 26, 27, 28, 29]",197.1876704,16310,116,1,26,8,1.173103464220352
undo,20,17,1,0,0,9,"[0, 9]",2,25,"[1, 2, 3, 5, 6, 7, 8, 10, 11, 12, 14, 15, 16, 17, 18, 19, 20, 22, 23, 24, 25, 26, 27, 28, 29]",210.5293344,16678,368,1,34,8,1.0
undo,20,17,1,0,0,0,[0],1,28,"[1, 2, 3, 4, 5, 6, 7, 8, 9, 10, 11, 12, 13, 14, 15, 16, 17, 18, 19, 20, 22, 23, 24, 25, 26, 27, 28, 29]",300,16960,282,2,73,8,0.0
undo,20,17,0,0,0,9,"[0, 9]",2,25,"[1, 2, 3, 5, 6, 7, 8, 10, 11, 12, 14, 15, 16, 17, 18, 19, 20, 22, 23, 24, 25, 26, 27, 28, 29]",210.5293344,28108,11148,1,34,8,1.0
undo,20,17,0,0,0,16,"[0, 9, 16]",3,21,"[1, 2, 3, 5, 7, 8, 10, 11, 12, 14, 17, 18, 19, 20, 22, 23, 25, 26, 27, 28, 29]",197.1876704,28845,737,1,26,8,1.173103464220352
undo,20,17,0,0,0,17,"[0, 9, 16, 17]",4,9,"[2, 7, 8, 10, 12, 14, 26, 27, 29]",155.5103384,30724,1879,2,9,7,1.3686022655428802
undo,20,17,0,0,0,2,"[0, 9, 16, 17, 2]",5,4,"[7, 8, 10, 27]",117.1828026,31948,1224,1,3,7,1.764970391617776
undo,20,17,0,0,0,8,"[0, 9, 16, 17, 2, 8]",6,1,[7],82.06870286,32846,898,1,0,7,1.6282583682866314
undo,20,17,0,0,1,7,"[0, 9, 16, 17, 2, 8, 7]",7,0,[],11.35802474,34635,1789,1,0,7,1.5695874876804634
undo,20,17,0,1,1,7,"[0, 9, 16, 17, 2, 8, 7]",7,0,[],11.35802474,36374,1739,1,0,7,1.5695874876804634
undo,21,1,0,0,0,0,[0],1,26,"[1, 2, 4, 5, 7, 8, 9, 10, 11, 12, 13, 14, 15, 16, 17, 18, 19, 20, 21, 22, 23, 24, 25, 26, 28, 29]",300,151,-1,6,74,7,0.0
undo,21,1,0,0,0,14,"[0, 14]",2,19,"[1, 4, 5, 8, 9, 13, 15, 17, 18, 19, 20, 21, 22, 23, 24, 25, 26, 28, 29]",200.1901808,2428,2277,5,42,7,1.0
undo,21,1,0,0,0,17,"[0, 14, 17]",3,15,"[1, 4, 5, 8, 9, 13, 15, 18, 19, 20, 22, 23, 25, 28, 29]",147.8356204,3571,1143,5,27,7,1.0028844724416826
undo,21,1,0,0,0,1,"[0, 14, 17, 1]",4,12,"[4, 5, 8, 9, 15, 18, 20, 22, 23, 25, 28, 29]",123.4840291,4452,881,5,15,7,1.0264985578353567
undo,21,1,0,0,0,28,"[0, 14, 17, 1, 28]",5,5,"[9, 15, 22, 23, 29]",88.59850198,5387,935,5,3,7,1.0339861575999345
undo,21,1,0,0,0,23,"[0, 14, 17, 1, 28, 23]",6,2,"[15, 22]",51.70676849,6444,1057,2,0,7,1.0327458250705703
undo,21,1,0,0,1,15,"[0, 14, 17, 1, 28, 23, 15]",7,0,[],20.81987807,7603,1159,1,0,7,1.1948681641401226
undo,21,1,1,0,0,23,"[0, 14, 17, 1, 28, 23]",6,2,"[15, 22]",51.70676849,11279,3676,2,0,7,1.0327458250705703
undo,21,1,1,0,0,28,"[0, 14, 17, 1, 28]",5,5,"[9, 15, 22, 23, 29]",88.59850198,11479,200,5,3,7,1.0339861575999345
undo,21,1,1,0,0,1,"[0, 14, 17, 1]",4,12,"[4, 5, 8, 9, 15, 18, 20, 22, 23, 25, 28, 29]",123.4840291,11612,133,5,15,7,1.0264985578353567
undo,21,1,1,0,0,17,"[0, 14, 17]",3,15,"[1, 4, 5, 8, 9, 13, 15, 18, 19, 20, 22, 23, 25, 28, 29]",147.8356204,11829,217,5,27,7,1.0028844724416826
undo,21,1,1,0,0,14,"[0, 14]",2,19,"[1, 4, 5, 8, 9, 13, 15, 17, 18, 19, 20, 21, 22, 23, 24, 25, 26, 28, 29]",200.1901808,12012,183,5,42,7,1.0
undo,21,1,1,0,0,0,[0],1,26,"[1, 2, 4, 5, 7, 8, 9, 10, 11, 12, 13, 14, 15, 16, 17, 18, 19, 20, 21, 22, 23, 24, 25, 26, 28, 29]",300,12162,150,6,74,7,0.0
undo,21,1,0,0,0,14,"[0, 14]",2,19,"[1, 4, 5, 8, 9, 13, 15, 17, 18, 19, 20, 21, 22, 23, 24, 25, 26, 28, 29]",200.1901808,15539,3377,5,42,7,1.0
undo,21,1,0,0,0,20,"[0, 14, 20]",3,8,"[1, 4, 5, 8, 17, 18, 19, 29]",107.5349058,17043,1504,3,6,6,1.1318930635390845
undo,21,1,0,0,0,5,"[0, 14, 20, 5]",4,3,"[4, 18, 29]",86.06399521,17923,880,2,2,6,1.1422313843984317
undo,21,1,0,0,0,18,"[0, 14, 20, 5, 18]",5,2,"[4, 29]",63.23857079,19582,1659,2,0,6,1.1754181498166683
undo,21,1,0,0,1,4,"[0, 14, 20, 5, 18, 4]",6,0,[],24.2898866,20660,1078,1,0,6,1.1682212432106793
undo,21,1,1,0,0,18,"[0, 14, 20, 5, 18]",5,2,"[4, 29]",63.23857079,24394,3734,2,0,6,1.1754181498166683
undo,21,1,1,0,0,5,"[0, 14, 20, 5]",4,3,"[4, 18, 29]",86.06399521,24610,216,2,2,6,1.1422313843984317
undo,21,1,1,0,0,20,"[0, 14, 20]",3,8,"[1, 4, 5, 8, 17, 18, 19, 29]",107.5349058,24743,133,3,6,6,1.1318930635390845
undo,21,1,1,0,0,14,"[0, 14]",2,19,"[1, 4, 5, 8, 9, 13, 15, 17, 18, 19, 20, 21, 22, 23, 24, 25, 26, 28, 29]",200.1901808,24943,200,5,42,7,1.0
undo,21,1,1,0,0,0,[0],1,26,"[1, 2, 4, 5, 7, 8, 9, 10, 11, 12, 13, 14, 15, 16, 17, 18, 19, 20, 21, 22, 23, 24, 25, 26, 28, 29]",300,25127,184,6,74,7,0.0
undo,21,1,0,0,0,14,"[0, 14]",2,19,"[1, 4, 5, 8, 9, 13, 15, 17, 18, 19, 20, 21, 22, 23, 24, 25, 26, 28, 29]",200.1901808,28981,3854,5,42,7,1.0
undo,21,1,0,0,0,17,"[0, 14, 17]",3,15,"[1, 4, 5, 8, 9, 13, 15, 18, 19, 20, 22, 23, 25, 28, 29]",147.8356204,31181,2200,5,27,7,1.0028844724416826
undo,21,1,0,0,0,1,"[0, 14, 17, 1]",4,12,"[4, 5, 8, 9, 15, 18, 20, 22, 23, 25, 28, 29]",123.4840291,31923,742,5,15,7,1.0264985578353567
undo,21,1,0,0,0,28,"[0, 14, 17, 1, 28]",5,5,"[9, 15, 22, 23, 29]",88.59850198,32847,924,5,3,7,1.0339861575999345
undo,21,1,0,0,0,23,"[0, 14, 17, 1, 28, 23]",6,2,"[15, 22]",51.70676849,33907,1060,2,0,7,1.0327458250705703
undo,21,1,0,0,1,15,"[0, 14, 17, 1, 28, 23, 15]",7,0,[],20.81987807,34747,840,1,0,7,1.1948681641401226
undo,21,1,0,1,1,15,"[0, 14, 17, 1, 28, 23, 15]",7,0,[],20.81987807,36557,1810,1,0,7,1.1948681641401226
undo,22,9,0,0,0,0,[0],1,27,"[1, 3, 4, 5, 6, 7, 8, 9, 10, 11, 13, 14, 15, 16, 17, 18, 19, 20, 21, 22, 23, 24, 25, 26, 27, 28, 29]",300,146,-1,2,182,10,0.0
undo,22,9,0,0,0,9,"[0, 9]",2,26,"[1, 3, 4, 5, 6, 7, 8, 10, 11, 13, 14, 15, 16, 17, 18, 19, 20, 21, 22, 23, 24, 25, 26, 27, 28, 29]",225.5352432,5018,4872,2,101,9,1.0
undo,22,9,0,0,0,23,"[0, 9, 23]",3,22,"[1, 3, 4, 5, 7, 8, 10, 11, 13, 15, 16, 17, 18, 19, 20, 21, 22, 24, 25, 26, 27, 28]",203.1745635,5873,855,2,70,9,1.6262276606762436
undo,22,9,0,0,0,8,"[0, 9, 23, 8]",4,18,"[3, 4, 5, 7, 10, 11, 15, 16, 17, 18, 19, 20, 21, 22, 25, 26, 27, 28]",181.7036529,7840,1967,1,36,9,1.8547307061753238
undo,22,9,0,0,0,28,"[0, 9, 23, 8, 28]",5,17,"[3, 4, 5, 7, 10, 11, 15, 16, 17, 18, 19, 20, 21, 22, 25, 26, 27]",170.8869991,8762,922,1,23,9,1.7382749966569708
undo,22,9,0,0,0,26,"[0, 9, 23, 8, 28, 26]",6,10,"[3, 5, 10, 15, 16, 18, 19, 20, 21, 25]",126.1097727,10033,1271,4,7,8,1.4884719959249546
undo,22,9,0,0,0,21,"[0, 9, 23, 8, 28, 26, 21]",7,1,[20],72.20244484,11900,1867,1,0,8,1.9218119811471304
undo,22,9,0,0,1,20,"[0, 9, 23, 8, 28, 26, 21, 20]",8,0,[],60.11939886,12617,717,1,0,8,1.8940565724013747
undo,22,9,0,1,1,20,"[0, 9, 23, 8, 28, 26, 21, 20]",8,0,[],60.11939886,17078,4461,1,0,8,1.8940565724013747
basic,23,0,0,0,0,0,[0],1,27,"[2, 3, 4, 5, 6, 7, 8, 9, 10, 11, 12, 13, 14, 15, 16, 17, 19, 20, 21, 22, 23, 24, 25, 26, 27, 28, 29]",300,166,-1,104,1136,9,0.0
basic,23,0,0,0,0,28,"[0, 28]",2,26,"[2, 3, 4, 5, 6, 7, 8, 9, 10, 11, 12, 13, 14, 15, 16, 17, 19, 20, 21, 22, 23, 24, 25, 26, 27, 29]",194.9190788,9042,8876,39,388,9,1.0
basic,23,0,0,0,0,5,"[0, 28, 5]",3,21,"[2, 3, 4, 7, 8, 9, 11, 12, 13, 14, 15, 16, 17, 19, 20, 21, 23, 24, 25, 26, 29]",151.2613189,10201,1159,27,210,9,1.0978295127671733
basic,23,0,0,0,0,4,"[0, 28, 5, 4]",4,16,"[3, 7, 8, 9, 11, 12, 13, 14, 15, 17, 19, 20, 21, 23, 24, 26]",126.1814465,11202,1001,17,114,9,1.1103727063761901
basic,23,0,0,0,0,26,"[0, 28, 5, 4, 26]",5,14,"[3, 7, 8, 9, 11, 12, 13, 14, 15, 17, 19, 20, 23, 24]",114.1398519,11919,717,7,54,9,1.1504454351688815
basic,23,0,0,0,0,24,"[0, 28, 5, 4, 26, 24]",6,11,"[3, 7, 8, 9, 11, 12, 15, 17, 19, 20, 23]",97.02260914,12959,1040,7,22,9,1.2166555899566422
basic,23,0,0,0,0,15,"[0, 28, 5, 4, 26, 24, 15]",7,7,"[3, 7, 8, 9, 11, 12, 17]",73.67737408,14001,1042,4,5,9,1.1972898774231708
basic,23,0,0,0,0,7,"[0, 28, 5, 4, 26, 24, 15, 7]",8,2,"[3, 8]",42.61292495,15039,1038,2,0,9,1.2554869594545575
basic,23,0,0,0,1,8,"[0, 28, 5, 4, 26, 24, 15, 7, 8]",9,0,[],23.50795177,18817,3778,1,0,9,1.2428648875079442
basic,23,0,0,1,1,8,"[0, 28, 5, 4, 26, 24, 15, 7, 8]",9,0,[],23.50795177,24862,6045,1,0,9,1.2428648875079442
basic,24,8,0,0,0,0,[0],1,29,"[1, 2, 3, 4, 5, 6, 7, 8, 9, 10, 11, 12, 13, 14, 15, 16, 17, 18, 19, 20, 21, 22, 23, 24, 25, 26, 27, 28, 29]",300,142,-1,10,149,9,0.0
basic,24,8,0,0,0,5,"[0, 5]",2,28,"[1, 2, 3, 4, 6, 7, 8, 9, 10, 11, 12, 13, 14, 15, 16, 17, 18, 19, 20, 21, 22, 23, 24, 25, 26, 27, 28, 29]",254.5137383,17266,17124,10,100,9,1.0
basic,24,8,0,0,0,14,"[0, 5, 14]",3,20,"[1, 2, 3, 4, 6, 7, 11, 15, 16, 17, 18, 19, 20, 21, 22, 23, 24, 25, 28, 29]",214.5512559,18330,1064,4,36,9,1.0001019035932595
basic,24,8,0,0,0,25,"[0, 5, 14, 25]",4,16,"[1, 3, 4, 6, 11, 15, 16, 17, 18, 20, 21, 22, 23, 24, 28, 29]",169.4513668,19428,1098,9,37,8,1.8918105093907904
basic,24,8,0,0,0,1,"[0, 5, 14, 25, 1]",5,12,"[3, 4, 6, 11, 16, 17, 18, 20, 21, 22, 23, 28]",144.4513668,20305,877,6,17,8,1.669095890814316
basic,24,8,0,0,0,23,"[0, 5, 14, 25, 1, 23]",6,7,"[3, 4, 6, 17, 18, 21, 28]",121.4296379,21058,753,4,5,8,1.5366044444966092
basic,24,8,0,0,0,18,"[0, 5, 14, 25, 1, 23, 18]",7,3,"[4, 17, 28]",79.6684119,22058,1000,3,0,8,1.6668365933940024
basic,24,8,0,0,1,4,"[0, 5, 14, 25, 1, 23, 18, 4]",8,0,[],36.65678556,33259,11201,1,0,8,1.6136602012138375
basic,24,8,0,1,1,4,"[0, 5, 14, 25, 1, 23, 18, 4]",8,0,[],36.65678556,35070,1811,1,0,8,1.6136602012138375
basic,25,4,0,0,0,0,[0],1,26,"[3, 4, 5, 6, 7, 8, 10, 11, 12, 13, 14, 15, 16, 17, 18, 19, 20, 21, 22, 23, 24, 25, 26, 27, 28, 29]",300,145,-1,4,489,10,0.0
basic,25,4,0,0,0,28,"[0, 28]",2,21,"[3, 4, 5, 6, 10, 11, 12, 13, 14, 15, 16, 17, 19, 20, 21, 22, 23, 24, 25, 26, 27]",225.9392142,5543,5398,2,216,10,1.0
basic,25,4,0,0,0,14,"[0, 28, 14]",3,13,"[3, 4, 5, 6, 11, 13, 16, 17, 20, 21, 22, 24, 25]",159.6972335,8576,3033,1,26,10,1.0273973946789214
basic,25,4,0,0,0,25,"[0, 28, 14, 25]",4,12,"[3, 4, 5, 6, 11, 13, 16, 17, 20, 21, 22, 24]",143.572718,9423,847,1,25,10,1.233547772313525
basic,25,4,0,0,0,11,"[0, 28, 14, 25, 11]",5,10,"[3, 4, 5, 6, 13, 16, 17, 20, 21, 22]",124.7844238,10682,1259,1,15,10,1.425978575879479
basic,25,4,0,0,0,16,"[0, 28, 14, 25, 11, 16]",6,9,"[3, 4, 5, 6, 13, 17, 20, 21, 22]",109.7844238,11703,1021,1,12,10,1.3799325158051412
basic,25,4,0,0,0,3,"[0, 28, 14, 25, 11, 16, 3]",7,2,"[17, 20]",68.15510719,12887,1184,1,1,9,1.3292844629725955
basic,25,4,0,0,0,17,"[0, 28, 14, 25, 11, 16, 3, 17]",8,1,[20],43.63980585,13959,1072,1,0,9,1.5639571149270572
basic,25,4,0,0,1,20,"[0, 28, 14, 25, 11, 16, 3, 17, 20]",9,0,[],3.415435124,15359,1400,1,0,9,1.6231058358944275
basic,25,4,0,1,1,20,"[0, 28, 14, 25, 11, 16, 3, 17, 20]",9,0,[],3.415435124,17059,1700,1,0,9,1.6231058358944275
basic,26,16,0,0,0,0,[0],1,29,"[1, 2, 3, 4, 5, 6, 7, 8, 9, 10, 11, 12, 13, 14, 15, 16, 17, 18, 19, 20, 21, 22, 23, 24, 25, 26, 27, 28, 29]",300,146,-1,13,161,9,0.0
basic,26,16,0,0,0,17,"[0, 17]",2,27,"[1, 2, 3, 4, 5, 7, 8, 9, 10, 11, 12, 13, 14, 15, 16, 18, 19, 20, 21, 22, 23, 24, 25, 26, 27, 28, 29]",241.3058776,14991,14845,2,58,9,1.0
basic,26,16,0,0,0,16,"[0, 17, 16]",3,26,"[1, 2, 3, 4, 5, 7, 8, 9, 10, 11, 12, 13, 14, 15, 18, 19, 20, 21, 22, 23, 24, 25, 26, 27, 28, 29]",212.9862731,16486,1495,2,52,9,1.0529535521792848
basic,26,16,0,0,0,21,"[0, 17, 16, 21]",4,19,"[3, 5, 7, 8, 9, 10, 12, 14, 15, 19, 20, 22, 23, 24, 25, 26, 27, 28, 29]",168.332046,17849,1363,9,18,8,1.5524765786046826
basic,26,16,0,0,0,8,"[0, 17, 16, 21, 8]",5,7,"[3, 5, 9, 12, 15, 20, 25]",119.0776046,18682,833,9,6,8,1.458624751458944
basic,26,16,0,0,0,20,"[0, 17, 16, 21, 8, 20]",6,3,"[9, 15, 25]",61.30217727,19919,1237,4,1,8,1.3191752290945782
basic,26,16,0,0,0,25,"[0, 17, 16, 21, 8, 20, 25]",7,2,"[9, 15]",48.65306663,20714,795,2,0,8,1.3641436248537882
basic,26,16,0,0,1,9,"[0, 17, 16, 21, 8, 20, 25, 9]",8,0,[],35.84681815,21398,684,1,0,8,1.3406027753205443
basic,26,16,0,1,1,9,"[0, 17, 16, 21, 8, 20, 25, 9]",8,0,[],35.84681815,24376,2978,1,0,8,1.3406027753205443
basic,27,31,0,0,0,0,[0],1,27,"[1, 3, 4, 5, 6, 7, 8, 10, 11, 12, 13, 14, 15, 16, 17, 18, 19, 20, 21, 22, 23, 24, 25, 26, 27, 28, 29]",300,147,-1,2,87,10,0.0
basic,27,31,0,0,0,14,"[0, 14]",2,25,"[1, 3, 5, 6, 7, 8, 10, 11, 12, 13, 15, 16, 17, 18, 19, 20, 21, 22, 23, 24, 25, 26, 27, 28, 29]",263.861378,4506,4359,2,59,10,1.0
basic,27,31,0,0,0,27,"[0, 14, 27]",3,22,"[1, 3, 5, 6, 7, 8, 10, 11, 12, 13, 15, 16, 17, 18, 19, 20, 21, 22, 24, 25, 28, 29]",235.6833724,5434,928,1,39,10,1.5881859159302467
basic,27,31,0,0,0,8,"[0, 14, 27, 8]",4,20,"[1, 3, 5, 6, 7, 10, 11, 12, 13, 16, 17, 18, 19, 20, 21, 22, 24, 25, 28, 29]",224.6380114,7626,2192,1,36,10,2.1665048452331277
basic,27,31,0,0,0,18,"[0, 14, 27, 8, 18]",5,15,"[1, 5, 6, 7, 11, 12, 13, 16, 17, 19, 20, 22, 25, 28, 29]",188.7911147,8667,1041,1,26,10,1.7273375741920205
basic,27,31,0,0,0,11,"[0, 14, 27, 8, 18, 11]",6,11,"[1, 5, 7, 12, 16, 17, 19, 20, 22, 25, 28]",153.9055876,9507,840,13,17,9,2.386348208737804
basic,27,31,0,0,0,5,"[0, 14, 27, 8, 18, 11, 5]",7,5,"[16, 17, 20, 25, 28]",110.2249283,11307,1800,3,3,9,2.163249612867222
basic,27,31,0,0,0,28,"[0, 14, 27, 8, 18, 11, 5, 28]",8,2,"[16, 17]",90.00117988,12242,935,2,0,9,1.9564635733184719
basic,27,31,0,0,1,16,"[0, 14, 27, 8, 18, 11, 5, 28, 16]",9,0,[],56.38570725,13354,1112,1,0,9,1.824071502589619
basic,27,31,0,1,1,16,"[0, 14, 27, 8, 18, 11, 5, 28, 16]",9,0,[],56.38570725,16944,3590,1,0,9,1.824071502589619
basic,28,27,0,0,0,0,[0],1,26,"[1, 3, 5, 6, 7, 8, 9, 10, 11, 12, 13, 14, 15, 16, 17, 18, 19, 21, 22, 23, 24, 25, 26, 27, 28, 29]",300,134,-1,13,578,11,0.0
basic,28,27,0,0,0,15,"[0, 15]",2,24,"[1, 3, 5, 6, 7, 8, 9, 10, 11, 12, 13, 14, 16, 17, 18, 19, 21, 22, 23, 24, 25, 26, 27, 29]",263.7508621,2558,2424,6,219,11,1.0
basic,28,27,0,0,0,24,"[0, 15, 24]",3,20,"[1, 5, 6, 7, 8, 9, 10, 12, 13, 14, 16, 17, 18, 19, 21, 23, 25, 26, 27, 29]",246.5462115,3951,1393,6,130,11,1.130933077698322
basic,28,27,0,0,0,12,"[0, 15, 24, 12]",4,18,"[1, 5, 6, 7, 8, 9, 10, 13, 14, 16, 17, 18, 19, 23, 25, 26, 27, 29]",229.0819623,5390,1439,2,45,11,1.0972977092298246
basic,28,27,0,0,0,17,"[0, 15, 24, 12, 17]",5,13,"[1, 8, 10, 13, 14, 16, 18, 19, 23, 25, 26, 27, 29]",217.9016225,6470,1080,2,25,11,1.3234789634000614
basic,28,27,0,0,0,10,"[0, 15, 24, 12, 17, 10]",6,11,"[1, 8, 13, 14, 18, 19, 23, 25, 26, 27, 29]",201.500403,7726,1256,2,23,11,1.3059197403680955
basic,28,27,0,0,0,13,"[0, 15, 24, 12, 17, 10, 13]",7,9,"[1, 8, 14, 18, 19, 23, 26, 27, 29]",161.6506853,8734,1008,2,15,11,1.4058118497649534
basic,28,27,0,0,0,19,"[0, 15, 24, 12, 17, 10, 13, 19]",8,5,"[1, 8, 14, 23, 29]",125.4153434,9590,856,2,5,11,1.342958896923077
basic,28,27,0,0,0,8,"[0, 15, 24, 12, 17, 10, 13, 19, 8]",9,3,"[14, 23, 29]",110.5492747,10559,969,2,1,11,1.4018012212617021
basic,28,27,0,0,1,23,"[0, 15, 24, 12, 17, 10, 13, 19, 8, 23]",10,0,[],39.7114317,13973,3414,1,0,10,3.4221844451216836
basic,28,27,0,1,1,23,"[0, 15, 24, 12, 17, 10, 13, 19, 8, 23]",10,0,[],39.7114317,15527,1554,1,0,10,3.4221844451216836
basic,29,35,0,0,0,0,[0],1,29,"[1, 2, 3, 4, 5, 6, 7, 8, 9, 10, 11, 12, 13, 14, 15, 16, 17, 18, 19, 20, 21, 22, 23, 24, 25, 26, 27, 28, 29]",300,147,-1,5,236,11,0.0
basic,29,35,0,0,0,24,"[0, 24]",2,27,"[1, 2, 4, 5, 6, 7, 8, 9, 10, 11, 12, 13, 14, 15, 16, 17, 18, 19, 20, 21, 22, 23, 25, 26, 27, 28, 29]",268.9838752,7134,6987,49,512,10,1.0
basic,29,35,0,0,0,17,"[0, 24, 17]",3,26,"[1, 2, 4, 5, 6, 7, 8, 9, 10, 11, 12, 13, 14, 15, 16, 18, 19, 20, 21, 22, 23, 25, 26, 27, 28, 29]",257.2791753,8011,877,33,238,10,1.0771477201815276
basic,29,35,0,0,0,1,"[0, 24, 17, 1]",4,25,"[2, 4, 5, 6, 7, 8, 9, 10, 11, 12, 13, 14, 15, 16, 18, 19, 20, 21, 22, 23, 25, 26, 27, 28, 29]",241.4677869,8885,874,26,151,10,1.2244804141479215
basic,29,35,0,0,0,15,"[0, 24, 17, 1, 15]",5,23,"[2, 4, 5, 6, 7, 8, 9, 10, 11, 12, 14, 16, 18, 19, 20, 21, 22, 23, 25, 26, 27, 28, 29]",218.6204676,10301,1416,26,78,10,1.4642196672428094
basic,29,35,0,0,0,23,"[0, 24, 17, 1, 15, 23]",6,11,"[4, 5, 6, 9, 18, 19, 25, 26, 27, 28, 29]",158.1804147,11643,1342,15,12,10,1.3338903684702363
basic,29,35,0,0,0,9,"[0, 24, 17, 1, 15, 23, 9]",7,6,"[5, 6, 18, 19, 25, 27]",120.5373542,12475,832,6,1,10,1.5964380615155294
basic,29,35,0,0,0,18,"[0, 24, 17, 1, 15, 23, 9, 18]",8,3,"[5, 6, 25]",100.5123698,13394,919,2,1,10,1.5508488101942703
basic,29,35,0,0,0,25,"[0, 24, 17, 1, 15, 23, 9, 18, 25]",9,1,[6],66.67452121,14467,1073,1,0,10,1.4408023801578587
basic,29,35,0,0,1,6,"[0, 24, 17, 1, 15, 23, 9, 18, 25, 6]",10,0,[],42.65369691,15635,1168,1,0,10,1.701781671832088
basic,29,35,0,1,1,6,"[0, 24, 17, 1, 15, 23, 9, 18, 25, 6]",10,0,[],42.65369691,17178,1543,1,0,10,1.701781671832088
basic,30,42,0,0,0,0,[0],1,29,"[1, 2, 3, 4, 5, 6, 7, 8, 9, 10, 11, 12, 13, 14, 15, 16, 17, 18, 19, 20, 21, 22, 23, 24, 25, 26, 27, 28, 29]",300,148,-1,16,302,9,0.0
basic,30,42,0,0,0,5,"[0, 5]",2,28,"[1, 2, 3, 4, 6, 7, 8, 9, 10, 11, 12, 13, 14, 15, 16, 17, 18, 19, 20, 21, 22, 23, 24, 25, 26, 27, 28, 29]",191.2939744,4461,4313,1,22,9,1.0
basic,30,42,0,0,0,4,"[0, 5, 4]",3,23,"[1, 2, 3, 6, 7, 8, 9, 10, 11, 13, 15, 17, 18, 19, 20, 21, 22, 23, 24, 25, 26, 27, 29]",171.4445412,5541,1080,1,14,9,1.420957801478707
basic,30,42,0,0,0,22,"[0, 5, 4, 22]",4,20,"[1, 2, 3, 6, 7, 8, 9, 11, 15, 17, 18, 19, 20, 21, 23, 24, 25, 26, 27, 29]",160.2642013,7783,2242,1,11,9,1.5771494659680896
basic,30,42,0,0,0,8,"[0, 5, 4, 22, 8]",5,14,"[1, 2, 3, 6, 7, 11, 15, 18, 19, 24, 25, 26, 27, 29]",138.1282577,8509,726,1,10,9,1.5055393955524201
basic,30,42,0,0,0,1,"[0, 5, 4, 22, 8, 1]",6,5,"[2, 7, 19, 26, 27]",89.03650682,9493,984,1,7,9,1.3547259083637835
basic,30,42,0,0,0,7,"[0, 5, 4, 22, 8, 1, 7]",7,4,"[2, 19, 26, 27]",59.03650682,11069,1576,1,3,9,1.3909715672447451
basic,30,42,0,0,0,26,"[0, 5, 4, 22, 8, 1, 7, 26]",8,1,[27],32.46584631,12053,984,1,0,9,1.3511825943939393
basic,30,42,0,0,1,27,"[0, 5, 4, 22, 8, 1, 7, 26, 27]",9,0,[],14.43808994,12999,946,1,0,9,1.3391911688802078
basic,30,42,0,1,1,27,"[0, 5, 4, 22, 8, 1, 7, 26, 27]",9,0,[],14.43808994,14427,1428,1,0,9,1.3391911688802078
basic,31,39,0,0,0,0,[0],1,28,"[1, 2, 3, 4, 5, 6, 7, 9, 10, 11, 12, 13, 14, 15, 16, 17, 18, 19, 20, 21, 22, 23, 24, 25, 26, 27, 28, 29]",300,147,-1,1,30,10,0.0
basic,31,39,0,0,0,29,"[0, 29]",2,26,"[1, 2, 3, 4, 5, 6, 7, 9, 10, 12, 13, 14, 15, 16, 17, 18, 19, 20, 21, 22, 23, 24, 25, 26, 27, 28]",243.0614366,4742,4595,8,104,9,1.0
basic,31,39,0,0,0,12,"[0, 29, 12]",3,18,"[1, 2, 4, 5, 7, 9, 10, 13, 14, 15, 16, 18, 19, 22, 23, 24, 26, 28]",182.5221931,5831,1089,5,54,9,1.0026200331524904
basic,31,39,0,0,0,10,"[0, 29, 12, 10]",4,16,"[1, 2, 4, 5, 7, 9, 13, 14, 15, 16, 18, 19, 22, 23, 24, 26]",147.0116313,7035,1204,5,34,9,1.2874817019928908
basic,31,39,0,0,0,7,"[0, 29, 12, 10, 7]",5,10,"[1, 2, 5, 13, 16, 18, 19, 22, 24, 26]",113.5900814,7867,832,4,12,9,1.2250826263866774
basic,31,39,0,0,0,26,"[0, 29, 12, 10, 7, 26]",6,5,"[1, 16, 18, 19, 22]",94.90853971,8607,740,3,4,9,1.2697275353190085
basic,31,39,0,0,0,22,"[0, 29, 12, 10, 7, 26, 22]",7,2,"[16, 19]",77.18849457,9591,984,2,0,9,1.438961743955176
basic,31,39,0,0,0,16,"[0, 29, 12, 10, 7, 26, 22, 16]",8,1,[19],42.18849457,11617,2026,1,0,9,1.3580882130477205
basic,31,39,0,0,1,19,"[0, 29, 12, 10, 7, 26, 22, 16, 19]",9,0,[],24.72424537,12401,784,1,0,9,1.3646589157842668
basic,31,39,0,1,1,19,"[0, 29, 12, 10, 7, 26, 22, 16, 19]",9,0,[],24.72424537,14395,1994,1,0,9,1.3646589157842668
basic,32,26,0,0,0,0,[0],1,29,"[1, 2, 3, 4, 5, 6, 7, 8, 9, 10, 11, 12, 13, 14, 15, 16, 17, 18, 19, 20, 21, 22, 23, 24, 25, 26, 27, 28, 29]",300,180,-1,9,226,9,0.0
basic,32,26,0,0,0,16,"[0, 16]",2,17,"[3, 4, 5, 6, 10, 11, 12, 13, 14, 17, 18, 19, 21, 22, 23, 26, 29]",188.0535842,3680,3500,34,176,8,1.0
basic,32,26,0,0,0,29,"[0, 16, 29]",3,12,"[4, 5, 6, 10, 12, 13, 14, 17, 19, 21, 23, 26]",163.8461474,4297,617,32,68,8,1.1142946124989752
basic,32,26,0,0,0,4,"[0, 16, 29, 4]",4,9,"[5, 6, 10, 12, 13, 14, 17, 21, 23]",139.8461474,5240,943,17,7,8,1.3213762371676339
basic,32,26,0,0,0,17,"[0, 16, 29, 4, 17]",5,5,"[6, 10, 14, 21, 23]",118.7511243,6435,1195,6,0,8,1.2756100061290643
basic,32,26,0,0,0,14,"[0, 16, 29, 4, 17, 14]",6,2,"[6, 10]",96.27891921,7344,909,2,0,8,1.264154039440982
basic,32,26,0,0,0,6,"[0, 16, 29, 4, 17, 14, 6]",7,1,[10],75.25512317,8296,952,1,0,8,1.3993089646092733
basic,32,26,0,0,1,10,"[0, 16, 29, 4, 17, 14, 6, 10]",8,0,[],45.98056083,9192,896,1,0,8,1.5697867669370302
basic,32,26,0,1,1,10,"[0, 16, 29, 4, 17, 14, 6, 10]",8,0,[],45.98056083,10529,1337,1,0,8,1.5697867669370302
basic,33,13,0,0,0,0,[0],1,29,"[1, 2, 3, 4, 5, 6, 7, 8, 9, 10, 11, 12, 13, 14, 15, 16, 17, 18, 19, 20, 21, 22, 23, 24, 25, 26, 27, 28, 29]",300,149,-1,60,2676,11,0.0
basic,33,13,0,0,0,24,"[0, 24]",2,28,"[1, 2, 3, 4, 5, 6, 7, 8, 9, 10, 11, 12, 13, 14, 15, 16, 17, 18, 19, 20, 21, 22, 23, 25, 26, 27, 28, 29]",288.8196601,14160,14011,16,1444,11,1.0
basic,33,13,0,0,0,28,"[0, 24, 28]",3,23,"[1, 2, 3, 4, 6, 7, 8, 9, 10, 11, 12, 13, 15, 16, 17, 19, 20, 21, 22, 23, 26, 27, 29]",222.5324064,15040,880,8,243,11,1.0513810491680837
basic,33,13,0,0,0,2,"[0, 24, 28, 2]",4,19,"[1, 3, 4, 6, 7, 9, 11, 12, 13, 15, 16, 17, 19, 20, 21, 23, 26, 27, 29]",184.889346,15888,848,7,110,11,1.050374132001543
basic,33,13,0,0,0,29,"[0, 24, 28, 2, 29]",5,18,"[1, 3, 4, 6, 7, 9, 11, 12, 13, 15, 16, 17, 19, 20, 21, 23, 26, 27]",173.1846461,16664,776,7,85,11,1.1393409619120594
basic,33,13,0,0,0,7,"[0, 24, 28, 2, 29, 7]",6,17,"[1, 3, 4, 6, 9, 11, 12, 13, 15, 16, 17, 19, 20, 21, 23, 26, 27]",157.9203086,17871,1207,5,45,11,1.349777315111579
basic,33,13,0,0,0,26,"[0, 24, 28, 2, 29, 7, 26]",7,16,"[1, 3, 4, 6, 9, 11, 12, 13, 15, 16, 17, 19, 20, 21, 23, 27]",147.480002,18583,712,5,25,11,1.5942082773824946
basic,33,13,0,0,0,6,"[0, 24, 28, 2, 29, 7, 26, 6]",8,12,"[1, 3, 4, 11, 13, 15, 16, 17, 19, 20, 23, 27]",127.3802508,19866,1283,4,12,11,1.5898347940840756
basic,33,13,0,0,0,11,"[0, 24, 28, 2, 29, 7, 26, 6, 11]",9,6,"[1, 13, 15, 16, 17, 23]",108.2752776,20616,750,3,4,11,1.5029953945561012
basic,33,13,0,0,0,17,"[0, 24, 28, 2, 29, 7, 26, 6, 11, 17]",10,1,[13],36.68617231,21999,1383,1,0,11,1.324993060397683
basic,33,13,0,0,1,13,"[0, 24, 28, 2, 29, 7, 26, 6, 11, 17, 13]",11,0,[],3.309533775,23135,1136,1,0,11,1.6349870606446535
basic,33,13,0,1,1,13,"[0, 24, 28, 2, 29, 7, 26, 6, 11, 17, 13]",11,0,[],3.309533775,25077,1942,1,0,11,1.6349870606446535
basic,34,30,0,0,0,0,[0],1,19,"[3, 4, 5, 7, 9, 11, 16, 17, 18, 19, 20, 21, 22, 24, 25, 26, 27, 28, 29]",300,180,-1,5,41,8,0.0
basic,34,30,0,0,0,16,"[0, 16]",2,17,"[3, 5, 7, 9, 11, 17, 18, 19, 20, 21, 22, 24, 25, 26, 27, 28, 29]",219.3774225,11439,11259,5,34,8,1.0
basic,34,30,0,0,0,25,"[0, 16, 25]",3,10,"[3, 5, 7, 9, 11, 18, 19, 20, 27, 29]",115.0845656,12774,1335,5,28,8,1.0336279544884488
basic,34,30,0,0,0,20,"[0, 16, 25, 20]",4,8,"[3, 5, 7, 9, 18, 19, 27, 29]",93.15285342,13682,908,4,14,8,1.0337964627284246
basic,34,30,0,0,0,27,"[0, 16, 25, 20, 27]",5,4,"[3, 5, 18, 29]",59.09408069,14910,1228,4,6,8,1.1504365534848
basic,34,30,0,0,0,3,"[0, 16, 25, 20, 27, 3]",6,3,"[5, 18, 29]",39.98910751,16118,1208,4,0,8,1.1403876826835333
basic,34,30,0,0,0,29,"[0, 16, 25, 20, 27, 3, 29]",7,1,[18],21.38803228,17190,1072,1,0,8,1.1443827771455848
basic,34,30,0,0,1,18,"[0, 16, 25, 20, 27, 3, 29, 18]",8,0,[],2.074824359,18282,1092,1,0,8,1.2197761544023602
basic,34,30,0,1,1,18,"[0, 16, 25, 20, 27, 3, 29, 18]",8,0,[],2.074824359,27359,9077,1,0,8,1.2197761544023602
basic,35,23,0,0,0,0,[0],1,28,"[1, 2, 3, 4, 5, 6, 7, 8, 9, 10, 11, 12, 13, 14, 15, 16, 17, 18, 19, 20, 21, 22, 23, 25, 26, 27, 28, 29]",300,147,-1,76,2626,10,0.0
basic,35,23,0,0,0,22,"[0, 22]",2,24,"[1, 2, 3, 5, 6, 7, 8, 9, 10, 11, 12, 13, 14, 15, 17, 18, 19, 20, 21, 23, 25, 26, 27, 29]",210.5013967,4876,4729,15,1362,10,1.0
basic,35,23,0,0,0,13,"[0, 22, 13]",3,14,"[1, 2, 5, 6, 7, 8, 9, 10, 12, 14, 18, 21, 27, 29]",168.3113504,6829,1953,14,522,10,1.1898173563652046
basic,35,23,0,0,0,12,"[0, 22, 13, 12]",4,11,"[1, 2, 6, 7, 9, 10, 14, 18, 21, 27, 29]",156.2283045,9460,2631,12,166,10,1.1727968780218219
basic,35,23,0,0,0,9,"[0, 22, 13, 12, 9]",5,10,"[1, 2, 6, 7, 10, 14, 18, 21, 27, 29]",141.9104834,10508,1048,5,49,10,1.2100380646101494
basic,35,23,0,0,0,14,"[0, 22, 13, 12, 9, 14]",6,8,"[1, 2, 6, 7, 10, 18, 27, 29]",131.4701769,11252,744,2,19,10,1.1961799245073135
basic,35,23,0,0,0,2,"[0, 22, 13, 12, 9, 14, 2]",7,6,"[6, 7, 10, 18, 27, 29]",116.6041081,12044,792,1,8,10,1.343965446549325
basic,35,23,0,0,0,6,"[0, 22, 13, 12, 9, 14, 2, 6]",8,3,"[18, 27, 29]",98.16501923,12804,760,3,0,9,1.3433890277057379
basic,35,23,0,0,1,27,"[0, 22, 13, 12, 9, 14, 2, 6, 27]",9,0,[],69.86307584,14060,1256,1,0,9,1.607346000085698
basic,35,23,0,1,1,27,"[0, 22, 13, 12, 9, 14, 2, 6, 27]",9,0,[],69.86307584,16878,2818,1,0,9,1.607346000085698
basic,36,9,0,0,0,0,[0],1,27,"[1, 3, 4, 5, 6, 7, 8, 9, 10, 11, 13, 14, 15, 16, 17, 18, 19, 20, 21, 22, 23, 24, 25, 26, 27, 28, 29]",300,148,-1,2,182,10,0.0
basic,36,9,0,0,0,25,"[0, 25]",2,24,"[1, 3, 4, 5, 6, 7, 8, 9, 10, 11, 13, 15, 16, 17, 18, 19, 20, 21, 22, 23, 24, 26, 27, 28]",275.9168108,5189,5041,2,104,10,1.0
basic,36,9,0,0,0,10,"[0, 25, 10]",3,20,"[3, 4, 5, 7, 8, 9, 11, 13, 15, 16, 17, 18, 19, 20, 21, 22, 23, 26, 27, 28]",236.0670932,7903,2714,2,76,10,1.1767014107208227
basic,36,9,0,0,0,8,"[0, 25, 10, 8]",4,19,"[3, 4, 5, 7, 9, 11, 13, 15, 16, 17, 18, 19, 20, 21, 22, 23, 26, 27, 28]",187.6935467,11228,3325,1,29,10,1.7608170712242983
basic,36,9,0,0,0,28,"[0, 25, 10, 8, 28]",5,18,"[3, 4, 5, 7, 9, 11, 13, 15, 16, 17, 18, 19, 20, 21, 22, 23, 26, 27]",176.8768928,12844,1616,1,15,10,1.6576318206889098
basic,36,9,0,0,0,23,"[0, 25, 10, 8, 28, 23]",6,12,"[3, 4, 7, 9, 11, 18, 19, 20, 21, 22, 26, 27]",151.8569008,14860,2016,1,7,10,2.488131366775142
basic,36,9,0,0,0,9,"[0, 25, 10, 8, 28, 23, 9]",7,10,"[3, 4, 7, 11, 18, 19, 20, 21, 26, 27]",129.4962211,15917,1057,1,5,10,2.289724512754012
basic,36,9,0,0,0,26,"[0, 25, 10, 8, 28, 23, 9, 26]",8,3,"[18, 20, 21]",72.8481849,18443,2526,1,2,10,1.944382504121744
basic,36,9,0,0,1,18,"[0, 25, 10, 8, 28, 23, 9, 26, 18]",9,0,[],11.97125988,20523,2080,1,0,9,1.6527738344613165
basic,36,9,0,1,1,18,"[0, 25, 10, 8, 28, 23, 9, 26, 18]",9,0,[],11.97125988,22195,1672,1,0,9,1.6527738344613165
basic,37,20,0,0,0,0,[0],1,21,"[1, 2, 3, 4, 5, 6, 7, 8, 9, 12, 17, 18, 20, 21, 22, 23, 25, 26, 27, 28, 29]",300,148,-1,1,9,9,0.0
basic,37,20,0,0,0,12,"[0, 12]",2,20,"[1, 2, 3, 4, 5, 6, 7, 8, 9, 17, 18, 20, 21, 22, 23, 25, 26, 27, 28, 29]",271.5570747,5235,5087,1,8,9,1.0
basic,37,20,0,0,0,1,"[0, 12, 1]",3,12,"[3, 4, 5, 6, 8, 9, 20, 21, 23, 27, 28, 29]",189.5692707,6431,1196,1,6,9,1.0757997779162911
basic,37,20,0,0,0,5,"[0, 12, 1, 5]",4,10,"[4, 6, 8, 9, 20, 21, 23, 27, 28, 29]",152.8950291,7438,1007,1,5,9,1.1708231454516806
basic,37,20,0,0,0,21,"[0, 12, 1, 5, 21]",5,8,"[4, 6, 8, 9, 20, 23, 27, 28]",107.8950291,10278,2840,1,4,9,1.126197336199212
basic,37,20,0,0,0,8,"[0, 12, 1, 5, 21, 8]",6,5,"[6, 9, 23, 27, 28]",90.43077988,11438,1160,1,3,9,1.140007470699913
basic,37,20,0,0,0,23,"[0, 12, 1, 5, 21, 8, 23]",7,2,"[6, 9]",45.74297394,12822,1384,1,1,9,1.1162257896627588
basic,37,20,0,0,0,9,"[0, 12, 1, 5, 21, 8, 23, 9]",8,1,[6],26.53360123,13758,936,1,0,9,1.1086880559449597
basic,37,20,0,0,1,6,"[0, 12, 1, 5, 21, 8, 23, 9, 6]",9,0,[],3.511872362,14823,1065,1,0,9,1.1186240265999328
basic,37,20,0,1,1,6,"[0, 12, 1, 5, 21, 8, 23, 9, 6]",9,0,[],3.511872362,17012,2189,1,0,9,1.1186240265999328
basic,38,43,0,0,0,0,[0],1,23,"[1, 2, 3, 4, 5, 6, 7, 9, 10, 11, 12, 14, 15, 16, 17, 19, 20, 21, 22, 23, 25, 27, 29]",300,147,-1,16,556,12,0.0
basic,38,43,0,0,0,29,"[0, 29]",2,22,"[1, 2, 3, 4, 5, 6, 7, 9, 10, 11, 12, 14, 15, 16, 17, 19, 20, 21, 22, 23, 25, 27]",277.909278,14023,13876,16,520,12,1.0
basic,38,43,0,0,0,20,"[0, 29, 20]",3,20,"[1, 2, 3, 4, 6, 7, 9, 10, 11, 12, 14, 15, 16, 17, 19, 21, 22, 23, 25, 27]",254.4785289,14975,952,15,422,12,1.082311746871282
basic,38,43,0,0,0,16,"[0, 29, 20, 16]",4,19,"[1, 2, 3, 4, 6, 7, 9, 10, 11, 12, 14, 15, 17, 19, 21, 22, 23, 25, 27]",231.8511119,15767,792,15,389,12,1.215201926898219
basic,38,43,0,0,0,25,"[0, 29, 20, 16, 25]",5,14,"[1, 2, 3, 4, 6, 7, 9, 11, 12, 14, 15, 19, 22, 23]",175.7708124,16767,1000,53,282,11,1.566384303308987
basic,38,43,0,0,0,15,"[0, 29, 20, 16, 25, 15]",6,13,"[1, 2, 3, 4, 6, 7, 9, 11, 12, 14, 19, 22, 23]",153.0992443,17623,856,27,108,11,1.776736412604812
basic,38,43,0,0,0,12,"[0, 29, 20, 16, 25, 15, 12]",7,10,"[1, 3, 6, 7, 9, 11, 14, 19, 22, 23]",133.7860364,18616,993,21,41,11,1.6813323012225032
basic,38,43,0,0,0,3,"[0, 29, 20, 16, 25, 15, 12, 3]",8,9,"[1, 6, 7, 9, 11, 14, 19, 22, 23]",120.7860364,19271,655,20,12,11,1.608740348096123
basic,38,43,0,0,0,22,"[0, 29, 20, 16, 25, 15, 12, 3, 22]",9,6,"[1, 6, 7, 11, 14, 19]",86.07292644,20943,1672,9,2,11,1.793657891802588
basic,38,43,0,0,0,11,"[0, 29, 20, 16, 25, 15, 12, 3, 22, 11]",10,1,[6],40.00775521,22103,1160,1,0,11,2.857057635054945
basic,38,43,0,0,1,6,"[0, 29, 20, 16, 25, 15, 12, 3, 22, 11, 6]",11,0,[],19.39222709,23098,995,1,0,11,2.5442600061215437
basic,38,43,0,1,1,6,"[0, 29, 20, 16, 25, 15, 12, 3, 22, 11, 6]",11,0,[],19.39222709,29810,6712,1,0,11,2.5442600061215437
basic,39,19,0,0,0,0,[0],1,29,"[1, 2, 3, 4, 5, 6, 7, 8, 9, 10, 11, 12, 13, 14, 15, 16, 17, 18, 19, 20, 21, 22, 23, 24, 25, 26, 27, 28, 29]",300,148,-1,12,149,8,0.0
basic,39,19,0,0,0,29,"[0, 29]",2,28,"[1, 2, 3, 4, 5, 6, 7, 8, 9, 10, 11, 12, 13, 14, 15, 16, 17, 18, 19, 20, 21, 22, 23, 24, 25, 26, 27, 28]",265.0715016,28042,27894,12,120,8,1.0
basic,39,19,0,0,0,9,"[0, 29, 9]",3,17,"[1, 4, 5, 6, 7, 10, 11, 12, 13, 14, 19, 20, 21, 22, 24, 27, 28]",181.7108394,30993,2951,11,65,8,1.0375842971861238
basic,39,19,0,0,0,6,"[0, 29, 9, 6]",4,12,"[4, 7, 10, 11, 13, 14, 20, 21, 22, 24, 27, 28]",140.2741407,32202,1209,11,34,8,1.0389786364356892
basic,39,19,0,0,0,10,"[0, 29, 9, 6, 10]",5,6,"[7, 11, 14, 20, 21, 22]",88.12052147,33730,1528,2,4,7,1.155862919557741
basic,39,19,0,0,0,22,"[0, 29, 9, 6, 10, 22]",6,1,[20],42.15314173,35306,1576,1,0,7,1.2103352285308004
basic,39,19,0,0,1,20,"[0, 29, 9, 6, 10, 22, 20]",7,0,[],29.00019529,36034,728,1,0,7,1.198691816359345
basic,39,19,0,1,1,20,"[0, 29, 9, 6, 10, 22, 20]",7,0,[],29.00019529,40257,4223,1,0,7,1.198691816359345
basic,40,1,0,0,0,0,[0],1,26,"[1, 2, 4, 5, 7, 8, 9, 10, 11, 12, 13, 14, 15, 16, 17, 18, 19, 20, 21, 22, 23, 24, 25, 26, 28, 29]",300,145,-1,6,74,7,0.0
basic,40,1,0,0,0,14,"[0, 14]",2,19,"[1, 4, 5, 8, 9, 13, 15, 17, 18, 19, 20, 21, 22, 23, 24, 25, 26, 28, 29]",200.1901808,11965,11820,5,42,7,1.0
basic,40,1,0,0,0,17,"[0, 14, 17]",3,15,"[1, 4, 5, 8, 9, 13, 15, 18, 19, 20, 22, 23, 25, 28, 29]",147.8356204,14259,2294,5,27,7,1.0028844724416826
basic,40,1,0,0,0,1,"[0, 14, 17, 1]",4,12,"[4, 5, 8, 9, 15, 18, 20, 22, 23, 25, 28, 29]",123.4840291,15915,1656,5,15,7,1.0264985578353567
basic,40,1,0,0,0,28,"[0, 14, 17, 1, 28]",5,5,"[9, 15, 22, 23, 29]",88.59850198,16731,816,5,3,7,1.0339861575999345
basic,40,1,0,0,0,23,"[0, 14, 17, 1, 28, 23]",6,2,"[15, 22]",51.70676849,17755,1024,2,0,7,1.0327458250705703
basic,40,1,0,0,1,15,"[0, 14, 17, 1, 28, 23, 15]",7,0,[],20.81987807,21346,3591,1,0,7,1.1948681641401226
basic,40,1,0,1,1,15,"[0, 14, 17, 1, 28, 23, 15]",7,0,[],20.81987807,22807,1461,1,0,7,1.1948681641401226
basic,41,28,0,0,0,0,[0],1,27,"[1, 2, 3, 4, 5, 6, 7, 8, 9, 10, 11, 12, 13, 14, 15, 16, 17, 18, 19, 20, 22, 23, 25, 26, 27, 28, 29]",300,147,-1,2,96,9,0.0
basic,41,28,0,0,0,3,"[0, 3]",2,26,"[1, 2, 4, 5, 6, 7, 8, 9, 10, 11, 12, 13, 14, 15, 16, 17, 18, 19, 20, 22, 23, 25, 26, 27, 28, 29]",251.0817008,6262,6115,1,64,9,1.0
basic,41,28,0,0,0,5,"[0, 3, 5]",3,20,"[2, 4, 6, 7, 8, 9, 10, 11, 12, 13, 14, 15, 18, 19, 20, 23, 25, 26, 28, 29]",166.9865166,7455,1193,1,34,9,1.0203769473612083
basic,41,28,0,0,0,26,"[0, 3, 5, 26]",4,13,"[2, 4, 7, 8, 9, 12, 13, 14, 18, 19, 20, 25, 28]",134.2298379,8455,1000,1,28,9,1.0315203228799597
basic,41,28,0,0,0,19,"[0, 3, 5, 26, 19]",5,7,"[2, 7, 9, 12, 13, 14, 18]",93.22983789,9743,1288,1,17,9,1.1324645362297356
basic,41,28,0,0,0,7,"[0, 3, 5, 26, 19, 7]",6,5,"[2, 12, 13, 14, 18]",65.49898864,10535,792,1,6,9,1.1971194919020265
basic,41,28,0,0,0,12,"[0, 3, 5, 26, 19, 7, 12]",7,2,"[13, 18]",52.3460422,11671,1136,1,1,9,1.2020762147848982
basic,41,28,0,0,0,13,"[0, 3, 5, 26, 19, 7, 12, 13]",8,1,[18],35.14139167,12650,979,1,0,9,1.39005144078531
basic,41,28,0,0,1,18,"[0, 3, 5, 26, 19, 7, 12, 13, 18]",9,0,[],10.72828044,13599,949,1,0,9,1.738787343626007
basic,41,28,0,1,1,18,"[0, 3, 5, 26, 19, 7, 12, 13, 18]",9,0,[],10.72828044,16177,2578,1,0,9,1.738787343626007
basic,42,37,0,0,0,0,[0],1,29,"[1, 2, 3, 4, 5, 6, 7, 8, 9, 10, 11, 12, 13, 14, 15, 16, 17, 18, 19, 20, 21, 22, 23, 24, 25, 26, 27, 28, 29]",300,150,-1,6,168,10,0.0
basic,42,37,0,0,0,19,"[0, 19]",2,19,"[1, 2, 4, 5, 6, 7, 9, 10, 11, 15, 17, 18, 20, 21, 22, 25, 26, 28, 29]",185.6627795,14857,14707,25,244,9,1.0
basic,42,37,0,0,0,21,"[0, 19, 21]",3,14,"[1, 2, 4, 7, 10, 11, 15, 17, 18, 20, 22, 25, 26, 29]",144.5531699,16050,1193,10,75,9,1.001632816594558
basic,42,37,0,0,0,15,"[0, 19, 21, 15]",4,9,"[1, 2, 4, 7, 18, 20, 22, 26, 29]",129.5531699,16954,904,5,32,9,1.0243376499143988
basic,42,37,0,0,0,20,"[0, 19, 21, 15, 20]",5,8,"[1, 2, 4, 7, 18, 22, 26, 29]",112.5531699,18185,1231,5,14,9,1.250507291508492
basic,42,37,0,0,0,1,"[0, 19, 21, 15, 20, 1]",6,6,"[2, 4, 7, 18, 22, 26]",78.31868434,19121,936,4,4,9,1.4002166443864243
basic,42,37,0,0,0,4,"[0, 19, 21, 15, 20, 1, 4]",7,2,"[2, 22]",60.5986392,19883,762,2,0,9,1.472939356650523
basic,42,37,0,0,0,2,"[0, 19, 21, 15, 20, 1, 4, 2]",8,1,[22],49.19688495,21282,1399,1,0,9,1.6590570350137948
basic,42,37,0,0,1,22,"[0, 19, 21, 15, 20, 1, 4, 2, 22]",9,0,[],21.53825157,22337,1055,1,0,9,1.7098673138592275
basic,42,37,0,1,1,22,"[0, 19, 21, 15, 20, 1, 4, 2, 22]",9,0,[],21.53825157,24543,2206,1,0,9,1.7098673138592275
basic,43,36,0,0,0,0,[0],1,24,"[2, 4, 5, 6, 7, 8, 9, 10, 12, 13, 14, 15, 16, 17, 18, 19, 20, 22, 23, 25, 26, 27, 28, 29]",300,150,-1,2,200,10,0.0
basic,43,36,0,0,0,12,"[0, 12]",2,23,"[2, 4, 5, 6, 7, 8, 9, 10, 13, 14, 15, 16, 17, 18, 19, 20, 22, 23, 25, 26, 27, 28, 29]",277.7963967,4078,3928,90,804,9,1.0
basic,43,36,0,0,0,9,"[0, 12, 9]",3,14,"[2, 4, 8, 10, 13, 16, 17, 18, 19, 23, 25, 27, 28, 29]",215.4345494,5446,1368,32,191,9,1.224429481246385
basic,43,36,0,0,0,16,"[0, 12, 9, 16]",4,8,"[2, 10, 13, 17, 18, 19, 23, 25]",168.137615,6262,816,7,26,9,1.235383731443557
basic,43,36,0,0,0,17,"[0, 12, 9, 16, 17]",5,6,"[2, 10, 13, 18, 19, 25]",139.8180105,7303,1041,7,14,9,1.6947865799475665
basic,43,36,0,0,0,19,"[0, 12, 9, 16, 17, 19]",6,5,"[2, 10, 13, 18, 25]",111.9253591,9434,2131,6,1,9,2.440059772477113
basic,43,36,0,0,0,2,"[0, 12, 9, 16, 17, 19, 2]",7,2,"[13, 25]",74.80393675,10742,1308,2,0,9,1.994135267441798
basic,43,36,0,0,0,25,"[0, 12, 9, 16, 17, 19, 2, 25]",8,1,[13],49.80393675,13454,2712,1,0,9,2.1853059870598197
basic,43,36,0,0,1,13,"[0, 12, 9, 16, 17, 19, 2, 25, 13]",9,0,[],29.21267647,14265,811,1,0,9,2.7608371719978186
basic,43,36,0,1,1,13,"[0, 12, 9, 16, 17, 19, 2, 25, 13]",9,0,[],29.21267647,15978,1713,1,0,9,2.7608371719978186
basic,44,3,0,0,0,0,[0],1,29,"[1, 2, 3, 4, 5, 6, 7, 8, 9, 10, 11, 12, 13, 14, 15, 16, 17, 18, 19, 20, 21, 22, 23, 24, 25, 26, 27, 28, 29]",300,147,-1,34,427,10,0.0
basic,44,3,0,0,0,7,"[0, 7]",2,28,"[1, 2, 3, 4, 5, 6, 8, 9, 10, 11, 12, 13, 14, 15, 16, 17, 18, 19, 20, 21, 22, 23, 24, 25, 26, 27, 28, 29]",278.8103799,7916,7769,24,215,10,1.0
basic,44,3,0,0,0,8,"[0, 7, 8]",3,24,"[1, 2, 3, 4, 5, 6, 10, 11, 12, 13, 14, 15, 16, 17, 18, 19, 20, 21, 22, 24, 25, 26, 27, 28]",222.837172,9496,1580,16,114,10,1.2853332575451413
basic,44,3,0,0,0,24,"[0, 7, 8, 24]",4,21,"[1, 3, 4, 5, 6, 10, 11, 12, 14, 15, 16, 17, 18, 19, 20, 21, 22, 25, 26, 27, 28]",210.671647,10234,738,16,91,10,1.5177505014936548
basic,44,3,0,0,0,17,"[0, 7, 8, 24, 17]",5,9,"[3, 4, 10, 14, 15, 16, 19, 20, 21]",141.3174834,11409,1175,7,26,10,1.5510961300062232
basic,44,3,0,0,0,20,"[0, 7, 8, 24, 17, 20]",6,7,"[3, 4, 10, 14, 16, 19, 21]",128.6683728,12153,744,7,14,10,1.5133082717474817
basic,44,3,0,0,0,3,"[0, 7, 8, 24, 17, 20, 3]",7,5,"[4, 10, 14, 19, 21]",108.2722947,13177,1024,7,4,10,1.5325960555943097
basic,44,3,0,0,0,19,"[0, 7, 8, 24, 17, 20, 3, 19]",8,3,"[10, 14, 21]",70.93598532,14457,1280,3,1,10,1.5521294182529992
basic,44,3,0,0,0,21,"[0, 7, 8, 24, 17, 20, 3, 19, 21]",9,2,"[10, 14]",58.72942971,15360,903,2,0,10,1.5690424431931145
basic,44,3,0,0,1,14,"[0, 7, 8, 24, 17, 20, 3, 19, 21, 14]",10,0,[],31.82218161,16753,1393,1,0,10,2.0836613372745463
basic,44,3,0,1,1,14,"[0, 7, 8, 24, 17, 20, 3, 19, 21, 14]",10,0,[],31.82218161,21677,4924,1,0,10,2.0836613372745463
basic,45,12,0,0,0,0,[0],1,29,"[1, 2, 3, 4, 5, 6, 7, 8, 9, 10, 11, 12, 13, 14, 15, 16, 17, 18, 19, 20, 21, 22, 23, 24, 25, 26, 27, 28, 29]",300,133,-1,2,32,9,0.0
basic,45,12,0,0,0,19,"[0, 19]",2,20,"[2, 4, 5, 6, 7, 8, 10, 12, 13, 14, 15, 16, 17, 18, 22, 24, 25, 26, 27, 29]",169.7310474,10969,10836,8,46,6,1.0
basic,45,12,0,0,0,24,"[0, 19, 24]",3,7,"[4, 7, 12, 14, 16, 22, 27]",110.9092828,12177,1208,4,5,6,1.0595354470791811
basic,45,12,0,0,0,14,"[0, 19, 24, 14]",4,3,"[4, 12, 27]",93.70463223,13152,975,3,1,6,1.1079945136361111
basic,45,12,0,0,0,27,"[0, 19, 24, 14, 27]",5,2,"[4, 12]",65.05153467,14129,977,2,0,6,1.3735918860205274
basic,45,12,0,0,1,12,"[0, 19, 24, 14, 27, 12]",6,0,[],40.69994334,14851,722,1,0,6,1.5694128238342753
basic,45,12,0,1,1,12,"[0, 19, 24, 14, 27, 12]",6,0,[],40.69994334,18227,3376,1,0,6,1.5694128238342753
basic,46,32,0,0,0,0,[0],1,29,"[1, 2, 3, 4, 5, 6, 7, 8, 9, 10, 11, 12, 13, 14, 15, 16, 17, 18, 19, 20, 21, 22, 23, 24, 25, 26, 27, 28, 29]",300,159,-1,17,359,10,0.0
basic,46,32,0,0,0,15,"[0, 15]",2,24,"[2, 3, 4, 5, 6, 7, 8, 9, 10, 11, 12, 13, 14, 16, 17, 19, 20, 22, 23, 24, 25, 26, 27, 28]",214.6185032,11977,11818,11,153,9,1.0
basic,46,32,0,0,0,28,"[0, 15, 28]",3,21,"[2, 3, 5, 7, 8, 9, 10, 11, 12, 13, 14, 16, 17, 19, 20, 22, 23, 24, 25, 26, 27]",203.2167489,13646,1669,11,119,9,1.000160051986942
basic,46,32,0,0,0,12,"[0, 15, 28, 12]",4,19,"[2, 3, 5, 7, 8, 9, 10, 11, 13, 16, 17, 19, 20, 22, 23, 24, 25, 26, 27]",184.243083,14590,944,8,71,9,1.0281484763748023
basic,46,32,0,0,0,16,"[0, 15, 28, 12, 16]",5,17,"[2, 3, 5, 7, 8, 9, 10, 11, 13, 17, 19, 20, 22, 23, 24, 26, 27]",168.5906071,15638,1048,6,38,9,1.1190771370096
basic,46,32,0,0,0,27,"[0, 15, 28, 12, 16, 27]",6,6,"[3, 7, 10, 11, 22, 24]",92.31479182,20462,4824,2,3,9,1.1348918479781422
basic,46,32,0,0,0,3,"[0, 15, 28, 12, 16, 27, 3]",7,3,"[7, 11, 24]",66.81969425,21384,922,1,2,9,1.144457863975442
basic,46,32,0,0,0,11,"[0, 15, 28, 12, 16, 27, 3, 11]",8,1,[7],51.1991949,22417,1033,1,0,9,1.18010536284934
basic,46,32,0,0,1,7,"[0, 15, 28, 12, 16, 27, 3, 11, 7]",9,0,[],6.995122688,23510,1093,1,0,9,1.1924074998895657
basic,46,32,0,1,1,7,"[0, 15, 28, 12, 16, 27, 3, 11, 7]",9,0,[],6.995122688,25128,1618,1,0,9,1.1924074998895657
basic,47,44,0,0,0,0,[0],1,29,"[1, 2, 3, 4, 5, 6, 7, 8, 9, 10, 11, 12, 13, 14, 15, 16, 17, 18, 19, 20, 21, 22, 23, 24, 25, 26, 27, 28, 29]",300,142,-1,13,126,7,0.0
basic,47,44,0,0,0,24,"[0, 24]",2,19,"[2, 4, 5, 6, 7, 8, 9, 11, 12, 14, 16, 17, 19, 20, 22, 23, 25, 26, 28]",149.7302426,14078,13936,4,43,7,1.0
basic,47,44,0,0,0,9,"[0, 24, 9]",3,11,"[4, 5, 7, 8, 11, 12, 14, 20, 23, 25, 28]",116.9735639,15014,936,2,15,7,1.153461779613976
basic,47,44,0,0,0,4,"[0, 24, 9, 4]",4,10,"[5, 7, 8, 11, 12, 14, 20, 23, 25, 28]",97.27584825,15729,715,2,10,7,1.1541915958625368
basic,47,44,0,0,0,7,"[0, 24, 9, 4, 7]",5,4,"[5, 12, 23, 25]",66.25972341,18414,2685,2,2,7,1.1312544568834735
basic,47,44,0,0,1,23,"[0, 24, 9, 4, 7, 23]",6,0,[],47.15475024,19287,873,1,0,6,1.154496377323794
basic,47,44,0,1,1,23,"[0, 24, 9, 4, 7, 23]",6,0,[],47.15475024,23038,3751,1,0,6,1.154496377323794
basic,48,10,0,0,0,0,[0],1,29,"[1, 2, 3, 4, 5, 6, 7, 8, 9, 10, 11, 12, 13, 14, 15, 16, 17, 18, 19, 20, 21, 22, 23, 24, 25, 26, 27, 28, 29]",300,147,-1,1,100,9,0.0
basic,48,10,0,0,0,13,"[0, 13]",2,25,"[1, 2, 3, 4, 6, 7, 8, 9, 10, 11, 12, 14, 17, 18, 19, 20, 21, 22, 23, 24, 25, 26, 27, 28, 29]",249.4628849,5860,5713,1,79,9,1.0
basic,48,10,0,0,0,11,"[0, 13, 11]",3,20,"[1, 2, 3, 6, 7, 8, 9, 10, 12, 14, 18, 19, 20, 21, 22, 24, 26, 27, 28, 29]",206.4512586,6967,1107,1,54,9,1.0313137484914219
basic,48,10,0,0,0,20,"[0, 13, 11, 20]",4,15,"[1, 2, 3, 6, 8, 9, 10, 12, 14, 18, 19, 21, 24, 26, 27]",168.3723931,8555,1588,15,34,8,1.0874972644654597
basic,48,10,0,0,0,26,"[0, 13, 11, 20, 26]",5,8,"[2, 6, 9, 10, 14, 18, 19, 27]",136.5918959,10215,1660,6,9,8,1.2338398611867702
basic,48,10,0,0,0,19,"[0, 13, 11, 20, 26, 19]",6,4,"[2, 10, 14, 27]",108.2722914,11333,1118,2,2,8,1.605667351096318
basic,48,10,0,0,0,2,"[0, 13, 11, 20, 26, 19, 2]",7,1,[14],64.36329458,12749,1416,1,0,8,1.443425373304724
basic,48,10,0,0,1,14,"[0, 13, 11, 20, 26, 19, 2, 14]",8,0,[],52.19776952,13835,1086,1,0,8,1.5494298542386484
basic,48,10,0,1,1,14,"[0, 13, 11, 20, 26, 19, 2, 14]",8,0,[],52.19776952,17093,3258,1,0,8,1.5494298542386484
basic,49,7,0,0,0,0,[0],1,29,"[1, 2, 3, 4, 5, 6, 7, 8, 9, 10, 11, 12, 13, 14, 15, 16, 17, 18, 19, 20, 21, 22, 23, 24, 25, 26, 27, 28, 29]",300,145,-1,3,79,9,0.0
basic,49,7,0,0,0,25,"[0, 25]",2,20,"[2, 3, 4, 5, 6, 7, 10, 13, 14, 15, 16, 18, 19, 20, 21, 22, 23, 24, 27, 28]",181.5939191,7409,7264,5,33,8,1.0
basic,49,7,0,0,0,4,"[0, 25, 4]",3,11,"[2, 6, 7, 13, 15, 16, 18, 19, 20, 21, 23]",156.8552853,8385,976,2,14,8,1.0193465608331511
basic,49,7,0,0,0,20,"[0, 25, 4, 20]",4,8,"[2, 6, 7, 13, 15, 16, 18, 19]",137.2084026,9283,898,1,9,8,1.085904909082323
basic,49,7,0,0,0,18,"[0, 25, 4, 20, 18]",5,7,"[2, 6, 7, 13, 15, 16, 19]",124.4021541,10132,849,1,5,8,1.2264883846453758
basic,49,7,0,0,0,7,"[0, 25, 4, 20, 18, 7]",6,2,"[2, 19]",83.17109789,11304,1172,1,1,8,1.185264473968278
basic,49,7,0,0,0,19,"[0, 25, 4, 20, 18, 7, 19]",7,1,[2],53.76021555,12282,978,1,0,8,1.3016904288278204
basic,49,7,0,0,1,2,"[0, 25, 4, 20, 18, 7, 19, 2]",8,0,[],23.61058868,13732,1450,1,0,8,1.3168868000947171
basic,49,7,0,1,1,2,"[0, 25, 4, 20, 18, 7, 19, 2]",8,0,[],23.61058868,15160,1428,1,0,8,1.3168868000947171
basic,50,45,0,0,0,0,[0],1,24,"[1, 2, 3, 4, 5, 6, 7, 9, 10, 11, 12, 14, 15, 16, 17, 19, 20, 21, 22, 23, 24, 25, 27, 29]",300,150,-1,6,248,10,0.0
basic,50,45,0,0,0,15,"[0, 15]",2,23,"[1, 2, 3, 4, 5, 6, 7, 9, 10, 11, 12, 14, 16, 17, 19, 20, 21, 22, 23, 24, 25, 27, 29]",253.9022777,23432,23282,5,207,10,1.0
basic,50,45,0,0,0,23,"[0, 15, 23]",3,22,"[1, 2, 3, 4, 5, 6, 7, 9, 10, 11, 12, 14, 16, 17, 19, 20, 21, 22, 24, 25, 27, 29]",230.3014303,24485,1053,5,163,10,1.0006068457769497
basic,50,45,0,0,0,20,"[0, 15, 23, 20]",4,19,"[1, 2, 3, 5, 6, 7, 9, 10, 11, 12, 14, 16, 17, 19, 21, 22, 24, 25, 29]",188.8647316,25549,1064,5,137,10,1.2062119754673604
basic,50,45,0,0,0,2,"[0, 15, 23, 20, 2]",5,11,"[3, 6, 7, 10, 12, 14, 16, 19, 22, 24, 29]",109.8077901,32805,7256,7,34,9,1.1347329476958932
basic,50,45,0,0,0,3,"[0, 15, 23, 20, 2, 3]",6,6,"[6, 7, 10, 12, 22, 29]",84.48981225,33917,1112,4,11,9,1.20136447472029
basic,50,45,0,0,0,29,"[0, 15, 23, 20, 2, 3, 29]",7,5,"[6, 7, 10, 12, 22]",64.48981225,35101,1184,3,3,9,1.4622603795691385
basic,50,45,0,0,0,10,"[0, 15, 23, 20, 2, 3, 29, 10]",8,1,[6],42.94915303,36052,951,1,0,9,1.7469079850469198
basic,50,45,0,0,1,6,"[0, 15, 23, 20, 2, 3, 29, 10, 6]",9,0,[],16.70034353,37663,1611,1,0,9,1.6448408057065311
basic,50,45,0,1,1,6,"[0, 15, 23, 20, 2, 3, 29, 10, 6]",9,0,[],16.70034353,40857,3194,1,0,9,1.6448408057065311
basic,51,24,0,0,0,0,[0],1,29,"[1, 2, 3, 4, 5, 6, 7, 8, 9, 10, 11, 12, 13, 14, 15, 16, 17, 18, 19, 20, 21, 22, 23, 24, 25, 26, 27, 28, 29]",300,146,-1,4,76,10,0.0
basic,51,24,0,0,0,16,"[0, 16]",2,28,"[1, 2, 3, 4, 5, 6, 7, 8, 9, 10, 11, 12, 13, 14, 15, 17, 18, 19, 20, 21, 22, 23, 24, 25, 26, 27, 28, 29]",210.3562607,3651,3505,13,110,9,1.0
basic,51,24,0,0,0,22,"[0, 16, 22]",3,27,"[1, 2, 3, 4, 5, 6, 7, 8, 9, 10, 11, 12, 13, 14, 15, 17, 18, 19, 20, 21, 23, 24, 25, 26, 27, 28, 29]",192.3285043,5207,1556,7,54,9,1.0217425143037777
basic,51,24,0,0,0,8,"[0, 16, 22, 8]",4,21,"[1, 2, 3, 4, 6, 9, 10, 11, 13, 14, 15, 17, 20, 21, 23, 24, 25, 26, 27, 28, 29]",178.9120964,6423,1216,4,28,9,1.0996636936037951
basic,51,24,0,0,0,15,"[0, 16, 22, 8, 15]",5,16,"[3, 4, 6, 9, 10, 11, 13, 14, 17, 23, 24, 25, 26, 27, 28, 29]",148.025206,7471,1048,3,17,9,1.2704773343758617
basic,51,24,0,0,0,28,"[0, 16, 22, 8, 15, 28]",6,8,"[3, 4, 9, 11, 13, 23, 26, 27]",102.7482803,8855,1384,3,5,9,1.1981967578189556
basic,51,24,0,0,0,23,"[0, 16, 22, 8, 15, 28, 23]",7,3,"[9, 11, 27]",83.72198273,9800,945,3,1,9,1.2275650852813986
basic,51,24,0,0,0,11,"[0, 16, 22, 8, 15, 28, 23, 11]",8,2,"[9, 27]",56.79615869,11450,1650,2,0,9,1.2107937989822568
basic,51,24,0,0,1,27,"[0, 16, 22, 8, 15, 28, 23, 11, 27]",9,0,[],28.99328114,13883,2433,1,0,9,1.1865620449755248
basic,51,24,0,1,1,27,"[0, 16, 22, 8, 15, 28, 23, 11, 27]",9,0,[],28.99328114,16627,2744,1,0,9,1.1865620449755248
basic,52,40,0,0,0,0,[0],1,29,"[1, 2, 3, 4, 5, 6, 7, 8, 9, 10, 11, 12, 13, 14, 15, 16, 17, 18, 19, 20, 21, 22, 23, 24, 25, 26, 27, 28, 29]",300,148,-1,8,191,9,0.0
basic,52,40,0,0,0,1,"[0, 1]",2,18,"[2, 5, 6, 7, 8, 9, 10, 11, 13, 15, 17, 18, 19, 21, 22, 23, 27, 29]",247.8463808,9734,9586,4,80,9,1.0
basic,52,40,0,0,0,6,"[0, 1, 6]",3,17,"[2, 5, 7, 8, 9, 10, 11, 13, 15, 17, 18, 19, 21, 22, 23, 27, 29]",227.7466295,10770,1036,4,74,9,1.0459427008232034
basic,52,40,0,0,0,21,"[0, 1, 6, 21]",4,8,"[2, 5, 9, 17, 18, 19, 22, 23]",175.7754837,12018,1248,4,25,9,1.0308822257404064
basic,52,40,0,0,0,9,"[0, 1, 6, 21, 9]",5,6,"[2, 5, 18, 19, 22, 23]",130.0699041,13193,1175,4,12,9,1.377861912961129
basic,52,40,0,0,0,18,"[0, 1, 6, 21, 9, 18]",6,5,"[2, 5, 19, 22, 23]",113.5169588,14025,832,4,4,9,1.5742712168661408
basic,52,40,0,0,0,5,"[0, 1, 6, 21, 9, 18, 5]",7,3,"[19, 22, 23]",81.94165198,16225,2200,2,1,9,1.7730665063055515
basic,52,40,0,0,0,23,"[0, 1, 6, 21, 9, 18, 5, 23]",8,1,[19],53.63970859,17609,1384,1,0,9,2.597442759912231
basic,52,40,0,0,1,19,"[0, 1, 6, 21, 9, 18, 5, 23, 19]",9,0,[],21.68661797,18889,1280,1,0,9,2.7128328554069565
basic,52,40,0,1,1,19,"[0, 1, 6, 21, 9, 18, 5, 23, 19]",9,0,[],21.68661797,20494,1605,1,0,9,2.7128328554069565
basic,53,22,0,0,0,0,[0],1,29,"[1, 2, 3, 4, 5, 6, 7, 8, 9, 10, 11, 12, 13, 14, 15, 16, 17, 18, 19, 20, 21, 22, 23, 24, 25, 26, 27, 28, 29]",300,146,-1,31,704,9,0.0
basic,53,22,0,0,0,29,"[0, 29]",2,22,"[1, 3, 5, 6, 7, 8, 9, 11, 13, 14, 15, 16, 17, 19, 20, 21, 22, 23, 24, 25, 27, 28]",222.9935068,6984,6838,11,235,9,1.0
basic,53,22,0,0,0,19,"[0, 29, 19]",3,18,"[1, 3, 6, 7, 8, 9, 13, 14, 15, 16, 17, 20, 21, 22, 23, 24, 25, 28]",207.9602104,7822,838,11,172,9,1.1559285443414686
basic,53,22,0,0,0,9,"[0, 29, 19, 9]",4,16,"[1, 3, 6, 7, 8, 13, 14, 15, 16, 17, 20, 21, 22, 24, 25, 28]",187.5641323,8734,912,7,84,9,1.2555028175473422
basic,53,22,0,0,0,6,"[0, 29, 19, 9, 6]",5,13,"[3, 7, 13, 14, 15, 16, 17, 20, 21, 22, 24, 25, 28]",160.9370784,9698,964,17,16,8,1.5692551066355458
basic,53,22,0,0,0,16,"[0, 29, 19, 9, 6, 16]",6,5,"[7, 14, 22, 25, 28]",126.4987277,10633,935,4,2,8,2.1316196867673534
basic,53,22,0,0,0,28,"[0, 29, 19, 9, 6, 16, 28]",7,2,"[7, 14]",92.06037699,11525,892,2,0,8,1.8800559086622874
basic,53,22,0,0,1,14,"[0, 29, 19, 9, 6, 16, 28, 14]",8,0,[],12.81392597,12983,1458,1,0,8,2.2169426471962033
basic,53,22,0,1,1,14,"[0, 29, 19, 9, 6, 16, 28, 14]",8,0,[],12.81392597,15293,2310,1,0,8,2.2169426471962033
basic,54,14,0,0,0,0,[0],1,29,"[1, 2, 3, 4, 5, 6, 7, 8, 9, 10, 11, 12, 13, 14, 15, 16, 17, 18, 19, 20, 21, 22, 23, 24, 25, 26, 27, 28, 29]",300,180,-1,8,157,10,0.0
basic,54,14,0,0,0,18,"[0, 18]",2,17,"[1, 2, 3, 4, 7, 8, 9, 13, 15, 17, 19, 20, 22, 23, 25, 26, 28]",179.8958785,7253,7073,18,136,9,1.0
basic,54,14,0,0,0,8,"[0, 18, 8]",3,13,"[1, 2, 4, 7, 13, 15, 17, 19, 20, 23, 25, 26, 28]",166.294408,8351,1098,18,99,9,1.0203858410107731
basic,54,14,0,0,0,19,"[0, 18, 8, 19]",4,10,"[1, 2, 4, 7, 15, 17, 23, 25, 26, 28]",145.6788799,9101,750,7,52,9,1.0436397834807676
basic,54,14,0,0,0,1,"[0, 18, 8, 19, 1]",5,9,"[2, 4, 7, 15, 17, 23, 25, 26, 28]",130.4473337,9934,833,7,21,9,1.096538583531719
basic,54,14,0,0,0,26,"[0, 18, 8, 19, 1, 26]",6,4,"[4, 7, 23, 25]",75.70247088,11588,1654,2,4,9,1.1305399427709442
basic,54,14,0,0,0,23,"[0, 18, 8, 19, 1, 26, 23]",7,3,"[4, 7, 25]",64.88581706,12421,833,2,1,9,1.2508020127641972
basic,54,14,0,0,0,25,"[0, 18, 8, 19, 1, 26, 23, 25]",8,1,[7],35.47493472,13632,1211,1,0,9,1.6160852369336203
basic,54,14,0,0,1,7,"[0, 18, 8, 19, 1, 26, 23, 25, 7]",9,0,[],15.77721911,14941,1309,1,0,9,1.6274549091166954
basic,54,14,0,1,1,7,"[0, 18, 8, 19, 1, 26, 23, 25, 7]",9,0,[],15.77721911,16277,1336,1,0,9,1.6274549091166954
basic,55,11,0,0,0,0,[0],1,25,"[1, 2, 3, 4, 5, 6, 8, 9, 10, 11, 12, 13, 14, 15, 16, 17, 18, 19, 20, 22, 23, 25, 26, 27, 28]",300,146,-1,6,374,12,0.0
basic,55,11,0,0,0,18,"[0, 18]",2,21,"[1, 2, 4, 5, 6, 8, 9, 11, 12, 13, 14, 15, 16, 17, 19, 20, 22, 23, 25, 27, 28]",236.8493864,5122,4976,157,1477,11,1.0
basic,55,11,0,0,0,27,"[0, 18, 27]",3,19,"[1, 2, 4, 5, 6, 8, 9, 11, 12, 14, 15, 16, 17, 19, 20, 22, 23, 25, 28]",212.9956655,6194,1072,157,1315,11,1.060949579704323
basic,55,11,0,0,0,8,"[0, 18, 27, 8]",4,14,"[1, 2, 4, 5, 6, 11, 12, 15, 17, 19, 22, 23, 25, 28]",142.7817068,7610,1416,68,433,11,1.0827202875589923
basic,55,11,0,0,0,17,"[0, 18, 27, 8, 17]",5,13,"[1, 2, 4, 5, 6, 11, 12, 15, 19, 22, 23, 25, 28]",128.4638857,8532,922,42,137,11,1.1662918234607762
basic,55,11,0,0,0,15,"[0, 18, 27, 8, 17, 15]",6,9,"[2, 5, 6, 11, 12, 19, 22, 25, 28]",115.8147751,9378,846,38,57,11,1.1741312027420885
basic,55,11,0,0,0,11,"[0, 18, 27, 8, 17, 15, 11]",7,7,"[2, 5, 6, 12, 19, 22, 28]",97.70400479,10059,681,24,0,11,1.1668679039564056
basic,55,11,0,0,0,28,"[0, 18, 27, 8, 17, 15, 11, 28]",8,4,"[2, 5, 19, 22]",78.28751696,11165,1106,6,0,11,1.2830334294205898
basic,55,11,0,0,0,2,"[0, 18, 27, 8, 17, 15, 11, 28, 2]",9,2,"[5, 22]",67.65737114,11786,621,2,0,11,1.3017261967352185
basic,55,11,0,0,0,22,"[0, 18, 27, 8, 17, 15, 11, 28, 2, 22]",10,1,[5],57.60749552,12707,921,1,0,11,1.2856712331893108
basic,55,11,0,0,1,5,"[0, 18, 27, 8, 17, 15, 11, 28, 2, 22, 5]",11,0,[],31.03683501,13650,943,1,0,11,1.653194834588669
basic,55,11,0,1,1,5,"[0, 18, 27, 8, 17, 15, 11, 28, 2, 22, 5]",11,0,[],31.03683501,23009,9359,1,0,11,1.653194834588669
basic,56,29,0,0,0,0,[0],1,29,"[1, 2, 3, 4, 5, 6, 7, 8, 9, 10, 11, 12, 13, 14, 15, 16, 17, 18, 19, 20, 21, 22, 23, 24, 25, 26, 27, 28, 29]",300,132,-1,1,78,9,0.0
basic,56,29,0,0,0,6,"[0, 6]",2,28,"[1, 2, 3, 4, 5, 7, 8, 9, 10, 11, 12, 13, 14, 15, 16, 17, 18, 19, 20, 21, 22, 23, 24, 25, 26, 27, 28, 29]",228.4108947,5870,5738,1,25,9,1.0
basic,56,29,0,0,0,28,"[0, 6, 28]",3,24,"[1, 3, 4, 5, 7, 9, 10, 11, 12, 13, 14, 15, 16, 17, 18, 20, 21, 22, 23, 24, 25, 26, 27, 29]",187.1798384,7984,2114,1,22,9,1.162106788166845
basic,56,29,0,0,0,27,"[0, 6, 28, 27]",4,19,"[1, 3, 4, 5, 7, 9, 10, 11, 12, 13, 14, 15, 16, 21, 22, 23, 25, 26, 29]",166.6615539,8662,678,1,21,9,1.2307173895439045
basic,56,29,0,0,0,22,"[0, 6, 28, 27, 22]",5,13,"[1, 3, 4, 5, 7, 9, 12, 13, 14, 15, 21, 26, 29]",133.4200136,9633,971,1,19,9,1.4241767805149903
basic,56,29,0,0,0,12,"[0, 6, 28, 27, 22, 12]",6,8,"[4, 5, 7, 9, 13, 14, 21, 26]",95.4726817,13661,4028,1,6,9,1.3248355326460857
basic,56,29,0,0,0,7,"[0, 6, 28, 27, 22, 12, 7]",7,4,"[4, 5, 9, 21]",81.87121119,14349,688,1,3,9,1.3264091962339806
basic,56,29,0,0,0,9,"[0, 6, 28, 27, 22, 12, 7, 9]",8,1,[4],52.80232748,15261,912,1,0,9,1.309391257644539
basic,56,29,0,0,1,4,"[0, 6, 28, 27, 22, 12, 7, 9, 4]",9,0,[],11.76575843,16573,1312,1,0,9,1.6396807789841599
basic,56,29,0,1,1,4,"[0, 6, 28, 27, 22, 12, 7, 9, 4]",9,0,[],11.76575843,18144,1571,1,0,9,1.6396807789841599
basic,57,18,0,0,0,0,[0],1,28,"[1, 2, 3, 4, 5, 6, 7, 8, 9, 10, 11, 12, 13, 14, 16, 17, 18, 19, 20, 21, 22, 23, 24, 25, 26, 27, 28, 29]",300,147,-1,3,136,10,0.0
basic,57,18,0,0,0,28,"[0, 28]",2,16,"[1, 3, 5, 7, 8, 9, 12, 13, 14, 16, 20, 23, 24, 25, 26, 27]",236.4311397,4930,4783,2,19,10,1.0
basic,57,18,0,0,0,7,"[0, 28, 7]",3,15,"[1, 3, 5, 8, 9, 12, 13, 14, 16, 20, 23, 24, 25, 26, 27]",214.4084242,5762,832,2,17,10,1.4345180696367563
basic,57,18,0,0,0,25,"[0, 28, 7, 25]",4,13,"[1, 3, 5, 8, 9, 12, 13, 14, 16, 20, 23, 26, 27]",186.6055466,6730,968,2,15,10,1.8896451241781882
basic,57,18,0,0,0,8,"[0, 28, 7, 25, 8]",5,10,"[3, 5, 9, 12, 13, 14, 16, 23, 26, 27]",149.551532,10073,3343,2,10,10,1.590467437592877
basic,57,18,0,0,0,13,"[0, 28, 7, 25, 8, 13]",6,9,"[3, 5, 9, 12, 14, 16, 23, 26, 27]",128.4565089,11161,1088,2,5,10,1.8248274983549797
basic,57,18,0,0,0,14,"[0, 28, 7, 25, 8, 13, 14]",7,7,"[3, 5, 9, 12, 23, 26, 27]",109.4828429,12149,988,2,3,10,1.6993534956692746
basic,57,18,0,0,0,3,"[0, 28, 7, 25, 8, 13, 14, 3]",8,3,"[5, 12, 27]",79.39962499,13549,1400,2,1,10,1.802637206541468
basic,57,18,0,0,0,5,"[0, 28, 7, 25, 8, 13, 14, 3, 5]",9,1,[12],21.21887216,15138,1589,1,0,10,1.559774889743805
basic,57,18,0,0,1,12,"[0, 28, 7, 25, 8, 13, 14, 3, 5, 12]",10,0,[],9.817117911,16474,1336,1,0,10,1.563993037384447
basic,57,18,0,1,1,12,"[0, 28, 7, 25, 8, 13, 14, 3, 5, 12]",10,0,[],9.817117911,18578,2104,1,0,10,1.563993037384447
basic,58,2,0,0,0,0,[0],1,23,"[1, 2, 4, 5, 6, 7, 8, 9, 12, 13, 15, 16, 17, 18, 19, 20, 22, 23, 25, 26, 27, 28, 29]",300,147,-1,70,620,10,0.0
basic,58,2,0,0,0,19,"[0, 19]",2,22,"[1, 2, 4, 5, 6, 7, 8, 9, 12, 13, 15, 16, 17, 18, 20, 22, 23, 25, 26, 27, 28, 29]",210.306076,3844,3697,67,431,10,1.0
basic,58,2,0,0,0,12,"[0, 19, 12]",3,17,"[1, 4, 5, 6, 7, 13, 15, 16, 17, 18, 20, 22, 25, 26, 27, 28, 29]",174.2921898,4718,874,66,298,10,1.1107635036313153
basic,58,2,0,0,0,5,"[0, 19, 12, 5]",4,11,"[1, 6, 7, 13, 15, 16, 18, 22, 25, 26, 29]",144.7625437,6436,1718,38,136,10,1.0968174771581647
basic,58,2,0,0,0,22,"[0, 19, 12, 5, 22]",5,8,"[1, 6, 7, 13, 15, 18, 26, 29]",131.9562952,7324,888,20,63,10,1.0889910507461968
basic,58,2,0,0,0,13,"[0, 19, 12, 5, 22, 13]",6,7,"[1, 6, 7, 15, 18, 26, 29]",117.0902265,8492,1168,19,20,10,1.236526217328057
basic,58,2,0,0,0,18,"[0, 19, 12, 5, 22, 13, 18]",7,4,"[7, 15, 26, 29]",81.91921567,9644,1152,10,3,10,1.2128708213409936
basic,58,2,0,0,0,7,"[0, 19, 12, 5, 22, 13, 18, 7]",8,3,"[15, 26, 29]",71.62358553,10766,1122,5,0,10,1.2019811287894737
basic,58,2,0,0,0,26,"[0, 19, 12, 5, 22, 13, 18, 7, 26]",9,2,"[15, 29]",48.82007703,11700,934,2,0,10,1.1883593342191134
basic,58,2,0,0,1,15,"[0, 19, 12, 5, 22, 13, 18, 7, 26, 15]",10,0,[],24.61264015,12604,904,1,0,10,1.4619750353663825
basic,58,2,0,1,1,15,"[0, 19, 12, 5, 22, 13, 18, 7, 26, 15]",10,0,[],24.61264015,14911,2307,1,0,10,1.4619750353663825
basic,59,15,0,0,0,0,[0],1,25,"[1, 2, 3, 4, 7, 8, 9, 10, 11, 12, 13, 14, 15, 16, 18, 20, 21, 22, 23, 24, 25, 26, 27, 28, 29]",300,135,-1,4,65,9,0.0
basic,59,15,0,0,0,21,"[0, 21]",2,17,"[1, 3, 4, 7, 8, 9, 11, 12, 13, 14, 15, 16, 22, 23, 24, 26, 27]",204.9158268,2674,2539,21,65,7,1.0
basic,59,15,0,0,0,12,"[0, 21, 12]",3,14,"[1, 3, 4, 7, 8, 9, 11, 13, 14, 15, 16, 22, 24, 27]",161.0866128,5362,2688,20,39,7,1.6068212046294776
basic,59,15,0,0,0,7,"[0, 21, 12, 7]",4,10,"[3, 4, 9, 11, 13, 14, 15, 16, 22, 27]",127.8450725,7090,1728,13,11,7,2.0298522511797907
basic,59,15,0,0,0,16,"[0, 21, 12, 7, 16]",5,5,"[3, 4, 11, 15, 22]",84.18731258,8202,1112,3,3,7,1.8904046427013528
basic,59,15,0,0,0,11,"[0, 21, 12, 7, 16, 11]",6,1,[3],58.16808892,9301,1099,1,0,7,1.9475991988988648
basic,59,15,0,0,1,3,"[0, 21, 12, 7, 16, 11, 3]",7,0,[],46.76633467,10186,885,1,0,7,1.912955285957019
basic,59,15,0,1,1,3,"[0, 21, 12, 7, 16, 11, 3]",7,0,[],46.76633467,13512,3326,1,0,7,1.912955285957019
basic,60,33,0,0,0,0,[0],1,23,"[1, 2, 5, 7, 8, 11, 12, 13, 14, 15, 16, 17, 18, 19, 20, 21, 23, 24, 25, 26, 27, 28, 29]",300,148,-1,5,108,9,0.0
basic,60,33,0,0,0,8,"[0, 8]",2,22,"[1, 2, 5, 7, 11, 12, 13, 14, 15, 16, 17, 18, 19, 20, 21, 23, 24, 25, 26, 27, 28, 29]",265.8679037,4905,4757,5,87,9,1.0
basic,60,33,0,0,0,21,"[0, 8, 21]",3,16,"[2, 5, 7, 11, 13, 14, 16, 17, 18, 19, 20, 24, 26, 27, 28, 29]",166.0430571,7159,2254,5,80,9,1.0670557763739492
basic,60,33,0,0,0,17,"[0, 8, 21, 17]",4,11,"[2, 7, 11, 13, 14, 16, 19, 20, 24, 26, 29]",127.4036989,8185,1026,1,18,9,1.0830294710276618
basic,60,33,0,0,0,13,"[0, 8, 21, 17, 13]",5,10,"[2, 7, 11, 14, 16, 19, 20, 24, 26, 29]",104.6001904,9952,1767,1,10,9,1.2861654105061844
