condition,trial_id,map_id,undoIndicator,submit,checkEnd,currentChoice,chosen_all,n_city_all,n_within_reach,cities_reach,currentBudget,time_all,rt_all,n_opt_paths_all,n_subopt_paths_all,mas_all,tortuosity_all
basic,0,16,0,0,0,0,[0],1,29,"[1, 2, 3, 4, 5, 6, 7, 8, 9, 10, 11, 12, 13, 14, 15, 16, 17, 18, 19, 20, 21, 22, 23, 24, 25, 26, 27, 28, 29]",300,322,-1,13,161,9,0.0
basic,0,16,0,0,0,17,"[0, 17]",2,27,"[1, 2, 3, 4, 5, 7, 8, 9, 10, 11, 12, 13, 14, 15, 16, 18, 19, 20, 21, 22, 23, 24, 25, 26, 27, 28, 29]",241.3058776,10320,9998,2,58,9,1.0
basic,0,16,0,0,0,16,"[0, 17, 16]",3,26,"[1, 2, 3, 4, 5, 7, 8, 9, 10, 11, 12, 13, 14, 15, 18, 19, 20, 21, 22, 23, 24, 25, 26, 27, 28, 29]",212.9862731,11653,1333,2,52,9,1.0529535521792848
basic,0,16,0,0,0,21,"[0, 17, 16, 21]",4,19,"[3, 5, 7, 8, 9, 10, 12, 14, 15, 19, 20, 22, 23, 24, 25, 26, 27, 28, 29]",168.332046,13704,2051,9,18,8,1.5524765786046826
basic,0,16,0,0,0,8,"[0, 17, 16, 21, 8]",5,7,"[3, 5, 9, 12, 15, 20, 25]",119.0776046,15412,1708,9,6,8,1.458624751458944
basic,0,16,0,0,0,20,"[0, 17, 16, 21, 8, 20]",6,3,"[9, 15, 25]",61.30217727,19490,4078,4,1,8,1.3191752290945782
basic,0,16,0,0,0,25,"[0, 17, 16, 21, 8, 20, 25]",7,2,"[9, 15]",48.65306663,21861,2371,2,0,8,1.3641436248537882
basic,0,16,0,0,1,9,"[0, 17, 16, 21, 8, 20, 25, 9]",8,0,[],35.84681815,23850,1989,1,0,8,1.3406027753205443
basic,0,16,0,1,1,9,"[0, 17, 16, 21, 8, 20, 25, 9]",8,0,[],35.84681815,26789,2939,1,0,8,1.3406027753205443
basic,1,14,0,0,0,0,[0],1,29,"[1, 2, 3, 4, 5, 6, 7, 8, 9, 10, 11, 12, 13, 14, 15, 16, 17, 18, 19, 20, 21, 22, 23, 24, 25, 26, 27, 28, 29]",300,161,-1,8,157,10,0.0
basic,1,14,0,0,0,18,"[0, 18]",2,17,"[1, 2, 3, 4, 7, 8, 9, 13, 15, 17, 19, 20, 22, 23, 25, 26, 28]",179.8958785,13155,12994,18,136,9,1.0
basic,1,14,0,0,0,8,"[0, 18, 8]",3,13,"[1, 2, 4, 7, 13, 15, 17, 19, 20, 23, 25, 26, 28]",166.294408,14798,1643,18,99,9,1.0203858410107731
basic,1,14,0,0,0,19,"[0, 18, 8, 19]",4,10,"[1, 2, 4, 7, 15, 17, 23, 25, 26, 28]",145.6788799,17280,2482,7,52,9,1.0436397834807676
basic,1,14,0,0,0,1,"[0, 18, 8, 19, 1]",5,9,"[2, 4, 7, 15, 17, 23, 25, 26, 28]",130.4473337,20360,3080,7,21,9,1.096538583531719
basic,1,14,0,0,0,26,"[0, 18, 8, 19, 1, 26]",6,4,"[4, 7, 23, 25]",75.70247088,23194,2834,2,4,9,1.1305399427709442
basic,1,14,0,0,0,23,"[0, 18, 8, 19, 1, 26, 23]",7,3,"[4, 7, 25]",64.88581706,24449,1255,2,1,9,1.2508020127641972
basic,1,14,0,0,0,25,"[0, 18, 8, 19, 1, 26, 23, 25]",8,1,[7],35.47493472,26359,1910,1,0,9,1.6160852369336203
basic,1,14,0,0,1,7,"[0, 18, 8, 19, 1, 26, 23, 25, 7]",9,0,[],15.77721911,28155,1796,1,0,9,1.6274549091166954
basic,1,14,0,1,1,7,"[0, 18, 8, 19, 1, 26, 23, 25, 7]",9,0,[],15.77721911,30286,2131,1,0,9,1.6274549091166954
basic,2,11,0,0,0,0,[0],1,25,"[1, 2, 3, 4, 5, 6, 8, 9, 10, 11, 12, 13, 14, 15, 16, 17, 18, 19, 20, 22, 23, 25, 26, 27, 28]",300,147,-1,6,374,12,0.0
basic,2,11,0,0,0,18,"[0, 18]",2,21,"[1, 2, 4, 5, 6, 8, 9, 11, 12, 13, 14, 15, 16, 17, 19, 20, 22, 23, 25, 27, 28]",236.8493864,6795,6648,157,1477,11,1.0
basic,2,11,0,0,0,27,"[0, 18, 27]",3,19,"[1, 2, 4, 5, 6, 8, 9, 11, 12, 14, 15, 16, 17, 19, 20, 22, 23, 25, 28]",212.9956655,8084,1289,157,1315,11,1.060949579704323
basic,2,11,0,0,0,8,"[0, 18, 27, 8]",4,14,"[1, 2, 4, 5, 6, 11, 12, 15, 17, 19, 22, 23, 25, 28]",142.7817068,11043,2959,68,433,11,1.0827202875589923
basic,2,11,0,0,0,17,"[0, 18, 27, 8, 17]",5,13,"[1, 2, 4, 5, 6, 11, 12, 15, 19, 22, 23, 25, 28]",128.4638857,13086,2043,42,137,11,1.1662918234607762
basic,2,11,0,0,0,15,"[0, 18, 27, 8, 17, 15]",6,9,"[2, 5, 6, 11, 12, 19, 22, 25, 28]",115.8147751,14752,1666,38,57,11,1.1741312027420885
basic,2,11,0,0,0,11,"[0, 18, 27, 8, 17, 15, 11]",7,7,"[2, 5, 6, 12, 19, 22, 28]",97.70400479,15754,1002,24,0,11,1.1668679039564056
basic,2,11,0,0,0,28,"[0, 18, 27, 8, 17, 15, 11, 28]",8,4,"[2, 5, 19, 22]",78.28751696,18148,2394,6,0,11,1.2830334294205898
basic,2,11,0,0,0,5,"[0, 18, 27, 8, 17, 15, 11, 28, 5]",9,2,"[2, 22]",60.39897314,21356,3208,2,0,11,1.472719061667125
basic,2,11,0,0,0,2,"[0, 18, 27, 8, 17, 15, 11, 28, 5, 2]",10,1,[22],43.39897314,22938,1582,1,0,11,1.437636650715907
basic,2,11,0,0,1,22,"[0, 18, 27, 8, 17, 15, 11, 28, 5, 2, 22]",11,0,[],33.34909751,25502,2564,1,0,11,1.414339916866727
basic,2,11,0,1,1,22,"[0, 18, 27, 8, 17, 15, 11, 28, 5, 2, 22]",11,0,[],33.34909751,30303,4801,1,0,11,1.414339916866727
basic,3,37,0,0,0,0,[0],1,29,"[1, 2, 3, 4, 5, 6, 7, 8, 9, 10, 11, 12, 13, 14, 15, 16, 17, 18, 19, 20, 21, 22, 23, 24, 25, 26, 27, 28, 29]",300,163,-1,6,168,10,0.0
basic,3,37,0,0,0,18,"[0, 18]",2,19,"[1, 2, 4, 6, 7, 9, 10, 12, 14, 15, 17, 19, 20, 21, 22, 23, 26, 28, 29]",202.4090168,5261,5098,6,89,10,1.0
basic,3,37,0,0,0,7,"[0, 18, 7]",3,12,"[1, 2, 4, 9, 15, 17, 19, 20, 21, 22, 26, 29]",175.2428614,7221,1960,6,53,10,1.0413073512834488
basic,3,37,0,0,0,22,"[0, 18, 7, 22]",4,8,"[1, 2, 4, 15, 19, 20, 21, 26]",125.2428614,9693,2472,6,29,10,1.0730792320325544
basic,3,37,0,0,0,4,"[0, 18, 7, 22, 4]",5,7,"[1, 2, 15, 19, 20, 21, 26]",100.2428614,11839,2146,4,16,10,1.2290245562206235
basic,3,37,0,0,0,2,"[0, 18, 7, 22, 4, 2]",6,5,"[1, 15, 19, 20, 21]",88.84110714,12882,1043,4,7,10,1.3968113858365216
basic,3,37,0,0,0,1,"[0, 18, 7, 22, 4, 2, 1]",7,4,"[15, 19, 20, 21]",71.63645661,14741,1859,4,3,10,1.4424239294761476
basic,3,37,0,0,0,20,"[0, 18, 7, 22, 4, 2, 1, 20]",8,3,"[15, 19, 21]",37.40197107,17421,2680,2,1,10,1.7518607796010042
basic,3,37,0,0,0,15,"[0, 18, 7, 22, 4, 2, 1, 20, 15]",9,1,[21],20.40197107,22174,4753,1,0,10,1.680305745239285
basic,3,37,0,0,1,21,"[0, 18, 7, 22, 4, 2, 1, 20, 15, 21]",10,0,[],5.401971073,24241,2067,1,0,10,1.8982635624510946
basic,3,37,0,1,1,21,"[0, 18, 7, 22, 4, 2, 1, 20, 15, 21]",10,0,[],5.401971073,29638,5397,1,0,10,1.8982635624510946
basic,4,2,0,0,0,0,[0],1,23,"[1, 2, 4, 5, 6, 7, 8, 9, 12, 13, 15, 16, 17, 18, 19, 20, 22, 23, 25, 26, 27, 28, 29]",300,167,-1,70,620,10,0.0
basic,4,2,0,0,0,19,"[0, 19]",2,22,"[1, 2, 4, 5, 6, 7, 8, 9, 12, 13, 15, 16, 17, 18, 20, 22, 23, 25, 26, 27, 28, 29]",210.306076,3989,3822,67,431,10,1.0
basic,4,2,0,0,0,12,"[0, 19, 12]",3,17,"[1, 4, 5, 6, 7, 13, 15, 16, 17, 18, 20, 22, 25, 26, 27, 28, 29]",174.2921898,5037,1048,66,298,10,1.1107635036313153
basic,4,2,0,0,0,5,"[0, 19, 12, 5]",4,11,"[1, 6, 7, 13, 15, 16, 18, 22, 25, 26, 29]",144.7625437,6344,1307,38,136,10,1.0968174771581647
basic,4,2,0,0,0,22,"[0, 19, 12, 5, 22]",5,8,"[1, 6, 7, 13, 15, 18, 26, 29]",131.9562952,8512,2168,20,63,10,1.0889910507461968
basic,4,2,0,0,0,13,"[0, 19, 12, 5, 22, 13]",6,7,"[1, 6, 7, 15, 18, 26, 29]",117.0902265,9305,793,19,20,10,1.236526217328057
basic,4,2,0,0,0,18,"[0, 19, 12, 5, 22, 13, 18]",7,4,"[7, 15, 26, 29]",81.91921567,11970,2665,10,3,10,1.2128708213409936
basic,4,2,0,0,0,7,"[0, 19, 12, 5, 22, 13, 18, 7]",8,3,"[15, 26, 29]",71.62358553,13011,1041,5,0,10,1.2019811287894737
basic,4,2,0,0,0,15,"[0, 19, 12, 5, 22, 13, 18, 7, 15]",9,2,"[26, 29]",56.85876247,18282,5271,2,0,10,1.2907869828541363
basic,4,2,0,0,1,29,"[0, 19, 12, 5, 22, 13, 18, 7, 15, 29]",10,0,[],28.39826353,21783,3501,1,0,10,1.4795089334237532
basic,4,2,0,1,1,29,"[0, 19, 12, 5, 22, 13, 18, 7, 15, 29]",10,0,[],28.39826353,24789,3006,1,0,10,1.4795089334237532
basic,5,30,0,0,0,0,[0],1,19,"[3, 4, 5, 7, 9, 11, 16, 17, 18, 19, 20, 21, 22, 24, 25, 26, 27, 28, 29]",300,165,-1,5,41,8,0.0
basic,5,30,0,0,0,25,"[0, 25]",2,12,"[3, 5, 7, 9, 11, 16, 18, 19, 20, 24, 27, 29]",121.1005869,20988,20823,7,37,7,1.0
basic,5,30,0,0,0,20,"[0, 25, 20]",3,9,"[3, 5, 7, 9, 11, 18, 19, 27, 29]",99.16887472,23258,2270,5,16,7,1.0037291321296267
basic,5,30,0,0,0,27,"[0, 25, 20, 27]",4,4,"[3, 5, 18, 29]",65.11010199,24859,1601,4,6,7,1.1217072851053165
basic,5,30,0,0,0,3,"[0, 25, 20, 27, 3]",5,3,"[5, 18, 29]",46.00512882,26736,1877,4,0,7,1.1140018780928678
basic,5,30,0,0,0,29,"[0, 25, 20, 27, 3, 29]",6,1,[18],27.40405358,28552,1816,1,0,7,1.119672312555708
basic,5,30,0,0,1,18,"[0, 25, 20, 27, 3, 29, 18]",7,0,[],8.090845662,31570,3018,1,0,7,1.1951451398733344
basic,5,30,0,1,1,18,"[0, 25, 20, 27, 3, 29, 18]",7,0,[],8.090845662,33848,2278,1,0,7,1.1951451398733344
basic,6,4,0,0,0,0,[0],1,26,"[3, 4, 5, 6, 7, 8, 10, 11, 12, 13, 14, 15, 16, 17, 18, 19, 20, 21, 22, 23, 24, 25, 26, 27, 28, 29]",300,150,-1,4,489,10,0.0
basic,6,4,0,0,0,28,"[0, 28]",2,21,"[3, 4, 5, 6, 10, 11, 12, 13, 14, 15, 16, 17, 19, 20, 21, 22, 23, 24, 25, 26, 27]",225.9392142,7385,7235,2,216,10,1.0
basic,6,4,0,0,0,14,"[0, 28, 14]",3,13,"[3, 4, 5, 6, 11, 13, 16, 17, 20, 21, 22, 24, 25]",159.6972335,14091,6706,1,26,10,1.0273973946789214
basic,6,4,0,0,0,25,"[0, 28, 14, 25]",4,12,"[3, 4, 5, 6, 11, 13, 16, 17, 20, 21, 22, 24]",143.572718,15698,1607,1,25,10,1.233547772313525
basic,6,4,0,0,0,11,"[0, 28, 14, 25, 11]",5,10,"[3, 4, 5, 6, 13, 16, 17, 20, 21, 22]",124.7844238,19357,3659,1,15,10,1.425978575879479
basic,6,4,0,0,0,16,"[0, 28, 14, 25, 11, 16]",6,9,"[3, 4, 5, 6, 13, 17, 20, 21, 22]",109.7844238,20616,1259,1,12,10,1.3799325158051412
basic,6,4,0,0,0,17,"[0, 28, 14, 25, 11, 16, 17]",7,5,"[3, 5, 20, 21, 22]",83.70761416,23530,2914,1,5,10,1.3195184878861832
basic,6,4,0,0,1,3,"[0, 28, 14, 25, 11, 16, 17, 3]",8,0,[],59.19231282,26176,2646,1,0,8,1.3806727129204737
basic,6,4,0,1,1,3,"[0, 28, 14, 25, 11, 16, 17, 3]",8,0,[],59.19231282,30121,3945,1,0,8,1.3806727129204737
basic,7,3,0,0,0,0,[0],1,29,"[1, 2, 3, 4, 5, 6, 7, 8, 9, 10, 11, 12, 13, 14, 15, 16, 17, 18, 19, 20, 21, 22, 23, 24, 25, 26, 27, 28, 29]",300,276,-1,34,427,10,0.0
basic,7,3,0,0,0,8,"[0, 8]",2,28,"[1, 2, 3, 4, 5, 6, 7, 9, 10, 11, 12, 13, 14, 15, 16, 17, 18, 19, 20, 21, 22, 23, 24, 25, 26, 27, 28, 29]",239.9666759,3612,3336,1,54,10,1.0
basic,7,3,0,0,0,24,"[0, 8, 24]",3,23,"[1, 2, 3, 4, 5, 6, 7, 10, 11, 12, 14, 15, 16, 17, 18, 19, 20, 21, 22, 25, 26, 27, 28]",227.8011509,5577,1965,1,50,10,1.2267083825981846
basic,7,3,0,0,0,17,"[0, 8, 24, 17]",4,11,"[3, 4, 7, 10, 14, 15, 16, 19, 20, 21, 27]",158.4469873,7290,1713,1,18,10,1.3836579788002414
basic,7,3,0,0,0,20,"[0, 8, 24, 17, 20]",5,9,"[3, 4, 7, 10, 14, 15, 16, 19, 21]",145.7978767,11279,3989,1,14,10,1.3620097615632467
basic,7,3,0,0,0,3,"[0, 8, 24, 17, 20, 3]",6,5,"[4, 10, 14, 19, 21]",125.4017986,12842,1563,1,11,10,1.3956695218398405
basic,7,3,0,0,0,19,"[0, 8, 24, 17, 20, 3, 19]",7,4,"[4, 10, 14, 21]",88.06548922,13988,1146,1,4,10,1.4360605238855817
basic,7,3,0,0,0,21,"[0, 8, 24, 17, 20, 3, 19, 21]",8,2,"[10, 14]",75.85893361,17154,3166,1,1,10,1.4576450248605066
basic,7,3,0,0,0,14,"[0, 8, 24, 17, 20, 3, 19, 21, 14]",9,1,[10],48.95168551,19070,1916,1,0,10,1.9505702217699148
basic,7,3,0,0,1,10,"[0, 8, 24, 17, 20, 3, 19, 21, 14, 10]",10,0,[],3.498412803,21572,2502,1,0,10,1.8830527336542522
basic,7,3,0,1,1,10,"[0, 8, 24, 17, 20, 3, 19, 21, 14, 10]",10,0,[],3.498412803,23558,1986,1,0,10,1.8830527336542522
basic,8,36,0,0,0,0,[0],1,24,"[2, 4, 5, 6, 7, 8, 9, 10, 12, 13, 14, 15, 16, 17, 18, 19, 20, 22, 23, 25, 26, 27, 28, 29]",300,145,-1,2,200,10,0.0
basic,8,36,0,0,0,13,"[0, 13]",2,19,"[2, 4, 7, 8, 9, 10, 12, 16, 17, 18, 19, 20, 22, 23, 25, 26, 27, 28, 29]",201.9184013,10659,10514,21,155,8,1.0
basic,8,36,0,0,0,25,"[0, 13, 25]",3,13,"[2, 4, 8, 9, 10, 12, 16, 17, 18, 19, 23, 27, 29]",181.327141,11386,727,18,66,8,1.0365331328777645
basic,8,36,0,0,0,2,"[0, 13, 25, 2]",4,12,"[4, 8, 9, 10, 12, 16, 17, 18, 19, 23, 27, 29]",156.327141,12597,1211,17,20,8,1.272238559463773
basic,8,36,0,0,0,19,"[0, 13, 25, 2, 19]",5,6,"[9, 10, 12, 16, 17, 18]",119.2057186,13955,1358,6,5,8,2.3456051864674707
basic,8,36,0,0,0,9,"[0, 13, 25, 2, 19, 9]",6,4,"[12, 16, 17, 18]",104.0729727,15240,1285,2,2,8,2.836842075540071
basic,8,36,0,0,0,17,"[0, 13, 25, 2, 19, 9, 17]",7,1,[16],77.8241632,16367,1127,1,0,8,2.35070514339729
basic,8,36,0,0,1,16,"[0, 13, 25, 2, 19, 9, 17, 16]",8,0,[],49.50455869,17373,1006,1,0,8,2.3468253891748456
basic,8,36,0,1,1,16,"[0, 13, 25, 2, 19, 9, 17, 16]",8,0,[],49.50455869,21437,4064,1,0,8,2.3468253891748456
basic,9,45,0,0,0,0,[0],1,24,"[1, 2, 3, 4, 5, 6, 7, 9, 10, 11, 12, 14, 15, 16, 17, 19, 20, 21, 22, 23, 24, 25, 27, 29]",300,177,-1,6,248,10,0.0
basic,9,45,0,0,0,9,"[0, 9]",2,17,"[2, 3, 6, 7, 10, 11, 12, 15, 17, 19, 20, 22, 23, 24, 25, 27, 29]",206.3624007,6589,6412,2,69,8,1.0
basic,9,45,0,0,0,15,"[0, 9, 15]",3,12,"[2, 3, 6, 7, 10, 11, 12, 17, 20, 23, 24, 29]",153.3246783,8489,1900,7,32,7,3.1818344687079674
basic,9,45,0,0,0,23,"[0, 9, 15, 23]",4,11,"[2, 3, 6, 7, 10, 11, 12, 17, 20, 24, 29]",129.7238308,9467,978,6,16,7,2.4445193252537316
basic,9,45,0,0,0,17,"[0, 9, 15, 23, 17]",5,2,"[20, 24]",61.04341151,11006,1539,2,0,6,3.7259725805471713
basic,9,45,0,0,1,20,"[0, 9, 15, 23, 17, 20]",6,0,[],5.329858404,12533,1527,1,0,6,3.1982165402837857
basic,9,45,0,1,1,20,"[0, 9, 15, 23, 17, 20]",6,0,[],5.329858404,14930,2397,1,0,6,3.1982165402837857
basic,10,40,0,0,0,0,[0],1,29,"[1, 2, 3, 4, 5, 6, 7, 8, 9, 10, 11, 12, 13, 14, 15, 16, 17, 18, 19, 20, 21, 22, 23, 24, 25, 26, 27, 28, 29]",300,288,-1,8,191,9,0.0
basic,10,40,0,0,0,2,"[0, 2]",2,28,"[1, 3, 4, 5, 6, 7, 8, 9, 10, 11, 12, 13, 14, 15, 16, 17, 18, 19, 20, 21, 22, 23, 24, 25, 26, 27, 28, 29]",263.7646581,5027,4739,4,79,9,1.0
basic,10,40,0,0,0,1,"[0, 2, 1]",3,13,"[5, 6, 8, 9, 10, 13, 17, 18, 19, 21, 22, 23, 27]",197.9695215,6651,1624,3,32,9,1.9563451201211088
basic,10,40,0,0,0,6,"[0, 2, 1, 6]",4,10,"[5, 8, 9, 13, 17, 18, 19, 21, 22, 23]",177.8697703,7806,1155,3,29,9,1.767962123020631
basic,10,40,0,0,0,21,"[0, 2, 1, 6, 21]",5,5,"[5, 9, 18, 19, 23]",125.8986245,10486,2680,2,8,9,1.4447873803466464
basic,10,40,0,0,0,9,"[0, 2, 1, 6, 21, 9]",6,4,"[5, 18, 19, 23]",80.19304493,12754,2268,2,4,9,1.782283650173066
basic,10,40,0,0,0,18,"[0, 2, 1, 6, 21, 9, 18]",7,3,"[5, 19, 23]",63.64009957,13984,1230,2,1,9,1.995326683187404
basic,10,40,0,0,0,5,"[0, 2, 1, 6, 21, 9, 18, 5]",8,1,[23],32.06479276,15194,1210,1,0,9,2.1786230434695777
basic,10,40,0,0,1,23,"[0, 2, 1, 6, 21, 9, 18, 5, 23]",9,0,[],3.762849365,16299,1105,1,0,9,3.123307890772679
basic,10,40,0,1,1,23,"[0, 2, 1, 6, 21, 9, 18, 5, 23]",9,0,[],3.762849365,17638,1339,1,0,9,3.123307890772679
basic,11,32,0,0,0,0,[0],1,29,"[1, 2, 3, 4, 5, 6, 7, 8, 9, 10, 11, 12, 13, 14, 15, 16, 17, 18, 19, 20, 21, 22, 23, 24, 25, 26, 27, 28, 29]",300,144,-1,17,359,10,0.0
basic,11,32,0,0,0,15,"[0, 15]",2,24,"[2, 3, 4, 5, 6, 7, 8, 9, 10, 11, 12, 13, 14, 16, 17, 19, 20, 22, 23, 24, 25, 26, 27, 28]",214.6185032,8137,7993,11,153,9,1.0
basic,11,32,0,0,0,28,"[0, 15, 28]",3,21,"[2, 3, 5, 7, 8, 9, 10, 11, 12, 13, 14, 16, 17, 19, 20, 22, 23, 24, 25, 26, 27]",203.2167489,9299,1162,11,119,9,1.000160051986942
basic,11,32,0,0,0,12,"[0, 15, 28, 12]",4,19,"[2, 3, 5, 7, 8, 9, 10, 11, 13, 16, 17, 19, 20, 22, 23, 24, 25, 26, 27]",184.243083,10344,1045,8,71,9,1.0281484763748023
basic,11,32,0,0,0,16,"[0, 15, 28, 12, 16]",5,17,"[2, 3, 5, 7, 8, 9, 10, 11, 13, 17, 19, 20, 22, 23, 24, 26, 27]",168.5906071,12825,2481,6,38,9,1.1190771370096
basic,11,32,0,0,0,22,"[0, 15, 28, 12, 16, 22]",6,10,"[2, 3, 5, 8, 9, 10, 11, 17, 20, 27]",134.7527585,16153,3328,4,16,9,1.1702311155319893
basic,11,32,0,0,0,9,"[0, 15, 28, 12, 16, 22, 9]",7,6,"[2, 8, 10, 17, 20, 27]",112.5491552,17287,1134,2,4,9,1.2381424719932013
basic,11,32,0,0,0,8,"[0, 15, 28, 12, 16, 22, 9, 8]",8,1,[20],67.42709849,18826,1539,1,0,9,1.187013645273504
basic,11,32,0,0,1,20,"[0, 15, 28, 12, 16, 22, 9, 8, 20]",9,0,[],17.09818036,20717,1891,1,0,9,1.3986201165175596
basic,11,32,0,1,1,20,"[0, 15, 28, 12, 16, 22, 9, 8, 20]",9,0,[],17.09818036,23014,2297,1,0,9,1.3986201165175596
basic,12,6,0,0,0,0,[0],1,29,"[1, 2, 3, 4, 5, 6, 7, 8, 9, 10, 11, 12, 13, 14, 15, 16, 17, 18, 19, 20, 21, 22, 23, 24, 25, 26, 27, 28, 29]",300,162,-1,180,4304,10,0.0
basic,12,6,0,0,0,3,"[0, 3]",2,28,"[1, 2, 4, 5, 6, 7, 8, 9, 10, 11, 12, 13, 14, 15, 16, 17, 18, 19, 20, 21, 22, 23, 24, 25, 26, 27, 28, 29]",266.4738908,2950,2788,90,1607,10,1.0
basic,12,6,0,0,0,10,"[0, 3, 10]",3,27,"[1, 2, 4, 5, 6, 7, 8, 9, 11, 12, 13, 14, 15, 16, 17, 18, 19, 20, 21, 22, 23, 24, 25, 26, 27, 28, 29]",215.2293789,5088,2138,8,136,10,1.0050517746249001
basic,12,6,0,0,0,24,"[0, 3, 10, 24]",4,23,"[1, 2, 4, 5, 6, 7, 8, 11, 13, 14, 16, 17, 18, 19, 20, 21, 22, 23, 25, 26, 27, 28, 29]",201.812971,6343,1255,8,85,10,1.0091851911500884
basic,12,6,0,0,0,17,"[0, 3, 10, 24, 17]",5,19,"[1, 2, 4, 5, 6, 7, 8, 11, 13, 14, 16, 18, 20, 21, 22, 23, 26, 27, 29]",172.5384087,8175,1832,8,53,10,1.8060138032707682
basic,12,6,0,0,0,18,"[0, 3, 10, 24, 17, 18]",6,15,"[1, 2, 6, 7, 8, 13, 14, 16, 20, 21, 22, 23, 26, 27, 29]",158.6100204,9340,1165,7,36,10,2.3216150751946008
basic,12,6,0,0,0,16,"[0, 3, 10, 24, 17, 18, 16]",7,13,"[1, 2, 6, 7, 13, 14, 20, 21, 22, 23, 26, 27, 29]",135.2647853,11969,2629,7,21,10,2.2822729587843544
basic,12,6,0,0,0,29,"[0, 3, 10, 24, 17, 18, 16, 29]",8,7,"[6, 14, 20, 21, 22, 23, 27]",98.57691268,15234,3265,6,4,10,1.8911507070056388
basic,12,6,0,0,0,23,"[0, 3, 10, 24, 17, 18, 16, 29, 23]",9,2,"[6, 22]",51.05849519,17985,2751,2,0,10,1.8549852217940308
basic,12,6,0,0,1,6,"[0, 3, 10, 24, 17, 18, 16, 29, 23, 6]",10,0,[],15.70315613,20026,2041,1,0,10,1.7651720921259988
basic,12,6,0,1,1,6,"[0, 3, 10, 24, 17, 18, 16, 29, 23, 6]",10,0,[],15.70315613,21699,1673,1,0,10,1.7651720921259988
basic,13,23,0,0,0,0,[0],1,28,"[1, 2, 3, 4, 5, 6, 7, 8, 9, 10, 11, 12, 13, 14, 15, 16, 17, 18, 19, 20, 21, 22, 23, 25, 26, 27, 28, 29]",300,160,-1,76,2626,10,0.0
basic,13,23,0,0,0,22,"[0, 22]",2,24,"[1, 2, 3, 5, 6, 7, 8, 9, 10, 11, 12, 13, 14, 15, 17, 18, 19, 20, 21, 23, 25, 26, 27, 29]",210.5013967,4808,4648,15,1362,10,1.0
basic,13,23,0,0,0,13,"[0, 22, 13]",3,14,"[1, 2, 5, 6, 7, 8, 9, 10, 12, 14, 18, 21, 27, 29]",168.3113504,7007,2199,14,522,10,1.1898173563652046
basic,13,23,0,0,0,12,"[0, 22, 13, 12]",4,11,"[1, 2, 6, 7, 9, 10, 14, 18, 21, 27, 29]",156.2283045,9944,2937,12,166,10,1.1727968780218219
basic,13,23,0,0,0,2,"[0, 22, 13, 12, 2]",5,9,"[1, 6, 7, 9, 10, 14, 18, 27, 29]",142.3358605,11655,1711,4,38,10,1.1553975034701014
basic,13,23,0,0,0,9,"[0, 22, 13, 12, 2, 9]",6,7,"[6, 7, 10, 14, 18, 27, 29]",129.2974557,12570,915,1,12,10,1.3065798464766785
basic,13,23,0,0,0,14,"[0, 22, 13, 12, 2, 9, 14]",7,6,"[6, 7, 10, 18, 27, 29]",118.8571492,13953,1383,1,6,10,1.2857038452263323
basic,13,23,0,0,0,6,"[0, 22, 13, 12, 2, 9, 14, 6]",8,2,"[27, 29]",89.99540978,16068,2115,2,0,9,1.3977649523046436
basic,13,23,0,0,1,27,"[0, 22, 13, 12, 2, 9, 14, 6, 27]",9,0,[],61.69346638,17615,1547,1,0,9,1.6644050276003954
basic,13,23,0,1,1,27,"[0, 22, 13, 12, 2, 9, 14, 6, 27]",9,0,[],61.69346638,21536,3921,1,0,9,1.6644050276003954
basic,14,38,0,0,0,0,[0],1,29,"[1, 2, 3, 4, 5, 6, 7, 8, 9, 10, 11, 12, 13, 14, 15, 16, 17, 18, 19, 20, 21, 22, 23, 24, 25, 26, 27, 28, 29]",300,193,-1,33,506,9,0.0
basic,14,38,0,0,0,19,"[0, 19]",2,23,"[3, 4, 5, 6, 7, 8, 9, 11, 13, 14, 15, 16, 17, 18, 20, 22, 23, 24, 25, 26, 27, 28, 29]",219.5015528,5674,5481,6,61,9,1.0
basic,14,38,0,0,0,17,"[0, 19, 17]",3,21,"[3, 4, 5, 6, 7, 9, 11, 13, 14, 15, 16, 18, 20, 22, 23, 24, 25, 26, 27, 28, 29]",198.1239945,8923,3249,6,53,9,1.571793785769489
basic,14,38,0,0,0,20,"[0, 19, 17, 20]",4,17,"[3, 4, 5, 6, 7, 11, 13, 14, 15, 16, 18, 22, 24, 25, 26, 27, 28]",174.3542658,11299,2376,6,44,9,2.333182710277297
basic,14,38,0,0,0,4,"[0, 19, 17, 20, 4]",5,10,"[5, 11, 13, 14, 15, 16, 24, 26, 27, 28]",140.4131403,14341,3042,5,22,9,2.276099229646013
basic,14,38,0,0,0,15,"[0, 19, 17, 20, 4, 15]",6,8,"[5, 11, 13, 14, 16, 24, 26, 28]",114.4131403,17236,2895,5,6,9,2.5292671156176403
basic,14,38,0,0,0,11,"[0, 19, 17, 20, 4, 15, 11]",7,2,"[16, 28]",78.01259089,18299,1063,2,0,9,2.778100109749787
basic,14,38,0,0,0,28,"[0, 19, 17, 20, 4, 15, 11, 28]",8,1,[16],50.99407872,20069,1770,1,0,9,2.3316428595723258
basic,14,38,0,0,1,16,"[0, 19, 17, 20, 4, 15, 11, 28, 16]",9,0,[],21.99407872,21301,1232,1,0,9,2.5408012360364265
basic,14,38,0,1,1,16,"[0, 19, 17, 20, 4, 15, 11, 28, 16]",9,0,[],21.99407872,24100,2799,1,0,9,2.5408012360364265
basic,15,41,0,0,0,0,[0],1,29,"[1, 2, 3, 4, 5, 6, 7, 8, 9, 10, 11, 12, 13, 14, 15, 16, 17, 18, 19, 20, 21, 22, 23, 24, 25, 26, 27, 28, 29]",300,158,-1,1,143,10,0.0
basic,15,41,0,0,0,21,"[0, 21]",2,28,"[1, 2, 3, 4, 5, 6, 7, 8, 9, 10, 11, 12, 13, 14, 15, 16, 17, 18, 19, 20, 22, 23, 24, 25, 26, 27, 28, 29]",251.1226024,4131,3973,50,469,8,1.0
basic,15,41,0,0,0,3,"[0, 21, 3]",3,26,"[1, 2, 5, 6, 7, 8, 9, 10, 11, 12, 13, 14, 15, 16, 17, 18, 19, 20, 22, 23, 24, 25, 26, 27, 28, 29]",218.982285,7907,3776,16,151,8,2.044702670024013
basic,15,41,0,0,0,22,"[0, 21, 3, 22]",4,20,"[2, 5, 6, 7, 8, 9, 10, 11, 12, 13, 14, 16, 17, 18, 19, 20, 23, 25, 27, 28]",189.0156369,9157,1250,4,36,8,1.609314302987968
basic,15,41,0,0,0,5,"[0, 21, 3, 22, 5]",5,9,"[2, 9, 10, 13, 17, 18, 20, 27, 28]",134.2707741,11549,2392,3,11,8,5.280572219167241
basic,15,41,0,0,0,28,"[0, 21, 3, 22, 5, 28]",6,5,"[9, 13, 17, 18, 20]",120.6693036,12736,1187,2,3,8,4.4610178066064154
basic,15,41,0,0,0,13,"[0, 21, 3, 22, 5, 28, 13]",7,1,[20],86.18742429,14972,2236,1,0,8,5.124291886287024
basic,15,41,0,0,1,20,"[0, 21, 3, 22, 5, 28, 13, 20]",8,0,[],23.53760386,17280,2308,1,0,8,2.9364404241464155
basic,15,41,0,1,1,20,"[0, 21, 3, 22, 5, 28, 13, 20]",8,0,[],23.53760386,19243,1963,1,0,8,2.9364404241464155
basic,16,39,0,0,0,0,[0],1,28,"[1, 2, 3, 4, 5, 6, 7, 9, 10, 11, 12, 13, 14, 15, 16, 17, 18, 19, 20, 21, 22, 23, 24, 25, 26, 27, 28, 29]",300,159,-1,1,30,10,0.0
basic,16,39,0,0,0,29,"[0, 29]",2,26,"[1, 2, 3, 4, 5, 6, 7, 9, 10, 12, 13, 14, 15, 16, 17, 18, 19, 20, 21, 22, 23, 24, 25, 26, 27, 28]",243.0614366,3677,3518,8,104,9,1.0
basic,16,39,0,0,0,12,"[0, 29, 12]",3,18,"[1, 2, 4, 5, 7, 9, 10, 13, 14, 15, 16, 18, 19, 22, 23, 24, 26, 28]",182.5221931,4822,1145,5,54,9,1.0026200331524904
basic,16,39,0,0,0,1,"[0, 29, 12, 1]",4,11,"[2, 7, 9, 10, 13, 15, 16, 18, 22, 24, 26]",126.3795178,6280,1458,9,9,7,1.0185340949098056
basic,16,39,0,0,0,10,"[0, 29, 12, 1, 10]",5,3,"[7, 22, 26]",47.00067927,8595,2315,3,0,6,2.1291291542250796
basic,16,39,0,0,1,7,"[0, 29, 12, 1, 10, 7]",6,0,[],13.57912933,10866,2271,1,0,6,1.88235280143705
basic,16,39,0,1,1,7,"[0, 29, 12, 1, 10, 7]",6,0,[],13.57912933,12246,1380,1,0,6,1.88235280143705
basic,17,33,0,0,0,0,[0],1,23,"[1, 2, 5, 7, 8, 11, 12, 13, 14, 15, 16, 17, 18, 19, 20, 21, 23, 24, 25, 26, 27, 28, 29]",300,267,-1,5,108,9,0.0
basic,17,33,0,0,0,21,"[0, 21]",2,17,"[2, 5, 7, 8, 11, 13, 14, 16, 17, 18, 19, 20, 24, 26, 27, 28, 29]",174.4611614,4111,3844,21,129,8,1.0
basic,17,33,0,0,0,13,"[0, 21, 13]",3,15,"[2, 5, 7, 8, 11, 14, 16, 17, 18, 19, 20, 24, 26, 28, 29]",148.0604038,5204,1093,17,72,8,1.0001005298764474
basic,17,33,0,0,0,19,"[0, 21, 13, 19]",4,11,"[7, 11, 14, 16, 17, 18, 20, 24, 26, 28, 29]",122.5653063,7301,2097,10,27,8,1.0588446738393702
basic,17,33,0,0,0,17,"[0, 21, 13, 19, 17]",5,6,"[7, 11, 14, 20, 26, 29]",78.63354098,9202,1901,1,5,7,1.3890587311995248
basic,17,33,0,0,1,29,"[0, 21, 13, 19, 17, 29]",6,0,[],27.15539028,16652,7450,1,0,6,1.29712932744066
basic,17,33,0,1,1,29,"[0, 21, 13, 19, 17, 29]",6,0,[],27.15539028,18328,1676,1,0,6,1.29712932744066
basic,18,10,0,0,0,0,[0],1,29,"[1, 2, 3, 4, 5, 6, 7, 8, 9, 10, 11, 12, 13, 14, 15, 16, 17, 18, 19, 20, 21, 22, 23, 24, 25, 26, 27, 28, 29]",300,294,-1,1,100,9,0.0
basic,18,10,0,0,0,13,"[0, 13]",2,25,"[1, 2, 3, 4, 6, 7, 8, 9, 10, 11, 12, 14, 17, 18, 19, 20, 21, 22, 23, 24, 25, 26, 27, 28, 29]",249.4628849,3008,2714,1,79,9,1.0
basic,18,10,0,0,0,11,"[0, 13, 11]",3,20,"[1, 2, 3, 6, 7, 8, 9, 10, 12, 14, 18, 19, 20, 21, 22, 24, 26, 27, 28, 29]",206.4512586,5129,2121,1,54,9,1.0313137484914219
basic,18,10,0,0,0,19,"[0, 13, 11, 19]",4,11,"[2, 6, 8, 9, 10, 14, 18, 20, 24, 26, 27]",170.0919407,6484,1355,1,22,9,1.0879446220132545
basic,18,10,0,0,0,2,"[0, 13, 11, 19, 2]",5,4,"[14, 20, 26, 27]",126.1829439,8903,2419,1,4,9,1.06474052351343
basic,18,10,0,0,0,14,"[0, 13, 11, 19, 2, 14]",6,3,"[20, 26, 27]",114.0174188,10172,1269,1,3,9,1.1628909195912238
basic,18,10,0,0,0,26,"[0, 13, 11, 19, 2, 14, 26]",7,2,"[20, 27]",79.34754716,12318,2146,1,1,9,1.6660727647633602
basic,18,10,0,0,0,20,"[0, 13, 11, 19, 2, 14, 26, 20]",8,1,[27],47.56704999,13591,1273,1,0,9,2.085581809637999
basic,18,10,0,0,1,27,"[0, 13, 11, 19, 2, 14, 26, 20, 27]",9,0,[],2.312215998,15302,1711,1,0,9,1.9116357409137932
basic,18,10,0,1,1,27,"[0, 13, 11, 19, 2, 14, 26, 20, 27]",9,0,[],2.312215998,16867,1565,1,0,9,1.9116357409137932
basic,19,0,0,0,0,0,[0],1,27,"[2, 3, 4, 5, 6, 7, 8, 9, 10, 11, 12, 13, 14, 15, 16, 17, 19, 20, 21, 22, 23, 24, 25, 26, 27, 28, 29]",300,169,-1,104,1136,9,0.0
basic,19,0,0,0,0,21,"[0, 21]",2,24,"[3, 4, 5, 6, 7, 8, 9, 10, 11, 12, 13, 14, 15, 16, 17, 19, 20, 22, 23, 24, 26, 27, 28, 29]",228.2156006,5111,4942,24,249,9,1.0
basic,19,0,0,0,0,28,"[0, 21, 28]",3,21,"[3, 4, 5, 6, 7, 8, 9, 11, 12, 13, 14, 15, 16, 17, 19, 20, 23, 24, 26, 27, 29]",166.6282642,7358,2247,24,214,9,1.269228840767463
basic,19,0,0,0,0,5,"[0, 21, 28, 5]",4,16,"[3, 4, 7, 8, 9, 11, 12, 14, 15, 17, 19, 20, 23, 24, 26, 29]",122.9705043,9281,1923,17,100,9,1.3066419815776449
basic,19,0,0,0,0,4,"[0, 21, 28, 5, 4]",5,13,"[3, 7, 8, 9, 11, 12, 15, 17, 19, 20, 23, 24, 26]",97.89063191,12845,3564,12,40,9,1.2910976504592468
basic,19,0,0,0,0,26,"[0, 21, 28, 5, 4, 26]",6,10,"[3, 7, 8, 9, 11, 12, 15, 17, 23, 24]",85.84903733,14195,1350,5,20,9,1.3255611811315622
basic,19,0,0,0,0,24,"[0, 21, 28, 5, 4, 26, 24]",7,8,"[3, 7, 8, 9, 11, 12, 15, 17]",68.73179456,16196,2001,5,6,9,1.3862320021735308
basic,19,0,0,0,0,15,"[0, 21, 28, 5, 4, 26, 24, 15]",8,3,"[7, 8, 9]",45.3865595,18778,2582,3,0,9,1.3469536849324695
basic,19,0,0,0,1,7,"[0, 21, 28, 5, 4, 26, 24, 15, 7]",9,0,[],14.32211036,21964,3186,1,0,9,1.3934843658246785
basic,19,0,0,1,1,7,"[0, 21, 28, 5, 4, 26, 24, 15, 7]",9,0,[],14.32211036,23555,1591,1,0,9,1.3934843658246785
basic,20,28,0,0,0,0,[0],1,27,"[1, 2, 3, 4, 5, 6, 7, 8, 9, 10, 11, 12, 13, 14, 15, 16, 17, 18, 19, 20, 22, 23, 25, 26, 27, 28, 29]",300,153,-1,2,96,9,0.0
basic,20,28,0,0,0,3,"[0, 3]",2,26,"[1, 2, 4, 5, 6, 7, 8, 9, 10, 11, 12, 13, 14, 15, 16, 17, 18, 19, 20, 22, 23, 25, 26, 27, 28, 29]",251.0817008,4570,4417,1,64,9,1.0
basic,20,28,0,0,0,20,"[0, 3, 20]",3,20,"[2, 4, 5, 6, 7, 8, 9, 10, 11, 12, 13, 14, 15, 16, 18, 19, 22, 23, 26, 28]",209.7416475,5634,1064,2,29,8,1.6703057504555512
basic,20,28,0,0,0,15,"[0, 3, 20, 15]",4,10,"[5, 6, 8, 9, 10, 16, 22, 23, 26, 28]",157.2440286,6837,1203,1,6,7,1.4376587969564578
basic,20,28,0,0,0,23,"[0, 3, 20, 15, 23]",5,2,"[16, 22]",88.73855432,8133,1296,2,0,6,1.269324093812023
basic,20,28,0,0,1,16,"[0, 3, 20, 15, 23, 16]",6,0,[],48.42726558,9591,1458,1,0,6,1.2537020201649651
basic,20,28,0,1,1,16,"[0, 3, 20, 15, 23, 16]",6,0,[],48.42726558,11160,1569,1,0,6,1.2537020201649651
basic,21,7,0,0,0,0,[0],1,29,"[1, 2, 3, 4, 5, 6, 7, 8, 9, 10, 11, 12, 13, 14, 15, 16, 17, 18, 19, 20, 21, 22, 23, 24, 25, 26, 27, 28, 29]",300,291,-1,3,79,9,0.0
basic,21,7,0,0,0,6,"[0, 6]",2,22,"[2, 4, 5, 7, 8, 9, 10, 11, 13, 14, 15, 16, 18, 19, 20, 21, 22, 23, 24, 25, 27, 28]",231.1160396,3680,3389,1,24,9,1.0
basic,21,7,0,0,0,4,"[0, 6, 4]",3,11,"[2, 7, 13, 15, 16, 18, 19, 20, 21, 23, 25]",148.6236157,5367,1687,4,34,8,1.0779650303607222
basic,21,7,0,0,0,25,"[0, 6, 4, 25]",4,9,"[2, 7, 13, 15, 16, 18, 19, 20, 23]",123.884982,8978,3611,2,11,8,1.4873815316264414
basic,21,7,0,0,0,18,"[0, 6, 4, 25, 18]",5,6,"[2, 7, 13, 16, 19, 20]",95.56537744,10883,1905,1,6,8,1.4279029945047947
basic,21,7,0,0,0,20,"[0, 6, 4, 25, 18, 20]",6,3,"[7, 13, 19]",82.75912896,13267,2384,1,2,8,1.4491099791595008
basic,21,7,0,0,0,7,"[0, 6, 4, 25, 18, 20, 7]",7,1,[19],42.2622155,14466,1199,1,0,8,1.408887083753089
basic,21,7,0,0,1,19,"[0, 6, 4, 25, 18, 20, 7, 19]",8,0,[],12.85133316,16202,1736,1,0,8,1.5179459002174112
basic,21,7,0,1,1,19,"[0, 6, 4, 25, 18, 20, 7, 19]",8,0,[],12.85133316,18370,2168,1,0,8,1.5179459002174112
basic,22,15,0,0,0,0,[0],1,25,"[1, 2, 3, 4, 7, 8, 9, 10, 11, 12, 13, 14, 15, 16, 18, 20, 21, 22, 23, 24, 25, 26, 27, 28, 29]",300,161,-1,4,65,9,0.0
basic,22,15,0,0,0,21,"[0, 21]",2,17,"[1, 3, 4, 7, 8, 9, 11, 12, 13, 14, 15, 16, 22, 23, 24, 26, 27]",204.9158268,7193,7032,21,65,7,1.0
basic,22,15,0,0,0,12,"[0, 21, 12]",3,14,"[1, 3, 4, 7, 8, 9, 11, 13, 14, 15, 16, 22, 24, 27]",161.0866128,9383,2190,20,39,7,1.6068212046294776
basic,22,15,0,0,0,7,"[0, 21, 12, 7]",4,10,"[3, 4, 9, 11, 13, 14, 15, 16, 22, 27]",127.8450725,10720,1337,13,11,7,2.0298522511797907
basic,22,15,0,0,0,16,"[0, 21, 12, 7, 16]",5,5,"[3, 4, 11, 15, 22]",84.18731258,12177,1457,3,3,7,1.8904046427013528
basic,22,15,0,0,0,11,"[0, 21, 12, 7, 16, 11]",6,1,[3],58.16808892,13491,1314,1,0,7,1.9475991988988648
basic,22,15,0,0,1,3,"[0, 21, 12, 7, 16, 11, 3]",7,0,[],46.76633467,14828,1337,1,0,7,1.912955285957019
basic,22,15,0,1,1,3,"[0, 21, 12, 7, 16, 11, 3]",7,0,[],46.76633467,17520,2692,1,0,7,1.912955285957019
undo,23,19,0,0,0,0,[0],1,29,"[1, 2, 3, 4, 5, 6, 7, 8, 9, 10, 11, 12, 13, 14, 15, 16, 17, 18, 19, 20, 21, 22, 23, 24, 25, 26, 27, 28, 29]",300,311,-1,12,149,8,0.0
undo,23,19,0,0,0,29,"[0, 29]",2,28,"[1, 2, 3, 4, 5, 6, 7, 8, 9, 10, 11, 12, 13, 14, 15, 16, 17, 18, 19, 20, 21, 22, 23, 24, 25, 26, 27, 28]",265.0715016,6158,5847,12,120,8,1.0
undo,23,19,0,0,0,9,"[0, 29, 9]",3,17,"[1, 4, 5, 6, 7, 10, 11, 12, 13, 14, 19, 20, 21, 22, 24, 27, 28]",181.7108394,7033,875,11,65,8,1.0375842971861238
undo,23,19,0,0,0,6,"[0, 29, 9, 6]",4,12,"[4, 7, 10, 11, 13, 14, 20, 21, 22, 24, 27, 28]",140.2741407,8281,1248,11,34,8,1.0389786364356892
undo,23,19,0,0,0,4,"[0, 29, 9, 6, 4]",5,7,"[10, 11, 14, 20, 22, 27, 28]",99.22538921,10115,1834,2,6,8,1.2182485830176533
undo,23,19,0,0,0,28,"[0, 29, 9, 6, 4, 28]",6,3,"[11, 14, 27]",88.04504932,11405,1290,2,1,8,1.2933703503588658
undo,23,19,0,0,1,27,"[0, 29, 9, 6, 4, 28, 27]",7,0,[],35.64275929,12635,1230,1,0,7,1.697599891123485
undo,23,19,0,1,1,27,"[0, 29, 9, 6, 4, 28, 27]",7,0,[],35.64275929,17372,4737,1,0,7,1.697599891123485
undo,24,20,0,0,0,0,[0],1,21,"[1, 2, 3, 4, 5, 6, 7, 8, 9, 12, 17, 18, 20, 21, 22, 23, 25, 26, 27, 28, 29]",300,348,-1,1,9,9,0.0
undo,24,20,0,0,0,12,"[0, 12]",2,20,"[1, 2, 3, 4, 5, 6, 7, 8, 9, 17, 18, 20, 21, 22, 23, 25, 26, 27, 28, 29]",271.5570747,6277,5929,1,8,9,1.0
undo,24,20,0,0,0,1,"[0, 12, 1]",3,12,"[3, 4, 5, 6, 8, 9, 20, 21, 23, 27, 28, 29]",189.5692707,8202,1925,1,6,9,1.0757997779162911
undo,24,20,0,0,0,5,"[0, 12, 1, 5]",4,10,"[4, 6, 8, 9, 20, 21, 23, 27, 28, 29]",152.8950291,9340,1138,1,5,9,1.1708231454516806
undo,24,20,0,0,0,21,"[0, 12, 1, 5, 21]",5,8,"[4, 6, 8, 9, 20, 23, 27, 28]",107.8950291,10286,946,1,4,9,1.126197336199212
undo,24,20,0,0,0,8,"[0, 12, 1, 5, 21, 8]",6,5,"[6, 9, 23, 27, 28]",90.43077988,11569,1283,1,3,9,1.140007470699913
undo,24,20,0,0,1,27,"[0, 12, 1, 5, 21, 8, 27]",7,0,[],50.20640916,14068,2499,1,0,7,1.3128859656095468
undo,24,20,0,1,1,27,"[0, 12, 1, 5, 21, 8, 27]",7,0,[],50.20640916,16765,2697,1,0,7,1.3128859656095468
undo,25,5,0,0,0,0,[0],1,29,"[1, 2, 3, 4, 5, 6, 7, 8, 9, 10, 11, 12, 13, 14, 15, 16, 17, 18, 19, 20, 21, 22, 23, 24, 25, 26, 27, 28, 29]",300,161,-1,5,139,9,0.0
undo,25,5,0,0,0,23,"[0, 23]",2,27,"[1, 2, 3, 4, 5, 6, 7, 8, 9, 10, 11, 12, 13, 14, 15, 16, 17, 18, 19, 20, 21, 22, 24, 25, 26, 27, 28]",249.8402552,2177,2016,3,75,9,1.0
undo,25,5,0,0,0,24,"[0, 23, 24]",3,24,"[1, 2, 3, 4, 5, 6, 8, 9, 10, 11, 12, 13, 14, 15, 16, 17, 18, 19, 21, 22, 25, 26, 27, 28]",226.7534624,3319,1142,20,147,8,1.0113799830159869
undo,25,5,0,0,0,25,"[0, 23, 24, 25]",4,20,"[2, 4, 5, 6, 8, 9, 10, 12, 13, 14, 15, 16, 17, 18, 19, 21, 22, 26, 27, 28]",201.9139777,6006,2687,10,54,8,1.5618476545435112
undo,25,5,0,0,0,12,"[0, 23, 24, 25, 12]",5,14,"[2, 4, 5, 6, 8, 10, 13, 15, 17, 18, 19, 22, 26, 27]",174.1290897,6945,939,3,17,8,1.75567374076113
undo,25,5,0,0,0,17,"[0, 23, 24, 25, 12, 17]",6,7,"[4, 5, 6, 8, 15, 18, 19]",107.3982873,8254,1309,3,4,8,1.8038012016586276
undo,25,5,0,0,0,5,"[0, 23, 24, 25, 12, 17, 5]",7,1,[15],64.35180076,10317,2063,1,0,8,1.576603698255933
undo,25,5,0,0,1,15,"[0, 23, 24, 25, 12, 17, 5, 15]",8,0,[],24.32680857,11568,1251,1,0,8,1.5600422356934105
undo,25,5,0,1,1,15,"[0, 23, 24, 25, 12, 17, 5, 15]",8,0,[],24.32680857,12471,903,1,0,8,1.5600422356934105
undo,26,1,0,0,0,0,[0],1,26,"[1, 2, 4, 5, 7, 8, 9, 10, 11, 12, 13, 14, 15, 16, 17, 18, 19, 20, 21, 22, 23, 24, 25, 26, 28, 29]",300,147,-1,6,74,7,0.0
undo,26,1,0,0,0,14,"[0, 14]",2,19,"[1, 4, 5, 8, 9, 13, 15, 17, 18, 19, 20, 21, 22, 23, 24, 25, 26, 28, 29]",200.1901808,4776,4629,5,42,7,1.0
undo,26,1,0,0,0,17,"[0, 14, 17]",3,15,"[1, 4, 5, 8, 9, 13, 15, 18, 19, 20, 22, 23, 25, 28, 29]",147.8356204,6408,1632,5,27,7,1.0028844724416826
undo,26,1,0,0,0,1,"[0, 14, 17, 1]",4,12,"[4, 5, 8, 9, 15, 18, 20, 22, 23, 25, 28, 29]",123.4840291,7508,1100,5,15,7,1.0264985578353567
undo,26,1,0,0,0,28,"[0, 14, 17, 1, 28]",5,5,"[9, 15, 22, 23, 29]",88.59850198,8842,1334,5,3,7,1.0339861575999345
undo,26,1,0,0,0,23,"[0, 14, 17, 1, 28, 23]",6,2,"[15, 22]",51.70676849,10305,1463,2,0,7,1.0327458250705703
undo,26,1,0,0,1,15,"[0, 14, 17, 1, 28, 23, 15]",7,0,[],20.81987807,11742,1437,1,0,7,1.1948681641401226
undo,26,1,0,1,1,15,"[0, 14, 17, 1, 28, 23, 15]",7,0,[],20.81987807,12684,942,1,0,7,1.1948681641401226
undo,27,36,0,0,0,0,[0],1,24,"[2, 4, 5, 6, 7, 8, 9, 10, 12, 13, 14, 15, 16, 17, 18, 19, 20, 22, 23, 25, 26, 27, 28, 29]",300,166,-1,2,200,10,0.0
undo,27,36,0,0,0,18,"[0, 18]",2,21,"[2, 4, 5, 6, 7, 8, 9, 10, 12, 13, 14, 16, 17, 19, 22, 23, 25, 26, 27, 28, 29]",279.6039219,5044,4878,2,110,10,1.0
undo,27,36,0,0,0,12,"[0, 18, 12]",3,19,"[2, 4, 5, 6, 7, 8, 9, 10, 13, 16, 17, 19, 22, 23, 25, 26, 27, 28, 29]",237.0245842,6962,1918,2,86,10,2.836270082716982
undo,27,36,0,0,0,9,"[0, 18, 12, 9]",4,9,"[2, 4, 10, 13, 16, 17, 19, 23, 25]",174.6627369,8629,1667,1,40,10,1.8147676024843966
undo,27,36,0,0,0,19,"[0, 18, 12, 9, 19]",5,8,"[2, 4, 10, 13, 16, 17, 23, 25]",159.529991,10522,1893,1,19,10,1.8224424970862618
undo,27,36,0,0,0,17,"[0, 18, 12, 9, 19, 17]",6,5,"[2, 10, 13, 16, 25]",131.6373396,12425,1903,8,5,9,1.7813412000990887
undo,27,36,0,0,0,16,"[0, 18, 12, 9, 19, 17, 16]",7,3,"[2, 13, 25]",103.3177351,13671,1246,1,2,9,1.8426640039988063
undo,27,36,0,0,0,2,"[0, 18, 12, 9, 19, 17, 16, 2]",8,1,[25],36.66940428,15400,1729,1,0,9,2.331820638173213
undo,27,36,0,0,1,25,"[0, 18, 12, 9, 19, 17, 16, 2, 25]",9,0,[],11.66940428,21880,6480,1,0,9,2.518387255557429
undo,27,36,0,1,1,25,"[0, 18, 12, 9, 19, 17, 16, 2, 25]",9,0,[],11.66940428,23283,1403,1,0,9,2.518387255557429
undo,28,35,0,0,0,0,[0],1,29,"[1, 2, 3, 4, 5, 6, 7, 8, 9, 10, 11, 12, 13, 14, 15, 16, 17, 18, 19, 20, 21, 22, 23, 24, 25, 26, 27, 28, 29]",300,159,-1,5,236,11,0.0
undo,28,35,0,0,0,27,"[0, 27]",2,27,"[1, 2, 4, 5, 6, 7, 8, 9, 10, 11, 12, 13, 14, 15, 16, 17, 18, 19, 20, 21, 22, 23, 24, 25, 26, 28, 29]",278.7867966,4194,4035,5,144,11,1.0
undo,28,35,0,0,0,28,"[0, 27, 28]",3,18,"[1, 2, 5, 6, 7, 9, 10, 13, 15, 16, 17, 18, 19, 21, 23, 24, 25, 26]",240.707931,6236,2042,4,100,10,1.0168505943672008
undo,28,35,0,0,0,19,"[0, 27, 28, 19]",4,14,"[1, 2, 5, 6, 9, 10, 15, 17, 18, 21, 23, 24, 25, 26]",191.7896318,8403,2167,11,75,9,1.3148564374305836
undo,28,35,0,0,0,17,"[0, 27, 28, 19, 17]",5,11,"[1, 2, 5, 6, 9, 15, 18, 23, 24, 25, 26]",126.3985009,10048,1645,8,27,9,4.3771266188983615
undo,28,35,0,0,0,24,"[0, 27, 28, 19, 17, 24]",6,8,"[1, 2, 5, 9, 15, 18, 23, 26]",114.693801,11155,1107,6,9,9,5.9745116440121
undo,28,35,0,0,0,1,"[0, 27, 28, 19, 17, 24, 1]",7,5,"[5, 9, 15, 18, 23]",97.57655822,13299,2144,5,2,9,4.234651770309059
undo,28,35,0,0,0,15,"[0, 27, 28, 19, 17, 24, 1, 15]",8,2,"[5, 23]",74.72923891,15010,1711,2,0,9,4.053179824399363
undo,28,35,0,0,1,5,"[0, 27, 28, 19, 17, 24, 1, 15, 5]",9,0,[],18.40872755,16635,1625,1,0,9,2.5229721588018523
undo,28,35,0,1,1,5,"[0, 27, 28, 19, 17, 24, 1, 15, 5]",9,0,[],18.40872755,18222,1587,1,0,9,2.5229721588018523
undo,29,16,0,0,0,0,[0],1,29,"[1, 2, 3, 4, 5, 6, 7, 8, 9, 10, 11, 12, 13, 14, 15, 16, 17, 18, 19, 20, 21, 22, 23, 24, 25, 26, 27, 28, 29]",300,165,-1,13,161,9,0.0
undo,29,16,0,0,0,28,"[0, 28]",2,27,"[1, 2, 3, 4, 5, 7, 8, 9, 10, 11, 12, 13, 14, 15, 16, 17, 18, 19, 20, 21, 22, 23, 24, 25, 26, 27, 29]",284.3475242,2298,2133,11,92,9,1.0
undo,29,16,0,0,0,26,"[0, 28, 26]",3,19,"[1, 3, 5, 7, 8, 9, 10, 11, 14, 16, 17, 20, 21, 22, 23, 24, 25, 27, 29]",229.1207191,3481,1183,10,30,7,1.0268047057020424
undo,29,16,0,0,0,22,"[0, 28, 26, 22]",4,11,"[5, 7, 8, 10, 14, 16, 17, 21, 23, 24, 29]",205.0375299,4756,1275,9,10,7,1.1196878678368272
undo,29,16,0,0,0,21,"[0, 28, 26, 22, 21]",5,3,"[8, 16, 17]",101.0375299,5900,1144,4,0,7,2.345935859621427
undo,29,16,0,0,0,8,"[0, 28, 26, 22, 21, 8]",6,1,[16],51.78308849,7126,1226,1,0,7,2.0011637036902754
undo,29,16,0,0,1,16,"[0, 28, 26, 22, 21, 8, 16]",7,0,[],3.409542,9189,2063,1,0,7,3.589042642116516
undo,29,16,0,1,1,16,"[0, 28, 26, 22, 21, 8, 16]",7,0,[],3.409542,10635,1446,1,0,7,3.589042642116516
undo,30,45,0,0,0,0,[0],1,24,"[1, 2, 3, 4, 5, 6, 7, 9, 10, 11, 12, 14, 15, 16, 17, 19, 20, 21, 22, 23, 24, 25, 27, 29]",300,141,-1,6,248,10,0.0
undo,30,45,0,0,0,17,"[0, 17]",2,22,"[1, 2, 3, 4, 5, 6, 7, 9, 10, 11, 12, 14, 15, 16, 19, 20, 21, 22, 23, 24, 25, 29]",235.867325,6176,6035,1,34,10,1.0
undo,30,45,0,0,0,24,"[0, 17, 24]",3,20,"[1, 2, 3, 4, 5, 6, 7, 9, 10, 11, 12, 14, 15, 16, 19, 20, 21, 22, 23, 29]",193.8078433,7177,1001,1,33,10,1.0309432256229287
undo,30,45,0,0,0,15,"[0, 17, 24, 15]",4,6,"[7, 9, 10, 11, 20, 23]",113.2783456,8467,1290,8,3,6,4.0505613973648895
undo,30,45,0,0,0,23,"[0, 17, 24, 15, 23]",5,4,"[9, 10, 11, 20]",89.67749819,9865,1398,4,0,6,3.0194326230488038
undo,30,45,0,0,1,20,"[0, 17, 24, 15, 23, 20]",6,0,[],48.24079948,12983,3118,1,0,6,2.7324805795071305
undo,30,45,0,1,1,20,"[0, 17, 24, 15, 23, 20]",6,0,[],48.24079948,14206,1223,1,0,6,2.7324805795071305
undo,31,39,0,0,0,0,[0],1,28,"[1, 2, 3, 4, 5, 6, 7, 9, 10, 11, 12, 13, 14, 15, 16, 17, 18, 19, 20, 21, 22, 23, 24, 25, 26, 27, 28, 29]",300,279,-1,1,30,10,0.0
undo,31,39,0,0,0,14,"[0, 14]",2,26,"[1, 2, 3, 4, 5, 6, 7, 9, 10, 12, 13, 15, 16, 17, 18, 19, 20, 21, 22, 23, 24, 25, 26, 27, 28, 29]",286.9615952,2689,2410,1,22,10,1.0
undo,31,39,0,0,0,29,"[0, 14, 29]",3,23,"[1, 2, 3, 4, 5, 6, 7, 9, 10, 12, 13, 15, 16, 17, 18, 19, 21, 22, 23, 24, 25, 26, 28]",218.9321898,5713,3024,1,21,10,1.4237768813412561
undo,31,39,0,0,0,12,"[0, 14, 29, 12]",4,16,"[1, 2, 4, 5, 7, 9, 10, 13, 15, 16, 18, 19, 22, 23, 24, 26]",158.3929463,7383,1670,1,11,10,1.2085522586932163
undo,31,39,0,0,0,10,"[0, 14, 29, 12, 10]",5,11,"[1, 4, 5, 7, 15, 16, 18, 19, 22, 23, 26]",122.8823845,9463,2080,1,8,10,1.4905426536315662
undo,31,39,0,0,0,7,"[0, 14, 29, 12, 10, 7]",6,6,"[1, 16, 18, 19, 22, 26]",89.46083457,16152,6689,1,6,10,1.3836596018032035
undo,31,39,0,0,0,26,"[0, 14, 29, 12, 10, 7, 26]",7,3,"[16, 19, 22]",70.77929288,17068,916,1,4,10,1.4191124441944845
undo,31,39,0,0,0,22,"[0, 14, 29, 12, 10, 7, 26, 22]",8,2,"[16, 19]",53.05924773,18462,1394,1,1,10,1.594793297833885
undo,31,39,0,0,0,16,"[0, 14, 29, 12, 10, 7, 26, 22, 16]",9,1,[19],18.05924773,20359,1897,1,0,10,1.48519520801471
undo,31,39,0,1,0,16,"[0, 14, 29, 12, 10, 7, 26, 22, 16]",9,1,[19],18.05924773,22240,1881,1,0,10,1.48519520801471
undo,32,9,0,0,0,0,[0],1,27,"[1, 3, 4, 5, 6, 7, 8, 9, 10, 11, 13, 14, 15, 16, 17, 18, 19, 20, 21, 22, 23, 24, 25, 26, 27, 28, 29]",300,294,-1,2,182,10,0.0
undo,32,9,0,0,0,7,"[0, 7]",2,19,"[3, 4, 5, 8, 9, 10, 11, 16, 17, 18, 19, 20, 21, 22, 23, 25, 26, 27, 28]",258.4067313,5197,4903,39,322,9,1.0
undo,32,9,0,0,0,4,"[0, 7, 4]",3,15,"[3, 8, 9, 10, 11, 18, 19, 20, 21, 22, 23, 25, 26, 27, 28]",243.4067313,6716,1519,32,159,9,1.002790151820037
undo,32,9,0,0,0,27,"[0, 7, 4, 27]",4,11,"[8, 9, 10, 11, 20, 21, 22, 23, 25, 26, 28]",181.165266,8443,1727,19,48,9,2.2170504989781823
undo,32,9,0,0,0,25,"[0, 7, 4, 27, 25]",5,10,"[8, 9, 10, 11, 20, 21, 22, 23, 26, 28]",145.2626199,10324,1881,17,30,9,6.425119990857526
undo,32,9,0,0,0,23,"[0, 7, 4, 27, 25, 23]",6,5,"[8, 9, 10, 26, 28]",74.06570985,15534,5210,2,6,9,3.7946701344040124
undo,32,9,0,0,0,8,"[0, 7, 4, 27, 25, 23, 8]",7,3,"[9, 10, 28]",52.59479929,18535,3001,1,2,9,3.878987254242156
undo,32,9,0,0,0,28,"[0, 7, 4, 27, 25, 23, 8, 28]",8,1,[9],41.77814547,19970,1435,1,0,9,3.476494157761401
undo,32,9,0,0,1,9,"[0, 7, 4, 27, 25, 23, 8, 28, 9]",9,0,[],0.961482204,26890,6920,1,0,9,4.015839583571412
undo,32,9,0,1,1,9,"[0, 7, 4, 27, 25, 23, 8, 28, 9]",9,0,[],0.961482204,30750,3860,1,0,9,4.015839583571412
undo,33,10,0,0,0,0,[0],1,29,"[1, 2, 3, 4, 5, 6, 7, 8, 9, 10, 11, 12, 13, 14, 15, 16, 17, 18, 19, 20, 21, 22, 23, 24, 25, 26, 27, 28, 29]",300,169,-1,1,100,9,0.0
undo,33,10,0,0,0,13,"[0, 13]",2,25,"[1, 2, 3, 4, 6, 7, 8, 9, 10, 11, 12, 14, 17, 18, 19, 20, 21, 22, 23, 24, 25, 26, 27, 28, 29]",249.4628849,3655,3486,1,79,9,1.0
undo,33,10,0,0,0,11,"[0, 13, 11]",3,20,"[1, 2, 3, 6, 7, 8, 9, 10, 12, 14, 18, 19, 20, 21, 22, 24, 26, 27, 28, 29]",206.4512586,6131,2476,1,54,9,1.0313137484914219
undo,33,10,0,0,0,19,"[0, 13, 11, 19]",4,11,"[2, 6, 8, 9, 10, 14, 18, 20, 24, 26, 27]",170.0919407,10923,4792,1,22,9,1.0879446220132545
undo,33,10,0,0,0,20,"[0, 13, 11, 19, 20]",5,8,"[2, 6, 9, 10, 14, 18, 26, 27]",118.1689207,12843,1920,4,9,8,1.5022745303253866
undo,33,10,0,0,0,26,"[0, 13, 11, 19, 20, 26]",6,3,"[2, 14, 27]",86.38842356,14799,1956,2,1,8,1.6129094653795495
undo,33,10,0,0,0,14,"[0, 13, 11, 19, 20, 26, 14]",7,1,[2],51.71855191,16406,1607,1,0,8,1.5524262520925847
undo,33,10,0,0,1,2,"[0, 13, 11, 19, 20, 26, 14, 2]",8,0,[],39.55302685,17466,1060,1,0,8,1.5954041148854738
undo,33,10,0,1,1,2,"[0, 13, 11, 19, 20, 26, 14, 2]",8,0,[],39.55302685,19535,2069,1,0,8,1.5954041148854738
undo,34,27,0,0,0,0,[0],1,26,"[1, 3, 5, 6, 7, 8, 9, 10, 11, 12, 13, 14, 15, 16, 17, 18, 19, 21, 22, 23, 24, 25, 26, 27, 28, 29]",300,140,-1,13,578,11,0.0
undo,34,27,0,0,0,15,"[0, 15]",2,24,"[1, 3, 5, 6, 7, 8, 9, 10, 11, 12, 13, 14, 16, 17, 18, 19, 21, 22, 23, 24, 25, 26, 27, 29]",263.7508621,3030,2890,6,219,11,1.0
undo,34,27,0,0,0,24,"[0, 15, 24]",3,20,"[1, 5, 6, 7, 8, 9, 10, 12, 13, 14, 16, 17, 18, 19, 21, 23, 25, 26, 27, 29]",246.5462115,5154,2124,6,130,11,1.130933077698322
undo,34,27,0,0,0,17,"[0, 15, 24, 17]",4,15,"[1, 6, 8, 10, 12, 13, 14, 16, 18, 19, 23, 25, 26, 27, 29]",229.9932662,6575,1421,4,60,11,1.1285538435963374
undo,34,27,0,0,0,12,"[0, 15, 24, 17, 12]",5,14,"[1, 6, 8, 10, 13, 14, 16, 18, 19, 23, 25, 26, 27, 29]",218.8129263,7508,933,2,32,11,1.2561880288755216
undo,34,27,0,0,0,10,"[0, 15, 24, 17, 12, 10]",6,11,"[1, 8, 13, 14, 18, 19, 23, 25, 26, 27, 29]",207.7675653,8470,962,2,28,11,1.2228289337766665
undo,34,27,0,0,0,13,"[0, 15, 24, 17, 12, 10, 13]",7,9,"[1, 8, 14, 18, 19, 23, 26, 27, 29]",167.9178476,11070,2600,2,18,11,1.3421291994761178
undo,34,27,0,0,0,19,"[0, 15, 24, 17, 12, 10, 13, 19]",8,5,"[1, 8, 14, 23, 29]",131.6825057,13804,2734,2,6,11,1.294749956153846
undo,34,27,0,0,0,8,"[0, 15, 24, 17, 12, 10, 13, 19, 8]",9,3,"[14, 23, 29]",116.816437,14715,911,2,1,11,1.3554286578836865
undo,34,27,0,0,0,29,"[0, 15, 24, 17, 12, 10, 13, 19, 8, 29]",10,1,[14],57.61339652,16454,1739,1,0,11,1.248354519573802
undo,34,27,0,0,1,14,"[0, 15, 24, 17, 12, 10, 13, 19, 8, 29, 14]",11,0,[],13.31892734,18904,2450,1,0,11,1.562811097555156
undo,34,27,0,1,1,14,"[0, 15, 24, 17, 12, 10, 13, 19, 8, 29, 14]",11,0,[],13.31892734,21078,2174,1,0,11,1.562811097555156
undo,35,7,0,0,0,0,[0],1,29,"[1, 2, 3, 4, 5, 6, 7, 8, 9, 10, 11, 12, 13, 14, 15, 16, 17, 18, 19, 20, 21, 22, 23, 24, 25, 26, 27, 28, 29]",300,180,-1,3,79,9,0.0
undo,35,7,0,0,0,15,"[0, 15]",2,19,"[2, 4, 5, 6, 7, 8, 9, 10, 13, 14, 16, 18, 19, 20, 21, 23, 25, 27, 28]",230.9348134,4151,3971,2,38,9,1.0
undo,35,7,0,0,0,6,"[0, 15, 6]",3,18,"[2, 4, 5, 7, 8, 9, 10, 13, 14, 16, 18, 19, 20, 21, 23, 25, 27, 28]",205.854941,5971,1820,2,36,9,1.366719602896943
undo,35,7,0,0,0,25,"[0, 15, 6, 25]",4,11,"[2, 4, 7, 13, 14, 16, 18, 19, 20, 21, 23]",138.6760753,8402,2431,2,28,9,1.3624631728355765
undo,35,7,0,0,0,4,"[0, 15, 6, 25, 4]",5,7,"[2, 7, 13, 16, 18, 19, 20]",113.9374415,10235,1833,2,12,9,1.3249684384385587
undo,35,7,0,0,0,20,"[0, 15, 6, 25, 4, 20]",6,5,"[2, 7, 13, 18, 19]",94.29055881,11753,1518,1,6,9,1.3721893242679268
undo,35,7,0,0,0,18,"[0, 15, 6, 25, 4, 20, 18]",7,3,"[7, 13, 19]",81.48431034,13443,1690,1,2,9,1.5262542308371432
undo,35,7,0,0,0,7,"[0, 15, 6, 25, 4, 20, 18, 7]",8,1,[19],40.25325408,14902,1459,1,0,9,1.41986878673423
undo,35,7,0,0,1,19,"[0, 15, 6, 25, 4, 20, 18, 7, 19]",9,0,[],10.84237174,21465,6563,1,0,9,1.5285658163212987
undo,35,7,0,1,1,19,"[0, 15, 6, 25, 4, 20, 18, 7, 19]",9,0,[],10.84237174,22325,860,1,0,9,1.5285658163212987
undo,36,15,0,0,0,0,[0],1,25,"[1, 2, 3, 4, 7, 8, 9, 10, 11, 12, 13, 14, 15, 16, 18, 20, 21, 22, 23, 24, 25, 26, 27, 28, 29]",300,148,-1,4,65,9,0.0
undo,36,15,0,0,0,21,"[0, 21]",2,17,"[1, 3, 4, 7, 8, 9, 11, 12, 13, 14, 15, 16, 22, 23, 24, 26, 27]",204.9158268,6017,5869,21,65,7,1.0
undo,36,15,0,0,0,12,"[0, 21, 12]",3,14,"[1, 3, 4, 7, 8, 9, 11, 13, 14, 15, 16, 22, 24, 27]",161.0866128,7508,1491,20,39,7,1.6068212046294776
undo,36,15,0,0,0,7,"[0, 21, 12, 7]",4,10,"[3, 4, 9, 11, 13, 14, 15, 16, 22, 27]",127.8450725,9031,1523,13,11,7,2.0298522511797907
undo,36,15,0,0,0,16,"[0, 21, 12, 7, 16]",5,5,"[3, 4, 11, 15, 22]",84.18731258,10694,1663,3,3,7,1.8904046427013528
undo,36,15,0,0,0,11,"[0, 21, 12, 7, 16, 11]",6,1,[3],58.16808892,11803,1109,1,0,7,1.9475991988988648
undo,36,15,0,0,1,3,"[0, 21, 12, 7, 16, 11, 3]",7,0,[],46.76633467,13404,1601,1,0,7,1.912955285957019
undo,36,15,0,1,1,3,"[0, 21, 12, 7, 16, 11, 3]",7,0,[],46.76633467,14953,1549,1,0,7,1.912955285957019
undo,37,8,0,0,0,0,[0],1,29,"[1, 2, 3, 4, 5, 6, 7, 8, 9, 10, 11, 12, 13, 14, 15, 16, 17, 18, 19, 20, 21, 22, 23, 24, 25, 26, 27, 28, 29]",300,265,-1,10,149,9,0.0
undo,37,8,0,0,0,22,"[0, 22]",2,28,"[1, 2, 3, 4, 5, 6, 7, 8, 9, 10, 11, 12, 13, 14, 15, 16, 17, 18, 19, 20, 21, 23, 24, 25, 26, 27, 28, 29]",254.119721,2923,2658,2,42,8,1.0
undo,37,8,0,0,0,6,"[0, 22, 6]",3,16,"[1, 3, 4, 5, 11, 12, 13, 14, 17, 18, 19, 20, 21, 23, 25, 29]",181.773332,4238,1315,5,41,7,2.807767108299999
undo,37,8,0,0,0,20,"[0, 22, 6, 20]",4,8,"[1, 5, 12, 14, 21, 23, 25, 29]",148.8795636,6347,2109,1,10,7,2.0330921236626005
undo,37,8,1,0,0,6,"[0, 22, 6]",3,16,"[1, 3, 4, 5, 11, 12, 13, 14, 17, 18, 19, 20, 21, 23, 25, 29]",181.773332,9432,3085,5,41,7,2.807767108299999
undo,37,8,1,0,0,22,"[0, 22]",2,28,"[1, 2, 3, 4, 5, 6, 7, 8, 9, 10, 11, 12, 13, 14, 15, 16, 17, 18, 19, 20, 21, 23, 24, 25, 26, 27, 28, 29]",254.119721,9661,229,2,42,8,1.0
undo,37,8,1,0,0,0,[0],1,29,"[1, 2, 3, 4, 5, 6, 7, 8, 9, 10, 11, 12, 13, 14, 15, 16, 17, 18, 19, 20, 21, 22, 23, 24, 25, 26, 27, 28, 29]",300,11224,1563,10,149,9,0.0
undo,37,8,0,0,0,5,"[0, 5]",2,28,"[1, 2, 3, 4, 6, 7, 8, 9, 10, 11, 12, 13, 14, 15, 16, 17, 18, 19, 20, 21, 22, 23, 24, 25, 26, 27, 28, 29]",254.5137383,12742,1518,10,100,9,1.0
undo,37,8,0,0,0,25,"[0, 5, 25]",3,20,"[1, 2, 3, 4, 6, 11, 12, 14, 15, 16, 17, 18, 19, 20, 21, 22, 23, 24, 28, 29]",215.3091468,14152,1410,4,42,9,1.2272747879909065
undo,37,8,0,0,0,1,"[0, 5, 25, 1]",4,17,"[3, 4, 6, 11, 12, 14, 15, 16, 17, 18, 20, 21, 22, 23, 24, 28, 29]",190.3091468,16074,1922,3,24,9,1.1770245007593956
undo,37,8,0,0,0,23,"[0, 5, 25, 1, 23]",5,15,"[3, 4, 6, 11, 14, 15, 16, 17, 18, 20, 21, 22, 24, 28, 29]",167.2874179,18424,2350,1,14,9,1.141996583852372
undo,37,8,0,0,0,4,"[0, 5, 25, 1, 23, 4]",6,6,"[3, 14, 16, 18, 21, 28]",117.9518324,22694,4270,3,4,8,1.115517190692443
undo,37,8,0,0,0,18,"[0, 5, 25, 1, 23, 4, 18]",7,2,"[14, 28]",74.94020603,25652,2958,2,0,8,1.702606074443807
undo,37,8,0,0,1,14,"[0, 5, 25, 1, 23, 4, 18, 14]",8,0,[],17.45107663,31901,6249,1,0,8,3.306985013025639
undo,37,8,1,0,0,18,"[0, 5, 25, 1, 23, 4, 18]",7,2,"[14, 28]",74.94020603,32763,862,2,0,8,1.702606074443807
undo,37,8,0,0,1,14,"[0, 5, 25, 1, 23, 4, 18, 14]",8,0,[],17.45107663,39694,6931,1,0,8,3.306985013025639
undo,37,8,0,1,1,14,"[0, 5, 25, 1, 23, 4, 18, 14]",8,0,[],17.45107663,40825,1131,1,0,8,3.306985013025639
undo,38,44,0,0,0,0,[0],1,29,"[1, 2, 3, 4, 5, 6, 7, 8, 9, 10, 11, 12, 13, 14, 15, 16, 17, 18, 19, 20, 21, 22, 23, 24, 25, 26, 27, 28, 29]",300,301,-1,13,126,7,0.0
undo,38,44,0,0,0,9,"[0, 9]",2,17,"[2, 4, 5, 7, 8, 10, 11, 12, 13, 14, 20, 22, 23, 24, 25, 26, 28]",141.32423,7341,7040,3,26,7,1.0
undo,38,44,0,0,0,4,"[0, 9, 4]",3,15,"[2, 5, 7, 8, 10, 11, 12, 14, 20, 22, 23, 24, 25, 26, 28]",121.6265143,8592,1251,3,21,7,1.0155532843148096
undo,38,44,0,0,0,24,"[0, 9, 4, 24]",4,5,"[7, 11, 14, 20, 23]",86.97106745,10569,1977,3,2,6,1.4176434179720834
undo,38,44,0,0,0,11,"[0, 9, 4, 24, 11]",5,1,[14],60.04524341,11717,1148,1,0,6,1.6298957555465912
undo,38,44,0,0,1,14,"[0, 9, 4, 24, 11, 14]",6,0,[],27.84275904,13068,1351,1,0,6,1.5217619331476957
undo,38,44,0,1,1,14,"[0, 9, 4, 24, 11, 14]",6,0,[],27.84275904,14223,1155,1,0,6,1.5217619331476957
undo,39,34,0,0,0,0,[0],1,25,"[1, 3, 4, 5, 6, 7, 8, 9, 10, 11, 12, 13, 15, 18, 19, 20, 21, 22, 23, 24, 25, 26, 27, 28, 29]",300,314,-1,12,367,10,0.0
undo,39,34,0,0,0,13,"[0, 13]",2,24,"[1, 3, 4, 5, 6, 7, 8, 9, 10, 11, 12, 15, 18, 19, 20, 21, 22, 23, 24, 25, 26, 27, 28, 29]",279.9750156,2211,1897,12,331,10,1.0
undo,39,34,0,0,0,1,"[0, 13, 1]",3,16,"[3, 5, 7, 8, 9, 10, 11, 12, 19, 21, 22, 23, 24, 25, 27, 29]",211.8574701,4178,1967,3,92,10,1.0010381285747127
undo,39,34,0,0,0,8,"[0, 13, 1, 8]",4,14,"[3, 5, 7, 9, 10, 11, 12, 19, 22, 23, 24, 25, 27, 29]",201.0871405,5440,1262,2,54,10,1.1636807
undo,39,34,0,0,0,25,"[0, 13, 1, 8, 25]",5,12,"[3, 5, 7, 9, 10, 11, 12, 22, 23, 24, 27, 29]",183.999133,8967,3527,2,28,10,1.1396208815936457
undo,39,34,0,0,0,24,"[0, 13, 1, 8, 25, 24]",6,11,"[3, 5, 7, 9, 10, 11, 12, 22, 23, 27, 29]",166.5062774,10004,1037,2,23,10,1.374180768736554
undo,39,34,0,0,0,12,"[0, 13, 1, 8, 25, 24, 12]",7,7,"[7, 9, 10, 11, 22, 23, 27]",115.4670767,12087,2083,1,8,10,1.4994254760835948
undo,39,34,0,0,0,7,"[0, 13, 1, 8, 25, 24, 12, 7]",8,5,"[9, 11, 22, 23, 27]",100.4337804,13238,1151,1,4,10,1.758992610425009
undo,39,34,0,0,0,23,"[0, 13, 1, 8, 25, 24, 12, 7, 23]",9,1,[27],72.27352467,15027,1789,1,0,10,2.399781305190153
undo,39,34,0,0,1,27,"[0, 13, 1, 8, 25, 24, 12, 7, 23, 27]",10,0,[],18.60789321,16529,1502,1,0,10,4.766619878750327
undo,39,34,0,1,1,27,"[0, 13, 1, 8, 25, 24, 12, 7, 23, 27]",10,0,[],18.60789321,18303,1774,1,0,10,4.766619878750327
undo,40,38,0,0,0,0,[0],1,29,"[1, 2, 3, 4, 5, 6, 7, 8, 9, 10, 11, 12, 13, 14, 15, 16, 17, 18, 19, 20, 21, 22, 23, 24, 25, 26, 27, 28, 29]",300,300,-1,33,506,9,0.0
undo,40,38,0,0,0,19,"[0, 19]",2,23,"[3, 4, 5, 6, 7, 8, 9, 11, 13, 14, 15, 16, 17, 18, 20, 22, 23, 24, 25, 26, 27, 28, 29]",219.5015528,5088,4788,6,61,9,1.0
undo,40,38,0,0,0,17,"[0, 19, 17]",3,21,"[3, 4, 5, 6, 7, 9, 11, 13, 14, 15, 16, 18, 20, 22, 23, 24, 25, 26, 27, 28, 29]",198.1239945,6201,1113,6,53,9,1.571793785769489
undo,40,38,0,0,0,20,"[0, 19, 17, 20]",4,17,"[3, 4, 5, 6, 7, 11, 13, 14, 15, 16, 18, 22, 24, 25, 26, 27, 28]",174.3542658,6900,699,6,44,9,2.333182710277297
undo,40,38,0,0,0,4,"[0, 19, 17, 20, 4]",5,10,"[5, 11, 13, 14, 15, 16, 24, 26, 27, 28]",140.4131403,8171,1271,5,22,9,2.276099229646013
undo,40,38,0,0,0,13,"[0, 19, 17, 20, 4, 13]",6,7,"[11, 15, 16, 24, 26, 27, 28]",109.0125034,9115,944,8,3,8,1.9539449223642764
undo,40,38,0,0,0,26,"[0, 19, 17, 20, 4, 13, 26]",7,3,"[15, 16, 24]",77.96415401,12195,3080,3,0,8,1.7636339903785625
undo,40,38,0,0,1,24,"[0, 19, 17, 20, 4, 13, 26, 24]",8,0,[],47.15831041,14091,1896,1,0,8,1.6290683193074331
undo,40,38,0,1,1,24,"[0, 19, 17, 20, 4, 13, 26, 24]",8,0,[],47.15831041,15806,1715,1,0,8,1.6290683193074331
undo,41,13,0,0,0,0,[0],1,29,"[1, 2, 3, 4, 5, 6, 7, 8, 9, 10, 11, 12, 13, 14, 15, 16, 17, 18, 19, 20, 21, 22, 23, 24, 25, 26, 27, 28, 29]",300,158,-1,60,2676,11,0.0
undo,41,13,0,0,0,28,"[0, 28]",2,24,"[1, 2, 3, 4, 6, 7, 8, 9, 10, 11, 12, 13, 15, 16, 17, 19, 20, 21, 22, 23, 24, 26, 27, 29]",226.3182519,3568,3410,12,378,10,1.0
undo,41,13,0,0,0,2,"[0, 28, 2]",3,20,"[1, 3, 4, 6, 7, 9, 11, 12, 13, 15, 16, 17, 19, 20, 21, 23, 24, 26, 27, 29]",188.6751915,5337,1769,9,174,10,1.0158286399660754
undo,41,13,0,0,0,29,"[0, 28, 2, 29]",4,19,"[1, 3, 4, 6, 7, 9, 11, 12, 13, 15, 16, 17, 19, 20, 21, 23, 24, 26, 27]",176.9704916,7045,1708,9,132,10,1.1053279759370194
undo,41,13,0,0,0,7,"[0, 28, 2, 29, 7]",5,18,"[1, 3, 4, 6, 9, 11, 12, 13, 15, 16, 17, 19, 20, 21, 23, 24, 26, 27]",161.706154,8028,983,6,72,10,1.313811244316471
undo,41,13,0,0,0,26,"[0, 28, 2, 29, 7, 26]",6,17,"[1, 3, 4, 6, 9, 11, 12, 13, 15, 16, 17, 19, 20, 21, 23, 24, 27]",151.2658475,12278,4250,6,39,10,1.554636901089982
undo,41,13,0,0,0,6,"[0, 28, 2, 29, 7, 26, 6]",7,13,"[1, 3, 4, 11, 13, 15, 16, 17, 19, 20, 23, 24, 27]",131.1660963,15003,2725,4,17,10,1.554967005613632
undo,41,13,0,0,0,11,"[0, 28, 2, 29, 7, 26, 6, 11]",8,6,"[1, 13, 15, 16, 17, 23]",112.0611231,15925,922,3,4,10,1.4733168623367165
undo,41,13,0,0,0,13,"[0, 28, 2, 29, 7, 26, 6, 11, 13]",9,2,"[15, 17]",55.98082354,19156,3231,2,0,10,1.3447287374536006
undo,41,13,0,0,1,17,"[0, 28, 2, 29, 7, 26, 6, 11, 13, 17]",10,0,[],22.604185,20506,1350,1,0,10,1.395853507135501
undo,41,13,0,1,1,17,"[0, 28, 2, 29, 7, 26, 6, 11, 13, 17]",10,0,[],22.604185,22408,1902,1,0,10,1.395853507135501
undo,42,25,0,0,0,0,[0],1,28,"[1, 2, 3, 4, 5, 7, 8, 9, 10, 11, 12, 13, 14, 15, 16, 17, 18, 19, 20, 21, 22, 23, 24, 25, 26, 27, 28, 29]",300,147,-1,5,94,10,0.0
undo,42,25,0,0,0,23,"[0, 23]",2,23,"[1, 2, 3, 5, 7, 8, 9, 11, 12, 13, 14, 16, 17, 19, 20, 21, 22, 24, 25, 26, 27, 28, 29]",259.7756293,5841,5694,3,33,10,1.0
undo,42,25,0,0,0,19,"[0, 23, 19]",3,21,"[1, 2, 3, 5, 7, 8, 9, 11, 12, 13, 14, 16, 17, 20, 21, 22, 24, 25, 27, 28, 29]",223.9287326,6922,1081,3,24,10,1.583101227007039
undo,42,25,0,0,0,29,"[0, 23, 19, 29]",4,19,"[1, 2, 3, 5, 7, 8, 9, 11, 12, 13, 14, 16, 17, 20, 21, 22, 24, 25, 28]",207.649912,10715,3793,3,17,10,1.474631541426484
undo,42,25,0,0,0,22,"[0, 23, 19, 29, 22]",5,18,"[1, 2, 3, 5, 7, 8, 9, 11, 12, 13, 14, 16, 17, 20, 21, 24, 25, 28]",191.5253965,11861,1146,3,14,10,1.4020377754906637
undo,42,25,0,0,0,1,"[0, 23, 19, 29, 22, 1]",6,3,"[5, 20, 21]",107.7996538,14423,2562,2,1,8,6.190356330063188
undo,42,25,0,0,0,21,"[0, 23, 19, 29, 22, 1, 21]",7,1,[20],79.35672846,16133,1710,1,0,8,4.394447349021464
undo,42,25,0,0,1,20,"[0, 23, 19, 29, 22, 1, 21, 20]",8,0,[],41.87339884,17174,1041,1,0,8,3.3093153994871796
undo,42,25,0,1,1,20,"[0, 23, 19, 29, 22, 1, 21, 20]",8,0,[],41.87339884,18661,1487,1,0,8,3.3093153994871796
undo,43,26,0,0,0,0,[0],1,29,"[1, 2, 3, 4, 5, 6, 7, 8, 9, 10, 11, 12, 13, 14, 15, 16, 17, 18, 19, 20, 21, 22, 23, 24, 25, 26, 27, 28, 29]",300,162,-1,9,226,9,0.0
undo,43,26,0,0,0,12,"[0, 12]",2,26,"[1, 2, 3, 4, 5, 6, 8, 10, 11, 13, 14, 15, 16, 17, 18, 19, 20, 21, 22, 23, 24, 25, 26, 27, 28, 29]",279.8753882,4430,4268,2,80,9,1.0
undo,43,26,0,0,0,21,"[0, 12, 21]",3,19,"[3, 4, 5, 6, 8, 10, 11, 13, 14, 16, 17, 18, 19, 22, 23, 24, 25, 26, 29]",171.275204,6530,2100,1,20,9,1.4485421710567572
undo,43,26,0,0,0,13,"[0, 12, 21, 13]",4,13,"[3, 4, 5, 6, 11, 14, 16, 17, 18, 22, 23, 25, 29]",149.1392604,7573,1043,7,19,8,1.3732214825936762
undo,43,26,0,0,0,5,"[0, 12, 21, 13, 5]",5,6,"[3, 11, 16, 22, 23, 29]",110.850881,8537,964,1,2,8,1.278005415293344
undo,43,26,0,0,0,23,"[0, 12, 21, 13, 5, 23]",6,2,"[16, 29]",78.15531553,9591,1054,1,1,8,1.647957336537536
undo,43,26,0,0,0,16,"[0, 12, 21, 13, 5, 23, 16]",7,1,[29],24.91998892,11368,1777,1,0,8,2.4572471501572704
undo,43,26,0,0,1,29,"[0, 12, 21, 13, 5, 23, 16, 29]",8,0,[],0.712552042,14049,2681,1,0,8,2.449393715122585
undo,43,26,0,1,1,29,"[0, 12, 21, 13, 5, 23, 16, 29]",8,0,[],0.712552042,15994,1945,1,0,8,2.449393715122585
undo,44,29,0,0,0,0,[0],1,29,"[1, 2, 3, 4, 5, 6, 7, 8, 9, 10, 11, 12, 13, 14, 15, 16, 17, 18, 19, 20, 21, 22, 23, 24, 25, 26, 27, 28, 29]",300,310,-1,1,78,9,0.0
undo,44,29,0,0,0,28,"[0, 28]",2,28,"[1, 2, 3, 4, 5, 6, 7, 8, 9, 10, 11, 12, 13, 14, 15, 16, 17, 18, 19, 20, 21, 22, 23, 24, 25, 26, 27, 29]",202.9175608,8750,8440,7,62,8,1.0
undo,44,29,0,0,0,27,"[0, 28, 27]",3,23,"[1, 3, 4, 5, 6, 7, 9, 10, 11, 12, 13, 14, 15, 16, 17, 18, 21, 22, 23, 24, 25, 26, 29]",182.3992763,9990,1240,7,51,8,1.0854577949107957
undo,44,29,0,0,0,22,"[0, 28, 27, 22]",4,18,"[1, 3, 4, 5, 6, 7, 9, 11, 12, 13, 14, 15, 16, 21, 23, 25, 26, 29]",149.157736,11392,1402,7,34,8,1.289627010733819
undo,44,29,0,0,0,12,"[0, 28, 27, 22, 12]",5,10,"[4, 5, 7, 9, 13, 14, 21, 23, 26, 29]",111.2104041,12949,1557,5,8,8,1.2228936795394132
undo,44,29,0,0,0,7,"[0, 28, 27, 22, 12, 7]",6,5,"[4, 5, 9, 13, 21]",97.60893357,13946,997,4,2,8,1.2307104129303603
undo,44,29,0,0,0,9,"[0, 28, 27, 22, 12, 7, 9]",7,2,"[4, 21]",68.54004986,15281,1335,2,0,8,1.2260294853044633
undo,44,29,0,0,1,4,"[0, 28, 27, 22, 12, 7, 9, 4]",8,0,[],27.5034808,17995,2714,1,0,8,1.5501534531032373
undo,44,29,0,1,1,4,"[0, 28, 27, 22, 12, 7, 9, 4]",8,0,[],27.5034808,19269,1274,1,0,8,1.5501534531032373
undo,45,17,0,0,0,0,[0],1,28,"[1, 2, 3, 4, 5, 6, 7, 8, 9, 10, 11, 12, 13, 14, 15, 16, 17, 18, 19, 20, 22, 23, 24, 25, 26, 27, 28, 29]",300,292,-1,2,73,8,0.0
undo,45,17,0,0,0,9,"[0, 9]",2,25,"[1, 2, 3, 5, 6, 7, 8, 10, 11, 12, 14, 15, 16, 17, 18, 19, 20, 22, 23, 24, 25, 26, 27, 28, 29]",210.5293344,2158,1866,1,34,8,1.0
undo,45,17,0,0,0,16,"[0, 9, 16]",3,21,"[1, 2, 3, 5, 7, 8, 10, 11, 12, 14, 17, 18, 19, 20, 22, 23, 25, 26, 27, 28, 29]",197.1876704,4137,1979,1,26,8,1.173103464220352
undo,45,17,0,0,0,2,"[0, 9, 16, 2]",4,18,"[1, 3, 5, 7, 8, 10, 11, 12, 14, 17, 18, 19, 23, 25, 26, 27, 28, 29]",181.0631549,5072,935,1,23,8,1.14825089247282
undo,45,17,0,0,0,17,"[0, 9, 16, 2, 17]",5,7,"[7, 8, 12, 14, 26, 27, 29]",142.7356191,6429,1357,4,5,7,1.4896040699768547
undo,45,17,0,0,0,8,"[0, 9, 16, 2, 17, 8]",6,3,"[7, 12, 27]",104.5256727,7178,749,3,0,7,1.4604726966175894
undo,45,17,0,0,1,7,"[0, 9, 16, 2, 17, 8, 7]",7,0,[],33.81499459,8654,1476,1,0,7,1.4474701869793896
undo,45,17,0,1,1,7,"[0, 9, 16, 2, 17, 8, 7]",7,0,[],33.81499459,10559,1905,1,0,7,1.4474701869793896
undo,46,23,0,0,0,0,[0],1,28,"[1, 2, 3, 4, 5, 6, 7, 8, 9, 10, 11, 12, 13, 14, 15, 16, 17, 18, 19, 20, 21, 22, 23, 25, 26, 27, 28, 29]",300,383,-1,76,2626,10,0.0
undo,46,23,0,0,0,22,"[0, 22]",2,24,"[1, 2, 3, 5, 6, 7, 8, 9, 10, 11, 12, 13, 14, 15, 17, 18, 19, 20, 21, 23, 25, 26, 27, 29]",210.5013967,5389,5006,15,1362,10,1.0
undo,46,23,0,0,0,13,"[0, 22, 13]",3,14,"[1, 2, 5, 6, 7, 8, 9, 10, 12, 14, 18, 21, 27, 29]",168.3113504,6763,1374,14,522,10,1.1898173563652046
undo,46,23,0,0,0,12,"[0, 22, 13, 12]",4,11,"[1, 2, 6, 7, 9, 10, 14, 18, 21, 27, 29]",156.2283045,8374,1611,12,166,10,1.1727968780218219
undo,46,23,0,0,0,14,"[0, 22, 13, 12, 14]",5,9,"[1, 2, 6, 7, 9, 10, 18, 27, 29]",133.0334775,9972,1598,1,30,10,1.1850840320457126
undo,46,23,0,0,0,9,"[0, 22, 13, 12, 14, 9]",6,7,"[2, 6, 7, 10, 18, 27, 29]",122.5931709,12116,2144,10,7,9,1.357895328859444
undo,46,23,0,0,0,2,"[0, 22, 13, 12, 14, 9, 2]",7,5,"[6, 7, 18, 27, 29]",109.5547661,13309,1193,4,2,9,1.3956245757193222
undo,46,23,0,0,0,6,"[0, 22, 13, 12, 14, 9, 2, 6]",8,2,"[27, 29]",91.11567722,14971,1662,2,0,9,1.390308588788019
undo,46,23,0,0,1,27,"[0, 22, 13, 12, 14, 9, 2, 6, 27]",9,0,[],62.81373383,16521,1550,1,0,9,1.6565807403359503
undo,46,23,0,1,1,27,"[0, 22, 13, 12, 14, 9, 2, 6, 27]",9,0,[],62.81373383,18999,2478,1,0,9,1.6565807403359503
undo,47,30,0,0,0,0,[0],1,19,"[3, 4, 5, 7, 9, 11, 16, 17, 18, 19, 20, 21, 22, 24, 25, 26, 27, 28, 29]",300,160,-1,5,41,8,0.0
undo,47,30,0,0,0,16,"[0, 16]",2,17,"[3, 5, 7, 9, 11, 17, 18, 19, 20, 21, 22, 24, 25, 26, 27, 28, 29]",219.3774225,9715,9555,5,34,8,1.0
undo,47,30,0,0,0,25,"[0, 16, 25]",3,10,"[3, 5, 7, 9, 11, 18, 19, 20, 27, 29]",115.0845656,11444,1729,5,28,8,1.0336279544884488
undo,47,30,0,0,0,27,"[0, 16, 25, 27]",4,7,"[3, 5, 7, 18, 19, 20, 29]",75.52448473,13782,2338,1,12,8,1.0719738181137488
undo,47,30,0,0,0,3,"[0, 16, 25, 27, 3]",5,5,"[5, 7, 18, 20, 29]",56.41951155,15029,1247,1,4,8,1.0683252001879187
undo,47,30,0,0,0,18,"[0, 16, 25, 27, 3, 18]",6,2,"[5, 29]",38.17122396,16069,1040,2,0,7,1.071988954484303
undo,47,30,0,0,1,5,"[0, 16, 25, 27, 3, 18, 5]",7,0,[],25.13281915,18756,2687,1,0,7,1.1366885529959678
undo,47,30,0,1,1,5,"[0, 16, 25, 27, 3, 18, 5]",7,0,[],25.13281915,21222,2466,1,0,7,1.1366885529959678
undo,48,11,0,0,0,0,[0],1,25,"[1, 2, 3, 4, 5, 6, 8, 9, 10, 11, 12, 13, 14, 15, 16, 17, 18, 19, 20, 22, 23, 25, 26, 27, 28]",300,148,-1,6,374,12,0.0
undo,48,11,0,0,0,18,"[0, 18]",2,21,"[1, 2, 4, 5, 6, 8, 9, 11, 12, 13, 14, 15, 16, 17, 19, 20, 22, 23, 25, 27, 28]",236.8493864,7008,6860,157,1477,11,1.0
undo,48,11,0,0,0,27,"[0, 18, 27]",3,19,"[1, 2, 4, 5, 6, 8, 9, 11, 12, 14, 15, 16, 17, 19, 20, 22, 23, 25, 28]",212.9956655,7757,749,157,1315,11,1.060949579704323
undo,48,11,0,0,0,8,"[0, 18, 27, 8]",4,14,"[1, 2, 4, 5, 6, 11, 12, 15, 17, 19, 22, 23, 25, 28]",142.7817068,11035,3278,68,433,11,1.0827202875589923
undo,48,11,0,0,0,17,"[0, 18, 27, 8, 17]",5,13,"[1, 2, 4, 5, 6, 11, 12, 15, 19, 22, 23, 25, 28]",128.4638857,12633,1598,42,137,11,1.1662918234607762
undo,48,11,0,0,0,15,"[0, 18, 27, 8, 17, 15]",6,9,"[2, 5, 6, 11, 12, 19, 22, 25, 28]",115.8147751,14549,1916,38,57,11,1.1741312027420885
undo,48,11,0,0,0,11,"[0, 18, 27, 8, 17, 15, 11]",7,7,"[2, 5, 6, 12, 19, 22, 28]",97.70400479,15217,668,24,0,11,1.1668679039564056
undo,48,11,0,0,0,28,"[0, 18, 27, 8, 17, 15, 11, 28]",8,4,"[2, 5, 19, 22]",78.28751696,16465,1248,6,0,11,1.2830334294205898
undo,48,11,0,0,0,5,"[0, 18, 27, 8, 17, 15, 11, 28, 5]",9,2,"[2, 22]",60.39897314,17702,1237,2,0,11,1.472719061667125
undo,48,11,0,0,0,2,"[0, 18, 27, 8, 17, 15, 11, 28, 5, 2]",10,1,[22],43.39897314,18921,1219,1,0,11,1.437636650715907
undo,48,11,0,0,1,22,"[0, 18, 27, 8, 17, 15, 11, 28, 5, 2, 22]",11,0,[],33.34909751,19944,1023,1,0,11,1.414339916866727
undo,48,11,0,1,1,22,"[0, 18, 27, 8, 17, 15, 11, 28, 5, 2, 22]",11,0,[],33.34909751,26703,6759,1,0,11,1.414339916866727
undo,49,4,0,0,0,0,[0],1,26,"[3, 4, 5, 6, 7, 8, 10, 11, 12, 13, 14, 15, 16, 17, 18, 19, 20, 21, 22, 23, 24, 25, 26, 27, 28, 29]",300,272,-1,4,489,10,0.0
undo,49,4,0,0,0,28,"[0, 28]",2,21,"[3, 4, 5, 6, 10, 11, 12, 13, 14, 15, 16, 17, 19, 20, 21, 22, 23, 24, 25, 26, 27]",225.9392142,6346,6074,2,216,10,1.0
undo,49,4,0,0,0,14,"[0, 28, 14]",3,13,"[3, 4, 5, 6, 11, 13, 16, 17, 20, 21, 22, 24, 25]",159.6972335,8236,1890,1,26,10,1.0273973946789214
undo,49,4,0,0,0,25,"[0, 28, 14, 25]",4,12,"[3, 4, 5, 6, 11, 13, 16, 17, 20, 21, 22, 24]",143.572718,8950,714,1,25,10,1.233547772313525
undo,49,4,0,0,0,11,"[0, 28, 14, 25, 11]",5,10,"[3, 4, 5, 6, 13, 16, 17, 20, 21, 22]",124.7844238,10257,1307,1,15,10,1.425978575879479
undo,49,4,0,0,0,16,"[0, 28, 14, 25, 11, 16]",6,9,"[3, 4, 5, 6, 13, 17, 20, 21, 22]",109.7844238,11569,1312,1,12,10,1.3799325158051412
undo,49,4,0,0,0,3,"[0, 28, 14, 25, 11, 16, 3]",7,2,"[17, 20]",68.15510719,13523,1954,1,1,9,1.3292844629725955
undo,49,4,0,0,0,17,"[0, 28, 14, 25, 11, 16, 3, 17]",8,1,[20],43.63980585,14462,939,1,0,9,1.5639571149270572
undo,49,4,0,0,1,20,"[0, 28, 14, 25, 11, 16, 3, 17, 20]",9,0,[],3.415435124,15591,1129,1,0,9,1.6231058358944275
undo,49,4,0,1,1,20,"[0, 28, 14, 25, 11, 16, 3, 17, 20]",9,0,[],3.415435124,18536,2945,1,0,9,1.6231058358944275
undo,50,6,0,0,0,0,[0],1,29,"[1, 2, 3, 4, 5, 6, 7, 8, 9, 10, 11, 12, 13, 14, 15, 16, 17, 18, 19, 20, 21, 22, 23, 24, 25, 26, 27, 28, 29]",300,286,-1,180,4304,10,0.0
undo,50,6,0,0,0,26,"[0, 26]",2,25,"[1, 2, 3, 4, 5, 6, 7, 8, 9, 10, 11, 12, 13, 14, 15, 16, 17, 18, 20, 21, 22, 23, 24, 27, 29]",250.2606795,5817,5531,45,776,10,1.0
undo,50,6,0,0,0,2,"[0, 26, 2]",3,20,"[1, 3, 4, 5, 6, 7, 8, 9, 10, 13, 14, 16, 17, 18, 21, 22, 23, 24, 27, 29]",220.4278118,7879,2062,20,184,10,1.003152463832065
undo,50,6,0,0,0,7,"[0, 26, 2, 7]",4,18,"[1, 3, 4, 6, 8, 9, 10, 13, 14, 16, 17, 18, 21, 22, 23, 24, 27, 29]",179.3182022,9215,1336,20,157,10,2.5131135963314413
undo,50,6,0,0,0,3,"[0, 26, 2, 7, 3]",5,13,"[1, 6, 8, 10, 13, 16, 17, 18, 21, 22, 23, 24, 29]",143.1795802,10234,1019,18,67,10,4.677560963942129
undo,50,6,0,0,0,16,"[0, 26, 2, 7, 3, 16]",6,9,"[6, 10, 13, 17, 18, 22, 23, 24, 29]",96.94106809,12382,2148,3,11,10,2.8132170172709676
undo,50,6,0,0,0,18,"[0, 26, 2, 7, 3, 16, 18]",7,4,"[10, 17, 24, 29]",73.59583303,13652,1270,2,4,10,3.7175429872148276
undo,50,6,0,0,0,17,"[0, 26, 2, 7, 3, 16, 18, 17]",8,2,"[10, 24]",59.66744475,14780,1128,2,0,10,3.4052918038285505
undo,50,6,0,0,0,10,"[0, 26, 2, 7, 3, 16, 18, 17, 10]",9,1,[24],39.94436183,16765,1985,1,0,10,3.0832542837647017
undo,50,6,0,0,1,24,"[0, 26, 2, 7, 3, 16, 18, 17, 10, 24]",10,0,[],26.52795396,17674,909,1,0,10,2.8107983495160362
undo,50,6,0,1,1,24,"[0, 26, 2, 7, 3, 16, 18, 17, 10, 24]",10,0,[],26.52795396,20412,2738,1,0,10,2.8107983495160362
undo,51,31,0,0,0,0,[0],1,27,"[1, 3, 4, 5, 6, 7, 8, 10, 11, 12, 13, 14, 15, 16, 17, 18, 19, 20, 21, 22, 23, 24, 25, 26, 27, 28, 29]",300,265,-1,2,87,10,0.0
undo,51,31,0,0,0,14,"[0, 14]",2,25,"[1, 3, 5, 6, 7, 8, 10, 11, 12, 13, 15, 16, 17, 18, 19, 20, 21, 22, 23, 24, 25, 26, 27, 28, 29]",263.861378,3755,3490,2,59,10,1.0
undo,51,31,0,0,0,27,"[0, 14, 27]",3,22,"[1, 3, 5, 6, 7, 8, 10, 11, 12, 13, 15, 16, 17, 18, 19, 20, 21, 22, 24, 25, 28, 29]",235.6833724,6318,2563,1,39,10,1.5881859159302467
undo,51,31,0,0,0,8,"[0, 14, 27, 8]",4,20,"[1, 3, 5, 6, 7, 10, 11, 12, 13, 16, 17, 18, 19, 20, 21, 22, 24, 25, 28, 29]",224.6380114,8177,1859,1,36,10,2.1665048452331277
undo,51,31,0,0,0,18,"[0, 14, 27, 8, 18]",5,15,"[1, 5, 6, 7, 11, 12, 13, 16, 17, 19, 20, 22, 25, 28, 29]",188.7911147,10720,2543,1,26,10,1.7273375741920205
undo,51,31,0,0,0,17,"[0, 14, 27, 8, 18, 17]",6,13,"[1, 5, 6, 7, 11, 12, 13, 16, 19, 20, 22, 25, 28]",159.584951,12506,1786,1,13,10,1.551192427769927
undo,51,31,0,0,0,11,"[0, 14, 27, 8, 18, 17, 11]",7,7,"[5, 12, 16, 19, 22, 25, 28]",118.4753414,15215,2709,1,4,10,2.9650760544203494
undo,51,31,0,0,0,5,"[0, 14, 27, 8, 18, 17, 11, 5]",8,2,"[16, 28]",74.79468207,17340,2125,1,1,10,2.56711965625205
undo,51,31,0,0,0,28,"[0, 14, 27, 8, 18, 17, 11, 5, 28]",9,1,[16],54.57093365,18923,1583,1,0,10,2.2865510762058148
undo,51,31,0,0,1,16,"[0, 14, 27, 8, 18, 17, 11, 5, 28, 16]",10,0,[],20.95546102,19972,1049,1,0,10,2.089356850786318
undo,51,31,0,1,1,16,"[0, 14, 27, 8, 18, 17, 11, 5, 28, 16]",10,0,[],20.95546102,21327,1355,1,0,10,2.089356850786318
undo,52,3,0,0,0,0,[0],1,29,"[1, 2, 3, 4, 5, 6, 7, 8, 9, 10, 11, 12, 13, 14, 15, 16, 17, 18, 19, 20, 21, 22, 23, 24, 25, 26, 27, 28, 29]",300,145,-1,34,427,10,0.0
undo,52,3,0,0,0,15,"[0, 15]",2,28,"[1, 2, 3, 4, 5, 6, 7, 8, 9, 10, 11, 12, 13, 14, 16, 17, 18, 19, 20, 21, 22, 23, 24, 25, 26, 27, 28, 29]",268.1723391,4828,4683,8,84,10,1.0
undo,52,3,0,0,0,7,"[0, 15, 7]",3,27,"[1, 2, 3, 4, 5, 6, 8, 9, 10, 11, 12, 13, 14, 16, 17, 18, 19, 20, 21, 22, 23, 24, 25, 26, 27, 28, 29]",238.1057463,6613,1785,8,69,10,2.9209704282891646
undo,52,3,0,0,0,8,"[0, 15, 7, 8]",4,18,"[3, 4, 5, 6, 10, 11, 14, 16, 17, 18, 19, 20, 21, 22, 24, 26, 27, 28]",182.1325384,7904,1291,6,40,10,1.9633672365780177
undo,52,3,0,0,0,24,"[0, 15, 7, 8, 24]",5,14,"[3, 4, 5, 10, 14, 16, 17, 18, 19, 20, 21, 22, 26, 27]",169.9670134,10221,2317,6,34,10,2.209350379748608
undo,52,3,0,0,0,17,"[0, 15, 7, 8, 24, 17]",6,5,"[3, 14, 19, 20, 21]",100.6128498,12651,2430,3,7,10,1.9489773900408984
undo,52,3,0,0,0,20,"[0, 15, 7, 8, 24, 17, 20]",7,4,"[3, 14, 19, 21]",87.9637392,13679,1028,3,4,10,1.872837097405716
undo,52,3,0,0,0,3,"[0, 15, 7, 8, 24, 17, 20, 3]",8,3,"[14, 19, 21]",67.56766115,14799,1120,3,1,10,1.8579729265349425
undo,52,3,0,0,0,19,"[0, 15, 7, 8, 24, 17, 20, 3, 19]",9,2,"[14, 21]",30.23135174,20305,5506,2,0,10,1.8279425324472436
undo,52,3,0,0,1,21,"[0, 15, 7, 8, 24, 17, 20, 3, 19, 21]",10,0,[],18.02479613,21300,995,1,0,10,1.8337547852117746
undo,52,3,0,1,1,21,"[0, 15, 7, 8, 24, 17, 20, 3, 19, 21]",10,0,[],18.02479613,23141,1841,1,0,10,1.8337547852117746
undo,53,37,0,0,0,0,[0],1,29,"[1, 2, 3, 4, 5, 6, 7, 8, 9, 10, 11, 12, 13, 14, 15, 16, 17, 18, 19, 20, 21, 22, 23, 24, 25, 26, 27, 28, 29]",300,160,-1,6,168,10,0.0
undo,53,37,0,0,0,18,"[0, 18]",2,19,"[1, 2, 4, 6, 7, 9, 10, 12, 14, 15, 17, 19, 20, 21, 22, 23, 26, 28, 29]",202.4090168,3986,3826,6,89,10,1.0
undo,53,37,0,0,0,7,"[0, 18, 7]",3,12,"[1, 2, 4, 9, 15, 17, 19, 20, 21, 22, 26, 29]",175.2428614,4905,919,6,53,10,1.0413073512834488
undo,53,37,0,0,0,22,"[0, 18, 7, 22]",4,8,"[1, 2, 4, 15, 19, 20, 21, 26]",125.2428614,6259,1354,6,29,10,1.0730792320325544
undo,53,37,0,0,0,4,"[0, 18, 7, 22, 4]",5,7,"[1, 2, 15, 19, 20, 21, 26]",100.2428614,7174,915,4,16,10,1.2290245562206235
undo,53,37,0,0,0,2,"[0, 18, 7, 22, 4, 2]",6,5,"[1, 15, 19, 20, 21]",88.84110714,8654,1480,4,7,10,1.3968113858365216
undo,53,37,0,0,0,1,"[0, 18, 7, 22, 4, 2, 1]",7,4,"[15, 19, 20, 21]",71.63645661,10820,2166,4,3,10,1.4424239294761476
undo,53,37,0,0,0,20,"[0, 18, 7, 22, 4, 2, 1, 20]",8,3,"[15, 19, 21]",37.40197107,13844,3024,2,1,10,1.7518607796010042
undo,53,37,0,0,0,15,"[0, 18, 7, 22, 4, 2, 1, 20, 15]",9,1,[21],20.40197107,16997,3153,1,0,10,1.680305745239285
undo,53,37,0,0,1,21,"[0, 18, 7, 22, 4, 2, 1, 20, 15, 21]",10,0,[],5.401971073,21909,4912,1,0,10,1.8982635624510946
undo,53,37,0,1,1,21,"[0, 18, 7, 22, 4, 2, 1, 20, 15, 21]",10,0,[],5.401971073,23830,1921,1,0,10,1.8982635624510946
undo,54,33,0,0,0,0,[0],1,23,"[1, 2, 5, 7, 8, 11, 12, 13, 14, 15, 16, 17, 18, 19, 20, 21, 23, 24, 25, 26, 27, 28, 29]",300,140,-1,5,108,9,0.0
undo,54,33,0,0,0,21,"[0, 21]",2,17,"[2, 5, 7, 8, 11, 13, 14, 16, 17, 18, 19, 20, 24, 26, 27, 28, 29]",174.4611614,5504,5364,21,129,8,1.0
undo,54,33,0,0,0,13,"[0, 21, 13]",3,15,"[2, 5, 7, 8, 11, 14, 16, 17, 18, 19, 20, 24, 26, 28, 29]",148.0604038,6702,1198,17,72,8,1.0001005298764474
undo,54,33,0,0,0,19,"[0, 21, 13, 19]",4,11,"[7, 11, 14, 16, 17, 18, 20, 24, 26, 28, 29]",122.5653063,7488,786,10,27,8,1.0588446738393702
undo,54,33,0,0,0,24,"[0, 21, 13, 19, 24]",5,7,"[7, 14, 16, 18, 26, 28, 29]",80.51771417,8591,1103,3,5,8,1.078006777679028
undo,54,33,0,0,0,7,"[0, 21, 13, 19, 24, 7]",6,3,"[14, 26, 29]",51.31155044,10466,1875,3,1,8,1.1669985062633954
undo,54,33,0,0,0,14,"[0, 21, 13, 19, 24, 7, 14]",7,2,"[26, 29]",36.44548169,11589,1123,2,0,8,1.2148465775488593
undo,54,33,0,0,1,26,"[0, 21, 13, 19, 24, 7, 14, 26]",8,0,[],23.79637105,13719,2130,1,0,8,1.2208379656544521
undo,54,33,0,1,1,26,"[0, 21, 13, 19, 24, 7, 14, 26]",8,0,[],23.79637105,15724,2005,1,0,8,1.2208379656544521
undo,55,41,0,0,0,0,[0],1,29,"[1, 2, 3, 4, 5, 6, 7, 8, 9, 10, 11, 12, 13, 14, 15, 16, 17, 18, 19, 20, 21, 22, 23, 24, 25, 26, 27, 28, 29]",300,148,-1,1,143,10,0.0
undo,55,41,0,0,0,13,"[0, 13]",2,23,"[1, 2, 3, 5, 6, 7, 9, 10, 11, 12, 14, 15, 17, 18, 19, 20, 21, 22, 24, 25, 26, 27, 28]",258.2747079,3726,3578,1,55,10,1.0
undo,55,41,0,0,0,28,"[0, 13, 28]",3,22,"[1, 2, 3, 5, 6, 7, 9, 10, 11, 12, 14, 15, 17, 18, 19, 20, 21, 22, 24, 25, 26, 27]",223.7928286,5118,1392,1,39,10,1.895724242592676
undo,55,41,0,0,0,5,"[0, 13, 28, 5]",4,19,"[1, 2, 3, 6, 9, 10, 11, 12, 14, 15, 17, 18, 19, 20, 21, 22, 24, 25, 27]",210.1913581,6306,1188,1,34,10,2.861541269398273
undo,55,41,0,0,0,3,"[0, 13, 28, 5, 3]",5,16,"[1, 2, 6, 9, 10, 12, 14, 17, 18, 19, 20, 21, 22, 24, 25, 27]",175.3632086,8111,1805,1,22,10,3.1455488489005883
undo,55,41,0,0,0,22,"[0, 13, 28, 5, 3, 22]",6,10,"[2, 6, 9, 10, 12, 17, 18, 20, 21, 25]",145.3965604,9279,1168,1,7,10,2.241807041008432
undo,55,41,0,0,0,21,"[0, 13, 28, 5, 3, 22, 21]",7,4,"[2, 9, 12, 17]",94.39656044,10215,936,1,5,10,4.206513633906409
undo,55,41,0,0,0,17,"[0, 13, 28, 5, 3, 22, 21, 17]",8,2,"[2, 9]",42.73419503,12862,2647,2,0,9,4.058607921387277
undo,55,41,0,0,1,9,"[0, 13, 28, 5, 3, 22, 21, 17, 9]",9,0,[],11.71807019,14570,1708,1,0,9,3.503151712655469
undo,55,41,0,1,1,9,"[0, 13, 28, 5, 3, 22, 21, 17, 9]",9,0,[],11.71807019,20474,5904,1,0,9,3.503151712655469
undo,56,14,0,0,0,0,[0],1,29,"[1, 2, 3, 4, 5, 6, 7, 8, 9, 10, 11, 12, 13, 14, 15, 16, 17, 18, 19, 20, 21, 22, 23, 24, 25, 26, 27, 28, 29]",300,161,-1,8,157,10,0.0
undo,56,14,0,0,0,15,"[0, 15]",2,20,"[1, 2, 3, 4, 7, 8, 9, 13, 17, 18, 19, 20, 21, 22, 23, 25, 26, 27, 28, 29]",216.7053423,4276,4115,8,102,10,1.0
undo,56,14,0,0,0,28,"[0, 15, 28]",3,17,"[1, 2, 3, 4, 7, 8, 9, 13, 17, 18, 19, 20, 22, 23, 25, 26, 27]",197.4959696,5405,1129,8,48,10,1.0446007867311968
undo,56,14,0,0,0,17,"[0, 15, 28, 17]",4,14,"[1, 2, 3, 4, 7, 8, 13, 18, 19, 20, 22, 23, 25, 26]",184.0423455,6346,941,8,39,10,1.0729463354689972
undo,56,14,0,0,0,18,"[0, 15, 28, 17, 18]",5,9,"[1, 2, 4, 7, 8, 19, 23, 25, 26]",119.412631,7714,1368,8,27,10,1.5035901079219378
undo,56,14,0,0,0,8,"[0, 15, 28, 17, 18, 8]",6,8,"[1, 2, 4, 7, 19, 23, 25, 26]",105.8111605,8841,1127,8,18,10,1.4819689987843856
undo,56,14,0,0,0,1,"[0, 15, 28, 17, 18, 8, 1]",7,5,"[7, 19, 23, 25, 26]",82.21031307,11277,2436,4,6,10,1.4084991998385268
undo,56,14,0,0,0,19,"[0, 15, 28, 17, 18, 8, 1, 19]",8,4,"[7, 23, 25, 26]",66.97876686,12926,1649,4,1,10,1.5758713333797987
undo,56,14,0,0,0,26,"[0, 15, 28, 17, 18, 8, 1, 19, 26]",9,1,[23],13.75283333,15714,2788,1,0,10,1.4427883209195413
undo,56,14,0,0,1,23,"[0, 15, 28, 17, 18, 8, 1, 19, 26, 23]",10,0,[],2.936179503,18503,2789,1,0,10,1.5803726510701064
undo,56,14,0,1,1,23,"[0, 15, 28, 17, 18, 8, 1, 19, 26, 23]",10,0,[],2.936179503,22932,4429,1,0,10,1.5803726510701064
undo,57,21,0,0,0,0,[0],1,29,"[1, 2, 3, 4, 5, 6, 7, 8, 9, 10, 11, 12, 13, 14, 15, 16, 17, 18, 19, 20, 21, 22, 23, 24, 25, 26, 27, 28, 29]",300,281,-1,84,830,9,0.0
undo,57,21,0,0,0,20,"[0, 20]",2,28,"[1, 2, 3, 4, 5, 6, 7, 8, 9, 10, 11, 12, 13, 14, 15, 16, 17, 18, 19, 21, 22, 23, 24, 25, 26, 27, 28, 29]",217.6228187,5930,5649,6,67,9,1.0
undo,57,21,0,0,0,22,"[0, 20, 22]",3,23,"[2, 4, 6, 7, 8, 9, 10, 11, 12, 13, 14, 15, 16, 17, 18, 19, 21, 23, 24, 25, 26, 27, 29]",189.3916303,7305,1375,6,47,9,1.3451865712078994
undo,57,21,0,0,0,18,"[0, 20, 22, 18]",4,20,"[2, 4, 6, 7, 8, 9, 10, 11, 12, 14, 15, 16, 17, 21, 23, 24, 25, 26, 27, 29]",162.9908727,8910,1605,4,25,9,2.3191924394507706
undo,57,21,0,0,0,29,"[0, 20, 22, 18, 29]",5,16,"[2, 4, 6, 7, 8, 10, 12, 14, 15, 16, 17, 21, 23, 24, 25, 27]",134.3377751,10408,1498,2,10,9,1.9554738681863184
undo,57,21,0,0,0,25,"[0, 20, 22, 18, 29, 25]",6,5,"[4, 14, 17, 21, 23]",89.11609892,11892,1484,2,5,9,3.5255206171255487
undo,57,21,0,0,0,23,"[0, 20, 22, 18, 29, 25, 23]",7,3,"[4, 14, 21]",45.79174087,13348,1456,1,2,9,2.5672363743380044
undo,57,21,0,0,0,14,"[0, 20, 22, 18, 29, 25, 23, 14]",8,1,[4],16.72285717,16866,3518,1,0,9,2.4731167331439745
undo,57,21,0,0,1,4,"[0, 20, 22, 18, 29, 25, 23, 14, 4]",9,0,[],2.580721543,19116,2250,1,0,9,2.3252918316977027
undo,57,21,0,1,1,4,"[0, 20, 22, 18, 29, 25, 23, 14, 4]",9,0,[],2.580721543,22270,3154,1,0,9,2.3252918316977027
undo,58,43,0,0,0,0,[0],1,23,"[1, 2, 3, 4, 5, 6, 7, 9, 10, 11, 12, 14, 15, 16, 17, 19, 20, 21, 22, 23, 25, 27, 29]",300,304,-1,16,556,12,0.0
undo,58,43,0,0,0,29,"[0, 29]",2,22,"[1, 2, 3, 4, 5, 6, 7, 9, 10, 11, 12, 14, 15, 16, 17, 19, 20, 21, 22, 23, 25, 27]",277.909278,3166,2862,16,520,12,1.0
undo,58,43,0,0,0,20,"[0, 29, 20]",3,20,"[1, 2, 3, 4, 6, 7, 9, 10, 11, 12, 14, 15, 16, 17, 19, 21, 22, 23, 25, 27]",254.4785289,3834,668,15,422,12,1.082311746871282
undo,58,43,0,0,0,16,"[0, 29, 20, 16]",4,19,"[1, 2, 3, 4, 6, 7, 9, 10, 11, 12, 14, 15, 17, 19, 21, 22, 23, 25, 27]",231.8511119,4668,834,15,389,12,1.215201926898219
undo,58,43,0,0,0,15,"[0, 29, 20, 16, 15]",5,14,"[1, 2, 3, 4, 6, 7, 9, 11, 12, 14, 19, 22, 23, 25]",188.5267539,6549,1881,3,109,12,1.3482474915350444
undo,58,43,0,0,0,25,"[0, 29, 20, 16, 15, 25]",6,12,"[1, 3, 4, 6, 7, 9, 11, 12, 14, 19, 22, 23]",165.8551858,7383,834,2,43,12,1.691408721191545
undo,58,43,0,0,0,12,"[0, 29, 20, 16, 15, 25, 12]",7,11,"[1, 3, 4, 6, 7, 9, 11, 14, 19, 22, 23]",141.6684126,9631,2248,2,32,12,1.6015983641428178
undo,58,43,0,0,0,3,"[0, 29, 20, 16, 15, 25, 12, 3]",8,10,"[1, 4, 6, 7, 9, 11, 14, 19, 22, 23]",128.6684126,11043,1412,2,24,12,1.5379830456120627
undo,58,43,0,0,0,19,"[0, 29, 20, 16, 15, 25, 12, 3, 19]",9,6,"[1, 4, 6, 7, 11, 22]",87.55880297,12522,1479,1,10,12,1.529185197301008
undo,58,43,0,0,0,1,"[0, 29, 20, 16, 15, 25, 12, 3, 19, 1]",10,4,"[6, 7, 11, 22]",59.38079736,14295,1773,4,0,11,1.671531050980484
undo,58,43,0,0,1,22,"[0, 29, 20, 16, 15, 25, 12, 3, 19, 1, 22]",11,0,[],27.99608771,16553,2258,1,0,11,2.280599438683489
undo,58,43,0,1,1,22,"[0, 29, 20, 16, 15, 25, 12, 3, 19, 1, 22]",11,0,[],27.99608771,21697,5144,1,0,11,2.280599438683489
undo,59,24,0,0,0,0,[0],1,29,"[1, 2, 3, 4, 5, 6, 7, 8, 9, 10, 11, 12, 13, 14, 15, 16, 17, 18, 19, 20, 21, 22, 23, 24, 25, 26, 27, 28, 29]",300,151,-1,4,76,10,0.0
undo,59,24,0,0,0,29,"[0, 29]",2,27,"[2, 3, 4, 5, 6, 7, 8, 9, 10, 11, 12, 13, 14, 15, 16, 17, 18, 19, 20, 21, 22, 23, 24, 25, 26, 27, 28]",245.594118,3279,3128,5,65,9,1.0
undo,59,24,0,0,0,16,"[0, 29, 16]",3,21,"[2, 3, 4, 6, 8, 9, 10, 11, 13, 14, 15, 17, 18, 19, 22, 23, 24, 25, 26, 27, 28]",171.3782167,4388,1109,5,51,9,1.4348105541987206
undo,59,24,0,0,0,22,"[0, 29, 16, 22]",4,16,"[2, 3, 4, 6, 8, 9, 10, 11, 14, 15, 17, 23, 24, 26, 27, 28]",153.3504603,6112,1724,4,31,9,1.3916224386076739
undo,59,24,0,0,0,8,"[0, 29, 16, 22, 8]",5,13,"[3, 4, 6, 9, 10, 11, 14, 15, 23, 24, 26, 27, 28]",139.9340525,7549,1437,2,13,9,1.4536440537404858
undo,59,24,0,0,0,15,"[0, 29, 16, 22, 8, 15]",6,8,"[3, 4, 6, 9, 11, 23, 26, 28]",109.047162,8991,1442,1,3,9,1.5963255894510096
undo,59,24,0,0,0,28,"[0, 29, 16, 22, 8, 15, 28]",7,2,"[11, 23]",63.77023635,10382,1391,1,1,9,1.4349671441965541
undo,59,24,0,0,0,23,"[0, 29, 16, 22, 8, 15, 28, 23]",8,1,[11],44.74393876,13406,3024,1,0,9,1.4487992470982323
undo,59,24,0,0,1,11,"[0, 29, 16, 22, 8, 15, 28, 23, 11]",9,0,[],17.81811472,14927,1521,1,0,9,1.4048465478250574
undo,59,24,0,1,1,11,"[0, 29, 16, 22, 8, 15, 28, 23, 11]",9,0,[],17.81811472,16787,1860,1,0,9,1.4048465478250574
undo,60,28,0,0,0,0,[0],1,27,"[1, 2, 3, 4, 5, 6, 7, 8, 9, 10, 11, 12, 13, 14, 15, 16, 17, 18, 19, 20, 22, 23, 25, 26, 27, 28, 29]",300,162,-1,2,96,9,0.0
undo,60,28,0,0,0,3,"[0, 3]",2,26,"[1, 2, 4, 5, 6, 7, 8, 9, 10, 11, 12, 13, 14, 15, 16, 17, 18, 19, 20, 22, 23, 25, 26, 27, 28, 29]",251.0817008,3256,3094,1,64,9,1.0
undo,60,28,0,0,0,5,"[0, 3, 5]",3,20,"[2, 4, 6, 7, 8, 9, 10, 11, 12, 13, 14, 15, 18, 19, 20, 23, 25, 26, 28, 29]",166.9865166,4241,985,1,34,9,1.0203769473612083
undo,60,28,0,0,0,26,"[0, 3, 5, 26]",4,13,"[2, 4, 7, 8, 9, 12, 13, 14, 18, 19, 20, 25, 28]",134.2298379,5296,1055,1,28,9,1.0315203228799597
undo,60,28,0,0,0,2,"[0, 3, 5, 26, 2]",5,10,"[4, 7, 8, 9, 12, 13, 18, 19, 25, 28]",93.86896575,6117,821,7,13,8,1.027257996419408
undo,60,28,0,0,0,19,"[0, 3, 5, 26, 2, 19]",6,4,"[7, 12, 13, 18]",56.50588236,9214,3097,4,1,8,1.3335988625919608
undo,60,28,0,0,0,7,"[0, 3, 5, 26, 2, 19, 7]",7,2,"[12, 13]",28.77503312,11114,1900,2,0,8,1.3845940052005818
undo,60,28,0,0,1,12,"[0, 3, 5, 26, 2, 19, 7, 12]",8,0,[],15.62208668,12276,1162,1,0,8,1.380328942242059
undo,60,28,1,0,0,7,"[0, 3, 5, 26, 2, 19, 7]",7,2,"[12, 13]",28.77503312,16848,4572,2,0,8,1.3845940052005818
undo,60,28,1,0,0,19,"[0, 3, 5, 26, 2, 19]",6,4,"[7, 12, 13, 18]",56.50588236,17307,459,4,1,8,1.3335988625919608
undo,60,28,1,0,0,2,"[0, 3, 5, 26, 2]",5,10,"[4, 7, 8, 9, 12, 13, 18, 19, 25, 28]",93.86896575,17744,437,7,13,8,1.027257996419408
undo,60,28,1,0,0,26,"[0, 3, 5, 26]",4,13,"[2, 4, 7, 8, 9, 12, 13, 14, 18, 19, 20, 25, 28]",134.2298379,18952,1208,1,28,9,1.0315203228799597
undo,60,28,0,0,0,19,"[0, 3, 5, 26, 19]",5,7,"[2, 7, 9, 12, 13, 14, 18]",93.22983789,23132,4180,1,17,9,1.1324645362297356
undo,60,28,0,0,0,7,"[0, 3, 5, 26, 19, 7]",6,5,"[2, 12, 13, 14, 18]",65.49898864,24112,980,1,6,9,1.1971194919020265
undo,60,28,0,0,0,12,"[0, 3, 5, 26, 19, 7, 12]",7,2,"[13, 18]",52.3460422,25610,1498,1,1,9,1.2020762147848982
undo,60,28,0,0,0,13,"[0, 3, 5, 26, 19, 7, 12, 13]",8,1,[18],35.14139167,26589,979,1,0,9,1.39005144078531
undo,60,28,0,0,1,18,"[0, 3, 5, 26, 19, 7, 12, 13, 18]",9,0,[],10.72828044,28302,1713,1,0,9,1.738787343626007
undo,60,28,0,1,1,18,"[0, 3, 5, 26, 19, 7, 12, 13, 18]",9,0,[],10.72828044,31869,3567,1,0,9,1.738787343626007
undo,61,42,0,0,0,0,[0],1,29,"[1, 2, 3, 4, 5, 6, 7, 8, 9, 10, 11, 12, 13, 14, 15, 16, 17, 18, 19, 20, 21, 22, 23, 24, 25, 26, 27, 28, 29]",300,301,-1,16,302,9,0.0
undo,61,42,0,0,0,22,"[0, 22]",2,27,"[1, 2, 3, 4, 5, 6, 7, 8, 9, 10, 11, 12, 13, 15, 16, 17, 18, 19, 20, 21, 23, 24, 25, 26, 27, 28, 29]",211.3997743,12860,12559,5,83,9,1.0
undo,61,42,0,0,0,4,"[0, 22, 4]",3,26,"[1, 2, 3, 5, 6, 7, 8, 9, 10, 11, 12, 13, 15, 16, 17, 18, 19, 20, 21, 23, 24, 25, 26, 27, 28, 29]",200.2194344,13901,1041,4,51,9,1.1029012260448476
undo,61,42,0,0,0,5,"[0, 22, 4, 5]",4,24,"[1, 2, 3, 6, 7, 8, 9, 10, 11, 12, 13, 15, 17, 18, 19, 20, 21, 23, 24, 25, 26, 27, 28, 29]",180.3700011,16424,2523,3,22,9,1.1004909640339868
undo,61,42,0,0,0,8,"[0, 22, 4, 5, 8]",5,16,"[1, 2, 3, 6, 7, 11, 15, 18, 19, 23, 24, 25, 26, 27, 28, 29]",145.8881218,17342,918,3,12,9,1.4333663223483832
undo,61,42,0,0,0,1,"[0, 22, 4, 5, 8, 1]",6,6,"[2, 7, 18, 19, 26, 27]",96.796371,18569,1227,3,7,9,1.3048950637395882
undo,61,42,0,0,0,7,"[0, 22, 4, 5, 8, 1, 7]",7,4,"[2, 19, 26, 27]",66.796371,19613,1044,3,2,9,1.3461774355793397
undo,61,42,0,0,0,26,"[0, 22, 4, 5, 8, 1, 7, 26]",8,2,"[19, 27]",40.22571049,20889,1276,2,0,9,1.3119913611616163
undo,61,42,0,0,1,27,"[0, 22, 4, 5, 8, 1, 7, 26, 27]",9,0,[],22.19795412,22615,1726,1,0,9,1.3027999653776734
undo,61,42,0,1,1,27,"[0, 22, 4, 5, 8, 1, 7, 26, 27]",9,0,[],22.19795412,24391,1776,1,0,9,1.3027999653776734
undo,62,32,0,0,0,0,[0],1,29,"[1, 2, 3, 4, 5, 6, 7, 8, 9, 10, 11, 12, 13, 14, 15, 16, 17, 18, 19, 20, 21, 22, 23, 24, 25, 26, 27, 28, 29]",300,148,-1,17,359,10,0.0
undo,62,32,0,0,0,19,"[0, 19]",2,28,"[1, 2, 3, 4, 5, 6, 7, 8, 9, 10, 11, 12, 13, 14, 15, 16, 17, 18, 20, 21, 22, 23, 24, 25, 26, 27, 28, 29]",283.5075775,6718,6570,16,294,10,1.0
undo,62,32,0,0,0,13,"[0, 19, 13]",3,24,"[2, 3, 4, 5, 6, 8, 9, 10, 11, 12, 14, 15, 16, 17, 18, 20, 21, 22, 23, 24, 25, 26, 27, 28]",260.3127505,8177,1459,14,227,10,1.0172874229878615
undo,62,32,0,0,0,15,"[0, 19, 13, 15]",4,18,"[2, 3, 5, 8, 9, 10, 11, 12, 16, 17, 20, 22, 23, 24, 25, 26, 27, 28]",177.4393531,10029,1852,9,116,10,1.435447391509833
undo,62,32,0,0,0,28,"[0, 19, 13, 15, 28]",5,17,"[2, 3, 5, 8, 9, 10, 11, 12, 16, 17, 20, 22, 23, 24, 25, 26, 27]",166.0375988,11631,1602,9,70,10,1.3843701324937985
undo,62,32,0,0,0,12,"[0, 19, 13, 15, 28, 12]",6,14,"[2, 3, 5, 8, 9, 10, 11, 16, 17, 20, 22, 24, 26, 27]",147.0639329,13786,2155,6,35,10,1.358372254952329
undo,62,32,0,0,0,16,"[0, 19, 13, 15, 28, 12, 16]",7,13,"[2, 3, 5, 8, 9, 10, 11, 17, 20, 22, 24, 26, 27]",131.411457,15241,1455,5,15,10,1.4356932930709845
undo,62,32,0,0,0,22,"[0, 19, 13, 15, 28, 12, 16, 22]",8,6,"[2, 8, 9, 17, 20, 27]",97.57360838,17217,1976,3,5,10,1.4335226411545752
undo,62,32,0,0,0,9,"[0, 19, 13, 15, 28, 12, 16, 22, 9]",9,3,"[2, 8, 20]",75.37000507,18053,836,3,0,10,1.4837166378374758
undo,62,32,0,0,1,20,"[0, 19, 13, 15, 28, 12, 16, 22, 9, 20]",10,0,[],12.72018464,22499,4446,1,0,10,1.420264208067807
undo,62,32,0,1,1,20,"[0, 19, 13, 15, 28, 12, 16, 22, 9, 20]",10,0,[],12.72018464,24413,1914,1,0,10,1.420264208067807
undo,63,12,0,0,0,0,[0],1,29,"[1, 2, 3, 4, 5, 6, 7, 8, 9, 10, 11, 12, 13, 14, 15, 16, 17, 18, 19, 20, 21, 22, 23, 24, 25, 26, 27, 28, 29]",300,167,-1,2,32,9,0.0
undo,63,12,0,0,0,6,"[0, 6]",2,28,"[1, 2, 3, 4, 5, 7, 8, 9, 10, 11, 12, 13, 14, 15, 16, 17, 18, 19, 20, 21, 22, 23, 24, 25, 26, 27, 28, 29]",283.5987805,3847,3680,2,18,9,1.0
undo,63,12,0,0,0,25,"[0, 6, 25]",3,13,"[2, 4, 5, 7, 12, 14, 16, 19, 22, 23, 24, 27, 28]",193.4599986,12991,9144,3,21,8,1.4358021344876182
undo,63,12,0,0,0,22,"[0, 6, 25, 22]",4,9,"[2, 4, 7, 12, 14, 16, 19, 24, 27]",121.2588906,14493,1502,4,10,7,2.031017839754873
undo,63,12,0,0,0,16,"[0, 6, 25, 22, 16]",5,4,"[4, 12, 19, 27]",100.2588906,15740,1247,3,2,7,2.2020152188081616
undo,63,12,0,0,0,4,"[0, 6, 25, 22, 16, 4]",6,2,"[12, 27]",66.05362787,16684,944,2,0,7,1.8729499758807084
undo,63,12,0,0,1,12,"[0, 6, 25, 22, 16, 4, 12]",7,0,[],23.86358165,18822,2138,1,0,7,1.6713148530252862
undo,63,12,0,1,1,12,"[0, 6, 25, 22, 16, 4, 12]",7,0,[],23.86358165,20852,2030,1,0,7,1.6713148530252862
undo,64,0,0,0,0,0,[0],1,27,"[2, 3, 4, 5, 6, 7, 8, 9, 10, 11, 12, 13, 14, 15, 16, 17, 19, 20, 21, 22, 23, 24, 25, 26, 27, 28, 29]",300,141,-1,104,1136,9,0.0
undo,64,0,0,0,0,5,"[0, 5]",2,24,"[2, 3, 4, 7, 8, 9, 11, 12, 13, 14, 15, 16, 17, 19, 20, 21, 22, 23, 24, 25, 26, 27, 28, 29]",164.5156836,6467,6326,5,112,9,1.0
undo,64,0,0,0,0,4,"[0, 5, 4]",3,20,"[2, 3, 7, 8, 9, 11, 12, 13, 14, 15, 17, 19, 20, 21, 22, 23, 24, 25, 26, 28]",139.4358112,11009,4542,4,61,9,1.0257023158632692
undo,64,0,0,0,0,26,"[0, 5, 4, 26]",4,18,"[3, 7, 8, 9, 11, 12, 13, 14, 15, 17, 19, 20, 21, 22, 23, 24, 25, 28]",127.3942166,12216,1207,4,26,9,1.0684029773259323
undo,64,0,0,0,0,12,"[0, 5, 4, 26, 12]",5,10,"[3, 7, 8, 13, 14, 15, 17, 23, 24, 28]",92.16638667,15140,2924,8,5,7,1.3321299114786043
undo,64,0,1,0,0,26,"[0, 5, 4, 26]",4,18,"[3, 7, 8, 9, 11, 12, 13, 14, 15, 17, 19, 20, 21, 22, 23, 24, 25, 28]",127.3942166,20038,4898,4,26,9,1.0684029773259323
undo,64,0,0,0,0,24,"[0, 5, 4, 26, 24]",5,12,"[3, 7, 8, 9, 11, 12, 15, 17, 19, 20, 23, 28]",110.2769738,22942,2904,4,16,9,1.1372083333602885
undo,64,0,0,0,0,15,"[0, 5, 4, 26, 24, 15]",6,8,"[3, 7, 8, 9, 11, 12, 17, 19]",86.93173875,24592,1650,4,7,9,1.1271717591548023
undo,64,0,0,0,0,8,"[0, 5, 4, 26, 24, 15, 8]",7,3,"[3, 7, 19]",47.81652432,28695,4103,1,2,9,1.1335949411162043
undo,64,0,0,0,0,7,"[0, 5, 4, 26, 24, 15, 8, 7]",8,1,[3],28.71155114,30136,1441,1,0,9,1.3232953120440094
undo,64,0,0,0,1,3,"[0, 5, 4, 26, 24, 15, 8, 7, 3]",9,0,[],4.628361986,32362,2226,1,0,9,1.3626652341047705
undo,64,0,0,1,1,3,"[0, 5, 4, 26, 24, 15, 8, 7, 3]",9,0,[],4.628361986,36996,4634,1,0,9,1.3626652341047705
undo,65,22,0,0,0,0,[0],1,29,"[1, 2, 3, 4, 5, 6, 7, 8, 9, 10, 11, 12, 13, 14, 15, 16, 17, 18, 19, 20, 21, 22, 23, 24, 25, 26, 27, 28, 29]",300,284,-1,31,704,9,0.0
undo,65,22,0,0,0,16,"[0, 16]",2,21,"[1, 3, 6, 7, 8, 9, 11, 13, 14, 15, 17, 18, 19, 20, 21, 22, 24, 25, 27, 28, 29]",218.605897,5716,5432,17,147,9,1.0
undo,65,22,0,0,0,28,"[0, 16, 28]",3,13,"[6, 7, 9, 13, 14, 17, 19, 20, 21, 22, 24, 25, 29]",184.1675463,6735,1019,12,61,9,1.047282311284478
undo,65,22,0,0,0,6,"[0, 16, 28, 6]",4,12,"[7, 9, 13, 14, 17, 19, 20, 21, 22, 24, 25, 29]",154.1675463,8422,1687,12,43,9,1.645645870580622
undo,65,22,0,0,0,9,"[0, 16, 28, 6, 9]",5,8,"[7, 14, 17, 19, 20, 21, 24, 29]",127.5404924,10379,1957,8,17,9,1.925750226630103
undo,65,22,0,0,0,19,"[0, 16, 28, 6, 9, 19]",6,6,"[7, 14, 17, 21, 24, 29]",107.1444143,13296,2917,3,7,9,2.4220750331476455
undo,65,22,0,0,0,29,"[0, 16, 28, 6, 9, 19, 29]",7,4,"[7, 14, 17, 24]",92.11111796,14798,1502,2,2,9,2.6996279574991067
undo,65,22,0,0,0,7,"[0, 16, 28, 6, 9, 19, 29, 7]",8,1,[14],41.0327468,16379,1581,1,0,9,2.059125386946491
undo,65,22,0,0,1,14,"[0, 16, 28, 6, 9, 19, 29, 7, 14]",9,0,[],27.99434199,17403,1024,1,0,9,2.0997569104205307
undo,65,22,0,1,1,14,"[0, 16, 28, 6, 9, 19, 29, 7, 14]",9,0,[],27.99434199,19137,1734,1,0,9,2.0997569104205307
undo,66,2,0,0,0,0,[0],1,23,"[1, 2, 4, 5, 6, 7, 8, 9, 12, 13, 15, 16, 17, 18, 19, 20, 22, 23, 25, 26, 27, 28, 29]",300,154,-1,70,620,10,0.0
undo,66,2,0,0,0,19,"[0, 19]",2,22,"[1, 2, 4, 5, 6, 7, 8, 9, 12, 13, 15, 16, 17, 18, 20, 22, 23, 25, 26, 27, 28, 29]",210.306076,5762,5608,67,431,10,1.0
undo,66,2,0,0,0,12,"[0, 19, 12]",3,17,"[1, 4, 5, 6, 7, 13, 15, 16, 17, 18, 20, 22, 25, 26, 27, 28, 29]",174.2921898,8052,2290,66,298,10,1.1107635036313153
undo,66,2,0,0,0,5,"[0, 19, 12, 5]",4,11,"[1, 6, 7, 13, 15, 16, 18, 22, 25, 26, 29]",144.7625437,9226,1174,38,136,10,1.0968174771581647
undo,66,2,0,0,0,22,"[0, 19, 12, 5, 22]",5,8,"[1, 6, 7, 13, 15, 18, 26, 29]",131.9562952,10384,1158,20,63,10,1.0889910507461968
undo,66,2,0,0,0,13,"[0, 19, 12, 5, 22, 13]",6,7,"[1, 6, 7, 15, 18, 26, 29]",117.0902265,11766,1382,19,20,10,1.236526217328057
undo,66,2,0,0,0,18,"[0, 19, 12, 5, 22, 13, 18]",7,4,"[7, 15, 26, 29]",81.91921567,12822,1056,10,3,10,1.2128708213409936
undo,66,2,0,0,0,7,"[0, 19, 12, 5, 22, 13, 18, 7]",8,3,"[15, 26, 29]",71.62358553,13779,957,5,0,10,1.2019811287894737
undo,66,2,0,0,0,15,"[0, 19, 12, 5, 22, 13, 18, 7, 15]",9,2,"[26, 29]",56.85876247,15764,1985,2,0,10,1.2907869828541363
undo,66,2,0,0,1,26,"[0, 19, 12, 5, 22, 13, 18, 7, 15, 26]",10,0,[],32.6513256,20992,5228,1,0,10,1.2648554428941847
undo,66,2,0,1,1,26,"[0, 19, 12, 5, 22, 13, 18, 7, 15, 26]",10,0,[],32.6513256,23017,2025,1,0,10,1.2648554428941847
undo,67,40,0,0,0,0,[0],1,29,"[1, 2, 3, 4, 5, 6, 7, 8, 9, 10, 11, 12, 13, 14, 15, 16, 17, 18, 19, 20, 21, 22, 23, 24, 25, 26, 27, 28, 29]",300,311,-1,8,191,9,0.0
undo,67,40,0,0,0,2,"[0, 2]",2,28,"[1, 3, 4, 5, 6, 7, 8, 9, 10, 11, 12, 13, 14, 15, 16, 17, 18, 19, 20, 21, 22, 23, 24, 25, 26, 27, 28, 29]",263.7646581,5320,5009,4,79,9,1.0
undo,67,40,0,0,0,19,"[0, 2, 19]",3,22,"[1, 5, 6, 7, 8, 9, 10, 11, 13, 14, 15, 17, 18, 20, 21, 22, 23, 24, 25, 26, 27, 29]",194.4249148,7866,2546,19,105,8,1.02908296307533
undo,67,40,0,0,0,23,"[0, 2, 19, 23]",4,15,"[1, 5, 6, 7, 8, 9, 10, 11, 13, 17, 18, 21, 22, 27, 29]",162.4718242,11319,3453,11,38,8,1.4499965171787688
undo,67,40,0,0,0,9,"[0, 2, 19, 23, 9]",5,6,"[1, 5, 6, 18, 21, 22]",114.2017507,14154,2835,2,9,8,1.5065273155379109
undo,67,40,0,0,0,18,"[0, 2, 19, 23, 9, 18]",6,5,"[1, 5, 6, 21, 22]",97.64880532,15818,1664,2,3,8,1.7082285843974157
undo,67,40,0,0,0,5,"[0, 2, 19, 23, 9, 18, 5]",7,1,[22],66.07349852,17360,1542,1,0,8,1.9020929419926735
undo,67,40,0,0,1,22,"[0, 2, 19, 23, 9, 18, 5, 22]",8,0,[],3.463595146,19279,1919,1,0,8,1.6743851823878557
undo,67,40,0,1,1,22,"[0, 2, 19, 23, 9, 18, 5, 22]",8,0,[],3.463595146,21639,2360,1,0,8,1.6743851823878557
undo,68,18,0,0,0,0,[0],1,28,"[1, 2, 3, 4, 5, 6, 7, 8, 9, 10, 11, 12, 13, 14, 16, 17, 18, 19, 20, 21, 22, 23, 24, 25, 26, 27, 28, 29]",300,147,-1,3,136,10,0.0
undo,68,18,0,0,0,28,"[0, 28]",2,16,"[1, 3, 5, 7, 8, 9, 12, 13, 14, 16, 20, 23, 24, 25, 26, 27]",236.4311397,6366,6219,2,19,10,1.0
undo,68,18,0,0,0,7,"[0, 28, 7]",3,15,"[1, 3, 5, 8, 9, 12, 13, 14, 16, 20, 23, 24, 25, 26, 27]",214.4084242,8636,2270,2,17,10,1.4345180696367563
undo,68,18,0,0,0,25,"[0, 28, 7, 25]",4,13,"[1, 3, 5, 8, 9, 12, 13, 14, 16, 20, 23, 26, 27]",186.6055466,9593,957,2,15,10,1.8896451241781882
undo,68,18,0,0,0,13,"[0, 28, 7, 25, 13]",5,10,"[3, 5, 8, 9, 12, 14, 16, 23, 26, 27]",141.3286209,10724,1131,5,21,9,1.6878978848273398
undo,68,18,0,0,0,14,"[0, 28, 7, 25, 13, 14]",6,8,"[3, 5, 8, 9, 12, 23, 26, 27]",122.354955,12094,1370,3,7,9,1.584538278883837
undo,68,18,0,0,0,8,"[0, 28, 7, 25, 13, 14, 8]",7,3,"[3, 5, 23]",88.75435972,13430,1336,1,2,9,2.2331853335907565
undo,68,18,0,0,0,3,"[0, 28, 7, 25, 13, 14, 8, 3]",8,1,[5],60.68302202,15636,2206,1,0,9,1.9555800330994786
undo,68,18,0,0,1,5,"[0, 28, 7, 25, 13, 14, 8, 3, 5]",9,0,[],2.502269193,17199,1563,1,0,9,1.6644939127114788
undo,68,18,0,1,1,5,"[0, 28, 7, 25, 13, 14, 8, 3, 5]",9,0,[],2.502269193,20518,3319,1,0,9,1.6644939127114788
basic,69,44,0,0,0,0,[0],1,29,"[1, 2, 3, 4, 5, 6, 7, 8, 9, 10, 11, 12, 13, 14, 15, 16, 17, 18, 19, 20, 21, 22, 23, 24, 25, 26, 27, 28, 29]",300,207,-1,13,126,7,0.0
basic,69,44,0,0,0,11,"[0, 11]",2,18,"[4, 5, 6, 7, 8, 9, 12, 14, 16, 17, 19, 20, 22, 23, 24, 25, 26, 28]",152.7790776,5720,5513,5,34,7,1.0
basic,69,44,0,0,0,24,"[0, 11, 24]",3,13,"[4, 5, 7, 8, 9, 12, 14, 17, 20, 22, 23, 25, 28]",125.8532535,7078,1358,5,23,7,1.1588941745226709
basic,69,44,0,0,0,9,"[0, 11, 24, 9]",4,7,"[4, 7, 8, 12, 14, 20, 23]",93.09657483,8806,1728,2,8,7,1.3039383713641313
basic,69,44,0,0,0,4,"[0, 11, 24, 9, 4]",5,5,"[7, 12, 14, 20, 23]",73.39885923,11138,2332,2,3,7,1.2901330701441578
basic,69,44,0,0,0,7,"[0, 11, 24, 9, 4, 7]",6,1,[23],42.38273439,12535,1397,1,0,7,1.2468141312360979
basic,69,44,0,0,1,23,"[0, 11, 24, 9, 4, 7, 23]",7,0,[],23.27776121,14018,1483,1,0,7,1.2635191782769477
basic,69,44,0,1,1,23,"[0, 11, 24, 9, 4, 7, 23]",7,0,[],23.27776121,15270,1252,1,0,7,1.2635191782769477
basic,70,17,0,0,0,0,[0],1,28,"[1, 2, 3, 4, 5, 6, 7, 8, 9, 10, 11, 12, 13, 14, 15, 16, 17, 18, 19, 20, 22, 23, 24, 25, 26, 27, 28, 29]",300,307,-1,2,73,8,0.0
basic,70,17,0,0,0,9,"[0, 9]",2,25,"[1, 2, 3, 5, 6, 7, 8, 10, 11, 12, 14, 15, 16, 17, 18, 19, 20, 22, 23, 24, 25, 26, 27, 28, 29]",210.5293344,9931,9624,1,34,8,1.0
basic,70,17,0,0,0,16,"[0, 9, 16]",3,21,"[1, 2, 3, 5, 7, 8, 10, 11, 12, 14, 17, 18, 19, 20, 22, 23, 25, 26, 27, 28, 29]",197.1876704,12069,2138,1,26,8,1.173103464220352
basic,70,17,0,0,0,2,"[0, 9, 16, 2]",4,18,"[1, 3, 5, 7, 8, 10, 11, 12, 14, 17, 18, 19, 23, 25, 26, 27, 28, 29]",181.0631549,13714,1645,1,23,8,1.14825089247282
basic,70,17,0,0,0,17,"[0, 9, 16, 2, 17]",5,7,"[7, 8, 12, 14, 26, 27, 29]",142.7356191,16113,2399,4,5,7,1.4896040699768547
basic,70,17,0,0,0,8,"[0, 9, 16, 2, 17, 8]",6,3,"[7, 12, 27]",104.5256727,18502,2389,3,0,7,1.4604726966175894
basic,70,17,0,0,1,27,"[0, 9, 16, 2, 17, 8, 27]",7,0,[],21.88790895,24137,5635,1,0,7,1.2949460667276491
basic,70,17,0,1,1,27,"[0, 9, 16, 2, 17, 8, 27]",7,0,[],21.88790895,26657,2520,1,0,7,1.2949460667276491
basic,71,21,0,0,0,0,[0],1,29,"[1, 2, 3, 4, 5, 6, 7, 8, 9, 10, 11, 12, 13, 14, 15, 16, 17, 18, 19, 20, 21, 22, 23, 24, 25, 26, 27, 28, 29]",300,162,-1,84,830,9,0.0
basic,71,21,0,0,0,25,"[0, 25]",2,26,"[1, 2, 3, 4, 5, 6, 7, 8, 9, 10, 11, 12, 13, 14, 15, 16, 17, 18, 20, 21, 22, 23, 24, 26, 27, 29]",240.1836143,3030,2868,30,238,9,1.0
basic,71,21,0,0,0,23,"[0, 25, 23]",3,21,"[1, 2, 4, 6, 7, 8, 9, 10, 11, 12, 14, 15, 16, 17, 18, 20, 21, 22, 24, 27, 29]",196.8592562,4076,1046,14,80,9,1.0416131642057598
basic,71,21,0,0,0,21,"[0, 25, 23, 21]",4,14,"[1, 4, 6, 8, 9, 14, 15, 16, 17, 18, 20, 22, 24, 29]",167.2450705,5114,1038,10,25,9,1.4768792067751173
basic,71,21,0,0,0,14,"[0, 25, 23, 21, 14]",5,10,"[4, 8, 9, 15, 16, 17, 18, 22, 24, 29]",141.6325735,6796,1682,8,13,9,1.3826076066332742
basic,71,21,0,0,0,4,"[0, 25, 23, 21, 14, 4]",6,7,"[8, 15, 16, 17, 18, 24, 29]",127.4904379,7694,898,8,3,9,1.3487191473328533
basic,71,21,0,0,0,16,"[0, 25, 23, 21, 14, 4, 16]",7,3,"[8, 15, 24]",82.89223163,10526,2832,4,1,9,1.3301484172843694
basic,71,21,0,0,0,8,"[0, 25, 23, 21, 14, 4, 16, 8]",8,2,"[15, 24]",64.2911564,11929,1403,2,0,9,1.3009886562393016
basic,71,21,0,0,1,15,"[0, 25, 23, 21, 14, 4, 16, 8, 15]",9,0,[],39.2911564,12840,911,1,0,9,1.5486591410600183
basic,71,21,0,1,1,15,"[0, 25, 23, 21, 14, 4, 16, 8, 15]",9,0,[],39.2911564,14660,1820,1,0,9,1.5486591410600183
basic,72,18,0,0,0,0,[0],1,28,"[1, 2, 3, 4, 5, 6, 7, 8, 9, 10, 11, 12, 13, 14, 16, 17, 18, 19, 20, 21, 22, 23, 24, 25, 26, 27, 28, 29]",300,301,-1,3,136,10,0.0
basic,72,18,0,0,0,28,"[0, 28]",2,16,"[1, 3, 5, 7, 8, 9, 12, 13, 14, 16, 20, 23, 24, 25, 26, 27]",236.4311397,3252,2951,2,19,10,1.0
basic,72,18,0,0,0,7,"[0, 28, 7]",3,15,"[1, 3, 5, 8, 9, 12, 13, 14, 16, 20, 23, 24, 25, 26, 27]",214.4084242,4897,1645,2,17,10,1.4345180696367563
basic,72,18,0,0,0,25,"[0, 28, 7, 25]",4,13,"[1, 3, 5, 8, 9, 12, 13, 14, 16, 20, 23, 26, 27]",186.6055466,6730,1833,2,15,10,1.8896451241781882
basic,72,18,0,0,0,8,"[0, 28, 7, 25, 8]",5,10,"[3, 5, 9, 12, 13, 14, 16, 23, 26, 27]",149.551532,8667,1937,2,10,10,1.590467437592877
basic,72,18,0,0,0,3,"[0, 28, 7, 25, 8, 3]",6,6,"[5, 12, 13, 14, 23, 27]",121.4801943,9687,1020,1,10,9,1.4587755974793148
basic,72,18,0,0,0,14,"[0, 28, 7, 25, 8, 3, 14]",7,4,"[5, 12, 13, 27]",91.39697637,11188,1501,4,0,8,1.8606737724243565
basic,72,18,0,0,1,13,"[0, 28, 7, 25, 8, 3, 14, 13]",8,0,[],72.42331041,12800,1612,1,0,8,2.4208916262893254
basic,72,18,0,1,1,13,"[0, 28, 7, 25, 8, 3, 14, 13]",8,0,[],72.42331041,17488,4688,1,0,8,2.4208916262893254
basic,73,24,0,0,0,0,[0],1,29,"[1, 2, 3, 4, 5, 6, 7, 8, 9, 10, 11, 12, 13, 14, 15, 16, 17, 18, 19, 20, 21, 22, 23, 24, 25, 26, 27, 28, 29]",300,303,-1,4,76,10,0.0
basic,73,24,0,0,0,14,"[0, 14]",2,27,"[1, 2, 3, 4, 5, 6, 8, 9, 10, 11, 12, 13, 15, 16, 17, 18, 19, 20, 21, 22, 23, 24, 25, 26, 27, 28, 29]",278.0455016,5421,5118,4,54,10,1.0
basic,73,24,0,0,0,16,"[0, 14, 16]",3,25,"[2, 3, 4, 5, 6, 8, 9, 10, 11, 12, 13, 15, 17, 18, 19, 20, 21, 22, 23, 24, 25, 26, 27, 28, 29]",188.9949542,8857,3436,4,31,10,1.238291113657358
basic,73,24,0,0,0,8,"[0, 14, 16, 8]",4,17,"[2, 3, 4, 6, 9, 10, 11, 13, 15, 20, 22, 23, 24, 26, 27, 28, 29]",159.9949542,12127,3270,2,13,10,1.2714603293172921
basic,73,24,0,0,0,22,"[0, 14, 16, 8, 22]",5,13,"[3, 4, 6, 9, 10, 11, 15, 23, 24, 26, 27, 28, 29]",146.5785463,13713,1586,2,10,10,1.4558841300797367
basic,73,24,0,0,0,15,"[0, 14, 16, 8, 22, 15]",6,11,"[3, 4, 6, 9, 10, 11, 23, 26, 27, 28, 29]",125.3653429,15167,1454,2,8,10,1.459909027032803
basic,73,24,0,0,0,28,"[0, 14, 16, 8, 22, 15, 28]",7,5,"[4, 9, 11, 23, 27]",80.08841717,16399,1232,2,5,10,1.3358430839259279
basic,73,24,0,0,0,23,"[0, 14, 16, 8, 22, 15, 28, 23]",8,3,"[9, 11, 27]",61.06211957,17108,709,2,2,10,1.3561794364003306
basic,73,24,0,0,0,11,"[0, 14, 16, 8, 22, 15, 28, 23, 11]",9,2,"[9, 27]",34.13629554,17731,623,2,0,10,1.323606251450204
basic,73,24,0,0,1,27,"[0, 14, 16, 8, 22, 15, 28, 23, 11, 27]",10,0,[],6.33341799,18723,992,1,0,10,1.2857748381905127
basic,73,24,0,1,1,27,"[0, 14, 16, 8, 22, 15, 28, 23, 11, 27]",10,0,[],6.33341799,22557,3834,1,0,10,1.2857748381905127
basic,74,27,0,0,0,0,[0],1,26,"[1, 3, 5, 6, 7, 8, 9, 10, 11, 12, 13, 14, 15, 16, 17, 18, 19, 21, 22, 23, 24, 25, 26, 27, 28, 29]",300,284,-1,13,578,11,0.0
basic,74,27,0,0,0,26,"[0, 26]",2,23,"[1, 5, 6, 7, 8, 9, 10, 11, 12, 13, 14, 15, 16, 17, 18, 19, 21, 22, 23, 24, 25, 27, 29]",275.8132268,3982,3698,7,249,11,1.0
basic,74,27,0,0,0,15,"[0, 26, 15]",3,18,"[1, 6, 7, 8, 10, 12, 13, 14, 16, 17, 18, 19, 21, 23, 24, 25, 27, 29]",216.0386502,7982,4000,6,105,11,2.316230250316108
basic,74,27,0,0,0,24,"[0, 26, 15, 24]",4,14,"[1, 8, 10, 12, 13, 14, 16, 17, 18, 19, 23, 25, 27, 29]",198.8339997,9004,1022,6,63,11,2.140390406148825
basic,74,27,0,0,0,17,"[0, 26, 15, 24, 17]",5,11,"[1, 8, 10, 12, 13, 14, 18, 19, 23, 27, 29]",182.2810543,9775,771,4,33,11,1.897705569486853
basic,74,27,0,0,0,12,"[0, 26, 15, 24, 17, 12]",6,10,"[1, 8, 10, 13, 14, 18, 19, 23, 27, 29]",171.1007144,11801,2026,2,17,11,1.994427587076918
basic,74,27,0,0,0,10,"[0, 26, 15, 24, 17, 12, 10]",7,9,"[1, 8, 13, 14, 18, 19, 23, 27, 29]",160.0553534,14191,2390,2,14,11,1.8554032921959762
basic,74,27,0,0,0,13,"[0, 26, 15, 24, 17, 12, 10, 13]",8,7,"[1, 8, 14, 19, 23, 27, 29]",120.2056357,17220,3029,2,8,11,1.8269483184790714
basic,74,27,0,0,0,19,"[0, 26, 15, 24, 17, 12, 10, 13, 19]",9,4,"[8, 14, 23, 29]",83.97029387,19085,1865,2,3,11,1.6617669702307691
basic,74,27,0,0,0,8,"[0, 26, 15, 24, 17, 12, 10, 13, 19, 8]",10,2,"[14, 29]",69.10422512,21569,2484,2,0,11,1.708465241811091
basic,74,27,0,0,1,29,"[0, 26, 15, 24, 17, 12, 10, 13, 19, 8, 29]",11,0,[],9.901184659,26523,4954,1,0,11,1.4940849125097164
basic,74,27,0,1,1,29,"[0, 26, 15, 24, 17, 12, 10, 13, 19, 8, 29]",11,0,[],9.901184659,30636,4113,1,0,11,1.4940849125097164
basic,75,19,0,0,0,0,[0],1,29,"[1, 2, 3, 4, 5, 6, 7, 8, 9, 10, 11, 12, 13, 14, 15, 16, 17, 18, 19, 20, 21, 22, 23, 24, 25, 26, 27, 28, 29]",300,162,-1,12,149,8,0.0
basic,75,19,0,0,0,29,"[0, 29]",2,28,"[1, 2, 3, 4, 5, 6, 7, 8, 9, 10, 11, 12, 13, 14, 15, 16, 17, 18, 19, 20, 21, 22, 23, 24, 25, 26, 27, 28]",265.0715016,5408,5246,12,120,8,1.0
basic,75,19,0,0,0,9,"[0, 29, 9]",3,17,"[1, 4, 5, 6, 7, 10, 11, 12, 13, 14, 19, 20, 21, 22, 24, 27, 28]",181.7108394,9009,3601,11,65,8,1.0375842971861238
basic,75,19,0,0,0,6,"[0, 29, 9, 6]",4,12,"[4, 7, 10, 11, 13, 14, 20, 21, 22, 24, 27, 28]",140.2741407,9949,940,11,34,8,1.0389786364356892
basic,75,19,0,0,0,4,"[0, 29, 9, 6, 4]",5,7,"[10, 11, 14, 20, 22, 27, 28]",99.22538921,11551,1602,2,6,8,1.2182485830176533
basic,75,19,0,0,0,28,"[0, 29, 9, 6, 4, 28]",6,3,"[11, 14, 27]",88.04504932,12821,1270,2,1,8,1.2933703503588658
basic,75,19,0,0,0,14,"[0, 29, 9, 6, 4, 28, 14]",7,1,[11],30.46032912,14821,2000,1,0,8,1.2889112786863766
basic,75,19,0,0,1,11,"[0, 29, 9, 6, 4, 28, 14, 11]",8,0,[],19.6436753,17279,2458,1,0,8,1.2786737377290265
basic,75,19,0,1,1,11,"[0, 29, 9, 6, 4, 28, 14, 11]",8,0,[],19.6436753,19183,1904,1,0,8,1.2786737377290265
basic,76,26,0,0,0,0,[0],1,29,"[1, 2, 3, 4, 5, 6, 7, 8, 9, 10, 11, 12, 13, 14, 15, 16, 17, 18, 19, 20, 21, 22, 23, 24, 25, 26, 27, 28, 29]",300,257,-1,9,226,9,0.0
basic,76,26,0,0,0,21,"[0, 21]",2,25,"[2, 3, 4, 5, 6, 7, 8, 10, 11, 12, 13, 14, 15, 16, 17, 18, 19, 22, 23, 24, 25, 26, 27, 28, 29]",211.1349337,7948,7691,7,90,9,1.0
basic,76,26,0,0,0,13,"[0, 21, 13]",3,21,"[3, 4, 5, 6, 7, 8, 10, 11, 12, 14, 15, 16, 17, 18, 19, 22, 23, 24, 25, 26, 29]",188.9989901,8631,683,6,45,9,1.0103952279992225
basic,76,26,0,0,0,16,"[0, 21, 13, 16]",4,8,"[4, 5, 6, 10, 14, 17, 23, 29]",119.9700107,10214,1583,3,23,9,1.608180021563306
basic,76,26,0,0,0,29,"[0, 21, 13, 16, 29]",5,6,"[4, 6, 10, 14, 17, 23]",95.76257383,11234,1020,3,20,9,1.6714963205667543
basic,76,26,0,0,0,4,"[0, 21, 13, 16, 29, 4]",6,4,"[6, 10, 14, 17]",71.76257383,12828,1594,3,6,9,1.8831111863826637
basic,76,26,0,0,0,17,"[0, 21, 13, 16, 29, 4, 17]",7,3,"[6, 10, 14]",50.66755072,13944,1116,3,1,9,1.7547748416418751
basic,76,26,0,0,0,14,"[0, 21, 13, 16, 29, 4, 17, 14]",8,1,[6],28.19534567,14805,861,1,0,9,1.6866342470680415
basic,76,26,0,0,1,6,"[0, 21, 13, 16, 29, 4, 17, 14, 6]",9,0,[],7.171549626,15714,909,1,0,9,1.823211641041882
