condition,trial_id,map_id,undoIndicator,submit,checkEnd,currentChoice,chosen_all,n_city_all,n_within_reach,cities_reach,currentBudget,time_all,rt_all,n_opt_paths_all,n_subopt_paths_all,mas_all,tortuosity_all
basic,0,18,0,0,0,0,[0],1,28,"[1, 2, 3, 4, 5, 6, 7, 8, 9, 10, 11, 12, 13, 14, 16, 17, 18, 19, 20, 21, 22, 23, 24, 25, 26, 27, 28, 29]",300,589,-1,3,136,10,0.0
basic,0,18,0,0,0,28,"[0, 28]",2,16,"[1, 3, 5, 7, 8, 9, 12, 13, 14, 16, 20, 23, 24, 25, 26, 27]",236.4311397,11646,11057,2,19,10,1.0
basic,0,18,0,0,0,7,"[0, 28, 7]",3,15,"[1, 3, 5, 8, 9, 12, 13, 14, 16, 20, 23, 24, 25, 26, 27]",214.4084242,14571,2925,2,17,10,1.4345180696367563
basic,0,18,0,0,0,25,"[0, 28, 7, 25]",4,13,"[1, 3, 5, 8, 9, 12, 13, 14, 16, 20, 23, 26, 27]",186.6055466,15841,1270,2,15,10,1.8896451241781882
basic,0,18,0,0,0,8,"[0, 28, 7, 25, 8]",5,10,"[3, 5, 9, 12, 13, 14, 16, 23, 26, 27]",149.551532,20992,5151,2,10,10,1.590467437592877
basic,0,18,0,0,0,13,"[0, 28, 7, 25, 8, 13]",6,9,"[3, 5, 9, 12, 14, 16, 23, 26, 27]",128.4565089,22153,1161,2,5,10,1.8248274983549797
basic,0,18,0,0,0,14,"[0, 28, 7, 25, 8, 13, 14]",7,7,"[3, 5, 9, 12, 23, 26, 27]",109.4828429,23663,1510,2,3,10,1.6993534956692746
basic,0,18,0,0,0,3,"[0, 28, 7, 25, 8, 13, 14, 3]",8,3,"[5, 12, 27]",79.39962499,25020,1357,2,1,10,1.802637206541468
basic,0,18,0,0,0,5,"[0, 28, 7, 25, 8, 13, 14, 3, 5]",9,1,[12],21.21887216,26707,1687,1,0,10,1.559774889743805
basic,0,18,0,0,1,12,"[0, 28, 7, 25, 8, 13, 14, 3, 5, 12]",10,0,[],9.817117911,28321,1614,1,0,10,1.563993037384447
basic,0,18,0,1,1,12,"[0, 28, 7, 25, 8, 13, 14, 3, 5, 12]",10,0,[],9.817117911,30058,1737,1,0,10,1.563993037384447
basic,1,2,0,0,0,0,[0],1,23,"[1, 2, 4, 5, 6, 7, 8, 9, 12, 13, 15, 16, 17, 18, 19, 20, 22, 23, 25, 26, 27, 28, 29]",300,210,-1,70,620,10,0.0
basic,1,2,0,0,0,19,"[0, 19]",2,22,"[1, 2, 4, 5, 6, 7, 8, 9, 12, 13, 15, 16, 17, 18, 20, 22, 23, 25, 26, 27, 28, 29]",210.306076,38782,38572,67,431,10,1.0
basic,1,2,0,0,0,12,"[0, 19, 12]",3,17,"[1, 4, 5, 6, 7, 13, 15, 16, 17, 18, 20, 22, 25, 26, 27, 28, 29]",174.2921898,40403,1621,66,298,10,1.1107635036313153
basic,1,2,0,0,0,5,"[0, 19, 12, 5]",4,11,"[1, 6, 7, 13, 15, 16, 18, 22, 25, 26, 29]",144.7625437,41973,1570,38,136,10,1.0968174771581647
basic,1,2,0,0,0,22,"[0, 19, 12, 5, 22]",5,8,"[1, 6, 7, 13, 15, 18, 26, 29]",131.9562952,43426,1453,20,63,10,1.0889910507461968
basic,1,2,0,0,0,13,"[0, 19, 12, 5, 22, 13]",6,7,"[1, 6, 7, 15, 18, 26, 29]",117.0902265,45081,1655,19,20,10,1.236526217328057
basic,1,2,0,0,0,18,"[0, 19, 12, 5, 22, 13, 18]",7,4,"[7, 15, 26, 29]",81.91921567,46786,1705,10,3,10,1.2128708213409936
basic,1,2,0,0,0,7,"[0, 19, 12, 5, 22, 13, 18, 7]",8,3,"[15, 26, 29]",71.62358553,49260,2474,5,0,10,1.2019811287894737
basic,1,2,0,0,0,15,"[0, 19, 12, 5, 22, 13, 18, 7, 15]",9,2,"[26, 29]",56.85876247,52548,3288,2,0,10,1.2907869828541363
basic,1,2,0,0,1,29,"[0, 19, 12, 5, 22, 13, 18, 7, 15, 29]",10,0,[],28.39826353,57033,4485,1,0,10,1.4795089334237532
basic,1,2,0,1,1,29,"[0, 19, 12, 5, 22, 13, 18, 7, 15, 29]",10,0,[],28.39826353,73631,16598,1,0,10,1.4795089334237532
basic,2,43,0,0,0,0,[0],1,23,"[1, 2, 3, 4, 5, 6, 7, 9, 10, 11, 12, 14, 15, 16, 17, 19, 20, 21, 22, 23, 25, 27, 29]",300,190,-1,16,556,12,0.0
basic,2,43,0,0,0,29,"[0, 29]",2,22,"[1, 2, 3, 4, 5, 6, 7, 9, 10, 11, 12, 14, 15, 16, 17, 19, 20, 21, 22, 23, 25, 27]",277.909278,11129,10939,16,520,12,1.0
basic,2,43,0,0,0,25,"[0, 29, 25]",3,17,"[1, 2, 3, 4, 5, 6, 7, 9, 11, 12, 14, 15, 16, 19, 20, 22, 23]",213.0247652,13385,2256,2,138,11,1.0966556668308567
basic,2,43,0,0,0,15,"[0, 29, 25, 15]",4,15,"[1, 2, 3, 4, 6, 7, 9, 11, 12, 14, 16, 19, 20, 22, 23]",190.3531971,15013,1628,2,69,11,1.3261570119896458
basic,2,43,0,0,0,12,"[0, 29, 25, 15, 12]",5,14,"[1, 2, 3, 4, 6, 7, 9, 11, 14, 16, 19, 20, 22, 23]",171.0399892,16865,1852,2,51,11,1.3044910729993737
basic,2,43,0,0,0,3,"[0, 29, 25, 15, 12, 3]",6,12,"[1, 4, 6, 7, 9, 11, 14, 16, 19, 20, 22, 23]",158.0399892,18194,1329,2,46,11,1.274324793685448
basic,2,43,0,0,0,20,"[0, 29, 25, 15, 12, 3, 20]",7,2,"[11, 16]",64.2263441,24571,6377,1,1,9,5.605719481753687
basic,2,43,0,0,0,16,"[0, 29, 25, 15, 12, 3, 20, 16]",8,1,[11],41.5989271,26103,1532,1,0,9,4.607697798970358
basic,2,43,0,0,1,11,"[0, 29, 25, 15, 12, 3, 20, 16, 11]",9,0,[],6.470590961,28081,1978,1,0,9,3.2255979015274723
basic,2,43,0,1,1,11,"[0, 29, 25, 15, 12, 3, 20, 16, 11]",9,0,[],6.470590961,31843,3762,1,0,9,3.2255979015274723
basic,3,19,0,0,0,0,[0],1,29,"[1, 2, 3, 4, 5, 6, 7, 8, 9, 10, 11, 12, 13, 14, 15, 16, 17, 18, 19, 20, 21, 22, 23, 24, 25, 26, 27, 28, 29]",300,198,-1,12,149,8,0.0
basic,3,19,0,0,0,29,"[0, 29]",2,28,"[1, 2, 3, 4, 5, 6, 7, 8, 9, 10, 11, 12, 13, 14, 15, 16, 17, 18, 19, 20, 21, 22, 23, 24, 25, 26, 27, 28]",265.0715016,16431,16233,12,120,8,1.0
basic,3,19,0,0,0,9,"[0, 29, 9]",3,17,"[1, 4, 5, 6, 7, 10, 11, 12, 13, 14, 19, 20, 21, 22, 24, 27, 28]",181.7108394,18602,2171,11,65,8,1.0375842971861238
basic,3,19,0,0,0,28,"[0, 29, 9, 28]",4,8,"[4, 6, 10, 11, 14, 20, 22, 27]",107.4074075,21206,2604,6,10,7,1.1752193003234799
basic,3,19,0,0,0,4,"[0, 29, 9, 28, 4]",5,7,"[6, 10, 11, 14, 20, 22, 27]",96.22706758,22982,1776,6,3,7,1.236441625767462
basic,3,19,0,0,0,11,"[0, 29, 9, 28, 4, 11]",6,1,[14],38.08930017,25790,2808,1,0,7,1.194545312509767
basic,3,19,0,0,1,14,"[0, 29, 9, 28, 4, 11, 14]",7,0,[],27.27264634,28446,2656,1,0,7,1.3041544533723228
basic,3,19,0,1,1,14,"[0, 29, 9, 28, 4, 11, 14]",7,0,[],27.27264634,37913,9467,1,0,7,1.3041544533723228
basic,4,39,0,0,0,0,[0],1,28,"[1, 2, 3, 4, 5, 6, 7, 9, 10, 11, 12, 13, 14, 15, 16, 17, 18, 19, 20, 21, 22, 23, 24, 25, 26, 27, 28, 29]",300,212,-1,1,30,10,0.0
basic,4,39,0,0,0,10,"[0, 10]",2,20,"[1, 2, 4, 5, 7, 9, 12, 13, 14, 15, 16, 17, 18, 19, 22, 23, 24, 26, 28, 29]",181.1723938,85821,85609,3,58,8,1.0
basic,4,39,0,0,0,7,"[0, 10, 7]",3,16,"[1, 2, 4, 5, 9, 12, 13, 15, 16, 18, 19, 22, 23, 24, 26, 29]",147.7508438,87293,1472,2,20,8,1.0005787113875788
basic,4,39,0,0,0,26,"[0, 10, 7, 26]",4,12,"[1, 2, 5, 9, 12, 13, 16, 18, 19, 22, 24, 29]",129.0693022,88824,1531,1,9,8,1.0582372046162405
basic,4,39,0,0,0,22,"[0, 10, 7, 26, 22]",5,7,"[1, 5, 12, 16, 18, 19, 29]",111.349257,90117,1293,1,3,8,1.2183446345009497
basic,4,39,0,0,0,16,"[0, 10, 7, 26, 22, 16]",6,2,"[18, 19]",76.34925701,91436,1319,1,1,8,1.1781376373699262
basic,4,39,0,0,0,19,"[0, 10, 7, 26, 22, 16, 19]",7,1,[18],58.88500781,94169,2733,1,0,8,1.1953094970663214
basic,4,39,0,0,1,18,"[0, 10, 7, 26, 22, 16, 19, 18]",8,0,[],15.71094152,95731,1562,1,0,8,1.2126315998801338
basic,4,39,0,1,1,18,"[0, 10, 7, 26, 22, 16, 19, 18]",8,0,[],15.71094152,99381,3650,1,0,8,1.2126315998801338
basic,5,40,0,0,0,0,[0],1,29,"[1, 2, 3, 4, 5, 6, 7, 8, 9, 10, 11, 12, 13, 14, 15, 16, 17, 18, 19, 20, 21, 22, 23, 24, 25, 26, 27, 28, 29]",300,226,-1,8,191,9,0.0
basic,5,40,0,0,0,1,"[0, 1]",2,18,"[2, 5, 6, 7, 8, 9, 10, 11, 13, 15, 17, 18, 19, 21, 22, 23, 27, 29]",247.8463808,9327,9101,4,80,9,1.0
basic,5,40,0,0,0,6,"[0, 1, 6]",3,17,"[2, 5, 7, 8, 9, 10, 11, 13, 15, 17, 18, 19, 21, 22, 23, 27, 29]",227.7466295,10783,1456,4,74,9,1.0459427008232034
basic,5,40,0,0,0,9,"[0, 1, 6, 9]",4,10,"[2, 5, 8, 11, 18, 19, 21, 22, 23, 27]",159.146338,12248,1465,17,39,8,1.142098432552584
basic,5,40,0,0,0,18,"[0, 1, 6, 9, 18]",5,9,"[2, 5, 8, 11, 19, 21, 22, 23, 27]",142.5933926,13877,1629,13,14,8,1.3288108654802917
basic,5,40,0,0,0,23,"[0, 1, 6, 9, 18, 23]",6,6,"[2, 5, 8, 19, 21, 22]",108.5933926,15328,1451,6,4,8,2.0180513009829646
basic,5,40,0,0,0,5,"[0, 1, 6, 9, 18, 23, 5]",7,2,"[19, 22]",80.29144922,16949,1621,2,0,8,1.786484562843798
basic,5,40,0,0,1,19,"[0, 1, 6, 9, 18, 23, 5, 19]",8,0,[],42.21258369,18523,1574,1,0,8,2.512757983735243
basic,5,40,0,1,1,19,"[0, 1, 6, 9, 18, 23, 5, 19]",8,0,[],42.21258369,24559,6036,1,0,8,2.512757983735243
basic,6,5,0,0,0,0,[0],1,29,"[1, 2, 3, 4, 5, 6, 7, 8, 9, 10, 11, 12, 13, 14, 15, 16, 17, 18, 19, 20, 21, 22, 23, 24, 25, 26, 27, 28, 29]",300,203,-1,5,139,9,0.0
basic,6,5,0,0,0,12,"[0, 12]",2,22,"[2, 4, 5, 6, 8, 9, 10, 13, 14, 15, 16, 17, 18, 19, 21, 22, 23, 24, 25, 26, 27, 28]",228.3062067,11907,11704,1,27,9,1.0
basic,6,5,0,0,0,25,"[0, 12, 25]",3,21,"[2, 4, 5, 6, 8, 9, 10, 13, 14, 15, 16, 17, 18, 19, 21, 22, 23, 24, 26, 27, 28]",200.5213187,13471,1564,1,20,9,1.584023303445617
basic,6,5,0,0,0,23,"[0, 12, 25, 23]",4,19,"[2, 4, 5, 6, 8, 9, 10, 13, 14, 15, 16, 17, 18, 19, 21, 22, 24, 26, 27]",182.0822298,14798,1327,1,14,9,2.3508446989254357
basic,6,5,0,0,0,24,"[0, 12, 25, 23, 24]",5,15,"[2, 4, 5, 6, 8, 9, 13, 14, 15, 17, 18, 19, 22, 26, 27]",158.995437,15890,1092,1,12,9,1.9469752046288753
basic,6,5,0,0,0,17,"[0, 12, 25, 23, 24, 17]",6,7,"[4, 5, 6, 8, 15, 18, 19]",124.0097257,18251,2361,1,8,9,1.6482276497563642
basic,6,5,0,0,0,5,"[0, 12, 25, 23, 24, 17, 5]",7,4,"[4, 6, 15, 18]",80.96323916,20842,2591,1,3,9,1.4654649104389412
basic,6,5,0,0,0,4,"[0, 12, 25, 23, 24, 17, 5, 4]",8,1,[6],15.16050365,23767,2925,1,0,9,1.6255060355828674
basic,6,5,0,0,1,6,"[0, 12, 25, 23, 24, 17, 5, 4, 6]",9,0,[],3.118909076,25302,1535,1,0,9,1.7777310833772453
basic,6,5,0,1,1,6,"[0, 12, 25, 23, 24, 17, 5, 4, 6]",9,0,[],3.118909076,57614,32312,1,0,9,1.7777310833772453
basic,7,35,0,0,0,0,[0],1,29,"[1, 2, 3, 4, 5, 6, 7, 8, 9, 10, 11, 12, 13, 14, 15, 16, 17, 18, 19, 20, 21, 22, 23, 24, 25, 26, 27, 28, 29]",300,201,-1,5,236,11,0.0
basic,7,35,0,0,0,27,"[0, 27]",2,27,"[1, 2, 4, 5, 6, 7, 8, 9, 10, 11, 12, 13, 14, 15, 16, 17, 18, 19, 20, 21, 22, 23, 24, 25, 26, 28, 29]",278.7867966,5559,5358,5,144,11,1.0
basic,7,35,0,0,0,24,"[0, 27, 24]",3,25,"[1, 2, 4, 5, 6, 7, 8, 9, 10, 11, 12, 13, 15, 16, 17, 18, 19, 20, 21, 22, 23, 25, 26, 28, 29]",234.6053525,7381,1822,3,80,11,2.1084080567904624
basic,7,35,0,0,0,17,"[0, 27, 24, 17]",4,20,"[1, 2, 4, 5, 6, 7, 8, 9, 10, 15, 16, 18, 19, 20, 21, 23, 25, 26, 28, 29]",222.9006526,9451,2070,3,50,11,1.9439555968916868
basic,7,35,0,0,0,1,"[0, 27, 24, 17, 1]",5,18,"[2, 4, 5, 6, 8, 9, 10, 15, 16, 18, 19, 20, 21, 23, 25, 26, 28, 29]",207.0892643,11308,1857,3,39,11,1.9436711872547336
basic,7,35,0,0,0,15,"[0, 27, 24, 17, 1, 15]",6,16,"[2, 4, 5, 6, 8, 9, 10, 16, 18, 19, 20, 23, 25, 26, 28, 29]",184.241945,12876,1568,3,24,11,2.082774572108194
basic,7,35,0,0,0,9,"[0, 27, 24, 17, 1, 15, 9]",7,6,"[5, 6, 18, 19, 23, 25]",101.9497825,15616,2740,4,9,10,1.7617867155529752
basic,7,35,0,0,0,18,"[0, 27, 24, 17, 1, 15, 9, 18]",8,3,"[6, 23, 25]",81.92479813,17321,1705,4,0,10,1.6953515714929015
basic,7,35,0,0,0,25,"[0, 27, 24, 17, 1, 15, 9, 18, 25]",9,1,[6],48.08694949,22535,5214,1,0,10,1.5555820335176815
basic,7,35,0,0,1,6,"[0, 27, 24, 17, 1, 15, 9, 18, 25, 6]",10,0,[],24.0661252,24189,1654,1,0,10,1.824697713291134
basic,7,35,0,1,1,6,"[0, 27, 24, 17, 1, 15, 9, 18, 25, 6]",10,0,[],24.0661252,32800,8611,1,0,10,1.824697713291134
basic,8,11,0,0,0,0,[0],1,25,"[1, 2, 3, 4, 5, 6, 8, 9, 10, 11, 12, 13, 14, 15, 16, 17, 18, 19, 20, 22, 23, 25, 26, 27, 28]",300,312,-1,6,374,12,0.0
basic,8,11,0,0,0,17,"[0, 17]",2,18,"[1, 2, 4, 5, 6, 8, 10, 11, 12, 15, 18, 19, 22, 23, 25, 26, 27, 28]",152.9217895,89121,88809,218,762,9,1.0
basic,8,11,0,0,0,8,"[0, 17, 8]",3,15,"[1, 2, 4, 5, 6, 11, 12, 15, 18, 19, 22, 23, 25, 27, 28]",138.6039684,90546,1425,95,263,9,1.1114912532636003
basic,8,11,0,0,0,15,"[0, 17, 8, 15]",4,11,"[2, 5, 6, 11, 12, 18, 19, 22, 25, 27, 28]",125.1503444,92317,1771,62,51,9,1.1146194627724886
basic,8,11,0,0,0,11,"[0, 17, 8, 15, 11]",5,9,"[2, 5, 6, 12, 19, 22, 25, 27, 28]",107.0395741,93675,1358,24,2,9,1.1130192047684102
basic,8,11,0,0,0,22,"[0, 17, 8, 15, 11, 22]",6,4,"[2, 5, 19, 28]",73.61802419,96047,2372,6,0,9,1.2007499763074991
basic,8,11,0,0,0,2,"[0, 17, 8, 15, 11, 22, 2]",7,2,"[5, 28]",63.56814857,97216,1169,2,0,9,1.32463653466919
basic,8,11,0,0,0,28,"[0, 17, 8, 15, 11, 22, 2, 28]",8,1,[5],52.93800276,100155,2939,1,0,9,1.4297291575646118
basic,8,11,0,0,1,5,"[0, 17, 8, 15, 11, 22, 2, 28, 5]",9,0,[],35.04945894,101822,1667,1,0,9,1.6285310515220563
basic,8,11,0,1,1,5,"[0, 17, 8, 15, 11, 22, 2, 28, 5]",9,0,[],35.04945894,104044,2222,1,0,9,1.6285310515220563
basic,9,38,0,0,0,0,[0],1,29,"[1, 2, 3, 4, 5, 6, 7, 8, 9, 10, 11, 12, 13, 14, 15, 16, 17, 18, 19, 20, 21, 22, 23, 24, 25, 26, 27, 28, 29]",300,333,-1,33,506,9,0.0
basic,9,38,0,0,0,19,"[0, 19]",2,23,"[3, 4, 5, 6, 7, 8, 9, 11, 13, 14, 15, 16, 17, 18, 20, 22, 23, 24, 25, 26, 27, 28, 29]",219.5015528,11704,11371,6,61,9,1.0
basic,9,38,0,0,0,17,"[0, 19, 17]",3,21,"[3, 4, 5, 6, 7, 9, 11, 13, 14, 15, 16, 18, 20, 22, 23, 24, 25, 26, 27, 28, 29]",198.1239945,12855,1151,6,53,9,1.571793785769489
basic,9,38,0,0,0,20,"[0, 19, 17, 20]",4,17,"[3, 4, 5, 6, 7, 11, 13, 14, 15, 16, 18, 22, 24, 25, 26, 27, 28]",174.3542658,13909,1054,6,44,9,2.333182710277297
basic,9,38,0,0,0,4,"[0, 19, 17, 20, 4]",5,10,"[5, 11, 13, 14, 15, 16, 24, 26, 27, 28]",140.4131403,15312,1403,5,22,9,2.276099229646013
basic,9,38,0,0,0,13,"[0, 19, 17, 20, 4, 13]",6,7,"[11, 15, 16, 24, 26, 27, 28]",109.0125034,17451,2139,8,3,8,1.9539449223642764
basic,9,38,0,0,0,26,"[0, 19, 17, 20, 4, 13, 26]",7,3,"[15, 16, 24]",77.96415401,23012,5561,3,0,8,1.7636339903785625
basic,9,38,0,0,1,24,"[0, 19, 17, 20, 4, 13, 26, 24]",8,0,[],47.15831041,24348,1336,1,0,8,1.6290683193074331
basic,9,38,0,1,1,24,"[0, 19, 17, 20, 4, 13, 26, 24]",8,0,[],47.15831041,25713,1365,1,0,8,1.6290683193074331
basic,10,17,0,0,0,0,[0],1,28,"[1, 2, 3, 4, 5, 6, 7, 8, 9, 10, 11, 12, 13, 14, 15, 16, 17, 18, 19, 20, 22, 23, 24, 25, 26, 27, 28, 29]",300,257,-1,2,73,8,0.0
basic,10,17,0,0,0,9,"[0, 9]",2,25,"[1, 2, 3, 5, 6, 7, 8, 10, 11, 12, 14, 15, 16, 17, 18, 19, 20, 22, 23, 24, 25, 26, 27, 28, 29]",210.5293344,7554,7297,1,34,8,1.0
basic,10,17,0,0,0,16,"[0, 9, 16]",3,21,"[1, 2, 3, 5, 7, 8, 10, 11, 12, 14, 17, 18, 19, 20, 22, 23, 25, 26, 27, 28, 29]",197.1876704,8543,989,1,26,8,1.173103464220352
basic,10,17,0,0,0,2,"[0, 9, 16, 2]",4,18,"[1, 3, 5, 7, 8, 10, 11, 12, 14, 17, 18, 19, 23, 25, 26, 27, 28, 29]",181.0631549,9463,920,1,23,8,1.14825089247282
basic,10,17,0,0,0,17,"[0, 9, 16, 2, 17]",5,7,"[7, 8, 12, 14, 26, 27, 29]",142.7356191,10582,1119,4,5,7,1.4896040699768547
basic,10,17,0,0,0,8,"[0, 9, 16, 2, 17, 8]",6,3,"[7, 12, 27]",104.5256727,12019,1437,3,0,7,1.4604726966175894
basic,10,17,0,0,1,27,"[0, 9, 16, 2, 17, 8, 27]",7,0,[],21.88790895,15211,3192,1,0,7,1.2949460667276491
basic,10,17,0,1,1,27,"[0, 9, 16, 2, 17, 8, 27]",7,0,[],21.88790895,18390,3179,1,0,7,1.2949460667276491
basic,11,6,0,0,0,0,[0],1,29,"[1, 2, 3, 4, 5, 6, 7, 8, 9, 10, 11, 12, 13, 14, 15, 16, 17, 18, 19, 20, 21, 22, 23, 24, 25, 26, 27, 28, 29]",300,421,-1,180,4304,10,0.0
basic,11,6,0,0,0,7,"[0, 7]",2,26,"[1, 2, 3, 4, 5, 6, 8, 9, 10, 11, 12, 13, 14, 15, 16, 17, 18, 19, 20, 21, 22, 23, 24, 26, 27, 29]",251.9791712,4990,4569,16,572,10,1.0
basic,11,6,0,0,0,3,"[0, 7, 3]",3,25,"[1, 2, 4, 5, 6, 8, 9, 10, 11, 12, 13, 14, 15, 16, 17, 18, 19, 20, 21, 22, 23, 24, 26, 27, 29]",215.8405492,6854,1864,4,222,10,2.5102659609695053
basic,11,6,0,0,0,10,"[0, 7, 3, 10]",4,19,"[1, 2, 4, 5, 6, 8, 11, 13, 14, 16, 17, 18, 21, 22, 23, 24, 26, 27, 29]",164.5960373,10338,3484,1,19,10,1.605367416647119
basic,11,6,0,0,0,24,"[0, 7, 3, 10, 24]",5,17,"[1, 2, 4, 5, 6, 8, 11, 13, 14, 16, 17, 18, 22, 23, 26, 27, 29]",151.1796294,12064,1726,1,11,10,1.529604426171078
basic,11,6,0,0,0,17,"[0, 7, 3, 10, 24, 17]",6,10,"[1, 2, 6, 13, 16, 18, 22, 23, 26, 29]",121.9050671,13757,1693,1,8,10,2.5234417978742214
basic,11,6,0,0,0,18,"[0, 7, 3, 10, 24, 17, 18]",7,9,"[1, 2, 6, 13, 16, 22, 23, 26, 29]",107.9766788,17710,3953,1,5,10,3.153011539771486
basic,11,6,0,0,0,16,"[0, 7, 3, 10, 24, 17, 18, 16]",8,3,"[22, 23, 29]",84.63144375,20752,3042,1,2,10,2.983756891305415
basic,11,6,0,0,0,29,"[0, 7, 3, 10, 24, 17, 18, 16, 29]",9,1,[23],47.94357109,22712,1960,1,0,10,2.366544471543964
basic,11,6,0,0,1,23,"[0, 7, 3, 10, 24, 17, 18, 16, 29, 23]",10,0,[],0.425153609,27774,5062,1,0,10,2.232279078174027
basic,11,6,0,1,1,23,"[0, 7, 3, 10, 24, 17, 18, 16, 29, 23]",10,0,[],0.425153609,33214,5440,1,0,10,2.232279078174027
basic,12,34,0,0,0,0,[0],1,25,"[1, 3, 4, 5, 6, 7, 8, 9, 10, 11, 12, 13, 15, 18, 19, 20, 21, 22, 23, 24, 25, 26, 27, 28, 29]",300,298,-1,12,367,10,0.0
basic,12,34,0,0,0,13,"[0, 13]",2,24,"[1, 3, 4, 5, 6, 7, 8, 9, 10, 11, 12, 15, 18, 19, 20, 21, 22, 23, 24, 25, 26, 27, 28, 29]",279.9750156,8191,7893,12,331,10,1.0
basic,12,34,0,0,0,1,"[0, 13, 1]",3,16,"[3, 5, 7, 8, 9, 10, 11, 12, 19, 21, 22, 23, 24, 25, 27, 29]",211.8574701,9634,1443,3,92,10,1.0010381285747127
basic,12,34,0,0,0,8,"[0, 13, 1, 8]",4,14,"[3, 5, 7, 9, 10, 11, 12, 19, 22, 23, 24, 25, 27, 29]",201.0871405,10821,1187,2,54,10,1.1636807
basic,12,34,0,0,0,25,"[0, 13, 1, 8, 25]",5,12,"[3, 5, 7, 9, 10, 11, 12, 22, 23, 24, 27, 29]",183.999133,11720,899,2,28,10,1.1396208815936457
basic,12,34,0,0,0,24,"[0, 13, 1, 8, 25, 24]",6,11,"[3, 5, 7, 9, 10, 11, 12, 22, 23, 27, 29]",166.5062774,12755,1035,2,23,10,1.374180768736554
basic,12,34,0,0,0,12,"[0, 13, 1, 8, 25, 24, 12]",7,7,"[7, 9, 10, 11, 22, 23, 27]",115.4670767,18003,5248,1,8,10,1.4994254760835948
basic,12,34,0,0,0,7,"[0, 13, 1, 8, 25, 24, 12, 7]",8,5,"[9, 11, 22, 23, 27]",100.4337804,19240,1237,1,4,10,1.758992610425009
basic,12,34,0,0,0,23,"[0, 13, 1, 8, 25, 24, 12, 7, 23]",9,1,[27],72.27352467,20626,1386,1,0,10,2.399781305190153
basic,12,34,0,0,1,27,"[0, 13, 1, 8, 25, 24, 12, 7, 23, 27]",10,0,[],18.60789321,22047,1421,1,0,10,4.766619878750327
basic,12,34,0,1,1,27,"[0, 13, 1, 8, 25, 24, 12, 7, 23, 27]",10,0,[],18.60789321,77360,55313,1,0,10,4.766619878750327
basic,13,9,0,0,0,0,[0],1,27,"[1, 3, 4, 5, 6, 7, 8, 9, 10, 11, 13, 14, 15, 16, 17, 18, 19, 20, 21, 22, 23, 24, 25, 26, 27, 28, 29]",300,366,-1,2,182,10,0.0
basic,13,9,0,0,0,20,"[0, 20]",2,17,"[6, 7, 8, 9, 10, 15, 16, 17, 18, 19, 21, 22, 23, 25, 26, 27, 28]",173.3508784,11338,10972,1,42,8,1.0
basic,13,9,0,0,0,21,"[0, 20, 21]",3,15,"[7, 8, 9, 10, 15, 16, 17, 18, 19, 22, 23, 25, 26, 27, 28]",161.2678324,12385,1047,1,41,8,1.1704126573128746
basic,13,9,0,0,0,8,"[0, 20, 21, 8]",4,7,"[9, 10, 22, 23, 25, 26, 28]",101.5853392,14243,1858,9,10,7,3.1108802001302145
basic,13,9,0,0,0,23,"[0, 20, 21, 8, 23]",5,5,"[9, 10, 25, 26, 28]",80.11442864,15518,1275,4,3,7,3.6930791252279254
basic,13,9,0,0,0,9,"[0, 20, 21, 8, 23, 9]",6,2,"[26, 28]",57.75374886,16663,1145,2,0,7,3.2531664866110632
basic,13,9,0,0,1,28,"[0, 20, 21, 8, 23, 9, 28]",7,0,[],16.9370856,18156,1493,1,0,7,3.810934477183021
basic,13,9,0,1,1,28,"[0, 20, 21, 8, 23, 9, 28]",7,0,[],16.9370856,19768,1612,1,0,7,3.810934477183021
basic,14,25,0,0,0,0,[0],1,28,"[1, 2, 3, 4, 5, 7, 8, 9, 10, 11, 12, 13, 14, 15, 16, 17, 18, 19, 20, 21, 22, 23, 24, 25, 26, 27, 28, 29]",300,294,-1,5,94,10,0.0
basic,14,25,0,0,0,23,"[0, 23]",2,23,"[1, 2, 3, 5, 7, 8, 9, 11, 12, 13, 14, 16, 17, 19, 20, 21, 22, 24, 25, 26, 27, 28, 29]",259.7756293,5717,5423,3,33,10,1.0
basic,14,25,0,0,0,19,"[0, 23, 19]",3,21,"[1, 2, 3, 5, 7, 8, 9, 11, 12, 13, 14, 16, 17, 20, 21, 22, 24, 25, 27, 28, 29]",223.9287326,7289,1572,3,24,10,1.583101227007039
basic,14,25,0,0,0,29,"[0, 23, 19, 29]",4,19,"[1, 2, 3, 5, 7, 8, 9, 11, 12, 13, 14, 16, 17, 20, 21, 22, 24, 25, 28]",207.649912,8522,1233,3,17,10,1.474631541426484
basic,14,25,0,0,0,22,"[0, 23, 19, 29, 22]",5,18,"[1, 2, 3, 5, 7, 8, 9, 11, 12, 13, 14, 16, 17, 20, 21, 24, 25, 28]",191.5253965,9963,1441,3,14,10,1.4020377754906637
basic,14,25,0,0,0,7,"[0, 23, 19, 29, 22, 7]",6,7,"[3, 8, 9, 11, 13, 24, 28]",115.8814939,11485,1522,3,11,10,1.5709678649326715
basic,14,25,0,0,0,24,"[0, 23, 19, 29, 22, 7, 24]",7,5,"[3, 8, 9, 13, 28]",91.12265712,12805,1320,3,7,10,1.486191600033379
basic,14,25,0,0,0,9,"[0, 23, 19, 29, 22, 7, 24, 9]",8,4,"[3, 8, 13, 28]",73.09490075,14241,1436,3,3,10,1.453504870342882
basic,14,25,0,0,0,3,"[0, 23, 19, 29, 22, 7, 24, 9, 3]",9,3,"[8, 13, 28]",42.82940885,15850,1609,3,0,10,1.388955167525479
basic,14,25,0,0,1,13,"[0, 23, 19, 29, 22, 7, 24, 9, 3, 13]",10,0,[],11.58841014,17210,1360,1,0,10,1.4309045890044414
basic,14,25,0,1,1,13,"[0, 23, 19, 29, 22, 7, 24, 9, 3, 13]",10,0,[],11.58841014,18265,1055,1,0,10,1.4309045890044414
basic,15,20,0,0,0,0,[0],1,21,"[1, 2, 3, 4, 5, 6, 7, 8, 9, 12, 17, 18, 20, 21, 22, 23, 25, 26, 27, 28, 29]",300,250,-1,1,9,9,0.0
basic,15,20,0,0,0,1,"[0, 1]",2,14,"[3, 4, 5, 6, 8, 9, 12, 20, 21, 23, 26, 27, 28, 29]",197.3501096,10892,10642,1,9,8,1.0
basic,15,20,0,0,0,5,"[0, 1, 5]",3,12,"[4, 6, 8, 9, 12, 20, 21, 23, 26, 27, 28, 29]",160.675868,12700,1808,1,8,8,1.1088946720668915
basic,15,20,0,0,0,21,"[0, 1, 5, 21]",4,8,"[4, 6, 8, 9, 20, 23, 27, 28]",115.675868,14181,1481,1,6,8,1.0805828994591202
basic,15,20,0,0,0,8,"[0, 1, 5, 21, 8]",5,5,"[6, 9, 23, 27, 28]",98.21161876,15166,985,1,5,8,1.0976815296746363
basic,15,20,0,0,0,23,"[0, 1, 5, 21, 8, 23]",6,3,"[6, 9, 27]",53.52381281,16679,1513,1,2,8,1.0820667611140062
basic,15,20,0,0,0,9,"[0, 1, 5, 21, 8, 23, 9]",7,1,[6],34.3144401,18244,1565,1,0,8,1.0771429624373048
basic,15,20,0,0,1,6,"[0, 1, 5, 21, 8, 23, 9, 6]",8,0,[],11.29271124,19737,1493,1,0,8,1.0892675954154076
basic,15,20,0,1,1,6,"[0, 1, 5, 21, 8, 23, 9, 6]",8,0,[],11.29271124,21708,1971,1,0,8,1.0892675954154076
basic,16,42,0,0,0,0,[0],1,29,"[1, 2, 3, 4, 5, 6, 7, 8, 9, 10, 11, 12, 13, 14, 15, 16, 17, 18, 19, 20, 21, 22, 23, 24, 25, 26, 27, 28, 29]",300,265,-1,16,302,9,0.0
basic,16,42,0,0,0,5,"[0, 5]",2,28,"[1, 2, 3, 4, 6, 7, 8, 9, 10, 11, 12, 13, 14, 15, 16, 17, 18, 19, 20, 21, 22, 23, 24, 25, 26, 27, 28, 29]",191.2939744,11080,10815,1,22,9,1.0
basic,16,42,0,0,0,4,"[0, 5, 4]",3,23,"[1, 2, 3, 6, 7, 8, 9, 10, 11, 13, 15, 17, 18, 19, 20, 21, 22, 23, 24, 25, 26, 27, 29]",171.4445412,12437,1357,1,14,9,1.420957801478707
basic,16,42,0,0,0,22,"[0, 5, 4, 22]",4,20,"[1, 2, 3, 6, 7, 8, 9, 11, 15, 17, 18, 19, 20, 21, 23, 24, 25, 26, 27, 29]",160.2642013,13873,1436,1,11,9,1.5771494659680896
basic,16,42,0,0,0,8,"[0, 5, 4, 22, 8]",5,14,"[1, 2, 3, 6, 7, 11, 15, 18, 19, 24, 25, 26, 27, 29]",138.1282577,15263,1390,1,10,9,1.5055393955524201
basic,16,42,0,0,0,1,"[0, 5, 4, 22, 8, 1]",6,5,"[2, 7, 19, 26, 27]",89.03650682,16734,1471,1,7,9,1.3547259083637835
basic,16,42,0,0,0,27,"[0, 5, 4, 22, 8, 1, 27]",7,1,[26],30.82138851,19541,2807,1,0,8,1.262358902428909
basic,16,42,0,0,1,26,"[0, 5, 4, 22, 8, 1, 27, 26]",8,0,[],12.79363213,22261,2720,1,0,8,1.4505372114646464
basic,16,42,0,1,1,26,"[0, 5, 4, 22, 8, 1, 27, 26]",8,0,[],12.79363213,24796,2535,1,0,8,1.4505372114646464
basic,17,33,0,0,0,0,[0],1,23,"[1, 2, 5, 7, 8, 11, 12, 13, 14, 15, 16, 17, 18, 19, 20, 21, 23, 24, 25, 26, 27, 28, 29]",300,276,-1,5,108,9,0.0
basic,17,33,0,0,0,21,"[0, 21]",2,17,"[2, 5, 7, 8, 11, 13, 14, 16, 17, 18, 19, 20, 24, 26, 27, 28, 29]",174.4611614,5844,5568,21,129,8,1.0
basic,17,33,0,0,0,13,"[0, 21, 13]",3,15,"[2, 5, 7, 8, 11, 14, 16, 17, 18, 19, 20, 24, 26, 28, 29]",148.0604038,7456,1612,17,72,8,1.0001005298764474
basic,17,33,0,0,0,26,"[0, 21, 13, 26]",4,8,"[7, 11, 14, 17, 19, 20, 24, 29]",73.73678712,9438,1982,4,10,7,1.0000980854775965
basic,17,33,0,0,0,14,"[0, 21, 13, 26, 14]",5,4,"[7, 19, 24, 29]",61.08767648,11696,2258,3,3,7,1.1012591262849363
basic,17,33,0,0,0,7,"[0, 21, 13, 26, 14, 7]",6,3,"[19, 24, 29]",46.22160773,12944,1248,3,0,7,1.1908836346239835
basic,17,33,0,0,1,19,"[0, 21, 13, 26, 14, 7, 19]",7,0,[],0.603628819,14924,1980,1,0,7,1.7866531419601226
basic,17,33,0,1,1,19,"[0, 21, 13, 26, 14, 7, 19]",7,0,[],0.603628819,16320,1396,1,0,7,1.7866531419601226
basic,18,37,0,0,0,0,[0],1,29,"[1, 2, 3, 4, 5, 6, 7, 8, 9, 10, 11, 12, 13, 14, 15, 16, 17, 18, 19, 20, 21, 22, 23, 24, 25, 26, 27, 28, 29]",300,269,-1,6,168,10,0.0
basic,18,37,0,0,0,18,"[0, 18]",2,19,"[1, 2, 4, 6, 7, 9, 10, 12, 14, 15, 17, 19, 20, 21, 22, 23, 26, 28, 29]",202.4090168,4987,4718,6,89,10,1.0
basic,18,37,0,0,0,22,"[0, 18, 22]",3,9,"[1, 2, 4, 7, 15, 19, 20, 21, 26]",136.9720242,6605,1618,15,58,9,1.001057447339584
basic,18,37,0,0,0,4,"[0, 18, 22, 4]",4,8,"[1, 2, 7, 15, 19, 20, 21, 26]",111.9720242,7823,1218,8,28,9,1.1568597805027683
basic,18,37,0,0,0,2,"[0, 18, 22, 4, 2]",5,7,"[1, 7, 15, 19, 20, 21, 26]",100.57027,8958,1135,7,12,9,1.3192232340552885
basic,18,37,0,0,0,1,"[0, 18, 22, 4, 2, 1]",6,6,"[7, 15, 19, 20, 21, 26]",83.36561943,12400,3442,7,4,9,1.3683384389764814
basic,18,37,0,0,0,15,"[0, 18, 22, 4, 2, 1, 15]",7,3,"[20, 21, 26]",43.40313702,16572,4172,2,1,9,1.5420751881752959
basic,18,37,0,0,0,20,"[0, 18, 22, 4, 2, 1, 15, 20]",8,1,[21],26.40313702,18015,1443,1,0,9,1.8252369053550608
basic,18,37,0,0,1,21,"[0, 18, 22, 4, 2, 1, 15, 20, 21]",9,0,[],11.98093192,19295,1280,1,0,9,1.8558715556201628
basic,18,37,0,1,1,21,"[0, 18, 22, 4, 2, 1, 15, 20, 21]",9,0,[],11.98093192,21177,1882,1,0,9,1.8558715556201628
basic,19,15,0,0,0,0,[0],1,25,"[1, 2, 3, 4, 7, 8, 9, 10, 11, 12, 13, 14, 15, 16, 18, 20, 21, 22, 23, 24, 25, 26, 27, 28, 29]",300,291,-1,4,65,9,0.0
basic,19,15,0,0,0,16,"[0, 16]",2,16,"[3, 4, 7, 9, 10, 11, 12, 13, 14, 15, 18, 20, 21, 22, 25, 27]",185.8378346,10240,9949,22,104,7,1.0
basic,19,15,0,0,0,11,"[0, 16, 11]",3,13,"[3, 4, 7, 10, 12, 13, 14, 15, 18, 21, 22, 25, 27]",159.818611,11509,1269,10,29,7,1.1289542380807378
basic,19,15,0,0,0,3,"[0, 16, 11, 3]",4,12,"[4, 7, 10, 12, 13, 14, 15, 18, 21, 22, 25, 27]",148.4168567,12518,1009,10,12,7,1.14507593159006
basic,19,15,0,0,0,22,"[0, 16, 11, 3, 22]",5,6,"[4, 10, 13, 14, 15, 18]",98.68758969,15862,3344,4,4,7,1.1668569176120651
basic,19,15,0,0,0,15,"[0, 16, 11, 3, 22, 15]",6,2,"[13, 14]",73.07509274,16897,1035,2,0,7,1.1555413708932987
basic,19,15,0,0,1,13,"[0, 16, 11, 3, 22, 15, 13]",7,0,[],57.81075522,18804,1907,1,0,7,1.2088928499419171
basic,19,15,0,1,1,13,"[0, 16, 11, 3, 22, 15, 13]",7,0,[],57.81075522,21603,2799,1,0,7,1.2088928499419171
basic,20,3,0,0,0,0,[0],1,29,"[1, 2, 3, 4, 5, 6, 7, 8, 9, 10, 11, 12, 13, 14, 15, 16, 17, 18, 19, 20, 21, 22, 23, 24, 25, 26, 27, 28, 29]",300,315,-1,34,427,10,0.0
basic,20,3,0,0,0,17,"[0, 17]",2,16,"[3, 4, 7, 8, 10, 12, 14, 15, 16, 19, 20, 21, 22, 24, 26, 27]",197.6965299,16520,16205,2,27,9,1.0
basic,20,3,0,0,0,20,"[0, 17, 20]",3,13,"[3, 4, 7, 8, 10, 14, 15, 16, 19, 21, 22, 24, 27]",185.0474192,17636,1116,2,24,9,1.0153332121237257
basic,20,3,0,0,0,3,"[0, 17, 20, 3]",4,10,"[4, 7, 8, 10, 14, 15, 16, 19, 21, 24]",164.6513412,18907,1271,2,22,9,1.0819240770773468
basic,20,3,0,0,0,19,"[0, 17, 20, 3, 19]",5,6,"[4, 8, 10, 14, 21, 24]",127.3150318,20095,1188,2,11,9,1.1701070532957258
basic,20,3,0,0,0,21,"[0, 17, 20, 3, 19, 21]",6,5,"[4, 8, 10, 14, 24]",115.1084762,21176,1081,2,6,9,1.202395500952127
basic,20,3,0,0,0,14,"[0, 17, 20, 3, 19, 21, 14]",7,4,"[4, 8, 10, 24]",88.20122806,22844,1668,2,2,9,1.6456130302761207
basic,20,3,0,0,0,24,"[0, 17, 20, 3, 19, 21, 14, 24]",8,1,[8],17.08864127,24755,1911,1,0,9,4.806859660680286
basic,20,3,0,0,1,8,"[0, 17, 20, 3, 19, 21, 14, 24, 8]",9,0,[],4.923116212,25847,1092,1,0,9,4.915218144486606
basic,20,3,0,1,1,8,"[0, 17, 20, 3, 19, 21, 14, 24, 8]",9,0,[],4.923116212,27847,2000,1,0,9,4.915218144486606
basic,21,44,0,0,0,0,[0],1,29,"[1, 2, 3, 4, 5, 6, 7, 8, 9, 10, 11, 12, 13, 14, 15, 16, 17, 18, 19, 20, 21, 22, 23, 24, 25, 26, 27, 28, 29]",300,318,-1,13,126,7,0.0
basic,21,44,0,0,0,9,"[0, 9]",2,17,"[2, 4, 5, 7, 8, 10, 11, 12, 13, 14, 20, 22, 23, 24, 25, 26, 28]",141.32423,6638,6320,3,26,7,1.0
basic,21,44,0,0,0,4,"[0, 9, 4]",3,15,"[2, 5, 7, 8, 10, 11, 12, 14, 20, 22, 23, 24, 25, 26, 28]",121.6265143,9213,2575,3,21,7,1.0155532843148096
basic,21,44,0,0,0,7,"[0, 9, 4, 7]",4,10,"[2, 5, 11, 12, 14, 23, 24, 25, 26, 28]",90.61038951,10547,1334,3,9,7,1.0134022837125412
basic,21,44,0,0,0,23,"[0, 9, 4, 7, 23]",5,7,"[5, 12, 14, 24, 25, 26, 28]",71.50541634,12026,1479,3,4,7,1.043310757564056
basic,21,44,0,0,0,5,"[0, 9, 4, 7, 23, 5]",6,1,[25],24.08179353,13374,1348,1,0,7,1.0875233835918032
basic,21,44,0,0,1,25,"[0, 9, 4, 7, 23, 5, 25]",7,0,[],13.64148702,14489,1115,1,0,7,1.1344779809947538
basic,21,44,0,1,1,25,"[0, 9, 4, 7, 23, 5, 25]",7,0,[],13.64148702,15928,1439,1,0,7,1.1344779809947538
basic,22,45,0,0,0,0,[0],1,24,"[1, 2, 3, 4, 5, 6, 7, 9, 10, 11, 12, 14, 15, 16, 17, 19, 20, 21, 22, 23, 24, 25, 27, 29]",300,358,-1,6,248,10,0.0
basic,22,45,0,0,0,20,"[0, 20]",2,22,"[1, 2, 3, 4, 5, 6, 7, 9, 10, 11, 12, 14, 15, 16, 17, 19, 21, 22, 23, 24, 25, 29]",207.8642306,5399,5041,1,73,9,1.0
basic,22,45,0,0,0,10,"[0, 20, 10]",3,17,"[2, 3, 4, 6, 7, 9, 12, 14, 15, 16, 17, 19, 22, 23, 24, 25, 29]",151.783931,6918,1519,28,123,8,1.0072708862872697
basic,22,45,0,0,0,6,"[0, 20, 10, 6]",4,12,"[2, 3, 7, 9, 12, 14, 16, 22, 23, 24, 25, 29]",125.5351215,8222,1304,9,31,8,1.0129449322146298
basic,22,45,0,0,0,12,"[0, 20, 10, 6, 12]",5,6,"[2, 3, 7, 22, 25, 29]",105.4105098,9740,1518,6,7,8,1.0241552115789474
basic,22,45,0,0,0,22,"[0, 20, 10, 6, 12, 22]",6,3,"[2, 3, 29]",73.83520294,10838,1098,2,2,8,1.0643432296552389
basic,22,45,0,0,1,29,"[0, 20, 10, 6, 12, 22, 29]",7,0,[],19.34667204,12453,1615,1,0,7,1.7425498480166344
basic,22,45,0,1,1,29,"[0, 20, 10, 6, 12, 22, 29]",7,0,[],19.34667204,18794,6341,1,0,7,1.7425498480166344
undo,23,35,0,0,0,0,[0],1,29,"[1, 2, 3, 4, 5, 6, 7, 8, 9, 10, 11, 12, 13, 14, 15, 16, 17, 18, 19, 20, 21, 22, 23, 24, 25, 26, 27, 28, 29]",300,300,-1,5,236,11,0.0
undo,23,35,0,0,0,24,"[0, 24]",2,27,"[1, 2, 4, 5, 6, 7, 8, 9, 10, 11, 12, 13, 14, 15, 16, 17, 18, 19, 20, 21, 22, 23, 25, 26, 27, 28, 29]",268.9838752,4481,4181,49,512,10,1.0
undo,23,35,0,0,0,17,"[0, 24, 17]",3,26,"[1, 2, 4, 5, 6, 7, 8, 9, 10, 11, 12, 13, 14, 15, 16, 18, 19, 20, 21, 22, 23, 25, 26, 27, 28, 29]",257.2791753,5811,1330,33,238,10,1.0771477201815276
undo,23,35,0,0,0,1,"[0, 24, 17, 1]",4,25,"[2, 4, 5, 6, 7, 8, 9, 10, 11, 12, 13, 14, 15, 16, 18, 19, 20, 21, 22, 23, 25, 26, 27, 28, 29]",241.4677869,6959,1148,26,151,10,1.2244804141479215
undo,23,35,0,0,0,9,"[0, 24, 17, 1, 9]",5,13,"[2, 4, 5, 6, 15, 18, 19, 23, 25, 26, 27, 28, 29]",171.9408138,8525,1566,23,25,9,1.1391705391673446
undo,23,35,0,0,0,18,"[0, 24, 17, 1, 9, 18]",6,9,"[4, 5, 6, 15, 19, 23, 25, 27, 28]",151.9158294,9499,974,11,8,9,1.1512300765384265
undo,23,35,0,0,0,25,"[0, 24, 17, 1, 9, 18, 25]",7,3,"[5, 6, 23]",118.0779807,10640,1141,4,1,9,1.1233821517043756
undo,23,35,0,0,0,6,"[0, 24, 17, 1, 9, 18, 25, 6]",8,2,"[5, 23]",94.05715644,11742,1102,2,0,9,1.3618604674216885
undo,23,35,0,0,1,23,"[0, 24, 17, 1, 9, 18, 25, 6, 23]",9,0,[],48.4063076,14967,3225,1,0,9,2.3663755774656274
undo,23,35,1,0,0,6,"[0, 24, 17, 1, 9, 18, 25, 6]",8,2,"[5, 23]",94.05715644,23664,8697,2,0,9,1.3618604674216885
undo,23,35,1,0,0,25,"[0, 24, 17, 1, 9, 18, 25]",7,3,"[5, 6, 23]",118.0779807,23863,199,4,1,9,1.1233821517043756
undo,23,35,1,0,0,18,"[0, 24, 17, 1, 9, 18]",6,9,"[4, 5, 6, 15, 19, 23, 25, 27, 28]",151.9158294,24048,185,11,8,9,1.1512300765384265
undo,23,35,1,0,0,9,"[0, 24, 17, 1, 9]",5,13,"[2, 4, 5, 6, 15, 18, 19, 23, 25, 26, 27, 28, 29]",171.9408138,24231,183,23,25,9,1.1391705391673446
undo,23,35,1,0,0,1,"[0, 24, 17, 1]",4,25,"[2, 4, 5, 6, 7, 8, 9, 10, 11, 12, 13, 14, 15, 16, 18, 19, 20, 21, 22, 23, 25, 26, 27, 28, 29]",241.4677869,24395,164,26,151,10,1.2244804141479215
undo,23,35,1,0,0,17,"[0, 24, 17]",3,26,"[1, 2, 4, 5, 6, 7, 8, 9, 10, 11, 12, 13, 14, 15, 16, 18, 19, 20, 21, 22, 23, 25, 26, 27, 28, 29]",257.2791753,24574,179,33,238,10,1.0771477201815276
undo,23,35,1,0,0,24,"[0, 24]",2,27,"[1, 2, 4, 5, 6, 7, 8, 9, 10, 11, 12, 13, 14, 15, 16, 17, 18, 19, 20, 21, 22, 23, 25, 26, 27, 28, 29]",268.9838752,24817,243,49,512,10,1.0
undo,23,35,1,0,0,0,[0],1,29,"[1, 2, 3, 4, 5, 6, 7, 8, 9, 10, 11, 12, 13, 14, 15, 16, 17, 18, 19, 20, 21, 22, 23, 24, 25, 26, 27, 28, 29]",300,24968,151,5,236,11,0.0
undo,23,35,0,0,0,27,"[0, 27]",2,27,"[1, 2, 4, 5, 6, 7, 8, 9, 10, 11, 12, 13, 14, 15, 16, 17, 18, 19, 20, 21, 22, 23, 24, 25, 26, 28, 29]",278.7867966,27637,2669,5,144,11,1.0
undo,23,35,0,0,0,28,"[0, 27, 28]",3,18,"[1, 2, 5, 6, 7, 9, 10, 13, 15, 16, 17, 18, 19, 21, 23, 24, 25, 26]",240.707931,28806,1169,4,100,10,1.0168505943672008
undo,23,35,0,0,0,19,"[0, 27, 28, 19]",4,14,"[1, 2, 5, 6, 9, 10, 15, 17, 18, 21, 23, 24, 25, 26]",191.7896318,30241,1435,11,75,9,1.3148564374305836
undo,23,35,0,0,0,24,"[0, 27, 28, 19, 24]",5,9,"[1, 2, 5, 9, 15, 17, 18, 23, 26]",117.4592881,31758,1517,3,20,9,5.8853487613374895
undo,23,35,0,0,0,17,"[0, 27, 28, 19, 24, 17]",6,6,"[1, 5, 9, 15, 18, 23]",105.7545882,32932,1174,3,8,9,4.897634910968656
undo,23,35,0,0,0,1,"[0, 27, 28, 19, 24, 17, 1]",7,5,"[5, 9, 15, 18, 23]",89.94319985,34230,1298,3,3,9,4.394339868933799
undo,23,35,0,0,0,15,"[0, 27, 28, 19, 24, 17, 1, 15]",8,2,"[5, 23]",67.09588053,35553,1323,2,0,9,4.190522877836577
undo,23,35,0,0,1,23,"[0, 27, 28, 19, 24, 17, 1, 15, 23]",9,0,[],6.65582759,37431,1878,1,0,9,2.7590615597757737
undo,23,35,0,1,1,23,"[0, 27, 28, 19, 24, 17, 1, 15, 23]",9,0,[],6.65582759,39857,2426,1,0,9,2.7590615597757737
undo,24,11,0,0,0,0,[0],1,25,"[1, 2, 3, 4, 5, 6, 8, 9, 10, 11, 12, 13, 14, 15, 16, 17, 18, 19, 20, 22, 23, 25, 26, 27, 28]",300,307,-1,6,374,12,0.0
undo,24,11,0,0,0,27,"[0, 27]",2,21,"[1, 2, 4, 5, 6, 8, 9, 11, 12, 13, 14, 15, 16, 17, 18, 19, 20, 22, 23, 25, 28]",217.9939027,6525,6218,276,2000,10,1.0
undo,24,11,0,0,0,17,"[0, 27, 17]",3,15,"[1, 2, 4, 5, 6, 8, 11, 12, 15, 18, 19, 22, 23, 25, 28]",140.91602,7923,1398,82,451,10,1.0816284715013953
undo,24,11,0,0,0,8,"[0, 27, 17, 8]",4,13,"[1, 2, 4, 5, 6, 11, 12, 15, 18, 19, 22, 25, 28]",126.5981989,10365,2442,40,179,10,1.1941717730735368
undo,24,11,0,0,0,15,"[0, 27, 17, 8, 15]",5,10,"[2, 5, 6, 11, 12, 18, 19, 22, 25, 28]",113.1445749,12008,1643,33,59,10,1.1911530098609295
undo,24,11,0,0,0,11,"[0, 27, 17, 8, 15, 11]",6,7,"[2, 5, 6, 12, 19, 22, 28]",95.03380459,14493,2485,24,0,10,1.1822699434643233
undo,24,11,0,0,0,28,"[0, 27, 17, 8, 15, 11, 28]",7,3,"[2, 5, 22]",75.61731675,16216,1723,6,0,10,1.298485676789349
undo,24,11,0,0,0,5,"[0, 27, 17, 8, 15, 11, 28, 5]",8,2,"[2, 22]",57.72877293,17560,1344,2,0,10,1.4891315737471853
undo,24,11,0,0,0,2,"[0, 27, 17, 8, 15, 11, 28, 5, 2]",9,1,[22],40.72877293,18937,1377,1,0,10,1.4525967533063762
undo,24,11,0,0,1,22,"[0, 27, 17, 8, 15, 11, 28, 5, 2, 22]",10,0,[],30.67889731,20752,1815,1,0,10,1.4285028943538445
undo,24,11,1,0,0,2,"[0, 27, 17, 8, 15, 11, 28, 5, 2]",9,1,[22],40.72877293,26497,5745,1,0,10,1.4525967533063762
undo,24,11,1,0,0,5,"[0, 27, 17, 8, 15, 11, 28, 5]",8,2,"[2, 22]",57.72877293,26678,181,2,0,10,1.4891315737471853
undo,24,11,1,0,0,28,"[0, 27, 17, 8, 15, 11, 28]",7,3,"[2, 5, 22]",75.61731675,26855,177,6,0,10,1.298485676789349
undo,24,11,1,0,0,11,"[0, 27, 17, 8, 15, 11]",6,7,"[2, 5, 6, 12, 19, 22, 28]",95.03380459,26999,144,24,0,10,1.1822699434643233
undo,24,11,1,0,0,15,"[0, 27, 17, 8, 15]",5,10,"[2, 5, 6, 11, 12, 18, 19, 22, 25, 28]",113.1445749,27164,165,33,59,10,1.1911530098609295
undo,24,11,1,0,0,8,"[0, 27, 17, 8]",4,13,"[1, 2, 4, 5, 6, 11, 12, 15, 18, 19, 22, 25, 28]",126.5981989,27312,148,40,179,10,1.1941717730735368
undo,24,11,1,0,0,17,"[0, 27, 17]",3,15,"[1, 2, 4, 5, 6, 8, 11, 12, 15, 18, 19, 22, 23, 25, 28]",140.91602,27466,154,82,451,10,1.0816284715013953
undo,24,11,1,0,0,27,"[0, 27]",2,21,"[1, 2, 4, 5, 6, 8, 9, 11, 12, 13, 14, 15, 16, 17, 18, 19, 20, 22, 23, 25, 28]",217.9939027,27647,181,276,2000,10,1.0
undo,24,11,1,0,0,0,[0],1,25,"[1, 2, 3, 4, 5, 6, 8, 9, 10, 11, 12, 13, 14, 15, 16, 17, 18, 19, 20, 22, 23, 25, 26, 27, 28]",300,27801,154,6,374,12,0.0
undo,24,11,0,0,0,18,"[0, 18]",2,21,"[1, 2, 4, 5, 6, 8, 9, 11, 12, 13, 14, 15, 16, 17, 19, 20, 22, 23, 25, 27, 28]",236.8493864,30583,2782,157,1477,11,1.0
undo,24,11,0,0,0,27,"[0, 18, 27]",3,19,"[1, 2, 4, 5, 6, 8, 9, 11, 12, 14, 15, 16, 17, 19, 20, 22, 23, 25, 28]",212.9956655,31687,1104,157,1315,11,1.060949579704323
undo,24,11,0,0,0,17,"[0, 18, 27, 17]",4,14,"[1, 2, 4, 5, 6, 8, 11, 12, 15, 19, 22, 23, 25, 28]",135.9177828,33291,1604,46,349,11,1.1156120043677304
undo,24,11,0,0,0,8,"[0, 18, 27, 17, 8]",5,11,"[1, 2, 5, 6, 11, 12, 15, 19, 22, 25, 28]",121.5999617,34407,1116,26,143,11,1.2285932943120847
undo,24,11,0,0,0,15,"[0, 18, 27, 17, 8, 15]",6,9,"[2, 5, 6, 11, 12, 19, 22, 25, 28]",108.1463377,35548,1141,24,54,11,1.223015425852291
undo,24,11,0,0,0,11,"[0, 18, 27, 17, 8, 15, 11]",7,6,"[2, 5, 12, 19, 22, 28]",90.03556742,36983,1435,22,2,11,1.2111003833550413
undo,24,11,0,0,0,5,"[0, 18, 27, 17, 8, 15, 11, 5]",8,3,"[2, 22, 28]",54.80773752,38581,1598,5,1,11,1.5070858562662883
undo,24,11,0,0,0,28,"[0, 18, 27, 17, 8, 15, 11, 5, 28]",9,2,"[2, 22]",36.9191937,40072,1491,2,0,11,1.5224287982960607
undo,24,11,0,0,0,2,"[0, 18, 27, 17, 8, 15, 11, 5, 28, 2]",10,1,[22],26.28904788,41647,1575,1,0,11,1.5334969671993883
undo,24,11,0,0,1,22,"[0, 18, 27, 17, 8, 15, 11, 5, 28, 2, 22]",11,0,[],16.23917226,42890,1243,1,0,11,1.5050924702228456
undo,24,11,0,1,1,22,"[0, 18, 27, 17, 8, 15, 11, 5, 28, 2, 22]",11,0,[],16.23917226,46001,3111,1,0,11,1.5050924702228456
undo,25,9,0,0,0,0,[0],1,27,"[1, 3, 4, 5, 6, 7, 8, 9, 10, 11, 13, 14, 15, 16, 17, 18, 19, 20, 21, 22, 23, 24, 25, 26, 27, 28, 29]",300,414,-1,2,182,10,0.0
undo,25,9,0,0,0,9,"[0, 9]",2,26,"[1, 3, 4, 5, 6, 7, 8, 10, 11, 13, 14, 15, 16, 17, 18, 19, 20, 21, 22, 23, 24, 25, 26, 27, 28, 29]",225.5352432,8449,8035,2,101,9,1.0
undo,25,9,0,0,0,23,"[0, 9, 23]",3,22,"[1, 3, 4, 5, 7, 8, 10, 11, 13, 15, 16, 17, 18, 19, 20, 21, 22, 24, 25, 26, 27, 28]",203.1745635,9716,1267,2,70,9,1.6262276606762436
undo,25,9,0,0,0,8,"[0, 9, 23, 8]",4,18,"[3, 4, 5, 7, 10, 11, 15, 16, 17, 18, 19, 20, 21, 22, 25, 26, 27, 28]",181.7036529,11171,1455,1,36,9,1.8547307061753238
undo,25,9,0,0,0,28,"[0, 9, 23, 8, 28]",5,17,"[3, 4, 5, 7, 10, 11, 15, 16, 17, 18, 19, 20, 21, 22, 25, 26, 27]",170.8869991,12378,1207,1,23,9,1.7382749966569708
undo,25,9,0,0,0,10,"[0, 9, 23, 8, 28, 10]",6,8,"[4, 7, 20, 21, 22, 25, 26, 27]",113.8869991,16288,3910,1,6,9,3.4254571186260483
undo,25,9,0,0,0,21,"[0, 9, 23, 8, 28, 10, 21]",7,1,[20],36.05384419,20094,3806,1,0,8,2.2267793184044513
undo,25,9,0,0,1,20,"[0, 9, 23, 8, 28, 10, 21, 20]",8,0,[],23.97079822,21618,1524,1,0,8,2.1794797967051407
undo,25,9,1,0,0,21,"[0, 9, 23, 8, 28, 10, 21]",7,1,[20],36.05384419,26551,4933,1,0,8,2.2267793184044513
undo,25,9,1,0,0,10,"[0, 9, 23, 8, 28, 10]",6,8,"[4, 7, 20, 21, 22, 25, 26, 27]",113.8869991,27621,1070,1,6,9,3.4254571186260483
undo,25,9,1,0,0,28,"[0, 9, 23, 8, 28]",5,17,"[3, 4, 5, 7, 10, 11, 15, 16, 17, 18, 19, 20, 21, 22, 25, 26, 27]",170.8869991,27771,150,1,23,9,1.7382749966569708
undo,25,9,1,0,0,8,"[0, 9, 23, 8]",4,18,"[3, 4, 5, 7, 10, 11, 15, 16, 17, 18, 19, 20, 21, 22, 25, 26, 27, 28]",181.7036529,27939,168,1,36,9,1.8547307061753238
undo,25,9,1,0,0,23,"[0, 9, 23]",3,22,"[1, 3, 4, 5, 7, 8, 10, 11, 13, 15, 16, 17, 18, 19, 20, 21, 22, 24, 25, 26, 27, 28]",203.1745635,28107,168,2,70,9,1.6262276606762436
undo,25,9,1,0,0,9,"[0, 9]",2,26,"[1, 3, 4, 5, 6, 7, 8, 10, 11, 13, 14, 15, 16, 17, 18, 19, 20, 21, 22, 23, 24, 25, 26, 27, 28, 29]",225.5352432,28258,151,2,101,9,1.0
undo,25,9,1,0,0,0,[0],1,27,"[1, 3, 4, 5, 6, 7, 8, 9, 10, 11, 13, 14, 15, 16, 17, 18, 19, 20, 21, 22, 23, 24, 25, 26, 27, 28, 29]",300,28477,219,2,182,10,0.0
undo,25,9,0,0,0,9,"[0, 9]",2,26,"[1, 3, 4, 5, 6, 7, 8, 10, 11, 13, 14, 15, 16, 17, 18, 19, 20, 21, 22, 23, 24, 25, 26, 27, 28, 29]",225.5352432,31240,2763,2,101,9,1.0
undo,25,9,0,0,0,19,"[0, 9, 19]",3,12,"[1, 3, 5, 8, 13, 14, 15, 18, 23, 24, 26, 28]",129.5092051,33831,2591,7,14,7,1.0015363852518255
undo,25,9,0,0,0,1,"[0, 9, 19, 1]",4,3,"[5, 13, 24]",54.98404156,35317,1486,1,4,7,1.0010746420089733
undo,25,9,0,0,0,24,"[0, 9, 19, 1, 24]",5,2,"[5, 13]",33.98404156,36684,1367,1,1,7,1.0652490500507152
undo,25,9,0,0,0,13,"[0, 9, 19, 1, 24, 13]",6,1,[5],16.49118588,37878,1194,1,0,7,1.217493875056263
undo,25,9,0,0,1,5,"[0, 9, 19, 1, 24, 13, 5]",7,0,[],1.226848357,39208,1330,1,0,7,1.3419640149197876
undo,25,9,1,0,0,13,"[0, 9, 19, 1, 24, 13]",6,1,[5],16.49118588,43145,3937,1,0,7,1.217493875056263
undo,25,9,1,0,0,24,"[0, 9, 19, 1, 24]",5,2,"[5, 13]",33.98404156,43313,168,1,1,7,1.0652490500507152
undo,25,9,1,0,0,1,"[0, 9, 19, 1]",4,3,"[5, 13, 24]",54.98404156,43499,186,1,4,7,1.0010746420089733
undo,25,9,1,0,0,19,"[0, 9, 19]",3,12,"[1, 3, 5, 8, 13, 14, 15, 18, 23, 24, 26, 28]",129.5092051,43849,350,7,14,7,1.0015363852518255
undo,25,9,1,0,0,9,"[0, 9]",2,26,"[1, 3, 4, 5, 6, 7, 8, 10, 11, 13, 14, 15, 16, 17, 18, 19, 20, 21, 22, 23, 24, 25, 26, 27, 28, 29]",225.5352432,44022,173,2,101,9,1.0
undo,25,9,1,0,0,0,[0],1,27,"[1, 3, 4, 5, 6, 7, 8, 9, 10, 11, 13, 14, 15, 16, 17, 18, 19, 20, 21, 22, 23, 24, 25, 26, 27, 28, 29]",300,44184,162,2,182,10,0.0
undo,25,9,0,0,0,9,"[0, 9]",2,26,"[1, 3, 4, 5, 6, 7, 8, 10, 11, 13, 14, 15, 16, 17, 18, 19, 20, 21, 22, 23, 24, 25, 26, 27, 28, 29]",225.5352432,50976,6792,2,101,9,1.0
undo,25,9,0,0,0,23,"[0, 9, 23]",3,22,"[1, 3, 4, 5, 7, 8, 10, 11, 13, 15, 16, 17, 18, 19, 20, 21, 22, 24, 25, 26, 27, 28]",203.1745635,52182,1206,2,70,9,1.6262276606762436
undo,25,9,0,0,0,8,"[0, 9, 23, 8]",4,18,"[3, 4, 5, 7, 10, 11, 15, 16, 17, 18, 19, 20, 21, 22, 25, 26, 27, 28]",181.7036529,53194,1012,1,36,9,1.8547307061753238
undo,25,9,0,0,0,28,"[0, 9, 23, 8, 28]",5,17,"[3, 4, 5, 7, 10, 11, 15, 16, 17, 18, 19, 20, 21, 22, 25, 26, 27]",170.8869991,56389,3195,1,23,9,1.7382749966569708
undo,25,9,0,0,0,26,"[0, 9, 23, 8, 28, 26]",6,10,"[3, 5, 10, 15, 16, 18, 19, 20, 21, 25]",126.1097727,57773,1384,4,7,8,1.4884719959249546
undo,25,9,0,0,0,21,"[0, 9, 23, 8, 28, 26, 21]",7,1,[20],72.20244484,60001,2228,1,0,8,1.9218119811471304
undo,25,9,1,0,0,26,"[0, 9, 23, 8, 28, 26]",6,10,"[3, 5, 10, 15, 16, 18, 19, 20, 21, 25]",126.1097727,64533,4532,4,7,8,1.4884719959249546
undo,25,9,1,0,0,28,"[0, 9, 23, 8, 28]",5,17,"[3, 4, 5, 7, 10, 11, 15, 16, 17, 18, 19, 20, 21, 22, 25, 26, 27]",170.8869991,64672,139,1,23,9,1.7382749966569708
undo,25,9,1,0,0,8,"[0, 9, 23, 8]",4,18,"[3, 4, 5, 7, 10, 11, 15, 16, 17, 18, 19, 20, 21, 22, 25, 26, 27, 28]",181.7036529,64837,165,1,36,9,1.8547307061753238
undo,25,9,1,0,0,23,"[0, 9, 23]",3,22,"[1, 3, 4, 5, 7, 8, 10, 11, 13, 15, 16, 17, 18, 19, 20, 21, 22, 24, 25, 26, 27, 28]",203.1745635,64993,156,2,70,9,1.6262276606762436
undo,25,9,1,0,0,9,"[0, 9]",2,26,"[1, 3, 4, 5, 6, 7, 8, 10, 11, 13, 14, 15, 16, 17, 18, 19, 20, 21, 22, 23, 24, 25, 26, 27, 28, 29]",225.5352432,65138,145,2,101,9,1.0
undo,25,9,1,0,0,0,[0],1,27,"[1, 3, 4, 5, 6, 7, 8, 9, 10, 11, 13, 14, 15, 16, 17, 18, 19, 20, 21, 22, 23, 24, 25, 26, 27, 28, 29]",300,65324,186,2,182,10,0.0
undo,25,9,0,0,0,7,"[0, 7]",2,19,"[3, 4, 5, 8, 9, 10, 11, 16, 17, 18, 19, 20, 21, 22, 23, 25, 26, 27, 28]",258.4067313,67639,2315,39,322,9,1.0
undo,25,9,0,0,0,25,"[0, 7, 25]",3,16,"[3, 4, 8, 9, 10, 11, 17, 18, 19, 20, 21, 22, 23, 26, 27, 28]",205.3972982,69154,1515,3,95,9,3.9281633832206353
undo,25,9,0,0,0,9,"[0, 7, 25, 9]",4,10,"[3, 8, 10, 18, 19, 20, 21, 23, 26, 28]",115.3473121,71065,1911,6,21,8,2.4797326402866378
undo,25,9,0,0,0,23,"[0, 7, 25, 9, 23]",5,6,"[8, 10, 20, 21, 26, 28]",92.9866323,72435,1370,6,8,8,3.476884554850234
undo,25,9,0,0,0,8,"[0, 7, 25, 9, 23, 8]",6,5,"[10, 20, 21, 26, 28]",71.51572174,74425,1990,3,4,8,3.582332144279111
undo,25,9,0,0,0,28,"[0, 7, 25, 9, 23, 8, 28]",7,3,"[10, 21, 26]",60.69906792,75692,1267,3,0,8,3.2217578711035286
undo,25,9,0,0,1,26,"[0, 7, 25, 9, 23, 8, 28, 26]",8,0,[],15.92184156,77508,1816,1,0,8,2.4316627222665796
undo,25,9,0,1,1,26,"[0, 7, 25, 9, 23, 8, 28, 26]",8,0,[],15.92184156,82161,4653,1,0,8,2.4316627222665796
undo,26,32,0,0,0,0,[0],1,29,"[1, 2, 3, 4, 5, 6, 7, 8, 9, 10, 11, 12, 13, 14, 15, 16, 17, 18, 19, 20, 21, 22, 23, 24, 25, 26, 27, 28, 29]",300,403,-1,17,359,10,0.0
undo,26,32,0,0,0,15,"[0, 15]",2,24,"[2, 3, 4, 5, 6, 7, 8, 9, 10, 11, 12, 13, 14, 16, 17, 19, 20, 22, 23, 24, 25, 26, 27, 28]",214.6185032,5445,5042,11,153,9,1.0
undo,26,32,0,0,0,28,"[0, 15, 28]",3,21,"[2, 3, 5, 7, 8, 9, 10, 11, 12, 13, 14, 16, 17, 19, 20, 22, 23, 24, 25, 26, 27]",203.2167489,6771,1326,11,119,9,1.000160051986942
undo,26,32,0,0,0,12,"[0, 15, 28, 12]",4,19,"[2, 3, 5, 7, 8, 9, 10, 11, 13, 16, 17, 19, 20, 22, 23, 24, 25, 26, 27]",184.243083,7766,995,8,71,9,1.0281484763748023
undo,26,32,0,0,0,16,"[0, 15, 28, 12, 16]",5,17,"[2, 3, 5, 7, 8, 9, 10, 11, 13, 17, 19, 20, 22, 23, 24, 26, 27]",168.5906071,8766,1000,6,38,9,1.1190771370096
undo,26,32,0,0,0,22,"[0, 15, 28, 12, 16, 22]",6,10,"[2, 3, 5, 8, 9, 10, 11, 17, 20, 27]",134.7527585,11677,2911,4,16,9,1.1702311155319893
undo,26,32,0,0,0,9,"[0, 15, 28, 12, 16, 22, 9]",7,6,"[2, 8, 10, 17, 20, 27]",112.5491552,13168,1491,2,4,9,1.2381424719932013
undo,26,32,0,0,0,2,"[0, 15, 28, 12, 16, 22, 9, 2]",8,1,[17],61.46099608,18682,5514,1,0,9,1.6446273109221003
undo,26,32,0,0,1,17,"[0, 15, 28, 12, 16, 22, 9, 2, 17]",9,0,[],21.64893761,20483,1801,1,0,9,2.46318728800517
undo,26,32,0,1,1,17,"[0, 15, 28, 12, 16, 22, 9, 2, 17]",9,0,[],21.64893761,21475,992,1,0,9,2.46318728800517
undo,27,10,0,0,0,0,[0],1,29,"[1, 2, 3, 4, 5, 6, 7, 8, 9, 10, 11, 12, 13, 14, 15, 16, 17, 18, 19, 20, 21, 22, 23, 24, 25, 26, 27, 28, 29]",300,275,-1,1,100,9,0.0
undo,27,10,0,0,0,13,"[0, 13]",2,25,"[1, 2, 3, 4, 6, 7, 8, 9, 10, 11, 12, 14, 17, 18, 19, 20, 21, 22, 23, 24, 25, 26, 27, 28, 29]",249.4628849,5453,5178,1,79,9,1.0
undo,27,10,0,0,0,11,"[0, 13, 11]",3,20,"[1, 2, 3, 6, 7, 8, 9, 10, 12, 14, 18, 19, 20, 21, 22, 24, 26, 27, 28, 29]",206.4512586,6481,1028,1,54,9,1.0313137484914219
undo,27,10,0,0,0,19,"[0, 13, 11, 19]",4,11,"[2, 6, 8, 9, 10, 14, 18, 20, 24, 26, 27]",170.0919407,7844,1363,1,22,9,1.0879446220132545
undo,27,10,0,0,0,2,"[0, 13, 11, 19, 2]",5,4,"[14, 20, 26, 27]",126.1829439,9143,1299,1,4,9,1.06474052351343
undo,27,10,0,0,0,14,"[0, 13, 11, 19, 2, 14]",6,3,"[20, 26, 27]",114.0174188,10197,1054,1,3,9,1.1628909195912238
undo,27,10,0,0,0,26,"[0, 13, 11, 19, 2, 14, 26]",7,2,"[20, 27]",79.34754716,13611,3414,1,1,9,1.6660727647633602
undo,27,10,0,0,0,20,"[0, 13, 11, 19, 2, 14, 26, 20]",8,1,[27],47.56704999,14927,1316,1,0,9,2.085581809637999
undo,27,10,0,0,1,27,"[0, 13, 11, 19, 2, 14, 26, 20, 27]",9,0,[],2.312215998,16450,1523,1,0,9,1.9116357409137932
undo,27,10,0,1,1,27,"[0, 13, 11, 19, 2, 14, 26, 20, 27]",9,0,[],2.312215998,18378,1928,1,0,9,1.9116357409137932
undo,28,37,0,0,0,0,[0],1,29,"[1, 2, 3, 4, 5, 6, 7, 8, 9, 10, 11, 12, 13, 14, 15, 16, 17, 18, 19, 20, 21, 22, 23, 24, 25, 26, 27, 28, 29]",300,306,-1,6,168,10,0.0
undo,28,37,0,0,0,18,"[0, 18]",2,19,"[1, 2, 4, 6, 7, 9, 10, 12, 14, 15, 17, 19, 20, 21, 22, 23, 26, 28, 29]",202.4090168,5207,4901,6,89,10,1.0
undo,28,37,0,0,0,22,"[0, 18, 22]",3,9,"[1, 2, 4, 7, 15, 19, 20, 21, 26]",136.9720242,6745,1538,15,58,9,1.001057447339584
undo,28,37,0,0,0,4,"[0, 18, 22, 4]",4,8,"[1, 2, 7, 15, 19, 20, 21, 26]",111.9720242,8107,1362,8,28,9,1.1568597805027683
undo,28,37,0,0,0,2,"[0, 18, 22, 4, 2]",5,7,"[1, 7, 15, 19, 20, 21, 26]",100.57027,9409,1302,7,12,9,1.3192232340552885
undo,28,37,0,0,0,1,"[0, 18, 22, 4, 2, 1]",6,6,"[7, 15, 19, 20, 21, 26]",83.36561943,10610,1201,7,4,9,1.3683384389764814
undo,28,37,0,0,0,15,"[0, 18, 22, 4, 2, 1, 15]",7,3,"[20, 21, 26]",43.40313702,12135,1525,2,1,9,1.5420751881752959
undo,28,37,0,0,0,21,"[0, 18, 22, 4, 2, 1, 15, 21]",8,1,[20],28.40313702,13479,1344,1,0,9,1.7500538973351742
undo,28,37,0,0,1,20,"[0, 18, 22, 4, 2, 1, 15, 21, 20]",9,0,[],13.98093192,15705,2226,1,0,9,1.9081087151684184
undo,28,37,0,1,1,20,"[0, 18, 22, 4, 2, 1, 15, 21, 20]",9,0,[],13.98093192,17971,2266,1,0,9,1.9081087151684184
undo,29,24,0,0,0,0,[0],1,29,"[1, 2, 3, 4, 5, 6, 7, 8, 9, 10, 11, 12, 13, 14, 15, 16, 17, 18, 19, 20, 21, 22, 23, 24, 25, 26, 27, 28, 29]",300,216,-1,4,76,10,0.0
undo,29,24,0,0,0,16,"[0, 16]",2,28,"[1, 2, 3, 4, 5, 6, 7, 8, 9, 10, 11, 12, 13, 14, 15, 17, 18, 19, 20, 21, 22, 23, 24, 25, 26, 27, 28, 29]",210.3562607,3316,3100,13,110,9,1.0
undo,29,24,0,0,0,22,"[0, 16, 22]",3,27,"[1, 2, 3, 4, 5, 6, 7, 8, 9, 10, 11, 12, 13, 14, 15, 17, 18, 19, 20, 21, 23, 24, 25, 26, 27, 28, 29]",192.3285043,4480,1164,7,54,9,1.0217425143037777
undo,29,24,0,0,0,8,"[0, 16, 22, 8]",4,21,"[1, 2, 3, 4, 6, 9, 10, 11, 13, 14, 15, 17, 20, 21, 23, 24, 25, 26, 27, 28, 29]",178.9120964,5487,1007,4,28,9,1.0996636936037951
undo,29,24,0,0,0,15,"[0, 16, 22, 8, 15]",5,16,"[3, 4, 6, 9, 10, 11, 13, 14, 17, 23, 24, 25, 26, 27, 28, 29]",148.025206,6765,1278,3,17,9,1.2704773343758617
undo,29,24,0,0,0,28,"[0, 16, 22, 8, 15, 28]",6,8,"[3, 4, 9, 11, 13, 23, 26, 27]",102.7482803,9612,2847,3,5,9,1.1981967578189556
undo,29,24,0,0,0,23,"[0, 16, 22, 8, 15, 28, 23]",7,3,"[9, 11, 27]",83.72198273,10567,955,3,1,9,1.2275650852813986
undo,29,24,0,0,0,11,"[0, 16, 22, 8, 15, 28, 23, 11]",8,2,"[9, 27]",56.79615869,13482,2915,2,0,9,1.2107937989822568
undo,29,24,0,0,1,9,"[0, 16, 22, 8, 15, 28, 23, 11, 9]",9,0,[],24.5471277,15393,1911,1,0,9,1.2976612913524237
undo,29,24,1,0,0,11,"[0, 16, 22, 8, 15, 28, 23, 11]",8,2,"[9, 27]",56.79615869,21230,5837,2,0,9,1.2107937989822568
undo,29,24,1,0,0,23,"[0, 16, 22, 8, 15, 28, 23]",7,3,"[9, 11, 27]",83.72198273,21404,174,3,1,9,1.2275650852813986
undo,29,24,1,0,0,28,"[0, 16, 22, 8, 15, 28]",6,8,"[3, 4, 9, 11, 13, 23, 26, 27]",102.7482803,21555,151,3,5,9,1.1981967578189556
undo,29,24,1,0,0,15,"[0, 16, 22, 8, 15]",5,16,"[3, 4, 6, 9, 10, 11, 13, 14, 17, 23, 24, 25, 26, 27, 28, 29]",148.025206,21694,139,3,17,9,1.2704773343758617
undo,29,24,1,0,0,8,"[0, 16, 22, 8]",4,21,"[1, 2, 3, 4, 6, 9, 10, 11, 13, 14, 15, 17, 20, 21, 23, 24, 25, 26, 27, 28, 29]",178.9120964,21837,143,4,28,9,1.0996636936037951
undo,29,24,1,0,0,22,"[0, 16, 22]",3,27,"[1, 2, 3, 4, 5, 6, 7, 8, 9, 10, 11, 12, 13, 14, 15, 17, 18, 19, 20, 21, 23, 24, 25, 26, 27, 28, 29]",192.3285043,21997,160,7,54,9,1.0217425143037777
undo,29,24,1,0,0,16,"[0, 16]",2,28,"[1, 2, 3, 4, 5, 6, 7, 8, 9, 10, 11, 12, 13, 14, 15, 17, 18, 19, 20, 21, 22, 23, 24, 25, 26, 27, 28, 29]",210.3562607,22156,159,13,110,9,1.0
undo,29,24,1,0,0,0,[0],1,29,"[1, 2, 3, 4, 5, 6, 7, 8, 9, 10, 11, 12, 13, 14, 15, 16, 17, 18, 19, 20, 21, 22, 23, 24, 25, 26, 27, 28, 29]",300,22324,168,4,76,10,0.0
undo,29,24,0,0,0,14,"[0, 14]",2,27,"[1, 2, 3, 4, 5, 6, 8, 9, 10, 11, 12, 13, 15, 16, 17, 18, 19, 20, 21, 22, 23, 24, 25, 26, 27, 28, 29]",278.0455016,24759,2435,4,54,10,1.0
undo,29,24,0,0,0,16,"[0, 14, 16]",3,25,"[2, 3, 4, 5, 6, 8, 9, 10, 11, 12, 13, 15, 17, 18, 19, 20, 21, 22, 23, 24, 25, 26, 27, 28, 29]",188.9949542,26147,1388,4,31,10,1.238291113657358
undo,29,24,0,0,0,22,"[0, 14, 16, 22]",4,20,"[2, 3, 4, 6, 8, 9, 10, 11, 13, 15, 17, 20, 21, 23, 24, 25, 26, 27, 28, 29]",170.9671978,27116,969,2,14,10,1.2244494133788653
undo,29,24,0,0,0,8,"[0, 14, 16, 22, 8]",5,15,"[2, 3, 4, 6, 9, 10, 11, 13, 15, 23, 24, 26, 27, 28, 29]",157.5507899,28135,1019,2,10,10,1.2936570860700658
undo,29,24,0,0,0,15,"[0, 14, 16, 22, 8, 15]",6,11,"[3, 4, 6, 9, 10, 11, 23, 26, 27, 28, 29]",126.6638995,29724,1589,2,8,10,1.4490533667994079
undo,29,24,0,0,0,28,"[0, 14, 16, 22, 8, 15, 28]",7,5,"[4, 9, 11, 23, 27]",81.3869738,30923,1199,2,5,10,1.3279550596984244
undo,29,24,0,0,0,23,"[0, 14, 16, 22, 8, 15, 28, 23]",8,3,"[9, 11, 27]",62.36067621,32135,1212,2,2,10,1.3488090026750466
undo,29,24,0,0,0,11,"[0, 14, 16, 22, 8, 15, 28, 23, 11]",9,2,"[9, 27]",35.43485217,33279,1144,2,0,10,1.31714136871331
undo,29,24,0,0,1,27,"[0, 14, 16, 22, 8, 15, 28, 23, 11, 27]",10,0,[],7.631974625,34716,1437,1,0,10,1.2800893038140084
undo,29,24,0,1,1,27,"[0, 14, 16, 22, 8, 15, 28, 23, 11, 27]",10,0,[],7.631974625,36946,2230,1,0,10,1.2800893038140084
undo,30,16,0,0,0,0,[0],1,29,"[1, 2, 3, 4, 5, 6, 7, 8, 9, 10, 11, 12, 13, 14, 15, 16, 17, 18, 19, 20, 21, 22, 23, 24, 25, 26, 27, 28, 29]",300,309,-1,13,161,9,0.0
undo,30,16,0,0,0,17,"[0, 17]",2,27,"[1, 2, 3, 4, 5, 7, 8, 9, 10, 11, 12, 13, 14, 15, 16, 18, 19, 20, 21, 22, 23, 24, 25, 26, 27, 28, 29]",241.3058776,6767,6458,2,58,9,1.0
undo,30,16,0,0,0,16,"[0, 17, 16]",3,26,"[1, 2, 3, 4, 5, 7, 8, 9, 10, 11, 12, 13, 14, 15, 18, 19, 20, 21, 22, 23, 24, 25, 26, 27, 28, 29]",212.9862731,9516,2749,2,52,9,1.0529535521792848
undo,30,16,0,0,0,21,"[0, 17, 16, 21]",4,19,"[3, 5, 7, 8, 9, 10, 12, 14, 15, 19, 20, 22, 23, 24, 25, 26, 27, 28, 29]",168.332046,10737,1221,9,18,8,1.5524765786046826
undo,30,16,0,0,0,8,"[0, 17, 16, 21, 8]",5,7,"[3, 5, 9, 12, 15, 20, 25]",119.0776046,12083,1346,9,6,8,1.458624751458944
undo,30,16,0,0,0,20,"[0, 17, 16, 21, 8, 20]",6,3,"[9, 15, 25]",61.30217727,13580,1497,4,1,8,1.3191752290945782
undo,30,16,0,0,0,25,"[0, 17, 16, 21, 8, 20, 25]",7,2,"[9, 15]",48.65306663,14623,1043,2,0,8,1.3641436248537882
undo,30,16,0,0,1,9,"[0, 17, 16, 21, 8, 20, 25, 9]",8,0,[],35.84681815,15739,1116,1,0,8,1.3406027753205443
undo,30,16,0,1,1,9,"[0, 17, 16, 21, 8, 20, 25, 9]",8,0,[],35.84681815,20312,4573,1,0,8,1.3406027753205443
undo,31,28,0,0,0,0,[0],1,27,"[1, 2, 3, 4, 5, 6, 7, 8, 9, 10, 11, 12, 13, 14, 15, 16, 17, 18, 19, 20, 22, 23, 25, 26, 27, 28, 29]",300,345,-1,2,96,9,0.0
undo,31,28,0,0,0,3,"[0, 3]",2,26,"[1, 2, 4, 5, 6, 7, 8, 9, 10, 11, 12, 13, 14, 15, 16, 17, 18, 19, 20, 22, 23, 25, 26, 27, 28, 29]",251.0817008,6253,5908,1,64,9,1.0
undo,31,28,0,0,0,14,"[0, 3, 14]",3,13,"[1, 2, 5, 7, 10, 11, 12, 13, 17, 18, 19, 20, 26]",142.7396498,8061,1808,19,59,8,1.0338694802207566
undo,31,28,0,0,0,18,"[0, 3, 14, 18]",4,10,"[1, 2, 5, 7, 11, 12, 13, 17, 19, 26]",117.2445523,9390,1329,18,18,8,1.098527225277385
undo,31,28,0,0,0,13,"[0, 3, 14, 18, 13]",5,7,"[2, 7, 11, 12, 17, 19, 26]",92.83144103,10434,1044,8,6,8,1.0872780601597938
undo,31,28,0,0,0,12,"[0, 3, 14, 18, 13, 12]",6,3,"[2, 7, 19]",75.6267905,11805,1371,3,1,8,1.0890748557820906
undo,31,28,0,0,0,7,"[0, 3, 14, 18, 13, 12, 7]",7,2,"[2, 19]",62.47384406,13439,1634,2,0,8,1.2125627495730145
undo,31,28,0,0,1,19,"[0, 3, 14, 18, 13, 12, 7, 19]",8,0,[],34.74299481,14711,1272,1,0,8,1.4527925513951803
undo,31,28,0,1,1,19,"[0, 3, 14, 18, 13, 12, 7, 19]",8,0,[],34.74299481,19024,4313,1,0,8,1.4527925513951803
undo,32,43,0,0,0,0,[0],1,23,"[1, 2, 3, 4, 5, 6, 7, 9, 10, 11, 12, 14, 15, 16, 17, 19, 20, 21, 22, 23, 25, 27, 29]",300,387,-1,16,556,12,0.0
undo,32,43,0,0,0,25,"[0, 25]",2,19,"[1, 2, 3, 4, 5, 6, 7, 9, 11, 12, 14, 15, 16, 19, 20, 21, 22, 23, 29]",220.6904798,9331,8944,8,323,10,1.0
undo,32,43,0,0,0,3,"[0, 25, 3]",3,17,"[1, 2, 4, 5, 6, 7, 9, 11, 12, 14, 15, 16, 19, 20, 22, 23, 29]",183.8123019,11561,2230,39,356,9,1.0429758604249812
undo,32,43,0,0,0,12,"[0, 25, 3, 12]",4,15,"[1, 2, 4, 6, 7, 9, 11, 14, 15, 16, 19, 20, 22, 23, 29]",170.8123019,12662,1101,38,192,9,1.306794236968133
undo,32,43,0,0,0,15,"[0, 25, 3, 12, 15]",5,14,"[1, 2, 4, 6, 7, 9, 11, 14, 16, 19, 20, 22, 23, 29]",151.499094,14068,1406,32,85,9,1.7960899230078256
undo,32,43,0,0,0,29,"[0, 25, 3, 12, 15, 29]",6,3,"[11, 16, 20]",87.71821914,17833,3765,1,3,9,9.609544700697265
undo,32,43,0,0,0,20,"[0, 25, 3, 12, 15, 29, 20]",7,2,"[11, 16]",64.28747012,19291,1458,1,1,9,5.604266158566039
undo,32,43,0,0,0,16,"[0, 25, 3, 12, 15, 29, 20, 16]",8,1,[11],41.66005312,20675,1384,1,0,9,4.606607825834207
undo,32,43,0,0,1,11,"[0, 25, 3, 12, 15, 29, 20, 16, 11]",9,0,[],6.531716977,21975,1300,1,0,9,3.2249261870659343
undo,32,43,0,1,1,11,"[0, 25, 3, 12, 15, 29, 20, 16, 11]",9,0,[],6.531716977,23572,1597,1,0,9,3.2249261870659343
undo,33,13,0,0,0,0,[0],1,29,"[1, 2, 3, 4, 5, 6, 7, 8, 9, 10, 11, 12, 13, 14, 15, 16, 17, 18, 19, 20, 21, 22, 23, 24, 25, 26, 27, 28, 29]",300,314,-1,60,2676,11,0.0
undo,33,13,0,0,0,28,"[0, 28]",2,24,"[1, 2, 3, 4, 6, 7, 8, 9, 10, 11, 12, 13, 15, 16, 17, 19, 20, 21, 22, 23, 24, 26, 27, 29]",226.3182519,4680,4366,12,378,10,1.0
undo,33,13,1,0,0,0,[0],1,29,"[1, 2, 3, 4, 5, 6, 7, 8, 9, 10, 11, 12, 13, 14, 15, 16, 17, 18, 19, 20, 21, 22, 23, 24, 25, 26, 27, 28, 29]",300,7599,2919,60,2676,11,0.0
undo,33,13,0,0,0,24,"[0, 24]",2,28,"[1, 2, 3, 4, 5, 6, 7, 8, 9, 10, 11, 12, 13, 14, 15, 16, 17, 18, 19, 20, 21, 22, 23, 25, 26, 27, 28, 29]",288.8196601,9117,1518,16,1444,11,1.0
undo,33,13,0,0,0,28,"[0, 24, 28]",3,23,"[1, 2, 3, 4, 6, 7, 8, 9, 10, 11, 12, 13, 15, 16, 17, 19, 20, 21, 22, 23, 26, 27, 29]",222.5324064,10216,1099,8,243,11,1.0513810491680837
undo,33,13,0,0,0,2,"[0, 24, 28, 2]",4,19,"[1, 3, 4, 6, 7, 9, 11, 12, 13, 15, 16, 17, 19, 20, 21, 23, 26, 27, 29]",184.889346,11357,1141,7,110,11,1.050374132001543
undo,33,13,0,0,0,29,"[0, 24, 28, 2, 29]",5,18,"[1, 3, 4, 6, 7, 9, 11, 12, 13, 15, 16, 17, 19, 20, 21, 23, 26, 27]",173.1846461,12256,899,7,85,11,1.1393409619120594
undo,33,13,0,0,0,7,"[0, 24, 28, 2, 29, 7]",6,17,"[1, 3, 4, 6, 9, 11, 12, 13, 15, 16, 17, 19, 20, 21, 23, 26, 27]",157.9203086,13382,1126,5,45,11,1.349777315111579
undo,33,13,0,0,0,26,"[0, 24, 28, 2, 29, 7, 26]",7,16,"[1, 3, 4, 6, 9, 11, 12, 13, 15, 16, 17, 19, 20, 21, 23, 27]",147.480002,14247,865,5,25,11,1.5942082773824946
undo,33,13,0,0,0,6,"[0, 24, 28, 2, 29, 7, 26, 6]",8,12,"[1, 3, 4, 11, 13, 15, 16, 17, 19, 20, 23, 27]",127.3802508,15263,1016,4,12,11,1.5898347940840756
undo,33,13,0,0,0,11,"[0, 24, 28, 2, 29, 7, 26, 6, 11]",9,6,"[1, 13, 15, 16, 17, 23]",108.2752776,17275,2012,3,4,11,1.5029953945561012
undo,33,13,1,0,0,6,"[0, 24, 28, 2, 29, 7, 26, 6]",8,12,"[1, 3, 4, 11, 13, 15, 16, 17, 19, 20, 23, 27]",127.3802508,20511,3236,4,12,11,1.5898347940840756
undo,33,13,0,0,0,23,"[0, 24, 28, 2, 29, 7, 26, 6, 23]",9,2,"[3, 16]",63.87434556,22584,2073,2,0,10,4.178070065141234
undo,33,13,1,0,0,6,"[0, 24, 28, 2, 29, 7, 26, 6]",8,12,"[1, 3, 4, 11, 13, 15, 16, 17, 19, 20, 23, 27]",127.3802508,35408,12824,4,12,11,1.5898347940840756
undo,33,13,1,0,0,26,"[0, 24, 28, 2, 29, 7, 26]",7,16,"[1, 3, 4, 6, 9, 11, 12, 13, 15, 16, 17, 19, 20, 21, 23, 27]",147.480002,37553,2145,5,25,11,1.5942082773824946
undo,33,13,0,0,0,23,"[0, 24, 28, 2, 29, 7, 26, 23]",8,7,"[3, 6, 9, 11, 16, 20, 21]",87.94009946,39258,1705,1,3,11,3.752244221680436
undo,33,13,0,0,0,16,"[0, 24, 28, 2, 29, 7, 26, 23, 16]",9,2,"[3, 20]",47.62881072,40377,1119,1,1,11,2.741707822136858
undo,33,13,0,0,0,3,"[0, 24, 28, 2, 29, 7, 26, 23, 16, 3]",10,1,[20],19.18588541,41603,1226,1,0,11,2.7575891066466034
undo,33,13,0,0,1,20,"[0, 24, 28, 2, 29, 7, 26, 23, 16, 3, 20]",11,0,[],0.159587819,43005,1402,1,0,11,2.7253714915146405
undo,33,13,0,1,1,20,"[0, 24, 28, 2, 29, 7, 26, 23, 16, 3, 20]",11,0,[],0.159587819,45251,2246,1,0,11,2.7253714915146405
undo,34,27,0,0,0,0,[0],1,26,"[1, 3, 5, 6, 7, 8, 9, 10, 11, 12, 13, 14, 15, 16, 17, 18, 19, 21, 22, 23, 24, 25, 26, 27, 28, 29]",300,297,-1,13,578,11,0.0
undo,34,27,0,0,0,15,"[0, 15]",2,24,"[1, 3, 5, 6, 7, 8, 9, 10, 11, 12, 13, 14, 16, 17, 18, 19, 21, 22, 23, 24, 25, 26, 27, 29]",263.7508621,8930,8633,6,219,11,1.0
undo,34,27,0,0,0,24,"[0, 15, 24]",3,20,"[1, 5, 6, 7, 8, 9, 10, 12, 13, 14, 16, 17, 18, 19, 21, 23, 25, 26, 27, 29]",246.5462115,9980,1050,6,130,11,1.130933077698322
undo,34,27,0,0,0,17,"[0, 15, 24, 17]",4,15,"[1, 6, 8, 10, 12, 13, 14, 16, 18, 19, 23, 25, 26, 27, 29]",229.9932662,11292,1312,4,60,11,1.1285538435963374
undo,34,27,0,0,0,12,"[0, 15, 24, 17, 12]",5,14,"[1, 6, 8, 10, 13, 14, 16, 18, 19, 23, 25, 26, 27, 29]",218.8129263,12273,981,2,32,11,1.2561880288755216
undo,34,27,0,0,0,10,"[0, 15, 24, 17, 12, 10]",6,11,"[1, 8, 13, 14, 18, 19, 23, 25, 26, 27, 29]",207.7675653,13420,1147,2,28,11,1.2228289337766665
undo,34,27,0,0,0,13,"[0, 15, 24, 17, 12, 10, 13]",7,9,"[1, 8, 14, 18, 19, 23, 26, 27, 29]",167.9178476,16257,2837,2,18,11,1.3421291994761178
undo,34,27,0,0,0,19,"[0, 15, 24, 17, 12, 10, 13, 19]",8,5,"[1, 8, 14, 23, 29]",131.6825057,18019,1762,2,6,11,1.294749956153846
undo,34,27,0,0,0,8,"[0, 15, 24, 17, 12, 10, 13, 19, 8]",9,3,"[14, 23, 29]",116.816437,22437,4418,2,1,11,1.3554286578836865
undo,34,27,0,0,1,23,"[0, 15, 24, 17, 12, 10, 13, 19, 8, 23]",10,0,[],45.97859399,23678,1241,1,0,10,3.3397859539241304
undo,34,27,0,1,1,23,"[0, 15, 24, 17, 12, 10, 13, 19, 8, 23]",10,0,[],45.97859399,27282,3604,1,0,10,3.3397859539241304
undo,35,26,0,0,0,0,[0],1,29,"[1, 2, 3, 4, 5, 6, 7, 8, 9, 10, 11, 12, 13, 14, 15, 16, 17, 18, 19, 20, 21, 22, 23, 24, 25, 26, 27, 28, 29]",300,406,-1,9,226,9,0.0
undo,35,26,0,0,0,21,"[0, 21]",2,25,"[2, 3, 4, 5, 6, 7, 8, 10, 11, 12, 13, 14, 15, 16, 17, 18, 19, 22, 23, 24, 25, 26, 27, 28, 29]",211.1349337,8246,7840,7,90,9,1.0
undo,35,26,0,0,0,13,"[0, 21, 13]",3,21,"[3, 4, 5, 6, 7, 8, 10, 11, 12, 14, 15, 16, 17, 18, 19, 22, 23, 24, 25, 26, 29]",188.9989901,9247,1001,6,45,9,1.0103952279992225
undo,35,26,0,0,0,23,"[0, 21, 13, 23]",4,13,"[3, 4, 5, 6, 10, 11, 14, 16, 17, 18, 22, 26, 29]",150.9858345,10979,1732,3,17,9,1.1069410469330032
undo,35,26,0,0,0,16,"[0, 21, 13, 23, 16]",5,7,"[4, 5, 6, 10, 14, 17, 29]",97.75050789,12212,1233,3,13,9,1.8066634000662438
undo,35,26,0,0,0,29,"[0, 21, 13, 23, 16, 29]",6,5,"[4, 6, 10, 14, 17]",73.54307102,13628,1416,3,9,9,1.853342605492142
undo,35,26,0,0,0,4,"[0, 21, 13, 23, 16, 29, 4]",7,3,"[6, 14, 17]",49.54307102,14732,1104,2,2,9,2.0664369230924997
undo,35,26,0,0,0,17,"[0, 21, 13, 23, 16, 29, 4, 17]",8,2,"[6, 14]",28.44804791,17083,2351,2,0,9,1.911153301956092
undo,35,26,0,0,1,14,"[0, 21, 13, 23, 16, 29, 4, 17, 14]",9,0,[],5.975842855,18530,1447,1,0,9,1.8245133223656398
undo,35,26,0,1,1,14,"[0, 21, 13, 23, 16, 29, 4, 17, 14]",9,0,[],5.975842855,19740,1210,1,0,9,1.8245133223656398
undo,36,38,0,0,0,0,[0],1,29,"[1, 2, 3, 4, 5, 6, 7, 8, 9, 10, 11, 12, 13, 14, 15, 16, 17, 18, 19, 20, 21, 22, 23, 24, 25, 26, 27, 28, 29]",300,304,-1,33,506,9,0.0
undo,36,38,0,0,0,19,"[0, 19]",2,23,"[3, 4, 5, 6, 7, 8, 9, 11, 13, 14, 15, 16, 17, 18, 20, 22, 23, 24, 25, 26, 27, 28, 29]",219.5015528,9198,8894,6,61,9,1.0
undo,36,38,0,0,0,17,"[0, 19, 17]",3,21,"[3, 4, 5, 6, 7, 9, 11, 13, 14, 15, 16, 18, 20, 22, 23, 24, 25, 26, 27, 28, 29]",198.1239945,11635,2437,6,53,9,1.571793785769489
undo,36,38,0,0,0,20,"[0, 19, 17, 20]",4,17,"[3, 4, 5, 6, 7, 11, 13, 14, 15, 16, 18, 22, 24, 25, 26, 27, 28]",174.3542658,12667,1032,6,44,9,2.333182710277297
undo,36,38,0,0,0,4,"[0, 19, 17, 20, 4]",5,10,"[5, 11, 13, 14, 15, 16, 24, 26, 27, 28]",140.4131403,14510,1843,5,22,9,2.276099229646013
undo,36,38,0,0,0,15,"[0, 19, 17, 20, 4, 15]",6,8,"[5, 11, 13, 14, 16, 24, 26, 28]",114.4131403,16020,1510,5,6,9,2.5292671156176403
undo,36,38,0,0,0,11,"[0, 19, 17, 20, 4, 15, 11]",7,2,"[16, 28]",78.01259089,18517,2497,2,0,9,2.778100109749787
undo,36,38,0,0,0,28,"[0, 19, 17, 20, 4, 15, 11, 28]",8,1,[16],50.99407872,19905,1388,1,0,9,2.3316428595723258
undo,36,38,0,0,1,16,"[0, 19, 17, 20, 4, 15, 11, 28, 16]",9,0,[],21.99407872,23195,3290,1,0,9,2.5408012360364265
undo,36,38,0,1,1,16,"[0, 19, 17, 20, 4, 15, 11, 28, 16]",9,0,[],21.99407872,24687,1492,1,0,9,2.5408012360364265
undo,37,3,0,0,0,0,[0],1,29,"[1, 2, 3, 4, 5, 6, 7, 8, 9, 10, 11, 12, 13, 14, 15, 16, 17, 18, 19, 20, 21, 22, 23, 24, 25, 26, 27, 28, 29]",300,325,-1,34,427,10,0.0
undo,37,3,0,0,0,7,"[0, 7]",2,28,"[1, 2, 3, 4, 5, 6, 8, 9, 10, 11, 12, 13, 14, 15, 16, 17, 18, 19, 20, 21, 22, 23, 24, 25, 26, 27, 28, 29]",278.8103799,4384,4059,24,215,10,1.0
undo,37,3,0,0,0,8,"[0, 7, 8]",3,24,"[1, 2, 3, 4, 5, 6, 10, 11, 12, 13, 14, 15, 16, 17, 18, 19, 20, 21, 22, 24, 25, 26, 27, 28]",222.837172,5649,1265,16,114,10,1.2853332575451413
undo,37,3,0,0,0,24,"[0, 7, 8, 24]",4,21,"[1, 3, 4, 5, 6, 10, 11, 12, 14, 15, 16, 17, 18, 19, 20, 21, 22, 25, 26, 27, 28]",210.671647,6928,1279,16,91,10,1.5177505014936548
undo,37,3,0,0,0,17,"[0, 7, 8, 24, 17]",5,9,"[3, 4, 10, 14, 15, 16, 19, 20, 21]",141.3174834,8260,1332,7,26,10,1.5510961300062232
undo,37,3,0,0,0,20,"[0, 7, 8, 24, 17, 20]",6,7,"[3, 4, 10, 14, 16, 19, 21]",128.6683728,9200,940,7,14,10,1.5133082717474817
undo,37,3,0,0,0,3,"[0, 7, 8, 24, 17, 20, 3]",7,5,"[4, 10, 14, 19, 21]",108.2722947,10190,990,7,4,10,1.5325960555943097
undo,37,3,0,0,0,19,"[0, 7, 8, 24, 17, 20, 3, 19]",8,3,"[10, 14, 21]",70.93598532,11349,1159,3,1,10,1.5521294182529992
undo,37,3,0,0,0,21,"[0, 7, 8, 24, 17, 20, 3, 19, 21]",9,2,"[10, 14]",58.72942971,12380,1031,2,0,10,1.5690424431931145
undo,37,3,0,0,1,10,"[0, 7, 8, 24, 17, 20, 3, 19, 21, 10]",10,0,[],9.393844175,20515,8135,1,0,10,1.8456114225770883
undo,37,3,0,1,1,10,"[0, 7, 8, 24, 17, 20, 3, 19, 21, 10]",10,0,[],9.393844175,21645,1130,1,0,10,1.8456114225770883
undo,38,8,0,0,0,0,[0],1,29,"[1, 2, 3, 4, 5, 6, 7, 8, 9, 10, 11, 12, 13, 14, 15, 16, 17, 18, 19, 20, 21, 22, 23, 24, 25, 26, 27, 28, 29]",300,357,-1,10,149,9,0.0
undo,38,8,0,0,0,5,"[0, 5]",2,28,"[1, 2, 3, 4, 6, 7, 8, 9, 10, 11, 12, 13, 14, 15, 16, 17, 18, 19, 20, 21, 22, 23, 24, 25, 26, 27, 28, 29]",254.5137383,4822,4465,10,100,9,1.0
undo,38,8,0,0,0,14,"[0, 5, 14]",3,20,"[1, 2, 3, 4, 6, 7, 11, 15, 16, 17, 18, 19, 20, 21, 22, 23, 24, 25, 28, 29]",214.5512559,6021,1199,4,36,9,1.0001019035932595
undo,38,8,0,0,0,25,"[0, 5, 14, 25]",4,16,"[1, 3, 4, 6, 11, 15, 16, 17, 18, 20, 21, 22, 23, 24, 28, 29]",169.4513668,8387,2366,9,37,8,1.8918105093907904
undo,38,8,0,0,0,1,"[0, 5, 14, 25, 1]",5,12,"[3, 4, 6, 11, 16, 17, 18, 20, 21, 22, 23, 28]",144.4513668,9509,1122,6,17,8,1.669095890814316
undo,38,8,0,0,0,23,"[0, 5, 14, 25, 1, 23]",6,7,"[3, 4, 6, 17, 18, 21, 28]",121.4296379,10908,1399,4,5,8,1.5366044444966092
undo,38,8,1,0,0,1,"[0, 5, 14, 25, 1]",5,12,"[3, 4, 6, 11, 16, 17, 18, 20, 21, 22, 23, 28]",144.4513668,15183,4275,6,17,8,1.669095890814316
undo,38,8,1,0,0,25,"[0, 5, 14, 25]",4,16,"[1, 3, 4, 6, 11, 15, 16, 17, 18, 20, 21, 22, 23, 24, 28, 29]",169.4513668,15374,191,9,37,8,1.8918105093907904
undo,38,8,1,0,0,14,"[0, 5, 14]",3,20,"[1, 2, 3, 4, 6, 7, 11, 15, 16, 17, 18, 19, 20, 21, 22, 23, 24, 25, 28, 29]",214.5512559,15767,393,4,36,9,1.0001019035932595
undo,38,8,1,0,0,5,"[0, 5]",2,28,"[1, 2, 3, 4, 6, 7, 8, 9, 10, 11, 12, 13, 14, 15, 16, 17, 18, 19, 20, 21, 22, 23, 24, 25, 26, 27, 28, 29]",254.5137383,15983,216,10,100,9,1.0
undo,38,8,1,0,0,0,[0],1,29,"[1, 2, 3, 4, 5, 6, 7, 8, 9, 10, 11, 12, 13, 14, 15, 16, 17, 18, 19, 20, 21, 22, 23, 24, 25, 26, 27, 28, 29]",300,16569,586,10,149,9,0.0
undo,38,8,0,0,0,5,"[0, 5]",2,28,"[1, 2, 3, 4, 6, 7, 8, 9, 10, 11, 12, 13, 14, 15, 16, 17, 18, 19, 20, 21, 22, 23, 24, 25, 26, 27, 28, 29]",254.5137383,18568,1999,10,100,9,1.0
undo,38,8,0,0,0,14,"[0, 5, 14]",3,20,"[1, 2, 3, 4, 6, 7, 11, 15, 16, 17, 18, 19, 20, 21, 22, 23, 24, 25, 28, 29]",214.5512559,19803,1235,4,36,9,1.0001019035932595
undo,38,8,0,0,0,17,"[0, 5, 14, 17]",4,15,"[1, 4, 6, 7, 11, 15, 16, 18, 19, 20, 22, 23, 24, 25, 28]",177.5377449,20928,1125,4,16,9,1.121197267659591
undo,38,8,0,0,0,11,"[0, 5, 14, 17, 11]",5,11,"[1, 4, 15, 16, 18, 19, 22, 23, 24, 25, 28]",152.3583883,21968,1040,4,8,9,1.1277254166016362
undo,38,8,0,0,0,24,"[0, 5, 14, 17, 11, 24]",6,3,"[15, 16, 28]",115.1428001,22829,861,2,2,9,1.1227411011978805
undo,38,8,0,0,0,15,"[0, 5, 14, 17, 11, 24, 15]",7,2,"[16, 28]",98.37974552,24879,2050,2,0,9,1.1956385406066814
undo,38,8,0,0,0,16,"[0, 5, 14, 17, 11, 24, 15, 16]",8,1,[28],47.30137436,26048,1169,1,0,9,1.36482239111247
undo,38,8,0,0,1,28,"[0, 5, 14, 17, 11, 24, 15, 16, 28]",9,0,[],24.94069458,27282,1234,1,0,9,1.632953105226947
undo,38,8,0,1,1,28,"[0, 5, 14, 17, 11, 24, 15, 16, 28]",9,0,[],24.94069458,28400,1118,1,0,9,1.632953105226947
undo,39,40,0,0,0,0,[0],1,29,"[1, 2, 3, 4, 5, 6, 7, 8, 9, 10, 11, 12, 13, 14, 15, 16, 17, 18, 19, 20, 21, 22, 23, 24, 25, 26, 27, 28, 29]",300,303,-1,8,191,9,0.0
undo,39,40,0,0,0,23,"[0, 23]",2,21,"[1, 2, 5, 6, 7, 8, 9, 10, 11, 13, 14, 15, 17, 18, 19, 20, 21, 22, 24, 27, 29]",205.1527544,7142,6839,1,27,8,1.0
undo,39,40,0,0,0,5,"[0, 23, 5]",3,18,"[1, 2, 6, 7, 8, 9, 10, 11, 13, 14, 17, 18, 19, 20, 21, 22, 27, 29]",176.850811,8299,1157,1,14,8,1.0013453017380705
undo,39,40,0,0,0,22,"[0, 23, 5, 22]",4,10,"[7, 8, 9, 11, 14, 18, 19, 20, 27, 29]",114.2409076,10253,1954,2,9,7,1.0488839370717857
undo,39,40,0,0,0,27,"[0, 23, 5, 22, 27]",5,3,"[7, 8, 29]",63.43736444,11730,1477,2,2,7,1.2686922752391219
undo,39,40,0,0,0,7,"[0, 23, 5, 22, 27, 7]",6,2,"[8, 29]",37.88349976,12992,1262,2,0,7,1.322186017814755
undo,39,40,0,0,1,29,"[0, 23, 5, 22, 27, 7, 29]",7,0,[],7.651066845,15479,2487,1,0,7,1.4371464372976817
undo,39,40,1,0,0,7,"[0, 23, 5, 22, 27, 7]",6,2,"[8, 29]",37.88349976,17574,2095,2,0,7,1.322186017814755
undo,39,40,1,0,0,27,"[0, 23, 5, 22, 27]",5,3,"[7, 8, 29]",63.43736444,17741,167,2,2,7,1.2686922752391219
undo,39,40,1,0,0,22,"[0, 23, 5, 22]",4,10,"[7, 8, 9, 11, 14, 18, 19, 20, 27, 29]",114.2409076,17890,149,2,9,7,1.0488839370717857
undo,39,40,1,0,0,5,"[0, 23, 5]",3,18,"[1, 2, 6, 7, 8, 9, 10, 11, 13, 14, 17, 18, 19, 20, 21, 22, 27, 29]",176.850811,18047,157,1,14,8,1.0013453017380705
undo,39,40,1,0,0,23,"[0, 23]",2,21,"[1, 2, 5, 6, 7, 8, 9, 10, 11, 13, 14, 15, 17, 18, 19, 20, 21, 22, 24, 27, 29]",205.1527544,18210,163,1,27,8,1.0
undo,39,40,1,0,0,0,[0],1,29,"[1, 2, 3, 4, 5, 6, 7, 8, 9, 10, 11, 12, 13, 14, 15, 16, 17, 18, 19, 20, 21, 22, 23, 24, 25, 26, 27, 28, 29]",300,18360,150,8,191,9,0.0
undo,39,40,0,0,0,1,"[0, 1]",2,18,"[2, 5, 6, 7, 8, 9, 10, 11, 13, 15, 17, 18, 19, 21, 22, 23, 27, 29]",247.8463808,20395,2035,4,80,9,1.0
undo,39,40,0,0,0,6,"[0, 1, 6]",3,17,"[2, 5, 7, 8, 9, 10, 11, 13, 15, 17, 18, 19, 21, 22, 23, 27, 29]",227.7466295,21461,1066,4,74,9,1.0459427008232034
undo,39,40,0,0,0,21,"[0, 1, 6, 21]",4,8,"[2, 5, 9, 17, 18, 19, 22, 23]",175.7754837,22835,1374,4,25,9,1.0308822257404064
undo,39,40,0,0,0,9,"[0, 1, 6, 21, 9]",5,6,"[2, 5, 18, 19, 22, 23]",130.0699041,24266,1431,4,12,9,1.377861912961129
undo,39,40,0,0,0,18,"[0, 1, 6, 21, 9, 18]",6,5,"[2, 5, 19, 22, 23]",113.5169588,25556,1290,4,4,9,1.5742712168661408
undo,39,40,0,0,0,23,"[0, 1, 6, 21, 9, 18, 23]",7,3,"[2, 5, 19]",79.51695879,28115,2559,2,1,9,2.324611956726637
undo,39,40,0,0,0,19,"[0, 1, 6, 21, 9, 18, 23, 19]",8,1,[5],47.56386817,29463,1348,1,0,9,2.460596854255639
undo,39,40,0,0,1,5,"[0, 1, 6, 21, 9, 18, 23, 19, 5]",9,0,[],9.485002643,30829,1366,1,0,9,2.3622228457215413
undo,39,40,0,1,1,5,"[0, 1, 6, 21, 9, 18, 23, 19, 5]",9,0,[],9.485002643,31678,849,1,0,9,2.3622228457215413
undo,40,33,0,0,0,0,[0],1,23,"[1, 2, 5, 7, 8, 11, 12, 13, 14, 15, 16, 17, 18, 19, 20, 21, 23, 24, 25, 26, 27, 28, 29]",300,263,-1,5,108,9,0.0
undo,40,33,0,0,0,21,"[0, 21]",2,17,"[2, 5, 7, 8, 11, 13, 14, 16, 17, 18, 19, 20, 24, 26, 27, 28, 29]",174.4611614,6020,5757,21,129,8,1.0
undo,40,33,0,0,0,13,"[0, 21, 13]",3,15,"[2, 5, 7, 8, 11, 14, 16, 17, 18, 19, 20, 24, 26, 28, 29]",148.0604038,7396,1376,17,72,8,1.0001005298764474
undo,40,33,0,0,0,26,"[0, 21, 13, 26]",4,8,"[7, 11, 14, 17, 19, 20, 24, 29]",73.73678712,8975,1579,4,10,7,1.0000980854775965
undo,40,33,0,0,0,14,"[0, 21, 13, 26, 14]",5,4,"[7, 19, 24, 29]",61.08767648,10267,1292,3,3,7,1.1012591262849363
undo,40,33,0,0,0,7,"[0, 21, 13, 26, 14, 7]",6,3,"[19, 24, 29]",46.22160773,11771,1504,3,0,7,1.1908836346239835
undo,40,33,0,0,1,24,"[0, 21, 13, 26, 14, 7, 24]",7,0,[],17.015444,13334,1563,1,0,7,1.3899038284245597
undo,40,33,1,0,0,7,"[0, 21, 13, 26, 14, 7]",6,3,"[19, 24, 29]",46.22160773,20165,6831,3,0,7,1.1908836346239835
undo,40,33,1,0,0,14,"[0, 21, 13, 26, 14]",5,4,"[7, 19, 24, 29]",61.08767648,20322,157,3,3,7,1.1012591262849363
undo,40,33,1,0,0,26,"[0, 21, 13, 26]",4,8,"[7, 11, 14, 17, 19, 20, 24, 29]",73.73678712,20484,162,4,10,7,1.0000980854775965
undo,40,33,1,0,0,13,"[0, 21, 13]",3,15,"[2, 5, 7, 8, 11, 14, 16, 17, 18, 19, 20, 24, 26, 28, 29]",148.0604038,20633,149,17,72,8,1.0001005298764474
undo,40,33,1,0,0,21,"[0, 21]",2,17,"[2, 5, 7, 8, 11, 13, 14, 16, 17, 18, 19, 20, 24, 26, 27, 28, 29]",174.4611614,20788,155,21,129,8,1.0
undo,40,33,1,0,0,0,[0],1,23,"[1, 2, 5, 7, 8, 11, 12, 13, 14, 15, 16, 17, 18, 19, 20, 21, 23, 24, 25, 26, 27, 28, 29]",300,20952,164,5,108,9,0.0
undo,40,33,0,0,0,21,"[0, 21]",2,17,"[2, 5, 7, 8, 11, 13, 14, 16, 17, 18, 19, 20, 24, 26, 27, 28, 29]",174.4611614,24438,3486,21,129,8,1.0
undo,40,33,0,0,0,17,"[0, 21, 17]",3,12,"[2, 7, 11, 13, 14, 16, 18, 19, 20, 24, 26, 29]",135.8218032,25476,1038,3,35,8,1.0302064673538902
undo,40,33,0,0,0,13,"[0, 21, 17, 13]",4,10,"[2, 7, 11, 14, 16, 19, 20, 24, 26, 29]",113.0182947,26363,887,3,18,8,1.2307555582916028
undo,40,33,0,0,0,19,"[0, 21, 17, 13, 19]",5,6,"[7, 14, 16, 24, 26, 29]",87.52319715,27574,1211,3,6,8,1.267959080158969
undo,40,33,0,0,0,7,"[0, 21, 17, 13, 19, 7]",6,3,"[14, 24, 26]",41.90521823,29990,2416,2,1,8,1.2111387775864462
undo,40,33,0,0,0,14,"[0, 21, 17, 13, 19, 7, 14]",7,1,[26],27.03914949,31402,1412,1,0,8,1.2582047812090849
undo,40,33,0,0,1,26,"[0, 21, 17, 13, 19, 7, 14, 26]",8,0,[],14.39003885,32854,1452,1,0,8,1.2624145644521343
undo,40,33,0,1,1,26,"[0, 21, 17, 13, 19, 7, 14, 26]",8,0,[],14.39003885,33905,1051,1,0,8,1.2624145644521343
undo,41,34,0,0,0,0,[0],1,25,"[1, 3, 4, 5, 6, 7, 8, 9, 10, 11, 12, 13, 15, 18, 19, 20, 21, 22, 23, 24, 25, 26, 27, 28, 29]",300,318,-1,12,367,10,0.0
undo,41,34,0,0,0,13,"[0, 13]",2,24,"[1, 3, 4, 5, 6, 7, 8, 9, 10, 11, 12, 15, 18, 19, 20, 21, 22, 23, 24, 25, 26, 27, 28, 29]",279.9750156,4311,3993,12,331,10,1.0
undo,41,34,0,0,0,1,"[0, 13, 1]",3,16,"[3, 5, 7, 8, 9, 10, 11, 12, 19, 21, 22, 23, 24, 25, 27, 29]",211.8574701,5804,1493,3,92,10,1.0010381285747127
undo,41,34,0,0,0,8,"[0, 13, 1, 8]",4,14,"[3, 5, 7, 9, 10, 11, 12, 19, 22, 23, 24, 25, 27, 29]",201.0871405,7089,1285,2,54,10,1.1636807
undo,41,34,0,0,0,25,"[0, 13, 1, 8, 25]",5,12,"[3, 5, 7, 9, 10, 11, 12, 22, 23, 24, 27, 29]",183.999133,8327,1238,2,28,10,1.1396208815936457
undo,41,34,0,0,0,24,"[0, 13, 1, 8, 25, 24]",6,11,"[3, 5, 7, 9, 10, 11, 12, 22, 23, 27, 29]",166.5062774,9407,1080,2,23,10,1.374180768736554
undo,41,34,0,0,0,12,"[0, 13, 1, 8, 25, 24, 12]",7,7,"[7, 9, 10, 11, 22, 23, 27]",115.4670767,12687,3280,1,8,10,1.4994254760835948
undo,41,34,0,0,0,7,"[0, 13, 1, 8, 25, 24, 12, 7]",8,5,"[9, 11, 22, 23, 27]",100.4337804,15349,2662,1,4,10,1.758992610425009
undo,41,34,0,0,0,23,"[0, 13, 1, 8, 25, 24, 12, 7, 23]",9,1,[27],72.27352467,16782,1433,1,0,10,2.399781305190153
undo,41,34,0,0,1,27,"[0, 13, 1, 8, 25, 24, 12, 7, 23, 27]",10,0,[],18.60789321,18331,1549,1,0,10,4.766619878750327
undo,41,34,0,1,1,27,"[0, 13, 1, 8, 25, 24, 12, 7, 23, 27]",10,0,[],18.60789321,19797,1466,1,0,10,4.766619878750327
undo,42,20,0,0,0,0,[0],1,21,"[1, 2, 3, 4, 5, 6, 7, 8, 9, 12, 17, 18, 20, 21, 22, 23, 25, 26, 27, 28, 29]",300,343,-1,1,9,9,0.0
undo,42,20,0,0,0,12,"[0, 12]",2,20,"[1, 2, 3, 4, 5, 6, 7, 8, 9, 17, 18, 20, 21, 22, 23, 25, 26, 27, 28, 29]",271.5570747,3458,3115,1,8,9,1.0
undo,42,20,0,0,0,5,"[0, 12, 5]",3,13,"[1, 3, 4, 6, 8, 9, 20, 21, 23, 26, 27, 28, 29]",171.4321527,6701,3243,2,19,8,1.0232843285905395
undo,42,20,0,0,0,21,"[0, 12, 5, 21]",4,10,"[1, 4, 6, 8, 9, 20, 23, 26, 27, 28]",126.4321527,7718,1017,2,12,8,1.017525191374897
undo,42,20,0,0,0,8,"[0, 12, 5, 21, 8]",5,6,"[1, 6, 9, 23, 27, 28]",108.9679035,8696,978,2,6,8,1.0391698601004782
undo,42,20,0,0,0,23,"[0, 12, 5, 21, 8, 23]",6,3,"[6, 9, 27]",64.28009758,9899,1203,2,1,8,1.0348450868606567
undo,42,20,0,0,0,9,"[0, 12, 5, 21, 8, 23, 9]",7,1,[6],45.07072487,11046,1147,1,0,8,1.0335348098288684
undo,42,20,0,0,1,6,"[0, 12, 5, 21, 8, 23, 9, 6]",8,0,[],22.048996,12418,1372,1,0,8,1.0486850646228845
undo,42,20,0,1,1,6,"[0, 12, 5, 21, 8, 23, 9, 6]",8,0,[],22.048996,13725,1307,1,0,8,1.0486850646228845
undo,43,21,0,0,0,0,[0],1,29,"[1, 2, 3, 4, 5, 6, 7, 8, 9, 10, 11, 12, 13, 14, 15, 16, 17, 18, 19, 20, 21, 22, 23, 24, 25, 26, 27, 28, 29]",300,344,-1,84,830,9,0.0
undo,43,21,0,0,0,21,"[0, 21]",2,22,"[1, 3, 4, 6, 8, 9, 10, 11, 12, 14, 15, 16, 17, 18, 20, 22, 23, 24, 25, 26, 27, 29]",210.1111798,5175,4831,1,69,9,1.0
undo,43,21,0,0,0,14,"[0, 21, 14]",3,15,"[1, 4, 6, 8, 9, 15, 16, 17, 18, 20, 22, 23, 24, 25, 29]",184.4986828,6357,1182,35,96,8,1.0083702391721483
undo,43,21,0,0,0,4,"[0, 21, 14, 4]",4,13,"[1, 8, 9, 15, 16, 17, 18, 20, 22, 23, 24, 25, 29]",170.3565472,7662,1305,20,39,8,1.0135821167776475
undo,43,21,0,0,0,8,"[0, 21, 14, 4, 8]",5,4,"[15, 16, 23, 24]",107.7067268,9059,1397,1,6,8,1.06135757693024
undo,43,21,0,0,0,16,"[0, 21, 14, 4, 8, 16]",6,3,"[15, 23, 24]",89.10565154,10331,1272,1,2,8,1.2920808220008848
undo,43,21,0,0,0,15,"[0, 21, 14, 4, 8, 16, 15]",7,1,[24],63.55178686,11759,1428,1,0,8,1.4045464726481895
undo,43,21,0,0,1,24,"[0, 21, 14, 4, 8, 16, 15, 24]",8,0,[],17.84620733,14512,2753,1,0,8,1.4187183228965972
undo,43,21,0,1,1,24,"[0, 21, 14, 4, 8, 16, 15, 24]",8,0,[],17.84620733,16416,1904,1,0,8,1.4187183228965972
undo,44,12,0,0,0,0,[0],1,29,"[1, 2, 3, 4, 5, 6, 7, 8, 9, 10, 11, 12, 13, 14, 15, 16, 17, 18, 19, 20, 21, 22, 23, 24, 25, 26, 27, 28, 29]",300,316,-1,2,32,9,0.0
undo,44,12,0,0,0,22,"[0, 22]",2,22,"[2, 4, 5, 6, 7, 9, 10, 12, 13, 14, 15, 16, 17, 18, 19, 21, 23, 24, 25, 27, 28, 29]",211.9943184,8035,7719,6,42,8,1.0
undo,44,12,0,0,0,16,"[0, 22, 16]",3,12,"[2, 4, 5, 6, 7, 12, 14, 19, 23, 24, 25, 27]",190.9943184,8971,936,6,24,8,1.2017164145167045
undo,44,12,0,0,0,4,"[0, 22, 16, 4]",4,9,"[2, 6, 7, 12, 14, 19, 24, 25, 27]",156.7890556,10164,1193,6,14,8,1.146531713305579
undo,44,12,0,0,0,12,"[0, 22, 16, 4, 12]",5,4,"[14, 19, 24, 27]",114.5990094,11491,1327,4,3,8,1.1221389456954312
undo,44,12,0,0,0,27,"[0, 22, 16, 4, 12, 27]",6,3,"[14, 19, 24]",90.24741807,12731,1240,2,1,8,1.2262878338287035
undo,44,12,0,0,0,14,"[0, 22, 16, 4, 12, 27, 14]",7,1,[24],61.59432051,17493,4762,1,0,8,1.2804562106751427
undo,44,12,0,0,1,24,"[0, 22, 16, 4, 12, 27, 14, 24]",8,0,[],44.38966997,18659,1166,1,0,8,1.4322660007679802
undo,44,12,1,0,0,14,"[0, 22, 16, 4, 12, 27, 14]",7,1,[24],61.59432051,19540,881,1,0,8,1.2804562106751427
undo,44,12,1,0,0,27,"[0, 22, 16, 4, 12, 27]",6,3,"[14, 19, 24]",90.24741807,19869,329,2,1,8,1.2262878338287035
undo,44,12,1,0,0,12,"[0, 22, 16, 4, 12]",5,4,"[14, 19, 24, 27]",114.5990094,20059,190,4,3,8,1.1221389456954312
undo,44,12,1,0,0,4,"[0, 22, 16, 4]",4,9,"[2, 6, 7, 12, 14, 19, 24, 25, 27]",156.7890556,20225,166,6,14,8,1.146531713305579
undo,44,12,1,0,0,16,"[0, 22, 16]",3,12,"[2, 4, 5, 6, 7, 12, 14, 19, 23, 24, 25, 27]",190.9943184,20388,163,6,24,8,1.2017164145167045
undo,44,12,1,0,0,22,"[0, 22]",2,22,"[2, 4, 5, 6, 7, 9, 10, 12, 13, 14, 15, 16, 17, 18, 19, 21, 23, 24, 25, 27, 28, 29]",211.9943184,20555,167,6,42,8,1.0
undo,44,12,1,0,0,0,[0],1,29,"[1, 2, 3, 4, 5, 6, 7, 8, 9, 10, 11, 12, 13, 14, 15, 16, 17, 18, 19, 20, 21, 22, 23, 24, 25, 26, 27, 28, 29]",300,20738,183,2,32,9,0.0
undo,44,12,0,0,0,2,"[0, 2]",2,19,"[1, 5, 7, 8, 10, 11, 13, 14, 15, 16, 17, 18, 19, 21, 22, 24, 26, 27, 29]",143.2677442,23424,2686,4,18,6,1.0
undo,44,12,0,0,0,7,"[0, 2, 7]",3,12,"[5, 8, 10, 13, 14, 15, 17, 19, 22, 24, 26, 29]",125.803495,24884,1460,3,10,6,1.0526285265704103
undo,44,12,0,0,0,13,"[0, 2, 7, 13]",4,4,"[8, 10, 26, 29]",70.35982993,26362,1478,3,2,6,1.0408126813158507
undo,44,12,0,0,1,26,"[0, 2, 7, 13, 26]",5,0,[],9.359829927,28603,2241,1,0,5,1.1147755116929707
undo,44,12,1,0,0,13,"[0, 2, 7, 13]",4,4,"[8, 10, 26, 29]",70.35982993,29915,1312,3,2,6,1.0408126813158507
undo,44,12,1,0,0,7,"[0, 2, 7]",3,12,"[5, 8, 10, 13, 14, 15, 17, 19, 22, 24, 26, 29]",125.803495,30080,165,3,10,6,1.0526285265704103
undo,44,12,1,0,0,2,"[0, 2]",2,19,"[1, 5, 7, 8, 10, 11, 13, 14, 15, 16, 17, 18, 19, 21, 22, 24, 26, 27, 29]",143.2677442,30232,152,4,18,6,1.0
undo,44,12,1,0,0,0,[0],1,29,"[1, 2, 3, 4, 5, 6, 7, 8, 9, 10, 11, 12, 13, 14, 15, 16, 17, 18, 19, 20, 21, 22, 23, 24, 25, 26, 27, 28, 29]",300,30382,150,2,32,9,0.0
undo,44,12,0,0,0,25,"[0, 25]",2,16,"[2, 4, 5, 6, 7, 9, 12, 14, 16, 18, 19, 22, 23, 24, 27, 28]",225.7975742,32405,2023,5,34,8,1.0
undo,44,12,0,0,0,22,"[0, 25, 22]",3,11,"[2, 4, 5, 6, 7, 12, 14, 16, 19, 24, 27]",153.5964661,33929,1524,1,10,8,1.6635691148622656
undo,44,12,0,0,0,16,"[0, 25, 22, 16]",4,7,"[4, 6, 12, 14, 19, 24, 27]",132.5964661,35151,1222,1,6,8,1.8455145785330662
undo,44,12,0,0,0,4,"[0, 25, 22, 16, 4]",5,5,"[12, 14, 19, 24, 27]",98.39120339,36310,1159,1,4,8,1.6140587576122385
undo,44,12,0,0,0,12,"[0, 25, 22, 16, 4, 12]",6,2,"[14, 27]",56.20115717,37545,1235,1,1,8,1.4755917731057815
undo,44,12,0,0,0,27,"[0, 25, 22, 16, 4, 12, 27]",7,1,[14],31.84956584,39100,1555,1,0,8,1.5677023473114235
undo,44,12,0,0,1,14,"[0, 25, 22, 16, 4, 12, 27, 14]",8,0,[],3.196468279,40450,1350,1,0,8,1.5941060060123788
undo,44,12,0,1,1,14,"[0, 25, 22, 16, 4, 12, 27, 14]",8,0,[],3.196468279,41322,872,1,0,8,1.5941060060123788
undo,45,4,0,0,0,0,[0],1,26,"[3, 4, 5, 6, 7, 8, 10, 11, 12, 13, 14, 15, 16, 17, 18, 19, 20, 21, 22, 23, 24, 25, 26, 27, 28, 29]",300,344,-1,4,489,10,0.0
undo,45,4,0,0,0,13,"[0, 13]",2,23,"[3, 4, 5, 6, 7, 10, 11, 12, 14, 15, 16, 17, 19, 20, 21, 22, 23, 24, 25, 26, 27, 28, 29]",232.1030192,4463,4119,2,270,10,1.0
undo,45,4,0,0,0,21,"[0, 13, 21]",3,15,"[3, 4, 5, 6, 11, 12, 14, 16, 17, 20, 22, 24, 25, 26, 28]",151.3255471,6457,1994,5,109,9,1.0059127769187233
undo,45,4,0,0,0,22,"[0, 13, 21, 22]",4,13,"[3, 4, 5, 11, 12, 14, 16, 17, 20, 24, 25, 26, 28]",140.2801861,7943,1486,5,77,9,1.0066796920537646
undo,45,4,0,0,0,17,"[0, 13, 21, 22, 17]",5,7,"[3, 5, 11, 14, 16, 20, 25]",89.68374353,10113,2170,1,16,9,1.283060370513767
undo,45,4,0,0,0,16,"[0, 13, 21, 22, 17, 16]",6,5,"[3, 11, 14, 20, 25]",63.60693391,11174,1061,1,4,9,1.7149304222356567
undo,45,4,0,0,0,11,"[0, 13, 21, 22, 17, 16, 11]",7,2,"[14, 25]",48.60693391,12118,944,1,1,9,2.045943255409013
undo,45,4,0,0,0,25,"[0, 13, 21, 22, 17, 16, 11, 25]",8,1,[14],29.81863968,13213,1095,1,0,9,2.130584964989508
undo,45,4,0,0,1,14,"[0, 13, 21, 22, 17, 16, 11, 25, 14]",9,0,[],13.69412418,14487,1274,1,0,9,2.096536784246053
undo,45,4,0,1,1,14,"[0, 13, 21, 22, 17, 16, 11, 25, 14]",9,0,[],13.69412418,15603,1116,1,0,9,2.096536784246053
undo,46,39,0,0,0,0,[0],1,28,"[1, 2, 3, 4, 5, 6, 7, 9, 10, 11, 12, 13, 14, 15, 16, 17, 18, 19, 20, 21, 22, 23, 24, 25, 26, 27, 28, 29]",300,507,-1,1,30,10,0.0
undo,46,39,0,0,0,29,"[0, 29]",2,26,"[1, 2, 3, 4, 5, 6, 7, 9, 10, 12, 13, 14, 15, 16, 17, 18, 19, 20, 21, 22, 23, 24, 25, 26, 27, 28]",243.0614366,6056,5549,8,104,9,1.0
undo,46,39,0,0,0,12,"[0, 29, 12]",3,18,"[1, 2, 4, 5, 7, 9, 10, 13, 14, 15, 16, 18, 19, 22, 23, 24, 26, 28]",182.5221931,7415,1359,5,54,9,1.0026200331524904
undo,46,39,0,0,0,10,"[0, 29, 12, 10]",4,16,"[1, 2, 4, 5, 7, 9, 13, 14, 15, 16, 18, 19, 22, 23, 24, 26]",147.0116313,9836,2421,5,34,9,1.2874817019928908
undo,46,39,0,0,0,7,"[0, 29, 12, 10, 7]",5,10,"[1, 2, 5, 13, 16, 18, 19, 22, 24, 26]",113.5900814,12399,2563,4,12,9,1.2250826263866774
undo,46,39,0,0,0,26,"[0, 29, 12, 10, 7, 26]",6,5,"[1, 16, 18, 19, 22]",94.90853971,13503,1104,3,4,9,1.2697275353190085
undo,46,39,0,0,0,22,"[0, 29, 12, 10, 7, 26, 22]",7,2,"[16, 19]",77.18849457,14428,925,2,0,9,1.438961743955176
undo,46,39,0,0,0,16,"[0, 29, 12, 10, 7, 26, 22, 16]",8,1,[19],42.18849457,16273,1845,1,0,9,1.3580882130477205
undo,46,39,0,0,1,19,"[0, 29, 12, 10, 7, 26, 22, 16, 19]",9,0,[],24.72424537,17791,1518,1,0,9,1.3646589157842668
undo,46,39,0,1,1,19,"[0, 29, 12, 10, 7, 26, 22, 16, 19]",9,0,[],24.72424537,21153,3362,1,0,9,1.3646589157842668
undo,47,19,0,0,0,0,[0],1,29,"[1, 2, 3, 4, 5, 6, 7, 8, 9, 10, 11, 12, 13, 14, 15, 16, 17, 18, 19, 20, 21, 22, 23, 24, 25, 26, 27, 28, 29]",300,387,-1,12,149,8,0.0
undo,47,19,0,0,0,28,"[0, 28]",2,10,"[4, 6, 9, 10, 11, 14, 20, 22, 24, 27]",136.1219966,4453,4066,2,14,7,1.0
undo,47,19,0,0,0,4,"[0, 28, 4]",3,9,"[6, 9, 10, 11, 14, 20, 22, 24, 27]",124.9416567,5861,1408,2,10,7,1.0622089009735736
undo,47,19,0,0,0,11,"[0, 28, 4, 11]",4,4,"[14, 20, 22, 24]",66.80388929,7116,1255,4,1,6,1.0635812936430165
undo,47,19,0,0,0,20,"[0, 28, 4, 11, 20]",5,1,[22],19.00221568,11170,4054,1,0,6,1.2429150819497368
undo,47,19,0,0,1,22,"[0, 28, 4, 11, 20, 22]",6,0,[],5.849269244,12199,1029,1,0,6,1.3807458982465621
undo,47,19,1,0,0,20,"[0, 28, 4, 11, 20]",5,1,[22],19.00221568,15821,3622,1,0,6,1.2429150819497368
undo,47,19,1,0,0,11,"[0, 28, 4, 11]",4,4,"[14, 20, 22, 24]",66.80388929,16003,182,4,1,6,1.0635812936430165
undo,47,19,1,0,0,4,"[0, 28, 4]",3,9,"[6, 9, 10, 11, 14, 20, 22, 24, 27]",124.9416567,16156,153,2,10,7,1.0622089009735736
undo,47,19,1,0,0,28,"[0, 28]",2,10,"[4, 6, 9, 10, 11, 14, 20, 22, 24, 27]",136.1219966,16338,182,2,14,7,1.0
undo,47,19,1,0,0,0,[0],1,29,"[1, 2, 3, 4, 5, 6, 7, 8, 9, 10, 11, 12, 13, 14, 15, 16, 17, 18, 19, 20, 21, 22, 23, 24, 25, 26, 27, 28, 29]",300,16490,152,12,149,8,0.0
undo,47,19,0,0,0,12,"[0, 12]",2,15,"[1, 2, 3, 5, 8, 9, 13, 16, 17, 18, 19, 21, 23, 25, 29]",180.3964883,21020,4530,9,58,7,1.0
undo,47,19,0,0,0,17,"[0, 12, 17]",3,11,"[1, 2, 3, 8, 13, 16, 18, 19, 23, 25, 29]",160.2718765,22170,1150,6,25,7,1.0081383695928103
undo,47,19,0,0,0,25,"[0, 12, 17, 25]",4,10,"[1, 2, 3, 8, 13, 16, 18, 19, 23, 29]",149.2265155,23160,990,6,16,7,1.1056437189959143
undo,47,19,0,0,0,23,"[0, 12, 17, 25, 23]",5,6,"[1, 2, 3, 8, 18, 19]",79.58457415,24704,1544,3,4,7,1.2258550858033517
undo,47,19,0,0,0,3,"[0, 12, 17, 25, 23, 3]",6,2,"[8, 18]",57.65286195,27938,3234,2,0,7,1.2025561392684052
undo,47,19,0,0,1,18,"[0, 12, 17, 25, 23, 3, 18]",7,0,[],3.246979911,29386,1448,1,0,7,1.2012323529768285
undo,47,19,0,1,1,18,"[0, 12, 17, 25, 23, 3, 18]",7,0,[],3.246979911,31236,1850,1,0,7,1.2012323529768285
undo,48,22,0,0,0,0,[0],1,29,"[1, 2, 3, 4, 5, 6, 7, 8, 9, 10, 11, 12, 13, 14, 15, 16, 17, 18, 19, 20, 21, 22, 23, 24, 25, 26, 27, 28, 29]",300,460,-1,31,704,9,0.0
undo,48,22,0,0,0,28,"[0, 28]",2,15,"[3, 6, 7, 9, 13, 14, 16, 17, 19, 20, 21, 22, 24, 25, 29]",189.3971067,4010,3550,22,129,8,1.0
undo,48,22,0,0,0,6,"[0, 28, 6]",3,13,"[7, 9, 13, 14, 16, 17, 19, 20, 21, 22, 24, 25, 29]",159.3971067,5291,1281,17,67,8,1.5866329124984944
undo,48,22,0,0,0,29,"[0, 28, 6, 29]",4,10,"[7, 9, 13, 14, 16, 17, 19, 20, 21, 24]",101.5265615,6766,1475,2,5,8,2.5773597805604878
undo,48,22,0,0,0,19,"[0, 28, 6, 29, 19]",5,6,"[7, 9, 14, 16, 17, 24]",86.49326517,7702,936,2,3,8,2.681433000571981
undo,48,22,0,0,0,9,"[0, 28, 6, 29, 19, 9]",6,3,"[7, 14, 16]",66.09718711,8961,1259,2,1,8,2.6118501739960673
undo,48,22,0,0,0,14,"[0, 28, 6, 29, 19, 9, 14]",7,1,[7],23.05070061,10911,1950,1,0,8,2.137919517868624
undo,48,22,0,0,1,7,"[0, 28, 6, 29, 19, 9, 14, 7]",8,0,[],10.0122958,14433,3522,1,0,8,2.305778187172545
undo,48,22,0,1,1,7,"[0, 28, 6, 29, 19, 9, 14, 7]",8,0,[],10.0122958,16108,1675,1,0,8,2.305778187172545
undo,49,44,0,0,0,0,[0],1,29,"[1, 2, 3, 4, 5, 6, 7, 8, 9, 10, 11, 12, 13, 14, 15, 16, 17, 18, 19, 20, 21, 22, 23, 24, 25, 26, 27, 28, 29]",300,511,-1,13,126,7,0.0
undo,49,44,0,0,0,9,"[0, 9]",2,17,"[2, 4, 5, 7, 8, 10, 11, 12, 13, 14, 20, 22, 23, 24, 25, 26, 28]",141.32423,4333,3822,3,26,7,1.0
undo,49,44,0,0,0,4,"[0, 9, 4]",3,15,"[2, 5, 7, 8, 10, 11, 12, 14, 20, 22, 23, 24, 25, 26, 28]",121.6265143,5946,1613,3,21,7,1.0155532843148096
undo,49,44,0,0,0,7,"[0, 9, 4, 7]",4,10,"[2, 5, 11, 12, 14, 23, 24, 25, 26, 28]",90.61038951,7574,1628,3,9,7,1.0134022837125412
undo,49,44,0,0,0,23,"[0, 9, 4, 7, 23]",5,7,"[5, 12, 14, 24, 25, 26, 28]",71.50541634,9043,1469,3,4,7,1.043310757564056
undo,49,44,0,0,0,28,"[0, 9, 4, 7, 23, 28]",6,1,[26],19.5342705,12355,3312,1,0,7,1.0580072524850708
undo,49,44,0,0,1,26,"[0, 9, 4, 7, 23, 28, 26]",7,0,[],6.534270496,13537,1182,1,0,7,1.055488728885845
undo,49,44,0,1,1,26,"[0, 9, 4, 7, 23, 28, 26]",7,0,[],6.534270496,16654,3117,1,0,7,1.055488728885845
undo,50,23,0,0,0,0,[0],1,28,"[1, 2, 3, 4, 5, 6, 7, 8, 9, 10, 11, 12, 13, 14, 15, 16, 17, 18, 19, 20, 21, 22, 23, 25, 26, 27, 28, 29]",300,616,-1,76,2626,10,0.0
undo,50,23,0,0,0,27,"[0, 27]",2,11,"[2, 6, 7, 9, 10, 12, 13, 14, 18, 22, 29]",156.8217894,3127,2511,6,455,9,1.0
undo,50,23,0,0,0,13,"[0, 27, 13]",3,9,"[2, 6, 7, 9, 12, 14, 18, 22, 29]",111.7219002,6483,3356,87,69,8,1.7011075111328362
undo,50,23,0,0,0,12,"[0, 27, 13, 12]",4,8,"[2, 6, 7, 9, 14, 18, 22, 29]",99.63885426,7725,1242,30,13,8,1.6344171596748487
undo,50,23,0,0,0,6,"[0, 27, 13, 12, 6]",5,3,"[2, 9, 14]",69.9572101,8957,1232,6,0,8,1.5311367666571027
undo,50,23,0,0,0,2,"[0, 27, 13, 12, 6, 2]",6,2,"[9, 14]",51.51812118,11813,2856,2,0,8,1.8209298788973396
undo,50,23,0,0,0,14,"[0, 27, 13, 12, 6, 2, 14]",7,1,[9],36.65205244,13315,1502,1,0,8,1.869173789167033
undo,50,23,0,0,1,9,"[0, 27, 13, 12, 6, 2, 14, 9]",8,0,[],26.21174593,15366,2051,1,0,8,2.0956115003254725
undo,50,23,0,1,1,9,"[0, 27, 13, 12, 6, 2, 14, 9]",8,0,[],26.21174593,27745,12379,1,0,8,2.0956115003254725
undo,51,36,0,0,0,0,[0],1,24,"[2, 4, 5, 6, 7, 8, 9, 10, 12, 13, 14, 15, 16, 17, 18, 19, 20, 22, 23, 25, 26, 27, 28, 29]",300,624,-1,2,200,10,0.0
undo,51,36,0,0,0,16,"[0, 16]",2,12,"[2, 8, 9, 10, 12, 13, 17, 18, 19, 23, 25, 27]",193.262003,4229,3605,20,112,8,1.0
undo,51,36,0,0,0,9,"[0, 16, 9]",3,9,"[2, 10, 12, 13, 17, 18, 19, 23, 25]",145.9650687,5818,1589,5,25,8,2.230283285754544
undo,51,36,0,0,0,17,"[0, 16, 9, 17]",4,6,"[2, 12, 13, 18, 19, 25]",119.7162592,7170,1352,2,8,8,1.9074707802314166
undo,51,36,0,0,0,19,"[0, 16, 9, 17, 19]",5,5,"[2, 12, 13, 18, 25]",91.8236078,8252,1082,2,4,8,2.7008576900950936
undo,51,36,0,0,0,2,"[0, 16, 9, 17, 19, 2]",6,2,"[13, 25]",54.70218541,9727,1475,1,1,8,2.172138429246357
undo,51,36,0,0,0,25,"[0, 16, 9, 17, 19, 2, 25]",7,1,[13],29.70218541,10746,1019,1,0,8,2.360882201101988
undo,51,36,0,0,1,13,"[0, 16, 9, 17, 19, 2, 25, 13]",8,0,[],9.110925128,12149,1403,1,0,8,2.9657864347763705
undo,51,36,0,1,1,13,"[0, 16, 9, 17, 19, 2, 25, 13]",8,0,[],9.110925128,18838,6689,1,0,8,2.9657864347763705
undo,52,42,0,0,0,0,[0],1,29,"[1, 2, 3, 4, 5, 6, 7, 8, 9, 10, 11, 12, 13, 14, 15, 16, 17, 18, 19, 20, 21, 22, 23, 24, 25, 26, 27, 28, 29]",300,373,-1,16,302,9,0.0
undo,52,42,0,0,0,5,"[0, 5]",2,28,"[1, 2, 3, 4, 6, 7, 8, 9, 10, 11, 12, 13, 14, 15, 16, 17, 18, 19, 20, 21, 22, 23, 24, 25, 26, 27, 28, 29]",191.2939744,4943,4570,1,22,9,1.0
undo,52,42,0,0,0,4,"[0, 5, 4]",3,23,"[1, 2, 3, 6, 7, 8, 9, 10, 11, 13, 15, 17, 18, 19, 20, 21, 22, 23, 24, 25, 26, 27, 29]",171.4445412,6200,1257,1,14,9,1.420957801478707
undo,52,42,0,0,0,22,"[0, 5, 4, 22]",4,20,"[1, 2, 3, 6, 7, 8, 9, 11, 15, 17, 18, 19, 20, 21, 23, 24, 25, 26, 27, 29]",160.2642013,10160,3960,1,11,9,1.5771494659680896
undo,52,42,0,0,0,8,"[0, 5, 4, 22, 8]",5,14,"[1, 2, 3, 6, 7, 11, 15, 18, 19, 24, 25, 26, 27, 29]",138.1282577,11344,1184,1,10,9,1.5055393955524201
undo,52,42,0,0,0,1,"[0, 5, 4, 22, 8, 1]",6,5,"[2, 7, 19, 26, 27]",89.03650682,15625,4281,1,7,9,1.3547259083637835
undo,52,42,0,0,0,7,"[0, 5, 4, 22, 8, 1, 7]",7,4,"[2, 19, 26, 27]",59.03650682,22968,7343,1,3,9,1.3909715672447451
undo,52,42,0,0,0,26,"[0, 5, 4, 22, 8, 1, 7, 26]",8,1,[27],32.46584631,25181,2213,1,0,9,1.3511825943939393
undo,52,42,0,0,1,27,"[0, 5, 4, 22, 8, 1, 7, 26, 27]",9,0,[],14.43808994,27874,2693,1,0,9,1.3391911688802078
undo,52,42,0,1,1,27,"[0, 5, 4, 22, 8, 1, 7, 26, 27]",9,0,[],14.43808994,31223,3349,1,0,9,1.3391911688802078
undo,53,31,0,0,0,0,[0],1,27,"[1, 3, 4, 5, 6, 7, 8, 10, 11, 12, 13, 14, 15, 16, 17, 18, 19, 20, 21, 22, 23, 24, 25, 26, 27, 28, 29]",300,506,-1,2,87,10,0.0
undo,53,31,0,0,0,14,"[0, 14]",2,25,"[1, 3, 5, 6, 7, 8, 10, 11, 12, 13, 15, 16, 17, 18, 19, 20, 21, 22, 23, 24, 25, 26, 27, 28, 29]",263.861378,4349,3843,2,59,10,1.0
undo,53,31,0,0,0,27,"[0, 14, 27]",3,22,"[1, 3, 5, 6, 7, 8, 10, 11, 12, 13, 15, 16, 17, 18, 19, 20, 21, 22, 24, 25, 28, 29]",235.6833724,7144,2795,1,39,10,1.5881859159302467
undo,53,31,0,0,0,8,"[0, 14, 27, 8]",4,20,"[1, 3, 5, 6, 7, 10, 11, 12, 13, 16, 17, 18, 19, 20, 21, 22, 24, 25, 28, 29]",224.6380114,9844,2700,1,36,10,2.1665048452331277
undo,53,31,0,0,0,18,"[0, 14, 27, 8, 18]",5,15,"[1, 5, 6, 7, 11, 12, 13, 16, 17, 19, 20, 22, 25, 28, 29]",188.7911147,14762,4918,1,26,10,1.7273375741920205
undo,53,31,0,0,0,17,"[0, 14, 27, 8, 18, 17]",6,13,"[1, 5, 6, 7, 11, 12, 13, 16, 19, 20, 22, 25, 28]",159.584951,16243,1481,1,13,10,1.551192427769927
undo,53,31,0,0,0,11,"[0, 14, 27, 8, 18, 17, 11]",7,7,"[5, 12, 16, 19, 22, 25, 28]",118.4753414,17635,1392,1,4,10,2.9650760544203494
undo,53,31,0,0,0,5,"[0, 14, 27, 8, 18, 17, 11, 5]",8,2,"[16, 28]",74.79468207,21035,3400,1,1,10,2.56711965625205
undo,53,31,0,0,0,28,"[0, 14, 27, 8, 18, 17, 11, 5, 28]",9,1,[16],54.57093365,22525,1490,1,0,10,2.2865510762058148
undo,53,31,0,0,1,16,"[0, 14, 27, 8, 18, 17, 11, 5, 28, 16]",10,0,[],20.95546102,24182,1657,1,0,10,2.089356850786318
undo,53,31,0,1,1,16,"[0, 14, 27, 8, 18, 17, 11, 5, 28, 16]",10,0,[],20.95546102,27225,3043,1,0,10,2.089356850786318
undo,54,6,0,0,0,0,[0],1,29,"[1, 2, 3, 4, 5, 6, 7, 8, 9, 10, 11, 12, 13, 14, 15, 16, 17, 18, 19, 20, 21, 22, 23, 24, 25, 26, 27, 28, 29]",300,900,-1,180,4304,10,0.0
undo,54,6,0,0,0,26,"[0, 26]",2,25,"[1, 2, 3, 4, 5, 6, 7, 8, 9, 10, 11, 12, 13, 14, 15, 16, 17, 18, 20, 21, 22, 23, 24, 27, 29]",250.2606795,5439,4539,45,776,10,1.0
undo,54,6,0,0,0,2,"[0, 26, 2]",3,20,"[1, 3, 4, 5, 6, 7, 8, 9, 10, 13, 14, 16, 17, 18, 21, 22, 23, 24, 27, 29]",220.4278118,7606,2167,20,184,10,1.003152463832065
undo,54,6,0,0,0,7,"[0, 26, 2, 7]",4,18,"[1, 3, 4, 6, 8, 9, 10, 13, 14, 16, 17, 18, 21, 22, 23, 24, 27, 29]",179.3182022,9328,1722,20,157,10,2.5131135963314413
undo,54,6,0,0,0,3,"[0, 26, 2, 7, 3]",5,13,"[1, 6, 8, 10, 13, 16, 17, 18, 21, 22, 23, 24, 29]",143.1795802,10852,1524,18,67,10,4.677560963942129
undo,54,6,0,0,0,24,"[0, 26, 2, 7, 3, 24]",6,7,"[6, 10, 16, 17, 18, 23, 29]",79.22647236,12403,1551,1,6,10,2.269152829670126
undo,54,6,0,0,0,10,"[0, 26, 2, 7, 3, 24, 10]",7,3,"[16, 17, 18]",65.81006449,15399,2996,1,3,10,2.776587067894167
undo,54,6,0,0,0,17,"[0, 26, 2, 7, 3, 24, 10, 17]",8,2,"[16, 18]",46.08698157,17685,2286,1,1,10,3.5977145070738255
undo,54,6,0,0,0,18,"[0, 26, 2, 7, 3, 24, 10, 17, 18]",9,1,[16],32.15859329,20934,3249,1,0,10,4.3979400049313275
undo,54,6,0,0,1,16,"[0, 26, 2, 7, 3, 24, 10, 17, 18, 16]",10,0,[],8.81335823,22602,1668,1,0,10,4.034155051068736
undo,54,6,0,1,1,16,"[0, 26, 2, 7, 3, 24, 10, 17, 18, 16]",10,0,[],8.81335823,24297,1695,1,0,10,4.034155051068736
undo,55,7,0,0,0,0,[0],1,29,"[1, 2, 3, 4, 5, 6, 7, 8, 9, 10, 11, 12, 13, 14, 15, 16, 17, 18, 19, 20, 21, 22, 23, 24, 25, 26, 27, 28, 29]",300,505,-1,3,79,9,0.0
undo,55,7,0,0,0,25,"[0, 25]",2,20,"[2, 3, 4, 5, 6, 7, 10, 13, 14, 15, 16, 18, 19, 20, 21, 22, 23, 24, 27, 28]",181.5939191,8663,8158,5,33,8,1.0
undo,55,7,0,0,0,4,"[0, 25, 4]",3,11,"[2, 6, 7, 13, 15, 16, 18, 19, 20, 21, 23]",156.8552853,10345,1682,2,14,8,1.0193465608331511
undo,55,7,0,0,0,20,"[0, 25, 4, 20]",4,8,"[2, 6, 7, 13, 15, 16, 18, 19]",137.2084026,11565,1220,1,9,8,1.085904909082323
undo,55,7,0,0,0,18,"[0, 25, 4, 20, 18]",5,7,"[2, 6, 7, 13, 15, 16, 19]",124.4021541,12765,1200,1,5,8,1.2264883846453758
undo,55,7,0,0,0,7,"[0, 25, 4, 20, 18, 7]",6,2,"[2, 19]",83.17109789,14165,1400,1,1,8,1.185264473968278
undo,55,7,0,0,0,19,"[0, 25, 4, 20, 18, 7, 19]",7,1,[2],53.76021555,15580,1415,1,0,8,1.3016904288278204
undo,55,7,0,0,1,2,"[0, 25, 4, 20, 18, 7, 19, 2]",8,0,[],23.61058868,18008,2428,1,0,8,1.3168868000947171
undo,55,7,1,0,0,19,"[0, 25, 4, 20, 18, 7, 19]",7,1,[2],53.76021555,21823,3815,1,0,8,1.3016904288278204
undo,55,7,1,0,0,7,"[0, 25, 4, 20, 18, 7]",6,2,"[2, 19]",83.17109789,22013,190,1,1,8,1.185264473968278
undo,55,7,1,0,0,18,"[0, 25, 4, 20, 18]",5,7,"[2, 6, 7, 13, 15, 16, 19]",124.4021541,22172,159,1,5,8,1.2264883846453758
undo,55,7,1,0,0,20,"[0, 25, 4, 20]",4,8,"[2, 6, 7, 13, 15, 16, 18, 19]",137.2084026,22334,162,1,9,8,1.085904909082323
undo,55,7,1,0,0,4,"[0, 25, 4]",3,11,"[2, 6, 7, 13, 15, 16, 18, 19, 20, 21, 23]",156.8552853,22504,170,2,14,8,1.0193465608331511
undo,55,7,1,0,0,25,"[0, 25]",2,20,"[2, 3, 4, 5, 6, 7, 10, 13, 14, 15, 16, 18, 19, 20, 21, 22, 23, 24, 27, 28]",181.5939191,22656,152,5,33,8,1.0
undo,55,7,1,0,0,0,[0],1,29,"[1, 2, 3, 4, 5, 6, 7, 8, 9, 10, 11, 12, 13, 14, 15, 16, 17, 18, 19, 20, 21, 22, 23, 24, 25, 26, 27, 28, 29]",300,22804,148,3,79,9,0.0
undo,55,7,0,0,0,6,"[0, 6]",2,22,"[2, 4, 5, 7, 8, 9, 10, 11, 13, 14, 15, 16, 18, 19, 20, 21, 22, 23, 24, 25, 27, 28]",231.1160396,25539,2735,1,24,9,1.0
undo,55,7,0,0,0,25,"[0, 6, 25]",3,14,"[2, 4, 5, 7, 13, 14, 15, 16, 18, 19, 20, 21, 23, 28]",163.9371739,27009,1470,1,15,9,1.1491202566384209
undo,55,7,0,0,0,4,"[0, 6, 25, 4]",4,10,"[2, 7, 13, 15, 16, 18, 19, 20, 21, 23]",139.1985401,28075,1066,1,9,9,1.145081852791697
undo,55,7,0,0,0,20,"[0, 6, 25, 4, 20]",5,6,"[2, 7, 13, 16, 18, 19]",119.5516574,30483,2408,1,4,9,1.2036846139155144
undo,55,7,0,0,0,18,"[0, 6, 25, 4, 20, 18]",6,5,"[2, 7, 13, 16, 19]",106.7454089,31590,1107,1,3,9,1.3498144584217913
undo,55,7,0,0,0,7,"[0, 6, 25, 4, 20, 18, 7]",7,2,"[2, 19]",65.51435269,34371,2781,1,1,9,1.2817825700699357
undo,55,7,0,0,0,19,"[0, 6, 25, 4, 20, 18, 7, 19]",8,1,[2],36.10347035,35578,1207,1,0,9,1.3950287830764145
undo,55,7,0,0,1,2,"[0, 6, 25, 4, 20, 18, 7, 19, 2]",9,0,[],5.953843486,37133,1555,1,0,9,1.4010142439340676
undo,55,7,0,1,1,2,"[0, 6, 25, 4, 20, 18, 7, 19, 2]",9,0,[],5.953843486,38635,1502,1,0,9,1.4010142439340676
undo,56,5,0,0,0,0,[0],1,29,"[1, 2, 3, 4, 5, 6, 7, 8, 9, 10, 11, 12, 13, 14, 15, 16, 17, 18, 19, 20, 21, 22, 23, 24, 25, 26, 27, 28, 29]",300,503,-1,5,139,9,0.0
undo,56,5,0,0,0,12,"[0, 12]",2,22,"[2, 4, 5, 6, 8, 9, 10, 13, 14, 15, 16, 17, 18, 19, 21, 22, 23, 24, 25, 26, 27, 28]",228.3062067,5378,4875,1,27,9,1.0
undo,56,5,0,0,0,25,"[0, 12, 25]",3,21,"[2, 4, 5, 6, 8, 9, 10, 13, 14, 15, 16, 17, 18, 19, 21, 22, 23, 24, 26, 27, 28]",200.5213187,6558,1180,1,20,9,1.584023303445617
undo,56,5,0,0,0,23,"[0, 12, 25, 23]",4,19,"[2, 4, 5, 6, 8, 9, 10, 13, 14, 15, 16, 17, 18, 19, 21, 22, 24, 26, 27]",182.0822298,7917,1359,1,14,9,2.3508446989254357
undo,56,5,0,0,0,24,"[0, 12, 25, 23, 24]",5,15,"[2, 4, 5, 6, 8, 9, 13, 14, 15, 17, 18, 19, 22, 26, 27]",158.995437,9558,1641,1,12,9,1.9469752046288753
undo,56,5,0,0,0,17,"[0, 12, 25, 23, 24, 17]",6,7,"[4, 5, 6, 8, 15, 18, 19]",124.0097257,12747,3189,1,8,9,1.6482276497563642
undo,56,5,0,0,0,5,"[0, 12, 25, 23, 24, 17, 5]",7,4,"[4, 6, 15, 18]",80.96323916,13997,1250,1,3,9,1.4654649104389412
undo,56,5,0,0,1,15,"[0, 12, 25, 23, 24, 17, 5, 15]",8,0,[],40.93824697,15568,1571,1,0,8,1.4660376450939663
undo,56,5,0,1,1,15,"[0, 12, 25, 23, 24, 17, 5, 15]",8,0,[],40.93824697,18281,2713,1,0,8,1.4660376450939663
undo,57,1,0,0,0,0,[0],1,26,"[1, 2, 4, 5, 7, 8, 9, 10, 11, 12, 13, 14, 15, 16, 17, 18, 19, 20, 21, 22, 23, 24, 25, 26, 28, 29]",300,599,-1,6,74,7,0.0
undo,57,1,0,0,0,14,"[0, 14]",2,19,"[1, 4, 5, 8, 9, 13, 15, 17, 18, 19, 20, 21, 22, 23, 24, 25, 26, 28, 29]",200.1901808,10081,9482,5,42,7,1.0
undo,57,1,0,0,0,17,"[0, 14, 17]",3,15,"[1, 4, 5, 8, 9, 13, 15, 18, 19, 20, 22, 23, 25, 28, 29]",147.8356204,11627,1546,5,27,7,1.0028844724416826
undo,57,1,0,0,0,1,"[0, 14, 17, 1]",4,12,"[4, 5, 8, 9, 15, 18, 20, 22, 23, 25, 28, 29]",123.4840291,15653,4026,5,15,7,1.0264985578353567
undo,57,1,0,0,0,28,"[0, 14, 17, 1, 28]",5,5,"[9, 15, 22, 23, 29]",88.59850198,17243,1590,5,3,7,1.0339861575999345
undo,57,1,0,0,0,23,"[0, 14, 17, 1, 28, 23]",6,2,"[15, 22]",51.70676849,18823,1580,2,0,7,1.0327458250705703
undo,57,1,0,0,1,15,"[0, 14, 17, 1, 28, 23, 15]",7,0,[],20.81987807,20617,1794,1,0,7,1.1948681641401226
undo,57,1,1,0,0,23,"[0, 14, 17, 1, 28, 23]",6,2,"[15, 22]",51.70676849,23098,2481,2,0,7,1.0327458250705703
undo,57,1,1,0,0,28,"[0, 14, 17, 1, 28]",5,5,"[9, 15, 22, 23, 29]",88.59850198,23292,194,5,3,7,1.0339861575999345
undo,57,1,1,0,0,1,"[0, 14, 17, 1]",4,12,"[4, 5, 8, 9, 15, 18, 20, 22, 23, 25, 28, 29]",123.4840291,23441,149,5,15,7,1.0264985578353567
undo,57,1,1,0,0,17,"[0, 14, 17]",3,15,"[1, 4, 5, 8, 9, 13, 15, 18, 19, 20, 22, 23, 25, 28, 29]",147.8356204,23611,170,5,27,7,1.0028844724416826
undo,57,1,1,0,0,14,"[0, 14]",2,19,"[1, 4, 5, 8, 9, 13, 15, 17, 18, 19, 20, 21, 22, 23, 24, 25, 26, 28, 29]",200.1901808,23745,134,5,42,7,1.0
undo,57,1,1,0,0,0,[0],1,26,"[1, 2, 4, 5, 7, 8, 9, 10, 11, 12, 13, 14, 15, 16, 17, 18, 19, 20, 21, 22, 23, 24, 25, 26, 28, 29]",300,23917,172,6,74,7,0.0
undo,57,1,0,0,0,20,"[0, 20]",2,13,"[1, 4, 5, 8, 11, 13, 14, 15, 17, 18, 19, 28, 29]",129.961769,26595,2678,2,11,6,1.0
undo,57,1,0,0,0,5,"[0, 20, 5]",3,9,"[1, 4, 8, 11, 13, 17, 18, 19, 29]",108.4908585,27759,1164,2,6,6,1.0224915251419384
undo,57,1,0,0,0,18,"[0, 20, 5, 18]",4,4,"[4, 13, 17, 29]",85.66543403,28912,1153,2,3,6,1.064078468417926
undo,57,1,0,0,0,4,"[0, 20, 5, 18, 4]",5,2,"[13, 29]",46.71674984,30477,1565,2,0,6,1.0731955739217967
undo,57,1,1,0,0,18,"[0, 20, 5, 18]",4,4,"[4, 13, 17, 29]",85.66543403,32250,1773,2,3,6,1.064078468417926
undo,57,1,1,0,0,5,"[0, 20, 5]",3,9,"[1, 4, 8, 11, 13, 17, 18, 19, 29]",108.4908585,32406,156,2,6,6,1.0224915251419384
undo,57,1,1,0,0,20,"[0, 20]",2,13,"[1, 4, 5, 8, 11, 13, 14, 15, 17, 18, 19, 28, 29]",129.961769,32563,157,2,11,6,1.0
undo,57,1,1,0,0,0,[0],1,26,"[1, 2, 4, 5, 7, 8, 9, 10, 11, 12, 13, 14, 15, 16, 17, 18, 19, 20, 21, 22, 23, 24, 25, 26, 28, 29]",300,32732,169,6,74,7,0.0
undo,57,1,0,0,0,14,"[0, 14]",2,19,"[1, 4, 5, 8, 9, 13, 15, 17, 18, 19, 20, 21, 22, 23, 24, 25, 26, 28, 29]",200.1901808,36696,3964,5,42,7,1.0
undo,57,1,0,0,0,17,"[0, 14, 17]",3,15,"[1, 4, 5, 8, 9, 13, 15, 18, 19, 20, 22, 23, 25, 28, 29]",147.8356204,38807,2111,5,27,7,1.0028844724416826
undo,57,1,0,0,0,1,"[0, 14, 17, 1]",4,12,"[4, 5, 8, 9, 15, 18, 20, 22, 23, 25, 28, 29]",123.4840291,42778,3971,5,15,7,1.0264985578353567
undo,57,1,0,0,0,28,"[0, 14, 17, 1, 28]",5,5,"[9, 15, 22, 23, 29]",88.59850198,45411,2633,5,3,7,1.0339861575999345
undo,57,1,0,0,0,23,"[0, 14, 17, 1, 28, 23]",6,2,"[15, 22]",51.70676849,47533,2122,2,0,7,1.0327458250705703
undo,57,1,0,0,1,15,"[0, 14, 17, 1, 28, 23, 15]",7,0,[],20.81987807,49287,1754,1,0,7,1.1948681641401226
undo,57,1,0,1,1,15,"[0, 14, 17, 1, 28, 23, 15]",7,0,[],20.81987807,50295,1008,1,0,7,1.1948681641401226
undo,58,2,0,0,0,0,[0],1,23,"[1, 2, 4, 5, 6, 7, 8, 9, 12, 13, 15, 16, 17, 18, 19, 20, 22, 23, 25, 26, 27, 28, 29]",300,495,-1,70,620,10,0.0
undo,58,2,0,0,0,19,"[0, 19]",2,22,"[1, 2, 4, 5, 6, 7, 8, 9, 12, 13, 15, 16, 17, 18, 20, 22, 23, 25, 26, 27, 28, 29]",210.306076,5579,5084,67,431,10,1.0
