condition,trial_id,map_id,undoIndicator,submit,checkEnd,currentChoice,chosen_all,n_city_all,n_within_reach,cities_reach,currentBudget,time_all,rt_all,n_opt_paths_all,n_subopt_paths_all,mas_all,tortuosity_all
basic,0,28,0,0,0,0,[0],1,27,"[1, 2, 3, 4, 5, 6, 7, 8, 9, 10, 11, 12, 13, 14, 15, 16, 17, 18, 19, 20, 22, 23, 25, 26, 27, 28, 29]",300,227,-1,2,96,9,0.0
basic,0,28,0,0,0,3,"[0, 3]",2,26,"[1, 2, 4, 5, 6, 7, 8, 9, 10, 11, 12, 13, 14, 15, 16, 17, 18, 19, 20, 22, 23, 25, 26, 27, 28, 29]",251.0817008,5256,5029,1,64,9,1.0
basic,0,28,0,0,0,20,"[0, 3, 20]",3,20,"[2, 4, 5, 6, 7, 8, 9, 10, 11, 12, 13, 14, 15, 16, 18, 19, 22, 23, 26, 28]",209.7416475,6068,812,2,29,8,1.6703057504555512
basic,0,28,0,0,0,15,"[0, 3, 20, 15]",4,10,"[5, 6, 8, 9, 10, 16, 22, 23, 26, 28]",157.2440286,7090,1022,1,6,7,1.4376587969564578
basic,0,28,0,0,0,5,"[0, 3, 20, 15, 5]",5,1,[26],51.3148069,8783,1693,1,0,6,1.9077211700878633
basic,0,28,0,0,1,26,"[0, 3, 20, 15, 5, 26]",6,0,[],18.55812819,9885,1102,1,0,6,1.7512983446699026
basic,0,28,0,1,1,26,"[0, 3, 20, 15, 5, 26]",6,0,[],18.55812819,11682,1797,1,0,6,1.7512983446699026
basic,1,37,0,0,0,0,[0],1,29,"[1, 2, 3, 4, 5, 6, 7, 8, 9, 10, 11, 12, 13, 14, 15, 16, 17, 18, 19, 20, 21, 22, 23, 24, 25, 26, 27, 28, 29]",300,168,-1,6,168,10,0.0
basic,1,37,0,0,0,18,"[0, 18]",2,19,"[1, 2, 4, 6, 7, 9, 10, 12, 14, 15, 17, 19, 20, 21, 22, 23, 26, 28, 29]",202.4090168,4534,4366,6,89,10,1.0
basic,1,37,0,0,0,22,"[0, 18, 22]",3,9,"[1, 2, 4, 7, 15, 19, 20, 21, 26]",136.9720242,6043,1509,15,58,9,1.001057447339584
basic,1,37,0,0,0,4,"[0, 18, 22, 4]",4,8,"[1, 2, 7, 15, 19, 20, 21, 26]",111.9720242,7917,1874,8,28,9,1.1568597805027683
basic,1,37,0,0,0,2,"[0, 18, 22, 4, 2]",5,7,"[1, 7, 15, 19, 20, 21, 26]",100.57027,8647,730,7,12,9,1.3192232340552885
basic,1,37,0,0,0,1,"[0, 18, 22, 4, 2, 1]",6,6,"[7, 15, 19, 20, 21, 26]",83.36561943,10002,1355,7,4,9,1.3683384389764814
basic,1,37,0,0,0,20,"[0, 18, 22, 4, 2, 1, 20]",7,4,"[15, 19, 21, 26]",49.13113389,11924,1922,3,2,9,1.6736124378078914
basic,1,37,0,0,0,15,"[0, 18, 22, 4, 2, 1, 20, 15]",8,1,[21],32.13113389,12662,738,1,0,9,1.6098167659402671
basic,1,37,0,0,1,21,"[0, 18, 22, 4, 2, 1, 20, 15, 21]",9,0,[],17.13113389,13515,853,1,0,9,1.8226858592510353
basic,1,37,0,1,1,21,"[0, 18, 22, 4, 2, 1, 20, 15, 21]",9,0,[],17.13113389,14708,1193,1,0,9,1.8226858592510353
basic,2,9,0,0,0,0,[0],1,27,"[1, 3, 4, 5, 6, 7, 8, 9, 10, 11, 13, 14, 15, 16, 17, 18, 19, 20, 21, 22, 23, 24, 25, 26, 27, 28, 29]",300,428,-1,2,182,10,0.0
basic,2,9,0,0,0,25,"[0, 25]",2,24,"[1, 3, 4, 5, 6, 7, 8, 9, 10, 11, 13, 15, 16, 17, 18, 19, 20, 21, 22, 23, 24, 26, 27, 28]",275.9168108,5375,4947,2,104,10,1.0
basic,2,9,0,0,0,10,"[0, 25, 10]",3,20,"[3, 4, 5, 7, 8, 9, 11, 13, 15, 16, 17, 18, 19, 20, 21, 22, 23, 26, 27, 28]",236.0670932,6476,1101,2,76,10,1.1767014107208227
basic,2,9,0,0,0,23,"[0, 25, 10, 23]",4,17,"[3, 4, 5, 7, 8, 9, 11, 16, 17, 18, 19, 20, 21, 22, 26, 27, 28]",172.9085625,12163,5687,13,69,9,2.1345590432489923
basic,2,9,0,0,0,8,"[0, 25, 10, 23, 8]",5,14,"[3, 4, 7, 9, 11, 16, 18, 19, 20, 21, 22, 26, 27, 28]",151.4376519,13300,1137,5,23,9,2.329261685228971
basic,2,9,0,0,0,28,"[0, 25, 10, 23, 8, 28]",6,11,"[4, 7, 9, 16, 18, 19, 20, 21, 22, 26, 27]",140.6209981,14389,1089,4,11,9,2.145752418917821
basic,2,9,0,0,0,26,"[0, 25, 10, 23, 8, 28, 26]",7,5,"[9, 18, 19, 20, 21]",95.84377172,18405,4016,2,3,9,1.7475440299711555
basic,2,9,0,0,1,18,"[0, 25, 10, 23, 8, 28, 26, 18]",8,0,[],34.9668467,19974,1569,1,0,8,1.5208199739252288
basic,2,9,0,1,1,18,"[0, 25, 10, 23, 8, 28, 26, 18]",8,0,[],34.9668467,22330,2356,1,0,8,1.5208199739252288
basic,3,26,0,0,0,0,[0],1,29,"[1, 2, 3, 4, 5, 6, 7, 8, 9, 10, 11, 12, 13, 14, 15, 16, 17, 18, 19, 20, 21, 22, 23, 24, 25, 26, 27, 28, 29]",300,416,-1,9,226,9,0.0
basic,3,26,0,0,0,10,"[0, 10]",2,6,"[4, 6, 14, 16, 17, 29]",138.1822012,3662,3246,9,66,7,1.0
basic,3,26,0,0,0,6,"[0, 10, 6]",3,5,"[4, 14, 16, 17, 29]",108.9076389,4677,1015,8,23,7,1.1897813099332413
basic,3,26,0,0,0,14,"[0, 10, 6, 14]",4,4,"[4, 16, 17, 29]",87.88384285,6503,1826,4,6,7,1.3162481558218453
basic,3,26,0,0,0,17,"[0, 10, 6, 14, 17]",5,3,"[4, 16, 29]",65.41163779,7525,1022,3,1,7,1.6510075497064465
basic,3,26,0,0,0,4,"[0, 10, 6, 14, 17, 4]",6,1,[29],44.31661468,8510,985,1,0,7,2.1095586782058087
basic,3,26,0,0,1,29,"[0, 10, 6, 14, 17, 4, 29]",7,0,[],20.31661468,9295,785,1,0,7,2.288952413143475
basic,3,26,0,1,1,29,"[0, 10, 6, 14, 17, 4, 29]",7,0,[],20.31661468,10405,1110,1,0,7,2.288952413143475
basic,4,30,0,0,0,0,[0],1,19,"[3, 4, 5, 7, 9, 11, 16, 17, 18, 19, 20, 21, 22, 24, 25, 26, 27, 28, 29]",300,404,-1,5,41,8,0.0
basic,4,30,0,0,0,16,"[0, 16]",2,17,"[3, 5, 7, 9, 11, 17, 18, 19, 20, 21, 22, 24, 25, 26, 27, 28, 29]",219.3774225,12566,12162,5,34,8,1.0
basic,4,30,0,0,0,25,"[0, 16, 25]",3,10,"[3, 5, 7, 9, 11, 18, 19, 20, 27, 29]",115.0845656,13858,1292,5,28,8,1.0336279544884488
basic,4,30,0,0,0,27,"[0, 16, 25, 27]",4,7,"[3, 5, 7, 18, 19, 20, 29]",75.52448473,14898,1040,1,12,8,1.0719738181137488
basic,4,30,0,0,0,3,"[0, 16, 25, 27, 3]",5,5,"[5, 7, 18, 20, 29]",56.41951155,15596,698,1,4,8,1.0683252001879187
basic,4,30,0,0,0,29,"[0, 16, 25, 27, 3, 29]",6,2,"[5, 18]",37.81843632,16562,966,1,1,8,1.0768958290478794
basic,4,30,0,0,0,18,"[0, 16, 25, 27, 3, 29, 18]",7,1,[5],18.5052284,19006,2444,1,0,8,1.1525061930327378
basic,4,30,0,0,1,5,"[0, 16, 25, 27, 3, 29, 18, 5]",8,0,[],5.466823591,20692,1686,1,0,8,1.2180155123152177
basic,4,30,0,1,1,5,"[0, 16, 25, 27, 3, 29, 18, 5]",8,0,[],5.466823591,21529,837,1,0,8,1.2180155123152177
basic,5,20,0,0,0,0,[0],1,21,"[1, 2, 3, 4, 5, 6, 7, 8, 9, 12, 17, 18, 20, 21, 22, 23, 25, 26, 27, 28, 29]",300,504,-1,1,9,9,0.0
basic,5,20,0,0,0,12,"[0, 12]",2,20,"[1, 2, 3, 4, 5, 6, 7, 8, 9, 17, 18, 20, 21, 22, 23, 25, 26, 27, 28, 29]",271.5570747,21997,21493,1,8,9,1.0
basic,5,20,0,0,0,5,"[0, 12, 5]",3,13,"[1, 3, 4, 6, 8, 9, 20, 21, 23, 26, 27, 28, 29]",171.4321527,27128,5131,2,19,8,1.0232843285905395
basic,5,20,0,0,0,21,"[0, 12, 5, 21]",4,10,"[1, 4, 6, 8, 9, 20, 23, 26, 27, 28]",126.4321527,28098,970,2,12,8,1.017525191374897
basic,5,20,0,0,0,8,"[0, 12, 5, 21, 8]",5,6,"[1, 6, 9, 23, 27, 28]",108.9679035,29080,982,2,6,8,1.0391698601004782
basic,5,20,0,0,0,23,"[0, 12, 5, 21, 8, 23]",6,3,"[6, 9, 27]",64.28009758,30552,1472,2,1,8,1.0348450868606567
basic,5,20,0,0,0,6,"[0, 12, 5, 21, 8, 23, 6]",7,1,[9],25.79633477,32765,2213,1,0,8,1.0345466800024739
basic,5,20,0,0,1,9,"[0, 12, 5, 21, 8, 23, 6, 9]",8,0,[],2.774605905,35793,3028,1,0,8,1.2050118253607194
basic,5,20,0,1,1,9,"[0, 12, 5, 21, 8, 23, 6, 9]",8,0,[],2.774605905,36673,880,1,0,8,1.2050118253607194
basic,6,13,0,0,0,0,[0],1,29,"[1, 2, 3, 4, 5, 6, 7, 8, 9, 10, 11, 12, 13, 14, 15, 16, 17, 18, 19, 20, 21, 22, 23, 24, 25, 26, 27, 28, 29]",300,368,-1,60,2676,11,0.0
basic,6,13,0,0,0,24,"[0, 24]",2,28,"[1, 2, 3, 4, 5, 6, 7, 8, 9, 10, 11, 12, 13, 14, 15, 16, 17, 18, 19, 20, 21, 22, 23, 25, 26, 27, 28, 29]",288.8196601,2865,2497,16,1444,11,1.0
basic,6,13,0,0,0,28,"[0, 24, 28]",3,23,"[1, 2, 3, 4, 6, 7, 8, 9, 10, 11, 12, 13, 15, 16, 17, 19, 20, 21, 22, 23, 26, 27, 29]",222.5324064,5261,2396,8,243,11,1.0513810491680837
basic,6,13,0,0,0,2,"[0, 24, 28, 2]",4,19,"[1, 3, 4, 6, 7, 9, 11, 12, 13, 15, 16, 17, 19, 20, 21, 23, 26, 27, 29]",184.889346,6206,945,7,110,11,1.050374132001543
basic,6,13,0,0,0,29,"[0, 24, 28, 2, 29]",5,18,"[1, 3, 4, 6, 7, 9, 11, 12, 13, 15, 16, 17, 19, 20, 21, 23, 26, 27]",173.1846461,6887,681,7,85,11,1.1393409619120594
basic,6,13,0,0,0,7,"[0, 24, 28, 2, 29, 7]",6,17,"[1, 3, 4, 6, 9, 11, 12, 13, 15, 16, 17, 19, 20, 21, 23, 26, 27]",157.9203086,7794,907,5,45,11,1.349777315111579
basic,6,13,0,0,0,26,"[0, 24, 28, 2, 29, 7, 26]",7,16,"[1, 3, 4, 6, 9, 11, 12, 13, 15, 16, 17, 19, 20, 21, 23, 27]",147.480002,8562,768,5,25,11,1.5942082773824946
basic,6,13,0,0,0,6,"[0, 24, 28, 2, 29, 7, 26, 6]",8,12,"[1, 3, 4, 11, 13, 15, 16, 17, 19, 20, 23, 27]",127.3802508,9810,1248,4,12,11,1.5898347940840756
basic,6,13,0,0,0,11,"[0, 24, 28, 2, 29, 7, 26, 6, 11]",9,6,"[1, 13, 15, 16, 17, 23]",108.2752776,10646,836,3,4,11,1.5029953945561012
basic,6,13,0,0,0,17,"[0, 24, 28, 2, 29, 7, 26, 6, 11, 17]",10,1,[13],36.68617231,12033,1387,1,0,11,1.324993060397683
basic,6,13,0,0,1,13,"[0, 24, 28, 2, 29, 7, 26, 6, 11, 17, 13]",11,0,[],3.309533775,13459,1426,1,0,11,1.6349870606446535
basic,6,13,0,1,1,13,"[0, 24, 28, 2, 29, 7, 26, 6, 11, 17, 13]",11,0,[],3.309533775,14843,1384,1,0,11,1.6349870606446535
basic,7,40,0,0,0,0,[0],1,29,"[1, 2, 3, 4, 5, 6, 7, 8, 9, 10, 11, 12, 13, 14, 15, 16, 17, 18, 19, 20, 21, 22, 23, 24, 25, 26, 27, 28, 29]",300,156,-1,8,191,9,0.0
basic,7,40,0,0,0,2,"[0, 2]",2,28,"[1, 3, 4, 5, 6, 7, 8, 9, 10, 11, 12, 13, 14, 15, 16, 17, 18, 19, 20, 21, 22, 23, 24, 25, 26, 27, 28, 29]",263.7646581,4455,4299,4,79,9,1.0
basic,7,40,0,0,0,1,"[0, 2, 1]",3,13,"[5, 6, 8, 9, 10, 13, 17, 18, 19, 21, 22, 23, 27]",197.9695215,9833,5378,3,32,9,1.9563451201211088
basic,7,40,0,0,0,6,"[0, 2, 1, 6]",4,10,"[5, 8, 9, 13, 17, 18, 19, 21, 22, 23]",177.8697703,10473,640,3,29,9,1.767962123020631
basic,7,40,0,0,0,9,"[0, 2, 1, 6, 9]",5,6,"[5, 18, 19, 21, 22, 23]",109.2694788,14220,3747,1,5,9,1.5465201700077729
basic,7,40,0,0,0,18,"[0, 2, 1, 6, 9, 18]",6,5,"[5, 19, 21, 22, 23]",92.71653339,15101,881,1,3,9,1.7498663316327165
basic,7,40,0,0,0,23,"[0, 2, 1, 6, 9, 18, 23]",7,2,"[5, 19]",58.71653339,16136,1035,2,0,8,2.5439164316852643
basic,7,40,0,0,1,5,"[0, 2, 1, 6, 9, 18, 23, 5]",8,0,[],30.41459,17127,991,1,0,8,2.1920411000078244
basic,7,40,0,1,1,5,"[0, 2, 1, 6, 9, 18, 23, 5]",8,0,[],30.41459,18259,1132,1,0,8,2.1920411000078244
basic,8,18,0,0,0,0,[0],1,28,"[1, 2, 3, 4, 5, 6, 7, 8, 9, 10, 11, 12, 13, 14, 16, 17, 18, 19, 20, 21, 22, 23, 24, 25, 26, 27, 28, 29]",300,500,-1,3,136,10,0.0
basic,8,18,0,0,0,23,"[0, 23]",2,27,"[1, 2, 3, 4, 5, 6, 7, 8, 9, 10, 11, 12, 13, 14, 16, 17, 18, 19, 20, 21, 22, 24, 25, 26, 27, 28, 29]",261.5812546,4901,4401,25,425,9,1.0
basic,8,18,0,0,0,26,"[0, 23, 26]",3,26,"[1, 2, 3, 4, 5, 6, 7, 8, 9, 10, 11, 12, 13, 14, 16, 17, 18, 19, 20, 21, 22, 24, 25, 27, 28, 29]",242.9801793,6520,1619,13,184,9,1.3583850565219533
basic,8,18,0,0,0,16,"[0, 23, 26, 16]",4,18,"[1, 3, 4, 6, 7, 8, 9, 13, 14, 17, 18, 19, 20, 22, 24, 25, 28, 29]",184.4566798,8006,1486,9,26,8,1.1521542283472088
basic,8,18,0,0,0,9,"[0, 23, 26, 16, 9]",5,11,"[3, 4, 7, 8, 13, 14, 18, 19, 20, 25, 28]",150.4419771,11508,3502,9,11,8,1.4719251210465603
basic,8,18,0,0,0,13,"[0, 23, 26, 16, 9, 13]",6,4,"[3, 8, 14, 25]",60.74805309,13354,1846,5,2,8,2.5450894636499193
basic,8,18,0,0,1,25,"[0, 23, 26, 16, 9, 13, 25]",7,0,[],15.4711274,15383,2029,1,0,7,4.741489382200302
basic,8,18,0,1,1,25,"[0, 23, 26, 16, 9, 13, 25]",7,0,[],15.4711274,16981,1598,1,0,7,4.741489382200302
basic,9,33,0,0,0,0,[0],1,23,"[1, 2, 5, 7, 8, 11, 12, 13, 14, 15, 16, 17, 18, 19, 20, 21, 23, 24, 25, 26, 27, 28, 29]",300,367,-1,5,108,9,0.0
basic,9,33,0,0,0,21,"[0, 21]",2,17,"[2, 5, 7, 8, 11, 13, 14, 16, 17, 18, 19, 20, 24, 26, 27, 28, 29]",174.4611614,5938,5571,21,129,8,1.0
basic,9,33,0,0,0,13,"[0, 21, 13]",3,15,"[2, 5, 7, 8, 11, 14, 16, 17, 18, 19, 20, 24, 26, 28, 29]",148.0604038,6680,742,17,72,8,1.0001005298764474
basic,9,33,0,0,0,19,"[0, 21, 13, 19]",4,11,"[7, 11, 14, 16, 17, 18, 20, 24, 26, 28, 29]",122.5653063,7735,1055,10,27,8,1.0588446738393702
basic,9,33,0,0,0,24,"[0, 21, 13, 19, 24]",5,7,"[7, 14, 16, 18, 26, 28, 29]",80.51771417,8816,1081,3,5,8,1.078006777679028
basic,9,33,0,0,0,7,"[0, 21, 13, 19, 24, 7]",6,3,"[14, 26, 29]",51.31155044,10054,1238,3,1,8,1.1669985062633954
basic,9,33,0,0,0,14,"[0, 21, 13, 19, 24, 7, 14]",7,2,"[26, 29]",36.44548169,10838,784,2,0,8,1.2148465775488593
basic,9,33,0,0,1,26,"[0, 21, 13, 19, 24, 7, 14, 26]",8,0,[],23.79637105,12042,1204,1,0,8,1.2208379656544521
basic,9,33,0,1,1,26,"[0, 21, 13, 19, 24, 7, 14, 26]",8,0,[],23.79637105,13329,1287,1,0,8,1.2208379656544521
basic,10,4,0,0,0,0,[0],1,26,"[3, 4, 5, 6, 7, 8, 10, 11, 12, 13, 14, 15, 16, 17, 18, 19, 20, 21, 22, 23, 24, 25, 26, 27, 28, 29]",300,199,-1,4,489,10,0.0
basic,10,4,0,0,0,28,"[0, 28]",2,21,"[3, 4, 5, 6, 10, 11, 12, 13, 14, 15, 16, 17, 19, 20, 21, 22, 23, 24, 25, 26, 27]",225.9392142,10758,10559,2,216,10,1.0
basic,10,4,0,0,0,14,"[0, 28, 14]",3,13,"[3, 4, 5, 6, 11, 13, 16, 17, 20, 21, 22, 24, 25]",159.6972335,12220,1462,1,26,10,1.0273973946789214
basic,10,4,0,0,0,25,"[0, 28, 14, 25]",4,12,"[3, 4, 5, 6, 11, 13, 16, 17, 20, 21, 22, 24]",143.572718,13088,868,1,25,10,1.233547772313525
basic,10,4,0,0,0,11,"[0, 28, 14, 25, 11]",5,10,"[3, 4, 5, 6, 13, 16, 17, 20, 21, 22]",124.7844238,13936,848,1,15,10,1.425978575879479
basic,10,4,0,0,0,16,"[0, 28, 14, 25, 11, 16]",6,9,"[3, 4, 5, 6, 13, 17, 20, 21, 22]",109.7844238,14710,774,1,12,10,1.3799325158051412
basic,10,4,0,0,0,17,"[0, 28, 14, 25, 11, 16, 17]",7,5,"[3, 5, 20, 21, 22]",83.70761416,17885,3175,1,5,10,1.3195184878861832
basic,10,4,0,0,0,21,"[0, 28, 14, 25, 11, 16, 17, 21]",8,1,[22],34.45317274,19119,1234,1,0,9,1.7966566629354186
basic,10,4,0,0,1,22,"[0, 28, 14, 25, 11, 16, 17, 21, 22]",9,0,[],23.40781172,19754,635,1,0,9,1.7433011729935863
basic,10,4,0,1,1,22,"[0, 28, 14, 25, 11, 16, 17, 21, 22]",9,0,[],23.40781172,22916,3162,1,0,9,1.7433011729935863
basic,11,45,0,0,0,0,[0],1,24,"[1, 2, 3, 4, 5, 6, 7, 9, 10, 11, 12, 14, 15, 16, 17, 19, 20, 21, 22, 23, 24, 25, 27, 29]",300,256,-1,6,248,10,0.0
basic,11,45,0,0,0,15,"[0, 15]",2,23,"[1, 2, 3, 4, 5, 6, 7, 9, 10, 11, 12, 14, 16, 17, 19, 20, 21, 22, 23, 24, 25, 27, 29]",253.9022777,7777,7521,5,207,10,1.0
basic,11,45,0,0,0,23,"[0, 15, 23]",3,22,"[1, 2, 3, 4, 5, 6, 7, 9, 10, 11, 12, 14, 16, 17, 19, 20, 21, 22, 24, 25, 27, 29]",230.3014303,8485,708,5,163,10,1.0006068457769497
basic,11,45,0,0,0,20,"[0, 15, 23, 20]",4,19,"[1, 2, 3, 5, 6, 7, 9, 10, 11, 12, 14, 16, 17, 19, 21, 22, 24, 25, 29]",188.8647316,10189,1704,5,137,10,1.2062119754673604
basic,11,45,0,0,0,24,"[0, 15, 23, 20, 24]",5,14,"[1, 2, 3, 5, 6, 7, 9, 10, 12, 17, 19, 21, 22, 29]",145.0355176,11360,1171,1,23,10,1.5044386356496664
basic,11,45,0,0,0,7,"[0, 15, 23, 20, 24, 7]",6,9,"[2, 3, 6, 10, 12, 17, 19, 22, 29]",110.6262165,12254,894,1,22,10,1.4273775035809357
basic,11,45,0,0,0,2,"[0, 15, 23, 20, 24, 7, 2]",7,6,"[3, 6, 10, 12, 22, 29]",72.61306087,13302,1048,1,7,10,1.3566457419165387
basic,11,45,0,0,0,3,"[0, 15, 23, 20, 24, 7, 2, 3]",8,4,"[6, 10, 22, 29]",47.29508307,16474,3172,1,3,10,1.4087069987569252
basic,11,45,0,0,0,29,"[0, 15, 23, 20, 24, 7, 2, 3, 29]",9,1,[10],27.29508307,17159,685,1,0,10,1.6931989191216303
basic,11,45,0,0,1,10,"[0, 15, 23, 20, 24, 7, 2, 3, 29, 10]",10,0,[],5.754423843,18887,1728,1,0,10,1.9996819797033594
basic,11,45,0,1,1,10,"[0, 15, 23, 20, 24, 7, 2, 3, 29, 10]",10,0,[],5.754423843,20384,1497,1,0,10,1.9996819797033594
basic,12,21,0,0,0,0,[0],1,29,"[1, 2, 3, 4, 5, 6, 7, 8, 9, 10, 11, 12, 13, 14, 15, 16, 17, 18, 19, 20, 21, 22, 23, 24, 25, 26, 27, 28, 29]",300,189,-1,84,830,9,0.0
basic,12,21,0,0,0,18,"[0, 18]",2,28,"[1, 2, 3, 4, 5, 6, 7, 8, 9, 10, 11, 12, 13, 14, 15, 16, 17, 19, 20, 21, 22, 23, 24, 25, 26, 27, 28, 29]",240.923778,5376,5187,44,305,9,1.0
basic,12,21,0,0,0,29,"[0, 18, 29]",3,24,"[1, 2, 3, 4, 6, 7, 8, 9, 10, 11, 12, 13, 14, 15, 16, 17, 20, 21, 22, 23, 24, 25, 26, 27]",212.2706805,7117,1741,11,87,9,1.035555280387994
basic,12,21,0,0,0,25,"[0, 18, 29, 25]",4,18,"[1, 4, 6, 8, 9, 10, 11, 12, 14, 15, 16, 17, 20, 21, 22, 23, 24, 26]",167.0490043,8103,986,6,45,9,2.2226517719335437
basic,12,21,0,0,0,23,"[0, 18, 29, 25, 23]",5,10,"[4, 8, 14, 15, 16, 17, 20, 21, 22, 24]",123.7246462,9163,1060,3,20,9,1.7801958981326236
basic,12,21,0,0,0,21,"[0, 18, 29, 25, 23, 21]",6,3,"[4, 14, 16]",94.11046043,10063,900,1,3,9,2.290491065218303
basic,12,21,0,0,0,14,"[0, 18, 29, 25, 23, 21, 14]",7,2,"[4, 16]",68.49796348,11393,1330,1,1,9,2.021100447974041
basic,12,21,0,0,0,4,"[0, 18, 29, 25, 23, 21, 14, 4]",8,1,[16],54.35582786,12240,847,1,0,9,1.9205022281831265
basic,12,21,0,0,1,16,"[0, 18, 29, 25, 23, 21, 14, 4, 16]",9,0,[],9.757621617,13797,1557,1,0,9,1.7782202964615115
basic,12,21,0,1,1,16,"[0, 18, 29, 25, 23, 21, 14, 4, 16]",9,0,[],9.757621617,16278,2481,1,0,9,1.7782202964615115
basic,13,16,0,0,0,0,[0],1,29,"[1, 2, 3, 4, 5, 6, 7, 8, 9, 10, 11, 12, 13, 14, 15, 16, 17, 18, 19, 20, 21, 22, 23, 24, 25, 26, 27, 28, 29]",300,528,-1,13,161,9,0.0
basic,13,16,0,0,0,28,"[0, 28]",2,27,"[1, 2, 3, 4, 5, 7, 8, 9, 10, 11, 12, 13, 14, 15, 16, 17, 18, 19, 20, 21, 22, 23, 24, 25, 26, 27, 29]",284.3475242,4025,3497,11,92,9,1.0
basic,13,16,0,0,0,23,"[0, 28, 23]",3,8,"[1, 11, 14, 16, 17, 18, 21, 27]",160.8890291,10384,6359,2,19,7,1.288009333533599
basic,13,16,0,0,0,14,"[0, 28, 23, 14]",4,6,"[1, 11, 16, 17, 18, 27]",136.7229372,11985,1601,2,7,7,1.4144629311542216
basic,13,16,0,0,0,1,"[0, 28, 23, 14, 1]",5,3,"[11, 18, 27]",97.77425297,13104,1119,1,2,7,1.3113859405311517
basic,13,16,0,0,0,27,"[0, 28, 23, 14, 1, 27]",6,1,[18],65.52522198,14017,913,1,0,7,1.5642779580295902
basic,13,16,0,0,1,18,"[0, 28, 23, 14, 1, 27, 18]",7,0,[],7.21570303,16173,2156,1,0,7,1.4679639517732752
basic,13,16,0,1,1,18,"[0, 28, 23, 14, 1, 27, 18]",7,0,[],7.21570303,16910,737,1,0,7,1.4679639517732752
basic,14,25,0,0,0,0,[0],1,28,"[1, 2, 3, 4, 5, 7, 8, 9, 10, 11, 12, 13, 14, 15, 16, 17, 18, 19, 20, 21, 22, 23, 24, 25, 26, 27, 28, 29]",300,522,-1,5,94,10,0.0
basic,14,25,0,0,0,23,"[0, 23]",2,23,"[1, 2, 3, 5, 7, 8, 9, 11, 12, 13, 14, 16, 17, 19, 20, 21, 22, 24, 25, 26, 27, 28, 29]",259.7756293,4042,3520,3,33,10,1.0
basic,14,25,0,0,0,19,"[0, 23, 19]",3,21,"[1, 2, 3, 5, 7, 8, 9, 11, 12, 13, 14, 16, 17, 20, 21, 22, 24, 25, 27, 28, 29]",223.9287326,5281,1239,3,24,10,1.583101227007039
basic,14,25,0,0,0,29,"[0, 23, 19, 29]",4,19,"[1, 2, 3, 5, 7, 8, 9, 11, 12, 13, 14, 16, 17, 20, 21, 22, 24, 25, 28]",207.649912,6920,1639,3,17,10,1.474631541426484
basic,14,25,0,0,0,22,"[0, 23, 19, 29, 22]",5,18,"[1, 2, 3, 5, 7, 8, 9, 11, 12, 13, 14, 16, 17, 20, 21, 24, 25, 28]",191.5253965,9250,2330,3,14,10,1.4020377754906637
basic,14,25,0,0,0,7,"[0, 23, 19, 29, 22, 7]",6,7,"[3, 8, 9, 11, 13, 24, 28]",115.8814939,11130,1880,3,11,10,1.5709678649326715
basic,14,25,0,0,0,24,"[0, 23, 19, 29, 22, 7, 24]",7,5,"[3, 8, 9, 13, 28]",91.12265712,12218,1088,3,7,10,1.486191600033379
basic,14,25,0,0,0,9,"[0, 23, 19, 29, 22, 7, 24, 9]",8,4,"[3, 8, 13, 28]",73.09490075,13895,1677,3,3,10,1.453504870342882
basic,14,25,0,0,0,3,"[0, 23, 19, 29, 22, 7, 24, 9, 3]",9,3,"[8, 13, 28]",42.82940885,14837,942,3,0,10,1.388955167525479
basic,14,25,0,0,1,13,"[0, 23, 19, 29, 22, 7, 24, 9, 3, 13]",10,0,[],11.58841014,17712,2875,1,0,10,1.4309045890044414
basic,14,25,0,1,1,13,"[0, 23, 19, 29, 22, 7, 24, 9, 3, 13]",10,0,[],11.58841014,20793,3081,1,0,10,1.4309045890044414
basic,15,8,0,0,0,0,[0],1,29,"[1, 2, 3, 4, 5, 6, 7, 8, 9, 10, 11, 12, 13, 14, 15, 16, 17, 18, 19, 20, 21, 22, 23, 24, 25, 26, 27, 28, 29]",300,348,-1,10,149,9,0.0
basic,15,8,0,0,0,5,"[0, 5]",2,28,"[1, 2, 3, 4, 6, 7, 8, 9, 10, 11, 12, 13, 14, 15, 16, 17, 18, 19, 20, 21, 22, 23, 24, 25, 26, 27, 28, 29]",254.5137383,4134,3786,10,100,9,1.0
basic,15,8,0,0,0,25,"[0, 5, 25]",3,20,"[1, 2, 3, 4, 6, 11, 12, 14, 15, 16, 17, 18, 19, 20, 21, 22, 23, 24, 28, 29]",215.3091468,5001,867,4,42,9,1.2272747879909065
basic,15,8,0,0,0,1,"[0, 5, 25, 1]",4,17,"[3, 4, 6, 11, 12, 14, 15, 16, 17, 18, 20, 21, 22, 23, 24, 28, 29]",190.3091468,5587,586,3,24,9,1.1770245007593956
basic,15,8,0,0,0,23,"[0, 5, 25, 1, 23]",5,15,"[3, 4, 6, 11, 14, 15, 16, 17, 18, 20, 21, 22, 24, 28, 29]",167.2874179,6349,762,1,14,9,1.141996583852372
basic,15,8,0,0,0,18,"[0, 5, 25, 1, 23, 18]",6,9,"[3, 4, 11, 14, 15, 16, 17, 24, 28]",125.5261919,7904,1555,1,7,9,1.3199166330970717
basic,15,8,0,0,0,14,"[0, 5, 25, 1, 23, 18, 14]",7,2,"[11, 17]",68.03706246,9219,1315,1,1,9,2.714920831666598
basic,15,8,0,0,0,17,"[0, 5, 25, 1, 23, 18, 14, 17]",8,1,[11],31.02355141,10254,1035,1,0,9,2.462600896722246
basic,15,8,0,0,1,11,"[0, 5, 25, 1, 23, 18, 14, 17, 11]",9,0,[],5.84419479,11626,1372,1,0,9,2.246839316887767
basic,15,8,0,1,1,11,"[0, 5, 25, 1, 23, 18, 14, 17, 11]",9,0,[],5.84419479,13341,1715,1,0,9,2.246839316887767
basic,16,38,0,0,0,0,[0],1,29,"[1, 2, 3, 4, 5, 6, 7, 8, 9, 10, 11, 12, 13, 14, 15, 16, 17, 18, 19, 20, 21, 22, 23, 24, 25, 26, 27, 28, 29]",300,163,-1,33,506,9,0.0
basic,16,38,0,0,0,19,"[0, 19]",2,23,"[3, 4, 5, 6, 7, 8, 9, 11, 13, 14, 15, 16, 17, 18, 20, 22, 23, 24, 25, 26, 27, 28, 29]",219.5015528,2678,2515,6,61,9,1.0
basic,16,38,0,0,0,17,"[0, 19, 17]",3,21,"[3, 4, 5, 6, 7, 9, 11, 13, 14, 15, 16, 18, 20, 22, 23, 24, 25, 26, 27, 28, 29]",198.1239945,3490,812,6,53,9,1.571793785769489
basic,16,38,0,0,0,20,"[0, 19, 17, 20]",4,17,"[3, 4, 5, 6, 7, 11, 13, 14, 15, 16, 18, 22, 24, 25, 26, 27, 28]",174.3542658,4269,779,6,44,9,2.333182710277297
basic,16,38,0,0,0,4,"[0, 19, 17, 20, 4]",5,10,"[5, 11, 13, 14, 15, 16, 24, 26, 27, 28]",140.4131403,6343,2074,5,22,9,2.276099229646013
basic,16,38,0,0,0,13,"[0, 19, 17, 20, 4, 13]",6,7,"[11, 15, 16, 24, 26, 27, 28]",109.0125034,8354,2011,8,3,8,1.9539449223642764
basic,16,38,0,0,0,15,"[0, 19, 17, 20, 4, 13, 15]",7,3,"[11, 16, 28]",57.5343527,10077,1723,3,0,8,3.304438629837084
basic,16,38,0,0,1,11,"[0, 19, 17, 20, 4, 13, 15, 11]",8,0,[],21.13380325,11349,1272,1,0,8,3.4899196080656516
basic,16,38,0,1,1,11,"[0, 19, 17, 20, 4, 13, 15, 11]",8,0,[],21.13380325,13935,2586,1,0,8,3.4899196080656516
basic,17,31,0,0,0,0,[0],1,27,"[1, 3, 4, 5, 6, 7, 8, 10, 11, 12, 13, 14, 15, 16, 17, 18, 19, 20, 21, 22, 23, 24, 25, 26, 27, 28, 29]",300,500,-1,2,87,10,0.0
basic,17,31,0,0,0,14,"[0, 14]",2,25,"[1, 3, 5, 6, 7, 8, 10, 11, 12, 13, 15, 16, 17, 18, 19, 20, 21, 22, 23, 24, 25, 26, 27, 28, 29]",263.861378,5762,5262,2,59,10,1.0
basic,17,31,0,0,0,27,"[0, 14, 27]",3,22,"[1, 3, 5, 6, 7, 8, 10, 11, 12, 13, 15, 16, 17, 18, 19, 20, 21, 22, 24, 25, 28, 29]",235.6833724,6715,953,1,39,10,1.5881859159302467
basic,17,31,0,0,0,8,"[0, 14, 27, 8]",4,20,"[1, 3, 5, 6, 7, 10, 11, 12, 13, 16, 17, 18, 19, 20, 21, 22, 24, 25, 28, 29]",224.6380114,7207,492,1,36,10,2.1665048452331277
basic,17,31,0,0,0,18,"[0, 14, 27, 8, 18]",5,15,"[1, 5, 6, 7, 11, 12, 13, 16, 17, 19, 20, 22, 25, 28, 29]",188.7911147,8238,1031,1,26,10,1.7273375741920205
basic,17,31,0,0,0,17,"[0, 14, 27, 8, 18, 17]",6,13,"[1, 5, 6, 7, 11, 12, 13, 16, 19, 20, 22, 25, 28]",159.584951,9249,1011,1,13,10,1.551192427769927
basic,17,31,0,0,0,11,"[0, 14, 27, 8, 18, 17, 11]",7,7,"[5, 12, 16, 19, 22, 25, 28]",118.4753414,10403,1154,1,4,10,2.9650760544203494
basic,17,31,0,0,0,5,"[0, 14, 27, 8, 18, 17, 11, 5]",8,2,"[16, 28]",74.79468207,11590,1187,1,1,10,2.56711965625205
basic,17,31,0,0,0,28,"[0, 14, 27, 8, 18, 17, 11, 5, 28]",9,1,[16],54.57093365,12677,1087,1,0,10,2.2865510762058148
basic,17,31,0,0,1,16,"[0, 14, 27, 8, 18, 17, 11, 5, 28, 16]",10,0,[],20.95546102,14002,1325,1,0,10,2.089356850786318
basic,17,31,0,1,1,16,"[0, 14, 27, 8, 18, 17, 11, 5, 28, 16]",10,0,[],20.95546102,18710,4708,1,0,10,2.089356850786318
basic,18,44,0,0,0,0,[0],1,29,"[1, 2, 3, 4, 5, 6, 7, 8, 9, 10, 11, 12, 13, 14, 15, 16, 17, 18, 19, 20, 21, 22, 23, 24, 25, 26, 27, 28, 29]",300,175,-1,13,126,7,0.0
basic,18,44,0,0,0,11,"[0, 11]",2,18,"[4, 5, 6, 7, 8, 9, 12, 14, 16, 17, 19, 20, 22, 23, 24, 25, 26, 28]",152.7790776,6807,6632,5,34,7,1.0
basic,18,44,0,0,0,24,"[0, 11, 24]",3,13,"[4, 5, 7, 8, 9, 12, 14, 17, 20, 22, 23, 25, 28]",125.8532535,7631,824,5,23,7,1.1588941745226709
basic,18,44,0,0,0,9,"[0, 11, 24, 9]",4,7,"[4, 7, 8, 12, 14, 20, 23]",93.09657483,8329,698,2,8,7,1.3039383713641313
basic,18,44,0,0,0,4,"[0, 11, 24, 9, 4]",5,5,"[7, 12, 14, 20, 23]",73.39885923,9315,986,2,3,7,1.2901330701441578
basic,18,44,0,0,0,7,"[0, 11, 24, 9, 4, 7]",6,1,[23],42.38273439,10303,988,1,0,7,1.2468141312360979
basic,18,44,0,0,1,23,"[0, 11, 24, 9, 4, 7, 23]",7,0,[],23.27776121,11823,1520,1,0,7,1.2635191782769477
basic,18,44,0,1,1,23,"[0, 11, 24, 9, 4, 7, 23]",7,0,[],23.27776121,15697,3874,1,0,7,1.2635191782769477
basic,19,0,0,0,0,0,[0],1,27,"[2, 3, 4, 5, 6, 7, 8, 9, 10, 11, 12, 13, 14, 15, 16, 17, 19, 20, 21, 22, 23, 24, 25, 26, 27, 28, 29]",300,182,-1,104,1136,9,0.0
basic,19,0,0,0,0,28,"[0, 28]",2,26,"[2, 3, 4, 5, 6, 7, 8, 9, 10, 11, 12, 13, 14, 15, 16, 17, 19, 20, 21, 22, 23, 24, 25, 26, 27, 29]",194.9190788,15315,15133,39,388,9,1.0
basic,19,0,0,0,0,5,"[0, 28, 5]",3,21,"[2, 3, 4, 7, 8, 9, 11, 12, 13, 14, 15, 16, 17, 19, 20, 21, 23, 24, 25, 26, 29]",151.2613189,18394,3079,27,210,9,1.0978295127671733
basic,19,0,0,0,0,4,"[0, 28, 5, 4]",4,16,"[3, 7, 8, 9, 11, 12, 13, 14, 15, 17, 19, 20, 21, 23, 24, 26]",126.1814465,19961,1567,17,114,9,1.1103727063761901
basic,19,0,0,0,0,26,"[0, 28, 5, 4, 26]",5,14,"[3, 7, 8, 9, 11, 12, 13, 14, 15, 17, 19, 20, 23, 24]",114.1398519,21250,1289,7,54,9,1.1504454351688815
basic,19,0,0,0,0,24,"[0, 28, 5, 4, 26, 24]",6,11,"[3, 7, 8, 9, 11, 12, 15, 17, 19, 20, 23]",97.02260914,22420,1170,7,22,9,1.2166555899566422
basic,19,0,0,0,0,15,"[0, 28, 5, 4, 26, 24, 15]",7,7,"[3, 7, 8, 9, 11, 12, 17]",73.67737408,23331,911,4,5,9,1.1972898774231708
basic,19,0,0,0,0,7,"[0, 28, 5, 4, 26, 24, 15, 7]",8,2,"[3, 8]",42.61292495,25280,1949,2,0,9,1.2554869594545575
basic,19,0,0,0,1,3,"[0, 28, 5, 4, 26, 24, 15, 7, 3]",9,0,[],18.52973579,32009,6729,1,0,9,1.2985327435367093
basic,19,0,0,1,1,3,"[0, 28, 5, 4, 26, 24, 15, 7, 3]",9,0,[],18.52973579,35212,3203,1,0,9,1.2985327435367093
basic,20,19,0,0,0,0,[0],1,29,"[1, 2, 3, 4, 5, 6, 7, 8, 9, 10, 11, 12, 13, 14, 15, 16, 17, 18, 19, 20, 21, 22, 23, 24, 25, 26, 27, 28, 29]",300,199,-1,12,149,8,0.0
basic,20,19,0,0,0,12,"[0, 12]",2,15,"[1, 2, 3, 5, 8, 9, 13, 16, 17, 18, 19, 21, 23, 25, 29]",180.3964883,5220,5021,9,58,7,1.0
basic,20,19,0,0,0,25,"[0, 12, 25]",3,11,"[1, 2, 3, 8, 13, 16, 17, 18, 19, 23, 29]",163.2792456,5711,491,3,32,7,1.002593021312995
basic,20,19,0,0,0,17,"[0, 12, 25, 17]",4,10,"[1, 2, 3, 8, 13, 16, 18, 19, 23, 29]",152.2338846,6204,493,3,14,7,1.0661324787663027
basic,20,19,0,0,0,2,"[0, 12, 25, 17, 2]",5,3,"[3, 8, 23]",84.20447915,7314,1110,3,0,6,1.0481687538232383
basic,20,19,0,0,1,8,"[0, 12, 25, 17, 2, 8]",6,0,[],18.71402183,8574,1260,1,0,6,1.2908324139249414
basic,20,19,0,1,1,8,"[0, 12, 25, 17, 2, 8]",6,0,[],18.71402183,10818,2244,1,0,6,1.2908324139249414
basic,21,14,0,0,0,0,[0],1,29,"[1, 2, 3, 4, 5, 6, 7, 8, 9, 10, 11, 12, 13, 14, 15, 16, 17, 18, 19, 20, 21, 22, 23, 24, 25, 26, 27, 28, 29]",300,169,-1,8,157,10,0.0
basic,21,14,0,0,0,15,"[0, 15]",2,20,"[1, 2, 3, 4, 7, 8, 9, 13, 17, 18, 19, 20, 21, 22, 23, 25, 26, 27, 28, 29]",216.7053423,7141,6972,8,102,10,1.0
basic,21,14,0,0,0,28,"[0, 15, 28]",3,17,"[1, 2, 3, 4, 7, 8, 9, 13, 17, 18, 19, 20, 22, 23, 25, 26, 27]",197.4959696,8139,998,8,48,10,1.0446007867311968
basic,21,14,0,0,0,17,"[0, 15, 28, 17]",4,14,"[1, 2, 3, 4, 7, 8, 13, 18, 19, 20, 22, 23, 25, 26]",184.0423455,8692,553,8,39,10,1.0729463354689972
basic,21,14,0,0,0,18,"[0, 15, 28, 17, 18]",5,9,"[1, 2, 4, 7, 8, 19, 23, 25, 26]",119.412631,10260,1568,8,27,10,1.5035901079219378
basic,21,14,0,0,0,8,"[0, 15, 28, 17, 18, 8]",6,8,"[1, 2, 4, 7, 19, 23, 25, 26]",105.8111605,11292,1032,8,18,10,1.4819689987843856
basic,21,14,0,0,0,19,"[0, 15, 28, 17, 18, 8, 19]",7,5,"[1, 7, 23, 25, 26]",85.19563238,12542,1250,4,9,10,1.4526746797093781
basic,21,14,0,0,0,1,"[0, 15, 28, 17, 18, 8, 19, 1]",8,4,"[7, 23, 25, 26]",69.96408617,14121,1579,3,1,10,1.4876985459270997
basic,21,14,0,0,0,26,"[0, 15, 28, 17, 18, 8, 19, 1, 26]",9,1,[23],15.2192234,15724,1603,1,0,10,1.4353971893617312
basic,21,14,0,0,1,23,"[0, 15, 28, 17, 18, 8, 19, 1, 26, 23]",10,0,[],4.402569573,16671,947,1,0,10,1.5725714898295635
basic,21,14,0,1,1,23,"[0, 15, 28, 17, 18, 8, 19, 1, 26, 23]",10,0,[],4.402569573,20083,3412,1,0,10,1.5725714898295635
basic,22,3,0,0,0,0,[0],1,29,"[1, 2, 3, 4, 5, 6, 7, 8, 9, 10, 11, 12, 13, 14, 15, 16, 17, 18, 19, 20, 21, 22, 23, 24, 25, 26, 27, 28, 29]",300,370,-1,34,427,10,0.0
basic,22,3,0,0,0,17,"[0, 17]",2,16,"[3, 4, 7, 8, 10, 12, 14, 15, 16, 19, 20, 21, 22, 24, 26, 27]",197.6965299,3791,3421,2,27,9,1.0
basic,22,3,0,0,0,20,"[0, 17, 20]",3,13,"[3, 4, 7, 8, 10, 14, 15, 16, 19, 21, 22, 24, 27]",185.0474192,4593,802,2,24,9,1.0153332121237257
basic,22,3,0,0,0,3,"[0, 17, 20, 3]",4,10,"[4, 7, 8, 10, 14, 15, 16, 19, 21, 24]",164.6513412,6107,1514,2,22,9,1.0819240770773468
basic,22,3,0,0,0,19,"[0, 17, 20, 3, 19]",5,6,"[4, 8, 10, 14, 21, 24]",127.3150318,7589,1482,2,11,9,1.1701070532957258
basic,22,3,0,0,0,21,"[0, 17, 20, 3, 19, 21]",6,5,"[4, 8, 10, 14, 24]",115.1084762,8036,447,2,6,9,1.202395500952127
basic,22,3,0,0,0,14,"[0, 17, 20, 3, 19, 21, 14]",7,4,"[4, 8, 10, 24]",88.20122806,10983,2947,2,2,9,1.6456130302761207
basic,22,3,0,0,0,24,"[0, 17, 20, 3, 19, 21, 14, 24]",8,1,[8],17.08864127,13861,2878,1,0,9,4.806859660680286
basic,22,3,0,0,1,8,"[0, 17, 20, 3, 19, 21, 14, 24, 8]",9,0,[],4.923116212,14808,947,1,0,9,4.915218144486606
basic,22,3,0,1,1,8,"[0, 17, 20, 3, 19, 21, 14, 24, 8]",9,0,[],4.923116212,16007,1199,1,0,9,4.915218144486606
undo,23,20,0,0,0,0,[0],1,21,"[1, 2, 3, 4, 5, 6, 7, 8, 9, 12, 17, 18, 20, 21, 22, 23, 25, 26, 27, 28, 29]",300,456,-1,1,9,9,0.0
undo,23,20,0,0,0,12,"[0, 12]",2,20,"[1, 2, 3, 4, 5, 6, 7, 8, 9, 17, 18, 20, 21, 22, 23, 25, 26, 27, 28, 29]",271.5570747,6231,5775,1,8,9,1.0
undo,23,20,0,0,0,1,"[0, 12, 1]",3,12,"[3, 4, 5, 6, 8, 9, 20, 21, 23, 27, 28, 29]",189.5692707,9639,3408,1,6,9,1.0757997779162911
undo,23,20,0,0,0,5,"[0, 12, 1, 5]",4,10,"[4, 6, 8, 9, 20, 21, 23, 27, 28, 29]",152.8950291,10621,982,1,5,9,1.1708231454516806
undo,23,20,0,0,0,21,"[0, 12, 1, 5, 21]",5,8,"[4, 6, 8, 9, 20, 23, 27, 28]",107.8950291,11730,1109,1,4,9,1.126197336199212
undo,23,20,0,0,0,8,"[0, 12, 1, 5, 21, 8]",6,5,"[6, 9, 23, 27, 28]",90.43077988,12659,929,1,3,9,1.140007470699913
undo,23,20,0,0,0,23,"[0, 12, 1, 5, 21, 8, 23]",7,2,"[6, 9]",45.74297394,13670,1011,1,1,9,1.1162257896627588
undo,23,20,0,0,0,9,"[0, 12, 1, 5, 21, 8, 23, 9]",8,1,[6],26.53360123,14591,921,1,0,9,1.1086880559449597
undo,23,20,0,0,1,6,"[0, 12, 1, 5, 21, 8, 23, 9, 6]",9,0,[],3.511872362,15579,988,1,0,9,1.1186240265999328
undo,23,20,0,1,1,6,"[0, 12, 1, 5, 21, 8, 23, 9, 6]",9,0,[],3.511872362,16924,1345,1,0,9,1.1186240265999328
undo,24,41,0,0,0,0,[0],1,29,"[1, 2, 3, 4, 5, 6, 7, 8, 9, 10, 11, 12, 13, 14, 15, 16, 17, 18, 19, 20, 21, 22, 23, 24, 25, 26, 27, 28, 29]",300,163,-1,1,143,10,0.0
undo,24,41,0,0,0,13,"[0, 13]",2,23,"[1, 2, 3, 5, 6, 7, 9, 10, 11, 12, 14, 15, 17, 18, 19, 20, 21, 22, 24, 25, 26, 27, 28]",258.2747079,2151,1988,1,55,10,1.0
undo,24,41,0,0,0,28,"[0, 13, 28]",3,22,"[1, 2, 3, 5, 6, 7, 9, 10, 11, 12, 14, 15, 17, 18, 19, 20, 21, 22, 24, 25, 26, 27]",223.7928286,3700,1549,1,39,10,1.895724242592676
undo,24,41,0,0,0,5,"[0, 13, 28, 5]",4,19,"[1, 2, 3, 6, 9, 10, 11, 12, 14, 15, 17, 18, 19, 20, 21, 22, 24, 25, 27]",210.1913581,4286,586,1,34,10,2.861541269398273
undo,24,41,0,0,0,3,"[0, 13, 28, 5, 3]",5,16,"[1, 2, 6, 9, 10, 12, 14, 17, 18, 19, 20, 21, 22, 24, 25, 27]",175.3632086,5214,928,1,22,10,3.1455488489005883
undo,24,41,0,0,0,21,"[0, 13, 28, 5, 3, 21]",6,14,"[1, 2, 6, 9, 10, 12, 14, 17, 18, 19, 20, 22, 25, 27]",143.2228912,6210,996,13,11,9,3.207558429289677
undo,24,41,0,0,0,17,"[0, 13, 28, 5, 3, 21, 17]",7,3,"[2, 9, 10]",91.5605258,7470,1260,2,1,9,3.2883270328778007
undo,24,41,0,0,0,9,"[0, 13, 28, 5, 3, 21, 17, 9]",8,1,[2],60.54440096,8620,1150,1,0,9,2.9098226601812454
undo,24,41,0,0,1,2,"[0, 13, 28, 5, 3, 21, 17, 9, 2]",9,0,[],48.46135498,9586,966,1,0,9,2.780153959656953
undo,24,41,0,1,1,2,"[0, 13, 28, 5, 3, 21, 17, 9, 2]",9,0,[],48.46135498,11305,1719,1,0,9,2.780153959656953
undo,25,23,0,0,0,0,[0],1,28,"[1, 2, 3, 4, 5, 6, 7, 8, 9, 10, 11, 12, 13, 14, 15, 16, 17, 18, 19, 20, 21, 22, 23, 25, 26, 27, 28, 29]",300,379,-1,76,2626,10,0.0
undo,25,23,0,0,0,18,"[0, 18]",2,14,"[2, 5, 6, 7, 9, 10, 12, 13, 14, 19, 21, 22, 27, 29]",203.8958898,4140,3761,73,787,9,1.0
undo,25,23,0,0,0,27,"[0, 18, 27]",3,9,"[2, 6, 7, 9, 12, 13, 14, 22, 29]",128.5832083,5084,944,51,277,9,1.1972268052690318
undo,25,23,0,0,0,6,"[0, 18, 27, 6]",4,8,"[2, 7, 9, 12, 13, 14, 22, 29]",100.2812649,6027,943,43,68,9,1.3293035545030156
undo,25,23,0,0,0,2,"[0, 18, 27, 6, 2]",5,6,"[9, 12, 13, 14, 22, 29]",81.84217594,6830,803,16,17,9,1.5987085337271232
undo,25,23,0,0,0,14,"[0, 18, 27, 6, 2, 14]",6,5,"[9, 12, 13, 22, 29]",66.97610719,8296,1466,5,3,9,1.653941702320971
undo,25,23,0,0,0,9,"[0, 18, 27, 6, 2, 14, 9]",7,4,"[12, 13, 22, 29]",56.53580068,8951,655,2,2,9,1.8635071754469044
undo,25,23,0,0,0,12,"[0, 18, 27, 6, 2, 14, 9, 12]",8,1,[13],42.21797962,10270,1319,1,0,9,2.1028196660017944
undo,25,23,0,0,1,13,"[0, 18, 27, 6, 2, 14, 9, 12, 13]",9,0,[],30.13493365,10929,659,1,0,9,2.43825220165275
undo,25,23,0,1,1,13,"[0, 18, 27, 6, 2, 14, 9, 12, 13]",9,0,[],30.13493365,13264,2335,1,0,9,2.43825220165275
undo,26,22,0,0,0,0,[0],1,29,"[1, 2, 3, 4, 5, 6, 7, 8, 9, 10, 11, 12, 13, 14, 15, 16, 17, 18, 19, 20, 21, 22, 23, 24, 25, 26, 27, 28, 29]",300,449,-1,31,704,9,0.0
undo,26,22,0,0,0,29,"[0, 29]",2,22,"[1, 3, 5, 6, 7, 8, 9, 11, 13, 14, 15, 16, 17, 19, 20, 21, 22, 23, 24, 25, 27, 28]",222.9935068,5828,5379,11,235,9,1.0
undo,26,22,0,0,0,19,"[0, 29, 19]",3,18,"[1, 3, 6, 7, 8, 9, 13, 14, 15, 16, 17, 20, 21, 22, 23, 24, 25, 28]",207.9602104,6431,603,11,172,9,1.1559285443414686
undo,26,22,0,0,0,9,"[0, 29, 19, 9]",4,16,"[1, 3, 6, 7, 8, 13, 14, 15, 16, 17, 20, 21, 22, 24, 25, 28]",187.5641323,7161,730,7,84,9,1.2555028175473422
undo,26,22,0,0,0,6,"[0, 29, 19, 9, 6]",5,13,"[3, 7, 13, 14, 15, 16, 17, 20, 21, 22, 24, 25, 28]",160.9370784,8721,1560,17,16,8,1.5692551066355458
undo,26,22,0,0,0,28,"[0, 29, 19, 9, 6, 28]",6,5,"[7, 14, 16, 17, 22]",130.9370784,9958,1237,5,2,8,1.5285578577513508
undo,26,22,0,0,0,16,"[0, 29, 19, 9, 6, 28, 16]",7,1,[22],96.49872771,10742,784,1,0,8,2.5001967567448653
undo,26,22,1,0,0,28,"[0, 29, 19, 9, 6, 28]",6,5,"[7, 14, 16, 17, 22]",130.9370784,15032,4290,5,2,8,1.5285578577513508
undo,26,22,1,0,0,6,"[0, 29, 19, 9, 6]",5,13,"[3, 7, 13, 14, 15, 16, 17, 20, 21, 22, 24, 25, 28]",160.9370784,15185,153,17,16,8,1.5692551066355458
undo,26,22,1,0,0,9,"[0, 29, 19, 9]",4,16,"[1, 3, 6, 7, 8, 13, 14, 15, 16, 17, 20, 21, 22, 24, 25, 28]",187.5641323,15333,148,7,84,9,1.2555028175473422
undo,26,22,1,0,0,19,"[0, 29, 19]",3,18,"[1, 3, 6, 7, 8, 9, 13, 14, 15, 16, 17, 20, 21, 22, 23, 24, 25, 28]",207.9602104,15484,151,11,172,9,1.1559285443414686
undo,26,22,1,0,0,29,"[0, 29]",2,22,"[1, 3, 5, 6, 7, 8, 9, 11, 13, 14, 15, 16, 17, 19, 20, 21, 22, 23, 24, 25, 27, 28]",222.9935068,15618,134,11,235,9,1.0
undo,26,22,1,0,0,0,[0],1,29,"[1, 2, 3, 4, 5, 6, 7, 8, 9, 10, 11, 12, 13, 14, 15, 16, 17, 18, 19, 20, 21, 22, 23, 24, 25, 26, 27, 28, 29]",300,15872,254,31,704,9,0.0
undo,26,22,0,0,0,9,"[0, 9]",2,19,"[1, 3, 6, 7, 8, 13, 14, 15, 16, 17, 19, 20, 21, 22, 23, 24, 25, 28, 29]",210.4455473,22217,6345,60,492,8,1.0
undo,26,22,0,0,0,19,"[0, 9, 19]",3,18,"[1, 3, 6, 7, 8, 13, 14, 15, 16, 17, 20, 21, 22, 23, 24, 25, 28, 29]",190.0494692,23041,824,33,176,8,1.3808697039569915
undo,26,22,0,0,0,29,"[0, 9, 19, 29]",4,17,"[1, 3, 6, 7, 8, 13, 14, 15, 16, 17, 20, 21, 22, 23, 24, 25, 28]",175.0161729,23759,718,25,89,8,1.6230297193549454
undo,26,22,0,0,0,14,"[0, 9, 19, 29, 14]",5,8,"[3, 6, 7, 16, 17, 21, 24, 28]",116.7667093,24898,1139,5,12,8,1.4144756075341427
undo,26,22,0,0,0,7,"[0, 9, 19, 29, 14, 7]",6,7,"[3, 6, 16, 17, 21, 24, 28]",103.7283045,25985,1087,5,4,8,1.5606144249866158
undo,26,22,0,0,0,24,"[0, 9, 19, 29, 14, 7, 24]",7,1,[21],36.69846043,27305,1320,1,0,8,1.9629700675793127
undo,26,22,0,0,1,21,"[0, 9, 19, 29, 14, 7, 24, 21]",8,0,[],9.495519414,28586,1281,1,0,8,1.8009397713345936
undo,26,22,0,1,1,21,"[0, 9, 19, 29, 14, 7, 24, 21]",8,0,[],9.495519414,29787,1201,1,0,8,1.8009397713345936
undo,27,44,0,0,0,0,[0],1,29,"[1, 2, 3, 4, 5, 6, 7, 8, 9, 10, 11, 12, 13, 14, 15, 16, 17, 18, 19, 20, 21, 22, 23, 24, 25, 26, 27, 28, 29]",300,202,-1,13,126,7,0.0
undo,27,44,0,0,0,9,"[0, 9]",2,17,"[2, 4, 5, 7, 8, 10, 11, 12, 13, 14, 20, 22, 23, 24, 25, 26, 28]",141.32423,5084,4882,3,26,7,1.0
undo,27,44,0,0,0,4,"[0, 9, 4]",3,15,"[2, 5, 7, 8, 10, 11, 12, 14, 20, 22, 23, 24, 25, 26, 28]",121.6265143,7195,2111,3,21,7,1.0155532843148096
undo,27,44,0,0,0,7,"[0, 9, 4, 7]",4,10,"[2, 5, 11, 12, 14, 23, 24, 25, 26, 28]",90.61038951,10842,3647,3,9,7,1.0134022837125412
undo,27,44,0,0,0,23,"[0, 9, 4, 7, 23]",5,7,"[5, 12, 14, 24, 25, 26, 28]",71.50541634,12116,1274,3,4,7,1.043310757564056
undo,27,44,0,0,0,28,"[0, 9, 4, 7, 23, 28]",6,1,[26],19.5342705,13482,1366,1,0,7,1.0580072524850708
undo,27,44,0,0,1,26,"[0, 9, 4, 7, 23, 28, 26]",7,0,[],6.534270496,14033,551,1,0,7,1.055488728885845
undo,27,44,0,1,1,26,"[0, 9, 4, 7, 23, 28, 26]",7,0,[],6.534270496,15306,1273,1,0,7,1.055488728885845
undo,28,11,0,0,0,0,[0],1,25,"[1, 2, 3, 4, 5, 6, 8, 9, 10, 11, 12, 13, 14, 15, 16, 17, 18, 19, 20, 22, 23, 25, 26, 27, 28]",300,445,-1,6,374,12,0.0
undo,28,11,0,0,0,18,"[0, 18]",2,21,"[1, 2, 4, 5, 6, 8, 9, 11, 12, 13, 14, 15, 16, 17, 19, 20, 22, 23, 25, 27, 28]",236.8493864,3881,3436,157,1477,11,1.0
undo,28,11,0,0,0,27,"[0, 18, 27]",3,19,"[1, 2, 4, 5, 6, 8, 9, 11, 12, 14, 15, 16, 17, 19, 20, 22, 23, 25, 28]",212.9956655,4558,677,157,1315,11,1.060949579704323
undo,28,11,1,0,0,18,"[0, 18]",2,21,"[1, 2, 4, 5, 6, 8, 9, 11, 12, 13, 14, 15, 16, 17, 19, 20, 22, 23, 25, 27, 28]",236.8493864,6174,1616,157,1477,11,1.0
undo,28,11,1,0,0,0,[0],1,25,"[1, 2, 3, 4, 5, 6, 8, 9, 10, 11, 12, 13, 14, 15, 16, 17, 18, 19, 20, 22, 23, 25, 26, 27, 28]",300,6289,115,6,374,12,0.0
undo,28,11,0,0,0,1,"[0, 1]",2,24,"[2, 3, 4, 5, 6, 8, 9, 10, 11, 12, 13, 14, 15, 16, 17, 18, 19, 20, 22, 23, 25, 26, 27, 28]",264.6446609,8500,2211,6,217,12,1.0
undo,28,11,0,0,0,18,"[0, 1, 18]",3,19,"[2, 4, 5, 6, 8, 9, 11, 12, 14, 15, 16, 17, 19, 20, 22, 23, 25, 27, 28]",212.3187591,9569,1069,6,161,12,1.3884463804898786
undo,28,11,0,0,0,27,"[0, 1, 18, 27]",4,18,"[2, 4, 5, 6, 8, 9, 11, 12, 14, 15, 16, 17, 19, 20, 22, 23, 25, 28]",188.4650382,10316,747,6,155,12,1.3600813284083875
undo,28,11,0,0,0,8,"[0, 1, 18, 27, 8]",5,11,"[2, 5, 6, 11, 12, 15, 17, 19, 22, 25, 28]",118.2510795,11625,1309,4,75,12,1.2516561493067806
undo,28,11,0,0,0,17,"[0, 1, 18, 27, 8, 17]",6,10,"[2, 5, 6, 11, 12, 15, 19, 22, 25, 28]",103.9332585,12243,618,4,40,12,1.3330781007673067
undo,28,11,0,0,0,15,"[0, 1, 18, 27, 8, 17, 15]",7,7,"[2, 5, 11, 12, 19, 22, 28]",91.28414782,12782,539,4,35,12,1.3305073448996472
undo,28,11,0,0,0,11,"[0, 1, 18, 27, 8, 17, 15, 11]",8,5,"[2, 5, 19, 22, 28]",73.17337754,14167,1385,4,17,12,1.308363545391271
undo,28,11,0,0,0,5,"[0, 1, 18, 27, 8, 17, 15, 11, 5]",9,3,"[2, 22, 28]",37.94554764,16527,2360,5,0,11,1.610730105137712
undo,28,11,0,0,0,28,"[0, 1, 18, 27, 8, 17, 15, 11, 5, 28]",10,2,"[2, 22]",20.05700382,17631,1104,2,0,11,1.6200090202692834
undo,28,11,0,0,1,2,"[0, 1, 18, 27, 8, 17, 15, 11, 5, 28, 2]",11,0,[],9.426858002,18695,1064,1,0,11,1.6279693178231827
undo,28,11,1,0,0,28,"[0, 1, 18, 27, 8, 17, 15, 11, 5, 28]",10,2,"[2, 22]",20.05700382,23462,4767,2,0,11,1.6200090202692834
undo,28,11,1,0,0,5,"[0, 1, 18, 27, 8, 17, 15, 11, 5]",9,3,"[2, 22, 28]",37.94554764,23612,150,5,0,11,1.610730105137712
undo,28,11,1,0,0,11,"[0, 1, 18, 27, 8, 17, 15, 11]",8,5,"[2, 5, 19, 22, 28]",73.17337754,24113,501,4,17,12,1.308363545391271
undo,28,11,0,0,0,22,"[0, 1, 18, 27, 8, 17, 15, 11, 22]",9,3,"[2, 5, 28]",39.75182761,26715,2602,1,3,12,1.3803792714205945
undo,28,11,0,0,0,2,"[0, 1, 18, 27, 8, 17, 15, 11, 22, 2]",10,2,"[5, 28]",29.70195199,27624,909,1,1,12,1.5143757809206135
undo,28,11,0,0,0,28,"[0, 1, 18, 27, 8, 17, 15, 11, 22, 2, 28]",11,1,[5],19.07180617,28522,898,1,0,12,1.6257102848178768
undo,28,11,0,0,1,5,"[0, 1, 18, 27, 8, 17, 15, 11, 22, 2, 28, 5]",12,0,[],1.183262355,29592,1070,1,0,12,1.8366912330977305
undo,28,11,0,1,1,5,"[0, 1, 18, 27, 8, 17, 15, 11, 22, 2, 28, 5]",12,0,[],1.183262355,32595,3003,1,0,12,1.8366912330977305
undo,29,36,0,0,0,0,[0],1,24,"[2, 4, 5, 6, 7, 8, 9, 10, 12, 13, 14, 15, 16, 17, 18, 19, 20, 22, 23, 25, 26, 27, 28, 29]",300,196,-1,2,200,10,0.0
undo,29,36,0,0,0,18,"[0, 18]",2,21,"[2, 4, 5, 6, 7, 8, 9, 10, 12, 13, 14, 16, 17, 19, 22, 23, 25, 26, 27, 28, 29]",279.6039219,5651,5455,2,110,10,1.0
undo,29,36,0,0,0,23,"[0, 18, 23]",3,17,"[2, 4, 5, 6, 7, 9, 10, 12, 13, 16, 17, 19, 22, 25, 26, 28, 29]",209.5967795,7098,1447,8,38,8,1.474902475021843
undo,29,36,0,0,0,12,"[0, 18, 23, 12]",4,8,"[2, 9, 13, 16, 17, 19, 25, 28]",149.4303436,8291,1193,8,29,8,6.781316270599289
undo,29,36,0,0,0,9,"[0, 18, 23, 12, 9]",5,6,"[2, 13, 16, 17, 19, 25]",87.06849632,10406,2115,5,8,8,3.083051160279812
undo,29,36,0,0,0,19,"[0, 18, 23, 12, 9, 19]",6,5,"[2, 13, 16, 17, 25]",71.93575037,11645,1239,5,1,8,2.958880572092807
undo,29,36,0,0,0,13,"[0, 18, 23, 12, 9, 19, 13]",7,1,[25],28.51916367,15070,3425,1,0,8,2.767907945815945
undo,29,36,0,0,1,25,"[0, 18, 23, 12, 9, 19, 13, 25]",8,0,[],7.927903392,16314,1244,1,0,8,2.5510669235942762
undo,29,36,0,1,1,25,"[0, 18, 23, 12, 9, 19, 13, 25]",8,0,[],7.927903392,17107,793,1,0,8,2.5510669235942762
undo,30,28,0,0,0,0,[0],1,27,"[1, 2, 3, 4, 5, 6, 7, 8, 9, 10, 11, 12, 13, 14, 15, 16, 17, 18, 19, 20, 22, 23, 25, 26, 27, 28, 29]",300,474,-1,2,96,9,0.0
undo,30,28,0,0,0,6,"[0, 6]",2,21,"[2, 3, 4, 5, 7, 8, 9, 10, 11, 12, 13, 14, 15, 16, 18, 19, 20, 22, 23, 26, 28]",262.3436592,2902,2428,5,54,7,1.0
undo,30,28,1,0,0,0,[0],1,27,"[1, 2, 3, 4, 5, 6, 7, 8, 9, 10, 11, 12, 13, 14, 15, 16, 17, 18, 19, 20, 22, 23, 25, 26, 27, 28, 29]",300,4370,1468,2,96,9,0.0
undo,30,28,0,0,0,3,"[0, 3]",2,26,"[1, 2, 4, 5, 6, 7, 8, 9, 10, 11, 12, 13, 14, 15, 16, 17, 18, 19, 20, 22, 23, 25, 26, 27, 28, 29]",251.0817008,9038,4668,1,64,9,1.0
undo,30,28,0,0,0,5,"[0, 3, 5]",3,20,"[2, 4, 6, 7, 8, 9, 10, 11, 12, 13, 14, 15, 18, 19, 20, 23, 25, 26, 28, 29]",166.9865166,10894,1856,1,34,9,1.0203769473612083
undo,30,28,0,0,0,28,"[0, 3, 5, 28]",4,6,"[2, 4, 8, 9, 19, 26]",100.0761288,12603,1709,8,4,7,1.0823311089558794
undo,30,28,0,0,0,8,"[0, 3, 5, 28, 8]",5,4,"[2, 4, 9, 26]",82.27163495,13304,701,4,2,7,1.0795975941035891
undo,30,28,0,0,0,9,"[0, 3, 5, 28, 8, 9]",6,3,"[2, 4, 26]",67.138889,13908,604,3,0,7,1.131674521612193
undo,30,28,0,0,1,2,"[0, 3, 5, 28, 8, 9, 2]",7,0,[],12.32100871,15410,1502,1,0,7,1.433653817726972
undo,30,28,0,1,1,2,"[0, 3, 5, 28, 8, 9, 2]",7,0,[],12.32100871,16407,997,1,0,7,1.433653817726972
undo,31,19,0,0,0,0,[0],1,29,"[1, 2, 3, 4, 5, 6, 7, 8, 9, 10, 11, 12, 13, 14, 15, 16, 17, 18, 19, 20, 21, 22, 23, 24, 25, 26, 27, 28, 29]",300,159,-1,12,149,8,0.0
undo,31,19,0,0,0,29,"[0, 29]",2,28,"[1, 2, 3, 4, 5, 6, 7, 8, 9, 10, 11, 12, 13, 14, 15, 16, 17, 18, 19, 20, 21, 22, 23, 24, 25, 26, 27, 28]",265.0715016,4718,4559,12,120,8,1.0
undo,31,19,0,0,0,28,"[0, 29, 28]",3,10,"[4, 6, 9, 10, 11, 14, 20, 22, 24, 27]",122.5092345,7579,2861,4,21,7,1.0830664385224933
undo,31,19,0,0,0,4,"[0, 29, 28, 4]",4,9,"[6, 9, 10, 11, 14, 20, 22, 24, 27]",111.3288946,8239,660,4,13,7,1.1448076323272462
undo,31,19,0,0,0,14,"[0, 29, 28, 4, 14]",5,5,"[6, 11, 20, 22, 24]",61.31889562,11208,2969,4,2,7,1.141348753748624
undo,31,19,0,0,0,11,"[0, 29, 28, 4, 14, 11]",6,2,"[20, 22]",50.5022418,12245,1037,2,0,7,1.1379312786111968
undo,31,19,0,0,1,20,"[0, 29, 28, 4, 14, 11, 20]",7,0,[],2.700568184,13687,1442,1,0,7,1.315020858806442
undo,31,19,0,1,1,20,"[0, 29, 28, 4, 14, 11, 20]",7,0,[],2.700568184,15119,1432,1,0,7,1.315020858806442
undo,32,45,0,0,0,0,[0],1,24,"[1, 2, 3, 4, 5, 6, 7, 9, 10, 11, 12, 14, 15, 16, 17, 19, 20, 21, 22, 23, 24, 25, 27, 29]",300,505,-1,6,248,10,0.0
undo,32,45,0,0,0,15,"[0, 15]",2,23,"[1, 2, 3, 4, 5, 6, 7, 9, 10, 11, 12, 14, 16, 17, 19, 20, 21, 22, 23, 24, 25, 27, 29]",253.9022777,3534,3029,5,207,10,1.0
undo,32,45,0,0,0,23,"[0, 15, 23]",3,22,"[1, 2, 3, 4, 5, 6, 7, 9, 10, 11, 12, 14, 16, 17, 19, 20, 21, 22, 24, 25, 27, 29]",230.3014303,4159,625,5,163,10,1.0006068457769497
undo,32,45,0,0,0,20,"[0, 15, 23, 20]",4,19,"[1, 2, 3, 5, 6, 7, 9, 10, 11, 12, 14, 16, 17, 19, 21, 22, 24, 25, 29]",188.8647316,5907,1748,5,137,10,1.2062119754673604
undo,32,45,0,0,0,7,"[0, 15, 23, 20, 7]",5,14,"[2, 3, 5, 6, 9, 10, 12, 14, 17, 19, 21, 22, 24, 29]",137.2410936,6977,1070,3,38,10,1.2267717168083891
undo,32,45,0,0,0,2,"[0, 15, 23, 20, 7, 2]",6,8,"[3, 6, 10, 12, 19, 22, 24, 29]",99.22793795,8018,1041,3,20,10,1.1978549169009853
undo,32,45,0,0,0,3,"[0, 15, 23, 20, 7, 2, 3]",7,5,"[6, 10, 12, 22, 29]",73.90996014,9036,1018,2,7,10,1.2603420042999722
undo,32,45,0,0,0,29,"[0, 15, 23, 20, 7, 2, 3, 29]",8,3,"[6, 10, 12]",53.90996014,9794,758,2,1,10,1.527949676112761
undo,32,45,0,0,0,10,"[0, 15, 23, 20, 7, 2, 3, 29, 10]",9,1,[6],32.36930092,10756,962,1,0,10,1.8188082660591487
undo,32,45,0,0,1,6,"[0, 15, 23, 20, 7, 2, 3, 29, 10, 6]",10,0,[],6.120491419,11618,862,1,0,10,1.7062675391073039
undo,32,45,0,1,1,6,"[0, 15, 23, 20, 7, 2, 3, 29, 10, 6]",10,0,[],6.120491419,12553,935,1,0,10,1.7062675391073039
undo,33,7,0,0,0,0,[0],1,29,"[1, 2, 3, 4, 5, 6, 7, 8, 9, 10, 11, 12, 13, 14, 15, 16, 17, 18, 19, 20, 21, 22, 23, 24, 25, 26, 27, 28, 29]",300,392,-1,3,79,9,0.0
undo,33,7,0,0,0,23,"[0, 23]",2,28,"[1, 2, 3, 4, 5, 6, 7, 8, 9, 10, 11, 12, 13, 14, 15, 16, 17, 18, 19, 20, 21, 22, 24, 25, 26, 27, 28, 29]",253.7290588,11388,10996,6,103,8,1.0
undo,33,7,0,0,0,25,"[0, 23, 25]",3,12,"[2, 4, 6, 7, 13, 14, 15, 16, 18, 19, 20, 21]",143.833654,13676,2288,3,39,8,1.3189047790460706
undo,33,7,0,0,0,4,"[0, 23, 25, 4]",4,9,"[2, 6, 7, 13, 15, 16, 18, 19, 20]",119.0950202,14503,827,2,16,8,1.2882408504092724
undo,33,7,0,0,0,20,"[0, 23, 25, 4, 20]",5,6,"[2, 6, 7, 13, 18, 19]",99.44813752,15224,721,1,7,8,1.33778558273816
undo,33,7,0,0,0,18,"[0, 23, 25, 4, 20, 18]",6,3,"[7, 13, 19]",86.64188904,15859,635,1,2,8,1.4902303813643722
undo,33,7,0,0,0,7,"[0, 23, 25, 4, 20, 18, 7]",7,1,[19],45.41083279,17164,1305,1,0,8,1.3916756134202917
undo,33,7,0,0,1,19,"[0, 23, 25, 4, 20, 18, 7, 19]",8,0,[],15.99995045,18086,922,1,0,8,1.501301453425073
undo,33,7,0,1,1,19,"[0, 23, 25, 4, 20, 18, 7, 19]",8,0,[],15.99995045,18574,488,1,0,8,1.501301453425073
undo,34,29,0,0,0,0,[0],1,29,"[1, 2, 3, 4, 5, 6, 7, 8, 9, 10, 11, 12, 13, 14, 15, 16, 17, 18, 19, 20, 21, 22, 23, 24, 25, 26, 27, 28, 29]",300,163,-1,1,78,9,0.0
undo,34,29,0,0,0,14,"[0, 14]",2,22,"[1, 3, 4, 5, 6, 7, 9, 10, 11, 12, 13, 15, 16, 17, 21, 22, 23, 25, 26, 27, 28, 29]",209.490332,3715,3552,21,110,8,1.0
undo,34,29,0,0,0,13,"[0, 14, 13]",3,18,"[1, 4, 5, 6, 7, 9, 10, 12, 15, 16, 17, 21, 22, 25, 26, 27, 28, 29]",191.4625756,4653,938,20,75,8,1.0027006502223275
undo,34,29,0,0,0,5,"[0, 14, 13, 5]",4,15,"[1, 4, 6, 7, 9, 12, 15, 17, 21, 22, 25, 26, 27, 28, 29]",165.7526554,5354,701,19,49,8,1.0803937325657265
undo,34,29,0,0,0,4,"[0, 14, 13, 5, 4]",5,5,"[7, 9, 12, 21, 22]",113.8585324,6475,1121,5,5,8,1.0589046774357636
undo,34,29,0,0,0,9,"[0, 14, 13, 5, 4, 9]",6,3,"[7, 12, 21]",72.82196333,7215,740,2,1,8,1.2033484462540056
undo,34,29,0,0,0,7,"[0, 14, 13, 5, 4, 9, 7]",7,1,[12],43.75307962,7968,753,1,0,8,1.5581999677939193
undo,34,29,0,0,1,12,"[0, 14, 13, 5, 4, 9, 7, 12]",8,0,[],30.15160911,8515,547,1,0,8,1.747955919287298
undo,34,29,0,1,1,12,"[0, 14, 13, 5, 4, 9, 7, 12]",8,0,[],30.15160911,10304,1789,1,0,8,1.747955919287298
undo,35,0,0,0,0,0,[0],1,27,"[2, 3, 4, 5, 6, 7, 8, 9, 10, 11, 12, 13, 14, 15, 16, 17, 19, 20, 21, 22, 23, 24, 25, 26, 27, 28, 29]",300,368,-1,104,1136,9,0.0
undo,35,0,0,0,0,28,"[0, 28]",2,26,"[2, 3, 4, 5, 6, 7, 8, 9, 10, 11, 12, 13, 14, 15, 16, 17, 19, 20, 21, 22, 23, 24, 25, 26, 27, 29]",194.9190788,3865,3497,39,388,9,1.0
undo,35,0,0,0,0,26,"[0, 28, 26]",3,21,"[2, 3, 4, 5, 7, 8, 9, 10, 11, 12, 13, 14, 15, 17, 19, 20, 21, 22, 23, 24, 25]",136.9363227,4820,955,5,55,9,1.0093388233539051
undo,35,0,0,0,0,24,"[0, 28, 26, 24]",4,15,"[2, 3, 4, 5, 7, 8, 9, 11, 12, 15, 17, 19, 20, 23, 25]",119.81908,5917,1097,16,78,8,1.080012520570492
undo,35,0,0,0,0,4,"[0, 28, 26, 24, 4]",5,12,"[3, 5, 7, 8, 9, 11, 12, 15, 17, 19, 20, 23]",108.4173257,6778,861,9,35,8,1.2238519322235597
undo,35,0,1,0,0,24,"[0, 28, 26, 24]",4,15,"[2, 3, 4, 5, 7, 8, 9, 11, 12, 15, 17, 19, 20, 23, 25]",119.81908,7943,1165,16,78,8,1.080012520570492
undo,35,0,1,0,0,26,"[0, 28, 26]",3,21,"[2, 3, 4, 5, 7, 8, 9, 10, 11, 12, 13, 14, 15, 17, 19, 20, 21, 22, 23, 24, 25]",136.9363227,8072,129,5,55,9,1.0093388233539051
undo,35,0,0,0,0,4,"[0, 28, 26, 4]",4,16,"[3, 5, 7, 8, 9, 11, 12, 13, 14, 15, 17, 19, 20, 21, 23, 24]",124.8947282,10513,2441,5,33,9,1.1185924093500432
undo,35,0,0,0,0,24,"[0, 28, 26, 4, 24]",5,12,"[3, 5, 7, 8, 9, 11, 12, 15, 17, 19, 20, 23]",113.4929739,11201,688,5,21,9,1.1179314844344648
undo,35,0,0,0,0,15,"[0, 28, 26, 4, 24, 15]",6,9,"[3, 5, 7, 8, 9, 11, 12, 17, 19]",90.14773885,12200,999,5,8,9,1.1101585049568639
undo,35,0,0,0,0,7,"[0, 28, 26, 4, 24, 15, 7]",7,4,"[3, 8, 17, 19]",59.08328972,13505,1305,4,2,9,1.1751475399938958
undo,35,0,0,0,0,8,"[0, 28, 26, 4, 24, 15, 7, 8]",8,2,"[3, 19]",39.97831655,15014,1509,2,0,9,1.1688286242571428
undo,35,0,0,0,1,3,"[0, 28, 26, 4, 24, 15, 7, 8, 3]",9,0,[],9.564503894,18877,3863,1,0,9,1.3398928751407715
undo,35,0,0,1,1,3,"[0, 28, 26, 4, 24, 15, 7, 8, 3]",9,0,[],9.564503894,19911,1034,1,0,9,1.3398928751407715
undo,36,27,0,0,0,0,[0],1,26,"[1, 3, 5, 6, 7, 8, 9, 10, 11, 12, 13, 14, 15, 16, 17, 18, 19, 21, 22, 23, 24, 25, 26, 27, 28, 29]",300,458,-1,13,578,11,0.0
undo,36,27,0,0,0,15,"[0, 15]",2,24,"[1, 3, 5, 6, 7, 8, 9, 10, 11, 12, 13, 14, 16, 17, 18, 19, 21, 22, 23, 24, 25, 26, 27, 29]",263.7508621,3181,2723,6,219,11,1.0
undo,36,27,0,0,0,24,"[0, 15, 24]",3,20,"[1, 5, 6, 7, 8, 9, 10, 12, 13, 14, 16, 17, 18, 19, 21, 23, 25, 26, 27, 29]",246.5462115,3843,662,6,130,11,1.130933077698322
undo,36,27,0,0,0,17,"[0, 15, 24, 17]",4,15,"[1, 6, 8, 10, 12, 13, 14, 16, 18, 19, 23, 25, 26, 27, 29]",229.9932662,4451,608,4,60,11,1.1285538435963374
undo,36,27,0,0,0,12,"[0, 15, 24, 17, 12]",5,14,"[1, 6, 8, 10, 13, 14, 16, 18, 19, 23, 25, 26, 27, 29]",218.8129263,4969,518,2,32,11,1.2561880288755216
undo,36,27,0,0,0,10,"[0, 15, 24, 17, 12, 10]",6,11,"[1, 8, 13, 14, 18, 19, 23, 25, 26, 27, 29]",207.7675653,5497,528,2,28,11,1.2228289337766665
undo,36,27,0,0,0,13,"[0, 15, 24, 17, 12, 10, 13]",7,9,"[1, 8, 14, 18, 19, 23, 26, 27, 29]",167.9178476,6465,968,2,18,11,1.3421291994761178
undo,36,27,0,0,0,19,"[0, 15, 24, 17, 12, 10, 13, 19]",8,5,"[1, 8, 14, 23, 29]",131.6825057,7361,896,2,6,11,1.294749956153846
undo,36,27,0,0,0,8,"[0, 15, 24, 17, 12, 10, 13, 19, 8]",9,3,"[14, 23, 29]",116.816437,8104,743,2,1,11,1.3554286578836865
undo,36,27,0,0,1,23,"[0, 15, 24, 17, 12, 10, 13, 19, 8, 23]",10,0,[],45.97859399,10174,2070,1,0,10,3.3397859539241304
undo,36,27,1,0,0,8,"[0, 15, 24, 17, 12, 10, 13, 19, 8]",9,3,"[14, 23, 29]",116.816437,14619,4445,2,1,11,1.3554286578836865
undo,36,27,0,0,0,29,"[0, 15, 24, 17, 12, 10, 13, 19, 8, 29]",10,1,[14],57.61339652,16209,1590,1,0,11,1.248354519573802
undo,36,27,0,0,1,14,"[0, 15, 24, 17, 12, 10, 13, 19, 8, 29, 14]",11,0,[],13.31892734,17104,895,1,0,11,1.562811097555156
undo,36,27,0,1,1,14,"[0, 15, 24, 17, 12, 10, 13, 19, 8, 29, 14]",11,0,[],13.31892734,18020,916,1,0,11,1.562811097555156
undo,37,5,0,0,0,0,[0],1,29,"[1, 2, 3, 4, 5, 6, 7, 8, 9, 10, 11, 12, 13, 14, 15, 16, 17, 18, 19, 20, 21, 22, 23, 24, 25, 26, 27, 28, 29]",300,498,-1,5,139,9,0.0
undo,37,5,0,0,0,23,"[0, 23]",2,27,"[1, 2, 3, 4, 5, 6, 7, 8, 9, 10, 11, 12, 13, 14, 15, 16, 17, 18, 19, 20, 21, 22, 24, 25, 26, 27, 28]",249.8402552,7223,6725,3,75,9,1.0
undo,37,5,0,0,0,25,"[0, 23, 25]",3,23,"[1, 2, 3, 4, 5, 6, 8, 9, 10, 12, 13, 14, 15, 16, 17, 18, 19, 21, 22, 24, 26, 27, 28]",231.4011663,7728,505,3,43,9,1.0923159590575564
undo,37,5,0,0,0,24,"[0, 23, 25, 24]",4,21,"[2, 3, 4, 5, 6, 8, 9, 10, 12, 13, 14, 15, 16, 17, 18, 19, 21, 22, 26, 27, 28]",206.5616816,13614,5886,3,25,9,1.2901858295679272
undo,37,5,0,0,0,17,"[0, 23, 25, 24, 17]",5,13,"[4, 5, 6, 8, 12, 13, 14, 15, 18, 19, 22, 26, 27]",171.5759702,16642,3028,3,14,9,1.2027484907982513
undo,37,5,0,0,0,5,"[0, 23, 25, 24, 17, 5]",6,7,"[4, 6, 8, 12, 15, 18, 19]",128.5294837,17787,1145,3,4,9,1.1472230681682432
undo,37,5,0,0,0,15,"[0, 23, 25, 24, 17, 5, 15]",7,1,[18],88.50449151,18845,1058,1,0,8,1.196858948062182
undo,37,5,0,0,1,18,"[0, 23, 25, 24, 17, 5, 15, 18]",8,0,[],6.285272347,19787,942,1,0,8,1.4484003110079315
undo,37,5,1,0,0,15,"[0, 23, 25, 24, 17, 5, 15]",7,1,[18],88.50449151,23452,3665,1,0,8,1.196858948062182
undo,37,5,1,0,0,5,"[0, 23, 25, 24, 17, 5]",6,7,"[4, 6, 8, 12, 15, 18, 19]",128.5294837,23617,165,3,4,9,1.1472230681682432
undo,37,5,0,0,0,4,"[0, 23, 25, 24, 17, 5, 4]",7,2,"[6, 18]",62.7267482,26365,2748,1,1,9,1.354057663440583
undo,37,5,0,0,0,6,"[0, 23, 25, 24, 17, 5, 4, 6]",8,1,[18],50.68515362,26911,546,1,0,9,1.492903271736527
undo,37,5,0,0,1,18,"[0, 23, 25, 24, 17, 5, 4, 6, 18]",9,0,[],0.237160597,32184,5273,1,0,9,1.4782254648560558
undo,37,5,0,1,1,18,"[0, 23, 25, 24, 17, 5, 4, 6, 18]",9,0,[],0.237160597,36054,3870,1,0,9,1.4782254648560558
undo,38,32,0,0,0,0,[0],1,29,"[1, 2, 3, 4, 5, 6, 7, 8, 9, 10, 11, 12, 13, 14, 15, 16, 17, 18, 19, 20, 21, 22, 23, 24, 25, 26, 27, 28, 29]",300,203,-1,17,359,10,0.0
undo,38,32,0,0,0,19,"[0, 19]",2,28,"[1, 2, 3, 4, 5, 6, 7, 8, 9, 10, 11, 12, 13, 14, 15, 16, 17, 18, 20, 21, 22, 23, 24, 25, 26, 27, 28, 29]",283.5075775,2746,2543,16,294,10,1.0
undo,38,32,0,0,0,13,"[0, 19, 13]",3,24,"[2, 3, 4, 5, 6, 8, 9, 10, 11, 12, 14, 15, 16, 17, 18, 20, 21, 22, 23, 24, 25, 26, 27, 28]",260.3127505,4002,1256,14,227,10,1.0172874229878615
undo,38,32,0,0,0,15,"[0, 19, 13, 15]",4,18,"[2, 3, 5, 8, 9, 10, 11, 12, 16, 17, 20, 22, 23, 24, 25, 26, 27, 28]",177.4393531,6013,2011,9,116,10,1.435447391509833
undo,38,32,0,0,0,28,"[0, 19, 13, 15, 28]",5,17,"[2, 3, 5, 8, 9, 10, 11, 12, 16, 17, 20, 22, 23, 24, 25, 26, 27]",166.0375988,6542,529,9,70,10,1.3843701324937985
undo,38,32,0,0,0,16,"[0, 19, 13, 15, 28, 16]",6,14,"[2, 3, 5, 8, 9, 10, 11, 12, 17, 20, 22, 24, 26, 27]",134.0219776,7917,1375,3,22,10,1.4134622039936937
undo,38,32,0,0,0,12,"[0, 19, 13, 15, 28, 16, 12]",7,10,"[2, 3, 5, 8, 9, 11, 17, 20, 22, 27]",118.3695018,8569,652,3,12,10,1.6132350863104477
undo,38,32,0,0,0,22,"[0, 19, 13, 15, 28, 16, 12, 22]",8,6,"[2, 8, 9, 17, 20, 27]",88.83985567,9487,918,3,5,10,1.4953724432077236
undo,38,32,0,0,0,9,"[0, 19, 13, 15, 28, 16, 12, 22, 9]",9,3,"[2, 8, 20]",66.63625236,10374,887,3,0,10,1.5414044555780373
undo,38,32,0,0,1,8,"[0, 19, 13, 15, 28, 16, 12, 22, 9, 8]",10,0,[],21.51419566,11747,1373,1,0,10,1.421345511967712
undo,38,32,0,1,1,8,"[0, 19, 13, 15, 28, 16, 12, 22, 9, 8]",10,0,[],21.51419566,13916,2169,1,0,10,1.421345511967712
undo,39,4,0,0,0,0,[0],1,26,"[3, 4, 5, 6, 7, 8, 10, 11, 12, 13, 14, 15, 16, 17, 18, 19, 20, 21, 22, 23, 24, 25, 26, 27, 28, 29]",300,402,-1,4,489,10,0.0
undo,39,4,0,0,0,13,"[0, 13]",2,23,"[3, 4, 5, 6, 7, 10, 11, 12, 14, 15, 16, 17, 19, 20, 21, 22, 23, 24, 25, 26, 27, 28, 29]",232.1030192,4354,3952,2,270,10,1.0
undo,39,4,0,0,0,28,"[0, 13, 28]",3,19,"[3, 4, 5, 6, 10, 11, 12, 14, 15, 16, 17, 19, 20, 21, 22, 23, 24, 25, 26]",200.5277124,5178,824,2,221,10,1.3431168257921573
undo,39,4,0,0,0,14,"[0, 13, 28, 14]",4,11,"[3, 4, 5, 6, 11, 16, 17, 20, 21, 22, 25]",134.2857318,6381,1203,28,123,9,1.2134786195381546
undo,39,4,0,0,0,25,"[0, 13, 28, 14, 25]",5,10,"[3, 4, 5, 6, 11, 16, 17, 20, 21, 22]",118.1612163,6986,605,22,51,9,1.4339367384350254
undo,39,4,0,0,0,11,"[0, 13, 28, 14, 25, 11]",6,9,"[3, 4, 5, 6, 16, 17, 20, 21, 22]",99.37292203,7647,661,11,18,9,1.632788140935394
undo,39,4,0,0,0,16,"[0, 13, 28, 14, 25, 11, 16]",7,6,"[3, 5, 17, 20, 21, 22]",84.37292203,8471,824,9,2,9,1.5642820747024264
undo,39,4,0,0,0,17,"[0, 13, 28, 14, 25, 11, 16, 17]",8,4,"[3, 20, 21, 22]",58.29611241,10332,1861,4,0,9,1.4745445015567764
undo,39,4,0,0,1,20,"[0, 13, 28, 14, 25, 11, 16, 17, 20]",9,0,[],18.07174169,11383,1051,1,0,9,1.5428968852705867
undo,39,4,1,0,0,17,"[0, 13, 28, 14, 25, 11, 16, 17]",8,4,"[3, 20, 21, 22]",58.29611241,13389,2006,4,0,9,1.4745445015567764
undo,39,4,1,0,0,16,"[0, 13, 28, 14, 25, 11, 16]",7,6,"[3, 5, 17, 20, 21, 22]",84.37292203,13541,152,9,2,9,1.5642820747024264
undo,39,4,0,0,0,21,"[0, 13, 28, 14, 25, 11, 16, 21]",8,2,"[20, 22]",40.16884982,15740,2199,2,0,9,1.7579851057756917
undo,39,4,0,0,1,22,"[0, 13, 28, 14, 25, 11, 16, 21, 22]",9,0,[],29.12348881,16394,654,1,0,9,1.7072764875626198
undo,39,4,1,0,0,21,"[0, 13, 28, 14, 25, 11, 16, 21]",8,2,"[20, 22]",40.16884982,19464,3070,2,0,9,1.7579851057756917
undo,39,4,1,0,0,16,"[0, 13, 28, 14, 25, 11, 16]",7,6,"[3, 5, 17, 20, 21, 22]",84.37292203,19637,173,9,2,9,1.5642820747024264
undo,39,4,1,0,0,11,"[0, 13, 28, 14, 25, 11]",6,9,"[3, 4, 5, 6, 16, 17, 20, 21, 22]",99.37292203,19745,108,11,18,9,1.632788140935394
undo,39,4,1,0,0,25,"[0, 13, 28, 14, 25]",5,10,"[3, 4, 5, 6, 11, 16, 17, 20, 21, 22]",118.1612163,19865,120,22,51,9,1.4339367384350254
undo,39,4,1,0,0,14,"[0, 13, 28, 14]",4,11,"[3, 4, 5, 6, 11, 16, 17, 20, 21, 22, 25]",134.2857318,19977,112,28,123,9,1.2134786195381546
undo,39,4,1,0,0,28,"[0, 13, 28]",3,19,"[3, 4, 5, 6, 10, 11, 12, 14, 15, 16, 17, 19, 20, 21, 22, 23, 24, 25, 26]",200.5277124,20147,170,2,221,10,1.3431168257921573
undo,39,4,1,0,0,13,"[0, 13]",2,23,"[3, 4, 5, 6, 7, 10, 11, 12, 14, 15, 16, 17, 19, 20, 21, 22, 23, 24, 25, 26, 27, 28, 29]",232.1030192,20250,103,2,270,10,1.0
undo,39,4,0,0,0,4,"[0, 13, 4]",3,21,"[3, 5, 6, 10, 11, 12, 14, 15, 16, 17, 19, 20, 21, 22, 23, 24, 25, 26, 27, 28, 29]",196.0336416,22962,2712,5,140,9,1.1054622425974667
undo,39,4,0,0,0,22,"[0, 13, 4, 22]",4,12,"[3, 5, 11, 12, 14, 16, 17, 20, 21, 24, 25, 28]",113.9605035,23965,1003,2,19,9,1.172567000132583
undo,39,4,0,0,0,21,"[0, 13, 4, 22, 21]",5,11,"[3, 5, 11, 12, 14, 16, 17, 20, 24, 25, 28]",102.9151425,24506,541,2,15,9,1.3334515273434435
undo,39,4,0,0,0,20,"[0, 13, 4, 22, 21, 20]",6,4,"[3, 5, 16, 17]",64.70519614,26116,1610,4,0,7,1.2876879464731215
undo,39,4,0,0,1,17,"[0, 13, 4, 22, 21, 20, 17]",7,0,[],24.48082542,27091,975,1,0,7,1.6808388479027883
undo,39,4,1,0,0,20,"[0, 13, 4, 22, 21, 20]",6,4,"[3, 5, 16, 17]",64.70519614,29051,1960,4,0,7,1.2876879464731215
undo,39,4,1,0,0,21,"[0, 13, 4, 22, 21]",5,11,"[3, 5, 11, 12, 14, 16, 17, 20, 24, 25, 28]",102.9151425,29176,125,2,15,9,1.3334515273434435
undo,39,4,1,0,0,22,"[0, 13, 4, 22]",4,12,"[3, 5, 11, 12, 14, 16, 17, 20, 21, 24, 25, 28]",113.9605035,29337,161,2,19,9,1.172567000132583
undo,39,4,1,0,0,4,"[0, 13, 4]",3,21,"[3, 5, 6, 10, 11, 12, 14, 15, 16, 17, 19, 20, 21, 22, 23, 24, 25, 26, 27, 28, 29]",196.0336416,29482,145,5,140,9,1.1054622425974667
undo,39,4,1,0,0,13,"[0, 13]",2,23,"[3, 4, 5, 6, 7, 10, 11, 12, 14, 15, 16, 17, 19, 20, 21, 22, 23, 24, 25, 26, 27, 28, 29]",232.1030192,29620,138,2,270,10,1.0
undo,39,4,1,0,0,0,[0],1,26,"[3, 4, 5, 6, 7, 8, 10, 11, 12, 13, 14, 15, 16, 17, 18, 19, 20, 21, 22, 23, 24, 25, 26, 27, 28, 29]",300,29765,145,4,489,10,0.0
undo,39,4,0,0,0,13,"[0, 13]",2,23,"[3, 4, 5, 6, 7, 10, 11, 12, 14, 15, 16, 17, 19, 20, 21, 22, 23, 24, 25, 26, 27, 28, 29]",232.1030192,32225,2460,2,270,10,1.0
undo,39,4,0,0,0,28,"[0, 13, 28]",3,19,"[3, 4, 5, 6, 10, 11, 12, 14, 15, 16, 17, 19, 20, 21, 22, 23, 24, 25, 26]",200.5277124,33245,1020,2,221,10,1.3431168257921573
undo,39,4,0,0,0,14,"[0, 13, 28, 14]",4,11,"[3, 4, 5, 6, 11, 16, 17, 20, 21, 22, 25]",134.2857318,34388,1143,28,123,9,1.2134786195381546
undo,39,4,0,0,0,25,"[0, 13, 28, 14, 25]",5,10,"[3, 4, 5, 6, 11, 16, 17, 20, 21, 22]",118.1612163,35349,961,22,51,9,1.4339367384350254
undo,39,4,0,0,0,11,"[0, 13, 28, 14, 25, 11]",6,9,"[3, 4, 5, 6, 16, 17, 20, 21, 22]",99.37292203,35888,539,11,18,9,1.632788140935394
undo,39,4,0,0,0,16,"[0, 13, 28, 14, 25, 11, 16]",7,6,"[3, 5, 17, 20, 21, 22]",84.37292203,36323,435,9,2,9,1.5642820747024264
undo,39,4,0,0,0,17,"[0, 13, 28, 14, 25, 11, 16, 17]",8,4,"[3, 20, 21, 22]",58.29611241,37221,898,4,0,9,1.4745445015567764
undo,39,4,0,0,1,20,"[0, 13, 28, 14, 25, 11, 16, 17, 20]",9,0,[],18.07174169,43597,6376,1,0,9,1.5428968852705867
undo,39,4,0,1,1,20,"[0, 13, 28, 14, 25, 11, 16, 17, 20]",9,0,[],18.07174169,45439,1842,1,0,9,1.5428968852705867
undo,40,24,0,0,0,0,[0],1,29,"[1, 2, 3, 4, 5, 6, 7, 8, 9, 10, 11, 12, 13, 14, 15, 16, 17, 18, 19, 20, 21, 22, 23, 24, 25, 26, 27, 28, 29]",300,425,-1,4,76,10,0.0
undo,40,24,0,0,0,14,"[0, 14]",2,27,"[1, 2, 3, 4, 5, 6, 8, 9, 10, 11, 12, 13, 15, 16, 17, 18, 19, 20, 21, 22, 23, 24, 25, 26, 27, 28, 29]",278.0455016,2756,2331,4,54,10,1.0
undo,40,24,0,0,0,16,"[0, 14, 16]",3,25,"[2, 3, 4, 5, 6, 8, 9, 10, 11, 12, 13, 15, 17, 18, 19, 20, 21, 22, 23, 24, 25, 26, 27, 28, 29]",188.9949542,4815,2059,4,31,10,1.238291113657358
undo,40,24,0,0,0,22,"[0, 14, 16, 22]",4,20,"[2, 3, 4, 6, 8, 9, 10, 11, 13, 15, 17, 20, 21, 23, 24, 25, 26, 27, 28, 29]",170.9671978,5891,1076,2,14,10,1.2244494133788653
undo,40,24,0,0,0,8,"[0, 14, 16, 22, 8]",5,15,"[2, 3, 4, 6, 9, 10, 11, 13, 15, 23, 24, 26, 27, 28, 29]",157.5507899,6603,712,2,10,10,1.2936570860700658
undo,40,24,0,0,0,15,"[0, 14, 16, 22, 8, 15]",6,11,"[3, 4, 6, 9, 10, 11, 23, 26, 27, 28, 29]",126.6638995,7683,1080,2,8,10,1.4490533667994079
undo,40,24,0,0,0,28,"[0, 14, 16, 22, 8, 15, 28]",7,5,"[4, 9, 11, 23, 27]",81.3869738,9149,1466,2,5,10,1.3279550596984244
undo,40,24,0,0,0,23,"[0, 14, 16, 22, 8, 15, 28, 23]",8,3,"[9, 11, 27]",62.36067621,9727,578,2,2,10,1.3488090026750466
undo,40,24,0,0,0,11,"[0, 14, 16, 22, 8, 15, 28, 23, 11]",9,2,"[9, 27]",35.43485217,10418,691,2,0,10,1.31714136871331
undo,40,24,0,0,1,27,"[0, 14, 16, 22, 8, 15, 28, 23, 11, 27]",10,0,[],7.631974625,11165,747,1,0,10,1.2800893038140084
undo,40,24,0,1,1,27,"[0, 14, 16, 22, 8, 15, 28, 23, 11, 27]",10,0,[],7.631974625,12852,1687,1,0,10,1.2800893038140084
undo,41,25,0,0,0,0,[0],1,28,"[1, 2, 3, 4, 5, 7, 8, 9, 10, 11, 12, 13, 14, 15, 16, 17, 18, 19, 20, 21, 22, 23, 24, 25, 26, 27, 28, 29]",300,180,-1,5,94,10,0.0
undo,41,25,0,0,0,1,"[0, 1]",2,22,"[2, 3, 5, 7, 8, 9, 11, 12, 13, 14, 16, 17, 18, 19, 20, 21, 22, 23, 24, 25, 28, 29]",268.9516506,6570,6390,16,145,9,1.0
undo,41,25,0,0,0,23,"[0, 1, 23]",3,16,"[3, 5, 7, 8, 9, 11, 12, 13, 17, 19, 20, 21, 22, 24, 28, 29]",201.9441883,8871,2301,2,17,9,2.4377214593885763
undo,41,25,0,0,0,19,"[0, 1, 23, 19]",4,13,"[3, 5, 7, 9, 11, 12, 13, 17, 20, 21, 22, 24, 29]",166.0972917,10272,1401,2,9,9,2.7866177211778074
undo,41,25,0,0,0,22,"[0, 1, 23, 19, 22]",5,11,"[3, 5, 7, 9, 11, 12, 17, 20, 21, 24, 29]",136.6864093,11895,1623,3,7,8,2.1108334672310716
undo,41,25,0,0,0,29,"[0, 1, 23, 19, 22, 29]",6,5,"[7, 9, 20, 21, 24]",120.5618938,12808,913,1,4,8,2.865239187821403
undo,41,25,0,0,1,20,"[0, 1, 23, 19, 22, 29, 20]",7,0,[],17.98509335,14341,1533,1,0,7,3.615575726282051
undo,41,25,1,0,0,29,"[0, 1, 23, 19, 22, 29]",6,5,"[7, 9, 20, 21, 24]",120.5618938,16233,1892,1,4,8,2.865239187821403
undo,41,25,1,0,0,22,"[0, 1, 23, 19, 22]",5,11,"[3, 5, 7, 9, 11, 12, 17, 20, 21, 24, 29]",136.6864093,16360,127,3,7,8,2.1108334672310716
undo,41,25,1,0,0,19,"[0, 1, 23, 19]",4,13,"[3, 5, 7, 9, 11, 12, 13, 17, 20, 21, 22, 24, 29]",166.0972917,16493,133,2,9,9,2.7866177211778074
undo,41,25,1,0,0,23,"[0, 1, 23]",3,16,"[3, 5, 7, 8, 9, 11, 12, 13, 17, 19, 20, 21, 22, 24, 28, 29]",201.9441883,16588,95,2,17,9,2.4377214593885763
undo,41,25,1,0,0,1,"[0, 1]",2,22,"[2, 3, 5, 7, 8, 9, 11, 12, 13, 14, 16, 17, 18, 19, 20, 21, 22, 23, 24, 25, 28, 29]",268.9516506,16750,162,16,145,9,1.0
undo,41,25,1,0,0,0,[0],1,28,"[1, 2, 3, 4, 5, 7, 8, 9, 10, 11, 12, 13, 14, 15, 16, 17, 18, 19, 20, 21, 22, 23, 24, 25, 26, 27, 28, 29]",300,17017,267,5,94,10,0.0
undo,41,25,0,0,0,23,"[0, 23]",2,23,"[1, 2, 3, 5, 7, 8, 9, 11, 12, 13, 14, 16, 17, 19, 20, 21, 22, 24, 25, 26, 27, 28, 29]",259.7756293,19460,2443,3,33,10,1.0
undo,41,25,0,0,0,7,"[0, 23, 7]",3,16,"[1, 3, 5, 8, 9, 11, 13, 17, 19, 21, 22, 24, 26, 27, 28, 29]",181.9424744,20880,1420,1,21,9,1.0073109045884563
undo,41,25,0,0,0,24,"[0, 23, 7, 24]",4,10,"[3, 5, 8, 9, 11, 13, 19, 22, 28, 29]",157.1836376,21741,861,1,17,9,1.0161584555781231
undo,41,25,0,0,0,9,"[0, 23, 7, 24, 9]",5,8,"[3, 8, 11, 13, 19, 22, 28, 29]",139.1558812,22499,758,1,16,9,1.0303325523073676
undo,41,25,0,0,0,3,"[0, 23, 7, 24, 9, 3]",6,4,"[8, 11, 13, 28]",108.8903893,23384,885,1,5,9,1.0321657704271587
undo,41,25,0,0,0,28,"[0, 23, 7, 24, 9, 3, 28]",7,2,"[8, 13]",77.58543762,26265,2881,2,0,8,1.02782621065816
undo,41,25,0,0,1,13,"[0, 23, 7, 24, 9, 3, 28, 13]",8,0,[],43.35095208,27378,1113,1,0,8,1.27332019011654
undo,41,25,0,1,1,13,"[0, 23, 7, 24, 9, 3, 28, 13]",8,0,[],43.35095208,28509,1131,1,0,8,1.27332019011654
undo,42,33,0,0,0,0,[0],1,23,"[1, 2, 5, 7, 8, 11, 12, 13, 14, 15, 16, 17, 18, 19, 20, 21, 23, 24, 25, 26, 27, 28, 29]",300,543,-1,5,108,9,0.0
undo,42,33,0,0,0,8,"[0, 8]",2,22,"[1, 2, 5, 7, 11, 12, 13, 14, 15, 16, 17, 18, 19, 20, 21, 23, 24, 25, 26, 27, 28, 29]",265.8679037,2695,2152,5,87,9,1.0
undo,42,33,0,0,0,21,"[0, 8, 21]",3,16,"[2, 5, 7, 11, 13, 14, 16, 17, 18, 19, 20, 24, 26, 27, 28, 29]",166.0430571,4108,1413,5,80,9,1.0670557763739492
undo,42,33,0,0,0,17,"[0, 8, 21, 17]",4,11,"[2, 7, 11, 13, 14, 16, 19, 20, 24, 26, 29]",127.4036989,5796,1688,1,18,9,1.0830294710276618
undo,42,33,0,0,0,13,"[0, 8, 21, 17, 13]",5,10,"[2, 7, 11, 14, 16, 19, 20, 24, 26, 29]",104.6001904,6968,1172,1,10,9,1.2861654105061844
undo,42,33,0,0,0,19,"[0, 8, 21, 17, 13, 19]",6,6,"[7, 14, 16, 24, 26, 29]",79.10509282,8008,1040,1,6,9,1.3181942666818214
undo,42,33,0,0,0,7,"[0, 8, 21, 17, 13, 19, 7]",7,3,"[14, 24, 26]",33.48711391,9929,1921,1,2,9,1.25064167844248
undo,42,33,0,0,0,14,"[0, 8, 21, 17, 13, 19, 7, 14]",8,1,[26],18.62104516,10692,763,1,0,9,1.297007778404226
undo,42,33,0,0,1,26,"[0, 8, 21, 17, 13, 19, 7, 14, 26]",9,0,[],5.971934519,11386,694,1,0,9,1.2996231319325615
undo,42,33,0,1,1,26,"[0, 8, 21, 17, 13, 19, 7, 14, 26]",9,0,[],5.971934519,15327,3941,1,0,9,1.2996231319325615
undo,43,40,0,0,0,0,[0],1,29,"[1, 2, 3, 4, 5, 6, 7, 8, 9, 10, 11, 12, 13, 14, 15, 16, 17, 18, 19, 20, 21, 22, 23, 24, 25, 26, 27, 28, 29]",300,538,-1,8,191,9,0.0
undo,43,40,0,0,0,1,"[0, 1]",2,18,"[2, 5, 6, 7, 8, 9, 10, 11, 13, 15, 17, 18, 19, 21, 22, 23, 27, 29]",247.8463808,4503,3965,4,80,9,1.0
undo,43,40,0,0,0,6,"[0, 1, 6]",3,17,"[2, 5, 7, 8, 9, 10, 11, 13, 15, 17, 18, 19, 21, 22, 23, 27, 29]",227.7466295,6474,1971,4,74,9,1.0459427008232034
undo,43,40,0,0,0,9,"[0, 1, 6, 9]",4,10,"[2, 5, 8, 11, 18, 19, 21, 22, 23, 27]",159.146338,7785,1311,17,39,8,1.142098432552584
undo,43,40,0,0,0,18,"[0, 1, 6, 9, 18]",5,9,"[2, 5, 8, 11, 19, 21, 22, 23, 27]",142.5933926,8534,749,13,14,8,1.3288108654802917
undo,43,40,0,0,0,5,"[0, 1, 6, 9, 18, 5]",6,7,"[2, 8, 19, 21, 22, 23, 27]",111.0180858,9449,915,5,5,8,1.5366414787972102
undo,43,40,0,0,0,23,"[0, 1, 6, 9, 18, 5, 23]",7,3,"[2, 19, 21]",82.71614241,10407,958,3,0,8,2.2908821040631264
undo,43,40,0,0,1,19,"[0, 1, 6, 9, 18, 5, 23, 19]",8,0,[],50.76305179,11434,1027,1,0,8,2.4294131203959415
undo,43,40,1,0,0,23,"[0, 1, 6, 9, 18, 5, 23]",7,3,"[2, 19, 21]",82.71614241,15558,4124,3,0,8,2.2908821040631264
undo,43,40,1,0,0,5,"[0, 1, 6, 9, 18, 5]",6,7,"[2, 8, 19, 21, 22, 23, 27]",111.0180858,15674,116,5,5,8,1.5366414787972102
undo,43,40,1,0,0,18,"[0, 1, 6, 9, 18]",5,9,"[2, 5, 8, 11, 19, 21, 22, 23, 27]",142.5933926,15794,120,13,14,8,1.3288108654802917
undo,43,40,1,0,0,9,"[0, 1, 6, 9]",4,10,"[2, 5, 8, 11, 18, 19, 21, 22, 23, 27]",159.146338,15931,137,17,39,8,1.142098432552584
undo,43,40,1,0,0,6,"[0, 1, 6]",3,17,"[2, 5, 7, 8, 9, 10, 11, 13, 15, 17, 18, 19, 21, 22, 23, 27, 29]",227.7466295,16227,296,4,74,9,1.0459427008232034
undo,43,40,0,0,0,21,"[0, 1, 6, 21]",4,8,"[2, 5, 9, 17, 18, 19, 22, 23]",175.7754837,18049,1822,4,25,9,1.0308822257404064
undo,43,40,0,0,0,9,"[0, 1, 6, 21, 9]",5,6,"[2, 5, 18, 19, 22, 23]",130.0699041,18920,871,4,12,9,1.377861912961129
undo,43,40,0,0,0,18,"[0, 1, 6, 21, 9, 18]",6,5,"[2, 5, 19, 22, 23]",113.5169588,19517,597,4,4,9,1.5742712168661408
undo,43,40,0,0,0,5,"[0, 1, 6, 21, 9, 18, 5]",7,3,"[19, 22, 23]",81.94165198,20600,1083,2,1,9,1.7730665063055515
undo,43,40,0,0,0,23,"[0, 1, 6, 21, 9, 18, 5, 23]",8,1,[19],53.63970859,21334,734,1,0,9,2.597442759912231
undo,43,40,0,0,1,19,"[0, 1, 6, 21, 9, 18, 5, 23, 19]",9,0,[],21.68661797,22168,834,1,0,9,2.7128328554069565
undo,43,40,0,1,1,19,"[0, 1, 6, 21, 9, 18, 5, 23, 19]",9,0,[],21.68661797,25534,3366,1,0,9,2.7128328554069565
undo,44,1,0,0,0,0,[0],1,26,"[1, 2, 4, 5, 7, 8, 9, 10, 11, 12, 13, 14, 15, 16, 17, 18, 19, 20, 21, 22, 23, 24, 25, 26, 28, 29]",300,628,-1,6,74,7,0.0
undo,44,1,0,0,0,14,"[0, 14]",2,19,"[1, 4, 5, 8, 9, 13, 15, 17, 18, 19, 20, 21, 22, 23, 24, 25, 26, 28, 29]",200.1901808,3933,3305,5,42,7,1.0
undo,44,1,0,0,0,17,"[0, 14, 17]",3,15,"[1, 4, 5, 8, 9, 13, 15, 18, 19, 20, 22, 23, 25, 28, 29]",147.8356204,4847,914,5,27,7,1.0028844724416826
undo,44,1,0,0,0,1,"[0, 14, 17, 1]",4,12,"[4, 5, 8, 9, 15, 18, 20, 22, 23, 25, 28, 29]",123.4840291,5920,1073,5,15,7,1.0264985578353567
undo,44,1,0,0,0,28,"[0, 14, 17, 1, 28]",5,5,"[9, 15, 22, 23, 29]",88.59850198,6726,806,5,3,7,1.0339861575999345
undo,44,1,0,0,0,23,"[0, 14, 17, 1, 28, 23]",6,2,"[15, 22]",51.70676849,7720,994,2,0,7,1.0327458250705703
undo,44,1,0,0,1,15,"[0, 14, 17, 1, 28, 23, 15]",7,0,[],20.81987807,8613,893,1,0,7,1.1948681641401226
undo,44,1,1,0,0,23,"[0, 14, 17, 1, 28, 23]",6,2,"[15, 22]",51.70676849,10460,1847,2,0,7,1.0327458250705703
undo,44,1,1,0,0,28,"[0, 14, 17, 1, 28]",5,5,"[9, 15, 22, 23, 29]",88.59850198,10594,134,5,3,7,1.0339861575999345
undo,44,1,1,0,0,1,"[0, 14, 17, 1]",4,12,"[4, 5, 8, 9, 15, 18, 20, 22, 23, 25, 28, 29]",123.4840291,10711,117,5,15,7,1.0264985578353567
undo,44,1,1,0,0,17,"[0, 14, 17]",3,15,"[1, 4, 5, 8, 9, 13, 15, 18, 19, 20, 22, 23, 25, 28, 29]",147.8356204,10828,117,5,27,7,1.0028844724416826
undo,44,1,1,0,0,14,"[0, 14]",2,19,"[1, 4, 5, 8, 9, 13, 15, 17, 18, 19, 20, 21, 22, 23, 24, 25, 26, 28, 29]",200.1901808,10973,145,5,42,7,1.0
undo,44,1,1,0,0,0,[0],1,26,"[1, 2, 4, 5, 7, 8, 9, 10, 11, 12, 13, 14, 15, 16, 17, 18, 19, 20, 21, 22, 23, 24, 25, 26, 28, 29]",300,11112,139,6,74,7,0.0
undo,44,1,0,0,0,8,"[0, 8]",2,23,"[1, 4, 5, 7, 9, 10, 11, 12, 13, 14, 15, 16, 17, 18, 19, 20, 21, 23, 24, 25, 26, 28, 29]",202,14315,3203,1,16,7,1.0
undo,44,1,0,0,0,14,"[0, 8, 14]",3,12,"[1, 5, 9, 15, 17, 18, 19, 20, 25, 26, 28, 29]",138.1094686,15512,1197,2,11,6,1.6219900283216735
undo,44,1,1,0,0,8,"[0, 8]",2,23,"[1, 4, 5, 7, 9, 10, 11, 12, 13, 14, 15, 16, 17, 18, 19, 20, 21, 23, 24, 25, 26, 28, 29]",202,17372,1860,1,16,7,1.0
undo,44,1,1,0,0,0,[0],1,26,"[1, 2, 4, 5, 7, 8, 9, 10, 11, 12, 13, 14, 15, 16, 17, 18, 19, 20, 21, 22, 23, 24, 25, 26, 28, 29]",300,18721,1349,6,74,7,0.0
undo,44,1,0,0,0,20,"[0, 20]",2,13,"[1, 4, 5, 8, 11, 13, 14, 15, 17, 18, 19, 28, 29]",129.961769,20201,1480,2,11,6,1.0
undo,44,1,0,0,0,5,"[0, 20, 5]",3,9,"[1, 4, 8, 11, 13, 17, 18, 19, 29]",108.4908585,20977,776,2,6,6,1.0224915251419384
undo,44,1,0,0,0,18,"[0, 20, 5, 18]",4,4,"[4, 13, 17, 29]",85.66543403,21679,702,2,3,6,1.064078468417926
undo,44,1,0,0,0,4,"[0, 20, 5, 18, 4]",5,2,"[13, 29]",46.71674984,22807,1128,2,0,6,1.0731955739217967
undo,44,1,1,0,0,18,"[0, 20, 5, 18]",4,4,"[4, 13, 17, 29]",85.66543403,26338,3531,2,3,6,1.064078468417926
undo,44,1,1,0,0,5,"[0, 20, 5]",3,9,"[1, 4, 8, 11, 13, 17, 18, 19, 29]",108.4908585,26469,131,2,6,6,1.0224915251419384
undo,44,1,1,0,0,20,"[0, 20]",2,13,"[1, 4, 5, 8, 11, 13, 14, 15, 17, 18, 19, 28, 29]",129.961769,26596,127,2,11,6,1.0
undo,44,1,1,0,0,0,[0],1,26,"[1, 2, 4, 5, 7, 8, 9, 10, 11, 12, 13, 14, 15, 16, 17, 18, 19, 20, 21, 22, 23, 24, 25, 26, 28, 29]",300,26751,155,6,74,7,0.0
undo,44,1,0,0,0,24,"[0, 24]",2,8,"[5, 7, 8, 14, 16, 19, 20, 26]",185.4137879,29754,3003,9,13,5,1.0
undo,44,1,0,0,0,26,"[0, 24, 26]",3,6,"[5, 8, 14, 16, 19, 20]",152.1722476,30462,708,7,4,5,1.502125301442057
undo,44,1,0,0,0,19,"[0, 24, 26, 19]",4,4,"[5, 8, 16, 20]",113.5458318,31418,956,4,0,5,1.5438989781695114
undo,44,1,0,0,1,8,"[0, 24, 26, 19, 8]",5,0,[],60.39510274,32335,917,1,0,5,2.44494793122449
undo,44,1,1,0,0,19,"[0, 24, 26, 19]",4,4,"[5, 8, 16, 20]",113.5458318,34710,2375,4,0,5,1.5438989781695114
undo,44,1,1,0,0,26,"[0, 24, 26]",3,6,"[5, 8, 14, 16, 19, 20]",152.1722476,34843,133,7,4,5,1.502125301442057
undo,44,1,1,0,0,24,"[0, 24]",2,8,"[5, 7, 8, 14, 16, 19, 20, 26]",185.4137879,34955,112,9,13,5,1.0
undo,44,1,1,0,0,0,[0],1,26,"[1, 2, 4, 5, 7, 8, 9, 10, 11, 12, 13, 14, 15, 16, 17, 18, 19, 20, 21, 22, 23, 24, 25, 26, 28, 29]",300,35073,118,6,74,7,0.0
undo,44,1,0,0,0,14,"[0, 14]",2,19,"[1, 4, 5, 8, 9, 13, 15, 17, 18, 19, 20, 21, 22, 23, 24, 25, 26, 28, 29]",200.1901808,37723,2650,5,42,7,1.0
undo,44,1,0,0,0,17,"[0, 14, 17]",3,15,"[1, 4, 5, 8, 9, 13, 15, 18, 19, 20, 22, 23, 25, 28, 29]",147.8356204,38676,953,5,27,7,1.0028844724416826
undo,44,1,0,0,0,1,"[0, 14, 17, 1]",4,12,"[4, 5, 8, 9, 15, 18, 20, 22, 23, 25, 28, 29]",123.4840291,39483,807,5,15,7,1.0264985578353567
undo,44,1,0,0,0,28,"[0, 14, 17, 1, 28]",5,5,"[9, 15, 22, 23, 29]",88.59850198,40848,1365,5,3,7,1.0339861575999345
undo,44,1,0,0,0,23,"[0, 14, 17, 1, 28, 23]",6,2,"[15, 22]",51.70676849,42287,1439,2,0,7,1.0327458250705703
undo,44,1,0,0,1,15,"[0, 14, 17, 1, 28, 23, 15]",7,0,[],20.81987807,43290,1003,1,0,7,1.1948681641401226
undo,44,1,0,1,1,15,"[0, 14, 17, 1, 28, 23, 15]",7,0,[],20.81987807,44286,996,1,0,7,1.1948681641401226
undo,45,30,0,0,0,0,[0],1,19,"[3, 4, 5, 7, 9, 11, 16, 17, 18, 19, 20, 21, 22, 24, 25, 26, 27, 28, 29]",300,189,-1,5,41,8,0.0
undo,45,30,0,0,0,27,"[0, 27]",2,10,"[3, 5, 7, 9, 18, 19, 20, 24, 25, 29]",90.59608409,4545,4356,7,22,6,1.0
undo,45,30,0,0,0,3,"[0, 27, 3]",3,8,"[5, 7, 18, 19, 20, 24, 25, 29]",71.49111091,5249,704,5,9,6,1.0022223300201003
undo,45,30,0,0,0,5,"[0, 27, 3, 5]",4,4,"[7, 18, 24, 29]",46.65162621,6834,1585,1,3,6,1.047699458031665
undo,45,30,0,0,0,18,"[0, 27, 3, 5, 18]",5,1,[29],33.6132214,7323,489,1,0,6,1.0906504953306948
undo,45,30,0,0,1,29,"[0, 27, 3, 5, 18, 29]",6,0,[],14.30001349,7987,664,1,0,6,1.1734964103241567
undo,45,30,1,0,0,18,"[0, 27, 3, 5, 18]",5,1,[29],33.6132214,9787,1800,1,0,6,1.0906504953306948
undo,45,30,1,0,0,5,"[0, 27, 3, 5]",4,4,"[7, 18, 24, 29]",46.65162621,9935,148,1,3,6,1.047699458031665
undo,45,30,1,0,0,3,"[0, 27, 3]",3,8,"[5, 7, 18, 19, 20, 24, 25, 29]",71.49111091,10087,152,5,9,6,1.0022223300201003
undo,45,30,1,0,0,27,"[0, 27]",2,10,"[3, 5, 7, 9, 18, 19, 20, 24, 25, 29]",90.59608409,10237,150,7,22,6,1.0
undo,45,30,1,0,0,0,[0],1,19,"[3, 4, 5, 7, 9, 11, 16, 17, 18, 19, 20, 21, 22, 24, 25, 26, 27, 28, 29]",300,10388,151,5,41,8,0.0
undo,45,30,0,0,0,16,"[0, 16]",2,17,"[3, 5, 7, 9, 11, 17, 18, 19, 20, 21, 22, 24, 25, 26, 27, 28, 29]",219.3774225,12303,1915,5,34,8,1.0
undo,45,30,0,0,0,25,"[0, 16, 25]",3,10,"[3, 5, 7, 9, 11, 18, 19, 20, 27, 29]",115.0845656,13692,1389,5,28,8,1.0336279544884488
undo,45,30,0,0,0,20,"[0, 16, 25, 20]",4,8,"[3, 5, 7, 9, 18, 19, 27, 29]",93.15285342,14596,904,4,14,8,1.0337964627284246
undo,45,30,0,0,0,27,"[0, 16, 25, 20, 27]",5,4,"[3, 5, 18, 29]",59.09408069,15433,837,4,6,8,1.1504365534848
undo,45,30,0,0,0,3,"[0, 16, 25, 20, 27, 3]",6,3,"[5, 18, 29]",39.98910751,17144,1711,4,0,8,1.1403876826835333
undo,45,30,0,0,0,5,"[0, 16, 25, 20, 27, 3, 5]",7,1,[18],15.14962282,18188,1044,1,0,8,1.1779731652786363
undo,45,30,0,0,1,18,"[0, 16, 25, 20, 27, 3, 5, 18]",8,0,[],2.111218006,18858,670,1,0,8,1.2196271502012654
undo,45,30,0,1,1,18,"[0, 16, 25, 20, 27, 3, 5, 18]",8,0,[],2.111218006,19828,970,1,0,8,1.2196271502012654
undo,46,18,0,0,0,0,[0],1,28,"[1, 2, 3, 4, 5, 6, 7, 8, 9, 10, 11, 12, 13, 14, 16, 17, 18, 19, 20, 21, 22, 23, 24, 25, 26, 27, 28, 29]",300,293,-1,3,136,10,0.0
undo,46,18,0,0,0,28,"[0, 28]",2,16,"[1, 3, 5, 7, 8, 9, 12, 13, 14, 16, 20, 23, 24, 25, 26, 27]",236.4311397,4136,3843,2,19,10,1.0
undo,46,18,0,0,0,7,"[0, 28, 7]",3,15,"[1, 3, 5, 8, 9, 12, 13, 14, 16, 20, 23, 24, 25, 26, 27]",214.4084242,6020,1884,2,17,10,1.4345180696367563
undo,46,18,0,0,0,25,"[0, 28, 7, 25]",4,13,"[1, 3, 5, 8, 9, 12, 13, 14, 16, 20, 23, 26, 27]",186.6055466,6794,774,2,15,10,1.8896451241781882
undo,46,18,0,0,0,8,"[0, 28, 7, 25, 8]",5,10,"[3, 5, 9, 12, 13, 14, 16, 23, 26, 27]",149.551532,7633,839,2,10,10,1.590467437592877
undo,46,18,0,0,0,13,"[0, 28, 7, 25, 8, 13]",6,9,"[3, 5, 9, 12, 14, 16, 23, 26, 27]",128.4565089,8479,846,2,5,10,1.8248274983549797
undo,46,18,0,0,0,14,"[0, 28, 7, 25, 8, 13, 14]",7,7,"[3, 5, 9, 12, 23, 26, 27]",109.4828429,9704,1225,2,3,10,1.6993534956692746
undo,46,18,0,0,0,3,"[0, 28, 7, 25, 8, 13, 14, 3]",8,3,"[5, 12, 27]",79.39962499,10677,973,2,1,10,1.802637206541468
undo,46,18,0,0,0,5,"[0, 28, 7, 25, 8, 13, 14, 3, 5]",9,1,[12],21.21887216,11738,1061,1,0,10,1.559774889743805
undo,46,18,0,0,1,12,"[0, 28, 7, 25, 8, 13, 14, 3, 5, 12]",10,0,[],9.817117911,12843,1105,1,0,10,1.563993037384447
undo,46,18,0,1,1,12,"[0, 28, 7, 25, 8, 13, 14, 3, 5, 12]",10,0,[],9.817117911,13862,1019,1,0,10,1.563993037384447
undo,47,26,0,0,0,0,[0],1,29,"[1, 2, 3, 4, 5, 6, 7, 8, 9, 10, 11, 12, 13, 14, 15, 16, 17, 18, 19, 20, 21, 22, 23, 24, 25, 26, 27, 28, 29]",300,409,-1,9,226,9,0.0
undo,47,26,0,0,0,21,"[0, 21]",2,25,"[2, 3, 4, 5, 6, 7, 8, 10, 11, 12, 13, 14, 15, 16, 17, 18, 19, 22, 23, 24, 25, 26, 27, 28, 29]",211.1349337,5045,4636,7,90,9,1.0
undo,47,26,0,0,0,13,"[0, 21, 13]",3,21,"[3, 4, 5, 6, 7, 8, 10, 11, 12, 14, 15, 16, 17, 18, 19, 22, 23, 24, 25, 26, 29]",188.9989901,6412,1367,6,45,9,1.0103952279992225
undo,47,26,0,0,0,23,"[0, 21, 13, 23]",4,13,"[3, 4, 5, 6, 10, 11, 14, 16, 17, 18, 22, 26, 29]",150.9858345,7589,1177,3,17,9,1.1069410469330032
undo,47,26,0,0,0,16,"[0, 21, 13, 23, 16]",5,7,"[4, 5, 6, 10, 14, 17, 29]",97.75050789,8655,1066,3,13,9,1.8066634000662438
undo,47,26,0,0,0,29,"[0, 21, 13, 23, 16, 29]",6,5,"[4, 6, 10, 14, 17]",73.54307102,9261,606,3,9,9,1.853342605492142
undo,47,26,0,0,0,4,"[0, 21, 13, 23, 16, 29, 4]",7,3,"[6, 14, 17]",49.54307102,9849,588,2,2,9,2.0664369230924997
undo,47,26,0,0,0,17,"[0, 21, 13, 23, 16, 29, 4, 17]",8,2,"[6, 14]",28.44804791,10617,768,2,0,9,1.911153301956092
undo,47,26,0,0,1,14,"[0, 21, 13, 23, 16, 29, 4, 17, 14]",9,0,[],5.975842855,11701,1084,1,0,9,1.8245133223656398
undo,47,26,0,1,1,14,"[0, 21, 13, 23, 16, 29, 4, 17, 14]",9,0,[],5.975842855,13522,1821,1,0,9,1.8245133223656398
undo,48,37,0,0,0,0,[0],1,29,"[1, 2, 3, 4, 5, 6, 7, 8, 9, 10, 11, 12, 13, 14, 15, 16, 17, 18, 19, 20, 21, 22, 23, 24, 25, 26, 27, 28, 29]",300,195,-1,6,168,10,0.0
undo,48,37,0,0,0,9,"[0, 9]",2,28,"[1, 2, 3, 4, 5, 6, 7, 8, 10, 11, 12, 13, 14, 15, 16, 17, 18, 19, 20, 21, 22, 23, 24, 25, 26, 27, 28, 29]",275.7925631,4066,3871,45,289,9,1.0
undo,48,37,0,0,0,18,"[0, 9, 18]",3,15,"[1, 2, 4, 6, 7, 10, 15, 17, 19, 20, 21, 22, 26, 28, 29]",172.2068498,5680,1614,33,160,9,1.3094770236215172
undo,48,37,1,0,0,9,"[0, 9]",2,28,"[1, 2, 3, 4, 5, 6, 7, 8, 10, 11, 12, 13, 14, 15, 16, 17, 18, 19, 20, 21, 22, 23, 24, 25, 26, 27, 28, 29]",275.7925631,7035,1355,45,289,9,1.0
undo,48,37,1,0,0,0,[0],1,29,"[1, 2, 3, 4, 5, 6, 7, 8, 9, 10, 11, 12, 13, 14, 15, 16, 17, 18, 19, 20, 21, 22, 23, 24, 25, 26, 27, 28, 29]",300,7155,120,6,168,10,0.0
undo,48,37,0,0,0,19,"[0, 19]",2,19,"[1, 2, 4, 5, 6, 7, 9, 10, 11, 15, 17, 18, 20, 21, 22, 25, 26, 28, 29]",185.6627795,8756,1601,25,244,9,1.0
undo,48,37,0,0,0,21,"[0, 19, 21]",3,14,"[1, 2, 4, 7, 10, 11, 15, 17, 18, 20, 22, 25, 26, 29]",144.5531699,10778,2022,10,75,9,1.001632816594558
undo,48,37,0,0,0,15,"[0, 19, 21, 15]",4,9,"[1, 2, 4, 7, 18, 20, 22, 26, 29]",129.5531699,13101,2323,5,32,9,1.0243376499143988
undo,48,37,0,0,0,20,"[0, 19, 21, 15, 20]",5,8,"[1, 2, 4, 7, 18, 22, 26, 29]",112.5531699,13836,735,5,14,9,1.250507291508492
undo,48,37,0,0,0,1,"[0, 19, 21, 15, 20, 1]",6,6,"[2, 4, 7, 18, 22, 26]",78.31868434,14945,1109,4,4,9,1.4002166443864243
undo,48,37,0,0,0,4,"[0, 19, 21, 15, 20, 1, 4]",7,2,"[2, 22]",60.5986392,15559,614,2,0,9,1.472939356650523
undo,48,37,0,0,0,2,"[0, 19, 21, 15, 20, 1, 4, 2]",8,1,[22],49.19688495,16073,514,1,0,9,1.6590570350137948
undo,48,37,0,0,1,22,"[0, 19, 21, 15, 20, 1, 4, 2, 22]",9,0,[],21.53825157,17052,979,1,0,9,1.7098673138592275
undo,48,37,1,0,0,2,"[0, 19, 21, 15, 20, 1, 4, 2]",8,1,[22],49.19688495,20055,3003,1,0,9,1.6590570350137948
undo,48,37,1,0,0,4,"[0, 19, 21, 15, 20, 1, 4]",7,2,"[2, 22]",60.5986392,20220,165,2,0,9,1.472939356650523
undo,48,37,1,0,0,1,"[0, 19, 21, 15, 20, 1]",6,6,"[2, 4, 7, 18, 22, 26]",78.31868434,20362,142,4,4,9,1.4002166443864243
undo,48,37,1,0,0,20,"[0, 19, 21, 15, 20]",5,8,"[1, 2, 4, 7, 18, 22, 26, 29]",112.5531699,20489,127,5,14,9,1.250507291508492
undo,48,37,1,0,0,15,"[0, 19, 21, 15]",4,9,"[1, 2, 4, 7, 18, 20, 22, 26, 29]",129.5531699,20778,289,5,32,9,1.0243376499143988
undo,48,37,1,0,0,21,"[0, 19, 21]",3,14,"[1, 2, 4, 7, 10, 11, 15, 17, 18, 20, 22, 25, 26, 29]",144.5531699,20929,151,10,75,9,1.001632816594558
undo,48,37,0,0,0,26,"[0, 19, 21, 26]",4,7,"[1, 2, 4, 15, 20, 25, 29]",114.8210324,22667,1738,1,7,9,1.0575441347422592
undo,48,37,0,0,0,15,"[0, 19, 21, 26, 15]",5,4,"[1, 2, 4, 20]",80.28120031,24579,1912,1,5,9,1.3204483696436145
undo,48,37,0,0,0,20,"[0, 19, 21, 26, 15, 20]",6,3,"[1, 2, 4]",63.28120031,25279,700,1,3,9,1.5792136089554665
undo,48,37,1,0,0,15,"[0, 19, 21, 26, 15]",5,4,"[1, 2, 4, 20]",80.28120031,28491,3212,1,5,9,1.3204483696436145
undo,48,37,1,0,0,26,"[0, 19, 21, 26]",4,7,"[1, 2, 4, 15, 20, 25, 29]",114.8210324,28654,163,1,7,9,1.0575441347422592
undo,48,37,1,0,0,21,"[0, 19, 21]",3,14,"[1, 2, 4, 7, 10, 11, 15, 17, 18, 20, 22, 25, 26, 29]",144.5531699,28792,138,10,75,9,1.001632816594558
undo,48,37,1,0,0,19,"[0, 19]",2,19,"[1, 2, 4, 5, 6, 7, 9, 10, 11, 15, 17, 18, 20, 21, 22, 25, 26, 28, 29]",185.6627795,29973,1181,25,244,9,1.0
undo,48,37,0,0,0,26,"[0, 19, 26]",3,9,"[1, 2, 4, 15, 20, 21, 22, 25, 29]",120.4094271,31450,1477,12,37,8,1.0256292033966232
undo,48,37,0,0,0,21,"[0, 19, 26, 21]",4,6,"[1, 2, 4, 15, 20, 22]",90.67728956,32108,658,8,18,8,1.3487859218508713
undo,48,37,0,0,0,15,"[0, 19, 26, 21, 15]",5,4,"[1, 2, 4, 20]",75.67728956,32587,479,4,7,8,1.3481165821607015
undo,48,37,0,0,0,20,"[0, 19, 26, 21, 15, 20]",6,3,"[1, 2, 4]",58.67728956,33564,977,2,2,8,1.6099275130490058
undo,48,37,0,0,0,1,"[0, 19, 26, 21, 15, 20, 1]",7,2,"[2, 4]",24.44280403,34498,934,2,0,8,1.7405155284688993
undo,48,37,0,0,1,2,"[0, 19, 26, 21, 15, 20, 1, 2]",8,0,[],7.238153493,35565,1067,1,0,8,1.9366131115805176
undo,48,37,1,0,0,1,"[0, 19, 26, 21, 15, 20, 1]",7,2,"[2, 4]",24.44280403,38307,2742,2,0,8,1.7405155284688993
undo,48,37,1,0,0,20,"[0, 19, 26, 21, 15, 20]",6,3,"[1, 2, 4]",58.67728956,38477,170,2,2,8,1.6099275130490058
undo,48,37,1,0,0,15,"[0, 19, 26, 21, 15]",5,4,"[1, 2, 4, 20]",75.67728956,38611,134,4,7,8,1.3481165821607015
undo,48,37,1,0,0,21,"[0, 19, 26, 21]",4,6,"[1, 2, 4, 15, 20, 22]",90.67728956,38740,129,8,18,8,1.3487859218508713
undo,48,37,1,0,0,26,"[0, 19, 26]",3,9,"[1, 2, 4, 15, 20, 21, 22, 25, 29]",120.4094271,38861,121,12,37,8,1.0256292033966232
undo,48,37,1,0,0,19,"[0, 19]",2,19,"[1, 2, 4, 5, 6, 7, 9, 10, 11, 15, 17, 18, 20, 21, 22, 25, 26, 28, 29]",185.6627795,39124,263,25,244,9,1.0
undo,48,37,0,0,0,21,"[0, 19, 21]",3,14,"[1, 2, 4, 7, 10, 11, 15, 17, 18, 20, 22, 25, 26, 29]",144.5531699,40868,1744,10,75,9,1.001632816594558
undo,48,37,0,0,0,20,"[0, 19, 21, 20]",4,9,"[1, 2, 4, 7, 15, 18, 22, 26, 29]",130.1309648,42476,1608,4,34,9,1.1332411810100422
undo,48,37,0,0,0,15,"[0, 19, 21, 20, 15]",5,8,"[1, 2, 4, 7, 18, 22, 26, 29]",113.1309648,43169,693,4,11,9,1.1230304972303446
undo,48,37,0,0,0,1,"[0, 19, 21, 20, 15, 1]",6,5,"[2, 4, 7, 18, 22]",73.16848237,44002,833,4,3,9,1.4327471194915349
undo,48,37,0,0,0,2,"[0, 19, 21, 20, 15, 1, 2]",7,3,"[4, 7, 22]",55.96383184,44888,886,2,1,9,1.6142938316493505
undo,48,37,0,0,0,4,"[0, 19, 21, 20, 15, 1, 2, 4]",8,1,[22],44.56207759,46139,1251,1,0,9,1.5716058080933497
undo,48,37,0,0,1,22,"[0, 19, 21, 20, 15, 1, 2, 4, 22]",9,0,[],19.56207759,47918,1779,1,0,9,1.722001818199419
undo,48,37,0,1,1,22,"[0, 19, 21, 20, 15, 1, 2, 4, 22]",9,0,[],19.56207759,50062,2144,1,0,9,1.722001818199419
undo,49,43,0,0,0,0,[0],1,23,"[1, 2, 3, 4, 5, 6, 7, 9, 10, 11, 12, 14, 15, 16, 17, 19, 20, 21, 22, 23, 25, 27, 29]",300,212,-1,16,556,12,0.0
undo,49,43,0,0,0,29,"[0, 29]",2,22,"[1, 2, 3, 4, 5, 6, 7, 9, 10, 11, 12, 14, 15, 16, 17, 19, 20, 21, 22, 23, 25, 27]",277.909278,4372,4160,16,520,12,1.0
undo,49,43,0,0,0,20,"[0, 29, 20]",3,20,"[1, 2, 3, 4, 6, 7, 9, 10, 11, 12, 14, 15, 16, 17, 19, 21, 22, 23, 25, 27]",254.4785289,5092,720,15,422,12,1.082311746871282
undo,49,43,0,0,0,16,"[0, 29, 20, 16]",4,19,"[1, 2, 3, 4, 6, 7, 9, 10, 11, 12, 14, 15, 17, 19, 21, 22, 23, 25, 27]",231.8511119,5744,652,15,389,12,1.215201926898219
undo,49,43,0,0,0,15,"[0, 29, 20, 16, 15]",5,14,"[1, 2, 3, 4, 6, 7, 9, 11, 12, 14, 19, 22, 23, 25]",188.5267539,6907,1163,3,109,12,1.3482474915350444
undo,49,43,0,0,0,25,"[0, 29, 20, 16, 15, 25]",6,12,"[1, 3, 4, 6, 7, 9, 11, 12, 14, 19, 22, 23]",165.8551858,7793,886,2,43,12,1.691408721191545
undo,49,43,0,0,0,12,"[0, 29, 20, 16, 15, 25, 12]",7,11,"[1, 3, 4, 6, 7, 9, 11, 14, 19, 22, 23]",141.6684126,8572,779,2,32,12,1.6015983641428178
undo,49,43,0,0,0,3,"[0, 29, 20, 16, 15, 25, 12, 3]",8,10,"[1, 4, 6, 7, 9, 11, 14, 19, 22, 23]",128.6684126,9072,500,2,24,12,1.5379830456120627
undo,49,43,0,0,0,22,"[0, 29, 20, 16, 15, 25, 12, 3, 22]",9,6,"[1, 6, 7, 11, 14, 19]",93.95530264,10074,1002,1,11,12,1.7275686117408873
undo,49,43,0,0,0,19,"[0, 29, 20, 16, 15, 25, 12, 3, 22, 19]",10,4,"[1, 6, 7, 11]",73.33977451,12427,2353,1,3,12,1.6315360037595275
undo,49,43,0,0,0,1,"[0, 29, 20, 16, 15, 25, 12, 3, 22, 19, 1]",11,1,[7],45.1617689,13975,1548,1,0,12,1.7703076545303877
undo,49,43,0,0,1,7,"[0, 29, 20, 16, 15, 25, 12, 3, 22, 19, 1, 7]",12,0,[],6.951822553,14964,989,1,0,12,1.6607094905815594
undo,49,43,0,1,1,7,"[0, 29, 20, 16, 15, 25, 12, 3, 22, 19, 1, 7]",12,0,[],6.951822553,16108,1144,1,0,12,1.6607094905815594
undo,50,14,0,0,0,0,[0],1,29,"[1, 2, 3, 4, 5, 6, 7, 8, 9, 10, 11, 12, 13, 14, 15, 16, 17, 18, 19, 20, 21, 22, 23, 24, 25, 26, 27, 28, 29]",300,375,-1,8,157,10,0.0
undo,50,14,0,0,0,18,"[0, 18]",2,17,"[1, 2, 3, 4, 7, 8, 9, 13, 15, 17, 19, 20, 22, 23, 25, 26, 28]",179.8958785,6984,6609,18,136,9,1.0
undo,50,14,0,0,0,8,"[0, 18, 8]",3,13,"[1, 2, 4, 7, 13, 15, 17, 19, 20, 23, 25, 26, 28]",166.294408,7560,576,18,99,9,1.0203858410107731
undo,50,14,0,0,0,19,"[0, 18, 8, 19]",4,10,"[1, 2, 4, 7, 15, 17, 23, 25, 26, 28]",145.6788799,8570,1010,7,52,9,1.0436397834807676
undo,50,14,0,0,0,1,"[0, 18, 8, 19, 1]",5,9,"[2, 4, 7, 15, 17, 23, 25, 26, 28]",130.4473337,9154,584,7,21,9,1.096538583531719
undo,50,14,0,0,0,26,"[0, 18, 8, 19, 1, 26]",6,4,"[4, 7, 23, 25]",75.70247088,10303,1149,2,4,9,1.1305399427709442
undo,50,14,0,0,0,23,"[0, 18, 8, 19, 1, 26, 23]",7,3,"[4, 7, 25]",64.88581706,10973,670,2,1,9,1.2508020127641972
undo,50,14,0,0,0,25,"[0, 18, 8, 19, 1, 26, 23, 25]",8,1,[7],35.47493472,11765,792,1,0,9,1.6160852369336203
undo,50,14,0,0,1,7,"[0, 18, 8, 19, 1, 26, 23, 25, 7]",9,0,[],15.77721911,12599,834,1,0,9,1.6274549091166954
undo,50,14,0,1,1,7,"[0, 18, 8, 19, 1, 26, 23, 25, 7]",9,0,[],15.77721911,15693,3094,1,0,9,1.6274549091166954
undo,51,2,0,0,0,0,[0],1,23,"[1, 2, 4, 5, 6, 7, 8, 9, 12, 13, 15, 16, 17, 18, 19, 20, 22, 23, 25, 26, 27, 28, 29]",300,429,-1,70,620,10,0.0
undo,51,2,0,0,0,12,"[0, 12]",2,19,"[1, 2, 4, 5, 6, 7, 13, 15, 16, 17, 18, 19, 20, 22, 25, 26, 27, 28, 29]",186.8275652,4000,3571,3,169,10,1.0
undo,51,2,0,0,0,5,"[0, 12, 5]",3,14,"[1, 4, 6, 7, 13, 15, 16, 18, 19, 22, 25, 26, 28, 29]",157.2979191,4830,830,2,88,10,1.0082498134695237
undo,51,2,0,0,0,22,"[0, 12, 5, 22]",4,11,"[1, 6, 7, 13, 15, 18, 19, 25, 26, 28, 29]",144.4916706,5848,1018,1,45,10,1.0077567572950326
undo,51,2,0,0,0,13,"[0, 12, 5, 22, 13]",5,9,"[1, 6, 7, 15, 18, 19, 25, 26, 29]",129.6256019,6572,724,1,39,10,1.151783231594989
undo,51,2,0,0,0,18,"[0, 12, 5, 22, 13, 18]",6,4,"[7, 15, 26, 29]",94.45459106,8428,1856,1,14,10,1.1431544953850095
undo,51,2,0,0,0,7,"[0, 12, 5, 22, 13, 18, 7]",7,3,"[15, 26, 29]",84.15896092,8742,314,1,4,10,1.1360054688421053
undo,51,2,0,0,0,26,"[0, 12, 5, 22, 13, 18, 7, 26]",8,2,"[15, 29]",61.35545242,9307,565,1,1,10,1.1290531198668372
undo,51,2,0,0,0,15,"[0, 12, 5, 22, 13, 18, 7, 26, 15]",9,1,[29],37.14801554,9900,593,1,0,10,1.395427297339814
undo,51,2,0,0,1,29,"[0, 12, 5, 22, 13, 18, 7, 26, 15, 29]",10,0,[],8.687516603,10565,665,1,0,10,1.5868802136739162
undo,51,2,0,1,1,29,"[0, 12, 5, 22, 13, 18, 7, 26, 15, 29]",10,0,[],8.687516603,11998,1433,1,0,10,1.5868802136739162
undo,52,17,0,0,0,0,[0],1,28,"[1, 2, 3, 4, 5, 6, 7, 8, 9, 10, 11, 12, 13, 14, 15, 16, 17, 18, 19, 20, 22, 23, 24, 25, 26, 27, 28, 29]",300,145,-1,2,73,8,0.0
undo,52,17,0,0,0,9,"[0, 9]",2,25,"[1, 2, 3, 5, 6, 7, 8, 10, 11, 12, 14, 15, 16, 17, 18, 19, 20, 22, 23, 24, 25, 26, 27, 28, 29]",210.5293344,6858,6713,1,34,8,1.0
undo,52,17,0,0,0,16,"[0, 9, 16]",3,21,"[1, 2, 3, 5, 7, 8, 10, 11, 12, 14, 17, 18, 19, 20, 22, 23, 25, 26, 27, 28, 29]",197.1876704,7312,454,1,26,8,1.173103464220352
undo,52,17,0,0,0,2,"[0, 9, 16, 2]",4,18,"[1, 3, 5, 7, 8, 10, 11, 12, 14, 17, 18, 19, 23, 25, 26, 27, 28, 29]",181.0631549,7880,568,1,23,8,1.14825089247282
undo,52,17,0,0,0,17,"[0, 9, 16, 2, 17]",5,7,"[7, 8, 12, 14, 26, 27, 29]",142.7356191,9002,1122,4,5,7,1.4896040699768547
undo,52,17,0,0,0,8,"[0, 9, 16, 2, 17, 8]",6,3,"[7, 12, 27]",104.5256727,9581,579,3,0,7,1.4604726966175894
undo,52,17,0,0,1,7,"[0, 9, 16, 2, 17, 8, 7]",7,0,[],33.81499459,10706,1125,1,0,7,1.4474701869793896
undo,52,17,1,0,0,8,"[0, 9, 16, 2, 17, 8]",6,3,"[7, 12, 27]",104.5256727,15118,4412,3,0,7,1.4604726966175894
undo,52,17,1,0,0,17,"[0, 9, 16, 2, 17]",5,7,"[7, 8, 12, 14, 26, 27, 29]",142.7356191,15255,137,4,5,7,1.4896040699768547
undo,52,17,1,0,0,2,"[0, 9, 16, 2]",4,18,"[1, 3, 5, 7, 8, 10, 11, 12, 14, 17, 18, 19, 23, 25, 26, 27, 28, 29]",181.0631549,15398,143,1,23,8,1.14825089247282
undo,52,17,1,0,0,16,"[0, 9, 16]",3,21,"[1, 2, 3, 5, 7, 8, 10, 11, 12, 14, 17, 18, 19, 20, 22, 23, 25, 26, 27, 28, 29]",197.1876704,15647,249,1,26,8,1.173103464220352
undo,52,17,1,0,0,9,"[0, 9]",2,25,"[1, 2, 3, 5, 6, 7, 8, 10, 11, 12, 14, 15, 16, 17, 18, 19, 20, 22, 23, 24, 25, 26, 27, 28, 29]",210.5293344,16142,495,1,34,8,1.0
undo,52,17,1,0,0,0,[0],1,28,"[1, 2, 3, 4, 5, 6, 7, 8, 9, 10, 11, 12, 13, 14, 15, 16, 17, 18, 19, 20, 22, 23, 24, 25, 26, 27, 28, 29]",300,16510,368,2,73,8,0.0
undo,52,17,0,0,0,9,"[0, 9]",2,25,"[1, 2, 3, 5, 6, 7, 8, 10, 11, 12, 14, 15, 16, 17, 18, 19, 20, 22, 23, 24, 25, 26, 27, 28, 29]",210.5293344,20948,4438,1,34,8,1.0
undo,52,17,0,0,0,16,"[0, 9, 16]",3,21,"[1, 2, 3, 5, 7, 8, 10, 11, 12, 14, 17, 18, 19, 20, 22, 23, 25, 26, 27, 28, 29]",197.1876704,21377,429,1,26,8,1.173103464220352
undo,52,17,0,0,0,2,"[0, 9, 16, 2]",4,18,"[1, 3, 5, 7, 8, 10, 11, 12, 14, 17, 18, 19, 23, 25, 26, 27, 28, 29]",181.0631549,21729,352,1,23,8,1.14825089247282
undo,52,17,0,0,0,8,"[0, 9, 16, 2, 8]",5,9,"[3, 7, 10, 11, 12, 14, 17, 26, 27]",145.9490551,24445,2716,1,9,8,1.1509808066472915
undo,52,17,0,0,0,7,"[0, 9, 16, 2, 8, 7]",6,3,"[10, 12, 27]",75.238377,25335,890,3,0,7,1.2222166608088694
undo,52,17,0,0,1,27,"[0, 9, 16, 2, 8, 7, 27]",7,0,[],21.63800387,26348,1013,1,0,7,1.2961096752539074
undo,52,17,0,1,1,27,"[0, 9, 16, 2, 8, 7, 27]",7,0,[],21.63800387,27930,1582,1,0,7,1.2961096752539074
undo,53,39,0,0,0,0,[0],1,28,"[1, 2, 3, 4, 5, 6, 7, 9, 10, 11, 12, 13, 14, 15, 16, 17, 18, 19, 20, 21, 22, 23, 24, 25, 26, 27, 28, 29]",300,506,-1,1,30,10,0.0
undo,53,39,0,0,0,29,"[0, 29]",2,26,"[1, 2, 3, 4, 5, 6, 7, 9, 10, 12, 13, 14, 15, 16, 17, 18, 19, 20, 21, 22, 23, 24, 25, 26, 27, 28]",243.0614366,2516,2010,8,104,9,1.0
undo,53,39,0,0,0,12,"[0, 29, 12]",3,18,"[1, 2, 4, 5, 7, 9, 10, 13, 14, 15, 16, 18, 19, 22, 23, 24, 26, 28]",182.5221931,3437,921,5,54,9,1.0026200331524904
undo,53,39,0,0,0,10,"[0, 29, 12, 10]",4,16,"[1, 2, 4, 5, 7, 9, 13, 14, 15, 16, 18, 19, 22, 23, 24, 26]",147.0116313,4289,852,5,34,9,1.2874817019928908
undo,53,39,0,0,0,7,"[0, 29, 12, 10, 7]",5,10,"[1, 2, 5, 13, 16, 18, 19, 22, 24, 26]",113.5900814,5145,856,4,12,9,1.2250826263866774
undo,53,39,0,0,0,26,"[0, 29, 12, 10, 7, 26]",6,5,"[1, 16, 18, 19, 22]",94.90853971,5648,503,3,4,9,1.2697275353190085
undo,53,39,0,0,0,22,"[0, 29, 12, 10, 7, 26, 22]",7,2,"[16, 19]",77.18849457,6785,1137,2,0,9,1.438961743955176
undo,53,39,0,0,0,16,"[0, 29, 12, 10, 7, 26, 22, 16]",8,1,[19],42.18849457,7742,957,1,0,9,1.3580882130477205
undo,53,39,0,0,1,19,"[0, 29, 12, 10, 7, 26, 22, 16, 19]",9,0,[],24.72424537,8187,445,1,0,9,1.3646589157842668
undo,53,39,0,1,1,19,"[0, 29, 12, 10, 7, 26, 22, 16, 19]",9,0,[],24.72424537,8938,751,1,0,9,1.3646589157842668
undo,54,42,0,0,0,0,[0],1,29,"[1, 2, 3, 4, 5, 6, 7, 8, 9, 10, 11, 12, 13, 14, 15, 16, 17, 18, 19, 20, 21, 22, 23, 24, 25, 26, 27, 28, 29]",300,218,-1,16,302,9,0.0
undo,54,42,0,0,0,3,"[0, 3]",2,25,"[1, 2, 4, 5, 6, 7, 8, 9, 10, 11, 13, 15, 17, 18, 19, 20, 21, 22, 23, 24, 25, 26, 27, 28, 29]",255.7959278,3553,3335,3,45,9,1.0
undo,54,42,1,0,0,0,[0],1,29,"[1, 2, 3, 4, 5, 6, 7, 8, 9, 10, 11, 12, 13, 14, 15, 16, 17, 18, 19, 20, 21, 22, 23, 24, 25, 26, 27, 28, 29]",300,7170,3617,16,302,9,0.0
undo,54,42,0,0,0,5,"[0, 5]",2,28,"[1, 2, 3, 4, 6, 7, 8, 9, 10, 11, 12, 13, 14, 15, 16, 17, 18, 19, 20, 21, 22, 23, 24, 25, 26, 27, 28, 29]",191.2939744,9767,2597,1,22,9,1.0
undo,54,42,0,0,0,4,"[0, 5, 4]",3,23,"[1, 2, 3, 6, 7, 8, 9, 10, 11, 13, 15, 17, 18, 19, 20, 21, 22, 23, 24, 25, 26, 27, 29]",171.4445412,10521,754,1,14,9,1.420957801478707
undo,54,42,0,0,0,22,"[0, 5, 4, 22]",4,20,"[1, 2, 3, 6, 7, 8, 9, 11, 15, 17, 18, 19, 20, 21, 23, 24, 25, 26, 27, 29]",160.2642013,11158,637,1,11,9,1.5771494659680896
undo,54,42,0,0,0,8,"[0, 5, 4, 22, 8]",5,14,"[1, 2, 3, 6, 7, 11, 15, 18, 19, 24, 25, 26, 27, 29]",138.1282577,12980,1822,1,10,9,1.5055393955524201
undo,54,42,0,0,0,1,"[0, 5, 4, 22, 8, 1]",6,5,"[2, 7, 19, 26, 27]",89.03650682,13941,961,1,7,9,1.3547259083637835
undo,54,42,0,0,0,27,"[0, 5, 4, 22, 8, 1, 27]",7,1,[26],30.82138851,15072,1131,1,0,8,1.262358902428909
undo,54,42,0,0,1,26,"[0, 5, 4, 22, 8, 1, 27, 26]",8,0,[],12.79363213,15817,745,1,0,8,1.4505372114646464
undo,54,42,0,1,1,26,"[0, 5, 4, 22, 8, 1, 27, 26]",8,0,[],12.79363213,16822,1005,1,0,8,1.4505372114646464
undo,55,13,0,0,0,0,[0],1,29,"[1, 2, 3, 4, 5, 6, 7, 8, 9, 10, 11, 12, 13, 14, 15, 16, 17, 18, 19, 20, 21, 22, 23, 24, 25, 26, 27, 28, 29]",300,388,-1,60,2676,11,0.0
undo,55,13,0,0,0,24,"[0, 24]",2,28,"[1, 2, 3, 4, 5, 6, 7, 8, 9, 10, 11, 12, 13, 14, 15, 16, 17, 18, 19, 20, 21, 22, 23, 25, 26, 27, 28, 29]",288.8196601,2391,2003,16,1444,11,1.0
undo,55,13,0,0,0,23,"[0, 24, 23]",3,27,"[1, 2, 3, 4, 5, 6, 7, 8, 9, 10, 11, 12, 13, 14, 15, 16, 17, 18, 19, 20, 21, 22, 25, 26, 27, 28, 29]",243.1140806,4076,1685,2,868,11,1.0065545717039834
undo,55,13,0,0,0,28,"[0, 24, 23, 28]",4,21,"[1, 2, 3, 4, 6, 7, 9, 10, 11, 12, 13, 15, 16, 17, 19, 20, 21, 22, 26, 27, 29]",177.7458926,5623,1547,1,253,11,1.6592183354372274
undo,55,13,0,0,0,2,"[0, 24, 23, 28, 2]",5,15,"[1, 3, 6, 7, 9, 11, 12, 13, 15, 16, 17, 19, 21, 26, 29]",140.1028322,7518,1895,1,80,11,1.459046951791535
undo,55,13,0,0,0,29,"[0, 24, 23, 28, 2, 29]",6,9,"[1, 6, 7, 11, 13, 16, 17, 19, 26]",128.3981322,8035,517,1,31,11,1.5417142413159963
undo,55,13,0,0,0,7,"[0, 24, 23, 28, 2, 29, 7]",7,8,"[1, 6, 11, 13, 16, 17, 19, 26]",113.1337947,9275,1240,1,10,11,1.77525557938341
undo,55,13,0,0,0,26,"[0, 24, 23, 28, 2, 29, 7, 26]",8,6,"[1, 6, 11, 13, 16, 19]",102.6934882,9783,508,1,4,11,2.0623372568692724
undo,55,13,0,0,0,6,"[0, 24, 23, 28, 2, 29, 7, 26, 6]",9,3,"[11, 13, 16]",82.59373697,10747,964,1,2,11,2.002320377701536
undo,55,13,0,0,0,11,"[0, 24, 23, 28, 2, 29, 7, 26, 6, 11]",10,1,[13],63.48876379,11995,1248,1,0,11,1.8540921292495773
undo,55,13,0,0,1,13,"[0, 24, 23, 28, 2, 29, 7, 26, 6, 11, 13]",11,0,[],7.408464223,13118,1123,1,0,11,1.6123988786574368
undo,55,13,0,1,1,13,"[0, 24, 23, 28, 2, 29, 7, 26, 6, 11, 13]",11,0,[],7.408464223,14138,1020,1,0,11,1.6123988786574368
undo,56,35,0,0,0,0,[0],1,29,"[1, 2, 3, 4, 5, 6, 7, 8, 9, 10, 11, 12, 13, 14, 15, 16, 17, 18, 19, 20, 21, 22, 23, 24, 25, 26, 27, 28, 29]",300,381,-1,5,236,11,0.0
undo,56,35,0,0,0,27,"[0, 27]",2,27,"[1, 2, 4, 5, 6, 7, 8, 9, 10, 11, 12, 13, 14, 15, 16, 17, 18, 19, 20, 21, 22, 23, 24, 25, 26, 28, 29]",278.7867966,2989,2608,5,144,11,1.0
undo,56,35,0,0,0,28,"[0, 27, 28]",3,18,"[1, 2, 5, 6, 7, 9, 10, 13, 15, 16, 17, 18, 19, 21, 23, 24, 25, 26]",240.707931,3683,694,4,100,10,1.0168505943672008
undo,56,35,0,0,0,19,"[0, 27, 28, 19]",4,14,"[1, 2, 5, 6, 9, 10, 15, 17, 18, 21, 23, 24, 25, 26]",191.7896318,4821,1138,11,75,9,1.3148564374305836
undo,56,35,0,0,0,24,"[0, 27, 28, 19, 24]",5,9,"[1, 2, 5, 9, 15, 17, 18, 23, 26]",117.4592881,5706,885,3,20,9,5.8853487613374895
undo,56,35,0,0,0,17,"[0, 27, 28, 19, 24, 17]",6,6,"[1, 5, 9, 15, 18, 23]",105.7545882,6257,551,3,8,9,4.897634910968656
undo,56,35,0,0,0,1,"[0, 27, 28, 19, 24, 17, 1]",7,5,"[5, 9, 15, 18, 23]",89.94319985,7765,1508,3,3,9,4.394339868933799
undo,56,35,0,0,0,15,"[0, 27, 28, 19, 24, 17, 1, 15]",8,2,"[5, 23]",67.09588053,8519,754,2,0,9,4.190522877836577
undo,56,35,1,0,0,1,"[0, 27, 28, 19, 24, 17, 1]",7,5,"[5, 9, 15, 18, 23]",89.94319985,11787,3268,3,3,9,4.394339868933799
undo,56,35,1,0,0,17,"[0, 27, 28, 19, 24, 17]",6,6,"[1, 5, 9, 15, 18, 23]",105.7545882,11920,133,3,8,9,4.897634910968656
undo,56,35,1,0,0,24,"[0, 27, 28, 19, 24]",5,9,"[1, 2, 5, 9, 15, 17, 18, 23, 26]",117.4592881,12057,137,3,20,9,5.8853487613374895
undo,56,35,1,0,0,19,"[0, 27, 28, 19]",4,14,"[1, 2, 5, 6, 9, 10, 15, 17, 18, 21, 23, 24, 25, 26]",191.7896318,12205,148,11,75,9,1.3148564374305836
undo,56,35,1,0,0,28,"[0, 27, 28]",3,18,"[1, 2, 5, 6, 7, 9, 10, 13, 15, 16, 17, 18, 19, 21, 23, 24, 25, 26]",240.707931,12372,167,4,100,10,1.0168505943672008
undo,56,35,1,0,0,27,"[0, 27]",2,27,"[1, 2, 4, 5, 6, 7, 8, 9, 10, 11, 12, 13, 14, 15, 16, 17, 18, 19, 20, 21, 22, 23, 24, 25, 26, 28, 29]",278.7867966,12713,341,5,144,11,1.0
undo,56,35,0,0,0,24,"[0, 27, 24]",3,25,"[1, 2, 4, 5, 6, 7, 8, 9, 10, 11, 12, 13, 15, 16, 17, 18, 19, 20, 21, 22, 23, 25, 26, 28, 29]",234.6053525,14661,1948,3,80,11,2.1084080567904624
undo,56,35,0,0,0,17,"[0, 27, 24, 17]",4,20,"[1, 2, 4, 5, 6, 7, 8, 9, 10, 15, 16, 18, 19, 20, 21, 23, 25, 26, 28, 29]",222.9006526,15283,622,3,50,11,1.9439555968916868
undo,56,35,0,0,0,1,"[0, 27, 24, 17, 1]",5,18,"[2, 4, 5, 6, 8, 9, 10, 15, 16, 18, 19, 20, 21, 23, 25, 26, 28, 29]",207.0892643,15678,395,3,39,11,1.9436711872547336
undo,56,35,0,0,0,15,"[0, 27, 24, 17, 1, 15]",6,16,"[2, 4, 5, 6, 8, 9, 10, 16, 18, 19, 20, 23, 25, 26, 28, 29]",184.241945,17776,2098,3,24,11,2.082774572108194
undo,56,35,0,0,0,23,"[0, 27, 24, 17, 1, 15, 23]",7,7,"[5, 6, 9, 18, 19, 25, 26]",123.801892,18805,1029,3,14,11,1.657239080954205
undo,56,35,0,0,0,9,"[0, 27, 24, 17, 1, 15, 23, 9]",8,4,"[6, 18, 19, 25]",86.15883157,19580,775,2,2,11,1.9022575917054987
undo,56,35,0,0,0,18,"[0, 27, 24, 17, 1, 15, 23, 9, 18]",9,2,"[6, 25]",66.13384718,20347,767,2,0,11,1.8181129550839106
undo,56,35,0,0,0,25,"[0, 27, 24, 17, 1, 15, 23, 9, 18, 25]",10,1,[6],32.29599855,21408,1061,1,0,11,1.6530923432245144
undo,56,35,0,0,1,6,"[0, 27, 24, 17, 1, 15, 23, 9, 18, 25, 6]",11,0,[],8.275174247,22755,1347,1,0,11,1.9291202388527962
undo,56,35,0,1,1,6,"[0, 27, 24, 17, 1, 15, 23, 9, 18, 25, 6]",11,0,[],8.275174247,24021,1266,1,0,11,1.9291202388527962
undo,57,8,0,0,0,0,[0],1,29,"[1, 2, 3, 4, 5, 6, 7, 8, 9, 10, 11, 12, 13, 14, 15, 16, 17, 18, 19, 20, 21, 22, 23, 24, 25, 26, 27, 28, 29]",300,534,-1,10,149,9,0.0
undo,57,8,0,0,0,5,"[0, 5]",2,28,"[1, 2, 3, 4, 6, 7, 8, 9, 10, 11, 12, 13, 14, 15, 16, 17, 18, 19, 20, 21, 22, 23, 24, 25, 26, 27, 28, 29]",254.5137383,6767,6233,10,100,9,1.0
undo,57,8,0,0,0,25,"[0, 5, 25]",3,20,"[1, 2, 3, 4, 6, 11, 12, 14, 15, 16, 17, 18, 19, 20, 21, 22, 23, 24, 28, 29]",215.3091468,8246,1479,4,42,9,1.2272747879909065
undo,57,8,0,0,0,14,"[0, 5, 25, 14]",4,16,"[1, 3, 4, 6, 11, 15, 16, 17, 18, 19, 20, 21, 22, 23, 24, 28]",170.2092576,10038,1792,1,13,9,1.5190857385933465
undo,57,8,0,0,0,17,"[0, 5, 25, 14, 17]",5,9,"[1, 4, 11, 15, 16, 18, 23, 24, 28]",133.1957466,10842,804,1,9,9,1.5271682935559303
undo,57,8,0,0,0,11,"[0, 5, 25, 14, 17, 11]",6,5,"[15, 16, 18, 24, 28]",108.01639,11925,1083,1,6,9,1.4664212485560129
undo,57,8,0,0,0,24,"[0, 5, 25, 14, 17, 11, 24]",7,2,"[15, 16]",70.80080183,12741,816,1,1,9,1.3920548417170795
undo,57,8,0,0,0,15,"[0, 5, 25, 14, 17, 11, 24, 15]",8,1,[16],54.03774722,13429,688,1,0,9,1.4585932832823736
undo,57,8,0,0,1,16,"[0, 5, 25, 14, 17, 11, 24, 15, 16]",9,0,[],2.959376062,16788,3359,1,0,9,1.6043130175078746
undo,57,8,0,1,1,16,"[0, 5, 25, 14, 17, 11, 24, 15, 16]",9,0,[],2.959376062,18406,1618,1,0,9,1.6043130175078746
undo,58,6,0,0,0,0,[0],1,29,"[1, 2, 3, 4, 5, 6, 7, 8, 9, 10, 11, 12, 13, 14, 15, 16, 17, 18, 19, 20, 21, 22, 23, 24, 25, 26, 27, 28, 29]",300,377,-1,180,4304,10,0.0
undo,58,6,0,0,0,26,"[0, 26]",2,25,"[1, 2, 3, 4, 5, 6, 7, 8, 9, 10, 11, 12, 13, 14, 15, 16, 17, 18, 20, 21, 22, 23, 24, 27, 29]",250.2606795,4727,4350,45,776,10,1.0
undo,58,6,0,0,0,7,"[0, 26, 7]",3,24,"[1, 2, 3, 4, 5, 6, 8, 9, 10, 11, 12, 13, 14, 15, 16, 17, 18, 20, 21, 22, 23, 24, 27, 29]",226.1774904,5704,977,25,520,10,1.5373018630243536
undo,58,6,0,0,0,3,"[0, 26, 7, 3]",4,22,"[1, 2, 4, 6, 8, 9, 10, 11, 12, 13, 14, 15, 16, 17, 18, 20, 21, 22, 23, 24, 27, 29]",190.0388684,6673,969,20,235,10,3.2798655773210936
