condition,trial_id,map_id,undoIndicator,submit,checkEnd,currentChoice,chosen_all,n_city_all,n_within_reach,cities_reach,currentBudget,time_all,rt_all,n_opt_paths_all,n_subopt_paths_all,mas_all,tortuosity_all
undo,0,20,0,0,0,0,[0],1,21,"[1, 2, 3, 4, 5, 6, 7, 8, 9, 12, 17, 18, 20, 21, 22, 23, 25, 26, 27, 28, 29]",300,157,-1,1,9,9,0.0
undo,0,20,0,0,0,12,"[0, 12]",2,20,"[1, 2, 3, 4, 5, 6, 7, 8, 9, 17, 18, 20, 21, 22, 23, 25, 26, 27, 28, 29]",271.5570747,7815,7658,1,8,9,1.0
undo,0,20,0,0,0,1,"[0, 12, 1]",3,12,"[3, 4, 5, 6, 8, 9, 20, 21, 23, 27, 28, 29]",189.5692707,8552,737,1,6,9,1.0757997779162911
undo,0,20,0,0,0,5,"[0, 12, 1, 5]",4,10,"[4, 6, 8, 9, 20, 21, 23, 27, 28, 29]",152.8950291,9381,829,1,5,9,1.1708231454516806
undo,0,20,0,0,0,21,"[0, 12, 1, 5, 21]",5,8,"[4, 6, 8, 9, 20, 23, 27, 28]",107.8950291,10495,1114,1,4,9,1.126197336199212
undo,0,20,0,0,0,8,"[0, 12, 1, 5, 21, 8]",6,5,"[6, 9, 23, 27, 28]",90.43077988,12194,1699,1,3,9,1.140007470699913
undo,0,20,0,0,0,23,"[0, 12, 1, 5, 21, 8, 23]",7,2,"[6, 9]",45.74297394,13054,860,1,1,9,1.1162257896627588
undo,0,20,0,0,0,9,"[0, 12, 1, 5, 21, 8, 23, 9]",8,1,[6],26.53360123,13770,716,1,0,9,1.1086880559449597
undo,0,20,0,0,1,6,"[0, 12, 1, 5, 21, 8, 23, 9, 6]",9,0,[],3.511872362,14777,1007,1,0,9,1.1186240265999328
undo,0,20,0,1,1,6,"[0, 12, 1, 5, 21, 8, 23, 9, 6]",9,0,[],3.511872362,17419,2642,1,0,9,1.1186240265999328
undo,1,36,0,0,0,0,[0],1,24,"[2, 4, 5, 6, 7, 8, 9, 10, 12, 13, 14, 15, 16, 17, 18, 19, 20, 22, 23, 25, 26, 27, 28, 29]",300,165,-1,2,200,10,0.0
undo,1,36,0,0,0,12,"[0, 12]",2,23,"[2, 4, 5, 6, 7, 8, 9, 10, 13, 14, 15, 16, 17, 18, 19, 20, 22, 23, 25, 26, 27, 28, 29]",277.7963967,3560,3395,90,804,9,1.0
undo,1,36,0,0,0,9,"[0, 12, 9]",3,14,"[2, 4, 8, 10, 13, 16, 17, 18, 19, 23, 25, 27, 28, 29]",215.4345494,5087,1527,32,191,9,1.224429481246385
undo,1,36,0,0,0,16,"[0, 12, 9, 16]",4,8,"[2, 10, 13, 17, 18, 19, 23, 25]",168.137615,6330,1243,7,26,9,1.235383731443557
undo,1,36,0,0,0,17,"[0, 12, 9, 16, 17]",5,6,"[2, 10, 13, 18, 19, 25]",139.8180105,6903,573,7,14,9,1.6947865799475665
undo,1,36,0,0,0,19,"[0, 12, 9, 16, 17, 19]",6,5,"[2, 10, 13, 18, 25]",111.9253591,7675,772,6,1,9,2.440059772477113
undo,1,36,0,0,0,13,"[0, 12, 9, 16, 17, 19, 13]",7,2,"[2, 25]",68.50877245,8573,898,2,0,9,2.3601901953162883
undo,1,36,0,0,0,2,"[0, 12, 9, 16, 17, 19, 13, 2]",8,1,[25],30.18123665,10548,1975,1,0,9,2.3892740576750175
undo,1,36,0,0,1,25,"[0, 12, 9, 16, 17, 19, 13, 2, 25]",9,0,[],5.181236652,11536,988,1,0,9,2.5750573381252297
undo,1,36,0,1,1,25,"[0, 12, 9, 16, 17, 19, 13, 2, 25]",9,0,[],5.181236652,13278,1742,1,0,9,2.5750573381252297
undo,2,4,0,0,0,0,[0],1,26,"[3, 4, 5, 6, 7, 8, 10, 11, 12, 13, 14, 15, 16, 17, 18, 19, 20, 21, 22, 23, 24, 25, 26, 27, 28, 29]",300,149,-1,4,489,10,0.0
undo,2,4,0,0,0,13,"[0, 13]",2,23,"[3, 4, 5, 6, 7, 10, 11, 12, 14, 15, 16, 17, 19, 20, 21, 22, 23, 24, 25, 26, 27, 28, 29]",232.1030192,5512,5363,2,270,10,1.0
undo,2,4,0,0,0,28,"[0, 13, 28]",3,19,"[3, 4, 5, 6, 10, 11, 12, 14, 15, 16, 17, 19, 20, 21, 22, 23, 24, 25, 26]",200.5277124,6723,1211,2,221,10,1.3431168257921573
undo,2,4,0,0,0,14,"[0, 13, 28, 14]",4,11,"[3, 4, 5, 6, 11, 16, 17, 20, 21, 22, 25]",134.2857318,8522,1799,28,123,9,1.2134786195381546
undo,2,4,0,0,0,25,"[0, 13, 28, 14, 25]",5,10,"[3, 4, 5, 6, 11, 16, 17, 20, 21, 22]",118.1612163,9254,732,22,51,9,1.4339367384350254
undo,2,4,0,0,0,11,"[0, 13, 28, 14, 25, 11]",6,9,"[3, 4, 5, 6, 16, 17, 20, 21, 22]",99.37292203,9896,642,11,18,9,1.632788140935394
undo,2,4,0,0,0,16,"[0, 13, 28, 14, 25, 11, 16]",7,6,"[3, 5, 17, 20, 21, 22]",84.37292203,11088,1192,9,2,9,1.5642820747024264
undo,2,4,0,0,0,3,"[0, 13, 28, 14, 25, 11, 16, 3]",8,1,[17],42.74360544,12289,1201,1,0,9,1.474981502263249
undo,2,4,0,0,1,17,"[0, 13, 28, 14, 25, 11, 16, 3, 17]",9,0,[],18.2283041,13736,1447,1,0,9,1.718983128597651
undo,2,4,1,0,0,3,"[0, 13, 28, 14, 25, 11, 16, 3]",8,1,[17],42.74360544,16845,3109,1,0,9,1.474981502263249
undo,2,4,1,0,0,16,"[0, 13, 28, 14, 25, 11, 16]",7,6,"[3, 5, 17, 20, 21, 22]",84.37292203,17095,250,9,2,9,1.5642820747024264
undo,2,4,1,0,0,11,"[0, 13, 28, 14, 25, 11]",6,9,"[3, 4, 5, 6, 16, 17, 20, 21, 22]",99.37292203,17329,234,11,18,9,1.632788140935394
undo,2,4,1,0,0,25,"[0, 13, 28, 14, 25]",5,10,"[3, 4, 5, 6, 11, 16, 17, 20, 21, 22]",118.1612163,17511,182,22,51,9,1.4339367384350254
undo,2,4,1,0,0,14,"[0, 13, 28, 14]",4,11,"[3, 4, 5, 6, 11, 16, 17, 20, 21, 22, 25]",134.2857318,17828,317,28,123,9,1.2134786195381546
undo,2,4,1,0,0,28,"[0, 13, 28]",3,19,"[3, 4, 5, 6, 10, 11, 12, 14, 15, 16, 17, 19, 20, 21, 22, 23, 24, 25, 26]",200.5277124,19327,1499,2,221,10,1.3431168257921573
undo,2,4,1,0,0,13,"[0, 13]",2,23,"[3, 4, 5, 6, 7, 10, 11, 12, 14, 15, 16, 17, 19, 20, 21, 22, 23, 24, 25, 26, 27, 28, 29]",232.1030192,19494,167,2,270,10,1.0
undo,2,4,0,0,0,14,"[0, 13, 14]",3,12,"[3, 4, 5, 6, 11, 16, 17, 20, 21, 22, 25, 28]",139.3830106,25001,5507,3,42,9,1.176152691548901
undo,2,4,0,0,0,25,"[0, 13, 14, 25]",4,11,"[3, 4, 5, 6, 11, 16, 17, 20, 21, 22, 28]",123.2584951,25999,998,3,28,9,1.393740828692114
undo,2,4,0,0,0,11,"[0, 13, 14, 25, 11]",5,10,"[3, 4, 5, 6, 16, 17, 20, 21, 22, 28]",104.4702009,26500,501,3,12,9,1.5913043264164928
undo,2,4,0,0,0,16,"[0, 13, 14, 25, 11, 16]",6,7,"[3, 5, 17, 20, 21, 22, 28]",89.47020086,27017,517,3,8,9,1.5273035004964608
undo,2,4,0,0,0,3,"[0, 13, 14, 25, 11, 16, 3]",7,1,[17],47.84088427,27762,745,1,0,8,1.4457562151756835
undo,2,4,1,0,0,16,"[0, 13, 14, 25, 11, 16]",6,7,"[3, 5, 17, 20, 21, 22, 28]",89.47020086,29875,2113,3,8,9,1.5273035004964608
undo,2,4,0,0,0,17,"[0, 13, 14, 25, 11, 16, 17]",7,4,"[3, 20, 21, 22]",63.39339124,30563,688,2,2,9,1.4434479207503152
undo,2,4,1,0,0,16,"[0, 13, 14, 25, 11, 16]",6,7,"[3, 5, 17, 20, 21, 22, 28]",89.47020086,32108,1545,3,8,9,1.5273035004964608
undo,2,4,0,0,0,21,"[0, 13, 14, 25, 11, 16, 21]",7,2,"[20, 22]",45.26612865,32933,825,1,1,9,1.7234975539293562
undo,2,4,0,0,0,22,"[0, 13, 14, 25, 11, 16, 21, 22]",8,1,[20],34.22076763,35096,2163,1,0,9,1.675149433645299
undo,2,4,0,0,1,20,"[0, 13, 14, 25, 11, 16, 21, 22, 20]",9,0,[],3.988334717,36385,1289,1,0,9,1.6199705524612906
undo,2,4,0,1,1,20,"[0, 13, 14, 25, 11, 16, 21, 22, 20]",9,0,[],3.988334717,39971,3586,1,0,9,1.6199705524612906
undo,3,34,0,0,0,0,[0],1,25,"[1, 3, 4, 5, 6, 7, 8, 9, 10, 11, 12, 13, 15, 18, 19, 20, 21, 22, 23, 24, 25, 26, 27, 28, 29]",300,162,-1,12,367,10,0.0
undo,3,34,0,0,0,13,"[0, 13]",2,24,"[1, 3, 4, 5, 6, 7, 8, 9, 10, 11, 12, 15, 18, 19, 20, 21, 22, 23, 24, 25, 26, 27, 28, 29]",279.9750156,2911,2749,12,331,10,1.0
undo,3,34,0,0,0,1,"[0, 13, 1]",3,16,"[3, 5, 7, 8, 9, 10, 11, 12, 19, 21, 22, 23, 24, 25, 27, 29]",211.8574701,3569,658,3,92,10,1.0010381285747127
undo,3,34,0,0,0,8,"[0, 13, 1, 8]",4,14,"[3, 5, 7, 9, 10, 11, 12, 19, 22, 23, 24, 25, 27, 29]",201.0871405,4247,678,2,54,10,1.1636807
undo,3,34,0,0,0,25,"[0, 13, 1, 8, 25]",5,12,"[3, 5, 7, 9, 10, 11, 12, 22, 23, 24, 27, 29]",183.999133,5123,876,2,28,10,1.1396208815936457
undo,3,34,0,0,0,24,"[0, 13, 1, 8, 25, 24]",6,11,"[3, 5, 7, 9, 10, 11, 12, 22, 23, 27, 29]",166.5062774,5825,702,2,23,10,1.374180768736554
undo,3,34,0,0,0,12,"[0, 13, 1, 8, 25, 24, 12]",7,7,"[7, 9, 10, 11, 22, 23, 27]",115.4670767,11341,5516,1,8,10,1.4994254760835948
undo,3,34,0,0,0,7,"[0, 13, 1, 8, 25, 24, 12, 7]",8,5,"[9, 11, 22, 23, 27]",100.4337804,12003,662,1,4,10,1.758992610425009
undo,3,34,0,0,0,23,"[0, 13, 1, 8, 25, 24, 12, 7, 23]",9,1,[27],72.27352467,12732,729,1,0,10,2.399781305190153
undo,3,34,0,0,1,27,"[0, 13, 1, 8, 25, 24, 12, 7, 23, 27]",10,0,[],18.60789321,14057,1325,1,0,10,4.766619878750327
undo,3,34,0,1,1,27,"[0, 13, 1, 8, 25, 24, 12, 7, 23, 27]",10,0,[],18.60789321,19373,5316,1,0,10,4.766619878750327
undo,4,5,0,0,0,0,[0],1,29,"[1, 2, 3, 4, 5, 6, 7, 8, 9, 10, 11, 12, 13, 14, 15, 16, 17, 18, 19, 20, 21, 22, 23, 24, 25, 26, 27, 28, 29]",300,148,-1,5,139,9,0.0
undo,4,5,0,0,0,12,"[0, 12]",2,22,"[2, 4, 5, 6, 8, 9, 10, 13, 14, 15, 16, 17, 18, 19, 21, 22, 23, 24, 25, 26, 27, 28]",228.3062067,2705,2557,1,27,9,1.0
undo,4,5,0,0,0,25,"[0, 12, 25]",3,21,"[2, 4, 5, 6, 8, 9, 10, 13, 14, 15, 16, 17, 18, 19, 21, 22, 23, 24, 26, 27, 28]",200.5213187,4736,2031,1,20,9,1.584023303445617
undo,4,5,0,0,0,23,"[0, 12, 25, 23]",4,19,"[2, 4, 5, 6, 8, 9, 10, 13, 14, 15, 16, 17, 18, 19, 21, 22, 24, 26, 27]",182.0822298,5488,752,1,14,9,2.3508446989254357
undo,4,5,0,0,0,24,"[0, 12, 25, 23, 24]",5,15,"[2, 4, 5, 6, 8, 9, 13, 14, 15, 17, 18, 19, 22, 26, 27]",158.995437,6053,565,1,12,9,1.9469752046288753
undo,4,5,0,0,0,17,"[0, 12, 25, 23, 24, 17]",6,7,"[4, 5, 6, 8, 15, 18, 19]",124.0097257,7127,1074,1,8,9,1.6482276497563642
undo,4,5,0,0,0,5,"[0, 12, 25, 23, 24, 17, 5]",7,4,"[4, 6, 15, 18]",80.96323916,8189,1062,1,3,9,1.4654649104389412
undo,4,5,0,0,0,4,"[0, 12, 25, 23, 24, 17, 5, 4]",8,1,[6],15.16050365,9471,1282,1,0,9,1.6255060355828674
undo,4,5,0,0,1,6,"[0, 12, 25, 23, 24, 17, 5, 4, 6]",9,0,[],3.118909076,10424,953,1,0,9,1.7777310833772453
undo,4,5,0,1,1,6,"[0, 12, 25, 23, 24, 17, 5, 4, 6]",9,0,[],3.118909076,11845,1421,1,0,9,1.7777310833772453
undo,5,13,0,0,0,0,[0],1,29,"[1, 2, 3, 4, 5, 6, 7, 8, 9, 10, 11, 12, 13, 14, 15, 16, 17, 18, 19, 20, 21, 22, 23, 24, 25, 26, 27, 28, 29]",300,147,-1,60,2676,11,0.0
undo,5,13,0,0,0,24,"[0, 24]",2,28,"[1, 2, 3, 4, 5, 6, 7, 8, 9, 10, 11, 12, 13, 14, 15, 16, 17, 18, 19, 20, 21, 22, 23, 25, 26, 27, 28, 29]",288.8196601,3011,2864,16,1444,11,1.0
undo,5,13,0,0,0,28,"[0, 24, 28]",3,23,"[1, 2, 3, 4, 6, 7, 8, 9, 10, 11, 12, 13, 15, 16, 17, 19, 20, 21, 22, 23, 26, 27, 29]",222.5324064,3919,908,8,243,11,1.0513810491680837
undo,5,13,0,0,0,2,"[0, 24, 28, 2]",4,19,"[1, 3, 4, 6, 7, 9, 11, 12, 13, 15, 16, 17, 19, 20, 21, 23, 26, 27, 29]",184.889346,4738,819,7,110,11,1.050374132001543
undo,5,13,0,0,0,29,"[0, 24, 28, 2, 29]",5,18,"[1, 3, 4, 6, 7, 9, 11, 12, 13, 15, 16, 17, 19, 20, 21, 23, 26, 27]",173.1846461,5238,500,7,85,11,1.1393409619120594
undo,5,13,0,0,0,7,"[0, 24, 28, 2, 29, 7]",6,17,"[1, 3, 4, 6, 9, 11, 12, 13, 15, 16, 17, 19, 20, 21, 23, 26, 27]",157.9203086,6253,1015,5,45,11,1.349777315111579
undo,5,13,0,0,0,26,"[0, 24, 28, 2, 29, 7, 26]",7,16,"[1, 3, 4, 6, 9, 11, 12, 13, 15, 16, 17, 19, 20, 21, 23, 27]",147.480002,6841,588,5,25,11,1.5942082773824946
undo,5,13,0,0,0,6,"[0, 24, 28, 2, 29, 7, 26, 6]",8,12,"[1, 3, 4, 11, 13, 15, 16, 17, 19, 20, 23, 27]",127.3802508,7791,950,4,12,11,1.5898347940840756
undo,5,13,0,0,0,11,"[0, 24, 28, 2, 29, 7, 26, 6, 11]",9,6,"[1, 13, 15, 16, 17, 23]",108.2752776,8328,537,3,4,11,1.5029953945561012
undo,5,13,0,0,0,17,"[0, 24, 28, 2, 29, 7, 26, 6, 11, 17]",10,1,[13],36.68617231,10518,2190,1,0,11,1.324993060397683
undo,5,13,0,0,1,13,"[0, 24, 28, 2, 29, 7, 26, 6, 11, 17, 13]",11,0,[],3.309533775,11452,934,1,0,11,1.6349870606446535
undo,5,13,0,1,1,13,"[0, 24, 28, 2, 29, 7, 26, 6, 11, 17, 13]",11,0,[],3.309533775,14027,2575,1,0,11,1.6349870606446535
undo,6,16,0,0,0,0,[0],1,29,"[1, 2, 3, 4, 5, 6, 7, 8, 9, 10, 11, 12, 13, 14, 15, 16, 17, 18, 19, 20, 21, 22, 23, 24, 25, 26, 27, 28, 29]",300,163,-1,13,161,9,0.0
undo,6,16,0,0,0,28,"[0, 28]",2,27,"[1, 2, 3, 4, 5, 7, 8, 9, 10, 11, 12, 13, 14, 15, 16, 17, 18, 19, 20, 21, 22, 23, 24, 25, 26, 27, 29]",284.3475242,3970,3807,11,92,9,1.0
undo,6,16,0,0,0,17,"[0, 28, 17]",3,26,"[1, 2, 3, 4, 5, 7, 8, 9, 10, 11, 12, 13, 14, 15, 16, 18, 19, 20, 21, 22, 23, 24, 25, 26, 27, 29]",219.1555001,4953,983,10,46,9,1.3773866384707543
undo,6,16,0,0,0,16,"[0, 28, 17, 16]",4,25,"[1, 2, 3, 4, 5, 7, 8, 9, 10, 11, 12, 13, 14, 15, 18, 19, 20, 21, 22, 23, 24, 25, 26, 27, 29]",190.8358956,5785,832,10,34,9,1.3209953830681203
undo,6,16,0,0,0,8,"[0, 28, 17, 16, 8]",5,12,"[3, 4, 5, 9, 12, 13, 15, 19, 20, 21, 25, 29]",142.4623491,6758,973,6,19,9,1.2700932705506198
undo,6,16,0,0,0,20,"[0, 28, 17, 16, 8, 20]",6,6,"[4, 5, 9, 12, 15, 25]",84.6869218,7621,863,4,4,9,1.1899382910703262
undo,6,16,0,0,0,25,"[0, 28, 17, 16, 8, 20, 25]",7,3,"[5, 9, 15]",72.03781116,8176,555,2,2,9,1.2372268181049477
undo,6,16,0,0,0,9,"[0, 28, 17, 16, 8, 20, 25, 9]",8,2,"[5, 15]",59.23156268,8788,612,2,0,9,1.221922950237529
undo,6,16,0,0,1,15,"[0, 28, 17, 16, 8, 20, 25, 9, 15]",9,0,[],20.334262,9735,947,1,0,9,1.318239760375411
undo,6,16,0,1,1,15,"[0, 28, 17, 16, 8, 20, 25, 9, 15]",9,0,[],20.334262,14859,5124,1,0,9,1.318239760375411
undo,7,11,0,0,0,0,[0],1,25,"[1, 2, 3, 4, 5, 6, 8, 9, 10, 11, 12, 13, 14, 15, 16, 17, 18, 19, 20, 22, 23, 25, 26, 27, 28]",300,130,-1,6,374,12,0.0
undo,7,11,0,0,0,18,"[0, 18]",2,21,"[1, 2, 4, 5, 6, 8, 9, 11, 12, 13, 14, 15, 16, 17, 19, 20, 22, 23, 25, 27, 28]",236.8493864,2820,2690,157,1477,11,1.0
undo,7,11,0,0,0,27,"[0, 18, 27]",3,19,"[1, 2, 4, 5, 6, 8, 9, 11, 12, 14, 15, 16, 17, 19, 20, 22, 23, 25, 28]",212.9956655,3403,583,157,1315,11,1.060949579704323
undo,7,11,0,0,0,5,"[0, 18, 27, 5]",4,12,"[2, 6, 8, 11, 12, 14, 15, 16, 17, 19, 22, 28]",131.7799035,5270,1867,31,207,11,1.0339727918436237
undo,7,11,0,0,0,2,"[0, 18, 27, 5, 2]",5,8,"[8, 11, 12, 15, 17, 19, 22, 28]",114.7799035,9639,4369,10,68,11,1.0377168105520382
undo,7,11,0,0,0,22,"[0, 18, 27, 5, 2, 22]",6,6,"[8, 11, 15, 17, 19, 28]",104.7300279,11169,1530,8,27,11,1.035729163214962
undo,7,11,0,0,0,28,"[0, 18, 27, 5, 2, 22, 28]",7,5,"[8, 11, 15, 17, 19]",86.34525155,11985,816,8,13,11,1.2364039266401647
undo,7,11,0,0,0,11,"[0, 18, 27, 5, 2, 22, 28, 11]",8,3,"[8, 15, 17]",66.92876371,12874,889,6,0,11,1.344383237443331
undo,7,11,0,0,0,15,"[0, 18, 27, 5, 2, 22, 28, 11, 15]",9,2,"[8, 17]",48.81799344,13691,817,2,0,11,1.60121764180371
undo,7,11,0,0,0,8,"[0, 18, 27, 5, 2, 22, 28, 11, 15, 8]",10,1,[17],35.36436939,14314,623,1,0,11,1.8224747275936874
undo,7,11,0,0,1,17,"[0, 18, 27, 5, 2, 22, 28, 11, 15, 8, 17]",11,0,[],21.04654833,14883,569,1,0,11,1.8966334356851045
undo,7,11,1,0,0,8,"[0, 18, 27, 5, 2, 22, 28, 11, 15, 8]",10,1,[17],35.36436939,30955,16072,1,0,11,1.8224747275936874
undo,7,11,1,0,0,15,"[0, 18, 27, 5, 2, 22, 28, 11, 15]",9,2,"[8, 17]",48.81799344,31105,150,2,0,11,1.60121764180371
undo,7,11,1,0,0,11,"[0, 18, 27, 5, 2, 22, 28, 11]",8,3,"[8, 15, 17]",66.92876371,31222,117,6,0,11,1.344383237443331
undo,7,11,1,0,0,28,"[0, 18, 27, 5, 2, 22, 28]",7,5,"[8, 11, 15, 17, 19]",86.34525155,31355,133,8,13,11,1.2364039266401647
undo,7,11,1,0,0,22,"[0, 18, 27, 5, 2, 22]",6,6,"[8, 11, 15, 17, 19, 28]",104.7300279,31523,168,8,27,11,1.035729163214962
undo,7,11,1,0,0,2,"[0, 18, 27, 5, 2]",5,8,"[8, 11, 12, 15, 17, 19, 22, 28]",114.7799035,31656,133,10,68,11,1.0377168105520382
undo,7,11,1,0,0,5,"[0, 18, 27, 5]",4,12,"[2, 6, 8, 11, 12, 14, 15, 16, 17, 19, 22, 28]",131.7799035,31806,150,31,207,11,1.0339727918436237
undo,7,11,1,0,0,27,"[0, 18, 27]",3,19,"[1, 2, 4, 5, 6, 8, 9, 11, 12, 14, 15, 16, 17, 19, 20, 22, 23, 25, 28]",212.9956655,32155,349,157,1315,11,1.060949579704323
undo,7,11,1,0,0,18,"[0, 18]",2,21,"[1, 2, 4, 5, 6, 8, 9, 11, 12, 13, 14, 15, 16, 17, 19, 20, 22, 23, 25, 27, 28]",236.8493864,32339,184,157,1477,11,1.0
undo,7,11,1,0,0,0,[0],1,25,"[1, 2, 3, 4, 5, 6, 8, 9, 10, 11, 12, 13, 14, 15, 16, 17, 18, 19, 20, 22, 23, 25, 26, 27, 28]",300,32706,367,6,374,12,0.0
undo,7,11,0,0,0,1,"[0, 1]",2,24,"[2, 3, 4, 5, 6, 8, 9, 10, 11, 12, 13, 14, 15, 16, 17, 18, 19, 20, 22, 23, 25, 26, 27, 28]",264.6446609,33687,981,6,217,12,1.0
undo,7,11,0,0,0,18,"[0, 1, 18]",3,19,"[2, 4, 5, 6, 8, 9, 11, 12, 14, 15, 16, 17, 19, 20, 22, 23, 25, 27, 28]",212.3187591,34567,880,6,161,12,1.3884463804898786
undo,7,11,0,0,0,27,"[0, 1, 18, 27]",4,18,"[2, 4, 5, 6, 8, 9, 11, 12, 14, 15, 16, 17, 19, 20, 22, 23, 25, 28]",188.4650382,35380,813,6,155,12,1.3600813284083875
undo,7,11,0,0,0,17,"[0, 1, 18, 27, 17]",5,11,"[2, 5, 6, 8, 11, 12, 15, 19, 22, 25, 28]",111.3871556,37482,2102,2,45,12,1.282398281674261
undo,7,11,0,0,0,8,"[0, 1, 18, 27, 17, 8]",6,7,"[2, 5, 11, 12, 15, 22, 28]",97.0693345,37969,487,2,21,12,1.3975291553712
undo,7,11,0,0,0,15,"[0, 1, 18, 27, 17, 8, 15]",7,6,"[2, 5, 11, 12, 22, 28]",83.61571045,38660,691,2,18,12,1.3793915678186077
undo,7,11,0,0,0,11,"[0, 1, 18, 27, 17, 8, 15, 11]",8,4,"[2, 5, 22, 28]",65.50494017,39322,662,2,14,12,1.3525960247899067
undo,7,11,0,0,0,5,"[0, 1, 18, 27, 17, 8, 15, 11, 5]",9,3,"[2, 22, 28]",30.27711026,41127,1805,3,1,11,1.6578645187532492
undo,7,11,0,0,0,28,"[0, 1, 18, 27, 17, 8, 15, 11, 5, 28]",10,1,[2],12.38856644,42150,1023,1,0,11,1.6643856894358244
undo,7,11,0,0,1,2,"[0, 1, 18, 27, 17, 8, 15, 11, 5, 28, 2]",11,0,[],1.758420632,43010,860,1,0,11,1.6709326167301912
undo,7,11,0,1,1,2,"[0, 1, 18, 27, 17, 8, 15, 11, 5, 28, 2]",11,0,[],1.758420632,46685,3675,1,0,11,1.6709326167301912
undo,8,26,0,0,0,0,[0],1,29,"[1, 2, 3, 4, 5, 6, 7, 8, 9, 10, 11, 12, 13, 14, 15, 16, 17, 18, 19, 20, 21, 22, 23, 24, 25, 26, 27, 28, 29]",300,145,-1,9,226,9,0.0
undo,8,26,0,0,0,21,"[0, 21]",2,25,"[2, 3, 4, 5, 6, 7, 8, 10, 11, 12, 13, 14, 15, 16, 17, 18, 19, 22, 23, 24, 25, 26, 27, 28, 29]",211.1349337,4756,4611,7,90,9,1.0
undo,8,26,0,0,0,13,"[0, 21, 13]",3,21,"[3, 4, 5, 6, 7, 8, 10, 11, 12, 14, 15, 16, 17, 18, 19, 22, 23, 24, 25, 26, 29]",188.9989901,5534,778,6,45,9,1.0103952279992225
undo,8,26,0,0,0,5,"[0, 21, 13, 5]",4,12,"[3, 4, 11, 14, 16, 17, 18, 22, 23, 25, 26, 29]",150.7106107,6304,770,2,10,8,1.0086890649024711
undo,8,26,0,0,0,23,"[0, 21, 13, 5, 23]",5,8,"[3, 4, 11, 14, 16, 17, 22, 29]",118.0150452,7254,950,2,7,8,1.3518621918690494
undo,8,26,0,0,0,16,"[0, 21, 13, 5, 23, 16]",6,4,"[4, 14, 17, 29]",64.77971862,8256,1002,2,3,8,2.1011863559657242
undo,8,26,0,0,0,29,"[0, 21, 13, 5, 23, 16, 29]",7,2,"[4, 17]",40.57228175,9121,865,2,0,8,2.123178325538451
undo,8,26,0,0,1,4,"[0, 21, 13, 5, 23, 16, 29, 4]",8,0,[],16.57228175,9783,662,1,0,8,2.338467952972574
undo,8,26,1,0,0,29,"[0, 21, 13, 5, 23, 16, 29]",7,2,"[4, 17]",40.57228175,13808,4025,2,0,8,2.123178325538451
undo,8,26,1,0,0,16,"[0, 21, 13, 5, 23, 16]",6,4,"[4, 14, 17, 29]",64.77971862,14024,216,2,3,8,2.1011863559657242
undo,8,26,1,0,0,23,"[0, 21, 13, 5, 23]",5,8,"[3, 4, 11, 14, 16, 17, 22, 29]",118.0150452,14224,200,2,7,8,1.3518621918690494
undo,8,26,1,0,0,5,"[0, 21, 13, 5]",4,12,"[3, 4, 11, 14, 16, 17, 18, 22, 23, 25, 26, 29]",150.7106107,14374,150,2,10,8,1.0086890649024711
undo,8,26,1,0,0,13,"[0, 21, 13]",3,21,"[3, 4, 5, 6, 7, 8, 10, 11, 12, 14, 15, 16, 17, 18, 19, 22, 23, 24, 25, 26, 29]",188.9989901,14540,166,6,45,9,1.0103952279992225
undo,8,26,0,0,0,23,"[0, 21, 13, 23]",4,13,"[3, 4, 5, 6, 10, 11, 14, 16, 17, 18, 22, 26, 29]",150.9858345,17276,2736,3,17,9,1.1069410469330032
undo,8,26,0,0,0,16,"[0, 21, 13, 23, 16]",5,7,"[4, 5, 6, 10, 14, 17, 29]",97.75050789,18403,1127,3,13,9,1.8066634000662438
undo,8,26,0,0,0,29,"[0, 21, 13, 23, 16, 29]",6,5,"[4, 6, 10, 14, 17]",73.54307102,19030,627,3,9,9,1.853342605492142
undo,8,26,0,0,0,4,"[0, 21, 13, 23, 16, 29, 4]",7,3,"[6, 14, 17]",49.54307102,19601,571,2,2,9,2.0664369230924997
undo,8,26,0,0,0,17,"[0, 21, 13, 23, 16, 29, 4, 17]",8,2,"[6, 14]",28.44804791,20680,1079,2,0,9,1.911153301956092
undo,8,26,0,0,1,14,"[0, 21, 13, 23, 16, 29, 4, 17, 14]",9,0,[],5.975842855,22015,1335,1,0,9,1.8245133223656398
undo,8,26,0,1,1,14,"[0, 21, 13, 23, 16, 29, 4, 17, 14]",9,0,[],5.975842855,25837,3822,1,0,9,1.8245133223656398
undo,9,25,0,0,0,0,[0],1,28,"[1, 2, 3, 4, 5, 7, 8, 9, 10, 11, 12, 13, 14, 15, 16, 17, 18, 19, 20, 21, 22, 23, 24, 25, 26, 27, 28, 29]",300,129,-1,5,94,10,0.0
undo,9,25,0,0,0,19,"[0, 19]",2,27,"[1, 2, 3, 4, 5, 7, 8, 9, 10, 11, 12, 13, 14, 15, 16, 17, 18, 20, 21, 22, 23, 24, 25, 26, 27, 28, 29]",251.9479449,5085,4956,2,30,10,1.0
undo,9,25,0,0,0,29,"[0, 19, 29]",3,26,"[1, 2, 3, 4, 5, 7, 8, 9, 10, 11, 12, 13, 14, 15, 16, 17, 18, 20, 21, 22, 23, 24, 25, 26, 27, 28]",235.6691243,5869,784,2,22,10,1.0272252084351727
undo,9,25,0,0,0,22,"[0, 19, 29, 22]",4,24,"[1, 2, 3, 4, 5, 7, 8, 9, 11, 12, 13, 14, 15, 16, 17, 18, 20, 21, 23, 24, 25, 26, 27, 28]",219.5446088,6824,955,2,17,10,1.03988854593305
undo,9,25,0,0,0,7,"[0, 19, 29, 22, 7]",5,10,"[1, 3, 5, 8, 9, 11, 13, 23, 24, 28]",143.9007062,7707,883,2,14,10,1.3318974800137366
undo,9,25,0,0,0,24,"[0, 19, 29, 22, 7, 24]",6,7,"[3, 8, 9, 11, 13, 23, 28]",119.1418694,8336,629,2,9,10,1.2868309735722725
undo,9,25,0,0,0,9,"[0, 19, 29, 22, 7, 24, 9]",7,4,"[3, 8, 13, 28]",101.114113,9002,666,2,7,10,1.2740198715343065
undo,9,25,0,0,0,3,"[0, 19, 29, 22, 7, 24, 9, 3]",8,3,"[8, 13, 28]",70.84862112,11540,2538,2,1,10,1.2376259292234586
undo,9,25,0,0,0,28,"[0, 19, 29, 22, 7, 24, 9, 3, 28]",9,1,[13],39.54366943,12434,894,1,0,10,1.203625519961748
undo,9,25,0,0,1,13,"[0, 19, 29, 22, 7, 24, 9, 3, 28, 13]",10,0,[],5.309183897,13424,990,1,0,10,1.4620578920005771
undo,9,25,0,1,1,13,"[0, 19, 29, 22, 7, 24, 9, 3, 28, 13]",10,0,[],5.309183897,14909,1485,1,0,10,1.4620578920005771
undo,10,14,0,0,0,0,[0],1,29,"[1, 2, 3, 4, 5, 6, 7, 8, 9, 10, 11, 12, 13, 14, 15, 16, 17, 18, 19, 20, 21, 22, 23, 24, 25, 26, 27, 28, 29]",300,163,-1,8,157,10,0.0
undo,10,14,0,0,0,15,"[0, 15]",2,20,"[1, 2, 3, 4, 7, 8, 9, 13, 17, 18, 19, 20, 21, 22, 23, 25, 26, 27, 28, 29]",216.7053423,3171,3008,8,102,10,1.0
undo,10,14,0,0,0,28,"[0, 15, 28]",3,17,"[1, 2, 3, 4, 7, 8, 9, 13, 17, 18, 19, 20, 22, 23, 25, 26, 27]",197.4959696,3886,715,8,48,10,1.0446007867311968
undo,10,14,0,0,0,17,"[0, 15, 28, 17]",4,14,"[1, 2, 3, 4, 7, 8, 13, 18, 19, 20, 22, 23, 25, 26]",184.0423455,4636,750,8,39,10,1.0729463354689972
undo,10,14,0,0,0,18,"[0, 15, 28, 17, 18]",5,9,"[1, 2, 4, 7, 8, 19, 23, 25, 26]",119.412631,5743,1107,8,27,10,1.5035901079219378
undo,10,14,0,0,0,8,"[0, 15, 28, 17, 18, 8]",6,8,"[1, 2, 4, 7, 19, 23, 25, 26]",105.8111605,6319,576,8,18,10,1.4819689987843856
undo,10,14,0,0,0,1,"[0, 15, 28, 17, 18, 8, 1]",7,5,"[7, 19, 23, 25, 26]",82.21031307,7737,1418,4,6,10,1.4084991998385268
undo,10,14,0,0,0,19,"[0, 15, 28, 17, 18, 8, 1, 19]",8,4,"[7, 23, 25, 26]",66.97876686,9371,1634,4,1,10,1.5758713333797987
undo,10,14,0,0,0,25,"[0, 15, 28, 17, 18, 8, 1, 19, 25]",9,2,"[7, 23]",31.1318702,13584,4213,2,0,10,1.6426186864061416
undo,10,14,0,0,1,23,"[0, 15, 28, 17, 18, 8, 1, 19, 25, 23]",10,0,[],1.72098786,15520,1936,1,0,10,1.586837442491671
undo,10,14,0,1,1,23,"[0, 15, 28, 17, 18, 8, 1, 19, 25, 23]",10,0,[],1.72098786,17491,1971,1,0,10,1.586837442491671
undo,11,40,0,0,0,0,[0],1,29,"[1, 2, 3, 4, 5, 6, 7, 8, 9, 10, 11, 12, 13, 14, 15, 16, 17, 18, 19, 20, 21, 22, 23, 24, 25, 26, 27, 28, 29]",300,169,-1,8,191,9,0.0
undo,11,40,0,0,0,1,"[0, 1]",2,18,"[2, 5, 6, 7, 8, 9, 10, 11, 13, 15, 17, 18, 19, 21, 22, 23, 27, 29]",247.8463808,3291,3122,4,80,9,1.0
undo,11,40,0,0,0,6,"[0, 1, 6]",3,17,"[2, 5, 7, 8, 9, 10, 11, 13, 15, 17, 18, 19, 21, 22, 23, 27, 29]",227.7466295,3965,674,4,74,9,1.0459427008232034
undo,11,40,0,0,0,9,"[0, 1, 6, 9]",4,10,"[2, 5, 8, 11, 18, 19, 21, 22, 23, 27]",159.146338,4984,1019,17,39,8,1.142098432552584
undo,11,40,0,0,0,18,"[0, 1, 6, 9, 18]",5,9,"[2, 5, 8, 11, 19, 21, 22, 23, 27]",142.5933926,5588,604,13,14,8,1.3288108654802917
undo,11,40,0,0,0,5,"[0, 1, 6, 9, 18, 5]",6,7,"[2, 8, 19, 21, 22, 23, 27]",111.0180858,6500,912,5,5,8,1.5366414787972102
undo,11,40,0,0,0,23,"[0, 1, 6, 9, 18, 5, 23]",7,3,"[2, 19, 21]",82.71614241,7304,804,3,0,8,2.2908821040631264
undo,11,40,0,0,1,19,"[0, 1, 6, 9, 18, 5, 23, 19]",8,0,[],50.76305179,8738,1434,1,0,8,2.4294131203959415
undo,11,40,1,0,0,23,"[0, 1, 6, 9, 18, 5, 23]",7,3,"[2, 19, 21]",82.71614241,11545,2807,3,0,8,2.2908821040631264
undo,11,40,1,0,0,5,"[0, 1, 6, 9, 18, 5]",6,7,"[2, 8, 19, 21, 22, 23, 27]",111.0180858,11695,150,5,5,8,1.5366414787972102
undo,11,40,1,0,0,18,"[0, 1, 6, 9, 18]",5,9,"[2, 5, 8, 11, 19, 21, 22, 23, 27]",142.5933926,11845,150,13,14,8,1.3288108654802917
undo,11,40,1,0,0,9,"[0, 1, 6, 9]",4,10,"[2, 5, 8, 11, 18, 19, 21, 22, 23, 27]",159.146338,11944,99,17,39,8,1.142098432552584
undo,11,40,1,0,0,6,"[0, 1, 6]",3,17,"[2, 5, 7, 8, 9, 10, 11, 13, 15, 17, 18, 19, 21, 22, 23, 27, 29]",227.7466295,12095,151,4,74,9,1.0459427008232034
undo,11,40,1,0,0,1,"[0, 1]",2,18,"[2, 5, 6, 7, 8, 9, 10, 11, 13, 15, 17, 18, 19, 21, 22, 23, 27, 29]",247.8463808,12195,100,4,80,9,1.0
undo,11,40,1,0,0,0,[0],1,29,"[1, 2, 3, 4, 5, 6, 7, 8, 9, 10, 11, 12, 13, 14, 15, 16, 17, 18, 19, 20, 21, 22, 23, 24, 25, 26, 27, 28, 29]",300,12345,150,8,191,9,0.0
undo,11,40,0,0,0,1,"[0, 1]",2,18,"[2, 5, 6, 7, 8, 9, 10, 11, 13, 15, 17, 18, 19, 21, 22, 23, 27, 29]",247.8463808,16532,4187,4,80,9,1.0
undo,11,40,0,0,0,6,"[0, 1, 6]",3,17,"[2, 5, 7, 8, 9, 10, 11, 13, 15, 17, 18, 19, 21, 22, 23, 27, 29]",227.7466295,17351,819,4,74,9,1.0459427008232034
undo,11,40,0,0,0,21,"[0, 1, 6, 21]",4,8,"[2, 5, 9, 17, 18, 19, 22, 23]",175.7754837,18191,840,4,25,9,1.0308822257404064
undo,11,40,0,0,0,9,"[0, 1, 6, 21, 9]",5,6,"[2, 5, 18, 19, 22, 23]",130.0699041,18931,740,4,12,9,1.377861912961129
undo,11,40,0,0,0,18,"[0, 1, 6, 21, 9, 18]",6,5,"[2, 5, 19, 22, 23]",113.5169588,19474,543,4,4,9,1.5742712168661408
undo,11,40,0,0,0,5,"[0, 1, 6, 21, 9, 18, 5]",7,3,"[19, 22, 23]",81.94165198,20189,715,2,1,9,1.7730665063055515
undo,11,40,0,0,0,23,"[0, 1, 6, 21, 9, 18, 5, 23]",8,1,[19],53.63970859,22356,2167,1,0,9,2.597442759912231
undo,11,40,0,0,1,19,"[0, 1, 6, 21, 9, 18, 5, 23, 19]",9,0,[],21.68661797,23282,926,1,0,9,2.7128328554069565
undo,11,40,0,1,1,19,"[0, 1, 6, 21, 9, 18, 5, 23, 19]",9,0,[],21.68661797,24724,1442,1,0,9,2.7128328554069565
undo,12,24,0,0,0,0,[0],1,29,"[1, 2, 3, 4, 5, 6, 7, 8, 9, 10, 11, 12, 13, 14, 15, 16, 17, 18, 19, 20, 21, 22, 23, 24, 25, 26, 27, 28, 29]",300,163,-1,4,76,10,0.0
undo,12,24,0,0,0,16,"[0, 16]",2,28,"[1, 2, 3, 4, 5, 6, 7, 8, 9, 10, 11, 12, 13, 14, 15, 17, 18, 19, 20, 21, 22, 23, 24, 25, 26, 27, 28, 29]",210.3562607,3277,3114,13,110,9,1.0
undo,12,24,0,0,0,8,"[0, 16, 8]",3,22,"[1, 2, 3, 4, 6, 9, 10, 11, 13, 14, 15, 17, 20, 21, 22, 23, 24, 25, 26, 27, 28, 29]",181.3562607,4204,927,3,31,9,1.0774669368510212
undo,12,24,0,0,0,22,"[0, 16, 8, 22]",4,18,"[2, 3, 4, 6, 9, 10, 11, 13, 14, 15, 17, 23, 24, 25, 26, 27, 28, 29]",167.9398528,4785,581,3,23,9,1.2531772310046492
undo,12,24,0,0,0,15,"[0, 16, 8, 22, 15]",5,16,"[3, 4, 6, 9, 10, 11, 13, 14, 17, 23, 24, 25, 26, 27, 28, 29]",146.7266494,5378,593,3,16,9,1.2813329946092564
undo,12,24,0,0,0,28,"[0, 16, 8, 22, 15, 28]",6,8,"[3, 4, 9, 11, 13, 23, 26, 27]",101.4497237,6152,774,3,5,9,1.2060847818642253
undo,12,24,0,0,0,23,"[0, 16, 8, 22, 15, 28, 23]",7,3,"[9, 11, 27]",82.42342609,7135,983,3,1,9,1.2349355190066822
undo,12,24,0,0,0,11,"[0, 16, 8, 22, 15, 28, 23, 11]",8,2,"[9, 27]",55.49760206,8351,1216,2,0,9,1.2172586817191506
undo,12,24,0,0,1,9,"[0, 16, 8, 22, 15, 28, 23, 11, 9]",9,0,[],23.24857107,10038,1687,1,0,9,1.3037788048831767
undo,12,24,0,1,1,9,"[0, 16, 8, 22, 15, 28, 23, 11, 9]",9,0,[],23.24857107,12043,2005,1,0,9,1.3037788048831767
undo,13,41,0,0,0,0,[0],1,29,"[1, 2, 3, 4, 5, 6, 7, 8, 9, 10, 11, 12, 13, 14, 15, 16, 17, 18, 19, 20, 21, 22, 23, 24, 25, 26, 27, 28, 29]",300,165,-1,1,143,10,0.0
undo,13,41,0,0,0,13,"[0, 13]",2,23,"[1, 2, 3, 5, 6, 7, 9, 10, 11, 12, 14, 15, 17, 18, 19, 20, 21, 22, 24, 25, 26, 27, 28]",258.2747079,1882,1717,1,55,10,1.0
undo,13,41,0,0,0,28,"[0, 13, 28]",3,22,"[1, 2, 3, 5, 6, 7, 9, 10, 11, 12, 14, 15, 17, 18, 19, 20, 21, 22, 24, 25, 26, 27]",223.7928286,2771,889,1,39,10,1.895724242592676
undo,13,41,0,0,0,5,"[0, 13, 28, 5]",4,19,"[1, 2, 3, 6, 9, 10, 11, 12, 14, 15, 17, 18, 19, 20, 21, 22, 24, 25, 27]",210.1913581,3658,887,1,34,10,2.861541269398273
undo,13,41,0,0,0,3,"[0, 13, 28, 5, 3]",5,16,"[1, 2, 6, 9, 10, 12, 14, 17, 18, 19, 20, 21, 22, 24, 25, 27]",175.3632086,4421,763,1,22,10,3.1455488489005883
undo,13,41,0,0,0,21,"[0, 13, 28, 5, 3, 21]",6,14,"[1, 2, 6, 9, 10, 12, 14, 17, 18, 19, 20, 22, 25, 27]",143.2228912,5392,971,13,11,9,3.207558429289677
undo,13,41,0,0,0,9,"[0, 13, 28, 5, 3, 21, 9]",7,6,"[1, 2, 10, 12, 14, 17]",93.85691102,6371,979,7,4,9,2.5050148501792275
undo,13,41,0,0,0,2,"[0, 13, 28, 5, 3, 21, 9, 2]",8,5,"[1, 10, 12, 14, 17]",81.77386505,7249,878,5,0,9,2.4119643847713177
undo,13,41,0,0,1,17,"[0, 13, 28, 5, 3, 21, 9, 2, 17]",9,0,[],49.21622385,8110,861,1,0,9,3.9563478735796007
undo,13,41,1,0,0,2,"[0, 13, 28, 5, 3, 21, 9, 2]",8,5,"[1, 10, 12, 14, 17]",81.77386505,20210,12100,5,0,9,2.4119643847713177
undo,13,41,1,0,0,9,"[0, 13, 28, 5, 3, 21, 9]",7,6,"[1, 2, 10, 12, 14, 17]",93.85691102,20660,450,7,4,9,2.5050148501792275
undo,13,41,0,0,0,2,"[0, 13, 28, 5, 3, 21, 9, 2]",8,5,"[1, 10, 12, 14, 17]",81.77386505,37260,16600,5,0,9,2.4119643847713177
undo,13,41,0,0,1,17,"[0, 13, 28, 5, 3, 21, 9, 2, 17]",9,0,[],49.21622385,38028,768,1,0,9,3.9563478735796007
undo,13,41,0,1,1,17,"[0, 13, 28, 5, 3, 21, 9, 2, 17]",9,0,[],49.21622385,40253,2225,1,0,9,3.9563478735796007
undo,14,0,0,0,0,0,[0],1,27,"[2, 3, 4, 5, 6, 7, 8, 9, 10, 11, 12, 13, 14, 15, 16, 17, 19, 20, 21, 22, 23, 24, 25, 26, 27, 28, 29]",300,146,-1,104,1136,9,0.0
undo,14,0,0,0,0,5,"[0, 5]",2,24,"[2, 3, 4, 7, 8, 9, 11, 12, 13, 14, 15, 16, 17, 19, 20, 21, 22, 23, 24, 25, 26, 27, 28, 29]",164.5156836,2473,2327,5,112,9,1.0
undo,14,0,0,0,0,4,"[0, 5, 4]",3,20,"[2, 3, 7, 8, 9, 11, 12, 13, 14, 15, 17, 19, 20, 21, 22, 23, 24, 25, 26, 28]",139.4358112,4137,1664,4,61,9,1.0257023158632692
undo,14,0,0,0,0,26,"[0, 5, 4, 26]",4,18,"[3, 7, 8, 9, 11, 12, 13, 14, 15, 17, 19, 20, 21, 22, 23, 24, 25, 28]",127.3942166,4968,831,4,26,9,1.0684029773259323
undo,14,0,0,0,0,24,"[0, 5, 4, 26, 24]",5,12,"[3, 7, 8, 9, 11, 12, 15, 17, 19, 20, 23, 28]",110.2769738,6310,1342,4,16,9,1.1372083333602885
undo,14,0,0,0,0,15,"[0, 5, 4, 26, 24, 15]",6,8,"[3, 7, 8, 9, 11, 12, 17, 19]",86.93173875,7143,833,4,7,9,1.1271717591548023
undo,14,0,0,0,0,7,"[0, 5, 4, 26, 24, 15, 7]",7,4,"[3, 8, 17, 19]",55.86728962,8484,1341,3,2,9,1.190834598819092
undo,14,0,0,0,0,3,"[0, 5, 4, 26, 24, 15, 7, 3]",8,1,[8],31.78410046,9725,1241,1,0,9,1.23738515991157
undo,14,0,0,0,1,8,"[0, 5, 4, 26, 24, 15, 7, 3, 8]",9,0,[],1.370287806,12068,2343,1,0,9,1.3423763396760653
undo,14,0,0,1,1,8,"[0, 5, 4, 26, 24, 15, 7, 3, 8]",9,0,[],1.370287806,14059,1991,1,0,9,1.3423763396760653
undo,15,37,0,0,0,0,[0],1,29,"[1, 2, 3, 4, 5, 6, 7, 8, 9, 10, 11, 12, 13, 14, 15, 16, 17, 18, 19, 20, 21, 22, 23, 24, 25, 26, 27, 28, 29]",300,164,-1,6,168,10,0.0
undo,15,37,0,0,0,19,"[0, 19]",2,19,"[1, 2, 4, 5, 6, 7, 9, 10, 11, 15, 17, 18, 20, 21, 22, 25, 26, 28, 29]",185.6627795,3121,2957,25,244,9,1.0
undo,15,37,0,0,0,26,"[0, 19, 26]",3,9,"[1, 2, 4, 15, 20, 21, 22, 25, 29]",120.4094271,4307,1186,12,37,8,1.0256292033966232
undo,15,37,0,0,0,21,"[0, 19, 26, 21]",4,6,"[1, 2, 4, 15, 20, 22]",90.67728956,5265,958,8,18,8,1.3487859218508713
undo,15,37,0,0,0,15,"[0, 19, 26, 21, 15]",5,4,"[1, 2, 4, 20]",75.67728956,5857,592,4,7,8,1.3481165821607015
undo,15,37,0,0,0,20,"[0, 19, 26, 21, 15, 20]",6,3,"[1, 2, 4]",58.67728956,6620,763,2,2,8,1.6099275130490058
undo,15,37,0,0,0,1,"[0, 19, 26, 21, 15, 20, 1]",7,2,"[2, 4]",24.44280403,7542,922,2,0,8,1.7405155284688993
undo,15,37,0,0,1,4,"[0, 19, 26, 21, 15, 20, 1, 4]",8,0,[],6.722758881,8382,840,1,0,8,1.8044157702802002
undo,15,37,1,0,0,1,"[0, 19, 26, 21, 15, 20, 1]",7,2,"[2, 4]",24.44280403,13244,4862,2,0,8,1.7405155284688993
undo,15,37,1,0,0,20,"[0, 19, 26, 21, 15, 20]",6,3,"[1, 2, 4]",58.67728956,13377,133,2,2,8,1.6099275130490058
undo,15,37,1,0,0,15,"[0, 19, 26, 21, 15]",5,4,"[1, 2, 4, 20]",75.67728956,13527,150,4,7,8,1.3481165821607015
undo,15,37,1,0,0,21,"[0, 19, 26, 21]",4,6,"[1, 2, 4, 15, 20, 22]",90.67728956,13694,167,8,18,8,1.3487859218508713
undo,15,37,1,0,0,26,"[0, 19, 26]",3,9,"[1, 2, 4, 15, 20, 21, 22, 25, 29]",120.4094271,13911,217,12,37,8,1.0256292033966232
undo,15,37,1,0,0,19,"[0, 19]",2,19,"[1, 2, 4, 5, 6, 7, 9, 10, 11, 15, 17, 18, 20, 21, 22, 25, 26, 28, 29]",185.6627795,14194,283,25,244,9,1.0
undo,15,37,0,0,0,21,"[0, 19, 21]",3,14,"[1, 2, 4, 7, 10, 11, 15, 17, 18, 20, 22, 25, 26, 29]",144.5531699,15386,1192,10,75,9,1.001632816594558
undo,15,37,0,0,0,15,"[0, 19, 21, 15]",4,9,"[1, 2, 4, 7, 18, 20, 22, 26, 29]",129.5531699,16018,632,5,32,9,1.0243376499143988
undo,15,37,0,0,0,20,"[0, 19, 21, 15, 20]",5,8,"[1, 2, 4, 7, 18, 22, 26, 29]",112.5531699,16584,566,5,14,9,1.250507291508492
undo,15,37,0,0,0,1,"[0, 19, 21, 15, 20, 1]",6,6,"[2, 4, 7, 18, 22, 26]",78.31868434,17136,552,4,4,9,1.4002166443864243
undo,15,37,0,0,0,2,"[0, 19, 21, 15, 20, 1, 2]",7,4,"[4, 7, 18, 22]",61.11403381,18117,981,2,2,9,1.5802253600182588
undo,15,37,0,0,0,4,"[0, 19, 21, 15, 20, 1, 2, 4]",8,1,[22],49.71227956,19099,982,1,0,9,1.5399187067712754
undo,15,37,0,0,1,22,"[0, 19, 21, 15, 20, 1, 2, 4, 22]",9,0,[],24.71227956,20299,1200,1,0,9,1.6903775033413582
undo,15,37,0,1,1,22,"[0, 19, 21, 15, 20, 1, 2, 4, 22]",9,0,[],24.71227956,22808,2509,1,0,9,1.6903775033413582
undo,16,23,0,0,0,0,[0],1,28,"[1, 2, 3, 4, 5, 6, 7, 8, 9, 10, 11, 12, 13, 14, 15, 16, 17, 18, 19, 20, 21, 22, 23, 25, 26, 27, 28, 29]",300,147,-1,76,2626,10,0.0
undo,16,23,0,0,0,13,"[0, 13]",2,19,"[1, 2, 3, 5, 6, 7, 8, 9, 10, 12, 14, 17, 18, 19, 21, 22, 23, 27, 29]",189.3202819,4238,4091,9,168,10,1.0
undo,16,23,0,0,0,12,"[0, 13, 12]",3,16,"[1, 2, 3, 6, 7, 8, 9, 10, 14, 17, 18, 21, 22, 23, 27, 29]",177.2372359,5902,1664,9,96,10,1.0014195490503164
undo,16,23,0,0,0,2,"[0, 13, 12, 2]",4,12,"[1, 3, 6, 7, 9, 10, 14, 18, 21, 22, 27, 29]",163.3447919,6742,840,4,30,10,1.0014394317924602
undo,16,23,0,0,0,9,"[0, 13, 12, 2, 9]",5,10,"[1, 6, 7, 10, 14, 18, 21, 22, 27, 29]",150.3063871,9336,2594,1,8,10,1.1457747074799831
undo,16,23,0,0,0,14,"[0, 13, 12, 2, 9, 14]",6,8,"[1, 6, 7, 10, 18, 22, 27, 29]",139.8660806,9968,632,1,6,10,1.1365880299138118
undo,16,23,0,0,0,29,"[0, 13, 12, 2, 9, 14, 29]",7,5,"[1, 6, 7, 10, 22]",92.43191571,11635,1667,1,3,10,1.3460297288480787
undo,16,23,0,0,0,7,"[0, 13, 12, 2, 9, 14, 29, 7]",8,2,"[1, 10]",68.34872655,12544,909,1,1,10,1.3773159292410473
undo,16,23,0,0,0,10,"[0, 13, 12, 2, 9, 14, 29, 7, 10]",9,1,[1],40.88966612,13436,892,1,0,10,1.3556884556214648
undo,16,23,0,0,1,1,"[0, 13, 12, 2, 9, 14, 29, 7, 10, 1]",10,0,[],12.23656855,14371,935,1,0,10,1.3259861306330887
undo,16,23,0,1,1,1,"[0, 13, 12, 2, 9, 14, 29, 7, 10, 1]",10,0,[],12.23656855,16260,1889,1,0,10,1.3259861306330887
undo,17,10,0,0,0,0,[0],1,29,"[1, 2, 3, 4, 5, 6, 7, 8, 9, 10, 11, 12, 13, 14, 15, 16, 17, 18, 19, 20, 21, 22, 23, 24, 25, 26, 27, 28, 29]",300,164,-1,1,100,9,0.0
undo,17,10,0,0,0,13,"[0, 13]",2,25,"[1, 2, 3, 4, 6, 7, 8, 9, 10, 11, 12, 14, 17, 18, 19, 20, 21, 22, 23, 24, 25, 26, 27, 28, 29]",249.4628849,4135,3971,1,79,9,1.0
undo,17,10,0,0,0,11,"[0, 13, 11]",3,20,"[1, 2, 3, 6, 7, 8, 9, 10, 12, 14, 18, 19, 20, 21, 22, 24, 26, 27, 28, 29]",206.4512586,4863,728,1,54,9,1.0313137484914219
undo,17,10,0,0,0,19,"[0, 13, 11, 19]",4,11,"[2, 6, 8, 9, 10, 14, 18, 20, 24, 26, 27]",170.0919407,5570,707,1,22,9,1.0879446220132545
undo,17,10,0,0,0,2,"[0, 13, 11, 19, 2]",5,4,"[14, 20, 26, 27]",126.1829439,6241,671,1,4,9,1.06474052351343
undo,17,10,0,0,0,14,"[0, 13, 11, 19, 2, 14]",6,3,"[20, 26, 27]",114.0174188,6688,447,1,3,9,1.1628909195912238
undo,17,10,0,0,0,26,"[0, 13, 11, 19, 2, 14, 26]",7,2,"[20, 27]",79.34754716,7388,700,1,1,9,1.6660727647633602
undo,17,10,0,0,0,20,"[0, 13, 11, 19, 2, 14, 26, 20]",8,1,[27],47.56704999,8420,1032,1,0,9,2.085581809637999
undo,17,10,0,0,1,27,"[0, 13, 11, 19, 2, 14, 26, 20, 27]",9,0,[],2.312215998,9354,934,1,0,9,1.9116357409137932
undo,17,10,0,1,1,27,"[0, 13, 11, 19, 2, 14, 26, 20, 27]",9,0,[],2.312215998,10428,1074,1,0,9,1.9116357409137932
undo,18,3,0,0,0,0,[0],1,29,"[1, 2, 3, 4, 5, 6, 7, 8, 9, 10, 11, 12, 13, 14, 15, 16, 17, 18, 19, 20, 21, 22, 23, 24, 25, 26, 27, 28, 29]",300,164,-1,34,427,10,0.0
undo,18,3,0,0,0,17,"[0, 17]",2,16,"[3, 4, 7, 8, 10, 12, 14, 15, 16, 19, 20, 21, 22, 24, 26, 27]",197.6965299,2355,2191,2,27,9,1.0
undo,18,3,0,0,0,20,"[0, 17, 20]",3,13,"[3, 4, 7, 8, 10, 14, 15, 16, 19, 21, 22, 24, 27]",185.0474192,2804,449,2,24,9,1.0153332121237257
undo,18,3,0,0,0,3,"[0, 17, 20, 3]",4,10,"[4, 7, 8, 10, 14, 15, 16, 19, 21, 24]",164.6513412,3836,1032,2,22,9,1.0819240770773468
undo,18,3,0,0,0,19,"[0, 17, 20, 3, 19]",5,6,"[4, 8, 10, 14, 21, 24]",127.3150318,4594,758,2,11,9,1.1701070532957258
undo,18,3,0,0,0,21,"[0, 17, 20, 3, 19, 21]",6,5,"[4, 8, 10, 14, 24]",115.1084762,5321,727,2,6,9,1.202395500952127
undo,18,3,0,0,0,14,"[0, 17, 20, 3, 19, 21, 14]",7,4,"[4, 8, 10, 24]",88.20122806,6043,722,2,2,9,1.6456130302761207
undo,18,3,0,0,1,10,"[0, 17, 20, 3, 19, 21, 14, 10]",8,0,[],42.74795535,6870,827,1,0,8,1.6337827075255185
undo,18,3,0,1,1,10,"[0, 17, 20, 3, 19, 21, 14, 10]",8,0,[],42.74795535,8395,1525,1,0,8,1.6337827075255185
undo,19,32,0,0,0,0,[0],1,29,"[1, 2, 3, 4, 5, 6, 7, 8, 9, 10, 11, 12, 13, 14, 15, 16, 17, 18, 19, 20, 21, 22, 23, 24, 25, 26, 27, 28, 29]",300,155,-1,17,359,10,0.0
undo,19,32,0,0,0,19,"[0, 19]",2,28,"[1, 2, 3, 4, 5, 6, 7, 8, 9, 10, 11, 12, 13, 14, 15, 16, 17, 18, 20, 21, 22, 23, 24, 25, 26, 27, 28, 29]",283.5075775,2119,1964,16,294,10,1.0
undo,19,32,0,0,0,13,"[0, 19, 13]",3,24,"[2, 3, 4, 5, 6, 8, 9, 10, 11, 12, 14, 15, 16, 17, 18, 20, 21, 22, 23, 24, 25, 26, 27, 28]",260.3127505,3453,1334,14,227,10,1.0172874229878615
undo,19,32,0,0,0,15,"[0, 19, 13, 15]",4,18,"[2, 3, 5, 8, 9, 10, 11, 12, 16, 17, 20, 22, 23, 24, 25, 26, 27, 28]",177.4393531,4669,1216,9,116,10,1.435447391509833
undo,19,32,0,0,0,28,"[0, 19, 13, 15, 28]",5,17,"[2, 3, 5, 8, 9, 10, 11, 12, 16, 17, 20, 22, 23, 24, 25, 26, 27]",166.0375988,5318,649,9,70,10,1.3843701324937985
undo,19,32,0,0,0,12,"[0, 19, 13, 15, 28, 12]",6,14,"[2, 3, 5, 8, 9, 10, 11, 16, 17, 20, 22, 24, 26, 27]",147.0639329,5869,551,6,35,10,1.358372254952329
undo,19,32,0,0,0,16,"[0, 19, 13, 15, 28, 12, 16]",7,13,"[2, 3, 5, 8, 9, 10, 11, 17, 20, 22, 24, 26, 27]",131.411457,6508,639,5,15,10,1.4356932930709845
undo,19,32,0,0,0,22,"[0, 19, 13, 15, 28, 12, 16, 22]",8,6,"[2, 8, 9, 17, 20, 27]",97.57360838,7437,929,3,5,10,1.4335226411545752
undo,19,32,0,0,0,9,"[0, 19, 13, 15, 28, 12, 16, 22, 9]",9,3,"[2, 8, 20]",75.37000507,8099,662,3,0,10,1.4837166378374758
undo,19,32,0,0,1,2,"[0, 19, 13, 15, 28, 12, 16, 22, 9, 2]",10,0,[],24.28184597,11017,2918,1,0,10,1.9009621017233784
undo,19,32,0,1,1,2,"[0, 19, 13, 15, 28, 12, 16, 22, 9, 2]",10,0,[],24.28184597,12509,1492,1,0,10,1.9009621017233784
undo,20,19,0,0,0,0,[0],1,29,"[1, 2, 3, 4, 5, 6, 7, 8, 9, 10, 11, 12, 13, 14, 15, 16, 17, 18, 19, 20, 21, 22, 23, 24, 25, 26, 27, 28, 29]",300,165,-1,12,149,8,0.0
undo,20,19,0,0,0,12,"[0, 12]",2,15,"[1, 2, 3, 5, 8, 9, 13, 16, 17, 18, 19, 21, 23, 25, 29]",180.3964883,4243,4078,9,58,7,1.0
undo,20,19,0,0,0,17,"[0, 12, 17]",3,11,"[1, 2, 3, 8, 13, 16, 18, 19, 23, 25, 29]",160.2718765,5126,883,6,25,7,1.0081383695928103
undo,20,19,0,0,0,25,"[0, 12, 17, 25]",4,10,"[1, 2, 3, 8, 13, 16, 18, 19, 23, 29]",149.2265155,5709,583,6,16,7,1.1056437189959143
undo,20,19,0,0,0,2,"[0, 12, 17, 25, 2]",5,3,"[3, 8, 23]",79.6420345,7037,1328,3,0,6,1.0703296026876692
undo,20,19,0,0,1,8,"[0, 12, 17, 25, 2, 8]",6,0,[],14.15157718,8319,1282,1,0,6,1.3117696518181117
undo,20,19,1,0,0,2,"[0, 12, 17, 25, 2]",5,3,"[3, 8, 23]",79.6420345,9913,1594,3,0,6,1.0703296026876692
undo,20,19,1,0,0,25,"[0, 12, 17, 25]",4,10,"[1, 2, 3, 8, 13, 16, 18, 19, 23, 29]",149.2265155,10062,149,6,16,7,1.1056437189959143
undo,20,19,1,0,0,17,"[0, 12, 17]",3,11,"[1, 2, 3, 8, 13, 16, 18, 19, 23, 25, 29]",160.2718765,10262,200,6,25,7,1.0081383695928103
undo,20,19,1,0,0,12,"[0, 12]",2,15,"[1, 2, 3, 5, 8, 9, 13, 16, 17, 18, 19, 21, 23, 25, 29]",180.3964883,10445,183,9,58,7,1.0
undo,20,19,1,0,0,0,[0],1,29,"[1, 2, 3, 4, 5, 6, 7, 8, 9, 10, 11, 12, 13, 14, 15, 16, 17, 18, 19, 20, 21, 22, 23, 24, 25, 26, 27, 28, 29]",300,11429,984,12,149,8,0.0
undo,20,19,0,0,0,29,"[0, 29]",2,28,"[1, 2, 3, 4, 5, 6, 7, 8, 9, 10, 11, 12, 13, 14, 15, 16, 17, 18, 19, 20, 21, 22, 23, 24, 25, 26, 27, 28]",265.0715016,12318,889,12,120,8,1.0
undo,20,19,0,0,0,9,"[0, 29, 9]",3,17,"[1, 4, 5, 6, 7, 10, 11, 12, 13, 14, 19, 20, 21, 22, 24, 27, 28]",181.7108394,13137,819,11,65,8,1.0375842971861238
undo,20,19,0,0,0,6,"[0, 29, 9, 6]",4,12,"[4, 7, 10, 11, 13, 14, 20, 21, 22, 24, 27, 28]",140.2741407,14154,1017,11,34,8,1.0389786364356892
undo,20,19,0,0,0,14,"[0, 29, 9, 6, 14]",5,7,"[4, 10, 11, 20, 22, 24, 28]",80.59164747,16761,2607,3,6,8,1.0491884155331486
undo,20,19,0,0,0,11,"[0, 29, 9, 6, 14, 11]",6,5,"[4, 20, 22, 24, 28]",69.77499364,17484,723,3,2,8,1.050030420094996
undo,20,19,0,0,0,20,"[0, 29, 9, 6, 14, 11, 20]",7,1,[22],21.97332003,19635,2151,1,0,8,1.2297732331070566
undo,20,19,0,0,1,22,"[0, 29, 9, 6, 14, 11, 20, 22]",8,0,[],8.82037359,20167,532,1,0,8,1.3667995105273867
undo,20,19,0,1,1,22,"[0, 29, 9, 6, 14, 11, 20, 22]",8,0,[],8.82037359,22359,2192,1,0,8,1.3667995105273867
undo,21,35,0,0,0,0,[0],1,29,"[1, 2, 3, 4, 5, 6, 7, 8, 9, 10, 11, 12, 13, 14, 15, 16, 17, 18, 19, 20, 21, 22, 23, 24, 25, 26, 27, 28, 29]",300,146,-1,5,236,11,0.0
undo,21,35,0,0,0,24,"[0, 24]",2,27,"[1, 2, 4, 5, 6, 7, 8, 9, 10, 11, 12, 13, 14, 15, 16, 17, 18, 19, 20, 21, 22, 23, 25, 26, 27, 28, 29]",268.9838752,9871,9725,49,512,10,1.0
undo,21,35,0,0,0,17,"[0, 24, 17]",3,26,"[1, 2, 4, 5, 6, 7, 8, 9, 10, 11, 12, 13, 14, 15, 16, 18, 19, 20, 21, 22, 23, 25, 26, 27, 28, 29]",257.2791753,11088,1217,33,238,10,1.0771477201815276
undo,21,35,0,0,0,1,"[0, 24, 17, 1]",4,25,"[2, 4, 5, 6, 7, 8, 9, 10, 11, 12, 13, 14, 15, 16, 18, 19, 20, 21, 22, 23, 25, 26, 27, 28, 29]",241.4677869,11658,570,26,151,10,1.2244804141479215
undo,21,35,0,0,0,15,"[0, 24, 17, 1, 15]",5,23,"[2, 4, 5, 6, 7, 8, 9, 10, 11, 12, 14, 16, 18, 19, 20, 21, 22, 23, 25, 26, 27, 28, 29]",218.6204676,12599,941,26,78,10,1.4642196672428094
undo,21,35,0,0,0,23,"[0, 24, 17, 1, 15, 23]",6,11,"[4, 5, 6, 9, 18, 19, 25, 26, 27, 28, 29]",158.1804147,13303,704,15,12,10,1.3338903684702363
undo,21,35,0,0,0,9,"[0, 24, 17, 1, 15, 23, 9]",7,6,"[5, 6, 18, 19, 25, 27]",120.5373542,14133,830,6,1,10,1.5964380615155294
undo,21,35,0,0,0,18,"[0, 24, 17, 1, 15, 23, 9, 18]",8,3,"[5, 6, 25]",100.5123698,14732,599,2,1,10,1.5508488101942703
undo,21,35,0,0,0,25,"[0, 24, 17, 1, 15, 23, 9, 18, 25]",9,1,[6],66.67452121,16998,2266,1,0,10,1.4408023801578587
undo,21,35,0,0,1,6,"[0, 24, 17, 1, 15, 23, 9, 18, 25, 6]",10,0,[],42.65369691,17898,900,1,0,10,1.701781671832088
undo,21,35,1,0,0,25,"[0, 24, 17, 1, 15, 23, 9, 18, 25]",9,1,[6],66.67452121,18908,1010,1,0,10,1.4408023801578587
undo,21,35,1,0,0,18,"[0, 24, 17, 1, 15, 23, 9, 18]",8,3,"[5, 6, 25]",100.5123698,19058,150,2,1,10,1.5508488101942703
undo,21,35,1,0,0,9,"[0, 24, 17, 1, 15, 23, 9]",7,6,"[5, 6, 18, 19, 25, 27]",120.5373542,19341,283,6,1,10,1.5964380615155294
undo,21,35,1,0,0,23,"[0, 24, 17, 1, 15, 23]",6,11,"[4, 5, 6, 9, 18, 19, 25, 26, 27, 28, 29]",158.1804147,19574,233,15,12,10,1.3338903684702363
undo,21,35,1,0,0,15,"[0, 24, 17, 1, 15]",5,23,"[2, 4, 5, 6, 7, 8, 9, 10, 11, 12, 14, 16, 18, 19, 20, 21, 22, 23, 25, 26, 27, 28, 29]",218.6204676,19807,233,26,78,10,1.4642196672428094
undo,21,35,1,0,0,1,"[0, 24, 17, 1]",4,25,"[2, 4, 5, 6, 7, 8, 9, 10, 11, 12, 13, 14, 15, 16, 18, 19, 20, 21, 22, 23, 25, 26, 27, 28, 29]",241.4677869,24039,4232,26,151,10,1.2244804141479215
undo,21,35,1,0,0,17,"[0, 24, 17]",3,26,"[1, 2, 4, 5, 6, 7, 8, 9, 10, 11, 12, 13, 14, 15, 16, 18, 19, 20, 21, 22, 23, 25, 26, 27, 28, 29]",257.2791753,24389,350,33,238,10,1.0771477201815276
undo,21,35,1,0,0,24,"[0, 24]",2,27,"[1, 2, 4, 5, 6, 7, 8, 9, 10, 11, 12, 13, 14, 15, 16, 17, 18, 19, 20, 21, 22, 23, 25, 26, 27, 28, 29]",268.9838752,24673,284,49,512,10,1.0
undo,21,35,1,0,0,0,[0],1,29,"[1, 2, 3, 4, 5, 6, 7, 8, 9, 10, 11, 12, 13, 14, 15, 16, 17, 18, 19, 20, 21, 22, 23, 24, 25, 26, 27, 28, 29]",300,25139,466,5,236,11,0.0
undo,21,35,0,0,0,15,"[0, 15]",2,27,"[1, 2, 4, 5, 6, 7, 8, 9, 10, 11, 12, 13, 14, 16, 17, 18, 19, 20, 21, 22, 23, 24, 25, 26, 27, 28, 29]",244.4212271,26000,861,9,149,10,1.0
undo,21,35,0,0,0,1,"[0, 15, 1]",3,23,"[2, 4, 5, 6, 7, 8, 9, 10, 11, 12, 16, 17, 18, 19, 20, 21, 23, 24, 25, 26, 27, 28, 29]",221.5739078,26679,679,4,66,10,1.6406557820220038
undo,21,35,0,0,0,17,"[0, 15, 1, 17]",4,17,"[2, 4, 5, 6, 9, 10, 16, 18, 19, 21, 23, 24, 25, 26, 27, 28, 29]",205.7625195,27496,817,2,30,10,2.3760704056873276
undo,21,35,0,0,0,24,"[0, 15, 1, 17, 24]",5,16,"[2, 4, 5, 6, 9, 10, 16, 18, 19, 21, 23, 25, 26, 27, 28, 29]",194.0578195,28027,531,2,21,10,3.4157129896624867
undo,21,35,0,0,0,27,"[0, 15, 1, 17, 24, 27]",6,11,"[2, 5, 9, 10, 16, 18, 19, 21, 23, 26, 28]",149.8763755,28829,802,6,7,8,7.076895526683528
undo,21,35,0,0,0,2,"[0, 15, 1, 17, 24, 27, 2]",7,2,"[21, 28]",88.52492888,30596,1767,2,0,8,2.6121972093983805
undo,21,35,0,0,1,28,"[0, 15, 1, 17, 24, 27, 2, 28]",8,0,[],42.98373873,31311,715,1,0,8,4.407792516642239
undo,21,35,1,0,0,2,"[0, 15, 1, 17, 24, 27, 2]",7,2,"[21, 28]",88.52492888,34853,3542,2,0,8,2.6121972093983805
undo,21,35,1,0,0,27,"[0, 15, 1, 17, 24, 27]",6,11,"[2, 5, 9, 10, 16, 18, 19, 21, 23, 26, 28]",149.8763755,35053,200,6,7,8,7.076895526683528
undo,21,35,1,0,0,24,"[0, 15, 1, 17, 24]",5,16,"[2, 4, 5, 6, 9, 10, 16, 18, 19, 21, 23, 25, 26, 27, 28, 29]",194.0578195,35453,400,2,21,10,3.4157129896624867
undo,21,35,1,0,0,17,"[0, 15, 1, 17]",4,17,"[2, 4, 5, 6, 9, 10, 16, 18, 19, 21, 23, 24, 25, 26, 27, 28, 29]",205.7625195,35685,232,2,30,10,2.3760704056873276
undo,21,35,1,0,0,1,"[0, 15, 1]",3,23,"[2, 4, 5, 6, 7, 8, 9, 10, 11, 12, 16, 17, 18, 19, 20, 21, 23, 24, 25, 26, 27, 28, 29]",221.5739078,35870,185,4,66,10,1.6406557820220038
undo,21,35,1,0,0,15,"[0, 15]",2,27,"[1, 2, 4, 5, 6, 7, 8, 9, 10, 11, 12, 13, 14, 16, 17, 18, 19, 20, 21, 22, 23, 24, 25, 26, 27, 28, 29]",244.4212271,36053,183,9,149,10,1.0
undo,21,35,1,0,0,0,[0],1,29,"[1, 2, 3, 4, 5, 6, 7, 8, 9, 10, 11, 12, 13, 14, 15, 16, 17, 18, 19, 20, 21, 22, 23, 24, 25, 26, 27, 28, 29]",300,36319,266,5,236,11,0.0
undo,21,35,0,0,0,24,"[0, 24]",2,27,"[1, 2, 4, 5, 6, 7, 8, 9, 10, 11, 12, 13, 14, 15, 16, 17, 18, 19, 20, 21, 22, 23, 25, 26, 27, 28, 29]",268.9838752,38225,1906,49,512,10,1.0
undo,21,35,0,0,0,17,"[0, 24, 17]",3,26,"[1, 2, 4, 5, 6, 7, 8, 9, 10, 11, 12, 13, 14, 15, 16, 18, 19, 20, 21, 22, 23, 25, 26, 27, 28, 29]",257.2791753,38817,592,33,238,10,1.0771477201815276
undo,21,35,0,0,0,1,"[0, 24, 17, 1]",4,25,"[2, 4, 5, 6, 7, 8, 9, 10, 11, 12, 13, 14, 15, 16, 18, 19, 20, 21, 22, 23, 25, 26, 27, 28, 29]",241.4677869,39369,552,26,151,10,1.2244804141479215
undo,21,35,0,0,0,15,"[0, 24, 17, 1, 15]",5,23,"[2, 4, 5, 6, 7, 8, 9, 10, 11, 12, 14, 16, 18, 19, 20, 21, 22, 23, 25, 26, 27, 28, 29]",218.6204676,40244,875,26,78,10,1.4642196672428094
undo,21,35,0,0,0,5,"[0, 24, 17, 1, 15, 5]",6,13,"[4, 6, 9, 11, 18, 19, 20, 23, 25, 26, 27, 28, 29]",162.2999563,41255,1011,7,20,10,1.2337505118614283
undo,21,35,0,0,0,23,"[0, 24, 17, 1, 15, 5, 23]",7,4,"[6, 9, 18, 25]",107.8481427,41893,638,6,6,10,1.8072927740829974
undo,21,35,0,0,0,9,"[0, 24, 17, 1, 15, 5, 23, 9]",8,3,"[6, 18, 25]",70.20508226,42508,615,2,2,10,2.044176666334238
undo,21,35,0,0,0,18,"[0, 24, 17, 1, 15, 5, 23, 9, 18]",9,2,"[6, 25]",50.18009787,44217,1709,2,0,10,1.942139959218181
undo,21,35,0,0,1,25,"[0, 24, 17, 1, 15, 5, 23, 9, 18, 25]",10,0,[],16.34224924,45390,1173,1,0,10,1.7516079451103164
undo,21,35,0,1,1,25,"[0, 24, 17, 1, 15, 5, 23, 9, 18, 25]",10,0,[],16.34224924,46966,1576,1,0,10,1.7516079451103164
undo,22,30,0,0,0,0,[0],1,19,"[3, 4, 5, 7, 9, 11, 16, 17, 18, 19, 20, 21, 22, 24, 25, 26, 27, 28, 29]",300,146,-1,5,41,8,0.0
undo,22,30,0,0,0,27,"[0, 27]",2,10,"[3, 5, 7, 9, 18, 19, 20, 24, 25, 29]",90.59608409,2603,2457,7,22,6,1.0
undo,22,30,0,0,0,3,"[0, 27, 3]",3,8,"[5, 7, 18, 19, 20, 24, 25, 29]",71.49111091,3237,634,5,9,6,1.0022223300201003
undo,22,30,0,0,0,5,"[0, 27, 3, 5]",4,4,"[7, 18, 24, 29]",46.65162621,6039,2802,1,3,6,1.047699458031665
undo,22,30,0,0,0,18,"[0, 27, 3, 5, 18]",5,1,[29],33.6132214,6640,601,1,0,6,1.0906504953306948
undo,22,30,0,0,1,29,"[0, 27, 3, 5, 18, 29]",6,0,[],14.30001349,9801,3161,1,0,6,1.1734964103241567
undo,22,30,1,0,0,18,"[0, 27, 3, 5, 18]",5,1,[29],33.6132214,12543,2742,1,0,6,1.0906504953306948
undo,22,30,1,0,0,5,"[0, 27, 3, 5]",4,4,"[7, 18, 24, 29]",46.65162621,12710,167,1,3,6,1.047699458031665
undo,22,30,1,0,0,3,"[0, 27, 3]",3,8,"[5, 7, 18, 19, 20, 24, 25, 29]",71.49111091,12877,167,5,9,6,1.0022223300201003
undo,22,30,1,0,0,27,"[0, 27]",2,10,"[3, 5, 7, 9, 18, 19, 20, 24, 25, 29]",90.59608409,13060,183,7,22,6,1.0
undo,22,30,1,0,0,0,[0],1,19,"[3, 4, 5, 7, 9, 11, 16, 17, 18, 19, 20, 21, 22, 24, 25, 26, 27, 28, 29]",300,13375,315,5,41,8,0.0
undo,22,30,0,0,0,16,"[0, 16]",2,17,"[3, 5, 7, 9, 11, 17, 18, 19, 20, 21, 22, 24, 25, 26, 27, 28, 29]",219.3774225,14864,1489,5,34,8,1.0
undo,22,30,0,0,0,25,"[0, 16, 25]",3,10,"[3, 5, 7, 9, 11, 18, 19, 20, 27, 29]",115.0845656,15869,1005,5,28,8,1.0336279544884488
undo,22,30,0,0,0,20,"[0, 16, 25, 20]",4,8,"[3, 5, 7, 9, 18, 19, 27, 29]",93.15285342,16998,1129,4,14,8,1.0337964627284246
undo,22,30,0,0,0,27,"[0, 16, 25, 20, 27]",5,4,"[3, 5, 18, 29]",59.09408069,17654,656,4,6,8,1.1504365534848
undo,22,30,0,0,0,3,"[0, 16, 25, 20, 27, 3]",6,3,"[5, 18, 29]",39.98910751,18367,713,4,0,8,1.1403876826835333
undo,22,30,0,0,0,29,"[0, 16, 25, 20, 27, 3, 29]",7,1,[18],21.38803228,19215,848,1,0,8,1.1443827771455848
undo,22,30,0,0,1,18,"[0, 16, 25, 20, 27, 3, 29, 18]",8,0,[],2.074824359,19882,667,1,0,8,1.2197761544023602
undo,22,30,0,1,1,18,"[0, 16, 25, 20, 27, 3, 29, 18]",8,0,[],2.074824359,21823,1941,1,0,8,1.2197761544023602
basic,23,7,0,0,0,0,[0],1,29,"[1, 2, 3, 4, 5, 6, 7, 8, 9, 10, 11, 12, 13, 14, 15, 16, 17, 18, 19, 20, 21, 22, 23, 24, 25, 26, 27, 28, 29]",300,182,-1,3,79,9,0.0
basic,23,7,0,0,0,25,"[0, 25]",2,20,"[2, 3, 4, 5, 6, 7, 10, 13, 14, 15, 16, 18, 19, 20, 21, 22, 23, 24, 27, 28]",181.5939191,10020,9838,5,33,8,1.0
basic,23,7,0,0,0,4,"[0, 25, 4]",3,11,"[2, 6, 7, 13, 15, 16, 18, 19, 20, 21, 23]",156.8552853,10962,942,2,14,8,1.0193465608331511
basic,23,7,0,0,0,20,"[0, 25, 4, 20]",4,8,"[2, 6, 7, 13, 15, 16, 18, 19]",137.2084026,12862,1900,1,9,8,1.085904909082323
basic,23,7,0,0,0,18,"[0, 25, 4, 20, 18]",5,7,"[2, 6, 7, 13, 15, 16, 19]",124.4021541,13619,757,1,5,8,1.2264883846453758
basic,23,7,0,0,0,7,"[0, 25, 4, 20, 18, 7]",6,2,"[2, 19]",83.17109789,14727,1108,1,1,8,1.185264473968278
basic,23,7,0,0,0,19,"[0, 25, 4, 20, 18, 7, 19]",7,1,[2],53.76021555,15555,828,1,0,8,1.3016904288278204
basic,23,7,0,0,1,2,"[0, 25, 4, 20, 18, 7, 19, 2]",8,0,[],23.61058868,16355,800,1,0,8,1.3168868000947171
basic,23,7,0,1,1,2,"[0, 25, 4, 20, 18, 7, 19, 2]",8,0,[],23.61058868,18793,2438,1,0,8,1.3168868000947171
basic,24,5,0,0,0,0,[0],1,29,"[1, 2, 3, 4, 5, 6, 7, 8, 9, 10, 11, 12, 13, 14, 15, 16, 17, 18, 19, 20, 21, 22, 23, 24, 25, 26, 27, 28, 29]",300,131,-1,5,139,9,0.0
basic,24,5,0,0,0,23,"[0, 23]",2,27,"[1, 2, 3, 4, 5, 6, 7, 8, 9, 10, 11, 12, 13, 14, 15, 16, 17, 18, 19, 20, 21, 22, 24, 25, 26, 27, 28]",249.8402552,11051,10920,3,75,9,1.0
basic,24,5,0,0,0,12,"[0, 23, 12]",3,20,"[2, 4, 5, 6, 8, 9, 10, 13, 14, 15, 16, 17, 18, 19, 21, 22, 24, 25, 26, 27]",206.6661889,13551,2500,12,56,8,1.3018394868431302
basic,24,5,0,0,0,25,"[0, 23, 12, 25]",4,18,"[2, 4, 5, 6, 8, 9, 10, 13, 14, 15, 17, 18, 19, 21, 22, 24, 26, 27]",178.8813009,14551,1000,12,34,8,1.9286025844958365
basic,24,5,0,0,0,24,"[0, 23, 12, 25, 24]",5,14,"[4, 5, 6, 8, 9, 13, 14, 15, 17, 18, 19, 22, 26, 27]",154.0418162,15502,951,9,16,8,2.0153742455218557
basic,24,5,0,0,0,17,"[0, 23, 12, 25, 24, 17]",6,7,"[4, 5, 6, 8, 15, 18, 19]",119.0561048,18210,2708,8,2,8,1.6946205255346762
basic,24,5,0,0,0,5,"[0, 23, 12, 25, 24, 17, 5]",7,4,"[4, 6, 15, 18]",76.00961835,19303,1093,4,0,8,1.498607098302
basic,24,5,0,0,1,15,"[0, 23, 12, 25, 24, 17, 5, 15]",8,0,[],35.98462616,20734,1431,1,0,8,1.4940703226391534
basic,24,5,0,1,1,15,"[0, 23, 12, 25, 24, 17, 5, 15]",8,0,[],35.98462616,24024,3290,1,0,8,1.4940703226391534
basic,25,23,0,0,0,0,[0],1,28,"[1, 2, 3, 4, 5, 6, 7, 8, 9, 10, 11, 12, 13, 14, 15, 16, 17, 18, 19, 20, 21, 22, 23, 25, 26, 27, 28, 29]",300,146,-1,76,2626,10,0.0
basic,25,23,0,0,0,13,"[0, 13]",2,19,"[1, 2, 3, 5, 6, 7, 8, 9, 10, 12, 14, 17, 18, 19, 21, 22, 23, 27, 29]",189.3202819,7509,7363,9,168,10,1.0
basic,25,23,0,0,0,12,"[0, 13, 12]",3,16,"[1, 2, 3, 6, 7, 8, 9, 10, 14, 17, 18, 21, 22, 23, 27, 29]",177.2372359,8199,690,9,96,10,1.0014195490503164
basic,25,23,0,0,0,9,"[0, 13, 12, 9]",4,13,"[1, 2, 3, 6, 7, 10, 14, 17, 18, 21, 22, 27, 29]",162.9194149,10486,2287,3,30,10,1.049232924848041
basic,25,23,0,0,0,14,"[0, 13, 12, 9, 14]",5,11,"[1, 2, 3, 6, 7, 10, 18, 21, 22, 27, 29]",152.4791083,11255,769,1,9,10,1.047064109194793
basic,25,23,0,0,0,2,"[0, 13, 12, 9, 14, 2]",6,7,"[6, 7, 10, 18, 22, 27, 29]",137.6130396,11868,613,4,12,9,1.1900073741388617
basic,25,23,0,0,0,6,"[0, 13, 12, 9, 14, 2, 6]",7,5,"[7, 18, 22, 27, 29]",119.1739507,12791,923,3,3,9,1.2035561408942026
basic,25,23,0,0,0,27,"[0, 13, 12, 9, 14, 2, 6, 27]",8,2,"[18, 22]",90.87200729,13401,610,2,0,9,1.460613258021435
basic,25,23,0,0,1,18,"[0, 13, 12, 9, 14, 2, 6, 27, 18]",9,0,[],15.55932576,14271,870,1,0,9,2.9597139353041295
basic,25,23,0,1,1,18,"[0, 13, 12, 9, 14, 2, 6, 27, 18]",9,0,[],15.55932576,15675,1404,1,0,9,2.9597139353041295
basic,26,39,0,0,0,0,[0],1,28,"[1, 2, 3, 4, 5, 6, 7, 9, 10, 11, 12, 13, 14, 15, 16, 17, 18, 19, 20, 21, 22, 23, 24, 25, 26, 27, 28, 29]",300,147,-1,1,30,10,0.0
basic,26,39,0,0,0,29,"[0, 29]",2,26,"[1, 2, 3, 4, 5, 6, 7, 9, 10, 12, 13, 14, 15, 16, 17, 18, 19, 20, 21, 22, 23, 24, 25, 26, 27, 28]",243.0614366,2887,2740,8,104,9,1.0
basic,26,39,0,0,0,12,"[0, 29, 12]",3,18,"[1, 2, 4, 5, 7, 9, 10, 13, 14, 15, 16, 18, 19, 22, 23, 24, 26, 28]",182.5221931,4516,1629,5,54,9,1.0026200331524904
basic,26,39,0,0,0,10,"[0, 29, 12, 10]",4,16,"[1, 2, 4, 5, 7, 9, 13, 14, 15, 16, 18, 19, 22, 23, 24, 26]",147.0116313,5469,953,5,34,9,1.2874817019928908
basic,26,39,0,0,0,7,"[0, 29, 12, 10, 7]",5,10,"[1, 2, 5, 13, 16, 18, 19, 22, 24, 26]",113.5900814,6369,900,4,12,9,1.2250826263866774
basic,26,39,0,0,0,26,"[0, 29, 12, 10, 7, 26]",6,5,"[1, 16, 18, 19, 22]",94.90853971,7000,631,3,4,9,1.2697275353190085
basic,26,39,0,0,0,22,"[0, 29, 12, 10, 7, 26, 22]",7,2,"[16, 19]",77.18849457,7752,752,2,0,9,1.438961743955176
basic,26,39,0,0,0,16,"[0, 29, 12, 10, 7, 26, 22, 16]",8,1,[19],42.18849457,9253,1501,1,0,9,1.3580882130477205
basic,26,39,0,0,1,19,"[0, 29, 12, 10, 7, 26, 22, 16, 19]",9,0,[],24.72424537,9936,683,1,0,9,1.3646589157842668
basic,26,39,0,1,1,19,"[0, 29, 12, 10, 7, 26, 22, 16, 19]",9,0,[],24.72424537,10994,1058,1,0,9,1.3646589157842668
basic,27,12,0,0,0,0,[0],1,29,"[1, 2, 3, 4, 5, 6, 7, 8, 9, 10, 11, 12, 13, 14, 15, 16, 17, 18, 19, 20, 21, 22, 23, 24, 25, 26, 27, 28, 29]",300,164,-1,2,32,9,0.0
basic,27,12,0,0,0,22,"[0, 22]",2,22,"[2, 4, 5, 6, 7, 9, 10, 12, 13, 14, 15, 16, 17, 18, 19, 21, 23, 24, 25, 27, 28, 29]",211.9943184,8802,8638,6,42,8,1.0
basic,27,12,0,0,0,16,"[0, 22, 16]",3,12,"[2, 4, 5, 6, 7, 12, 14, 19, 23, 24, 25, 27]",190.9943184,9736,934,6,24,8,1.2017164145167045
basic,27,12,0,0,0,4,"[0, 22, 16, 4]",4,9,"[2, 6, 7, 12, 14, 19, 24, 25, 27]",156.7890556,10352,616,6,14,8,1.146531713305579
basic,27,12,0,0,0,12,"[0, 22, 16, 4, 12]",5,4,"[14, 19, 24, 27]",114.5990094,11155,803,4,3,8,1.1221389456954312
basic,27,12,0,0,0,27,"[0, 22, 16, 4, 12, 27]",6,3,"[14, 19, 24]",90.24741807,11751,596,2,1,8,1.2262878338287035
basic,27,12,0,0,0,14,"[0, 22, 16, 4, 12, 27, 14]",7,1,[24],61.59432051,12469,718,1,0,8,1.2804562106751427
basic,27,12,0,0,1,24,"[0, 22, 16, 4, 12, 27, 14, 24]",8,0,[],44.38966997,13217,748,1,0,8,1.4322660007679802
basic,27,12,0,1,1,24,"[0, 22, 16, 4, 12, 27, 14, 24]",8,0,[],44.38966997,14577,1360,1,0,8,1.4322660007679802
basic,28,14,0,0,0,0,[0],1,29,"[1, 2, 3, 4, 5, 6, 7, 8, 9, 10, 11, 12, 13, 14, 15, 16, 17, 18, 19, 20, 21, 22, 23, 24, 25, 26, 27, 28, 29]",300,216,-1,8,157,10,0.0
basic,28,14,0,0,0,15,"[0, 15]",2,20,"[1, 2, 3, 4, 7, 8, 9, 13, 17, 18, 19, 20, 21, 22, 23, 25, 26, 27, 28, 29]",216.7053423,3573,3357,8,102,10,1.0
basic,28,14,0,0,0,28,"[0, 15, 28]",3,17,"[1, 2, 3, 4, 7, 8, 9, 13, 17, 18, 19, 20, 22, 23, 25, 26, 27]",197.4959696,4409,836,8,48,10,1.0446007867311968
basic,28,14,0,0,0,17,"[0, 15, 28, 17]",4,14,"[1, 2, 3, 4, 7, 8, 13, 18, 19, 20, 22, 23, 25, 26]",184.0423455,4992,583,8,39,10,1.0729463354689972
basic,28,14,0,0,0,18,"[0, 15, 28, 17, 18]",5,9,"[1, 2, 4, 7, 8, 19, 23, 25, 26]",119.412631,6064,1072,8,27,10,1.5035901079219378
basic,28,14,0,0,0,8,"[0, 15, 28, 17, 18, 8]",6,8,"[1, 2, 4, 7, 19, 23, 25, 26]",105.8111605,7389,1325,8,18,10,1.4819689987843856
basic,28,14,0,0,0,1,"[0, 15, 28, 17, 18, 8, 1]",7,5,"[7, 19, 23, 25, 26]",82.21031307,8196,807,4,6,10,1.4084991998385268
basic,28,14,0,0,0,19,"[0, 15, 28, 17, 18, 8, 1, 19]",8,4,"[7, 23, 25, 26]",66.97876686,8809,613,4,1,10,1.5758713333797987
basic,28,14,0,0,0,25,"[0, 15, 28, 17, 18, 8, 1, 19, 25]",9,2,"[7, 23]",31.1318702,10022,1213,2,0,10,1.6426186864061416
basic,28,14,0,0,1,7,"[0, 15, 28, 17, 18, 8, 1, 19, 25, 7]",10,0,[],11.4341546,10755,733,1,0,10,1.652323224159132
basic,28,14,0,1,1,7,"[0, 15, 28, 17, 18, 8, 1, 19, 25, 7]",10,0,[],11.4341546,11897,1142,1,0,10,1.652323224159132
basic,29,15,0,0,0,0,[0],1,25,"[1, 2, 3, 4, 7, 8, 9, 10, 11, 12, 13, 14, 15, 16, 18, 20, 21, 22, 23, 24, 25, 26, 27, 28, 29]",300,164,-1,4,65,9,0.0
basic,29,15,0,0,0,12,"[0, 12]",2,22,"[1, 2, 3, 4, 7, 8, 9, 10, 11, 13, 14, 15, 16, 18, 21, 22, 23, 24, 26, 27, 28, 29]",213.547701,4619,4455,4,35,9,1.0
basic,29,15,0,0,0,7,"[0, 12, 7]",3,16,"[1, 3, 4, 8, 9, 10, 11, 13, 14, 15, 16, 18, 21, 22, 24, 27]",180.3061607,5594,975,4,29,9,1.411291635294361
basic,29,15,0,0,0,11,"[0, 12, 7, 11]",4,9,"[3, 4, 13, 14, 15, 16, 21, 22, 27]",138.8212237,8073,2479,2,12,9,1.2980572092387541
basic,29,15,0,0,0,3,"[0, 12, 7, 11, 3]",5,7,"[4, 13, 14, 15, 16, 21, 22]",127.4194695,12602,4529,2,7,9,1.3036925309398455
basic,29,15,0,0,0,16,"[0, 12, 7, 11, 3, 16]",6,5,"[4, 13, 14, 15, 22]",102.3395971,13661,1059,2,2,9,1.731400260973498
basic,29,15,0,0,0,22,"[0, 12, 7, 11, 3, 16, 22]",7,2,"[13, 15]",43.48384117,15502,1841,2,0,9,1.4868316064029183
basic,29,15,0,0,0,15,"[0, 12, 7, 11, 3, 16, 22, 15]",8,1,[13],17.87134422,16901,1399,1,0,9,1.4366485266193194
basic,29,15,0,0,1,13,"[0, 12, 7, 11, 3, 16, 22, 15, 13]",9,0,[],2.607006702,18004,1103,1,0,9,1.4844435538306184
basic,29,15,0,1,1,13,"[0, 12, 7, 11, 3, 16, 22, 15, 13]",9,0,[],2.607006702,18626,622,1,0,9,1.4844435538306184
basic,30,30,0,0,0,0,[0],1,19,"[3, 4, 5, 7, 9, 11, 16, 17, 18, 19, 20, 21, 22, 24, 25, 26, 27, 28, 29]",300,147,-1,5,41,8,0.0
basic,30,30,0,0,0,16,"[0, 16]",2,17,"[3, 5, 7, 9, 11, 17, 18, 19, 20, 21, 22, 24, 25, 26, 27, 28, 29]",219.3774225,3123,2976,5,34,8,1.0
basic,30,30,0,0,0,25,"[0, 16, 25]",3,10,"[3, 5, 7, 9, 11, 18, 19, 20, 27, 29]",115.0845656,5226,2103,5,28,8,1.0336279544884488
basic,30,30,0,0,0,27,"[0, 16, 25, 27]",4,7,"[3, 5, 7, 18, 19, 20, 29]",75.52448473,6153,927,1,12,8,1.0719738181137488
basic,30,30,0,0,0,3,"[0, 16, 25, 27, 3]",5,5,"[5, 7, 18, 20, 29]",56.41951155,6987,834,1,4,8,1.0683252001879187
basic,30,30,0,0,0,29,"[0, 16, 25, 27, 3, 29]",6,2,"[5, 18]",37.81843632,7821,834,1,1,8,1.0768958290478794
basic,30,30,0,0,0,18,"[0, 16, 25, 27, 3, 29, 18]",7,1,[5],18.5052284,9303,1482,1,0,8,1.1525061930327378
basic,30,30,0,0,1,5,"[0, 16, 25, 27, 3, 29, 18, 5]",8,0,[],5.466823591,10432,1129,1,0,8,1.2180155123152177
basic,30,30,0,1,1,5,"[0, 16, 25, 27, 3, 29, 18, 5]",8,0,[],5.466823591,11278,846,1,0,8,1.2180155123152177
basic,31,26,0,0,0,0,[0],1,29,"[1, 2, 3, 4, 5, 6, 7, 8, 9, 10, 11, 12, 13, 14, 15, 16, 17, 18, 19, 20, 21, 22, 23, 24, 25, 26, 27, 28, 29]",300,164,-1,9,226,9,0.0
basic,31,26,0,0,0,21,"[0, 21]",2,25,"[2, 3, 4, 5, 6, 7, 8, 10, 11, 12, 13, 14, 15, 16, 17, 18, 19, 22, 23, 24, 25, 26, 27, 28, 29]",211.1349337,6228,6064,7,90,9,1.0
basic,31,26,0,0,0,16,"[0, 21, 16]",3,12,"[4, 5, 6, 10, 11, 12, 13, 14, 17, 23, 26, 29]",151.2266705,7182,954,1,34,9,1.3289691188319968
basic,31,26,0,0,0,29,"[0, 21, 16, 29]",4,8,"[4, 5, 6, 10, 13, 14, 17, 23]",127.0192337,7820,638,1,28,9,1.4156891800947415
basic,31,26,0,0,0,4,"[0, 21, 16, 29, 4]",5,5,"[6, 10, 14, 17, 23]",103.0192337,8783,963,1,12,9,1.6252228687746915
basic,31,26,0,0,0,17,"[0, 21, 16, 29, 4, 17]",6,3,"[6, 10, 14]",81.92421056,10175,1392,1,4,9,1.534793846471065
basic,31,26,0,0,0,14,"[0, 21, 16, 29, 4, 17, 14]",7,2,"[6, 10]",59.45200551,10968,793,1,1,9,1.4926767408397108
basic,31,26,0,0,0,6,"[0, 21, 16, 29, 4, 17, 14, 6]",8,1,[10],38.42820947,11790,822,1,0,9,1.6286010900012204
basic,31,26,0,0,1,10,"[0, 21, 16, 29, 4, 17, 14, 6, 10]",9,0,[],9.153647129,12623,833,1,0,9,1.797369356615424
basic,31,26,0,1,1,10,"[0, 21, 16, 29, 4, 17, 14, 6, 10]",9,0,[],9.153647129,14093,1470,1,0,9,1.797369356615424
basic,32,32,0,0,0,0,[0],1,29,"[1, 2, 3, 4, 5, 6, 7, 8, 9, 10, 11, 12, 13, 14, 15, 16, 17, 18, 19, 20, 21, 22, 23, 24, 25, 26, 27, 28, 29]",300,147,-1,17,359,10,0.0
basic,32,32,0,0,0,19,"[0, 19]",2,28,"[1, 2, 3, 4, 5, 6, 7, 8, 9, 10, 11, 12, 13, 14, 15, 16, 17, 18, 20, 21, 22, 23, 24, 25, 26, 27, 28, 29]",283.5075775,3153,3006,16,294,10,1.0
basic,32,32,0,0,0,13,"[0, 19, 13]",3,24,"[2, 3, 4, 5, 6, 8, 9, 10, 11, 12, 14, 15, 16, 17, 18, 20, 21, 22, 23, 24, 25, 26, 27, 28]",260.3127505,3824,671,14,227,10,1.0172874229878615
basic,32,32,0,0,0,15,"[0, 19, 13, 15]",4,18,"[2, 3, 5, 8, 9, 10, 11, 12, 16, 17, 20, 22, 23, 24, 25, 26, 27, 28]",177.4393531,4674,850,9,116,10,1.435447391509833
basic,32,32,0,0,0,28,"[0, 19, 13, 15, 28]",5,17,"[2, 3, 5, 8, 9, 10, 11, 12, 16, 17, 20, 22, 23, 24, 25, 26, 27]",166.0375988,5571,897,9,70,10,1.3843701324937985
basic,32,32,0,0,0,12,"[0, 19, 13, 15, 28, 12]",6,14,"[2, 3, 5, 8, 9, 10, 11, 16, 17, 20, 22, 24, 26, 27]",147.0639329,6404,833,6,35,10,1.358372254952329
basic,32,32,0,0,0,16,"[0, 19, 13, 15, 28, 12, 16]",7,13,"[2, 3, 5, 8, 9, 10, 11, 17, 20, 22, 24, 26, 27]",131.411457,7011,607,5,15,10,1.4356932930709845
basic,32,32,0,0,0,22,"[0, 19, 13, 15, 28, 12, 16, 22]",8,6,"[2, 8, 9, 17, 20, 27]",97.57360838,7743,732,3,5,10,1.4335226411545752
basic,32,32,0,0,0,9,"[0, 19, 13, 15, 28, 12, 16, 22, 9]",9,3,"[2, 8, 20]",75.37000507,9019,1276,3,0,10,1.4837166378374758
basic,32,32,0,0,1,2,"[0, 19, 13, 15, 28, 12, 16, 22, 9, 2]",10,0,[],24.28184597,11419,2400,1,0,10,1.9009621017233784
basic,32,32,0,1,1,2,"[0, 19, 13, 15, 28, 12, 16, 22, 9, 2]",10,0,[],24.28184597,12860,1441,1,0,10,1.9009621017233784
basic,33,2,0,0,0,0,[0],1,23,"[1, 2, 4, 5, 6, 7, 8, 9, 12, 13, 15, 16, 17, 18, 19, 20, 22, 23, 25, 26, 27, 28, 29]",300,131,-1,70,620,10,0.0
basic,33,2,0,0,0,19,"[0, 19]",2,22,"[1, 2, 4, 5, 6, 7, 8, 9, 12, 13, 15, 16, 17, 18, 20, 22, 23, 25, 26, 27, 28, 29]",210.306076,2557,2426,67,431,10,1.0
basic,33,2,0,0,0,12,"[0, 19, 12]",3,17,"[1, 4, 5, 6, 7, 13, 15, 16, 17, 18, 20, 22, 25, 26, 27, 28, 29]",174.2921898,3445,888,66,298,10,1.1107635036313153
basic,33,2,0,0,0,5,"[0, 19, 12, 5]",4,11,"[1, 6, 7, 13, 15, 16, 18, 22, 25, 26, 29]",144.7625437,4672,1227,38,136,10,1.0968174771581647
basic,33,2,0,0,0,22,"[0, 19, 12, 5, 22]",5,8,"[1, 6, 7, 13, 15, 18, 26, 29]",131.9562952,5418,746,20,63,10,1.0889910507461968
basic,33,2,0,0,0,13,"[0, 19, 12, 5, 22, 13]",6,7,"[1, 6, 7, 15, 18, 26, 29]",117.0902265,6021,603,19,20,10,1.236526217328057
basic,33,2,0,0,0,18,"[0, 19, 12, 5, 22, 13, 18]",7,4,"[7, 15, 26, 29]",81.91921567,7288,1267,10,3,10,1.2128708213409936
basic,33,2,0,0,0,7,"[0, 19, 12, 5, 22, 13, 18, 7]",8,3,"[15, 26, 29]",71.62358553,7908,620,5,0,10,1.2019811287894737
basic,33,2,0,0,0,26,"[0, 19, 12, 5, 22, 13, 18, 7, 26]",9,2,"[15, 29]",48.82007703,10272,2364,2,0,10,1.1883593342191134
basic,33,2,0,0,1,15,"[0, 19, 12, 5, 22, 13, 18, 7, 26, 15]",10,0,[],24.61264015,11223,951,1,0,10,1.4619750353663825
basic,33,2,0,1,1,15,"[0, 19, 12, 5, 22, 13, 18, 7, 26, 15]",10,0,[],24.61264015,12594,1371,1,0,10,1.4619750353663825
basic,34,45,0,0,0,0,[0],1,24,"[1, 2, 3, 4, 5, 6, 7, 9, 10, 11, 12, 14, 15, 16, 17, 19, 20, 21, 22, 23, 24, 25, 27, 29]",300,164,-1,6,248,10,0.0
basic,34,45,0,0,0,15,"[0, 15]",2,23,"[1, 2, 3, 4, 5, 6, 7, 9, 10, 11, 12, 14, 16, 17, 19, 20, 21, 22, 23, 24, 25, 27, 29]",253.9022777,3260,3096,5,207,10,1.0
basic,34,45,0,0,0,23,"[0, 15, 23]",3,22,"[1, 2, 3, 4, 5, 6, 7, 9, 10, 11, 12, 14, 16, 17, 19, 20, 21, 22, 24, 25, 27, 29]",230.3014303,4136,876,5,163,10,1.0006068457769497
basic,34,45,0,0,0,20,"[0, 15, 23, 20]",4,19,"[1, 2, 3, 5, 6, 7, 9, 10, 11, 12, 14, 16, 17, 19, 21, 22, 24, 25, 29]",188.8647316,5438,1302,5,137,10,1.2062119754673604
basic,34,45,0,0,0,10,"[0, 15, 23, 20, 10]",5,12,"[2, 3, 6, 7, 9, 12, 14, 17, 22, 24, 25, 29]",132.784432,7070,1632,1,54,10,1.1363907740691004
basic,34,45,0,0,0,29,"[0, 15, 23, 20, 10, 29]",6,8,"[2, 3, 6, 7, 12, 14, 22, 24]",111.2437728,9718,2648,1,21,10,1.1719694806770014
basic,34,45,0,0,0,3,"[0, 15, 23, 20, 10, 29, 3]",7,5,"[2, 6, 7, 12, 22]",91.24377276,10558,840,1,7,10,1.1637144299354454
basic,34,45,0,0,0,6,"[0, 15, 23, 20, 10, 29, 3, 6]",8,2,"[12, 22]",55.0084309,11774,1216,1,1,10,1.422423644740367
basic,34,45,0,0,0,12,"[0, 15, 23, 20, 10, 29, 3, 6, 12]",9,1,[22],34.8838191,12727,953,1,0,10,1.395348320526316
basic,34,45,0,0,1,22,"[0, 15, 23, 20, 10, 29, 3, 6, 12, 22]",10,0,[],3.308512292,13619,892,1,0,10,1.3962454826892252
basic,34,45,0,1,1,22,"[0, 15, 23, 20, 10, 29, 3, 6, 12, 22]",10,0,[],3.308512292,14827,1208,1,0,10,1.3962454826892252
basic,35,24,0,0,0,0,[0],1,29,"[1, 2, 3, 4, 5, 6, 7, 8, 9, 10, 11, 12, 13, 14, 15, 16, 17, 18, 19, 20, 21, 22, 23, 24, 25, 26, 27, 28, 29]",300,164,-1,4,76,10,0.0
basic,35,24,0,0,0,14,"[0, 14]",2,27,"[1, 2, 3, 4, 5, 6, 8, 9, 10, 11, 12, 13, 15, 16, 17, 18, 19, 20, 21, 22, 23, 24, 25, 26, 27, 28, 29]",278.0455016,2104,1940,4,54,10,1.0
basic,35,24,0,0,0,16,"[0, 14, 16]",3,25,"[2, 3, 4, 5, 6, 8, 9, 10, 11, 12, 13, 15, 17, 18, 19, 20, 21, 22, 23, 24, 25, 26, 27, 28, 29]",188.9949542,3004,900,4,31,10,1.238291113657358
basic,35,24,0,0,0,8,"[0, 14, 16, 8]",4,17,"[2, 3, 4, 6, 9, 10, 11, 13, 15, 20, 22, 23, 24, 26, 27, 28, 29]",159.9949542,5287,2283,2,13,10,1.2714603293172921
basic,35,24,0,0,0,22,"[0, 14, 16, 8, 22]",5,13,"[3, 4, 6, 9, 10, 11, 15, 23, 24, 26, 27, 28, 29]",146.5785463,6037,750,2,10,10,1.4558841300797367
basic,35,24,0,0,0,15,"[0, 14, 16, 8, 22, 15]",6,11,"[3, 4, 6, 9, 10, 11, 23, 26, 27, 28, 29]",125.3653429,7063,1026,2,8,10,1.459909027032803
basic,35,24,0,0,0,28,"[0, 14, 16, 8, 22, 15, 28]",7,5,"[4, 9, 11, 23, 27]",80.08841717,7856,793,2,5,10,1.3358430839259279
basic,35,24,0,0,0,23,"[0, 14, 16, 8, 22, 15, 28, 23]",8,3,"[9, 11, 27]",61.06211957,8686,830,2,2,10,1.3561794364003306
basic,35,24,0,0,0,11,"[0, 14, 16, 8, 22, 15, 28, 23, 11]",9,2,"[9, 27]",34.13629554,9510,824,2,0,10,1.323606251450204
basic,35,24,0,0,1,27,"[0, 14, 16, 8, 22, 15, 28, 23, 11, 27]",10,0,[],6.33341799,10317,807,1,0,10,1.2857748381905127
basic,35,24,0,1,1,27,"[0, 14, 16, 8, 22, 15, 28, 23, 11, 27]",10,0,[],6.33341799,11178,861,1,0,10,1.2857748381905127
basic,36,22,0,0,0,0,[0],1,29,"[1, 2, 3, 4, 5, 6, 7, 8, 9, 10, 11, 12, 13, 14, 15, 16, 17, 18, 19, 20, 21, 22, 23, 24, 25, 26, 27, 28, 29]",300,164,-1,31,704,9,0.0
basic,36,22,0,0,0,16,"[0, 16]",2,21,"[1, 3, 6, 7, 8, 9, 11, 13, 14, 15, 17, 18, 19, 20, 21, 22, 24, 25, 27, 28, 29]",218.605897,3640,3476,17,147,9,1.0
basic,36,22,0,0,0,6,"[0, 16, 6]",3,16,"[1, 3, 7, 9, 13, 14, 15, 17, 19, 20, 21, 22, 24, 25, 28, 29]",184.1675463,5069,1429,5,77,9,1.3071109638102874
basic,36,22,0,0,0,9,"[0, 16, 6, 9]",4,15,"[1, 3, 7, 13, 14, 15, 17, 19, 20, 21, 22, 24, 25, 28, 29]",157.5404924,5994,925,4,33,9,1.5907585082674378
basic,36,22,0,0,0,19,"[0, 16, 6, 9, 19]",5,12,"[3, 7, 13, 14, 15, 17, 20, 21, 24, 25, 28, 29]",137.1444143,7340,1346,3,17,9,2.0453047636701496
basic,36,22,0,0,0,29,"[0, 16, 6, 9, 19, 29]",6,10,"[3, 7, 13, 14, 15, 17, 20, 21, 24, 28]",122.111118,9420,2080,3,10,9,2.310050419546042
basic,36,22,0,0,0,14,"[0, 16, 6, 9, 19, 29, 14]",7,2,"[7, 17]",63.86165444,11602,2182,1,1,9,1.8228779744230632
basic,36,22,0,0,0,7,"[0, 16, 6, 9, 19, 29, 14, 7]",8,1,[17],50.82324963,12486,884,1,0,9,1.981278197083242
basic,36,22,0,0,1,17,"[0, 16, 6, 9, 19, 29, 14, 7, 17]",9,0,[],9.205945539,14173,1687,1,0,9,1.840137026694984
basic,36,22,0,1,1,17,"[0, 16, 6, 9, 19, 29, 14, 7, 17]",9,0,[],9.205945539,15977,1804,1,0,9,1.840137026694984
basic,37,38,0,0,0,0,[0],1,29,"[1, 2, 3, 4, 5, 6, 7, 8, 9, 10, 11, 12, 13, 14, 15, 16, 17, 18, 19, 20, 21, 22, 23, 24, 25, 26, 27, 28, 29]",300,147,-1,33,506,9,0.0
basic,37,38,0,0,0,19,"[0, 19]",2,23,"[3, 4, 5, 6, 7, 8, 9, 11, 13, 14, 15, 16, 17, 18, 20, 22, 23, 24, 25, 26, 27, 28, 29]",219.5015528,1904,1757,6,61,9,1.0
basic,37,38,0,0,0,17,"[0, 19, 17]",3,21,"[3, 4, 5, 6, 7, 9, 11, 13, 14, 15, 16, 18, 20, 22, 23, 24, 25, 26, 27, 28, 29]",198.1239945,2623,719,6,53,9,1.571793785769489
basic,37,38,0,0,0,20,"[0, 19, 17, 20]",4,17,"[3, 4, 5, 6, 7, 11, 13, 14, 15, 16, 18, 22, 24, 25, 26, 27, 28]",174.3542658,3276,653,6,44,9,2.333182710277297
basic,37,38,0,0,0,13,"[0, 19, 17, 20, 13]",5,9,"[4, 11, 15, 16, 18, 24, 26, 27, 28]",125.0998244,6060,2784,1,11,9,1.7893595974504246
basic,37,38,0,0,0,4,"[0, 19, 17, 20, 13, 4]",6,6,"[11, 15, 16, 24, 26, 28]",93.69918748,6687,627,1,6,9,2.942354535547757
basic,37,38,0,0,0,15,"[0, 19, 17, 20, 13, 4, 15]",7,4,"[11, 16, 26, 28]",67.69918748,7586,899,1,3,9,3.165907365359093
basic,37,38,0,0,0,11,"[0, 19, 17, 20, 13, 4, 15, 11]",8,1,[28],31.29863803,8786,1200,1,0,9,3.362710012119994
basic,37,38,0,0,1,28,"[0, 19, 17, 20, 13, 4, 15, 11, 28]",9,0,[],4.280125857,10635,1849,1,0,9,2.7690631991189285
basic,37,38,0,1,1,28,"[0, 19, 17, 20, 13, 4, 15, 11, 28]",9,0,[],4.280125857,11827,1192,1,0,9,2.7690631991189285
basic,38,21,0,0,0,0,[0],1,29,"[1, 2, 3, 4, 5, 6, 7, 8, 9, 10, 11, 12, 13, 14, 15, 16, 17, 18, 19, 20, 21, 22, 23, 24, 25, 26, 27, 28, 29]",300,132,-1,84,830,9,0.0
basic,38,21,0,0,0,25,"[0, 25]",2,26,"[1, 2, 3, 4, 5, 6, 7, 8, 9, 10, 11, 12, 13, 14, 15, 16, 17, 18, 20, 21, 22, 23, 24, 26, 27, 29]",240.1836143,5288,5156,30,238,9,1.0
basic,38,21,0,0,0,23,"[0, 25, 23]",3,21,"[1, 2, 4, 6, 7, 8, 9, 10, 11, 12, 14, 15, 16, 17, 18, 20, 21, 22, 24, 27, 29]",196.8592562,7289,2001,14,80,9,1.0416131642057598
basic,38,21,0,0,0,21,"[0, 25, 23, 21]",4,14,"[1, 4, 6, 8, 9, 14, 15, 16, 17, 18, 20, 22, 24, 29]",167.2450705,8172,883,10,25,9,1.4768792067751173
basic,38,21,0,0,0,14,"[0, 25, 23, 21, 14]",5,10,"[4, 8, 9, 15, 16, 17, 18, 22, 24, 29]",141.6325735,8843,671,8,13,9,1.3826076066332742
basic,38,21,0,0,0,4,"[0, 25, 23, 21, 14, 4]",6,7,"[8, 15, 16, 17, 18, 24, 29]",127.4904379,9471,628,8,3,9,1.3487191473328533
basic,38,21,0,0,0,16,"[0, 25, 23, 21, 14, 4, 16]",7,3,"[8, 15, 24]",82.89223163,10629,1158,4,1,9,1.3301484172843694
basic,38,21,0,0,0,8,"[0, 25, 23, 21, 14, 4, 16, 8]",8,2,"[15, 24]",64.2911564,11274,645,2,0,9,1.3009886562393016
basic,38,21,0,0,1,15,"[0, 25, 23, 21, 14, 4, 16, 8, 15]",9,0,[],39.2911564,12194,920,1,0,9,1.5486591410600183
basic,38,21,0,1,1,15,"[0, 25, 23, 21, 14, 4, 16, 8, 15]",9,0,[],39.2911564,13661,1467,1,0,9,1.5486591410600183
basic,39,25,0,0,0,0,[0],1,28,"[1, 2, 3, 4, 5, 7, 8, 9, 10, 11, 12, 13, 14, 15, 16, 17, 18, 19, 20, 21, 22, 23, 24, 25, 26, 27, 28, 29]",300,148,-1,5,94,10,0.0
basic,39,25,0,0,0,23,"[0, 23]",2,23,"[1, 2, 3, 5, 7, 8, 9, 11, 12, 13, 14, 16, 17, 19, 20, 21, 22, 24, 25, 26, 27, 28, 29]",259.7756293,2362,2214,3,33,10,1.0
basic,39,25,0,0,0,19,"[0, 23, 19]",3,21,"[1, 2, 3, 5, 7, 8, 9, 11, 12, 13, 14, 16, 17, 20, 21, 22, 24, 25, 27, 28, 29]",223.9287326,3159,797,3,24,10,1.583101227007039
basic,39,25,0,0,0,29,"[0, 23, 19, 29]",4,19,"[1, 2, 3, 5, 7, 8, 9, 11, 12, 13, 14, 16, 17, 20, 21, 22, 24, 25, 28]",207.649912,3838,679,3,17,10,1.474631541426484
basic,39,25,0,0,0,22,"[0, 23, 19, 29, 22]",5,18,"[1, 2, 3, 5, 7, 8, 9, 11, 12, 13, 14, 16, 17, 20, 21, 24, 25, 28]",191.5253965,4370,532,3,14,10,1.4020377754906637
basic,39,25,0,0,0,7,"[0, 23, 19, 29, 22, 7]",6,7,"[3, 8, 9, 11, 13, 24, 28]",115.8814939,5620,1250,3,11,10,1.5709678649326715
basic,39,25,0,0,0,24,"[0, 23, 19, 29, 22, 7, 24]",7,5,"[3, 8, 9, 13, 28]",91.12265712,6456,836,3,7,10,1.486191600033379
basic,39,25,0,0,0,9,"[0, 23, 19, 29, 22, 7, 24, 9]",8,4,"[3, 8, 13, 28]",73.09490075,7554,1098,3,3,10,1.453504870342882
basic,39,25,0,0,0,3,"[0, 23, 19, 29, 22, 7, 24, 9, 3]",9,3,"[8, 13, 28]",42.82940885,10901,3347,3,0,10,1.388955167525479
basic,39,25,0,0,1,28,"[0, 23, 19, 29, 22, 7, 24, 9, 3, 28]",10,0,[],11.52445716,12754,1853,1,0,10,1.3331084120212044
basic,39,25,0,1,1,28,"[0, 23, 19, 29, 22, 7, 24, 9, 3, 28]",10,0,[],11.52445716,13711,957,1,0,10,1.3331084120212044
basic,40,13,0,0,0,0,[0],1,29,"[1, 2, 3, 4, 5, 6, 7, 8, 9, 10, 11, 12, 13, 14, 15, 16, 17, 18, 19, 20, 21, 22, 23, 24, 25, 26, 27, 28, 29]",300,181,-1,60,2676,11,0.0
basic,40,13,0,0,0,24,"[0, 24]",2,28,"[1, 2, 3, 4, 5, 6, 7, 8, 9, 10, 11, 12, 13, 14, 15, 16, 17, 18, 19, 20, 21, 22, 23, 25, 26, 27, 28, 29]",288.8196601,2055,1874,16,1444,11,1.0
basic,40,13,0,0,0,28,"[0, 24, 28]",3,23,"[1, 2, 3, 4, 6, 7, 8, 9, 10, 11, 12, 13, 15, 16, 17, 19, 20, 21, 22, 23, 26, 27, 29]",222.5324064,3227,1172,8,243,11,1.0513810491680837
basic,40,13,0,0,0,2,"[0, 24, 28, 2]",4,19,"[1, 3, 4, 6, 7, 9, 11, 12, 13, 15, 16, 17, 19, 20, 21, 23, 26, 27, 29]",184.889346,3771,544,7,110,11,1.050374132001543
basic,40,13,0,0,0,29,"[0, 24, 28, 2, 29]",5,18,"[1, 3, 4, 6, 7, 9, 11, 12, 13, 15, 16, 17, 19, 20, 21, 23, 26, 27]",173.1846461,4771,1000,7,85,11,1.1393409619120594
basic,40,13,0,0,0,7,"[0, 24, 28, 2, 29, 7]",6,17,"[1, 3, 4, 6, 9, 11, 12, 13, 15, 16, 17, 19, 20, 21, 23, 26, 27]",157.9203086,5630,859,5,45,11,1.349777315111579
basic,40,13,0,0,0,26,"[0, 24, 28, 2, 29, 7, 26]",7,16,"[1, 3, 4, 6, 9, 11, 12, 13, 15, 16, 17, 19, 20, 21, 23, 27]",147.480002,6392,762,5,25,11,1.5942082773824946
basic,40,13,0,0,0,6,"[0, 24, 28, 2, 29, 7, 26, 6]",8,12,"[1, 3, 4, 11, 13, 15, 16, 17, 19, 20, 23, 27]",127.3802508,7019,627,4,12,11,1.5898347940840756
basic,40,13,0,0,0,11,"[0, 24, 28, 2, 29, 7, 26, 6, 11]",9,6,"[1, 13, 15, 16, 17, 23]",108.2752776,10673,3654,3,4,11,1.5029953945561012
basic,40,13,0,0,0,13,"[0, 24, 28, 2, 29, 7, 26, 6, 11, 13]",10,2,"[15, 17]",52.19497806,11955,1282,2,0,11,1.3655915863754327
basic,40,13,0,0,1,15,"[0, 24, 28, 2, 29, 7, 26, 6, 11, 13, 15]",11,0,[],12.38291958,13168,1213,1,0,11,1.3653085520078876
basic,40,13,0,1,1,15,"[0, 24, 28, 2, 29, 7, 26, 6, 11, 13, 15]",11,0,[],12.38291958,14660,1492,1,0,11,1.3653085520078876
basic,41,10,0,0,0,0,[0],1,29,"[1, 2, 3, 4, 5, 6, 7, 8, 9, 10, 11, 12, 13, 14, 15, 16, 17, 18, 19, 20, 21, 22, 23, 24, 25, 26, 27, 28, 29]",300,147,-1,1,100,9,0.0
basic,41,10,0,0,0,13,"[0, 13]",2,25,"[1, 2, 3, 4, 6, 7, 8, 9, 10, 11, 12, 14, 17, 18, 19, 20, 21, 22, 23, 24, 25, 26, 27, 28, 29]",249.4628849,8702,8555,1,79,9,1.0
basic,41,10,0,0,0,11,"[0, 13, 11]",3,20,"[1, 2, 3, 6, 7, 8, 9, 10, 12, 14, 18, 19, 20, 21, 22, 24, 26, 27, 28, 29]",206.4512586,9793,1091,1,54,9,1.0313137484914219
basic,41,10,0,0,0,19,"[0, 13, 11, 19]",4,11,"[2, 6, 8, 9, 10, 14, 18, 20, 24, 26, 27]",170.0919407,10374,581,1,22,9,1.0879446220132545
basic,41,10,0,0,0,2,"[0, 13, 11, 19, 2]",5,4,"[14, 20, 26, 27]",126.1829439,11272,898,1,4,9,1.06474052351343
basic,41,10,0,0,0,14,"[0, 13, 11, 19, 2, 14]",6,3,"[20, 26, 27]",114.0174188,11885,613,1,3,9,1.1628909195912238
basic,41,10,0,0,0,26,"[0, 13, 11, 19, 2, 14, 26]",7,2,"[20, 27]",79.34754716,12646,761,1,1,9,1.6660727647633602
basic,41,10,0,0,0,20,"[0, 13, 11, 19, 2, 14, 26, 20]",8,1,[27],47.56704999,13414,768,1,0,9,2.085581809637999
basic,41,10,0,0,1,27,"[0, 13, 11, 19, 2, 14, 26, 20, 27]",9,0,[],2.312215998,14151,737,1,0,9,1.9116357409137932
basic,41,10,0,1,1,27,"[0, 13, 11, 19, 2, 14, 26, 20, 27]",9,0,[],2.312215998,15593,1442,1,0,9,1.9116357409137932
basic,42,11,0,0,0,0,[0],1,25,"[1, 2, 3, 4, 5, 6, 8, 9, 10, 11, 12, 13, 14, 15, 16, 17, 18, 19, 20, 22, 23, 25, 26, 27, 28]",300,130,-1,6,374,12,0.0
basic,42,11,0,0,0,1,"[0, 1]",2,24,"[2, 3, 4, 5, 6, 8, 9, 10, 11, 12, 13, 14, 15, 16, 17, 18, 19, 20, 22, 23, 25, 26, 27, 28]",264.6446609,2814,2684,6,217,12,1.0
basic,42,11,0,0,0,18,"[0, 1, 18]",3,19,"[2, 4, 5, 6, 8, 9, 11, 12, 14, 15, 16, 17, 19, 20, 22, 23, 25, 27, 28]",212.3187591,3620,806,6,161,12,1.3884463804898786
basic,42,11,0,0,0,27,"[0, 1, 18, 27]",4,18,"[2, 4, 5, 6, 8, 9, 11, 12, 14, 15, 16, 17, 19, 20, 22, 23, 25, 28]",188.4650382,4388,768,6,155,12,1.3600813284083875
basic,42,11,0,0,0,17,"[0, 1, 18, 27, 17]",5,11,"[2, 5, 6, 8, 11, 12, 15, 19, 22, 25, 28]",111.3871556,6460,2072,2,45,12,1.282398281674261
basic,42,11,0,0,0,8,"[0, 1, 18, 27, 17, 8]",6,7,"[2, 5, 11, 12, 15, 22, 28]",97.0693345,7007,547,2,21,12,1.3975291553712
basic,42,11,0,0,0,15,"[0, 1, 18, 27, 17, 8, 15]",7,6,"[2, 5, 11, 12, 22, 28]",83.61571045,7527,520,2,18,12,1.3793915678186077
basic,42,11,0,0,0,11,"[0, 1, 18, 27, 17, 8, 15, 11]",8,4,"[2, 5, 22, 28]",65.50494017,8039,512,2,14,12,1.3525960247899067
basic,42,11,0,0,0,28,"[0, 1, 18, 27, 17, 8, 15, 11, 28]",9,3,"[2, 5, 22]",46.08845233,8843,804,2,4,12,1.4693669896690256
basic,42,11,0,0,0,5,"[0, 1, 18, 27, 17, 8, 15, 11, 28, 5]",10,2,"[2, 22]",28.19990851,10052,1209,1,1,12,1.6706321377081579
basic,42,11,0,0,0,2,"[0, 1, 18, 27, 17, 8, 15, 11, 28, 5, 2]",11,1,[22],11.19990851,10753,701,1,0,12,1.6180355992209499
basic,42,11,0,0,1,22,"[0, 1, 18, 27, 17, 8, 15, 11, 28, 5, 2, 22]",12,0,[],1.150032892,11603,850,1,0,12,1.5851265969407473
basic,42,11,0,1,1,22,"[0, 1, 18, 27, 17, 8, 15, 11, 28, 5, 2, 22]",12,0,[],1.150032892,13177,1574,1,0,12,1.5851265969407473
basic,43,44,0,0,0,0,[0],1,29,"[1, 2, 3, 4, 5, 6, 7, 8, 9, 10, 11, 12, 13, 14, 15, 16, 17, 18, 19, 20, 21, 22, 23, 24, 25, 26, 27, 28, 29]",300,165,-1,13,126,7,0.0
basic,43,44,0,0,0,8,"[0, 8]",2,17,"[1, 4, 5, 7, 9, 10, 11, 12, 13, 14, 15, 20, 21, 23, 24, 25, 27]",145.7923478,3487,3322,1,10,7,1.0
basic,43,44,0,0,0,20,"[0, 8, 20]",3,16,"[1, 4, 5, 7, 9, 10, 11, 12, 13, 14, 15, 21, 23, 24, 25, 27]",133.7093018,4438,951,1,9,7,1.0890794433668698
basic,43,44,0,0,0,9,"[0, 8, 20, 9]",4,7,"[4, 7, 11, 12, 14, 23, 24]",76.43801756,5654,1216,1,6,7,1.40892325509949
basic,43,44,0,0,0,4,"[0, 8, 20, 9, 4]",5,4,"[7, 12, 23, 24]",56.74030196,6653,999,1,3,7,1.3849770570803555
basic,43,44,0,0,0,7,"[0, 8, 20, 9, 4, 7]",6,1,[23],25.72417712,7607,954,1,0,7,1.3274380931474288
basic,43,44,0,0,1,23,"[0, 8, 20, 9, 4, 7, 23]",7,0,[],6.619203947,8654,1047,1,0,7,1.3395824779823196
basic,43,44,0,1,1,23,"[0, 8, 20, 9, 4, 7, 23]",7,0,[],6.619203947,9612,958,1,0,7,1.3395824779823196
basic,44,41,0,0,0,0,[0],1,29,"[1, 2, 3, 4, 5, 6, 7, 8, 9, 10, 11, 12, 13, 14, 15, 16, 17, 18, 19, 20, 21, 22, 23, 24, 25, 26, 27, 28, 29]",300,148,-1,1,143,10,0.0
basic,44,41,0,0,0,13,"[0, 13]",2,23,"[1, 2, 3, 5, 6, 7, 9, 10, 11, 12, 14, 15, 17, 18, 19, 20, 21, 22, 24, 25, 26, 27, 28]",258.2747079,3262,3114,1,55,10,1.0
basic,44,41,0,0,0,28,"[0, 13, 28]",3,22,"[1, 2, 3, 5, 6, 7, 9, 10, 11, 12, 14, 15, 17, 18, 19, 20, 21, 22, 24, 25, 26, 27]",223.7928286,4058,796,1,39,10,1.895724242592676
basic,44,41,0,0,0,5,"[0, 13, 28, 5]",4,19,"[1, 2, 3, 6, 9, 10, 11, 12, 14, 15, 17, 18, 19, 20, 21, 22, 24, 25, 27]",210.1913581,4621,563,1,34,10,2.861541269398273
basic,44,41,0,0,0,3,"[0, 13, 28, 5, 3]",5,16,"[1, 2, 6, 9, 10, 12, 14, 17, 18, 19, 20, 21, 22, 24, 25, 27]",175.3632086,5820,1199,1,22,10,3.1455488489005883
basic,44,41,0,0,0,21,"[0, 13, 28, 5, 3, 21]",6,14,"[1, 2, 6, 9, 10, 12, 14, 17, 18, 19, 20, 22, 25, 27]",143.2228912,7120,1300,13,11,9,3.207558429289677
basic,44,41,0,0,0,17,"[0, 13, 28, 5, 3, 21, 17]",7,3,"[2, 9, 10]",91.5605258,8184,1064,2,1,9,3.2883270328778007
basic,44,41,0,0,0,9,"[0, 13, 28, 5, 3, 21, 17, 9]",8,1,[2],60.54440096,9353,1169,1,0,9,2.9098226601812454
basic,44,41,0,0,1,2,"[0, 13, 28, 5, 3, 21, 17, 9, 2]",9,0,[],48.46135498,10552,1199,1,0,9,2.780153959656953
basic,44,41,0,1,1,2,"[0, 13, 28, 5, 3, 21, 17, 9, 2]",9,0,[],48.46135498,11678,1126,1,0,9,2.780153959656953
basic,45,9,0,0,0,0,[0],1,27,"[1, 3, 4, 5, 6, 7, 8, 9, 10, 11, 13, 14, 15, 16, 17, 18, 19, 20, 21, 22, 23, 24, 25, 26, 27, 28, 29]",300,163,-1,2,182,10,0.0
basic,45,9,0,0,0,25,"[0, 25]",2,24,"[1, 3, 4, 5, 6, 7, 8, 9, 10, 11, 13, 15, 16, 17, 18, 19, 20, 21, 22, 23, 24, 26, 27, 28]",275.9168108,1337,1174,2,104,10,1.0
basic,45,9,0,0,0,10,"[0, 25, 10]",3,20,"[3, 4, 5, 7, 8, 9, 11, 13, 15, 16, 17, 18, 19, 20, 21, 22, 23, 26, 27, 28]",236.0670932,1884,547,2,76,10,1.1767014107208227
basic,45,9,0,0,0,28,"[0, 25, 10, 28]",4,19,"[3, 4, 5, 7, 8, 9, 11, 13, 15, 16, 17, 18, 19, 20, 21, 22, 23, 26, 27]",179.0670932,4695,2811,1,17,10,1.628144700364468
basic,45,9,0,0,0,8,"[0, 25, 10, 28, 8]",5,15,"[3, 4, 7, 9, 11, 16, 17, 18, 19, 20, 21, 22, 23, 26, 27]",168.2504393,5223,528,1,10,10,2.0656593525143574
basic,45,9,0,0,0,23,"[0, 25, 10, 28, 8, 23]",6,12,"[3, 4, 7, 9, 11, 18, 19, 20, 21, 22, 26, 27]",146.7795288,6202,979,1,7,10,2.573408160646792
basic,45,9,0,0,0,9,"[0, 25, 10, 28, 8, 23, 9]",7,9,"[3, 4, 7, 11, 18, 19, 20, 21, 26]",124.418849,7104,902,1,5,10,2.3579094141840375
basic,45,9,0,0,0,26,"[0, 25, 10, 28, 8, 23, 9, 26]",8,3,"[18, 20, 21]",67.77081284,8102,998,1,2,10,1.9878439811785502
basic,45,9,0,0,0,21,"[0, 25, 10, 28, 8, 23, 9, 26, 21]",9,1,[20],13.86348496,9654,1552,1,0,10,2.4139880801675853
basic,45,9,0,0,1,20,"[0, 25, 10, 28, 8, 23, 9, 26, 21, 20]",10,0,[],1.780438983,10371,717,1,0,10,2.3546911124891037
basic,45,9,0,1,1,20,"[0, 25, 10, 28, 8, 23, 9, 26, 21, 20]",10,0,[],1.780438983,11177,806,1,0,10,2.3546911124891037
basic,46,3,0,0,0,0,[0],1,29,"[1, 2, 3, 4, 5, 6, 7, 8, 9, 10, 11, 12, 13, 14, 15, 16, 17, 18, 19, 20, 21, 22, 23, 24, 25, 26, 27, 28, 29]",300,167,-1,34,427,10,0.0
basic,46,3,0,0,0,7,"[0, 7]",2,28,"[1, 2, 3, 4, 5, 6, 8, 9, 10, 11, 12, 13, 14, 15, 16, 17, 18, 19, 20, 21, 22, 23, 24, 25, 26, 27, 28, 29]",278.8103799,8577,8410,24,215,10,1.0
basic,46,3,0,0,0,24,"[0, 7, 24]",3,23,"[1, 2, 3, 4, 5, 6, 8, 10, 11, 12, 14, 15, 16, 17, 18, 19, 20, 21, 22, 25, 26, 27, 28]",219.6411311,9756,1179,8,84,10,1.3653527628841189
basic,46,3,0,0,0,8,"[0, 7, 24, 8]",4,21,"[1, 3, 4, 5, 6, 10, 11, 12, 14, 15, 16, 17, 18, 19, 20, 21, 22, 25, 26, 27, 28]",207.4756061,10379,623,8,60,10,1.5412172375781357
basic,46,3,0,0,0,4,"[0, 7, 24, 8, 4]",5,13,"[3, 5, 6, 10, 14, 15, 16, 17, 18, 19, 20, 21, 22]",151.8159259,11513,1134,9,25,9,1.293210338343437
basic,46,3,0,0,0,10,"[0, 7, 24, 8, 4, 10]",6,4,"[3, 14, 19, 21]",97.99213931,12528,1015,3,5,9,1.2829322699011867
basic,46,3,0,0,0,14,"[0, 7, 24, 8, 4, 10, 14]",7,3,"[3, 19, 21]",52.5388666,13456,928,2,1,9,1.9226988989591463
basic,46,3,0,0,0,21,"[0, 7, 24, 8, 4, 10, 14, 21]",8,1,[19],25.6316185,14053,597,1,0,9,1.7842857300260768
basic,46,3,0,0,1,19,"[0, 7, 24, 8, 4, 10, 14, 21, 19]",9,0,[],13.42506289,14606,553,1,0,9,1.9418213334111731
basic,46,3,0,1,1,19,"[0, 7, 24, 8, 4, 10, 14, 21, 19]",9,0,[],13.42506289,16745,2139,1,0,9,1.9418213334111731
basic,47,19,0,0,0,0,[0],1,29,"[1, 2, 3, 4, 5, 6, 7, 8, 9, 10, 11, 12, 13, 14, 15, 16, 17, 18, 19, 20, 21, 22, 23, 24, 25, 26, 27, 28, 29]",300,130,-1,12,149,8,0.0
basic,47,19,0,0,0,29,"[0, 29]",2,28,"[1, 2, 3, 4, 5, 6, 7, 8, 9, 10, 11, 12, 13, 14, 15, 16, 17, 18, 19, 20, 21, 22, 23, 24, 25, 26, 27, 28]",265.0715016,5010,4880,12,120,8,1.0
basic,47,19,0,0,0,12,"[0, 29, 12]",3,10,"[1, 2, 3, 8, 13, 16, 17, 19, 23, 25]",151.2251139,6055,1045,1,15,8,1.2439006517653588
basic,47,19,0,0,0,25,"[0, 29, 12, 25]",4,9,"[1, 2, 3, 8, 13, 16, 17, 19, 23]",134.1078711,7036,981,8,14,7,1.21651092005601
basic,47,19,0,0,0,17,"[0, 29, 12, 25, 17]",5,8,"[1, 2, 3, 8, 13, 16, 19, 23]",123.0625101,7809,773,6,5,7,1.2766039371281641
basic,47,19,0,0,0,23,"[0, 29, 12, 25, 17, 23]",6,2,"[3, 8]",44.34783547,10633,2824,2,0,7,1.4218265571803024
basic,47,19,0,0,1,3,"[0, 29, 12, 25, 17, 23, 3]",7,0,[],22.41612327,11186,553,1,0,7,1.3774051462275383
basic,47,19,0,1,1,3,"[0, 29, 12, 25, 17, 23, 3]",7,0,[],22.41612327,13510,2324,1,0,7,1.3774051462275383
basic,48,34,0,0,0,0,[0],1,25,"[1, 3, 4, 5, 6, 7, 8, 9, 10, 11, 12, 13, 15, 18, 19, 20, 21, 22, 23, 24, 25, 26, 27, 28, 29]",300,197,-1,12,367,10,0.0
basic,48,34,0,0,0,13,"[0, 13]",2,24,"[1, 3, 4, 5, 6, 7, 8, 9, 10, 11, 12, 15, 18, 19, 20, 21, 22, 23, 24, 25, 26, 27, 28, 29]",279.9750156,1689,1492,12,331,10,1.0
basic,48,34,0,0,0,1,"[0, 13, 1]",3,16,"[3, 5, 7, 8, 9, 10, 11, 12, 19, 21, 22, 23, 24, 25, 27, 29]",211.8574701,2520,831,3,92,10,1.0010381285747127
basic,48,34,0,0,0,8,"[0, 13, 1, 8]",4,14,"[3, 5, 7, 9, 10, 11, 12, 19, 22, 23, 24, 25, 27, 29]",201.0871405,3055,535,2,54,10,1.1636807
basic,48,34,0,0,0,25,"[0, 13, 1, 8, 25]",5,12,"[3, 5, 7, 9, 10, 11, 12, 22, 23, 24, 27, 29]",183.999133,3739,684,2,28,10,1.1396208815936457
basic,48,34,0,0,0,24,"[0, 13, 1, 8, 25, 24]",6,11,"[3, 5, 7, 9, 10, 11, 12, 22, 23, 27, 29]",166.5062774,4593,854,2,23,10,1.374180768736554
basic,48,34,0,0,0,12,"[0, 13, 1, 8, 25, 24, 12]",7,7,"[7, 9, 10, 11, 22, 23, 27]",115.4670767,5920,1327,1,8,10,1.4994254760835948
basic,48,34,0,0,0,7,"[0, 13, 1, 8, 25, 24, 12, 7]",8,5,"[9, 11, 22, 23, 27]",100.4337804,7903,1983,1,4,10,1.758992610425009
basic,48,34,0,0,0,23,"[0, 13, 1, 8, 25, 24, 12, 7, 23]",9,1,[27],72.27352467,9009,1106,1,0,10,2.399781305190153
basic,48,34,0,0,1,27,"[0, 13, 1, 8, 25, 24, 12, 7, 23, 27]",10,0,[],18.60789321,10054,1045,1,0,10,4.766619878750327
basic,48,34,0,1,1,27,"[0, 13, 1, 8, 25, 24, 12, 7, 23, 27]",10,0,[],18.60789321,10611,557,1,0,10,4.766619878750327
basic,49,27,0,0,0,0,[0],1,26,"[1, 3, 5, 6, 7, 8, 9, 10, 11, 12, 13, 14, 15, 16, 17, 18, 19, 21, 22, 23, 24, 25, 26, 27, 28, 29]",300,166,-1,13,578,11,0.0
basic,49,27,0,0,0,15,"[0, 15]",2,24,"[1, 3, 5, 6, 7, 8, 9, 10, 11, 12, 13, 14, 16, 17, 18, 19, 21, 22, 23, 24, 25, 26, 27, 29]",263.7508621,2239,2073,6,219,11,1.0
basic,49,27,0,0,0,24,"[0, 15, 24]",3,20,"[1, 5, 6, 7, 8, 9, 10, 12, 13, 14, 16, 17, 18, 19, 21, 23, 25, 26, 27, 29]",246.5462115,2995,756,6,130,11,1.130933077698322
basic,49,27,0,0,0,17,"[0, 15, 24, 17]",4,15,"[1, 6, 8, 10, 12, 13, 14, 16, 18, 19, 23, 25, 26, 27, 29]",229.9932662,3753,758,4,60,11,1.1285538435963374
basic,49,27,0,0,0,12,"[0, 15, 24, 17, 12]",5,14,"[1, 6, 8, 10, 13, 14, 16, 18, 19, 23, 25, 26, 27, 29]",218.8129263,4512,759,2,32,11,1.2561880288755216
basic,49,27,0,0,0,10,"[0, 15, 24, 17, 12, 10]",6,11,"[1, 8, 13, 14, 18, 19, 23, 25, 26, 27, 29]",207.7675653,5910,1398,2,28,11,1.2228289337766665
basic,49,27,0,0,0,13,"[0, 15, 24, 17, 12, 10, 13]",7,9,"[1, 8, 14, 18, 19, 23, 26, 27, 29]",167.9178476,8058,2148,2,18,11,1.3421291994761178
basic,49,27,0,0,0,19,"[0, 15, 24, 17, 12, 10, 13, 19]",8,5,"[1, 8, 14, 23, 29]",131.6825057,8991,933,2,6,11,1.294749956153846
basic,49,27,0,0,0,8,"[0, 15, 24, 17, 12, 10, 13, 19, 8]",9,3,"[14, 23, 29]",116.816437,9910,919,2,1,11,1.3554286578836865
basic,49,27,0,0,0,29,"[0, 15, 24, 17, 12, 10, 13, 19, 8, 29]",10,1,[14],57.61339652,11038,1128,1,0,11,1.248354519573802
basic,49,27,0,0,1,14,"[0, 15, 24, 17, 12, 10, 13, 19, 8, 29, 14]",11,0,[],13.31892734,11976,938,1,0,11,1.562811097555156
basic,49,27,0,1,1,14,"[0, 15, 24, 17, 12, 10, 13, 19, 8, 29, 14]",11,0,[],13.31892734,13346,1370,1,0,11,1.562811097555156
basic,50,35,0,0,0,0,[0],1,29,"[1, 2, 3, 4, 5, 6, 7, 8, 9, 10, 11, 12, 13, 14, 15, 16, 17, 18, 19, 20, 21, 22, 23, 24, 25, 26, 27, 28, 29]",300,212,-1,5,236,11,0.0
basic,50,35,0,0,0,24,"[0, 24]",2,27,"[1, 2, 4, 5, 6, 7, 8, 9, 10, 11, 12, 13, 14, 15, 16, 17, 18, 19, 20, 21, 22, 23, 25, 26, 27, 28, 29]",268.9838752,2003,1791,49,512,10,1.0
basic,50,35,0,0,0,17,"[0, 24, 17]",3,26,"[1, 2, 4, 5, 6, 7, 8, 9, 10, 11, 12, 13, 14, 15, 16, 18, 19, 20, 21, 22, 23, 25, 26, 27, 28, 29]",257.2791753,2721,718,33,238,10,1.0771477201815276
basic,50,35,0,0,0,1,"[0, 24, 17, 1]",4,25,"[2, 4, 5, 6, 7, 8, 9, 10, 11, 12, 13, 14, 15, 16, 18, 19, 20, 21, 22, 23, 25, 26, 27, 28, 29]",241.4677869,3300,579,26,151,10,1.2244804141479215
basic,50,35,0,0,0,15,"[0, 24, 17, 1, 15]",5,23,"[2, 4, 5, 6, 7, 8, 9, 10, 11, 12, 14, 16, 18, 19, 20, 21, 22, 23, 25, 26, 27, 28, 29]",218.6204676,4254,954,26,78,10,1.4642196672428094
basic,50,35,0,0,0,23,"[0, 24, 17, 1, 15, 23]",6,11,"[4, 5, 6, 9, 18, 19, 25, 26, 27, 28, 29]",158.1804147,6577,2323,15,12,10,1.3338903684702363
basic,50,35,0,0,0,9,"[0, 24, 17, 1, 15, 23, 9]",7,6,"[5, 6, 18, 19, 25, 27]",120.5373542,7484,907,6,1,10,1.5964380615155294
basic,50,35,0,0,0,18,"[0, 24, 17, 1, 15, 23, 9, 18]",8,3,"[5, 6, 25]",100.5123698,8299,815,2,1,10,1.5508488101942703
basic,50,35,0,0,0,25,"[0, 24, 17, 1, 15, 23, 9, 18, 25]",9,1,[6],66.67452121,10574,2275,1,0,10,1.4408023801578587
basic,50,35,0,0,1,6,"[0, 24, 17, 1, 15, 23, 9, 18, 25, 6]",10,0,[],42.65369691,11568,994,1,0,10,1.701781671832088
basic,50,35,0,1,1,6,"[0, 24, 17, 1, 15, 23, 9, 18, 25, 6]",10,0,[],42.65369691,12676,1108,1,0,10,1.701781671832088
basic,51,4,0,0,0,0,[0],1,26,"[3, 4, 5, 6, 7, 8, 10, 11, 12, 13, 14, 15, 16, 17, 18, 19, 20, 21, 22, 23, 24, 25, 26, 27, 28, 29]",300,164,-1,4,489,10,0.0
basic,51,4,0,0,0,28,"[0, 28]",2,21,"[3, 4, 5, 6, 10, 11, 12, 13, 14, 15, 16, 17, 19, 20, 21, 22, 23, 24, 25, 26, 27]",225.9392142,4458,4294,2,216,10,1.0
basic,51,4,0,0,0,14,"[0, 28, 14]",3,13,"[3, 4, 5, 6, 11, 13, 16, 17, 20, 21, 22, 24, 25]",159.6972335,5352,894,1,26,10,1.0273973946789214
basic,51,4,0,0,0,25,"[0, 28, 14, 25]",4,12,"[3, 4, 5, 6, 11, 13, 16, 17, 20, 21, 22, 24]",143.572718,6185,833,1,25,10,1.233547772313525
basic,51,4,0,0,0,11,"[0, 28, 14, 25, 11]",5,10,"[3, 4, 5, 6, 13, 16, 17, 20, 21, 22]",124.7844238,6889,704,1,15,10,1.425978575879479
basic,51,4,0,0,0,16,"[0, 28, 14, 25, 11, 16]",6,9,"[3, 4, 5, 6, 13, 17, 20, 21, 22]",109.7844238,7970,1081,1,12,10,1.3799325158051412
basic,51,4,0,0,0,21,"[0, 28, 14, 25, 11, 16, 21]",7,4,"[5, 17, 20, 22]",65.58035157,10287,2317,3,3,9,1.5860540591673642
basic,51,4,0,0,0,22,"[0, 28, 14, 25, 11, 16, 21, 22]",8,3,"[5, 17, 20]",54.53499056,10980,693,3,0,9,1.5471132483772176
basic,51,4,0,0,1,20,"[0, 28, 14, 25, 11, 16, 21, 22, 20]",9,0,[],24.30255764,11722,742,1,0,9,1.5087977616865345
basic,51,4,0,1,1,20,"[0, 28, 14, 25, 11, 16, 21, 22, 20]",9,0,[],24.30255764,13027,1305,1,0,9,1.5087977616865345
basic,52,16,0,0,0,0,[0],1,29,"[1, 2, 3, 4, 5, 6, 7, 8, 9, 10, 11, 12, 13, 14, 15, 16, 17, 18, 19, 20, 21, 22, 23, 24, 25, 26, 27, 28, 29]",300,164,-1,13,161,9,0.0
basic,52,16,0,0,0,28,"[0, 28]",2,27,"[1, 2, 3, 4, 5, 7, 8, 9, 10, 11, 12, 13, 14, 15, 16, 17, 18, 19, 20, 21, 22, 23, 24, 25, 26, 27, 29]",284.3475242,1846,1682,11,92,9,1.0
basic,52,16,0,0,0,21,"[0, 28, 21]",3,26,"[1, 2, 3, 4, 5, 7, 8, 9, 10, 11, 12, 13, 14, 15, 16, 17, 18, 19, 20, 22, 23, 24, 25, 26, 27, 29]",205.0380039,5072,3226,1,25,9,1.1196822789757879
basic,52,16,0,0,0,8,"[0, 28, 21, 8]",4,17,"[2, 3, 4, 5, 9, 12, 13, 14, 15, 16, 17, 19, 20, 22, 25, 27, 29]",155.7835625,5970,898,1,16,9,1.1626955570627597
basic,52,16,0,0,0,20,"[0, 28, 21, 8, 20]",5,8,"[3, 4, 5, 9, 12, 13, 15, 25]",98.0081352,7289,1319,1,7,9,1.1163179516060644
basic,52,16,0,0,0,25,"[0, 28, 21, 8, 20, 25]",6,6,"[3, 4, 5, 9, 12, 15]",85.35902455,8234,945,1,4,9,1.1649281507703637
basic,52,16,0,0,0,9,"[0, 28, 21, 8, 20, 25, 9]",7,2,"[5, 15]",72.55277608,8854,620,1,1,9,1.1543165124516757
basic,52,16,0,0,0,15,"[0, 28, 21, 8, 20, 25, 9, 15]",8,1,[5],33.6554754,9902,1048,1,0,9,1.2554485393774149
basic,52,16,0,0,1,5,"[0, 28, 21, 8, 20, 25, 9, 15, 5]",9,0,[],4.227597463,10859,957,1,0,9,1.5638611072701558
basic,52,16,0,1,1,5,"[0, 28, 21, 8, 20, 25, 9, 15, 5]",9,0,[],4.227597463,11478,619,1,0,9,1.5638611072701558
basic,53,0,0,0,0,0,[0],1,27,"[2, 3, 4, 5, 6, 7, 8, 9, 10, 11, 12, 13, 14, 15, 16, 17, 19, 20, 21, 22, 23, 24, 25, 26, 27, 28, 29]",300,246,-1,104,1136,9,0.0
basic,53,0,0,0,0,28,"[0, 28]",2,26,"[2, 3, 4, 5, 6, 7, 8, 9, 10, 11, 12, 13, 14, 15, 16, 17, 19, 20, 21, 22, 23, 24, 25, 26, 27, 29]",194.9190788,5188,4942,39,388,9,1.0
basic,53,0,0,0,0,5,"[0, 28, 5]",3,21,"[2, 3, 4, 7, 8, 9, 11, 12, 13, 14, 15, 16, 17, 19, 20, 21, 23, 24, 25, 26, 29]",151.2613189,6152,964,27,210,9,1.0978295127671733
basic,53,0,0,0,0,4,"[0, 28, 5, 4]",4,16,"[3, 7, 8, 9, 11, 12, 13, 14, 15, 17, 19, 20, 21, 23, 24, 26]",126.1814465,6982,830,17,114,9,1.1103727063761901
basic,53,0,0,0,0,26,"[0, 28, 5, 4, 26]",5,14,"[3, 7, 8, 9, 11, 12, 13, 14, 15, 17, 19, 20, 23, 24]",114.1398519,7818,836,7,54,9,1.1504454351688815
basic,53,0,0,0,0,24,"[0, 28, 5, 4, 26, 24]",6,11,"[3, 7, 8, 9, 11, 12, 15, 17, 19, 20, 23]",97.02260914,8852,1034,7,22,9,1.2166555899566422
basic,53,0,0,0,0,15,"[0, 28, 5, 4, 26, 24, 15]",7,7,"[3, 7, 8, 9, 11, 12, 17]",73.67737408,9792,940,4,5,9,1.1972898774231708
basic,53,0,0,0,0,7,"[0, 28, 5, 4, 26, 24, 15, 7]",8,2,"[3, 8]",42.61292495,10735,943,2,0,9,1.2554869594545575
basic,53,0,0,0,1,3,"[0, 28, 5, 4, 26, 24, 15, 7, 3]",9,0,[],18.52973579,17330,6595,1,0,9,1.2985327435367093
basic,53,0,0,1,1,3,"[0, 28, 5, 4, 26, 24, 15, 7, 3]",9,0,[],18.52973579,18358,1028,1,0,9,1.2985327435367093
basic,54,42,0,0,0,0,[0],1,29,"[1, 2, 3, 4, 5, 6, 7, 8, 9, 10, 11, 12, 13, 14, 15, 16, 17, 18, 19, 20, 21, 22, 23, 24, 25, 26, 27, 28, 29]",300,146,-1,16,302,9,0.0
basic,54,42,0,0,0,4,"[0, 4]",2,28,"[1, 2, 3, 5, 6, 7, 8, 9, 10, 11, 12, 13, 14, 15, 16, 17, 18, 19, 20, 21, 22, 23, 24, 25, 26, 27, 28, 29]",209.5290102,5924,5778,4,80,9,1.0
basic,54,42,0,0,0,22,"[0, 4, 22]",3,24,"[1, 2, 3, 5, 6, 7, 8, 9, 10, 11, 13, 15, 17, 18, 19, 20, 21, 23, 24, 25, 26, 27, 28, 29]",198.3486703,7718,1794,3,53,9,1.1473032812120834
basic,54,42,0,0,0,8,"[0, 4, 22, 8]",4,21,"[1, 2, 3, 5, 6, 7, 10, 11, 15, 17, 18, 19, 20, 21, 23, 24, 25, 26, 27, 28, 29]",176.2127267,8441,723,2,36,9,1.1513227322639639
basic,54,42,0,0,0,1,"[0, 4, 22, 8, 1]",5,12,"[2, 5, 6, 7, 10, 15, 18, 19, 24, 26, 27, 28]",127.1209758,9637,1196,2,24,9,1.1101621876186907
basic,54,42,0,0,0,7,"[0, 4, 22, 8, 1, 7]",6,5,"[2, 19, 26, 27, 28]",97.12097583,11534,1897,2,10,9,1.1711274205343067
basic,54,42,0,0,0,26,"[0, 4, 22, 8, 1, 7, 26]",7,3,"[2, 19, 27]",70.55031532,12501,967,2,1,9,1.1588367913131314
basic,54,42,0,0,0,27,"[0, 4, 22, 8, 1, 7, 26, 27]",8,1,[19],52.52255894,15829,3328,1,0,9,1.160587570992885
basic,54,42,0,0,1,19,"[0, 4, 22, 8, 1, 7, 26, 27, 19]",9,0,[],11.51036563,17016,1187,1,0,9,1.3341568614108437
basic,54,42,0,1,1,19,"[0, 4, 22, 8, 1, 7, 26, 27, 19]",9,0,[],11.51036563,18091,1075,1,0,9,1.3341568614108437
basic,55,29,0,0,0,0,[0],1,29,"[1, 2, 3, 4, 5, 6, 7, 8, 9, 10, 11, 12, 13, 14, 15, 16, 17, 18, 19, 20, 21, 22, 23, 24, 25, 26, 27, 28, 29]",300,132,-1,1,78,9,0.0
basic,55,29,0,0,0,6,"[0, 6]",2,28,"[1, 2, 3, 4, 5, 7, 8, 9, 10, 11, 12, 13, 14, 15, 16, 17, 18, 19, 20, 21, 22, 23, 24, 25, 26, 27, 28, 29]",228.4108947,2122,1990,1,25,9,1.0
basic,55,29,0,0,0,28,"[0, 6, 28]",3,24,"[1, 3, 4, 5, 7, 9, 10, 11, 12, 13, 14, 15, 16, 17, 18, 20, 21, 22, 23, 24, 25, 26, 27, 29]",187.1798384,3337,1215,1,22,9,1.162106788166845
basic,55,29,0,0,0,27,"[0, 6, 28, 27]",4,19,"[1, 3, 4, 5, 7, 9, 10, 11, 12, 13, 14, 15, 16, 21, 22, 23, 25, 26, 29]",166.6615539,3954,617,1,21,9,1.2307173895439045
basic,55,29,0,0,0,22,"[0, 6, 28, 27, 22]",5,13,"[1, 3, 4, 5, 7, 9, 12, 13, 14, 15, 21, 26, 29]",133.4200136,4541,587,1,19,9,1.4241767805149903
basic,55,29,0,0,0,12,"[0, 6, 28, 27, 22, 12]",6,8,"[4, 5, 7, 9, 13, 14, 21, 26]",95.4726817,6092,1551,1,6,9,1.3248355326460857
basic,55,29,0,0,0,7,"[0, 6, 28, 27, 22, 12, 7]",7,4,"[4, 5, 9, 21]",81.87121119,6989,897,1,3,9,1.3264091962339806
basic,55,29,0,0,0,9,"[0, 6, 28, 27, 22, 12, 7, 9]",8,1,[4],52.80232748,7787,798,1,0,9,1.309391257644539
basic,55,29,0,0,1,4,"[0, 6, 28, 27, 22, 12, 7, 9, 4]",9,0,[],11.76575843,8628,841,1,0,9,1.6396807789841599
basic,55,29,0,1,1,4,"[0, 6, 28, 27, 22, 12, 7, 9, 4]",9,0,[],11.76575843,9312,684,1,0,9,1.6396807789841599
basic,56,17,0,0,0,0,[0],1,28,"[1, 2, 3, 4, 5, 6, 7, 8, 9, 10, 11, 12, 13, 14, 15, 16, 17, 18, 19, 20, 22, 23, 24, 25, 26, 27, 28, 29]",300,132,-1,2,73,8,0.0
basic,56,17,0,0,0,9,"[0, 9]",2,25,"[1, 2, 3, 5, 6, 7, 8, 10, 11, 12, 14, 15, 16, 17, 18, 19, 20, 22, 23, 24, 25, 26, 27, 28, 29]",210.5293344,2490,2358,1,34,8,1.0
basic,56,17,0,0,0,16,"[0, 9, 16]",3,21,"[1, 2, 3, 5, 7, 8, 10, 11, 12, 14, 17, 18, 19, 20, 22, 23, 25, 26, 27, 28, 29]",197.1876704,3324,834,1,26,8,1.173103464220352
basic,56,17,0,0,0,2,"[0, 9, 16, 2]",4,18,"[1, 3, 5, 7, 8, 10, 11, 12, 14, 17, 18, 19, 23, 25, 26, 27, 28, 29]",181.0631549,3938,614,1,23,8,1.14825089247282
basic,56,17,0,0,0,8,"[0, 9, 16, 2, 8]",5,9,"[3, 7, 10, 11, 12, 14, 17, 26, 27]",145.9490551,6721,2783,1,9,8,1.1509808066472915
basic,56,17,0,0,0,27,"[0, 9, 16, 2, 8, 27]",6,3,"[7, 12, 26]",63.31129136,8125,1404,1,2,8,1.1020704318716983
basic,56,17,0,0,0,12,"[0, 9, 16, 2, 8, 27, 12]",7,1,[26],40.31129136,8803,678,1,0,8,1.094321365620665
basic,56,17,0,0,1,26,"[0, 9, 16, 2, 8, 27, 12, 26]",8,0,[],5.197191627,9840,1037,1,0,8,1.2018360298670372
basic,56,17,0,1,1,26,"[0, 9, 16, 2, 8, 27, 12, 26]",8,0,[],5.197191627,10778,938,1,0,8,1.2018360298670372
basic,57,36,0,0,0,0,[0],1,24,"[2, 4, 5, 6, 7, 8, 9, 10, 12, 13, 14, 15, 16, 17, 18, 19, 20, 22, 23, 25, 26, 27, 28, 29]",300,147,-1,2,200,10,0.0
basic,57,36,0,0,0,12,"[0, 12]",2,23,"[2, 4, 5, 6, 7, 8, 9, 10, 13, 14, 15, 16, 17, 18, 19, 20, 22, 23, 25, 26, 27, 28, 29]",277.7963967,2821,2674,90,804,9,1.0
basic,57,36,0,0,0,9,"[0, 12, 9]",3,14,"[2, 4, 8, 10, 13, 16, 17, 18, 19, 23, 25, 27, 28, 29]",215.4345494,4104,1283,32,191,9,1.224429481246385
basic,57,36,0,0,0,19,"[0, 12, 9, 19]",4,13,"[2, 4, 8, 10, 13, 16, 17, 18, 23, 25, 27, 28, 29]",200.3018034,6404,2300,14,61,9,1.293473472808712
basic,57,36,0,0,0,17,"[0, 12, 9, 19, 17]",5,8,"[2, 10, 13, 16, 18, 23, 25, 27]",172.4091521,9373,2969,5,15,9,1.3499598639024968
basic,57,36,0,0,0,2,"[0, 12, 9, 19, 17, 2]",6,6,"[10, 13, 16, 18, 25, 27]",131.1780958,10143,770,2,3,9,1.4949360491624875
basic,57,36,0,0,0,25,"[0, 12, 9, 19, 17, 2, 25]",7,3,"[10, 13, 16]",106.1780958,10908,765,1,2,9,1.6929129985884974
basic,57,36,0,0,0,13,"[0, 12, 9, 19, 17, 2, 25, 13]",8,1,[10],85.58683553,11768,860,1,0,9,2.1860692255369774
basic,57,36,0,0,1,10,"[0, 12, 9, 19, 17, 2, 25, 13, 10]",9,0,[],9.626319468,12891,1123,1,0,9,1.6695312782676606
basic,57,36,0,1,1,10,"[0, 12, 9, 19, 17, 2, 25, 13, 10]",9,0,[],9.626319468,13410,519,1,0,9,1.6695312782676606
basic,58,31,0,0,0,0,[0],1,27,"[1, 3, 4, 5, 6, 7, 8, 10, 11, 12, 13, 14, 15, 16, 17, 18, 19, 20, 21, 22, 23, 24, 25, 26, 27, 28, 29]",300,164,-1,2,87,10,0.0
basic,58,31,0,0,0,14,"[0, 14]",2,25,"[1, 3, 5, 6, 7, 8, 10, 11, 12, 13, 15, 16, 17, 18, 19, 20, 21, 22, 23, 24, 25, 26, 27, 28, 29]",263.861378,2654,2490,2,59,10,1.0
basic,58,31,0,0,0,27,"[0, 14, 27]",3,22,"[1, 3, 5, 6, 7, 8, 10, 11, 12, 13, 15, 16, 17, 18, 19, 20, 21, 22, 24, 25, 28, 29]",235.6833724,3443,789,1,39,10,1.5881859159302467
basic,58,31,0,0,0,8,"[0, 14, 27, 8]",4,20,"[1, 3, 5, 6, 7, 10, 11, 12, 13, 16, 17, 18, 19, 20, 21, 22, 24, 25, 28, 29]",224.6380114,4104,661,1,36,10,2.1665048452331277
basic,58,31,0,0,0,18,"[0, 14, 27, 8, 18]",5,15,"[1, 5, 6, 7, 11, 12, 13, 16, 17, 19, 20, 22, 25, 28, 29]",188.7911147,5262,1158,1,26,10,1.7273375741920205
basic,58,31,0,0,0,17,"[0, 14, 27, 8, 18, 17]",6,13,"[1, 5, 6, 7, 11, 12, 13, 16, 19, 20, 22, 25, 28]",159.584951,9235,3973,1,13,10,1.551192427769927
basic,58,31,0,0,0,11,"[0, 14, 27, 8, 18, 17, 11]",7,7,"[5, 12, 16, 19, 22, 25, 28]",118.4753414,11959,2724,1,4,10,2.9650760544203494
basic,58,31,0,0,0,5,"[0, 14, 27, 8, 18, 17, 11, 5]",8,2,"[16, 28]",74.79468207,12753,794,1,1,10,2.56711965625205
basic,58,31,0,0,0,28,"[0, 14, 27, 8, 18, 17, 11, 5, 28]",9,1,[16],54.57093365,13654,901,1,0,10,2.2865510762058148
basic,58,31,0,0,1,16,"[0, 14, 27, 8, 18, 17, 11, 5, 28, 16]",10,0,[],20.95546102,14540,886,1,0,10,2.089356850786318
basic,58,31,0,1,1,16,"[0, 14, 27, 8, 18, 17, 11, 5, 28, 16]",10,0,[],20.95546102,15443,903,1,0,10,2.089356850786318
basic,59,6,0,0,0,0,[0],1,29,"[1, 2, 3, 4, 5, 6, 7, 8, 9, 10, 11, 12, 13, 14, 15, 16, 17, 18, 19, 20, 21, 22, 23, 24, 25, 26, 27, 28, 29]",300,147,-1,180,4304,10,0.0
basic,59,6,0,0,0,3,"[0, 3]",2,28,"[1, 2, 4, 5, 6, 7, 8, 9, 10, 11, 12, 13, 14, 15, 16, 17, 18, 19, 20, 21, 22, 23, 24, 25, 26, 27, 28, 29]",266.4738908,2844,2697,90,1607,10,1.0
basic,59,6,0,0,0,10,"[0, 3, 10]",3,27,"[1, 2, 4, 5, 6, 7, 8, 9, 11, 12, 13, 14, 15, 16, 17, 18, 19, 20, 21, 22, 23, 24, 25, 26, 27, 28, 29]",215.2293789,5920,3076,8,136,10,1.0050517746249001
basic,59,6,0,0,0,24,"[0, 3, 10, 24]",4,23,"[1, 2, 4, 5, 6, 7, 8, 11, 13, 14, 16, 17, 18, 19, 20, 21, 22, 23, 25, 26, 27, 28, 29]",201.812971,6567,647,8,85,10,1.0091851911500884
basic,59,6,0,0,0,17,"[0, 3, 10, 24, 17]",5,19,"[1, 2, 4, 5, 6, 7, 8, 11, 13, 14, 16, 18, 20, 21, 22, 23, 26, 27, 29]",172.5384087,7323,756,8,53,10,1.8060138032707682
basic,59,6,0,0,0,18,"[0, 3, 10, 24, 17, 18]",6,15,"[1, 2, 6, 7, 8, 13, 14, 16, 20, 21, 22, 23, 26, 27, 29]",158.6100204,7921,598,7,36,10,2.3216150751946008
basic,59,6,0,0,0,16,"[0, 3, 10, 24, 17, 18, 16]",7,13,"[1, 2, 6, 7, 13, 14, 20, 21, 22, 23, 26, 27, 29]",135.2647853,8602,681,7,21,10,2.2822729587843544
basic,59,6,0,0,0,29,"[0, 3, 10, 24, 17, 18, 16, 29]",8,7,"[6, 14, 20, 21, 22, 23, 27]",98.57691268,9228,626,6,4,10,1.8911507070056388
basic,59,6,0,0,0,23,"[0, 3, 10, 24, 17, 18, 16, 29, 23]",9,2,"[6, 22]",51.05849519,10902,1674,2,0,10,1.8549852217940308
basic,59,6,0,0,1,6,"[0, 3, 10, 24, 17, 18, 16, 29, 23, 6]",10,0,[],15.70315613,12835,1933,1,0,10,1.7651720921259988
basic,59,6,0,1,1,6,"[0, 3, 10, 24, 17, 18, 16, 29, 23, 6]",10,0,[],15.70315613,14510,1675,1,0,10,1.7651720921259988
basic,60,28,0,0,0,0,[0],1,27,"[1, 2, 3, 4, 5, 6, 7, 8, 9, 10, 11, 12, 13, 14, 15, 16, 17, 18, 19, 20, 22, 23, 25, 26, 27, 28, 29]",300,147,-1,2,96,9,0.0
