condition,trial_id,map_id,undoIndicator,submit,checkEnd,currentChoice,chosen_all,n_city_all,n_within_reach,cities_reach,currentBudget,time_all,rt_all,n_opt_paths_all,n_subopt_paths_all,mas_all,tortuosity_all
basic,0,37,0,0,0,0,[0],1,29,"[1, 2, 3, 4, 5, 6, 7, 8, 9, 10, 11, 12, 13, 14, 15, 16, 17, 18, 19, 20, 21, 22, 23, 24, 25, 26, 27, 28, 29]",300,144,-1,6,168,10,0.0
basic,0,37,0,0,0,9,"[0, 9]",2,28,"[1, 2, 3, 4, 5, 6, 7, 8, 10, 11, 12, 13, 14, 15, 16, 17, 18, 19, 20, 21, 22, 23, 24, 25, 26, 27, 28, 29]",275.7925631,5059,4915,45,289,9,1.0
basic,0,37,0,0,0,18,"[0, 9, 18]",3,15,"[1, 2, 4, 6, 7, 10, 15, 17, 19, 20, 21, 22, 26, 28, 29]",172.2068498,6419,1360,33,160,9,1.3094770236215172
basic,0,37,0,0,0,7,"[0, 9, 18, 7]",4,9,"[1, 2, 4, 15, 19, 20, 21, 22, 26]",145.0406944,7517,1098,17,59,9,1.293395038406712
basic,0,37,0,0,0,22,"[0, 9, 18, 7, 22]",5,7,"[1, 2, 4, 15, 19, 20, 21]",95.04069441,8586,1069,6,17,9,1.2585327043140475
basic,0,37,0,0,0,4,"[0, 9, 18, 7, 22, 4]",6,5,"[1, 2, 15, 20, 21]",70.04069441,9688,1102,4,7,9,1.4148462251829255
basic,0,37,0,0,0,2,"[0, 9, 18, 7, 22, 4, 2]",7,3,"[1, 15, 20]",58.63894016,10645,957,2,2,9,1.5965980495342236
basic,0,37,0,0,0,1,"[0, 9, 18, 7, 22, 4, 2, 1]",8,2,"[15, 20]",41.43428963,11542,897,2,0,9,1.6331913686535429
basic,0,37,0,0,1,15,"[0, 9, 18, 7, 22, 4, 2, 1, 15]",9,0,[],1.471807221,12898,1356,1,0,9,1.7940707213212848
basic,0,37,0,1,1,15,"[0, 9, 18, 7, 22, 4, 2, 1, 15]",9,0,[],1.471807221,14809,1911,1,0,9,1.7940707213212848
basic,1,32,0,0,0,0,[0],1,29,"[1, 2, 3, 4, 5, 6, 7, 8, 9, 10, 11, 12, 13, 14, 15, 16, 17, 18, 19, 20, 21, 22, 23, 24, 25, 26, 27, 28, 29]",300,146,-1,17,359,10,0.0
basic,1,32,0,0,0,19,"[0, 19]",2,28,"[1, 2, 3, 4, 5, 6, 7, 8, 9, 10, 11, 12, 13, 14, 15, 16, 17, 18, 20, 21, 22, 23, 24, 25, 26, 27, 28, 29]",283.5075775,2591,2445,16,294,10,1.0
basic,1,32,0,0,0,13,"[0, 19, 13]",3,24,"[2, 3, 4, 5, 6, 8, 9, 10, 11, 12, 14, 15, 16, 17, 18, 20, 21, 22, 23, 24, 25, 26, 27, 28]",260.3127505,3532,941,14,227,10,1.0172874229878615
basic,1,32,0,0,0,15,"[0, 19, 13, 15]",4,18,"[2, 3, 5, 8, 9, 10, 11, 12, 16, 17, 20, 22, 23, 24, 25, 26, 27, 28]",177.4393531,6075,2543,9,116,10,1.435447391509833
basic,1,32,0,0,0,28,"[0, 19, 13, 15, 28]",5,17,"[2, 3, 5, 8, 9, 10, 11, 12, 16, 17, 20, 22, 23, 24, 25, 26, 27]",166.0375988,7118,1043,9,70,10,1.3843701324937985
basic,1,32,0,0,0,12,"[0, 19, 13, 15, 28, 12]",6,14,"[2, 3, 5, 8, 9, 10, 11, 16, 17, 20, 22, 24, 26, 27]",147.0639329,8616,1498,6,35,10,1.358372254952329
basic,1,32,0,0,0,16,"[0, 19, 13, 15, 28, 12, 16]",7,13,"[2, 3, 5, 8, 9, 10, 11, 17, 20, 22, 24, 26, 27]",131.411457,9655,1039,5,15,10,1.4356932930709845
basic,1,32,0,0,0,22,"[0, 19, 13, 15, 28, 12, 16, 22]",8,6,"[2, 8, 9, 17, 20, 27]",97.57360838,10777,1122,3,5,10,1.4335226411545752
basic,1,32,0,0,0,9,"[0, 19, 13, 15, 28, 12, 16, 22, 9]",9,3,"[2, 8, 20]",75.37000507,11771,994,3,0,10,1.4837166378374758
basic,1,32,0,0,1,2,"[0, 19, 13, 15, 28, 12, 16, 22, 9, 2]",10,0,[],24.28184597,15816,4045,1,0,10,1.9009621017233784
basic,1,32,0,1,1,2,"[0, 19, 13, 15, 28, 12, 16, 22, 9, 2]",10,0,[],24.28184597,17513,1697,1,0,10,1.9009621017233784
basic,2,13,0,0,0,0,[0],1,29,"[1, 2, 3, 4, 5, 6, 7, 8, 9, 10, 11, 12, 13, 14, 15, 16, 17, 18, 19, 20, 21, 22, 23, 24, 25, 26, 27, 28, 29]",300,165,-1,60,2676,11,0.0
basic,2,13,0,0,0,24,"[0, 24]",2,28,"[1, 2, 3, 4, 5, 6, 7, 8, 9, 10, 11, 12, 13, 14, 15, 16, 17, 18, 19, 20, 21, 22, 23, 25, 26, 27, 28, 29]",288.8196601,4344,4179,16,1444,11,1.0
basic,2,13,0,0,0,23,"[0, 24, 23]",3,27,"[1, 2, 3, 4, 5, 6, 7, 8, 9, 10, 11, 12, 13, 14, 15, 16, 17, 18, 19, 20, 21, 22, 25, 26, 27, 28, 29]",243.1140806,5308,964,2,868,11,1.0065545717039834
basic,2,13,0,0,0,28,"[0, 24, 23, 28]",4,21,"[1, 2, 3, 4, 6, 7, 9, 10, 11, 12, 13, 15, 16, 17, 19, 20, 21, 22, 26, 27, 29]",177.7458926,6445,1137,1,253,11,1.6592183354372274
basic,2,13,0,0,0,2,"[0, 24, 23, 28, 2]",5,15,"[1, 3, 6, 7, 9, 11, 12, 13, 15, 16, 17, 19, 21, 26, 29]",140.1028322,7709,1264,1,80,11,1.459046951791535
basic,2,13,0,0,0,29,"[0, 24, 23, 28, 2, 29]",6,9,"[1, 6, 7, 11, 13, 16, 17, 19, 26]",128.3981322,8650,941,1,31,11,1.5417142413159963
basic,2,13,0,0,0,7,"[0, 24, 23, 28, 2, 29, 7]",7,8,"[1, 6, 11, 13, 16, 17, 19, 26]",113.1337947,9673,1023,1,10,11,1.77525557938341
basic,2,13,0,0,0,26,"[0, 24, 23, 28, 2, 29, 7, 26]",8,6,"[1, 6, 11, 13, 16, 19]",102.6934882,10840,1167,1,4,11,2.0623372568692724
basic,2,13,0,0,0,6,"[0, 24, 23, 28, 2, 29, 7, 26, 6]",9,3,"[11, 13, 16]",82.59373697,11871,1031,1,2,11,2.002320377701536
basic,2,13,0,0,0,11,"[0, 24, 23, 28, 2, 29, 7, 26, 6, 11]",10,1,[13],63.48876379,12881,1010,1,0,11,1.8540921292495773
basic,2,13,0,0,1,13,"[0, 24, 23, 28, 2, 29, 7, 26, 6, 11, 13]",11,0,[],7.408464223,15109,2228,1,0,11,1.6123988786574368
basic,2,13,0,1,1,13,"[0, 24, 23, 28, 2, 29, 7, 26, 6, 11, 13]",11,0,[],7.408464223,17732,2623,1,0,11,1.6123988786574368
basic,3,2,0,0,0,0,[0],1,23,"[1, 2, 4, 5, 6, 7, 8, 9, 12, 13, 15, 16, 17, 18, 19, 20, 22, 23, 25, 26, 27, 28, 29]",300,151,-1,70,620,10,0.0
basic,3,2,0,0,0,19,"[0, 19]",2,22,"[1, 2, 4, 5, 6, 7, 8, 9, 12, 13, 15, 16, 17, 18, 20, 22, 23, 25, 26, 27, 28, 29]",210.306076,6863,6712,67,431,10,1.0
basic,3,2,0,0,0,12,"[0, 19, 12]",3,17,"[1, 4, 5, 6, 7, 13, 15, 16, 17, 18, 20, 22, 25, 26, 27, 28, 29]",174.2921898,8003,1140,66,298,10,1.1107635036313153
basic,3,2,0,0,0,5,"[0, 19, 12, 5]",4,11,"[1, 6, 7, 13, 15, 16, 18, 22, 25, 26, 29]",144.7625437,9354,1351,38,136,10,1.0968174771581647
basic,3,2,0,0,0,22,"[0, 19, 12, 5, 22]",5,8,"[1, 6, 7, 13, 15, 18, 26, 29]",131.9562952,10389,1035,20,63,10,1.0889910507461968
basic,3,2,0,0,0,13,"[0, 19, 12, 5, 22, 13]",6,7,"[1, 6, 7, 15, 18, 26, 29]",117.0902265,11430,1041,19,20,10,1.236526217328057
basic,3,2,0,0,0,18,"[0, 19, 12, 5, 22, 13, 18]",7,4,"[7, 15, 26, 29]",81.91921567,12568,1138,10,3,10,1.2128708213409936
basic,3,2,0,0,0,7,"[0, 19, 12, 5, 22, 13, 18, 7]",8,3,"[15, 26, 29]",71.62358553,13690,1122,5,0,10,1.2019811287894737
basic,3,2,0,0,0,26,"[0, 19, 12, 5, 22, 13, 18, 7, 26]",9,2,"[15, 29]",48.82007703,14826,1136,2,0,10,1.1883593342191134
basic,3,2,0,0,1,15,"[0, 19, 12, 5, 22, 13, 18, 7, 26, 15]",10,0,[],24.61264015,15758,932,1,0,10,1.4619750353663825
basic,3,2,0,1,1,15,"[0, 19, 12, 5, 22, 13, 18, 7, 26, 15]",10,0,[],24.61264015,18830,3072,1,0,10,1.4619750353663825
basic,4,45,0,0,0,0,[0],1,24,"[1, 2, 3, 4, 5, 6, 7, 9, 10, 11, 12, 14, 15, 16, 17, 19, 20, 21, 22, 23, 24, 25, 27, 29]",300,164,-1,6,248,10,0.0
basic,4,45,0,0,0,15,"[0, 15]",2,23,"[1, 2, 3, 4, 5, 6, 7, 9, 10, 11, 12, 14, 16, 17, 19, 20, 21, 22, 23, 24, 25, 27, 29]",253.9022777,5151,4987,5,207,10,1.0
basic,4,45,0,0,0,23,"[0, 15, 23]",3,22,"[1, 2, 3, 4, 5, 6, 7, 9, 10, 11, 12, 14, 16, 17, 19, 20, 21, 22, 24, 25, 27, 29]",230.3014303,6008,857,5,163,10,1.0006068457769497
basic,4,45,0,0,0,20,"[0, 15, 23, 20]",4,19,"[1, 2, 3, 5, 6, 7, 9, 10, 11, 12, 14, 16, 17, 19, 21, 22, 24, 25, 29]",188.8647316,7068,1060,5,137,10,1.2062119754673604
basic,4,45,0,0,0,24,"[0, 15, 23, 20, 24]",5,14,"[1, 2, 3, 5, 6, 7, 9, 10, 12, 17, 19, 21, 22, 29]",145.0355176,8587,1519,1,23,10,1.5044386356496664
basic,4,45,0,0,0,7,"[0, 15, 23, 20, 24, 7]",6,9,"[2, 3, 6, 10, 12, 17, 19, 22, 29]",110.6262165,9621,1034,1,22,10,1.4273775035809357
basic,4,45,0,0,0,2,"[0, 15, 23, 20, 24, 7, 2]",7,6,"[3, 6, 10, 12, 22, 29]",72.61306087,10647,1026,1,7,10,1.3566457419165387
basic,4,45,0,0,0,3,"[0, 15, 23, 20, 24, 7, 2, 3]",8,4,"[6, 10, 22, 29]",47.29508307,11620,973,1,3,10,1.4087069987569252
basic,4,45,0,0,0,29,"[0, 15, 23, 20, 24, 7, 2, 3, 29]",9,1,[10],27.29508307,12508,888,1,0,10,1.6931989191216303
basic,4,45,0,0,1,10,"[0, 15, 23, 20, 24, 7, 2, 3, 29, 10]",10,0,[],5.754423843,13359,851,1,0,10,1.9996819797033594
basic,4,45,0,1,1,10,"[0, 15, 23, 20, 24, 7, 2, 3, 29, 10]",10,0,[],5.754423843,15596,2237,1,0,10,1.9996819797033594
basic,5,11,0,0,0,0,[0],1,25,"[1, 2, 3, 4, 5, 6, 8, 9, 10, 11, 12, 13, 14, 15, 16, 17, 18, 19, 20, 22, 23, 25, 26, 27, 28]",300,146,-1,6,374,12,0.0
basic,5,11,0,0,0,1,"[0, 1]",2,24,"[2, 3, 4, 5, 6, 8, 9, 10, 11, 12, 13, 14, 15, 16, 17, 18, 19, 20, 22, 23, 25, 26, 27, 28]",264.6446609,4950,4804,6,217,12,1.0
basic,5,11,0,0,0,18,"[0, 1, 18]",3,19,"[2, 4, 5, 6, 8, 9, 11, 12, 14, 15, 16, 17, 19, 20, 22, 23, 25, 27, 28]",212.3187591,6261,1311,6,161,12,1.3884463804898786
basic,5,11,0,0,0,27,"[0, 1, 18, 27]",4,18,"[2, 4, 5, 6, 8, 9, 11, 12, 14, 15, 16, 17, 19, 20, 22, 23, 25, 28]",188.4650382,7224,963,6,155,12,1.3600813284083875
basic,5,11,0,0,0,17,"[0, 1, 18, 27, 17]",5,11,"[2, 5, 6, 8, 11, 12, 15, 19, 22, 25, 28]",111.3871556,8528,1304,2,45,12,1.282398281674261
basic,5,11,0,0,0,8,"[0, 1, 18, 27, 17, 8]",6,7,"[2, 5, 11, 12, 15, 22, 28]",97.0693345,9868,1340,2,21,12,1.3975291553712
basic,5,11,0,0,0,15,"[0, 1, 18, 27, 17, 8, 15]",7,6,"[2, 5, 11, 12, 22, 28]",83.61571045,10718,850,2,18,12,1.3793915678186077
basic,5,11,0,0,0,11,"[0, 1, 18, 27, 17, 8, 15, 11]",8,4,"[2, 5, 22, 28]",65.50494017,11686,968,2,14,12,1.3525960247899067
basic,5,11,0,0,0,5,"[0, 1, 18, 27, 17, 8, 15, 11, 5]",9,3,"[2, 22, 28]",30.27711026,13922,2236,3,1,11,1.6578645187532492
basic,5,11,0,0,0,28,"[0, 1, 18, 27, 17, 8, 15, 11, 5, 28]",10,1,[2],12.38856644,15218,1296,1,0,11,1.6643856894358244
basic,5,11,0,0,1,2,"[0, 1, 18, 27, 17, 8, 15, 11, 5, 28, 2]",11,0,[],1.758420632,16001,783,1,0,11,1.6709326167301912
basic,5,11,0,1,1,2,"[0, 1, 18, 27, 17, 8, 15, 11, 5, 28, 2]",11,0,[],1.758420632,17746,1745,1,0,11,1.6709326167301912
basic,6,28,0,0,0,0,[0],1,27,"[1, 2, 3, 4, 5, 6, 7, 8, 9, 10, 11, 12, 13, 14, 15, 16, 17, 18, 19, 20, 22, 23, 25, 26, 27, 28, 29]",300,147,-1,2,96,9,0.0
basic,6,28,0,0,0,6,"[0, 6]",2,21,"[2, 3, 4, 5, 7, 8, 9, 10, 11, 12, 13, 14, 15, 16, 18, 19, 20, 22, 23, 26, 28]",262.3436592,15988,15841,5,54,7,1.0
basic,6,28,0,0,0,10,"[0, 6, 10]",3,10,"[3, 5, 11, 13, 14, 15, 18, 19, 20, 26]",187.0708222,17104,1116,3,11,6,2.4186772484930654
basic,6,28,0,0,0,3,"[0, 6, 10, 3]",4,6,"[5, 14, 15, 18, 20, 26]",123.0005482,18079,975,2,4,6,3.618266672587524
basic,6,28,0,0,0,20,"[0, 6, 10, 3, 20]",5,1,[15],81.66049503,18987,908,1,0,6,4.040553816922477
basic,6,28,0,0,1,15,"[0, 6, 10, 3, 20, 15]",6,0,[],29.16287604,19972,985,1,0,6,2.727531254804523
basic,6,28,0,1,1,15,"[0, 6, 10, 3, 20, 15]",6,0,[],29.16287604,24279,4307,1,0,6,2.727531254804523
basic,7,10,0,0,0,0,[0],1,29,"[1, 2, 3, 4, 5, 6, 7, 8, 9, 10, 11, 12, 13, 14, 15, 16, 17, 18, 19, 20, 21, 22, 23, 24, 25, 26, 27, 28, 29]",300,148,-1,1,100,9,0.0
basic,7,10,0,0,0,13,"[0, 13]",2,25,"[1, 2, 3, 4, 6, 7, 8, 9, 10, 11, 12, 14, 17, 18, 19, 20, 21, 22, 23, 24, 25, 26, 27, 28, 29]",249.4628849,8178,8030,1,79,9,1.0
basic,7,10,0,0,0,19,"[0, 13, 19]",3,12,"[2, 6, 8, 9, 10, 11, 14, 18, 20, 24, 26, 27]",180.5861835,12469,4291,11,79,8,1.0000581961988606
basic,7,10,0,0,0,2,"[0, 13, 19, 2]",4,5,"[11, 14, 20, 26, 27]",136.6771867,13778,1309,3,9,8,1.000456581399483
basic,7,10,0,0,0,14,"[0, 13, 19, 2, 14]",5,4,"[11, 20, 26, 27]",124.5116616,14821,1043,3,6,8,1.0972737011325653
basic,7,10,0,0,0,26,"[0, 13, 19, 2, 14, 26]",6,3,"[11, 20, 27]",89.84178999,16053,1232,3,1,8,1.5868342521575007
basic,7,10,0,0,0,11,"[0, 13, 19, 2, 14, 26, 11]",7,1,[20],48.08056395,17153,1100,1,0,8,2.7772471764176028
basic,7,10,0,0,1,20,"[0, 13, 19, 2, 14, 26, 11, 20]",8,0,[],10.00169842,19856,2703,1,0,8,2.3959438836221785
basic,7,10,0,1,1,20,"[0, 13, 19, 2, 14, 26, 11, 20]",8,0,[],10.00169842,21498,1642,1,0,8,2.3959438836221785
basic,8,20,0,0,0,0,[0],1,21,"[1, 2, 3, 4, 5, 6, 7, 8, 9, 12, 17, 18, 20, 21, 22, 23, 25, 26, 27, 28, 29]",300,148,-1,1,9,9,0.0
basic,8,20,0,0,0,12,"[0, 12]",2,20,"[1, 2, 3, 4, 5, 6, 7, 8, 9, 17, 18, 20, 21, 22, 23, 25, 26, 27, 28, 29]",271.5570747,6189,6041,1,8,9,1.0
basic,8,20,0,0,0,1,"[0, 12, 1]",3,12,"[3, 4, 5, 6, 8, 9, 20, 21, 23, 27, 28, 29]",189.5692707,8244,2055,1,6,9,1.0757997779162911
basic,8,20,0,0,0,5,"[0, 12, 1, 5]",4,10,"[4, 6, 8, 9, 20, 21, 23, 27, 28, 29]",152.8950291,9368,1124,1,5,9,1.1708231454516806
basic,8,20,0,0,0,28,"[0, 12, 1, 5, 28]",5,4,"[8, 9, 21, 23]",82.8593239,11538,2170,2,2,7,1.1313554119713172
basic,8,20,0,0,0,21,"[0, 12, 1, 5, 28, 21]",6,1,[8],46.61018598,12364,826,1,0,7,1.4854739689057037
basic,8,20,0,0,1,8,"[0, 12, 1, 5, 28, 21, 8]",7,0,[],29.14593678,13272,908,1,0,7,1.473382662603891
basic,8,20,0,1,1,8,"[0, 12, 1, 5, 28, 21, 8]",7,0,[],29.14593678,17081,3809,1,0,7,1.473382662603891
basic,9,36,0,0,0,0,[0],1,24,"[2, 4, 5, 6, 7, 8, 9, 10, 12, 13, 14, 15, 16, 17, 18, 19, 20, 22, 23, 25, 26, 27, 28, 29]",300,132,-1,2,200,10,0.0
basic,9,36,0,0,0,12,"[0, 12]",2,23,"[2, 4, 5, 6, 7, 8, 9, 10, 13, 14, 15, 16, 17, 18, 19, 20, 22, 23, 25, 26, 27, 28, 29]",277.7963967,4676,4544,90,804,9,1.0
basic,9,36,0,0,0,9,"[0, 12, 9]",3,14,"[2, 4, 8, 10, 13, 16, 17, 18, 19, 23, 25, 27, 28, 29]",215.4345494,8087,3411,32,191,9,1.224429481246385
basic,9,36,0,0,0,19,"[0, 12, 9, 19]",4,13,"[2, 4, 8, 10, 13, 16, 17, 18, 23, 25, 27, 28, 29]",200.3018034,8805,718,14,61,9,1.293473472808712
basic,9,36,0,0,0,17,"[0, 12, 9, 19, 17]",5,8,"[2, 10, 13, 16, 18, 23, 25, 27]",172.4091521,9620,815,5,15,9,1.3499598639024968
basic,9,36,0,0,0,16,"[0, 12, 9, 19, 17, 16]",6,4,"[2, 13, 18, 25]",144.0895475,10419,799,3,3,9,1.4606837012731375
basic,9,36,0,0,0,2,"[0, 12, 9, 19, 17, 16, 2]",7,2,"[13, 25]",77.44121674,11907,1488,2,0,9,1.9707818705738465
basic,9,36,0,0,0,25,"[0, 12, 9, 19, 17, 16, 2, 25]",8,1,[13],52.44121674,12758,851,1,0,9,2.1622709973128336
basic,9,36,0,0,1,13,"[0, 12, 9, 19, 17, 16, 2, 25, 13]",9,0,[],31.84995645,13673,915,1,0,9,2.733948540333557
basic,9,36,0,1,1,13,"[0, 12, 9, 19, 17, 16, 2, 25, 13]",9,0,[],31.84995645,16731,3058,1,0,9,2.733948540333557
basic,10,8,0,0,0,0,[0],1,29,"[1, 2, 3, 4, 5, 6, 7, 8, 9, 10, 11, 12, 13, 14, 15, 16, 17, 18, 19, 20, 21, 22, 23, 24, 25, 26, 27, 28, 29]",300,163,-1,10,149,9,0.0
basic,10,8,0,0,0,5,"[0, 5]",2,28,"[1, 2, 3, 4, 6, 7, 8, 9, 10, 11, 12, 13, 14, 15, 16, 17, 18, 19, 20, 21, 22, 23, 24, 25, 26, 27, 28, 29]",254.5137383,4208,4045,10,100,9,1.0
basic,10,8,0,0,0,25,"[0, 5, 25]",3,20,"[1, 2, 3, 4, 6, 11, 12, 14, 15, 16, 17, 18, 19, 20, 21, 22, 23, 24, 28, 29]",215.3091468,5242,1034,4,42,9,1.2272747879909065
basic,10,8,0,0,0,1,"[0, 5, 25, 1]",4,17,"[3, 4, 6, 11, 12, 14, 15, 16, 17, 18, 20, 21, 22, 23, 24, 28, 29]",190.3091468,6188,946,3,24,9,1.1770245007593956
basic,10,8,0,0,0,23,"[0, 5, 25, 1, 23]",5,15,"[3, 4, 6, 11, 14, 15, 16, 17, 18, 20, 21, 22, 24, 28, 29]",167.2874179,8272,2084,1,14,9,1.141996583852372
basic,10,8,0,0,0,18,"[0, 5, 25, 1, 23, 18]",6,9,"[3, 4, 11, 14, 15, 16, 17, 24, 28]",125.5261919,9203,931,1,7,9,1.3199166330970717
basic,10,8,0,0,0,28,"[0, 5, 25, 1, 23, 18, 28]",7,1,[16],59.906073,10444,1241,1,0,8,1.425373059246715
basic,10,8,0,0,1,16,"[0, 5, 25, 1, 23, 18, 28, 16]",8,0,[],37.54539323,11494,1050,1,0,8,1.4175143337764708
basic,10,8,0,1,1,16,"[0, 5, 25, 1, 23, 18, 28, 16]",8,0,[],37.54539323,14545,3051,1,0,8,1.4175143337764708
basic,11,30,0,0,0,0,[0],1,19,"[3, 4, 5, 7, 9, 11, 16, 17, 18, 19, 20, 21, 22, 24, 25, 26, 27, 28, 29]",300,148,-1,5,41,8,0.0
basic,11,30,0,0,0,16,"[0, 16]",2,17,"[3, 5, 7, 9, 11, 17, 18, 19, 20, 21, 22, 24, 25, 26, 27, 28, 29]",219.3774225,6588,6440,5,34,8,1.0
basic,11,30,0,0,0,25,"[0, 16, 25]",3,10,"[3, 5, 7, 9, 11, 18, 19, 20, 27, 29]",115.0845656,9366,2778,5,28,8,1.0336279544884488
basic,11,30,0,0,0,20,"[0, 16, 25, 20]",4,8,"[3, 5, 7, 9, 18, 19, 27, 29]",93.15285342,10218,852,4,14,8,1.0337964627284246
basic,11,30,0,0,0,27,"[0, 16, 25, 20, 27]",5,4,"[3, 5, 18, 29]",59.09408069,11258,1040,4,6,8,1.1504365534848
basic,11,30,0,0,0,3,"[0, 16, 25, 20, 27, 3]",6,3,"[5, 18, 29]",39.98910751,12184,926,4,0,8,1.1403876826835333
basic,11,30,0,0,0,29,"[0, 16, 25, 20, 27, 3, 29]",7,1,[18],21.38803228,13056,872,1,0,8,1.1443827771455848
basic,11,30,0,0,1,18,"[0, 16, 25, 20, 27, 3, 29, 18]",8,0,[],2.074824359,15410,2354,1,0,8,1.2197761544023602
basic,11,30,0,1,1,18,"[0, 16, 25, 20, 27, 3, 29, 18]",8,0,[],2.074824359,16746,1336,1,0,8,1.2197761544023602
basic,12,3,0,0,0,0,[0],1,29,"[1, 2, 3, 4, 5, 6, 7, 8, 9, 10, 11, 12, 13, 14, 15, 16, 17, 18, 19, 20, 21, 22, 23, 24, 25, 26, 27, 28, 29]",300,162,-1,34,427,10,0.0
basic,12,3,0,0,0,7,"[0, 7]",2,28,"[1, 2, 3, 4, 5, 6, 8, 9, 10, 11, 12, 13, 14, 15, 16, 17, 18, 19, 20, 21, 22, 23, 24, 25, 26, 27, 28, 29]",278.8103799,5601,5439,24,215,10,1.0
basic,12,3,0,0,0,8,"[0, 7, 8]",3,24,"[1, 2, 3, 4, 5, 6, 10, 11, 12, 13, 14, 15, 16, 17, 18, 19, 20, 21, 22, 24, 25, 26, 27, 28]",222.837172,6586,985,16,114,10,1.2853332575451413
basic,12,3,0,0,0,24,"[0, 7, 8, 24]",4,21,"[1, 3, 4, 5, 6, 10, 11, 12, 14, 15, 16, 17, 18, 19, 20, 21, 22, 25, 26, 27, 28]",210.671647,7356,770,16,91,10,1.5177505014936548
basic,12,3,0,0,0,14,"[0, 7, 8, 24, 14]",5,7,"[3, 4, 10, 17, 19, 20, 21]",139.5590602,9050,1694,4,18,10,1.2465780547557723
basic,12,3,0,0,0,21,"[0, 7, 8, 24, 14, 21]",6,6,"[3, 4, 10, 17, 19, 20]",112.6518121,10549,1499,2,7,10,1.2183717977583874
basic,12,3,0,0,0,19,"[0, 7, 8, 24, 14, 21, 19]",7,5,"[3, 4, 10, 17, 20]",100.4452565,11517,968,2,4,10,1.3521756718137403
basic,12,3,0,0,0,3,"[0, 7, 8, 24, 14, 21, 19, 3]",8,2,"[17, 20]",63.10894706,12693,1176,2,0,10,1.8936141376820974
basic,12,3,0,0,0,20,"[0, 7, 8, 24, 14, 21, 19, 3, 20]",9,1,[17],42.712869,13838,1145,1,0,10,2.2725211329603123
basic,12,3,0,0,1,17,"[0, 7, 8, 24, 14, 21, 19, 3, 20, 17]",10,0,[],30.06375836,14595,757,1,0,10,2.638583435197603
basic,12,3,0,1,1,17,"[0, 7, 8, 24, 14, 21, 19, 3, 20, 17]",10,0,[],30.06375836,17314,2719,1,0,10,2.638583435197603
basic,13,42,0,0,0,0,[0],1,29,"[1, 2, 3, 4, 5, 6, 7, 8, 9, 10, 11, 12, 13, 14, 15, 16, 17, 18, 19, 20, 21, 22, 23, 24, 25, 26, 27, 28, 29]",300,132,-1,16,302,9,0.0
basic,13,42,0,0,0,17,"[0, 17]",2,16,"[1, 2, 3, 4, 5, 6, 7, 8, 9, 11, 15, 22, 23, 24, 25, 29]",208.8627409,10694,10562,24,72,7,1.0
basic,13,42,0,0,0,23,"[0, 17, 23]",3,15,"[1, 2, 3, 4, 5, 6, 7, 8, 9, 11, 15, 22, 24, 25, 29]",197.682401,11473,779,24,42,7,1.2631802345679013
basic,13,42,0,0,0,11,"[0, 17, 23, 11]",4,13,"[1, 2, 3, 4, 5, 6, 7, 8, 15, 22, 24, 25, 29]",152.6712913,12492,1019,8,15,7,1.6051012302383594
basic,13,42,0,0,0,24,"[0, 17, 23, 11, 24]",5,4,"[2, 3, 6, 15]",94.6626712,13518,1026,1,3,7,1.5670496634014655
basic,13,42,0,0,0,15,"[0, 17, 23, 11, 24, 15]",6,1,[6],81.06120069,14490,972,1,0,7,1.513815800273451
basic,13,42,0,0,1,6,"[0, 17, 23, 11, 24, 15, 6]",7,0,[],31.66484455,16254,1764,1,0,7,1.3940852414998803
basic,13,42,0,1,1,6,"[0, 17, 23, 11, 24, 15, 6]",7,0,[],31.66484455,17663,1409,1,0,7,1.3940852414998803
basic,14,34,0,0,0,0,[0],1,25,"[1, 3, 4, 5, 6, 7, 8, 9, 10, 11, 12, 13, 15, 18, 19, 20, 21, 22, 23, 24, 25, 26, 27, 28, 29]",300,130,-1,12,367,10,0.0
basic,14,34,0,0,0,13,"[0, 13]",2,24,"[1, 3, 4, 5, 6, 7, 8, 9, 10, 11, 12, 15, 18, 19, 20, 21, 22, 23, 24, 25, 26, 27, 28, 29]",279.9750156,1707,1577,12,331,10,1.0
basic,14,34,0,0,0,1,"[0, 13, 1]",3,16,"[3, 5, 7, 8, 9, 10, 11, 12, 19, 21, 22, 23, 24, 25, 27, 29]",211.8574701,2949,1242,3,92,10,1.0010381285747127
basic,14,34,0,0,0,8,"[0, 13, 1, 8]",4,14,"[3, 5, 7, 9, 10, 11, 12, 19, 22, 23, 24, 25, 27, 29]",201.0871405,3837,888,2,54,10,1.1636807
basic,14,34,0,0,0,25,"[0, 13, 1, 8, 25]",5,12,"[3, 5, 7, 9, 10, 11, 12, 22, 23, 24, 27, 29]",183.999133,4705,868,2,28,10,1.1396208815936457
basic,14,34,0,0,0,24,"[0, 13, 1, 8, 25, 24]",6,11,"[3, 5, 7, 9, 10, 11, 12, 22, 23, 27, 29]",166.5062774,5572,867,2,23,10,1.374180768736554
basic,14,34,0,0,0,12,"[0, 13, 1, 8, 25, 24, 12]",7,7,"[7, 9, 10, 11, 22, 23, 27]",115.4670767,6924,1352,1,8,10,1.4994254760835948
basic,14,34,0,0,0,7,"[0, 13, 1, 8, 25, 24, 12, 7]",8,5,"[9, 11, 22, 23, 27]",100.4337804,8157,1233,1,4,10,1.758992610425009
basic,14,34,0,0,0,23,"[0, 13, 1, 8, 25, 24, 12, 7, 23]",9,1,[27],72.27352467,9041,884,1,0,10,2.399781305190153
basic,14,34,0,0,1,27,"[0, 13, 1, 8, 25, 24, 12, 7, 23, 27]",10,0,[],18.60789321,10010,969,1,0,10,4.766619878750327
basic,14,34,0,1,1,27,"[0, 13, 1, 8, 25, 24, 12, 7, 23, 27]",10,0,[],18.60789321,11331,1321,1,0,10,4.766619878750327
basic,15,0,0,0,0,0,[0],1,27,"[2, 3, 4, 5, 6, 7, 8, 9, 10, 11, 12, 13, 14, 15, 16, 17, 19, 20, 21, 22, 23, 24, 25, 26, 27, 28, 29]",300,147,-1,104,1136,9,0.0
basic,15,0,0,0,0,20,"[0, 20]",2,25,"[2, 3, 4, 5, 6, 7, 8, 9, 11, 12, 13, 14, 15, 16, 17, 19, 21, 22, 23, 24, 25, 26, 27, 28, 29]",215.4955622,6133,5986,36,372,9,1.0
basic,15,0,0,0,0,28,"[0, 20, 28]",3,19,"[3, 4, 5, 7, 8, 9, 11, 12, 13, 14, 15, 16, 17, 19, 21, 23, 24, 26, 29]",156.2925218,7102,969,3,83,9,1.3675886789005969
basic,15,0,0,0,0,5,"[0, 20, 28, 5]",4,12,"[3, 4, 7, 8, 9, 11, 12, 15, 17, 21, 24, 26]",112.6347619,7824,722,2,50,9,1.3829293532227536
basic,15,0,0,0,0,4,"[0, 20, 28, 5, 4]",5,10,"[3, 7, 8, 9, 11, 12, 15, 17, 24, 26]",87.55488947,8583,759,2,26,9,1.3571235497342058
basic,15,0,0,0,0,26,"[0, 20, 28, 5, 4, 26]",6,9,"[3, 7, 8, 9, 11, 12, 15, 17, 24]",75.51329489,9677,1094,1,12,9,1.3895378207217857
basic,15,0,0,0,0,24,"[0, 20, 28, 5, 4, 26, 24]",7,6,"[7, 8, 9, 11, 12, 15]",58.39605212,10553,876,1,5,9,1.4481849062023913
basic,15,0,0,0,0,15,"[0, 20, 28, 5, 4, 26, 24, 15]",8,1,[7],35.05081706,13171,2618,1,0,9,1.4016317346800864
basic,15,0,0,0,1,7,"[0, 20, 28, 5, 4, 26, 24, 15, 7]",9,0,[],3.986367929,14166,995,1,0,9,1.4439002223158441
basic,15,0,0,1,1,7,"[0, 20, 28, 5, 4, 26, 24, 15, 7]",9,0,[],3.986367929,15329,1163,1,0,9,1.4439002223158441
basic,16,5,0,0,0,0,[0],1,29,"[1, 2, 3, 4, 5, 6, 7, 8, 9, 10, 11, 12, 13, 14, 15, 16, 17, 18, 19, 20, 21, 22, 23, 24, 25, 26, 27, 28, 29]",300,132,-1,5,139,9,0.0
basic,16,5,0,0,0,12,"[0, 12]",2,22,"[2, 4, 5, 6, 8, 9, 10, 13, 14, 15, 16, 17, 18, 19, 21, 22, 23, 24, 25, 26, 27, 28]",228.3062067,6031,5899,1,27,9,1.0
basic,16,5,0,0,0,25,"[0, 12, 25]",3,21,"[2, 4, 5, 6, 8, 9, 10, 13, 14, 15, 16, 17, 18, 19, 21, 22, 23, 24, 26, 27, 28]",200.5213187,6928,897,1,20,9,1.584023303445617
basic,16,5,0,0,0,23,"[0, 12, 25, 23]",4,19,"[2, 4, 5, 6, 8, 9, 10, 13, 14, 15, 16, 17, 18, 19, 21, 22, 24, 26, 27]",182.0822298,7717,789,1,14,9,2.3508446989254357
basic,16,5,0,0,0,24,"[0, 12, 25, 23, 24]",5,15,"[2, 4, 5, 6, 8, 9, 13, 14, 15, 17, 18, 19, 22, 26, 27]",158.995437,8636,919,1,12,9,1.9469752046288753
basic,16,5,0,0,0,17,"[0, 12, 25, 23, 24, 17]",6,7,"[4, 5, 6, 8, 15, 18, 19]",124.0097257,9562,926,1,8,9,1.6482276497563642
basic,16,5,0,0,0,5,"[0, 12, 25, 23, 24, 17, 5]",7,4,"[4, 6, 15, 18]",80.96323916,10461,899,1,3,9,1.4654649104389412
basic,16,5,0,0,0,4,"[0, 12, 25, 23, 24, 17, 5, 4]",8,1,[6],15.16050365,13928,3467,1,0,9,1.6255060355828674
basic,16,5,0,0,1,6,"[0, 12, 25, 23, 24, 17, 5, 4, 6]",9,0,[],3.118909076,14584,656,1,0,9,1.7777310833772453
basic,16,5,0,1,1,6,"[0, 12, 25, 23, 24, 17, 5, 4, 6]",9,0,[],3.118909076,18696,4112,1,0,9,1.7777310833772453
basic,17,24,0,0,0,0,[0],1,29,"[1, 2, 3, 4, 5, 6, 7, 8, 9, 10, 11, 12, 13, 14, 15, 16, 17, 18, 19, 20, 21, 22, 23, 24, 25, 26, 27, 28, 29]",300,147,-1,4,76,10,0.0
basic,17,24,0,0,0,14,"[0, 14]",2,27,"[1, 2, 3, 4, 5, 6, 8, 9, 10, 11, 12, 13, 15, 16, 17, 18, 19, 20, 21, 22, 23, 24, 25, 26, 27, 28, 29]",278.0455016,7536,7389,4,54,10,1.0
basic,17,24,0,0,0,16,"[0, 14, 16]",3,25,"[2, 3, 4, 5, 6, 8, 9, 10, 11, 12, 13, 15, 17, 18, 19, 20, 21, 22, 23, 24, 25, 26, 27, 28, 29]",188.9949542,8809,1273,4,31,10,1.238291113657358
basic,17,24,0,0,0,22,"[0, 14, 16, 22]",4,20,"[2, 3, 4, 6, 8, 9, 10, 11, 13, 15, 17, 20, 21, 23, 24, 25, 26, 27, 28, 29]",170.9671978,9616,807,2,14,10,1.2244494133788653
basic,17,24,0,0,0,8,"[0, 14, 16, 22, 8]",5,15,"[2, 3, 4, 6, 9, 10, 11, 13, 15, 23, 24, 26, 27, 28, 29]",157.5507899,10575,959,2,10,10,1.2936570860700658
basic,17,24,0,0,0,15,"[0, 14, 16, 22, 8, 15]",6,11,"[3, 4, 6, 9, 10, 11, 23, 26, 27, 28, 29]",126.6638995,11533,958,2,8,10,1.4490533667994079
basic,17,24,0,0,0,28,"[0, 14, 16, 22, 8, 15, 28]",7,5,"[4, 9, 11, 23, 27]",81.3869738,12519,986,2,5,10,1.3279550596984244
basic,17,24,0,0,0,23,"[0, 14, 16, 22, 8, 15, 28, 23]",8,3,"[9, 11, 27]",62.36067621,13217,698,2,2,10,1.3488090026750466
basic,17,24,0,0,0,11,"[0, 14, 16, 22, 8, 15, 28, 23, 11]",9,2,"[9, 27]",35.43485217,16883,3666,2,0,10,1.31714136871331
basic,17,24,0,0,1,27,"[0, 14, 16, 22, 8, 15, 28, 23, 11, 27]",10,0,[],7.631974625,17886,1003,1,0,10,1.2800893038140084
basic,17,24,0,1,1,27,"[0, 14, 16, 22, 8, 15, 28, 23, 11, 27]",10,0,[],7.631974625,19096,1210,1,0,10,1.2800893038140084
basic,18,33,0,0,0,0,[0],1,23,"[1, 2, 5, 7, 8, 11, 12, 13, 14, 15, 16, 17, 18, 19, 20, 21, 23, 24, 25, 26, 27, 28, 29]",300,179,-1,5,108,9,0.0
basic,18,33,0,0,0,8,"[0, 8]",2,22,"[1, 2, 5, 7, 11, 12, 13, 14, 15, 16, 17, 18, 19, 20, 21, 23, 24, 25, 26, 27, 28, 29]",265.8679037,3104,2925,5,87,9,1.0
basic,18,33,0,0,0,21,"[0, 8, 21]",3,16,"[2, 5, 7, 11, 13, 14, 16, 17, 18, 19, 20, 24, 26, 27, 28, 29]",166.0430571,5259,2155,5,80,9,1.0670557763739492
basic,18,33,0,0,0,13,"[0, 8, 21, 13]",4,12,"[2, 7, 11, 14, 16, 17, 18, 19, 20, 24, 26, 29]",139.6422995,6118,859,4,54,9,1.0555103820910288
basic,18,33,0,0,0,17,"[0, 8, 21, 13, 17]",5,10,"[2, 7, 11, 14, 16, 19, 20, 24, 26, 29]",116.838791,7117,999,1,21,9,1.149323514071861
basic,18,33,0,0,0,19,"[0, 8, 21, 13, 17, 19]",6,6,"[7, 14, 16, 24, 26, 29]",72.90702572,8043,926,5,3,8,1.3551813417576244
basic,18,33,0,0,0,24,"[0, 8, 21, 13, 17, 19, 24]",7,1,[7],30.85943364,9292,1249,1,0,8,1.3219078413880587
basic,18,33,0,0,1,7,"[0, 8, 21, 13, 17, 19, 24, 7]",8,0,[],1.653269906,10176,884,1,0,8,1.4000255700828794
basic,18,33,0,1,1,7,"[0, 8, 21, 13, 17, 19, 24, 7]",8,0,[],1.653269906,11879,1703,1,0,8,1.4000255700828794
basic,19,4,0,0,0,0,[0],1,26,"[3, 4, 5, 6, 7, 8, 10, 11, 12, 13, 14, 15, 16, 17, 18, 19, 20, 21, 22, 23, 24, 25, 26, 27, 28, 29]",300,147,-1,4,489,10,0.0
basic,19,4,0,0,0,28,"[0, 28]",2,21,"[3, 4, 5, 6, 10, 11, 12, 13, 14, 15, 16, 17, 19, 20, 21, 22, 23, 24, 25, 26, 27]",225.9392142,7670,7523,2,216,10,1.0
basic,19,4,0,0,0,14,"[0, 28, 14]",3,13,"[3, 4, 5, 6, 11, 13, 16, 17, 20, 21, 22, 24, 25]",159.6972335,9117,1447,1,26,10,1.0273973946789214
basic,19,4,0,0,0,25,"[0, 28, 14, 25]",4,12,"[3, 4, 5, 6, 11, 13, 16, 17, 20, 21, 22, 24]",143.572718,9794,677,1,25,10,1.233547772313525
basic,19,4,0,0,0,11,"[0, 28, 14, 25, 11]",5,10,"[3, 4, 5, 6, 13, 16, 17, 20, 21, 22]",124.7844238,10584,790,1,15,10,1.425978575879479
basic,19,4,0,0,0,16,"[0, 28, 14, 25, 11, 16]",6,9,"[3, 4, 5, 6, 13, 17, 20, 21, 22]",109.7844238,11321,737,1,12,10,1.3799325158051412
basic,19,4,0,0,0,3,"[0, 28, 14, 25, 11, 16, 3]",7,2,"[17, 20]",68.15510719,13245,1924,1,1,9,1.3292844629725955
basic,19,4,0,0,0,17,"[0, 28, 14, 25, 11, 16, 3, 17]",8,1,[20],43.63980585,14208,963,1,0,9,1.5639571149270572
basic,19,4,0,0,1,20,"[0, 28, 14, 25, 11, 16, 3, 17, 20]",9,0,[],3.415435124,16571,2363,1,0,9,1.6231058358944275
basic,19,4,0,1,1,20,"[0, 28, 14, 25, 11, 16, 3, 17, 20]",9,0,[],3.415435124,17680,1109,1,0,9,1.6231058358944275
basic,20,27,0,0,0,0,[0],1,26,"[1, 3, 5, 6, 7, 8, 9, 10, 11, 12, 13, 14, 15, 16, 17, 18, 19, 21, 22, 23, 24, 25, 26, 27, 28, 29]",300,147,-1,13,578,11,0.0
basic,20,27,0,0,0,15,"[0, 15]",2,24,"[1, 3, 5, 6, 7, 8, 9, 10, 11, 12, 13, 14, 16, 17, 18, 19, 21, 22, 23, 24, 25, 26, 27, 29]",263.7508621,2553,2406,6,219,11,1.0
basic,20,27,0,0,0,24,"[0, 15, 24]",3,20,"[1, 5, 6, 7, 8, 9, 10, 12, 13, 14, 16, 17, 18, 19, 21, 23, 25, 26, 27, 29]",246.5462115,3452,899,6,130,11,1.130933077698322
basic,20,27,0,0,0,17,"[0, 15, 24, 17]",4,15,"[1, 6, 8, 10, 12, 13, 14, 16, 18, 19, 23, 25, 26, 27, 29]",229.9932662,4433,981,4,60,11,1.1285538435963374
basic,20,27,0,0,0,12,"[0, 15, 24, 17, 12]",5,14,"[1, 6, 8, 10, 13, 14, 16, 18, 19, 23, 25, 26, 27, 29]",218.8129263,5122,689,2,32,11,1.2561880288755216
basic,20,27,0,0,0,10,"[0, 15, 24, 17, 12, 10]",6,11,"[1, 8, 13, 14, 18, 19, 23, 25, 26, 27, 29]",207.7675653,6372,1250,2,28,11,1.2228289337766665
basic,20,27,0,0,0,13,"[0, 15, 24, 17, 12, 10, 13]",7,9,"[1, 8, 14, 18, 19, 23, 26, 27, 29]",167.9178476,7256,884,2,18,11,1.3421291994761178
basic,20,27,0,0,0,19,"[0, 15, 24, 17, 12, 10, 13, 19]",8,5,"[1, 8, 14, 23, 29]",131.6825057,8177,921,2,6,11,1.294749956153846
basic,20,27,0,0,0,8,"[0, 15, 24, 17, 12, 10, 13, 19, 8]",9,3,"[14, 23, 29]",116.816437,9275,1098,2,1,11,1.3554286578836865
basic,20,27,0,0,0,29,"[0, 15, 24, 17, 12, 10, 13, 19, 8, 29]",10,1,[14],57.61339652,10858,1583,1,0,11,1.248354519573802
basic,20,27,0,0,1,14,"[0, 15, 24, 17, 12, 10, 13, 19, 8, 29, 14]",11,0,[],13.31892734,12618,1760,1,0,11,1.562811097555156
basic,20,27,0,1,1,14,"[0, 15, 24, 17, 12, 10, 13, 19, 8, 29, 14]",11,0,[],13.31892734,16647,4029,1,0,11,1.562811097555156
basic,21,19,0,0,0,0,[0],1,29,"[1, 2, 3, 4, 5, 6, 7, 8, 9, 10, 11, 12, 13, 14, 15, 16, 17, 18, 19, 20, 21, 22, 23, 24, 25, 26, 27, 28, 29]",300,181,-1,12,149,8,0.0
basic,21,19,0,0,0,29,"[0, 29]",2,28,"[1, 2, 3, 4, 5, 6, 7, 8, 9, 10, 11, 12, 13, 14, 15, 16, 17, 18, 19, 20, 21, 22, 23, 24, 25, 26, 27, 28]",265.0715016,12436,12255,12,120,8,1.0
basic,21,19,0,0,0,9,"[0, 29, 9]",3,17,"[1, 4, 5, 6, 7, 10, 11, 12, 13, 14, 19, 20, 21, 22, 24, 27, 28]",181.7108394,18114,5678,11,65,8,1.0375842971861238
basic,21,19,0,0,0,6,"[0, 29, 9, 6]",4,12,"[4, 7, 10, 11, 13, 14, 20, 21, 22, 24, 27, 28]",140.2741407,19004,890,11,34,8,1.0389786364356892
basic,21,19,0,0,0,4,"[0, 29, 9, 6, 4]",5,7,"[10, 11, 14, 20, 22, 27, 28]",99.22538921,20125,1121,2,6,8,1.2182485830176533
basic,21,19,0,0,0,28,"[0, 29, 9, 6, 4, 28]",6,3,"[11, 14, 27]",88.04504932,20952,827,2,1,8,1.2933703503588658
basic,21,19,0,0,0,14,"[0, 29, 9, 6, 4, 28, 14]",7,1,[11],30.46032912,21939,987,1,0,8,1.2889112786863766
basic,21,19,0,0,1,11,"[0, 29, 9, 6, 4, 28, 14, 11]",8,0,[],19.6436753,22934,995,1,0,8,1.2786737377290265
basic,21,19,0,1,1,11,"[0, 29, 9, 6, 4, 28, 14, 11]",8,0,[],19.6436753,25946,3012,1,0,8,1.2786737377290265
basic,22,35,0,0,0,0,[0],1,29,"[1, 2, 3, 4, 5, 6, 7, 8, 9, 10, 11, 12, 13, 14, 15, 16, 17, 18, 19, 20, 21, 22, 23, 24, 25, 26, 27, 28, 29]",300,147,-1,5,236,11,0.0
basic,22,35,0,0,0,24,"[0, 24]",2,27,"[1, 2, 4, 5, 6, 7, 8, 9, 10, 11, 12, 13, 14, 15, 16, 17, 18, 19, 20, 21, 22, 23, 25, 26, 27, 28, 29]",268.9838752,2088,1941,49,512,10,1.0
basic,22,35,0,0,0,17,"[0, 24, 17]",3,26,"[1, 2, 4, 5, 6, 7, 8, 9, 10, 11, 12, 13, 14, 15, 16, 18, 19, 20, 21, 22, 23, 25, 26, 27, 28, 29]",257.2791753,3217,1129,33,238,10,1.0771477201815276
basic,22,35,0,0,0,1,"[0, 24, 17, 1]",4,25,"[2, 4, 5, 6, 7, 8, 9, 10, 11, 12, 13, 14, 15, 16, 18, 19, 20, 21, 22, 23, 25, 26, 27, 28, 29]",241.4677869,4085,868,26,151,10,1.2244804141479215
basic,22,35,0,0,0,15,"[0, 24, 17, 1, 15]",5,23,"[2, 4, 5, 6, 7, 8, 9, 10, 11, 12, 14, 16, 18, 19, 20, 21, 22, 23, 25, 26, 27, 28, 29]",218.6204676,5024,939,26,78,10,1.4642196672428094
basic,22,35,0,0,0,9,"[0, 24, 17, 1, 15, 9]",6,8,"[5, 6, 18, 19, 23, 25, 27, 28]",136.3283052,6336,1312,4,17,10,1.4559671847403095
basic,22,35,0,0,0,18,"[0, 24, 17, 1, 15, 9, 18]",7,5,"[5, 6, 19, 23, 25]",116.3033208,7258,922,2,5,10,1.428087426214553
basic,22,35,0,0,0,25,"[0, 24, 17, 1, 15, 9, 18, 25]",8,2,"[6, 23]",82.46547216,8205,947,1,1,10,1.343292070389275
basic,22,35,0,0,0,6,"[0, 24, 17, 1, 15, 9, 18, 25, 6]",9,1,[23],58.44464786,9128,923,1,0,10,1.5973591462902639
basic,22,35,0,0,1,23,"[0, 24, 17, 1, 15, 9, 18, 25, 6, 23]",10,0,[],12.79379902,10011,883,1,0,10,2.701330598603499
basic,22,35,0,1,1,23,"[0, 24, 17, 1, 15, 9, 18, 25, 6, 23]",10,0,[],12.79379902,11362,1351,1,0,10,2.701330598603499
undo,23,43,0,0,0,0,[0],1,23,"[1, 2, 3, 4, 5, 6, 7, 9, 10, 11, 12, 14, 15, 16, 17, 19, 20, 21, 22, 23, 25, 27, 29]",300,167,-1,16,556,12,0.0
undo,23,43,0,0,0,29,"[0, 29]",2,22,"[1, 2, 3, 4, 5, 6, 7, 9, 10, 11, 12, 14, 15, 16, 17, 19, 20, 21, 22, 23, 25, 27]",277.909278,6139,5972,16,520,12,1.0
undo,23,43,0,0,0,20,"[0, 29, 20]",3,20,"[1, 2, 3, 4, 6, 7, 9, 10, 11, 12, 14, 15, 16, 17, 19, 21, 22, 23, 25, 27]",254.4785289,7071,932,15,422,12,1.082311746871282
undo,23,43,0,0,0,16,"[0, 29, 20, 16]",4,19,"[1, 2, 3, 4, 6, 7, 9, 10, 11, 12, 14, 15, 17, 19, 21, 22, 23, 25, 27]",231.8511119,8220,1149,15,389,12,1.215201926898219
undo,23,43,0,0,0,15,"[0, 29, 20, 16, 15]",5,14,"[1, 2, 3, 4, 6, 7, 9, 11, 12, 14, 19, 22, 23, 25]",188.5267539,11506,3286,3,109,12,1.3482474915350444
undo,23,43,0,0,0,25,"[0, 29, 20, 16, 15, 25]",6,12,"[1, 3, 4, 6, 7, 9, 11, 12, 14, 19, 22, 23]",165.8551858,12556,1050,2,43,12,1.691408721191545
undo,23,43,0,0,0,12,"[0, 29, 20, 16, 15, 25, 12]",7,11,"[1, 3, 4, 6, 7, 9, 11, 14, 19, 22, 23]",141.6684126,13408,852,2,32,12,1.6015983641428178
undo,23,43,0,0,0,3,"[0, 29, 20, 16, 15, 25, 12, 3]",8,10,"[1, 4, 6, 7, 9, 11, 14, 19, 22, 23]",128.6684126,14338,930,2,24,12,1.5379830456120627
undo,23,43,0,0,0,22,"[0, 29, 20, 16, 15, 25, 12, 3, 22]",9,6,"[1, 6, 7, 11, 14, 19]",93.95530264,15857,1519,1,11,12,1.7275686117408873
undo,23,43,0,0,0,19,"[0, 29, 20, 16, 15, 25, 12, 3, 22, 19]",10,4,"[1, 6, 7, 11]",73.33977451,16658,801,1,3,12,1.6315360037595275
undo,23,43,0,0,0,1,"[0, 29, 20, 16, 15, 25, 12, 3, 22, 19, 1]",11,1,[7],45.1617689,17537,879,1,0,12,1.7703076545303877
undo,23,43,0,0,1,7,"[0, 29, 20, 16, 15, 25, 12, 3, 22, 19, 1, 7]",12,0,[],6.951822553,18561,1024,1,0,12,1.6607094905815594
undo,23,43,0,1,1,7,"[0, 29, 20, 16, 15, 25, 12, 3, 22, 19, 1, 7]",12,0,[],6.951822553,21665,3104,1,0,12,1.6607094905815594
undo,24,44,0,0,0,0,[0],1,29,"[1, 2, 3, 4, 5, 6, 7, 8, 9, 10, 11, 12, 13, 14, 15, 16, 17, 18, 19, 20, 21, 22, 23, 24, 25, 26, 27, 28, 29]",300,132,-1,13,126,7,0.0
undo,24,44,0,0,0,11,"[0, 11]",2,18,"[4, 5, 6, 7, 8, 9, 12, 14, 16, 17, 19, 20, 22, 23, 24, 25, 26, 28]",152.7790776,6667,6535,5,34,7,1.0
undo,24,44,0,0,0,24,"[0, 11, 24]",3,13,"[4, 5, 7, 8, 9, 12, 14, 17, 20, 22, 23, 25, 28]",125.8532535,7802,1135,5,23,7,1.1588941745226709
undo,24,44,0,0,0,9,"[0, 11, 24, 9]",4,7,"[4, 7, 8, 12, 14, 20, 23]",93.09657483,8950,1148,2,8,7,1.3039383713641313
undo,24,44,0,0,0,4,"[0, 11, 24, 9, 4]",5,5,"[7, 12, 14, 20, 23]",73.39885923,9925,975,2,3,7,1.2901330701441578
undo,24,44,0,0,0,7,"[0, 11, 24, 9, 4, 7]",6,1,[23],42.38273439,10840,915,1,0,7,1.2468141312360979
undo,24,44,0,0,1,23,"[0, 11, 24, 9, 4, 7, 23]",7,0,[],23.27776121,12535,1695,1,0,7,1.2635191782769477
undo,24,44,1,0,0,7,"[0, 11, 24, 9, 4, 7]",6,1,[23],42.38273439,14963,2428,1,0,7,1.2468141312360979
undo,24,44,1,0,0,4,"[0, 11, 24, 9, 4]",5,5,"[7, 12, 14, 20, 23]",73.39885923,15280,317,2,3,7,1.2901330701441578
undo,24,44,1,0,0,9,"[0, 11, 24, 9]",4,7,"[4, 7, 8, 12, 14, 20, 23]",93.09657483,15448,168,2,8,7,1.3039383713641313
undo,24,44,1,0,0,24,"[0, 11, 24]",3,13,"[4, 5, 7, 8, 9, 12, 14, 17, 20, 22, 23, 25, 28]",125.8532535,15664,216,5,23,7,1.1588941745226709
undo,24,44,1,0,0,11,"[0, 11]",2,18,"[4, 5, 6, 7, 8, 9, 12, 14, 16, 17, 19, 20, 22, 23, 24, 25, 26, 28]",152.7790776,15946,282,5,34,7,1.0
undo,24,44,1,0,0,0,[0],1,29,"[1, 2, 3, 4, 5, 6, 7, 8, 9, 10, 11, 12, 13, 14, 15, 16, 17, 18, 19, 20, 21, 22, 23, 24, 25, 26, 27, 28, 29]",300,16129,183,13,126,7,0.0
undo,24,44,0,0,0,8,"[0, 8]",2,17,"[1, 4, 5, 7, 9, 10, 11, 12, 13, 14, 15, 20, 21, 23, 24, 25, 27]",145.7923478,21943,5814,1,10,7,1.0
undo,24,44,0,0,0,20,"[0, 8, 20]",3,16,"[1, 4, 5, 7, 9, 10, 11, 12, 13, 14, 15, 21, 23, 24, 25, 27]",133.7093018,23660,1717,1,9,7,1.0890794433668698
undo,24,44,0,0,0,9,"[0, 8, 20, 9]",4,7,"[4, 7, 11, 12, 14, 23, 24]",76.43801756,27979,4319,1,6,7,1.40892325509949
undo,24,44,0,0,0,4,"[0, 8, 20, 9, 4]",5,4,"[7, 12, 23, 24]",56.74030196,28823,844,1,3,7,1.3849770570803555
undo,24,44,0,0,0,7,"[0, 8, 20, 9, 4, 7]",6,1,[23],25.72417712,29937,1114,1,0,7,1.3274380931474288
undo,24,44,0,0,1,23,"[0, 8, 20, 9, 4, 7, 23]",7,0,[],6.619203947,30772,835,1,0,7,1.3395824779823196
undo,24,44,1,0,0,7,"[0, 8, 20, 9, 4, 7]",6,1,[23],25.72417712,36980,6208,1,0,7,1.3274380931474288
undo,24,44,1,0,0,4,"[0, 8, 20, 9, 4]",5,4,"[7, 12, 23, 24]",56.74030196,37462,482,1,3,7,1.3849770570803555
undo,24,44,1,0,0,9,"[0, 8, 20, 9]",4,7,"[4, 7, 11, 12, 14, 23, 24]",76.43801756,37696,234,1,6,7,1.40892325509949
undo,24,44,1,0,0,20,"[0, 8, 20]",3,16,"[1, 4, 5, 7, 9, 10, 11, 12, 13, 14, 15, 21, 23, 24, 25, 27]",133.7093018,37880,184,1,9,7,1.0890794433668698
undo,24,44,1,0,0,8,"[0, 8]",2,17,"[1, 4, 5, 7, 9, 10, 11, 12, 13, 14, 15, 20, 21, 23, 24, 25, 27]",145.7923478,38062,182,1,10,7,1.0
undo,24,44,1,0,0,0,[0],1,29,"[1, 2, 3, 4, 5, 6, 7, 8, 9, 10, 11, 12, 13, 14, 15, 16, 17, 18, 19, 20, 21, 22, 23, 24, 25, 26, 27, 28, 29]",300,38763,701,13,126,7,0.0
undo,24,44,0,0,0,3,"[0, 3]",2,4,"[11, 14, 19, 24]",196.0528981,40919,2156,4,0,3,1.0
undo,24,44,0,0,1,19,"[0, 3, 19]",3,0,[],99.87597776,41916,997,1,0,3,1.398238444697897
undo,24,44,1,0,0,3,"[0, 3]",2,4,"[11, 14, 19, 24]",196.0528981,43179,1263,4,0,3,1.0
undo,24,44,1,0,0,0,[0],1,29,"[1, 2, 3, 4, 5, 6, 7, 8, 9, 10, 11, 12, 13, 14, 15, 16, 17, 18, 19, 20, 21, 22, 23, 24, 25, 26, 27, 28, 29]",300,43430,251,13,126,7,0.0
undo,24,44,0,0,0,11,"[0, 11]",2,18,"[4, 5, 6, 7, 8, 9, 12, 14, 16, 17, 19, 20, 22, 23, 24, 25, 26, 28]",152.7790776,49844,6414,5,34,7,1.0
undo,24,44,0,0,0,24,"[0, 11, 24]",3,13,"[4, 5, 7, 8, 9, 12, 14, 17, 20, 22, 23, 25, 28]",125.8532535,50679,835,5,23,7,1.1588941745226709
undo,24,44,0,0,0,9,"[0, 11, 24, 9]",4,7,"[4, 7, 8, 12, 14, 20, 23]",93.09657483,51458,779,2,8,7,1.3039383713641313
undo,24,44,0,0,0,4,"[0, 11, 24, 9, 4]",5,5,"[7, 12, 14, 20, 23]",73.39885923,52405,947,2,3,7,1.2901330701441578
undo,24,44,0,0,0,7,"[0, 11, 24, 9, 4, 7]",6,1,[23],42.38273439,53224,819,1,0,7,1.2468141312360979
undo,24,44,0,0,1,23,"[0, 11, 24, 9, 4, 7, 23]",7,0,[],23.27776121,54186,962,1,0,7,1.2635191782769477
undo,24,44,0,1,1,23,"[0, 11, 24, 9, 4, 7, 23]",7,0,[],23.27776121,57446,3260,1,0,7,1.2635191782769477
undo,25,10,0,0,0,0,[0],1,29,"[1, 2, 3, 4, 5, 6, 7, 8, 9, 10, 11, 12, 13, 14, 15, 16, 17, 18, 19, 20, 21, 22, 23, 24, 25, 26, 27, 28, 29]",300,178,-1,1,100,9,0.0
undo,25,10,0,0,0,13,"[0, 13]",2,25,"[1, 2, 3, 4, 6, 7, 8, 9, 10, 11, 12, 14, 17, 18, 19, 20, 21, 22, 23, 24, 25, 26, 27, 28, 29]",249.4628849,4119,3941,1,79,9,1.0
undo,25,10,0,0,0,11,"[0, 13, 11]",3,20,"[1, 2, 3, 6, 7, 8, 9, 10, 12, 14, 18, 19, 20, 21, 22, 24, 26, 27, 28, 29]",206.4512586,5281,1162,1,54,9,1.0313137484914219
undo,25,10,0,0,0,19,"[0, 13, 11, 19]",4,11,"[2, 6, 8, 9, 10, 14, 18, 20, 24, 26, 27]",170.0919407,7165,1884,1,22,9,1.0879446220132545
undo,25,10,0,0,0,2,"[0, 13, 11, 19, 2]",5,4,"[14, 20, 26, 27]",126.1829439,8358,1193,1,4,9,1.06474052351343
undo,25,10,0,0,0,14,"[0, 13, 11, 19, 2, 14]",6,3,"[20, 26, 27]",114.0174188,9250,892,1,3,9,1.1628909195912238
undo,25,10,0,0,0,26,"[0, 13, 11, 19, 2, 14, 26]",7,2,"[20, 27]",79.34754716,10172,922,1,1,9,1.6660727647633602
undo,25,10,0,0,0,20,"[0, 13, 11, 19, 2, 14, 26, 20]",8,1,[27],47.56704999,11556,1384,1,0,9,2.085581809637999
undo,25,10,0,0,1,27,"[0, 13, 11, 19, 2, 14, 26, 20, 27]",9,0,[],2.312215998,13386,1830,1,0,9,1.9116357409137932
undo,25,10,0,1,1,27,"[0, 13, 11, 19, 2, 14, 26, 20, 27]",9,0,[],2.312215998,14242,856,1,0,9,1.9116357409137932
undo,26,32,0,0,0,0,[0],1,29,"[1, 2, 3, 4, 5, 6, 7, 8, 9, 10, 11, 12, 13, 14, 15, 16, 17, 18, 19, 20, 21, 22, 23, 24, 25, 26, 27, 28, 29]",300,146,-1,17,359,10,0.0
undo,26,32,0,0,0,19,"[0, 19]",2,28,"[1, 2, 3, 4, 5, 6, 7, 8, 9, 10, 11, 12, 13, 14, 15, 16, 17, 18, 20, 21, 22, 23, 24, 25, 26, 27, 28, 29]",283.5075775,2138,1992,16,294,10,1.0
undo,26,32,0,0,0,13,"[0, 19, 13]",3,24,"[2, 3, 4, 5, 6, 8, 9, 10, 11, 12, 14, 15, 16, 17, 18, 20, 21, 22, 23, 24, 25, 26, 27, 28]",260.3127505,3204,1066,14,227,10,1.0172874229878615
undo,26,32,0,0,0,15,"[0, 19, 13, 15]",4,18,"[2, 3, 5, 8, 9, 10, 11, 12, 16, 17, 20, 22, 23, 24, 25, 26, 27, 28]",177.4393531,4605,1401,9,116,10,1.435447391509833
undo,26,32,0,0,0,28,"[0, 19, 13, 15, 28]",5,17,"[2, 3, 5, 8, 9, 10, 11, 12, 16, 17, 20, 22, 23, 24, 25, 26, 27]",166.0375988,5590,985,9,70,10,1.3843701324937985
undo,26,32,0,0,0,12,"[0, 19, 13, 15, 28, 12]",6,14,"[2, 3, 5, 8, 9, 10, 11, 16, 17, 20, 22, 24, 26, 27]",147.0639329,6521,931,6,35,10,1.358372254952329
undo,26,32,0,0,0,16,"[0, 19, 13, 15, 28, 12, 16]",7,13,"[2, 3, 5, 8, 9, 10, 11, 17, 20, 22, 24, 26, 27]",131.411457,7292,771,5,15,10,1.4356932930709845
undo,26,32,0,0,0,22,"[0, 19, 13, 15, 28, 12, 16, 22]",8,6,"[2, 8, 9, 17, 20, 27]",97.57360838,8550,1258,3,5,10,1.4335226411545752
undo,26,32,0,0,0,9,"[0, 19, 13, 15, 28, 12, 16, 22, 9]",9,3,"[2, 8, 20]",75.37000507,9473,923,3,0,10,1.4837166378374758
undo,26,32,0,0,1,2,"[0, 19, 13, 15, 28, 12, 16, 22, 9, 2]",10,0,[],24.28184597,10402,929,1,0,10,1.9009621017233784
undo,26,32,1,0,0,9,"[0, 19, 13, 15, 28, 12, 16, 22, 9]",9,3,"[2, 8, 20]",75.37000507,12030,1628,3,0,10,1.4837166378374758
undo,26,32,1,0,0,22,"[0, 19, 13, 15, 28, 12, 16, 22]",8,6,"[2, 8, 9, 17, 20, 27]",97.57360838,12213,183,3,5,10,1.4335226411545752
undo,26,32,1,0,0,16,"[0, 19, 13, 15, 28, 12, 16]",7,13,"[2, 3, 5, 8, 9, 10, 11, 17, 20, 22, 24, 26, 27]",131.411457,12413,200,5,15,10,1.4356932930709845
undo,26,32,1,0,0,12,"[0, 19, 13, 15, 28, 12]",6,14,"[2, 3, 5, 8, 9, 10, 11, 16, 17, 20, 22, 24, 26, 27]",147.0639329,12613,200,6,35,10,1.358372254952329
undo,26,32,1,0,0,28,"[0, 19, 13, 15, 28]",5,17,"[2, 3, 5, 8, 9, 10, 11, 12, 16, 17, 20, 22, 23, 24, 25, 26, 27]",166.0375988,12813,200,9,70,10,1.3843701324937985
undo,26,32,1,0,0,15,"[0, 19, 13, 15]",4,18,"[2, 3, 5, 8, 9, 10, 11, 12, 16, 17, 20, 22, 23, 24, 25, 26, 27, 28]",177.4393531,12996,183,9,116,10,1.435447391509833
undo,26,32,1,0,0,13,"[0, 19, 13]",3,24,"[2, 3, 4, 5, 6, 8, 9, 10, 11, 12, 14, 15, 16, 17, 18, 20, 21, 22, 23, 24, 25, 26, 27, 28]",260.3127505,13196,200,14,227,10,1.0172874229878615
undo,26,32,0,0,0,17,"[0, 19, 13, 17]",4,12,"[2, 5, 8, 9, 12, 15, 16, 20, 22, 25, 27, 28]",174.7090123,14302,1106,2,32,10,1.1087263887351317
undo,26,32,0,0,0,2,"[0, 19, 13, 17, 2]",5,8,"[8, 9, 12, 15, 16, 20, 22, 28]",134.8969538,15247,945,1,9,10,1.138316897592222
undo,26,32,0,0,0,9,"[0, 19, 13, 17, 2, 9]",6,7,"[8, 12, 15, 16, 20, 22, 28]",83.80879468,16209,962,1,5,10,1.4279770980156956
undo,26,32,0,0,0,22,"[0, 19, 13, 17, 2, 9, 22]",7,5,"[8, 12, 15, 16, 28]",61.60519137,17013,804,1,4,10,1.6882401201240023
undo,26,32,0,0,0,16,"[0, 19, 13, 17, 2, 9, 22, 16]",8,1,[12],27.76734274,17991,978,1,0,9,2.3183224270647744
undo,26,32,0,0,1,12,"[0, 19, 13, 17, 2, 9, 22, 16, 12]",9,0,[],12.11486689,18621,630,1,0,9,2.5569846593098515
undo,26,32,1,0,0,16,"[0, 19, 13, 17, 2, 9, 22, 16]",8,1,[12],27.76734274,19130,509,1,0,9,2.3183224270647744
undo,26,32,1,0,0,22,"[0, 19, 13, 17, 2, 9, 22]",7,5,"[8, 12, 15, 16, 28]",61.60519137,19330,200,1,4,10,1.6882401201240023
undo,26,32,1,0,0,9,"[0, 19, 13, 17, 2, 9]",6,7,"[8, 12, 15, 16, 20, 22, 28]",83.80879468,19513,183,1,5,10,1.4279770980156956
undo,26,32,1,0,0,2,"[0, 19, 13, 17, 2]",5,8,"[8, 9, 12, 15, 16, 20, 22, 28]",134.8969538,19696,183,1,9,10,1.138316897592222
undo,26,32,1,0,0,17,"[0, 19, 13, 17]",4,12,"[2, 5, 8, 9, 12, 15, 16, 20, 22, 25, 27, 28]",174.7090123,19897,201,2,32,10,1.1087263887351317
undo,26,32,1,0,0,13,"[0, 19, 13]",3,24,"[2, 3, 4, 5, 6, 8, 9, 10, 11, 12, 14, 15, 16, 17, 18, 20, 21, 22, 23, 24, 25, 26, 27, 28]",260.3127505,20063,166,14,227,10,1.0172874229878615
undo,26,32,0,0,0,15,"[0, 19, 13, 15]",4,18,"[2, 3, 5, 8, 9, 10, 11, 12, 16, 17, 20, 22, 23, 24, 25, 26, 27, 28]",177.4393531,21379,1316,9,116,10,1.435447391509833
undo,26,32,0,0,0,28,"[0, 19, 13, 15, 28]",5,17,"[2, 3, 5, 8, 9, 10, 11, 12, 16, 17, 20, 22, 23, 24, 25, 26, 27]",166.0375988,22238,859,9,70,10,1.3843701324937985
undo,26,32,0,0,0,12,"[0, 19, 13, 15, 28, 12]",6,14,"[2, 3, 5, 8, 9, 10, 11, 16, 17, 20, 22, 24, 26, 27]",147.0639329,23129,891,6,35,10,1.358372254952329
undo,26,32,0,0,0,16,"[0, 19, 13, 15, 28, 12, 16]",7,13,"[2, 3, 5, 8, 9, 10, 11, 17, 20, 22, 24, 26, 27]",131.411457,24091,962,5,15,10,1.4356932930709845
undo,26,32,0,0,0,22,"[0, 19, 13, 15, 28, 12, 16, 22]",8,6,"[2, 8, 9, 17, 20, 27]",97.57360838,25196,1105,3,5,10,1.4335226411545752
undo,26,32,0,0,0,9,"[0, 19, 13, 15, 28, 12, 16, 22, 9]",9,3,"[2, 8, 20]",75.37000507,26159,963,3,0,10,1.4837166378374758
undo,26,32,0,0,1,2,"[0, 19, 13, 15, 28, 12, 16, 22, 9, 2]",10,0,[],24.28184597,29237,3078,1,0,10,1.9009621017233784
undo,26,32,0,1,1,2,"[0, 19, 13, 15, 28, 12, 16, 22, 9, 2]",10,0,[],24.28184597,30213,976,1,0,10,1.9009621017233784
undo,27,42,0,0,0,0,[0],1,29,"[1, 2, 3, 4, 5, 6, 7, 8, 9, 10, 11, 12, 13, 14, 15, 16, 17, 18, 19, 20, 21, 22, 23, 24, 25, 26, 27, 28, 29]",300,146,-1,16,302,9,0.0
undo,27,42,0,0,0,5,"[0, 5]",2,28,"[1, 2, 3, 4, 6, 7, 8, 9, 10, 11, 12, 13, 14, 15, 16, 17, 18, 19, 20, 21, 22, 23, 24, 25, 26, 27, 28, 29]",191.2939744,7069,6923,1,22,9,1.0
undo,27,42,0,0,0,4,"[0, 5, 4]",3,23,"[1, 2, 3, 6, 7, 8, 9, 10, 11, 13, 15, 17, 18, 19, 20, 21, 22, 23, 24, 25, 26, 27, 29]",171.4445412,8215,1146,1,14,9,1.420957801478707
undo,27,42,0,0,0,22,"[0, 5, 4, 22]",4,20,"[1, 2, 3, 6, 7, 8, 9, 11, 15, 17, 18, 19, 20, 21, 23, 24, 25, 26, 27, 29]",160.2642013,9651,1436,1,11,9,1.5771494659680896
undo,27,42,0,0,0,8,"[0, 5, 4, 22, 8]",5,14,"[1, 2, 3, 6, 7, 11, 15, 18, 19, 24, 25, 26, 27, 29]",138.1282577,10574,923,1,10,9,1.5055393955524201
undo,27,42,0,0,0,1,"[0, 5, 4, 22, 8, 1]",6,5,"[2, 7, 19, 26, 27]",89.03650682,11608,1034,1,7,9,1.3547259083637835
undo,27,42,0,0,0,7,"[0, 5, 4, 22, 8, 1, 7]",7,4,"[2, 19, 26, 27]",59.03650682,12507,899,1,3,9,1.3909715672447451
undo,27,42,0,0,0,26,"[0, 5, 4, 22, 8, 1, 7, 26]",8,1,[27],32.46584631,13234,727,1,0,9,1.3511825943939393
undo,27,42,0,0,1,27,"[0, 5, 4, 22, 8, 1, 7, 26, 27]",9,0,[],14.43808994,14082,848,1,0,9,1.3391911688802078
undo,27,42,0,1,1,27,"[0, 5, 4, 22, 8, 1, 7, 26, 27]",9,0,[],14.43808994,25162,11080,1,0,9,1.3391911688802078
undo,28,6,0,0,0,0,[0],1,29,"[1, 2, 3, 4, 5, 6, 7, 8, 9, 10, 11, 12, 13, 14, 15, 16, 17, 18, 19, 20, 21, 22, 23, 24, 25, 26, 27, 28, 29]",300,130,-1,180,4304,10,0.0
undo,28,6,0,0,0,26,"[0, 26]",2,25,"[1, 2, 3, 4, 5, 6, 7, 8, 9, 10, 11, 12, 13, 14, 15, 16, 17, 18, 20, 21, 22, 23, 24, 27, 29]",250.2606795,3118,2988,45,776,10,1.0
undo,28,6,0,0,0,7,"[0, 26, 7]",3,24,"[1, 2, 3, 4, 5, 6, 8, 9, 10, 11, 12, 13, 14, 15, 16, 17, 18, 20, 21, 22, 23, 24, 27, 29]",226.1774904,3994,876,25,520,10,1.5373018630243536
undo,28,6,0,0,0,3,"[0, 26, 7, 3]",4,22,"[1, 2, 4, 6, 8, 9, 10, 11, 12, 13, 14, 15, 16, 17, 18, 20, 21, 22, 23, 24, 27, 29]",190.0388684,5027,1033,20,235,10,3.2798655773210936
undo,28,6,0,0,0,16,"[0, 26, 7, 3, 16]",5,15,"[1, 2, 6, 10, 13, 14, 17, 18, 20, 21, 22, 23, 24, 27, 29]",143.8003563,6049,1022,3,39,10,2.164019536669599
undo,28,6,0,0,0,18,"[0, 26, 7, 3, 16, 18]",6,10,"[1, 2, 6, 10, 13, 17, 22, 23, 24, 29]",120.4551212,7008,959,2,15,10,2.9481162560127245
undo,28,6,0,0,0,17,"[0, 26, 7, 3, 16, 18, 17]",7,8,"[2, 6, 10, 13, 22, 23, 24, 29]",106.526733,7732,724,2,8,10,2.7413386825172235
undo,28,6,0,0,0,10,"[0, 26, 7, 3, 16, 18, 17, 10]",8,4,"[6, 23, 24, 29]",86.80365003,8575,843,2,3,10,2.5276843215308205
undo,28,6,0,0,0,24,"[0, 26, 7, 3, 16, 18, 17, 10, 24]",9,2,"[6, 23]",73.38724217,9338,763,2,0,10,2.329169561976636
undo,28,6,0,0,1,23,"[0, 26, 7, 3, 16, 18, 17, 10, 24, 23]",10,0,[],12.19900801,11287,1949,1,0,10,2.14454631567595
undo,28,6,0,1,1,23,"[0, 26, 7, 3, 16, 18, 17, 10, 24, 23]",10,0,[],12.19900801,12144,857,1,0,10,2.14454631567595
undo,29,20,0,0,0,0,[0],1,21,"[1, 2, 3, 4, 5, 6, 7, 8, 9, 12, 17, 18, 20, 21, 22, 23, 25, 26, 27, 28, 29]",300,147,-1,1,9,9,0.0
undo,29,20,0,0,0,12,"[0, 12]",2,20,"[1, 2, 3, 4, 5, 6, 7, 8, 9, 17, 18, 20, 21, 22, 23, 25, 26, 27, 28, 29]",271.5570747,2718,2571,1,8,9,1.0
undo,29,20,0,0,0,1,"[0, 12, 1]",3,12,"[3, 4, 5, 6, 8, 9, 20, 21, 23, 27, 28, 29]",189.5692707,4959,2241,1,6,9,1.0757997779162911
undo,29,20,0,0,0,5,"[0, 12, 1, 5]",4,10,"[4, 6, 8, 9, 20, 21, 23, 27, 28, 29]",152.8950291,5954,995,1,5,9,1.1708231454516806
undo,29,20,0,0,0,28,"[0, 12, 1, 5, 28]",5,4,"[8, 9, 21, 23]",82.8593239,7203,1249,2,2,7,1.1313554119713172
undo,29,20,0,0,0,21,"[0, 12, 1, 5, 28, 21]",6,1,[8],46.61018598,8102,899,1,0,7,1.4854739689057037
undo,29,20,0,0,1,8,"[0, 12, 1, 5, 28, 21, 8]",7,0,[],29.14593678,8836,734,1,0,7,1.473382662603891
undo,29,20,1,0,0,21,"[0, 12, 1, 5, 28, 21]",6,1,[8],46.61018598,9930,1094,1,0,7,1.4854739689057037
undo,29,20,1,0,0,28,"[0, 12, 1, 5, 28]",5,4,"[8, 9, 21, 23]",82.8593239,10230,300,2,2,7,1.1313554119713172
undo,29,20,1,0,0,5,"[0, 12, 1, 5]",4,10,"[4, 6, 8, 9, 20, 21, 23, 27, 28, 29]",152.8950291,10430,200,1,5,9,1.1708231454516806
undo,29,20,1,0,0,1,"[0, 12, 1]",3,12,"[3, 4, 5, 6, 8, 9, 20, 21, 23, 27, 28, 29]",189.5692707,10581,151,1,6,9,1.0757997779162911
undo,29,20,0,0,0,23,"[0, 12, 1, 23]",4,5,"[6, 8, 9, 21, 27]",62.8175449,14122,3541,3,2,6,1.0412659085207476
undo,29,20,0,0,0,9,"[0, 12, 1, 23, 9]",5,1,[6],43.60817218,14989,867,1,0,6,1.0394642940575942
undo,29,20,0,0,1,6,"[0, 12, 1, 23, 9, 6]",6,0,[],20.58644332,15786,797,1,0,6,1.0542031492121386
undo,29,20,1,0,0,9,"[0, 12, 1, 23, 9]",5,1,[6],43.60817218,16847,1061,1,0,6,1.0394642940575942
undo,29,20,1,0,0,23,"[0, 12, 1, 23]",4,5,"[6, 8, 9, 21, 27]",62.8175449,17047,200,3,2,6,1.0412659085207476
undo,29,20,1,0,0,1,"[0, 12, 1]",3,12,"[3, 4, 5, 6, 8, 9, 20, 21, 23, 27, 28, 29]",189.5692707,17247,200,1,6,9,1.0757997779162911
undo,29,20,0,0,0,5,"[0, 12, 1, 5]",4,10,"[4, 6, 8, 9, 20, 21, 23, 27, 28, 29]",152.8950291,19655,2408,1,5,9,1.1708231454516806
undo,29,20,0,0,0,21,"[0, 12, 1, 5, 21]",5,8,"[4, 6, 8, 9, 20, 23, 27, 28]",107.8950291,21511,1856,1,4,9,1.126197336199212
undo,29,20,0,0,0,8,"[0, 12, 1, 5, 21, 8]",6,5,"[6, 9, 23, 27, 28]",90.43077988,22195,684,1,3,9,1.140007470699913
undo,29,20,0,0,0,23,"[0, 12, 1, 5, 21, 8, 23]",7,2,"[6, 9]",45.74297394,23109,914,1,1,9,1.1162257896627588
undo,29,20,0,0,0,9,"[0, 12, 1, 5, 21, 8, 23, 9]",8,1,[6],26.53360123,23841,732,1,0,9,1.1086880559449597
undo,29,20,0,0,1,6,"[0, 12, 1, 5, 21, 8, 23, 9, 6]",9,0,[],3.511872362,24855,1014,1,0,9,1.1186240265999328
undo,29,20,0,1,1,6,"[0, 12, 1, 5, 21, 8, 23, 9, 6]",9,0,[],3.511872362,25747,892,1,0,9,1.1186240265999328
undo,30,25,0,0,0,0,[0],1,28,"[1, 2, 3, 4, 5, 7, 8, 9, 10, 11, 12, 13, 14, 15, 16, 17, 18, 19, 20, 21, 22, 23, 24, 25, 26, 27, 28, 29]",300,146,-1,5,94,10,0.0
undo,30,25,0,0,0,23,"[0, 23]",2,23,"[1, 2, 3, 5, 7, 8, 9, 11, 12, 13, 14, 16, 17, 19, 20, 21, 22, 24, 25, 26, 27, 28, 29]",259.7756293,3785,3639,3,33,10,1.0
undo,30,25,0,0,0,19,"[0, 23, 19]",3,21,"[1, 2, 3, 5, 7, 8, 9, 11, 12, 13, 14, 16, 17, 20, 21, 22, 24, 25, 27, 28, 29]",223.9287326,5041,1256,3,24,10,1.583101227007039
undo,30,25,0,0,0,29,"[0, 23, 19, 29]",4,19,"[1, 2, 3, 5, 7, 8, 9, 11, 12, 13, 14, 16, 17, 20, 21, 22, 24, 25, 28]",207.649912,5877,836,3,17,10,1.474631541426484
undo,30,25,0,0,0,22,"[0, 23, 19, 29, 22]",5,18,"[1, 2, 3, 5, 7, 8, 9, 11, 12, 13, 14, 16, 17, 20, 21, 24, 25, 28]",191.5253965,6652,775,3,14,10,1.4020377754906637
undo,30,25,0,0,0,7,"[0, 23, 19, 29, 22, 7]",6,7,"[3, 8, 9, 11, 13, 24, 28]",115.8814939,7732,1080,3,11,10,1.5709678649326715
undo,30,25,0,0,0,24,"[0, 23, 19, 29, 22, 7, 24]",7,5,"[3, 8, 9, 13, 28]",91.12265712,8509,777,3,7,10,1.486191600033379
undo,30,25,0,0,0,9,"[0, 23, 19, 29, 22, 7, 24, 9]",8,4,"[3, 8, 13, 28]",73.09490075,9511,1002,3,3,10,1.453504870342882
undo,30,25,0,0,0,3,"[0, 23, 19, 29, 22, 7, 24, 9, 3]",9,3,"[8, 13, 28]",42.82940885,10521,1010,3,0,10,1.388955167525479
undo,30,25,0,0,1,13,"[0, 23, 19, 29, 22, 7, 24, 9, 3, 13]",10,0,[],11.58841014,12390,1869,1,0,10,1.4309045890044414
undo,30,25,0,1,1,13,"[0, 23, 19, 29, 22, 7, 24, 9, 3, 13]",10,0,[],11.58841014,13414,1024,1,0,10,1.4309045890044414
undo,31,30,0,0,0,0,[0],1,19,"[3, 4, 5, 7, 9, 11, 16, 17, 18, 19, 20, 21, 22, 24, 25, 26, 27, 28, 29]",300,147,-1,5,41,8,0.0
undo,31,30,0,0,0,16,"[0, 16]",2,17,"[3, 5, 7, 9, 11, 17, 18, 19, 20, 21, 22, 24, 25, 26, 27, 28, 29]",219.3774225,4875,4728,5,34,8,1.0
undo,31,30,0,0,0,25,"[0, 16, 25]",3,10,"[3, 5, 7, 9, 11, 18, 19, 20, 27, 29]",115.0845656,5940,1065,5,28,8,1.0336279544884488
undo,31,30,0,0,0,20,"[0, 16, 25, 20]",4,8,"[3, 5, 7, 9, 18, 19, 27, 29]",93.15285342,6870,930,4,14,8,1.0337964627284246
undo,31,30,0,0,0,27,"[0, 16, 25, 20, 27]",5,4,"[3, 5, 18, 29]",59.09408069,7912,1042,4,6,8,1.1504365534848
undo,31,30,0,0,0,3,"[0, 16, 25, 20, 27, 3]",6,3,"[5, 18, 29]",39.98910751,9068,1156,4,0,8,1.1403876826835333
undo,31,30,0,0,0,29,"[0, 16, 25, 20, 27, 3, 29]",7,1,[18],21.38803228,9869,801,1,0,8,1.1443827771455848
undo,31,30,0,0,1,18,"[0, 16, 25, 20, 27, 3, 29, 18]",8,0,[],2.074824359,11987,2118,1,0,8,1.2197761544023602
undo,31,30,0,1,1,18,"[0, 16, 25, 20, 27, 3, 29, 18]",8,0,[],2.074824359,19180,7193,1,0,8,1.2197761544023602
undo,32,24,0,0,0,0,[0],1,29,"[1, 2, 3, 4, 5, 6, 7, 8, 9, 10, 11, 12, 13, 14, 15, 16, 17, 18, 19, 20, 21, 22, 23, 24, 25, 26, 27, 28, 29]",300,147,-1,4,76,10,0.0
undo,32,24,0,0,0,16,"[0, 16]",2,28,"[1, 2, 3, 4, 5, 6, 7, 8, 9, 10, 11, 12, 13, 14, 15, 17, 18, 19, 20, 21, 22, 23, 24, 25, 26, 27, 28, 29]",210.3562607,2684,2537,13,110,9,1.0
undo,32,24,0,0,0,22,"[0, 16, 22]",3,27,"[1, 2, 3, 4, 5, 6, 7, 8, 9, 10, 11, 12, 13, 14, 15, 17, 18, 19, 20, 21, 23, 24, 25, 26, 27, 28, 29]",192.3285043,3605,921,7,54,9,1.0217425143037777
undo,32,24,0,0,0,8,"[0, 16, 22, 8]",4,21,"[1, 2, 3, 4, 6, 9, 10, 11, 13, 14, 15, 17, 20, 21, 23, 24, 25, 26, 27, 28, 29]",178.9120964,4353,748,4,28,9,1.0996636936037951
undo,32,24,0,0,0,15,"[0, 16, 22, 8, 15]",5,16,"[3, 4, 6, 9, 10, 11, 13, 14, 17, 23, 24, 25, 26, 27, 28, 29]",148.025206,6652,2299,3,17,9,1.2704773343758617
undo,32,24,0,0,0,28,"[0, 16, 22, 8, 15, 28]",6,8,"[3, 4, 9, 11, 13, 23, 26, 27]",102.7482803,7616,964,3,5,9,1.1981967578189556
undo,32,24,0,0,0,23,"[0, 16, 22, 8, 15, 28, 23]",7,3,"[9, 11, 27]",83.72198273,8426,810,3,1,9,1.2275650852813986
undo,32,24,0,0,0,11,"[0, 16, 22, 8, 15, 28, 23, 11]",8,2,"[9, 27]",56.79615869,9317,891,2,0,9,1.2107937989822568
undo,32,24,0,0,1,27,"[0, 16, 22, 8, 15, 28, 23, 11, 27]",9,0,[],28.99328114,10024,707,1,0,9,1.1865620449755248
undo,32,24,0,1,1,27,"[0, 16, 22, 8, 15, 28, 23, 11, 27]",9,0,[],28.99328114,11895,1871,1,0,9,1.1865620449755248
undo,33,4,0,0,0,0,[0],1,26,"[3, 4, 5, 6, 7, 8, 10, 11, 12, 13, 14, 15, 16, 17, 18, 19, 20, 21, 22, 23, 24, 25, 26, 27, 28, 29]",300,147,-1,4,489,10,0.0
undo,33,4,0,0,0,28,"[0, 28]",2,21,"[3, 4, 5, 6, 10, 11, 12, 13, 14, 15, 16, 17, 19, 20, 21, 22, 23, 24, 25, 26, 27]",225.9392142,2304,2157,2,216,10,1.0
undo,33,4,0,0,0,11,"[0, 28, 11]",3,16,"[3, 4, 5, 6, 12, 13, 14, 16, 17, 20, 21, 22, 23, 24, 25, 26]",177.0618165,5211,2907,1,99,10,1.0005230107421244
undo,33,4,0,0,0,25,"[0, 28, 11, 25]",4,14,"[3, 4, 5, 6, 12, 13, 14, 16, 17, 20, 21, 22, 23, 24]",158.2735223,6254,1043,1,47,10,1.11762077950493
undo,33,4,0,0,0,14,"[0, 28, 11, 25, 14]",5,10,"[3, 4, 5, 6, 13, 16, 17, 20, 21, 22]",142.1490068,7176,922,1,23,10,1.1558980853108136
undo,33,4,0,0,0,16,"[0, 28, 11, 25, 14, 16]",6,9,"[3, 4, 5, 6, 13, 17, 20, 21, 22]",109.5913656,8074,898,1,12,10,1.3813330703388178
undo,33,4,0,0,0,17,"[0, 28, 11, 25, 14, 16, 17]",7,5,"[3, 5, 20, 21, 22]",83.51455598,9013,939,1,5,10,1.3206962632237582
undo,33,4,0,0,0,20,"[0, 28, 11, 25, 14, 16, 17, 20]",8,3,"[5, 21, 22]",43.29018526,10921,1908,1,2,10,1.4048849730601358
undo,33,4,0,0,0,22,"[0, 28, 11, 25, 14, 16, 17, 20, 22]",9,1,[21],13.05775234,11724,803,1,0,10,1.8085353749061932
undo,33,4,0,0,1,21,"[0, 28, 11, 25, 14, 16, 17, 20, 22, 21]",10,0,[],2.012391323,12409,685,1,0,10,2.016146937720804
undo,33,4,0,1,1,21,"[0, 28, 11, 25, 14, 16, 17, 20, 22, 21]",10,0,[],2.012391323,13347,938,1,0,10,2.016146937720804
undo,34,34,0,0,0,0,[0],1,25,"[1, 3, 4, 5, 6, 7, 8, 9, 10, 11, 12, 13, 15, 18, 19, 20, 21, 22, 23, 24, 25, 26, 27, 28, 29]",300,169,-1,12,367,10,0.0
undo,34,34,0,0,0,13,"[0, 13]",2,24,"[1, 3, 4, 5, 6, 7, 8, 9, 10, 11, 12, 15, 18, 19, 20, 21, 22, 23, 24, 25, 26, 27, 28, 29]",279.9750156,3352,3183,12,331,10,1.0
undo,34,34,0,0,0,1,"[0, 13, 1]",3,16,"[3, 5, 7, 8, 9, 10, 11, 12, 19, 21, 22, 23, 24, 25, 27, 29]",211.8574701,4306,954,3,92,10,1.0010381285747127
undo,34,34,0,0,0,8,"[0, 13, 1, 8]",4,14,"[3, 5, 7, 9, 10, 11, 12, 19, 22, 23, 24, 25, 27, 29]",201.0871405,5260,954,2,54,10,1.1636807
undo,34,34,0,0,0,25,"[0, 13, 1, 8, 25]",5,12,"[3, 5, 7, 9, 10, 11, 12, 22, 23, 24, 27, 29]",183.999133,6326,1066,2,28,10,1.1396208815936457
undo,34,34,0,0,0,24,"[0, 13, 1, 8, 25, 24]",6,11,"[3, 5, 7, 9, 10, 11, 12, 22, 23, 27, 29]",166.5062774,7169,843,2,23,10,1.374180768736554
undo,34,34,0,0,0,12,"[0, 13, 1, 8, 25, 24, 12]",7,7,"[7, 9, 10, 11, 22, 23, 27]",115.4670767,8266,1097,1,8,10,1.4994254760835948
undo,34,34,0,0,0,7,"[0, 13, 1, 8, 25, 24, 12, 7]",8,5,"[9, 11, 22, 23, 27]",100.4337804,9372,1106,1,4,10,1.758992610425009
undo,34,34,0,0,0,23,"[0, 13, 1, 8, 25, 24, 12, 7, 23]",9,1,[27],72.27352467,13237,3865,1,0,10,2.399781305190153
undo,34,34,0,0,1,27,"[0, 13, 1, 8, 25, 24, 12, 7, 23, 27]",10,0,[],18.60789321,14270,1033,1,0,10,4.766619878750327
undo,34,34,0,1,1,27,"[0, 13, 1, 8, 25, 24, 12, 7, 23, 27]",10,0,[],18.60789321,15528,1258,1,0,10,4.766619878750327
undo,35,0,0,0,0,0,[0],1,27,"[2, 3, 4, 5, 6, 7, 8, 9, 10, 11, 12, 13, 14, 15, 16, 17, 19, 20, 21, 22, 23, 24, 25, 26, 27, 28, 29]",300,133,-1,104,1136,9,0.0
undo,35,0,0,0,0,21,"[0, 21]",2,24,"[3, 4, 5, 6, 7, 8, 9, 10, 11, 12, 13, 14, 15, 16, 17, 19, 20, 22, 23, 24, 26, 27, 28, 29]",228.2156006,3024,2891,24,249,9,1.0
undo,35,0,0,0,0,28,"[0, 21, 28]",3,21,"[3, 4, 5, 6, 7, 8, 9, 11, 12, 13, 14, 15, 16, 17, 19, 20, 23, 24, 26, 27, 29]",166.6282642,6492,3468,24,214,9,1.269228840767463
undo,35,0,0,0,0,5,"[0, 21, 28, 5]",4,16,"[3, 4, 7, 8, 9, 11, 12, 14, 15, 17, 19, 20, 23, 24, 26, 29]",122.9705043,7447,955,17,100,9,1.3066419815776449
undo,35,0,0,0,0,4,"[0, 21, 28, 5, 4]",5,13,"[3, 7, 8, 9, 11, 12, 15, 17, 19, 20, 23, 24, 26]",97.89063191,8323,876,12,40,9,1.2910976504592468
undo,35,0,0,0,0,26,"[0, 21, 28, 5, 4, 26]",6,10,"[3, 7, 8, 9, 11, 12, 15, 17, 23, 24]",85.84903733,8937,614,5,20,9,1.3255611811315622
undo,35,0,0,0,0,24,"[0, 21, 28, 5, 4, 26, 24]",7,8,"[3, 7, 8, 9, 11, 12, 15, 17]",68.73179456,9653,716,5,6,9,1.3862320021735308
undo,35,0,0,0,0,15,"[0, 21, 28, 5, 4, 26, 24, 15]",8,3,"[7, 8, 9]",45.3865595,10477,824,3,0,9,1.3469536849324695
undo,35,0,1,0,0,24,"[0, 21, 28, 5, 4, 26, 24]",7,8,"[3, 7, 8, 9, 11, 12, 15, 17]",68.73179456,11915,1438,5,6,9,1.3862320021735308
undo,35,0,1,0,0,26,"[0, 21, 28, 5, 4, 26]",6,10,"[3, 7, 8, 9, 11, 12, 15, 17, 23, 24]",85.84903733,12165,250,5,20,9,1.3255611811315622
undo,35,0,1,0,0,4,"[0, 21, 28, 5, 4]",5,13,"[3, 7, 8, 9, 11, 12, 15, 17, 19, 20, 23, 24, 26]",97.89063191,12382,217,12,40,9,1.2910976504592468
undo,35,0,1,0,0,5,"[0, 21, 28, 5]",4,16,"[3, 4, 7, 8, 9, 11, 12, 14, 15, 17, 19, 20, 23, 24, 26, 29]",122.9705043,12531,149,17,100,9,1.3066419815776449
undo,35,0,1,0,0,28,"[0, 21, 28]",3,21,"[3, 4, 5, 6, 7, 8, 9, 11, 12, 13, 14, 15, 16, 17, 19, 20, 23, 24, 26, 27, 29]",166.6282642,12714,183,24,214,9,1.269228840767463
undo,35,0,1,0,0,21,"[0, 21]",2,24,"[3, 4, 5, 6, 7, 8, 9, 10, 11, 12, 13, 14, 15, 16, 17, 19, 20, 22, 23, 24, 26, 27, 28, 29]",228.2156006,12931,217,24,249,9,1.0
undo,35,0,1,0,0,0,[0],1,27,"[2, 3, 4, 5, 6, 7, 8, 9, 10, 11, 12, 13, 14, 15, 16, 17, 19, 20, 21, 22, 23, 24, 25, 26, 27, 28, 29]",300,13381,450,104,1136,9,0.0
undo,35,0,0,0,0,28,"[0, 28]",2,26,"[2, 3, 4, 5, 6, 7, 8, 9, 10, 11, 12, 13, 14, 15, 16, 17, 19, 20, 21, 22, 23, 24, 25, 26, 27, 29]",194.9190788,14820,1439,39,388,9,1.0
undo,35,0,0,0,0,5,"[0, 28, 5]",3,21,"[2, 3, 4, 7, 8, 9, 11, 12, 13, 14, 15, 16, 17, 19, 20, 21, 23, 24, 25, 26, 29]",151.2613189,15950,1130,27,210,9,1.0978295127671733
undo,35,0,0,0,0,26,"[0, 28, 5, 26]",4,15,"[3, 4, 7, 8, 9, 11, 12, 13, 14, 15, 17, 19, 20, 23, 24]",115.8212286,18245,2295,5,35,9,1.1400379746718978
undo,35,0,0,0,0,4,"[0, 28, 5, 26, 4]",5,12,"[3, 7, 8, 9, 11, 12, 15, 17, 19, 20, 23, 24]",103.779634,18962,717,4,17,9,1.2534780347343448
undo,35,0,0,0,0,24,"[0, 28, 5, 26, 4, 24]",6,9,"[3, 7, 8, 9, 11, 12, 15, 17, 19]",92.37787977,19870,908,4,12,9,1.2444963062448124
undo,35,0,0,0,0,15,"[0, 28, 5, 26, 4, 24, 15]",7,6,"[3, 7, 8, 9, 11, 17]",69.03264471,20759,889,3,4,9,1.2218613820858855
undo,35,0,0,0,0,7,"[0, 28, 5, 26, 4, 24, 15, 7]",8,2,"[3, 8]",37.96819558,21653,894,2,0,9,1.2781430976973103
undo,35,0,0,0,1,8,"[0, 28, 5, 26, 4, 24, 15, 7, 8]",9,0,[],18.8632224,22453,800,1,0,9,1.263743502581705
undo,35,0,0,1,1,8,"[0, 28, 5, 26, 4, 24, 15, 7, 8]",9,0,[],18.8632224,24147,1694,1,0,9,1.263743502581705
undo,36,8,0,0,0,0,[0],1,29,"[1, 2, 3, 4, 5, 6, 7, 8, 9, 10, 11, 12, 13, 14, 15, 16, 17, 18, 19, 20, 21, 22, 23, 24, 25, 26, 27, 28, 29]",300,149,-1,10,149,9,0.0
undo,36,8,0,0,0,5,"[0, 5]",2,28,"[1, 2, 3, 4, 6, 7, 8, 9, 10, 11, 12, 13, 14, 15, 16, 17, 18, 19, 20, 21, 22, 23, 24, 25, 26, 27, 28, 29]",254.5137383,3056,2907,10,100,9,1.0
undo,36,8,0,0,0,25,"[0, 5, 25]",3,20,"[1, 2, 3, 4, 6, 11, 12, 14, 15, 16, 17, 18, 19, 20, 21, 22, 23, 24, 28, 29]",215.3091468,4242,1186,4,42,9,1.2272747879909065
undo,36,8,0,0,0,14,"[0, 5, 25, 14]",4,16,"[1, 3, 4, 6, 11, 15, 16, 17, 18, 19, 20, 21, 22, 23, 24, 28]",170.2092576,5372,1130,1,13,9,1.5190857385933465
undo,36,8,0,0,0,17,"[0, 5, 25, 14, 17]",5,9,"[1, 4, 11, 15, 16, 18, 23, 24, 28]",133.1957466,6317,945,1,9,9,1.5271682935559303
undo,36,8,0,0,0,11,"[0, 5, 25, 14, 17, 11]",6,5,"[15, 16, 18, 24, 28]",108.01639,7176,859,1,6,9,1.4664212485560129
undo,36,8,0,0,0,15,"[0, 5, 25, 14, 17, 11, 15]",7,3,"[16, 24, 28]",70.28046544,8274,1098,3,0,8,1.3622715126441325
undo,36,8,0,0,1,24,"[0, 5, 25, 14, 17, 11, 15, 24]",8,0,[],53.51741082,8990,716,1,0,8,1.4970265358977666
undo,36,8,1,0,0,15,"[0, 5, 25, 14, 17, 11, 15]",7,3,"[16, 24, 28]",70.28046544,10264,1274,3,0,8,1.3622715126441325
undo,36,8,1,0,0,11,"[0, 5, 25, 14, 17, 11]",6,5,"[15, 16, 18, 24, 28]",108.01639,10480,216,1,6,9,1.4664212485560129
undo,36,8,1,0,0,17,"[0, 5, 25, 14, 17]",5,9,"[1, 4, 11, 15, 16, 18, 23, 24, 28]",133.1957466,10696,216,1,9,9,1.5271682935559303
undo,36,8,1,0,0,14,"[0, 5, 25, 14]",4,16,"[1, 3, 4, 6, 11, 15, 16, 17, 18, 19, 20, 21, 22, 23, 24, 28]",170.2092576,10863,167,1,13,9,1.5190857385933465
undo,36,8,1,0,0,25,"[0, 5, 25]",3,20,"[1, 2, 3, 4, 6, 11, 12, 14, 15, 16, 17, 18, 19, 20, 21, 22, 23, 24, 28, 29]",215.3091468,11030,167,4,42,9,1.2272747879909065
undo,36,8,1,0,0,5,"[0, 5]",2,28,"[1, 2, 3, 4, 6, 7, 8, 9, 10, 11, 12, 13, 14, 15, 16, 17, 18, 19, 20, 21, 22, 23, 24, 25, 26, 27, 28, 29]",254.5137383,11229,199,10,100,9,1.0
undo,36,8,1,0,0,0,[0],1,29,"[1, 2, 3, 4, 5, 6, 7, 8, 9, 10, 11, 12, 13, 14, 15, 16, 17, 18, 19, 20, 21, 22, 23, 24, 25, 26, 27, 28, 29]",300,11446,217,10,149,9,0.0
undo,36,8,0,0,0,5,"[0, 5]",2,28,"[1, 2, 3, 4, 6, 7, 8, 9, 10, 11, 12, 13, 14, 15, 16, 17, 18, 19, 20, 21, 22, 23, 24, 25, 26, 27, 28, 29]",254.5137383,12728,1282,10,100,9,1.0
undo,36,8,0,0,0,25,"[0, 5, 25]",3,20,"[1, 2, 3, 4, 6, 11, 12, 14, 15, 16, 17, 18, 19, 20, 21, 22, 23, 24, 28, 29]",215.3091468,13619,891,4,42,9,1.2272747879909065
undo,36,8,0,0,0,1,"[0, 5, 25, 1]",4,17,"[3, 4, 6, 11, 12, 14, 15, 16, 17, 18, 20, 21, 22, 23, 24, 28, 29]",190.3091468,14295,676,3,24,9,1.1770245007593956
undo,36,8,0,0,0,23,"[0, 5, 25, 1, 23]",5,15,"[3, 4, 6, 11, 14, 15, 16, 17, 18, 20, 21, 22, 24, 28, 29]",167.2874179,15003,708,1,14,9,1.141996583852372
undo,36,8,0,0,0,18,"[0, 5, 25, 1, 23, 18]",6,9,"[3, 4, 11, 14, 15, 16, 17, 24, 28]",125.5261919,17556,2553,1,7,9,1.3199166330970717
undo,36,8,0,0,0,28,"[0, 5, 25, 1, 23, 18, 28]",7,1,[16],59.906073,18621,1065,1,0,8,1.425373059246715
undo,36,8,0,0,1,16,"[0, 5, 25, 1, 23, 18, 28, 16]",8,0,[],37.54539323,19290,669,1,0,8,1.4175143337764708
undo,36,8,1,0,0,28,"[0, 5, 25, 1, 23, 18, 28]",7,1,[16],59.906073,31162,11872,1,0,8,1.425373059246715
undo,36,8,1,0,0,18,"[0, 5, 25, 1, 23, 18]",6,9,"[3, 4, 11, 14, 15, 16, 17, 24, 28]",125.5261919,31329,167,1,7,9,1.3199166330970717
undo,36,8,1,0,0,23,"[0, 5, 25, 1, 23]",5,15,"[3, 4, 6, 11, 14, 15, 16, 17, 18, 20, 21, 22, 24, 28, 29]",167.2874179,31513,184,1,14,9,1.141996583852372
undo,36,8,1,0,0,1,"[0, 5, 25, 1]",4,17,"[3, 4, 6, 11, 12, 14, 15, 16, 17, 18, 20, 21, 22, 23, 24, 28, 29]",190.3091468,31696,183,3,24,9,1.1770245007593956
undo,36,8,1,0,0,25,"[0, 5, 25]",3,20,"[1, 2, 3, 4, 6, 11, 12, 14, 15, 16, 17, 18, 19, 20, 21, 22, 23, 24, 28, 29]",215.3091468,31880,184,4,42,9,1.2272747879909065
undo,36,8,1,0,0,5,"[0, 5]",2,28,"[1, 2, 3, 4, 6, 7, 8, 9, 10, 11, 12, 13, 14, 15, 16, 17, 18, 19, 20, 21, 22, 23, 24, 25, 26, 27, 28, 29]",254.5137383,32064,184,10,100,9,1.0
undo,36,8,1,0,0,0,[0],1,29,"[1, 2, 3, 4, 5, 6, 7, 8, 9, 10, 11, 12, 13, 14, 15, 16, 17, 18, 19, 20, 21, 22, 23, 24, 25, 26, 27, 28, 29]",300,32396,332,10,149,9,0.0
undo,36,8,0,0,0,15,"[0, 15]",2,8,"[5, 11, 14, 16, 17, 18, 24, 28]",131.370228,35202,2806,1,14,6,1.0
undo,36,8,0,0,0,24,"[0, 15, 24]",3,5,"[11, 14, 16, 17, 28]",114.6071734,35985,783,1,7,6,1.1259942615363163
undo,36,8,0,0,0,11,"[0, 15, 24, 11]",4,4,"[14, 16, 17, 28]",77.39158527,36701,716,1,3,6,1.7003415524244039
undo,36,8,0,0,0,17,"[0, 15, 24, 11, 17]",5,1,[14],52.21222864,37319,618,1,0,6,2.268608984714764
undo,36,8,0,0,1,14,"[0, 15, 24, 11, 17, 14]",6,0,[],15.1987176,38686,1367,1,0,6,3.333346881502515
undo,36,8,1,0,0,17,"[0, 15, 24, 11, 17]",5,1,[14],52.21222864,39347,661,1,0,6,2.268608984714764
undo,36,8,1,0,0,11,"[0, 15, 24, 11]",4,4,"[14, 16, 17, 28]",77.39158527,39563,216,1,3,6,1.7003415524244039
undo,36,8,1,0,0,24,"[0, 15, 24]",3,5,"[11, 14, 16, 17, 28]",114.6071734,39796,233,1,7,6,1.1259942615363163
undo,36,8,1,0,0,15,"[0, 15]",2,8,"[5, 11, 14, 16, 17, 18, 24, 28]",131.370228,39996,200,1,14,6,1.0
undo,36,8,1,0,0,0,[0],1,29,"[1, 2, 3, 4, 5, 6, 7, 8, 9, 10, 11, 12, 13, 14, 15, 16, 17, 18, 19, 20, 21, 22, 23, 24, 25, 26, 27, 28, 29]",300,40246,250,10,149,9,0.0
undo,36,8,0,0,0,5,"[0, 5]",2,28,"[1, 2, 3, 4, 6, 7, 8, 9, 10, 11, 12, 13, 14, 15, 16, 17, 18, 19, 20, 21, 22, 23, 24, 25, 26, 27, 28, 29]",254.5137383,42073,1827,10,100,9,1.0
undo,36,8,0,0,0,25,"[0, 5, 25]",3,20,"[1, 2, 3, 4, 6, 11, 12, 14, 15, 16, 17, 18, 19, 20, 21, 22, 23, 24, 28, 29]",215.3091468,42941,868,4,42,9,1.2272747879909065
undo,36,8,0,0,0,1,"[0, 5, 25, 1]",4,17,"[3, 4, 6, 11, 12, 14, 15, 16, 17, 18, 20, 21, 22, 23, 24, 28, 29]",190.3091468,44087,1146,3,24,9,1.1770245007593956
undo,36,8,0,0,0,23,"[0, 5, 25, 1, 23]",5,15,"[3, 4, 6, 11, 14, 15, 16, 17, 18, 20, 21, 22, 24, 28, 29]",167.2874179,45169,1082,1,14,9,1.141996583852372
undo,36,8,0,0,0,18,"[0, 5, 25, 1, 23, 18]",6,9,"[3, 4, 11, 14, 15, 16, 17, 24, 28]",125.5261919,46084,915,1,7,9,1.3199166330970717
undo,36,8,0,0,0,14,"[0, 5, 25, 1, 23, 18, 14]",7,2,"[11, 17]",68.03706246,46942,858,1,1,9,2.714920831666598
undo,36,8,0,0,0,17,"[0, 5, 25, 1, 23, 18, 14, 17]",8,1,[11],31.02355141,47841,899,1,0,9,2.462600896722246
undo,36,8,0,0,1,11,"[0, 5, 25, 1, 23, 18, 14, 17, 11]",9,0,[],5.84419479,48524,683,1,0,9,2.246839316887767
undo,36,8,0,1,1,11,"[0, 5, 25, 1, 23, 18, 14, 17, 11]",9,0,[],5.84419479,49430,906,1,0,9,2.246839316887767
undo,37,36,0,0,0,0,[0],1,24,"[2, 4, 5, 6, 7, 8, 9, 10, 12, 13, 14, 15, 16, 17, 18, 19, 20, 22, 23, 25, 26, 27, 28, 29]",300,131,-1,2,200,10,0.0
undo,37,36,0,0,0,12,"[0, 12]",2,23,"[2, 4, 5, 6, 7, 8, 9, 10, 13, 14, 15, 16, 17, 18, 19, 20, 22, 23, 25, 26, 27, 28, 29]",277.7963967,2204,2073,90,804,9,1.0
undo,37,36,0,0,0,9,"[0, 12, 9]",3,14,"[2, 4, 8, 10, 13, 16, 17, 18, 19, 23, 25, 27, 28, 29]",215.4345494,4030,1826,32,191,9,1.224429481246385
undo,37,36,0,0,0,19,"[0, 12, 9, 19]",4,13,"[2, 4, 8, 10, 13, 16, 17, 18, 23, 25, 27, 28, 29]",200.3018034,4854,824,14,61,9,1.293473472808712
undo,37,36,0,0,0,17,"[0, 12, 9, 19, 17]",5,8,"[2, 10, 13, 16, 18, 23, 25, 27]",172.4091521,5643,789,5,15,9,1.3499598639024968
undo,37,36,0,0,0,2,"[0, 12, 9, 19, 17, 2]",6,6,"[10, 13, 16, 18, 25, 27]",131.1780958,6686,1043,2,3,9,1.4949360491624875
undo,37,36,0,0,0,25,"[0, 12, 9, 19, 17, 2, 25]",7,3,"[10, 13, 16]",106.1780958,7711,1025,1,2,9,1.6929129985884974
undo,37,36,0,0,0,13,"[0, 12, 9, 19, 17, 2, 25, 13]",8,1,[10],85.58683553,9724,2013,1,0,9,2.1860692255369774
undo,37,36,0,0,1,10,"[0, 12, 9, 19, 17, 2, 25, 13, 10]",9,0,[],9.626319468,10813,1089,1,0,9,1.6695312782676606
undo,37,36,0,1,1,10,"[0, 12, 9, 19, 17, 2, 25, 13, 10]",9,0,[],9.626319468,11495,682,1,0,9,1.6695312782676606
undo,38,19,0,0,0,0,[0],1,29,"[1, 2, 3, 4, 5, 6, 7, 8, 9, 10, 11, 12, 13, 14, 15, 16, 17, 18, 19, 20, 21, 22, 23, 24, 25, 26, 27, 28, 29]",300,133,-1,12,149,8,0.0
undo,38,19,0,0,0,29,"[0, 29]",2,28,"[1, 2, 3, 4, 5, 6, 7, 8, 9, 10, 11, 12, 13, 14, 15, 16, 17, 18, 19, 20, 21, 22, 23, 24, 25, 26, 27, 28]",265.0715016,7688,7555,12,120,8,1.0
undo,38,19,0,0,0,9,"[0, 29, 9]",3,17,"[1, 4, 5, 6, 7, 10, 11, 12, 13, 14, 19, 20, 21, 22, 24, 27, 28]",181.7108394,8696,1008,11,65,8,1.0375842971861238
undo,38,19,0,0,0,6,"[0, 29, 9, 6]",4,12,"[4, 7, 10, 11, 13, 14, 20, 21, 22, 24, 27, 28]",140.2741407,9548,852,11,34,8,1.0389786364356892
undo,38,19,0,0,0,4,"[0, 29, 9, 6, 4]",5,7,"[10, 11, 14, 20, 22, 27, 28]",99.22538921,10424,876,2,6,8,1.2182485830176533
undo,38,19,0,0,0,28,"[0, 29, 9, 6, 4, 28]",6,3,"[11, 14, 27]",88.04504932,11156,732,2,1,8,1.2933703503588658
undo,38,19,0,0,1,27,"[0, 29, 9, 6, 4, 28, 27]",7,0,[],35.64275929,12181,1025,1,0,7,1.697599891123485
undo,38,19,1,0,0,28,"[0, 29, 9, 6, 4, 28]",6,3,"[11, 14, 27]",88.04504932,16233,4052,2,1,8,1.2933703503588658
undo,38,19,1,0,0,4,"[0, 29, 9, 6, 4]",5,7,"[10, 11, 14, 20, 22, 27, 28]",99.22538921,16516,283,2,6,8,1.2182485830176533
undo,38,19,1,0,0,6,"[0, 29, 9, 6]",4,12,"[4, 7, 10, 11, 13, 14, 20, 21, 22, 24, 27, 28]",140.2741407,16716,200,11,34,8,1.0389786364356892
undo,38,19,1,0,0,9,"[0, 29, 9]",3,17,"[1, 4, 5, 6, 7, 10, 11, 12, 13, 14, 19, 20, 21, 22, 24, 27, 28]",181.7108394,16933,217,11,65,8,1.0375842971861238
undo,38,19,1,0,0,29,"[0, 29]",2,28,"[1, 2, 3, 4, 5, 6, 7, 8, 9, 10, 11, 12, 13, 14, 15, 16, 17, 18, 19, 20, 21, 22, 23, 24, 25, 26, 27, 28]",265.0715016,17200,267,12,120,8,1.0
undo,38,19,1,0,0,0,[0],1,29,"[1, 2, 3, 4, 5, 6, 7, 8, 9, 10, 11, 12, 13, 14, 15, 16, 17, 18, 19, 20, 21, 22, 23, 24, 25, 26, 27, 28, 29]",300,17634,434,12,149,8,0.0
undo,38,19,0,0,0,29,"[0, 29]",2,28,"[1, 2, 3, 4, 5, 6, 7, 8, 9, 10, 11, 12, 13, 14, 15, 16, 17, 18, 19, 20, 21, 22, 23, 24, 25, 26, 27, 28]",265.0715016,19109,1475,12,120,8,1.0
undo,38,19,0,0,0,16,"[0, 29, 16]",3,5,"[1, 2, 12, 17, 25]",144.7012395,20678,1569,6,2,6,1.4684190000349047
undo,38,19,0,0,0,12,"[0, 29, 16, 12]",4,3,"[1, 17, 25]",77.02554224,21570,892,2,1,6,1.864280192748818
undo,38,19,0,0,0,25,"[0, 29, 16, 12, 25]",5,1,[17],59.90829947,22204,634,1,0,6,1.7606270860845066
undo,38,19,0,0,1,17,"[0, 29, 16, 12, 25, 17]",6,0,[],48.86293845,22880,676,1,0,6,1.8119538245666504
undo,38,19,1,0,0,25,"[0, 29, 16, 12, 25]",5,1,[17],59.90829947,23284,404,1,0,6,1.7606270860845066
undo,38,19,1,0,0,12,"[0, 29, 16, 12]",4,3,"[1, 17, 25]",77.02554224,23467,183,2,1,6,1.864280192748818
undo,38,19,1,0,0,16,"[0, 29, 16]",3,5,"[1, 2, 12, 17, 25]",144.7012395,23651,184,6,2,6,1.4684190000349047
undo,38,19,1,0,0,29,"[0, 29]",2,28,"[1, 2, 3, 4, 5, 6, 7, 8, 9, 10, 11, 12, 13, 14, 15, 16, 17, 18, 19, 20, 21, 22, 23, 24, 25, 26, 27, 28]",265.0715016,23916,265,12,120,8,1.0
undo,38,19,0,0,0,12,"[0, 29, 12]",3,10,"[1, 2, 3, 8, 13, 16, 17, 19, 23, 25]",151.2251139,24844,928,1,15,8,1.2439006517653588
undo,38,19,0,0,0,25,"[0, 29, 12, 25]",4,9,"[1, 2, 3, 8, 13, 16, 17, 19, 23]",134.1078711,25474,630,8,14,7,1.21651092005601
undo,38,19,0,0,0,17,"[0, 29, 12, 25, 17]",5,8,"[1, 2, 3, 8, 13, 16, 19, 23]",123.0625101,26320,846,6,5,7,1.2766039371281641
undo,38,19,0,0,0,23,"[0, 29, 12, 25, 17, 23]",6,2,"[3, 8]",44.34783547,29055,2735,2,0,7,1.4218265571803024
undo,38,19,0,0,1,3,"[0, 29, 12, 25, 17, 23, 3]",7,0,[],22.41612327,30961,1906,1,0,7,1.3774051462275383
undo,38,19,1,0,0,23,"[0, 29, 12, 25, 17, 23]",6,2,"[3, 8]",44.34783547,36982,6021,2,0,7,1.4218265571803024
undo,38,19,0,0,1,3,"[0, 29, 12, 25, 17, 23, 3]",7,0,[],22.41612327,38445,1463,1,0,7,1.3774051462275383
undo,38,19,1,0,0,23,"[0, 29, 12, 25, 17, 23]",6,2,"[3, 8]",44.34783547,41183,2738,2,0,7,1.4218265571803024
undo,38,19,1,0,0,17,"[0, 29, 12, 25, 17]",5,8,"[1, 2, 3, 8, 13, 16, 19, 23]",123.0625101,41850,667,6,5,7,1.2766039371281641
undo,38,19,0,0,0,1,"[0, 29, 12, 25, 17, 1]",6,2,"[13, 19]",36.94050361,44227,2377,2,0,7,1.9665835559471354
undo,38,19,1,0,0,17,"[0, 29, 12, 25, 17]",5,8,"[1, 2, 3, 8, 13, 16, 19, 23]",123.0625101,45816,1589,6,5,7,1.2766039371281641
undo,38,19,0,0,0,23,"[0, 29, 12, 25, 17, 23]",6,2,"[3, 8]",44.34783547,46919,1103,2,0,7,1.4218265571803024
undo,38,19,0,0,1,3,"[0, 29, 12, 25, 17, 23, 3]",7,0,[],22.41612327,47904,985,1,0,7,1.3774051462275383
undo,38,19,0,1,1,3,"[0, 29, 12, 25, 17, 23, 3]",7,0,[],22.41612327,50233,2329,1,0,7,1.3774051462275383
undo,39,14,0,0,0,0,[0],1,29,"[1, 2, 3, 4, 5, 6, 7, 8, 9, 10, 11, 12, 13, 14, 15, 16, 17, 18, 19, 20, 21, 22, 23, 24, 25, 26, 27, 28, 29]",300,130,-1,8,157,10,0.0
undo,39,14,0,0,0,20,"[0, 20]",2,21,"[1, 2, 3, 7, 8, 9, 10, 11, 13, 15, 17, 18, 19, 21, 22, 23, 25, 26, 27, 28, 29]",236.0468922,3661,3531,2,25,9,1.0
undo,39,14,0,0,0,13,"[0, 20, 13]",3,9,"[1, 3, 8, 15, 17, 18, 19, 22, 28]",178.5577628,4758,1097,15,25,7,1.102881585595972
undo,39,14,1,0,0,20,"[0, 20]",2,21,"[1, 2, 3, 7, 8, 9, 10, 11, 13, 15, 17, 18, 19, 21, 22, 23, 25, 26, 27, 28, 29]",236.0468922,6329,1571,2,25,9,1.0
undo,39,14,1,0,0,0,[0],1,29,"[1, 2, 3, 4, 5, 6, 7, 8, 9, 10, 11, 12, 13, 14, 15, 16, 17, 18, 19, 20, 21, 22, 23, 24, 25, 26, 27, 28, 29]",300,6511,182,8,157,10,0.0
undo,39,14,0,0,0,15,"[0, 15]",2,20,"[1, 2, 3, 4, 7, 8, 9, 13, 17, 18, 19, 20, 21, 22, 23, 25, 26, 27, 28, 29]",216.7053423,7573,1062,8,102,10,1.0
undo,39,14,0,0,0,28,"[0, 15, 28]",3,17,"[1, 2, 3, 4, 7, 8, 9, 13, 17, 18, 19, 20, 22, 23, 25, 26, 27]",197.4959696,8901,1328,8,48,10,1.0446007867311968
undo,39,14,0,0,0,17,"[0, 15, 28, 17]",4,14,"[1, 2, 3, 4, 7, 8, 13, 18, 19, 20, 22, 23, 25, 26]",184.0423455,9601,700,8,39,10,1.0729463354689972
undo,39,14,0,0,0,18,"[0, 15, 28, 17, 18]",5,9,"[1, 2, 4, 7, 8, 19, 23, 25, 26]",119.412631,10603,1002,8,27,10,1.5035901079219378
undo,39,14,0,0,0,8,"[0, 15, 28, 17, 18, 8]",6,8,"[1, 2, 4, 7, 19, 23, 25, 26]",105.8111605,11383,780,8,18,10,1.4819689987843856
undo,39,14,0,0,0,19,"[0, 15, 28, 17, 18, 8, 19]",7,5,"[1, 7, 23, 25, 26]",85.19563238,13620,2237,4,9,10,1.4526746797093781
undo,39,14,0,0,0,1,"[0, 15, 28, 17, 18, 8, 19, 1]",8,4,"[7, 23, 25, 26]",69.96408617,15144,1524,3,1,10,1.4876985459270997
undo,39,14,0,0,0,23,"[0, 15, 28, 17, 18, 8, 19, 1, 23]",9,1,[26],21.96408617,16225,1081,1,0,10,1.4791446279021185
undo,39,14,0,0,1,26,"[0, 15, 28, 17, 18, 8, 19, 1, 23, 26]",10,0,[],11.14743235,16987,762,1,0,10,1.4559204757247275
undo,39,14,0,1,1,26,"[0, 15, 28, 17, 18, 8, 19, 1, 23, 26]",10,0,[],11.14743235,17746,759,1,0,10,1.4559204757247275
undo,40,7,0,0,0,0,[0],1,29,"[1, 2, 3, 4, 5, 6, 7, 8, 9, 10, 11, 12, 13, 14, 15, 16, 17, 18, 19, 20, 21, 22, 23, 24, 25, 26, 27, 28, 29]",300,154,-1,3,79,9,0.0
undo,40,7,0,0,0,15,"[0, 15]",2,19,"[2, 4, 5, 6, 7, 8, 9, 10, 13, 14, 16, 18, 19, 20, 21, 23, 25, 27, 28]",230.9348134,2826,2672,2,38,9,1.0
undo,40,7,0,0,0,6,"[0, 15, 6]",3,18,"[2, 4, 5, 7, 8, 9, 10, 13, 14, 16, 18, 19, 20, 21, 23, 25, 27, 28]",205.854941,3799,973,2,36,9,1.366719602896943
undo,40,7,0,0,0,13,"[0, 15, 6, 13]",4,5,"[4, 7, 18, 20, 25]",107.7733423,5167,1368,4,8,7,1.156544829734667
undo,40,7,0,0,0,4,"[0, 15, 6, 13, 4]",5,3,"[18, 20, 25]",54.4348009,6929,1762,4,0,7,1.7486921657394103
undo,40,7,0,0,0,25,"[0, 15, 6, 13, 4, 25]",6,1,[18],29.69616714,7916,987,1,0,7,2.282854315830149
undo,40,7,0,0,1,18,"[0, 15, 6, 13, 4, 25, 18]",7,0,[],1.376562628,8838,922,1,0,7,2.0857783046394074
undo,40,7,1,0,0,25,"[0, 15, 6, 13, 4, 25]",6,1,[18],29.69616714,9513,675,1,0,7,2.282854315830149
undo,40,7,1,0,0,4,"[0, 15, 6, 13, 4]",5,3,"[18, 20, 25]",54.4348009,9729,216,4,0,7,1.7486921657394103
undo,40,7,1,0,0,13,"[0, 15, 6, 13]",4,5,"[4, 7, 18, 20, 25]",107.7733423,9913,184,4,8,7,1.156544829734667
undo,40,7,1,0,0,6,"[0, 15, 6]",3,18,"[2, 4, 5, 7, 8, 9, 10, 13, 14, 16, 18, 19, 20, 21, 23, 25, 27, 28]",205.854941,10163,250,2,36,9,1.366719602896943
undo,40,7,0,0,0,25,"[0, 15, 6, 25]",4,11,"[2, 4, 7, 13, 14, 16, 18, 19, 20, 21, 23]",138.6760753,11264,1101,2,28,9,1.3624631728355765
undo,40,7,0,0,0,4,"[0, 15, 6, 25, 4]",5,7,"[2, 7, 13, 16, 18, 19, 20]",113.9374415,12153,889,2,12,9,1.3249684384385587
undo,40,7,0,0,0,20,"[0, 15, 6, 25, 4, 20]",6,5,"[2, 7, 13, 18, 19]",94.29055881,13124,971,1,6,9,1.3721893242679268
undo,40,7,0,0,0,18,"[0, 15, 6, 25, 4, 20, 18]",7,3,"[7, 13, 19]",81.48431034,14221,1097,1,2,9,1.5262542308371432
undo,40,7,0,0,0,7,"[0, 15, 6, 25, 4, 20, 18, 7]",8,1,[19],40.25325408,15955,1734,1,0,9,1.41986878673423
undo,40,7,0,0,1,19,"[0, 15, 6, 25, 4, 20, 18, 7, 19]",9,0,[],10.84237174,16989,1034,1,0,9,1.5285658163212987
undo,40,7,0,1,1,19,"[0, 15, 6, 25, 4, 20, 18, 7, 19]",9,0,[],10.84237174,17829,840,1,0,9,1.5285658163212987
undo,41,28,0,0,0,0,[0],1,27,"[1, 2, 3, 4, 5, 6, 7, 8, 9, 10, 11, 12, 13, 14, 15, 16, 17, 18, 19, 20, 22, 23, 25, 26, 27, 28, 29]",300,146,-1,2,96,9,0.0
undo,41,28,0,0,0,3,"[0, 3]",2,26,"[1, 2, 4, 5, 6, 7, 8, 9, 10, 11, 12, 13, 14, 15, 16, 17, 18, 19, 20, 22, 23, 25, 26, 27, 28, 29]",251.0817008,2456,2310,1,64,9,1.0
undo,41,28,0,0,0,14,"[0, 3, 14]",3,13,"[1, 2, 5, 7, 10, 11, 12, 13, 17, 18, 19, 20, 26]",142.7396498,5374,2918,19,59,8,1.0338694802207566
undo,41,28,0,0,0,18,"[0, 3, 14, 18]",4,10,"[1, 2, 5, 7, 11, 12, 13, 17, 19, 26]",117.2445523,6452,1078,18,18,8,1.098527225277385
undo,41,28,0,0,0,13,"[0, 3, 14, 18, 13]",5,7,"[2, 7, 11, 12, 17, 19, 26]",92.83144103,7276,824,8,6,8,1.0872780601597938
undo,41,28,0,0,0,12,"[0, 3, 14, 18, 13, 12]",6,3,"[2, 7, 19]",75.6267905,8126,850,3,1,8,1.0890748557820906
undo,41,28,0,0,0,7,"[0, 3, 14, 18, 13, 12, 7]",7,2,"[2, 19]",62.47384406,8921,795,2,0,8,1.2125627495730145
undo,41,28,0,0,1,19,"[0, 3, 14, 18, 13, 12, 7, 19]",8,0,[],34.74299481,10559,1638,1,0,8,1.4527925513951803
undo,41,28,1,0,0,7,"[0, 3, 14, 18, 13, 12, 7]",7,2,"[2, 19]",62.47384406,12513,1954,2,0,8,1.2125627495730145
undo,41,28,1,0,0,12,"[0, 3, 14, 18, 13, 12]",6,3,"[2, 7, 19]",75.6267905,12763,250,3,1,8,1.0890748557820906
undo,41,28,1,0,0,13,"[0, 3, 14, 18, 13]",5,7,"[2, 7, 11, 12, 17, 19, 26]",92.83144103,12930,167,8,6,8,1.0872780601597938
undo,41,28,1,0,0,18,"[0, 3, 14, 18]",4,10,"[1, 2, 5, 7, 11, 12, 13, 17, 19, 26]",117.2445523,13147,217,18,18,8,1.098527225277385
undo,41,28,1,0,0,14,"[0, 3, 14]",3,13,"[1, 2, 5, 7, 10, 11, 12, 13, 17, 18, 19, 20, 26]",142.7396498,13396,249,19,59,8,1.0338694802207566
undo,41,28,1,0,0,3,"[0, 3]",2,26,"[1, 2, 4, 5, 6, 7, 8, 9, 10, 11, 12, 13, 14, 15, 16, 17, 18, 19, 20, 22, 23, 25, 26, 27, 28, 29]",251.0817008,13731,335,1,64,9,1.0
undo,41,28,0,0,0,5,"[0, 3, 5]",3,20,"[2, 4, 6, 7, 8, 9, 10, 11, 12, 13, 14, 15, 18, 19, 20, 23, 25, 26, 28, 29]",166.9865166,15395,1664,1,34,9,1.0203769473612083
undo,41,28,0,0,0,26,"[0, 3, 5, 26]",4,13,"[2, 4, 7, 8, 9, 12, 13, 14, 18, 19, 20, 25, 28]",134.2298379,16476,1081,1,28,9,1.0315203228799597
undo,41,28,0,0,0,19,"[0, 3, 5, 26, 19]",5,7,"[2, 7, 9, 12, 13, 14, 18]",93.22983789,17661,1185,1,17,9,1.1324645362297356
undo,41,28,0,0,0,7,"[0, 3, 5, 26, 19, 7]",6,5,"[2, 12, 13, 14, 18]",65.49898864,18512,851,1,6,9,1.1971194919020265
undo,41,28,0,0,0,12,"[0, 3, 5, 26, 19, 7, 12]",7,2,"[13, 18]",52.3460422,19212,700,1,1,9,1.2020762147848982
undo,41,28,0,0,0,13,"[0, 3, 5, 26, 19, 7, 12, 13]",8,1,[18],35.14139167,19912,700,1,0,9,1.39005144078531
undo,41,28,0,0,1,18,"[0, 3, 5, 26, 19, 7, 12, 13, 18]",9,0,[],10.72828044,21201,1289,1,0,9,1.738787343626007
undo,41,28,0,1,1,18,"[0, 3, 5, 26, 19, 7, 12, 13, 18]",9,0,[],10.72828044,22914,1713,1,0,9,1.738787343626007
undo,42,26,0,0,0,0,[0],1,29,"[1, 2, 3, 4, 5, 6, 7, 8, 9, 10, 11, 12, 13, 14, 15, 16, 17, 18, 19, 20, 21, 22, 23, 24, 25, 26, 27, 28, 29]",300,149,-1,9,226,9,0.0
undo,42,26,0,0,0,10,"[0, 10]",2,6,"[4, 6, 14, 16, 17, 29]",138.1822012,6524,6375,9,66,7,1.0
undo,42,26,0,0,0,6,"[0, 10, 6]",3,5,"[4, 14, 16, 17, 29]",108.9076389,7401,877,8,23,7,1.1897813099332413
undo,42,26,0,0,0,14,"[0, 10, 6, 14]",4,4,"[4, 16, 17, 29]",87.88384285,9019,1618,4,6,7,1.3162481558218453
undo,42,26,0,0,0,17,"[0, 10, 6, 14, 17]",5,3,"[4, 16, 29]",65.41163779,9838,819,3,1,7,1.6510075497064465
undo,42,26,0,0,0,4,"[0, 10, 6, 14, 17, 4]",6,1,[29],44.31661468,10668,830,1,0,7,2.1095586782058087
undo,42,26,0,0,1,29,"[0, 10, 6, 14, 17, 4, 29]",7,0,[],20.31661468,11493,825,1,0,7,2.288952413143475
undo,42,26,1,0,0,4,"[0, 10, 6, 14, 17, 4]",6,1,[29],44.31661468,13130,1637,1,0,7,2.1095586782058087
undo,42,26,1,0,0,17,"[0, 10, 6, 14, 17]",5,3,"[4, 16, 29]",65.41163779,13314,184,3,1,7,1.6510075497064465
undo,42,26,1,0,0,14,"[0, 10, 6, 14]",4,4,"[4, 16, 17, 29]",87.88384285,13514,200,4,6,7,1.3162481558218453
undo,42,26,1,0,0,6,"[0, 10, 6]",3,5,"[4, 14, 16, 17, 29]",108.9076389,13697,183,8,23,7,1.1897813099332413
undo,42,26,1,0,0,10,"[0, 10]",2,6,"[4, 6, 14, 16, 17, 29]",138.1822012,14015,318,9,66,7,1.0
undo,42,26,1,0,0,0,[0],1,29,"[1, 2, 3, 4, 5, 6, 7, 8, 9, 10, 11, 12, 13, 14, 15, 16, 17, 18, 19, 20, 21, 22, 23, 24, 25, 26, 27, 28, 29]",300,14347,332,9,226,9,0.0
undo,42,26,0,0,0,21,"[0, 21]",2,25,"[2, 3, 4, 5, 6, 7, 8, 10, 11, 12, 13, 14, 15, 16, 17, 18, 19, 22, 23, 24, 25, 26, 27, 28, 29]",211.1349337,15654,1307,7,90,9,1.0
undo,42,26,0,0,0,16,"[0, 21, 16]",3,12,"[4, 5, 6, 10, 11, 12, 13, 14, 17, 23, 26, 29]",151.2266705,17656,2002,1,34,9,1.3289691188319968
undo,42,26,0,0,0,29,"[0, 21, 16, 29]",4,8,"[4, 5, 6, 10, 13, 14, 17, 23]",127.0192337,18739,1083,1,28,9,1.4156891800947415
undo,42,26,0,0,0,4,"[0, 21, 16, 29, 4]",5,5,"[6, 10, 14, 17, 23]",103.0192337,19552,813,1,12,9,1.6252228687746915
undo,42,26,0,0,0,17,"[0, 21, 16, 29, 4, 17]",6,3,"[6, 10, 14]",81.92421056,20495,943,1,4,9,1.534793846471065
undo,42,26,0,0,0,14,"[0, 21, 16, 29, 4, 17, 14]",7,2,"[6, 10]",59.45200551,21172,677,1,1,9,1.4926767408397108
undo,42,26,0,0,0,6,"[0, 21, 16, 29, 4, 17, 14, 6]",8,1,[10],38.42820947,22077,905,1,0,9,1.6286010900012204
undo,42,26,0,0,1,10,"[0, 21, 16, 29, 4, 17, 14, 6, 10]",9,0,[],9.153647129,23079,1002,1,0,9,1.797369356615424
undo,42,26,0,1,1,10,"[0, 21, 16, 29, 4, 17, 14, 6, 10]",9,0,[],9.153647129,23897,818,1,0,9,1.797369356615424
undo,43,35,0,0,0,0,[0],1,29,"[1, 2, 3, 4, 5, 6, 7, 8, 9, 10, 11, 12, 13, 14, 15, 16, 17, 18, 19, 20, 21, 22, 23, 24, 25, 26, 27, 28, 29]",300,147,-1,5,236,11,0.0
undo,43,35,0,0,0,24,"[0, 24]",2,27,"[1, 2, 4, 5, 6, 7, 8, 9, 10, 11, 12, 13, 14, 15, 16, 17, 18, 19, 20, 21, 22, 23, 25, 26, 27, 28, 29]",268.9838752,2536,2389,49,512,10,1.0
undo,43,35,0,0,0,17,"[0, 24, 17]",3,26,"[1, 2, 4, 5, 6, 7, 8, 9, 10, 11, 12, 13, 14, 15, 16, 18, 19, 20, 21, 22, 23, 25, 26, 27, 28, 29]",257.2791753,3210,674,33,238,10,1.0771477201815276
undo,43,35,0,0,0,1,"[0, 24, 17, 1]",4,25,"[2, 4, 5, 6, 7, 8, 9, 10, 11, 12, 13, 14, 15, 16, 18, 19, 20, 21, 22, 23, 25, 26, 27, 28, 29]",241.4677869,4109,899,26,151,10,1.2244804141479215
undo,43,35,0,0,0,15,"[0, 24, 17, 1, 15]",5,23,"[2, 4, 5, 6, 7, 8, 9, 10, 11, 12, 14, 16, 18, 19, 20, 21, 22, 23, 25, 26, 27, 28, 29]",218.6204676,5055,946,26,78,10,1.4642196672428094
undo,43,35,0,0,0,5,"[0, 24, 17, 1, 15, 5]",6,13,"[4, 6, 9, 11, 18, 19, 20, 23, 25, 26, 27, 28, 29]",162.2999563,7588,2533,7,20,10,1.2337505118614283
undo,43,35,0,0,0,23,"[0, 24, 17, 1, 15, 5, 23]",7,4,"[6, 9, 18, 25]",107.8481427,8533,945,6,6,10,1.8072927740829974
undo,43,35,0,0,0,9,"[0, 24, 17, 1, 15, 5, 23, 9]",8,3,"[6, 18, 25]",70.20508226,9477,944,2,2,10,2.044176666334238
undo,43,35,0,0,0,18,"[0, 24, 17, 1, 15, 5, 23, 9, 18]",9,2,"[6, 25]",50.18009787,10256,779,2,0,10,1.942139959218181
undo,43,35,0,0,1,25,"[0, 24, 17, 1, 15, 5, 23, 9, 18, 25]",10,0,[],16.34224924,11139,883,1,0,10,1.7516079451103164
undo,43,35,0,1,1,25,"[0, 24, 17, 1, 15, 5, 23, 9, 18, 25]",10,0,[],16.34224924,12763,1624,1,0,10,1.7516079451103164
undo,44,2,0,0,0,0,[0],1,23,"[1, 2, 4, 5, 6, 7, 8, 9, 12, 13, 15, 16, 17, 18, 19, 20, 22, 23, 25, 26, 27, 28, 29]",300,153,-1,70,620,10,0.0
undo,44,2,0,0,0,19,"[0, 19]",2,22,"[1, 2, 4, 5, 6, 7, 8, 9, 12, 13, 15, 16, 17, 18, 20, 22, 23, 25, 26, 27, 28, 29]",210.306076,5468,5315,67,431,10,1.0
undo,44,2,0,0,0,12,"[0, 19, 12]",3,17,"[1, 4, 5, 6, 7, 13, 15, 16, 17, 18, 20, 22, 25, 26, 27, 28, 29]",174.2921898,6366,898,66,298,10,1.1107635036313153
undo,44,2,0,0,0,5,"[0, 19, 12, 5]",4,11,"[1, 6, 7, 13, 15, 16, 18, 22, 25, 26, 29]",144.7625437,7191,825,38,136,10,1.0968174771581647
undo,44,2,0,0,0,22,"[0, 19, 12, 5, 22]",5,8,"[1, 6, 7, 13, 15, 18, 26, 29]",131.9562952,7827,636,20,63,10,1.0889910507461968
undo,44,2,0,0,0,13,"[0, 19, 12, 5, 22, 13]",6,7,"[1, 6, 7, 15, 18, 26, 29]",117.0902265,8845,1018,19,20,10,1.236526217328057
undo,44,2,0,0,0,18,"[0, 19, 12, 5, 22, 13, 18]",7,4,"[7, 15, 26, 29]",81.91921567,9635,790,10,3,10,1.2128708213409936
undo,44,2,0,0,0,7,"[0, 19, 12, 5, 22, 13, 18, 7]",8,3,"[15, 26, 29]",71.62358553,10435,800,5,0,10,1.2019811287894737
undo,44,2,0,0,0,26,"[0, 19, 12, 5, 22, 13, 18, 7, 26]",9,2,"[15, 29]",48.82007703,11206,771,2,0,10,1.1883593342191134
undo,44,2,0,0,1,15,"[0, 19, 12, 5, 22, 13, 18, 7, 26, 15]",10,0,[],24.61264015,12662,1456,1,0,10,1.4619750353663825
undo,44,2,0,1,1,15,"[0, 19, 12, 5, 22, 13, 18, 7, 26, 15]",10,0,[],24.61264015,15030,2368,1,0,10,1.4619750353663825
undo,45,27,0,0,0,0,[0],1,26,"[1, 3, 5, 6, 7, 8, 9, 10, 11, 12, 13, 14, 15, 16, 17, 18, 19, 21, 22, 23, 24, 25, 26, 27, 28, 29]",300,136,-1,13,578,11,0.0
undo,45,27,0,0,0,26,"[0, 26]",2,23,"[1, 5, 6, 7, 8, 9, 10, 11, 12, 13, 14, 15, 16, 17, 18, 19, 21, 22, 23, 24, 25, 27, 29]",275.8132268,4308,4172,7,249,11,1.0
undo,45,27,0,0,0,15,"[0, 26, 15]",3,18,"[1, 6, 7, 8, 10, 12, 13, 14, 16, 17, 18, 19, 21, 23, 24, 25, 27, 29]",216.0386502,5405,1097,6,105,11,2.316230250316108
undo,45,27,0,0,0,24,"[0, 26, 15, 24]",4,14,"[1, 8, 10, 12, 13, 14, 16, 17, 18, 19, 23, 25, 27, 29]",198.8339997,6068,663,6,63,11,2.140390406148825
undo,45,27,0,0,0,17,"[0, 26, 15, 24, 17]",5,11,"[1, 8, 10, 12, 13, 14, 18, 19, 23, 27, 29]",182.2810543,6955,887,4,33,11,1.897705569486853
undo,45,27,0,0,0,12,"[0, 26, 15, 24, 17, 12]",6,10,"[1, 8, 10, 13, 14, 18, 19, 23, 27, 29]",171.1007144,7790,835,2,17,11,1.994427587076918
undo,45,27,0,0,0,10,"[0, 26, 15, 24, 17, 12, 10]",7,9,"[1, 8, 13, 14, 18, 19, 23, 27, 29]",160.0553534,8474,684,2,14,11,1.8554032921959762
undo,45,27,0,0,0,13,"[0, 26, 15, 24, 17, 12, 10, 13]",8,7,"[1, 8, 14, 19, 23, 27, 29]",120.2056357,9184,710,2,8,11,1.8269483184790714
undo,45,27,0,0,0,19,"[0, 26, 15, 24, 17, 12, 10, 13, 19]",9,4,"[8, 14, 23, 29]",83.97029387,10112,928,2,3,11,1.6617669702307691
undo,45,27,0,0,0,8,"[0, 26, 15, 24, 17, 12, 10, 13, 19, 8]",10,2,"[14, 29]",69.10422512,11665,1553,2,0,11,1.708465241811091
undo,45,27,0,0,1,14,"[0, 26, 15, 24, 17, 12, 10, 13, 19, 8, 14]",11,0,[],11.5455594,12818,1153,1,0,11,1.572478422540951
undo,45,27,0,1,1,14,"[0, 26, 15, 24, 17, 12, 10, 13, 19, 8, 14]",11,0,[],11.5455594,15013,2195,1,0,11,1.572478422540951
undo,46,38,0,0,0,0,[0],1,29,"[1, 2, 3, 4, 5, 6, 7, 8, 9, 10, 11, 12, 13, 14, 15, 16, 17, 18, 19, 20, 21, 22, 23, 24, 25, 26, 27, 28, 29]",300,198,-1,33,506,9,0.0
undo,46,38,0,0,0,19,"[0, 19]",2,23,"[3, 4, 5, 6, 7, 8, 9, 11, 13, 14, 15, 16, 17, 18, 20, 22, 23, 24, 25, 26, 27, 28, 29]",219.5015528,6939,6741,6,61,9,1.0
undo,46,38,0,0,0,17,"[0, 19, 17]",3,21,"[3, 4, 5, 6, 7, 9, 11, 13, 14, 15, 16, 18, 20, 22, 23, 24, 25, 26, 27, 28, 29]",198.1239945,7740,801,6,53,9,1.571793785769489
undo,46,38,0,0,0,20,"[0, 19, 17, 20]",4,17,"[3, 4, 5, 6, 7, 11, 13, 14, 15, 16, 18, 22, 24, 25, 26, 27, 28]",174.3542658,8678,938,6,44,9,2.333182710277297
undo,46,38,0,0,0,4,"[0, 19, 17, 20, 4]",5,10,"[5, 11, 13, 14, 15, 16, 24, 26, 27, 28]",140.4131403,12322,3644,5,22,9,2.276099229646013
undo,46,38,0,0,0,15,"[0, 19, 17, 20, 4, 15]",6,8,"[5, 11, 13, 14, 16, 24, 26, 28]",114.4131403,13459,1137,5,6,9,2.5292671156176403
undo,46,38,0,0,0,11,"[0, 19, 17, 20, 4, 15, 11]",7,2,"[16, 28]",78.01259089,14253,794,2,0,9,2.778100109749787
undo,46,38,0,0,0,28,"[0, 19, 17, 20, 4, 15, 11, 28]",8,1,[16],50.99407872,15122,869,1,0,9,2.3316428595723258
undo,46,38,0,0,1,16,"[0, 19, 17, 20, 4, 15, 11, 28, 16]",9,0,[],21.99407872,15892,770,1,0,9,2.5408012360364265
undo,46,38,0,1,1,16,"[0, 19, 17, 20, 4, 15, 11, 28, 16]",9,0,[],21.99407872,16749,857,1,0,9,2.5408012360364265
undo,47,22,0,0,0,0,[0],1,29,"[1, 2, 3, 4, 5, 6, 7, 8, 9, 10, 11, 12, 13, 14, 15, 16, 17, 18, 19, 20, 21, 22, 23, 24, 25, 26, 27, 28, 29]",300,149,-1,31,704,9,0.0
undo,47,22,0,0,0,16,"[0, 16]",2,21,"[1, 3, 6, 7, 8, 9, 11, 13, 14, 15, 17, 18, 19, 20, 21, 22, 24, 25, 27, 28, 29]",218.605897,2590,2441,17,147,9,1.0
undo,47,22,0,0,0,28,"[0, 16, 28]",3,13,"[6, 7, 9, 13, 14, 17, 19, 20, 21, 22, 24, 25, 29]",184.1675463,3560,970,12,61,9,1.047282311284478
undo,47,22,0,0,0,6,"[0, 16, 28, 6]",4,12,"[7, 9, 13, 14, 17, 19, 20, 21, 22, 24, 25, 29]",154.1675463,4442,882,12,43,9,1.645645870580622
undo,47,22,0,0,0,9,"[0, 16, 28, 6, 9]",5,8,"[7, 14, 17, 19, 20, 21, 24, 29]",127.5404924,5460,1018,8,17,9,1.925750226630103
undo,47,22,0,0,0,19,"[0, 16, 28, 6, 9, 19]",6,6,"[7, 14, 17, 21, 24, 29]",107.1444143,6283,823,3,7,9,2.4220750331476455
undo,47,22,0,0,0,29,"[0, 16, 28, 6, 9, 19, 29]",7,4,"[7, 14, 17, 24]",92.11111796,7241,958,2,2,9,2.6996279574991067
undo,47,22,0,0,0,14,"[0, 16, 28, 6, 9, 19, 29, 14]",8,1,[7],33.86165444,8211,970,1,0,9,2.0544639927929462
undo,47,22,0,0,1,7,"[0, 16, 28, 6, 9, 19, 29, 14, 7]",9,0,[],20.82324963,9086,875,1,0,9,2.219817088951114
undo,47,22,0,1,1,7,"[0, 16, 28, 6, 9, 19, 29, 14, 7]",9,0,[],20.82324963,9797,711,1,0,9,2.219817088951114
undo,48,9,0,0,0,0,[0],1,27,"[1, 3, 4, 5, 6, 7, 8, 9, 10, 11, 13, 14, 15, 16, 17, 18, 19, 20, 21, 22, 23, 24, 25, 26, 27, 28, 29]",300,180,-1,2,182,10,0.0
undo,48,9,0,0,0,9,"[0, 9]",2,26,"[1, 3, 4, 5, 6, 7, 8, 10, 11, 13, 14, 15, 16, 17, 18, 19, 20, 21, 22, 23, 24, 25, 26, 27, 28, 29]",225.5352432,3604,3424,2,101,9,1.0
undo,48,9,0,0,0,23,"[0, 9, 23]",3,22,"[1, 3, 4, 5, 7, 8, 10, 11, 13, 15, 16, 17, 18, 19, 20, 21, 22, 24, 25, 26, 27, 28]",203.1745635,5170,1566,2,70,9,1.6262276606762436
undo,48,9,0,0,0,8,"[0, 9, 23, 8]",4,18,"[3, 4, 5, 7, 10, 11, 15, 16, 17, 18, 19, 20, 21, 22, 25, 26, 27, 28]",181.7036529,5988,818,1,36,9,1.8547307061753238
undo,48,9,0,0,0,28,"[0, 9, 23, 8, 28]",5,17,"[3, 4, 5, 7, 10, 11, 15, 16, 17, 18, 19, 20, 21, 22, 25, 26, 27]",170.8869991,6918,930,1,23,9,1.7382749966569708
undo,48,9,0,0,0,26,"[0, 9, 23, 8, 28, 26]",6,10,"[3, 5, 10, 15, 16, 18, 19, 20, 21, 25]",126.1097727,7986,1068,4,7,8,1.4884719959249546
undo,48,9,0,0,0,21,"[0, 9, 23, 8, 28, 26, 21]",7,1,[20],72.20244484,8867,881,1,0,8,1.9218119811471304
undo,48,9,0,0,1,20,"[0, 9, 23, 8, 28, 26, 21, 20]",8,0,[],60.11939886,9606,739,1,0,8,1.8940565724013747
undo,48,9,1,0,0,21,"[0, 9, 23, 8, 28, 26, 21]",7,1,[20],72.20244484,11330,1724,1,0,8,1.9218119811471304
undo,48,9,1,0,0,26,"[0, 9, 23, 8, 28, 26]",6,10,"[3, 5, 10, 15, 16, 18, 19, 20, 21, 25]",126.1097727,11579,249,4,7,8,1.4884719959249546
undo,48,9,1,0,0,28,"[0, 9, 23, 8, 28]",5,17,"[3, 4, 5, 7, 10, 11, 15, 16, 17, 18, 19, 20, 21, 22, 25, 26, 27]",170.8869991,11830,251,1,23,9,1.7382749966569708
undo,48,9,0,0,0,26,"[0, 9, 23, 8, 28, 26]",6,10,"[3, 5, 10, 15, 16, 18, 19, 20, 21, 25]",126.1097727,13821,1991,4,7,8,1.4884719959249546
undo,48,9,0,0,0,18,"[0, 9, 23, 8, 28, 26, 18]",7,2,"[5, 19]",65.23284771,14639,818,2,0,8,1.3471468379657168
undo,48,9,0,0,1,5,"[0, 9, 23, 8, 28, 26, 18, 5]",8,0,[],1.342316325,15656,1017,1,0,8,1.3414453811098892
undo,48,9,1,0,0,18,"[0, 9, 23, 8, 28, 26, 18]",7,2,"[5, 19]",65.23284771,16863,1207,2,0,8,1.3471468379657168
undo,48,9,1,0,0,26,"[0, 9, 23, 8, 28, 26]",6,10,"[3, 5, 10, 15, 16, 18, 19, 20, 21, 25]",126.1097727,17130,267,4,7,8,1.4884719959249546
undo,48,9,0,0,1,19,"[0, 9, 23, 8, 28, 26, 19]",7,0,[],41.5757559,18193,1063,1,0,7,1.5180953520051268
undo,48,9,1,0,0,26,"[0, 9, 23, 8, 28, 26]",6,10,"[3, 5, 10, 15, 16, 18, 19, 20, 21, 25]",126.1097727,18995,802,4,7,8,1.4884719959249546
undo,48,9,1,0,0,28,"[0, 9, 23, 8, 28]",5,17,"[3, 4, 5, 7, 10, 11, 15, 16, 17, 18, 19, 20, 21, 22, 25, 26, 27]",170.8869991,19212,217,1,23,9,1.7382749966569708
undo,48,9,1,0,0,8,"[0, 9, 23, 8]",4,18,"[3, 4, 5, 7, 10, 11, 15, 16, 17, 18, 19, 20, 21, 22, 25, 26, 27, 28]",181.7036529,19829,617,1,36,9,1.8547307061753238
undo,48,9,1,0,0,23,"[0, 9, 23]",3,22,"[1, 3, 4, 5, 7, 8, 10, 11, 13, 15, 16, 17, 18, 19, 20, 21, 22, 24, 25, 26, 27, 28]",203.1745635,21663,1834,2,70,9,1.6262276606762436
undo,48,9,1,0,0,9,"[0, 9]",2,26,"[1, 3, 4, 5, 6, 7, 8, 10, 11, 13, 14, 15, 16, 17, 18, 19, 20, 21, 22, 23, 24, 25, 26, 27, 28, 29]",225.5352432,21878,215,2,101,9,1.0
undo,48,9,1,0,0,0,[0],1,27,"[1, 3, 4, 5, 6, 7, 8, 9, 10, 11, 13, 14, 15, 16, 17, 18, 19, 20, 21, 22, 23, 24, 25, 26, 27, 28, 29]",300,22128,250,2,182,10,0.0
undo,48,9,0,0,0,25,"[0, 25]",2,24,"[1, 3, 4, 5, 6, 7, 8, 9, 10, 11, 13, 15, 16, 17, 18, 19, 20, 21, 22, 23, 24, 26, 27, 28]",275.9168108,23205,1077,2,104,10,1.0
undo,48,9,0,0,0,10,"[0, 25, 10]",3,20,"[3, 4, 5, 7, 8, 9, 11, 13, 15, 16, 17, 18, 19, 20, 21, 22, 23, 26, 27, 28]",236.0670932,24003,798,2,76,10,1.1767014107208227
undo,48,9,0,0,0,8,"[0, 25, 10, 8]",4,19,"[3, 4, 5, 7, 9, 11, 13, 15, 16, 17, 18, 19, 20, 21, 22, 23, 26, 27, 28]",187.6935467,24773,770,1,29,10,1.7608170712242983
undo,48,9,0,0,0,28,"[0, 25, 10, 8, 28]",5,18,"[3, 4, 5, 7, 9, 11, 13, 15, 16, 17, 18, 19, 20, 21, 22, 23, 26, 27]",176.8768928,25643,870,1,15,10,1.6576318206889098
undo,48,9,0,0,0,23,"[0, 25, 10, 8, 28, 23]",6,12,"[3, 4, 7, 9, 11, 18, 19, 20, 21, 22, 26, 27]",151.8569008,26359,716,1,7,10,2.488131366775142
undo,48,9,0,0,0,9,"[0, 25, 10, 8, 28, 23, 9]",7,10,"[3, 4, 7, 11, 18, 19, 20, 21, 26, 27]",129.4962211,27218,859,1,5,10,2.289724512754012
undo,48,9,0,0,0,26,"[0, 25, 10, 8, 28, 23, 9, 26]",8,3,"[18, 20, 21]",72.8481849,28777,1559,1,2,10,1.944382504121744
undo,48,9,0,0,0,21,"[0, 25, 10, 8, 28, 23, 9, 26, 21]",9,1,[20],18.94085701,29572,795,1,0,10,2.3711528775176802
undo,48,9,0,0,1,20,"[0, 25, 10, 8, 28, 23, 9, 26, 21, 20]",10,0,[],6.85781104,30385,813,1,0,10,2.3146010432238726
undo,48,9,0,1,1,20,"[0, 25, 10, 8, 28, 23, 9, 26, 21, 20]",10,0,[],6.85781104,31130,745,1,0,10,2.3146010432238726
undo,49,45,0,0,0,0,[0],1,24,"[1, 2, 3, 4, 5, 6, 7, 9, 10, 11, 12, 14, 15, 16, 17, 19, 20, 21, 22, 23, 24, 25, 27, 29]",300,146,-1,6,248,10,0.0
undo,49,45,0,0,0,15,"[0, 15]",2,23,"[1, 2, 3, 4, 5, 6, 7, 9, 10, 11, 12, 14, 16, 17, 19, 20, 21, 22, 23, 24, 25, 27, 29]",253.9022777,1883,1737,5,207,10,1.0
undo,49,45,0,0,0,23,"[0, 15, 23]",3,22,"[1, 2, 3, 4, 5, 6, 7, 9, 10, 11, 12, 14, 16, 17, 19, 20, 21, 22, 24, 25, 27, 29]",230.3014303,2611,728,5,163,10,1.0006068457769497
undo,49,45,0,0,0,20,"[0, 15, 23, 20]",4,19,"[1, 2, 3, 5, 6, 7, 9, 10, 11, 12, 14, 16, 17, 19, 21, 22, 24, 25, 29]",188.8647316,3367,756,5,137,10,1.2062119754673604
undo,49,45,0,0,0,24,"[0, 15, 23, 20, 24]",5,14,"[1, 2, 3, 5, 6, 7, 9, 10, 12, 17, 19, 21, 22, 29]",145.0355176,4241,874,1,23,10,1.5044386356496664
undo,49,45,0,0,0,7,"[0, 15, 23, 20, 24, 7]",6,9,"[2, 3, 6, 10, 12, 17, 19, 22, 29]",110.6262165,5044,803,1,22,10,1.4273775035809357
undo,49,45,0,0,0,2,"[0, 15, 23, 20, 24, 7, 2]",7,6,"[3, 6, 10, 12, 22, 29]",72.61306087,5715,671,1,7,10,1.3566457419165387
undo,49,45,0,0,0,3,"[0, 15, 23, 20, 24, 7, 2, 3]",8,4,"[6, 10, 22, 29]",47.29508307,6368,653,1,3,10,1.4087069987569252
undo,49,45,0,0,0,29,"[0, 15, 23, 20, 24, 7, 2, 3, 29]",9,1,[10],27.29508307,7207,839,1,0,10,1.6931989191216303
undo,49,45,0,0,1,10,"[0, 15, 23, 20, 24, 7, 2, 3, 29, 10]",10,0,[],5.754423843,7972,765,1,0,10,1.9996819797033594
undo,49,45,0,1,1,10,"[0, 15, 23, 20, 24, 7, 2, 3, 29, 10]",10,0,[],5.754423843,9947,1975,1,0,10,1.9996819797033594
undo,50,37,0,0,0,0,[0],1,29,"[1, 2, 3, 4, 5, 6, 7, 8, 9, 10, 11, 12, 13, 14, 15, 16, 17, 18, 19, 20, 21, 22, 23, 24, 25, 26, 27, 28, 29]",300,148,-1,6,168,10,0.0
undo,50,37,0,0,0,18,"[0, 18]",2,19,"[1, 2, 4, 6, 7, 9, 10, 12, 14, 15, 17, 19, 20, 21, 22, 23, 26, 28, 29]",202.4090168,3229,3081,6,89,10,1.0
undo,50,37,0,0,0,7,"[0, 18, 7]",3,12,"[1, 2, 4, 9, 15, 17, 19, 20, 21, 22, 26, 29]",175.2428614,3992,763,6,53,10,1.0413073512834488
undo,50,37,0,0,0,22,"[0, 18, 7, 22]",4,8,"[1, 2, 4, 15, 19, 20, 21, 26]",125.2428614,4724,732,6,29,10,1.0730792320325544
undo,50,37,0,0,0,4,"[0, 18, 7, 22, 4]",5,7,"[1, 2, 15, 19, 20, 21, 26]",100.2428614,5518,794,4,16,10,1.2290245562206235
undo,50,37,0,0,0,2,"[0, 18, 7, 22, 4, 2]",6,5,"[1, 15, 19, 20, 21]",88.84110714,6163,645,4,7,10,1.3968113858365216
undo,50,37,0,0,0,1,"[0, 18, 7, 22, 4, 2, 1]",7,4,"[15, 19, 20, 21]",71.63645661,6926,763,4,3,10,1.4424239294761476
undo,50,37,0,0,0,20,"[0, 18, 7, 22, 4, 2, 1, 20]",8,3,"[15, 19, 21]",37.40197107,7786,860,2,1,10,1.7518607796010042
undo,50,37,0,0,0,15,"[0, 18, 7, 22, 4, 2, 1, 20, 15]",9,1,[21],20.40197107,8484,698,1,0,10,1.680305745239285
undo,50,37,0,0,1,21,"[0, 18, 7, 22, 4, 2, 1, 20, 15, 21]",10,0,[],5.401971073,9202,718,1,0,10,1.8982635624510946
undo,50,37,0,1,1,21,"[0, 18, 7, 22, 4, 2, 1, 20, 15, 21]",10,0,[],5.401971073,10112,910,1,0,10,1.8982635624510946
undo,51,12,0,0,0,0,[0],1,29,"[1, 2, 3, 4, 5, 6, 7, 8, 9, 10, 11, 12, 13, 14, 15, 16, 17, 18, 19, 20, 21, 22, 23, 24, 25, 26, 27, 28, 29]",300,149,-1,2,32,9,0.0
undo,51,12,0,0,0,6,"[0, 6]",2,28,"[1, 2, 3, 4, 5, 7, 8, 9, 10, 11, 12, 13, 14, 15, 16, 17, 18, 19, 20, 21, 22, 23, 24, 25, 26, 27, 28, 29]",283.5987805,1778,1629,2,18,9,1.0
undo,51,12,0,0,0,22,"[0, 6, 22]",3,13,"[2, 4, 5, 7, 12, 13, 14, 16, 19, 23, 24, 25, 27]",182.0015365,5572,3794,2,9,9,1.3408050629015749
undo,51,12,0,0,0,16,"[0, 6, 22, 16]",4,10,"[2, 4, 5, 7, 12, 14, 19, 24, 25, 27]",161.0015365,6234,662,2,7,9,1.5323672374573825
undo,51,12,0,0,0,4,"[0, 6, 22, 16, 4]",5,6,"[12, 14, 19, 24, 25, 27]",126.7962737,6875,641,2,5,9,1.38665076120851
undo,51,12,0,0,0,12,"[0, 6, 22, 16, 4, 12]",6,3,"[14, 24, 27]",84.6062275,7620,745,2,3,9,1.3036701691846924
undo,51,12,0,0,0,27,"[0, 6, 22, 16, 4, 12, 27]",7,2,"[14, 24]",60.25463618,8371,751,2,0,9,1.401636252408167
undo,51,12,0,0,0,14,"[0, 6, 22, 16, 4, 12, 27, 14]",8,1,[24],31.60153862,9054,683,1,0,9,1.4415448388010776
undo,51,12,0,0,1,24,"[0, 6, 22, 16, 4, 12, 27, 14, 24]",9,0,[],14.39688808,11122,2068,1,0,9,1.6003250998053893
undo,51,12,0,1,1,24,"[0, 6, 22, 16, 4, 12, 27, 14, 24]",9,0,[],14.39688808,11914,792,1,0,9,1.6003250998053893
undo,52,15,0,0,0,0,[0],1,25,"[1, 2, 3, 4, 7, 8, 9, 10, 11, 12, 13, 14, 15, 16, 18, 20, 21, 22, 23, 24, 25, 26, 27, 28, 29]",300,153,-1,4,65,9,0.0
undo,52,15,0,0,0,7,"[0, 7]",2,23,"[1, 3, 4, 8, 9, 10, 11, 12, 13, 14, 15, 16, 18, 20, 21, 22, 23, 24, 25, 26, 27, 28, 29]",215.1884442,2025,1872,30,107,8,1.0
undo,52,15,0,0,0,16,"[0, 7, 16]",3,14,"[3, 4, 9, 10, 11, 12, 13, 14, 15, 18, 21, 22, 25, 27]",171.5306843,2805,780,11,27,8,1.1253230463291073
undo,52,15,0,0,0,11,"[0, 7, 16, 11]",4,10,"[3, 4, 12, 13, 14, 15, 18, 21, 22, 27]",145.5114606,3419,614,6,10,8,1.2441772230587118
undo,52,15,0,0,0,3,"[0, 7, 16, 11, 3]",5,8,"[4, 12, 13, 14, 15, 18, 21, 22]",134.1097064,4055,636,6,4,8,1.253153736954923
undo,52,15,0,0,0,22,"[0, 7, 16, 11, 3, 22]",6,5,"[4, 13, 14, 15, 18]",84.38043933,5079,1024,2,3,8,1.249784727890499
undo,52,15,0,0,0,15,"[0, 7, 16, 11, 3, 22, 15]",7,1,[13],58.76794238,5755,676,1,0,8,1.2283958862490272
undo,52,15,0,0,1,13,"[0, 7, 16, 11, 3, 22, 15, 13]",8,0,[],43.50360486,6510,755,1,0,8,1.2803073001953094
undo,52,15,1,0,0,15,"[0, 7, 16, 11, 3, 22, 15]",7,1,[13],58.76794238,7330,820,1,0,8,1.2283958862490272
undo,52,15,1,0,0,22,"[0, 7, 16, 11, 3, 22]",6,5,"[4, 13, 14, 15, 18]",84.38043933,7630,300,2,3,8,1.249784727890499
undo,52,15,1,0,0,3,"[0, 7, 16, 11, 3]",5,8,"[4, 12, 13, 14, 15, 18, 21, 22]",134.1097064,8062,432,6,4,8,1.253153736954923
undo,52,15,1,0,0,11,"[0, 7, 16, 11]",4,10,"[3, 4, 12, 13, 14, 15, 18, 21, 22, 27]",145.5114606,8312,250,6,10,8,1.2441772230587118
undo,52,15,1,0,0,16,"[0, 7, 16]",3,14,"[3, 4, 9, 10, 11, 12, 13, 14, 15, 18, 21, 22, 25, 27]",171.5306843,8713,401,11,27,8,1.1253230463291073
undo,52,15,1,0,0,7,"[0, 7]",2,23,"[1, 3, 4, 8, 9, 10, 11, 12, 13, 14, 15, 16, 18, 20, 21, 22, 23, 24, 25, 26, 27, 28, 29]",215.1884442,9280,567,30,107,8,1.0
undo,52,15,0,0,0,12,"[0, 7, 12]",3,16,"[1, 3, 4, 8, 9, 11, 13, 14, 15, 16, 21, 22, 23, 24, 26, 27]",181.9469039,10385,1105,2,24,8,1.365528707557435
undo,52,15,0,0,0,21,"[0, 7, 12, 21]",4,9,"[1, 3, 8, 9, 11, 16, 24, 26, 27]",138.1176899,11306,921,5,5,6,1.7025158298213359
undo,52,15,0,0,0,27,"[0, 7, 12, 21, 27]",5,1,[24],81.03879713,12259,953,1,0,6,1.43900908011429
undo,52,15,0,0,1,24,"[0, 7, 12, 21, 27, 24]",6,0,[],8.03194814,13309,1050,1,0,6,1.3017565015026145
undo,52,15,1,0,0,27,"[0, 7, 12, 21, 27]",5,1,[24],81.03879713,14179,870,1,0,6,1.43900908011429
undo,52,15,1,0,0,21,"[0, 7, 12, 21]",4,9,"[1, 3, 8, 9, 11, 16, 24, 26, 27]",138.1176899,14362,183,5,5,6,1.7025158298213359
undo,52,15,1,0,0,12,"[0, 7, 12]",3,16,"[1, 3, 4, 8, 9, 11, 13, 14, 15, 16, 21, 22, 23, 24, 26, 27]",181.9469039,14580,218,2,24,8,1.365528707557435
undo,52,15,1,0,0,7,"[0, 7]",2,23,"[1, 3, 4, 8, 9, 10, 11, 12, 13, 14, 15, 16, 18, 20, 21, 22, 23, 24, 25, 26, 27, 28, 29]",215.1884442,15097,517,30,107,8,1.0
