condition,trial_id,map_id,undoIndicator,submit,checkEnd,currentChoice,chosen_all,n_city_all,n_within_reach,cities_reach,currentBudget,time_all,rt_all,n_opt_paths_all,n_subopt_paths_all,mas_all,tortuosity_all
undo,0,40,0,0,0,0,[0],1,29,"[1, 2, 3, 4, 5, 6, 7, 8, 9, 10, 11, 12, 13, 14, 15, 16, 17, 18, 19, 20, 21, 22, 23, 24, 25, 26, 27, 28, 29]",300,112,-1,8,191,9,0.0
undo,0,40,0,0,0,1,"[0, 1]",2,18,"[2, 5, 6, 7, 8, 9, 10, 11, 13, 15, 17, 18, 19, 21, 22, 23, 27, 29]",247.8463808,7235,7123,4,80,9,1.0
undo,0,40,0,0,0,6,"[0, 1, 6]",3,17,"[2, 5, 7, 8, 9, 10, 11, 13, 15, 17, 18, 19, 21, 22, 23, 27, 29]",227.7466295,7954,719,4,74,9,1.0459427008232034
undo,0,40,0,0,0,21,"[0, 1, 6, 21]",4,8,"[2, 5, 9, 17, 18, 19, 22, 23]",175.7754837,8982,1028,4,25,9,1.0308822257404064
undo,0,40,0,0,0,9,"[0, 1, 6, 21, 9]",5,6,"[2, 5, 18, 19, 22, 23]",130.0699041,9834,852,4,12,9,1.377861912961129
undo,0,40,0,0,0,18,"[0, 1, 6, 21, 9, 18]",6,5,"[2, 5, 19, 22, 23]",113.5169588,10676,842,4,4,9,1.5742712168661408
undo,0,40,0,0,0,23,"[0, 1, 6, 21, 9, 18, 23]",7,3,"[2, 5, 19]",79.51695879,11428,752,2,1,9,2.324611956726637
undo,0,40,0,0,0,19,"[0, 1, 6, 21, 9, 18, 23, 19]",8,1,[5],47.56386817,12265,837,1,0,9,2.460596854255639
undo,0,40,0,0,1,5,"[0, 1, 6, 21, 9, 18, 23, 19, 5]",9,0,[],9.485002643,13300,1035,1,0,9,2.3622228457215413
undo,0,40,1,0,0,19,"[0, 1, 6, 21, 9, 18, 23, 19]",8,1,[5],47.56386817,16334,3034,1,0,9,2.460596854255639
undo,0,40,1,0,0,23,"[0, 1, 6, 21, 9, 18, 23]",7,3,"[2, 5, 19]",79.51695879,16733,399,2,1,9,2.324611956726637
undo,0,40,1,0,0,18,"[0, 1, 6, 21, 9, 18]",6,5,"[2, 5, 19, 22, 23]",113.5169588,17033,300,4,4,9,1.5742712168661408
undo,0,40,1,0,0,9,"[0, 1, 6, 21, 9]",5,6,"[2, 5, 18, 19, 22, 23]",130.0699041,17348,315,4,12,9,1.377861912961129
undo,0,40,1,0,0,21,"[0, 1, 6, 21]",4,8,"[2, 5, 9, 17, 18, 19, 22, 23]",175.7754837,17581,233,4,25,9,1.0308822257404064
undo,0,40,1,0,0,6,"[0, 1, 6]",3,17,"[2, 5, 7, 8, 9, 10, 11, 13, 15, 17, 18, 19, 21, 22, 23, 27, 29]",227.7466295,17814,233,4,74,9,1.0459427008232034
undo,0,40,1,0,0,1,"[0, 1]",2,18,"[2, 5, 6, 7, 8, 9, 10, 11, 13, 15, 17, 18, 19, 21, 22, 23, 27, 29]",247.8463808,18279,465,4,80,9,1.0
undo,0,40,1,0,0,0,[0],1,29,"[1, 2, 3, 4, 5, 6, 7, 8, 9, 10, 11, 12, 13, 14, 15, 16, 17, 18, 19, 20, 21, 22, 23, 24, 25, 26, 27, 28, 29]",300,18611,332,8,191,9,0.0
undo,0,40,0,0,0,2,"[0, 2]",2,28,"[1, 3, 4, 5, 6, 7, 8, 9, 10, 11, 12, 13, 14, 15, 16, 17, 18, 19, 20, 21, 22, 23, 24, 25, 26, 27, 28, 29]",263.7646581,20853,2242,4,79,9,1.0
undo,0,40,0,0,0,19,"[0, 2, 19]",3,22,"[1, 5, 6, 7, 8, 9, 10, 11, 13, 14, 15, 17, 18, 20, 21, 22, 23, 24, 25, 26, 27, 29]",194.4249148,21990,1137,19,105,8,1.02908296307533
undo,0,40,0,0,0,23,"[0, 2, 19, 23]",4,15,"[1, 5, 6, 7, 8, 9, 10, 11, 13, 17, 18, 21, 22, 27, 29]",162.4718242,23805,1815,11,38,8,1.4499965171787688
undo,0,40,0,0,0,5,"[0, 2, 19, 23, 5]",5,10,"[1, 6, 7, 8, 9, 11, 18, 21, 22, 27]",134.1698808,24612,807,4,12,8,1.3483906154476113
undo,0,40,0,0,0,18,"[0, 2, 19, 23, 5, 18]",6,5,"[1, 6, 9, 21, 22]",102.594574,25580,968,3,3,8,1.6664768989460201
undo,0,40,0,0,0,9,"[0, 2, 19, 23, 5, 18, 9]",7,2,"[6, 21]",86.04162866,26136,556,2,0,8,1.7348609689602368
undo,0,40,0,0,1,21,"[0, 2, 19, 23, 5, 18, 9, 21]",8,0,[],40.33604914,27149,1013,1,0,8,2.1548319090303782
undo,0,40,1,0,0,9,"[0, 2, 19, 23, 5, 18, 9]",7,2,"[6, 21]",86.04162866,30130,2981,2,0,8,1.7348609689602368
undo,0,40,1,0,0,18,"[0, 2, 19, 23, 5, 18]",6,5,"[1, 6, 9, 21, 22]",102.594574,30379,249,3,3,8,1.6664768989460201
undo,0,40,1,0,0,5,"[0, 2, 19, 23, 5]",5,10,"[1, 6, 7, 8, 9, 11, 18, 21, 22, 27]",134.1698808,30612,233,4,12,8,1.3483906154476113
undo,0,40,1,0,0,23,"[0, 2, 19, 23]",4,15,"[1, 5, 6, 7, 8, 9, 10, 11, 13, 17, 18, 21, 22, 27, 29]",162.4718242,30844,232,11,38,8,1.4499965171787688
undo,0,40,1,0,0,19,"[0, 2, 19]",3,22,"[1, 5, 6, 7, 8, 9, 10, 11, 13, 14, 15, 17, 18, 20, 21, 22, 23, 24, 25, 26, 27, 29]",194.4249148,31077,233,19,105,8,1.02908296307533
undo,0,40,1,0,0,2,"[0, 2]",2,28,"[1, 3, 4, 5, 6, 7, 8, 9, 10, 11, 12, 13, 14, 15, 16, 17, 18, 19, 20, 21, 22, 23, 24, 25, 26, 27, 28, 29]",263.7646581,31343,266,4,79,9,1.0
undo,0,40,0,0,0,1,"[0, 2, 1]",3,13,"[5, 6, 8, 9, 10, 13, 17, 18, 19, 21, 22, 23, 27]",197.9695215,34438,3095,3,32,9,1.9563451201211088
undo,0,40,0,0,0,6,"[0, 2, 1, 6]",4,10,"[5, 8, 9, 13, 17, 18, 19, 21, 22, 23]",177.8697703,35103,665,3,29,9,1.767962123020631
undo,0,40,0,0,0,21,"[0, 2, 1, 6, 21]",5,5,"[5, 9, 18, 19, 23]",125.8986245,35884,781,2,8,9,1.4447873803466464
undo,0,40,0,0,0,9,"[0, 2, 1, 6, 21, 9]",6,4,"[5, 18, 19, 23]",80.19304493,36729,845,2,4,9,1.782283650173066
undo,0,40,0,0,0,18,"[0, 2, 1, 6, 21, 9, 18]",7,3,"[5, 19, 23]",63.64009957,37339,610,2,1,9,1.995326683187404
undo,0,40,0,0,0,23,"[0, 2, 1, 6, 21, 9, 18, 23]",8,1,[5],29.64009957,38546,1207,1,0,9,2.8504770875343683
undo,0,40,0,0,1,5,"[0, 2, 1, 6, 21, 9, 18, 23, 5]",9,0,[],1.338156173,39625,1079,1,0,9,2.4284661275730834
undo,0,40,0,1,1,5,"[0, 2, 1, 6, 21, 9, 18, 23, 5]",9,0,[],1.338156173,40851,1226,1,0,9,2.4284661275730834
undo,1,31,0,0,0,0,[0],1,27,"[1, 3, 4, 5, 6, 7, 8, 10, 11, 12, 13, 14, 15, 16, 17, 18, 19, 20, 21, 22, 23, 24, 25, 26, 27, 28, 29]",300,129,-1,2,87,10,0.0
undo,1,31,0,0,0,14,"[0, 14]",2,25,"[1, 3, 5, 6, 7, 8, 10, 11, 12, 13, 15, 16, 17, 18, 19, 20, 21, 22, 23, 24, 25, 26, 27, 28, 29]",263.861378,2868,2739,2,59,10,1.0
undo,1,31,0,0,0,27,"[0, 14, 27]",3,22,"[1, 3, 5, 6, 7, 8, 10, 11, 12, 13, 15, 16, 17, 18, 19, 20, 21, 22, 24, 25, 28, 29]",235.6833724,3377,509,1,39,10,1.5881859159302467
undo,1,31,0,0,0,8,"[0, 14, 27, 8]",4,20,"[1, 3, 5, 6, 7, 10, 11, 12, 13, 16, 17, 18, 19, 20, 21, 22, 24, 25, 28, 29]",224.6380114,3865,488,1,36,10,2.1665048452331277
undo,1,31,0,0,0,18,"[0, 14, 27, 8, 18]",5,15,"[1, 5, 6, 7, 11, 12, 13, 16, 17, 19, 20, 22, 25, 28, 29]",188.7911147,5195,1330,1,26,10,1.7273375741920205
undo,1,31,0,0,0,17,"[0, 14, 27, 8, 18, 17]",6,13,"[1, 5, 6, 7, 11, 12, 13, 16, 19, 20, 22, 25, 28]",159.584951,6101,906,1,13,10,1.551192427769927
undo,1,31,0,0,0,11,"[0, 14, 27, 8, 18, 17, 11]",7,7,"[5, 12, 16, 19, 22, 25, 28]",118.4753414,6922,821,1,4,10,2.9650760544203494
undo,1,31,0,0,0,5,"[0, 14, 27, 8, 18, 17, 11, 5]",8,2,"[16, 28]",74.79468207,7881,959,1,1,10,2.56711965625205
undo,1,31,0,0,0,28,"[0, 14, 27, 8, 18, 17, 11, 5, 28]",9,1,[16],54.57093365,8599,718,1,0,10,2.2865510762058148
undo,1,31,0,0,1,16,"[0, 14, 27, 8, 18, 17, 11, 5, 28, 16]",10,0,[],20.95546102,9723,1124,1,0,10,2.089356850786318
undo,1,31,0,1,1,16,"[0, 14, 27, 8, 18, 17, 11, 5, 28, 16]",10,0,[],20.95546102,11415,1692,1,0,10,2.089356850786318
undo,2,27,0,0,0,0,[0],1,26,"[1, 3, 5, 6, 7, 8, 9, 10, 11, 12, 13, 14, 15, 16, 17, 18, 19, 21, 22, 23, 24, 25, 26, 27, 28, 29]",300,98,-1,13,578,11,0.0
undo,2,27,0,0,0,15,"[0, 15]",2,24,"[1, 3, 5, 6, 7, 8, 9, 10, 11, 12, 13, 14, 16, 17, 18, 19, 21, 22, 23, 24, 25, 26, 27, 29]",263.7508621,2946,2848,6,219,11,1.0
undo,2,27,0,0,0,24,"[0, 15, 24]",3,20,"[1, 5, 6, 7, 8, 9, 10, 12, 13, 14, 16, 17, 18, 19, 21, 23, 25, 26, 27, 29]",246.5462115,3814,868,6,130,11,1.130933077698322
undo,2,27,0,0,0,17,"[0, 15, 24, 17]",4,15,"[1, 6, 8, 10, 12, 13, 14, 16, 18, 19, 23, 25, 26, 27, 29]",229.9932662,4742,928,4,60,11,1.1285538435963374
undo,2,27,0,0,0,12,"[0, 15, 24, 17, 12]",5,14,"[1, 6, 8, 10, 13, 14, 16, 18, 19, 23, 25, 26, 27, 29]",218.8129263,5823,1081,2,32,11,1.2561880288755216
undo,2,27,0,0,0,10,"[0, 15, 24, 17, 12, 10]",6,11,"[1, 8, 13, 14, 18, 19, 23, 25, 26, 27, 29]",207.7675653,6954,1131,2,28,11,1.2228289337766665
undo,2,27,0,0,0,13,"[0, 15, 24, 17, 12, 10, 13]",7,9,"[1, 8, 14, 18, 19, 23, 26, 27, 29]",167.9178476,8176,1222,2,18,11,1.3421291994761178
undo,2,27,0,0,0,19,"[0, 15, 24, 17, 12, 10, 13, 19]",8,5,"[1, 8, 14, 23, 29]",131.6825057,8889,713,2,6,11,1.294749956153846
undo,2,27,0,0,0,8,"[0, 15, 24, 17, 12, 10, 13, 19, 8]",9,3,"[14, 23, 29]",116.816437,9547,658,2,1,11,1.3554286578836865
undo,2,27,0,0,0,29,"[0, 15, 24, 17, 12, 10, 13, 19, 8, 29]",10,1,[14],57.61339652,11072,1525,1,0,11,1.248354519573802
undo,2,27,0,0,1,14,"[0, 15, 24, 17, 12, 10, 13, 19, 8, 29, 14]",11,0,[],13.31892734,12131,1059,1,0,11,1.562811097555156
undo,2,27,0,1,1,14,"[0, 15, 24, 17, 12, 10, 13, 19, 8, 29, 14]",11,0,[],13.31892734,12930,799,1,0,11,1.562811097555156
undo,3,35,0,0,0,0,[0],1,29,"[1, 2, 3, 4, 5, 6, 7, 8, 9, 10, 11, 12, 13, 14, 15, 16, 17, 18, 19, 20, 21, 22, 23, 24, 25, 26, 27, 28, 29]",300,115,-1,5,236,11,0.0
undo,3,35,0,0,0,15,"[0, 15]",2,27,"[1, 2, 4, 5, 6, 7, 8, 9, 10, 11, 12, 13, 14, 16, 17, 18, 19, 20, 21, 22, 23, 24, 25, 26, 27, 28, 29]",244.4212271,9063,8948,9,149,10,1.0
undo,3,35,0,0,0,24,"[0, 15, 24]",3,21,"[1, 2, 4, 5, 6, 7, 8, 9, 10, 16, 17, 18, 19, 20, 21, 23, 25, 26, 27, 28, 29]",212.2187427,9984,921,3,53,10,2.8301813252608574
undo,3,35,0,0,0,17,"[0, 15, 24, 17]",4,17,"[1, 2, 4, 5, 6, 9, 10, 16, 18, 19, 21, 23, 25, 26, 27, 28, 29]",200.5140428,10534,550,3,35,10,2.508403635477034
undo,3,35,0,0,0,1,"[0, 15, 24, 17, 1]",5,16,"[2, 4, 5, 6, 9, 10, 16, 18, 19, 21, 23, 25, 26, 27, 28, 29]",184.7026545,11123,589,3,30,10,2.4119939071293377
undo,3,35,0,0,0,23,"[0, 15, 24, 17, 1, 23]",6,9,"[4, 5, 6, 9, 18, 19, 25, 26, 27]",126.1791549,12398,1275,3,16,10,1.6348796298323884
undo,3,35,0,0,0,9,"[0, 15, 24, 17, 1, 23, 9]",7,4,"[6, 18, 19, 25]",88.53609448,14140,1742,2,4,10,1.8811102773168398
undo,3,35,0,0,0,18,"[0, 15, 24, 17, 1, 23, 9, 18]",8,2,"[6, 25]",68.51111009,15950,1810,2,0,10,1.799631732204095
undo,3,35,0,0,0,25,"[0, 15, 24, 17, 1, 23, 9, 18, 25]",9,1,[6],34.67326146,16832,882,1,0,10,1.6384125659590758
undo,3,35,0,0,1,6,"[0, 15, 24, 17, 1, 23, 9, 18, 25, 6]",10,0,[],10.65243716,17908,1076,1,0,10,1.9133998558284686
undo,3,35,0,1,1,6,"[0, 15, 24, 17, 1, 23, 9, 18, 25, 6]",10,0,[],10.65243716,19462,1554,1,0,10,1.9133998558284686
undo,4,38,0,0,0,0,[0],1,29,"[1, 2, 3, 4, 5, 6, 7, 8, 9, 10, 11, 12, 13, 14, 15, 16, 17, 18, 19, 20, 21, 22, 23, 24, 25, 26, 27, 28, 29]",300,114,-1,33,506,9,0.0
undo,4,38,0,0,0,11,"[0, 11]",2,23,"[1, 2, 3, 4, 5, 7, 10, 12, 13, 14, 15, 16, 17, 18, 19, 20, 21, 22, 24, 25, 26, 27, 28]",220.093805,3736,3622,2,40,9,1.0
undo,4,38,0,0,0,28,"[0, 11, 28]",3,16,"[1, 4, 5, 7, 10, 12, 13, 14, 15, 16, 17, 19, 20, 21, 24, 26]",193.0752928,4341,605,2,20,9,1.0012220945316377
undo,4,38,0,0,0,16,"[0, 11, 28, 16]",4,13,"[1, 4, 5, 10, 12, 13, 14, 15, 17, 19, 20, 24, 26]",164.0752928,5229,888,2,16,9,1.2422672958602723
undo,4,38,0,0,0,15,"[0, 11, 28, 16, 15]",5,9,"[4, 5, 13, 14, 17, 19, 20, 24, 26]",122.4579887,6103,874,2,14,9,2.4196280466601676
undo,4,38,0,0,0,4,"[0, 11, 28, 16, 15, 4]",6,6,"[13, 17, 19, 20, 24, 26]",96.45798873,7266,1163,2,9,9,2.9030072771852855
undo,4,38,0,0,0,20,"[0, 11, 28, 16, 15, 4, 20]",7,3,"[13, 17, 19]",62.51686323,9066,1800,1,2,9,4.409951139385221
undo,4,38,0,0,0,17,"[0, 11, 28, 16, 15, 4, 20, 17]",8,1,[19],38.74713459,9924,858,1,0,9,4.030739410625113
undo,4,38,0,0,1,19,"[0, 11, 28, 16, 15, 4, 20, 17, 19]",9,0,[],17.36957626,10939,1015,1,0,9,3.511004666623391
undo,4,38,1,0,0,17,"[0, 11, 28, 16, 15, 4, 20, 17]",8,1,[19],38.74713459,13694,2755,1,0,9,4.030739410625113
undo,4,38,1,0,0,20,"[0, 11, 28, 16, 15, 4, 20]",7,3,"[13, 17, 19]",62.51686323,13909,215,1,2,9,4.409951139385221
undo,4,38,1,0,0,4,"[0, 11, 28, 16, 15, 4]",6,6,"[13, 17, 19, 20, 24, 26]",96.45798873,14142,233,2,9,9,2.9030072771852855
undo,4,38,1,0,0,15,"[0, 11, 28, 16, 15]",5,9,"[4, 5, 13, 14, 17, 19, 20, 24, 26]",122.4579887,14375,233,2,14,9,2.4196280466601676
undo,4,38,1,0,0,16,"[0, 11, 28, 16]",4,13,"[1, 4, 5, 10, 12, 13, 14, 15, 17, 19, 20, 24, 26]",164.0752928,14708,333,2,16,9,1.2422672958602723
undo,4,38,1,0,0,28,"[0, 11, 28]",3,16,"[1, 4, 5, 7, 10, 12, 13, 14, 15, 16, 17, 19, 20, 21, 24, 26]",193.0752928,15040,332,2,20,9,1.0012220945316377
undo,4,38,1,0,0,11,"[0, 11]",2,23,"[1, 2, 3, 4, 5, 7, 10, 12, 13, 14, 15, 16, 17, 18, 19, 20, 21, 22, 24, 25, 26, 27, 28]",220.093805,15472,432,2,40,9,1.0
undo,4,38,1,0,0,0,[0],1,29,"[1, 2, 3, 4, 5, 6, 7, 8, 9, 10, 11, 12, 13, 14, 15, 16, 17, 18, 19, 20, 21, 22, 23, 24, 25, 26, 27, 28, 29]",300,15904,432,33,506,9,0.0
undo,4,38,0,0,0,19,"[0, 19]",2,23,"[3, 4, 5, 6, 7, 8, 9, 11, 13, 14, 15, 16, 17, 18, 20, 22, 23, 24, 25, 26, 27, 28, 29]",219.5015528,17959,2055,6,61,9,1.0
undo,4,38,0,0,0,17,"[0, 19, 17]",3,21,"[3, 4, 5, 6, 7, 9, 11, 13, 14, 15, 16, 18, 20, 22, 23, 24, 25, 26, 27, 28, 29]",198.1239945,18508,549,6,53,9,1.571793785769489
undo,4,38,0,0,0,20,"[0, 19, 17, 20]",4,17,"[3, 4, 5, 6, 7, 11, 13, 14, 15, 16, 18, 22, 24, 25, 26, 27, 28]",174.3542658,19182,674,6,44,9,2.333182710277297
undo,4,38,0,0,0,4,"[0, 19, 17, 20, 4]",5,10,"[5, 11, 13, 14, 15, 16, 24, 26, 27, 28]",140.4131403,25820,6638,5,22,9,2.276099229646013
undo,4,38,0,0,0,15,"[0, 19, 17, 20, 4, 15]",6,8,"[5, 11, 13, 14, 16, 24, 26, 28]",114.4131403,27652,1832,5,6,9,2.5292671156176403
undo,4,38,0,0,0,13,"[0, 19, 17, 20, 4, 15, 13]",7,2,"[24, 26]",62.93498963,28612,960,1,1,9,2.42535234781802
undo,4,38,0,0,0,26,"[0, 19, 17, 20, 4, 15, 13, 26]",8,1,[24],31.88664024,30431,1819,1,0,9,2.129628359956924
undo,4,38,0,0,1,24,"[0, 19, 17, 20, 4, 15, 13, 26, 24]",9,0,[],1.08079664,31792,1361,1,0,9,1.9259474377664159
undo,4,38,0,1,1,24,"[0, 19, 17, 20, 4, 15, 13, 26, 24]",9,0,[],1.08079664,32908,1116,1,0,9,1.9259474377664159
undo,5,39,0,0,0,0,[0],1,28,"[1, 2, 3, 4, 5, 6, 7, 9, 10, 11, 12, 13, 14, 15, 16, 17, 18, 19, 20, 21, 22, 23, 24, 25, 26, 27, 28, 29]",300,114,-1,1,30,10,0.0
undo,5,39,0,0,0,29,"[0, 29]",2,26,"[1, 2, 3, 4, 5, 6, 7, 9, 10, 12, 13, 14, 15, 16, 17, 18, 19, 20, 21, 22, 23, 24, 25, 26, 27, 28]",243.0614366,4112,3998,8,104,9,1.0
undo,5,39,0,0,0,12,"[0, 29, 12]",3,18,"[1, 2, 4, 5, 7, 9, 10, 13, 14, 15, 16, 18, 19, 22, 23, 24, 26, 28]",182.5221931,5081,969,5,54,9,1.0026200331524904
undo,5,39,0,0,0,10,"[0, 29, 12, 10]",4,16,"[1, 2, 4, 5, 7, 9, 13, 14, 15, 16, 18, 19, 22, 23, 24, 26]",147.0116313,5924,843,5,34,9,1.2874817019928908
undo,5,39,0,0,0,7,"[0, 29, 12, 10, 7]",5,10,"[1, 2, 5, 13, 16, 18, 19, 22, 24, 26]",113.5900814,6558,634,4,12,9,1.2250826263866774
undo,5,39,0,0,0,26,"[0, 29, 12, 10, 7, 26]",6,5,"[1, 16, 18, 19, 22]",94.90853971,7170,612,3,4,9,1.2697275353190085
undo,5,39,0,0,0,22,"[0, 29, 12, 10, 7, 26, 22]",7,2,"[16, 19]",77.18849457,7743,573,2,0,9,1.438961743955176
undo,5,39,0,0,0,16,"[0, 29, 12, 10, 7, 26, 22, 16]",8,1,[19],42.18849457,8833,1090,1,0,9,1.3580882130477205
undo,5,39,0,0,1,19,"[0, 29, 12, 10, 7, 26, 22, 16, 19]",9,0,[],24.72424537,9297,464,1,0,9,1.3646589157842668
undo,5,39,1,0,0,16,"[0, 29, 12, 10, 7, 26, 22, 16]",8,1,[19],42.18849457,15190,5893,1,0,9,1.3580882130477205
undo,5,39,1,0,0,22,"[0, 29, 12, 10, 7, 26, 22]",7,2,"[16, 19]",77.18849457,15822,632,2,0,9,1.438961743955176
undo,5,39,1,0,0,26,"[0, 29, 12, 10, 7, 26]",6,5,"[1, 16, 18, 19, 22]",94.90853971,16171,349,3,4,9,1.2697275353190085
undo,5,39,1,0,0,7,"[0, 29, 12, 10, 7]",5,10,"[1, 2, 5, 13, 16, 18, 19, 22, 24, 26]",113.5900814,16553,382,4,12,9,1.2250826263866774
undo,5,39,1,0,0,10,"[0, 29, 12, 10]",4,16,"[1, 2, 4, 5, 7, 9, 13, 14, 15, 16, 18, 19, 22, 23, 24, 26]",147.0116313,16936,383,5,34,9,1.2874817019928908
undo,5,39,1,0,0,12,"[0, 29, 12]",3,18,"[1, 2, 4, 5, 7, 9, 10, 13, 14, 15, 16, 18, 19, 22, 23, 24, 26, 28]",182.5221931,17268,332,5,54,9,1.0026200331524904
undo,5,39,1,0,0,29,"[0, 29]",2,26,"[1, 2, 3, 4, 5, 6, 7, 9, 10, 12, 13, 14, 15, 16, 17, 18, 19, 20, 21, 22, 23, 24, 25, 26, 27, 28]",243.0614366,17816,548,8,104,9,1.0
undo,5,39,0,0,0,10,"[0, 29, 10]",3,19,"[1, 2, 4, 5, 7, 9, 12, 13, 14, 15, 16, 17, 18, 19, 22, 23, 24, 26, 28]",178.4239862,20079,2263,3,48,9,1.0231293692376968
undo,5,39,0,0,0,7,"[0, 29, 10, 7]",4,14,"[1, 2, 4, 5, 9, 12, 13, 15, 16, 18, 19, 22, 24, 26]",145.0024362,21797,1718,2,20,9,1.0186411966151707
undo,5,39,0,0,0,26,"[0, 29, 10, 7, 26]",5,9,"[1, 2, 5, 12, 13, 16, 18, 19, 22]",126.3208945,22678,881,1,9,9,1.0752526811750318
undo,5,39,0,0,0,22,"[0, 29, 10, 7, 26, 22]",6,6,"[1, 5, 12, 16, 18, 19]",108.6008494,23382,704,1,3,9,1.2360944063790367
undo,5,39,0,0,0,16,"[0, 29, 10, 7, 26, 22, 16]",7,2,"[18, 19]",73.6008494,24397,1015,1,1,9,1.1926155792040818
undo,5,39,0,0,0,19,"[0, 29, 10, 7, 26, 22, 16, 19]",8,1,[18],56.1366002,25054,657,1,0,9,1.2089345217410772
undo,5,39,0,0,1,18,"[0, 29, 10, 7, 26, 22, 16, 19, 18]",9,0,[],12.96253391,25827,773,1,0,9,1.2243548998729528
undo,5,39,0,1,1,18,"[0, 29, 10, 7, 26, 22, 16, 19, 18]",9,0,[],12.96253391,28089,2262,1,0,9,1.2243548998729528
undo,6,15,0,0,0,0,[0],1,25,"[1, 2, 3, 4, 7, 8, 9, 10, 11, 12, 13, 14, 15, 16, 18, 20, 21, 22, 23, 24, 25, 26, 27, 28, 29]",300,115,-1,4,65,9,0.0
undo,6,15,0,0,0,7,"[0, 7]",2,23,"[1, 3, 4, 8, 9, 10, 11, 12, 13, 14, 15, 16, 18, 20, 21, 22, 23, 24, 25, 26, 27, 28, 29]",215.1884442,6526,6411,30,107,8,1.0
undo,6,15,0,0,0,11,"[0, 7, 11]",3,18,"[3, 4, 8, 9, 10, 12, 13, 14, 15, 16, 18, 20, 21, 22, 23, 25, 27, 29]",173.7035072,7928,1402,12,34,8,1.0171318876095128
undo,6,15,0,0,0,3,"[0, 7, 11, 3]",4,13,"[4, 10, 12, 13, 14, 15, 16, 18, 20, 21, 22, 25, 27]",162.3017529,9510,1582,7,21,8,1.0401878806820521
undo,6,15,0,0,0,16,"[0, 7, 11, 3, 16]",5,9,"[4, 10, 12, 13, 14, 15, 18, 21, 22]",137.2218805,10403,893,5,6,8,1.4258499651326737
undo,6,15,0,0,0,22,"[0, 7, 11, 3, 16, 22]",6,4,"[4, 13, 14, 15]",78.36612462,12004,1601,2,2,8,1.284645195326425
undo,6,15,0,0,0,15,"[0, 7, 11, 3, 16, 22, 15]",7,1,[13],52.75362767,13450,1446,1,0,8,1.2590218300860974
undo,6,15,0,0,1,13,"[0, 7, 11, 3, 16, 22, 15, 13]",8,0,[],37.48929015,14219,769,1,0,8,1.3103278820622872
undo,6,15,1,0,0,15,"[0, 7, 11, 3, 16, 22, 15]",7,1,[13],52.75362767,20659,6440,1,0,8,1.2590218300860974
undo,6,15,1,0,0,22,"[0, 7, 11, 3, 16, 22]",6,4,"[4, 13, 14, 15]",78.36612462,21058,399,2,2,8,1.284645195326425
undo,6,15,1,0,0,16,"[0, 7, 11, 3, 16]",5,9,"[4, 10, 12, 13, 14, 15, 18, 21, 22]",137.2218805,21324,266,5,6,8,1.4258499651326737
undo,6,15,1,0,0,3,"[0, 7, 11, 3]",4,13,"[4, 10, 12, 13, 14, 15, 16, 18, 20, 21, 22, 25, 27]",162.3017529,21574,250,7,21,8,1.0401878806820521
undo,6,15,1,0,0,11,"[0, 7, 11]",3,18,"[3, 4, 8, 9, 10, 12, 13, 14, 15, 16, 18, 20, 21, 22, 23, 25, 27, 29]",173.7035072,21890,316,12,34,8,1.0171318876095128
undo,6,15,1,0,0,7,"[0, 7]",2,23,"[1, 3, 4, 8, 9, 10, 11, 12, 13, 14, 15, 16, 18, 20, 21, 22, 23, 24, 25, 26, 27, 28, 29]",215.1884442,22222,332,30,107,8,1.0
undo,6,15,1,0,0,0,[0],1,25,"[1, 2, 3, 4, 7, 8, 9, 10, 11, 12, 13, 14, 15, 16, 18, 20, 21, 22, 23, 24, 25, 26, 27, 28, 29]",300,24483,2261,4,65,9,0.0
undo,6,15,0,0,0,11,"[0, 11]",2,19,"[3, 4, 7, 8, 9, 10, 12, 13, 14, 15, 16, 18, 20, 21, 22, 23, 25, 27, 29]",175.8307607,26421,1938,13,59,7,1.0
undo,6,15,0,0,0,3,"[0, 11, 3]",3,15,"[4, 7, 10, 12, 13, 14, 15, 16, 18, 20, 21, 22, 25, 27, 29]",164.4290064,26901,480,8,32,7,1.0241183710373032
undo,6,15,0,0,0,22,"[0, 11, 3, 22]",4,9,"[4, 7, 10, 13, 14, 15, 16, 18, 25]",114.6997394,28379,1478,2,8,7,1.0740465060423943
undo,6,15,0,0,0,13,"[0, 11, 3, 22, 13]",5,4,"[14, 15, 18, 25]",86.53948368,29045,666,1,3,7,1.0654927808977082
undo,6,15,0,0,0,15,"[0, 11, 3, 22, 13, 15]",6,1,[14],71.27514616,29578,533,1,0,7,1.1647070141173137
undo,6,15,0,0,1,14,"[0, 11, 3, 22, 13, 15, 14]",7,0,[],3.532987945,30947,1369,1,0,7,1.5321343762663628
undo,6,15,1,0,0,15,"[0, 11, 3, 22, 13, 15]",6,1,[14],71.27514616,35370,4423,1,0,7,1.1647070141173137
undo,6,15,1,0,0,13,"[0, 11, 3, 22, 13]",5,4,"[14, 15, 18, 25]",86.53948368,35968,598,1,3,7,1.0654927808977082
undo,6,15,1,0,0,22,"[0, 11, 3, 22]",4,9,"[4, 7, 10, 13, 14, 15, 16, 18, 25]",114.6997394,36234,266,2,8,7,1.0740465060423943
undo,6,15,1,0,0,3,"[0, 11, 3]",3,15,"[4, 7, 10, 12, 13, 14, 15, 16, 18, 20, 21, 22, 25, 27, 29]",164.4290064,36433,199,8,32,7,1.0241183710373032
undo,6,15,1,0,0,11,"[0, 11]",2,19,"[3, 4, 7, 8, 9, 10, 12, 13, 14, 15, 16, 18, 20, 21, 22, 23, 25, 27, 29]",175.8307607,36666,233,13,59,7,1.0
undo,6,15,1,0,0,0,[0],1,25,"[1, 2, 3, 4, 7, 8, 9, 10, 11, 12, 13, 14, 15, 16, 18, 20, 21, 22, 23, 24, 25, 26, 27, 28, 29]",300,37065,399,4,65,9,0.0
undo,6,15,0,0,0,7,"[0, 7]",2,23,"[1, 3, 4, 8, 9, 10, 11, 12, 13, 14, 15, 16, 18, 20, 21, 22, 23, 24, 25, 26, 27, 28, 29]",215.1884442,39947,2882,30,107,8,1.0
undo,6,15,0,0,0,11,"[0, 7, 11]",3,18,"[3, 4, 8, 9, 10, 12, 13, 14, 15, 16, 18, 20, 21, 22, 23, 25, 27, 29]",173.7035072,40959,1012,12,34,8,1.0171318876095128
undo,6,15,0,0,0,16,"[0, 7, 11, 16]",4,10,"[3, 4, 10, 12, 13, 14, 15, 18, 21, 22]",147.6842835,41547,588,5,9,8,1.3342048656649041
undo,6,15,0,0,0,3,"[0, 7, 11, 16, 3]",5,7,"[4, 12, 13, 14, 15, 21, 22]",122.6044111,42406,859,5,3,8,1.3400660178791453
undo,6,15,0,0,0,22,"[0, 7, 11, 16, 3, 22]",6,3,"[4, 13, 15]",72.87514405,43381,975,2,1,8,1.316472287619004
undo,6,15,0,0,0,13,"[0, 7, 11, 16, 3, 22, 13]",7,1,[15],44.71488837,44000,619,1,0,8,1.2742611523747418
undo,6,15,0,0,1,15,"[0, 7, 11, 16, 3, 22, 13, 15]",8,0,[],29.45055085,45517,1517,1,0,8,1.3776851785027706
undo,6,15,0,1,1,15,"[0, 7, 11, 16, 3, 22, 13, 15]",8,0,[],29.45055085,46821,1304,1,0,8,1.3776851785027706
undo,7,42,0,0,0,0,[0],1,29,"[1, 2, 3, 4, 5, 6, 7, 8, 9, 10, 11, 12, 13, 14, 15, 16, 17, 18, 19, 20, 21, 22, 23, 24, 25, 26, 27, 28, 29]",300,112,-1,16,302,9,0.0
undo,7,42,0,0,0,5,"[0, 5]",2,28,"[1, 2, 3, 4, 6, 7, 8, 9, 10, 11, 12, 13, 14, 15, 16, 17, 18, 19, 20, 21, 22, 23, 24, 25, 26, 27, 28, 29]",191.2939744,2265,2153,1,22,9,1.0
undo,7,42,0,0,0,4,"[0, 5, 4]",3,23,"[1, 2, 3, 6, 7, 8, 9, 10, 11, 13, 15, 17, 18, 19, 20, 21, 22, 23, 24, 25, 26, 27, 29]",171.4445412,3179,914,1,14,9,1.420957801478707
undo,7,42,0,0,0,22,"[0, 5, 4, 22]",4,20,"[1, 2, 3, 6, 7, 8, 9, 11, 15, 17, 18, 19, 20, 21, 23, 24, 25, 26, 27, 29]",160.2642013,3991,812,1,11,9,1.5771494659680896
undo,7,42,0,0,0,8,"[0, 5, 4, 22, 8]",5,14,"[1, 2, 3, 6, 7, 11, 15, 18, 19, 24, 25, 26, 27, 29]",138.1282577,4588,597,1,10,9,1.5055393955524201
undo,7,42,0,0,0,1,"[0, 5, 4, 22, 8, 1]",6,5,"[2, 7, 19, 26, 27]",89.03650682,5390,802,1,7,9,1.3547259083637835
undo,7,42,0,0,0,27,"[0, 5, 4, 22, 8, 1, 27]",7,1,[26],30.82138851,6715,1325,1,0,8,1.262358902428909
undo,7,42,0,0,1,26,"[0, 5, 4, 22, 8, 1, 27, 26]",8,0,[],12.79363213,7905,1190,1,0,8,1.4505372114646464
undo,7,42,0,1,1,26,"[0, 5, 4, 22, 8, 1, 27, 26]",8,0,[],12.79363213,13293,5388,1,0,8,1.4505372114646464
undo,8,5,0,0,0,0,[0],1,29,"[1, 2, 3, 4, 5, 6, 7, 8, 9, 10, 11, 12, 13, 14, 15, 16, 17, 18, 19, 20, 21, 22, 23, 24, 25, 26, 27, 28, 29]",300,133,-1,5,139,9,0.0
undo,8,5,0,0,0,12,"[0, 12]",2,22,"[2, 4, 5, 6, 8, 9, 10, 13, 14, 15, 16, 17, 18, 19, 21, 22, 23, 24, 25, 26, 27, 28]",228.3062067,4934,4801,1,27,9,1.0
undo,8,5,0,0,0,25,"[0, 12, 25]",3,21,"[2, 4, 5, 6, 8, 9, 10, 13, 14, 15, 16, 17, 18, 19, 21, 22, 23, 24, 26, 27, 28]",200.5213187,5584,650,1,20,9,1.584023303445617
undo,8,5,0,0,0,23,"[0, 12, 25, 23]",4,19,"[2, 4, 5, 6, 8, 9, 10, 13, 14, 15, 16, 17, 18, 19, 21, 22, 24, 26, 27]",182.0822298,6288,704,1,14,9,2.3508446989254357
undo,8,5,0,0,0,24,"[0, 12, 25, 23, 24]",5,15,"[2, 4, 5, 6, 8, 9, 13, 14, 15, 17, 18, 19, 22, 26, 27]",158.995437,7133,845,1,12,9,1.9469752046288753
undo,8,5,0,0,0,17,"[0, 12, 25, 23, 24, 17]",6,7,"[4, 5, 6, 8, 15, 18, 19]",124.0097257,7906,773,1,8,9,1.6482276497563642
undo,8,5,0,0,0,5,"[0, 12, 25, 23, 24, 17, 5]",7,4,"[4, 6, 15, 18]",80.96323916,8687,781,1,3,9,1.4654649104389412
undo,8,5,0,0,0,4,"[0, 12, 25, 23, 24, 17, 5, 4]",8,1,[6],15.16050365,9948,1261,1,0,9,1.6255060355828674
undo,8,5,0,0,1,6,"[0, 12, 25, 23, 24, 17, 5, 4, 6]",9,0,[],3.118909076,10676,728,1,0,9,1.7777310833772453
undo,8,5,0,1,1,6,"[0, 12, 25, 23, 24, 17, 5, 4, 6]",9,0,[],3.118909076,11967,1291,1,0,9,1.7777310833772453
undo,9,8,0,0,0,0,[0],1,29,"[1, 2, 3, 4, 5, 6, 7, 8, 9, 10, 11, 12, 13, 14, 15, 16, 17, 18, 19, 20, 21, 22, 23, 24, 25, 26, 27, 28, 29]",300,115,-1,10,149,9,0.0
undo,9,8,0,0,0,5,"[0, 5]",2,28,"[1, 2, 3, 4, 6, 7, 8, 9, 10, 11, 12, 13, 14, 15, 16, 17, 18, 19, 20, 21, 22, 23, 24, 25, 26, 27, 28, 29]",254.5137383,3727,3612,10,100,9,1.0
undo,9,8,0,0,0,14,"[0, 5, 14]",3,20,"[1, 2, 3, 4, 6, 7, 11, 15, 16, 17, 18, 19, 20, 21, 22, 23, 24, 25, 28, 29]",214.5512559,4782,1055,4,36,9,1.0001019035932595
undo,9,8,0,0,0,17,"[0, 5, 14, 17]",4,15,"[1, 4, 6, 7, 11, 15, 16, 18, 19, 20, 22, 23, 24, 25, 28]",177.5377449,5407,625,4,16,9,1.121197267659591
undo,9,8,0,0,0,11,"[0, 5, 14, 17, 11]",5,11,"[1, 4, 15, 16, 18, 19, 22, 23, 24, 25, 28]",152.3583883,6381,974,4,8,9,1.1277254166016362
undo,9,8,0,0,0,24,"[0, 5, 14, 17, 11, 24]",6,3,"[15, 16, 28]",115.1428001,7357,976,2,2,9,1.1227411011978805
undo,9,8,0,0,0,15,"[0, 5, 14, 17, 11, 24, 15]",7,2,"[16, 28]",98.37974552,7932,575,2,0,9,1.1956385406066814
undo,9,8,0,0,0,16,"[0, 5, 14, 17, 11, 24, 15, 16]",8,1,[28],47.30137436,8672,740,1,0,9,1.36482239111247
undo,9,8,0,0,1,28,"[0, 5, 14, 17, 11, 24, 15, 16, 28]",9,0,[],24.94069458,10314,1642,1,0,9,1.632953105226947
undo,9,8,0,1,1,28,"[0, 5, 14, 17, 11, 24, 15, 16, 28]",9,0,[],24.94069458,11568,1254,1,0,9,1.632953105226947
undo,10,6,0,0,0,0,[0],1,29,"[1, 2, 3, 4, 5, 6, 7, 8, 9, 10, 11, 12, 13, 14, 15, 16, 17, 18, 19, 20, 21, 22, 23, 24, 25, 26, 27, 28, 29]",300,114,-1,180,4304,10,0.0
undo,10,6,0,0,0,16,"[0, 16]",2,28,"[1, 2, 3, 4, 5, 6, 7, 8, 9, 10, 11, 12, 13, 14, 15, 17, 18, 19, 20, 21, 22, 23, 24, 25, 26, 27, 28, 29]",227.8196703,3664,3550,6,115,10,1.0
undo,10,6,0,0,0,18,"[0, 16, 18]",3,25,"[1, 2, 3, 4, 5, 6, 7, 8, 9, 10, 11, 12, 13, 14, 15, 17, 19, 20, 21, 22, 23, 24, 26, 27, 29]",204.4744352,5287,1623,4,62,10,1.568524105693829
undo,10,6,0,0,0,17,"[0, 16, 18, 17]",4,23,"[1, 2, 3, 4, 5, 6, 7, 8, 9, 10, 11, 13, 14, 15, 19, 20, 21, 22, 23, 24, 26, 27, 29]",190.5460469,5953,666,2,34,10,1.5508620919057308
undo,10,6,0,0,0,24,"[0, 16, 18, 17, 24]",5,18,"[1, 2, 3, 4, 5, 6, 7, 8, 10, 11, 13, 14, 21, 22, 23, 26, 27, 29]",161.2714846,7323,1370,1,14,10,1.4258783951179232
undo,10,6,0,0,0,10,"[0, 16, 18, 17, 24, 10]",6,16,"[1, 2, 3, 4, 5, 6, 7, 8, 11, 13, 14, 22, 23, 26, 27, 29]",147.8550767,8121,798,1,13,10,1.803850475301452
undo,10,6,0,0,0,3,"[0, 16, 18, 17, 24, 10, 3]",7,6,"[1, 2, 7, 13, 26, 29]",96.61056483,9118,997,1,5,10,6.066598237925585
undo,10,6,0,0,0,7,"[0, 16, 18, 17, 24, 10, 3, 7]",8,2,"[2, 26]",60.47194283,10178,1060,1,1,10,4.98800339529564
undo,10,6,0,0,0,26,"[0, 16, 18, 17, 24, 10, 3, 7, 26]",9,1,[2],36.38875367,11067,889,1,0,10,5.299856207978186
undo,10,6,0,0,1,2,"[0, 16, 18, 17, 24, 10, 3, 7, 26, 2]",10,0,[],6.555885892,12005,938,1,0,10,3.699397901746503
undo,10,6,0,1,1,2,"[0, 16, 18, 17, 24, 10, 3, 7, 26, 2]",10,0,[],6.555885892,14592,2587,1,0,10,3.699397901746503
undo,11,43,0,0,0,0,[0],1,23,"[1, 2, 3, 4, 5, 6, 7, 9, 10, 11, 12, 14, 15, 16, 17, 19, 20, 21, 22, 23, 25, 27, 29]",300,115,-1,16,556,12,0.0
undo,11,43,0,0,0,29,"[0, 29]",2,22,"[1, 2, 3, 4, 5, 6, 7, 9, 10, 11, 12, 14, 15, 16, 17, 19, 20, 21, 22, 23, 25, 27]",277.909278,3627,3512,16,520,12,1.0
undo,11,43,0,0,0,20,"[0, 29, 20]",3,20,"[1, 2, 3, 4, 6, 7, 9, 10, 11, 12, 14, 15, 16, 17, 19, 21, 22, 23, 25, 27]",254.4785289,4436,809,15,422,12,1.082311746871282
undo,11,43,0,0,0,16,"[0, 29, 20, 16]",4,19,"[1, 2, 3, 4, 6, 7, 9, 10, 11, 12, 14, 15, 17, 19, 21, 22, 23, 25, 27]",231.8511119,5305,869,15,389,12,1.215201926898219
undo,11,43,0,0,0,25,"[0, 29, 20, 16, 25]",5,14,"[1, 2, 3, 4, 6, 7, 9, 11, 12, 14, 15, 19, 22, 23]",175.7708124,6162,857,53,282,11,1.566384303308987
undo,11,43,0,0,0,15,"[0, 29, 20, 16, 25, 15]",6,13,"[1, 2, 3, 4, 6, 7, 9, 11, 12, 14, 19, 22, 23]",153.0992443,8151,1989,27,108,11,1.776736412604812
undo,11,43,0,0,0,12,"[0, 29, 20, 16, 25, 15, 12]",7,10,"[1, 3, 6, 7, 9, 11, 14, 19, 22, 23]",133.7860364,8746,595,21,41,11,1.6813323012225032
undo,11,43,0,0,0,3,"[0, 29, 20, 16, 25, 15, 12, 3]",8,9,"[1, 6, 7, 9, 11, 14, 19, 22, 23]",120.7860364,9404,658,20,12,11,1.608740348096123
undo,11,43,0,0,0,19,"[0, 29, 20, 16, 25, 15, 12, 3, 19]",9,5,"[1, 6, 7, 11, 22]",79.67642677,10209,805,8,2,11,1.5859237827218742
undo,11,43,0,0,0,22,"[0, 29, 20, 16, 25, 15, 12, 3, 19, 22]",10,4,"[1, 6, 7, 11]",59.06089865,11316,1107,4,0,11,2.020138514441197
undo,11,43,0,0,1,1,"[0, 29, 20, 16, 25, 15, 12, 3, 19, 22, 1]",11,0,[],27.67618899,13892,2576,1,0,11,1.8917763047598302
undo,11,43,0,1,1,1,"[0, 29, 20, 16, 25, 15, 12, 3, 19, 22, 1]",11,0,[],27.67618899,15174,1282,1,0,11,1.8917763047598302
undo,12,14,0,0,0,0,[0],1,29,"[1, 2, 3, 4, 5, 6, 7, 8, 9, 10, 11, 12, 13, 14, 15, 16, 17, 18, 19, 20, 21, 22, 23, 24, 25, 26, 27, 28, 29]",300,115,-1,8,157,10,0.0
undo,12,14,0,0,0,18,"[0, 18]",2,17,"[1, 2, 3, 4, 7, 8, 9, 13, 15, 17, 19, 20, 22, 23, 25, 26, 28]",179.8958785,6206,6091,18,136,9,1.0
undo,12,14,0,0,0,8,"[0, 18, 8]",3,13,"[1, 2, 4, 7, 13, 15, 17, 19, 20, 23, 25, 26, 28]",166.294408,6669,463,18,99,9,1.0203858410107731
undo,12,14,0,0,0,1,"[0, 18, 8, 1]",4,10,"[2, 4, 7, 15, 17, 19, 23, 25, 26, 28]",142.6935606,7250,581,11,42,9,1.0173392374431458
undo,12,14,0,0,0,19,"[0, 18, 8, 1, 19]",5,9,"[2, 4, 7, 15, 17, 23, 25, 26, 28]",127.4620143,7864,614,11,22,9,1.1668364376922102
undo,12,14,0,0,0,26,"[0, 18, 8, 1, 19, 26]",6,4,"[4, 7, 23, 25]",74.23608081,8722,858,2,4,9,1.1379310743287543
undo,12,14,0,0,0,23,"[0, 18, 8, 1, 19, 26, 23]",7,3,"[4, 7, 25]",63.41942699,9394,672,2,1,9,1.25860317400474
undo,12,14,0,0,0,25,"[0, 18, 8, 1, 19, 26, 23, 25]",8,1,[7],34.00854465,11339,1945,1,0,9,1.6250439771619034
undo,12,14,0,0,1,7,"[0, 18, 8, 1, 19, 26, 23, 25, 7]",9,0,[],14.31082904,11964,625,1,0,9,1.6358514342320594
undo,12,14,0,1,1,7,"[0, 18, 8, 1, 19, 26, 23, 25, 7]",9,0,[],14.31082904,14625,2661,1,0,9,1.6358514342320594
undo,13,16,0,0,0,0,[0],1,29,"[1, 2, 3, 4, 5, 6, 7, 8, 9, 10, 11, 12, 13, 14, 15, 16, 17, 18, 19, 20, 21, 22, 23, 24, 25, 26, 27, 28, 29]",300,115,-1,13,161,9,0.0
undo,13,16,0,0,0,17,"[0, 17]",2,27,"[1, 2, 3, 4, 5, 7, 8, 9, 10, 11, 12, 13, 14, 15, 16, 18, 19, 20, 21, 22, 23, 24, 25, 26, 27, 28, 29]",241.3058776,5925,5810,2,58,9,1.0
undo,13,16,0,0,0,16,"[0, 17, 16]",3,26,"[1, 2, 3, 4, 5, 7, 8, 9, 10, 11, 12, 13, 14, 15, 18, 19, 20, 21, 22, 23, 24, 25, 26, 27, 28, 29]",212.9862731,6730,805,2,52,9,1.0529535521792848
undo,13,16,1,0,0,17,"[0, 17]",2,27,"[1, 2, 3, 4, 5, 7, 8, 9, 10, 11, 12, 13, 14, 15, 16, 18, 19, 20, 21, 22, 23, 24, 25, 26, 27, 28, 29]",241.3058776,8293,1563,2,58,9,1.0
undo,13,16,1,0,0,0,[0],1,29,"[1, 2, 3, 4, 5, 6, 7, 8, 9, 10, 11, 12, 13, 14, 15, 16, 17, 18, 19, 20, 21, 22, 23, 24, 25, 26, 27, 28, 29]",300,8726,433,13,161,9,0.0
undo,13,16,0,0,0,28,"[0, 28]",2,27,"[1, 2, 3, 4, 5, 7, 8, 9, 10, 11, 12, 13, 14, 15, 16, 17, 18, 19, 20, 21, 22, 23, 24, 25, 26, 27, 29]",284.3475242,10879,2153,11,92,9,1.0
undo,13,16,0,0,0,17,"[0, 28, 17]",3,26,"[1, 2, 3, 4, 5, 7, 8, 9, 10, 11, 12, 13, 14, 15, 16, 18, 19, 20, 21, 22, 23, 24, 25, 26, 27, 29]",219.1555001,11744,865,10,46,9,1.3773866384707543
undo,13,16,0,0,0,16,"[0, 28, 17, 16]",4,25,"[1, 2, 3, 4, 5, 7, 8, 9, 10, 11, 12, 13, 14, 15, 18, 19, 20, 21, 22, 23, 24, 25, 26, 27, 29]",190.8358956,12395,651,10,34,9,1.3209953830681203
undo,13,16,0,0,0,8,"[0, 28, 17, 16, 8]",5,12,"[3, 4, 5, 9, 12, 13, 15, 19, 20, 21, 25, 29]",142.4623491,13479,1084,6,19,9,1.2700932705506198
undo,13,16,0,0,0,20,"[0, 28, 17, 16, 8, 20]",6,6,"[4, 5, 9, 12, 15, 25]",84.6869218,14275,796,4,4,9,1.1899382910703262
undo,13,16,0,0,0,25,"[0, 28, 17, 16, 8, 20, 25]",7,3,"[5, 9, 15]",72.03781116,14747,472,2,2,9,1.2372268181049477
undo,13,16,0,0,0,9,"[0, 28, 17, 16, 8, 20, 25, 9]",8,2,"[5, 15]",59.23156268,15367,620,2,0,9,1.221922950237529
undo,13,16,0,0,1,15,"[0, 28, 17, 16, 8, 20, 25, 9, 15]",9,0,[],20.334262,16652,1285,1,0,9,1.318239760375411
undo,13,16,0,1,1,15,"[0, 28, 17, 16, 8, 20, 25, 9, 15]",9,0,[],20.334262,22305,5653,1,0,9,1.318239760375411
undo,14,2,0,0,0,0,[0],1,23,"[1, 2, 4, 5, 6, 7, 8, 9, 12, 13, 15, 16, 17, 18, 19, 20, 22, 23, 25, 26, 27, 28, 29]",300,115,-1,70,620,10,0.0
undo,14,2,0,0,0,19,"[0, 19]",2,22,"[1, 2, 4, 5, 6, 7, 8, 9, 12, 13, 15, 16, 17, 18, 20, 22, 23, 25, 26, 27, 28, 29]",210.306076,2291,2176,67,431,10,1.0
undo,14,2,0,0,0,12,"[0, 19, 12]",3,17,"[1, 4, 5, 6, 7, 13, 15, 16, 17, 18, 20, 22, 25, 26, 27, 28, 29]",174.2921898,4078,1787,66,298,10,1.1107635036313153
undo,14,2,0,0,0,5,"[0, 19, 12, 5]",4,11,"[1, 6, 7, 13, 15, 16, 18, 22, 25, 26, 29]",144.7625437,4774,696,38,136,10,1.0968174771581647
undo,14,2,0,0,0,22,"[0, 19, 12, 5, 22]",5,8,"[1, 6, 7, 13, 15, 18, 26, 29]",131.9562952,5316,542,20,63,10,1.0889910507461968
undo,14,2,0,0,0,13,"[0, 19, 12, 5, 22, 13]",6,7,"[1, 6, 7, 15, 18, 26, 29]",117.0902265,5882,566,19,20,10,1.236526217328057
undo,14,2,0,0,0,18,"[0, 19, 12, 5, 22, 13, 18]",7,4,"[7, 15, 26, 29]",81.91921567,6756,874,10,3,10,1.2128708213409936
undo,14,2,0,0,0,7,"[0, 19, 12, 5, 22, 13, 18, 7]",8,3,"[15, 26, 29]",71.62358553,7282,526,5,0,10,1.2019811287894737
undo,14,2,0,0,0,26,"[0, 19, 12, 5, 22, 13, 18, 7, 26]",9,2,"[15, 29]",48.82007703,8102,820,2,0,10,1.1883593342191134
undo,14,2,0,0,1,15,"[0, 19, 12, 5, 22, 13, 18, 7, 26, 15]",10,0,[],24.61264015,8845,743,1,0,10,1.4619750353663825
undo,14,2,0,1,1,15,"[0, 19, 12, 5, 22, 13, 18, 7, 26, 15]",10,0,[],24.61264015,15174,6329,1,0,10,1.4619750353663825
undo,15,21,0,0,0,0,[0],1,29,"[1, 2, 3, 4, 5, 6, 7, 8, 9, 10, 11, 12, 13, 14, 15, 16, 17, 18, 19, 20, 21, 22, 23, 24, 25, 26, 27, 28, 29]",300,115,-1,84,830,9,0.0
undo,15,21,0,0,0,18,"[0, 18]",2,28,"[1, 2, 3, 4, 5, 6, 7, 8, 9, 10, 11, 12, 13, 14, 15, 16, 17, 19, 20, 21, 22, 23, 24, 25, 26, 27, 28, 29]",240.923778,8332,8217,44,305,9,1.0
undo,15,21,0,0,0,25,"[0, 18, 25]",3,23,"[1, 2, 3, 4, 6, 7, 8, 9, 10, 11, 12, 14, 15, 16, 17, 20, 21, 22, 23, 24, 26, 27, 29]",199.162552,8945,613,16,84,9,1.6857830307656476
undo,15,21,0,0,0,23,"[0, 18, 25, 23]",4,13,"[4, 6, 8, 9, 14, 15, 16, 17, 20, 21, 22, 24, 29]",155.838194,11542,2597,9,35,9,1.4558828002680828
undo,15,21,0,0,0,21,"[0, 18, 25, 23, 21]",5,9,"[4, 8, 9, 14, 15, 16, 17, 22, 29]",126.2240082,12330,788,3,11,9,1.9332325352644872
undo,15,21,0,0,0,14,"[0, 18, 25, 23, 21, 14]",6,5,"[4, 8, 15, 16, 29]",100.6115112,13352,1022,3,6,9,1.7407370150704153
undo,15,21,0,0,0,4,"[0, 18, 25, 23, 21, 14, 4]",7,3,"[8, 15, 16]",86.46937561,13986,634,3,1,9,1.6694311790658276
undo,15,21,0,0,0,16,"[0, 18, 25, 23, 21, 14, 4, 16]",8,2,"[8, 15]",41.87116936,15272,1286,2,0,9,1.5814710736011837
undo,15,21,0,0,1,8,"[0, 18, 25, 23, 21, 14, 4, 16, 8]",9,0,[],23.27009413,15928,656,1,0,9,1.5274033119860408
undo,15,21,1,0,0,16,"[0, 18, 25, 23, 21, 14, 4, 16]",8,2,"[8, 15]",41.87116936,18565,2637,2,0,9,1.5814710736011837
undo,15,21,1,0,0,4,"[0, 18, 25, 23, 21, 14, 4]",7,3,"[8, 15, 16]",86.46937561,18781,216,3,1,9,1.6694311790658276
undo,15,21,1,0,0,14,"[0, 18, 25, 23, 21, 14]",6,5,"[4, 8, 15, 16, 29]",100.6115112,18964,183,3,6,9,1.7407370150704153
undo,15,21,1,0,0,21,"[0, 18, 25, 23, 21]",5,9,"[4, 8, 9, 14, 15, 16, 17, 22, 29]",126.2240082,19147,183,3,11,9,1.9332325352644872
undo,15,21,1,0,0,23,"[0, 18, 25, 23]",4,13,"[4, 6, 8, 9, 14, 15, 16, 17, 20, 21, 22, 24, 29]",155.838194,19346,199,9,35,9,1.4558828002680828
undo,15,21,1,0,0,25,"[0, 18, 25]",3,23,"[1, 2, 3, 4, 6, 7, 8, 9, 10, 11, 12, 14, 15, 16, 17, 20, 21, 22, 23, 24, 26, 27, 29]",199.162552,19529,183,16,84,9,1.6857830307656476
undo,15,21,1,0,0,18,"[0, 18]",2,28,"[1, 2, 3, 4, 5, 6, 7, 8, 9, 10, 11, 12, 13, 14, 15, 16, 17, 19, 20, 21, 22, 23, 24, 25, 26, 27, 28, 29]",240.923778,19728,199,44,305,9,1.0
undo,15,21,1,0,0,0,[0],1,29,"[1, 2, 3, 4, 5, 6, 7, 8, 9, 10, 11, 12, 13, 14, 15, 16, 17, 18, 19, 20, 21, 22, 23, 24, 25, 26, 27, 28, 29]",300,20509,781,84,830,9,0.0
undo,15,21,0,0,0,25,"[0, 25]",2,26,"[1, 2, 3, 4, 5, 6, 7, 8, 9, 10, 11, 12, 13, 14, 15, 16, 17, 18, 20, 21, 22, 23, 24, 26, 27, 29]",240.1836143,22505,1996,30,238,9,1.0
undo,15,21,0,0,0,23,"[0, 25, 23]",3,21,"[1, 2, 4, 6, 7, 8, 9, 10, 11, 12, 14, 15, 16, 17, 18, 20, 21, 22, 24, 27, 29]",196.8592562,23396,891,14,80,9,1.0416131642057598
undo,15,21,0,0,0,21,"[0, 25, 23, 21]",4,14,"[1, 4, 6, 8, 9, 14, 15, 16, 17, 18, 20, 22, 24, 29]",167.2450705,24303,907,10,25,9,1.4768792067751173
undo,15,21,0,0,0,14,"[0, 25, 23, 21, 14]",5,10,"[4, 8, 9, 15, 16, 17, 18, 22, 24, 29]",141.6325735,24858,555,8,13,9,1.3826076066332742
undo,15,21,0,0,0,4,"[0, 25, 23, 21, 14, 4]",6,7,"[8, 15, 16, 17, 18, 24, 29]",127.4904379,25401,543,8,3,9,1.3487191473328533
undo,15,21,0,0,0,16,"[0, 25, 23, 21, 14, 4, 16]",7,3,"[8, 15, 24]",82.89223163,26546,1145,4,1,9,1.3301484172843694
undo,15,21,0,0,0,8,"[0, 25, 23, 21, 14, 4, 16, 8]",8,2,"[15, 24]",64.2911564,27195,649,2,0,9,1.3009886562393016
undo,15,21,0,0,1,15,"[0, 25, 23, 21, 14, 4, 16, 8, 15]",9,0,[],39.2911564,28155,960,1,0,9,1.5486591410600183
undo,15,21,1,0,0,8,"[0, 25, 23, 21, 14, 4, 16, 8]",8,2,"[15, 24]",64.2911564,32095,3940,2,0,9,1.3009886562393016
undo,15,21,1,0,0,16,"[0, 25, 23, 21, 14, 4, 16]",7,3,"[8, 15, 24]",82.89223163,32460,365,4,1,9,1.3301484172843694
undo,15,21,1,0,0,4,"[0, 25, 23, 21, 14, 4]",6,7,"[8, 15, 16, 17, 18, 24, 29]",127.4904379,32693,233,8,3,9,1.3487191473328533
undo,15,21,1,0,0,14,"[0, 25, 23, 21, 14]",5,10,"[4, 8, 9, 15, 16, 17, 18, 22, 24, 29]",141.6325735,32942,249,8,13,9,1.3826076066332742
undo,15,21,1,0,0,21,"[0, 25, 23, 21]",4,14,"[1, 4, 6, 8, 9, 14, 15, 16, 17, 18, 20, 22, 24, 29]",167.2450705,33175,233,10,25,9,1.4768792067751173
undo,15,21,1,0,0,23,"[0, 25, 23]",3,21,"[1, 2, 4, 6, 7, 8, 9, 10, 11, 12, 14, 15, 16, 17, 18, 20, 21, 22, 24, 27, 29]",196.8592562,33590,415,14,80,9,1.0416131642057598
undo,15,21,1,0,0,25,"[0, 25]",2,26,"[1, 2, 3, 4, 5, 6, 7, 8, 9, 10, 11, 12, 13, 14, 15, 16, 17, 18, 20, 21, 22, 23, 24, 26, 27, 29]",240.1836143,33973,383,30,238,9,1.0
undo,15,21,1,0,0,0,[0],1,29,"[1, 2, 3, 4, 5, 6, 7, 8, 9, 10, 11, 12, 13, 14, 15, 16, 17, 18, 19, 20, 21, 22, 23, 24, 25, 26, 27, 28, 29]",300,35303,1330,84,830,9,0.0
undo,15,21,0,0,0,18,"[0, 18]",2,28,"[1, 2, 3, 4, 5, 6, 7, 8, 9, 10, 11, 12, 13, 14, 15, 16, 17, 19, 20, 21, 22, 23, 24, 25, 26, 27, 28, 29]",240.923778,37750,2447,44,305,9,1.0
undo,15,21,0,0,0,25,"[0, 18, 25]",3,23,"[1, 2, 3, 4, 6, 7, 8, 9, 10, 11, 12, 14, 15, 16, 17, 20, 21, 22, 23, 24, 26, 27, 29]",199.162552,38616,866,16,84,9,1.6857830307656476
undo,15,21,0,0,0,23,"[0, 18, 25, 23]",4,13,"[4, 6, 8, 9, 14, 15, 16, 17, 20, 21, 22, 24, 29]",155.838194,39840,1224,9,35,9,1.4558828002680828
undo,15,21,0,0,0,21,"[0, 18, 25, 23, 21]",5,9,"[4, 8, 9, 14, 15, 16, 17, 22, 29]",126.2240082,40566,726,3,11,9,1.9332325352644872
undo,15,21,0,0,0,14,"[0, 18, 25, 23, 21, 14]",6,5,"[4, 8, 15, 16, 29]",100.6115112,41379,813,3,6,9,1.7407370150704153
undo,15,21,0,0,0,4,"[0, 18, 25, 23, 21, 14, 4]",7,3,"[8, 15, 16]",86.46937561,42188,809,3,1,9,1.6694311790658276
undo,15,21,0,0,0,16,"[0, 18, 25, 23, 21, 14, 4, 16]",8,2,"[8, 15]",41.87116936,43269,1081,2,0,9,1.5814710736011837
undo,15,21,0,0,1,15,"[0, 18, 25, 23, 21, 14, 4, 16, 15]",9,0,[],16.31730468,44837,1568,1,0,9,1.6851281038318489
undo,15,21,0,1,1,15,"[0, 18, 25, 23, 21, 14, 4, 16, 15]",9,0,[],16.31730468,46139,1302,1,0,9,1.6851281038318489
undo,16,33,0,0,0,0,[0],1,23,"[1, 2, 5, 7, 8, 11, 12, 13, 14, 15, 16, 17, 18, 19, 20, 21, 23, 24, 25, 26, 27, 28, 29]",300,114,-1,5,108,9,0.0
undo,16,33,0,0,0,21,"[0, 21]",2,17,"[2, 5, 7, 8, 11, 13, 14, 16, 17, 18, 19, 20, 24, 26, 27, 28, 29]",174.4611614,5535,5421,21,129,8,1.0
undo,16,33,0,0,0,17,"[0, 21, 17]",3,12,"[2, 7, 11, 13, 14, 16, 18, 19, 20, 24, 26, 29]",135.8218032,7198,1663,3,35,8,1.0302064673538902
undo,16,33,0,0,0,13,"[0, 21, 17, 13]",4,10,"[2, 7, 11, 14, 16, 19, 20, 24, 26, 29]",113.0182947,7895,697,3,18,8,1.2307555582916028
undo,16,33,0,0,0,19,"[0, 21, 17, 13, 19]",5,6,"[7, 14, 16, 24, 26, 29]",87.52319715,8445,550,3,6,8,1.267959080158969
undo,16,33,0,0,0,24,"[0, 21, 17, 13, 19, 24]",6,2,"[7, 14]",45.47560506,9047,602,1,1,8,1.2501192148258107
undo,16,33,0,0,0,7,"[0, 21, 17, 13, 19, 24, 7]",7,1,[14],16.26944133,9969,922,1,0,8,1.3314375425758662
undo,16,33,0,0,1,14,"[0, 21, 17, 13, 19, 24, 7, 14]",8,0,[],1.403372582,10347,378,1,0,8,1.37637211918224
undo,16,33,1,0,0,7,"[0, 21, 17, 13, 19, 24, 7]",7,1,[14],16.26944133,11981,1634,1,0,8,1.3314375425758662
undo,16,33,1,0,0,24,"[0, 21, 17, 13, 19, 24]",6,2,"[7, 14]",45.47560506,12181,200,1,1,8,1.2501192148258107
undo,16,33,1,0,0,19,"[0, 21, 17, 13, 19]",5,6,"[7, 14, 16, 24, 26, 29]",87.52319715,12380,199,3,6,8,1.267959080158969
undo,16,33,1,0,0,13,"[0, 21, 17, 13]",4,10,"[2, 7, 11, 14, 16, 19, 20, 24, 26, 29]",113.0182947,12563,183,3,18,8,1.2307555582916028
undo,16,33,1,0,0,17,"[0, 21, 17]",3,12,"[2, 7, 11, 13, 14, 16, 18, 19, 20, 24, 26, 29]",135.8218032,12779,216,3,35,8,1.0302064673538902
undo,16,33,1,0,0,21,"[0, 21]",2,17,"[2, 5, 7, 8, 11, 13, 14, 16, 17, 18, 19, 20, 24, 26, 27, 28, 29]",174.4611614,13361,582,21,129,8,1.0
undo,16,33,0,0,0,13,"[0, 21, 13]",3,15,"[2, 5, 7, 8, 11, 14, 16, 17, 18, 19, 20, 24, 26, 28, 29]",148.0604038,15062,1701,17,72,8,1.0001005298764474
undo,16,33,0,0,0,19,"[0, 21, 13, 19]",4,11,"[7, 11, 14, 16, 17, 18, 20, 24, 26, 28, 29]",122.5653063,15795,733,10,27,8,1.0588446738393702
undo,16,33,0,0,0,24,"[0, 21, 13, 19, 24]",5,7,"[7, 14, 16, 18, 26, 28, 29]",80.51771417,16656,861,3,5,8,1.078006777679028
undo,16,33,0,0,0,7,"[0, 21, 13, 19, 24, 7]",6,3,"[14, 26, 29]",51.31155044,17443,787,3,1,8,1.1669985062633954
undo,16,33,0,0,0,14,"[0, 21, 13, 19, 24, 7, 14]",7,2,"[26, 29]",36.44548169,19133,1690,2,0,8,1.2148465775488593
undo,16,33,0,0,1,26,"[0, 21, 13, 19, 24, 7, 14, 26]",8,0,[],23.79637105,19865,732,1,0,8,1.2208379656544521
undo,16,33,1,0,0,14,"[0, 21, 13, 19, 24, 7, 14]",7,2,"[26, 29]",36.44548169,22752,2887,2,0,8,1.2148465775488593
undo,16,33,1,0,0,7,"[0, 21, 13, 19, 24, 7]",6,3,"[14, 26, 29]",51.31155044,23151,399,3,1,8,1.1669985062633954
undo,16,33,1,0,0,24,"[0, 21, 13, 19, 24]",5,7,"[7, 14, 16, 18, 26, 28, 29]",80.51771417,23450,299,3,5,8,1.078006777679028
undo,16,33,1,0,0,19,"[0, 21, 13, 19]",4,11,"[7, 11, 14, 16, 17, 18, 20, 24, 26, 28, 29]",122.5653063,23965,515,10,27,8,1.0588446738393702
undo,16,33,0,0,0,7,"[0, 21, 13, 19, 7]",5,7,"[14, 16, 17, 18, 24, 26, 29]",76.94732734,25894,1929,3,5,8,1.0466997412739754
undo,16,33,0,0,0,14,"[0, 21, 13, 19, 7, 14]",6,3,"[24, 26, 29]",62.0812586,26544,650,2,1,8,1.096679239566485
undo,16,33,0,0,0,26,"[0, 21, 13, 19, 7, 14, 26]",7,1,[29],49.43214796,27128,584,1,0,8,1.1075261679429118
undo,16,33,0,0,1,29,"[0, 21, 13, 19, 7, 14, 26, 29]",8,0,[],21.53949659,27967,839,1,0,8,1.3238278222819673
undo,16,33,0,1,1,29,"[0, 21, 13, 19, 7, 14, 26, 29]",8,0,[],21.53949659,29866,1899,1,0,8,1.3238278222819673
undo,17,7,0,0,0,0,[0],1,29,"[1, 2, 3, 4, 5, 6, 7, 8, 9, 10, 11, 12, 13, 14, 15, 16, 17, 18, 19, 20, 21, 22, 23, 24, 25, 26, 27, 28, 29]",300,132,-1,3,79,9,0.0
undo,17,7,0,0,0,25,"[0, 25]",2,20,"[2, 3, 4, 5, 6, 7, 10, 13, 14, 15, 16, 18, 19, 20, 21, 22, 23, 24, 27, 28]",181.5939191,2757,2625,5,33,8,1.0
undo,17,7,0,0,0,4,"[0, 25, 4]",3,11,"[2, 6, 7, 13, 15, 16, 18, 19, 20, 21, 23]",156.8552853,4167,1410,2,14,8,1.0193465608331511
undo,17,7,0,0,0,20,"[0, 25, 4, 20]",4,8,"[2, 6, 7, 13, 15, 16, 18, 19]",137.2084026,4840,673,1,9,8,1.085904909082323
undo,17,7,0,0,0,18,"[0, 25, 4, 20, 18]",5,7,"[2, 6, 7, 13, 15, 16, 19]",124.4021541,5288,448,1,5,8,1.2264883846453758
undo,17,7,0,0,0,7,"[0, 25, 4, 20, 18, 7]",6,2,"[2, 19]",83.17109789,6447,1159,1,1,8,1.185264473968278
undo,17,7,0,0,0,19,"[0, 25, 4, 20, 18, 7, 19]",7,1,[2],53.76021555,7153,706,1,0,8,1.3016904288278204
undo,17,7,0,0,1,2,"[0, 25, 4, 20, 18, 7, 19, 2]",8,0,[],23.61058868,8003,850,1,0,8,1.3168868000947171
undo,17,7,0,1,1,2,"[0, 25, 4, 20, 18, 7, 19, 2]",8,0,[],23.61058868,10503,2500,1,0,8,1.3168868000947171
undo,18,1,0,0,0,0,[0],1,26,"[1, 2, 4, 5, 7, 8, 9, 10, 11, 12, 13, 14, 15, 16, 17, 18, 19, 20, 21, 22, 23, 24, 25, 26, 28, 29]",300,115,-1,6,74,7,0.0
undo,18,1,0,0,0,14,"[0, 14]",2,19,"[1, 4, 5, 8, 9, 13, 15, 17, 18, 19, 20, 21, 22, 23, 24, 25, 26, 28, 29]",200.1901808,2777,2662,5,42,7,1.0
undo,18,1,0,0,0,17,"[0, 14, 17]",3,15,"[1, 4, 5, 8, 9, 13, 15, 18, 19, 20, 22, 23, 25, 28, 29]",147.8356204,3560,783,5,27,7,1.0028844724416826
undo,18,1,0,0,0,1,"[0, 14, 17, 1]",4,12,"[4, 5, 8, 9, 15, 18, 20, 22, 23, 25, 28, 29]",123.4840291,8185,4625,5,15,7,1.0264985578353567
undo,18,1,0,0,0,28,"[0, 14, 17, 1, 28]",5,5,"[9, 15, 22, 23, 29]",88.59850198,8967,782,5,3,7,1.0339861575999345
undo,18,1,0,0,0,23,"[0, 14, 17, 1, 28, 23]",6,2,"[15, 22]",51.70676849,9662,695,2,0,7,1.0327458250705703
undo,18,1,0,0,1,15,"[0, 14, 17, 1, 28, 23, 15]",7,0,[],20.81987807,10520,858,1,0,7,1.1948681641401226
undo,18,1,1,0,0,23,"[0, 14, 17, 1, 28, 23]",6,2,"[15, 22]",51.70676849,12548,2028,2,0,7,1.0327458250705703
undo,18,1,1,0,0,28,"[0, 14, 17, 1, 28]",5,5,"[9, 15, 22, 23, 29]",88.59850198,12764,216,5,3,7,1.0339861575999345
undo,18,1,1,0,0,1,"[0, 14, 17, 1]",4,12,"[4, 5, 8, 9, 15, 18, 20, 22, 23, 25, 28, 29]",123.4840291,12947,183,5,15,7,1.0264985578353567
undo,18,1,1,0,0,17,"[0, 14, 17]",3,15,"[1, 4, 5, 8, 9, 13, 15, 18, 19, 20, 22, 23, 25, 28, 29]",147.8356204,13146,199,5,27,7,1.0028844724416826
undo,18,1,1,0,0,14,"[0, 14]",2,19,"[1, 4, 5, 8, 9, 13, 15, 17, 18, 19, 20, 21, 22, 23, 24, 25, 26, 28, 29]",200.1901808,13329,183,5,42,7,1.0
undo,18,1,0,0,0,20,"[0, 14, 20]",3,8,"[1, 4, 5, 8, 17, 18, 19, 29]",107.5349058,15504,2175,3,6,6,1.1318930635390845
undo,18,1,0,0,0,5,"[0, 14, 20, 5]",4,3,"[4, 18, 29]",86.06399521,16201,697,2,2,6,1.1422313843984317
undo,18,1,0,0,0,18,"[0, 14, 20, 5, 18]",5,2,"[4, 29]",63.23857079,17139,938,2,0,6,1.1754181498166683
undo,18,1,0,0,1,4,"[0, 14, 20, 5, 18, 4]",6,0,[],24.2898866,17850,711,1,0,6,1.1682212432106793
undo,18,1,1,0,0,18,"[0, 14, 20, 5, 18]",5,2,"[4, 29]",63.23857079,19164,1314,2,0,6,1.1754181498166683
undo,18,1,1,0,0,5,"[0, 14, 20, 5]",4,3,"[4, 18, 29]",86.06399521,19380,216,2,2,6,1.1422313843984317
undo,18,1,1,0,0,20,"[0, 14, 20]",3,8,"[1, 4, 5, 8, 17, 18, 19, 29]",107.5349058,19579,199,3,6,6,1.1318930635390845
undo,18,1,1,0,0,14,"[0, 14]",2,19,"[1, 4, 5, 8, 9, 13, 15, 17, 18, 19, 20, 21, 22, 23, 24, 25, 26, 28, 29]",200.1901808,19795,216,5,42,7,1.0
undo,18,1,1,0,0,0,[0],1,26,"[1, 2, 4, 5, 7, 8, 9, 10, 11, 12, 13, 14, 15, 16, 17, 18, 19, 20, 21, 22, 23, 24, 25, 26, 28, 29]",300,21906,2111,6,74,7,0.0
undo,18,1,0,0,0,14,"[0, 14]",2,19,"[1, 4, 5, 8, 9, 13, 15, 17, 18, 19, 20, 21, 22, 23, 24, 25, 26, 28, 29]",200.1901808,23994,2088,5,42,7,1.0
undo,18,1,0,0,0,17,"[0, 14, 17]",3,15,"[1, 4, 5, 8, 9, 13, 15, 18, 19, 20, 22, 23, 25, 28, 29]",147.8356204,24939,945,5,27,7,1.0028844724416826
undo,18,1,0,0,0,1,"[0, 14, 17, 1]",4,12,"[4, 5, 8, 9, 15, 18, 20, 22, 23, 25, 28, 29]",123.4840291,25440,501,5,15,7,1.0264985578353567
undo,18,1,0,0,0,28,"[0, 14, 17, 1, 28]",5,5,"[9, 15, 22, 23, 29]",88.59850198,26447,1007,5,3,7,1.0339861575999345
undo,18,1,0,0,0,23,"[0, 14, 17, 1, 28, 23]",6,2,"[15, 22]",51.70676849,27237,790,2,0,7,1.0327458250705703
undo,18,1,0,0,1,15,"[0, 14, 17, 1, 28, 23, 15]",7,0,[],20.81987807,28334,1097,1,0,7,1.1948681641401226
undo,18,1,0,1,1,15,"[0, 14, 17, 1, 28, 23, 15]",7,0,[],20.81987807,29302,968,1,0,7,1.1948681641401226
undo,19,20,0,0,0,0,[0],1,21,"[1, 2, 3, 4, 5, 6, 7, 8, 9, 12, 17, 18, 20, 21, 22, 23, 25, 26, 27, 28, 29]",300,115,-1,1,9,9,0.0
undo,19,20,0,0,0,12,"[0, 12]",2,20,"[1, 2, 3, 4, 5, 6, 7, 8, 9, 17, 18, 20, 21, 22, 23, 25, 26, 27, 28, 29]",271.5570747,3255,3140,1,8,9,1.0
undo,19,20,0,0,0,5,"[0, 12, 5]",3,13,"[1, 3, 4, 6, 8, 9, 20, 21, 23, 26, 27, 28, 29]",171.4321527,4037,782,2,19,8,1.0232843285905395
undo,19,20,0,0,0,21,"[0, 12, 5, 21]",4,10,"[1, 4, 6, 8, 9, 20, 23, 26, 27, 28]",126.4321527,4911,874,2,12,8,1.017525191374897
undo,19,20,0,0,0,8,"[0, 12, 5, 21, 8]",5,6,"[1, 6, 9, 23, 27, 28]",108.9679035,5723,812,2,6,8,1.0391698601004782
undo,19,20,0,0,0,23,"[0, 12, 5, 21, 8, 23]",6,3,"[6, 9, 27]",64.28009758,6535,812,2,1,8,1.0348450868606567
undo,19,20,0,0,0,9,"[0, 12, 5, 21, 8, 23, 9]",7,1,[6],45.07072487,7023,488,1,0,8,1.0335348098288684
undo,19,20,0,0,1,6,"[0, 12, 5, 21, 8, 23, 9, 6]",8,0,[],22.048996,7983,960,1,0,8,1.0486850646228845
undo,19,20,0,1,1,6,"[0, 12, 5, 21, 8, 23, 9, 6]",8,0,[],22.048996,10718,2735,1,0,8,1.0486850646228845
undo,20,11,0,0,0,0,[0],1,25,"[1, 2, 3, 4, 5, 6, 8, 9, 10, 11, 12, 13, 14, 15, 16, 17, 18, 19, 20, 22, 23, 25, 26, 27, 28]",300,115,-1,6,374,12,0.0
undo,20,11,0,0,0,5,"[0, 5]",2,15,"[2, 6, 8, 11, 12, 14, 15, 16, 17, 18, 19, 22, 25, 27, 28]",137.3070376,1619,1504,55,334,9,1.0
undo,20,11,0,0,0,2,"[0, 5, 2]",3,12,"[6, 8, 11, 12, 14, 15, 17, 18, 19, 22, 27, 28]",120.3070376,2175,556,19,101,9,1.0067504085355843
undo,20,11,0,0,0,22,"[0, 5, 2, 22]",4,7,"[8, 11, 15, 17, 19, 27, 28]",110.257162,2672,497,14,36,9,1.0064127562179954
undo,20,11,0,0,0,28,"[0, 5, 2, 22, 28]",5,5,"[8, 11, 15, 17, 19]",91.87238571,3167,495,13,10,9,1.2044188178229356
undo,20,11,0,0,0,11,"[0, 5, 2, 22, 28, 11]",6,3,"[8, 15, 17]",72.45589787,3708,541,6,0,9,1.3125020553889362
undo,20,11,0,0,0,15,"[0, 5, 2, 22, 28, 11, 15]",7,2,"[8, 17]",54.3451276,4408,700,2,0,9,1.565983650138412
undo,20,11,0,0,0,17,"[0, 5, 2, 22, 28, 11, 15, 17]",8,1,[8],41.69601696,5837,1429,1,0,9,1.7562355578372977
undo,20,11,0,0,1,8,"[0, 5, 2, 22, 28, 11, 15, 17, 8]",9,0,[],27.37819589,7042,1205,1,0,9,1.8774733660626615
undo,20,11,1,0,0,17,"[0, 5, 2, 22, 28, 11, 15, 17]",8,1,[8],41.69601696,11800,4758,1,0,9,1.7562355578372977
undo,20,11,1,0,0,15,"[0, 5, 2, 22, 28, 11, 15]",7,2,"[8, 17]",54.3451276,12166,366,2,0,9,1.565983650138412
undo,20,11,1,0,0,11,"[0, 5, 2, 22, 28, 11]",6,3,"[8, 15, 17]",72.45589787,12482,316,6,0,9,1.3125020553889362
undo,20,11,1,0,0,28,"[0, 5, 2, 22, 28]",5,5,"[8, 11, 15, 17, 19]",91.87238571,12764,282,13,10,9,1.2044188178229356
undo,20,11,1,0,0,22,"[0, 5, 2, 22]",4,7,"[8, 11, 15, 17, 19, 27, 28]",110.257162,13080,316,14,36,9,1.0064127562179954
undo,20,11,1,0,0,2,"[0, 5, 2]",3,12,"[6, 8, 11, 12, 14, 15, 17, 18, 19, 22, 27, 28]",120.3070376,13429,349,19,101,9,1.0067504085355843
undo,20,11,1,0,0,5,"[0, 5]",2,15,"[2, 6, 8, 11, 12, 14, 15, 16, 17, 18, 19, 22, 25, 27, 28]",137.3070376,13828,399,55,334,9,1.0
undo,20,11,1,0,0,0,[0],1,25,"[1, 2, 3, 4, 5, 6, 8, 9, 10, 11, 12, 13, 14, 15, 16, 17, 18, 19, 20, 22, 23, 25, 26, 27, 28]",300,14211,383,6,374,12,0.0
undo,20,11,0,0,0,18,"[0, 18]",2,21,"[1, 2, 4, 5, 6, 8, 9, 11, 12, 13, 14, 15, 16, 17, 19, 20, 22, 23, 25, 27, 28]",236.8493864,16325,2114,157,1477,11,1.0
undo,20,11,0,0,0,27,"[0, 18, 27]",3,19,"[1, 2, 4, 5, 6, 8, 9, 11, 12, 14, 15, 16, 17, 19, 20, 22, 23, 25, 28]",212.9956655,17074,749,157,1315,11,1.060949579704323
undo,20,11,0,0,0,5,"[0, 18, 27, 5]",4,12,"[2, 6, 8, 11, 12, 14, 15, 16, 17, 19, 22, 28]",131.7799035,18543,1469,31,207,11,1.0339727918436237
undo,20,11,0,0,0,22,"[0, 18, 27, 5, 22]",5,7,"[2, 8, 11, 15, 17, 19, 28]",105.209243,19773,1230,9,42,11,1.033187364037212
undo,20,11,0,0,0,2,"[0, 18, 27, 5, 22, 2]",6,6,"[8, 11, 15, 17, 19, 28]",95.15936735,20533,760,7,25,11,1.1476431121771915
undo,20,11,0,0,0,28,"[0, 18, 27, 5, 22, 2, 28]",7,5,"[8, 11, 15, 17, 19]",84.52922154,21321,788,7,13,11,1.2469131554382595
undo,20,11,0,0,0,11,"[0, 18, 27, 5, 22, 2, 28, 11]",8,3,"[8, 15, 17]",65.1127337,22280,959,6,0,11,1.3548583194096888
undo,20,11,0,0,0,15,"[0, 18, 27, 5, 22, 2, 28, 11, 15]",9,2,"[8, 17]",47.00196342,22993,713,2,0,11,1.6127943440758712
undo,20,11,0,0,0,17,"[0, 18, 27, 5, 22, 2, 28, 11, 15, 17]",10,1,[8],34.35285278,23560,567,1,0,11,1.8061624923281072
undo,20,11,0,0,1,8,"[0, 18, 27, 5, 22, 2, 28, 11, 15, 17, 8]",11,0,[],20.03503172,24287,727,1,0,11,1.9280437714519454
undo,20,11,0,1,1,8,"[0, 18, 27, 5, 22, 2, 28, 11, 15, 17, 8]",11,0,[],20.03503172,28937,4650,1,0,11,1.9280437714519454
undo,21,0,0,0,0,0,[0],1,27,"[2, 3, 4, 5, 6, 7, 8, 9, 10, 11, 12, 13, 14, 15, 16, 17, 19, 20, 21, 22, 23, 24, 25, 26, 27, 28, 29]",300,115,-1,104,1136,9,0.0
undo,21,0,0,0,0,5,"[0, 5]",2,24,"[2, 3, 4, 7, 8, 9, 11, 12, 13, 14, 15, 16, 17, 19, 20, 21, 22, 23, 24, 25, 26, 27, 28, 29]",164.5156836,2899,2784,5,112,9,1.0
undo,21,0,0,0,0,4,"[0, 5, 4]",3,20,"[2, 3, 7, 8, 9, 11, 12, 13, 14, 15, 17, 19, 20, 21, 22, 23, 24, 25, 26, 28]",139.4358112,3820,921,4,61,9,1.0257023158632692
undo,21,0,0,0,0,26,"[0, 5, 4, 26]",4,18,"[3, 7, 8, 9, 11, 12, 13, 14, 15, 17, 19, 20, 21, 22, 23, 24, 25, 28]",127.3942166,4702,882,4,26,9,1.0684029773259323
undo,21,0,0,0,0,24,"[0, 5, 4, 26, 24]",5,12,"[3, 7, 8, 9, 11, 12, 15, 17, 19, 20, 23, 28]",110.2769738,5414,712,4,16,9,1.1372083333602885
undo,21,0,0,0,0,15,"[0, 5, 4, 26, 24, 15]",6,8,"[3, 7, 8, 9, 11, 12, 17, 19]",86.93173875,6226,812,4,7,9,1.1271717591548023
undo,21,0,0,0,0,7,"[0, 5, 4, 26, 24, 15, 7]",7,4,"[3, 8, 17, 19]",55.86728962,7001,775,3,2,9,1.190834598819092
undo,21,0,0,0,0,3,"[0, 5, 4, 26, 24, 15, 7, 3]",8,1,[8],31.78410046,8448,1447,1,0,9,1.23738515991157
undo,21,0,0,0,1,8,"[0, 5, 4, 26, 24, 15, 7, 3, 8]",9,0,[],1.370287806,10226,1778,1,0,9,1.3423763396760653
undo,21,0,0,1,1,8,"[0, 5, 4, 26, 24, 15, 7, 3, 8]",9,0,[],1.370287806,11783,1557,1,0,9,1.3423763396760653
undo,22,12,0,0,0,0,[0],1,29,"[1, 2, 3, 4, 5, 6, 7, 8, 9, 10, 11, 12, 13, 14, 15, 16, 17, 18, 19, 20, 21, 22, 23, 24, 25, 26, 27, 28, 29]",300,115,-1,2,32,9,0.0
undo,22,12,0,0,0,22,"[0, 22]",2,22,"[2, 4, 5, 6, 7, 9, 10, 12, 13, 14, 15, 16, 17, 18, 19, 21, 23, 24, 25, 27, 28, 29]",211.9943184,3893,3778,6,42,8,1.0
undo,22,12,0,0,0,16,"[0, 22, 16]",3,12,"[2, 4, 5, 6, 7, 12, 14, 19, 23, 24, 25, 27]",190.9943184,4902,1009,6,24,8,1.2017164145167045
undo,22,12,0,0,0,4,"[0, 22, 16, 4]",4,9,"[2, 6, 7, 12, 14, 19, 24, 25, 27]",156.7890556,5707,805,6,14,8,1.146531713305579
undo,22,12,0,0,0,12,"[0, 22, 16, 4, 12]",5,4,"[14, 19, 24, 27]",114.5990094,6543,836,4,3,8,1.1221389456954312
undo,22,12,0,0,0,27,"[0, 22, 16, 4, 12, 27]",6,3,"[14, 19, 24]",90.24741807,7215,672,2,1,8,1.2262878338287035
undo,22,12,0,0,0,14,"[0, 22, 16, 4, 12, 27, 14]",7,1,[24],61.59432051,7981,766,1,0,8,1.2804562106751427
undo,22,12,0,0,1,24,"[0, 22, 16, 4, 12, 27, 14, 24]",8,0,[],44.38966997,8739,758,1,0,8,1.4322660007679802
undo,22,12,1,0,0,14,"[0, 22, 16, 4, 12, 27, 14]",7,1,[24],61.59432051,11584,2845,1,0,8,1.2804562106751427
undo,22,12,1,0,0,27,"[0, 22, 16, 4, 12, 27]",6,3,"[14, 19, 24]",90.24741807,11866,282,2,1,8,1.2262878338287035
undo,22,12,1,0,0,12,"[0, 22, 16, 4, 12]",5,4,"[14, 19, 24, 27]",114.5990094,12116,250,4,3,8,1.1221389456954312
undo,22,12,1,0,0,4,"[0, 22, 16, 4]",4,9,"[2, 6, 7, 12, 14, 19, 24, 25, 27]",156.7890556,12482,366,6,14,8,1.146531713305579
undo,22,12,1,0,0,16,"[0, 22, 16]",3,12,"[2, 4, 5, 6, 7, 12, 14, 19, 23, 24, 25, 27]",190.9943184,12864,382,6,24,8,1.2017164145167045
undo,22,12,1,0,0,22,"[0, 22]",2,22,"[2, 4, 5, 6, 7, 9, 10, 12, 13, 14, 15, 16, 17, 18, 19, 21, 23, 24, 25, 27, 28, 29]",211.9943184,13296,432,6,42,8,1.0
undo,22,12,1,0,0,0,[0],1,29,"[1, 2, 3, 4, 5, 6, 7, 8, 9, 10, 11, 12, 13, 14, 15, 16, 17, 18, 19, 20, 21, 22, 23, 24, 25, 26, 27, 28, 29]",300,17651,4355,2,32,9,0.0
undo,22,12,0,0,0,25,"[0, 25]",2,16,"[2, 4, 5, 6, 7, 9, 12, 14, 16, 18, 19, 22, 23, 24, 27, 28]",225.7975742,19503,1852,5,34,8,1.0
undo,22,12,0,0,0,22,"[0, 25, 22]",3,11,"[2, 4, 5, 6, 7, 12, 14, 16, 19, 24, 27]",153.5964661,20106,603,1,10,8,1.6635691148622656
undo,22,12,0,0,0,16,"[0, 25, 22, 16]",4,7,"[4, 6, 12, 14, 19, 24, 27]",132.5964661,20603,497,1,6,8,1.8455145785330662
undo,22,12,0,0,0,4,"[0, 25, 22, 16, 4]",5,5,"[12, 14, 19, 24, 27]",98.39120339,21323,720,1,4,8,1.6140587576122385
undo,22,12,0,0,0,12,"[0, 25, 22, 16, 4, 12]",6,2,"[14, 27]",56.20115717,22027,704,1,1,8,1.4755917731057815
undo,22,12,0,0,0,27,"[0, 25, 22, 16, 4, 12, 27]",7,1,[14],31.84956584,22901,874,1,0,8,1.5677023473114235
undo,22,12,0,0,1,14,"[0, 25, 22, 16, 4, 12, 27, 14]",8,0,[],3.196468279,23530,629,1,0,8,1.5941060060123788
undo,22,12,0,1,1,14,"[0, 25, 22, 16, 4, 12, 27, 14]",8,0,[],3.196468279,24848,1318,1,0,8,1.5941060060123788
basic,23,41,0,0,0,0,[0],1,29,"[1, 2, 3, 4, 5, 6, 7, 8, 9, 10, 11, 12, 13, 14, 15, 16, 17, 18, 19, 20, 21, 22, 23, 24, 25, 26, 27, 28, 29]",300,116,-1,1,143,10,0.0
basic,23,41,0,0,0,21,"[0, 21]",2,28,"[1, 2, 3, 4, 5, 6, 7, 8, 9, 10, 11, 12, 13, 14, 15, 16, 17, 18, 19, 20, 22, 23, 24, 25, 26, 27, 28, 29]",251.1226024,12242,12126,50,469,8,1.0
basic,23,41,0,0,0,3,"[0, 21, 3]",3,26,"[1, 2, 5, 6, 7, 8, 9, 10, 11, 12, 13, 14, 15, 16, 17, 18, 19, 20, 22, 23, 24, 25, 26, 27, 28, 29]",218.982285,13620,1378,16,151,8,2.044702670024013
basic,23,41,0,0,0,22,"[0, 21, 3, 22]",4,20,"[2, 5, 6, 7, 8, 9, 10, 11, 12, 13, 14, 16, 17, 18, 19, 20, 23, 25, 27, 28]",189.0156369,14555,935,4,36,8,1.609314302987968
basic,23,41,0,0,0,5,"[0, 21, 3, 22, 5]",5,9,"[2, 9, 10, 13, 17, 18, 20, 27, 28]",134.2707741,15377,822,3,11,8,5.280572219167241
basic,23,41,0,0,0,28,"[0, 21, 3, 22, 5, 28]",6,5,"[9, 13, 17, 18, 20]",120.6693036,16265,888,2,3,8,4.4610178066064154
basic,23,41,0,0,0,20,"[0, 21, 3, 22, 5, 28, 20]",7,1,[13],63.39801934,17527,1262,1,0,8,2.513063729981214
basic,23,41,0,0,1,13,"[0, 21, 3, 22, 5, 28, 20, 13]",8,0,[],0.748198908,19717,2190,1,0,8,7.171952216563631
basic,23,41,0,1,1,13,"[0, 21, 3, 22, 5, 28, 20, 13]",8,0,[],0.748198908,21607,1890,1,0,8,7.171952216563631
basic,24,44,0,0,0,0,[0],1,29,"[1, 2, 3, 4, 5, 6, 7, 8, 9, 10, 11, 12, 13, 14, 15, 16, 17, 18, 19, 20, 21, 22, 23, 24, 25, 26, 27, 28, 29]",300,111,-1,13,126,7,0.0
basic,24,44,0,0,0,9,"[0, 9]",2,17,"[2, 4, 5, 7, 8, 10, 11, 12, 13, 14, 20, 22, 23, 24, 25, 26, 28]",141.32423,8100,7989,3,26,7,1.0
basic,24,44,0,0,0,4,"[0, 9, 4]",3,15,"[2, 5, 7, 8, 10, 11, 12, 14, 20, 22, 23, 24, 25, 26, 28]",121.6265143,8642,542,3,21,7,1.0155532843148096
basic,24,44,0,0,0,7,"[0, 9, 4, 7]",4,10,"[2, 5, 11, 12, 14, 23, 24, 25, 26, 28]",90.61038951,9192,550,3,9,7,1.0134022837125412
basic,24,44,0,0,0,23,"[0, 9, 4, 7, 23]",5,7,"[5, 12, 14, 24, 25, 26, 28]",71.50541634,9827,635,3,4,7,1.043310757564056
basic,24,44,0,0,0,5,"[0, 9, 4, 7, 23, 5]",6,1,[25],24.08179353,10769,942,1,0,7,1.0875233835918032
basic,24,44,0,0,1,25,"[0, 9, 4, 7, 23, 5, 25]",7,0,[],13.64148702,11271,502,1,0,7,1.1344779809947538
basic,24,44,0,1,1,25,"[0, 9, 4, 7, 23, 5, 25]",7,0,[],13.64148702,12677,1406,1,0,7,1.1344779809947538
basic,25,6,0,0,0,0,[0],1,29,"[1, 2, 3, 4, 5, 6, 7, 8, 9, 10, 11, 12, 13, 14, 15, 16, 17, 18, 19, 20, 21, 22, 23, 24, 25, 26, 27, 28, 29]",300,114,-1,180,4304,10,0.0
basic,25,6,0,0,0,3,"[0, 3]",2,28,"[1, 2, 4, 5, 6, 7, 8, 9, 10, 11, 12, 13, 14, 15, 16, 17, 18, 19, 20, 21, 22, 23, 24, 25, 26, 27, 28, 29]",266.4738908,1913,1799,90,1607,10,1.0
basic,25,6,0,0,0,10,"[0, 3, 10]",3,27,"[1, 2, 4, 5, 6, 7, 8, 9, 11, 12, 13, 14, 15, 16, 17, 18, 19, 20, 21, 22, 23, 24, 25, 26, 27, 28, 29]",215.2293789,8312,6399,8,136,10,1.0050517746249001
basic,25,6,0,0,0,24,"[0, 3, 10, 24]",4,23,"[1, 2, 4, 5, 6, 7, 8, 11, 13, 14, 16, 17, 18, 19, 20, 21, 22, 23, 25, 26, 27, 28, 29]",201.812971,8794,482,8,85,10,1.0091851911500884
basic,25,6,0,0,0,17,"[0, 3, 10, 24, 17]",5,19,"[1, 2, 4, 5, 6, 7, 8, 11, 13, 14, 16, 18, 20, 21, 22, 23, 26, 27, 29]",172.5384087,9651,857,8,53,10,1.8060138032707682
basic,25,6,0,0,0,18,"[0, 3, 10, 24, 17, 18]",6,15,"[1, 2, 6, 7, 8, 13, 14, 16, 20, 21, 22, 23, 26, 27, 29]",158.6100204,10341,690,7,36,10,2.3216150751946008
basic,25,6,0,0,0,16,"[0, 3, 10, 24, 17, 18, 16]",7,13,"[1, 2, 6, 7, 13, 14, 20, 21, 22, 23, 26, 27, 29]",135.2647853,10923,582,7,21,10,2.2822729587843544
basic,25,6,0,0,0,29,"[0, 3, 10, 24, 17, 18, 16, 29]",8,7,"[6, 14, 20, 21, 22, 23, 27]",98.57691268,11687,764,6,4,10,1.8911507070056388
basic,25,6,0,0,0,23,"[0, 3, 10, 24, 17, 18, 16, 29, 23]",9,2,"[6, 22]",51.05849519,15918,4231,2,0,10,1.8549852217940308
basic,25,6,0,0,1,6,"[0, 3, 10, 24, 17, 18, 16, 29, 23, 6]",10,0,[],15.70315613,16798,880,1,0,10,1.7651720921259988
basic,25,6,0,1,1,6,"[0, 3, 10, 24, 17, 18, 16, 29, 23, 6]",10,0,[],15.70315613,18082,1284,1,0,10,1.7651720921259988
basic,26,8,0,0,0,0,[0],1,29,"[1, 2, 3, 4, 5, 6, 7, 8, 9, 10, 11, 12, 13, 14, 15, 16, 17, 18, 19, 20, 21, 22, 23, 24, 25, 26, 27, 28, 29]",300,114,-1,10,149,9,0.0
basic,26,8,0,0,0,5,"[0, 5]",2,28,"[1, 2, 3, 4, 6, 7, 8, 9, 10, 11, 12, 13, 14, 15, 16, 17, 18, 19, 20, 21, 22, 23, 24, 25, 26, 27, 28, 29]",254.5137383,12912,12798,10,100,9,1.0
basic,26,8,0,0,0,14,"[0, 5, 14]",3,20,"[1, 2, 3, 4, 6, 7, 11, 15, 16, 17, 18, 19, 20, 21, 22, 23, 24, 25, 28, 29]",214.5512559,13640,728,4,36,9,1.0001019035932595
basic,26,8,0,0,0,17,"[0, 5, 14, 17]",4,15,"[1, 4, 6, 7, 11, 15, 16, 18, 19, 20, 22, 23, 24, 25, 28]",177.5377449,14346,706,4,16,9,1.121197267659591
basic,26,8,0,0,0,11,"[0, 5, 14, 17, 11]",5,11,"[1, 4, 15, 16, 18, 19, 22, 23, 24, 25, 28]",152.3583883,14962,616,4,8,9,1.1277254166016362
basic,26,8,0,0,0,24,"[0, 5, 14, 17, 11, 24]",6,3,"[15, 16, 28]",115.1428001,15698,736,2,2,9,1.1227411011978805
basic,26,8,0,0,0,15,"[0, 5, 14, 17, 11, 24, 15]",7,2,"[16, 28]",98.37974552,16162,464,2,0,9,1.1956385406066814
basic,26,8,0,0,0,16,"[0, 5, 14, 17, 11, 24, 15, 16]",8,1,[28],47.30137436,16973,811,1,0,9,1.36482239111247
basic,26,8,0,0,1,28,"[0, 5, 14, 17, 11, 24, 15, 16, 28]",9,0,[],24.94069458,18072,1099,1,0,9,1.632953105226947
basic,26,8,0,1,1,28,"[0, 5, 14, 17, 11, 24, 15, 16, 28]",9,0,[],24.94069458,19062,990,1,0,9,1.632953105226947
basic,27,21,0,0,0,0,[0],1,29,"[1, 2, 3, 4, 5, 6, 7, 8, 9, 10, 11, 12, 13, 14, 15, 16, 17, 18, 19, 20, 21, 22, 23, 24, 25, 26, 27, 28, 29]",300,114,-1,84,830,9,0.0
basic,27,21,0,0,0,25,"[0, 25]",2,26,"[1, 2, 3, 4, 5, 6, 7, 8, 9, 10, 11, 12, 13, 14, 15, 16, 17, 18, 20, 21, 22, 23, 24, 26, 27, 29]",240.1836143,6468,6354,30,238,9,1.0
basic,27,21,0,0,0,23,"[0, 25, 23]",3,21,"[1, 2, 4, 6, 7, 8, 9, 10, 11, 12, 14, 15, 16, 17, 18, 20, 21, 22, 24, 27, 29]",196.8592562,7615,1147,14,80,9,1.0416131642057598
basic,27,21,0,0,0,21,"[0, 25, 23, 21]",4,14,"[1, 4, 6, 8, 9, 14, 15, 16, 17, 18, 20, 22, 24, 29]",167.2450705,8437,822,10,25,9,1.4768792067751173
basic,27,21,0,0,0,14,"[0, 25, 23, 21, 14]",5,10,"[4, 8, 9, 15, 16, 17, 18, 22, 24, 29]",141.6325735,9189,752,8,13,9,1.3826076066332742
basic,27,21,0,0,0,4,"[0, 25, 23, 21, 14, 4]",6,7,"[8, 15, 16, 17, 18, 24, 29]",127.4904379,9737,548,8,3,9,1.3487191473328533
basic,27,21,0,0,0,16,"[0, 25, 23, 21, 14, 4, 16]",7,3,"[8, 15, 24]",82.89223163,10590,853,4,1,9,1.3301484172843694
basic,27,21,0,0,0,8,"[0, 25, 23, 21, 14, 4, 16, 8]",8,2,"[15, 24]",64.2911564,11176,586,2,0,9,1.3009886562393016
basic,27,21,0,0,1,15,"[0, 25, 23, 21, 14, 4, 16, 8, 15]",9,0,[],39.2911564,11927,751,1,0,9,1.5486591410600183
basic,27,21,0,1,1,15,"[0, 25, 23, 21, 14, 4, 16, 8, 15]",9,0,[],39.2911564,14425,2498,1,0,9,1.5486591410600183
basic,28,7,0,0,0,0,[0],1,29,"[1, 2, 3, 4, 5, 6, 7, 8, 9, 10, 11, 12, 13, 14, 15, 16, 17, 18, 19, 20, 21, 22, 23, 24, 25, 26, 27, 28, 29]",300,115,-1,3,79,9,0.0
basic,28,7,0,0,0,25,"[0, 25]",2,20,"[2, 3, 4, 5, 6, 7, 10, 13, 14, 15, 16, 18, 19, 20, 21, 22, 23, 24, 27, 28]",181.5939191,7952,7837,5,33,8,1.0
basic,28,7,0,0,0,4,"[0, 25, 4]",3,11,"[2, 6, 7, 13, 15, 16, 18, 19, 20, 21, 23]",156.8552853,8470,518,2,14,8,1.0193465608331511
basic,28,7,0,0,0,20,"[0, 25, 4, 20]",4,8,"[2, 6, 7, 13, 15, 16, 18, 19]",137.2084026,9727,1257,1,9,8,1.085904909082323
basic,28,7,0,0,0,18,"[0, 25, 4, 20, 18]",5,7,"[2, 6, 7, 13, 15, 16, 19]",124.4021541,10407,680,1,5,8,1.2264883846453758
basic,28,7,0,0,0,7,"[0, 25, 4, 20, 18, 7]",6,2,"[2, 19]",83.17109789,11305,898,1,1,8,1.185264473968278
basic,28,7,0,0,0,19,"[0, 25, 4, 20, 18, 7, 19]",7,1,[2],53.76021555,12106,801,1,0,8,1.3016904288278204
basic,28,7,0,0,1,2,"[0, 25, 4, 20, 18, 7, 19, 2]",8,0,[],23.61058868,12781,675,1,0,8,1.3168868000947171
basic,28,7,0,1,1,2,"[0, 25, 4, 20, 18, 7, 19, 2]",8,0,[],23.61058868,13894,1113,1,0,8,1.3168868000947171
basic,29,16,0,0,0,0,[0],1,29,"[1, 2, 3, 4, 5, 6, 7, 8, 9, 10, 11, 12, 13, 14, 15, 16, 17, 18, 19, 20, 21, 22, 23, 24, 25, 26, 27, 28, 29]",300,114,-1,13,161,9,0.0
basic,29,16,0,0,0,17,"[0, 17]",2,27,"[1, 2, 3, 4, 5, 7, 8, 9, 10, 11, 12, 13, 14, 15, 16, 18, 19, 20, 21, 22, 23, 24, 25, 26, 27, 28, 29]",241.3058776,4251,4137,2,58,9,1.0
basic,29,16,0,0,0,16,"[0, 17, 16]",3,26,"[1, 2, 3, 4, 5, 7, 8, 9, 10, 11, 12, 13, 14, 15, 18, 19, 20, 21, 22, 23, 24, 25, 26, 27, 28, 29]",212.9862731,5134,883,2,52,9,1.0529535521792848
basic,29,16,0,0,0,8,"[0, 17, 16, 8]",4,19,"[2, 3, 4, 5, 9, 12, 13, 14, 15, 19, 20, 21, 22, 23, 25, 26, 27, 28, 29]",164.6127266,5870,736,2,38,9,1.0915134501573105
basic,29,16,0,0,0,20,"[0, 17, 16, 8, 20]",5,10,"[3, 4, 5, 9, 12, 13, 15, 19, 21, 25]",106.8372993,7016,1146,1,15,9,1.067523143001942
basic,29,16,0,0,0,25,"[0, 17, 16, 8, 20, 25]",6,7,"[3, 4, 5, 9, 12, 13, 15]",94.18818869,7717,701,1,9,9,1.1170093326933646
basic,29,16,0,0,0,9,"[0, 17, 16, 8, 20, 25, 9]",7,5,"[3, 4, 5, 13, 15]",81.38194021,8437,720,1,4,9,1.1095076562662525
basic,29,16,0,0,0,15,"[0, 17, 16, 8, 20, 25, 9, 15]",8,1,[5],42.48463953,9404,967,1,0,9,1.213831159678775
basic,29,16,0,0,1,5,"[0, 17, 16, 8, 20, 25, 9, 15, 5]",9,0,[],13.0567616,10324,920,1,0,9,1.5171779607523481
basic,29,16,0,1,1,5,"[0, 17, 16, 8, 20, 25, 9, 15, 5]",9,0,[],13.0567616,11500,1176,1,0,9,1.5171779607523481
basic,30,34,0,0,0,0,[0],1,25,"[1, 3, 4, 5, 6, 7, 8, 9, 10, 11, 12, 13, 15, 18, 19, 20, 21, 22, 23, 24, 25, 26, 27, 28, 29]",300,115,-1,12,367,10,0.0
basic,30,34,0,0,0,13,"[0, 13]",2,24,"[1, 3, 4, 5, 6, 7, 8, 9, 10, 11, 12, 15, 18, 19, 20, 21, 22, 23, 24, 25, 26, 27, 28, 29]",279.9750156,2451,2336,12,331,10,1.0
basic,30,34,0,0,0,1,"[0, 13, 1]",3,16,"[3, 5, 7, 8, 9, 10, 11, 12, 19, 21, 22, 23, 24, 25, 27, 29]",211.8574701,3210,759,3,92,10,1.0010381285747127
basic,30,34,0,0,0,8,"[0, 13, 1, 8]",4,14,"[3, 5, 7, 9, 10, 11, 12, 19, 22, 23, 24, 25, 27, 29]",201.0871405,3682,472,2,54,10,1.1636807
basic,30,34,0,0,0,25,"[0, 13, 1, 8, 25]",5,12,"[3, 5, 7, 9, 10, 11, 12, 22, 23, 24, 27, 29]",183.999133,4526,844,2,28,10,1.1396208815936457
basic,30,34,0,0,0,24,"[0, 13, 1, 8, 25, 24]",6,11,"[3, 5, 7, 9, 10, 11, 12, 22, 23, 27, 29]",166.5062774,5275,749,2,23,10,1.374180768736554
basic,30,34,0,0,0,12,"[0, 13, 1, 8, 25, 24, 12]",7,7,"[7, 9, 10, 11, 22, 23, 27]",115.4670767,6087,812,1,8,10,1.4994254760835948
basic,30,34,0,0,0,7,"[0, 13, 1, 8, 25, 24, 12, 7]",8,5,"[9, 11, 22, 23, 27]",100.4337804,6807,720,1,4,10,1.758992610425009
basic,30,34,0,0,0,23,"[0, 13, 1, 8, 25, 24, 12, 7, 23]",9,1,[27],72.27352467,7382,575,1,0,10,2.399781305190153
basic,30,34,0,0,1,27,"[0, 13, 1, 8, 25, 24, 12, 7, 23, 27]",10,0,[],18.60789321,8997,1615,1,0,10,4.766619878750327
basic,30,34,0,1,1,27,"[0, 13, 1, 8, 25, 24, 12, 7, 23, 27]",10,0,[],18.60789321,9971,974,1,0,10,4.766619878750327
basic,31,9,0,0,0,0,[0],1,27,"[1, 3, 4, 5, 6, 7, 8, 9, 10, 11, 13, 14, 15, 16, 17, 18, 19, 20, 21, 22, 23, 24, 25, 26, 27, 28, 29]",300,115,-1,2,182,10,0.0
basic,31,9,0,0,0,9,"[0, 9]",2,26,"[1, 3, 4, 5, 6, 7, 8, 10, 11, 13, 14, 15, 16, 17, 18, 19, 20, 21, 22, 23, 24, 25, 26, 27, 28, 29]",225.5352432,14698,14583,2,101,9,1.0
basic,31,9,0,0,0,23,"[0, 9, 23]",3,22,"[1, 3, 4, 5, 7, 8, 10, 11, 13, 15, 16, 17, 18, 19, 20, 21, 22, 24, 25, 26, 27, 28]",203.1745635,15487,789,2,70,9,1.6262276606762436
basic,31,9,0,0,0,8,"[0, 9, 23, 8]",4,18,"[3, 4, 5, 7, 10, 11, 15, 16, 17, 18, 19, 20, 21, 22, 25, 26, 27, 28]",181.7036529,16226,739,1,36,9,1.8547307061753238
basic,31,9,0,0,0,28,"[0, 9, 23, 8, 28]",5,17,"[3, 4, 5, 7, 10, 11, 15, 16, 17, 18, 19, 20, 21, 22, 25, 26, 27]",170.8869991,16695,469,1,23,9,1.7382749966569708
basic,31,9,0,0,0,26,"[0, 9, 23, 8, 28, 26]",6,10,"[3, 5, 10, 15, 16, 18, 19, 20, 21, 25]",126.1097727,28935,12240,4,7,8,1.4884719959249546
basic,31,9,0,0,0,18,"[0, 9, 23, 8, 28, 26, 18]",7,2,"[5, 19]",65.23284771,30606,1671,2,0,8,1.3471468379657168
basic,31,9,0,0,1,5,"[0, 9, 23, 8, 28, 26, 18, 5]",8,0,[],1.342316325,33854,3248,1,0,8,1.3414453811098892
basic,31,9,0,1,1,5,"[0, 9, 23, 8, 28, 26, 18, 5]",8,0,[],1.342316325,35403,1549,1,0,8,1.3414453811098892
basic,32,25,0,0,0,0,[0],1,28,"[1, 2, 3, 4, 5, 7, 8, 9, 10, 11, 12, 13, 14, 15, 16, 17, 18, 19, 20, 21, 22, 23, 24, 25, 26, 27, 28, 29]",300,114,-1,5,94,10,0.0
basic,32,25,0,0,0,23,"[0, 23]",2,23,"[1, 2, 3, 5, 7, 8, 9, 11, 12, 13, 14, 16, 17, 19, 20, 21, 22, 24, 25, 26, 27, 28, 29]",259.7756293,4424,4310,3,33,10,1.0
basic,32,25,0,0,0,19,"[0, 23, 19]",3,21,"[1, 2, 3, 5, 7, 8, 9, 11, 12, 13, 14, 16, 17, 20, 21, 22, 24, 25, 27, 28, 29]",223.9287326,5737,1313,3,24,10,1.583101227007039
basic,32,25,0,0,0,29,"[0, 23, 19, 29]",4,19,"[1, 2, 3, 5, 7, 8, 9, 11, 12, 13, 14, 16, 17, 20, 21, 22, 24, 25, 28]",207.649912,6225,488,3,17,10,1.474631541426484
basic,32,25,0,0,0,22,"[0, 23, 19, 29, 22]",5,18,"[1, 2, 3, 5, 7, 8, 9, 11, 12, 13, 14, 16, 17, 20, 21, 24, 25, 28]",191.5253965,6742,517,3,14,10,1.4020377754906637
basic,32,25,0,0,0,7,"[0, 23, 19, 29, 22, 7]",6,7,"[3, 8, 9, 11, 13, 24, 28]",115.8814939,7664,922,3,11,10,1.5709678649326715
basic,32,25,0,0,0,24,"[0, 23, 19, 29, 22, 7, 24]",7,5,"[3, 8, 9, 13, 28]",91.12265712,8352,688,3,7,10,1.486191600033379
basic,32,25,0,0,0,9,"[0, 23, 19, 29, 22, 7, 24, 9]",8,4,"[3, 8, 13, 28]",73.09490075,9404,1052,3,3,10,1.453504870342882
basic,32,25,0,0,0,3,"[0, 23, 19, 29, 22, 7, 24, 9, 3]",9,3,"[8, 13, 28]",42.82940885,10697,1293,3,0,10,1.388955167525479
basic,32,25,0,0,1,28,"[0, 23, 19, 29, 22, 7, 24, 9, 3, 28]",10,0,[],11.52445716,12113,1416,1,0,10,1.3331084120212044
basic,32,25,0,1,1,28,"[0, 23, 19, 29, 22, 7, 24, 9, 3, 28]",10,0,[],11.52445716,13561,1448,1,0,10,1.3331084120212044
basic,33,39,0,0,0,0,[0],1,28,"[1, 2, 3, 4, 5, 6, 7, 9, 10, 11, 12, 13, 14, 15, 16, 17, 18, 19, 20, 21, 22, 23, 24, 25, 26, 27, 28, 29]",300,113,-1,1,30,10,0.0
basic,33,39,0,0,0,29,"[0, 29]",2,26,"[1, 2, 3, 4, 5, 6, 7, 9, 10, 12, 13, 14, 15, 16, 17, 18, 19, 20, 21, 22, 23, 24, 25, 26, 27, 28]",243.0614366,4622,4509,8,104,9,1.0
basic,33,39,0,0,0,12,"[0, 29, 12]",3,18,"[1, 2, 4, 5, 7, 9, 10, 13, 14, 15, 16, 18, 19, 22, 23, 24, 26, 28]",182.5221931,5612,990,5,54,9,1.0026200331524904
basic,33,39,0,0,0,10,"[0, 29, 12, 10]",4,16,"[1, 2, 4, 5, 7, 9, 13, 14, 15, 16, 18, 19, 22, 23, 24, 26]",147.0116313,6517,905,5,34,9,1.2874817019928908
basic,33,39,0,0,0,7,"[0, 29, 12, 10, 7]",5,10,"[1, 2, 5, 13, 16, 18, 19, 22, 24, 26]",113.5900814,7299,782,4,12,9,1.2250826263866774
basic,33,39,0,0,0,26,"[0, 29, 12, 10, 7, 26]",6,5,"[1, 16, 18, 19, 22]",94.90853971,7880,581,3,4,9,1.2697275353190085
basic,33,39,0,0,0,22,"[0, 29, 12, 10, 7, 26, 22]",7,2,"[16, 19]",77.18849457,8661,781,2,0,9,1.438961743955176
basic,33,39,0,0,0,16,"[0, 29, 12, 10, 7, 26, 22, 16]",8,1,[19],42.18849457,10617,1956,1,0,9,1.3580882130477205
basic,33,39,0,0,1,19,"[0, 29, 12, 10, 7, 26, 22, 16, 19]",9,0,[],24.72424537,11391,774,1,0,9,1.3646589157842668
basic,33,39,0,1,1,19,"[0, 29, 12, 10, 7, 26, 22, 16, 19]",9,0,[],24.72424537,12729,1338,1,0,9,1.3646589157842668
basic,34,17,0,0,0,0,[0],1,28,"[1, 2, 3, 4, 5, 6, 7, 8, 9, 10, 11, 12, 13, 14, 15, 16, 17, 18, 19, 20, 22, 23, 24, 25, 26, 27, 28, 29]",300,115,-1,2,73,8,0.0
basic,34,17,0,0,0,9,"[0, 9]",2,25,"[1, 2, 3, 5, 6, 7, 8, 10, 11, 12, 14, 15, 16, 17, 18, 19, 20, 22, 23, 24, 25, 26, 27, 28, 29]",210.5293344,8215,8100,1,34,8,1.0
basic,34,17,0,0,0,16,"[0, 9, 16]",3,21,"[1, 2, 3, 5, 7, 8, 10, 11, 12, 14, 17, 18, 19, 20, 22, 23, 25, 26, 27, 28, 29]",197.1876704,8772,557,1,26,8,1.173103464220352
basic,34,17,0,0,0,2,"[0, 9, 16, 2]",4,18,"[1, 3, 5, 7, 8, 10, 11, 12, 14, 17, 18, 19, 23, 25, 26, 27, 28, 29]",181.0631549,9220,448,1,23,8,1.14825089247282
basic,34,17,0,0,0,17,"[0, 9, 16, 2, 17]",5,7,"[7, 8, 12, 14, 26, 27, 29]",142.7356191,10017,797,4,5,7,1.4896040699768547
basic,34,17,0,0,0,8,"[0, 9, 16, 2, 17, 8]",6,3,"[7, 12, 27]",104.5256727,10744,727,3,0,7,1.4604726966175894
basic,34,17,0,0,1,7,"[0, 9, 16, 2, 17, 8, 7]",7,0,[],33.81499459,11620,876,1,0,7,1.4474701869793896
basic,34,17,0,1,1,7,"[0, 9, 16, 2, 17, 8, 7]",7,0,[],33.81499459,12698,1078,1,0,7,1.4474701869793896
basic,35,40,0,0,0,0,[0],1,29,"[1, 2, 3, 4, 5, 6, 7, 8, 9, 10, 11, 12, 13, 14, 15, 16, 17, 18, 19, 20, 21, 22, 23, 24, 25, 26, 27, 28, 29]",300,131,-1,8,191,9,0.0
basic,35,40,0,0,0,1,"[0, 1]",2,18,"[2, 5, 6, 7, 8, 9, 10, 11, 13, 15, 17, 18, 19, 21, 22, 23, 27, 29]",247.8463808,6369,6238,4,80,9,1.0
basic,35,40,0,0,0,6,"[0, 1, 6]",3,17,"[2, 5, 7, 8, 9, 10, 11, 13, 15, 17, 18, 19, 21, 22, 23, 27, 29]",227.7466295,6949,580,4,74,9,1.0459427008232034
basic,35,40,0,0,0,21,"[0, 1, 6, 21]",4,8,"[2, 5, 9, 17, 18, 19, 22, 23]",175.7754837,8203,1254,4,25,9,1.0308822257404064
basic,35,40,0,0,0,9,"[0, 1, 6, 21, 9]",5,6,"[2, 5, 18, 19, 22, 23]",130.0699041,9039,836,4,12,9,1.377861912961129
basic,35,40,0,0,0,18,"[0, 1, 6, 21, 9, 18]",6,5,"[2, 5, 19, 22, 23]",113.5169588,9891,852,4,4,9,1.5742712168661408
basic,35,40,0,0,0,5,"[0, 1, 6, 21, 9, 18, 5]",7,3,"[19, 22, 23]",81.94165198,11122,1231,2,1,9,1.7730665063055515
basic,35,40,0,0,0,23,"[0, 1, 6, 21, 9, 18, 5, 23]",8,1,[19],53.63970859,12002,880,1,0,9,2.597442759912231
basic,35,40,0,0,1,19,"[0, 1, 6, 21, 9, 18, 5, 23, 19]",9,0,[],21.68661797,12807,805,1,0,9,2.7128328554069565
basic,35,40,0,1,1,19,"[0, 1, 6, 21, 9, 18, 5, 23, 19]",9,0,[],21.68661797,14009,1202,1,0,9,2.7128328554069565
basic,36,18,0,0,0,0,[0],1,28,"[1, 2, 3, 4, 5, 6, 7, 8, 9, 10, 11, 12, 13, 14, 16, 17, 18, 19, 20, 21, 22, 23, 24, 25, 26, 27, 28, 29]",300,116,-1,3,136,10,0.0
basic,36,18,0,0,0,28,"[0, 28]",2,16,"[1, 3, 5, 7, 8, 9, 12, 13, 14, 16, 20, 23, 24, 25, 26, 27]",236.4311397,1998,1882,2,19,10,1.0
basic,36,18,0,0,0,7,"[0, 28, 7]",3,15,"[1, 3, 5, 8, 9, 12, 13, 14, 16, 20, 23, 24, 25, 26, 27]",214.4084242,2735,737,2,17,10,1.4345180696367563
basic,36,18,0,0,0,25,"[0, 28, 7, 25]",4,13,"[1, 3, 5, 8, 9, 12, 13, 14, 16, 20, 23, 26, 27]",186.6055466,3786,1051,2,15,10,1.8896451241781882
basic,36,18,0,0,0,8,"[0, 28, 7, 25, 8]",5,10,"[3, 5, 9, 12, 13, 14, 16, 23, 26, 27]",149.551532,8018,4232,2,10,10,1.590467437592877
basic,36,18,0,0,0,3,"[0, 28, 7, 25, 8, 3]",6,6,"[5, 12, 13, 14, 23, 27]",121.4801943,15565,7547,1,10,9,1.4587755974793148
basic,36,18,0,0,0,5,"[0, 28, 7, 25, 8, 3, 5]",7,2,"[12, 27]",63.29944145,16500,935,1,1,9,1.324334937860345
basic,36,18,0,0,0,12,"[0, 28, 7, 25, 8, 3, 5, 12]",8,1,[27],51.8976872,17189,689,1,0,9,1.3371922112868397
basic,36,18,0,0,1,27,"[0, 28, 7, 25, 8, 3, 5, 12, 27]",9,0,[],11.17914106,18769,1580,1,0,9,1.4648883530615529
basic,36,18,0,1,1,27,"[0, 28, 7, 25, 8, 3, 5, 12, 27]",9,0,[],11.17914106,19911,1142,1,0,9,1.4648883530615529
basic,37,14,0,0,0,0,[0],1,29,"[1, 2, 3, 4, 5, 6, 7, 8, 9, 10, 11, 12, 13, 14, 15, 16, 17, 18, 19, 20, 21, 22, 23, 24, 25, 26, 27, 28, 29]",300,115,-1,8,157,10,0.0
basic,37,14,0,0,0,15,"[0, 15]",2,20,"[1, 2, 3, 4, 7, 8, 9, 13, 17, 18, 19, 20, 21, 22, 23, 25, 26, 27, 28, 29]",216.7053423,2907,2792,8,102,10,1.0
basic,37,14,0,0,0,28,"[0, 15, 28]",3,17,"[1, 2, 3, 4, 7, 8, 9, 13, 17, 18, 19, 20, 22, 23, 25, 26, 27]",197.4959696,3441,534,8,48,10,1.0446007867311968
basic,37,14,0,0,0,17,"[0, 15, 28, 17]",4,14,"[1, 2, 3, 4, 7, 8, 13, 18, 19, 20, 22, 23, 25, 26]",184.0423455,3991,550,8,39,10,1.0729463354689972
basic,37,14,0,0,0,18,"[0, 15, 28, 17, 18]",5,9,"[1, 2, 4, 7, 8, 19, 23, 25, 26]",119.412631,5230,1239,8,27,10,1.5035901079219378
basic,37,14,0,0,0,8,"[0, 15, 28, 17, 18, 8]",6,8,"[1, 2, 4, 7, 19, 23, 25, 26]",105.8111605,5957,727,8,18,10,1.4819689987843856
basic,37,14,0,0,0,1,"[0, 15, 28, 17, 18, 8, 1]",7,5,"[7, 19, 23, 25, 26]",82.21031307,6675,718,4,6,10,1.4084991998385268
basic,37,14,0,0,0,19,"[0, 15, 28, 17, 18, 8, 1, 19]",8,4,"[7, 23, 25, 26]",66.97876686,7953,1278,4,1,10,1.5758713333797987
basic,37,14,0,0,0,23,"[0, 15, 28, 17, 18, 8, 1, 19, 23]",9,1,[26],22.70687962,9399,1446,1,0,10,1.4751929839361517
basic,37,14,0,0,1,26,"[0, 15, 28, 17, 18, 8, 1, 19, 23, 26]",10,0,[],11.89022579,10174,775,1,0,10,1.4521765305442214
basic,37,14,0,1,1,26,"[0, 15, 28, 17, 18, 8, 1, 19, 23, 26]",10,0,[],11.89022579,11568,1394,1,0,10,1.4521765305442214
basic,38,20,0,0,0,0,[0],1,21,"[1, 2, 3, 4, 5, 6, 7, 8, 9, 12, 17, 18, 20, 21, 22, 23, 25, 26, 27, 28, 29]",300,116,-1,1,9,9,0.0
basic,38,20,0,0,0,1,"[0, 1]",2,14,"[3, 4, 5, 6, 8, 9, 12, 20, 21, 23, 26, 27, 28, 29]",197.3501096,2930,2814,1,9,8,1.0
basic,38,20,0,0,0,5,"[0, 1, 5]",3,12,"[4, 6, 8, 9, 12, 20, 21, 23, 26, 27, 28, 29]",160.675868,4973,2043,1,8,8,1.1088946720668915
basic,38,20,0,0,0,21,"[0, 1, 5, 21]",4,8,"[4, 6, 8, 9, 20, 23, 27, 28]",115.675868,5662,689,1,6,8,1.0805828994591202
basic,38,20,0,0,0,8,"[0, 1, 5, 21, 8]",5,5,"[6, 9, 23, 27, 28]",98.21161876,6258,596,1,5,8,1.0976815296746363
basic,38,20,0,0,0,23,"[0, 1, 5, 21, 8, 23]",6,3,"[6, 9, 27]",53.52381281,7270,1012,1,2,8,1.0820667611140062
basic,38,20,0,0,0,9,"[0, 1, 5, 21, 8, 23, 9]",7,1,[6],34.3144401,9579,2309,1,0,8,1.0771429624373048
basic,38,20,0,0,1,6,"[0, 1, 5, 21, 8, 23, 9, 6]",8,0,[],11.29271124,10801,1222,1,0,8,1.0892675954154076
basic,38,20,0,1,1,6,"[0, 1, 5, 21, 8, 23, 9, 6]",8,0,[],11.29271124,11784,983,1,0,8,1.0892675954154076
basic,39,45,0,0,0,0,[0],1,24,"[1, 2, 3, 4, 5, 6, 7, 9, 10, 11, 12, 14, 15, 16, 17, 19, 20, 21, 22, 23, 24, 25, 27, 29]",300,115,-1,6,248,10,0.0
basic,39,45,0,0,0,17,"[0, 17]",2,22,"[1, 2, 3, 4, 5, 6, 7, 9, 10, 11, 12, 14, 15, 16, 19, 20, 21, 22, 23, 24, 25, 29]",235.867325,3386,3271,1,34,10,1.0
basic,39,45,0,0,0,24,"[0, 17, 24]",3,20,"[1, 2, 3, 4, 5, 6, 7, 9, 10, 11, 12, 14, 15, 16, 19, 20, 21, 22, 23, 29]",193.8078433,4685,1299,1,33,10,1.0309432256229287
basic,39,45,0,0,0,7,"[0, 17, 24, 7]",4,18,"[1, 2, 3, 4, 5, 6, 9, 10, 12, 14, 15, 16, 19, 20, 21, 22, 23, 29]",159.3985423,5954,1269,1,32,10,1.059763151913087
basic,39,45,0,0,0,2,"[0, 17, 24, 7, 2]",5,12,"[3, 4, 6, 10, 12, 14, 16, 19, 20, 22, 23, 29]",121.3853866,6917,963,1,23,10,1.0656581932115423
basic,39,45,0,0,0,3,"[0, 17, 24, 7, 2, 3]",6,8,"[6, 10, 12, 14, 16, 20, 22, 29]",96.06740884,8353,1436,1,13,10,1.1368250049574795
basic,39,45,0,0,0,29,"[0, 17, 24, 7, 2, 3, 29]",7,5,"[6, 10, 12, 20, 22]",76.06740884,8902,549,1,5,10,1.390376182346372
basic,39,45,0,0,0,10,"[0, 17, 24, 7, 2, 3, 29, 10]",8,2,"[6, 12]",54.52674961,9520,618,1,1,10,1.6682270697663164
basic,39,45,0,0,0,6,"[0, 17, 24, 7, 2, 3, 29, 10, 6]",9,1,[12],28.27794012,10642,1122,1,0,10,1.5776211572942243
basic,39,45,0,0,1,12,"[0, 17, 24, 7, 2, 3, 29, 10, 6, 12]",10,0,[],8.15332832,11548,906,1,0,10,1.536035114105263
basic,39,45,0,1,1,12,"[0, 17, 24, 7, 2, 3, 29, 10, 6, 12]",10,0,[],8.15332832,12381,833,1,0,10,1.536035114105263
basic,40,26,0,0,0,0,[0],1,29,"[1, 2, 3, 4, 5, 6, 7, 8, 9, 10, 11, 12, 13, 14, 15, 16, 17, 18, 19, 20, 21, 22, 23, 24, 25, 26, 27, 28, 29]",300,115,-1,9,226,9,0.0
basic,40,26,0,0,0,10,"[0, 10]",2,6,"[4, 6, 14, 16, 17, 29]",138.1822012,2424,2309,9,66,7,1.0
basic,40,26,0,0,0,6,"[0, 10, 6]",3,5,"[4, 14, 16, 17, 29]",108.9076389,3477,1053,8,23,7,1.1897813099332413
basic,40,26,0,0,0,14,"[0, 10, 6, 14]",4,4,"[4, 16, 17, 29]",87.88384285,4163,686,4,6,7,1.3162481558218453
basic,40,26,0,0,0,17,"[0, 10, 6, 14, 17]",5,3,"[4, 16, 29]",65.41163779,4823,660,3,1,7,1.6510075497064465
basic,40,26,0,0,0,4,"[0, 10, 6, 14, 17, 4]",6,1,[29],44.31661468,5517,694,1,0,7,2.1095586782058087
basic,40,26,0,0,1,29,"[0, 10, 6, 14, 17, 4, 29]",7,0,[],20.31661468,6403,886,1,0,7,2.288952413143475
basic,40,26,0,1,1,29,"[0, 10, 6, 14, 17, 4, 29]",7,0,[],20.31661468,7811,1408,1,0,7,2.288952413143475
basic,41,5,0,0,0,0,[0],1,29,"[1, 2, 3, 4, 5, 6, 7, 8, 9, 10, 11, 12, 13, 14, 15, 16, 17, 18, 19, 20, 21, 22, 23, 24, 25, 26, 27, 28, 29]",300,116,-1,5,139,9,0.0
basic,41,5,0,0,0,12,"[0, 12]",2,22,"[2, 4, 5, 6, 8, 9, 10, 13, 14, 15, 16, 17, 18, 19, 21, 22, 23, 24, 25, 26, 27, 28]",228.3062067,6760,6644,1,27,9,1.0
basic,41,5,0,0,0,25,"[0, 12, 25]",3,21,"[2, 4, 5, 6, 8, 9, 10, 13, 14, 15, 16, 17, 18, 19, 21, 22, 23, 24, 26, 27, 28]",200.5213187,7596,836,1,20,9,1.584023303445617
basic,41,5,0,0,0,23,"[0, 12, 25, 23]",4,19,"[2, 4, 5, 6, 8, 9, 10, 13, 14, 15, 16, 17, 18, 19, 21, 22, 24, 26, 27]",182.0822298,8192,596,1,14,9,2.3508446989254357
basic,41,5,0,0,0,24,"[0, 12, 25, 23, 24]",5,15,"[2, 4, 5, 6, 8, 9, 13, 14, 15, 17, 18, 19, 22, 26, 27]",158.995437,8880,688,1,12,9,1.9469752046288753
basic,41,5,0,0,0,17,"[0, 12, 25, 23, 24, 17]",6,7,"[4, 5, 6, 8, 15, 18, 19]",124.0097257,9739,859,1,8,9,1.6482276497563642
basic,41,5,0,0,0,5,"[0, 12, 25, 23, 24, 17, 5]",7,4,"[4, 6, 15, 18]",80.96323916,10629,890,1,3,9,1.4654649104389412
basic,41,5,0,0,1,15,"[0, 12, 25, 23, 24, 17, 5, 15]",8,0,[],40.93824697,11867,1238,1,0,8,1.4660376450939663
basic,41,5,0,1,1,15,"[0, 12, 25, 23, 24, 17, 5, 15]",8,0,[],40.93824697,12997,1130,1,0,8,1.4660376450939663
basic,42,27,0,0,0,0,[0],1,26,"[1, 3, 5, 6, 7, 8, 9, 10, 11, 12, 13, 14, 15, 16, 17, 18, 19, 21, 22, 23, 24, 25, 26, 27, 28, 29]",300,115,-1,13,578,11,0.0
basic,42,27,0,0,0,15,"[0, 15]",2,24,"[1, 3, 5, 6, 7, 8, 9, 10, 11, 12, 13, 14, 16, 17, 18, 19, 21, 22, 23, 24, 25, 26, 27, 29]",263.7508621,5841,5726,6,219,11,1.0
basic,42,27,0,0,0,24,"[0, 15, 24]",3,20,"[1, 5, 6, 7, 8, 9, 10, 12, 13, 14, 16, 17, 18, 19, 21, 23, 25, 26, 27, 29]",246.5462115,6359,518,6,130,11,1.130933077698322
basic,42,27,0,0,0,17,"[0, 15, 24, 17]",4,15,"[1, 6, 8, 10, 12, 13, 14, 16, 18, 19, 23, 25, 26, 27, 29]",229.9932662,7079,720,4,60,11,1.1285538435963374
basic,42,27,0,0,0,12,"[0, 15, 24, 17, 12]",5,14,"[1, 6, 8, 10, 13, 14, 16, 18, 19, 23, 25, 26, 27, 29]",218.8129263,7852,773,2,32,11,1.2561880288755216
basic,42,27,0,0,0,10,"[0, 15, 24, 17, 12, 10]",6,11,"[1, 8, 13, 14, 18, 19, 23, 25, 26, 27, 29]",207.7675653,8990,1138,2,28,11,1.2228289337766665
basic,42,27,0,0,0,13,"[0, 15, 24, 17, 12, 10, 13]",7,9,"[1, 8, 14, 18, 19, 23, 26, 27, 29]",167.9178476,10027,1037,2,18,11,1.3421291994761178
basic,42,27,0,0,0,19,"[0, 15, 24, 17, 12, 10, 13, 19]",8,5,"[1, 8, 14, 23, 29]",131.6825057,11364,1337,2,6,11,1.294749956153846
basic,42,27,0,0,0,8,"[0, 15, 24, 17, 12, 10, 13, 19, 8]",9,3,"[14, 23, 29]",116.816437,12580,1216,2,1,11,1.3554286578836865
basic,42,27,0,0,0,14,"[0, 15, 24, 17, 12, 10, 13, 19, 8, 14]",10,1,[29],59.25777126,15436,2856,1,0,11,1.312380420632942
basic,42,27,0,0,1,29,"[0, 15, 24, 17, 12, 10, 13, 19, 8, 14, 29]",11,0,[],14.96330208,16651,1215,1,0,11,1.4680136813839417
basic,42,27,0,1,1,29,"[0, 15, 24, 17, 12, 10, 13, 19, 8, 14, 29]",11,0,[],14.96330208,17884,1233,1,0,11,1.4680136813839417
basic,43,28,0,0,0,0,[0],1,27,"[1, 2, 3, 4, 5, 6, 7, 8, 9, 10, 11, 12, 13, 14, 15, 16, 17, 18, 19, 20, 22, 23, 25, 26, 27, 28, 29]",300,116,-1,2,96,9,0.0
basic,43,28,0,0,0,14,"[0, 14]",2,14,"[1, 2, 3, 5, 7, 10, 11, 12, 13, 17, 18, 19, 20, 26]",147.8914861,4230,4114,1,26,8,1.0
basic,43,28,0,0,0,18,"[0, 14, 18]",3,11,"[1, 2, 3, 5, 7, 11, 12, 13, 17, 19, 26]",122.3963885,5791,1561,1,23,8,1.0675599824559303
basic,43,28,0,0,0,13,"[0, 14, 18, 13]",4,7,"[2, 7, 11, 12, 17, 19, 26]",97.9832773,6612,821,1,9,8,1.0602397944415018
basic,43,28,0,0,0,12,"[0, 14, 18, 13, 12]",5,4,"[2, 7, 17, 19]",80.77862677,7982,1370,1,3,8,1.0640685934245377
basic,43,28,0,0,0,7,"[0, 14, 18, 13, 12, 7]",6,2,"[2, 19]",67.62568033,8524,542,1,1,8,1.186262804928269
basic,43,28,0,0,0,19,"[0, 14, 18, 13, 12, 7, 19]",7,1,[2],39.89483108,9398,874,1,0,8,1.424576333867947
basic,43,28,0,0,1,2,"[0, 14, 18, 13, 12, 7, 19, 2]",8,0,[],2.531747699,12432,3034,1,0,8,1.4824387893309579
basic,43,28,0,1,1,2,"[0, 14, 18, 13, 12, 7, 19, 2]",8,0,[],2.531747699,13429,997,1,0,8,1.4824387893309579
basic,44,12,0,0,0,0,[0],1,29,"[1, 2, 3, 4, 5, 6, 7, 8, 9, 10, 11, 12, 13, 14, 15, 16, 17, 18, 19, 20, 21, 22, 23, 24, 25, 26, 27, 28, 29]",300,131,-1,2,32,9,0.0
basic,44,12,0,0,0,22,"[0, 22]",2,22,"[2, 4, 5, 6, 7, 9, 10, 12, 13, 14, 15, 16, 17, 18, 19, 21, 23, 24, 25, 27, 28, 29]",211.9943184,5012,4881,6,42,8,1.0
basic,44,12,0,0,0,16,"[0, 22, 16]",3,12,"[2, 4, 5, 6, 7, 12, 14, 19, 23, 24, 25, 27]",190.9943184,5570,558,6,24,8,1.2017164145167045
basic,44,12,0,0,0,4,"[0, 22, 16, 4]",4,9,"[2, 6, 7, 12, 14, 19, 24, 25, 27]",156.7890556,6485,915,6,14,8,1.146531713305579
basic,44,12,0,0,0,12,"[0, 22, 16, 4, 12]",5,4,"[14, 19, 24, 27]",114.5990094,7399,914,4,3,8,1.1221389456954312
basic,44,12,0,0,0,27,"[0, 22, 16, 4, 12, 27]",6,3,"[14, 19, 24]",90.24741807,8091,692,2,1,8,1.2262878338287035
basic,44,12,0,0,0,14,"[0, 22, 16, 4, 12, 27, 14]",7,1,[24],61.59432051,8866,775,1,0,8,1.2804562106751427
basic,44,12,0,0,1,24,"[0, 22, 16, 4, 12, 27, 14, 24]",8,0,[],44.38966997,9758,892,1,0,8,1.4322660007679802
basic,44,12,0,1,1,24,"[0, 22, 16, 4, 12, 27, 14, 24]",8,0,[],44.38966997,11517,1759,1,0,8,1.4322660007679802
basic,45,42,0,0,0,0,[0],1,29,"[1, 2, 3, 4, 5, 6, 7, 8, 9, 10, 11, 12, 13, 14, 15, 16, 17, 18, 19, 20, 21, 22, 23, 24, 25, 26, 27, 28, 29]",300,116,-1,16,302,9,0.0
basic,45,42,0,0,0,4,"[0, 4]",2,28,"[1, 2, 3, 5, 6, 7, 8, 9, 10, 11, 12, 13, 14, 15, 16, 17, 18, 19, 20, 21, 22, 23, 24, 25, 26, 27, 28, 29]",209.5290102,6652,6536,4,80,9,1.0
basic,45,42,0,0,0,22,"[0, 4, 22]",3,24,"[1, 2, 3, 5, 6, 7, 8, 9, 10, 11, 13, 15, 17, 18, 19, 20, 21, 23, 24, 25, 26, 27, 28, 29]",198.3486703,10612,3960,3,53,9,1.1473032812120834
basic,45,42,0,0,0,8,"[0, 4, 22, 8]",4,21,"[1, 2, 3, 5, 6, 7, 10, 11, 15, 17, 18, 19, 20, 21, 23, 24, 25, 26, 27, 28, 29]",176.2127267,11216,604,2,36,9,1.1513227322639639
basic,45,42,0,0,0,1,"[0, 4, 22, 8, 1]",5,12,"[2, 5, 6, 7, 10, 15, 18, 19, 24, 26, 27, 28]",127.1209758,13257,2041,2,24,9,1.1101621876186907
basic,45,42,0,0,0,27,"[0, 4, 22, 8, 1, 27]",6,4,"[2, 7, 19, 26]",68.90585752,14282,1025,3,3,8,1.0837553044946897
basic,45,42,0,0,0,26,"[0, 4, 22, 8, 1, 27, 26]",7,3,"[2, 7, 19]",50.87810114,15223,941,3,0,8,1.2581914083838384
basic,45,42,0,0,1,19,"[0, 4, 22, 8, 1, 27, 26, 19]",8,0,[],15.99257406,18542,3319,1,0,8,1.313428320698395
basic,45,42,0,1,1,19,"[0, 4, 22, 8, 1, 27, 26, 19]",8,0,[],15.99257406,19662,1120,1,0,8,1.313428320698395
basic,46,10,0,0,0,0,[0],1,29,"[1, 2, 3, 4, 5, 6, 7, 8, 9, 10, 11, 12, 13, 14, 15, 16, 17, 18, 19, 20, 21, 22, 23, 24, 25, 26, 27, 28, 29]",300,115,-1,1,100,9,0.0
basic,46,10,0,0,0,13,"[0, 13]",2,25,"[1, 2, 3, 4, 6, 7, 8, 9, 10, 11, 12, 14, 17, 18, 19, 20, 21, 22, 23, 24, 25, 26, 27, 28, 29]",249.4628849,6181,6066,1,79,9,1.0
basic,46,10,0,0,0,19,"[0, 13, 19]",3,12,"[2, 6, 8, 9, 10, 11, 14, 18, 20, 24, 26, 27]",180.5861835,7049,868,11,79,8,1.0000581961988606
basic,46,10,0,0,0,2,"[0, 13, 19, 2]",4,5,"[11, 14, 20, 26, 27]",136.6771867,8517,1468,3,9,8,1.000456581399483
basic,46,10,0,0,0,14,"[0, 13, 19, 2, 14]",5,4,"[11, 20, 26, 27]",124.5116616,9320,803,3,6,8,1.0972737011325653
basic,46,10,0,0,0,26,"[0, 13, 19, 2, 14, 26]",6,3,"[11, 20, 27]",89.84178999,10458,1138,3,1,8,1.5868342521575007
basic,46,10,0,0,0,11,"[0, 13, 19, 2, 14, 26, 11]",7,1,[20],48.08056395,13792,3334,1,0,8,2.7772471764176028
basic,46,10,0,0,1,20,"[0, 13, 19, 2, 14, 26, 11, 20]",8,0,[],10.00169842,14663,871,1,0,8,2.3959438836221785
basic,46,10,0,1,1,20,"[0, 13, 19, 2, 14, 26, 11, 20]",8,0,[],10.00169842,15690,1027,1,0,8,2.3959438836221785
basic,47,35,0,0,0,0,[0],1,29,"[1, 2, 3, 4, 5, 6, 7, 8, 9, 10, 11, 12, 13, 14, 15, 16, 17, 18, 19, 20, 21, 22, 23, 24, 25, 26, 27, 28, 29]",300,111,-1,5,236,11,0.0
basic,47,35,0,0,0,24,"[0, 24]",2,27,"[1, 2, 4, 5, 6, 7, 8, 9, 10, 11, 12, 13, 14, 15, 16, 17, 18, 19, 20, 21, 22, 23, 25, 26, 27, 28, 29]",268.9838752,5744,5633,49,512,10,1.0
basic,47,35,0,0,0,17,"[0, 24, 17]",3,26,"[1, 2, 4, 5, 6, 7, 8, 9, 10, 11, 12, 13, 14, 15, 16, 18, 19, 20, 21, 22, 23, 25, 26, 27, 28, 29]",257.2791753,6581,837,33,238,10,1.0771477201815276
basic,47,35,0,0,0,1,"[0, 24, 17, 1]",4,25,"[2, 4, 5, 6, 7, 8, 9, 10, 11, 12, 13, 14, 15, 16, 18, 19, 20, 21, 22, 23, 25, 26, 27, 28, 29]",241.4677869,7278,697,26,151,10,1.2244804141479215
basic,47,35,0,0,0,9,"[0, 24, 17, 1, 9]",5,13,"[2, 4, 5, 6, 15, 18, 19, 23, 25, 26, 27, 28, 29]",171.9408138,8793,1515,23,25,9,1.1391705391673446
basic,47,35,0,0,0,18,"[0, 24, 17, 1, 9, 18]",6,9,"[4, 5, 6, 15, 19, 23, 25, 27, 28]",151.9158294,9511,718,11,8,9,1.1512300765384265
basic,47,35,0,0,0,25,"[0, 24, 17, 1, 9, 18, 25]",7,3,"[5, 6, 23]",118.0779807,11390,1879,4,1,9,1.1233821517043756
basic,47,35,0,0,0,6,"[0, 24, 17, 1, 9, 18, 25, 6]",8,2,"[5, 23]",94.05715644,12057,667,2,0,9,1.3618604674216885
basic,47,35,0,0,1,23,"[0, 24, 17, 1, 9, 18, 25, 6, 23]",9,0,[],48.4063076,12947,890,1,0,9,2.3663755774656274
basic,47,35,0,1,1,23,"[0, 24, 17, 1, 9, 18, 25, 6, 23]",9,0,[],48.4063076,14621,1674,1,0,9,2.3663755774656274
basic,48,13,0,0,0,0,[0],1,29,"[1, 2, 3, 4, 5, 6, 7, 8, 9, 10, 11, 12, 13, 14, 15, 16, 17, 18, 19, 20, 21, 22, 23, 24, 25, 26, 27, 28, 29]",300,148,-1,60,2676,11,0.0
basic,48,13,0,0,0,24,"[0, 24]",2,28,"[1, 2, 3, 4, 5, 6, 7, 8, 9, 10, 11, 12, 13, 14, 15, 16, 17, 18, 19, 20, 21, 22, 23, 25, 26, 27, 28, 29]",288.8196601,2355,2207,16,1444,11,1.0
basic,48,13,0,0,0,23,"[0, 24, 23]",3,27,"[1, 2, 3, 4, 5, 6, 7, 8, 9, 10, 11, 12, 13, 14, 15, 16, 17, 18, 19, 20, 21, 22, 25, 26, 27, 28, 29]",243.1140806,3526,1171,2,868,11,1.0065545717039834
basic,48,13,0,0,0,28,"[0, 24, 23, 28]",4,21,"[1, 2, 3, 4, 6, 7, 9, 10, 11, 12, 13, 15, 16, 17, 19, 20, 21, 22, 26, 27, 29]",177.7458926,4640,1114,1,253,11,1.6592183354372274
basic,48,13,0,0,0,2,"[0, 24, 23, 28, 2]",5,15,"[1, 3, 6, 7, 9, 11, 12, 13, 15, 16, 17, 19, 21, 26, 29]",140.1028322,5629,989,1,80,11,1.459046951791535
basic,48,13,0,0,0,29,"[0, 24, 23, 28, 2, 29]",6,9,"[1, 6, 7, 11, 13, 16, 17, 19, 26]",128.3981322,6255,626,1,31,11,1.5417142413159963
basic,48,13,0,0,0,7,"[0, 24, 23, 28, 2, 29, 7]",7,8,"[1, 6, 11, 13, 16, 17, 19, 26]",113.1337947,6873,618,1,10,11,1.77525557938341
basic,48,13,0,0,0,26,"[0, 24, 23, 28, 2, 29, 7, 26]",8,6,"[1, 6, 11, 13, 16, 19]",102.6934882,7548,675,1,4,11,2.0623372568692724
basic,48,13,0,0,0,6,"[0, 24, 23, 28, 2, 29, 7, 26, 6]",9,3,"[11, 13, 16]",82.59373697,8056,508,1,2,11,2.002320377701536
basic,48,13,0,0,0,11,"[0, 24, 23, 28, 2, 29, 7, 26, 6, 11]",10,1,[13],63.48876379,8885,829,1,0,11,1.8540921292495773
basic,48,13,0,0,1,13,"[0, 24, 23, 28, 2, 29, 7, 26, 6, 11, 13]",11,0,[],7.408464223,10247,1362,1,0,11,1.6123988786574368
basic,48,13,0,1,1,13,"[0, 24, 23, 28, 2, 29, 7, 26, 6, 11, 13]",11,0,[],7.408464223,11334,1087,1,0,11,1.6123988786574368
basic,49,4,0,0,0,0,[0],1,26,"[3, 4, 5, 6, 7, 8, 10, 11, 12, 13, 14, 15, 16, 17, 18, 19, 20, 21, 22, 23, 24, 25, 26, 27, 28, 29]",300,115,-1,4,489,10,0.0
basic,49,4,0,0,0,28,"[0, 28]",2,21,"[3, 4, 5, 6, 10, 11, 12, 13, 14, 15, 16, 17, 19, 20, 21, 22, 23, 24, 25, 26, 27]",225.9392142,3801,3686,2,216,10,1.0
basic,49,4,0,0,0,14,"[0, 28, 14]",3,13,"[3, 4, 5, 6, 11, 13, 16, 17, 20, 21, 22, 24, 25]",159.6972335,4940,1139,1,26,10,1.0273973946789214
basic,49,4,0,0,0,25,"[0, 28, 14, 25]",4,12,"[3, 4, 5, 6, 11, 13, 16, 17, 20, 21, 22, 24]",143.572718,5571,631,1,25,10,1.233547772313525
basic,49,4,0,0,0,11,"[0, 28, 14, 25, 11]",5,10,"[3, 4, 5, 6, 13, 16, 17, 20, 21, 22]",124.7844238,6131,560,1,15,10,1.425978575879479
basic,49,4,0,0,0,16,"[0, 28, 14, 25, 11, 16]",6,9,"[3, 4, 5, 6, 13, 17, 20, 21, 22]",109.7844238,10163,4032,1,12,10,1.3799325158051412
basic,49,4,0,0,0,17,"[0, 28, 14, 25, 11, 16, 17]",7,5,"[3, 5, 20, 21, 22]",83.70761416,14646,4483,1,5,10,1.3195184878861832
basic,49,4,0,0,0,21,"[0, 28, 14, 25, 11, 16, 17, 21]",8,1,[22],34.45317274,15565,919,1,0,9,1.7966566629354186
basic,49,4,0,0,1,22,"[0, 28, 14, 25, 11, 16, 17, 21, 22]",9,0,[],23.40781172,16741,1176,1,0,9,1.7433011729935863
basic,49,4,0,1,1,22,"[0, 28, 14, 25, 11, 16, 17, 21, 22]",9,0,[],23.40781172,17883,1142,1,0,9,1.7433011729935863
basic,50,36,0,0,0,0,[0],1,24,"[2, 4, 5, 6, 7, 8, 9, 10, 12, 13, 14, 15, 16, 17, 18, 19, 20, 22, 23, 25, 26, 27, 28, 29]",300,115,-1,2,200,10,0.0
basic,50,36,0,0,0,9,"[0, 9]",2,16,"[2, 4, 8, 10, 12, 13, 16, 17, 18, 19, 23, 25, 26, 27, 28, 29]",230.9348134,7482,7367,81,367,8,1.0
basic,50,36,0,0,0,16,"[0, 9, 16]",3,10,"[2, 10, 12, 13, 17, 18, 19, 23, 25, 27]",183.637879,8580,1098,16,49,8,1.090165866783516
basic,50,36,0,0,0,17,"[0, 9, 16, 17]",4,8,"[2, 10, 12, 13, 18, 19, 23, 25]",155.3182745,9436,856,13,21,8,1.530787871385863
basic,50,36,0,0,0,19,"[0, 9, 16, 17, 19]",5,7,"[2, 10, 12, 13, 18, 23, 25]",127.4256232,10242,806,8,6,8,2.238961045332441
basic,50,36,0,0,0,2,"[0, 9, 16, 17, 19, 2]",6,3,"[10, 13, 25]",90.30420077,14287,4045,3,1,8,1.8568787688562653
basic,50,36,0,0,0,25,"[0, 9, 16, 17, 19, 2, 25]",7,2,"[10, 13]",65.30420077,15100,813,2,0,8,2.049920884177255
basic,50,36,0,0,1,13,"[0, 9, 16, 17, 19, 2, 25, 13]",8,0,[],44.71294049,15922,822,1,0,8,2.602802798289571
basic,50,36,0,1,1,13,"[0, 9, 16, 17, 19, 2, 25, 13]",8,0,[],44.71294049,16770,848,1,0,8,2.602802798289571
basic,51,22,0,0,0,0,[0],1,29,"[1, 2, 3, 4, 5, 6, 7, 8, 9, 10, 11, 12, 13, 14, 15, 16, 17, 18, 19, 20, 21, 22, 23, 24, 25, 26, 27, 28, 29]",300,115,-1,31,704,9,0.0
basic,51,22,0,0,0,16,"[0, 16]",2,21,"[1, 3, 6, 7, 8, 9, 11, 13, 14, 15, 17, 18, 19, 20, 21, 22, 24, 25, 27, 28, 29]",218.605897,3178,3063,17,147,9,1.0
basic,51,22,0,0,0,28,"[0, 16, 28]",3,13,"[6, 7, 9, 13, 14, 17, 19, 20, 21, 22, 24, 25, 29]",184.1675463,4343,1165,12,61,9,1.047282311284478
basic,51,22,0,0,0,6,"[0, 16, 28, 6]",4,12,"[7, 9, 13, 14, 17, 19, 20, 21, 22, 24, 25, 29]",154.1675463,5195,852,12,43,9,1.645645870580622
basic,51,22,0,0,0,9,"[0, 16, 28, 6, 9]",5,8,"[7, 14, 17, 19, 20, 21, 24, 29]",127.5404924,6479,1284,8,17,9,1.925750226630103
basic,51,22,0,0,0,14,"[0, 16, 28, 6, 9, 14]",6,5,"[7, 17, 19, 24, 29]",84.49400589,14488,8009,2,4,9,1.6636058370259441
basic,51,22,0,0,0,7,"[0, 16, 28, 6, 9, 14, 7]",7,4,"[17, 19, 24, 29]",71.45560108,15138,650,2,2,9,1.8172242553661921
basic,51,22,0,0,0,19,"[0, 16, 28, 6, 9, 14, 7, 19]",8,1,[29],25.18465988,16501,1363,1,0,9,3.451408325118739
basic,51,22,0,0,1,29,"[0, 16, 28, 6, 9, 14, 7, 19, 29]",9,0,[],10.1513635,17213,712,1,0,9,3.763950601205494
basic,51,22,0,1,1,29,"[0, 16, 28, 6, 9, 14, 7, 19, 29]",9,0,[],10.1513635,18133,920,1,0,9,3.763950601205494
basic,52,43,0,0,0,0,[0],1,23,"[1, 2, 3, 4, 5, 6, 7, 9, 10, 11, 12, 14, 15, 16, 17, 19, 20, 21, 22, 23, 25, 27, 29]",300,115,-1,16,556,12,0.0
basic,52,43,0,0,0,29,"[0, 29]",2,22,"[1, 2, 3, 4, 5, 6, 7, 9, 10, 11, 12, 14, 15, 16, 17, 19, 20, 21, 22, 23, 25, 27]",277.909278,5406,5291,16,520,12,1.0
basic,52,43,0,0,0,25,"[0, 29, 25]",3,17,"[1, 2, 3, 4, 5, 6, 7, 9, 11, 12, 14, 15, 16, 19, 20, 22, 23]",213.0247652,6705,1299,2,138,11,1.0966556668308567
basic,52,43,0,0,0,15,"[0, 29, 25, 15]",4,15,"[1, 2, 3, 4, 6, 7, 9, 11, 12, 14, 16, 19, 20, 22, 23]",190.3531971,7667,962,2,69,11,1.3261570119896458
basic,52,43,0,0,0,12,"[0, 29, 25, 15, 12]",5,14,"[1, 2, 3, 4, 6, 7, 9, 11, 14, 16, 19, 20, 22, 23]",171.0399892,8348,681,2,51,11,1.3044910729993737
basic,52,43,0,0,0,3,"[0, 29, 25, 15, 12, 3]",6,12,"[1, 4, 6, 7, 9, 11, 14, 16, 19, 20, 22, 23]",158.0399892,8944,596,2,46,11,1.274324793685448
basic,52,43,0,0,0,22,"[0, 29, 25, 15, 12, 3, 22]",7,10,"[1, 4, 6, 7, 11, 14, 16, 19, 20, 23]",123.3268792,9910,966,1,25,11,1.481304503066713
basic,52,43,0,0,0,19,"[0, 29, 25, 15, 12, 3, 22, 19]",8,7,"[1, 4, 6, 7, 11, 14, 16]",102.7113511,10514,604,1,10,11,1.420114769221491
basic,52,43,0,0,0,1,"[0, 29, 25, 15, 12, 3, 22, 19, 1]",9,5,"[4, 6, 7, 11, 14]",74.53334551,13222,2708,1,4,11,1.5662694822598193
basic,52,43,0,0,0,6,"[0, 29, 25, 15, 12, 3, 22, 19, 1, 6]",10,1,[11],26.26327197,14213,991,1,0,11,2.4819605034842556
basic,52,43,0,0,1,11,"[0, 29, 25, 15, 12, 3, 22, 19, 1, 6, 11]",11,0,[],5.647743839,15044,831,1,0,11,3.234640177593407
basic,52,43,0,1,1,11,"[0, 29, 25, 15, 12, 3, 22, 19, 1, 6, 11]",11,0,[],5.647743839,16171,1127,1,0,11,3.234640177593407
basic,53,19,0,0,0,0,[0],1,29,"[1, 2, 3, 4, 5, 6, 7, 8, 9, 10, 11, 12, 13, 14, 15, 16, 17, 18, 19, 20, 21, 22, 23, 24, 25, 26, 27, 28, 29]",300,116,-1,12,149,8,0.0
basic,53,19,0,0,0,29,"[0, 29]",2,28,"[1, 2, 3, 4, 5, 6, 7, 8, 9, 10, 11, 12, 13, 14, 15, 16, 17, 18, 19, 20, 21, 22, 23, 24, 25, 26, 27, 28]",265.0715016,9138,9022,12,120,8,1.0
basic,53,19,0,0,0,9,"[0, 29, 9]",3,17,"[1, 4, 5, 6, 7, 10, 11, 12, 13, 14, 19, 20, 21, 22, 24, 27, 28]",181.7108394,10297,1159,11,65,8,1.0375842971861238
basic,53,19,0,0,0,6,"[0, 29, 9, 6]",4,12,"[4, 7, 10, 11, 13, 14, 20, 21, 22, 24, 27, 28]",140.2741407,11018,721,11,34,8,1.0389786364356892
basic,53,19,0,0,0,28,"[0, 29, 9, 6, 28]",5,5,"[4, 11, 14, 22, 27]",89.18598161,12697,1679,2,4,8,1.2864082671854424
basic,53,19,0,0,0,4,"[0, 29, 9, 6, 28, 4]",6,4,"[11, 14, 22, 27]",78.00564173,13439,742,2,2,8,1.3470045407445053
basic,53,19,0,0,0,14,"[0, 29, 9, 6, 28, 4, 14]",7,1,[11],27.99564273,14610,1171,1,0,8,1.3006971582050546
basic,53,19,0,0,1,11,"[0, 29, 9, 6, 28, 4, 14, 11]",8,0,[],17.1789889,15214,604,1,0,8,1.289914895833058
basic,53,19,0,1,1,11,"[0, 29, 9, 6, 28, 4, 14, 11]",8,0,[],17.1789889,16339,1125,1,0,8,1.289914895833058
basic,54,1,0,0,0,0,[0],1,26,"[1, 2, 4, 5, 7, 8, 9, 10, 11, 12, 13, 14, 15, 16, 17, 18, 19, 20, 21, 22, 23, 24, 25, 26, 28, 29]",300,130,-1,6,74,7,0.0
basic,54,1,0,0,0,8,"[0, 8]",2,23,"[1, 4, 5, 7, 9, 10, 11, 12, 13, 14, 15, 16, 17, 18, 19, 20, 21, 23, 24, 25, 26, 28, 29]",202,3266,3136,1,16,7,1.0
basic,54,1,0,0,0,20,"[0, 8, 20]",3,12,"[1, 4, 5, 11, 13, 14, 15, 17, 18, 19, 28, 29]",125.9408125,4125,859,1,7,7,1.02364736730791
basic,54,1,0,0,0,5,"[0, 8, 20, 5]",4,7,"[1, 4, 11, 13, 17, 18, 29]",104.469902,5687,1562,1,3,7,1.0439599203945713
basic,54,1,0,0,0,18,"[0, 8, 20, 5, 18]",5,2,"[4, 29]",81.64447755,6440,753,1,1,7,1.0840407791793756
basic,54,1,0,0,0,4,"[0, 8, 20, 5, 18, 4]",6,1,[29],42.69579336,8519,2079,1,0,7,1.0902329133216275
basic,54,1,0,0,1,29,"[0, 8, 20, 5, 18, 4, 29]",7,0,[],6.640280603,13040,4521,1,0,7,1.2859729622882756
basic,54,1,0,1,1,29,"[0, 8, 20, 5, 18, 4, 29]",7,0,[],6.640280603,14142,1102,1,0,7,1.2859729622882756
basic,55,0,0,0,0,0,[0],1,27,"[2, 3, 4, 5, 6, 7, 8, 9, 10, 11, 12, 13, 14, 15, 16, 17, 19, 20, 21, 22, 23, 24, 25, 26, 27, 28, 29]",300,115,-1,104,1136,9,0.0
basic,55,0,0,0,0,5,"[0, 5]",2,24,"[2, 3, 4, 7, 8, 9, 11, 12, 13, 14, 15, 16, 17, 19, 20, 21, 22, 23, 24, 25, 26, 27, 28, 29]",164.5156836,4004,3889,5,112,9,1.0
basic,55,0,0,0,0,26,"[0, 5, 26]",3,19,"[3, 4, 7, 8, 9, 11, 12, 13, 14, 15, 17, 19, 20, 21, 22, 23, 24, 25, 28]",129.0755933,4731,727,1,27,9,1.0579955168289483
basic,55,0,0,0,0,4,"[0, 5, 26, 4]",4,15,"[3, 7, 8, 9, 11, 12, 14, 15, 17, 19, 20, 21, 23, 24, 28]",117.0339987,5481,750,1,18,9,1.168807644221424
basic,55,0,0,0,0,24,"[0, 5, 26, 4, 24]",5,12,"[3, 7, 8, 9, 11, 12, 15, 17, 19, 20, 23, 28]",105.6322444,6109,628,1,16,9,1.1650490498282802
basic,55,0,0,0,0,15,"[0, 5, 26, 4, 24, 15]",6,8,"[3, 7, 8, 9, 11, 12, 17, 19]",82.28700938,8351,2242,1,8,9,1.151743263817517
basic,55,0,0,0,0,7,"[0, 5, 26, 4, 24, 15, 7]",7,4,"[3, 8, 17, 19]",51.22256025,9970,1619,1,3,9,1.2134907370618446
basic,55,0,0,0,0,8,"[0, 5, 26, 4, 24, 15, 7, 8]",8,1,[3],32.11758707,10944,974,1,0,9,1.2041635451831998
basic,55,0,0,0,1,3,"[0, 5, 26, 4, 24, 15, 7, 8, 3]",9,0,[],1.703774421,11679,735,1,0,9,1.3761575037949692
basic,55,0,0,1,1,3,"[0, 5, 26, 4, 24, 15, 7, 8, 3]",9,0,[],1.703774421,12797,1118,1,0,9,1.3761575037949692
basic,56,3,0,0,0,0,[0],1,29,"[1, 2, 3, 4, 5, 6, 7, 8, 9, 10, 11, 12, 13, 14, 15, 16, 17, 18, 19, 20, 21, 22, 23, 24, 25, 26, 27, 28, 29]",300,114,-1,34,427,10,0.0
basic,56,3,0,0,0,17,"[0, 17]",2,16,"[3, 4, 7, 8, 10, 12, 14, 15, 16, 19, 20, 21, 22, 24, 26, 27]",197.6965299,3352,3238,2,27,9,1.0
basic,56,3,0,0,0,20,"[0, 17, 20]",3,13,"[3, 4, 7, 8, 10, 14, 15, 16, 19, 21, 22, 24, 27]",185.0474192,4025,673,2,24,9,1.0153332121237257
basic,56,3,0,0,0,3,"[0, 17, 20, 3]",4,10,"[4, 7, 8, 10, 14, 15, 16, 19, 21, 24]",164.6513412,4591,566,2,22,9,1.0819240770773468
basic,56,3,0,0,0,19,"[0, 17, 20, 3, 19]",5,6,"[4, 8, 10, 14, 21, 24]",127.3150318,5318,727,2,11,9,1.1701070532957258
basic,56,3,0,0,0,21,"[0, 17, 20, 3, 19, 21]",6,5,"[4, 8, 10, 14, 24]",115.1084762,6021,703,2,6,9,1.202395500952127
basic,56,3,0,0,0,14,"[0, 17, 20, 3, 19, 21, 14]",7,4,"[4, 8, 10, 24]",88.20122806,6935,914,2,2,9,1.6456130302761207
basic,56,3,0,0,1,10,"[0, 17, 20, 3, 19, 21, 14, 10]",8,0,[],42.74795535,8097,1162,1,0,8,1.6337827075255185
basic,56,3,0,1,1,10,"[0, 17, 20, 3, 19, 21, 14, 10]",8,0,[],42.74795535,9655,1558,1,0,8,1.6337827075255185
basic,57,31,0,0,0,0,[0],1,27,"[1, 3, 4, 5, 6, 7, 8, 10, 11, 12, 13, 14, 15, 16, 17, 18, 19, 20, 21, 22, 23, 24, 25, 26, 27, 28, 29]",300,115,-1,2,87,10,0.0
basic,57,31,0,0,0,27,"[0, 27]",2,26,"[1, 3, 4, 5, 6, 7, 8, 10, 11, 12, 13, 14, 15, 16, 17, 18, 19, 20, 21, 22, 23, 24, 25, 26, 28, 29]",259.5030865,3630,3515,14,191,9,1.0
basic,57,31,0,0,0,8,"[0, 27, 8]",3,23,"[1, 3, 5, 6, 7, 10, 11, 12, 13, 14, 15, 16, 17, 18, 19, 20, 21, 22, 24, 25, 26, 28, 29]",248.4577255,4156,526,9,131,9,1.481736210960148
basic,57,31,0,0,0,18,"[0, 27, 8, 18]",4,19,"[1, 3, 5, 6, 7, 10, 11, 12, 13, 14, 16, 17, 19, 20, 21, 22, 25, 28, 29]",212.6108289,7052,2896,5,65,9,1.3573609555685873
basic,57,31,0,0,0,17,"[0, 27, 8, 18, 17]",5,14,"[1, 5, 6, 7, 11, 12, 13, 14, 16, 19, 20, 22, 25, 28]",183.4046651,7724,672,4,35,9,1.288051401172667
basic,57,31,0,0,0,11,"[0, 27, 8, 18, 17, 11]",6,11,"[1, 5, 7, 12, 14, 16, 19, 20, 22, 25, 28]",142.2950555,9504,1780,3,7,9,2.5759979840041423
basic,57,31,0,0,0,5,"[0, 27, 8, 18, 17, 11, 5]",7,3,"[16, 25, 28]",98.61439621,10426,922,2,1,9,2.29559828660968
basic,57,31,0,0,0,28,"[0, 27, 8, 18, 17, 11, 5, 28]",8,1,[16],78.3906478,11245,819,1,0,9,2.0646336243139256
basic,57,31,0,0,1,16,"[0, 27, 8, 18, 17, 11, 5, 28, 16]",9,0,[],44.77517517,12212,967,1,0,9,1.911005813618587
