condition,trial_id,map_id,undoIndicator,submit,checkEnd,currentChoice,chosen_all,n_city_all,n_within_reach,cities_reach,currentBudget,time_all,rt_all,n_opt_paths_all,n_subopt_paths_all,mas_all,tortuosity_all
undo,0,3,0,0,0,0,[0],1,29,"[1, 2, 3, 4, 5, 6, 7, 8, 9, 10, 11, 12, 13, 14, 15, 16, 17, 18, 19, 20, 21, 22, 23, 24, 25, 26, 27, 28, 29]",300,158,-1,34,427,10,0.0
undo,0,3,0,0,0,8,"[0, 8]",2,28,"[1, 2, 3, 4, 5, 6, 7, 9, 10, 11, 12, 13, 14, 15, 16, 17, 18, 19, 20, 21, 22, 23, 24, 25, 26, 27, 28, 29]",239.9666759,16384,16226,1,54,10,1.0
undo,0,3,0,0,0,24,"[0, 8, 24]",3,23,"[1, 2, 3, 4, 5, 6, 7, 10, 11, 12, 14, 15, 16, 17, 18, 19, 20, 21, 22, 25, 26, 27, 28]",227.8011509,17615,1231,1,50,10,1.2267083825981846
undo,0,3,0,0,0,17,"[0, 8, 24, 17]",4,11,"[3, 4, 7, 10, 14, 15, 16, 19, 20, 21, 27]",158.4469873,19231,1616,1,18,10,1.3836579788002414
undo,0,3,0,0,0,20,"[0, 8, 24, 17, 20]",5,9,"[3, 4, 7, 10, 14, 15, 16, 19, 21]",145.7978767,20327,1096,1,14,10,1.3620097615632467
undo,0,3,0,0,0,3,"[0, 8, 24, 17, 20, 3]",6,5,"[4, 10, 14, 19, 21]",125.4017986,21327,1000,1,11,10,1.3956695218398405
undo,0,3,0,0,0,19,"[0, 8, 24, 17, 20, 3, 19]",7,4,"[4, 10, 14, 21]",88.06548922,22431,1104,1,4,10,1.4360605238855817
undo,0,3,0,0,0,21,"[0, 8, 24, 17, 20, 3, 19, 21]",8,2,"[10, 14]",75.85893361,23214,783,1,1,10,1.4576450248605066
undo,0,3,0,0,0,14,"[0, 8, 24, 17, 20, 3, 19, 21, 14]",9,1,[10],48.95168551,26831,3617,1,0,10,1.9505702217699148
undo,0,3,1,0,0,21,"[0, 8, 24, 17, 20, 3, 19, 21]",8,2,"[10, 14]",75.85893361,33364,6533,1,1,10,1.4576450248605066
undo,0,3,1,0,0,19,"[0, 8, 24, 17, 20, 3, 19]",7,4,"[4, 10, 14, 21]",88.06548922,33765,401,1,4,10,1.4360605238855817
undo,0,3,1,0,0,3,"[0, 8, 24, 17, 20, 3]",6,5,"[4, 10, 14, 19, 21]",125.4017986,33981,216,1,11,10,1.3956695218398405
undo,0,3,1,0,0,20,"[0, 8, 24, 17, 20]",5,9,"[3, 4, 7, 10, 14, 15, 16, 19, 21]",145.7978767,34181,200,1,14,10,1.3620097615632467
undo,0,3,1,0,0,17,"[0, 8, 24, 17]",4,11,"[3, 4, 7, 10, 14, 15, 16, 19, 20, 21, 27]",158.4469873,34398,217,1,18,10,1.3836579788002414
undo,0,3,1,0,0,24,"[0, 8, 24]",3,23,"[1, 2, 3, 4, 5, 6, 7, 10, 11, 12, 14, 15, 16, 17, 18, 19, 20, 21, 22, 25, 26, 27, 28]",227.8011509,34848,450,1,50,10,1.2267083825981846
undo,0,3,1,0,0,8,"[0, 8]",2,28,"[1, 2, 3, 4, 5, 6, 7, 9, 10, 11, 12, 13, 14, 15, 16, 17, 18, 19, 20, 21, 22, 23, 24, 25, 26, 27, 28, 29]",239.9666759,35098,250,1,54,10,1.0
undo,0,3,1,0,0,0,[0],1,29,"[1, 2, 3, 4, 5, 6, 7, 8, 9, 10, 11, 12, 13, 14, 15, 16, 17, 18, 19, 20, 21, 22, 23, 24, 25, 26, 27, 28, 29]",300,38032,2934,34,427,10,0.0
undo,0,3,0,0,0,7,"[0, 7]",2,28,"[1, 2, 3, 4, 5, 6, 8, 9, 10, 11, 12, 13, 14, 15, 16, 17, 18, 19, 20, 21, 22, 23, 24, 25, 26, 27, 28, 29]",278.8103799,39835,1803,24,215,10,1.0
undo,0,3,0,0,0,8,"[0, 7, 8]",3,24,"[1, 2, 3, 4, 5, 6, 10, 11, 12, 13, 14, 15, 16, 17, 18, 19, 20, 21, 22, 24, 25, 26, 27, 28]",222.837172,40902,1067,16,114,10,1.2853332575451413
undo,0,3,0,0,0,24,"[0, 7, 8, 24]",4,21,"[1, 3, 4, 5, 6, 10, 11, 12, 14, 15, 16, 17, 18, 19, 20, 21, 22, 25, 26, 27, 28]",210.671647,41619,717,16,91,10,1.5177505014936548
undo,0,3,0,0,0,17,"[0, 7, 8, 24, 17]",5,9,"[3, 4, 10, 14, 15, 16, 19, 20, 21]",141.3174834,42533,914,7,26,10,1.5510961300062232
undo,0,3,0,0,0,20,"[0, 7, 8, 24, 17, 20]",6,7,"[3, 4, 10, 14, 16, 19, 21]",128.6683728,43494,961,7,14,10,1.5133082717474817
undo,0,3,0,0,0,3,"[0, 7, 8, 24, 17, 20, 3]",7,5,"[4, 10, 14, 19, 21]",108.2722947,44206,712,7,4,10,1.5325960555943097
undo,0,3,0,0,0,19,"[0, 7, 8, 24, 17, 20, 3, 19]",8,3,"[10, 14, 21]",70.93598532,44951,745,3,1,10,1.5521294182529992
undo,0,3,0,0,0,21,"[0, 7, 8, 24, 17, 20, 3, 19, 21]",9,2,"[10, 14]",58.72942971,45822,871,2,0,10,1.5690424431931145
undo,0,3,0,0,1,14,"[0, 7, 8, 24, 17, 20, 3, 19, 21, 14]",10,0,[],31.82218161,47169,1347,1,0,10,2.0836613372745463
undo,0,3,0,1,1,14,"[0, 7, 8, 24, 17, 20, 3, 19, 21, 14]",10,0,[],31.82218161,51216,4047,1,0,10,2.0836613372745463
undo,1,22,0,0,0,0,[0],1,29,"[1, 2, 3, 4, 5, 6, 7, 8, 9, 10, 11, 12, 13, 14, 15, 16, 17, 18, 19, 20, 21, 22, 23, 24, 25, 26, 27, 28, 29]",300,129,-1,31,704,9,0.0
undo,1,22,0,0,0,16,"[0, 16]",2,21,"[1, 3, 6, 7, 8, 9, 11, 13, 14, 15, 17, 18, 19, 20, 21, 22, 24, 25, 27, 28, 29]",218.605897,12019,11890,17,147,9,1.0
undo,1,22,0,0,0,28,"[0, 16, 28]",3,13,"[6, 7, 9, 13, 14, 17, 19, 20, 21, 22, 24, 25, 29]",184.1675463,12961,942,12,61,9,1.047282311284478
undo,1,22,0,0,0,6,"[0, 16, 28, 6]",4,12,"[7, 9, 13, 14, 17, 19, 20, 21, 22, 24, 25, 29]",154.1675463,14025,1064,12,43,9,1.645645870580622
undo,1,22,0,0,0,9,"[0, 16, 28, 6, 9]",5,8,"[7, 14, 17, 19, 20, 21, 24, 29]",127.5404924,14954,929,8,17,9,1.925750226630103
undo,1,22,0,0,0,19,"[0, 16, 28, 6, 9, 19]",6,6,"[7, 14, 17, 21, 24, 29]",107.1444143,15810,856,3,7,9,2.4220750331476455
undo,1,22,0,0,0,29,"[0, 16, 28, 6, 9, 19, 29]",7,4,"[7, 14, 17, 24]",92.11111796,16520,710,2,2,9,2.6996279574991067
undo,1,22,0,0,0,7,"[0, 16, 28, 6, 9, 19, 29, 7]",8,1,[14],41.0327468,19409,2889,1,0,9,2.059125386946491
undo,1,22,0,0,1,14,"[0, 16, 28, 6, 9, 19, 29, 7, 14]",9,0,[],27.99434199,20272,863,1,0,9,2.0997569104205307
undo,1,22,0,1,1,14,"[0, 16, 28, 6, 9, 19, 29, 7, 14]",9,0,[],27.99434199,35703,15431,1,0,9,2.0997569104205307
undo,2,25,0,0,0,0,[0],1,28,"[1, 2, 3, 4, 5, 7, 8, 9, 10, 11, 12, 13, 14, 15, 16, 17, 18, 19, 20, 21, 22, 23, 24, 25, 26, 27, 28, 29]",300,164,-1,5,94,10,0.0
undo,2,25,0,0,0,23,"[0, 23]",2,23,"[1, 2, 3, 5, 7, 8, 9, 11, 12, 13, 14, 16, 17, 19, 20, 21, 22, 24, 25, 26, 27, 28, 29]",259.7756293,17284,17120,3,33,10,1.0
undo,2,25,0,0,0,7,"[0, 23, 7]",3,16,"[1, 3, 5, 8, 9, 11, 13, 17, 19, 21, 22, 24, 26, 27, 28, 29]",181.9424744,18316,1032,1,21,9,1.0073109045884563
undo,2,25,0,0,0,24,"[0, 23, 7, 24]",4,10,"[3, 5, 8, 9, 11, 13, 19, 22, 28, 29]",157.1836376,19155,839,1,17,9,1.0161584555781231
undo,2,25,0,0,0,9,"[0, 23, 7, 24, 9]",5,8,"[3, 8, 11, 13, 19, 22, 28, 29]",139.1558812,19923,768,1,16,9,1.0303325523073676
undo,2,25,0,0,0,3,"[0, 23, 7, 24, 9, 3]",6,4,"[8, 11, 13, 28]",108.8903893,21227,1304,1,5,9,1.0321657704271587
undo,2,25,0,0,0,28,"[0, 23, 7, 24, 9, 3, 28]",7,2,"[8, 13]",77.58543762,22301,1074,2,0,8,1.02782621065816
undo,2,25,0,0,1,13,"[0, 23, 7, 24, 9, 3, 28, 13]",8,0,[],43.35095208,23114,813,1,0,8,1.27332019011654
undo,2,25,1,0,0,28,"[0, 23, 7, 24, 9, 3, 28]",7,2,"[8, 13]",77.58543762,27567,4453,2,0,8,1.02782621065816
undo,2,25,1,0,0,3,"[0, 23, 7, 24, 9, 3]",6,4,"[8, 11, 13, 28]",108.8903893,27816,249,1,5,9,1.0321657704271587
undo,2,25,1,0,0,9,"[0, 23, 7, 24, 9]",5,8,"[3, 8, 11, 13, 19, 22, 28, 29]",139.1558812,28183,367,1,16,9,1.0303325523073676
undo,2,25,1,0,0,24,"[0, 23, 7, 24]",4,10,"[3, 5, 8, 9, 11, 13, 19, 22, 28, 29]",157.1836376,28500,317,1,17,9,1.0161584555781231
undo,2,25,1,0,0,7,"[0, 23, 7]",3,16,"[1, 3, 5, 8, 9, 11, 13, 17, 19, 21, 22, 24, 26, 27, 28, 29]",181.9424744,28817,317,1,21,9,1.0073109045884563
undo,2,25,1,0,0,23,"[0, 23]",2,23,"[1, 2, 3, 5, 7, 8, 9, 11, 12, 13, 14, 16, 17, 19, 20, 21, 22, 24, 25, 26, 27, 28, 29]",259.7756293,29183,366,3,33,10,1.0
undo,2,25,1,0,0,0,[0],1,28,"[1, 2, 3, 4, 5, 7, 8, 9, 10, 11, 12, 13, 14, 15, 16, 17, 18, 19, 20, 21, 22, 23, 24, 25, 26, 27, 28, 29]",300,29567,384,5,94,10,0.0
undo,2,25,0,0,0,23,"[0, 23]",2,23,"[1, 2, 3, 5, 7, 8, 9, 11, 12, 13, 14, 16, 17, 19, 20, 21, 22, 24, 25, 26, 27, 28, 29]",259.7756293,33747,4180,3,33,10,1.0
undo,2,25,0,0,0,19,"[0, 23, 19]",3,21,"[1, 2, 3, 5, 7, 8, 9, 11, 12, 13, 14, 16, 17, 20, 21, 22, 24, 25, 27, 28, 29]",223.9287326,34805,1058,3,24,10,1.583101227007039
undo,2,25,0,0,0,29,"[0, 23, 19, 29]",4,19,"[1, 2, 3, 5, 7, 8, 9, 11, 12, 13, 14, 16, 17, 20, 21, 22, 24, 25, 28]",207.649912,36347,1542,3,17,10,1.474631541426484
undo,2,25,0,0,0,22,"[0, 23, 19, 29, 22]",5,18,"[1, 2, 3, 5, 7, 8, 9, 11, 12, 13, 14, 16, 17, 20, 21, 24, 25, 28]",191.5253965,36906,559,3,14,10,1.4020377754906637
undo,2,25,0,0,0,7,"[0, 23, 19, 29, 22, 7]",6,7,"[3, 8, 9, 11, 13, 24, 28]",115.8814939,38674,1768,3,11,10,1.5709678649326715
undo,2,25,0,0,0,24,"[0, 23, 19, 29, 22, 7, 24]",7,5,"[3, 8, 9, 13, 28]",91.12265712,39851,1177,3,7,10,1.486191600033379
undo,2,25,0,0,0,9,"[0, 23, 19, 29, 22, 7, 24, 9]",8,4,"[3, 8, 13, 28]",73.09490075,40652,801,3,3,10,1.453504870342882
undo,2,25,0,0,0,3,"[0, 23, 19, 29, 22, 7, 24, 9, 3]",9,3,"[8, 13, 28]",42.82940885,41674,1022,3,0,10,1.388955167525479
undo,2,25,0,0,1,13,"[0, 23, 19, 29, 22, 7, 24, 9, 3, 13]",10,0,[],11.58841014,45196,3522,1,0,10,1.4309045890044414
undo,2,25,0,1,1,13,"[0, 23, 19, 29, 22, 7, 24, 9, 3, 13]",10,0,[],11.58841014,47254,2058,1,0,10,1.4309045890044414
undo,3,36,0,0,0,0,[0],1,24,"[2, 4, 5, 6, 7, 8, 9, 10, 12, 13, 14, 15, 16, 17, 18, 19, 20, 22, 23, 25, 26, 27, 28, 29]",300,145,-1,2,200,10,0.0
undo,3,36,0,0,0,12,"[0, 12]",2,23,"[2, 4, 5, 6, 7, 8, 9, 10, 13, 14, 15, 16, 17, 18, 19, 20, 22, 23, 25, 26, 27, 28, 29]",277.7963967,5144,4999,90,804,9,1.0
undo,3,36,0,0,0,9,"[0, 12, 9]",3,14,"[2, 4, 8, 10, 13, 16, 17, 18, 19, 23, 25, 27, 28, 29]",215.4345494,6968,1824,32,191,9,1.224429481246385
undo,3,36,0,0,0,19,"[0, 12, 9, 19]",4,13,"[2, 4, 8, 10, 13, 16, 17, 18, 23, 25, 27, 28, 29]",200.3018034,11671,4703,14,61,9,1.293473472808712
undo,3,36,0,0,0,2,"[0, 12, 9, 19, 2]",5,11,"[4, 8, 10, 13, 16, 17, 18, 23, 25, 27, 29]",163.180381,14103,2432,2,17,9,1.2115523850119965
undo,3,36,0,0,0,25,"[0, 12, 9, 19, 2, 25]",6,9,"[4, 8, 10, 13, 16, 17, 18, 27, 29]",138.180381,15144,1041,1,8,9,1.413393071141534
undo,3,36,0,0,0,13,"[0, 12, 9, 19, 2, 25, 13]",7,5,"[4, 10, 16, 17, 18]",117.5891208,15985,841,1,4,9,1.8597869697411082
undo,3,36,0,0,1,10,"[0, 12, 9, 19, 2, 25, 13, 10]",8,0,[],41.6286047,21192,5207,1,0,8,1.4855310752431334
undo,3,36,1,0,0,13,"[0, 12, 9, 19, 2, 25, 13]",7,5,"[4, 10, 16, 17, 18]",117.5891208,22900,1708,1,4,9,1.8597869697411082
undo,3,36,1,0,0,25,"[0, 12, 9, 19, 2, 25]",6,9,"[4, 8, 10, 13, 16, 17, 18, 27, 29]",138.180381,23283,383,1,8,9,1.413393071141534
undo,3,36,1,0,0,2,"[0, 12, 9, 19, 2]",5,11,"[4, 8, 10, 13, 16, 17, 18, 23, 25, 27, 29]",163.180381,23517,234,2,17,9,1.2115523850119965
undo,3,36,1,0,0,19,"[0, 12, 9, 19]",4,13,"[2, 4, 8, 10, 13, 16, 17, 18, 23, 25, 27, 28, 29]",200.3018034,23700,183,14,61,9,1.293473472808712
undo,3,36,1,0,0,9,"[0, 12, 9]",3,14,"[2, 4, 8, 10, 13, 16, 17, 18, 19, 23, 25, 27, 28, 29]",215.4345494,24217,517,32,191,9,1.224429481246385
undo,3,36,0,0,0,16,"[0, 12, 9, 16]",4,8,"[2, 10, 13, 17, 18, 19, 23, 25]",168.137615,28924,4707,7,26,9,1.235383731443557
undo,3,36,0,0,0,17,"[0, 12, 9, 16, 17]",5,6,"[2, 10, 13, 18, 19, 25]",139.8180105,29931,1007,7,14,9,1.6947865799475665
undo,3,36,0,0,0,19,"[0, 12, 9, 16, 17, 19]",6,5,"[2, 10, 13, 18, 25]",111.9253591,30858,927,6,1,9,2.440059772477113
undo,3,36,0,0,0,2,"[0, 12, 9, 16, 17, 19, 2]",7,2,"[13, 25]",74.80393675,31843,985,2,0,9,1.994135267441798
undo,3,36,0,0,0,25,"[0, 12, 9, 16, 17, 19, 2, 25]",8,1,[13],49.80393675,32716,873,1,0,9,2.1853059870598197
undo,3,36,0,0,1,13,"[0, 12, 9, 16, 17, 19, 2, 25, 13]",9,0,[],29.21267647,33516,800,1,0,9,2.7608371719978186
undo,3,36,0,1,1,13,"[0, 12, 9, 16, 17, 19, 2, 25, 13]",9,0,[],29.21267647,45174,11658,1,0,9,2.7608371719978186
undo,4,37,0,0,0,0,[0],1,29,"[1, 2, 3, 4, 5, 6, 7, 8, 9, 10, 11, 12, 13, 14, 15, 16, 17, 18, 19, 20, 21, 22, 23, 24, 25, 26, 27, 28, 29]",300,147,-1,6,168,10,0.0
undo,4,37,0,0,0,18,"[0, 18]",2,19,"[1, 2, 4, 6, 7, 9, 10, 12, 14, 15, 17, 19, 20, 21, 22, 23, 26, 28, 29]",202.4090168,6147,6000,6,89,10,1.0
undo,4,37,0,0,0,7,"[0, 18, 7]",3,12,"[1, 2, 4, 9, 15, 17, 19, 20, 21, 22, 26, 29]",175.2428614,7098,951,6,53,10,1.0413073512834488
undo,4,37,0,0,0,22,"[0, 18, 7, 22]",4,8,"[1, 2, 4, 15, 19, 20, 21, 26]",125.2428614,8069,971,6,29,10,1.0730792320325544
undo,4,37,0,0,0,4,"[0, 18, 7, 22, 4]",5,7,"[1, 2, 15, 19, 20, 21, 26]",100.2428614,9003,934,4,16,10,1.2290245562206235
undo,4,37,0,0,0,2,"[0, 18, 7, 22, 4, 2]",6,5,"[1, 15, 19, 20, 21]",88.84110714,9666,663,4,7,10,1.3968113858365216
undo,4,37,0,0,0,1,"[0, 18, 7, 22, 4, 2, 1]",7,4,"[15, 19, 20, 21]",71.63645661,10537,871,4,3,10,1.4424239294761476
undo,4,37,0,0,0,20,"[0, 18, 7, 22, 4, 2, 1, 20]",8,3,"[15, 19, 21]",37.40197107,11470,933,2,1,10,1.7518607796010042
undo,4,37,0,0,0,21,"[0, 18, 7, 22, 4, 2, 1, 20, 21]",9,1,[15],22.97976597,12298,828,1,0,10,1.7849997782949483
undo,4,37,0,0,1,15,"[0, 18, 7, 22, 4, 2, 1, 20, 21, 15]",10,0,[],7.979765971,13858,1560,1,0,10,1.7549597142828803
undo,4,37,0,1,1,15,"[0, 18, 7, 22, 4, 2, 1, 20, 21, 15]",10,0,[],7.979765971,16951,3093,1,0,10,1.7549597142828803
undo,5,16,0,0,0,0,[0],1,29,"[1, 2, 3, 4, 5, 6, 7, 8, 9, 10, 11, 12, 13, 14, 15, 16, 17, 18, 19, 20, 21, 22, 23, 24, 25, 26, 27, 28, 29]",300,148,-1,13,161,9,0.0
undo,5,16,0,0,0,17,"[0, 17]",2,27,"[1, 2, 3, 4, 5, 7, 8, 9, 10, 11, 12, 13, 14, 15, 16, 18, 19, 20, 21, 22, 23, 24, 25, 26, 27, 28, 29]",241.3058776,9232,9084,2,58,9,1.0
undo,5,16,0,0,0,16,"[0, 17, 16]",3,26,"[1, 2, 3, 4, 5, 7, 8, 9, 10, 11, 12, 13, 14, 15, 18, 19, 20, 21, 22, 23, 24, 25, 26, 27, 28, 29]",212.9862731,9991,759,2,52,9,1.0529535521792848
undo,5,16,0,0,0,8,"[0, 17, 16, 8]",4,19,"[2, 3, 4, 5, 9, 12, 13, 14, 15, 19, 20, 21, 22, 23, 25, 26, 27, 28, 29]",164.6127266,13103,3112,2,38,9,1.0915134501573105
undo,5,16,0,0,0,20,"[0, 17, 16, 8, 20]",5,10,"[3, 4, 5, 9, 12, 13, 15, 19, 21, 25]",106.8372993,14038,935,1,15,9,1.067523143001942
undo,5,16,0,0,0,25,"[0, 17, 16, 8, 20, 25]",6,7,"[3, 4, 5, 9, 12, 13, 15]",94.18818869,14621,583,1,9,9,1.1170093326933646
undo,5,16,0,0,0,9,"[0, 17, 16, 8, 20, 25, 9]",7,5,"[3, 4, 5, 13, 15]",81.38194021,15320,699,1,4,9,1.1095076562662525
undo,5,16,0,0,0,15,"[0, 17, 16, 8, 20, 25, 9, 15]",8,1,[5],42.48463953,16238,918,1,0,9,1.213831159678775
undo,5,16,0,0,1,5,"[0, 17, 16, 8, 20, 25, 9, 15, 5]",9,0,[],13.0567616,17504,1266,1,0,9,1.5171779607523481
undo,5,16,1,0,0,15,"[0, 17, 16, 8, 20, 25, 9, 15]",8,1,[5],42.48463953,25082,7578,1,0,9,1.213831159678775
undo,5,16,1,0,0,9,"[0, 17, 16, 8, 20, 25, 9]",7,5,"[3, 4, 5, 13, 15]",81.38194021,25315,233,1,4,9,1.1095076562662525
undo,5,16,1,0,0,25,"[0, 17, 16, 8, 20, 25]",6,7,"[3, 4, 5, 9, 12, 13, 15]",94.18818869,25515,200,1,9,9,1.1170093326933646
undo,5,16,1,0,0,20,"[0, 17, 16, 8, 20]",5,10,"[3, 4, 5, 9, 12, 13, 15, 19, 21, 25]",106.8372993,25682,167,1,15,9,1.067523143001942
undo,5,16,1,0,0,8,"[0, 17, 16, 8]",4,19,"[2, 3, 4, 5, 9, 12, 13, 14, 15, 19, 20, 21, 22, 23, 25, 26, 27, 28, 29]",164.6127266,25899,217,2,38,9,1.0915134501573105
undo,5,16,1,0,0,16,"[0, 17, 16]",3,26,"[1, 2, 3, 4, 5, 7, 8, 9, 10, 11, 12, 13, 14, 15, 18, 19, 20, 21, 22, 23, 24, 25, 26, 27, 28, 29]",212.9862731,26099,200,2,52,9,1.0529535521792848
undo,5,16,1,0,0,17,"[0, 17]",2,27,"[1, 2, 3, 4, 5, 7, 8, 9, 10, 11, 12, 13, 14, 15, 16, 18, 19, 20, 21, 22, 23, 24, 25, 26, 27, 28, 29]",241.3058776,26599,500,2,58,9,1.0
undo,5,16,1,0,0,0,[0],1,29,"[1, 2, 3, 4, 5, 6, 7, 8, 9, 10, 11, 12, 13, 14, 15, 16, 17, 18, 19, 20, 21, 22, 23, 24, 25, 26, 27, 28, 29]",300,27082,483,13,161,9,0.0
undo,5,16,0,0,0,28,"[0, 28]",2,27,"[1, 2, 3, 4, 5, 7, 8, 9, 10, 11, 12, 13, 14, 15, 16, 17, 18, 19, 20, 21, 22, 23, 24, 25, 26, 27, 29]",284.3475242,28371,1289,11,92,9,1.0
undo,5,16,0,0,0,17,"[0, 28, 17]",3,26,"[1, 2, 3, 4, 5, 7, 8, 9, 10, 11, 12, 13, 14, 15, 16, 18, 19, 20, 21, 22, 23, 24, 25, 26, 27, 29]",219.1555001,29380,1009,10,46,9,1.3773866384707543
undo,5,16,0,0,0,16,"[0, 28, 17, 16]",4,25,"[1, 2, 3, 4, 5, 7, 8, 9, 10, 11, 12, 13, 14, 15, 18, 19, 20, 21, 22, 23, 24, 25, 26, 27, 29]",190.8358956,30380,1000,10,34,9,1.3209953830681203
undo,5,16,0,0,0,8,"[0, 28, 17, 16, 8]",5,12,"[3, 4, 5, 9, 12, 13, 15, 19, 20, 21, 25, 29]",142.4623491,31236,856,6,19,9,1.2700932705506198
undo,5,16,0,0,0,20,"[0, 28, 17, 16, 8, 20]",6,6,"[4, 5, 9, 12, 15, 25]",84.6869218,32861,1625,4,4,9,1.1899382910703262
undo,5,16,0,0,0,25,"[0, 28, 17, 16, 8, 20, 25]",7,3,"[5, 9, 15]",72.03781116,33522,661,2,2,9,1.2372268181049477
undo,5,16,0,0,0,9,"[0, 28, 17, 16, 8, 20, 25, 9]",8,2,"[5, 15]",59.23156268,34347,825,2,0,9,1.221922950237529
undo,5,16,0,0,1,5,"[0, 28, 17, 16, 8, 20, 25, 9, 5]",9,0,[],7.221948185,35797,1450,1,0,9,1.5480288369315591
undo,5,16,0,1,1,5,"[0, 28, 17, 16, 8, 20, 25, 9, 5]",9,0,[],7.221948185,39835,4038,1,0,9,1.5480288369315591
undo,6,8,0,0,0,0,[0],1,29,"[1, 2, 3, 4, 5, 6, 7, 8, 9, 10, 11, 12, 13, 14, 15, 16, 17, 18, 19, 20, 21, 22, 23, 24, 25, 26, 27, 28, 29]",300,167,-1,10,149,9,0.0
undo,6,8,0,0,0,5,"[0, 5]",2,28,"[1, 2, 3, 4, 6, 7, 8, 9, 10, 11, 12, 13, 14, 15, 16, 17, 18, 19, 20, 21, 22, 23, 24, 25, 26, 27, 28, 29]",254.5137383,7168,7001,10,100,9,1.0
undo,6,8,0,0,0,25,"[0, 5, 25]",3,20,"[1, 2, 3, 4, 6, 11, 12, 14, 15, 16, 17, 18, 19, 20, 21, 22, 23, 24, 28, 29]",215.3091468,8236,1068,4,42,9,1.2272747879909065
undo,6,8,0,0,0,1,"[0, 5, 25, 1]",4,17,"[3, 4, 6, 11, 12, 14, 15, 16, 17, 18, 20, 21, 22, 23, 24, 28, 29]",190.3091468,8797,561,3,24,9,1.1770245007593956
undo,6,8,0,0,0,23,"[0, 5, 25, 1, 23]",5,15,"[3, 4, 6, 11, 14, 15, 16, 17, 18, 20, 21, 22, 24, 28, 29]",167.2874179,9352,555,1,14,9,1.141996583852372
undo,6,8,0,0,0,4,"[0, 5, 25, 1, 23, 4]",6,6,"[3, 14, 16, 18, 21, 28]",117.9518324,10813,1461,3,4,8,1.115517190692443
undo,6,8,0,0,0,18,"[0, 5, 25, 1, 23, 4, 18]",7,2,"[14, 28]",74.94020603,12044,1231,2,0,8,1.702606074443807
undo,6,8,0,0,1,28,"[0, 5, 25, 1, 23, 4, 18, 28]",8,0,[],9.320087168,13319,1275,1,0,8,1.7256884494830071
undo,6,8,1,0,0,18,"[0, 5, 25, 1, 23, 4, 18]",7,2,"[14, 28]",74.94020603,15683,2364,2,0,8,1.702606074443807
undo,6,8,1,0,0,4,"[0, 5, 25, 1, 23, 4]",6,6,"[3, 14, 16, 18, 21, 28]",117.9518324,16100,417,3,4,8,1.115517190692443
undo,6,8,1,0,0,23,"[0, 5, 25, 1, 23]",5,15,"[3, 4, 6, 11, 14, 15, 16, 17, 18, 20, 21, 22, 24, 28, 29]",167.2874179,16417,317,1,14,9,1.141996583852372
undo,6,8,1,0,0,1,"[0, 5, 25, 1]",4,17,"[3, 4, 6, 11, 12, 14, 15, 16, 17, 18, 20, 21, 22, 23, 24, 28, 29]",190.3091468,16700,283,3,24,9,1.1770245007593956
undo,6,8,1,0,0,25,"[0, 5, 25]",3,20,"[1, 2, 3, 4, 6, 11, 12, 14, 15, 16, 17, 18, 19, 20, 21, 22, 23, 24, 28, 29]",215.3091468,17800,1100,4,42,9,1.2272747879909065
undo,6,8,0,0,0,14,"[0, 5, 25, 14]",4,16,"[1, 3, 4, 6, 11, 15, 16, 17, 18, 19, 20, 21, 22, 23, 24, 28]",170.2092576,19372,1572,1,13,9,1.5190857385933465
undo,6,8,0,0,0,17,"[0, 5, 25, 14, 17]",5,9,"[1, 4, 11, 15, 16, 18, 23, 24, 28]",133.1957466,20105,733,1,9,9,1.5271682935559303
undo,6,8,0,0,0,11,"[0, 5, 25, 14, 17, 11]",6,5,"[15, 16, 18, 24, 28]",108.01639,20854,749,1,6,9,1.4664212485560129
undo,6,8,0,0,0,24,"[0, 5, 25, 14, 17, 11, 24]",7,2,"[15, 16]",70.80080183,21861,1007,1,1,9,1.3920548417170795
undo,6,8,0,0,0,15,"[0, 5, 25, 14, 17, 11, 24, 15]",8,1,[16],54.03774722,22445,584,1,0,9,1.4585932832823736
undo,6,8,0,0,1,16,"[0, 5, 25, 14, 17, 11, 24, 15, 16]",9,0,[],2.959376062,23705,1260,1,0,9,1.6043130175078746
undo,6,8,0,1,1,16,"[0, 5, 25, 14, 17, 11, 24, 15, 16]",9,0,[],2.959376062,30152,6447,1,0,9,1.6043130175078746
undo,7,28,0,0,0,0,[0],1,27,"[1, 2, 3, 4, 5, 6, 7, 8, 9, 10, 11, 12, 13, 14, 15, 16, 17, 18, 19, 20, 22, 23, 25, 26, 27, 28, 29]",300,133,-1,2,96,9,0.0
undo,7,28,0,0,0,3,"[0, 3]",2,26,"[1, 2, 4, 5, 6, 7, 8, 9, 10, 11, 12, 13, 14, 15, 16, 17, 18, 19, 20, 22, 23, 25, 26, 27, 28, 29]",251.0817008,7833,7700,1,64,9,1.0
undo,7,28,0,0,0,18,"[0, 3, 18]",3,12,"[1, 2, 5, 7, 9, 11, 12, 13, 14, 17, 19, 26]",131.4656483,10372,2539,3,48,8,1.0130454444282153
undo,7,28,0,0,0,13,"[0, 3, 18, 13]",4,9,"[2, 5, 7, 11, 12, 14, 17, 19, 26]",107.0525371,10972,600,2,15,8,1.012641803455538
undo,7,28,0,0,0,12,"[0, 3, 18, 13, 12]",5,7,"[2, 7, 11, 14, 17, 19, 26]",89.84788657,11592,620,2,6,8,1.0200477282296878
undo,7,28,0,0,0,7,"[0, 3, 18, 13, 12, 7]",6,4,"[2, 14, 19, 26]",76.69494013,12240,648,2,3,8,1.1399645496638764
undo,7,28,0,0,0,19,"[0, 3, 18, 13, 12, 7, 19]",7,2,"[2, 26]",48.96409088,13680,1440,2,0,8,1.3749046840102168
undo,7,28,0,0,1,26,"[0, 3, 18, 13, 12, 7, 19, 26]",8,0,[],7.96409088,14946,1266,1,0,8,1.8172207317157767
undo,7,28,1,0,0,19,"[0, 3, 18, 13, 12, 7, 19]",7,2,"[2, 26]",48.96409088,22988,8042,2,0,8,1.3749046840102168
undo,7,28,1,0,0,7,"[0, 3, 18, 13, 12, 7]",6,4,"[2, 14, 19, 26]",76.69494013,23237,249,2,3,8,1.1399645496638764
undo,7,28,1,0,0,12,"[0, 3, 18, 13, 12]",5,7,"[2, 7, 11, 14, 17, 19, 26]",89.84788657,23471,234,2,6,8,1.0200477282296878
undo,7,28,1,0,0,13,"[0, 3, 18, 13]",4,9,"[2, 5, 7, 11, 12, 14, 17, 19, 26]",107.0525371,23654,183,2,15,8,1.012641803455538
undo,7,28,1,0,0,18,"[0, 3, 18]",3,12,"[1, 2, 5, 7, 9, 11, 12, 13, 14, 17, 19, 26]",131.4656483,24121,467,3,48,8,1.0130454444282153
undo,7,28,1,0,0,3,"[0, 3]",2,26,"[1, 2, 4, 5, 6, 7, 8, 9, 10, 11, 12, 13, 14, 15, 16, 17, 18, 19, 20, 22, 23, 25, 26, 27, 28, 29]",251.0817008,24504,383,1,64,9,1.0
undo,7,28,0,0,0,5,"[0, 3, 5]",3,20,"[2, 4, 6, 7, 8, 9, 10, 11, 12, 13, 14, 15, 18, 19, 20, 23, 25, 26, 28, 29]",166.9865166,26042,1538,1,34,9,1.0203769473612083
undo,7,28,0,0,0,26,"[0, 3, 5, 26]",4,13,"[2, 4, 7, 8, 9, 12, 13, 14, 18, 19, 20, 25, 28]",134.2298379,26792,750,1,28,9,1.0315203228799597
undo,7,28,0,0,0,19,"[0, 3, 5, 26, 19]",5,7,"[2, 7, 9, 12, 13, 14, 18]",93.22983789,27497,705,1,17,9,1.1324645362297356
undo,7,28,0,0,0,7,"[0, 3, 5, 26, 19, 7]",6,5,"[2, 12, 13, 14, 18]",65.49898864,28281,784,1,6,9,1.1971194919020265
undo,7,28,0,0,0,12,"[0, 3, 5, 26, 19, 7, 12]",7,2,"[13, 18]",52.3460422,29059,778,1,1,9,1.2020762147848982
undo,7,28,0,0,0,13,"[0, 3, 5, 26, 19, 7, 12, 13]",8,1,[18],35.14139167,29860,801,1,0,9,1.39005144078531
undo,7,28,0,0,1,18,"[0, 3, 5, 26, 19, 7, 12, 13, 18]",9,0,[],10.72828044,30866,1006,1,0,9,1.738787343626007
undo,7,28,0,1,1,18,"[0, 3, 5, 26, 19, 7, 12, 13, 18]",9,0,[],10.72828044,40191,9325,1,0,9,1.738787343626007
undo,8,11,0,0,0,0,[0],1,25,"[1, 2, 3, 4, 5, 6, 8, 9, 10, 11, 12, 13, 14, 15, 16, 17, 18, 19, 20, 22, 23, 25, 26, 27, 28]",300,163,-1,6,374,12,0.0
undo,8,11,0,0,0,18,"[0, 18]",2,21,"[1, 2, 4, 5, 6, 8, 9, 11, 12, 13, 14, 15, 16, 17, 19, 20, 22, 23, 25, 27, 28]",236.8493864,4351,4188,157,1477,11,1.0
undo,8,11,0,0,0,27,"[0, 18, 27]",3,19,"[1, 2, 4, 5, 6, 8, 9, 11, 12, 14, 15, 16, 17, 19, 20, 22, 23, 25, 28]",212.9956655,5022,671,157,1315,11,1.060949579704323
undo,8,11,0,0,0,8,"[0, 18, 27, 8]",4,14,"[1, 2, 4, 5, 6, 11, 12, 15, 17, 19, 22, 23, 25, 28]",142.7817068,6559,1537,68,433,11,1.0827202875589923
undo,8,11,0,0,0,17,"[0, 18, 27, 8, 17]",5,13,"[1, 2, 4, 5, 6, 11, 12, 15, 19, 22, 23, 25, 28]",128.4638857,7631,1072,42,137,11,1.1662918234607762
undo,8,11,0,0,0,15,"[0, 18, 27, 8, 17, 15]",6,9,"[2, 5, 6, 11, 12, 19, 22, 25, 28]",115.8147751,8495,864,38,57,11,1.1741312027420885
undo,8,11,0,0,0,11,"[0, 18, 27, 8, 17, 15, 11]",7,7,"[2, 5, 6, 12, 19, 22, 28]",97.70400479,9390,895,24,0,11,1.1668679039564056
undo,8,11,0,0,0,28,"[0, 18, 27, 8, 17, 15, 11, 28]",8,4,"[2, 5, 19, 22]",78.28751696,10436,1046,6,0,11,1.2830334294205898
undo,8,11,0,0,0,5,"[0, 18, 27, 8, 17, 15, 11, 28, 5]",9,2,"[2, 22]",60.39897314,12237,1801,2,0,11,1.472719061667125
undo,8,11,0,0,0,2,"[0, 18, 27, 8, 17, 15, 11, 28, 5, 2]",10,1,[22],43.39897314,13161,924,1,0,11,1.437636650715907
undo,8,11,0,0,1,22,"[0, 18, 27, 8, 17, 15, 11, 28, 5, 2, 22]",11,0,[],33.34909751,14068,907,1,0,11,1.414339916866727
undo,8,11,0,1,1,22,"[0, 18, 27, 8, 17, 15, 11, 28, 5, 2, 22]",11,0,[],33.34909751,18481,4413,1,0,11,1.414339916866727
undo,9,13,0,0,0,0,[0],1,29,"[1, 2, 3, 4, 5, 6, 7, 8, 9, 10, 11, 12, 13, 14, 15, 16, 17, 18, 19, 20, 21, 22, 23, 24, 25, 26, 27, 28, 29]",300,164,-1,60,2676,11,0.0
undo,9,13,0,0,0,24,"[0, 24]",2,28,"[1, 2, 3, 4, 5, 6, 7, 8, 9, 10, 11, 12, 13, 14, 15, 16, 17, 18, 19, 20, 21, 22, 23, 25, 26, 27, 28, 29]",288.8196601,4815,4651,16,1444,11,1.0
undo,9,13,0,0,0,28,"[0, 24, 28]",3,23,"[1, 2, 3, 4, 6, 7, 8, 9, 10, 11, 12, 13, 15, 16, 17, 19, 20, 21, 22, 23, 26, 27, 29]",222.5324064,7277,2462,8,243,11,1.0513810491680837
undo,9,13,0,0,0,2,"[0, 24, 28, 2]",4,19,"[1, 3, 4, 6, 7, 9, 11, 12, 13, 15, 16, 17, 19, 20, 21, 23, 26, 27, 29]",184.889346,8369,1092,7,110,11,1.050374132001543
undo,9,13,0,0,0,29,"[0, 24, 28, 2, 29]",5,18,"[1, 3, 4, 6, 7, 9, 11, 12, 13, 15, 16, 17, 19, 20, 21, 23, 26, 27]",173.1846461,9013,644,7,85,11,1.1393409619120594
undo,9,13,0,0,0,7,"[0, 24, 28, 2, 29, 7]",6,17,"[1, 3, 4, 6, 9, 11, 12, 13, 15, 16, 17, 19, 20, 21, 23, 26, 27]",157.9203086,9863,850,5,45,11,1.349777315111579
undo,9,13,0,0,0,26,"[0, 24, 28, 2, 29, 7, 26]",7,16,"[1, 3, 4, 6, 9, 11, 12, 13, 15, 16, 17, 19, 20, 21, 23, 27]",147.480002,10575,712,5,25,11,1.5942082773824946
undo,9,13,0,0,0,6,"[0, 24, 28, 2, 29, 7, 26, 6]",8,12,"[1, 3, 4, 11, 13, 15, 16, 17, 19, 20, 23, 27]",127.3802508,11454,879,4,12,11,1.5898347940840756
undo,9,13,0,0,0,11,"[0, 24, 28, 2, 29, 7, 26, 6, 11]",9,6,"[1, 13, 15, 16, 17, 23]",108.2752776,12079,625,3,4,11,1.5029953945561012
undo,9,13,0,0,0,13,"[0, 24, 28, 2, 29, 7, 26, 6, 11, 13]",10,2,"[15, 17]",52.19497806,13553,1474,2,0,11,1.3655915863754327
undo,9,13,0,0,1,17,"[0, 24, 28, 2, 29, 7, 26, 6, 11, 13, 17]",11,0,[],18.81833952,14743,1190,1,0,11,1.4149038511024103
undo,9,13,0,1,1,17,"[0, 24, 28, 2, 29, 7, 26, 6, 11, 13, 17]",11,0,[],18.81833952,17534,2791,1,0,11,1.4149038511024103
undo,10,23,0,0,0,0,[0],1,28,"[1, 2, 3, 4, 5, 6, 7, 8, 9, 10, 11, 12, 13, 14, 15, 16, 17, 18, 19, 20, 21, 22, 23, 25, 26, 27, 28, 29]",300,147,-1,76,2626,10,0.0
undo,10,23,0,0,0,13,"[0, 13]",2,19,"[1, 2, 3, 5, 6, 7, 8, 9, 10, 12, 14, 17, 18, 19, 21, 22, 23, 27, 29]",189.3202819,5477,5330,9,168,10,1.0
undo,10,23,0,0,0,12,"[0, 13, 12]",3,16,"[1, 2, 3, 6, 7, 8, 9, 10, 14, 17, 18, 21, 22, 23, 27, 29]",177.2372359,6399,922,9,96,10,1.0014195490503164
undo,10,23,0,0,0,2,"[0, 13, 12, 2]",4,12,"[1, 3, 6, 7, 9, 10, 14, 18, 21, 22, 27, 29]",163.3447919,7368,969,4,30,10,1.0014394317924602
undo,10,23,0,0,0,9,"[0, 13, 12, 2, 9]",5,10,"[1, 6, 7, 10, 14, 18, 21, 22, 27, 29]",150.3063871,8446,1078,1,8,10,1.1457747074799831
undo,10,23,0,0,0,14,"[0, 13, 12, 2, 9, 14]",6,8,"[1, 6, 7, 10, 18, 22, 27, 29]",139.8660806,9368,922,1,6,10,1.1365880299138118
undo,10,23,0,0,0,29,"[0, 13, 12, 2, 9, 14, 29]",7,5,"[1, 6, 7, 10, 22]",92.43191571,12062,2694,1,3,10,1.3460297288480787
undo,10,23,0,0,0,7,"[0, 13, 12, 2, 9, 14, 29, 7]",8,2,"[1, 10]",68.34872655,13111,1049,1,1,10,1.3773159292410473
undo,10,23,0,0,0,10,"[0, 13, 12, 2, 9, 14, 29, 7, 10]",9,1,[1],40.88966612,13862,751,1,0,10,1.3556884556214648
undo,10,23,0,0,1,1,"[0, 13, 12, 2, 9, 14, 29, 7, 10, 1]",10,0,[],12.23656855,14949,1087,1,0,10,1.3259861306330887
undo,10,23,0,1,1,1,"[0, 13, 12, 2, 9, 14, 29, 7, 10, 1]",10,0,[],12.23656855,21485,6536,1,0,10,1.3259861306330887
undo,11,21,0,0,0,0,[0],1,29,"[1, 2, 3, 4, 5, 6, 7, 8, 9, 10, 11, 12, 13, 14, 15, 16, 17, 18, 19, 20, 21, 22, 23, 24, 25, 26, 27, 28, 29]",300,197,-1,84,830,9,0.0
undo,11,21,0,0,0,25,"[0, 25]",2,26,"[1, 2, 3, 4, 5, 6, 7, 8, 9, 10, 11, 12, 13, 14, 15, 16, 17, 18, 20, 21, 22, 23, 24, 26, 27, 29]",240.1836143,7037,6840,30,238,9,1.0
undo,11,21,0,0,0,23,"[0, 25, 23]",3,21,"[1, 2, 4, 6, 7, 8, 9, 10, 11, 12, 14, 15, 16, 17, 18, 20, 21, 22, 24, 27, 29]",196.8592562,8219,1182,14,80,9,1.0416131642057598
undo,11,21,0,0,0,21,"[0, 25, 23, 21]",4,14,"[1, 4, 6, 8, 9, 14, 15, 16, 17, 18, 20, 22, 24, 29]",167.2450705,9444,1225,10,25,9,1.4768792067751173
undo,11,21,0,0,0,14,"[0, 25, 23, 21, 14]",5,10,"[4, 8, 9, 15, 16, 17, 18, 22, 24, 29]",141.6325735,10268,824,8,13,9,1.3826076066332742
undo,11,21,0,0,0,4,"[0, 25, 23, 21, 14, 4]",6,7,"[8, 15, 16, 17, 18, 24, 29]",127.4904379,10803,535,8,3,9,1.3487191473328533
undo,11,21,0,0,0,16,"[0, 25, 23, 21, 14, 4, 16]",7,3,"[8, 15, 24]",82.89223163,11492,689,4,1,9,1.3301484172843694
undo,11,21,0,0,0,8,"[0, 25, 23, 21, 14, 4, 16, 8]",8,2,"[15, 24]",64.2911564,12371,879,2,0,9,1.3009886562393016
undo,11,21,0,0,1,15,"[0, 25, 23, 21, 14, 4, 16, 8, 15]",9,0,[],39.2911564,13140,769,1,0,9,1.5486591410600183
undo,11,21,1,0,0,8,"[0, 25, 23, 21, 14, 4, 16, 8]",8,2,"[15, 24]",64.2911564,22066,8926,2,0,9,1.3009886562393016
undo,11,21,1,0,0,16,"[0, 25, 23, 21, 14, 4, 16]",7,3,"[8, 15, 24]",82.89223163,22333,267,4,1,9,1.3301484172843694
undo,11,21,1,0,0,4,"[0, 25, 23, 21, 14, 4]",6,7,"[8, 15, 16, 17, 18, 24, 29]",127.4904379,22533,200,8,3,9,1.3487191473328533
undo,11,21,1,0,0,14,"[0, 25, 23, 21, 14]",5,10,"[4, 8, 9, 15, 16, 17, 18, 22, 24, 29]",141.6325735,22700,167,8,13,9,1.3826076066332742
undo,11,21,1,0,0,21,"[0, 25, 23, 21]",4,14,"[1, 4, 6, 8, 9, 14, 15, 16, 17, 18, 20, 22, 24, 29]",167.2450705,22983,283,10,25,9,1.4768792067751173
undo,11,21,1,0,0,23,"[0, 25, 23]",3,21,"[1, 2, 4, 6, 7, 8, 9, 10, 11, 12, 14, 15, 16, 17, 18, 20, 21, 22, 24, 27, 29]",196.8592562,23216,233,14,80,9,1.0416131642057598
undo,11,21,1,0,0,25,"[0, 25]",2,26,"[1, 2, 3, 4, 5, 6, 7, 8, 9, 10, 11, 12, 13, 14, 15, 16, 17, 18, 20, 21, 22, 23, 24, 26, 27, 29]",240.1836143,23667,451,30,238,9,1.0
undo,11,21,0,0,0,29,"[0, 25, 29]",3,23,"[1, 2, 4, 6, 7, 8, 9, 10, 11, 12, 13, 14, 15, 16, 17, 18, 20, 21, 22, 23, 24, 26, 27]",194.9619381,25292,1625,17,102,8,1.239867358623088
undo,11,21,0,0,0,18,"[0, 25, 29, 18]",4,20,"[2, 4, 6, 7, 8, 9, 10, 11, 12, 14, 15, 16, 17, 20, 21, 22, 23, 24, 26, 27]",166.3088405,26275,983,7,31,8,2.2630282554453367
undo,11,21,0,0,0,22,"[0, 25, 29, 18, 22]",5,13,"[2, 4, 6, 7, 10, 11, 12, 14, 17, 20, 21, 23, 27]",139.9080829,27211,936,2,11,8,1.946990970266948
undo,11,21,0,0,0,12,"[0, 25, 29, 18, 22, 12]",6,2,"[10, 20]",57.68886377,29068,1857,2,0,7,2.1826289439070536
undo,11,21,0,0,1,10,"[0, 25, 29, 18, 22, 12, 10]",7,0,[],34.88535527,30238,1170,1,0,7,2.177390719194577
undo,11,21,1,0,0,12,"[0, 25, 29, 18, 22, 12]",6,2,"[10, 20]",57.68886377,32051,1813,2,0,7,2.1826289439070536
undo,11,21,1,0,0,22,"[0, 25, 29, 18, 22]",5,13,"[2, 4, 6, 7, 10, 11, 12, 14, 17, 20, 21, 23, 27]",139.9080829,32285,234,2,11,8,1.946990970266948
undo,11,21,1,0,0,18,"[0, 25, 29, 18]",4,20,"[2, 4, 6, 7, 8, 9, 10, 11, 12, 14, 15, 16, 17, 20, 21, 22, 23, 24, 26, 27]",166.3088405,32485,200,7,31,8,2.2630282554453367
undo,11,21,1,0,0,29,"[0, 25, 29]",3,23,"[1, 2, 4, 6, 7, 8, 9, 10, 11, 12, 13, 14, 15, 16, 17, 18, 20, 21, 22, 23, 24, 26, 27]",194.9619381,32669,184,17,102,8,1.239867358623088
undo,11,21,1,0,0,25,"[0, 25]",2,26,"[1, 2, 3, 4, 5, 6, 7, 8, 9, 10, 11, 12, 13, 14, 15, 16, 17, 18, 20, 21, 22, 23, 24, 26, 27, 29]",240.1836143,33302,633,30,238,9,1.0
undo,11,21,0,0,0,23,"[0, 25, 23]",3,21,"[1, 2, 4, 6, 7, 8, 9, 10, 11, 12, 14, 15, 16, 17, 18, 20, 21, 22, 24, 27, 29]",196.8592562,36306,3004,14,80,9,1.0416131642057598
undo,11,21,0,0,0,21,"[0, 25, 23, 21]",4,14,"[1, 4, 6, 8, 9, 14, 15, 16, 17, 18, 20, 22, 24, 29]",167.2450705,37196,890,10,25,9,1.4768792067751173
undo,11,21,0,0,0,14,"[0, 25, 23, 21, 14]",5,10,"[4, 8, 9, 15, 16, 17, 18, 22, 24, 29]",141.6325735,37923,727,8,13,9,1.3826076066332742
undo,11,21,0,0,0,4,"[0, 25, 23, 21, 14, 4]",6,7,"[8, 15, 16, 17, 18, 24, 29]",127.4904379,38490,567,8,3,9,1.3487191473328533
undo,11,21,0,0,0,16,"[0, 25, 23, 21, 14, 4, 16]",7,3,"[8, 15, 24]",82.89223163,39540,1050,4,1,9,1.3301484172843694
undo,11,21,0,0,0,8,"[0, 25, 23, 21, 14, 4, 16, 8]",8,2,"[15, 24]",64.2911564,40379,839,2,0,9,1.3009886562393016
undo,11,21,0,0,1,15,"[0, 25, 23, 21, 14, 4, 16, 8, 15]",9,0,[],39.2911564,41258,879,1,0,9,1.5486591410600183
undo,11,21,0,1,1,15,"[0, 25, 23, 21, 14, 4, 16, 8, 15]",9,0,[],39.2911564,43054,1796,1,0,9,1.5486591410600183
undo,12,6,0,0,0,0,[0],1,29,"[1, 2, 3, 4, 5, 6, 7, 8, 9, 10, 11, 12, 13, 14, 15, 16, 17, 18, 19, 20, 21, 22, 23, 24, 25, 26, 27, 28, 29]",300,163,-1,180,4304,10,0.0
undo,12,6,0,0,0,26,"[0, 26]",2,25,"[1, 2, 3, 4, 5, 6, 7, 8, 9, 10, 11, 12, 13, 14, 15, 16, 17, 18, 20, 21, 22, 23, 24, 27, 29]",250.2606795,7993,7830,45,776,10,1.0
undo,12,6,0,0,0,7,"[0, 26, 7]",3,24,"[1, 2, 3, 4, 5, 6, 8, 9, 10, 11, 12, 13, 14, 15, 16, 17, 18, 20, 21, 22, 23, 24, 27, 29]",226.1774904,8904,911,25,520,10,1.5373018630243536
undo,12,6,0,0,0,3,"[0, 26, 7, 3]",4,22,"[1, 2, 4, 6, 8, 9, 10, 11, 12, 13, 14, 15, 16, 17, 18, 20, 21, 22, 23, 24, 27, 29]",190.0388684,9514,610,20,235,10,3.2798655773210936
undo,12,6,0,0,0,16,"[0, 26, 7, 3, 16]",5,15,"[1, 2, 6, 10, 13, 14, 17, 18, 20, 21, 22, 23, 24, 27, 29]",143.8003563,10802,1288,3,39,10,2.164019536669599
undo,12,6,0,0,0,18,"[0, 26, 7, 3, 16, 18]",6,10,"[1, 2, 6, 10, 13, 17, 22, 23, 24, 29]",120.4551212,11836,1034,2,15,10,2.9481162560127245
undo,12,6,0,0,0,17,"[0, 26, 7, 3, 16, 18, 17]",7,8,"[2, 6, 10, 13, 22, 23, 24, 29]",106.526733,12586,750,2,8,10,2.7413386825172235
undo,12,6,0,0,0,10,"[0, 26, 7, 3, 16, 18, 17, 10]",8,4,"[6, 23, 24, 29]",86.80365003,13481,895,2,3,10,2.5276843215308205
undo,12,6,0,0,0,24,"[0, 26, 7, 3, 16, 18, 17, 10, 24]",9,2,"[6, 23]",73.38724217,14056,575,2,0,10,2.329169561976636
undo,12,6,0,0,1,23,"[0, 26, 7, 3, 16, 18, 17, 10, 24, 23]",10,0,[],12.19900801,15450,1394,1,0,10,2.14454631567595
undo,12,6,0,1,1,23,"[0, 26, 7, 3, 16, 18, 17, 10, 24, 23]",10,0,[],12.19900801,20534,5084,1,0,10,2.14454631567595
undo,13,41,0,0,0,0,[0],1,29,"[1, 2, 3, 4, 5, 6, 7, 8, 9, 10, 11, 12, 13, 14, 15, 16, 17, 18, 19, 20, 21, 22, 23, 24, 25, 26, 27, 28, 29]",300,163,-1,1,143,10,0.0
undo,13,41,0,0,0,13,"[0, 13]",2,23,"[1, 2, 3, 5, 6, 7, 9, 10, 11, 12, 14, 15, 17, 18, 19, 20, 21, 22, 24, 25, 26, 27, 28]",258.2747079,5703,5540,1,55,10,1.0
undo,13,41,0,0,0,28,"[0, 13, 28]",3,22,"[1, 2, 3, 5, 6, 7, 9, 10, 11, 12, 14, 15, 17, 18, 19, 20, 21, 22, 24, 25, 26, 27]",223.7928286,6770,1067,1,39,10,1.895724242592676
undo,13,41,0,0,0,5,"[0, 13, 28, 5]",4,19,"[1, 2, 3, 6, 9, 10, 11, 12, 14, 15, 17, 18, 19, 20, 21, 22, 24, 25, 27]",210.1913581,7880,1110,1,34,10,2.861541269398273
undo,13,41,0,0,0,3,"[0, 13, 28, 5, 3]",5,16,"[1, 2, 6, 9, 10, 12, 14, 17, 18, 19, 20, 21, 22, 24, 25, 27]",175.3632086,8785,905,1,22,10,3.1455488489005883
undo,13,41,0,0,0,21,"[0, 13, 28, 5, 3, 21]",6,14,"[1, 2, 6, 9, 10, 12, 14, 17, 18, 19, 20, 22, 25, 27]",143.2228912,9560,775,13,11,9,3.207558429289677
undo,13,41,0,0,0,9,"[0, 13, 28, 5, 3, 21, 9]",7,6,"[1, 2, 10, 12, 14, 17]",93.85691102,10710,1150,7,4,9,2.5050148501792275
undo,13,41,0,0,0,2,"[0, 13, 28, 5, 3, 21, 9, 2]",8,5,"[1, 10, 12, 14, 17]",81.77386505,11220,510,5,0,9,2.4119643847713177
undo,13,41,0,0,1,17,"[0, 13, 28, 5, 3, 21, 9, 2, 17]",9,0,[],49.21622385,12468,1248,1,0,9,3.9563478735796007
undo,13,41,1,0,0,2,"[0, 13, 28, 5, 3, 21, 9, 2]",8,5,"[1, 10, 12, 14, 17]",81.77386505,16631,4163,5,0,9,2.4119643847713177
undo,13,41,1,0,0,9,"[0, 13, 28, 5, 3, 21, 9]",7,6,"[1, 2, 10, 12, 14, 17]",93.85691102,18631,2000,7,4,9,2.5050148501792275
undo,13,41,0,0,0,17,"[0, 13, 28, 5, 3, 21, 9, 17]",8,2,"[2, 10]",62.84078618,20157,1526,2,0,9,3.741407700693348
undo,13,41,0,0,1,10,"[0, 13, 28, 5, 3, 21, 9, 17, 10]",9,0,[],13.59649717,21093,936,1,0,9,3.3854220353735953
undo,13,41,0,1,1,10,"[0, 13, 28, 5, 3, 21, 9, 17, 10]",9,0,[],13.59649717,24616,3523,1,0,9,3.3854220353735953
undo,14,7,0,0,0,0,[0],1,29,"[1, 2, 3, 4, 5, 6, 7, 8, 9, 10, 11, 12, 13, 14, 15, 16, 17, 18, 19, 20, 21, 22, 23, 24, 25, 26, 27, 28, 29]",300,164,-1,3,79,9,0.0
undo,14,7,0,0,0,15,"[0, 15]",2,19,"[2, 4, 5, 6, 7, 8, 9, 10, 13, 14, 16, 18, 19, 20, 21, 23, 25, 27, 28]",230.9348134,4121,3957,2,38,9,1.0
undo,14,7,0,0,0,6,"[0, 15, 6]",3,18,"[2, 4, 5, 7, 8, 9, 10, 13, 14, 16, 18, 19, 20, 21, 23, 25, 27, 28]",205.854941,4961,840,2,36,9,1.366719602896943
undo,14,7,0,0,0,25,"[0, 15, 6, 25]",4,11,"[2, 4, 7, 13, 14, 16, 18, 19, 20, 21, 23]",138.6760753,6729,1768,2,28,9,1.3624631728355765
undo,14,7,0,0,0,4,"[0, 15, 6, 25, 4]",5,7,"[2, 7, 13, 16, 18, 19, 20]",113.9374415,7697,968,2,12,9,1.3249684384385587
undo,14,7,0,0,0,20,"[0, 15, 6, 25, 4, 20]",6,5,"[2, 7, 13, 18, 19]",94.29055881,8520,823,1,6,9,1.3721893242679268
undo,14,7,0,0,0,18,"[0, 15, 6, 25, 4, 20, 18]",7,3,"[7, 13, 19]",81.48431034,10802,2282,1,2,9,1.5262542308371432
undo,14,7,0,0,0,7,"[0, 15, 6, 25, 4, 20, 18, 7]",8,1,[19],40.25325408,12069,1267,1,0,9,1.41986878673423
undo,14,7,0,0,1,19,"[0, 15, 6, 25, 4, 20, 18, 7, 19]",9,0,[],10.84237174,12944,875,1,0,9,1.5285658163212987
undo,14,7,0,1,1,19,"[0, 15, 6, 25, 4, 20, 18, 7, 19]",9,0,[],10.84237174,15584,2640,1,0,9,1.5285658163212987
undo,15,19,0,0,0,0,[0],1,29,"[1, 2, 3, 4, 5, 6, 7, 8, 9, 10, 11, 12, 13, 14, 15, 16, 17, 18, 19, 20, 21, 22, 23, 24, 25, 26, 27, 28, 29]",300,163,-1,12,149,8,0.0
undo,15,19,0,0,0,29,"[0, 29]",2,28,"[1, 2, 3, 4, 5, 6, 7, 8, 9, 10, 11, 12, 13, 14, 15, 16, 17, 18, 19, 20, 21, 22, 23, 24, 25, 26, 27, 28]",265.0715016,6185,6022,12,120,8,1.0
undo,15,19,0,0,0,9,"[0, 29, 9]",3,17,"[1, 4, 5, 6, 7, 10, 11, 12, 13, 14, 19, 20, 21, 22, 24, 27, 28]",181.7108394,7253,1068,11,65,8,1.0375842971861238
undo,15,19,0,0,0,6,"[0, 29, 9, 6]",4,12,"[4, 7, 10, 11, 13, 14, 20, 21, 22, 24, 27, 28]",140.2741407,8342,1089,11,34,8,1.0389786364356892
undo,15,19,0,0,0,4,"[0, 29, 9, 6, 4]",5,7,"[10, 11, 14, 20, 22, 27, 28]",99.22538921,9711,1369,2,6,8,1.2182485830176533
undo,15,19,0,0,0,28,"[0, 29, 9, 6, 4, 28]",6,3,"[11, 14, 27]",88.04504932,12814,3103,2,1,8,1.2933703503588658
undo,15,19,0,0,0,14,"[0, 29, 9, 6, 4, 28, 14]",7,1,[11],30.46032912,14388,1574,1,0,8,1.2889112786863766
undo,15,19,0,0,1,11,"[0, 29, 9, 6, 4, 28, 14, 11]",8,0,[],19.6436753,15014,626,1,0,8,1.2786737377290265
undo,15,19,1,0,0,14,"[0, 29, 9, 6, 4, 28, 14]",7,1,[11],30.46032912,18817,3803,1,0,8,1.2889112786863766
undo,15,19,1,0,0,28,"[0, 29, 9, 6, 4, 28]",6,3,"[11, 14, 27]",88.04504932,19201,384,2,1,8,1.2933703503588658
undo,15,19,1,0,0,4,"[0, 29, 9, 6, 4]",5,7,"[10, 11, 14, 20, 22, 27, 28]",99.22538921,19718,517,2,6,8,1.2182485830176533
undo,15,19,1,0,0,6,"[0, 29, 9, 6]",4,12,"[4, 7, 10, 11, 13, 14, 20, 21, 22, 24, 27, 28]",140.2741407,20634,916,11,34,8,1.0389786364356892
undo,15,19,0,0,0,10,"[0, 29, 9, 6, 10]",5,6,"[7, 11, 14, 20, 21, 22]",88.12052147,23968,3334,2,4,7,1.155862919557741
undo,15,19,0,0,0,22,"[0, 29, 9, 6, 10, 22]",6,1,[20],42.15314173,25022,1054,1,0,7,1.2103352285308004
undo,15,19,0,0,1,20,"[0, 29, 9, 6, 10, 22, 20]",7,0,[],29.00019529,25798,776,1,0,7,1.198691816359345
undo,15,19,1,0,0,22,"[0, 29, 9, 6, 10, 22]",6,1,[20],42.15314173,28303,2505,1,0,7,1.2103352285308004
undo,15,19,1,0,0,10,"[0, 29, 9, 6, 10]",5,6,"[7, 11, 14, 20, 21, 22]",88.12052147,28719,416,2,4,7,1.155862919557741
undo,15,19,1,0,0,6,"[0, 29, 9, 6]",4,12,"[4, 7, 10, 11, 13, 14, 20, 21, 22, 24, 27, 28]",140.2741407,29219,500,11,34,8,1.0389786364356892
undo,15,19,0,0,0,4,"[0, 29, 9, 6, 4]",5,7,"[10, 11, 14, 20, 22, 27, 28]",99.22538921,31206,1987,2,6,8,1.2182485830176533
undo,15,19,0,0,0,28,"[0, 29, 9, 6, 4, 28]",6,3,"[11, 14, 27]",88.04504932,32141,935,2,1,8,1.2933703503588658
undo,15,19,0,0,0,14,"[0, 29, 9, 6, 4, 28, 14]",7,1,[11],30.46032912,33316,1175,1,0,8,1.2889112786863766
undo,15,19,0,0,1,11,"[0, 29, 9, 6, 4, 28, 14, 11]",8,0,[],19.6436753,34190,874,1,0,8,1.2786737377290265
undo,15,19,0,1,1,11,"[0, 29, 9, 6, 4, 28, 14, 11]",8,0,[],19.6436753,39605,5415,1,0,8,1.2786737377290265
undo,16,43,0,0,0,0,[0],1,23,"[1, 2, 3, 4, 5, 6, 7, 9, 10, 11, 12, 14, 15, 16, 17, 19, 20, 21, 22, 23, 25, 27, 29]",300,163,-1,16,556,12,0.0
undo,16,43,0,0,0,29,"[0, 29]",2,22,"[1, 2, 3, 4, 5, 6, 7, 9, 10, 11, 12, 14, 15, 16, 17, 19, 20, 21, 22, 23, 25, 27]",277.909278,3491,3328,16,520,12,1.0
undo,16,43,0,0,0,20,"[0, 29, 20]",3,20,"[1, 2, 3, 4, 6, 7, 9, 10, 11, 12, 14, 15, 16, 17, 19, 21, 22, 23, 25, 27]",254.4785289,4492,1001,15,422,12,1.082311746871282
undo,16,43,0,0,0,16,"[0, 29, 20, 16]",4,19,"[1, 2, 3, 4, 6, 7, 9, 10, 11, 12, 14, 15, 17, 19, 21, 22, 23, 25, 27]",231.8511119,5551,1059,15,389,12,1.215201926898219
undo,16,43,0,0,0,15,"[0, 29, 20, 16, 15]",5,14,"[1, 2, 3, 4, 6, 7, 9, 11, 12, 14, 19, 22, 23, 25]",188.5267539,7541,1990,3,109,12,1.3482474915350444
undo,16,43,0,0,0,25,"[0, 29, 20, 16, 15, 25]",6,12,"[1, 3, 4, 6, 7, 9, 11, 12, 14, 19, 22, 23]",165.8551858,8341,800,2,43,12,1.691408721191545
undo,16,43,0,0,0,12,"[0, 29, 20, 16, 15, 25, 12]",7,11,"[1, 3, 4, 6, 7, 9, 11, 14, 19, 22, 23]",141.6684126,9244,903,2,32,12,1.6015983641428178
undo,16,43,0,0,0,3,"[0, 29, 20, 16, 15, 25, 12, 3]",8,10,"[1, 4, 6, 7, 9, 11, 14, 19, 22, 23]",128.6684126,10957,1713,2,24,12,1.5379830456120627
undo,16,43,0,0,0,22,"[0, 29, 20, 16, 15, 25, 12, 3, 22]",9,6,"[1, 6, 7, 11, 14, 19]",93.95530264,12019,1062,1,11,12,1.7275686117408873
undo,16,43,0,0,0,19,"[0, 29, 20, 16, 15, 25, 12, 3, 22, 19]",10,4,"[1, 6, 7, 11]",73.33977451,13120,1101,1,3,12,1.6315360037595275
undo,16,43,0,0,0,1,"[0, 29, 20, 16, 15, 25, 12, 3, 22, 19, 1]",11,1,[7],45.1617689,13845,725,1,0,12,1.7703076545303877
undo,16,43,1,0,0,19,"[0, 29, 20, 16, 15, 25, 12, 3, 22, 19]",10,4,"[1, 6, 7, 11]",73.33977451,19667,5822,1,3,12,1.6315360037595275
undo,16,43,1,0,0,22,"[0, 29, 20, 16, 15, 25, 12, 3, 22]",9,6,"[1, 6, 7, 11, 14, 19]",93.95530264,20184,517,1,11,12,1.7275686117408873
undo,16,43,0,0,0,11,"[0, 29, 20, 16, 15, 25, 12, 3, 22, 11]",10,2,"[6, 14]",47.89013141,21261,1077,2,0,11,2.7704381163736262
undo,16,43,0,0,1,6,"[0, 29, 20, 16, 15, 25, 12, 3, 22, 11, 6]",11,0,[],27.27460328,22071,810,1,0,11,2.472790800955036
undo,16,43,1,0,0,11,"[0, 29, 20, 16, 15, 25, 12, 3, 22, 11]",10,2,"[6, 14]",47.89013141,28085,6014,2,0,11,2.7704381163736262
undo,16,43,1,0,0,22,"[0, 29, 20, 16, 15, 25, 12, 3, 22]",9,6,"[1, 6, 7, 11, 14, 19]",93.95530264,28536,451,1,11,12,1.7275686117408873
undo,16,43,0,0,0,19,"[0, 29, 20, 16, 15, 25, 12, 3, 22, 19]",10,4,"[1, 6, 7, 11]",73.33977451,30228,1692,1,3,12,1.6315360037595275
undo,16,43,0,0,0,1,"[0, 29, 20, 16, 15, 25, 12, 3, 22, 19, 1]",11,1,[7],45.1617689,34542,4314,1,0,12,1.7703076545303877
undo,16,43,0,0,1,7,"[0, 29, 20, 16, 15, 25, 12, 3, 22, 19, 1, 7]",12,0,[],6.951822553,36053,1511,1,0,12,1.6607094905815594
undo,16,43,0,1,1,7,"[0, 29, 20, 16, 15, 25, 12, 3, 22, 19, 1, 7]",12,0,[],6.951822553,38554,2501,1,0,12,1.6607094905815594
undo,17,10,0,0,0,0,[0],1,29,"[1, 2, 3, 4, 5, 6, 7, 8, 9, 10, 11, 12, 13, 14, 15, 16, 17, 18, 19, 20, 21, 22, 23, 24, 25, 26, 27, 28, 29]",300,147,-1,1,100,9,0.0
undo,17,10,0,0,0,13,"[0, 13]",2,25,"[1, 2, 3, 4, 6, 7, 8, 9, 10, 11, 12, 14, 17, 18, 19, 20, 21, 22, 23, 24, 25, 26, 27, 28, 29]",249.4628849,5702,5555,1,79,9,1.0
undo,17,10,0,0,0,11,"[0, 13, 11]",3,20,"[1, 2, 3, 6, 7, 8, 9, 10, 12, 14, 18, 19, 20, 21, 22, 24, 26, 27, 28, 29]",206.4512586,6818,1116,1,54,9,1.0313137484914219
undo,17,10,0,0,0,20,"[0, 13, 11, 20]",4,15,"[1, 2, 3, 6, 8, 9, 10, 12, 14, 18, 19, 21, 24, 26, 27]",168.3723931,8943,2125,15,34,8,1.0874972644654597
undo,17,10,0,0,0,26,"[0, 13, 11, 20, 26]",5,8,"[2, 6, 9, 10, 14, 18, 19, 27]",136.5918959,9686,743,6,9,8,1.2338398611867702
undo,17,10,0,0,0,19,"[0, 13, 11, 20, 26, 19]",6,4,"[2, 10, 14, 27]",108.2722914,10447,761,2,2,8,1.605667351096318
undo,17,10,0,0,0,14,"[0, 13, 11, 20, 26, 19, 14]",7,1,[2],67.04123512,11352,905,1,0,8,1.4566183057047435
undo,17,10,0,0,1,2,"[0, 13, 11, 20, 26, 19, 14, 2]",8,0,[],54.87571006,11919,567,1,0,8,1.5015428902812569
undo,17,10,1,0,0,14,"[0, 13, 11, 20, 26, 19, 14]",7,1,[2],67.04123512,14534,2615,1,0,8,1.4566183057047435
undo,17,10,1,0,0,19,"[0, 13, 11, 20, 26, 19]",6,4,"[2, 10, 14, 27]",108.2722914,14950,416,2,2,8,1.605667351096318
undo,17,10,1,0,0,26,"[0, 13, 11, 20, 26]",5,8,"[2, 6, 9, 10, 14, 18, 19, 27]",136.5918959,15401,451,6,9,8,1.2338398611867702
undo,17,10,1,0,0,20,"[0, 13, 11, 20]",4,15,"[1, 2, 3, 6, 8, 9, 10, 12, 14, 18, 19, 21, 24, 26, 27]",168.3723931,15801,400,15,34,8,1.0874972644654597
undo,17,10,1,0,0,11,"[0, 13, 11]",3,20,"[1, 2, 3, 6, 7, 8, 9, 10, 12, 14, 18, 19, 20, 21, 22, 24, 26, 27, 28, 29]",206.4512586,16184,383,1,54,9,1.0313137484914219
undo,17,10,0,0,0,19,"[0, 13, 11, 19]",4,11,"[2, 6, 8, 9, 10, 14, 18, 20, 24, 26, 27]",170.0919407,17568,1384,1,22,9,1.0879446220132545
undo,17,10,0,0,0,2,"[0, 13, 11, 19, 2]",5,4,"[14, 20, 26, 27]",126.1829439,18567,999,1,4,9,1.06474052351343
undo,17,10,0,0,0,14,"[0, 13, 11, 19, 2, 14]",6,3,"[20, 26, 27]",114.0174188,19463,896,1,3,9,1.1628909195912238
undo,17,10,0,0,0,26,"[0, 13, 11, 19, 2, 14, 26]",7,2,"[20, 27]",79.34754716,20339,876,1,1,9,1.6660727647633602
undo,17,10,0,0,0,20,"[0, 13, 11, 19, 2, 14, 26, 20]",8,1,[27],47.56704999,21206,867,1,0,9,2.085581809637999
undo,17,10,0,0,1,27,"[0, 13, 11, 19, 2, 14, 26, 20, 27]",9,0,[],2.312215998,22575,1369,1,0,9,1.9116357409137932
undo,17,10,0,1,1,27,"[0, 13, 11, 19, 2, 14, 26, 20, 27]",9,0,[],2.312215998,26319,3744,1,0,9,1.9116357409137932
undo,18,27,0,0,0,0,[0],1,26,"[1, 3, 5, 6, 7, 8, 9, 10, 11, 12, 13, 14, 15, 16, 17, 18, 19, 21, 22, 23, 24, 25, 26, 27, 28, 29]",300,164,-1,13,578,11,0.0
undo,18,27,0,0,0,15,"[0, 15]",2,24,"[1, 3, 5, 6, 7, 8, 9, 10, 11, 12, 13, 14, 16, 17, 18, 19, 21, 22, 23, 24, 25, 26, 27, 29]",263.7508621,3402,3238,6,219,11,1.0
undo,18,27,0,0,0,24,"[0, 15, 24]",3,20,"[1, 5, 6, 7, 8, 9, 10, 12, 13, 14, 16, 17, 18, 19, 21, 23, 25, 26, 27, 29]",246.5462115,4118,716,6,130,11,1.130933077698322
undo,18,27,0,0,0,17,"[0, 15, 24, 17]",4,15,"[1, 6, 8, 10, 12, 13, 14, 16, 18, 19, 23, 25, 26, 27, 29]",229.9932662,4739,621,4,60,11,1.1285538435963374
undo,18,27,0,0,0,12,"[0, 15, 24, 17, 12]",5,14,"[1, 6, 8, 10, 13, 14, 16, 18, 19, 23, 25, 26, 27, 29]",218.8129263,5476,737,2,32,11,1.2561880288755216
undo,18,27,0,0,0,10,"[0, 15, 24, 17, 12, 10]",6,11,"[1, 8, 13, 14, 18, 19, 23, 25, 26, 27, 29]",207.7675653,6250,774,2,28,11,1.2228289337766665
undo,18,27,0,0,0,13,"[0, 15, 24, 17, 12, 10, 13]",7,9,"[1, 8, 14, 18, 19, 23, 26, 27, 29]",167.9178476,7291,1041,2,18,11,1.3421291994761178
undo,18,27,0,0,0,19,"[0, 15, 24, 17, 12, 10, 13, 19]",8,5,"[1, 8, 14, 23, 29]",131.6825057,8473,1182,2,6,11,1.294749956153846
undo,18,27,0,0,0,8,"[0, 15, 24, 17, 12, 10, 13, 19, 8]",9,3,"[14, 23, 29]",116.816437,9602,1129,2,1,11,1.3554286578836865
undo,18,27,0,0,0,14,"[0, 15, 24, 17, 12, 10, 13, 19, 8, 14]",10,1,[29],59.25777126,10946,1344,1,0,11,1.312380420632942
undo,18,27,0,0,1,29,"[0, 15, 24, 17, 12, 10, 13, 19, 8, 14, 29]",11,0,[],14.96330208,12276,1330,1,0,11,1.4680136813839417
undo,18,27,0,1,1,29,"[0, 15, 24, 17, 12, 10, 13, 19, 8, 14, 29]",11,0,[],14.96330208,13883,1607,1,0,11,1.4680136813839417
undo,19,31,0,0,0,0,[0],1,27,"[1, 3, 4, 5, 6, 7, 8, 10, 11, 12, 13, 14, 15, 16, 17, 18, 19, 20, 21, 22, 23, 24, 25, 26, 27, 28, 29]",300,166,-1,2,87,10,0.0
undo,19,31,0,0,0,14,"[0, 14]",2,25,"[1, 3, 5, 6, 7, 8, 10, 11, 12, 13, 15, 16, 17, 18, 19, 20, 21, 22, 23, 24, 25, 26, 27, 28, 29]",263.861378,3821,3655,2,59,10,1.0
undo,19,31,0,0,0,27,"[0, 14, 27]",3,22,"[1, 3, 5, 6, 7, 8, 10, 11, 12, 13, 15, 16, 17, 18, 19, 20, 21, 22, 24, 25, 28, 29]",235.6833724,4822,1001,1,39,10,1.5881859159302467
undo,19,31,0,0,0,8,"[0, 14, 27, 8]",4,20,"[1, 3, 5, 6, 7, 10, 11, 12, 13, 16, 17, 18, 19, 20, 21, 22, 24, 25, 28, 29]",224.6380114,5404,582,1,36,10,2.1665048452331277
undo,19,31,0,0,0,18,"[0, 14, 27, 8, 18]",5,15,"[1, 5, 6, 7, 11, 12, 13, 16, 17, 19, 20, 22, 25, 28, 29]",188.7911147,6342,938,1,26,10,1.7273375741920205
undo,19,31,0,0,0,17,"[0, 14, 27, 8, 18, 17]",6,13,"[1, 5, 6, 7, 11, 12, 13, 16, 19, 20, 22, 25, 28]",159.584951,7077,735,1,13,10,1.551192427769927
undo,19,31,0,0,0,11,"[0, 14, 27, 8, 18, 17, 11]",7,7,"[5, 12, 16, 19, 22, 25, 28]",118.4753414,8366,1289,1,4,10,2.9650760544203494
undo,19,31,0,0,0,5,"[0, 14, 27, 8, 18, 17, 11, 5]",8,2,"[16, 28]",74.79468207,9359,993,1,1,10,2.56711965625205
undo,19,31,0,0,0,28,"[0, 14, 27, 8, 18, 17, 11, 5, 28]",9,1,[16],54.57093365,10078,719,1,0,10,2.2865510762058148
undo,19,31,0,0,1,16,"[0, 14, 27, 8, 18, 17, 11, 5, 28, 16]",10,0,[],20.95546102,10932,854,1,0,10,2.089356850786318
undo,19,31,0,1,1,16,"[0, 14, 27, 8, 18, 17, 11, 5, 28, 16]",10,0,[],20.95546102,15869,4937,1,0,10,2.089356850786318
undo,20,38,0,0,0,0,[0],1,29,"[1, 2, 3, 4, 5, 6, 7, 8, 9, 10, 11, 12, 13, 14, 15, 16, 17, 18, 19, 20, 21, 22, 23, 24, 25, 26, 27, 28, 29]",300,113,-1,33,506,9,0.0
undo,20,38,0,0,0,11,"[0, 11]",2,23,"[1, 2, 3, 4, 5, 7, 10, 12, 13, 14, 15, 16, 17, 18, 19, 20, 21, 22, 24, 25, 26, 27, 28]",220.093805,5006,4893,2,40,9,1.0
undo,20,38,0,0,0,28,"[0, 11, 28]",3,16,"[1, 4, 5, 7, 10, 12, 13, 14, 15, 16, 17, 19, 20, 21, 24, 26]",193.0752928,5789,783,2,20,9,1.0012220945316377
undo,20,38,0,0,0,16,"[0, 11, 28, 16]",4,13,"[1, 4, 5, 10, 12, 13, 14, 15, 17, 19, 20, 24, 26]",164.0752928,6733,944,2,16,9,1.2422672958602723
undo,20,38,0,0,0,15,"[0, 11, 28, 16, 15]",5,9,"[4, 5, 13, 14, 17, 19, 20, 24, 26]",122.4579887,7768,1035,2,14,9,2.4196280466601676
undo,20,38,0,0,0,4,"[0, 11, 28, 16, 15, 4]",6,6,"[13, 17, 19, 20, 24, 26]",96.45798873,8726,958,2,9,9,2.9030072771852855
undo,20,38,0,0,0,20,"[0, 11, 28, 16, 15, 4, 20]",7,3,"[13, 17, 19]",62.51686323,11319,2593,1,2,9,4.409951139385221
undo,20,38,0,0,0,17,"[0, 11, 28, 16, 15, 4, 20, 17]",8,1,[19],38.74713459,12086,767,1,0,9,4.030739410625113
undo,20,38,0,0,1,19,"[0, 11, 28, 16, 15, 4, 20, 17, 19]",9,0,[],17.36957626,12934,848,1,0,9,3.511004666623391
undo,20,38,0,1,1,19,"[0, 11, 28, 16, 15, 4, 20, 17, 19]",9,0,[],17.36957626,24207,11273,1,0,9,3.511004666623391
undo,21,9,0,0,0,0,[0],1,27,"[1, 3, 4, 5, 6, 7, 8, 9, 10, 11, 13, 14, 15, 16, 17, 18, 19, 20, 21, 22, 23, 24, 25, 26, 27, 28, 29]",300,163,-1,2,182,10,0.0
undo,21,9,0,0,0,25,"[0, 25]",2,24,"[1, 3, 4, 5, 6, 7, 8, 9, 10, 11, 13, 15, 16, 17, 18, 19, 20, 21, 22, 23, 24, 26, 27, 28]",275.9168108,4089,3926,2,104,10,1.0
undo,21,9,0,0,0,10,"[0, 25, 10]",3,20,"[3, 4, 5, 7, 8, 9, 11, 13, 15, 16, 17, 18, 19, 20, 21, 22, 23, 26, 27, 28]",236.0670932,4919,830,2,76,10,1.1767014107208227
undo,21,9,0,0,0,8,"[0, 25, 10, 8]",4,19,"[3, 4, 5, 7, 9, 11, 13, 15, 16, 17, 18, 19, 20, 21, 22, 23, 26, 27, 28]",187.6935467,6634,1715,1,29,10,1.7608170712242983
undo,21,9,0,0,0,23,"[0, 25, 10, 8, 23]",5,15,"[3, 4, 5, 7, 9, 11, 16, 18, 19, 20, 21, 22, 26, 27, 28]",166.2226361,7809,1175,10,32,9,2.2468522467908687
undo,21,9,0,0,0,9,"[0, 25, 10, 8, 23, 9]",6,12,"[3, 4, 7, 11, 18, 19, 20, 21, 22, 26, 27, 28]",143.8619563,8851,1042,5,10,9,2.096804588964727
undo,21,9,0,0,0,28,"[0, 25, 10, 8, 23, 9, 28]",7,4,"[20, 21, 22, 26]",103.0452931,9626,775,3,1,9,2.651641895794339
undo,21,9,1,0,0,9,"[0, 25, 10, 8, 23, 9]",6,12,"[3, 4, 7, 11, 18, 19, 20, 21, 22, 26, 27, 28]",143.8619563,11815,2189,5,10,9,2.096804588964727
undo,21,9,1,0,0,23,"[0, 25, 10, 8, 23]",5,15,"[3, 4, 5, 7, 9, 11, 16, 18, 19, 20, 21, 22, 26, 27, 28]",166.2226361,12099,284,10,32,9,2.2468522467908687
undo,21,9,1,0,0,8,"[0, 25, 10, 8]",4,19,"[3, 4, 5, 7, 9, 11, 13, 15, 16, 17, 18, 19, 20, 21, 22, 23, 26, 27, 28]",187.6935467,12633,534,1,29,10,1.7608170712242983
undo,21,9,0,0,0,28,"[0, 25, 10, 8, 28]",5,18,"[3, 4, 5, 7, 9, 11, 13, 15, 16, 17, 18, 19, 20, 21, 22, 23, 26, 27]",176.8768928,13704,1071,1,15,10,1.6576318206889098
undo,21,9,0,0,0,23,"[0, 25, 10, 8, 28, 23]",6,12,"[3, 4, 7, 9, 11, 18, 19, 20, 21, 22, 26, 27]",151.8569008,14608,904,1,7,10,2.488131366775142
undo,21,9,0,0,0,9,"[0, 25, 10, 8, 28, 23, 9]",7,10,"[3, 4, 7, 11, 18, 19, 20, 21, 26, 27]",129.4962211,15440,832,1,5,10,2.289724512754012
undo,21,9,0,0,0,26,"[0, 25, 10, 8, 28, 23, 9, 26]",8,3,"[18, 20, 21]",72.8481849,17455,2015,1,2,10,1.944382504121744
undo,21,9,0,0,0,21,"[0, 25, 10, 8, 28, 23, 9, 26, 21]",9,1,[20],18.94085701,18504,1049,1,0,10,2.3711528775176802
undo,21,9,0,0,1,20,"[0, 25, 10, 8, 28, 23, 9, 26, 21, 20]",10,0,[],6.85781104,19240,736,1,0,10,2.3146010432238726
undo,21,9,0,1,1,20,"[0, 25, 10, 8, 28, 23, 9, 26, 21, 20]",10,0,[],6.85781104,21251,2011,1,0,10,2.3146010432238726
undo,22,33,0,0,0,0,[0],1,23,"[1, 2, 5, 7, 8, 11, 12, 13, 14, 15, 16, 17, 18, 19, 20, 21, 23, 24, 25, 26, 27, 28, 29]",300,163,-1,5,108,9,0.0
undo,22,33,0,0,0,8,"[0, 8]",2,22,"[1, 2, 5, 7, 11, 12, 13, 14, 15, 16, 17, 18, 19, 20, 21, 23, 24, 25, 26, 27, 28, 29]",265.8679037,3714,3551,5,87,9,1.0
undo,22,33,0,0,0,21,"[0, 8, 21]",3,16,"[2, 5, 7, 11, 13, 14, 16, 17, 18, 19, 20, 24, 26, 27, 28, 29]",166.0430571,5778,2064,5,80,9,1.0670557763739492
undo,22,33,0,0,0,13,"[0, 8, 21, 13]",4,12,"[2, 7, 11, 14, 16, 17, 18, 19, 20, 24, 26, 29]",139.6422995,7969,2191,4,54,9,1.0555103820910288
undo,22,33,0,0,0,19,"[0, 8, 21, 13, 19]",5,10,"[7, 11, 14, 16, 17, 18, 20, 24, 26, 29]",114.1472019,8819,850,3,19,9,1.1090798607799486
undo,22,33,0,0,0,7,"[0, 8, 21, 13, 19, 7]",6,5,"[14, 18, 24, 26, 29]",68.52922302,14770,5951,1,4,9,1.086202642130009
undo,22,33,0,0,0,14,"[0, 8, 21, 13, 19, 7, 14]",7,3,"[24, 26, 29]",53.66315427,15403,633,1,2,9,1.1354822367616264
undo,22,33,0,0,0,26,"[0, 8, 21, 13, 19, 7, 14, 26]",8,1,[29],41.01404363,15962,559,1,0,9,1.144734735418919
undo,22,33,0,0,1,29,"[0, 8, 21, 13, 19, 7, 14, 26, 29]",9,0,[],13.12139227,17097,1135,1,0,9,1.3638482940300902
undo,22,33,0,1,1,29,"[0, 8, 21, 13, 19, 7, 14, 26, 29]",9,0,[],13.12139227,20000,2903,1,0,9,1.3638482940300902
basic,23,40,0,0,0,0,[0],1,29,"[1, 2, 3, 4, 5, 6, 7, 8, 9, 10, 11, 12, 13, 14, 15, 16, 17, 18, 19, 20, 21, 22, 23, 24, 25, 26, 27, 28, 29]",300,182,-1,8,191,9,0.0
basic,23,40,0,0,0,2,"[0, 2]",2,28,"[1, 3, 4, 5, 6, 7, 8, 9, 10, 11, 12, 13, 14, 15, 16, 17, 18, 19, 20, 21, 22, 23, 24, 25, 26, 27, 28, 29]",263.7646581,16515,16333,4,79,9,1.0
basic,23,40,0,0,0,19,"[0, 2, 19]",3,22,"[1, 5, 6, 7, 8, 9, 10, 11, 13, 14, 15, 17, 18, 20, 21, 22, 23, 24, 25, 26, 27, 29]",194.4249148,17834,1319,19,105,8,1.02908296307533
basic,23,40,0,0,0,23,"[0, 2, 19, 23]",4,15,"[1, 5, 6, 7, 8, 9, 10, 11, 13, 17, 18, 21, 22, 27, 29]",162.4718242,18730,896,11,38,8,1.4499965171787688
basic,23,40,0,0,0,5,"[0, 2, 19, 23, 5]",5,10,"[1, 6, 7, 8, 9, 11, 18, 21, 22, 27]",134.1698808,19547,817,4,12,8,1.3483906154476113
basic,23,40,0,0,0,18,"[0, 2, 19, 23, 5, 18]",6,5,"[1, 6, 9, 21, 22]",102.594574,20635,1088,3,3,8,1.6664768989460201
basic,23,40,0,0,0,9,"[0, 2, 19, 23, 5, 18, 9]",7,2,"[6, 21]",86.04162866,21467,832,2,0,8,1.7348609689602368
basic,23,40,0,0,1,21,"[0, 2, 19, 23, 5, 18, 9, 21]",8,0,[],40.33604914,22474,1007,1,0,8,2.1548319090303782
basic,23,40,0,1,1,21,"[0, 2, 19, 23, 5, 18, 9, 21]",8,0,[],40.33604914,24504,2030,1,0,8,2.1548319090303782
basic,24,2,0,0,0,0,[0],1,23,"[1, 2, 4, 5, 6, 7, 8, 9, 12, 13, 15, 16, 17, 18, 19, 20, 22, 23, 25, 26, 27, 28, 29]",300,165,-1,70,620,10,0.0
basic,24,2,0,0,0,19,"[0, 19]",2,22,"[1, 2, 4, 5, 6, 7, 8, 9, 12, 13, 15, 16, 17, 18, 20, 22, 23, 25, 26, 27, 28, 29]",210.306076,4538,4373,67,431,10,1.0
basic,24,2,0,0,0,12,"[0, 19, 12]",3,17,"[1, 4, 5, 6, 7, 13, 15, 16, 17, 18, 20, 22, 25, 26, 27, 28, 29]",174.2921898,5472,934,66,298,10,1.1107635036313153
basic,24,2,0,0,0,5,"[0, 19, 12, 5]",4,11,"[1, 6, 7, 13, 15, 16, 18, 22, 25, 26, 29]",144.7625437,6213,741,38,136,10,1.0968174771581647
basic,24,2,0,0,0,22,"[0, 19, 12, 5, 22]",5,8,"[1, 6, 7, 13, 15, 18, 26, 29]",131.9562952,7314,1101,20,63,10,1.0889910507461968
basic,24,2,0,0,0,13,"[0, 19, 12, 5, 22, 13]",6,7,"[1, 6, 7, 15, 18, 26, 29]",117.0902265,7946,632,19,20,10,1.236526217328057
basic,24,2,0,0,0,18,"[0, 19, 12, 5, 22, 13, 18]",7,4,"[7, 15, 26, 29]",81.91921567,8979,1033,10,3,10,1.2128708213409936
basic,24,2,0,0,0,7,"[0, 19, 12, 5, 22, 13, 18, 7]",8,3,"[15, 26, 29]",71.62358553,9681,702,5,0,10,1.2019811287894737
basic,24,2,0,0,0,26,"[0, 19, 12, 5, 22, 13, 18, 7, 26]",9,2,"[15, 29]",48.82007703,10781,1100,2,0,10,1.1883593342191134
basic,24,2,0,0,1,15,"[0, 19, 12, 5, 22, 13, 18, 7, 26, 15]",10,0,[],24.61264015,11714,933,1,0,10,1.4619750353663825
basic,24,2,0,1,1,15,"[0, 19, 12, 5, 22, 13, 18, 7, 26, 15]",10,0,[],24.61264015,14745,3031,1,0,10,1.4619750353663825
basic,25,4,0,0,0,0,[0],1,26,"[3, 4, 5, 6, 7, 8, 10, 11, 12, 13, 14, 15, 16, 17, 18, 19, 20, 21, 22, 23, 24, 25, 26, 27, 28, 29]",300,164,-1,4,489,10,0.0
basic,25,4,0,0,0,28,"[0, 28]",2,21,"[3, 4, 5, 6, 10, 11, 12, 13, 14, 15, 16, 17, 19, 20, 21, 22, 23, 24, 25, 26, 27]",225.9392142,5147,4983,2,216,10,1.0
basic,25,4,0,0,0,11,"[0, 28, 11]",3,16,"[3, 4, 5, 6, 12, 13, 14, 16, 17, 20, 21, 22, 23, 24, 25, 26]",177.0618165,6428,1281,1,99,10,1.0005230107421244
basic,25,4,0,0,0,25,"[0, 28, 11, 25]",4,14,"[3, 4, 5, 6, 12, 13, 14, 16, 17, 20, 21, 22, 23, 24]",158.2735223,15916,9488,1,47,10,1.11762077950493
basic,25,4,0,0,0,14,"[0, 28, 11, 25, 14]",5,10,"[3, 4, 5, 6, 13, 16, 17, 20, 21, 22]",142.1490068,16532,616,1,23,10,1.1558980853108136
basic,25,4,0,0,0,16,"[0, 28, 11, 25, 14, 16]",6,9,"[3, 4, 5, 6, 13, 17, 20, 21, 22]",109.5913656,17837,1305,1,12,10,1.3813330703388178
basic,25,4,0,0,0,21,"[0, 28, 11, 25, 14, 16, 21]",7,4,"[5, 17, 20, 22]",65.38729339,19172,1335,3,3,9,1.5873602666977278
basic,25,4,0,0,0,22,"[0, 28, 11, 25, 14, 16, 21, 22]",8,3,"[5, 17, 20]",54.34193237,20228,1056,3,0,9,1.5483300526954302
basic,25,4,0,0,1,20,"[0, 28, 11, 25, 14, 16, 21, 22, 20]",9,0,[],24.10949946,22508,2280,1,0,9,1.5098543030434866
basic,25,4,0,1,1,20,"[0, 28, 11, 25, 14, 16, 21, 22, 20]",9,0,[],24.10949946,23885,1377,1,0,9,1.5098543030434866
basic,26,42,0,0,0,0,[0],1,29,"[1, 2, 3, 4, 5, 6, 7, 8, 9, 10, 11, 12, 13, 14, 15, 16, 17, 18, 19, 20, 21, 22, 23, 24, 25, 26, 27, 28, 29]",300,146,-1,16,302,9,0.0
basic,26,42,0,0,0,4,"[0, 4]",2,28,"[1, 2, 3, 5, 6, 7, 8, 9, 10, 11, 12, 13, 14, 15, 16, 17, 18, 19, 20, 21, 22, 23, 24, 25, 26, 27, 28, 29]",209.5290102,11020,10874,4,80,9,1.0
basic,26,42,0,0,0,22,"[0, 4, 22]",3,24,"[1, 2, 3, 5, 6, 7, 8, 9, 10, 11, 13, 15, 17, 18, 19, 20, 21, 23, 24, 25, 26, 27, 28, 29]",198.3486703,14836,3816,3,53,9,1.1473032812120834
basic,26,42,0,0,0,8,"[0, 4, 22, 8]",4,21,"[1, 2, 3, 5, 6, 7, 10, 11, 15, 17, 18, 19, 20, 21, 23, 24, 25, 26, 27, 28, 29]",176.2127267,15747,911,2,36,9,1.1513227322639639
basic,26,42,0,0,0,1,"[0, 4, 22, 8, 1]",5,12,"[2, 5, 6, 7, 10, 15, 18, 19, 24, 26, 27, 28]",127.1209758,16771,1024,2,24,9,1.1101621876186907
basic,26,42,0,0,0,7,"[0, 4, 22, 8, 1, 7]",6,5,"[2, 19, 26, 27, 28]",97.12097583,17653,882,2,10,9,1.1711274205343067
basic,26,42,0,0,0,26,"[0, 4, 22, 8, 1, 7, 26]",7,3,"[2, 19, 27]",70.55031532,18338,685,2,1,9,1.1588367913131314
basic,26,42,0,0,0,27,"[0, 4, 22, 8, 1, 7, 26, 27]",8,1,[19],52.52255894,18964,626,1,0,9,1.160587570992885
basic,26,42,0,0,1,19,"[0, 4, 22, 8, 1, 7, 26, 27, 19]",9,0,[],11.51036563,20138,1174,1,0,9,1.3341568614108437
basic,26,42,0,1,1,19,"[0, 4, 22, 8, 1, 7, 26, 27, 19]",9,0,[],11.51036563,21367,1229,1,0,9,1.3341568614108437
basic,27,15,0,0,0,0,[0],1,25,"[1, 2, 3, 4, 7, 8, 9, 10, 11, 12, 13, 14, 15, 16, 18, 20, 21, 22, 23, 24, 25, 26, 27, 28, 29]",300,163,-1,4,65,9,0.0
basic,27,15,0,0,0,12,"[0, 12]",2,22,"[1, 2, 3, 4, 7, 8, 9, 10, 11, 13, 14, 15, 16, 18, 21, 22, 23, 24, 26, 27, 28, 29]",213.547701,10443,10280,4,35,9,1.0
basic,27,15,0,0,0,7,"[0, 12, 7]",3,16,"[1, 3, 4, 8, 9, 10, 11, 13, 14, 15, 16, 18, 21, 22, 24, 27]",180.3061607,11258,815,4,29,9,1.411291635294361
basic,27,15,0,0,0,11,"[0, 12, 7, 11]",4,9,"[3, 4, 13, 14, 15, 16, 21, 22, 27]",138.8212237,12571,1313,2,12,9,1.2980572092387541
basic,27,15,0,0,0,3,"[0, 12, 7, 11, 3]",5,7,"[4, 13, 14, 15, 16, 21, 22]",127.4194695,13805,1234,2,7,9,1.3036925309398455
basic,27,15,0,0,0,22,"[0, 12, 7, 11, 3, 22]",6,5,"[4, 13, 14, 15, 16]",77.69020242,14906,1101,2,3,8,1.2885630089059408
basic,27,15,0,0,0,13,"[0, 12, 7, 11, 3, 22, 13]",7,1,[15],49.52994674,15690,784,1,0,8,1.2502266844493242
basic,27,15,0,0,1,15,"[0, 12, 7, 11, 3, 22, 13, 15]",8,0,[],34.26560922,16539,849,1,0,8,1.3531660579840783
basic,27,15,0,1,1,15,"[0, 12, 7, 11, 3, 22, 13, 15]",8,0,[],34.26560922,17836,1297,1,0,8,1.3531660579840783
basic,28,43,0,0,0,0,[0],1,23,"[1, 2, 3, 4, 5, 6, 7, 9, 10, 11, 12, 14, 15, 16, 17, 19, 20, 21, 22, 23, 25, 27, 29]",300,164,-1,16,556,12,0.0
basic,28,43,0,0,0,29,"[0, 29]",2,22,"[1, 2, 3, 4, 5, 6, 7, 9, 10, 11, 12, 14, 15, 16, 17, 19, 20, 21, 22, 23, 25, 27]",277.909278,3501,3337,16,520,12,1.0
basic,28,43,0,0,0,20,"[0, 29, 20]",3,20,"[1, 2, 3, 4, 6, 7, 9, 10, 11, 12, 14, 15, 16, 17, 19, 21, 22, 23, 25, 27]",254.4785289,4427,926,15,422,12,1.082311746871282
basic,28,43,0,0,0,16,"[0, 29, 20, 16]",4,19,"[1, 2, 3, 4, 6, 7, 9, 10, 11, 12, 14, 15, 17, 19, 21, 22, 23, 25, 27]",231.8511119,5523,1096,15,389,12,1.215201926898219
basic,28,43,0,0,0,15,"[0, 29, 20, 16, 15]",5,14,"[1, 2, 3, 4, 6, 7, 9, 11, 12, 14, 19, 22, 23, 25]",188.5267539,7660,2137,3,109,12,1.3482474915350444
basic,28,43,0,0,0,25,"[0, 29, 20, 16, 15, 25]",6,12,"[1, 3, 4, 6, 7, 9, 11, 12, 14, 19, 22, 23]",165.8551858,9979,2319,2,43,12,1.691408721191545
basic,28,43,0,0,0,12,"[0, 29, 20, 16, 15, 25, 12]",7,11,"[1, 3, 4, 6, 7, 9, 11, 14, 19, 22, 23]",141.6684126,10706,727,2,32,12,1.6015983641428178
basic,28,43,0,0,0,3,"[0, 29, 20, 16, 15, 25, 12, 3]",8,10,"[1, 4, 6, 7, 9, 11, 14, 19, 22, 23]",128.6684126,11282,576,2,24,12,1.5379830456120627
basic,28,43,0,0,0,22,"[0, 29, 20, 16, 15, 25, 12, 3, 22]",9,6,"[1, 6, 7, 11, 14, 19]",93.95530264,12300,1018,1,11,12,1.7275686117408873
basic,28,43,0,0,0,19,"[0, 29, 20, 16, 15, 25, 12, 3, 22, 19]",10,4,"[1, 6, 7, 11]",73.33977451,13228,928,1,3,12,1.6315360037595275
basic,28,43,0,0,0,1,"[0, 29, 20, 16, 15, 25, 12, 3, 22, 19, 1]",11,1,[7],45.1617689,14121,893,1,0,12,1.7703076545303877
basic,28,43,0,0,1,7,"[0, 29, 20, 16, 15, 25, 12, 3, 22, 19, 1, 7]",12,0,[],6.951822553,15316,1195,1,0,12,1.6607094905815594
basic,28,43,0,1,1,7,"[0, 29, 20, 16, 15, 25, 12, 3, 22, 19, 1, 7]",12,0,[],6.951822553,17101,1785,1,0,12,1.6607094905815594
basic,29,37,0,0,0,0,[0],1,29,"[1, 2, 3, 4, 5, 6, 7, 8, 9, 10, 11, 12, 13, 14, 15, 16, 17, 18, 19, 20, 21, 22, 23, 24, 25, 26, 27, 28, 29]",300,163,-1,6,168,10,0.0
basic,29,37,0,0,0,19,"[0, 19]",2,19,"[1, 2, 4, 5, 6, 7, 9, 10, 11, 15, 17, 18, 20, 21, 22, 25, 26, 28, 29]",185.6627795,5386,5223,25,244,9,1.0
basic,29,37,0,0,0,21,"[0, 19, 21]",3,14,"[1, 2, 4, 7, 10, 11, 15, 17, 18, 20, 22, 25, 26, 29]",144.5531699,6717,1331,10,75,9,1.001632816594558
basic,29,37,0,0,0,15,"[0, 19, 21, 15]",4,9,"[1, 2, 4, 7, 18, 20, 22, 26, 29]",129.5531699,7747,1030,5,32,9,1.0243376499143988
basic,29,37,0,0,0,20,"[0, 19, 21, 15, 20]",5,8,"[1, 2, 4, 7, 18, 22, 26, 29]",112.5531699,8369,622,5,14,9,1.250507291508492
basic,29,37,0,0,0,1,"[0, 19, 21, 15, 20, 1]",6,6,"[2, 4, 7, 18, 22, 26]",78.31868434,9619,1250,4,4,9,1.4002166443864243
basic,29,37,0,0,0,2,"[0, 19, 21, 15, 20, 1, 2]",7,4,"[4, 7, 18, 22]",61.11403381,10938,1319,2,2,9,1.5802253600182588
basic,29,37,0,0,0,4,"[0, 19, 21, 15, 20, 1, 2, 4]",8,1,[22],49.71227956,11610,672,1,0,9,1.5399187067712754
basic,29,37,0,0,1,22,"[0, 19, 21, 15, 20, 1, 2, 4, 22]",9,0,[],24.71227956,12506,896,1,0,9,1.6903775033413582
basic,29,37,0,1,1,22,"[0, 19, 21, 15, 20, 1, 2, 4, 22]",9,0,[],24.71227956,14433,1927,1,0,9,1.6903775033413582
basic,30,6,0,0,0,0,[0],1,29,"[1, 2, 3, 4, 5, 6, 7, 8, 9, 10, 11, 12, 13, 14, 15, 16, 17, 18, 19, 20, 21, 22, 23, 24, 25, 26, 27, 28, 29]",300,132,-1,180,4304,10,0.0
basic,30,6,0,0,0,7,"[0, 7]",2,26,"[1, 2, 3, 4, 5, 6, 8, 9, 10, 11, 12, 13, 14, 15, 16, 17, 18, 19, 20, 21, 22, 23, 24, 26, 27, 29]",251.9791712,11511,11379,16,572,10,1.0
basic,30,6,0,0,0,3,"[0, 7, 3]",3,25,"[1, 2, 4, 5, 6, 8, 9, 10, 11, 12, 13, 14, 15, 16, 17, 18, 19, 20, 21, 22, 23, 24, 26, 27, 29]",215.8405492,12415,904,4,222,10,2.5102659609695053
basic,30,6,0,0,0,18,"[0, 7, 3, 18]",4,24,"[1, 2, 4, 5, 6, 8, 9, 10, 11, 12, 13, 14, 15, 16, 17, 19, 20, 21, 22, 23, 24, 26, 27, 29]",186.8405492,13386,971,2,107,10,1.8580714674494638
basic,30,6,0,0,0,17,"[0, 7, 3, 18, 17]",5,19,"[1, 2, 4, 5, 6, 8, 10, 11, 13, 14, 16, 20, 21, 22, 23, 24, 26, 27, 29]",172.9121609,14161,775,1,58,10,1.80071807751277
basic,30,6,0,0,0,10,"[0, 7, 3, 18, 17, 10]",6,16,"[1, 2, 4, 5, 6, 8, 11, 13, 14, 16, 22, 23, 24, 26, 27, 29]",153.189078,14938,777,1,24,10,1.74060984543639
basic,30,6,0,0,0,24,"[0, 7, 3, 18, 17, 10, 24]",7,14,"[2, 4, 5, 6, 8, 11, 13, 14, 16, 22, 23, 26, 27, 29]",139.7726701,16969,2031,1,18,10,1.646847350403074
basic,30,6,0,0,0,23,"[0, 7, 3, 18, 17, 10, 24, 23]",8,6,"[6, 14, 16, 22, 27, 29]",78.58443596,18371,1402,1,5,10,1.6498759396624771
basic,30,6,0,0,0,22,"[0, 7, 3, 18, 17, 10, 24, 23, 22]",9,1,[14],37.58443596,23092,4721,1,0,10,1.6853049467304644
basic,30,6,0,0,1,14,"[0, 7, 3, 18, 17, 10, 24, 23, 22, 14]",10,0,[],3.17513489,24714,1622,1,0,10,1.7649084709471252
basic,30,6,0,1,1,14,"[0, 7, 3, 18, 17, 10, 24, 23, 22, 14]",10,0,[],3.17513489,25906,1192,1,0,10,1.7649084709471252
basic,31,1,0,0,0,0,[0],1,26,"[1, 2, 4, 5, 7, 8, 9, 10, 11, 12, 13, 14, 15, 16, 17, 18, 19, 20, 21, 22, 23, 24, 25, 26, 28, 29]",300,163,-1,6,74,7,0.0
basic,31,1,0,0,0,14,"[0, 14]",2,19,"[1, 4, 5, 8, 9, 13, 15, 17, 18, 19, 20, 21, 22, 23, 24, 25, 26, 28, 29]",200.1901808,6020,5857,5,42,7,1.0
basic,31,1,0,0,0,17,"[0, 14, 17]",3,15,"[1, 4, 5, 8, 9, 13, 15, 18, 19, 20, 22, 23, 25, 28, 29]",147.8356204,6907,887,5,27,7,1.0028844724416826
basic,31,1,0,0,0,1,"[0, 14, 17, 1]",4,12,"[4, 5, 8, 9, 15, 18, 20, 22, 23, 25, 28, 29]",123.4840291,7636,729,5,15,7,1.0264985578353567
basic,31,1,0,0,0,28,"[0, 14, 17, 1, 28]",5,5,"[9, 15, 22, 23, 29]",88.59850198,8787,1151,5,3,7,1.0339861575999345
basic,31,1,0,0,0,23,"[0, 14, 17, 1, 28, 23]",6,2,"[15, 22]",51.70676849,11469,2682,2,0,7,1.0327458250705703
basic,31,1,0,0,1,15,"[0, 14, 17, 1, 28, 23, 15]",7,0,[],20.81987807,12827,1358,1,0,7,1.1948681641401226
basic,31,1,0,1,1,15,"[0, 14, 17, 1, 28, 23, 15]",7,0,[],20.81987807,15384,2557,1,0,7,1.1948681641401226
basic,32,27,0,0,0,0,[0],1,26,"[1, 3, 5, 6, 7, 8, 9, 10, 11, 12, 13, 14, 15, 16, 17, 18, 19, 21, 22, 23, 24, 25, 26, 27, 28, 29]",300,164,-1,13,578,11,0.0
basic,32,27,0,0,0,15,"[0, 15]",2,24,"[1, 3, 5, 6, 7, 8, 9, 10, 11, 12, 13, 14, 16, 17, 18, 19, 21, 22, 23, 24, 25, 26, 27, 29]",263.7508621,3056,2892,6,219,11,1.0
basic,32,27,0,0,0,24,"[0, 15, 24]",3,20,"[1, 5, 6, 7, 8, 9, 10, 12, 13, 14, 16, 17, 18, 19, 21, 23, 25, 26, 27, 29]",246.5462115,3873,817,6,130,11,1.130933077698322
basic,32,27,0,0,0,17,"[0, 15, 24, 17]",4,15,"[1, 6, 8, 10, 12, 13, 14, 16, 18, 19, 23, 25, 26, 27, 29]",229.9932662,4602,729,4,60,11,1.1285538435963374
basic,32,27,0,0,0,12,"[0, 15, 24, 17, 12]",5,14,"[1, 6, 8, 10, 13, 14, 16, 18, 19, 23, 25, 26, 27, 29]",218.8129263,5304,702,2,32,11,1.2561880288755216
basic,32,27,0,0,0,10,"[0, 15, 24, 17, 12, 10]",6,11,"[1, 8, 13, 14, 18, 19, 23, 25, 26, 27, 29]",207.7675653,5914,610,2,28,11,1.2228289337766665
basic,32,27,0,0,0,13,"[0, 15, 24, 17, 12, 10, 13]",7,9,"[1, 8, 14, 18, 19, 23, 26, 27, 29]",167.9178476,6969,1055,2,18,11,1.3421291994761178
basic,32,27,0,0,0,19,"[0, 15, 24, 17, 12, 10, 13, 19]",8,5,"[1, 8, 14, 23, 29]",131.6825057,7920,951,2,6,11,1.294749956153846
basic,32,27,0,0,0,8,"[0, 15, 24, 17, 12, 10, 13, 19, 8]",9,3,"[14, 23, 29]",116.816437,8853,933,2,1,11,1.3554286578836865
basic,32,27,0,0,0,14,"[0, 15, 24, 17, 12, 10, 13, 19, 8, 14]",10,1,[29],59.25777126,9992,1139,1,0,11,1.312380420632942
basic,32,27,0,0,1,29,"[0, 15, 24, 17, 12, 10, 13, 19, 8, 14, 29]",11,0,[],14.96330208,10864,872,1,0,11,1.4680136813839417
basic,32,27,0,1,1,29,"[0, 15, 24, 17, 12, 10, 13, 19, 8, 14, 29]",11,0,[],14.96330208,12100,1236,1,0,11,1.4680136813839417
basic,33,24,0,0,0,0,[0],1,29,"[1, 2, 3, 4, 5, 6, 7, 8, 9, 10, 11, 12, 13, 14, 15, 16, 17, 18, 19, 20, 21, 22, 23, 24, 25, 26, 27, 28, 29]",300,164,-1,4,76,10,0.0
basic,33,24,0,0,0,14,"[0, 14]",2,27,"[1, 2, 3, 4, 5, 6, 8, 9, 10, 11, 12, 13, 15, 16, 17, 18, 19, 20, 21, 22, 23, 24, 25, 26, 27, 28, 29]",278.0455016,4505,4341,4,54,10,1.0
basic,33,24,0,0,0,16,"[0, 14, 16]",3,25,"[2, 3, 4, 5, 6, 8, 9, 10, 11, 12, 13, 15, 17, 18, 19, 20, 21, 22, 23, 24, 25, 26, 27, 28, 29]",188.9949542,7736,3231,4,31,10,1.238291113657358
basic,33,24,0,0,0,22,"[0, 14, 16, 22]",4,20,"[2, 3, 4, 6, 8, 9, 10, 11, 13, 15, 17, 20, 21, 23, 24, 25, 26, 27, 28, 29]",170.9671978,8636,900,2,14,10,1.2244494133788653
basic,33,24,0,0,0,8,"[0, 14, 16, 22, 8]",5,15,"[2, 3, 4, 6, 9, 10, 11, 13, 15, 23, 24, 26, 27, 28, 29]",157.5507899,9347,711,2,10,10,1.2936570860700658
basic,33,24,0,0,0,15,"[0, 14, 16, 22, 8, 15]",6,11,"[3, 4, 6, 9, 10, 11, 23, 26, 27, 28, 29]",126.6638995,10203,856,2,8,10,1.4490533667994079
basic,33,24,0,0,0,28,"[0, 14, 16, 22, 8, 15, 28]",7,5,"[4, 9, 11, 23, 27]",81.3869738,11170,967,2,5,10,1.3279550596984244
basic,33,24,0,0,0,23,"[0, 14, 16, 22, 8, 15, 28, 23]",8,3,"[9, 11, 27]",62.36067621,12026,856,2,2,10,1.3488090026750466
basic,33,24,0,0,0,11,"[0, 14, 16, 22, 8, 15, 28, 23, 11]",9,2,"[9, 27]",35.43485217,13466,1440,2,0,10,1.31714136871331
basic,33,24,0,0,1,9,"[0, 14, 16, 22, 8, 15, 28, 23, 11, 9]",10,0,[],3.185821181,14330,864,1,0,10,1.398294624274182
basic,33,24,0,1,1,9,"[0, 14, 16, 22, 8, 15, 28, 23, 11, 9]",10,0,[],3.185821181,15517,1187,1,0,10,1.398294624274182
basic,34,29,0,0,0,0,[0],1,29,"[1, 2, 3, 4, 5, 6, 7, 8, 9, 10, 11, 12, 13, 14, 15, 16, 17, 18, 19, 20, 21, 22, 23, 24, 25, 26, 27, 28, 29]",300,164,-1,1,78,9,0.0
basic,34,29,0,0,0,14,"[0, 14]",2,22,"[1, 3, 4, 5, 6, 7, 9, 10, 11, 12, 13, 15, 16, 17, 21, 22, 23, 25, 26, 27, 28, 29]",209.490332,5652,5488,21,110,8,1.0
basic,34,29,0,0,0,13,"[0, 14, 13]",3,18,"[1, 4, 5, 6, 7, 9, 10, 12, 15, 16, 17, 21, 22, 25, 26, 27, 28, 29]",191.4625756,6248,596,20,75,8,1.0027006502223275
basic,34,29,0,0,0,5,"[0, 14, 13, 5]",4,15,"[1, 4, 6, 7, 9, 12, 15, 17, 21, 22, 25, 26, 27, 28, 29]",165.7526554,7133,885,19,49,8,1.0803937325657265
basic,34,29,0,0,0,7,"[0, 14, 13, 5, 7]",5,8,"[4, 9, 12, 21, 22, 26, 27, 28]",102.2231347,8215,1082,3,12,8,1.2026521321069321
basic,34,29,0,0,0,12,"[0, 14, 13, 5, 7, 12]",6,7,"[4, 9, 21, 22, 26, 27, 28]",88.62166416,8926,711,3,4,8,1.3692133279803023
basic,34,29,0,0,0,22,"[0, 14, 13, 5, 7, 12, 22]",7,1,[27],50.67433224,11063,2137,1,0,8,2.1316115728184912
basic,34,29,0,0,1,27,"[0, 14, 13, 5, 7, 12, 22, 27]",8,0,[],17.43279196,11967,904,1,0,8,2.6081028152142105
basic,34,29,0,1,1,27,"[0, 14, 13, 5, 7, 12, 22, 27]",8,0,[],17.43279196,14680,2713,1,0,8,2.6081028152142105
basic,35,19,0,0,0,0,[0],1,29,"[1, 2, 3, 4, 5, 6, 7, 8, 9, 10, 11, 12, 13, 14, 15, 16, 17, 18, 19, 20, 21, 22, 23, 24, 25, 26, 27, 28, 29]",300,164,-1,12,149,8,0.0
basic,35,19,0,0,0,29,"[0, 29]",2,28,"[1, 2, 3, 4, 5, 6, 7, 8, 9, 10, 11, 12, 13, 14, 15, 16, 17, 18, 19, 20, 21, 22, 23, 24, 25, 26, 27, 28]",265.0715016,7370,7206,12,120,8,1.0
basic,35,19,0,0,0,9,"[0, 29, 9]",3,17,"[1, 4, 5, 6, 7, 10, 11, 12, 13, 14, 19, 20, 21, 22, 24, 27, 28]",181.7108394,8661,1291,11,65,8,1.0375842971861238
basic,35,19,0,0,0,6,"[0, 29, 9, 6]",4,12,"[4, 7, 10, 11, 13, 14, 20, 21, 22, 24, 27, 28]",140.2741407,9469,808,11,34,8,1.0389786364356892
basic,35,19,0,0,0,4,"[0, 29, 9, 6, 4]",5,7,"[10, 11, 14, 20, 22, 27, 28]",99.22538921,11871,2402,2,6,8,1.2182485830176533
basic,35,19,0,0,0,28,"[0, 29, 9, 6, 4, 28]",6,3,"[11, 14, 27]",88.04504932,12395,524,2,1,8,1.2933703503588658
basic,35,19,0,0,0,14,"[0, 29, 9, 6, 4, 28, 14]",7,1,[11],30.46032912,13478,1083,1,0,8,1.2889112786863766
basic,35,19,0,0,1,11,"[0, 29, 9, 6, 4, 28, 14, 11]",8,0,[],19.6436753,14284,806,1,0,8,1.2786737377290265
basic,35,19,0,1,1,11,"[0, 29, 9, 6, 4, 28, 14, 11]",8,0,[],19.6436753,16335,2051,1,0,8,1.2786737377290265
basic,36,11,0,0,0,0,[0],1,25,"[1, 2, 3, 4, 5, 6, 8, 9, 10, 11, 12, 13, 14, 15, 16, 17, 18, 19, 20, 22, 23, 25, 26, 27, 28]",300,163,-1,6,374,12,0.0
basic,36,11,0,0,0,1,"[0, 1]",2,24,"[2, 3, 4, 5, 6, 8, 9, 10, 11, 12, 13, 14, 15, 16, 17, 18, 19, 20, 22, 23, 25, 26, 27, 28]",264.6446609,3553,3390,6,217,12,1.0
basic,36,11,0,0,0,18,"[0, 1, 18]",3,19,"[2, 4, 5, 6, 8, 9, 11, 12, 14, 15, 16, 17, 19, 20, 22, 23, 25, 27, 28]",212.3187591,4497,944,6,161,12,1.3884463804898786
basic,36,11,0,0,0,27,"[0, 1, 18, 27]",4,18,"[2, 4, 5, 6, 8, 9, 11, 12, 14, 15, 16, 17, 19, 20, 22, 23, 25, 28]",188.4650382,5298,801,6,155,12,1.3600813284083875
basic,36,11,0,0,0,8,"[0, 1, 18, 27, 8]",5,11,"[2, 5, 6, 11, 12, 15, 17, 19, 22, 25, 28]",118.2510795,7345,2047,4,75,12,1.2516561493067806
basic,36,11,0,0,0,17,"[0, 1, 18, 27, 8, 17]",6,10,"[2, 5, 6, 11, 12, 15, 19, 22, 25, 28]",103.9332585,8281,936,4,40,12,1.3330781007673067
basic,36,11,0,0,0,15,"[0, 1, 18, 27, 8, 17, 15]",7,7,"[2, 5, 11, 12, 19, 22, 28]",91.28414782,9065,784,4,35,12,1.3305073448996472
basic,36,11,0,0,0,11,"[0, 1, 18, 27, 8, 17, 15, 11]",8,5,"[2, 5, 19, 22, 28]",73.17337754,10027,962,4,17,12,1.308363545391271
basic,36,11,0,0,0,28,"[0, 1, 18, 27, 8, 17, 15, 11, 28]",9,3,"[2, 5, 22]",53.7568897,10666,639,3,3,12,1.4249903205603536
basic,36,11,0,0,0,5,"[0, 1, 18, 27, 8, 17, 15, 11, 28, 5]",10,2,"[2, 22]",35.86834588,13810,3144,1,1,12,1.623497724154086
basic,36,11,0,0,0,2,"[0, 1, 18, 27, 8, 17, 15, 11, 28, 5, 2]",11,1,[22],18.86834588,14472,662,1,0,12,1.5750723003139413
basic,36,11,0,0,1,22,"[0, 1, 18, 27, 8, 17, 15, 11, 28, 5, 2, 22]",12,0,[],8.818470263,15370,898,1,0,12,1.5444525284394994
basic,36,11,0,1,1,22,"[0, 1, 18, 27, 8, 17, 15, 11, 28, 5, 2, 22]",12,0,[],8.818470263,16550,1180,1,0,12,1.5444525284394994
basic,37,3,0,0,0,0,[0],1,29,"[1, 2, 3, 4, 5, 6, 7, 8, 9, 10, 11, 12, 13, 14, 15, 16, 17, 18, 19, 20, 21, 22, 23, 24, 25, 26, 27, 28, 29]",300,163,-1,34,427,10,0.0
basic,37,3,0,0,0,7,"[0, 7]",2,28,"[1, 2, 3, 4, 5, 6, 8, 9, 10, 11, 12, 13, 14, 15, 16, 17, 18, 19, 20, 21, 22, 23, 24, 25, 26, 27, 28, 29]",278.8103799,3767,3604,24,215,10,1.0
basic,37,3,0,0,0,8,"[0, 7, 8]",3,24,"[1, 2, 3, 4, 5, 6, 10, 11, 12, 13, 14, 15, 16, 17, 18, 19, 20, 21, 22, 24, 25, 26, 27, 28]",222.837172,5262,1495,16,114,10,1.2853332575451413
basic,37,3,0,0,0,24,"[0, 7, 8, 24]",4,21,"[1, 3, 4, 5, 6, 10, 11, 12, 14, 15, 16, 17, 18, 19, 20, 21, 22, 25, 26, 27, 28]",210.671647,5901,639,16,91,10,1.5177505014936548
basic,37,3,0,0,0,17,"[0, 7, 8, 24, 17]",5,9,"[3, 4, 10, 14, 15, 16, 19, 20, 21]",141.3174834,7385,1484,7,26,10,1.5510961300062232
basic,37,3,0,0,0,20,"[0, 7, 8, 24, 17, 20]",6,7,"[3, 4, 10, 14, 16, 19, 21]",128.6683728,8126,741,7,14,10,1.5133082717474817
basic,37,3,0,0,0,3,"[0, 7, 8, 24, 17, 20, 3]",7,5,"[4, 10, 14, 19, 21]",108.2722947,8885,759,7,4,10,1.5325960555943097
basic,37,3,0,0,0,19,"[0, 7, 8, 24, 17, 20, 3, 19]",8,3,"[10, 14, 21]",70.93598532,9901,1016,3,1,10,1.5521294182529992
basic,37,3,0,0,0,21,"[0, 7, 8, 24, 17, 20, 3, 19, 21]",9,2,"[10, 14]",58.72942971,10568,667,2,0,10,1.5690424431931145
basic,37,3,0,0,1,14,"[0, 7, 8, 24, 17, 20, 3, 19, 21, 14]",10,0,[],31.82218161,11552,984,1,0,10,2.0836613372745463
basic,37,3,0,1,1,14,"[0, 7, 8, 24, 17, 20, 3, 19, 21, 14]",10,0,[],31.82218161,12632,1080,1,0,10,2.0836613372745463
basic,38,9,0,0,0,0,[0],1,27,"[1, 3, 4, 5, 6, 7, 8, 9, 10, 11, 13, 14, 15, 16, 17, 18, 19, 20, 21, 22, 23, 24, 25, 26, 27, 28, 29]",300,163,-1,2,182,10,0.0
basic,38,9,0,0,0,25,"[0, 25]",2,24,"[1, 3, 4, 5, 6, 7, 8, 9, 10, 11, 13, 15, 16, 17, 18, 19, 20, 21, 22, 23, 24, 26, 27, 28]",275.9168108,6002,5839,2,104,10,1.0
basic,38,9,0,0,0,10,"[0, 25, 10]",3,20,"[3, 4, 5, 7, 8, 9, 11, 13, 15, 16, 17, 18, 19, 20, 21, 22, 23, 26, 27, 28]",236.0670932,6953,951,2,76,10,1.1767014107208227
basic,38,9,0,0,0,20,"[0, 25, 10, 20]",4,13,"[8, 9, 15, 16, 17, 18, 19, 21, 22, 23, 26, 27, 28]",153.6049806,9946,2993,7,31,9,1.1559102626209
basic,38,9,0,0,0,21,"[0, 25, 10, 20, 21]",5,11,"[8, 9, 15, 16, 17, 18, 19, 22, 23, 26, 28]",141.5219347,10489,543,7,23,9,1.3369987418374067
basic,38,9,0,0,0,28,"[0, 25, 10, 20, 21, 28]",6,4,"[8, 9, 23, 26]",88.52193467,11745,1256,4,4,9,2.8471728698277694
basic,38,9,0,0,0,8,"[0, 25, 10, 20, 21, 28, 8]",7,3,"[9, 23, 26]",77.70528084,12330,585,2,1,9,3.4852880207547177
basic,38,9,0,0,0,23,"[0, 25, 10, 20, 21, 28, 8, 23]",8,1,[9],56.23437029,13297,967,1,0,9,4.094155669069095
basic,38,9,0,0,1,9,"[0, 25, 10, 20, 21, 28, 8, 23, 9]",9,0,[],33.87369051,14121,824,1,0,9,3.573855889055686
basic,38,9,0,1,1,9,"[0, 25, 10, 20, 21, 28, 8, 23, 9]",9,0,[],33.87369051,16100,1979,1,0,9,3.573855889055686
basic,39,25,0,0,0,0,[0],1,28,"[1, 2, 3, 4, 5, 7, 8, 9, 10, 11, 12, 13, 14, 15, 16, 17, 18, 19, 20, 21, 22, 23, 24, 25, 26, 27, 28, 29]",300,164,-1,5,94,10,0.0
basic,39,25,0,0,0,23,"[0, 23]",2,23,"[1, 2, 3, 5, 7, 8, 9, 11, 12, 13, 14, 16, 17, 19, 20, 21, 22, 24, 25, 26, 27, 28, 29]",259.7756293,4001,3837,3,33,10,1.0
basic,39,25,0,0,0,19,"[0, 23, 19]",3,21,"[1, 2, 3, 5, 7, 8, 9, 11, 12, 13, 14, 16, 17, 20, 21, 22, 24, 25, 27, 28, 29]",223.9287326,5042,1041,3,24,10,1.583101227007039
basic,39,25,0,0,0,29,"[0, 23, 19, 29]",4,19,"[1, 2, 3, 5, 7, 8, 9, 11, 12, 13, 14, 16, 17, 20, 21, 22, 24, 25, 28]",207.649912,5531,489,3,17,10,1.474631541426484
basic,39,25,0,0,0,22,"[0, 23, 19, 29, 22]",5,18,"[1, 2, 3, 5, 7, 8, 9, 11, 12, 13, 14, 16, 17, 20, 21, 24, 25, 28]",191.5253965,6043,512,3,14,10,1.4020377754906637
basic,39,25,0,0,0,7,"[0, 23, 19, 29, 22, 7]",6,7,"[3, 8, 9, 11, 13, 24, 28]",115.8814939,7235,1192,3,11,10,1.5709678649326715
basic,39,25,0,0,0,24,"[0, 23, 19, 29, 22, 7, 24]",7,5,"[3, 8, 9, 13, 28]",91.12265712,7938,703,3,7,10,1.486191600033379
basic,39,25,0,0,0,9,"[0, 23, 19, 29, 22, 7, 24, 9]",8,4,"[3, 8, 13, 28]",73.09490075,8403,465,3,3,10,1.453504870342882
basic,39,25,0,0,0,3,"[0, 23, 19, 29, 22, 7, 24, 9, 3]",9,3,"[8, 13, 28]",42.82940885,9362,959,3,0,10,1.388955167525479
basic,39,25,0,0,1,28,"[0, 23, 19, 29, 22, 7, 24, 9, 3, 28]",10,0,[],11.52445716,9978,616,1,0,10,1.3331084120212044
basic,39,25,0,1,1,28,"[0, 23, 19, 29, 22, 7, 24, 9, 3, 28]",10,0,[],11.52445716,11083,1105,1,0,10,1.3331084120212044
basic,40,5,0,0,0,0,[0],1,29,"[1, 2, 3, 4, 5, 6, 7, 8, 9, 10, 11, 12, 13, 14, 15, 16, 17, 18, 19, 20, 21, 22, 23, 24, 25, 26, 27, 28, 29]",300,164,-1,5,139,9,0.0
basic,40,5,0,0,0,23,"[0, 23]",2,27,"[1, 2, 3, 4, 5, 6, 7, 8, 9, 10, 11, 12, 13, 14, 15, 16, 17, 18, 19, 20, 21, 22, 24, 25, 26, 27, 28]",249.8402552,10188,10024,3,75,9,1.0
basic,40,5,0,0,0,25,"[0, 23, 25]",3,23,"[1, 2, 3, 4, 5, 6, 8, 9, 10, 12, 13, 14, 15, 16, 17, 18, 19, 21, 22, 24, 26, 27, 28]",231.4011663,11487,1299,3,43,9,1.0923159590575564
basic,40,5,0,0,0,24,"[0, 23, 25, 24]",4,21,"[2, 3, 4, 5, 6, 8, 9, 10, 12, 13, 14, 15, 16, 17, 18, 19, 21, 22, 26, 27, 28]",206.5616816,13755,2268,3,25,9,1.2901858295679272
basic,40,5,0,0,0,17,"[0, 23, 25, 24, 17]",5,13,"[4, 5, 6, 8, 12, 13, 14, 15, 18, 19, 22, 26, 27]",171.5759702,14564,809,3,14,9,1.2027484907982513
basic,40,5,0,0,0,5,"[0, 23, 25, 24, 17, 5]",6,7,"[4, 6, 8, 12, 15, 18, 19]",128.5294837,16805,2241,3,4,9,1.1472230681682432
basic,40,5,0,0,0,6,"[0, 23, 25, 24, 17, 5, 6]",7,2,"[4, 18]",59.2113764,17645,840,1,1,9,1.441848045508982
basic,40,5,0,0,0,4,"[0, 23, 25, 24, 17, 5, 6, 4]",8,1,[18],47.16978182,18307,662,1,0,9,1.4428372851928168
basic,40,5,0,0,1,18,"[0, 23, 25, 24, 17, 5, 6, 4, 18]",9,0,[],8.751036398,20350,2043,1,0,9,1.4362408478210533
basic,40,5,0,1,1,18,"[0, 23, 25, 24, 17, 5, 6, 4, 18]",9,0,[],8.751036398,21602,1252,1,0,9,1.4362408478210533
basic,41,30,0,0,0,0,[0],1,19,"[3, 4, 5, 7, 9, 11, 16, 17, 18, 19, 20, 21, 22, 24, 25, 26, 27, 28, 29]",300,165,-1,5,41,8,0.0
basic,41,30,0,0,0,16,"[0, 16]",2,17,"[3, 5, 7, 9, 11, 17, 18, 19, 20, 21, 22, 24, 25, 26, 27, 28, 29]",219.3774225,3727,3562,5,34,8,1.0
basic,41,30,0,0,0,25,"[0, 16, 25]",3,10,"[3, 5, 7, 9, 11, 18, 19, 20, 27, 29]",115.0845656,5918,2191,5,28,8,1.0336279544884488
basic,41,30,0,0,0,27,"[0, 16, 25, 27]",4,7,"[3, 5, 7, 18, 19, 20, 29]",75.52448473,11936,6018,1,12,8,1.0719738181137488
basic,41,30,0,0,0,3,"[0, 16, 25, 27, 3]",5,5,"[5, 7, 18, 20, 29]",56.41951155,12653,717,1,4,8,1.0683252001879187
basic,41,30,0,0,0,29,"[0, 16, 25, 27, 3, 29]",6,2,"[5, 18]",37.81843632,13399,746,1,1,8,1.0768958290478794
basic,41,30,0,0,0,18,"[0, 16, 25, 27, 3, 29, 18]",7,1,[5],18.5052284,14405,1006,1,0,8,1.1525061930327378
basic,41,30,0,0,1,5,"[0, 16, 25, 27, 3, 29, 18, 5]",8,0,[],5.466823591,15142,737,1,0,8,1.2180155123152177
basic,41,30,0,1,1,5,"[0, 16, 25, 27, 3, 29, 18, 5]",8,0,[],5.466823591,16455,1313,1,0,8,1.2180155123152177
basic,42,17,0,0,0,0,[0],1,28,"[1, 2, 3, 4, 5, 6, 7, 8, 9, 10, 11, 12, 13, 14, 15, 16, 17, 18, 19, 20, 22, 23, 24, 25, 26, 27, 28, 29]",300,166,-1,2,73,8,0.0
basic,42,17,0,0,0,9,"[0, 9]",2,25,"[1, 2, 3, 5, 6, 7, 8, 10, 11, 12, 14, 15, 16, 17, 18, 19, 20, 22, 23, 24, 25, 26, 27, 28, 29]",210.5293344,10423,10257,1,34,8,1.0
basic,42,17,0,0,0,16,"[0, 9, 16]",3,21,"[1, 2, 3, 5, 7, 8, 10, 11, 12, 14, 17, 18, 19, 20, 22, 23, 25, 26, 27, 28, 29]",197.1876704,11322,899,1,26,8,1.173103464220352
basic,42,17,0,0,0,2,"[0, 9, 16, 2]",4,18,"[1, 3, 5, 7, 8, 10, 11, 12, 14, 17, 18, 19, 23, 25, 26, 27, 28, 29]",181.0631549,12999,1677,1,23,8,1.14825089247282
basic,42,17,0,0,0,17,"[0, 9, 16, 2, 17]",5,7,"[7, 8, 12, 14, 26, 27, 29]",142.7356191,14023,1024,4,5,7,1.4896040699768547
basic,42,17,0,0,0,8,"[0, 9, 16, 2, 17, 8]",6,3,"[7, 12, 27]",104.5256727,14839,816,3,0,7,1.4604726966175894
basic,42,17,0,0,1,7,"[0, 9, 16, 2, 17, 8, 7]",7,0,[],33.81499459,15672,833,1,0,7,1.4474701869793896
basic,42,17,0,1,1,7,"[0, 9, 16, 2, 17, 8, 7]",7,0,[],33.81499459,16819,1147,1,0,7,1.4474701869793896
basic,43,36,0,0,0,0,[0],1,24,"[2, 4, 5, 6, 7, 8, 9, 10, 12, 13, 14, 15, 16, 17, 18, 19, 20, 22, 23, 25, 26, 27, 28, 29]",300,164,-1,2,200,10,0.0
basic,43,36,0,0,0,12,"[0, 12]",2,23,"[2, 4, 5, 6, 7, 8, 9, 10, 13, 14, 15, 16, 17, 18, 19, 20, 22, 23, 25, 26, 27, 28, 29]",277.7963967,2761,2597,90,804,9,1.0
basic,43,36,0,0,0,13,"[0, 12, 13]",3,18,"[2, 4, 7, 8, 9, 10, 16, 17, 18, 19, 20, 22, 23, 25, 26, 27, 28, 29]",198.6193798,5298,2537,15,125,9,1.033635478646562
basic,43,36,0,0,0,25,"[0, 12, 13, 25]",4,12,"[2, 4, 8, 9, 10, 16, 17, 18, 19, 23, 27, 29]",178.0281195,6009,711,13,50,9,1.0653480204572918
basic,43,36,0,0,0,2,"[0, 12, 13, 25, 2]",5,9,"[4, 8, 9, 10, 16, 17, 18, 19, 27]",153.0281195,6553,544,13,13,9,1.3014517483013393
basic,43,36,0,0,0,19,"[0, 12, 13, 25, 2, 19]",6,5,"[9, 10, 16, 17, 18]",115.9066972,7513,960,5,2,9,2.3884063284404666
basic,43,36,0,0,0,9,"[0, 12, 13, 25, 2, 19, 9]",7,3,"[16, 17, 18]",100.7739512,8049,536,2,1,9,2.8846088544693567
basic,43,36,0,0,0,17,"[0, 12, 13, 25, 2, 19, 9, 17]",8,1,[16],74.52514171,8737,688,1,0,9,2.3856100497832267
basic,43,36,0,0,1,16,"[0, 12, 13, 25, 2, 19, 9, 17, 16]",9,0,[],46.20553719,9682,945,1,0,9,2.3777330471152243
basic,43,36,0,1,1,16,"[0, 12, 13, 25, 2, 19, 9, 17, 16]",9,0,[],46.20553719,10817,1135,1,0,9,2.3777330471152243
basic,44,34,0,0,0,0,[0],1,25,"[1, 3, 4, 5, 6, 7, 8, 9, 10, 11, 12, 13, 15, 18, 19, 20, 21, 22, 23, 24, 25, 26, 27, 28, 29]",300,164,-1,12,367,10,0.0
basic,44,34,0,0,0,13,"[0, 13]",2,24,"[1, 3, 4, 5, 6, 7, 8, 9, 10, 11, 12, 15, 18, 19, 20, 21, 22, 23, 24, 25, 26, 27, 28, 29]",279.9750156,3294,3130,12,331,10,1.0
basic,44,34,0,0,0,1,"[0, 13, 1]",3,16,"[3, 5, 7, 8, 9, 10, 11, 12, 19, 21, 22, 23, 24, 25, 27, 29]",211.8574701,4357,1063,3,92,10,1.0010381285747127
basic,44,34,0,0,0,8,"[0, 13, 1, 8]",4,14,"[3, 5, 7, 9, 10, 11, 12, 19, 22, 23, 24, 25, 27, 29]",201.0871405,4953,596,2,54,10,1.1636807
basic,44,34,0,0,0,25,"[0, 13, 1, 8, 25]",5,12,"[3, 5, 7, 9, 10, 11, 12, 22, 23, 24, 27, 29]",183.999133,5758,805,2,28,10,1.1396208815936457
basic,44,34,0,0,0,24,"[0, 13, 1, 8, 25, 24]",6,11,"[3, 5, 7, 9, 10, 11, 12, 22, 23, 27, 29]",166.5062774,6311,553,2,23,10,1.374180768736554
basic,44,34,0,0,0,12,"[0, 13, 1, 8, 25, 24, 12]",7,7,"[7, 9, 10, 11, 22, 23, 27]",115.4670767,10566,4255,1,8,10,1.4994254760835948
basic,44,34,0,0,0,7,"[0, 13, 1, 8, 25, 24, 12, 7]",8,5,"[9, 11, 22, 23, 27]",100.4337804,11309,743,1,4,10,1.758992610425009
basic,44,34,0,0,0,23,"[0, 13, 1, 8, 25, 24, 12, 7, 23]",9,1,[27],72.27352467,12253,944,1,0,10,2.399781305190153
basic,44,34,0,0,1,27,"[0, 13, 1, 8, 25, 24, 12, 7, 23, 27]",10,0,[],18.60789321,13293,1040,1,0,10,4.766619878750327
basic,44,34,0,1,1,27,"[0, 13, 1, 8, 25, 24, 12, 7, 23, 27]",10,0,[],18.60789321,14500,1207,1,0,10,4.766619878750327
basic,45,21,0,0,0,0,[0],1,29,"[1, 2, 3, 4, 5, 6, 7, 8, 9, 10, 11, 12, 13, 14, 15, 16, 17, 18, 19, 20, 21, 22, 23, 24, 25, 26, 27, 28, 29]",300,115,-1,84,830,9,0.0
basic,45,21,0,0,0,18,"[0, 18]",2,28,"[1, 2, 3, 4, 5, 6, 7, 8, 9, 10, 11, 12, 13, 14, 15, 16, 17, 19, 20, 21, 22, 23, 24, 25, 26, 27, 28, 29]",240.923778,6554,6439,44,305,9,1.0
basic,45,21,0,0,0,29,"[0, 18, 29]",3,24,"[1, 2, 3, 4, 6, 7, 8, 9, 10, 11, 12, 13, 14, 15, 16, 17, 20, 21, 22, 23, 24, 25, 26, 27]",212.2706805,7354,800,11,87,9,1.035555280387994
basic,45,21,0,0,0,25,"[0, 18, 29, 25]",4,18,"[1, 4, 6, 8, 9, 10, 11, 12, 14, 15, 16, 17, 20, 21, 22, 23, 24, 26]",167.0490043,8105,751,6,45,9,2.2226517719335437
basic,45,21,0,0,0,23,"[0, 18, 29, 25, 23]",5,10,"[4, 8, 14, 15, 16, 17, 20, 21, 22, 24]",123.7246462,9099,994,3,20,9,1.7801958981326236
basic,45,21,0,0,0,21,"[0, 18, 29, 25, 23, 21]",6,3,"[4, 14, 16]",94.11046043,9969,870,1,3,9,2.290491065218303
basic,45,21,0,0,0,14,"[0, 18, 29, 25, 23, 21, 14]",7,2,"[4, 16]",68.49796348,12033,2064,1,1,9,2.021100447974041
basic,45,21,0,0,0,4,"[0, 18, 29, 25, 23, 21, 14, 4]",8,1,[16],54.35582786,12632,599,1,0,9,1.9205022281831265
basic,45,21,0,0,1,16,"[0, 18, 29, 25, 23, 21, 14, 4, 16]",9,0,[],9.757621617,13594,962,1,0,9,1.7782202964615115
basic,45,21,0,1,1,16,"[0, 18, 29, 25, 23, 21, 14, 4, 16]",9,0,[],9.757621617,14980,1386,1,0,9,1.7782202964615115
basic,46,13,0,0,0,0,[0],1,29,"[1, 2, 3, 4, 5, 6, 7, 8, 9, 10, 11, 12, 13, 14, 15, 16, 17, 18, 19, 20, 21, 22, 23, 24, 25, 26, 27, 28, 29]",300,250,-1,60,2676,11,0.0
basic,46,13,0,0,0,24,"[0, 24]",2,28,"[1, 2, 3, 4, 5, 6, 7, 8, 9, 10, 11, 12, 13, 14, 15, 16, 17, 18, 19, 20, 21, 22, 23, 25, 26, 27, 28, 29]",288.8196601,6906,6656,16,1444,11,1.0
basic,46,13,0,0,0,28,"[0, 24, 28]",3,23,"[1, 2, 3, 4, 6, 7, 8, 9, 10, 11, 12, 13, 15, 16, 17, 19, 20, 21, 22, 23, 26, 27, 29]",222.5324064,8079,1173,8,243,11,1.0513810491680837
basic,46,13,0,0,0,2,"[0, 24, 28, 2]",4,19,"[1, 3, 4, 6, 7, 9, 11, 12, 13, 15, 16, 17, 19, 20, 21, 23, 26, 27, 29]",184.889346,9840,1761,7,110,11,1.050374132001543
basic,46,13,0,0,0,29,"[0, 24, 28, 2, 29]",5,18,"[1, 3, 4, 6, 7, 9, 11, 12, 13, 15, 16, 17, 19, 20, 21, 23, 26, 27]",173.1846461,10390,550,7,85,11,1.1393409619120594
basic,46,13,0,0,0,7,"[0, 24, 28, 2, 29, 7]",6,17,"[1, 3, 4, 6, 9, 11, 12, 13, 15, 16, 17, 19, 20, 21, 23, 26, 27]",157.9203086,11246,856,5,45,11,1.349777315111579
basic,46,13,0,0,0,26,"[0, 24, 28, 2, 29, 7, 26]",7,16,"[1, 3, 4, 6, 9, 11, 12, 13, 15, 16, 17, 19, 20, 21, 23, 27]",147.480002,12119,873,5,25,11,1.5942082773824946
basic,46,13,0,0,0,6,"[0, 24, 28, 2, 29, 7, 26, 6]",8,12,"[1, 3, 4, 11, 13, 15, 16, 17, 19, 20, 23, 27]",127.3802508,12936,817,4,12,11,1.5898347940840756
basic,46,13,0,0,0,11,"[0, 24, 28, 2, 29, 7, 26, 6, 11]",9,6,"[1, 13, 15, 16, 17, 23]",108.2752776,13807,871,3,4,11,1.5029953945561012
basic,46,13,0,0,0,13,"[0, 24, 28, 2, 29, 7, 26, 6, 11, 13]",10,2,"[15, 17]",52.19497806,15408,1601,2,0,11,1.3655915863754327
basic,46,13,0,0,1,15,"[0, 24, 28, 2, 29, 7, 26, 6, 11, 13, 15]",11,0,[],12.38291958,16470,1062,1,0,11,1.3653085520078876
basic,46,13,0,1,1,15,"[0, 24, 28, 2, 29, 7, 26, 6, 11, 13, 15]",11,0,[],12.38291958,17704,1234,1,0,11,1.3653085520078876
basic,47,44,0,0,0,0,[0],1,29,"[1, 2, 3, 4, 5, 6, 7, 8, 9, 10, 11, 12, 13, 14, 15, 16, 17, 18, 19, 20, 21, 22, 23, 24, 25, 26, 27, 28, 29]",300,163,-1,13,126,7,0.0
basic,47,44,0,0,0,9,"[0, 9]",2,17,"[2, 4, 5, 7, 8, 10, 11, 12, 13, 14, 20, 22, 23, 24, 25, 26, 28]",141.32423,4394,4231,3,26,7,1.0
basic,47,44,0,0,0,4,"[0, 9, 4]",3,15,"[2, 5, 7, 8, 10, 11, 12, 14, 20, 22, 23, 24, 25, 26, 28]",121.6265143,5956,1562,3,21,7,1.0155532843148096
basic,47,44,0,0,0,7,"[0, 9, 4, 7]",4,10,"[2, 5, 11, 12, 14, 23, 24, 25, 26, 28]",90.61038951,7052,1096,3,9,7,1.0134022837125412
basic,47,44,0,0,0,23,"[0, 9, 4, 7, 23]",5,7,"[5, 12, 14, 24, 25, 26, 28]",71.50541634,8011,959,3,4,7,1.043310757564056
basic,47,44,0,0,0,5,"[0, 9, 4, 7, 23, 5]",6,1,[25],24.08179353,9146,1135,1,0,7,1.0875233835918032
basic,47,44,0,0,1,25,"[0, 9, 4, 7, 23, 5, 25]",7,0,[],13.64148702,10011,865,1,0,7,1.1344779809947538
basic,47,44,0,1,1,25,"[0, 9, 4, 7, 23, 5, 25]",7,0,[],13.64148702,11182,1171,1,0,7,1.1344779809947538
basic,48,38,0,0,0,0,[0],1,29,"[1, 2, 3, 4, 5, 6, 7, 8, 9, 10, 11, 12, 13, 14, 15, 16, 17, 18, 19, 20, 21, 22, 23, 24, 25, 26, 27, 28, 29]",300,164,-1,33,506,9,0.0
basic,48,38,0,0,0,19,"[0, 19]",2,23,"[3, 4, 5, 6, 7, 8, 9, 11, 13, 14, 15, 16, 17, 18, 20, 22, 23, 24, 25, 26, 27, 28, 29]",219.5015528,2904,2740,6,61,9,1.0
basic,48,38,0,0,0,17,"[0, 19, 17]",3,21,"[3, 4, 5, 6, 7, 9, 11, 13, 14, 15, 16, 18, 20, 22, 23, 24, 25, 26, 27, 28, 29]",198.1239945,3501,597,6,53,9,1.571793785769489
basic,48,38,0,0,0,20,"[0, 19, 17, 20]",4,17,"[3, 4, 5, 6, 7, 11, 13, 14, 15, 16, 18, 22, 24, 25, 26, 27, 28]",174.3542658,4119,618,6,44,9,2.333182710277297
basic,48,38,0,0,0,4,"[0, 19, 17, 20, 4]",5,10,"[5, 11, 13, 14, 15, 16, 24, 26, 27, 28]",140.4131403,5273,1154,5,22,9,2.276099229646013
basic,48,38,0,0,0,15,"[0, 19, 17, 20, 4, 15]",6,8,"[5, 11, 13, 14, 16, 24, 26, 28]",114.4131403,6194,921,5,6,9,2.5292671156176403
basic,48,38,0,0,0,11,"[0, 19, 17, 20, 4, 15, 11]",7,2,"[16, 28]",78.01259089,7072,878,2,0,9,2.778100109749787
basic,48,38,0,0,0,28,"[0, 19, 17, 20, 4, 15, 11, 28]",8,1,[16],50.99407872,7952,880,1,0,9,2.3316428595723258
basic,48,38,0,0,1,16,"[0, 19, 17, 20, 4, 15, 11, 28, 16]",9,0,[],21.99407872,8777,825,1,0,9,2.5408012360364265
basic,48,38,0,1,1,16,"[0, 19, 17, 20, 4, 15, 11, 28, 16]",9,0,[],21.99407872,9865,1088,1,0,9,2.5408012360364265
basic,49,35,0,0,0,0,[0],1,29,"[1, 2, 3, 4, 5, 6, 7, 8, 9, 10, 11, 12, 13, 14, 15, 16, 17, 18, 19, 20, 21, 22, 23, 24, 25, 26, 27, 28, 29]",300,163,-1,5,236,11,0.0
basic,49,35,0,0,0,24,"[0, 24]",2,27,"[1, 2, 4, 5, 6, 7, 8, 9, 10, 11, 12, 13, 14, 15, 16, 17, 18, 19, 20, 21, 22, 23, 25, 26, 27, 28, 29]",268.9838752,4236,4073,49,512,10,1.0
basic,49,35,0,0,0,17,"[0, 24, 17]",3,26,"[1, 2, 4, 5, 6, 7, 8, 9, 10, 11, 12, 13, 14, 15, 16, 18, 19, 20, 21, 22, 23, 25, 26, 27, 28, 29]",257.2791753,4877,641,33,238,10,1.0771477201815276
basic,49,35,0,0,0,1,"[0, 24, 17, 1]",4,25,"[2, 4, 5, 6, 7, 8, 9, 10, 11, 12, 13, 14, 15, 16, 18, 19, 20, 21, 22, 23, 25, 26, 27, 28, 29]",241.4677869,5852,975,26,151,10,1.2244804141479215
basic,49,35,0,0,0,15,"[0, 24, 17, 1, 15]",5,23,"[2, 4, 5, 6, 7, 8, 9, 10, 11, 12, 14, 16, 18, 19, 20, 21, 22, 23, 25, 26, 27, 28, 29]",218.6204676,6677,825,26,78,10,1.4642196672428094
basic,49,35,0,0,0,23,"[0, 24, 17, 1, 15, 23]",6,11,"[4, 5, 6, 9, 18, 19, 25, 26, 27, 28, 29]",158.1804147,8428,1751,15,12,10,1.3338903684702363
basic,49,35,0,0,0,9,"[0, 24, 17, 1, 15, 23, 9]",7,6,"[5, 6, 18, 19, 25, 27]",120.5373542,9524,1096,6,1,10,1.5964380615155294
basic,49,35,0,0,0,18,"[0, 24, 17, 1, 15, 23, 9, 18]",8,3,"[5, 6, 25]",100.5123698,10236,712,2,1,10,1.5508488101942703
basic,49,35,0,0,0,6,"[0, 24, 17, 1, 15, 23, 9, 18, 6]",9,1,[25],66.89689722,11181,945,1,0,10,1.541466044761729
basic,49,35,0,0,1,25,"[0, 24, 17, 1, 15, 23, 9, 18, 6, 25]",10,0,[],42.87607292,11813,632,1,0,10,1.5877595882523792
basic,49,35,0,1,1,25,"[0, 24, 17, 1, 15, 23, 9, 18, 6, 25]",10,0,[],42.87607292,13133,1320,1,0,10,1.5877595882523792
basic,50,14,0,0,0,0,[0],1,29,"[1, 2, 3, 4, 5, 6, 7, 8, 9, 10, 11, 12, 13, 14, 15, 16, 17, 18, 19, 20, 21, 22, 23, 24, 25, 26, 27, 28, 29]",300,164,-1,8,157,10,0.0
basic,50,14,0,0,0,15,"[0, 15]",2,20,"[1, 2, 3, 4, 7, 8, 9, 13, 17, 18, 19, 20, 21, 22, 23, 25, 26, 27, 28, 29]",216.7053423,3219,3055,8,102,10,1.0
basic,50,14,0,0,0,28,"[0, 15, 28]",3,17,"[1, 2, 3, 4, 7, 8, 9, 13, 17, 18, 19, 20, 22, 23, 25, 26, 27]",197.4959696,3919,700,8,48,10,1.0446007867311968
basic,50,14,0,0,0,17,"[0, 15, 28, 17]",4,14,"[1, 2, 3, 4, 7, 8, 13, 18, 19, 20, 22, 23, 25, 26]",184.0423455,4669,750,8,39,10,1.0729463354689972
basic,50,14,0,0,0,18,"[0, 15, 28, 17, 18]",5,9,"[1, 2, 4, 7, 8, 19, 23, 25, 26]",119.412631,6923,2254,8,27,10,1.5035901079219378
basic,50,14,0,0,0,8,"[0, 15, 28, 17, 18, 8]",6,8,"[1, 2, 4, 7, 19, 23, 25, 26]",105.8111605,7723,800,8,18,10,1.4819689987843856
basic,50,14,0,0,0,19,"[0, 15, 28, 17, 18, 8, 19]",7,5,"[1, 7, 23, 25, 26]",85.19563238,9116,1393,4,9,10,1.4526746797093781
basic,50,14,0,0,0,1,"[0, 15, 28, 17, 18, 8, 19, 1]",8,4,"[7, 23, 25, 26]",69.96408617,9845,729,3,1,10,1.4876985459270997
basic,50,14,0,0,0,23,"[0, 15, 28, 17, 18, 8, 19, 1, 23]",9,1,[26],21.96408617,11079,1234,1,0,10,1.4791446279021185
basic,50,14,0,0,1,26,"[0, 15, 28, 17, 18, 8, 19, 1, 23, 26]",10,0,[],11.14743235,11841,762,1,0,10,1.4559204757247275
basic,50,14,0,1,1,26,"[0, 15, 28, 17, 18, 8, 19, 1, 23, 26]",10,0,[],11.14743235,14054,2213,1,0,10,1.4559204757247275
basic,51,26,0,0,0,0,[0],1,29,"[1, 2, 3, 4, 5, 6, 7, 8, 9, 10, 11, 12, 13, 14, 15, 16, 17, 18, 19, 20, 21, 22, 23, 24, 25, 26, 27, 28, 29]",300,197,-1,9,226,9,0.0
basic,51,26,0,0,0,21,"[0, 21]",2,25,"[2, 3, 4, 5, 6, 7, 8, 10, 11, 12, 13, 14, 15, 16, 17, 18, 19, 22, 23, 24, 25, 26, 27, 28, 29]",211.1349337,5574,5377,7,90,9,1.0
basic,51,26,0,0,0,13,"[0, 21, 13]",3,21,"[3, 4, 5, 6, 7, 8, 10, 11, 12, 14, 15, 16, 17, 18, 19, 22, 23, 24, 25, 26, 29]",188.9989901,6190,616,6,45,9,1.0103952279992225
basic,51,26,0,0,0,16,"[0, 21, 13, 16]",4,8,"[4, 5, 6, 10, 14, 17, 23, 29]",119.9700107,8370,2180,3,23,9,1.608180021563306
basic,51,26,0,0,0,29,"[0, 21, 13, 16, 29]",5,6,"[4, 6, 10, 14, 17, 23]",95.76257383,9189,819,3,20,9,1.6714963205667543
basic,51,26,0,0,0,17,"[0, 21, 13, 16, 29, 17]",6,4,"[4, 6, 10, 14]",65.34876118,10046,857,7,1,8,1.6514500684948126
basic,51,26,0,0,0,6,"[0, 21, 13, 16, 29, 17, 6]",7,3,"[4, 10, 14]",45.22414938,10798,752,3,0,8,1.586288135983576
basic,51,26,0,0,1,10,"[0, 21, 13, 16, 29, 17, 6, 10]",8,0,[],15.94958705,11770,972,1,0,8,1.7553718756677343
basic,51,26,0,1,1,10,"[0, 21, 13, 16, 29, 17, 6, 10]",8,0,[],15.94958705,15984,4214,1,0,8,1.7553718756677343
basic,52,33,0,0,0,0,[0],1,23,"[1, 2, 5, 7, 8, 11, 12, 13, 14, 15, 16, 17, 18, 19, 20, 21, 23, 24, 25, 26, 27, 28, 29]",300,164,-1,5,108,9,0.0
basic,52,33,0,0,0,8,"[0, 8]",2,22,"[1, 2, 5, 7, 11, 12, 13, 14, 15, 16, 17, 18, 19, 20, 21, 23, 24, 25, 26, 27, 28, 29]",265.8679037,3443,3279,5,87,9,1.0
basic,52,33,0,0,0,21,"[0, 8, 21]",3,16,"[2, 5, 7, 11, 13, 14, 16, 17, 18, 19, 20, 24, 26, 27, 28, 29]",166.0430571,5202,1759,5,80,9,1.0670557763739492
basic,52,33,0,0,0,13,"[0, 8, 21, 13]",4,12,"[2, 7, 11, 14, 16, 17, 18, 19, 20, 24, 26, 29]",139.6422995,6035,833,4,54,9,1.0555103820910288
basic,52,33,0,0,0,19,"[0, 8, 21, 13, 19]",5,10,"[7, 11, 14, 16, 17, 18, 20, 24, 26, 29]",114.1472019,6703,668,3,19,9,1.1090798607799486
basic,52,33,0,0,0,24,"[0, 8, 21, 13, 19, 24]",6,6,"[7, 14, 16, 18, 26, 29]",72.09960985,7753,1050,2,3,9,1.1193530461391534
basic,52,33,0,0,0,7,"[0, 8, 21, 13, 19, 24, 7]",7,2,"[14, 26]",42.89344611,9803,2050,2,0,9,1.2065014071663551
basic,52,33,0,0,0,14,"[0, 8, 21, 13, 19, 24, 7, 14]",8,1,[26],28.02737737,10699,896,1,0,9,1.2536495746979057
basic,52,33,0,0,1,26,"[0, 8, 21, 13, 19, 24, 7, 14, 26]",9,0,[],15.37826672,11505,806,1,0,9,1.2580465331304596
basic,52,33,0,1,1,26,"[0, 8, 21, 13, 19, 24, 7, 14, 26]",9,0,[],15.37826672,12716,1211,1,0,9,1.2580465331304596
basic,53,12,0,0,0,0,[0],1,29,"[1, 2, 3, 4, 5, 6, 7, 8, 9, 10, 11, 12, 13, 14, 15, 16, 17, 18, 19, 20, 21, 22, 23, 24, 25, 26, 27, 28, 29]",300,165,-1,2,32,9,0.0
basic,53,12,0,0,0,22,"[0, 22]",2,22,"[2, 4, 5, 6, 7, 9, 10, 12, 13, 14, 15, 16, 17, 18, 19, 21, 23, 24, 25, 27, 28, 29]",211.9943184,5379,5214,6,42,8,1.0
basic,53,12,0,0,0,16,"[0, 22, 16]",3,12,"[2, 4, 5, 6, 7, 12, 14, 19, 23, 24, 25, 27]",190.9943184,5892,513,6,24,8,1.2017164145167045
basic,53,12,0,0,0,4,"[0, 22, 16, 4]",4,9,"[2, 6, 7, 12, 14, 19, 24, 25, 27]",156.7890556,6548,656,6,14,8,1.146531713305579
basic,53,12,0,0,0,12,"[0, 22, 16, 4, 12]",5,4,"[14, 19, 24, 27]",114.5990094,7411,863,4,3,8,1.1221389456954312
basic,53,12,0,0,0,27,"[0, 22, 16, 4, 12, 27]",6,3,"[14, 19, 24]",90.24741807,8060,649,2,1,8,1.2262878338287035
basic,53,12,0,0,0,14,"[0, 22, 16, 4, 12, 27, 14]",7,1,[24],61.59432051,8654,594,1,0,8,1.2804562106751427
basic,53,12,0,0,1,24,"[0, 22, 16, 4, 12, 27, 14, 24]",8,0,[],44.38966997,9404,750,1,0,8,1.4322660007679802
basic,53,12,0,1,1,24,"[0, 22, 16, 4, 12, 27, 14, 24]",8,0,[],44.38966997,11034,1630,1,0,8,1.4322660007679802
basic,54,20,0,0,0,0,[0],1,21,"[1, 2, 3, 4, 5, 6, 7, 8, 9, 12, 17, 18, 20, 21, 22, 23, 25, 26, 27, 28, 29]",300,164,-1,1,9,9,0.0
basic,54,20,0,0,0,12,"[0, 12]",2,20,"[1, 2, 3, 4, 5, 6, 7, 8, 9, 17, 18, 20, 21, 22, 23, 25, 26, 27, 28, 29]",271.5570747,2653,2489,1,8,9,1.0
basic,54,20,0,0,0,1,"[0, 12, 1]",3,12,"[3, 4, 5, 6, 8, 9, 20, 21, 23, 27, 28, 29]",189.5692707,5911,3258,1,6,9,1.0757997779162911
basic,54,20,0,0,0,5,"[0, 12, 1, 5]",4,10,"[4, 6, 8, 9, 20, 21, 23, 27, 28, 29]",152.8950291,6797,886,1,5,9,1.1708231454516806
basic,54,20,0,0,0,21,"[0, 12, 1, 5, 21]",5,8,"[4, 6, 8, 9, 20, 23, 27, 28]",107.8950291,7695,898,1,4,9,1.126197336199212
basic,54,20,0,0,0,8,"[0, 12, 1, 5, 21, 8]",6,5,"[6, 9, 23, 27, 28]",90.43077988,8453,758,1,3,9,1.140007470699913
basic,54,20,0,0,1,27,"[0, 12, 1, 5, 21, 8, 27]",7,0,[],50.20640916,11327,2874,1,0,7,1.3128859656095468
basic,54,20,0,1,1,27,"[0, 12, 1, 5, 21, 8, 27]",7,0,[],50.20640916,15084,3757,1,0,7,1.3128859656095468
basic,55,10,0,0,0,0,[0],1,29,"[1, 2, 3, 4, 5, 6, 7, 8, 9, 10, 11, 12, 13, 14, 15, 16, 17, 18, 19, 20, 21, 22, 23, 24, 25, 26, 27, 28, 29]",300,148,-1,1,100,9,0.0
basic,55,10,0,0,0,13,"[0, 13]",2,25,"[1, 2, 3, 4, 6, 7, 8, 9, 10, 11, 12, 14, 17, 18, 19, 20, 21, 22, 23, 24, 25, 26, 27, 28, 29]",249.4628849,3070,2922,1,79,9,1.0
basic,55,10,0,0,0,11,"[0, 13, 11]",3,20,"[1, 2, 3, 6, 7, 8, 9, 10, 12, 14, 18, 19, 20, 21, 22, 24, 26, 27, 28, 29]",206.4512586,6680,3610,1,54,9,1.0313137484914219
basic,55,10,0,0,0,19,"[0, 13, 11, 19]",4,11,"[2, 6, 8, 9, 10, 14, 18, 20, 24, 26, 27]",170.0919407,7669,989,1,22,9,1.0879446220132545
basic,55,10,0,0,0,2,"[0, 13, 11, 19, 2]",5,4,"[14, 20, 26, 27]",126.1829439,9207,1538,1,4,9,1.06474052351343
basic,55,10,0,0,0,14,"[0, 13, 11, 19, 2, 14]",6,3,"[20, 26, 27]",114.0174188,9803,596,1,3,9,1.1628909195912238
basic,55,10,0,0,0,26,"[0, 13, 11, 19, 2, 14, 26]",7,2,"[20, 27]",79.34754716,10511,708,1,1,9,1.6660727647633602
basic,55,10,0,0,0,20,"[0, 13, 11, 19, 2, 14, 26, 20]",8,1,[27],47.56704999,11328,817,1,0,9,2.085581809637999
basic,55,10,0,0,1,27,"[0, 13, 11, 19, 2, 14, 26, 20, 27]",9,0,[],2.312215998,12695,1367,1,0,9,1.9116357409137932
basic,55,10,0,1,1,27,"[0, 13, 11, 19, 2, 14, 26, 20, 27]",9,0,[],2.312215998,13933,1238,1,0,9,1.9116357409137932
basic,56,0,0,0,0,0,[0],1,27,"[2, 3, 4, 5, 6, 7, 8, 9, 10, 11, 12, 13, 14, 15, 16, 17, 19, 20, 21, 22, 23, 24, 25, 26, 27, 28, 29]",300,164,-1,104,1136,9,0.0
basic,56,0,0,0,0,21,"[0, 21]",2,24,"[3, 4, 5, 6, 7, 8, 9, 10, 11, 12, 13, 14, 15, 16, 17, 19, 20, 22, 23, 24, 26, 27, 28, 29]",228.2156006,4344,4180,24,249,9,1.0
basic,56,0,0,0,0,28,"[0, 21, 28]",3,21,"[3, 4, 5, 6, 7, 8, 9, 11, 12, 13, 14, 15, 16, 17, 19, 20, 23, 24, 26, 27, 29]",166.6282642,5663,1319,24,214,9,1.269228840767463
basic,56,0,0,0,0,5,"[0, 21, 28, 5]",4,16,"[3, 4, 7, 8, 9, 11, 12, 14, 15, 17, 19, 20, 23, 24, 26, 29]",122.9705043,6836,1173,17,100,9,1.3066419815776449
basic,56,0,0,0,0,4,"[0, 21, 28, 5, 4]",5,13,"[3, 7, 8, 9, 11, 12, 15, 17, 19, 20, 23, 24, 26]",97.89063191,8353,1517,12,40,9,1.2910976504592468
basic,56,0,0,0,0,26,"[0, 21, 28, 5, 4, 26]",6,10,"[3, 7, 8, 9, 11, 12, 15, 17, 23, 24]",85.84903733,8854,501,5,20,9,1.3255611811315622
basic,56,0,0,0,0,24,"[0, 21, 28, 5, 4, 26, 24]",7,8,"[3, 7, 8, 9, 11, 12, 15, 17]",68.73179456,9758,904,5,6,9,1.3862320021735308
basic,56,0,0,0,0,15,"[0, 21, 28, 5, 4, 26, 24, 15]",8,3,"[7, 8, 9]",45.3865595,10815,1057,3,0,9,1.3469536849324695
basic,56,0,0,0,1,7,"[0, 21, 28, 5, 4, 26, 24, 15, 7]",9,0,[],14.32211036,13416,2601,1,0,9,1.3934843658246785
basic,56,0,0,1,1,7,"[0, 21, 28, 5, 4, 26, 24, 15, 7]",9,0,[],14.32211036,14683,1267,1,0,9,1.3934843658246785
basic,57,8,0,0,0,0,[0],1,29,"[1, 2, 3, 4, 5, 6, 7, 8, 9, 10, 11, 12, 13, 14, 15, 16, 17, 18, 19, 20, 21, 22, 23, 24, 25, 26, 27, 28, 29]",300,164,-1,10,149,9,0.0
basic,57,8,0,0,0,5,"[0, 5]",2,28,"[1, 2, 3, 4, 6, 7, 8, 9, 10, 11, 12, 13, 14, 15, 16, 17, 18, 19, 20, 21, 22, 23, 24, 25, 26, 27, 28, 29]",254.5137383,5135,4971,10,100,9,1.0
basic,57,8,0,0,0,14,"[0, 5, 14]",3,20,"[1, 2, 3, 4, 6, 7, 11, 15, 16, 17, 18, 19, 20, 21, 22, 23, 24, 25, 28, 29]",214.5512559,11655,6520,4,36,9,1.0001019035932595
basic,57,8,0,0,0,17,"[0, 5, 14, 17]",4,15,"[1, 4, 6, 7, 11, 15, 16, 18, 19, 20, 22, 23, 24, 25, 28]",177.5377449,12487,832,4,16,9,1.121197267659591
basic,57,8,0,0,0,11,"[0, 5, 14, 17, 11]",5,11,"[1, 4, 15, 16, 18, 19, 22, 23, 24, 25, 28]",152.3583883,13254,767,4,8,9,1.1277254166016362
basic,57,8,0,0,0,24,"[0, 5, 14, 17, 11, 24]",6,3,"[15, 16, 28]",115.1428001,14128,874,2,2,9,1.1227411011978805
basic,57,8,0,0,0,15,"[0, 5, 14, 17, 11, 24, 15]",7,2,"[16, 28]",98.37974552,14654,526,2,0,9,1.1956385406066814
basic,57,8,0,0,0,16,"[0, 5, 14, 17, 11, 24, 15, 16]",8,1,[28],47.30137436,15615,961,1,0,9,1.36482239111247
basic,57,8,0,0,1,28,"[0, 5, 14, 17, 11, 24, 15, 16, 28]",9,0,[],24.94069458,16554,939,1,0,9,1.632953105226947
basic,57,8,0,1,1,28,"[0, 5, 14, 17, 11, 24, 15, 16, 28]",9,0,[],24.94069458,17567,1013,1,0,9,1.632953105226947
basic,58,31,0,0,0,0,[0],1,27,"[1, 3, 4, 5, 6, 7, 8, 10, 11, 12, 13, 14, 15, 16, 17, 18, 19, 20, 21, 22, 23, 24, 25, 26, 27, 28, 29]",300,164,-1,2,87,10,0.0
basic,58,31,0,0,0,14,"[0, 14]",2,25,"[1, 3, 5, 6, 7, 8, 10, 11, 12, 13, 15, 16, 17, 18, 19, 20, 21, 22, 23, 24, 25, 26, 27, 28, 29]",263.861378,4835,4671,2,59,10,1.0
