condition,trial_id,map_id,undoIndicator,submit,checkEnd,currentChoice,chosen_all,n_city_all,n_within_reach,cities_reach,currentBudget,time_all,rt_all,n_opt_paths_all,n_subopt_paths_all,mas_all,tortuosity_all
undo,0,23,0,0,0,0,[0],1,28,"[1, 2, 3, 4, 5, 6, 7, 8, 9, 10, 11, 12, 13, 14, 15, 16, 17, 18, 19, 20, 21, 22, 23, 25, 26, 27, 28, 29]",300,144,-1,76,2626,10,0.0
undo,0,23,0,0,0,22,"[0, 22]",2,24,"[1, 2, 3, 5, 6, 7, 8, 9, 10, 11, 12, 13, 14, 15, 17, 18, 19, 20, 21, 23, 25, 26, 27, 29]",210.5013967,6560,6416,15,1362,10,1.0
undo,0,23,0,0,0,13,"[0, 22, 13]",3,14,"[1, 2, 5, 6, 7, 8, 9, 10, 12, 14, 18, 21, 27, 29]",168.3113504,7642,1082,14,522,10,1.1898173563652046
undo,0,23,0,0,0,12,"[0, 22, 13, 12]",4,11,"[1, 2, 6, 7, 9, 10, 14, 18, 21, 27, 29]",156.2283045,8541,899,12,166,10,1.1727968780218219
undo,0,23,0,0,0,2,"[0, 22, 13, 12, 2]",5,9,"[1, 6, 7, 9, 10, 14, 18, 27, 29]",142.3358605,9426,885,4,38,10,1.1553975034701014
undo,0,23,0,0,0,9,"[0, 22, 13, 12, 2, 9]",6,7,"[6, 7, 10, 14, 18, 27, 29]",129.2974557,10098,672,1,12,10,1.3065798464766785
undo,0,23,0,0,0,14,"[0, 22, 13, 12, 2, 9, 14]",7,6,"[6, 7, 10, 18, 27, 29]",118.8571492,10935,837,1,6,10,1.2857038452263323
undo,0,23,0,0,0,29,"[0, 22, 13, 12, 2, 9, 14, 29]",8,2,"[7, 10]",71.42298425,16667,5732,1,1,10,1.4822676597092734
undo,0,23,0,0,0,7,"[0, 22, 13, 12, 2, 9, 14, 29, 7]",9,1,[10],47.3397951,17735,1068,1,0,10,1.5022275496758202
undo,0,23,0,0,1,10,"[0, 22, 13, 12, 2, 9, 14, 29, 7, 10]",10,0,[],19.88073466,18988,1253,1,0,10,1.46560906518872
undo,0,23,0,1,1,10,"[0, 22, 13, 12, 2, 9, 14, 29, 7, 10]",10,0,[],19.88073466,20279,1291,1,0,10,1.46560906518872
undo,1,26,0,0,0,0,[0],1,29,"[1, 2, 3, 4, 5, 6, 7, 8, 9, 10, 11, 12, 13, 14, 15, 16, 17, 18, 19, 20, 21, 22, 23, 24, 25, 26, 27, 28, 29]",300,163,-1,9,226,9,0.0
undo,1,26,0,0,0,21,"[0, 21]",2,25,"[2, 3, 4, 5, 6, 7, 8, 10, 11, 12, 13, 14, 15, 16, 17, 18, 19, 22, 23, 24, 25, 26, 27, 28, 29]",211.1349337,4394,4231,7,90,9,1.0
undo,1,26,0,0,0,16,"[0, 21, 16]",3,12,"[4, 5, 6, 10, 11, 12, 13, 14, 17, 23, 26, 29]",151.2266705,5491,1097,1,34,9,1.3289691188319968
undo,1,26,0,0,0,29,"[0, 21, 16, 29]",4,8,"[4, 5, 6, 10, 13, 14, 17, 23]",127.0192337,6217,726,1,28,9,1.4156891800947415
undo,1,26,0,0,0,4,"[0, 21, 16, 29, 4]",5,5,"[6, 10, 14, 17, 23]",103.0192337,7149,932,1,12,9,1.6252228687746915
undo,1,26,0,0,0,17,"[0, 21, 16, 29, 4, 17]",6,3,"[6, 10, 14]",81.92421056,8511,1362,1,4,9,1.534793846471065
undo,1,26,0,0,0,14,"[0, 21, 16, 29, 4, 17, 14]",7,2,"[6, 10]",59.45200551,9903,1392,1,1,9,1.4926767408397108
undo,1,26,0,0,0,6,"[0, 21, 16, 29, 4, 17, 14, 6]",8,1,[10],38.42820947,10904,1001,1,0,9,1.6286010900012204
undo,1,26,0,0,1,10,"[0, 21, 16, 29, 4, 17, 14, 6, 10]",9,0,[],9.153647129,12050,1146,1,0,9,1.797369356615424
undo,1,26,0,1,1,10,"[0, 21, 16, 29, 4, 17, 14, 6, 10]",9,0,[],9.153647129,12896,846,1,0,9,1.797369356615424
undo,2,8,0,0,0,0,[0],1,29,"[1, 2, 3, 4, 5, 6, 7, 8, 9, 10, 11, 12, 13, 14, 15, 16, 17, 18, 19, 20, 21, 22, 23, 24, 25, 26, 27, 28, 29]",300,147,-1,10,149,9,0.0
undo,2,8,0,0,0,5,"[0, 5]",2,28,"[1, 2, 3, 4, 6, 7, 8, 9, 10, 11, 12, 13, 14, 15, 16, 17, 18, 19, 20, 21, 22, 23, 24, 25, 26, 27, 28, 29]",254.5137383,1977,1830,10,100,9,1.0
undo,2,8,0,0,0,14,"[0, 5, 14]",3,20,"[1, 2, 3, 4, 6, 7, 11, 15, 16, 17, 18, 19, 20, 21, 22, 23, 24, 25, 28, 29]",214.5512559,2811,834,4,36,9,1.0001019035932595
undo,2,8,0,0,0,17,"[0, 5, 14, 17]",4,15,"[1, 4, 6, 7, 11, 15, 16, 18, 19, 20, 22, 23, 24, 25, 28]",177.5377449,3613,802,4,16,9,1.121197267659591
undo,2,8,0,0,0,11,"[0, 5, 14, 17, 11]",5,11,"[1, 4, 15, 16, 18, 19, 22, 23, 24, 25, 28]",152.3583883,4402,789,4,8,9,1.1277254166016362
undo,2,8,0,0,0,24,"[0, 5, 14, 17, 11, 24]",6,3,"[15, 16, 28]",115.1428001,5405,1003,2,2,9,1.1227411011978805
undo,2,8,0,0,0,15,"[0, 5, 14, 17, 11, 24, 15]",7,2,"[16, 28]",98.37974552,6277,872,2,0,9,1.1956385406066814
undo,2,8,0,0,0,16,"[0, 5, 14, 17, 11, 24, 15, 16]",8,1,[28],47.30137436,7452,1175,1,0,9,1.36482239111247
undo,2,8,0,0,1,28,"[0, 5, 14, 17, 11, 24, 15, 16, 28]",9,0,[],24.94069458,8504,1052,1,0,9,1.632953105226947
undo,2,8,0,1,1,28,"[0, 5, 14, 17, 11, 24, 15, 16, 28]",9,0,[],24.94069458,9215,711,1,0,9,1.632953105226947
undo,3,39,0,0,0,0,[0],1,28,"[1, 2, 3, 4, 5, 6, 7, 9, 10, 11, 12, 13, 14, 15, 16, 17, 18, 19, 20, 21, 22, 23, 24, 25, 26, 27, 28, 29]",300,149,-1,1,30,10,0.0
undo,3,39,0,0,0,29,"[0, 29]",2,26,"[1, 2, 3, 4, 5, 6, 7, 9, 10, 12, 13, 14, 15, 16, 17, 18, 19, 20, 21, 22, 23, 24, 25, 26, 27, 28]",243.0614366,2485,2336,8,104,9,1.0
undo,3,39,0,0,0,12,"[0, 29, 12]",3,18,"[1, 2, 4, 5, 7, 9, 10, 13, 14, 15, 16, 18, 19, 22, 23, 24, 26, 28]",182.5221931,3560,1075,5,54,9,1.0026200331524904
undo,3,39,0,0,0,10,"[0, 29, 12, 10]",4,16,"[1, 2, 4, 5, 7, 9, 13, 14, 15, 16, 18, 19, 22, 23, 24, 26]",147.0116313,4387,827,5,34,9,1.2874817019928908
undo,3,39,0,0,0,7,"[0, 29, 12, 10, 7]",5,10,"[1, 2, 5, 13, 16, 18, 19, 22, 24, 26]",113.5900814,5118,731,4,12,9,1.2250826263866774
undo,3,39,0,0,0,26,"[0, 29, 12, 10, 7, 26]",6,5,"[1, 16, 18, 19, 22]",94.90853971,5976,858,3,4,9,1.2697275353190085
undo,3,39,0,0,0,22,"[0, 29, 12, 10, 7, 26, 22]",7,2,"[16, 19]",77.18849457,6636,660,2,0,9,1.438961743955176
undo,3,39,0,0,0,16,"[0, 29, 12, 10, 7, 26, 22, 16]",8,1,[19],42.18849457,7674,1038,1,0,9,1.3580882130477205
undo,3,39,0,0,1,19,"[0, 29, 12, 10, 7, 26, 22, 16, 19]",9,0,[],24.72424537,8525,851,1,0,9,1.3646589157842668
undo,3,39,0,1,1,19,"[0, 29, 12, 10, 7, 26, 22, 16, 19]",9,0,[],24.72424537,9080,555,1,0,9,1.3646589157842668
undo,4,9,0,0,0,0,[0],1,27,"[1, 3, 4, 5, 6, 7, 8, 9, 10, 11, 13, 14, 15, 16, 17, 18, 19, 20, 21, 22, 23, 24, 25, 26, 27, 28, 29]",300,171,-1,2,182,10,0.0
undo,4,9,0,0,0,25,"[0, 25]",2,24,"[1, 3, 4, 5, 6, 7, 8, 9, 10, 11, 13, 15, 16, 17, 18, 19, 20, 21, 22, 23, 24, 26, 27, 28]",275.9168108,2239,2068,2,104,10,1.0
undo,4,9,0,0,0,10,"[0, 25, 10]",3,20,"[3, 4, 5, 7, 8, 9, 11, 13, 15, 16, 17, 18, 19, 20, 21, 22, 23, 26, 27, 28]",236.0670932,3239,1000,2,76,10,1.1767014107208227
undo,4,9,0,0,0,9,"[0, 25, 10, 9]",4,15,"[3, 4, 5, 7, 8, 11, 18, 19, 20, 21, 22, 23, 26, 27, 28]",150.5744034,4950,1711,4,26,9,2.006661984709317
undo,4,9,0,0,0,23,"[0, 25, 10, 9, 23]",5,12,"[4, 7, 8, 11, 18, 19, 20, 21, 22, 26, 27, 28]",128.2137236,5795,845,4,12,9,2.8852293829447864
undo,4,9,0,0,0,8,"[0, 25, 10, 9, 23, 8]",6,7,"[7, 20, 21, 22, 26, 27, 28]",106.7428131,6460,665,2,4,9,3.0300178113656524
undo,4,9,0,0,0,28,"[0, 25, 10, 9, 23, 8, 28]",7,3,"[20, 21, 26]",95.92615925,7278,818,2,1,9,2.74748826512235
undo,4,9,0,0,0,21,"[0, 25, 10, 9, 23, 8, 28, 21]",8,1,[20],42.92615925,9421,2143,1,0,9,2.168801095542273
undo,4,9,0,0,1,20,"[0, 25, 10, 9, 23, 8, 28, 21, 20]",9,0,[],30.84311328,10110,689,1,0,9,2.1252171616894433
undo,4,9,0,1,1,20,"[0, 25, 10, 9, 23, 8, 28, 21, 20]",9,0,[],30.84311328,10863,753,1,0,9,2.1252171616894433
undo,5,36,0,0,0,0,[0],1,24,"[2, 4, 5, 6, 7, 8, 9, 10, 12, 13, 14, 15, 16, 17, 18, 19, 20, 22, 23, 25, 26, 27, 28, 29]",300,151,-1,2,200,10,0.0
undo,5,36,0,0,0,9,"[0, 9]",2,16,"[2, 4, 8, 10, 12, 13, 16, 17, 18, 19, 23, 25, 26, 27, 28, 29]",230.9348134,2644,2493,81,367,8,1.0
undo,5,36,0,0,0,16,"[0, 9, 16]",3,10,"[2, 10, 12, 13, 17, 18, 19, 23, 25, 27]",183.637879,3631,987,16,49,8,1.090165866783516
undo,5,36,0,0,0,17,"[0, 9, 16, 17]",4,8,"[2, 10, 12, 13, 18, 19, 23, 25]",155.3182745,4448,817,13,21,8,1.530787871385863
undo,5,36,0,0,0,19,"[0, 9, 16, 17, 19]",5,7,"[2, 10, 12, 13, 18, 23, 25]",127.4256232,5596,1148,8,6,8,2.238961045332441
undo,5,36,0,0,0,2,"[0, 9, 16, 17, 19, 2]",6,3,"[10, 13, 25]",90.30420077,6570,974,3,1,8,1.8568787688562653
undo,5,36,0,0,0,25,"[0, 9, 16, 17, 19, 2, 25]",7,2,"[10, 13]",65.30420077,7423,853,2,0,8,2.049920884177255
undo,5,36,0,0,1,13,"[0, 9, 16, 17, 19, 2, 25, 13]",8,0,[],44.71294049,8581,1158,1,0,8,2.602802798289571
undo,5,36,0,1,1,13,"[0, 9, 16, 17, 19, 2, 25, 13]",8,0,[],44.71294049,9347,766,1,0,8,2.602802798289571
undo,6,21,0,0,0,0,[0],1,29,"[1, 2, 3, 4, 5, 6, 7, 8, 9, 10, 11, 12, 13, 14, 15, 16, 17, 18, 19, 20, 21, 22, 23, 24, 25, 26, 27, 28, 29]",300,146,-1,84,830,9,0.0
undo,6,21,0,0,0,21,"[0, 21]",2,22,"[1, 3, 4, 6, 8, 9, 10, 11, 12, 14, 15, 16, 17, 18, 20, 22, 23, 24, 25, 26, 27, 29]",210.1111798,1928,1782,1,69,9,1.0
undo,6,21,0,0,0,14,"[0, 21, 14]",3,15,"[1, 4, 6, 8, 9, 15, 16, 17, 18, 20, 22, 23, 24, 25, 29]",184.4986828,2773,845,35,96,8,1.0083702391721483
undo,6,21,0,0,0,4,"[0, 21, 14, 4]",4,13,"[1, 8, 9, 15, 16, 17, 18, 20, 22, 23, 24, 25, 29]",170.3565472,3494,721,20,39,8,1.0135821167776475
undo,6,21,0,0,0,16,"[0, 21, 14, 4, 16]",5,7,"[8, 15, 17, 23, 24, 25, 29]",125.758341,4328,834,4,6,8,1.0675217597413178
undo,6,21,0,0,0,8,"[0, 21, 14, 4, 16, 8]",6,3,"[15, 23, 24]",107.1572657,6612,2284,3,1,8,1.0643903127717425
undo,6,21,0,0,0,15,"[0, 21, 14, 4, 16, 8, 15]",7,2,"[23, 24]",82.15726573,7667,1055,2,0,8,1.29402645910376
undo,6,21,0,0,1,24,"[0, 21, 14, 4, 16, 8, 15, 24]",8,0,[],36.4516862,8846,1179,1,0,8,1.3251667405154008
undo,6,21,0,1,1,24,"[0, 21, 14, 4, 16, 8, 15, 24]",8,0,[],36.4516862,9746,900,1,0,8,1.3251667405154008
undo,7,37,0,0,0,0,[0],1,29,"[1, 2, 3, 4, 5, 6, 7, 8, 9, 10, 11, 12, 13, 14, 15, 16, 17, 18, 19, 20, 21, 22, 23, 24, 25, 26, 27, 28, 29]",300,180,-1,6,168,10,0.0
undo,7,37,0,0,0,18,"[0, 18]",2,19,"[1, 2, 4, 6, 7, 9, 10, 12, 14, 15, 17, 19, 20, 21, 22, 23, 26, 28, 29]",202.4090168,3158,2978,6,89,10,1.0
undo,7,37,0,0,0,7,"[0, 18, 7]",3,12,"[1, 2, 4, 9, 15, 17, 19, 20, 21, 22, 26, 29]",175.2428614,3962,804,6,53,10,1.0413073512834488
undo,7,37,0,0,0,22,"[0, 18, 7, 22]",4,8,"[1, 2, 4, 15, 19, 20, 21, 26]",125.2428614,4865,903,6,29,10,1.0730792320325544
undo,7,37,0,0,0,4,"[0, 18, 7, 22, 4]",5,7,"[1, 2, 15, 19, 20, 21, 26]",100.2428614,5577,712,4,16,10,1.2290245562206235
undo,7,37,0,0,0,2,"[0, 18, 7, 22, 4, 2]",6,5,"[1, 15, 19, 20, 21]",88.84110714,6232,655,4,7,10,1.3968113858365216
undo,7,37,0,0,0,1,"[0, 18, 7, 22, 4, 2, 1]",7,4,"[15, 19, 20, 21]",71.63645661,7305,1073,4,3,10,1.4424239294761476
undo,7,37,0,0,0,15,"[0, 18, 7, 22, 4, 2, 1, 15]",8,2,"[20, 21]",31.67397421,8370,1065,2,0,10,1.612564167414217
undo,7,37,0,0,0,21,"[0, 18, 7, 22, 4, 2, 1, 15, 21]",9,1,[20],16.67397421,9168,798,1,0,10,1.8256316004901285
undo,7,37,0,0,1,20,"[0, 18, 7, 22, 4, 2, 1, 15, 21, 20]",10,0,[],2.251769103,10020,852,1,0,10,1.9863570569415172
undo,7,37,0,1,1,20,"[0, 18, 7, 22, 4, 2, 1, 15, 21, 20]",10,0,[],2.251769103,11096,1076,1,0,10,1.9863570569415172
undo,8,10,0,0,0,0,[0],1,29,"[1, 2, 3, 4, 5, 6, 7, 8, 9, 10, 11, 12, 13, 14, 15, 16, 17, 18, 19, 20, 21, 22, 23, 24, 25, 26, 27, 28, 29]",300,154,-1,1,100,9,0.0
undo,8,10,0,0,0,28,"[0, 28]",2,12,"[3, 7, 10, 12, 15, 16, 17, 18, 21, 23, 25, 29]",152.3212947,3220,3066,1,9,6,1.0
undo,8,10,0,0,0,23,"[0, 28, 23]",3,6,"[3, 12, 15, 16, 17, 25]",105.0560855,3920,700,1,4,6,1.0081253319685164
undo,8,10,0,0,0,25,"[0, 28, 23, 25]",4,3,"[15, 16, 17]",79.7381077,4594,674,1,2,6,1.0072648112210758
undo,8,10,0,0,0,15,"[0, 28, 23, 25, 15]",5,1,[16],64.44104916,5177,583,1,0,6,1.0099506696678449
undo,8,10,0,0,1,16,"[0, 28, 23, 25, 15, 16]",6,0,[],21.89695439,6745,1568,1,0,6,1.0196711742515678
undo,8,10,0,1,1,16,"[0, 28, 23, 25, 15, 16]",6,0,[],21.89695439,7397,652,1,0,6,1.0196711742515678
undo,9,42,0,0,0,0,[0],1,29,"[1, 2, 3, 4, 5, 6, 7, 8, 9, 10, 11, 12, 13, 14, 15, 16, 17, 18, 19, 20, 21, 22, 23, 24, 25, 26, 27, 28, 29]",300,147,-1,16,302,9,0.0
undo,9,42,0,0,0,5,"[0, 5]",2,28,"[1, 2, 3, 4, 6, 7, 8, 9, 10, 11, 12, 13, 14, 15, 16, 17, 18, 19, 20, 21, 22, 23, 24, 25, 26, 27, 28, 29]",191.2939744,2100,1953,1,22,9,1.0
undo,9,42,0,0,0,4,"[0, 5, 4]",3,23,"[1, 2, 3, 6, 7, 8, 9, 10, 11, 13, 15, 17, 18, 19, 20, 21, 22, 23, 24, 25, 26, 27, 29]",171.4445412,2778,678,1,14,9,1.420957801478707
undo,9,42,0,0,0,22,"[0, 5, 4, 22]",4,20,"[1, 2, 3, 6, 7, 8, 9, 11, 15, 17, 18, 19, 20, 21, 23, 24, 25, 26, 27, 29]",160.2642013,3394,616,1,11,9,1.5771494659680896
undo,9,42,0,0,0,8,"[0, 5, 4, 22, 8]",5,14,"[1, 2, 3, 6, 7, 11, 15, 18, 19, 24, 25, 26, 27, 29]",138.1282577,4077,683,1,10,9,1.5055393955524201
undo,9,42,0,0,0,1,"[0, 5, 4, 22, 8, 1]",6,5,"[2, 7, 19, 26, 27]",89.03650682,4912,835,1,7,9,1.3547259083637835
undo,9,42,0,0,0,7,"[0, 5, 4, 22, 8, 1, 7]",7,4,"[2, 19, 26, 27]",59.03650682,6013,1101,1,3,9,1.3909715672447451
undo,9,42,0,0,0,26,"[0, 5, 4, 22, 8, 1, 7, 26]",8,1,[27],32.46584631,7971,1958,1,0,9,1.3511825943939393
undo,9,42,0,0,1,27,"[0, 5, 4, 22, 8, 1, 7, 26, 27]",9,0,[],14.43808994,8813,842,1,0,9,1.3391911688802078
undo,9,42,0,1,1,27,"[0, 5, 4, 22, 8, 1, 7, 26, 27]",9,0,[],14.43808994,9732,919,1,0,9,1.3391911688802078
undo,10,11,0,0,0,0,[0],1,25,"[1, 2, 3, 4, 5, 6, 8, 9, 10, 11, 12, 13, 14, 15, 16, 17, 18, 19, 20, 22, 23, 25, 26, 27, 28]",300,149,-1,6,374,12,0.0
undo,10,11,0,0,0,18,"[0, 18]",2,21,"[1, 2, 4, 5, 6, 8, 9, 11, 12, 13, 14, 15, 16, 17, 19, 20, 22, 23, 25, 27, 28]",236.8493864,2654,2505,157,1477,11,1.0
undo,10,11,0,0,0,8,"[0, 18, 8]",3,15,"[1, 2, 4, 5, 6, 11, 12, 15, 17, 19, 22, 23, 25, 27, 28]",142.8015262,4617,1963,68,433,10,1.082583796658153
undo,10,11,0,0,0,17,"[0, 18, 8, 17]",4,14,"[1, 2, 4, 5, 6, 11, 12, 15, 19, 22, 23, 25, 27, 28]",128.4837052,5845,1228,42,137,10,1.1661570686256826
undo,10,11,0,0,0,15,"[0, 18, 8, 17, 15]",5,10,"[2, 5, 6, 11, 12, 19, 22, 25, 27, 28]",115.8345945,7130,1285,38,57,10,1.174004859404982
undo,10,11,0,0,0,11,"[0, 18, 8, 17, 15, 11]",6,8,"[2, 5, 6, 12, 19, 22, 27, 28]",97.72382425,7695,565,24,0,10,1.1667535829006488
undo,10,11,0,0,0,22,"[0, 18, 8, 17, 15, 11, 22]",7,3,"[2, 5, 28]",64.30227431,8712,1017,6,0,10,1.250161535720183
undo,10,11,0,0,0,2,"[0, 18, 8, 17, 15, 11, 22, 2]",8,2,"[5, 28]",54.25239869,9288,576,2,0,10,1.376829090639347
undo,10,11,0,0,0,28,"[0, 18, 8, 17, 15, 11, 22, 2, 28]",9,1,[5],43.62225288,10038,750,1,0,10,1.4836387000147067
undo,10,11,0,0,1,5,"[0, 18, 8, 17, 15, 11, 22, 2, 28, 5]",10,0,[],25.73370906,10914,876,1,0,10,1.6857907494532158
undo,10,11,0,1,1,5,"[0, 18, 8, 17, 15, 11, 22, 2, 28, 5]",10,0,[],25.73370906,11698,784,1,0,10,1.6857907494532158
undo,11,4,0,0,0,0,[0],1,26,"[3, 4, 5, 6, 7, 8, 10, 11, 12, 13, 14, 15, 16, 17, 18, 19, 20, 21, 22, 23, 24, 25, 26, 27, 28, 29]",300,148,-1,4,489,10,0.0
undo,11,4,0,0,0,28,"[0, 28]",2,21,"[3, 4, 5, 6, 10, 11, 12, 13, 14, 15, 16, 17, 19, 20, 21, 22, 23, 24, 25, 26, 27]",225.9392142,3074,2926,2,216,10,1.0
undo,11,4,0,0,0,11,"[0, 28, 11]",3,16,"[3, 4, 5, 6, 12, 13, 14, 16, 17, 20, 21, 22, 23, 24, 25, 26]",177.0618165,4198,1124,1,99,10,1.0005230107421244
undo,11,4,0,0,0,25,"[0, 28, 11, 25]",4,14,"[3, 4, 5, 6, 12, 13, 14, 16, 17, 20, 21, 22, 23, 24]",158.2735223,6447,2249,1,47,10,1.11762077950493
undo,11,4,0,0,0,14,"[0, 28, 11, 25, 14]",5,10,"[3, 4, 5, 6, 13, 16, 17, 20, 21, 22]",142.1490068,7013,566,1,23,10,1.1558980853108136
undo,11,4,0,0,0,16,"[0, 28, 11, 25, 14, 16]",6,9,"[3, 4, 5, 6, 13, 17, 20, 21, 22]",109.5913656,7935,922,1,12,10,1.3813330703388178
undo,11,4,0,0,0,21,"[0, 28, 11, 25, 14, 16, 21]",7,4,"[5, 17, 20, 22]",65.38729339,8920,985,3,3,9,1.5873602666977278
undo,11,4,0,0,0,22,"[0, 28, 11, 25, 14, 16, 21, 22]",8,3,"[5, 17, 20]",54.34193237,9655,735,3,0,9,1.5483300526954302
undo,11,4,0,0,1,5,"[0, 28, 11, 25, 14, 16, 21, 22, 5]",9,0,[],15.1373408,10418,763,1,0,9,1.4428281492980222
undo,11,4,0,1,1,5,"[0, 28, 11, 25, 14, 16, 21, 22, 5]",9,0,[],15.1373408,11347,929,1,0,9,1.4428281492980222
undo,12,2,0,0,0,0,[0],1,23,"[1, 2, 4, 5, 6, 7, 8, 9, 12, 13, 15, 16, 17, 18, 19, 20, 22, 23, 25, 26, 27, 28, 29]",300,155,-1,70,620,10,0.0
undo,12,2,0,0,0,19,"[0, 19]",2,22,"[1, 2, 4, 5, 6, 7, 8, 9, 12, 13, 15, 16, 17, 18, 20, 22, 23, 25, 26, 27, 28, 29]",210.306076,2078,1923,67,431,10,1.0
undo,12,2,0,0,0,12,"[0, 19, 12]",3,17,"[1, 4, 5, 6, 7, 13, 15, 16, 17, 18, 20, 22, 25, 26, 27, 28, 29]",174.2921898,2844,766,66,298,10,1.1107635036313153
undo,12,2,0,0,0,5,"[0, 19, 12, 5]",4,11,"[1, 6, 7, 13, 15, 16, 18, 22, 25, 26, 29]",144.7625437,3705,861,38,136,10,1.0968174771581647
undo,12,2,0,0,0,22,"[0, 19, 12, 5, 22]",5,8,"[1, 6, 7, 13, 15, 18, 26, 29]",131.9562952,4462,757,20,63,10,1.0889910507461968
undo,12,2,0,0,0,13,"[0, 19, 12, 5, 22, 13]",6,7,"[1, 6, 7, 15, 18, 26, 29]",117.0902265,5328,866,19,20,10,1.236526217328057
undo,12,2,0,0,0,18,"[0, 19, 12, 5, 22, 13, 18]",7,4,"[7, 15, 26, 29]",81.91921567,6705,1377,10,3,10,1.2128708213409936
undo,12,2,0,0,0,7,"[0, 19, 12, 5, 22, 13, 18, 7]",8,3,"[15, 26, 29]",71.62358553,7320,615,5,0,10,1.2019811287894737
undo,12,2,0,0,0,26,"[0, 19, 12, 5, 22, 13, 18, 7, 26]",9,2,"[15, 29]",48.82007703,8045,725,2,0,10,1.1883593342191134
undo,12,2,0,0,1,15,"[0, 19, 12, 5, 22, 13, 18, 7, 26, 15]",10,0,[],24.61264015,8770,725,1,0,10,1.4619750353663825
undo,12,2,0,1,1,15,"[0, 19, 12, 5, 22, 13, 18, 7, 26, 15]",10,0,[],24.61264015,9714,944,1,0,10,1.4619750353663825
undo,13,5,0,0,0,0,[0],1,29,"[1, 2, 3, 4, 5, 6, 7, 8, 9, 10, 11, 12, 13, 14, 15, 16, 17, 18, 19, 20, 21, 22, 23, 24, 25, 26, 27, 28, 29]",300,155,-1,5,139,9,0.0
undo,13,5,0,0,0,12,"[0, 12]",2,22,"[2, 4, 5, 6, 8, 9, 10, 13, 14, 15, 16, 17, 18, 19, 21, 22, 23, 24, 25, 26, 27, 28]",228.3062067,24805,24650,1,27,9,1.0
undo,13,5,0,0,0,25,"[0, 12, 25]",3,21,"[2, 4, 5, 6, 8, 9, 10, 13, 14, 15, 16, 17, 18, 19, 21, 22, 23, 24, 26, 27, 28]",200.5213187,25767,962,1,20,9,1.584023303445617
undo,13,5,0,0,0,23,"[0, 12, 25, 23]",4,19,"[2, 4, 5, 6, 8, 9, 10, 13, 14, 15, 16, 17, 18, 19, 21, 22, 24, 26, 27]",182.0822298,26694,927,1,14,9,2.3508446989254357
undo,13,5,0,0,0,24,"[0, 12, 25, 23, 24]",5,15,"[2, 4, 5, 6, 8, 9, 13, 14, 15, 17, 18, 19, 22, 26, 27]",158.995437,27763,1069,1,12,9,1.9469752046288753
undo,13,5,0,0,0,17,"[0, 12, 25, 23, 24, 17]",6,7,"[4, 5, 6, 8, 15, 18, 19]",124.0097257,28707,944,1,8,9,1.6482276497563642
undo,13,5,0,0,0,4,"[0, 12, 25, 23, 24, 17, 4]",7,2,"[6, 18]",41.93049564,30577,1870,2,0,8,1.4727365492235016
undo,13,5,0,0,1,6,"[0, 12, 25, 23, 24, 17, 4, 6]",8,0,[],29.88890107,31201,624,1,0,8,1.6174317301197607
undo,13,5,0,1,1,6,"[0, 12, 25, 23, 24, 17, 4, 6]",8,0,[],29.88890107,32114,913,1,0,8,1.6174317301197607
undo,14,34,0,0,0,0,[0],1,25,"[1, 3, 4, 5, 6, 7, 8, 9, 10, 11, 12, 13, 15, 18, 19, 20, 21, 22, 23, 24, 25, 26, 27, 28, 29]",300,154,-1,12,367,10,0.0
undo,14,34,0,0,0,13,"[0, 13]",2,24,"[1, 3, 4, 5, 6, 7, 8, 9, 10, 11, 12, 15, 18, 19, 20, 21, 22, 23, 24, 25, 26, 27, 28, 29]",279.9750156,1895,1741,12,331,10,1.0
undo,14,34,0,0,0,1,"[0, 13, 1]",3,16,"[3, 5, 7, 8, 9, 10, 11, 12, 19, 21, 22, 23, 24, 25, 27, 29]",211.8574701,2874,979,3,92,10,1.0010381285747127
undo,14,34,0,0,0,8,"[0, 13, 1, 8]",4,14,"[3, 5, 7, 9, 10, 11, 12, 19, 22, 23, 24, 25, 27, 29]",201.0871405,3428,554,2,54,10,1.1636807
undo,14,34,0,0,0,25,"[0, 13, 1, 8, 25]",5,12,"[3, 5, 7, 9, 10, 11, 12, 22, 23, 24, 27, 29]",183.999133,4531,1103,2,28,10,1.1396208815936457
undo,14,34,0,0,0,24,"[0, 13, 1, 8, 25, 24]",6,11,"[3, 5, 7, 9, 10, 11, 12, 22, 23, 27, 29]",166.5062774,5461,930,2,23,10,1.374180768736554
undo,14,34,0,0,0,12,"[0, 13, 1, 8, 25, 24, 12]",7,7,"[7, 9, 10, 11, 22, 23, 27]",115.4670767,6578,1117,1,8,10,1.4994254760835948
undo,14,34,0,0,0,7,"[0, 13, 1, 8, 25, 24, 12, 7]",8,5,"[9, 11, 22, 23, 27]",100.4337804,7438,860,1,4,10,1.758992610425009
undo,14,34,0,0,0,23,"[0, 13, 1, 8, 25, 24, 12, 7, 23]",9,1,[27],72.27352467,8460,1022,1,0,10,2.399781305190153
undo,14,34,0,0,1,27,"[0, 13, 1, 8, 25, 24, 12, 7, 23, 27]",10,0,[],18.60789321,9445,985,1,0,10,4.766619878750327
undo,14,34,0,1,1,27,"[0, 13, 1, 8, 25, 24, 12, 7, 23, 27]",10,0,[],18.60789321,9865,420,1,0,10,4.766619878750327
undo,15,33,0,0,0,0,[0],1,23,"[1, 2, 5, 7, 8, 11, 12, 13, 14, 15, 16, 17, 18, 19, 20, 21, 23, 24, 25, 26, 27, 28, 29]",300,148,-1,5,108,9,0.0
undo,15,33,0,0,0,8,"[0, 8]",2,22,"[1, 2, 5, 7, 11, 12, 13, 14, 15, 16, 17, 18, 19, 20, 21, 23, 24, 25, 26, 27, 28, 29]",265.8679037,3258,3110,5,87,9,1.0
undo,15,33,0,0,0,21,"[0, 8, 21]",3,16,"[2, 5, 7, 11, 13, 14, 16, 17, 18, 19, 20, 24, 26, 27, 28, 29]",166.0430571,4238,980,5,80,9,1.0670557763739492
undo,15,33,0,0,0,17,"[0, 8, 21, 17]",4,11,"[2, 7, 11, 13, 14, 16, 19, 20, 24, 26, 29]",127.4036989,5078,840,1,18,9,1.0830294710276618
undo,15,33,0,0,0,13,"[0, 8, 21, 17, 13]",5,10,"[2, 7, 11, 14, 16, 19, 20, 24, 26, 29]",104.6001904,7161,2083,1,10,9,1.2861654105061844
undo,15,33,0,0,0,19,"[0, 8, 21, 17, 13, 19]",6,6,"[7, 14, 16, 24, 26, 29]",79.10509282,9050,1889,1,6,9,1.3181942666818214
undo,15,33,0,0,0,24,"[0, 8, 21, 17, 13, 19, 24]",7,1,[7],37.05750074,10114,1064,1,0,8,1.2914654832859356
undo,15,33,0,0,1,7,"[0, 8, 21, 17, 13, 19, 24, 7]",8,0,[],7.851337003,11888,1774,1,0,8,1.370940443464748
undo,15,33,0,1,1,7,"[0, 8, 21, 17, 13, 19, 24, 7]",8,0,[],7.851337003,12864,976,1,0,8,1.370940443464748
undo,16,43,0,0,0,0,[0],1,23,"[1, 2, 3, 4, 5, 6, 7, 9, 10, 11, 12, 14, 15, 16, 17, 19, 20, 21, 22, 23, 25, 27, 29]",300,149,-1,16,556,12,0.0
undo,16,43,0,0,0,29,"[0, 29]",2,22,"[1, 2, 3, 4, 5, 6, 7, 9, 10, 11, 12, 14, 15, 16, 17, 19, 20, 21, 22, 23, 25, 27]",277.909278,1584,1435,16,520,12,1.0
undo,16,43,0,0,0,20,"[0, 29, 20]",3,20,"[1, 2, 3, 4, 6, 7, 9, 10, 11, 12, 14, 15, 16, 17, 19, 21, 22, 23, 25, 27]",254.4785289,2284,700,15,422,12,1.082311746871282
undo,16,43,0,0,0,16,"[0, 29, 20, 16]",4,19,"[1, 2, 3, 4, 6, 7, 9, 10, 11, 12, 14, 15, 17, 19, 21, 22, 23, 25, 27]",231.8511119,3396,1112,15,389,12,1.215201926898219
undo,16,43,0,0,0,15,"[0, 29, 20, 16, 15]",5,14,"[1, 2, 3, 4, 6, 7, 9, 11, 12, 14, 19, 22, 23, 25]",188.5267539,4362,966,3,109,12,1.3482474915350444
undo,16,43,0,0,0,25,"[0, 29, 20, 16, 15, 25]",6,12,"[1, 3, 4, 6, 7, 9, 11, 12, 14, 19, 22, 23]",165.8551858,5208,846,2,43,12,1.691408721191545
undo,16,43,0,0,0,12,"[0, 29, 20, 16, 15, 25, 12]",7,11,"[1, 3, 4, 6, 7, 9, 11, 14, 19, 22, 23]",141.6684126,5962,754,2,32,12,1.6015983641428178
undo,16,43,0,0,0,3,"[0, 29, 20, 16, 15, 25, 12, 3]",8,10,"[1, 4, 6, 7, 9, 11, 14, 19, 22, 23]",128.6684126,6888,926,2,24,12,1.5379830456120627
undo,16,43,0,0,0,22,"[0, 29, 20, 16, 15, 25, 12, 3, 22]",9,6,"[1, 6, 7, 11, 14, 19]",93.95530264,8010,1122,1,11,12,1.7275686117408873
undo,16,43,0,0,0,11,"[0, 29, 20, 16, 15, 25, 12, 3, 22, 11]",10,2,"[6, 14]",47.89013141,9142,1132,2,0,11,2.7704381163736262
undo,16,43,0,0,1,6,"[0, 29, 20, 16, 15, 25, 12, 3, 22, 11, 6]",11,0,[],27.27460328,10138,996,1,0,11,2.472790800955036
undo,16,43,0,1,1,6,"[0, 29, 20, 16, 15, 25, 12, 3, 22, 11, 6]",11,0,[],27.27460328,11114,976,1,0,11,2.472790800955036
undo,17,20,0,0,0,0,[0],1,21,"[1, 2, 3, 4, 5, 6, 7, 8, 9, 12, 17, 18, 20, 21, 22, 23, 25, 26, 27, 28, 29]",300,147,-1,1,9,9,0.0
undo,17,20,0,0,0,12,"[0, 12]",2,20,"[1, 2, 3, 4, 5, 6, 7, 8, 9, 17, 18, 20, 21, 22, 23, 25, 26, 27, 28, 29]",271.5570747,1712,1565,1,8,9,1.0
undo,17,20,0,0,0,1,"[0, 12, 1]",3,12,"[3, 4, 5, 6, 8, 9, 20, 21, 23, 27, 28, 29]",189.5692707,2657,945,1,6,9,1.0757997779162911
undo,17,20,0,0,0,5,"[0, 12, 1, 5]",4,10,"[4, 6, 8, 9, 20, 21, 23, 27, 28, 29]",152.8950291,3486,829,1,5,9,1.1708231454516806
undo,17,20,0,0,0,21,"[0, 12, 1, 5, 21]",5,8,"[4, 6, 8, 9, 20, 23, 27, 28]",107.8950291,4380,894,1,4,9,1.126197336199212
undo,17,20,0,0,0,8,"[0, 12, 1, 5, 21, 8]",6,5,"[6, 9, 23, 27, 28]",90.43077988,5410,1030,1,3,9,1.140007470699913
undo,17,20,0,0,0,23,"[0, 12, 1, 5, 21, 8, 23]",7,2,"[6, 9]",45.74297394,6529,1119,1,1,9,1.1162257896627588
undo,17,20,0,0,0,9,"[0, 12, 1, 5, 21, 8, 23, 9]",8,1,[6],26.53360123,7304,775,1,0,9,1.1086880559449597
undo,17,20,0,0,1,6,"[0, 12, 1, 5, 21, 8, 23, 9, 6]",9,0,[],3.511872362,8310,1006,1,0,9,1.1186240265999328
undo,17,20,0,1,1,6,"[0, 12, 1, 5, 21, 8, 23, 9, 6]",9,0,[],3.511872362,9063,753,1,0,9,1.1186240265999328
undo,18,0,0,0,0,0,[0],1,27,"[2, 3, 4, 5, 6, 7, 8, 9, 10, 11, 12, 13, 14, 15, 16, 17, 19, 20, 21, 22, 23, 24, 25, 26, 27, 28, 29]",300,180,-1,104,1136,9,0.0
undo,18,0,0,0,0,28,"[0, 28]",2,26,"[2, 3, 4, 5, 6, 7, 8, 9, 10, 11, 12, 13, 14, 15, 16, 17, 19, 20, 21, 22, 23, 24, 25, 26, 27, 29]",194.9190788,3062,2882,39,388,9,1.0
undo,18,0,0,0,0,5,"[0, 28, 5]",3,21,"[2, 3, 4, 7, 8, 9, 11, 12, 13, 14, 15, 16, 17, 19, 20, 21, 23, 24, 25, 26, 29]",151.2613189,3852,790,27,210,9,1.0978295127671733
undo,18,0,0,0,0,4,"[0, 28, 5, 4]",4,16,"[3, 7, 8, 9, 11, 12, 13, 14, 15, 17, 19, 20, 21, 23, 24, 26]",126.1814465,4571,719,17,114,9,1.1103727063761901
undo,18,0,0,0,0,24,"[0, 28, 5, 4, 24]",5,12,"[3, 7, 8, 9, 11, 12, 15, 17, 19, 20, 23, 26]",114.7796922,5041,470,10,46,9,1.1102188371994124
undo,18,0,0,0,0,26,"[0, 28, 5, 4, 24, 26]",6,11,"[3, 7, 8, 9, 11, 12, 15, 17, 19, 20, 23]",97.66244947,5914,873,4,19,9,1.2524379957194889
undo,18,0,0,0,0,15,"[0, 28, 5, 4, 24, 26, 15]",7,5,"[3, 7, 8, 9, 11]",60.89289685,6787,873,3,3,9,1.2649222014712165
undo,18,0,0,0,0,7,"[0, 28, 5, 4, 24, 26, 15, 7]",8,2,"[3, 8]",29.82844771,7563,776,2,0,9,1.3178472953616562
undo,18,0,0,0,1,8,"[0, 28, 5, 4, 24, 26, 15, 7, 8]",9,0,[],10.72347454,8275,712,1,0,9,1.3003326445592942
undo,18,0,0,1,1,8,"[0, 28, 5, 4, 24, 26, 15, 7, 8]",9,0,[],10.72347454,8898,623,1,0,9,1.3003326445592942
undo,19,19,0,0,0,0,[0],1,29,"[1, 2, 3, 4, 5, 6, 7, 8, 9, 10, 11, 12, 13, 14, 15, 16, 17, 18, 19, 20, 21, 22, 23, 24, 25, 26, 27, 28, 29]",300,165,-1,12,149,8,0.0
undo,19,19,0,0,0,29,"[0, 29]",2,28,"[1, 2, 3, 4, 5, 6, 7, 8, 9, 10, 11, 12, 13, 14, 15, 16, 17, 18, 19, 20, 21, 22, 23, 24, 25, 26, 27, 28]",265.0715016,120549,120384,12,120,8,1.0
undo,19,19,0,0,0,9,"[0, 29, 9]",3,17,"[1, 4, 5, 6, 7, 10, 11, 12, 13, 14, 19, 20, 21, 22, 24, 27, 28]",181.7108394,121711,1162,11,65,8,1.0375842971861238
undo,19,19,0,0,0,28,"[0, 29, 9, 28]",4,8,"[4, 6, 10, 11, 14, 20, 22, 27]",107.4074075,122624,913,6,10,7,1.1752193003234799
undo,19,19,0,0,0,4,"[0, 29, 9, 28, 4]",5,7,"[6, 10, 11, 14, 20, 22, 27]",96.22706758,123203,579,6,3,7,1.236441625767462
undo,19,19,0,0,0,11,"[0, 29, 9, 28, 4, 11]",6,1,[14],38.08930017,124011,808,1,0,7,1.194545312509767
undo,19,19,0,0,1,14,"[0, 29, 9, 28, 4, 11, 14]",7,0,[],27.27264634,124621,610,1,0,7,1.3041544533723228
undo,19,19,0,1,1,14,"[0, 29, 9, 28, 4, 11, 14]",7,0,[],27.27264634,125479,858,1,0,7,1.3041544533723228
undo,20,18,0,0,0,0,[0],1,28,"[1, 2, 3, 4, 5, 6, 7, 8, 9, 10, 11, 12, 13, 14, 16, 17, 18, 19, 20, 21, 22, 23, 24, 25, 26, 27, 28, 29]",300,164,-1,3,136,10,0.0
undo,20,18,0,0,0,28,"[0, 28]",2,16,"[1, 3, 5, 7, 8, 9, 12, 13, 14, 16, 20, 23, 24, 25, 26, 27]",236.4311397,1672,1508,2,19,10,1.0
undo,20,18,0,0,0,7,"[0, 28, 7]",3,15,"[1, 3, 5, 8, 9, 12, 13, 14, 16, 20, 23, 24, 25, 26, 27]",214.4084242,2247,575,2,17,10,1.4345180696367563
undo,20,18,0,0,0,25,"[0, 28, 7, 25]",4,13,"[1, 3, 5, 8, 9, 12, 13, 14, 16, 20, 23, 26, 27]",186.6055466,2886,639,2,15,10,1.8896451241781882
undo,20,18,0,0,0,8,"[0, 28, 7, 25, 8]",5,10,"[3, 5, 9, 12, 13, 14, 16, 23, 26, 27]",149.551532,3561,675,2,10,10,1.590467437592877
undo,20,18,0,0,0,3,"[0, 28, 7, 25, 8, 3]",6,6,"[5, 12, 13, 14, 23, 27]",121.4801943,4263,702,1,10,9,1.4587755974793148
undo,20,18,0,0,0,14,"[0, 28, 7, 25, 8, 3, 14]",7,4,"[5, 12, 13, 27]",91.39697637,5188,925,4,0,8,1.8606737724243565
undo,20,18,0,0,1,13,"[0, 28, 7, 25, 8, 3, 14, 13]",8,0,[],72.42331041,6137,949,1,0,8,2.4208916262893254
undo,20,18,0,1,1,13,"[0, 28, 7, 25, 8, 3, 14, 13]",8,0,[],72.42331041,8014,1877,1,0,8,2.4208916262893254
undo,21,3,0,0,0,0,[0],1,29,"[1, 2, 3, 4, 5, 6, 7, 8, 9, 10, 11, 12, 13, 14, 15, 16, 17, 18, 19, 20, 21, 22, 23, 24, 25, 26, 27, 28, 29]",300,154,-1,34,427,10,0.0
undo,21,3,0,0,0,17,"[0, 17]",2,16,"[3, 4, 7, 8, 10, 12, 14, 15, 16, 19, 20, 21, 22, 24, 26, 27]",197.6965299,1895,1741,2,27,9,1.0
undo,21,3,0,0,0,20,"[0, 17, 20]",3,13,"[3, 4, 7, 8, 10, 14, 15, 16, 19, 21, 22, 24, 27]",185.0474192,2451,556,2,24,9,1.0153332121237257
undo,21,3,0,0,0,3,"[0, 17, 20, 3]",4,10,"[4, 7, 8, 10, 14, 15, 16, 19, 21, 24]",164.6513412,4811,2360,2,22,9,1.0819240770773468
undo,21,3,0,0,0,19,"[0, 17, 20, 3, 19]",5,6,"[4, 8, 10, 14, 21, 24]",127.3150318,5678,867,2,11,9,1.1701070532957258
undo,21,3,0,0,0,21,"[0, 17, 20, 3, 19, 21]",6,5,"[4, 8, 10, 14, 24]",115.1084762,6196,518,2,6,9,1.202395500952127
undo,21,3,0,0,0,14,"[0, 17, 20, 3, 19, 21, 14]",7,4,"[4, 8, 10, 24]",88.20122806,6938,742,2,2,9,1.6456130302761207
undo,21,3,0,0,1,10,"[0, 17, 20, 3, 19, 21, 14, 10]",8,0,[],42.74795535,7697,759,1,0,8,1.6337827075255185
undo,21,3,0,1,1,10,"[0, 17, 20, 3, 19, 21, 14, 10]",8,0,[],42.74795535,8664,967,1,0,8,1.6337827075255185
undo,22,22,0,0,0,0,[0],1,29,"[1, 2, 3, 4, 5, 6, 7, 8, 9, 10, 11, 12, 13, 14, 15, 16, 17, 18, 19, 20, 21, 22, 23, 24, 25, 26, 27, 28, 29]",300,149,-1,31,704,9,0.0
undo,22,22,0,0,0,29,"[0, 29]",2,22,"[1, 3, 5, 6, 7, 8, 9, 11, 13, 14, 15, 16, 17, 19, 20, 21, 22, 23, 24, 25, 27, 28]",222.9935068,1453,1304,11,235,9,1.0
undo,22,22,0,0,0,19,"[0, 29, 19]",3,18,"[1, 3, 6, 7, 8, 9, 13, 14, 15, 16, 17, 20, 21, 22, 23, 24, 25, 28]",207.9602104,1971,518,11,172,9,1.1559285443414686
undo,22,22,0,0,0,9,"[0, 29, 19, 9]",4,16,"[1, 3, 6, 7, 8, 13, 14, 15, 16, 17, 20, 21, 22, 24, 25, 28]",187.5641323,3000,1029,7,84,9,1.2555028175473422
undo,22,22,0,0,0,14,"[0, 29, 19, 9, 14]",5,11,"[1, 3, 6, 7, 13, 16, 17, 20, 21, 24, 28]",144.5176458,3869,869,4,28,9,1.200251311198461
undo,22,22,0,0,0,7,"[0, 29, 19, 9, 14, 7]",6,10,"[1, 3, 6, 13, 16, 17, 20, 21, 24, 28]",131.479241,4394,525,4,18,9,1.3399585036197592
undo,22,22,0,0,0,17,"[0, 29, 19, 9, 14, 7, 17]",7,5,"[1, 3, 20, 21, 24]",89.86193693,5250,856,3,3,9,1.3297480627305363
undo,22,22,0,0,0,24,"[0, 29, 19, 9, 14, 7, 17, 24]",8,1,[21],36.2615638,6027,777,1,0,9,1.9662272266856244
undo,22,22,0,0,1,21,"[0, 29, 19, 9, 14, 7, 17, 24, 21]",9,0,[],9.05862278,7583,1556,1,0,9,1.803648247715218
undo,22,22,0,1,1,21,"[0, 29, 19, 9, 14, 7, 17, 24, 21]",9,0,[],9.05862278,8129,546,1,0,9,1.803648247715218
basic,23,21,0,0,0,0,[0],1,29,"[1, 2, 3, 4, 5, 6, 7, 8, 9, 10, 11, 12, 13, 14, 15, 16, 17, 18, 19, 20, 21, 22, 23, 24, 25, 26, 27, 28, 29]",300,233,-1,84,830,9,0.0
basic,23,21,0,0,0,18,"[0, 18]",2,28,"[1, 2, 3, 4, 5, 6, 7, 8, 9, 10, 11, 12, 13, 14, 15, 16, 17, 19, 20, 21, 22, 23, 24, 25, 26, 27, 28, 29]",240.923778,4029,3796,44,305,9,1.0
basic,23,21,0,0,0,22,"[0, 18, 22]",3,27,"[1, 2, 3, 4, 5, 6, 7, 8, 9, 10, 11, 12, 13, 14, 15, 16, 17, 19, 20, 21, 23, 24, 25, 26, 27, 28, 29]",214.5230205,4907,878,13,86,9,1.0395459700082075
basic,23,21,0,0,0,29,"[0, 18, 22, 29]",4,20,"[2, 4, 6, 7, 8, 9, 10, 11, 12, 14, 15, 16, 17, 20, 21, 23, 24, 25, 26, 27]",184.2575286,6089,1182,13,48,9,1.3662220122820667
basic,23,21,0,0,0,25,"[0, 18, 22, 29, 25]",5,13,"[4, 6, 8, 9, 11, 12, 14, 15, 16, 17, 20, 21, 23]",139.0358524,7058,969,11,18,9,2.6909708046730523
basic,23,21,0,0,0,23,"[0, 18, 22, 29, 25, 23]",6,7,"[4, 8, 14, 15, 16, 17, 21]",95.71149432,8178,1120,6,5,9,2.0630993046242816
basic,23,21,0,0,0,4,"[0, 18, 22, 29, 25, 23, 4]",7,3,"[14, 16, 21]",59.58671058,9011,833,1,2,9,1.8796059926583566
basic,23,21,0,0,0,14,"[0, 18, 22, 29, 25, 23, 4, 14]",8,1,[21],45.44457496,9973,962,1,0,9,2.2223652600054735
basic,23,21,0,0,1,21,"[0, 18, 22, 29, 25, 23, 4, 14, 21]",9,0,[],19.83207801,10979,1006,1,0,9,3.116827224049892
basic,23,21,0,1,1,21,"[0, 18, 22, 29, 25, 23, 4, 14, 21]",9,0,[],19.83207801,11782,803,1,0,9,3.116827224049892
basic,24,18,0,0,0,0,[0],1,28,"[1, 2, 3, 4, 5, 6, 7, 8, 9, 10, 11, 12, 13, 14, 16, 17, 18, 19, 20, 21, 22, 23, 24, 25, 26, 27, 28, 29]",300,164,-1,3,136,10,0.0
basic,24,18,0,0,0,28,"[0, 28]",2,16,"[1, 3, 5, 7, 8, 9, 12, 13, 14, 16, 20, 23, 24, 25, 26, 27]",236.4311397,1844,1680,2,19,10,1.0
basic,24,18,0,0,0,7,"[0, 28, 7]",3,15,"[1, 3, 5, 8, 9, 12, 13, 14, 16, 20, 23, 24, 25, 26, 27]",214.4084242,2487,643,2,17,10,1.4345180696367563
basic,24,18,0,0,0,25,"[0, 28, 7, 25]",4,13,"[1, 3, 5, 8, 9, 12, 13, 14, 16, 20, 23, 26, 27]",186.6055466,3389,902,2,15,10,1.8896451241781882
basic,24,18,0,0,0,8,"[0, 28, 7, 25, 8]",5,10,"[3, 5, 9, 12, 13, 14, 16, 23, 26, 27]",149.551532,4284,895,2,10,10,1.590467437592877
basic,24,18,0,0,0,13,"[0, 28, 7, 25, 8, 13]",6,9,"[3, 5, 9, 12, 14, 16, 23, 26, 27]",128.4565089,4860,576,2,5,10,1.8248274983549797
basic,24,18,0,0,0,14,"[0, 28, 7, 25, 8, 13, 14]",7,7,"[3, 5, 9, 12, 23, 26, 27]",109.4828429,5545,685,2,3,10,1.6993534956692746
basic,24,18,0,0,0,3,"[0, 28, 7, 25, 8, 13, 14, 3]",8,3,"[5, 12, 27]",79.39962499,6336,791,2,1,10,1.802637206541468
basic,24,18,0,0,0,5,"[0, 28, 7, 25, 8, 13, 14, 3, 5]",9,1,[12],21.21887216,7404,1068,1,0,10,1.559774889743805
basic,24,18,0,0,1,12,"[0, 28, 7, 25, 8, 13, 14, 3, 5, 12]",10,0,[],9.817117911,9558,2154,1,0,10,1.563993037384447
basic,24,18,0,1,1,12,"[0, 28, 7, 25, 8, 13, 14, 3, 5, 12]",10,0,[],9.817117911,10380,822,1,0,10,1.563993037384447
basic,25,9,0,0,0,0,[0],1,27,"[1, 3, 4, 5, 6, 7, 8, 9, 10, 11, 13, 14, 15, 16, 17, 18, 19, 20, 21, 22, 23, 24, 25, 26, 27, 28, 29]",300,153,-1,2,182,10,0.0
basic,25,9,0,0,0,23,"[0, 23]",2,26,"[1, 3, 4, 5, 6, 7, 8, 9, 10, 11, 13, 14, 15, 16, 17, 18, 19, 20, 21, 22, 24, 25, 26, 27, 28, 29]",240.4600974,2086,1933,7,160,9,1.0
basic,25,9,0,0,0,8,"[0, 23, 8]",3,23,"[1, 3, 4, 5, 6, 7, 9, 10, 11, 13, 15, 16, 17, 18, 19, 20, 21, 22, 24, 25, 26, 27, 28]",218.9891869,2887,801,3,53,9,1.2701427074648883
basic,25,9,0,0,0,28,"[0, 23, 8, 28]",4,22,"[1, 3, 4, 5, 6, 7, 9, 10, 11, 13, 15, 16, 17, 18, 19, 20, 21, 22, 24, 25, 26, 27]",208.172533,3521,634,3,39,9,1.2362921532284137
basic,25,9,0,0,0,21,"[0, 23, 8, 28, 21]",5,12,"[9, 10, 15, 16, 17, 18, 19, 20, 22, 25, 26, 27]",155.172533,4479,958,5,17,8,1.2218355946985338
basic,25,9,0,0,0,20,"[0, 23, 8, 28, 21, 20]",6,9,"[9, 10, 15, 16, 17, 18, 22, 25, 26]",143.0894871,5237,758,4,6,8,1.238938817164562
basic,25,9,0,0,0,10,"[0, 23, 8, 28, 21, 20, 10]",7,1,[25],60.62737455,8817,3580,1,0,8,4.405714054831025
basic,25,9,0,0,1,25,"[0, 23, 8, 28, 21, 20, 10, 25]",8,0,[],20.77765686,9592,775,1,0,8,11.59407673597347
basic,25,9,0,1,1,25,"[0, 23, 8, 28, 21, 20, 10, 25]",8,0,[],20.77765686,10264,672,1,0,8,11.59407673597347
basic,26,16,0,0,0,0,[0],1,29,"[1, 2, 3, 4, 5, 6, 7, 8, 9, 10, 11, 12, 13, 14, 15, 16, 17, 18, 19, 20, 21, 22, 23, 24, 25, 26, 27, 28, 29]",300,152,-1,13,161,9,0.0
basic,26,16,0,0,0,17,"[0, 17]",2,27,"[1, 2, 3, 4, 5, 7, 8, 9, 10, 11, 12, 13, 14, 15, 16, 18, 19, 20, 21, 22, 23, 24, 25, 26, 27, 28, 29]",241.3058776,2076,1924,2,58,9,1.0
basic,26,16,0,0,0,16,"[0, 17, 16]",3,26,"[1, 2, 3, 4, 5, 7, 8, 9, 10, 11, 12, 13, 14, 15, 18, 19, 20, 21, 22, 23, 24, 25, 26, 27, 28, 29]",212.9862731,2885,809,2,52,9,1.0529535521792848
basic,26,16,0,0,0,8,"[0, 17, 16, 8]",4,19,"[2, 3, 4, 5, 9, 12, 13, 14, 15, 19, 20, 21, 22, 23, 25, 26, 27, 28, 29]",164.6127266,3696,811,2,38,9,1.0915134501573105
basic,26,16,0,0,0,20,"[0, 17, 16, 8, 20]",5,10,"[3, 4, 5, 9, 12, 13, 15, 19, 21, 25]",106.8372993,4577,881,1,15,9,1.067523143001942
basic,26,16,0,0,0,25,"[0, 17, 16, 8, 20, 25]",6,7,"[3, 4, 5, 9, 12, 13, 15]",94.18818869,5143,566,1,9,9,1.1170093326933646
basic,26,16,0,0,0,9,"[0, 17, 16, 8, 20, 25, 9]",7,5,"[3, 4, 5, 13, 15]",81.38194021,5828,685,1,4,9,1.1095076562662525
basic,26,16,0,0,1,5,"[0, 17, 16, 8, 20, 25, 9, 5]",8,0,[],29.37232572,6726,898,1,0,8,1.4309113721471163
basic,26,16,0,1,1,5,"[0, 17, 16, 8, 20, 25, 9, 5]",8,0,[],29.37232572,7463,737,1,0,8,1.4309113721471163
basic,27,31,0,0,0,0,[0],1,27,"[1, 3, 4, 5, 6, 7, 8, 10, 11, 12, 13, 14, 15, 16, 17, 18, 19, 20, 21, 22, 23, 24, 25, 26, 27, 28, 29]",300,164,-1,2,87,10,0.0
basic,27,31,0,0,0,8,"[0, 8]",2,26,"[1, 3, 4, 5, 6, 7, 10, 11, 12, 13, 14, 15, 16, 17, 18, 19, 20, 21, 22, 23, 24, 25, 26, 27, 28, 29]",265.2149457,2559,2395,14,226,9,1.0
basic,27,31,0,0,0,27,"[0, 8, 27]",3,25,"[1, 3, 4, 5, 6, 7, 10, 11, 12, 13, 14, 15, 16, 17, 18, 19, 20, 21, 22, 23, 24, 25, 26, 28, 29]",254.1695847,3091,532,9,146,9,1.1317014404638044
basic,27,31,0,0,0,14,"[0, 8, 27, 14]",4,19,"[1, 5, 7, 10, 11, 12, 13, 15, 16, 17, 18, 19, 20, 21, 22, 24, 25, 28, 29]",225.9915791,3927,836,3,43,9,2.047903788408657
basic,27,31,0,0,0,13,"[0, 8, 27, 14, 13]",5,7,"[7, 10, 15, 18, 21, 24, 29]",137.6004031,5284,1357,6,0,8,1.3064071379156368
basic,27,31,0,0,0,10,"[0, 8, 27, 14, 13, 10]",6,2,"[21, 24]",62.17494319,6357,1073,2,0,8,1.1986930783968504
basic,27,31,0,0,0,24,"[0, 8, 27, 14, 13, 10, 24]",7,1,[21],42.75845535,6934,577,1,0,8,1.1911756465484502
basic,27,31,0,0,1,21,"[0, 8, 27, 14, 13, 10, 24, 21]",8,0,[],21.94980331,7523,589,1,0,8,1.33207729733712
basic,27,31,0,1,1,21,"[0, 8, 27, 14, 13, 10, 24, 21]",8,0,[],21.94980331,8531,1008,1,0,8,1.33207729733712
basic,28,1,0,0,0,0,[0],1,26,"[1, 2, 4, 5, 7, 8, 9, 10, 11, 12, 13, 14, 15, 16, 17, 18, 19, 20, 21, 22, 23, 24, 25, 26, 28, 29]",300,158,-1,6,74,7,0.0
basic,28,1,0,0,0,24,"[0, 24]",2,8,"[5, 7, 8, 14, 16, 19, 20, 26]",185.4137879,3847,3689,9,13,5,1.0
basic,28,1,0,0,0,26,"[0, 24, 26]",3,6,"[5, 8, 14, 16, 19, 20]",152.1722476,4552,705,7,4,5,1.502125301442057
basic,28,1,0,0,0,19,"[0, 24, 26, 19]",4,4,"[5, 8, 16, 20]",113.5458318,5870,1318,4,0,5,1.5438989781695114
basic,28,1,0,0,1,8,"[0, 24, 26, 19, 8]",5,0,[],60.39510274,8178,2308,1,0,5,2.44494793122449
basic,28,1,0,1,1,8,"[0, 24, 26, 19, 8]",5,0,[],60.39510274,9647,1469,1,0,5,2.44494793122449
basic,29,45,0,0,0,0,[0],1,24,"[1, 2, 3, 4, 5, 6, 7, 9, 10, 11, 12, 14, 15, 16, 17, 19, 20, 21, 22, 23, 24, 25, 27, 29]",300,147,-1,6,248,10,0.0
basic,29,45,0,0,0,17,"[0, 17]",2,22,"[1, 2, 3, 4, 5, 6, 7, 9, 10, 11, 12, 14, 15, 16, 19, 20, 21, 22, 23, 24, 25, 29]",235.867325,1954,1807,1,34,10,1.0
basic,29,45,0,0,0,24,"[0, 17, 24]",3,20,"[1, 2, 3, 4, 5, 6, 7, 9, 10, 11, 12, 14, 15, 16, 19, 20, 21, 22, 23, 29]",193.8078433,2661,707,1,33,10,1.0309432256229287
basic,29,45,0,0,0,7,"[0, 17, 24, 7]",4,18,"[1, 2, 3, 4, 5, 6, 9, 10, 12, 14, 15, 16, 19, 20, 21, 22, 23, 29]",159.3985423,3477,816,1,32,10,1.059763151913087
basic,29,45,0,0,0,2,"[0, 17, 24, 7, 2]",5,12,"[3, 4, 6, 10, 12, 14, 16, 19, 20, 22, 23, 29]",121.3853866,4252,775,1,23,10,1.0656581932115423
basic,29,45,0,0,0,3,"[0, 17, 24, 7, 2, 3]",6,8,"[6, 10, 12, 14, 16, 20, 22, 29]",96.06740884,4924,672,1,13,10,1.1368250049574795
basic,29,45,0,0,0,29,"[0, 17, 24, 7, 2, 3, 29]",7,5,"[6, 10, 12, 20, 22]",76.06740884,5514,590,1,5,10,1.390376182346372
basic,29,45,0,0,0,10,"[0, 17, 24, 7, 2, 3, 29, 10]",8,2,"[6, 12]",54.52674961,6204,690,1,1,10,1.6682270697663164
basic,29,45,0,0,0,6,"[0, 17, 24, 7, 2, 3, 29, 10, 6]",9,1,[12],28.27794012,6884,680,1,0,10,1.5776211572942243
basic,29,45,0,0,1,12,"[0, 17, 24, 7, 2, 3, 29, 10, 6, 12]",10,0,[],8.15332832,7811,927,1,0,10,1.536035114105263
basic,29,45,0,1,1,12,"[0, 17, 24, 7, 2, 3, 29, 10, 6, 12]",10,0,[],8.15332832,8830,1019,1,0,10,1.536035114105263
basic,30,37,0,0,0,0,[0],1,29,"[1, 2, 3, 4, 5, 6, 7, 8, 9, 10, 11, 12, 13, 14, 15, 16, 17, 18, 19, 20, 21, 22, 23, 24, 25, 26, 27, 28, 29]",300,179,-1,6,168,10,0.0
basic,30,37,0,0,0,18,"[0, 18]",2,19,"[1, 2, 4, 6, 7, 9, 10, 12, 14, 15, 17, 19, 20, 21, 22, 23, 26, 28, 29]",202.4090168,2275,2096,6,89,10,1.0
basic,30,37,0,0,0,7,"[0, 18, 7]",3,12,"[1, 2, 4, 9, 15, 17, 19, 20, 21, 22, 26, 29]",175.2428614,3066,791,6,53,10,1.0413073512834488
basic,30,37,0,0,0,22,"[0, 18, 7, 22]",4,8,"[1, 2, 4, 15, 19, 20, 21, 26]",125.2428614,3834,768,6,29,10,1.0730792320325544
basic,30,37,0,0,0,4,"[0, 18, 7, 22, 4]",5,7,"[1, 2, 15, 19, 20, 21, 26]",100.2428614,4519,685,4,16,10,1.2290245562206235
basic,30,37,0,0,0,2,"[0, 18, 7, 22, 4, 2]",6,5,"[1, 15, 19, 20, 21]",88.84110714,5055,536,4,7,10,1.3968113858365216
basic,30,37,0,0,0,1,"[0, 18, 7, 22, 4, 2, 1]",7,4,"[15, 19, 20, 21]",71.63645661,5775,720,4,3,10,1.4424239294761476
basic,30,37,0,0,0,20,"[0, 18, 7, 22, 4, 2, 1, 20]",8,3,"[15, 19, 21]",37.40197107,6814,1039,2,1,10,1.7518607796010042
basic,30,37,0,0,0,15,"[0, 18, 7, 22, 4, 2, 1, 20, 15]",9,1,[21],20.40197107,7820,1006,1,0,10,1.680305745239285
basic,30,37,0,0,1,21,"[0, 18, 7, 22, 4, 2, 1, 20, 15, 21]",10,0,[],5.401971073,8658,838,1,0,10,1.8982635624510946
basic,30,37,0,1,1,21,"[0, 18, 7, 22, 4, 2, 1, 20, 15, 21]",10,0,[],5.401971073,9746,1088,1,0,10,1.8982635624510946
basic,31,39,0,0,0,0,[0],1,28,"[1, 2, 3, 4, 5, 6, 7, 9, 10, 11, 12, 13, 14, 15, 16, 17, 18, 19, 20, 21, 22, 23, 24, 25, 26, 27, 28, 29]",300,147,-1,1,30,10,0.0
basic,31,39,0,0,0,14,"[0, 14]",2,26,"[1, 2, 3, 4, 5, 6, 7, 9, 10, 12, 13, 15, 16, 17, 18, 19, 20, 21, 22, 23, 24, 25, 26, 27, 28, 29]",286.9615952,2452,2305,1,22,10,1.0
basic,31,39,0,0,0,29,"[0, 14, 29]",3,23,"[1, 2, 3, 4, 5, 6, 7, 9, 10, 12, 13, 15, 16, 17, 18, 19, 21, 22, 23, 24, 25, 26, 28]",218.9321898,3934,1482,1,21,10,1.4237768813412561
basic,31,39,0,0,0,12,"[0, 14, 29, 12]",4,16,"[1, 2, 4, 5, 7, 9, 10, 13, 15, 16, 18, 19, 22, 23, 24, 26]",158.3929463,4755,821,1,11,10,1.2085522586932163
basic,31,39,0,0,0,1,"[0, 14, 29, 12, 1]",5,8,"[2, 7, 9, 10, 15, 22, 24, 26]",102.2502709,5630,875,6,4,8,1.1600868676053462
basic,31,39,0,0,0,24,"[0, 14, 29, 12, 1, 24]",6,2,"[2, 9]",53.48552956,6417,787,2,0,8,1.1606240437607087
basic,31,39,0,0,0,9,"[0, 14, 29, 12, 1, 24, 9]",7,1,[2],34.88445432,6994,577,1,0,8,1.1702286200190222
basic,31,39,0,0,1,2,"[0, 14, 29, 12, 1, 24, 9, 2]",8,0,[],20.7423187,7808,814,1,0,8,1.2706006831234917
basic,31,39,0,1,1,2,"[0, 14, 29, 12, 1, 24, 9, 2]",8,0,[],20.7423187,9115,1307,1,0,8,1.2706006831234917
basic,32,35,0,0,0,0,[0],1,29,"[1, 2, 3, 4, 5, 6, 7, 8, 9, 10, 11, 12, 13, 14, 15, 16, 17, 18, 19, 20, 21, 22, 23, 24, 25, 26, 27, 28, 29]",300,149,-1,5,236,11,0.0
basic,32,35,0,0,0,24,"[0, 24]",2,27,"[1, 2, 4, 5, 6, 7, 8, 9, 10, 11, 12, 13, 14, 15, 16, 17, 18, 19, 20, 21, 22, 23, 25, 26, 27, 28, 29]",268.9838752,1573,1424,49,512,10,1.0
basic,32,35,0,0,0,17,"[0, 24, 17]",3,26,"[1, 2, 4, 5, 6, 7, 8, 9, 10, 11, 12, 13, 14, 15, 16, 18, 19, 20, 21, 22, 23, 25, 26, 27, 28, 29]",257.2791753,2211,638,33,238,10,1.0771477201815276
basic,32,35,0,0,0,1,"[0, 24, 17, 1]",4,25,"[2, 4, 5, 6, 7, 8, 9, 10, 11, 12, 13, 14, 15, 16, 18, 19, 20, 21, 22, 23, 25, 26, 27, 28, 29]",241.4677869,2785,574,26,151,10,1.2244804141479215
basic,32,35,0,0,0,15,"[0, 24, 17, 1, 15]",5,23,"[2, 4, 5, 6, 7, 8, 9, 10, 11, 12, 14, 16, 18, 19, 20, 21, 22, 23, 25, 26, 27, 28, 29]",218.6204676,3643,858,26,78,10,1.4642196672428094
basic,32,35,0,0,0,23,"[0, 24, 17, 1, 15, 23]",6,11,"[4, 5, 6, 9, 18, 19, 25, 26, 27, 28, 29]",158.1804147,5140,1497,15,12,10,1.3338903684702363
basic,32,35,0,0,0,9,"[0, 24, 17, 1, 15, 23, 9]",7,6,"[5, 6, 18, 19, 25, 27]",120.5373542,5909,769,6,1,10,1.5964380615155294
basic,32,35,0,0,0,18,"[0, 24, 17, 1, 15, 23, 9, 18]",8,3,"[5, 6, 25]",100.5123698,6475,566,2,1,10,1.5508488101942703
basic,32,35,0,0,0,25,"[0, 24, 17, 1, 15, 23, 9, 18, 25]",9,1,[6],66.67452121,7382,907,1,0,10,1.4408023801578587
basic,32,35,0,0,1,6,"[0, 24, 17, 1, 15, 23, 9, 18, 25, 6]",10,0,[],42.65369691,8074,692,1,0,10,1.701781671832088
basic,32,35,0,1,1,6,"[0, 24, 17, 1, 15, 23, 9, 18, 25, 6]",10,0,[],42.65369691,9046,972,1,0,10,1.701781671832088
basic,33,2,0,0,0,0,[0],1,23,"[1, 2, 4, 5, 6, 7, 8, 9, 12, 13, 15, 16, 17, 18, 19, 20, 22, 23, 25, 26, 27, 28, 29]",300,147,-1,70,620,10,0.0
basic,33,2,0,0,0,19,"[0, 19]",2,22,"[1, 2, 4, 5, 6, 7, 8, 9, 12, 13, 15, 16, 17, 18, 20, 22, 23, 25, 26, 27, 28, 29]",210.306076,1744,1597,67,431,10,1.0
basic,33,2,0,0,0,12,"[0, 19, 12]",3,17,"[1, 4, 5, 6, 7, 13, 15, 16, 17, 18, 20, 22, 25, 26, 27, 28, 29]",174.2921898,3304,1560,66,298,10,1.1107635036313153
basic,33,2,0,0,0,5,"[0, 19, 12, 5]",4,11,"[1, 6, 7, 13, 15, 16, 18, 22, 25, 26, 29]",144.7625437,4059,755,38,136,10,1.0968174771581647
basic,33,2,0,0,0,22,"[0, 19, 12, 5, 22]",5,8,"[1, 6, 7, 13, 15, 18, 26, 29]",131.9562952,4588,529,20,63,10,1.0889910507461968
basic,33,2,0,0,0,13,"[0, 19, 12, 5, 22, 13]",6,7,"[1, 6, 7, 15, 18, 26, 29]",117.0902265,5277,689,19,20,10,1.236526217328057
basic,33,2,0,0,0,18,"[0, 19, 12, 5, 22, 13, 18]",7,4,"[7, 15, 26, 29]",81.91921567,6177,900,10,3,10,1.2128708213409936
basic,33,2,0,0,0,7,"[0, 19, 12, 5, 22, 13, 18, 7]",8,3,"[15, 26, 29]",71.62358553,6776,599,5,0,10,1.2019811287894737
basic,33,2,0,0,0,26,"[0, 19, 12, 5, 22, 13, 18, 7, 26]",9,2,"[15, 29]",48.82007703,8005,1229,2,0,10,1.1883593342191134
basic,33,2,0,0,1,15,"[0, 19, 12, 5, 22, 13, 18, 7, 26, 15]",10,0,[],24.61264015,8712,707,1,0,10,1.4619750353663825
basic,33,2,0,1,1,15,"[0, 19, 12, 5, 22, 13, 18, 7, 26, 15]",10,0,[],24.61264015,9963,1251,1,0,10,1.4619750353663825
basic,34,19,0,0,0,0,[0],1,29,"[1, 2, 3, 4, 5, 6, 7, 8, 9, 10, 11, 12, 13, 14, 15, 16, 17, 18, 19, 20, 21, 22, 23, 24, 25, 26, 27, 28, 29]",300,147,-1,12,149,8,0.0
basic,34,19,0,0,0,28,"[0, 28]",2,10,"[4, 6, 9, 10, 11, 14, 20, 22, 24, 27]",136.1219966,3425,3278,2,14,7,1.0
basic,34,19,0,0,0,4,"[0, 28, 4]",3,9,"[6, 9, 10, 11, 14, 20, 22, 24, 27]",124.9416567,3925,500,2,10,7,1.0622089009735736
basic,34,19,0,0,0,14,"[0, 28, 4, 14]",4,5,"[6, 11, 20, 22, 24]",74.93165771,4661,736,2,3,7,1.0762539106237072
basic,34,19,0,0,0,11,"[0, 28, 4, 14, 11]",5,3,"[20, 22, 24]",64.11500388,5340,679,2,1,7,1.0758449982739315
basic,34,19,0,0,0,22,"[0, 28, 4, 14, 11, 22]",6,1,[20],16.11500388,6262,922,1,0,7,1.3325584572202729
basic,34,19,0,0,1,20,"[0, 28, 4, 14, 11, 22, 20]",7,0,[],2.962057443,7022,760,1,0,7,1.3138642342281899
basic,34,19,0,1,1,20,"[0, 28, 4, 14, 11, 22, 20]",7,0,[],2.962057443,8415,1393,1,0,7,1.3138642342281899
basic,35,22,0,0,0,0,[0],1,29,"[1, 2, 3, 4, 5, 6, 7, 8, 9, 10, 11, 12, 13, 14, 15, 16, 17, 18, 19, 20, 21, 22, 23, 24, 25, 26, 27, 28, 29]",300,155,-1,31,704,9,0.0
basic,35,22,0,0,0,16,"[0, 16]",2,21,"[1, 3, 6, 7, 8, 9, 11, 13, 14, 15, 17, 18, 19, 20, 21, 22, 24, 25, 27, 28, 29]",218.605897,2216,2061,17,147,9,1.0
basic,35,22,0,0,0,6,"[0, 16, 6]",3,16,"[1, 3, 7, 9, 13, 14, 15, 17, 19, 20, 21, 22, 24, 25, 28, 29]",184.1675463,2877,661,5,77,9,1.3071109638102874
basic,35,22,0,0,0,9,"[0, 16, 6, 9]",4,15,"[1, 3, 7, 13, 14, 15, 17, 19, 20, 21, 22, 24, 25, 28, 29]",157.5404924,3583,706,4,33,9,1.5907585082674378
basic,35,22,0,0,0,14,"[0, 16, 6, 9, 14]",5,7,"[7, 17, 19, 21, 24, 28, 29]",114.4940059,5217,1634,5,10,8,1.432019818578866
basic,35,22,0,0,0,7,"[0, 16, 6, 9, 14, 7]",6,6,"[17, 19, 21, 24, 28, 29]",101.4556011,5772,555,5,2,8,1.5786853633392939
basic,35,22,0,0,0,19,"[0, 16, 6, 9, 14, 7, 19]",7,1,[29],55.18465988,6793,1021,1,0,8,3.0746380556412434
basic,35,22,0,0,1,29,"[0, 16, 6, 9, 14, 7, 19, 29]",8,0,[],40.1513635,7359,566,1,0,8,3.374373063771866
basic,35,22,0,1,1,29,"[0, 16, 6, 9, 14, 7, 19, 29]",8,0,[],40.1513635,9097,1738,1,0,8,3.374373063771866
basic,36,32,0,0,0,0,[0],1,29,"[1, 2, 3, 4, 5, 6, 7, 8, 9, 10, 11, 12, 13, 14, 15, 16, 17, 18, 19, 20, 21, 22, 23, 24, 25, 26, 27, 28, 29]",300,180,-1,17,359,10,0.0
basic,36,32,0,0,0,19,"[0, 19]",2,28,"[1, 2, 3, 4, 5, 6, 7, 8, 9, 10, 11, 12, 13, 14, 15, 16, 17, 18, 20, 21, 22, 23, 24, 25, 26, 27, 28, 29]",283.5075775,137060,136880,16,294,10,1.0
basic,36,32,0,0,0,13,"[0, 19, 13]",3,24,"[2, 3, 4, 5, 6, 8, 9, 10, 11, 12, 14, 15, 16, 17, 18, 20, 21, 22, 23, 24, 25, 26, 27, 28]",260.3127505,137787,727,14,227,10,1.0172874229878615
basic,36,32,0,0,0,15,"[0, 19, 13, 15]",4,18,"[2, 3, 5, 8, 9, 10, 11, 12, 16, 17, 20, 22, 23, 24, 25, 26, 27, 28]",177.4393531,138934,1147,9,116,10,1.435447391509833
basic,36,32,0,0,0,28,"[0, 19, 13, 15, 28]",5,17,"[2, 3, 5, 8, 9, 10, 11, 12, 16, 17, 20, 22, 23, 24, 25, 26, 27]",166.0375988,139457,523,9,70,10,1.3843701324937985
basic,36,32,0,0,0,12,"[0, 19, 13, 15, 28, 12]",6,14,"[2, 3, 5, 8, 9, 10, 11, 16, 17, 20, 22, 24, 26, 27]",147.0639329,140144,687,6,35,10,1.358372254952329
basic,36,32,0,0,0,16,"[0, 19, 13, 15, 28, 12, 16]",7,13,"[2, 3, 5, 8, 9, 10, 11, 17, 20, 22, 24, 26, 27]",131.411457,140791,647,5,15,10,1.4356932930709845
basic,36,32,0,0,0,22,"[0, 19, 13, 15, 28, 12, 16, 22]",8,6,"[2, 8, 9, 17, 20, 27]",97.57360838,141768,977,3,5,10,1.4335226411545752
basic,36,32,0,0,0,9,"[0, 19, 13, 15, 28, 12, 16, 22, 9]",9,3,"[2, 8, 20]",75.37000507,142449,681,3,0,10,1.4837166378374758
basic,36,32,0,0,1,8,"[0, 19, 13, 15, 28, 12, 16, 22, 9, 8]",10,0,[],30.24794838,143418,969,1,0,10,1.3767698817641267
basic,36,32,0,1,1,8,"[0, 19, 13, 15, 28, 12, 16, 22, 9, 8]",10,0,[],30.24794838,144228,810,1,0,10,1.3767698817641267
basic,37,10,0,0,0,0,[0],1,29,"[1, 2, 3, 4, 5, 6, 7, 8, 9, 10, 11, 12, 13, 14, 15, 16, 17, 18, 19, 20, 21, 22, 23, 24, 25, 26, 27, 28, 29]",300,154,-1,1,100,9,0.0
basic,37,10,0,0,0,10,"[0, 10]",2,27,"[1, 2, 3, 4, 5, 6, 7, 8, 9, 11, 12, 13, 14, 15, 17, 18, 19, 20, 21, 22, 23, 24, 25, 26, 27, 28, 29]",211.2475352,2642,2488,5,73,8,1.0
basic,37,10,0,0,0,18,"[0, 10, 18]",3,24,"[1, 2, 3, 5, 6, 7, 8, 9, 11, 12, 13, 14, 15, 17, 19, 20, 21, 23, 24, 25, 26, 27, 28, 29]",197.7939112,3275,633,5,49,8,1.0012508773359339
basic,37,10,0,0,0,12,"[0, 10, 18, 12]",4,9,"[1, 3, 5, 6, 21, 23, 25, 27, 28]",122.2095213,4060,785,7,7,6,1.0559409376293325
basic,37,10,0,0,0,3,"[0, 10, 18, 12, 3]",5,4,"[21, 23, 25, 28]",86.36262462,4943,883,4,0,6,1.161312827867336
basic,37,10,0,0,1,28,"[0, 10, 18, 12, 3, 28]",6,0,[],23.29916452,5750,807,1,0,6,1.8736678041163104
basic,37,10,0,1,1,28,"[0, 10, 18, 12, 3, 28]",6,0,[],23.29916452,6396,646,1,0,6,1.8736678041163104
basic,38,23,0,0,0,0,[0],1,28,"[1, 2, 3, 4, 5, 6, 7, 8, 9, 10, 11, 12, 13, 14, 15, 16, 17, 18, 19, 20, 21, 22, 23, 25, 26, 27, 28, 29]",300,164,-1,76,2626,10,0.0
basic,38,23,0,0,0,22,"[0, 22]",2,24,"[1, 2, 3, 5, 6, 7, 8, 9, 10, 11, 12, 13, 14, 15, 17, 18, 19, 20, 21, 23, 25, 26, 27, 29]",210.5013967,140470,140306,15,1362,10,1.0
basic,38,23,0,0,0,13,"[0, 22, 13]",3,14,"[1, 2, 5, 6, 7, 8, 9, 10, 12, 14, 18, 21, 27, 29]",168.3113504,141111,641,14,522,10,1.1898173563652046
basic,38,23,0,0,0,12,"[0, 22, 13, 12]",4,11,"[1, 2, 6, 7, 9, 10, 14, 18, 21, 27, 29]",156.2283045,141743,632,12,166,10,1.1727968780218219
basic,38,23,0,0,0,2,"[0, 22, 13, 12, 2]",5,9,"[1, 6, 7, 9, 10, 14, 18, 27, 29]",142.3358605,142453,710,4,38,10,1.1553975034701014
basic,38,23,0,0,0,6,"[0, 22, 13, 12, 2, 6]",6,7,"[7, 9, 10, 14, 18, 27, 29]",123.8967716,143159,706,2,8,10,1.1721216207100664
basic,38,23,0,0,0,14,"[0, 22, 13, 12, 2, 6, 14]",7,4,"[7, 9, 27, 29]",95.03503218,143917,758,1,3,10,1.454786904915297
basic,38,23,0,0,0,9,"[0, 22, 13, 12, 2, 6, 14, 9]",8,3,"[7, 27, 29]",84.59472567,144596,679,1,2,10,1.6487404532748855
basic,38,23,0,0,0,29,"[0, 22, 13, 12, 2, 6, 14, 9, 29]",9,1,[7],32.97108768,145623,1027,1,0,10,1.731619076574978
basic,38,23,0,0,1,7,"[0, 22, 13, 12, 2, 6, 14, 9, 29, 7]",10,0,[],8.887898519,146407,784,1,0,10,1.7308488254486545
basic,38,23,0,1,1,7,"[0, 22, 13, 12, 2, 6, 14, 9, 29, 7]",10,0,[],8.887898519,147097,690,1,0,10,1.7308488254486545
basic,39,24,0,0,0,0,[0],1,29,"[1, 2, 3, 4, 5, 6, 7, 8, 9, 10, 11, 12, 13, 14, 15, 16, 17, 18, 19, 20, 21, 22, 23, 24, 25, 26, 27, 28, 29]",300,161,-1,4,76,10,0.0
basic,39,24,0,0,0,29,"[0, 29]",2,27,"[2, 3, 4, 5, 6, 7, 8, 9, 10, 11, 12, 13, 14, 15, 16, 17, 18, 19, 20, 21, 22, 23, 24, 25, 26, 27, 28]",245.594118,2259,2098,5,65,9,1.0
basic,39,24,0,0,0,16,"[0, 29, 16]",3,21,"[2, 3, 4, 6, 8, 9, 10, 11, 13, 14, 15, 17, 18, 19, 22, 23, 24, 25, 26, 27, 28]",171.3782167,3244,985,5,51,9,1.4348105541987206
basic,39,24,0,0,0,22,"[0, 29, 16, 22]",4,16,"[2, 3, 4, 6, 8, 9, 10, 11, 14, 15, 17, 23, 24, 26, 27, 28]",153.3504603,4546,1302,4,31,9,1.3916224386076739
basic,39,24,0,0,0,8,"[0, 29, 16, 22, 8]",5,13,"[3, 4, 6, 9, 10, 11, 14, 15, 23, 24, 26, 27, 28]",139.9340525,6722,2176,2,13,9,1.4536440537404858
basic,39,24,0,0,0,15,"[0, 29, 16, 22, 8, 15]",6,8,"[3, 4, 6, 9, 11, 23, 26, 28]",109.047162,7606,884,1,3,9,1.5963255894510096
basic,39,24,0,0,0,28,"[0, 29, 16, 22, 8, 15, 28]",7,2,"[11, 23]",63.77023635,8314,708,1,1,9,1.4349671441965541
basic,39,24,0,0,0,23,"[0, 29, 16, 22, 8, 15, 28, 23]",8,1,[11],44.74393876,9033,719,1,0,9,1.4487992470982323
basic,39,24,0,0,1,11,"[0, 29, 16, 22, 8, 15, 28, 23, 11]",9,0,[],17.81811472,9839,806,1,0,9,1.4048465478250574
basic,39,24,0,1,1,11,"[0, 29, 16, 22, 8, 15, 28, 23, 11]",9,0,[],17.81811472,10600,761,1,0,9,1.4048465478250574
basic,40,4,0,0,0,0,[0],1,26,"[3, 4, 5, 6, 7, 8, 10, 11, 12, 13, 14, 15, 16, 17, 18, 19, 20, 21, 22, 23, 24, 25, 26, 27, 28, 29]",300,163,-1,4,489,10,0.0
basic,40,4,0,0,0,13,"[0, 13]",2,23,"[3, 4, 5, 6, 7, 10, 11, 12, 14, 15, 16, 17, 19, 20, 21, 22, 23, 24, 25, 26, 27, 28, 29]",232.1030192,32694,32531,2,270,10,1.0
basic,40,4,0,0,0,28,"[0, 13, 28]",3,19,"[3, 4, 5, 6, 10, 11, 12, 14, 15, 16, 17, 19, 20, 21, 22, 23, 24, 25, 26]",200.5277124,33369,675,2,221,10,1.3431168257921573
basic,40,4,0,0,0,25,"[0, 13, 28, 25]",4,12,"[3, 4, 5, 6, 11, 14, 16, 17, 20, 21, 22, 24]",146.4906881,34179,810,1,72,10,1.2105373647266156
basic,40,4,0,0,0,16,"[0, 13, 28, 25, 16]",5,11,"[3, 4, 5, 6, 11, 14, 17, 20, 21, 22, 24]",124.9500288,35343,1164,15,62,9,1.2699125485688463
basic,40,4,0,0,0,11,"[0, 13, 28, 25, 16, 11]",6,9,"[3, 4, 5, 6, 14, 17, 20, 21, 22]",109.9500288,36022,679,10,13,9,1.546707165853626
basic,40,4,0,0,0,21,"[0, 13, 28, 25, 16, 11, 21]",7,4,"[5, 17, 20, 22]",63.07786225,36926,904,3,3,9,1.6029855893125182
basic,40,4,0,0,0,22,"[0, 13, 28, 25, 16, 11, 21, 22]",8,3,"[5, 17, 20]",52.03250123,37532,606,3,0,9,1.5628859012909597
basic,40,4,0,0,1,20,"[0, 13, 28, 25, 16, 11, 21, 22, 20]",9,0,[],21.80006832,38302,770,1,0,9,1.5224930294131396
basic,40,4,0,1,1,20,"[0, 13, 28, 25, 16, 11, 21, 22, 20]",9,0,[],21.80006832,39379,1077,1,0,9,1.5224930294131396
basic,41,33,0,0,0,0,[0],1,23,"[1, 2, 5, 7, 8, 11, 12, 13, 14, 15, 16, 17, 18, 19, 20, 21, 23, 24, 25, 26, 27, 28, 29]",300,164,-1,5,108,9,0.0
basic,41,33,0,0,0,21,"[0, 21]",2,17,"[2, 5, 7, 8, 11, 13, 14, 16, 17, 18, 19, 20, 24, 26, 27, 28, 29]",174.4611614,1707,1543,21,129,8,1.0
basic,41,33,0,0,0,13,"[0, 21, 13]",3,15,"[2, 5, 7, 8, 11, 14, 16, 17, 18, 19, 20, 24, 26, 28, 29]",148.0604038,2287,580,17,72,8,1.0001005298764474
basic,41,33,0,0,0,17,"[0, 21, 13, 17]",4,10,"[2, 7, 11, 14, 16, 19, 20, 24, 26, 29]",125.2568953,3057,770,6,21,8,1.0965005103980894
basic,41,33,0,0,0,20,"[0, 21, 13, 17, 20]",5,3,"[2, 11, 29]",67.98561107,4110,1053,1,2,7,1.122467780634258
basic,41,33,0,0,0,11,"[0, 21, 13, 17, 20, 11]",6,1,[29],48.88063789,4778,668,1,0,7,1.1309847261755839
basic,41,33,0,0,1,29,"[0, 21, 13, 17, 20, 11, 29]",7,0,[],11.66504976,5426,648,1,0,7,1.3707718853829052
basic,41,33,0,1,1,29,"[0, 21, 13, 17, 20, 11, 29]",7,0,[],11.66504976,6263,837,1,0,7,1.3707718853829052
basic,42,34,0,0,0,0,[0],1,25,"[1, 3, 4, 5, 6, 7, 8, 9, 10, 11, 12, 13, 15, 18, 19, 20, 21, 22, 23, 24, 25, 26, 27, 28, 29]",300,181,-1,12,367,10,0.0
basic,42,34,0,0,0,13,"[0, 13]",2,24,"[1, 3, 4, 5, 6, 7, 8, 9, 10, 11, 12, 15, 18, 19, 20, 21, 22, 23, 24, 25, 26, 27, 28, 29]",279.9750156,2575,2394,12,331,10,1.0
basic,42,34,0,0,0,1,"[0, 13, 1]",3,16,"[3, 5, 7, 8, 9, 10, 11, 12, 19, 21, 22, 23, 24, 25, 27, 29]",211.8574701,3327,752,3,92,10,1.0010381285747127
basic,42,34,0,0,0,8,"[0, 13, 1, 8]",4,14,"[3, 5, 7, 9, 10, 11, 12, 19, 22, 23, 24, 25, 27, 29]",201.0871405,3770,443,2,54,10,1.1636807
basic,42,34,0,0,0,25,"[0, 13, 1, 8, 25]",5,12,"[3, 5, 7, 9, 10, 11, 12, 22, 23, 24, 27, 29]",183.999133,4460,690,2,28,10,1.1396208815936457
basic,42,34,0,0,0,24,"[0, 13, 1, 8, 25, 24]",6,11,"[3, 5, 7, 9, 10, 11, 12, 22, 23, 27, 29]",166.5062774,5193,733,2,23,10,1.374180768736554
basic,42,34,0,0,0,12,"[0, 13, 1, 8, 25, 24, 12]",7,7,"[7, 9, 10, 11, 22, 23, 27]",115.4670767,5894,701,1,8,10,1.4994254760835948
basic,42,34,0,0,0,7,"[0, 13, 1, 8, 25, 24, 12, 7]",8,5,"[9, 11, 22, 23, 27]",100.4337804,6373,479,1,4,10,1.758992610425009
basic,42,34,0,0,0,23,"[0, 13, 1, 8, 25, 24, 12, 7, 23]",9,1,[27],72.27352467,7921,1548,1,0,10,2.399781305190153
basic,42,34,0,0,1,27,"[0, 13, 1, 8, 25, 24, 12, 7, 23, 27]",10,0,[],18.60789321,9303,1382,1,0,10,4.766619878750327
basic,42,34,0,1,1,27,"[0, 13, 1, 8, 25, 24, 12, 7, 23, 27]",10,0,[],18.60789321,9696,393,1,0,10,4.766619878750327
basic,43,12,0,0,0,0,[0],1,29,"[1, 2, 3, 4, 5, 6, 7, 8, 9, 10, 11, 12, 13, 14, 15, 16, 17, 18, 19, 20, 21, 22, 23, 24, 25, 26, 27, 28, 29]",300,164,-1,2,32,9,0.0
basic,43,12,0,0,0,6,"[0, 6]",2,28,"[1, 2, 3, 4, 5, 7, 8, 9, 10, 11, 12, 13, 14, 15, 16, 17, 18, 19, 20, 21, 22, 23, 24, 25, 26, 27, 28, 29]",283.5987805,2067,1903,2,18,9,1.0
basic,43,12,0,0,0,22,"[0, 6, 22]",3,13,"[2, 4, 5, 7, 12, 13, 14, 16, 19, 23, 24, 25, 27]",182.0015365,3155,1088,2,9,9,1.3408050629015749
basic,43,12,0,0,0,16,"[0, 6, 22, 16]",4,10,"[2, 4, 5, 7, 12, 14, 19, 24, 25, 27]",161.0015365,3629,474,2,7,9,1.5323672374573825
basic,43,12,0,0,0,4,"[0, 6, 22, 16, 4]",5,6,"[12, 14, 19, 24, 25, 27]",126.7962737,4355,726,2,5,9,1.38665076120851
basic,43,12,0,0,0,12,"[0, 6, 22, 16, 4, 12]",6,3,"[14, 24, 27]",84.6062275,5385,1030,2,3,9,1.3036701691846924
basic,43,12,0,0,0,27,"[0, 6, 22, 16, 4, 12, 27]",7,2,"[14, 24]",60.25463618,6059,674,2,0,9,1.401636252408167
basic,43,12,0,0,0,14,"[0, 6, 22, 16, 4, 12, 27, 14]",8,1,[24],31.60153862,6978,919,1,0,9,1.4415448388010776
basic,43,12,0,0,1,24,"[0, 6, 22, 16, 4, 12, 27, 14, 24]",9,0,[],14.39688808,7675,697,1,0,9,1.6003250998053893
basic,43,12,0,1,1,24,"[0, 6, 22, 16, 4, 12, 27, 14, 24]",9,0,[],14.39688808,8398,723,1,0,9,1.6003250998053893
basic,44,30,0,0,0,0,[0],1,19,"[3, 4, 5, 7, 9, 11, 16, 17, 18, 19, 20, 21, 22, 24, 25, 26, 27, 28, 29]",300,170,-1,5,41,8,0.0
basic,44,30,0,0,0,27,"[0, 27]",2,10,"[3, 5, 7, 9, 18, 19, 20, 24, 25, 29]",90.59608409,3517,3347,7,22,6,1.0
basic,44,30,0,0,0,3,"[0, 27, 3]",3,8,"[5, 7, 18, 19, 20, 24, 25, 29]",71.49111091,4008,491,5,9,6,1.0022223300201003
basic,44,30,0,0,0,5,"[0, 27, 3, 5]",4,4,"[7, 18, 24, 29]",46.65162621,4607,599,1,3,6,1.047699458031665
basic,44,30,0,0,0,18,"[0, 27, 3, 5, 18]",5,1,[29],33.6132214,5148,541,1,0,6,1.0906504953306948
basic,44,30,0,0,1,29,"[0, 27, 3, 5, 18, 29]",6,0,[],14.30001349,5778,630,1,0,6,1.1734964103241567
basic,44,30,0,1,1,29,"[0, 27, 3, 5, 18, 29]",6,0,[],14.30001349,6445,667,1,0,6,1.1734964103241567
basic,45,27,0,0,0,0,[0],1,26,"[1, 3, 5, 6, 7, 8, 9, 10, 11, 12, 13, 14, 15, 16, 17, 18, 19, 21, 22, 23, 24, 25, 26, 27, 28, 29]",300,150,-1,13,578,11,0.0
basic,45,27,0,0,0,15,"[0, 15]",2,24,"[1, 3, 5, 6, 7, 8, 9, 10, 11, 12, 13, 14, 16, 17, 18, 19, 21, 22, 23, 24, 25, 26, 27, 29]",263.7508621,1809,1659,6,219,11,1.0
basic,45,27,0,0,0,24,"[0, 15, 24]",3,20,"[1, 5, 6, 7, 8, 9, 10, 12, 13, 14, 16, 17, 18, 19, 21, 23, 25, 26, 27, 29]",246.5462115,2520,711,6,130,11,1.130933077698322
basic,45,27,0,0,0,17,"[0, 15, 24, 17]",4,15,"[1, 6, 8, 10, 12, 13, 14, 16, 18, 19, 23, 25, 26, 27, 29]",229.9932662,3078,558,4,60,11,1.1285538435963374
basic,45,27,0,0,0,12,"[0, 15, 24, 17, 12]",5,14,"[1, 6, 8, 10, 13, 14, 16, 18, 19, 23, 25, 26, 27, 29]",218.8129263,3591,513,2,32,11,1.2561880288755216
basic,45,27,0,0,0,10,"[0, 15, 24, 17, 12, 10]",6,11,"[1, 8, 13, 14, 18, 19, 23, 25, 26, 27, 29]",207.7675653,4195,604,2,28,11,1.2228289337766665
basic,45,27,0,0,0,13,"[0, 15, 24, 17, 12, 10, 13]",7,9,"[1, 8, 14, 18, 19, 23, 26, 27, 29]",167.9178476,4926,731,2,18,11,1.3421291994761178
basic,45,27,0,0,0,19,"[0, 15, 24, 17, 12, 10, 13, 19]",8,5,"[1, 8, 14, 23, 29]",131.6825057,5626,700,2,6,11,1.294749956153846
basic,45,27,0,0,0,8,"[0, 15, 24, 17, 12, 10, 13, 19, 8]",9,3,"[14, 23, 29]",116.816437,6250,624,2,1,11,1.3554286578836865
basic,45,27,0,0,1,23,"[0, 15, 24, 17, 12, 10, 13, 19, 8, 23]",10,0,[],45.97859399,7105,855,1,0,10,3.3397859539241304
basic,45,27,0,1,1,23,"[0, 15, 24, 17, 12, 10, 13, 19, 8, 23]",10,0,[],45.97859399,8549,1444,1,0,10,3.3397859539241304
basic,46,43,0,0,0,0,[0],1,23,"[1, 2, 3, 4, 5, 6, 7, 9, 10, 11, 12, 14, 15, 16, 17, 19, 20, 21, 22, 23, 25, 27, 29]",300,167,-1,16,556,12,0.0
basic,46,43,0,0,0,29,"[0, 29]",2,22,"[1, 2, 3, 4, 5, 6, 7, 9, 10, 11, 12, 14, 15, 16, 17, 19, 20, 21, 22, 23, 25, 27]",277.909278,2157,1990,16,520,12,1.0
basic,46,43,0,0,0,20,"[0, 29, 20]",3,20,"[1, 2, 3, 4, 6, 7, 9, 10, 11, 12, 14, 15, 16, 17, 19, 21, 22, 23, 25, 27]",254.4785289,3186,1029,15,422,12,1.082311746871282
basic,46,43,0,0,0,16,"[0, 29, 20, 16]",4,19,"[1, 2, 3, 4, 6, 7, 9, 10, 11, 12, 14, 15, 17, 19, 21, 22, 23, 25, 27]",231.8511119,3879,693,15,389,12,1.215201926898219
basic,46,43,0,0,0,25,"[0, 29, 20, 16, 25]",5,14,"[1, 2, 3, 4, 6, 7, 9, 11, 12, 14, 15, 19, 22, 23]",175.7708124,4494,615,53,282,11,1.566384303308987
basic,46,43,0,0,0,15,"[0, 29, 20, 16, 25, 15]",6,13,"[1, 2, 3, 4, 6, 7, 9, 11, 12, 14, 19, 22, 23]",153.0992443,5044,550,27,108,11,1.776736412604812
basic,46,43,0,0,0,12,"[0, 29, 20, 16, 25, 15, 12]",7,10,"[1, 3, 6, 7, 9, 11, 14, 19, 22, 23]",133.7860364,5788,744,21,41,11,1.6813323012225032
basic,46,43,0,0,0,3,"[0, 29, 20, 16, 25, 15, 12, 3]",8,9,"[1, 6, 7, 9, 11, 14, 19, 22, 23]",120.7860364,6379,591,20,12,11,1.608740348096123
basic,46,43,0,0,0,22,"[0, 29, 20, 16, 25, 15, 12, 3, 22]",9,6,"[1, 6, 7, 11, 14, 19]",86.07292644,8239,1860,9,2,11,1.793657891802588
basic,46,43,0,0,0,11,"[0, 29, 20, 16, 25, 15, 12, 3, 22, 11]",10,1,[6],40.00775521,9079,840,1,0,11,2.857057635054945
basic,46,43,0,0,1,6,"[0, 29, 20, 16, 25, 15, 12, 3, 22, 11, 6]",11,0,[],19.39222709,9904,825,1,0,11,2.5442600061215437
basic,46,43,0,1,1,6,"[0, 29, 20, 16, 25, 15, 12, 3, 22, 11, 6]",11,0,[],19.39222709,11182,1278,1,0,11,2.5442600061215437
basic,47,11,0,0,0,0,[0],1,25,"[1, 2, 3, 4, 5, 6, 8, 9, 10, 11, 12, 13, 14, 15, 16, 17, 18, 19, 20, 22, 23, 25, 26, 27, 28]",300,149,-1,6,374,12,0.0
basic,47,11,0,0,0,18,"[0, 18]",2,21,"[1, 2, 4, 5, 6, 8, 9, 11, 12, 13, 14, 15, 16, 17, 19, 20, 22, 23, 25, 27, 28]",236.8493864,2205,2056,157,1477,11,1.0
basic,47,11,0,0,0,27,"[0, 18, 27]",3,19,"[1, 2, 4, 5, 6, 8, 9, 11, 12, 14, 15, 16, 17, 19, 20, 22, 23, 25, 28]",212.9956655,2755,550,157,1315,11,1.060949579704323
basic,47,11,0,0,0,8,"[0, 18, 27, 8]",4,14,"[1, 2, 4, 5, 6, 11, 12, 15, 17, 19, 22, 23, 25, 28]",142.7817068,3475,720,68,433,11,1.0827202875589923
basic,47,11,0,0,0,17,"[0, 18, 27, 8, 17]",5,13,"[1, 2, 4, 5, 6, 11, 12, 15, 19, 22, 23, 25, 28]",128.4638857,3954,479,42,137,11,1.1662918234607762
basic,47,11,0,0,0,15,"[0, 18, 27, 8, 17, 15]",6,9,"[2, 5, 6, 11, 12, 19, 22, 25, 28]",115.8147751,4542,588,38,57,11,1.1741312027420885
basic,47,11,0,0,0,11,"[0, 18, 27, 8, 17, 15, 11]",7,7,"[2, 5, 6, 12, 19, 22, 28]",97.70400479,5071,529,24,0,11,1.1668679039564056
basic,47,11,0,0,0,28,"[0, 18, 27, 8, 17, 15, 11, 28]",8,4,"[2, 5, 19, 22]",78.28751696,5731,660,6,0,11,1.2830334294205898
basic,47,11,0,0,0,5,"[0, 18, 27, 8, 17, 15, 11, 28, 5]",9,2,"[2, 22]",60.39897314,6769,1038,2,0,11,1.472719061667125
basic,47,11,0,0,0,2,"[0, 18, 27, 8, 17, 15, 11, 28, 5, 2]",10,1,[22],43.39897314,7405,636,1,0,11,1.437636650715907
basic,47,11,0,0,1,22,"[0, 18, 27, 8, 17, 15, 11, 28, 5, 2, 22]",11,0,[],33.34909751,8060,655,1,0,11,1.414339916866727
basic,47,11,0,1,1,22,"[0, 18, 27, 8, 17, 15, 11, 28, 5, 2, 22]",11,0,[],33.34909751,8882,822,1,0,11,1.414339916866727
basic,48,3,0,0,0,0,[0],1,29,"[1, 2, 3, 4, 5, 6, 7, 8, 9, 10, 11, 12, 13, 14, 15, 16, 17, 18, 19, 20, 21, 22, 23, 24, 25, 26, 27, 28, 29]",300,162,-1,34,427,10,0.0
basic,48,3,0,0,0,17,"[0, 17]",2,16,"[3, 4, 7, 8, 10, 12, 14, 15, 16, 19, 20, 21, 22, 24, 26, 27]",197.6965299,2088,1926,2,27,9,1.0
basic,48,3,0,0,0,20,"[0, 17, 20]",3,13,"[3, 4, 7, 8, 10, 14, 15, 16, 19, 21, 22, 24, 27]",185.0474192,2727,639,2,24,9,1.0153332121237257
basic,48,3,0,0,0,3,"[0, 17, 20, 3]",4,10,"[4, 7, 8, 10, 14, 15, 16, 19, 21, 24]",164.6513412,3232,505,2,22,9,1.0819240770773468
basic,48,3,0,0,0,19,"[0, 17, 20, 3, 19]",5,6,"[4, 8, 10, 14, 21, 24]",127.3150318,3778,546,2,11,9,1.1701070532957258
basic,48,3,0,0,0,21,"[0, 17, 20, 3, 19, 21]",6,5,"[4, 8, 10, 14, 24]",115.1084762,4265,487,2,6,9,1.202395500952127
basic,48,3,0,0,0,14,"[0, 17, 20, 3, 19, 21, 14]",7,4,"[4, 8, 10, 24]",88.20122806,4875,610,2,2,9,1.6456130302761207
basic,48,3,0,0,0,24,"[0, 17, 20, 3, 19, 21, 14, 24]",8,1,[8],17.08864127,5933,1058,1,0,9,4.806859660680286
basic,48,3,0,0,1,8,"[0, 17, 20, 3, 19, 21, 14, 24, 8]",9,0,[],4.923116212,6551,618,1,0,9,4.915218144486606
basic,48,3,0,1,1,8,"[0, 17, 20, 3, 19, 21, 14, 24, 8]",9,0,[],4.923116212,7213,662,1,0,9,4.915218144486606
basic,49,0,0,0,0,0,[0],1,27,"[2, 3, 4, 5, 6, 7, 8, 9, 10, 11, 12, 13, 14, 15, 16, 17, 19, 20, 21, 22, 23, 24, 25, 26, 27, 28, 29]",300,163,-1,104,1136,9,0.0
basic,49,0,0,0,0,28,"[0, 28]",2,26,"[2, 3, 4, 5, 6, 7, 8, 9, 10, 11, 12, 13, 14, 15, 16, 17, 19, 20, 21, 22, 23, 24, 25, 26, 27, 29]",194.9190788,8756,8593,39,388,9,1.0
basic,49,0,0,0,0,5,"[0, 28, 5]",3,21,"[2, 3, 4, 7, 8, 9, 11, 12, 13, 14, 15, 16, 17, 19, 20, 21, 23, 24, 25, 26, 29]",151.2613189,9443,687,27,210,9,1.0978295127671733
basic,49,0,0,0,0,4,"[0, 28, 5, 4]",4,16,"[3, 7, 8, 9, 11, 12, 13, 14, 15, 17, 19, 20, 21, 23, 24, 26]",126.1814465,9977,534,17,114,9,1.1103727063761901
basic,49,0,0,0,0,26,"[0, 28, 5, 4, 26]",5,14,"[3, 7, 8, 9, 11, 12, 13, 14, 15, 17, 19, 20, 23, 24]",114.1398519,10550,573,7,54,9,1.1504454351688815
basic,49,0,0,0,0,24,"[0, 28, 5, 4, 26, 24]",6,11,"[3, 7, 8, 9, 11, 12, 15, 17, 19, 20, 23]",97.02260914,11520,970,7,22,9,1.2166555899566422
basic,49,0,0,0,0,15,"[0, 28, 5, 4, 26, 24, 15]",7,7,"[3, 7, 8, 9, 11, 12, 17]",73.67737408,12283,763,4,5,9,1.1972898774231708
basic,49,0,0,0,0,7,"[0, 28, 5, 4, 26, 24, 15, 7]",8,2,"[3, 8]",42.61292495,12951,668,2,0,9,1.2554869594545575
basic,49,0,0,0,1,8,"[0, 28, 5, 4, 26, 24, 15, 7, 8]",9,0,[],23.50795177,13800,849,1,0,9,1.2428648875079442
basic,49,0,0,1,1,8,"[0, 28, 5, 4, 26, 24, 15, 7, 8]",9,0,[],23.50795177,14997,1197,1,0,9,1.2428648875079442
basic,50,17,0,0,0,0,[0],1,28,"[1, 2, 3, 4, 5, 6, 7, 8, 9, 10, 11, 12, 13, 14, 15, 16, 17, 18, 19, 20, 22, 23, 24, 25, 26, 27, 28, 29]",300,154,-1,2,73,8,0.0
basic,50,17,0,0,0,9,"[0, 9]",2,25,"[1, 2, 3, 5, 6, 7, 8, 10, 11, 12, 14, 15, 16, 17, 18, 19, 20, 22, 23, 24, 25, 26, 27, 28, 29]",210.5293344,2983,2829,1,34,8,1.0
basic,50,17,0,0,0,16,"[0, 9, 16]",3,21,"[1, 2, 3, 5, 7, 8, 10, 11, 12, 14, 17, 18, 19, 20, 22, 23, 25, 26, 27, 28, 29]",197.1876704,3445,462,1,26,8,1.173103464220352
basic,50,17,0,0,0,2,"[0, 9, 16, 2]",4,18,"[1, 3, 5, 7, 8, 10, 11, 12, 14, 17, 18, 19, 23, 25, 26, 27, 28, 29]",181.0631549,4054,609,1,23,8,1.14825089247282
basic,50,17,0,0,0,17,"[0, 9, 16, 2, 17]",5,7,"[7, 8, 12, 14, 26, 27, 29]",142.7356191,4670,616,4,5,7,1.4896040699768547
basic,50,17,0,0,0,8,"[0, 9, 16, 2, 17, 8]",6,3,"[7, 12, 27]",104.5256727,5467,797,3,0,7,1.4604726966175894
basic,50,17,0,0,1,7,"[0, 9, 16, 2, 17, 8, 7]",7,0,[],33.81499459,6413,946,1,0,7,1.4474701869793896
basic,50,17,0,1,1,7,"[0, 9, 16, 2, 17, 8, 7]",7,0,[],33.81499459,6981,568,1,0,7,1.4474701869793896
basic,51,29,0,0,0,0,[0],1,29,"[1, 2, 3, 4, 5, 6, 7, 8, 9, 10, 11, 12, 13, 14, 15, 16, 17, 18, 19, 20, 21, 22, 23, 24, 25, 26, 27, 28, 29]",300,164,-1,1,78,9,0.0
basic,51,29,0,0,0,6,"[0, 6]",2,28,"[1, 2, 3, 4, 5, 7, 8, 9, 10, 11, 12, 13, 14, 15, 16, 17, 18, 19, 20, 21, 22, 23, 24, 25, 26, 27, 28, 29]",228.4108947,2727,2563,1,25,9,1.0
basic,51,29,0,0,0,28,"[0, 6, 28]",3,24,"[1, 3, 4, 5, 7, 9, 10, 11, 12, 13, 14, 15, 16, 17, 18, 20, 21, 22, 23, 24, 25, 26, 27, 29]",187.1798384,3400,673,1,22,9,1.162106788166845
basic,51,29,0,0,0,27,"[0, 6, 28, 27]",4,19,"[1, 3, 4, 5, 7, 9, 10, 11, 12, 13, 14, 15, 16, 21, 22, 23, 25, 26, 29]",166.6615539,4208,808,1,21,9,1.2307173895439045
basic,51,29,0,0,0,22,"[0, 6, 28, 27, 22]",5,13,"[1, 3, 4, 5, 7, 9, 12, 13, 14, 15, 21, 26, 29]",133.4200136,4976,768,1,19,9,1.4241767805149903
basic,51,29,0,0,0,12,"[0, 6, 28, 27, 22, 12]",6,8,"[4, 5, 7, 9, 13, 14, 21, 26]",95.4726817,5704,728,1,6,9,1.3248355326460857
basic,51,29,0,0,0,7,"[0, 6, 28, 27, 22, 12, 7]",7,4,"[4, 5, 9, 21]",81.87121119,6310,606,1,3,9,1.3264091962339806
basic,51,29,0,0,0,9,"[0, 6, 28, 27, 22, 12, 7, 9]",8,1,[4],52.80232748,7468,1158,1,0,9,1.309391257644539
basic,51,29,0,0,1,4,"[0, 6, 28, 27, 22, 12, 7, 9, 4]",9,0,[],11.76575843,9197,1729,1,0,9,1.6396807789841599
basic,51,29,0,1,1,4,"[0, 6, 28, 27, 22, 12, 7, 9, 4]",9,0,[],11.76575843,9547,350,1,0,9,1.6396807789841599
basic,52,44,0,0,0,0,[0],1,29,"[1, 2, 3, 4, 5, 6, 7, 8, 9, 10, 11, 12, 13, 14, 15, 16, 17, 18, 19, 20, 21, 22, 23, 24, 25, 26, 27, 28, 29]",300,181,-1,13,126,7,0.0
basic,52,44,0,0,0,8,"[0, 8]",2,17,"[1, 4, 5, 7, 9, 10, 11, 12, 13, 14, 15, 20, 21, 23, 24, 25, 27]",145.7923478,1641,1460,1,10,7,1.0
basic,52,44,0,0,0,20,"[0, 8, 20]",3,16,"[1, 4, 5, 7, 9, 10, 11, 12, 13, 14, 15, 21, 23, 24, 25, 27]",133.7093018,2206,565,1,9,7,1.0890794433668698
basic,52,44,0,0,0,9,"[0, 8, 20, 9]",4,7,"[4, 7, 11, 12, 14, 23, 24]",76.43801756,3025,819,1,6,7,1.40892325509949
basic,52,44,0,0,0,4,"[0, 8, 20, 9, 4]",5,4,"[7, 12, 23, 24]",56.74030196,3832,807,1,3,7,1.3849770570803555
basic,52,44,0,0,0,7,"[0, 8, 20, 9, 4, 7]",6,1,[23],25.72417712,6841,3009,1,0,7,1.3274380931474288
basic,52,44,0,0,1,23,"[0, 8, 20, 9, 4, 7, 23]",7,0,[],6.619203947,7400,559,1,0,7,1.3395824779823196
basic,52,44,0,1,1,23,"[0, 8, 20, 9, 4, 7, 23]",7,0,[],6.619203947,7881,481,1,0,7,1.3395824779823196
basic,53,36,0,0,0,0,[0],1,24,"[2, 4, 5, 6, 7, 8, 9, 10, 12, 13, 14, 15, 16, 17, 18, 19, 20, 22, 23, 25, 26, 27, 28, 29]",300,146,-1,2,200,10,0.0
basic,53,36,0,0,0,12,"[0, 12]",2,23,"[2, 4, 5, 6, 7, 8, 9, 10, 13, 14, 15, 16, 17, 18, 19, 20, 22, 23, 25, 26, 27, 28, 29]",277.7963967,2109,1963,90,804,9,1.0
basic,53,36,0,0,0,9,"[0, 12, 9]",3,14,"[2, 4, 8, 10, 13, 16, 17, 18, 19, 23, 25, 27, 28, 29]",215.4345494,3029,920,32,191,9,1.224429481246385
basic,53,36,0,0,0,17,"[0, 12, 9, 17]",4,11,"[2, 4, 8, 10, 13, 16, 18, 19, 23, 25, 27]",189.1857399,4397,1368,8,54,9,1.1724571624470872
basic,53,36,0,0,0,19,"[0, 12, 9, 17, 19]",5,8,"[2, 4, 10, 13, 16, 18, 23, 25]",161.2930885,5976,1579,3,14,9,1.7995682634090462
basic,53,36,0,0,0,2,"[0, 12, 9, 17, 19, 2]",6,4,"[10, 13, 16, 25]",124.1716661,6658,682,2,3,9,1.5569787348204112
basic,53,36,0,0,0,25,"[0, 12, 9, 17, 19, 2, 25]",7,3,"[10, 13, 16]",99.17166613,7316,658,1,2,9,1.7541097756555504
basic,53,36,0,0,0,13,"[0, 12, 9, 17, 19, 2, 25, 13]",8,1,[10],78.58040585,7920,604,1,0,9,2.257503926583423
basic,53,36,0,0,1,10,"[0, 12, 9, 17, 19, 2, 25, 13, 10]",9,0,[],2.619889792,9258,1338,1,0,9,1.709815416525762
basic,53,36,0,1,1,10,"[0, 12, 9, 17, 19, 2, 25, 13, 10]",9,0,[],2.619889792,9578,320,1,0,9,1.709815416525762
basic,54,15,0,0,0,0,[0],1,25,"[1, 2, 3, 4, 7, 8, 9, 10, 11, 12, 13, 14, 15, 16, 18, 20, 21, 22, 23, 24, 25, 26, 27, 28, 29]",300,145,-1,4,65,9,0.0
basic,54,15,0,0,0,16,"[0, 16]",2,16,"[3, 4, 7, 9, 10, 11, 12, 13, 14, 15, 18, 20, 21, 22, 25, 27]",185.8378346,3793,3648,22,104,7,1.0
basic,54,15,0,0,0,11,"[0, 16, 11]",3,13,"[3, 4, 7, 10, 12, 13, 14, 15, 18, 21, 22, 25, 27]",159.818611,4412,619,10,29,7,1.1289542380807378
basic,54,15,0,0,0,3,"[0, 16, 11, 3]",4,12,"[4, 7, 10, 12, 13, 14, 15, 18, 21, 22, 25, 27]",148.4168567,4891,479,10,12,7,1.14507593159006
basic,54,15,0,0,0,22,"[0, 16, 11, 3, 22]",5,6,"[4, 10, 13, 14, 15, 18]",98.68758969,5578,687,4,4,7,1.1668569176120651
basic,54,15,0,0,0,15,"[0, 16, 11, 3, 22, 15]",6,2,"[13, 14]",73.07509274,6386,808,2,0,7,1.1555413708932987
basic,54,15,0,0,1,13,"[0, 16, 11, 3, 22, 15, 13]",7,0,[],57.81075522,7053,667,1,0,7,1.2088928499419171
basic,54,15,0,1,1,13,"[0, 16, 11, 3, 22, 15, 13]",7,0,[],57.81075522,8080,1027,1,0,7,1.2088928499419171
basic,55,14,0,0,0,0,[0],1,29,"[1, 2, 3, 4, 5, 6, 7, 8, 9, 10, 11, 12, 13, 14, 15, 16, 17, 18, 19, 20, 21, 22, 23, 24, 25, 26, 27, 28, 29]",300,163,-1,8,157,10,0.0
basic,55,14,0,0,0,15,"[0, 15]",2,20,"[1, 2, 3, 4, 7, 8, 9, 13, 17, 18, 19, 20, 21, 22, 23, 25, 26, 27, 28, 29]",216.7053423,1962,1799,8,102,10,1.0
basic,55,14,0,0,0,28,"[0, 15, 28]",3,17,"[1, 2, 3, 4, 7, 8, 9, 13, 17, 18, 19, 20, 22, 23, 25, 26, 27]",197.4959696,2406,444,8,48,10,1.0446007867311968
basic,55,14,0,0,0,17,"[0, 15, 28, 17]",4,14,"[1, 2, 3, 4, 7, 8, 13, 18, 19, 20, 22, 23, 25, 26]",184.0423455,2972,566,8,39,10,1.0729463354689972
basic,55,14,0,0,0,18,"[0, 15, 28, 17, 18]",5,9,"[1, 2, 4, 7, 8, 19, 23, 25, 26]",119.412631,3540,568,8,27,10,1.5035901079219378
basic,55,14,0,0,0,8,"[0, 15, 28, 17, 18, 8]",6,8,"[1, 2, 4, 7, 19, 23, 25, 26]",105.8111605,3938,398,8,18,10,1.4819689987843856
basic,55,14,0,0,0,19,"[0, 15, 28, 17, 18, 8, 19]",7,5,"[1, 7, 23, 25, 26]",85.19563238,4654,716,4,9,10,1.4526746797093781
basic,55,14,0,0,0,1,"[0, 15, 28, 17, 18, 8, 19, 1]",8,4,"[7, 23, 25, 26]",69.96408617,5150,496,3,1,10,1.4876985459270997
basic,55,14,0,0,0,23,"[0, 15, 28, 17, 18, 8, 19, 1, 23]",9,1,[26],21.96408617,5862,712,1,0,10,1.4791446279021185
basic,55,14,0,0,1,26,"[0, 15, 28, 17, 18, 8, 19, 1, 23, 26]",10,0,[],11.14743235,7575,1713,1,0,10,1.4559204757247275
basic,55,14,0,1,1,26,"[0, 15, 28, 17, 18, 8, 19, 1, 23, 26]",10,0,[],11.14743235,8281,706,1,0,10,1.4559204757247275
basic,56,7,0,0,0,0,[0],1,29,"[1, 2, 3, 4, 5, 6, 7, 8, 9, 10, 11, 12, 13, 14, 15, 16, 17, 18, 19, 20, 21, 22, 23, 24, 25, 26, 27, 28, 29]",300,181,-1,3,79,9,0.0
basic,56,7,0,0,0,25,"[0, 25]",2,20,"[2, 3, 4, 5, 6, 7, 10, 13, 14, 15, 16, 18, 19, 20, 21, 22, 23, 24, 27, 28]",181.5939191,1809,1628,5,33,8,1.0
basic,56,7,0,0,0,4,"[0, 25, 4]",3,11,"[2, 6, 7, 13, 15, 16, 18, 19, 20, 21, 23]",156.8552853,2359,550,2,14,8,1.0193465608331511
basic,56,7,0,0,0,20,"[0, 25, 4, 20]",4,8,"[2, 6, 7, 13, 15, 16, 18, 19]",137.2084026,3087,728,1,9,8,1.085904909082323
basic,56,7,0,0,0,18,"[0, 25, 4, 20, 18]",5,7,"[2, 6, 7, 13, 15, 16, 19]",124.4021541,4000,913,1,5,8,1.2264883846453758
basic,56,7,0,0,0,7,"[0, 25, 4, 20, 18, 7]",6,2,"[2, 19]",83.17109789,4859,859,1,1,8,1.185264473968278
basic,56,7,0,0,0,19,"[0, 25, 4, 20, 18, 7, 19]",7,1,[2],53.76021555,5637,778,1,0,8,1.3016904288278204
basic,56,7,0,0,1,2,"[0, 25, 4, 20, 18, 7, 19, 2]",8,0,[],23.61058868,6336,699,1,0,8,1.3168868000947171
basic,56,7,0,1,1,2,"[0, 25, 4, 20, 18, 7, 19, 2]",8,0,[],23.61058868,7113,777,1,0,8,1.3168868000947171
basic,57,13,0,0,0,0,[0],1,29,"[1, 2, 3, 4, 5, 6, 7, 8, 9, 10, 11, 12, 13, 14, 15, 16, 17, 18, 19, 20, 21, 22, 23, 24, 25, 26, 27, 28, 29]",300,163,-1,60,2676,11,0.0
basic,57,13,0,0,0,24,"[0, 24]",2,28,"[1, 2, 3, 4, 5, 6, 7, 8, 9, 10, 11, 12, 13, 14, 15, 16, 17, 18, 19, 20, 21, 22, 23, 25, 26, 27, 28, 29]",288.8196601,2270,2107,16,1444,11,1.0
basic,57,13,0,0,0,23,"[0, 24, 23]",3,27,"[1, 2, 3, 4, 5, 6, 7, 8, 9, 10, 11, 12, 13, 14, 15, 16, 17, 18, 19, 20, 21, 22, 25, 26, 27, 28, 29]",243.1140806,2949,679,2,868,11,1.0065545717039834
basic,57,13,0,0,0,28,"[0, 24, 23, 28]",4,21,"[1, 2, 3, 4, 6, 7, 9, 10, 11, 12, 13, 15, 16, 17, 19, 20, 21, 22, 26, 27, 29]",177.7458926,4902,1953,1,253,11,1.6592183354372274
basic,57,13,0,0,0,2,"[0, 24, 23, 28, 2]",5,15,"[1, 3, 6, 7, 9, 11, 12, 13, 15, 16, 17, 19, 21, 26, 29]",140.1028322,5626,724,1,80,11,1.459046951791535
basic,57,13,0,0,0,29,"[0, 24, 23, 28, 2, 29]",6,9,"[1, 6, 7, 11, 13, 16, 17, 19, 26]",128.3981322,7360,1734,1,31,11,1.5417142413159963
basic,57,13,0,0,0,7,"[0, 24, 23, 28, 2, 29, 7]",7,8,"[1, 6, 11, 13, 16, 17, 19, 26]",113.1337947,7960,600,1,10,11,1.77525557938341
basic,57,13,0,0,0,26,"[0, 24, 23, 28, 2, 29, 7, 26]",8,6,"[1, 6, 11, 13, 16, 19]",102.6934882,8543,583,1,4,11,2.0623372568692724
basic,57,13,0,0,0,6,"[0, 24, 23, 28, 2, 29, 7, 26, 6]",9,3,"[11, 13, 16]",82.59373697,9496,953,1,2,11,2.002320377701536
basic,57,13,0,0,0,11,"[0, 24, 23, 28, 2, 29, 7, 26, 6, 11]",10,1,[13],63.48876379,10160,664,1,0,11,1.8540921292495773
basic,57,13,0,0,1,13,"[0, 24, 23, 28, 2, 29, 7, 26, 6, 11, 13]",11,0,[],7.408464223,11976,1816,1,0,11,1.6123988786574368
basic,57,13,0,1,1,13,"[0, 24, 23, 28, 2, 29, 7, 26, 6, 11, 13]",11,0,[],7.408464223,12763,787,1,0,11,1.6123988786574368
basic,58,5,0,0,0,0,[0],1,29,"[1, 2, 3, 4, 5, 6, 7, 8, 9, 10, 11, 12, 13, 14, 15, 16, 17, 18, 19, 20, 21, 22, 23, 24, 25, 26, 27, 28, 29]",300,154,-1,5,139,9,0.0
basic,58,5,0,0,0,23,"[0, 23]",2,27,"[1, 2, 3, 4, 5, 6, 7, 8, 9, 10, 11, 12, 13, 14, 15, 16, 17, 18, 19, 20, 21, 22, 24, 25, 26, 27, 28]",249.8402552,1675,1521,3,75,9,1.0
basic,58,5,0,0,0,25,"[0, 23, 25]",3,23,"[1, 2, 3, 4, 5, 6, 8, 9, 10, 12, 13, 14, 15, 16, 17, 18, 19, 21, 22, 24, 26, 27, 28]",231.4011663,2652,977,3,43,9,1.0923159590575564
basic,58,5,0,0,0,24,"[0, 23, 25, 24]",4,21,"[2, 3, 4, 5, 6, 8, 9, 10, 12, 13, 14, 15, 16, 17, 18, 19, 21, 22, 26, 27, 28]",206.5616816,3365,713,3,25,9,1.2901858295679272
basic,58,5,0,0,0,17,"[0, 23, 25, 24, 17]",5,13,"[4, 5, 6, 8, 12, 13, 14, 15, 18, 19, 22, 26, 27]",171.5759702,4076,711,3,14,9,1.2027484907982513
basic,58,5,0,0,0,5,"[0, 23, 25, 24, 17, 5]",6,7,"[4, 6, 8, 12, 15, 18, 19]",128.5294837,4878,802,3,4,9,1.1472230681682432
basic,58,5,0,0,0,18,"[0, 23, 25, 24, 17, 5, 18]",7,2,"[4, 6]",61.46235316,5975,1097,1,1,9,1.1763046566678599
basic,58,5,0,0,0,4,"[0, 23, 25, 24, 17, 5, 18, 4]",8,1,[6],23.04360773,6724,749,1,0,9,1.580519180089265
basic,58,5,0,0,1,6,"[0, 23, 25, 24, 17, 5, 18, 4, 6]",9,0,[],11.00201315,7619,895,1,0,9,1.7305268673652696
basic,58,5,0,1,1,6,"[0, 23, 25, 24, 17, 5, 18, 4, 6]",9,0,[],11.00201315,8779,1160,1,0,9,1.7305268673652696
basic,59,28,0,0,0,0,[0],1,27,"[1, 2, 3, 4, 5, 6, 7, 8, 9, 10, 11, 12, 13, 14, 15, 16, 17, 18, 19, 20, 22, 23, 25, 26, 27, 28, 29]",300,153,-1,2,96,9,0.0
basic,59,28,0,0,0,5,"[0, 5]",2,21,"[2, 3, 4, 6, 7, 8, 9, 10, 11, 12, 13, 14, 15, 18, 19, 20, 23, 25, 26, 28, 29]",169.6427984,1470,1317,4,42,8,1.0
basic,59,28,0,0,0,26,"[0, 5, 26]",3,15,"[2, 3, 4, 7, 8, 9, 12, 13, 14, 15, 18, 19, 20, 25, 28]",136.8861197,2094,624,4,35,8,1.0149913611821164
basic,59,28,0,0,0,2,"[0, 5, 26, 2]",4,10,"[4, 7, 8, 9, 12, 13, 18, 19, 25, 28]",96.52524758,2908,814,1,8,8,1.0140203645386032
basic,59,28,0,0,0,19,"[0, 5, 26, 2, 19]",5,4,"[7, 12, 13, 18]",59.1621642,3620,712,1,5,8,1.3190506078953725
basic,59,28,0,0,0,7,"[0, 5, 26, 2, 19, 7]",6,2,"[12, 13]",31.43131495,4825,1205,1,1,8,1.3710337790154739
basic,59,28,0,0,0,12,"[0, 5, 26, 2, 19, 7, 12]",7,1,[13],18.27836851,5287,462,1,0,8,1.3674357374010244
basic,59,28,0,0,1,13,"[0, 5, 26, 2, 19, 7, 12, 13]",8,0,[],1.073717981,6394,1107,1,0,8,1.5688480417120785
basic,59,28,0,1,1,13,"[0, 5, 26, 2, 19, 7, 12, 13]",8,0,[],1.073717981,6947,553,1,0,8,1.5688480417120785
basic,60,26,0,0,0,0,[0],1,29,"[1, 2, 3, 4, 5, 6, 7, 8, 9, 10, 11, 12, 13, 14, 15, 16, 17, 18, 19, 20, 21, 22, 23, 24, 25, 26, 27, 28, 29]",300,145,-1,9,226,9,0.0
basic,60,26,0,0,0,21,"[0, 21]",2,25,"[2, 3, 4, 5, 6, 7, 8, 10, 11, 12, 13, 14, 15, 16, 17, 18, 19, 22, 23, 24, 25, 26, 27, 28, 29]",211.1349337,1534,1389,7,90,9,1.0
basic,60,26,0,0,0,13,"[0, 21, 13]",3,21,"[3, 4, 5, 6, 7, 8, 10, 11, 12, 14, 15, 16, 17, 18, 19, 22, 23, 24, 25, 26, 29]",188.9989901,2626,1092,6,45,9,1.0103952279992225
basic,60,26,0,0,0,23,"[0, 21, 13, 23]",4,13,"[3, 4, 5, 6, 10, 11, 14, 16, 17, 18, 22, 26, 29]",150.9858345,3306,680,3,17,9,1.1069410469330032
basic,60,26,0,0,0,16,"[0, 21, 13, 23, 16]",5,7,"[4, 5, 6, 10, 14, 17, 29]",97.75050789,4032,726,3,13,9,1.8066634000662438
basic,60,26,0,0,0,29,"[0, 21, 13, 23, 16, 29]",6,5,"[4, 6, 10, 14, 17]",73.54307102,5510,1478,3,9,9,1.853342605492142
basic,60,26,0,0,0,4,"[0, 21, 13, 23, 16, 29, 4]",7,3,"[6, 14, 17]",49.54307102,6198,688,2,2,9,2.0664369230924997
basic,60,26,0,0,0,17,"[0, 21, 13, 23, 16, 29, 4, 17]",8,2,"[6, 14]",28.44804791,6907,709,2,0,9,1.911153301956092
basic,60,26,0,0,1,14,"[0, 21, 13, 23, 16, 29, 4, 17, 14]",9,0,[],5.975842855,7676,769,1,0,9,1.8245133223656398
basic,60,26,0,1,1,14,"[0, 21, 13, 23, 16, 29, 4, 17, 14]",9,0,[],5.975842855,8894,1218,1,0,9,1.8245133223656398
basic,61,42,0,0,0,0,[0],1,29,"[1, 2, 3, 4, 5, 6, 7, 8, 9, 10, 11, 12, 13, 14, 15, 16, 17, 18, 19, 20, 21, 22, 23, 24, 25, 26, 27, 28, 29]",300,158,-1,16,302,9,0.0
basic,61,42,0,0,0,4,"[0, 4]",2,28,"[1, 2, 3, 5, 6, 7, 8, 9, 10, 11, 12, 13, 14, 15, 16, 17, 18, 19, 20, 21, 22, 23, 24, 25, 26, 27, 28, 29]",209.5290102,1455,1297,4,80,9,1.0
basic,61,42,0,0,0,22,"[0, 4, 22]",3,24,"[1, 2, 3, 5, 6, 7, 8, 9, 10, 11, 13, 15, 17, 18, 19, 20, 21, 23, 24, 25, 26, 27, 28, 29]",198.3486703,1885,430,3,53,9,1.1473032812120834
basic,61,42,0,0,0,8,"[0, 4, 22, 8]",4,21,"[1, 2, 3, 5, 6, 7, 10, 11, 15, 17, 18, 19, 20, 21, 23, 24, 25, 26, 27, 28, 29]",176.2127267,2457,572,2,36,9,1.1513227322639639
basic,61,42,0,0,0,1,"[0, 4, 22, 8, 1]",5,12,"[2, 5, 6, 7, 10, 15, 18, 19, 24, 26, 27, 28]",127.1209758,3468,1011,2,24,9,1.1101621876186907
basic,61,42,0,0,0,7,"[0, 4, 22, 8, 1, 7]",6,5,"[2, 19, 26, 27, 28]",97.12097583,4221,753,2,10,9,1.1711274205343067
basic,61,42,0,0,0,26,"[0, 4, 22, 8, 1, 7, 26]",7,3,"[2, 19, 27]",70.55031532,5946,1725,2,1,9,1.1588367913131314
basic,61,42,0,0,0,27,"[0, 4, 22, 8, 1, 7, 26, 27]",8,1,[19],52.52255894,6697,751,1,0,9,1.160587570992885
basic,61,42,0,0,1,19,"[0, 4, 22, 8, 1, 7, 26, 27, 19]",9,0,[],11.51036563,7518,821,1,0,9,1.3341568614108437
basic,61,42,0,1,1,19,"[0, 4, 22, 8, 1, 7, 26, 27, 19]",9,0,[],11.51036563,8198,680,1,0,9,1.3341568614108437
basic,62,20,0,0,0,0,[0],1,21,"[1, 2, 3, 4, 5, 6, 7, 8, 9, 12, 17, 18, 20, 21, 22, 23, 25, 26, 27, 28, 29]",300,157,-1,1,9,9,0.0
basic,62,20,0,0,0,5,"[0, 5]",2,14,"[1, 3, 4, 6, 8, 9, 12, 20, 21, 23, 26, 27, 28, 29]",174.3576505,2253,2096,3,24,7,1.0
basic,62,20,0,0,0,21,"[0, 5, 21]",3,10,"[1, 4, 6, 8, 9, 20, 23, 26, 27, 28]",129.3576505,2976,723,3,13,7,1.000374735486217
basic,62,20,0,0,0,8,"[0, 5, 21, 8]",4,6,"[1, 6, 9, 23, 27, 28]",111.8934013,3711,735,3,7,7,1.0232558372988163
basic,62,20,0,0,0,23,"[0, 5, 21, 8, 23]",5,4,"[6, 9, 27, 28]",67.20559531,4479,768,2,2,7,1.022001720978389
basic,62,20,0,0,0,9,"[0, 5, 21, 8, 23, 9]",6,1,[6],47.9962226,5126,647,1,0,7,1.0216742507052117
basic,62,20,0,0,1,6,"[0, 5, 21, 8, 23, 9, 6]",7,0,[],24.97449373,5846,720,1,0,7,1.037647415066349
basic,62,20,0,1,1,6,"[0, 5, 21, 8, 23, 9, 6]",7,0,[],24.97449373,6498,652,1,0,7,1.037647415066349
basic,63,41,0,0,0,0,[0],1,29,"[1, 2, 3, 4, 5, 6, 7, 8, 9, 10, 11, 12, 13, 14, 15, 16, 17, 18, 19, 20, 21, 22, 23, 24, 25, 26, 27, 28, 29]",300,148,-1,1,143,10,0.0
basic,63,41,0,0,0,13,"[0, 13]",2,23,"[1, 2, 3, 5, 6, 7, 9, 10, 11, 12, 14, 15, 17, 18, 19, 20, 21, 22, 24, 25, 26, 27, 28]",258.2747079,2024,1876,1,55,10,1.0
basic,63,41,0,0,0,28,"[0, 13, 28]",3,22,"[1, 2, 3, 5, 6, 7, 9, 10, 11, 12, 14, 15, 17, 18, 19, 20, 21, 22, 24, 25, 26, 27]",223.7928286,2742,718,1,39,10,1.895724242592676
basic,63,41,0,0,0,5,"[0, 13, 28, 5]",4,19,"[1, 2, 3, 6, 9, 10, 11, 12, 14, 15, 17, 18, 19, 20, 21, 22, 24, 25, 27]",210.1913581,3308,566,1,34,10,2.861541269398273
basic,63,41,0,0,0,3,"[0, 13, 28, 5, 3]",5,16,"[1, 2, 6, 9, 10, 12, 14, 17, 18, 19, 20, 21, 22, 24, 25, 27]",175.3632086,3955,647,1,22,10,3.1455488489005883
basic,63,41,0,0,0,22,"[0, 13, 28, 5, 3, 22]",6,10,"[2, 6, 9, 10, 12, 17, 18, 20, 21, 25]",145.3965604,4529,574,1,7,10,2.241807041008432
basic,63,41,0,0,0,21,"[0, 13, 28, 5, 3, 22, 21]",7,4,"[2, 9, 12, 17]",94.39656044,5235,706,1,5,10,4.206513633906409
basic,63,41,0,0,0,9,"[0, 13, 28, 5, 3, 22, 21, 9]",8,2,"[2, 17]",45.03058025,5968,733,1,1,10,3.098343902653451
basic,63,41,0,0,0,2,"[0, 13, 28, 5, 3, 22, 21, 9, 2]",9,1,[17],32.94753428,6576,608,1,0,10,2.9516218867624824
basic,63,41,0,0,1,17,"[0, 13, 28, 5, 3, 22, 21, 9, 2, 17]",10,0,[],0.389893085,7487,911,1,0,10,4.726628762010198
basic,63,41,0,1,1,17,"[0, 13, 28, 5, 3, 22, 21, 9, 2, 17]",10,0,[],0.389893085,8097,610,1,0,10,4.726628762010198
basic,64,25,0,0,0,0,[0],1,28,"[1, 2, 3, 4, 5, 7, 8, 9, 10, 11, 12, 13, 14, 15, 16, 17, 18, 19, 20, 21, 22, 23, 24, 25, 26, 27, 28, 29]",300,165,-1,5,94,10,0.0
basic,64,25,0,0,0,23,"[0, 23]",2,23,"[1, 2, 3, 5, 7, 8, 9, 11, 12, 13, 14, 16, 17, 19, 20, 21, 22, 24, 25, 26, 27, 28, 29]",259.7756293,1413,1248,3,33,10,1.0
basic,64,25,0,0,0,19,"[0, 23, 19]",3,21,"[1, 2, 3, 5, 7, 8, 9, 11, 12, 13, 14, 16, 17, 20, 21, 22, 24, 25, 27, 28, 29]",223.9287326,2060,647,3,24,10,1.583101227007039
basic,64,25,0,0,0,29,"[0, 23, 19, 29]",4,19,"[1, 2, 3, 5, 7, 8, 9, 11, 12, 13, 14, 16, 17, 20, 21, 22, 24, 25, 28]",207.649912,2577,517,3,17,10,1.474631541426484
basic,64,25,0,0,0,22,"[0, 23, 19, 29, 22]",5,18,"[1, 2, 3, 5, 7, 8, 9, 11, 12, 13, 14, 16, 17, 20, 21, 24, 25, 28]",191.5253965,3117,540,3,14,10,1.4020377754906637
basic,64,25,0,0,0,7,"[0, 23, 19, 29, 22, 7]",6,7,"[3, 8, 9, 11, 13, 24, 28]",115.8814939,3792,675,3,11,10,1.5709678649326715
basic,64,25,0,0,0,24,"[0, 23, 19, 29, 22, 7, 24]",7,5,"[3, 8, 9, 13, 28]",91.12265712,4461,669,3,7,10,1.486191600033379
basic,64,25,0,0,0,9,"[0, 23, 19, 29, 22, 7, 24, 9]",8,4,"[3, 8, 13, 28]",73.09490075,5119,658,3,3,10,1.453504870342882
basic,64,25,0,0,0,3,"[0, 23, 19, 29, 22, 7, 24, 9, 3]",9,3,"[8, 13, 28]",42.82940885,5879,760,3,0,10,1.388955167525479
basic,64,25,0,0,1,13,"[0, 23, 19, 29, 22, 7, 24, 9, 3, 13]",10,0,[],11.58841014,6559,680,1,0,10,1.4309045890044414
basic,64,25,0,1,1,13,"[0, 23, 19, 29, 22, 7, 24, 9, 3, 13]",10,0,[],11.58841014,6962,403,1,0,10,1.4309045890044414
basic,65,6,0,0,0,0,[0],1,29,"[1, 2, 3, 4, 5, 6, 7, 8, 9, 10, 11, 12, 13, 14, 15, 16, 17, 18, 19, 20, 21, 22, 23, 24, 25, 26, 27, 28, 29]",300,147,-1,180,4304,10,0.0
basic,65,6,0,0,0,3,"[0, 3]",2,28,"[1, 2, 4, 5, 6, 7, 8, 9, 10, 11, 12, 13, 14, 15, 16, 17, 18, 19, 20, 21, 22, 23, 24, 25, 26, 27, 28, 29]",266.4738908,1321,1174,90,1607,10,1.0
basic,65,6,0,0,0,10,"[0, 3, 10]",3,27,"[1, 2, 4, 5, 6, 7, 8, 9, 11, 12, 13, 14, 15, 16, 17, 18, 19, 20, 21, 22, 23, 24, 25, 26, 27, 28, 29]",215.2293789,2575,1254,8,136,10,1.0050517746249001
basic,65,6,0,0,0,24,"[0, 3, 10, 24]",4,23,"[1, 2, 4, 5, 6, 7, 8, 11, 13, 14, 16, 17, 18, 19, 20, 21, 22, 23, 25, 26, 27, 28, 29]",201.812971,3085,510,8,85,10,1.0091851911500884
basic,65,6,0,0,0,17,"[0, 3, 10, 24, 17]",5,19,"[1, 2, 4, 5, 6, 7, 8, 11, 13, 14, 16, 18, 20, 21, 22, 23, 26, 27, 29]",172.5384087,3710,625,8,53,10,1.8060138032707682
basic,65,6,0,0,0,18,"[0, 3, 10, 24, 17, 18]",6,15,"[1, 2, 6, 7, 8, 13, 14, 16, 20, 21, 22, 23, 26, 27, 29]",158.6100204,4224,514,7,36,10,2.3216150751946008
basic,65,6,0,0,0,16,"[0, 3, 10, 24, 17, 18, 16]",7,13,"[1, 2, 6, 7, 13, 14, 20, 21, 22, 23, 26, 27, 29]",135.2647853,4880,656,7,21,10,2.2822729587843544
basic,65,6,0,0,0,29,"[0, 3, 10, 24, 17, 18, 16, 29]",8,7,"[6, 14, 20, 21, 22, 23, 27]",98.57691268,5593,713,6,4,10,1.8911507070056388
basic,65,6,0,0,0,23,"[0, 3, 10, 24, 17, 18, 16, 29, 23]",9,2,"[6, 22]",51.05849519,6420,827,2,0,10,1.8549852217940308
basic,65,6,0,0,1,6,"[0, 3, 10, 24, 17, 18, 16, 29, 23, 6]",10,0,[],15.70315613,7049,629,1,0,10,1.7651720921259988
basic,65,6,0,1,1,6,"[0, 3, 10, 24, 17, 18, 16, 29, 23, 6]",10,0,[],15.70315613,7429,380,1,0,10,1.7651720921259988
basic,66,8,0,0,0,0,[0],1,29,"[1, 2, 3, 4, 5, 6, 7, 8, 9, 10, 11, 12, 13, 14, 15, 16, 17, 18, 19, 20, 21, 22, 23, 24, 25, 26, 27, 28, 29]",300,146,-1,10,149,9,0.0
basic,66,8,0,0,0,5,"[0, 5]",2,28,"[1, 2, 3, 4, 6, 7, 8, 9, 10, 11, 12, 13, 14, 15, 16, 17, 18, 19, 20, 21, 22, 23, 24, 25, 26, 27, 28, 29]",254.5137383,2727,2581,10,100,9,1.0
basic,66,8,0,0,0,25,"[0, 5, 25]",3,20,"[1, 2, 3, 4, 6, 11, 12, 14, 15, 16, 17, 18, 19, 20, 21, 22, 23, 24, 28, 29]",215.3091468,3436,709,4,42,9,1.2272747879909065
basic,66,8,0,0,0,1,"[0, 5, 25, 1]",4,17,"[3, 4, 6, 11, 12, 14, 15, 16, 17, 18, 20, 21, 22, 23, 24, 28, 29]",190.3091468,4071,635,3,24,9,1.1770245007593956
basic,66,8,0,0,0,23,"[0, 5, 25, 1, 23]",5,15,"[3, 4, 6, 11, 14, 15, 16, 17, 18, 20, 21, 22, 24, 28, 29]",167.2874179,4637,566,1,14,9,1.141996583852372
basic,66,8,0,0,0,4,"[0, 5, 25, 1, 23, 4]",6,6,"[3, 14, 16, 18, 21, 28]",117.9518324,5641,1004,3,4,8,1.115517190692443
basic,66,8,0,0,0,18,"[0, 5, 25, 1, 23, 4, 18]",7,2,"[14, 28]",74.94020603,7200,1559,2,0,8,1.702606074443807
basic,66,8,0,0,1,14,"[0, 5, 25, 1, 23, 4, 18, 14]",8,0,[],17.45107663,8050,850,1,0,8,3.306985013025639
basic,66,8,0,1,1,14,"[0, 5, 25, 1, 23, 4, 18, 14]",8,0,[],17.45107663,8530,480,1,0,8,3.306985013025639
basic,67,38,0,0,0,0,[0],1,29,"[1, 2, 3, 4, 5, 6, 7, 8, 9, 10, 11, 12, 13, 14, 15, 16, 17, 18, 19, 20, 21, 22, 23, 24, 25, 26, 27, 28, 29]",300,152,-1,33,506,9,0.0
basic,67,38,0,0,0,13,"[0, 13]",2,21,"[3, 4, 5, 6, 7, 10, 11, 12, 14, 15, 16, 17, 18, 19, 20, 22, 24, 26, 27, 28, 29]",202.2554349,1846,1694,3,71,8,1.0
basic,67,38,0,0,0,4,"[0, 13, 4]",3,17,"[3, 5, 10, 11, 12, 14, 15, 16, 17, 18, 19, 20, 22, 24, 26, 27, 28]",170.854798,2547,701,2,27,8,1.841926680788486
basic,67,38,0,0,0,15,"[0, 13, 4, 15]",4,13,"[5, 10, 11, 12, 14, 16, 17, 19, 20, 24, 26, 27, 28]",144.854798,3043,496,2,14,8,2.11439354164823
basic,67,38,0,0,0,11,"[0, 13, 4, 15, 11]",5,9,"[5, 10, 12, 14, 16, 17, 20, 26, 28]",108.4542486,4787,1744,1,4,8,2.3971326802717936
basic,67,38,0,0,0,28,"[0, 13, 4, 15, 11, 28]",6,3,"[12, 14, 16]",81.43573638,5470,683,1,2,8,2.0465931171741514
basic,67,38,0,0,1,16,"[0, 13, 4, 15, 11, 28, 16]",7,0,[],52.43573638,6203,733,1,0,7,2.262583415878471
basic,67,38,0,1,1,16,"[0, 13, 4, 15, 11, 28, 16]",7,0,[],52.43573638,7149,946,1,0,7,2.262583415878471
basic,68,40,0,0,0,0,[0],1,29,"[1, 2, 3, 4, 5, 6, 7, 8, 9, 10, 11, 12, 13, 14, 15, 16, 17, 18, 19, 20, 21, 22, 23, 24, 25, 26, 27, 28, 29]",300,164,-1,8,191,9,0.0
basic,68,40,0,0,0,1,"[0, 1]",2,18,"[2, 5, 6, 7, 8, 9, 10, 11, 13, 15, 17, 18, 19, 21, 22, 23, 27, 29]",247.8463808,1342,1178,4,80,9,1.0
basic,68,40,0,0,0,6,"[0, 1, 6]",3,17,"[2, 5, 7, 8, 9, 10, 11, 13, 15, 17, 18, 19, 21, 22, 23, 27, 29]",227.7466295,2221,879,4,74,9,1.0459427008232034
basic,68,40,0,0,0,23,"[0, 1, 6, 23]",4,15,"[2, 5, 7, 8, 9, 10, 11, 13, 17, 18, 19, 21, 22, 27, 29]",158.176521,3005,784,12,41,8,1.4952830531485621
basic,68,40,0,0,0,5,"[0, 1, 6, 23, 5]",5,10,"[2, 7, 8, 9, 11, 18, 19, 21, 22, 27]",129.8745776,4494,1489,5,13,8,1.3833163970446014
basic,68,40,0,0,0,19,"[0, 1, 6, 23, 5, 19]",6,6,"[2, 8, 9, 18, 22, 27]",91.79571207,5295,801,1,5,8,2.029451220826423
basic,68,40,0,0,1,8,"[0, 1, 6, 23, 5, 19, 8]",7,0,[],17.73492622,6215,920,1,0,7,1.7532330351279821
basic,68,40,0,1,1,8,"[0, 1, 6, 23, 5, 19, 8]",7,0,[],17.73492622,14464,8249,1,0,7,1.7532330351279821
undo,69,25,0,0,0,0,[0],1,28,"[1, 2, 3, 4, 5, 7, 8, 9, 10, 11, 12, 13, 14, 15, 16, 17, 18, 19, 20, 21, 22, 23, 24, 25, 26, 27, 28, 29]",300,181,-1,5,94,10,0.0
undo,69,25,0,0,0,23,"[0, 23]",2,23,"[1, 2, 3, 5, 7, 8, 9, 11, 12, 13, 14, 16, 17, 19, 20, 21, 22, 24, 25, 26, 27, 28, 29]",259.7756293,10927,10746,3,33,10,1.0
undo,69,25,0,0,0,19,"[0, 23, 19]",3,21,"[1, 2, 3, 5, 7, 8, 9, 11, 12, 13, 14, 16, 17, 20, 21, 22, 24, 25, 27, 28, 29]",223.9287326,12044,1117,3,24,10,1.583101227007039
undo,69,25,0,0,0,29,"[0, 23, 19, 29]",4,19,"[1, 2, 3, 5, 7, 8, 9, 11, 12, 13, 14, 16, 17, 20, 21, 22, 24, 25, 28]",207.649912,12572,528,3,17,10,1.474631541426484
undo,69,25,0,0,0,22,"[0, 23, 19, 29, 22]",5,18,"[1, 2, 3, 5, 7, 8, 9, 11, 12, 13, 14, 16, 17, 20, 21, 24, 25, 28]",191.5253965,13437,865,3,14,10,1.4020377754906637
undo,69,25,0,0,0,7,"[0, 23, 19, 29, 22, 7]",6,7,"[3, 8, 9, 11, 13, 24, 28]",115.8814939,14276,839,3,11,10,1.5709678649326715
undo,69,25,0,0,0,24,"[0, 23, 19, 29, 22, 7, 24]",7,5,"[3, 8, 9, 13, 28]",91.12265712,16077,1801,3,7,10,1.486191600033379
undo,69,25,0,0,0,9,"[0, 23, 19, 29, 22, 7, 24, 9]",8,4,"[3, 8, 13, 28]",73.09490075,16920,843,3,3,10,1.453504870342882
undo,69,25,0,0,0,3,"[0, 23, 19, 29, 22, 7, 24, 9, 3]",9,3,"[8, 13, 28]",42.82940885,17834,914,3,0,10,1.388955167525479
undo,69,25,0,0,1,28,"[0, 23, 19, 29, 22, 7, 24, 9, 3, 28]",10,0,[],11.52445716,18584,750,1,0,10,1.3331084120212044
undo,69,25,0,1,1,28,"[0, 23, 19, 29, 22, 7, 24, 9, 3, 28]",10,0,[],11.52445716,19230,646,1,0,10,1.3331084120212044
undo,70,44,0,0,0,0,[0],1,29,"[1, 2, 3, 4, 5, 6, 7, 8, 9, 10, 11, 12, 13, 14, 15, 16, 17, 18, 19, 20, 21, 22, 23, 24, 25, 26, 27, 28, 29]",300,180,-1,13,126,7,0.0
undo,70,44,0,0,0,8,"[0, 8]",2,17,"[1, 4, 5, 7, 9, 10, 11, 12, 13, 14, 15, 20, 21, 23, 24, 25, 27]",145.7923478,1670,1490,1,10,7,1.0
undo,70,44,0,0,0,20,"[0, 8, 20]",3,16,"[1, 4, 5, 7, 9, 10, 11, 12, 13, 14, 15, 21, 23, 24, 25, 27]",133.7093018,2343,673,1,9,7,1.0890794433668698
undo,70,44,0,0,0,9,"[0, 8, 20, 9]",4,7,"[4, 7, 11, 12, 14, 23, 24]",76.43801756,3201,858,1,6,7,1.40892325509949
undo,70,44,0,0,0,4,"[0, 8, 20, 9, 4]",5,4,"[7, 12, 23, 24]",56.74030196,3954,753,1,3,7,1.3849770570803555
undo,70,44,0,0,0,7,"[0, 8, 20, 9, 4, 7]",6,1,[23],25.72417712,4526,572,1,0,7,1.3274380931474288
undo,70,44,0,0,1,23,"[0, 8, 20, 9, 4, 7, 23]",7,0,[],6.619203947,5171,645,1,0,7,1.3395824779823196
undo,70,44,0,1,1,23,"[0, 8, 20, 9, 4, 7, 23]",7,0,[],6.619203947,5798,627,1,0,7,1.3395824779823196
undo,71,24,0,0,0,0,[0],1,29,"[1, 2, 3, 4, 5, 6, 7, 8, 9, 10, 11, 12, 13, 14, 15, 16, 17, 18, 19, 20, 21, 22, 23, 24, 25, 26, 27, 28, 29]",300,146,-1,4,76,10,0.0
undo,71,24,0,0,0,16,"[0, 16]",2,28,"[1, 2, 3, 4, 5, 6, 7, 8, 9, 10, 11, 12, 13, 14, 15, 17, 18, 19, 20, 21, 22, 23, 24, 25, 26, 27, 28, 29]",210.3562607,1910,1764,13,110,9,1.0
undo,71,24,0,0,0,22,"[0, 16, 22]",3,27,"[1, 2, 3, 4, 5, 6, 7, 8, 9, 10, 11, 12, 13, 14, 15, 17, 18, 19, 20, 21, 23, 24, 25, 26, 27, 28, 29]",192.3285043,2553,643,7,54,9,1.0217425143037777
undo,71,24,0,0,0,8,"[0, 16, 22, 8]",4,21,"[1, 2, 3, 4, 6, 9, 10, 11, 13, 14, 15, 17, 20, 21, 23, 24, 25, 26, 27, 28, 29]",178.9120964,3103,550,4,28,9,1.0996636936037951
undo,71,24,0,0,0,15,"[0, 16, 22, 8, 15]",5,16,"[3, 4, 6, 9, 10, 11, 13, 14, 17, 23, 24, 25, 26, 27, 28, 29]",148.025206,4026,923,3,17,9,1.2704773343758617
undo,71,24,0,0,0,4,"[0, 16, 22, 8, 15, 4]",6,5,"[3, 23, 26, 28, 29]",97.77582791,4906,880,3,2,8,1.4969304808573367
undo,71,24,0,0,0,26,"[0, 16, 22, 8, 15, 4, 26]",7,1,[3],36.58759374,5796,890,1,0,8,1.3708616167501908
undo,71,24,0,0,1,3,"[0, 16, 22, 8, 15, 4, 26, 3]",8,0,[],16.56260935,6508,712,1,0,8,1.4436872340088691
undo,71,24,0,1,1,3,"[0, 16, 22, 8, 15, 4, 26, 3]",8,0,[],16.56260935,7065,557,1,0,8,1.4436872340088691
undo,72,27,0,0,0,0,[0],1,26,"[1, 3, 5, 6, 7, 8, 9, 10, 11, 12, 13, 14, 15, 16, 17, 18, 19, 21, 22, 23, 24, 25, 26, 27, 28, 29]",300,154,-1,13,578,11,0.0
undo,72,27,0,0,0,15,"[0, 15]",2,24,"[1, 3, 5, 6, 7, 8, 9, 10, 11, 12, 13, 14, 16, 17, 18, 19, 21, 22, 23, 24, 25, 26, 27, 29]",263.7508621,1343,1189,6,219,11,1.0
undo,72,27,0,0,0,24,"[0, 15, 24]",3,20,"[1, 5, 6, 7, 8, 9, 10, 12, 13, 14, 16, 17, 18, 19, 21, 23, 25, 26, 27, 29]",246.5462115,2608,1265,6,130,11,1.130933077698322
undo,72,27,0,0,0,17,"[0, 15, 24, 17]",4,15,"[1, 6, 8, 10, 12, 13, 14, 16, 18, 19, 23, 25, 26, 27, 29]",229.9932662,3248,640,4,60,11,1.1285538435963374
undo,72,27,0,0,0,12,"[0, 15, 24, 17, 12]",5,14,"[1, 6, 8, 10, 13, 14, 16, 18, 19, 23, 25, 26, 27, 29]",218.8129263,4079,831,2,32,11,1.2561880288755216
undo,72,27,0,0,0,10,"[0, 15, 24, 17, 12, 10]",6,11,"[1, 8, 13, 14, 18, 19, 23, 25, 26, 27, 29]",207.7675653,4744,665,2,28,11,1.2228289337766665
undo,72,27,0,0,0,13,"[0, 15, 24, 17, 12, 10, 13]",7,9,"[1, 8, 14, 18, 19, 23, 26, 27, 29]",167.9178476,5576,832,2,18,11,1.3421291994761178
undo,72,27,0,0,0,19,"[0, 15, 24, 17, 12, 10, 13, 19]",8,5,"[1, 8, 14, 23, 29]",131.6825057,6403,827,2,6,11,1.294749956153846
undo,72,27,0,0,0,8,"[0, 15, 24, 17, 12, 10, 13, 19, 8]",9,3,"[14, 23, 29]",116.816437,7086,683,2,1,11,1.3554286578836865
undo,72,27,0,0,0,29,"[0, 15, 24, 17, 12, 10, 13, 19, 8, 29]",10,1,[14],57.61339652,8139,1053,1,0,11,1.248354519573802
undo,72,27,0,0,1,14,"[0, 15, 24, 17, 12, 10, 13, 19, 8, 29, 14]",11,0,[],13.31892734,8953,814,1,0,11,1.562811097555156
undo,72,27,0,1,1,14,"[0, 15, 24, 17, 12, 10, 13, 19, 8, 29, 14]",11,0,[],13.31892734,9513,560,1,0,11,1.562811097555156
undo,73,12,0,0,0,0,[0],1,29,"[1, 2, 3, 4, 5, 6, 7, 8, 9, 10, 11, 12, 13, 14, 15, 16, 17, 18, 19, 20, 21, 22, 23, 24, 25, 26, 27, 28, 29]",300,159,-1,2,32,9,0.0
undo,73,12,0,0,0,18,"[0, 18]",2,12,"[1, 2, 3, 5, 6, 7, 9, 11, 15, 17, 20, 21]",149.9166898,1396,1237,1,6,7,1.0
undo,73,12,0,0,0,21,"[0, 18, 21]",3,7,"[1, 3, 5, 9, 11, 15, 17]",133.6378692,1961,565,1,4,7,1.0169396745301669
undo,73,12,0,0,0,15,"[0, 18, 21, 15]",4,4,"[1, 5, 11, 17]",78.56518995,2712,751,1,3,7,1.1718752316940058
undo,73,12,0,0,0,17,"[0, 18, 21, 15, 17]",5,2,"[1, 11]",62.07276745,3111,399,1,1,7,1.219114137966991
undo,73,12,0,0,1,1,"[0, 18, 21, 15, 17, 1]",6,0,[],12.90977324,3978,867,1,0,6,1.1815112959538385
undo,73,12,0,1,1,1,"[0, 18, 21, 15, 17, 1]",6,0,[],12.90977324,5081,1103,1,0,6,1.1815112959538385
undo,74,14,0,0,0,0,[0],1,29,"[1, 2, 3, 4, 5, 6, 7, 8, 9, 10, 11, 12, 13, 14, 15, 16, 17, 18, 19, 20, 21, 22, 23, 24, 25, 26, 27, 28, 29]",300,147,-1,8,157,10,0.0
undo,74,14,0,0,0,15,"[0, 15]",2,20,"[1, 2, 3, 4, 7, 8, 9, 13, 17, 18, 19, 20, 21, 22, 23, 25, 26, 27, 28, 29]",216.7053423,2310,2163,8,102,10,1.0
undo,74,14,0,0,0,18,"[0, 15, 18]",3,13,"[1, 2, 4, 7, 8, 13, 17, 19, 20, 23, 25, 26, 28]",153.6418822,3316,1006,26,101,9,1.2185936334127205
undo,74,14,0,0,0,8,"[0, 15, 18, 8]",4,10,"[1, 2, 4, 7, 17, 19, 23, 25, 26, 28]",140.0404117,3888,572,26,60,9,1.2207454945880838
undo,74,14,0,0,0,1,"[0, 15, 18, 8, 1]",5,9,"[2, 4, 7, 17, 19, 23, 25, 26, 28]",116.4395643,4944,1056,13,25,9,1.1871302560279655
undo,74,14,0,0,0,19,"[0, 15, 18, 8, 1, 19]",6,7,"[2, 4, 7, 17, 23, 25, 26]",101.208018,5578,634,11,8,9,1.3443864386012363
undo,74,14,0,0,0,23,"[0, 15, 18, 8, 1, 19, 23]",7,4,"[4, 7, 25, 26]",56.9361308,6304,726,4,1,9,1.293094159713875
undo,74,14,0,0,0,26,"[0, 15, 18, 8, 1, 19, 23, 26]",8,2,"[7, 25]",46.11947697,6977,673,2,0,9,1.2796488356473856
undo,74,14,0,0,1,25,"[0, 15, 18, 8, 1, 19, 23, 26, 25]",9,0,[],6.194547419,7706,729,1,0,9,1.7949703705551052
undo,74,14,0,1,1,25,"[0, 15, 18, 8, 1, 19, 23, 26, 25]",9,0,[],6.194547419,8329,623,1,0,9,1.7949703705551052
undo,75,13,0,0,0,0,[0],1,29,"[1, 2, 3, 4, 5, 6, 7, 8, 9, 10, 11, 12, 13, 14, 15, 16, 17, 18, 19, 20, 21, 22, 23, 24, 25, 26, 27, 28, 29]",300,172,-1,60,2676,11,0.0
undo,75,13,0,0,0,24,"[0, 24]",2,28,"[1, 2, 3, 4, 5, 6, 7, 8, 9, 10, 11, 12, 13, 14, 15, 16, 17, 18, 19, 20, 21, 22, 23, 25, 26, 27, 28, 29]",288.8196601,1387,1215,16,1444,11,1.0
undo,75,13,0,0,0,23,"[0, 24, 23]",3,27,"[1, 2, 3, 4, 5, 6, 7, 8, 9, 10, 11, 12, 13, 14, 15, 16, 17, 18, 19, 20, 21, 22, 25, 26, 27, 28, 29]",243.1140806,2063,676,2,868,11,1.0065545717039834
undo,75,13,0,0,0,26,"[0, 24, 23, 26]",4,20,"[1, 2, 3, 4, 6, 7, 9, 11, 12, 13, 15, 16, 17, 19, 20, 21, 22, 27, 28, 29]",183.574178,2886,823,156,611,10,1.2169355597123794
undo,75,13,0,0,0,7,"[0, 24, 23, 26, 7]",5,18,"[1, 2, 3, 4, 6, 9, 11, 12, 13, 15, 16, 17, 19, 20, 21, 27, 28, 29]",173.1338715,3379,493,51,171,10,1.2052462995800861
undo,75,13,0,0,0,29,"[0, 24, 23, 26, 7, 29]",6,17,"[1, 2, 3, 4, 6, 9, 11, 12, 13, 15, 16, 17, 19, 20, 21, 27, 28]",157.869534,3834,455,17,53,10,1.2769357721237986
undo,75,13,0,0,0,2,"[0, 24, 23, 26, 7, 29, 2]",7,13,"[1, 3, 6, 9, 11, 12, 13, 15, 16, 17, 19, 21, 28]",146.1648341,4454,620,9,22,10,1.4037317419248252
undo,75,13,0,0,0,6,"[0, 24, 23, 26, 7, 29, 2, 6]",8,5,"[11, 13, 16, 17, 28]",99.93713673,5327,873,3,4,10,1.8425869722601298
undo,75,13,0,0,0,11,"[0, 24, 23, 26, 7, 29, 2, 6, 11]",9,3,"[13, 17, 28]",80.83216356,6010,683,3,0,10,1.7181313118132584
undo,75,13,0,0,1,13,"[0, 24, 23, 26, 7, 29, 2, 6, 11, 13]",10,0,[],24.75186398,6845,835,1,0,10,1.516823734126914
undo,75,13,0,1,1,13,"[0, 24, 23, 26, 7, 29, 2, 6, 11, 13]",10,0,[],24.75186398,8463,1618,1,0,10,1.516823734126914
undo,76,7,0,0,0,0,[0],1,29,"[1, 2, 3, 4, 5, 6, 7, 8, 9, 10, 11, 12, 13, 14, 15, 16, 17, 18, 19, 20, 21, 22, 23, 24, 25, 26, 27, 28, 29]",300,183,-1,3,79,9,0.0
undo,76,7,0,0,0,10,"[0, 10]",2,13,"[1, 5, 11, 12, 14, 16, 17, 22, 23, 24, 26, 27, 29]",160.5116492,1313,1130,1,16,6,1.0
undo,76,7,0,0,0,11,"[0, 10, 11]",3,6,"[5, 12, 14, 17, 26, 29]",118.7264844,1864,551,5,2,5,1.00181697820051
undo,76,7,0,0,0,29,"[0, 10, 11, 29]",4,2,"[5, 26]",91.43179627,2545,681,2,0,5,1.002268528947587
undo,76,7,0,0,1,26,"[0, 10, 11, 29, 26]",5,0,[],48.98182572,6172,3627,1,0,5,1.0254441607221694
undo,76,7,1,0,0,29,"[0, 10, 11, 29]",4,2,"[5, 26]",91.43179627,8065,1893,2,0,5,1.002268528947587
undo,76,7,1,0,0,11,"[0, 10, 11]",3,6,"[5, 12, 14, 17, 26, 29]",118.7264844,8215,150,5,2,5,1.00181697820051
undo,76,7,1,0,0,10,"[0, 10]",2,13,"[1, 5, 11, 12, 14, 16, 17, 22, 23, 24, 26, 27, 29]",160.5116492,8348,133,1,16,6,1.0
undo,76,7,1,0,0,0,[0],1,29,"[1, 2, 3, 4, 5, 6, 7, 8, 9, 10, 11, 12, 13, 14, 15, 16, 17, 18, 19, 20, 21, 22, 23, 24, 25, 26, 27, 28, 29]",300,8499,151,3,79,9,0.0
undo,76,7,0,0,0,6,"[0, 6]",2,22,"[2, 4, 5, 7, 8, 9, 10, 11, 13, 14, 15, 16, 18, 19, 20, 21, 22, 23, 24, 25, 27, 28]",231.1160396,9998,1499,1,24,9,1.0
undo,76,7,0,0,0,25,"[0, 6, 25]",3,14,"[2, 4, 5, 7, 13, 14, 15, 16, 18, 19, 20, 21, 23, 28]",163.9371739,10758,760,1,15,9,1.1491202566384209
undo,76,7,0,0,0,4,"[0, 6, 25, 4]",4,10,"[2, 7, 13, 15, 16, 18, 19, 20, 21, 23]",139.1985401,11288,530,1,9,9,1.145081852791697
undo,76,7,0,0,0,20,"[0, 6, 25, 4, 20]",5,6,"[2, 7, 13, 16, 18, 19]",119.5516574,11825,537,1,4,9,1.2036846139155144
undo,76,7,0,0,0,18,"[0, 6, 25, 4, 20, 18]",6,5,"[2, 7, 13, 16, 19]",106.7454089,12489,664,1,3,9,1.3498144584217913
undo,76,7,0,0,0,7,"[0, 6, 25, 4, 20, 18, 7]",7,2,"[2, 19]",65.51435269,13297,808,1,1,9,1.2817825700699357
undo,76,7,0,0,0,19,"[0, 6, 25, 4, 20, 18, 7, 19]",8,1,[2],36.10347035,14140,843,1,0,9,1.3950287830764145
undo,76,7,0,0,1,2,"[0, 6, 25, 4, 20, 18, 7, 19, 2]",9,0,[],5.953843486,14846,706,1,0,9,1.4010142439340676
undo,76,7,0,1,1,2,"[0, 6, 25, 4, 20, 18, 7, 19, 2]",9,0,[],5.953843486,15465,619,1,0,9,1.4010142439340676
undo,77,29,0,0,0,0,[0],1,29,"[1, 2, 3, 4, 5, 6, 7, 8, 9, 10, 11, 12, 13, 14, 15, 16, 17, 18, 19, 20, 21, 22, 23, 24, 25, 26, 27, 28, 29]",300,181,-1,1,78,9,0.0
undo,77,29,0,0,0,14,"[0, 14]",2,22,"[1, 3, 4, 5, 6, 7, 9, 10, 11, 12, 13, 15, 16, 17, 21, 22, 23, 25, 26, 27, 28, 29]",209.490332,1328,1147,21,110,8,1.0
