condition,trial_id,map_id,undoIndicator,submit,checkEnd,currentChoice,chosen_all,n_city_all,n_within_reach,cities_reach,currentBudget,time_all,rt_all,n_opt_paths_all,n_subopt_paths_all,mas_all,tortuosity_all
basic,0,2,0,0,0,0,[0],1,23,"[1, 2, 4, 5, 6, 7, 8, 9, 12, 13, 15, 16, 17, 18, 19, 20, 22, 23, 25, 26, 27, 28, 29]",300,1296,-1,70,620,10,0.0
basic,0,2,0,0,0,19,"[0, 19]",2,22,"[1, 2, 4, 5, 6, 7, 8, 9, 12, 13, 15, 16, 17, 18, 20, 22, 23, 25, 26, 27, 28, 29]",210.306076,6813,5517,67,431,10,1.0
basic,0,2,0,0,0,12,"[0, 19, 12]",3,17,"[1, 4, 5, 6, 7, 13, 15, 16, 17, 18, 20, 22, 25, 26, 27, 28, 29]",174.2921898,10815,4002,66,298,10,1.1107635036313153
basic,0,2,0,0,0,5,"[0, 19, 12, 5]",4,11,"[1, 6, 7, 13, 15, 16, 18, 22, 25, 26, 29]",144.7625437,12982,2167,38,136,10,1.0968174771581647
basic,0,2,0,0,0,22,"[0, 19, 12, 5, 22]",5,8,"[1, 6, 7, 13, 15, 18, 26, 29]",131.9562952,14147,1165,20,63,10,1.0889910507461968
basic,0,2,0,0,0,13,"[0, 19, 12, 5, 22, 13]",6,7,"[1, 6, 7, 15, 18, 26, 29]",117.0902265,15882,1735,19,20,10,1.236526217328057
basic,0,2,0,0,0,18,"[0, 19, 12, 5, 22, 13, 18]",7,4,"[7, 15, 26, 29]",81.91921567,17127,1245,10,3,10,1.2128708213409936
basic,0,2,0,0,0,7,"[0, 19, 12, 5, 22, 13, 18, 7]",8,3,"[15, 26, 29]",71.62358553,18854,1727,5,0,10,1.2019811287894737
basic,0,2,0,0,0,15,"[0, 19, 12, 5, 22, 13, 18, 7, 15]",9,2,"[26, 29]",56.85876247,20071,1217,2,0,10,1.2907869828541363
basic,0,2,0,0,1,29,"[0, 19, 12, 5, 22, 13, 18, 7, 15, 29]",10,0,[],28.39826353,26328,6257,1,0,10,1.4795089334237532
basic,0,2,0,1,1,29,"[0, 19, 12, 5, 22, 13, 18, 7, 15, 29]",10,0,[],28.39826353,28524,2196,1,0,10,1.4795089334237532
basic,1,14,0,0,0,0,[0],1,29,"[1, 2, 3, 4, 5, 6, 7, 8, 9, 10, 11, 12, 13, 14, 15, 16, 17, 18, 19, 20, 21, 22, 23, 24, 25, 26, 27, 28, 29]",300,418,-1,8,157,10,0.0
basic,1,14,0,0,0,15,"[0, 15]",2,20,"[1, 2, 3, 4, 7, 8, 9, 13, 17, 18, 19, 20, 21, 22, 23, 25, 26, 27, 28, 29]",216.7053423,5100,4682,8,102,10,1.0
basic,1,14,0,0,0,28,"[0, 15, 28]",3,17,"[1, 2, 3, 4, 7, 8, 9, 13, 17, 18, 19, 20, 22, 23, 25, 26, 27]",197.4959696,6734,1634,8,48,10,1.0446007867311968
basic,1,14,0,0,0,17,"[0, 15, 28, 17]",4,14,"[1, 2, 3, 4, 7, 8, 13, 18, 19, 20, 22, 23, 25, 26]",184.0423455,8409,1675,8,39,10,1.0729463354689972
basic,1,14,0,0,0,18,"[0, 15, 28, 17, 18]",5,9,"[1, 2, 4, 7, 8, 19, 23, 25, 26]",119.412631,10632,2223,8,27,10,1.5035901079219378
basic,1,14,0,0,0,8,"[0, 15, 28, 17, 18, 8]",6,8,"[1, 2, 4, 7, 19, 23, 25, 26]",105.8111605,11443,811,8,18,10,1.4819689987843856
basic,1,14,0,0,0,19,"[0, 15, 28, 17, 18, 8, 19]",7,5,"[1, 7, 23, 25, 26]",85.19563238,14231,2788,4,9,10,1.4526746797093781
basic,1,14,0,0,0,23,"[0, 15, 28, 17, 18, 8, 19, 23]",8,3,"[7, 25, 26]",40.92374514,17732,3501,3,0,9,1.3782796809029378
basic,1,14,0,0,1,26,"[0, 15, 28, 17, 18, 8, 19, 23, 26]",9,0,[],30.10709131,19865,2133,1,0,9,1.360356998767621
basic,1,14,0,1,1,26,"[0, 15, 28, 17, 18, 8, 19, 23, 26]",9,0,[],30.10709131,21406,1541,1,0,9,1.360356998767621
basic,2,22,0,0,0,0,[0],1,29,"[1, 2, 3, 4, 5, 6, 7, 8, 9, 10, 11, 12, 13, 14, 15, 16, 17, 18, 19, 20, 21, 22, 23, 24, 25, 26, 27, 28, 29]",300,1542,-1,31,704,9,0.0
basic,2,22,0,0,0,29,"[0, 29]",2,22,"[1, 3, 5, 6, 7, 8, 9, 11, 13, 14, 15, 16, 17, 19, 20, 21, 22, 23, 24, 25, 27, 28]",222.9935068,5302,3760,11,235,9,1.0
basic,2,22,0,0,0,19,"[0, 29, 19]",3,18,"[1, 3, 6, 7, 8, 9, 13, 14, 15, 16, 17, 20, 21, 22, 23, 24, 25, 28]",207.9602104,10568,5266,11,172,9,1.1559285443414686
basic,2,22,0,0,0,7,"[0, 29, 19, 7]",4,14,"[1, 3, 6, 8, 9, 13, 14, 15, 16, 17, 20, 21, 24, 28]",161.6892692,12108,1540,2,38,9,1.0997496152822535
basic,2,22,0,0,0,14,"[0, 29, 19, 7, 14]",5,12,"[1, 3, 6, 9, 13, 15, 16, 17, 20, 21, 24, 28]",148.6508644,14191,2083,2,24,9,1.1683447899109163
basic,2,22,0,0,0,9,"[0, 29, 19, 7, 14, 9]",6,5,"[6, 16, 17, 24, 28]",105.6043779,15303,1112,2,4,9,2.1706974496486087
basic,2,22,0,0,0,6,"[0, 29, 19, 7, 14, 9, 6]",7,2,"[16, 28]",78.97732396,17792,2489,2,0,9,2.4941297009110435
basic,2,22,0,0,0,28,"[0, 29, 19, 7, 14, 9, 6, 28]",8,1,[16],48.97732396,20564,2772,1,0,9,2.269585076984223
basic,2,22,0,0,1,16,"[0, 29, 19, 7, 14, 9, 6, 28, 16]",9,0,[],14.53897325,22075,1511,1,0,9,3.507146295578618
basic,2,22,0,1,1,16,"[0, 29, 19, 7, 14, 9, 6, 28, 16]",9,0,[],14.53897325,29897,7822,1,0,9,3.507146295578618
basic,3,27,0,0,0,0,[0],1,26,"[1, 3, 5, 6, 7, 8, 9, 10, 11, 12, 13, 14, 15, 16, 17, 18, 19, 21, 22, 23, 24, 25, 26, 27, 28, 29]",300,1926,-1,13,578,11,0.0
basic,3,27,0,0,0,15,"[0, 15]",2,24,"[1, 3, 5, 6, 7, 8, 9, 10, 11, 12, 13, 14, 16, 17, 18, 19, 21, 22, 23, 24, 25, 26, 27, 29]",263.7508621,5409,3483,6,219,11,1.0
basic,3,27,0,0,0,24,"[0, 15, 24]",3,20,"[1, 5, 6, 7, 8, 9, 10, 12, 13, 14, 16, 17, 18, 19, 21, 23, 25, 26, 27, 29]",246.5462115,6965,1556,6,130,11,1.130933077698322
basic,3,27,0,0,0,17,"[0, 15, 24, 17]",4,15,"[1, 6, 8, 10, 12, 13, 14, 16, 18, 19, 23, 25, 26, 27, 29]",229.9932662,9337,2372,4,60,11,1.1285538435963374
basic,3,27,0,0,0,12,"[0, 15, 24, 17, 12]",5,14,"[1, 6, 8, 10, 13, 14, 16, 18, 19, 23, 25, 26, 27, 29]",218.8129263,10840,1503,2,32,11,1.2561880288755216
basic,3,27,0,0,0,10,"[0, 15, 24, 17, 12, 10]",6,11,"[1, 8, 13, 14, 18, 19, 23, 25, 26, 27, 29]",207.7675653,13167,2327,2,28,11,1.2228289337766665
basic,3,27,0,0,0,13,"[0, 15, 24, 17, 12, 10, 13]",7,9,"[1, 8, 14, 18, 19, 23, 26, 27, 29]",167.9178476,15694,2527,2,18,11,1.3421291994761178
basic,3,27,0,0,0,19,"[0, 15, 24, 17, 12, 10, 13, 19]",8,5,"[1, 8, 14, 23, 29]",131.6825057,18589,2895,2,6,11,1.294749956153846
basic,3,27,0,0,0,8,"[0, 15, 24, 17, 12, 10, 13, 19, 8]",9,3,"[14, 23, 29]",116.816437,20252,1663,2,1,11,1.3554286578836865
basic,3,27,0,0,1,23,"[0, 15, 24, 17, 12, 10, 13, 19, 8, 23]",10,0,[],45.97859399,21726,1474,1,0,10,3.3397859539241304
basic,3,27,0,1,1,23,"[0, 15, 24, 17, 12, 10, 13, 19, 8, 23]",10,0,[],45.97859399,29507,7781,1,0,10,3.3397859539241304
basic,4,6,0,0,0,0,[0],1,29,"[1, 2, 3, 4, 5, 6, 7, 8, 9, 10, 11, 12, 13, 14, 15, 16, 17, 18, 19, 20, 21, 22, 23, 24, 25, 26, 27, 28, 29]",300,481,-1,180,4304,10,0.0
basic,4,6,0,0,0,3,"[0, 3]",2,28,"[1, 2, 4, 5, 6, 7, 8, 9, 10, 11, 12, 13, 14, 15, 16, 17, 18, 19, 20, 21, 22, 23, 24, 25, 26, 27, 28, 29]",266.4738908,11636,11155,90,1607,10,1.0
basic,4,6,0,0,0,10,"[0, 3, 10]",3,27,"[1, 2, 4, 5, 6, 7, 8, 9, 11, 12, 13, 14, 15, 16, 17, 18, 19, 20, 21, 22, 23, 24, 25, 26, 27, 28, 29]",215.2293789,14622,2986,8,136,10,1.0050517746249001
basic,4,6,0,0,0,24,"[0, 3, 10, 24]",4,23,"[1, 2, 4, 5, 6, 7, 8, 11, 13, 14, 16, 17, 18, 19, 20, 21, 22, 23, 25, 26, 27, 28, 29]",201.812971,15721,1099,8,85,10,1.0091851911500884
basic,4,6,0,0,0,17,"[0, 3, 10, 24, 17]",5,19,"[1, 2, 4, 5, 6, 7, 8, 11, 13, 14, 16, 18, 20, 21, 22, 23, 26, 27, 29]",172.5384087,17270,1549,8,53,10,1.8060138032707682
basic,4,6,0,0,0,18,"[0, 3, 10, 24, 17, 18]",6,15,"[1, 2, 6, 7, 8, 13, 14, 16, 20, 21, 22, 23, 26, 27, 29]",158.6100204,18914,1644,7,36,10,2.3216150751946008
basic,4,6,0,0,0,16,"[0, 3, 10, 24, 17, 18, 16]",7,13,"[1, 2, 6, 7, 13, 14, 20, 21, 22, 23, 26, 27, 29]",135.2647853,22245,3331,7,21,10,2.2822729587843544
basic,4,6,0,0,0,29,"[0, 3, 10, 24, 17, 18, 16, 29]",8,7,"[6, 14, 20, 21, 22, 23, 27]",98.57691268,23967,1722,6,4,10,1.8911507070056388
basic,4,6,0,0,0,23,"[0, 3, 10, 24, 17, 18, 16, 29, 23]",9,2,"[6, 22]",51.05849519,25421,1454,2,0,10,1.8549852217940308
basic,4,6,0,0,1,6,"[0, 3, 10, 24, 17, 18, 16, 29, 23, 6]",10,0,[],15.70315613,27156,1735,1,0,10,1.7651720921259988
basic,4,6,0,1,1,6,"[0, 3, 10, 24, 17, 18, 16, 29, 23, 6]",10,0,[],15.70315613,29200,2044,1,0,10,1.7651720921259988
basic,5,21,0,0,0,0,[0],1,29,"[1, 2, 3, 4, 5, 6, 7, 8, 9, 10, 11, 12, 13, 14, 15, 16, 17, 18, 19, 20, 21, 22, 23, 24, 25, 26, 27, 28, 29]",300,1684,-1,84,830,9,0.0
basic,5,21,0,0,0,25,"[0, 25]",2,26,"[1, 2, 3, 4, 5, 6, 7, 8, 9, 10, 11, 12, 13, 14, 15, 16, 17, 18, 20, 21, 22, 23, 24, 26, 27, 29]",240.1836143,10994,9310,30,238,9,1.0
basic,5,21,0,0,0,23,"[0, 25, 23]",3,21,"[1, 2, 4, 6, 7, 8, 9, 10, 11, 12, 14, 15, 16, 17, 18, 20, 21, 22, 24, 27, 29]",196.8592562,16561,5567,14,80,9,1.0416131642057598
basic,5,21,0,0,0,21,"[0, 25, 23, 21]",4,14,"[1, 4, 6, 8, 9, 14, 15, 16, 17, 18, 20, 22, 24, 29]",167.2450705,18174,1613,10,25,9,1.4768792067751173
basic,5,21,0,0,0,14,"[0, 25, 23, 21, 14]",5,10,"[4, 8, 9, 15, 16, 17, 18, 22, 24, 29]",141.6325735,19606,1432,8,13,9,1.3826076066332742
basic,5,21,0,0,0,4,"[0, 25, 23, 21, 14, 4]",6,7,"[8, 15, 16, 17, 18, 24, 29]",127.4904379,21822,2216,8,3,9,1.3487191473328533
basic,5,21,0,0,0,16,"[0, 25, 23, 21, 14, 4, 16]",7,3,"[8, 15, 24]",82.89223163,23993,2171,4,1,9,1.3301484172843694
basic,5,21,0,0,0,8,"[0, 25, 23, 21, 14, 4, 16, 8]",8,2,"[15, 24]",64.2911564,25979,1986,2,0,9,1.3009886562393016
basic,5,21,0,0,1,15,"[0, 25, 23, 21, 14, 4, 16, 8, 15]",9,0,[],39.2911564,28845,2866,1,0,9,1.5486591410600183
basic,5,21,0,1,1,15,"[0, 25, 23, 21, 14, 4, 16, 8, 15]",9,0,[],39.2911564,33721,4876,1,0,9,1.5486591410600183
basic,6,42,0,0,0,0,[0],1,29,"[1, 2, 3, 4, 5, 6, 7, 8, 9, 10, 11, 12, 13, 14, 15, 16, 17, 18, 19, 20, 21, 22, 23, 24, 25, 26, 27, 28, 29]",300,1389,-1,16,302,9,0.0
basic,6,42,0,0,0,5,"[0, 5]",2,28,"[1, 2, 3, 4, 6, 7, 8, 9, 10, 11, 12, 13, 14, 15, 16, 17, 18, 19, 20, 21, 22, 23, 24, 25, 26, 27, 28, 29]",191.2939744,5481,4092,1,22,9,1.0
basic,6,42,0,0,0,4,"[0, 5, 4]",3,23,"[1, 2, 3, 6, 7, 8, 9, 10, 11, 13, 15, 17, 18, 19, 20, 21, 22, 23, 24, 25, 26, 27, 29]",171.4445412,7293,1812,1,14,9,1.420957801478707
basic,6,42,0,0,0,22,"[0, 5, 4, 22]",4,20,"[1, 2, 3, 6, 7, 8, 9, 11, 15, 17, 18, 19, 20, 21, 23, 24, 25, 26, 27, 29]",160.2642013,9385,2092,1,11,9,1.5771494659680896
basic,6,42,0,0,0,8,"[0, 5, 4, 22, 8]",5,14,"[1, 2, 3, 6, 7, 11, 15, 18, 19, 24, 25, 26, 27, 29]",138.1282577,10498,1113,1,10,9,1.5055393955524201
basic,6,42,0,0,0,1,"[0, 5, 4, 22, 8, 1]",6,5,"[2, 7, 19, 26, 27]",89.03650682,12444,1946,1,7,9,1.3547259083637835
basic,6,42,0,0,0,7,"[0, 5, 4, 22, 8, 1, 7]",7,4,"[2, 19, 26, 27]",59.03650682,16517,4073,1,3,9,1.3909715672447451
basic,6,42,0,0,0,26,"[0, 5, 4, 22, 8, 1, 7, 26]",8,1,[27],32.46584631,21416,4899,1,0,9,1.3511825943939393
basic,6,42,0,0,1,27,"[0, 5, 4, 22, 8, 1, 7, 26, 27]",9,0,[],14.43808994,22680,1264,1,0,9,1.3391911688802078
basic,6,42,0,1,1,27,"[0, 5, 4, 22, 8, 1, 7, 26, 27]",9,0,[],14.43808994,24598,1918,1,0,9,1.3391911688802078
basic,7,41,0,0,0,0,[0],1,29,"[1, 2, 3, 4, 5, 6, 7, 8, 9, 10, 11, 12, 13, 14, 15, 16, 17, 18, 19, 20, 21, 22, 23, 24, 25, 26, 27, 28, 29]",300,1129,-1,1,143,10,0.0
basic,7,41,0,0,0,13,"[0, 13]",2,23,"[1, 2, 3, 5, 6, 7, 9, 10, 11, 12, 14, 15, 17, 18, 19, 20, 21, 22, 24, 25, 26, 27, 28]",258.2747079,8969,7840,1,55,10,1.0
basic,7,41,0,0,0,28,"[0, 13, 28]",3,22,"[1, 2, 3, 5, 6, 7, 9, 10, 11, 12, 14, 15, 17, 18, 19, 20, 21, 22, 24, 25, 26, 27]",223.7928286,9983,1014,1,39,10,1.895724242592676
basic,7,41,0,0,0,5,"[0, 13, 28, 5]",4,19,"[1, 2, 3, 6, 9, 10, 11, 12, 14, 15, 17, 18, 19, 20, 21, 22, 24, 25, 27]",210.1913581,10904,921,1,34,10,2.861541269398273
basic,7,41,0,0,0,3,"[0, 13, 28, 5, 3]",5,16,"[1, 2, 6, 9, 10, 12, 14, 17, 18, 19, 20, 21, 22, 24, 25, 27]",175.3632086,13409,2505,1,22,10,3.1455488489005883
basic,7,41,0,0,0,21,"[0, 13, 28, 5, 3, 21]",6,14,"[1, 2, 6, 9, 10, 12, 14, 17, 18, 19, 20, 22, 25, 27]",143.2228912,15823,2414,13,11,9,3.207558429289677
basic,7,41,0,0,0,17,"[0, 13, 28, 5, 3, 21, 17]",7,3,"[2, 9, 10]",91.5605258,17130,1307,2,1,9,3.2883270328778007
basic,7,41,0,0,0,9,"[0, 13, 28, 5, 3, 21, 17, 9]",8,1,[2],60.54440096,19435,2305,1,0,9,2.9098226601812454
basic,7,41,0,0,1,2,"[0, 13, 28, 5, 3, 21, 17, 9, 2]",9,0,[],48.46135498,21098,1663,1,0,9,2.780153959656953
basic,7,41,0,1,1,2,"[0, 13, 28, 5, 3, 21, 17, 9, 2]",9,0,[],48.46135498,23380,2282,1,0,9,2.780153959656953
basic,8,28,0,0,0,0,[0],1,27,"[1, 2, 3, 4, 5, 6, 7, 8, 9, 10, 11, 12, 13, 14, 15, 16, 17, 18, 19, 20, 22, 23, 25, 26, 27, 28, 29]",300,607,-1,2,96,9,0.0
basic,8,28,0,0,0,14,"[0, 14]",2,14,"[1, 2, 3, 5, 7, 10, 11, 12, 13, 17, 18, 19, 20, 26]",147.8914861,6216,5609,1,26,8,1.0
basic,8,28,0,0,0,18,"[0, 14, 18]",3,11,"[1, 2, 3, 5, 7, 11, 12, 13, 17, 19, 26]",122.3963885,7585,1369,1,23,8,1.0675599824559303
basic,8,28,0,0,0,13,"[0, 14, 18, 13]",4,7,"[2, 7, 11, 12, 17, 19, 26]",97.9832773,8822,1237,1,9,8,1.0602397944415018
basic,8,28,0,0,0,12,"[0, 14, 18, 13, 12]",5,4,"[2, 7, 17, 19]",80.77862677,10930,2108,1,3,8,1.0640685934245377
basic,8,28,0,0,0,7,"[0, 14, 18, 13, 12, 7]",6,2,"[2, 19]",67.62568033,14206,3276,1,1,8,1.186262804928269
basic,8,28,0,0,0,19,"[0, 14, 18, 13, 12, 7, 19]",7,1,[2],39.89483108,16012,1806,1,0,8,1.424576333867947
basic,8,28,0,0,1,2,"[0, 14, 18, 13, 12, 7, 19, 2]",8,0,[],2.531747699,17536,1524,1,0,8,1.4824387893309579
basic,8,28,0,1,1,2,"[0, 14, 18, 13, 12, 7, 19, 2]",8,0,[],2.531747699,26703,9167,1,0,8,1.4824387893309579
basic,9,40,0,0,0,0,[0],1,29,"[1, 2, 3, 4, 5, 6, 7, 8, 9, 10, 11, 12, 13, 14, 15, 16, 17, 18, 19, 20, 21, 22, 23, 24, 25, 26, 27, 28, 29]",300,1643,-1,8,191,9,0.0
basic,9,40,0,0,0,1,"[0, 1]",2,18,"[2, 5, 6, 7, 8, 9, 10, 11, 13, 15, 17, 18, 19, 21, 22, 23, 27, 29]",247.8463808,6292,4649,4,80,9,1.0
basic,9,40,0,0,0,6,"[0, 1, 6]",3,17,"[2, 5, 7, 8, 9, 10, 11, 13, 15, 17, 18, 19, 21, 22, 23, 27, 29]",227.7466295,7375,1083,4,74,9,1.0459427008232034
basic,9,40,0,0,0,21,"[0, 1, 6, 21]",4,8,"[2, 5, 9, 17, 18, 19, 22, 23]",175.7754837,8943,1568,4,25,9,1.0308822257404064
basic,9,40,0,0,0,9,"[0, 1, 6, 21, 9]",5,6,"[2, 5, 18, 19, 22, 23]",130.0699041,10318,1375,4,12,9,1.377861912961129
basic,9,40,0,0,0,18,"[0, 1, 6, 21, 9, 18]",6,5,"[2, 5, 19, 22, 23]",113.5169588,11068,750,4,4,9,1.5742712168661408
basic,9,40,0,0,0,23,"[0, 1, 6, 21, 9, 18, 23]",7,3,"[2, 5, 19]",79.51695879,13151,2083,2,1,9,2.324611956726637
basic,9,40,0,0,0,5,"[0, 1, 6, 21, 9, 18, 23, 5]",8,1,[19],51.21501539,14471,1320,1,0,9,2.022909590433451
basic,9,40,0,0,1,19,"[0, 1, 6, 21, 9, 18, 23, 5, 19]",9,0,[],13.13614986,15197,726,1,0,9,2.796177718843732
basic,9,40,0,1,1,19,"[0, 1, 6, 21, 9, 18, 23, 5, 19]",9,0,[],13.13614986,17815,2618,1,0,9,2.796177718843732
basic,10,24,0,0,0,0,[0],1,29,"[1, 2, 3, 4, 5, 6, 7, 8, 9, 10, 11, 12, 13, 14, 15, 16, 17, 18, 19, 20, 21, 22, 23, 24, 25, 26, 27, 28, 29]",300,1391,-1,4,76,10,0.0
basic,10,24,0,0,0,14,"[0, 14]",2,27,"[1, 2, 3, 4, 5, 6, 8, 9, 10, 11, 12, 13, 15, 16, 17, 18, 19, 20, 21, 22, 23, 24, 25, 26, 27, 28, 29]",278.0455016,6154,4763,4,54,10,1.0
basic,10,24,0,0,0,16,"[0, 14, 16]",3,25,"[2, 3, 4, 5, 6, 8, 9, 10, 11, 12, 13, 15, 17, 18, 19, 20, 21, 22, 23, 24, 25, 26, 27, 28, 29]",188.9949542,8559,2405,4,31,10,1.238291113657358
basic,10,24,0,0,0,22,"[0, 14, 16, 22]",4,20,"[2, 3, 4, 6, 8, 9, 10, 11, 13, 15, 17, 20, 21, 23, 24, 25, 26, 27, 28, 29]",170.9671978,9688,1129,2,14,10,1.2244494133788653
basic,10,24,0,0,0,8,"[0, 14, 16, 22, 8]",5,15,"[2, 3, 4, 6, 9, 10, 11, 13, 15, 23, 24, 26, 27, 28, 29]",157.5507899,11416,1728,2,10,10,1.2936570860700658
basic,10,24,0,0,0,15,"[0, 14, 16, 22, 8, 15]",6,11,"[3, 4, 6, 9, 10, 11, 23, 26, 27, 28, 29]",126.6638995,13072,1656,2,8,10,1.4490533667994079
basic,10,24,0,0,0,4,"[0, 14, 16, 22, 8, 15, 4]",7,3,"[3, 26, 28]",76.41452139,14952,1880,3,0,8,1.655053965850483
basic,10,24,0,0,1,26,"[0, 14, 16, 22, 8, 15, 4, 26]",8,0,[],15.22628722,16160,1208,1,0,8,1.482031001699355
basic,10,24,0,1,1,26,"[0, 14, 16, 22, 8, 15, 4, 26]",8,0,[],15.22628722,20370,4210,1,0,8,1.482031001699355
basic,11,16,0,0,0,0,[0],1,29,"[1, 2, 3, 4, 5, 6, 7, 8, 9, 10, 11, 12, 13, 14, 15, 16, 17, 18, 19, 20, 21, 22, 23, 24, 25, 26, 27, 28, 29]",300,1074,-1,13,161,9,0.0
basic,11,16,0,0,0,11,"[0, 11]",2,8,"[1, 14, 16, 17, 18, 23, 27, 28]",164.8519331,7973,6899,6,20,6,1.0
basic,11,16,0,0,0,23,"[0, 11, 23]",3,7,"[1, 14, 16, 17, 18, 27, 28]",127.9737552,11886,3913,4,7,6,1.592767324400406
basic,11,16,0,0,0,14,"[0, 11, 23, 14]",4,4,"[1, 17, 18, 27]",103.8076633,13024,1138,3,2,6,1.6996066862042911
basic,11,16,0,0,0,1,"[0, 11, 23, 14, 1]",5,1,[27],64.85897909,13981,957,1,0,6,1.524833674209499
basic,11,16,0,0,1,27,"[0, 11, 23, 14, 1, 27]",6,0,[],32.60994809,15900,1919,1,0,6,1.7838693267193266
basic,11,16,0,1,1,27,"[0, 11, 23, 14, 1, 27]",6,0,[],32.60994809,18184,2284,1,0,6,1.7838693267193266
basic,12,37,0,0,0,0,[0],1,29,"[1, 2, 3, 4, 5, 6, 7, 8, 9, 10, 11, 12, 13, 14, 15, 16, 17, 18, 19, 20, 21, 22, 23, 24, 25, 26, 27, 28, 29]",300,3293,-1,6,168,10,0.0
basic,12,37,0,0,0,19,"[0, 19]",2,19,"[1, 2, 4, 5, 6, 7, 9, 10, 11, 15, 17, 18, 20, 21, 22, 25, 26, 28, 29]",185.6627795,10715,7422,25,244,9,1.0
basic,12,37,0,0,0,26,"[0, 19, 26]",3,9,"[1, 2, 4, 15, 20, 21, 22, 25, 29]",120.4094271,13841,3126,12,37,8,1.0256292033966232
basic,12,37,0,0,0,21,"[0, 19, 26, 21]",4,6,"[1, 2, 4, 15, 20, 22]",90.67728956,17782,3941,8,18,8,1.3487859218508713
basic,12,37,0,0,0,15,"[0, 19, 26, 21, 15]",5,4,"[1, 2, 4, 20]",75.67728956,19238,1456,4,7,8,1.3481165821607015
basic,12,37,0,0,0,20,"[0, 19, 26, 21, 15, 20]",6,3,"[1, 2, 4]",58.67728956,20874,1636,2,2,8,1.6099275130490058
basic,12,37,0,0,0,1,"[0, 19, 26, 21, 15, 20, 1]",7,2,"[2, 4]",24.44280403,24425,3551,2,0,8,1.7405155284688993
basic,12,37,0,0,1,2,"[0, 19, 26, 21, 15, 20, 1, 2]",8,0,[],7.238153493,26222,1797,1,0,8,1.9366131115805176
basic,12,37,0,1,1,2,"[0, 19, 26, 21, 15, 20, 1, 2]",8,0,[],7.238153493,28692,2470,1,0,8,1.9366131115805176
basic,13,18,0,0,0,0,[0],1,28,"[1, 2, 3, 4, 5, 6, 7, 8, 9, 10, 11, 12, 13, 14, 16, 17, 18, 19, 20, 21, 22, 23, 24, 25, 26, 27, 28, 29]",300,595,-1,3,136,10,0.0
basic,13,18,0,0,0,28,"[0, 28]",2,16,"[1, 3, 5, 7, 8, 9, 12, 13, 14, 16, 20, 23, 24, 25, 26, 27]",236.4311397,4795,4200,2,19,10,1.0
basic,13,18,0,0,0,7,"[0, 28, 7]",3,15,"[1, 3, 5, 8, 9, 12, 13, 14, 16, 20, 23, 24, 25, 26, 27]",214.4084242,7130,2335,2,17,10,1.4345180696367563
basic,13,18,0,0,0,25,"[0, 28, 7, 25]",4,13,"[1, 3, 5, 8, 9, 12, 13, 14, 16, 20, 23, 26, 27]",186.6055466,8226,1096,2,15,10,1.8896451241781882
basic,13,18,0,0,0,8,"[0, 28, 7, 25, 8]",5,10,"[3, 5, 9, 12, 13, 14, 16, 23, 26, 27]",149.551532,9658,1432,2,10,10,1.590467437592877
basic,13,18,0,0,0,13,"[0, 28, 7, 25, 8, 13]",6,9,"[3, 5, 9, 12, 14, 16, 23, 26, 27]",128.4565089,11035,1377,2,5,10,1.8248274983549797
basic,13,18,0,0,0,14,"[0, 28, 7, 25, 8, 13, 14]",7,7,"[3, 5, 9, 12, 23, 26, 27]",109.4828429,12293,1258,2,3,10,1.6993534956692746
basic,13,18,0,0,0,3,"[0, 28, 7, 25, 8, 13, 14, 3]",8,3,"[5, 12, 27]",79.39962499,13878,1585,2,1,10,1.802637206541468
basic,13,18,0,0,0,5,"[0, 28, 7, 25, 8, 13, 14, 3, 5]",9,1,[12],21.21887216,15858,1980,1,0,10,1.559774889743805
basic,13,18,0,0,1,12,"[0, 28, 7, 25, 8, 13, 14, 3, 5, 12]",10,0,[],9.817117911,19200,3342,1,0,10,1.563993037384447
basic,13,18,0,1,1,12,"[0, 28, 7, 25, 8, 13, 14, 3, 5, 12]",10,0,[],9.817117911,21381,2181,1,0,10,1.563993037384447
basic,14,35,0,0,0,0,[0],1,29,"[1, 2, 3, 4, 5, 6, 7, 8, 9, 10, 11, 12, 13, 14, 15, 16, 17, 18, 19, 20, 21, 22, 23, 24, 25, 26, 27, 28, 29]",300,1437,-1,5,236,11,0.0
basic,14,35,0,0,0,24,"[0, 24]",2,27,"[1, 2, 4, 5, 6, 7, 8, 9, 10, 11, 12, 13, 14, 15, 16, 17, 18, 19, 20, 21, 22, 23, 25, 26, 27, 28, 29]",268.9838752,4812,3375,49,512,10,1.0
basic,14,35,0,0,0,17,"[0, 24, 17]",3,26,"[1, 2, 4, 5, 6, 7, 8, 9, 10, 11, 12, 13, 14, 15, 16, 18, 19, 20, 21, 22, 23, 25, 26, 27, 28, 29]",257.2791753,9295,4483,33,238,10,1.0771477201815276
basic,14,35,0,0,0,1,"[0, 24, 17, 1]",4,25,"[2, 4, 5, 6, 7, 8, 9, 10, 11, 12, 13, 14, 15, 16, 18, 19, 20, 21, 22, 23, 25, 26, 27, 28, 29]",241.4677869,10959,1664,26,151,10,1.2244804141479215
basic,14,35,0,0,0,15,"[0, 24, 17, 1, 15]",5,23,"[2, 4, 5, 6, 7, 8, 9, 10, 11, 12, 14, 16, 18, 19, 20, 21, 22, 23, 25, 26, 27, 28, 29]",218.6204676,12139,1180,26,78,10,1.4642196672428094
basic,14,35,0,0,0,23,"[0, 24, 17, 1, 15, 23]",6,11,"[4, 5, 6, 9, 18, 19, 25, 26, 27, 28, 29]",158.1804147,14379,2240,15,12,10,1.3338903684702363
basic,14,35,0,0,0,9,"[0, 24, 17, 1, 15, 23, 9]",7,6,"[5, 6, 18, 19, 25, 27]",120.5373542,15861,1482,6,1,10,1.5964380615155294
basic,14,35,0,0,0,18,"[0, 24, 17, 1, 15, 23, 9, 18]",8,3,"[5, 6, 25]",100.5123698,17062,1201,2,1,10,1.5508488101942703
basic,14,35,0,0,0,25,"[0, 24, 17, 1, 15, 23, 9, 18, 25]",9,1,[6],66.67452121,18739,1677,1,0,10,1.4408023801578587
basic,14,35,0,0,1,6,"[0, 24, 17, 1, 15, 23, 9, 18, 25, 6]",10,0,[],42.65369691,20120,1381,1,0,10,1.701781671832088
basic,14,35,0,1,1,6,"[0, 24, 17, 1, 15, 23, 9, 18, 25, 6]",10,0,[],42.65369691,25227,5107,1,0,10,1.701781671832088
basic,15,30,0,0,0,0,[0],1,19,"[3, 4, 5, 7, 9, 11, 16, 17, 18, 19, 20, 21, 22, 24, 25, 26, 27, 28, 29]",300,2758,-1,5,41,8,0.0
basic,15,30,0,0,0,27,"[0, 27]",2,10,"[3, 5, 7, 9, 18, 19, 20, 24, 25, 29]",90.59608409,8803,6045,7,22,6,1.0
basic,15,30,0,0,0,3,"[0, 27, 3]",3,8,"[5, 7, 18, 19, 20, 24, 25, 29]",71.49111091,12502,3699,5,9,6,1.0022223300201003
basic,15,30,0,0,0,18,"[0, 27, 3, 18]",4,4,"[5, 7, 24, 29]",53.24282332,13961,1459,2,2,6,1.010282260954695
basic,15,30,0,0,0,29,"[0, 27, 3, 18, 29]",5,1,[5],33.92961541,17926,3965,1,0,6,1.0928689392815363
basic,15,30,0,0,1,5,"[0, 27, 3, 18, 29, 5]",6,0,[],1.913994218,21570,3644,1,0,6,1.2327079192680896
basic,15,30,0,1,1,5,"[0, 27, 3, 18, 29, 5]",6,0,[],1.913994218,24015,2445,1,0,6,1.2327079192680896
basic,16,5,0,0,0,0,[0],1,29,"[1, 2, 3, 4, 5, 6, 7, 8, 9, 10, 11, 12, 13, 14, 15, 16, 17, 18, 19, 20, 21, 22, 23, 24, 25, 26, 27, 28, 29]",300,1504,-1,5,139,9,0.0
basic,16,5,0,0,0,12,"[0, 12]",2,22,"[2, 4, 5, 6, 8, 9, 10, 13, 14, 15, 16, 17, 18, 19, 21, 22, 23, 24, 25, 26, 27, 28]",228.3062067,3913,2409,1,27,9,1.0
basic,16,5,0,0,0,25,"[0, 12, 25]",3,21,"[2, 4, 5, 6, 8, 9, 10, 13, 14, 15, 16, 17, 18, 19, 21, 22, 23, 24, 26, 27, 28]",200.5213187,5449,1536,1,20,9,1.584023303445617
basic,16,5,0,0,0,23,"[0, 12, 25, 23]",4,19,"[2, 4, 5, 6, 8, 9, 10, 13, 14, 15, 16, 17, 18, 19, 21, 22, 24, 26, 27]",182.0822298,6743,1294,1,14,9,2.3508446989254357
basic,16,5,0,0,0,24,"[0, 12, 25, 23, 24]",5,15,"[2, 4, 5, 6, 8, 9, 13, 14, 15, 17, 18, 19, 22, 26, 27]",158.995437,8949,2206,1,12,9,1.9469752046288753
basic,16,5,0,0,0,17,"[0, 12, 25, 23, 24, 17]",6,7,"[4, 5, 6, 8, 15, 18, 19]",124.0097257,11022,2073,1,8,9,1.6482276497563642
basic,16,5,0,0,0,5,"[0, 12, 25, 23, 24, 17, 5]",7,4,"[4, 6, 15, 18]",80.96323916,12463,1441,1,3,9,1.4654649104389412
basic,16,5,0,0,1,15,"[0, 12, 25, 23, 24, 17, 5, 15]",8,0,[],40.93824697,13575,1112,1,0,8,1.4660376450939663
basic,16,5,0,1,1,15,"[0, 12, 25, 23, 24, 17, 5, 15]",8,0,[],40.93824697,16007,2432,1,0,8,1.4660376450939663
basic,17,3,0,0,0,0,[0],1,29,"[1, 2, 3, 4, 5, 6, 7, 8, 9, 10, 11, 12, 13, 14, 15, 16, 17, 18, 19, 20, 21, 22, 23, 24, 25, 26, 27, 28, 29]",300,458,-1,34,427,10,0.0
basic,17,3,0,0,0,15,"[0, 15]",2,28,"[1, 2, 3, 4, 5, 6, 7, 8, 9, 10, 11, 12, 13, 14, 16, 17, 18, 19, 20, 21, 22, 23, 24, 25, 26, 27, 28, 29]",268.1723391,4374,3916,8,84,10,1.0
basic,17,3,0,0,0,7,"[0, 15, 7]",3,27,"[1, 2, 3, 4, 5, 6, 8, 9, 10, 11, 12, 13, 14, 16, 17, 18, 19, 20, 21, 22, 23, 24, 25, 26, 27, 28, 29]",238.1057463,5934,1560,8,69,10,2.9209704282891646
basic,17,3,0,0,0,8,"[0, 15, 7, 8]",4,18,"[3, 4, 5, 6, 10, 11, 14, 16, 17, 18, 19, 20, 21, 22, 24, 26, 27, 28]",182.1325384,7815,1881,6,40,10,1.9633672365780177
basic,17,3,0,0,0,24,"[0, 15, 7, 8, 24]",5,14,"[3, 4, 5, 10, 14, 16, 17, 18, 19, 20, 21, 22, 26, 27]",169.9670134,9172,1357,6,34,10,2.209350379748608
basic,17,3,0,0,0,17,"[0, 15, 7, 8, 24, 17]",6,5,"[3, 14, 19, 20, 21]",100.6128498,10790,1618,3,7,10,1.9489773900408984
basic,17,3,0,0,0,20,"[0, 15, 7, 8, 24, 17, 20]",7,4,"[3, 14, 19, 21]",87.9637392,12079,1289,3,4,10,1.872837097405716
basic,17,3,0,0,0,3,"[0, 15, 7, 8, 24, 17, 20, 3]",8,3,"[14, 19, 21]",67.56766115,13157,1078,3,1,10,1.8579729265349425
basic,17,3,0,0,0,19,"[0, 15, 7, 8, 24, 17, 20, 3, 19]",9,2,"[14, 21]",30.23135174,14626,1469,2,0,10,1.8279425324472436
basic,17,3,0,0,1,21,"[0, 15, 7, 8, 24, 17, 20, 3, 19, 21]",10,0,[],18.02479613,17178,2552,1,0,10,1.8337547852117746
basic,17,3,0,1,1,21,"[0, 15, 7, 8, 24, 17, 20, 3, 19, 21]",10,0,[],18.02479613,19972,2794,1,0,10,1.8337547852117746
basic,18,39,0,0,0,0,[0],1,28,"[1, 2, 3, 4, 5, 6, 7, 9, 10, 11, 12, 13, 14, 15, 16, 17, 18, 19, 20, 21, 22, 23, 24, 25, 26, 27, 28, 29]",300,483,-1,1,30,10,0.0
basic,18,39,0,0,0,29,"[0, 29]",2,26,"[1, 2, 3, 4, 5, 6, 7, 9, 10, 12, 13, 14, 15, 16, 17, 18, 19, 20, 21, 22, 23, 24, 25, 26, 27, 28]",243.0614366,3852,3369,8,104,9,1.0
basic,18,39,0,0,0,12,"[0, 29, 12]",3,18,"[1, 2, 4, 5, 7, 9, 10, 13, 14, 15, 16, 18, 19, 22, 23, 24, 26, 28]",182.5221931,5067,1215,5,54,9,1.0026200331524904
basic,18,39,0,0,0,10,"[0, 29, 12, 10]",4,16,"[1, 2, 4, 5, 7, 9, 13, 14, 15, 16, 18, 19, 22, 23, 24, 26]",147.0116313,6732,1665,5,34,9,1.2874817019928908
basic,18,39,0,0,0,7,"[0, 29, 12, 10, 7]",5,10,"[1, 2, 5, 13, 16, 18, 19, 22, 24, 26]",113.5900814,9582,2850,4,12,9,1.2250826263866774
basic,18,39,0,0,0,26,"[0, 29, 12, 10, 7, 26]",6,5,"[1, 16, 18, 19, 22]",94.90853971,10663,1081,3,4,9,1.2697275353190085
basic,18,39,0,0,0,22,"[0, 29, 12, 10, 7, 26, 22]",7,2,"[16, 19]",77.18849457,11921,1258,2,0,9,1.438961743955176
basic,18,39,0,0,0,16,"[0, 29, 12, 10, 7, 26, 22, 16]",8,1,[19],42.18849457,15410,3489,1,0,9,1.3580882130477205
basic,18,39,0,0,1,19,"[0, 29, 12, 10, 7, 26, 22, 16, 19]",9,0,[],24.72424537,16914,1504,1,0,9,1.3646589157842668
basic,18,39,0,1,1,19,"[0, 29, 12, 10, 7, 26, 22, 16, 19]",9,0,[],24.72424537,19249,2335,1,0,9,1.3646589157842668
basic,19,34,0,0,0,0,[0],1,25,"[1, 3, 4, 5, 6, 7, 8, 9, 10, 11, 12, 13, 15, 18, 19, 20, 21, 22, 23, 24, 25, 26, 27, 28, 29]",300,1618,-1,12,367,10,0.0
basic,19,34,0,0,0,1,"[0, 1]",2,17,"[3, 5, 7, 8, 9, 10, 11, 12, 13, 19, 21, 22, 23, 24, 25, 27, 29]",211.9488785,5193,3575,3,92,9,1.0
basic,19,34,0,0,0,8,"[0, 1, 8]",3,15,"[3, 5, 7, 9, 10, 11, 12, 13, 19, 22, 23, 24, 25, 27, 29]",201.1785489,6431,1238,2,54,9,1.1626053070588234
basic,19,34,0,0,0,25,"[0, 1, 8, 25]",4,13,"[3, 5, 7, 9, 10, 11, 12, 13, 22, 23, 24, 27, 29]",184.0905414,7780,1349,2,28,9,1.1387228631211366
basic,19,34,0,0,0,24,"[0, 1, 8, 25, 24]",5,12,"[3, 5, 7, 9, 10, 11, 12, 13, 22, 23, 27, 29]",166.5976857,8988,1208,2,23,9,1.3732398141694295
basic,19,34,0,0,0,10,"[0, 1, 8, 25, 24, 10]",6,2,"[9, 22]",84.03255989,11039,2051,1,1,8,1.205713231069556
basic,19,34,0,0,0,22,"[0, 1, 8, 25, 24, 10, 22]",7,1,[9],49.03255989,15101,4062,1,0,8,1.4766623260754974
basic,19,34,0,0,1,9,"[0, 1, 8, 25, 24, 10, 22, 9]",8,0,[],2.858974364,17093,1992,1,0,8,1.448021979590122
basic,19,34,0,1,1,9,"[0, 1, 8, 25, 24, 10, 22, 9]",8,0,[],2.858974364,20207,3114,1,0,8,1.448021979590122
basic,20,19,0,0,0,0,[0],1,29,"[1, 2, 3, 4, 5, 6, 7, 8, 9, 10, 11, 12, 13, 14, 15, 16, 17, 18, 19, 20, 21, 22, 23, 24, 25, 26, 27, 28, 29]",300,467,-1,12,149,8,0.0
basic,20,19,0,0,0,28,"[0, 28]",2,10,"[4, 6, 9, 10, 11, 14, 20, 22, 24, 27]",136.1219966,7510,7043,2,14,7,1.0
basic,20,19,0,0,0,4,"[0, 28, 4]",3,9,"[6, 9, 10, 11, 14, 20, 22, 24, 27]",124.9416567,8395,885,2,10,7,1.0622089009735736
basic,20,19,0,0,0,14,"[0, 28, 4, 14]",4,5,"[6, 11, 20, 22, 24]",74.93165771,12078,3683,2,3,7,1.0762539106237072
basic,20,19,0,0,0,22,"[0, 28, 4, 14, 22]",5,1,[20],31.97819452,13379,1301,1,0,6,1.2580965126485564
basic,20,19,0,0,1,20,"[0, 28, 4, 14, 22, 20]",6,0,[],18.82524808,16527,3148,1,0,6,1.2436978486167007
basic,20,19,0,1,1,20,"[0, 28, 4, 14, 22, 20]",6,0,[],18.82524808,21196,4669,1,0,6,1.2436978486167007
basic,21,26,0,0,0,0,[0],1,29,"[1, 2, 3, 4, 5, 6, 7, 8, 9, 10, 11, 12, 13, 14, 15, 16, 17, 18, 19, 20, 21, 22, 23, 24, 25, 26, 27, 28, 29]",300,1497,-1,9,226,9,0.0
basic,21,26,0,0,0,21,"[0, 21]",2,25,"[2, 3, 4, 5, 6, 7, 8, 10, 11, 12, 13, 14, 15, 16, 17, 18, 19, 22, 23, 24, 25, 26, 27, 28, 29]",211.1349337,6542,5045,7,90,9,1.0
basic,21,26,0,0,0,13,"[0, 21, 13]",3,21,"[3, 4, 5, 6, 7, 8, 10, 11, 12, 14, 15, 16, 17, 18, 19, 22, 23, 24, 25, 26, 29]",188.9989901,8377,1835,6,45,9,1.0103952279992225
basic,21,26,0,0,0,16,"[0, 21, 13, 16]",4,8,"[4, 5, 6, 10, 14, 17, 23, 29]",119.9700107,10253,1876,3,23,9,1.608180021563306
basic,21,26,0,0,0,29,"[0, 21, 13, 16, 29]",5,6,"[4, 6, 10, 14, 17, 23]",95.76257383,11434,1181,3,20,9,1.6714963205667543
basic,21,26,0,0,0,4,"[0, 21, 13, 16, 29, 4]",6,4,"[6, 10, 14, 17]",71.76257383,12793,1359,3,6,9,1.8831111863826637
basic,21,26,0,0,0,17,"[0, 21, 13, 16, 29, 4, 17]",7,3,"[6, 10, 14]",50.66755072,13813,1020,3,1,9,1.7547748416418751
basic,21,26,0,0,0,14,"[0, 21, 13, 16, 29, 4, 17, 14]",8,1,[6],28.19534567,14874,1061,1,0,9,1.6866342470680415
basic,21,26,0,0,1,6,"[0, 21, 13, 16, 29, 4, 17, 14, 6]",9,0,[],7.171549626,16529,1655,1,0,9,1.823211641041882
basic,21,26,0,1,1,6,"[0, 21, 13, 16, 29, 4, 17, 14, 6]",9,0,[],7.171549626,18263,1734,1,0,9,1.823211641041882
basic,22,32,0,0,0,0,[0],1,29,"[1, 2, 3, 4, 5, 6, 7, 8, 9, 10, 11, 12, 13, 14, 15, 16, 17, 18, 19, 20, 21, 22, 23, 24, 25, 26, 27, 28, 29]",300,503,-1,17,359,10,0.0
basic,22,32,0,0,0,19,"[0, 19]",2,28,"[1, 2, 3, 4, 5, 6, 7, 8, 9, 10, 11, 12, 13, 14, 15, 16, 17, 18, 20, 21, 22, 23, 24, 25, 26, 27, 28, 29]",283.5075775,4435,3932,16,294,10,1.0
basic,22,32,0,0,0,13,"[0, 19, 13]",3,24,"[2, 3, 4, 5, 6, 8, 9, 10, 11, 12, 14, 15, 16, 17, 18, 20, 21, 22, 23, 24, 25, 26, 27, 28]",260.3127505,6588,2153,14,227,10,1.0172874229878615
basic,22,32,0,0,0,15,"[0, 19, 13, 15]",4,18,"[2, 3, 5, 8, 9, 10, 11, 12, 16, 17, 20, 22, 23, 24, 25, 26, 27, 28]",177.4393531,8736,2148,9,116,10,1.435447391509833
basic,22,32,0,0,0,28,"[0, 19, 13, 15, 28]",5,17,"[2, 3, 5, 8, 9, 10, 11, 12, 16, 17, 20, 22, 23, 24, 25, 26, 27]",166.0375988,10497,1761,9,70,10,1.3843701324937985
basic,22,32,0,0,0,12,"[0, 19, 13, 15, 28, 12]",6,14,"[2, 3, 5, 8, 9, 10, 11, 16, 17, 20, 22, 24, 26, 27]",147.0639329,12266,1769,6,35,10,1.358372254952329
basic,22,32,0,0,0,16,"[0, 19, 13, 15, 28, 12, 16]",7,13,"[2, 3, 5, 8, 9, 10, 11, 17, 20, 22, 24, 26, 27]",131.411457,13693,1427,5,15,10,1.4356932930709845
basic,22,32,0,0,0,22,"[0, 19, 13, 15, 28, 12, 16, 22]",8,6,"[2, 8, 9, 17, 20, 27]",97.57360838,15572,1879,3,5,10,1.4335226411545752
basic,22,32,0,0,0,9,"[0, 19, 13, 15, 28, 12, 16, 22, 9]",9,3,"[2, 8, 20]",75.37000507,18674,3102,3,0,10,1.4837166378374758
basic,22,32,0,0,1,8,"[0, 19, 13, 15, 28, 12, 16, 22, 9, 8]",10,0,[],30.24794838,24166,5492,1,0,10,1.3767698817641267
basic,22,32,0,1,1,8,"[0, 19, 13, 15, 28, 12, 16, 22, 9, 8]",10,0,[],30.24794838,26164,1998,1,0,10,1.3767698817641267
undo,23,9,0,0,0,0,[0],1,27,"[1, 3, 4, 5, 6, 7, 8, 9, 10, 11, 13, 14, 15, 16, 17, 18, 19, 20, 21, 22, 23, 24, 25, 26, 27, 28, 29]",300,1459,-1,2,182,10,0.0
undo,23,9,0,0,0,25,"[0, 25]",2,24,"[1, 3, 4, 5, 6, 7, 8, 9, 10, 11, 13, 15, 16, 17, 18, 19, 20, 21, 22, 23, 24, 26, 27, 28]",275.9168108,6470,5011,2,104,10,1.0
undo,23,9,0,0,0,10,"[0, 25, 10]",3,20,"[3, 4, 5, 7, 8, 9, 11, 13, 15, 16, 17, 18, 19, 20, 21, 22, 23, 26, 27, 28]",236.0670932,8323,1853,2,76,10,1.1767014107208227
undo,23,9,0,0,0,8,"[0, 25, 10, 8]",4,19,"[3, 4, 5, 7, 9, 11, 13, 15, 16, 17, 18, 19, 20, 21, 22, 23, 26, 27, 28]",187.6935467,10276,1953,1,29,10,1.7608170712242983
undo,23,9,0,0,0,28,"[0, 25, 10, 8, 28]",5,18,"[3, 4, 5, 7, 9, 11, 13, 15, 16, 17, 18, 19, 20, 21, 22, 23, 26, 27]",176.8768928,14056,3780,1,15,10,1.6576318206889098
undo,23,9,0,0,0,26,"[0, 25, 10, 8, 28, 26]",6,11,"[3, 5, 9, 15, 16, 18, 19, 20, 21, 22, 23]",132.0996665,16066,2010,9,5,8,1.4371994815444726
undo,23,9,0,0,0,23,"[0, 25, 10, 8, 28, 26, 23]",7,1,[9],73.37147904,17454,1388,1,0,8,3.8063300595943903
undo,23,9,0,0,1,9,"[0, 25, 10, 8, 28, 26, 23, 9]",8,0,[],51.01079927,18637,1183,1,0,8,3.3437187140402442
undo,23,9,1,0,0,23,"[0, 25, 10, 8, 28, 26, 23]",7,1,[9],73.37147904,23995,5358,1,0,8,3.8063300595943903
undo,23,9,1,0,0,26,"[0, 25, 10, 8, 28, 26]",6,11,"[3, 5, 9, 15, 16, 18, 19, 20, 21, 22, 23]",132.0996665,24570,575,9,5,8,1.4371994815444726
undo,23,9,0,0,0,18,"[0, 25, 10, 8, 28, 26, 18]",7,3,"[5, 15, 19]",71.22274146,33652,9082,3,0,8,1.3127754774650984
undo,23,9,0,0,1,5,"[0, 25, 10, 8, 28, 26, 18, 5]",8,0,[],7.332210081,38519,4867,1,0,8,1.3145412840397834
undo,23,9,0,1,1,5,"[0, 25, 10, 8, 28, 26, 18, 5]",8,0,[],7.332210081,63131,24612,1,0,8,1.3145412840397834
undo,24,22,0,0,0,0,[0],1,29,"[1, 2, 3, 4, 5, 6, 7, 8, 9, 10, 11, 12, 13, 14, 15, 16, 17, 18, 19, 20, 21, 22, 23, 24, 25, 26, 27, 28, 29]",300,509,-1,31,704,9,0.0
undo,24,22,0,0,0,16,"[0, 16]",2,21,"[1, 3, 6, 7, 8, 9, 11, 13, 14, 15, 17, 18, 19, 20, 21, 22, 24, 25, 27, 28, 29]",218.605897,4581,4072,17,147,9,1.0
undo,24,22,0,0,0,28,"[0, 16, 28]",3,13,"[6, 7, 9, 13, 14, 17, 19, 20, 21, 22, 24, 25, 29]",184.1675463,5864,1283,12,61,9,1.047282311284478
undo,24,22,0,0,0,6,"[0, 16, 28, 6]",4,12,"[7, 9, 13, 14, 17, 19, 20, 21, 22, 24, 25, 29]",154.1675463,7581,1717,12,43,9,1.645645870580622
undo,24,22,0,0,0,9,"[0, 16, 28, 6, 9]",5,8,"[7, 14, 17, 19, 20, 21, 24, 29]",127.5404924,9270,1689,8,17,9,1.925750226630103
undo,24,22,0,0,0,19,"[0, 16, 28, 6, 9, 19]",6,6,"[7, 14, 17, 21, 24, 29]",107.1444143,10848,1578,3,7,9,2.4220750331476455
undo,24,22,0,0,0,29,"[0, 16, 28, 6, 9, 19, 29]",7,4,"[7, 14, 17, 24]",92.11111796,11980,1132,2,2,9,2.6996279574991067
undo,24,22,0,0,0,7,"[0, 16, 28, 6, 9, 19, 29, 7]",8,1,[14],41.0327468,13598,1618,1,0,9,2.059125386946491
undo,24,22,0,0,1,14,"[0, 16, 28, 6, 9, 19, 29, 7, 14]",9,0,[],27.99434199,14482,884,1,0,9,2.0997569104205307
undo,24,22,0,1,1,14,"[0, 16, 28, 6, 9, 19, 29, 7, 14]",9,0,[],27.99434199,17258,2776,1,0,9,2.0997569104205307
undo,25,25,0,0,0,0,[0],1,28,"[1, 2, 3, 4, 5, 7, 8, 9, 10, 11, 12, 13, 14, 15, 16, 17, 18, 19, 20, 21, 22, 23, 24, 25, 26, 27, 28, 29]",300,2044,-1,5,94,10,0.0
undo,25,25,0,0,0,23,"[0, 23]",2,23,"[1, 2, 3, 5, 7, 8, 9, 11, 12, 13, 14, 16, 17, 19, 20, 21, 22, 24, 25, 26, 27, 28, 29]",259.7756293,7196,5152,3,33,10,1.0
undo,25,25,0,0,0,7,"[0, 23, 7]",3,16,"[1, 3, 5, 8, 9, 11, 13, 17, 19, 21, 22, 24, 26, 27, 28, 29]",181.9424744,8531,1335,1,21,9,1.0073109045884563
undo,25,25,0,0,0,24,"[0, 23, 7, 24]",4,10,"[3, 5, 8, 9, 11, 13, 19, 22, 28, 29]",157.1836376,10010,1479,1,17,9,1.0161584555781231
undo,25,25,0,0,0,9,"[0, 23, 7, 24, 9]",5,8,"[3, 8, 11, 13, 19, 22, 28, 29]",139.1558812,10865,855,1,16,9,1.0303325523073676
undo,25,25,0,0,0,13,"[0, 23, 7, 24, 9, 13]",6,4,"[3, 8, 11, 28]",82.83536984,13342,2477,4,2,8,1.077425030028217
undo,25,25,0,0,0,3,"[0, 23, 7, 24, 9, 13, 3]",7,2,"[8, 28]",51.59437114,14566,1224,2,0,8,1.341616396745267
undo,25,25,0,0,1,28,"[0, 23, 7, 24, 9, 13, 3, 28]",8,0,[],20.28941946,16015,1449,1,0,8,1.292603609228756
undo,25,25,0,1,1,28,"[0, 23, 7, 24, 9, 13, 3, 28]",8,0,[],20.28941946,19125,3110,1,0,8,1.292603609228756
undo,26,35,0,0,0,0,[0],1,29,"[1, 2, 3, 4, 5, 6, 7, 8, 9, 10, 11, 12, 13, 14, 15, 16, 17, 18, 19, 20, 21, 22, 23, 24, 25, 26, 27, 28, 29]",300,2293,-1,5,236,11,0.0
undo,26,35,0,0,0,15,"[0, 15]",2,27,"[1, 2, 4, 5, 6, 7, 8, 9, 10, 11, 12, 13, 14, 16, 17, 18, 19, 20, 21, 22, 23, 24, 25, 26, 27, 28, 29]",244.4212271,7472,5179,9,149,10,1.0
undo,26,35,0,0,0,24,"[0, 15, 24]",3,21,"[1, 2, 4, 5, 6, 7, 8, 9, 10, 16, 17, 18, 19, 20, 21, 23, 25, 26, 27, 28, 29]",212.2187427,9544,2072,3,53,10,2.8301813252608574
undo,26,35,0,0,0,17,"[0, 15, 24, 17]",4,17,"[1, 2, 4, 5, 6, 9, 10, 16, 18, 19, 21, 23, 25, 26, 27, 28, 29]",200.5140428,11095,1551,3,35,10,2.508403635477034
undo,26,35,0,0,0,1,"[0, 15, 24, 17, 1]",5,16,"[2, 4, 5, 6, 9, 10, 16, 18, 19, 21, 23, 25, 26, 27, 28, 29]",184.7026545,12512,1417,3,30,10,2.4119939071293377
undo,26,35,0,0,0,23,"[0, 15, 24, 17, 1, 23]",6,9,"[4, 5, 6, 9, 18, 19, 25, 26, 27]",126.1791549,14117,1605,3,16,10,1.6348796298323884
undo,26,35,0,0,0,9,"[0, 15, 24, 17, 1, 23, 9]",7,4,"[6, 18, 19, 25]",88.53609448,15060,943,2,4,10,1.8811102773168398
undo,26,35,0,0,0,18,"[0, 15, 24, 17, 1, 23, 9, 18]",8,2,"[6, 25]",68.51111009,15814,754,2,0,10,1.799631732204095
undo,26,35,0,0,0,6,"[0, 15, 24, 17, 1, 23, 9, 18, 6]",9,1,[25],34.89563746,18807,2993,1,0,10,1.7530842288242376
undo,26,35,0,0,1,25,"[0, 15, 24, 17, 1, 23, 9, 18, 6, 25]",10,0,[],10.87481316,20110,1303,1,0,10,1.7853697741153476
undo,26,35,0,1,1,25,"[0, 15, 24, 17, 1, 23, 9, 18, 6, 25]",10,0,[],10.87481316,21676,1566,1,0,10,1.7853697741153476
undo,27,44,0,0,0,0,[0],1,29,"[1, 2, 3, 4, 5, 6, 7, 8, 9, 10, 11, 12, 13, 14, 15, 16, 17, 18, 19, 20, 21, 22, 23, 24, 25, 26, 27, 28, 29]",300,1237,-1,13,126,7,0.0
undo,27,44,0,0,0,8,"[0, 8]",2,17,"[1, 4, 5, 7, 9, 10, 11, 12, 13, 14, 15, 20, 21, 23, 24, 25, 27]",145.7923478,6139,4902,1,10,7,1.0
undo,27,44,0,0,0,20,"[0, 8, 20]",3,16,"[1, 4, 5, 7, 9, 10, 11, 12, 13, 14, 15, 21, 23, 24, 25, 27]",133.7093018,7360,1221,1,9,7,1.0890794433668698
undo,27,44,0,0,0,9,"[0, 8, 20, 9]",4,7,"[4, 7, 11, 12, 14, 23, 24]",76.43801756,9680,2320,1,6,7,1.40892325509949
undo,27,44,0,0,0,4,"[0, 8, 20, 9, 4]",5,4,"[7, 12, 23, 24]",56.74030196,10770,1090,1,3,7,1.3849770570803555
undo,27,44,0,0,0,7,"[0, 8, 20, 9, 4, 7]",6,1,[23],25.72417712,11965,1195,1,0,7,1.3274380931474288
undo,27,44,0,0,1,23,"[0, 8, 20, 9, 4, 7, 23]",7,0,[],6.619203947,13330,1365,1,0,7,1.3395824779823196
undo,27,44,0,1,1,23,"[0, 8, 20, 9, 4, 7, 23]",7,0,[],6.619203947,15201,1871,1,0,7,1.3395824779823196
undo,28,24,0,0,0,0,[0],1,29,"[1, 2, 3, 4, 5, 6, 7, 8, 9, 10, 11, 12, 13, 14, 15, 16, 17, 18, 19, 20, 21, 22, 23, 24, 25, 26, 27, 28, 29]",300,1332,-1,4,76,10,0.0
undo,28,24,0,0,0,16,"[0, 16]",2,28,"[1, 2, 3, 4, 5, 6, 7, 8, 9, 10, 11, 12, 13, 14, 15, 17, 18, 19, 20, 21, 22, 23, 24, 25, 26, 27, 28, 29]",210.3562607,5671,4339,13,110,9,1.0
undo,28,24,0,0,0,8,"[0, 16, 8]",3,22,"[1, 2, 3, 4, 6, 9, 10, 11, 13, 14, 15, 17, 20, 21, 22, 23, 24, 25, 26, 27, 28, 29]",181.3562607,6938,1267,3,31,9,1.0774669368510212
undo,28,24,0,0,0,22,"[0, 16, 8, 22]",4,18,"[2, 3, 4, 6, 9, 10, 11, 13, 14, 15, 17, 23, 24, 25, 26, 27, 28, 29]",167.9398528,8634,1696,3,23,9,1.2531772310046492
undo,28,24,0,0,0,15,"[0, 16, 8, 22, 15]",5,16,"[3, 4, 6, 9, 10, 11, 13, 14, 17, 23, 24, 25, 26, 27, 28, 29]",146.7266494,9863,1229,3,16,9,1.2813329946092564
undo,28,24,0,0,0,28,"[0, 16, 8, 22, 15, 28]",6,8,"[3, 4, 9, 11, 13, 23, 26, 27]",101.4497237,11455,1592,3,5,9,1.2060847818642253
undo,28,24,0,0,0,23,"[0, 16, 8, 22, 15, 28, 23]",7,3,"[9, 11, 27]",82.42342609,12608,1153,3,1,9,1.2349355190066822
undo,28,24,0,0,0,11,"[0, 16, 8, 22, 15, 28, 23, 11]",8,2,"[9, 27]",55.49760206,16192,3584,2,0,9,1.2172586817191506
undo,28,24,0,0,1,27,"[0, 16, 8, 22, 15, 28, 23, 11, 27]",9,0,[],27.69472451,18608,2416,1,0,9,1.192247579330137
undo,28,24,0,1,1,27,"[0, 16, 8, 22, 15, 28, 23, 11, 27]",9,0,[],27.69472451,20492,1884,1,0,9,1.192247579330137
undo,29,38,0,0,0,0,[0],1,29,"[1, 2, 3, 4, 5, 6, 7, 8, 9, 10, 11, 12, 13, 14, 15, 16, 17, 18, 19, 20, 21, 22, 23, 24, 25, 26, 27, 28, 29]",300,1568,-1,33,506,9,0.0
undo,29,38,0,0,0,19,"[0, 19]",2,23,"[3, 4, 5, 6, 7, 8, 9, 11, 13, 14, 15, 16, 17, 18, 20, 22, 23, 24, 25, 26, 27, 28, 29]",219.5015528,4166,2598,6,61,9,1.0
undo,29,38,0,0,0,17,"[0, 19, 17]",3,21,"[3, 4, 5, 6, 7, 9, 11, 13, 14, 15, 16, 18, 20, 22, 23, 24, 25, 26, 27, 28, 29]",198.1239945,6361,2195,6,53,9,1.571793785769489
undo,29,38,0,0,0,20,"[0, 19, 17, 20]",4,17,"[3, 4, 5, 6, 7, 11, 13, 14, 15, 16, 18, 22, 24, 25, 26, 27, 28]",174.3542658,7398,1037,6,44,9,2.333182710277297
undo,29,38,0,0,0,4,"[0, 19, 17, 20, 4]",5,10,"[5, 11, 13, 14, 15, 16, 24, 26, 27, 28]",140.4131403,10249,2851,5,22,9,2.276099229646013
undo,29,38,0,0,0,15,"[0, 19, 17, 20, 4, 15]",6,8,"[5, 11, 13, 14, 16, 24, 26, 28]",114.4131403,11387,1138,5,6,9,2.5292671156176403
undo,29,38,0,0,0,11,"[0, 19, 17, 20, 4, 15, 11]",7,2,"[16, 28]",78.01259089,13265,1878,2,0,9,2.778100109749787
undo,29,38,0,0,0,28,"[0, 19, 17, 20, 4, 15, 11, 28]",8,1,[16],50.99407872,15267,2002,1,0,9,2.3316428595723258
undo,29,38,0,0,1,16,"[0, 19, 17, 20, 4, 15, 11, 28, 16]",9,0,[],21.99407872,18053,2786,1,0,9,2.5408012360364265
undo,29,38,0,1,1,16,"[0, 19, 17, 20, 4, 15, 11, 28, 16]",9,0,[],21.99407872,21133,3080,1,0,9,2.5408012360364265
undo,30,42,0,0,0,0,[0],1,29,"[1, 2, 3, 4, 5, 6, 7, 8, 9, 10, 11, 12, 13, 14, 15, 16, 17, 18, 19, 20, 21, 22, 23, 24, 25, 26, 27, 28, 29]",300,1457,-1,16,302,9,0.0
undo,30,42,0,0,0,5,"[0, 5]",2,28,"[1, 2, 3, 4, 6, 7, 8, 9, 10, 11, 12, 13, 14, 15, 16, 17, 18, 19, 20, 21, 22, 23, 24, 25, 26, 27, 28, 29]",191.2939744,6463,5006,1,22,9,1.0
undo,30,42,0,0,0,4,"[0, 5, 4]",3,23,"[1, 2, 3, 6, 7, 8, 9, 10, 11, 13, 15, 17, 18, 19, 20, 21, 22, 23, 24, 25, 26, 27, 29]",171.4445412,8344,1881,1,14,9,1.420957801478707
undo,30,42,0,0,0,22,"[0, 5, 4, 22]",4,20,"[1, 2, 3, 6, 7, 8, 9, 11, 15, 17, 18, 19, 20, 21, 23, 24, 25, 26, 27, 29]",160.2642013,9394,1050,1,11,9,1.5771494659680896
undo,30,42,0,0,0,8,"[0, 5, 4, 22, 8]",5,14,"[1, 2, 3, 6, 7, 11, 15, 18, 19, 24, 25, 26, 27, 29]",138.1282577,10238,844,1,10,9,1.5055393955524201
undo,30,42,0,0,0,1,"[0, 5, 4, 22, 8, 1]",6,5,"[2, 7, 19, 26, 27]",89.03650682,11653,1415,1,7,9,1.3547259083637835
undo,30,42,0,0,0,7,"[0, 5, 4, 22, 8, 1, 7]",7,4,"[2, 19, 26, 27]",59.03650682,12816,1163,1,3,9,1.3909715672447451
undo,30,42,0,0,0,26,"[0, 5, 4, 22, 8, 1, 7, 26]",8,1,[27],32.46584631,14856,2040,1,0,9,1.3511825943939393
undo,30,42,0,0,1,27,"[0, 5, 4, 22, 8, 1, 7, 26, 27]",9,0,[],14.43808994,16781,1925,1,0,9,1.3391911688802078
undo,30,42,0,1,1,27,"[0, 5, 4, 22, 8, 1, 7, 26, 27]",9,0,[],14.43808994,18631,1850,1,0,9,1.3391911688802078
undo,31,14,0,0,0,0,[0],1,29,"[1, 2, 3, 4, 5, 6, 7, 8, 9, 10, 11, 12, 13, 14, 15, 16, 17, 18, 19, 20, 21, 22, 23, 24, 25, 26, 27, 28, 29]",300,556,-1,8,157,10,0.0
undo,31,14,0,0,0,18,"[0, 18]",2,17,"[1, 2, 3, 4, 7, 8, 9, 13, 15, 17, 19, 20, 22, 23, 25, 26, 28]",179.8958785,4208,3652,18,136,9,1.0
undo,31,14,0,0,0,8,"[0, 18, 8]",3,13,"[1, 2, 4, 7, 13, 15, 17, 19, 20, 23, 25, 26, 28]",166.294408,5258,1050,18,99,9,1.0203858410107731
undo,31,14,0,0,0,1,"[0, 18, 8, 1]",4,10,"[2, 4, 7, 15, 17, 19, 23, 25, 26, 28]",142.6935606,6889,1631,11,42,9,1.0173392374431458
undo,31,14,0,0,0,19,"[0, 18, 8, 1, 19]",5,9,"[2, 4, 7, 15, 17, 23, 25, 26, 28]",127.4620143,9872,2983,11,22,9,1.1668364376922102
undo,31,14,0,0,0,26,"[0, 18, 8, 1, 19, 26]",6,4,"[4, 7, 23, 25]",74.23608081,11798,1926,2,4,9,1.1379310743287543
undo,31,14,0,0,0,23,"[0, 18, 8, 1, 19, 26, 23]",7,3,"[4, 7, 25]",63.41942699,14456,2658,2,1,9,1.25860317400474
undo,31,14,0,0,0,25,"[0, 18, 8, 1, 19, 26, 23, 25]",8,1,[7],34.00854465,19442,4986,1,0,9,1.6250439771619034
undo,31,14,0,0,1,7,"[0, 18, 8, 1, 19, 26, 23, 25, 7]",9,0,[],14.31082904,21030,1588,1,0,9,1.6358514342320594
undo,31,14,0,1,1,7,"[0, 18, 8, 1, 19, 26, 23, 25, 7]",9,0,[],14.31082904,22641,1611,1,0,9,1.6358514342320594
undo,32,7,0,0,0,0,[0],1,29,"[1, 2, 3, 4, 5, 6, 7, 8, 9, 10, 11, 12, 13, 14, 15, 16, 17, 18, 19, 20, 21, 22, 23, 24, 25, 26, 27, 28, 29]",300,1348,-1,3,79,9,0.0
undo,32,7,0,0,0,25,"[0, 25]",2,20,"[2, 3, 4, 5, 6, 7, 10, 13, 14, 15, 16, 18, 19, 20, 21, 22, 23, 24, 27, 28]",181.5939191,4424,3076,5,33,8,1.0
undo,32,7,0,0,0,4,"[0, 25, 4]",3,11,"[2, 6, 7, 13, 15, 16, 18, 19, 20, 21, 23]",156.8552853,6427,2003,2,14,8,1.0193465608331511
undo,32,7,0,0,0,20,"[0, 25, 4, 20]",4,8,"[2, 6, 7, 13, 15, 16, 18, 19]",137.2084026,8002,1575,1,9,8,1.085904909082323
undo,32,7,0,0,0,18,"[0, 25, 4, 20, 18]",5,7,"[2, 6, 7, 13, 15, 16, 19]",124.4021541,8891,889,1,5,8,1.2264883846453758
undo,32,7,0,0,0,7,"[0, 25, 4, 20, 18, 7]",6,2,"[2, 19]",83.17109789,10225,1334,1,1,8,1.185264473968278
undo,32,7,0,0,0,19,"[0, 25, 4, 20, 18, 7, 19]",7,1,[2],53.76021555,11332,1107,1,0,8,1.3016904288278204
undo,32,7,0,0,1,2,"[0, 25, 4, 20, 18, 7, 19, 2]",8,0,[],23.61058868,13235,1903,1,0,8,1.3168868000947171
undo,32,7,0,1,1,2,"[0, 25, 4, 20, 18, 7, 19, 2]",8,0,[],23.61058868,14551,1316,1,0,8,1.3168868000947171
undo,33,2,0,0,0,0,[0],1,23,"[1, 2, 4, 5, 6, 7, 8, 9, 12, 13, 15, 16, 17, 18, 19, 20, 22, 23, 25, 26, 27, 28, 29]",300,1185,-1,70,620,10,0.0
undo,33,2,0,0,0,19,"[0, 19]",2,22,"[1, 2, 4, 5, 6, 7, 8, 9, 12, 13, 15, 16, 17, 18, 20, 22, 23, 25, 26, 27, 28, 29]",210.306076,4578,3393,67,431,10,1.0
undo,33,2,0,0,0,12,"[0, 19, 12]",3,17,"[1, 4, 5, 6, 7, 13, 15, 16, 17, 18, 20, 22, 25, 26, 27, 28, 29]",174.2921898,6137,1559,66,298,10,1.1107635036313153
undo,33,2,0,0,0,5,"[0, 19, 12, 5]",4,11,"[1, 6, 7, 13, 15, 16, 18, 22, 25, 26, 29]",144.7625437,7511,1374,38,136,10,1.0968174771581647
undo,33,2,0,0,0,22,"[0, 19, 12, 5, 22]",5,8,"[1, 6, 7, 13, 15, 18, 26, 29]",131.9562952,9560,2049,20,63,10,1.0889910507461968
undo,33,2,0,0,0,13,"[0, 19, 12, 5, 22, 13]",6,7,"[1, 6, 7, 15, 18, 26, 29]",117.0902265,11109,1549,19,20,10,1.236526217328057
undo,33,2,0,0,0,18,"[0, 19, 12, 5, 22, 13, 18]",7,4,"[7, 15, 26, 29]",81.91921567,14202,3093,10,3,10,1.2128708213409936
undo,33,2,0,0,0,7,"[0, 19, 12, 5, 22, 13, 18, 7]",8,3,"[15, 26, 29]",71.62358553,16895,2693,5,0,10,1.2019811287894737
undo,33,2,0,0,0,15,"[0, 19, 12, 5, 22, 13, 18, 7, 15]",9,2,"[26, 29]",56.85876247,18490,1595,2,0,10,1.2907869828541363
undo,33,2,0,0,1,29,"[0, 19, 12, 5, 22, 13, 18, 7, 15, 29]",10,0,[],28.39826353,19903,1413,1,0,10,1.4795089334237532
undo,33,2,0,1,1,29,"[0, 19, 12, 5, 22, 13, 18, 7, 15, 29]",10,0,[],28.39826353,21571,1668,1,0,10,1.4795089334237532
undo,34,6,0,0,0,0,[0],1,29,"[1, 2, 3, 4, 5, 6, 7, 8, 9, 10, 11, 12, 13, 14, 15, 16, 17, 18, 19, 20, 21, 22, 23, 24, 25, 26, 27, 28, 29]",300,1095,-1,180,4304,10,0.0
undo,34,6,0,0,0,29,"[0, 29]",2,26,"[1, 2, 3, 4, 5, 6, 7, 10, 11, 12, 13, 14, 15, 16, 17, 18, 19, 20, 21, 22, 23, 24, 25, 26, 27, 28]",193.4917844,6898,5803,62,329,8,1.0
undo,34,6,0,0,0,24,"[0, 29, 24]",3,12,"[2, 3, 6, 7, 10, 16, 17, 18, 22, 23, 26, 27]",117.9007796,11354,4456,2,27,8,1.8716508526564752
undo,34,6,0,0,0,10,"[0, 29, 24, 10]",4,9,"[2, 3, 6, 7, 16, 17, 18, 23, 26]",104.4843717,12723,1369,2,20,8,2.3180593304608608
undo,34,6,0,0,0,17,"[0, 29, 24, 10, 17]",5,6,"[3, 7, 16, 18, 23, 26]",84.76128881,14667,1944,2,7,8,3.0497350569900687
undo,34,6,0,0,0,18,"[0, 29, 24, 10, 17, 18]",6,3,"[3, 7, 16]",70.83290053,16053,1386,2,1,8,3.7629101749171805
undo,34,6,0,0,0,3,"[0, 29, 24, 10, 17, 18, 3]",7,1,[7],41.83290053,19122,3069,1,0,8,7.700478982234154
undo,34,6,0,0,1,7,"[0, 29, 24, 10, 17, 18, 3, 7]",8,0,[],5.694278534,20622,1500,1,0,8,6.128709743950623
undo,34,6,0,1,1,7,"[0, 29, 24, 10, 17, 18, 3, 7]",8,0,[],5.694278534,21983,1361,1,0,8,6.128709743950623
undo,35,40,0,0,0,0,[0],1,29,"[1, 2, 3, 4, 5, 6, 7, 8, 9, 10, 11, 12, 13, 14, 15, 16, 17, 18, 19, 20, 21, 22, 23, 24, 25, 26, 27, 28, 29]",300,569,-1,8,191,9,0.0
undo,35,40,0,0,0,2,"[0, 2]",2,28,"[1, 3, 4, 5, 6, 7, 8, 9, 10, 11, 12, 13, 14, 15, 16, 17, 18, 19, 20, 21, 22, 23, 24, 25, 26, 27, 28, 29]",263.7646581,6931,6362,4,79,9,1.0
undo,35,40,0,0,0,19,"[0, 2, 19]",3,22,"[1, 5, 6, 7, 8, 9, 10, 11, 13, 14, 15, 17, 18, 20, 21, 22, 23, 24, 25, 26, 27, 29]",194.4249148,8267,1336,19,105,8,1.02908296307533
undo,35,40,0,0,0,23,"[0, 2, 19, 23]",4,15,"[1, 5, 6, 7, 8, 9, 10, 11, 13, 17, 18, 21, 22, 27, 29]",162.4718242,10379,2112,11,38,8,1.4499965171787688
undo,35,40,0,0,0,5,"[0, 2, 19, 23, 5]",5,10,"[1, 6, 7, 8, 9, 11, 18, 21, 22, 27]",134.1698808,12961,2582,4,12,8,1.3483906154476113
undo,35,40,0,0,0,18,"[0, 2, 19, 23, 5, 18]",6,5,"[1, 6, 9, 21, 22]",102.594574,15579,2618,3,3,8,1.6664768989460201
undo,35,40,0,0,0,9,"[0, 2, 19, 23, 5, 18, 9]",7,2,"[6, 21]",86.04162866,18212,2633,2,0,8,1.7348609689602368
undo,35,40,1,0,0,18,"[0, 2, 19, 23, 5, 18]",6,5,"[1, 6, 9, 21, 22]",102.594574,24811,6599,3,3,8,1.6664768989460201
undo,35,40,1,0,0,5,"[0, 2, 19, 23, 5]",5,10,"[1, 6, 7, 8, 9, 11, 18, 21, 22, 27]",134.1698808,25437,626,4,12,8,1.3483906154476113
undo,35,40,1,0,0,23,"[0, 2, 19, 23]",4,15,"[1, 5, 6, 7, 8, 9, 10, 11, 13, 17, 18, 21, 22, 27, 29]",162.4718242,28881,3444,11,38,8,1.4499965171787688
undo,35,40,1,0,0,19,"[0, 2, 19]",3,22,"[1, 5, 6, 7, 8, 9, 10, 11, 13, 14, 15, 17, 18, 20, 21, 22, 23, 24, 25, 26, 27, 29]",194.4249148,29404,523,19,105,8,1.02908296307533
undo,35,40,1,0,0,2,"[0, 2]",2,28,"[1, 3, 4, 5, 6, 7, 8, 9, 10, 11, 12, 13, 14, 15, 16, 17, 18, 19, 20, 21, 22, 23, 24, 25, 26, 27, 28, 29]",263.7646581,29818,414,4,79,9,1.0
undo,35,40,1,0,0,0,[0],1,29,"[1, 2, 3, 4, 5, 6, 7, 8, 9, 10, 11, 12, 13, 14, 15, 16, 17, 18, 19, 20, 21, 22, 23, 24, 25, 26, 27, 28, 29]",300,31019,1201,8,191,9,0.0
undo,35,40,0,0,0,1,"[0, 1]",2,18,"[2, 5, 6, 7, 8, 9, 10, 11, 13, 15, 17, 18, 19, 21, 22, 23, 27, 29]",247.8463808,34335,3316,4,80,9,1.0
undo,35,40,0,0,0,6,"[0, 1, 6]",3,17,"[2, 5, 7, 8, 9, 10, 11, 13, 15, 17, 18, 19, 21, 22, 23, 27, 29]",227.7466295,35710,1375,4,74,9,1.0459427008232034
undo,35,40,0,0,0,21,"[0, 1, 6, 21]",4,8,"[2, 5, 9, 17, 18, 19, 22, 23]",175.7754837,36772,1062,4,25,9,1.0308822257404064
undo,35,40,0,0,0,9,"[0, 1, 6, 21, 9]",5,6,"[2, 5, 18, 19, 22, 23]",130.0699041,39849,3077,4,12,9,1.377861912961129
undo,35,40,0,0,0,18,"[0, 1, 6, 21, 9, 18]",6,5,"[2, 5, 19, 22, 23]",113.5169588,41000,1151,4,4,9,1.5742712168661408
undo,35,40,0,0,0,5,"[0, 1, 6, 21, 9, 18, 5]",7,3,"[19, 22, 23]",81.94165198,42565,1565,2,1,9,1.7730665063055515
undo,35,40,0,0,0,23,"[0, 1, 6, 21, 9, 18, 5, 23]",8,1,[19],53.63970859,44013,1448,1,0,9,2.597442759912231
undo,35,40,0,0,1,19,"[0, 1, 6, 21, 9, 18, 5, 23, 19]",9,0,[],21.68661797,45711,1698,1,0,9,2.7128328554069565
undo,35,40,0,1,1,19,"[0, 1, 6, 21, 9, 18, 5, 23, 19]",9,0,[],21.68661797,51137,5426,1,0,9,2.7128328554069565
undo,36,23,0,0,0,0,[0],1,28,"[1, 2, 3, 4, 5, 6, 7, 8, 9, 10, 11, 12, 13, 14, 15, 16, 17, 18, 19, 20, 21, 22, 23, 25, 26, 27, 28, 29]",300,1684,-1,76,2626,10,0.0
undo,36,23,0,0,0,27,"[0, 27]",2,11,"[2, 6, 7, 9, 10, 12, 13, 14, 18, 22, 29]",156.8217894,8295,6611,6,455,9,1.0
undo,36,23,0,0,0,13,"[0, 27, 13]",3,9,"[2, 6, 7, 9, 12, 14, 18, 22, 29]",111.7219002,11792,3497,87,69,8,1.7011075111328362
undo,36,23,0,0,0,12,"[0, 27, 13, 12]",4,8,"[2, 6, 7, 9, 14, 18, 22, 29]",99.63885426,13333,1541,30,13,8,1.6344171596748487
undo,36,23,0,0,0,2,"[0, 27, 13, 12, 2]",5,5,"[6, 9, 14, 22, 29]",85.74641027,15784,2451,10,4,8,1.5700974455484809
undo,36,23,0,0,0,6,"[0, 27, 13, 12, 2, 6]",6,2,"[9, 14]",67.30732135,18096,2312,2,0,8,1.548774103147587
undo,36,23,0,0,0,14,"[0, 27, 13, 12, 2, 6, 14]",7,1,[9],38.44558198,19447,1351,1,0,8,1.8564437928358446
undo,36,23,0,0,1,9,"[0, 27, 13, 12, 2, 6, 14, 9]",8,0,[],28.00527547,21113,1666,1,0,8,2.081883588063625
undo,36,23,1,0,0,14,"[0, 27, 13, 12, 2, 6, 14]",7,1,[9],38.44558198,26499,5386,1,0,8,1.8564437928358446
undo,36,23,1,0,0,6,"[0, 27, 13, 12, 2, 6]",6,2,"[9, 14]",67.30732135,27041,542,2,0,8,1.548774103147587
undo,36,23,1,0,0,2,"[0, 27, 13, 12, 2]",5,5,"[6, 9, 14, 22, 29]",85.74641027,27640,599,10,4,8,1.5700974455484809
undo,36,23,1,0,0,12,"[0, 27, 13, 12]",4,8,"[2, 6, 7, 9, 14, 18, 22, 29]",99.63885426,28128,488,30,13,8,1.6344171596748487
undo,36,23,1,0,0,13,"[0, 27, 13]",3,9,"[2, 6, 7, 9, 12, 14, 18, 22, 29]",111.7219002,28618,490,87,69,8,1.7011075111328362
undo,36,23,1,0,0,27,"[0, 27]",2,11,"[2, 6, 7, 9, 10, 12, 13, 14, 18, 22, 29]",156.8217894,30025,1407,6,455,9,1.0
undo,36,23,1,0,0,0,[0],1,28,"[1, 2, 3, 4, 5, 6, 7, 8, 9, 10, 11, 12, 13, 14, 15, 16, 17, 18, 19, 20, 21, 22, 23, 25, 26, 27, 28, 29]",300,30546,521,76,2626,10,0.0
undo,36,23,0,0,0,22,"[0, 22]",2,24,"[1, 2, 3, 5, 6, 7, 8, 9, 10, 11, 12, 13, 14, 15, 17, 18, 19, 20, 21, 23, 25, 26, 27, 29]",210.5013967,33250,2704,15,1362,10,1.0
undo,36,23,0,0,0,13,"[0, 22, 13]",3,14,"[1, 2, 5, 6, 7, 8, 9, 10, 12, 14, 18, 21, 27, 29]",168.3113504,34542,1292,14,522,10,1.1898173563652046
undo,36,23,0,0,0,12,"[0, 22, 13, 12]",4,11,"[1, 2, 6, 7, 9, 10, 14, 18, 21, 27, 29]",156.2283045,35916,1374,12,166,10,1.1727968780218219
undo,36,23,0,0,0,9,"[0, 22, 13, 12, 9]",5,10,"[1, 2, 6, 7, 10, 14, 18, 21, 27, 29]",141.9104834,37328,1412,5,49,10,1.2100380646101494
undo,36,23,0,0,0,14,"[0, 22, 13, 12, 9, 14]",6,8,"[1, 2, 6, 7, 10, 18, 27, 29]",131.4701769,38162,834,2,19,10,1.1961799245073135
undo,36,23,0,0,0,2,"[0, 22, 13, 12, 9, 14, 2]",7,6,"[6, 7, 10, 18, 27, 29]",116.6041081,39481,1319,1,8,10,1.343965446549325
undo,36,23,0,0,0,6,"[0, 22, 13, 12, 9, 14, 2, 6]",8,3,"[18, 27, 29]",98.16501923,40776,1295,3,0,9,1.3433890277057379
undo,36,23,0,0,1,27,"[0, 22, 13, 12, 9, 14, 2, 6, 27]",9,0,[],69.86307584,48506,7730,1,0,9,1.607346000085698
undo,36,23,0,1,1,27,"[0, 22, 13, 12, 9, 14, 2, 6, 27]",9,0,[],69.86307584,57104,8598,1,0,9,1.607346000085698
undo,37,34,0,0,0,0,[0],1,25,"[1, 3, 4, 5, 6, 7, 8, 9, 10, 11, 12, 13, 15, 18, 19, 20, 21, 22, 23, 24, 25, 26, 27, 28, 29]",300,612,-1,12,367,10,0.0
undo,37,34,0,0,0,13,"[0, 13]",2,24,"[1, 3, 4, 5, 6, 7, 8, 9, 10, 11, 12, 15, 18, 19, 20, 21, 22, 23, 24, 25, 26, 27, 28, 29]",279.9750156,9794,9182,12,331,10,1.0
undo,37,34,0,0,0,1,"[0, 13, 1]",3,16,"[3, 5, 7, 8, 9, 10, 11, 12, 19, 21, 22, 23, 24, 25, 27, 29]",211.8574701,11223,1429,3,92,10,1.0010381285747127
undo,37,34,0,0,0,8,"[0, 13, 1, 8]",4,14,"[3, 5, 7, 9, 10, 11, 12, 19, 22, 23, 24, 25, 27, 29]",201.0871405,12230,1007,2,54,10,1.1636807
undo,37,34,0,0,0,25,"[0, 13, 1, 8, 25]",5,12,"[3, 5, 7, 9, 10, 11, 12, 22, 23, 24, 27, 29]",183.999133,13478,1248,2,28,10,1.1396208815936457
undo,37,34,0,0,0,24,"[0, 13, 1, 8, 25, 24]",6,11,"[3, 5, 7, 9, 10, 11, 12, 22, 23, 27, 29]",166.5062774,15246,1768,2,23,10,1.374180768736554
undo,37,34,0,0,0,12,"[0, 13, 1, 8, 25, 24, 12]",7,7,"[7, 9, 10, 11, 22, 23, 27]",115.4670767,17100,1854,1,8,10,1.4994254760835948
undo,37,34,0,0,0,7,"[0, 13, 1, 8, 25, 24, 12, 7]",8,5,"[9, 11, 22, 23, 27]",100.4337804,17907,807,1,4,10,1.758992610425009
undo,37,34,0,0,0,23,"[0, 13, 1, 8, 25, 24, 12, 7, 23]",9,1,[27],72.27352467,18761,854,1,0,10,2.399781305190153
undo,37,34,0,0,1,27,"[0, 13, 1, 8, 25, 24, 12, 7, 23, 27]",10,0,[],18.60789321,19912,1151,1,0,10,4.766619878750327
undo,37,34,0,1,1,27,"[0, 13, 1, 8, 25, 24, 12, 7, 23, 27]",10,0,[],18.60789321,21049,1137,1,0,10,4.766619878750327
undo,38,27,0,0,0,0,[0],1,26,"[1, 3, 5, 6, 7, 8, 9, 10, 11, 12, 13, 14, 15, 16, 17, 18, 19, 21, 22, 23, 24, 25, 26, 27, 28, 29]",300,1460,-1,13,578,11,0.0
undo,38,27,0,0,0,15,"[0, 15]",2,24,"[1, 3, 5, 6, 7, 8, 9, 10, 11, 12, 13, 14, 16, 17, 18, 19, 21, 22, 23, 24, 25, 26, 27, 29]",263.7508621,5837,4377,6,219,11,1.0
undo,38,27,0,0,0,24,"[0, 15, 24]",3,20,"[1, 5, 6, 7, 8, 9, 10, 12, 13, 14, 16, 17, 18, 19, 21, 23, 25, 26, 27, 29]",246.5462115,6967,1130,6,130,11,1.130933077698322
undo,38,27,0,0,0,17,"[0, 15, 24, 17]",4,15,"[1, 6, 8, 10, 12, 13, 14, 16, 18, 19, 23, 25, 26, 27, 29]",229.9932662,8411,1444,4,60,11,1.1285538435963374
undo,38,27,0,0,0,12,"[0, 15, 24, 17, 12]",5,14,"[1, 6, 8, 10, 13, 14, 16, 18, 19, 23, 25, 26, 27, 29]",218.8129263,10174,1763,2,32,11,1.2561880288755216
undo,38,27,0,0,0,10,"[0, 15, 24, 17, 12, 10]",6,11,"[1, 8, 13, 14, 18, 19, 23, 25, 26, 27, 29]",207.7675653,11709,1535,2,28,11,1.2228289337766665
undo,38,27,0,0,0,13,"[0, 15, 24, 17, 12, 10, 13]",7,9,"[1, 8, 14, 18, 19, 23, 26, 27, 29]",167.9178476,13594,1885,2,18,11,1.3421291994761178
undo,38,27,0,0,0,19,"[0, 15, 24, 17, 12, 10, 13, 19]",8,5,"[1, 8, 14, 23, 29]",131.6825057,15999,2405,2,6,11,1.294749956153846
undo,38,27,0,0,0,8,"[0, 15, 24, 17, 12, 10, 13, 19, 8]",9,3,"[14, 23, 29]",116.816437,17007,1008,2,1,11,1.3554286578836865
undo,38,27,0,0,0,29,"[0, 15, 24, 17, 12, 10, 13, 19, 8, 29]",10,1,[14],57.61339652,18667,1660,1,0,11,1.248354519573802
undo,38,27,0,0,1,14,"[0, 15, 24, 17, 12, 10, 13, 19, 8, 29, 14]",11,0,[],13.31892734,20397,1730,1,0,11,1.562811097555156
undo,38,27,0,1,1,14,"[0, 15, 24, 17, 12, 10, 13, 19, 8, 29, 14]",11,0,[],13.31892734,24538,4141,1,0,11,1.562811097555156
undo,39,19,0,0,0,0,[0],1,29,"[1, 2, 3, 4, 5, 6, 7, 8, 9, 10, 11, 12, 13, 14, 15, 16, 17, 18, 19, 20, 21, 22, 23, 24, 25, 26, 27, 28, 29]",300,1871,-1,12,149,8,0.0
undo,39,19,0,0,0,16,"[0, 16]",2,13,"[1, 2, 3, 5, 8, 12, 13, 15, 17, 19, 23, 25, 29]",194.2408396,8011,6140,1,26,7,1.0
undo,39,19,0,0,0,12,"[0, 16, 12]",3,10,"[1, 2, 3, 8, 13, 17, 19, 23, 25, 29]",126.5651424,9560,1549,1,12,7,1.450081650625254
undo,39,19,0,0,0,17,"[0, 16, 12, 17]",4,6,"[1, 2, 3, 8, 23, 25]",106.4405306,12252,2692,1,5,7,1.3965315142886428
undo,39,19,0,0,0,25,"[0, 16, 12, 17, 25]",5,5,"[1, 2, 3, 8, 23]",95.39516956,14134,1882,1,4,7,1.5003967468312378
undo,39,19,0,0,0,23,"[0, 16, 12, 17, 25, 23]",6,1,[3],25.75322818,16355,2221,1,0,7,1.5252417053127876
undo,39,19,0,0,1,3,"[0, 16, 12, 17, 25, 23, 3]",7,0,[],3.821515977,17263,908,1,0,7,1.4696738618286642
undo,39,19,0,1,1,3,"[0, 16, 12, 17, 25, 23, 3]",7,0,[],3.821515977,24641,7378,1,0,7,1.4696738618286642
undo,40,18,0,0,0,0,[0],1,28,"[1, 2, 3, 4, 5, 6, 7, 8, 9, 10, 11, 12, 13, 14, 16, 17, 18, 19, 20, 21, 22, 23, 24, 25, 26, 27, 28, 29]",300,382,-1,3,136,10,0.0
undo,40,18,0,0,0,28,"[0, 28]",2,16,"[1, 3, 5, 7, 8, 9, 12, 13, 14, 16, 20, 23, 24, 25, 26, 27]",236.4311397,5401,5019,2,19,10,1.0
undo,40,18,0,0,0,7,"[0, 28, 7]",3,15,"[1, 3, 5, 8, 9, 12, 13, 14, 16, 20, 23, 24, 25, 26, 27]",214.4084242,6887,1486,2,17,10,1.4345180696367563
undo,40,18,0,0,0,25,"[0, 28, 7, 25]",4,13,"[1, 3, 5, 8, 9, 12, 13, 14, 16, 20, 23, 26, 27]",186.6055466,8275,1388,2,15,10,1.8896451241781882
undo,40,18,0,0,0,8,"[0, 28, 7, 25, 8]",5,10,"[3, 5, 9, 12, 13, 14, 16, 23, 26, 27]",149.551532,9904,1629,2,10,10,1.590467437592877
undo,40,18,0,0,0,13,"[0, 28, 7, 25, 8, 13]",6,9,"[3, 5, 9, 12, 14, 16, 23, 26, 27]",128.4565089,11712,1808,2,5,10,1.8248274983549797
undo,40,18,0,0,0,14,"[0, 28, 7, 25, 8, 13, 14]",7,7,"[3, 5, 9, 12, 23, 26, 27]",109.4828429,14472,2760,2,3,10,1.6993534956692746
undo,40,18,0,0,0,3,"[0, 28, 7, 25, 8, 13, 14, 3]",8,3,"[5, 12, 27]",79.39962499,15842,1370,2,1,10,1.802637206541468
undo,40,18,0,0,0,5,"[0, 28, 7, 25, 8, 13, 14, 3, 5]",9,1,[12],21.21887216,19351,3509,1,0,10,1.559774889743805
undo,40,18,0,0,1,12,"[0, 28, 7, 25, 8, 13, 14, 3, 5, 12]",10,0,[],9.817117911,20501,1150,1,0,10,1.563993037384447
undo,40,18,0,1,1,12,"[0, 28, 7, 25, 8, 13, 14, 3, 5, 12]",10,0,[],9.817117911,22251,1750,1,0,10,1.563993037384447
undo,41,8,0,0,0,0,[0],1,29,"[1, 2, 3, 4, 5, 6, 7, 8, 9, 10, 11, 12, 13, 14, 15, 16, 17, 18, 19, 20, 21, 22, 23, 24, 25, 26, 27, 28, 29]",300,1010,-1,10,149,9,0.0
undo,41,8,0,0,0,5,"[0, 5]",2,28,"[1, 2, 3, 4, 6, 7, 8, 9, 10, 11, 12, 13, 14, 15, 16, 17, 18, 19, 20, 21, 22, 23, 24, 25, 26, 27, 28, 29]",254.5137383,6855,5845,10,100,9,1.0
undo,41,8,0,0,0,25,"[0, 5, 25]",3,20,"[1, 2, 3, 4, 6, 11, 12, 14, 15, 16, 17, 18, 19, 20, 21, 22, 23, 24, 28, 29]",215.3091468,9034,2179,4,42,9,1.2272747879909065
undo,41,8,0,0,0,1,"[0, 5, 25, 1]",4,17,"[3, 4, 6, 11, 12, 14, 15, 16, 17, 18, 20, 21, 22, 23, 24, 28, 29]",190.3091468,10090,1056,3,24,9,1.1770245007593956
undo,41,8,0,0,0,23,"[0, 5, 25, 1, 23]",5,15,"[3, 4, 6, 11, 14, 15, 16, 17, 18, 20, 21, 22, 24, 28, 29]",167.2874179,10971,881,1,14,9,1.141996583852372
undo,41,8,0,0,0,18,"[0, 5, 25, 1, 23, 18]",6,9,"[3, 4, 11, 14, 15, 16, 17, 24, 28]",125.5261919,12809,1838,1,7,9,1.3199166330970717
undo,41,8,0,0,0,14,"[0, 5, 25, 1, 23, 18, 14]",7,2,"[11, 17]",68.03706246,14233,1424,1,1,9,2.714920831666598
undo,41,8,0,0,0,17,"[0, 5, 25, 1, 23, 18, 14, 17]",8,1,[11],31.02355141,15581,1348,1,0,9,2.462600896722246
undo,41,8,0,0,1,11,"[0, 5, 25, 1, 23, 18, 14, 17, 11]",9,0,[],5.84419479,16899,1318,1,0,9,2.246839316887767
undo,41,8,0,1,1,11,"[0, 5, 25, 1, 23, 18, 14, 17, 11]",9,0,[],5.84419479,19065,2166,1,0,9,2.246839316887767
undo,42,30,0,0,0,0,[0],1,19,"[3, 4, 5, 7, 9, 11, 16, 17, 18, 19, 20, 21, 22, 24, 25, 26, 27, 28, 29]",300,976,-1,5,41,8,0.0
undo,42,30,0,0,0,16,"[0, 16]",2,17,"[3, 5, 7, 9, 11, 17, 18, 19, 20, 21, 22, 24, 25, 26, 27, 28, 29]",219.3774225,5864,4888,5,34,8,1.0
undo,42,30,0,0,0,25,"[0, 16, 25]",3,10,"[3, 5, 7, 9, 11, 18, 19, 20, 27, 29]",115.0845656,7725,1861,5,28,8,1.0336279544884488
undo,42,30,0,0,0,20,"[0, 16, 25, 20]",4,8,"[3, 5, 7, 9, 18, 19, 27, 29]",93.15285342,9127,1402,4,14,8,1.0337964627284246
undo,42,30,0,0,0,27,"[0, 16, 25, 20, 27]",5,4,"[3, 5, 18, 29]",59.09408069,10010,883,4,6,8,1.1504365534848
undo,42,30,0,0,0,3,"[0, 16, 25, 20, 27, 3]",6,3,"[5, 18, 29]",39.98910751,11083,1073,4,0,8,1.1403876826835333
undo,42,30,0,0,0,29,"[0, 16, 25, 20, 27, 3, 29]",7,1,[18],21.38803228,12076,993,1,0,8,1.1443827771455848
undo,42,30,0,0,1,18,"[0, 16, 25, 20, 27, 3, 29, 18]",8,0,[],2.074824359,13885,1809,1,0,8,1.2197761544023602
undo,42,30,0,1,1,18,"[0, 16, 25, 20, 27, 3, 29, 18]",8,0,[],2.074824359,15066,1181,1,0,8,1.2197761544023602
undo,43,12,0,0,0,0,[0],1,29,"[1, 2, 3, 4, 5, 6, 7, 8, 9, 10, 11, 12, 13, 14, 15, 16, 17, 18, 19, 20, 21, 22, 23, 24, 25, 26, 27, 28, 29]",300,1198,-1,2,32,9,0.0
undo,43,12,0,0,0,22,"[0, 22]",2,22,"[2, 4, 5, 6, 7, 9, 10, 12, 13, 14, 15, 16, 17, 18, 19, 21, 23, 24, 25, 27, 28, 29]",211.9943184,3919,2721,6,42,8,1.0
undo,43,12,0,0,0,16,"[0, 22, 16]",3,12,"[2, 4, 5, 6, 7, 12, 14, 19, 23, 24, 25, 27]",190.9943184,4677,758,6,24,8,1.2017164145167045
undo,43,12,0,0,0,4,"[0, 22, 16, 4]",4,9,"[2, 6, 7, 12, 14, 19, 24, 25, 27]",156.7890556,5513,836,6,14,8,1.146531713305579
undo,43,12,0,0,0,12,"[0, 22, 16, 4, 12]",5,4,"[14, 19, 24, 27]",114.5990094,7471,1958,4,3,8,1.1221389456954312
undo,43,12,0,0,0,27,"[0, 22, 16, 4, 12, 27]",6,3,"[14, 19, 24]",90.24741807,8412,941,2,1,8,1.2262878338287035
undo,43,12,0,0,0,14,"[0, 22, 16, 4, 12, 27, 14]",7,1,[24],61.59432051,9526,1114,1,0,8,1.2804562106751427
undo,43,12,0,0,1,24,"[0, 22, 16, 4, 12, 27, 14, 24]",8,0,[],44.38966997,10896,1370,1,0,8,1.4322660007679802
undo,43,12,0,1,1,24,"[0, 22, 16, 4, 12, 27, 14, 24]",8,0,[],44.38966997,12562,1666,1,0,8,1.4322660007679802
undo,44,36,0,0,0,0,[0],1,24,"[2, 4, 5, 6, 7, 8, 9, 10, 12, 13, 14, 15, 16, 17, 18, 19, 20, 22, 23, 25, 26, 27, 28, 29]",300,683,-1,2,200,10,0.0
undo,44,36,0,0,0,12,"[0, 12]",2,23,"[2, 4, 5, 6, 7, 8, 9, 10, 13, 14, 15, 16, 17, 18, 19, 20, 22, 23, 25, 26, 27, 28, 29]",277.7963967,3488,2805,90,804,9,1.0
undo,44,36,0,0,0,16,"[0, 12, 16]",3,10,"[2, 9, 10, 13, 17, 18, 19, 23, 25, 27]",171.6267212,5421,1933,4,38,9,1.202695220335868
undo,44,36,0,0,0,17,"[0, 12, 16, 17]",4,7,"[2, 9, 10, 13, 18, 19, 25]",143.3071167,6420,999,4,23,9,1.6578705047868705
undo,44,36,0,0,0,9,"[0, 12, 16, 17, 9]",5,5,"[2, 13, 18, 19, 25]",117.0583072,8698,2278,3,6,9,2.6488264465469484
undo,44,36,0,0,0,19,"[0, 12, 16, 17, 9, 19]",6,4,"[2, 13, 18, 25]",101.9255612,10156,1458,3,3,9,2.5697960541572393
undo,44,36,0,0,0,13,"[0, 12, 16, 17, 9, 19, 13]",7,2,"[2, 25]",58.50897451,11609,1453,1,1,9,2.4621440589806656
undo,44,36,0,0,0,25,"[0, 12, 16, 17, 9, 19, 13, 25]",8,1,[2],37.91771423,13506,1897,1,0,9,2.2891246998687684
undo,44,36,0,0,1,2,"[0, 12, 16, 17, 9, 19, 13, 25, 2]",9,0,[],12.91771423,14940,1434,1,0,9,2.5421443983069345
undo,44,36,0,1,1,2,"[0, 12, 16, 17, 9, 19, 13, 25, 2]",9,0,[],12.91771423,15898,958,1,0,9,2.5421443983069345
undo,45,39,0,0,0,0,[0],1,28,"[1, 2, 3, 4, 5, 6, 7, 9, 10, 11, 12, 13, 14, 15, 16, 17, 18, 19, 20, 21, 22, 23, 24, 25, 26, 27, 28, 29]",300,1191,-1,1,30,10,0.0
undo,45,39,0,0,0,29,"[0, 29]",2,26,"[1, 2, 3, 4, 5, 6, 7, 9, 10, 12, 13, 14, 15, 16, 17, 18, 19, 20, 21, 22, 23, 24, 25, 26, 27, 28]",243.0614366,6381,5190,8,104,9,1.0
undo,45,39,0,0,0,12,"[0, 29, 12]",3,18,"[1, 2, 4, 5, 7, 9, 10, 13, 14, 15, 16, 18, 19, 22, 23, 24, 26, 28]",182.5221931,10418,4037,5,54,9,1.0026200331524904
undo,45,39,0,0,0,10,"[0, 29, 12, 10]",4,16,"[1, 2, 4, 5, 7, 9, 13, 14, 15, 16, 18, 19, 22, 23, 24, 26]",147.0116313,14056,3638,5,34,9,1.2874817019928908
undo,45,39,0,0,0,7,"[0, 29, 12, 10, 7]",5,10,"[1, 2, 5, 13, 16, 18, 19, 22, 24, 26]",113.5900814,15547,1491,4,12,9,1.2250826263866774
undo,45,39,0,0,0,26,"[0, 29, 12, 10, 7, 26]",6,5,"[1, 16, 18, 19, 22]",94.90853971,18589,3042,3,4,9,1.2697275353190085
undo,45,39,0,0,0,22,"[0, 29, 12, 10, 7, 26, 22]",7,2,"[16, 19]",77.18849457,19568,979,2,0,9,1.438961743955176
undo,45,39,0,0,0,16,"[0, 29, 12, 10, 7, 26, 22, 16]",8,1,[19],42.18849457,21022,1454,1,0,9,1.3580882130477205
undo,45,39,0,0,1,19,"[0, 29, 12, 10, 7, 26, 22, 16, 19]",9,0,[],24.72424537,21838,816,1,0,9,1.3646589157842668
undo,45,39,0,1,1,19,"[0, 29, 12, 10, 7, 26, 22, 16, 19]",9,0,[],24.72424537,23317,1479,1,0,9,1.3646589157842668
undo,46,21,0,0,0,0,[0],1,29,"[1, 2, 3, 4, 5, 6, 7, 8, 9, 10, 11, 12, 13, 14, 15, 16, 17, 18, 19, 20, 21, 22, 23, 24, 25, 26, 27, 28, 29]",300,1524,-1,84,830,9,0.0
undo,46,21,0,0,0,21,"[0, 21]",2,22,"[1, 3, 4, 6, 8, 9, 10, 11, 12, 14, 15, 16, 17, 18, 20, 22, 23, 24, 25, 26, 27, 29]",210.1111798,13008,11484,1,69,9,1.0
undo,46,21,0,0,0,14,"[0, 21, 14]",3,15,"[1, 4, 6, 8, 9, 15, 16, 17, 18, 20, 22, 23, 24, 25, 29]",184.4986828,14149,1141,35,96,8,1.0083702391721483
undo,46,21,0,0,0,23,"[0, 21, 14, 23]",4,13,"[4, 6, 8, 9, 15, 16, 17, 18, 20, 22, 24, 25, 29]",155.4297991,17182,3033,15,30,8,1.4600071597439013
undo,46,21,0,0,0,25,"[0, 21, 14, 23, 25]",5,9,"[4, 6, 15, 16, 17, 18, 20, 22, 29]",112.1054411,18134,952,6,6,8,3.141188767161348
undo,46,21,0,0,0,18,"[0, 21, 14, 23, 25, 18]",6,3,"[20, 22, 29]",70.34421505,19648,1514,3,1,8,3.8874487461403757
undo,46,21,0,0,0,22,"[0, 21, 14, 23, 25, 18, 22]",7,2,"[20, 29]",43.94345748,21257,1609,2,0,8,3.1140846158573163
undo,46,21,0,0,1,20,"[0, 21, 14, 23, 25, 18, 22, 20]",8,0,[],15.71226905,22608,1351,1,0,8,3.4510495071728244
undo,46,21,0,1,1,20,"[0, 21, 14, 23, 25, 18, 22, 20]",8,0,[],15.71226905,23644,1036,1,0,8,3.4510495071728244
undo,47,0,0,0,0,0,[0],1,27,"[2, 3, 4, 5, 6, 7, 8, 9, 10, 11, 12, 13, 14, 15, 16, 17, 19, 20, 21, 22, 23, 24, 25, 26, 27, 28, 29]",300,509,-1,104,1136,9,0.0
undo,47,0,0,0,0,28,"[0, 28]",2,26,"[2, 3, 4, 5, 6, 7, 8, 9, 10, 11, 12, 13, 14, 15, 16, 17, 19, 20, 21, 22, 23, 24, 25, 26, 27, 29]",194.9190788,10730,10221,39,388,9,1.0
undo,47,0,0,0,0,5,"[0, 28, 5]",3,21,"[2, 3, 4, 7, 8, 9, 11, 12, 13, 14, 15, 16, 17, 19, 20, 21, 23, 24, 25, 26, 29]",151.2613189,12692,1962,27,210,9,1.0978295127671733
undo,47,0,0,0,0,4,"[0, 28, 5, 4]",4,16,"[3, 7, 8, 9, 11, 12, 13, 14, 15, 17, 19, 20, 21, 23, 24, 26]",126.1814465,13718,1026,17,114,9,1.1103727063761901
undo,47,0,0,0,0,26,"[0, 28, 5, 4, 26]",5,14,"[3, 7, 8, 9, 11, 12, 13, 14, 15, 17, 19, 20, 23, 24]",114.1398519,15472,1754,7,54,9,1.1504454351688815
undo,47,0,0,0,0,24,"[0, 28, 5, 4, 26, 24]",6,11,"[3, 7, 8, 9, 11, 12, 15, 17, 19, 20, 23]",97.02260914,16785,1313,7,22,9,1.2166555899566422
undo,47,0,0,0,0,15,"[0, 28, 5, 4, 26, 24, 15]",7,7,"[3, 7, 8, 9, 11, 12, 17]",73.67737408,18031,1246,4,5,9,1.1972898774231708
undo,47,0,0,0,0,7,"[0, 28, 5, 4, 26, 24, 15, 7]",8,2,"[3, 8]",42.61292495,19558,1527,2,0,9,1.2554869594545575
undo,47,0,0,0,1,3,"[0, 28, 5, 4, 26, 24, 15, 7, 3]",9,0,[],18.52973579,20678,1120,1,0,9,1.2985327435367093
undo,47,0,0,1,1,3,"[0, 28, 5, 4, 26, 24, 15, 7, 3]",9,0,[],18.52973579,29107,8429,1,0,9,1.2985327435367093
undo,48,45,0,0,0,0,[0],1,24,"[1, 2, 3, 4, 5, 6, 7, 9, 10, 11, 12, 14, 15, 16, 17, 19, 20, 21, 22, 23, 24, 25, 27, 29]",300,2996,-1,6,248,10,0.0
undo,48,45,0,0,0,20,"[0, 20]",2,22,"[1, 2, 3, 4, 5, 6, 7, 9, 10, 11, 12, 14, 15, 16, 17, 19, 21, 22, 23, 24, 25, 29]",207.8642306,7334,4338,1,73,9,1.0
undo,48,45,1,0,0,0,[0],1,24,"[1, 2, 3, 4, 5, 6, 7, 9, 10, 11, 12, 14, 15, 16, 17, 19, 20, 21, 22, 23, 24, 25, 27, 29]",300,13393,6059,6,248,10,0.0
undo,48,45,0,0,0,17,"[0, 17]",2,22,"[1, 2, 3, 4, 5, 6, 7, 9, 10, 11, 12, 14, 15, 16, 19, 20, 21, 22, 23, 24, 25, 29]",235.867325,14637,1244,1,34,10,1.0
undo,48,45,0,0,0,15,"[0, 17, 15]",3,14,"[2, 3, 6, 7, 9, 10, 11, 12, 19, 20, 22, 23, 24, 29]",178.439109,16545,1908,8,62,8,2.637025973747376
undo,48,45,0,0,0,23,"[0, 17, 15, 23]",4,12,"[2, 3, 6, 7, 9, 10, 11, 12, 20, 22, 24, 29]",154.8382615,17880,1335,7,36,8,2.0839714489576306
undo,48,45,0,0,0,20,"[0, 17, 15, 23, 20]",5,9,"[2, 3, 6, 7, 9, 10, 12, 24, 29]",113.4015628,21077,3197,5,21,8,2.025255103933633
undo,48,45,0,0,0,10,"[0, 17, 15, 23, 20, 10]",6,6,"[2, 3, 6, 7, 12, 29]",57.32126324,23881,2804,5,4,8,1.6492356591869954
undo,48,45,0,0,0,6,"[0, 17, 15, 23, 20, 10, 6]",7,2,"[12, 29]",31.07245374,26896,3015,2,0,8,1.5613961816216346
undo,48,45,0,0,1,29,"[0, 17, 15, 23, 20, 10, 6, 29]",8,0,[],2.912198058,27726,830,1,0,8,1.8445899355072377
undo,48,45,0,1,1,29,"[0, 17, 15, 23, 20, 10, 6, 29]",8,0,[],2.912198058,29301,1575,1,0,8,1.8445899355072377
undo,49,10,0,0,0,0,[0],1,29,"[1, 2, 3, 4, 5, 6, 7, 8, 9, 10, 11, 12, 13, 14, 15, 16, 17, 18, 19, 20, 21, 22, 23, 24, 25, 26, 27, 28, 29]",300,1207,-1,1,100,9,0.0
undo,49,10,0,0,0,13,"[0, 13]",2,25,"[1, 2, 3, 4, 6, 7, 8, 9, 10, 11, 12, 14, 17, 18, 19, 20, 21, 22, 23, 24, 25, 26, 27, 28, 29]",249.4628849,6922,5715,1,79,9,1.0
undo,49,10,0,0,0,11,"[0, 13, 11]",3,20,"[1, 2, 3, 6, 7, 8, 9, 10, 12, 14, 18, 19, 20, 21, 22, 24, 26, 27, 28, 29]",206.4512586,9139,2217,1,54,9,1.0313137484914219
undo,49,10,0,0,0,19,"[0, 13, 11, 19]",4,11,"[2, 6, 8, 9, 10, 14, 18, 20, 24, 26, 27]",170.0919407,10276,1137,1,22,9,1.0879446220132545
undo,49,10,0,0,0,2,"[0, 13, 11, 19, 2]",5,4,"[14, 20, 26, 27]",126.1829439,11230,954,1,4,9,1.06474052351343
undo,49,10,0,0,0,14,"[0, 13, 11, 19, 2, 14]",6,3,"[20, 26, 27]",114.0174188,12295,1065,1,3,9,1.1628909195912238
undo,49,10,0,0,0,26,"[0, 13, 11, 19, 2, 14, 26]",7,2,"[20, 27]",79.34754716,13389,1094,1,1,9,1.6660727647633602
undo,49,10,0,0,0,20,"[0, 13, 11, 19, 2, 14, 26, 20]",8,1,[27],47.56704999,14297,908,1,0,9,2.085581809637999
undo,49,10,0,0,1,27,"[0, 13, 11, 19, 2, 14, 26, 20, 27]",9,0,[],2.312215998,15508,1211,1,0,9,1.9116357409137932
undo,49,10,0,1,1,27,"[0, 13, 11, 19, 2, 14, 26, 20, 27]",9,0,[],2.312215998,24008,8500,1,0,9,1.9116357409137932
undo,50,20,0,0,0,0,[0],1,21,"[1, 2, 3, 4, 5, 6, 7, 8, 9, 12, 17, 18, 20, 21, 22, 23, 25, 26, 27, 28, 29]",300,1044,-1,1,9,9,0.0
undo,50,20,0,0,0,12,"[0, 12]",2,20,"[1, 2, 3, 4, 5, 6, 7, 8, 9, 17, 18, 20, 21, 22, 23, 25, 26, 27, 28, 29]",271.5570747,4598,3554,1,8,9,1.0
undo,50,20,0,0,0,1,"[0, 12, 1]",3,12,"[3, 4, 5, 6, 8, 9, 20, 21, 23, 27, 28, 29]",189.5692707,5637,1039,1,6,9,1.0757997779162911
undo,50,20,0,0,0,5,"[0, 12, 1, 5]",4,10,"[4, 6, 8, 9, 20, 21, 23, 27, 28, 29]",152.8950291,6615,978,1,5,9,1.1708231454516806
undo,50,20,0,0,0,21,"[0, 12, 1, 5, 21]",5,8,"[4, 6, 8, 9, 20, 23, 27, 28]",107.8950291,7845,1230,1,4,9,1.126197336199212
undo,50,20,0,0,0,8,"[0, 12, 1, 5, 21, 8]",6,5,"[6, 9, 23, 27, 28]",90.43077988,8610,765,1,3,9,1.140007470699913
undo,50,20,0,0,0,23,"[0, 12, 1, 5, 21, 8, 23]",7,2,"[6, 9]",45.74297394,10538,1928,1,1,9,1.1162257896627588
undo,50,20,0,0,0,9,"[0, 12, 1, 5, 21, 8, 23, 9]",8,1,[6],26.53360123,11606,1068,1,0,9,1.1086880559449597
undo,50,20,0,0,1,6,"[0, 12, 1, 5, 21, 8, 23, 9, 6]",9,0,[],3.511872362,13545,1939,1,0,9,1.1186240265999328
undo,50,20,0,1,1,6,"[0, 12, 1, 5, 21, 8, 23, 9, 6]",9,0,[],3.511872362,14756,1211,1,0,9,1.1186240265999328
undo,51,13,0,0,0,0,[0],1,29,"[1, 2, 3, 4, 5, 6, 7, 8, 9, 10, 11, 12, 13, 14, 15, 16, 17, 18, 19, 20, 21, 22, 23, 24, 25, 26, 27, 28, 29]",300,2081,-1,60,2676,11,0.0
undo,51,13,0,0,0,24,"[0, 24]",2,28,"[1, 2, 3, 4, 5, 6, 7, 8, 9, 10, 11, 12, 13, 14, 15, 16, 17, 18, 19, 20, 21, 22, 23, 25, 26, 27, 28, 29]",288.8196601,9187,7106,16,1444,11,1.0
undo,51,13,0,0,0,28,"[0, 24, 28]",3,23,"[1, 2, 3, 4, 6, 7, 8, 9, 10, 11, 12, 13, 15, 16, 17, 19, 20, 21, 22, 23, 26, 27, 29]",222.5324064,10986,1799,8,243,11,1.0513810491680837
undo,51,13,0,0,0,2,"[0, 24, 28, 2]",4,19,"[1, 3, 4, 6, 7, 9, 11, 12, 13, 15, 16, 17, 19, 20, 21, 23, 26, 27, 29]",184.889346,13419,2433,7,110,11,1.050374132001543
undo,51,13,0,0,0,29,"[0, 24, 28, 2, 29]",5,18,"[1, 3, 4, 6, 7, 9, 11, 12, 13, 15, 16, 17, 19, 20, 21, 23, 26, 27]",173.1846461,14708,1289,7,85,11,1.1393409619120594
undo,51,13,0,0,0,7,"[0, 24, 28, 2, 29, 7]",6,17,"[1, 3, 4, 6, 9, 11, 12, 13, 15, 16, 17, 19, 20, 21, 23, 26, 27]",157.9203086,15742,1034,5,45,11,1.349777315111579
undo,51,13,0,0,0,26,"[0, 24, 28, 2, 29, 7, 26]",7,16,"[1, 3, 4, 6, 9, 11, 12, 13, 15, 16, 17, 19, 20, 21, 23, 27]",147.480002,16768,1026,5,25,11,1.5942082773824946
undo,51,13,0,0,0,6,"[0, 24, 28, 2, 29, 7, 26, 6]",8,12,"[1, 3, 4, 11, 13, 15, 16, 17, 19, 20, 23, 27]",127.3802508,17548,780,4,12,11,1.5898347940840756
undo,51,13,0,0,0,11,"[0, 24, 28, 2, 29, 7, 26, 6, 11]",9,6,"[1, 13, 15, 16, 17, 23]",108.2752776,18286,738,3,4,11,1.5029953945561012
undo,51,13,0,0,0,13,"[0, 24, 28, 2, 29, 7, 26, 6, 11, 13]",10,2,"[15, 17]",52.19497806,19475,1189,2,0,11,1.3655915863754327
undo,51,13,0,0,1,17,"[0, 24, 28, 2, 29, 7, 26, 6, 11, 13, 17]",11,0,[],18.81833952,24175,4700,1,0,11,1.4149038511024103
undo,51,13,0,1,1,17,"[0, 24, 28, 2, 29, 7, 26, 6, 11, 13, 17]",11,0,[],18.81833952,30173,5998,1,0,11,1.4149038511024103
undo,52,1,0,0,0,0,[0],1,26,"[1, 2, 4, 5, 7, 8, 9, 10, 11, 12, 13, 14, 15, 16, 17, 18, 19, 20, 21, 22, 23, 24, 25, 26, 28, 29]",300,1124,-1,6,74,7,0.0
undo,52,1,0,0,0,14,"[0, 14]",2,19,"[1, 4, 5, 8, 9, 13, 15, 17, 18, 19, 20, 21, 22, 23, 24, 25, 26, 28, 29]",200.1901808,4518,3394,5,42,7,1.0
undo,52,1,0,0,0,17,"[0, 14, 17]",3,15,"[1, 4, 5, 8, 9, 13, 15, 18, 19, 20, 22, 23, 25, 28, 29]",147.8356204,6051,1533,5,27,7,1.0028844724416826
undo,52,1,0,0,0,1,"[0, 14, 17, 1]",4,12,"[4, 5, 8, 9, 15, 18, 20, 22, 23, 25, 28, 29]",123.4840291,6732,681,5,15,7,1.0264985578353567
undo,52,1,0,0,0,28,"[0, 14, 17, 1, 28]",5,5,"[9, 15, 22, 23, 29]",88.59850198,8804,2072,5,3,7,1.0339861575999345
undo,52,1,0,0,0,23,"[0, 14, 17, 1, 28, 23]",6,2,"[15, 22]",51.70676849,10154,1350,2,0,7,1.0327458250705703
undo,52,1,0,0,1,15,"[0, 14, 17, 1, 28, 23, 15]",7,0,[],20.81987807,11905,1751,1,0,7,1.1948681641401226
undo,52,1,0,1,1,15,"[0, 14, 17, 1, 28, 23, 15]",7,0,[],20.81987807,13002,1097,1,0,7,1.1948681641401226
undo,53,32,0,0,0,0,[0],1,29,"[1, 2, 3, 4, 5, 6, 7, 8, 9, 10, 11, 12, 13, 14, 15, 16, 17, 18, 19, 20, 21, 22, 23, 24, 25, 26, 27, 28, 29]",300,1223,-1,17,359,10,0.0
undo,53,32,0,0,0,19,"[0, 19]",2,28,"[1, 2, 3, 4, 5, 6, 7, 8, 9, 10, 11, 12, 13, 14, 15, 16, 17, 18, 20, 21, 22, 23, 24, 25, 26, 27, 28, 29]",283.5075775,4566,3343,16,294,10,1.0
undo,53,32,0,0,0,13,"[0, 19, 13]",3,24,"[2, 3, 4, 5, 6, 8, 9, 10, 11, 12, 14, 15, 16, 17, 18, 20, 21, 22, 23, 24, 25, 26, 27, 28]",260.3127505,5567,1001,14,227,10,1.0172874229878615
undo,53,32,0,0,0,15,"[0, 19, 13, 15]",4,18,"[2, 3, 5, 8, 9, 10, 11, 12, 16, 17, 20, 22, 23, 24, 25, 26, 27, 28]",177.4393531,7099,1532,9,116,10,1.435447391509833
undo,53,32,0,0,0,28,"[0, 19, 13, 15, 28]",5,17,"[2, 3, 5, 8, 9, 10, 11, 12, 16, 17, 20, 22, 23, 24, 25, 26, 27]",166.0375988,7961,862,9,70,10,1.3843701324937985
undo,53,32,0,0,0,12,"[0, 19, 13, 15, 28, 12]",6,14,"[2, 3, 5, 8, 9, 10, 11, 16, 17, 20, 22, 24, 26, 27]",147.0639329,8874,913,6,35,10,1.358372254952329
undo,53,32,0,0,0,16,"[0, 19, 13, 15, 28, 12, 16]",7,13,"[2, 3, 5, 8, 9, 10, 11, 17, 20, 22, 24, 26, 27]",131.411457,9589,715,5,15,10,1.4356932930709845
undo,53,32,0,0,0,22,"[0, 19, 13, 15, 28, 12, 16, 22]",8,6,"[2, 8, 9, 17, 20, 27]",97.57360838,10642,1053,3,5,10,1.4335226411545752
undo,53,32,0,0,0,9,"[0, 19, 13, 15, 28, 12, 16, 22, 9]",9,3,"[2, 8, 20]",75.37000507,11511,869,3,0,10,1.4837166378374758
undo,53,32,0,0,1,2,"[0, 19, 13, 15, 28, 12, 16, 22, 9, 2]",10,0,[],24.28184597,13537,2026,1,0,10,1.9009621017233784
undo,53,32,0,1,1,2,"[0, 19, 13, 15, 28, 12, 16, 22, 9, 2]",10,0,[],24.28184597,15413,1876,1,0,10,1.9009621017233784
undo,54,17,0,0,0,0,[0],1,28,"[1, 2, 3, 4, 5, 6, 7, 8, 9, 10, 11, 12, 13, 14, 15, 16, 17, 18, 19, 20, 22, 23, 24, 25, 26, 27, 28, 29]",300,1829,-1,2,73,8,0.0
undo,54,17,0,0,0,9,"[0, 9]",2,25,"[1, 2, 3, 5, 6, 7, 8, 10, 11, 12, 14, 15, 16, 17, 18, 19, 20, 22, 23, 24, 25, 26, 27, 28, 29]",210.5293344,6177,4348,1,34,8,1.0
undo,54,17,0,0,0,16,"[0, 9, 16]",3,21,"[1, 2, 3, 5, 7, 8, 10, 11, 12, 14, 17, 18, 19, 20, 22, 23, 25, 26, 27, 28, 29]",197.1876704,6957,780,1,26,8,1.173103464220352
undo,54,17,0,0,0,2,"[0, 9, 16, 2]",4,18,"[1, 3, 5, 7, 8, 10, 11, 12, 14, 17, 18, 19, 23, 25, 26, 27, 28, 29]",181.0631549,8181,1224,1,23,8,1.14825089247282
undo,54,17,0,0,0,17,"[0, 9, 16, 2, 17]",5,7,"[7, 8, 12, 14, 26, 27, 29]",142.7356191,9831,1650,4,5,7,1.4896040699768547
undo,54,17,0,0,0,8,"[0, 9, 16, 2, 17, 8]",6,3,"[7, 12, 27]",104.5256727,11610,1779,3,0,7,1.4604726966175894
undo,54,17,0,0,1,7,"[0, 9, 16, 2, 17, 8, 7]",7,0,[],33.81499459,12875,1265,1,0,7,1.4474701869793896
undo,54,17,0,1,1,7,"[0, 9, 16, 2, 17, 8, 7]",7,0,[],33.81499459,13916,1041,1,0,7,1.4474701869793896
undo,55,3,0,0,0,0,[0],1,29,"[1, 2, 3, 4, 5, 6, 7, 8, 9, 10, 11, 12, 13, 14, 15, 16, 17, 18, 19, 20, 21, 22, 23, 24, 25, 26, 27, 28, 29]",300,939,-1,34,427,10,0.0
undo,55,3,0,0,0,7,"[0, 7]",2,28,"[1, 2, 3, 4, 5, 6, 8, 9, 10, 11, 12, 13, 14, 15, 16, 17, 18, 19, 20, 21, 22, 23, 24, 25, 26, 27, 28, 29]",278.8103799,7272,6333,24,215,10,1.0
undo,55,3,0,0,0,8,"[0, 7, 8]",3,24,"[1, 2, 3, 4, 5, 6, 10, 11, 12, 13, 14, 15, 16, 17, 18, 19, 20, 21, 22, 24, 25, 26, 27, 28]",222.837172,8721,1449,16,114,10,1.2853332575451413
undo,55,3,0,0,0,24,"[0, 7, 8, 24]",4,21,"[1, 3, 4, 5, 6, 10, 11, 12, 14, 15, 16, 17, 18, 19, 20, 21, 22, 25, 26, 27, 28]",210.671647,10152,1431,16,91,10,1.5177505014936548
undo,55,3,0,0,0,17,"[0, 7, 8, 24, 17]",5,9,"[3, 4, 10, 14, 15, 16, 19, 20, 21]",141.3174834,11377,1225,7,26,10,1.5510961300062232
undo,55,3,0,0,0,20,"[0, 7, 8, 24, 17, 20]",6,7,"[3, 4, 10, 14, 16, 19, 21]",128.6683728,12279,902,7,14,10,1.5133082717474817
undo,55,3,0,0,0,3,"[0, 7, 8, 24, 17, 20, 3]",7,5,"[4, 10, 14, 19, 21]",108.2722947,14807,2528,7,4,10,1.5325960555943097
undo,55,3,0,0,0,19,"[0, 7, 8, 24, 17, 20, 3, 19]",8,3,"[10, 14, 21]",70.93598532,15854,1047,3,1,10,1.5521294182529992
undo,55,3,0,0,0,21,"[0, 7, 8, 24, 17, 20, 3, 19, 21]",9,2,"[10, 14]",58.72942971,16468,614,2,0,10,1.5690424431931145
undo,55,3,0,0,1,14,"[0, 7, 8, 24, 17, 20, 3, 19, 21, 14]",10,0,[],31.82218161,17353,885,1,0,10,2.0836613372745463
undo,55,3,0,1,1,14,"[0, 7, 8, 24, 17, 20, 3, 19, 21, 14]",10,0,[],31.82218161,33119,15766,1,0,10,2.0836613372745463
undo,56,33,0,0,0,0,[0],1,23,"[1, 2, 5, 7, 8, 11, 12, 13, 14, 15, 16, 17, 18, 19, 20, 21, 23, 24, 25, 26, 27, 28, 29]",300,1312,-1,5,108,9,0.0
undo,56,33,0,0,0,8,"[0, 8]",2,22,"[1, 2, 5, 7, 11, 12, 13, 14, 15, 16, 17, 18, 19, 20, 21, 23, 24, 25, 26, 27, 28, 29]",265.8679037,4591,3279,5,87,9,1.0
undo,56,33,0,0,0,21,"[0, 8, 21]",3,16,"[2, 5, 7, 11, 13, 14, 16, 17, 18, 19, 20, 24, 26, 27, 28, 29]",166.0430571,5838,1247,5,80,9,1.0670557763739492
undo,56,33,0,0,0,13,"[0, 8, 21, 13]",4,12,"[2, 7, 11, 14, 16, 17, 18, 19, 20, 24, 26, 29]",139.6422995,7828,1990,4,54,9,1.0555103820910288
undo,56,33,0,0,0,19,"[0, 8, 21, 13, 19]",5,10,"[7, 11, 14, 16, 17, 18, 20, 24, 26, 29]",114.1472019,9356,1528,3,19,9,1.1090798607799486
undo,56,33,0,0,0,7,"[0, 8, 21, 13, 19, 7]",6,5,"[14, 18, 24, 26, 29]",68.52922302,11558,2202,1,4,9,1.086202642130009
undo,56,33,0,0,0,14,"[0, 8, 21, 13, 19, 7, 14]",7,3,"[24, 26, 29]",53.66315427,15271,3713,1,2,9,1.1354822367616264
undo,56,33,0,0,0,26,"[0, 8, 21, 13, 19, 7, 14, 26]",8,1,[29],41.01404363,16326,1055,1,0,9,1.144734735418919
undo,56,33,0,0,1,29,"[0, 8, 21, 13, 19, 7, 14, 26, 29]",9,0,[],13.12139227,17460,1134,1,0,9,1.3638482940300902
undo,56,33,0,1,1,29,"[0, 8, 21, 13, 19, 7, 14, 26, 29]",9,0,[],13.12139227,18540,1080,1,0,9,1.3638482940300902
undo,57,31,0,0,0,0,[0],1,27,"[1, 3, 4, 5, 6, 7, 8, 10, 11, 12, 13, 14, 15, 16, 17, 18, 19, 20, 21, 22, 23, 24, 25, 26, 27, 28, 29]",300,1115,-1,2,87,10,0.0
undo,57,31,0,0,0,14,"[0, 14]",2,25,"[1, 3, 5, 6, 7, 8, 10, 11, 12, 13, 15, 16, 17, 18, 19, 20, 21, 22, 23, 24, 25, 26, 27, 28, 29]",263.861378,6013,4898,2,59,10,1.0
undo,57,31,0,0,0,27,"[0, 14, 27]",3,22,"[1, 3, 5, 6, 7, 8, 10, 11, 12, 13, 15, 16, 17, 18, 19, 20, 21, 22, 24, 25, 28, 29]",235.6833724,8188,2175,1,39,10,1.5881859159302467
undo,57,31,0,0,0,8,"[0, 14, 27, 8]",4,20,"[1, 3, 5, 6, 7, 10, 11, 12, 13, 16, 17, 18, 19, 20, 21, 22, 24, 25, 28, 29]",224.6380114,9313,1125,1,36,10,2.1665048452331277
undo,57,31,0,0,0,18,"[0, 14, 27, 8, 18]",5,15,"[1, 5, 6, 7, 11, 12, 13, 16, 17, 19, 20, 22, 25, 28, 29]",188.7911147,11376,2063,1,26,10,1.7273375741920205
undo,57,31,0,0,0,11,"[0, 14, 27, 8, 18, 11]",6,11,"[1, 5, 7, 12, 16, 17, 19, 20, 22, 25, 28]",153.9055876,13164,1788,13,17,9,2.386348208737804
undo,57,31,0,0,0,5,"[0, 14, 27, 8, 18, 11, 5]",7,5,"[16, 17, 20, 25, 28]",110.2249283,13998,834,3,3,9,2.163249612867222
undo,57,31,0,0,0,28,"[0, 14, 27, 8, 18, 11, 5, 28]",8,2,"[16, 17]",90.00117988,15413,1415,2,0,9,1.9564635733184719
undo,57,31,0,0,1,16,"[0, 14, 27, 8, 18, 11, 5, 28, 16]",9,0,[],56.38570725,17025,1612,1,0,9,1.824071502589619
undo,57,31,1,0,0,28,"[0, 14, 27, 8, 18, 11, 5, 28]",8,2,"[16, 17]",90.00117988,19529,2504,2,0,9,1.9564635733184719
undo,57,31,1,0,0,5,"[0, 14, 27, 8, 18, 11, 5]",7,5,"[16, 17, 20, 25, 28]",110.2249283,19970,441,3,3,9,2.163249612867222
undo,57,31,1,0,0,11,"[0, 14, 27, 8, 18, 11]",6,11,"[1, 5, 7, 12, 16, 17, 19, 20, 22, 25, 28]",153.9055876,20226,256,13,17,9,2.386348208737804
undo,57,31,1,0,0,18,"[0, 14, 27, 8, 18]",5,15,"[1, 5, 6, 7, 11, 12, 13, 16, 17, 19, 20, 22, 25, 28, 29]",188.7911147,20680,454,1,26,10,1.7273375741920205
undo,57,31,0,0,0,17,"[0, 14, 27, 8, 18, 17]",6,13,"[1, 5, 6, 7, 11, 12, 13, 16, 19, 20, 22, 25, 28]",159.584951,23255,2575,1,13,10,1.551192427769927
undo,57,31,0,0,0,11,"[0, 14, 27, 8, 18, 17, 11]",7,7,"[5, 12, 16, 19, 22, 25, 28]",118.4753414,25326,2071,1,4,10,2.9650760544203494
undo,57,31,0,0,0,5,"[0, 14, 27, 8, 18, 17, 11, 5]",8,2,"[16, 28]",74.79468207,27559,2233,1,1,10,2.56711965625205
undo,57,31,0,0,0,28,"[0, 14, 27, 8, 18, 17, 11, 5, 28]",9,1,[16],54.57093365,29050,1491,1,0,10,2.2865510762058148
undo,57,31,0,0,1,16,"[0, 14, 27, 8, 18, 17, 11, 5, 28, 16]",10,0,[],20.95546102,31734,2684,1,0,10,2.089356850786318
undo,57,31,0,1,1,16,"[0, 14, 27, 8, 18, 17, 11, 5, 28, 16]",10,0,[],20.95546102,32926,1192,1,0,10,2.089356850786318
undo,58,43,0,0,0,0,[0],1,23,"[1, 2, 3, 4, 5, 6, 7, 9, 10, 11, 12, 14, 15, 16, 17, 19, 20, 21, 22, 23, 25, 27, 29]",300,1653,-1,16,556,12,0.0
undo,58,43,0,0,0,29,"[0, 29]",2,22,"[1, 2, 3, 4, 5, 6, 7, 9, 10, 11, 12, 14, 15, 16, 17, 19, 20, 21, 22, 23, 25, 27]",277.909278,8929,7276,16,520,12,1.0
undo,58,43,0,0,0,20,"[0, 29, 20]",3,20,"[1, 2, 3, 4, 6, 7, 9, 10, 11, 12, 14, 15, 16, 17, 19, 21, 22, 23, 25, 27]",254.4785289,10578,1649,15,422,12,1.082311746871282
undo,58,43,0,0,0,16,"[0, 29, 20, 16]",4,19,"[1, 2, 3, 4, 6, 7, 9, 10, 11, 12, 14, 15, 17, 19, 21, 22, 23, 25, 27]",231.8511119,12026,1448,15,389,12,1.215201926898219
undo,58,43,0,0,0,25,"[0, 29, 20, 16, 25]",5,14,"[1, 2, 3, 4, 6, 7, 9, 11, 12, 14, 15, 19, 22, 23]",175.7708124,15627,3601,53,282,11,1.566384303308987
undo,58,43,0,0,0,15,"[0, 29, 20, 16, 25, 15]",6,13,"[1, 2, 3, 4, 6, 7, 9, 11, 12, 14, 19, 22, 23]",153.0992443,16695,1068,27,108,11,1.776736412604812
undo,58,43,0,0,0,12,"[0, 29, 20, 16, 25, 15, 12]",7,10,"[1, 3, 6, 7, 9, 11, 14, 19, 22, 23]",133.7860364,18260,1565,21,41,11,1.6813323012225032
undo,58,43,0,0,0,3,"[0, 29, 20, 16, 25, 15, 12, 3]",8,9,"[1, 6, 7, 9, 11, 14, 19, 22, 23]",120.7860364,19523,1263,20,12,11,1.608740348096123
undo,58,43,0,0,0,19,"[0, 29, 20, 16, 25, 15, 12, 3, 19]",9,5,"[1, 6, 7, 11, 22]",79.67642677,20994,1471,8,2,11,1.5859237827218742
undo,58,43,0,0,0,22,"[0, 29, 20, 16, 25, 15, 12, 3, 19, 22]",10,4,"[1, 6, 7, 11]",59.06089865,27540,6546,4,0,11,2.020138514441197
undo,58,43,0,0,1,6,"[0, 29, 20, 16, 25, 15, 12, 3, 19, 22, 6]",11,0,[],10.0200993,31826,4286,1,0,11,2.6292367323935033
undo,58,43,0,1,1,6,"[0, 29, 20, 16, 25, 15, 12, 3, 19, 22, 6]",11,0,[],10.0200993,33764,1938,1,0,11,2.6292367323935033
undo,59,41,0,0,0,0,[0],1,29,"[1, 2, 3, 4, 5, 6, 7, 8, 9, 10, 11, 12, 13, 14, 15, 16, 17, 18, 19, 20, 21, 22, 23, 24, 25, 26, 27, 28, 29]",300,2261,-1,1,143,10,0.0
undo,59,41,0,0,0,13,"[0, 13]",2,23,"[1, 2, 3, 5, 6, 7, 9, 10, 11, 12, 14, 15, 17, 18, 19, 20, 21, 22, 24, 25, 26, 27, 28]",258.2747079,5632,3371,1,55,10,1.0
undo,59,41,0,0,0,28,"[0, 13, 28]",3,22,"[1, 2, 3, 5, 6, 7, 9, 10, 11, 12, 14, 15, 17, 18, 19, 20, 21, 22, 24, 25, 26, 27]",223.7928286,7070,1438,1,39,10,1.895724242592676
undo,59,41,0,0,0,5,"[0, 13, 28, 5]",4,19,"[1, 2, 3, 6, 9, 10, 11, 12, 14, 15, 17, 18, 19, 20, 21, 22, 24, 25, 27]",210.1913581,8200,1130,1,34,10,2.861541269398273
undo,59,41,0,0,0,3,"[0, 13, 28, 5, 3]",5,16,"[1, 2, 6, 9, 10, 12, 14, 17, 18, 19, 20, 21, 22, 24, 25, 27]",175.3632086,9487,1287,1,22,10,3.1455488489005883
undo,59,41,0,0,0,21,"[0, 13, 28, 5, 3, 21]",6,14,"[1, 2, 6, 9, 10, 12, 14, 17, 18, 19, 20, 22, 25, 27]",143.2228912,11347,1860,13,11,9,3.207558429289677
undo,59,41,0,0,0,9,"[0, 13, 28, 5, 3, 21, 9]",7,6,"[1, 2, 10, 12, 14, 17]",93.85691102,13803,2456,7,4,9,2.5050148501792275
undo,59,41,0,0,0,2,"[0, 13, 28, 5, 3, 21, 9, 2]",8,5,"[1, 10, 12, 14, 17]",81.77386505,16083,2280,5,0,9,2.4119643847713177
undo,59,41,0,0,1,17,"[0, 13, 28, 5, 3, 21, 9, 2, 17]",9,0,[],49.21622385,18576,2493,1,0,9,3.9563478735796007
undo,59,41,1,0,0,2,"[0, 13, 28, 5, 3, 21, 9, 2]",8,5,"[1, 10, 12, 14, 17]",81.77386505,28575,9999,5,0,9,2.4119643847713177
undo,59,41,1,0,0,9,"[0, 13, 28, 5, 3, 21, 9]",7,6,"[1, 2, 10, 12, 14, 17]",93.85691102,28995,420,7,4,9,2.5050148501792275
undo,59,41,1,0,0,21,"[0, 13, 28, 5, 3, 21]",6,14,"[1, 2, 6, 9, 10, 12, 14, 17, 18, 19, 20, 22, 25, 27]",143.2228912,29327,332,13,11,9,3.207558429289677
undo,59,41,1,0,0,3,"[0, 13, 28, 5, 3]",5,16,"[1, 2, 6, 9, 10, 12, 14, 17, 18, 19, 20, 21, 22, 24, 25, 27]",175.3632086,29822,495,1,22,10,3.1455488489005883
undo,59,41,1,0,0,5,"[0, 13, 28, 5]",4,19,"[1, 2, 3, 6, 9, 10, 11, 12, 14, 15, 17, 18, 19, 20, 21, 22, 24, 25, 27]",210.1913581,30304,482,1,34,10,2.861541269398273
undo,59,41,0,0,0,22,"[0, 13, 28, 5, 22]",5,12,"[2, 3, 6, 9, 10, 11, 12, 17, 18, 20, 21, 25]",155.4464953,32254,1950,11,12,9,2.096079268852861
undo,59,41,0,0,0,3,"[0, 13, 28, 5, 22, 3]",6,8,"[2, 9, 10, 12, 17, 18, 20, 21]",125.4798472,33322,1068,7,5,9,4.404491319005463
undo,59,41,0,0,0,21,"[0, 13, 28, 5, 22, 3, 21]",7,4,"[2, 9, 12, 17]",93.33952984,34633,1311,5,1,9,4.228139797553632
undo,59,41,0,0,0,17,"[0, 13, 28, 5, 22, 3, 21, 17]",8,2,"[2, 9]",41.67716443,36999,2366,2,0,9,4.075283564568108
undo,59,41,0,0,1,2,"[0, 13, 28, 5, 22, 3, 21, 17, 2]",9,0,[],9.119523237,38158,1159,1,0,9,3.214983165689141
undo,59,41,0,1,1,2,"[0, 13, 28, 5, 22, 3, 21, 17, 2]",9,0,[],9.119523237,41474,3316,1,0,9,3.214983165689141
undo,60,29,0,0,0,0,[0],1,29,"[1, 2, 3, 4, 5, 6, 7, 8, 9, 10, 11, 12, 13, 14, 15, 16, 17, 18, 19, 20, 21, 22, 23, 24, 25, 26, 27, 28, 29]",300,1229,-1,1,78,9,0.0
undo,60,29,0,0,0,14,"[0, 14]",2,22,"[1, 3, 4, 5, 6, 7, 9, 10, 11, 12, 13, 15, 16, 17, 21, 22, 23, 25, 26, 27, 28, 29]",209.490332,4593,3364,21,110,8,1.0
undo,60,29,0,0,0,13,"[0, 14, 13]",3,18,"[1, 4, 5, 6, 7, 9, 10, 12, 15, 16, 17, 21, 22, 25, 26, 27, 28, 29]",191.4625756,5551,958,20,75,8,1.0027006502223275
undo,60,29,0,0,0,5,"[0, 14, 13, 5]",4,15,"[1, 4, 6, 7, 9, 12, 15, 17, 21, 22, 25, 26, 27, 28, 29]",165.7526554,6782,1231,19,49,8,1.0803937325657265
undo,60,29,0,0,0,22,"[0, 14, 13, 5, 22]",5,9,"[4, 6, 7, 9, 12, 26, 27, 28, 29]",111.4111427,9342,2560,7,11,8,1.6123417790752979
undo,60,29,0,0,0,27,"[0, 14, 13, 5, 22, 27]",6,5,"[6, 7, 12, 26, 28]",78.16960241,10676,1334,3,3,8,2.047500445885662
undo,60,29,0,0,0,28,"[0, 14, 13, 5, 22, 27, 28]",7,2,"[6, 26]",57.65131788,15026,4350,2,0,8,2.496318429266821
undo,60,29,0,0,1,6,"[0, 14, 13, 5, 22, 27, 28, 6]",8,0,[],16.42026163,16409,1383,1,0,8,3.961213610880374
undo,60,29,0,1,1,6,"[0, 14, 13, 5, 22, 27, 28, 6]",8,0,[],16.42026163,17760,1351,1,0,8,3.961213610880374
undo,61,16,0,0,0,0,[0],1,29,"[1, 2, 3, 4, 5, 6, 7, 8, 9, 10, 11, 12, 13, 14, 15, 16, 17, 18, 19, 20, 21, 22, 23, 24, 25, 26, 27, 28, 29]",300,747,-1,13,161,9,0.0
undo,61,16,0,0,0,17,"[0, 17]",2,27,"[1, 2, 3, 4, 5, 7, 8, 9, 10, 11, 12, 13, 14, 15, 16, 18, 19, 20, 21, 22, 23, 24, 25, 26, 27, 28, 29]",241.3058776,5147,4400,2,58,9,1.0
undo,61,16,0,0,0,16,"[0, 17, 16]",3,26,"[1, 2, 3, 4, 5, 7, 8, 9, 10, 11, 12, 13, 14, 15, 18, 19, 20, 21, 22, 23, 24, 25, 26, 27, 28, 29]",212.9862731,6074,927,2,52,9,1.0529535521792848
undo,61,16,0,0,0,8,"[0, 17, 16, 8]",4,19,"[2, 3, 4, 5, 9, 12, 13, 14, 15, 19, 20, 21, 22, 23, 25, 26, 27, 28, 29]",164.6127266,7549,1475,2,38,9,1.0915134501573105
undo,61,16,0,0,0,20,"[0, 17, 16, 8, 20]",5,10,"[3, 4, 5, 9, 12, 13, 15, 19, 21, 25]",106.8372993,9035,1486,1,15,9,1.067523143001942
undo,61,16,0,0,0,25,"[0, 17, 16, 8, 20, 25]",6,7,"[3, 4, 5, 9, 12, 13, 15]",94.18818869,10504,1469,1,9,9,1.1170093326933646
undo,61,16,0,0,0,9,"[0, 17, 16, 8, 20, 25, 9]",7,5,"[3, 4, 5, 13, 15]",81.38194021,11300,796,1,4,9,1.1095076562662525
undo,61,16,0,0,0,15,"[0, 17, 16, 8, 20, 25, 9, 15]",8,1,[5],42.48463953,12081,781,1,0,9,1.213831159678775
undo,61,16,0,0,1,5,"[0, 17, 16, 8, 20, 25, 9, 15, 5]",9,0,[],13.0567616,12765,684,1,0,9,1.5171779607523481
undo,61,16,0,1,1,5,"[0, 17, 16, 8, 20, 25, 9, 15, 5]",9,0,[],13.0567616,14408,1643,1,0,9,1.5171779607523481
undo,62,4,0,0,0,0,[0],1,26,"[3, 4, 5, 6, 7, 8, 10, 11, 12, 13, 14, 15, 16, 17, 18, 19, 20, 21, 22, 23, 24, 25, 26, 27, 28, 29]",300,1340,-1,4,489,10,0.0
undo,62,4,0,0,0,13,"[0, 13]",2,23,"[3, 4, 5, 6, 7, 10, 11, 12, 14, 15, 16, 17, 19, 20, 21, 22, 23, 24, 25, 26, 27, 28, 29]",232.1030192,4342,3002,2,270,10,1.0
undo,62,4,0,0,0,28,"[0, 13, 28]",3,19,"[3, 4, 5, 6, 10, 11, 12, 14, 15, 16, 17, 19, 20, 21, 22, 23, 24, 25, 26]",200.5277124,6164,1822,2,221,10,1.3431168257921573
undo,62,4,0,0,0,14,"[0, 13, 28, 14]",4,11,"[3, 4, 5, 6, 11, 16, 17, 20, 21, 22, 25]",134.2857318,8173,2009,28,123,9,1.2134786195381546
undo,62,4,0,0,0,25,"[0, 13, 28, 14, 25]",5,10,"[3, 4, 5, 6, 11, 16, 17, 20, 21, 22]",118.1612163,9222,1049,22,51,9,1.4339367384350254
undo,62,4,0,0,0,11,"[0, 13, 28, 14, 25, 11]",6,9,"[3, 4, 5, 6, 16, 17, 20, 21, 22]",99.37292203,11428,2206,11,18,9,1.632788140935394
undo,62,4,0,0,0,16,"[0, 13, 28, 14, 25, 11, 16]",7,6,"[3, 5, 17, 20, 21, 22]",84.37292203,14139,2711,9,2,9,1.5642820747024264
undo,62,4,0,0,0,3,"[0, 13, 28, 14, 25, 11, 16, 3]",8,1,[17],42.74360544,15557,1418,1,0,9,1.474981502263249
undo,62,4,0,0,1,17,"[0, 13, 28, 14, 25, 11, 16, 3, 17]",9,0,[],18.2283041,17877,2320,1,0,9,1.718983128597651
undo,62,4,0,1,1,17,"[0, 13, 28, 14, 25, 11, 16, 3, 17]",9,0,[],18.2283041,18987,1110,1,0,9,1.718983128597651
undo,63,28,0,0,0,0,[0],1,27,"[1, 2, 3, 4, 5, 6, 7, 8, 9, 10, 11, 12, 13, 14, 15, 16, 17, 18, 19, 20, 22, 23, 25, 26, 27, 28, 29]",300,2298,-1,2,96,9,0.0
undo,63,28,0,0,0,20,"[0, 20]",2,22,"[2, 3, 4, 5, 6, 7, 8, 9, 10, 11, 12, 13, 14, 15, 16, 18, 19, 22, 23, 26, 28, 29]",245.9629757,7837,5539,1,24,9,1.0
undo,63,28,0,0,0,3,"[0, 20, 3]",3,19,"[2, 4, 5, 6, 7, 8, 9, 10, 11, 12, 13, 14, 15, 16, 18, 19, 23, 26, 28]",204.6229224,8937,1100,9,50,8,1.9497218646689283
undo,63,28,0,0,0,14,"[0, 20, 3, 14]",4,8,"[5, 7, 11, 12, 13, 18, 19, 26]",96.28087151,11352,2415,6,10,8,1.3393012874200112
undo,63,28,0,0,0,18,"[0, 20, 3, 14, 18]",5,5,"[7, 12, 13, 19, 26]",70.78577394,12690,1338,6,4,8,1.3777869328477208
undo,63,28,0,0,0,13,"[0, 20, 3, 14, 18, 13]",6,3,"[7, 12, 19]",46.37266271,13873,1183,3,1,8,1.3311066151311992
undo,63,28,0,0,0,12,"[0, 20, 3, 14, 18, 13, 12]",7,1,[7],29.16801217,15344,1471,1,0,8,1.3145789942766504
undo,63,28,0,0,1,7,"[0, 20, 3, 14, 18, 13, 12, 7]",8,0,[],16.01506574,16372,1028,1,0,8,1.4497331940596947
undo,63,28,0,1,1,7,"[0, 20, 3, 14, 18, 13, 12, 7]",8,0,[],16.01506574,17556,1184,1,0,8,1.4497331940596947
undo,64,11,0,0,0,0,[0],1,25,"[1, 2, 3, 4, 5, 6, 8, 9, 10, 11, 12, 13, 14, 15, 16, 17, 18, 19, 20, 22, 23, 25, 26, 27, 28]",300,1019,-1,6,374,12,0.0
undo,64,11,0,0,0,1,"[0, 1]",2,24,"[2, 3, 4, 5, 6, 8, 9, 10, 11, 12, 13, 14, 15, 16, 17, 18, 19, 20, 22, 23, 25, 26, 27, 28]",264.6446609,4690,3671,6,217,12,1.0
undo,64,11,0,0,0,18,"[0, 1, 18]",3,19,"[2, 4, 5, 6, 8, 9, 11, 12, 14, 15, 16, 17, 19, 20, 22, 23, 25, 27, 28]",212.3187591,6080,1390,6,161,12,1.3884463804898786
undo,64,11,0,0,0,27,"[0, 1, 18, 27]",4,18,"[2, 4, 5, 6, 8, 9, 11, 12, 14, 15, 16, 17, 19, 20, 22, 23, 25, 28]",188.4650382,7151,1071,6,155,12,1.3600813284083875
undo,64,11,0,0,0,17,"[0, 1, 18, 27, 17]",5,11,"[2, 5, 6, 8, 11, 12, 15, 19, 22, 25, 28]",111.3871556,9610,2459,2,45,12,1.282398281674261
undo,64,11,0,0,0,8,"[0, 1, 18, 27, 17, 8]",6,7,"[2, 5, 11, 12, 15, 22, 28]",97.0693345,11611,2001,2,21,12,1.3975291553712
undo,64,11,0,0,0,15,"[0, 1, 18, 27, 17, 8, 15]",7,6,"[2, 5, 11, 12, 22, 28]",83.61571045,13066,1455,2,18,12,1.3793915678186077
undo,64,11,0,0,0,11,"[0, 1, 18, 27, 17, 8, 15, 11]",8,4,"[2, 5, 22, 28]",65.50494017,14112,1046,2,14,12,1.3525960247899067
undo,64,11,0,0,0,28,"[0, 1, 18, 27, 17, 8, 15, 11, 28]",9,3,"[2, 5, 22]",46.08845233,15213,1101,2,4,12,1.4693669896690256
undo,64,11,0,0,0,2,"[0, 1, 18, 27, 17, 8, 15, 11, 28, 2]",10,2,"[5, 22]",35.45830652,16268,1055,2,0,11,1.482125145184235
undo,64,11,0,0,1,22,"[0, 1, 18, 27, 17, 8, 15, 11, 28, 2, 22]",11,0,[],25.4084309,32672,16404,1,0,11,1.4564579132739395
undo,64,11,1,0,0,2,"[0, 1, 18, 27, 17, 8, 15, 11, 28, 2]",10,2,"[5, 22]",35.45830652,40771,8099,2,0,11,1.482125145184235
undo,64,11,1,0,0,28,"[0, 1, 18, 27, 17, 8, 15, 11, 28]",9,3,"[2, 5, 22]",46.08845233,41710,939,2,4,12,1.4693669896690256
undo,64,11,0,0,0,5,"[0, 1, 18, 27, 17, 8, 15, 11, 28, 5]",10,2,"[2, 22]",28.19990851,46961,5251,1,1,12,1.6706321377081579
undo,64,11,0,0,0,2,"[0, 1, 18, 27, 17, 8, 15, 11, 28, 5, 2]",11,1,[22],11.19990851,48147,1186,1,0,12,1.6180355992209499
undo,64,11,0,0,1,22,"[0, 1, 18, 27, 17, 8, 15, 11, 28, 5, 2, 22]",12,0,[],1.150032892,49538,1391,1,0,12,1.5851265969407473
undo,64,11,0,1,1,22,"[0, 1, 18, 27, 17, 8, 15, 11, 28, 5, 2, 22]",12,0,[],1.150032892,51467,1929,1,0,12,1.5851265969407473
undo,65,15,0,0,0,0,[0],1,25,"[1, 2, 3, 4, 7, 8, 9, 10, 11, 12, 13, 14, 15, 16, 18, 20, 21, 22, 23, 24, 25, 26, 27, 28, 29]",300,945,-1,4,65,9,0.0
undo,65,15,0,0,0,21,"[0, 21]",2,17,"[1, 3, 4, 7, 8, 9, 11, 12, 13, 14, 15, 16, 22, 23, 24, 26, 27]",204.9158268,12179,11234,21,65,7,1.0
undo,65,15,0,0,0,12,"[0, 21, 12]",3,14,"[1, 3, 4, 7, 8, 9, 11, 13, 14, 15, 16, 22, 24, 27]",161.0866128,13587,1408,20,39,7,1.6068212046294776
undo,65,15,0,0,0,7,"[0, 21, 12, 7]",4,10,"[3, 4, 9, 11, 13, 14, 15, 16, 22, 27]",127.8450725,15585,1998,13,11,7,2.0298522511797907
undo,65,15,0,0,0,16,"[0, 21, 12, 7, 16]",5,5,"[3, 4, 11, 15, 22]",84.18731258,16654,1069,3,3,7,1.8904046427013528
undo,65,15,0,0,0,11,"[0, 21, 12, 7, 16, 11]",6,1,[3],58.16808892,18129,1475,1,0,7,1.9475991988988648
undo,65,15,0,0,1,3,"[0, 21, 12, 7, 16, 11, 3]",7,0,[],46.76633467,18817,688,1,0,7,1.912955285957019
undo,65,15,0,1,1,3,"[0, 21, 12, 7, 16, 11, 3]",7,0,[],46.76633467,25749,6932,1,0,7,1.912955285957019
undo,66,37,0,0,0,0,[0],1,29,"[1, 2, 3, 4, 5, 6, 7, 8, 9, 10, 11, 12, 13, 14, 15, 16, 17, 18, 19, 20, 21, 22, 23, 24, 25, 26, 27, 28, 29]",300,1116,-1,6,168,10,0.0
undo,66,37,0,0,0,9,"[0, 9]",2,28,"[1, 2, 3, 4, 5, 6, 7, 8, 10, 11, 12, 13, 14, 15, 16, 17, 18, 19, 20, 21, 22, 23, 24, 25, 26, 27, 28, 29]",275.7925631,6928,5812,45,289,9,1.0
undo,66,37,0,0,0,18,"[0, 9, 18]",3,15,"[1, 2, 4, 6, 7, 10, 15, 17, 19, 20, 21, 22, 26, 28, 29]",172.2068498,8359,1431,33,160,9,1.3094770236215172
undo,66,37,0,0,0,7,"[0, 9, 18, 7]",4,9,"[1, 2, 4, 15, 19, 20, 21, 22, 26]",145.0406944,9833,1474,17,59,9,1.293395038406712
undo,66,37,0,0,0,22,"[0, 9, 18, 7, 22]",5,7,"[1, 2, 4, 15, 19, 20, 21]",95.04069441,12308,2475,6,17,9,1.2585327043140475
undo,66,37,0,0,0,4,"[0, 9, 18, 7, 22, 4]",6,5,"[1, 2, 15, 20, 21]",70.04069441,14979,2671,4,7,9,1.4148462251829255
undo,66,37,0,0,0,2,"[0, 9, 18, 7, 22, 4, 2]",7,3,"[1, 15, 20]",58.63894016,15800,821,2,2,9,1.5965980495342236
undo,66,37,0,0,0,1,"[0, 9, 18, 7, 22, 4, 2, 1]",8,2,"[15, 20]",41.43428963,18739,2939,2,0,9,1.6331913686535429
undo,66,37,0,0,1,20,"[0, 9, 18, 7, 22, 4, 2, 1, 20]",9,0,[],7.199804089,21745,3006,1,0,9,1.9533474092172471
undo,66,37,1,0,0,1,"[0, 9, 18, 7, 22, 4, 2, 1]",8,2,"[15, 20]",41.43428963,25494,3749,2,0,9,1.6331913686535429
undo,66,37,1,0,0,2,"[0, 9, 18, 7, 22, 4, 2]",7,3,"[1, 15, 20]",58.63894016,25790,296,2,2,9,1.5965980495342236
undo,66,37,1,0,0,4,"[0, 9, 18, 7, 22, 4]",6,5,"[1, 2, 15, 20, 21]",70.04069441,25955,165,4,7,9,1.4148462251829255
undo,66,37,1,0,0,22,"[0, 9, 18, 7, 22]",5,7,"[1, 2, 4, 15, 19, 20, 21]",95.04069441,26317,362,6,17,9,1.2585327043140475
undo,66,37,1,0,0,7,"[0, 9, 18, 7]",4,9,"[1, 2, 4, 15, 19, 20, 21, 22, 26]",145.0406944,26777,460,17,59,9,1.293395038406712
undo,66,37,1,0,0,18,"[0, 9, 18]",3,15,"[1, 2, 4, 6, 7, 10, 15, 17, 19, 20, 21, 22, 26, 28, 29]",172.2068498,27161,384,33,160,9,1.3094770236215172
undo,66,37,1,0,0,9,"[0, 9]",2,28,"[1, 2, 3, 4, 5, 6, 7, 8, 10, 11, 12, 13, 14, 15, 16, 17, 18, 19, 20, 21, 22, 23, 24, 25, 26, 27, 28, 29]",275.7925631,27449,288,45,289,9,1.0
undo,66,37,1,0,0,0,[0],1,29,"[1, 2, 3, 4, 5, 6, 7, 8, 9, 10, 11, 12, 13, 14, 15, 16, 17, 18, 19, 20, 21, 22, 23, 24, 25, 26, 27, 28, 29]",300,28098,649,6,168,10,0.0
undo,66,37,0,0,0,18,"[0, 18]",2,19,"[1, 2, 4, 6, 7, 9, 10, 12, 14, 15, 17, 19, 20, 21, 22, 23, 26, 28, 29]",202.4090168,29699,1601,6,89,10,1.0
undo,66,37,0,0,0,7,"[0, 18, 7]",3,12,"[1, 2, 4, 9, 15, 17, 19, 20, 21, 22, 26, 29]",175.2428614,30795,1096,6,53,10,1.0413073512834488
undo,66,37,0,0,0,22,"[0, 18, 7, 22]",4,8,"[1, 2, 4, 15, 19, 20, 21, 26]",125.2428614,32062,1267,6,29,10,1.0730792320325544
undo,66,37,0,0,0,4,"[0, 18, 7, 22, 4]",5,7,"[1, 2, 15, 19, 20, 21, 26]",100.2428614,33546,1484,4,16,10,1.2290245562206235
undo,66,37,0,0,0,2,"[0, 18, 7, 22, 4, 2]",6,5,"[1, 15, 19, 20, 21]",88.84110714,34299,753,4,7,10,1.3968113858365216
undo,66,37,0,0,0,1,"[0, 18, 7, 22, 4, 2, 1]",7,4,"[15, 19, 20, 21]",71.63645661,35815,1516,4,3,10,1.4424239294761476
undo,66,37,0,0,0,15,"[0, 18, 7, 22, 4, 2, 1, 15]",8,2,"[20, 21]",31.67397421,39218,3403,2,0,10,1.612564167414217
undo,66,37,0,0,0,21,"[0, 18, 7, 22, 4, 2, 1, 15, 21]",9,1,[20],16.67397421,41249,2031,1,0,10,1.8256316004901285
undo,66,37,0,0,1,20,"[0, 18, 7, 22, 4, 2, 1, 15, 21, 20]",10,0,[],2.251769103,42528,1279,1,0,10,1.9863570569415172
undo,66,37,0,1,1,20,"[0, 18, 7, 22, 4, 2, 1, 15, 21, 20]",10,0,[],2.251769103,44294,1766,1,0,10,1.9863570569415172
undo,67,5,0,0,0,0,[0],1,29,"[1, 2, 3, 4, 5, 6, 7, 8, 9, 10, 11, 12, 13, 14, 15, 16, 17, 18, 19, 20, 21, 22, 23, 24, 25, 26, 27, 28, 29]",300,935,-1,5,139,9,0.0
undo,67,5,0,0,0,12,"[0, 12]",2,22,"[2, 4, 5, 6, 8, 9, 10, 13, 14, 15, 16, 17, 18, 19, 21, 22, 23, 24, 25, 26, 27, 28]",228.3062067,7178,6243,1,27,9,1.0
undo,67,5,0,0,0,25,"[0, 12, 25]",3,21,"[2, 4, 5, 6, 8, 9, 10, 13, 14, 15, 16, 17, 18, 19, 21, 22, 23, 24, 26, 27, 28]",200.5213187,8324,1146,1,20,9,1.584023303445617
undo,67,5,0,0,0,23,"[0, 12, 25, 23]",4,19,"[2, 4, 5, 6, 8, 9, 10, 13, 14, 15, 16, 17, 18, 19, 21, 22, 24, 26, 27]",182.0822298,9426,1102,1,14,9,2.3508446989254357
undo,67,5,0,0,0,24,"[0, 12, 25, 23, 24]",5,15,"[2, 4, 5, 6, 8, 9, 13, 14, 15, 17, 18, 19, 22, 26, 27]",158.995437,10225,799,1,12,9,1.9469752046288753
undo,67,5,0,0,0,17,"[0, 12, 25, 23, 24, 17]",6,7,"[4, 5, 6, 8, 15, 18, 19]",124.0097257,11309,1084,1,8,9,1.6482276497563642
undo,67,5,0,0,0,6,"[0, 12, 25, 23, 24, 17, 6]",7,1,[4],45.11739397,16025,4716,1,0,8,1.5262431498802396
undo,67,5,0,0,1,4,"[0, 12, 25, 23, 24, 17, 6, 4]",8,0,[],33.07579939,18174,2149,1,0,8,1.5232680323291379
undo,67,5,0,1,1,4,"[0, 12, 25, 23, 24, 17, 6, 4]",8,0,[],33.07579939,20542,2368,1,0,8,1.5232680323291379
undo,68,26,0,0,0,0,[0],1,29,"[1, 2, 3, 4, 5, 6, 7, 8, 9, 10, 11, 12, 13, 14, 15, 16, 17, 18, 19, 20, 21, 22, 23, 24, 25, 26, 27, 28, 29]",300,1286,-1,9,226,9,0.0
undo,68,26,0,0,0,21,"[0, 21]",2,25,"[2, 3, 4, 5, 6, 7, 8, 10, 11, 12, 13, 14, 15, 16, 17, 18, 19, 22, 23, 24, 25, 26, 27, 28, 29]",211.1349337,11500,10214,7,90,9,1.0
undo,68,26,0,0,0,13,"[0, 21, 13]",3,21,"[3, 4, 5, 6, 7, 8, 10, 11, 12, 14, 15, 16, 17, 18, 19, 22, 23, 24, 25, 26, 29]",188.9989901,13620,2120,6,45,9,1.0103952279992225
undo,68,26,0,0,0,23,"[0, 21, 13, 23]",4,13,"[3, 4, 5, 6, 10, 11, 14, 16, 17, 18, 22, 26, 29]",150.9858345,16300,2680,3,17,9,1.1069410469330032
undo,68,26,0,0,0,16,"[0, 21, 13, 23, 16]",5,7,"[4, 5, 6, 10, 14, 17, 29]",97.75050789,18610,2310,3,13,9,1.8066634000662438
undo,68,26,0,0,0,29,"[0, 21, 13, 23, 16, 29]",6,5,"[4, 6, 10, 14, 17]",73.54307102,19728,1118,3,9,9,1.853342605492142
undo,68,26,0,0,0,4,"[0, 21, 13, 23, 16, 29, 4]",7,3,"[6, 14, 17]",49.54307102,22117,2389,2,2,9,2.0664369230924997
undo,68,26,0,0,0,17,"[0, 21, 13, 23, 16, 29, 4, 17]",8,2,"[6, 14]",28.44804791,23673,1556,2,0,9,1.911153301956092
undo,68,26,0,0,1,14,"[0, 21, 13, 23, 16, 29, 4, 17, 14]",9,0,[],5.975842855,24933,1260,1,0,9,1.8245133223656398
undo,68,26,0,1,1,14,"[0, 21, 13, 23, 16, 29, 4, 17, 14]",9,0,[],5.975842855,26631,1698,1,0,9,1.8245133223656398
basic,69,36,0,0,0,0,[0],1,24,"[2, 4, 5, 6, 7, 8, 9, 10, 12, 13, 14, 15, 16, 17, 18, 19, 20, 22, 23, 25, 26, 27, 28, 29]",300,558,-1,2,200,10,0.0
basic,69,36,0,0,0,12,"[0, 12]",2,23,"[2, 4, 5, 6, 7, 8, 9, 10, 13, 14, 15, 16, 17, 18, 19, 20, 22, 23, 25, 26, 27, 28, 29]",277.7963967,4279,3721,90,804,9,1.0
basic,69,36,0,0,0,9,"[0, 12, 9]",3,14,"[2, 4, 8, 10, 13, 16, 17, 18, 19, 23, 25, 27, 28, 29]",215.4345494,7668,3389,32,191,9,1.224429481246385
basic,69,36,0,0,0,19,"[0, 12, 9, 19]",4,13,"[2, 4, 8, 10, 13, 16, 17, 18, 23, 25, 27, 28, 29]",200.3018034,8659,991,14,61,9,1.293473472808712
basic,69,36,0,0,0,17,"[0, 12, 9, 19, 17]",5,8,"[2, 10, 13, 16, 18, 23, 25, 27]",172.4091521,9830,1171,5,15,9,1.3499598639024968
