condition,trial_id,map_id,undoIndicator,submit,checkEnd,currentChoice,chosen_all,n_city_all,n_within_reach,cities_reach,currentBudget,time_all,rt_all,n_opt_paths_all,n_subopt_paths_all,mas_all,tortuosity_all
basic,0,12,0,0,0,0,[0],1,29,"[1, 2, 3, 4, 5, 6, 7, 8, 9, 10, 11, 12, 13, 14, 15, 16, 17, 18, 19, 20, 21, 22, 23, 24, 25, 26, 27, 28, 29]",300,114,-1,2,32,9,0.0
basic,0,12,0,0,0,16,"[0, 16]",2,16,"[2, 4, 5, 6, 7, 12, 13, 14, 18, 19, 22, 23, 24, 25, 27, 29]",209.2916762,2459,2345,3,38,8,1.0
basic,0,12,0,0,0,4,"[0, 16, 4]",3,11,"[2, 5, 6, 7, 12, 14, 19, 22, 24, 25, 27]",175.0864135,3249,790,1,16,8,1.00004499617691
basic,0,12,0,0,0,12,"[0, 16, 4, 12]",4,6,"[14, 19, 22, 24, 25, 27]",132.8963673,3961,712,1,8,8,1.0113942412768022
basic,0,12,0,0,0,27,"[0, 16, 4, 12, 27]",5,4,"[14, 19, 22, 24]",108.5447759,4793,832,1,3,8,1.1193150037844588
basic,0,12,0,1,0,27,"[0, 16, 4, 12, 27]",5,4,"[14, 19, 22, 24]",108.5447759,6414,1621,1,3,8,1.1193150037844588
basic,1,37,0,0,0,0,[0],1,29,"[1, 2, 3, 4, 5, 6, 7, 8, 9, 10, 11, 12, 13, 14, 15, 16, 17, 18, 19, 20, 21, 22, 23, 24, 25, 26, 27, 28, 29]",300,132,-1,6,168,10,0.0
basic,1,37,0,0,0,18,"[0, 18]",2,19,"[1, 2, 4, 6, 7, 9, 10, 12, 14, 15, 17, 19, 20, 21, 22, 23, 26, 28, 29]",202.4090168,4874,4742,6,89,10,1.0
basic,1,37,0,0,0,2,"[0, 18, 2]",3,10,"[1, 4, 7, 15, 19, 20, 21, 22, 26, 29]",143.7148944,5827,953,14,82,9,1.0338225020126353
basic,1,37,0,0,0,4,"[0, 18, 2, 4]",4,8,"[1, 7, 15, 19, 20, 21, 22, 26]",132.3131402,6531,704,10,40,9,1.0317091538961647
basic,1,37,0,0,0,1,"[0, 18, 2, 4, 1]",5,7,"[7, 15, 19, 20, 21, 22, 26]",114.593095,7063,532,9,20,9,1.1710947925054036
basic,1,37,0,1,0,1,"[0, 18, 2, 4, 1]",5,7,"[7, 15, 19, 20, 21, 22, 26]",114.593095,11215,4152,9,20,9,1.1710947925054036
basic,2,41,0,0,0,0,[0],1,29,"[1, 2, 3, 4, 5, 6, 7, 8, 9, 10, 11, 12, 13, 14, 15, 16, 17, 18, 19, 20, 21, 22, 23, 24, 25, 26, 27, 28, 29]",300,115,-1,1,143,10,0.0
basic,2,41,0,0,0,13,"[0, 13]",2,23,"[1, 2, 3, 5, 6, 7, 9, 10, 11, 12, 14, 15, 17, 18, 19, 20, 21, 22, 24, 25, 26, 27, 28]",258.2747079,2452,2337,1,55,10,1.0
basic,2,41,0,0,0,28,"[0, 13, 28]",3,22,"[1, 2, 3, 5, 6, 7, 9, 10, 11, 12, 14, 15, 17, 18, 19, 20, 21, 22, 24, 25, 26, 27]",223.7928286,3260,808,1,39,10,1.895724242592676
basic,2,41,0,0,0,5,"[0, 13, 28, 5]",4,19,"[1, 2, 3, 6, 9, 10, 11, 12, 14, 15, 17, 18, 19, 20, 21, 22, 24, 25, 27]",210.1913581,3884,624,1,34,10,2.861541269398273
basic,2,41,0,0,0,22,"[0, 13, 28, 5, 22]",5,12,"[2, 3, 6, 9, 10, 11, 12, 17, 18, 20, 21, 25]",155.4464953,5554,1670,11,12,9,2.096079268852861
basic,2,41,0,0,0,3,"[0, 13, 28, 5, 22, 3]",6,8,"[2, 9, 10, 12, 17, 18, 20, 21]",125.4798472,6143,589,7,5,9,4.404491319005463
basic,2,41,0,1,0,3,"[0, 13, 28, 5, 22, 3]",6,8,"[2, 9, 10, 12, 17, 18, 20, 21]",125.4798472,8998,2855,7,5,9,4.404491319005463
basic,3,26,0,0,0,0,[0],1,29,"[1, 2, 3, 4, 5, 6, 7, 8, 9, 10, 11, 12, 13, 14, 15, 16, 17, 18, 19, 20, 21, 22, 23, 24, 25, 26, 27, 28, 29]",300,149,-1,9,226,9,0.0
basic,3,26,0,0,0,21,"[0, 21]",2,25,"[2, 3, 4, 5, 6, 7, 8, 10, 11, 12, 13, 14, 15, 16, 17, 18, 19, 22, 23, 24, 25, 26, 27, 28, 29]",211.1349337,4529,4380,7,90,9,1.0
basic,3,26,0,0,0,13,"[0, 21, 13]",3,21,"[3, 4, 5, 6, 7, 8, 10, 11, 12, 14, 15, 16, 17, 18, 19, 22, 23, 24, 25, 26, 29]",188.9989901,5522,993,6,45,9,1.0103952279992225
basic,3,26,0,0,0,5,"[0, 21, 13, 5]",4,12,"[3, 4, 11, 14, 16, 17, 18, 22, 23, 25, 26, 29]",150.7106107,6177,655,2,10,8,1.0086890649024711
basic,3,26,0,0,0,23,"[0, 21, 13, 5, 23]",5,8,"[3, 4, 11, 14, 16, 17, 22, 29]",118.0150452,7712,1535,2,7,8,1.3518621918690494
basic,3,26,0,1,0,23,"[0, 21, 13, 5, 23]",5,8,"[3, 4, 11, 14, 16, 17, 22, 29]",118.0150452,9299,1587,2,7,8,1.3518621918690494
basic,4,20,0,0,0,0,[0],1,21,"[1, 2, 3, 4, 5, 6, 7, 8, 9, 12, 17, 18, 20, 21, 22, 23, 25, 26, 27, 28, 29]",300,133,-1,1,9,9,0.0
basic,4,20,0,0,0,12,"[0, 12]",2,20,"[1, 2, 3, 4, 5, 6, 7, 8, 9, 17, 18, 20, 21, 22, 23, 25, 26, 27, 28, 29]",271.5570747,2938,2805,1,8,9,1.0
basic,4,20,0,0,0,1,"[0, 12, 1]",3,12,"[3, 4, 5, 6, 8, 9, 20, 21, 23, 27, 28, 29]",189.5692707,3705,767,1,6,9,1.0757997779162911
basic,4,20,0,0,0,5,"[0, 12, 1, 5]",4,10,"[4, 6, 8, 9, 20, 21, 23, 27, 28, 29]",152.8950291,4343,638,1,5,9,1.1708231454516806
basic,4,20,0,0,0,21,"[0, 12, 1, 5, 21]",5,8,"[4, 6, 8, 9, 20, 23, 27, 28]",107.8950291,6581,2238,1,4,9,1.126197336199212
basic,4,20,0,0,0,8,"[0, 12, 1, 5, 21, 8]",6,5,"[6, 9, 23, 27, 28]",90.43077988,11081,4500,1,3,9,1.140007470699913
basic,4,20,0,1,0,8,"[0, 12, 1, 5, 21, 8]",6,5,"[6, 9, 23, 27, 28]",90.43077988,11499,418,1,3,9,1.140007470699913
basic,5,1,0,0,0,0,[0],1,26,"[1, 2, 4, 5, 7, 8, 9, 10, 11, 12, 13, 14, 15, 16, 17, 18, 19, 20, 21, 22, 23, 24, 25, 26, 28, 29]",300,149,-1,6,74,7,0.0
basic,5,1,0,0,0,8,"[0, 8]",2,23,"[1, 4, 5, 7, 9, 10, 11, 12, 13, 14, 15, 16, 17, 18, 19, 20, 21, 23, 24, 25, 26, 28, 29]",202,4776,4627,1,16,7,1.0
basic,5,1,0,0,0,14,"[0, 8, 14]",3,12,"[1, 5, 9, 15, 17, 18, 19, 20, 25, 26, 28, 29]",138.1094686,5584,808,2,11,6,1.6219900283216735
basic,5,1,0,0,0,17,"[0, 8, 14, 17]",4,6,"[1, 15, 18, 20, 28, 29]",85.75490817,6384,800,1,5,6,1.4120458181998161
basic,5,1,0,0,0,1,"[0, 8, 14, 17, 1]",5,1,[28],61.40331685,6973,589,1,0,6,1.3875183639701723
basic,5,1,0,1,0,1,"[0, 8, 14, 17, 1]",5,1,[28],61.40331685,7765,792,1,0,6,1.3875183639701723
basic,6,7,0,0,0,0,[0],1,29,"[1, 2, 3, 4, 5, 6, 7, 8, 9, 10, 11, 12, 13, 14, 15, 16, 17, 18, 19, 20, 21, 22, 23, 24, 25, 26, 27, 28, 29]",300,115,-1,3,79,9,0.0
basic,6,7,0,0,0,15,"[0, 15]",2,19,"[2, 4, 5, 6, 7, 8, 9, 10, 13, 14, 16, 18, 19, 20, 21, 23, 25, 27, 28]",230.9348134,2551,2436,2,38,9,1.0
basic,6,7,0,0,0,6,"[0, 15, 6]",3,18,"[2, 4, 5, 7, 8, 9, 10, 13, 14, 16, 18, 19, 20, 21, 23, 25, 27, 28]",205.854941,3859,1308,2,36,9,1.366719602896943
basic,6,7,0,0,0,25,"[0, 15, 6, 25]",4,11,"[2, 4, 7, 13, 14, 16, 18, 19, 20, 21, 23]",138.6760753,4677,818,2,28,9,1.3624631728355765
basic,6,7,0,0,0,4,"[0, 15, 6, 25, 4]",5,7,"[2, 7, 13, 16, 18, 19, 20]",113.9374415,6469,1792,2,12,9,1.3249684384385587
basic,6,7,0,1,0,4,"[0, 15, 6, 25, 4]",5,7,"[2, 7, 13, 16, 18, 19, 20]",113.9374415,7164,695,2,12,9,1.3249684384385587
basic,7,32,0,0,0,0,[0],1,29,"[1, 2, 3, 4, 5, 6, 7, 8, 9, 10, 11, 12, 13, 14, 15, 16, 17, 18, 19, 20, 21, 22, 23, 24, 25, 26, 27, 28, 29]",300,132,-1,17,359,10,0.0
basic,7,32,0,0,0,19,"[0, 19]",2,28,"[1, 2, 3, 4, 5, 6, 7, 8, 9, 10, 11, 12, 13, 14, 15, 16, 17, 18, 20, 21, 22, 23, 24, 25, 26, 27, 28, 29]",283.5075775,1921,1789,16,294,10,1.0
basic,7,32,0,0,0,13,"[0, 19, 13]",3,24,"[2, 3, 4, 5, 6, 8, 9, 10, 11, 12, 14, 15, 16, 17, 18, 20, 21, 22, 23, 24, 25, 26, 27, 28]",260.3127505,2527,606,14,227,10,1.0172874229878615
basic,7,32,0,0,0,17,"[0, 19, 13, 17]",4,12,"[2, 5, 8, 9, 12, 15, 16, 20, 22, 25, 27, 28]",174.7090123,3407,880,2,32,10,1.1087263887351317
basic,7,32,0,1,0,17,"[0, 19, 13, 17]",4,12,"[2, 5, 8, 9, 12, 15, 16, 20, 22, 25, 27, 28]",174.7090123,4466,1059,2,32,10,1.1087263887351317
basic,8,2,0,0,0,0,[0],1,23,"[1, 2, 4, 5, 6, 7, 8, 9, 12, 13, 15, 16, 17, 18, 19, 20, 22, 23, 25, 26, 27, 28, 29]",300,132,-1,70,620,10,0.0
basic,8,2,0,0,0,20,"[0, 20]",2,19,"[1, 4, 5, 6, 7, 8, 12, 13, 15, 16, 17, 18, 19, 22, 25, 26, 27, 28, 29]",254.6458381,2591,2459,2,35,9,1.0
basic,8,2,0,0,0,16,"[0, 20, 16]",3,17,"[1, 4, 5, 6, 7, 12, 13, 15, 17, 18, 19, 22, 25, 26, 27, 28, 29]",216.5669726,4142,1551,2,23,9,1.534307260428795
basic,8,2,0,0,0,4,"[0, 20, 16, 4]",4,9,"[5, 12, 13, 15, 18, 19, 22, 25, 29]",169.7481729,5621,1479,2,9,7,1.2944530648406636
basic,8,2,0,0,0,25,"[0, 20, 16, 4, 25]",5,1,[29],106.6847128,6324,703,1,0,6,1.316197292814072
basic,8,2,0,1,0,25,"[0, 20, 16, 4, 25]",5,1,[29],106.6847128,7282,958,1,0,6,1.316197292814072
basic,9,17,0,0,0,0,[0],1,28,"[1, 2, 3, 4, 5, 6, 7, 8, 9, 10, 11, 12, 13, 14, 15, 16, 17, 18, 19, 20, 22, 23, 24, 25, 26, 27, 28, 29]",300,133,-1,2,73,8,0.0
basic,9,17,0,0,0,16,"[0, 16]",2,23,"[1, 2, 3, 5, 7, 8, 9, 10, 11, 12, 14, 17, 18, 19, 20, 22, 23, 24, 25, 26, 27, 28, 29]",212.3586855,2125,1992,1,29,8,1.0
basic,9,17,0,0,0,9,"[0, 16, 9]",3,22,"[1, 2, 3, 5, 7, 8, 10, 11, 12, 14, 17, 18, 19, 20, 22, 23, 24, 25, 26, 27, 28, 29]",199.0170215,2724,599,1,16,8,1.1286713677732607
basic,9,17,0,0,0,2,"[0, 16, 9, 2]",4,18,"[1, 3, 5, 7, 8, 10, 11, 12, 14, 17, 18, 19, 23, 25, 26, 27, 28, 29]",177.0625231,3346,622,1,12,8,1.1868741553560993
basic,9,17,0,0,0,8,"[0, 16, 9, 2, 8]",5,8,"[7, 10, 11, 12, 14, 17, 26, 27]",141.9484233,3993,647,1,5,8,1.1808712459383446
basic,9,17,0,0,1,17,"[0, 16, 9, 2, 8, 17]",6,0,[],103.738477,5148,1155,1,0,6,1.8589839718795222
basic,9,17,0,1,1,17,"[0, 16, 9, 2, 8, 17]",6,0,[],103.738477,6299,1151,1,0,6,1.8589839718795222
basic,10,27,0,0,0,0,[0],1,26,"[1, 3, 5, 6, 7, 8, 9, 10, 11, 12, 13, 14, 15, 16, 17, 18, 19, 21, 22, 23, 24, 25, 26, 27, 28, 29]",300,133,-1,13,578,11,0.0
basic,10,27,0,0,0,15,"[0, 15]",2,24,"[1, 3, 5, 6, 7, 8, 9, 10, 11, 12, 13, 14, 16, 17, 18, 19, 21, 22, 23, 24, 25, 26, 27, 29]",263.7508621,3894,3761,6,219,11,1.0
basic,10,27,0,0,0,24,"[0, 15, 24]",3,20,"[1, 5, 6, 7, 8, 9, 10, 12, 13, 14, 16, 17, 18, 19, 21, 23, 25, 26, 27, 29]",246.5462115,4727,833,6,130,11,1.130933077698322
basic,10,27,0,0,0,17,"[0, 15, 24, 17]",4,15,"[1, 6, 8, 10, 12, 13, 14, 16, 18, 19, 23, 25, 26, 27, 29]",229.9932662,5575,848,4,60,11,1.1285538435963374
basic,10,27,0,0,0,12,"[0, 15, 24, 17, 12]",5,14,"[1, 6, 8, 10, 13, 14, 16, 18, 19, 23, 25, 26, 27, 29]",218.8129263,6230,655,2,32,11,1.2561880288755216
basic,10,27,0,0,0,10,"[0, 15, 24, 17, 12, 10]",6,11,"[1, 8, 13, 14, 18, 19, 23, 25, 26, 27, 29]",207.7675653,6796,566,2,28,11,1.2228289337766665
basic,10,27,0,0,0,13,"[0, 15, 24, 17, 12, 10, 13]",7,9,"[1, 8, 14, 18, 19, 23, 26, 27, 29]",167.9178476,7484,688,2,18,11,1.3421291994761178
basic,10,27,0,1,0,13,"[0, 15, 24, 17, 12, 10, 13]",7,9,"[1, 8, 14, 18, 19, 23, 26, 27, 29]",167.9178476,10300,2816,2,18,11,1.3421291994761178
basic,11,16,0,0,0,0,[0],1,29,"[1, 2, 3, 4, 5, 6, 7, 8, 9, 10, 11, 12, 13, 14, 15, 16, 17, 18, 19, 20, 21, 22, 23, 24, 25, 26, 27, 28, 29]",300,180,-1,13,161,9,0.0
basic,11,16,0,0,0,17,"[0, 17]",2,27,"[1, 2, 3, 4, 5, 7, 8, 9, 10, 11, 12, 13, 14, 15, 16, 18, 19, 20, 21, 22, 23, 24, 25, 26, 27, 28, 29]",241.3058776,3459,3279,2,58,9,1.0
basic,11,16,0,0,0,16,"[0, 17, 16]",3,26,"[1, 2, 3, 4, 5, 7, 8, 9, 10, 11, 12, 13, 14, 15, 18, 19, 20, 21, 22, 23, 24, 25, 26, 27, 28, 29]",212.9862731,4172,713,2,52,9,1.0529535521792848
basic,11,16,0,0,0,21,"[0, 17, 16, 21]",4,19,"[3, 5, 7, 8, 9, 10, 12, 14, 15, 19, 20, 22, 23, 24, 25, 26, 27, 28, 29]",168.332046,4905,733,9,18,8,1.5524765786046826
basic,11,16,0,0,0,8,"[0, 17, 16, 21, 8]",5,7,"[3, 5, 9, 12, 15, 20, 25]",119.0776046,6733,1828,9,6,8,1.458624751458944
basic,11,16,0,1,0,8,"[0, 17, 16, 21, 8]",5,7,"[3, 5, 9, 12, 15, 20, 25]",119.0776046,7514,781,9,6,8,1.458624751458944
basic,12,42,0,0,0,0,[0],1,29,"[1, 2, 3, 4, 5, 6, 7, 8, 9, 10, 11, 12, 13, 14, 15, 16, 17, 18, 19, 20, 21, 22, 23, 24, 25, 26, 27, 28, 29]",300,132,-1,16,302,9,0.0
basic,12,42,0,0,0,8,"[0, 8]",2,25,"[1, 2, 3, 4, 5, 6, 7, 9, 10, 11, 13, 15, 17, 18, 19, 20, 21, 22, 23, 24, 25, 26, 27, 28, 29]",192.4825596,6059,5927,5,71,8,1.0
basic,12,42,0,0,0,22,"[0, 8, 22]",3,24,"[1, 2, 3, 4, 5, 6, 7, 9, 10, 11, 13, 15, 17, 18, 19, 20, 21, 23, 24, 25, 26, 27, 28, 29]",170.3466159,6827,768,4,24,8,1.4633527513824602
basic,12,42,0,0,0,4,"[0, 8, 22, 4]",4,20,"[1, 2, 3, 5, 7, 9, 11, 13, 15, 17, 18, 19, 20, 21, 23, 24, 25, 26, 27, 29]",159.166276,7409,582,4,15,8,1.5566727441767647
basic,12,42,0,0,0,5,"[0, 8, 22, 4, 5]",5,12,"[1, 2, 3, 7, 18, 20, 21, 24, 25, 26, 27, 29]",139.3168428,7975,566,3,6,8,1.4781439789100645
basic,12,42,0,1,0,5,"[0, 8, 22, 4, 5]",5,12,"[1, 2, 3, 7, 18, 20, 21, 24, 25, 26, 27, 29]",139.3168428,8615,640,3,6,8,1.4781439789100645
basic,13,45,0,0,0,0,[0],1,24,"[1, 2, 3, 4, 5, 6, 7, 9, 10, 11, 12, 14, 15, 16, 17, 19, 20, 21, 22, 23, 24, 25, 27, 29]",300,132,-1,6,248,10,0.0
basic,13,45,0,0,0,15,"[0, 15]",2,23,"[1, 2, 3, 4, 5, 6, 7, 9, 10, 11, 12, 14, 16, 17, 19, 20, 21, 22, 23, 24, 25, 27, 29]",253.9022777,5176,5044,5,207,10,1.0
basic,13,45,0,0,0,23,"[0, 15, 23]",3,22,"[1, 2, 3, 4, 5, 6, 7, 9, 10, 11, 12, 14, 16, 17, 19, 20, 21, 22, 24, 25, 27, 29]",230.3014303,5790,614,5,163,10,1.0006068457769497
basic,13,45,0,0,0,20,"[0, 15, 23, 20]",4,19,"[1, 2, 3, 5, 6, 7, 9, 10, 11, 12, 14, 16, 17, 19, 21, 22, 24, 25, 29]",188.8647316,6759,969,5,137,10,1.2062119754673604
basic,13,45,0,0,0,7,"[0, 15, 23, 20, 7]",5,14,"[2, 3, 5, 6, 9, 10, 12, 14, 17, 19, 21, 22, 24, 29]",137.2410936,7527,768,3,38,10,1.2267717168083891
basic,13,45,0,0,0,24,"[0, 15, 23, 20, 7, 24]",6,6,"[2, 3, 10, 17, 19, 29]",102.8317925,8230,703,5,3,8,1.9141642297047436
basic,13,45,0,1,0,24,"[0, 15, 23, 20, 7, 24]",6,6,"[2, 3, 10, 17, 19, 29]",102.8317925,9265,1035,5,3,8,1.9141642297047436
basic,14,40,0,0,0,0,[0],1,29,"[1, 2, 3, 4, 5, 6, 7, 8, 9, 10, 11, 12, 13, 14, 15, 16, 17, 18, 19, 20, 21, 22, 23, 24, 25, 26, 27, 28, 29]",300,132,-1,8,191,9,0.0
basic,14,40,0,0,0,19,"[0, 19]",2,23,"[1, 2, 5, 6, 7, 8, 9, 10, 11, 13, 14, 15, 17, 18, 20, 21, 22, 23, 24, 25, 26, 27, 29]",197.4085774,3884,3752,1,23,8,1.0
basic,14,40,0,0,0,23,"[0, 19, 23]",3,16,"[1, 2, 5, 6, 7, 8, 9, 10, 11, 13, 17, 18, 21, 22, 27, 29]",165.4554867,4724,840,1,13,8,1.4185389616031867
basic,14,40,0,0,0,5,"[0, 19, 23, 5]",4,11,"[1, 2, 6, 7, 8, 9, 11, 18, 21, 22, 27]",137.1535433,5321,597,1,6,8,1.324129989367913
basic,14,40,0,0,0,18,"[0, 19, 23, 5, 18]",5,6,"[1, 2, 6, 9, 21, 22]",105.5782365,6018,697,1,3,8,1.6412891179855233
basic,14,40,0,0,0,9,"[0, 19, 23, 5, 18, 9]",6,3,"[1, 6, 21]",89.02529118,7374,1356,1,2,8,1.710668227082089
basic,14,40,0,1,0,9,"[0, 19, 23, 5, 18, 9]",6,3,"[1, 6, 21]",89.02529118,8282,908,1,2,8,1.710668227082089
basic,15,11,0,0,0,0,[0],1,25,"[1, 2, 3, 4, 5, 6, 8, 9, 10, 11, 12, 13, 14, 15, 16, 17, 18, 19, 20, 22, 23, 25, 26, 27, 28]",300,133,-1,6,374,12,0.0
basic,15,11,0,0,0,17,"[0, 17]",2,18,"[1, 2, 4, 5, 6, 8, 10, 11, 12, 15, 18, 19, 22, 23, 25, 26, 27, 28]",152.9217895,2903,2770,218,762,9,1.0
basic,15,11,0,0,0,8,"[0, 17, 8]",3,15,"[1, 2, 4, 5, 6, 11, 12, 15, 18, 19, 22, 23, 25, 27, 28]",138.6039684,3541,638,95,263,9,1.1114912532636003
basic,15,11,0,0,0,15,"[0, 17, 8, 15]",4,11,"[2, 5, 6, 11, 12, 18, 19, 22, 25, 27, 28]",125.1503444,4220,679,62,51,9,1.1146194627724886
basic,15,11,0,0,0,11,"[0, 17, 8, 15, 11]",5,9,"[2, 5, 6, 12, 19, 22, 25, 27, 28]",107.0395741,4906,686,24,2,9,1.1130192047684102
basic,15,11,0,0,0,28,"[0, 17, 8, 15, 11, 28]",6,4,"[2, 5, 19, 22]",87.62308629,5585,679,6,2,9,1.2290091933070886
basic,15,11,0,0,0,2,"[0, 17, 8, 15, 11, 28, 2]",7,3,"[5, 19, 22]",76.99294047,6668,1083,2,1,9,1.2494226000258029
basic,15,11,0,0,0,22,"[0, 17, 8, 15, 11, 28, 2, 22]",8,1,[5],66.94306485,7775,1107,1,0,9,1.2361545496649002
basic,15,11,0,1,0,22,"[0, 17, 8, 15, 11, 28, 2, 22]",8,1,[5],66.94306485,8682,907,1,0,9,1.2361545496649002
basic,16,5,0,0,0,0,[0],1,29,"[1, 2, 3, 4, 5, 6, 7, 8, 9, 10, 11, 12, 13, 14, 15, 16, 17, 18, 19, 20, 21, 22, 23, 24, 25, 26, 27, 28, 29]",300,116,-1,5,139,9,0.0
basic,16,5,0,0,0,23,"[0, 23]",2,27,"[1, 2, 3, 4, 5, 6, 7, 8, 9, 10, 11, 12, 13, 14, 15, 16, 17, 18, 19, 20, 21, 22, 24, 25, 26, 27, 28]",249.8402552,2504,2388,3,75,9,1.0
basic,16,5,0,0,0,24,"[0, 23, 24]",3,24,"[1, 2, 3, 4, 5, 6, 8, 9, 10, 11, 12, 13, 14, 15, 16, 17, 18, 19, 21, 22, 25, 26, 27, 28]",226.7534624,3651,1147,20,147,8,1.0113799830159869
basic,16,5,0,0,0,17,"[0, 23, 24, 17]",4,18,"[2, 4, 5, 6, 8, 9, 10, 12, 13, 14, 15, 18, 19, 22, 25, 26, 27, 28]",191.7677511,4344,693,6,49,8,1.0136434296829369
basic,16,5,0,0,0,5,"[0, 23, 24, 17, 5]",5,9,"[4, 6, 8, 12, 14, 15, 18, 19, 25]",148.7212646,5508,1164,6,10,8,1.0121300076484332
basic,16,5,0,1,0,5,"[0, 23, 24, 17, 5]",5,9,"[4, 6, 8, 12, 14, 15, 18, 19, 25]",148.7212646,6266,758,6,10,8,1.0121300076484332
basic,17,31,0,0,0,0,[0],1,27,"[1, 3, 4, 5, 6, 7, 8, 10, 11, 12, 13, 14, 15, 16, 17, 18, 19, 20, 21, 22, 23, 24, 25, 26, 27, 28, 29]",300,115,-1,2,87,10,0.0
basic,17,31,0,0,0,14,"[0, 14]",2,25,"[1, 3, 5, 6, 7, 8, 10, 11, 12, 13, 15, 16, 17, 18, 19, 20, 21, 22, 23, 24, 25, 26, 27, 28, 29]",263.861378,1664,1549,2,59,10,1.0
basic,17,31,0,0,0,27,"[0, 14, 27]",3,22,"[1, 3, 5, 6, 7, 8, 10, 11, 12, 13, 15, 16, 17, 18, 19, 20, 21, 22, 24, 25, 28, 29]",235.6833724,2375,711,1,39,10,1.5881859159302467
basic,17,31,0,0,0,8,"[0, 14, 27, 8]",4,20,"[1, 3, 5, 6, 7, 10, 11, 12, 13, 16, 17, 18, 19, 20, 21, 22, 24, 25, 28, 29]",224.6380114,2941,566,1,36,10,2.1665048452331277
basic,17,31,0,0,0,18,"[0, 14, 27, 8, 18]",5,15,"[1, 5, 6, 7, 11, 12, 13, 16, 17, 19, 20, 22, 25, 28, 29]",188.7911147,3668,727,1,26,10,1.7273375741920205
basic,17,31,0,0,0,17,"[0, 14, 27, 8, 18, 17]",6,13,"[1, 5, 6, 7, 11, 12, 13, 16, 19, 20, 22, 25, 28]",159.584951,4524,856,1,13,10,1.551192427769927
basic,17,31,0,0,0,11,"[0, 14, 27, 8, 18, 17, 11]",7,7,"[5, 12, 16, 19, 22, 25, 28]",118.4753414,5688,1164,1,4,10,2.9650760544203494
basic,17,31,0,1,0,11,"[0, 14, 27, 8, 18, 17, 11]",7,7,"[5, 12, 16, 19, 22, 25, 28]",118.4753414,6248,560,1,4,10,2.9650760544203494
basic,18,36,0,0,0,0,[0],1,24,"[2, 4, 5, 6, 7, 8, 9, 10, 12, 13, 14, 15, 16, 17, 18, 19, 20, 22, 23, 25, 26, 27, 28, 29]",300,115,-1,2,200,10,0.0
basic,18,36,0,0,0,9,"[0, 9]",2,16,"[2, 4, 8, 10, 12, 13, 16, 17, 18, 19, 23, 25, 26, 27, 28, 29]",230.9348134,1928,1813,81,367,8,1.0
basic,18,36,0,0,0,17,"[0, 9, 17]",3,13,"[2, 4, 8, 10, 12, 13, 16, 18, 19, 23, 25, 27, 29]",204.6860039,3276,1348,22,90,8,1.0084584538853834
basic,18,36,0,0,0,19,"[0, 9, 17, 19]",4,12,"[2, 4, 8, 10, 12, 13, 16, 18, 23, 25, 27, 29]",176.7933525,3971,695,8,25,8,1.5984695375617641
basic,18,36,0,0,0,2,"[0, 9, 17, 19, 2]",5,8,"[8, 10, 12, 13, 16, 18, 25, 27]",139.6719302,4690,719,3,6,8,1.4197222355264698
basic,18,36,0,0,0,25,"[0, 9, 17, 19, 2, 25]",6,4,"[10, 12, 13, 16]",114.6719302,5329,639,2,3,8,1.618724672336267
basic,18,36,0,0,0,13,"[0, 9, 17, 19, 2, 25, 13]",7,2,"[10, 12]",94.08066987,5902,573,2,0,8,2.099469552875175
basic,18,36,0,1,0,13,"[0, 9, 17, 19, 2, 25, 13]",7,2,"[10, 12]",94.08066987,6498,596,2,0,8,2.099469552875175
basic,19,28,0,0,0,0,[0],1,27,"[1, 2, 3, 4, 5, 6, 7, 8, 9, 10, 11, 12, 13, 14, 15, 16, 17, 18, 19, 20, 22, 23, 25, 26, 27, 28, 29]",300,166,-1,2,96,9,0.0
basic,19,28,0,0,0,28,"[0, 28]",2,8,"[2, 4, 5, 8, 9, 19, 26, 29]",115.2840018,3330,3164,16,16,5,1.0
basic,19,28,0,0,0,8,"[0, 28, 8]",3,6,"[2, 4, 5, 9, 26, 29]",97.47950796,4008,678,8,4,5,1.0041899497699787
basic,19,28,0,0,0,9,"[0, 28, 8, 9]",4,5,"[2, 4, 5, 26, 29]",82.34676201,4598,590,5,0,5,1.057766249254381
basic,19,28,0,0,1,4,"[0, 28, 8, 9, 4]",5,0,[],59.32503314,5793,1195,1,0,5,1.0531434681092646
basic,19,28,0,1,1,4,"[0, 28, 8, 9, 4]",5,0,[],59.32503314,6850,1057,1,0,5,1.0531434681092646
basic,20,21,0,0,0,0,[0],1,29,"[1, 2, 3, 4, 5, 6, 7, 8, 9, 10, 11, 12, 13, 14, 15, 16, 17, 18, 19, 20, 21, 22, 23, 24, 25, 26, 27, 28, 29]",300,116,-1,84,830,9,0.0
basic,20,21,0,0,0,20,"[0, 20]",2,28,"[1, 2, 3, 4, 5, 6, 7, 8, 9, 10, 11, 12, 13, 14, 15, 16, 17, 18, 19, 21, 22, 23, 24, 25, 26, 27, 28, 29]",217.6228187,4228,4112,6,67,9,1.0
basic,20,21,0,0,0,22,"[0, 20, 22]",3,23,"[2, 4, 6, 7, 8, 9, 10, 11, 12, 13, 14, 15, 16, 17, 18, 19, 21, 23, 24, 25, 26, 27, 29]",189.3916303,4762,534,6,47,9,1.3451865712078994
basic,20,21,0,0,0,29,"[0, 20, 22, 29]",4,18,"[2, 4, 6, 7, 8, 10, 11, 12, 14, 15, 16, 17, 18, 21, 23, 24, 25, 27]",159.1261384,6296,1534,2,19,9,1.6628724818562788
basic,20,21,0,0,0,18,"[0, 20, 22, 29, 18]",5,10,"[4, 6, 10, 11, 12, 14, 17, 21, 23, 25]",130.4730408,6926,630,1,6,9,2.869631022456117
basic,20,21,0,1,0,18,"[0, 20, 22, 29, 18]",5,10,"[4, 6, 10, 11, 12, 14, 17, 21, 23, 25]",130.4730408,7365,439,1,6,9,2.869631022456117
basic,21,8,0,0,0,0,[0],1,29,"[1, 2, 3, 4, 5, 6, 7, 8, 9, 10, 11, 12, 13, 14, 15, 16, 17, 18, 19, 20, 21, 22, 23, 24, 25, 26, 27, 28, 29]",300,132,-1,10,149,9,0.0
basic,21,8,0,0,0,5,"[0, 5]",2,28,"[1, 2, 3, 4, 6, 7, 8, 9, 10, 11, 12, 13, 14, 15, 16, 17, 18, 19, 20, 21, 22, 23, 24, 25, 26, 27, 28, 29]",254.5137383,3818,3686,10,100,9,1.0
basic,21,8,0,0,0,25,"[0, 5, 25]",3,20,"[1, 2, 3, 4, 6, 11, 12, 14, 15, 16, 17, 18, 19, 20, 21, 22, 23, 24, 28, 29]",215.3091468,4505,687,4,42,9,1.2272747879909065
basic,21,8,0,0,0,1,"[0, 5, 25, 1]",4,17,"[3, 4, 6, 11, 12, 14, 15, 16, 17, 18, 20, 21, 22, 23, 24, 28, 29]",190.3091468,5102,597,3,24,9,1.1770245007593956
basic,21,8,0,0,0,23,"[0, 5, 25, 1, 23]",5,15,"[3, 4, 6, 11, 14, 15, 16, 17, 18, 20, 21, 22, 24, 28, 29]",167.2874179,6193,1091,1,14,9,1.141996583852372
basic,21,8,0,0,0,18,"[0, 5, 25, 1, 23, 18]",6,9,"[3, 4, 11, 14, 15, 16, 17, 24, 28]",125.5261919,7035,842,1,7,9,1.3199166330970717
basic,21,8,0,1,0,18,"[0, 5, 25, 1, 23, 18]",6,9,"[3, 4, 11, 14, 15, 16, 17, 24, 28]",125.5261919,7649,614,1,7,9,1.3199166330970717
basic,22,24,0,0,0,0,[0],1,29,"[1, 2, 3, 4, 5, 6, 7, 8, 9, 10, 11, 12, 13, 14, 15, 16, 17, 18, 19, 20, 21, 22, 23, 24, 25, 26, 27, 28, 29]",300,115,-1,4,76,10,0.0
basic,22,24,0,0,0,16,"[0, 16]",2,28,"[1, 2, 3, 4, 5, 6, 7, 8, 9, 10, 11, 12, 13, 14, 15, 17, 18, 19, 20, 21, 22, 23, 24, 25, 26, 27, 28, 29]",210.3562607,2898,2783,13,110,9,1.0
basic,22,24,0,0,0,22,"[0, 16, 22]",3,27,"[1, 2, 3, 4, 5, 6, 7, 8, 9, 10, 11, 12, 13, 14, 15, 17, 18, 19, 20, 21, 23, 24, 25, 26, 27, 28, 29]",192.3285043,3430,532,7,54,9,1.0217425143037777
basic,22,24,0,0,0,8,"[0, 16, 22, 8]",4,21,"[1, 2, 3, 4, 6, 9, 10, 11, 13, 14, 15, 17, 20, 21, 23, 24, 25, 26, 27, 28, 29]",178.9120964,4885,1455,4,28,9,1.0996636936037951
basic,22,24,0,0,0,15,"[0, 16, 22, 8, 15]",5,16,"[3, 4, 6, 9, 10, 11, 13, 14, 17, 23, 24, 25, 26, 27, 28, 29]",148.025206,5741,856,3,17,9,1.2704773343758617
basic,22,24,0,0,0,28,"[0, 16, 22, 8, 15, 28]",6,8,"[3, 4, 9, 11, 13, 23, 26, 27]",102.7482803,6598,857,3,5,9,1.1981967578189556
basic,22,24,0,1,0,28,"[0, 16, 22, 8, 15, 28]",6,8,"[3, 4, 9, 11, 13, 23, 26, 27]",102.7482803,7231,633,3,5,9,1.1981967578189556
undo,23,24,0,0,0,0,[0],1,29,"[1, 2, 3, 4, 5, 6, 7, 8, 9, 10, 11, 12, 13, 14, 15, 16, 17, 18, 19, 20, 21, 22, 23, 24, 25, 26, 27, 28, 29]",300,116,-1,4,76,10,0.0
undo,23,24,0,0,0,16,"[0, 16]",2,28,"[1, 2, 3, 4, 5, 6, 7, 8, 9, 10, 11, 12, 13, 14, 15, 17, 18, 19, 20, 21, 22, 23, 24, 25, 26, 27, 28, 29]",210.3562607,3105,2989,13,110,9,1.0
undo,23,24,0,0,0,8,"[0, 16, 8]",3,22,"[1, 2, 3, 4, 6, 9, 10, 11, 13, 14, 15, 17, 20, 21, 22, 23, 24, 25, 26, 27, 28, 29]",181.3562607,4098,993,3,31,9,1.0774669368510212
undo,23,24,0,0,0,22,"[0, 16, 8, 22]",4,18,"[2, 3, 4, 6, 9, 10, 11, 13, 14, 15, 17, 23, 24, 25, 26, 27, 28, 29]",167.9398528,4785,687,3,23,9,1.2531772310046492
undo,23,24,0,0,0,15,"[0, 16, 8, 22, 15]",5,16,"[3, 4, 6, 9, 10, 11, 13, 14, 17, 23, 24, 25, 26, 27, 28, 29]",146.7266494,5369,584,3,16,9,1.2813329946092564
undo,23,24,0,0,0,28,"[0, 16, 8, 22, 15, 28]",6,8,"[3, 4, 9, 11, 13, 23, 26, 27]",101.4497237,6110,741,3,5,9,1.2060847818642253
undo,23,24,0,0,0,23,"[0, 16, 8, 22, 15, 28, 23]",7,3,"[9, 11, 27]",82.42342609,6756,646,3,1,9,1.2349355190066822
undo,23,24,0,0,0,11,"[0, 16, 8, 22, 15, 28, 23, 11]",8,2,"[9, 27]",55.49760206,7751,995,2,0,9,1.2172586817191506
undo,23,24,0,0,1,27,"[0, 16, 8, 22, 15, 28, 23, 11, 27]",9,0,[],27.69472451,8615,864,1,0,9,1.192247579330137
undo,23,24,1,0,0,11,"[0, 16, 8, 22, 15, 28, 23, 11]",8,2,"[9, 27]",55.49760206,9866,1251,2,0,9,1.2172586817191506
undo,23,24,0,1,0,11,"[0, 16, 8, 22, 15, 28, 23, 11]",8,2,"[9, 27]",55.49760206,11332,1466,2,0,9,1.2172586817191506
undo,24,36,0,0,0,0,[0],1,24,"[2, 4, 5, 6, 7, 8, 9, 10, 12, 13, 14, 15, 16, 17, 18, 19, 20, 22, 23, 25, 26, 27, 28, 29]",300,132,-1,2,200,10,0.0
undo,24,36,0,0,0,9,"[0, 9]",2,16,"[2, 4, 8, 10, 12, 13, 16, 17, 18, 19, 23, 25, 26, 27, 28, 29]",230.9348134,2305,2173,81,367,8,1.0
undo,24,36,0,0,0,16,"[0, 9, 16]",3,10,"[2, 10, 12, 13, 17, 18, 19, 23, 25, 27]",183.637879,3961,1656,16,49,8,1.090165866783516
undo,24,36,0,0,0,17,"[0, 9, 16, 17]",4,8,"[2, 10, 12, 13, 18, 19, 23, 25]",155.3182745,4623,662,13,21,8,1.530787871385863
undo,24,36,0,0,0,19,"[0, 9, 16, 17, 19]",5,7,"[2, 10, 12, 13, 18, 23, 25]",127.4256232,5351,728,8,6,8,2.238961045332441
undo,24,36,0,0,0,2,"[0, 9, 16, 17, 19, 2]",6,3,"[10, 13, 25]",90.30420077,6691,1340,3,1,8,1.8568787688562653
undo,24,36,0,0,0,25,"[0, 9, 16, 17, 19, 2, 25]",7,2,"[10, 13]",65.30420077,7314,623,2,0,8,2.049920884177255
undo,24,36,0,0,1,13,"[0, 9, 16, 17, 19, 2, 25, 13]",8,0,[],44.71294049,8081,767,1,0,8,2.602802798289571
undo,24,36,1,0,0,25,"[0, 9, 16, 17, 19, 2, 25]",7,2,"[10, 13]",65.30420077,9399,1318,2,0,8,2.049920884177255
undo,24,36,0,1,0,25,"[0, 9, 16, 17, 19, 2, 25]",7,2,"[10, 13]",65.30420077,10065,666,2,0,8,2.049920884177255
undo,25,26,0,0,0,0,[0],1,29,"[1, 2, 3, 4, 5, 6, 7, 8, 9, 10, 11, 12, 13, 14, 15, 16, 17, 18, 19, 20, 21, 22, 23, 24, 25, 26, 27, 28, 29]",300,131,-1,9,226,9,0.0
undo,25,26,0,0,0,16,"[0, 16]",2,17,"[3, 4, 5, 6, 10, 11, 12, 13, 14, 17, 18, 19, 21, 22, 23, 26, 29]",188.0535842,1690,1559,34,176,8,1.0
undo,25,26,0,0,0,29,"[0, 16, 29]",3,12,"[4, 5, 6, 10, 12, 13, 14, 17, 19, 21, 23, 26]",163.8461474,2385,695,32,68,8,1.1142946124989752
undo,25,26,0,0,0,4,"[0, 16, 29, 4]",4,9,"[5, 6, 10, 12, 13, 14, 17, 21, 23]",139.8461474,3047,662,17,7,8,1.3213762371676339
undo,25,26,0,0,0,17,"[0, 16, 29, 4, 17]",5,5,"[6, 10, 14, 21, 23]",118.7511243,3581,534,6,0,8,1.2756100061290643
undo,25,26,0,0,0,14,"[0, 16, 29, 4, 17, 14]",6,2,"[6, 10]",96.27891921,4284,703,2,0,8,1.264154039440982
undo,25,26,0,0,0,6,"[0, 16, 29, 4, 17, 14, 6]",7,1,[10],75.25512317,4913,629,1,0,8,1.3993089646092733
undo,25,26,0,0,1,10,"[0, 16, 29, 4, 17, 14, 6, 10]",8,0,[],45.98056083,6529,1616,1,0,8,1.5697867669370302
undo,25,26,1,0,0,6,"[0, 16, 29, 4, 17, 14, 6]",7,1,[10],75.25512317,7716,1187,1,0,8,1.3993089646092733
undo,25,26,0,1,0,6,"[0, 16, 29, 4, 17, 14, 6]",7,1,[10],75.25512317,8182,466,1,0,8,1.3993089646092733
undo,26,17,0,0,0,0,[0],1,28,"[1, 2, 3, 4, 5, 6, 7, 8, 9, 10, 11, 12, 13, 14, 15, 16, 17, 18, 19, 20, 22, 23, 24, 25, 26, 27, 28, 29]",300,115,-1,2,73,8,0.0
undo,26,17,0,0,0,17,"[0, 17]",2,19,"[1, 2, 3, 5, 7, 8, 9, 10, 11, 12, 14, 16, 18, 19, 23, 25, 26, 27, 29]",194.4253818,2747,2632,3,56,7,1.0
undo,26,17,0,0,0,8,"[0, 17, 8]",3,14,"[2, 3, 7, 9, 10, 11, 12, 14, 16, 23, 25, 26, 27, 29]",156.2154355,4017,1270,11,17,6,1.0742762671080475
undo,26,17,0,0,0,2,"[0, 17, 8, 2]",4,5,"[7, 9, 10, 16, 27]",121.1013358,4792,775,4,3,6,1.72713973249527
undo,26,17,0,0,0,16,"[0, 17, 8, 2, 16]",5,2,"[7, 9]",104.9768203,6084,1292,2,0,6,2.225242522948709
undo,26,17,0,0,1,9,"[0, 17, 8, 2, 16, 9]",6,0,[],91.6351562,6667,583,1,0,6,2.328862118556028
undo,26,17,1,0,0,16,"[0, 17, 8, 2, 16]",5,2,"[7, 9]",104.9768203,9131,2464,2,0,6,2.225242522948709
undo,26,17,0,1,0,16,"[0, 17, 8, 2, 16]",5,2,"[7, 9]",104.9768203,10565,1434,2,0,6,2.225242522948709
undo,27,11,0,0,0,0,[0],1,25,"[1, 2, 3, 4, 5, 6, 8, 9, 10, 11, 12, 13, 14, 15, 16, 17, 18, 19, 20, 22, 23, 25, 26, 27, 28]",300,165,-1,6,374,12,0.0
undo,27,11,0,0,0,17,"[0, 17]",2,18,"[1, 2, 4, 5, 6, 8, 10, 11, 12, 15, 18, 19, 22, 23, 25, 26, 27, 28]",152.9217895,1987,1822,218,762,9,1.0
undo,27,11,0,0,0,8,"[0, 17, 8]",3,15,"[1, 2, 4, 5, 6, 11, 12, 15, 18, 19, 22, 23, 25, 27, 28]",138.6039684,2862,875,95,263,9,1.1114912532636003
undo,27,11,0,0,0,15,"[0, 17, 8, 15]",4,11,"[2, 5, 6, 11, 12, 18, 19, 22, 25, 27, 28]",125.1503444,3450,588,62,51,9,1.1146194627724886
undo,27,11,0,0,0,11,"[0, 17, 8, 15, 11]",5,9,"[2, 5, 6, 12, 19, 22, 25, 27, 28]",107.0395741,4023,573,24,2,9,1.1130192047684102
undo,27,11,0,0,0,28,"[0, 17, 8, 15, 11, 28]",6,4,"[2, 5, 19, 22]",87.62308629,4743,720,6,2,9,1.2290091933070886
undo,27,11,0,0,0,5,"[0, 17, 8, 15, 11, 28, 5]",7,2,"[2, 22]",69.73454247,6512,1769,2,0,9,1.4153375425476789
undo,27,11,0,0,0,2,"[0, 17, 8, 15, 11, 28, 5, 2]",8,1,[22],52.73454247,7272,760,1,0,9,1.3853330540064914
undo,27,11,0,0,1,22,"[0, 17, 8, 15, 11, 28, 5, 2, 22]",9,0,[],42.68466685,7890,618,1,0,9,1.3648232332892756
undo,27,11,1,0,0,2,"[0, 17, 8, 15, 11, 28, 5, 2]",8,1,[22],52.73454247,8864,974,1,0,9,1.3853330540064914
undo,27,11,0,1,0,2,"[0, 17, 8, 15, 11, 28, 5, 2]",8,1,[22],52.73454247,9514,650,1,0,9,1.3853330540064914
undo,28,18,0,0,0,0,[0],1,28,"[1, 2, 3, 4, 5, 6, 7, 8, 9, 10, 11, 12, 13, 14, 16, 17, 18, 19, 20, 21, 22, 23, 24, 25, 26, 27, 28, 29]",300,115,-1,3,136,10,0.0
undo,28,18,0,0,0,28,"[0, 28]",2,16,"[1, 3, 5, 7, 8, 9, 12, 13, 14, 16, 20, 23, 24, 25, 26, 27]",236.4311397,2513,2398,2,19,10,1.0
undo,28,18,0,0,0,7,"[0, 28, 7]",3,15,"[1, 3, 5, 8, 9, 12, 13, 14, 16, 20, 23, 24, 25, 26, 27]",214.4084242,3224,711,2,17,10,1.4345180696367563
undo,28,18,0,0,0,25,"[0, 28, 7, 25]",4,13,"[1, 3, 5, 8, 9, 12, 13, 14, 16, 20, 23, 26, 27]",186.6055466,3895,671,2,15,10,1.8896451241781882
undo,28,18,0,0,0,13,"[0, 28, 7, 25, 13]",5,10,"[3, 5, 8, 9, 12, 14, 16, 23, 26, 27]",141.3286209,4564,669,5,21,9,1.6878978848273398
undo,28,18,0,0,0,8,"[0, 28, 7, 25, 13, 8]",6,8,"[3, 5, 9, 12, 14, 23, 26, 27]",120.2335978,5163,599,2,9,9,1.900402263134541
undo,28,18,0,0,0,3,"[0, 28, 7, 25, 13, 8, 3]",7,4,"[5, 12, 14, 27]",92.16226011,5801,638,2,2,9,1.6983472617950826
undo,28,18,0,0,1,14,"[0, 28, 7, 25, 13, 8, 3, 14]",8,0,[],62.0790422,6650,849,1,0,8,2.1221805819734856
undo,28,18,1,0,0,3,"[0, 28, 7, 25, 13, 8, 3]",7,4,"[5, 12, 14, 27]",92.16226011,7664,1014,2,2,9,1.6983472617950826
undo,28,18,0,1,0,3,"[0, 28, 7, 25, 13, 8, 3]",7,4,"[5, 12, 14, 27]",92.16226011,8131,467,2,2,9,1.6983472617950826
undo,29,2,0,0,0,0,[0],1,23,"[1, 2, 4, 5, 6, 7, 8, 9, 12, 13, 15, 16, 17, 18, 19, 20, 22, 23, 25, 26, 27, 28, 29]",300,132,-1,70,620,10,0.0
undo,29,2,0,0,0,19,"[0, 19]",2,22,"[1, 2, 4, 5, 6, 7, 8, 9, 12, 13, 15, 16, 17, 18, 20, 22, 23, 25, 26, 27, 28, 29]",210.306076,2152,2020,67,431,10,1.0
undo,29,2,0,0,0,12,"[0, 19, 12]",3,17,"[1, 4, 5, 6, 7, 13, 15, 16, 17, 18, 20, 22, 25, 26, 27, 28, 29]",174.2921898,2767,615,66,298,10,1.1107635036313153
undo,29,2,0,0,0,5,"[0, 19, 12, 5]",4,11,"[1, 6, 7, 13, 15, 16, 18, 22, 25, 26, 29]",144.7625437,3347,580,38,136,10,1.0968174771581647
undo,29,2,0,0,0,22,"[0, 19, 12, 5, 22]",5,8,"[1, 6, 7, 13, 15, 18, 26, 29]",131.9562952,3937,590,20,63,10,1.0889910507461968
undo,29,2,0,0,0,13,"[0, 19, 12, 5, 22, 13]",6,7,"[1, 6, 7, 15, 18, 26, 29]",117.0902265,4497,560,19,20,10,1.236526217328057
undo,29,2,0,0,0,18,"[0, 19, 12, 5, 22, 13, 18]",7,4,"[7, 15, 26, 29]",81.91921567,5246,749,10,3,10,1.2128708213409936
undo,29,2,0,0,0,7,"[0, 19, 12, 5, 22, 13, 18, 7]",8,3,"[15, 26, 29]",71.62358553,6021,775,5,0,10,1.2019811287894737
undo,29,2,0,0,0,15,"[0, 19, 12, 5, 22, 13, 18, 7, 15]",9,2,"[26, 29]",56.85876247,7160,1139,2,0,10,1.2907869828541363
undo,29,2,0,0,1,29,"[0, 19, 12, 5, 22, 13, 18, 7, 15, 29]",10,0,[],28.39826353,7952,792,1,0,10,1.4795089334237532
undo,29,2,1,0,0,15,"[0, 19, 12, 5, 22, 13, 18, 7, 15]",9,2,"[26, 29]",56.85876247,8832,880,2,0,10,1.2907869828541363
undo,29,2,0,1,0,15,"[0, 19, 12, 5, 22, 13, 18, 7, 15]",9,2,"[26, 29]",56.85876247,9798,966,2,0,10,1.2907869828541363
undo,30,16,0,0,0,0,[0],1,29,"[1, 2, 3, 4, 5, 6, 7, 8, 9, 10, 11, 12, 13, 14, 15, 16, 17, 18, 19, 20, 21, 22, 23, 24, 25, 26, 27, 28, 29]",300,165,-1,13,161,9,0.0
undo,30,16,0,0,0,17,"[0, 17]",2,27,"[1, 2, 3, 4, 5, 7, 8, 9, 10, 11, 12, 13, 14, 15, 16, 18, 19, 20, 21, 22, 23, 24, 25, 26, 27, 28, 29]",241.3058776,3645,3480,2,58,9,1.0
undo,30,16,0,0,0,16,"[0, 17, 16]",3,26,"[1, 2, 3, 4, 5, 7, 8, 9, 10, 11, 12, 13, 14, 15, 18, 19, 20, 21, 22, 23, 24, 25, 26, 27, 28, 29]",212.9862731,4307,662,2,52,9,1.0529535521792848
undo,30,16,0,0,0,21,"[0, 17, 16, 21]",4,19,"[3, 5, 7, 8, 9, 10, 12, 14, 15, 19, 20, 22, 23, 24, 25, 26, 27, 28, 29]",168.332046,5027,720,9,18,8,1.5524765786046826
undo,30,16,0,0,0,8,"[0, 17, 16, 21, 8]",5,7,"[3, 5, 9, 12, 15, 20, 25]",119.0776046,5689,662,9,6,8,1.458624751458944
undo,30,16,0,0,0,20,"[0, 17, 16, 21, 8, 20]",6,3,"[9, 15, 25]",61.30217727,7272,1583,4,1,8,1.3191752290945782
undo,30,16,0,0,0,25,"[0, 17, 16, 21, 8, 20, 25]",7,2,"[9, 15]",48.65306663,8017,745,2,0,8,1.3641436248537882
undo,30,16,0,0,1,9,"[0, 17, 16, 21, 8, 20, 25, 9]",8,0,[],35.84681815,8710,693,1,0,8,1.3406027753205443
undo,30,16,1,0,0,25,"[0, 17, 16, 21, 8, 20, 25]",7,2,"[9, 15]",48.65306663,9531,821,2,0,8,1.3641436248537882
undo,30,16,0,1,0,25,"[0, 17, 16, 21, 8, 20, 25]",7,2,"[9, 15]",48.65306663,10065,534,2,0,8,1.3641436248537882
undo,31,29,0,0,0,0,[0],1,29,"[1, 2, 3, 4, 5, 6, 7, 8, 9, 10, 11, 12, 13, 14, 15, 16, 17, 18, 19, 20, 21, 22, 23, 24, 25, 26, 27, 28, 29]",300,115,-1,1,78,9,0.0
undo,31,29,0,0,0,28,"[0, 28]",2,28,"[1, 2, 3, 4, 5, 6, 7, 8, 9, 10, 11, 12, 13, 14, 15, 16, 17, 18, 19, 20, 21, 22, 23, 24, 25, 26, 27, 29]",202.9175608,2934,2819,7,62,8,1.0
undo,31,29,0,0,0,27,"[0, 28, 27]",3,23,"[1, 3, 4, 5, 6, 7, 9, 10, 11, 12, 13, 14, 15, 16, 17, 18, 21, 22, 23, 24, 25, 26, 29]",182.3992763,3547,613,7,51,8,1.0854577949107957
undo,31,29,0,0,0,22,"[0, 28, 27, 22]",4,18,"[1, 3, 4, 5, 6, 7, 9, 11, 12, 13, 14, 15, 16, 21, 23, 25, 26, 29]",149.157736,4274,727,7,34,8,1.289627010733819
undo,31,29,0,0,0,12,"[0, 28, 27, 22, 12]",5,10,"[4, 5, 7, 9, 13, 14, 21, 23, 26, 29]",111.2104041,4945,671,5,8,8,1.2228936795394132
undo,31,29,0,0,0,7,"[0, 28, 27, 22, 12, 7]",6,5,"[4, 5, 9, 13, 21]",97.60893357,5567,622,4,2,8,1.2307104129303603
undo,31,29,0,0,0,9,"[0, 28, 27, 22, 12, 7, 9]",7,2,"[4, 21]",68.54004986,6576,1009,2,0,8,1.2260294853044633
undo,31,29,0,0,1,4,"[0, 28, 27, 22, 12, 7, 9, 4]",8,0,[],27.5034808,7968,1392,1,0,8,1.5501534531032373
undo,31,29,1,0,0,9,"[0, 28, 27, 22, 12, 7, 9]",7,2,"[4, 21]",68.54004986,8732,764,2,0,8,1.2260294853044633
undo,31,29,0,1,0,9,"[0, 28, 27, 22, 12, 7, 9]",7,2,"[4, 21]",68.54004986,9314,582,2,0,8,1.2260294853044633
undo,32,32,0,0,0,0,[0],1,29,"[1, 2, 3, 4, 5, 6, 7, 8, 9, 10, 11, 12, 13, 14, 15, 16, 17, 18, 19, 20, 21, 22, 23, 24, 25, 26, 27, 28, 29]",300,115,-1,17,359,10,0.0
undo,32,32,0,0,0,15,"[0, 15]",2,24,"[2, 3, 4, 5, 6, 7, 8, 9, 10, 11, 12, 13, 14, 16, 17, 19, 20, 22, 23, 24, 25, 26, 27, 28]",214.6185032,1970,1855,11,153,9,1.0
undo,32,32,0,0,0,28,"[0, 15, 28]",3,21,"[2, 3, 5, 7, 8, 9, 10, 11, 12, 13, 14, 16, 17, 19, 20, 22, 23, 24, 25, 26, 27]",203.2167489,2624,654,11,119,9,1.000160051986942
undo,32,32,0,0,0,12,"[0, 15, 28, 12]",4,19,"[2, 3, 5, 7, 8, 9, 10, 11, 13, 16, 17, 19, 20, 22, 23, 24, 25, 26, 27]",184.243083,3270,646,8,71,9,1.0281484763748023
undo,32,32,0,0,0,16,"[0, 15, 28, 12, 16]",5,17,"[2, 3, 5, 7, 8, 9, 10, 11, 13, 17, 19, 20, 22, 23, 24, 26, 27]",168.5906071,3940,670,6,38,9,1.1190771370096
undo,32,32,0,0,0,22,"[0, 15, 28, 12, 16, 22]",6,10,"[2, 3, 5, 8, 9, 10, 11, 17, 20, 27]",134.7527585,4668,728,4,16,9,1.1702311155319893
undo,32,32,0,0,0,9,"[0, 15, 28, 12, 16, 22, 9]",7,6,"[2, 8, 10, 17, 20, 27]",112.5491552,5210,542,2,4,9,1.2381424719932013
undo,32,32,0,0,0,8,"[0, 15, 28, 12, 16, 22, 9, 8]",8,1,[20],67.42709849,6009,799,1,0,9,1.187013645273504
undo,32,32,0,0,1,20,"[0, 15, 28, 12, 16, 22, 9, 8, 20]",9,0,[],17.09818036,7521,1512,1,0,9,1.3986201165175596
undo,32,32,1,0,0,8,"[0, 15, 28, 12, 16, 22, 9, 8]",8,1,[20],67.42709849,8265,744,1,0,9,1.187013645273504
undo,32,32,0,1,0,8,"[0, 15, 28, 12, 16, 22, 9, 8]",8,1,[20],67.42709849,8666,401,1,0,9,1.187013645273504
undo,33,6,0,0,0,0,[0],1,29,"[1, 2, 3, 4, 5, 6, 7, 8, 9, 10, 11, 12, 13, 14, 15, 16, 17, 18, 19, 20, 21, 22, 23, 24, 25, 26, 27, 28, 29]",300,116,-1,180,4304,10,0.0
undo,33,6,0,0,0,3,"[0, 3]",2,28,"[1, 2, 4, 5, 6, 7, 8, 9, 10, 11, 12, 13, 14, 15, 16, 17, 18, 19, 20, 21, 22, 23, 24, 25, 26, 27, 28, 29]",266.4738908,2723,2607,90,1607,10,1.0
undo,33,6,0,0,0,16,"[0, 3, 16]",3,27,"[1, 2, 4, 5, 6, 7, 8, 9, 10, 11, 12, 13, 14, 15, 17, 18, 19, 20, 21, 22, 23, 24, 25, 26, 27, 28, 29]",220.2353787,3506,783,16,190,10,1.1050742161728249
undo,33,6,0,0,0,18,"[0, 3, 16, 18]",4,24,"[1, 2, 4, 5, 6, 7, 8, 9, 10, 11, 12, 13, 14, 15, 17, 19, 20, 21, 22, 23, 24, 26, 27, 29]",196.8901436,4290,784,10,97,10,1.6930577237270534
undo,33,6,0,0,0,17,"[0, 3, 16, 18, 17]",5,20,"[1, 2, 4, 5, 6, 7, 8, 9, 10, 11, 13, 14, 20, 21, 22, 23, 24, 26, 27, 29]",182.9617553,4952,662,8,58,10,1.6583245453234965
undo,33,6,0,0,0,10,"[0, 3, 16, 18, 17, 10]",6,17,"[1, 2, 4, 5, 6, 7, 8, 11, 13, 14, 21, 22, 23, 24, 26, 27, 29]",163.2386724,5600,648,6,33,10,1.6214605156931816
undo,33,6,0,0,0,24,"[0, 3, 16, 18, 17, 10, 24]",7,15,"[1, 2, 4, 5, 6, 7, 8, 11, 13, 14, 22, 23, 26, 27, 29]",149.8222646,6156,556,6,18,10,1.5435556829623227
undo,33,6,0,0,0,23,"[0, 3, 16, 18, 17, 10, 24, 23]",8,6,"[6, 11, 14, 22, 27, 29]",88.6340304,6981,825,3,4,10,1.5749914836315253
undo,33,6,0,0,0,6,"[0, 3, 16, 18, 17, 10, 24, 23, 6]",9,1,[27],53.27869134,8610,1629,1,0,10,1.5318691641141804
undo,33,6,0,0,1,27,"[0, 3, 16, 18, 17, 10, 24, 23, 6, 27]",10,0,[],7.267823056,10212,1602,1,0,10,1.5573284076011698
undo,33,6,1,0,0,6,"[0, 3, 16, 18, 17, 10, 24, 23, 6]",9,1,[27],53.27869134,11132,920,1,0,10,1.5318691641141804
undo,33,6,0,1,0,6,"[0, 3, 16, 18, 17, 10, 24, 23, 6]",9,1,[27],53.27869134,11615,483,1,0,10,1.5318691641141804
undo,34,34,0,0,0,0,[0],1,25,"[1, 3, 4, 5, 6, 7, 8, 9, 10, 11, 12, 13, 15, 18, 19, 20, 21, 22, 23, 24, 25, 26, 27, 28, 29]",300,116,-1,12,367,10,0.0
undo,34,34,0,0,0,13,"[0, 13]",2,24,"[1, 3, 4, 5, 6, 7, 8, 9, 10, 11, 12, 15, 18, 19, 20, 21, 22, 23, 24, 25, 26, 27, 28, 29]",279.9750156,1730,1614,12,331,10,1.0
undo,34,34,0,0,0,1,"[0, 13, 1]",3,16,"[3, 5, 7, 8, 9, 10, 11, 12, 19, 21, 22, 23, 24, 25, 27, 29]",211.8574701,2546,816,3,92,10,1.0010381285747127
undo,34,34,0,0,0,8,"[0, 13, 1, 8]",4,14,"[3, 5, 7, 9, 10, 11, 12, 19, 22, 23, 24, 25, 27, 29]",201.0871405,3104,558,2,54,10,1.1636807
undo,34,34,0,0,0,25,"[0, 13, 1, 8, 25]",5,12,"[3, 5, 7, 9, 10, 11, 12, 22, 23, 24, 27, 29]",183.999133,4242,1138,2,28,10,1.1396208815936457
undo,34,34,0,0,0,24,"[0, 13, 1, 8, 25, 24]",6,11,"[3, 5, 7, 9, 10, 11, 12, 22, 23, 27, 29]",166.5062774,4913,671,2,23,10,1.374180768736554
undo,34,34,0,0,0,12,"[0, 13, 1, 8, 25, 24, 12]",7,7,"[7, 9, 10, 11, 22, 23, 27]",115.4670767,5672,759,1,8,10,1.4994254760835948
undo,34,34,0,0,0,7,"[0, 13, 1, 8, 25, 24, 12, 7]",8,5,"[9, 11, 22, 23, 27]",100.4337804,7207,1535,1,4,10,1.758992610425009
undo,34,34,0,0,0,23,"[0, 13, 1, 8, 25, 24, 12, 7, 23]",9,1,[27],72.27352467,7991,784,1,0,10,2.399781305190153
undo,34,34,0,0,1,27,"[0, 13, 1, 8, 25, 24, 12, 7, 23, 27]",10,0,[],18.60789321,8905,914,1,0,10,4.766619878750327
undo,34,34,1,0,0,23,"[0, 13, 1, 8, 25, 24, 12, 7, 23]",9,1,[27],72.27352467,9616,711,1,0,10,2.399781305190153
undo,34,34,0,1,0,23,"[0, 13, 1, 8, 25, 24, 12, 7, 23]",9,1,[27],72.27352467,10183,567,1,0,10,2.399781305190153
undo,35,9,0,0,0,0,[0],1,27,"[1, 3, 4, 5, 6, 7, 8, 9, 10, 11, 13, 14, 15, 16, 17, 18, 19, 20, 21, 22, 23, 24, 25, 26, 27, 28, 29]",300,115,-1,2,182,10,0.0
undo,35,9,0,0,0,9,"[0, 9]",2,26,"[1, 3, 4, 5, 6, 7, 8, 10, 11, 13, 14, 15, 16, 17, 18, 19, 20, 21, 22, 23, 24, 25, 26, 27, 28, 29]",225.5352432,2688,2573,2,101,9,1.0
undo,35,9,0,0,0,23,"[0, 9, 23]",3,22,"[1, 3, 4, 5, 7, 8, 10, 11, 13, 15, 16, 17, 18, 19, 20, 21, 22, 24, 25, 26, 27, 28]",203.1745635,4418,1730,2,70,9,1.6262276606762436
undo,35,9,0,0,0,8,"[0, 9, 23, 8]",4,18,"[3, 4, 5, 7, 10, 11, 15, 16, 17, 18, 19, 20, 21, 22, 25, 26, 27, 28]",181.7036529,5031,613,1,36,9,1.8547307061753238
undo,35,9,0,0,0,28,"[0, 9, 23, 8, 28]",5,17,"[3, 4, 5, 7, 10, 11, 15, 16, 17, 18, 19, 20, 21, 22, 25, 26, 27]",170.8869991,5605,574,1,23,9,1.7382749966569708
undo,35,9,0,0,0,21,"[0, 9, 23, 8, 28, 21]",6,8,"[10, 16, 17, 18, 20, 22, 25, 26]",117.8869991,6679,1074,7,5,8,1.5363946588735553
undo,35,9,0,0,0,20,"[0, 9, 23, 8, 28, 21, 20]",7,5,"[10, 16, 17, 22, 26]",105.8039531,7252,573,5,0,8,1.5333390745950446
undo,35,9,0,0,1,22,"[0, 9, 23, 8, 28, 21, 20, 22]",8,0,[],29.74476563,8836,1584,1,0,8,2.2739446324527752
undo,35,9,1,0,0,20,"[0, 9, 23, 8, 28, 21, 20]",7,5,"[10, 16, 17, 22, 26]",105.8039531,9565,729,5,0,8,1.5333390745950446
undo,35,9,0,1,0,20,"[0, 9, 23, 8, 28, 21, 20]",7,5,"[10, 16, 17, 22, 26]",105.8039531,9916,351,5,0,8,1.5333390745950446
undo,36,22,0,0,0,0,[0],1,29,"[1, 2, 3, 4, 5, 6, 7, 8, 9, 10, 11, 12, 13, 14, 15, 16, 17, 18, 19, 20, 21, 22, 23, 24, 25, 26, 27, 28, 29]",300,116,-1,31,704,9,0.0
undo,36,22,0,0,0,6,"[0, 6]",2,19,"[1, 3, 7, 8, 9, 11, 13, 14, 15, 16, 17, 19, 20, 21, 22, 24, 25, 28, 29]",211.3828459,3322,3206,1,73,9,1.0
undo,36,22,0,0,0,9,"[0, 6, 9]",3,17,"[1, 3, 7, 8, 13, 14, 15, 16, 17, 19, 20, 21, 22, 24, 25, 28, 29]",184.755792,4574,1252,1,39,9,1.2868618423088127
undo,36,22,0,0,0,19,"[0, 6, 9, 19]",4,16,"[1, 3, 7, 8, 13, 14, 15, 16, 17, 20, 21, 22, 24, 25, 28, 29]",164.3597139,5875,1301,1,29,9,1.7035075715300563
undo,36,22,0,0,0,29,"[0, 6, 9, 19, 29]",5,14,"[1, 3, 7, 8, 13, 14, 15, 16, 17, 20, 21, 24, 25, 28]",149.3264176,6448,573,1,21,9,1.9566347729231615
undo,36,22,0,0,0,14,"[0, 6, 9, 19, 29, 14]",6,4,"[7, 17, 24, 28]",91.07695404,7079,631,2,3,8,1.612788545319481
undo,36,22,0,0,0,7,"[0, 6, 9, 19, 29, 14, 7]",7,2,"[17, 24]",78.03854923,7620,541,2,0,8,1.7648812834687035
undo,36,22,0,0,1,17,"[0, 6, 9, 19, 29, 14, 7, 17]",8,0,[],36.42124514,8301,681,1,0,8,1.6679193361331097
undo,36,22,1,0,0,7,"[0, 6, 9, 19, 29, 14, 7]",7,2,"[17, 24]",78.03854923,9282,981,2,0,8,1.7648812834687035
undo,36,22,0,1,0,7,"[0, 6, 9, 19, 29, 14, 7]",7,2,"[17, 24]",78.03854923,9733,451,2,0,8,1.7648812834687035
undo,37,10,0,0,0,0,[0],1,29,"[1, 2, 3, 4, 5, 6, 7, 8, 9, 10, 11, 12, 13, 14, 15, 16, 17, 18, 19, 20, 21, 22, 23, 24, 25, 26, 27, 28, 29]",300,115,-1,1,100,9,0.0
undo,37,10,0,0,0,13,"[0, 13]",2,25,"[1, 2, 3, 4, 6, 7, 8, 9, 10, 11, 12, 14, 17, 18, 19, 20, 21, 22, 23, 24, 25, 26, 27, 28, 29]",249.4628849,2338,2223,1,79,9,1.0
undo,37,10,0,0,0,11,"[0, 13, 11]",3,20,"[1, 2, 3, 6, 7, 8, 9, 10, 12, 14, 18, 19, 20, 21, 22, 24, 26, 27, 28, 29]",206.4512586,2975,637,1,54,9,1.0313137484914219
undo,37,10,0,0,0,19,"[0, 13, 11, 19]",4,11,"[2, 6, 8, 9, 10, 14, 18, 20, 24, 26, 27]",170.0919407,4334,1359,1,22,9,1.0879446220132545
undo,37,10,0,0,0,2,"[0, 13, 11, 19, 2]",5,4,"[14, 20, 26, 27]",126.1829439,5092,758,1,4,9,1.06474052351343
undo,37,10,0,0,0,14,"[0, 13, 11, 19, 2, 14]",6,3,"[20, 26, 27]",114.0174188,5634,542,1,3,9,1.1628909195912238
undo,37,10,0,0,0,26,"[0, 13, 11, 19, 2, 14, 26]",7,2,"[20, 27]",79.34754716,6305,671,1,1,9,1.6660727647633602
undo,37,10,0,0,0,20,"[0, 13, 11, 19, 2, 14, 26, 20]",8,1,[27],47.56704999,8106,1801,1,0,9,2.085581809637999
undo,37,10,0,0,1,27,"[0, 13, 11, 19, 2, 14, 26, 20, 27]",9,0,[],2.312215998,9455,1349,1,0,9,1.9116357409137932
undo,37,10,1,0,0,20,"[0, 13, 11, 19, 2, 14, 26, 20]",8,1,[27],47.56704999,10082,627,1,0,9,2.085581809637999
undo,37,10,0,1,0,20,"[0, 13, 11, 19, 2, 14, 26, 20]",8,1,[27],47.56704999,10481,399,1,0,9,2.085581809637999
undo,38,0,0,0,0,0,[0],1,27,"[2, 3, 4, 5, 6, 7, 8, 9, 10, 11, 12, 13, 14, 15, 16, 17, 19, 20, 21, 22, 23, 24, 25, 26, 27, 28, 29]",300,131,-1,104,1136,9,0.0
undo,38,0,0,0,0,28,"[0, 28]",2,26,"[2, 3, 4, 5, 6, 7, 8, 9, 10, 11, 12, 13, 14, 15, 16, 17, 19, 20, 21, 22, 23, 24, 25, 26, 27, 29]",194.9190788,4361,4230,39,388,9,1.0
undo,38,0,0,0,0,5,"[0, 28, 5]",3,21,"[2, 3, 4, 7, 8, 9, 11, 12, 13, 14, 15, 16, 17, 19, 20, 21, 23, 24, 25, 26, 29]",151.2613189,5556,1195,27,210,9,1.0978295127671733
undo,38,0,0,0,0,4,"[0, 28, 5, 4]",4,16,"[3, 7, 8, 9, 11, 12, 13, 14, 15, 17, 19, 20, 21, 23, 24, 26]",126.1814465,6421,865,17,114,9,1.1103727063761901
undo,38,0,0,0,0,26,"[0, 28, 5, 4, 26]",5,14,"[3, 7, 8, 9, 11, 12, 13, 14, 15, 17, 19, 20, 23, 24]",114.1398519,7487,1066,7,54,9,1.1504454351688815
undo,38,0,0,0,0,24,"[0, 28, 5, 4, 26, 24]",6,11,"[3, 7, 8, 9, 11, 12, 15, 17, 19, 20, 23]",97.02260914,8126,639,7,22,9,1.2166555899566422
undo,38,0,0,0,0,15,"[0, 28, 5, 4, 26, 24, 15]",7,7,"[3, 7, 8, 9, 11, 12, 17]",73.67737408,8958,832,4,5,9,1.1972898774231708
undo,38,0,0,0,0,7,"[0, 28, 5, 4, 26, 24, 15, 7]",8,2,"[3, 8]",42.61292495,9855,897,2,0,9,1.2554869594545575
undo,38,0,0,0,1,8,"[0, 28, 5, 4, 26, 24, 15, 7, 8]",9,0,[],23.50795177,10817,962,1,0,9,1.2428648875079442
undo,38,0,1,0,0,7,"[0, 28, 5, 4, 26, 24, 15, 7]",8,2,"[3, 8]",42.61292495,11714,897,2,0,9,1.2554869594545575
undo,38,0,0,1,0,7,"[0, 28, 5, 4, 26, 24, 15, 7]",8,2,"[3, 8]",42.61292495,12115,401,2,0,9,1.2554869594545575
undo,39,19,0,0,0,0,[0],1,29,"[1, 2, 3, 4, 5, 6, 7, 8, 9, 10, 11, 12, 13, 14, 15, 16, 17, 18, 19, 20, 21, 22, 23, 24, 25, 26, 27, 28, 29]",300,115,-1,12,149,8,0.0
undo,39,19,0,0,0,9,"[0, 9]",2,21,"[1, 4, 5, 6, 7, 10, 11, 12, 13, 14, 15, 19, 20, 21, 22, 23, 24, 25, 27, 28, 29]",185.9956141,5445,5330,13,76,7,1.0
undo,39,19,0,0,0,6,"[0, 9, 6]",3,13,"[4, 7, 10, 11, 13, 14, 20, 21, 22, 24, 27, 28, 29]",144.5589154,6390,945,13,38,7,1.0111071984935167
undo,39,19,0,0,0,28,"[0, 9, 6, 28]",4,5,"[4, 11, 14, 22, 27]",93.47075631,8127,1737,2,4,7,1.2602621425624105
undo,39,19,0,0,0,4,"[0, 9, 6, 28, 4]",5,4,"[11, 14, 22, 27]",82.29041642,8952,825,2,2,7,1.3210056324457753
undo,39,19,0,0,0,14,"[0, 9, 6, 28, 4, 14]",6,1,[11],32.28041742,9880,928,1,0,7,1.2802078016419174
undo,39,19,0,0,1,11,"[0, 9, 6, 28, 4, 14, 11]",7,0,[],21.4637636,10608,728,1,0,7,1.2703725192277202
undo,39,19,1,0,0,14,"[0, 9, 6, 28, 4, 14]",6,1,[11],32.28041742,11466,858,1,0,7,1.2802078016419174
undo,39,19,0,1,0,14,"[0, 9, 6, 28, 4, 14]",6,1,[11],32.28041742,11966,500,1,0,7,1.2802078016419174
undo,40,5,0,0,0,0,[0],1,29,"[1, 2, 3, 4, 5, 6, 7, 8, 9, 10, 11, 12, 13, 14, 15, 16, 17, 18, 19, 20, 21, 22, 23, 24, 25, 26, 27, 28, 29]",300,114,-1,5,139,9,0.0
undo,40,5,0,0,0,23,"[0, 23]",2,27,"[1, 2, 3, 4, 5, 6, 7, 8, 9, 10, 11, 12, 13, 14, 15, 16, 17, 18, 19, 20, 21, 22, 24, 25, 26, 27, 28]",249.8402552,2508,2394,3,75,9,1.0
undo,40,5,0,0,0,25,"[0, 23, 25]",3,23,"[1, 2, 3, 4, 5, 6, 8, 9, 10, 12, 13, 14, 15, 16, 17, 18, 19, 21, 22, 24, 26, 27, 28]",231.4011663,3987,1479,3,43,9,1.0923159590575564
undo,40,5,0,0,0,24,"[0, 23, 25, 24]",4,21,"[2, 3, 4, 5, 6, 8, 9, 10, 12, 13, 14, 15, 16, 17, 18, 19, 21, 22, 26, 27, 28]",206.5616816,4552,565,3,25,9,1.2901858295679272
undo,40,5,0,0,0,17,"[0, 23, 25, 24, 17]",5,13,"[4, 5, 6, 8, 12, 13, 14, 15, 18, 19, 22, 26, 27]",171.5759702,5158,606,3,14,9,1.2027484907982513
undo,40,5,0,0,0,5,"[0, 23, 25, 24, 17, 5]",6,7,"[4, 6, 8, 12, 15, 18, 19]",128.5294837,5853,695,3,4,9,1.1472230681682432
undo,40,5,0,0,0,4,"[0, 23, 25, 24, 17, 5, 4]",7,2,"[6, 18]",62.7267482,8334,2481,1,1,9,1.354057663440583
undo,40,5,0,0,0,6,"[0, 23, 25, 24, 17, 5, 4, 6]",8,1,[18],50.68515362,8980,646,1,0,9,1.492903271736527
undo,40,5,0,0,1,18,"[0, 23, 25, 24, 17, 5, 4, 6, 18]",9,0,[],0.237160597,16938,7958,1,0,9,1.4782254648560558
undo,40,5,1,0,0,6,"[0, 23, 25, 24, 17, 5, 4, 6]",8,1,[18],50.68515362,18464,1526,1,0,9,1.492903271736527
undo,40,5,0,1,0,6,"[0, 23, 25, 24, 17, 5, 4, 6]",8,1,[18],50.68515362,19848,1384,1,0,9,1.492903271736527
undo,41,43,0,0,0,0,[0],1,23,"[1, 2, 3, 4, 5, 6, 7, 9, 10, 11, 12, 14, 15, 16, 17, 19, 20, 21, 22, 23, 25, 27, 29]",300,115,-1,16,556,12,0.0
undo,41,43,0,0,0,29,"[0, 29]",2,22,"[1, 2, 3, 4, 5, 6, 7, 9, 10, 11, 12, 14, 15, 16, 17, 19, 20, 21, 22, 23, 25, 27]",277.909278,1813,1698,16,520,12,1.0
undo,41,43,0,0,0,20,"[0, 29, 20]",3,20,"[1, 2, 3, 4, 6, 7, 9, 10, 11, 12, 14, 15, 16, 17, 19, 21, 22, 23, 25, 27]",254.4785289,2534,721,15,422,12,1.082311746871282
undo,41,43,0,0,0,16,"[0, 29, 20, 16]",4,19,"[1, 2, 3, 4, 6, 7, 9, 10, 11, 12, 14, 15, 17, 19, 21, 22, 23, 25, 27]",231.8511119,3275,741,15,389,12,1.215201926898219
undo,41,43,0,0,0,15,"[0, 29, 20, 16, 15]",5,14,"[1, 2, 3, 4, 6, 7, 9, 11, 12, 14, 19, 22, 23, 25]",188.5267539,5013,1738,3,109,12,1.3482474915350444
undo,41,43,0,0,0,25,"[0, 29, 20, 16, 15, 25]",6,12,"[1, 3, 4, 6, 7, 9, 11, 12, 14, 19, 22, 23]",165.8551858,5610,597,2,43,12,1.691408721191545
undo,41,43,0,0,0,12,"[0, 29, 20, 16, 15, 25, 12]",7,11,"[1, 3, 4, 6, 7, 9, 11, 14, 19, 22, 23]",141.6684126,6224,614,2,32,12,1.6015983641428178
undo,41,43,0,0,0,3,"[0, 29, 20, 16, 15, 25, 12, 3]",8,10,"[1, 4, 6, 7, 9, 11, 14, 19, 22, 23]",128.6684126,6847,623,2,24,12,1.5379830456120627
undo,41,43,0,0,0,22,"[0, 29, 20, 16, 15, 25, 12, 3, 22]",9,6,"[1, 6, 7, 11, 14, 19]",93.95530264,7760,913,1,11,12,1.7275686117408873
undo,41,43,0,0,0,19,"[0, 29, 20, 16, 15, 25, 12, 3, 22, 19]",10,4,"[1, 6, 7, 11]",73.33977451,8939,1179,1,3,12,1.6315360037595275
undo,41,43,0,0,0,1,"[0, 29, 20, 16, 15, 25, 12, 3, 22, 19, 1]",11,1,[7],45.1617689,10151,1212,1,0,12,1.7703076545303877
undo,41,43,0,0,1,7,"[0, 29, 20, 16, 15, 25, 12, 3, 22, 19, 1, 7]",12,0,[],6.951822553,13068,2917,1,0,12,1.6607094905815594
undo,41,43,1,0,0,1,"[0, 29, 20, 16, 15, 25, 12, 3, 22, 19, 1]",11,1,[7],45.1617689,13898,830,1,0,12,1.7703076545303877
undo,41,43,0,1,0,1,"[0, 29, 20, 16, 15, 25, 12, 3, 22, 19, 1]",11,1,[7],45.1617689,14565,667,1,0,12,1.7703076545303877
undo,42,12,0,0,0,0,[0],1,29,"[1, 2, 3, 4, 5, 6, 7, 8, 9, 10, 11, 12, 13, 14, 15, 16, 17, 18, 19, 20, 21, 22, 23, 24, 25, 26, 27, 28, 29]",300,131,-1,2,32,9,0.0
undo,42,12,0,0,0,22,"[0, 22]",2,22,"[2, 4, 5, 6, 7, 9, 10, 12, 13, 14, 15, 16, 17, 18, 19, 21, 23, 24, 25, 27, 28, 29]",211.9943184,3245,3114,6,42,8,1.0
undo,42,12,0,0,0,16,"[0, 22, 16]",3,12,"[2, 4, 5, 6, 7, 12, 14, 19, 23, 24, 25, 27]",190.9943184,4401,1156,6,24,8,1.2017164145167045
undo,42,12,0,0,0,4,"[0, 22, 16, 4]",4,9,"[2, 6, 7, 12, 14, 19, 24, 25, 27]",156.7890556,5234,833,6,14,8,1.146531713305579
undo,42,12,0,0,0,12,"[0, 22, 16, 4, 12]",5,4,"[14, 19, 24, 27]",114.5990094,5935,701,4,3,8,1.1221389456954312
undo,42,12,0,0,0,27,"[0, 22, 16, 4, 12, 27]",6,3,"[14, 19, 24]",90.24741807,6622,687,2,1,8,1.2262878338287035
undo,42,12,0,0,0,14,"[0, 22, 16, 4, 12, 27, 14]",7,1,[24],61.59432051,7228,606,1,0,8,1.2804562106751427
undo,42,12,0,0,1,24,"[0, 22, 16, 4, 12, 27, 14, 24]",8,0,[],44.38966997,7834,606,1,0,8,1.4322660007679802
undo,42,12,1,0,0,14,"[0, 22, 16, 4, 12, 27, 14]",7,1,[24],61.59432051,8632,798,1,0,8,1.2804562106751427
undo,42,12,0,1,0,14,"[0, 22, 16, 4, 12, 27, 14]",7,1,[24],61.59432051,9064,432,1,0,8,1.2804562106751427
undo,43,25,0,0,0,0,[0],1,28,"[1, 2, 3, 4, 5, 7, 8, 9, 10, 11, 12, 13, 14, 15, 16, 17, 18, 19, 20, 21, 22, 23, 24, 25, 26, 27, 28, 29]",300,132,-1,5,94,10,0.0
undo,43,25,0,0,0,23,"[0, 23]",2,23,"[1, 2, 3, 5, 7, 8, 9, 11, 12, 13, 14, 16, 17, 19, 20, 21, 22, 24, 25, 26, 27, 28, 29]",259.7756293,1434,1302,3,33,10,1.0
undo,43,25,0,0,0,19,"[0, 23, 19]",3,21,"[1, 2, 3, 5, 7, 8, 9, 11, 12, 13, 14, 16, 17, 20, 21, 22, 24, 25, 27, 28, 29]",223.9287326,2056,622,3,24,10,1.583101227007039
undo,43,25,0,0,0,29,"[0, 23, 19, 29]",4,19,"[1, 2, 3, 5, 7, 8, 9, 11, 12, 13, 14, 16, 17, 20, 21, 22, 24, 25, 28]",207.649912,3179,1123,3,17,10,1.474631541426484
undo,43,25,0,0,0,22,"[0, 23, 19, 29, 22]",5,18,"[1, 2, 3, 5, 7, 8, 9, 11, 12, 13, 14, 16, 17, 20, 21, 24, 25, 28]",191.5253965,3736,557,3,14,10,1.4020377754906637
undo,43,25,0,0,0,7,"[0, 23, 19, 29, 22, 7]",6,7,"[3, 8, 9, 11, 13, 24, 28]",115.8814939,4973,1237,3,11,10,1.5709678649326715
undo,43,25,0,0,0,24,"[0, 23, 19, 29, 22, 7, 24]",7,5,"[3, 8, 9, 13, 28]",91.12265712,5708,735,3,7,10,1.486191600033379
undo,43,25,0,0,0,9,"[0, 23, 19, 29, 22, 7, 24, 9]",8,4,"[3, 8, 13, 28]",73.09490075,6338,630,3,3,10,1.453504870342882
undo,43,25,0,0,0,3,"[0, 23, 19, 29, 22, 7, 24, 9, 3]",9,3,"[8, 13, 28]",42.82940885,7808,1470,3,0,10,1.388955167525479
undo,43,25,0,0,1,13,"[0, 23, 19, 29, 22, 7, 24, 9, 3, 13]",10,0,[],11.58841014,8707,899,1,0,10,1.4309045890044414
undo,43,25,1,0,0,3,"[0, 23, 19, 29, 22, 7, 24, 9, 3]",9,3,"[8, 13, 28]",42.82940885,9448,741,3,0,10,1.388955167525479
undo,43,25,0,1,0,3,"[0, 23, 19, 29, 22, 7, 24, 9, 3]",9,3,"[8, 13, 28]",42.82940885,9832,384,3,0,10,1.388955167525479
undo,44,1,0,0,0,0,[0],1,26,"[1, 2, 4, 5, 7, 8, 9, 10, 11, 12, 13, 14, 15, 16, 17, 18, 19, 20, 21, 22, 23, 24, 25, 26, 28, 29]",300,132,-1,6,74,7,0.0
undo,44,1,0,0,0,14,"[0, 14]",2,19,"[1, 4, 5, 8, 9, 13, 15, 17, 18, 19, 20, 21, 22, 23, 24, 25, 26, 28, 29]",200.1901808,2362,2230,5,42,7,1.0
undo,44,1,0,0,0,17,"[0, 14, 17]",3,15,"[1, 4, 5, 8, 9, 13, 15, 18, 19, 20, 22, 23, 25, 28, 29]",147.8356204,3105,743,5,27,7,1.0028844724416826
undo,44,1,0,0,0,1,"[0, 14, 17, 1]",4,12,"[4, 5, 8, 9, 15, 18, 20, 22, 23, 25, 28, 29]",123.4840291,3792,687,5,15,7,1.0264985578353567
undo,44,1,0,0,0,28,"[0, 14, 17, 1, 28]",5,5,"[9, 15, 22, 23, 29]",88.59850198,4471,679,5,3,7,1.0339861575999345
undo,44,1,0,0,0,23,"[0, 14, 17, 1, 28, 23]",6,2,"[15, 22]",51.70676849,5167,696,2,0,7,1.0327458250705703
undo,44,1,0,0,1,15,"[0, 14, 17, 1, 28, 23, 15]",7,0,[],20.81987807,5804,637,1,0,7,1.1948681641401226
undo,44,1,1,0,0,23,"[0, 14, 17, 1, 28, 23]",6,2,"[15, 22]",51.70676849,6898,1094,2,0,7,1.0327458250705703
undo,44,1,0,1,0,23,"[0, 14, 17, 1, 28, 23]",6,2,"[15, 22]",51.70676849,7248,350,2,0,7,1.0327458250705703
undo,45,14,0,0,0,0,[0],1,29,"[1, 2, 3, 4, 5, 6, 7, 8, 9, 10, 11, 12, 13, 14, 15, 16, 17, 18, 19, 20, 21, 22, 23, 24, 25, 26, 27, 28, 29]",300,115,-1,8,157,10,0.0
undo,45,14,0,0,0,18,"[0, 18]",2,17,"[1, 2, 3, 4, 7, 8, 9, 13, 15, 17, 19, 20, 22, 23, 25, 26, 28]",179.8958785,2279,2164,18,136,9,1.0
undo,45,14,0,0,0,8,"[0, 18, 8]",3,13,"[1, 2, 4, 7, 13, 15, 17, 19, 20, 23, 25, 26, 28]",166.294408,2965,686,18,99,9,1.0203858410107731
undo,45,14,0,0,0,1,"[0, 18, 8, 1]",4,10,"[2, 4, 7, 15, 17, 19, 23, 25, 26, 28]",142.6935606,4251,1286,11,42,9,1.0173392374431458
undo,45,14,0,0,0,19,"[0, 18, 8, 1, 19]",5,9,"[2, 4, 7, 15, 17, 23, 25, 26, 28]",127.4620143,5559,1308,11,22,9,1.1668364376922102
undo,45,14,0,0,0,25,"[0, 18, 8, 1, 19, 25]",6,5,"[2, 4, 7, 23, 26]",91.61511768,6464,905,5,7,9,1.273103293863789
undo,45,14,0,0,0,23,"[0, 18, 8, 1, 19, 25, 23]",7,3,"[4, 7, 26]",62.20423534,7668,1204,2,2,9,1.2650679654635444
undo,45,14,0,0,0,26,"[0, 18, 8, 1, 19, 25, 23, 26]",8,2,"[4, 7]",51.38758152,8395,727,2,0,9,1.2530957004441798
undo,45,14,0,0,1,7,"[0, 18, 8, 1, 19, 25, 23, 26, 7]",9,0,[],6.287692383,9107,712,1,0,9,1.6817917810897667
undo,45,14,1,0,0,26,"[0, 18, 8, 1, 19, 25, 23, 26]",8,2,"[4, 7]",51.38758152,9748,641,2,0,9,1.2530957004441798
undo,45,14,0,1,0,26,"[0, 18, 8, 1, 19, 25, 23, 26]",8,2,"[4, 7]",51.38758152,10199,451,2,0,9,1.2530957004441798
undo,46,33,0,0,0,0,[0],1,23,"[1, 2, 5, 7, 8, 11, 12, 13, 14, 15, 16, 17, 18, 19, 20, 21, 23, 24, 25, 26, 27, 28, 29]",300,116,-1,5,108,9,0.0
undo,46,33,0,0,0,21,"[0, 21]",2,17,"[2, 5, 7, 8, 11, 13, 14, 16, 17, 18, 19, 20, 24, 26, 27, 28, 29]",174.4611614,4223,4107,21,129,8,1.0
undo,46,33,0,0,0,13,"[0, 21, 13]",3,15,"[2, 5, 7, 8, 11, 14, 16, 17, 18, 19, 20, 24, 26, 28, 29]",148.0604038,5668,1445,17,72,8,1.0001005298764474
undo,46,33,0,0,0,19,"[0, 21, 13, 19]",4,11,"[7, 11, 14, 16, 17, 18, 20, 24, 26, 28, 29]",122.5653063,6420,752,10,27,8,1.0588446738393702
undo,46,33,0,0,0,7,"[0, 21, 13, 19, 7]",5,7,"[14, 16, 17, 18, 24, 26, 29]",76.94732734,7915,1495,3,5,8,1.0466997412739754
undo,46,33,0,0,0,14,"[0, 21, 13, 19, 7, 14]",6,3,"[24, 26, 29]",62.0812586,8536,621,2,1,8,1.096679239566485
undo,46,33,0,0,0,26,"[0, 21, 13, 19, 7, 14, 26]",7,1,[29],49.43214796,9078,542,1,0,8,1.1075261679429118
undo,46,33,0,0,1,29,"[0, 21, 13, 19, 7, 14, 26, 29]",8,0,[],21.53949659,9902,824,1,0,8,1.3238278222819673
undo,46,33,1,0,0,26,"[0, 21, 13, 19, 7, 14, 26]",7,1,[29],49.43214796,10932,1030,1,0,8,1.1075261679429118
undo,46,33,0,1,0,26,"[0, 21, 13, 19, 7, 14, 26]",7,1,[29],49.43214796,11450,518,1,0,8,1.1075261679429118
undo,47,23,0,0,0,0,[0],1,28,"[1, 2, 3, 4, 5, 6, 7, 8, 9, 10, 11, 12, 13, 14, 15, 16, 17, 18, 19, 20, 21, 22, 23, 25, 26, 27, 28, 29]",300,115,-1,76,2626,10,0.0
undo,47,23,0,0,0,13,"[0, 13]",2,19,"[1, 2, 3, 5, 6, 7, 8, 9, 10, 12, 14, 17, 18, 19, 21, 22, 23, 27, 29]",189.3202819,3874,3759,9,168,10,1.0
undo,47,23,0,0,0,12,"[0, 13, 12]",3,16,"[1, 2, 3, 6, 7, 8, 9, 10, 14, 17, 18, 21, 22, 23, 27, 29]",177.2372359,5530,1656,9,96,10,1.0014195490503164
undo,47,23,0,0,0,6,"[0, 13, 12, 6]",4,9,"[2, 7, 9, 10, 14, 18, 22, 27, 29]",147.5555918,7018,1488,2,17,10,1.0146513975411646
undo,47,23,0,0,0,2,"[0, 13, 12, 6, 2]",5,8,"[7, 9, 10, 14, 18, 22, 27, 29]",129.1165028,7679,661,2,8,10,1.252271865214601
undo,47,23,0,0,0,9,"[0, 13, 12, 6, 2, 9]",6,7,"[7, 10, 14, 18, 22, 27, 29]",116.078098,8301,622,1,4,10,1.4077625583396691
undo,47,23,0,0,0,14,"[0, 13, 12, 6, 2, 9, 14]",7,5,"[7, 10, 22, 27, 29]",105.6377915,9184,883,1,3,10,1.3795313352500915
undo,47,23,0,0,0,29,"[0, 13, 12, 6, 2, 9, 14, 29]",8,2,"[7, 10]",58.20362662,10037,853,1,1,10,1.5679920543199335
undo,47,23,0,0,0,7,"[0, 13, 12, 6, 2, 9, 14, 29, 7]",9,1,[10],34.12043747,11056,1019,1,0,10,1.5808251397817217
undo,47,23,0,0,1,10,"[0, 13, 12, 6, 2, 9, 14, 29, 7, 10]",10,0,[],6.661377032,12026,970,1,0,10,1.5347739273486019
undo,47,23,1,0,0,7,"[0, 13, 12, 6, 2, 9, 14, 29, 7]",9,1,[10],34.12043747,12882,856,1,0,10,1.5808251397817217
undo,47,23,0,1,0,7,"[0, 13, 12, 6, 2, 9, 14, 29, 7]",9,1,[10],34.12043747,13299,417,1,0,10,1.5808251397817217
undo,48,40,0,0,0,0,[0],1,29,"[1, 2, 3, 4, 5, 6, 7, 8, 9, 10, 11, 12, 13, 14, 15, 16, 17, 18, 19, 20, 21, 22, 23, 24, 25, 26, 27, 28, 29]",300,133,-1,8,191,9,0.0
undo,48,40,0,0,0,1,"[0, 1]",2,18,"[2, 5, 6, 7, 8, 9, 10, 11, 13, 15, 17, 18, 19, 21, 22, 23, 27, 29]",247.8463808,1951,1818,4,80,9,1.0
undo,48,40,0,0,0,6,"[0, 1, 6]",3,17,"[2, 5, 7, 8, 9, 10, 11, 13, 15, 17, 18, 19, 21, 22, 23, 27, 29]",227.7466295,3502,1551,4,74,9,1.0459427008232034
undo,48,40,0,0,0,9,"[0, 1, 6, 9]",4,10,"[2, 5, 8, 11, 18, 19, 21, 22, 23, 27]",159.146338,4365,863,17,39,8,1.142098432552584
undo,48,40,0,0,0,18,"[0, 1, 6, 9, 18]",5,9,"[2, 5, 8, 11, 19, 21, 22, 23, 27]",142.5933926,6143,1778,13,14,8,1.3288108654802917
undo,48,40,0,0,0,5,"[0, 1, 6, 9, 18, 5]",6,7,"[2, 8, 19, 21, 22, 23, 27]",111.0180858,6991,848,5,5,8,1.5366414787972102
undo,48,40,0,0,0,23,"[0, 1, 6, 9, 18, 5, 23]",7,3,"[2, 19, 21]",82.71614241,7670,679,3,0,8,2.2908821040631264
undo,48,40,0,0,1,19,"[0, 1, 6, 9, 18, 5, 23, 19]",8,0,[],50.76305179,9173,1503,1,0,8,2.4294131203959415
undo,48,40,1,0,0,23,"[0, 1, 6, 9, 18, 5, 23]",7,3,"[2, 19, 21]",82.71614241,9883,710,3,0,8,2.2908821040631264
undo,48,40,0,1,0,23,"[0, 1, 6, 9, 18, 5, 23]",7,3,"[2, 19, 21]",82.71614241,10199,316,3,0,8,2.2908821040631264
undo,49,31,0,0,0,0,[0],1,27,"[1, 3, 4, 5, 6, 7, 8, 10, 11, 12, 13, 14, 15, 16, 17, 18, 19, 20, 21, 22, 23, 24, 25, 26, 27, 28, 29]",300,131,-1,2,87,10,0.0
undo,49,31,0,0,0,14,"[0, 14]",2,25,"[1, 3, 5, 6, 7, 8, 10, 11, 12, 13, 15, 16, 17, 18, 19, 20, 21, 22, 23, 24, 25, 26, 27, 28, 29]",263.861378,2469,2338,2,59,10,1.0
undo,49,31,0,0,0,27,"[0, 14, 27]",3,22,"[1, 3, 5, 6, 7, 8, 10, 11, 12, 13, 15, 16, 17, 18, 19, 20, 21, 22, 24, 25, 28, 29]",235.6833724,3770,1301,1,39,10,1.5881859159302467
undo,49,31,0,0,0,8,"[0, 14, 27, 8]",4,20,"[1, 3, 5, 6, 7, 10, 11, 12, 13, 16, 17, 18, 19, 20, 21, 22, 24, 25, 28, 29]",224.6380114,4513,743,1,36,10,2.1665048452331277
undo,49,31,0,0,0,18,"[0, 14, 27, 8, 18]",5,15,"[1, 5, 6, 7, 11, 12, 13, 16, 17, 19, 20, 22, 25, 28, 29]",188.7911147,5467,954,1,26,10,1.7273375741920205
undo,49,31,0,0,0,11,"[0, 14, 27, 8, 18, 11]",6,11,"[1, 5, 7, 12, 16, 17, 19, 20, 22, 25, 28]",153.9055876,6517,1050,13,17,9,2.386348208737804
undo,49,31,0,0,0,5,"[0, 14, 27, 8, 18, 11, 5]",7,5,"[16, 17, 20, 25, 28]",110.2249283,7172,655,3,3,9,2.163249612867222
undo,49,31,0,0,0,28,"[0, 14, 27, 8, 18, 11, 5, 28]",8,2,"[16, 17]",90.00117988,7737,565,2,0,9,1.9564635733184719
undo,49,31,0,0,1,16,"[0, 14, 27, 8, 18, 11, 5, 28, 16]",9,0,[],56.38570725,8408,671,1,0,9,1.824071502589619
undo,49,31,1,0,0,28,"[0, 14, 27, 8, 18, 11, 5, 28]",8,2,"[16, 17]",90.00117988,9048,640,2,0,9,1.9564635733184719
undo,49,31,0,1,0,28,"[0, 14, 27, 8, 18, 11, 5, 28]",8,2,"[16, 17]",90.00117988,9447,399,2,0,9,1.9564635733184719
undo,50,42,0,0,0,0,[0],1,29,"[1, 2, 3, 4, 5, 6, 7, 8, 9, 10, 11, 12, 13, 14, 15, 16, 17, 18, 19, 20, 21, 22, 23, 24, 25, 26, 27, 28, 29]",300,115,-1,16,302,9,0.0
undo,50,42,0,0,0,5,"[0, 5]",2,28,"[1, 2, 3, 4, 6, 7, 8, 9, 10, 11, 12, 13, 14, 15, 16, 17, 18, 19, 20, 21, 22, 23, 24, 25, 26, 27, 28, 29]",191.2939744,2731,2616,1,22,9,1.0
undo,50,42,0,0,0,4,"[0, 5, 4]",3,23,"[1, 2, 3, 6, 7, 8, 9, 10, 11, 13, 15, 17, 18, 19, 20, 21, 22, 23, 24, 25, 26, 27, 29]",171.4445412,3539,808,1,14,9,1.420957801478707
undo,50,42,0,0,0,22,"[0, 5, 4, 22]",4,20,"[1, 2, 3, 6, 7, 8, 9, 11, 15, 17, 18, 19, 20, 21, 23, 24, 25, 26, 27, 29]",160.2642013,4284,745,1,11,9,1.5771494659680896
undo,50,42,0,0,0,8,"[0, 5, 4, 22, 8]",5,14,"[1, 2, 3, 6, 7, 11, 15, 18, 19, 24, 25, 26, 27, 29]",138.1282577,4944,660,1,10,9,1.5055393955524201
undo,50,42,0,0,0,1,"[0, 5, 4, 22, 8, 1]",6,5,"[2, 7, 19, 26, 27]",89.03650682,5631,687,1,7,9,1.3547259083637835
undo,50,42,0,0,0,27,"[0, 5, 4, 22, 8, 1, 27]",7,1,[26],30.82138851,6455,824,1,0,8,1.262358902428909
undo,50,42,0,0,1,26,"[0, 5, 4, 22, 8, 1, 27, 26]",8,0,[],12.79363213,7191,736,1,0,8,1.4505372114646464
undo,50,42,1,0,0,27,"[0, 5, 4, 22, 8, 1, 27]",7,1,[26],30.82138851,7832,641,1,0,8,1.262358902428909
undo,50,42,0,1,0,27,"[0, 5, 4, 22, 8, 1, 27]",7,1,[26],30.82138851,8215,383,1,0,8,1.262358902428909
undo,51,28,0,0,0,0,[0],1,27,"[1, 2, 3, 4, 5, 6, 7, 8, 9, 10, 11, 12, 13, 14, 15, 16, 17, 18, 19, 20, 22, 23, 25, 26, 27, 28, 29]",300,116,-1,2,96,9,0.0
undo,51,28,0,0,0,14,"[0, 14]",2,14,"[1, 2, 3, 5, 7, 10, 11, 12, 13, 17, 18, 19, 20, 26]",147.8914861,4217,4101,1,26,8,1.0
undo,51,28,0,0,0,18,"[0, 14, 18]",3,11,"[1, 2, 3, 5, 7, 11, 12, 13, 17, 19, 26]",122.3963885,4888,671,1,23,8,1.0675599824559303
undo,51,28,0,0,0,13,"[0, 14, 18, 13]",4,7,"[2, 7, 11, 12, 17, 19, 26]",97.9832773,5486,598,1,9,8,1.0602397944415018
undo,51,28,0,0,0,12,"[0, 14, 18, 13, 12]",5,4,"[2, 7, 17, 19]",80.77862677,6075,589,1,3,8,1.0640685934245377
undo,51,28,0,0,0,7,"[0, 14, 18, 13, 12, 7]",6,2,"[2, 19]",67.62568033,6640,565,1,1,8,1.186262804928269
undo,51,28,0,0,0,19,"[0, 14, 18, 13, 12, 7, 19]",7,1,[2],39.89483108,7489,849,1,0,8,1.424576333867947
undo,51,28,0,0,1,2,"[0, 14, 18, 13, 12, 7, 19, 2]",8,0,[],2.531747699,8192,703,1,0,8,1.4824387893309579
undo,51,28,1,0,0,19,"[0, 14, 18, 13, 12, 7, 19]",7,1,[2],39.89483108,9065,873,1,0,8,1.424576333867947
undo,51,28,0,1,0,19,"[0, 14, 18, 13, 12, 7, 19]",7,1,[2],39.89483108,9382,317,1,0,8,1.424576333867947
undo,52,7,0,0,0,0,[0],1,29,"[1, 2, 3, 4, 5, 6, 7, 8, 9, 10, 11, 12, 13, 14, 15, 16, 17, 18, 19, 20, 21, 22, 23, 24, 25, 26, 27, 28, 29]",300,132,-1,3,79,9,0.0
undo,52,7,0,0,0,4,"[0, 4]",2,13,"[2, 6, 7, 13, 14, 15, 16, 18, 19, 20, 21, 23, 25]",159.5720825,2776,2644,14,54,7,1.0
undo,52,7,0,0,0,25,"[0, 4, 25]",3,10,"[2, 6, 7, 13, 15, 16, 18, 19, 20, 23]",134.8334488,3970,1194,8,16,7,1.3949161217887336
undo,52,7,0,0,0,20,"[0, 4, 25, 20]",4,7,"[2, 6, 7, 13, 16, 18, 19]",103.0529516,4964,994,4,7,7,1.3137395916162553
undo,52,7,0,0,0,18,"[0, 4, 25, 20, 18]",5,5,"[2, 7, 13, 16, 19]",90.24670315,5571,607,3,3,7,1.4650520392721886
undo,52,7,0,0,0,7,"[0, 4, 25, 20, 18, 7]",6,1,[19],49.0156469,6322,751,1,0,7,1.3719704078030304
undo,52,7,0,0,1,19,"[0, 4, 25, 20, 18, 7, 19]",7,0,[],19.60476456,8147,1825,1,0,7,1.4822454262474534
undo,52,7,1,0,0,7,"[0, 4, 25, 20, 18, 7]",6,1,[19],49.0156469,8766,619,1,0,7,1.3719704078030304
undo,52,7,0,1,0,7,"[0, 4, 25, 20, 18, 7]",6,1,[19],49.0156469,9132,366,1,0,7,1.3719704078030304
undo,53,8,0,0,0,0,[0],1,29,"[1, 2, 3, 4, 5, 6, 7, 8, 9, 10, 11, 12, 13, 14, 15, 16, 17, 18, 19, 20, 21, 22, 23, 24, 25, 26, 27, 28, 29]",300,115,-1,10,149,9,0.0
undo,53,8,0,0,0,5,"[0, 5]",2,28,"[1, 2, 3, 4, 6, 7, 8, 9, 10, 11, 12, 13, 14, 15, 16, 17, 18, 19, 20, 21, 22, 23, 24, 25, 26, 27, 28, 29]",254.5137383,2351,2236,10,100,9,1.0
undo,53,8,0,0,0,14,"[0, 5, 14]",3,20,"[1, 2, 3, 4, 6, 7, 11, 15, 16, 17, 18, 19, 20, 21, 22, 23, 24, 25, 28, 29]",214.5512559,4297,1946,4,36,9,1.0001019035932595
undo,53,8,0,0,0,17,"[0, 5, 14, 17]",4,15,"[1, 4, 6, 7, 11, 15, 16, 18, 19, 20, 22, 23, 24, 25, 28]",177.5377449,4968,671,4,16,9,1.121197267659591
undo,53,8,0,0,0,11,"[0, 5, 14, 17, 11]",5,11,"[1, 4, 15, 16, 18, 19, 22, 23, 24, 25, 28]",152.3583883,5471,503,4,8,9,1.1277254166016362
undo,53,8,0,0,0,24,"[0, 5, 14, 17, 11, 24]",6,3,"[15, 16, 28]",115.1428001,6075,604,2,2,9,1.1227411011978805
undo,53,8,0,0,0,15,"[0, 5, 14, 17, 11, 24, 15]",7,2,"[16, 28]",98.37974552,6585,510,2,0,9,1.1956385406066814
undo,53,8,0,0,0,16,"[0, 5, 14, 17, 11, 24, 15, 16]",8,1,[28],47.30137436,7392,807,1,0,9,1.36482239111247
undo,53,8,0,0,1,28,"[0, 5, 14, 17, 11, 24, 15, 16, 28]",9,0,[],24.94069458,8201,809,1,0,9,1.632953105226947
undo,53,8,1,0,0,16,"[0, 5, 14, 17, 11, 24, 15, 16]",8,1,[28],47.30137436,8748,547,1,0,9,1.36482239111247
undo,53,8,0,1,0,16,"[0, 5, 14, 17, 11, 24, 15, 16]",8,1,[28],47.30137436,9098,350,1,0,9,1.36482239111247
undo,54,4,0,0,0,0,[0],1,26,"[3, 4, 5, 6, 7, 8, 10, 11, 12, 13, 14, 15, 16, 17, 18, 19, 20, 21, 22, 23, 24, 25, 26, 27, 28, 29]",300,132,-1,4,489,10,0.0
undo,54,4,0,0,0,14,"[0, 14]",2,15,"[3, 4, 5, 6, 11, 13, 16, 17, 20, 21, 22, 23, 24, 25, 28]",163.4386585,1904,1772,1,44,9,1.0
undo,54,4,0,0,0,3,"[0, 14, 3]",3,11,"[5, 6, 11, 13, 16, 17, 20, 21, 22, 25, 28]",122.0019598,2704,800,18,44,7,1.02055312243318
undo,54,4,0,0,0,17,"[0, 14, 3, 17]",4,8,"[5, 11, 16, 20, 21, 22, 25, 28]",97.48665842,3427,723,14,14,7,1.2354577218270315
undo,54,4,0,0,0,25,"[0, 14, 3, 17, 25]",5,3,"[11, 16, 28]",55.06025155,4092,665,2,1,7,1.931535709042958
undo,54,4,0,0,0,16,"[0, 14, 3, 17, 25, 16]",6,1,[11],33.51959232,5411,1319,1,0,7,1.933201195868428
undo,54,4,0,0,1,11,"[0, 14, 3, 17, 25, 16, 11]",7,0,[],18.51959232,6226,815,1,0,7,2.290806785484301
undo,54,4,1,0,0,16,"[0, 14, 3, 17, 25, 16]",6,1,[11],33.51959232,7099,873,1,0,7,1.933201195868428
undo,54,4,0,1,0,16,"[0, 14, 3, 17, 25, 16]",6,1,[11],33.51959232,7599,500,1,0,7,1.933201195868428
undo,55,27,0,0,0,0,[0],1,26,"[1, 3, 5, 6, 7, 8, 9, 10, 11, 12, 13, 14, 15, 16, 17, 18, 19, 21, 22, 23, 24, 25, 26, 27, 28, 29]",300,118,-1,13,578,11,0.0
undo,55,27,0,0,0,17,"[0, 17]",2,20,"[1, 6, 7, 8, 9, 10, 12, 13, 14, 15, 16, 18, 19, 21, 23, 24, 25, 26, 27, 29]",237.9677503,1922,1804,13,326,10,1.0
undo,55,27,0,0,0,10,"[0, 17, 10]",3,15,"[1, 6, 8, 12, 13, 14, 15, 18, 19, 23, 24, 25, 26, 27, 29]",221.5665309,2601,679,4,94,10,1.0398805550772057
undo,55,27,0,0,0,12,"[0, 17, 10, 12]",4,13,"[1, 8, 13, 14, 15, 18, 19, 23, 24, 25, 26, 27, 29]",210.5211698,3206,605,4,61,10,1.384484379254397
undo,55,27,0,0,0,24,"[0, 17, 10, 12, 24]",5,12,"[1, 8, 13, 14, 15, 18, 19, 23, 25, 26, 27, 29]",193.0569206,3902,696,4,40,10,2.262617287161564
undo,55,27,0,0,0,15,"[0, 17, 10, 12, 24, 15]",6,11,"[1, 8, 13, 14, 18, 19, 23, 25, 26, 27, 29]",175.8522701,4660,758,4,30,10,3.4248464107285423
undo,55,27,0,0,0,13,"[0, 17, 10, 12, 24, 15, 13]",7,6,"[1, 8, 14, 19, 23, 29]",113.5867098,7140,2480,2,7,10,1.8942053517582986
undo,55,27,0,0,0,19,"[0, 17, 10, 12, 24, 15, 13, 19]",8,4,"[8, 14, 23, 29]",77.35136794,8346,1206,2,3,10,1.7126817850769231
undo,55,27,0,0,0,8,"[0, 17, 10, 12, 24, 15, 13, 19, 8]",9,2,"[14, 29]",62.48529919,8942,596,2,0,10,1.7574406069748936
undo,55,27,0,0,1,14,"[0, 17, 10, 12, 24, 15, 13, 19, 8, 14]",10,0,[],4.926633468,10219,1277,1,0,10,1.6085607868367384
undo,55,27,1,0,0,8,"[0, 17, 10, 12, 24, 15, 13, 19, 8]",9,2,"[14, 29]",62.48529919,10731,512,2,0,10,1.7574406069748936
undo,55,27,0,1,0,8,"[0, 17, 10, 12, 24, 15, 13, 19, 8]",9,2,"[14, 29]",62.48529919,11364,633,2,0,10,1.7574406069748936
undo,56,35,0,0,0,0,[0],1,29,"[1, 2, 3, 4, 5, 6, 7, 8, 9, 10, 11, 12, 13, 14, 15, 16, 17, 18, 19, 20, 21, 22, 23, 24, 25, 26, 27, 28, 29]",300,132,-1,5,236,11,0.0
undo,56,35,0,0,0,27,"[0, 27]",2,27,"[1, 2, 4, 5, 6, 7, 8, 9, 10, 11, 12, 13, 14, 15, 16, 17, 18, 19, 20, 21, 22, 23, 24, 25, 26, 28, 29]",278.7867966,2988,2856,5,144,11,1.0
undo,56,35,0,0,0,24,"[0, 27, 24]",3,25,"[1, 2, 4, 5, 6, 7, 8, 9, 10, 11, 12, 13, 15, 16, 17, 18, 19, 20, 21, 22, 23, 25, 26, 28, 29]",234.6053525,3837,849,3,80,11,2.1084080567904624
undo,56,35,0,0,0,17,"[0, 27, 24, 17]",4,20,"[1, 2, 4, 5, 6, 7, 8, 9, 10, 15, 16, 18, 19, 20, 21, 23, 25, 26, 28, 29]",222.9006526,4580,743,3,50,11,1.9439555968916868
undo,56,35,0,0,0,1,"[0, 27, 24, 17, 1]",5,18,"[2, 4, 5, 6, 8, 9, 10, 15, 16, 18, 19, 20, 21, 23, 25, 26, 28, 29]",207.0892643,5234,654,3,39,11,1.9436711872547336
undo,56,35,0,0,0,15,"[0, 27, 24, 17, 1, 15]",6,16,"[2, 4, 5, 6, 8, 9, 10, 16, 18, 19, 20, 23, 25, 26, 28, 29]",184.241945,6309,1075,3,24,11,2.082774572108194
undo,56,35,0,0,0,23,"[0, 27, 24, 17, 1, 15, 23]",7,7,"[5, 6, 9, 18, 19, 25, 26]",123.801892,8280,1971,3,14,11,1.657239080954205
undo,56,35,0,0,0,9,"[0, 27, 24, 17, 1, 15, 23, 9]",8,4,"[6, 18, 19, 25]",86.15883157,11013,2733,2,2,11,1.9022575917054987
undo,56,35,0,0,0,18,"[0, 27, 24, 17, 1, 15, 23, 9, 18]",9,2,"[6, 25]",66.13384718,11697,684,2,0,11,1.8181129550839106
undo,56,35,0,0,0,6,"[0, 27, 24, 17, 1, 15, 23, 9, 18, 6]",10,1,[25],32.51837455,12708,1011,1,0,11,1.768804611828727
undo,56,35,0,0,1,25,"[0, 27, 24, 17, 1, 15, 23, 9, 18, 6, 25]",11,0,[],8.497550251,13346,638,1,0,11,1.8000495513746106
undo,56,35,1,0,0,6,"[0, 27, 24, 17, 1, 15, 23, 9, 18, 6]",10,1,[25],32.51837455,14366,1020,1,0,11,1.768804611828727
undo,56,35,0,1,0,6,"[0, 27, 24, 17, 1, 15, 23, 9, 18, 6]",10,1,[25],32.51837455,14882,516,1,0,11,1.768804611828727
undo,57,21,0,0,0,0,[0],1,29,"[1, 2, 3, 4, 5, 6, 7, 8, 9, 10, 11, 12, 13, 14, 15, 16, 17, 18, 19, 20, 21, 22, 23, 24, 25, 26, 27, 28, 29]",300,131,-1,84,830,9,0.0
undo,57,21,0,0,0,21,"[0, 21]",2,22,"[1, 3, 4, 6, 8, 9, 10, 11, 12, 14, 15, 16, 17, 18, 20, 22, 23, 24, 25, 26, 27, 29]",210.1111798,2113,1982,1,69,9,1.0
undo,57,21,0,0,0,14,"[0, 21, 14]",3,15,"[1, 4, 6, 8, 9, 15, 16, 17, 18, 20, 22, 23, 24, 25, 29]",184.4986828,2751,638,35,96,8,1.0083702391721483
undo,57,21,0,0,0,4,"[0, 21, 14, 4]",4,13,"[1, 8, 9, 15, 16, 17, 18, 20, 22, 23, 24, 25, 29]",170.3565472,3405,654,20,39,8,1.0135821167776475
undo,57,21,0,0,0,16,"[0, 21, 14, 4, 16]",5,7,"[8, 15, 17, 23, 24, 25, 29]",125.758341,7243,3838,4,6,8,1.0675217597413178
undo,57,21,0,0,0,8,"[0, 21, 14, 4, 16, 8]",6,3,"[15, 23, 24]",107.1572657,7841,598,3,1,8,1.0643903127717425
undo,57,21,0,0,0,15,"[0, 21, 14, 4, 16, 8, 15]",7,2,"[23, 24]",82.15726573,8391,550,2,0,8,1.29402645910376
undo,57,21,0,0,1,24,"[0, 21, 14, 4, 16, 8, 15, 24]",8,0,[],36.4516862,9603,1212,1,0,8,1.3251667405154008
undo,57,21,1,0,0,15,"[0, 21, 14, 4, 16, 8, 15]",7,2,"[23, 24]",82.15726573,10848,1245,2,0,8,1.29402645910376
undo,57,21,0,0,1,23,"[0, 21, 14, 4, 16, 8, 15, 23]",8,0,[],10.28933129,11889,1041,1,0,8,2.9257734162199216
undo,57,21,1,0,0,15,"[0, 21, 14, 4, 16, 8, 15]",7,2,"[23, 24]",82.15726573,13131,1242,2,0,8,1.29402645910376
undo,57,21,0,0,1,24,"[0, 21, 14, 4, 16, 8, 15, 24]",8,0,[],36.4516862,15678,2547,1,0,8,1.3251667405154008
undo,57,21,1,0,0,15,"[0, 21, 14, 4, 16, 8, 15]",7,2,"[23, 24]",82.15726573,16663,985,2,0,8,1.29402645910376
undo,57,21,0,1,0,15,"[0, 21, 14, 4, 16, 8, 15]",7,2,"[23, 24]",82.15726573,17181,518,2,0,8,1.29402645910376
undo,58,39,0,0,0,0,[0],1,28,"[1, 2, 3, 4, 5, 6, 7, 9, 10, 11, 12, 13, 14, 15, 16, 17, 18, 19, 20, 21, 22, 23, 24, 25, 26, 27, 28, 29]",300,114,-1,1,30,10,0.0
undo,58,39,0,0,0,29,"[0, 29]",2,26,"[1, 2, 3, 4, 5, 6, 7, 9, 10, 12, 13, 14, 15, 16, 17, 18, 19, 20, 21, 22, 23, 24, 25, 26, 27, 28]",243.0614366,3997,3883,8,104,9,1.0
undo,58,39,0,0,0,12,"[0, 29, 12]",3,18,"[1, 2, 4, 5, 7, 9, 10, 13, 14, 15, 16, 18, 19, 22, 23, 24, 26, 28]",182.5221931,4960,963,5,54,9,1.0026200331524904
undo,58,39,0,0,0,10,"[0, 29, 12, 10]",4,16,"[1, 2, 4, 5, 7, 9, 13, 14, 15, 16, 18, 19, 22, 23, 24, 26]",147.0116313,6922,1962,5,34,9,1.2874817019928908
undo,58,39,0,0,0,7,"[0, 29, 12, 10, 7]",5,10,"[1, 2, 5, 13, 16, 18, 19, 22, 24, 26]",113.5900814,7601,679,4,12,9,1.2250826263866774
undo,58,39,0,0,0,26,"[0, 29, 12, 10, 7, 26]",6,5,"[1, 16, 18, 19, 22]",94.90853971,8263,662,3,4,9,1.2697275353190085
undo,58,39,0,0,0,22,"[0, 29, 12, 10, 7, 26, 22]",7,2,"[16, 19]",77.18849457,8974,711,2,0,9,1.438961743955176
undo,58,39,0,0,0,16,"[0, 29, 12, 10, 7, 26, 22, 16]",8,1,[19],42.18849457,9600,626,1,0,9,1.3580882130477205
undo,58,39,0,0,1,19,"[0, 29, 12, 10, 7, 26, 22, 16, 19]",9,0,[],24.72424537,10211,611,1,0,9,1.3646589157842668
undo,58,39,1,0,0,16,"[0, 29, 12, 10, 7, 26, 22, 16]",8,1,[19],42.18849457,10731,520,1,0,9,1.3580882130477205
undo,58,39,0,1,0,16,"[0, 29, 12, 10, 7, 26, 22, 16]",8,1,[19],42.18849457,11081,350,1,0,9,1.3580882130477205
undo,59,15,0,0,0,0,[0],1,25,"[1, 2, 3, 4, 7, 8, 9, 10, 11, 12, 13, 14, 15, 16, 18, 20, 21, 22, 23, 24, 25, 26, 27, 28, 29]",300,165,-1,4,65,9,0.0
undo,59,15,0,0,0,7,"[0, 7]",2,23,"[1, 3, 4, 8, 9, 10, 11, 12, 13, 14, 15, 16, 18, 20, 21, 22, 23, 24, 25, 26, 27, 28, 29]",215.1884442,1657,1492,30,107,8,1.0
undo,59,15,0,0,0,11,"[0, 7, 11]",3,18,"[3, 4, 8, 9, 10, 12, 13, 14, 15, 16, 18, 20, 21, 22, 23, 25, 27, 29]",173.7035072,3039,1382,12,34,8,1.0171318876095128
undo,59,15,0,0,0,16,"[0, 7, 11, 16]",4,10,"[3, 4, 10, 12, 13, 14, 15, 18, 21, 22]",147.6842835,3758,719,5,9,8,1.3342048656649041
undo,59,15,0,0,0,3,"[0, 7, 11, 16, 3]",5,7,"[4, 12, 13, 14, 15, 21, 22]",122.6044111,4525,767,5,3,8,1.3400660178791453
undo,59,15,0,0,0,22,"[0, 7, 11, 16, 3, 22]",6,3,"[4, 13, 15]",72.87514405,6417,1892,2,1,8,1.316472287619004
undo,59,15,0,0,0,13,"[0, 7, 11, 16, 3, 22, 13]",7,1,[15],44.71488837,7095,678,1,0,8,1.2742611523747418
undo,59,15,0,0,1,15,"[0, 7, 11, 16, 3, 22, 13, 15]",8,0,[],29.45055085,7734,639,1,0,8,1.3776851785027706
undo,59,15,1,0,0,13,"[0, 7, 11, 16, 3, 22, 13]",7,1,[15],44.71488837,8682,948,1,0,8,1.2742611523747418
undo,59,15,0,1,0,13,"[0, 7, 11, 16, 3, 22, 13]",7,1,[15],44.71488837,8999,317,1,0,8,1.2742611523747418
undo,60,38,0,0,0,0,[0],1,29,"[1, 2, 3, 4, 5, 6, 7, 8, 9, 10, 11, 12, 13, 14, 15, 16, 17, 18, 19, 20, 21, 22, 23, 24, 25, 26, 27, 28, 29]",300,116,-1,33,506,9,0.0
undo,60,38,0,0,0,15,"[0, 15]",2,24,"[1, 2, 3, 4, 5, 6, 7, 10, 11, 12, 13, 14, 16, 17, 18, 19, 20, 21, 22, 24, 25, 26, 27, 28]",226.6242547,1795,1679,26,315,8,1.0
undo,60,38,0,0,0,4,"[0, 15, 4]",3,21,"[1, 3, 5, 6, 7, 10, 11, 12, 13, 14, 16, 17, 18, 19, 20, 22, 24, 25, 26, 27, 28]",200.6242547,2409,614,13,104,8,1.4173413634934033
undo,60,38,0,0,0,20,"[0, 15, 4, 20]",4,16,"[3, 5, 6, 7, 11, 13, 14, 16, 17, 18, 19, 22, 24, 26, 27, 28]",166.6831292,3097,688,6,33,8,2.4756321407912334
undo,60,38,0,0,0,17,"[0, 15, 4, 20, 17]",5,13,"[3, 5, 6, 11, 13, 16, 18, 19, 22, 24, 26, 27, 28]",142.9134005,3614,517,5,14,8,2.4236103458312424
undo,60,38,0,0,0,19,"[0, 15, 4, 20, 17, 19]",6,7,"[3, 6, 13, 18, 22, 26, 27]",121.5358422,4631,1017,4,4,8,2.216988824378052
undo,60,38,0,0,0,27,"[0, 15, 4, 20, 17, 19, 27]",7,2,"[3, 22]",55.67993891,5375,744,2,0,8,1.684325175705508
undo,60,38,0,0,1,22,"[0, 15, 4, 20, 17, 19, 27, 22]",8,0,[],27.04429679,7502,2127,1,0,8,1.5866032032177348
undo,60,38,1,0,0,27,"[0, 15, 4, 20, 17, 19, 27]",7,2,"[3, 22]",55.67993891,8016,514,2,0,8,1.684325175705508
undo,60,38,0,1,0,27,"[0, 15, 4, 20, 17, 19, 27]",7,2,"[3, 22]",55.67993891,8333,317,2,0,8,1.684325175705508
undo,61,41,0,0,0,0,[0],1,29,"[1, 2, 3, 4, 5, 6, 7, 8, 9, 10, 11, 12, 13, 14, 15, 16, 17, 18, 19, 20, 21, 22, 23, 24, 25, 26, 27, 28, 29]",300,115,-1,1,143,10,0.0
undo,61,41,0,0,0,28,"[0, 28]",2,27,"[1, 2, 3, 5, 6, 7, 8, 9, 10, 11, 12, 13, 14, 15, 16, 17, 18, 19, 20, 21, 22, 23, 24, 25, 26, 27, 29]",259.8004975,1758,1643,37,249,9,1.0
undo,61,41,0,0,0,5,"[0, 28, 5]",3,26,"[1, 2, 3, 6, 7, 8, 9, 10, 11, 12, 13, 14, 15, 16, 17, 18, 19, 20, 21, 22, 23, 24, 25, 26, 27, 29]",246.199027,2307,549,30,182,9,1.714241539747437
undo,61,41,0,0,0,22,"[0, 28, 5, 22]",4,22,"[1, 2, 3, 6, 7, 8, 9, 10, 11, 12, 13, 14, 16, 17, 18, 19, 20, 21, 23, 24, 25, 27]",191.4541642,3818,1511,7,30,9,1.5739547554580093
undo,61,41,0,0,0,3,"[0, 28, 5, 22, 3]",5,14,"[2, 6, 9, 10, 12, 13, 14, 17, 18, 19, 20, 21, 25, 27]",161.4875161,4392,574,7,17,9,3.49573973620446
undo,61,41,0,0,0,21,"[0, 28, 5, 22, 3, 21]",6,8,"[2, 9, 10, 12, 13, 14, 17, 25]",129.3471987,6113,1721,7,6,9,3.491446139563656
undo,61,41,0,0,0,9,"[0, 28, 5, 22, 3, 21, 9]",7,5,"[2, 10, 12, 14, 17]",79.98121856,6890,777,3,3,9,2.6736298439721664
undo,61,41,0,0,0,2,"[0, 28, 5, 22, 3, 21, 9, 2]",8,2,"[14, 17]",67.89817258,7568,678,2,0,9,2.565326749271553
undo,61,41,0,0,1,17,"[0, 28, 5, 22, 3, 21, 9, 2, 17]",9,0,[],35.34053139,8943,1375,1,0,9,4.175249858394321
undo,61,41,1,0,0,2,"[0, 28, 5, 22, 3, 21, 9, 2]",8,2,"[14, 17]",67.89817258,9465,522,2,0,9,2.565326749271553
undo,61,41,0,1,0,2,"[0, 28, 5, 22, 3, 21, 9, 2]",8,2,"[14, 17]",67.89817258,9781,316,2,0,9,2.565326749271553
undo,62,13,0,0,0,0,[0],1,29,"[1, 2, 3, 4, 5, 6, 7, 8, 9, 10, 11, 12, 13, 14, 15, 16, 17, 18, 19, 20, 21, 22, 23, 24, 25, 26, 27, 28, 29]",300,116,-1,60,2676,11,0.0
undo,62,13,0,0,0,28,"[0, 28]",2,24,"[1, 2, 3, 4, 6, 7, 8, 9, 10, 11, 12, 13, 15, 16, 17, 19, 20, 21, 22, 23, 24, 26, 27, 29]",226.3182519,2792,2676,12,378,10,1.0
undo,62,13,0,0,0,2,"[0, 28, 2]",3,20,"[1, 3, 4, 6, 7, 9, 11, 12, 13, 15, 16, 17, 19, 20, 21, 23, 24, 26, 27, 29]",188.6751915,3931,1139,9,174,10,1.0158286399660754
undo,62,13,0,0,0,29,"[0, 28, 2, 29]",4,19,"[1, 3, 4, 6, 7, 9, 11, 12, 13, 15, 16, 17, 19, 20, 21, 23, 24, 26, 27]",176.9704916,4545,614,9,132,10,1.1053279759370194
undo,62,13,0,0,0,7,"[0, 28, 2, 29, 7]",5,18,"[1, 3, 4, 6, 9, 11, 12, 13, 15, 16, 17, 19, 20, 21, 23, 24, 26, 27]",161.706154,5176,631,6,72,10,1.313811244316471
undo,62,13,0,0,0,26,"[0, 28, 2, 29, 7, 26]",6,17,"[1, 3, 4, 6, 9, 11, 12, 13, 15, 16, 17, 19, 20, 21, 23, 24, 27]",151.2658475,5741,565,6,39,10,1.554636901089982
undo,62,13,0,0,0,11,"[0, 28, 2, 29, 7, 26, 11]",7,8,"[1, 3, 6, 13, 15, 16, 17, 23]",116.1517478,6485,744,8,4,9,1.4412490621699214
undo,62,13,0,0,0,6,"[0, 28, 2, 29, 7, 26, 11, 6]",8,4,"[13, 16, 17, 23]",97.04677462,7140,655,4,0,9,1.8692073228936845
undo,62,13,0,0,1,23,"[0, 28, 2, 29, 7, 26, 11, 6, 23]",9,0,[],33.54086939,7922,782,1,0,9,4.714798651698759
undo,62,13,1,0,0,6,"[0, 28, 2, 29, 7, 26, 11, 6]",8,4,"[13, 16, 17, 23]",97.04677462,8799,877,4,0,9,1.8692073228936845
undo,62,13,0,0,1,13,"[0, 28, 2, 29, 7, 26, 11, 6, 13]",9,0,[],23.22265932,9765,966,1,0,9,1.5252507990878805
undo,62,13,1,0,0,6,"[0, 28, 2, 29, 7, 26, 11, 6]",8,4,"[13, 16, 17, 23]",97.04677462,10416,651,4,0,9,1.8692073228936845
undo,62,13,1,0,0,11,"[0, 28, 2, 29, 7, 26, 11]",7,8,"[1, 3, 6, 13, 15, 16, 17, 23]",116.1517478,12817,2401,8,4,9,1.4412490621699214
undo,62,13,1,0,0,26,"[0, 28, 2, 29, 7, 26]",6,17,"[1, 3, 4, 6, 9, 11, 12, 13, 15, 16, 17, 19, 20, 21, 23, 24, 27]",151.2658475,13515,698,6,39,10,1.554636901089982
undo,62,13,0,0,0,6,"[0, 28, 2, 29, 7, 26, 6]",7,13,"[1, 3, 4, 11, 13, 15, 16, 17, 19, 20, 23, 24, 27]",131.1660963,14235,720,4,17,10,1.554967005613632
undo,62,13,0,0,0,11,"[0, 28, 2, 29, 7, 26, 6, 11]",8,6,"[1, 13, 15, 16, 17, 23]",112.0611231,15294,1059,3,4,10,1.4733168623367165
undo,62,13,0,0,0,13,"[0, 28, 2, 29, 7, 26, 6, 11, 13]",9,2,"[15, 17]",55.98082354,16044,750,2,0,10,1.3447287374536006
undo,62,13,0,1,0,13,"[0, 28, 2, 29, 7, 26, 6, 11, 13]",9,2,"[15, 17]",55.98082354,18148,2104,2,0,10,1.3447287374536006
undo,63,3,0,0,0,0,[0],1,29,"[1, 2, 3, 4, 5, 6, 7, 8, 9, 10, 11, 12, 13, 14, 15, 16, 17, 18, 19, 20, 21, 22, 23, 24, 25, 26, 27, 28, 29]",300,138,-1,34,427,10,0.0
undo,63,3,0,0,0,17,"[0, 17]",2,16,"[3, 4, 7, 8, 10, 12, 14, 15, 16, 19, 20, 21, 22, 24, 26, 27]",197.6965299,2725,2587,2,27,9,1.0
undo,63,3,0,0,0,20,"[0, 17, 20]",3,13,"[3, 4, 7, 8, 10, 14, 15, 16, 19, 21, 22, 24, 27]",185.0474192,3323,598,2,24,9,1.0153332121237257
undo,63,3,0,0,0,3,"[0, 17, 20, 3]",4,10,"[4, 7, 8, 10, 14, 15, 16, 19, 21, 24]",164.6513412,5092,1769,2,22,9,1.0819240770773468
undo,63,3,0,0,0,19,"[0, 17, 20, 3, 19]",5,6,"[4, 8, 10, 14, 21, 24]",127.3150318,6747,1655,2,11,9,1.1701070532957258
undo,63,3,0,0,0,21,"[0, 17, 20, 3, 19, 21]",6,5,"[4, 8, 10, 14, 24]",115.1084762,7556,809,2,6,9,1.202395500952127
undo,63,3,0,0,0,14,"[0, 17, 20, 3, 19, 21, 14]",7,4,"[4, 8, 10, 24]",88.20122806,8331,775,2,2,9,1.6456130302761207
undo,63,3,0,0,1,10,"[0, 17, 20, 3, 19, 21, 14, 10]",8,0,[],42.74795535,9351,1020,1,0,8,1.6337827075255185
undo,63,3,1,0,0,14,"[0, 17, 20, 3, 19, 21, 14]",7,4,"[4, 8, 10, 24]",88.20122806,10265,914,2,2,9,1.6456130302761207
undo,63,3,0,1,0,14,"[0, 17, 20, 3, 19, 21, 14]",7,4,"[4, 8, 10, 24]",88.20122806,12265,2000,2,2,9,1.6456130302761207
undo,64,30,0,0,0,0,[0],1,19,"[3, 4, 5, 7, 9, 11, 16, 17, 18, 19, 20, 21, 22, 24, 25, 26, 27, 28, 29]",300,114,-1,5,41,8,0.0
undo,64,30,0,0,0,25,"[0, 25]",2,12,"[3, 5, 7, 9, 11, 16, 18, 19, 20, 24, 27, 29]",121.1005869,1890,1776,7,37,7,1.0
undo,64,30,0,0,0,20,"[0, 25, 20]",3,9,"[3, 5, 7, 9, 11, 18, 19, 27, 29]",99.16887472,2560,670,5,16,7,1.0037291321296267
undo,64,30,0,0,0,27,"[0, 25, 20, 27]",4,4,"[3, 5, 18, 29]",65.11010199,3222,662,4,6,7,1.1217072851053165
undo,64,30,0,0,0,3,"[0, 25, 20, 27, 3]",5,3,"[5, 18, 29]",46.00512882,3755,533,4,0,7,1.1140018780928678
undo,64,30,0,0,0,29,"[0, 25, 20, 27, 3, 29]",6,1,[18],27.40405358,5970,2215,1,0,7,1.119672312555708
undo,64,30,0,0,1,18,"[0, 25, 20, 27, 3, 29, 18]",7,0,[],8.090845662,6907,937,1,0,7,1.1951451398733344
undo,64,30,1,0,0,29,"[0, 25, 20, 27, 3, 29]",6,1,[18],27.40405358,7632,725,1,0,7,1.119672312555708
undo,64,30,1,0,0,3,"[0, 25, 20, 27, 3]",5,3,"[5, 18, 29]",46.00512882,8781,1149,4,0,7,1.1140018780928678
undo,64,30,0,0,0,18,"[0, 25, 20, 27, 3, 18]",6,2,"[5, 29]",27.75684122,10017,1236,2,0,7,1.1146279013330882
undo,64,30,0,0,1,5,"[0, 25, 20, 27, 3, 18, 5]",7,0,[],14.71843641,10639,622,1,0,7,1.179756297971811
undo,64,30,1,0,0,18,"[0, 25, 20, 27, 3, 18]",6,2,"[5, 29]",27.75684122,11531,892,2,0,7,1.1146279013330882
undo,64,30,0,1,0,18,"[0, 25, 20, 27, 3, 18]",6,2,"[5, 29]",27.75684122,11898,367,2,0,7,1.1146279013330882
undo,65,20,0,0,0,0,[0],1,21,"[1, 2, 3, 4, 5, 6, 7, 8, 9, 12, 17, 18, 20, 21, 22, 23, 25, 26, 27, 28, 29]",300,135,-1,1,9,9,0.0
undo,65,20,0,0,0,12,"[0, 12]",2,20,"[1, 2, 3, 4, 5, 6, 7, 8, 9, 17, 18, 20, 21, 22, 23, 25, 26, 27, 28, 29]",271.5570747,2197,2062,1,8,9,1.0
undo,65,20,0,0,0,29,"[0, 12, 29]",3,13,"[1, 3, 4, 5, 7, 8, 17, 18, 20, 21, 25, 27, 28]",218.4722369,2924,727,13,25,6,1.5064191946670615
undo,65,20,0,0,0,18,"[0, 12, 29, 18]",4,4,"[3, 7, 17, 25]",86.88196374,4379,1455,4,1,6,1.1564582825304157
undo,65,20,0,0,0,17,"[0, 12, 29, 18, 17]",5,2,"[3, 25]",43.8703374,5162,783,2,0,6,1.2573365111946206
undo,65,20,0,0,1,3,"[0, 12, 29, 18, 17, 3]",6,0,[],4.75512297,5858,696,1,0,6,1.7698382229012815
undo,65,20,1,0,0,17,"[0, 12, 29, 18, 17]",5,2,"[3, 25]",43.8703374,6447,589,2,0,6,1.2573365111946206
undo,65,20,0,1,0,17,"[0, 12, 29, 18, 17]",5,2,"[3, 25]",43.8703374,6815,368,2,0,6,1.2573365111946206
undo,66,44,0,0,0,0,[0],1,29,"[1, 2, 3, 4, 5, 6, 7, 8, 9, 10, 11, 12, 13, 14, 15, 16, 17, 18, 19, 20, 21, 22, 23, 24, 25, 26, 27, 28, 29]",300,117,-1,13,126,7,0.0
undo,66,44,0,0,0,8,"[0, 8]",2,17,"[1, 4, 5, 7, 9, 10, 11, 12, 13, 14, 15, 20, 21, 23, 24, 25, 27]",145.7923478,3316,3199,1,10,7,1.0
undo,66,44,0,0,0,20,"[0, 8, 20]",3,16,"[1, 4, 5, 7, 9, 10, 11, 12, 13, 14, 15, 21, 23, 24, 25, 27]",133.7093018,3914,598,1,9,7,1.0890794433668698
undo,66,44,0,0,0,9,"[0, 8, 20, 9]",4,7,"[4, 7, 11, 12, 14, 23, 24]",76.43801756,5441,1527,1,6,7,1.40892325509949
undo,66,44,0,0,0,4,"[0, 8, 20, 9, 4]",5,4,"[7, 12, 23, 24]",56.74030196,6047,606,1,3,7,1.3849770570803555
undo,66,44,0,0,0,7,"[0, 8, 20, 9, 4, 7]",6,1,[23],25.72417712,6677,630,1,0,7,1.3274380931474288
undo,66,44,0,0,1,23,"[0, 8, 20, 9, 4, 7, 23]",7,0,[],6.619203947,7518,841,1,0,7,1.3395824779823196
undo,66,44,1,0,0,7,"[0, 8, 20, 9, 4, 7]",6,1,[23],25.72417712,8716,1198,1,0,7,1.3274380931474288
undo,66,44,0,1,0,7,"[0, 8, 20, 9, 4, 7]",6,1,[23],25.72417712,9182,466,1,0,7,1.3274380931474288
undo,67,45,0,0,0,0,[0],1,24,"[1, 2, 3, 4, 5, 6, 7, 9, 10, 11, 12, 14, 15, 16, 17, 19, 20, 21, 22, 23, 24, 25, 27, 29]",300,115,-1,6,248,10,0.0
undo,67,45,0,0,0,10,"[0, 10]",2,18,"[2, 3, 4, 6, 7, 9, 12, 14, 15, 16, 17, 19, 20, 22, 23, 24, 25, 29]",152.8538142,3067,2952,30,136,7,1.0
undo,67,45,0,0,0,6,"[0, 10, 6]",3,13,"[2, 3, 7, 9, 12, 14, 16, 20, 22, 23, 24, 25, 29]",126.6050047,3754,687,10,35,7,1.0067331790249954
undo,67,45,0,0,0,12,"[0, 10, 6, 12]",4,8,"[2, 3, 7, 16, 20, 22, 25, 29]",106.4803929,4651,897,7,7,7,1.018524247894737
undo,67,45,0,0,0,29,"[0, 10, 6, 12, 29]",5,4,"[2, 3, 7, 22]",60.09073887,5684,1033,2,2,7,1.4895738082231025
undo,67,45,0,0,0,3,"[0, 10, 6, 12, 29, 3]",6,1,[2],40.09073887,6210,526,1,0,7,1.4488677135514265
undo,67,45,0,0,1,2,"[0, 10, 6, 12, 29, 3, 2]",7,0,[],14.77276107,6784,574,1,0,7,1.7017350277615115
undo,67,45,1,0,0,3,"[0, 10, 6, 12, 29, 3]",6,1,[2],40.09073887,7382,598,1,0,7,1.4488677135514265
undo,67,45,0,1,0,3,"[0, 10, 6, 12, 29, 3]",6,1,[2],40.09073887,7749,367,1,0,7,1.4488677135514265
undo,68,37,0,0,0,0,[0],1,29,"[1, 2, 3, 4, 5, 6, 7, 8, 9, 10, 11, 12, 13, 14, 15, 16, 17, 18, 19, 20, 21, 22, 23, 24, 25, 26, 27, 28, 29]",300,133,-1,6,168,10,0.0
undo,68,37,0,0,0,19,"[0, 19]",2,19,"[1, 2, 4, 5, 6, 7, 9, 10, 11, 15, 17, 18, 20, 21, 22, 25, 26, 28, 29]",185.6627795,4257,4124,25,244,9,1.0
undo,68,37,0,0,0,21,"[0, 19, 21]",3,14,"[1, 2, 4, 7, 10, 11, 15, 17, 18, 20, 22, 25, 26, 29]",144.5531699,5081,824,10,75,9,1.001632816594558
undo,68,37,0,0,0,15,"[0, 19, 21, 15]",4,9,"[1, 2, 4, 7, 18, 20, 22, 26, 29]",129.5531699,5834,753,5,32,9,1.0243376499143988
undo,68,37,0,0,0,20,"[0, 19, 21, 15, 20]",5,8,"[1, 2, 4, 7, 18, 22, 26, 29]",112.5531699,6608,774,5,14,9,1.250507291508492
undo,68,37,0,0,0,1,"[0, 19, 21, 15, 20, 1]",6,6,"[2, 4, 7, 18, 22, 26]",78.31868434,7335,727,4,4,9,1.4002166443864243
undo,68,37,0,0,0,2,"[0, 19, 21, 15, 20, 1, 2]",7,4,"[4, 7, 18, 22]",61.11403381,7925,590,2,2,9,1.5802253600182588
undo,68,37,0,0,0,4,"[0, 19, 21, 15, 20, 1, 2, 4]",8,1,[22],49.71227956,8530,605,1,0,9,1.5399187067712754
undo,68,37,0,0,1,22,"[0, 19, 21, 15, 20, 1, 2, 4, 22]",9,0,[],24.71227956,9218,688,1,0,9,1.6903775033413582
undo,68,37,1,0,0,4,"[0, 19, 21, 15, 20, 1, 2, 4]",8,1,[22],49.71227956,9799,581,1,0,9,1.5399187067712754
undo,68,37,0,1,0,4,"[0, 19, 21, 15, 20, 1, 2, 4]",8,1,[22],49.71227956,10549,750,1,0,9,1.5399187067712754
basic,69,6,0,0,0,0,[0],1,29,"[1, 2, 3, 4, 5, 6, 7, 8, 9, 10, 11, 12, 13, 14, 15, 16, 17, 18, 19, 20, 21, 22, 23, 24, 25, 26, 27, 28, 29]",300,116,-1,180,4304,10,0.0
basic,69,6,0,0,0,3,"[0, 3]",2,28,"[1, 2, 4, 5, 6, 7, 8, 9, 10, 11, 12, 13, 14, 15, 16, 17, 18, 19, 20, 21, 22, 23, 24, 25, 26, 27, 28, 29]",266.4738908,2459,2343,90,1607,10,1.0
basic,69,6,0,0,0,10,"[0, 3, 10]",3,27,"[1, 2, 4, 5, 6, 7, 8, 9, 11, 12, 13, 14, 15, 16, 17, 18, 19, 20, 21, 22, 23, 24, 25, 26, 27, 28, 29]",215.2293789,7331,4872,8,136,10,1.0050517746249001
basic,69,6,0,0,0,24,"[0, 3, 10, 24]",4,23,"[1, 2, 4, 5, 6, 7, 8, 11, 13, 14, 16, 17, 18, 19, 20, 21, 22, 23, 25, 26, 27, 28, 29]",201.812971,8052,721,8,85,10,1.0091851911500884
basic,69,6,0,0,0,17,"[0, 3, 10, 24, 17]",5,19,"[1, 2, 4, 5, 6, 7, 8, 11, 13, 14, 16, 18, 20, 21, 22, 23, 26, 27, 29]",172.5384087,8971,919,8,53,10,1.8060138032707682
basic,69,6,0,0,0,18,"[0, 3, 10, 24, 17, 18]",6,15,"[1, 2, 6, 7, 8, 13, 14, 16, 20, 21, 22, 23, 26, 27, 29]",158.6100204,9714,743,7,36,10,2.3216150751946008
basic,69,6,0,0,0,16,"[0, 3, 10, 24, 17, 18, 16]",7,13,"[1, 2, 6, 7, 13, 14, 20, 21, 22, 23, 26, 27, 29]",135.2647853,10402,688,7,21,10,2.2822729587843544
basic,69,6,0,0,0,29,"[0, 3, 10, 24, 17, 18, 16, 29]",8,7,"[6, 14, 20, 21, 22, 23, 27]",98.57691268,11379,977,6,4,10,1.8911507070056388
basic,69,6,0,1,0,29,"[0, 3, 10, 24, 17, 18, 16, 29]",8,7,"[6, 14, 20, 21, 22, 23, 27]",98.57691268,13233,1854,6,4,10,1.8911507070056388
basic,70,39,0,0,0,0,[0],1,28,"[1, 2, 3, 4, 5, 6, 7, 9, 10, 11, 12, 13, 14, 15, 16, 17, 18, 19, 20, 21, 22, 23, 24, 25, 26, 27, 28, 29]",300,131,-1,1,30,10,0.0
basic,70,39,0,0,0,14,"[0, 14]",2,26,"[1, 2, 3, 4, 5, 6, 7, 9, 10, 12, 13, 15, 16, 17, 18, 19, 20, 21, 22, 23, 24, 25, 26, 27, 28, 29]",286.9615952,4520,4389,1,22,10,1.0
basic,70,39,0,0,0,4,"[0, 14, 4]",3,21,"[1, 3, 5, 6, 7, 10, 12, 15, 16, 17, 18, 19, 20, 21, 22, 23, 25, 26, 27, 28, 29]",220.0512074,5418,898,5,50,8,1.123368351762204
basic,70,39,0,0,0,28,"[0, 14, 4, 28]",4,9,"[3, 5, 6, 10, 21, 22, 23, 25, 29]",173.4786833,6322,904,9,4,6,1.2062237704329757
basic,70,39,0,0,0,21,"[0, 14, 4, 28, 21]",5,3,"[3, 5, 25]",128.880477,7057,735,3,0,6,1.3355269674062284
basic,70,39,0,1,0,21,"[0, 14, 4, 28, 21]",5,3,"[3, 5, 25]",128.880477,8581,1524,3,0,6,1.3355269674062284
basic,71,23,0,0,0,0,[0],1,28,"[1, 2, 3, 4, 5, 6, 7, 8, 9, 10, 11, 12, 13, 14, 15, 16, 17, 18, 19, 20, 21, 22, 23, 25, 26, 27, 28, 29]",300,116,-1,76,2626,10,0.0
basic,71,23,0,0,0,27,"[0, 27]",2,11,"[2, 6, 7, 9, 10, 12, 13, 14, 18, 22, 29]",156.8217894,4437,4321,6,455,9,1.0
basic,71,23,0,0,0,6,"[0, 27, 6]",3,10,"[2, 7, 9, 10, 12, 13, 14, 18, 22, 29]",128.519846,5195,758,6,168,9,1.1413510010705277
basic,71,23,0,0,0,13,"[0, 27, 6, 13]",4,7,"[2, 9, 12, 14, 18, 22, 29]",88.15897383,6642,1447,25,7,8,1.9140004130415318
basic,71,23,0,0,0,12,"[0, 27, 6, 13, 12]",5,5,"[2, 9, 14, 22, 29]",76.07592786,7409,767,7,5,8,1.826628334641329
basic,71,23,0,0,0,2,"[0, 27, 6, 13, 12, 2]",6,4,"[9, 14, 22, 29]",62.18348387,8354,945,2,2,8,1.742771754515294
basic,71,23,0,0,0,9,"[0, 27, 6, 13, 12, 2, 9]",7,1,[14],49.14507906,9372,1018,1,0,8,1.9200767360191275
basic,71,23,0,0,1,14,"[0, 27, 6, 13, 12, 2, 9, 14]",8,0,[],38.70477255,10108,736,1,0,8,1.8546041270084397
basic,71,23,0,1,1,14,"[0, 27, 6, 13, 12, 2, 9, 14]",8,0,[],38.70477255,12033,1925,1,0,8,1.8546041270084397
basic,72,29,0,0,0,0,[0],1,29,"[1, 2, 3, 4, 5, 6, 7, 8, 9, 10, 11, 12, 13, 14, 15, 16, 17, 18, 19, 20, 21, 22, 23, 24, 25, 26, 27, 28, 29]",300,132,-1,1,78,9,0.0
basic,72,29,0,0,0,6,"[0, 6]",2,28,"[1, 2, 3, 4, 5, 7, 8, 9, 10, 11, 12, 13, 14, 15, 16, 17, 18, 19, 20, 21, 22, 23, 24, 25, 26, 27, 28, 29]",228.4108947,4438,4306,1,25,9,1.0
basic,72,29,0,0,0,28,"[0, 6, 28]",3,24,"[1, 3, 4, 5, 7, 9, 10, 11, 12, 13, 14, 15, 16, 17, 18, 20, 21, 22, 23, 24, 25, 26, 27, 29]",187.1798384,5196,758,1,22,9,1.162106788166845
basic,72,29,0,0,0,27,"[0, 6, 28, 27]",4,19,"[1, 3, 4, 5, 7, 9, 10, 11, 12, 13, 14, 15, 16, 21, 22, 23, 25, 26, 29]",166.6615539,5673,477,1,21,9,1.2307173895439045
basic,72,29,0,0,0,22,"[0, 6, 28, 27, 22]",5,13,"[1, 3, 4, 5, 7, 9, 12, 13, 14, 15, 21, 26, 29]",133.4200136,6425,752,1,19,9,1.4241767805149903
basic,72,29,0,0,0,12,"[0, 6, 28, 27, 22, 12]",6,8,"[4, 5, 7, 9, 13, 14, 21, 26]",95.4726817,7201,776,1,6,9,1.3248355326460857
basic,72,29,0,1,0,12,"[0, 6, 28, 27, 22, 12]",6,8,"[4, 5, 7, 9, 13, 14, 21, 26]",95.4726817,7815,614,1,6,9,1.3248355326460857
basic,73,33,0,0,0,0,[0],1,23,"[1, 2, 5, 7, 8, 11, 12, 13, 14, 15, 16, 17, 18, 19, 20, 21, 23, 24, 25, 26, 27, 28, 29]",300,133,-1,5,108,9,0.0
basic,73,33,0,0,0,8,"[0, 8]",2,22,"[1, 2, 5, 7, 11, 12, 13, 14, 15, 16, 17, 18, 19, 20, 21, 23, 24, 25, 26, 27, 28, 29]",265.8679037,2107,1974,5,87,9,1.0
basic,73,33,0,0,0,21,"[0, 8, 21]",3,16,"[2, 5, 7, 11, 13, 14, 16, 17, 18, 19, 20, 24, 26, 27, 28, 29]",166.0430571,2898,791,5,80,9,1.0670557763739492
basic,73,33,0,0,0,13,"[0, 8, 21, 13]",4,12,"[2, 7, 11, 14, 16, 17, 18, 19, 20, 24, 26, 29]",139.6422995,3530,632,4,54,9,1.0555103820910288
basic,73,33,0,0,0,19,"[0, 8, 21, 13, 19]",5,10,"[7, 11, 14, 16, 17, 18, 20, 24, 26, 29]",114.1472019,4241,711,3,19,9,1.1090798607799486
basic,73,33,0,0,0,24,"[0, 8, 21, 13, 19, 24]",6,6,"[7, 14, 16, 18, 26, 29]",72.09960985,5323,1082,2,3,9,1.1193530461391534
basic,73,33,0,1,0,24,"[0, 8, 21, 13, 19, 24]",6,6,"[7, 14, 16, 18, 26, 29]",72.09960985,5766,443,2,3,9,1.1193530461391534
basic,74,0,0,0,0,0,[0],1,27,"[2, 3, 4, 5, 6, 7, 8, 9, 10, 11, 12, 13, 14, 15, 16, 17, 19, 20, 21, 22, 23, 24, 25, 26, 27, 28, 29]",300,133,-1,104,1136,9,0.0
basic,74,0,0,0,0,5,"[0, 5]",2,24,"[2, 3, 4, 7, 8, 9, 11, 12, 13, 14, 15, 16, 17, 19, 20, 21, 22, 23, 24, 25, 26, 27, 28, 29]",164.5156836,1907,1774,5,112,9,1.0
basic,74,0,0,0,0,4,"[0, 5, 4]",3,20,"[2, 3, 7, 8, 9, 11, 12, 13, 14, 15, 17, 19, 20, 21, 22, 23, 24, 25, 26, 28]",139.4358112,2658,751,4,61,9,1.0257023158632692
basic,74,0,0,0,0,26,"[0, 5, 4, 26]",4,18,"[3, 7, 8, 9, 11, 12, 13, 14, 15, 17, 19, 20, 21, 22, 23, 24, 25, 28]",127.3942166,3322,664,4,26,9,1.0684029773259323
basic,74,0,0,0,0,24,"[0, 5, 4, 26, 24]",5,12,"[3, 7, 8, 9, 11, 12, 15, 17, 19, 20, 23, 28]",110.2769738,3992,670,4,16,9,1.1372083333602885
basic,74,0,0,0,0,15,"[0, 5, 4, 26, 24, 15]",6,8,"[3, 7, 8, 9, 11, 12, 17, 19]",86.93173875,4702,710,4,7,9,1.1271717591548023
basic,74,0,0,0,0,7,"[0, 5, 4, 26, 24, 15, 7]",7,4,"[3, 8, 17, 19]",55.86728962,5470,768,3,2,9,1.190834598819092
basic,74,0,0,1,0,7,"[0, 5, 4, 26, 24, 15, 7]",7,4,"[3, 8, 17, 19]",55.86728962,6067,597,3,2,9,1.190834598819092
basic,75,10,0,0,0,0,[0],1,29,"[1, 2, 3, 4, 5, 6, 7, 8, 9, 10, 11, 12, 13, 14, 15, 16, 17, 18, 19, 20, 21, 22, 23, 24, 25, 26, 27, 28, 29]",300,133,-1,1,100,9,0.0
basic,75,10,0,0,0,13,"[0, 13]",2,25,"[1, 2, 3, 4, 6, 7, 8, 9, 10, 11, 12, 14, 17, 18, 19, 20, 21, 22, 23, 24, 25, 26, 27, 28, 29]",249.4628849,2148,2015,1,79,9,1.0
basic,75,10,0,0,0,11,"[0, 13, 11]",3,20,"[1, 2, 3, 6, 7, 8, 9, 10, 12, 14, 18, 19, 20, 21, 22, 24, 26, 27, 28, 29]",206.4512586,3005,857,1,54,9,1.0313137484914219
basic,75,10,0,0,0,19,"[0, 13, 11, 19]",4,11,"[2, 6, 8, 9, 10, 14, 18, 20, 24, 26, 27]",170.0919407,3821,816,1,22,9,1.0879446220132545
basic,75,10,0,0,0,26,"[0, 13, 11, 19, 26]",5,8,"[2, 6, 9, 10, 14, 18, 20, 27]",141.7723361,4524,703,10,10,8,1.1947240924037068
basic,75,10,0,0,0,20,"[0, 13, 11, 19, 26, 20]",6,7,"[2, 6, 9, 10, 14, 18, 27]",109.991839,5275,751,6,2,8,1.5698329566273737
basic,75,10,0,0,0,27,"[0, 13, 11, 19, 26, 20, 27]",7,2,"[6, 9]",64.73700499,6964,1689,2,0,8,1.5107679049823484
basic,75,10,0,1,0,27,"[0, 13, 11, 19, 26, 20, 27]",7,2,"[6, 9]",64.73700499,7498,534,2,0,8,1.5107679049823484
basic,76,38,0,0,0,0,[0],1,29,"[1, 2, 3, 4, 5, 6, 7, 8, 9, 10, 11, 12, 13, 14, 15, 16, 17, 18, 19, 20, 21, 22, 23, 24, 25, 26, 27, 28, 29]",300,165,-1,33,506,9,0.0
basic,76,38,0,0,0,19,"[0, 19]",2,23,"[3, 4, 5, 6, 7, 8, 9, 11, 13, 14, 15, 16, 17, 18, 20, 22, 23, 24, 25, 26, 27, 28, 29]",219.5015528,3123,2958,6,61,9,1.0
basic,76,38,0,0,0,17,"[0, 19, 17]",3,21,"[3, 4, 5, 6, 7, 9, 11, 13, 14, 15, 16, 18, 20, 22, 23, 24, 25, 26, 27, 28, 29]",198.1239945,3867,744,6,53,9,1.571793785769489
basic,76,38,0,0,0,20,"[0, 19, 17, 20]",4,17,"[3, 4, 5, 6, 7, 11, 13, 14, 15, 16, 18, 22, 24, 25, 26, 27, 28]",174.3542658,4578,711,6,44,9,2.333182710277297
basic,76,38,0,0,0,4,"[0, 19, 17, 20, 4]",5,10,"[5, 11, 13, 14, 15, 16, 24, 26, 27, 28]",140.4131403,5353,775,5,22,9,2.276099229646013
basic,76,38,0,0,0,13,"[0, 19, 17, 20, 4, 13]",6,7,"[11, 15, 16, 24, 26, 27, 28]",109.0125034,5984,631,8,3,8,1.9539449223642764
basic,76,38,0,0,0,26,"[0, 19, 17, 20, 4, 13, 26]",7,3,"[15, 16, 24]",77.96415401,7001,1017,3,0,8,1.7636339903785625
basic,76,38,0,1,0,26,"[0, 19, 17, 20, 4, 13, 26]",7,3,"[15, 16, 24]",77.96415401,7649,648,3,0,8,1.7636339903785625
basic,77,43,0,0,0,0,[0],1,23,"[1, 2, 3, 4, 5, 6, 7, 9, 10, 11, 12, 14, 15, 16, 17, 19, 20, 21, 22, 23, 25, 27, 29]",300,132,-1,16,556,12,0.0
basic,77,43,0,0,0,29,"[0, 29]",2,22,"[1, 2, 3, 4, 5, 6, 7, 9, 10, 11, 12, 14, 15, 16, 17, 19, 20, 21, 22, 23, 25, 27]",277.909278,1775,1643,16,520,12,1.0
basic,77,43,0,0,0,20,"[0, 29, 20]",3,20,"[1, 2, 3, 4, 6, 7, 9, 10, 11, 12, 14, 15, 16, 17, 19, 21, 22, 23, 25, 27]",254.4785289,2543,768,15,422,12,1.082311746871282
basic,77,43,0,0,0,16,"[0, 29, 20, 16]",4,19,"[1, 2, 3, 4, 6, 7, 9, 10, 11, 12, 14, 15, 17, 19, 21, 22, 23, 25, 27]",231.8511119,3238,695,15,389,12,1.215201926898219
basic,77,43,0,0,0,15,"[0, 29, 20, 16, 15]",5,14,"[1, 2, 3, 4, 6, 7, 9, 11, 12, 14, 19, 22, 23, 25]",188.5267539,4410,1172,3,109,12,1.3482474915350444
basic,77,43,0,0,0,12,"[0, 29, 20, 16, 15, 12]",6,13,"[1, 2, 3, 4, 6, 7, 9, 11, 14, 19, 22, 23, 25]",169.213546,5217,807,1,49,12,1.3229664037236823
basic,77,43,0,0,0,3,"[0, 29, 20, 16, 15, 12, 3]",7,11,"[1, 4, 6, 7, 9, 11, 14, 19, 22, 23, 25]",156.213546,5913,696,1,35,12,1.2907201281243643
basic,77,43,0,0,0,22,"[0, 29, 20, 16, 15, 12, 3, 22]",8,9,"[1, 4, 6, 7, 11, 14, 19, 23, 25]",121.5004361,7092,1179,1,18,12,1.4966181986440266
basic,77,43,0,0,0,19,"[0, 29, 20, 16, 15, 12, 3, 22, 19]",9,7,"[1, 4, 6, 7, 11, 14, 25]",100.8849079,7795,703,1,9,12,1.4332617950535695
basic,77,43,0,1,0,19,"[0, 29, 20, 16, 15, 12, 3, 22, 19]",9,7,"[1, 4, 6, 7, 11, 14, 25]",100.8849079,8382,587,1,9,12,1.4332617950535695
basic,78,9,0,0,0,0,[0],1,27,"[1, 3, 4, 5, 6, 7, 8, 9, 10, 11, 13, 14, 15, 16, 17, 18, 19, 20, 21, 22, 23, 24, 25, 26, 27, 28, 29]",300,131,-1,2,182,10,0.0
basic,78,9,0,0,0,10,"[0, 10]",2,22,"[3, 4, 5, 6, 7, 8, 9, 11, 13, 15, 16, 17, 18, 19, 20, 21, 22, 23, 25, 26, 27, 28]",245.6676892,2708,2577,5,195,9,1.0
basic,78,9,0,0,0,8,"[0, 10, 8]",3,20,"[3, 4, 5, 7, 9, 11, 13, 15, 16, 17, 18, 19, 20, 21, 22, 23, 25, 26, 27, 28]",197.2941427,4137,1429,3,50,9,1.6102923877889634
basic,78,9,0,0,0,28,"[0, 10, 8, 28]",4,19,"[3, 4, 5, 7, 9, 11, 13, 15, 16, 17, 18, 19, 20, 21, 22, 23, 25, 26, 27]",186.4774889,4823,686,2,25,9,1.528377012595975
basic,78,9,0,0,0,23,"[0, 10, 8, 28, 23]",5,13,"[3, 4, 7, 9, 11, 18, 19, 20, 21, 22, 25, 26, 27]",161.4574968,5510,687,2,12,9,2.3268849491132118
basic,78,9,0,0,0,9,"[0, 10, 8, 28, 23, 9]",6,11,"[3, 4, 7, 11, 18, 19, 20, 21, 25, 26, 27]",139.0968171,6150,640,2,6,9,2.1607964611878296
basic,78,9,0,0,0,26,"[0, 10, 8, 28, 23, 9, 26]",7,3,"[18, 20, 21]",82.44878092,6980,830,2,1,9,1.8622029673999667
basic,78,9,0,1,0,26,"[0, 10, 8, 28, 23, 9, 26]",7,3,"[18, 20, 21]",82.44878092,7498,518,2,1,9,1.8622029673999667
basic,79,30,0,0,0,0,[0],1,19,"[3, 4, 5, 7, 9, 11, 16, 17, 18, 19, 20, 21, 22, 24, 25, 26, 27, 28, 29]",300,116,-1,5,41,8,0.0
basic,79,30,0,0,0,16,"[0, 16]",2,17,"[3, 5, 7, 9, 11, 17, 18, 19, 20, 21, 22, 24, 25, 26, 27, 28, 29]",219.3774225,4072,3956,5,34,8,1.0
basic,79,30,0,0,0,25,"[0, 16, 25]",3,10,"[3, 5, 7, 9, 11, 18, 19, 20, 27, 29]",115.0845656,6286,2214,5,28,8,1.0336279544884488
basic,79,30,0,0,0,20,"[0, 16, 25, 20]",4,8,"[3, 5, 7, 9, 18, 19, 27, 29]",93.15285342,7109,823,4,14,8,1.0337964627284246
basic,79,30,0,0,0,27,"[0, 16, 25, 20, 27]",5,4,"[3, 5, 18, 29]",59.09408069,7852,743,4,6,8,1.1504365534848
basic,79,30,0,1,0,27,"[0, 16, 25, 20, 27]",5,4,"[3, 5, 18, 29]",59.09408069,9216,1364,4,6,8,1.1504365534848
basic,80,13,0,0,0,0,[0],1,29,"[1, 2, 3, 4, 5, 6, 7, 8, 9, 10, 11, 12, 13, 14, 15, 16, 17, 18, 19, 20, 21, 22, 23, 24, 25, 26, 27, 28, 29]",300,131,-1,60,2676,11,0.0
basic,80,13,0,0,0,24,"[0, 24]",2,28,"[1, 2, 3, 4, 5, 6, 7, 8, 9, 10, 11, 12, 13, 14, 15, 16, 17, 18, 19, 20, 21, 22, 23, 25, 26, 27, 28, 29]",288.8196601,9791,9660,16,1444,11,1.0
basic,80,13,0,0,0,23,"[0, 24, 23]",3,27,"[1, 2, 3, 4, 5, 6, 7, 8, 9, 10, 11, 12, 13, 14, 15, 16, 17, 18, 19, 20, 21, 22, 25, 26, 27, 28, 29]",243.1140806,10606,815,2,868,11,1.0065545717039834
basic,80,13,0,0,0,26,"[0, 24, 23, 26]",4,20,"[1, 2, 3, 4, 6, 7, 9, 11, 12, 13, 15, 16, 17, 19, 20, 21, 22, 27, 28, 29]",183.574178,12829,2223,156,611,10,1.2169355597123794
basic,80,13,0,0,0,6,"[0, 24, 23, 26, 6]",5,18,"[1, 2, 3, 4, 7, 9, 11, 12, 13, 15, 16, 17, 19, 20, 21, 27, 28, 29]",163.4744268,14090,1261,30,118,10,1.2574059895322358
basic,80,13,0,0,0,7,"[0, 24, 23, 26, 6, 7]",6,17,"[1, 2, 3, 4, 9, 11, 12, 13, 15, 16, 17, 19, 20, 21, 27, 28, 29]",142.6657747,14868,778,9,40,10,1.494697560981571
basic,80,13,0,0,0,29,"[0, 24, 23, 26, 6, 7, 29]",7,8,"[1, 2, 11, 13, 16, 17, 19, 28]",127.4014372,15504,636,4,15,10,1.5506687993021562
basic,80,13,0,0,0,2,"[0, 24, 23, 26, 6, 7, 29, 2]",8,7,"[1, 11, 13, 16, 17, 19, 28]",115.6967373,16084,580,4,4,10,1.6817503233329283
basic,80,13,0,0,0,28,"[0, 24, 23, 26, 6, 7, 29, 2, 28]",9,2,"[11, 19]",78.05367683,17023,939,2,0,10,3.012229337061442
basic,80,13,0,1,0,28,"[0, 24, 23, 26, 6, 7, 29, 2, 28]",9,2,"[11, 19]",78.05367683,17714,691,2,0,10,3.012229337061442
basic,81,44,0,0,0,0,[0],1,29,"[1, 2, 3, 4, 5, 6, 7, 8, 9, 10, 11, 12, 13, 14, 15, 16, 17, 18, 19, 20, 21, 22, 23, 24, 25, 26, 27, 28, 29]",300,115,-1,13,126,7,0.0
basic,81,44,0,0,0,11,"[0, 11]",2,18,"[4, 5, 6, 7, 8, 9, 12, 14, 16, 17, 19, 20, 22, 23, 24, 25, 26, 28]",152.7790776,1841,1726,5,34,7,1.0
basic,81,44,0,0,0,24,"[0, 11, 24]",3,13,"[4, 5, 7, 8, 9, 12, 14, 17, 20, 22, 23, 25, 28]",125.8532535,2537,696,5,23,7,1.1588941745226709
basic,81,44,0,0,0,9,"[0, 11, 24, 9]",4,7,"[4, 7, 8, 12, 14, 20, 23]",93.09657483,3166,629,2,8,7,1.3039383713641313
basic,81,44,0,0,0,4,"[0, 11, 24, 9, 4]",5,5,"[7, 12, 14, 20, 23]",73.39885923,3878,712,2,3,7,1.2901330701441578
basic,81,44,0,1,0,4,"[0, 11, 24, 9, 4]",5,5,"[7, 12, 14, 20, 23]",73.39885923,4399,521,2,3,7,1.2901330701441578
basic,82,18,0,0,0,0,[0],1,28,"[1, 2, 3, 4, 5, 6, 7, 8, 9, 10, 11, 12, 13, 14, 16, 17, 18, 19, 20, 21, 22, 23, 24, 25, 26, 27, 28, 29]",300,131,-1,3,136,10,0.0
basic,82,18,0,0,0,28,"[0, 28]",2,16,"[1, 3, 5, 7, 8, 9, 12, 13, 14, 16, 20, 23, 24, 25, 26, 27]",236.4311397,2201,2070,2,19,10,1.0
basic,82,18,0,0,0,7,"[0, 28, 7]",3,15,"[1, 3, 5, 8, 9, 12, 13, 14, 16, 20, 23, 24, 25, 26, 27]",214.4084242,2847,646,2,17,10,1.4345180696367563
basic,82,18,0,0,0,25,"[0, 28, 7, 25]",4,13,"[1, 3, 5, 8, 9, 12, 13, 14, 16, 20, 23, 26, 27]",186.6055466,3584,737,2,15,10,1.8896451241781882
