condition,trial_id,map_id,undoIndicator,submit,checkEnd,currentChoice,chosen_all,n_city_all,n_within_reach,cities_reach,currentBudget,time_all,rt_all,n_opt_paths_all,n_subopt_paths_all,mas_all,tortuosity_all
basic,0,4,0,0,0,0,[0],1,26,"[3, 4, 5, 6, 7, 8, 10, 11, 12, 13, 14, 15, 16, 17, 18, 19, 20, 21, 22, 23, 24, 25, 26, 27, 28, 29]",300,129,-1,4,489,10,0.0
basic,0,4,0,0,0,13,"[0, 13]",2,23,"[3, 4, 5, 6, 7, 10, 11, 12, 14, 15, 16, 17, 19, 20, 21, 22, 23, 24, 25, 26, 27, 28, 29]",232.1030192,43851,43722,2,270,10,1.0
basic,0,4,0,0,0,28,"[0, 13, 28]",3,19,"[3, 4, 5, 6, 10, 11, 12, 14, 15, 16, 17, 19, 20, 21, 22, 23, 24, 25, 26]",200.5277124,46464,2613,2,221,10,1.3431168257921573
basic,0,4,0,0,0,14,"[0, 13, 28, 14]",4,11,"[3, 4, 5, 6, 11, 16, 17, 20, 21, 22, 25]",134.2857318,61452,14988,28,123,9,1.2134786195381546
basic,0,4,0,0,0,25,"[0, 13, 28, 14, 25]",5,10,"[3, 4, 5, 6, 11, 16, 17, 20, 21, 22]",118.1612163,63764,2312,22,51,9,1.4339367384350254
basic,0,4,0,0,0,11,"[0, 13, 28, 14, 25, 11]",6,9,"[3, 4, 5, 6, 16, 17, 20, 21, 22]",99.37292203,64776,1012,11,18,9,1.632788140935394
basic,0,4,0,0,0,16,"[0, 13, 28, 14, 25, 11, 16]",7,6,"[3, 5, 17, 20, 21, 22]",84.37292203,65698,922,9,2,9,1.5642820747024264
basic,0,4,0,0,0,17,"[0, 13, 28, 14, 25, 11, 16, 17]",8,4,"[3, 20, 21, 22]",58.29611241,67178,1480,4,0,9,1.4745445015567764
basic,0,4,0,0,1,3,"[0, 13, 28, 14, 25, 11, 16, 17, 3]",9,0,[],33.78081107,68978,1800,1,0,9,1.5263697522111268
basic,0,4,0,1,1,3,"[0, 13, 28, 14, 25, 11, 16, 17, 3]",9,0,[],33.78081107,73150,4172,1,0,9,1.5263697522111268
basic,1,41,0,0,0,0,[0],1,29,"[1, 2, 3, 4, 5, 6, 7, 8, 9, 10, 11, 12, 13, 14, 15, 16, 17, 18, 19, 20, 21, 22, 23, 24, 25, 26, 27, 28, 29]",300,114,-1,1,143,10,0.0
basic,1,41,0,0,0,28,"[0, 28]",2,27,"[1, 2, 3, 5, 6, 7, 8, 9, 10, 11, 12, 13, 14, 15, 16, 17, 18, 19, 20, 21, 22, 23, 24, 25, 26, 27, 29]",259.8004975,13264,13150,37,249,9,1.0
basic,1,41,0,0,0,5,"[0, 28, 5]",3,26,"[1, 2, 3, 6, 7, 8, 9, 10, 11, 12, 13, 14, 15, 16, 17, 18, 19, 20, 21, 22, 23, 24, 25, 26, 27, 29]",246.199027,16130,2866,30,182,9,1.714241539747437
basic,1,41,0,0,0,22,"[0, 28, 5, 22]",4,22,"[1, 2, 3, 6, 7, 8, 9, 10, 11, 12, 13, 14, 16, 17, 18, 19, 20, 21, 23, 24, 25, 27]",191.4541642,44797,28667,7,30,9,1.5739547554580093
basic,1,41,0,0,0,3,"[0, 28, 5, 22, 3]",5,14,"[2, 6, 9, 10, 12, 13, 14, 17, 18, 19, 20, 21, 25, 27]",161.4875161,45477,680,7,17,9,3.49573973620446
basic,1,41,0,0,0,21,"[0, 28, 5, 22, 3, 21]",6,8,"[2, 9, 10, 12, 13, 14, 17, 25]",129.3471987,47314,1837,7,6,9,3.491446139563656
basic,1,41,0,0,0,17,"[0, 28, 5, 22, 3, 21, 17]",7,3,"[2, 9, 10]",77.68483333,60605,13291,2,1,9,3.50722901785028
basic,1,41,0,0,0,9,"[0, 28, 5, 22, 3, 21, 17, 9]",8,1,[2],46.6687085,61893,1288,1,0,9,3.0784376539741842
basic,1,41,0,0,1,2,"[0, 28, 5, 22, 3, 21, 17, 9, 2]",9,0,[],34.58566252,63209,1316,1,0,9,2.9335163240466624
basic,1,41,0,1,1,2,"[0, 28, 5, 22, 3, 21, 17, 9, 2]",9,0,[],34.58566252,71629,8420,1,0,9,2.9335163240466624
basic,2,11,0,0,0,0,[0],1,25,"[1, 2, 3, 4, 5, 6, 8, 9, 10, 11, 12, 13, 14, 15, 16, 17, 18, 19, 20, 22, 23, 25, 26, 27, 28]",300,114,-1,6,374,12,0.0
basic,2,11,0,0,0,18,"[0, 18]",2,21,"[1, 2, 4, 5, 6, 8, 9, 11, 12, 13, 14, 15, 16, 17, 19, 20, 22, 23, 25, 27, 28]",236.8493864,14202,14088,157,1477,11,1.0
basic,2,11,0,0,0,27,"[0, 18, 27]",3,19,"[1, 2, 4, 5, 6, 8, 9, 11, 12, 14, 15, 16, 17, 19, 20, 22, 23, 25, 28]",212.9956655,16012,1810,157,1315,11,1.060949579704323
basic,2,11,0,0,0,17,"[0, 18, 27, 17]",4,14,"[1, 2, 4, 5, 6, 8, 11, 12, 15, 19, 22, 23, 25, 28]",135.9177828,17284,1272,46,349,11,1.1156120043677304
basic,2,11,0,0,0,8,"[0, 18, 27, 17, 8]",5,11,"[1, 2, 5, 6, 11, 12, 15, 19, 22, 25, 28]",121.5999617,19612,2328,26,143,11,1.2285932943120847
basic,2,11,0,0,0,15,"[0, 18, 27, 17, 8, 15]",6,9,"[2, 5, 6, 11, 12, 19, 22, 25, 28]",108.1463377,20596,984,24,54,11,1.223015425852291
basic,2,11,0,0,0,11,"[0, 18, 27, 17, 8, 15, 11]",7,6,"[2, 5, 12, 19, 22, 28]",90.03556742,21468,872,22,2,11,1.2111003833550413
basic,2,11,0,0,0,5,"[0, 18, 27, 17, 8, 15, 11, 5]",8,3,"[2, 22, 28]",54.80773752,24145,2677,5,1,11,1.5070858562662883
basic,2,11,0,0,0,28,"[0, 18, 27, 17, 8, 15, 11, 5, 28]",9,2,"[2, 22]",36.9191937,25222,1077,2,0,11,1.5224287982960607
basic,2,11,0,0,0,2,"[0, 18, 27, 17, 8, 15, 11, 5, 28, 2]",10,1,[22],26.28904788,27317,2095,1,0,11,1.5334969671993883
basic,2,11,0,0,1,22,"[0, 18, 27, 17, 8, 15, 11, 5, 28, 2, 22]",11,0,[],16.23917226,28231,914,1,0,11,1.5050924702228456
basic,2,11,0,1,1,22,"[0, 18, 27, 17, 8, 15, 11, 5, 28, 2, 22]",11,0,[],16.23917226,31674,3443,1,0,11,1.5050924702228456
basic,3,33,0,0,0,0,[0],1,23,"[1, 2, 5, 7, 8, 11, 12, 13, 14, 15, 16, 17, 18, 19, 20, 21, 23, 24, 25, 26, 27, 28, 29]",300,115,-1,5,108,9,0.0
basic,3,33,0,0,0,21,"[0, 21]",2,17,"[2, 5, 7, 8, 11, 13, 14, 16, 17, 18, 19, 20, 24, 26, 27, 28, 29]",174.4611614,30079,29964,21,129,8,1.0
basic,3,33,0,0,0,13,"[0, 21, 13]",3,15,"[2, 5, 7, 8, 11, 14, 16, 17, 18, 19, 20, 24, 26, 28, 29]",148.0604038,37949,7870,17,72,8,1.0001005298764474
basic,3,33,0,0,0,19,"[0, 21, 13, 19]",4,11,"[7, 11, 14, 16, 17, 18, 20, 24, 26, 28, 29]",122.5653063,44007,6058,10,27,8,1.0588446738393702
basic,3,33,0,0,0,24,"[0, 21, 13, 19, 24]",5,7,"[7, 14, 16, 18, 26, 28, 29]",80.51771417,46650,2643,3,5,8,1.078006777679028
basic,3,33,0,0,0,7,"[0, 21, 13, 19, 24, 7]",6,3,"[14, 26, 29]",51.31155044,48130,1480,3,1,8,1.1669985062633954
basic,3,33,0,0,0,14,"[0, 21, 13, 19, 24, 7, 14]",7,2,"[26, 29]",36.44548169,49412,1282,2,0,8,1.2148465775488593
basic,3,33,0,0,1,26,"[0, 21, 13, 19, 24, 7, 14, 26]",8,0,[],23.79637105,51868,2456,1,0,8,1.2208379656544521
basic,3,33,0,1,1,26,"[0, 21, 13, 19, 24, 7, 14, 26]",8,0,[],23.79637105,58685,6817,1,0,8,1.2208379656544521
basic,4,9,0,0,0,0,[0],1,27,"[1, 3, 4, 5, 6, 7, 8, 9, 10, 11, 13, 14, 15, 16, 17, 18, 19, 20, 21, 22, 23, 24, 25, 26, 27, 28, 29]",300,115,-1,2,182,10,0.0
basic,4,9,0,0,0,25,"[0, 25]",2,24,"[1, 3, 4, 5, 6, 7, 8, 9, 10, 11, 13, 15, 16, 17, 18, 19, 20, 21, 22, 23, 24, 26, 27, 28]",275.9168108,44154,44039,2,104,10,1.0
basic,4,9,0,0,0,10,"[0, 25, 10]",3,20,"[3, 4, 5, 7, 8, 9, 11, 13, 15, 16, 17, 18, 19, 20, 21, 22, 23, 26, 27, 28]",236.0670932,45333,1179,2,76,10,1.1767014107208227
basic,4,9,0,0,0,28,"[0, 25, 10, 28]",4,19,"[3, 4, 5, 7, 8, 9, 11, 13, 15, 16, 17, 18, 19, 20, 21, 22, 23, 26, 27]",179.0670932,68323,22990,1,17,10,1.628144700364468
basic,4,9,0,0,0,8,"[0, 25, 10, 28, 8]",5,15,"[3, 4, 7, 9, 11, 16, 17, 18, 19, 20, 21, 22, 23, 26, 27]",168.2504393,69723,1400,1,10,10,2.0656593525143574
basic,4,9,0,0,0,23,"[0, 25, 10, 28, 8, 23]",6,12,"[3, 4, 7, 9, 11, 18, 19, 20, 21, 22, 26, 27]",146.7795288,71981,2258,1,7,10,2.573408160646792
basic,4,9,0,0,0,9,"[0, 25, 10, 28, 8, 23, 9]",7,9,"[3, 4, 7, 11, 18, 19, 20, 21, 26]",124.418849,72971,990,1,5,10,2.3579094141840375
basic,4,9,0,0,0,26,"[0, 25, 10, 28, 8, 23, 9, 26]",8,3,"[18, 20, 21]",67.77081284,74627,1656,1,2,10,1.9878439811785502
basic,4,9,0,0,0,21,"[0, 25, 10, 28, 8, 23, 9, 26, 21]",9,1,[20],13.86348496,75725,1098,1,0,10,2.4139880801675853
basic,4,9,0,0,1,20,"[0, 25, 10, 28, 8, 23, 9, 26, 21, 20]",10,0,[],1.780438983,76561,836,1,0,10,2.3546911124891037
basic,4,9,0,1,1,20,"[0, 25, 10, 28, 8, 23, 9, 26, 21, 20]",10,0,[],1.780438983,86331,9770,1,0,10,2.3546911124891037
basic,5,42,0,0,0,0,[0],1,29,"[1, 2, 3, 4, 5, 6, 7, 8, 9, 10, 11, 12, 13, 14, 15, 16, 17, 18, 19, 20, 21, 22, 23, 24, 25, 26, 27, 28, 29]",300,126,-1,16,302,9,0.0
basic,5,42,0,0,0,4,"[0, 4]",2,28,"[1, 2, 3, 5, 6, 7, 8, 9, 10, 11, 12, 13, 14, 15, 16, 17, 18, 19, 20, 21, 22, 23, 24, 25, 26, 27, 28, 29]",209.5290102,25687,25561,4,80,9,1.0
basic,5,42,0,0,0,22,"[0, 4, 22]",3,24,"[1, 2, 3, 5, 6, 7, 8, 9, 10, 11, 13, 15, 17, 18, 19, 20, 21, 23, 24, 25, 26, 27, 28, 29]",198.3486703,29225,3538,3,53,9,1.1473032812120834
basic,5,42,0,0,0,5,"[0, 4, 22, 5]",4,20,"[1, 2, 3, 7, 8, 9, 10, 11, 13, 15, 18, 19, 20, 21, 23, 24, 25, 26, 27, 29]",170.1174819,30945,1720,1,14,9,1.1948051397585588
basic,5,42,0,0,0,8,"[0, 4, 22, 5, 8]",5,13,"[1, 2, 3, 7, 11, 15, 18, 19, 24, 25, 26, 27, 29]",135.6356026,32829,1884,1,10,9,1.5287231236031107
basic,5,42,0,0,0,1,"[0, 4, 22, 5, 8, 1]",6,5,"[2, 7, 19, 26, 27]",86.54385173,34177,1348,1,7,9,1.3707327746710105
basic,5,42,0,0,0,7,"[0, 4, 22, 5, 8, 1, 7]",7,4,"[2, 19, 26, 27]",56.54385173,35577,1400,1,3,9,1.4053605201578234
basic,5,42,0,0,0,26,"[0, 4, 22, 5, 8, 1, 7, 26]",8,1,[27],29.97319122,36531,954,1,0,9,1.3637717615151517
basic,5,42,0,0,1,27,"[0, 4, 22, 5, 8, 1, 7, 26, 27]",9,0,[],11.94543484,37695,1164,1,0,9,1.3508808991256835
basic,5,42,0,1,1,27,"[0, 4, 22, 5, 8, 1, 7, 26, 27]",9,0,[],11.94543484,38711,1016,1,0,9,1.3508808991256835
basic,6,36,0,0,0,0,[0],1,24,"[2, 4, 5, 6, 7, 8, 9, 10, 12, 13, 14, 15, 16, 17, 18, 19, 20, 22, 23, 25, 26, 27, 28, 29]",300,148,-1,2,200,10,0.0
basic,6,36,0,0,0,12,"[0, 12]",2,23,"[2, 4, 5, 6, 7, 8, 9, 10, 13, 14, 15, 16, 17, 18, 19, 20, 22, 23, 25, 26, 27, 28, 29]",277.7963967,25920,25772,90,804,9,1.0
basic,6,36,0,0,0,13,"[0, 12, 13]",3,18,"[2, 4, 7, 8, 9, 10, 16, 17, 18, 19, 20, 22, 23, 25, 26, 27, 28, 29]",198.6193798,27211,1291,15,125,9,1.033635478646562
basic,6,36,0,0,0,25,"[0, 12, 13, 25]",4,12,"[2, 4, 8, 9, 10, 16, 17, 18, 19, 23, 27, 29]",178.0281195,29035,1824,13,50,9,1.0653480204572918
basic,6,36,0,0,0,2,"[0, 12, 13, 25, 2]",5,9,"[4, 8, 9, 10, 16, 17, 18, 19, 27]",153.0281195,32731,3696,13,13,9,1.3014517483013393
basic,6,36,0,0,0,16,"[0, 12, 13, 25, 2, 16]",6,3,"[9, 17, 19]",86.37978873,40251,7520,2,4,9,2.0013511336875456
basic,6,36,0,0,0,17,"[0, 12, 13, 25, 2, 16, 17]",7,2,"[9, 19]",58.06018421,41149,898,2,0,9,2.5598155837356384
basic,6,36,0,0,0,9,"[0, 12, 13, 25, 2, 16, 17, 9]",8,1,[19],31.81137471,42449,1300,1,0,9,3.883123155025391
basic,6,36,0,0,1,19,"[0, 12, 13, 25, 2, 16, 17, 9, 19]",9,0,[],16.67862876,44229,1780,1,0,9,3.6757804100413307
basic,6,36,0,1,1,19,"[0, 12, 13, 25, 2, 16, 17, 9, 19]",9,0,[],16.67862876,53016,8787,1,0,9,3.6757804100413307
basic,7,34,0,0,0,0,[0],1,25,"[1, 3, 4, 5, 6, 7, 8, 9, 10, 11, 12, 13, 15, 18, 19, 20, 21, 22, 23, 24, 25, 26, 27, 28, 29]",300,147,-1,12,367,10,0.0
basic,7,34,0,0,0,13,"[0, 13]",2,24,"[1, 3, 4, 5, 6, 7, 8, 9, 10, 11, 12, 15, 18, 19, 20, 21, 22, 23, 24, 25, 26, 27, 28, 29]",279.9750156,13255,13108,12,331,10,1.0
basic,7,34,0,0,0,1,"[0, 13, 1]",3,16,"[3, 5, 7, 8, 9, 10, 11, 12, 19, 21, 22, 23, 24, 25, 27, 29]",211.8574701,15195,1940,3,92,10,1.0010381285747127
basic,7,34,0,0,0,8,"[0, 13, 1, 8]",4,14,"[3, 5, 7, 9, 10, 11, 12, 19, 22, 23, 24, 25, 27, 29]",201.0871405,17142,1947,2,54,10,1.1636807
basic,7,34,0,0,0,25,"[0, 13, 1, 8, 25]",5,12,"[3, 5, 7, 9, 10, 11, 12, 22, 23, 24, 27, 29]",183.999133,20785,3643,2,28,10,1.1396208815936457
basic,7,34,0,0,0,24,"[0, 13, 1, 8, 25, 24]",6,11,"[3, 5, 7, 9, 10, 11, 12, 22, 23, 27, 29]",166.5062774,22349,1564,2,23,10,1.374180768736554
basic,7,34,0,0,0,12,"[0, 13, 1, 8, 25, 24, 12]",7,7,"[7, 9, 10, 11, 22, 23, 27]",115.4670767,24099,1750,1,8,10,1.4994254760835948
basic,7,34,0,0,0,7,"[0, 13, 1, 8, 25, 24, 12, 7]",8,5,"[9, 11, 22, 23, 27]",100.4337804,25327,1228,1,4,10,1.758992610425009
basic,7,34,0,0,0,23,"[0, 13, 1, 8, 25, 24, 12, 7, 23]",9,1,[27],72.27352467,26375,1048,1,0,10,2.399781305190153
basic,7,34,0,0,1,27,"[0, 13, 1, 8, 25, 24, 12, 7, 23, 27]",10,0,[],18.60789321,27471,1096,1,0,10,4.766619878750327
basic,7,34,0,1,1,27,"[0, 13, 1, 8, 25, 24, 12, 7, 23, 27]",10,0,[],18.60789321,34784,7313,1,0,10,4.766619878750327
basic,8,44,0,0,0,0,[0],1,29,"[1, 2, 3, 4, 5, 6, 7, 8, 9, 10, 11, 12, 13, 14, 15, 16, 17, 18, 19, 20, 21, 22, 23, 24, 25, 26, 27, 28, 29]",300,114,-1,13,126,7,0.0
basic,8,44,0,0,0,8,"[0, 8]",2,17,"[1, 4, 5, 7, 9, 10, 11, 12, 13, 14, 15, 20, 21, 23, 24, 25, 27]",145.7923478,31045,30931,1,10,7,1.0
basic,8,44,0,0,0,20,"[0, 8, 20]",3,16,"[1, 4, 5, 7, 9, 10, 11, 12, 13, 14, 15, 21, 23, 24, 25, 27]",133.7093018,32329,1284,1,9,7,1.0890794433668698
basic,8,44,0,0,0,9,"[0, 8, 20, 9]",4,7,"[4, 7, 11, 12, 14, 23, 24]",76.43801756,40989,8660,1,6,7,1.40892325509949
basic,8,44,0,0,0,4,"[0, 8, 20, 9, 4]",5,4,"[7, 12, 23, 24]",56.74030196,44033,3044,1,3,7,1.3849770570803555
basic,8,44,0,0,0,7,"[0, 8, 20, 9, 4, 7]",6,1,[23],25.72417712,44989,956,1,0,7,1.3274380931474288
basic,8,44,0,0,1,23,"[0, 8, 20, 9, 4, 7, 23]",7,0,[],6.619203947,45857,868,1,0,7,1.3395824779823196
basic,8,44,0,1,1,23,"[0, 8, 20, 9, 4, 7, 23]",7,0,[],6.619203947,47278,1421,1,0,7,1.3395824779823196
basic,9,25,0,0,0,0,[0],1,28,"[1, 2, 3, 4, 5, 7, 8, 9, 10, 11, 12, 13, 14, 15, 16, 17, 18, 19, 20, 21, 22, 23, 24, 25, 26, 27, 28, 29]",300,115,-1,5,94,10,0.0
basic,9,25,0,0,0,23,"[0, 23]",2,23,"[1, 2, 3, 5, 7, 8, 9, 11, 12, 13, 14, 16, 17, 19, 20, 21, 22, 24, 25, 26, 27, 28, 29]",259.7756293,6834,6719,3,33,10,1.0
basic,9,25,0,0,0,19,"[0, 23, 19]",3,21,"[1, 2, 3, 5, 7, 8, 9, 11, 12, 13, 14, 16, 17, 20, 21, 22, 24, 25, 27, 28, 29]",223.9287326,8213,1379,3,24,10,1.583101227007039
basic,9,25,0,0,0,29,"[0, 23, 19, 29]",4,19,"[1, 2, 3, 5, 7, 8, 9, 11, 12, 13, 14, 16, 17, 20, 21, 22, 24, 25, 28]",207.649912,9956,1743,3,17,10,1.474631541426484
basic,9,25,0,0,0,22,"[0, 23, 19, 29, 22]",5,18,"[1, 2, 3, 5, 7, 8, 9, 11, 12, 13, 14, 16, 17, 20, 21, 24, 25, 28]",191.5253965,10844,888,3,14,10,1.4020377754906637
basic,9,25,0,0,0,7,"[0, 23, 19, 29, 22, 7]",6,7,"[3, 8, 9, 11, 13, 24, 28]",115.8814939,12093,1249,3,11,10,1.5709678649326715
basic,9,25,0,0,0,24,"[0, 23, 19, 29, 22, 7, 24]",7,5,"[3, 8, 9, 13, 28]",91.12265712,13088,995,3,7,10,1.486191600033379
basic,9,25,0,0,0,9,"[0, 23, 19, 29, 22, 7, 24, 9]",8,4,"[3, 8, 13, 28]",73.09490075,14052,964,3,3,10,1.453504870342882
basic,9,25,0,0,0,3,"[0, 23, 19, 29, 22, 7, 24, 9, 3]",9,3,"[8, 13, 28]",42.82940885,15422,1370,3,0,10,1.388955167525479
basic,9,25,0,0,1,28,"[0, 23, 19, 29, 22, 7, 24, 9, 3, 28]",10,0,[],11.52445716,19178,3756,1,0,10,1.3331084120212044
basic,9,25,0,1,1,28,"[0, 23, 19, 29, 22, 7, 24, 9, 3, 28]",10,0,[],11.52445716,20988,1810,1,0,10,1.3331084120212044
basic,10,13,0,0,0,0,[0],1,29,"[1, 2, 3, 4, 5, 6, 7, 8, 9, 10, 11, 12, 13, 14, 15, 16, 17, 18, 19, 20, 21, 22, 23, 24, 25, 26, 27, 28, 29]",300,115,-1,60,2676,11,0.0
basic,10,13,0,0,0,24,"[0, 24]",2,28,"[1, 2, 3, 4, 5, 6, 7, 8, 9, 10, 11, 12, 13, 14, 15, 16, 17, 18, 19, 20, 21, 22, 23, 25, 26, 27, 28, 29]",288.8196601,4925,4810,16,1444,11,1.0
basic,10,13,0,0,0,28,"[0, 24, 28]",3,23,"[1, 2, 3, 4, 6, 7, 8, 9, 10, 11, 12, 13, 15, 16, 17, 19, 20, 21, 22, 23, 26, 27, 29]",222.5324064,5833,908,8,243,11,1.0513810491680837
basic,10,13,0,0,0,2,"[0, 24, 28, 2]",4,19,"[1, 3, 4, 6, 7, 9, 11, 12, 13, 15, 16, 17, 19, 20, 21, 23, 26, 27, 29]",184.889346,7397,1564,7,110,11,1.050374132001543
basic,10,13,0,0,0,29,"[0, 24, 28, 2, 29]",5,18,"[1, 3, 4, 6, 7, 9, 11, 12, 13, 15, 16, 17, 19, 20, 21, 23, 26, 27]",173.1846461,9559,2162,7,85,11,1.1393409619120594
basic,10,13,0,0,0,7,"[0, 24, 28, 2, 29, 7]",6,17,"[1, 3, 4, 6, 9, 11, 12, 13, 15, 16, 17, 19, 20, 21, 23, 26, 27]",157.9203086,10899,1340,5,45,11,1.349777315111579
basic,10,13,0,0,0,26,"[0, 24, 28, 2, 29, 7, 26]",7,16,"[1, 3, 4, 6, 9, 11, 12, 13, 15, 16, 17, 19, 20, 21, 23, 27]",147.480002,11719,820,5,25,11,1.5942082773824946
basic,10,13,0,0,0,6,"[0, 24, 28, 2, 29, 7, 26, 6]",8,12,"[1, 3, 4, 11, 13, 15, 16, 17, 19, 20, 23, 27]",127.3802508,14943,3224,4,12,11,1.5898347940840756
basic,10,13,0,0,0,11,"[0, 24, 28, 2, 29, 7, 26, 6, 11]",9,6,"[1, 13, 15, 16, 17, 23]",108.2752776,17645,2702,3,4,11,1.5029953945561012
basic,10,13,0,0,0,13,"[0, 24, 28, 2, 29, 7, 26, 6, 11, 13]",10,2,"[15, 17]",52.19497806,23835,6190,2,0,11,1.3655915863754327
basic,10,13,0,0,1,17,"[0, 24, 28, 2, 29, 7, 26, 6, 11, 13, 17]",11,0,[],18.81833952,25206,1371,1,0,11,1.4149038511024103
basic,10,13,0,1,1,17,"[0, 24, 28, 2, 29, 7, 26, 6, 11, 13, 17]",11,0,[],18.81833952,26523,1317,1,0,11,1.4149038511024103
basic,11,28,0,0,0,0,[0],1,27,"[1, 2, 3, 4, 5, 6, 7, 8, 9, 10, 11, 12, 13, 14, 15, 16, 17, 18, 19, 20, 22, 23, 25, 26, 27, 28, 29]",300,133,-1,2,96,9,0.0
basic,11,28,0,0,0,3,"[0, 3]",2,26,"[1, 2, 4, 5, 6, 7, 8, 9, 10, 11, 12, 13, 14, 15, 16, 17, 18, 19, 20, 22, 23, 25, 26, 27, 28, 29]",251.0817008,16405,16272,1,64,9,1.0
basic,11,28,0,0,0,5,"[0, 3, 5]",3,20,"[2, 4, 6, 7, 8, 9, 10, 11, 12, 13, 14, 15, 18, 19, 20, 23, 25, 26, 28, 29]",166.9865166,19286,2881,1,34,9,1.0203769473612083
basic,11,28,0,0,0,26,"[0, 3, 5, 26]",4,13,"[2, 4, 7, 8, 9, 12, 13, 14, 18, 19, 20, 25, 28]",134.2298379,20781,1495,1,28,9,1.0315203228799597
basic,11,28,0,0,0,19,"[0, 3, 5, 26, 19]",5,7,"[2, 7, 9, 12, 13, 14, 18]",93.22983789,23403,2622,1,17,9,1.1324645362297356
basic,11,28,0,0,0,7,"[0, 3, 5, 26, 19, 7]",6,5,"[2, 12, 13, 14, 18]",65.49898864,24399,996,1,6,9,1.1971194919020265
basic,11,28,0,0,0,12,"[0, 3, 5, 26, 19, 7, 12]",7,2,"[13, 18]",52.3460422,25123,724,1,1,9,1.2020762147848982
basic,11,28,0,0,0,13,"[0, 3, 5, 26, 19, 7, 12, 13]",8,1,[18],35.14139167,26377,1254,1,0,9,1.39005144078531
basic,11,28,0,0,1,18,"[0, 3, 5, 26, 19, 7, 12, 13, 18]",9,0,[],10.72828044,27315,938,1,0,9,1.738787343626007
basic,11,28,0,1,1,18,"[0, 3, 5, 26, 19, 7, 12, 13, 18]",9,0,[],10.72828044,30188,2873,1,0,9,1.738787343626007
basic,12,23,0,0,0,0,[0],1,28,"[1, 2, 3, 4, 5, 6, 7, 8, 9, 10, 11, 12, 13, 14, 15, 16, 17, 18, 19, 20, 21, 22, 23, 25, 26, 27, 28, 29]",300,117,-1,76,2626,10,0.0
basic,12,23,0,0,0,13,"[0, 13]",2,19,"[1, 2, 3, 5, 6, 7, 8, 9, 10, 12, 14, 17, 18, 19, 21, 22, 23, 27, 29]",189.3202819,19678,19561,9,168,10,1.0
basic,12,23,0,0,0,12,"[0, 13, 12]",3,16,"[1, 2, 3, 6, 7, 8, 9, 10, 14, 17, 18, 21, 22, 23, 27, 29]",177.2372359,22292,2614,9,96,10,1.0014195490503164
basic,12,23,0,0,0,9,"[0, 13, 12, 9]",4,13,"[1, 2, 3, 6, 7, 10, 14, 17, 18, 21, 22, 27, 29]",162.9194149,24360,2068,3,30,10,1.049232924848041
basic,12,23,0,0,0,14,"[0, 13, 12, 9, 14]",5,11,"[1, 2, 3, 6, 7, 10, 18, 21, 22, 27, 29]",152.4791083,25836,1476,1,9,10,1.047064109194793
basic,12,23,0,0,0,2,"[0, 13, 12, 9, 14, 2]",6,7,"[6, 7, 10, 18, 22, 27, 29]",137.6130396,26800,964,4,12,9,1.1900073741388617
basic,12,23,0,0,0,6,"[0, 13, 12, 9, 14, 2, 6]",7,5,"[7, 18, 22, 27, 29]",119.1739507,27436,636,3,3,9,1.2035561408942026
basic,12,23,0,0,0,27,"[0, 13, 12, 9, 14, 2, 6, 27]",8,2,"[18, 22]",90.87200729,28136,700,2,0,9,1.460613258021435
basic,12,23,0,0,1,18,"[0, 13, 12, 9, 14, 2, 6, 27, 18]",9,0,[],15.55932576,29578,1442,1,0,9,2.9597139353041295
basic,12,23,0,1,1,18,"[0, 13, 12, 9, 14, 2, 6, 27, 18]",9,0,[],15.55932576,42245,12667,1,0,9,2.9597139353041295
basic,13,8,0,0,0,0,[0],1,29,"[1, 2, 3, 4, 5, 6, 7, 8, 9, 10, 11, 12, 13, 14, 15, 16, 17, 18, 19, 20, 21, 22, 23, 24, 25, 26, 27, 28, 29]",300,115,-1,10,149,9,0.0
basic,13,8,0,0,0,25,"[0, 25]",2,22,"[1, 2, 3, 4, 5, 6, 7, 11, 12, 14, 15, 16, 17, 18, 19, 20, 21, 22, 23, 24, 28, 29]",230.992754,26104,25989,26,209,8,1.0
basic,13,8,0,0,0,14,"[0, 25, 14]",3,17,"[1, 3, 4, 5, 6, 11, 15, 16, 17, 18, 19, 20, 21, 22, 23, 24, 28]",185.8928649,30128,4024,6,43,8,1.3355229995367857
basic,13,8,0,0,0,17,"[0, 25, 14, 17]",4,13,"[1, 4, 5, 6, 11, 15, 16, 18, 19, 22, 23, 24, 28]",148.8793538,30894,766,5,18,8,1.3835777845837804
basic,13,8,0,0,0,11,"[0, 25, 14, 17, 11]",5,8,"[1, 5, 15, 16, 18, 23, 24, 28]",123.6999972,34738,3844,5,5,8,1.3466257365740992
basic,13,8,0,0,0,24,"[0, 25, 14, 17, 11, 24]",6,3,"[15, 16, 28]",86.48440907,36598,1860,2,2,8,1.2967995285731058
basic,13,8,0,0,0,15,"[0, 25, 14, 17, 11, 24, 15]",7,2,"[16, 28]",69.72135445,40257,3659,2,0,8,1.3655871252042142
basic,13,8,0,0,1,16,"[0, 25, 14, 17, 11, 24, 15, 16]",8,0,[],18.6429833,41723,1466,1,0,8,1.5196060339315944
basic,13,8,0,1,1,16,"[0, 25, 14, 17, 11, 24, 15, 16]",8,0,[],18.6429833,47279,5556,1,0,8,1.5196060339315944
basic,14,7,0,0,0,0,[0],1,29,"[1, 2, 3, 4, 5, 6, 7, 8, 9, 10, 11, 12, 13, 14, 15, 16, 17, 18, 19, 20, 21, 22, 23, 24, 25, 26, 27, 28, 29]",300,115,-1,3,79,9,0.0
basic,14,7,0,0,0,25,"[0, 25]",2,20,"[2, 3, 4, 5, 6, 7, 10, 13, 14, 15, 16, 18, 19, 20, 21, 22, 23, 24, 27, 28]",181.5939191,63289,63174,5,33,8,1.0
basic,14,7,0,0,0,4,"[0, 25, 4]",3,11,"[2, 6, 7, 13, 15, 16, 18, 19, 20, 21, 23]",156.8552853,65620,2331,2,14,8,1.0193465608331511
basic,14,7,0,0,0,18,"[0, 25, 4, 18]",4,9,"[2, 6, 7, 13, 15, 16, 19, 20, 23]",129.3962249,69352,3732,1,5,8,1.1916065795930246
basic,14,7,0,0,0,20,"[0, 25, 4, 18, 20]",5,6,"[2, 6, 7, 13, 16, 19]",116.5899764,70646,1294,1,3,8,1.2234405717683847
basic,14,7,0,0,0,7,"[0, 25, 4, 18, 20, 7]",6,2,"[2, 19]",76.09306295,71874,1228,1,1,8,1.2239555491812688
basic,14,7,0,0,0,19,"[0, 25, 4, 18, 20, 7, 19]",7,1,[2],46.68218061,72736,862,1,0,8,1.3391068453377923
basic,14,7,0,0,1,2,"[0, 25, 4, 18, 20, 7, 19, 2]",8,0,[],16.53255375,74102,1366,1,0,8,1.3506108516978905
basic,14,7,0,1,1,2,"[0, 25, 4, 18, 20, 7, 19, 2]",8,0,[],16.53255375,79491,5389,1,0,8,1.3506108516978905
basic,15,1,0,0,0,0,[0],1,26,"[1, 2, 4, 5, 7, 8, 9, 10, 11, 12, 13, 14, 15, 16, 17, 18, 19, 20, 21, 22, 23, 24, 25, 26, 28, 29]",300,124,-1,6,74,7,0.0
basic,15,1,0,0,0,14,"[0, 14]",2,19,"[1, 4, 5, 8, 9, 13, 15, 17, 18, 19, 20, 21, 22, 23, 24, 25, 26, 28, 29]",200.1901808,8529,8405,5,42,7,1.0
basic,15,1,0,0,0,17,"[0, 14, 17]",3,15,"[1, 4, 5, 8, 9, 13, 15, 18, 19, 20, 22, 23, 25, 28, 29]",147.8356204,10097,1568,5,27,7,1.0028844724416826
basic,15,1,0,0,0,1,"[0, 14, 17, 1]",4,12,"[4, 5, 8, 9, 15, 18, 20, 22, 23, 25, 28, 29]",123.4840291,12045,1948,5,15,7,1.0264985578353567
basic,15,1,0,0,0,28,"[0, 14, 17, 1, 28]",5,5,"[9, 15, 22, 23, 29]",88.59850198,13559,1514,5,3,7,1.0339861575999345
basic,15,1,0,0,0,23,"[0, 14, 17, 1, 28, 23]",6,2,"[15, 22]",51.70676849,15839,2280,2,0,7,1.0327458250705703
basic,15,1,0,0,1,15,"[0, 14, 17, 1, 28, 23, 15]",7,0,[],20.81987807,17095,1256,1,0,7,1.1948681641401226
basic,15,1,0,1,1,15,"[0, 14, 17, 1, 28, 23, 15]",7,0,[],20.81987807,20947,3852,1,0,7,1.1948681641401226
basic,16,40,0,0,0,0,[0],1,29,"[1, 2, 3, 4, 5, 6, 7, 8, 9, 10, 11, 12, 13, 14, 15, 16, 17, 18, 19, 20, 21, 22, 23, 24, 25, 26, 27, 28, 29]",300,149,-1,8,191,9,0.0
basic,16,40,0,0,0,1,"[0, 1]",2,18,"[2, 5, 6, 7, 8, 9, 10, 11, 13, 15, 17, 18, 19, 21, 22, 23, 27, 29]",247.8463808,8946,8797,4,80,9,1.0
basic,16,40,0,0,0,6,"[0, 1, 6]",3,17,"[2, 5, 7, 8, 9, 10, 11, 13, 15, 17, 18, 19, 21, 22, 23, 27, 29]",227.7466295,11491,2545,4,74,9,1.0459427008232034
basic,16,40,0,0,0,21,"[0, 1, 6, 21]",4,8,"[2, 5, 9, 17, 18, 19, 22, 23]",175.7754837,29800,18309,4,25,9,1.0308822257404064
basic,16,40,0,0,0,9,"[0, 1, 6, 21, 9]",5,6,"[2, 5, 18, 19, 22, 23]",130.0699041,31304,1504,4,12,9,1.377861912961129
basic,16,40,0,0,0,18,"[0, 1, 6, 21, 9, 18]",6,5,"[2, 5, 19, 22, 23]",113.5169588,32949,1645,4,4,9,1.5742712168661408
basic,16,40,0,0,0,5,"[0, 1, 6, 21, 9, 18, 5]",7,3,"[19, 22, 23]",81.94165198,35432,2483,2,1,9,1.7730665063055515
basic,16,40,0,0,0,19,"[0, 1, 6, 21, 9, 18, 5, 19]",8,1,[23],43.86278645,36402,970,1,0,9,2.4966727914503504
basic,16,40,0,0,1,23,"[0, 1, 6, 21, 9, 18, 5, 19, 23]",9,0,[],11.90969584,37670,1268,1,0,9,3.0374134989796913
basic,16,40,0,1,1,23,"[0, 1, 6, 21, 9, 18, 5, 19, 23]",9,0,[],11.90969584,41777,4107,1,0,9,3.0374134989796913
basic,17,16,0,0,0,0,[0],1,29,"[1, 2, 3, 4, 5, 6, 7, 8, 9, 10, 11, 12, 13, 14, 15, 16, 17, 18, 19, 20, 21, 22, 23, 24, 25, 26, 27, 28, 29]",300,115,-1,13,161,9,0.0
basic,17,16,0,0,0,28,"[0, 28]",2,27,"[1, 2, 3, 4, 5, 7, 8, 9, 10, 11, 12, 13, 14, 15, 16, 17, 18, 19, 20, 21, 22, 23, 24, 25, 26, 27, 29]",284.3475242,29170,29055,11,92,9,1.0
basic,17,16,0,0,0,17,"[0, 28, 17]",3,26,"[1, 2, 3, 4, 5, 7, 8, 9, 10, 11, 12, 13, 14, 15, 16, 18, 19, 20, 21, 22, 23, 24, 25, 26, 27, 29]",219.1555001,29926,756,10,46,9,1.3773866384707543
basic,17,16,0,0,0,16,"[0, 28, 17, 16]",4,25,"[1, 2, 3, 4, 5, 7, 8, 9, 10, 11, 12, 13, 14, 15, 18, 19, 20, 21, 22, 23, 24, 25, 26, 27, 29]",190.8358956,31226,1300,10,34,9,1.3209953830681203
basic,17,16,0,0,0,8,"[0, 28, 17, 16, 8]",5,12,"[3, 4, 5, 9, 12, 13, 15, 19, 20, 21, 25, 29]",142.4623491,33032,1806,6,19,9,1.2700932705506198
basic,17,16,0,0,0,20,"[0, 28, 17, 16, 8, 20]",6,6,"[4, 5, 9, 12, 15, 25]",84.6869218,34000,968,4,4,9,1.1899382910703262
basic,17,16,0,0,0,25,"[0, 28, 17, 16, 8, 20, 25]",7,3,"[5, 9, 15]",72.03781116,34622,622,2,2,9,1.2372268181049477
basic,17,16,0,0,0,9,"[0, 28, 17, 16, 8, 20, 25, 9]",8,2,"[5, 15]",59.23156268,35642,1020,2,0,9,1.221922950237529
basic,17,16,0,0,1,15,"[0, 28, 17, 16, 8, 20, 25, 9, 15]",9,0,[],20.334262,37197,1555,1,0,9,1.318239760375411
basic,17,16,0,1,1,15,"[0, 28, 17, 16, 8, 20, 25, 9, 15]",9,0,[],20.334262,41058,3861,1,0,9,1.318239760375411
basic,18,19,0,0,0,0,[0],1,29,"[1, 2, 3, 4, 5, 6, 7, 8, 9, 10, 11, 12, 13, 14, 15, 16, 17, 18, 19, 20, 21, 22, 23, 24, 25, 26, 27, 28, 29]",300,114,-1,12,149,8,0.0
basic,18,19,0,0,0,29,"[0, 29]",2,28,"[1, 2, 3, 4, 5, 6, 7, 8, 9, 10, 11, 12, 13, 14, 15, 16, 17, 18, 19, 20, 21, 22, 23, 24, 25, 26, 27, 28]",265.0715016,27536,27422,12,120,8,1.0
basic,18,19,0,0,0,9,"[0, 29, 9]",3,17,"[1, 4, 5, 6, 7, 10, 11, 12, 13, 14, 19, 20, 21, 22, 24, 27, 28]",181.7108394,41068,13532,11,65,8,1.0375842971861238
basic,18,19,0,0,0,6,"[0, 29, 9, 6]",4,12,"[4, 7, 10, 11, 13, 14, 20, 21, 22, 24, 27, 28]",140.2741407,44071,3003,11,34,8,1.0389786364356892
basic,18,19,0,0,0,14,"[0, 29, 9, 6, 14]",5,7,"[4, 10, 11, 20, 22, 24, 28]",80.59164747,58908,14837,3,6,8,1.0491884155331486
basic,18,19,0,0,0,11,"[0, 29, 9, 6, 14, 11]",6,5,"[4, 20, 22, 24, 28]",69.77499364,59952,1044,3,2,8,1.050030420094996
basic,18,19,0,0,0,20,"[0, 29, 9, 6, 14, 11, 20]",7,1,[22],21.97332003,61882,1930,1,0,8,1.2297732331070566
basic,18,19,0,0,1,22,"[0, 29, 9, 6, 14, 11, 20, 22]",8,0,[],8.82037359,63387,1505,1,0,8,1.3667995105273867
basic,18,19,0,1,1,22,"[0, 29, 9, 6, 14, 11, 20, 22]",8,0,[],8.82037359,74841,11454,1,0,8,1.3667995105273867
basic,19,31,0,0,0,0,[0],1,27,"[1, 3, 4, 5, 6, 7, 8, 10, 11, 12, 13, 14, 15, 16, 17, 18, 19, 20, 21, 22, 23, 24, 25, 26, 27, 28, 29]",300,114,-1,2,87,10,0.0
basic,19,31,0,0,0,27,"[0, 27]",2,26,"[1, 3, 4, 5, 6, 7, 8, 10, 11, 12, 13, 14, 15, 16, 17, 18, 19, 20, 21, 22, 23, 24, 25, 26, 28, 29]",259.5030865,10520,10406,14,191,9,1.0
basic,19,31,0,0,0,8,"[0, 27, 8]",3,23,"[1, 3, 5, 6, 7, 10, 11, 12, 13, 14, 15, 16, 17, 18, 19, 20, 21, 22, 24, 25, 26, 28, 29]",248.4577255,13419,2899,9,131,9,1.481736210960148
basic,19,31,0,0,0,18,"[0, 27, 8, 18]",4,19,"[1, 3, 5, 6, 7, 10, 11, 12, 13, 14, 16, 17, 19, 20, 21, 22, 25, 28, 29]",212.6108289,14617,1198,5,65,9,1.3573609555685873
basic,19,31,0,0,0,17,"[0, 27, 8, 18, 17]",5,14,"[1, 5, 6, 7, 11, 12, 13, 14, 16, 19, 20, 22, 25, 28]",183.4046651,15827,1210,4,35,9,1.288051401172667
basic,19,31,0,0,0,11,"[0, 27, 8, 18, 17, 11]",6,11,"[1, 5, 7, 12, 14, 16, 19, 20, 22, 25, 28]",142.2950555,16975,1148,3,7,9,2.5759979840041423
basic,19,31,0,0,0,5,"[0, 27, 8, 18, 17, 11, 5]",7,3,"[16, 25, 28]",98.61439621,19025,2050,2,1,9,2.29559828660968
basic,19,31,0,0,0,28,"[0, 27, 8, 18, 17, 11, 5, 28]",8,1,[16],78.3906478,20070,1045,1,0,9,2.0646336243139256
basic,19,31,0,0,1,16,"[0, 27, 8, 18, 17, 11, 5, 28, 16]",9,0,[],44.77517517,21249,1179,1,0,9,1.911005813618587
basic,19,31,0,1,1,16,"[0, 27, 8, 18, 17, 11, 5, 28, 16]",9,0,[],44.77517517,34768,13519,1,0,9,1.911005813618587
basic,20,29,0,0,0,0,[0],1,29,"[1, 2, 3, 4, 5, 6, 7, 8, 9, 10, 11, 12, 13, 14, 15, 16, 17, 18, 19, 20, 21, 22, 23, 24, 25, 26, 27, 28, 29]",300,114,-1,1,78,9,0.0
basic,20,29,0,0,0,6,"[0, 6]",2,28,"[1, 2, 3, 4, 5, 7, 8, 9, 10, 11, 12, 13, 14, 15, 16, 17, 18, 19, 20, 21, 22, 23, 24, 25, 26, 27, 28, 29]",228.4108947,27129,27015,1,25,9,1.0
basic,20,29,0,0,0,28,"[0, 6, 28]",3,24,"[1, 3, 4, 5, 7, 9, 10, 11, 12, 13, 14, 15, 16, 17, 18, 20, 21, 22, 23, 24, 25, 26, 27, 29]",187.1798384,28645,1516,1,22,9,1.162106788166845
basic,20,29,0,0,0,27,"[0, 6, 28, 27]",4,19,"[1, 3, 4, 5, 7, 9, 10, 11, 12, 13, 14, 15, 16, 21, 22, 23, 25, 26, 29]",166.6615539,29633,988,1,21,9,1.2307173895439045
basic,20,29,0,0,0,22,"[0, 6, 28, 27, 22]",5,13,"[1, 3, 4, 5, 7, 9, 12, 13, 14, 15, 21, 26, 29]",133.4200136,31605,1972,1,19,9,1.4241767805149903
basic,20,29,0,0,0,12,"[0, 6, 28, 27, 22, 12]",6,8,"[4, 5, 7, 9, 13, 14, 21, 26]",95.4726817,32749,1144,1,6,9,1.3248355326460857
basic,20,29,0,0,0,7,"[0, 6, 28, 27, 22, 12, 7]",7,4,"[4, 5, 9, 21]",81.87121119,33635,886,1,3,9,1.3264091962339806
basic,20,29,0,0,0,9,"[0, 6, 28, 27, 22, 12, 7, 9]",8,1,[4],52.80232748,34627,992,1,0,9,1.309391257644539
basic,20,29,0,0,1,4,"[0, 6, 28, 27, 22, 12, 7, 9, 4]",9,0,[],11.76575843,35779,1152,1,0,9,1.6396807789841599
basic,20,29,0,1,1,4,"[0, 6, 28, 27, 22, 12, 7, 9, 4]",9,0,[],11.76575843,45389,9610,1,0,9,1.6396807789841599
basic,21,2,0,0,0,0,[0],1,23,"[1, 2, 4, 5, 6, 7, 8, 9, 12, 13, 15, 16, 17, 18, 19, 20, 22, 23, 25, 26, 27, 28, 29]",300,117,-1,70,620,10,0.0
basic,21,2,0,0,0,19,"[0, 19]",2,22,"[1, 2, 4, 5, 6, 7, 8, 9, 12, 13, 15, 16, 17, 18, 20, 22, 23, 25, 26, 27, 28, 29]",210.306076,9974,9857,67,431,10,1.0
basic,21,2,0,0,0,12,"[0, 19, 12]",3,17,"[1, 4, 5, 6, 7, 13, 15, 16, 17, 18, 20, 22, 25, 26, 27, 28, 29]",174.2921898,11310,1336,66,298,10,1.1107635036313153
basic,21,2,0,0,0,5,"[0, 19, 12, 5]",4,11,"[1, 6, 7, 13, 15, 16, 18, 22, 25, 26, 29]",144.7625437,12274,964,38,136,10,1.0968174771581647
basic,21,2,0,0,0,22,"[0, 19, 12, 5, 22]",5,8,"[1, 6, 7, 13, 15, 18, 26, 29]",131.9562952,13002,728,20,63,10,1.0889910507461968
basic,21,2,0,0,0,13,"[0, 19, 12, 5, 22, 13]",6,7,"[1, 6, 7, 15, 18, 26, 29]",117.0902265,13722,720,19,20,10,1.236526217328057
basic,21,2,0,0,0,18,"[0, 19, 12, 5, 22, 13, 18]",7,4,"[7, 15, 26, 29]",81.91921567,14490,768,10,3,10,1.2128708213409936
basic,21,2,0,0,0,7,"[0, 19, 12, 5, 22, 13, 18, 7]",8,3,"[15, 26, 29]",71.62358553,15846,1356,5,0,10,1.2019811287894737
basic,21,2,0,0,0,26,"[0, 19, 12, 5, 22, 13, 18, 7, 26]",9,2,"[15, 29]",48.82007703,17888,2042,2,0,10,1.1883593342191134
basic,21,2,0,0,1,15,"[0, 19, 12, 5, 22, 13, 18, 7, 26, 15]",10,0,[],24.61264015,19375,1487,1,0,10,1.4619750353663825
basic,21,2,0,1,1,15,"[0, 19, 12, 5, 22, 13, 18, 7, 26, 15]",10,0,[],24.61264015,30739,11364,1,0,10,1.4619750353663825
basic,22,20,0,0,0,0,[0],1,21,"[1, 2, 3, 4, 5, 6, 7, 8, 9, 12, 17, 18, 20, 21, 22, 23, 25, 26, 27, 28, 29]",300,114,-1,1,9,9,0.0
basic,22,20,0,0,0,12,"[0, 12]",2,20,"[1, 2, 3, 4, 5, 6, 7, 8, 9, 17, 18, 20, 21, 22, 23, 25, 26, 27, 28, 29]",271.5570747,15188,15074,1,8,9,1.0
basic,22,20,0,0,0,5,"[0, 12, 5]",3,13,"[1, 3, 4, 6, 8, 9, 20, 21, 23, 26, 27, 28, 29]",171.4321527,32789,17601,2,19,8,1.0232843285905395
basic,22,20,0,0,0,21,"[0, 12, 5, 21]",4,10,"[1, 4, 6, 8, 9, 20, 23, 26, 27, 28]",126.4321527,38107,5318,2,12,8,1.017525191374897
basic,22,20,0,0,0,8,"[0, 12, 5, 21, 8]",5,6,"[1, 6, 9, 23, 27, 28]",108.9679035,40251,2144,2,6,8,1.0391698601004782
basic,22,20,0,0,0,23,"[0, 12, 5, 21, 8, 23]",6,3,"[6, 9, 27]",64.28009758,41939,1688,2,1,8,1.0348450868606567
basic,22,20,0,0,0,9,"[0, 12, 5, 21, 8, 23, 9]",7,1,[6],45.07072487,43211,1272,1,0,8,1.0335348098288684
basic,22,20,0,0,1,6,"[0, 12, 5, 21, 8, 23, 9, 6]",8,0,[],22.048996,43939,728,1,0,8,1.0486850646228845
basic,22,20,0,1,1,6,"[0, 12, 5, 21, 8, 23, 9, 6]",8,0,[],22.048996,47044,3105,1,0,8,1.0486850646228845
undo,23,41,0,0,0,0,[0],1,29,"[1, 2, 3, 4, 5, 6, 7, 8, 9, 10, 11, 12, 13, 14, 15, 16, 17, 18, 19, 20, 21, 22, 23, 24, 25, 26, 27, 28, 29]",300,151,-1,1,143,10,0.0
undo,23,41,0,0,0,21,"[0, 21]",2,28,"[1, 2, 3, 4, 5, 6, 7, 8, 9, 10, 11, 12, 13, 14, 15, 16, 17, 18, 19, 20, 22, 23, 24, 25, 26, 27, 28, 29]",251.1226024,60119,59968,50,469,8,1.0
undo,23,41,0,0,0,3,"[0, 21, 3]",3,26,"[1, 2, 5, 6, 7, 8, 9, 10, 11, 12, 13, 14, 15, 16, 17, 18, 19, 20, 22, 23, 24, 25, 26, 27, 28, 29]",218.982285,61603,1484,16,151,8,2.044702670024013
undo,23,41,0,0,0,22,"[0, 21, 3, 22]",4,20,"[2, 5, 6, 7, 8, 9, 10, 11, 12, 13, 14, 16, 17, 18, 19, 20, 23, 25, 27, 28]",189.0156369,65785,4182,4,36,8,1.609314302987968
undo,23,41,0,0,0,5,"[0, 21, 3, 22, 5]",5,9,"[2, 9, 10, 13, 17, 18, 20, 27, 28]",134.2707741,66635,850,3,11,8,5.280572219167241
undo,23,41,0,0,0,28,"[0, 21, 3, 22, 5, 28]",6,5,"[9, 13, 17, 18, 20]",120.6693036,67205,570,2,3,8,4.4610178066064154
undo,23,41,0,0,0,13,"[0, 21, 3, 22, 5, 28, 13]",7,1,[20],86.18742429,68926,1721,1,0,8,5.124291886287024
undo,23,41,0,0,1,20,"[0, 21, 3, 22, 5, 28, 13, 20]",8,0,[],23.53760386,70083,1157,1,0,8,2.9364404241464155
undo,23,41,1,0,0,13,"[0, 21, 3, 22, 5, 28, 13]",7,1,[20],86.18742429,73255,3172,1,0,8,5.124291886287024
undo,23,41,1,0,0,28,"[0, 21, 3, 22, 5, 28]",6,5,"[9, 13, 17, 18, 20]",120.6693036,73473,218,2,3,8,4.4610178066064154
undo,23,41,1,0,0,5,"[0, 21, 3, 22, 5]",5,9,"[2, 9, 10, 13, 17, 18, 20, 27, 28]",134.2707741,73690,217,3,11,8,5.280572219167241
undo,23,41,1,0,0,22,"[0, 21, 3, 22]",4,20,"[2, 5, 6, 7, 8, 9, 10, 11, 12, 13, 14, 16, 17, 18, 19, 20, 23, 25, 27, 28]",189.0156369,73874,184,4,36,8,1.609314302987968
undo,23,41,1,0,0,3,"[0, 21, 3]",3,26,"[1, 2, 5, 6, 7, 8, 9, 10, 11, 12, 13, 14, 15, 16, 17, 18, 19, 20, 22, 23, 24, 25, 26, 27, 28, 29]",218.982285,74175,301,16,151,8,2.044702670024013
undo,23,41,1,0,0,21,"[0, 21]",2,28,"[1, 2, 3, 4, 5, 6, 7, 8, 9, 10, 11, 12, 13, 14, 15, 16, 17, 18, 19, 20, 22, 23, 24, 25, 26, 27, 28, 29]",251.1226024,74927,752,50,469,8,1.0
undo,23,41,0,0,0,9,"[0, 21, 9]",3,23,"[1, 2, 3, 4, 5, 6, 10, 11, 12, 13, 14, 15, 17, 18, 19, 20, 22, 24, 25, 26, 27, 28, 29]",201.7566222,76586,1659,12,83,8,1.1938363858739158
undo,23,41,0,0,0,2,"[0, 21, 9, 2]",4,19,"[1, 3, 5, 6, 10, 12, 13, 14, 15, 17, 19, 20, 22, 24, 25, 26, 27, 28, 29]",189.6735762,77105,519,11,41,8,1.2193929245264608
undo,23,41,0,0,0,17,"[0, 21, 9, 2, 17]",5,15,"[1, 3, 5, 10, 12, 13, 14, 15, 19, 22, 24, 25, 26, 27, 28]",157.115935,78045,940,9,18,8,2.254129335675367
undo,23,41,0,0,0,10,"[0, 21, 9, 2, 17, 10]",6,5,"[1, 13, 24, 26, 27]",107.871646,80061,2016,5,0,7,2.271046117888218
undo,23,41,0,0,1,24,"[0, 21, 9, 2, 17, 10, 24]",7,0,[],58.62735699,81269,1208,1,0,7,1.8700384983235128
undo,23,41,1,0,0,10,"[0, 21, 9, 2, 17, 10]",6,5,"[1, 13, 24, 26, 27]",107.871646,82655,1386,5,0,7,2.271046117888218
undo,23,41,1,0,0,17,"[0, 21, 9, 2, 17]",5,15,"[1, 3, 5, 10, 12, 13, 14, 15, 19, 22, 24, 25, 26, 27, 28]",157.115935,82906,251,9,18,8,2.254129335675367
undo,23,41,1,0,0,2,"[0, 21, 9, 2]",4,19,"[1, 3, 5, 6, 10, 12, 13, 14, 15, 17, 19, 20, 22, 24, 25, 26, 27, 28, 29]",189.6735762,83073,167,11,41,8,1.2193929245264608
undo,23,41,1,0,0,9,"[0, 21, 9]",3,23,"[1, 2, 3, 4, 5, 6, 10, 11, 12, 13, 14, 15, 17, 18, 19, 20, 22, 24, 25, 26, 27, 28, 29]",201.7566222,83642,569,12,83,8,1.1938363858739158
undo,23,41,1,0,0,21,"[0, 21]",2,28,"[1, 2, 3, 4, 5, 6, 7, 8, 9, 10, 11, 12, 13, 14, 15, 16, 17, 18, 19, 20, 22, 23, 24, 25, 26, 27, 28, 29]",251.1226024,84210,568,50,469,8,1.0
undo,23,41,0,0,0,3,"[0, 21, 3]",3,26,"[1, 2, 5, 6, 7, 8, 9, 10, 11, 12, 13, 14, 15, 16, 17, 18, 19, 20, 22, 23, 24, 25, 26, 27, 28, 29]",218.982285,88267,4057,16,151,8,2.044702670024013
undo,23,41,0,0,0,5,"[0, 21, 3, 5]",4,16,"[1, 2, 6, 9, 10, 12, 13, 14, 17, 18, 20, 22, 24, 25, 27, 28]",184.1541355,89603,1336,8,39,8,3.691156164291917
undo,23,41,0,0,0,28,"[0, 21, 3, 5, 28]",5,12,"[2, 6, 9, 10, 12, 13, 17, 18, 20, 22, 24, 27]",170.552665,91377,1774,7,18,8,3.22012281246428
undo,23,41,0,0,0,13,"[0, 21, 3, 5, 28, 13]",6,8,"[2, 9, 10, 17, 18, 20, 22, 27]",136.0707857,93077,1700,4,5,8,3.9287733192187955
undo,23,41,0,0,0,20,"[0, 21, 3, 5, 28, 13, 20]",7,1,[18],73.42096523,94493,1416,1,0,8,2.4066051884531143
undo,23,41,0,0,1,18,"[0, 21, 3, 5, 28, 13, 20, 18]",8,0,[],2.252151833,95957,1464,1,0,8,2.4252068260007653
undo,23,41,1,0,0,20,"[0, 21, 3, 5, 28, 13, 20]",7,1,[18],73.42096523,98343,2386,1,0,8,2.4066051884531143
undo,23,41,1,0,0,13,"[0, 21, 3, 5, 28, 13]",6,8,"[2, 9, 10, 17, 18, 20, 22, 27]",136.0707857,98644,301,4,5,8,3.9287733192187955
undo,23,41,1,0,0,28,"[0, 21, 3, 5, 28]",5,12,"[2, 6, 9, 10, 12, 13, 17, 18, 20, 22, 24, 27]",170.552665,98895,251,7,18,8,3.22012281246428
undo,23,41,1,0,0,5,"[0, 21, 3, 5]",4,16,"[1, 2, 6, 9, 10, 12, 13, 14, 17, 18, 20, 22, 24, 25, 27, 28]",184.1541355,99129,234,8,39,8,3.691156164291917
undo,23,41,1,0,0,3,"[0, 21, 3]",3,26,"[1, 2, 5, 6, 7, 8, 9, 10, 11, 12, 13, 14, 15, 16, 17, 18, 19, 20, 22, 23, 24, 25, 26, 27, 28, 29]",218.982285,99564,435,16,151,8,2.044702670024013
undo,23,41,1,0,0,21,"[0, 21]",2,28,"[1, 2, 3, 4, 5, 6, 7, 8, 9, 10, 11, 12, 13, 14, 15, 16, 17, 18, 19, 20, 22, 23, 24, 25, 26, 27, 28, 29]",251.1226024,100115,551,50,469,8,1.0
undo,23,41,0,0,0,17,"[0, 21, 17]",3,21,"[1, 2, 3, 5, 6, 9, 10, 12, 13, 14, 15, 18, 19, 20, 22, 24, 25, 26, 27, 28, 29]",199.4602369,104871,4756,6,60,8,1.5861084957623635
undo,23,41,0,0,0,9,"[0, 21, 17, 9]",4,18,"[1, 2, 3, 5, 6, 10, 12, 13, 14, 15, 19, 22, 24, 25, 26, 27, 28, 29]",168.4441121,107049,2178,3,26,8,1.5986441963620066
undo,23,41,0,0,0,2,"[0, 21, 17, 9, 2]",5,15,"[1, 3, 5, 10, 12, 13, 14, 15, 19, 22, 24, 25, 26, 27, 28]",156.3610661,107905,856,2,17,8,1.5875824997436745
undo,23,41,0,0,0,14,"[0, 21, 17, 9, 2, 14]",6,3,"[1, 15, 19]",88.58201332,110625,2720,3,0,7,1.336056334600538
undo,23,41,0,0,1,15,"[0, 21, 17, 9, 2, 14, 15]",7,0,[],59.72027395,111337,712,1,0,7,1.3152050833011923
undo,23,41,1,0,0,14,"[0, 21, 17, 9, 2, 14]",6,3,"[1, 15, 19]",88.58201332,112175,838,3,0,7,1.336056334600538
undo,23,41,1,0,0,2,"[0, 21, 17, 9, 2]",5,15,"[1, 3, 5, 10, 12, 13, 14, 15, 19, 22, 24, 25, 26, 27, 28]",156.3610661,112559,384,2,17,8,1.5875824997436745
undo,23,41,1,0,0,9,"[0, 21, 17, 9]",4,18,"[1, 2, 3, 5, 6, 10, 12, 13, 14, 15, 19, 22, 24, 25, 26, 27, 28, 29]",168.4441121,112793,234,3,26,8,1.5986441963620066
undo,23,41,1,0,0,17,"[0, 21, 17]",3,21,"[1, 2, 3, 5, 6, 9, 10, 12, 13, 14, 15, 18, 19, 20, 22, 24, 25, 26, 27, 28, 29]",199.4602369,113077,284,6,60,8,1.5861084957623635
undo,23,41,1,0,0,21,"[0, 21]",2,28,"[1, 2, 3, 4, 5, 6, 7, 8, 9, 10, 11, 12, 13, 14, 15, 16, 17, 18, 19, 20, 22, 23, 24, 25, 26, 27, 28, 29]",251.1226024,113328,251,50,469,8,1.0
undo,23,41,1,0,0,0,[0],1,29,"[1, 2, 3, 4, 5, 6, 7, 8, 9, 10, 11, 12, 13, 14, 15, 16, 17, 18, 19, 20, 21, 22, 23, 24, 25, 26, 27, 28, 29]",300,113596,268,1,143,10,0.0
undo,23,41,0,0,0,28,"[0, 28]",2,27,"[1, 2, 3, 5, 6, 7, 8, 9, 10, 11, 12, 13, 14, 15, 16, 17, 18, 19, 20, 21, 22, 23, 24, 25, 26, 27, 29]",259.8004975,120697,7101,37,249,9,1.0
undo,23,41,0,0,0,5,"[0, 28, 5]",3,26,"[1, 2, 3, 6, 7, 8, 9, 10, 11, 12, 13, 14, 15, 16, 17, 18, 19, 20, 21, 22, 23, 24, 25, 26, 27, 29]",246.199027,122285,1588,30,182,9,1.714241539747437
undo,23,41,0,0,0,3,"[0, 28, 5, 3]",4,25,"[1, 2, 6, 7, 8, 9, 10, 11, 12, 13, 14, 15, 16, 17, 18, 19, 20, 21, 22, 23, 24, 25, 26, 27, 29]",211.3708775,124293,2008,20,93,9,2.2367972660995847
undo,23,41,0,0,0,21,"[0, 28, 5, 3, 21]",5,19,"[1, 2, 6, 9, 10, 11, 12, 13, 14, 15, 17, 18, 19, 20, 22, 24, 25, 26, 27]",179.2305601,126221,1928,12,46,9,2.470864770481327
undo,23,41,0,0,0,9,"[0, 28, 5, 3, 21, 9]",6,13,"[1, 2, 10, 12, 13, 14, 15, 17, 19, 22, 24, 25, 26]",129.8645799,127527,1306,3,17,9,2.0674559404382
undo,23,41,0,0,0,2,"[0, 28, 5, 3, 21, 9, 2]",7,9,"[1, 10, 12, 14, 15, 17, 19, 22, 24]",117.7815339,128519,992,2,7,9,2.0139863201149533
undo,23,41,0,0,0,17,"[0, 28, 5, 3, 21, 9, 2, 17]",8,1,[10],85.22389276,129659,1140,1,0,9,3.388293326704014
undo,23,41,0,0,1,10,"[0, 28, 5, 3, 21, 9, 2, 17, 10]",9,0,[],35.97960375,131003,1344,1,0,9,3.1208433501016275
undo,23,41,1,0,0,17,"[0, 28, 5, 3, 21, 9, 2, 17]",8,1,[10],85.22389276,144904,13901,1,0,9,3.388293326704014
undo,23,41,1,0,0,2,"[0, 28, 5, 3, 21, 9, 2]",7,9,"[1, 10, 12, 14, 15, 17, 19, 22, 24]",117.7815339,145206,302,2,7,9,2.0139863201149533
undo,23,41,1,0,0,9,"[0, 28, 5, 3, 21, 9]",6,13,"[1, 2, 10, 12, 13, 14, 15, 17, 19, 22, 24, 25, 26]",129.8645799,145657,451,3,17,9,2.0674559404382
undo,23,41,1,0,0,21,"[0, 28, 5, 3, 21]",5,19,"[1, 2, 6, 9, 10, 11, 12, 13, 14, 15, 17, 18, 19, 20, 22, 24, 25, 26, 27]",179.2305601,145824,167,12,46,9,2.470864770481327
undo,23,41,1,0,0,3,"[0, 28, 5, 3]",4,25,"[1, 2, 6, 7, 8, 9, 10, 11, 12, 13, 14, 15, 16, 17, 18, 19, 20, 21, 22, 23, 24, 25, 26, 27, 29]",211.3708775,146025,201,20,93,9,2.2367972660995847
undo,23,41,1,0,0,5,"[0, 28, 5]",3,26,"[1, 2, 3, 6, 7, 8, 9, 10, 11, 12, 13, 14, 15, 16, 17, 18, 19, 20, 21, 22, 23, 24, 25, 26, 27, 29]",246.199027,146242,217,30,182,9,1.714241539747437
undo,23,41,1,0,0,28,"[0, 28]",2,27,"[1, 2, 3, 5, 6, 7, 8, 9, 10, 11, 12, 13, 14, 15, 16, 17, 18, 19, 20, 21, 22, 23, 24, 25, 26, 27, 29]",259.8004975,146526,284,37,249,9,1.0
undo,23,41,1,0,0,0,[0],1,29,"[1, 2, 3, 4, 5, 6, 7, 8, 9, 10, 11, 12, 13, 14, 15, 16, 17, 18, 19, 20, 21, 22, 23, 24, 25, 26, 27, 28, 29]",300,147129,603,1,143,10,0.0
undo,23,41,0,0,0,13,"[0, 13]",2,23,"[1, 2, 3, 5, 6, 7, 9, 10, 11, 12, 14, 15, 17, 18, 19, 20, 21, 22, 24, 25, 26, 27, 28]",258.2747079,147762,633,1,55,10,1.0
undo,23,41,0,0,0,28,"[0, 13, 28]",3,22,"[1, 2, 3, 5, 6, 7, 9, 10, 11, 12, 14, 15, 17, 18, 19, 20, 21, 22, 24, 25, 26, 27]",223.7928286,148574,812,1,39,10,1.895724242592676
undo,23,41,0,0,0,5,"[0, 13, 28, 5]",4,19,"[1, 2, 3, 6, 9, 10, 11, 12, 14, 15, 17, 18, 19, 20, 21, 22, 24, 25, 27]",210.1913581,149166,592,1,34,10,2.861541269398273
undo,23,41,0,0,0,3,"[0, 13, 28, 5, 3]",5,16,"[1, 2, 6, 9, 10, 12, 14, 17, 18, 19, 20, 21, 22, 24, 25, 27]",175.3632086,150744,1578,1,22,10,3.1455488489005883
undo,23,41,0,0,0,21,"[0, 13, 28, 5, 3, 21]",6,14,"[1, 2, 6, 9, 10, 12, 14, 17, 18, 19, 20, 22, 25, 27]",143.2228912,151716,972,13,11,9,3.207558429289677
undo,23,41,0,0,0,9,"[0, 13, 28, 5, 3, 21, 9]",7,6,"[1, 2, 10, 12, 14, 17]",93.85691102,152734,1018,7,4,9,2.5050148501792275
undo,23,41,0,0,0,2,"[0, 13, 28, 5, 3, 21, 9, 2]",8,5,"[1, 10, 12, 14, 17]",81.77386505,153905,1171,5,0,9,2.4119643847713177
undo,23,41,0,0,1,17,"[0, 13, 28, 5, 3, 21, 9, 2, 17]",9,0,[],49.21622385,157842,3937,1,0,9,3.9563478735796007
undo,23,41,1,0,0,2,"[0, 13, 28, 5, 3, 21, 9, 2]",8,5,"[1, 10, 12, 14, 17]",81.77386505,161813,3971,5,0,9,2.4119643847713177
undo,23,41,1,0,0,9,"[0, 13, 28, 5, 3, 21, 9]",7,6,"[1, 2, 10, 12, 14, 17]",93.85691102,162382,569,7,4,9,2.5050148501792275
undo,23,41,1,0,0,21,"[0, 13, 28, 5, 3, 21]",6,14,"[1, 2, 6, 9, 10, 12, 14, 17, 18, 19, 20, 22, 25, 27]",143.2228912,162666,284,13,11,9,3.207558429289677
undo,23,41,1,0,0,3,"[0, 13, 28, 5, 3]",5,16,"[1, 2, 6, 9, 10, 12, 14, 17, 18, 19, 20, 21, 22, 24, 25, 27]",175.3632086,166228,3562,1,22,10,3.1455488489005883
undo,23,41,1,0,0,5,"[0, 13, 28, 5]",4,19,"[1, 2, 3, 6, 9, 10, 11, 12, 14, 15, 17, 18, 19, 20, 21, 22, 24, 25, 27]",210.1913581,166747,519,1,34,10,2.861541269398273
undo,23,41,1,0,0,28,"[0, 13, 28]",3,22,"[1, 2, 3, 5, 6, 7, 9, 10, 11, 12, 14, 15, 17, 18, 19, 20, 21, 22, 24, 25, 26, 27]",223.7928286,167014,267,1,39,10,1.895724242592676
undo,23,41,1,0,0,13,"[0, 13]",2,23,"[1, 2, 3, 5, 6, 7, 9, 10, 11, 12, 14, 15, 17, 18, 19, 20, 21, 22, 24, 25, 26, 27, 28]",258.2747079,167282,268,1,55,10,1.0
undo,23,41,1,0,0,0,[0],1,29,"[1, 2, 3, 4, 5, 6, 7, 8, 9, 10, 11, 12, 13, 14, 15, 16, 17, 18, 19, 20, 21, 22, 23, 24, 25, 26, 27, 28, 29]",300,167667,385,1,143,10,0.0
undo,23,41,0,0,0,10,"[0, 10]",2,20,"[1, 2, 3, 5, 9, 12, 13, 14, 15, 17, 18, 19, 20, 21, 22, 24, 25, 26, 27, 28]",215.4009456,168592,925,4,39,8,1.0
undo,23,41,0,0,0,17,"[0, 10, 17]",3,18,"[1, 2, 3, 5, 9, 12, 13, 14, 15, 19, 20, 21, 22, 24, 25, 26, 27, 28]",166.1566566,170036,1444,3,28,8,2.111503523803106
undo,23,41,0,0,0,2,"[0, 10, 17, 2]",4,15,"[1, 3, 5, 9, 12, 13, 14, 15, 19, 21, 22, 24, 25, 26, 28]",133.5990154,172366,2330,2,10,8,1.839162154148212
undo,23,41,0,0,0,9,"[0, 10, 17, 2, 9]",5,11,"[1, 3, 5, 12, 14, 15, 19, 21, 22, 25, 28]",121.5159695,174795,2429,2,8,8,2.1689067973834444
undo,23,41,0,0,0,21,"[0, 10, 17, 2, 9, 21]",6,3,"[3, 5, 22]",72.14998927,177822,3027,2,2,8,4.661664117451532
undo,23,41,0,0,0,3,"[0, 10, 17, 2, 9, 21, 3]",7,2,"[5, 22]",40.00967191,179252,1430,2,0,8,6.561563949637954
undo,23,41,0,0,1,5,"[0, 10, 17, 2, 9, 21, 3, 5]",8,0,[],5.181522374,180944,1692,1,0,8,9.393697787428298
undo,23,41,1,0,0,3,"[0, 10, 17, 2, 9, 21, 3]",7,2,"[5, 22]",40.00967191,182401,1457,2,0,8,6.561563949637954
undo,23,41,1,0,0,21,"[0, 10, 17, 2, 9, 21]",6,3,"[3, 5, 22]",72.14998927,182686,285,2,2,8,4.661664117451532
undo,23,41,1,0,0,9,"[0, 10, 17, 2, 9]",5,11,"[1, 3, 5, 12, 14, 15, 19, 21, 22, 25, 28]",121.5159695,182886,200,2,8,8,2.1689067973834444
undo,23,41,1,0,0,2,"[0, 10, 17, 2]",4,15,"[1, 3, 5, 9, 12, 13, 14, 15, 19, 21, 22, 24, 25, 26, 28]",133.5990154,183154,268,2,10,8,1.839162154148212
undo,23,41,1,0,0,17,"[0, 10, 17]",3,18,"[1, 2, 3, 5, 9, 12, 13, 14, 15, 19, 20, 21, 22, 24, 25, 26, 27, 28]",166.1566566,183422,268,3,28,8,2.111503523803106
undo,23,41,1,0,0,10,"[0, 10]",2,20,"[1, 2, 3, 5, 9, 12, 13, 14, 15, 17, 18, 19, 20, 21, 22, 24, 25, 26, 27, 28]",215.4009456,183656,234,4,39,8,1.0
undo,23,41,1,0,0,0,[0],1,29,"[1, 2, 3, 4, 5, 6, 7, 8, 9, 10, 11, 12, 13, 14, 15, 16, 17, 18, 19, 20, 21, 22, 23, 24, 25, 26, 27, 28, 29]",300,183890,234,1,143,10,0.0
undo,23,41,0,0,0,13,"[0, 13]",2,23,"[1, 2, 3, 5, 6, 7, 9, 10, 11, 12, 14, 15, 17, 18, 19, 20, 21, 22, 24, 25, 26, 27, 28]",258.2747079,193936,10046,1,55,10,1.0
undo,23,41,0,0,0,28,"[0, 13, 28]",3,22,"[1, 2, 3, 5, 6, 7, 9, 10, 11, 12, 14, 15, 17, 18, 19, 20, 21, 22, 24, 25, 26, 27]",223.7928286,195082,1146,1,39,10,1.895724242592676
undo,23,41,0,0,0,5,"[0, 13, 28, 5]",4,19,"[1, 2, 3, 6, 9, 10, 11, 12, 14, 15, 17, 18, 19, 20, 21, 22, 24, 25, 27]",210.1913581,196136,1054,1,34,10,2.861541269398273
undo,23,41,0,0,0,22,"[0, 13, 28, 5, 22]",5,12,"[2, 3, 6, 9, 10, 11, 12, 17, 18, 20, 21, 25]",155.4464953,197680,1544,11,12,9,2.096079268852861
undo,23,41,0,0,0,3,"[0, 13, 28, 5, 22, 3]",6,8,"[2, 9, 10, 12, 17, 18, 20, 21]",125.4798472,198400,720,7,5,9,4.404491319005463
undo,23,41,0,0,0,21,"[0, 13, 28, 5, 22, 3, 21]",7,4,"[2, 9, 12, 17]",93.33952984,199192,792,5,1,9,4.228139797553632
undo,23,41,0,0,0,9,"[0, 13, 28, 5, 22, 3, 21, 9]",8,2,"[2, 17]",43.97354965,201230,2038,2,0,9,3.111188754077749
undo,23,41,0,0,1,2,"[0, 13, 28, 5, 22, 3, 21, 9, 2]",9,0,[],31.89050368,201773,543,1,0,9,2.963304814480547
undo,23,41,1,0,0,9,"[0, 13, 28, 5, 22, 3, 21, 9]",8,2,"[2, 17]",43.97354965,203894,2121,2,0,9,3.111188754077749
undo,23,41,1,0,0,21,"[0, 13, 28, 5, 22, 3, 21]",7,4,"[2, 9, 12, 17]",93.33952984,204128,234,5,1,9,4.228139797553632
undo,23,41,1,0,0,3,"[0, 13, 28, 5, 22, 3]",6,8,"[2, 9, 10, 12, 17, 18, 20, 21]",125.4798472,204379,251,7,5,9,4.404491319005463
undo,23,41,1,0,0,22,"[0, 13, 28, 5, 22]",5,12,"[2, 3, 6, 9, 10, 11, 12, 17, 18, 20, 21, 25]",155.4464953,204763,384,11,12,9,2.096079268852861
undo,23,41,1,0,0,5,"[0, 13, 28, 5]",4,19,"[1, 2, 3, 6, 9, 10, 11, 12, 14, 15, 17, 18, 19, 20, 21, 22, 24, 25, 27]",210.1913581,205850,1087,1,34,10,2.861541269398273
undo,23,41,1,0,0,28,"[0, 13, 28]",3,22,"[1, 2, 3, 5, 6, 7, 9, 10, 11, 12, 14, 15, 17, 18, 19, 20, 21, 22, 24, 25, 26, 27]",223.7928286,208643,2793,1,39,10,1.895724242592676
undo,23,41,1,0,0,13,"[0, 13]",2,23,"[1, 2, 3, 5, 6, 7, 9, 10, 11, 12, 14, 15, 17, 18, 19, 20, 21, 22, 24, 25, 26, 27, 28]",258.2747079,208995,352,1,55,10,1.0
undo,23,41,1,0,0,0,[0],1,29,"[1, 2, 3, 4, 5, 6, 7, 8, 9, 10, 11, 12, 13, 14, 15, 16, 17, 18, 19, 20, 21, 22, 23, 24, 25, 26, 27, 28, 29]",300,209463,468,1,143,10,0.0
undo,23,41,0,0,0,28,"[0, 28]",2,27,"[1, 2, 3, 5, 6, 7, 8, 9, 10, 11, 12, 13, 14, 15, 16, 17, 18, 19, 20, 21, 22, 23, 24, 25, 26, 27, 29]",259.8004975,210800,1337,37,249,9,1.0
undo,23,41,0,0,0,5,"[0, 28, 5]",3,26,"[1, 2, 3, 6, 7, 8, 9, 10, 11, 12, 13, 14, 15, 16, 17, 18, 19, 20, 21, 22, 23, 24, 25, 26, 27, 29]",246.199027,211632,832,30,182,9,1.714241539747437
undo,23,41,0,0,0,22,"[0, 28, 5, 22]",4,22,"[1, 2, 3, 6, 7, 8, 9, 10, 11, 12, 13, 14, 16, 17, 18, 19, 20, 21, 23, 24, 25, 27]",191.4541642,214108,2476,7,30,9,1.5739547554580093
undo,23,41,0,0,0,3,"[0, 28, 5, 22, 3]",5,14,"[2, 6, 9, 10, 12, 13, 14, 17, 18, 19, 20, 21, 25, 27]",161.4875161,214735,627,7,17,9,3.49573973620446
undo,23,41,0,0,0,21,"[0, 28, 5, 22, 3, 21]",6,8,"[2, 9, 10, 12, 13, 14, 17, 25]",129.3471987,215342,607,7,6,9,3.491446139563656
undo,23,41,0,0,0,9,"[0, 28, 5, 22, 3, 21, 9]",7,5,"[2, 10, 12, 14, 17]",79.98121856,216290,948,3,3,9,2.6736298439721664
undo,23,41,0,0,0,2,"[0, 28, 5, 22, 3, 21, 9, 2]",8,2,"[14, 17]",67.89817258,217198,908,2,0,9,2.565326749271553
undo,23,41,0,0,1,17,"[0, 28, 5, 22, 3, 21, 9, 2, 17]",9,0,[],35.34053139,218590,1392,1,0,9,4.175249858394321
undo,23,41,1,0,0,2,"[0, 28, 5, 22, 3, 21, 9, 2]",8,2,"[14, 17]",67.89817258,221254,2664,2,0,9,2.565326749271553
undo,23,41,1,0,0,9,"[0, 28, 5, 22, 3, 21, 9]",7,5,"[2, 10, 12, 14, 17]",79.98121856,221505,251,3,3,9,2.6736298439721664
undo,23,41,1,0,0,21,"[0, 28, 5, 22, 3, 21]",6,8,"[2, 9, 10, 12, 13, 14, 17, 25]",129.3471987,221790,285,7,6,9,3.491446139563656
undo,23,41,1,0,0,3,"[0, 28, 5, 22, 3]",5,14,"[2, 6, 9, 10, 12, 13, 14, 17, 18, 19, 20, 21, 25, 27]",161.4875161,222308,518,7,17,9,3.49573973620446
undo,23,41,1,0,0,22,"[0, 28, 5, 22]",4,22,"[1, 2, 3, 6, 7, 8, 9, 10, 11, 12, 13, 14, 16, 17, 18, 19, 20, 21, 23, 24, 25, 27]",191.4541642,222676,368,7,30,9,1.5739547554580093
undo,23,41,1,0,0,5,"[0, 28, 5]",3,26,"[1, 2, 3, 6, 7, 8, 9, 10, 11, 12, 13, 14, 15, 16, 17, 18, 19, 20, 21, 22, 23, 24, 25, 26, 27, 29]",246.199027,223044,368,30,182,9,1.714241539747437
undo,23,41,0,0,0,3,"[0, 28, 5, 3]",4,25,"[1, 2, 6, 7, 8, 9, 10, 11, 12, 13, 14, 15, 16, 17, 18, 19, 20, 21, 22, 23, 24, 25, 26, 27, 29]",211.3708775,224696,1652,20,93,9,2.2367972660995847
undo,23,41,0,0,0,21,"[0, 28, 5, 3, 21]",5,19,"[1, 2, 6, 9, 10, 11, 12, 13, 14, 15, 17, 18, 19, 20, 22, 24, 25, 26, 27]",179.2305601,225284,588,12,46,9,2.470864770481327
undo,23,41,0,0,0,9,"[0, 28, 5, 3, 21, 9]",6,13,"[1, 2, 10, 12, 13, 14, 15, 17, 19, 22, 24, 25, 26]",129.8645799,227596,2312,3,17,9,2.0674559404382
undo,23,41,0,0,0,2,"[0, 28, 5, 3, 21, 9, 2]",7,9,"[1, 10, 12, 14, 15, 17, 19, 22, 24]",117.7815339,228176,580,2,7,9,2.0139863201149533
undo,23,41,0,0,0,17,"[0, 28, 5, 3, 21, 9, 2, 17]",8,1,[10],85.22389276,229319,1143,1,0,9,3.388293326704014
undo,23,41,0,0,1,10,"[0, 28, 5, 3, 21, 9, 2, 17, 10]",9,0,[],35.97960375,230814,1495,1,0,9,3.1208433501016275
undo,23,41,1,0,0,17,"[0, 28, 5, 3, 21, 9, 2, 17]",8,1,[10],85.22389276,236775,5961,1,0,9,3.388293326704014
undo,23,41,1,0,0,2,"[0, 28, 5, 3, 21, 9, 2]",7,9,"[1, 10, 12, 14, 15, 17, 19, 22, 24]",117.7815339,236992,217,2,7,9,2.0139863201149533
undo,23,41,1,0,0,9,"[0, 28, 5, 3, 21, 9]",6,13,"[1, 2, 10, 12, 13, 14, 15, 17, 19, 22, 24, 25, 26]",129.8645799,237210,218,3,17,9,2.0674559404382
undo,23,41,1,0,0,21,"[0, 28, 5, 3, 21]",5,19,"[1, 2, 6, 9, 10, 11, 12, 13, 14, 15, 17, 18, 19, 20, 22, 24, 25, 26, 27]",179.2305601,237444,234,12,46,9,2.470864770481327
undo,23,41,1,0,0,3,"[0, 28, 5, 3]",4,25,"[1, 2, 6, 7, 8, 9, 10, 11, 12, 13, 14, 15, 16, 17, 18, 19, 20, 21, 22, 23, 24, 25, 26, 27, 29]",211.3708775,237661,217,20,93,9,2.2367972660995847
undo,23,41,0,0,0,22,"[0, 28, 5, 3, 22]",5,19,"[2, 6, 7, 8, 9, 10, 11, 12, 13, 14, 16, 17, 18, 19, 20, 21, 23, 25, 27]",181.4042293,239160,1499,8,18,9,1.7196825276135803
undo,23,41,0,0,0,21,"[0, 28, 5, 3, 22, 21]",6,8,"[2, 9, 10, 12, 13, 14, 17, 25]",130.4042293,240591,1431,8,6,9,3.469819975916434
undo,23,41,0,0,0,9,"[0, 28, 5, 3, 22, 21, 9]",7,5,"[2, 10, 12, 14, 17]",81.03824916,242584,1993,4,3,9,2.6607849925478684
undo,23,41,0,0,0,2,"[0, 28, 5, 3, 22, 21, 9, 2]",8,2,"[14, 17]",68.95520318,244096,1512,2,0,9,2.5536438215534885
undo,23,41,0,0,1,17,"[0, 28, 5, 3, 22, 21, 9, 2, 17]",9,0,[],36.39756199,245062,966,1,0,9,4.158574215213491
undo,23,41,1,0,0,2,"[0, 28, 5, 3, 22, 21, 9, 2]",8,2,"[14, 17]",68.95520318,251509,6447,2,0,9,2.5536438215534885
undo,23,41,1,0,0,9,"[0, 28, 5, 3, 22, 21, 9]",7,5,"[2, 10, 12, 14, 17]",81.03824916,251961,452,4,3,9,2.6607849925478684
undo,23,41,1,0,0,21,"[0, 28, 5, 3, 22, 21]",6,8,"[2, 9, 10, 12, 13, 14, 17, 25]",130.4042293,252279,318,8,6,9,3.469819975916434
undo,23,41,1,0,0,22,"[0, 28, 5, 3, 22]",5,19,"[2, 6, 7, 8, 9, 10, 11, 12, 13, 14, 16, 17, 18, 19, 20, 21, 23, 25, 27]",181.4042293,252580,301,8,18,9,1.7196825276135803
undo,23,41,1,0,0,3,"[0, 28, 5, 3]",4,25,"[1, 2, 6, 7, 8, 9, 10, 11, 12, 13, 14, 15, 16, 17, 18, 19, 20, 21, 22, 23, 24, 25, 26, 27, 29]",211.3708775,252847,267,20,93,9,2.2367972660995847
undo,23,41,1,0,0,5,"[0, 28, 5]",3,26,"[1, 2, 3, 6, 7, 8, 9, 10, 11, 12, 13, 14, 15, 16, 17, 18, 19, 20, 21, 22, 23, 24, 25, 26, 27, 29]",246.199027,253182,335,30,182,9,1.714241539747437
undo,23,41,1,0,0,28,"[0, 28]",2,27,"[1, 2, 3, 5, 6, 7, 8, 9, 10, 11, 12, 13, 14, 15, 16, 17, 18, 19, 20, 21, 22, 23, 24, 25, 26, 27, 29]",259.8004975,253767,585,37,249,9,1.0
undo,23,41,1,0,0,0,[0],1,29,"[1, 2, 3, 4, 5, 6, 7, 8, 9, 10, 11, 12, 13, 14, 15, 16, 17, 18, 19, 20, 21, 22, 23, 24, 25, 26, 27, 28, 29]",300,254419,652,1,143,10,0.0
undo,23,41,0,0,0,13,"[0, 13]",2,23,"[1, 2, 3, 5, 6, 7, 9, 10, 11, 12, 14, 15, 17, 18, 19, 20, 21, 22, 24, 25, 26, 27, 28]",258.2747079,257640,3221,1,55,10,1.0
undo,23,41,0,0,0,10,"[0, 13, 10]",3,15,"[1, 2, 3, 5, 9, 12, 14, 15, 17, 21, 22, 24, 26, 27, 28]",153.5846893,259686,2046,2,13,7,1.7306967766175327
undo,23,41,0,0,0,17,"[0, 13, 10, 17]",4,11,"[1, 2, 3, 5, 9, 12, 14, 21, 22, 24, 28]",104.3404003,260934,1248,2,7,7,3.086712598009227
undo,23,41,0,0,0,2,"[0, 13, 10, 17, 2]",5,3,"[9, 14, 21]",71.78275908,261885,951,1,2,7,2.522392000462891
undo,23,41,1,0,0,17,"[0, 13, 10, 17]",4,11,"[1, 2, 3, 5, 9, 12, 14, 21, 22, 24, 28]",104.3404003,262681,796,2,7,7,3.086712598009227
undo,23,41,1,0,0,10,"[0, 13, 10]",3,15,"[1, 2, 3, 5, 9, 12, 14, 15, 17, 21, 22, 24, 26, 27, 28]",153.5846893,262999,318,2,13,7,1.7306967766175327
undo,23,41,1,0,0,13,"[0, 13]",2,23,"[1, 2, 3, 5, 6, 7, 9, 10, 11, 12, 14, 15, 17, 18, 19, 20, 21, 22, 24, 25, 26, 27, 28]",258.2747079,263216,217,1,55,10,1.0
undo,23,41,1,0,0,0,[0],1,29,"[1, 2, 3, 4, 5, 6, 7, 8, 9, 10, 11, 12, 13, 14, 15, 16, 17, 18, 19, 20, 21, 22, 23, 24, 25, 26, 27, 28, 29]",300,266377,3161,1,143,10,0.0
undo,23,41,0,0,0,13,"[0, 13]",2,23,"[1, 2, 3, 5, 6, 7, 9, 10, 11, 12, 14, 15, 17, 18, 19, 20, 21, 22, 24, 25, 26, 27, 28]",258.2747079,271067,4690,1,55,10,1.0
undo,23,41,0,0,0,28,"[0, 13, 28]",3,22,"[1, 2, 3, 5, 6, 7, 9, 10, 11, 12, 14, 15, 17, 18, 19, 20, 21, 22, 24, 25, 26, 27]",223.7928286,272007,940,1,39,10,1.895724242592676
undo,23,41,0,0,0,5,"[0, 13, 28, 5]",4,19,"[1, 2, 3, 6, 9, 10, 11, 12, 14, 15, 17, 18, 19, 20, 21, 22, 24, 25, 27]",210.1913581,274445,2438,1,34,10,2.861541269398273
undo,23,41,0,0,0,3,"[0, 13, 28, 5, 3]",5,16,"[1, 2, 6, 9, 10, 12, 14, 17, 18, 19, 20, 21, 22, 24, 25, 27]",175.3632086,275501,1056,1,22,10,3.1455488489005883
undo,23,41,0,0,0,21,"[0, 13, 28, 5, 3, 21]",6,14,"[1, 2, 6, 9, 10, 12, 14, 17, 18, 19, 20, 22, 25, 27]",143.2228912,276315,814,13,11,9,3.207558429289677
undo,23,41,0,0,0,9,"[0, 13, 28, 5, 3, 21, 9]",7,6,"[1, 2, 10, 12, 14, 17]",93.85691102,278833,2518,7,4,9,2.5050148501792275
undo,23,41,0,0,0,2,"[0, 13, 28, 5, 3, 21, 9, 2]",8,5,"[1, 10, 12, 14, 17]",81.77386505,279329,496,5,0,9,2.4119643847713177
undo,23,41,0,0,1,17,"[0, 13, 28, 5, 3, 21, 9, 2, 17]",9,0,[],49.21622385,280457,1128,1,0,9,3.9563478735796007
undo,23,41,1,0,0,2,"[0, 13, 28, 5, 3, 21, 9, 2]",8,5,"[1, 10, 12, 14, 17]",81.77386505,290863,10406,5,0,9,2.4119643847713177
undo,23,41,1,0,0,9,"[0, 13, 28, 5, 3, 21, 9]",7,6,"[1, 2, 10, 12, 14, 17]",93.85691102,291181,318,7,4,9,2.5050148501792275
undo,23,41,1,0,0,21,"[0, 13, 28, 5, 3, 21]",6,14,"[1, 2, 6, 9, 10, 12, 14, 17, 18, 19, 20, 22, 25, 27]",143.2228912,291381,200,13,11,9,3.207558429289677
undo,23,41,1,0,0,3,"[0, 13, 28, 5, 3]",5,16,"[1, 2, 6, 9, 10, 12, 14, 17, 18, 19, 20, 21, 22, 24, 25, 27]",175.3632086,291582,201,1,22,10,3.1455488489005883
undo,23,41,1,0,0,5,"[0, 13, 28, 5]",4,19,"[1, 2, 3, 6, 9, 10, 11, 12, 14, 15, 17, 18, 19, 20, 21, 22, 24, 25, 27]",210.1913581,291816,234,1,34,10,2.861541269398273
undo,23,41,1,0,0,28,"[0, 13, 28]",3,22,"[1, 2, 3, 5, 6, 7, 9, 10, 11, 12, 14, 15, 17, 18, 19, 20, 21, 22, 24, 25, 26, 27]",223.7928286,292251,435,1,39,10,1.895724242592676
undo,23,41,1,0,0,13,"[0, 13]",2,23,"[1, 2, 3, 5, 6, 7, 9, 10, 11, 12, 14, 15, 17, 18, 19, 20, 21, 22, 24, 25, 26, 27, 28]",258.2747079,292535,284,1,55,10,1.0
undo,23,41,1,0,0,0,[0],1,29,"[1, 2, 3, 4, 5, 6, 7, 8, 9, 10, 11, 12, 13, 14, 15, 16, 17, 18, 19, 20, 21, 22, 23, 24, 25, 26, 27, 28, 29]",300,293237,702,1,143,10,0.0
undo,23,41,0,0,0,28,"[0, 28]",2,27,"[1, 2, 3, 5, 6, 7, 8, 9, 10, 11, 12, 13, 14, 15, 16, 17, 18, 19, 20, 21, 22, 23, 24, 25, 26, 27, 29]",259.8004975,295181,1944,37,249,9,1.0
undo,23,41,0,0,0,5,"[0, 28, 5]",3,26,"[1, 2, 3, 6, 7, 8, 9, 10, 11, 12, 13, 14, 15, 16, 17, 18, 19, 20, 21, 22, 23, 24, 25, 26, 27, 29]",246.199027,296219,1038,30,182,9,1.714241539747437
undo,23,41,1,0,0,28,"[0, 28]",2,27,"[1, 2, 3, 5, 6, 7, 8, 9, 10, 11, 12, 13, 14, 15, 16, 17, 18, 19, 20, 21, 22, 23, 24, 25, 26, 27, 29]",259.8004975,303272,7053,37,249,9,1.0
undo,23,41,1,0,0,0,[0],1,29,"[1, 2, 3, 4, 5, 6, 7, 8, 9, 10, 11, 12, 13, 14, 15, 16, 17, 18, 19, 20, 21, 22, 23, 24, 25, 26, 27, 28, 29]",300,303958,686,1,143,10,0.0
undo,23,41,0,0,0,13,"[0, 13]",2,23,"[1, 2, 3, 5, 6, 7, 9, 10, 11, 12, 14, 15, 17, 18, 19, 20, 21, 22, 24, 25, 26, 27, 28]",258.2747079,305045,1087,1,55,10,1.0
undo,23,41,0,0,0,5,"[0, 13, 5]",3,22,"[1, 2, 3, 6, 7, 9, 10, 11, 12, 14, 15, 17, 18, 19, 20, 21, 22, 24, 25, 26, 27, 28]",217.2625146,305953,908,16,70,9,2.6362354890296706
undo,23,41,0,0,0,22,"[0, 13, 5, 22]",4,14,"[2, 3, 6, 9, 10, 11, 12, 17, 18, 19, 20, 21, 25, 28]",162.5176518,308957,3004,3,10,9,1.9935448849427337
undo,23,41,0,0,0,3,"[0, 13, 5, 22, 3]",5,11,"[2, 6, 9, 10, 12, 17, 18, 20, 21, 25, 28]",132.5510037,311086,2129,3,6,9,4.226031428156806
undo,23,41,0,0,0,21,"[0, 13, 5, 22, 3, 21]",6,6,"[2, 9, 10, 12, 17, 28]",100.4106863,312583,1497,3,3,9,4.083468501586352
undo,23,41,0,0,0,9,"[0, 13, 5, 22, 3, 21, 9]",7,2,"[2, 17]",51.04470615,313639,1056,1,1,9,3.0252612940397365
undo,23,41,0,0,0,2,"[0, 13, 5, 22, 3, 21, 9, 2]",8,1,[17],38.96166018,314671,1032,1,0,9,2.885150208291641
undo,23,41,0,0,1,17,"[0, 13, 5, 22, 3, 21, 9, 2, 17]",9,0,[],6.404018986,316247,1576,1,0,9,4.631750318973957
undo,23,41,1,0,0,2,"[0, 13, 5, 22, 3, 21, 9, 2]",8,1,[17],38.96166018,328210,11963,1,0,9,2.885150208291641
undo,23,41,1,0,0,9,"[0, 13, 5, 22, 3, 21, 9]",7,2,"[2, 17]",51.04470615,328477,267,1,1,9,3.0252612940397365
undo,23,41,1,0,0,21,"[0, 13, 5, 22, 3, 21]",6,6,"[2, 9, 10, 12, 17, 28]",100.4106863,328695,218,3,3,9,4.083468501586352
undo,23,41,1,0,0,3,"[0, 13, 5, 22, 3]",5,11,"[2, 6, 9, 10, 12, 17, 18, 20, 21, 25, 28]",132.5510037,328895,200,3,6,9,4.226031428156806
undo,23,41,1,0,0,22,"[0, 13, 5, 22]",4,14,"[2, 3, 6, 9, 10, 11, 12, 17, 18, 19, 20, 21, 25, 28]",162.5176518,329113,218,3,10,9,1.9935448849427337
undo,23,41,1,0,0,5,"[0, 13, 5]",3,22,"[1, 2, 3, 6, 7, 9, 10, 11, 12, 14, 15, 17, 18, 19, 20, 21, 22, 24, 25, 26, 27, 28]",217.2625146,329381,268,16,70,9,2.6362354890296706
undo,23,41,1,0,0,13,"[0, 13]",2,23,"[1, 2, 3, 5, 6, 7, 9, 10, 11, 12, 14, 15, 17, 18, 19, 20, 21, 22, 24, 25, 26, 27, 28]",258.2747079,329832,451,1,55,10,1.0
undo,23,41,0,0,0,28,"[0, 13, 28]",3,22,"[1, 2, 3, 5, 6, 7, 9, 10, 11, 12, 14, 15, 17, 18, 19, 20, 21, 22, 24, 25, 26, 27]",223.7928286,331360,1528,1,39,10,1.895724242592676
undo,23,41,0,0,0,5,"[0, 13, 28, 5]",4,19,"[1, 2, 3, 6, 9, 10, 11, 12, 14, 15, 17, 18, 19, 20, 21, 22, 24, 25, 27]",210.1913581,331881,521,1,34,10,2.861541269398273
undo,23,41,0,0,0,3,"[0, 13, 28, 5, 3]",5,16,"[1, 2, 6, 9, 10, 12, 14, 17, 18, 19, 20, 21, 22, 24, 25, 27]",175.3632086,332850,969,1,22,10,3.1455488489005883
undo,23,41,0,0,0,21,"[0, 13, 28, 5, 3, 21]",6,14,"[1, 2, 6, 9, 10, 12, 14, 17, 18, 19, 20, 22, 25, 27]",143.2228912,333637,787,13,11,9,3.207558429289677
undo,23,41,0,0,0,9,"[0, 13, 28, 5, 3, 21, 9]",7,6,"[1, 2, 10, 12, 14, 17]",93.85691102,335457,1820,7,4,9,2.5050148501792275
undo,23,41,0,0,0,2,"[0, 13, 28, 5, 3, 21, 9, 2]",8,5,"[1, 10, 12, 14, 17]",81.77386505,335993,536,5,0,9,2.4119643847713177
undo,23,41,0,0,1,17,"[0, 13, 28, 5, 3, 21, 9, 2, 17]",9,0,[],49.21622385,336793,800,1,0,9,3.9563478735796007
undo,23,41,1,0,0,2,"[0, 13, 28, 5, 3, 21, 9, 2]",8,5,"[1, 10, 12, 14, 17]",81.77386505,343446,6653,5,0,9,2.4119643847713177
undo,23,41,1,0,0,9,"[0, 13, 28, 5, 3, 21, 9]",7,6,"[1, 2, 10, 12, 14, 17]",93.85691102,343681,235,7,4,9,2.5050148501792275
undo,23,41,1,0,0,21,"[0, 13, 28, 5, 3, 21]",6,14,"[1, 2, 6, 9, 10, 12, 14, 17, 18, 19, 20, 22, 25, 27]",143.2228912,343898,217,13,11,9,3.207558429289677
undo,23,41,1,0,0,3,"[0, 13, 28, 5, 3]",5,16,"[1, 2, 6, 9, 10, 12, 14, 17, 18, 19, 20, 21, 22, 24, 25, 27]",175.3632086,344098,200,1,22,10,3.1455488489005883
undo,23,41,1,0,0,5,"[0, 13, 28, 5]",4,19,"[1, 2, 3, 6, 9, 10, 11, 12, 14, 15, 17, 18, 19, 20, 21, 22, 24, 25, 27]",210.1913581,344818,720,1,34,10,2.861541269398273
undo,23,41,0,0,0,22,"[0, 13, 28, 5, 22]",5,12,"[2, 3, 6, 9, 10, 11, 12, 17, 18, 20, 21, 25]",155.4464953,350578,5760,11,12,9,2.096079268852861
undo,23,41,0,0,0,3,"[0, 13, 28, 5, 22, 3]",6,8,"[2, 9, 10, 12, 17, 18, 20, 21]",125.4798472,352467,1889,7,5,9,4.404491319005463
undo,23,41,0,0,0,21,"[0, 13, 28, 5, 22, 3, 21]",7,4,"[2, 9, 12, 17]",93.33952984,353493,1026,5,1,9,4.228139797553632
undo,23,41,0,0,0,9,"[0, 13, 28, 5, 22, 3, 21, 9]",8,2,"[2, 17]",43.97354965,354405,912,2,0,9,3.111188754077749
undo,23,41,0,0,1,2,"[0, 13, 28, 5, 22, 3, 21, 9, 2]",9,0,[],31.89050368,356496,2091,1,0,9,2.963304814480547
undo,23,41,0,1,1,2,"[0, 13, 28, 5, 22, 3, 21, 9, 2]",9,0,[],31.89050368,361242,4746,1,0,9,2.963304814480547
undo,24,37,0,0,0,0,[0],1,29,"[1, 2, 3, 4, 5, 6, 7, 8, 9, 10, 11, 12, 13, 14, 15, 16, 17, 18, 19, 20, 21, 22, 23, 24, 25, 26, 27, 28, 29]",300,131,-1,6,168,10,0.0
undo,24,37,0,0,0,19,"[0, 19]",2,19,"[1, 2, 4, 5, 6, 7, 9, 10, 11, 15, 17, 18, 20, 21, 22, 25, 26, 28, 29]",185.6627795,8573,8442,25,244,9,1.0
undo,24,37,0,0,0,21,"[0, 19, 21]",3,14,"[1, 2, 4, 7, 10, 11, 15, 17, 18, 20, 22, 25, 26, 29]",144.5531699,10129,1556,10,75,9,1.001632816594558
undo,24,37,0,0,0,15,"[0, 19, 21, 15]",4,9,"[1, 2, 4, 7, 18, 20, 22, 26, 29]",129.5531699,10857,728,5,32,9,1.0243376499143988
undo,24,37,0,0,0,20,"[0, 19, 21, 15, 20]",5,8,"[1, 2, 4, 7, 18, 22, 26, 29]",112.5531699,11523,666,5,14,9,1.250507291508492
undo,24,37,0,0,0,1,"[0, 19, 21, 15, 20, 1]",6,6,"[2, 4, 7, 18, 22, 26]",78.31868434,12741,1218,4,4,9,1.4002166443864243
undo,24,37,0,0,0,2,"[0, 19, 21, 15, 20, 1, 2]",7,4,"[4, 7, 18, 22]",61.11403381,13717,976,2,2,9,1.5802253600182588
undo,24,37,0,0,0,4,"[0, 19, 21, 15, 20, 1, 2, 4]",8,1,[22],49.71227956,15591,1874,1,0,9,1.5399187067712754
undo,24,37,0,0,1,22,"[0, 19, 21, 15, 20, 1, 2, 4, 22]",9,0,[],24.71227956,16751,1160,1,0,9,1.6903775033413582
undo,24,37,1,0,0,4,"[0, 19, 21, 15, 20, 1, 2, 4]",8,1,[22],49.71227956,19415,2664,1,0,9,1.5399187067712754
undo,24,37,1,0,0,2,"[0, 19, 21, 15, 20, 1, 2]",7,4,"[4, 7, 18, 22]",61.11403381,19633,218,2,2,9,1.5802253600182588
undo,24,37,1,0,0,1,"[0, 19, 21, 15, 20, 1]",6,6,"[2, 4, 7, 18, 22, 26]",78.31868434,19834,201,4,4,9,1.4002166443864243
undo,24,37,1,0,0,20,"[0, 19, 21, 15, 20]",5,8,"[1, 2, 4, 7, 18, 22, 26, 29]",112.5531699,20034,200,5,14,9,1.250507291508492
undo,24,37,1,0,0,15,"[0, 19, 21, 15]",4,9,"[1, 2, 4, 7, 18, 20, 22, 26, 29]",129.5531699,20235,201,5,32,9,1.0243376499143988
undo,24,37,1,0,0,21,"[0, 19, 21]",3,14,"[1, 2, 4, 7, 10, 11, 15, 17, 18, 20, 22, 25, 26, 29]",144.5531699,20436,201,10,75,9,1.001632816594558
undo,24,37,1,0,0,19,"[0, 19]",2,19,"[1, 2, 4, 5, 6, 7, 9, 10, 11, 15, 17, 18, 20, 21, 22, 25, 26, 28, 29]",185.6627795,20653,217,25,244,9,1.0
undo,24,37,1,0,0,0,[0],1,29,"[1, 2, 3, 4, 5, 6, 7, 8, 9, 10, 11, 12, 13, 14, 15, 16, 17, 18, 19, 20, 21, 22, 23, 24, 25, 26, 27, 28, 29]",300,21071,418,6,168,10,0.0
undo,24,37,0,0,0,9,"[0, 9]",2,28,"[1, 2, 3, 4, 5, 6, 7, 8, 10, 11, 12, 13, 14, 15, 16, 17, 18, 19, 20, 21, 22, 23, 24, 25, 26, 27, 28, 29]",275.7925631,22110,1039,45,289,9,1.0
undo,24,37,0,0,0,12,"[0, 9, 12]",3,12,"[5, 6, 7, 8, 10, 13, 14, 16, 17, 18, 23, 28]",194.0490619,23805,1695,10,13,6,1.0254170250851105
undo,24,37,0,0,0,16,"[0, 9, 12, 16]",4,4,"[8, 13, 14, 23]",136.0404418,25025,1220,3,2,6,1.1137230906502282
undo,24,37,0,0,0,13,"[0, 9, 12, 16, 13]",5,1,[8],106.4938684,26553,1528,1,0,6,1.1048297662184086
undo,24,37,0,0,1,8,"[0, 9, 12, 16, 13, 8]",6,0,[],76.41065049,27805,1252,1,0,6,1.4980377585122178
undo,24,37,1,0,0,13,"[0, 9, 12, 16, 13]",5,1,[8],106.4938684,28798,993,1,0,6,1.1048297662184086
undo,24,37,1,0,0,16,"[0, 9, 12, 16]",4,4,"[8, 13, 14, 23]",136.0404418,28998,200,3,2,6,1.1137230906502282
undo,24,37,1,0,0,12,"[0, 9, 12]",3,12,"[5, 6, 7, 8, 10, 13, 14, 16, 17, 18, 23, 28]",194.0490619,29182,184,10,13,6,1.0254170250851105
undo,24,37,1,0,0,9,"[0, 9]",2,28,"[1, 2, 3, 4, 5, 6, 7, 8, 10, 11, 12, 13, 14, 15, 16, 17, 18, 19, 20, 21, 22, 23, 24, 25, 26, 27, 28, 29]",275.7925631,29383,201,45,289,9,1.0
undo,24,37,1,0,0,0,[0],1,29,"[1, 2, 3, 4, 5, 6, 7, 8, 9, 10, 11, 12, 13, 14, 15, 16, 17, 18, 19, 20, 21, 22, 23, 24, 25, 26, 27, 28, 29]",300,29584,201,6,168,10,0.0
undo,24,37,0,0,0,19,"[0, 19]",2,19,"[1, 2, 4, 5, 6, 7, 9, 10, 11, 15, 17, 18, 20, 21, 22, 25, 26, 28, 29]",185.6627795,35335,5751,25,244,9,1.0
undo,24,37,0,0,0,26,"[0, 19, 26]",3,9,"[1, 2, 4, 15, 20, 21, 22, 25, 29]",120.4094271,36737,1402,12,37,8,1.0256292033966232
undo,24,37,0,0,0,21,"[0, 19, 26, 21]",4,6,"[1, 2, 4, 15, 20, 22]",90.67728956,37649,912,8,18,8,1.3487859218508713
undo,24,37,0,0,0,20,"[0, 19, 26, 21, 20]",5,5,"[1, 2, 4, 15, 22]",76.25508446,38361,712,4,8,8,1.4926614025505558
undo,24,37,0,0,0,15,"[0, 19, 26, 21, 20, 15]",6,3,"[1, 2, 4]",59.25508446,41153,2792,2,2,8,1.4468094294766474
undo,24,37,0,0,0,1,"[0, 19, 26, 21, 20, 15, 1]",7,2,"[2, 4]",19.29260206,42501,1348,2,0,8,1.7730460035740097
undo,24,37,0,0,1,2,"[0, 19, 26, 21, 20, 15, 1, 2]",8,0,[],2.087951523,43277,776,1,0,8,1.9706815832116096
undo,24,37,1,0,0,1,"[0, 19, 26, 21, 20, 15, 1]",7,2,"[2, 4]",19.29260206,44736,1459,2,0,8,1.7730460035740097
undo,24,37,1,0,0,15,"[0, 19, 26, 21, 20, 15]",6,3,"[1, 2, 4]",59.25508446,44987,251,2,2,8,1.4468094294766474
undo,24,37,1,0,0,20,"[0, 19, 26, 21, 20]",5,5,"[1, 2, 4, 15, 22]",76.25508446,45172,185,4,8,8,1.4926614025505558
undo,24,37,1,0,0,21,"[0, 19, 26, 21]",4,6,"[1, 2, 4, 15, 20, 22]",90.67728956,45472,300,8,18,8,1.3487859218508713
undo,24,37,1,0,0,26,"[0, 19, 26]",3,9,"[1, 2, 4, 15, 20, 21, 22, 25, 29]",120.4094271,45841,369,12,37,8,1.0256292033966232
undo,24,37,1,0,0,19,"[0, 19]",2,19,"[1, 2, 4, 5, 6, 7, 9, 10, 11, 15, 17, 18, 20, 21, 22, 25, 26, 28, 29]",185.6627795,46258,417,25,244,9,1.0
undo,24,37,0,0,0,21,"[0, 19, 21]",3,14,"[1, 2, 4, 7, 10, 11, 15, 17, 18, 20, 22, 25, 26, 29]",144.5531699,47611,1353,10,75,9,1.001632816594558
undo,24,37,0,0,0,15,"[0, 19, 21, 15]",4,9,"[1, 2, 4, 7, 18, 20, 22, 26, 29]",129.5531699,49867,2256,5,32,9,1.0243376499143988
undo,24,37,0,0,0,20,"[0, 19, 21, 15, 20]",5,8,"[1, 2, 4, 7, 18, 22, 26, 29]",112.5531699,51465,1598,5,14,9,1.250507291508492
undo,24,37,0,0,0,1,"[0, 19, 21, 15, 20, 1]",6,6,"[2, 4, 7, 18, 22, 26]",78.31868434,54337,2872,4,4,9,1.4002166443864243
undo,24,37,0,0,0,4,"[0, 19, 21, 15, 20, 1, 4]",7,2,"[2, 22]",60.5986392,58347,4010,2,0,9,1.472939356650523
undo,24,37,0,0,0,2,"[0, 19, 21, 15, 20, 1, 4, 2]",8,1,[22],49.19688495,59273,926,1,0,9,1.6590570350137948
undo,24,37,0,0,1,22,"[0, 19, 21, 15, 20, 1, 4, 2, 22]",9,0,[],21.53825157,60314,1041,1,0,9,1.7098673138592275
undo,24,37,0,1,1,22,"[0, 19, 21, 15, 20, 1, 4, 2, 22]",9,0,[],21.53825157,62515,2201,1,0,9,1.7098673138592275
undo,25,27,0,0,0,0,[0],1,26,"[1, 3, 5, 6, 7, 8, 9, 10, 11, 12, 13, 14, 15, 16, 17, 18, 19, 21, 22, 23, 24, 25, 26, 27, 28, 29]",300,113,-1,13,578,11,0.0
undo,25,27,0,0,0,15,"[0, 15]",2,24,"[1, 3, 5, 6, 7, 8, 9, 10, 11, 12, 13, 14, 16, 17, 18, 19, 21, 22, 23, 24, 25, 26, 27, 29]",263.7508621,3145,3032,6,219,11,1.0
undo,25,27,0,0,0,24,"[0, 15, 24]",3,20,"[1, 5, 6, 7, 8, 9, 10, 12, 13, 14, 16, 17, 18, 19, 21, 23, 25, 26, 27, 29]",246.5462115,4213,1068,6,130,11,1.130933077698322
undo,25,27,0,0,0,17,"[0, 15, 24, 17]",4,15,"[1, 6, 8, 10, 12, 13, 14, 16, 18, 19, 23, 25, 26, 27, 29]",229.9932662,4940,727,4,60,11,1.1285538435963374
undo,25,27,0,0,0,12,"[0, 15, 24, 17, 12]",5,14,"[1, 6, 8, 10, 13, 14, 16, 18, 19, 23, 25, 26, 27, 29]",218.8129263,6573,1633,2,32,11,1.2561880288755216
undo,25,27,0,0,0,10,"[0, 15, 24, 17, 12, 10]",6,11,"[1, 8, 13, 14, 18, 19, 23, 25, 26, 27, 29]",207.7675653,7096,523,2,28,11,1.2228289337766665
undo,25,27,0,0,0,13,"[0, 15, 24, 17, 12, 10, 13]",7,9,"[1, 8, 14, 18, 19, 23, 26, 27, 29]",167.9178476,9252,2156,2,18,11,1.3421291994761178
undo,25,27,0,0,0,19,"[0, 15, 24, 17, 12, 10, 13, 19]",8,5,"[1, 8, 14, 23, 29]",131.6825057,10267,1015,2,6,11,1.294749956153846
undo,25,27,0,0,0,8,"[0, 15, 24, 17, 12, 10, 13, 19, 8]",9,3,"[14, 23, 29]",116.816437,11106,839,2,1,11,1.3554286578836865
undo,25,27,0,0,0,14,"[0, 15, 24, 17, 12, 10, 13, 19, 8, 14]",10,1,[29],59.25777126,12743,1637,1,0,11,1.312380420632942
undo,25,27,0,0,1,29,"[0, 15, 24, 17, 12, 10, 13, 19, 8, 14, 29]",11,0,[],14.96330208,13679,936,1,0,11,1.4680136813839417
undo,25,27,1,0,0,14,"[0, 15, 24, 17, 12, 10, 13, 19, 8, 14]",10,1,[29],59.25777126,23227,9548,1,0,11,1.312380420632942
undo,25,27,1,0,0,8,"[0, 15, 24, 17, 12, 10, 13, 19, 8]",9,3,"[14, 23, 29]",116.816437,23562,335,2,1,11,1.3554286578836865
undo,25,27,1,0,0,19,"[0, 15, 24, 17, 12, 10, 13, 19]",8,5,"[1, 8, 14, 23, 29]",131.6825057,23812,250,2,6,11,1.294749956153846
undo,25,27,1,0,0,13,"[0, 15, 24, 17, 12, 10, 13]",7,9,"[1, 8, 14, 18, 19, 23, 26, 27, 29]",167.9178476,23996,184,2,18,11,1.3421291994761178
undo,25,27,1,0,0,10,"[0, 15, 24, 17, 12, 10]",6,11,"[1, 8, 13, 14, 18, 19, 23, 25, 26, 27, 29]",207.7675653,24197,201,2,28,11,1.2228289337766665
undo,25,27,1,0,0,12,"[0, 15, 24, 17, 12]",5,14,"[1, 6, 8, 10, 13, 14, 16, 18, 19, 23, 25, 26, 27, 29]",218.8129263,24414,217,2,32,11,1.2561880288755216
undo,25,27,1,0,0,17,"[0, 15, 24, 17]",4,15,"[1, 6, 8, 10, 12, 13, 14, 16, 18, 19, 23, 25, 26, 27, 29]",229.9932662,24665,251,4,60,11,1.1285538435963374
undo,25,27,1,0,0,24,"[0, 15, 24]",3,20,"[1, 5, 6, 7, 8, 9, 10, 12, 13, 14, 16, 17, 18, 19, 21, 23, 25, 26, 27, 29]",246.5462115,24899,234,6,130,11,1.130933077698322
undo,25,27,1,0,0,15,"[0, 15]",2,24,"[1, 3, 5, 6, 7, 8, 9, 10, 11, 12, 13, 14, 16, 17, 18, 19, 21, 22, 23, 24, 25, 26, 27, 29]",263.7508621,25134,235,6,219,11,1.0
undo,25,27,1,0,0,0,[0],1,26,"[1, 3, 5, 6, 7, 8, 9, 10, 11, 12, 13, 14, 15, 16, 17, 18, 19, 21, 22, 23, 24, 25, 26, 27, 28, 29]",300,25384,250,13,578,11,0.0
undo,25,27,0,0,0,1,"[0, 1]",2,24,"[5, 6, 7, 8, 9, 10, 11, 12, 13, 14, 15, 16, 17, 18, 19, 21, 22, 23, 24, 25, 26, 27, 28, 29]",227.2195081,30694,5310,1,78,10,1.0
undo,25,27,1,0,0,0,[0],1,26,"[1, 3, 5, 6, 7, 8, 9, 10, 11, 12, 13, 14, 15, 16, 17, 18, 19, 21, 22, 23, 24, 25, 26, 27, 28, 29]",300,31806,1112,13,578,11,0.0
undo,25,27,0,0,0,26,"[0, 26]",2,23,"[1, 5, 6, 7, 8, 9, 10, 11, 12, 13, 14, 15, 16, 17, 18, 19, 21, 22, 23, 24, 25, 27, 29]",275.8132268,38204,6398,7,249,11,1.0
undo,25,27,0,0,0,27,"[0, 26, 27]",3,21,"[1, 6, 7, 8, 9, 10, 11, 12, 13, 14, 15, 16, 17, 18, 19, 21, 22, 23, 24, 25, 29]",225.9935519,42370,4166,1,80,11,1.307240649445448
undo,25,27,0,0,0,1,"[0, 26, 27, 1]",4,20,"[6, 7, 8, 9, 10, 11, 12, 13, 14, 15, 16, 17, 18, 19, 21, 22, 23, 24, 25, 29]",195.761119,43378,1008,51,187,10,1.4322365552995941
undo,25,27,0,0,0,23,"[0, 26, 27, 1, 23]",5,13,"[6, 8, 10, 12, 13, 14, 15, 17, 18, 19, 24, 25, 29]",147.7194704,44358,980,45,79,10,2.0021319533763484
undo,25,27,0,0,0,13,"[0, 26, 27, 1, 23, 13]",6,7,"[8, 10, 12, 15, 17, 19, 24]",88.10403617,46952,2594,5,17,10,2.153142988207226
undo,25,27,0,0,0,10,"[0, 26, 27, 1, 23, 13, 10]",7,4,"[12, 15, 17, 24]",48.25431848,48380,1428,4,5,10,3.3376751282483696
undo,25,27,0,0,0,12,"[0, 26, 27, 1, 23, 13, 10, 12]",8,3,"[15, 17, 24]",37.20895746,50604,2224,3,1,10,4.066102480233449
undo,25,27,0,0,0,17,"[0, 26, 27, 1, 23, 13, 10, 12, 17]",9,1,[24],26.02861758,51312,708,1,0,10,4.416595945595922
undo,25,27,0,0,1,24,"[0, 26, 27, 1, 23, 13, 10, 12, 17, 24]",10,0,[],9.475672218,52724,1412,1,0,10,6.146684479898621
undo,25,27,1,0,0,17,"[0, 26, 27, 1, 23, 13, 10, 12, 17]",9,1,[24],26.02861758,58700,5976,1,0,10,4.416595945595922
undo,25,27,1,0,0,12,"[0, 26, 27, 1, 23, 13, 10, 12]",8,3,"[15, 17, 24]",37.20895746,59236,536,3,1,10,4.066102480233449
undo,25,27,1,0,0,10,"[0, 26, 27, 1, 23, 13, 10]",7,4,"[12, 15, 17, 24]",48.25431848,59520,284,4,5,10,3.3376751282483696
undo,25,27,1,0,0,13,"[0, 26, 27, 1, 23, 13]",6,7,"[8, 10, 12, 15, 17, 19, 24]",88.10403617,59904,384,5,17,10,2.153142988207226
undo,25,27,1,0,0,23,"[0, 26, 27, 1, 23]",5,13,"[6, 8, 10, 12, 13, 14, 15, 17, 18, 19, 24, 25, 29]",147.7194704,60239,335,45,79,10,2.0021319533763484
undo,25,27,1,0,0,1,"[0, 26, 27, 1]",4,20,"[6, 7, 8, 9, 10, 11, 12, 13, 14, 15, 16, 17, 18, 19, 21, 22, 23, 24, 25, 29]",195.761119,60791,552,51,187,10,1.4322365552995941
undo,25,27,0,0,0,23,"[0, 26, 27, 1, 23]",5,13,"[6, 8, 10, 12, 13, 14, 15, 17, 18, 19, 24, 25, 29]",147.7194704,62844,2053,45,79,10,2.0021319533763484
undo,25,27,0,0,0,15,"[0, 26, 27, 1, 23, 15]",6,5,"[10, 12, 13, 17, 24]",93.71021195,64389,1545,24,9,10,5.690888111623813
undo,25,27,0,0,0,24,"[0, 26, 27, 1, 23, 15, 24]",7,4,"[10, 12, 13, 17]",76.50556141,64972,583,9,3,10,4.728518976406084
undo,25,27,0,0,0,17,"[0, 26, 27, 1, 23, 15, 24, 17]",8,3,"[10, 12, 13]",59.95261606,66052,1080,4,1,10,3.869719141085435
undo,25,27,0,0,0,12,"[0, 26, 27, 1, 23, 15, 24, 17, 12]",9,2,"[10, 13]",48.77227617,67648,1596,2,0,10,3.8871860360806623
undo,25,27,0,0,1,10,"[0, 26, 27, 1, 23, 15, 24, 17, 12, 10]",10,0,[],37.72691515,68622,974,1,0,10,3.477248733036456
undo,25,27,1,0,0,12,"[0, 26, 27, 1, 23, 15, 24, 17, 12]",9,2,"[10, 13]",48.77227617,70742,2120,2,0,10,3.8871860360806623
undo,25,27,1,0,0,17,"[0, 26, 27, 1, 23, 15, 24, 17]",8,3,"[10, 12, 13]",59.95261606,71077,335,4,1,10,3.869719141085435
undo,25,27,1,0,0,24,"[0, 26, 27, 1, 23, 15, 24]",7,4,"[10, 12, 13, 17]",76.50556141,71294,217,9,3,10,4.728518976406084
undo,25,27,1,0,0,15,"[0, 26, 27, 1, 23, 15]",6,5,"[10, 12, 13, 17, 24]",93.71021195,71511,217,24,9,10,5.690888111623813
undo,25,27,1,0,0,23,"[0, 26, 27, 1, 23]",5,13,"[6, 8, 10, 12, 13, 14, 15, 17, 18, 19, 24, 25, 29]",147.7194704,71729,218,45,79,10,2.0021319533763484
undo,25,27,1,0,0,1,"[0, 26, 27, 1]",4,20,"[6, 7, 8, 9, 10, 11, 12, 13, 14, 15, 16, 17, 18, 19, 21, 22, 23, 24, 25, 29]",195.761119,71963,234,51,187,10,1.4322365552995941
undo,25,27,1,0,0,27,"[0, 26, 27]",3,21,"[1, 6, 7, 8, 9, 10, 11, 12, 13, 14, 15, 16, 17, 18, 19, 21, 22, 23, 24, 25, 29]",225.9935519,72297,334,1,80,11,1.307240649445448
undo,25,27,1,0,0,26,"[0, 26]",2,23,"[1, 5, 6, 7, 8, 9, 10, 11, 12, 13, 14, 15, 16, 17, 18, 19, 21, 22, 23, 24, 25, 27, 29]",275.8132268,72699,402,7,249,11,1.0
undo,25,27,0,0,0,23,"[0, 26, 23]",3,19,"[1, 5, 6, 7, 8, 9, 10, 12, 13, 14, 15, 16, 17, 18, 19, 24, 25, 27, 29]",184.5991927,74526,1827,41,268,9,1.517250067015505
undo,25,27,0,0,0,15,"[0, 26, 23, 15]",4,10,"[1, 8, 10, 12, 13, 17, 18, 19, 24, 27]",130.5899343,75322,796,15,53,9,4.673492265394468
undo,25,27,0,0,0,24,"[0, 26, 23, 15, 24]",5,8,"[1, 8, 10, 12, 13, 17, 19, 27]",113.3852837,75788,466,11,17,9,3.948246913293306
undo,25,27,0,0,0,17,"[0, 26, 23, 15, 24, 17]",6,4,"[10, 12, 13, 19]",96.83233839,76812,1024,5,4,9,3.275194155743422
undo,25,27,0,0,0,12,"[0, 26, 23, 15, 24, 17, 12]",7,3,"[10, 13, 19]",85.6519985,77796,984,3,1,9,3.3165549788462485
undo,25,27,0,0,0,10,"[0, 26, 23, 15, 24, 17, 12, 10]",8,1,[13],74.60663749,78316,520,1,0,9,2.9882928500687296
undo,25,27,0,0,1,13,"[0, 26, 23, 15, 24, 17, 12, 10, 13]",9,0,[],34.7569198,79379,1063,1,0,9,2.695220182491557
undo,25,27,1,0,0,10,"[0, 26, 23, 15, 24, 17, 12, 10]",8,1,[13],74.60663749,80894,1515,1,0,9,2.9882928500687296
undo,25,27,1,0,0,12,"[0, 26, 23, 15, 24, 17, 12]",7,3,"[10, 13, 19]",85.6519985,81061,167,3,1,9,3.3165549788462485
undo,25,27,1,0,0,17,"[0, 26, 23, 15, 24, 17]",6,4,"[10, 12, 13, 19]",96.83233839,81596,535,5,4,9,3.275194155743422
undo,25,27,1,0,0,24,"[0, 26, 23, 15, 24]",5,8,"[1, 8, 10, 12, 13, 17, 19, 27]",113.3852837,81797,201,11,17,9,3.948246913293306
undo,25,27,1,0,0,15,"[0, 26, 23, 15]",4,10,"[1, 8, 10, 12, 13, 17, 18, 19, 24, 27]",130.5899343,82014,217,15,53,9,4.673492265394468
undo,25,27,1,0,0,23,"[0, 26, 23]",3,19,"[1, 5, 6, 7, 8, 9, 10, 12, 13, 14, 15, 16, 17, 18, 19, 24, 25, 27, 29]",184.5991927,82316,302,41,268,9,1.517250067015505
undo,25,27,1,0,0,26,"[0, 26]",2,23,"[1, 5, 6, 7, 8, 9, 10, 11, 12, 13, 14, 15, 16, 17, 18, 19, 21, 22, 23, 24, 25, 27, 29]",275.8132268,82550,234,7,249,11,1.0
undo,25,27,1,0,0,0,[0],1,26,"[1, 3, 5, 6, 7, 8, 9, 10, 11, 12, 13, 14, 15, 16, 17, 18, 19, 21, 22, 23, 24, 25, 26, 27, 28, 29]",300,82767,217,13,578,11,0.0
undo,25,27,0,0,0,15,"[0, 15]",2,24,"[1, 3, 5, 6, 7, 8, 9, 10, 11, 12, 13, 14, 16, 17, 18, 19, 21, 22, 23, 24, 25, 26, 27, 29]",263.7508621,84476,1709,6,219,11,1.0
undo,25,27,0,0,0,24,"[0, 15, 24]",3,20,"[1, 5, 6, 7, 8, 9, 10, 12, 13, 14, 16, 17, 18, 19, 21, 23, 25, 26, 27, 29]",246.5462115,86037,1561,6,130,11,1.130933077698322
undo,25,27,0,0,0,17,"[0, 15, 24, 17]",4,15,"[1, 6, 8, 10, 12, 13, 14, 16, 18, 19, 23, 25, 26, 27, 29]",229.9932662,87001,964,4,60,11,1.1285538435963374
undo,25,27,0,0,0,12,"[0, 15, 24, 17, 12]",5,14,"[1, 6, 8, 10, 13, 14, 16, 18, 19, 23, 25, 26, 27, 29]",218.8129263,87581,580,2,32,11,1.2561880288755216
undo,25,27,0,0,0,10,"[0, 15, 24, 17, 12, 10]",6,11,"[1, 8, 13, 14, 18, 19, 23, 25, 26, 27, 29]",207.7675653,88674,1093,2,28,11,1.2228289337766665
undo,25,27,0,0,0,13,"[0, 15, 24, 17, 12, 10, 13]",7,9,"[1, 8, 14, 18, 19, 23, 26, 27, 29]",167.9178476,89853,1179,2,18,11,1.3421291994761178
undo,25,27,0,0,0,19,"[0, 15, 24, 17, 12, 10, 13, 19]",8,5,"[1, 8, 14, 23, 29]",131.6825057,90887,1034,2,6,11,1.294749956153846
undo,25,27,0,0,0,8,"[0, 15, 24, 17, 12, 10, 13, 19, 8]",9,3,"[14, 23, 29]",116.816437,91517,630,2,1,11,1.3554286578836865
undo,25,27,0,0,0,29,"[0, 15, 24, 17, 12, 10, 13, 19, 8, 29]",10,1,[14],57.61339652,92699,1182,1,0,11,1.248354519573802
undo,25,27,0,0,1,14,"[0, 15, 24, 17, 12, 10, 13, 19, 8, 29, 14]",11,0,[],13.31892734,94035,1336,1,0,11,1.562811097555156
undo,25,27,1,0,0,29,"[0, 15, 24, 17, 12, 10, 13, 19, 8, 29]",10,1,[14],57.61339652,95478,1443,1,0,11,1.248354519573802
undo,25,27,1,0,0,8,"[0, 15, 24, 17, 12, 10, 13, 19, 8]",9,3,"[14, 23, 29]",116.816437,95762,284,2,1,11,1.3554286578836865
undo,25,27,0,0,0,14,"[0, 15, 24, 17, 12, 10, 13, 19, 8, 14]",10,1,[29],59.25777126,98177,2415,1,0,11,1.312380420632942
undo,25,27,0,0,1,29,"[0, 15, 24, 17, 12, 10, 13, 19, 8, 14, 29]",11,0,[],14.96330208,99065,888,1,0,11,1.4680136813839417
undo,25,27,1,0,0,14,"[0, 15, 24, 17, 12, 10, 13, 19, 8, 14]",10,1,[29],59.25777126,101833,2768,1,0,11,1.312380420632942
undo,25,27,1,0,0,8,"[0, 15, 24, 17, 12, 10, 13, 19, 8]",9,3,"[14, 23, 29]",116.816437,102369,536,2,1,11,1.3554286578836865
undo,25,27,0,0,0,29,"[0, 15, 24, 17, 12, 10, 13, 19, 8, 29]",10,1,[14],57.61339652,103985,1616,1,0,11,1.248354519573802
undo,25,27,0,0,1,14,"[0, 15, 24, 17, 12, 10, 13, 19, 8, 29, 14]",11,0,[],13.31892734,106071,2086,1,0,11,1.562811097555156
undo,25,27,0,1,1,14,"[0, 15, 24, 17, 12, 10, 13, 19, 8, 29, 14]",11,0,[],13.31892734,112922,6851,1,0,11,1.562811097555156
undo,26,22,0,0,0,0,[0],1,29,"[1, 2, 3, 4, 5, 6, 7, 8, 9, 10, 11, 12, 13, 14, 15, 16, 17, 18, 19, 20, 21, 22, 23, 24, 25, 26, 27, 28, 29]",300,121,-1,31,704,9,0.0
undo,26,22,0,0,0,16,"[0, 16]",2,21,"[1, 3, 6, 7, 8, 9, 11, 13, 14, 15, 17, 18, 19, 20, 21, 22, 24, 25, 27, 28, 29]",218.605897,14441,14320,17,147,9,1.0
undo,26,22,0,0,0,28,"[0, 16, 28]",3,13,"[6, 7, 9, 13, 14, 17, 19, 20, 21, 22, 24, 25, 29]",184.1675463,15333,892,12,61,9,1.047282311284478
undo,26,22,0,0,0,6,"[0, 16, 28, 6]",4,12,"[7, 9, 13, 14, 17, 19, 20, 21, 22, 24, 25, 29]",154.1675463,15945,612,12,43,9,1.645645870580622
undo,26,22,0,0,0,9,"[0, 16, 28, 6, 9]",5,8,"[7, 14, 17, 19, 20, 21, 24, 29]",127.5404924,16921,976,8,17,9,1.925750226630103
undo,26,22,0,0,0,19,"[0, 16, 28, 6, 9, 19]",6,6,"[7, 14, 17, 21, 24, 29]",107.1444143,18069,1148,3,7,9,2.4220750331476455
undo,26,22,0,0,0,29,"[0, 16, 28, 6, 9, 19, 29]",7,4,"[7, 14, 17, 24]",92.11111796,18581,512,2,2,9,2.6996279574991067
undo,26,22,0,0,0,7,"[0, 16, 28, 6, 9, 19, 29, 7]",8,1,[14],41.0327468,20013,1432,1,0,9,2.059125386946491
undo,26,22,0,0,1,14,"[0, 16, 28, 6, 9, 19, 29, 7, 14]",9,0,[],27.99434199,20517,504,1,0,9,2.0997569104205307
undo,26,22,1,0,0,7,"[0, 16, 28, 6, 9, 19, 29, 7]",8,1,[14],41.0327468,23854,3337,1,0,9,2.059125386946491
undo,26,22,1,0,0,29,"[0, 16, 28, 6, 9, 19, 29]",7,4,"[7, 14, 17, 24]",92.11111796,24121,267,2,2,9,2.6996279574991067
undo,26,22,1,0,0,19,"[0, 16, 28, 6, 9, 19]",6,6,"[7, 14, 17, 21, 24, 29]",107.1444143,24355,234,3,7,9,2.4220750331476455
undo,26,22,1,0,0,9,"[0, 16, 28, 6, 9]",5,8,"[7, 14, 17, 19, 20, 21, 24, 29]",127.5404924,24590,235,8,17,9,1.925750226630103
undo,26,22,1,0,0,6,"[0, 16, 28, 6]",4,12,"[7, 9, 13, 14, 17, 19, 20, 21, 22, 24, 25, 29]",154.1675463,24857,267,12,43,9,1.645645870580622
undo,26,22,1,0,0,28,"[0, 16, 28]",3,13,"[6, 7, 9, 13, 14, 17, 19, 20, 21, 22, 24, 25, 29]",184.1675463,25242,385,12,61,9,1.047282311284478
undo,26,22,1,0,0,16,"[0, 16]",2,21,"[1, 3, 6, 7, 8, 9, 11, 13, 14, 15, 17, 18, 19, 20, 21, 22, 24, 25, 27, 28, 29]",218.605897,25610,368,17,147,9,1.0
undo,26,22,1,0,0,0,[0],1,29,"[1, 2, 3, 4, 5, 6, 7, 8, 9, 10, 11, 12, 13, 14, 15, 16, 17, 18, 19, 20, 21, 22, 23, 24, 25, 26, 27, 28, 29]",300,26011,401,31,704,9,0.0
undo,26,22,0,0,0,16,"[0, 16]",2,21,"[1, 3, 6, 7, 8, 9, 11, 13, 14, 15, 17, 18, 19, 20, 21, 22, 24, 25, 27, 28, 29]",218.605897,38460,12449,17,147,9,1.0
undo,26,22,0,0,0,6,"[0, 16, 6]",3,16,"[1, 3, 7, 9, 13, 14, 15, 17, 19, 20, 21, 22, 24, 25, 28, 29]",184.1675463,39356,896,5,77,9,1.3071109638102874
undo,26,22,0,0,0,9,"[0, 16, 6, 9]",4,15,"[1, 3, 7, 13, 14, 15, 17, 19, 20, 21, 22, 24, 25, 28, 29]",157.5404924,41544,2188,4,33,9,1.5907585082674378
undo,26,22,0,0,0,19,"[0, 16, 6, 9, 19]",5,12,"[3, 7, 13, 14, 15, 17, 20, 21, 24, 25, 28, 29]",137.1444143,42304,760,3,17,9,2.0453047636701496
undo,26,22,0,0,0,29,"[0, 16, 6, 9, 19, 29]",6,10,"[3, 7, 13, 14, 15, 17, 20, 21, 24, 28]",122.111118,42812,508,3,10,9,2.310050419546042
undo,26,22,0,0,0,7,"[0, 16, 6, 9, 19, 29, 7]",7,3,"[14, 17, 24]",71.0327468,43834,1022,1,2,9,1.8205864950786186
undo,26,22,0,0,0,14,"[0, 16, 6, 9, 19, 29, 7, 14]",8,1,[17],57.99434199,44598,764,1,0,9,1.868170892050648
undo,26,22,1,0,0,7,"[0, 16, 6, 9, 19, 29, 7]",7,3,"[14, 17, 24]",71.0327468,47704,3106,1,2,9,1.8205864950786186
undo,26,22,1,0,0,29,"[0, 16, 6, 9, 19, 29]",6,10,"[3, 7, 13, 14, 15, 17, 20, 21, 24, 28]",122.111118,48021,317,3,10,9,2.310050419546042
undo,26,22,1,0,0,19,"[0, 16, 6, 9, 19]",5,12,"[3, 7, 13, 14, 15, 17, 20, 21, 24, 25, 28, 29]",137.1444143,48222,201,3,17,9,2.0453047636701496
undo,26,22,1,0,0,9,"[0, 16, 6, 9]",4,15,"[1, 3, 7, 13, 14, 15, 17, 19, 20, 21, 22, 24, 25, 28, 29]",157.5404924,48490,268,4,33,9,1.5907585082674378
undo,26,22,1,0,0,6,"[0, 16, 6]",3,16,"[1, 3, 7, 9, 13, 14, 15, 17, 19, 20, 21, 22, 24, 25, 28, 29]",184.1675463,48741,251,5,77,9,1.3071109638102874
undo,26,22,1,0,0,16,"[0, 16]",2,21,"[1, 3, 6, 7, 8, 9, 11, 13, 14, 15, 17, 18, 19, 20, 21, 22, 24, 25, 27, 28, 29]",218.605897,48975,234,17,147,9,1.0
undo,26,22,0,0,0,28,"[0, 16, 28]",3,13,"[6, 7, 9, 13, 14, 17, 19, 20, 21, 22, 24, 25, 29]",184.1675463,50624,1649,12,61,9,1.047282311284478
undo,26,22,0,0,0,6,"[0, 16, 28, 6]",4,12,"[7, 9, 13, 14, 17, 19, 20, 21, 22, 24, 25, 29]",154.1675463,52424,1800,12,43,9,1.645645870580622
undo,26,22,0,0,0,9,"[0, 16, 28, 6, 9]",5,8,"[7, 14, 17, 19, 20, 21, 24, 29]",127.5404924,53192,768,8,17,9,1.925750226630103
undo,26,22,0,0,0,19,"[0, 16, 28, 6, 9, 19]",6,6,"[7, 14, 17, 21, 24, 29]",107.1444143,53794,602,3,7,9,2.4220750331476455
undo,26,22,0,0,0,29,"[0, 16, 28, 6, 9, 19, 29]",7,4,"[7, 14, 17, 24]",92.11111796,54456,662,2,2,9,2.6996279574991067
undo,26,22,0,0,0,7,"[0, 16, 28, 6, 9, 19, 29, 7]",8,1,[14],41.0327468,55124,668,1,0,9,2.059125386946491
undo,26,22,0,0,1,14,"[0, 16, 28, 6, 9, 19, 29, 7, 14]",9,0,[],27.99434199,55660,536,1,0,9,2.0997569104205307
undo,26,22,1,0,0,7,"[0, 16, 28, 6, 9, 19, 29, 7]",8,1,[14],41.0327468,58742,3082,1,0,9,2.059125386946491
undo,26,22,1,0,0,29,"[0, 16, 28, 6, 9, 19, 29]",7,4,"[7, 14, 17, 24]",92.11111796,58943,201,2,2,9,2.6996279574991067
undo,26,22,1,0,0,19,"[0, 16, 28, 6, 9, 19]",6,6,"[7, 14, 17, 21, 24, 29]",107.1444143,59177,234,3,7,9,2.4220750331476455
undo,26,22,1,0,0,9,"[0, 16, 28, 6, 9]",5,8,"[7, 14, 17, 19, 20, 21, 24, 29]",127.5404924,59361,184,8,17,9,1.925750226630103
undo,26,22,1,0,0,6,"[0, 16, 28, 6]",4,12,"[7, 9, 13, 14, 17, 19, 20, 21, 22, 24, 25, 29]",154.1675463,59562,201,12,43,9,1.645645870580622
undo,26,22,1,0,0,28,"[0, 16, 28]",3,13,"[6, 7, 9, 13, 14, 17, 19, 20, 21, 22, 24, 25, 29]",184.1675463,59762,200,12,61,9,1.047282311284478
undo,26,22,1,0,0,16,"[0, 16]",2,21,"[1, 3, 6, 7, 8, 9, 11, 13, 14, 15, 17, 18, 19, 20, 21, 22, 24, 25, 27, 28, 29]",218.605897,60047,285,17,147,9,1.0
undo,26,22,1,0,0,0,[0],1,29,"[1, 2, 3, 4, 5, 6, 7, 8, 9, 10, 11, 12, 13, 14, 15, 16, 17, 18, 19, 20, 21, 22, 23, 24, 25, 26, 27, 28, 29]",300,60365,318,31,704,9,0.0
undo,26,22,0,0,0,13,"[0, 13]",2,22,"[1, 3, 5, 6, 7, 8, 9, 10, 12, 14, 15, 16, 17, 19, 20, 21, 23, 24, 25, 26, 28, 29]",189.3202819,61810,1445,2,52,8,1.0
undo,26,22,0,0,0,15,"[0, 13, 15]",3,17,"[1, 3, 5, 6, 7, 8, 9, 10, 14, 17, 19, 20, 21, 23, 24, 26, 29]",173.7639327,62350,540,2,40,8,1.001747361505262
undo,26,22,0,0,0,8,"[0, 13, 15, 8]",4,12,"[1, 3, 5, 10, 17, 19, 20, 21, 23, 24, 26, 29]",146.5609917,64334,1984,1,14,8,1.009379786590907
undo,26,22,0,0,0,23,"[0, 13, 15, 8, 23]",5,7,"[1, 3, 5, 10, 20, 21, 24]",113.3194514,66752,2418,4,5,7,1.0105022544955353
undo,26,22,0,0,0,20,"[0, 13, 15, 8, 23, 20]",6,2,"[3, 24]",42.91348576,67726,974,2,0,7,1.7719572736852243
undo,26,22,0,0,1,24,"[0, 13, 15, 8, 23, 20, 24]",7,0,[],5.257144989,68692,966,1,0,7,2.1973718914227853
undo,26,22,1,0,0,20,"[0, 13, 15, 8, 23, 20]",6,2,"[3, 24]",42.91348576,69580,888,2,0,7,1.7719572736852243
undo,26,22,1,0,0,23,"[0, 13, 15, 8, 23]",5,7,"[1, 3, 5, 10, 20, 21, 24]",113.3194514,69848,268,4,5,7,1.0105022544955353
undo,26,22,1,0,0,8,"[0, 13, 15, 8]",4,12,"[1, 3, 5, 10, 17, 19, 20, 21, 23, 24, 26, 29]",146.5609917,70048,200,1,14,8,1.009379786590907
undo,26,22,1,0,0,15,"[0, 13, 15]",3,17,"[1, 3, 5, 6, 7, 8, 9, 10, 14, 17, 19, 20, 21, 23, 24, 26, 29]",173.7639327,70299,251,2,40,8,1.001747361505262
undo,26,22,1,0,0,13,"[0, 13]",2,22,"[1, 3, 5, 6, 7, 8, 9, 10, 12, 14, 15, 16, 17, 19, 20, 21, 23, 24, 25, 26, 28, 29]",189.3202819,70767,468,2,52,8,1.0
undo,26,22,1,0,0,0,[0],1,29,"[1, 2, 3, 4, 5, 6, 7, 8, 9, 10, 11, 12, 13, 14, 15, 16, 17, 18, 19, 20, 21, 22, 23, 24, 25, 26, 27, 28, 29]",300,71119,352,31,704,9,0.0
undo,26,22,0,0,0,29,"[0, 29]",2,22,"[1, 3, 5, 6, 7, 8, 9, 11, 13, 14, 15, 16, 17, 19, 20, 21, 22, 23, 24, 25, 27, 28]",222.9935068,74938,3819,11,235,9,1.0
undo,26,22,0,0,0,7,"[0, 29, 7]",3,15,"[1, 3, 6, 8, 9, 13, 14, 15, 16, 17, 19, 20, 21, 24, 28]",171.9151356,76546,1608,14,108,8,1.0184407206340897
undo,26,22,0,0,0,14,"[0, 29, 7, 14]",4,13,"[1, 3, 6, 9, 13, 15, 16, 17, 19, 20, 21, 24, 28]",158.8767308,77654,1108,12,54,8,1.089405867112304
undo,26,22,0,0,0,28,"[0, 29, 7, 14, 28]",5,4,"[6, 9, 16, 19]",79.63027978,81336,3682,1,4,8,1.9924408277394143
undo,26,22,0,0,0,16,"[0, 29, 7, 14, 28, 16]",6,1,[6],45.19192906,82187,851,1,0,7,3.1305470741664205
undo,26,22,0,0,1,6,"[0, 29, 7, 14, 28, 16, 6]",7,0,[],10.75357834,83559,1372,1,0,7,3.2640003463440346
undo,26,22,1,0,0,16,"[0, 29, 7, 14, 28, 16]",6,1,[6],45.19192906,84164,605,1,0,7,3.1305470741664205
undo,26,22,1,0,0,28,"[0, 29, 7, 14, 28]",5,4,"[6, 9, 16, 19]",79.63027978,84398,234,1,4,8,1.9924408277394143
undo,26,22,1,0,0,14,"[0, 29, 7, 14]",4,13,"[1, 3, 6, 9, 13, 15, 16, 17, 19, 20, 21, 24, 28]",158.8767308,84632,234,12,54,8,1.089405867112304
undo,26,22,1,0,0,7,"[0, 29, 7]",3,15,"[1, 3, 6, 8, 9, 13, 14, 15, 16, 17, 19, 20, 21, 24, 28]",171.9151356,84983,351,14,108,8,1.0184407206340897
undo,26,22,0,0,0,19,"[0, 29, 7, 19]",4,12,"[3, 6, 9, 13, 14, 15, 16, 17, 20, 21, 24, 28]",125.6441944,87413,2430,2,11,8,2.1897361286959316
undo,26,22,0,0,0,9,"[0, 29, 7, 19, 9]",5,6,"[6, 14, 16, 17, 24, 28]",105.2481164,88737,1324,2,6,8,2.1746756047176574
undo,26,22,0,0,0,6,"[0, 29, 7, 19, 9, 6]",6,3,"[14, 16, 28]",78.62106244,91369,2632,2,1,8,2.4981499329263452
undo,26,22,0,0,0,16,"[0, 29, 7, 19, 9, 6, 16]",7,1,[28],44.18271172,92613,1244,1,0,8,3.142946219842144
undo,26,22,0,0,1,28,"[0, 29, 7, 19, 9, 6, 16, 28]",8,0,[],9.744361009,93277,664,1,0,8,2.6243042148890225
undo,26,22,1,0,0,16,"[0, 29, 7, 19, 9, 6, 16]",7,1,[28],44.18271172,93831,554,1,0,8,3.142946219842144
undo,26,22,1,0,0,6,"[0, 29, 7, 19, 9, 6]",6,3,"[14, 16, 28]",78.62106244,94081,250,2,1,8,2.4981499329263452
undo,26,22,1,0,0,9,"[0, 29, 7, 19, 9]",5,6,"[6, 14, 16, 17, 24, 28]",105.2481164,94282,201,2,6,8,2.1746756047176574
undo,26,22,1,0,0,19,"[0, 29, 7, 19]",4,12,"[3, 6, 9, 13, 14, 15, 16, 17, 20, 21, 24, 28]",125.6441944,94516,234,2,11,8,2.1897361286959316
undo,26,22,1,0,0,7,"[0, 29, 7]",3,15,"[1, 3, 6, 8, 9, 13, 14, 15, 16, 17, 19, 20, 21, 24, 28]",171.9151356,94733,217,14,108,8,1.0184407206340897
undo,26,22,1,0,0,29,"[0, 29]",2,22,"[1, 3, 5, 6, 7, 8, 9, 11, 13, 14, 15, 16, 17, 19, 20, 21, 22, 23, 24, 25, 27, 28]",222.9935068,95035,302,11,235,9,1.0
undo,26,22,1,0,0,0,[0],1,29,"[1, 2, 3, 4, 5, 6, 7, 8, 9, 10, 11, 12, 13, 14, 15, 16, 17, 18, 19, 20, 21, 22, 23, 24, 25, 26, 27, 28, 29]",300,95671,636,31,704,9,0.0
undo,26,22,0,0,0,29,"[0, 29]",2,22,"[1, 3, 5, 6, 7, 8, 9, 11, 13, 14, 15, 16, 17, 19, 20, 21, 22, 23, 24, 25, 27, 28]",222.9935068,98691,3020,11,235,9,1.0
undo,26,22,0,0,0,19,"[0, 29, 19]",3,18,"[1, 3, 6, 7, 8, 9, 13, 14, 15, 16, 17, 20, 21, 22, 23, 24, 25, 28]",207.9602104,99983,1292,11,172,9,1.1559285443414686
undo,26,22,0,0,0,9,"[0, 29, 19, 9]",4,16,"[1, 3, 6, 7, 8, 13, 14, 15, 16, 17, 20, 21, 22, 24, 25, 28]",187.5641323,100559,576,7,84,9,1.2555028175473422
undo,26,22,0,0,0,6,"[0, 29, 19, 9, 6]",5,13,"[3, 7, 13, 14, 15, 16, 17, 20, 21, 22, 24, 25, 28]",160.9370784,101247,688,17,16,8,1.5692551066355458
undo,26,22,0,0,0,28,"[0, 29, 19, 9, 6, 28]",6,5,"[7, 14, 16, 17, 22]",130.9370784,102705,1458,5,2,8,1.5285578577513508
undo,26,22,0,0,0,16,"[0, 29, 19, 9, 6, 28, 16]",7,1,[22],96.49872771,104321,1616,1,0,8,2.5001967567448653
undo,26,22,1,0,0,28,"[0, 29, 19, 9, 6, 28]",6,5,"[7, 14, 16, 17, 22]",130.9370784,106190,1869,5,2,8,1.5285578577513508
undo,26,22,1,0,0,6,"[0, 29, 19, 9, 6]",5,13,"[3, 7, 13, 14, 15, 16, 17, 20, 21, 22, 24, 25, 28]",160.9370784,106407,217,17,16,8,1.5692551066355458
undo,26,22,1,0,0,9,"[0, 29, 19, 9]",4,16,"[1, 3, 6, 7, 8, 13, 14, 15, 16, 17, 20, 21, 22, 24, 25, 28]",187.5641323,106625,218,7,84,9,1.2555028175473422
undo,26,22,1,0,0,19,"[0, 29, 19]",3,18,"[1, 3, 6, 7, 8, 9, 13, 14, 15, 16, 17, 20, 21, 22, 23, 24, 25, 28]",207.9602104,106843,218,11,172,9,1.1559285443414686
undo,26,22,1,0,0,29,"[0, 29]",2,22,"[1, 3, 5, 6, 7, 8, 9, 11, 13, 14, 15, 16, 17, 19, 20, 21, 22, 23, 24, 25, 27, 28]",222.9935068,107060,217,11,235,9,1.0
undo,26,22,1,0,0,0,[0],1,29,"[1, 2, 3, 4, 5, 6, 7, 8, 9, 10, 11, 12, 13, 14, 15, 16, 17, 18, 19, 20, 21, 22, 23, 24, 25, 26, 27, 28, 29]",300,107411,351,31,704,9,0.0
undo,26,22,0,0,0,16,"[0, 16]",2,21,"[1, 3, 6, 7, 8, 9, 11, 13, 14, 15, 17, 18, 19, 20, 21, 22, 24, 25, 27, 28, 29]",218.605897,108601,1190,17,147,9,1.0
undo,26,22,0,0,0,28,"[0, 16, 28]",3,13,"[6, 7, 9, 13, 14, 17, 19, 20, 21, 22, 24, 25, 29]",184.1675463,109323,722,12,61,9,1.047282311284478
undo,26,22,0,0,0,6,"[0, 16, 28, 6]",4,12,"[7, 9, 13, 14, 17, 19, 20, 21, 22, 24, 25, 29]",154.1675463,109959,636,12,43,9,1.645645870580622
undo,26,22,0,0,0,9,"[0, 16, 28, 6, 9]",5,8,"[7, 14, 17, 19, 20, 21, 24, 29]",127.5404924,111067,1108,8,17,9,1.925750226630103
undo,26,22,0,0,0,19,"[0, 16, 28, 6, 9, 19]",6,6,"[7, 14, 17, 21, 24, 29]",107.1444143,112181,1114,3,7,9,2.4220750331476455
undo,26,22,0,0,0,29,"[0, 16, 28, 6, 9, 19, 29]",7,4,"[7, 14, 17, 24]",92.11111796,113468,1287,2,2,9,2.6996279574991067
undo,26,22,0,0,0,7,"[0, 16, 28, 6, 9, 19, 29, 7]",8,1,[14],41.0327468,114907,1439,1,0,9,2.059125386946491
undo,26,22,0,0,1,14,"[0, 16, 28, 6, 9, 19, 29, 7, 14]",9,0,[],27.99434199,115419,512,1,0,9,2.0997569104205307
undo,26,22,0,1,1,14,"[0, 16, 28, 6, 9, 19, 29, 7, 14]",9,0,[],27.99434199,123835,8416,1,0,9,2.0997569104205307
undo,27,20,0,0,0,0,[0],1,21,"[1, 2, 3, 4, 5, 6, 7, 8, 9, 12, 17, 18, 20, 21, 22, 23, 25, 26, 27, 28, 29]",300,121,-1,1,9,9,0.0
undo,27,20,0,0,0,12,"[0, 12]",2,20,"[1, 2, 3, 4, 5, 6, 7, 8, 9, 17, 18, 20, 21, 22, 23, 25, 26, 27, 28, 29]",271.5570747,4727,4606,1,8,9,1.0
undo,27,20,0,0,0,1,"[0, 12, 1]",3,12,"[3, 4, 5, 6, 8, 9, 20, 21, 23, 27, 28, 29]",189.5692707,6496,1769,1,6,9,1.0757997779162911
undo,27,20,0,0,0,5,"[0, 12, 1, 5]",4,10,"[4, 6, 8, 9, 20, 21, 23, 27, 28, 29]",152.8950291,8645,2149,1,5,9,1.1708231454516806
undo,27,20,0,0,0,21,"[0, 12, 1, 5, 21]",5,8,"[4, 6, 8, 9, 20, 23, 27, 28]",107.8950291,10193,1548,1,4,9,1.126197336199212
undo,27,20,0,0,0,8,"[0, 12, 1, 5, 21, 8]",6,5,"[6, 9, 23, 27, 28]",90.43077988,11077,884,1,3,9,1.140007470699913
undo,27,20,0,0,0,23,"[0, 12, 1, 5, 21, 8, 23]",7,2,"[6, 9]",45.74297394,11905,828,1,1,9,1.1162257896627588
undo,27,20,0,0,0,9,"[0, 12, 1, 5, 21, 8, 23, 9]",8,1,[6],26.53360123,13816,1911,1,0,9,1.1086880559449597
undo,27,20,0,0,1,6,"[0, 12, 1, 5, 21, 8, 23, 9, 6]",9,0,[],3.511872362,16067,2251,1,0,9,1.1186240265999328
undo,27,20,0,1,1,6,"[0, 12, 1, 5, 21, 8, 23, 9, 6]",9,0,[],3.511872362,49628,33561,1,0,9,1.1186240265999328
undo,28,19,0,0,0,0,[0],1,29,"[1, 2, 3, 4, 5, 6, 7, 8, 9, 10, 11, 12, 13, 14, 15, 16, 17, 18, 19, 20, 21, 22, 23, 24, 25, 26, 27, 28, 29]",300,114,-1,12,149,8,0.0
undo,28,19,0,0,0,29,"[0, 29]",2,28,"[1, 2, 3, 4, 5, 6, 7, 8, 9, 10, 11, 12, 13, 14, 15, 16, 17, 18, 19, 20, 21, 22, 23, 24, 25, 26, 27, 28]",265.0715016,11440,11326,12,120,8,1.0
undo,28,19,0,0,0,9,"[0, 29, 9]",3,17,"[1, 4, 5, 6, 7, 10, 11, 12, 13, 14, 19, 20, 21, 22, 24, 27, 28]",181.7108394,12924,1484,11,65,8,1.0375842971861238
undo,28,19,0,0,0,6,"[0, 29, 9, 6]",4,12,"[4, 7, 10, 11, 13, 14, 20, 21, 22, 24, 27, 28]",140.2741407,15192,2268,11,34,8,1.0389786364356892
undo,28,19,0,0,0,28,"[0, 29, 9, 6, 28]",5,5,"[4, 11, 14, 22, 27]",89.18598161,24134,8942,2,4,8,1.2864082671854424
undo,28,19,0,0,0,4,"[0, 29, 9, 6, 28, 4]",6,4,"[11, 14, 22, 27]",78.00564173,25300,1166,2,2,8,1.3470045407445053
undo,28,19,0,0,0,11,"[0, 29, 9, 6, 28, 4, 11]",7,1,[14],19.86787431,27292,1992,1,0,8,1.2776511912021429
undo,28,19,0,0,1,14,"[0, 29, 9, 6, 28, 4, 11, 14]",8,0,[],9.051220485,28412,1120,1,0,8,1.39128745765915
undo,28,19,1,0,0,11,"[0, 29, 9, 6, 28, 4, 11]",7,1,[14],19.86787431,32176,3764,1,0,8,1.2776511912021429
undo,28,19,1,0,0,4,"[0, 29, 9, 6, 28, 4]",6,4,"[11, 14, 22, 27]",78.00564173,32544,368,2,2,8,1.3470045407445053
undo,28,19,1,0,0,28,"[0, 29, 9, 6, 28]",5,5,"[4, 11, 14, 22, 27]",89.18598161,32895,351,2,4,8,1.2864082671854424
undo,28,19,1,0,0,6,"[0, 29, 9, 6]",4,12,"[4, 7, 10, 11, 13, 14, 20, 21, 22, 24, 27, 28]",140.2741407,33313,418,11,34,8,1.0389786364356892
undo,28,19,0,0,0,22,"[0, 29, 9, 6, 22]",5,7,"[4, 7, 10, 11, 14, 20, 24]",79.27414071,37331,4018,2,4,8,1.0360889604738772
undo,28,19,0,0,0,20,"[0, 29, 9, 6, 22, 20]",6,4,"[10, 11, 14, 24]",66.12119427,38847,1516,2,2,8,1.0344974630090689
undo,28,19,0,0,0,11,"[0, 29, 9, 6, 22, 20, 11]",7,1,[14],18.31952066,40631,1784,1,0,8,1.284713058456575
undo,28,19,0,0,1,14,"[0, 29, 9, 6, 22, 20, 11, 14]",8,0,[],7.502866836,42096,1465,1,0,8,1.3986915272533427
undo,28,19,1,0,0,11,"[0, 29, 9, 6, 22, 20, 11]",7,1,[14],18.31952066,42846,750,1,0,8,1.284713058456575
undo,28,19,1,0,0,20,"[0, 29, 9, 6, 22, 20]",6,4,"[10, 11, 14, 24]",66.12119427,43080,234,2,2,8,1.0344974630090689
undo,28,19,1,0,0,22,"[0, 29, 9, 6, 22]",5,7,"[4, 7, 10, 11, 14, 20, 24]",79.27414071,43298,218,2,4,8,1.0360889604738772
undo,28,19,1,0,0,6,"[0, 29, 9, 6]",4,12,"[4, 7, 10, 11, 13, 14, 20, 21, 22, 24, 27, 28]",140.2741407,43549,251,11,34,8,1.0389786364356892
undo,28,19,1,0,0,9,"[0, 29, 9]",3,17,"[1, 4, 5, 6, 7, 10, 11, 12, 13, 14, 19, 20, 21, 22, 24, 27, 28]",181.7108394,43900,351,11,65,8,1.0375842971861238
undo,28,19,1,0,0,29,"[0, 29]",2,28,"[1, 2, 3, 4, 5, 6, 7, 8, 9, 10, 11, 12, 13, 14, 15, 16, 17, 18, 19, 20, 21, 22, 23, 24, 25, 26, 27, 28]",265.0715016,44218,318,12,120,8,1.0
undo,28,19,1,0,0,0,[0],1,29,"[1, 2, 3, 4, 5, 6, 7, 8, 9, 10, 11, 12, 13, 14, 15, 16, 17, 18, 19, 20, 21, 22, 23, 24, 25, 26, 27, 28, 29]",300,45271,1053,12,149,8,0.0
undo,28,19,0,0,0,29,"[0, 29]",2,28,"[1, 2, 3, 4, 5, 6, 7, 8, 9, 10, 11, 12, 13, 14, 15, 16, 17, 18, 19, 20, 21, 22, 23, 24, 25, 26, 27, 28]",265.0715016,47899,2628,12,120,8,1.0
undo,28,19,1,0,0,0,[0],1,29,"[1, 2, 3, 4, 5, 6, 7, 8, 9, 10, 11, 12, 13, 14, 15, 16, 17, 18, 19, 20, 21, 22, 23, 24, 25, 26, 27, 28, 29]",300,52714,4815,12,149,8,0.0
undo,28,19,0,0,0,28,"[0, 28]",2,10,"[4, 6, 9, 10, 11, 14, 20, 22, 24, 27]",136.1219966,54219,1505,2,14,7,1.0
undo,28,19,0,0,0,4,"[0, 28, 4]",3,9,"[6, 9, 10, 11, 14, 20, 22, 24, 27]",124.9416567,55567,1348,2,10,7,1.0622089009735736
undo,28,19,0,0,0,11,"[0, 28, 4, 11]",4,4,"[14, 20, 22, 24]",66.80388929,58027,2460,4,1,6,1.0635812936430165
undo,28,19,0,0,0,14,"[0, 28, 4, 11, 14]",5,2,"[20, 22]",55.98723547,59490,1463,2,0,6,1.1668442100538934
undo,28,19,0,0,1,20,"[0, 28, 4, 11, 14, 20]",6,0,[],10.33638662,61073,1583,1,0,6,1.2812459522885806
undo,28,19,1,0,0,14,"[0, 28, 4, 11, 14]",5,2,"[20, 22]",55.98723547,63234,2161,2,0,6,1.1668442100538934
undo,28,19,1,0,0,11,"[0, 28, 4, 11]",4,4,"[14, 20, 22, 24]",66.80388929,63501,267,4,1,6,1.0635812936430165
undo,28,19,1,0,0,4,"[0, 28, 4]",3,9,"[6, 9, 10, 11, 14, 20, 22, 24, 27]",124.9416567,63869,368,2,10,7,1.0622089009735736
undo,28,19,1,0,0,28,"[0, 28]",2,10,"[4, 6, 9, 10, 11, 14, 20, 22, 24, 27]",136.1219966,64171,302,2,14,7,1.0
undo,28,19,1,0,0,0,[0],1,29,"[1, 2, 3, 4, 5, 6, 7, 8, 9, 10, 11, 12, 13, 14, 15, 16, 17, 18, 19, 20, 21, 22, 23, 24, 25, 26, 27, 28, 29]",300,64488,317,12,149,8,0.0
undo,28,19,0,0,0,29,"[0, 29]",2,28,"[1, 2, 3, 4, 5, 6, 7, 8, 9, 10, 11, 12, 13, 14, 15, 16, 17, 18, 19, 20, 21, 22, 23, 24, 25, 26, 27, 28]",265.0715016,67027,2539,12,120,8,1.0
undo,28,19,0,0,0,9,"[0, 29, 9]",3,17,"[1, 4, 5, 6, 7, 10, 11, 12, 13, 14, 19, 20, 21, 22, 24, 27, 28]",181.7108394,67953,926,11,65,8,1.0375842971861238
undo,28,19,0,0,0,6,"[0, 29, 9, 6]",4,12,"[4, 7, 10, 11, 13, 14, 20, 21, 22, 24, 27, 28]",140.2741407,69693,1740,11,34,8,1.0389786364356892
undo,28,19,0,0,0,22,"[0, 29, 9, 6, 22]",5,7,"[4, 7, 10, 11, 14, 20, 24]",79.27414071,76061,6368,2,4,8,1.0360889604738772
undo,28,19,0,0,0,20,"[0, 29, 9, 6, 22, 20]",6,4,"[10, 11, 14, 24]",66.12119427,76937,876,2,2,8,1.0344974630090689
undo,28,19,0,0,0,11,"[0, 29, 9, 6, 22, 20, 11]",7,1,[14],18.31952066,78409,1472,1,0,8,1.284713058456575
undo,28,19,0,0,1,14,"[0, 29, 9, 6, 22, 20, 11, 14]",8,0,[],7.502866836,80809,2400,1,0,8,1.3986915272533427
undo,28,19,0,1,1,14,"[0, 29, 9, 6, 22, 20, 11, 14]",8,0,[],7.502866836,88656,7847,1,0,8,1.3986915272533427
undo,29,21,0,0,0,0,[0],1,29,"[1, 2, 3, 4, 5, 6, 7, 8, 9, 10, 11, 12, 13, 14, 15, 16, 17, 18, 19, 20, 21, 22, 23, 24, 25, 26, 27, 28, 29]",300,124,-1,84,830,9,0.0
undo,29,21,0,0,0,18,"[0, 18]",2,28,"[1, 2, 3, 4, 5, 6, 7, 8, 9, 10, 11, 12, 13, 14, 15, 16, 17, 19, 20, 21, 22, 23, 24, 25, 26, 27, 28, 29]",240.923778,24846,24722,44,305,9,1.0
undo,29,21,0,0,0,29,"[0, 18, 29]",3,24,"[1, 2, 3, 4, 6, 7, 8, 9, 10, 11, 12, 13, 14, 15, 16, 17, 20, 21, 22, 23, 24, 25, 26, 27]",212.2706805,26193,1347,11,87,9,1.035555280387994
undo,29,21,0,0,0,25,"[0, 18, 29, 25]",4,18,"[1, 4, 6, 8, 9, 10, 11, 12, 14, 15, 16, 17, 20, 21, 22, 23, 24, 26]",167.0490043,27171,978,6,45,9,2.2226517719335437
undo,29,21,0,0,0,21,"[0, 18, 29, 25, 21]",5,9,"[4, 8, 9, 14, 15, 16, 17, 22, 23]",117.7134187,28068,897,3,15,9,2.027911600797407
undo,29,21,0,0,0,14,"[0, 18, 29, 25, 21, 14]",6,5,"[4, 8, 15, 16, 23]",92.10092178,28867,799,2,6,9,1.815037683642716
undo,29,21,0,0,0,4,"[0, 18, 29, 25, 21, 14, 4]",7,4,"[8, 15, 16, 23]",77.95878616,29703,836,2,3,9,1.7359689106940037
undo,29,21,0,0,0,16,"[0, 18, 29, 25, 21, 14, 4, 16]",8,2,"[8, 15]",33.36057992,31086,1383,2,0,9,1.6336126766343864
undo,29,21,0,0,1,8,"[0, 18, 29, 25, 21, 14, 4, 16, 8]",9,0,[],14.75950468,31935,849,1,0,9,1.574377282768187
undo,29,21,1,0,0,16,"[0, 18, 29, 25, 21, 14, 4, 16]",8,2,"[8, 15]",33.36057992,43208,11273,2,0,9,1.6336126766343864
undo,29,21,1,0,0,4,"[0, 18, 29, 25, 21, 14, 4]",7,4,"[8, 15, 16, 23]",77.95878616,43459,251,2,3,9,1.7359689106940037
undo,29,21,1,0,0,14,"[0, 18, 29, 25, 21, 14]",6,5,"[4, 8, 15, 16, 23]",92.10092178,43642,183,2,6,9,1.815037683642716
undo,29,21,1,0,0,21,"[0, 18, 29, 25, 21]",5,9,"[4, 8, 9, 14, 15, 16, 17, 22, 23]",117.7134187,44027,385,3,15,9,2.027911600797407
