condition,trial_id,map_id,undoIndicator,submit,checkEnd,currentChoice,chosen_all,n_city_all,n_within_reach,cities_reach,currentBudget,time_all,rt_all,n_opt_paths_all,n_subopt_paths_all,mas_all,tortuosity_all
basic,0,45,0,0,0,0,[0],1,24,"[1, 2, 3, 4, 5, 6, 7, 9, 10, 11, 12, 14, 15, 16, 17, 19, 20, 21, 22, 23, 24, 25, 27, 29]",300,283,-1,6,248,10,0.0
basic,0,45,0,0,0,15,"[0, 15]",2,23,"[1, 2, 3, 4, 5, 6, 7, 9, 10, 11, 12, 14, 16, 17, 19, 20, 21, 22, 23, 24, 25, 27, 29]",253.9022777,3340,3057,5,207,10,1.0
basic,0,45,0,0,0,23,"[0, 15, 23]",3,22,"[1, 2, 3, 4, 5, 6, 7, 9, 10, 11, 12, 14, 16, 17, 19, 20, 21, 22, 24, 25, 27, 29]",230.3014303,4148,808,5,163,10,1.0006068457769497
basic,0,45,0,0,0,20,"[0, 15, 23, 20]",4,19,"[1, 2, 3, 5, 6, 7, 9, 10, 11, 12, 14, 16, 17, 19, 21, 22, 24, 25, 29]",188.8647316,5024,876,5,137,10,1.2062119754673604
basic,0,45,0,0,0,24,"[0, 15, 23, 20, 24]",5,14,"[1, 2, 3, 5, 6, 7, 9, 10, 12, 17, 19, 21, 22, 29]",145.0355176,6158,1134,1,23,10,1.5044386356496664
basic,0,45,0,0,0,7,"[0, 15, 23, 20, 24, 7]",6,9,"[2, 3, 6, 10, 12, 17, 19, 22, 29]",110.6262165,7292,1134,1,22,10,1.4273775035809357
basic,0,45,0,0,0,2,"[0, 15, 23, 20, 24, 7, 2]",7,6,"[3, 6, 10, 12, 22, 29]",72.61306087,8409,1117,1,7,10,1.3566457419165387
basic,0,45,0,0,0,3,"[0, 15, 23, 20, 24, 7, 2, 3]",8,4,"[6, 10, 22, 29]",47.29508307,9463,1054,1,3,10,1.4087069987569252
basic,0,45,0,0,0,29,"[0, 15, 23, 20, 24, 7, 2, 3, 29]",9,1,[10],27.29508307,10174,711,1,0,10,1.6931989191216303
basic,0,45,0,0,1,10,"[0, 15, 23, 20, 24, 7, 2, 3, 29, 10]",10,0,[],5.754423843,12342,2168,1,0,10,1.9996819797033594
basic,0,45,0,1,1,10,"[0, 15, 23, 20, 24, 7, 2, 3, 29, 10]",10,0,[],5.754423843,13417,1075,1,0,10,1.9996819797033594
basic,1,42,0,0,0,0,[0],1,29,"[1, 2, 3, 4, 5, 6, 7, 8, 9, 10, 11, 12, 13, 14, 15, 16, 17, 18, 19, 20, 21, 22, 23, 24, 25, 26, 27, 28, 29]",300,164,-1,16,302,9,0.0
basic,1,42,0,0,0,22,"[0, 22]",2,27,"[1, 2, 3, 4, 5, 6, 7, 8, 9, 10, 11, 12, 13, 15, 16, 17, 18, 19, 20, 21, 23, 24, 25, 26, 27, 28, 29]",211.3997743,7988,7824,5,83,9,1.0
basic,1,42,0,0,0,8,"[0, 22, 8]",3,24,"[1, 2, 3, 4, 5, 6, 7, 9, 10, 11, 13, 15, 17, 18, 19, 20, 21, 23, 24, 25, 26, 27, 28, 29]",189.2638306,8961,973,19,88,8,1.029936807841886
basic,1,42,0,0,0,1,"[0, 22, 8, 1]",4,14,"[2, 3, 4, 5, 6, 7, 10, 15, 18, 19, 24, 26, 27, 28]",140.1720798,9840,879,13,34,8,1.0263530486295833
basic,1,42,0,0,0,7,"[0, 22, 8, 1, 7]",5,10,"[2, 4, 5, 6, 15, 19, 24, 26, 27, 28]",110.1720798,10924,1084,12,8,8,1.0957893919232085
basic,1,42,0,0,0,26,"[0, 22, 8, 1, 7, 26]",6,4,"[2, 19, 27, 28]",83.6014193,12806,1882,6,1,8,1.0929221247474747
basic,1,42,0,0,0,27,"[0, 22, 8, 1, 7, 26, 27]",7,2,"[2, 19]",65.57366292,13941,1135,2,0,8,1.099382198082748
basic,1,42,0,0,1,19,"[0, 22, 8, 1, 7, 26, 27, 19]",8,0,[],24.56146961,15255,1314,1,0,8,1.2738003776781508
basic,1,42,0,1,1,19,"[0, 22, 8, 1, 7, 26, 27, 19]",8,0,[],24.56146961,16148,893,1,0,8,1.2738003776781508
basic,2,24,0,0,0,0,[0],1,29,"[1, 2, 3, 4, 5, 6, 7, 8, 9, 10, 11, 12, 13, 14, 15, 16, 17, 18, 19, 20, 21, 22, 23, 24, 25, 26, 27, 28, 29]",300,279,-1,4,76,10,0.0
basic,2,24,0,0,0,14,"[0, 14]",2,27,"[1, 2, 3, 4, 5, 6, 8, 9, 10, 11, 12, 13, 15, 16, 17, 18, 19, 20, 21, 22, 23, 24, 25, 26, 27, 28, 29]",278.0455016,2293,2014,4,54,10,1.0
basic,2,24,0,0,0,10,"[0, 14, 10]",3,20,"[1, 2, 3, 4, 6, 8, 9, 11, 15, 16, 17, 19, 20, 22, 23, 24, 26, 27, 28, 29]",229.342319,4125,1832,10,99,9,1.0038790212375874
basic,2,24,0,0,0,24,"[0, 14, 10, 24]",4,14,"[1, 2, 4, 6, 8, 9, 11, 15, 16, 20, 22, 23, 28, 29]",176.0037775,5173,1048,4,26,9,1.0345598967195753
basic,2,24,0,0,0,6,"[0, 14, 10, 24, 6]",5,11,"[1, 8, 9, 11, 15, 16, 20, 22, 23, 28, 29]",138.6674681,6020,847,4,19,9,1.4136213103786264
basic,2,24,0,0,0,8,"[0, 14, 10, 24, 6, 8]",6,5,"[15, 16, 22, 23, 28]",77.83984283,7389,1369,4,4,9,2.0175546172818692
basic,2,24,0,0,0,22,"[0, 14, 10, 24, 6, 8, 22]",7,3,"[15, 16, 28]",64.42343497,8327,938,2,1,9,2.235490370965466
basic,2,24,0,0,0,16,"[0, 14, 10, 24, 6, 8, 22, 16]",8,1,[15],46.39567859,9354,1027,1,0,9,2.829024350414776
basic,2,24,0,0,1,15,"[0, 14, 10, 24, 6, 8, 22, 16, 15]",9,0,[],15.98186594,10304,950,1,0,9,2.374331903190176
basic,2,24,0,1,1,15,"[0, 14, 10, 24, 6, 8, 22, 16, 15]",9,0,[],15.98186594,10896,592,1,0,9,2.374331903190176
basic,3,2,0,0,0,0,[0],1,23,"[1, 2, 4, 5, 6, 7, 8, 9, 12, 13, 15, 16, 17, 18, 19, 20, 22, 23, 25, 26, 27, 28, 29]",300,262,-1,70,620,10,0.0
basic,3,2,0,0,0,19,"[0, 19]",2,22,"[1, 2, 4, 5, 6, 7, 8, 9, 12, 13, 15, 16, 17, 18, 20, 22, 23, 25, 26, 27, 28, 29]",210.306076,1922,1660,67,431,10,1.0
basic,3,2,0,0,0,12,"[0, 19, 12]",3,17,"[1, 4, 5, 6, 7, 13, 15, 16, 17, 18, 20, 22, 25, 26, 27, 28, 29]",174.2921898,2775,853,66,298,10,1.1107635036313153
basic,3,2,0,0,0,5,"[0, 19, 12, 5]",4,11,"[1, 6, 7, 13, 15, 16, 18, 22, 25, 26, 29]",144.7625437,3870,1095,38,136,10,1.0968174771581647
basic,3,2,0,0,0,22,"[0, 19, 12, 5, 22]",5,8,"[1, 6, 7, 13, 15, 18, 26, 29]",131.9562952,5537,1667,20,63,10,1.0889910507461968
basic,3,2,0,0,0,13,"[0, 19, 12, 5, 22, 13]",6,7,"[1, 6, 7, 15, 18, 26, 29]",117.0902265,6520,983,19,20,10,1.236526217328057
basic,3,2,0,0,0,18,"[0, 19, 12, 5, 22, 13, 18]",7,4,"[7, 15, 26, 29]",81.91921567,7776,1256,10,3,10,1.2128708213409936
basic,3,2,0,0,0,7,"[0, 19, 12, 5, 22, 13, 18, 7]",8,3,"[15, 26, 29]",71.62358553,8970,1194,5,0,10,1.2019811287894737
basic,3,2,0,0,0,26,"[0, 19, 12, 5, 22, 13, 18, 7, 26]",9,2,"[15, 29]",48.82007703,10341,1371,2,0,10,1.1883593342191134
basic,3,2,0,0,1,15,"[0, 19, 12, 5, 22, 13, 18, 7, 26, 15]",10,0,[],24.61264015,11243,902,1,0,10,1.4619750353663825
basic,3,2,0,1,1,15,"[0, 19, 12, 5, 22, 13, 18, 7, 26, 15]",10,0,[],24.61264015,13113,1870,1,0,10,1.4619750353663825
basic,4,31,0,0,0,0,[0],1,27,"[1, 3, 4, 5, 6, 7, 8, 10, 11, 12, 13, 14, 15, 16, 17, 18, 19, 20, 21, 22, 23, 24, 25, 26, 27, 28, 29]",300,197,-1,2,87,10,0.0
basic,4,31,0,0,0,14,"[0, 14]",2,25,"[1, 3, 5, 6, 7, 8, 10, 11, 12, 13, 15, 16, 17, 18, 19, 20, 21, 22, 23, 24, 25, 26, 27, 28, 29]",263.861378,5937,5740,2,59,10,1.0
basic,4,31,0,0,0,27,"[0, 14, 27]",3,22,"[1, 3, 5, 6, 7, 8, 10, 11, 12, 13, 15, 16, 17, 18, 19, 20, 21, 22, 24, 25, 28, 29]",235.6833724,6662,725,1,39,10,1.5881859159302467
basic,4,31,0,0,0,8,"[0, 14, 27, 8]",4,20,"[1, 3, 5, 6, 7, 10, 11, 12, 13, 16, 17, 18, 19, 20, 21, 22, 24, 25, 28, 29]",224.6380114,7329,667,1,36,10,2.1665048452331277
basic,4,31,0,0,0,18,"[0, 14, 27, 8, 18]",5,15,"[1, 5, 6, 7, 11, 12, 13, 16, 17, 19, 20, 22, 25, 28, 29]",188.7911147,8244,915,1,26,10,1.7273375741920205
basic,4,31,0,0,0,11,"[0, 14, 27, 8, 18, 11]",6,11,"[1, 5, 7, 12, 16, 17, 19, 20, 22, 25, 28]",153.9055876,9080,836,13,17,9,2.386348208737804
basic,4,31,0,0,0,5,"[0, 14, 27, 8, 18, 11, 5]",7,5,"[16, 17, 20, 25, 28]",110.2249283,10258,1178,3,3,9,2.163249612867222
basic,4,31,0,0,0,28,"[0, 14, 27, 8, 18, 11, 5, 28]",8,2,"[16, 17]",90.00117988,11204,946,2,0,9,1.9564635733184719
basic,4,31,0,0,1,16,"[0, 14, 27, 8, 18, 11, 5, 28, 16]",9,0,[],56.38570725,12175,971,1,0,9,1.824071502589619
basic,4,31,0,1,1,16,"[0, 14, 27, 8, 18, 11, 5, 28, 16]",9,0,[],56.38570725,13463,1288,1,0,9,1.824071502589619
basic,5,7,0,0,0,0,[0],1,29,"[1, 2, 3, 4, 5, 6, 7, 8, 9, 10, 11, 12, 13, 14, 15, 16, 17, 18, 19, 20, 21, 22, 23, 24, 25, 26, 27, 28, 29]",300,281,-1,3,79,9,0.0
basic,5,7,0,0,0,23,"[0, 23]",2,28,"[1, 2, 3, 4, 5, 6, 7, 8, 9, 10, 11, 12, 13, 14, 15, 16, 17, 18, 19, 20, 21, 22, 24, 25, 26, 27, 28, 29]",253.7290588,2289,2008,6,103,8,1.0
basic,5,7,0,0,0,25,"[0, 23, 25]",3,12,"[2, 4, 6, 7, 13, 14, 15, 16, 18, 19, 20, 21]",143.833654,4470,2181,3,39,8,1.3189047790460706
basic,5,7,0,0,0,4,"[0, 23, 25, 4]",4,9,"[2, 6, 7, 13, 15, 16, 18, 19, 20]",119.0950202,6740,2270,2,16,8,1.2882408504092724
basic,5,7,0,0,0,20,"[0, 23, 25, 4, 20]",5,6,"[2, 6, 7, 13, 18, 19]",99.44813752,7936,1196,1,7,8,1.33778558273816
basic,5,7,0,0,0,18,"[0, 23, 25, 4, 20, 18]",6,3,"[7, 13, 19]",86.64188904,8593,657,1,2,8,1.4902303813643722
basic,5,7,0,0,0,7,"[0, 23, 25, 4, 20, 18, 7]",7,1,[19],45.41083279,9589,996,1,0,8,1.3916756134202917
basic,5,7,0,0,1,19,"[0, 23, 25, 4, 20, 18, 7, 19]",8,0,[],15.99995045,10636,1047,1,0,8,1.501301453425073
basic,5,7,0,1,1,19,"[0, 23, 25, 4, 20, 18, 7, 19]",8,0,[],15.99995045,11361,725,1,0,8,1.501301453425073
basic,6,1,0,0,0,0,[0],1,26,"[1, 2, 4, 5, 7, 8, 9, 10, 11, 12, 13, 14, 15, 16, 17, 18, 19, 20, 21, 22, 23, 24, 25, 26, 28, 29]",300,199,-1,6,74,7,0.0
basic,6,1,0,0,0,14,"[0, 14]",2,19,"[1, 4, 5, 8, 9, 13, 15, 17, 18, 19, 20, 21, 22, 23, 24, 25, 26, 28, 29]",200.1901808,4056,3857,5,42,7,1.0
basic,6,1,0,0,0,17,"[0, 14, 17]",3,15,"[1, 4, 5, 8, 9, 13, 15, 18, 19, 20, 22, 23, 25, 28, 29]",147.8356204,5097,1041,5,27,7,1.0028844724416826
basic,6,1,0,0,0,1,"[0, 14, 17, 1]",4,12,"[4, 5, 8, 9, 15, 18, 20, 22, 23, 25, 28, 29]",123.4840291,6190,1093,5,15,7,1.0264985578353567
basic,6,1,0,0,0,28,"[0, 14, 17, 1, 28]",5,5,"[9, 15, 22, 23, 29]",88.59850198,7223,1033,5,3,7,1.0339861575999345
basic,6,1,0,0,0,23,"[0, 14, 17, 1, 28, 23]",6,2,"[15, 22]",51.70676849,7941,718,2,0,7,1.0327458250705703
basic,6,1,0,0,1,15,"[0, 14, 17, 1, 28, 23, 15]",7,0,[],20.81987807,9447,1506,1,0,7,1.1948681641401226
basic,6,1,0,1,1,15,"[0, 14, 17, 1, 28, 23, 15]",7,0,[],20.81987807,9999,552,1,0,7,1.1948681641401226
basic,7,28,0,0,0,0,[0],1,27,"[1, 2, 3, 4, 5, 6, 7, 8, 9, 10, 11, 12, 13, 14, 15, 16, 17, 18, 19, 20, 22, 23, 25, 26, 27, 28, 29]",300,172,-1,2,96,9,0.0
basic,7,28,0,0,0,3,"[0, 3]",2,26,"[1, 2, 4, 5, 6, 7, 8, 9, 10, 11, 12, 13, 14, 15, 16, 17, 18, 19, 20, 22, 23, 25, 26, 27, 28, 29]",251.0817008,1978,1806,1,64,9,1.0
basic,7,28,0,0,0,5,"[0, 3, 5]",3,20,"[2, 4, 6, 7, 8, 9, 10, 11, 12, 13, 14, 15, 18, 19, 20, 23, 25, 26, 28, 29]",166.9865166,3090,1112,1,34,9,1.0203769473612083
basic,7,28,0,0,0,26,"[0, 3, 5, 26]",4,13,"[2, 4, 7, 8, 9, 12, 13, 14, 18, 19, 20, 25, 28]",134.2298379,4120,1030,1,28,9,1.0315203228799597
basic,7,28,0,0,0,19,"[0, 3, 5, 26, 19]",5,7,"[2, 7, 9, 12, 13, 14, 18]",93.22983789,5303,1183,1,17,9,1.1324645362297356
basic,7,28,0,0,0,7,"[0, 3, 5, 26, 19, 7]",6,5,"[2, 12, 13, 14, 18]",65.49898864,6579,1276,1,6,9,1.1971194919020265
basic,7,28,0,0,0,12,"[0, 3, 5, 26, 19, 7, 12]",7,2,"[13, 18]",52.3460422,7662,1083,1,1,9,1.2020762147848982
basic,7,28,0,0,0,13,"[0, 3, 5, 26, 19, 7, 12, 13]",8,1,[18],35.14139167,8804,1142,1,0,9,1.39005144078531
basic,7,28,0,0,1,18,"[0, 3, 5, 26, 19, 7, 12, 13, 18]",9,0,[],10.72828044,9704,900,1,0,9,1.738787343626007
basic,7,28,0,1,1,18,"[0, 3, 5, 26, 19, 7, 12, 13, 18]",9,0,[],10.72828044,10362,658,1,0,9,1.738787343626007
basic,8,14,0,0,0,0,[0],1,29,"[1, 2, 3, 4, 5, 6, 7, 8, 9, 10, 11, 12, 13, 14, 15, 16, 17, 18, 19, 20, 21, 22, 23, 24, 25, 26, 27, 28, 29]",300,230,-1,8,157,10,0.0
basic,8,14,0,0,0,15,"[0, 15]",2,20,"[1, 2, 3, 4, 7, 8, 9, 13, 17, 18, 19, 20, 21, 22, 23, 25, 26, 27, 28, 29]",216.7053423,2941,2711,8,102,10,1.0
basic,8,14,0,0,0,28,"[0, 15, 28]",3,17,"[1, 2, 3, 4, 7, 8, 9, 13, 17, 18, 19, 20, 22, 23, 25, 26, 27]",197.4959696,6192,3251,8,48,10,1.0446007867311968
basic,8,14,0,0,0,17,"[0, 15, 28, 17]",4,14,"[1, 2, 3, 4, 7, 8, 13, 18, 19, 20, 22, 23, 25, 26]",184.0423455,7854,1662,8,39,10,1.0729463354689972
basic,8,14,0,0,0,18,"[0, 15, 28, 17, 18]",5,9,"[1, 2, 4, 7, 8, 19, 23, 25, 26]",119.412631,10452,2598,8,27,10,1.5035901079219378
basic,8,14,0,0,0,8,"[0, 15, 28, 17, 18, 8]",6,8,"[1, 2, 4, 7, 19, 23, 25, 26]",105.8111605,12071,1619,8,18,10,1.4819689987843856
basic,8,14,0,0,0,1,"[0, 15, 28, 17, 18, 8, 1]",7,5,"[7, 19, 23, 25, 26]",82.21031307,13192,1121,4,6,10,1.4084991998385268
basic,8,14,0,0,0,19,"[0, 15, 28, 17, 18, 8, 1, 19]",8,4,"[7, 23, 25, 26]",66.97876686,14987,1795,4,1,10,1.5758713333797987
basic,8,14,0,0,0,25,"[0, 15, 28, 17, 18, 8, 1, 19, 25]",9,2,"[7, 23]",31.1318702,16538,1551,2,0,10,1.6426186864061416
basic,8,14,0,0,1,7,"[0, 15, 28, 17, 18, 8, 1, 19, 25, 7]",10,0,[],11.4341546,19821,3283,1,0,10,1.652323224159132
basic,8,14,0,1,1,7,"[0, 15, 28, 17, 18, 8, 1, 19, 25, 7]",10,0,[],11.4341546,20763,942,1,0,10,1.652323224159132
basic,9,0,0,0,0,0,[0],1,27,"[2, 3, 4, 5, 6, 7, 8, 9, 10, 11, 12, 13, 14, 15, 16, 17, 19, 20, 21, 22, 23, 24, 25, 26, 27, 28, 29]",300,177,-1,104,1136,9,0.0
basic,9,0,0,0,0,28,"[0, 28]",2,26,"[2, 3, 4, 5, 6, 7, 8, 9, 10, 11, 12, 13, 14, 15, 16, 17, 19, 20, 21, 22, 23, 24, 25, 26, 27, 29]",194.9190788,5912,5735,39,388,9,1.0
basic,9,0,0,0,0,5,"[0, 28, 5]",3,21,"[2, 3, 4, 7, 8, 9, 11, 12, 13, 14, 15, 16, 17, 19, 20, 21, 23, 24, 25, 26, 29]",151.2613189,7022,1110,27,210,9,1.0978295127671733
basic,9,0,0,0,0,26,"[0, 28, 5, 26]",4,15,"[3, 4, 7, 8, 9, 11, 12, 13, 14, 15, 17, 19, 20, 23, 24]",115.8212286,9337,2315,5,35,9,1.1400379746718978
basic,9,0,0,0,0,4,"[0, 28, 5, 26, 4]",5,12,"[3, 7, 8, 9, 11, 12, 15, 17, 19, 20, 23, 24]",103.779634,10258,921,4,17,9,1.2534780347343448
basic,9,0,0,0,0,24,"[0, 28, 5, 26, 4, 24]",6,9,"[3, 7, 8, 9, 11, 12, 15, 17, 19]",92.37787977,11595,1337,4,12,9,1.2444963062448124
basic,9,0,0,0,0,15,"[0, 28, 5, 26, 4, 24, 15]",7,6,"[3, 7, 8, 9, 11, 17]",69.03264471,12664,1069,3,4,9,1.2218613820858855
basic,9,0,0,0,0,7,"[0, 28, 5, 26, 4, 24, 15, 7]",8,2,"[3, 8]",37.96819558,14728,2064,2,0,9,1.2781430976973103
basic,9,0,0,0,1,8,"[0, 28, 5, 26, 4, 24, 15, 7, 8]",9,0,[],18.8632224,18505,3777,1,0,9,1.263743502581705
basic,9,0,0,1,1,8,"[0, 28, 5, 26, 4, 24, 15, 7, 8]",9,0,[],18.8632224,19514,1009,1,0,9,1.263743502581705
basic,10,44,0,0,0,0,[0],1,29,"[1, 2, 3, 4, 5, 6, 7, 8, 9, 10, 11, 12, 13, 14, 15, 16, 17, 18, 19, 20, 21, 22, 23, 24, 25, 26, 27, 28, 29]",300,289,-1,13,126,7,0.0
basic,10,44,0,0,0,24,"[0, 24]",2,19,"[2, 4, 5, 6, 7, 8, 9, 11, 12, 14, 16, 17, 19, 20, 22, 23, 25, 26, 28]",149.7302426,3121,2832,4,43,7,1.0
basic,10,44,0,0,0,9,"[0, 24, 9]",3,11,"[4, 5, 7, 8, 11, 12, 14, 20, 23, 25, 28]",116.9735639,4758,1637,2,15,7,1.153461779613976
basic,10,44,0,0,0,4,"[0, 24, 9, 4]",4,10,"[5, 7, 8, 11, 12, 14, 20, 23, 25, 28]",97.27584825,5621,863,2,10,7,1.1541915958625368
basic,10,44,0,0,0,7,"[0, 24, 9, 4, 7]",5,4,"[5, 12, 23, 25]",66.25972341,6772,1151,2,2,7,1.1312544568834735
basic,10,44,0,0,1,23,"[0, 24, 9, 4, 7, 23]",6,0,[],47.15475024,7737,965,1,0,6,1.154496377323794
basic,10,44,0,1,1,23,"[0, 24, 9, 4, 7, 23]",6,0,[],47.15475024,8613,876,1,0,6,1.154496377323794
basic,11,29,0,0,0,0,[0],1,29,"[1, 2, 3, 4, 5, 6, 7, 8, 9, 10, 11, 12, 13, 14, 15, 16, 17, 18, 19, 20, 21, 22, 23, 24, 25, 26, 27, 28, 29]",300,191,-1,1,78,9,0.0
basic,11,29,0,0,0,6,"[0, 6]",2,28,"[1, 2, 3, 4, 5, 7, 8, 9, 10, 11, 12, 13, 14, 15, 16, 17, 18, 19, 20, 21, 22, 23, 24, 25, 26, 27, 28, 29]",228.4108947,4375,4184,1,25,9,1.0
basic,11,29,0,0,0,28,"[0, 6, 28]",3,24,"[1, 3, 4, 5, 7, 9, 10, 11, 12, 13, 14, 15, 16, 17, 18, 20, 21, 22, 23, 24, 25, 26, 27, 29]",187.1798384,5793,1418,1,22,9,1.162106788166845
basic,11,29,0,0,0,27,"[0, 6, 28, 27]",4,19,"[1, 3, 4, 5, 7, 9, 10, 11, 12, 13, 14, 15, 16, 21, 22, 23, 25, 26, 29]",166.6615539,6620,827,1,21,9,1.2307173895439045
basic,11,29,0,0,0,22,"[0, 6, 28, 27, 22]",5,13,"[1, 3, 4, 5, 7, 9, 12, 13, 14, 15, 21, 26, 29]",133.4200136,7638,1018,1,19,9,1.4241767805149903
basic,11,29,0,0,0,12,"[0, 6, 28, 27, 22, 12]",6,8,"[4, 5, 7, 9, 13, 14, 21, 26]",95.4726817,8897,1259,1,6,9,1.3248355326460857
basic,11,29,0,0,0,7,"[0, 6, 28, 27, 22, 12, 7]",7,4,"[4, 5, 9, 21]",81.87121119,10394,1497,1,3,9,1.3264091962339806
basic,11,29,0,0,0,9,"[0, 6, 28, 27, 22, 12, 7, 9]",8,1,[4],52.80232748,11476,1082,1,0,9,1.309391257644539
basic,11,29,0,0,1,4,"[0, 6, 28, 27, 22, 12, 7, 9, 4]",9,0,[],11.76575843,12814,1338,1,0,9,1.6396807789841599
basic,11,29,0,1,1,4,"[0, 6, 28, 27, 22, 12, 7, 9, 4]",9,0,[],11.76575843,13514,700,1,0,9,1.6396807789841599
basic,12,8,0,0,0,0,[0],1,29,"[1, 2, 3, 4, 5, 6, 7, 8, 9, 10, 11, 12, 13, 14, 15, 16, 17, 18, 19, 20, 21, 22, 23, 24, 25, 26, 27, 28, 29]",300,209,-1,10,149,9,0.0
basic,12,8,0,0,0,5,"[0, 5]",2,28,"[1, 2, 3, 4, 6, 7, 8, 9, 10, 11, 12, 13, 14, 15, 16, 17, 18, 19, 20, 21, 22, 23, 24, 25, 26, 27, 28, 29]",254.5137383,3171,2962,10,100,9,1.0
basic,12,8,0,0,0,25,"[0, 5, 25]",3,20,"[1, 2, 3, 4, 6, 11, 12, 14, 15, 16, 17, 18, 19, 20, 21, 22, 23, 24, 28, 29]",215.3091468,4722,1551,4,42,9,1.2272747879909065
basic,12,8,0,0,0,1,"[0, 5, 25, 1]",4,17,"[3, 4, 6, 11, 12, 14, 15, 16, 17, 18, 20, 21, 22, 23, 24, 28, 29]",190.3091468,7821,3099,3,24,9,1.1770245007593956
basic,12,8,0,0,0,14,"[0, 5, 25, 1, 14]",5,12,"[4, 6, 11, 15, 16, 17, 18, 20, 22, 23, 24, 28]",134.2288472,9078,1257,2,7,9,1.9402045895737055
basic,12,8,0,0,0,17,"[0, 5, 25, 1, 14, 17]",6,6,"[11, 15, 16, 18, 24, 28]",97.21533615,10290,1212,2,5,9,1.8565852053453542
basic,12,8,0,0,0,11,"[0, 5, 25, 1, 14, 17, 11]",7,4,"[15, 16, 24, 28]",72.03597953,11305,1015,2,2,9,1.7412490760199053
basic,12,8,0,0,0,24,"[0, 5, 25, 1, 14, 17, 11, 24]",8,1,[15],34.8203914,12326,1021,1,0,9,1.6105839855620734
basic,12,8,0,0,1,15,"[0, 5, 25, 1, 14, 17, 11, 24, 15]",9,0,[],18.05733678,13804,1478,1,0,9,1.671962547892534
basic,12,8,0,1,1,15,"[0, 5, 25, 1, 14, 17, 11, 24, 15]",9,0,[],18.05733678,14664,860,1,0,9,1.671962547892534
basic,13,19,0,0,0,0,[0],1,29,"[1, 2, 3, 4, 5, 6, 7, 8, 9, 10, 11, 12, 13, 14, 15, 16, 17, 18, 19, 20, 21, 22, 23, 24, 25, 26, 27, 28, 29]",300,215,-1,12,149,8,0.0
basic,13,19,0,0,0,29,"[0, 29]",2,28,"[1, 2, 3, 4, 5, 6, 7, 8, 9, 10, 11, 12, 13, 14, 15, 16, 17, 18, 19, 20, 21, 22, 23, 24, 25, 26, 27, 28]",265.0715016,2823,2608,12,120,8,1.0
basic,13,19,0,0,0,9,"[0, 29, 9]",3,17,"[1, 4, 5, 6, 7, 10, 11, 12, 13, 14, 19, 20, 21, 22, 24, 27, 28]",181.7108394,4721,1898,11,65,8,1.0375842971861238
basic,13,19,0,0,0,6,"[0, 29, 9, 6]",4,12,"[4, 7, 10, 11, 13, 14, 20, 21, 22, 24, 27, 28]",140.2741407,5563,842,11,34,8,1.0389786364356892
basic,13,19,0,0,0,4,"[0, 29, 9, 6, 4]",5,7,"[10, 11, 14, 20, 22, 27, 28]",99.22538921,6451,888,2,6,8,1.2182485830176533
basic,13,19,0,0,0,28,"[0, 29, 9, 6, 4, 28]",6,3,"[11, 14, 27]",88.04504932,7721,1270,2,1,8,1.2933703503588658
basic,13,19,0,0,0,14,"[0, 29, 9, 6, 4, 28, 14]",7,1,[11],30.46032912,8724,1003,1,0,8,1.2889112786863766
basic,13,19,0,0,1,11,"[0, 29, 9, 6, 4, 28, 14, 11]",8,0,[],19.6436753,9454,730,1,0,8,1.2786737377290265
basic,13,19,0,1,1,11,"[0, 29, 9, 6, 4, 28, 14, 11]",8,0,[],19.6436753,10147,693,1,0,8,1.2786737377290265
basic,14,23,0,0,0,0,[0],1,28,"[1, 2, 3, 4, 5, 6, 7, 8, 9, 10, 11, 12, 13, 14, 15, 16, 17, 18, 19, 20, 21, 22, 23, 25, 26, 27, 28, 29]",300,180,-1,76,2626,10,0.0
basic,14,23,0,0,0,13,"[0, 13]",2,19,"[1, 2, 3, 5, 6, 7, 8, 9, 10, 12, 14, 17, 18, 19, 21, 22, 23, 27, 29]",189.3202819,4504,4324,9,168,10,1.0
basic,14,23,0,0,0,12,"[0, 13, 12]",3,16,"[1, 2, 3, 6, 7, 8, 9, 10, 14, 17, 18, 21, 22, 23, 27, 29]",177.2372359,5107,603,9,96,10,1.0014195490503164
basic,14,23,0,0,0,2,"[0, 13, 12, 2]",4,12,"[1, 3, 6, 7, 9, 10, 14, 18, 21, 22, 27, 29]",163.3447919,5803,696,4,30,10,1.0014394317924602
basic,14,23,0,0,0,6,"[0, 13, 12, 2, 6]",5,8,"[7, 9, 10, 14, 18, 22, 27, 29]",144.905703,8969,3166,2,11,10,1.0322887343644427
basic,14,23,0,0,0,9,"[0, 13, 12, 2, 6, 9]",6,7,"[7, 10, 14, 18, 22, 27, 29]",113.76088,11204,2235,1,4,10,1.4254988513229307
basic,14,23,0,0,0,14,"[0, 13, 12, 2, 6, 9, 14]",7,5,"[7, 10, 22, 27, 29]",103.3205735,12129,925,1,3,10,1.3959783331838773
basic,14,23,0,0,0,29,"[0, 13, 12, 2, 6, 9, 14, 29]",8,2,"[7, 10]",55.8864086,13903,1774,1,1,10,1.5830186628364178
basic,14,23,0,0,0,7,"[0, 13, 12, 2, 6, 9, 14, 29, 7]",9,1,[10],31.80321944,14962,1059,1,0,10,1.5946024925098619
basic,14,23,0,0,1,10,"[0, 13, 12, 2, 6, 9, 14, 29, 7, 10]",10,0,[],4.344159007,16103,1141,1,0,10,1.5468978194319851
basic,14,23,0,1,1,10,"[0, 13, 12, 2, 6, 9, 14, 29, 7, 10]",10,0,[],4.344159007,17313,1210,1,0,10,1.5468978194319851
basic,15,32,0,0,0,0,[0],1,29,"[1, 2, 3, 4, 5, 6, 7, 8, 9, 10, 11, 12, 13, 14, 15, 16, 17, 18, 19, 20, 21, 22, 23, 24, 25, 26, 27, 28, 29]",300,173,-1,17,359,10,0.0
basic,15,32,0,0,0,19,"[0, 19]",2,28,"[1, 2, 3, 4, 5, 6, 7, 8, 9, 10, 11, 12, 13, 14, 15, 16, 17, 18, 20, 21, 22, 23, 24, 25, 26, 27, 28, 29]",283.5075775,13238,13065,16,294,10,1.0
basic,15,32,0,0,0,13,"[0, 19, 13]",3,24,"[2, 3, 4, 5, 6, 8, 9, 10, 11, 12, 14, 15, 16, 17, 18, 20, 21, 22, 23, 24, 25, 26, 27, 28]",260.3127505,13922,684,14,227,10,1.0172874229878615
basic,15,32,0,0,0,15,"[0, 19, 13, 15]",4,18,"[2, 3, 5, 8, 9, 10, 11, 12, 16, 17, 20, 22, 23, 24, 25, 26, 27, 28]",177.4393531,15287,1365,9,116,10,1.435447391509833
basic,15,32,0,0,0,28,"[0, 19, 13, 15, 28]",5,17,"[2, 3, 5, 8, 9, 10, 11, 12, 16, 17, 20, 22, 23, 24, 25, 26, 27]",166.0375988,17305,2018,9,70,10,1.3843701324937985
basic,15,32,0,0,0,12,"[0, 19, 13, 15, 28, 12]",6,14,"[2, 3, 5, 8, 9, 10, 11, 16, 17, 20, 22, 24, 26, 27]",147.0639329,18204,899,6,35,10,1.358372254952329
basic,15,32,0,0,0,16,"[0, 19, 13, 15, 28, 12, 16]",7,13,"[2, 3, 5, 8, 9, 10, 11, 17, 20, 22, 24, 26, 27]",131.411457,18889,685,5,15,10,1.4356932930709845
basic,15,32,0,0,0,22,"[0, 19, 13, 15, 28, 12, 16, 22]",8,6,"[2, 8, 9, 17, 20, 27]",97.57360838,19739,850,3,5,10,1.4335226411545752
basic,15,32,0,0,0,9,"[0, 19, 13, 15, 28, 12, 16, 22, 9]",9,3,"[2, 8, 20]",75.37000507,21657,1918,3,0,10,1.4837166378374758
basic,15,32,0,0,1,20,"[0, 19, 13, 15, 28, 12, 16, 22, 9, 20]",10,0,[],12.72018464,24771,3114,1,0,10,1.420264208067807
basic,15,32,0,1,1,20,"[0, 19, 13, 15, 28, 12, 16, 22, 9, 20]",10,0,[],12.72018464,25514,743,1,0,10,1.420264208067807
basic,16,20,0,0,0,0,[0],1,21,"[1, 2, 3, 4, 5, 6, 7, 8, 9, 12, 17, 18, 20, 21, 22, 23, 25, 26, 27, 28, 29]",300,299,-1,1,9,9,0.0
basic,16,20,0,0,0,12,"[0, 12]",2,20,"[1, 2, 3, 4, 5, 6, 7, 8, 9, 17, 18, 20, 21, 22, 23, 25, 26, 27, 28, 29]",271.5570747,2992,2693,1,8,9,1.0
basic,16,20,0,0,0,1,"[0, 12, 1]",3,12,"[3, 4, 5, 6, 8, 9, 20, 21, 23, 27, 28, 29]",189.5692707,4006,1014,1,6,9,1.0757997779162911
basic,16,20,0,0,0,5,"[0, 12, 1, 5]",4,10,"[4, 6, 8, 9, 20, 21, 23, 27, 28, 29]",152.8950291,5160,1154,1,5,9,1.1708231454516806
basic,16,20,0,0,0,28,"[0, 12, 1, 5, 28]",5,4,"[8, 9, 21, 23]",82.8593239,8404,3244,2,2,7,1.1313554119713172
basic,16,20,0,0,0,21,"[0, 12, 1, 5, 28, 21]",6,1,[8],46.61018598,9637,1233,1,0,7,1.4854739689057037
basic,16,20,0,0,1,8,"[0, 12, 1, 5, 28, 21, 8]",7,0,[],29.14593678,10928,1291,1,0,7,1.473382662603891
basic,16,20,0,1,1,8,"[0, 12, 1, 5, 28, 21, 8]",7,0,[],29.14593678,11764,836,1,0,7,1.473382662603891
basic,17,12,0,0,0,0,[0],1,29,"[1, 2, 3, 4, 5, 6, 7, 8, 9, 10, 11, 12, 13, 14, 15, 16, 17, 18, 19, 20, 21, 22, 23, 24, 25, 26, 27, 28, 29]",300,168,-1,2,32,9,0.0
basic,17,12,0,0,0,22,"[0, 22]",2,22,"[2, 4, 5, 6, 7, 9, 10, 12, 13, 14, 15, 16, 17, 18, 19, 21, 23, 24, 25, 27, 28, 29]",211.9943184,10223,10055,6,42,8,1.0
basic,17,12,0,0,0,16,"[0, 22, 16]",3,12,"[2, 4, 5, 6, 7, 12, 14, 19, 23, 24, 25, 27]",190.9943184,11806,1583,6,24,8,1.2017164145167045
basic,17,12,0,0,0,4,"[0, 22, 16, 4]",4,9,"[2, 6, 7, 12, 14, 19, 24, 25, 27]",156.7890556,13057,1251,6,14,8,1.146531713305579
basic,17,12,0,0,0,12,"[0, 22, 16, 4, 12]",5,4,"[14, 19, 24, 27]",114.5990094,14474,1417,4,3,8,1.1221389456954312
basic,17,12,0,0,0,27,"[0, 22, 16, 4, 12, 27]",6,3,"[14, 19, 24]",90.24741807,15956,1482,2,1,8,1.2262878338287035
basic,17,12,0,0,0,14,"[0, 22, 16, 4, 12, 27, 14]",7,1,[24],61.59432051,17663,1707,1,0,8,1.2804562106751427
basic,17,12,0,0,1,24,"[0, 22, 16, 4, 12, 27, 14, 24]",8,0,[],44.38966997,19046,1383,1,0,8,1.4322660007679802
basic,17,12,0,1,1,24,"[0, 22, 16, 4, 12, 27, 14, 24]",8,0,[],44.38966997,21697,2651,1,0,8,1.4322660007679802
basic,18,38,0,0,0,0,[0],1,29,"[1, 2, 3, 4, 5, 6, 7, 8, 9, 10, 11, 12, 13, 14, 15, 16, 17, 18, 19, 20, 21, 22, 23, 24, 25, 26, 27, 28, 29]",300,167,-1,33,506,9,0.0
basic,18,38,0,0,0,19,"[0, 19]",2,23,"[3, 4, 5, 6, 7, 8, 9, 11, 13, 14, 15, 16, 17, 18, 20, 22, 23, 24, 25, 26, 27, 28, 29]",219.5015528,21675,21508,6,61,9,1.0
basic,18,38,0,0,0,17,"[0, 19, 17]",3,21,"[3, 4, 5, 6, 7, 9, 11, 13, 14, 15, 16, 18, 20, 22, 23, 24, 25, 26, 27, 28, 29]",198.1239945,22576,901,6,53,9,1.571793785769489
basic,18,38,0,0,0,20,"[0, 19, 17, 20]",4,17,"[3, 4, 5, 6, 7, 11, 13, 14, 15, 16, 18, 22, 24, 25, 26, 27, 28]",174.3542658,24227,1651,6,44,9,2.333182710277297
basic,18,38,0,0,0,4,"[0, 19, 17, 20, 4]",5,10,"[5, 11, 13, 14, 15, 16, 24, 26, 27, 28]",140.4131403,25462,1235,5,22,9,2.276099229646013
basic,18,38,0,0,0,15,"[0, 19, 17, 20, 4, 15]",6,8,"[5, 11, 13, 14, 16, 24, 26, 28]",114.4131403,26577,1115,5,6,9,2.5292671156176403
basic,18,38,0,0,0,11,"[0, 19, 17, 20, 4, 15, 11]",7,2,"[16, 28]",78.01259089,28004,1427,2,0,9,2.778100109749787
basic,18,38,0,0,0,28,"[0, 19, 17, 20, 4, 15, 11, 28]",8,1,[16],50.99407872,29871,1867,1,0,9,2.3316428595723258
basic,18,38,0,0,1,16,"[0, 19, 17, 20, 4, 15, 11, 28, 16]",9,0,[],21.99407872,31637,1766,1,0,9,2.5408012360364265
basic,18,38,0,1,1,16,"[0, 19, 17, 20, 4, 15, 11, 28, 16]",9,0,[],21.99407872,32480,843,1,0,9,2.5408012360364265
basic,19,34,0,0,0,0,[0],1,25,"[1, 3, 4, 5, 6, 7, 8, 9, 10, 11, 12, 13, 15, 18, 19, 20, 21, 22, 23, 24, 25, 26, 27, 28, 29]",300,164,-1,12,367,10,0.0
basic,19,34,0,0,0,13,"[0, 13]",2,24,"[1, 3, 4, 5, 6, 7, 8, 9, 10, 11, 12, 15, 18, 19, 20, 21, 22, 23, 24, 25, 26, 27, 28, 29]",279.9750156,2208,2044,12,331,10,1.0
basic,19,34,0,0,0,1,"[0, 13, 1]",3,16,"[3, 5, 7, 8, 9, 10, 11, 12, 19, 21, 22, 23, 24, 25, 27, 29]",211.8574701,3421,1213,3,92,10,1.0010381285747127
basic,19,34,0,0,0,8,"[0, 13, 1, 8]",4,14,"[3, 5, 7, 9, 10, 11, 12, 19, 22, 23, 24, 25, 27, 29]",201.0871405,4243,822,2,54,10,1.1636807
basic,19,34,0,0,0,25,"[0, 13, 1, 8, 25]",5,12,"[3, 5, 7, 9, 10, 11, 12, 22, 23, 24, 27, 29]",183.999133,5747,1504,2,28,10,1.1396208815936457
basic,19,34,0,0,0,24,"[0, 13, 1, 8, 25, 24]",6,11,"[3, 5, 7, 9, 10, 11, 12, 22, 23, 27, 29]",166.5062774,7143,1396,2,23,10,1.374180768736554
basic,19,34,0,0,0,12,"[0, 13, 1, 8, 25, 24, 12]",7,7,"[7, 9, 10, 11, 22, 23, 27]",115.4670767,8429,1286,1,8,10,1.4994254760835948
basic,19,34,0,0,0,7,"[0, 13, 1, 8, 25, 24, 12, 7]",8,5,"[9, 11, 22, 23, 27]",100.4337804,9405,976,1,4,10,1.758992610425009
basic,19,34,0,0,0,23,"[0, 13, 1, 8, 25, 24, 12, 7, 23]",9,1,[27],72.27352467,10322,917,1,0,10,2.399781305190153
basic,19,34,0,0,1,27,"[0, 13, 1, 8, 25, 24, 12, 7, 23, 27]",10,0,[],18.60789321,11524,1202,1,0,10,4.766619878750327
basic,19,34,0,1,1,27,"[0, 13, 1, 8, 25, 24, 12, 7, 23, 27]",10,0,[],18.60789321,12265,741,1,0,10,4.766619878750327
basic,20,4,0,0,0,0,[0],1,26,"[3, 4, 5, 6, 7, 8, 10, 11, 12, 13, 14, 15, 16, 17, 18, 19, 20, 21, 22, 23, 24, 25, 26, 27, 28, 29]",300,164,-1,4,489,10,0.0
basic,20,4,0,0,0,28,"[0, 28]",2,21,"[3, 4, 5, 6, 10, 11, 12, 13, 14, 15, 16, 17, 19, 20, 21, 22, 23, 24, 25, 26, 27]",225.9392142,134256,134092,2,216,10,1.0
basic,20,4,0,0,0,11,"[0, 28, 11]",3,16,"[3, 4, 5, 6, 12, 13, 14, 16, 17, 20, 21, 22, 23, 24, 25, 26]",177.0618165,135739,1483,1,99,10,1.0005230107421244
basic,20,4,0,0,0,25,"[0, 28, 11, 25]",4,14,"[3, 4, 5, 6, 12, 13, 14, 16, 17, 20, 21, 22, 23, 24]",158.2735223,136709,970,1,47,10,1.11762077950493
basic,20,4,0,0,0,14,"[0, 28, 11, 25, 14]",5,10,"[3, 4, 5, 6, 13, 16, 17, 20, 21, 22]",142.1490068,137792,1083,1,23,10,1.1558980853108136
basic,20,4,0,0,0,16,"[0, 28, 11, 25, 14, 16]",6,9,"[3, 4, 5, 6, 13, 17, 20, 21, 22]",109.5913656,138657,865,1,12,10,1.3813330703388178
basic,20,4,0,0,0,17,"[0, 28, 11, 25, 14, 16, 17]",7,5,"[3, 5, 20, 21, 22]",83.51455598,139572,915,1,5,10,1.3206962632237582
basic,20,4,0,0,1,3,"[0, 28, 11, 25, 14, 16, 17, 3]",8,0,[],58.99925463,140410,838,1,0,8,1.3817796135267635
basic,20,4,0,1,1,3,"[0, 28, 11, 25, 14, 16, 17, 3]",8,0,[],58.99925463,142765,2355,1,0,8,1.3817796135267635
basic,21,16,0,0,0,0,[0],1,29,"[1, 2, 3, 4, 5, 6, 7, 8, 9, 10, 11, 12, 13, 14, 15, 16, 17, 18, 19, 20, 21, 22, 23, 24, 25, 26, 27, 28, 29]",300,186,-1,13,161,9,0.0
basic,21,16,0,0,0,17,"[0, 17]",2,27,"[1, 2, 3, 4, 5, 7, 8, 9, 10, 11, 12, 13, 14, 15, 16, 18, 19, 20, 21, 22, 23, 24, 25, 26, 27, 28, 29]",241.3058776,1874,1688,2,58,9,1.0
basic,21,16,0,0,0,16,"[0, 17, 16]",3,26,"[1, 2, 3, 4, 5, 7, 8, 9, 10, 11, 12, 13, 14, 15, 18, 19, 20, 21, 22, 23, 24, 25, 26, 27, 28, 29]",212.9862731,2805,931,2,52,9,1.0529535521792848
basic,21,16,0,0,0,8,"[0, 17, 16, 8]",4,19,"[2, 3, 4, 5, 9, 12, 13, 14, 15, 19, 20, 21, 22, 23, 25, 26, 27, 28, 29]",164.6127266,3809,1004,2,38,9,1.0915134501573105
basic,21,16,0,0,0,20,"[0, 17, 16, 8, 20]",5,10,"[3, 4, 5, 9, 12, 13, 15, 19, 21, 25]",106.8372993,5859,2050,1,15,9,1.067523143001942
basic,21,16,0,0,0,25,"[0, 17, 16, 8, 20, 25]",6,7,"[3, 4, 5, 9, 12, 13, 15]",94.18818869,6755,896,1,9,9,1.1170093326933646
basic,21,16,0,0,0,9,"[0, 17, 16, 8, 20, 25, 9]",7,5,"[3, 4, 5, 13, 15]",81.38194021,7654,899,1,4,9,1.1095076562662525
basic,21,16,0,0,0,15,"[0, 17, 16, 8, 20, 25, 9, 15]",8,1,[5],42.48463953,8942,1288,1,0,9,1.213831159678775
basic,21,16,0,0,1,5,"[0, 17, 16, 8, 20, 25, 9, 15, 5]",9,0,[],13.0567616,10564,1622,1,0,9,1.5171779607523481
basic,21,16,0,1,1,5,"[0, 17, 16, 8, 20, 25, 9, 15, 5]",9,0,[],13.0567616,11331,767,1,0,9,1.5171779607523481
basic,22,30,0,0,0,0,[0],1,19,"[3, 4, 5, 7, 9, 11, 16, 17, 18, 19, 20, 21, 22, 24, 25, 26, 27, 28, 29]",300,264,-1,5,41,8,0.0
basic,22,30,0,0,0,16,"[0, 16]",2,17,"[3, 5, 7, 9, 11, 17, 18, 19, 20, 21, 22, 24, 25, 26, 27, 28, 29]",219.3774225,2738,2474,5,34,8,1.0
basic,22,30,0,0,0,25,"[0, 16, 25]",3,10,"[3, 5, 7, 9, 11, 18, 19, 20, 27, 29]",115.0845656,4188,1450,5,28,8,1.0336279544884488
basic,22,30,0,0,0,20,"[0, 16, 25, 20]",4,8,"[3, 5, 7, 9, 18, 19, 27, 29]",93.15285342,5071,883,4,14,8,1.0337964627284246
basic,22,30,0,0,0,27,"[0, 16, 25, 20, 27]",5,4,"[3, 5, 18, 29]",59.09408069,6738,1667,4,6,8,1.1504365534848
basic,22,30,0,0,0,3,"[0, 16, 25, 20, 27, 3]",6,3,"[5, 18, 29]",39.98910751,7641,903,4,0,8,1.1403876826835333
basic,22,30,0,0,0,29,"[0, 16, 25, 20, 27, 3, 29]",7,1,[18],21.38803228,10112,2471,1,0,8,1.1443827771455848
basic,22,30,0,0,1,18,"[0, 16, 25, 20, 27, 3, 29, 18]",8,0,[],2.074824359,11055,943,1,0,8,1.2197761544023602
basic,22,30,0,1,1,18,"[0, 16, 25, 20, 27, 3, 29, 18]",8,0,[],2.074824359,11647,592,1,0,8,1.2197761544023602
undo,23,2,0,0,0,0,[0],1,23,"[1, 2, 4, 5, 6, 7, 8, 9, 12, 13, 15, 16, 17, 18, 19, 20, 22, 23, 25, 26, 27, 28, 29]",300,166,-1,70,620,10,0.0
undo,23,2,0,0,0,19,"[0, 19]",2,22,"[1, 2, 4, 5, 6, 7, 8, 9, 12, 13, 15, 16, 17, 18, 20, 22, 23, 25, 26, 27, 28, 29]",210.306076,1790,1624,67,431,10,1.0
undo,23,2,0,0,0,12,"[0, 19, 12]",3,17,"[1, 4, 5, 6, 7, 13, 15, 16, 17, 18, 20, 22, 25, 26, 27, 28, 29]",174.2921898,4525,2735,66,298,10,1.1107635036313153
undo,23,2,0,0,0,5,"[0, 19, 12, 5]",4,11,"[1, 6, 7, 13, 15, 16, 18, 22, 25, 26, 29]",144.7625437,6006,1481,38,136,10,1.0968174771581647
undo,23,2,0,0,0,22,"[0, 19, 12, 5, 22]",5,8,"[1, 6, 7, 13, 15, 18, 26, 29]",131.9562952,7357,1351,20,63,10,1.0889910507461968
undo,23,2,0,0,0,13,"[0, 19, 12, 5, 22, 13]",6,7,"[1, 6, 7, 15, 18, 26, 29]",117.0902265,7997,640,19,20,10,1.236526217328057
undo,23,2,0,0,0,18,"[0, 19, 12, 5, 22, 13, 18]",7,4,"[7, 15, 26, 29]",81.91921567,9182,1185,10,3,10,1.2128708213409936
undo,23,2,0,0,0,7,"[0, 19, 12, 5, 22, 13, 18, 7]",8,3,"[15, 26, 29]",71.62358553,10174,992,5,0,10,1.2019811287894737
undo,23,2,0,0,0,26,"[0, 19, 12, 5, 22, 13, 18, 7, 26]",9,2,"[15, 29]",48.82007703,11040,866,2,0,10,1.1883593342191134
undo,23,2,0,0,1,15,"[0, 19, 12, 5, 22, 13, 18, 7, 26, 15]",10,0,[],24.61264015,13129,2089,1,0,10,1.4619750353663825
undo,23,2,0,1,1,15,"[0, 19, 12, 5, 22, 13, 18, 7, 26, 15]",10,0,[],24.61264015,14216,1087,1,0,10,1.4619750353663825
undo,24,15,0,0,0,0,[0],1,25,"[1, 2, 3, 4, 7, 8, 9, 10, 11, 12, 13, 14, 15, 16, 18, 20, 21, 22, 23, 24, 25, 26, 27, 28, 29]",300,280,-1,4,65,9,0.0
undo,24,15,0,0,0,7,"[0, 7]",2,23,"[1, 3, 4, 8, 9, 10, 11, 12, 13, 14, 15, 16, 18, 20, 21, 22, 23, 24, 25, 26, 27, 28, 29]",215.1884442,2055,1775,30,107,8,1.0
undo,24,15,0,0,0,11,"[0, 7, 11]",3,18,"[3, 4, 8, 9, 10, 12, 13, 14, 15, 16, 18, 20, 21, 22, 23, 25, 27, 29]",173.7035072,3522,1467,12,34,8,1.0171318876095128
undo,24,15,0,0,0,3,"[0, 7, 11, 3]",4,13,"[4, 10, 12, 13, 14, 15, 16, 18, 20, 21, 22, 25, 27]",162.3017529,4242,720,7,21,8,1.0401878806820521
undo,24,15,0,0,0,16,"[0, 7, 11, 3, 16]",5,9,"[4, 10, 12, 13, 14, 15, 18, 21, 22]",137.2218805,5454,1212,5,6,8,1.4258499651326737
undo,24,15,0,0,0,22,"[0, 7, 11, 3, 16, 22]",6,4,"[4, 13, 14, 15]",78.36612462,6597,1143,2,2,8,1.284645195326425
undo,24,15,0,0,0,15,"[0, 7, 11, 3, 16, 22, 15]",7,1,[13],52.75362767,8014,1417,1,0,8,1.2590218300860974
undo,24,15,0,0,1,13,"[0, 7, 11, 3, 16, 22, 15, 13]",8,0,[],37.48929015,10519,2505,1,0,8,1.3103278820622872
undo,24,15,0,1,1,13,"[0, 7, 11, 3, 16, 22, 15, 13]",8,0,[],37.48929015,11114,595,1,0,8,1.3103278820622872
undo,25,5,0,0,0,0,[0],1,29,"[1, 2, 3, 4, 5, 6, 7, 8, 9, 10, 11, 12, 13, 14, 15, 16, 17, 18, 19, 20, 21, 22, 23, 24, 25, 26, 27, 28, 29]",300,176,-1,5,139,9,0.0
undo,25,5,0,0,0,23,"[0, 23]",2,27,"[1, 2, 3, 4, 5, 6, 7, 8, 9, 10, 11, 12, 13, 14, 15, 16, 17, 18, 19, 20, 21, 22, 24, 25, 26, 27, 28]",249.8402552,2172,1996,3,75,9,1.0
undo,25,5,0,0,0,25,"[0, 23, 25]",3,23,"[1, 2, 3, 4, 5, 6, 8, 9, 10, 12, 13, 14, 15, 16, 17, 18, 19, 21, 22, 24, 26, 27, 28]",231.4011663,3175,1003,3,43,9,1.0923159590575564
undo,25,5,0,0,0,12,"[0, 23, 25, 12]",4,19,"[2, 4, 5, 6, 8, 9, 10, 13, 14, 15, 16, 17, 18, 19, 21, 22, 24, 26, 27]",203.6162783,4092,917,13,38,8,1.344380276762952
undo,25,5,0,0,0,24,"[0, 23, 25, 12, 24]",5,13,"[4, 5, 6, 8, 9, 13, 15, 17, 18, 19, 22, 26, 27]",151.7607096,6122,2030,9,16,8,2.0468715098289354
undo,25,5,0,0,0,17,"[0, 23, 25, 12, 24, 17]",6,7,"[4, 5, 6, 8, 15, 18, 19]",116.7749983,7558,1436,8,2,8,1.715984108382044
undo,25,5,0,0,0,5,"[0, 23, 25, 12, 24, 17, 5]",7,4,"[4, 6, 15, 18]",73.72851177,8538,980,4,0,8,1.5138688362730213
undo,25,5,0,0,1,18,"[0, 23, 25, 12, 24, 17, 5, 18]",8,0,[],6.661381223,9289,751,1,0,8,1.4465455990657548
undo,25,5,0,1,1,18,"[0, 23, 25, 12, 24, 17, 5, 18]",8,0,[],6.661381223,10198,909,1,0,8,1.4465455990657548
undo,26,4,0,0,0,0,[0],1,26,"[3, 4, 5, 6, 7, 8, 10, 11, 12, 13, 14, 15, 16, 17, 18, 19, 20, 21, 22, 23, 24, 25, 26, 27, 28, 29]",300,169,-1,4,489,10,0.0
undo,26,4,0,0,0,4,"[0, 4]",2,23,"[3, 5, 6, 7, 10, 11, 12, 13, 14, 15, 16, 17, 19, 20, 21, 22, 23, 24, 25, 26, 27, 28, 29]",205.9521398,15439,15270,96,515,8,1.0
undo,26,4,0,0,0,13,"[0, 4, 13]",3,19,"[3, 5, 6, 10, 11, 12, 14, 15, 16, 17, 19, 20, 21, 22, 23, 24, 25, 26, 28]",169.8827622,16572,1133,68,178,8,1.9163921030311182
undo,26,4,0,0,0,28,"[0, 4, 13, 28]",4,13,"[3, 5, 6, 11, 14, 15, 16, 17, 20, 21, 22, 23, 25]",138.3074554,17903,1331,51,55,8,2.183241006085084
undo,26,4,0,0,0,11,"[0, 4, 13, 28, 11]",5,9,"[3, 6, 14, 16, 17, 20, 21, 22, 25]",89.4300578,20925,3022,25,13,8,1.713707381577987
undo,26,4,0,0,0,16,"[0, 4, 13, 28, 11, 16]",6,7,"[3, 14, 17, 20, 21, 22, 25]",74.4300578,22663,1738,12,1,8,1.636413295106725
undo,26,4,0,0,0,25,"[0, 4, 13, 28, 11, 16, 25]",7,3,"[3, 14, 17]",52.88939857,23787,1124,3,0,8,1.948654531432899
undo,26,4,0,0,1,14,"[0, 4, 13, 28, 11, 16, 25, 14]",8,0,[],36.76488308,25388,1601,1,0,8,1.9275961555013907
undo,26,4,0,1,1,14,"[0, 4, 13, 28, 11, 16, 25, 14]",8,0,[],36.76488308,26046,658,1,0,8,1.9275961555013907
undo,27,21,0,0,0,0,[0],1,29,"[1, 2, 3, 4, 5, 6, 7, 8, 9, 10, 11, 12, 13, 14, 15, 16, 17, 18, 19, 20, 21, 22, 23, 24, 25, 26, 27, 28, 29]",300,281,-1,84,830,9,0.0
undo,27,21,0,0,0,18,"[0, 18]",2,28,"[1, 2, 3, 4, 5, 6, 7, 8, 9, 10, 11, 12, 13, 14, 15, 16, 17, 19, 20, 21, 22, 23, 24, 25, 26, 27, 28, 29]",240.923778,1820,1539,44,305,9,1.0
undo,27,21,0,0,0,29,"[0, 18, 29]",3,24,"[1, 2, 3, 4, 6, 7, 8, 9, 10, 11, 12, 13, 14, 15, 16, 17, 20, 21, 22, 23, 24, 25, 26, 27]",212.2706805,3538,1718,11,87,9,1.035555280387994
undo,27,21,0,0,0,25,"[0, 18, 29, 25]",4,18,"[1, 4, 6, 8, 9, 10, 11, 12, 14, 15, 16, 17, 20, 21, 22, 23, 24, 26]",167.0490043,5522,1984,6,45,9,2.2226517719335437
undo,27,21,0,0,0,21,"[0, 18, 29, 25, 21]",5,9,"[4, 8, 9, 14, 15, 16, 17, 22, 23]",117.7134187,7111,1589,3,15,9,2.027911600797407
undo,27,21,0,0,0,23,"[0, 18, 29, 25, 21, 23]",6,6,"[4, 8, 14, 15, 16, 17]",88.09923294,9488,2377,1,4,9,2.139975147968579
undo,27,21,0,0,0,14,"[0, 18, 29, 25, 21, 23, 14]",7,2,"[4, 16]",59.03034924,10556,1068,1,1,9,2.1037563056474844
undo,27,21,0,0,0,4,"[0, 18, 29, 25, 21, 23, 14, 4]",8,1,[16],44.88821361,11688,1132,1,0,9,1.9945221982247547
undo,27,21,0,0,1,16,"[0, 18, 29, 25, 21, 23, 14, 4, 16]",9,0,[],0.29000737,12752,1064,1,0,9,1.8362252780457913
undo,27,21,0,1,1,16,"[0, 18, 29, 25, 21, 23, 14, 4, 16]",9,0,[],0.29000737,13597,845,1,0,9,1.8362252780457913
undo,28,41,0,0,0,0,[0],1,29,"[1, 2, 3, 4, 5, 6, 7, 8, 9, 10, 11, 12, 13, 14, 15, 16, 17, 18, 19, 20, 21, 22, 23, 24, 25, 26, 27, 28, 29]",300,181,-1,1,143,10,0.0
undo,28,41,0,0,0,13,"[0, 13]",2,23,"[1, 2, 3, 5, 6, 7, 9, 10, 11, 12, 14, 15, 17, 18, 19, 20, 21, 22, 24, 25, 26, 27, 28]",258.2747079,4805,4624,1,55,10,1.0
undo,28,41,0,0,0,28,"[0, 13, 28]",3,22,"[1, 2, 3, 5, 6, 7, 9, 10, 11, 12, 14, 15, 17, 18, 19, 20, 21, 22, 24, 25, 26, 27]",223.7928286,6089,1284,1,39,10,1.895724242592676
undo,28,41,0,0,0,5,"[0, 13, 28, 5]",4,19,"[1, 2, 3, 6, 9, 10, 11, 12, 14, 15, 17, 18, 19, 20, 21, 22, 24, 25, 27]",210.1913581,6940,851,1,34,10,2.861541269398273
undo,28,41,0,0,0,22,"[0, 13, 28, 5, 22]",5,12,"[2, 3, 6, 9, 10, 11, 12, 17, 18, 20, 21, 25]",155.4464953,8905,1965,11,12,9,2.096079268852861
undo,28,41,0,0,0,3,"[0, 13, 28, 5, 22, 3]",6,8,"[2, 9, 10, 12, 17, 18, 20, 21]",125.4798472,9672,767,7,5,9,4.404491319005463
undo,28,41,0,0,0,21,"[0, 13, 28, 5, 22, 3, 21]",7,4,"[2, 9, 12, 17]",93.33952984,12155,2483,5,1,9,4.228139797553632
undo,28,41,0,0,0,9,"[0, 13, 28, 5, 22, 3, 21, 9]",8,2,"[2, 17]",43.97354965,15340,3185,2,0,9,3.111188754077749
undo,28,41,0,0,1,2,"[0, 13, 28, 5, 22, 3, 21, 9, 2]",9,0,[],31.89050368,17106,1766,1,0,9,2.963304814480547
undo,28,41,0,1,1,2,"[0, 13, 28, 5, 22, 3, 21, 9, 2]",9,0,[],31.89050368,18065,959,1,0,9,2.963304814480547
undo,29,10,0,0,0,0,[0],1,29,"[1, 2, 3, 4, 5, 6, 7, 8, 9, 10, 11, 12, 13, 14, 15, 16, 17, 18, 19, 20, 21, 22, 23, 24, 25, 26, 27, 28, 29]",300,211,-1,1,100,9,0.0
undo,29,10,0,0,0,13,"[0, 13]",2,25,"[1, 2, 3, 4, 6, 7, 8, 9, 10, 11, 12, 14, 17, 18, 19, 20, 21, 22, 23, 24, 25, 26, 27, 28, 29]",249.4628849,2140,1929,1,79,9,1.0
undo,29,10,0,0,0,11,"[0, 13, 11]",3,20,"[1, 2, 3, 6, 7, 8, 9, 10, 12, 14, 18, 19, 20, 21, 22, 24, 26, 27, 28, 29]",206.4512586,4470,2330,1,54,9,1.0313137484914219
undo,29,10,0,0,0,19,"[0, 13, 11, 19]",4,11,"[2, 6, 8, 9, 10, 14, 18, 20, 24, 26, 27]",170.0919407,5771,1301,1,22,9,1.0879446220132545
undo,29,10,0,0,0,2,"[0, 13, 11, 19, 2]",5,4,"[14, 20, 26, 27]",126.1829439,6838,1067,1,4,9,1.06474052351343
undo,29,10,0,0,0,14,"[0, 13, 11, 19, 2, 14]",6,3,"[20, 26, 27]",114.0174188,8270,1432,1,3,9,1.1628909195912238
undo,29,10,0,0,0,26,"[0, 13, 11, 19, 2, 14, 26]",7,2,"[20, 27]",79.34754716,9321,1051,1,1,9,1.6660727647633602
undo,29,10,0,0,0,20,"[0, 13, 11, 19, 2, 14, 26, 20]",8,1,[27],47.56704999,10939,1618,1,0,9,2.085581809637999
undo,29,10,0,0,1,27,"[0, 13, 11, 19, 2, 14, 26, 20, 27]",9,0,[],2.312215998,15410,4471,1,0,9,1.9116357409137932
undo,29,10,0,1,1,27,"[0, 13, 11, 19, 2, 14, 26, 20, 27]",9,0,[],2.312215998,16514,1104,1,0,9,1.9116357409137932
undo,30,45,0,0,0,0,[0],1,24,"[1, 2, 3, 4, 5, 6, 7, 9, 10, 11, 12, 14, 15, 16, 17, 19, 20, 21, 22, 23, 24, 25, 27, 29]",300,164,-1,6,248,10,0.0
undo,30,45,0,0,0,15,"[0, 15]",2,23,"[1, 2, 3, 4, 5, 6, 7, 9, 10, 11, 12, 14, 16, 17, 19, 20, 21, 22, 23, 24, 25, 27, 29]",253.9022777,2255,2091,5,207,10,1.0
undo,30,45,0,0,0,23,"[0, 15, 23]",3,22,"[1, 2, 3, 4, 5, 6, 7, 9, 10, 11, 12, 14, 16, 17, 19, 20, 21, 22, 24, 25, 27, 29]",230.3014303,3038,783,5,163,10,1.0006068457769497
undo,30,45,0,0,0,20,"[0, 15, 23, 20]",4,19,"[1, 2, 3, 5, 6, 7, 9, 10, 11, 12, 14, 16, 17, 19, 21, 22, 24, 25, 29]",188.8647316,4363,1325,5,137,10,1.2062119754673604
undo,30,45,0,0,0,17,"[0, 15, 23, 20, 17]",5,10,"[2, 3, 5, 7, 9, 10, 11, 19, 24, 29]",133.1511785,5156,793,3,9,8,2.6016195574855456
undo,30,45,0,0,0,24,"[0, 15, 23, 20, 17, 24]",6,5,"[2, 7, 10, 19, 29]",91.09169676,6971,1815,3,4,8,2.0281403701979674
undo,30,45,0,0,0,7,"[0, 15, 23, 20, 17, 24, 7]",7,3,"[2, 10, 29]",56.68239569,8255,1284,3,0,8,1.8339712509218666
undo,30,45,0,0,1,2,"[0, 15, 23, 20, 17, 24, 7, 2]",8,0,[],18.66924008,9973,1718,1,0,8,1.6784876870056666
undo,30,45,0,1,1,2,"[0, 15, 23, 20, 17, 24, 7, 2]",8,0,[],18.66924008,10881,908,1,0,8,1.6784876870056666
undo,31,23,0,0,0,0,[0],1,28,"[1, 2, 3, 4, 5, 6, 7, 8, 9, 10, 11, 12, 13, 14, 15, 16, 17, 18, 19, 20, 21, 22, 23, 25, 26, 27, 28, 29]",300,166,-1,76,2626,10,0.0
undo,31,23,0,0,0,18,"[0, 18]",2,14,"[2, 5, 6, 7, 9, 10, 12, 13, 14, 19, 21, 22, 27, 29]",203.8958898,3910,3744,73,787,9,1.0
undo,31,23,0,0,0,27,"[0, 18, 27]",3,9,"[2, 6, 7, 9, 12, 13, 14, 22, 29]",128.5832083,4890,980,51,277,9,1.1972268052690318
undo,31,23,0,0,0,6,"[0, 18, 27, 6]",4,8,"[2, 7, 9, 12, 13, 14, 22, 29]",100.2812649,5915,1025,43,68,9,1.3293035545030156
undo,31,23,0,0,0,14,"[0, 18, 27, 6, 14]",5,7,"[2, 7, 9, 12, 13, 22, 29]",71.41952548,6932,1017,10,11,9,1.6224034994265621
undo,31,23,0,0,0,9,"[0, 18, 27, 6, 14, 9]",6,5,"[2, 12, 13, 22, 29]",60.97921897,8808,1876,5,1,9,1.8294966642914483
undo,31,23,0,0,0,2,"[0, 18, 27, 6, 14, 9, 2]",7,2,"[12, 13]",47.94081416,9512,704,2,0,9,1.8471451718178584
undo,31,23,0,0,0,12,"[0, 18, 27, 6, 14, 9, 2, 12]",8,1,[13],34.04837017,10530,1018,1,0,9,2.169462077251772
undo,31,23,0,0,1,13,"[0, 18, 27, 6, 14, 9, 2, 12, 13]",9,0,[],21.96532419,11692,1162,1,0,9,2.512065268760345
undo,31,23,0,1,1,13,"[0, 18, 27, 6, 14, 9, 2, 12, 13]",9,0,[],21.96532419,12532,840,1,0,9,2.512065268760345
undo,32,20,0,0,0,0,[0],1,21,"[1, 2, 3, 4, 5, 6, 7, 8, 9, 12, 17, 18, 20, 21, 22, 23, 25, 26, 27, 28, 29]",300,184,-1,1,9,9,0.0
undo,32,20,0,0,0,29,"[0, 29]",2,16,"[1, 3, 4, 5, 7, 8, 12, 17, 18, 20, 21, 22, 23, 25, 27, 28]",245.8797635,5813,5629,1,18,7,1.0
undo,32,20,0,0,0,18,"[0, 29, 18]",3,4,"[3, 7, 17, 25]",114.2894903,7694,1881,4,5,6,1.0077347786439768
undo,32,20,0,0,0,7,"[0, 29, 18, 7]",4,2,"[17, 25]",71.15018107,8689,995,2,0,6,1.0069673987739078
undo,32,20,0,0,0,25,"[0, 29, 18, 7, 25]",5,1,[17],33.66685144,9576,887,1,0,6,1.170370140077421
undo,32,20,0,0,1,17,"[0, 29, 18, 7, 25, 17]",6,0,[],9.583662286,10681,1105,1,0,6,1.425649263535318
undo,32,20,0,1,1,17,"[0, 29, 18, 7, 25, 17]",6,0,[],9.583662286,11214,533,1,0,6,1.425649263535318
undo,33,30,0,0,0,0,[0],1,19,"[3, 4, 5, 7, 9, 11, 16, 17, 18, 19, 20, 21, 22, 24, 25, 26, 27, 28, 29]",300,185,-1,5,41,8,0.0
undo,33,30,0,0,0,16,"[0, 16]",2,17,"[3, 5, 7, 9, 11, 17, 18, 19, 20, 21, 22, 24, 25, 26, 27, 28, 29]",219.3774225,1861,1676,5,34,8,1.0
undo,33,30,0,0,0,25,"[0, 16, 25]",3,10,"[3, 5, 7, 9, 11, 18, 19, 20, 27, 29]",115.0845656,3742,1881,5,28,8,1.0336279544884488
undo,33,30,0,0,0,27,"[0, 16, 25, 27]",4,7,"[3, 5, 7, 18, 19, 20, 29]",75.52448473,4556,814,1,12,8,1.0719738181137488
undo,33,30,0,0,0,3,"[0, 16, 25, 27, 3]",5,5,"[5, 7, 18, 20, 29]",56.41951155,5623,1067,1,4,8,1.0683252001879187
undo,33,30,0,0,0,18,"[0, 16, 25, 27, 3, 18]",6,2,"[5, 29]",38.17122396,6257,634,2,0,7,1.071988954484303
undo,33,30,0,0,1,5,"[0, 16, 25, 27, 3, 18, 5]",7,0,[],25.13281915,6844,587,1,0,7,1.1366885529959678
undo,33,30,0,1,1,5,"[0, 16, 25, 27, 3, 18, 5]",7,0,[],25.13281915,7498,654,1,0,7,1.1366885529959678
undo,34,27,0,0,0,0,[0],1,26,"[1, 3, 5, 6, 7, 8, 9, 10, 11, 12, 13, 14, 15, 16, 17, 18, 19, 21, 22, 23, 24, 25, 26, 27, 28, 29]",300,280,-1,13,578,11,0.0
undo,34,27,0,0,0,15,"[0, 15]",2,24,"[1, 3, 5, 6, 7, 8, 9, 10, 11, 12, 13, 14, 16, 17, 18, 19, 21, 22, 23, 24, 25, 26, 27, 29]",263.7508621,1354,1074,6,219,11,1.0
undo,34,27,0,0,0,24,"[0, 15, 24]",3,20,"[1, 5, 6, 7, 8, 9, 10, 12, 13, 14, 16, 17, 18, 19, 21, 23, 25, 26, 27, 29]",246.5462115,2278,924,6,130,11,1.130933077698322
undo,34,27,0,0,0,17,"[0, 15, 24, 17]",4,15,"[1, 6, 8, 10, 12, 13, 14, 16, 18, 19, 23, 25, 26, 27, 29]",229.9932662,4093,1815,4,60,11,1.1285538435963374
undo,34,27,0,0,0,12,"[0, 15, 24, 17, 12]",5,14,"[1, 6, 8, 10, 13, 14, 16, 18, 19, 23, 25, 26, 27, 29]",218.8129263,4697,604,2,32,11,1.2561880288755216
undo,34,27,0,0,0,10,"[0, 15, 24, 17, 12, 10]",6,11,"[1, 8, 13, 14, 18, 19, 23, 25, 26, 27, 29]",207.7675653,5421,724,2,28,11,1.2228289337766665
undo,34,27,0,0,0,13,"[0, 15, 24, 17, 12, 10, 13]",7,9,"[1, 8, 14, 18, 19, 23, 26, 27, 29]",167.9178476,6254,833,2,18,11,1.3421291994761178
undo,34,27,0,0,0,19,"[0, 15, 24, 17, 12, 10, 13, 19]",8,5,"[1, 8, 14, 23, 29]",131.6825057,7421,1167,2,6,11,1.294749956153846
undo,34,27,0,0,0,8,"[0, 15, 24, 17, 12, 10, 13, 19, 8]",9,3,"[14, 23, 29]",116.816437,8947,1526,2,1,11,1.3554286578836865
undo,34,27,0,0,0,29,"[0, 15, 24, 17, 12, 10, 13, 19, 8, 29]",10,1,[14],57.61339652,10005,1058,1,0,11,1.248354519573802
undo,34,27,0,0,1,14,"[0, 15, 24, 17, 12, 10, 13, 19, 8, 29, 14]",11,0,[],13.31892734,11323,1318,1,0,11,1.562811097555156
undo,34,27,0,1,1,14,"[0, 15, 24, 17, 12, 10, 13, 19, 8, 29, 14]",11,0,[],13.31892734,12231,908,1,0,11,1.562811097555156
undo,35,18,0,0,0,0,[0],1,28,"[1, 2, 3, 4, 5, 6, 7, 8, 9, 10, 11, 12, 13, 14, 16, 17, 18, 19, 20, 21, 22, 23, 24, 25, 26, 27, 28, 29]",300,197,-1,3,136,10,0.0
undo,35,18,0,0,0,28,"[0, 28]",2,16,"[1, 3, 5, 7, 8, 9, 12, 13, 14, 16, 20, 23, 24, 25, 26, 27]",236.4311397,2239,2042,2,19,10,1.0
undo,35,18,0,0,0,7,"[0, 28, 7]",3,15,"[1, 3, 5, 8, 9, 12, 13, 14, 16, 20, 23, 24, 25, 26, 27]",214.4084242,3120,881,2,17,10,1.4345180696367563
undo,35,18,0,0,0,25,"[0, 28, 7, 25]",4,13,"[1, 3, 5, 8, 9, 12, 13, 14, 16, 20, 23, 26, 27]",186.6055466,4245,1125,2,15,10,1.8896451241781882
undo,35,18,0,0,0,8,"[0, 28, 7, 25, 8]",5,10,"[3, 5, 9, 12, 13, 14, 16, 23, 26, 27]",149.551532,7071,2826,2,10,10,1.590467437592877
undo,35,18,0,0,0,13,"[0, 28, 7, 25, 8, 13]",6,9,"[3, 5, 9, 12, 14, 16, 23, 26, 27]",128.4565089,8676,1605,2,5,10,1.8248274983549797
undo,35,18,0,0,0,14,"[0, 28, 7, 25, 8, 13, 14]",7,7,"[3, 5, 9, 12, 23, 26, 27]",109.4828429,10287,1611,2,3,10,1.6993534956692746
undo,35,18,0,0,0,3,"[0, 28, 7, 25, 8, 13, 14, 3]",8,3,"[5, 12, 27]",79.39962499,11372,1085,2,1,10,1.802637206541468
undo,35,18,0,0,0,5,"[0, 28, 7, 25, 8, 13, 14, 3, 5]",9,1,[12],21.21887216,12438,1066,1,0,10,1.559774889743805
undo,35,18,0,0,1,12,"[0, 28, 7, 25, 8, 13, 14, 3, 5, 12]",10,0,[],9.817117911,13821,1383,1,0,10,1.563993037384447
undo,35,18,0,1,1,12,"[0, 28, 7, 25, 8, 13, 14, 3, 5, 12]",10,0,[],9.817117911,14681,860,1,0,10,1.563993037384447
undo,36,17,0,0,0,0,[0],1,28,"[1, 2, 3, 4, 5, 6, 7, 8, 9, 10, 11, 12, 13, 14, 15, 16, 17, 18, 19, 20, 22, 23, 24, 25, 26, 27, 28, 29]",300,263,-1,2,73,8,0.0
undo,36,17,0,0,0,9,"[0, 9]",2,25,"[1, 2, 3, 5, 6, 7, 8, 10, 11, 12, 14, 15, 16, 17, 18, 19, 20, 22, 23, 24, 25, 26, 27, 28, 29]",210.5293344,2928,2665,1,34,8,1.0
undo,36,17,0,0,0,16,"[0, 9, 16]",3,21,"[1, 2, 3, 5, 7, 8, 10, 11, 12, 14, 17, 18, 19, 20, 22, 23, 25, 26, 27, 28, 29]",197.1876704,3538,610,1,26,8,1.173103464220352
undo,36,17,0,0,0,2,"[0, 9, 16, 2]",4,18,"[1, 3, 5, 7, 8, 10, 11, 12, 14, 17, 18, 19, 23, 25, 26, 27, 28, 29]",181.0631549,4156,618,1,23,8,1.14825089247282
undo,36,17,0,0,0,17,"[0, 9, 16, 2, 17]",5,7,"[7, 8, 12, 14, 26, 27, 29]",142.7356191,6271,2115,4,5,7,1.4896040699768547
undo,36,17,0,0,0,8,"[0, 9, 16, 2, 17, 8]",6,3,"[7, 12, 27]",104.5256727,7471,1200,3,0,7,1.4604726966175894
undo,36,17,0,0,1,7,"[0, 9, 16, 2, 17, 8, 7]",7,0,[],33.81499459,8737,1266,1,0,7,1.4474701869793896
undo,36,17,0,1,1,7,"[0, 9, 16, 2, 17, 8, 7]",7,0,[],33.81499459,10314,1577,1,0,7,1.4474701869793896
undo,37,19,0,0,0,0,[0],1,29,"[1, 2, 3, 4, 5, 6, 7, 8, 9, 10, 11, 12, 13, 14, 15, 16, 17, 18, 19, 20, 21, 22, 23, 24, 25, 26, 27, 28, 29]",300,214,-1,12,149,8,0.0
undo,37,19,0,0,0,29,"[0, 29]",2,28,"[1, 2, 3, 4, 5, 6, 7, 8, 9, 10, 11, 12, 13, 14, 15, 16, 17, 18, 19, 20, 21, 22, 23, 24, 25, 26, 27, 28]",265.0715016,2705,2491,12,120,8,1.0
undo,37,19,0,0,0,9,"[0, 29, 9]",3,17,"[1, 4, 5, 6, 7, 10, 11, 12, 13, 14, 19, 20, 21, 22, 24, 27, 28]",181.7108394,4005,1300,11,65,8,1.0375842971861238
undo,37,19,0,0,0,6,"[0, 29, 9, 6]",4,12,"[4, 7, 10, 11, 13, 14, 20, 21, 22, 24, 27, 28]",140.2741407,6072,2067,11,34,8,1.0389786364356892
undo,37,19,0,0,0,4,"[0, 29, 9, 6, 4]",5,7,"[10, 11, 14, 20, 22, 27, 28]",99.22538921,7039,967,2,6,8,1.2182485830176533
undo,37,19,0,0,0,28,"[0, 29, 9, 6, 4, 28]",6,3,"[11, 14, 27]",88.04504932,9009,1970,2,1,8,1.2933703503588658
undo,37,19,0,0,1,27,"[0, 29, 9, 6, 4, 28, 27]",7,0,[],35.64275929,9829,820,1,0,7,1.697599891123485
undo,37,19,0,1,1,27,"[0, 29, 9, 6, 4, 28, 27]",7,0,[],35.64275929,10448,619,1,0,7,1.697599891123485
undo,38,40,0,0,0,0,[0],1,29,"[1, 2, 3, 4, 5, 6, 7, 8, 9, 10, 11, 12, 13, 14, 15, 16, 17, 18, 19, 20, 21, 22, 23, 24, 25, 26, 27, 28, 29]",300,164,-1,8,191,9,0.0
undo,38,40,0,0,0,2,"[0, 2]",2,28,"[1, 3, 4, 5, 6, 7, 8, 9, 10, 11, 12, 13, 14, 15, 16, 17, 18, 19, 20, 21, 22, 23, 24, 25, 26, 27, 28, 29]",263.7646581,3556,3392,4,79,9,1.0
undo,38,40,0,0,0,1,"[0, 2, 1]",3,13,"[5, 6, 8, 9, 10, 13, 17, 18, 19, 21, 22, 23, 27]",197.9695215,4607,1051,3,32,9,1.9563451201211088
undo,38,40,0,0,0,6,"[0, 2, 1, 6]",4,10,"[5, 8, 9, 13, 17, 18, 19, 21, 22, 23]",177.8697703,5674,1067,3,29,9,1.767962123020631
undo,38,40,0,0,0,9,"[0, 2, 1, 6, 9]",5,6,"[5, 18, 19, 21, 22, 23]",109.2694788,7346,1672,1,5,9,1.5465201700077729
undo,38,40,0,0,0,18,"[0, 2, 1, 6, 9, 18]",6,5,"[5, 19, 21, 22, 23]",92.71653339,8407,1061,1,3,9,1.7498663316327165
undo,38,40,0,0,0,5,"[0, 2, 1, 6, 9, 18, 5]",7,2,"[19, 23]",61.14122659,9909,1502,1,1,9,1.9421980158799246
undo,38,40,0,0,0,23,"[0, 2, 1, 6, 9, 18, 5, 23]",8,1,[19],32.83928319,12455,2546,1,0,9,2.816747234870858
undo,38,40,0,0,1,19,"[0, 2, 1, 6, 9, 18, 5, 23, 19]",9,0,[],0.886192572,13638,1183,1,0,9,2.915582996325632
undo,38,40,0,1,1,19,"[0, 2, 1, 6, 9, 18, 5, 23, 19]",9,0,[],0.886192572,14731,1093,1,0,9,2.915582996325632
undo,39,14,0,0,0,0,[0],1,29,"[1, 2, 3, 4, 5, 6, 7, 8, 9, 10, 11, 12, 13, 14, 15, 16, 17, 18, 19, 20, 21, 22, 23, 24, 25, 26, 27, 28, 29]",300,196,-1,8,157,10,0.0
undo,39,14,0,0,0,15,"[0, 15]",2,20,"[1, 2, 3, 4, 7, 8, 9, 13, 17, 18, 19, 20, 21, 22, 23, 25, 26, 27, 28, 29]",216.7053423,3055,2859,8,102,10,1.0
undo,39,14,0,0,0,28,"[0, 15, 28]",3,17,"[1, 2, 3, 4, 7, 8, 9, 13, 17, 18, 19, 20, 22, 23, 25, 26, 27]",197.4959696,3856,801,8,48,10,1.0446007867311968
undo,39,14,0,0,0,17,"[0, 15, 28, 17]",4,14,"[1, 2, 3, 4, 7, 8, 13, 18, 19, 20, 22, 23, 25, 26]",184.0423455,4888,1032,8,39,10,1.0729463354689972
undo,39,14,0,0,0,18,"[0, 15, 28, 17, 18]",5,9,"[1, 2, 4, 7, 8, 19, 23, 25, 26]",119.412631,6237,1349,8,27,10,1.5035901079219378
undo,39,14,0,0,0,8,"[0, 15, 28, 17, 18, 8]",6,8,"[1, 2, 4, 7, 19, 23, 25, 26]",105.8111605,7496,1259,8,18,10,1.4819689987843856
undo,39,14,0,0,0,1,"[0, 15, 28, 17, 18, 8, 1]",7,5,"[7, 19, 23, 25, 26]",82.21031307,8855,1359,4,6,10,1.4084991998385268
undo,39,14,0,0,0,19,"[0, 15, 28, 17, 18, 8, 1, 19]",8,4,"[7, 23, 25, 26]",66.97876686,9988,1133,4,1,10,1.5758713333797987
undo,39,14,0,0,0,26,"[0, 15, 28, 17, 18, 8, 1, 19, 26]",9,1,[23],13.75283333,11441,1453,1,0,10,1.4427883209195413
undo,39,14,0,0,1,23,"[0, 15, 28, 17, 18, 8, 1, 19, 26, 23]",10,0,[],2.936179503,12261,820,1,0,10,1.5803726510701064
undo,39,14,0,1,1,23,"[0, 15, 28, 17, 18, 8, 1, 19, 26, 23]",10,0,[],2.936179503,13497,1236,1,0,10,1.5803726510701064
undo,40,29,0,0,0,0,[0],1,29,"[1, 2, 3, 4, 5, 6, 7, 8, 9, 10, 11, 12, 13, 14, 15, 16, 17, 18, 19, 20, 21, 22, 23, 24, 25, 26, 27, 28, 29]",300,189,-1,1,78,9,0.0
undo,40,29,0,0,0,25,"[0, 25]",2,18,"[1, 2, 4, 5, 6, 7, 9, 10, 12, 13, 14, 15, 16, 17, 22, 26, 27, 28]",223.3449284,4057,3868,13,101,8,1.0
undo,40,29,0,0,0,17,"[0, 25, 17]",3,13,"[1, 4, 5, 6, 7, 9, 10, 12, 13, 14, 22, 27, 28]",188.41643,4854,797,2,22,8,1.014228463693056
undo,40,29,0,0,0,1,"[0, 25, 17, 1]",4,11,"[4, 5, 6, 7, 10, 12, 13, 14, 22, 27, 28]",149.5191293,6512,1658,2,18,8,1.7553639368828857
undo,40,29,0,0,0,14,"[0, 25, 17, 1, 14]",5,8,"[4, 5, 7, 12, 13, 22, 27, 28]",106.5656662,10669,4157,2,9,8,2.137167642879409
undo,40,29,0,0,0,13,"[0, 25, 17, 1, 14, 13]",6,4,"[4, 5, 12, 22]",88.53790978,11489,820,2,3,8,1.9535489858276616
undo,40,29,0,0,0,5,"[0, 25, 17, 1, 14, 13, 5]",7,2,"[4, 22]",62.82798951,13507,2018,2,0,8,1.9087092890879327
undo,40,29,0,0,1,4,"[0, 25, 17, 1, 14, 13, 5, 4]",8,0,[],10.93386653,14626,1119,1,0,8,1.6444131700810427
undo,40,29,0,1,1,4,"[0, 25, 17, 1, 14, 13, 5, 4]",8,0,[],10.93386653,15464,838,1,0,8,1.6444131700810427
undo,41,28,0,0,0,0,[0],1,27,"[1, 2, 3, 4, 5, 6, 7, 8, 9, 10, 11, 12, 13, 14, 15, 16, 17, 18, 19, 20, 22, 23, 25, 26, 27, 28, 29]",300,181,-1,2,96,9,0.0
undo,41,28,0,0,0,28,"[0, 28]",2,8,"[2, 4, 5, 8, 9, 19, 26, 29]",115.2840018,2573,2392,16,16,5,1.0
undo,41,28,0,0,0,8,"[0, 28, 8]",3,6,"[2, 4, 5, 9, 26, 29]",97.47950796,3495,922,8,4,5,1.0041899497699787
undo,41,28,0,0,0,9,"[0, 28, 8, 9]",4,5,"[2, 4, 5, 26, 29]",82.34676201,4657,1162,5,0,5,1.057766249254381
undo,41,28,0,0,1,4,"[0, 28, 8, 9, 4]",5,0,[],59.32503314,5473,816,1,0,5,1.0531434681092646
undo,41,28,0,1,1,4,"[0, 28, 8, 9, 4]",5,0,[],59.32503314,7798,2325,1,0,5,1.0531434681092646
undo,42,22,0,0,0,0,[0],1,29,"[1, 2, 3, 4, 5, 6, 7, 8, 9, 10, 11, 12, 13, 14, 15, 16, 17, 18, 19, 20, 21, 22, 23, 24, 25, 26, 27, 28, 29]",300,298,-1,31,704,9,0.0
undo,42,22,0,0,0,16,"[0, 16]",2,21,"[1, 3, 6, 7, 8, 9, 11, 13, 14, 15, 17, 18, 19, 20, 21, 22, 24, 25, 27, 28, 29]",218.605897,2196,1898,17,147,9,1.0
undo,42,22,0,0,0,28,"[0, 16, 28]",3,13,"[6, 7, 9, 13, 14, 17, 19, 20, 21, 22, 24, 25, 29]",184.1675463,4738,2542,12,61,9,1.047282311284478
undo,42,22,0,0,0,6,"[0, 16, 28, 6]",4,12,"[7, 9, 13, 14, 17, 19, 20, 21, 22, 24, 25, 29]",154.1675463,5457,719,12,43,9,1.645645870580622
undo,42,22,0,0,0,9,"[0, 16, 28, 6, 9]",5,8,"[7, 14, 17, 19, 20, 21, 24, 29]",127.5404924,9598,4141,8,17,9,1.925750226630103
undo,42,22,0,0,0,19,"[0, 16, 28, 6, 9, 19]",6,6,"[7, 14, 17, 21, 24, 29]",107.1444143,12139,2541,3,7,9,2.4220750331476455
undo,42,22,0,0,0,29,"[0, 16, 28, 6, 9, 19, 29]",7,4,"[7, 14, 17, 24]",92.11111796,12808,669,2,2,9,2.6996279574991067
undo,42,22,0,0,0,14,"[0, 16, 28, 6, 9, 19, 29, 14]",8,1,[7],33.86165444,18809,6001,1,0,9,2.0544639927929462
undo,42,22,0,0,1,7,"[0, 16, 28, 6, 9, 19, 29, 14, 7]",9,0,[],20.82324963,19775,966,1,0,9,2.219817088951114
undo,42,22,0,1,1,7,"[0, 16, 28, 6, 9, 19, 29, 14, 7]",9,0,[],20.82324963,20664,889,1,0,9,2.219817088951114
undo,43,6,0,0,0,0,[0],1,29,"[1, 2, 3, 4, 5, 6, 7, 8, 9, 10, 11, 12, 13, 14, 15, 16, 17, 18, 19, 20, 21, 22, 23, 24, 25, 26, 27, 28, 29]",300,164,-1,180,4304,10,0.0
undo,43,6,0,0,0,7,"[0, 7]",2,26,"[1, 2, 3, 4, 5, 6, 8, 9, 10, 11, 12, 13, 14, 15, 16, 17, 18, 19, 20, 21, 22, 23, 24, 26, 27, 29]",251.9791712,5771,5607,16,572,10,1.0
undo,43,6,0,0,0,3,"[0, 7, 3]",3,25,"[1, 2, 4, 5, 6, 8, 9, 10, 11, 12, 13, 14, 15, 16, 17, 18, 19, 20, 21, 22, 23, 24, 26, 27, 29]",215.8405492,6922,1151,4,222,10,2.5102659609695053
undo,43,6,0,0,0,18,"[0, 7, 3, 18]",4,24,"[1, 2, 4, 5, 6, 8, 9, 10, 11, 12, 13, 14, 15, 16, 17, 19, 20, 21, 22, 23, 24, 26, 27, 29]",186.8405492,8128,1206,2,107,10,1.8580714674494638
undo,43,6,0,0,0,16,"[0, 7, 3, 18, 16]",5,18,"[1, 2, 6, 10, 11, 13, 14, 15, 17, 19, 20, 21, 22, 23, 24, 26, 27, 29]",163.4953141,9776,1648,1,25,10,1.8911618499072615
undo,43,6,0,0,0,17,"[0, 7, 3, 18, 16, 17]",6,12,"[1, 2, 6, 10, 13, 14, 22, 23, 24, 26, 27, 29]",130.7386354,10889,1113,1,9,10,2.3982782398233415
undo,43,6,0,0,0,10,"[0, 7, 3, 18, 16, 17, 10]",7,7,"[2, 6, 22, 23, 24, 26, 29]",111.0155525,11786,897,1,4,10,2.2406247809877287
undo,43,6,0,0,0,24,"[0, 7, 3, 18, 16, 17, 10, 24]",8,4,"[6, 23, 26, 29]",97.59914463,13213,1427,1,3,10,2.080314966201033
undo,43,6,0,0,0,23,"[0, 7, 3, 18, 16, 17, 10, 24, 23]",9,1,[6],36.41091047,14759,1546,1,0,10,1.9641315580440424
undo,43,6,0,0,1,6,"[0, 7, 3, 18, 16, 17, 10, 24, 23, 6]",10,0,[],1.055571408,17658,2899,1,0,10,1.8561175539762491
undo,43,6,0,1,1,6,"[0, 7, 3, 18, 16, 17, 10, 24, 23, 6]",10,0,[],1.055571408,18447,789,1,0,10,1.8561175539762491
undo,44,36,0,0,0,0,[0],1,24,"[2, 4, 5, 6, 7, 8, 9, 10, 12, 13, 14, 15, 16, 17, 18, 19, 20, 22, 23, 25, 26, 27, 28, 29]",300,163,-1,2,200,10,0.0
undo,44,36,0,0,0,12,"[0, 12]",2,23,"[2, 4, 5, 6, 7, 8, 9, 10, 13, 14, 15, 16, 17, 18, 19, 20, 22, 23, 25, 26, 27, 28, 29]",277.7963967,2671,2508,90,804,9,1.0
undo,44,36,0,0,0,9,"[0, 12, 9]",3,14,"[2, 4, 8, 10, 13, 16, 17, 18, 19, 23, 25, 27, 28, 29]",215.4345494,3888,1217,32,191,9,1.224429481246385
undo,44,36,0,0,0,16,"[0, 12, 9, 16]",4,8,"[2, 10, 13, 17, 18, 19, 23, 25]",168.137615,4871,983,7,26,9,1.235383731443557
undo,44,36,0,0,0,17,"[0, 12, 9, 16, 17]",5,6,"[2, 10, 13, 18, 19, 25]",139.8180105,5874,1003,7,14,9,1.6947865799475665
undo,44,36,0,0,0,19,"[0, 12, 9, 16, 17, 19]",6,5,"[2, 10, 13, 18, 25]",111.9253591,7671,1797,6,1,9,2.440059772477113
undo,44,36,0,0,0,13,"[0, 12, 9, 16, 17, 19, 13]",7,2,"[2, 25]",68.50877245,9543,1872,2,0,9,2.3601901953162883
undo,44,36,0,0,0,25,"[0, 12, 9, 16, 17, 19, 13, 25]",8,1,[2],47.91751216,10444,901,1,0,9,2.2017827249313693
undo,44,36,0,0,1,2,"[0, 12, 9, 16, 17, 19, 13, 25, 2]",9,0,[],22.91751216,11705,1261,1,0,9,2.453595116264792
undo,44,36,0,1,1,2,"[0, 12, 9, 16, 17, 19, 13, 25, 2]",9,0,[],22.91751216,12730,1025,1,0,9,2.453595116264792
undo,45,11,0,0,0,0,[0],1,25,"[1, 2, 3, 4, 5, 6, 8, 9, 10, 11, 12, 13, 14, 15, 16, 17, 18, 19, 20, 22, 23, 25, 26, 27, 28]",300,305,-1,6,374,12,0.0
undo,45,11,0,0,0,1,"[0, 1]",2,24,"[2, 3, 4, 5, 6, 8, 9, 10, 11, 12, 13, 14, 15, 16, 17, 18, 19, 20, 22, 23, 25, 26, 27, 28]",264.6446609,3209,2904,6,217,12,1.0
undo,45,11,0,0,0,18,"[0, 1, 18]",3,19,"[2, 4, 5, 6, 8, 9, 11, 12, 14, 15, 16, 17, 19, 20, 22, 23, 25, 27, 28]",212.3187591,4346,1137,6,161,12,1.3884463804898786
undo,45,11,0,0,0,27,"[0, 1, 18, 27]",4,18,"[2, 4, 5, 6, 8, 9, 11, 12, 14, 15, 16, 17, 19, 20, 22, 23, 25, 28]",188.4650382,5596,1250,6,155,12,1.3600813284083875
undo,45,11,0,0,0,17,"[0, 1, 18, 27, 17]",5,11,"[2, 5, 6, 8, 11, 12, 15, 19, 22, 25, 28]",111.3871556,6972,1376,2,45,12,1.282398281674261
undo,45,11,0,0,0,8,"[0, 1, 18, 27, 17, 8]",6,7,"[2, 5, 11, 12, 15, 22, 28]",97.0693345,7928,956,2,21,12,1.3975291553712
undo,45,11,0,0,0,15,"[0, 1, 18, 27, 17, 8, 15]",7,6,"[2, 5, 11, 12, 22, 28]",83.61571045,8786,858,2,18,12,1.3793915678186077
undo,45,11,0,0,0,11,"[0, 1, 18, 27, 17, 8, 15, 11]",8,4,"[2, 5, 22, 28]",65.50494017,9459,673,2,14,12,1.3525960247899067
undo,45,11,0,0,0,28,"[0, 1, 18, 27, 17, 8, 15, 11, 28]",9,3,"[2, 5, 22]",46.08845233,10537,1078,2,4,12,1.4693669896690256
undo,45,11,0,0,0,22,"[0, 1, 18, 27, 17, 8, 15, 11, 28, 22]",10,2,"[2, 5]",27.70367602,11502,965,1,1,12,1.4442837306182805
undo,45,11,0,0,0,2,"[0, 1, 18, 27, 17, 8, 15, 11, 28, 22, 2]",11,1,[5],17.6538004,12526,1024,1,0,12,1.5818769305111617
undo,45,11,0,0,1,5,"[0, 1, 18, 27, 17, 8, 15, 11, 28, 22, 2, 5]",12,0,[],0.653800401,15653,3127,1,0,12,1.8399455960789832
undo,45,11,0,1,1,5,"[0, 1, 18, 27, 17, 8, 15, 11, 28, 22, 2, 5]",12,0,[],0.653800401,17564,1911,1,0,12,1.8399455960789832
undo,46,42,0,0,0,0,[0],1,29,"[1, 2, 3, 4, 5, 6, 7, 8, 9, 10, 11, 12, 13, 14, 15, 16, 17, 18, 19, 20, 21, 22, 23, 24, 25, 26, 27, 28, 29]",300,220,-1,16,302,9,0.0
undo,46,42,0,0,0,3,"[0, 3]",2,25,"[1, 2, 4, 5, 6, 7, 8, 9, 10, 11, 13, 15, 17, 18, 19, 20, 21, 22, 23, 24, 25, 26, 27, 28, 29]",255.7959278,2276,2056,3,45,9,1.0
undo,46,42,0,0,0,23,"[0, 3, 23]",3,15,"[1, 2, 4, 5, 6, 7, 8, 9, 11, 15, 17, 22, 24, 25, 29]",202.4573864,4723,2447,1,24,8,1.2042297975308642
undo,46,42,0,0,0,17,"[0, 3, 23, 17]",4,11,"[4, 5, 6, 8, 9, 11, 15, 22, 24, 25, 29]",191.2770465,6932,2209,1,14,8,1.192958341617778
undo,46,42,0,0,0,11,"[0, 3, 23, 17, 11]",5,7,"[4, 6, 8, 15, 22, 24, 25]",140.0813435,8297,1365,1,7,8,1.7422648616902974
undo,46,42,0,0,0,24,"[0, 3, 23, 17, 11, 24]",6,2,"[6, 15]",82.0727235,12612,4315,1,1,8,1.6631309430247303
undo,46,42,0,0,0,15,"[0, 3, 23, 17, 11, 24, 15]",7,1,[6],68.47125299,13640,1028,1,0,8,1.6008668931493675
undo,46,42,0,0,1,6,"[0, 3, 23, 17, 11, 24, 15, 6]",8,0,[],19.07489685,15445,1805,1,0,8,1.4594939660868298
undo,46,42,0,1,1,6,"[0, 3, 23, 17, 11, 24, 15, 6]",8,0,[],19.07489685,16465,1020,1,0,8,1.4594939660868298
undo,47,8,0,0,0,0,[0],1,29,"[1, 2, 3, 4, 5, 6, 7, 8, 9, 10, 11, 12, 13, 14, 15, 16, 17, 18, 19, 20, 21, 22, 23, 24, 25, 26, 27, 28, 29]",300,197,-1,10,149,9,0.0
undo,47,8,0,0,0,5,"[0, 5]",2,28,"[1, 2, 3, 4, 6, 7, 8, 9, 10, 11, 12, 13, 14, 15, 16, 17, 18, 19, 20, 21, 22, 23, 24, 25, 26, 27, 28, 29]",254.5137383,2876,2679,10,100,9,1.0
undo,47,8,0,0,0,25,"[0, 5, 25]",3,20,"[1, 2, 3, 4, 6, 11, 12, 14, 15, 16, 17, 18, 19, 20, 21, 22, 23, 24, 28, 29]",215.3091468,3990,1114,4,42,9,1.2272747879909065
undo,47,8,0,0,0,1,"[0, 5, 25, 1]",4,17,"[3, 4, 6, 11, 12, 14, 15, 16, 17, 18, 20, 21, 22, 23, 24, 28, 29]",190.3091468,5103,1113,3,24,9,1.1770245007593956
undo,47,8,0,0,0,23,"[0, 5, 25, 1, 23]",5,15,"[3, 4, 6, 11, 14, 15, 16, 17, 18, 20, 21, 22, 24, 28, 29]",167.2874179,6312,1209,1,14,9,1.141996583852372
undo,47,8,0,0,0,4,"[0, 5, 25, 1, 23, 4]",6,6,"[3, 14, 16, 18, 21, 28]",117.9518324,8388,2076,3,4,8,1.115517190692443
undo,47,8,0,0,0,18,"[0, 5, 25, 1, 23, 4, 18]",7,2,"[14, 28]",74.94020603,11230,2842,2,0,8,1.702606074443807
undo,47,8,0,0,1,14,"[0, 5, 25, 1, 23, 4, 18, 14]",8,0,[],17.45107663,13755,2525,1,0,8,3.306985013025639
undo,47,8,0,1,1,14,"[0, 5, 25, 1, 23, 4, 18, 14]",8,0,[],17.45107663,14980,1225,1,0,8,3.306985013025639
undo,48,44,0,0,0,0,[0],1,29,"[1, 2, 3, 4, 5, 6, 7, 8, 9, 10, 11, 12, 13, 14, 15, 16, 17, 18, 19, 20, 21, 22, 23, 24, 25, 26, 27, 28, 29]",300,180,-1,13,126,7,0.0
undo,48,44,0,0,0,8,"[0, 8]",2,17,"[1, 4, 5, 7, 9, 10, 11, 12, 13, 14, 15, 20, 21, 23, 24, 25, 27]",145.7923478,4504,4324,1,10,7,1.0
undo,48,44,0,0,0,20,"[0, 8, 20]",3,16,"[1, 4, 5, 7, 9, 10, 11, 12, 13, 14, 15, 21, 23, 24, 25, 27]",133.7093018,5505,1001,1,9,7,1.0890794433668698
undo,48,44,0,0,0,9,"[0, 8, 20, 9]",4,7,"[4, 7, 11, 12, 14, 23, 24]",76.43801756,6838,1333,1,6,7,1.40892325509949
undo,48,44,0,0,0,24,"[0, 8, 20, 9, 24]",5,2,"[4, 11]",43.68133886,8812,1974,2,0,6,1.70572353022166
undo,48,44,0,0,1,11,"[0, 8, 20, 9, 24, 11]",6,0,[],16.75551482,10729,1917,1,0,6,1.9239417911005514
undo,48,44,0,1,1,11,"[0, 8, 20, 9, 24, 11]",6,0,[],16.75551482,11597,868,1,0,6,1.9239417911005514
undo,49,26,0,0,0,0,[0],1,29,"[1, 2, 3, 4, 5, 6, 7, 8, 9, 10, 11, 12, 13, 14, 15, 16, 17, 18, 19, 20, 21, 22, 23, 24, 25, 26, 27, 28, 29]",300,180,-1,9,226,9,0.0
undo,49,26,0,0,0,21,"[0, 21]",2,25,"[2, 3, 4, 5, 6, 7, 8, 10, 11, 12, 13, 14, 15, 16, 17, 18, 19, 22, 23, 24, 25, 26, 27, 28, 29]",211.1349337,2069,1889,7,90,9,1.0
undo,49,26,0,0,0,13,"[0, 21, 13]",3,21,"[3, 4, 5, 6, 7, 8, 10, 11, 12, 14, 15, 16, 17, 18, 19, 22, 23, 24, 25, 26, 29]",188.9989901,3170,1101,6,45,9,1.0103952279992225
undo,49,26,0,0,0,5,"[0, 21, 13, 5]",4,12,"[3, 4, 11, 14, 16, 17, 18, 22, 23, 25, 26, 29]",150.7106107,5753,2583,2,10,8,1.0086890649024711
undo,49,26,0,0,0,23,"[0, 21, 13, 5, 23]",5,8,"[3, 4, 11, 14, 16, 17, 22, 29]",118.0150452,7027,1274,2,7,8,1.3518621918690494
undo,49,26,0,0,0,16,"[0, 21, 13, 5, 23, 16]",6,4,"[4, 14, 17, 29]",64.77971862,8324,1297,2,3,8,2.1011863559657242
undo,49,26,0,0,0,29,"[0, 21, 13, 5, 23, 16, 29]",7,2,"[4, 17]",40.57228175,10145,1821,2,0,8,2.123178325538451
undo,49,26,0,0,1,4,"[0, 21, 13, 5, 23, 16, 29, 4]",8,0,[],16.57228175,11023,878,1,0,8,2.338467952972574
undo,49,26,0,1,1,4,"[0, 21, 13, 5, 23, 16, 29, 4]",8,0,[],16.57228175,12063,1040,1,0,8,2.338467952972574
undo,50,37,0,0,0,0,[0],1,29,"[1, 2, 3, 4, 5, 6, 7, 8, 9, 10, 11, 12, 13, 14, 15, 16, 17, 18, 19, 20, 21, 22, 23, 24, 25, 26, 27, 28, 29]",300,164,-1,6,168,10,0.0
undo,50,37,0,0,0,19,"[0, 19]",2,19,"[1, 2, 4, 5, 6, 7, 9, 10, 11, 15, 17, 18, 20, 21, 22, 25, 26, 28, 29]",185.6627795,6025,5861,25,244,9,1.0
undo,50,37,0,0,0,26,"[0, 19, 26]",3,9,"[1, 2, 4, 15, 20, 21, 22, 25, 29]",120.4094271,7412,1387,12,37,8,1.0256292033966232
undo,50,37,0,0,0,21,"[0, 19, 26, 21]",4,6,"[1, 2, 4, 15, 20, 22]",90.67728956,10130,2718,8,18,8,1.3487859218508713
undo,50,37,0,0,0,20,"[0, 19, 26, 21, 20]",5,5,"[1, 2, 4, 15, 22]",76.25508446,11058,928,4,8,8,1.4926614025505558
undo,50,37,0,0,0,15,"[0, 19, 26, 21, 20, 15]",6,3,"[1, 2, 4]",59.25508446,12557,1499,2,2,8,1.4468094294766474
undo,50,37,0,0,0,1,"[0, 19, 26, 21, 20, 15, 1]",7,2,"[2, 4]",19.29260206,15273,2716,2,0,8,1.7730460035740097
undo,50,37,0,0,1,2,"[0, 19, 26, 21, 20, 15, 1, 2]",8,0,[],2.087951523,16304,1031,1,0,8,1.9706815832116096
undo,50,37,0,1,1,2,"[0, 19, 26, 21, 20, 15, 1, 2]",8,0,[],2.087951523,17114,810,1,0,8,1.9706815832116096
undo,51,32,0,0,0,0,[0],1,29,"[1, 2, 3, 4, 5, 6, 7, 8, 9, 10, 11, 12, 13, 14, 15, 16, 17, 18, 19, 20, 21, 22, 23, 24, 25, 26, 27, 28, 29]",300,182,-1,17,359,10,0.0
undo,51,32,0,0,0,19,"[0, 19]",2,28,"[1, 2, 3, 4, 5, 6, 7, 8, 9, 10, 11, 12, 13, 14, 15, 16, 17, 18, 20, 21, 22, 23, 24, 25, 26, 27, 28, 29]",283.5075775,2825,2643,16,294,10,1.0
undo,51,32,0,0,0,13,"[0, 19, 13]",3,24,"[2, 3, 4, 5, 6, 8, 9, 10, 11, 12, 14, 15, 16, 17, 18, 20, 21, 22, 23, 24, 25, 26, 27, 28]",260.3127505,3646,821,14,227,10,1.0172874229878615
undo,51,32,0,0,0,15,"[0, 19, 13, 15]",4,18,"[2, 3, 5, 8, 9, 10, 11, 12, 16, 17, 20, 22, 23, 24, 25, 26, 27, 28]",177.4393531,4957,1311,9,116,10,1.435447391509833
undo,51,32,0,0,0,28,"[0, 19, 13, 15, 28]",5,17,"[2, 3, 5, 8, 9, 10, 11, 12, 16, 17, 20, 22, 23, 24, 25, 26, 27]",166.0375988,5911,954,9,70,10,1.3843701324937985
undo,51,32,0,0,0,12,"[0, 19, 13, 15, 28, 12]",6,14,"[2, 3, 5, 8, 9, 10, 11, 16, 17, 20, 22, 24, 26, 27]",147.0639329,6849,938,6,35,10,1.358372254952329
undo,51,32,0,0,0,16,"[0, 19, 13, 15, 28, 12, 16]",7,13,"[2, 3, 5, 8, 9, 10, 11, 17, 20, 22, 24, 26, 27]",131.411457,7806,957,5,15,10,1.4356932930709845
undo,51,32,0,0,0,22,"[0, 19, 13, 15, 28, 12, 16, 22]",8,6,"[2, 8, 9, 17, 20, 27]",97.57360838,10647,2841,3,5,10,1.4335226411545752
undo,51,32,0,0,0,9,"[0, 19, 13, 15, 28, 12, 16, 22, 9]",9,3,"[2, 8, 20]",75.37000507,12142,1495,3,0,10,1.4837166378374758
undo,51,32,0,0,1,8,"[0, 19, 13, 15, 28, 12, 16, 22, 9, 8]",10,0,[],30.24794838,13873,1731,1,0,10,1.3767698817641267
undo,51,32,0,1,1,8,"[0, 19, 13, 15, 28, 12, 16, 22, 9, 8]",10,0,[],30.24794838,14816,943,1,0,10,1.3767698817641267
undo,52,33,0,0,0,0,[0],1,23,"[1, 2, 5, 7, 8, 11, 12, 13, 14, 15, 16, 17, 18, 19, 20, 21, 23, 24, 25, 26, 27, 28, 29]",300,280,-1,5,108,9,0.0
undo,52,33,0,0,0,8,"[0, 8]",2,22,"[1, 2, 5, 7, 11, 12, 13, 14, 15, 16, 17, 18, 19, 20, 21, 23, 24, 25, 26, 27, 28, 29]",265.8679037,8787,8507,5,87,9,1.0
undo,52,33,0,0,0,21,"[0, 8, 21]",3,16,"[2, 5, 7, 11, 13, 14, 16, 17, 18, 19, 20, 24, 26, 27, 28, 29]",166.0430571,9772,985,5,80,9,1.0670557763739492
undo,52,33,0,0,0,17,"[0, 8, 21, 17]",4,11,"[2, 7, 11, 13, 14, 16, 19, 20, 24, 26, 29]",127.4036989,11314,1542,1,18,9,1.0830294710276618
undo,52,33,0,0,0,13,"[0, 8, 21, 17, 13]",5,10,"[2, 7, 11, 14, 16, 19, 20, 24, 26, 29]",104.6001904,13238,1924,1,10,9,1.2861654105061844
undo,52,33,0,0,0,19,"[0, 8, 21, 17, 13, 19]",6,6,"[7, 14, 16, 24, 26, 29]",79.10509282,16093,2855,1,6,9,1.3181942666818214
undo,52,33,0,0,0,7,"[0, 8, 21, 17, 13, 19, 7]",7,3,"[14, 24, 26]",33.48711391,17037,944,1,2,9,1.25064167844248
undo,52,33,0,0,0,14,"[0, 8, 21, 17, 13, 19, 7, 14]",8,1,[26],18.62104516,18038,1001,1,0,9,1.297007778404226
undo,52,33,0,0,1,26,"[0, 8, 21, 17, 13, 19, 7, 14, 26]",9,0,[],5.971934519,19259,1221,1,0,9,1.2996231319325615
undo,52,33,0,1,1,26,"[0, 8, 21, 17, 13, 19, 7, 14, 26]",9,0,[],5.971934519,20797,1538,1,0,9,1.2996231319325615
undo,53,3,0,0,0,0,[0],1,29,"[1, 2, 3, 4, 5, 6, 7, 8, 9, 10, 11, 12, 13, 14, 15, 16, 17, 18, 19, 20, 21, 22, 23, 24, 25, 26, 27, 28, 29]",300,282,-1,34,427,10,0.0
undo,53,3,0,0,0,7,"[0, 7]",2,28,"[1, 2, 3, 4, 5, 6, 8, 9, 10, 11, 12, 13, 14, 15, 16, 17, 18, 19, 20, 21, 22, 23, 24, 25, 26, 27, 28, 29]",278.8103799,2162,1880,24,215,10,1.0
undo,53,3,0,0,0,8,"[0, 7, 8]",3,24,"[1, 2, 3, 4, 5, 6, 10, 11, 12, 13, 14, 15, 16, 17, 18, 19, 20, 21, 22, 24, 25, 26, 27, 28]",222.837172,3324,1162,16,114,10,1.2853332575451413
undo,53,3,0,0,0,24,"[0, 7, 8, 24]",4,21,"[1, 3, 4, 5, 6, 10, 11, 12, 14, 15, 16, 17, 18, 19, 20, 21, 22, 25, 26, 27, 28]",210.671647,4377,1053,16,91,10,1.5177505014936548
undo,53,3,0,0,0,17,"[0, 7, 8, 24, 17]",5,9,"[3, 4, 10, 14, 15, 16, 19, 20, 21]",141.3174834,5772,1395,7,26,10,1.5510961300062232
undo,53,3,0,0,0,20,"[0, 7, 8, 24, 17, 20]",6,7,"[3, 4, 10, 14, 16, 19, 21]",128.6683728,6897,1125,7,14,10,1.5133082717474817
undo,53,3,0,0,0,3,"[0, 7, 8, 24, 17, 20, 3]",7,5,"[4, 10, 14, 19, 21]",108.2722947,8125,1228,7,4,10,1.5325960555943097
undo,53,3,0,0,0,19,"[0, 7, 8, 24, 17, 20, 3, 19]",8,3,"[10, 14, 21]",70.93598532,9344,1219,3,1,10,1.5521294182529992
undo,53,3,0,0,0,21,"[0, 7, 8, 24, 17, 20, 3, 19, 21]",9,2,"[10, 14]",58.72942971,10092,748,2,0,10,1.5690424431931145
undo,53,3,0,0,1,14,"[0, 7, 8, 24, 17, 20, 3, 19, 21, 14]",10,0,[],31.82218161,11707,1615,1,0,10,2.0836613372745463
undo,53,3,0,1,1,14,"[0, 7, 8, 24, 17, 20, 3, 19, 21, 14]",10,0,[],31.82218161,13148,1441,1,0,10,2.0836613372745463
undo,54,31,0,0,0,0,[0],1,27,"[1, 3, 4, 5, 6, 7, 8, 10, 11, 12, 13, 14, 15, 16, 17, 18, 19, 20, 21, 22, 23, 24, 25, 26, 27, 28, 29]",300,231,-1,2,87,10,0.0
undo,54,31,0,0,0,14,"[0, 14]",2,25,"[1, 3, 5, 6, 7, 8, 10, 11, 12, 13, 15, 16, 17, 18, 19, 20, 21, 22, 23, 24, 25, 26, 27, 28, 29]",263.861378,5038,4807,2,59,10,1.0
undo,54,31,0,0,0,27,"[0, 14, 27]",3,22,"[1, 3, 5, 6, 7, 8, 10, 11, 12, 13, 15, 16, 17, 18, 19, 20, 21, 22, 24, 25, 28, 29]",235.6833724,7004,1966,1,39,10,1.5881859159302467
undo,54,31,0,0,0,8,"[0, 14, 27, 8]",4,20,"[1, 3, 5, 6, 7, 10, 11, 12, 13, 16, 17, 18, 19, 20, 21, 22, 24, 25, 28, 29]",224.6380114,7823,819,1,36,10,2.1665048452331277
undo,54,31,0,0,0,11,"[0, 14, 27, 8, 11]",5,13,"[1, 5, 7, 12, 13, 16, 17, 18, 19, 20, 22, 25, 28]",173.3934995,9491,1668,7,41,9,2.0680270430571026
undo,54,31,0,0,0,5,"[0, 14, 27, 8, 11, 5]",6,9,"[12, 16, 17, 18, 19, 20, 22, 25, 28]",129.7128401,10922,1431,9,4,8,1.9411065396000253
undo,54,31,0,0,0,28,"[0, 14, 27, 8, 11, 5, 28]",7,5,"[16, 17, 18, 20, 25]",109.4890917,11859,937,5,0,8,1.7749035551522492
undo,54,31,0,0,1,16,"[0, 14, 27, 8, 11, 5, 28, 16]",8,0,[],75.8736191,12789,930,1,0,8,1.6781550038107784
undo,54,31,0,1,1,16,"[0, 14, 27, 8, 11, 5, 28, 16]",8,0,[],75.8736191,13247,458,1,0,8,1.6781550038107784
undo,55,0,0,0,0,0,[0],1,27,"[2, 3, 4, 5, 6, 7, 8, 9, 10, 11, 12, 13, 14, 15, 16, 17, 19, 20, 21, 22, 23, 24, 25, 26, 27, 28, 29]",300,197,-1,104,1136,9,0.0
undo,55,0,0,0,0,21,"[0, 21]",2,24,"[3, 4, 5, 6, 7, 8, 9, 10, 11, 12, 13, 14, 15, 16, 17, 19, 20, 22, 23, 24, 26, 27, 28, 29]",228.2156006,2405,2208,24,249,9,1.0
undo,55,0,0,0,0,28,"[0, 21, 28]",3,21,"[3, 4, 5, 6, 7, 8, 9, 11, 12, 13, 14, 15, 16, 17, 19, 20, 23, 24, 26, 27, 29]",166.6282642,3545,1140,24,214,9,1.269228840767463
undo,55,0,0,0,0,5,"[0, 21, 28, 5]",4,16,"[3, 4, 7, 8, 9, 11, 12, 14, 15, 17, 19, 20, 23, 24, 26, 29]",122.9705043,4921,1376,17,100,9,1.3066419815776449
undo,55,0,0,0,0,26,"[0, 21, 28, 5, 26]",5,11,"[3, 4, 7, 8, 9, 11, 12, 15, 17, 23, 24]",87.53041402,5979,1058,4,25,9,1.3151537206964767
undo,55,0,0,0,0,4,"[0, 21, 28, 5, 26, 4]",6,9,"[3, 7, 8, 9, 11, 12, 15, 17, 24]",75.48881944,6722,743,4,12,9,1.4342029786257582
undo,55,0,0,0,0,24,"[0, 21, 28, 5, 26, 4, 24]",7,8,"[3, 7, 8, 9, 11, 12, 15, 17]",64.08706519,8653,1931,4,6,9,1.414072718461701
undo,55,0,0,0,0,15,"[0, 21, 28, 5, 26, 4, 24, 15]",8,3,"[7, 8, 9]",40.74183013,10677,2024,3,0,9,1.371525189595184
undo,55,0,0,0,1,7,"[0, 21, 28, 5, 26, 4, 24, 15, 7]",9,0,[],9.677380997,11770,1093,1,0,9,1.4161405040332866
undo,55,0,0,1,1,7,"[0, 21, 28, 5, 26, 4, 24, 15, 7]",9,0,[],9.677380997,12547,777,1,0,9,1.4161405040332866
undo,56,16,0,0,0,0,[0],1,29,"[1, 2, 3, 4, 5, 6, 7, 8, 9, 10, 11, 12, 13, 14, 15, 16, 17, 18, 19, 20, 21, 22, 23, 24, 25, 26, 27, 28, 29]",300,177,-1,13,161,9,0.0
undo,56,16,0,0,0,28,"[0, 28]",2,27,"[1, 2, 3, 4, 5, 7, 8, 9, 10, 11, 12, 13, 14, 15, 16, 17, 18, 19, 20, 21, 22, 23, 24, 25, 26, 27, 29]",284.3475242,2088,1911,11,92,9,1.0
undo,56,16,0,0,0,26,"[0, 28, 26]",3,19,"[1, 3, 5, 7, 8, 9, 10, 11, 14, 16, 17, 20, 21, 22, 23, 24, 25, 27, 29]",229.1207191,2913,825,10,30,7,1.0268047057020424
undo,56,16,0,0,0,22,"[0, 28, 26, 22]",4,11,"[5, 7, 8, 10, 14, 16, 17, 21, 23, 24, 29]",205.0375299,3908,995,9,10,7,1.1196878678368272
undo,56,16,0,0,0,21,"[0, 28, 26, 22, 21]",5,3,"[8, 16, 17]",101.0375299,4872,964,4,0,7,2.345935859621427
undo,56,16,0,0,0,8,"[0, 28, 26, 22, 21, 8]",6,1,[16],51.78308849,7111,2239,1,0,7,2.0011637036902754
undo,56,16,0,0,1,16,"[0, 28, 26, 22, 21, 8, 16]",7,0,[],3.409542,9188,2077,1,0,7,3.589042642116516
undo,56,16,0,1,1,16,"[0, 28, 26, 22, 21, 8, 16]",7,0,[],3.409542,10198,1010,1,0,7,3.589042642116516
undo,57,34,0,0,0,0,[0],1,25,"[1, 3, 4, 5, 6, 7, 8, 9, 10, 11, 12, 13, 15, 18, 19, 20, 21, 22, 23, 24, 25, 26, 27, 28, 29]",300,166,-1,12,367,10,0.0
undo,57,34,0,0,0,13,"[0, 13]",2,24,"[1, 3, 4, 5, 6, 7, 8, 9, 10, 11, 12, 15, 18, 19, 20, 21, 22, 23, 24, 25, 26, 27, 28, 29]",279.9750156,3372,3206,12,331,10,1.0
undo,57,34,0,0,0,1,"[0, 13, 1]",3,16,"[3, 5, 7, 8, 9, 10, 11, 12, 19, 21, 22, 23, 24, 25, 27, 29]",211.8574701,4825,1453,3,92,10,1.0010381285747127
undo,57,34,0,0,0,8,"[0, 13, 1, 8]",4,14,"[3, 5, 7, 9, 10, 11, 12, 19, 22, 23, 24, 25, 27, 29]",201.0871405,5471,646,2,54,10,1.1636807
undo,57,34,0,0,0,25,"[0, 13, 1, 8, 25]",5,12,"[3, 5, 7, 9, 10, 11, 12, 22, 23, 24, 27, 29]",183.999133,6271,800,2,28,10,1.1396208815936457
undo,57,34,0,0,0,24,"[0, 13, 1, 8, 25, 24]",6,11,"[3, 5, 7, 9, 10, 11, 12, 22, 23, 27, 29]",166.5062774,7192,921,2,23,10,1.374180768736554
undo,57,34,0,0,0,10,"[0, 13, 1, 8, 25, 24, 10]",7,2,"[9, 22]",83.94115154,9088,1896,1,1,9,1.206223549925811
undo,57,34,0,0,0,22,"[0, 13, 1, 8, 25, 24, 10, 22]",8,1,[9],48.94115154,10127,1039,1,0,9,1.4772001618468413
undo,57,34,0,0,1,9,"[0, 13, 1, 8, 25, 24, 10, 22, 9]",9,0,[],2.76756602,12053,1926,1,0,9,1.4484674289889272
undo,57,34,0,1,1,9,"[0, 13, 1, 8, 25, 24, 10, 22, 9]",9,0,[],2.76756602,12981,928,1,0,9,1.4484674289889272
undo,58,39,0,0,0,0,[0],1,28,"[1, 2, 3, 4, 5, 6, 7, 9, 10, 11, 12, 13, 14, 15, 16, 17, 18, 19, 20, 21, 22, 23, 24, 25, 26, 27, 28, 29]",300,282,-1,1,30,10,0.0
undo,58,39,0,0,0,14,"[0, 14]",2,26,"[1, 2, 3, 4, 5, 6, 7, 9, 10, 12, 13, 15, 16, 17, 18, 19, 20, 21, 22, 23, 24, 25, 26, 27, 28, 29]",286.9615952,2138,1856,1,22,10,1.0
undo,58,39,0,0,0,29,"[0, 14, 29]",3,23,"[1, 2, 3, 4, 5, 6, 7, 9, 10, 12, 13, 15, 16, 17, 18, 19, 21, 22, 23, 24, 25, 26, 28]",218.9321898,3121,983,1,21,10,1.4237768813412561
undo,58,39,0,0,0,12,"[0, 14, 29, 12]",4,16,"[1, 2, 4, 5, 7, 9, 10, 13, 15, 16, 18, 19, 22, 23, 24, 26]",158.3929463,4723,1602,1,11,10,1.2085522586932163
undo,58,39,0,0,0,10,"[0, 14, 29, 12, 10]",5,11,"[1, 4, 5, 7, 15, 16, 18, 19, 22, 23, 26]",122.8823845,5838,1115,1,8,10,1.4905426536315662
undo,58,39,0,0,0,7,"[0, 14, 29, 12, 10, 7]",6,6,"[1, 16, 18, 19, 22, 26]",89.46083457,6626,788,1,6,10,1.3836596018032035
undo,58,39,0,0,0,26,"[0, 14, 29, 12, 10, 7, 26]",7,3,"[16, 19, 22]",70.77929288,9220,2594,1,4,10,1.4191124441944845
undo,58,39,0,0,0,22,"[0, 14, 29, 12, 10, 7, 26, 22]",8,2,"[16, 19]",53.05924773,9938,718,1,1,10,1.594793297833885
undo,58,39,0,0,0,16,"[0, 14, 29, 12, 10, 7, 26, 22, 16]",9,1,[19],18.05924773,10809,871,1,0,10,1.48519520801471
undo,58,39,0,0,1,19,"[0, 14, 29, 12, 10, 7, 26, 22, 16, 19]",10,0,[],0.594998533,13055,2246,1,0,10,1.484277847976571
undo,58,39,0,1,1,19,"[0, 14, 29, 12, 10, 7, 26, 22, 16, 19]",10,0,[],0.594998533,14014,959,1,0,10,1.484277847976571
undo,59,25,0,0,0,0,[0],1,28,"[1, 2, 3, 4, 5, 7, 8, 9, 10, 11, 12, 13, 14, 15, 16, 17, 18, 19, 20, 21, 22, 23, 24, 25, 26, 27, 28, 29]",300,230,-1,5,94,10,0.0
undo,59,25,0,0,0,23,"[0, 23]",2,23,"[1, 2, 3, 5, 7, 8, 9, 11, 12, 13, 14, 16, 17, 19, 20, 21, 22, 24, 25, 26, 27, 28, 29]",259.7756293,1839,1609,3,33,10,1.0
undo,59,25,0,0,0,19,"[0, 23, 19]",3,21,"[1, 2, 3, 5, 7, 8, 9, 11, 12, 13, 14, 16, 17, 20, 21, 22, 24, 25, 27, 28, 29]",223.9287326,3728,1889,3,24,10,1.583101227007039
undo,59,25,0,0,0,29,"[0, 23, 19, 29]",4,19,"[1, 2, 3, 5, 7, 8, 9, 11, 12, 13, 14, 16, 17, 20, 21, 22, 24, 25, 28]",207.649912,4522,794,3,17,10,1.474631541426484
undo,59,25,0,0,0,22,"[0, 23, 19, 29, 22]",5,18,"[1, 2, 3, 5, 7, 8, 9, 11, 12, 13, 14, 16, 17, 20, 21, 24, 25, 28]",191.5253965,5427,905,3,14,10,1.4020377754906637
undo,59,25,0,0,0,7,"[0, 23, 19, 29, 22, 7]",6,7,"[3, 8, 9, 11, 13, 24, 28]",115.8814939,6422,995,3,11,10,1.5709678649326715
undo,59,25,0,0,0,24,"[0, 23, 19, 29, 22, 7, 24]",7,5,"[3, 8, 9, 13, 28]",91.12265712,7720,1298,3,7,10,1.486191600033379
undo,59,25,0,0,0,9,"[0, 23, 19, 29, 22, 7, 24, 9]",8,4,"[3, 8, 13, 28]",73.09490075,8406,686,3,3,10,1.453504870342882
undo,59,25,0,0,0,3,"[0, 23, 19, 29, 22, 7, 24, 9, 3]",9,3,"[8, 13, 28]",42.82940885,9320,914,3,0,10,1.388955167525479
undo,59,25,0,0,1,28,"[0, 23, 19, 29, 22, 7, 24, 9, 3, 28]",10,0,[],11.52445716,10743,1423,1,0,10,1.3331084120212044
undo,59,25,0,1,1,28,"[0, 23, 19, 29, 22, 7, 24, 9, 3, 28]",10,0,[],11.52445716,11947,1204,1,0,10,1.3331084120212044
undo,60,1,0,0,0,0,[0],1,26,"[1, 2, 4, 5, 7, 8, 9, 10, 11, 12, 13, 14, 15, 16, 17, 18, 19, 20, 21, 22, 23, 24, 25, 26, 28, 29]",300,175,-1,6,74,7,0.0
undo,60,1,0,0,0,24,"[0, 24]",2,8,"[5, 7, 8, 14, 16, 19, 20, 26]",185.4137879,11279,11104,9,13,5,1.0
undo,60,1,0,0,0,26,"[0, 24, 26]",3,6,"[5, 8, 14, 16, 19, 20]",152.1722476,12078,799,7,4,5,1.502125301442057
undo,60,1,0,0,0,19,"[0, 24, 26, 19]",4,4,"[5, 8, 16, 20]",113.5458318,13372,1294,4,0,5,1.5438989781695114
undo,60,1,0,0,1,8,"[0, 24, 26, 19, 8]",5,0,[],60.39510274,15855,2483,1,0,5,2.44494793122449
undo,60,1,0,1,1,8,"[0, 24, 26, 19, 8]",5,0,[],60.39510274,25514,9659,1,0,5,2.44494793122449
undo,61,9,0,0,0,0,[0],1,27,"[1, 3, 4, 5, 6, 7, 8, 9, 10, 11, 13, 14, 15, 16, 17, 18, 19, 20, 21, 22, 23, 24, 25, 26, 27, 28, 29]",300,162,-1,2,182,10,0.0
undo,61,9,0,0,0,25,"[0, 25]",2,24,"[1, 3, 4, 5, 6, 7, 8, 9, 10, 11, 13, 15, 16, 17, 18, 19, 20, 21, 22, 23, 24, 26, 27, 28]",275.9168108,1446,1284,2,104,10,1.0
undo,61,9,0,0,0,10,"[0, 25, 10]",3,20,"[3, 4, 5, 7, 8, 9, 11, 13, 15, 16, 17, 18, 19, 20, 21, 22, 23, 26, 27, 28]",236.0670932,2302,856,2,76,10,1.1767014107208227
undo,61,9,0,0,0,28,"[0, 25, 10, 28]",4,19,"[3, 4, 5, 7, 8, 9, 11, 13, 15, 16, 17, 18, 19, 20, 21, 22, 23, 26, 27]",179.0670932,4742,2440,1,17,10,1.628144700364468
undo,61,9,0,0,0,8,"[0, 25, 10, 28, 8]",5,15,"[3, 4, 7, 9, 11, 16, 17, 18, 19, 20, 21, 22, 23, 26, 27]",168.2504393,5359,617,1,10,10,2.0656593525143574
undo,61,9,0,0,0,23,"[0, 25, 10, 28, 8, 23]",6,12,"[3, 4, 7, 9, 11, 18, 19, 20, 21, 22, 26, 27]",146.7795288,6021,662,1,7,10,2.573408160646792
undo,61,9,0,0,0,9,"[0, 25, 10, 28, 8, 23, 9]",7,9,"[3, 4, 7, 11, 18, 19, 20, 21, 26]",124.418849,6754,733,1,5,10,2.3579094141840375
undo,61,9,0,0,0,26,"[0, 25, 10, 28, 8, 23, 9, 26]",8,3,"[18, 20, 21]",67.77081284,8204,1450,1,2,10,1.9878439811785502
undo,61,9,0,0,0,21,"[0, 25, 10, 28, 8, 23, 9, 26, 21]",9,1,[20],13.86348496,9927,1723,1,0,10,2.4139880801675853
undo,61,9,0,0,1,20,"[0, 25, 10, 28, 8, 23, 9, 26, 21, 20]",10,0,[],1.780438983,10637,710,1,0,10,2.3546911124891037
undo,61,9,0,1,1,20,"[0, 25, 10, 28, 8, 23, 9, 26, 21, 20]",10,0,[],1.780438983,11363,726,1,0,10,2.3546911124891037
undo,62,43,0,0,0,0,[0],1,23,"[1, 2, 3, 4, 5, 6, 7, 9, 10, 11, 12, 14, 15, 16, 17, 19, 20, 21, 22, 23, 25, 27, 29]",300,164,-1,16,556,12,0.0
undo,62,43,0,0,0,29,"[0, 29]",2,22,"[1, 2, 3, 4, 5, 6, 7, 9, 10, 11, 12, 14, 15, 16, 17, 19, 20, 21, 22, 23, 25, 27]",277.909278,1559,1395,16,520,12,1.0
undo,62,43,0,0,0,20,"[0, 29, 20]",3,20,"[1, 2, 3, 4, 6, 7, 9, 10, 11, 12, 14, 15, 16, 17, 19, 21, 22, 23, 25, 27]",254.4785289,2722,1163,15,422,12,1.082311746871282
undo,62,43,0,0,0,16,"[0, 29, 20, 16]",4,19,"[1, 2, 3, 4, 6, 7, 9, 10, 11, 12, 14, 15, 17, 19, 21, 22, 23, 25, 27]",231.8511119,3579,857,15,389,12,1.215201926898219
undo,62,43,0,0,0,11,"[0, 29, 20, 16, 11]",5,17,"[1, 2, 3, 4, 6, 7, 9, 10, 12, 14, 15, 17, 19, 21, 22, 23, 25]",196.7227758,4353,774,12,188,12,1.1349145516483516
undo,62,43,0,0,0,6,"[0, 29, 20, 16, 11, 6]",6,15,"[1, 2, 3, 4, 7, 10, 12, 14, 15, 17, 19, 21, 22, 23, 25]",176.1072477,5686,1333,10,100,12,1.123330873754209
undo,62,43,0,0,0,1,"[0, 29, 20, 16, 11, 6, 1]",7,10,"[2, 3, 4, 7, 12, 14, 15, 19, 22, 25]",127.8371741,6643,957,7,36,12,1.1959789832191803
undo,62,43,0,0,0,19,"[0, 29, 20, 16, 11, 6, 1, 19]",8,8,"[3, 4, 7, 12, 14, 15, 22, 25]",99.65916852,7624,981,4,16,12,1.442084860173939
undo,62,43,0,0,0,22,"[0, 29, 20, 16, 11, 6, 1, 19, 22]",9,6,"[3, 7, 12, 14, 15, 25]",79.04364039,8357,733,3,7,12,1.852594491960324
undo,62,43,0,0,0,3,"[0, 29, 20, 16, 11, 6, 1, 19, 22, 3]",10,3,"[12, 15, 25]",44.33053048,9472,1115,2,2,12,2.295054375959106
undo,62,43,0,0,0,12,"[0, 29, 20, 16, 11, 6, 1, 19, 22, 3, 12]",11,2,"[15, 25]",31.33053048,10923,1451,2,0,12,2.717717859995072
undo,62,43,0,0,1,15,"[0, 29, 20, 16, 11, 6, 1, 19, 22, 3, 12, 15]",12,0,[],12.01732256,12104,1181,1,0,12,3.483095146576392
undo,62,43,0,1,1,15,"[0, 29, 20, 16, 11, 6, 1, 19, 22, 3, 12, 15]",12,0,[],12.01732256,13981,1877,1,0,12,3.483095146576392
undo,63,12,0,0,0,0,[0],1,29,"[1, 2, 3, 4, 5, 6, 7, 8, 9, 10, 11, 12, 13, 14, 15, 16, 17, 18, 19, 20, 21, 22, 23, 24, 25, 26, 27, 28, 29]",300,195,-1,2,32,9,0.0
undo,63,12,0,0,0,25,"[0, 25]",2,16,"[2, 4, 5, 6, 7, 9, 12, 14, 16, 18, 19, 22, 23, 24, 27, 28]",225.7975742,3259,3064,5,34,8,1.0
undo,63,12,0,0,0,22,"[0, 25, 22]",3,11,"[2, 4, 5, 6, 7, 12, 14, 16, 19, 24, 27]",153.5964661,5343,2084,1,10,8,1.6635691148622656
undo,63,12,0,0,0,16,"[0, 25, 22, 16]",4,7,"[4, 6, 12, 14, 19, 24, 27]",132.5964661,5975,632,1,6,8,1.8455145785330662
undo,63,12,0,0,0,4,"[0, 25, 22, 16, 4]",5,5,"[12, 14, 19, 24, 27]",98.39120339,7174,1199,1,4,8,1.6140587576122385
undo,63,12,0,0,0,12,"[0, 25, 22, 16, 4, 12]",6,2,"[14, 27]",56.20115717,8352,1178,1,1,8,1.4755917731057815
undo,63,12,0,0,0,27,"[0, 25, 22, 16, 4, 12, 27]",7,1,[14],31.84956584,9587,1235,1,0,8,1.5677023473114235
undo,63,12,0,0,1,14,"[0, 25, 22, 16, 4, 12, 27, 14]",8,0,[],3.196468279,11353,1766,1,0,8,1.5941060060123788
undo,63,12,0,1,1,14,"[0, 25, 22, 16, 4, 12, 27, 14]",8,0,[],3.196468279,13312,1959,1,0,8,1.5941060060123788
undo,64,7,0,0,0,0,[0],1,29,"[1, 2, 3, 4, 5, 6, 7, 8, 9, 10, 11, 12, 13, 14, 15, 16, 17, 18, 19, 20, 21, 22, 23, 24, 25, 26, 27, 28, 29]",300,181,-1,3,79,9,0.0
undo,64,7,0,0,0,15,"[0, 15]",2,19,"[2, 4, 5, 6, 7, 8, 9, 10, 13, 14, 16, 18, 19, 20, 21, 23, 25, 27, 28]",230.9348134,4337,4156,2,38,9,1.0
undo,64,7,0,0,0,6,"[0, 15, 6]",3,18,"[2, 4, 5, 7, 8, 9, 10, 13, 14, 16, 18, 19, 20, 21, 23, 25, 27, 28]",205.854941,7039,2702,2,36,9,1.366719602896943
undo,64,7,0,0,0,25,"[0, 15, 6, 25]",4,11,"[2, 4, 7, 13, 14, 16, 18, 19, 20, 21, 23]",138.6760753,8243,1204,2,28,9,1.3624631728355765
undo,64,7,0,0,0,18,"[0, 15, 6, 25, 18]",5,7,"[2, 4, 7, 13, 16, 19, 20]",110.3564708,9118,875,8,8,8,1.3245924777426679
undo,64,7,0,0,0,4,"[0, 15, 6, 25, 18, 4]",6,3,"[7, 13, 20]",82.89741032,10271,1153,1,2,8,1.546007329729784
undo,64,7,0,0,0,20,"[0, 15, 6, 25, 18, 4, 20]",7,1,[7],63.25052761,11547,1276,1,0,8,1.5792425309228575
undo,64,7,0,0,1,7,"[0, 15, 6, 25, 18, 4, 20, 7]",8,0,[],22.75361415,12536,989,1,0,8,1.5155280891354532
undo,64,7,0,1,1,7,"[0, 15, 6, 25, 18, 4, 20, 7]",8,0,[],22.75361415,14047,1511,1,0,8,1.5155280891354532
undo,65,38,0,0,0,0,[0],1,29,"[1, 2, 3, 4, 5, 6, 7, 8, 9, 10, 11, 12, 13, 14, 15, 16, 17, 18, 19, 20, 21, 22, 23, 24, 25, 26, 27, 28, 29]",300,296,-1,33,506,9,0.0
undo,65,38,0,0,0,19,"[0, 19]",2,23,"[3, 4, 5, 6, 7, 8, 9, 11, 13, 14, 15, 16, 17, 18, 20, 22, 23, 24, 25, 26, 27, 28, 29]",219.5015528,6792,6496,6,61,9,1.0
undo,65,38,0,0,0,17,"[0, 19, 17]",3,21,"[3, 4, 5, 6, 7, 9, 11, 13, 14, 15, 16, 18, 20, 22, 23, 24, 25, 26, 27, 28, 29]",198.1239945,8745,1953,6,53,9,1.571793785769489
undo,65,38,0,0,0,20,"[0, 19, 17, 20]",4,17,"[3, 4, 5, 6, 7, 11, 13, 14, 15, 16, 18, 22, 24, 25, 26, 27, 28]",174.3542658,10061,1316,6,44,9,2.333182710277297
undo,65,38,0,0,0,4,"[0, 19, 17, 20, 4]",5,10,"[5, 11, 13, 14, 15, 16, 24, 26, 27, 28]",140.4131403,11091,1030,5,22,9,2.276099229646013
undo,65,38,0,0,0,15,"[0, 19, 17, 20, 4, 15]",6,8,"[5, 11, 13, 14, 16, 24, 26, 28]",114.4131403,11825,734,5,6,9,2.5292671156176403
undo,65,38,0,0,0,11,"[0, 19, 17, 20, 4, 15, 11]",7,2,"[16, 28]",78.01259089,13328,1503,2,0,9,2.778100109749787
undo,65,38,0,0,0,28,"[0, 19, 17, 20, 4, 15, 11, 28]",8,1,[16],50.99407872,14962,1634,1,0,9,2.3316428595723258
undo,65,38,0,0,1,16,"[0, 19, 17, 20, 4, 15, 11, 28, 16]",9,0,[],21.99407872,18472,3510,1,0,9,2.5408012360364265
undo,65,38,0,1,1,16,"[0, 19, 17, 20, 4, 15, 11, 28, 16]",9,0,[],21.99407872,19831,1359,1,0,9,2.5408012360364265
undo,66,35,0,0,0,0,[0],1,29,"[1, 2, 3, 4, 5, 6, 7, 8, 9, 10, 11, 12, 13, 14, 15, 16, 17, 18, 19, 20, 21, 22, 23, 24, 25, 26, 27, 28, 29]",300,179,-1,5,236,11,0.0
undo,66,35,0,0,0,24,"[0, 24]",2,27,"[1, 2, 4, 5, 6, 7, 8, 9, 10, 11, 12, 13, 14, 15, 16, 17, 18, 19, 20, 21, 22, 23, 25, 26, 27, 28, 29]",268.9838752,3377,3198,49,512,10,1.0
undo,66,35,0,0,0,17,"[0, 24, 17]",3,26,"[1, 2, 4, 5, 6, 7, 8, 9, 10, 11, 12, 13, 14, 15, 16, 18, 19, 20, 21, 22, 23, 25, 26, 27, 28, 29]",257.2791753,6913,3536,33,238,10,1.0771477201815276
undo,66,35,0,0,0,1,"[0, 24, 17, 1]",4,25,"[2, 4, 5, 6, 7, 8, 9, 10, 11, 12, 13, 14, 15, 16, 18, 19, 20, 21, 22, 23, 25, 26, 27, 28, 29]",241.4677869,9275,2362,26,151,10,1.2244804141479215
undo,66,35,0,0,0,15,"[0, 24, 17, 1, 15]",5,23,"[2, 4, 5, 6, 7, 8, 9, 10, 11, 12, 14, 16, 18, 19, 20, 21, 22, 23, 25, 26, 27, 28, 29]",218.6204676,10406,1131,26,78,10,1.4642196672428094
undo,66,35,0,0,0,23,"[0, 24, 17, 1, 15, 23]",6,11,"[4, 5, 6, 9, 18, 19, 25, 26, 27, 28, 29]",158.1804147,11555,1149,15,12,10,1.3338903684702363
undo,66,35,0,0,0,6,"[0, 24, 17, 1, 15, 23, 6]",7,4,"[5, 9, 18, 25]",112.5295658,13028,1473,4,2,10,1.2397059724630664
undo,66,35,0,0,0,25,"[0, 24, 17, 1, 15, 23, 6, 25]",8,2,"[9, 18]",88.50874155,13725,697,2,0,10,1.305974427386027
undo,66,35,0,0,0,18,"[0, 24, 17, 1, 15, 23, 6, 25, 18]",9,1,[9],54.67089291,14764,1039,1,0,10,1.9072277988119046
undo,66,35,0,0,1,9,"[0, 24, 17, 1, 15, 23, 6, 25, 18, 9]",10,0,[],34.64590852,15389,625,1,0,10,2.3604988633102257
undo,66,35,0,1,1,9,"[0, 24, 17, 1, 15, 23, 6, 25, 18, 9]",10,0,[],34.64590852,16198,809,1,0,10,2.3604988633102257
undo,67,13,0,0,0,0,[0],1,29,"[1, 2, 3, 4, 5, 6, 7, 8, 9, 10, 11, 12, 13, 14, 15, 16, 17, 18, 19, 20, 21, 22, 23, 24, 25, 26, 27, 28, 29]",300,214,-1,60,2676,11,0.0
undo,67,13,0,0,0,24,"[0, 24]",2,28,"[1, 2, 3, 4, 5, 6, 7, 8, 9, 10, 11, 12, 13, 14, 15, 16, 17, 18, 19, 20, 21, 22, 23, 25, 26, 27, 28, 29]",288.8196601,2244,2030,16,1444,11,1.0
undo,67,13,0,0,0,28,"[0, 24, 28]",3,23,"[1, 2, 3, 4, 6, 7, 8, 9, 10, 11, 12, 13, 15, 16, 17, 19, 20, 21, 22, 23, 26, 27, 29]",222.5324064,3325,1081,8,243,11,1.0513810491680837
undo,67,13,0,0,0,2,"[0, 24, 28, 2]",4,19,"[1, 3, 4, 6, 7, 9, 11, 12, 13, 15, 16, 17, 19, 20, 21, 23, 26, 27, 29]",184.889346,5678,2353,7,110,11,1.050374132001543
undo,67,13,0,0,0,29,"[0, 24, 28, 2, 29]",5,18,"[1, 3, 4, 6, 7, 9, 11, 12, 13, 15, 16, 17, 19, 20, 21, 23, 26, 27]",173.1846461,6607,929,7,85,11,1.1393409619120594
undo,67,13,0,0,0,26,"[0, 24, 28, 2, 29, 26]",6,17,"[1, 3, 4, 6, 7, 9, 11, 12, 13, 15, 16, 17, 19, 20, 21, 23, 27]",149.6474415,7421,814,2,27,11,1.5715532155090624
undo,67,13,0,0,0,7,"[0, 24, 28, 2, 29, 26, 7]",7,15,"[1, 3, 6, 9, 11, 12, 13, 15, 16, 17, 19, 20, 21, 23, 27]",139.207135,8272,851,2,17,11,1.5275551309988176
undo,67,13,0,0,0,6,"[0, 24, 28, 2, 29, 26, 7, 6]",8,10,"[1, 3, 11, 13, 15, 16, 17, 19, 23, 27]",118.3984829,9878,1606,2,9,11,1.672557235670194
undo,67,13,0,0,0,11,"[0, 24, 28, 2, 29, 26, 7, 6, 11]",9,5,"[13, 15, 16, 17, 23]",99.29350975,11089,1211,2,4,11,1.5734065316516999
undo,67,13,0,0,0,13,"[0, 24, 28, 2, 29, 26, 7, 6, 11, 13]",10,2,"[15, 17]",43.21321018,12622,1533,2,0,11,1.4150878659571875
undo,67,13,0,0,1,17,"[0, 24, 28, 2, 29, 26, 7, 6, 11, 13, 17]",11,0,[],9.836571646,13695,1073,1,0,11,1.4601000347117408
undo,67,13,0,1,1,17,"[0, 24, 28, 2, 29, 26, 7, 6, 11, 13, 17]",11,0,[],9.836571646,14497,802,1,0,11,1.4601000347117408
undo,68,24,0,0,0,0,[0],1,29,"[1, 2, 3, 4, 5, 6, 7, 8, 9, 10, 11, 12, 13, 14, 15, 16, 17, 18, 19, 20, 21, 22, 23, 24, 25, 26, 27, 28, 29]",300,203,-1,4,76,10,0.0
undo,68,24,0,0,0,16,"[0, 16]",2,28,"[1, 2, 3, 4, 5, 6, 7, 8, 9, 10, 11, 12, 13, 14, 15, 17, 18, 19, 20, 21, 22, 23, 24, 25, 26, 27, 28, 29]",210.3562607,2345,2142,13,110,9,1.0
undo,68,24,0,0,0,8,"[0, 16, 8]",3,22,"[1, 2, 3, 4, 6, 9, 10, 11, 13, 14, 15, 17, 20, 21, 22, 23, 24, 25, 26, 27, 28, 29]",181.3562607,3042,697,3,31,9,1.0774669368510212
undo,68,24,0,0,0,22,"[0, 16, 8, 22]",4,18,"[2, 3, 4, 6, 9, 10, 11, 13, 14, 15, 17, 23, 24, 25, 26, 27, 28, 29]",167.9398528,4904,1862,3,23,9,1.2531772310046492
undo,68,24,0,0,0,15,"[0, 16, 8, 22, 15]",5,16,"[3, 4, 6, 9, 10, 11, 13, 14, 17, 23, 24, 25, 26, 27, 28, 29]",146.7266494,6071,1167,3,16,9,1.2813329946092564
undo,68,24,0,0,0,28,"[0, 16, 8, 22, 15, 28]",6,8,"[3, 4, 9, 11, 13, 23, 26, 27]",101.4497237,7224,1153,3,5,9,1.2060847818642253
undo,68,24,0,0,0,23,"[0, 16, 8, 22, 15, 28, 23]",7,3,"[9, 11, 27]",82.42342609,8495,1271,3,1,9,1.2349355190066822
undo,68,24,0,0,1,9,"[0, 16, 8, 22, 15, 28, 23, 9]",8,0,[],29.08488468,10571,2076,1,0,8,1.2762838719291218
undo,68,24,0,1,1,9,"[0, 16, 8, 22, 15, 28, 23, 9]",8,0,[],29.08488468,13180,2609,1,0,8,1.2762838719291218
basic,69,13,0,0,0,0,[0],1,29,"[1, 2, 3, 4, 5, 6, 7, 8, 9, 10, 11, 12, 13, 14, 15, 16, 17, 18, 19, 20, 21, 22, 23, 24, 25, 26, 27, 28, 29]",300,206,-1,60,2676,11,0.0
basic,69,13,0,0,0,24,"[0, 24]",2,28,"[1, 2, 3, 4, 5, 6, 7, 8, 9, 10, 11, 12, 13, 14, 15, 16, 17, 18, 19, 20, 21, 22, 23, 25, 26, 27, 28, 29]",288.8196601,1890,1684,16,1444,11,1.0
basic,69,13,0,0,0,28,"[0, 24, 28]",3,23,"[1, 2, 3, 4, 6, 7, 8, 9, 10, 11, 12, 13, 15, 16, 17, 19, 20, 21, 22, 23, 26, 27, 29]",222.5324064,2827,937,8,243,11,1.0513810491680837
basic,69,13,0,0,0,2,"[0, 24, 28, 2]",4,19,"[1, 3, 4, 6, 7, 9, 11, 12, 13, 15, 16, 17, 19, 20, 21, 23, 26, 27, 29]",184.889346,3676,849,7,110,11,1.050374132001543
basic,69,13,0,0,0,29,"[0, 24, 28, 2, 29]",5,18,"[1, 3, 4, 6, 7, 9, 11, 12, 13, 15, 16, 17, 19, 20, 21, 23, 26, 27]",173.1846461,4454,778,7,85,11,1.1393409619120594
basic,69,13,0,0,0,7,"[0, 24, 28, 2, 29, 7]",6,17,"[1, 3, 4, 6, 9, 11, 12, 13, 15, 16, 17, 19, 20, 21, 23, 26, 27]",157.9203086,5257,803,5,45,11,1.349777315111579
basic,69,13,0,0,0,26,"[0, 24, 28, 2, 29, 7, 26]",7,16,"[1, 3, 4, 6, 9, 11, 12, 13, 15, 16, 17, 19, 20, 21, 23, 27]",147.480002,14092,8835,5,25,11,1.5942082773824946
basic,69,13,0,0,0,6,"[0, 24, 28, 2, 29, 7, 26, 6]",8,12,"[1, 3, 4, 11, 13, 15, 16, 17, 19, 20, 23, 27]",127.3802508,15711,1619,4,12,11,1.5898347940840756
basic,69,13,0,0,0,23,"[0, 24, 28, 2, 29, 7, 26, 6, 23]",9,2,"[3, 16]",63.87434556,16823,1112,2,0,10,4.178070065141234
basic,69,13,0,0,1,16,"[0, 24, 28, 2, 29, 7, 26, 6, 23, 16]",10,0,[],23.56305682,18206,1383,1,0,10,3.003153139653058
basic,69,13,0,1,1,16,"[0, 24, 28, 2, 29, 7, 26, 6, 23, 16]",10,0,[],23.56305682,19248,1042,1,0,10,3.003153139653058
basic,70,17,0,0,0,0,[0],1,28,"[1, 2, 3, 4, 5, 6, 7, 8, 9, 10, 11, 12, 13, 14, 15, 16, 17, 18, 19, 20, 22, 23, 24, 25, 26, 27, 28, 29]",300,180,-1,2,73,8,0.0
basic,70,17,0,0,0,19,"[0, 19]",2,9,"[3, 4, 5, 10, 11, 18, 20, 22, 28]",138.1049723,3763,3583,1,8,6,1.0
basic,70,17,0,0,0,22,"[0, 19, 22]",3,2,"[5, 28]",85.49318653,5735,1972,2,0,4,1.0002084079157765
basic,70,17,0,0,1,5,"[0, 19, 22, 5]",4,0,[],33.87923493,7343,1608,1,0,4,1.4815154967652502
basic,70,17,0,1,1,5,"[0, 19, 22, 5]",4,0,[],33.87923493,8480,1137,1,0,4,1.4815154967652502
basic,71,39,0,0,0,0,[0],1,28,"[1, 2, 3, 4, 5, 6, 7, 9, 10, 11, 12, 13, 14, 15, 16, 17, 18, 19, 20, 21, 22, 23, 24, 25, 26, 27, 28, 29]",300,165,-1,1,30,10,0.0
basic,71,39,0,0,0,29,"[0, 29]",2,26,"[1, 2, 3, 4, 5, 6, 7, 9, 10, 12, 13, 14, 15, 16, 17, 18, 19, 20, 21, 22, 23, 24, 25, 26, 27, 28]",243.0614366,1820,1655,8,104,9,1.0
basic,71,39,0,0,0,12,"[0, 29, 12]",3,18,"[1, 2, 4, 5, 7, 9, 10, 13, 14, 15, 16, 18, 19, 22, 23, 24, 26, 28]",182.5221931,2805,985,5,54,9,1.0026200331524904
basic,71,39,0,0,0,10,"[0, 29, 12, 10]",4,16,"[1, 2, 4, 5, 7, 9, 13, 14, 15, 16, 18, 19, 22, 23, 24, 26]",147.0116313,4059,1254,5,34,9,1.2874817019928908
basic,71,39,0,0,0,7,"[0, 29, 12, 10, 7]",5,10,"[1, 2, 5, 13, 16, 18, 19, 22, 24, 26]",113.5900814,5488,1429,4,12,9,1.2250826263866774
basic,71,39,0,0,0,26,"[0, 29, 12, 10, 7, 26]",6,5,"[1, 16, 18, 19, 22]",94.90853971,6514,1026,3,4,9,1.2697275353190085
basic,71,39,0,0,0,22,"[0, 29, 12, 10, 7, 26, 22]",7,2,"[16, 19]",77.18849457,7472,958,2,0,9,1.438961743955176
basic,71,39,0,0,0,16,"[0, 29, 12, 10, 7, 26, 22, 16]",8,1,[19],42.18849457,8990,1518,1,0,9,1.3580882130477205
basic,71,39,0,0,1,19,"[0, 29, 12, 10, 7, 26, 22, 16, 19]",9,0,[],24.72424537,10056,1066,1,0,9,1.3646589157842668
basic,71,39,0,1,1,19,"[0, 29, 12, 10, 7, 26, 22, 16, 19]",9,0,[],24.72424537,10815,759,1,0,9,1.3646589157842668
basic,72,18,0,0,0,0,[0],1,28,"[1, 2, 3, 4, 5, 6, 7, 8, 9, 10, 11, 12, 13, 14, 16, 17, 18, 19, 20, 21, 22, 23, 24, 25, 26, 27, 28, 29]",300,279,-1,3,136,10,0.0
basic,72,18,0,0,0,28,"[0, 28]",2,16,"[1, 3, 5, 7, 8, 9, 12, 13, 14, 16, 20, 23, 24, 25, 26, 27]",236.4311397,2657,2378,2,19,10,1.0
basic,72,18,0,0,0,7,"[0, 28, 7]",3,15,"[1, 3, 5, 8, 9, 12, 13, 14, 16, 20, 23, 24, 25, 26, 27]",214.4084242,3453,796,2,17,10,1.4345180696367563
basic,72,18,0,0,0,25,"[0, 28, 7, 25]",4,13,"[1, 3, 5, 8, 9, 12, 13, 14, 16, 20, 23, 26, 27]",186.6055466,4587,1134,2,15,10,1.8896451241781882
basic,72,18,0,0,0,8,"[0, 28, 7, 25, 8]",5,10,"[3, 5, 9, 12, 13, 14, 16, 23, 26, 27]",149.551532,5722,1135,2,10,10,1.590467437592877
basic,72,18,0,0,0,3,"[0, 28, 7, 25, 8, 3]",6,6,"[5, 12, 13, 14, 23, 27]",121.4801943,7073,1351,1,10,9,1.4587755974793148
basic,72,18,0,0,0,5,"[0, 28, 7, 25, 8, 3, 5]",7,2,"[12, 27]",63.29944145,8977,1904,1,1,9,1.324334937860345
basic,72,18,0,0,0,12,"[0, 28, 7, 25, 8, 3, 5, 12]",8,1,[27],51.8976872,11576,2599,1,0,9,1.3371922112868397
basic,72,18,0,0,1,27,"[0, 28, 7, 25, 8, 3, 5, 12, 27]",9,0,[],11.17914106,12620,1044,1,0,9,1.4648883530615529
basic,72,18,0,1,1,27,"[0, 28, 7, 25, 8, 3, 5, 12, 27]",9,0,[],11.17914106,13613,993,1,0,9,1.4648883530615529
basic,73,15,0,0,0,0,[0],1,25,"[1, 2, 3, 4, 7, 8, 9, 10, 11, 12, 13, 14, 15, 16, 18, 20, 21, 22, 23, 24, 25, 26, 27, 28, 29]",300,297,-1,4,65,9,0.0
basic,73,15,0,0,0,21,"[0, 21]",2,17,"[1, 3, 4, 7, 8, 9, 11, 12, 13, 14, 15, 16, 22, 23, 24, 26, 27]",204.9158268,2056,1759,21,65,7,1.0
basic,73,15,0,0,0,12,"[0, 21, 12]",3,14,"[1, 3, 4, 7, 8, 9, 11, 13, 14, 15, 16, 22, 24, 27]",161.0866128,3338,1282,20,39,7,1.6068212046294776
basic,73,15,0,0,0,7,"[0, 21, 12, 7]",4,10,"[3, 4, 9, 11, 13, 14, 15, 16, 22, 27]",127.8450725,6143,2805,13,11,7,2.0298522511797907
basic,73,15,0,0,0,11,"[0, 21, 12, 7, 11]",5,6,"[3, 4, 14, 15, 16, 22]",86.36013546,7493,1350,6,4,7,1.7205538639328775
basic,73,15,0,0,0,3,"[0, 21, 12, 7, 11, 3]",6,4,"[14, 15, 16, 22]",74.95838121,8212,719,4,0,7,1.6999894293819835
basic,73,15,0,0,1,16,"[0, 21, 12, 7, 11, 3, 16]",7,0,[],49.8785088,9103,891,1,0,7,2.1909315613297298
basic,73,15,0,1,1,16,"[0, 21, 12, 7, 11, 3, 16]",7,0,[],49.8785088,10131,1028,1,0,7,2.1909315613297298
basic,74,3,0,0,0,0,[0],1,29,"[1, 2, 3, 4, 5, 6, 7, 8, 9, 10, 11, 12, 13, 14, 15, 16, 17, 18, 19, 20, 21, 22, 23, 24, 25, 26, 27, 28, 29]",300,299,-1,34,427,10,0.0
basic,74,3,0,0,0,17,"[0, 17]",2,16,"[3, 4, 7, 8, 10, 12, 14, 15, 16, 19, 20, 21, 22, 24, 26, 27]",197.6965299,2482,2183,2,27,9,1.0
basic,74,3,0,0,0,20,"[0, 17, 20]",3,13,"[3, 4, 7, 8, 10, 14, 15, 16, 19, 21, 22, 24, 27]",185.0474192,3608,1126,2,24,9,1.0153332121237257
basic,74,3,0,0,0,3,"[0, 17, 20, 3]",4,10,"[4, 7, 8, 10, 14, 15, 16, 19, 21, 24]",164.6513412,4376,768,2,22,9,1.0819240770773468
basic,74,3,0,0,0,19,"[0, 17, 20, 3, 19]",5,6,"[4, 8, 10, 14, 21, 24]",127.3150318,5123,747,2,11,9,1.1701070532957258
basic,74,3,0,0,0,21,"[0, 17, 20, 3, 19, 21]",6,5,"[4, 8, 10, 14, 24]",115.1084762,5974,851,2,6,9,1.202395500952127
basic,74,3,0,0,0,14,"[0, 17, 20, 3, 19, 21, 14]",7,4,"[4, 8, 10, 24]",88.20122806,7695,1721,2,2,9,1.6456130302761207
basic,74,3,0,0,0,24,"[0, 17, 20, 3, 19, 21, 14, 24]",8,1,[8],17.08864127,9475,1780,1,0,9,4.806859660680286
basic,74,3,0,0,1,8,"[0, 17, 20, 3, 19, 21, 14, 24, 8]",9,0,[],4.923116212,12161,2686,1,0,9,4.915218144486606
basic,74,3,0,1,1,8,"[0, 17, 20, 3, 19, 21, 14, 24, 8]",9,0,[],4.923116212,13999,1838,1,0,9,4.915218144486606
basic,75,33,0,0,0,0,[0],1,23,"[1, 2, 5, 7, 8, 11, 12, 13, 14, 15, 16, 17, 18, 19, 20, 21, 23, 24, 25, 26, 27, 28, 29]",300,165,-1,5,108,9,0.0
basic,75,33,0,0,0,8,"[0, 8]",2,22,"[1, 2, 5, 7, 11, 12, 13, 14, 15, 16, 17, 18, 19, 20, 21, 23, 24, 25, 26, 27, 28, 29]",265.8679037,14845,14680,5,87,9,1.0
basic,75,33,0,0,0,21,"[0, 8, 21]",3,16,"[2, 5, 7, 11, 13, 14, 16, 17, 18, 19, 20, 24, 26, 27, 28, 29]",166.0430571,16573,1728,5,80,9,1.0670557763739492
basic,75,33,0,0,0,17,"[0, 8, 21, 17]",4,11,"[2, 7, 11, 13, 14, 16, 19, 20, 24, 26, 29]",127.4036989,21940,5367,1,18,9,1.0830294710276618
basic,75,33,0,0,0,13,"[0, 8, 21, 17, 13]",5,10,"[2, 7, 11, 14, 16, 19, 20, 24, 26, 29]",104.6001904,23489,1549,1,10,9,1.2861654105061844
basic,75,33,0,0,0,19,"[0, 8, 21, 17, 13, 19]",6,6,"[7, 14, 16, 24, 26, 29]",79.10509282,24642,1153,1,6,9,1.3181942666818214
basic,75,33,0,0,0,24,"[0, 8, 21, 17, 13, 19, 24]",7,1,[7],37.05750074,25938,1296,1,0,8,1.2914654832859356
basic,75,33,0,0,1,7,"[0, 8, 21, 17, 13, 19, 24, 7]",8,0,[],7.851337003,27395,1457,1,0,8,1.370940443464748
basic,75,33,0,1,1,7,"[0, 8, 21, 17, 13, 19, 24, 7]",8,0,[],7.851337003,30382,2987,1,0,8,1.370940443464748
basic,76,21,0,0,0,0,[0],1,29,"[1, 2, 3, 4, 5, 6, 7, 8, 9, 10, 11, 12, 13, 14, 15, 16, 17, 18, 19, 20, 21, 22, 23, 24, 25, 26, 27, 28, 29]",300,197,-1,84,830,9,0.0
basic,76,21,0,0,0,20,"[0, 20]",2,28,"[1, 2, 3, 4, 5, 6, 7, 8, 9, 10, 11, 12, 13, 14, 15, 16, 17, 18, 19, 21, 22, 23, 24, 25, 26, 27, 28, 29]",217.6228187,15922,15725,6,67,9,1.0
basic,76,21,0,0,0,22,"[0, 20, 22]",3,23,"[2, 4, 6, 7, 8, 9, 10, 11, 12, 13, 14, 15, 16, 17, 18, 19, 21, 23, 24, 25, 26, 27, 29]",189.3916303,17198,1276,6,47,9,1.3451865712078994
basic,76,21,0,0,0,18,"[0, 20, 22, 18]",4,20,"[2, 4, 6, 7, 8, 9, 10, 11, 12, 14, 15, 16, 17, 21, 23, 24, 25, 26, 27, 29]",162.9908727,19574,2376,4,25,9,2.3191924394507706
basic,76,21,0,0,0,29,"[0, 20, 22, 18, 29]",5,16,"[2, 4, 6, 7, 8, 10, 12, 14, 15, 16, 17, 21, 23, 24, 25, 27]",134.3377751,20906,1332,2,10,9,1.9554738681863184
basic,76,21,0,0,0,25,"[0, 20, 22, 18, 29, 25]",6,5,"[4, 14, 17, 21, 23]",89.11609892,23895,2989,2,5,9,3.5255206171255487
basic,76,21,0,0,0,23,"[0, 20, 22, 18, 29, 25, 23]",7,3,"[4, 14, 21]",45.79174087,25124,1229,1,2,9,2.5672363743380044
basic,76,21,0,0,1,21,"[0, 20, 22, 18, 29, 25, 23, 21]",8,0,[],16.17755508,26597,1473,1,0,8,3.1574832580391976
basic,76,21,0,1,1,21,"[0, 20, 22, 18, 29, 25, 23, 21]",8,0,[],16.17755508,27398,801,1,0,8,3.1574832580391976
basic,77,10,0,0,0,0,[0],1,29,"[1, 2, 3, 4, 5, 6, 7, 8, 9, 10, 11, 12, 13, 14, 15, 16, 17, 18, 19, 20, 21, 22, 23, 24, 25, 26, 27, 28, 29]",300,185,-1,1,100,9,0.0
basic,77,10,0,0,0,13,"[0, 13]",2,25,"[1, 2, 3, 4, 6, 7, 8, 9, 10, 11, 12, 14, 17, 18, 19, 20, 21, 22, 23, 24, 25, 26, 27, 28, 29]",249.4628849,1606,1421,1,79,9,1.0
basic,77,10,0,0,0,11,"[0, 13, 11]",3,20,"[1, 2, 3, 6, 7, 8, 9, 10, 12, 14, 18, 19, 20, 21, 22, 24, 26, 27, 28, 29]",206.4512586,2606,1000,1,54,9,1.0313137484914219
basic,77,10,0,0,0,19,"[0, 13, 11, 19]",4,11,"[2, 6, 8, 9, 10, 14, 18, 20, 24, 26, 27]",170.0919407,4089,1483,1,22,9,1.0879446220132545
basic,77,10,0,0,0,2,"[0, 13, 11, 19, 2]",5,4,"[14, 20, 26, 27]",126.1829439,5605,1516,1,4,9,1.06474052351343
basic,77,10,0,0,0,14,"[0, 13, 11, 19, 2, 14]",6,3,"[20, 26, 27]",114.0174188,7214,1609,1,3,9,1.1628909195912238
basic,77,10,0,0,0,26,"[0, 13, 11, 19, 2, 14, 26]",7,2,"[20, 27]",79.34754716,8942,1728,1,1,9,1.6660727647633602
basic,77,10,0,0,0,20,"[0, 13, 11, 19, 2, 14, 26, 20]",8,1,[27],47.56704999,10512,1570,1,0,9,2.085581809637999
basic,77,10,0,0,1,27,"[0, 13, 11, 19, 2, 14, 26, 20, 27]",9,0,[],2.312215998,12739,2227,1,0,9,1.9116357409137932
basic,77,10,0,1,1,27,"[0, 13, 11, 19, 2, 14, 26, 20, 27]",9,0,[],2.312215998,13615,876,1,0,9,1.9116357409137932
basic,78,25,0,0,0,0,[0],1,28,"[1, 2, 3, 4, 5, 7, 8, 9, 10, 11, 12, 13, 14, 15, 16, 17, 18, 19, 20, 21, 22, 23, 24, 25, 26, 27, 28, 29]",300,280,-1,5,94,10,0.0
basic,78,25,0,0,0,1,"[0, 1]",2,22,"[2, 3, 5, 7, 8, 9, 11, 12, 13, 14, 16, 17, 18, 19, 20, 21, 22, 23, 24, 25, 28, 29]",268.9516506,2719,2439,16,145,9,1.0
basic,78,25,0,0,0,23,"[0, 1, 23]",3,16,"[3, 5, 7, 8, 9, 11, 12, 13, 17, 19, 20, 21, 22, 24, 28, 29]",201.9441883,4328,1609,2,17,9,2.4377214593885763
basic,78,25,0,0,0,19,"[0, 1, 23, 19]",4,13,"[3, 5, 7, 9, 11, 12, 13, 17, 20, 21, 22, 24, 29]",166.0972917,5453,1125,2,9,9,2.7866177211778074
basic,78,25,0,0,0,29,"[0, 1, 23, 19, 29]",5,11,"[3, 5, 7, 9, 11, 12, 17, 20, 21, 22, 24]",149.8184711,6723,1270,2,5,9,2.398074806984407
