condition,trial_id,map_id,undoIndicator,submit,checkEnd,currentChoice,chosen_all,n_city_all,n_within_reach,cities_reach,currentBudget,time_all,rt_all,n_opt_paths_all,n_subopt_paths_all,mas_all,tortuosity_all
undo,0,8,0,0,0,0,[0],1,29,"[1, 2, 3, 4, 5, 6, 7, 8, 9, 10, 11, 12, 13, 14, 15, 16, 17, 18, 19, 20, 21, 22, 23, 24, 25, 26, 27, 28, 29]",300,158,-1,10,149,9,0.0
undo,0,8,0,0,0,5,"[0, 5]",2,28,"[1, 2, 3, 4, 6, 7, 8, 9, 10, 11, 12, 13, 14, 15, 16, 17, 18, 19, 20, 21, 22, 23, 24, 25, 26, 27, 28, 29]",254.5137383,5594,5436,10,100,9,1.0
undo,0,8,0,0,0,25,"[0, 5, 25]",3,20,"[1, 2, 3, 4, 6, 11, 12, 14, 15, 16, 17, 18, 19, 20, 21, 22, 23, 24, 28, 29]",215.3091468,6978,1384,4,42,9,1.2272747879909065
undo,0,8,0,0,0,1,"[0, 5, 25, 1]",4,17,"[3, 4, 6, 11, 12, 14, 15, 16, 17, 18, 20, 21, 22, 23, 24, 28, 29]",190.3091468,8108,1130,3,24,9,1.1770245007593956
undo,0,8,0,0,0,23,"[0, 5, 25, 1, 23]",5,15,"[3, 4, 6, 11, 14, 15, 16, 17, 18, 20, 21, 22, 24, 28, 29]",167.2874179,9269,1161,1,14,9,1.141996583852372
undo,0,8,0,0,0,18,"[0, 5, 25, 1, 23, 18]",6,9,"[3, 4, 11, 14, 15, 16, 17, 24, 28]",125.5261919,10105,836,1,7,9,1.3199166330970717
undo,0,8,0,0,0,14,"[0, 5, 25, 1, 23, 18, 14]",7,2,"[11, 17]",68.03706246,12255,2150,1,1,9,2.714920831666598
undo,0,8,0,0,0,17,"[0, 5, 25, 1, 23, 18, 14, 17]",8,1,[11],31.02355141,13135,880,1,0,9,2.462600896722246
undo,0,8,0,0,1,11,"[0, 5, 25, 1, 23, 18, 14, 17, 11]",9,0,[],5.84419479,13888,753,1,0,9,2.246839316887767
undo,0,8,0,1,1,11,"[0, 5, 25, 1, 23, 18, 14, 17, 11]",9,0,[],5.84419479,14363,475,1,0,9,2.246839316887767
undo,1,34,0,0,0,0,[0],1,25,"[1, 3, 4, 5, 6, 7, 8, 9, 10, 11, 12, 13, 15, 18, 19, 20, 21, 22, 23, 24, 25, 26, 27, 28, 29]",300,162,-1,12,367,10,0.0
undo,1,34,0,0,0,13,"[0, 13]",2,24,"[1, 3, 4, 5, 6, 7, 8, 9, 10, 11, 12, 15, 18, 19, 20, 21, 22, 23, 24, 25, 26, 27, 28, 29]",279.9750156,4837,4675,12,331,10,1.0
undo,1,34,0,0,0,1,"[0, 13, 1]",3,16,"[3, 5, 7, 8, 9, 10, 11, 12, 19, 21, 22, 23, 24, 25, 27, 29]",211.8574701,5888,1051,3,92,10,1.0010381285747127
undo,1,34,0,0,0,8,"[0, 13, 1, 8]",4,14,"[3, 5, 7, 9, 10, 11, 12, 19, 22, 23, 24, 25, 27, 29]",201.0871405,6388,500,2,54,10,1.1636807
undo,1,34,0,0,0,25,"[0, 13, 1, 8, 25]",5,12,"[3, 5, 7, 9, 10, 11, 12, 22, 23, 24, 27, 29]",183.999133,7157,769,2,28,10,1.1396208815936457
undo,1,34,0,0,0,24,"[0, 13, 1, 8, 25, 24]",6,11,"[3, 5, 7, 9, 10, 11, 12, 22, 23, 27, 29]",166.5062774,7671,514,2,23,10,1.374180768736554
undo,1,34,0,0,0,12,"[0, 13, 1, 8, 25, 24, 12]",7,7,"[7, 9, 10, 11, 22, 23, 27]",115.4670767,8920,1249,1,8,10,1.4994254760835948
undo,1,34,0,0,0,7,"[0, 13, 1, 8, 25, 24, 12, 7]",8,5,"[9, 11, 22, 23, 27]",100.4337804,9419,499,1,4,10,1.758992610425009
undo,1,34,0,0,0,23,"[0, 13, 1, 8, 25, 24, 12, 7, 23]",9,1,[27],72.27352467,10469,1050,1,0,10,2.399781305190153
undo,1,34,0,0,1,27,"[0, 13, 1, 8, 25, 24, 12, 7, 23, 27]",10,0,[],18.60789321,12002,1533,1,0,10,4.766619878750327
undo,1,34,0,1,1,27,"[0, 13, 1, 8, 25, 24, 12, 7, 23, 27]",10,0,[],18.60789321,12578,576,1,0,10,4.766619878750327
undo,2,23,0,0,0,0,[0],1,28,"[1, 2, 3, 4, 5, 6, 7, 8, 9, 10, 11, 12, 13, 14, 15, 16, 17, 18, 19, 20, 21, 22, 23, 25, 26, 27, 28, 29]",300,160,-1,76,2626,10,0.0
undo,2,23,0,0,0,22,"[0, 22]",2,24,"[1, 2, 3, 5, 6, 7, 8, 9, 10, 11, 12, 13, 14, 15, 17, 18, 19, 20, 21, 23, 25, 26, 27, 29]",210.5013967,4237,4077,15,1362,10,1.0
undo,2,23,0,0,0,13,"[0, 22, 13]",3,14,"[1, 2, 5, 6, 7, 8, 9, 10, 12, 14, 18, 21, 27, 29]",168.3113504,5053,816,14,522,10,1.1898173563652046
undo,2,23,0,0,0,12,"[0, 22, 13, 12]",4,11,"[1, 2, 6, 7, 9, 10, 14, 18, 21, 27, 29]",156.2283045,7674,2621,12,166,10,1.1727968780218219
undo,2,23,0,0,0,27,"[0, 22, 13, 12, 27]",5,6,"[2, 6, 9, 14, 18, 29]",115.4361484,8803,1129,24,10,9,1.2890498546136056
undo,2,23,0,0,0,6,"[0, 22, 13, 12, 27, 6]",6,4,"[2, 9, 14, 29]",87.13420496,9501,698,8,3,9,1.4168087827969746
undo,2,23,0,0,0,2,"[0, 22, 13, 12, 27, 6, 2]",7,3,"[9, 14, 29]",68.69511605,10135,634,4,1,9,1.6950530812130016
undo,2,23,0,0,0,9,"[0, 22, 13, 12, 27, 6, 2, 9]",8,2,"[14, 29]",55.65671124,11187,1052,2,0,9,1.8702358422647571
undo,2,23,0,0,1,14,"[0, 22, 13, 12, 27, 6, 2, 9, 14]",9,0,[],45.21640473,11716,529,1,0,9,1.808386291219993
undo,2,23,0,1,1,14,"[0, 22, 13, 12, 27, 6, 2, 9, 14]",9,0,[],45.21640473,12675,959,1,0,9,1.808386291219993
undo,3,28,0,0,0,0,[0],1,27,"[1, 2, 3, 4, 5, 6, 7, 8, 9, 10, 11, 12, 13, 14, 15, 16, 17, 18, 19, 20, 22, 23, 25, 26, 27, 28, 29]",300,161,-1,2,96,9,0.0
undo,3,28,0,0,0,14,"[0, 14]",2,14,"[1, 2, 3, 5, 7, 10, 11, 12, 13, 17, 18, 19, 20, 26]",147.8914861,5073,4912,1,26,8,1.0
undo,3,28,0,0,0,18,"[0, 14, 18]",3,11,"[1, 2, 3, 5, 7, 11, 12, 13, 17, 19, 26]",122.3963885,6854,1781,1,23,8,1.0675599824559303
undo,3,28,0,0,0,13,"[0, 14, 18, 13]",4,7,"[2, 7, 11, 12, 17, 19, 26]",97.9832773,7639,785,1,9,8,1.0602397944415018
undo,3,28,0,0,0,12,"[0, 14, 18, 13, 12]",5,4,"[2, 7, 17, 19]",80.77862677,8437,798,1,3,8,1.0640685934245377
undo,3,28,0,0,0,7,"[0, 14, 18, 13, 12, 7]",6,2,"[2, 19]",67.62568033,8870,433,1,1,8,1.186262804928269
undo,3,28,0,0,0,19,"[0, 14, 18, 13, 12, 7, 19]",7,1,[2],39.89483108,10235,1365,1,0,8,1.424576333867947
undo,3,28,0,0,1,2,"[0, 14, 18, 13, 12, 7, 19, 2]",8,0,[],2.531747699,11352,1117,1,0,8,1.4824387893309579
undo,3,28,0,1,1,2,"[0, 14, 18, 13, 12, 7, 19, 2]",8,0,[],2.531747699,12076,724,1,0,8,1.4824387893309579
undo,4,9,0,0,0,0,[0],1,27,"[1, 3, 4, 5, 6, 7, 8, 9, 10, 11, 13, 14, 15, 16, 17, 18, 19, 20, 21, 22, 23, 24, 25, 26, 27, 28, 29]",300,162,-1,2,182,10,0.0
undo,4,9,0,0,0,25,"[0, 25]",2,24,"[1, 3, 4, 5, 6, 7, 8, 9, 10, 11, 13, 15, 16, 17, 18, 19, 20, 21, 22, 23, 24, 26, 27, 28]",275.9168108,3300,3138,2,104,10,1.0
undo,4,9,0,0,0,10,"[0, 25, 10]",3,20,"[3, 4, 5, 7, 8, 9, 11, 13, 15, 16, 17, 18, 19, 20, 21, 22, 23, 26, 27, 28]",236.0670932,3984,684,2,76,10,1.1767014107208227
undo,4,9,1,0,0,25,"[0, 25]",2,24,"[1, 3, 4, 5, 6, 7, 8, 9, 10, 11, 13, 15, 16, 17, 18, 19, 20, 21, 22, 23, 24, 26, 27, 28]",275.9168108,6956,2972,2,104,10,1.0
undo,4,9,1,0,0,0,[0],1,27,"[1, 3, 4, 5, 6, 7, 8, 9, 10, 11, 13, 14, 15, 16, 17, 18, 19, 20, 21, 22, 23, 24, 25, 26, 27, 28, 29]",300,7339,383,2,182,10,0.0
undo,4,9,0,0,0,9,"[0, 9]",2,26,"[1, 3, 4, 5, 6, 7, 8, 10, 11, 13, 14, 15, 16, 17, 18, 19, 20, 21, 22, 23, 24, 25, 26, 27, 28, 29]",225.5352432,8232,893,2,101,9,1.0
undo,4,9,0,0,0,23,"[0, 9, 23]",3,22,"[1, 3, 4, 5, 7, 8, 10, 11, 13, 15, 16, 17, 18, 19, 20, 21, 22, 24, 25, 26, 27, 28]",203.1745635,8766,534,2,70,9,1.6262276606762436
undo,4,9,0,0,0,8,"[0, 9, 23, 8]",4,18,"[3, 4, 5, 7, 10, 11, 15, 16, 17, 18, 19, 20, 21, 22, 25, 26, 27, 28]",181.7036529,9983,1217,1,36,9,1.8547307061753238
undo,4,9,0,0,0,28,"[0, 9, 23, 8, 28]",5,17,"[3, 4, 5, 7, 10, 11, 15, 16, 17, 18, 19, 20, 21, 22, 25, 26, 27]",170.8869991,10566,583,1,23,9,1.7382749966569708
undo,4,9,0,0,0,21,"[0, 9, 23, 8, 28, 21]",6,8,"[10, 16, 17, 18, 20, 22, 25, 26]",117.8869991,13097,2531,7,5,8,1.5363946588735553
undo,4,9,0,0,0,20,"[0, 9, 23, 8, 28, 21, 20]",7,5,"[10, 16, 17, 22, 26]",105.8039531,13598,501,5,0,8,1.5333390745950446
undo,4,9,0,0,1,17,"[0, 9, 23, 8, 28, 21, 20, 17]",8,0,[],24.30548686,15664,2066,1,0,8,1.3353368457132078
undo,4,9,0,1,1,17,"[0, 9, 23, 8, 28, 21, 20, 17]",8,0,[],24.30548686,16590,926,1,0,8,1.3353368457132078
undo,5,16,0,0,0,0,[0],1,29,"[1, 2, 3, 4, 5, 6, 7, 8, 9, 10, 11, 12, 13, 14, 15, 16, 17, 18, 19, 20, 21, 22, 23, 24, 25, 26, 27, 28, 29]",300,191,-1,13,161,9,0.0
undo,5,16,0,0,0,17,"[0, 17]",2,27,"[1, 2, 3, 4, 5, 7, 8, 9, 10, 11, 12, 13, 14, 15, 16, 18, 19, 20, 21, 22, 23, 24, 25, 26, 27, 28, 29]",241.3058776,3602,3411,2,58,9,1.0
undo,5,16,0,0,0,16,"[0, 17, 16]",3,26,"[1, 2, 3, 4, 5, 7, 8, 9, 10, 11, 12, 13, 14, 15, 18, 19, 20, 21, 22, 23, 24, 25, 26, 27, 28, 29]",212.9862731,4884,1282,2,52,9,1.0529535521792848
undo,5,16,0,0,0,21,"[0, 17, 16, 21]",4,19,"[3, 5, 7, 8, 9, 10, 12, 14, 15, 19, 20, 22, 23, 24, 25, 26, 27, 28, 29]",168.332046,5884,1000,9,18,8,1.5524765786046826
undo,5,16,0,0,0,8,"[0, 17, 16, 21, 8]",5,7,"[3, 5, 9, 12, 15, 20, 25]",119.0776046,6638,754,9,6,8,1.458624751458944
undo,5,16,0,0,0,20,"[0, 17, 16, 21, 8, 20]",6,3,"[9, 15, 25]",61.30217727,7683,1045,4,1,8,1.3191752290945782
undo,5,16,0,0,0,25,"[0, 17, 16, 21, 8, 20, 25]",7,2,"[9, 15]",48.65306663,8233,550,2,0,8,1.3641436248537882
undo,5,16,0,0,1,9,"[0, 17, 16, 21, 8, 20, 25, 9]",8,0,[],35.84681815,8648,415,1,0,8,1.3406027753205443
undo,5,16,0,1,1,9,"[0, 17, 16, 21, 8, 20, 25, 9]",8,0,[],35.84681815,9673,1025,1,0,8,1.3406027753205443
undo,6,25,0,0,0,0,[0],1,28,"[1, 2, 3, 4, 5, 7, 8, 9, 10, 11, 12, 13, 14, 15, 16, 17, 18, 19, 20, 21, 22, 23, 24, 25, 26, 27, 28, 29]",300,144,-1,5,94,10,0.0
undo,6,25,0,0,0,7,"[0, 7]",2,18,"[1, 3, 5, 8, 9, 11, 13, 17, 19, 20, 21, 22, 23, 24, 26, 27, 28, 29]",182.7993174,5254,5110,1,22,8,1.0
undo,6,25,0,0,0,24,"[0, 7, 24]",3,11,"[3, 5, 8, 9, 11, 13, 19, 22, 23, 28, 29]",158.0404806,5836,582,1,18,8,1.0100618974182514
undo,6,25,0,0,0,9,"[0, 7, 24, 9]",4,9,"[3, 8, 11, 13, 19, 22, 23, 28, 29]",140.0127242,6253,417,1,17,8,1.0248438018220953
undo,6,25,0,0,0,8,"[0, 7, 24, 9, 8]",5,3,"[3, 13, 28]",89.76334612,8091,1838,4,1,7,1.0513278369172763
undo,6,25,0,0,0,28,"[0, 7, 24, 9, 8, 28]",6,2,"[3, 13]",49.15546511,9489,1398,2,0,7,1.1592073153906106
undo,6,25,0,0,1,3,"[0, 7, 24, 9, 8, 28, 3]",7,0,[],17.85051343,10335,846,1,0,7,1.5238639287393583
undo,6,25,0,1,1,3,"[0, 7, 24, 9, 8, 28, 3]",7,0,[],17.85051343,11161,826,1,0,7,1.5238639287393583
undo,7,19,0,0,0,0,[0],1,29,"[1, 2, 3, 4, 5, 6, 7, 8, 9, 10, 11, 12, 13, 14, 15, 16, 17, 18, 19, 20, 21, 22, 23, 24, 25, 26, 27, 28, 29]",300,170,-1,12,149,8,0.0
undo,7,19,0,0,0,28,"[0, 28]",2,10,"[4, 6, 9, 10, 11, 14, 20, 22, 24, 27]",136.1219966,5072,4902,2,14,7,1.0
undo,7,19,0,0,0,4,"[0, 28, 4]",3,9,"[6, 9, 10, 11, 14, 20, 22, 24, 27]",124.9416567,5519,447,2,10,7,1.0622089009735736
undo,7,19,0,0,0,11,"[0, 28, 4, 11]",4,4,"[14, 20, 22, 24]",66.80388929,6604,1085,4,1,6,1.0635812936430165
undo,7,19,0,0,0,14,"[0, 28, 4, 11, 14]",5,2,"[20, 22]",55.98723547,7041,437,2,0,6,1.1668442100538934
undo,7,19,0,0,1,22,"[0, 28, 4, 11, 14, 22]",6,0,[],13.03377228,10652,3611,1,0,6,1.3470217831563107
undo,7,19,0,1,1,22,"[0, 28, 4, 11, 14, 22]",6,0,[],13.03377228,12192,1540,1,0,6,1.3470217831563107
undo,8,10,0,0,0,0,[0],1,29,"[1, 2, 3, 4, 5, 6, 7, 8, 9, 10, 11, 12, 13, 14, 15, 16, 17, 18, 19, 20, 21, 22, 23, 24, 25, 26, 27, 28, 29]",300,181,-1,1,100,9,0.0
undo,8,10,0,0,0,13,"[0, 13]",2,25,"[1, 2, 3, 4, 6, 7, 8, 9, 10, 11, 12, 14, 17, 18, 19, 20, 21, 22, 23, 24, 25, 26, 27, 28, 29]",249.4628849,6021,5840,1,79,9,1.0
undo,8,10,0,0,0,11,"[0, 13, 11]",3,20,"[1, 2, 3, 6, 7, 8, 9, 10, 12, 14, 18, 19, 20, 21, 22, 24, 26, 27, 28, 29]",206.4512586,6542,521,1,54,9,1.0313137484914219
undo,8,10,0,0,0,19,"[0, 13, 11, 19]",4,11,"[2, 6, 8, 9, 10, 14, 18, 20, 24, 26, 27]",170.0919407,7286,744,1,22,9,1.0879446220132545
undo,8,10,0,0,0,2,"[0, 13, 11, 19, 2]",5,4,"[14, 20, 26, 27]",126.1829439,7987,701,1,4,9,1.06474052351343
undo,8,10,0,0,0,14,"[0, 13, 11, 19, 2, 14]",6,3,"[20, 26, 27]",114.0174188,8402,415,1,3,9,1.1628909195912238
undo,8,10,0,0,0,26,"[0, 13, 11, 19, 2, 14, 26]",7,2,"[20, 27]",79.34754716,8984,582,1,1,9,1.6660727647633602
undo,8,10,0,0,0,20,"[0, 13, 11, 19, 2, 14, 26, 20]",8,1,[27],47.56704999,9485,501,1,0,9,2.085581809637999
undo,8,10,0,0,1,27,"[0, 13, 11, 19, 2, 14, 26, 20, 27]",9,0,[],2.312215998,10155,670,1,0,9,1.9116357409137932
undo,8,10,0,1,1,27,"[0, 13, 11, 19, 2, 14, 26, 20, 27]",9,0,[],2.312215998,10892,737,1,0,9,1.9116357409137932
undo,9,18,0,0,0,0,[0],1,28,"[1, 2, 3, 4, 5, 6, 7, 8, 9, 10, 11, 12, 13, 14, 16, 17, 18, 19, 20, 21, 22, 23, 24, 25, 26, 27, 28, 29]",300,175,-1,3,136,10,0.0
undo,9,18,0,0,0,28,"[0, 28]",2,16,"[1, 3, 5, 7, 8, 9, 12, 13, 14, 16, 20, 23, 24, 25, 26, 27]",236.4311397,2806,2631,2,19,10,1.0
undo,9,18,0,0,0,7,"[0, 28, 7]",3,15,"[1, 3, 5, 8, 9, 12, 13, 14, 16, 20, 23, 24, 25, 26, 27]",214.4084242,3636,830,2,17,10,1.4345180696367563
undo,9,18,0,0,0,25,"[0, 28, 7, 25]",4,13,"[1, 3, 5, 8, 9, 12, 13, 14, 16, 20, 23, 26, 27]",186.6055466,4319,683,2,15,10,1.8896451241781882
undo,9,18,0,0,0,8,"[0, 28, 7, 25, 8]",5,10,"[3, 5, 9, 12, 13, 14, 16, 23, 26, 27]",149.551532,5438,1119,2,10,10,1.590467437592877
undo,9,18,0,0,0,13,"[0, 28, 7, 25, 8, 13]",6,9,"[3, 5, 9, 12, 14, 16, 23, 26, 27]",128.4565089,6267,829,2,5,10,1.8248274983549797
undo,9,18,0,0,0,14,"[0, 28, 7, 25, 8, 13, 14]",7,7,"[3, 5, 9, 12, 23, 26, 27]",109.4828429,6718,451,2,3,10,1.6993534956692746
undo,9,18,0,0,0,3,"[0, 28, 7, 25, 8, 13, 14, 3]",8,3,"[5, 12, 27]",79.39962499,7235,517,2,1,10,1.802637206541468
undo,9,18,0,0,0,5,"[0, 28, 7, 25, 8, 13, 14, 3, 5]",9,1,[12],21.21887216,8119,884,1,0,10,1.559774889743805
undo,9,18,0,0,1,12,"[0, 28, 7, 25, 8, 13, 14, 3, 5, 12]",10,0,[],9.817117911,8602,483,1,0,10,1.563993037384447
undo,9,18,0,1,1,12,"[0, 28, 7, 25, 8, 13, 14, 3, 5, 12]",10,0,[],9.817117911,9375,773,1,0,10,1.563993037384447
undo,10,11,0,0,0,0,[0],1,25,"[1, 2, 3, 4, 5, 6, 8, 9, 10, 11, 12, 13, 14, 15, 16, 17, 18, 19, 20, 22, 23, 25, 26, 27, 28]",300,160,-1,6,374,12,0.0
undo,10,11,0,0,0,18,"[0, 18]",2,21,"[1, 2, 4, 5, 6, 8, 9, 11, 12, 13, 14, 15, 16, 17, 19, 20, 22, 23, 25, 27, 28]",236.8493864,9445,9285,157,1477,11,1.0
undo,10,11,0,0,0,27,"[0, 18, 27]",3,19,"[1, 2, 4, 5, 6, 8, 9, 11, 12, 14, 15, 16, 17, 19, 20, 22, 23, 25, 28]",212.9956655,10406,961,157,1315,11,1.060949579704323
undo,10,11,0,0,0,17,"[0, 18, 27, 17]",4,14,"[1, 2, 4, 5, 6, 8, 11, 12, 15, 19, 22, 23, 25, 28]",135.9177828,11506,1100,46,349,11,1.1156120043677304
undo,10,11,0,0,0,8,"[0, 18, 27, 17, 8]",5,11,"[1, 2, 5, 6, 11, 12, 15, 19, 22, 25, 28]",121.5999617,12174,668,26,143,11,1.2285932943120847
undo,10,11,0,0,0,15,"[0, 18, 27, 17, 8, 15]",6,9,"[2, 5, 6, 11, 12, 19, 22, 25, 28]",108.1463377,12674,500,24,54,11,1.223015425852291
undo,10,11,0,0,0,11,"[0, 18, 27, 17, 8, 15, 11]",7,6,"[2, 5, 12, 19, 22, 28]",90.03556742,13155,481,22,2,11,1.2111003833550413
undo,10,11,0,0,0,28,"[0, 18, 27, 17, 8, 15, 11, 28]",8,3,"[2, 5, 22]",70.61907959,14554,1399,6,0,11,1.3274100985292616
undo,10,11,0,0,0,22,"[0, 18, 27, 17, 8, 15, 11, 28, 22]",9,2,"[2, 5]",52.23430327,15873,1319,2,0,11,1.3141711190295955
undo,10,11,0,0,0,2,"[0, 18, 27, 17, 8, 15, 11, 28, 22, 2]",10,1,[5],42.18442765,16389,516,1,0,11,1.4444412809691538
undo,10,11,0,0,1,5,"[0, 18, 27, 17, 8, 15, 11, 28, 22, 2, 5]",11,0,[],25.18442765,17086,697,1,0,11,1.6891669336596347
undo,10,11,0,1,1,5,"[0, 18, 27, 17, 8, 15, 11, 28, 22, 2, 5]",11,0,[],25.18442765,17814,728,1,0,11,1.6891669336596347
undo,11,41,0,0,0,0,[0],1,29,"[1, 2, 3, 4, 5, 6, 7, 8, 9, 10, 11, 12, 13, 14, 15, 16, 17, 18, 19, 20, 21, 22, 23, 24, 25, 26, 27, 28, 29]",300,160,-1,1,143,10,0.0
undo,11,41,0,0,0,13,"[0, 13]",2,23,"[1, 2, 3, 5, 6, 7, 9, 10, 11, 12, 14, 15, 17, 18, 19, 20, 21, 22, 24, 25, 26, 27, 28]",258.2747079,3986,3826,1,55,10,1.0
undo,11,41,0,0,0,28,"[0, 13, 28]",3,22,"[1, 2, 3, 5, 6, 7, 9, 10, 11, 12, 14, 15, 17, 18, 19, 20, 21, 22, 24, 25, 26, 27]",223.7928286,5103,1117,1,39,10,1.895724242592676
undo,11,41,0,0,0,5,"[0, 13, 28, 5]",4,19,"[1, 2, 3, 6, 9, 10, 11, 12, 14, 15, 17, 18, 19, 20, 21, 22, 24, 25, 27]",210.1913581,5555,452,1,34,10,2.861541269398273
undo,11,41,0,0,0,3,"[0, 13, 28, 5, 3]",5,16,"[1, 2, 6, 9, 10, 12, 14, 17, 18, 19, 20, 21, 22, 24, 25, 27]",175.3632086,6703,1148,1,22,10,3.1455488489005883
undo,11,41,0,0,0,21,"[0, 13, 28, 5, 3, 21]",6,14,"[1, 2, 6, 9, 10, 12, 14, 17, 18, 19, 20, 22, 25, 27]",143.2228912,7385,682,13,11,9,3.207558429289677
undo,11,41,0,0,0,17,"[0, 13, 28, 5, 3, 21, 17]",7,3,"[2, 9, 10]",91.5605258,8519,1134,2,1,9,3.2883270328778007
undo,11,41,0,0,0,9,"[0, 13, 28, 5, 3, 21, 17, 9]",8,1,[2],60.54440096,9352,833,1,0,9,2.9098226601812454
undo,11,41,0,0,1,2,"[0, 13, 28, 5, 3, 21, 17, 9, 2]",9,0,[],48.46135498,10039,687,1,0,9,2.780153959656953
undo,11,41,0,1,1,2,"[0, 13, 28, 5, 3, 21, 17, 9, 2]",9,0,[],48.46135498,10842,803,1,0,9,2.780153959656953
undo,12,20,0,0,0,0,[0],1,21,"[1, 2, 3, 4, 5, 6, 7, 8, 9, 12, 17, 18, 20, 21, 22, 23, 25, 26, 27, 28, 29]",300,149,-1,1,9,9,0.0
undo,12,20,0,0,0,1,"[0, 1]",2,14,"[3, 4, 5, 6, 8, 9, 12, 20, 21, 23, 26, 27, 28, 29]",197.3501096,2939,2790,1,9,8,1.0
undo,12,20,0,0,0,5,"[0, 1, 5]",3,12,"[4, 6, 8, 9, 12, 20, 21, 23, 26, 27, 28, 29]",160.675868,4836,1897,1,8,8,1.1088946720668915
undo,12,20,0,0,0,21,"[0, 1, 5, 21]",4,8,"[4, 6, 8, 9, 20, 23, 27, 28]",115.675868,6199,1363,1,6,8,1.0805828994591202
undo,12,20,0,0,0,8,"[0, 1, 5, 21, 8]",5,5,"[6, 9, 23, 27, 28]",98.21161876,7065,866,1,5,8,1.0976815296746363
undo,12,20,0,0,0,23,"[0, 1, 5, 21, 8, 23]",6,3,"[6, 9, 27]",53.52381281,8582,1517,1,2,8,1.0820667611140062
undo,12,20,0,0,0,9,"[0, 1, 5, 21, 8, 23, 9]",7,1,[6],34.3144401,10067,1485,1,0,8,1.0771429624373048
undo,12,20,0,0,1,6,"[0, 1, 5, 21, 8, 23, 9, 6]",8,0,[],11.29271124,10965,898,1,0,8,1.0892675954154076
undo,12,20,0,1,1,6,"[0, 1, 5, 21, 8, 23, 9, 6]",8,0,[],11.29271124,11741,776,1,0,8,1.0892675954154076
undo,13,44,0,0,0,0,[0],1,29,"[1, 2, 3, 4, 5, 6, 7, 8, 9, 10, 11, 12, 13, 14, 15, 16, 17, 18, 19, 20, 21, 22, 23, 24, 25, 26, 27, 28, 29]",300,159,-1,13,126,7,0.0
undo,13,44,0,0,0,11,"[0, 11]",2,18,"[4, 5, 6, 7, 8, 9, 12, 14, 16, 17, 19, 20, 22, 23, 24, 25, 26, 28]",152.7790776,4286,4127,5,34,7,1.0
undo,13,44,0,0,0,14,"[0, 11, 14]",3,14,"[4, 5, 6, 7, 9, 12, 16, 17, 19, 22, 23, 24, 26, 28]",120.5765932,5201,915,6,17,6,1.0032424984204007
undo,13,44,0,0,0,24,"[0, 11, 14, 24]",4,4,"[4, 7, 9, 23]",74.92574436,5969,768,3,2,6,1.4978014171296756
undo,13,44,0,0,0,9,"[0, 11, 14, 24, 9]",5,1,[4],42.16906565,6752,783,1,0,6,1.6248916534242954
undo,13,44,0,0,1,4,"[0, 11, 14, 24, 9, 4]",6,0,[],22.47135004,7268,516,1,0,6,1.5800842308612977
undo,13,44,0,1,1,4,"[0, 11, 14, 24, 9, 4]",6,0,[],22.47135004,8576,1308,1,0,6,1.5800842308612977
undo,14,1,0,0,0,0,[0],1,26,"[1, 2, 4, 5, 7, 8, 9, 10, 11, 12, 13, 14, 15, 16, 17, 18, 19, 20, 21, 22, 23, 24, 25, 26, 28, 29]",300,154,-1,6,74,7,0.0
undo,14,1,0,0,0,20,"[0, 20]",2,13,"[1, 4, 5, 8, 11, 13, 14, 15, 17, 18, 19, 28, 29]",129.961769,4237,4083,2,11,6,1.0
undo,14,1,0,0,0,5,"[0, 20, 5]",3,9,"[1, 4, 8, 11, 13, 17, 18, 19, 29]",108.4908585,4737,500,2,6,6,1.0224915251419384
undo,14,1,0,0,0,18,"[0, 20, 5, 18]",4,4,"[4, 13, 17, 29]",85.66543403,5290,553,2,3,6,1.064078468417926
undo,14,1,0,0,0,4,"[0, 20, 5, 18, 4]",5,2,"[13, 29]",46.71674984,6020,730,2,0,6,1.0731955739217967
undo,14,1,0,0,1,13,"[0, 20, 5, 18, 4, 13]",6,0,[],2.332067799,6858,838,1,0,6,1.0623276828380515
undo,14,1,0,1,1,13,"[0, 20, 5, 18, 4, 13]",6,0,[],2.332067799,7560,702,1,0,6,1.0623276828380515
undo,15,12,0,0,0,0,[0],1,29,"[1, 2, 3, 4, 5, 6, 7, 8, 9, 10, 11, 12, 13, 14, 15, 16, 17, 18, 19, 20, 21, 22, 23, 24, 25, 26, 27, 28, 29]",300,153,-1,2,32,9,0.0
undo,15,12,0,0,0,22,"[0, 22]",2,22,"[2, 4, 5, 6, 7, 9, 10, 12, 13, 14, 15, 16, 17, 18, 19, 21, 23, 24, 25, 27, 28, 29]",211.9943184,4756,4603,6,42,8,1.0
undo,15,12,0,0,0,16,"[0, 22, 16]",3,12,"[2, 4, 5, 6, 7, 12, 14, 19, 23, 24, 25, 27]",190.9943184,6034,1278,6,24,8,1.2017164145167045
undo,15,12,0,0,0,4,"[0, 22, 16, 4]",4,9,"[2, 6, 7, 12, 14, 19, 24, 25, 27]",156.7890556,7755,1721,6,14,8,1.146531713305579
undo,15,12,0,0,0,12,"[0, 22, 16, 4, 12]",5,4,"[14, 19, 24, 27]",114.5990094,9117,1362,4,3,8,1.1221389456954312
undo,15,12,0,0,0,27,"[0, 22, 16, 4, 12, 27]",6,3,"[14, 19, 24]",90.24741807,10602,1485,2,1,8,1.2262878338287035
undo,15,12,0,0,0,14,"[0, 22, 16, 4, 12, 27, 14]",7,1,[24],61.59432051,11524,922,1,0,8,1.2804562106751427
undo,15,12,0,0,1,24,"[0, 22, 16, 4, 12, 27, 14, 24]",8,0,[],44.38966997,12101,577,1,0,8,1.4322660007679802
undo,15,12,0,1,1,24,"[0, 22, 16, 4, 12, 27, 14, 24]",8,0,[],44.38966997,13093,992,1,0,8,1.4322660007679802
undo,16,38,0,0,0,0,[0],1,29,"[1, 2, 3, 4, 5, 6, 7, 8, 9, 10, 11, 12, 13, 14, 15, 16, 17, 18, 19, 20, 21, 22, 23, 24, 25, 26, 27, 28, 29]",300,165,-1,33,506,9,0.0
undo,16,38,0,0,0,19,"[0, 19]",2,23,"[3, 4, 5, 6, 7, 8, 9, 11, 13, 14, 15, 16, 17, 18, 20, 22, 23, 24, 25, 26, 27, 28, 29]",219.5015528,6486,6321,6,61,9,1.0
undo,16,38,0,0,0,17,"[0, 19, 17]",3,21,"[3, 4, 5, 6, 7, 9, 11, 13, 14, 15, 16, 18, 20, 22, 23, 24, 25, 26, 27, 28, 29]",198.1239945,7236,750,6,53,9,1.571793785769489
undo,16,38,0,0,0,20,"[0, 19, 17, 20]",4,17,"[3, 4, 5, 6, 7, 11, 13, 14, 15, 16, 18, 22, 24, 25, 26, 27, 28]",174.3542658,7919,683,6,44,9,2.333182710277297
undo,16,38,0,0,0,13,"[0, 19, 17, 20, 13]",5,9,"[4, 11, 15, 16, 18, 24, 26, 27, 28]",125.0998244,9419,1500,1,11,9,1.7893595974504246
undo,16,38,0,0,0,4,"[0, 19, 17, 20, 13, 4]",6,6,"[11, 15, 16, 24, 26, 28]",93.69918748,11851,2432,1,6,9,2.942354535547757
undo,16,38,0,0,0,15,"[0, 19, 17, 20, 13, 4, 15]",7,4,"[11, 16, 26, 28]",67.69918748,13268,1417,1,3,9,3.165907365359093
undo,16,38,0,0,0,11,"[0, 19, 17, 20, 13, 4, 15, 11]",8,1,[28],31.29863803,14018,750,1,0,9,3.362710012119994
undo,16,38,0,0,1,28,"[0, 19, 17, 20, 13, 4, 15, 11, 28]",9,0,[],4.280125857,14605,587,1,0,9,2.7690631991189285
undo,16,38,0,1,1,28,"[0, 19, 17, 20, 13, 4, 15, 11, 28]",9,0,[],4.280125857,15659,1054,1,0,9,2.7690631991189285
undo,17,0,0,0,0,0,[0],1,27,"[2, 3, 4, 5, 6, 7, 8, 9, 10, 11, 12, 13, 14, 15, 16, 17, 19, 20, 21, 22, 23, 24, 25, 26, 27, 28, 29]",300,163,-1,104,1136,9,0.0
undo,17,0,0,0,0,28,"[0, 28]",2,26,"[2, 3, 4, 5, 6, 7, 8, 9, 10, 11, 12, 13, 14, 15, 16, 17, 19, 20, 21, 22, 23, 24, 25, 26, 27, 29]",194.9190788,4768,4605,39,388,9,1.0
undo,17,0,0,0,0,12,"[0, 28, 12]",3,19,"[3, 4, 5, 7, 8, 9, 10, 11, 13, 14, 15, 17, 19, 20, 21, 22, 23, 24, 26]",141.7683497,5419,651,3,43,9,1.0142012686492925
undo,17,0,1,0,0,28,"[0, 28]",2,26,"[2, 3, 4, 5, 6, 7, 8, 9, 10, 11, 12, 13, 14, 15, 16, 17, 19, 20, 21, 22, 23, 24, 25, 26, 27, 29]",194.9190788,7423,2004,39,388,9,1.0
undo,17,0,1,0,0,0,[0],1,27,"[2, 3, 4, 5, 6, 7, 8, 9, 10, 11, 12, 13, 14, 15, 16, 17, 19, 20, 21, 22, 23, 24, 25, 26, 27, 28, 29]",300,7607,184,104,1136,9,0.0
undo,17,0,0,0,0,5,"[0, 5]",2,24,"[2, 3, 4, 7, 8, 9, 11, 12, 13, 14, 15, 16, 17, 19, 20, 21, 22, 23, 24, 25, 26, 27, 28, 29]",164.5156836,9566,1959,5,112,9,1.0
undo,17,0,0,0,0,4,"[0, 5, 4]",3,20,"[2, 3, 7, 8, 9, 11, 12, 13, 14, 15, 17, 19, 20, 21, 22, 23, 24, 25, 26, 28]",139.4358112,10364,798,4,61,9,1.0257023158632692
undo,17,0,0,0,0,26,"[0, 5, 4, 26]",4,18,"[3, 7, 8, 9, 11, 12, 13, 14, 15, 17, 19, 20, 21, 22, 23, 24, 25, 28]",127.3942166,10834,470,4,26,9,1.0684029773259323
undo,17,0,0,0,0,24,"[0, 5, 4, 26, 24]",5,12,"[3, 7, 8, 9, 11, 12, 15, 17, 19, 20, 23, 28]",110.2769738,11416,582,4,16,9,1.1372083333602885
undo,17,0,0,0,0,15,"[0, 5, 4, 26, 24, 15]",6,8,"[3, 7, 8, 9, 11, 12, 17, 19]",86.93173875,12033,617,4,7,9,1.1271717591548023
undo,17,0,0,0,0,7,"[0, 5, 4, 26, 24, 15, 7]",7,4,"[3, 8, 17, 19]",55.86728962,12833,800,3,2,9,1.190834598819092
undo,17,0,0,0,0,8,"[0, 5, 4, 26, 24, 15, 7, 8]",8,2,"[3, 19]",36.76231644,13454,621,2,0,9,1.1832849301094388
undo,17,0,0,0,1,3,"[0, 5, 4, 26, 24, 15, 7, 8, 3]",9,0,[],6.348503789,14916,1462,1,0,9,1.3547295451928671
undo,17,0,0,1,1,3,"[0, 5, 4, 26, 24, 15, 7, 8, 3]",9,0,[],6.348503789,15557,641,1,0,9,1.3547295451928671
undo,18,3,0,0,0,0,[0],1,29,"[1, 2, 3, 4, 5, 6, 7, 8, 9, 10, 11, 12, 13, 14, 15, 16, 17, 18, 19, 20, 21, 22, 23, 24, 25, 26, 27, 28, 29]",300,204,-1,34,427,10,0.0
undo,18,3,0,0,0,17,"[0, 17]",2,16,"[3, 4, 7, 8, 10, 12, 14, 15, 16, 19, 20, 21, 22, 24, 26, 27]",197.6965299,4104,3900,2,27,9,1.0
undo,18,3,0,0,0,20,"[0, 17, 20]",3,13,"[3, 4, 7, 8, 10, 14, 15, 16, 19, 21, 22, 24, 27]",185.0474192,4554,450,2,24,9,1.0153332121237257
undo,18,3,0,0,0,3,"[0, 17, 20, 3]",4,10,"[4, 7, 8, 10, 14, 15, 16, 19, 21, 24]",164.6513412,5117,563,2,22,9,1.0819240770773468
undo,18,3,0,0,0,19,"[0, 17, 20, 3, 19]",5,6,"[4, 8, 10, 14, 21, 24]",127.3150318,5926,809,2,11,9,1.1701070532957258
undo,18,3,0,0,0,21,"[0, 17, 20, 3, 19, 21]",6,5,"[4, 8, 10, 14, 24]",115.1084762,6403,477,2,6,9,1.202395500952127
undo,18,3,0,0,0,14,"[0, 17, 20, 3, 19, 21, 14]",7,4,"[4, 8, 10, 24]",88.20122806,7355,952,2,2,9,1.6456130302761207
undo,18,3,0,0,0,24,"[0, 17, 20, 3, 19, 21, 14, 24]",8,1,[8],17.08864127,8486,1131,1,0,9,4.806859660680286
undo,18,3,0,0,1,8,"[0, 17, 20, 3, 19, 21, 14, 24, 8]",9,0,[],4.923116212,9637,1151,1,0,9,4.915218144486606
undo,18,3,0,1,1,8,"[0, 17, 20, 3, 19, 21, 14, 24, 8]",9,0,[],4.923116212,10093,456,1,0,9,4.915218144486606
undo,19,35,0,0,0,0,[0],1,29,"[1, 2, 3, 4, 5, 6, 7, 8, 9, 10, 11, 12, 13, 14, 15, 16, 17, 18, 19, 20, 21, 22, 23, 24, 25, 26, 27, 28, 29]",300,156,-1,5,236,11,0.0
undo,19,35,0,0,0,19,"[0, 19]",2,17,"[1, 2, 5, 6, 9, 10, 15, 16, 17, 18, 21, 23, 24, 25, 26, 27, 28]",217.7017619,4788,4632,24,246,8,1.0
undo,19,35,0,0,0,28,"[0, 19, 28]",3,14,"[1, 2, 5, 9, 10, 15, 16, 17, 18, 21, 23, 24, 26, 27]",168.7834626,5473,685,17,48,8,2.2503450511399095
undo,19,35,1,0,0,19,"[0, 19]",2,17,"[1, 2, 5, 6, 9, 10, 15, 16, 17, 18, 21, 23, 24, 25, 26, 27, 28]",217.7017619,6926,1453,24,246,8,1.0
undo,19,35,1,0,0,0,[0],1,29,"[1, 2, 3, 4, 5, 6, 7, 8, 9, 10, 11, 12, 13, 14, 15, 16, 17, 18, 19, 20, 21, 22, 23, 24, 25, 26, 27, 28, 29]",300,7276,350,5,236,11,0.0
undo,19,35,0,0,0,24,"[0, 24]",2,27,"[1, 2, 4, 5, 6, 7, 8, 9, 10, 11, 12, 13, 14, 15, 16, 17, 18, 19, 20, 21, 22, 23, 25, 26, 27, 28, 29]",268.9838752,8970,1694,49,512,10,1.0
undo,19,35,0,0,0,17,"[0, 24, 17]",3,26,"[1, 2, 4, 5, 6, 7, 8, 9, 10, 11, 12, 13, 14, 15, 16, 18, 19, 20, 21, 22, 23, 25, 26, 27, 28, 29]",257.2791753,9519,549,33,238,10,1.0771477201815276
undo,19,35,0,0,0,1,"[0, 24, 17, 1]",4,25,"[2, 4, 5, 6, 7, 8, 9, 10, 11, 12, 13, 14, 15, 16, 18, 19, 20, 21, 22, 23, 25, 26, 27, 28, 29]",241.4677869,10069,550,26,151,10,1.2244804141479215
undo,19,35,0,0,0,9,"[0, 24, 17, 1, 9]",5,13,"[2, 4, 5, 6, 15, 18, 19, 23, 25, 26, 27, 28, 29]",171.9408138,11838,1769,23,25,9,1.1391705391673446
undo,19,35,0,0,0,18,"[0, 24, 17, 1, 9, 18]",6,9,"[4, 5, 6, 15, 19, 23, 25, 27, 28]",151.9158294,12485,647,11,8,9,1.1512300765384265
undo,19,35,0,0,0,25,"[0, 24, 17, 1, 9, 18, 25]",7,3,"[5, 6, 23]",118.0779807,13238,753,4,1,9,1.1233821517043756
undo,19,35,0,0,0,6,"[0, 24, 17, 1, 9, 18, 25, 6]",8,2,"[5, 23]",94.05715644,13737,499,2,0,9,1.3618604674216885
undo,19,35,0,0,1,23,"[0, 24, 17, 1, 9, 18, 25, 6, 23]",9,0,[],48.4063076,14568,831,1,0,9,2.3663755774656274
undo,19,35,0,1,1,23,"[0, 24, 17, 1, 9, 18, 25, 6, 23]",9,0,[],48.4063076,16058,1490,1,0,9,2.3663755774656274
undo,20,5,0,0,0,0,[0],1,29,"[1, 2, 3, 4, 5, 6, 7, 8, 9, 10, 11, 12, 13, 14, 15, 16, 17, 18, 19, 20, 21, 22, 23, 24, 25, 26, 27, 28, 29]",300,171,-1,5,139,9,0.0
undo,20,5,0,0,0,23,"[0, 23]",2,27,"[1, 2, 3, 4, 5, 6, 7, 8, 9, 10, 11, 12, 13, 14, 15, 16, 17, 18, 19, 20, 21, 22, 24, 25, 26, 27, 28]",249.8402552,2870,2699,3,75,9,1.0
undo,20,5,1,0,0,0,[0],1,29,"[1, 2, 3, 4, 5, 6, 7, 8, 9, 10, 11, 12, 13, 14, 15, 16, 17, 18, 19, 20, 21, 22, 23, 24, 25, 26, 27, 28, 29]",300,4393,1523,5,139,9,0.0
undo,20,5,0,0,0,12,"[0, 12]",2,22,"[2, 4, 5, 6, 8, 9, 10, 13, 14, 15, 16, 17, 18, 19, 21, 22, 23, 24, 25, 26, 27, 28]",228.3062067,6317,1924,1,27,9,1.0
undo,20,5,0,0,0,25,"[0, 12, 25]",3,21,"[2, 4, 5, 6, 8, 9, 10, 13, 14, 15, 16, 17, 18, 19, 21, 22, 23, 24, 26, 27, 28]",200.5213187,6867,550,1,20,9,1.584023303445617
undo,20,5,0,0,0,23,"[0, 12, 25, 23]",4,19,"[2, 4, 5, 6, 8, 9, 10, 13, 14, 15, 16, 17, 18, 19, 21, 22, 24, 26, 27]",182.0822298,7321,454,1,14,9,2.3508446989254357
undo,20,5,0,0,0,24,"[0, 12, 25, 23, 24]",5,15,"[2, 4, 5, 6, 8, 9, 13, 14, 15, 17, 18, 19, 22, 26, 27]",158.995437,8936,1615,1,12,9,1.9469752046288753
undo,20,5,0,0,0,17,"[0, 12, 25, 23, 24, 17]",6,7,"[4, 5, 6, 8, 15, 18, 19]",124.0097257,11841,2905,1,8,9,1.6482276497563642
undo,20,5,0,0,0,5,"[0, 12, 25, 23, 24, 17, 5]",7,4,"[4, 6, 15, 18]",80.96323916,13119,1278,1,3,9,1.4654649104389412
undo,20,5,0,0,1,15,"[0, 12, 25, 23, 24, 17, 5, 15]",8,0,[],40.93824697,13950,831,1,0,8,1.4660376450939663
undo,20,5,0,1,1,15,"[0, 12, 25, 23, 24, 17, 5, 15]",8,0,[],40.93824697,14392,442,1,0,8,1.4660376450939663
undo,21,39,0,0,0,0,[0],1,28,"[1, 2, 3, 4, 5, 6, 7, 9, 10, 11, 12, 13, 14, 15, 16, 17, 18, 19, 20, 21, 22, 23, 24, 25, 26, 27, 28, 29]",300,194,-1,1,30,10,0.0
undo,21,39,0,0,0,29,"[0, 29]",2,26,"[1, 2, 3, 4, 5, 6, 7, 9, 10, 12, 13, 14, 15, 16, 17, 18, 19, 20, 21, 22, 23, 24, 25, 26, 27, 28]",243.0614366,5234,5040,8,104,9,1.0
undo,21,39,0,0,0,12,"[0, 29, 12]",3,18,"[1, 2, 4, 5, 7, 9, 10, 13, 14, 15, 16, 18, 19, 22, 23, 24, 26, 28]",182.5221931,6946,1712,5,54,9,1.0026200331524904
undo,21,39,0,0,0,10,"[0, 29, 12, 10]",4,16,"[1, 2, 4, 5, 7, 9, 13, 14, 15, 16, 18, 19, 22, 23, 24, 26]",147.0116313,8566,1620,5,34,9,1.2874817019928908
undo,21,39,0,0,0,7,"[0, 29, 12, 10, 7]",5,10,"[1, 2, 5, 13, 16, 18, 19, 22, 24, 26]",113.5900814,9237,671,4,12,9,1.2250826263866774
undo,21,39,0,0,0,26,"[0, 29, 12, 10, 7, 26]",6,5,"[1, 16, 18, 19, 22]",94.90853971,10414,1177,3,4,9,1.2697275353190085
undo,21,39,0,0,0,22,"[0, 29, 12, 10, 7, 26, 22]",7,2,"[16, 19]",77.18849457,11481,1067,2,0,9,1.438961743955176
undo,21,39,0,0,0,16,"[0, 29, 12, 10, 7, 26, 22, 16]",8,1,[19],42.18849457,13297,1816,1,0,9,1.3580882130477205
undo,21,39,0,0,1,19,"[0, 29, 12, 10, 7, 26, 22, 16, 19]",9,0,[],24.72424537,13697,400,1,0,9,1.3646589157842668
undo,21,39,0,1,1,19,"[0, 29, 12, 10, 7, 26, 22, 16, 19]",9,0,[],24.72424537,14738,1041,1,0,9,1.3646589157842668
undo,22,15,0,0,0,0,[0],1,25,"[1, 2, 3, 4, 7, 8, 9, 10, 11, 12, 13, 14, 15, 16, 18, 20, 21, 22, 23, 24, 25, 26, 27, 28, 29]",300,175,-1,4,65,9,0.0
undo,22,15,0,0,0,12,"[0, 12]",2,22,"[1, 2, 3, 4, 7, 8, 9, 10, 11, 13, 14, 15, 16, 18, 21, 22, 23, 24, 26, 27, 28, 29]",213.547701,4393,4218,4,35,9,1.0
undo,22,15,0,0,0,7,"[0, 12, 7]",3,16,"[1, 3, 4, 8, 9, 10, 11, 13, 14, 15, 16, 18, 21, 22, 24, 27]",180.3061607,5367,974,4,29,9,1.411291635294361
undo,22,15,0,0,0,16,"[0, 12, 7, 16]",4,10,"[3, 4, 10, 11, 13, 14, 15, 18, 21, 22]",136.6484008,6052,685,2,11,9,1.4308733430458784
undo,22,15,0,0,0,11,"[0, 12, 7, 16, 11]",5,7,"[3, 4, 13, 14, 15, 21, 22]",110.6291772,6585,533,2,5,9,1.5251025438826007
undo,22,15,0,0,0,3,"[0, 12, 7, 16, 11, 3]",6,5,"[4, 13, 14, 15, 22]",99.22742292,6992,407,2,3,9,1.5166583878170454
undo,22,15,0,0,0,22,"[0, 12, 7, 16, 11, 3, 22]",7,2,"[13, 15]",49.49815588,8505,1513,2,0,9,1.4519711389669923
undo,22,15,0,0,0,15,"[0, 12, 7, 16, 11, 3, 22, 15]",8,1,[13],23.88565893,9349,844,1,0,9,1.4060225827822495
undo,22,15,0,0,1,13,"[0, 12, 7, 16, 11, 3, 22, 15, 13]",9,0,[],8.621321408,9866,517,1,0,9,1.4544229719836068
undo,22,15,0,1,1,13,"[0, 12, 7, 16, 11, 3, 22, 15, 13]",9,0,[],8.621321408,10524,658,1,0,9,1.4544229719836068
basic,23,6,0,0,0,0,[0],1,29,"[1, 2, 3, 4, 5, 6, 7, 8, 9, 10, 11, 12, 13, 14, 15, 16, 17, 18, 19, 20, 21, 22, 23, 24, 25, 26, 27, 28, 29]",300,298,-1,180,4304,10,0.0
basic,23,6,0,0,0,3,"[0, 3]",2,28,"[1, 2, 4, 5, 6, 7, 8, 9, 10, 11, 12, 13, 14, 15, 16, 17, 18, 19, 20, 21, 22, 23, 24, 25, 26, 27, 28, 29]",266.4738908,2944,2646,90,1607,10,1.0
basic,23,6,0,0,0,18,"[0, 3, 18]",3,27,"[1, 2, 4, 5, 6, 7, 8, 9, 10, 11, 12, 13, 14, 15, 16, 17, 19, 20, 21, 22, 23, 24, 25, 26, 27, 28, 29]",237.4738908,3920,976,34,516,10,1.0266750028725786
basic,23,6,0,0,0,17,"[0, 3, 18, 17]",4,26,"[1, 2, 4, 5, 6, 7, 8, 9, 10, 11, 12, 13, 14, 15, 16, 19, 20, 21, 22, 23, 24, 25, 26, 27, 28, 29]",223.5455025,5638,1718,17,243,10,1.0832900829093166
basic,23,6,0,0,0,10,"[0, 3, 18, 17, 10]",5,22,"[1, 2, 4, 5, 6, 7, 8, 9, 11, 13, 14, 16, 19, 20, 21, 22, 23, 24, 26, 27, 28, 29]",203.8224196,6227,589,10,111,10,1.140294203414171
basic,23,6,0,0,0,24,"[0, 3, 18, 17, 10, 24]",6,19,"[1, 2, 4, 5, 6, 7, 8, 11, 13, 14, 16, 20, 21, 22, 23, 26, 27, 28, 29]",190.4060117,6696,469,10,80,10,1.1264281153820843
basic,23,6,0,0,0,16,"[0, 3, 18, 17, 10, 24, 16]",7,13,"[1, 2, 6, 7, 13, 14, 20, 21, 22, 23, 26, 27, 29]",134.3703088,8088,1392,6,21,10,2.2946652061367843
basic,23,6,0,0,0,29,"[0, 3, 18, 17, 10, 24, 16, 29]",8,7,"[6, 14, 20, 21, 22, 23, 27]",97.68243615,9111,1023,5,5,10,1.8995488998077483
basic,23,6,0,0,0,23,"[0, 3, 18, 17, 10, 24, 16, 29, 23]",9,2,"[6, 22]",50.16401866,10353,1242,2,0,10,1.8616504050291767
basic,23,6,0,0,1,6,"[0, 3, 18, 17, 10, 24, 16, 29, 23, 6]",10,0,[],14.8086796,11404,1051,1,0,10,1.7707258119152334
basic,23,6,0,1,1,6,"[0, 3, 18, 17, 10, 24, 16, 29, 23, 6]",10,0,[],14.8086796,12062,658,1,0,10,1.7707258119152334
basic,24,12,0,0,0,0,[0],1,29,"[1, 2, 3, 4, 5, 6, 7, 8, 9, 10, 11, 12, 13, 14, 15, 16, 17, 18, 19, 20, 21, 22, 23, 24, 25, 26, 27, 28, 29]",300,161,-1,2,32,9,0.0
basic,24,12,0,0,0,22,"[0, 22]",2,22,"[2, 4, 5, 6, 7, 9, 10, 12, 13, 14, 15, 16, 17, 18, 19, 21, 23, 24, 25, 27, 28, 29]",211.9943184,5016,4855,6,42,8,1.0
basic,24,12,0,0,0,16,"[0, 22, 16]",3,12,"[2, 4, 5, 6, 7, 12, 14, 19, 23, 24, 25, 27]",190.9943184,5516,500,6,24,8,1.2017164145167045
basic,24,12,0,0,0,4,"[0, 22, 16, 4]",4,9,"[2, 6, 7, 12, 14, 19, 24, 25, 27]",156.7890556,6252,736,6,14,8,1.146531713305579
basic,24,12,0,0,0,12,"[0, 22, 16, 4, 12]",5,4,"[14, 19, 24, 27]",114.5990094,7101,849,4,3,8,1.1221389456954312
basic,24,12,0,0,0,27,"[0, 22, 16, 4, 12, 27]",6,3,"[14, 19, 24]",90.24741807,8036,935,2,1,8,1.2262878338287035
basic,24,12,0,0,0,14,"[0, 22, 16, 4, 12, 27, 14]",7,1,[24],61.59432051,8903,867,1,0,8,1.2804562106751427
basic,24,12,0,0,1,24,"[0, 22, 16, 4, 12, 27, 14, 24]",8,0,[],44.38966997,9372,469,1,0,8,1.4322660007679802
basic,24,12,0,1,1,24,"[0, 22, 16, 4, 12, 27, 14, 24]",8,0,[],44.38966997,10843,1471,1,0,8,1.4322660007679802
basic,25,16,0,0,0,0,[0],1,29,"[1, 2, 3, 4, 5, 6, 7, 8, 9, 10, 11, 12, 13, 14, 15, 16, 17, 18, 19, 20, 21, 22, 23, 24, 25, 26, 27, 28, 29]",300,158,-1,13,161,9,0.0
basic,25,16,0,0,0,11,"[0, 11]",2,8,"[1, 14, 16, 17, 18, 23, 27, 28]",164.8519331,6015,5857,6,20,6,1.0
basic,25,16,0,0,0,23,"[0, 11, 23]",3,7,"[1, 14, 16, 17, 18, 27, 28]",127.9737552,6882,867,4,7,6,1.592767324400406
basic,25,16,0,0,0,14,"[0, 11, 23, 14]",4,4,"[1, 17, 18, 27]",103.8076633,7516,634,3,2,6,1.6996066862042911
basic,25,16,0,0,0,1,"[0, 11, 23, 14, 1]",5,1,[27],64.85897909,8767,1251,1,0,6,1.524833674209499
basic,25,16,0,0,1,27,"[0, 11, 23, 14, 1, 27]",6,0,[],32.60994809,10082,1315,1,0,6,1.7838693267193266
basic,25,16,0,1,1,27,"[0, 11, 23, 14, 1, 27]",6,0,[],32.60994809,10790,708,1,0,6,1.7838693267193266
basic,26,27,0,0,0,0,[0],1,26,"[1, 3, 5, 6, 7, 8, 9, 10, 11, 12, 13, 14, 15, 16, 17, 18, 19, 21, 22, 23, 24, 25, 26, 27, 28, 29]",300,161,-1,13,578,11,0.0
basic,26,27,0,0,0,15,"[0, 15]",2,24,"[1, 3, 5, 6, 7, 8, 9, 10, 11, 12, 13, 14, 16, 17, 18, 19, 21, 22, 23, 24, 25, 26, 27, 29]",263.7508621,3002,2841,6,219,11,1.0
basic,26,27,0,0,0,24,"[0, 15, 24]",3,20,"[1, 5, 6, 7, 8, 9, 10, 12, 13, 14, 16, 17, 18, 19, 21, 23, 25, 26, 27, 29]",246.5462115,3506,504,6,130,11,1.130933077698322
basic,26,27,0,0,0,17,"[0, 15, 24, 17]",4,15,"[1, 6, 8, 10, 12, 13, 14, 16, 18, 19, 23, 25, 26, 27, 29]",229.9932662,4869,1363,4,60,11,1.1285538435963374
basic,26,27,0,0,0,12,"[0, 15, 24, 17, 12]",5,14,"[1, 6, 8, 10, 13, 14, 16, 18, 19, 23, 25, 26, 27, 29]",218.8129263,5301,432,2,32,11,1.2561880288755216
basic,26,27,0,0,0,10,"[0, 15, 24, 17, 12, 10]",6,11,"[1, 8, 13, 14, 18, 19, 23, 25, 26, 27, 29]",207.7675653,5772,471,2,28,11,1.2228289337766665
basic,26,27,0,0,0,13,"[0, 15, 24, 17, 12, 10, 13]",7,9,"[1, 8, 14, 18, 19, 23, 26, 27, 29]",167.9178476,6741,969,2,18,11,1.3421291994761178
basic,26,27,0,0,0,19,"[0, 15, 24, 17, 12, 10, 13, 19]",8,5,"[1, 8, 14, 23, 29]",131.6825057,7572,831,2,6,11,1.294749956153846
basic,26,27,0,0,0,8,"[0, 15, 24, 17, 12, 10, 13, 19, 8]",9,3,"[14, 23, 29]",116.816437,8041,469,2,1,11,1.3554286578836865
basic,26,27,0,0,0,29,"[0, 15, 24, 17, 12, 10, 13, 19, 8, 29]",10,1,[14],57.61339652,9035,994,1,0,11,1.248354519573802
basic,26,27,0,0,1,14,"[0, 15, 24, 17, 12, 10, 13, 19, 8, 29, 14]",11,0,[],13.31892734,9968,933,1,0,11,1.562811097555156
basic,26,27,0,1,1,14,"[0, 15, 24, 17, 12, 10, 13, 19, 8, 29, 14]",11,0,[],13.31892734,10526,558,1,0,11,1.562811097555156
basic,27,29,0,0,0,0,[0],1,29,"[1, 2, 3, 4, 5, 6, 7, 8, 9, 10, 11, 12, 13, 14, 15, 16, 17, 18, 19, 20, 21, 22, 23, 24, 25, 26, 27, 28, 29]",300,162,-1,1,78,9,0.0
basic,27,29,0,0,0,14,"[0, 14]",2,22,"[1, 3, 4, 5, 6, 7, 9, 10, 11, 12, 13, 15, 16, 17, 21, 22, 23, 25, 26, 27, 28, 29]",209.490332,5772,5610,21,110,8,1.0
basic,27,29,0,0,0,13,"[0, 14, 13]",3,18,"[1, 4, 5, 6, 7, 9, 10, 12, 15, 16, 17, 21, 22, 25, 26, 27, 28, 29]",191.4625756,7571,1799,20,75,8,1.0027006502223275
basic,27,29,0,0,0,5,"[0, 14, 13, 5]",4,15,"[1, 4, 6, 7, 9, 12, 15, 17, 21, 22, 25, 26, 27, 28, 29]",165.7526554,8535,964,19,49,8,1.0803937325657265
basic,27,29,0,0,0,4,"[0, 14, 13, 5, 4]",5,5,"[7, 9, 12, 21, 22]",113.8585324,9269,734,5,5,8,1.0589046774357636
basic,27,29,0,0,0,9,"[0, 14, 13, 5, 4, 9]",6,3,"[7, 12, 21]",72.82196333,10083,814,2,1,8,1.2033484462540056
basic,27,29,0,0,0,7,"[0, 14, 13, 5, 4, 9, 7]",7,1,[12],43.75307962,10675,592,1,0,8,1.5581999677939193
basic,27,29,0,0,1,12,"[0, 14, 13, 5, 4, 9, 7, 12]",8,0,[],30.15160911,11137,462,1,0,8,1.747955919287298
basic,27,29,0,1,1,12,"[0, 14, 13, 5, 4, 9, 7, 12]",8,0,[],30.15160911,11960,823,1,0,8,1.747955919287298
basic,28,31,0,0,0,0,[0],1,27,"[1, 3, 4, 5, 6, 7, 8, 10, 11, 12, 13, 14, 15, 16, 17, 18, 19, 20, 21, 22, 23, 24, 25, 26, 27, 28, 29]",300,162,-1,2,87,10,0.0
basic,28,31,0,0,0,14,"[0, 14]",2,25,"[1, 3, 5, 6, 7, 8, 10, 11, 12, 13, 15, 16, 17, 18, 19, 20, 21, 22, 23, 24, 25, 26, 27, 28, 29]",263.861378,3268,3106,2,59,10,1.0
basic,28,31,0,0,0,8,"[0, 14, 8]",3,21,"[1, 3, 5, 6, 7, 10, 11, 12, 13, 16, 17, 18, 19, 20, 21, 22, 24, 25, 27, 28, 29]",229.9202525,4219,951,1,20,10,2.0146510904499166
basic,28,31,0,0,0,27,"[0, 14, 8, 27]",4,19,"[1, 3, 5, 7, 10, 11, 12, 13, 16, 17, 18, 19, 20, 21, 22, 24, 25, 28, 29]",218.8748915,4890,671,1,18,10,2.00324176742148
basic,28,31,0,0,0,18,"[0, 14, 8, 27, 18]",5,14,"[1, 5, 7, 11, 12, 13, 16, 17, 19, 20, 22, 25, 28, 29]",177.1495994,5718,828,1,14,10,1.908157899330387
basic,28,31,0,0,0,17,"[0, 14, 8, 27, 18, 17]",6,10,"[1, 5, 11, 12, 16, 19, 20, 22, 25, 28]",147.9434357,6537,819,1,8,10,1.679798517428648
basic,28,31,0,0,0,11,"[0, 14, 8, 27, 18, 17, 11]",7,5,"[5, 16, 22, 25, 28]",106.8338261,7744,1207,1,3,10,3.155231918198947
basic,28,31,0,0,0,5,"[0, 14, 8, 27, 18, 17, 11, 5]",8,2,"[16, 28]",63.15316675,8618,874,1,1,10,2.699821508416218
basic,28,31,0,0,0,28,"[0, 14, 8, 27, 18, 17, 11, 5, 28]",9,1,[16],42.92941833,10301,1683,1,0,10,2.3950097839680486
basic,28,31,0,0,1,16,"[0, 14, 8, 27, 18, 17, 11, 5, 28, 16]",10,0,[],9.313945702,11219,918,1,0,10,2.176523150016207
basic,28,31,0,1,1,16,"[0, 14, 8, 27, 18, 17, 11, 5, 28, 16]",10,0,[],9.313945702,11693,474,1,0,10,2.176523150016207
basic,29,37,0,0,0,0,[0],1,29,"[1, 2, 3, 4, 5, 6, 7, 8, 9, 10, 11, 12, 13, 14, 15, 16, 17, 18, 19, 20, 21, 22, 23, 24, 25, 26, 27, 28, 29]",300,159,-1,6,168,10,0.0
basic,29,37,0,0,0,18,"[0, 18]",2,19,"[1, 2, 4, 6, 7, 9, 10, 12, 14, 15, 17, 19, 20, 21, 22, 23, 26, 28, 29]",202.4090168,5436,5277,6,89,10,1.0
basic,29,37,0,0,0,7,"[0, 18, 7]",3,12,"[1, 2, 4, 9, 15, 17, 19, 20, 21, 22, 26, 29]",175.2428614,6120,684,6,53,10,1.0413073512834488
basic,29,37,0,0,0,22,"[0, 18, 7, 22]",4,8,"[1, 2, 4, 15, 19, 20, 21, 26]",125.2428614,7516,1396,6,29,10,1.0730792320325544
basic,29,37,0,0,0,4,"[0, 18, 7, 22, 4]",5,7,"[1, 2, 15, 19, 20, 21, 26]",100.2428614,8866,1350,4,16,10,1.2290245562206235
basic,29,37,0,0,0,2,"[0, 18, 7, 22, 4, 2]",6,5,"[1, 15, 19, 20, 21]",88.84110714,9333,467,4,7,10,1.3968113858365216
basic,29,37,0,0,0,1,"[0, 18, 7, 22, 4, 2, 1]",7,4,"[15, 19, 20, 21]",71.63645661,10256,923,4,3,10,1.4424239294761476
basic,29,37,0,0,0,15,"[0, 18, 7, 22, 4, 2, 1, 15]",8,2,"[20, 21]",31.67397421,12785,2529,2,0,10,1.612564167414217
basic,29,37,0,0,0,20,"[0, 18, 7, 22, 4, 2, 1, 15, 20]",9,1,[21],14.67397421,13383,598,1,0,10,1.9034852470814607
basic,29,37,0,0,1,21,"[0, 18, 7, 22, 4, 2, 1, 15, 20, 21]",10,0,[],0.251769103,14114,731,1,0,10,1.9314492588202221
basic,29,37,0,1,1,21,"[0, 18, 7, 22, 4, 2, 1, 15, 20, 21]",10,0,[],0.251769103,14740,626,1,0,10,1.9314492588202221
basic,30,19,0,0,0,0,[0],1,29,"[1, 2, 3, 4, 5, 6, 7, 8, 9, 10, 11, 12, 13, 14, 15, 16, 17, 18, 19, 20, 21, 22, 23, 24, 25, 26, 27, 28, 29]",300,163,-1,12,149,8,0.0
basic,30,19,0,0,0,28,"[0, 28]",2,10,"[4, 6, 9, 10, 11, 14, 20, 22, 24, 27]",136.1219966,6370,6207,2,14,7,1.0
basic,30,19,0,0,0,4,"[0, 28, 4]",3,9,"[6, 9, 10, 11, 14, 20, 22, 24, 27]",124.9416567,6873,503,2,10,7,1.0622089009735736
basic,30,19,0,0,0,14,"[0, 28, 4, 14]",4,5,"[6, 11, 20, 22, 24]",74.93165771,8294,1421,2,3,7,1.0762539106237072
basic,30,19,0,0,0,11,"[0, 28, 4, 14, 11]",5,3,"[20, 22, 24]",64.11500388,8725,431,2,1,7,1.0758449982739315
basic,30,19,0,0,0,20,"[0, 28, 4, 14, 11, 20]",6,1,[22],16.31333027,9655,930,1,0,7,1.254808614269969
basic,30,19,0,0,1,22,"[0, 28, 4, 14, 11, 20, 22]",7,0,[],3.160383832,10139,484,1,0,7,1.3933675480175218
basic,30,19,0,1,1,22,"[0, 28, 4, 14, 11, 20, 22]",7,0,[],3.160383832,10779,640,1,0,7,1.3933675480175218
basic,31,10,0,0,0,0,[0],1,29,"[1, 2, 3, 4, 5, 6, 7, 8, 9, 10, 11, 12, 13, 14, 15, 16, 17, 18, 19, 20, 21, 22, 23, 24, 25, 26, 27, 28, 29]",300,163,-1,1,100,9,0.0
basic,31,10,0,0,0,13,"[0, 13]",2,25,"[1, 2, 3, 4, 6, 7, 8, 9, 10, 11, 12, 14, 17, 18, 19, 20, 21, 22, 23, 24, 25, 26, 27, 28, 29]",249.4628849,2468,2305,1,79,9,1.0
basic,31,10,0,0,0,11,"[0, 13, 11]",3,20,"[1, 2, 3, 6, 7, 8, 9, 10, 12, 14, 18, 19, 20, 21, 22, 24, 26, 27, 28, 29]",206.4512586,3149,681,1,54,9,1.0313137484914219
basic,31,10,0,0,0,19,"[0, 13, 11, 19]",4,11,"[2, 6, 8, 9, 10, 14, 18, 20, 24, 26, 27]",170.0919407,3943,794,1,22,9,1.0879446220132545
basic,31,10,0,0,0,2,"[0, 13, 11, 19, 2]",5,4,"[14, 20, 26, 27]",126.1829439,5300,1357,1,4,9,1.06474052351343
basic,31,10,0,0,0,14,"[0, 13, 11, 19, 2, 14]",6,3,"[20, 26, 27]",114.0174188,5704,404,1,3,9,1.1628909195912238
basic,31,10,0,0,0,26,"[0, 13, 11, 19, 2, 14, 26]",7,2,"[20, 27]",79.34754716,7104,1400,1,1,9,1.6660727647633602
basic,31,10,0,0,0,20,"[0, 13, 11, 19, 2, 14, 26, 20]",8,1,[27],47.56704999,7969,865,1,0,9,2.085581809637999
basic,31,10,0,0,1,27,"[0, 13, 11, 19, 2, 14, 26, 20, 27]",9,0,[],2.312215998,8726,757,1,0,9,1.9116357409137932
basic,31,10,0,1,1,27,"[0, 13, 11, 19, 2, 14, 26, 20, 27]",9,0,[],2.312215998,9277,551,1,0,9,1.9116357409137932
basic,32,38,0,0,0,0,[0],1,29,"[1, 2, 3, 4, 5, 6, 7, 8, 9, 10, 11, 12, 13, 14, 15, 16, 17, 18, 19, 20, 21, 22, 23, 24, 25, 26, 27, 28, 29]",300,165,-1,33,506,9,0.0
basic,32,38,0,0,0,19,"[0, 19]",2,23,"[3, 4, 5, 6, 7, 8, 9, 11, 13, 14, 15, 16, 17, 18, 20, 22, 23, 24, 25, 26, 27, 28, 29]",219.5015528,3451,3286,6,61,9,1.0
basic,32,38,0,0,0,17,"[0, 19, 17]",3,21,"[3, 4, 5, 6, 7, 9, 11, 13, 14, 15, 16, 18, 20, 22, 23, 24, 25, 26, 27, 28, 29]",198.1239945,3938,487,6,53,9,1.571793785769489
basic,32,38,0,0,0,20,"[0, 19, 17, 20]",4,17,"[3, 4, 5, 6, 7, 11, 13, 14, 15, 16, 18, 22, 24, 25, 26, 27, 28]",174.3542658,4652,714,6,44,9,2.333182710277297
basic,32,38,0,0,0,13,"[0, 19, 17, 20, 13]",5,9,"[4, 11, 15, 16, 18, 24, 26, 27, 28]",125.0998244,5584,932,1,11,9,1.7893595974504246
basic,32,38,0,0,0,4,"[0, 19, 17, 20, 13, 4]",6,6,"[11, 15, 16, 24, 26, 28]",93.69918748,7317,1733,1,6,9,2.942354535547757
basic,32,38,0,0,0,15,"[0, 19, 17, 20, 13, 4, 15]",7,4,"[11, 16, 26, 28]",67.69918748,8035,718,1,3,9,3.165907365359093
basic,32,38,0,0,0,11,"[0, 19, 17, 20, 13, 4, 15, 11]",8,1,[28],31.29863803,8942,907,1,0,9,3.362710012119994
basic,32,38,0,0,1,28,"[0, 19, 17, 20, 13, 4, 15, 11, 28]",9,0,[],4.280125857,9918,976,1,0,9,2.7690631991189285
basic,32,38,0,1,1,28,"[0, 19, 17, 20, 13, 4, 15, 11, 28]",9,0,[],4.280125857,10576,658,1,0,9,2.7690631991189285
basic,33,43,0,0,0,0,[0],1,23,"[1, 2, 3, 4, 5, 6, 7, 9, 10, 11, 12, 14, 15, 16, 17, 19, 20, 21, 22, 23, 25, 27, 29]",300,155,-1,16,556,12,0.0
basic,33,43,0,0,0,29,"[0, 29]",2,22,"[1, 2, 3, 4, 5, 6, 7, 9, 10, 11, 12, 14, 15, 16, 17, 19, 20, 21, 22, 23, 25, 27]",277.909278,3146,2991,16,520,12,1.0
basic,33,43,0,0,0,20,"[0, 29, 20]",3,20,"[1, 2, 3, 4, 6, 7, 9, 10, 11, 12, 14, 15, 16, 17, 19, 21, 22, 23, 25, 27]",254.4785289,3689,543,15,422,12,1.082311746871282
basic,33,43,0,0,0,16,"[0, 29, 20, 16]",4,19,"[1, 2, 3, 4, 6, 7, 9, 10, 11, 12, 14, 15, 17, 19, 21, 22, 23, 25, 27]",231.8511119,4290,601,15,389,12,1.215201926898219
basic,33,43,0,0,0,25,"[0, 29, 20, 16, 25]",5,14,"[1, 2, 3, 4, 6, 7, 9, 11, 12, 14, 15, 19, 22, 23]",175.7708124,5138,848,53,282,11,1.566384303308987
basic,33,43,0,0,0,15,"[0, 29, 20, 16, 25, 15]",6,13,"[1, 2, 3, 4, 6, 7, 9, 11, 12, 14, 19, 22, 23]",153.0992443,5639,501,27,108,11,1.776736412604812
basic,33,43,0,0,0,12,"[0, 29, 20, 16, 25, 15, 12]",7,10,"[1, 3, 6, 7, 9, 11, 14, 19, 22, 23]",133.7860364,6138,499,21,41,11,1.6813323012225032
basic,33,43,0,0,0,3,"[0, 29, 20, 16, 25, 15, 12, 3]",8,9,"[1, 6, 7, 9, 11, 14, 19, 22, 23]",120.7860364,6706,568,20,12,11,1.608740348096123
basic,33,43,0,0,0,22,"[0, 29, 20, 16, 25, 15, 12, 3, 22]",9,6,"[1, 6, 7, 11, 14, 19]",86.07292644,7643,937,9,2,11,1.793657891802588
basic,33,43,0,0,0,19,"[0, 29, 20, 16, 25, 15, 12, 3, 22, 19]",10,3,"[1, 6, 7]",65.45739831,8805,1162,3,0,11,1.6882745891803936
basic,33,43,0,0,1,1,"[0, 29, 20, 16, 25, 15, 12, 3, 22, 19, 1]",11,0,[],37.2793927,9555,750,1,0,11,1.825064866046553
basic,33,43,0,1,1,1,"[0, 29, 20, 16, 25, 15, 12, 3, 22, 19, 1]",11,0,[],37.2793927,11547,1992,1,0,11,1.825064866046553
basic,34,14,0,0,0,0,[0],1,29,"[1, 2, 3, 4, 5, 6, 7, 8, 9, 10, 11, 12, 13, 14, 15, 16, 17, 18, 19, 20, 21, 22, 23, 24, 25, 26, 27, 28, 29]",300,161,-1,8,157,10,0.0
basic,34,14,0,0,0,15,"[0, 15]",2,20,"[1, 2, 3, 4, 7, 8, 9, 13, 17, 18, 19, 20, 21, 22, 23, 25, 26, 27, 28, 29]",216.7053423,3176,3015,8,102,10,1.0
basic,34,14,0,0,0,28,"[0, 15, 28]",3,17,"[1, 2, 3, 4, 7, 8, 9, 13, 17, 18, 19, 20, 22, 23, 25, 26, 27]",197.4959696,3618,442,8,48,10,1.0446007867311968
basic,34,14,0,0,0,17,"[0, 15, 28, 17]",4,14,"[1, 2, 3, 4, 7, 8, 13, 18, 19, 20, 22, 23, 25, 26]",184.0423455,4060,442,8,39,10,1.0729463354689972
basic,34,14,0,0,0,18,"[0, 15, 28, 17, 18]",5,9,"[1, 2, 4, 7, 8, 19, 23, 25, 26]",119.412631,4919,859,8,27,10,1.5035901079219378
basic,34,14,0,0,0,8,"[0, 15, 28, 17, 18, 8]",6,8,"[1, 2, 4, 7, 19, 23, 25, 26]",105.8111605,5319,400,8,18,10,1.4819689987843856
basic,34,14,0,0,0,1,"[0, 15, 28, 17, 18, 8, 1]",7,5,"[7, 19, 23, 25, 26]",82.21031307,6774,1455,4,6,10,1.4084991998385268
basic,34,14,0,0,0,19,"[0, 15, 28, 17, 18, 8, 1, 19]",8,4,"[7, 23, 25, 26]",66.97876686,7251,477,4,1,10,1.5758713333797987
basic,34,14,0,0,0,25,"[0, 15, 28, 17, 18, 8, 1, 19, 25]",9,2,"[7, 23]",31.1318702,8301,1050,2,0,10,1.6426186864061416
basic,34,14,0,0,1,23,"[0, 15, 28, 17, 18, 8, 1, 19, 25, 23]",10,0,[],1.72098786,9251,950,1,0,10,1.586837442491671
basic,34,14,0,1,1,23,"[0, 15, 28, 17, 18, 8, 1, 19, 25, 23]",10,0,[],1.72098786,10176,925,1,0,10,1.586837442491671
basic,35,15,0,0,0,0,[0],1,25,"[1, 2, 3, 4, 7, 8, 9, 10, 11, 12, 13, 14, 15, 16, 18, 20, 21, 22, 23, 24, 25, 26, 27, 28, 29]",300,160,-1,4,65,9,0.0
basic,35,15,0,0,0,12,"[0, 12]",2,22,"[1, 2, 3, 4, 7, 8, 9, 10, 11, 13, 14, 15, 16, 18, 21, 22, 23, 24, 26, 27, 28, 29]",213.547701,4317,4157,4,35,9,1.0
basic,35,15,0,0,0,7,"[0, 12, 7]",3,16,"[1, 3, 4, 8, 9, 10, 11, 13, 14, 15, 16, 18, 21, 22, 24, 27]",180.3061607,5037,720,4,29,9,1.411291635294361
basic,35,15,0,0,0,16,"[0, 12, 7, 16]",4,10,"[3, 4, 10, 11, 13, 14, 15, 18, 21, 22]",136.6484008,6667,1630,2,11,9,1.4308733430458784
basic,35,15,0,0,0,11,"[0, 12, 7, 16, 11]",5,7,"[3, 4, 13, 14, 15, 21, 22]",110.6291772,7566,899,2,5,9,1.5251025438826007
basic,35,15,0,0,0,3,"[0, 12, 7, 16, 11, 3]",6,5,"[4, 13, 14, 15, 22]",99.22742292,8435,869,2,3,9,1.5166583878170454
basic,35,15,0,0,0,22,"[0, 12, 7, 16, 11, 3, 22]",7,2,"[13, 15]",49.49815588,9483,1048,2,0,9,1.4519711389669923
basic,35,15,0,0,0,15,"[0, 12, 7, 16, 11, 3, 22, 15]",8,1,[13],23.88565893,10172,689,1,0,9,1.4060225827822495
basic,35,15,0,0,1,13,"[0, 12, 7, 16, 11, 3, 22, 15, 13]",9,0,[],8.621321408,10883,711,1,0,9,1.4544229719836068
basic,35,15,0,1,1,13,"[0, 12, 7, 16, 11, 3, 22, 15, 13]",9,0,[],8.621321408,11492,609,1,0,9,1.4544229719836068
basic,36,2,0,0,0,0,[0],1,23,"[1, 2, 4, 5, 6, 7, 8, 9, 12, 13, 15, 16, 17, 18, 19, 20, 22, 23, 25, 26, 27, 28, 29]",300,161,-1,70,620,10,0.0
basic,36,2,0,0,0,19,"[0, 19]",2,22,"[1, 2, 4, 5, 6, 7, 8, 9, 12, 13, 15, 16, 17, 18, 20, 22, 23, 25, 26, 27, 28, 29]",210.306076,3785,3624,67,431,10,1.0
basic,36,2,0,0,0,12,"[0, 19, 12]",3,17,"[1, 4, 5, 6, 7, 13, 15, 16, 17, 18, 20, 22, 25, 26, 27, 28, 29]",174.2921898,4618,833,66,298,10,1.1107635036313153
basic,36,2,0,0,0,5,"[0, 19, 12, 5]",4,11,"[1, 6, 7, 13, 15, 16, 18, 22, 25, 26, 29]",144.7625437,5423,805,38,136,10,1.0968174771581647
basic,36,2,0,0,0,22,"[0, 19, 12, 5, 22]",5,8,"[1, 6, 7, 13, 15, 18, 26, 29]",131.9562952,5892,469,20,63,10,1.0889910507461968
basic,36,2,0,0,0,13,"[0, 19, 12, 5, 22, 13]",6,7,"[1, 6, 7, 15, 18, 26, 29]",117.0902265,6384,492,19,20,10,1.236526217328057
basic,36,2,0,0,0,18,"[0, 19, 12, 5, 22, 13, 18]",7,4,"[7, 15, 26, 29]",81.91921567,7237,853,10,3,10,1.2128708213409936
basic,36,2,0,0,0,7,"[0, 19, 12, 5, 22, 13, 18, 7]",8,3,"[15, 26, 29]",71.62358553,7721,484,5,0,10,1.2019811287894737
basic,36,2,0,0,0,26,"[0, 19, 12, 5, 22, 13, 18, 7, 26]",9,2,"[15, 29]",48.82007703,8552,831,2,0,10,1.1883593342191134
basic,36,2,0,0,1,15,"[0, 19, 12, 5, 22, 13, 18, 7, 26, 15]",10,0,[],24.61264015,9121,569,1,0,10,1.4619750353663825
basic,36,2,0,1,1,15,"[0, 19, 12, 5, 22, 13, 18, 7, 26, 15]",10,0,[],24.61264015,10409,1288,1,0,10,1.4619750353663825
basic,37,4,0,0,0,0,[0],1,26,"[3, 4, 5, 6, 7, 8, 10, 11, 12, 13, 14, 15, 16, 17, 18, 19, 20, 21, 22, 23, 24, 25, 26, 27, 28, 29]",300,146,-1,4,489,10,0.0
basic,37,4,0,0,0,28,"[0, 28]",2,21,"[3, 4, 5, 6, 10, 11, 12, 13, 14, 15, 16, 17, 19, 20, 21, 22, 23, 24, 25, 26, 27]",225.9392142,3303,3157,2,216,10,1.0
basic,37,4,0,0,0,14,"[0, 28, 14]",3,13,"[3, 4, 5, 6, 11, 13, 16, 17, 20, 21, 22, 24, 25]",159.6972335,5155,1852,1,26,10,1.0273973946789214
basic,37,4,0,0,0,25,"[0, 28, 14, 25]",4,12,"[3, 4, 5, 6, 11, 13, 16, 17, 20, 21, 22, 24]",143.572718,5553,398,1,25,10,1.233547772313525
basic,37,4,0,0,0,11,"[0, 28, 14, 25, 11]",5,10,"[3, 4, 5, 6, 13, 16, 17, 20, 21, 22]",124.7844238,6024,471,1,15,10,1.425978575879479
basic,37,4,0,0,0,16,"[0, 28, 14, 25, 11, 16]",6,9,"[3, 4, 5, 6, 13, 17, 20, 21, 22]",109.7844238,6586,562,1,12,10,1.3799325158051412
basic,37,4,0,0,0,3,"[0, 28, 14, 25, 11, 16, 3]",7,2,"[17, 20]",68.15510719,8585,1999,1,1,9,1.3292844629725955
basic,37,4,0,0,0,17,"[0, 28, 14, 25, 11, 16, 3, 17]",8,1,[20],43.63980585,9022,437,1,0,9,1.5639571149270572
basic,37,4,0,0,1,20,"[0, 28, 14, 25, 11, 16, 3, 17, 20]",9,0,[],3.415435124,10519,1497,1,0,9,1.6231058358944275
basic,37,4,0,1,1,20,"[0, 28, 14, 25, 11, 16, 3, 17, 20]",9,0,[],3.415435124,11161,642,1,0,9,1.6231058358944275
basic,38,1,0,0,0,0,[0],1,26,"[1, 2, 4, 5, 7, 8, 9, 10, 11, 12, 13, 14, 15, 16, 17, 18, 19, 20, 21, 22, 23, 24, 25, 26, 28, 29]",300,164,-1,6,74,7,0.0
basic,38,1,0,0,0,20,"[0, 20]",2,13,"[1, 4, 5, 8, 11, 13, 14, 15, 17, 18, 19, 28, 29]",129.961769,5766,5602,2,11,6,1.0
basic,38,1,0,0,0,5,"[0, 20, 5]",3,9,"[1, 4, 8, 11, 13, 17, 18, 19, 29]",108.4908585,6282,516,2,6,6,1.0224915251419384
basic,38,1,0,0,0,18,"[0, 20, 5, 18]",4,4,"[4, 13, 17, 29]",85.66543403,7083,801,2,3,6,1.064078468417926
basic,38,1,0,0,0,4,"[0, 20, 5, 18, 4]",5,2,"[13, 29]",46.71674984,8285,1202,2,0,6,1.0731955739217967
basic,38,1,0,0,1,13,"[0, 20, 5, 18, 4, 13]",6,0,[],2.332067799,9232,947,1,0,6,1.0623276828380515
basic,38,1,0,1,1,13,"[0, 20, 5, 18, 4, 13]",6,0,[],2.332067799,10091,859,1,0,6,1.0623276828380515
basic,39,32,0,0,0,0,[0],1,29,"[1, 2, 3, 4, 5, 6, 7, 8, 9, 10, 11, 12, 13, 14, 15, 16, 17, 18, 19, 20, 21, 22, 23, 24, 25, 26, 27, 28, 29]",300,195,-1,17,359,10,0.0
basic,39,32,0,0,0,15,"[0, 15]",2,24,"[2, 3, 4, 5, 6, 7, 8, 9, 10, 11, 12, 13, 14, 16, 17, 19, 20, 22, 23, 24, 25, 26, 27, 28]",214.6185032,3321,3126,11,153,9,1.0
basic,39,32,0,0,0,28,"[0, 15, 28]",3,21,"[2, 3, 5, 7, 8, 9, 10, 11, 12, 13, 14, 16, 17, 19, 20, 22, 23, 24, 25, 26, 27]",203.2167489,3722,401,11,119,9,1.000160051986942
basic,39,32,0,0,0,12,"[0, 15, 28, 12]",4,19,"[2, 3, 5, 7, 8, 9, 10, 11, 13, 16, 17, 19, 20, 22, 23, 24, 25, 26, 27]",184.243083,5518,1796,8,71,9,1.0281484763748023
basic,39,32,0,0,0,16,"[0, 15, 28, 12, 16]",5,17,"[2, 3, 5, 7, 8, 9, 10, 11, 13, 17, 19, 20, 22, 23, 24, 26, 27]",168.5906071,6201,683,6,38,9,1.1190771370096
basic,39,32,0,0,0,22,"[0, 15, 28, 12, 16, 22]",6,10,"[2, 3, 5, 8, 9, 10, 11, 17, 20, 27]",134.7527585,6950,749,4,16,9,1.1702311155319893
basic,39,32,0,0,0,9,"[0, 15, 28, 12, 16, 22, 9]",7,6,"[2, 8, 10, 17, 20, 27]",112.5491552,8018,1068,2,4,9,1.2381424719932013
basic,39,32,0,0,0,2,"[0, 15, 28, 12, 16, 22, 9, 2]",8,1,[17],61.46099608,10034,2016,1,0,9,1.6446273109221003
basic,39,32,0,0,1,17,"[0, 15, 28, 12, 16, 22, 9, 2, 17]",9,0,[],21.64893761,10840,806,1,0,9,2.46318728800517
basic,39,32,0,1,1,17,"[0, 15, 28, 12, 16, 22, 9, 2, 17]",9,0,[],21.64893761,11310,470,1,0,9,2.46318728800517
basic,40,34,0,0,0,0,[0],1,25,"[1, 3, 4, 5, 6, 7, 8, 9, 10, 11, 12, 13, 15, 18, 19, 20, 21, 22, 23, 24, 25, 26, 27, 28, 29]",300,164,-1,12,367,10,0.0
basic,40,34,0,0,0,13,"[0, 13]",2,24,"[1, 3, 4, 5, 6, 7, 8, 9, 10, 11, 12, 15, 18, 19, 20, 21, 22, 23, 24, 25, 26, 27, 28, 29]",279.9750156,2368,2204,12,331,10,1.0
basic,40,34,0,0,0,1,"[0, 13, 1]",3,16,"[3, 5, 7, 8, 9, 10, 11, 12, 19, 21, 22, 23, 24, 25, 27, 29]",211.8574701,3206,838,3,92,10,1.0010381285747127
basic,40,34,0,0,0,8,"[0, 13, 1, 8]",4,14,"[3, 5, 7, 9, 10, 11, 12, 19, 22, 23, 24, 25, 27, 29]",201.0871405,3651,445,2,54,10,1.1636807
basic,40,34,0,0,0,25,"[0, 13, 1, 8, 25]",5,12,"[3, 5, 7, 9, 10, 11, 12, 22, 23, 24, 27, 29]",183.999133,4166,515,2,28,10,1.1396208815936457
basic,40,34,0,0,0,24,"[0, 13, 1, 8, 25, 24]",6,11,"[3, 5, 7, 9, 10, 11, 12, 22, 23, 27, 29]",166.5062774,4804,638,2,23,10,1.374180768736554
basic,40,34,0,0,0,12,"[0, 13, 1, 8, 25, 24, 12]",7,7,"[7, 9, 10, 11, 22, 23, 27]",115.4670767,6599,1795,1,8,10,1.4994254760835948
basic,40,34,0,0,0,7,"[0, 13, 1, 8, 25, 24, 12, 7]",8,5,"[9, 11, 22, 23, 27]",100.4337804,7956,1357,1,4,10,1.758992610425009
basic,40,34,0,0,0,23,"[0, 13, 1, 8, 25, 24, 12, 7, 23]",9,1,[27],72.27352467,8517,561,1,0,10,2.399781305190153
basic,40,34,0,0,1,27,"[0, 13, 1, 8, 25, 24, 12, 7, 23, 27]",10,0,[],18.60789321,10569,2052,1,0,10,4.766619878750327
basic,40,34,0,1,1,27,"[0, 13, 1, 8, 25, 24, 12, 7, 23, 27]",10,0,[],18.60789321,11158,589,1,0,10,4.766619878750327
basic,41,7,0,0,0,0,[0],1,29,"[1, 2, 3, 4, 5, 6, 7, 8, 9, 10, 11, 12, 13, 14, 15, 16, 17, 18, 19, 20, 21, 22, 23, 24, 25, 26, 27, 28, 29]",300,160,-1,3,79,9,0.0
basic,41,7,0,0,0,25,"[0, 25]",2,20,"[2, 3, 4, 5, 6, 7, 10, 13, 14, 15, 16, 18, 19, 20, 21, 22, 23, 24, 27, 28]",181.5939191,4650,4490,5,33,8,1.0
basic,41,7,0,0,0,4,"[0, 25, 4]",3,11,"[2, 6, 7, 13, 15, 16, 18, 19, 20, 21, 23]",156.8552853,5369,719,2,14,8,1.0193465608331511
basic,41,7,0,0,0,20,"[0, 25, 4, 20]",4,8,"[2, 6, 7, 13, 15, 16, 18, 19]",137.2084026,5784,415,1,9,8,1.085904909082323
basic,41,7,0,0,0,18,"[0, 25, 4, 20, 18]",5,7,"[2, 6, 7, 13, 15, 16, 19]",124.4021541,6284,500,1,5,8,1.2264883846453758
basic,41,7,0,0,0,7,"[0, 25, 4, 20, 18, 7]",6,2,"[2, 19]",83.17109789,7000,716,1,1,8,1.185264473968278
basic,41,7,0,0,0,19,"[0, 25, 4, 20, 18, 7, 19]",7,1,[2],53.76021555,7533,533,1,0,8,1.3016904288278204
basic,41,7,0,0,1,2,"[0, 25, 4, 20, 18, 7, 19, 2]",8,0,[],23.61058868,8191,658,1,0,8,1.3168868000947171
basic,41,7,0,1,1,2,"[0, 25, 4, 20, 18, 7, 19, 2]",8,0,[],23.61058868,8976,785,1,0,8,1.3168868000947171
basic,42,23,0,0,0,0,[0],1,28,"[1, 2, 3, 4, 5, 6, 7, 8, 9, 10, 11, 12, 13, 14, 15, 16, 17, 18, 19, 20, 21, 22, 23, 25, 26, 27, 28, 29]",300,161,-1,76,2626,10,0.0
basic,42,23,0,0,0,22,"[0, 22]",2,24,"[1, 2, 3, 5, 6, 7, 8, 9, 10, 11, 12, 13, 14, 15, 17, 18, 19, 20, 21, 23, 25, 26, 27, 29]",210.5013967,5300,5139,15,1362,10,1.0
basic,42,23,0,0,0,13,"[0, 22, 13]",3,14,"[1, 2, 5, 6, 7, 8, 9, 10, 12, 14, 18, 21, 27, 29]",168.3113504,5916,616,14,522,10,1.1898173563652046
basic,42,23,0,0,0,27,"[0, 22, 13, 27]",4,7,"[2, 6, 9, 12, 14, 18, 29]",123.2114613,6656,740,59,60,9,1.2347447137291254
basic,42,23,0,0,0,6,"[0, 22, 13, 27, 6]",5,5,"[2, 9, 12, 14, 29]",94.90951791,7950,1294,25,4,9,1.3650572476361236
basic,42,23,0,0,0,2,"[0, 22, 13, 27, 6, 2]",6,4,"[9, 12, 14, 29]",76.47042899,8483,533,7,2,9,1.6380738772667878
basic,42,23,0,0,0,12,"[0, 22, 13, 27, 6, 2, 12]",7,2,"[9, 14]",62.577985,8933,450,2,0,9,1.9367358574807247
basic,42,23,0,0,0,9,"[0, 22, 13, 27, 6, 2, 12, 9]",8,1,[14],48.26016394,9440,507,1,0,9,1.926849993362044
basic,42,23,0,0,1,14,"[0, 22, 13, 27, 6, 2, 12, 9, 14]",9,0,[],37.81985743,10370,930,1,0,9,1.860885019505484
basic,42,23,0,1,1,14,"[0, 22, 13, 27, 6, 2, 12, 9, 14]",9,0,[],37.81985743,11158,788,1,0,9,1.860885019505484
basic,43,0,0,0,0,0,[0],1,27,"[2, 3, 4, 5, 6, 7, 8, 9, 10, 11, 12, 13, 14, 15, 16, 17, 19, 20, 21, 22, 23, 24, 25, 26, 27, 28, 29]",300,163,-1,104,1136,9,0.0
basic,43,0,0,0,0,28,"[0, 28]",2,26,"[2, 3, 4, 5, 6, 7, 8, 9, 10, 11, 12, 13, 14, 15, 16, 17, 19, 20, 21, 22, 23, 24, 25, 26, 27, 29]",194.9190788,2526,2363,39,388,9,1.0
basic,43,0,0,0,0,5,"[0, 28, 5]",3,21,"[2, 3, 4, 7, 8, 9, 11, 12, 13, 14, 15, 16, 17, 19, 20, 21, 23, 24, 25, 26, 29]",151.2613189,4271,1745,27,210,9,1.0978295127671733
basic,43,0,0,0,0,4,"[0, 28, 5, 4]",4,16,"[3, 7, 8, 9, 11, 12, 13, 14, 15, 17, 19, 20, 21, 23, 24, 26]",126.1814465,5110,839,17,114,9,1.1103727063761901
basic,43,0,0,0,0,24,"[0, 28, 5, 4, 24]",5,12,"[3, 7, 8, 9, 11, 12, 15, 17, 19, 20, 23, 26]",114.7796922,5556,446,10,46,9,1.1102188371994124
basic,43,0,0,0,0,26,"[0, 28, 5, 4, 24, 26]",6,11,"[3, 7, 8, 9, 11, 12, 15, 17, 19, 20, 23]",97.66244947,6185,629,4,19,9,1.2524379957194889
basic,43,0,0,0,0,15,"[0, 28, 5, 4, 24, 26, 15]",7,5,"[3, 7, 8, 9, 11]",60.89289685,7508,1323,3,3,9,1.2649222014712165
basic,43,0,0,0,0,7,"[0, 28, 5, 4, 24, 26, 15, 7]",8,2,"[3, 8]",29.82844771,8454,946,2,0,9,1.3178472953616562
basic,43,0,0,0,1,8,"[0, 28, 5, 4, 24, 26, 15, 7, 8]",9,0,[],10.72347454,9918,1464,1,0,9,1.3003326445592942
basic,43,0,0,1,1,8,"[0, 28, 5, 4, 24, 26, 15, 7, 8]",9,0,[],10.72347454,10643,725,1,0,9,1.3003326445592942
basic,44,13,0,0,0,0,[0],1,29,"[1, 2, 3, 4, 5, 6, 7, 8, 9, 10, 11, 12, 13, 14, 15, 16, 17, 18, 19, 20, 21, 22, 23, 24, 25, 26, 27, 28, 29]",300,151,-1,60,2676,11,0.0
basic,44,13,0,0,0,28,"[0, 28]",2,24,"[1, 2, 3, 4, 6, 7, 8, 9, 10, 11, 12, 13, 15, 16, 17, 19, 20, 21, 22, 23, 24, 26, 27, 29]",226.3182519,2337,2186,12,378,10,1.0
basic,44,13,0,0,0,2,"[0, 28, 2]",3,20,"[1, 3, 4, 6, 7, 9, 11, 12, 13, 15, 16, 17, 19, 20, 21, 23, 24, 26, 27, 29]",188.6751915,3023,686,9,174,10,1.0158286399660754
basic,44,13,0,0,0,29,"[0, 28, 2, 29]",4,19,"[1, 3, 4, 6, 7, 9, 11, 12, 13, 15, 16, 17, 19, 20, 21, 23, 24, 26, 27]",176.9704916,3500,477,9,132,10,1.1053279759370194
basic,44,13,0,0,0,7,"[0, 28, 2, 29, 7]",5,18,"[1, 3, 4, 6, 9, 11, 12, 13, 15, 16, 17, 19, 20, 21, 23, 24, 26, 27]",161.706154,4036,536,6,72,10,1.313811244316471
basic,44,13,0,0,0,26,"[0, 28, 2, 29, 7, 26]",6,17,"[1, 3, 4, 6, 9, 11, 12, 13, 15, 16, 17, 19, 20, 21, 23, 24, 27]",151.2658475,4450,414,6,39,10,1.554636901089982
basic,44,13,0,0,0,6,"[0, 28, 2, 29, 7, 26, 6]",7,13,"[1, 3, 4, 11, 13, 15, 16, 17, 19, 20, 23, 24, 27]",131.1660963,4886,436,4,17,10,1.554967005613632
basic,44,13,0,0,0,11,"[0, 28, 2, 29, 7, 26, 6, 11]",8,6,"[1, 13, 15, 16, 17, 23]",112.0611231,5369,483,3,4,10,1.4733168623367165
basic,44,13,0,0,0,13,"[0, 28, 2, 29, 7, 26, 6, 11, 13]",9,2,"[15, 17]",55.98082354,6768,1399,2,0,10,1.3447287374536006
basic,44,13,0,0,1,15,"[0, 28, 2, 29, 7, 26, 6, 11, 13, 15]",10,0,[],16.16876507,7530,762,1,0,10,1.3473372715243728
basic,44,13,0,1,1,15,"[0, 28, 2, 29, 7, 26, 6, 11, 13, 15]",10,0,[],16.16876507,8044,514,1,0,10,1.3473372715243728
basic,45,20,0,0,0,0,[0],1,21,"[1, 2, 3, 4, 5, 6, 7, 8, 9, 12, 17, 18, 20, 21, 22, 23, 25, 26, 27, 28, 29]",300,162,-1,1,9,9,0.0
basic,45,20,0,0,0,5,"[0, 5]",2,14,"[1, 3, 4, 6, 8, 9, 12, 20, 21, 23, 26, 27, 28, 29]",174.3576505,4951,4789,3,24,7,1.0
basic,45,20,0,0,0,21,"[0, 5, 21]",3,10,"[1, 4, 6, 8, 9, 20, 23, 26, 27, 28]",129.3576505,6251,1300,3,13,7,1.000374735486217
basic,45,20,0,0,0,8,"[0, 5, 21, 8]",4,6,"[1, 6, 9, 23, 27, 28]",111.8934013,6672,421,3,7,7,1.0232558372988163
basic,45,20,0,0,0,23,"[0, 5, 21, 8, 23]",5,4,"[6, 9, 27, 28]",67.20559531,7675,1003,2,2,7,1.022001720978389
basic,45,20,0,0,0,9,"[0, 5, 21, 8, 23, 9]",6,1,[6],47.9962226,8090,415,1,0,7,1.0216742507052117
basic,45,20,0,0,1,6,"[0, 5, 21, 8, 23, 9, 6]",7,0,[],24.97449373,8690,600,1,0,7,1.037647415066349
basic,45,20,0,1,1,6,"[0, 5, 21, 8, 23, 9, 6]",7,0,[],24.97449373,9294,604,1,0,7,1.037647415066349
basic,46,25,0,0,0,0,[0],1,28,"[1, 2, 3, 4, 5, 7, 8, 9, 10, 11, 12, 13, 14, 15, 16, 17, 18, 19, 20, 21, 22, 23, 24, 25, 26, 27, 28, 29]",300,179,-1,5,94,10,0.0
basic,46,25,0,0,0,23,"[0, 23]",2,23,"[1, 2, 3, 5, 7, 8, 9, 11, 12, 13, 14, 16, 17, 19, 20, 21, 22, 24, 25, 26, 27, 28, 29]",259.7756293,3420,3241,3,33,10,1.0
basic,46,25,0,0,0,19,"[0, 23, 19]",3,21,"[1, 2, 3, 5, 7, 8, 9, 11, 12, 13, 14, 16, 17, 20, 21, 22, 24, 25, 27, 28, 29]",223.9287326,4253,833,3,24,10,1.583101227007039
basic,46,25,0,0,0,29,"[0, 23, 19, 29]",4,19,"[1, 2, 3, 5, 7, 8, 9, 11, 12, 13, 14, 16, 17, 20, 21, 22, 24, 25, 28]",207.649912,4752,499,3,17,10,1.474631541426484
basic,46,25,0,0,0,22,"[0, 23, 19, 29, 22]",5,18,"[1, 2, 3, 5, 7, 8, 9, 11, 12, 13, 14, 16, 17, 20, 21, 24, 25, 28]",191.5253965,5138,386,3,14,10,1.4020377754906637
basic,46,25,0,0,0,7,"[0, 23, 19, 29, 22, 7]",6,7,"[3, 8, 9, 11, 13, 24, 28]",115.8814939,6918,1780,3,11,10,1.5709678649326715
basic,46,25,0,0,0,24,"[0, 23, 19, 29, 22, 7, 24]",7,5,"[3, 8, 9, 13, 28]",91.12265712,7443,525,3,7,10,1.486191600033379
basic,46,25,0,0,0,9,"[0, 23, 19, 29, 22, 7, 24, 9]",8,4,"[3, 8, 13, 28]",73.09490075,7926,483,3,3,10,1.453504870342882
basic,46,25,0,0,0,3,"[0, 23, 19, 29, 22, 7, 24, 9, 3]",9,3,"[8, 13, 28]",42.82940885,11057,3131,3,0,10,1.388955167525479
basic,46,25,0,0,1,28,"[0, 23, 19, 29, 22, 7, 24, 9, 3, 28]",10,0,[],11.52445716,12171,1114,1,0,10,1.3331084120212044
basic,46,25,0,1,1,28,"[0, 23, 19, 29, 22, 7, 24, 9, 3, 28]",10,0,[],11.52445716,13161,990,1,0,10,1.3331084120212044
basic,47,41,0,0,0,0,[0],1,29,"[1, 2, 3, 4, 5, 6, 7, 8, 9, 10, 11, 12, 13, 14, 15, 16, 17, 18, 19, 20, 21, 22, 23, 24, 25, 26, 27, 28, 29]",300,145,-1,1,143,10,0.0
basic,47,41,0,0,0,13,"[0, 13]",2,23,"[1, 2, 3, 5, 6, 7, 9, 10, 11, 12, 14, 15, 17, 18, 19, 20, 21, 22, 24, 25, 26, 27, 28]",258.2747079,2771,2626,1,55,10,1.0
basic,47,41,0,0,0,28,"[0, 13, 28]",3,22,"[1, 2, 3, 5, 6, 7, 9, 10, 11, 12, 14, 15, 17, 18, 19, 20, 21, 22, 24, 25, 26, 27]",223.7928286,3424,653,1,39,10,1.895724242592676
basic,47,41,0,0,0,5,"[0, 13, 28, 5]",4,19,"[1, 2, 3, 6, 9, 10, 11, 12, 14, 15, 17, 18, 19, 20, 21, 22, 24, 25, 27]",210.1913581,4785,1361,1,34,10,2.861541269398273
basic,47,41,0,0,0,3,"[0, 13, 28, 5, 3]",5,16,"[1, 2, 6, 9, 10, 12, 14, 17, 18, 19, 20, 21, 22, 24, 25, 27]",175.3632086,7035,2250,1,22,10,3.1455488489005883
basic,47,41,0,0,0,21,"[0, 13, 28, 5, 3, 21]",6,14,"[1, 2, 6, 9, 10, 12, 14, 17, 18, 19, 20, 22, 25, 27]",143.2228912,7819,784,13,11,9,3.207558429289677
basic,47,41,0,0,0,17,"[0, 13, 28, 5, 3, 21, 17]",7,3,"[2, 9, 10]",91.5605258,9090,1271,2,1,9,3.2883270328778007
basic,47,41,0,0,0,9,"[0, 13, 28, 5, 3, 21, 17, 9]",8,1,[2],60.54440096,9668,578,1,0,9,2.9098226601812454
basic,47,41,0,0,1,2,"[0, 13, 28, 5, 3, 21, 17, 9, 2]",9,0,[],48.46135498,10089,421,1,0,9,2.780153959656953
basic,47,41,0,1,1,2,"[0, 13, 28, 5, 3, 21, 17, 9, 2]",9,0,[],48.46135498,11279,1190,1,0,9,2.780153959656953
basic,48,28,0,0,0,0,[0],1,27,"[1, 2, 3, 4, 5, 6, 7, 8, 9, 10, 11, 12, 13, 14, 15, 16, 17, 18, 19, 20, 22, 23, 25, 26, 27, 28, 29]",300,142,-1,2,96,9,0.0
basic,48,28,0,0,0,14,"[0, 14]",2,14,"[1, 2, 3, 5, 7, 10, 11, 12, 13, 17, 18, 19, 20, 26]",147.8914861,5422,5280,1,26,8,1.0
basic,48,28,0,0,0,18,"[0, 14, 18]",3,11,"[1, 2, 3, 5, 7, 11, 12, 13, 17, 19, 26]",122.3963885,6599,1177,1,23,8,1.0675599824559303
basic,48,28,0,0,0,13,"[0, 14, 18, 13]",4,7,"[2, 7, 11, 12, 17, 19, 26]",97.9832773,7165,566,1,9,8,1.0602397944415018
basic,48,28,0,0,0,12,"[0, 14, 18, 13, 12]",5,4,"[2, 7, 17, 19]",80.77862677,7837,672,1,3,8,1.0640685934245377
basic,48,28,0,0,0,7,"[0, 14, 18, 13, 12, 7]",6,2,"[2, 19]",67.62568033,8315,478,1,1,8,1.186262804928269
basic,48,28,0,0,0,19,"[0, 14, 18, 13, 12, 7, 19]",7,1,[2],39.89483108,9299,984,1,0,8,1.424576333867947
basic,48,28,0,0,1,2,"[0, 14, 18, 13, 12, 7, 19, 2]",8,0,[],2.531747699,16489,7190,1,0,8,1.4824387893309579
basic,48,28,0,1,1,2,"[0, 14, 18, 13, 12, 7, 19, 2]",8,0,[],2.531747699,17123,634,1,0,8,1.4824387893309579
basic,49,24,0,0,0,0,[0],1,29,"[1, 2, 3, 4, 5, 6, 7, 8, 9, 10, 11, 12, 13, 14, 15, 16, 17, 18, 19, 20, 21, 22, 23, 24, 25, 26, 27, 28, 29]",300,161,-1,4,76,10,0.0
basic,49,24,0,0,0,16,"[0, 16]",2,28,"[1, 2, 3, 4, 5, 6, 7, 8, 9, 10, 11, 12, 13, 14, 15, 17, 18, 19, 20, 21, 22, 23, 24, 25, 26, 27, 28, 29]",210.3562607,2101,1940,13,110,9,1.0
basic,49,24,0,0,0,22,"[0, 16, 22]",3,27,"[1, 2, 3, 4, 5, 6, 7, 8, 9, 10, 11, 12, 13, 14, 15, 17, 18, 19, 20, 21, 23, 24, 25, 26, 27, 28, 29]",192.3285043,3102,1001,7,54,9,1.0217425143037777
basic,49,24,0,0,0,8,"[0, 16, 22, 8]",4,21,"[1, 2, 3, 4, 6, 9, 10, 11, 13, 14, 15, 17, 20, 21, 23, 24, 25, 26, 27, 28, 29]",178.9120964,3666,564,4,28,9,1.0996636936037951
basic,49,24,0,0,0,15,"[0, 16, 22, 8, 15]",5,16,"[3, 4, 6, 9, 10, 11, 13, 14, 17, 23, 24, 25, 26, 27, 28, 29]",148.025206,5208,1542,3,17,9,1.2704773343758617
basic,49,24,0,0,0,28,"[0, 16, 22, 8, 15, 28]",6,8,"[3, 4, 9, 11, 13, 23, 26, 27]",102.7482803,5953,745,3,5,9,1.1981967578189556
basic,49,24,0,0,0,23,"[0, 16, 22, 8, 15, 28, 23]",7,3,"[9, 11, 27]",83.72198273,6368,415,3,1,9,1.2275650852813986
basic,49,24,0,0,0,11,"[0, 16, 22, 8, 15, 28, 23, 11]",8,2,"[9, 27]",56.79615869,6799,431,2,0,9,1.2107937989822568
basic,49,24,0,0,1,27,"[0, 16, 22, 8, 15, 28, 23, 11, 27]",9,0,[],28.99328114,7752,953,1,0,9,1.1865620449755248
basic,49,24,0,1,1,27,"[0, 16, 22, 8, 15, 28, 23, 11, 27]",9,0,[],28.99328114,8493,741,1,0,9,1.1865620449755248
basic,50,42,0,0,0,0,[0],1,29,"[1, 2, 3, 4, 5, 6, 7, 8, 9, 10, 11, 12, 13, 14, 15, 16, 17, 18, 19, 20, 21, 22, 23, 24, 25, 26, 27, 28, 29]",300,162,-1,16,302,9,0.0
basic,50,42,0,0,0,5,"[0, 5]",2,28,"[1, 2, 3, 4, 6, 7, 8, 9, 10, 11, 12, 13, 14, 15, 16, 17, 18, 19, 20, 21, 22, 23, 24, 25, 26, 27, 28, 29]",191.2939744,3219,3057,1,22,9,1.0
basic,50,42,0,0,0,4,"[0, 5, 4]",3,23,"[1, 2, 3, 6, 7, 8, 9, 10, 11, 13, 15, 17, 18, 19, 20, 21, 22, 23, 24, 25, 26, 27, 29]",171.4445412,3683,464,1,14,9,1.420957801478707
basic,50,42,0,0,0,22,"[0, 5, 4, 22]",4,20,"[1, 2, 3, 6, 7, 8, 9, 11, 15, 17, 18, 19, 20, 21, 23, 24, 25, 26, 27, 29]",160.2642013,4069,386,1,11,9,1.5771494659680896
basic,50,42,0,0,0,8,"[0, 5, 4, 22, 8]",5,14,"[1, 2, 3, 6, 7, 11, 15, 18, 19, 24, 25, 26, 27, 29]",138.1282577,4416,347,1,10,9,1.5055393955524201
basic,50,42,0,0,0,1,"[0, 5, 4, 22, 8, 1]",6,5,"[2, 7, 19, 26, 27]",89.03650682,5099,683,1,7,9,1.3547259083637835
basic,50,42,0,0,0,7,"[0, 5, 4, 22, 8, 1, 7]",7,4,"[2, 19, 26, 27]",59.03650682,5735,636,1,3,9,1.3909715672447451
basic,50,42,0,0,0,26,"[0, 5, 4, 22, 8, 1, 7, 26]",8,1,[27],32.46584631,6287,552,1,0,9,1.3511825943939393
basic,50,42,0,0,1,27,"[0, 5, 4, 22, 8, 1, 7, 26, 27]",9,0,[],14.43808994,6672,385,1,0,9,1.3391911688802078
basic,50,42,0,1,1,27,"[0, 5, 4, 22, 8, 1, 7, 26, 27]",9,0,[],14.43808994,7311,639,1,0,9,1.3391911688802078
basic,51,30,0,0,0,0,[0],1,19,"[3, 4, 5, 7, 9, 11, 16, 17, 18, 19, 20, 21, 22, 24, 25, 26, 27, 28, 29]",300,161,-1,5,41,8,0.0
basic,51,30,0,0,0,25,"[0, 25]",2,12,"[3, 5, 7, 9, 11, 16, 18, 19, 20, 24, 27, 29]",121.1005869,4120,3959,7,37,7,1.0
basic,51,30,0,0,0,20,"[0, 25, 20]",3,9,"[3, 5, 7, 9, 11, 18, 19, 27, 29]",99.16887472,4959,839,5,16,7,1.0037291321296267
basic,51,30,0,0,0,27,"[0, 25, 20, 27]",4,4,"[3, 5, 18, 29]",65.11010199,5841,882,4,6,7,1.1217072851053165
basic,51,30,0,0,0,3,"[0, 25, 20, 27, 3]",5,3,"[5, 18, 29]",46.00512882,6385,544,4,0,7,1.1140018780928678
basic,51,30,0,0,0,29,"[0, 25, 20, 27, 3, 29]",6,1,[18],27.40405358,8014,1629,1,0,7,1.119672312555708
basic,51,30,0,0,1,18,"[0, 25, 20, 27, 3, 29, 18]",7,0,[],8.090845662,8600,586,1,0,7,1.1951451398733344
basic,51,30,0,1,1,18,"[0, 25, 20, 27, 3, 29, 18]",7,0,[],8.090845662,9443,843,1,0,7,1.1951451398733344
basic,52,35,0,0,0,0,[0],1,29,"[1, 2, 3, 4, 5, 6, 7, 8, 9, 10, 11, 12, 13, 14, 15, 16, 17, 18, 19, 20, 21, 22, 23, 24, 25, 26, 27, 28, 29]",300,148,-1,5,236,11,0.0
basic,52,35,0,0,0,24,"[0, 24]",2,27,"[1, 2, 4, 5, 6, 7, 8, 9, 10, 11, 12, 13, 14, 15, 16, 17, 18, 19, 20, 21, 22, 23, 25, 26, 27, 28, 29]",268.9838752,2161,2013,49,512,10,1.0
basic,52,35,0,0,0,17,"[0, 24, 17]",3,26,"[1, 2, 4, 5, 6, 7, 8, 9, 10, 11, 12, 13, 14, 15, 16, 18, 19, 20, 21, 22, 23, 25, 26, 27, 28, 29]",257.2791753,2621,460,33,238,10,1.0771477201815276
basic,52,35,0,0,0,1,"[0, 24, 17, 1]",4,25,"[2, 4, 5, 6, 7, 8, 9, 10, 11, 12, 13, 14, 15, 16, 18, 19, 20, 21, 22, 23, 25, 26, 27, 28, 29]",241.4677869,3060,439,26,151,10,1.2244804141479215
basic,52,35,0,0,0,15,"[0, 24, 17, 1, 15]",5,23,"[2, 4, 5, 6, 7, 8, 9, 10, 11, 12, 14, 16, 18, 19, 20, 21, 22, 23, 25, 26, 27, 28, 29]",218.6204676,4004,944,26,78,10,1.4642196672428094
basic,52,35,0,0,0,23,"[0, 24, 17, 1, 15, 23]",6,11,"[4, 5, 6, 9, 18, 19, 25, 26, 27, 28, 29]",158.1804147,5654,1650,15,12,10,1.3338903684702363
basic,52,35,0,0,0,9,"[0, 24, 17, 1, 15, 23, 9]",7,6,"[5, 6, 18, 19, 25, 27]",120.5373542,6438,784,6,1,10,1.5964380615155294
basic,52,35,0,0,0,18,"[0, 24, 17, 1, 15, 23, 9, 18]",8,3,"[5, 6, 25]",100.5123698,6971,533,2,1,10,1.5508488101942703
basic,52,35,0,0,0,6,"[0, 24, 17, 1, 15, 23, 9, 18, 6]",9,1,[25],66.89689722,7588,617,1,0,10,1.541466044761729
basic,52,35,0,0,1,25,"[0, 24, 17, 1, 15, 23, 9, 18, 6, 25]",10,0,[],42.87607292,8072,484,1,0,10,1.5877595882523792
basic,52,35,0,1,1,25,"[0, 24, 17, 1, 15, 23, 9, 18, 6, 25]",10,0,[],42.87607292,8830,758,1,0,10,1.5877595882523792
basic,53,3,0,0,0,0,[0],1,29,"[1, 2, 3, 4, 5, 6, 7, 8, 9, 10, 11, 12, 13, 14, 15, 16, 17, 18, 19, 20, 21, 22, 23, 24, 25, 26, 27, 28, 29]",300,160,-1,34,427,10,0.0
basic,53,3,0,0,0,17,"[0, 17]",2,16,"[3, 4, 7, 8, 10, 12, 14, 15, 16, 19, 20, 21, 22, 24, 26, 27]",197.6965299,2171,2011,2,27,9,1.0
basic,53,3,0,0,0,20,"[0, 17, 20]",3,13,"[3, 4, 7, 8, 10, 14, 15, 16, 19, 21, 22, 24, 27]",185.0474192,2534,363,2,24,9,1.0153332121237257
basic,53,3,0,0,0,3,"[0, 17, 20, 3]",4,10,"[4, 7, 8, 10, 14, 15, 16, 19, 21, 24]",164.6513412,3003,469,2,22,9,1.0819240770773468
basic,53,3,0,0,0,19,"[0, 17, 20, 3, 19]",5,6,"[4, 8, 10, 14, 21, 24]",127.3150318,3950,947,2,11,9,1.1701070532957258
basic,53,3,0,0,0,21,"[0, 17, 20, 3, 19, 21]",6,5,"[4, 8, 10, 14, 24]",115.1084762,5069,1119,2,6,9,1.202395500952127
basic,53,3,0,0,0,14,"[0, 17, 20, 3, 19, 21, 14]",7,4,"[4, 8, 10, 24]",88.20122806,5554,485,2,2,9,1.6456130302761207
basic,53,3,0,0,1,10,"[0, 17, 20, 3, 19, 21, 14, 10]",8,0,[],42.74795535,6438,884,1,0,8,1.6337827075255185
basic,53,3,0,1,1,10,"[0, 17, 20, 3, 19, 21, 14, 10]",8,0,[],42.74795535,7359,921,1,0,8,1.6337827075255185
basic,54,17,0,0,0,0,[0],1,28,"[1, 2, 3, 4, 5, 6, 7, 8, 9, 10, 11, 12, 13, 14, 15, 16, 17, 18, 19, 20, 22, 23, 24, 25, 26, 27, 28, 29]",300,160,-1,2,73,8,0.0
basic,54,17,0,0,0,17,"[0, 17]",2,19,"[1, 2, 3, 5, 7, 8, 9, 10, 11, 12, 14, 16, 18, 19, 23, 25, 26, 27, 29]",194.4253818,2251,2091,3,56,7,1.0
basic,54,17,0,0,0,8,"[0, 17, 8]",3,14,"[2, 3, 7, 9, 10, 11, 12, 14, 16, 23, 25, 26, 27, 29]",156.2154355,3553,1302,11,17,6,1.0742762671080475
basic,54,17,0,0,0,2,"[0, 17, 8, 2]",4,5,"[7, 9, 10, 16, 27]",121.1013358,4052,499,4,3,6,1.72713973249527
basic,54,17,0,0,0,16,"[0, 17, 8, 2, 16]",5,2,"[7, 9]",104.9768203,4422,370,2,0,6,2.225242522948709
basic,54,17,0,0,1,9,"[0, 17, 8, 2, 16, 9]",6,0,[],91.6351562,4865,443,1,0,6,2.328862118556028
basic,54,17,0,1,1,9,"[0, 17, 8, 2, 16, 9]",6,0,[],91.6351562,5743,878,1,0,6,2.328862118556028
basic,55,9,0,0,0,0,[0],1,27,"[1, 3, 4, 5, 6, 7, 8, 9, 10, 11, 13, 14, 15, 16, 17, 18, 19, 20, 21, 22, 23, 24, 25, 26, 27, 28, 29]",300,130,-1,2,182,10,0.0
basic,55,9,0,0,0,8,"[0, 8]",2,25,"[1, 3, 4, 5, 6, 7, 9, 10, 11, 13, 14, 15, 16, 17, 18, 19, 20, 21, 22, 23, 24, 25, 26, 27, 28]",236.2191251,4723,4593,2,102,9,1.0
basic,55,9,0,0,0,23,"[0, 8, 23]",3,23,"[1, 3, 4, 5, 6, 7, 9, 10, 11, 13, 15, 16, 17, 18, 19, 20, 21, 22, 24, 25, 26, 27, 28]",214.7482146,6176,1453,30,187,8,1.431842876737407
basic,55,9,0,0,0,9,"[0, 8, 23, 9]",4,21,"[1, 3, 4, 5, 7, 10, 11, 13, 15, 16, 17, 18, 19, 20, 21, 22, 24, 25, 26, 27, 28]",192.3875348,6651,475,18,69,8,1.4451462661765562
basic,55,9,0,0,0,28,"[0, 8, 23, 9, 28]",5,14,"[3, 4, 7, 10, 16, 17, 18, 19, 20, 21, 22, 25, 26, 27]",151.5708715,7386,735,12,21,8,1.9983320118704992
basic,55,9,0,0,0,26,"[0, 8, 23, 9, 28, 26]",6,5,"[10, 18, 19, 20, 21]",106.7936452,8119,733,2,3,8,1.653814898167891
basic,55,9,0,0,0,21,"[0, 8, 23, 9, 28, 26, 21]",7,1,[20],52.88631729,9152,1033,1,0,8,2.0847723137498333
basic,55,9,0,0,1,20,"[0, 8, 23, 9, 28, 26, 21, 20]",8,0,[],40.80327132,9643,491,1,0,8,2.0465734418214567
basic,55,9,0,1,1,20,"[0, 8, 23, 9, 28, 26, 21, 20]",8,0,[],40.80327132,10278,635,1,0,8,2.0465734418214567
basic,56,33,0,0,0,0,[0],1,23,"[1, 2, 5, 7, 8, 11, 12, 13, 14, 15, 16, 17, 18, 19, 20, 21, 23, 24, 25, 26, 27, 28, 29]",300,146,-1,5,108,9,0.0
basic,56,33,0,0,0,21,"[0, 21]",2,17,"[2, 5, 7, 8, 11, 13, 14, 16, 17, 18, 19, 20, 24, 26, 27, 28, 29]",174.4611614,2237,2091,21,129,8,1.0
basic,56,33,0,0,0,13,"[0, 21, 13]",3,15,"[2, 5, 7, 8, 11, 14, 16, 17, 18, 19, 20, 24, 26, 28, 29]",148.0604038,3003,766,17,72,8,1.0001005298764474
basic,56,33,0,0,0,19,"[0, 21, 13, 19]",4,11,"[7, 11, 14, 16, 17, 18, 20, 24, 26, 28, 29]",122.5653063,4604,1601,10,27,8,1.0588446738393702
basic,56,33,0,0,0,24,"[0, 21, 13, 19, 24]",5,7,"[7, 14, 16, 18, 26, 28, 29]",80.51771417,6256,1652,3,5,8,1.078006777679028
basic,56,33,0,0,0,7,"[0, 21, 13, 19, 24, 7]",6,3,"[14, 26, 29]",51.31155044,8171,1915,3,1,8,1.1669985062633954
basic,56,33,0,0,0,14,"[0, 21, 13, 19, 24, 7, 14]",7,2,"[26, 29]",36.44548169,8723,552,2,0,8,1.2148465775488593
basic,56,33,0,0,1,26,"[0, 21, 13, 19, 24, 7, 14, 26]",8,0,[],23.79637105,9293,570,1,0,8,1.2208379656544521
basic,56,33,0,1,1,26,"[0, 21, 13, 19, 24, 7, 14, 26]",8,0,[],23.79637105,10195,902,1,0,8,1.2208379656544521
basic,57,22,0,0,0,0,[0],1,29,"[1, 2, 3, 4, 5, 6, 7, 8, 9, 10, 11, 12, 13, 14, 15, 16, 17, 18, 19, 20, 21, 22, 23, 24, 25, 26, 27, 28, 29]",300,161,-1,31,704,9,0.0
basic,57,22,0,0,0,20,"[0, 20]",2,15,"[1, 3, 6, 7, 8, 9, 13, 14, 15, 17, 19, 21, 23, 24, 29]",154.9138187,5785,5624,30,84,6,1.0
basic,57,22,0,0,0,3,"[0, 20, 3]",3,12,"[1, 7, 8, 13, 14, 15, 17, 19, 21, 23, 24, 29]",122.6647877,6756,971,12,21,6,1.0405949612965966
basic,57,22,0,0,0,1,"[0, 20, 3, 1]",4,3,"[17, 21, 24]",95.98145959,7218,462,3,1,6,1.039046334699271
basic,57,22,0,0,0,21,"[0, 20, 3, 1, 21]",5,2,"[17, 24]",56.15684409,7993,775,2,0,6,1.511669756556672
basic,57,22,0,0,1,24,"[0, 20, 3, 1, 21, 24]",6,0,[],28.95390307,8908,915,1,0,6,2.0207074219037806
basic,57,22,0,1,1,24,"[0, 20, 3, 1, 21, 24]",6,0,[],28.95390307,9526,618,1,0,6,2.0207074219037806
basic,58,21,0,0,0,0,[0],1,29,"[1, 2, 3, 4, 5, 6, 7, 8, 9, 10, 11, 12, 13, 14, 15, 16, 17, 18, 19, 20, 21, 22, 23, 24, 25, 26, 27, 28, 29]",300,145,-1,84,830,9,0.0
basic,58,21,0,0,0,21,"[0, 21]",2,22,"[1, 3, 4, 6, 8, 9, 10, 11, 12, 14, 15, 16, 17, 18, 20, 22, 23, 24, 25, 26, 27, 29]",210.1111798,4103,3958,1,69,9,1.0
basic,58,21,0,0,0,23,"[0, 21, 23]",3,17,"[1, 4, 6, 8, 9, 11, 12, 14, 15, 16, 17, 18, 20, 22, 24, 25, 29]",180.496994,4871,768,1,20,9,1.2068548240560575
basic,58,21,0,0,0,14,"[0, 21, 23, 14]",4,13,"[1, 4, 8, 9, 15, 16, 17, 18, 20, 22, 24, 25, 29]",151.4281103,6085,1214,1,9,9,1.297088860827702
basic,58,21,0,0,0,4,"[0, 21, 23, 14, 4]",5,9,"[8, 15, 16, 17, 18, 22, 24, 25, 29]",137.2859747,6609,524,1,8,9,1.2721354039174873
basic,58,21,0,0,0,16,"[0, 21, 23, 14, 4, 16]",6,3,"[8, 15, 24]",92.68776842,7552,943,1,3,9,1.2701343613365228
basic,58,21,0,0,0,8,"[0, 21, 23, 14, 4, 16, 8]",7,2,"[15, 24]",74.08669318,8908,1356,1,1,9,1.246922453045919
basic,58,21,0,0,0,15,"[0, 21, 23, 14, 4, 16, 8, 15]",8,1,[24],49.08669318,9937,1029,1,0,9,1.4904718261747145
basic,58,21,0,0,1,24,"[0, 21, 23, 14, 4, 16, 8, 15, 24]",9,0,[],3.381113654,10907,970,1,0,9,1.4914513287029687
basic,58,21,0,1,1,24,"[0, 21, 23, 14, 4, 16, 8, 15, 24]",9,0,[],3.381113654,11893,986,1,0,9,1.4914513287029687
basic,59,44,0,0,0,0,[0],1,29,"[1, 2, 3, 4, 5, 6, 7, 8, 9, 10, 11, 12, 13, 14, 15, 16, 17, 18, 19, 20, 21, 22, 23, 24, 25, 26, 27, 28, 29]",300,162,-1,13,126,7,0.0
basic,59,44,0,0,0,11,"[0, 11]",2,18,"[4, 5, 6, 7, 8, 9, 12, 14, 16, 17, 19, 20, 22, 23, 24, 25, 26, 28]",152.7790776,3120,2958,5,34,7,1.0
basic,59,44,0,0,0,24,"[0, 11, 24]",3,13,"[4, 5, 7, 8, 9, 12, 14, 17, 20, 22, 23, 25, 28]",125.8532535,4901,1781,5,23,7,1.1588941745226709
basic,59,44,0,0,0,9,"[0, 11, 24, 9]",4,7,"[4, 7, 8, 12, 14, 20, 23]",93.09657483,5627,726,2,8,7,1.3039383713641313
basic,59,44,0,0,0,4,"[0, 11, 24, 9, 4]",5,5,"[7, 12, 14, 20, 23]",73.39885923,6274,647,2,3,7,1.2901330701441578
basic,59,44,0,0,0,7,"[0, 11, 24, 9, 4, 7]",6,1,[23],42.38273439,6756,482,1,0,7,1.2468141312360979
basic,59,44,0,0,1,23,"[0, 11, 24, 9, 4, 7, 23]",7,0,[],23.27776121,7350,594,1,0,7,1.2635191782769477
basic,59,44,0,1,1,23,"[0, 11, 24, 9, 4, 7, 23]",7,0,[],23.27776121,7962,612,1,0,7,1.2635191782769477
basic,60,5,0,0,0,0,[0],1,29,"[1, 2, 3, 4, 5, 6, 7, 8, 9, 10, 11, 12, 13, 14, 15, 16, 17, 18, 19, 20, 21, 22, 23, 24, 25, 26, 27, 28, 29]",300,144,-1,5,139,9,0.0
basic,60,5,0,0,0,12,"[0, 12]",2,22,"[2, 4, 5, 6, 8, 9, 10, 13, 14, 15, 16, 17, 18, 19, 21, 22, 23, 24, 25, 26, 27, 28]",228.3062067,2769,2625,1,27,9,1.0
basic,60,5,0,0,0,25,"[0, 12, 25]",3,21,"[2, 4, 5, 6, 8, 9, 10, 13, 14, 15, 16, 17, 18, 19, 21, 22, 23, 24, 26, 27, 28]",200.5213187,3268,499,1,20,9,1.584023303445617
basic,60,5,0,0,0,23,"[0, 12, 25, 23]",4,19,"[2, 4, 5, 6, 8, 9, 10, 13, 14, 15, 16, 17, 18, 19, 21, 22, 24, 26, 27]",182.0822298,3768,500,1,14,9,2.3508446989254357
basic,60,5,0,0,0,24,"[0, 12, 25, 23, 24]",5,15,"[2, 4, 5, 6, 8, 9, 13, 14, 15, 17, 18, 19, 22, 26, 27]",158.995437,4302,534,1,12,9,1.9469752046288753
basic,60,5,0,0,0,17,"[0, 12, 25, 23, 24, 17]",6,7,"[4, 5, 6, 8, 15, 18, 19]",124.0097257,4884,582,1,8,9,1.6482276497563642
basic,60,5,0,0,0,5,"[0, 12, 25, 23, 24, 17, 5]",7,4,"[4, 6, 15, 18]",80.96323916,5422,538,1,3,9,1.4654649104389412
basic,60,5,0,0,1,15,"[0, 12, 25, 23, 24, 17, 5, 15]",8,0,[],40.93824697,5934,512,1,0,8,1.4660376450939663
basic,60,5,0,1,1,15,"[0, 12, 25, 23, 24, 17, 5, 15]",8,0,[],40.93824697,6593,659,1,0,8,1.4660376450939663
basic,61,11,0,0,0,0,[0],1,25,"[1, 2, 3, 4, 5, 6, 8, 9, 10, 11, 12, 13, 14, 15, 16, 17, 18, 19, 20, 22, 23, 25, 26, 27, 28]",300,161,-1,6,374,12,0.0
basic,61,11,0,0,0,17,"[0, 17]",2,18,"[1, 2, 4, 5, 6, 8, 10, 11, 12, 15, 18, 19, 22, 23, 25, 26, 27, 28]",152.9217895,3299,3138,218,762,9,1.0
basic,61,11,0,0,0,15,"[0, 17, 15]",3,16,"[1, 2, 4, 5, 6, 8, 11, 12, 18, 19, 22, 23, 25, 26, 27, 28]",140.2726789,3703,404,97,260,9,1.0182186531831565
basic,61,11,0,0,0,8,"[0, 17, 15, 8]",4,13,"[1, 2, 4, 5, 6, 11, 12, 18, 19, 22, 25, 27, 28]",126.8190548,4173,470,64,49,9,1.192650797627932
basic,61,11,0,0,0,11,"[0, 17, 15, 8, 11]",5,8,"[2, 5, 6, 12, 19, 22, 27, 28]",98.65879914,4682,509,24,0,9,1.1613605340218829
basic,61,11,0,0,0,28,"[0, 17, 15, 8, 11, 28]",6,4,"[2, 5, 19, 22]",79.24231131,6854,2172,6,0,9,1.2775081064776734
basic,61,11,0,0,0,5,"[0, 17, 15, 8, 11, 28, 5]",7,2,"[2, 22]",61.35376749,8234,1380,2,0,9,1.4668503729655582
basic,61,11,0,0,0,2,"[0, 17, 15, 8, 11, 28, 5, 2]",8,1,[22],44.35376749,8718,484,1,0,9,1.432287305983139
basic,61,11,0,0,1,22,"[0, 17, 15, 8, 11, 28, 5, 2, 22]",9,0,[],34.30389186,9138,420,1,0,9,1.4092756033804656
basic,61,11,0,1,1,22,"[0, 17, 15, 8, 11, 28, 5, 2, 22]",9,0,[],34.30389186,9943,805,1,0,9,1.4092756033804656
basic,62,36,0,0,0,0,[0],1,24,"[2, 4, 5, 6, 7, 8, 9, 10, 12, 13, 14, 15, 16, 17, 18, 19, 20, 22, 23, 25, 26, 27, 28, 29]",300,145,-1,2,200,10,0.0
basic,62,36,0,0,0,16,"[0, 16]",2,12,"[2, 8, 9, 10, 12, 13, 17, 18, 19, 23, 25, 27]",193.262003,3160,3015,20,112,8,1.0
basic,62,36,0,0,0,17,"[0, 16, 17]",3,10,"[2, 9, 10, 12, 13, 18, 19, 23, 25, 27]",164.9423985,3609,449,14,64,8,1.4289609665642613
basic,62,36,0,0,0,9,"[0, 16, 17, 9]",4,8,"[2, 10, 12, 13, 18, 19, 23, 25]",138.693589,4580,971,6,21,8,2.335567583937715
basic,62,36,0,0,0,19,"[0, 16, 17, 9, 19]",5,6,"[2, 10, 12, 13, 18, 25]",123.5608431,5053,473,6,5,8,2.2891022786553017
basic,62,36,0,0,0,2,"[0, 16, 17, 9, 19, 2]",6,3,"[10, 13, 25]",86.43942067,6168,1115,2,1,8,1.891101810711848
basic,62,36,0,0,0,25,"[0, 16, 17, 9, 19, 2, 25]",7,1,[13],61.43942067,6735,567,1,0,8,2.0836773189568087
basic,62,36,0,0,1,13,"[0, 16, 17, 9, 19, 2, 25, 13]",8,0,[],40.84816038,8446,1711,1,0,8,2.642206520923964
basic,62,36,0,1,1,13,"[0, 16, 17, 9, 19, 2, 25, 13]",8,0,[],40.84816038,8944,498,1,0,8,2.642206520923964
basic,63,18,0,0,0,0,[0],1,28,"[1, 2, 3, 4, 5, 6, 7, 8, 9, 10, 11, 12, 13, 14, 16, 17, 18, 19, 20, 21, 22, 23, 24, 25, 26, 27, 28, 29]",300,152,-1,3,136,10,0.0
basic,63,18,0,0,0,28,"[0, 28]",2,16,"[1, 3, 5, 7, 8, 9, 12, 13, 14, 16, 20, 23, 24, 25, 26, 27]",236.4311397,2674,2522,2,19,10,1.0
basic,63,18,0,0,0,7,"[0, 28, 7]",3,15,"[1, 3, 5, 8, 9, 12, 13, 14, 16, 20, 23, 24, 25, 26, 27]",214.4084242,4040,1366,2,17,10,1.4345180696367563
basic,63,18,0,0,0,25,"[0, 28, 7, 25]",4,13,"[1, 3, 5, 8, 9, 12, 13, 14, 16, 20, 23, 26, 27]",186.6055466,4607,567,2,15,10,1.8896451241781882
basic,63,18,0,0,0,8,"[0, 28, 7, 25, 8]",5,10,"[3, 5, 9, 12, 13, 14, 16, 23, 26, 27]",149.551532,5227,620,2,10,10,1.590467437592877
basic,63,18,0,0,0,13,"[0, 28, 7, 25, 8, 13]",6,9,"[3, 5, 9, 12, 14, 16, 23, 26, 27]",128.4565089,7056,1829,2,5,10,1.8248274983549797
basic,63,18,0,0,0,14,"[0, 28, 7, 25, 8, 13, 14]",7,7,"[3, 5, 9, 12, 23, 26, 27]",109.4828429,7456,400,2,3,10,1.6993534956692746
basic,63,18,0,0,0,3,"[0, 28, 7, 25, 8, 13, 14, 3]",8,3,"[5, 12, 27]",79.39962499,7955,499,2,1,10,1.802637206541468
basic,63,18,0,0,0,5,"[0, 28, 7, 25, 8, 13, 14, 3, 5]",9,1,[12],21.21887216,9206,1251,1,0,10,1.559774889743805
basic,63,18,0,0,1,12,"[0, 28, 7, 25, 8, 13, 14, 3, 5, 12]",10,0,[],9.817117911,9739,533,1,0,10,1.563993037384447
basic,63,18,0,1,1,12,"[0, 28, 7, 25, 8, 13, 14, 3, 5, 12]",10,0,[],9.817117911,10498,759,1,0,10,1.563993037384447
basic,64,26,0,0,0,0,[0],1,29,"[1, 2, 3, 4, 5, 6, 7, 8, 9, 10, 11, 12, 13, 14, 15, 16, 17, 18, 19, 20, 21, 22, 23, 24, 25, 26, 27, 28, 29]",300,163,-1,9,226,9,0.0
basic,64,26,0,0,0,21,"[0, 21]",2,25,"[2, 3, 4, 5, 6, 7, 8, 10, 11, 12, 13, 14, 15, 16, 17, 18, 19, 22, 23, 24, 25, 26, 27, 28, 29]",211.1349337,4433,4270,7,90,9,1.0
basic,64,26,0,0,0,13,"[0, 21, 13]",3,21,"[3, 4, 5, 6, 7, 8, 10, 11, 12, 14, 15, 16, 17, 18, 19, 22, 23, 24, 25, 26, 29]",188.9989901,5150,717,6,45,9,1.0103952279992225
basic,64,26,0,0,0,5,"[0, 21, 13, 5]",4,12,"[3, 4, 11, 14, 16, 17, 18, 22, 23, 25, 26, 29]",150.7106107,6065,915,2,10,8,1.0086890649024711
basic,64,26,0,0,0,23,"[0, 21, 13, 5, 23]",5,8,"[3, 4, 11, 14, 16, 17, 22, 29]",118.0150452,6620,555,2,7,8,1.3518621918690494
basic,64,26,0,0,0,16,"[0, 21, 13, 5, 23, 16]",6,4,"[4, 14, 17, 29]",64.77971862,8074,1454,2,3,8,2.1011863559657242
basic,64,26,0,0,0,29,"[0, 21, 13, 5, 23, 16, 29]",7,2,"[4, 17]",40.57228175,8732,658,2,0,8,2.123178325538451
basic,64,26,0,0,1,4,"[0, 21, 13, 5, 23, 16, 29, 4]",8,0,[],16.57228175,9257,525,1,0,8,2.338467952972574
basic,64,26,0,1,1,4,"[0, 21, 13, 5, 23, 16, 29, 4]",8,0,[],16.57228175,10658,1401,1,0,8,2.338467952972574
basic,65,39,0,0,0,0,[0],1,28,"[1, 2, 3, 4, 5, 6, 7, 9, 10, 11, 12, 13, 14, 15, 16, 17, 18, 19, 20, 21, 22, 23, 24, 25, 26, 27, 28, 29]",300,169,-1,1,30,10,0.0
basic,65,39,0,0,0,29,"[0, 29]",2,26,"[1, 2, 3, 4, 5, 6, 7, 9, 10, 12, 13, 14, 15, 16, 17, 18, 19, 20, 21, 22, 23, 24, 25, 26, 27, 28]",243.0614366,3352,3183,8,104,9,1.0
basic,65,39,0,0,0,12,"[0, 29, 12]",3,18,"[1, 2, 4, 5, 7, 9, 10, 13, 14, 15, 16, 18, 19, 22, 23, 24, 26, 28]",182.5221931,4301,949,5,54,9,1.0026200331524904
basic,65,39,0,0,0,10,"[0, 29, 12, 10]",4,16,"[1, 2, 4, 5, 7, 9, 13, 14, 15, 16, 18, 19, 22, 23, 24, 26]",147.0116313,5387,1086,5,34,9,1.2874817019928908
basic,65,39,0,0,0,7,"[0, 29, 12, 10, 7]",5,10,"[1, 2, 5, 13, 16, 18, 19, 22, 24, 26]",113.5900814,6319,932,4,12,9,1.2250826263866774
basic,65,39,0,0,0,26,"[0, 29, 12, 10, 7, 26]",6,5,"[1, 16, 18, 19, 22]",94.90853971,6772,453,3,4,9,1.2697275353190085
basic,65,39,0,0,0,22,"[0, 29, 12, 10, 7, 26, 22]",7,2,"[16, 19]",77.18849457,7203,431,2,0,9,1.438961743955176
basic,65,39,0,0,0,16,"[0, 29, 12, 10, 7, 26, 22, 16]",8,1,[19],42.18849457,8057,854,1,0,9,1.3580882130477205
basic,65,39,0,0,1,19,"[0, 29, 12, 10, 7, 26, 22, 16, 19]",9,0,[],24.72424537,8541,484,1,0,9,1.3646589157842668
basic,65,39,0,1,1,19,"[0, 29, 12, 10, 7, 26, 22, 16, 19]",9,0,[],24.72424537,9412,871,1,0,9,1.3646589157842668
basic,66,45,0,0,0,0,[0],1,24,"[1, 2, 3, 4, 5, 6, 7, 9, 10, 11, 12, 14, 15, 16, 17, 19, 20, 21, 22, 23, 24, 25, 27, 29]",300,179,-1,6,248,10,0.0
basic,66,45,0,0,0,15,"[0, 15]",2,23,"[1, 2, 3, 4, 5, 6, 7, 9, 10, 11, 12, 14, 16, 17, 19, 20, 21, 22, 23, 24, 25, 27, 29]",253.9022777,2522,2343,5,207,10,1.0
basic,66,45,0,0,0,23,"[0, 15, 23]",3,22,"[1, 2, 3, 4, 5, 6, 7, 9, 10, 11, 12, 14, 16, 17, 19, 20, 21, 22, 24, 25, 27, 29]",230.3014303,3105,583,5,163,10,1.0006068457769497
basic,66,45,0,0,0,20,"[0, 15, 23, 20]",4,19,"[1, 2, 3, 5, 6, 7, 9, 10, 11, 12, 14, 16, 17, 19, 21, 22, 24, 25, 29]",188.8647316,4717,1612,5,137,10,1.2062119754673604
basic,66,45,0,0,0,24,"[0, 15, 23, 20, 24]",5,14,"[1, 2, 3, 5, 6, 7, 9, 10, 12, 17, 19, 21, 22, 29]",145.0355176,5566,849,1,23,10,1.5044386356496664
basic,66,45,0,0,0,7,"[0, 15, 23, 20, 24, 7]",6,9,"[2, 3, 6, 10, 12, 17, 19, 22, 29]",110.6262165,6353,787,1,22,10,1.4273775035809357
basic,66,45,0,0,0,2,"[0, 15, 23, 20, 24, 7, 2]",7,6,"[3, 6, 10, 12, 22, 29]",72.61306087,7034,681,1,7,10,1.3566457419165387
basic,66,45,0,0,0,3,"[0, 15, 23, 20, 24, 7, 2, 3]",8,4,"[6, 10, 22, 29]",47.29508307,7526,492,1,3,10,1.4087069987569252
basic,66,45,0,0,0,29,"[0, 15, 23, 20, 24, 7, 2, 3, 29]",9,1,[10],27.29508307,8741,1215,1,0,10,1.6931989191216303
basic,66,45,0,0,1,10,"[0, 15, 23, 20, 24, 7, 2, 3, 29, 10]",10,0,[],5.754423843,9287,546,1,0,10,1.9996819797033594
basic,66,45,0,1,1,10,"[0, 15, 23, 20, 24, 7, 2, 3, 29, 10]",10,0,[],5.754423843,10128,841,1,0,10,1.9996819797033594
basic,67,8,0,0,0,0,[0],1,29,"[1, 2, 3, 4, 5, 6, 7, 8, 9, 10, 11, 12, 13, 14, 15, 16, 17, 18, 19, 20, 21, 22, 23, 24, 25, 26, 27, 28, 29]",300,165,-1,10,149,9,0.0
basic,67,8,0,0,0,5,"[0, 5]",2,28,"[1, 2, 3, 4, 6, 7, 8, 9, 10, 11, 12, 13, 14, 15, 16, 17, 18, 19, 20, 21, 22, 23, 24, 25, 26, 27, 28, 29]",254.5137383,11438,11273,10,100,9,1.0
basic,67,8,0,0,0,14,"[0, 5, 14]",3,20,"[1, 2, 3, 4, 6, 7, 11, 15, 16, 17, 18, 19, 20, 21, 22, 23, 24, 25, 28, 29]",214.5512559,12675,1237,4,36,9,1.0001019035932595
basic,67,8,0,0,0,17,"[0, 5, 14, 17]",4,15,"[1, 4, 6, 7, 11, 15, 16, 18, 19, 20, 22, 23, 24, 25, 28]",177.5377449,13120,445,4,16,9,1.121197267659591
basic,67,8,0,0,0,11,"[0, 5, 14, 17, 11]",5,11,"[1, 4, 15, 16, 18, 19, 22, 23, 24, 25, 28]",152.3583883,13836,716,4,8,9,1.1277254166016362
basic,67,8,0,0,0,24,"[0, 5, 14, 17, 11, 24]",6,3,"[15, 16, 28]",115.1428001,14386,550,2,2,9,1.1227411011978805
basic,67,8,0,0,0,15,"[0, 5, 14, 17, 11, 24, 15]",7,2,"[16, 28]",98.37974552,14870,484,2,0,9,1.1956385406066814
basic,67,8,0,0,0,16,"[0, 5, 14, 17, 11, 24, 15, 16]",8,1,[28],47.30137436,15943,1073,1,0,9,1.36482239111247
basic,67,8,0,0,1,28,"[0, 5, 14, 17, 11, 24, 15, 16, 28]",9,0,[],24.94069458,16443,500,1,0,9,1.632953105226947
basic,67,8,0,1,1,28,"[0, 5, 14, 17, 11, 24, 15, 16, 28]",9,0,[],24.94069458,19578,3135,1,0,9,1.632953105226947
basic,68,40,0,0,0,0,[0],1,29,"[1, 2, 3, 4, 5, 6, 7, 8, 9, 10, 11, 12, 13, 14, 15, 16, 17, 18, 19, 20, 21, 22, 23, 24, 25, 26, 27, 28, 29]",300,146,-1,8,191,9,0.0
basic,68,40,0,0,0,9,"[0, 9]",2,14,"[1, 2, 5, 6, 7, 8, 11, 17, 18, 19, 21, 22, 23, 27]",176.6711713,4224,4078,2,57,7,1.0
basic,68,40,0,0,0,18,"[0, 9, 18]",3,13,"[1, 2, 5, 6, 7, 8, 11, 17, 19, 21, 22, 23, 27]",160.1182259,4723,499,2,34,7,1.1808679722979636
basic,68,40,0,0,0,23,"[0, 9, 18, 23]",4,9,"[1, 2, 5, 6, 8, 19, 21, 22, 27]",126.1182259,6291,1568,15,5,6,1.8332822738267238
basic,68,40,0,0,0,5,"[0, 9, 18, 23, 5]",5,7,"[2, 6, 8, 19, 21, 22, 27]",97.8162825,7053,762,7,0,6,1.6439874046313232
basic,68,40,0,0,1,19,"[0, 9, 18, 23, 5, 19]",6,0,[],59.73741697,8106,1053,1,0,6,2.34193636114295
basic,68,40,0,1,1,19,"[0, 9, 18, 23, 5, 19]",6,0,[],59.73741697,9044,938,1,0,6,2.34193636114295
undo,69,40,0,0,0,0,[0],1,29,"[1, 2, 3, 4, 5, 6, 7, 8, 9, 10, 11, 12, 13, 14, 15, 16, 17, 18, 19, 20, 21, 22, 23, 24, 25, 26, 27, 28, 29]",300,164,-1,8,191,9,0.0
undo,69,40,0,0,0,1,"[0, 1]",2,18,"[2, 5, 6, 7, 8, 9, 10, 11, 13, 15, 17, 18, 19, 21, 22, 23, 27, 29]",247.8463808,5388,5224,4,80,9,1.0
undo,69,40,0,0,0,6,"[0, 1, 6]",3,17,"[2, 5, 7, 8, 9, 10, 11, 13, 15, 17, 18, 19, 21, 22, 23, 27, 29]",227.7466295,5805,417,4,74,9,1.0459427008232034
undo,69,40,0,0,0,9,"[0, 1, 6, 9]",4,10,"[2, 5, 8, 11, 18, 19, 21, 22, 23, 27]",159.146338,7043,1238,17,39,8,1.142098432552584
undo,69,40,0,0,0,18,"[0, 1, 6, 9, 18]",5,9,"[2, 5, 8, 11, 19, 21, 22, 23, 27]",142.5933926,7454,411,13,14,8,1.3288108654802917
undo,69,40,0,0,0,23,"[0, 1, 6, 9, 18, 23]",6,6,"[2, 5, 8, 19, 21, 22]",108.5933926,9295,1841,6,4,8,2.0180513009829646
undo,69,40,0,0,0,5,"[0, 1, 6, 9, 18, 23, 5]",7,2,"[19, 22]",80.29144922,9820,525,2,0,8,1.786484562843798
undo,69,40,0,0,1,19,"[0, 1, 6, 9, 18, 23, 5, 19]",8,0,[],42.21258369,10741,921,1,0,8,2.512757983735243
undo,69,40,0,1,1,19,"[0, 1, 6, 9, 18, 23, 5, 19]",8,0,[],42.21258369,11646,905,1,0,8,2.512757983735243
undo,70,2,0,0,0,0,[0],1,23,"[1, 2, 4, 5, 6, 7, 8, 9, 12, 13, 15, 16, 17, 18, 19, 20, 22, 23, 25, 26, 27, 28, 29]",300,161,-1,70,620,10,0.0
undo,70,2,0,0,0,19,"[0, 19]",2,22,"[1, 2, 4, 5, 6, 7, 8, 9, 12, 13, 15, 16, 17, 18, 20, 22, 23, 25, 26, 27, 28, 29]",210.306076,2809,2648,67,431,10,1.0
undo,70,2,0,0,0,12,"[0, 19, 12]",3,17,"[1, 4, 5, 6, 7, 13, 15, 16, 17, 18, 20, 22, 25, 26, 27, 28, 29]",174.2921898,3478,669,66,298,10,1.1107635036313153
undo,70,2,0,0,0,5,"[0, 19, 12, 5]",4,11,"[1, 6, 7, 13, 15, 16, 18, 22, 25, 26, 29]",144.7625437,4234,756,38,136,10,1.0968174771581647
undo,70,2,0,0,0,22,"[0, 19, 12, 5, 22]",5,8,"[1, 6, 7, 13, 15, 18, 26, 29]",131.9562952,4638,404,20,63,10,1.0889910507461968
undo,70,2,0,0,0,13,"[0, 19, 12, 5, 22, 13]",6,7,"[1, 6, 7, 15, 18, 26, 29]",117.0902265,5107,469,19,20,10,1.236526217328057
undo,70,2,0,0,0,18,"[0, 19, 12, 5, 22, 13, 18]",7,4,"[7, 15, 26, 29]",81.91921567,5721,614,10,3,10,1.2128708213409936
undo,70,2,0,0,0,7,"[0, 19, 12, 5, 22, 13, 18, 7]",8,3,"[15, 26, 29]",71.62358553,6151,430,5,0,10,1.2019811287894737
undo,70,2,0,0,0,15,"[0, 19, 12, 5, 22, 13, 18, 7, 15]",9,2,"[26, 29]",56.85876247,7602,1451,2,0,10,1.2907869828541363
undo,70,2,1,0,0,7,"[0, 19, 12, 5, 22, 13, 18, 7]",8,3,"[15, 26, 29]",71.62358553,9843,2241,5,0,10,1.2019811287894737
undo,70,2,0,0,0,26,"[0, 19, 12, 5, 22, 13, 18, 7, 26]",9,2,"[15, 29]",48.82007703,10934,1091,2,0,10,1.1883593342191134
undo,70,2,0,0,1,15,"[0, 19, 12, 5, 22, 13, 18, 7, 26, 15]",10,0,[],24.61264015,11717,783,1,0,10,1.4619750353663825
undo,70,2,0,1,1,15,"[0, 19, 12, 5, 22, 13, 18, 7, 26, 15]",10,0,[],24.61264015,12459,742,1,0,10,1.4619750353663825
undo,71,14,0,0,0,0,[0],1,29,"[1, 2, 3, 4, 5, 6, 7, 8, 9, 10, 11, 12, 13, 14, 15, 16, 17, 18, 19, 20, 21, 22, 23, 24, 25, 26, 27, 28, 29]",300,161,-1,8,157,10,0.0
undo,71,14,0,0,0,18,"[0, 18]",2,17,"[1, 2, 3, 4, 7, 8, 9, 13, 15, 17, 19, 20, 22, 23, 25, 26, 28]",179.8958785,4067,3906,18,136,9,1.0
undo,71,14,0,0,0,8,"[0, 18, 8]",3,13,"[1, 2, 4, 7, 13, 15, 17, 19, 20, 23, 25, 26, 28]",166.294408,4584,517,18,99,9,1.0203858410107731
undo,71,14,0,0,0,1,"[0, 18, 8, 1]",4,10,"[2, 4, 7, 15, 17, 19, 23, 25, 26, 28]",142.6935606,5752,1168,11,42,9,1.0173392374431458
undo,71,14,0,0,0,19,"[0, 18, 8, 1, 19]",5,9,"[2, 4, 7, 15, 17, 23, 25, 26, 28]",127.4620143,6167,415,11,22,9,1.1668364376922102
undo,71,14,0,0,0,25,"[0, 18, 8, 1, 19, 25]",6,5,"[2, 4, 7, 23, 26]",91.61511768,7602,1435,5,7,9,1.273103293863789
undo,71,14,0,0,0,7,"[0, 18, 8, 1, 19, 25, 7]",7,4,"[2, 4, 23, 26]",71.91740208,8024,422,2,2,9,1.3059971565497175
undo,71,14,0,0,1,4,"[0, 18, 8, 1, 19, 25, 7, 4]",8,0,[],36.18226531,8823,799,1,0,8,1.2576302477979833
undo,71,14,1,0,0,7,"[0, 18, 8, 1, 19, 25, 7]",7,4,"[2, 4, 23, 26]",71.91740208,11576,2753,2,2,9,1.3059971565497175
undo,71,14,1,0,0,25,"[0, 18, 8, 1, 19, 25]",6,5,"[2, 4, 7, 23, 26]",91.61511768,12259,683,5,7,9,1.273103293863789
undo,71,14,1,0,0,19,"[0, 18, 8, 1, 19]",5,9,"[2, 4, 7, 15, 17, 23, 25, 26, 28]",127.4620143,13494,1235,11,22,9,1.1668364376922102
undo,71,14,0,0,0,26,"[0, 18, 8, 1, 19, 26]",6,4,"[4, 7, 23, 25]",74.23608081,14502,1008,2,4,9,1.1379310743287543
undo,71,14,0,0,0,23,"[0, 18, 8, 1, 19, 26, 23]",7,3,"[4, 7, 25]",63.41942699,15082,580,2,1,9,1.25860317400474
undo,71,14,0,0,0,25,"[0, 18, 8, 1, 19, 26, 23, 25]",8,1,[7],34.00854465,15702,620,1,0,9,1.6250439771619034
undo,71,14,0,0,1,7,"[0, 18, 8, 1, 19, 26, 23, 25, 7]",9,0,[],14.31082904,16232,530,1,0,9,1.6358514342320594
undo,71,14,0,1,1,7,"[0, 18, 8, 1, 19, 26, 23, 25, 7]",9,0,[],14.31082904,17458,1226,1,0,9,1.6358514342320594
undo,72,17,0,0,0,0,[0],1,28,"[1, 2, 3, 4, 5, 6, 7, 8, 9, 10, 11, 12, 13, 14, 15, 16, 17, 18, 19, 20, 22, 23, 24, 25, 26, 27, 28, 29]",300,161,-1,2,73,8,0.0
undo,72,17,0,0,0,9,"[0, 9]",2,25,"[1, 2, 3, 5, 6, 7, 8, 10, 11, 12, 14, 15, 16, 17, 18, 19, 20, 22, 23, 24, 25, 26, 27, 28, 29]",210.5293344,3052,2891,1,34,8,1.0
undo,72,17,0,0,0,16,"[0, 9, 16]",3,21,"[1, 2, 3, 5, 7, 8, 10, 11, 12, 14, 17, 18, 19, 20, 22, 23, 25, 26, 27, 28, 29]",197.1876704,3527,475,1,26,8,1.173103464220352
undo,72,17,0,0,0,17,"[0, 9, 16, 17]",4,9,"[2, 7, 8, 10, 12, 14, 26, 27, 29]",155.5103384,4301,774,2,9,7,1.3686022655428802
undo,72,17,0,0,0,2,"[0, 9, 16, 17, 2]",5,4,"[7, 8, 10, 27]",117.1828026,5001,700,1,3,7,1.764970391617776
undo,72,17,0,0,0,8,"[0, 9, 16, 17, 2, 8]",6,1,[7],82.06870286,6400,1399,1,0,7,1.6282583682866314
undo,72,17,0,0,1,7,"[0, 9, 16, 17, 2, 8, 7]",7,0,[],11.35802474,7809,1409,1,0,7,1.5695874876804634
undo,72,17,0,1,1,7,"[0, 9, 16, 17, 2, 8, 7]",7,0,[],11.35802474,8311,502,1,0,7,1.5695874876804634
undo,73,42,0,0,0,0,[0],1,29,"[1, 2, 3, 4, 5, 6, 7, 8, 9, 10, 11, 12, 13, 14, 15, 16, 17, 18, 19, 20, 21, 22, 23, 24, 25, 26, 27, 28, 29]",300,181,-1,16,302,9,0.0
undo,73,42,0,0,0,5,"[0, 5]",2,28,"[1, 2, 3, 4, 6, 7, 8, 9, 10, 11, 12, 13, 14, 15, 16, 17, 18, 19, 20, 21, 22, 23, 24, 25, 26, 27, 28, 29]",191.2939744,3321,3140,1,22,9,1.0
undo,73,42,0,0,0,4,"[0, 5, 4]",3,23,"[1, 2, 3, 6, 7, 8, 9, 10, 11, 13, 15, 17, 18, 19, 20, 21, 22, 23, 24, 25, 26, 27, 29]",171.4445412,4136,815,1,14,9,1.420957801478707
undo,73,42,0,0,0,22,"[0, 5, 4, 22]",4,20,"[1, 2, 3, 6, 7, 8, 9, 11, 15, 17, 18, 19, 20, 21, 23, 24, 25, 26, 27, 29]",160.2642013,4755,619,1,11,9,1.5771494659680896
undo,73,42,0,0,0,8,"[0, 5, 4, 22, 8]",5,14,"[1, 2, 3, 6, 7, 11, 15, 18, 19, 24, 25, 26, 27, 29]",138.1282577,5504,749,1,10,9,1.5055393955524201
undo,73,42,0,0,0,1,"[0, 5, 4, 22, 8, 1]",6,5,"[2, 7, 19, 26, 27]",89.03650682,6403,899,1,7,9,1.3547259083637835
undo,73,42,0,0,0,7,"[0, 5, 4, 22, 8, 1, 7]",7,4,"[2, 19, 26, 27]",59.03650682,7103,700,1,3,9,1.3909715672447451
undo,73,42,0,0,0,26,"[0, 5, 4, 22, 8, 1, 7, 26]",8,1,[27],32.46584631,7673,570,1,0,9,1.3511825943939393
undo,73,42,0,0,1,27,"[0, 5, 4, 22, 8, 1, 7, 26, 27]",9,0,[],14.43808994,10370,2697,1,0,9,1.3391911688802078
undo,73,42,0,1,1,27,"[0, 5, 4, 22, 8, 1, 7, 26, 27]",9,0,[],14.43808994,10879,509,1,0,9,1.3391911688802078
undo,74,32,0,0,0,0,[0],1,29,"[1, 2, 3, 4, 5, 6, 7, 8, 9, 10, 11, 12, 13, 14, 15, 16, 17, 18, 19, 20, 21, 22, 23, 24, 25, 26, 27, 28, 29]",300,196,-1,17,359,10,0.0
undo,74,32,0,0,0,15,"[0, 15]",2,24,"[2, 3, 4, 5, 6, 7, 8, 9, 10, 11, 12, 13, 14, 16, 17, 19, 20, 22, 23, 24, 25, 26, 27, 28]",214.6185032,1924,1728,11,153,9,1.0
undo,74,32,0,0,0,28,"[0, 15, 28]",3,21,"[2, 3, 5, 7, 8, 9, 10, 11, 12, 13, 14, 16, 17, 19, 20, 22, 23, 24, 25, 26, 27]",203.2167489,2337,413,11,119,9,1.000160051986942
undo,74,32,0,0,0,12,"[0, 15, 28, 12]",4,19,"[2, 3, 5, 7, 8, 9, 10, 11, 13, 16, 17, 19, 20, 22, 23, 24, 25, 26, 27]",184.243083,2972,635,8,71,9,1.0281484763748023
undo,74,32,0,0,0,16,"[0, 15, 28, 12, 16]",5,17,"[2, 3, 5, 7, 8, 9, 10, 11, 13, 17, 19, 20, 22, 23, 24, 26, 27]",168.5906071,4309,1337,6,38,9,1.1190771370096
undo,74,32,0,0,0,22,"[0, 15, 28, 12, 16, 22]",6,10,"[2, 3, 5, 8, 9, 10, 11, 17, 20, 27]",134.7527585,5023,714,4,16,9,1.1702311155319893
undo,74,32,0,0,0,9,"[0, 15, 28, 12, 16, 22, 9]",7,6,"[2, 8, 10, 17, 20, 27]",112.5491552,6671,1648,2,4,9,1.2381424719932013
undo,74,32,0,0,0,8,"[0, 15, 28, 12, 16, 22, 9, 8]",8,1,[20],67.42709849,7821,1150,1,0,9,1.187013645273504
undo,74,32,0,0,1,20,"[0, 15, 28, 12, 16, 22, 9, 8, 20]",9,0,[],17.09818036,9458,1637,1,0,9,1.3986201165175596
undo,74,32,0,1,1,20,"[0, 15, 28, 12, 16, 22, 9, 8, 20]",9,0,[],17.09818036,9962,504,1,0,9,1.3986201165175596
undo,75,45,0,0,0,0,[0],1,24,"[1, 2, 3, 4, 5, 6, 7, 9, 10, 11, 12, 14, 15, 16, 17, 19, 20, 21, 22, 23, 24, 25, 27, 29]",300,145,-1,6,248,10,0.0
undo,75,45,0,0,0,15,"[0, 15]",2,23,"[1, 2, 3, 4, 5, 6, 7, 9, 10, 11, 12, 14, 16, 17, 19, 20, 21, 22, 23, 24, 25, 27, 29]",253.9022777,2216,2071,5,207,10,1.0
undo,75,45,0,0,0,23,"[0, 15, 23]",3,22,"[1, 2, 3, 4, 5, 6, 7, 9, 10, 11, 12, 14, 16, 17, 19, 20, 21, 22, 24, 25, 27, 29]",230.3014303,2886,670,5,163,10,1.0006068457769497
undo,75,45,0,0,0,20,"[0, 15, 23, 20]",4,19,"[1, 2, 3, 5, 6, 7, 9, 10, 11, 12, 14, 16, 17, 19, 21, 22, 24, 25, 29]",188.8647316,3687,801,5,137,10,1.2062119754673604
undo,75,45,0,0,0,24,"[0, 15, 23, 20, 24]",5,14,"[1, 2, 3, 5, 6, 7, 9, 10, 12, 17, 19, 21, 22, 29]",145.0355176,4621,934,1,23,10,1.5044386356496664
undo,75,45,0,0,0,7,"[0, 15, 23, 20, 24, 7]",6,9,"[2, 3, 6, 10, 12, 17, 19, 22, 29]",110.6262165,5151,530,1,22,10,1.4273775035809357
undo,75,45,0,0,0,2,"[0, 15, 23, 20, 24, 7, 2]",7,6,"[3, 6, 10, 12, 22, 29]",72.61306087,6070,919,1,7,10,1.3566457419165387
undo,75,45,0,0,0,3,"[0, 15, 23, 20, 24, 7, 2, 3]",8,4,"[6, 10, 22, 29]",47.29508307,7072,1002,1,3,10,1.4087069987569252
undo,75,45,0,0,0,29,"[0, 15, 23, 20, 24, 7, 2, 3, 29]",9,1,[10],27.29508307,7472,400,1,0,10,1.6931989191216303
undo,75,45,0,0,1,10,"[0, 15, 23, 20, 24, 7, 2, 3, 29, 10]",10,0,[],5.754423843,8424,952,1,0,10,1.9996819797033594
undo,75,45,0,1,1,10,"[0, 15, 23, 20, 24, 7, 2, 3, 29, 10]",10,0,[],5.754423843,8877,453,1,0,10,1.9996819797033594
undo,76,31,0,0,0,0,[0],1,27,"[1, 3, 4, 5, 6, 7, 8, 10, 11, 12, 13, 14, 15, 16, 17, 18, 19, 20, 21, 22, 23, 24, 25, 26, 27, 28, 29]",300,197,-1,2,87,10,0.0
undo,76,31,0,0,0,14,"[0, 14]",2,25,"[1, 3, 5, 6, 7, 8, 10, 11, 12, 13, 15, 16, 17, 18, 19, 20, 21, 22, 23, 24, 25, 26, 27, 28, 29]",263.861378,2862,2665,2,59,10,1.0
undo,76,31,0,0,0,27,"[0, 14, 27]",3,22,"[1, 3, 5, 6, 7, 8, 10, 11, 12, 13, 15, 16, 17, 18, 19, 20, 21, 22, 24, 25, 28, 29]",235.6833724,3988,1126,1,39,10,1.5881859159302467
undo,76,31,0,0,0,8,"[0, 14, 27, 8]",4,20,"[1, 3, 5, 6, 7, 10, 11, 12, 13, 16, 17, 18, 19, 20, 21, 22, 24, 25, 28, 29]",224.6380114,5339,1351,1,36,10,2.1665048452331277
undo,76,31,0,0,0,18,"[0, 14, 27, 8, 18]",5,15,"[1, 5, 6, 7, 11, 12, 13, 16, 17, 19, 20, 22, 25, 28, 29]",188.7911147,6418,1079,1,26,10,1.7273375741920205
undo,76,31,0,0,0,17,"[0, 14, 27, 8, 18, 17]",6,13,"[1, 5, 6, 7, 11, 12, 13, 16, 19, 20, 22, 25, 28]",159.584951,7043,625,1,13,10,1.551192427769927
undo,76,31,0,0,0,11,"[0, 14, 27, 8, 18, 17, 11]",7,7,"[5, 12, 16, 19, 22, 25, 28]",118.4753414,7787,744,1,4,10,2.9650760544203494
undo,76,31,0,0,0,5,"[0, 14, 27, 8, 18, 17, 11, 5]",8,2,"[16, 28]",74.79468207,8570,783,1,1,10,2.56711965625205
undo,76,31,0,0,0,28,"[0, 14, 27, 8, 18, 17, 11, 5, 28]",9,1,[16],54.57093365,9143,573,1,0,10,2.2865510762058148
undo,76,31,0,0,1,16,"[0, 14, 27, 8, 18, 17, 11, 5, 28, 16]",10,0,[],20.95546102,9973,830,1,0,10,2.089356850786318
undo,76,31,0,1,1,16,"[0, 14, 27, 8, 18, 17, 11, 5, 28, 16]",10,0,[],20.95546102,10395,422,1,0,10,2.089356850786318
undo,77,13,0,0,0,0,[0],1,29,"[1, 2, 3, 4, 5, 6, 7, 8, 9, 10, 11, 12, 13, 14, 15, 16, 17, 18, 19, 20, 21, 22, 23, 24, 25, 26, 27, 28, 29]",300,164,-1,60,2676,11,0.0
undo,77,13,0,0,0,28,"[0, 28]",2,24,"[1, 2, 3, 4, 6, 7, 8, 9, 10, 11, 12, 13, 15, 16, 17, 19, 20, 21, 22, 23, 24, 26, 27, 29]",226.3182519,3523,3359,12,378,10,1.0
undo,77,13,0,0,0,2,"[0, 28, 2]",3,20,"[1, 3, 4, 6, 7, 9, 11, 12, 13, 15, 16, 17, 19, 20, 21, 23, 24, 26, 27, 29]",188.6751915,4286,763,9,174,10,1.0158286399660754
