condition,trial_id,map_id,undoIndicator,submit,checkEnd,currentChoice,chosen_all,n_city_all,n_within_reach,cities_reach,currentBudget,time_all,rt_all,n_opt_paths_all,n_subopt_paths_all,mas_all,tortuosity_all
undo,0,44,0,0,0,0,[0],1,29,"[1, 2, 3, 4, 5, 6, 7, 8, 9, 10, 11, 12, 13, 14, 15, 16, 17, 18, 19, 20, 21, 22, 23, 24, 25, 26, 27, 28, 29]",300,196,-1,13,126,7,0.0
undo,0,44,0,0,0,8,"[0, 8]",2,17,"[1, 4, 5, 7, 9, 10, 11, 12, 13, 14, 15, 20, 21, 23, 24, 25, 27]",145.7923478,10189,9993,1,10,7,1.0
undo,0,44,0,0,0,20,"[0, 8, 20]",3,16,"[1, 4, 5, 7, 9, 10, 11, 12, 13, 14, 15, 21, 23, 24, 25, 27]",133.7093018,11002,813,1,9,7,1.0890794433668698
undo,0,44,0,0,0,9,"[0, 8, 20, 9]",4,7,"[4, 7, 11, 12, 14, 23, 24]",76.43801756,12365,1363,1,6,7,1.40892325509949
undo,0,44,0,0,0,4,"[0, 8, 20, 9, 4]",5,4,"[7, 12, 23, 24]",56.74030196,13526,1161,1,3,7,1.3849770570803555
undo,0,44,0,0,0,7,"[0, 8, 20, 9, 4, 7]",6,1,[23],25.72417712,14432,906,1,0,7,1.3274380931474288
undo,0,44,0,0,1,23,"[0, 8, 20, 9, 4, 7, 23]",7,0,[],6.619203947,15332,900,1,0,7,1.3395824779823196
undo,0,44,0,1,1,23,"[0, 8, 20, 9, 4, 7, 23]",7,0,[],6.619203947,16972,1640,1,0,7,1.3395824779823196
undo,1,35,0,0,0,0,[0],1,29,"[1, 2, 3, 4, 5, 6, 7, 8, 9, 10, 11, 12, 13, 14, 15, 16, 17, 18, 19, 20, 21, 22, 23, 24, 25, 26, 27, 28, 29]",300,187,-1,5,236,11,0.0
undo,1,35,0,0,0,24,"[0, 24]",2,27,"[1, 2, 4, 5, 6, 7, 8, 9, 10, 11, 12, 13, 14, 15, 16, 17, 18, 19, 20, 21, 22, 23, 25, 26, 27, 28, 29]",268.9838752,3331,3144,49,512,10,1.0
undo,1,35,0,0,0,17,"[0, 24, 17]",3,26,"[1, 2, 4, 5, 6, 7, 8, 9, 10, 11, 12, 13, 14, 15, 16, 18, 19, 20, 21, 22, 23, 25, 26, 27, 28, 29]",257.2791753,4183,852,33,238,10,1.0771477201815276
undo,1,35,0,0,0,1,"[0, 24, 17, 1]",4,25,"[2, 4, 5, 6, 7, 8, 9, 10, 11, 12, 13, 14, 15, 16, 18, 19, 20, 21, 22, 23, 25, 26, 27, 28, 29]",241.4677869,5049,866,26,151,10,1.2244804141479215
undo,1,35,0,0,0,23,"[0, 24, 17, 1, 23]",5,14,"[2, 4, 5, 6, 9, 15, 18, 19, 20, 25, 26, 27, 28, 29]",182.9442874,6427,1378,25,33,9,1.1009726708851126
undo,1,35,0,0,0,9,"[0, 24, 17, 1, 23, 9]",6,8,"[5, 6, 15, 18, 19, 25, 27, 28]",145.3012269,9216,2789,7,6,9,1.376147155000847
undo,1,35,0,0,0,18,"[0, 24, 17, 1, 23, 9, 18]",7,5,"[5, 6, 15, 19, 25]",125.2762426,10167,951,3,3,9,1.3583304940000351
undo,1,35,0,0,0,6,"[0, 24, 17, 1, 23, 9, 18, 6]",8,2,"[5, 25]",91.66076992,11883,1716,2,0,9,1.3777073111858877
undo,1,35,0,0,1,25,"[0, 24, 17, 1, 23, 9, 18, 6, 25]",9,0,[],67.63994563,12749,866,1,0,9,1.4348408117538762
undo,1,35,0,1,1,25,"[0, 24, 17, 1, 23, 9, 18, 6, 25]",9,0,[],67.63994563,14707,1958,1,0,9,1.4348408117538762
undo,2,9,0,0,0,0,[0],1,27,"[1, 3, 4, 5, 6, 7, 8, 9, 10, 11, 13, 14, 15, 16, 17, 18, 19, 20, 21, 22, 23, 24, 25, 26, 27, 28, 29]",300,203,-1,2,182,10,0.0
undo,2,9,0,0,0,8,"[0, 8]",2,25,"[1, 3, 4, 5, 6, 7, 9, 10, 11, 13, 14, 15, 16, 17, 18, 19, 20, 21, 22, 23, 24, 25, 26, 27, 28]",236.2191251,4789,4586,2,102,9,1.0
undo,2,9,0,0,0,28,"[0, 8, 28]",3,23,"[1, 3, 4, 5, 6, 7, 9, 10, 11, 13, 15, 16, 17, 18, 19, 20, 21, 22, 23, 24, 25, 26, 27]",225.4024713,5631,842,2,52,9,1.0043219354187498
undo,2,9,0,0,0,26,"[0, 8, 28, 26]",4,22,"[1, 3, 4, 5, 6, 7, 9, 10, 11, 13, 15, 16, 17, 18, 19, 20, 21, 22, 23, 24, 25, 27]",180.6252449,6571,940,2,14,9,1.0218284416881065
undo,2,9,0,0,0,18,"[0, 8, 28, 26, 18]",5,13,"[1, 3, 5, 6, 9, 13, 15, 16, 19, 20, 21, 23, 24]",119.7483199,8422,1851,2,6,9,1.0343247703783052
undo,2,9,0,0,0,5,"[0, 8, 28, 26, 18, 5]",6,3,"[1, 13, 24]",55.85778854,9767,1345,2,4,9,1.0965846847367935
undo,2,9,0,0,0,13,"[0, 8, 28, 26, 18, 5, 13]",7,2,"[1, 24]",40.59345102,11038,1271,2,0,9,1.1139896497149246
undo,2,9,0,0,0,24,"[0, 8, 28, 26, 18, 5, 13, 24]",8,1,[1],23.10059533,12024,986,1,0,9,1.1088313254366502
undo,2,9,0,0,1,1,"[0, 8, 28, 26, 18, 5, 13, 24, 1]",9,0,[],2.100595335,13019,995,1,0,9,1.2171433313097024
undo,2,9,0,1,1,1,"[0, 8, 28, 26, 18, 5, 13, 24, 1]",9,0,[],2.100595335,14678,1659,1,0,9,1.2171433313097024
undo,3,26,0,0,0,0,[0],1,29,"[1, 2, 3, 4, 5, 6, 7, 8, 9, 10, 11, 12, 13, 14, 15, 16, 17, 18, 19, 20, 21, 22, 23, 24, 25, 26, 27, 28, 29]",300,181,-1,9,226,9,0.0
undo,3,26,0,0,0,10,"[0, 10]",2,6,"[4, 6, 14, 16, 17, 29]",138.1822012,6255,6074,9,66,7,1.0
undo,3,26,0,0,0,6,"[0, 10, 6]",3,5,"[4, 14, 16, 17, 29]",108.9076389,7206,951,8,23,7,1.1897813099332413
undo,3,26,0,0,0,14,"[0, 10, 6, 14]",4,4,"[4, 16, 17, 29]",87.88384285,7889,683,4,6,7,1.3162481558218453
undo,3,26,0,0,0,17,"[0, 10, 6, 14, 17]",5,3,"[4, 16, 29]",65.41163779,8759,870,3,1,7,1.6510075497064465
undo,3,26,0,0,0,4,"[0, 10, 6, 14, 17, 4]",6,1,[29],44.31661468,9557,798,1,0,7,2.1095586782058087
undo,3,26,0,0,1,29,"[0, 10, 6, 14, 17, 4, 29]",7,0,[],20.31661468,10371,814,1,0,7,2.288952413143475
undo,3,26,1,0,0,4,"[0, 10, 6, 14, 17, 4]",6,1,[29],44.31661468,13810,3439,1,0,7,2.1095586782058087
undo,3,26,1,0,0,17,"[0, 10, 6, 14, 17]",5,3,"[4, 16, 29]",65.41163779,14627,817,3,1,7,1.6510075497064465
undo,3,26,1,0,0,14,"[0, 10, 6, 14]",4,4,"[4, 16, 17, 29]",87.88384285,15143,516,4,6,7,1.3162481558218453
undo,3,26,1,0,0,6,"[0, 10, 6]",3,5,"[4, 14, 16, 17, 29]",108.9076389,15560,417,8,23,7,1.1897813099332413
undo,3,26,1,0,0,10,"[0, 10]",2,6,"[4, 6, 14, 16, 17, 29]",138.1822012,15911,351,9,66,7,1.0
undo,3,26,1,0,0,0,[0],1,29,"[1, 2, 3, 4, 5, 6, 7, 8, 9, 10, 11, 12, 13, 14, 15, 16, 17, 18, 19, 20, 21, 22, 23, 24, 25, 26, 27, 28, 29]",300,16127,216,9,226,9,0.0
undo,3,26,0,0,0,4,"[0, 4]",2,13,"[5, 6, 10, 12, 13, 14, 16, 17, 19, 21, 23, 26, 29]",178.7976898,17606,1479,4,118,8,1.0
undo,3,26,0,0,0,17,"[0, 4, 17]",3,10,"[5, 6, 10, 12, 13, 14, 16, 21, 23, 29]",157.7026667,18401,795,1,35,8,1.0014732588101924
undo,3,26,0,0,0,14,"[0, 4, 17, 14]",4,8,"[5, 6, 10, 13, 16, 21, 23, 29]",135.2304616,19070,669,8,10,7,1.0224473419120523
undo,3,26,0,0,0,29,"[0, 4, 17, 14, 29]",5,6,"[6, 10, 13, 16, 21, 23]",93.99940537,19973,903,4,4,7,1.6859262399439026
undo,3,26,0,0,0,16,"[0, 4, 17, 14, 29, 16]",6,3,"[13, 21, 23]",69.7919685,22040,2067,3,0,7,2.056412703801212
undo,3,26,0,0,1,21,"[0, 4, 17, 14, 29, 16, 21]",7,0,[],9.883705294,24924,2884,1,0,7,3.2646832657817635
undo,3,26,0,1,1,21,"[0, 4, 17, 14, 29, 16, 21]",7,0,[],9.883705294,27544,2620,1,0,7,3.2646832657817635
undo,4,39,0,0,0,0,[0],1,28,"[1, 2, 3, 4, 5, 6, 7, 9, 10, 11, 12, 13, 14, 15, 16, 17, 18, 19, 20, 21, 22, 23, 24, 25, 26, 27, 28, 29]",300,195,-1,1,30,10,0.0
undo,4,39,0,0,0,14,"[0, 14]",2,26,"[1, 2, 3, 4, 5, 6, 7, 9, 10, 12, 13, 15, 16, 17, 18, 19, 20, 21, 22, 23, 24, 25, 26, 27, 28, 29]",286.9615952,7661,7466,1,22,10,1.0
undo,4,39,0,0,0,29,"[0, 14, 29]",3,23,"[1, 2, 3, 4, 5, 6, 7, 9, 10, 12, 13, 15, 16, 17, 18, 19, 21, 22, 23, 24, 25, 26, 28]",218.9321898,8846,1185,1,21,10,1.4237768813412561
undo,4,39,0,0,0,12,"[0, 14, 29, 12]",4,16,"[1, 2, 4, 5, 7, 9, 10, 13, 15, 16, 18, 19, 22, 23, 24, 26]",158.3929463,10058,1212,1,11,10,1.2085522586932163
undo,4,39,0,0,0,10,"[0, 14, 29, 12, 10]",5,11,"[1, 4, 5, 7, 15, 16, 18, 19, 22, 23, 26]",122.8823845,11044,986,1,8,10,1.4905426536315662
undo,4,39,0,0,0,7,"[0, 14, 29, 12, 10, 7]",6,6,"[1, 16, 18, 19, 22, 26]",89.46083457,11860,816,1,6,10,1.3836596018032035
undo,4,39,0,0,0,26,"[0, 14, 29, 12, 10, 7, 26]",7,3,"[16, 19, 22]",70.77929288,12561,701,1,4,10,1.4191124441944845
undo,4,39,0,0,0,22,"[0, 14, 29, 12, 10, 7, 26, 22]",8,2,"[16, 19]",53.05924773,13465,904,1,1,10,1.594793297833885
undo,4,39,0,0,0,16,"[0, 14, 29, 12, 10, 7, 26, 22, 16]",9,1,[19],18.05924773,14308,843,1,0,10,1.48519520801471
undo,4,39,0,0,1,19,"[0, 14, 29, 12, 10, 7, 26, 22, 16, 19]",10,0,[],0.594998533,15478,1170,1,0,10,1.484277847976571
undo,4,39,0,1,1,19,"[0, 14, 29, 12, 10, 7, 26, 22, 16, 19]",10,0,[],0.594998533,18251,2773,1,0,10,1.484277847976571
undo,5,36,0,0,0,0,[0],1,24,"[2, 4, 5, 6, 7, 8, 9, 10, 12, 13, 14, 15, 16, 17, 18, 19, 20, 22, 23, 25, 26, 27, 28, 29]",300,195,-1,2,200,10,0.0
undo,5,36,0,0,0,12,"[0, 12]",2,23,"[2, 4, 5, 6, 7, 8, 9, 10, 13, 14, 15, 16, 17, 18, 19, 20, 22, 23, 25, 26, 27, 28, 29]",277.7963967,3530,3335,90,804,9,1.0
undo,5,36,0,0,0,9,"[0, 12, 9]",3,14,"[2, 4, 8, 10, 13, 16, 17, 18, 19, 23, 25, 27, 28, 29]",215.4345494,4948,1418,32,191,9,1.224429481246385
undo,5,36,0,0,0,19,"[0, 12, 9, 19]",4,13,"[2, 4, 8, 10, 13, 16, 17, 18, 23, 25, 27, 28, 29]",200.3018034,6155,1207,14,61,9,1.293473472808712
undo,5,36,0,0,0,17,"[0, 12, 9, 19, 17]",5,8,"[2, 10, 13, 16, 18, 23, 25, 27]",172.4091521,7240,1085,5,15,9,1.3499598639024968
undo,5,36,0,0,0,2,"[0, 12, 9, 19, 17, 2]",6,6,"[10, 13, 16, 18, 25, 27]",131.1780958,8366,1126,2,3,9,1.4949360491624875
undo,5,36,0,0,0,25,"[0, 12, 9, 19, 17, 2, 25]",7,3,"[10, 13, 16]",106.1780958,9434,1068,1,2,9,1.6929129985884974
undo,5,36,0,0,0,13,"[0, 12, 9, 19, 17, 2, 25, 13]",8,1,[10],85.58683553,11571,2137,1,0,9,2.1860692255369774
undo,5,36,1,0,0,25,"[0, 12, 9, 19, 17, 2, 25]",7,3,"[10, 13, 16]",106.1780958,13292,1721,1,2,9,1.6929129985884974
undo,5,36,1,0,0,2,"[0, 12, 9, 19, 17, 2]",6,6,"[10, 13, 16, 18, 25, 27]",131.1780958,13659,367,2,3,9,1.4949360491624875
undo,5,36,1,0,0,17,"[0, 12, 9, 19, 17]",5,8,"[2, 10, 13, 16, 18, 23, 25, 27]",172.4091521,14009,350,5,15,9,1.3499598639024968
undo,5,36,1,0,0,19,"[0, 12, 9, 19]",4,13,"[2, 4, 8, 10, 13, 16, 17, 18, 23, 25, 27, 28, 29]",200.3018034,14391,382,14,61,9,1.293473472808712
undo,5,36,1,0,0,9,"[0, 12, 9]",3,14,"[2, 4, 8, 10, 13, 16, 17, 18, 19, 23, 25, 27, 28, 29]",215.4345494,15275,884,32,191,9,1.224429481246385
undo,5,36,1,0,0,12,"[0, 12]",2,23,"[2, 4, 5, 6, 7, 8, 9, 10, 13, 14, 15, 16, 17, 18, 19, 20, 22, 23, 25, 26, 27, 28, 29]",277.7963967,15742,467,90,804,9,1.0
undo,5,36,1,0,0,0,[0],1,24,"[2, 4, 5, 6, 7, 8, 9, 10, 12, 13, 14, 15, 16, 17, 18, 19, 20, 22, 23, 25, 26, 27, 28, 29]",300,18225,2483,2,200,10,0.0
undo,5,36,0,0,0,18,"[0, 18]",2,21,"[2, 4, 5, 6, 7, 8, 9, 10, 12, 13, 14, 16, 17, 19, 22, 23, 25, 26, 27, 28, 29]",279.6039219,19505,1280,2,110,10,1.0
undo,5,36,0,0,0,12,"[0, 18, 12]",3,19,"[2, 4, 5, 6, 7, 8, 9, 10, 13, 16, 17, 19, 22, 23, 25, 26, 27, 28, 29]",237.0245842,20769,1264,2,86,10,2.836270082716982
undo,5,36,0,0,0,13,"[0, 18, 12, 13]",4,12,"[2, 4, 8, 9, 10, 16, 17, 19, 23, 25, 27, 29]",157.8475674,23653,2884,1,14,10,1.4493282584127862
undo,5,36,0,0,0,25,"[0, 18, 12, 13, 25]",5,10,"[2, 4, 8, 9, 10, 16, 17, 19, 27, 29]",137.2563071,24536,883,1,11,10,1.421464278177825
undo,5,36,0,0,0,2,"[0, 18, 12, 13, 25, 2]",6,5,"[9, 10, 16, 17, 19]",112.2563071,25421,885,1,8,10,1.662490515369399
undo,5,36,0,0,0,19,"[0, 18, 12, 13, 25, 2, 19]",7,3,"[9, 16, 17]",75.1348847,26598,1177,1,3,10,2.9173753540154053
undo,5,36,0,0,0,9,"[0, 18, 12, 13, 25, 2, 19, 9]",8,2,"[16, 17]",60.00213875,27356,758,1,1,10,3.4749469749834145
undo,5,36,0,0,0,17,"[0, 18, 12, 13, 25, 2, 19, 9, 17]",9,1,[16],33.75332925,28270,914,1,0,10,2.8169913855566038
undo,5,36,0,0,1,16,"[0, 18, 12, 13, 25, 2, 19, 9, 17, 16]",10,0,[],5.433724734,30019,1749,1,0,10,2.759713350365542
undo,5,36,0,1,1,16,"[0, 18, 12, 13, 25, 2, 19, 9, 17, 16]",10,0,[],5.433724734,31692,1673,1,0,10,2.759713350365542
undo,6,29,0,0,0,0,[0],1,29,"[1, 2, 3, 4, 5, 6, 7, 8, 9, 10, 11, 12, 13, 14, 15, 16, 17, 18, 19, 20, 21, 22, 23, 24, 25, 26, 27, 28, 29]",300,175,-1,1,78,9,0.0
undo,6,29,0,0,0,1,"[0, 1]",2,17,"[4, 5, 6, 7, 9, 10, 12, 13, 14, 15, 16, 17, 22, 25, 26, 27, 28]",214.2736913,7137,6962,12,79,8,1.0
undo,6,29,0,0,0,14,"[0, 1, 14]",3,15,"[4, 5, 6, 7, 9, 10, 12, 13, 15, 17, 22, 25, 26, 27, 28]",171.3202281,8118,981,12,45,8,1.4217240517504397
undo,6,29,0,0,0,13,"[0, 1, 14, 13]",4,12,"[4, 5, 6, 7, 9, 12, 17, 22, 25, 26, 27, 28]",153.2924718,8966,848,12,27,8,1.3553272959243952
undo,6,29,0,0,0,5,"[0, 1, 14, 13, 5]",5,10,"[4, 6, 7, 9, 12, 17, 22, 25, 27, 28]",127.5825515,10873,1907,11,13,8,1.3875785126283526
undo,6,29,0,0,0,22,"[0, 1, 14, 13, 5, 22]",6,4,"[7, 12, 27, 28]",73.24103881,11971,1098,4,0,8,1.938677354223255
undo,6,29,0,0,0,27,"[0, 1, 14, 13, 5, 22, 27]",7,1,[28],39.99949853,12836,865,1,0,8,2.3998115157970523
undo,6,29,0,0,1,28,"[0, 1, 14, 13, 5, 22, 27, 28]",8,0,[],19.48121401,14137,1301,1,0,8,2.8894905022658777
undo,6,29,0,1,1,28,"[0, 1, 14, 13, 5, 22, 27, 28]",8,0,[],19.48121401,15710,1573,1,0,8,2.8894905022658777
undo,7,4,0,0,0,0,[0],1,26,"[3, 4, 5, 6, 7, 8, 10, 11, 12, 13, 14, 15, 16, 17, 18, 19, 20, 21, 22, 23, 24, 25, 26, 27, 28, 29]",300,193,-1,4,489,10,0.0
undo,7,4,0,0,0,13,"[0, 13]",2,23,"[3, 4, 5, 6, 7, 10, 11, 12, 14, 15, 16, 17, 19, 20, 21, 22, 23, 24, 25, 26, 27, 28, 29]",232.1030192,3174,2981,2,270,10,1.0
undo,7,4,0,0,0,28,"[0, 13, 28]",3,19,"[3, 4, 5, 6, 10, 11, 12, 14, 15, 16, 17, 19, 20, 21, 22, 23, 24, 25, 26]",200.5277124,4086,912,2,221,10,1.3431168257921573
undo,7,4,0,0,0,14,"[0, 13, 28, 14]",4,11,"[3, 4, 5, 6, 11, 16, 17, 20, 21, 22, 25]",134.2857318,5871,1785,28,123,9,1.2134786195381546
undo,7,4,0,0,0,25,"[0, 13, 28, 14, 25]",5,10,"[3, 4, 5, 6, 11, 16, 17, 20, 21, 22]",118.1612163,6767,896,22,51,9,1.4339367384350254
undo,7,4,0,0,0,11,"[0, 13, 28, 14, 25, 11]",6,9,"[3, 4, 5, 6, 16, 17, 20, 21, 22]",99.37292203,7784,1017,11,18,9,1.632788140935394
undo,7,4,0,0,0,16,"[0, 13, 28, 14, 25, 11, 16]",7,6,"[3, 5, 17, 20, 21, 22]",84.37292203,8603,819,9,2,9,1.5642820747024264
undo,7,4,0,0,0,17,"[0, 13, 28, 14, 25, 11, 16, 17]",8,4,"[3, 20, 21, 22]",58.29611241,9740,1137,4,0,9,1.4745445015567764
undo,7,4,0,0,1,3,"[0, 13, 28, 14, 25, 11, 16, 17, 3]",9,0,[],33.78081107,11237,1497,1,0,9,1.5263697522111268
undo,7,4,1,0,0,17,"[0, 13, 28, 14, 25, 11, 16, 17]",8,4,"[3, 20, 21, 22]",58.29611241,14978,3741,4,0,9,1.4745445015567764
undo,7,4,1,0,0,16,"[0, 13, 28, 14, 25, 11, 16]",7,6,"[3, 5, 17, 20, 21, 22]",84.37292203,15212,234,9,2,9,1.5642820747024264
undo,7,4,1,0,0,11,"[0, 13, 28, 14, 25, 11]",6,9,"[3, 4, 5, 6, 16, 17, 20, 21, 22]",99.37292203,15579,367,11,18,9,1.632788140935394
undo,7,4,0,0,0,21,"[0, 13, 28, 14, 25, 11, 21]",7,5,"[5, 16, 17, 20, 22]",52.50075545,16538,959,2,4,9,1.6745489727009897
undo,7,4,0,0,0,22,"[0, 13, 28, 14, 25, 11, 21, 22]",8,2,"[5, 20]",41.45539444,17190,652,2,0,9,1.629551134277291
undo,7,4,0,0,1,20,"[0, 13, 28, 14, 25, 11, 21, 22, 20]",9,0,[],11.22296152,18189,999,1,0,9,1.5803779155707733
undo,7,4,0,1,1,20,"[0, 13, 28, 14, 25, 11, 21, 22, 20]",9,0,[],11.22296152,22144,3955,1,0,9,1.5803779155707733
undo,8,10,0,0,0,0,[0],1,29,"[1, 2, 3, 4, 5, 6, 7, 8, 9, 10, 11, 12, 13, 14, 15, 16, 17, 18, 19, 20, 21, 22, 23, 24, 25, 26, 27, 28, 29]",300,177,-1,1,100,9,0.0
undo,8,10,0,0,0,8,"[0, 8]",2,23,"[2, 3, 4, 6, 7, 9, 10, 11, 12, 13, 14, 17, 18, 19, 20, 21, 22, 23, 24, 26, 27, 28, 29]",256.9883737,5398,5221,13,64,8,1.0
undo,8,10,0,0,0,13,"[0, 8, 13]",3,18,"[2, 4, 6, 7, 9, 10, 11, 12, 14, 18, 19, 20, 22, 24, 26, 27, 28, 29]",185.96725,6421,1023,13,50,8,2.256415900137669
undo,8,10,0,0,0,11,"[0, 8, 13, 11]",4,11,"[2, 6, 9, 10, 14, 18, 19, 20, 24, 26, 27]",142.9556237,7223,802,13,28,8,1.731311634743708
undo,8,10,0,0,0,19,"[0, 8, 13, 11, 19]",5,5,"[2, 14, 20, 26, 27]",106.5963058,8071,848,5,5,8,1.6197032741169284
undo,8,10,0,0,0,26,"[0, 8, 13, 11, 19, 26]",6,4,"[2, 14, 20, 27]",78.27670127,8936,865,3,1,8,1.6741583634033241
undo,8,10,0,0,0,14,"[0, 8, 13, 11, 19, 26, 14]",7,1,[2],43.60682962,10835,1899,1,0,8,1.6031463148663276
undo,8,10,0,0,1,2,"[0, 8, 13, 11, 19, 26, 14, 2]",8,0,[],31.44130456,11553,718,1,0,8,1.6450935966396762
undo,8,10,0,1,1,2,"[0, 8, 13, 11, 19, 26, 14, 2]",8,0,[],31.44130456,14443,2890,1,0,8,1.6450935966396762
undo,9,22,0,0,0,0,[0],1,29,"[1, 2, 3, 4, 5, 6, 7, 8, 9, 10, 11, 12, 13, 14, 15, 16, 17, 18, 19, 20, 21, 22, 23, 24, 25, 26, 27, 28, 29]",300,221,-1,31,704,9,0.0
undo,9,22,0,0,0,16,"[0, 16]",2,21,"[1, 3, 6, 7, 8, 9, 11, 13, 14, 15, 17, 18, 19, 20, 21, 22, 24, 25, 27, 28, 29]",218.605897,2423,2202,17,147,9,1.0
undo,9,22,0,0,0,28,"[0, 16, 28]",3,13,"[6, 7, 9, 13, 14, 17, 19, 20, 21, 22, 24, 25, 29]",184.1675463,3168,745,12,61,9,1.047282311284478
undo,9,22,0,0,0,6,"[0, 16, 28, 6]",4,12,"[7, 9, 13, 14, 17, 19, 20, 21, 22, 24, 25, 29]",154.1675463,3969,801,12,43,9,1.645645870580622
undo,9,22,0,0,0,9,"[0, 16, 28, 6, 9]",5,8,"[7, 14, 17, 19, 20, 21, 24, 29]",127.5404924,4989,1020,8,17,9,1.925750226630103
undo,9,22,0,0,0,19,"[0, 16, 28, 6, 9, 19]",6,6,"[7, 14, 17, 21, 24, 29]",107.1444143,5717,728,3,7,9,2.4220750331476455
undo,9,22,0,0,0,29,"[0, 16, 28, 6, 9, 19, 29]",7,4,"[7, 14, 17, 24]",92.11111796,8036,2319,2,2,9,2.6996279574991067
undo,9,22,0,0,0,14,"[0, 16, 28, 6, 9, 19, 29, 14]",8,1,[7],33.86165444,9071,1035,1,0,9,2.0544639927929462
undo,9,22,0,0,1,7,"[0, 16, 28, 6, 9, 19, 29, 14, 7]",9,0,[],20.82324963,10556,1485,1,0,9,2.219817088951114
undo,9,22,0,1,1,7,"[0, 16, 28, 6, 9, 19, 29, 14, 7]",9,0,[],20.82324963,11377,821,1,0,9,2.219817088951114
undo,10,12,0,0,0,0,[0],1,29,"[1, 2, 3, 4, 5, 6, 7, 8, 9, 10, 11, 12, 13, 14, 15, 16, 17, 18, 19, 20, 21, 22, 23, 24, 25, 26, 27, 28, 29]",300,202,-1,2,32,9,0.0
undo,10,12,0,0,0,6,"[0, 6]",2,28,"[1, 2, 3, 4, 5, 7, 8, 9, 10, 11, 12, 13, 14, 15, 16, 17, 18, 19, 20, 21, 22, 23, 24, 25, 26, 27, 28, 29]",283.5987805,2697,2495,2,18,9,1.0
undo,10,12,0,0,0,16,"[0, 6, 16]",3,12,"[2, 4, 5, 7, 12, 14, 19, 22, 23, 24, 25, 27]",177.65068,4747,2050,6,32,8,1.3488213090441052
undo,10,12,0,0,0,22,"[0, 6, 16, 22]",4,10,"[2, 4, 5, 7, 12, 14, 19, 24, 25, 27]",156.65068,6034,1287,4,19,8,1.6288643794035333
undo,10,12,0,0,0,4,"[0, 6, 16, 22, 4]",5,6,"[12, 14, 19, 24, 25, 27]",112.0524738,7602,1568,3,7,8,1.5046880678599257
undo,10,12,0,0,0,12,"[0, 6, 16, 22, 4, 12]",6,3,"[14, 24, 27]",69.86242757,8518,916,2,2,8,1.3929069745299738
undo,10,12,0,0,0,27,"[0, 6, 16, 22, 4, 12, 27]",7,2,"[14, 24]",45.51083625,9433,915,2,0,8,1.4878337252221001
undo,10,12,0,0,1,14,"[0, 6, 16, 22, 4, 12, 27, 14]",8,0,[],16.85773868,10472,1039,1,0,8,1.520732508501357
undo,10,12,0,1,1,14,"[0, 6, 16, 22, 4, 12, 27, 14]",8,0,[],16.85773868,12705,2233,1,0,8,1.520732508501357
undo,11,8,0,0,0,0,[0],1,29,"[1, 2, 3, 4, 5, 6, 7, 8, 9, 10, 11, 12, 13, 14, 15, 16, 17, 18, 19, 20, 21, 22, 23, 24, 25, 26, 27, 28, 29]",300,182,-1,10,149,9,0.0
undo,11,8,0,0,0,5,"[0, 5]",2,28,"[1, 2, 3, 4, 6, 7, 8, 9, 10, 11, 12, 13, 14, 15, 16, 17, 18, 19, 20, 21, 22, 23, 24, 25, 26, 27, 28, 29]",254.5137383,4164,3982,10,100,9,1.0
undo,11,8,0,0,0,14,"[0, 5, 14]",3,20,"[1, 2, 3, 4, 6, 7, 11, 15, 16, 17, 18, 19, 20, 21, 22, 23, 24, 25, 28, 29]",214.5512559,9269,5105,4,36,9,1.0001019035932595
undo,11,8,0,0,0,17,"[0, 5, 14, 17]",4,15,"[1, 4, 6, 7, 11, 15, 16, 18, 19, 20, 22, 23, 24, 25, 28]",177.5377449,10107,838,4,16,9,1.121197267659591
undo,11,8,0,0,0,11,"[0, 5, 14, 17, 11]",5,11,"[1, 4, 15, 16, 18, 19, 22, 23, 24, 25, 28]",152.3583883,10804,697,4,8,9,1.1277254166016362
undo,11,8,0,0,0,24,"[0, 5, 14, 17, 11, 24]",6,3,"[15, 16, 28]",115.1428001,12370,1566,2,2,9,1.1227411011978805
undo,11,8,0,0,0,15,"[0, 5, 14, 17, 11, 24, 15]",7,2,"[16, 28]",98.37974552,13143,773,2,0,9,1.1956385406066814
undo,11,8,0,0,0,16,"[0, 5, 14, 17, 11, 24, 15, 16]",8,1,[28],47.30137436,14099,956,1,0,9,1.36482239111247
undo,11,8,0,0,1,28,"[0, 5, 14, 17, 11, 24, 15, 16, 28]",9,0,[],24.94069458,15223,1124,1,0,9,1.632953105226947
undo,11,8,0,1,1,28,"[0, 5, 14, 17, 11, 24, 15, 16, 28]",9,0,[],24.94069458,16510,1287,1,0,9,1.632953105226947
undo,12,3,0,0,0,0,[0],1,29,"[1, 2, 3, 4, 5, 6, 7, 8, 9, 10, 11, 12, 13, 14, 15, 16, 17, 18, 19, 20, 21, 22, 23, 24, 25, 26, 27, 28, 29]",300,176,-1,34,427,10,0.0
undo,12,3,0,0,0,8,"[0, 8]",2,28,"[1, 2, 3, 4, 5, 6, 7, 9, 10, 11, 12, 13, 14, 15, 16, 17, 18, 19, 20, 21, 22, 23, 24, 25, 26, 27, 28, 29]",239.9666759,2788,2612,1,54,10,1.0
undo,12,3,0,0,0,24,"[0, 8, 24]",3,23,"[1, 2, 3, 4, 5, 6, 7, 10, 11, 12, 14, 15, 16, 17, 18, 19, 20, 21, 22, 25, 26, 27, 28]",227.8011509,3524,736,1,50,10,1.2267083825981846
undo,12,3,0,0,0,17,"[0, 8, 24, 17]",4,11,"[3, 4, 7, 10, 14, 15, 16, 19, 20, 21, 27]",158.4469873,4419,895,1,18,10,1.3836579788002414
undo,12,3,0,0,0,20,"[0, 8, 24, 17, 20]",5,9,"[3, 4, 7, 10, 14, 15, 16, 19, 21]",145.7978767,4986,567,1,14,10,1.3620097615632467
undo,12,3,0,0,0,3,"[0, 8, 24, 17, 20, 3]",6,5,"[4, 10, 14, 19, 21]",125.4017986,5728,742,1,11,10,1.3956695218398405
undo,12,3,0,0,0,19,"[0, 8, 24, 17, 20, 3, 19]",7,4,"[4, 10, 14, 21]",88.06548922,7458,1730,1,4,10,1.4360605238855817
undo,12,3,0,0,0,21,"[0, 8, 24, 17, 20, 3, 19, 21]",8,2,"[10, 14]",75.85893361,8231,773,1,1,10,1.4576450248605066
undo,12,3,0,0,0,14,"[0, 8, 24, 17, 20, 3, 19, 21, 14]",9,1,[10],48.95168551,9386,1155,1,0,10,1.9505702217699148
undo,12,3,0,0,1,10,"[0, 8, 24, 17, 20, 3, 19, 21, 14, 10]",10,0,[],3.498412803,10752,1366,1,0,10,1.8830527336542522
undo,12,3,0,1,1,10,"[0, 8, 24, 17, 20, 3, 19, 21, 14, 10]",10,0,[],3.498412803,11877,1125,1,0,10,1.8830527336542522
undo,13,28,0,0,0,0,[0],1,27,"[1, 2, 3, 4, 5, 6, 7, 8, 9, 10, 11, 12, 13, 14, 15, 16, 17, 18, 19, 20, 22, 23, 25, 26, 27, 28, 29]",300,190,-1,2,96,9,0.0
undo,13,28,0,0,0,3,"[0, 3]",2,26,"[1, 2, 4, 5, 6, 7, 8, 9, 10, 11, 12, 13, 14, 15, 16, 17, 18, 19, 20, 22, 23, 25, 26, 27, 28, 29]",251.0817008,5226,5036,1,64,9,1.0
undo,13,28,0,0,0,5,"[0, 3, 5]",3,20,"[2, 4, 6, 7, 8, 9, 10, 11, 12, 13, 14, 15, 18, 19, 20, 23, 25, 26, 28, 29]",166.9865166,7108,1882,1,34,9,1.0203769473612083
undo,13,28,0,0,0,26,"[0, 3, 5, 26]",4,13,"[2, 4, 7, 8, 9, 12, 13, 14, 18, 19, 20, 25, 28]",134.2298379,8175,1067,1,28,9,1.0315203228799597
undo,13,28,0,0,0,19,"[0, 3, 5, 26, 19]",5,7,"[2, 7, 9, 12, 13, 14, 18]",93.22983789,9207,1032,1,17,9,1.1324645362297356
undo,13,28,0,0,0,7,"[0, 3, 5, 26, 19, 7]",6,5,"[2, 12, 13, 14, 18]",65.49898864,10023,816,1,6,9,1.1971194919020265
undo,13,28,0,0,0,12,"[0, 3, 5, 26, 19, 7, 12]",7,2,"[13, 18]",52.3460422,10624,601,1,1,9,1.2020762147848982
undo,13,28,0,0,0,13,"[0, 3, 5, 26, 19, 7, 12, 13]",8,1,[18],35.14139167,11430,806,1,0,9,1.39005144078531
undo,13,28,0,0,1,18,"[0, 3, 5, 26, 19, 7, 12, 13, 18]",9,0,[],10.72828044,12453,1023,1,0,9,1.738787343626007
undo,13,28,0,1,1,18,"[0, 3, 5, 26, 19, 7, 12, 13, 18]",9,0,[],10.72828044,13797,1344,1,0,9,1.738787343626007
undo,14,25,0,0,0,0,[0],1,28,"[1, 2, 3, 4, 5, 7, 8, 9, 10, 11, 12, 13, 14, 15, 16, 17, 18, 19, 20, 21, 22, 23, 24, 25, 26, 27, 28, 29]",300,175,-1,5,94,10,0.0
undo,14,25,0,0,0,23,"[0, 23]",2,23,"[1, 2, 3, 5, 7, 8, 9, 11, 12, 13, 14, 16, 17, 19, 20, 21, 22, 24, 25, 26, 27, 28, 29]",259.7756293,4299,4124,3,33,10,1.0
undo,14,25,0,0,0,19,"[0, 23, 19]",3,21,"[1, 2, 3, 5, 7, 8, 9, 11, 12, 13, 14, 16, 17, 20, 21, 22, 24, 25, 27, 28, 29]",223.9287326,5139,840,3,24,10,1.583101227007039
undo,14,25,0,0,0,29,"[0, 23, 19, 29]",4,19,"[1, 2, 3, 5, 7, 8, 9, 11, 12, 13, 14, 16, 17, 20, 21, 22, 24, 25, 28]",207.649912,5979,840,3,17,10,1.474631541426484
undo,14,25,0,0,0,22,"[0, 23, 19, 29, 22]",5,18,"[1, 2, 3, 5, 7, 8, 9, 11, 12, 13, 14, 16, 17, 20, 21, 24, 25, 28]",191.5253965,7504,1525,3,14,10,1.4020377754906637
undo,14,25,0,0,0,7,"[0, 23, 19, 29, 22, 7]",6,7,"[3, 8, 9, 11, 13, 24, 28]",115.8814939,8741,1237,3,11,10,1.5709678649326715
undo,14,25,0,0,0,24,"[0, 23, 19, 29, 22, 7, 24]",7,5,"[3, 8, 9, 13, 28]",91.12265712,9567,826,3,7,10,1.486191600033379
undo,14,25,0,0,0,9,"[0, 23, 19, 29, 22, 7, 24, 9]",8,4,"[3, 8, 13, 28]",73.09490075,10500,933,3,3,10,1.453504870342882
undo,14,25,0,0,0,3,"[0, 23, 19, 29, 22, 7, 24, 9, 3]",9,3,"[8, 13, 28]",42.82940885,11477,977,3,0,10,1.388955167525479
undo,14,25,0,0,1,28,"[0, 23, 19, 29, 22, 7, 24, 9, 3, 28]",10,0,[],11.52445716,12503,1026,1,0,10,1.3331084120212044
undo,14,25,0,1,1,28,"[0, 23, 19, 29, 22, 7, 24, 9, 3, 28]",10,0,[],11.52445716,13627,1124,1,0,10,1.3331084120212044
undo,15,2,0,0,0,0,[0],1,23,"[1, 2, 4, 5, 6, 7, 8, 9, 12, 13, 15, 16, 17, 18, 19, 20, 22, 23, 25, 26, 27, 28, 29]",300,222,-1,70,620,10,0.0
undo,15,2,0,0,0,19,"[0, 19]",2,22,"[1, 2, 4, 5, 6, 7, 8, 9, 12, 13, 15, 16, 17, 18, 20, 22, 23, 25, 26, 27, 28, 29]",210.306076,2673,2451,67,431,10,1.0
undo,15,2,0,0,0,12,"[0, 19, 12]",3,17,"[1, 4, 5, 6, 7, 13, 15, 16, 17, 18, 20, 22, 25, 26, 27, 28, 29]",174.2921898,3725,1052,66,298,10,1.1107635036313153
undo,15,2,0,0,0,5,"[0, 19, 12, 5]",4,11,"[1, 6, 7, 13, 15, 16, 18, 22, 25, 26, 29]",144.7625437,4820,1095,38,136,10,1.0968174771581647
undo,15,2,0,0,0,22,"[0, 19, 12, 5, 22]",5,8,"[1, 6, 7, 13, 15, 18, 26, 29]",131.9562952,5633,813,20,63,10,1.0889910507461968
undo,15,2,0,0,0,13,"[0, 19, 12, 5, 22, 13]",6,7,"[1, 6, 7, 15, 18, 26, 29]",117.0902265,6396,763,19,20,10,1.236526217328057
undo,15,2,0,0,0,18,"[0, 19, 12, 5, 22, 13, 18]",7,4,"[7, 15, 26, 29]",81.91921567,7374,978,10,3,10,1.2128708213409936
undo,15,2,0,0,0,7,"[0, 19, 12, 5, 22, 13, 18, 7]",8,3,"[15, 26, 29]",71.62358553,8201,827,5,0,10,1.2019811287894737
undo,15,2,0,0,0,26,"[0, 19, 12, 5, 22, 13, 18, 7, 26]",9,2,"[15, 29]",48.82007703,9060,859,2,0,10,1.1883593342191134
undo,15,2,0,0,1,15,"[0, 19, 12, 5, 22, 13, 18, 7, 26, 15]",10,0,[],24.61264015,9952,892,1,0,10,1.4619750353663825
undo,15,2,0,1,1,15,"[0, 19, 12, 5, 22, 13, 18, 7, 26, 15]",10,0,[],24.61264015,15624,5672,1,0,10,1.4619750353663825
undo,16,34,0,0,0,0,[0],1,25,"[1, 3, 4, 5, 6, 7, 8, 9, 10, 11, 12, 13, 15, 18, 19, 20, 21, 22, 23, 24, 25, 26, 27, 28, 29]",300,204,-1,12,367,10,0.0
undo,16,34,0,0,0,13,"[0, 13]",2,24,"[1, 3, 4, 5, 6, 7, 8, 9, 10, 11, 12, 15, 18, 19, 20, 21, 22, 23, 24, 25, 26, 27, 28, 29]",279.9750156,2308,2104,12,331,10,1.0
undo,16,34,0,0,0,1,"[0, 13, 1]",3,16,"[3, 5, 7, 8, 9, 10, 11, 12, 19, 21, 22, 23, 24, 25, 27, 29]",211.8574701,3166,858,3,92,10,1.0010381285747127
undo,16,34,0,0,0,8,"[0, 13, 1, 8]",4,14,"[3, 5, 7, 9, 10, 11, 12, 19, 22, 23, 24, 25, 27, 29]",201.0871405,3854,688,2,54,10,1.1636807
undo,16,34,0,0,0,25,"[0, 13, 1, 8, 25]",5,12,"[3, 5, 7, 9, 10, 11, 12, 22, 23, 24, 27, 29]",183.999133,4653,799,2,28,10,1.1396208815936457
undo,16,34,0,0,0,24,"[0, 13, 1, 8, 25, 24]",6,11,"[3, 5, 7, 9, 10, 11, 12, 22, 23, 27, 29]",166.5062774,6019,1366,2,23,10,1.374180768736554
undo,16,34,0,0,0,12,"[0, 13, 1, 8, 25, 24, 12]",7,7,"[7, 9, 10, 11, 22, 23, 27]",115.4670767,7148,1129,1,8,10,1.4994254760835948
undo,16,34,0,0,0,7,"[0, 13, 1, 8, 25, 24, 12, 7]",8,5,"[9, 11, 22, 23, 27]",100.4337804,9090,1942,1,4,10,1.758992610425009
undo,16,34,0,0,0,23,"[0, 13, 1, 8, 25, 24, 12, 7, 23]",9,1,[27],72.27352467,10307,1217,1,0,10,2.399781305190153
undo,16,34,0,0,1,27,"[0, 13, 1, 8, 25, 24, 12, 7, 23, 27]",10,0,[],18.60789321,11257,950,1,0,10,4.766619878750327
undo,16,34,0,1,1,27,"[0, 13, 1, 8, 25, 24, 12, 7, 23, 27]",10,0,[],18.60789321,12392,1135,1,0,10,4.766619878750327
undo,17,32,0,0,0,0,[0],1,29,"[1, 2, 3, 4, 5, 6, 7, 8, 9, 10, 11, 12, 13, 14, 15, 16, 17, 18, 19, 20, 21, 22, 23, 24, 25, 26, 27, 28, 29]",300,283,-1,17,359,10,0.0
undo,17,32,0,0,0,19,"[0, 19]",2,28,"[1, 2, 3, 4, 5, 6, 7, 8, 9, 10, 11, 12, 13, 14, 15, 16, 17, 18, 20, 21, 22, 23, 24, 25, 26, 27, 28, 29]",283.5075775,2600,2317,16,294,10,1.0
undo,17,32,0,0,0,15,"[0, 19, 15]",3,21,"[2, 3, 5, 7, 8, 9, 10, 11, 12, 13, 14, 16, 17, 20, 22, 23, 24, 25, 26, 27, 28]",197.7987681,3958,1358,2,52,10,1.19699508325577
undo,17,32,0,0,0,28,"[0, 19, 15, 28]",4,19,"[2, 3, 5, 7, 8, 9, 10, 11, 12, 13, 16, 17, 20, 22, 23, 24, 25, 26, 27]",186.3970139,4839,881,2,41,10,1.1739755297768444
undo,17,32,0,0,0,12,"[0, 19, 15, 28, 12]",5,17,"[2, 3, 5, 7, 8, 9, 10, 11, 13, 16, 17, 20, 22, 23, 24, 26, 27]",167.4233479,5654,815,2,25,10,1.177540715424265
undo,17,32,0,0,0,16,"[0, 19, 15, 28, 12, 16]",6,16,"[2, 3, 5, 7, 8, 9, 10, 11, 13, 17, 20, 22, 23, 24, 26, 27]",151.7708721,6540,886,2,17,10,1.2623133279216439
undo,17,32,0,0,0,22,"[0, 19, 15, 28, 12, 16, 22]",7,10,"[2, 3, 5, 8, 9, 10, 11, 17, 20, 27]",117.9330235,8375,1835,2,7,10,1.2893434049314008
undo,17,32,0,0,0,9,"[0, 19, 15, 28, 12, 16, 22, 9]",8,4,"[2, 8, 17, 20]",95.72942015,9157,782,2,2,10,1.3492394817468627
undo,17,32,0,0,0,8,"[0, 19, 15, 28, 12, 16, 22, 9, 8]",9,1,[20],50.60736346,10024,867,1,0,10,1.2728587925837391
undo,17,32,0,0,1,20,"[0, 19, 15, 28, 12, 16, 22, 9, 8, 20]",10,0,[],0.278445332,11045,1021,1,0,10,1.4817741230721702
undo,17,32,0,1,1,20,"[0, 19, 15, 28, 12, 16, 22, 9, 8, 20]",10,0,[],0.278445332,12281,1236,1,0,10,1.4817741230721702
undo,18,41,0,0,0,0,[0],1,29,"[1, 2, 3, 4, 5, 6, 7, 8, 9, 10, 11, 12, 13, 14, 15, 16, 17, 18, 19, 20, 21, 22, 23, 24, 25, 26, 27, 28, 29]",300,188,-1,1,143,10,0.0
undo,18,41,0,0,0,28,"[0, 28]",2,27,"[1, 2, 3, 5, 6, 7, 8, 9, 10, 11, 12, 13, 14, 15, 16, 17, 18, 19, 20, 21, 22, 23, 24, 25, 26, 27, 29]",259.8004975,5152,4964,37,249,9,1.0
undo,18,41,0,0,0,5,"[0, 28, 5]",3,26,"[1, 2, 3, 6, 7, 8, 9, 10, 11, 12, 13, 14, 15, 16, 17, 18, 19, 20, 21, 22, 23, 24, 25, 26, 27, 29]",246.199027,5950,798,30,182,9,1.714241539747437
undo,18,41,0,0,0,3,"[0, 28, 5, 3]",4,25,"[1, 2, 6, 7, 8, 9, 10, 11, 12, 13, 14, 15, 16, 17, 18, 19, 20, 21, 22, 23, 24, 25, 26, 27, 29]",211.3708775,6722,772,20,93,9,2.2367972660995847
undo,18,41,0,0,0,22,"[0, 28, 5, 3, 22]",5,19,"[2, 6, 7, 8, 9, 10, 11, 12, 13, 14, 16, 17, 18, 19, 20, 21, 23, 25, 27]",181.4042293,7474,752,8,18,9,1.7196825276135803
undo,18,41,0,0,0,21,"[0, 28, 5, 3, 22, 21]",6,8,"[2, 9, 10, 12, 13, 14, 17, 25]",130.4042293,8243,769,8,6,9,3.469819975916434
undo,18,41,0,0,0,9,"[0, 28, 5, 3, 22, 21, 9]",7,5,"[2, 10, 12, 14, 17]",81.03824916,9170,927,4,3,9,2.6607849925478684
undo,18,41,0,0,0,2,"[0, 28, 5, 3, 22, 21, 9, 2]",8,2,"[14, 17]",68.95520318,9954,784,2,0,9,2.5536438215534885
undo,18,41,0,0,1,17,"[0, 28, 5, 3, 22, 21, 9, 2, 17]",9,0,[],36.39756199,11198,1244,1,0,9,4.158574215213491
undo,18,41,0,1,1,17,"[0, 28, 5, 3, 22, 21, 9, 2, 17]",9,0,[],36.39756199,15342,4144,1,0,9,4.158574215213491
undo,19,0,0,0,0,0,[0],1,27,"[2, 3, 4, 5, 6, 7, 8, 9, 10, 11, 12, 13, 14, 15, 16, 17, 19, 20, 21, 22, 23, 24, 25, 26, 27, 28, 29]",300,186,-1,104,1136,9,0.0
undo,19,0,0,0,0,28,"[0, 28]",2,26,"[2, 3, 4, 5, 6, 7, 8, 9, 10, 11, 12, 13, 14, 15, 16, 17, 19, 20, 21, 22, 23, 24, 25, 26, 27, 29]",194.9190788,2506,2320,39,388,9,1.0
undo,19,0,0,0,0,5,"[0, 28, 5]",3,21,"[2, 3, 4, 7, 8, 9, 11, 12, 13, 14, 15, 16, 17, 19, 20, 21, 23, 24, 25, 26, 29]",151.2613189,3370,864,27,210,9,1.0978295127671733
undo,19,0,0,0,0,4,"[0, 28, 5, 4]",4,16,"[3, 7, 8, 9, 11, 12, 13, 14, 15, 17, 19, 20, 21, 23, 24, 26]",126.1814465,4189,819,17,114,9,1.1103727063761901
undo,19,0,0,0,0,26,"[0, 28, 5, 4, 26]",5,14,"[3, 7, 8, 9, 11, 12, 13, 14, 15, 17, 19, 20, 23, 24]",114.1398519,4907,718,7,54,9,1.1504454351688815
undo,19,0,0,0,0,24,"[0, 28, 5, 4, 26, 24]",6,11,"[3, 7, 8, 9, 11, 12, 15, 17, 19, 20, 23]",97.02260914,5805,898,7,22,9,1.2166555899566422
undo,19,0,0,0,0,15,"[0, 28, 5, 4, 26, 24, 15]",7,7,"[3, 7, 8, 9, 11, 12, 17]",73.67737408,6656,851,4,5,9,1.1972898774231708
undo,19,0,0,0,0,7,"[0, 28, 5, 4, 26, 24, 15, 7]",8,2,"[3, 8]",42.61292495,8371,1715,2,0,9,1.2554869594545575
undo,19,0,0,0,1,3,"[0, 28, 5, 4, 26, 24, 15, 7, 3]",9,0,[],18.52973579,9121,750,1,0,9,1.2985327435367093
undo,19,0,0,1,1,3,"[0, 28, 5, 4, 26, 24, 15, 7, 3]",9,0,[],18.52973579,10695,1574,1,0,9,1.2985327435367093
undo,20,27,0,0,0,0,[0],1,26,"[1, 3, 5, 6, 7, 8, 9, 10, 11, 12, 13, 14, 15, 16, 17, 18, 19, 21, 22, 23, 24, 25, 26, 27, 28, 29]",300,224,-1,13,578,11,0.0
undo,20,27,0,0,0,26,"[0, 26]",2,23,"[1, 5, 6, 7, 8, 9, 10, 11, 12, 13, 14, 15, 16, 17, 18, 19, 21, 22, 23, 24, 25, 27, 29]",275.8132268,3585,3361,7,249,11,1.0
undo,20,27,0,0,0,15,"[0, 26, 15]",3,18,"[1, 6, 7, 8, 10, 12, 13, 14, 16, 17, 18, 19, 21, 23, 24, 25, 27, 29]",216.0386502,4773,1188,6,105,11,2.316230250316108
undo,20,27,0,0,0,24,"[0, 26, 15, 24]",4,14,"[1, 8, 10, 12, 13, 14, 16, 17, 18, 19, 23, 25, 27, 29]",198.8339997,6353,1580,6,63,11,2.140390406148825
undo,20,27,0,0,0,17,"[0, 26, 15, 24, 17]",5,11,"[1, 8, 10, 12, 13, 14, 18, 19, 23, 27, 29]",182.2810543,7317,964,4,33,11,1.897705569486853
undo,20,27,0,0,0,12,"[0, 26, 15, 24, 17, 12]",6,10,"[1, 8, 10, 13, 14, 18, 19, 23, 27, 29]",171.1007144,8018,701,2,17,11,1.994427587076918
undo,20,27,0,0,0,10,"[0, 26, 15, 24, 17, 12, 10]",7,9,"[1, 8, 13, 14, 18, 19, 23, 27, 29]",160.0553534,8741,723,2,14,11,1.8554032921959762
undo,20,27,0,0,0,13,"[0, 26, 15, 24, 17, 12, 10, 13]",8,7,"[1, 8, 14, 19, 23, 27, 29]",120.2056357,9780,1039,2,8,11,1.8269483184790714
undo,20,27,0,0,0,19,"[0, 26, 15, 24, 17, 12, 10, 13, 19]",9,4,"[8, 14, 23, 29]",83.97029387,10851,1071,2,3,11,1.6617669702307691
undo,20,27,0,0,0,8,"[0, 26, 15, 24, 17, 12, 10, 13, 19, 8]",10,2,"[14, 29]",69.10422512,11654,803,2,0,11,1.708465241811091
undo,20,27,0,0,1,14,"[0, 26, 15, 24, 17, 12, 10, 13, 19, 8, 14]",11,0,[],11.5455594,12804,1150,1,0,11,1.572478422540951
undo,20,27,0,1,1,14,"[0, 26, 15, 24, 17, 12, 10, 13, 19, 8, 14]",11,0,[],11.5455594,14858,2054,1,0,11,1.572478422540951
undo,21,5,0,0,0,0,[0],1,29,"[1, 2, 3, 4, 5, 6, 7, 8, 9, 10, 11, 12, 13, 14, 15, 16, 17, 18, 19, 20, 21, 22, 23, 24, 25, 26, 27, 28, 29]",300,204,-1,5,139,9,0.0
undo,21,5,0,0,0,23,"[0, 23]",2,27,"[1, 2, 3, 4, 5, 6, 7, 8, 9, 10, 11, 12, 13, 14, 15, 16, 17, 18, 19, 20, 21, 22, 24, 25, 26, 27, 28]",249.8402552,4619,4415,3,75,9,1.0
undo,21,5,0,0,0,12,"[0, 23, 12]",3,20,"[2, 4, 5, 6, 8, 9, 10, 13, 14, 15, 16, 17, 18, 19, 21, 22, 24, 25, 26, 27]",206.6661889,6488,1869,12,56,8,1.3018394868431302
undo,21,5,0,0,0,25,"[0, 23, 12, 25]",4,18,"[2, 4, 5, 6, 8, 9, 10, 13, 14, 15, 17, 18, 19, 21, 22, 24, 26, 27]",178.8813009,7641,1153,12,34,8,1.9286025844958365
undo,21,5,0,0,0,24,"[0, 23, 12, 25, 24]",5,14,"[4, 5, 6, 8, 9, 13, 14, 15, 17, 18, 19, 22, 26, 27]",154.0418162,8735,1094,9,16,8,2.0153742455218557
undo,21,5,0,0,1,18,"[0, 23, 12, 25, 24, 18]",6,0,[],22.93498955,15315,6580,1,0,6,1.3662952842436291
undo,21,5,1,0,0,24,"[0, 23, 12, 25, 24]",5,14,"[4, 5, 6, 8, 9, 13, 14, 15, 17, 18, 19, 22, 26, 27]",154.0418162,17643,2328,9,16,8,2.0153742455218557
undo,21,5,0,0,0,6,"[0, 23, 12, 25, 24, 6]",6,2,"[4, 18]",53.60277998,18439,796,1,1,8,1.4754324552095808
undo,21,5,0,0,0,4,"[0, 23, 12, 25, 24, 6, 4]",7,1,[18],41.5611854,19238,799,1,0,8,1.4748441081534083
undo,21,5,0,0,1,18,"[0, 23, 12, 25, 24, 6, 4, 18]",8,0,[],3.142439979,21023,1785,1,0,8,1.4638986124231566
undo,21,5,0,1,1,18,"[0, 23, 12, 25, 24, 6, 4, 18]",8,0,[],3.142439979,23544,2521,1,0,8,1.4638986124231566
undo,22,33,0,0,0,0,[0],1,23,"[1, 2, 5, 7, 8, 11, 12, 13, 14, 15, 16, 17, 18, 19, 20, 21, 23, 24, 25, 26, 27, 28, 29]",300,198,-1,5,108,9,0.0
undo,22,33,0,0,0,8,"[0, 8]",2,22,"[1, 2, 5, 7, 11, 12, 13, 14, 15, 16, 17, 18, 19, 20, 21, 23, 24, 25, 26, 27, 28, 29]",265.8679037,4920,4722,5,87,9,1.0
undo,22,33,0,0,0,21,"[0, 8, 21]",3,16,"[2, 5, 7, 11, 13, 14, 16, 17, 18, 19, 20, 24, 26, 27, 28, 29]",166.0430571,6069,1149,5,80,9,1.0670557763739492
undo,22,33,0,0,0,13,"[0, 8, 21, 13]",4,12,"[2, 7, 11, 14, 16, 17, 18, 19, 20, 24, 26, 29]",139.6422995,6996,927,4,54,9,1.0555103820910288
undo,22,33,0,0,0,19,"[0, 8, 21, 13, 19]",5,10,"[7, 11, 14, 16, 17, 18, 20, 24, 26, 29]",114.1472019,7968,972,3,19,9,1.1090798607799486
undo,22,33,0,0,0,24,"[0, 8, 21, 13, 19, 24]",6,6,"[7, 14, 16, 18, 26, 29]",72.09960985,8986,1018,2,3,9,1.1193530461391534
undo,22,33,0,0,0,7,"[0, 8, 21, 13, 19, 24, 7]",7,2,"[14, 26]",42.89344611,10035,1049,2,0,9,1.2065014071663551
undo,22,33,0,0,0,14,"[0, 8, 21, 13, 19, 24, 7, 14]",8,1,[26],28.02737737,10701,666,1,0,9,1.2536495746979057
undo,22,33,0,0,1,26,"[0, 8, 21, 13, 19, 24, 7, 14, 26]",9,0,[],15.37826672,11454,753,1,0,9,1.2580465331304596
undo,22,33,0,1,1,26,"[0, 8, 21, 13, 19, 24, 7, 14, 26]",9,0,[],15.37826672,13073,1619,1,0,9,1.2580465331304596
basic,23,37,0,0,0,0,[0],1,29,"[1, 2, 3, 4, 5, 6, 7, 8, 9, 10, 11, 12, 13, 14, 15, 16, 17, 18, 19, 20, 21, 22, 23, 24, 25, 26, 27, 28, 29]",300,182,-1,6,168,10,0.0
basic,23,37,0,0,0,19,"[0, 19]",2,19,"[1, 2, 4, 5, 6, 7, 9, 10, 11, 15, 17, 18, 20, 21, 22, 25, 26, 28, 29]",185.6627795,3595,3413,25,244,9,1.0
basic,23,37,0,0,0,26,"[0, 19, 26]",3,9,"[1, 2, 4, 15, 20, 21, 22, 25, 29]",120.4094271,4580,985,12,37,8,1.0256292033966232
basic,23,37,0,0,0,21,"[0, 19, 26, 21]",4,6,"[1, 2, 4, 15, 20, 22]",90.67728956,5458,878,8,18,8,1.3487859218508713
basic,23,37,0,0,0,20,"[0, 19, 26, 21, 20]",5,5,"[1, 2, 4, 15, 22]",76.25508446,6222,764,4,8,8,1.4926614025505558
basic,23,37,0,0,0,15,"[0, 19, 26, 21, 20, 15]",6,3,"[1, 2, 4]",59.25508446,7023,801,2,2,8,1.4468094294766474
basic,23,37,0,0,0,1,"[0, 19, 26, 21, 20, 15, 1]",7,2,"[2, 4]",19.29260206,8126,1103,2,0,8,1.7730460035740097
basic,23,37,0,0,1,4,"[0, 19, 26, 21, 20, 15, 1, 4]",8,0,[],1.572556911,8942,816,1,0,8,1.8361028716022745
basic,23,37,0,1,1,4,"[0, 19, 26, 21, 20, 15, 1, 4]",8,0,[],1.572556911,10765,1823,1,0,8,1.8361028716022745
basic,24,17,0,0,0,0,[0],1,28,"[1, 2, 3, 4, 5, 6, 7, 8, 9, 10, 11, 12, 13, 14, 15, 16, 17, 18, 19, 20, 22, 23, 24, 25, 26, 27, 28, 29]",300,175,-1,2,73,8,0.0
basic,24,17,0,0,0,9,"[0, 9]",2,25,"[1, 2, 3, 5, 6, 7, 8, 10, 11, 12, 14, 15, 16, 17, 18, 19, 20, 22, 23, 24, 25, 26, 27, 28, 29]",210.5293344,5389,5214,1,34,8,1.0
basic,24,17,0,0,0,16,"[0, 9, 16]",3,21,"[1, 2, 3, 5, 7, 8, 10, 11, 12, 14, 17, 18, 19, 20, 22, 23, 25, 26, 27, 28, 29]",197.1876704,6954,1565,1,26,8,1.173103464220352
basic,24,17,0,0,0,2,"[0, 9, 16, 2]",4,18,"[1, 3, 5, 7, 8, 10, 11, 12, 14, 17, 18, 19, 23, 25, 26, 27, 28, 29]",181.0631549,7577,623,1,23,8,1.14825089247282
basic,24,17,0,0,0,8,"[0, 9, 16, 2, 8]",5,9,"[3, 7, 10, 11, 12, 14, 17, 26, 27]",145.9490551,8470,893,1,9,8,1.1509808066472915
basic,24,17,0,0,0,17,"[0, 9, 16, 2, 8, 17]",6,1,[7],107.7391088,9293,823,1,0,7,1.821090092937232
basic,24,17,0,0,1,7,"[0, 9, 16, 2, 8, 17, 7]",7,0,[],0.091535648,13650,4357,1,0,7,1.6308527984273244
basic,24,17,0,1,1,7,"[0, 9, 16, 2, 8, 17, 7]",7,0,[],0.091535648,16443,2793,1,0,7,1.6308527984273244
basic,25,42,0,0,0,0,[0],1,29,"[1, 2, 3, 4, 5, 6, 7, 8, 9, 10, 11, 12, 13, 14, 15, 16, 17, 18, 19, 20, 21, 22, 23, 24, 25, 26, 27, 28, 29]",300,181,-1,16,302,9,0.0
basic,25,42,0,0,0,5,"[0, 5]",2,28,"[1, 2, 3, 4, 6, 7, 8, 9, 10, 11, 12, 13, 14, 15, 16, 17, 18, 19, 20, 21, 22, 23, 24, 25, 26, 27, 28, 29]",191.2939744,7447,7266,1,22,9,1.0
basic,25,42,0,0,0,4,"[0, 5, 4]",3,23,"[1, 2, 3, 6, 7, 8, 9, 10, 11, 13, 15, 17, 18, 19, 20, 21, 22, 23, 24, 25, 26, 27, 29]",171.4445412,8143,696,1,14,9,1.420957801478707
basic,25,42,0,0,0,22,"[0, 5, 4, 22]",4,20,"[1, 2, 3, 6, 7, 8, 9, 11, 15, 17, 18, 19, 20, 21, 23, 24, 25, 26, 27, 29]",160.2642013,8661,518,1,11,9,1.5771494659680896
basic,25,42,0,0,0,8,"[0, 5, 4, 22, 8]",5,14,"[1, 2, 3, 6, 7, 11, 15, 18, 19, 24, 25, 26, 27, 29]",138.1282577,9477,816,1,10,9,1.5055393955524201
basic,25,42,0,0,0,1,"[0, 5, 4, 22, 8, 1]",6,5,"[2, 7, 19, 26, 27]",89.03650682,11044,1567,1,7,9,1.3547259083637835
basic,25,42,0,0,0,7,"[0, 5, 4, 22, 8, 1, 7]",7,4,"[2, 19, 26, 27]",59.03650682,11896,852,1,3,9,1.3909715672447451
basic,25,42,0,0,0,26,"[0, 5, 4, 22, 8, 1, 7, 26]",8,1,[27],32.46584631,12897,1001,1,0,9,1.3511825943939393
basic,25,42,0,0,1,27,"[0, 5, 4, 22, 8, 1, 7, 26, 27]",9,0,[],14.43808994,13865,968,1,0,9,1.3391911688802078
basic,25,42,0,1,1,27,"[0, 5, 4, 22, 8, 1, 7, 26, 27]",9,0,[],14.43808994,15732,1867,1,0,9,1.3391911688802078
basic,26,11,0,0,0,0,[0],1,25,"[1, 2, 3, 4, 5, 6, 8, 9, 10, 11, 12, 13, 14, 15, 16, 17, 18, 19, 20, 22, 23, 25, 26, 27, 28]",300,176,-1,6,374,12,0.0
basic,26,11,0,0,0,18,"[0, 18]",2,21,"[1, 2, 4, 5, 6, 8, 9, 11, 12, 13, 14, 15, 16, 17, 19, 20, 22, 23, 25, 27, 28]",236.8493864,2719,2543,157,1477,11,1.0
basic,26,11,0,0,0,27,"[0, 18, 27]",3,19,"[1, 2, 4, 5, 6, 8, 9, 11, 12, 14, 15, 16, 17, 19, 20, 22, 23, 25, 28]",212.9956655,3435,716,157,1315,11,1.060949579704323
basic,26,11,0,0,0,5,"[0, 18, 27, 5]",4,12,"[2, 6, 8, 11, 12, 14, 15, 16, 17, 19, 22, 28]",131.7799035,4320,885,31,207,11,1.0339727918436237
basic,26,11,0,0,0,2,"[0, 18, 27, 5, 2]",5,8,"[8, 11, 12, 15, 17, 19, 22, 28]",114.7799035,5104,784,10,68,11,1.0377168105520382
basic,26,11,0,0,0,22,"[0, 18, 27, 5, 2, 22]",6,6,"[8, 11, 15, 17, 19, 28]",104.7300279,5753,649,8,27,11,1.035729163214962
basic,26,11,0,0,0,28,"[0, 18, 27, 5, 2, 22, 28]",7,5,"[8, 11, 15, 17, 19]",86.34525155,6705,952,8,13,11,1.2364039266401647
basic,26,11,0,0,0,11,"[0, 18, 27, 5, 2, 22, 28, 11]",8,3,"[8, 15, 17]",66.92876371,7470,765,6,0,11,1.344383237443331
basic,26,11,0,0,0,15,"[0, 18, 27, 5, 2, 22, 28, 11, 15]",9,2,"[8, 17]",48.81799344,8374,904,2,0,11,1.60121764180371
basic,26,11,0,0,0,17,"[0, 18, 27, 5, 2, 22, 28, 11, 15, 17]",10,1,[8],36.1688828,9205,831,1,0,11,1.7938151159629114
basic,26,11,0,0,1,8,"[0, 18, 27, 5, 2, 22, 28, 11, 15, 17, 8]",11,0,[],21.85106173,10070,865,1,0,11,1.9155372590441198
basic,26,11,0,1,1,8,"[0, 18, 27, 5, 2, 22, 28, 11, 15, 17, 8]",11,0,[],21.85106173,11311,1241,1,0,11,1.9155372590441198
basic,27,30,0,0,0,0,[0],1,19,"[3, 4, 5, 7, 9, 11, 16, 17, 18, 19, 20, 21, 22, 24, 25, 26, 27, 28, 29]",300,179,-1,5,41,8,0.0
basic,27,30,0,0,0,27,"[0, 27]",2,10,"[3, 5, 7, 9, 18, 19, 20, 24, 25, 29]",90.59608409,4756,4577,7,22,6,1.0
basic,27,30,0,0,0,3,"[0, 27, 3]",3,8,"[5, 7, 18, 19, 20, 24, 25, 29]",71.49111091,6035,1279,5,9,6,1.0022223300201003
basic,27,30,0,0,0,29,"[0, 27, 3, 29]",4,5,"[5, 7, 18, 19, 20]",52.89003567,6977,942,2,3,6,1.0149900937654948
basic,27,30,0,0,0,18,"[0, 27, 3, 29, 18]",5,1,[5],33.57682776,8962,1985,1,0,6,1.0907994995031296
basic,27,30,0,0,1,5,"[0, 27, 3, 29, 18, 5]",6,0,[],20.53842295,9734,772,1,0,6,1.1556882660658163
basic,27,30,0,1,1,5,"[0, 27, 3, 29, 18, 5]",6,0,[],20.53842295,12679,2945,1,0,6,1.1556882660658163
basic,28,44,0,0,0,0,[0],1,29,"[1, 2, 3, 4, 5, 6, 7, 8, 9, 10, 11, 12, 13, 14, 15, 16, 17, 18, 19, 20, 21, 22, 23, 24, 25, 26, 27, 28, 29]",300,224,-1,13,126,7,0.0
basic,28,44,0,0,0,24,"[0, 24]",2,19,"[2, 4, 5, 6, 7, 8, 9, 11, 12, 14, 16, 17, 19, 20, 22, 23, 25, 26, 28]",149.7302426,6288,6064,4,43,7,1.0
basic,28,44,0,0,0,9,"[0, 24, 9]",3,11,"[4, 5, 7, 8, 11, 12, 14, 20, 23, 25, 28]",116.9735639,7103,815,2,15,7,1.153461779613976
basic,28,44,0,0,0,4,"[0, 24, 9, 4]",4,10,"[5, 7, 8, 11, 12, 14, 20, 23, 25, 28]",97.27584825,7989,886,2,10,7,1.1541915958625368
basic,28,44,0,0,0,7,"[0, 24, 9, 4, 7]",5,4,"[5, 12, 23, 25]",66.25972341,8852,863,2,2,7,1.1312544568834735
basic,28,44,0,0,1,23,"[0, 24, 9, 4, 7, 23]",6,0,[],47.15475024,15220,6368,1,0,6,1.154496377323794
basic,28,44,0,1,1,23,"[0, 24, 9, 4, 7, 23]",6,0,[],47.15475024,16142,922,1,0,6,1.154496377323794
basic,29,28,0,0,0,0,[0],1,27,"[1, 2, 3, 4, 5, 6, 7, 8, 9, 10, 11, 12, 13, 14, 15, 16, 17, 18, 19, 20, 22, 23, 25, 26, 27, 28, 29]",300,178,-1,2,96,9,0.0
basic,29,28,0,0,0,3,"[0, 3]",2,26,"[1, 2, 4, 5, 6, 7, 8, 9, 10, 11, 12, 13, 14, 15, 16, 17, 18, 19, 20, 22, 23, 25, 26, 27, 28, 29]",251.0817008,2192,2014,1,64,9,1.0
basic,29,28,0,0,0,5,"[0, 3, 5]",3,20,"[2, 4, 6, 7, 8, 9, 10, 11, 12, 13, 14, 15, 18, 19, 20, 23, 25, 26, 28, 29]",166.9865166,3557,1365,1,34,9,1.0203769473612083
basic,29,28,0,0,0,28,"[0, 3, 5, 28]",4,6,"[2, 4, 8, 9, 19, 26]",100.0761288,4580,1023,8,4,7,1.0823311089558794
basic,29,28,0,0,0,8,"[0, 3, 5, 28, 8]",5,4,"[2, 4, 9, 26]",82.27163495,5279,699,4,2,7,1.0795975941035891
basic,29,28,0,0,0,9,"[0, 3, 5, 28, 8, 9]",6,3,"[2, 4, 26]",67.138889,5979,700,3,0,7,1.131674521612193
basic,29,28,0,0,1,4,"[0, 3, 5, 28, 8, 9, 4]",7,0,[],44.11716013,6707,728,1,0,7,1.1196899491715564
basic,29,28,0,1,1,4,"[0, 3, 5, 28, 8, 9, 4]",7,0,[],44.11716013,8545,1838,1,0,7,1.1196899491715564
basic,30,4,0,0,0,0,[0],1,26,"[3, 4, 5, 6, 7, 8, 10, 11, 12, 13, 14, 15, 16, 17, 18, 19, 20, 21, 22, 23, 24, 25, 26, 27, 28, 29]",300,175,-1,4,489,10,0.0
basic,30,4,0,0,0,28,"[0, 28]",2,21,"[3, 4, 5, 6, 10, 11, 12, 13, 14, 15, 16, 17, 19, 20, 21, 22, 23, 24, 25, 26, 27]",225.9392142,2580,2405,2,216,10,1.0
basic,30,4,0,0,0,11,"[0, 28, 11]",3,16,"[3, 4, 5, 6, 12, 13, 14, 16, 17, 20, 21, 22, 23, 24, 25, 26]",177.0618165,3433,853,1,99,10,1.0005230107421244
basic,30,4,0,0,0,16,"[0, 28, 11, 16]",4,13,"[3, 4, 5, 6, 12, 13, 14, 17, 20, 21, 22, 24, 25]",162.0618165,7818,4385,38,165,9,1.0006824277240565
basic,30,4,0,0,0,17,"[0, 28, 11, 16, 17]",5,12,"[3, 4, 5, 6, 12, 13, 14, 20, 21, 22, 24, 25]",135.9850069,8882,1064,9,39,9,1.000593778858539
basic,30,4,0,0,0,3,"[0, 28, 11, 16, 17, 3]",6,6,"[5, 14, 20, 21, 22, 25]",111.4697056,9998,1116,2,7,9,1.0809398822985845
basic,30,4,0,0,0,14,"[0, 28, 11, 16, 17, 3, 14]",7,1,[25],70.03300684,10903,905,1,0,8,1.6839831140088701
basic,30,4,0,0,1,25,"[0, 28, 11, 16, 17, 3, 14, 25]",8,0,[],53.90849134,11754,851,1,0,8,1.9406182119358029
basic,30,4,0,1,1,25,"[0, 28, 11, 16, 17, 3, 14, 25]",8,0,[],53.90849134,13711,1957,1,0,8,1.9406182119358029
basic,31,2,0,0,0,0,[0],1,23,"[1, 2, 4, 5, 6, 7, 8, 9, 12, 13, 15, 16, 17, 18, 19, 20, 22, 23, 25, 26, 27, 28, 29]",300,222,-1,70,620,10,0.0
basic,31,2,0,0,0,19,"[0, 19]",2,22,"[1, 2, 4, 5, 6, 7, 8, 9, 12, 13, 15, 16, 17, 18, 20, 22, 23, 25, 26, 27, 28, 29]",210.306076,2455,2233,67,431,10,1.0
basic,31,2,0,0,0,12,"[0, 19, 12]",3,17,"[1, 4, 5, 6, 7, 13, 15, 16, 17, 18, 20, 22, 25, 26, 27, 28, 29]",174.2921898,3206,751,66,298,10,1.1107635036313153
basic,31,2,0,0,0,5,"[0, 19, 12, 5]",4,11,"[1, 6, 7, 13, 15, 16, 18, 22, 25, 26, 29]",144.7625437,4171,965,38,136,10,1.0968174771581647
basic,31,2,0,0,0,22,"[0, 19, 12, 5, 22]",5,8,"[1, 6, 7, 13, 15, 18, 26, 29]",131.9562952,4890,719,20,63,10,1.0889910507461968
basic,31,2,0,0,0,13,"[0, 19, 12, 5, 22, 13]",6,7,"[1, 6, 7, 15, 18, 26, 29]",117.0902265,6189,1299,19,20,10,1.236526217328057
basic,31,2,0,0,0,18,"[0, 19, 12, 5, 22, 13, 18]",7,4,"[7, 15, 26, 29]",81.91921567,7920,1731,10,3,10,1.2128708213409936
basic,31,2,0,0,0,7,"[0, 19, 12, 5, 22, 13, 18, 7]",8,3,"[15, 26, 29]",71.62358553,8803,883,5,0,10,1.2019811287894737
basic,31,2,0,0,0,26,"[0, 19, 12, 5, 22, 13, 18, 7, 26]",9,2,"[15, 29]",48.82007703,9691,888,2,0,10,1.1883593342191134
basic,31,2,0,0,1,15,"[0, 19, 12, 5, 22, 13, 18, 7, 26, 15]",10,0,[],24.61264015,10639,948,1,0,10,1.4619750353663825
basic,31,2,0,1,1,15,"[0, 19, 12, 5, 22, 13, 18, 7, 26, 15]",10,0,[],24.61264015,12159,1520,1,0,10,1.4619750353663825
basic,32,27,0,0,0,0,[0],1,26,"[1, 3, 5, 6, 7, 8, 9, 10, 11, 12, 13, 14, 15, 16, 17, 18, 19, 21, 22, 23, 24, 25, 26, 27, 28, 29]",300,191,-1,13,578,11,0.0
basic,32,27,0,0,0,15,"[0, 15]",2,24,"[1, 3, 5, 6, 7, 8, 9, 10, 11, 12, 13, 14, 16, 17, 18, 19, 21, 22, 23, 24, 25, 26, 27, 29]",263.7508621,2168,1977,6,219,11,1.0
basic,32,27,0,0,0,24,"[0, 15, 24]",3,20,"[1, 5, 6, 7, 8, 9, 10, 12, 13, 14, 16, 17, 18, 19, 21, 23, 25, 26, 27, 29]",246.5462115,3000,832,6,130,11,1.130933077698322
basic,32,27,0,0,0,17,"[0, 15, 24, 17]",4,15,"[1, 6, 8, 10, 12, 13, 14, 16, 18, 19, 23, 25, 26, 27, 29]",229.9932662,4667,1667,4,60,11,1.1285538435963374
basic,32,27,0,0,0,12,"[0, 15, 24, 17, 12]",5,14,"[1, 6, 8, 10, 13, 14, 16, 18, 19, 23, 25, 26, 27, 29]",218.8129263,5263,596,2,32,11,1.2561880288755216
basic,32,27,0,0,0,10,"[0, 15, 24, 17, 12, 10]",6,11,"[1, 8, 13, 14, 18, 19, 23, 25, 26, 27, 29]",207.7675653,5951,688,2,28,11,1.2228289337766665
basic,32,27,0,0,0,13,"[0, 15, 24, 17, 12, 10, 13]",7,9,"[1, 8, 14, 18, 19, 23, 26, 27, 29]",167.9178476,7032,1081,2,18,11,1.3421291994761178
basic,32,27,0,0,0,19,"[0, 15, 24, 17, 12, 10, 13, 19]",8,5,"[1, 8, 14, 23, 29]",131.6825057,7988,956,2,6,11,1.294749956153846
basic,32,27,0,0,0,8,"[0, 15, 24, 17, 12, 10, 13, 19, 8]",9,3,"[14, 23, 29]",116.816437,9937,1949,2,1,11,1.3554286578836865
basic,32,27,0,0,0,29,"[0, 15, 24, 17, 12, 10, 13, 19, 8, 29]",10,1,[14],57.61339652,11232,1295,1,0,11,1.248354519573802
basic,32,27,0,0,1,14,"[0, 15, 24, 17, 12, 10, 13, 19, 8, 29, 14]",11,0,[],13.31892734,12418,1186,1,0,11,1.562811097555156
basic,32,27,0,1,1,14,"[0, 15, 24, 17, 12, 10, 13, 19, 8, 29, 14]",11,0,[],13.31892734,13924,1506,1,0,11,1.562811097555156
basic,33,32,0,0,0,0,[0],1,29,"[1, 2, 3, 4, 5, 6, 7, 8, 9, 10, 11, 12, 13, 14, 15, 16, 17, 18, 19, 20, 21, 22, 23, 24, 25, 26, 27, 28, 29]",300,182,-1,17,359,10,0.0
basic,33,32,0,0,0,19,"[0, 19]",2,28,"[1, 2, 3, 4, 5, 6, 7, 8, 9, 10, 11, 12, 13, 14, 15, 16, 17, 18, 20, 21, 22, 23, 24, 25, 26, 27, 28, 29]",283.5075775,3817,3635,16,294,10,1.0
basic,33,32,0,0,0,15,"[0, 19, 15]",3,21,"[2, 3, 5, 7, 8, 9, 10, 11, 12, 13, 14, 16, 17, 20, 22, 23, 24, 25, 26, 27, 28]",197.7987681,4885,1068,2,52,10,1.19699508325577
basic,33,32,0,0,0,28,"[0, 19, 15, 28]",4,19,"[2, 3, 5, 7, 8, 9, 10, 11, 12, 13, 16, 17, 20, 22, 23, 24, 25, 26, 27]",186.3970139,6368,1483,2,41,10,1.1739755297768444
basic,33,32,0,0,0,12,"[0, 19, 15, 28, 12]",5,17,"[2, 3, 5, 7, 8, 9, 10, 11, 13, 16, 17, 20, 22, 23, 24, 26, 27]",167.4233479,7206,838,2,25,10,1.177540715424265
basic,33,32,0,0,0,16,"[0, 19, 15, 28, 12, 16]",6,16,"[2, 3, 5, 7, 8, 9, 10, 11, 13, 17, 20, 22, 23, 24, 26, 27]",151.7708721,8018,812,2,17,10,1.2623133279216439
basic,33,32,0,0,0,22,"[0, 19, 15, 28, 12, 16, 22]",7,10,"[2, 3, 5, 8, 9, 10, 11, 17, 20, 27]",117.9330235,9004,986,2,7,10,1.2893434049314008
basic,33,32,0,0,0,9,"[0, 19, 15, 28, 12, 16, 22, 9]",8,4,"[2, 8, 17, 20]",95.72942015,9751,747,2,2,10,1.3492394817468627
basic,33,32,0,0,0,8,"[0, 19, 15, 28, 12, 16, 22, 9, 8]",9,1,[20],50.60736346,10706,955,1,0,10,1.2728587925837391
basic,33,32,0,0,1,20,"[0, 19, 15, 28, 12, 16, 22, 9, 8, 20]",10,0,[],0.278445332,11949,1243,1,0,10,1.4817741230721702
basic,33,32,0,1,1,20,"[0, 19, 15, 28, 12, 16, 22, 9, 8, 20]",10,0,[],0.278445332,13676,1727,1,0,10,1.4817741230721702
basic,34,18,0,0,0,0,[0],1,28,"[1, 2, 3, 4, 5, 6, 7, 8, 9, 10, 11, 12, 13, 14, 16, 17, 18, 19, 20, 21, 22, 23, 24, 25, 26, 27, 28, 29]",300,184,-1,3,136,10,0.0
basic,34,18,0,0,0,28,"[0, 28]",2,16,"[1, 3, 5, 7, 8, 9, 12, 13, 14, 16, 20, 23, 24, 25, 26, 27]",236.4311397,2050,1866,2,19,10,1.0
basic,34,18,0,0,0,7,"[0, 28, 7]",3,15,"[1, 3, 5, 8, 9, 12, 13, 14, 16, 20, 23, 24, 25, 26, 27]",214.4084242,2900,850,2,17,10,1.4345180696367563
basic,34,18,0,0,0,25,"[0, 28, 7, 25]",4,13,"[1, 3, 5, 8, 9, 12, 13, 14, 16, 20, 23, 26, 27]",186.6055466,4250,1350,2,15,10,1.8896451241781882
basic,34,18,0,0,0,8,"[0, 28, 7, 25, 8]",5,10,"[3, 5, 9, 12, 13, 14, 16, 23, 26, 27]",149.551532,5133,883,2,10,10,1.590467437592877
basic,34,18,0,0,0,3,"[0, 28, 7, 25, 8, 3]",6,6,"[5, 12, 13, 14, 23, 27]",121.4801943,5836,703,1,10,9,1.4587755974793148
basic,34,18,0,0,0,14,"[0, 28, 7, 25, 8, 3, 14]",7,4,"[5, 12, 13, 27]",91.39697637,6698,862,4,0,8,1.8606737724243565
basic,34,18,0,0,1,13,"[0, 28, 7, 25, 8, 3, 14, 13]",8,0,[],72.42331041,8029,1331,1,0,8,2.4208916262893254
basic,34,18,0,1,1,13,"[0, 28, 7, 25, 8, 3, 14, 13]",8,0,[],72.42331041,17325,9296,1,0,8,2.4208916262893254
basic,35,6,0,0,0,0,[0],1,29,"[1, 2, 3, 4, 5, 6, 7, 8, 9, 10, 11, 12, 13, 14, 15, 16, 17, 18, 19, 20, 21, 22, 23, 24, 25, 26, 27, 28, 29]",300,188,-1,180,4304,10,0.0
basic,35,6,0,0,0,3,"[0, 3]",2,28,"[1, 2, 4, 5, 6, 7, 8, 9, 10, 11, 12, 13, 14, 15, 16, 17, 18, 19, 20, 21, 22, 23, 24, 25, 26, 27, 28, 29]",266.4738908,3223,3035,90,1607,10,1.0
basic,35,6,0,0,0,16,"[0, 3, 16]",3,27,"[1, 2, 4, 5, 6, 7, 8, 9, 10, 11, 12, 13, 14, 15, 17, 18, 19, 20, 21, 22, 23, 24, 25, 26, 27, 28, 29]",220.2353787,6436,3213,16,190,10,1.1050742161728249
basic,35,6,0,0,0,18,"[0, 3, 16, 18]",4,24,"[1, 2, 4, 5, 6, 7, 8, 9, 10, 11, 12, 13, 14, 15, 17, 19, 20, 21, 22, 23, 24, 26, 27, 29]",196.8901436,7185,749,10,97,10,1.6930577237270534
basic,35,6,0,0,0,17,"[0, 3, 16, 18, 17]",5,20,"[1, 2, 4, 5, 6, 7, 8, 9, 10, 11, 13, 14, 20, 21, 22, 23, 24, 26, 27, 29]",182.9617553,8121,936,8,58,10,1.6583245453234965
basic,35,6,0,0,0,10,"[0, 3, 16, 18, 17, 10]",6,17,"[1, 2, 4, 5, 6, 7, 8, 11, 13, 14, 21, 22, 23, 24, 26, 27, 29]",163.2386724,8893,772,6,33,10,1.6214605156931816
basic,35,6,0,0,0,24,"[0, 3, 16, 18, 17, 10, 24]",7,15,"[1, 2, 4, 5, 6, 7, 8, 11, 13, 14, 22, 23, 26, 27, 29]",149.8222646,9750,857,6,18,10,1.5435556829623227
basic,35,6,0,0,0,23,"[0, 3, 16, 18, 17, 10, 24, 23]",8,6,"[6, 11, 14, 22, 27, 29]",88.6340304,10638,888,3,4,10,1.5749914836315253
basic,35,6,0,0,0,22,"[0, 3, 16, 18, 17, 10, 24, 23, 22]",9,2,"[14, 27]",47.6340304,13389,2751,2,0,10,1.6207636864423158
basic,35,6,0,0,1,14,"[0, 3, 16, 18, 17, 10, 24, 23, 22, 14]",10,0,[],13.22472933,15261,1872,1,0,10,1.7051539946832646
basic,35,6,0,1,1,14,"[0, 3, 16, 18, 17, 10, 24, 23, 22, 14]",10,0,[],13.22472933,16796,1535,1,0,10,1.7051539946832646
basic,36,5,0,0,0,0,[0],1,29,"[1, 2, 3, 4, 5, 6, 7, 8, 9, 10, 11, 12, 13, 14, 15, 16, 17, 18, 19, 20, 21, 22, 23, 24, 25, 26, 27, 28, 29]",300,239,-1,5,139,9,0.0
basic,36,5,0,0,0,23,"[0, 23]",2,27,"[1, 2, 3, 4, 5, 6, 7, 8, 9, 10, 11, 12, 13, 14, 15, 16, 17, 18, 19, 20, 21, 22, 24, 25, 26, 27, 28]",249.8402552,2619,2380,3,75,9,1.0
basic,36,5,0,0,0,24,"[0, 23, 24]",3,24,"[1, 2, 3, 4, 5, 6, 8, 9, 10, 11, 12, 13, 14, 15, 16, 17, 18, 19, 21, 22, 25, 26, 27, 28]",226.7534624,3518,899,20,147,8,1.0113799830159869
basic,36,5,0,0,0,17,"[0, 23, 24, 17]",4,18,"[2, 4, 5, 6, 8, 9, 10, 12, 13, 14, 15, 18, 19, 22, 25, 26, 27, 28]",191.7677511,4279,761,6,49,8,1.0136434296829369
basic,36,5,0,0,0,5,"[0, 23, 24, 17, 5]",5,9,"[4, 6, 8, 12, 14, 15, 18, 19, 25]",148.7212646,5018,739,6,10,8,1.0121300076484332
basic,36,5,0,0,0,15,"[0, 23, 24, 17, 5, 15]",6,3,"[4, 6, 18]",108.6962724,5855,837,3,0,7,1.0825931000162876
basic,36,5,0,0,1,18,"[0, 23, 24, 17, 5, 15, 18]",7,0,[],26.4770532,8285,2430,1,0,7,1.3488282469817765
basic,36,5,0,1,1,18,"[0, 23, 24, 17, 5, 15, 18]",7,0,[],26.4770532,9673,1388,1,0,7,1.3488282469817765
basic,37,8,0,0,0,0,[0],1,29,"[1, 2, 3, 4, 5, 6, 7, 8, 9, 10, 11, 12, 13, 14, 15, 16, 17, 18, 19, 20, 21, 22, 23, 24, 25, 26, 27, 28, 29]",300,231,-1,10,149,9,0.0
basic,37,8,0,0,0,5,"[0, 5]",2,28,"[1, 2, 3, 4, 6, 7, 8, 9, 10, 11, 12, 13, 14, 15, 16, 17, 18, 19, 20, 21, 22, 23, 24, 25, 26, 27, 28, 29]",254.5137383,2905,2674,10,100,9,1.0
basic,37,8,0,0,0,14,"[0, 5, 14]",3,20,"[1, 2, 3, 4, 6, 7, 11, 15, 16, 17, 18, 19, 20, 21, 22, 23, 24, 25, 28, 29]",214.5512559,5322,2417,4,36,9,1.0001019035932595
basic,37,8,0,0,0,17,"[0, 5, 14, 17]",4,15,"[1, 4, 6, 7, 11, 15, 16, 18, 19, 20, 22, 23, 24, 25, 28]",177.5377449,6140,818,4,16,9,1.121197267659591
basic,37,8,0,0,0,11,"[0, 5, 14, 17, 11]",5,11,"[1, 4, 15, 16, 18, 19, 22, 23, 24, 25, 28]",152.3583883,6971,831,4,8,9,1.1277254166016362
basic,37,8,0,0,0,24,"[0, 5, 14, 17, 11, 24]",6,3,"[15, 16, 28]",115.1428001,7723,752,2,2,9,1.1227411011978805
basic,37,8,0,0,0,15,"[0, 5, 14, 17, 11, 24, 15]",7,2,"[16, 28]",98.37974552,8367,644,2,0,9,1.1956385406066814
basic,37,8,0,0,0,16,"[0, 5, 14, 17, 11, 24, 15, 16]",8,1,[28],47.30137436,9388,1021,1,0,9,1.36482239111247
basic,37,8,0,0,1,28,"[0, 5, 14, 17, 11, 24, 15, 16, 28]",9,0,[],24.94069458,9991,603,1,0,9,1.632953105226947
basic,37,8,0,1,1,28,"[0, 5, 14, 17, 11, 24, 15, 16, 28]",9,0,[],24.94069458,11095,1104,1,0,9,1.632953105226947
basic,38,29,0,0,0,0,[0],1,29,"[1, 2, 3, 4, 5, 6, 7, 8, 9, 10, 11, 12, 13, 14, 15, 16, 17, 18, 19, 20, 21, 22, 23, 24, 25, 26, 27, 28, 29]",300,174,-1,1,78,9,0.0
basic,38,29,0,0,0,6,"[0, 6]",2,28,"[1, 2, 3, 4, 5, 7, 8, 9, 10, 11, 12, 13, 14, 15, 16, 17, 18, 19, 20, 21, 22, 23, 24, 25, 26, 27, 28, 29]",228.4108947,1918,1744,1,25,9,1.0
basic,38,29,0,0,0,28,"[0, 6, 28]",3,24,"[1, 3, 4, 5, 7, 9, 10, 11, 12, 13, 14, 15, 16, 17, 18, 20, 21, 22, 23, 24, 25, 26, 27, 29]",187.1798384,2919,1001,1,22,9,1.162106788166845
basic,38,29,0,0,0,27,"[0, 6, 28, 27]",4,19,"[1, 3, 4, 5, 7, 9, 10, 11, 12, 13, 14, 15, 16, 21, 22, 23, 25, 26, 29]",166.6615539,3768,849,1,21,9,1.2307173895439045
basic,38,29,0,0,0,22,"[0, 6, 28, 27, 22]",5,13,"[1, 3, 4, 5, 7, 9, 12, 13, 14, 15, 21, 26, 29]",133.4200136,4691,923,1,19,9,1.4241767805149903
basic,38,29,0,0,0,12,"[0, 6, 28, 27, 22, 12]",6,8,"[4, 5, 7, 9, 13, 14, 21, 26]",95.4726817,5706,1015,1,6,9,1.3248355326460857
basic,38,29,0,0,0,7,"[0, 6, 28, 27, 22, 12, 7]",7,4,"[4, 5, 9, 21]",81.87121119,6492,786,1,3,9,1.3264091962339806
basic,38,29,0,0,0,9,"[0, 6, 28, 27, 22, 12, 7, 9]",8,1,[4],52.80232748,7253,761,1,0,9,1.309391257644539
basic,38,29,0,0,1,4,"[0, 6, 28, 27, 22, 12, 7, 9, 4]",9,0,[],11.76575843,8249,996,1,0,9,1.6396807789841599
basic,38,29,0,1,1,4,"[0, 6, 28, 27, 22, 12, 7, 9, 4]",9,0,[],11.76575843,9060,811,1,0,9,1.6396807789841599
basic,39,10,0,0,0,0,[0],1,29,"[1, 2, 3, 4, 5, 6, 7, 8, 9, 10, 11, 12, 13, 14, 15, 16, 17, 18, 19, 20, 21, 22, 23, 24, 25, 26, 27, 28, 29]",300,209,-1,1,100,9,0.0
basic,39,10,0,0,0,13,"[0, 13]",2,25,"[1, 2, 3, 4, 6, 7, 8, 9, 10, 11, 12, 14, 17, 18, 19, 20, 21, 22, 23, 24, 25, 26, 27, 28, 29]",249.4628849,5427,5218,1,79,9,1.0
basic,39,10,0,0,0,11,"[0, 13, 11]",3,20,"[1, 2, 3, 6, 7, 8, 9, 10, 12, 14, 18, 19, 20, 21, 22, 24, 26, 27, 28, 29]",206.4512586,6329,902,1,54,9,1.0313137484914219
basic,39,10,0,0,0,19,"[0, 13, 11, 19]",4,11,"[2, 6, 8, 9, 10, 14, 18, 20, 24, 26, 27]",170.0919407,7060,731,1,22,9,1.0879446220132545
basic,39,10,0,0,0,2,"[0, 13, 11, 19, 2]",5,4,"[14, 20, 26, 27]",126.1829439,7881,821,1,4,9,1.06474052351343
basic,39,10,0,0,0,14,"[0, 13, 11, 19, 2, 14]",6,3,"[20, 26, 27]",114.0174188,8545,664,1,3,9,1.1628909195912238
basic,39,10,0,0,0,26,"[0, 13, 11, 19, 2, 14, 26]",7,2,"[20, 27]",79.34754716,10161,1616,1,1,9,1.6660727647633602
basic,39,10,0,0,0,20,"[0, 13, 11, 19, 2, 14, 26, 20]",8,1,[27],47.56704999,10931,770,1,0,9,2.085581809637999
basic,39,10,0,0,1,27,"[0, 13, 11, 19, 2, 14, 26, 20, 27]",9,0,[],2.312215998,11996,1065,1,0,9,1.9116357409137932
basic,39,10,0,1,1,27,"[0, 13, 11, 19, 2, 14, 26, 20, 27]",9,0,[],2.312215998,13586,1590,1,0,9,1.9116357409137932
basic,40,25,0,0,0,0,[0],1,28,"[1, 2, 3, 4, 5, 7, 8, 9, 10, 11, 12, 13, 14, 15, 16, 17, 18, 19, 20, 21, 22, 23, 24, 25, 26, 27, 28, 29]",300,189,-1,5,94,10,0.0
basic,40,25,0,0,0,23,"[0, 23]",2,23,"[1, 2, 3, 5, 7, 8, 9, 11, 12, 13, 14, 16, 17, 19, 20, 21, 22, 24, 25, 26, 27, 28, 29]",259.7756293,3357,3168,3,33,10,1.0
basic,40,25,0,0,0,19,"[0, 23, 19]",3,21,"[1, 2, 3, 5, 7, 8, 9, 11, 12, 13, 14, 16, 17, 20, 21, 22, 24, 25, 27, 28, 29]",223.9287326,4434,1077,3,24,10,1.583101227007039
basic,40,25,0,0,0,29,"[0, 23, 19, 29]",4,19,"[1, 2, 3, 5, 7, 8, 9, 11, 12, 13, 14, 16, 17, 20, 21, 22, 24, 25, 28]",207.649912,5416,982,3,17,10,1.474631541426484
basic,40,25,0,0,0,22,"[0, 23, 19, 29, 22]",5,18,"[1, 2, 3, 5, 7, 8, 9, 11, 12, 13, 14, 16, 17, 20, 21, 24, 25, 28]",191.5253965,6082,666,3,14,10,1.4020377754906637
basic,40,25,0,0,0,7,"[0, 23, 19, 29, 22, 7]",6,7,"[3, 8, 9, 11, 13, 24, 28]",115.8814939,6992,910,3,11,10,1.5709678649326715
basic,40,25,0,0,0,24,"[0, 23, 19, 29, 22, 7, 24]",7,5,"[3, 8, 9, 13, 28]",91.12265712,7784,792,3,7,10,1.486191600033379
basic,40,25,0,0,0,9,"[0, 23, 19, 29, 22, 7, 24, 9]",8,4,"[3, 8, 13, 28]",73.09490075,8755,971,3,3,10,1.453504870342882
basic,40,25,0,0,0,3,"[0, 23, 19, 29, 22, 7, 24, 9, 3]",9,3,"[8, 13, 28]",42.82940885,11252,2497,3,0,10,1.388955167525479
basic,40,25,0,0,1,8,"[0, 23, 19, 29, 22, 7, 24, 9, 3, 8]",10,0,[],3.624817279,13503,2251,1,0,10,1.4820797135778283
basic,40,25,0,1,1,8,"[0, 23, 19, 29, 22, 7, 24, 9, 3, 8]",10,0,[],3.624817279,14776,1273,1,0,10,1.4820797135778283
basic,41,13,0,0,0,0,[0],1,29,"[1, 2, 3, 4, 5, 6, 7, 8, 9, 10, 11, 12, 13, 14, 15, 16, 17, 18, 19, 20, 21, 22, 23, 24, 25, 26, 27, 28, 29]",300,175,-1,60,2676,11,0.0
basic,41,13,0,0,0,24,"[0, 24]",2,28,"[1, 2, 3, 4, 5, 6, 7, 8, 9, 10, 11, 12, 13, 14, 15, 16, 17, 18, 19, 20, 21, 22, 23, 25, 26, 27, 28, 29]",288.8196601,5409,5234,16,1444,11,1.0
basic,41,13,0,0,0,28,"[0, 24, 28]",3,23,"[1, 2, 3, 4, 6, 7, 8, 9, 10, 11, 12, 13, 15, 16, 17, 19, 20, 21, 22, 23, 26, 27, 29]",222.5324064,6403,994,8,243,11,1.0513810491680837
basic,41,13,0,0,0,2,"[0, 24, 28, 2]",4,19,"[1, 3, 4, 6, 7, 9, 11, 12, 13, 15, 16, 17, 19, 20, 21, 23, 26, 27, 29]",184.889346,7187,784,7,110,11,1.050374132001543
basic,41,13,0,0,0,29,"[0, 24, 28, 2, 29]",5,18,"[1, 3, 4, 6, 7, 9, 11, 12, 13, 15, 16, 17, 19, 20, 21, 23, 26, 27]",173.1846461,7899,712,7,85,11,1.1393409619120594
basic,41,13,0,0,0,7,"[0, 24, 28, 2, 29, 7]",6,17,"[1, 3, 4, 6, 9, 11, 12, 13, 15, 16, 17, 19, 20, 21, 23, 26, 27]",157.9203086,8755,856,5,45,11,1.349777315111579
basic,41,13,0,0,0,26,"[0, 24, 28, 2, 29, 7, 26]",7,16,"[1, 3, 4, 6, 9, 11, 12, 13, 15, 16, 17, 19, 20, 21, 23, 27]",147.480002,9571,816,5,25,11,1.5942082773824946
basic,41,13,0,0,0,6,"[0, 24, 28, 2, 29, 7, 26, 6]",8,12,"[1, 3, 4, 11, 13, 15, 16, 17, 19, 20, 23, 27]",127.3802508,10756,1185,4,12,11,1.5898347940840756
basic,41,13,0,0,0,11,"[0, 24, 28, 2, 29, 7, 26, 6, 11]",9,6,"[1, 13, 15, 16, 17, 23]",108.2752776,11602,846,3,4,11,1.5029953945561012
basic,41,13,0,0,1,16,"[0, 24, 28, 2, 29, 7, 26, 6, 11, 16]",10,0,[],21.18337215,13857,2255,1,0,10,3.0290055362462343
basic,41,13,0,1,1,16,"[0, 24, 28, 2, 29, 7, 26, 6, 11, 16]",10,0,[],21.18337215,15277,1420,1,0,10,3.0290055362462343
basic,42,19,0,0,0,0,[0],1,29,"[1, 2, 3, 4, 5, 6, 7, 8, 9, 10, 11, 12, 13, 14, 15, 16, 17, 18, 19, 20, 21, 22, 23, 24, 25, 26, 27, 28, 29]",300,212,-1,12,149,8,0.0
basic,42,19,0,0,0,29,"[0, 29]",2,28,"[1, 2, 3, 4, 5, 6, 7, 8, 9, 10, 11, 12, 13, 14, 15, 16, 17, 18, 19, 20, 21, 22, 23, 24, 25, 26, 27, 28]",265.0715016,4801,4589,12,120,8,1.0
basic,42,19,0,0,0,27,"[0, 29, 27]",3,6,"[4, 6, 9, 11, 14, 28]",119.9853203,7152,2351,2,7,6,1.1559846056745031
basic,42,19,0,0,0,28,"[0, 29, 27, 28]",4,4,"[4, 6, 11, 14]",67.5830303,8001,849,2,3,6,1.4182316410437095
basic,42,19,0,0,0,4,"[0, 29, 27, 28, 4]",5,2,"[6, 14]",56.40269041,8836,835,2,0,6,1.478085680590999
basic,42,19,0,0,1,6,"[0, 29, 27, 28, 4, 6]",6,0,[],15.3539389,10102,1266,1,0,6,1.8515547684298348
basic,42,19,0,1,1,6,"[0, 29, 27, 28, 4, 6]",6,0,[],15.3539389,11341,1239,1,0,6,1.8515547684298348
basic,43,45,0,0,0,0,[0],1,24,"[1, 2, 3, 4, 5, 6, 7, 9, 10, 11, 12, 14, 15, 16, 17, 19, 20, 21, 22, 23, 24, 25, 27, 29]",300,173,-1,6,248,10,0.0
basic,43,45,0,0,0,15,"[0, 15]",2,23,"[1, 2, 3, 4, 5, 6, 7, 9, 10, 11, 12, 14, 16, 17, 19, 20, 21, 22, 23, 24, 25, 27, 29]",253.9022777,7435,7262,5,207,10,1.0
basic,43,45,0,0,0,23,"[0, 15, 23]",3,22,"[1, 2, 3, 4, 5, 6, 7, 9, 10, 11, 12, 14, 16, 17, 19, 20, 21, 22, 24, 25, 27, 29]",230.3014303,8072,637,5,163,10,1.0006068457769497
basic,43,45,0,0,0,20,"[0, 15, 23, 20]",4,19,"[1, 2, 3, 5, 6, 7, 9, 10, 11, 12, 14, 16, 17, 19, 21, 22, 24, 25, 29]",188.8647316,9102,1030,5,137,10,1.2062119754673604
basic,43,45,0,0,0,10,"[0, 15, 23, 20, 10]",5,12,"[2, 3, 6, 7, 9, 12, 14, 17, 22, 24, 25, 29]",132.784432,11052,1950,1,54,10,1.1363907740691004
basic,43,45,0,0,0,29,"[0, 15, 23, 20, 10, 29]",6,8,"[2, 3, 6, 7, 12, 14, 22, 24]",111.2437728,14119,3067,1,21,10,1.1719694806770014
basic,43,45,0,0,0,3,"[0, 15, 23, 20, 10, 29, 3]",7,5,"[2, 6, 7, 12, 22]",91.24377276,14803,684,1,7,10,1.1637144299354454
basic,43,45,0,0,0,2,"[0, 15, 23, 20, 10, 29, 3, 2]",8,2,"[6, 7]",65.92579496,15891,1088,2,0,9,1.3965435955776868
basic,43,45,0,0,1,7,"[0, 15, 23, 20, 10, 29, 3, 2, 7]",9,0,[],27.91263934,16987,1096,1,0,9,2.050819128376323
basic,43,45,0,1,1,7,"[0, 15, 23, 20, 10, 29, 3, 2, 7]",9,0,[],27.91263934,18293,1306,1,0,9,2.050819128376323
basic,44,40,0,0,0,0,[0],1,29,"[1, 2, 3, 4, 5, 6, 7, 8, 9, 10, 11, 12, 13, 14, 15, 16, 17, 18, 19, 20, 21, 22, 23, 24, 25, 26, 27, 28, 29]",300,177,-1,8,191,9,0.0
basic,44,40,0,0,0,1,"[0, 1]",2,18,"[2, 5, 6, 7, 8, 9, 10, 11, 13, 15, 17, 18, 19, 21, 22, 23, 27, 29]",247.8463808,9670,9493,4,80,9,1.0
basic,44,40,0,0,0,6,"[0, 1, 6]",3,17,"[2, 5, 7, 8, 9, 10, 11, 13, 15, 17, 18, 19, 21, 22, 23, 27, 29]",227.7466295,10350,680,4,74,9,1.0459427008232034
basic,44,40,0,0,0,21,"[0, 1, 6, 21]",4,8,"[2, 5, 9, 17, 18, 19, 22, 23]",175.7754837,11233,883,4,25,9,1.0308822257404064
basic,44,40,0,0,0,9,"[0, 1, 6, 21, 9]",5,6,"[2, 5, 18, 19, 22, 23]",130.0699041,11986,753,4,12,9,1.377861912961129
basic,44,40,0,0,0,18,"[0, 1, 6, 21, 9, 18]",6,5,"[2, 5, 19, 22, 23]",113.5169588,12733,747,4,4,9,1.5742712168661408
basic,44,40,0,0,0,5,"[0, 1, 6, 21, 9, 18, 5]",7,3,"[19, 22, 23]",81.94165198,14195,1462,2,1,9,1.7730665063055515
basic,44,40,0,0,0,23,"[0, 1, 6, 21, 9, 18, 5, 23]",8,1,[19],53.63970859,14998,803,1,0,9,2.597442759912231
basic,44,40,0,0,1,19,"[0, 1, 6, 21, 9, 18, 5, 23, 19]",9,0,[],21.68661797,16337,1339,1,0,9,2.7128328554069565
basic,44,40,0,1,1,19,"[0, 1, 6, 21, 9, 18, 5, 23, 19]",9,0,[],21.68661797,17291,954,1,0,9,2.7128328554069565
basic,45,3,0,0,0,0,[0],1,29,"[1, 2, 3, 4, 5, 6, 7, 8, 9, 10, 11, 12, 13, 14, 15, 16, 17, 18, 19, 20, 21, 22, 23, 24, 25, 26, 27, 28, 29]",300,221,-1,34,427,10,0.0
basic,45,3,0,0,0,8,"[0, 8]",2,28,"[1, 2, 3, 4, 5, 6, 7, 9, 10, 11, 12, 13, 14, 15, 16, 17, 18, 19, 20, 21, 22, 23, 24, 25, 26, 27, 28, 29]",239.9666759,3253,3032,1,54,10,1.0
basic,45,3,0,0,0,24,"[0, 8, 24]",3,23,"[1, 2, 3, 4, 5, 6, 7, 10, 11, 12, 14, 15, 16, 17, 18, 19, 20, 21, 22, 25, 26, 27, 28]",227.8011509,4069,816,1,50,10,1.2267083825981846
basic,45,3,0,0,0,17,"[0, 8, 24, 17]",4,11,"[3, 4, 7, 10, 14, 15, 16, 19, 20, 21, 27]",158.4469873,5002,933,1,18,10,1.3836579788002414
basic,45,3,0,0,0,20,"[0, 8, 24, 17, 20]",5,9,"[3, 4, 7, 10, 14, 15, 16, 19, 21]",145.7978767,5805,803,1,14,10,1.3620097615632467
basic,45,3,0,0,0,3,"[0, 8, 24, 17, 20, 3]",6,5,"[4, 10, 14, 19, 21]",125.4017986,6555,750,1,11,10,1.3956695218398405
basic,45,3,0,0,0,19,"[0, 8, 24, 17, 20, 3, 19]",7,4,"[4, 10, 14, 21]",88.06548922,7517,962,1,4,10,1.4360605238855817
basic,45,3,0,0,0,21,"[0, 8, 24, 17, 20, 3, 19, 21]",8,2,"[10, 14]",75.85893361,8233,716,1,1,10,1.4576450248605066
basic,45,3,0,0,0,14,"[0, 8, 24, 17, 20, 3, 19, 21, 14]",9,1,[10],48.95168551,9200,967,1,0,10,1.9505702217699148
basic,45,3,0,0,1,10,"[0, 8, 24, 17, 20, 3, 19, 21, 14, 10]",10,0,[],3.498412803,10420,1220,1,0,10,1.8830527336542522
basic,45,3,0,1,1,10,"[0, 8, 24, 17, 20, 3, 19, 21, 14, 10]",10,0,[],3.498412803,12441,2021,1,0,10,1.8830527336542522
basic,46,0,0,0,0,0,[0],1,27,"[2, 3, 4, 5, 6, 7, 8, 9, 10, 11, 12, 13, 14, 15, 16, 17, 19, 20, 21, 22, 23, 24, 25, 26, 27, 28, 29]",300,188,-1,104,1136,9,0.0
basic,46,0,0,0,0,20,"[0, 20]",2,25,"[2, 3, 4, 5, 6, 7, 8, 9, 11, 12, 13, 14, 15, 16, 17, 19, 21, 22, 23, 24, 25, 26, 27, 28, 29]",215.4955622,7793,7605,36,372,9,1.0
basic,46,0,0,0,0,28,"[0, 20, 28]",3,19,"[3, 4, 5, 7, 8, 9, 11, 12, 13, 14, 15, 16, 17, 19, 21, 23, 24, 26, 29]",156.2925218,8988,1195,3,83,9,1.3675886789005969
basic,46,0,0,0,0,5,"[0, 20, 28, 5]",4,12,"[3, 4, 7, 8, 9, 11, 12, 15, 17, 21, 24, 26]",112.6347619,9926,938,2,50,9,1.3829293532227536
basic,46,0,0,0,0,4,"[0, 20, 28, 5, 4]",5,10,"[3, 7, 8, 9, 11, 12, 15, 17, 24, 26]",87.55488947,10843,917,2,26,9,1.3571235497342058
basic,46,0,0,0,0,26,"[0, 20, 28, 5, 4, 26]",6,9,"[3, 7, 8, 9, 11, 12, 15, 17, 24]",75.51329489,12060,1217,1,12,9,1.3895378207217857
basic,46,0,0,0,0,24,"[0, 20, 28, 5, 4, 26, 24]",7,6,"[7, 8, 9, 11, 12, 15]",58.39605212,12958,898,1,5,9,1.4481849062023913
basic,46,0,0,0,0,15,"[0, 20, 28, 5, 4, 26, 24, 15]",8,1,[7],35.05081706,13875,917,1,0,9,1.4016317346800864
basic,46,0,0,0,1,7,"[0, 20, 28, 5, 4, 26, 24, 15, 7]",9,0,[],3.986367929,14860,985,1,0,9,1.4439002223158441
basic,46,0,0,1,1,7,"[0, 20, 28, 5, 4, 26, 24, 15, 7]",9,0,[],3.986367929,16232,1372,1,0,9,1.4439002223158441
basic,47,20,0,0,0,0,[0],1,21,"[1, 2, 3, 4, 5, 6, 7, 8, 9, 12, 17, 18, 20, 21, 22, 23, 25, 26, 27, 28, 29]",300,190,-1,1,9,9,0.0
basic,47,20,0,0,0,12,"[0, 12]",2,20,"[1, 2, 3, 4, 5, 6, 7, 8, 9, 17, 18, 20, 21, 22, 23, 25, 26, 27, 28, 29]",271.5570747,3506,3316,1,8,9,1.0
basic,47,20,0,0,0,5,"[0, 12, 5]",3,13,"[1, 3, 4, 6, 8, 9, 20, 21, 23, 26, 27, 28, 29]",171.4321527,6903,3397,2,19,8,1.0232843285905395
basic,47,20,0,0,0,21,"[0, 12, 5, 21]",4,10,"[1, 4, 6, 8, 9, 20, 23, 26, 27, 28]",126.4321527,7669,766,2,12,8,1.017525191374897
basic,47,20,0,0,0,8,"[0, 12, 5, 21, 8]",5,6,"[1, 6, 9, 23, 27, 28]",108.9679035,8369,700,2,6,8,1.0391698601004782
basic,47,20,0,0,0,23,"[0, 12, 5, 21, 8, 23]",6,3,"[6, 9, 27]",64.28009758,9232,863,2,1,8,1.0348450868606567
basic,47,20,0,0,0,9,"[0, 12, 5, 21, 8, 23, 9]",7,1,[6],45.07072487,10323,1091,1,0,8,1.0335348098288684
basic,47,20,0,0,1,6,"[0, 12, 5, 21, 8, 23, 9, 6]",8,0,[],22.048996,11052,729,1,0,8,1.0486850646228845
basic,47,20,0,1,1,6,"[0, 12, 5, 21, 8, 23, 9, 6]",8,0,[],22.048996,12442,1390,1,0,8,1.0486850646228845
basic,48,9,0,0,0,0,[0],1,27,"[1, 3, 4, 5, 6, 7, 8, 9, 10, 11, 13, 14, 15, 16, 17, 18, 19, 20, 21, 22, 23, 24, 25, 26, 27, 28, 29]",300,179,-1,2,182,10,0.0
basic,48,9,0,0,0,8,"[0, 8]",2,25,"[1, 3, 4, 5, 6, 7, 9, 10, 11, 13, 14, 15, 16, 17, 18, 19, 20, 21, 22, 23, 24, 25, 26, 27, 28]",236.2191251,2690,2511,2,102,9,1.0
basic,48,9,0,0,0,28,"[0, 8, 28]",3,23,"[1, 3, 4, 5, 6, 7, 9, 10, 11, 13, 15, 16, 17, 18, 19, 20, 21, 22, 23, 24, 25, 26, 27]",225.4024713,3322,632,2,52,9,1.0043219354187498
basic,48,9,0,0,0,5,"[0, 8, 28, 5]",4,4,"[1, 13, 19, 24]",63.79492197,8858,5536,2,4,7,1.0609344016169635
basic,48,9,0,0,0,24,"[0, 8, 28, 5, 24]",5,2,"[1, 13]",35.77707052,9639,781,2,0,6,1.058068945490243
basic,48,9,0,0,1,1,"[0, 8, 28, 5, 24, 1]",6,0,[],14.77707052,10341,702,1,0,6,1.1653503871335087
basic,48,9,0,1,1,1,"[0, 8, 28, 5, 24, 1]",6,0,[],14.77707052,12712,2371,1,0,6,1.1653503871335087
basic,49,39,0,0,0,0,[0],1,28,"[1, 2, 3, 4, 5, 6, 7, 9, 10, 11, 12, 13, 14, 15, 16, 17, 18, 19, 20, 21, 22, 23, 24, 25, 26, 27, 28, 29]",300,174,-1,1,30,10,0.0
basic,49,39,0,0,0,29,"[0, 29]",2,26,"[1, 2, 3, 4, 5, 6, 7, 9, 10, 12, 13, 14, 15, 16, 17, 18, 19, 20, 21, 22, 23, 24, 25, 26, 27, 28]",243.0614366,2470,2296,8,104,9,1.0
basic,49,39,0,0,0,12,"[0, 29, 12]",3,18,"[1, 2, 4, 5, 7, 9, 10, 13, 14, 15, 16, 18, 19, 22, 23, 24, 26, 28]",182.5221931,3386,916,5,54,9,1.0026200331524904
basic,49,39,0,0,0,10,"[0, 29, 12, 10]",4,16,"[1, 2, 4, 5, 7, 9, 13, 14, 15, 16, 18, 19, 22, 23, 24, 26]",147.0116313,4703,1317,5,34,9,1.2874817019928908
basic,49,39,0,0,0,7,"[0, 29, 12, 10, 7]",5,10,"[1, 2, 5, 13, 16, 18, 19, 22, 24, 26]",113.5900814,5375,672,4,12,9,1.2250826263866774
basic,49,39,0,0,0,26,"[0, 29, 12, 10, 7, 26]",6,5,"[1, 16, 18, 19, 22]",94.90853971,6047,672,3,4,9,1.2697275353190085
basic,49,39,0,0,0,22,"[0, 29, 12, 10, 7, 26, 22]",7,2,"[16, 19]",77.18849457,6864,817,2,0,9,1.438961743955176
basic,49,39,0,0,0,16,"[0, 29, 12, 10, 7, 26, 22, 16]",8,1,[19],42.18849457,8300,1436,1,0,9,1.3580882130477205
basic,49,39,0,0,1,19,"[0, 29, 12, 10, 7, 26, 22, 16, 19]",9,0,[],24.72424537,9737,1437,1,0,9,1.3646589157842668
basic,49,39,0,1,1,19,"[0, 29, 12, 10, 7, 26, 22, 16, 19]",9,0,[],24.72424537,10759,1022,1,0,9,1.3646589157842668
basic,50,26,0,0,0,0,[0],1,29,"[1, 2, 3, 4, 5, 6, 7, 8, 9, 10, 11, 12, 13, 14, 15, 16, 17, 18, 19, 20, 21, 22, 23, 24, 25, 26, 27, 28, 29]",300,175,-1,9,226,9,0.0
basic,50,26,0,0,0,4,"[0, 4]",2,13,"[5, 6, 10, 12, 13, 14, 16, 17, 19, 21, 23, 26, 29]",178.7976898,1703,1528,4,118,8,1.0
basic,50,26,0,0,0,17,"[0, 4, 17]",3,10,"[5, 6, 10, 12, 13, 14, 16, 21, 23, 29]",157.7026667,2397,694,1,35,8,1.0014732588101924
basic,50,26,0,0,0,6,"[0, 4, 17, 6]",4,6,"[10, 14, 16, 21, 23, 29]",137.5780549,3353,956,10,11,7,1.011273258075741
basic,50,26,0,0,0,14,"[0, 4, 17, 6, 14]",5,4,"[10, 16, 23, 29]",116.5542588,4130,777,5,2,7,1.1383391147196797
basic,50,26,0,0,0,29,"[0, 4, 17, 6, 14, 29]",6,3,"[10, 16, 23]",75.32320259,5020,890,3,0,7,1.8387738585921345
basic,50,26,0,0,1,16,"[0, 4, 17, 6, 14, 29, 16]",7,0,[],51.11576571,7149,2129,1,0,7,2.2232443318112174
basic,50,26,0,1,1,16,"[0, 4, 17, 6, 14, 29, 16]",7,0,[],51.11576571,8744,1595,1,0,7,2.2232443318112174
basic,51,16,0,0,0,0,[0],1,29,"[1, 2, 3, 4, 5, 6, 7, 8, 9, 10, 11, 12, 13, 14, 15, 16, 17, 18, 19, 20, 21, 22, 23, 24, 25, 26, 27, 28, 29]",300,184,-1,13,161,9,0.0
basic,51,16,0,0,0,17,"[0, 17]",2,27,"[1, 2, 3, 4, 5, 7, 8, 9, 10, 11, 12, 13, 14, 15, 16, 18, 19, 20, 21, 22, 23, 24, 25, 26, 27, 28, 29]",241.3058776,4237,4053,2,58,9,1.0
basic,51,16,0,0,0,16,"[0, 17, 16]",3,26,"[1, 2, 3, 4, 5, 7, 8, 9, 10, 11, 12, 13, 14, 15, 18, 19, 20, 21, 22, 23, 24, 25, 26, 27, 28, 29]",212.9862731,5061,824,2,52,9,1.0529535521792848
basic,51,16,0,0,0,8,"[0, 17, 16, 8]",4,19,"[2, 3, 4, 5, 9, 12, 13, 14, 15, 19, 20, 21, 22, 23, 25, 26, 27, 28, 29]",164.6127266,6916,1855,2,38,9,1.0915134501573105
basic,51,16,0,0,0,20,"[0, 17, 16, 8, 20]",5,10,"[3, 4, 5, 9, 12, 13, 15, 19, 21, 25]",106.8372993,7828,912,1,15,9,1.067523143001942
basic,51,16,0,0,0,25,"[0, 17, 16, 8, 20, 25]",6,7,"[3, 4, 5, 9, 12, 13, 15]",94.18818869,8565,737,1,9,9,1.1170093326933646
basic,51,16,0,0,0,9,"[0, 17, 16, 8, 20, 25, 9]",7,5,"[3, 4, 5, 13, 15]",81.38194021,9260,695,1,4,9,1.1095076562662525
basic,51,16,0,0,0,15,"[0, 17, 16, 8, 20, 25, 9, 15]",8,1,[5],42.48463953,10204,944,1,0,9,1.213831159678775
basic,51,16,0,0,1,5,"[0, 17, 16, 8, 20, 25, 9, 15, 5]",9,0,[],13.0567616,11196,992,1,0,9,1.5171779607523481
basic,51,16,0,1,1,5,"[0, 17, 16, 8, 20, 25, 9, 15, 5]",9,0,[],13.0567616,13066,1870,1,0,9,1.5171779607523481
basic,52,41,0,0,0,0,[0],1,29,"[1, 2, 3, 4, 5, 6, 7, 8, 9, 10, 11, 12, 13, 14, 15, 16, 17, 18, 19, 20, 21, 22, 23, 24, 25, 26, 27, 28, 29]",300,178,-1,1,143,10,0.0
basic,52,41,0,0,0,13,"[0, 13]",2,23,"[1, 2, 3, 5, 6, 7, 9, 10, 11, 12, 14, 15, 17, 18, 19, 20, 21, 22, 24, 25, 26, 27, 28]",258.2747079,2206,2028,1,55,10,1.0
basic,52,41,0,0,0,28,"[0, 13, 28]",3,22,"[1, 2, 3, 5, 6, 7, 9, 10, 11, 12, 14, 15, 17, 18, 19, 20, 21, 22, 24, 25, 26, 27]",223.7928286,3140,934,1,39,10,1.895724242592676
basic,52,41,0,0,0,5,"[0, 13, 28, 5]",4,19,"[1, 2, 3, 6, 9, 10, 11, 12, 14, 15, 17, 18, 19, 20, 21, 22, 24, 25, 27]",210.1913581,3907,767,1,34,10,2.861541269398273
basic,52,41,0,0,0,3,"[0, 13, 28, 5, 3]",5,16,"[1, 2, 6, 9, 10, 12, 14, 17, 18, 19, 20, 21, 22, 24, 25, 27]",175.3632086,6690,2783,1,22,10,3.1455488489005883
basic,52,41,0,0,0,21,"[0, 13, 28, 5, 3, 21]",6,14,"[1, 2, 6, 9, 10, 12, 14, 17, 18, 19, 20, 22, 25, 27]",143.2228912,7417,727,13,11,9,3.207558429289677
basic,52,41,0,0,0,9,"[0, 13, 28, 5, 3, 21, 9]",7,6,"[1, 2, 10, 12, 14, 17]",93.85691102,8506,1089,7,4,9,2.5050148501792275
basic,52,41,0,0,0,2,"[0, 13, 28, 5, 3, 21, 9, 2]",8,5,"[1, 10, 12, 14, 17]",81.77386505,9352,846,5,0,9,2.4119643847713177
basic,52,41,0,0,1,17,"[0, 13, 28, 5, 3, 21, 9, 2, 17]",9,0,[],49.21622385,10174,822,1,0,9,3.9563478735796007
basic,52,41,0,1,1,17,"[0, 13, 28, 5, 3, 21, 9, 2, 17]",9,0,[],49.21622385,12797,2623,1,0,9,3.9563478735796007
basic,53,15,0,0,0,0,[0],1,25,"[1, 2, 3, 4, 7, 8, 9, 10, 11, 12, 13, 14, 15, 16, 18, 20, 21, 22, 23, 24, 25, 26, 27, 28, 29]",300,279,-1,4,65,9,0.0
basic,53,15,0,0,0,7,"[0, 7]",2,23,"[1, 3, 4, 8, 9, 10, 11, 12, 13, 14, 15, 16, 18, 20, 21, 22, 23, 24, 25, 26, 27, 28, 29]",215.1884442,7168,6889,30,107,8,1.0
basic,53,15,0,0,0,11,"[0, 7, 11]",3,18,"[3, 4, 8, 9, 10, 12, 13, 14, 15, 16, 18, 20, 21, 22, 23, 25, 27, 29]",173.7035072,8808,1640,12,34,8,1.0171318876095128
basic,53,15,0,0,0,3,"[0, 7, 11, 3]",4,13,"[4, 10, 12, 13, 14, 15, 16, 18, 20, 21, 22, 25, 27]",162.3017529,9725,917,7,21,8,1.0401878806820521
basic,53,15,0,0,0,16,"[0, 7, 11, 3, 16]",5,9,"[4, 10, 12, 13, 14, 15, 18, 21, 22]",137.2218805,12120,2395,5,6,8,1.4258499651326737
basic,53,15,0,0,0,22,"[0, 7, 11, 3, 16, 22]",6,4,"[4, 13, 14, 15]",78.36612462,13077,957,2,2,8,1.284645195326425
basic,53,15,0,0,0,13,"[0, 7, 11, 3, 16, 22, 13]",7,1,[15],50.20586894,13824,747,1,0,8,1.2468528041787974
basic,53,15,0,0,1,15,"[0, 7, 11, 3, 16, 22, 13, 15]",8,0,[],34.94153142,14694,870,1,0,8,1.349724143762162
basic,53,15,0,1,1,15,"[0, 7, 11, 3, 16, 22, 13, 15]",8,0,[],34.94153142,15730,1036,1,0,8,1.349724143762162
basic,54,38,0,0,0,0,[0],1,29,"[1, 2, 3, 4, 5, 6, 7, 8, 9, 10, 11, 12, 13, 14, 15, 16, 17, 18, 19, 20, 21, 22, 23, 24, 25, 26, 27, 28, 29]",300,171,-1,33,506,9,0.0
basic,54,38,0,0,0,19,"[0, 19]",2,23,"[3, 4, 5, 6, 7, 8, 9, 11, 13, 14, 15, 16, 17, 18, 20, 22, 23, 24, 25, 26, 27, 28, 29]",219.5015528,5202,5031,6,61,9,1.0
basic,54,38,0,0,0,17,"[0, 19, 17]",3,21,"[3, 4, 5, 6, 7, 9, 11, 13, 14, 15, 16, 18, 20, 22, 23, 24, 25, 26, 27, 28, 29]",198.1239945,5954,752,6,53,9,1.571793785769489
basic,54,38,0,0,0,20,"[0, 19, 17, 20]",4,17,"[3, 4, 5, 6, 7, 11, 13, 14, 15, 16, 18, 22, 24, 25, 26, 27, 28]",174.3542658,8153,2199,6,44,9,2.333182710277297
basic,54,38,0,0,0,4,"[0, 19, 17, 20, 4]",5,10,"[5, 11, 13, 14, 15, 16, 24, 26, 27, 28]",140.4131403,11102,2949,5,22,9,2.276099229646013
basic,54,38,0,0,0,15,"[0, 19, 17, 20, 4, 15]",6,8,"[5, 11, 13, 14, 16, 24, 26, 28]",114.4131403,11902,800,5,6,9,2.5292671156176403
basic,54,38,0,0,0,13,"[0, 19, 17, 20, 4, 15, 13]",7,2,"[24, 26]",62.93498963,12853,951,1,1,9,2.42535234781802
basic,54,38,0,0,0,26,"[0, 19, 17, 20, 4, 15, 13, 26]",8,1,[24],31.88664024,13754,901,1,0,9,2.129628359956924
basic,54,38,0,0,1,24,"[0, 19, 17, 20, 4, 15, 13, 26, 24]",9,0,[],1.08079664,14912,1158,1,0,9,1.9259474377664159
basic,54,38,0,1,1,24,"[0, 19, 17, 20, 4, 15, 13, 26, 24]",9,0,[],1.08079664,16876,1964,1,0,9,1.9259474377664159
basic,55,22,0,0,0,0,[0],1,29,"[1, 2, 3, 4, 5, 6, 7, 8, 9, 10, 11, 12, 13, 14, 15, 16, 17, 18, 19, 20, 21, 22, 23, 24, 25, 26, 27, 28, 29]",300,187,-1,31,704,9,0.0
basic,55,22,0,0,0,16,"[0, 16]",2,21,"[1, 3, 6, 7, 8, 9, 11, 13, 14, 15, 17, 18, 19, 20, 21, 22, 24, 25, 27, 28, 29]",218.605897,7552,7365,17,147,9,1.0
basic,55,22,0,0,0,28,"[0, 16, 28]",3,13,"[6, 7, 9, 13, 14, 17, 19, 20, 21, 22, 24, 25, 29]",184.1675463,8387,835,12,61,9,1.047282311284478
basic,55,22,0,0,0,6,"[0, 16, 28, 6]",4,12,"[7, 9, 13, 14, 17, 19, 20, 21, 22, 24, 25, 29]",154.1675463,9173,786,12,43,9,1.645645870580622
basic,55,22,0,0,0,9,"[0, 16, 28, 6, 9]",5,8,"[7, 14, 17, 19, 20, 21, 24, 29]",127.5404924,9932,759,8,17,9,1.925750226630103
basic,55,22,0,0,0,19,"[0, 16, 28, 6, 9, 19]",6,6,"[7, 14, 17, 21, 24, 29]",107.1444143,10655,723,3,7,9,2.4220750331476455
basic,55,22,0,0,0,29,"[0, 16, 28, 6, 9, 19, 29]",7,4,"[7, 14, 17, 24]",92.11111796,11309,654,2,2,9,2.6996279574991067
basic,55,22,0,0,0,14,"[0, 16, 28, 6, 9, 19, 29, 14]",8,1,[7],33.86165444,12371,1062,1,0,9,2.0544639927929462
basic,55,22,0,0,1,7,"[0, 16, 28, 6, 9, 19, 29, 14, 7]",9,0,[],20.82324963,13091,720,1,0,9,2.219817088951114
basic,55,22,0,1,1,7,"[0, 16, 28, 6, 9, 19, 29, 14, 7]",9,0,[],20.82324963,14577,1486,1,0,9,2.219817088951114
basic,56,14,0,0,0,0,[0],1,29,"[1, 2, 3, 4, 5, 6, 7, 8, 9, 10, 11, 12, 13, 14, 15, 16, 17, 18, 19, 20, 21, 22, 23, 24, 25, 26, 27, 28, 29]",300,181,-1,8,157,10,0.0
basic,56,14,0,0,0,15,"[0, 15]",2,20,"[1, 2, 3, 4, 7, 8, 9, 13, 17, 18, 19, 20, 21, 22, 23, 25, 26, 27, 28, 29]",216.7053423,2620,2439,8,102,10,1.0
basic,56,14,0,0,0,28,"[0, 15, 28]",3,17,"[1, 2, 3, 4, 7, 8, 9, 13, 17, 18, 19, 20, 22, 23, 25, 26, 27]",197.4959696,3386,766,8,48,10,1.0446007867311968
basic,56,14,0,0,0,17,"[0, 15, 28, 17]",4,14,"[1, 2, 3, 4, 7, 8, 13, 18, 19, 20, 22, 23, 25, 26]",184.0423455,4103,717,8,39,10,1.0729463354689972
basic,56,14,0,0,0,18,"[0, 15, 28, 17, 18]",5,9,"[1, 2, 4, 7, 8, 19, 23, 25, 26]",119.412631,4910,807,8,27,10,1.5035901079219378
basic,56,14,0,0,0,8,"[0, 15, 28, 17, 18, 8]",6,8,"[1, 2, 4, 7, 19, 23, 25, 26]",105.8111605,5602,692,8,18,10,1.4819689987843856
basic,56,14,0,0,0,19,"[0, 15, 28, 17, 18, 8, 19]",7,5,"[1, 7, 23, 25, 26]",85.19563238,6220,618,4,9,10,1.4526746797093781
basic,56,14,0,0,0,1,"[0, 15, 28, 17, 18, 8, 19, 1]",8,4,"[7, 23, 25, 26]",69.96408617,6936,716,3,1,10,1.4876985459270997
basic,56,14,0,0,0,25,"[0, 15, 28, 17, 18, 8, 19, 1, 25]",9,1,[7],21.95367064,7855,919,1,0,10,1.6986918331790049
basic,56,14,0,0,1,7,"[0, 15, 28, 17, 18, 8, 19, 1, 25, 7]",10,0,[],2.255955032,8581,726,1,0,10,1.7048774420055028
basic,56,14,0,1,1,7,"[0, 15, 28, 17, 18, 8, 19, 1, 25, 7]",10,0,[],2.255955032,9758,1177,1,0,10,1.7048774420055028
basic,57,31,0,0,0,0,[0],1,27,"[1, 3, 4, 5, 6, 7, 8, 10, 11, 12, 13, 14, 15, 16, 17, 18, 19, 20, 21, 22, 23, 24, 25, 26, 27, 28, 29]",300,181,-1,2,87,10,0.0
basic,57,31,0,0,0,14,"[0, 14]",2,25,"[1, 3, 5, 6, 7, 8, 10, 11, 12, 13, 15, 16, 17, 18, 19, 20, 21, 22, 23, 24, 25, 26, 27, 28, 29]",263.861378,2219,2038,2,59,10,1.0
basic,57,31,0,0,0,27,"[0, 14, 27]",3,22,"[1, 3, 5, 6, 7, 8, 10, 11, 12, 13, 15, 16, 17, 18, 19, 20, 21, 22, 24, 25, 28, 29]",235.6833724,2887,668,1,39,10,1.5881859159302467
basic,57,31,0,0,0,8,"[0, 14, 27, 8]",4,20,"[1, 3, 5, 6, 7, 10, 11, 12, 13, 16, 17, 18, 19, 20, 21, 22, 24, 25, 28, 29]",224.6380114,3521,634,1,36,10,2.1665048452331277
basic,57,31,0,0,0,18,"[0, 14, 27, 8, 18]",5,15,"[1, 5, 6, 7, 11, 12, 13, 16, 17, 19, 20, 22, 25, 28, 29]",188.7911147,4317,796,1,26,10,1.7273375741920205
basic,57,31,0,0,0,17,"[0, 14, 27, 8, 18, 17]",6,13,"[1, 5, 6, 7, 11, 12, 13, 16, 19, 20, 22, 25, 28]",159.584951,10054,5737,1,13,10,1.551192427769927
basic,57,31,0,0,0,11,"[0, 14, 27, 8, 18, 17, 11]",7,7,"[5, 12, 16, 19, 22, 25, 28]",118.4753414,10970,916,1,4,10,2.9650760544203494
basic,57,31,0,0,0,5,"[0, 14, 27, 8, 18, 17, 11, 5]",8,2,"[16, 28]",74.79468207,12086,1116,1,1,10,2.56711965625205
basic,57,31,0,0,0,28,"[0, 14, 27, 8, 18, 17, 11, 5, 28]",9,1,[16],54.57093365,12788,702,1,0,10,2.2865510762058148
basic,57,31,0,0,1,16,"[0, 14, 27, 8, 18, 17, 11, 5, 28, 16]",10,0,[],20.95546102,14155,1367,1,0,10,2.089356850786318
basic,57,31,0,1,1,16,"[0, 14, 27, 8, 18, 17, 11, 5, 28, 16]",10,0,[],20.95546102,15259,1104,1,0,10,2.089356850786318
basic,58,24,0,0,0,0,[0],1,29,"[1, 2, 3, 4, 5, 6, 7, 8, 9, 10, 11, 12, 13, 14, 15, 16, 17, 18, 19, 20, 21, 22, 23, 24, 25, 26, 27, 28, 29]",300,204,-1,4,76,10,0.0
basic,58,24,0,0,0,29,"[0, 29]",2,27,"[2, 3, 4, 5, 6, 7, 8, 9, 10, 11, 12, 13, 14, 15, 16, 17, 18, 19, 20, 21, 22, 23, 24, 25, 26, 27, 28]",245.594118,2184,1980,5,65,9,1.0
basic,58,24,0,0,0,16,"[0, 29, 16]",3,21,"[2, 3, 4, 6, 8, 9, 10, 11, 13, 14, 15, 17, 18, 19, 22, 23, 24, 25, 26, 27, 28]",171.3782167,2968,784,5,51,9,1.4348105541987206
basic,58,24,0,0,0,22,"[0, 29, 16, 22]",4,16,"[2, 3, 4, 6, 8, 9, 10, 11, 14, 15, 17, 23, 24, 26, 27, 28]",153.3504603,4406,1438,4,31,9,1.3916224386076739
basic,58,24,0,0,0,8,"[0, 29, 16, 22, 8]",5,13,"[3, 4, 6, 9, 10, 11, 14, 15, 23, 24, 26, 27, 28]",139.9340525,5494,1088,2,13,9,1.4536440537404858
basic,58,24,0,0,0,15,"[0, 29, 16, 22, 8, 15]",6,8,"[3, 4, 6, 9, 11, 23, 26, 28]",109.047162,6279,785,1,3,9,1.5963255894510096
basic,58,24,0,0,0,28,"[0, 29, 16, 22, 8, 15, 28]",7,2,"[11, 23]",63.77023635,7188,909,1,1,9,1.4349671441965541
basic,58,24,0,0,0,23,"[0, 29, 16, 22, 8, 15, 28, 23]",8,1,[11],44.74393876,7746,558,1,0,9,1.4487992470982323
basic,58,24,0,0,1,11,"[0, 29, 16, 22, 8, 15, 28, 23, 11]",9,0,[],17.81811472,9896,2150,1,0,9,1.4048465478250574
basic,58,24,0,1,1,11,"[0, 29, 16, 22, 8, 15, 28, 23, 11]",9,0,[],17.81811472,10942,1046,1,0,9,1.4048465478250574
basic,59,36,0,0,0,0,[0],1,24,"[2, 4, 5, 6, 7, 8, 9, 10, 12, 13, 14, 15, 16, 17, 18, 19, 20, 22, 23, 25, 26, 27, 28, 29]",300,183,-1,2,200,10,0.0
basic,59,36,0,0,0,12,"[0, 12]",2,23,"[2, 4, 5, 6, 7, 8, 9, 10, 13, 14, 15, 16, 17, 18, 19, 20, 22, 23, 25, 26, 27, 28, 29]",277.7963967,1922,1739,90,804,9,1.0
basic,59,36,0,0,0,13,"[0, 12, 13]",3,18,"[2, 4, 7, 8, 9, 10, 16, 17, 18, 19, 20, 22, 23, 25, 26, 27, 28, 29]",198.6193798,3443,1521,15,125,9,1.033635478646562
basic,59,36,0,0,0,25,"[0, 12, 13, 25]",4,12,"[2, 4, 8, 9, 10, 16, 17, 18, 19, 23, 27, 29]",178.0281195,4161,718,13,50,9,1.0653480204572918
basic,59,36,0,0,0,2,"[0, 12, 13, 25, 2]",5,9,"[4, 8, 9, 10, 16, 17, 18, 19, 27]",153.0281195,4890,729,13,13,9,1.3014517483013393
basic,59,36,0,0,0,19,"[0, 12, 13, 25, 2, 19]",6,5,"[9, 10, 16, 17, 18]",115.9066972,5755,865,5,2,9,2.3884063284404666
basic,59,36,0,0,0,9,"[0, 12, 13, 25, 2, 19, 9]",7,3,"[16, 17, 18]",100.7739512,6322,567,2,1,9,2.8846088544693567
basic,59,36,0,0,0,17,"[0, 12, 13, 25, 2, 19, 9, 17]",8,1,[16],74.52514171,7036,714,1,0,9,2.3856100497832267
basic,59,36,0,0,1,16,"[0, 12, 13, 25, 2, 19, 9, 17, 16]",9,0,[],46.20553719,7857,821,1,0,9,2.3777330471152243
basic,59,36,0,1,1,16,"[0, 12, 13, 25, 2, 19, 9, 17, 16]",9,0,[],46.20553719,9594,1737,1,0,9,2.3777330471152243
basic,60,1,0,0,0,0,[0],1,26,"[1, 2, 4, 5, 7, 8, 9, 10, 11, 12, 13, 14, 15, 16, 17, 18, 19, 20, 21, 22, 23, 24, 25, 26, 28, 29]",300,241,-1,6,74,7,0.0
basic,60,1,0,0,0,20,"[0, 20]",2,13,"[1, 4, 5, 8, 11, 13, 14, 15, 17, 18, 19, 28, 29]",129.961769,6778,6537,2,11,6,1.0
basic,60,1,0,0,0,5,"[0, 20, 5]",3,9,"[1, 4, 8, 11, 13, 17, 18, 19, 29]",108.4908585,7505,727,2,6,6,1.0224915251419384
basic,60,1,0,0,0,18,"[0, 20, 5, 18]",4,4,"[4, 13, 17, 29]",85.66543403,8241,736,2,3,6,1.064078468417926
basic,60,1,0,0,0,4,"[0, 20, 5, 18, 4]",5,2,"[13, 29]",46.71674984,8992,751,2,0,6,1.0731955739217967
basic,60,1,0,0,1,13,"[0, 20, 5, 18, 4, 13]",6,0,[],2.332067799,9815,823,1,0,6,1.0623276828380515
basic,60,1,0,1,1,13,"[0, 20, 5, 18, 4, 13]",6,0,[],2.332067799,11613,1798,1,0,6,1.0623276828380515
basic,61,23,0,0,0,0,[0],1,28,"[1, 2, 3, 4, 5, 6, 7, 8, 9, 10, 11, 12, 13, 14, 15, 16, 17, 18, 19, 20, 21, 22, 23, 25, 26, 27, 28, 29]",300,173,-1,76,2626,10,0.0
basic,61,23,0,0,0,13,"[0, 13]",2,19,"[1, 2, 3, 5, 6, 7, 8, 9, 10, 12, 14, 17, 18, 19, 21, 22, 23, 27, 29]",189.3202819,6511,6338,9,168,10,1.0
basic,61,23,0,0,0,12,"[0, 13, 12]",3,16,"[1, 2, 3, 6, 7, 8, 9, 10, 14, 17, 18, 21, 22, 23, 27, 29]",177.2372359,7143,632,9,96,10,1.0014195490503164
basic,61,23,0,0,0,2,"[0, 13, 12, 2]",4,12,"[1, 3, 6, 7, 9, 10, 14, 18, 21, 22, 27, 29]",163.3447919,7907,764,4,30,10,1.0014394317924602
basic,61,23,0,0,0,14,"[0, 13, 12, 2, 14]",5,10,"[1, 3, 6, 7, 9, 10, 18, 22, 27, 29]",148.4787232,8658,751,1,8,10,1.0754577801718215
basic,61,23,0,0,0,9,"[0, 13, 12, 2, 14, 9]",6,8,"[1, 6, 7, 10, 18, 22, 27, 29]",138.0384167,9508,850,1,6,10,1.2396753751445624
basic,61,23,0,0,0,29,"[0, 13, 12, 2, 14, 9, 29]",7,5,"[1, 6, 7, 10, 22]",86.41477868,10992,1484,1,3,10,1.3850494334073642
basic,61,23,0,0,0,7,"[0, 13, 12, 2, 14, 9, 29, 7]",8,2,"[1, 10]",62.33158952,11744,752,1,1,10,1.4130916819766952
basic,61,23,0,0,0,10,"[0, 13, 12, 2, 14, 9, 29, 7, 10]",9,1,[1],34.87252909,12541,797,1,0,10,1.3871706550587182
basic,61,23,0,0,1,1,"[0, 13, 12, 2, 14, 9, 29, 7, 10, 1]",10,0,[],6.219431521,13791,1250,1,0,10,1.3537125175696414
basic,61,23,0,1,1,1,"[0, 13, 12, 2, 14, 9, 29, 7, 10, 1]",10,0,[],6.219431521,15630,1839,1,0,10,1.3537125175696414
basic,62,34,0,0,0,0,[0],1,25,"[1, 3, 4, 5, 6, 7, 8, 9, 10, 11, 12, 13, 15, 18, 19, 20, 21, 22, 23, 24, 25, 26, 27, 28, 29]",300,212,-1,12,367,10,0.0
basic,62,34,0,0,0,13,"[0, 13]",2,24,"[1, 3, 4, 5, 6, 7, 8, 9, 10, 11, 12, 15, 18, 19, 20, 21, 22, 23, 24, 25, 26, 27, 28, 29]",279.9750156,1955,1743,12,331,10,1.0
basic,62,34,0,0,0,1,"[0, 13, 1]",3,16,"[3, 5, 7, 8, 9, 10, 11, 12, 19, 21, 22, 23, 24, 25, 27, 29]",211.8574701,2868,913,3,92,10,1.0010381285747127
basic,62,34,0,0,0,8,"[0, 13, 1, 8]",4,14,"[3, 5, 7, 9, 10, 11, 12, 19, 22, 23, 24, 25, 27, 29]",201.0871405,3467,599,2,54,10,1.1636807
basic,62,34,0,0,0,25,"[0, 13, 1, 8, 25]",5,12,"[3, 5, 7, 9, 10, 11, 12, 22, 23, 24, 27, 29]",183.999133,4178,711,2,28,10,1.1396208815936457
basic,62,34,0,0,0,24,"[0, 13, 1, 8, 25, 24]",6,11,"[3, 5, 7, 9, 10, 11, 12, 22, 23, 27, 29]",166.5062774,4883,705,2,23,10,1.374180768736554
basic,62,34,0,0,0,12,"[0, 13, 1, 8, 25, 24, 12]",7,7,"[7, 9, 10, 11, 22, 23, 27]",115.4670767,5935,1052,1,8,10,1.4994254760835948
basic,62,34,0,0,0,7,"[0, 13, 1, 8, 25, 24, 12, 7]",8,5,"[9, 11, 22, 23, 27]",100.4337804,6635,700,1,4,10,1.758992610425009
basic,62,34,0,0,0,23,"[0, 13, 1, 8, 25, 24, 12, 7, 23]",9,1,[27],72.27352467,7251,616,1,0,10,2.399781305190153
basic,62,34,0,0,1,27,"[0, 13, 1, 8, 25, 24, 12, 7, 23, 27]",10,0,[],18.60789321,8717,1466,1,0,10,4.766619878750327
basic,62,34,0,1,1,27,"[0, 13, 1, 8, 25, 24, 12, 7, 23, 27]",10,0,[],18.60789321,9689,972,1,0,10,4.766619878750327
basic,63,35,0,0,0,0,[0],1,29,"[1, 2, 3, 4, 5, 6, 7, 8, 9, 10, 11, 12, 13, 14, 15, 16, 17, 18, 19, 20, 21, 22, 23, 24, 25, 26, 27, 28, 29]",300,173,-1,5,236,11,0.0
basic,63,35,0,0,0,24,"[0, 24]",2,27,"[1, 2, 4, 5, 6, 7, 8, 9, 10, 11, 12, 13, 14, 15, 16, 17, 18, 19, 20, 21, 22, 23, 25, 26, 27, 28, 29]",268.9838752,5350,5177,49,512,10,1.0
basic,63,35,0,0,0,17,"[0, 24, 17]",3,26,"[1, 2, 4, 5, 6, 7, 8, 9, 10, 11, 12, 13, 14, 15, 16, 18, 19, 20, 21, 22, 23, 25, 26, 27, 28, 29]",257.2791753,5969,619,33,238,10,1.0771477201815276
basic,63,35,0,0,0,1,"[0, 24, 17, 1]",4,25,"[2, 4, 5, 6, 7, 8, 9, 10, 11, 12, 13, 14, 15, 16, 18, 19, 20, 21, 22, 23, 25, 26, 27, 28, 29]",241.4677869,6773,804,26,151,10,1.2244804141479215
basic,63,35,0,0,0,9,"[0, 24, 17, 1, 9]",5,13,"[2, 4, 5, 6, 15, 18, 19, 23, 25, 26, 27, 28, 29]",171.9408138,7864,1091,23,25,9,1.1391705391673446
basic,63,35,0,0,0,18,"[0, 24, 17, 1, 9, 18]",6,9,"[4, 5, 6, 15, 19, 23, 25, 27, 28]",151.9158294,8583,719,11,8,9,1.1512300765384265
basic,63,35,0,0,0,25,"[0, 24, 17, 1, 9, 18, 25]",7,3,"[5, 6, 23]",118.0779807,9330,747,4,1,9,1.1233821517043756
basic,63,35,0,0,0,6,"[0, 24, 17, 1, 9, 18, 25, 6]",8,2,"[5, 23]",94.05715644,10200,870,2,0,9,1.3618604674216885
basic,63,35,0,0,1,23,"[0, 24, 17, 1, 9, 18, 25, 6, 23]",9,0,[],48.4063076,11326,1126,1,0,9,2.3663755774656274
basic,63,35,0,1,1,23,"[0, 24, 17, 1, 9, 18, 25, 6, 23]",9,0,[],48.4063076,12610,1284,1,0,9,2.3663755774656274
basic,64,43,0,0,0,0,[0],1,23,"[1, 2, 3, 4, 5, 6, 7, 9, 10, 11, 12, 14, 15, 16, 17, 19, 20, 21, 22, 23, 25, 27, 29]",300,247,-1,16,556,12,0.0
basic,64,43,0,0,0,29,"[0, 29]",2,22,"[1, 2, 3, 4, 5, 6, 7, 9, 10, 11, 12, 14, 15, 16, 17, 19, 20, 21, 22, 23, 25, 27]",277.909278,1872,1625,16,520,12,1.0
basic,64,43,0,0,0,20,"[0, 29, 20]",3,20,"[1, 2, 3, 4, 6, 7, 9, 10, 11, 12, 14, 15, 16, 17, 19, 21, 22, 23, 25, 27]",254.4785289,2672,800,15,422,12,1.082311746871282
basic,64,43,0,0,0,16,"[0, 29, 20, 16]",4,19,"[1, 2, 3, 4, 6, 7, 9, 10, 11, 12, 14, 15, 17, 19, 21, 22, 23, 25, 27]",231.8511119,3849,1177,15,389,12,1.215201926898219
basic,64,43,0,0,0,25,"[0, 29, 20, 16, 25]",5,14,"[1, 2, 3, 4, 6, 7, 9, 11, 12, 14, 15, 19, 22, 23]",175.7708124,8539,4690,53,282,11,1.566384303308987
basic,64,43,0,0,0,15,"[0, 29, 20, 16, 25, 15]",6,13,"[1, 2, 3, 4, 6, 7, 9, 11, 12, 14, 19, 22, 23]",153.0992443,9273,734,27,108,11,1.776736412604812
basic,64,43,0,0,0,12,"[0, 29, 20, 16, 25, 15, 12]",7,10,"[1, 3, 6, 7, 9, 11, 14, 19, 22, 23]",133.7860364,10402,1129,21,41,11,1.6813323012225032
basic,64,43,0,0,0,3,"[0, 29, 20, 16, 25, 15, 12, 3]",8,9,"[1, 6, 7, 9, 11, 14, 19, 22, 23]",120.7860364,11140,738,20,12,11,1.608740348096123
basic,64,43,0,0,0,22,"[0, 29, 20, 16, 25, 15, 12, 3, 22]",9,6,"[1, 6, 7, 11, 14, 19]",86.07292644,12117,977,9,2,11,1.793657891802588
basic,64,43,0,0,0,19,"[0, 29, 20, 16, 25, 15, 12, 3, 22, 19]",10,3,"[1, 6, 7]",65.45739831,13003,886,3,0,11,1.6882745891803936
basic,64,43,0,0,1,1,"[0, 29, 20, 16, 25, 15, 12, 3, 22, 19, 1]",11,0,[],37.2793927,13908,905,1,0,11,1.825064866046553
basic,64,43,0,1,1,1,"[0, 29, 20, 16, 25, 15, 12, 3, 22, 19, 1]",11,0,[],37.2793927,16408,2500,1,0,11,1.825064866046553
basic,65,33,0,0,0,0,[0],1,23,"[1, 2, 5, 7, 8, 11, 12, 13, 14, 15, 16, 17, 18, 19, 20, 21, 23, 24, 25, 26, 27, 28, 29]",300,181,-1,5,108,9,0.0
basic,65,33,0,0,0,8,"[0, 8]",2,22,"[1, 2, 5, 7, 11, 12, 13, 14, 15, 16, 17, 18, 19, 20, 21, 23, 24, 25, 26, 27, 28, 29]",265.8679037,2807,2626,5,87,9,1.0
basic,65,33,0,0,0,19,"[0, 8, 19]",3,15,"[2, 5, 7, 11, 13, 14, 16, 17, 18, 20, 21, 24, 26, 28, 29]",127.4699268,8676,5869,1,17,8,1.0295762642327975
basic,65,33,0,0,0,24,"[0, 8, 19, 24]",4,9,"[7, 13, 14, 16, 17, 18, 26, 28, 29]",85.42233472,9898,1222,1,6,8,1.0539172974057134
basic,65,33,0,0,0,7,"[0, 8, 19, 24, 7]",5,3,"[14, 26, 29]",56.21617099,10811,913,1,3,8,1.1439830229718893
basic,65,33,0,0,0,14,"[0, 8, 19, 24, 7, 14]",6,2,"[26, 29]",41.35010224,11675,864,1,1,8,1.192238877527056
basic,65,33,0,0,0,26,"[0, 8, 19, 24, 7, 14, 26]",7,1,[29],28.7009916,12618,943,1,0,8,1.1991592245121592
basic,65,33,0,0,1,29,"[0, 8, 19, 24, 7, 14, 26, 29]",8,0,[],0.808340238,14409,1791,1,0,8,1.4223857191139153
basic,65,33,0,1,1,29,"[0, 8, 19, 24, 7, 14, 26, 29]",8,0,[],0.808340238,15915,1506,1,0,8,1.4223857191139153
basic,66,7,0,0,0,0,[0],1,29,"[1, 2, 3, 4, 5, 6, 7, 8, 9, 10, 11, 12, 13, 14, 15, 16, 17, 18, 19, 20, 21, 22, 23, 24, 25, 26, 27, 28, 29]",300,172,-1,3,79,9,0.0
basic,66,7,0,0,0,6,"[0, 6]",2,22,"[2, 4, 5, 7, 8, 9, 10, 11, 13, 14, 15, 16, 18, 19, 20, 21, 22, 23, 24, 25, 27, 28]",231.1160396,4381,4209,1,24,9,1.0
basic,66,7,0,0,0,25,"[0, 6, 25]",3,14,"[2, 4, 5, 7, 13, 14, 15, 16, 18, 19, 20, 21, 23, 28]",163.9371739,5136,755,1,15,9,1.1491202566384209
basic,66,7,0,0,0,4,"[0, 6, 25, 4]",4,10,"[2, 7, 13, 15, 16, 18, 19, 20, 21, 23]",139.1985401,5798,662,1,9,9,1.145081852791697
basic,66,7,0,0,0,20,"[0, 6, 25, 4, 20]",5,6,"[2, 7, 13, 16, 18, 19]",119.5516574,6566,768,1,4,9,1.2036846139155144
basic,66,7,0,0,0,18,"[0, 6, 25, 4, 20, 18]",6,5,"[2, 7, 13, 16, 19]",106.7454089,7235,669,1,3,9,1.3498144584217913
basic,66,7,0,0,0,7,"[0, 6, 25, 4, 20, 18, 7]",7,2,"[2, 19]",65.51435269,8151,916,1,1,9,1.2817825700699357
basic,66,7,0,0,0,19,"[0, 6, 25, 4, 20, 18, 7, 19]",8,1,[2],36.10347035,8988,837,1,0,9,1.3950287830764145
basic,66,7,0,0,1,2,"[0, 6, 25, 4, 20, 18, 7, 19, 2]",9,0,[],5.953843486,9832,844,1,0,9,1.4010142439340676
basic,66,7,0,1,1,2,"[0, 6, 25, 4, 20, 18, 7, 19, 2]",9,0,[],5.953843486,11557,1725,1,0,9,1.4010142439340676
basic,67,21,0,0,0,0,[0],1,29,"[1, 2, 3, 4, 5, 6, 7, 8, 9, 10, 11, 12, 13, 14, 15, 16, 17, 18, 19, 20, 21, 22, 23, 24, 25, 26, 27, 28, 29]",300,185,-1,84,830,9,0.0
basic,67,21,0,0,0,20,"[0, 20]",2,28,"[1, 2, 3, 4, 5, 6, 7, 8, 9, 10, 11, 12, 13, 14, 15, 16, 17, 18, 19, 21, 22, 23, 24, 25, 26, 27, 28, 29]",217.6228187,3371,3186,6,67,9,1.0
basic,67,21,0,0,0,22,"[0, 20, 22]",3,23,"[2, 4, 6, 7, 8, 9, 10, 11, 12, 13, 14, 15, 16, 17, 18, 19, 21, 23, 24, 25, 26, 27, 29]",189.3916303,4250,879,6,47,9,1.3451865712078994
basic,67,21,0,0,0,18,"[0, 20, 22, 18]",4,20,"[2, 4, 6, 7, 8, 9, 10, 11, 12, 14, 15, 16, 17, 21, 23, 24, 25, 26, 27, 29]",162.9908727,4939,689,4,25,9,2.3191924394507706
basic,67,21,0,0,0,29,"[0, 20, 22, 18, 29]",5,16,"[2, 4, 6, 7, 8, 10, 12, 14, 15, 16, 17, 21, 23, 24, 25, 27]",134.3377751,5707,768,2,10,9,1.9554738681863184
basic,67,21,0,0,0,25,"[0, 20, 22, 18, 29, 25]",6,5,"[4, 14, 17, 21, 23]",89.11609892,6614,907,2,5,9,3.5255206171255487
basic,67,21,0,0,0,21,"[0, 20, 22, 18, 29, 25, 21]",7,3,"[4, 14, 23]",39.78051339,7421,807,1,2,9,2.8949037931733077
basic,67,21,0,0,1,23,"[0, 20, 22, 18, 29, 25, 21, 23]",8,0,[],10.1663276,8406,985,1,0,8,2.9270156242749494
basic,67,21,0,1,1,23,"[0, 20, 22, 18, 29, 25, 21, 23]",8,0,[],10.1663276,10027,1621,1,0,8,2.9270156242749494
basic,68,12,0,0,0,0,[0],1,29,"[1, 2, 3, 4, 5, 6, 7, 8, 9, 10, 11, 12, 13, 14, 15, 16, 17, 18, 19, 20, 21, 22, 23, 24, 25, 26, 27, 28, 29]",300,198,-1,2,32,9,0.0
basic,68,12,0,0,0,6,"[0, 6]",2,28,"[1, 2, 3, 4, 5, 7, 8, 9, 10, 11, 12, 13, 14, 15, 16, 17, 18, 19, 20, 21, 22, 23, 24, 25, 26, 27, 28, 29]",283.5987805,3666,3468,2,18,9,1.0
basic,68,12,0,0,0,22,"[0, 6, 22]",3,13,"[2, 4, 5, 7, 12, 13, 14, 16, 19, 23, 24, 25, 27]",182.0015365,7103,3437,2,9,9,1.3408050629015749
basic,68,12,0,0,0,16,"[0, 6, 22, 16]",4,10,"[2, 4, 5, 7, 12, 14, 19, 24, 25, 27]",161.0015365,7775,672,2,7,9,1.5323672374573825
basic,68,12,0,0,0,4,"[0, 6, 22, 16, 4]",5,6,"[12, 14, 19, 24, 25, 27]",126.7962737,8522,747,2,5,9,1.38665076120851
basic,68,12,0,0,0,12,"[0, 6, 22, 16, 4, 12]",6,3,"[14, 24, 27]",84.6062275,9484,962,2,3,9,1.3036701691846924
basic,68,12,0,0,0,27,"[0, 6, 22, 16, 4, 12, 27]",7,2,"[14, 24]",60.25463618,10242,758,2,0,9,1.401636252408167
basic,68,12,0,0,0,14,"[0, 6, 22, 16, 4, 12, 27, 14]",8,1,[24],31.60153862,11004,762,1,0,9,1.4415448388010776
basic,68,12,0,0,1,24,"[0, 6, 22, 16, 4, 12, 27, 14, 24]",9,0,[],14.39688808,11691,687,1,0,9,1.6003250998053893
basic,68,12,0,1,1,24,"[0, 6, 22, 16, 4, 12, 27, 14, 24]",9,0,[],14.39688808,12394,703,1,0,9,1.6003250998053893
undo,69,30,0,0,0,0,[0],1,19,"[3, 4, 5, 7, 9, 11, 16, 17, 18, 19, 20, 21, 22, 24, 25, 26, 27, 28, 29]",300,183,-1,5,41,8,0.0
undo,69,30,0,0,0,16,"[0, 16]",2,17,"[3, 5, 7, 9, 11, 17, 18, 19, 20, 21, 22, 24, 25, 26, 27, 28, 29]",219.3774225,5361,5178,5,34,8,1.0
undo,69,30,0,0,0,27,"[0, 16, 27]",3,8,"[3, 5, 7, 18, 19, 20, 25, 29]",79.57041268,9580,4219,2,16,7,1.05265265149494
undo,69,30,0,0,0,3,"[0, 16, 27, 3]",4,6,"[5, 7, 18, 20, 25, 29]",60.4654395,10530,950,2,6,7,1.0505800728395231
undo,69,30,0,0,0,29,"[0, 16, 27, 3, 29]",5,3,"[5, 7, 18]",41.86436427,12029,1499,1,2,7,1.0602774106021753
undo,69,30,0,0,0,18,"[0, 16, 27, 3, 29, 18]",6,1,[5],22.55115635,13118,1089,1,0,7,1.1359412067900618
undo,69,30,0,0,1,5,"[0, 16, 27, 3, 29, 18, 5]",7,0,[],9.51275154,13973,855,1,0,7,1.2012839404642133
undo,69,30,0,1,1,5,"[0, 16, 27, 3, 29, 18, 5]",7,0,[],9.51275154,15418,1445,1,0,7,1.2012839404642133
undo,70,14,0,0,0,0,[0],1,29,"[1, 2, 3, 4, 5, 6, 7, 8, 9, 10, 11, 12, 13, 14, 15, 16, 17, 18, 19, 20, 21, 22, 23, 24, 25, 26, 27, 28, 29]",300,178,-1,8,157,10,0.0
undo,70,14,0,0,0,15,"[0, 15]",2,20,"[1, 2, 3, 4, 7, 8, 9, 13, 17, 18, 19, 20, 21, 22, 23, 25, 26, 27, 28, 29]",216.7053423,2888,2710,8,102,10,1.0
undo,70,14,0,0,0,28,"[0, 15, 28]",3,17,"[1, 2, 3, 4, 7, 8, 9, 13, 17, 18, 19, 20, 22, 23, 25, 26, 27]",197.4959696,3636,748,8,48,10,1.0446007867311968
undo,70,14,0,0,0,17,"[0, 15, 28, 17]",4,14,"[1, 2, 3, 4, 7, 8, 13, 18, 19, 20, 22, 23, 25, 26]",184.0423455,4436,800,8,39,10,1.0729463354689972
undo,70,14,0,0,0,18,"[0, 15, 28, 17, 18]",5,9,"[1, 2, 4, 7, 8, 19, 23, 25, 26]",119.412631,5407,971,8,27,10,1.5035901079219378
undo,70,14,0,0,0,8,"[0, 15, 28, 17, 18, 8]",6,8,"[1, 2, 4, 7, 19, 23, 25, 26]",105.8111605,6070,663,8,18,10,1.4819689987843856
undo,70,14,0,0,0,19,"[0, 15, 28, 17, 18, 8, 19]",7,5,"[1, 7, 23, 25, 26]",85.19563238,6818,748,4,9,10,1.4526746797093781
undo,70,14,0,0,0,1,"[0, 15, 28, 17, 18, 8, 19, 1]",8,4,"[7, 23, 25, 26]",69.96408617,7575,757,3,1,10,1.4876985459270997
undo,70,14,0,0,0,25,"[0, 15, 28, 17, 18, 8, 19, 1, 25]",9,1,[7],21.95367064,8457,882,1,0,10,1.6986918331790049
undo,70,14,0,0,1,7,"[0, 15, 28, 17, 18, 8, 19, 1, 25, 7]",10,0,[],2.255955032,9212,755,1,0,10,1.7048774420055028
undo,70,14,0,1,1,7,"[0, 15, 28, 17, 18, 8, 19, 1, 25, 7]",10,0,[],2.255955032,11912,2700,1,0,10,1.7048774420055028
undo,71,21,0,0,0,0,[0],1,29,"[1, 2, 3, 4, 5, 6, 7, 8, 9, 10, 11, 12, 13, 14, 15, 16, 17, 18, 19, 20, 21, 22, 23, 24, 25, 26, 27, 28, 29]",300,174,-1,84,830,9,0.0
undo,71,21,0,0,0,25,"[0, 25]",2,26,"[1, 2, 3, 4, 5, 6, 7, 8, 9, 10, 11, 12, 13, 14, 15, 16, 17, 18, 20, 21, 22, 23, 24, 26, 27, 29]",240.1836143,3984,3810,30,238,9,1.0
undo,71,21,0,0,0,23,"[0, 25, 23]",3,21,"[1, 2, 4, 6, 7, 8, 9, 10, 11, 12, 14, 15, 16, 17, 18, 20, 21, 22, 24, 27, 29]",196.8592562,4753,769,14,80,9,1.0416131642057598
undo,71,21,0,0,0,21,"[0, 25, 23, 21]",4,14,"[1, 4, 6, 8, 9, 14, 15, 16, 17, 18, 20, 22, 24, 29]",167.2450705,5453,700,10,25,9,1.4768792067751173
undo,71,21,0,0,0,14,"[0, 25, 23, 21, 14]",5,10,"[4, 8, 9, 15, 16, 17, 18, 22, 24, 29]",141.6325735,6251,798,8,13,9,1.3826076066332742
undo,71,21,0,0,0,4,"[0, 25, 23, 21, 14, 4]",6,7,"[8, 15, 16, 17, 18, 24, 29]",127.4904379,7669,1418,8,3,9,1.3487191473328533
undo,71,21,0,0,0,16,"[0, 25, 23, 21, 14, 4, 16]",7,3,"[8, 15, 24]",82.89223163,8756,1087,4,1,9,1.3301484172843694
undo,71,21,0,0,0,8,"[0, 25, 23, 21, 14, 4, 16, 8]",8,2,"[15, 24]",64.2911564,9352,596,2,0,9,1.3009886562393016
undo,71,21,0,0,1,15,"[0, 25, 23, 21, 14, 4, 16, 8, 15]",9,0,[],39.2911564,10237,885,1,0,9,1.5486591410600183
undo,71,21,0,1,1,15,"[0, 25, 23, 21, 14, 4, 16, 8, 15]",9,0,[],39.2911564,11725,1488,1,0,9,1.5486591410600183
undo,72,18,0,0,0,0,[0],1,28,"[1, 2, 3, 4, 5, 6, 7, 8, 9, 10, 11, 12, 13, 14, 16, 17, 18, 19, 20, 21, 22, 23, 24, 25, 26, 27, 28, 29]",300,173,-1,3,136,10,0.0
undo,72,18,0,0,0,28,"[0, 28]",2,16,"[1, 3, 5, 7, 8, 9, 12, 13, 14, 16, 20, 23, 24, 25, 26, 27]",236.4311397,2661,2488,2,19,10,1.0
undo,72,18,0,0,0,7,"[0, 28, 7]",3,15,"[1, 3, 5, 8, 9, 12, 13, 14, 16, 20, 23, 24, 25, 26, 27]",214.4084242,3329,668,2,17,10,1.4345180696367563
undo,72,18,0,0,0,25,"[0, 28, 7, 25]",4,13,"[1, 3, 5, 8, 9, 12, 13, 14, 16, 20, 23, 26, 27]",186.6055466,4445,1116,2,15,10,1.8896451241781882
undo,72,18,0,0,0,8,"[0, 28, 7, 25, 8]",5,10,"[3, 5, 9, 12, 13, 14, 16, 23, 26, 27]",149.551532,5235,790,2,10,10,1.590467437592877
undo,72,18,0,0,0,13,"[0, 28, 7, 25, 8, 13]",6,9,"[3, 5, 9, 12, 14, 16, 23, 26, 27]",128.4565089,6051,816,2,5,10,1.8248274983549797
undo,72,18,0,0,0,14,"[0, 28, 7, 25, 8, 13, 14]",7,7,"[3, 5, 9, 12, 23, 26, 27]",109.4828429,6785,734,2,3,10,1.6993534956692746
undo,72,18,0,0,0,3,"[0, 28, 7, 25, 8, 13, 14, 3]",8,3,"[5, 12, 27]",79.39962499,7771,986,2,1,10,1.802637206541468
undo,72,18,0,0,0,5,"[0, 28, 7, 25, 8, 13, 14, 3, 5]",9,1,[12],21.21887216,8672,901,1,0,10,1.559774889743805
undo,72,18,0,0,1,12,"[0, 28, 7, 25, 8, 13, 14, 3, 5, 12]",10,0,[],9.817117911,9603,931,1,0,10,1.563993037384447
undo,72,18,0,1,1,12,"[0, 28, 7, 25, 8, 13, 14, 3, 5, 12]",10,0,[],9.817117911,10592,989,1,0,10,1.563993037384447
undo,73,15,0,0,0,0,[0],1,25,"[1, 2, 3, 4, 7, 8, 9, 10, 11, 12, 13, 14, 15, 16, 18, 20, 21, 22, 23, 24, 25, 26, 27, 28, 29]",300,177,-1,4,65,9,0.0
undo,73,15,0,0,0,7,"[0, 7]",2,23,"[1, 3, 4, 8, 9, 10, 11, 12, 13, 14, 15, 16, 18, 20, 21, 22, 23, 24, 25, 26, 27, 28, 29]",215.1884442,4393,4216,30,107,8,1.0
undo,73,15,0,0,0,11,"[0, 7, 11]",3,18,"[3, 4, 8, 9, 10, 12, 13, 14, 15, 16, 18, 20, 21, 22, 23, 25, 27, 29]",173.7035072,5473,1080,12,34,8,1.0171318876095128
undo,73,15,0,0,0,3,"[0, 7, 11, 3]",4,13,"[4, 10, 12, 13, 14, 15, 16, 18, 20, 21, 22, 25, 27]",162.3017529,6757,1284,7,21,8,1.0401878806820521
undo,73,15,0,0,0,16,"[0, 7, 11, 3, 16]",5,9,"[4, 10, 12, 13, 14, 15, 18, 21, 22]",137.2218805,7659,902,5,6,8,1.4258499651326737
