condition,trial_id,map_id,undoIndicator,submit,checkEnd,currentChoice,chosen_all,n_city_all,n_within_reach,cities_reach,currentBudget,time_all,rt_all,n_opt_paths_all,n_subopt_paths_all,mas_all,tortuosity_all
basic,0,41,0,0,0,0,[0],1,29,"[1, 2, 3, 4, 5, 6, 7, 8, 9, 10, 11, 12, 13, 14, 15, 16, 17, 18, 19, 20, 21, 22, 23, 24, 25, 26, 27, 28, 29]",300,369,-1,1,143,10,0.0
basic,0,41,0,0,0,13,"[0, 13]",2,23,"[1, 2, 3, 5, 6, 7, 9, 10, 11, 12, 14, 15, 17, 18, 19, 20, 21, 22, 24, 25, 26, 27, 28]",258.2747079,19197,18828,1,55,10,1.0
basic,0,41,0,0,0,28,"[0, 13, 28]",3,22,"[1, 2, 3, 5, 6, 7, 9, 10, 11, 12, 14, 15, 17, 18, 19, 20, 21, 22, 24, 25, 26, 27]",223.7928286,20139,942,1,39,10,1.895724242592676
basic,0,41,0,0,0,5,"[0, 13, 28, 5]",4,19,"[1, 2, 3, 6, 9, 10, 11, 12, 14, 15, 17, 18, 19, 20, 21, 22, 24, 25, 27]",210.1913581,20906,767,1,34,10,2.861541269398273
basic,0,41,0,0,0,3,"[0, 13, 28, 5, 3]",5,16,"[1, 2, 6, 9, 10, 12, 14, 17, 18, 19, 20, 21, 22, 24, 25, 27]",175.3632086,21989,1083,1,22,10,3.1455488489005883
basic,0,41,0,0,0,21,"[0, 13, 28, 5, 3, 21]",6,14,"[1, 2, 6, 9, 10, 12, 14, 17, 18, 19, 20, 22, 25, 27]",143.2228912,22804,815,13,11,9,3.207558429289677
basic,0,41,0,0,0,9,"[0, 13, 28, 5, 3, 21, 9]",7,6,"[1, 2, 10, 12, 14, 17]",93.85691102,23786,982,7,4,9,2.5050148501792275
basic,0,41,0,0,0,2,"[0, 13, 28, 5, 3, 21, 9, 2]",8,5,"[1, 10, 12, 14, 17]",81.77386505,24751,965,5,0,9,2.4119643847713177
basic,0,41,0,0,1,17,"[0, 13, 28, 5, 3, 21, 9, 2, 17]",9,0,[],49.21622385,26116,1365,1,0,9,3.9563478735796007
basic,0,41,0,1,1,17,"[0, 13, 28, 5, 3, 21, 9, 2, 17]",9,0,[],49.21622385,30836,4720,1,0,9,3.9563478735796007
basic,1,42,0,0,0,0,[0],1,29,"[1, 2, 3, 4, 5, 6, 7, 8, 9, 10, 11, 12, 13, 14, 15, 16, 17, 18, 19, 20, 21, 22, 23, 24, 25, 26, 27, 28, 29]",300,374,-1,16,302,9,0.0
basic,1,42,0,0,0,5,"[0, 5]",2,28,"[1, 2, 3, 4, 6, 7, 8, 9, 10, 11, 12, 13, 14, 15, 16, 17, 18, 19, 20, 21, 22, 23, 24, 25, 26, 27, 28, 29]",191.2939744,8941,8567,1,22,9,1.0
basic,1,42,0,0,0,4,"[0, 5, 4]",3,23,"[1, 2, 3, 6, 7, 8, 9, 10, 11, 13, 15, 17, 18, 19, 20, 21, 22, 23, 24, 25, 26, 27, 29]",171.4445412,10076,1135,1,14,9,1.420957801478707
basic,1,42,0,0,0,22,"[0, 5, 4, 22]",4,20,"[1, 2, 3, 6, 7, 8, 9, 11, 15, 17, 18, 19, 20, 21, 23, 24, 25, 26, 27, 29]",160.2642013,10942,866,1,11,9,1.5771494659680896
basic,1,42,0,0,0,8,"[0, 5, 4, 22, 8]",5,14,"[1, 2, 3, 6, 7, 11, 15, 18, 19, 24, 25, 26, 27, 29]",138.1282577,12188,1246,1,10,9,1.5055393955524201
basic,1,42,0,0,0,1,"[0, 5, 4, 22, 8, 1]",6,5,"[2, 7, 19, 26, 27]",89.03650682,13239,1051,1,7,9,1.3547259083637835
basic,1,42,0,0,0,7,"[0, 5, 4, 22, 8, 1, 7]",7,4,"[2, 19, 26, 27]",59.03650682,14290,1051,1,3,9,1.3909715672447451
basic,1,42,0,0,0,26,"[0, 5, 4, 22, 8, 1, 7, 26]",8,1,[27],32.46584631,17049,2759,1,0,9,1.3511825943939393
basic,1,42,0,0,1,27,"[0, 5, 4, 22, 8, 1, 7, 26, 27]",9,0,[],14.43808994,18398,1349,1,0,9,1.3391911688802078
basic,1,42,0,1,1,27,"[0, 5, 4, 22, 8, 1, 7, 26, 27]",9,0,[],14.43808994,20235,1837,1,0,9,1.3391911688802078
basic,2,17,0,0,0,0,[0],1,28,"[1, 2, 3, 4, 5, 6, 7, 8, 9, 10, 11, 12, 13, 14, 15, 16, 17, 18, 19, 20, 22, 23, 24, 25, 26, 27, 28, 29]",300,351,-1,2,73,8,0.0
basic,2,17,0,0,0,9,"[0, 9]",2,25,"[1, 2, 3, 5, 6, 7, 8, 10, 11, 12, 14, 15, 16, 17, 18, 19, 20, 22, 23, 24, 25, 26, 27, 28, 29]",210.5293344,20031,19680,1,34,8,1.0
basic,2,17,0,0,0,16,"[0, 9, 16]",3,21,"[1, 2, 3, 5, 7, 8, 10, 11, 12, 14, 17, 18, 19, 20, 22, 23, 25, 26, 27, 28, 29]",197.1876704,20966,935,1,26,8,1.173103464220352
basic,2,17,0,0,0,2,"[0, 9, 16, 2]",4,18,"[1, 3, 5, 7, 8, 10, 11, 12, 14, 17, 18, 19, 23, 25, 26, 27, 28, 29]",181.0631549,21946,980,1,23,8,1.14825089247282
basic,2,17,0,0,0,10,"[0, 9, 16, 2, 10]",5,4,"[3, 11, 23, 28]",71.04042993,24365,2419,3,2,7,1.2629477265421833
basic,2,17,0,0,0,3,"[0, 9, 16, 2, 10, 3]",6,2,"[11, 28]",44.41337602,30220,5855,2,0,7,1.349216507765288
basic,2,17,0,0,1,28,"[0, 9, 16, 2, 10, 3, 28]",7,0,[],10.41337602,31402,1182,1,0,7,1.3953915984988103
basic,2,17,0,1,1,28,"[0, 9, 16, 2, 10, 3, 28]",7,0,[],10.41337602,32473,1071,1,0,7,1.3953915984988103
basic,3,29,0,0,0,0,[0],1,29,"[1, 2, 3, 4, 5, 6, 7, 8, 9, 10, 11, 12, 13, 14, 15, 16, 17, 18, 19, 20, 21, 22, 23, 24, 25, 26, 27, 28, 29]",300,374,-1,1,78,9,0.0
basic,3,29,0,0,0,27,"[0, 27]",2,24,"[1, 3, 4, 5, 6, 7, 9, 10, 11, 12, 13, 14, 15, 16, 17, 18, 21, 22, 23, 24, 25, 26, 28, 29]",191.6579491,7094,6720,23,138,7,1.0
basic,3,29,0,0,0,22,"[0, 27, 22]",3,20,"[1, 3, 4, 5, 6, 7, 9, 11, 12, 13, 14, 15, 16, 17, 21, 23, 25, 26, 28, 29]",158.4164088,8297,1203,13,54,7,1.2104699216674117
basic,3,29,0,0,0,12,"[0, 27, 22, 12]",4,11,"[4, 5, 7, 9, 13, 14, 21, 23, 26, 28, 29]",120.4690769,9475,1178,9,16,7,1.1629201815610561
basic,3,29,0,0,0,7,"[0, 27, 22, 12, 7]",5,8,"[4, 5, 9, 13, 14, 21, 26, 28]",106.8676064,10678,1203,8,4,7,1.1744097803837283
basic,3,29,0,0,0,5,"[0, 27, 22, 12, 7, 5]",6,2,"[13, 14]",43.33808566,11921,1243,2,0,7,2.0655598400659714
basic,3,29,0,0,1,13,"[0, 27, 22, 12, 7, 5, 13]",7,0,[],17.6281654,13269,1348,1,0,7,2.608634060768182
basic,3,29,0,1,1,13,"[0, 27, 22, 12, 7, 5, 13]",7,0,[],17.6281654,14791,1522,1,0,7,2.608634060768182
basic,4,36,0,0,0,0,[0],1,24,"[2, 4, 5, 6, 7, 8, 9, 10, 12, 13, 14, 15, 16, 17, 18, 19, 20, 22, 23, 25, 26, 27, 28, 29]",300,358,-1,2,200,10,0.0
basic,4,36,0,0,0,9,"[0, 9]",2,16,"[2, 4, 8, 10, 12, 13, 16, 17, 18, 19, 23, 25, 26, 27, 28, 29]",230.9348134,9425,9067,81,367,8,1.0
basic,4,36,0,0,0,17,"[0, 9, 17]",3,13,"[2, 4, 8, 10, 12, 13, 16, 18, 19, 23, 25, 27, 29]",204.6860039,10660,1235,22,90,8,1.0084584538853834
basic,4,36,0,0,0,19,"[0, 9, 17, 19]",4,12,"[2, 4, 8, 10, 12, 13, 16, 18, 23, 25, 27, 29]",176.7933525,11712,1052,8,25,8,1.5984695375617641
basic,4,36,0,0,0,2,"[0, 9, 17, 19, 2]",5,8,"[8, 10, 12, 13, 16, 18, 25, 27]",139.6719302,12888,1176,3,6,8,1.4197222355264698
basic,4,36,0,0,0,25,"[0, 9, 17, 19, 2, 25]",6,4,"[10, 12, 13, 16]",114.6719302,14056,1168,2,3,8,1.618724672336267
basic,4,36,0,0,0,13,"[0, 9, 17, 19, 2, 25, 13]",7,2,"[10, 12]",94.08066987,15172,1116,2,0,8,2.099469552875175
basic,4,36,0,0,1,12,"[0, 9, 17, 19, 2, 25, 13, 12]",8,0,[],14.90365301,17469,2297,1,0,8,12.840093699859885
basic,4,36,0,1,1,12,"[0, 9, 17, 19, 2, 25, 13, 12]",8,0,[],14.90365301,18821,1352,1,0,8,12.840093699859885
basic,5,18,0,0,0,0,[0],1,28,"[1, 2, 3, 4, 5, 6, 7, 8, 9, 10, 11, 12, 13, 14, 16, 17, 18, 19, 20, 21, 22, 23, 24, 25, 26, 27, 28, 29]",300,359,-1,3,136,10,0.0
basic,5,18,0,0,0,25,"[0, 25]",2,22,"[1, 2, 3, 4, 5, 7, 8, 9, 10, 12, 13, 14, 16, 18, 19, 20, 21, 23, 24, 26, 27, 28]",239.9916672,8547,8188,7,151,9,1.0
basic,5,18,0,0,0,8,"[0, 25, 8]",3,18,"[1, 2, 3, 5, 7, 9, 10, 12, 13, 14, 16, 18, 20, 21, 23, 26, 27, 28]",202.9376526,9743,1196,4,45,9,1.0260955462572583
basic,5,18,0,0,0,13,"[0, 25, 8, 13]",4,16,"[1, 3, 5, 7, 9, 10, 12, 14, 16, 18, 20, 21, 23, 26, 27, 28]",181.8426295,13005,3262,3,20,9,1.2569221801369617
basic,5,18,0,0,0,14,"[0, 25, 8, 13, 14]",5,13,"[3, 5, 7, 9, 10, 12, 16, 18, 21, 23, 26, 27, 28]",162.8689635,13842,837,3,12,9,1.2231659856162418
basic,5,18,0,0,0,3,"[0, 25, 8, 13, 14, 3]",6,8,"[5, 7, 9, 12, 23, 26, 27, 28]",132.7857456,15021,1179,3,6,9,1.366392221372545
basic,5,18,0,0,0,5,"[0, 25, 8, 13, 14, 3, 5]",7,2,"[12, 27]",74.6049928,16238,1217,1,1,9,1.2610806019335608
basic,5,18,0,0,0,12,"[0, 25, 8, 13, 14, 3, 5, 12]",8,1,[27],63.20323855,17488,1250,1,0,9,1.2762589009967817
basic,5,18,0,0,1,27,"[0, 25, 8, 13, 14, 3, 5, 12, 27]",9,0,[],22.48469241,19151,1663,1,0,9,1.4075470288984155
basic,5,18,0,1,1,27,"[0, 25, 8, 13, 14, 3, 5, 12, 27]",9,0,[],22.48469241,20620,1469,1,0,9,1.4075470288984155
basic,6,33,0,0,0,0,[0],1,23,"[1, 2, 5, 7, 8, 11, 12, 13, 14, 15, 16, 17, 18, 19, 20, 21, 23, 24, 25, 26, 27, 28, 29]",300,350,-1,5,108,9,0.0
basic,6,33,0,0,0,19,"[0, 19]",2,15,"[2, 5, 7, 11, 13, 14, 16, 17, 18, 20, 21, 24, 26, 28, 29]",132.4261357,12023,11673,1,36,7,1.0
basic,6,33,0,0,0,24,"[0, 19, 24]",3,10,"[7, 13, 14, 16, 17, 18, 21, 26, 28, 29]",90.37854361,14888,2865,1,7,7,1.0295744364098542
basic,6,33,0,0,0,7,"[0, 19, 24, 7]",4,3,"[14, 26, 29]",61.17237987,15954,1066,1,3,7,1.1207254556424748
basic,6,33,0,0,0,14,"[0, 19, 24, 7, 14]",5,2,"[26, 29]",46.30631113,17366,1412,1,1,7,1.1693933826129768
basic,6,33,0,0,0,26,"[0, 19, 24, 7, 14, 26]",6,1,[29],33.65720049,18567,1201,1,0,7,1.177252459558968
basic,6,33,0,0,1,29,"[0, 19, 24, 7, 14, 26, 29]",7,0,[],5.764549123,21296,2729,1,0,7,1.3988234288262205
basic,6,33,0,1,1,29,"[0, 19, 24, 7, 14, 26, 29]",7,0,[],5.764549123,22585,1289,1,0,7,1.3988234288262205
basic,7,7,0,0,0,0,[0],1,29,"[1, 2, 3, 4, 5, 6, 7, 8, 9, 10, 11, 12, 13, 14, 15, 16, 17, 18, 19, 20, 21, 22, 23, 24, 25, 26, 27, 28, 29]",300,369,-1,3,79,9,0.0
basic,7,7,0,0,0,6,"[0, 6]",2,22,"[2, 4, 5, 7, 8, 9, 10, 11, 13, 14, 15, 16, 18, 19, 20, 21, 22, 23, 24, 25, 27, 28]",231.1160396,2697,2328,1,24,9,1.0
basic,7,7,0,0,0,25,"[0, 6, 25]",3,14,"[2, 4, 5, 7, 13, 14, 15, 16, 18, 19, 20, 21, 23, 28]",163.9371739,3812,1115,1,15,9,1.1491202566384209
basic,7,7,0,0,0,18,"[0, 6, 25, 18]",4,10,"[2, 4, 7, 13, 14, 15, 16, 19, 20, 23]",135.6175694,5661,1849,3,17,8,1.1481527050479303
basic,7,7,0,0,0,20,"[0, 6, 25, 18, 20]",5,7,"[2, 4, 7, 13, 15, 16, 19]",122.8113209,8095,2434,2,7,8,1.1819409572824942
basic,7,7,0,0,0,7,"[0, 6, 25, 18, 20, 7]",6,3,"[2, 4, 19]",82.31440742,9162,1067,1,2,8,1.1899474510501942
basic,7,7,0,0,0,19,"[0, 6, 25, 18, 20, 7, 19]",7,1,[2],52.90352508,10180,1018,1,0,8,1.3062191275015858
basic,7,7,0,0,1,2,"[0, 6, 25, 18, 20, 7, 19, 2]",8,0,[],22.75389822,11289,1109,1,0,8,1.3209685930735187
basic,7,7,0,1,1,2,"[0, 6, 25, 18, 20, 7, 19, 2]",8,0,[],22.75389822,13193,1904,1,0,8,1.3209685930735187
basic,8,40,0,0,0,0,[0],1,29,"[1, 2, 3, 4, 5, 6, 7, 8, 9, 10, 11, 12, 13, 14, 15, 16, 17, 18, 19, 20, 21, 22, 23, 24, 25, 26, 27, 28, 29]",300,351,-1,8,191,9,0.0
basic,8,40,0,0,0,1,"[0, 1]",2,18,"[2, 5, 6, 7, 8, 9, 10, 11, 13, 15, 17, 18, 19, 21, 22, 23, 27, 29]",247.8463808,6813,6462,4,80,9,1.0
basic,8,40,0,0,0,6,"[0, 1, 6]",3,17,"[2, 5, 7, 8, 9, 10, 11, 13, 15, 17, 18, 19, 21, 22, 23, 27, 29]",227.7466295,7930,1117,4,74,9,1.0459427008232034
basic,8,40,0,0,0,9,"[0, 1, 6, 9]",4,10,"[2, 5, 8, 11, 18, 19, 21, 22, 23, 27]",159.146338,10659,2729,17,39,8,1.142098432552584
basic,8,40,0,0,0,18,"[0, 1, 6, 9, 18]",5,9,"[2, 5, 8, 11, 19, 21, 22, 23, 27]",142.5933926,12024,1365,13,14,8,1.3288108654802917
basic,8,40,0,0,0,23,"[0, 1, 6, 9, 18, 23]",6,6,"[2, 5, 8, 19, 21, 22]",108.5933926,16237,4213,6,4,8,2.0180513009829646
basic,8,40,0,0,0,5,"[0, 1, 6, 9, 18, 23, 5]",7,2,"[19, 22]",80.29144922,17635,1398,2,0,8,1.786484562843798
basic,8,40,0,0,1,19,"[0, 1, 6, 9, 18, 23, 5, 19]",8,0,[],42.21258369,19082,1447,1,0,8,2.512757983735243
basic,8,40,0,1,1,19,"[0, 1, 6, 9, 18, 23, 5, 19]",8,0,[],42.21258369,20822,1740,1,0,8,2.512757983735243
basic,9,5,0,0,0,0,[0],1,29,"[1, 2, 3, 4, 5, 6, 7, 8, 9, 10, 11, 12, 13, 14, 15, 16, 17, 18, 19, 20, 21, 22, 23, 24, 25, 26, 27, 28, 29]",300,358,-1,5,139,9,0.0
basic,9,5,0,0,0,23,"[0, 23]",2,27,"[1, 2, 3, 4, 5, 6, 7, 8, 9, 10, 11, 12, 13, 14, 15, 16, 17, 18, 19, 20, 21, 22, 24, 25, 26, 27, 28]",249.8402552,7578,7220,3,75,9,1.0
basic,9,5,0,0,0,25,"[0, 23, 25]",3,23,"[1, 2, 3, 4, 5, 6, 8, 9, 10, 12, 13, 14, 15, 16, 17, 18, 19, 21, 22, 24, 26, 27, 28]",231.4011663,8562,984,3,43,9,1.0923159590575564
basic,9,5,0,0,0,24,"[0, 23, 25, 24]",4,21,"[2, 3, 4, 5, 6, 8, 9, 10, 12, 13, 14, 15, 16, 17, 18, 19, 21, 22, 26, 27, 28]",206.5616816,9560,998,3,25,9,1.2901858295679272
basic,9,5,0,0,0,17,"[0, 23, 25, 24, 17]",5,13,"[4, 5, 6, 8, 12, 13, 14, 15, 18, 19, 22, 26, 27]",171.5759702,12760,3200,3,14,9,1.2027484907982513
basic,9,5,0,0,0,5,"[0, 23, 25, 24, 17, 5]",6,7,"[4, 6, 8, 12, 15, 18, 19]",128.5294837,21282,8522,3,4,9,1.1472230681682432
basic,9,5,0,0,0,18,"[0, 23, 25, 24, 17, 5, 18]",7,2,"[4, 6]",61.46235316,22739,1457,1,1,9,1.1763046566678599
basic,9,5,0,0,0,4,"[0, 23, 25, 24, 17, 5, 18, 4]",8,1,[6],23.04360773,24197,1458,1,0,9,1.580519180089265
basic,9,5,0,0,1,6,"[0, 23, 25, 24, 17, 5, 18, 4, 6]",9,0,[],11.00201315,25441,1244,1,0,9,1.7305268673652696
basic,9,5,0,1,1,6,"[0, 23, 25, 24, 17, 5, 18, 4, 6]",9,0,[],11.00201315,27262,1821,1,0,9,1.7305268673652696
basic,10,31,0,0,0,0,[0],1,27,"[1, 3, 4, 5, 6, 7, 8, 10, 11, 12, 13, 14, 15, 16, 17, 18, 19, 20, 21, 22, 23, 24, 25, 26, 27, 28, 29]",300,360,-1,2,87,10,0.0
basic,10,31,0,0,0,14,"[0, 14]",2,25,"[1, 3, 5, 6, 7, 8, 10, 11, 12, 13, 15, 16, 17, 18, 19, 20, 21, 22, 23, 24, 25, 26, 27, 28, 29]",263.861378,9490,9130,2,59,10,1.0
basic,10,31,0,0,0,27,"[0, 14, 27]",3,22,"[1, 3, 5, 6, 7, 8, 10, 11, 12, 13, 15, 16, 17, 18, 19, 20, 21, 22, 24, 25, 28, 29]",235.6833724,10756,1266,1,39,10,1.5881859159302467
basic,10,31,0,0,0,8,"[0, 14, 27, 8]",4,20,"[1, 3, 5, 6, 7, 10, 11, 12, 13, 16, 17, 18, 19, 20, 21, 22, 24, 25, 28, 29]",224.6380114,13885,3129,1,36,10,2.1665048452331277
basic,10,31,0,0,0,18,"[0, 14, 27, 8, 18]",5,15,"[1, 5, 6, 7, 11, 12, 13, 16, 17, 19, 20, 22, 25, 28, 29]",188.7911147,15354,1469,1,26,10,1.7273375741920205
basic,10,31,0,0,0,17,"[0, 14, 27, 8, 18, 17]",6,13,"[1, 5, 6, 7, 11, 12, 13, 16, 19, 20, 22, 25, 28]",159.584951,17052,1698,1,13,10,1.551192427769927
basic,10,31,0,0,0,11,"[0, 14, 27, 8, 18, 17, 11]",7,7,"[5, 12, 16, 19, 22, 25, 28]",118.4753414,18552,1500,1,4,10,2.9650760544203494
basic,10,31,0,0,0,5,"[0, 14, 27, 8, 18, 17, 11, 5]",8,2,"[16, 28]",74.79468207,19797,1245,1,1,10,2.56711965625205
basic,10,31,0,0,0,28,"[0, 14, 27, 8, 18, 17, 11, 5, 28]",9,1,[16],54.57093365,21062,1265,1,0,10,2.2865510762058148
basic,10,31,0,0,1,16,"[0, 14, 27, 8, 18, 17, 11, 5, 28, 16]",10,0,[],20.95546102,22446,1384,1,0,10,2.089356850786318
basic,10,31,0,1,1,16,"[0, 14, 27, 8, 18, 17, 11, 5, 28, 16]",10,0,[],20.95546102,23432,986,1,0,10,2.089356850786318
basic,11,8,0,0,0,0,[0],1,29,"[1, 2, 3, 4, 5, 6, 7, 8, 9, 10, 11, 12, 13, 14, 15, 16, 17, 18, 19, 20, 21, 22, 23, 24, 25, 26, 27, 28, 29]",300,363,-1,10,149,9,0.0
basic,11,8,0,0,0,5,"[0, 5]",2,28,"[1, 2, 3, 4, 6, 7, 8, 9, 10, 11, 12, 13, 14, 15, 16, 17, 18, 19, 20, 21, 22, 23, 24, 25, 26, 27, 28, 29]",254.5137383,3701,3338,10,100,9,1.0
basic,11,8,0,0,0,25,"[0, 5, 25]",3,20,"[1, 2, 3, 4, 6, 11, 12, 14, 15, 16, 17, 18, 19, 20, 21, 22, 23, 24, 28, 29]",215.3091468,5550,1849,4,42,9,1.2272747879909065
basic,11,8,0,0,0,1,"[0, 5, 25, 1]",4,17,"[3, 4, 6, 11, 12, 14, 15, 16, 17, 18, 20, 21, 22, 23, 24, 28, 29]",190.3091468,6598,1048,3,24,9,1.1770245007593956
basic,11,8,0,0,0,14,"[0, 5, 25, 1, 14]",5,12,"[4, 6, 11, 15, 16, 17, 18, 20, 22, 23, 24, 28]",134.2288472,8295,1697,2,7,9,1.9402045895737055
basic,11,8,0,0,0,17,"[0, 5, 25, 1, 14, 17]",6,6,"[11, 15, 16, 18, 24, 28]",97.21533615,9262,967,2,5,9,1.8565852053453542
basic,11,8,0,0,0,11,"[0, 5, 25, 1, 14, 17, 11]",7,4,"[15, 16, 24, 28]",72.03597953,10143,881,2,2,9,1.7412490760199053
basic,11,8,0,0,0,24,"[0, 5, 25, 1, 14, 17, 11, 24]",8,1,[15],34.8203914,11442,1299,1,0,9,1.6105839855620734
basic,11,8,0,0,1,15,"[0, 5, 25, 1, 14, 17, 11, 24, 15]",9,0,[],18.05733678,12408,966,1,0,9,1.671962547892534
basic,11,8,0,1,1,15,"[0, 5, 25, 1, 14, 17, 11, 24, 15]",9,0,[],18.05733678,14294,1886,1,0,9,1.671962547892534
basic,12,37,0,0,0,0,[0],1,29,"[1, 2, 3, 4, 5, 6, 7, 8, 9, 10, 11, 12, 13, 14, 15, 16, 17, 18, 19, 20, 21, 22, 23, 24, 25, 26, 27, 28, 29]",300,358,-1,6,168,10,0.0
basic,12,37,0,0,0,18,"[0, 18]",2,19,"[1, 2, 4, 6, 7, 9, 10, 12, 14, 15, 17, 19, 20, 21, 22, 23, 26, 28, 29]",202.4090168,4171,3813,6,89,10,1.0
basic,12,37,0,0,0,7,"[0, 18, 7]",3,12,"[1, 2, 4, 9, 15, 17, 19, 20, 21, 22, 26, 29]",175.2428614,5764,1593,6,53,10,1.0413073512834488
basic,12,37,0,0,0,22,"[0, 18, 7, 22]",4,8,"[1, 2, 4, 15, 19, 20, 21, 26]",125.2428614,7916,2152,6,29,10,1.0730792320325544
basic,12,37,0,0,0,4,"[0, 18, 7, 22, 4]",5,7,"[1, 2, 15, 19, 20, 21, 26]",100.2428614,10296,2380,4,16,10,1.2290245562206235
basic,12,37,0,0,0,2,"[0, 18, 7, 22, 4, 2]",6,5,"[1, 15, 19, 20, 21]",88.84110714,11173,877,4,7,10,1.3968113858365216
basic,12,37,0,0,0,1,"[0, 18, 7, 22, 4, 2, 1]",7,4,"[15, 19, 20, 21]",71.63645661,12939,1766,4,3,10,1.4424239294761476
basic,12,37,0,0,0,15,"[0, 18, 7, 22, 4, 2, 1, 15]",8,2,"[20, 21]",31.67397421,15420,2481,2,0,10,1.612564167414217
basic,12,37,0,0,0,21,"[0, 18, 7, 22, 4, 2, 1, 15, 21]",9,1,[20],16.67397421,16601,1181,1,0,10,1.8256316004901285
basic,12,37,0,0,1,20,"[0, 18, 7, 22, 4, 2, 1, 15, 21, 20]",10,0,[],2.251769103,17567,966,1,0,10,1.9863570569415172
basic,12,37,0,1,1,20,"[0, 18, 7, 22, 4, 2, 1, 15, 21, 20]",10,0,[],2.251769103,18672,1105,1,0,10,1.9863570569415172
basic,13,26,0,0,0,0,[0],1,29,"[1, 2, 3, 4, 5, 6, 7, 8, 9, 10, 11, 12, 13, 14, 15, 16, 17, 18, 19, 20, 21, 22, 23, 24, 25, 26, 27, 28, 29]",300,358,-1,9,226,9,0.0
basic,13,26,0,0,0,12,"[0, 12]",2,26,"[1, 2, 3, 4, 5, 6, 8, 10, 11, 13, 14, 15, 16, 17, 18, 19, 20, 21, 22, 23, 24, 25, 26, 27, 28, 29]",279.8753882,19428,19070,2,80,9,1.0
basic,13,26,0,0,0,16,"[0, 12, 16]",3,12,"[4, 5, 6, 10, 11, 13, 14, 17, 21, 23, 26, 29]",152.8281529,20995,1567,1,35,9,1.3146633244997343
basic,13,26,0,0,0,29,"[0, 12, 16, 29]",4,9,"[4, 5, 6, 10, 13, 14, 17, 21, 23]",128.620716,21864,869,1,28,9,1.4025825138871748
basic,13,26,0,0,0,4,"[0, 12, 16, 29, 4]",5,6,"[6, 10, 14, 17, 21, 23]",104.620716,22682,818,1,12,9,1.6120095703050636
basic,13,26,0,0,0,17,"[0, 12, 16, 29, 4, 17]",6,3,"[6, 10, 14]",83.52569291,23841,1159,1,4,9,1.5235227867063668
basic,13,26,0,0,0,14,"[0, 12, 16, 29, 4, 17, 14]",7,2,"[6, 10]",61.05348785,25745,1904,1,1,9,1.4827390340429785
basic,13,26,0,0,0,6,"[0, 12, 16, 29, 4, 17, 14, 6]",8,1,[10],40.02969181,26756,1011,1,0,9,1.6186299234650392
basic,13,26,0,0,1,10,"[0, 12, 16, 29, 4, 17, 14, 6, 10]",9,0,[],10.75512948,27770,1014,1,0,9,1.7874725321428664
basic,13,26,0,1,1,10,"[0, 12, 16, 29, 4, 17, 14, 6, 10]",9,0,[],10.75512948,29042,1272,1,0,9,1.7874725321428664
basic,14,19,0,0,0,0,[0],1,29,"[1, 2, 3, 4, 5, 6, 7, 8, 9, 10, 11, 12, 13, 14, 15, 16, 17, 18, 19, 20, 21, 22, 23, 24, 25, 26, 27, 28, 29]",300,357,-1,12,149,8,0.0
basic,14,19,0,0,0,29,"[0, 29]",2,28,"[1, 2, 3, 4, 5, 6, 7, 8, 9, 10, 11, 12, 13, 14, 15, 16, 17, 18, 19, 20, 21, 22, 23, 24, 25, 26, 27, 28]",265.0715016,4729,4372,12,120,8,1.0
basic,14,19,0,0,0,9,"[0, 29, 9]",3,17,"[1, 4, 5, 6, 7, 10, 11, 12, 13, 14, 19, 20, 21, 22, 24, 27, 28]",181.7108394,6045,1316,11,65,8,1.0375842971861238
basic,14,19,0,0,0,6,"[0, 29, 9, 6]",4,12,"[4, 7, 10, 11, 13, 14, 20, 21, 22, 24, 27, 28]",140.2741407,9692,3647,11,34,8,1.0389786364356892
basic,14,19,0,0,0,14,"[0, 29, 9, 6, 14]",5,7,"[4, 10, 11, 20, 22, 24, 28]",80.59164747,11855,2163,3,6,8,1.0491884155331486
basic,14,19,0,0,0,11,"[0, 29, 9, 6, 14, 11]",6,5,"[4, 20, 22, 24, 28]",69.77499364,12906,1051,3,2,8,1.050030420094996
basic,14,19,0,0,0,20,"[0, 29, 9, 6, 14, 11, 20]",7,1,[22],21.97332003,14469,1563,1,0,8,1.2297732331070566
basic,14,19,0,0,1,22,"[0, 29, 9, 6, 14, 11, 20, 22]",8,0,[],8.82037359,15271,802,1,0,8,1.3667995105273867
basic,14,19,0,1,1,22,"[0, 29, 9, 6, 14, 11, 20, 22]",8,0,[],8.82037359,16124,853,1,0,8,1.3667995105273867
basic,15,22,0,0,0,0,[0],1,29,"[1, 2, 3, 4, 5, 6, 7, 8, 9, 10, 11, 12, 13, 14, 15, 16, 17, 18, 19, 20, 21, 22, 23, 24, 25, 26, 27, 28, 29]",300,379,-1,31,704,9,0.0
basic,15,22,0,0,0,16,"[0, 16]",2,21,"[1, 3, 6, 7, 8, 9, 11, 13, 14, 15, 17, 18, 19, 20, 21, 22, 24, 25, 27, 28, 29]",218.605897,2417,2038,17,147,9,1.0
basic,15,22,0,0,0,6,"[0, 16, 6]",3,16,"[1, 3, 7, 9, 13, 14, 15, 17, 19, 20, 21, 22, 24, 25, 28, 29]",184.1675463,3590,1173,5,77,9,1.3071109638102874
basic,15,22,0,0,0,9,"[0, 16, 6, 9]",4,15,"[1, 3, 7, 13, 14, 15, 17, 19, 20, 21, 22, 24, 25, 28, 29]",157.5404924,4649,1059,4,33,9,1.5907585082674378
basic,15,22,0,0,0,19,"[0, 16, 6, 9, 19]",5,12,"[3, 7, 13, 14, 15, 17, 20, 21, 24, 25, 28, 29]",137.1444143,5815,1166,3,17,9,2.0453047636701496
basic,15,22,0,0,0,29,"[0, 16, 6, 9, 19, 29]",6,10,"[3, 7, 13, 14, 15, 17, 20, 21, 24, 28]",122.111118,6949,1134,3,10,9,2.310050419546042
basic,15,22,0,0,0,14,"[0, 16, 6, 9, 19, 29, 14]",7,2,"[7, 17]",63.86165444,9243,2294,1,1,9,1.8228779744230632
basic,15,22,0,0,0,7,"[0, 16, 6, 9, 19, 29, 14, 7]",8,1,[17],50.82324963,10109,866,1,0,9,1.981278197083242
basic,15,22,0,0,1,17,"[0, 16, 6, 9, 19, 29, 14, 7, 17]",9,0,[],9.205945539,11410,1301,1,0,9,1.840137026694984
basic,15,22,0,1,1,17,"[0, 16, 6, 9, 19, 29, 14, 7, 17]",9,0,[],9.205945539,12230,820,1,0,9,1.840137026694984
basic,16,11,0,0,0,0,[0],1,25,"[1, 2, 3, 4, 5, 6, 8, 9, 10, 11, 12, 13, 14, 15, 16, 17, 18, 19, 20, 22, 23, 25, 26, 27, 28]",300,370,-1,6,374,12,0.0
basic,16,11,0,0,0,18,"[0, 18]",2,21,"[1, 2, 4, 5, 6, 8, 9, 11, 12, 13, 14, 15, 16, 17, 19, 20, 22, 23, 25, 27, 28]",236.8493864,2565,2195,157,1477,11,1.0
basic,16,11,0,0,0,27,"[0, 18, 27]",3,19,"[1, 2, 4, 5, 6, 8, 9, 11, 12, 14, 15, 16, 17, 19, 20, 22, 23, 25, 28]",212.9956655,3699,1134,157,1315,11,1.060949579704323
basic,16,11,0,0,0,8,"[0, 18, 27, 8]",4,14,"[1, 2, 4, 5, 6, 11, 12, 15, 17, 19, 22, 23, 25, 28]",142.7817068,5363,1664,68,433,11,1.0827202875589923
basic,16,11,0,0,0,17,"[0, 18, 27, 8, 17]",5,13,"[1, 2, 4, 5, 6, 11, 12, 15, 19, 22, 23, 25, 28]",128.4638857,6614,1251,42,137,11,1.1662918234607762
basic,16,11,0,0,0,15,"[0, 18, 27, 8, 17, 15]",6,9,"[2, 5, 6, 11, 12, 19, 22, 25, 28]",115.8147751,7595,981,38,57,11,1.1741312027420885
basic,16,11,0,0,0,11,"[0, 18, 27, 8, 17, 15, 11]",7,7,"[2, 5, 6, 12, 19, 22, 28]",97.70400479,8724,1129,24,0,11,1.1668679039564056
basic,16,11,0,0,0,5,"[0, 18, 27, 8, 17, 15, 11, 5]",8,3,"[2, 22, 28]",62.47617489,11404,2680,6,0,11,1.4599514427122162
basic,16,11,0,0,0,28,"[0, 18, 27, 8, 17, 15, 11, 5, 28]",9,2,"[2, 22]",44.58763107,12886,1482,2,0,11,1.4780521291873887
basic,16,11,0,0,0,2,"[0, 18, 27, 8, 17, 15, 11, 5, 28, 2]",10,1,[22],33.95748525,13919,1033,1,0,11,1.49053366829238
basic,16,11,0,0,1,22,"[0, 18, 27, 8, 17, 15, 11, 5, 28, 2, 22]",11,0,[],23.90760963,15253,1334,1,0,11,1.4644184017269015
basic,16,11,0,1,1,22,"[0, 18, 27, 8, 17, 15, 11, 5, 28, 2, 22]",11,0,[],23.90760963,17871,2618,1,0,11,1.4644184017269015
basic,17,23,0,0,0,0,[0],1,28,"[1, 2, 3, 4, 5, 6, 7, 8, 9, 10, 11, 12, 13, 14, 15, 16, 17, 18, 19, 20, 21, 22, 23, 25, 26, 27, 28, 29]",300,355,-1,76,2626,10,0.0
basic,17,23,0,0,0,22,"[0, 22]",2,24,"[1, 2, 3, 5, 6, 7, 8, 9, 10, 11, 12, 13, 14, 15, 17, 18, 19, 20, 21, 23, 25, 26, 27, 29]",210.5013967,6428,6073,15,1362,10,1.0
basic,17,23,0,0,0,13,"[0, 22, 13]",3,14,"[1, 2, 5, 6, 7, 8, 9, 10, 12, 14, 18, 21, 27, 29]",168.3113504,7548,1120,14,522,10,1.1898173563652046
basic,17,23,0,0,0,12,"[0, 22, 13, 12]",4,11,"[1, 2, 6, 7, 9, 10, 14, 18, 21, 27, 29]",156.2283045,8510,962,12,166,10,1.1727968780218219
basic,17,23,0,0,0,9,"[0, 22, 13, 12, 9]",5,10,"[1, 2, 6, 7, 10, 14, 18, 21, 27, 29]",141.9104834,11828,3318,5,49,10,1.2100380646101494
basic,17,23,0,0,0,2,"[0, 22, 13, 12, 9, 2]",6,7,"[6, 7, 10, 14, 18, 27, 29]",128.8720786,12907,1079,2,14,10,1.2540630595303361
basic,17,23,0,0,0,6,"[0, 22, 13, 12, 9, 2, 6]",7,5,"[7, 14, 18, 27, 29]",110.4329897,14073,1166,1,5,10,1.2617349117604129
basic,17,23,0,0,0,14,"[0, 22, 13, 12, 9, 2, 6, 14]",8,3,"[7, 27, 29]",81.5712503,17800,3727,1,2,10,1.5503492528520482
basic,17,23,0,0,0,29,"[0, 22, 13, 12, 9, 2, 6, 14, 29]",9,1,[7],34.1370854,19183,1383,1,0,10,1.7240578582872168
basic,17,23,0,0,1,7,"[0, 22, 13, 12, 9, 2, 6, 14, 29, 7]",10,0,[],10.05389624,20485,1302,1,0,10,1.7239162184714747
basic,17,23,0,1,1,7,"[0, 22, 13, 12, 9, 2, 6, 14, 29, 7]",10,0,[],10.05389624,21952,1467,1,0,10,1.7239162184714747
basic,18,3,0,0,0,0,[0],1,29,"[1, 2, 3, 4, 5, 6, 7, 8, 9, 10, 11, 12, 13, 14, 15, 16, 17, 18, 19, 20, 21, 22, 23, 24, 25, 26, 27, 28, 29]",300,364,-1,34,427,10,0.0
basic,18,3,0,0,0,7,"[0, 7]",2,28,"[1, 2, 3, 4, 5, 6, 8, 9, 10, 11, 12, 13, 14, 15, 16, 17, 18, 19, 20, 21, 22, 23, 24, 25, 26, 27, 28, 29]",278.8103799,10523,10159,24,215,10,1.0
basic,18,3,0,0,0,8,"[0, 7, 8]",3,24,"[1, 2, 3, 4, 5, 6, 10, 11, 12, 13, 14, 15, 16, 17, 18, 19, 20, 21, 22, 24, 25, 26, 27, 28]",222.837172,12339,1816,16,114,10,1.2853332575451413
basic,18,3,0,0,0,24,"[0, 7, 8, 24]",4,21,"[1, 3, 4, 5, 6, 10, 11, 12, 14, 15, 16, 17, 18, 19, 20, 21, 22, 25, 26, 27, 28]",210.671647,13403,1064,16,91,10,1.5177505014936548
basic,18,3,0,0,0,17,"[0, 7, 8, 24, 17]",5,9,"[3, 4, 10, 14, 15, 16, 19, 20, 21]",141.3174834,14902,1499,7,26,10,1.5510961300062232
basic,18,3,0,0,0,20,"[0, 7, 8, 24, 17, 20]",6,7,"[3, 4, 10, 14, 16, 19, 21]",128.6683728,15937,1035,7,14,10,1.5133082717474817
basic,18,3,0,0,0,3,"[0, 7, 8, 24, 17, 20, 3]",7,5,"[4, 10, 14, 19, 21]",108.2722947,17239,1302,7,4,10,1.5325960555943097
basic,18,3,0,0,0,19,"[0, 7, 8, 24, 17, 20, 3, 19]",8,3,"[10, 14, 21]",70.93598532,18382,1143,3,1,10,1.5521294182529992
basic,18,3,0,0,0,21,"[0, 7, 8, 24, 17, 20, 3, 19, 21]",9,2,"[10, 14]",58.72942971,20017,1635,2,0,10,1.5690424431931145
basic,18,3,0,0,1,14,"[0, 7, 8, 24, 17, 20, 3, 19, 21, 14]",10,0,[],31.82218161,22412,2395,1,0,10,2.0836613372745463
basic,18,3,0,1,1,14,"[0, 7, 8, 24, 17, 20, 3, 19, 21, 14]",10,0,[],31.82218161,24431,2019,1,0,10,2.0836613372745463
basic,19,34,0,0,0,0,[0],1,25,"[1, 3, 4, 5, 6, 7, 8, 9, 10, 11, 12, 13, 15, 18, 19, 20, 21, 22, 23, 24, 25, 26, 27, 28, 29]",300,361,-1,12,367,10,0.0
basic,19,34,0,0,0,13,"[0, 13]",2,24,"[1, 3, 4, 5, 6, 7, 8, 9, 10, 11, 12, 15, 18, 19, 20, 21, 22, 23, 24, 25, 26, 27, 28, 29]",279.9750156,3783,3422,12,331,10,1.0
basic,19,34,0,0,0,1,"[0, 13, 1]",3,16,"[3, 5, 7, 8, 9, 10, 11, 12, 19, 21, 22, 23, 24, 25, 27, 29]",211.8574701,5015,1232,3,92,10,1.0010381285747127
basic,19,34,0,0,0,8,"[0, 13, 1, 8]",4,14,"[3, 5, 7, 9, 10, 11, 12, 19, 22, 23, 24, 25, 27, 29]",201.0871405,6120,1105,2,54,10,1.1636807
basic,19,34,0,0,0,25,"[0, 13, 1, 8, 25]",5,12,"[3, 5, 7, 9, 10, 11, 12, 22, 23, 24, 27, 29]",183.999133,7112,992,2,28,10,1.1396208815936457
basic,19,34,0,0,0,24,"[0, 13, 1, 8, 25, 24]",6,11,"[3, 5, 7, 9, 10, 11, 12, 22, 23, 27, 29]",166.5062774,8129,1017,2,23,10,1.374180768736554
basic,19,34,0,0,0,12,"[0, 13, 1, 8, 25, 24, 12]",7,7,"[7, 9, 10, 11, 22, 23, 27]",115.4670767,11378,3249,1,8,10,1.4994254760835948
basic,19,34,0,0,0,7,"[0, 13, 1, 8, 25, 24, 12, 7]",8,5,"[9, 11, 22, 23, 27]",100.4337804,12190,812,1,4,10,1.758992610425009
basic,19,34,0,0,0,23,"[0, 13, 1, 8, 25, 24, 12, 7, 23]",9,1,[27],72.27352467,13439,1249,1,0,10,2.399781305190153
basic,19,34,0,0,1,27,"[0, 13, 1, 8, 25, 24, 12, 7, 23, 27]",10,0,[],18.60789321,15125,1686,1,0,10,4.766619878750327
basic,19,34,0,1,1,27,"[0, 13, 1, 8, 25, 24, 12, 7, 23, 27]",10,0,[],18.60789321,16075,950,1,0,10,4.766619878750327
basic,20,45,0,0,0,0,[0],1,24,"[1, 2, 3, 4, 5, 6, 7, 9, 10, 11, 12, 14, 15, 16, 17, 19, 20, 21, 22, 23, 24, 25, 27, 29]",300,378,-1,6,248,10,0.0
basic,20,45,0,0,0,24,"[0, 24]",2,21,"[1, 2, 3, 4, 5, 6, 7, 9, 10, 11, 12, 14, 15, 16, 17, 19, 20, 21, 22, 23, 29]",196.9951457,12822,12444,1,43,9,1.0
basic,20,45,0,0,0,7,"[0, 24, 7]",3,19,"[1, 2, 3, 4, 5, 6, 9, 10, 12, 14, 15, 16, 17, 19, 20, 21, 22, 23, 29]",162.5858447,14106,1284,1,42,9,1.0357393210597021
basic,20,45,0,0,0,2,"[0, 24, 7, 2]",4,13,"[3, 4, 6, 10, 12, 14, 16, 17, 19, 20, 22, 23, 29]",124.5726891,15337,1231,1,30,9,1.046641971869327
basic,20,45,0,0,0,3,"[0, 24, 7, 2, 3]",5,8,"[6, 10, 12, 14, 16, 20, 22, 29]",99.25471126,16452,1115,1,16,9,1.1190573442377925
basic,20,45,0,0,0,29,"[0, 24, 7, 2, 3, 29]",6,5,"[6, 10, 12, 20, 22]",79.25471126,17583,1131,1,7,9,1.3705865244509003
basic,20,45,0,0,0,10,"[0, 24, 7, 2, 3, 29, 10]",7,3,"[6, 12, 20]",57.71405203,18718,1135,1,2,9,1.6465662811951463
basic,20,45,0,0,0,6,"[0, 24, 7, 2, 3, 29, 10, 6]",8,1,[12],31.46524253,19815,1097,1,0,9,1.559115645747125
basic,20,45,0,0,1,12,"[0, 24, 7, 2, 3, 29, 10, 6, 12]",9,0,[],11.34063073,20814,999,1,0,9,1.519259838263158
basic,20,45,0,1,1,12,"[0, 24, 7, 2, 3, 29, 10, 6, 12]",9,0,[],11.34063073,23117,2303,1,0,9,1.519259838263158
basic,21,1,0,0,0,0,[0],1,26,"[1, 2, 4, 5, 7, 8, 9, 10, 11, 12, 13, 14, 15, 16, 17, 18, 19, 20, 21, 22, 23, 24, 25, 26, 28, 29]",300,452,-1,6,74,7,0.0
basic,21,1,0,0,0,14,"[0, 14]",2,19,"[1, 4, 5, 8, 9, 13, 15, 17, 18, 19, 20, 21, 22, 23, 24, 25, 26, 28, 29]",200.1901808,19183,18731,5,42,7,1.0
basic,21,1,0,0,0,17,"[0, 14, 17]",3,15,"[1, 4, 5, 8, 9, 13, 15, 18, 19, 20, 22, 23, 25, 28, 29]",147.8356204,20482,1299,5,27,7,1.0028844724416826
basic,21,1,0,0,0,1,"[0, 14, 17, 1]",4,12,"[4, 5, 8, 9, 15, 18, 20, 22, 23, 25, 28, 29]",123.4840291,21569,1087,5,15,7,1.0264985578353567
basic,21,1,0,0,0,28,"[0, 14, 17, 1, 28]",5,5,"[9, 15, 22, 23, 29]",88.59850198,23096,1527,5,3,7,1.0339861575999345
basic,21,1,0,0,0,15,"[0, 14, 17, 1, 28, 15]",6,3,"[22, 23, 29]",53.37067208,27874,4778,3,0,7,1.055553419196412
basic,21,1,0,0,1,22,"[0, 14, 17, 1, 28, 15, 22]",7,0,[],10.09250206,29090,1216,1,0,7,1.0469795997475408
basic,21,1,0,1,1,22,"[0, 14, 17, 1, 28, 15, 22]",7,0,[],10.09250206,30730,1640,1,0,7,1.0469795997475408
basic,22,2,0,0,0,0,[0],1,23,"[1, 2, 4, 5, 6, 7, 8, 9, 12, 13, 15, 16, 17, 18, 19, 20, 22, 23, 25, 26, 27, 28, 29]",300,326,-1,70,620,10,0.0
basic,22,2,0,0,0,12,"[0, 12]",2,19,"[1, 2, 4, 5, 6, 7, 13, 15, 16, 17, 18, 19, 20, 22, 25, 26, 27, 28, 29]",186.8275652,10626,10300,3,169,10,1.0
basic,22,2,0,0,0,5,"[0, 12, 5]",3,14,"[1, 4, 6, 7, 13, 15, 16, 18, 19, 22, 25, 26, 28, 29]",157.2979191,11577,951,2,88,10,1.0082498134695237
basic,22,2,0,0,0,22,"[0, 12, 5, 22]",4,11,"[1, 6, 7, 13, 15, 18, 19, 25, 26, 28, 29]",144.4916706,12492,915,1,45,10,1.0077567572950326
basic,22,2,0,0,0,13,"[0, 12, 5, 22, 13]",5,9,"[1, 6, 7, 15, 18, 19, 25, 26, 29]",129.6256019,13422,930,1,39,10,1.151783231594989
basic,22,2,0,0,0,18,"[0, 12, 5, 22, 13, 18]",6,4,"[7, 15, 26, 29]",94.45459106,14686,1264,1,14,10,1.1431544953850095
basic,22,2,0,0,0,7,"[0, 12, 5, 22, 13, 18, 7]",7,3,"[15, 26, 29]",84.15896092,15636,950,1,4,10,1.1360054688421053
basic,22,2,0,0,0,26,"[0, 12, 5, 22, 13, 18, 7, 26]",8,2,"[15, 29]",61.35545242,16837,1201,1,1,10,1.1290531198668372
basic,22,2,0,0,0,15,"[0, 12, 5, 22, 13, 18, 7, 26, 15]",9,1,[29],37.14801554,18117,1280,1,0,10,1.395427297339814
basic,22,2,0,0,1,29,"[0, 12, 5, 22, 13, 18, 7, 26, 15, 29]",10,0,[],8.687516603,20349,2232,1,0,10,1.5868802136739162
basic,22,2,0,1,1,29,"[0, 12, 5, 22, 13, 18, 7, 26, 15, 29]",10,0,[],8.687516603,22102,1753,1,0,10,1.5868802136739162
undo,23,39,0,0,0,0,[0],1,28,"[1, 2, 3, 4, 5, 6, 7, 9, 10, 11, 12, 13, 14, 15, 16, 17, 18, 19, 20, 21, 22, 23, 24, 25, 26, 27, 28, 29]",300,450,-1,1,30,10,0.0
undo,23,39,0,0,0,29,"[0, 29]",2,26,"[1, 2, 3, 4, 5, 6, 7, 9, 10, 12, 13, 14, 15, 16, 17, 18, 19, 20, 21, 22, 23, 24, 25, 26, 27, 28]",243.0614366,5250,4800,8,104,9,1.0
undo,23,39,0,0,0,10,"[0, 29, 10]",3,19,"[1, 2, 4, 5, 7, 9, 12, 13, 14, 15, 16, 17, 18, 19, 22, 23, 24, 26, 28]",178.4239862,6980,1730,3,48,9,1.0231293692376968
undo,23,39,0,0,0,7,"[0, 29, 10, 7]",4,14,"[1, 2, 4, 5, 9, 12, 13, 15, 16, 18, 19, 22, 24, 26]",145.0024362,9528,2548,2,20,9,1.0186411966151707
undo,23,39,0,0,0,26,"[0, 29, 10, 7, 26]",5,9,"[1, 2, 5, 12, 13, 16, 18, 19, 22]",126.3208945,10559,1031,1,9,9,1.0752526811750318
undo,23,39,0,0,0,22,"[0, 29, 10, 7, 26, 22]",6,6,"[1, 5, 12, 16, 18, 19]",108.6008494,13111,2552,1,3,9,1.2360944063790367
undo,23,39,0,0,0,16,"[0, 29, 10, 7, 26, 22, 16]",7,2,"[18, 19]",73.6008494,14687,1576,1,1,9,1.1926155792040818
undo,23,39,0,0,0,19,"[0, 29, 10, 7, 26, 22, 16, 19]",8,1,[18],56.1366002,15540,853,1,0,9,1.2089345217410772
undo,23,39,0,0,1,18,"[0, 29, 10, 7, 26, 22, 16, 19, 18]",9,0,[],12.96253391,17219,1679,1,0,9,1.2243548998729528
undo,23,39,0,1,1,18,"[0, 29, 10, 7, 26, 22, 16, 19, 18]",9,0,[],12.96253391,19738,2519,1,0,9,1.2243548998729528
undo,24,13,0,0,0,0,[0],1,29,"[1, 2, 3, 4, 5, 6, 7, 8, 9, 10, 11, 12, 13, 14, 15, 16, 17, 18, 19, 20, 21, 22, 23, 24, 25, 26, 27, 28, 29]",300,364,-1,60,2676,11,0.0
undo,24,13,0,0,0,2,"[0, 2]",2,21,"[1, 3, 4, 6, 7, 9, 11, 12, 13, 15, 16, 17, 19, 20, 21, 23, 24, 26, 27, 28, 29]",190.4098545,13274,12910,11,426,9,1.0
undo,24,13,0,0,0,29,"[0, 2, 29]",3,20,"[1, 3, 4, 6, 7, 9, 11, 12, 13, 15, 16, 17, 19, 20, 21, 23, 24, 26, 27, 28]",178.7051545,15240,1966,11,235,9,1.0897433291549143
undo,24,13,0,0,0,7,"[0, 2, 29, 7]",4,19,"[1, 3, 4, 6, 9, 11, 12, 13, 15, 16, 17, 19, 20, 21, 23, 24, 26, 27, 28]",163.440817,16635,1395,8,106,9,1.2973316986214314
undo,24,13,0,0,0,26,"[0, 2, 29, 7, 26]",5,18,"[1, 3, 4, 6, 9, 11, 12, 13, 15, 16, 17, 19, 20, 21, 23, 24, 27, 28]",153.0005105,17768,1133,8,52,9,1.5365054157153946
undo,24,13,0,0,0,6,"[0, 2, 29, 7, 26, 6]",6,14,"[1, 3, 4, 11, 13, 15, 16, 17, 19, 20, 23, 24, 27, 28]",132.9007593,19499,1731,6,21,9,1.538990690005532
undo,24,13,0,0,0,16,"[0, 2, 29, 7, 26, 6, 16]",7,5,"[3, 4, 20, 23, 27]",59.34805708,21719,2220,2,4,9,2.6143923805191838
undo,24,13,0,0,0,3,"[0, 2, 29, 7, 26, 6, 16, 3]",8,2,"[4, 20]",30.90513177,23494,1775,2,0,9,2.642506336866217
undo,24,13,1,0,0,16,"[0, 2, 29, 7, 26, 6, 16]",7,5,"[3, 4, 20, 23, 27]",59.34805708,27013,3519,2,4,9,2.6143923805191838
undo,24,13,1,0,0,6,"[0, 2, 29, 7, 26, 6]",6,14,"[1, 3, 4, 11, 13, 15, 16, 17, 19, 20, 23, 24, 27, 28]",132.9007593,27296,283,6,21,9,1.538990690005532
undo,24,13,1,0,0,26,"[0, 2, 29, 7, 26]",5,18,"[1, 3, 4, 6, 9, 11, 12, 13, 15, 16, 17, 19, 20, 21, 23, 24, 27, 28]",153.0005105,27529,233,8,52,9,1.5365054157153946
undo,24,13,1,0,0,7,"[0, 2, 29, 7]",4,19,"[1, 3, 4, 6, 9, 11, 12, 13, 15, 16, 17, 19, 20, 21, 23, 24, 26, 27, 28]",163.440817,27729,200,8,106,9,1.2973316986214314
undo,24,13,1,0,0,29,"[0, 2, 29]",3,20,"[1, 3, 4, 6, 7, 9, 11, 12, 13, 15, 16, 17, 19, 20, 21, 23, 24, 26, 27, 28]",178.7051545,28028,299,11,235,9,1.0897433291549143
undo,24,13,1,0,0,2,"[0, 2]",2,21,"[1, 3, 4, 6, 7, 9, 11, 12, 13, 15, 16, 17, 19, 20, 21, 23, 24, 26, 27, 28, 29]",190.4098545,28295,267,11,426,9,1.0
undo,24,13,1,0,0,0,[0],1,29,"[1, 2, 3, 4, 5, 6, 7, 8, 9, 10, 11, 12, 13, 14, 15, 16, 17, 18, 19, 20, 21, 22, 23, 24, 25, 26, 27, 28, 29]",300,28861,566,60,2676,11,0.0
undo,24,13,0,0,0,24,"[0, 24]",2,28,"[1, 2, 3, 4, 5, 6, 7, 8, 9, 10, 11, 12, 13, 14, 15, 16, 17, 18, 19, 20, 21, 22, 23, 25, 26, 27, 28, 29]",288.8196601,32236,3375,16,1444,11,1.0
undo,24,13,0,0,0,28,"[0, 24, 28]",3,23,"[1, 2, 3, 4, 6, 7, 8, 9, 10, 11, 12, 13, 15, 16, 17, 19, 20, 21, 22, 23, 26, 27, 29]",222.5324064,33980,1744,8,243,11,1.0513810491680837
undo,24,13,0,0,0,2,"[0, 24, 28, 2]",4,19,"[1, 3, 4, 6, 7, 9, 11, 12, 13, 15, 16, 17, 19, 20, 21, 23, 26, 27, 29]",184.889346,35232,1252,7,110,11,1.050374132001543
undo,24,13,0,0,0,29,"[0, 24, 28, 2, 29]",5,18,"[1, 3, 4, 6, 7, 9, 11, 12, 13, 15, 16, 17, 19, 20, 21, 23, 26, 27]",173.1846461,36997,1765,7,85,11,1.1393409619120594
undo,24,13,0,0,0,7,"[0, 24, 28, 2, 29, 7]",6,17,"[1, 3, 4, 6, 9, 11, 12, 13, 15, 16, 17, 19, 20, 21, 23, 26, 27]",157.9203086,38778,1781,5,45,11,1.349777315111579
undo,24,13,0,0,0,26,"[0, 24, 28, 2, 29, 7, 26]",7,16,"[1, 3, 4, 6, 9, 11, 12, 13, 15, 16, 17, 19, 20, 21, 23, 27]",147.480002,40161,1383,5,25,11,1.5942082773824946
undo,24,13,0,0,0,16,"[0, 24, 28, 2, 29, 7, 26, 16]",8,5,"[3, 4, 20, 23, 27]",67.06856007,42344,2183,3,3,10,2.5305184506189318
undo,24,13,0,0,0,3,"[0, 24, 28, 2, 29, 7, 26, 16, 3]",9,2,"[4, 20]",38.62563477,44305,1961,2,0,10,2.5666911485815525
undo,24,13,1,0,0,16,"[0, 24, 28, 2, 29, 7, 26, 16]",8,5,"[3, 4, 20, 23, 27]",67.06856007,50021,5716,3,3,10,2.5305184506189318
undo,24,13,1,0,0,26,"[0, 24, 28, 2, 29, 7, 26]",7,16,"[1, 3, 4, 6, 9, 11, 12, 13, 15, 16, 17, 19, 20, 21, 23, 27]",147.480002,50571,550,5,25,11,1.5942082773824946
undo,24,13,0,0,0,6,"[0, 24, 28, 2, 29, 7, 26, 6]",8,12,"[1, 3, 4, 11, 13, 15, 16, 17, 19, 20, 23, 27]",127.3802508,52648,2077,4,12,11,1.5898347940840756
undo,24,13,0,0,0,16,"[0, 24, 28, 2, 29, 7, 26, 6, 16]",9,3,"[3, 20, 23]",53.82754861,57126,4478,1,2,11,2.6743660300373904
undo,24,13,0,0,0,3,"[0, 24, 28, 2, 29, 7, 26, 6, 16, 3]",10,1,[20],25.3846233,58771,1645,1,0,11,2.696717621944423
undo,24,13,0,0,1,20,"[0, 24, 28, 2, 29, 7, 26, 6, 16, 3, 20]",11,0,[],6.358325711,60222,1451,1,0,11,2.6690286409584245
undo,24,13,0,1,1,20,"[0, 24, 28, 2, 29, 7, 26, 6, 16, 3, 20]",11,0,[],6.358325711,62856,2634,1,0,11,2.6690286409584245
undo,25,4,0,0,0,0,[0],1,26,"[3, 4, 5, 6, 7, 8, 10, 11, 12, 13, 14, 15, 16, 17, 18, 19, 20, 21, 22, 23, 24, 25, 26, 27, 28, 29]",300,363,-1,4,489,10,0.0
undo,25,4,0,0,0,13,"[0, 13]",2,23,"[3, 4, 5, 6, 7, 10, 11, 12, 14, 15, 16, 17, 19, 20, 21, 22, 23, 24, 25, 26, 27, 28, 29]",232.1030192,10605,10242,2,270,10,1.0
undo,25,4,0,0,0,21,"[0, 13, 21]",3,15,"[3, 4, 5, 6, 11, 12, 14, 16, 17, 20, 22, 24, 25, 26, 28]",151.3255471,12144,1539,5,109,9,1.0059127769187233
undo,25,4,0,0,0,22,"[0, 13, 21, 22]",4,13,"[3, 4, 5, 11, 12, 14, 16, 17, 20, 24, 25, 26, 28]",140.2801861,13554,1410,5,77,9,1.0066796920537646
undo,25,4,0,0,0,17,"[0, 13, 21, 22, 17]",5,7,"[3, 5, 11, 14, 16, 20, 25]",89.68374353,15102,1548,1,16,9,1.283060370513767
undo,25,4,0,0,0,16,"[0, 13, 21, 22, 17, 16]",6,5,"[3, 11, 14, 20, 25]",63.60693391,16250,1148,1,4,9,1.7149304222356567
undo,25,4,0,0,0,11,"[0, 13, 21, 22, 17, 16, 11]",7,2,"[14, 25]",48.60693391,17266,1016,1,1,9,2.045943255409013
undo,25,4,0,0,0,25,"[0, 13, 21, 22, 17, 16, 11, 25]",8,1,[14],29.81863968,18565,1299,1,0,9,2.130584964989508
undo,25,4,0,0,1,14,"[0, 13, 21, 22, 17, 16, 11, 25, 14]",9,0,[],13.69412418,20048,1483,1,0,9,2.096536784246053
undo,25,4,0,1,1,14,"[0, 13, 21, 22, 17, 16, 11, 25, 14]",9,0,[],13.69412418,25046,4998,1,0,9,2.096536784246053
undo,26,12,0,0,0,0,[0],1,29,"[1, 2, 3, 4, 5, 6, 7, 8, 9, 10, 11, 12, 13, 14, 15, 16, 17, 18, 19, 20, 21, 22, 23, 24, 25, 26, 27, 28, 29]",300,365,-1,2,32,9,0.0
undo,26,12,0,0,0,6,"[0, 6]",2,28,"[1, 2, 3, 4, 5, 7, 8, 9, 10, 11, 12, 13, 14, 15, 16, 17, 18, 19, 20, 21, 22, 23, 24, 25, 26, 27, 28, 29]",283.5987805,9581,9216,2,18,9,1.0
undo,26,12,0,0,0,18,"[0, 6, 18]",3,10,"[1, 2, 3, 5, 7, 9, 11, 15, 17, 21]",144.5088815,10974,1393,6,15,7,1.0360320431021144
undo,26,12,0,0,0,21,"[0, 6, 18, 21]",4,7,"[1, 3, 5, 9, 11, 15, 17]",128.230061,12006,1032,4,5,7,1.049996564847597
undo,26,12,0,0,0,15,"[0, 6, 18, 21, 15]",5,3,"[1, 11, 17]",73.1573817,14568,2562,4,0,7,1.2004943839605104
undo,26,12,0,0,0,17,"[0, 6, 18, 21, 15, 17]",6,2,"[1, 11]",56.6649592,15902,1334,2,0,7,1.2468231791823723
undo,26,12,1,0,0,15,"[0, 6, 18, 21, 15]",5,3,"[1, 11, 17]",73.1573817,21251,5349,4,0,7,1.2004943839605104
undo,26,12,1,0,0,21,"[0, 6, 18, 21]",4,7,"[1, 3, 5, 9, 11, 15, 17]",128.230061,21535,284,4,5,7,1.049996564847597
undo,26,12,1,0,0,18,"[0, 6, 18]",3,10,"[1, 2, 3, 5, 7, 9, 11, 15, 17, 21]",144.5088815,21752,217,6,15,7,1.0360320431021144
undo,26,12,1,0,0,6,"[0, 6]",2,28,"[1, 2, 3, 4, 5, 7, 8, 9, 10, 11, 12, 13, 14, 15, 16, 17, 18, 19, 20, 21, 22, 23, 24, 25, 26, 27, 28, 29]",283.5987805,22117,365,2,18,9,1.0
undo,26,12,1,0,0,0,[0],1,29,"[1, 2, 3, 4, 5, 6, 7, 8, 9, 10, 11, 12, 13, 14, 15, 16, 17, 18, 19, 20, 21, 22, 23, 24, 25, 26, 27, 28, 29]",300,22733,616,2,32,9,0.0
undo,26,12,0,0,0,22,"[0, 22]",2,22,"[2, 4, 5, 6, 7, 9, 10, 12, 13, 14, 15, 16, 17, 18, 19, 21, 23, 24, 25, 27, 28, 29]",211.9943184,29337,6604,6,42,8,1.0
undo,26,12,0,0,0,16,"[0, 22, 16]",3,12,"[2, 4, 5, 6, 7, 12, 14, 19, 23, 24, 25, 27]",190.9943184,30585,1248,6,24,8,1.2017164145167045
undo,26,12,0,0,0,4,"[0, 22, 16, 4]",4,9,"[2, 6, 7, 12, 14, 19, 24, 25, 27]",156.7890556,32968,2383,6,14,8,1.146531713305579
undo,26,12,0,0,0,12,"[0, 22, 16, 4, 12]",5,4,"[14, 19, 24, 27]",114.5990094,33915,947,4,3,8,1.1221389456954312
undo,26,12,0,0,0,27,"[0, 22, 16, 4, 12, 27]",6,3,"[14, 19, 24]",90.24741807,35313,1398,2,1,8,1.2262878338287035
undo,26,12,0,0,0,14,"[0, 22, 16, 4, 12, 27, 14]",7,1,[24],61.59432051,36611,1298,1,0,8,1.2804562106751427
undo,26,12,0,0,1,24,"[0, 22, 16, 4, 12, 27, 14, 24]",8,0,[],44.38966997,42841,6230,1,0,8,1.4322660007679802
undo,26,12,0,1,1,24,"[0, 22, 16, 4, 12, 27, 14, 24]",8,0,[],44.38966997,43926,1085,1,0,8,1.4322660007679802
undo,27,14,0,0,0,0,[0],1,29,"[1, 2, 3, 4, 5, 6, 7, 8, 9, 10, 11, 12, 13, 14, 15, 16, 17, 18, 19, 20, 21, 22, 23, 24, 25, 26, 27, 28, 29]",300,361,-1,8,157,10,0.0
undo,27,14,0,0,0,18,"[0, 18]",2,17,"[1, 2, 3, 4, 7, 8, 9, 13, 15, 17, 19, 20, 22, 23, 25, 26, 28]",179.8958785,5950,5589,18,136,9,1.0
undo,27,14,0,0,0,8,"[0, 18, 8]",3,13,"[1, 2, 4, 7, 13, 15, 17, 19, 20, 23, 25, 26, 28]",166.294408,7149,1199,18,99,9,1.0203858410107731
undo,27,14,0,0,0,1,"[0, 18, 8, 1]",4,10,"[2, 4, 7, 15, 17, 19, 23, 25, 26, 28]",142.6935606,7995,846,11,42,9,1.0173392374431458
undo,27,14,0,0,0,19,"[0, 18, 8, 1, 19]",5,9,"[2, 4, 7, 15, 17, 23, 25, 26, 28]",127.4620143,10788,2793,11,22,9,1.1668364376922102
undo,27,14,0,0,0,25,"[0, 18, 8, 1, 19, 25]",6,5,"[2, 4, 7, 23, 26]",91.61511768,13456,2668,5,7,9,1.273103293863789
undo,27,14,0,0,0,23,"[0, 18, 8, 1, 19, 25, 23]",7,3,"[4, 7, 26]",62.20423534,15302,1846,2,2,9,1.2650679654635444
undo,27,14,0,0,0,26,"[0, 18, 8, 1, 19, 25, 23, 26]",8,2,"[4, 7]",51.38758152,17173,1871,2,0,9,1.2530957004441798
undo,27,14,0,0,1,4,"[0, 18, 8, 1, 19, 25, 23, 26, 4]",9,0,[],1.138203413,18797,1624,1,0,9,1.424686766189969
undo,27,14,0,1,1,4,"[0, 18, 8, 1, 19, 25, 23, 26, 4]",9,0,[],1.138203413,21069,2272,1,0,9,1.424686766189969
undo,28,18,0,0,0,0,[0],1,28,"[1, 2, 3, 4, 5, 6, 7, 8, 9, 10, 11, 12, 13, 14, 16, 17, 18, 19, 20, 21, 22, 23, 24, 25, 26, 27, 28, 29]",300,377,-1,3,136,10,0.0
undo,28,18,0,0,0,28,"[0, 28]",2,16,"[1, 3, 5, 7, 8, 9, 12, 13, 14, 16, 20, 23, 24, 25, 26, 27]",236.4311397,8199,7822,2,19,10,1.0
undo,28,18,0,0,0,7,"[0, 28, 7]",3,15,"[1, 3, 5, 8, 9, 12, 13, 14, 16, 20, 23, 24, 25, 26, 27]",214.4084242,9449,1250,2,17,10,1.4345180696367563
undo,28,18,0,0,0,25,"[0, 28, 7, 25]",4,13,"[1, 3, 5, 8, 9, 12, 13, 14, 16, 20, 23, 26, 27]",186.6055466,10763,1314,2,15,10,1.8896451241781882
undo,28,18,0,0,0,8,"[0, 28, 7, 25, 8]",5,10,"[3, 5, 9, 12, 13, 14, 16, 23, 26, 27]",149.551532,12824,2061,2,10,10,1.590467437592877
undo,28,18,0,0,0,3,"[0, 28, 7, 25, 8, 3]",6,6,"[5, 12, 13, 14, 23, 27]",121.4801943,15373,2549,1,10,9,1.4587755974793148
undo,28,18,0,0,0,5,"[0, 28, 7, 25, 8, 3, 5]",7,2,"[12, 27]",63.29944145,16587,1214,1,1,9,1.324334937860345
undo,28,18,0,0,0,12,"[0, 28, 7, 25, 8, 3, 5, 12]",8,1,[27],51.8976872,17668,1081,1,0,9,1.3371922112868397
undo,28,18,0,0,1,27,"[0, 28, 7, 25, 8, 3, 5, 12, 27]",9,0,[],11.17914106,19218,1550,1,0,9,1.4648883530615529
undo,28,18,0,1,1,27,"[0, 28, 7, 25, 8, 3, 5, 12, 27]",9,0,[],11.17914106,20222,1004,1,0,9,1.4648883530615529
undo,29,38,0,0,0,0,[0],1,29,"[1, 2, 3, 4, 5, 6, 7, 8, 9, 10, 11, 12, 13, 14, 15, 16, 17, 18, 19, 20, 21, 22, 23, 24, 25, 26, 27, 28, 29]",300,365,-1,33,506,9,0.0
undo,29,38,0,0,0,19,"[0, 19]",2,23,"[3, 4, 5, 6, 7, 8, 9, 11, 13, 14, 15, 16, 17, 18, 20, 22, 23, 24, 25, 26, 27, 28, 29]",219.5015528,15703,15338,6,61,9,1.0
undo,29,38,0,0,0,17,"[0, 19, 17]",3,21,"[3, 4, 5, 6, 7, 9, 11, 13, 14, 15, 16, 18, 20, 22, 23, 24, 25, 26, 27, 28, 29]",198.1239945,18402,2699,6,53,9,1.571793785769489
undo,29,38,0,0,0,20,"[0, 19, 17, 20]",4,17,"[3, 4, 5, 6, 7, 11, 13, 14, 15, 16, 18, 22, 24, 25, 26, 27, 28]",174.3542658,19407,1005,6,44,9,2.333182710277297
undo,29,38,0,0,0,15,"[0, 19, 17, 20, 15]",5,9,"[4, 5, 11, 13, 14, 16, 24, 26, 28]",118.8925673,20932,1525,10,14,8,2.468219326855957
undo,29,38,0,0,0,4,"[0, 19, 17, 20, 15, 4]",6,6,"[11, 13, 16, 24, 26, 28]",92.89256734,22513,1581,4,3,8,2.953858913055544
undo,29,38,0,0,0,13,"[0, 19, 17, 20, 15, 4, 13]",7,1,[26],61.4919304,24179,1666,1,0,8,2.4401159229489866
undo,29,38,0,0,1,26,"[0, 19, 17, 20, 15, 4, 13, 26]",8,0,[],30.44358101,25378,1199,1,0,8,2.1410906006451786
undo,29,38,1,0,0,13,"[0, 19, 17, 20, 15, 4, 13]",7,1,[26],61.4919304,31026,5648,1,0,8,2.4401159229489866
undo,29,38,1,0,0,4,"[0, 19, 17, 20, 15, 4]",6,6,"[11, 13, 16, 24, 26, 28]",92.89256734,31492,466,4,3,8,2.953858913055544
undo,29,38,1,0,0,15,"[0, 19, 17, 20, 15]",5,9,"[4, 5, 11, 13, 14, 16, 24, 26, 28]",118.8925673,32225,733,10,14,8,2.468219326855957
undo,29,38,0,0,0,11,"[0, 19, 17, 20, 15, 11]",6,4,"[4, 14, 16, 28]",82.49201789,34137,1912,3,2,8,2.722041540075911
undo,29,38,0,0,0,28,"[0, 19, 17, 20, 15, 11, 28]",7,2,"[14, 16]",55.47350572,37930,3793,2,0,8,2.2896983791927568
undo,29,38,0,0,1,16,"[0, 19, 17, 20, 15, 11, 28, 16]",8,0,[],26.47350572,39310,1380,1,0,8,2.4998620588925267
undo,29,38,1,0,0,28,"[0, 19, 17, 20, 15, 11, 28]",7,2,"[14, 16]",55.47350572,44910,5600,2,0,8,2.2896983791927568
undo,29,38,1,0,0,11,"[0, 19, 17, 20, 15, 11]",6,4,"[4, 14, 16, 28]",82.49201789,45476,566,3,2,8,2.722041540075911
undo,29,38,1,0,0,15,"[0, 19, 17, 20, 15]",5,9,"[4, 5, 11, 13, 14, 16, 24, 26, 28]",118.8925673,45876,400,10,14,8,2.468219326855957
undo,29,38,1,0,0,20,"[0, 19, 17, 20]",4,17,"[3, 4, 5, 6, 7, 11, 13, 14, 15, 16, 18, 22, 24, 25, 26, 27, 28]",174.3542658,46576,700,6,44,9,2.333182710277297
undo,29,38,0,0,0,11,"[0, 19, 17, 20, 11]",5,7,"[4, 5, 13, 14, 15, 16, 28]",89.6370893,48067,1491,9,3,7,2.6326232989789347
undo,29,38,0,0,0,16,"[0, 19, 17, 20, 11, 16]",6,2,"[15, 28]",52.6370893,51880,3813,2,0,7,2.2607431754056777
undo,29,38,0,0,1,15,"[0, 19, 17, 20, 11, 16, 15]",7,0,[],11.01978521,53945,2065,1,0,7,3.938361560263361
undo,29,38,1,0,0,16,"[0, 19, 17, 20, 11, 16]",6,2,"[15, 28]",52.6370893,55881,1936,2,0,7,2.2607431754056777
undo,29,38,1,0,0,11,"[0, 19, 17, 20, 11]",5,7,"[4, 5, 13, 14, 15, 16, 28]",89.6370893,56197,316,9,3,7,2.6326232989789347
undo,29,38,1,0,0,20,"[0, 19, 17, 20]",4,17,"[3, 4, 5, 6, 7, 11, 13, 14, 15, 16, 18, 22, 24, 25, 26, 27, 28]",174.3542658,57330,1133,6,44,9,2.333182710277297
undo,29,38,0,0,0,4,"[0, 19, 17, 20, 4]",5,10,"[5, 11, 13, 14, 15, 16, 24, 26, 27, 28]",140.4131403,59407,2077,5,22,9,2.276099229646013
undo,29,38,0,0,0,15,"[0, 19, 17, 20, 4, 15]",6,8,"[5, 11, 13, 14, 16, 24, 26, 28]",114.4131403,61952,2545,5,6,9,2.5292671156176403
undo,29,38,0,0,0,11,"[0, 19, 17, 20, 4, 15, 11]",7,2,"[16, 28]",78.01259089,64183,2231,2,0,9,2.778100109749787
undo,29,38,1,0,0,15,"[0, 19, 17, 20, 4, 15]",6,8,"[5, 11, 13, 14, 16, 24, 26, 28]",114.4131403,69067,4884,5,6,9,2.5292671156176403
undo,29,38,0,0,0,11,"[0, 19, 17, 20, 4, 15, 11]",7,2,"[16, 28]",78.01259089,73538,4471,2,0,9,2.778100109749787
undo,29,38,0,0,0,28,"[0, 19, 17, 20, 4, 15, 11, 28]",8,1,[16],50.99407872,75256,1718,1,0,9,2.3316428595723258
undo,29,38,0,1,0,28,"[0, 19, 17, 20, 4, 15, 11, 28]",8,1,[16],50.99407872,77274,2018,1,0,9,2.3316428595723258
undo,30,28,0,0,0,0,[0],1,27,"[1, 2, 3, 4, 5, 6, 7, 8, 9, 10, 11, 12, 13, 14, 15, 16, 17, 18, 19, 20, 22, 23, 25, 26, 27, 28, 29]",300,369,-1,2,96,9,0.0
undo,30,28,0,0,0,14,"[0, 14]",2,14,"[1, 2, 3, 5, 7, 10, 11, 12, 13, 17, 18, 19, 20, 26]",147.8914861,4529,4160,1,26,8,1.0
undo,30,28,1,0,0,0,[0],1,27,"[1, 2, 3, 4, 5, 6, 7, 8, 9, 10, 11, 12, 13, 14, 15, 16, 17, 18, 19, 20, 22, 23, 25, 26, 27, 28, 29]",300,10112,5583,2,96,9,0.0
undo,30,28,0,0,0,3,"[0, 3]",2,26,"[1, 2, 4, 5, 6, 7, 8, 9, 10, 11, 12, 13, 14, 15, 16, 17, 18, 19, 20, 22, 23, 25, 26, 27, 28, 29]",251.0817008,14053,3941,1,64,9,1.0
undo,30,28,0,0,0,5,"[0, 3, 5]",3,20,"[2, 4, 6, 7, 8, 9, 10, 11, 12, 13, 14, 15, 18, 19, 20, 23, 25, 26, 28, 29]",166.9865166,15633,1580,1,34,9,1.0203769473612083
undo,30,28,0,0,0,28,"[0, 3, 5, 28]",4,6,"[2, 4, 8, 9, 19, 26]",100.0761288,16982,1349,8,4,7,1.0823311089558794
undo,30,28,0,0,0,8,"[0, 3, 5, 28, 8]",5,4,"[2, 4, 9, 26]",82.27163495,17886,904,4,2,7,1.0795975941035891
undo,30,28,0,0,0,9,"[0, 3, 5, 28, 8, 9]",6,3,"[2, 4, 26]",67.138889,18796,910,3,0,7,1.131674521612193
undo,30,28,1,0,0,8,"[0, 3, 5, 28, 8]",5,4,"[2, 4, 9, 26]",82.27163495,25346,6550,4,2,7,1.0795975941035891
undo,30,28,1,0,0,28,"[0, 3, 5, 28]",4,6,"[2, 4, 8, 9, 19, 26]",100.0761288,25677,331,8,4,7,1.0823311089558794
undo,30,28,1,0,0,5,"[0, 3, 5]",3,20,"[2, 4, 6, 7, 8, 9, 10, 11, 12, 13, 14, 15, 18, 19, 20, 23, 25, 26, 28, 29]",166.9865166,26178,501,1,34,9,1.0203769473612083
undo,30,28,0,0,0,26,"[0, 3, 5, 26]",4,13,"[2, 4, 7, 8, 9, 12, 13, 14, 18, 19, 20, 25, 28]",134.2298379,27872,1694,1,28,9,1.0315203228799597
undo,30,28,0,0,0,19,"[0, 3, 5, 26, 19]",5,7,"[2, 7, 9, 12, 13, 14, 18]",93.22983789,30649,2777,1,17,9,1.1324645362297356
undo,30,28,0,0,0,7,"[0, 3, 5, 26, 19, 7]",6,5,"[2, 12, 13, 14, 18]",65.49898864,32431,1782,1,6,9,1.1971194919020265
undo,30,28,0,0,0,12,"[0, 3, 5, 26, 19, 7, 12]",7,2,"[13, 18]",52.3460422,33996,1565,1,1,9,1.2020762147848982
undo,30,28,0,0,0,13,"[0, 3, 5, 26, 19, 7, 12, 13]",8,1,[18],35.14139167,35512,1516,1,0,9,1.39005144078531
undo,30,28,0,0,1,18,"[0, 3, 5, 26, 19, 7, 12, 13, 18]",9,0,[],10.72828044,36780,1268,1,0,9,1.738787343626007
undo,30,28,0,1,1,18,"[0, 3, 5, 26, 19, 7, 12, 13, 18]",9,0,[],10.72828044,39629,2849,1,0,9,1.738787343626007
undo,31,0,0,0,0,0,[0],1,27,"[2, 3, 4, 5, 6, 7, 8, 9, 10, 11, 12, 13, 14, 15, 16, 17, 19, 20, 21, 22, 23, 24, 25, 26, 27, 28, 29]",300,375,-1,104,1136,9,0.0
undo,31,0,0,0,0,28,"[0, 28]",2,26,"[2, 3, 4, 5, 6, 7, 8, 9, 10, 11, 12, 13, 14, 15, 16, 17, 19, 20, 21, 22, 23, 24, 25, 26, 27, 29]",194.9190788,9691,9316,39,388,9,1.0
undo,31,0,0,0,0,12,"[0, 28, 12]",3,19,"[3, 4, 5, 7, 8, 9, 10, 11, 13, 14, 15, 17, 19, 20, 21, 22, 23, 24, 26]",141.7683497,11505,1814,3,43,9,1.0142012686492925
undo,31,0,0,0,0,17,"[0, 28, 12, 17]",4,15,"[3, 4, 5, 7, 8, 9, 10, 13, 14, 15, 19, 22, 23, 24, 26]",108.0340942,13393,1888,3,43,8,1.0118475378909342
undo,31,0,0,0,0,3,"[0, 28, 12, 17, 3]",5,9,"[4, 7, 8, 15, 19, 22, 23, 24, 26]",72.22906657,15302,1909,11,5,7,1.0507966655550791
undo,31,0,1,0,0,17,"[0, 28, 12, 17]",4,15,"[3, 4, 5, 7, 8, 9, 10, 13, 14, 15, 19, 22, 23, 24, 26]",108.0340942,22033,6731,3,43,8,1.0118475378909342
undo,31,0,1,0,0,12,"[0, 28, 12]",3,19,"[3, 4, 5, 7, 8, 9, 10, 11, 13, 14, 15, 17, 19, 20, 21, 22, 23, 24, 26]",141.7683497,22317,284,3,43,9,1.0142012686492925
undo,31,0,1,0,0,28,"[0, 28]",2,26,"[2, 3, 4, 5, 6, 7, 8, 9, 10, 11, 12, 13, 14, 15, 16, 17, 19, 20, 21, 22, 23, 24, 25, 26, 27, 29]",194.9190788,22584,267,39,388,9,1.0
undo,31,0,0,0,0,4,"[0, 28, 4]",3,20,"[2, 3, 5, 7, 8, 9, 11, 12, 13, 14, 15, 17, 19, 20, 21, 22, 23, 24, 25, 26]",139.0531679,25591,3007,4,65,9,1.0281466848218321
undo,31,0,0,0,0,24,"[0, 28, 4, 24]",4,17,"[2, 3, 5, 7, 8, 9, 11, 12, 14, 15, 17, 19, 20, 22, 23, 25, 26]",127.6514137,26474,883,31,122,8,1.0330651608762125
undo,31,0,0,0,0,15,"[0, 28, 4, 24, 15]",5,13,"[2, 3, 5, 7, 8, 9, 11, 12, 17, 19, 23, 25, 26]",104.3061786,27386,912,13,28,8,1.0352576570019936
undo,31,0,0,0,0,7,"[0, 28, 4, 24, 15, 7]",6,8,"[3, 8, 9, 12, 17, 19, 23, 26]",73.24172946,30822,3436,5,6,8,1.1060852669316605
undo,31,0,0,0,0,3,"[0, 28, 4, 24, 15, 7, 3]",7,3,"[8, 17, 19]",49.1585403,32366,1544,3,0,8,1.1572300533102695
undo,31,0,0,0,1,17,"[0, 28, 4, 24, 15, 7, 3, 17]",8,0,[],13.35351272,34014,1648,1,0,8,1.5109065393181549
undo,31,0,0,1,1,17,"[0, 28, 4, 24, 15, 7, 3, 17]",8,0,[],13.35351272,35735,1721,1,0,8,1.5109065393181549
undo,32,34,0,0,0,0,[0],1,25,"[1, 3, 4, 5, 6, 7, 8, 9, 10, 11, 12, 13, 15, 18, 19, 20, 21, 22, 23, 24, 25, 26, 27, 28, 29]",300,365,-1,12,367,10,0.0
undo,32,34,0,0,0,13,"[0, 13]",2,24,"[1, 3, 4, 5, 6, 7, 8, 9, 10, 11, 12, 15, 18, 19, 20, 21, 22, 23, 24, 25, 26, 27, 28, 29]",279.9750156,9244,8879,12,331,10,1.0
undo,32,34,0,0,0,1,"[0, 13, 1]",3,16,"[3, 5, 7, 8, 9, 10, 11, 12, 19, 21, 22, 23, 24, 25, 27, 29]",211.8574701,10608,1364,3,92,10,1.0010381285747127
undo,32,34,0,0,0,8,"[0, 13, 1, 8]",4,14,"[3, 5, 7, 9, 10, 11, 12, 19, 22, 23, 24, 25, 27, 29]",201.0871405,12007,1399,2,54,10,1.1636807
undo,32,34,0,0,0,25,"[0, 13, 1, 8, 25]",5,12,"[3, 5, 7, 9, 10, 11, 12, 22, 23, 24, 27, 29]",183.999133,15519,3512,2,28,10,1.1396208815936457
undo,32,34,0,0,0,24,"[0, 13, 1, 8, 25, 24]",6,11,"[3, 5, 7, 9, 10, 11, 12, 22, 23, 27, 29]",166.5062774,17102,1583,2,23,10,1.374180768736554
undo,32,34,0,0,0,12,"[0, 13, 1, 8, 25, 24, 12]",7,7,"[7, 9, 10, 11, 22, 23, 27]",115.4670767,18483,1381,1,8,10,1.4994254760835948
undo,32,34,0,0,0,7,"[0, 13, 1, 8, 25, 24, 12, 7]",8,5,"[9, 11, 22, 23, 27]",100.4337804,19332,849,1,4,10,1.758992610425009
undo,32,34,0,0,0,23,"[0, 13, 1, 8, 25, 24, 12, 7, 23]",9,1,[27],72.27352467,20718,1386,1,0,10,2.399781305190153
undo,32,34,0,0,1,27,"[0, 13, 1, 8, 25, 24, 12, 7, 23, 27]",10,0,[],18.60789321,28555,7837,1,0,10,4.766619878750327
undo,32,34,0,1,1,27,"[0, 13, 1, 8, 25, 24, 12, 7, 23, 27]",10,0,[],18.60789321,29725,1170,1,0,10,4.766619878750327
undo,33,5,0,0,0,0,[0],1,29,"[1, 2, 3, 4, 5, 6, 7, 8, 9, 10, 11, 12, 13, 14, 15, 16, 17, 18, 19, 20, 21, 22, 23, 24, 25, 26, 27, 28, 29]",300,357,-1,5,139,9,0.0
undo,33,5,0,0,0,23,"[0, 23]",2,27,"[1, 2, 3, 4, 5, 6, 7, 8, 9, 10, 11, 12, 13, 14, 15, 16, 17, 18, 19, 20, 21, 22, 24, 25, 26, 27, 28]",249.8402552,14687,14330,3,75,9,1.0
undo,33,5,0,0,0,25,"[0, 23, 25]",3,23,"[1, 2, 3, 4, 5, 6, 8, 9, 10, 12, 13, 14, 15, 16, 17, 18, 19, 21, 22, 24, 26, 27, 28]",231.4011663,16054,1367,3,43,9,1.0923159590575564
undo,33,5,0,0,0,24,"[0, 23, 25, 24]",4,21,"[2, 3, 4, 5, 6, 8, 9, 10, 12, 13, 14, 15, 16, 17, 18, 19, 21, 22, 26, 27, 28]",206.5616816,17083,1029,3,25,9,1.2901858295679272
undo,33,5,0,0,0,17,"[0, 23, 25, 24, 17]",5,13,"[4, 5, 6, 8, 12, 13, 14, 15, 18, 19, 22, 26, 27]",171.5759702,18115,1032,3,14,9,1.2027484907982513
undo,33,5,0,0,0,5,"[0, 23, 25, 24, 17, 5]",6,7,"[4, 6, 8, 12, 15, 18, 19]",128.5294837,19364,1249,3,4,9,1.1472230681682432
undo,33,5,0,0,0,4,"[0, 23, 25, 24, 17, 5, 4]",7,2,"[6, 18]",62.7267482,20695,1331,1,1,9,1.354057663440583
undo,33,5,0,0,0,6,"[0, 23, 25, 24, 17, 5, 4, 6]",8,1,[18],50.68515362,22162,1467,1,0,9,1.492903271736527
undo,33,5,1,0,0,4,"[0, 23, 25, 24, 17, 5, 4]",7,2,"[6, 18]",62.7267482,26828,4666,1,1,9,1.354057663440583
undo,33,5,1,0,0,5,"[0, 23, 25, 24, 17, 5]",6,7,"[4, 6, 8, 12, 15, 18, 19]",128.5294837,27178,350,3,4,9,1.1472230681682432
undo,33,5,0,0,0,6,"[0, 23, 25, 24, 17, 5, 6]",7,2,"[4, 18]",59.2113764,29318,2140,1,1,9,1.441848045508982
undo,33,5,0,0,0,4,"[0, 23, 25, 24, 17, 5, 6, 4]",8,1,[18],47.16978182,30517,1199,1,0,9,1.4428372851928168
undo,33,5,0,0,1,18,"[0, 23, 25, 24, 17, 5, 6, 4, 18]",9,0,[],8.751036398,31783,1266,1,0,9,1.4362408478210533
undo,33,5,0,1,1,18,"[0, 23, 25, 24, 17, 5, 6, 4, 18]",9,0,[],8.751036398,32921,1138,1,0,9,1.4362408478210533
undo,34,35,0,0,0,0,[0],1,29,"[1, 2, 3, 4, 5, 6, 7, 8, 9, 10, 11, 12, 13, 14, 15, 16, 17, 18, 19, 20, 21, 22, 23, 24, 25, 26, 27, 28, 29]",300,361,-1,5,236,11,0.0
undo,34,35,0,0,0,15,"[0, 15]",2,27,"[1, 2, 4, 5, 6, 7, 8, 9, 10, 11, 12, 13, 14, 16, 17, 18, 19, 20, 21, 22, 23, 24, 25, 26, 27, 28, 29]",244.4212271,17351,16990,9,149,10,1.0
undo,34,35,0,0,0,1,"[0, 15, 1]",3,23,"[2, 4, 5, 6, 7, 8, 9, 10, 11, 12, 16, 17, 18, 19, 20, 21, 23, 24, 25, 26, 27, 28, 29]",221.5739078,19631,2280,4,66,10,1.6406557820220038
undo,34,35,0,0,0,17,"[0, 15, 1, 17]",4,17,"[2, 4, 5, 6, 9, 10, 16, 18, 19, 21, 23, 24, 25, 26, 27, 28, 29]",205.7625195,20831,1200,2,30,10,2.3760704056873276
undo,34,35,0,0,0,24,"[0, 15, 1, 17, 24]",5,16,"[2, 4, 5, 6, 9, 10, 16, 18, 19, 21, 23, 25, 26, 27, 28, 29]",194.0578195,21928,1097,2,21,10,3.4157129896624867
undo,34,35,0,0,0,27,"[0, 15, 1, 17, 24, 27]",6,11,"[2, 5, 9, 10, 16, 18, 19, 21, 23, 26, 28]",149.8763755,23578,1650,6,7,8,7.076895526683528
undo,34,35,0,0,0,2,"[0, 15, 1, 17, 24, 27, 2]",7,2,"[21, 28]",88.52492888,26196,2618,2,0,8,2.6121972093983805
undo,34,35,0,0,1,28,"[0, 15, 1, 17, 24, 27, 2, 28]",8,0,[],42.98373873,27822,1626,1,0,8,4.407792516642239
undo,34,35,0,1,1,28,"[0, 15, 1, 17, 24, 27, 2, 28]",8,0,[],42.98373873,29543,1721,1,0,8,4.407792516642239
undo,35,3,0,0,0,0,[0],1,29,"[1, 2, 3, 4, 5, 6, 7, 8, 9, 10, 11, 12, 13, 14, 15, 16, 17, 18, 19, 20, 21, 22, 23, 24, 25, 26, 27, 28, 29]",300,365,-1,34,427,10,0.0
undo,35,3,0,0,0,8,"[0, 8]",2,28,"[1, 2, 3, 4, 5, 6, 7, 9, 10, 11, 12, 13, 14, 15, 16, 17, 18, 19, 20, 21, 22, 23, 24, 25, 26, 27, 28, 29]",239.9666759,4466,4101,1,54,10,1.0
undo,35,3,0,0,0,24,"[0, 8, 24]",3,23,"[1, 2, 3, 4, 5, 6, 7, 10, 11, 12, 14, 15, 16, 17, 18, 19, 20, 21, 22, 25, 26, 27, 28]",227.8011509,5413,947,1,50,10,1.2267083825981846
undo,35,3,0,0,0,17,"[0, 8, 24, 17]",4,11,"[3, 4, 7, 10, 14, 15, 16, 19, 20, 21, 27]",158.4469873,6695,1282,1,18,10,1.3836579788002414
undo,35,3,0,0,0,20,"[0, 8, 24, 17, 20]",5,9,"[3, 4, 7, 10, 14, 15, 16, 19, 21]",145.7978767,7728,1033,1,14,10,1.3620097615632467
undo,35,3,0,0,0,3,"[0, 8, 24, 17, 20, 3]",6,5,"[4, 10, 14, 19, 21]",125.4017986,8993,1265,1,11,10,1.3956695218398405
undo,35,3,0,0,0,19,"[0, 8, 24, 17, 20, 3, 19]",7,4,"[4, 10, 14, 21]",88.06548922,10159,1166,1,4,10,1.4360605238855817
undo,35,3,0,0,0,21,"[0, 8, 24, 17, 20, 3, 19, 21]",8,2,"[10, 14]",75.85893361,11407,1248,1,1,10,1.4576450248605066
undo,35,3,0,0,0,14,"[0, 8, 24, 17, 20, 3, 19, 21, 14]",9,1,[10],48.95168551,13191,1784,1,0,10,1.9505702217699148
undo,35,3,0,0,1,10,"[0, 8, 24, 17, 20, 3, 19, 21, 14, 10]",10,0,[],3.498412803,18617,5426,1,0,10,1.8830527336542522
undo,35,3,0,1,1,10,"[0, 8, 24, 17, 20, 3, 19, 21, 14, 10]",10,0,[],3.498412803,20136,1519,1,0,10,1.8830527336542522
undo,36,10,0,0,0,0,[0],1,29,"[1, 2, 3, 4, 5, 6, 7, 8, 9, 10, 11, 12, 13, 14, 15, 16, 17, 18, 19, 20, 21, 22, 23, 24, 25, 26, 27, 28, 29]",300,381,-1,1,100,9,0.0
undo,36,10,0,0,0,10,"[0, 10]",2,27,"[1, 2, 3, 4, 5, 6, 7, 8, 9, 11, 12, 13, 14, 15, 17, 18, 19, 20, 21, 22, 23, 24, 25, 26, 27, 28, 29]",211.2475352,11975,11594,5,73,8,1.0
undo,36,10,0,0,0,18,"[0, 10, 18]",3,24,"[1, 2, 3, 5, 6, 7, 8, 9, 11, 12, 13, 14, 15, 17, 19, 20, 21, 23, 24, 25, 26, 27, 28, 29]",197.7939112,12940,965,5,49,8,1.0012508773359339
undo,36,10,0,0,0,20,"[0, 10, 18, 20]",4,9,"[2, 6, 9, 11, 13, 14, 19, 26, 27]",126.4496753,14477,1537,3,23,8,1.4338595664185272
undo,36,10,0,0,0,26,"[0, 10, 18, 20, 26]",5,6,"[2, 11, 13, 14, 19, 27]",94.66917811,16052,1575,3,6,8,1.550384261377175
undo,36,10,0,0,0,14,"[0, 10, 18, 20, 26, 14]",6,2,"[2, 19]",59.99930646,19134,3082,1,1,8,1.5006492834569933
undo,36,10,0,0,0,2,"[0, 10, 18, 20, 26, 14, 2]",7,1,[19],47.8337814,20349,1215,1,0,8,1.544679202540964
undo,36,10,0,0,1,19,"[0, 10, 18, 20, 26, 14, 2, 19]",8,0,[],3.9247846,21600,1251,1,0,8,2.4795493061903198
undo,36,10,0,1,1,19,"[0, 10, 18, 20, 26, 14, 2, 19]",8,0,[],3.9247846,22536,936,1,0,8,2.4795493061903198
undo,37,33,0,0,0,0,[0],1,23,"[1, 2, 5, 7, 8, 11, 12, 13, 14, 15, 16, 17, 18, 19, 20, 21, 23, 24, 25, 26, 27, 28, 29]",300,373,-1,5,108,9,0.0
undo,37,33,0,0,0,21,"[0, 21]",2,17,"[2, 5, 7, 8, 11, 13, 14, 16, 17, 18, 19, 20, 24, 26, 27, 28, 29]",174.4611614,9127,8754,21,129,8,1.0
undo,37,33,0,0,0,17,"[0, 21, 17]",3,12,"[2, 7, 11, 13, 14, 16, 18, 19, 20, 24, 26, 29]",135.8218032,10109,982,3,35,8,1.0302064673538902
undo,37,33,0,0,0,20,"[0, 21, 17, 20]",4,6,"[2, 11, 13, 14, 26, 29]",78.55051896,11357,1248,3,4,6,1.0713555682987053
undo,37,33,0,0,0,11,"[0, 21, 17, 20, 11]",5,1,[29],59.44554579,12474,1117,1,0,6,1.0834027740395407
undo,37,33,1,0,0,20,"[0, 21, 17, 20]",4,6,"[2, 11, 13, 14, 26, 29]",78.55051896,14959,2485,3,4,6,1.0713555682987053
undo,37,33,1,0,0,17,"[0, 21, 17]",3,12,"[2, 7, 11, 13, 14, 16, 18, 19, 20, 24, 26, 29]",135.8218032,15242,283,3,35,8,1.0302064673538902
undo,37,33,1,0,0,21,"[0, 21]",2,17,"[2, 5, 7, 8, 11, 13, 14, 16, 17, 18, 19, 20, 24, 26, 27, 28, 29]",174.4611614,15558,316,21,129,8,1.0
undo,37,33,0,0,0,13,"[0, 21, 13]",3,15,"[2, 5, 7, 8, 11, 14, 16, 17, 18, 19, 20, 24, 26, 28, 29]",148.0604038,17870,2312,17,72,8,1.0001005298764474
undo,37,33,0,0,0,26,"[0, 21, 13, 26]",4,8,"[7, 11, 14, 17, 19, 20, 24, 29]",73.73678712,21197,3327,4,10,7,1.0000980854775965
undo,37,33,0,0,0,14,"[0, 21, 13, 26, 14]",5,4,"[7, 19, 24, 29]",61.08767648,22212,1015,3,3,7,1.1012591262849363
undo,37,33,0,0,0,7,"[0, 21, 13, 26, 14, 7]",6,3,"[19, 24, 29]",46.22160773,23098,886,3,0,7,1.1908836346239835
undo,37,33,0,0,1,24,"[0, 21, 13, 26, 14, 7, 24]",7,0,[],17.015444,26339,3241,1,0,7,1.3899038284245597
undo,37,33,0,1,1,24,"[0, 21, 13, 26, 14, 7, 24]",7,0,[],17.015444,27678,1339,1,0,7,1.3899038284245597
undo,38,16,0,0,0,0,[0],1,29,"[1, 2, 3, 4, 5, 6, 7, 8, 9, 10, 11, 12, 13, 14, 15, 16, 17, 18, 19, 20, 21, 22, 23, 24, 25, 26, 27, 28, 29]",300,358,-1,13,161,9,0.0
undo,38,16,0,0,0,8,"[0, 8]",2,24,"[2, 3, 4, 5, 7, 9, 10, 12, 13, 14, 15, 16, 17, 18, 19, 20, 21, 22, 23, 25, 26, 27, 28, 29]",175.963715,6329,5971,11,68,7,1.0
undo,38,16,0,0,0,20,"[0, 8, 20]",3,11,"[3, 4, 5, 9, 12, 13, 15, 16, 19, 21, 25]",118.1882877,7610,1281,7,22,7,1.0047913486698357
undo,38,16,0,0,0,25,"[0, 8, 20, 25]",4,7,"[3, 4, 5, 9, 12, 13, 15]",105.539177,8576,966,5,11,7,1.0554037338851137
undo,38,16,0,0,0,9,"[0, 8, 20, 25, 9]",5,6,"[3, 4, 5, 12, 13, 15]",92.73292857,9476,900,5,4,7,1.051900299839676
undo,38,16,0,0,0,15,"[0, 8, 20, 25, 9, 15]",6,3,"[3, 5, 13]",53.83562789,10857,1381,3,0,7,1.1603268431231641
undo,38,16,0,0,1,3,"[0, 8, 20, 25, 9, 15, 3]",7,0,[],10.55745787,12490,1633,1,0,7,1.3126004738699573
undo,38,16,0,1,1,3,"[0, 8, 20, 25, 9, 15, 3]",7,0,[],10.55745787,14226,1736,1,0,7,1.3126004738699573
undo,39,41,0,0,0,0,[0],1,29,"[1, 2, 3, 4, 5, 6, 7, 8, 9, 10, 11, 12, 13, 14, 15, 16, 17, 18, 19, 20, 21, 22, 23, 24, 25, 26, 27, 28, 29]",300,370,-1,1,143,10,0.0
undo,39,41,0,0,0,28,"[0, 28]",2,27,"[1, 2, 3, 5, 6, 7, 8, 9, 10, 11, 12, 13, 14, 15, 16, 17, 18, 19, 20, 21, 22, 23, 24, 25, 26, 27, 29]",259.8004975,5249,4879,37,249,9,1.0
undo,39,41,0,0,0,5,"[0, 28, 5]",3,26,"[1, 2, 3, 6, 7, 8, 9, 10, 11, 12, 13, 14, 15, 16, 17, 18, 19, 20, 21, 22, 23, 24, 25, 26, 27, 29]",246.199027,5999,750,30,182,9,1.714241539747437
undo,39,41,0,0,0,3,"[0, 28, 5, 3]",4,25,"[1, 2, 6, 7, 8, 9, 10, 11, 12, 13, 14, 15, 16, 17, 18, 19, 20, 21, 22, 23, 24, 25, 26, 27, 29]",211.3708775,7397,1398,20,93,9,2.2367972660995847
undo,39,41,0,0,0,21,"[0, 28, 5, 3, 21]",5,19,"[1, 2, 6, 9, 10, 11, 12, 13, 14, 15, 17, 18, 19, 20, 22, 24, 25, 26, 27]",179.2305601,8448,1051,12,46,9,2.470864770481327
undo,39,41,0,0,0,9,"[0, 28, 5, 3, 21, 9]",6,13,"[1, 2, 10, 12, 13, 14, 15, 17, 19, 22, 24, 25, 26]",129.8645799,9896,1448,3,17,9,2.0674559404382
undo,39,41,0,0,0,2,"[0, 28, 5, 3, 21, 9, 2]",7,9,"[1, 10, 12, 14, 15, 17, 19, 22, 24]",117.7815339,10894,998,2,7,9,2.0139863201149533
undo,39,41,0,0,0,14,"[0, 28, 5, 3, 21, 9, 2, 14]",8,1,[15],50.00248114,12760,1866,1,0,9,1.579859755323825
undo,39,41,0,0,1,15,"[0, 28, 5, 3, 21, 9, 2, 14, 15]",9,0,[],21.14074176,15055,2295,1,0,9,1.5263756122583938
undo,39,41,0,1,1,15,"[0, 28, 5, 3, 21, 9, 2, 14, 15]",9,0,[],21.14074176,21138,6083,1,0,9,1.5263756122583938
undo,40,40,0,0,0,0,[0],1,29,"[1, 2, 3, 4, 5, 6, 7, 8, 9, 10, 11, 12, 13, 14, 15, 16, 17, 18, 19, 20, 21, 22, 23, 24, 25, 26, 27, 28, 29]",300,362,-1,8,191,9,0.0
undo,40,40,0,0,0,1,"[0, 1]",2,18,"[2, 5, 6, 7, 8, 9, 10, 11, 13, 15, 17, 18, 19, 21, 22, 23, 27, 29]",247.8463808,9345,8983,4,80,9,1.0
undo,40,40,0,0,0,6,"[0, 1, 6]",3,17,"[2, 5, 7, 8, 9, 10, 11, 13, 15, 17, 18, 19, 21, 22, 23, 27, 29]",227.7466295,11142,1797,4,74,9,1.0459427008232034
undo,40,40,0,0,0,9,"[0, 1, 6, 9]",4,10,"[2, 5, 8, 11, 18, 19, 21, 22, 23, 27]",159.146338,12225,1083,17,39,8,1.142098432552584
undo,40,40,0,0,0,18,"[0, 1, 6, 9, 18]",5,9,"[2, 5, 8, 11, 19, 21, 22, 23, 27]",142.5933926,13377,1152,13,14,8,1.3288108654802917
undo,40,40,0,0,0,5,"[0, 1, 6, 9, 18, 5]",6,7,"[2, 8, 19, 21, 22, 23, 27]",111.0180858,15721,2344,5,5,8,1.5366414787972102
undo,40,40,0,0,0,23,"[0, 1, 6, 9, 18, 5, 23]",7,3,"[2, 19, 21]",82.71614241,16909,1188,3,0,8,2.2908821040631264
undo,40,40,0,0,1,19,"[0, 1, 6, 9, 18, 5, 23, 19]",8,0,[],50.76305179,18868,1959,1,0,8,2.4294131203959415
undo,40,40,1,0,0,23,"[0, 1, 6, 9, 18, 5, 23]",7,3,"[2, 19, 21]",82.71614241,22303,3435,3,0,8,2.2908821040631264
undo,40,40,1,0,0,5,"[0, 1, 6, 9, 18, 5]",6,7,"[2, 8, 19, 21, 22, 23, 27]",111.0180858,22553,250,5,5,8,1.5366414787972102
undo,40,40,1,0,0,18,"[0, 1, 6, 9, 18]",5,9,"[2, 5, 8, 11, 19, 21, 22, 23, 27]",142.5933926,22836,283,13,14,8,1.3288108654802917
undo,40,40,1,0,0,9,"[0, 1, 6, 9]",4,10,"[2, 5, 8, 11, 18, 19, 21, 22, 23, 27]",159.146338,23085,249,17,39,8,1.142098432552584
undo,40,40,1,0,0,6,"[0, 1, 6]",3,17,"[2, 5, 7, 8, 9, 10, 11, 13, 15, 17, 18, 19, 21, 22, 23, 27, 29]",227.7466295,23335,250,4,74,9,1.0459427008232034
undo,40,40,1,0,0,1,"[0, 1]",2,18,"[2, 5, 6, 7, 8, 9, 10, 11, 13, 15, 17, 18, 19, 21, 22, 23, 27, 29]",247.8463808,23618,283,4,80,9,1.0
undo,40,40,1,0,0,0,[0],1,29,"[1, 2, 3, 4, 5, 6, 7, 8, 9, 10, 11, 12, 13, 14, 15, 16, 17, 18, 19, 20, 21, 22, 23, 24, 25, 26, 27, 28, 29]",300,24018,400,8,191,9,0.0
undo,40,40,0,0,0,2,"[0, 2]",2,28,"[1, 3, 4, 5, 6, 7, 8, 9, 10, 11, 12, 13, 14, 15, 16, 17, 18, 19, 20, 21, 22, 23, 24, 25, 26, 27, 28, 29]",263.7646581,26495,2477,4,79,9,1.0
undo,40,40,0,0,0,19,"[0, 2, 19]",3,22,"[1, 5, 6, 7, 8, 9, 10, 11, 13, 14, 15, 17, 18, 20, 21, 22, 23, 24, 25, 26, 27, 29]",194.4249148,27873,1378,19,105,8,1.02908296307533
undo,40,40,0,0,0,23,"[0, 2, 19, 23]",4,15,"[1, 5, 6, 7, 8, 9, 10, 11, 13, 17, 18, 21, 22, 27, 29]",162.4718242,28972,1099,11,38,8,1.4499965171787688
undo,40,40,0,0,0,5,"[0, 2, 19, 23, 5]",5,10,"[1, 6, 7, 8, 9, 11, 18, 21, 22, 27]",134.1698808,30505,1533,4,12,8,1.3483906154476113
undo,40,40,0,0,0,18,"[0, 2, 19, 23, 5, 18]",6,5,"[1, 6, 9, 21, 22]",102.594574,31504,999,3,3,8,1.6664768989460201
undo,40,40,0,0,0,9,"[0, 2, 19, 23, 5, 18, 9]",7,2,"[6, 21]",86.04162866,32355,851,2,0,8,1.7348609689602368
undo,40,40,0,0,1,21,"[0, 2, 19, 23, 5, 18, 9, 21]",8,0,[],40.33604914,34050,1695,1,0,8,2.1548319090303782
undo,40,40,0,1,1,21,"[0, 2, 19, 23, 5, 18, 9, 21]",8,0,[],40.33604914,36004,1954,1,0,8,2.1548319090303782
undo,41,26,0,0,0,0,[0],1,29,"[1, 2, 3, 4, 5, 6, 7, 8, 9, 10, 11, 12, 13, 14, 15, 16, 17, 18, 19, 20, 21, 22, 23, 24, 25, 26, 27, 28, 29]",300,365,-1,9,226,9,0.0
undo,41,26,0,0,0,4,"[0, 4]",2,13,"[5, 6, 10, 12, 13, 14, 16, 17, 19, 21, 23, 26, 29]",178.7976898,6228,5863,4,118,8,1.0
undo,41,26,0,0,0,17,"[0, 4, 17]",3,10,"[5, 6, 10, 12, 13, 14, 16, 21, 23, 29]",157.7026667,8578,2350,1,35,8,1.0014732588101924
undo,41,26,0,0,0,6,"[0, 4, 17, 6]",4,6,"[10, 14, 16, 21, 23, 29]",137.5780549,9640,1062,10,11,7,1.011273258075741
undo,41,26,0,0,0,14,"[0, 4, 17, 6, 14]",5,4,"[10, 16, 23, 29]",116.5542588,10842,1202,5,2,7,1.1383391147196797
undo,41,26,0,0,0,29,"[0, 4, 17, 6, 14, 29]",6,3,"[10, 16, 23]",75.32320259,12356,1514,3,0,7,1.8387738585921345
undo,41,26,0,0,1,16,"[0, 4, 17, 6, 14, 29, 16]",7,0,[],51.11576571,15303,2947,1,0,7,2.2232443318112174
undo,41,26,1,0,0,29,"[0, 4, 17, 6, 14, 29]",6,3,"[10, 16, 23]",75.32320259,19702,4399,3,0,7,1.8387738585921345
undo,41,26,1,0,0,14,"[0, 4, 17, 6, 14]",5,4,"[10, 16, 23, 29]",116.5542588,20018,316,5,2,7,1.1383391147196797
undo,41,26,1,0,0,6,"[0, 4, 17, 6]",4,6,"[10, 14, 16, 21, 23, 29]",137.5780549,20335,317,10,11,7,1.011273258075741
undo,41,26,1,0,0,17,"[0, 4, 17]",3,10,"[5, 6, 10, 12, 13, 14, 16, 21, 23, 29]",157.7026667,20751,416,1,35,8,1.0014732588101924
undo,41,26,1,0,0,4,"[0, 4]",2,13,"[5, 6, 10, 12, 13, 14, 16, 17, 19, 21, 23, 26, 29]",178.7976898,21433,682,4,118,8,1.0
undo,41,26,0,0,0,10,"[0, 4, 10]",3,5,"[6, 14, 16, 17, 29]",128.5881289,23509,2076,1,11,8,1.0592893513500627
undo,41,26,0,0,0,6,"[0, 4, 10, 6]",4,4,"[14, 16, 17, 29]",99.31356661,24724,1215,1,7,8,1.249516025811376
undo,41,26,0,0,0,14,"[0, 4, 10, 6, 14]",5,3,"[16, 17, 29]",78.28977057,25773,1049,1,3,8,1.3757824228717679
undo,41,26,0,0,0,17,"[0, 4, 10, 6, 14, 17]",6,2,"[16, 29]",55.81756552,26791,1018,1,1,8,1.7185295938563587
undo,41,26,0,0,0,29,"[0, 4, 10, 6, 14, 17, 29]",7,1,[16],25.40375286,28653,1862,1,0,8,2.2473188452438926
undo,41,26,0,0,1,16,"[0, 4, 10, 6, 14, 17, 29, 16]",8,0,[],1.196315991,29871,1218,1,0,8,2.669167047452515
undo,41,26,0,1,1,16,"[0, 4, 10, 6, 14, 17, 29, 16]",8,0,[],1.196315991,31056,1185,1,0,8,2.669167047452515
undo,42,22,0,0,0,0,[0],1,29,"[1, 2, 3, 4, 5, 6, 7, 8, 9, 10, 11, 12, 13, 14, 15, 16, 17, 18, 19, 20, 21, 22, 23, 24, 25, 26, 27, 28, 29]",300,367,-1,31,704,9,0.0
undo,42,22,0,0,0,29,"[0, 29]",2,22,"[1, 3, 5, 6, 7, 8, 9, 11, 13, 14, 15, 16, 17, 19, 20, 21, 22, 23, 24, 25, 27, 28]",222.9935068,8511,8144,11,235,9,1.0
undo,42,22,0,0,0,19,"[0, 29, 19]",3,18,"[1, 3, 6, 7, 8, 9, 13, 14, 15, 16, 17, 20, 21, 22, 23, 24, 25, 28]",207.9602104,9434,923,11,172,9,1.1559285443414686
undo,42,22,0,0,0,9,"[0, 29, 19, 9]",4,16,"[1, 3, 6, 7, 8, 13, 14, 15, 16, 17, 20, 21, 22, 24, 25, 28]",187.5641323,10393,959,7,84,9,1.2555028175473422
undo,42,22,0,0,0,14,"[0, 29, 19, 9, 14]",5,11,"[1, 3, 6, 7, 13, 16, 17, 20, 21, 24, 28]",144.5176458,11525,1132,4,28,9,1.200251311198461
undo,42,22,0,0,0,7,"[0, 29, 19, 9, 14, 7]",6,10,"[1, 3, 6, 13, 16, 17, 20, 21, 24, 28]",131.479241,12673,1148,4,18,9,1.3399585036197592
undo,42,22,0,0,0,17,"[0, 29, 19, 9, 14, 7, 17]",7,5,"[1, 3, 20, 21, 24]",89.86193693,13855,1182,3,3,9,1.3297480627305363
undo,42,22,0,0,0,21,"[0, 29, 19, 9, 14, 7, 17, 21]",8,2,"[3, 24]",38.51020862,15504,1649,2,0,9,1.621067475944888
undo,42,22,0,0,1,3,"[0, 29, 19, 9, 14, 7, 17, 21, 3]",9,0,[],13.49021662,16418,914,1,0,9,1.6812263795812836
undo,42,22,0,1,1,3,"[0, 29, 19, 9, 14, 7, 17, 21, 3]",9,0,[],13.49021662,17441,1023,1,0,9,1.6812263795812836
undo,43,1,0,0,0,0,[0],1,26,"[1, 2, 4, 5, 7, 8, 9, 10, 11, 12, 13, 14, 15, 16, 17, 18, 19, 20, 21, 22, 23, 24, 25, 26, 28, 29]",300,368,-1,6,74,7,0.0
undo,43,1,0,0,0,20,"[0, 20]",2,13,"[1, 4, 5, 8, 11, 13, 14, 15, 17, 18, 19, 28, 29]",129.961769,6186,5818,2,11,6,1.0
undo,43,1,0,0,0,5,"[0, 20, 5]",3,9,"[1, 4, 8, 11, 13, 17, 18, 19, 29]",108.4908585,7250,1064,2,6,6,1.0224915251419384
undo,43,1,0,0,0,18,"[0, 20, 5, 18]",4,4,"[4, 13, 17, 29]",85.66543403,8234,984,2,3,6,1.064078468417926
undo,43,1,0,0,0,4,"[0, 20, 5, 18, 4]",5,2,"[13, 29]",46.71674984,9420,1186,2,0,6,1.0731955739217967
undo,43,1,0,0,1,13,"[0, 20, 5, 18, 4, 13]",6,0,[],2.332067799,10435,1015,1,0,6,1.0623276828380515
undo,43,1,1,0,0,4,"[0, 20, 5, 18, 4]",5,2,"[13, 29]",46.71674984,13116,2681,2,0,6,1.0731955739217967
undo,43,1,1,0,0,18,"[0, 20, 5, 18]",4,4,"[4, 13, 17, 29]",85.66543403,14515,1399,2,3,6,1.064078468417926
undo,43,1,1,0,0,5,"[0, 20, 5]",3,9,"[1, 4, 8, 11, 13, 17, 18, 19, 29]",108.4908585,14798,283,2,6,6,1.0224915251419384
undo,43,1,1,0,0,20,"[0, 20]",2,13,"[1, 4, 5, 8, 11, 13, 14, 15, 17, 18, 19, 28, 29]",129.961769,15148,350,2,11,6,1.0
undo,43,1,1,0,0,0,[0],1,26,"[1, 2, 4, 5, 7, 8, 9, 10, 11, 12, 13, 14, 15, 16, 17, 18, 19, 20, 21, 22, 23, 24, 25, 26, 28, 29]",300,15714,566,6,74,7,0.0
undo,43,1,0,0,0,14,"[0, 14]",2,19,"[1, 4, 5, 8, 9, 13, 15, 17, 18, 19, 20, 21, 22, 23, 24, 25, 26, 28, 29]",200.1901808,21602,5888,5,42,7,1.0
undo,43,1,0,0,0,17,"[0, 14, 17]",3,15,"[1, 4, 5, 8, 9, 13, 15, 18, 19, 20, 22, 23, 25, 28, 29]",147.8356204,22767,1165,5,27,7,1.0028844724416826
undo,43,1,0,0,0,1,"[0, 14, 17, 1]",4,12,"[4, 5, 8, 9, 15, 18, 20, 22, 23, 25, 28, 29]",123.4840291,23703,936,5,15,7,1.0264985578353567
undo,43,1,0,0,0,28,"[0, 14, 17, 1, 28]",5,5,"[9, 15, 22, 23, 29]",88.59850198,25063,1360,5,3,7,1.0339861575999345
undo,43,1,0,0,0,23,"[0, 14, 17, 1, 28, 23]",6,2,"[15, 22]",51.70676849,26382,1319,2,0,7,1.0327458250705703
undo,43,1,0,0,1,22,"[0, 14, 17, 1, 28, 23, 22]",7,0,[],3.696352956,27595,1213,1,0,7,1.0700788216594126
undo,43,1,0,1,1,22,"[0, 14, 17, 1, 28, 23, 22]",7,0,[],3.696352956,28932,1337,1,0,7,1.0700788216594126
undo,44,43,0,0,0,0,[0],1,23,"[1, 2, 3, 4, 5, 6, 7, 9, 10, 11, 12, 14, 15, 16, 17, 19, 20, 21, 22, 23, 25, 27, 29]",300,373,-1,16,556,12,0.0
undo,44,43,0,0,0,25,"[0, 25]",2,19,"[1, 2, 3, 4, 5, 6, 7, 9, 11, 12, 14, 15, 16, 19, 20, 21, 22, 23, 29]",220.6904798,7778,7405,8,323,10,1.0
undo,44,43,0,0,0,15,"[0, 25, 15]",3,18,"[1, 2, 3, 4, 5, 6, 7, 9, 11, 12, 14, 16, 19, 20, 21, 22, 23, 29]",198.0189117,9160,1382,8,141,10,1.233441666901354
undo,44,43,0,0,0,12,"[0, 25, 15, 12]",4,15,"[1, 2, 3, 4, 6, 7, 9, 11, 14, 16, 19, 20, 22, 23, 29]",178.7057038,10243,1083,8,95,10,1.226948769754925
undo,44,43,0,0,0,3,"[0, 25, 15, 12, 3]",5,14,"[1, 2, 4, 6, 7, 9, 11, 14, 16, 19, 20, 22, 23, 29]",165.7057038,11205,962,8,83,10,1.2055123857330492
undo,44,43,0,0,0,6,"[0, 25, 15, 12, 3, 6]",6,8,"[1, 7, 11, 14, 16, 19, 20, 22]",87.82117384,13505,2300,2,12,9,1.923817348131148
undo,44,43,0,0,0,11,"[0, 25, 15, 12, 3, 6, 11]",7,6,"[1, 14, 16, 19, 20, 22]",67.20564571,14889,1384,2,4,9,2.5581797174725276
undo,44,43,0,0,0,16,"[0, 25, 15, 12, 3, 6, 11, 16]",8,1,[20],32.07730957,17099,2210,1,0,9,4.777483224561826
undo,44,43,0,0,1,20,"[0, 25, 15, 12, 3, 6, 11, 16, 20]",9,0,[],9.44989257,18482,1383,1,0,9,6.908076270984175
undo,44,43,1,0,0,16,"[0, 25, 15, 12, 3, 6, 11, 16]",8,1,[20],32.07730957,21084,2602,1,0,9,4.777483224561826
undo,44,43,1,0,0,11,"[0, 25, 15, 12, 3, 6, 11]",7,6,"[1, 14, 16, 19, 20, 22]",67.20564571,21417,333,2,4,9,2.5581797174725276
undo,44,43,1,0,0,6,"[0, 25, 15, 12, 3, 6]",6,8,"[1, 7, 11, 14, 16, 19, 20, 22]",87.82117384,21700,283,2,12,9,1.923817348131148
undo,44,43,1,0,0,3,"[0, 25, 15, 12, 3]",5,14,"[1, 2, 4, 6, 7, 9, 11, 14, 16, 19, 20, 22, 23, 29]",165.7057038,22050,350,8,83,10,1.2055123857330492
undo,44,43,0,0,0,22,"[0, 25, 15, 12, 3, 22]",6,12,"[1, 4, 6, 7, 9, 11, 14, 16, 19, 20, 23, 29]",130.9925938,24523,2473,5,39,10,1.417031808359187
undo,44,43,0,0,0,19,"[0, 25, 15, 12, 3, 22, 19]",7,8,"[1, 4, 6, 7, 11, 14, 16, 23]",110.3770657,25539,1016,3,10,10,1.3649357481232487
undo,44,43,0,0,0,6,"[0, 25, 15, 12, 3, 22, 19, 6]",8,2,"[11, 14]",45.81701614,27541,2002,2,0,9,2.304667448677753
undo,44,43,0,0,1,11,"[0, 25, 15, 12, 3, 22, 19, 6, 11]",9,0,[],25.20148801,29219,1678,1,0,9,3.019763868021978
undo,44,43,1,0,0,6,"[0, 25, 15, 12, 3, 22, 19, 6]",8,2,"[11, 14]",45.81701614,34202,4983,2,0,9,2.304667448677753
undo,44,43,1,0,0,19,"[0, 25, 15, 12, 3, 22, 19]",7,8,"[1, 4, 6, 7, 11, 14, 16, 23]",110.3770657,34385,183,3,10,10,1.3649357481232487
undo,44,43,1,0,0,22,"[0, 25, 15, 12, 3, 22]",6,12,"[1, 4, 6, 7, 9, 11, 14, 16, 19, 20, 23, 29]",130.9925938,34552,167,5,39,10,1.417031808359187
undo,44,43,1,0,0,3,"[0, 25, 15, 12, 3]",5,14,"[1, 2, 4, 6, 7, 9, 11, 14, 16, 19, 20, 22, 23, 29]",165.7057038,34719,167,8,83,10,1.2055123857330492
undo,44,43,1,0,0,12,"[0, 25, 15, 12]",4,15,"[1, 2, 3, 4, 6, 7, 9, 11, 14, 16, 19, 20, 22, 23, 29]",178.7057038,34885,166,8,95,10,1.226948769754925
undo,44,43,1,0,0,15,"[0, 25, 15]",3,18,"[1, 2, 3, 4, 5, 6, 7, 9, 11, 12, 14, 16, 19, 20, 21, 22, 23, 29]",198.0189117,35034,149,8,141,10,1.233441666901354
undo,44,43,1,0,0,25,"[0, 25]",2,19,"[1, 2, 3, 4, 5, 6, 7, 9, 11, 12, 14, 15, 16, 19, 20, 21, 22, 23, 29]",220.6904798,35201,167,8,323,10,1.0
undo,44,43,1,0,0,0,[0],1,23,"[1, 2, 3, 4, 5, 6, 7, 9, 10, 11, 12, 14, 15, 16, 17, 19, 20, 21, 22, 23, 25, 27, 29]",300,35451,250,16,556,12,0.0
undo,44,43,0,0,0,29,"[0, 29]",2,22,"[1, 2, 3, 4, 5, 6, 7, 9, 10, 11, 12, 14, 15, 16, 17, 19, 20, 21, 22, 23, 25, 27]",277.909278,37143,1692,16,520,12,1.0
undo,44,43,0,0,0,20,"[0, 29, 20]",3,20,"[1, 2, 3, 4, 6, 7, 9, 10, 11, 12, 14, 15, 16, 17, 19, 21, 22, 23, 25, 27]",254.4785289,38175,1032,15,422,12,1.082311746871282
undo,44,43,0,0,0,16,"[0, 29, 20, 16]",4,19,"[1, 2, 3, 4, 6, 7, 9, 10, 11, 12, 14, 15, 17, 19, 21, 22, 23, 25, 27]",231.8511119,39358,1183,15,389,12,1.215201926898219
undo,44,43,0,0,0,25,"[0, 29, 20, 16, 25]",5,14,"[1, 2, 3, 4, 6, 7, 9, 11, 12, 14, 15, 19, 22, 23]",175.7708124,41605,2247,53,282,11,1.566384303308987
undo,44,43,0,0,0,15,"[0, 29, 20, 16, 25, 15]",6,13,"[1, 2, 3, 4, 6, 7, 9, 11, 12, 14, 19, 22, 23]",153.0992443,42537,932,27,108,11,1.776736412604812
undo,44,43,0,0,0,12,"[0, 29, 20, 16, 25, 15, 12]",7,10,"[1, 3, 6, 7, 9, 11, 14, 19, 22, 23]",133.7860364,43272,735,21,41,11,1.6813323012225032
undo,44,43,0,0,0,3,"[0, 29, 20, 16, 25, 15, 12, 3]",8,9,"[1, 6, 7, 9, 11, 14, 19, 22, 23]",120.7860364,44169,897,20,12,11,1.608740348096123
undo,44,43,0,0,0,22,"[0, 29, 20, 16, 25, 15, 12, 3, 22]",9,6,"[1, 6, 7, 11, 14, 19]",86.07292644,47167,2998,9,2,11,1.793657891802588
undo,44,43,0,0,0,19,"[0, 29, 20, 16, 25, 15, 12, 3, 22, 19]",10,3,"[1, 6, 7]",65.45739831,48197,1030,3,0,11,1.6882745891803936
undo,44,43,0,0,1,1,"[0, 29, 20, 16, 25, 15, 12, 3, 22, 19, 1]",11,0,[],37.2793927,53961,5764,1,0,11,1.825064866046553
undo,44,43,1,0,0,19,"[0, 29, 20, 16, 25, 15, 12, 3, 22, 19]",10,3,"[1, 6, 7]",65.45739831,62055,8094,3,0,11,1.6882745891803936
undo,44,43,1,0,0,22,"[0, 29, 20, 16, 25, 15, 12, 3, 22]",9,6,"[1, 6, 7, 11, 14, 19]",86.07292644,62387,332,9,2,11,1.793657891802588
undo,44,43,1,0,0,3,"[0, 29, 20, 16, 25, 15, 12, 3]",8,9,"[1, 6, 7, 9, 11, 14, 19, 22, 23]",120.7860364,62637,250,20,12,11,1.608740348096123
undo,44,43,1,0,0,12,"[0, 29, 20, 16, 25, 15, 12]",7,10,"[1, 3, 6, 7, 9, 11, 14, 19, 22, 23]",133.7860364,62921,284,21,41,11,1.6813323012225032
undo,44,43,1,0,0,15,"[0, 29, 20, 16, 25, 15]",6,13,"[1, 2, 3, 4, 6, 7, 9, 11, 12, 14, 19, 22, 23]",153.0992443,63320,399,27,108,11,1.776736412604812
undo,44,43,1,0,0,25,"[0, 29, 20, 16, 25]",5,14,"[1, 2, 3, 4, 6, 7, 9, 11, 12, 14, 15, 19, 22, 23]",175.7708124,63686,366,53,282,11,1.566384303308987
undo,44,43,1,0,0,16,"[0, 29, 20, 16]",4,19,"[1, 2, 3, 4, 6, 7, 9, 10, 11, 12, 14, 15, 17, 19, 21, 22, 23, 25, 27]",231.8511119,64069,383,15,389,12,1.215201926898219
undo,44,43,0,0,0,15,"[0, 29, 20, 16, 15]",5,14,"[1, 2, 3, 4, 6, 7, 9, 11, 12, 14, 19, 22, 23, 25]",188.5267539,66164,2095,3,109,12,1.3482474915350444
undo,44,43,0,0,0,12,"[0, 29, 20, 16, 15, 12]",6,13,"[1, 2, 3, 4, 6, 7, 9, 11, 14, 19, 22, 23, 25]",169.213546,67260,1096,1,49,12,1.3229664037236823
undo,44,43,0,0,0,3,"[0, 29, 20, 16, 15, 12, 3]",7,11,"[1, 4, 6, 7, 9, 11, 14, 19, 22, 23, 25]",156.213546,68227,967,1,35,12,1.2907201281243643
undo,44,43,0,0,0,22,"[0, 29, 20, 16, 15, 12, 3, 22]",8,9,"[1, 4, 6, 7, 11, 14, 19, 23, 25]",121.5004361,69540,1313,1,18,12,1.4966181986440266
undo,44,43,0,0,0,19,"[0, 29, 20, 16, 15, 12, 3, 22, 19]",9,7,"[1, 4, 6, 7, 11, 14, 25]",100.8849079,70612,1072,1,9,12,1.4332617950535695
undo,44,43,0,0,0,1,"[0, 29, 20, 16, 15, 12, 3, 22, 19, 1]",10,5,"[4, 6, 7, 11, 14]",72.70690233,71721,1109,1,4,12,1.5789573993284716
undo,44,43,0,0,0,6,"[0, 29, 20, 16, 15, 12, 3, 22, 19, 1, 6]",11,1,[11],24.43682878,74402,2681,1,0,12,2.498520794432648
undo,44,43,0,0,1,11,"[0, 29, 20, 16, 15, 12, 3, 22, 19, 1, 6, 11]",12,0,[],3.821300656,75833,1431,1,0,12,3.2547109818021975
undo,44,43,0,1,1,11,"[0, 29, 20, 16, 15, 12, 3, 22, 19, 1, 6, 11]",12,0,[],3.821300656,80003,4170,1,0,12,3.2547109818021975
undo,45,23,0,0,0,0,[0],1,28,"[1, 2, 3, 4, 5, 6, 7, 8, 9, 10, 11, 12, 13, 14, 15, 16, 17, 18, 19, 20, 21, 22, 23, 25, 26, 27, 28, 29]",300,404,-1,76,2626,10,0.0
undo,45,23,0,0,0,13,"[0, 13]",2,19,"[1, 2, 3, 5, 6, 7, 8, 9, 10, 12, 14, 17, 18, 19, 21, 22, 23, 27, 29]",189.3202819,5592,5188,9,168,10,1.0
undo,45,23,0,0,0,12,"[0, 13, 12]",3,16,"[1, 2, 3, 6, 7, 8, 9, 10, 14, 17, 18, 21, 22, 23, 27, 29]",177.2372359,6576,984,9,96,10,1.0014195490503164
undo,45,23,0,0,0,2,"[0, 13, 12, 2]",4,12,"[1, 3, 6, 7, 9, 10, 14, 18, 21, 22, 27, 29]",163.3447919,7742,1166,4,30,10,1.0014394317924602
undo,45,23,0,0,0,9,"[0, 13, 12, 2, 9]",5,10,"[1, 6, 7, 10, 14, 18, 21, 22, 27, 29]",150.3063871,8689,947,1,8,10,1.1457747074799831
undo,45,23,0,0,0,14,"[0, 13, 12, 2, 9, 14]",6,8,"[1, 6, 7, 10, 18, 22, 27, 29]",139.8660806,9738,1049,1,6,10,1.1365880299138118
undo,45,23,0,0,0,29,"[0, 13, 12, 2, 9, 14, 29]",7,5,"[1, 6, 7, 10, 22]",92.43191571,12284,2546,1,3,10,1.3460297288480787
undo,45,23,0,0,0,7,"[0, 13, 12, 2, 9, 14, 29, 7]",8,2,"[1, 10]",68.34872655,13418,1134,1,1,10,1.3773159292410473
undo,45,23,0,0,0,10,"[0, 13, 12, 2, 9, 14, 29, 7, 10]",9,1,[1],40.88966612,14733,1315,1,0,10,1.3556884556214648
undo,45,23,0,0,1,1,"[0, 13, 12, 2, 9, 14, 29, 7, 10, 1]",10,0,[],12.23656855,16054,1321,1,0,10,1.3259861306330887
undo,45,23,0,1,1,1,"[0, 13, 12, 2, 9, 14, 29, 7, 10, 1]",10,0,[],12.23656855,17885,1831,1,0,10,1.3259861306330887
undo,46,44,0,0,0,0,[0],1,29,"[1, 2, 3, 4, 5, 6, 7, 8, 9, 10, 11, 12, 13, 14, 15, 16, 17, 18, 19, 20, 21, 22, 23, 24, 25, 26, 27, 28, 29]",300,447,-1,13,126,7,0.0
undo,46,44,0,0,0,4,"[0, 4]",2,16,"[2, 5, 7, 8, 9, 10, 11, 12, 14, 20, 22, 23, 24, 25, 26, 28]",124.3583193,12961,12514,4,43,6,1.0
undo,46,44,0,0,0,7,"[0, 4, 7]",3,11,"[2, 5, 9, 11, 12, 14, 23, 24, 25, 26, 28]",93.34219446,14511,1550,3,11,6,1.0001809143785576
undo,46,44,0,0,0,23,"[0, 4, 7, 23]",4,8,"[5, 9, 12, 14, 24, 25, 26, 28]",74.23722128,16159,1648,3,5,6,1.030837282544142
undo,46,44,0,0,0,28,"[0, 4, 7, 23, 28]",5,1,[26],22.26607544,17621,1462,1,0,6,1.0477020025565067
undo,46,44,0,0,1,26,"[0, 4, 7, 23, 28, 26]",6,0,[],9.266075444,18822,1201,1,0,6,1.045663427181956
undo,46,44,1,0,0,28,"[0, 4, 7, 23, 28]",5,1,[26],22.26607544,25603,6781,1,0,6,1.0477020025565067
undo,46,44,1,0,0,23,"[0, 4, 7, 23]",4,8,"[5, 9, 12, 14, 24, 25, 26, 28]",74.23722128,25953,350,3,5,6,1.030837282544142
undo,46,44,1,0,0,7,"[0, 4, 7]",3,11,"[2, 5, 9, 11, 12, 14, 23, 24, 25, 26, 28]",93.34219446,26253,300,3,11,6,1.0001809143785576
undo,46,44,1,0,0,4,"[0, 4]",2,16,"[2, 5, 7, 8, 9, 10, 11, 12, 14, 20, 22, 23, 24, 25, 26, 28]",124.3583193,26602,349,4,43,6,1.0
undo,46,44,1,0,0,0,[0],1,29,"[1, 2, 3, 4, 5, 6, 7, 8, 9, 10, 11, 12, 13, 14, 15, 16, 17, 18, 19, 20, 21, 22, 23, 24, 25, 26, 27, 28, 29]",300,26985,383,13,126,7,0.0
undo,46,44,0,0,0,11,"[0, 11]",2,18,"[4, 5, 6, 7, 8, 9, 12, 14, 16, 17, 19, 20, 22, 23, 24, 25, 26, 28]",152.7790776,37937,10952,5,34,7,1.0
undo,46,44,0,0,0,24,"[0, 11, 24]",3,13,"[4, 5, 7, 8, 9, 12, 14, 17, 20, 22, 23, 25, 28]",125.8532535,39848,1911,5,23,7,1.1588941745226709
undo,46,44,0,0,0,9,"[0, 11, 24, 9]",4,7,"[4, 7, 8, 12, 14, 20, 23]",93.09657483,41363,1515,2,8,7,1.3039383713641313
undo,46,44,0,0,0,4,"[0, 11, 24, 9, 4]",5,5,"[7, 12, 14, 20, 23]",73.39885923,42712,1349,2,3,7,1.2901330701441578
undo,46,44,0,0,0,7,"[0, 11, 24, 9, 4, 7]",6,1,[23],42.38273439,45508,2796,1,0,7,1.2468141312360979
undo,46,44,0,0,1,23,"[0, 11, 24, 9, 4, 7, 23]",7,0,[],23.27776121,46889,1381,1,0,7,1.2635191782769477
undo,46,44,0,1,1,23,"[0, 11, 24, 9, 4, 7, 23]",7,0,[],23.27776121,50676,3787,1,0,7,1.2635191782769477
undo,47,36,0,0,0,0,[0],1,24,"[2, 4, 5, 6, 7, 8, 9, 10, 12, 13, 14, 15, 16, 17, 18, 19, 20, 22, 23, 25, 26, 27, 28, 29]",300,399,-1,2,200,10,0.0
undo,47,36,0,0,0,9,"[0, 9]",2,16,"[2, 4, 8, 10, 12, 13, 16, 17, 18, 19, 23, 25, 26, 27, 28, 29]",230.9348134,15849,15450,81,367,8,1.0
undo,47,36,0,0,0,19,"[0, 9, 19]",3,14,"[2, 4, 8, 10, 12, 13, 16, 17, 18, 23, 25, 27, 28, 29]",215.8020675,17281,1432,32,122,8,1.092374745664041
undo,47,36,1,0,0,9,"[0, 9]",2,16,"[2, 4, 8, 10, 12, 13, 16, 17, 18, 19, 23, 25, 26, 27, 28, 29]",230.9348134,22630,5349,81,367,8,1.0
undo,47,36,0,0,0,17,"[0, 9, 17]",3,13,"[2, 4, 8, 10, 12, 13, 16, 18, 19, 23, 25, 27, 29]",204.6860039,24406,1776,22,90,8,1.0084584538853834
undo,47,36,0,0,0,19,"[0, 9, 17, 19]",4,12,"[2, 4, 8, 10, 12, 13, 16, 18, 23, 25, 27, 29]",176.7933525,26269,1863,8,25,8,1.5984695375617641
undo,47,36,0,0,0,13,"[0, 9, 17, 19, 13]",5,9,"[2, 4, 10, 12, 16, 18, 23, 25, 29]",133.3767658,28001,1732,3,7,8,1.698822576703424
undo,47,36,0,0,0,25,"[0, 9, 17, 19, 13, 25]",6,4,"[2, 10, 12, 16]",112.7855056,30082,2081,2,3,8,1.6352014102951602
undo,47,36,0,0,0,2,"[0, 9, 17, 19, 13, 25, 2]",7,2,"[10, 16]",87.78550557,31281,1199,2,0,8,1.8791820847036678
undo,47,36,1,0,0,25,"[0, 9, 17, 19, 13, 25]",6,4,"[2, 10, 12, 16]",112.7855056,32603,1322,2,3,8,1.6352014102951602
undo,47,36,1,0,0,13,"[0, 9, 17, 19, 13]",5,9,"[2, 4, 10, 12, 16, 18, 23, 25, 29]",133.3767658,32935,332,3,7,8,1.698822576703424
undo,47,36,1,0,0,19,"[0, 9, 17, 19]",4,12,"[2, 4, 8, 10, 12, 13, 16, 18, 23, 25, 27, 29]",176.7933525,33268,333,8,25,8,1.5984695375617641
undo,47,36,1,0,0,17,"[0, 9, 17]",3,13,"[2, 4, 8, 10, 12, 13, 16, 18, 19, 23, 25, 27, 29]",204.6860039,33735,467,22,90,8,1.0084584538853834
undo,47,36,0,0,0,16,"[0, 9, 17, 16]",4,9,"[2, 10, 12, 13, 18, 19, 23, 25, 27]",176.3663994,36911,3176,10,18,8,1.1582904316574463
undo,47,36,0,0,0,2,"[0, 9, 17, 16, 2]",5,5,"[10, 12, 13, 19, 25]",109.7180686,38623,1712,4,4,8,1.6849668892321585
undo,47,36,0,0,0,25,"[0, 9, 17, 16, 2, 25]",6,3,"[10, 13, 19]",84.71806858,40237,1614,1,2,8,1.8803529021471426
undo,47,36,0,0,0,13,"[0, 9, 17, 16, 2, 25, 13]",7,1,[19],64.12680829,41655,1418,1,0,8,2.4048669157091833
undo,47,36,0,0,1,19,"[0, 9, 17, 16, 2, 25, 13, 19]",8,0,[],20.7102216,46482,4827,1,0,8,3.6234749665173345
undo,47,36,0,1,1,19,"[0, 9, 17, 16, 2, 25, 13, 19]",8,0,[],20.7102216,48202,1720,1,0,8,3.6234749665173345
undo,48,7,0,0,0,0,[0],1,29,"[1, 2, 3, 4, 5, 6, 7, 8, 9, 10, 11, 12, 13, 14, 15, 16, 17, 18, 19, 20, 21, 22, 23, 24, 25, 26, 27, 28, 29]",300,381,-1,3,79,9,0.0
undo,48,7,0,0,0,15,"[0, 15]",2,19,"[2, 4, 5, 6, 7, 8, 9, 10, 13, 14, 16, 18, 19, 20, 21, 23, 25, 27, 28]",230.9348134,13379,12998,2,38,9,1.0
undo,48,7,0,0,0,6,"[0, 15, 6]",3,18,"[2, 4, 5, 7, 8, 9, 10, 13, 14, 16, 18, 19, 20, 21, 23, 25, 27, 28]",205.854941,14354,975,2,36,9,1.366719602896943
undo,48,7,0,0,0,25,"[0, 15, 6, 25]",4,11,"[2, 4, 7, 13, 14, 16, 18, 19, 20, 21, 23]",138.6760753,15868,1514,2,28,9,1.3624631728355765
undo,48,7,0,0,0,4,"[0, 15, 6, 25, 4]",5,7,"[2, 7, 13, 16, 18, 19, 20]",113.9374415,16899,1031,2,12,9,1.3249684384385587
undo,48,7,0,0,0,20,"[0, 15, 6, 25, 4, 20]",6,5,"[2, 7, 13, 18, 19]",94.29055881,17965,1066,1,6,9,1.3721893242679268
undo,48,7,0,0,0,18,"[0, 15, 6, 25, 4, 20, 18]",7,3,"[7, 13, 19]",81.48431034,18863,898,1,2,9,1.5262542308371432
undo,48,7,0,0,0,7,"[0, 15, 6, 25, 4, 20, 18, 7]",8,1,[19],40.25325408,20461,1598,1,0,9,1.41986878673423
undo,48,7,0,0,1,19,"[0, 15, 6, 25, 4, 20, 18, 7, 19]",9,0,[],10.84237174,21694,1233,1,0,9,1.5285658163212987
undo,48,7,0,1,1,19,"[0, 15, 6, 25, 4, 20, 18, 7, 19]",9,0,[],10.84237174,22783,1089,1,0,9,1.5285658163212987
undo,49,11,0,0,0,0,[0],1,25,"[1, 2, 3, 4, 5, 6, 8, 9, 10, 11, 12, 13, 14, 15, 16, 17, 18, 19, 20, 22, 23, 25, 26, 27, 28]",300,386,-1,6,374,12,0.0
undo,49,11,0,0,0,18,"[0, 18]",2,21,"[1, 2, 4, 5, 6, 8, 9, 11, 12, 13, 14, 15, 16, 17, 19, 20, 22, 23, 25, 27, 28]",236.8493864,5199,4813,157,1477,11,1.0
undo,49,11,0,0,0,27,"[0, 18, 27]",3,19,"[1, 2, 4, 5, 6, 8, 9, 11, 12, 14, 15, 16, 17, 19, 20, 22, 23, 25, 28]",212.9956655,6329,1130,157,1315,11,1.060949579704323
undo,49,11,0,0,0,5,"[0, 18, 27, 5]",4,12,"[2, 6, 8, 11, 12, 14, 15, 16, 17, 19, 22, 28]",131.7799035,8412,2083,31,207,11,1.0339727918436237
undo,49,11,0,0,0,2,"[0, 18, 27, 5, 2]",5,8,"[8, 11, 12, 15, 17, 19, 22, 28]",114.7799035,9629,1217,10,68,11,1.0377168105520382
undo,49,11,0,0,0,22,"[0, 18, 27, 5, 2, 22]",6,6,"[8, 11, 15, 17, 19, 28]",104.7300279,10425,796,8,27,11,1.035729163214962
undo,49,11,0,0,0,28,"[0, 18, 27, 5, 2, 22, 28]",7,5,"[8, 11, 15, 17, 19]",86.34525155,11414,989,8,13,11,1.2364039266401647
undo,49,11,0,0,0,11,"[0, 18, 27, 5, 2, 22, 28, 11]",8,3,"[8, 15, 17]",66.92876371,12676,1262,6,0,11,1.344383237443331
undo,49,11,0,0,0,15,"[0, 18, 27, 5, 2, 22, 28, 11, 15]",9,2,"[8, 17]",48.81799344,15403,2727,2,0,11,1.60121764180371
undo,49,11,0,0,0,17,"[0, 18, 27, 5, 2, 22, 28, 11, 15, 17]",10,1,[8],36.1688828,16435,1032,1,0,11,1.7938151159629114
undo,49,11,1,0,0,15,"[0, 18, 27, 5, 2, 22, 28, 11, 15]",9,2,"[8, 17]",48.81799344,22368,5933,2,0,11,1.60121764180371
undo,49,11,1,0,0,11,"[0, 18, 27, 5, 2, 22, 28, 11]",8,3,"[8, 15, 17]",66.92876371,22584,216,6,0,11,1.344383237443331
undo,49,11,1,0,0,28,"[0, 18, 27, 5, 2, 22, 28]",7,5,"[8, 11, 15, 17, 19]",86.34525155,22834,250,8,13,11,1.2364039266401647
undo,49,11,1,0,0,22,"[0, 18, 27, 5, 2, 22]",6,6,"[8, 11, 15, 17, 19, 28]",104.7300279,23033,199,8,27,11,1.035729163214962
undo,49,11,1,0,0,2,"[0, 18, 27, 5, 2]",5,8,"[8, 11, 12, 15, 17, 19, 22, 28]",114.7799035,23267,234,10,68,11,1.0377168105520382
undo,49,11,1,0,0,5,"[0, 18, 27, 5]",4,12,"[2, 6, 8, 11, 12, 14, 15, 16, 17, 19, 22, 28]",131.7799035,23483,216,31,207,11,1.0339727918436237
undo,49,11,1,0,0,27,"[0, 18, 27]",3,19,"[1, 2, 4, 5, 6, 8, 9, 11, 12, 14, 15, 16, 17, 19, 20, 22, 23, 25, 28]",212.9956655,23716,233,157,1315,11,1.060949579704323
undo,49,11,1,0,0,18,"[0, 18]",2,21,"[1, 2, 4, 5, 6, 8, 9, 11, 12, 13, 14, 15, 16, 17, 19, 20, 22, 23, 25, 27, 28]",236.8493864,24199,483,157,1477,11,1.0
undo,49,11,1,0,0,0,[0],1,25,"[1, 2, 3, 4, 5, 6, 8, 9, 10, 11, 12, 13, 14, 15, 16, 17, 18, 19, 20, 22, 23, 25, 26, 27, 28]",300,24665,466,6,374,12,0.0
undo,49,11,0,0,0,1,"[0, 1]",2,24,"[2, 3, 4, 5, 6, 8, 9, 10, 11, 12, 13, 14, 15, 16, 17, 18, 19, 20, 22, 23, 25, 26, 27, 28]",264.6446609,26546,1881,6,217,12,1.0
undo,49,11,0,0,0,18,"[0, 1, 18]",3,19,"[2, 4, 5, 6, 8, 9, 11, 12, 14, 15, 16, 17, 19, 20, 22, 23, 25, 27, 28]",212.3187591,27907,1361,6,161,12,1.3884463804898786
undo,49,11,0,0,0,27,"[0, 1, 18, 27]",4,18,"[2, 4, 5, 6, 8, 9, 11, 12, 14, 15, 16, 17, 19, 20, 22, 23, 25, 28]",188.4650382,29004,1097,6,155,12,1.3600813284083875
undo,49,11,0,0,0,5,"[0, 1, 18, 27, 5]",5,8,"[2, 8, 11, 15, 17, 19, 22, 28]",107.2492762,30408,1404,29,105,11,1.1847514545764464
undo,49,11,0,0,0,22,"[0, 1, 18, 27, 5, 22]",6,7,"[2, 8, 11, 15, 17, 19, 28]",80.67861572,31920,1512,6,22,11,1.1632999757850198
undo,49,11,0,0,0,2,"[0, 1, 18, 27, 5, 22, 2]",7,5,"[8, 11, 15, 17, 28]",70.6287401,33233,1313,6,11,11,1.2850787617191994
undo,49,11,0,0,0,28,"[0, 1, 18, 27, 5, 22, 2, 28]",8,4,"[8, 11, 15, 17]",59.99859429,34414,1181,6,5,11,1.3888700465201538
undo,49,11,0,0,0,11,"[0, 1, 18, 27, 5, 22, 2, 28, 11]",9,3,"[8, 15, 17]",40.58210645,35297,883,2,2,11,1.4963539608445542
undo,49,11,0,0,0,15,"[0, 1, 18, 27, 5, 22, 2, 28, 11, 15]",10,2,"[8, 17]",22.47133617,36498,1201,2,0,11,1.769170486042188
undo,49,11,0,0,1,17,"[0, 1, 18, 27, 5, 22, 2, 28, 11, 15, 17]",11,0,[],9.822225531,38227,1729,1,0,11,1.9729487699677934
undo,49,11,0,1,1,17,"[0, 1, 18, 27, 5, 22, 2, 28, 11, 15, 17]",11,0,[],9.822225531,56812,18585,1,0,11,1.9729487699677934
undo,50,24,0,0,0,0,[0],1,29,"[1, 2, 3, 4, 5, 6, 7, 8, 9, 10, 11, 12, 13, 14, 15, 16, 17, 18, 19, 20, 21, 22, 23, 24, 25, 26, 27, 28, 29]",300,377,-1,4,76,10,0.0
undo,50,24,0,0,0,16,"[0, 16]",2,28,"[1, 2, 3, 4, 5, 6, 7, 8, 9, 10, 11, 12, 13, 14, 15, 17, 18, 19, 20, 21, 22, 23, 24, 25, 26, 27, 28, 29]",210.3562607,4819,4442,13,110,9,1.0
undo,50,24,0,0,0,22,"[0, 16, 22]",3,27,"[1, 2, 3, 4, 5, 6, 7, 8, 9, 10, 11, 12, 13, 14, 15, 17, 18, 19, 20, 21, 23, 24, 25, 26, 27, 28, 29]",192.3285043,6478,1659,7,54,9,1.0217425143037777
undo,50,24,0,0,0,15,"[0, 16, 22, 15]",4,24,"[2, 3, 4, 5, 6, 7, 8, 9, 10, 11, 12, 13, 14, 17, 18, 19, 21, 23, 24, 25, 26, 27, 28, 29]",171.1153009,7427,949,3,24,9,1.077448994301009
undo,50,24,0,0,0,28,"[0, 16, 22, 15, 28]",5,12,"[3, 4, 6, 8, 9, 11, 13, 21, 23, 25, 26, 27]",125.8383752,8893,1466,2,10,9,1.0579370080485104
undo,50,24,0,0,0,23,"[0, 16, 22, 15, 28, 23]",6,7,"[3, 4, 8, 9, 11, 13, 27]",106.8120776,9792,899,2,4,9,1.0965087965469686
undo,50,24,0,0,0,11,"[0, 16, 22, 15, 28, 23, 11]",7,2,"[9, 27]",79.88625355,11209,1417,2,0,9,1.0958394317987046
undo,50,24,0,0,0,27,"[0, 16, 22, 15, 28, 23, 11, 27]",8,1,[9],52.083376,16535,5326,1,0,9,1.085465547106356
undo,50,24,0,0,1,9,"[0, 16, 22, 15, 28, 23, 11, 27, 9]",9,0,[],12.52329511,18167,1632,1,0,9,1.3543056893413161
undo,50,24,0,1,1,9,"[0, 16, 22, 15, 28, 23, 11, 27, 9]",9,0,[],12.52329511,19005,838,1,0,9,1.3543056893413161
undo,51,45,0,0,0,0,[0],1,24,"[1, 2, 3, 4, 5, 6, 7, 9, 10, 11, 12, 14, 15, 16, 17, 19, 20, 21, 22, 23, 24, 25, 27, 29]",300,380,-1,6,248,10,0.0
undo,51,45,0,0,0,17,"[0, 17]",2,22,"[1, 2, 3, 4, 5, 6, 7, 9, 10, 11, 12, 14, 15, 16, 19, 20, 21, 22, 23, 24, 25, 29]",235.867325,5703,5323,1,34,10,1.0
undo,51,45,0,0,0,24,"[0, 17, 24]",3,20,"[1, 2, 3, 4, 5, 6, 7, 9, 10, 11, 12, 14, 15, 16, 19, 20, 21, 22, 23, 29]",193.8078433,6761,1058,1,33,10,1.0309432256229287
undo,51,45,0,0,0,7,"[0, 17, 24, 7]",4,18,"[1, 2, 3, 4, 5, 6, 9, 10, 12, 14, 15, 16, 19, 20, 21, 22, 23, 29]",159.3985423,7826,1065,1,32,10,1.059763151913087
undo,51,45,0,0,0,2,"[0, 17, 24, 7, 2]",5,12,"[3, 4, 6, 10, 12, 14, 16, 19, 20, 22, 23, 29]",121.3853866,9231,1405,1,23,10,1.0656581932115423
undo,51,45,0,0,0,3,"[0, 17, 24, 7, 2, 3]",6,8,"[6, 10, 12, 14, 16, 20, 22, 29]",96.06740884,11158,1927,1,13,10,1.1368250049574795
undo,51,45,0,0,0,29,"[0, 17, 24, 7, 2, 3, 29]",7,5,"[6, 10, 12, 20, 22]",76.06740884,11987,829,1,5,10,1.390376182346372
undo,51,45,0,0,0,10,"[0, 17, 24, 7, 2, 3, 29, 10]",8,2,"[6, 12]",54.52674961,12872,885,1,1,10,1.6682270697663164
undo,51,45,0,0,0,6,"[0, 17, 24, 7, 2, 3, 29, 10, 6]",9,1,[12],28.27794012,14187,1315,1,0,10,1.5776211572942243
undo,51,45,0,0,1,12,"[0, 17, 24, 7, 2, 3, 29, 10, 6, 12]",10,0,[],8.15332832,15485,1298,1,0,10,1.536035114105263
undo,51,45,1,0,0,6,"[0, 17, 24, 7, 2, 3, 29, 10, 6]",9,1,[12],28.27794012,20419,4934,1,0,10,1.5776211572942243
undo,51,45,1,0,0,10,"[0, 17, 24, 7, 2, 3, 29, 10]",8,2,"[6, 12]",54.52674961,20602,183,1,1,10,1.6682270697663164
undo,51,45,1,0,0,29,"[0, 17, 24, 7, 2, 3, 29]",7,5,"[6, 10, 12, 20, 22]",76.06740884,20786,184,1,5,10,1.390376182346372
undo,51,45,1,0,0,3,"[0, 17, 24, 7, 2, 3]",6,8,"[6, 10, 12, 14, 16, 20, 22, 29]",96.06740884,20969,183,1,13,10,1.1368250049574795
undo,51,45,1,0,0,2,"[0, 17, 24, 7, 2]",5,12,"[3, 4, 6, 10, 12, 14, 16, 19, 20, 22, 23, 29]",121.3853866,21134,165,1,23,10,1.0656581932115423
undo,51,45,1,0,0,7,"[0, 17, 24, 7]",4,18,"[1, 2, 3, 4, 5, 6, 9, 10, 12, 14, 15, 16, 19, 20, 21, 22, 23, 29]",159.3985423,21318,184,1,32,10,1.059763151913087
undo,51,45,1,0,0,24,"[0, 17, 24]",3,20,"[1, 2, 3, 4, 5, 6, 7, 9, 10, 11, 12, 14, 15, 16, 19, 20, 21, 22, 23, 29]",193.8078433,21484,166,1,33,10,1.0309432256229287
undo,51,45,1,0,0,17,"[0, 17]",2,22,"[1, 2, 3, 4, 5, 6, 7, 9, 10, 11, 12, 14, 15, 16, 19, 20, 21, 22, 23, 24, 25, 29]",235.867325,21634,150,1,34,10,1.0
undo,51,45,1,0,0,0,[0],1,24,"[1, 2, 3, 4, 5, 6, 7, 9, 10, 11, 12, 14, 15, 16, 17, 19, 20, 21, 22, 23, 24, 25, 27, 29]",300,21800,166,6,248,10,0.0
undo,51,45,0,0,0,20,"[0, 20]",2,22,"[1, 2, 3, 4, 5, 6, 7, 9, 10, 11, 12, 14, 15, 16, 17, 19, 21, 22, 23, 24, 25, 29]",207.8642306,23549,1749,1,73,9,1.0
undo,51,45,0,0,0,10,"[0, 20, 10]",3,17,"[2, 3, 4, 6, 7, 9, 12, 14, 15, 16, 17, 19, 22, 23, 24, 25, 29]",151.783931,24692,1143,28,123,8,1.0072708862872697
undo,51,45,0,0,0,6,"[0, 20, 10, 6]",4,12,"[2, 3, 7, 9, 12, 14, 16, 22, 23, 24, 25, 29]",125.5351215,25591,899,9,31,8,1.0129449322146298
undo,51,45,0,0,0,12,"[0, 20, 10, 6, 12]",5,6,"[2, 3, 7, 22, 25, 29]",105.4105098,26590,999,6,7,8,1.0241552115789474
undo,51,45,0,0,0,29,"[0, 20, 10, 6, 12, 29]",6,4,"[2, 3, 7, 22]",59.02085573,29753,3163,2,2,8,1.496216610988186
undo,51,45,0,0,0,3,"[0, 20, 10, 6, 12, 29, 3]",7,1,[2],39.02085573,31019,1266,1,0,8,1.4548317916765368
undo,51,45,0,0,1,2,"[0, 20, 10, 6, 12, 29, 3, 2]",8,0,[],13.70287793,31983,964,1,0,8,1.7081182105941874
undo,51,45,1,0,0,3,"[0, 20, 10, 6, 12, 29, 3]",7,1,[2],39.02085573,35235,3252,1,0,8,1.4548317916765368
undo,51,45,1,0,0,29,"[0, 20, 10, 6, 12, 29]",6,4,"[2, 3, 7, 22]",59.02085573,35469,234,2,2,8,1.496216610988186
undo,51,45,1,0,0,12,"[0, 20, 10, 6, 12]",5,6,"[2, 3, 7, 22, 25, 29]",105.4105098,35668,199,6,7,8,1.0241552115789474
undo,51,45,1,0,0,6,"[0, 20, 10, 6]",4,12,"[2, 3, 7, 9, 12, 14, 16, 22, 23, 24, 25, 29]",125.5351215,35835,167,9,31,8,1.0129449322146298
undo,51,45,1,0,0,10,"[0, 20, 10]",3,17,"[2, 3, 4, 6, 7, 9, 12, 14, 15, 16, 17, 19, 22, 23, 24, 25, 29]",151.783931,36035,200,28,123,8,1.0072708862872697
undo,51,45,1,0,0,20,"[0, 20]",2,22,"[1, 2, 3, 4, 5, 6, 7, 9, 10, 11, 12, 14, 15, 16, 17, 19, 21, 22, 23, 24, 25, 29]",207.8642306,36218,183,1,73,9,1.0
undo,51,45,1,0,0,0,[0],1,24,"[1, 2, 3, 4, 5, 6, 7, 9, 10, 11, 12, 14, 15, 16, 17, 19, 20, 21, 22, 23, 24, 25, 27, 29]",300,36434,216,6,248,10,0.0
undo,51,45,0,0,0,17,"[0, 17]",2,22,"[1, 2, 3, 4, 5, 6, 7, 9, 10, 11, 12, 14, 15, 16, 19, 20, 21, 22, 23, 24, 25, 29]",235.867325,39492,3058,1,34,10,1.0
undo,51,45,0,0,0,24,"[0, 17, 24]",3,20,"[1, 2, 3, 4, 5, 6, 7, 9, 10, 11, 12, 14, 15, 16, 19, 20, 21, 22, 23, 29]",193.8078433,40527,1035,1,33,10,1.0309432256229287
undo,51,45,0,0,0,7,"[0, 17, 24, 7]",4,18,"[1, 2, 3, 4, 5, 6, 9, 10, 12, 14, 15, 16, 19, 20, 21, 22, 23, 29]",159.3985423,42039,1512,1,32,10,1.059763151913087
undo,51,45,0,0,0,3,"[0, 17, 24, 7, 3]",5,9,"[2, 6, 10, 12, 14, 16, 20, 22, 29]",100.798201,51296,9257,2,23,9,1.110453139675165
undo,51,45,0,0,0,29,"[0, 17, 24, 7, 3, 29]",6,6,"[2, 6, 10, 12, 20, 22]",80.79820097,52344,1048,2,8,9,1.3610031434907464
undo,51,45,0,0,0,10,"[0, 17, 24, 7, 3, 29, 10]",7,4,"[2, 6, 12, 20]",59.25754174,53426,1082,1,3,9,1.6360767825958615
undo,51,45,1,0,0,29,"[0, 17, 24, 7, 3, 29]",6,6,"[2, 6, 10, 12, 20, 22]",80.79820097,55480,2054,2,8,9,1.3610031434907464
undo,51,45,1,0,0,3,"[0, 17, 24, 7, 3]",5,9,"[2, 6, 10, 12, 14, 16, 20, 22, 29]",100.798201,55697,217,2,23,9,1.110453139675165
undo,51,45,1,0,0,7,"[0, 17, 24, 7]",4,18,"[1, 2, 3, 4, 5, 6, 9, 10, 12, 14, 15, 16, 19, 20, 21, 22, 23, 29]",159.3985423,56097,400,1,32,10,1.059763151913087
undo,51,45,0,0,0,2,"[0, 17, 24, 7, 2]",5,12,"[3, 4, 6, 10, 12, 14, 16, 19, 20, 22, 23, 29]",121.3853866,57905,1808,1,23,10,1.0656581932115423
undo,51,45,0,0,0,3,"[0, 17, 24, 7, 2, 3]",6,8,"[6, 10, 12, 14, 16, 20, 22, 29]",96.06740884,59952,2047,1,13,10,1.1368250049574795
undo,51,45,0,0,0,29,"[0, 17, 24, 7, 2, 3, 29]",7,5,"[6, 10, 12, 20, 22]",76.06740884,61351,1399,1,5,10,1.390376182346372
undo,51,45,0,0,0,10,"[0, 17, 24, 7, 2, 3, 29, 10]",8,2,"[6, 12]",54.52674961,62668,1317,1,1,10,1.6682270697663164
undo,51,45,0,0,0,6,"[0, 17, 24, 7, 2, 3, 29, 10, 6]",9,1,[12],28.27794012,63981,1313,1,0,10,1.5776211572942243
undo,51,45,0,0,1,12,"[0, 17, 24, 7, 2, 3, 29, 10, 6, 12]",10,0,[],8.15332832,65449,1468,1,0,10,1.536035114105263
undo,51,45,0,1,1,12,"[0, 17, 24, 7, 2, 3, 29, 10, 6, 12]",10,0,[],8.15332832,66200,751,1,0,10,1.536035114105263
undo,52,32,0,0,0,0,[0],1,29,"[1, 2, 3, 4, 5, 6, 7, 8, 9, 10, 11, 12, 13, 14, 15, 16, 17, 18, 19, 20, 21, 22, 23, 24, 25, 26, 27, 28, 29]",300,371,-1,17,359,10,0.0
undo,52,32,0,0,0,15,"[0, 15]",2,24,"[2, 3, 4, 5, 6, 7, 8, 9, 10, 11, 12, 13, 14, 16, 17, 19, 20, 22, 23, 24, 25, 26, 27, 28]",214.6185032,9507,9136,11,153,9,1.0
undo,52,32,0,0,0,28,"[0, 15, 28]",3,21,"[2, 3, 5, 7, 8, 9, 10, 11, 12, 13, 14, 16, 17, 19, 20, 22, 23, 24, 25, 26, 27]",203.2167489,10223,716,11,119,9,1.000160051986942
undo,52,32,0,0,0,12,"[0, 15, 28, 12]",4,19,"[2, 3, 5, 7, 8, 9, 10, 11, 13, 16, 17, 19, 20, 22, 23, 24, 25, 26, 27]",184.243083,11338,1115,8,71,9,1.0281484763748023
undo,52,32,0,0,0,16,"[0, 15, 28, 12, 16]",5,17,"[2, 3, 5, 7, 8, 9, 10, 11, 13, 17, 19, 20, 22, 23, 24, 26, 27]",168.5906071,12408,1070,6,38,9,1.1190771370096
undo,52,32,0,0,0,27,"[0, 15, 28, 12, 16, 27]",6,6,"[3, 7, 10, 11, 22, 24]",92.31479182,19249,6841,2,3,9,1.1348918479781422
undo,52,32,0,0,0,3,"[0, 15, 28, 12, 16, 27, 3]",7,3,"[7, 11, 24]",66.81969425,20595,1346,1,2,9,1.144457863975442
undo,52,32,0,0,0,11,"[0, 15, 28, 12, 16, 27, 3, 11]",8,1,[7],51.1991949,21929,1334,1,0,9,1.18010536284934
undo,52,32,0,0,1,7,"[0, 15, 28, 12, 16, 27, 3, 11, 7]",9,0,[],6.995122688,23293,1364,1,0,9,1.1924074998895657
undo,52,32,0,1,1,7,"[0, 15, 28, 12, 16, 27, 3, 11, 7]",9,0,[],6.995122688,24281,988,1,0,9,1.1924074998895657
undo,53,15,0,0,0,0,[0],1,25,"[1, 2, 3, 4, 7, 8, 9, 10, 11, 12, 13, 14, 15, 16, 18, 20, 21, 22, 23, 24, 25, 26, 27, 28, 29]",300,361,-1,4,65,9,0.0
undo,53,15,0,0,0,7,"[0, 7]",2,23,"[1, 3, 4, 8, 9, 10, 11, 12, 13, 14, 15, 16, 18, 20, 21, 22, 23, 24, 25, 26, 27, 28, 29]",215.1884442,8894,8533,30,107,8,1.0
undo,53,15,0,0,0,16,"[0, 7, 16]",3,14,"[3, 4, 9, 10, 11, 12, 13, 14, 15, 18, 21, 22, 25, 27]",171.5306843,10359,1465,11,27,8,1.1253230463291073
undo,53,15,0,0,0,11,"[0, 7, 16, 11]",4,10,"[3, 4, 12, 13, 14, 15, 18, 21, 22, 27]",145.5114606,11727,1368,6,10,8,1.2441772230587118
undo,53,15,0,0,0,3,"[0, 7, 16, 11, 3]",5,8,"[4, 12, 13, 14, 15, 18, 21, 22]",134.1097064,12623,896,6,4,8,1.253153736954923
undo,53,15,0,0,0,22,"[0, 7, 16, 11, 3, 22]",6,5,"[4, 13, 14, 15, 18]",84.38043933,13772,1149,2,3,8,1.249784727890499
undo,53,15,0,0,0,15,"[0, 7, 16, 11, 3, 22, 15]",7,1,[13],58.76794238,15107,1335,1,0,8,1.2283958862490272
undo,53,15,0,0,1,13,"[0, 7, 16, 11, 3, 22, 15, 13]",8,0,[],43.50360486,16033,926,1,0,8,1.2803073001953094
undo,53,15,0,1,1,13,"[0, 7, 16, 11, 3, 22, 15, 13]",8,0,[],43.50360486,30841,14808,1,0,8,1.2803073001953094
undo,54,2,0,0,0,0,[0],1,23,"[1, 2, 4, 5, 6, 7, 8, 9, 12, 13, 15, 16, 17, 18, 19, 20, 22, 23, 25, 26, 27, 28, 29]",300,366,-1,70,620,10,0.0
undo,54,2,0,0,0,12,"[0, 12]",2,19,"[1, 2, 4, 5, 6, 7, 13, 15, 16, 17, 18, 19, 20, 22, 25, 26, 27, 28, 29]",186.8275652,8711,8345,3,169,10,1.0
undo,54,2,0,0,0,5,"[0, 12, 5]",3,14,"[1, 4, 6, 7, 13, 15, 16, 18, 19, 22, 25, 26, 28, 29]",157.2979191,9910,1199,2,88,10,1.0082498134695237
undo,54,2,0,0,0,22,"[0, 12, 5, 22]",4,11,"[1, 6, 7, 13, 15, 18, 19, 25, 26, 28, 29]",144.4916706,10981,1071,1,45,10,1.0077567572950326
undo,54,2,0,0,0,13,"[0, 12, 5, 22, 13]",5,9,"[1, 6, 7, 15, 18, 19, 25, 26, 29]",129.6256019,11974,993,1,39,10,1.151783231594989
undo,54,2,0,0,0,18,"[0, 12, 5, 22, 13, 18]",6,4,"[7, 15, 26, 29]",94.45459106,13107,1133,1,14,10,1.1431544953850095
undo,54,2,0,0,0,7,"[0, 12, 5, 22, 13, 18, 7]",7,3,"[15, 26, 29]",84.15896092,14006,899,1,4,10,1.1360054688421053
undo,54,2,0,0,0,26,"[0, 12, 5, 22, 13, 18, 7, 26]",8,2,"[15, 29]",61.35545242,15354,1348,1,1,10,1.1290531198668372
