condition,trial_id,map_id,undoIndicator,submit,checkEnd,currentChoice,chosen_all,n_city_all,n_within_reach,cities_reach,currentBudget,time_all,rt_all,n_opt_paths_all,n_subopt_paths_all,mas_all,tortuosity_all
undo,0,6,0,0,0,0,[0],1,29,"[1, 2, 3, 4, 5, 6, 7, 8, 9, 10, 11, 12, 13, 14, 15, 16, 17, 18, 19, 20, 21, 22, 23, 24, 25, 26, 27, 28, 29]",300,108,-1,180,4304,10,0.0
undo,0,6,0,0,0,3,"[0, 3]",2,28,"[1, 2, 4, 5, 6, 7, 8, 9, 10, 11, 12, 13, 14, 15, 16, 17, 18, 19, 20, 21, 22, 23, 24, 25, 26, 27, 28, 29]",266.4738908,5334,5226,90,1607,10,1.0
undo,0,6,0,0,0,18,"[0, 3, 18]",3,27,"[1, 2, 4, 5, 6, 7, 8, 9, 10, 11, 12, 13, 14, 15, 16, 17, 19, 20, 21, 22, 23, 24, 25, 26, 27, 28, 29]",237.4738908,6097,763,34,516,10,1.0266750028725786
undo,0,6,0,0,0,17,"[0, 3, 18, 17]",4,26,"[1, 2, 4, 5, 6, 7, 8, 9, 10, 11, 12, 13, 14, 15, 16, 19, 20, 21, 22, 23, 24, 25, 26, 27, 28, 29]",223.5455025,7715,1618,17,243,10,1.0832900829093166
undo,0,6,0,0,0,10,"[0, 3, 18, 17, 10]",5,22,"[1, 2, 4, 5, 6, 7, 8, 9, 11, 13, 14, 16, 19, 20, 21, 22, 23, 24, 26, 27, 28, 29]",203.8224196,8421,706,10,111,10,1.140294203414171
undo,0,6,0,0,0,24,"[0, 3, 18, 17, 10, 24]",6,19,"[1, 2, 4, 5, 6, 7, 8, 11, 13, 14, 16, 20, 21, 22, 23, 26, 27, 28, 29]",190.4060117,9258,837,10,80,10,1.1264281153820843
undo,0,6,0,0,0,23,"[0, 3, 18, 17, 10, 24, 23]",7,9,"[5, 6, 7, 11, 14, 16, 22, 27, 29]",129.2177775,10129,871,3,18,10,1.2725820835879924
undo,0,6,0,0,0,22,"[0, 3, 18, 17, 10, 24, 23, 22]",8,6,"[6, 11, 14, 16, 27, 29]",88.21777754,10660,531,1,5,10,1.3601236971104531
undo,0,6,0,0,0,29,"[0, 3, 18, 17, 10, 24, 23, 22, 29]",9,1,[16],37.88885941,12126,1466,1,0,10,2.460947627385582
undo,0,6,0,0,1,16,"[0, 3, 18, 17, 10, 24, 23, 22, 29, 16]",10,0,[],1.200986759,13318,1192,1,0,10,4.139618291530855
undo,0,6,1,0,0,29,"[0, 3, 18, 17, 10, 24, 23, 22, 29]",9,1,[16],37.88885941,18430,5112,1,0,10,2.460947627385582
undo,0,6,1,0,0,22,"[0, 3, 18, 17, 10, 24, 23, 22]",8,6,"[6, 11, 14, 16, 27, 29]",88.21777754,18624,194,1,5,10,1.3601236971104531
undo,0,6,1,0,0,23,"[0, 3, 18, 17, 10, 24, 23]",7,9,"[5, 6, 7, 11, 14, 16, 22, 27, 29]",129.2177775,18819,195,3,18,10,1.2725820835879924
undo,0,6,1,0,0,24,"[0, 3, 18, 17, 10, 24]",6,19,"[1, 2, 4, 5, 6, 7, 8, 11, 13, 14, 16, 20, 21, 22, 23, 26, 27, 28, 29]",190.4060117,19326,507,10,80,10,1.1264281153820843
undo,0,6,0,0,0,7,"[0, 3, 18, 17, 10, 24, 7]",7,7,"[1, 2, 8, 13, 16, 26, 29]",119.4694203,21130,1804,7,2,9,3.7594224039448885
undo,0,6,0,0,0,26,"[0, 3, 18, 17, 10, 24, 7, 26]",8,3,"[1, 2, 13]",95.38623114,21529,399,3,0,9,4.113722643581588
undo,0,6,0,0,1,2,"[0, 3, 18, 17, 10, 24, 7, 26, 2]",9,0,[],65.55336336,22124,595,1,0,9,2.9556271670125684
undo,0,6,1,0,0,26,"[0, 3, 18, 17, 10, 24, 7, 26]",8,3,"[1, 2, 13]",95.38623114,23590,1466,3,0,9,4.113722643581588
undo,0,6,0,0,1,13,"[0, 3, 18, 17, 10, 24, 7, 26, 13]",9,0,[],16.17764575,24924,1334,1,0,9,8.573167739170453
undo,0,6,1,0,0,26,"[0, 3, 18, 17, 10, 24, 7, 26]",8,3,"[1, 2, 13]",95.38623114,28493,3569,3,0,9,4.113722643581588
undo,0,6,1,0,0,7,"[0, 3, 18, 17, 10, 24, 7]",7,7,"[1, 2, 8, 13, 16, 26, 29]",119.4694203,30612,2119,7,2,9,3.7594224039448885
undo,0,6,1,0,0,24,"[0, 3, 18, 17, 10, 24]",6,19,"[1, 2, 4, 5, 6, 7, 8, 11, 13, 14, 16, 20, 21, 22, 23, 26, 27, 28, 29]",190.4060117,30973,361,10,80,10,1.1264281153820843
undo,0,6,1,0,0,10,"[0, 3, 18, 17, 10]",5,22,"[1, 2, 4, 5, 6, 7, 8, 9, 11, 13, 14, 16, 19, 20, 21, 22, 23, 24, 26, 27, 28, 29]",203.8224196,31640,667,10,111,10,1.140294203414171
undo,0,6,1,0,0,17,"[0, 3, 18, 17]",4,26,"[1, 2, 4, 5, 6, 7, 8, 9, 10, 11, 12, 13, 14, 15, 16, 19, 20, 21, 22, 23, 24, 25, 26, 27, 28, 29]",223.5455025,32348,708,17,243,10,1.0832900829093166
undo,0,6,0,0,0,10,"[0, 3, 18, 17, 10]",5,22,"[1, 2, 4, 5, 6, 7, 8, 9, 11, 13, 14, 16, 19, 20, 21, 22, 23, 24, 26, 27, 28, 29]",203.8224196,33531,1183,10,111,10,1.140294203414171
undo,0,6,0,0,0,24,"[0, 3, 18, 17, 10, 24]",6,19,"[1, 2, 4, 5, 6, 7, 8, 11, 13, 14, 16, 20, 21, 22, 23, 26, 27, 28, 29]",190.4060117,33885,354,10,80,10,1.1264281153820843
undo,0,6,0,0,0,16,"[0, 3, 18, 17, 10, 24, 16]",7,13,"[1, 2, 6, 7, 13, 14, 20, 21, 22, 23, 26, 27, 29]",134.3703088,34503,618,6,21,10,2.2946652061367843
undo,0,6,0,0,0,29,"[0, 3, 18, 17, 10, 24, 16, 29]",8,7,"[6, 14, 20, 21, 22, 23, 27]",97.68243615,35154,651,5,5,10,1.8995488998077483
undo,0,6,0,0,0,23,"[0, 3, 18, 17, 10, 24, 16, 29, 23]",9,2,"[6, 22]",50.16401866,37886,2732,2,0,10,1.8616504050291767
undo,0,6,0,0,1,6,"[0, 3, 18, 17, 10, 24, 16, 29, 23, 6]",10,0,[],14.8086796,39177,1291,1,0,10,1.7707258119152334
undo,0,6,1,0,0,23,"[0, 3, 18, 17, 10, 24, 16, 29, 23]",9,2,"[6, 22]",50.16401866,41009,1832,2,0,10,1.8616504050291767
undo,0,6,0,0,1,22,"[0, 3, 18, 17, 10, 24, 16, 29, 23, 22]",10,0,[],9.164018664,41378,369,1,0,10,1.8678286854893127
undo,0,6,1,0,0,23,"[0, 3, 18, 17, 10, 24, 16, 29, 23]",9,2,"[6, 22]",50.16401866,42134,756,2,0,10,1.8616504050291767
undo,0,6,1,0,0,29,"[0, 3, 18, 17, 10, 24, 16, 29]",8,7,"[6, 14, 20, 21, 22, 23, 27]",97.68243615,42620,486,5,5,10,1.8995488998077483
undo,0,6,0,0,1,14,"[0, 3, 18, 17, 10, 24, 16, 29, 14]",9,0,[],34.08212168,43185,565,1,0,9,1.5811367954275994
undo,0,6,1,0,0,29,"[0, 3, 18, 17, 10, 24, 16, 29]",8,7,"[6, 14, 20, 21, 22, 23, 27]",97.68243615,44655,1470,5,5,10,1.8995488998077483
undo,0,6,0,0,0,23,"[0, 3, 18, 17, 10, 24, 16, 29, 23]",9,2,"[6, 22]",50.16401866,45185,530,2,0,10,1.8616504050291767
undo,0,6,0,0,1,22,"[0, 3, 18, 17, 10, 24, 16, 29, 23, 22]",10,0,[],9.164018664,45824,639,1,0,10,1.8678286854893127
undo,0,6,0,1,1,22,"[0, 3, 18, 17, 10, 24, 16, 29, 23, 22]",10,0,[],9.164018664,51881,6057,1,0,10,1.8678286854893127
undo,1,2,0,0,0,0,[0],1,23,"[1, 2, 4, 5, 6, 7, 8, 9, 12, 13, 15, 16, 17, 18, 19, 20, 22, 23, 25, 26, 27, 28, 29]",300,114,-1,70,620,10,0.0
undo,1,2,0,0,0,19,"[0, 19]",2,22,"[1, 2, 4, 5, 6, 7, 8, 9, 12, 13, 15, 16, 17, 18, 20, 22, 23, 25, 26, 27, 28, 29]",210.306076,2717,2603,67,431,10,1.0
undo,1,2,0,0,0,12,"[0, 19, 12]",3,17,"[1, 4, 5, 6, 7, 13, 15, 16, 17, 18, 20, 22, 25, 26, 27, 28, 29]",174.2921898,3359,642,66,298,10,1.1107635036313153
undo,1,2,0,0,0,5,"[0, 19, 12, 5]",4,11,"[1, 6, 7, 13, 15, 16, 18, 22, 25, 26, 29]",144.7625437,3998,639,38,136,10,1.0968174771581647
undo,1,2,0,0,0,22,"[0, 19, 12, 5, 22]",5,8,"[1, 6, 7, 13, 15, 18, 26, 29]",131.9562952,4429,431,20,63,10,1.0889910507461968
undo,1,2,0,0,0,13,"[0, 19, 12, 5, 22, 13]",6,7,"[1, 6, 7, 15, 18, 26, 29]",117.0902265,5222,793,19,20,10,1.236526217328057
undo,1,2,0,0,0,18,"[0, 19, 12, 5, 22, 13, 18]",7,4,"[7, 15, 26, 29]",81.91921567,6006,784,10,3,10,1.2128708213409936
undo,1,2,0,0,0,7,"[0, 19, 12, 5, 22, 13, 18, 7]",8,3,"[15, 26, 29]",71.62358553,6349,343,5,0,10,1.2019811287894737
undo,1,2,0,0,0,15,"[0, 19, 12, 5, 22, 13, 18, 7, 15]",9,2,"[26, 29]",56.85876247,6868,519,2,0,10,1.2907869828541363
undo,1,2,0,0,1,26,"[0, 19, 12, 5, 22, 13, 18, 7, 15, 26]",10,0,[],32.6513256,7596,728,1,0,10,1.2648554428941847
undo,1,2,1,0,0,15,"[0, 19, 12, 5, 22, 13, 18, 7, 15]",9,2,"[26, 29]",56.85876247,8247,651,2,0,10,1.2907869828541363
undo,1,2,0,0,1,29,"[0, 19, 12, 5, 22, 13, 18, 7, 15, 29]",10,0,[],28.39826353,9006,759,1,0,10,1.4795089334237532
undo,1,2,1,0,0,15,"[0, 19, 12, 5, 22, 13, 18, 7, 15]",9,2,"[26, 29]",56.85876247,9608,602,2,0,10,1.2907869828541363
undo,1,2,0,0,1,29,"[0, 19, 12, 5, 22, 13, 18, 7, 15, 29]",10,0,[],28.39826353,11826,2218,1,0,10,1.4795089334237532
undo,1,2,0,1,1,29,"[0, 19, 12, 5, 22, 13, 18, 7, 15, 29]",10,0,[],28.39826353,15248,3422,1,0,10,1.4795089334237532
undo,2,14,0,0,0,0,[0],1,29,"[1, 2, 3, 4, 5, 6, 7, 8, 9, 10, 11, 12, 13, 14, 15, 16, 17, 18, 19, 20, 21, 22, 23, 24, 25, 26, 27, 28, 29]",300,110,-1,8,157,10,0.0
undo,2,14,0,0,0,15,"[0, 15]",2,20,"[1, 2, 3, 4, 7, 8, 9, 13, 17, 18, 19, 20, 21, 22, 23, 25, 26, 27, 28, 29]",216.7053423,1983,1873,8,102,10,1.0
undo,2,14,0,0,0,28,"[0, 15, 28]",3,17,"[1, 2, 3, 4, 7, 8, 9, 13, 17, 18, 19, 20, 22, 23, 25, 26, 27]",197.4959696,2425,442,8,48,10,1.0446007867311968
undo,2,14,0,0,0,17,"[0, 15, 28, 17]",4,14,"[1, 2, 3, 4, 7, 8, 13, 18, 19, 20, 22, 23, 25, 26]",184.0423455,2856,431,8,39,10,1.0729463354689972
undo,2,14,0,0,0,18,"[0, 15, 28, 17, 18]",5,9,"[1, 2, 4, 7, 8, 19, 23, 25, 26]",119.412631,3607,751,8,27,10,1.5035901079219378
undo,2,14,0,0,0,8,"[0, 15, 28, 17, 18, 8]",6,8,"[1, 2, 4, 7, 19, 23, 25, 26]",105.8111605,4501,894,8,18,10,1.4819689987843856
undo,2,14,0,0,0,1,"[0, 15, 28, 17, 18, 8, 1]",7,5,"[7, 19, 23, 25, 26]",82.21031307,6647,2146,4,6,10,1.4084991998385268
undo,2,14,0,0,0,19,"[0, 15, 28, 17, 18, 8, 1, 19]",8,4,"[7, 23, 25, 26]",66.97876686,7233,586,4,1,10,1.5758713333797987
undo,2,14,0,0,0,25,"[0, 15, 28, 17, 18, 8, 1, 19, 25]",9,2,"[7, 23]",31.1318702,8006,773,2,0,10,1.6426186864061416
undo,2,14,0,0,1,23,"[0, 15, 28, 17, 18, 8, 1, 19, 25, 23]",10,0,[],1.72098786,8624,618,1,0,10,1.586837442491671
undo,2,14,0,1,1,23,"[0, 15, 28, 17, 18, 8, 1, 19, 25, 23]",10,0,[],1.72098786,10486,1862,1,0,10,1.586837442491671
undo,3,1,0,0,0,0,[0],1,26,"[1, 2, 4, 5, 7, 8, 9, 10, 11, 12, 13, 14, 15, 16, 17, 18, 19, 20, 21, 22, 23, 24, 25, 26, 28, 29]",300,117,-1,6,74,7,0.0
undo,3,1,0,0,0,8,"[0, 8]",2,23,"[1, 4, 5, 7, 9, 10, 11, 12, 13, 14, 15, 16, 17, 18, 19, 20, 21, 23, 24, 25, 26, 28, 29]",202,5515,5398,1,16,7,1.0
undo,3,1,0,0,0,20,"[0, 8, 20]",3,12,"[1, 4, 5, 11, 13, 14, 15, 17, 18, 19, 28, 29]",125.9408125,6133,618,1,7,7,1.02364736730791
undo,3,1,0,0,0,5,"[0, 8, 20, 5]",4,7,"[1, 4, 11, 13, 17, 18, 29]",104.469902,6640,507,1,3,7,1.0439599203945713
undo,3,1,0,0,0,18,"[0, 8, 20, 5, 18]",5,2,"[4, 29]",81.64447755,7072,432,1,1,7,1.0840407791793756
undo,3,1,0,0,0,4,"[0, 8, 20, 5, 18, 4]",6,1,[29],42.69579336,8022,950,1,0,7,1.0902329133216275
undo,3,1,0,0,1,29,"[0, 8, 20, 5, 18, 4, 29]",7,0,[],6.640280603,12294,4272,1,0,7,1.2859729622882756
undo,3,1,1,0,0,4,"[0, 8, 20, 5, 18, 4]",6,1,[29],42.69579336,13604,1310,1,0,7,1.0902329133216275
undo,3,1,1,0,0,18,"[0, 8, 20, 5, 18]",5,2,"[4, 29]",81.64447755,13834,230,1,1,7,1.0840407791793756
undo,3,1,1,0,0,5,"[0, 8, 20, 5]",4,7,"[1, 4, 11, 13, 17, 18, 29]",104.469902,14049,215,1,3,7,1.0439599203945713
undo,3,1,1,0,0,20,"[0, 8, 20]",3,12,"[1, 4, 5, 11, 13, 14, 15, 17, 18, 19, 28, 29]",125.9408125,14320,271,1,7,7,1.02364736730791
undo,3,1,1,0,0,8,"[0, 8]",2,23,"[1, 4, 5, 7, 9, 10, 11, 12, 13, 14, 15, 16, 17, 18, 19, 20, 21, 23, 24, 25, 26, 28, 29]",202,14632,312,1,16,7,1.0
undo,3,1,1,0,0,0,[0],1,26,"[1, 2, 4, 5, 7, 8, 9, 10, 11, 12, 13, 14, 15, 16, 17, 18, 19, 20, 21, 22, 23, 24, 25, 26, 28, 29]",300,15014,382,6,74,7,0.0
undo,3,1,0,0,0,14,"[0, 14]",2,19,"[1, 4, 5, 8, 9, 13, 15, 17, 18, 19, 20, 21, 22, 23, 24, 25, 26, 28, 29]",200.1901808,15607,593,5,42,7,1.0
undo,3,1,0,0,0,17,"[0, 14, 17]",3,15,"[1, 4, 5, 8, 9, 13, 15, 18, 19, 20, 22, 23, 25, 28, 29]",147.8356204,16170,563,5,27,7,1.0028844724416826
undo,3,1,0,0,0,1,"[0, 14, 17, 1]",4,12,"[4, 5, 8, 9, 15, 18, 20, 22, 23, 25, 28, 29]",123.4840291,16669,499,5,15,7,1.0264985578353567
undo,3,1,0,0,0,28,"[0, 14, 17, 1, 28]",5,5,"[9, 15, 22, 23, 29]",88.59850198,17287,618,5,3,7,1.0339861575999345
undo,3,1,0,0,0,23,"[0, 14, 17, 1, 28, 23]",6,2,"[15, 22]",51.70676849,17926,639,2,0,7,1.0327458250705703
undo,3,1,0,0,1,15,"[0, 14, 17, 1, 28, 23, 15]",7,0,[],20.81987807,18522,596,1,0,7,1.1948681641401226
undo,3,1,1,0,0,23,"[0, 14, 17, 1, 28, 23]",6,2,"[15, 22]",51.70676849,20751,2229,2,0,7,1.0327458250705703
undo,3,1,0,0,1,22,"[0, 14, 17, 1, 28, 23, 22]",7,0,[],3.696352956,21461,710,1,0,7,1.0700788216594126
undo,3,1,1,0,0,23,"[0, 14, 17, 1, 28, 23]",6,2,"[15, 22]",51.70676849,21960,499,2,0,7,1.0327458250705703
undo,3,1,1,0,0,28,"[0, 14, 17, 1, 28]",5,5,"[9, 15, 22, 23, 29]",88.59850198,22182,222,5,3,7,1.0339861575999345
undo,3,1,1,0,0,1,"[0, 14, 17, 1]",4,12,"[4, 5, 8, 9, 15, 18, 20, 22, 23, 25, 28, 29]",123.4840291,22383,201,5,15,7,1.0264985578353567
undo,3,1,1,0,0,17,"[0, 14, 17]",3,15,"[1, 4, 5, 8, 9, 13, 15, 18, 19, 20, 22, 23, 25, 28, 29]",147.8356204,22578,195,5,27,7,1.0028844724416826
undo,3,1,1,0,0,14,"[0, 14]",2,19,"[1, 4, 5, 8, 9, 13, 15, 17, 18, 19, 20, 21, 22, 23, 24, 25, 26, 28, 29]",200.1901808,22883,305,5,42,7,1.0
undo,3,1,1,0,0,0,[0],1,26,"[1, 2, 4, 5, 7, 8, 9, 10, 11, 12, 13, 14, 15, 16, 17, 18, 19, 20, 21, 22, 23, 24, 25, 26, 28, 29]",300,23529,646,6,74,7,0.0
undo,3,1,0,0,0,24,"[0, 24]",2,8,"[5, 7, 8, 14, 16, 19, 20, 26]",185.4137879,24775,1246,9,13,5,1.0
undo,3,1,0,0,0,26,"[0, 24, 26]",3,6,"[5, 8, 14, 16, 19, 20]",152.1722476,25459,684,7,4,5,1.502125301442057
undo,3,1,0,0,0,19,"[0, 24, 26, 19]",4,4,"[5, 8, 16, 20]",113.5458318,26021,562,4,0,5,1.5438989781695114
undo,3,1,0,0,1,8,"[0, 24, 26, 19, 8]",5,0,[],60.39510274,26574,553,1,0,5,2.44494793122449
undo,3,1,1,0,0,19,"[0, 24, 26, 19]",4,4,"[5, 8, 16, 20]",113.5458318,27912,1338,4,0,5,1.5438989781695114
undo,3,1,1,0,0,26,"[0, 24, 26]",3,6,"[5, 8, 14, 16, 19, 20]",152.1722476,28120,208,7,4,5,1.502125301442057
undo,3,1,1,0,0,24,"[0, 24]",2,8,"[5, 7, 8, 14, 16, 19, 20, 26]",185.4137879,28314,194,9,13,5,1.0
undo,3,1,1,0,0,0,[0],1,26,"[1, 2, 4, 5, 7, 8, 9, 10, 11, 12, 13, 14, 15, 16, 17, 18, 19, 20, 21, 22, 23, 24, 25, 26, 28, 29]",300,28683,369,6,74,7,0.0
undo,3,1,0,0,0,14,"[0, 14]",2,19,"[1, 4, 5, 8, 9, 13, 15, 17, 18, 19, 20, 21, 22, 23, 24, 25, 26, 28, 29]",200.1901808,29868,1185,5,42,7,1.0
undo,3,1,0,0,0,17,"[0, 14, 17]",3,15,"[1, 4, 5, 8, 9, 13, 15, 18, 19, 20, 22, 23, 25, 28, 29]",147.8356204,30323,455,5,27,7,1.0028844724416826
undo,3,1,0,0,0,1,"[0, 14, 17, 1]",4,12,"[4, 5, 8, 9, 15, 18, 20, 22, 23, 25, 28, 29]",123.4840291,30743,420,5,15,7,1.0264985578353567
undo,3,1,0,0,0,28,"[0, 14, 17, 1, 28]",5,5,"[9, 15, 22, 23, 29]",88.59850198,31638,895,5,3,7,1.0339861575999345
undo,3,1,0,0,0,23,"[0, 14, 17, 1, 28, 23]",6,2,"[15, 22]",51.70676849,32588,950,2,0,7,1.0327458250705703
undo,3,1,0,0,1,15,"[0, 14, 17, 1, 28, 23, 15]",7,0,[],20.81987807,35694,3106,1,0,7,1.1948681641401226
undo,3,1,0,1,1,15,"[0, 14, 17, 1, 28, 23, 15]",7,0,[],20.81987807,37992,2298,1,0,7,1.1948681641401226
undo,4,33,0,0,0,0,[0],1,23,"[1, 2, 5, 7, 8, 11, 12, 13, 14, 15, 16, 17, 18, 19, 20, 21, 23, 24, 25, 26, 27, 28, 29]",300,107,-1,5,108,9,0.0
undo,4,33,0,0,0,8,"[0, 8]",2,22,"[1, 2, 5, 7, 11, 12, 13, 14, 15, 16, 17, 18, 19, 20, 21, 23, 24, 25, 26, 27, 28, 29]",265.8679037,2394,2287,5,87,9,1.0
undo,4,33,0,0,0,21,"[0, 8, 21]",3,16,"[2, 5, 7, 11, 13, 14, 16, 17, 18, 19, 20, 24, 26, 27, 28, 29]",166.0430571,3046,652,5,80,9,1.0670557763739492
undo,4,33,0,0,0,13,"[0, 8, 21, 13]",4,12,"[2, 7, 11, 14, 16, 17, 18, 19, 20, 24, 26, 29]",139.6422995,4248,1202,4,54,9,1.0555103820910288
undo,4,33,0,0,0,19,"[0, 8, 21, 13, 19]",5,10,"[7, 11, 14, 16, 17, 18, 20, 24, 26, 29]",114.1472019,5250,1002,3,19,9,1.1090798607799486
undo,4,33,0,0,0,7,"[0, 8, 21, 13, 19, 7]",6,5,"[14, 18, 24, 26, 29]",68.52922302,7387,2137,1,4,9,1.086202642130009
undo,4,33,0,0,0,14,"[0, 8, 21, 13, 19, 7, 14]",7,3,"[24, 26, 29]",53.66315427,7851,464,1,2,9,1.1354822367616264
undo,4,33,0,0,0,26,"[0, 8, 21, 13, 19, 7, 14, 26]",8,1,[29],41.01404363,8249,398,1,0,9,1.144734735418919
undo,4,33,0,0,1,29,"[0, 8, 21, 13, 19, 7, 14, 26, 29]",9,0,[],13.12139227,8779,530,1,0,9,1.3638482940300902
undo,4,33,0,1,1,29,"[0, 8, 21, 13, 19, 7, 14, 26, 29]",9,0,[],13.12139227,10928,2149,1,0,9,1.3638482940300902
undo,5,8,0,0,0,0,[0],1,29,"[1, 2, 3, 4, 5, 6, 7, 8, 9, 10, 11, 12, 13, 14, 15, 16, 17, 18, 19, 20, 21, 22, 23, 24, 25, 26, 27, 28, 29]",300,117,-1,10,149,9,0.0
undo,5,8,0,0,0,5,"[0, 5]",2,28,"[1, 2, 3, 4, 6, 7, 8, 9, 10, 11, 12, 13, 14, 15, 16, 17, 18, 19, 20, 21, 22, 23, 24, 25, 26, 27, 28, 29]",254.5137383,2455,2338,10,100,9,1.0
undo,5,8,0,0,0,14,"[0, 5, 14]",3,20,"[1, 2, 3, 4, 6, 7, 11, 15, 16, 17, 18, 19, 20, 21, 22, 23, 24, 25, 28, 29]",214.5512559,6317,3862,4,36,9,1.0001019035932595
undo,5,8,0,0,0,17,"[0, 5, 14, 17]",4,15,"[1, 4, 6, 7, 11, 15, 16, 18, 19, 20, 22, 23, 24, 25, 28]",177.5377449,6946,629,4,16,9,1.121197267659591
undo,5,8,0,0,0,11,"[0, 5, 14, 17, 11]",5,11,"[1, 4, 15, 16, 18, 19, 22, 23, 24, 25, 28]",152.3583883,7399,453,4,8,9,1.1277254166016362
undo,5,8,0,0,0,24,"[0, 5, 14, 17, 11, 24]",6,3,"[15, 16, 28]",115.1428001,7962,563,2,2,9,1.1227411011978805
undo,5,8,0,0,0,15,"[0, 5, 14, 17, 11, 24, 15]",7,2,"[16, 28]",98.37974552,8384,422,2,0,9,1.1956385406066814
undo,5,8,0,0,0,16,"[0, 5, 14, 17, 11, 24, 15, 16]",8,1,[28],47.30137436,9157,773,1,0,9,1.36482239111247
undo,5,8,0,0,1,28,"[0, 5, 14, 17, 11, 24, 15, 16, 28]",9,0,[],24.94069458,9753,596,1,0,9,1.632953105226947
undo,5,8,1,0,0,16,"[0, 5, 14, 17, 11, 24, 15, 16]",8,1,[28],47.30137436,12111,2358,1,0,9,1.36482239111247
undo,5,8,1,0,0,15,"[0, 5, 14, 17, 11, 24, 15]",7,2,"[16, 28]",98.37974552,12313,202,2,0,9,1.1956385406066814
undo,5,8,1,0,0,24,"[0, 5, 14, 17, 11, 24]",6,3,"[15, 16, 28]",115.1428001,12528,215,2,2,9,1.1227411011978805
undo,5,8,1,0,0,11,"[0, 5, 14, 17, 11]",5,11,"[1, 4, 15, 16, 18, 19, 22, 23, 24, 25, 28]",152.3583883,12847,319,4,8,9,1.1277254166016362
undo,5,8,1,0,0,17,"[0, 5, 14, 17]",4,15,"[1, 4, 6, 7, 11, 15, 16, 18, 19, 20, 22, 23, 24, 25, 28]",177.5377449,13188,341,4,16,9,1.121197267659591
undo,5,8,1,0,0,14,"[0, 5, 14]",3,20,"[1, 2, 3, 4, 6, 7, 11, 15, 16, 17, 18, 19, 20, 21, 22, 23, 24, 25, 28, 29]",214.5512559,13521,333,4,36,9,1.0001019035932595
undo,5,8,1,0,0,5,"[0, 5]",2,28,"[1, 2, 3, 4, 6, 7, 8, 9, 10, 11, 12, 13, 14, 15, 16, 17, 18, 19, 20, 21, 22, 23, 24, 25, 26, 27, 28, 29]",254.5137383,14167,646,10,100,9,1.0
undo,5,8,0,0,0,25,"[0, 5, 25]",3,20,"[1, 2, 3, 4, 6, 11, 12, 14, 15, 16, 17, 18, 19, 20, 21, 22, 23, 24, 28, 29]",215.3091468,14485,318,4,42,9,1.2272747879909065
undo,5,8,0,0,0,1,"[0, 5, 25, 1]",4,17,"[3, 4, 6, 11, 12, 14, 15, 16, 17, 18, 20, 21, 22, 23, 24, 28, 29]",190.3091468,15060,575,3,24,9,1.1770245007593956
undo,5,8,0,0,0,23,"[0, 5, 25, 1, 23]",5,15,"[3, 4, 6, 11, 14, 15, 16, 17, 18, 20, 21, 22, 24, 28, 29]",167.2874179,15535,475,1,14,9,1.141996583852372
undo,5,8,0,0,0,18,"[0, 5, 25, 1, 23, 18]",6,9,"[3, 4, 11, 14, 15, 16, 17, 24, 28]",125.5261919,16252,717,1,7,9,1.3199166330970717
undo,5,8,0,0,0,28,"[0, 5, 25, 1, 23, 18, 28]",7,1,[16],59.906073,18345,2093,1,0,8,1.425373059246715
undo,5,8,0,0,1,16,"[0, 5, 25, 1, 23, 18, 28, 16]",8,0,[],37.54539323,18954,609,1,0,8,1.4175143337764708
undo,5,8,1,0,0,28,"[0, 5, 25, 1, 23, 18, 28]",7,1,[16],59.906073,20536,1582,1,0,8,1.425373059246715
undo,5,8,1,0,0,18,"[0, 5, 25, 1, 23, 18]",6,9,"[3, 4, 11, 14, 15, 16, 17, 24, 28]",125.5261919,21223,687,1,7,9,1.3199166330970717
undo,5,8,0,0,0,14,"[0, 5, 25, 1, 23, 18, 14]",7,2,"[11, 17]",68.03706246,22036,813,1,1,9,2.714920831666598
undo,5,8,0,0,0,17,"[0, 5, 25, 1, 23, 18, 14, 17]",8,1,[11],31.02355141,22742,706,1,0,9,2.462600896722246
undo,5,8,0,0,1,11,"[0, 5, 25, 1, 23, 18, 14, 17, 11]",9,0,[],5.84419479,23921,1179,1,0,9,2.246839316887767
undo,5,8,0,1,1,11,"[0, 5, 25, 1, 23, 18, 14, 17, 11]",9,0,[],5.84419479,25481,1560,1,0,9,2.246839316887767
undo,6,25,0,0,0,0,[0],1,28,"[1, 2, 3, 4, 5, 7, 8, 9, 10, 11, 12, 13, 14, 15, 16, 17, 18, 19, 20, 21, 22, 23, 24, 25, 26, 27, 28, 29]",300,109,-1,5,94,10,0.0
undo,6,25,0,0,0,23,"[0, 23]",2,23,"[1, 2, 3, 5, 7, 8, 9, 11, 12, 13, 14, 16, 17, 19, 20, 21, 22, 24, 25, 26, 27, 28, 29]",259.7756293,2736,2627,3,33,10,1.0
undo,6,25,0,0,0,19,"[0, 23, 19]",3,21,"[1, 2, 3, 5, 7, 8, 9, 11, 12, 13, 14, 16, 17, 20, 21, 22, 24, 25, 27, 28, 29]",223.9287326,3342,606,3,24,10,1.583101227007039
undo,6,25,0,0,0,29,"[0, 23, 19, 29]",4,19,"[1, 2, 3, 5, 7, 8, 9, 11, 12, 13, 14, 16, 17, 20, 21, 22, 24, 25, 28]",207.649912,4368,1026,3,17,10,1.474631541426484
undo,6,25,0,0,0,22,"[0, 23, 19, 29, 22]",5,18,"[1, 2, 3, 5, 7, 8, 9, 11, 12, 13, 14, 16, 17, 20, 21, 24, 25, 28]",191.5253965,5275,907,3,14,10,1.4020377754906637
undo,6,25,0,0,0,7,"[0, 23, 19, 29, 22, 7]",6,7,"[3, 8, 9, 11, 13, 24, 28]",115.8814939,6168,893,3,11,10,1.5709678649326715
undo,6,25,0,0,0,24,"[0, 23, 19, 29, 22, 7, 24]",7,5,"[3, 8, 9, 13, 28]",91.12265712,6731,563,3,7,10,1.486191600033379
undo,6,25,0,0,0,9,"[0, 23, 19, 29, 22, 7, 24, 9]",8,4,"[3, 8, 13, 28]",73.09490075,7129,398,3,3,10,1.453504870342882
undo,6,25,0,0,0,3,"[0, 23, 19, 29, 22, 7, 24, 9, 3]",9,3,"[8, 13, 28]",42.82940885,7758,629,3,0,10,1.388955167525479
undo,6,25,0,0,1,28,"[0, 23, 19, 29, 22, 7, 24, 9, 3, 28]",10,0,[],11.52445716,9951,2193,1,0,10,1.3331084120212044
undo,6,25,0,1,1,28,"[0, 23, 19, 29, 22, 7, 24, 9, 3, 28]",10,0,[],11.52445716,13777,3826,1,0,10,1.3331084120212044
undo,7,40,0,0,0,0,[0],1,29,"[1, 2, 3, 4, 5, 6, 7, 8, 9, 10, 11, 12, 13, 14, 15, 16, 17, 18, 19, 20, 21, 22, 23, 24, 25, 26, 27, 28, 29]",300,110,-1,8,191,9,0.0
undo,7,40,0,0,0,2,"[0, 2]",2,28,"[1, 3, 4, 5, 6, 7, 8, 9, 10, 11, 12, 13, 14, 15, 16, 17, 18, 19, 20, 21, 22, 23, 24, 25, 26, 27, 28, 29]",263.7646581,9196,9086,4,79,9,1.0
undo,7,40,0,0,0,8,"[0, 2, 8]",3,16,"[5, 7, 10, 11, 14, 15, 18, 19, 20, 22, 23, 24, 25, 26, 27, 29]",138.9888592,14982,5786,16,30,6,1.0000884887877495
undo,7,40,0,0,0,7,"[0, 2, 8, 7]",4,8,"[11, 14, 22, 24, 25, 26, 27, 29]",101.1867429,15964,982,8,4,6,1.0028674595194957
undo,7,40,0,0,0,24,"[0, 2, 8, 7, 24]",5,1,[14],23.28937448,16978,1014,1,0,6,1.0075002116443845
undo,7,40,0,0,1,14,"[0, 2, 8, 7, 24, 14]",6,0,[],8.057828269,17596,618,1,0,6,1.0961567697359191
undo,7,40,1,0,0,24,"[0, 2, 8, 7, 24]",5,1,[14],23.28937448,18883,1287,1,0,6,1.0075002116443845
undo,7,40,1,0,0,7,"[0, 2, 8, 7]",4,8,"[11, 14, 22, 24, 25, 26, 27, 29]",101.1867429,19105,222,8,4,6,1.0028674595194957
undo,7,40,1,0,0,8,"[0, 2, 8]",3,16,"[5, 7, 10, 11, 14, 15, 18, 19, 20, 22, 23, 24, 25, 26, 27, 29]",138.9888592,19320,215,16,30,6,1.0000884887877495
undo,7,40,1,0,0,2,"[0, 2]",2,28,"[1, 3, 4, 5, 6, 7, 8, 9, 10, 11, 12, 13, 14, 15, 16, 17, 18, 19, 20, 21, 22, 23, 24, 25, 26, 27, 28, 29]",263.7646581,19515,195,4,79,9,1.0
undo,7,40,1,0,0,0,[0],1,29,"[1, 2, 3, 4, 5, 6, 7, 8, 9, 10, 11, 12, 13, 14, 15, 16, 17, 18, 19, 20, 21, 22, 23, 24, 25, 26, 27, 28, 29]",300,19723,208,8,191,9,0.0
undo,7,40,0,0,0,1,"[0, 1]",2,18,"[2, 5, 6, 7, 8, 9, 10, 11, 13, 15, 17, 18, 19, 21, 22, 23, 27, 29]",247.8463808,21892,2169,4,80,9,1.0
undo,7,40,0,0,0,6,"[0, 1, 6]",3,17,"[2, 5, 7, 8, 9, 10, 11, 13, 15, 17, 18, 19, 21, 22, 23, 27, 29]",227.7466295,22247,355,4,74,9,1.0459427008232034
undo,7,40,0,0,0,9,"[0, 1, 6, 9]",4,10,"[2, 5, 8, 11, 18, 19, 21, 22, 23, 27]",159.146338,23088,841,17,39,8,1.142098432552584
undo,7,40,0,0,0,18,"[0, 1, 6, 9, 18]",5,9,"[2, 5, 8, 11, 19, 21, 22, 23, 27]",142.5933926,23496,408,13,14,8,1.3288108654802917
undo,7,40,0,0,0,23,"[0, 1, 6, 9, 18, 23]",6,6,"[2, 5, 8, 19, 21, 22]",108.5933926,23982,486,6,4,8,2.0180513009829646
undo,7,40,0,0,0,5,"[0, 1, 6, 9, 18, 23, 5]",7,2,"[19, 22]",80.29144922,24489,507,2,0,8,1.786484562843798
undo,7,40,0,0,1,19,"[0, 1, 6, 9, 18, 23, 5, 19]",8,0,[],42.21258369,24964,475,1,0,8,2.512757983735243
undo,7,40,1,0,0,5,"[0, 1, 6, 9, 18, 23, 5]",7,2,"[19, 22]",80.29144922,27773,2809,2,0,8,1.786484562843798
undo,7,40,1,0,0,23,"[0, 1, 6, 9, 18, 23]",6,6,"[2, 5, 8, 19, 21, 22]",108.5933926,28286,513,6,4,8,2.0180513009829646
undo,7,40,1,0,0,18,"[0, 1, 6, 9, 18]",5,9,"[2, 5, 8, 11, 19, 21, 22, 23, 27]",142.5933926,28509,223,13,14,8,1.3288108654802917
undo,7,40,1,0,0,9,"[0, 1, 6, 9]",4,10,"[2, 5, 8, 11, 18, 19, 21, 22, 23, 27]",159.146338,28870,361,17,39,8,1.142098432552584
undo,7,40,1,0,0,6,"[0, 1, 6]",3,17,"[2, 5, 7, 8, 9, 10, 11, 13, 15, 17, 18, 19, 21, 22, 23, 27, 29]",227.7466295,29217,347,4,74,9,1.0459427008232034
undo,7,40,0,0,0,21,"[0, 1, 6, 21]",4,8,"[2, 5, 9, 17, 18, 19, 22, 23]",175.7754837,29729,512,4,25,9,1.0308822257404064
undo,7,40,0,0,0,9,"[0, 1, 6, 21, 9]",5,6,"[2, 5, 18, 19, 22, 23]",130.0699041,30292,563,4,12,9,1.377861912961129
undo,7,40,0,0,0,18,"[0, 1, 6, 21, 9, 18]",6,5,"[2, 5, 19, 22, 23]",113.5169588,30591,299,4,4,9,1.5742712168661408
undo,7,40,0,0,0,5,"[0, 1, 6, 21, 9, 18, 5]",7,3,"[19, 22, 23]",81.94165198,31022,431,2,1,9,1.7730665063055515
undo,7,40,0,0,0,23,"[0, 1, 6, 21, 9, 18, 5, 23]",8,1,[19],53.63970859,31453,431,1,0,9,2.597442759912231
undo,7,40,0,0,1,19,"[0, 1, 6, 21, 9, 18, 5, 23, 19]",9,0,[],21.68661797,32236,783,1,0,9,2.7128328554069565
undo,7,40,0,1,1,19,"[0, 1, 6, 21, 9, 18, 5, 23, 19]",9,0,[],21.68661797,33450,1214,1,0,9,2.7128328554069565
undo,8,3,0,0,0,0,[0],1,29,"[1, 2, 3, 4, 5, 6, 7, 8, 9, 10, 11, 12, 13, 14, 15, 16, 17, 18, 19, 20, 21, 22, 23, 24, 25, 26, 27, 28, 29]",300,107,-1,34,427,10,0.0
undo,8,3,0,0,0,24,"[0, 24]",2,27,"[1, 2, 3, 4, 5, 6, 7, 8, 9, 10, 11, 12, 13, 14, 15, 16, 17, 18, 19, 20, 21, 22, 25, 26, 27, 28, 29]",241.1442441,4204,4097,1,40,10,1.0
undo,8,3,0,0,0,17,"[0, 24, 17]",3,13,"[3, 4, 7, 8, 10, 14, 15, 16, 19, 20, 21, 22, 27]",171.7900806,5053,849,4,33,9,1.2532313834613698
undo,8,3,0,0,0,20,"[0, 24, 17, 20]",4,10,"[3, 4, 7, 8, 10, 14, 15, 16, 19, 21]",159.1409699,5506,453,4,21,9,1.2441552028909786
undo,8,3,0,0,0,3,"[0, 24, 17, 20, 3]",5,8,"[4, 7, 8, 10, 14, 16, 19, 21]",138.7448919,6014,508,4,12,9,1.2890100688984463
undo,8,3,1,0,0,20,"[0, 24, 17, 20]",4,10,"[3, 4, 7, 8, 10, 14, 15, 16, 19, 21]",159.1409699,7274,1260,4,21,9,1.2441552028909786
undo,8,3,1,0,0,17,"[0, 24, 17]",3,13,"[3, 4, 7, 8, 10, 14, 15, 16, 19, 20, 21, 22, 27]",171.7900806,7510,236,4,33,9,1.2532313834613698
undo,8,3,1,0,0,24,"[0, 24]",2,27,"[1, 2, 3, 4, 5, 6, 7, 8, 9, 10, 11, 12, 13, 14, 15, 16, 17, 18, 19, 20, 21, 22, 25, 26, 27, 28, 29]",241.1442441,7726,216,1,40,10,1.0
undo,8,3,1,0,0,0,[0],1,29,"[1, 2, 3, 4, 5, 6, 7, 8, 9, 10, 11, 12, 13, 14, 15, 16, 17, 18, 19, 20, 21, 22, 23, 24, 25, 26, 27, 28, 29]",300,8073,347,34,427,10,0.0
undo,8,3,0,0,0,8,"[0, 8]",2,28,"[1, 2, 3, 4, 5, 6, 7, 9, 10, 11, 12, 13, 14, 15, 16, 17, 18, 19, 20, 21, 22, 23, 24, 25, 26, 27, 28, 29]",239.9666759,8492,419,1,54,10,1.0
undo,8,3,0,0,0,24,"[0, 8, 24]",3,23,"[1, 2, 3, 4, 5, 6, 7, 10, 11, 12, 14, 15, 16, 17, 18, 19, 20, 21, 22, 25, 26, 27, 28]",227.8011509,8737,245,1,50,10,1.2267083825981846
undo,8,3,0,0,0,17,"[0, 8, 24, 17]",4,11,"[3, 4, 7, 10, 14, 15, 16, 19, 20, 21, 27]",158.4469873,9322,585,1,18,10,1.3836579788002414
undo,8,3,0,0,0,20,"[0, 8, 24, 17, 20]",5,9,"[3, 4, 7, 10, 14, 15, 16, 19, 21]",145.7978767,9632,310,1,14,10,1.3620097615632467
undo,8,3,0,0,0,3,"[0, 8, 24, 17, 20, 3]",6,5,"[4, 10, 14, 19, 21]",125.4017986,9986,354,1,11,10,1.3956695218398405
undo,8,3,0,0,0,19,"[0, 8, 24, 17, 20, 3, 19]",7,4,"[4, 10, 14, 21]",88.06548922,10538,552,1,4,10,1.4360605238855817
undo,8,3,0,0,0,21,"[0, 8, 24, 17, 20, 3, 19, 21]",8,2,"[10, 14]",75.85893361,10837,299,1,1,10,1.4576450248605066
undo,8,3,0,0,0,14,"[0, 8, 24, 17, 20, 3, 19, 21, 14]",9,1,[10],48.95168551,11800,963,1,0,10,1.9505702217699148
undo,8,3,0,0,1,10,"[0, 8, 24, 17, 20, 3, 19, 21, 14, 10]",10,0,[],3.498412803,12860,1060,1,0,10,1.8830527336542522
undo,8,3,0,1,1,10,"[0, 8, 24, 17, 20, 3, 19, 21, 14, 10]",10,0,[],3.498412803,14345,1485,1,0,10,1.8830527336542522
undo,9,43,0,0,0,0,[0],1,23,"[1, 2, 3, 4, 5, 6, 7, 9, 10, 11, 12, 14, 15, 16, 17, 19, 20, 21, 22, 23, 25, 27, 29]",300,110,-1,16,556,12,0.0
undo,9,43,0,0,0,29,"[0, 29]",2,22,"[1, 2, 3, 4, 5, 6, 7, 9, 10, 11, 12, 14, 15, 16, 17, 19, 20, 21, 22, 23, 25, 27]",277.909278,1753,1643,16,520,12,1.0
undo,9,43,0,0,0,20,"[0, 29, 20]",3,20,"[1, 2, 3, 4, 6, 7, 9, 10, 11, 12, 14, 15, 16, 17, 19, 21, 22, 23, 25, 27]",254.4785289,2261,508,15,422,12,1.082311746871282
undo,9,43,0,0,0,16,"[0, 29, 20, 16]",4,19,"[1, 2, 3, 4, 6, 7, 9, 10, 11, 12, 14, 15, 17, 19, 21, 22, 23, 25, 27]",231.8511119,2989,728,15,389,12,1.215201926898219
undo,9,43,0,0,0,15,"[0, 29, 20, 16, 15]",5,14,"[1, 2, 3, 4, 6, 7, 9, 11, 12, 14, 19, 22, 23, 25]",188.5267539,7996,5007,3,109,12,1.3482474915350444
undo,9,43,0,0,0,25,"[0, 29, 20, 16, 15, 25]",6,12,"[1, 3, 4, 6, 7, 9, 11, 12, 14, 19, 22, 23]",165.8551858,8515,519,2,43,12,1.691408721191545
undo,9,43,0,0,0,12,"[0, 29, 20, 16, 15, 25, 12]",7,11,"[1, 3, 4, 6, 7, 9, 11, 14, 19, 22, 23]",141.6684126,9067,552,2,32,12,1.6015983641428178
undo,9,43,0,0,0,3,"[0, 29, 20, 16, 15, 25, 12, 3]",8,10,"[1, 4, 6, 7, 9, 11, 14, 19, 22, 23]",128.6684126,9675,608,2,24,12,1.5379830456120627
undo,9,43,0,0,0,22,"[0, 29, 20, 16, 15, 25, 12, 3, 22]",9,6,"[1, 6, 7, 11, 14, 19]",93.95530264,10744,1069,1,11,12,1.7275686117408873
undo,9,43,0,0,0,19,"[0, 29, 20, 16, 15, 25, 12, 3, 22, 19]",10,4,"[1, 6, 7, 11]",73.33977451,11460,716,1,3,12,1.6315360037595275
undo,9,43,0,0,0,1,"[0, 29, 20, 16, 15, 25, 12, 3, 22, 19, 1]",11,1,[7],45.1617689,12365,905,1,0,12,1.7703076545303877
undo,9,43,0,0,1,7,"[0, 29, 20, 16, 15, 25, 12, 3, 22, 19, 1, 7]",12,0,[],6.951822553,13545,1180,1,0,12,1.6607094905815594
undo,9,43,0,1,1,7,"[0, 29, 20, 16, 15, 25, 12, 3, 22, 19, 1, 7]",12,0,[],6.951822553,16570,3025,1,0,12,1.6607094905815594
undo,10,4,0,0,0,0,[0],1,26,"[3, 4, 5, 6, 7, 8, 10, 11, 12, 13, 14, 15, 16, 17, 18, 19, 20, 21, 22, 23, 24, 25, 26, 27, 28, 29]",300,110,-1,4,489,10,0.0
undo,10,4,0,0,0,28,"[0, 28]",2,21,"[3, 4, 5, 6, 10, 11, 12, 13, 14, 15, 16, 17, 19, 20, 21, 22, 23, 24, 25, 26, 27]",225.9392142,3296,3186,2,216,10,1.0
undo,10,4,0,0,0,11,"[0, 28, 11]",3,16,"[3, 4, 5, 6, 12, 13, 14, 16, 17, 20, 21, 22, 23, 24, 25, 26]",177.0618165,4023,727,1,99,10,1.0005230107421244
undo,10,4,0,0,0,25,"[0, 28, 11, 25]",4,14,"[3, 4, 5, 6, 12, 13, 14, 16, 17, 20, 21, 22, 23, 24]",158.2735223,4410,387,1,47,10,1.11762077950493
undo,10,4,0,0,0,14,"[0, 28, 11, 25, 14]",5,10,"[3, 4, 5, 6, 13, 16, 17, 20, 21, 22]",142.1490068,4731,321,1,23,10,1.1558980853108136
undo,10,4,0,0,0,16,"[0, 28, 11, 25, 14, 16]",6,9,"[3, 4, 5, 6, 13, 17, 20, 21, 22]",109.5913656,5426,695,1,12,10,1.3813330703388178
undo,10,4,0,0,0,3,"[0, 28, 11, 25, 14, 16, 3]",7,2,"[17, 20]",67.96204901,6561,1135,1,1,9,1.3303913635215505
undo,10,4,0,0,0,17,"[0, 28, 11, 25, 14, 16, 3, 17]",8,1,[20],43.44674766,6960,399,1,0,9,1.5651348903256388
undo,10,4,0,0,1,20,"[0, 28, 11, 25, 14, 16, 3, 17, 20]",9,0,[],3.222376939,7557,597,1,0,9,1.624162377278743
undo,10,4,1,0,0,17,"[0, 28, 11, 25, 14, 16, 3, 17]",8,1,[20],43.44674766,8340,783,1,0,9,1.5651348903256388
undo,10,4,1,0,0,3,"[0, 28, 11, 25, 14, 16, 3]",7,2,"[17, 20]",67.96204901,8569,229,1,1,9,1.3303913635215505
undo,10,4,1,0,0,16,"[0, 28, 11, 25, 14, 16]",6,9,"[3, 4, 5, 6, 13, 17, 20, 21, 22]",109.5913656,8972,403,1,12,10,1.3813330703388178
undo,10,4,0,0,0,21,"[0, 28, 11, 25, 14, 16, 21]",7,4,"[5, 17, 20, 22]",65.38729339,9770,798,3,3,9,1.5873602666977278
undo,10,4,0,0,0,22,"[0, 28, 11, 25, 14, 16, 21, 22]",8,3,"[5, 17, 20]",54.34193237,10157,387,3,0,9,1.5483300526954302
undo,10,4,0,0,1,20,"[0, 28, 11, 25, 14, 16, 21, 22, 20]",9,0,[],24.10949946,10643,486,1,0,9,1.5098543030434866
undo,10,4,1,0,0,22,"[0, 28, 11, 25, 14, 16, 21, 22]",8,3,"[5, 17, 20]",54.34193237,13549,2906,3,0,9,1.5483300526954302
undo,10,4,1,0,0,21,"[0, 28, 11, 25, 14, 16, 21]",7,4,"[5, 17, 20, 22]",65.38729339,13889,340,3,3,9,1.5873602666977278
undo,10,4,1,0,0,16,"[0, 28, 11, 25, 14, 16]",6,9,"[3, 4, 5, 6, 13, 17, 20, 21, 22]",109.5913656,14223,334,1,12,10,1.3813330703388178
undo,10,4,1,0,0,14,"[0, 28, 11, 25, 14]",5,10,"[3, 4, 5, 6, 13, 16, 17, 20, 21, 22]",142.1490068,14584,361,1,23,10,1.1558980853108136
undo,10,4,1,0,0,25,"[0, 28, 11, 25]",4,14,"[3, 4, 5, 6, 12, 13, 14, 16, 17, 20, 21, 22, 23, 24]",158.2735223,15313,729,1,47,10,1.11762077950493
undo,10,4,0,0,0,16,"[0, 28, 11, 25, 16]",5,11,"[3, 4, 5, 6, 13, 14, 17, 20, 21, 22, 24]",136.7328631,15784,471,21,54,9,1.1844331335612222
undo,10,4,0,0,0,21,"[0, 28, 11, 25, 16, 21]",6,9,"[3, 4, 5, 13, 14, 17, 20, 22, 24]",92.52879085,16336,552,5,10,9,1.4037242852148522
undo,10,4,0,0,0,22,"[0, 28, 11, 25, 16, 21, 22]",7,5,"[3, 5, 17, 20, 24]",81.48342983,16657,321,5,2,9,1.3772630220137043
undo,10,4,0,0,0,20,"[0, 28, 11, 25, 16, 21, 22, 20]",8,2,"[5, 17]",51.25099692,17198,541,2,0,9,1.3613181749389838
undo,10,4,0,0,1,5,"[0, 28, 11, 25, 16, 21, 22, 20, 5]",9,0,[],20.83718426,17773,575,1,0,9,1.4139584665752112
undo,10,4,1,0,0,20,"[0, 28, 11, 25, 16, 21, 22, 20]",8,2,"[5, 17]",51.25099692,19230,1457,2,0,9,1.3613181749389838
undo,10,4,1,0,0,22,"[0, 28, 11, 25, 16, 21, 22]",7,5,"[3, 5, 17, 20, 24]",81.48342983,21154,1924,5,2,9,1.3772630220137043
undo,10,4,1,0,0,21,"[0, 28, 11, 25, 16, 21]",6,9,"[3, 4, 5, 13, 14, 17, 20, 22, 24]",92.52879085,21369,215,5,10,9,1.4037242852148522
undo,10,4,1,0,0,16,"[0, 28, 11, 25, 16]",5,11,"[3, 4, 5, 6, 13, 14, 17, 20, 21, 22, 24]",136.7328631,21585,216,21,54,9,1.1844331335612222
undo,10,4,1,0,0,25,"[0, 28, 11, 25]",4,14,"[3, 4, 5, 6, 12, 13, 14, 16, 17, 20, 21, 22, 23, 24]",158.2735223,21904,319,1,47,10,1.11762077950493
undo,10,4,1,0,0,11,"[0, 28, 11]",3,16,"[3, 4, 5, 6, 12, 13, 14, 16, 17, 20, 21, 22, 23, 24, 25, 26]",177.0618165,22182,278,1,99,10,1.0005230107421244
undo,10,4,1,0,0,28,"[0, 28]",2,21,"[3, 4, 5, 6, 10, 11, 12, 13, 14, 15, 16, 17, 19, 20, 21, 22, 23, 24, 25, 26, 27]",225.9392142,22515,333,2,216,10,1.0
undo,10,4,1,0,0,0,[0],1,26,"[3, 4, 5, 6, 7, 8, 10, 11, 12, 13, 14, 15, 16, 17, 18, 19, 20, 21, 22, 23, 24, 25, 26, 27, 28, 29]",300,22856,341,4,489,10,0.0
undo,10,4,0,0,0,13,"[0, 13]",2,23,"[3, 4, 5, 6, 7, 10, 11, 12, 14, 15, 16, 17, 19, 20, 21, 22, 23, 24, 25, 26, 27, 28, 29]",232.1030192,23275,419,2,270,10,1.0
undo,10,4,0,0,0,28,"[0, 13, 28]",3,19,"[3, 4, 5, 6, 10, 11, 12, 14, 15, 16, 17, 19, 20, 21, 22, 23, 24, 25, 26]",200.5277124,24159,884,2,221,10,1.3431168257921573
undo,10,4,0,0,0,11,"[0, 13, 28, 11]",4,13,"[3, 4, 5, 6, 12, 14, 16, 17, 20, 21, 22, 24, 25]",151.6503148,24778,619,1,107,10,1.2073325752283492
undo,10,4,0,0,0,25,"[0, 13, 28, 11, 25]",5,10,"[3, 4, 5, 6, 14, 16, 17, 20, 21, 22]",132.8620205,25330,552,1,45,10,1.318009746415006
undo,10,4,0,0,0,14,"[0, 13, 28, 11, 25, 14]",6,9,"[3, 4, 5, 6, 16, 17, 20, 21, 22]",116.737505,25804,474,21,12,9,1.3419793109023184
undo,10,4,1,0,0,25,"[0, 13, 28, 11, 25]",5,10,"[3, 4, 5, 6, 14, 16, 17, 20, 21, 22]",132.8620205,26752,948,1,45,10,1.318009746415006
undo,10,4,0,0,0,16,"[0, 13, 28, 11, 25, 16]",6,9,"[3, 4, 5, 6, 14, 17, 20, 21, 22]",111.3213613,27094,342,1,18,10,1.3687826926761442
undo,10,4,0,0,0,17,"[0, 13, 28, 11, 25, 16, 17]",7,6,"[3, 5, 14, 20, 21, 22]",85.24455169,28031,937,1,7,10,1.310142210132877
undo,10,4,0,0,0,20,"[0, 13, 28, 11, 25, 16, 17, 20]",8,3,"[5, 21, 22]",45.02018097,30893,2862,1,2,10,1.395417298523036
undo,10,4,0,0,0,22,"[0, 13, 28, 11, 25, 16, 17, 20, 22]",9,1,[21],14.78774805,31434,541,1,0,10,1.79763158340987
undo,10,4,0,0,1,21,"[0, 13, 28, 11, 25, 16, 17, 20, 22, 21]",10,0,[],3.742387033,32063,629,1,0,10,2.0044420028462557
undo,10,4,0,1,1,21,"[0, 13, 28, 11, 25, 16, 17, 20, 22, 21]",10,0,[],3.742387033,34110,2047,1,0,10,2.0044420028462557
undo,11,23,0,0,0,0,[0],1,28,"[1, 2, 3, 4, 5, 6, 7, 8, 9, 10, 11, 12, 13, 14, 15, 16, 17, 18, 19, 20, 21, 22, 23, 25, 26, 27, 28, 29]",300,156,-1,76,2626,10,0.0
undo,11,23,0,0,0,22,"[0, 22]",2,24,"[1, 2, 3, 5, 6, 7, 8, 9, 10, 11, 12, 13, 14, 15, 17, 18, 19, 20, 21, 23, 25, 26, 27, 29]",210.5013967,2756,2600,15,1362,10,1.0
undo,11,23,0,0,0,13,"[0, 22, 13]",3,14,"[1, 2, 5, 6, 7, 8, 9, 10, 12, 14, 18, 21, 27, 29]",168.3113504,3440,684,14,522,10,1.1898173563652046
undo,11,23,0,0,0,12,"[0, 22, 13, 12]",4,11,"[1, 2, 6, 7, 9, 10, 14, 18, 21, 27, 29]",156.2283045,4433,993,12,166,10,1.1727968780218219
undo,11,23,0,0,0,2,"[0, 22, 13, 12, 2]",5,9,"[1, 6, 7, 9, 10, 14, 18, 27, 29]",142.3358605,5006,573,4,38,10,1.1553975034701014
undo,11,23,0,0,0,9,"[0, 22, 13, 12, 2, 9]",6,7,"[6, 7, 10, 14, 18, 27, 29]",129.2974557,6110,1104,1,12,10,1.3065798464766785
undo,11,23,0,0,0,14,"[0, 22, 13, 12, 2, 9, 14]",7,6,"[6, 7, 10, 18, 27, 29]",118.8571492,6882,772,1,6,10,1.2857038452263323
undo,11,23,0,0,0,29,"[0, 22, 13, 12, 2, 9, 14, 29]",8,2,"[7, 10]",71.42298425,8292,1410,1,1,10,1.4822676597092734
undo,11,23,0,0,0,7,"[0, 22, 13, 12, 2, 9, 14, 29, 7]",9,1,[10],47.3397951,9209,917,1,0,10,1.5022275496758202
undo,11,23,0,0,1,10,"[0, 22, 13, 12, 2, 9, 14, 29, 7, 10]",10,0,[],19.88073466,10091,882,1,0,10,1.46560906518872
undo,11,23,1,0,0,7,"[0, 22, 13, 12, 2, 9, 14, 29, 7]",9,1,[10],47.3397951,11297,1206,1,0,10,1.5022275496758202
undo,11,23,1,0,0,29,"[0, 22, 13, 12, 2, 9, 14, 29]",8,2,"[7, 10]",71.42298425,11533,236,1,1,10,1.4822676597092734
undo,11,23,1,0,0,14,"[0, 22, 13, 12, 2, 9, 14]",7,6,"[6, 7, 10, 18, 27, 29]",118.8571492,11984,451,1,6,10,1.2857038452263323
undo,11,23,0,0,0,6,"[0, 22, 13, 12, 2, 9, 14, 6]",8,2,"[27, 29]",89.99540978,12394,410,2,0,9,1.3977649523046436
undo,11,23,0,0,1,27,"[0, 22, 13, 12, 2, 9, 14, 6, 27]",9,0,[],61.69346638,12958,564,1,0,9,1.6644050276003954
undo,11,23,1,0,0,6,"[0, 22, 13, 12, 2, 9, 14, 6]",8,2,"[27, 29]",89.99540978,14394,1436,2,0,9,1.3977649523046436
undo,11,23,1,0,0,14,"[0, 22, 13, 12, 2, 9, 14]",7,6,"[6, 7, 10, 18, 27, 29]",118.8571492,16624,2230,1,6,10,1.2857038452263323
undo,11,23,1,0,0,9,"[0, 22, 13, 12, 2, 9]",6,7,"[6, 7, 10, 14, 18, 27, 29]",129.2974557,18028,1404,1,12,10,1.3065798464766785
undo,11,23,1,0,0,2,"[0, 22, 13, 12, 2]",5,9,"[1, 6, 7, 9, 10, 14, 18, 27, 29]",142.3358605,18583,555,4,38,10,1.1553975034701014
undo,11,23,0,0,0,6,"[0, 22, 13, 12, 2, 6]",6,7,"[7, 9, 10, 14, 18, 27, 29]",123.8967716,18956,373,2,8,10,1.1721216207100664
undo,11,23,0,0,0,9,"[0, 22, 13, 12, 2, 6, 9]",7,4,"[7, 14, 27, 29]",92.75194856,19607,651,1,3,10,1.5863039906257914
undo,11,23,0,0,0,14,"[0, 22, 13, 12, 2, 6, 9, 14]",8,3,"[7, 27, 29]",82.31164205,20082,475,1,2,10,1.5450941488512846
undo,11,23,0,0,0,29,"[0, 22, 13, 12, 2, 6, 9, 14, 29]",9,1,[7],34.87747715,20712,630,1,0,10,1.719256593632765
undo,11,23,0,0,1,7,"[0, 22, 13, 12, 2, 6, 9, 14, 29, 7]",10,0,[],10.79428799,21441,729,1,0,10,1.7195141129446352
undo,11,23,0,1,1,7,"[0, 22, 13, 12, 2, 6, 9, 14, 29, 7]",10,0,[],10.79428799,23028,1587,1,0,10,1.7195141129446352
undo,12,11,0,0,0,0,[0],1,25,"[1, 2, 3, 4, 5, 6, 8, 9, 10, 11, 12, 13, 14, 15, 16, 17, 18, 19, 20, 22, 23, 25, 26, 27, 28]",300,109,-1,6,374,12,0.0
undo,12,11,0,0,0,1,"[0, 1]",2,24,"[2, 3, 4, 5, 6, 8, 9, 10, 11, 12, 13, 14, 15, 16, 17, 18, 19, 20, 22, 23, 25, 26, 27, 28]",264.6446609,2751,2642,6,217,12,1.0
undo,12,11,0,0,0,18,"[0, 1, 18]",3,19,"[2, 4, 5, 6, 8, 9, 11, 12, 14, 15, 16, 17, 19, 20, 22, 23, 25, 27, 28]",212.3187591,3823,1072,6,161,12,1.3884463804898786
undo,12,11,0,0,0,27,"[0, 1, 18, 27]",4,18,"[2, 4, 5, 6, 8, 9, 11, 12, 14, 15, 16, 17, 19, 20, 22, 23, 25, 28]",188.4650382,4364,541,6,155,12,1.3600813284083875
undo,12,11,0,0,0,8,"[0, 1, 18, 27, 8]",5,11,"[2, 5, 6, 11, 12, 15, 17, 19, 22, 25, 28]",118.2510795,6522,2158,4,75,12,1.2516561493067806
undo,12,11,0,0,0,17,"[0, 1, 18, 27, 8, 17]",6,10,"[2, 5, 6, 11, 12, 15, 19, 22, 25, 28]",103.9332585,7330,808,4,40,12,1.3330781007673067
undo,12,11,0,0,0,15,"[0, 1, 18, 27, 8, 17, 15]",7,7,"[2, 5, 11, 12, 19, 22, 28]",91.28414782,7684,354,4,35,12,1.3305073448996472
undo,12,11,0,0,0,11,"[0, 1, 18, 27, 8, 17, 15, 11]",8,5,"[2, 5, 19, 22, 28]",73.17337754,8192,508,4,17,12,1.308363545391271
undo,12,11,0,0,0,28,"[0, 1, 18, 27, 8, 17, 15, 11, 28]",9,3,"[2, 5, 22]",53.7568897,8778,586,3,3,12,1.4249903205603536
undo,12,11,0,0,0,5,"[0, 1, 18, 27, 8, 17, 15, 11, 28, 5]",10,2,"[2, 22]",35.86834588,10288,1510,1,1,12,1.623497724154086
undo,12,11,0,0,0,2,"[0, 1, 18, 27, 8, 17, 15, 11, 28, 5, 2]",11,1,[22],18.86834588,10741,453,1,0,12,1.5750723003139413
undo,12,11,0,0,1,22,"[0, 1, 18, 27, 8, 17, 15, 11, 28, 5, 2, 22]",12,0,[],8.818470263,11172,431,1,0,12,1.5444525284394994
undo,12,11,0,1,1,22,"[0, 1, 18, 27, 8, 17, 15, 11, 28, 5, 2, 22]",12,0,[],8.818470263,12798,1626,1,0,12,1.5444525284394994
undo,13,29,0,0,0,0,[0],1,29,"[1, 2, 3, 4, 5, 6, 7, 8, 9, 10, 11, 12, 13, 14, 15, 16, 17, 18, 19, 20, 21, 22, 23, 24, 25, 26, 27, 28, 29]",300,110,-1,1,78,9,0.0
undo,13,29,0,0,0,6,"[0, 6]",2,28,"[1, 2, 3, 4, 5, 7, 8, 9, 10, 11, 12, 13, 14, 15, 16, 17, 18, 19, 20, 21, 22, 23, 24, 25, 26, 27, 28, 29]",228.4108947,11779,11669,1,25,9,1.0
undo,13,29,0,0,0,28,"[0, 6, 28]",3,24,"[1, 3, 4, 5, 7, 9, 10, 11, 12, 13, 14, 15, 16, 17, 18, 20, 21, 22, 23, 24, 25, 26, 27, 29]",187.1798384,12550,771,1,22,9,1.162106788166845
undo,13,29,0,0,0,27,"[0, 6, 28, 27]",4,19,"[1, 3, 4, 5, 7, 9, 10, 11, 12, 13, 14, 15, 16, 21, 22, 23, 25, 26, 29]",166.6615539,12849,299,1,21,9,1.2307173895439045
undo,13,29,0,0,0,22,"[0, 6, 28, 27, 22]",5,13,"[1, 3, 4, 5, 7, 9, 12, 13, 14, 15, 21, 26, 29]",133.4200136,13391,542,1,19,9,1.4241767805149903
undo,13,29,0,0,0,12,"[0, 6, 28, 27, 22, 12]",6,8,"[4, 5, 7, 9, 13, 14, 21, 26]",95.4726817,14041,650,1,6,9,1.3248355326460857
undo,13,29,0,0,0,7,"[0, 6, 28, 27, 22, 12, 7]",7,4,"[4, 5, 9, 21]",81.87121119,14363,322,1,3,9,1.3264091962339806
undo,13,29,0,0,1,5,"[0, 6, 28, 27, 22, 12, 7, 5]",8,0,[],18.34169049,15343,980,1,0,8,2.2667254479137124
undo,13,29,1,0,0,7,"[0, 6, 28, 27, 22, 12, 7]",7,4,"[4, 5, 9, 21]",81.87121119,16514,1171,1,3,9,1.3264091962339806
undo,13,29,1,0,0,12,"[0, 6, 28, 27, 22, 12]",6,8,"[4, 5, 7, 9, 13, 14, 21, 26]",95.4726817,16730,216,1,6,9,1.3248355326460857
undo,13,29,1,0,0,22,"[0, 6, 28, 27, 22]",5,13,"[1, 3, 4, 5, 7, 9, 12, 13, 14, 15, 21, 26, 29]",133.4200136,17223,493,1,19,9,1.4241767805149903
undo,13,29,1,0,0,27,"[0, 6, 28, 27]",4,19,"[1, 3, 4, 5, 7, 9, 10, 11, 12, 13, 14, 15, 16, 21, 22, 23, 25, 26, 29]",166.6615539,17417,194,1,21,9,1.2307173895439045
undo,13,29,1,0,0,28,"[0, 6, 28]",3,24,"[1, 3, 4, 5, 7, 9, 10, 11, 12, 13, 14, 15, 16, 17, 18, 20, 21, 22, 23, 24, 25, 26, 27, 29]",187.1798384,17612,195,1,22,9,1.162106788166845
undo,13,29,1,0,0,6,"[0, 6]",2,28,"[1, 2, 3, 4, 5, 7, 8, 9, 10, 11, 12, 13, 14, 15, 16, 17, 18, 19, 20, 21, 22, 23, 24, 25, 26, 27, 28, 29]",228.4108947,17938,326,1,25,9,1.0
undo,13,29,1,0,0,0,[0],1,29,"[1, 2, 3, 4, 5, 6, 7, 8, 9, 10, 11, 12, 13, 14, 15, 16, 17, 18, 19, 20, 21, 22, 23, 24, 25, 26, 27, 28, 29]",300,18265,327,1,78,9,0.0
undo,13,29,0,0,0,25,"[0, 25]",2,18,"[1, 2, 4, 5, 6, 7, 9, 10, 12, 13, 14, 15, 16, 17, 22, 26, 27, 28]",223.3449284,19977,1712,13,101,8,1.0
undo,13,29,0,0,0,17,"[0, 25, 17]",3,13,"[1, 4, 5, 6, 7, 9, 10, 12, 13, 14, 22, 27, 28]",188.41643,20656,679,2,22,8,1.014228463693056
undo,13,29,0,0,0,1,"[0, 25, 17, 1]",4,11,"[4, 5, 6, 7, 10, 12, 13, 14, 22, 27, 28]",149.5191293,21107,451,2,18,8,1.7553639368828857
undo,13,29,0,0,0,14,"[0, 25, 17, 1, 14]",5,8,"[4, 5, 7, 12, 13, 22, 27, 28]",106.5656662,21725,618,2,9,8,2.137167642879409
undo,13,29,0,0,0,13,"[0, 25, 17, 1, 14, 13]",6,4,"[4, 5, 12, 22]",88.53790978,22112,387,2,3,8,1.9535489858276616
undo,13,29,0,0,0,5,"[0, 25, 17, 1, 14, 13, 5]",7,2,"[4, 22]",62.82798951,22543,431,2,0,8,1.9087092890879327
undo,13,29,0,0,1,22,"[0, 25, 17, 1, 14, 13, 5, 22]",8,0,[],8.486476834,23524,981,1,0,8,2.492296943176698
undo,13,29,1,0,0,5,"[0, 25, 17, 1, 14, 13, 5]",7,2,"[4, 22]",62.82798951,24696,1172,2,0,8,1.9087092890879327
undo,13,29,1,0,0,13,"[0, 25, 17, 1, 14, 13]",6,4,"[4, 5, 12, 22]",88.53790978,25467,771,2,3,8,1.9535489858276616
undo,13,29,1,0,0,14,"[0, 25, 17, 1, 14]",5,8,"[4, 5, 7, 12, 13, 22, 27, 28]",106.5656662,26092,625,2,9,8,2.137167642879409
undo,13,29,1,0,0,1,"[0, 25, 17, 1]",4,11,"[4, 5, 6, 7, 10, 12, 13, 14, 22, 27, 28]",149.5191293,26335,243,2,18,8,1.7553639368828857
undo,13,29,1,0,0,17,"[0, 25, 17]",3,13,"[1, 4, 5, 6, 7, 9, 10, 12, 13, 14, 22, 27, 28]",188.41643,26536,201,2,22,8,1.014228463693056
undo,13,29,1,0,0,25,"[0, 25]",2,18,"[1, 2, 4, 5, 6, 7, 9, 10, 12, 13, 14, 15, 16, 17, 22, 26, 27, 28]",223.3449284,26731,195,13,101,8,1.0
undo,13,29,1,0,0,0,[0],1,29,"[1, 2, 3, 4, 5, 6, 7, 8, 9, 10, 11, 12, 13, 14, 15, 16, 17, 18, 19, 20, 21, 22, 23, 24, 25, 26, 27, 28, 29]",300,27203,472,1,78,9,0.0
undo,13,29,0,0,0,28,"[0, 28]",2,28,"[1, 2, 3, 4, 5, 6, 7, 8, 9, 10, 11, 12, 13, 14, 15, 16, 17, 18, 19, 20, 21, 22, 23, 24, 25, 26, 27, 29]",202.9175608,27882,679,7,62,8,1.0
undo,13,29,0,0,0,27,"[0, 28, 27]",3,23,"[1, 3, 4, 5, 6, 7, 9, 10, 11, 12, 13, 14, 15, 16, 17, 18, 21, 22, 23, 24, 25, 26, 29]",182.3992763,28193,311,7,51,8,1.0854577949107957
undo,13,29,0,0,0,22,"[0, 28, 27, 22]",4,18,"[1, 3, 4, 5, 6, 7, 9, 11, 12, 13, 14, 15, 16, 21, 23, 25, 26, 29]",149.157736,28757,564,7,34,8,1.289627010733819
undo,13,29,0,0,0,12,"[0, 28, 27, 22, 12]",5,10,"[4, 5, 7, 9, 13, 14, 21, 23, 26, 29]",111.2104041,29277,520,5,8,8,1.2228936795394132
undo,13,29,0,0,0,7,"[0, 28, 27, 22, 12, 7]",6,5,"[4, 5, 9, 13, 21]",97.60893357,29588,311,4,2,8,1.2307104129303603
undo,13,29,0,0,0,9,"[0, 28, 27, 22, 12, 7, 9]",7,2,"[4, 21]",68.54004986,30140,552,2,0,8,1.2260294853044633
undo,13,29,0,0,1,4,"[0, 28, 27, 22, 12, 7, 9, 4]",8,0,[],27.5034808,30937,797,1,0,8,1.5501534531032373
undo,13,29,0,1,1,4,"[0, 28, 27, 22, 12, 7, 9, 4]",8,0,[],27.5034808,33464,2527,1,0,8,1.5501534531032373
undo,14,20,0,0,0,0,[0],1,21,"[1, 2, 3, 4, 5, 6, 7, 8, 9, 12, 17, 18, 20, 21, 22, 23, 25, 26, 27, 28, 29]",300,109,-1,1,9,9,0.0
undo,14,20,0,0,0,12,"[0, 12]",2,20,"[1, 2, 3, 4, 5, 6, 7, 8, 9, 17, 18, 20, 21, 22, 23, 25, 26, 27, 28, 29]",271.5570747,1583,1474,1,8,9,1.0
undo,14,20,0,0,0,1,"[0, 12, 1]",3,12,"[3, 4, 5, 6, 8, 9, 20, 21, 23, 27, 28, 29]",189.5692707,2819,1236,1,6,9,1.0757997779162911
undo,14,20,0,0,0,5,"[0, 12, 1, 5]",4,10,"[4, 6, 8, 9, 20, 21, 23, 27, 28, 29]",152.8950291,3801,982,1,5,9,1.1708231454516806
undo,14,20,0,0,0,21,"[0, 12, 1, 5, 21]",5,8,"[4, 6, 8, 9, 20, 23, 27, 28]",107.8950291,4507,706,1,4,9,1.126197336199212
undo,14,20,0,0,0,8,"[0, 12, 1, 5, 21, 8]",6,5,"[6, 9, 23, 27, 28]",90.43077988,4971,464,1,3,9,1.140007470699913
undo,14,20,0,0,0,23,"[0, 12, 1, 5, 21, 8, 23]",7,2,"[6, 9]",45.74297394,6876,1905,1,1,9,1.1162257896627588
undo,14,20,0,0,0,9,"[0, 12, 1, 5, 21, 8, 23, 9]",8,1,[6],26.53360123,7989,1113,1,0,9,1.1086880559449597
undo,14,20,0,0,1,6,"[0, 12, 1, 5, 21, 8, 23, 9, 6]",9,0,[],3.511872362,8717,728,1,0,9,1.1186240265999328
undo,14,20,0,1,1,6,"[0, 12, 1, 5, 21, 8, 23, 9, 6]",9,0,[],3.511872362,10998,2281,1,0,9,1.1186240265999328
undo,15,21,0,0,0,0,[0],1,29,"[1, 2, 3, 4, 5, 6, 7, 8, 9, 10, 11, 12, 13, 14, 15, 16, 17, 18, 19, 20, 21, 22, 23, 24, 25, 26, 27, 28, 29]",300,110,-1,84,830,9,0.0
undo,15,21,0,0,0,25,"[0, 25]",2,26,"[1, 2, 3, 4, 5, 6, 7, 8, 9, 10, 11, 12, 13, 14, 15, 16, 17, 18, 20, 21, 22, 23, 24, 26, 27, 29]",240.1836143,2675,2565,30,238,9,1.0
undo,15,21,0,0,0,23,"[0, 25, 23]",3,21,"[1, 2, 4, 6, 7, 8, 9, 10, 11, 12, 14, 15, 16, 17, 18, 20, 21, 22, 24, 27, 29]",196.8592562,3273,598,14,80,9,1.0416131642057598
undo,15,21,0,0,0,21,"[0, 25, 23, 21]",4,14,"[1, 4, 6, 8, 9, 14, 15, 16, 17, 18, 20, 22, 24, 29]",167.2450705,3814,541,10,25,9,1.4768792067751173
undo,15,21,0,0,0,14,"[0, 25, 23, 21, 14]",5,10,"[4, 8, 9, 15, 16, 17, 18, 22, 24, 29]",141.6325735,4311,497,8,13,9,1.3826076066332742
undo,15,21,0,0,0,4,"[0, 25, 23, 21, 14, 4]",6,7,"[8, 15, 16, 17, 18, 24, 29]",127.4904379,4676,365,8,3,9,1.3487191473328533
undo,15,21,0,0,0,16,"[0, 25, 23, 21, 14, 4, 16]",7,3,"[8, 15, 24]",82.89223163,5327,651,4,1,9,1.3301484172843694
undo,15,21,0,0,0,8,"[0, 25, 23, 21, 14, 4, 16, 8]",8,2,"[15, 24]",64.2911564,5747,420,2,0,9,1.3009886562393016
undo,15,21,0,0,1,15,"[0, 25, 23, 21, 14, 4, 16, 8, 15]",9,0,[],39.2911564,6323,576,1,0,9,1.5486591410600183
undo,15,21,0,1,1,15,"[0, 25, 23, 21, 14, 4, 16, 8, 15]",9,0,[],39.2911564,11757,5434,1,0,9,1.5486591410600183
undo,16,32,0,0,0,0,[0],1,29,"[1, 2, 3, 4, 5, 6, 7, 8, 9, 10, 11, 12, 13, 14, 15, 16, 17, 18, 19, 20, 21, 22, 23, 24, 25, 26, 27, 28, 29]",300,117,-1,17,359,10,0.0
undo,16,32,0,0,0,15,"[0, 15]",2,24,"[2, 3, 4, 5, 6, 7, 8, 9, 10, 11, 12, 13, 14, 16, 17, 19, 20, 22, 23, 24, 25, 26, 27, 28]",214.6185032,3231,3114,11,153,9,1.0
undo,16,32,0,0,0,28,"[0, 15, 28]",3,21,"[2, 3, 5, 7, 8, 9, 10, 11, 12, 13, 14, 16, 17, 19, 20, 22, 23, 24, 25, 26, 27]",203.2167489,3706,475,11,119,9,1.000160051986942
undo,16,32,0,0,0,12,"[0, 15, 28, 12]",4,19,"[2, 3, 5, 7, 8, 9, 10, 11, 13, 16, 17, 19, 20, 22, 23, 24, 25, 26, 27]",184.243083,4181,475,8,71,9,1.0281484763748023
undo,16,32,0,0,0,16,"[0, 15, 28, 12, 16]",5,17,"[2, 3, 5, 7, 8, 9, 10, 11, 13, 17, 19, 20, 22, 23, 24, 26, 27]",168.5906071,4710,529,6,38,9,1.1190771370096
undo,16,32,0,0,0,22,"[0, 15, 28, 12, 16, 22]",6,10,"[2, 3, 5, 8, 9, 10, 11, 17, 20, 27]",134.7527585,5251,541,4,16,9,1.1702311155319893
undo,16,32,0,0,0,9,"[0, 15, 28, 12, 16, 22, 9]",7,6,"[2, 8, 10, 17, 20, 27]",112.5491552,5737,486,2,4,9,1.2381424719932013
undo,16,32,0,0,0,2,"[0, 15, 28, 12, 16, 22, 9, 2]",8,1,[17],61.46099608,7259,1522,1,0,9,1.6446273109221003
undo,16,32,0,0,1,17,"[0, 15, 28, 12, 16, 22, 9, 2, 17]",9,0,[],21.64893761,9462,2203,1,0,9,2.46318728800517
undo,16,32,1,0,0,2,"[0, 15, 28, 12, 16, 22, 9, 2]",8,1,[17],61.46099608,14813,5351,1,0,9,1.6446273109221003
undo,16,32,1,0,0,9,"[0, 15, 28, 12, 16, 22, 9]",7,6,"[2, 8, 10, 17, 20, 27]",112.5491552,15014,201,2,4,9,1.2381424719932013
undo,16,32,1,0,0,22,"[0, 15, 28, 12, 16, 22]",6,10,"[2, 3, 5, 8, 9, 10, 11, 17, 20, 27]",134.7527585,15216,202,4,16,9,1.1702311155319893
undo,16,32,1,0,0,16,"[0, 15, 28, 12, 16]",5,17,"[2, 3, 5, 7, 8, 9, 10, 11, 13, 17, 19, 20, 22, 23, 24, 26, 27]",168.5906071,15396,180,6,38,9,1.1190771370096
undo,16,32,1,0,0,12,"[0, 15, 28, 12]",4,19,"[2, 3, 5, 7, 8, 9, 10, 11, 13, 16, 17, 19, 20, 22, 23, 24, 25, 26, 27]",184.243083,15591,195,8,71,9,1.0281484763748023
undo,16,32,1,0,0,28,"[0, 15, 28]",3,21,"[2, 3, 5, 7, 8, 9, 10, 11, 12, 13, 14, 16, 17, 19, 20, 22, 23, 24, 25, 26, 27]",203.2167489,15903,312,11,119,9,1.000160051986942
undo,16,32,1,0,0,15,"[0, 15]",2,24,"[2, 3, 4, 5, 6, 7, 8, 9, 10, 11, 12, 13, 14, 16, 17, 19, 20, 22, 23, 24, 25, 26, 27, 28]",214.6185032,16209,306,11,153,9,1.0
undo,16,32,1,0,0,0,[0],1,29,"[1, 2, 3, 4, 5, 6, 7, 8, 9, 10, 11, 12, 13, 14, 15, 16, 17, 18, 19, 20, 21, 22, 23, 24, 25, 26, 27, 28, 29]",300,16577,368,17,359,10,0.0
undo,16,32,0,0,0,19,"[0, 19]",2,28,"[1, 2, 3, 4, 5, 6, 7, 8, 9, 10, 11, 12, 13, 14, 15, 16, 17, 18, 20, 21, 22, 23, 24, 25, 26, 27, 28, 29]",283.5075775,17715,1138,16,294,10,1.0
undo,16,32,0,0,0,13,"[0, 19, 13]",3,24,"[2, 3, 4, 5, 6, 8, 9, 10, 11, 12, 14, 15, 16, 17, 18, 20, 21, 22, 23, 24, 25, 26, 27, 28]",260.3127505,18268,553,14,227,10,1.0172874229878615
undo,16,32,0,0,0,15,"[0, 19, 13, 15]",4,18,"[2, 3, 5, 8, 9, 10, 11, 12, 16, 17, 20, 22, 23, 24, 25, 26, 27, 28]",177.4393531,19767,1499,9,116,10,1.435447391509833
undo,16,32,0,0,0,28,"[0, 19, 13, 15, 28]",5,17,"[2, 3, 5, 8, 9, 10, 11, 12, 16, 17, 20, 22, 23, 24, 25, 26, 27]",166.0375988,20253,486,9,70,10,1.3843701324937985
undo,16,32,0,0,0,12,"[0, 19, 13, 15, 28, 12]",6,14,"[2, 3, 5, 8, 9, 10, 11, 16, 17, 20, 22, 24, 26, 27]",147.0639329,20686,433,6,35,10,1.358372254952329
undo,16,32,0,0,0,16,"[0, 19, 13, 15, 28, 12, 16]",7,13,"[2, 3, 5, 8, 9, 10, 11, 17, 20, 22, 24, 26, 27]",131.411457,21115,429,5,15,10,1.4356932930709845
undo,16,32,0,0,0,22,"[0, 19, 13, 15, 28, 12, 16, 22]",8,6,"[2, 8, 9, 17, 20, 27]",97.57360838,21678,563,3,5,10,1.4335226411545752
undo,16,32,0,0,0,9,"[0, 19, 13, 15, 28, 12, 16, 22, 9]",9,3,"[2, 8, 20]",75.37000507,22021,343,3,0,10,1.4837166378374758
undo,16,32,0,0,1,2,"[0, 19, 13, 15, 28, 12, 16, 22, 9, 2]",10,0,[],24.28184597,23774,1753,1,0,10,1.9009621017233784
undo,16,32,0,1,1,2,"[0, 19, 13, 15, 28, 12, 16, 22, 9, 2]",10,0,[],24.28184597,26668,2894,1,0,10,1.9009621017233784
undo,17,37,0,0,0,0,[0],1,29,"[1, 2, 3, 4, 5, 6, 7, 8, 9, 10, 11, 12, 13, 14, 15, 16, 17, 18, 19, 20, 21, 22, 23, 24, 25, 26, 27, 28, 29]",300,108,-1,6,168,10,0.0
undo,17,37,0,0,0,19,"[0, 19]",2,19,"[1, 2, 4, 5, 6, 7, 9, 10, 11, 15, 17, 18, 20, 21, 22, 25, 26, 28, 29]",185.6627795,2302,2194,25,244,9,1.0
undo,17,37,0,0,0,21,"[0, 19, 21]",3,14,"[1, 2, 4, 7, 10, 11, 15, 17, 18, 20, 22, 25, 26, 29]",144.5531699,3958,1656,10,75,9,1.001632816594558
undo,17,37,0,0,0,15,"[0, 19, 21, 15]",4,9,"[1, 2, 4, 7, 18, 20, 22, 26, 29]",129.5531699,4288,330,5,32,9,1.0243376499143988
undo,17,37,0,0,0,20,"[0, 19, 21, 15, 20]",5,8,"[1, 2, 4, 7, 18, 22, 26, 29]",112.5531699,4742,454,5,14,9,1.250507291508492
undo,17,37,0,0,0,1,"[0, 19, 21, 15, 20, 1]",6,6,"[2, 4, 7, 18, 22, 26]",78.31868434,5426,684,4,4,9,1.4002166443864243
undo,17,37,0,0,0,4,"[0, 19, 21, 15, 20, 1, 4]",7,2,"[2, 22]",60.5986392,6076,650,2,0,9,1.472939356650523
undo,17,37,0,0,0,2,"[0, 19, 21, 15, 20, 1, 4, 2]",8,1,[22],49.19688495,6463,387,1,0,9,1.6590570350137948
undo,17,37,0,0,1,22,"[0, 19, 21, 15, 20, 1, 4, 2, 22]",9,0,[],21.53825157,7191,728,1,0,9,1.7098673138592275
undo,17,37,0,1,1,22,"[0, 19, 21, 15, 20, 1, 4, 2, 22]",9,0,[],21.53825157,18867,11676,1,0,9,1.7098673138592275
undo,18,36,0,0,0,0,[0],1,24,"[2, 4, 5, 6, 7, 8, 9, 10, 12, 13, 14, 15, 16, 17, 18, 19, 20, 22, 23, 25, 26, 27, 28, 29]",300,107,-1,2,200,10,0.0
undo,18,36,0,0,0,9,"[0, 9]",2,16,"[2, 4, 8, 10, 12, 13, 16, 17, 18, 19, 23, 25, 26, 27, 28, 29]",230.9348134,3808,3701,81,367,8,1.0
undo,18,36,0,0,0,16,"[0, 9, 16]",3,10,"[2, 10, 12, 13, 17, 18, 19, 23, 25, 27]",183.637879,4888,1080,16,49,8,1.090165866783516
undo,18,36,0,0,0,17,"[0, 9, 16, 17]",4,8,"[2, 10, 12, 13, 18, 19, 23, 25]",155.3182745,5332,444,13,21,8,1.530787871385863
undo,18,36,0,0,0,19,"[0, 9, 16, 17, 19]",5,7,"[2, 10, 12, 13, 18, 23, 25]",127.4256232,5740,408,8,6,8,2.238961045332441
undo,18,36,0,0,0,2,"[0, 9, 16, 17, 19, 2]",6,3,"[10, 13, 25]",90.30420077,6313,573,3,1,8,1.8568787688562653
undo,18,36,0,0,0,25,"[0, 9, 16, 17, 19, 2, 25]",7,2,"[10, 13]",65.30420077,6834,521,2,0,8,2.049920884177255
undo,18,36,0,0,1,13,"[0, 9, 16, 17, 19, 2, 25, 13]",8,0,[],44.71294049,7342,508,1,0,8,2.602802798289571
undo,18,36,1,0,0,25,"[0, 9, 16, 17, 19, 2, 25]",7,2,"[10, 13]",65.30420077,13269,5927,2,0,8,2.049920884177255
undo,18,36,1,0,0,2,"[0, 9, 16, 17, 19, 2]",6,3,"[10, 13, 25]",90.30420077,13512,243,3,1,8,1.8568787688562653
undo,18,36,1,0,0,19,"[0, 9, 16, 17, 19]",5,7,"[2, 10, 12, 13, 18, 23, 25]",127.4256232,13817,305,8,6,8,2.238961045332441
undo,18,36,1,0,0,17,"[0, 9, 16, 17]",4,8,"[2, 10, 12, 13, 18, 19, 23, 25]",155.3182745,14533,716,13,21,8,1.530787871385863
undo,18,36,1,0,0,16,"[0, 9, 16]",3,10,"[2, 10, 12, 13, 17, 18, 19, 23, 25, 27]",183.637879,14769,236,16,49,8,1.090165866783516
undo,18,36,1,0,0,9,"[0, 9]",2,16,"[2, 4, 8, 10, 12, 13, 16, 17, 18, 19, 23, 25, 26, 27, 28, 29]",230.9348134,15116,347,81,367,8,1.0
undo,18,36,1,0,0,0,[0],1,24,"[2, 4, 5, 6, 7, 8, 9, 10, 12, 13, 14, 15, 16, 17, 18, 19, 20, 22, 23, 25, 26, 27, 28, 29]",300,15463,347,2,200,10,0.0
undo,18,36,0,0,0,12,"[0, 12]",2,23,"[2, 4, 5, 6, 7, 8, 9, 10, 13, 14, 15, 16, 17, 18, 19, 20, 22, 23, 25, 26, 27, 28, 29]",277.7963967,15968,505,90,804,9,1.0
undo,18,36,0,0,0,23,"[0, 12, 23]",3,18,"[2, 4, 5, 6, 7, 9, 10, 13, 14, 16, 17, 18, 19, 22, 25, 26, 28, 29]",217.6299609,16553,585,33,68,7,1.343843436819112
undo,18,36,0,0,0,28,"[0, 12, 23, 28]",4,6,"[5, 6, 7, 14, 22, 26]",115.0970393,17292,739,1,6,7,1.1952878801390319
undo,18,36,0,0,0,26,"[0, 12, 23, 28, 26]",5,5,"[5, 6, 7, 14, 22]",68.13961179,17911,619,1,4,7,1.1838706188052548
undo,18,36,0,0,0,7,"[0, 12, 23, 28, 26, 7]",6,1,[22],27.97744054,18628,717,1,0,7,1.280024668378619
undo,18,36,0,0,1,22,"[0, 12, 23, 28, 26, 7, 22]",7,0,[],9.003774576,19346,718,1,0,7,1.3072179341133348
undo,18,36,1,0,0,7,"[0, 12, 23, 28, 26, 7]",6,1,[22],27.97744054,20575,1229,1,0,7,1.280024668378619
undo,18,36,1,0,0,26,"[0, 12, 23, 28, 26]",5,5,"[5, 6, 7, 14, 22]",68.13961179,20790,215,1,4,7,1.1838706188052548
undo,18,36,1,0,0,28,"[0, 12, 23, 28]",4,6,"[5, 6, 7, 14, 22, 26]",115.0970393,20985,195,1,6,7,1.1952878801390319
undo,18,36,1,0,0,23,"[0, 12, 23]",3,18,"[2, 4, 5, 6, 7, 9, 10, 13, 14, 16, 17, 18, 19, 22, 25, 26, 28, 29]",217.6299609,21158,173,33,68,7,1.343843436819112
undo,18,36,1,0,0,12,"[0, 12]",2,23,"[2, 4, 5, 6, 7, 8, 9, 10, 13, 14, 15, 16, 17, 18, 19, 20, 22, 23, 25, 26, 27, 28, 29]",277.7963967,21353,195,90,804,9,1.0
undo,18,36,1,0,0,0,[0],1,24,"[2, 4, 5, 6, 7, 8, 9, 10, 12, 13, 14, 15, 16, 17, 18, 19, 20, 22, 23, 25, 26, 27, 28, 29]",300,21561,208,2,200,10,0.0
undo,18,36,0,0,0,9,"[0, 9]",2,16,"[2, 4, 8, 10, 12, 13, 16, 17, 18, 19, 23, 25, 26, 27, 28, 29]",230.9348134,22482,921,81,367,8,1.0
undo,18,36,0,0,0,17,"[0, 9, 17]",3,13,"[2, 4, 8, 10, 12, 13, 16, 18, 19, 23, 25, 27, 29]",204.6860039,23178,696,22,90,8,1.0084584538853834
undo,18,36,0,0,0,16,"[0, 9, 17, 16]",4,9,"[2, 10, 12, 13, 18, 19, 23, 25, 27]",176.3663994,23522,344,10,18,8,1.1582904316574463
undo,18,36,0,0,0,19,"[0, 9, 17, 16, 19]",5,6,"[2, 10, 12, 13, 18, 25]",121.7770231,24438,916,6,4,8,2.312245363775716
undo,18,36,0,0,0,2,"[0, 9, 17, 16, 19, 2]",6,3,"[10, 13, 25]",84.65560074,24947,509,2,1,8,1.9068977273093313
undo,18,36,0,0,0,25,"[0, 9, 17, 16, 19, 2, 25]",7,1,[13],59.65560074,25356,409,1,0,8,2.09925786935488
undo,18,36,0,0,1,13,"[0, 9, 17, 16, 19, 2, 25, 13]",8,0,[],39.06434046,25787,431,1,0,8,2.6603936217050705
undo,18,36,1,0,0,25,"[0, 9, 17, 16, 19, 2, 25]",7,1,[13],59.65560074,28514,2727,1,0,8,2.09925786935488
undo,18,36,1,0,0,2,"[0, 9, 17, 16, 19, 2]",6,3,"[10, 13, 25]",84.65560074,28729,215,2,1,8,1.9068977273093313
undo,18,36,1,0,0,19,"[0, 9, 17, 16, 19]",5,6,"[2, 10, 12, 13, 18, 25]",121.7770231,28895,166,6,4,8,2.312245363775716
undo,18,36,1,0,0,16,"[0, 9, 17, 16]",4,9,"[2, 10, 12, 13, 18, 19, 23, 25, 27]",176.3663994,29076,181,10,18,8,1.1582904316574463
undo,18,36,1,0,0,17,"[0, 9, 17]",3,13,"[2, 4, 8, 10, 12, 13, 16, 18, 19, 23, 25, 27, 29]",204.6860039,29430,354,22,90,8,1.0084584538853834
undo,18,36,1,0,0,9,"[0, 9]",2,16,"[2, 4, 8, 10, 12, 13, 16, 17, 18, 19, 23, 25, 26, 27, 28, 29]",230.9348134,29882,452,81,367,8,1.0
undo,18,36,1,0,0,0,[0],1,24,"[2, 4, 5, 6, 7, 8, 9, 10, 12, 13, 14, 15, 16, 17, 18, 19, 20, 22, 23, 25, 26, 27, 28, 29]",300,30382,500,2,200,10,0.0
undo,18,36,0,0,0,12,"[0, 12]",2,23,"[2, 4, 5, 6, 7, 8, 9, 10, 13, 14, 15, 16, 17, 18, 19, 20, 22, 23, 25, 26, 27, 28, 29]",277.7963967,30948,566,90,804,9,1.0
undo,18,36,1,0,0,0,[0],1,24,"[2, 4, 5, 6, 7, 8, 9, 10, 12, 13, 14, 15, 16, 17, 18, 19, 20, 22, 23, 25, 26, 27, 28, 29]",300,31938,990,2,200,10,0.0
undo,18,36,0,0,0,18,"[0, 18]",2,21,"[2, 4, 5, 6, 7, 8, 9, 10, 12, 13, 14, 16, 17, 19, 22, 23, 25, 26, 27, 28, 29]",279.6039219,32534,596,2,110,10,1.0
undo,18,36,0,0,0,12,"[0, 18, 12]",3,19,"[2, 4, 5, 6, 7, 8, 9, 10, 13, 16, 17, 19, 22, 23, 25, 26, 27, 28, 29]",237.0245842,33374,840,2,86,10,2.836270082716982
undo,18,36,0,0,0,9,"[0, 18, 12, 9]",4,9,"[2, 4, 10, 13, 16, 17, 19, 23, 25]",174.6627369,34157,783,1,40,10,1.8147676024843966
undo,18,36,0,0,0,16,"[0, 18, 12, 9, 16]",5,5,"[2, 13, 17, 19, 25]",127.3658026,34764,607,4,11,9,1.6173640341692257
undo,18,36,0,0,0,17,"[0, 18, 12, 9, 16, 17]",6,4,"[2, 13, 19, 25]",99.04619804,35450,686,4,5,9,2.126167915720943
undo,18,36,0,0,0,19,"[0, 18, 12, 9, 16, 17, 19]",7,3,"[2, 13, 25]",71.15354668,35827,377,3,0,9,2.9690287970141402
undo,18,36,0,0,0,2,"[0, 18, 12, 9, 16, 17, 19, 2]",8,1,[25],34.0321243,36423,596,1,0,9,2.355174034952613
undo,18,36,0,0,1,25,"[0, 18, 12, 9, 16, 17, 19, 2, 25]",9,0,[],9.032124296,36910,487,1,0,9,2.541422245252009
undo,18,36,0,1,1,25,"[0, 18, 12, 9, 16, 17, 19, 2, 25]",9,0,[],9.032124296,41664,4754,1,0,9,2.541422245252009
undo,19,35,0,0,0,0,[0],1,29,"[1, 2, 3, 4, 5, 6, 7, 8, 9, 10, 11, 12, 13, 14, 15, 16, 17, 18, 19, 20, 21, 22, 23, 24, 25, 26, 27, 28, 29]",300,107,-1,5,236,11,0.0
undo,19,35,0,0,0,24,"[0, 24]",2,27,"[1, 2, 4, 5, 6, 7, 8, 9, 10, 11, 12, 13, 14, 15, 16, 17, 18, 19, 20, 21, 22, 23, 25, 26, 27, 28, 29]",268.9838752,2633,2526,49,512,10,1.0
undo,19,35,0,0,0,17,"[0, 24, 17]",3,26,"[1, 2, 4, 5, 6, 7, 8, 9, 10, 11, 12, 13, 14, 15, 16, 18, 19, 20, 21, 22, 23, 25, 26, 27, 28, 29]",257.2791753,3076,443,33,238,10,1.0771477201815276
undo,19,35,0,0,0,1,"[0, 24, 17, 1]",4,25,"[2, 4, 5, 6, 7, 8, 9, 10, 11, 12, 13, 14, 15, 16, 18, 19, 20, 21, 22, 23, 25, 26, 27, 28, 29]",241.4677869,3529,453,26,151,10,1.2244804141479215
undo,19,35,0,0,0,15,"[0, 24, 17, 1, 15]",5,23,"[2, 4, 5, 6, 7, 8, 9, 10, 11, 12, 14, 16, 18, 19, 20, 21, 22, 23, 25, 26, 27, 28, 29]",218.6204676,3961,432,26,78,10,1.4642196672428094
undo,19,35,0,0,0,23,"[0, 24, 17, 1, 15, 23]",6,11,"[4, 5, 6, 9, 18, 19, 25, 26, 27, 28, 29]",158.1804147,5900,1939,15,12,10,1.3338903684702363
undo,19,35,0,0,0,9,"[0, 24, 17, 1, 15, 23, 9]",7,6,"[5, 6, 18, 19, 25, 27]",120.5373542,6397,497,6,1,10,1.5964380615155294
undo,19,35,0,0,0,18,"[0, 24, 17, 1, 15, 23, 9, 18]",8,3,"[5, 6, 25]",100.5123698,6742,345,2,1,10,1.5508488101942703
undo,19,35,0,0,0,6,"[0, 24, 17, 1, 15, 23, 9, 18, 6]",9,1,[25],66.89689722,7271,529,1,0,10,1.541466044761729
undo,19,35,0,0,1,25,"[0, 24, 17, 1, 15, 23, 9, 18, 6, 25]",10,0,[],42.87607292,7878,607,1,0,10,1.5877595882523792
undo,19,35,1,0,0,6,"[0, 24, 17, 1, 15, 23, 9, 18, 6]",9,1,[25],66.89689722,14116,6238,1,0,10,1.541466044761729
undo,19,35,1,0,0,18,"[0, 24, 17, 1, 15, 23, 9, 18]",8,3,"[5, 6, 25]",100.5123698,14324,208,2,1,10,1.5508488101942703
undo,19,35,1,0,0,9,"[0, 24, 17, 1, 15, 23, 9]",7,6,"[5, 6, 18, 19, 25, 27]",120.5373542,14519,195,6,1,10,1.5964380615155294
undo,19,35,1,0,0,23,"[0, 24, 17, 1, 15, 23]",6,11,"[4, 5, 6, 9, 18, 19, 25, 26, 27, 28, 29]",158.1804147,14707,188,15,12,10,1.3338903684702363
undo,19,35,1,0,0,15,"[0, 24, 17, 1, 15]",5,23,"[2, 4, 5, 6, 7, 8, 9, 10, 11, 12, 14, 16, 18, 19, 20, 21, 22, 23, 25, 26, 27, 28, 29]",218.6204676,14908,201,26,78,10,1.4642196672428094
undo,19,35,1,0,0,1,"[0, 24, 17, 1]",4,25,"[2, 4, 5, 6, 7, 8, 9, 10, 11, 12, 13, 14, 15, 16, 18, 19, 20, 21, 22, 23, 25, 26, 27, 28, 29]",241.4677869,15165,257,26,151,10,1.2244804141479215
undo,19,35,1,0,0,17,"[0, 24, 17]",3,26,"[1, 2, 4, 5, 6, 7, 8, 9, 10, 11, 12, 13, 14, 15, 16, 18, 19, 20, 21, 22, 23, 25, 26, 27, 28, 29]",257.2791753,15519,354,33,238,10,1.0771477201815276
undo,19,35,1,0,0,24,"[0, 24]",2,27,"[1, 2, 4, 5, 6, 7, 8, 9, 10, 11, 12, 13, 14, 15, 16, 17, 18, 19, 20, 21, 22, 23, 25, 26, 27, 28, 29]",268.9838752,15748,229,49,512,10,1.0
undo,19,35,1,0,0,0,[0],1,29,"[1, 2, 3, 4, 5, 6, 7, 8, 9, 10, 11, 12, 13, 14, 15, 16, 17, 18, 19, 20, 21, 22, 23, 24, 25, 26, 27, 28, 29]",300,16491,743,5,236,11,0.0
undo,19,35,0,0,0,27,"[0, 27]",2,27,"[1, 2, 4, 5, 6, 7, 8, 9, 10, 11, 12, 13, 14, 15, 16, 17, 18, 19, 20, 21, 22, 23, 24, 25, 26, 28, 29]",278.7867966,17669,1178,5,144,11,1.0
undo,19,35,0,0,0,24,"[0, 27, 24]",3,25,"[1, 2, 4, 5, 6, 7, 8, 9, 10, 11, 12, 13, 15, 16, 17, 18, 19, 20, 21, 22, 23, 25, 26, 28, 29]",234.6053525,18530,861,3,80,11,2.1084080567904624
undo,19,35,0,0,0,17,"[0, 27, 24, 17]",4,20,"[1, 2, 4, 5, 6, 7, 8, 9, 10, 15, 16, 18, 19, 20, 21, 23, 25, 26, 28, 29]",222.9006526,18917,387,3,50,11,1.9439555968916868
undo,19,35,0,0,0,1,"[0, 27, 24, 17, 1]",5,18,"[2, 4, 5, 6, 8, 9, 10, 15, 16, 18, 19, 20, 21, 23, 25, 26, 28, 29]",207.0892643,19304,387,3,39,11,1.9436711872547336
undo,19,35,0,0,0,15,"[0, 27, 24, 17, 1, 15]",6,16,"[2, 4, 5, 6, 8, 9, 10, 16, 18, 19, 20, 23, 25, 26, 28, 29]",184.241945,19977,673,3,24,11,2.082774572108194
undo,19,35,0,0,0,23,"[0, 27, 24, 17, 1, 15, 23]",7,7,"[5, 6, 9, 18, 19, 25, 26]",123.801892,20573,596,3,14,11,1.657239080954205
undo,19,35,0,0,0,9,"[0, 27, 24, 17, 1, 15, 23, 9]",8,4,"[6, 18, 19, 25]",86.15883157,21158,585,2,2,11,1.9022575917054987
undo,19,35,0,0,0,18,"[0, 27, 24, 17, 1, 15, 23, 9, 18]",9,2,"[6, 25]",66.13384718,21699,541,2,0,11,1.8181129550839106
undo,19,35,0,0,0,25,"[0, 27, 24, 17, 1, 15, 23, 9, 18, 25]",10,1,[6],32.29599855,22394,695,1,0,11,1.6530923432245144
undo,19,35,0,0,1,6,"[0, 27, 24, 17, 1, 15, 23, 9, 18, 25, 6]",11,0,[],8.275174247,23167,773,1,0,11,1.9291202388527962
undo,19,35,0,1,1,6,"[0, 27, 24, 17, 1, 15, 23, 9, 18, 25, 6]",11,0,[],8.275174247,24638,1471,1,0,11,1.9291202388527962
undo,20,15,0,0,0,0,[0],1,25,"[1, 2, 3, 4, 7, 8, 9, 10, 11, 12, 13, 14, 15, 16, 18, 20, 21, 22, 23, 24, 25, 26, 27, 28, 29]",300,118,-1,4,65,9,0.0
undo,20,15,0,0,0,7,"[0, 7]",2,23,"[1, 3, 4, 8, 9, 10, 11, 12, 13, 14, 15, 16, 18, 20, 21, 22, 23, 24, 25, 26, 27, 28, 29]",215.1884442,1856,1738,30,107,8,1.0
undo,20,15,0,0,0,11,"[0, 7, 11]",3,18,"[3, 4, 8, 9, 10, 12, 13, 14, 15, 16, 18, 20, 21, 22, 23, 25, 27, 29]",173.7035072,2529,673,12,34,8,1.0171318876095128
undo,20,15,0,0,0,3,"[0, 7, 11, 3]",4,13,"[4, 10, 12, 13, 14, 15, 16, 18, 20, 21, 22, 25, 27]",162.3017529,2816,287,7,21,8,1.0401878806820521
undo,20,15,0,0,0,16,"[0, 7, 11, 3, 16]",5,9,"[4, 10, 12, 13, 14, 15, 18, 21, 22]",137.2218805,3335,519,5,6,8,1.4258499651326737
undo,20,15,0,0,0,22,"[0, 7, 11, 3, 16, 22]",6,4,"[4, 13, 14, 15]",78.36612462,4008,673,2,2,8,1.284645195326425
undo,20,15,0,0,0,13,"[0, 7, 11, 3, 16, 22, 13]",7,1,[15],50.20586894,5412,1404,1,0,8,1.2468528041787974
undo,20,15,0,0,1,15,"[0, 7, 11, 3, 16, 22, 13, 15]",8,0,[],34.94153142,5733,321,1,0,8,1.349724143762162
undo,20,15,1,0,0,13,"[0, 7, 11, 3, 16, 22, 13]",7,1,[15],50.20586894,11680,5947,1,0,8,1.2468528041787974
undo,20,15,1,0,0,22,"[0, 7, 11, 3, 16, 22]",6,4,"[4, 13, 14, 15]",78.36612462,11944,264,2,2,8,1.284645195326425
undo,20,15,1,0,0,16,"[0, 7, 11, 3, 16]",5,9,"[4, 10, 12, 13, 14, 15, 18, 21, 22]",137.2218805,12152,208,5,6,8,1.4258499651326737
undo,20,15,1,0,0,3,"[0, 7, 11, 3]",4,13,"[4, 10, 12, 13, 14, 15, 16, 18, 20, 21, 22, 25, 27]",162.3017529,12340,188,7,21,8,1.0401878806820521
undo,20,15,1,0,0,11,"[0, 7, 11]",3,18,"[3, 4, 8, 9, 10, 12, 13, 14, 15, 16, 18, 20, 21, 22, 23, 25, 27, 29]",173.7035072,12673,333,12,34,8,1.0171318876095128
undo,20,15,1,0,0,7,"[0, 7]",2,23,"[1, 3, 4, 8, 9, 10, 11, 12, 13, 14, 15, 16, 18, 20, 21, 22, 23, 24, 25, 26, 27, 28, 29]",215.1884442,13090,417,30,107,8,1.0
undo,20,15,1,0,0,0,[0],1,25,"[1, 2, 3, 4, 7, 8, 9, 10, 11, 12, 13, 14, 15, 16, 18, 20, 21, 22, 23, 24, 25, 26, 27, 28, 29]",300,14590,1500,4,65,9,0.0
undo,20,15,0,0,0,12,"[0, 12]",2,22,"[1, 2, 3, 4, 7, 8, 9, 10, 11, 13, 14, 15, 16, 18, 21, 22, 23, 24, 26, 27, 28, 29]",213.547701,14855,265,4,35,9,1.0
undo,20,15,0,0,0,7,"[0, 12, 7]",3,16,"[1, 3, 4, 8, 9, 10, 11, 13, 14, 15, 16, 18, 21, 22, 24, 27]",180.3061607,15418,563,4,29,9,1.411291635294361
undo,20,15,0,0,0,11,"[0, 12, 7, 11]",4,9,"[3, 4, 13, 14, 15, 16, 21, 22, 27]",138.8212237,16080,662,2,12,9,1.2980572092387541
undo,20,15,0,0,0,3,"[0, 12, 7, 11, 3]",5,7,"[4, 13, 14, 15, 16, 21, 22]",127.4194695,16401,321,2,7,9,1.3036925309398455
undo,20,15,0,0,0,16,"[0, 12, 7, 11, 3, 16]",6,5,"[4, 13, 14, 15, 22]",102.3395971,16856,455,2,2,9,1.731400260973498
undo,20,15,0,0,0,22,"[0, 12, 7, 11, 3, 16, 22]",7,2,"[13, 15]",43.48384117,17782,926,2,0,9,1.4868316064029183
undo,20,15,0,0,0,13,"[0, 12, 7, 11, 3, 16, 22, 13]",8,1,[15],15.32358549,18391,609,1,0,9,1.4209684759571115
undo,20,15,0,0,1,15,"[0, 12, 7, 11, 3, 16, 22, 13, 15]",9,0,[],0.059247971,19141,750,1,0,9,1.527350840290292
undo,20,15,0,1,1,15,"[0, 12, 7, 11, 3, 16, 22, 13, 15]",9,0,[],0.059247971,22084,2943,1,0,9,1.527350840290292
undo,21,16,0,0,0,0,[0],1,29,"[1, 2, 3, 4, 5, 6, 7, 8, 9, 10, 11, 12, 13, 14, 15, 16, 17, 18, 19, 20, 21, 22, 23, 24, 25, 26, 27, 28, 29]",300,109,-1,13,161,9,0.0
undo,21,16,0,0,0,28,"[0, 28]",2,27,"[1, 2, 3, 4, 5, 7, 8, 9, 10, 11, 12, 13, 14, 15, 16, 17, 18, 19, 20, 21, 22, 23, 24, 25, 26, 27, 29]",284.3475242,3441,3332,11,92,9,1.0
undo,21,16,0,0,0,17,"[0, 28, 17]",3,26,"[1, 2, 3, 4, 5, 7, 8, 9, 10, 11, 12, 13, 14, 15, 16, 18, 19, 20, 21, 22, 23, 24, 25, 26, 27, 29]",219.1555001,4091,650,10,46,9,1.3773866384707543
undo,21,16,0,0,0,16,"[0, 28, 17, 16]",4,25,"[1, 2, 3, 4, 5, 7, 8, 9, 10, 11, 12, 13, 14, 15, 18, 19, 20, 21, 22, 23, 24, 25, 26, 27, 29]",190.8358956,4643,552,10,34,9,1.3209953830681203
undo,21,16,0,0,0,21,"[0, 28, 17, 16, 21]",5,13,"[3, 5, 7, 8, 9, 10, 12, 15, 20, 22, 25, 26, 29]",146.1816685,5217,574,4,7,9,1.8136482702070456
undo,21,16,0,0,0,8,"[0, 28, 17, 16, 21, 8]",6,6,"[5, 9, 12, 15, 20, 25]",96.92722704,5802,585,4,2,9,1.637204572335983
undo,21,16,0,0,0,20,"[0, 28, 17, 16, 21, 8, 20]",7,2,"[9, 25]",39.15179974,6453,651,2,0,9,1.441590377328759
undo,21,16,0,0,0,25,"[0, 28, 17, 16, 21, 8, 20, 25]",8,1,[9],26.5026891,6808,355,1,0,9,1.484361110265371
undo,21,16,0,0,1,9,"[0, 28, 17, 16, 21, 8, 20, 25, 9]",9,0,[],13.69644062,7206,398,1,0,9,1.4530180692918209
undo,21,16,0,1,1,9,"[0, 28, 17, 16, 21, 8, 20, 25, 9]",9,0,[],13.69644062,9242,2036,1,0,9,1.4530180692918209
undo,22,42,0,0,0,0,[0],1,29,"[1, 2, 3, 4, 5, 6, 7, 8, 9, 10, 11, 12, 13, 14, 15, 16, 17, 18, 19, 20, 21, 22, 23, 24, 25, 26, 27, 28, 29]",300,163,-1,16,302,9,0.0
undo,22,42,0,0,0,5,"[0, 5]",2,28,"[1, 2, 3, 4, 6, 7, 8, 9, 10, 11, 12, 13, 14, 15, 16, 17, 18, 19, 20, 21, 22, 23, 24, 25, 26, 27, 28, 29]",191.2939744,6009,5846,1,22,9,1.0
undo,22,42,0,0,0,4,"[0, 5, 4]",3,23,"[1, 2, 3, 6, 7, 8, 9, 10, 11, 13, 15, 17, 18, 19, 20, 21, 22, 23, 24, 25, 26, 27, 29]",171.4445412,6417,408,1,14,9,1.420957801478707
undo,22,42,0,0,0,22,"[0, 5, 4, 22]",4,20,"[1, 2, 3, 6, 7, 8, 9, 11, 15, 17, 18, 19, 20, 21, 23, 24, 25, 26, 27, 29]",160.2642013,6827,410,1,11,9,1.5771494659680896
undo,22,42,0,0,0,8,"[0, 5, 4, 22, 8]",5,14,"[1, 2, 3, 6, 7, 11, 15, 18, 19, 24, 25, 26, 27, 29]",138.1282577,7270,443,1,10,9,1.5055393955524201
undo,22,42,0,0,0,1,"[0, 5, 4, 22, 8, 1]",6,5,"[2, 7, 19, 26, 27]",89.03650682,7964,694,1,7,9,1.3547259083637835
undo,22,42,0,0,0,7,"[0, 5, 4, 22, 8, 1, 7]",7,4,"[2, 19, 26, 27]",59.03650682,10499,2535,1,3,9,1.3909715672447451
undo,22,42,0,0,0,26,"[0, 5, 4, 22, 8, 1, 7, 26]",8,1,[27],32.46584631,11007,508,1,0,9,1.3511825943939393
undo,22,42,0,0,1,27,"[0, 5, 4, 22, 8, 1, 7, 26, 27]",9,0,[],14.43808994,11724,717,1,0,9,1.3391911688802078
undo,22,42,0,1,1,27,"[0, 5, 4, 22, 8, 1, 7, 26, 27]",9,0,[],14.43808994,12963,1239,1,0,9,1.3391911688802078
basic,23,1,0,0,0,0,[0],1,26,"[1, 2, 4, 5, 7, 8, 9, 10, 11, 12, 13, 14, 15, 16, 17, 18, 19, 20, 21, 22, 23, 24, 25, 26, 28, 29]",300,131,-1,6,74,7,0.0
basic,23,1,0,0,0,14,"[0, 14]",2,19,"[1, 4, 5, 8, 9, 13, 15, 17, 18, 19, 20, 21, 22, 23, 24, 25, 26, 28, 29]",200.1901808,8955,8824,5,42,7,1.0
basic,23,1,0,0,0,17,"[0, 14, 17]",3,15,"[1, 4, 5, 8, 9, 13, 15, 18, 19, 20, 22, 23, 25, 28, 29]",147.8356204,9683,728,5,27,7,1.0028844724416826
basic,23,1,0,0,0,1,"[0, 14, 17, 1]",4,12,"[4, 5, 8, 9, 15, 18, 20, 22, 23, 25, 28, 29]",123.4840291,10235,552,5,15,7,1.0264985578353567
basic,23,1,0,0,0,28,"[0, 14, 17, 1, 28]",5,5,"[9, 15, 22, 23, 29]",88.59850198,10820,585,5,3,7,1.0339861575999345
basic,23,1,0,0,0,23,"[0, 14, 17, 1, 28, 23]",6,2,"[15, 22]",51.70676849,11384,564,2,0,7,1.0327458250705703
basic,23,1,0,0,1,15,"[0, 14, 17, 1, 28, 23, 15]",7,0,[],20.81987807,11979,595,1,0,7,1.1948681641401226
basic,23,1,0,1,1,15,"[0, 14, 17, 1, 28, 23, 15]",7,0,[],20.81987807,15696,3717,1,0,7,1.1948681641401226
basic,24,19,0,0,0,0,[0],1,29,"[1, 2, 3, 4, 5, 6, 7, 8, 9, 10, 11, 12, 13, 14, 15, 16, 17, 18, 19, 20, 21, 22, 23, 24, 25, 26, 27, 28, 29]",300,117,-1,12,149,8,0.0
basic,24,19,0,0,0,29,"[0, 29]",2,28,"[1, 2, 3, 4, 5, 6, 7, 8, 9, 10, 11, 12, 13, 14, 15, 16, 17, 18, 19, 20, 21, 22, 23, 24, 25, 26, 27, 28]",265.0715016,11293,11176,12,120,8,1.0
basic,24,19,0,0,0,9,"[0, 29, 9]",3,17,"[1, 4, 5, 6, 7, 10, 11, 12, 13, 14, 19, 20, 21, 22, 24, 27, 28]",181.7108394,12954,1661,11,65,8,1.0375842971861238
basic,24,19,0,0,0,6,"[0, 29, 9, 6]",4,12,"[4, 7, 10, 11, 13, 14, 20, 21, 22, 24, 27, 28]",140.2741407,14806,1852,11,34,8,1.0389786364356892
basic,24,19,0,0,0,4,"[0, 29, 9, 6, 4]",5,7,"[10, 11, 14, 20, 22, 27, 28]",99.22538921,17282,2476,2,6,8,1.2182485830176533
basic,24,19,0,0,0,28,"[0, 29, 9, 6, 4, 28]",6,3,"[11, 14, 27]",88.04504932,22016,4734,2,1,8,1.2933703503588658
basic,24,19,0,0,0,14,"[0, 29, 9, 6, 4, 28, 14]",7,1,[11],30.46032912,22635,619,1,0,8,1.2889112786863766
basic,24,19,0,0,1,11,"[0, 29, 9, 6, 4, 28, 14, 11]",8,0,[],19.6436753,23153,518,1,0,8,1.2786737377290265
basic,24,19,0,1,1,11,"[0, 29, 9, 6, 4, 28, 14, 11]",8,0,[],19.6436753,25370,2217,1,0,8,1.2786737377290265
basic,25,43,0,0,0,0,[0],1,23,"[1, 2, 3, 4, 5, 6, 7, 9, 10, 11, 12, 14, 15, 16, 17, 19, 20, 21, 22, 23, 25, 27, 29]",300,109,-1,16,556,12,0.0
basic,25,43,0,0,0,29,"[0, 29]",2,22,"[1, 2, 3, 4, 5, 6, 7, 9, 10, 11, 12, 14, 15, 16, 17, 19, 20, 21, 22, 23, 25, 27]",277.909278,1330,1221,16,520,12,1.0
basic,25,43,0,0,0,20,"[0, 29, 20]",3,20,"[1, 2, 3, 4, 6, 7, 9, 10, 11, 12, 14, 15, 16, 17, 19, 21, 22, 23, 25, 27]",254.4785289,1772,442,15,422,12,1.082311746871282
basic,25,43,0,0,0,16,"[0, 29, 20, 16]",4,19,"[1, 2, 3, 4, 6, 7, 9, 10, 11, 12, 14, 15, 17, 19, 21, 22, 23, 25, 27]",231.8511119,2280,508,15,389,12,1.215201926898219
basic,25,43,0,0,0,25,"[0, 29, 20, 16, 25]",5,14,"[1, 2, 3, 4, 6, 7, 9, 11, 12, 14, 15, 19, 22, 23]",175.7708124,9421,7141,53,282,11,1.566384303308987
basic,25,43,0,0,0,15,"[0, 29, 20, 16, 25, 15]",6,13,"[1, 2, 3, 4, 6, 7, 9, 11, 12, 14, 19, 22, 23]",153.0992443,9907,486,27,108,11,1.776736412604812
basic,25,43,0,0,0,12,"[0, 29, 20, 16, 25, 15, 12]",7,10,"[1, 3, 6, 7, 9, 11, 14, 19, 22, 23]",133.7860364,10272,365,21,41,11,1.6813323012225032
basic,25,43,0,0,0,3,"[0, 29, 20, 16, 25, 15, 12, 3]",8,9,"[1, 6, 7, 9, 11, 14, 19, 22, 23]",120.7860364,10681,409,20,12,11,1.608740348096123
basic,25,43,0,0,0,22,"[0, 29, 20, 16, 25, 15, 12, 3, 22]",9,6,"[1, 6, 7, 11, 14, 19]",86.07292644,11387,706,9,2,11,1.793657891802588
basic,25,43,0,0,0,11,"[0, 29, 20, 16, 25, 15, 12, 3, 22, 11]",10,1,[6],40.00775521,12357,970,1,0,11,2.857057635054945
basic,25,43,0,0,1,6,"[0, 29, 20, 16, 25, 15, 12, 3, 22, 11, 6]",11,0,[],19.39222709,12899,542,1,0,11,2.5442600061215437
basic,25,43,0,1,1,6,"[0, 29, 20, 16, 25, 15, 12, 3, 22, 11, 6]",11,0,[],19.39222709,15305,2406,1,0,11,2.5442600061215437
basic,26,40,0,0,0,0,[0],1,29,"[1, 2, 3, 4, 5, 6, 7, 8, 9, 10, 11, 12, 13, 14, 15, 16, 17, 18, 19, 20, 21, 22, 23, 24, 25, 26, 27, 28, 29]",300,117,-1,8,191,9,0.0
basic,26,40,0,0,0,1,"[0, 1]",2,18,"[2, 5, 6, 7, 8, 9, 10, 11, 13, 15, 17, 18, 19, 21, 22, 23, 27, 29]",247.8463808,3693,3576,4,80,9,1.0
basic,26,40,0,0,0,6,"[0, 1, 6]",3,17,"[2, 5, 7, 8, 9, 10, 11, 13, 15, 17, 18, 19, 21, 22, 23, 27, 29]",227.7466295,4037,344,4,74,9,1.0459427008232034
basic,26,40,0,0,0,21,"[0, 1, 6, 21]",4,8,"[2, 5, 9, 17, 18, 19, 22, 23]",175.7754837,4689,652,4,25,9,1.0308822257404064
basic,26,40,0,0,0,9,"[0, 1, 6, 21, 9]",5,6,"[2, 5, 18, 19, 22, 23]",130.0699041,5273,584,4,12,9,1.377861912961129
basic,26,40,0,0,0,18,"[0, 1, 6, 21, 9, 18]",6,5,"[2, 5, 19, 22, 23]",113.5169588,5648,375,4,4,9,1.5742712168661408
basic,26,40,0,0,0,23,"[0, 1, 6, 21, 9, 18, 23]",7,3,"[2, 5, 19]",79.51695879,7070,1422,2,1,9,2.324611956726637
basic,26,40,0,0,0,5,"[0, 1, 6, 21, 9, 18, 23, 5]",8,1,[19],51.21501539,7480,410,1,0,9,2.022909590433451
basic,26,40,0,0,1,19,"[0, 1, 6, 21, 9, 18, 23, 5, 19]",9,0,[],13.13614986,8252,772,1,0,9,2.796177718843732
basic,26,40,0,1,1,19,"[0, 1, 6, 21, 9, 18, 23, 5, 19]",9,0,[],13.13614986,9236,984,1,0,9,2.796177718843732
basic,27,2,0,0,0,0,[0],1,23,"[1, 2, 4, 5, 6, 7, 8, 9, 12, 13, 15, 16, 17, 18, 19, 20, 22, 23, 25, 26, 27, 28, 29]",300,110,-1,70,620,10,0.0
basic,27,2,0,0,0,19,"[0, 19]",2,22,"[1, 2, 4, 5, 6, 7, 8, 9, 12, 13, 15, 16, 17, 18, 20, 22, 23, 25, 26, 27, 28, 29]",210.306076,3587,3477,67,431,10,1.0
basic,27,2,0,0,0,12,"[0, 19, 12]",3,17,"[1, 4, 5, 6, 7, 13, 15, 16, 17, 18, 20, 22, 25, 26, 27, 28, 29]",174.2921898,4172,585,66,298,10,1.1107635036313153
basic,27,2,0,0,0,5,"[0, 19, 12, 5]",4,11,"[1, 6, 7, 13, 15, 16, 18, 22, 25, 26, 29]",144.7625437,4735,563,38,136,10,1.0968174771581647
basic,27,2,0,0,0,22,"[0, 19, 12, 5, 22]",5,8,"[1, 6, 7, 13, 15, 18, 26, 29]",131.9562952,5254,519,20,63,10,1.0889910507461968
basic,27,2,0,0,0,13,"[0, 19, 12, 5, 22, 13]",6,7,"[1, 6, 7, 15, 18, 26, 29]",117.0902265,5609,355,19,20,10,1.236526217328057
basic,27,2,0,0,0,18,"[0, 19, 12, 5, 22, 13, 18]",7,4,"[7, 15, 26, 29]",81.91921567,6195,586,10,3,10,1.2128708213409936
basic,27,2,0,0,0,7,"[0, 19, 12, 5, 22, 13, 18, 7]",8,3,"[15, 26, 29]",71.62358553,7265,1070,5,0,10,1.2019811287894737
basic,27,2,0,0,0,26,"[0, 19, 12, 5, 22, 13, 18, 7, 26]",9,2,"[15, 29]",48.82007703,8401,1136,2,0,10,1.1883593342191134
basic,27,2,0,0,1,15,"[0, 19, 12, 5, 22, 13, 18, 7, 26, 15]",10,0,[],24.61264015,8865,464,1,0,10,1.4619750353663825
basic,27,2,0,1,1,15,"[0, 19, 12, 5, 22, 13, 18, 7, 26, 15]",10,0,[],24.61264015,10417,1552,1,0,10,1.4619750353663825
basic,28,42,0,0,0,0,[0],1,29,"[1, 2, 3, 4, 5, 6, 7, 8, 9, 10, 11, 12, 13, 14, 15, 16, 17, 18, 19, 20, 21, 22, 23, 24, 25, 26, 27, 28, 29]",300,110,-1,16,302,9,0.0
basic,28,42,0,0,0,22,"[0, 22]",2,27,"[1, 2, 3, 4, 5, 6, 7, 8, 9, 10, 11, 12, 13, 15, 16, 17, 18, 19, 20, 21, 23, 24, 25, 26, 27, 28, 29]",211.3997743,12004,11894,5,83,9,1.0
basic,28,42,0,0,0,4,"[0, 22, 4]",3,26,"[1, 2, 3, 5, 6, 7, 8, 9, 10, 11, 12, 13, 15, 16, 17, 18, 19, 20, 21, 23, 24, 25, 26, 27, 28, 29]",200.2194344,13029,1025,4,51,9,1.1029012260448476
basic,28,42,0,0,0,8,"[0, 22, 4, 8]",4,21,"[1, 2, 3, 5, 6, 7, 10, 11, 15, 17, 18, 19, 20, 21, 23, 24, 25, 26, 27, 28, 29]",171.0132706,13550,521,1,27,9,1.1996819201170703
basic,28,42,0,0,0,1,"[0, 22, 4, 8, 1]",5,11,"[2, 5, 7, 10, 15, 18, 19, 24, 26, 27, 28]",121.9215198,14189,639,1,21,9,1.1435510818127563
basic,28,42,0,0,0,7,"[0, 22, 4, 8, 1, 7]",6,5,"[2, 19, 26, 27, 28]",91.92151981,14708,519,1,11,9,1.2011414919337324
basic,28,42,0,0,0,26,"[0, 22, 4, 8, 1, 7, 26]",7,3,"[2, 19, 27]",65.3508593,15846,1138,1,2,9,1.1850966702020203
basic,28,42,0,0,0,27,"[0, 22, 4, 8, 1, 7, 26, 27]",8,1,[19],47.32310292,16631,785,1,0,9,1.1849713047461088
basic,28,42,0,0,1,19,"[0, 22, 4, 8, 1, 7, 26, 27, 19]",9,0,[],6.310909614,17579,948,1,0,9,1.358202404449154
basic,28,42,0,1,1,19,"[0, 22, 4, 8, 1, 7, 26, 27, 19]",9,0,[],6.310909614,18633,1054,1,0,9,1.358202404449154
basic,29,17,0,0,0,0,[0],1,28,"[1, 2, 3, 4, 5, 6, 7, 8, 9, 10, 11, 12, 13, 14, 15, 16, 17, 18, 19, 20, 22, 23, 24, 25, 26, 27, 28, 29]",300,116,-1,2,73,8,0.0
basic,29,17,0,0,0,9,"[0, 9]",2,25,"[1, 2, 3, 5, 6, 7, 8, 10, 11, 12, 14, 15, 16, 17, 18, 19, 20, 22, 23, 24, 25, 26, 27, 28, 29]",210.5293344,2052,1936,1,34,8,1.0
basic,29,17,0,0,0,16,"[0, 9, 16]",3,21,"[1, 2, 3, 5, 7, 8, 10, 11, 12, 14, 17, 18, 19, 20, 22, 23, 25, 26, 27, 28, 29]",197.1876704,2452,400,1,26,8,1.173103464220352
basic,29,17,0,0,0,2,"[0, 9, 16, 2]",4,18,"[1, 3, 5, 7, 8, 10, 11, 12, 14, 17, 18, 19, 23, 25, 26, 27, 28, 29]",181.0631549,2782,330,1,23,8,1.14825089247282
basic,29,17,0,0,0,17,"[0, 9, 16, 2, 17]",5,7,"[7, 8, 12, 14, 26, 27, 29]",142.7356191,3379,597,4,5,7,1.4896040699768547
basic,29,17,0,0,0,8,"[0, 9, 16, 2, 17, 8]",6,3,"[7, 12, 27]",104.5256727,3876,497,3,0,7,1.4604726966175894
basic,29,17,0,0,1,7,"[0, 9, 16, 2, 17, 8, 7]",7,0,[],33.81499459,4724,848,1,0,7,1.4474701869793896
basic,29,17,0,1,1,7,"[0, 9, 16, 2, 17, 8, 7]",7,0,[],33.81499459,6590,1866,1,0,7,1.4474701869793896
basic,30,28,0,0,0,0,[0],1,27,"[1, 2, 3, 4, 5, 6, 7, 8, 9, 10, 11, 12, 13, 14, 15, 16, 17, 18, 19, 20, 22, 23, 25, 26, 27, 28, 29]",300,110,-1,2,96,9,0.0
basic,30,28,0,0,0,20,"[0, 20]",2,22,"[2, 3, 4, 5, 6, 7, 8, 9, 10, 11, 12, 13, 14, 15, 16, 18, 19, 22, 23, 26, 28, 29]",245.9629757,2320,2210,1,24,9,1.0
basic,30,28,0,0,0,3,"[0, 20, 3]",3,19,"[2, 4, 5, 6, 7, 8, 9, 10, 11, 12, 13, 14, 15, 16, 18, 19, 23, 26, 28]",204.6229224,2861,541,9,50,8,1.9497218646689283
basic,30,28,0,0,0,5,"[0, 20, 3, 5]",4,13,"[2, 4, 7, 8, 9, 12, 13, 14, 15, 18, 19, 26, 28]",120.5277383,3886,1025,2,20,8,1.3767728943595041
basic,30,28,0,0,0,26,"[0, 20, 3, 5, 26]",5,11,"[2, 4, 7, 8, 9, 12, 13, 14, 18, 19, 28]",87.77105956,4758,872,2,12,8,1.32061441211042
basic,30,28,0,0,0,19,"[0, 20, 3, 5, 26, 19]",6,5,"[2, 7, 12, 13, 18]",46.77105956,5419,661,2,4,8,1.3869157506525107
basic,30,28,0,0,0,7,"[0, 20, 3, 5, 26, 19, 7]",7,2,"[12, 13]",19.04021032,6147,728,2,0,8,1.4342899363887067
basic,30,28,0,0,1,12,"[0, 20, 3, 5, 26, 19, 7, 12]",8,0,[],5.887263878,8800,2653,1,0,8,1.4275803532406273
basic,30,28,0,1,1,12,"[0, 20, 3, 5, 26, 19, 7, 12]",8,0,[],5.887263878,10257,1457,1,0,8,1.4275803532406273
basic,31,4,0,0,0,0,[0],1,26,"[3, 4, 5, 6, 7, 8, 10, 11, 12, 13, 14, 15, 16, 17, 18, 19, 20, 21, 22, 23, 24, 25, 26, 27, 28, 29]",300,110,-1,4,489,10,0.0
basic,31,4,0,0,0,28,"[0, 28]",2,21,"[3, 4, 5, 6, 10, 11, 12, 13, 14, 15, 16, 17, 19, 20, 21, 22, 23, 24, 25, 26, 27]",225.9392142,2035,1925,2,216,10,1.0
basic,31,4,0,0,0,14,"[0, 28, 14]",3,13,"[3, 4, 5, 6, 11, 13, 16, 17, 20, 21, 22, 24, 25]",159.6972335,4401,2366,1,26,10,1.0273973946789214
basic,31,4,0,0,0,25,"[0, 28, 14, 25]",4,12,"[3, 4, 5, 6, 11, 13, 16, 17, 20, 21, 22, 24]",143.572718,4702,301,1,25,10,1.233547772313525
basic,31,4,0,0,0,11,"[0, 28, 14, 25, 11]",5,10,"[3, 4, 5, 6, 13, 16, 17, 20, 21, 22]",124.7844238,5155,453,1,15,10,1.425978575879479
basic,31,4,0,0,0,16,"[0, 28, 14, 25, 11, 16]",6,9,"[3, 4, 5, 6, 13, 17, 20, 21, 22]",109.7844238,5564,409,1,12,10,1.3799325158051412
basic,31,4,0,0,0,21,"[0, 28, 14, 25, 11, 16, 21]",7,4,"[5, 17, 20, 22]",65.58035157,10419,4855,3,3,9,1.5860540591673642
basic,31,4,0,0,0,22,"[0, 28, 14, 25, 11, 16, 21, 22]",8,3,"[5, 17, 20]",54.53499056,10904,485,3,0,9,1.5471132483772176
basic,31,4,0,0,1,20,"[0, 28, 14, 25, 11, 16, 21, 22, 20]",9,0,[],24.30255764,11455,551,1,0,9,1.5087977616865345
basic,31,4,0,1,1,20,"[0, 28, 14, 25, 11, 16, 21, 22, 20]",9,0,[],24.30255764,13299,1844,1,0,9,1.5087977616865345
basic,32,5,0,0,0,0,[0],1,29,"[1, 2, 3, 4, 5, 6, 7, 8, 9, 10, 11, 12, 13, 14, 15, 16, 17, 18, 19, 20, 21, 22, 23, 24, 25, 26, 27, 28, 29]",300,117,-1,5,139,9,0.0
basic,32,5,0,0,0,23,"[0, 23]",2,27,"[1, 2, 3, 4, 5, 6, 7, 8, 9, 10, 11, 12, 13, 14, 15, 16, 17, 18, 19, 20, 21, 22, 24, 25, 26, 27, 28]",249.8402552,3090,2973,3,75,9,1.0
basic,32,5,0,0,0,12,"[0, 23, 12]",3,20,"[2, 4, 5, 6, 8, 9, 10, 13, 14, 15, 16, 17, 18, 19, 21, 22, 24, 25, 26, 27]",206.6661889,5424,2334,12,56,8,1.3018394868431302
basic,32,5,0,0,0,25,"[0, 23, 12, 25]",4,18,"[2, 4, 5, 6, 8, 9, 10, 13, 14, 15, 17, 18, 19, 21, 22, 24, 26, 27]",178.8813009,5876,452,12,34,8,1.9286025844958365
basic,32,5,0,0,0,24,"[0, 23, 12, 25, 24]",5,14,"[4, 5, 6, 8, 9, 13, 14, 15, 17, 18, 19, 22, 26, 27]",154.0418162,7025,1149,9,16,8,2.0153742455218557
basic,32,5,0,0,0,17,"[0, 23, 12, 25, 24, 17]",6,7,"[4, 5, 6, 8, 15, 18, 19]",119.0561048,7644,619,8,2,8,1.6946205255346762
basic,32,5,0,0,0,5,"[0, 23, 12, 25, 24, 17, 5]",7,4,"[4, 6, 15, 18]",76.00961835,8978,1334,4,0,8,1.498607098302
basic,32,5,0,0,1,15,"[0, 23, 12, 25, 24, 17, 5, 15]",8,0,[],35.98462616,9650,672,1,0,8,1.4940703226391534
basic,32,5,0,1,1,15,"[0, 23, 12, 25, 24, 17, 5, 15]",8,0,[],35.98462616,12201,2551,1,0,8,1.4940703226391534
basic,33,20,0,0,0,0,[0],1,21,"[1, 2, 3, 4, 5, 6, 7, 8, 9, 12, 17, 18, 20, 21, 22, 23, 25, 26, 27, 28, 29]",300,110,-1,1,9,9,0.0
basic,33,20,0,0,0,12,"[0, 12]",2,20,"[1, 2, 3, 4, 5, 6, 7, 8, 9, 17, 18, 20, 21, 22, 23, 25, 26, 27, 28, 29]",271.5570747,5309,5199,1,8,9,1.0
basic,33,20,0,0,0,1,"[0, 12, 1]",3,12,"[3, 4, 5, 6, 8, 9, 20, 21, 23, 27, 28, 29]",189.5692707,5971,662,1,6,9,1.0757997779162911
basic,33,20,0,0,0,5,"[0, 12, 1, 5]",4,10,"[4, 6, 8, 9, 20, 21, 23, 27, 28, 29]",152.8950291,6546,575,1,5,9,1.1708231454516806
basic,33,20,0,0,0,21,"[0, 12, 1, 5, 21]",5,8,"[4, 6, 8, 9, 20, 23, 27, 28]",107.8950291,7230,684,1,4,9,1.126197336199212
basic,33,20,0,0,0,8,"[0, 12, 1, 5, 21, 8]",6,5,"[6, 9, 23, 27, 28]",90.43077988,7685,455,1,3,9,1.140007470699913
basic,33,20,0,0,0,23,"[0, 12, 1, 5, 21, 8, 23]",7,2,"[6, 9]",45.74297394,8314,629,1,1,9,1.1162257896627588
basic,33,20,0,0,0,9,"[0, 12, 1, 5, 21, 8, 23, 9]",8,1,[6],26.53360123,8943,629,1,0,9,1.1086880559449597
basic,33,20,0,0,1,6,"[0, 12, 1, 5, 21, 8, 23, 9, 6]",9,0,[],3.511872362,9572,629,1,0,9,1.1186240265999328
basic,33,20,0,1,1,6,"[0, 12, 1, 5, 21, 8, 23, 9, 6]",9,0,[],3.511872362,10736,1164,1,0,9,1.1186240265999328
basic,34,26,0,0,0,0,[0],1,29,"[1, 2, 3, 4, 5, 6, 7, 8, 9, 10, 11, 12, 13, 14, 15, 16, 17, 18, 19, 20, 21, 22, 23, 24, 25, 26, 27, 28, 29]",300,111,-1,9,226,9,0.0
basic,34,26,0,0,0,21,"[0, 21]",2,25,"[2, 3, 4, 5, 6, 7, 8, 10, 11, 12, 13, 14, 15, 16, 17, 18, 19, 22, 23, 24, 25, 26, 27, 28, 29]",211.1349337,9751,9640,7,90,9,1.0
basic,34,26,0,0,0,16,"[0, 21, 16]",3,12,"[4, 5, 6, 10, 11, 12, 13, 14, 17, 23, 26, 29]",151.2266705,16638,6887,1,34,9,1.3289691188319968
basic,34,26,0,0,0,29,"[0, 21, 16, 29]",4,8,"[4, 5, 6, 10, 13, 14, 17, 23]",127.0192337,17213,575,1,28,9,1.4156891800947415
basic,34,26,0,0,0,4,"[0, 21, 16, 29, 4]",5,5,"[6, 10, 14, 17, 23]",103.0192337,17853,640,1,12,9,1.6252228687746915
basic,34,26,0,0,0,17,"[0, 21, 16, 29, 4, 17]",6,3,"[6, 10, 14]",81.92421056,19483,1630,1,4,9,1.534793846471065
basic,34,26,0,0,0,14,"[0, 21, 16, 29, 4, 17, 14]",7,2,"[6, 10]",59.45200551,20034,551,1,1,9,1.4926767408397108
basic,34,26,0,0,0,6,"[0, 21, 16, 29, 4, 17, 14, 6]",8,1,[10],38.42820947,20564,530,1,0,9,1.6286010900012204
basic,34,26,0,0,1,10,"[0, 21, 16, 29, 4, 17, 14, 6, 10]",9,0,[],9.153647129,21347,783,1,0,9,1.797369356615424
basic,34,26,0,1,1,10,"[0, 21, 16, 29, 4, 17, 14, 6, 10]",9,0,[],9.153647129,23051,1704,1,0,9,1.797369356615424
basic,35,12,0,0,0,0,[0],1,29,"[1, 2, 3, 4, 5, 6, 7, 8, 9, 10, 11, 12, 13, 14, 15, 16, 17, 18, 19, 20, 21, 22, 23, 24, 25, 26, 27, 28, 29]",300,165,-1,2,32,9,0.0
basic,35,12,0,0,0,6,"[0, 6]",2,28,"[1, 2, 3, 4, 5, 7, 8, 9, 10, 11, 12, 13, 14, 15, 16, 17, 18, 19, 20, 21, 22, 23, 24, 25, 26, 27, 28, 29]",283.5987805,5187,5022,2,18,9,1.0
basic,35,12,0,0,0,22,"[0, 6, 22]",3,13,"[2, 4, 5, 7, 12, 13, 14, 16, 19, 23, 24, 25, 27]",182.0015365,5859,672,2,9,9,1.3408050629015749
basic,35,12,0,0,0,16,"[0, 6, 22, 16]",4,10,"[2, 4, 5, 7, 12, 14, 19, 24, 25, 27]",161.0015365,6291,432,2,7,9,1.5323672374573825
basic,35,12,0,0,0,4,"[0, 6, 22, 16, 4]",5,6,"[12, 14, 19, 24, 25, 27]",126.7962737,6942,651,2,5,9,1.38665076120851
basic,35,12,0,0,0,12,"[0, 6, 22, 16, 4, 12]",6,3,"[14, 24, 27]",84.6062275,7560,618,2,3,9,1.3036701691846924
basic,35,12,0,0,0,27,"[0, 6, 22, 16, 4, 12, 27]",7,2,"[14, 24]",60.25463618,8069,509,2,0,9,1.401636252408167
basic,35,12,0,0,0,14,"[0, 6, 22, 16, 4, 12, 27, 14]",8,1,[24],31.60153862,8775,706,1,0,9,1.4415448388010776
basic,35,12,0,0,1,24,"[0, 6, 22, 16, 4, 12, 27, 14, 24]",9,0,[],14.39688808,9525,750,1,0,9,1.6003250998053893
basic,35,12,0,1,1,24,"[0, 6, 22, 16, 4, 12, 27, 14, 24]",9,0,[],14.39688808,12833,3308,1,0,9,1.6003250998053893
basic,36,14,0,0,0,0,[0],1,29,"[1, 2, 3, 4, 5, 6, 7, 8, 9, 10, 11, 12, 13, 14, 15, 16, 17, 18, 19, 20, 21, 22, 23, 24, 25, 26, 27, 28, 29]",300,110,-1,8,157,10,0.0
basic,36,14,0,0,0,15,"[0, 15]",2,20,"[1, 2, 3, 4, 7, 8, 9, 13, 17, 18, 19, 20, 21, 22, 23, 25, 26, 27, 28, 29]",216.7053423,1623,1513,8,102,10,1.0
basic,36,14,0,0,0,28,"[0, 15, 28]",3,17,"[1, 2, 3, 4, 7, 8, 9, 13, 17, 18, 19, 20, 22, 23, 25, 26, 27]",197.4959696,2109,486,8,48,10,1.0446007867311968
basic,36,14,0,0,0,17,"[0, 15, 28, 17]",4,14,"[1, 2, 3, 4, 7, 8, 13, 18, 19, 20, 22, 23, 25, 26]",184.0423455,2563,454,8,39,10,1.0729463354689972
basic,36,14,0,0,0,18,"[0, 15, 28, 17, 18]",5,9,"[1, 2, 4, 7, 8, 19, 23, 25, 26]",119.412631,3202,639,8,27,10,1.5035901079219378
basic,36,14,0,0,0,8,"[0, 15, 28, 17, 18, 8]",6,8,"[1, 2, 4, 7, 19, 23, 25, 26]",105.8111605,3591,389,8,18,10,1.4819689987843856
basic,36,14,0,0,0,19,"[0, 15, 28, 17, 18, 8, 19]",7,5,"[1, 7, 23, 25, 26]",85.19563238,4064,473,4,9,10,1.4526746797093781
basic,36,14,0,0,0,1,"[0, 15, 28, 17, 18, 8, 19, 1]",8,4,"[7, 23, 25, 26]",69.96408617,4485,421,3,1,10,1.4876985459270997
basic,36,14,0,0,0,23,"[0, 15, 28, 17, 18, 8, 19, 1, 23]",9,1,[26],21.96408617,10802,6317,1,0,10,1.4791446279021185
basic,36,14,0,0,1,26,"[0, 15, 28, 17, 18, 8, 19, 1, 23, 26]",10,0,[],11.14743235,11156,354,1,0,10,1.4559204757247275
basic,36,14,0,1,1,26,"[0, 15, 28, 17, 18, 8, 19, 1, 23, 26]",10,0,[],11.14743235,12194,1038,1,0,10,1.4559204757247275
basic,37,15,0,0,0,0,[0],1,25,"[1, 2, 3, 4, 7, 8, 9, 10, 11, 12, 13, 14, 15, 16, 18, 20, 21, 22, 23, 24, 25, 26, 27, 28, 29]",300,109,-1,4,65,9,0.0
basic,37,15,0,0,0,7,"[0, 7]",2,23,"[1, 3, 4, 8, 9, 10, 11, 12, 13, 14, 15, 16, 18, 20, 21, 22, 23, 24, 25, 26, 27, 28, 29]",215.1884442,5565,5456,30,107,8,1.0
basic,37,15,0,0,0,16,"[0, 7, 16]",3,14,"[3, 4, 9, 10, 11, 12, 13, 14, 15, 18, 21, 22, 25, 27]",171.5306843,6711,1146,11,27,8,1.1253230463291073
basic,37,15,0,0,0,11,"[0, 7, 16, 11]",4,10,"[3, 4, 12, 13, 14, 15, 18, 21, 22, 27]",145.5114606,7175,464,6,10,8,1.2441772230587118
basic,37,15,0,0,0,3,"[0, 7, 16, 11, 3]",5,8,"[4, 12, 13, 14, 15, 18, 21, 22]",134.1097064,7650,475,6,4,8,1.253153736954923
basic,37,15,0,0,0,22,"[0, 7, 16, 11, 3, 22]",6,5,"[4, 13, 14, 15, 18]",84.38043933,8323,673,2,3,8,1.249784727890499
basic,37,15,0,0,0,15,"[0, 7, 16, 11, 3, 22, 15]",7,1,[13],58.76794238,9513,1190,1,0,8,1.2283958862490272
basic,37,15,0,0,1,13,"[0, 7, 16, 11, 3, 22, 15, 13]",8,0,[],43.50360486,9954,441,1,0,8,1.2803073001953094
basic,37,15,0,1,1,13,"[0, 7, 16, 11, 3, 22, 15, 13]",8,0,[],43.50360486,11173,1219,1,0,8,1.2803073001953094
basic,38,37,0,0,0,0,[0],1,29,"[1, 2, 3, 4, 5, 6, 7, 8, 9, 10, 11, 12, 13, 14, 15, 16, 17, 18, 19, 20, 21, 22, 23, 24, 25, 26, 27, 28, 29]",300,110,-1,6,168,10,0.0
basic,38,37,0,0,0,18,"[0, 18]",2,19,"[1, 2, 4, 6, 7, 9, 10, 12, 14, 15, 17, 19, 20, 21, 22, 23, 26, 28, 29]",202.4090168,3725,3615,6,89,10,1.0
basic,38,37,0,0,0,7,"[0, 18, 7]",3,12,"[1, 2, 4, 9, 15, 17, 19, 20, 21, 22, 26, 29]",175.2428614,5289,1564,6,53,10,1.0413073512834488
basic,38,37,0,0,0,22,"[0, 18, 7, 22]",4,8,"[1, 2, 4, 15, 19, 20, 21, 26]",125.2428614,5897,608,6,29,10,1.0730792320325544
basic,38,37,0,0,0,4,"[0, 18, 7, 22, 4]",5,7,"[1, 2, 15, 19, 20, 21, 26]",100.2428614,6394,497,4,16,10,1.2290245562206235
basic,38,37,0,0,0,2,"[0, 18, 7, 22, 4, 2]",6,5,"[1, 15, 19, 20, 21]",88.84110714,6715,321,4,7,10,1.3968113858365216
basic,38,37,0,0,0,1,"[0, 18, 7, 22, 4, 2, 1]",7,4,"[15, 19, 20, 21]",71.63645661,7222,507,4,3,10,1.4424239294761476
basic,38,37,0,0,0,15,"[0, 18, 7, 22, 4, 2, 1, 15]",8,2,"[20, 21]",31.67397421,8808,1586,2,0,10,1.612564167414217
basic,38,37,0,0,0,21,"[0, 18, 7, 22, 4, 2, 1, 15, 21]",9,1,[20],16.67397421,10471,1663,1,0,10,1.8256316004901285
basic,38,37,0,0,1,20,"[0, 18, 7, 22, 4, 2, 1, 15, 21, 20]",10,0,[],2.251769103,11023,552,1,0,10,1.9863570569415172
basic,38,37,0,1,1,20,"[0, 18, 7, 22, 4, 2, 1, 15, 21, 20]",10,0,[],2.251769103,12230,1207,1,0,10,1.9863570569415172
basic,39,24,0,0,0,0,[0],1,29,"[1, 2, 3, 4, 5, 6, 7, 8, 9, 10, 11, 12, 13, 14, 15, 16, 17, 18, 19, 20, 21, 22, 23, 24, 25, 26, 27, 28, 29]",300,110,-1,4,76,10,0.0
basic,39,24,0,0,0,16,"[0, 16]",2,28,"[1, 2, 3, 4, 5, 6, 7, 8, 9, 10, 11, 12, 13, 14, 15, 17, 18, 19, 20, 21, 22, 23, 24, 25, 26, 27, 28, 29]",210.3562607,3871,3761,13,110,9,1.0
basic,39,24,0,0,0,22,"[0, 16, 22]",3,27,"[1, 2, 3, 4, 5, 6, 7, 8, 9, 10, 11, 12, 13, 14, 15, 17, 18, 19, 20, 21, 23, 24, 25, 26, 27, 28, 29]",192.3285043,4389,518,7,54,9,1.0217425143037777
basic,39,24,0,0,0,8,"[0, 16, 22, 8]",4,21,"[1, 2, 3, 4, 6, 9, 10, 11, 13, 14, 15, 17, 20, 21, 23, 24, 25, 26, 27, 28, 29]",178.9120964,4886,497,4,28,9,1.0996636936037951
basic,39,24,0,0,0,15,"[0, 16, 22, 8, 15]",5,16,"[3, 4, 6, 9, 10, 11, 13, 14, 17, 23, 24, 25, 26, 27, 28, 29]",148.025206,5473,587,3,17,9,1.2704773343758617
basic,39,24,0,0,0,28,"[0, 16, 22, 8, 15, 28]",6,8,"[3, 4, 9, 11, 13, 23, 26, 27]",102.7482803,6190,717,3,5,9,1.1981967578189556
basic,39,24,0,0,0,23,"[0, 16, 22, 8, 15, 28, 23]",7,3,"[9, 11, 27]",83.72198273,6622,432,3,1,9,1.2275650852813986
basic,39,24,0,0,0,11,"[0, 16, 22, 8, 15, 28, 23, 11]",8,2,"[9, 27]",56.79615869,7175,553,2,0,9,1.2107937989822568
basic,39,24,0,0,1,27,"[0, 16, 22, 8, 15, 28, 23, 11, 27]",9,0,[],28.99328114,7694,519,1,0,9,1.1865620449755248
basic,39,24,0,1,1,27,"[0, 16, 22, 8, 15, 28, 23, 11, 27]",9,0,[],28.99328114,8701,1007,1,0,9,1.1865620449755248
basic,40,41,0,0,0,0,[0],1,29,"[1, 2, 3, 4, 5, 6, 7, 8, 9, 10, 11, 12, 13, 14, 15, 16, 17, 18, 19, 20, 21, 22, 23, 24, 25, 26, 27, 28, 29]",300,110,-1,1,143,10,0.0
basic,40,41,0,0,0,28,"[0, 28]",2,27,"[1, 2, 3, 5, 6, 7, 8, 9, 10, 11, 12, 13, 14, 15, 16, 17, 18, 19, 20, 21, 22, 23, 24, 25, 26, 27, 29]",259.8004975,4773,4663,37,249,9,1.0
basic,40,41,0,0,0,5,"[0, 28, 5]",3,26,"[1, 2, 3, 6, 7, 8, 9, 10, 11, 12, 13, 14, 15, 16, 17, 18, 19, 20, 21, 22, 23, 24, 25, 26, 27, 29]",246.199027,5357,584,30,182,9,1.714241539747437
basic,40,41,0,0,0,3,"[0, 28, 5, 3]",4,25,"[1, 2, 6, 7, 8, 9, 10, 11, 12, 13, 14, 15, 16, 17, 18, 19, 20, 21, 22, 23, 24, 25, 26, 27, 29]",211.3708775,5964,607,20,93,9,2.2367972660995847
basic,40,41,0,0,0,21,"[0, 28, 5, 3, 21]",5,19,"[1, 2, 6, 9, 10, 11, 12, 13, 14, 15, 17, 18, 19, 20, 22, 24, 25, 26, 27]",179.2305601,6494,530,12,46,9,2.470864770481327
basic,40,41,0,0,0,17,"[0, 28, 5, 3, 21, 17]",6,12,"[1, 2, 9, 10, 12, 13, 14, 15, 22, 24, 26, 27]",127.5681947,7400,906,7,14,9,2.7202724861599736
basic,40,41,0,0,0,9,"[0, 28, 5, 3, 21, 17, 9]",7,5,"[1, 2, 10, 12, 14]",96.55206986,7952,552,4,4,9,2.472263750197181
basic,40,41,0,0,0,2,"[0, 28, 5, 3, 21, 17, 9, 2]",8,4,"[1, 10, 12, 14]",84.46902389,8306,354,4,0,9,2.382175894337433
basic,40,41,0,0,1,14,"[0, 28, 5, 3, 21, 17, 9, 2, 14]",9,0,[],16.68997108,9441,1135,1,0,9,1.7903782205974206
basic,40,41,0,1,1,14,"[0, 28, 5, 3, 21, 17, 9, 2, 14]",9,0,[],16.68997108,10883,1442,1,0,9,1.7903782205974206
basic,41,45,0,0,0,0,[0],1,24,"[1, 2, 3, 4, 5, 6, 7, 9, 10, 11, 12, 14, 15, 16, 17, 19, 20, 21, 22, 23, 24, 25, 27, 29]",300,117,-1,6,248,10,0.0
basic,41,45,0,0,0,15,"[0, 15]",2,23,"[1, 2, 3, 4, 5, 6, 7, 9, 10, 11, 12, 14, 16, 17, 19, 20, 21, 22, 23, 24, 25, 27, 29]",253.9022777,1697,1580,5,207,10,1.0
basic,41,45,0,0,0,23,"[0, 15, 23]",3,22,"[1, 2, 3, 4, 5, 6, 7, 9, 10, 11, 12, 14, 16, 17, 19, 20, 21, 22, 24, 25, 27, 29]",230.3014303,2106,409,5,163,10,1.0006068457769497
basic,41,45,0,0,0,20,"[0, 15, 23, 20]",4,19,"[1, 2, 3, 5, 6, 7, 9, 10, 11, 12, 14, 16, 17, 19, 21, 22, 24, 25, 29]",188.8647316,3033,927,5,137,10,1.2062119754673604
basic,41,45,0,0,0,7,"[0, 15, 23, 20, 7]",5,14,"[2, 3, 5, 6, 9, 10, 12, 14, 17, 19, 21, 22, 24, 29]",137.2410936,4488,1455,3,38,10,1.2267717168083891
basic,41,45,0,0,0,2,"[0, 15, 23, 20, 7, 2]",6,8,"[3, 6, 10, 12, 19, 22, 24, 29]",99.22793795,5117,629,3,20,10,1.1978549169009853
basic,41,45,0,0,0,3,"[0, 15, 23, 20, 7, 2, 3]",7,5,"[6, 10, 12, 22, 29]",73.90996014,5603,486,2,7,10,1.2603420042999722
basic,41,45,0,0,0,29,"[0, 15, 23, 20, 7, 2, 3, 29]",8,3,"[6, 10, 12]",53.90996014,6068,465,2,1,10,1.527949676112761
basic,41,45,0,0,0,10,"[0, 15, 23, 20, 7, 2, 3, 29, 10]",9,1,[6],32.36930092,6510,442,1,0,10,1.8188082660591487
basic,41,45,0,0,1,6,"[0, 15, 23, 20, 7, 2, 3, 29, 10, 6]",10,0,[],6.120491419,7360,850,1,0,10,1.7062675391073039
basic,41,45,0,1,1,6,"[0, 15, 23, 20, 7, 2, 3, 29, 10, 6]",10,0,[],6.120491419,9854,2494,1,0,10,1.7062675391073039
basic,42,22,0,0,0,0,[0],1,29,"[1, 2, 3, 4, 5, 6, 7, 8, 9, 10, 11, 12, 13, 14, 15, 16, 17, 18, 19, 20, 21, 22, 23, 24, 25, 26, 27, 28, 29]",300,111,-1,31,704,9,0.0
basic,42,22,0,0,0,19,"[0, 19]",2,20,"[1, 3, 6, 7, 8, 9, 11, 13, 14, 15, 16, 17, 20, 21, 22, 23, 24, 25, 28, 29]",220.3758831,32435,32324,2,158,9,1.0
basic,42,22,0,0,0,29,"[0, 19, 29]",3,18,"[1, 3, 6, 7, 8, 9, 13, 14, 15, 16, 17, 20, 21, 22, 23, 24, 25, 28]",205.3425867,33327,892,2,81,9,1.229213399108372
basic,42,22,0,0,0,7,"[0, 19, 29, 7]",4,13,"[1, 3, 6, 9, 13, 14, 15, 16, 17, 20, 21, 24, 28]",154.2642155,34254,927,2,20,9,1.1587884180041683
basic,42,22,0,0,0,17,"[0, 19, 29, 7, 17]",5,8,"[1, 3, 6, 9, 14, 20, 21, 24]",112.6469114,34794,540,3,12,8,1.185565351525311
basic,42,22,0,0,0,21,"[0, 19, 29, 7, 17, 21]",6,4,"[1, 3, 20, 24]",61.29518312,38008,3214,2,3,8,1.479815379994007
basic,42,22,0,0,0,3,"[0, 19, 29, 7, 17, 21, 3]",7,2,"[1, 20]",36.27519111,38604,596,2,0,8,1.547525185441368
basic,42,22,0,0,1,20,"[0, 19, 29, 7, 17, 21, 3, 20]",8,0,[],4.026160117,39806,1202,1,0,8,2.0399864222812987
basic,42,22,0,1,1,20,"[0, 19, 29, 7, 17, 21, 3, 20]",8,0,[],4.026160117,41142,1336,1,0,8,2.0399864222812987
basic,43,7,0,0,0,0,[0],1,29,"[1, 2, 3, 4, 5, 6, 7, 8, 9, 10, 11, 12, 13, 14, 15, 16, 17, 18, 19, 20, 21, 22, 23, 24, 25, 26, 27, 28, 29]",300,113,-1,3,79,9,0.0
basic,43,7,0,0,0,6,"[0, 6]",2,22,"[2, 4, 5, 7, 8, 9, 10, 11, 13, 14, 15, 16, 18, 19, 20, 21, 22, 23, 24, 25, 27, 28]",231.1160396,2129,2016,1,24,9,1.0
basic,43,7,0,0,0,25,"[0, 6, 25]",3,14,"[2, 4, 5, 7, 13, 14, 15, 16, 18, 19, 20, 21, 23, 28]",163.9371739,3462,1333,1,15,9,1.1491202566384209
basic,43,7,0,0,0,4,"[0, 6, 25, 4]",4,10,"[2, 7, 13, 15, 16, 18, 19, 20, 21, 23]",139.1985401,3893,431,1,9,9,1.145081852791697
basic,43,7,0,0,0,20,"[0, 6, 25, 4, 20]",5,6,"[2, 7, 13, 16, 18, 19]",119.5516574,4236,343,1,4,9,1.2036846139155144
basic,43,7,0,0,0,18,"[0, 6, 25, 4, 20, 18]",6,5,"[2, 7, 13, 16, 19]",106.7454089,4602,366,1,3,9,1.3498144584217913
basic,43,7,0,0,0,7,"[0, 6, 25, 4, 20, 18, 7]",7,2,"[2, 19]",65.51435269,5253,651,1,1,9,1.2817825700699357
basic,43,7,0,0,0,19,"[0, 6, 25, 4, 20, 18, 7, 19]",8,1,[2],36.10347035,5827,574,1,0,9,1.3950287830764145
basic,43,7,0,0,1,2,"[0, 6, 25, 4, 20, 18, 7, 19, 2]",9,0,[],5.953843486,6566,739,1,0,9,1.4010142439340676
basic,43,7,0,1,1,2,"[0, 6, 25, 4, 20, 18, 7, 19, 2]",9,0,[],5.953843486,7911,1345,1,0,9,1.4010142439340676
basic,44,29,0,0,0,0,[0],1,29,"[1, 2, 3, 4, 5, 6, 7, 8, 9, 10, 11, 12, 13, 14, 15, 16, 17, 18, 19, 20, 21, 22, 23, 24, 25, 26, 27, 28, 29]",300,109,-1,1,78,9,0.0
basic,44,29,0,0,0,6,"[0, 6]",2,28,"[1, 2, 3, 4, 5, 7, 8, 9, 10, 11, 12, 13, 14, 15, 16, 17, 18, 19, 20, 21, 22, 23, 24, 25, 26, 27, 28, 29]",228.4108947,2487,2378,1,25,9,1.0
basic,44,29,0,0,0,28,"[0, 6, 28]",3,24,"[1, 3, 4, 5, 7, 9, 10, 11, 12, 13, 14, 15, 16, 17, 18, 20, 21, 22, 23, 24, 25, 26, 27, 29]",187.1798384,2973,486,1,22,9,1.162106788166845
basic,44,29,0,0,0,27,"[0, 6, 28, 27]",4,19,"[1, 3, 4, 5, 7, 9, 10, 11, 12, 13, 14, 15, 16, 21, 22, 23, 25, 26, 29]",166.6615539,3382,409,1,21,9,1.2307173895439045
basic,44,29,0,0,0,22,"[0, 6, 28, 27, 22]",5,13,"[1, 3, 4, 5, 7, 9, 12, 13, 14, 15, 21, 26, 29]",133.4200136,4077,695,1,19,9,1.4241767805149903
basic,44,29,0,0,0,12,"[0, 6, 28, 27, 22, 12]",6,8,"[4, 5, 7, 9, 13, 14, 21, 26]",95.4726817,4783,706,1,6,9,1.3248355326460857
basic,44,29,0,0,0,7,"[0, 6, 28, 27, 22, 12, 7]",7,4,"[4, 5, 9, 21]",81.87121119,5049,266,1,3,9,1.3264091962339806
basic,44,29,0,0,0,9,"[0, 6, 28, 27, 22, 12, 7, 9]",8,1,[4],52.80232748,5646,597,1,0,9,1.309391257644539
basic,44,29,0,0,1,4,"[0, 6, 28, 27, 22, 12, 7, 9, 4]",9,0,[],11.76575843,6527,881,1,0,9,1.6396807789841599
basic,44,29,0,1,1,4,"[0, 6, 28, 27, 22, 12, 7, 9, 4]",9,0,[],11.76575843,7360,833,1,0,9,1.6396807789841599
basic,45,16,0,0,0,0,[0],1,29,"[1, 2, 3, 4, 5, 6, 7, 8, 9, 10, 11, 12, 13, 14, 15, 16, 17, 18, 19, 20, 21, 22, 23, 24, 25, 26, 27, 28, 29]",300,159,-1,13,161,9,0.0
basic,45,16,0,0,0,28,"[0, 28]",2,27,"[1, 2, 3, 4, 5, 7, 8, 9, 10, 11, 12, 13, 14, 15, 16, 17, 18, 19, 20, 21, 22, 23, 24, 25, 26, 27, 29]",284.3475242,3279,3120,11,92,9,1.0
basic,45,16,0,0,0,17,"[0, 28, 17]",3,26,"[1, 2, 3, 4, 5, 7, 8, 9, 10, 11, 12, 13, 14, 15, 16, 18, 19, 20, 21, 22, 23, 24, 25, 26, 27, 29]",219.1555001,3950,671,10,46,9,1.3773866384707543
basic,45,16,0,0,0,16,"[0, 28, 17, 16]",4,25,"[1, 2, 3, 4, 5, 7, 8, 9, 10, 11, 12, 13, 14, 15, 18, 19, 20, 21, 22, 23, 24, 25, 26, 27, 29]",190.8358956,5019,1069,10,34,9,1.3209953830681203
basic,45,16,0,0,0,8,"[0, 28, 17, 16, 8]",5,12,"[3, 4, 5, 9, 12, 13, 15, 19, 20, 21, 25, 29]",142.4623491,5737,718,6,19,9,1.2700932705506198
basic,45,16,0,0,0,20,"[0, 28, 17, 16, 8, 20]",6,6,"[4, 5, 9, 12, 15, 25]",84.6869218,6321,584,4,4,9,1.1899382910703262
basic,45,16,0,0,0,25,"[0, 28, 17, 16, 8, 20, 25]",7,3,"[5, 9, 15]",72.03781116,6697,376,2,2,9,1.2372268181049477
basic,45,16,0,0,0,9,"[0, 28, 17, 16, 8, 20, 25, 9]",8,2,"[5, 15]",59.23156268,7085,388,2,0,9,1.221922950237529
basic,45,16,0,0,1,15,"[0, 28, 17, 16, 8, 20, 25, 9, 15]",9,0,[],20.334262,7693,608,1,0,9,1.318239760375411
basic,45,16,0,1,1,15,"[0, 28, 17, 16, 8, 20, 25, 9, 15]",9,0,[],20.334262,8778,1085,1,0,9,1.318239760375411
basic,46,36,0,0,0,0,[0],1,24,"[2, 4, 5, 6, 7, 8, 9, 10, 12, 13, 14, 15, 16, 17, 18, 19, 20, 22, 23, 25, 26, 27, 28, 29]",300,111,-1,2,200,10,0.0
basic,46,36,0,0,0,12,"[0, 12]",2,23,"[2, 4, 5, 6, 7, 8, 9, 10, 13, 14, 15, 16, 17, 18, 19, 20, 22, 23, 25, 26, 27, 28, 29]",277.7963967,5796,5685,90,804,9,1.0
basic,46,36,0,0,0,9,"[0, 12, 9]",3,14,"[2, 4, 8, 10, 13, 16, 17, 18, 19, 23, 25, 27, 28, 29]",215.4345494,9768,3972,32,191,9,1.224429481246385
basic,46,36,0,0,0,19,"[0, 12, 9, 19]",4,13,"[2, 4, 8, 10, 13, 16, 17, 18, 23, 25, 27, 28, 29]",200.3018034,10309,541,14,61,9,1.293473472808712
basic,46,36,0,0,0,13,"[0, 12, 9, 19, 13]",5,11,"[2, 4, 8, 10, 16, 17, 18, 23, 25, 27, 29]",156.8852167,12610,2301,3,11,9,1.4591399938752248
basic,46,36,0,0,0,25,"[0, 12, 9, 19, 13, 25]",6,9,"[2, 4, 8, 10, 16, 17, 18, 27, 29]",136.2939565,13385,775,2,4,9,1.4298698082269896
basic,46,36,0,0,0,2,"[0, 12, 9, 19, 13, 25, 2]",7,3,"[10, 16, 17]",111.2939565,13903,518,2,1,9,1.6710122330380308
basic,46,36,0,0,0,17,"[0, 12, 9, 19, 13, 25, 2, 17]",8,1,[16],70.0629002,14521,618,1,0,9,2.43282226790612
basic,46,36,0,0,1,16,"[0, 12, 9, 19, 13, 25, 2, 17, 16]",9,0,[],41.74329568,15184,663,1,0,9,2.4195386049869865
basic,46,36,0,1,1,16,"[0, 12, 9, 19, 13, 25, 2, 17, 16]",9,0,[],41.74329568,19780,4596,1,0,9,2.4195386049869865
