condition,trial_id,map_id,undoIndicator,submit,checkEnd,currentChoice,chosen_all,n_city_all,n_within_reach,cities_reach,currentBudget,time_all,rt_all,n_opt_paths_all,n_subopt_paths_all,mas_all,tortuosity_all
undo,0,37,0,0,0,0,[0],1,29,"[1, 2, 3, 4, 5, 6, 7, 8, 9, 10, 11, 12, 13, 14, 15, 16, 17, 18, 19, 20, 21, 22, 23, 24, 25, 26, 27, 28, 29]",300,127,-1,6,168,10,0.0
undo,0,37,0,0,0,18,"[0, 18]",2,19,"[1, 2, 4, 6, 7, 9, 10, 12, 14, 15, 17, 19, 20, 21, 22, 23, 26, 28, 29]",202.4090168,7550,7423,6,89,10,1.0
undo,0,37,0,0,0,7,"[0, 18, 7]",3,12,"[1, 2, 4, 9, 15, 17, 19, 20, 21, 22, 26, 29]",175.2428614,9202,1652,6,53,10,1.0413073512834488
undo,0,37,0,0,0,22,"[0, 18, 7, 22]",4,8,"[1, 2, 4, 15, 19, 20, 21, 26]",125.2428614,10326,1124,6,29,10,1.0730792320325544
undo,0,37,0,0,0,4,"[0, 18, 7, 22, 4]",5,7,"[1, 2, 15, 19, 20, 21, 26]",100.2428614,11471,1145,4,16,10,1.2290245562206235
undo,0,37,0,0,0,2,"[0, 18, 7, 22, 4, 2]",6,5,"[1, 15, 19, 20, 21]",88.84110714,12557,1086,4,7,10,1.3968113858365216
undo,0,37,0,0,0,1,"[0, 18, 7, 22, 4, 2, 1]",7,4,"[15, 19, 20, 21]",71.63645661,13785,1228,4,3,10,1.4424239294761476
undo,0,37,0,0,0,15,"[0, 18, 7, 22, 4, 2, 1, 15]",8,2,"[20, 21]",31.67397421,15727,1942,2,0,10,1.612564167414217
undo,0,37,0,0,0,20,"[0, 18, 7, 22, 4, 2, 1, 15, 20]",9,1,[21],14.67397421,19068,3341,1,0,10,1.9034852470814607
undo,0,37,0,0,1,21,"[0, 18, 7, 22, 4, 2, 1, 15, 20, 21]",10,0,[],0.251769103,19884,816,1,0,10,1.9314492588202221
undo,0,37,0,1,1,21,"[0, 18, 7, 22, 4, 2, 1, 15, 20, 21]",10,0,[],0.251769103,21777,1893,1,0,10,1.9314492588202221
undo,1,12,0,0,0,0,[0],1,29,"[1, 2, 3, 4, 5, 6, 7, 8, 9, 10, 11, 12, 13, 14, 15, 16, 17, 18, 19, 20, 21, 22, 23, 24, 25, 26, 27, 28, 29]",300,113,-1,2,32,9,0.0
undo,1,12,0,0,0,22,"[0, 22]",2,22,"[2, 4, 5, 6, 7, 9, 10, 12, 13, 14, 15, 16, 17, 18, 19, 21, 23, 24, 25, 27, 28, 29]",211.9943184,10321,10208,6,42,8,1.0
undo,1,12,0,0,0,16,"[0, 22, 16]",3,12,"[2, 4, 5, 6, 7, 12, 14, 19, 23, 24, 25, 27]",190.9943184,11091,770,6,24,8,1.2017164145167045
undo,1,12,0,0,0,4,"[0, 22, 16, 4]",4,9,"[2, 6, 7, 12, 14, 19, 24, 25, 27]",156.7890556,12537,1446,6,14,8,1.146531713305579
undo,1,12,0,0,0,12,"[0, 22, 16, 4, 12]",5,4,"[14, 19, 24, 27]",114.5990094,14189,1652,4,3,8,1.1221389456954312
undo,1,12,0,0,0,27,"[0, 22, 16, 4, 12, 27]",6,3,"[14, 19, 24]",90.24741807,15207,1018,2,1,8,1.2262878338287035
undo,1,12,0,0,0,14,"[0, 22, 16, 4, 12, 27, 14]",7,1,[24],61.59432051,16372,1165,1,0,8,1.2804562106751427
undo,1,12,0,0,1,24,"[0, 22, 16, 4, 12, 27, 14, 24]",8,0,[],44.38966997,17537,1165,1,0,8,1.4322660007679802
undo,1,12,1,0,0,14,"[0, 22, 16, 4, 12, 27, 14]",7,1,[24],61.59432051,20913,3376,1,0,8,1.2804562106751427
undo,1,12,1,0,0,27,"[0, 22, 16, 4, 12, 27]",6,3,"[14, 19, 24]",90.24741807,27464,6551,2,1,8,1.2262878338287035
undo,1,12,1,0,0,12,"[0, 22, 16, 4, 12]",5,4,"[14, 19, 24, 27]",114.5990094,36497,9033,4,3,8,1.1221389456954312
undo,1,12,1,0,0,4,"[0, 22, 16, 4]",4,9,"[2, 6, 7, 12, 14, 19, 24, 25, 27]",156.7890556,36697,200,6,14,8,1.146531713305579
undo,1,12,1,0,0,16,"[0, 22, 16]",3,12,"[2, 4, 5, 6, 7, 12, 14, 19, 23, 24, 25, 27]",190.9943184,36897,200,6,24,8,1.2017164145167045
undo,1,12,1,0,0,22,"[0, 22]",2,22,"[2, 4, 5, 6, 7, 9, 10, 12, 13, 14, 15, 16, 17, 18, 19, 21, 23, 24, 25, 27, 28, 29]",211.9943184,37164,267,6,42,8,1.0
undo,1,12,1,0,0,0,[0],1,29,"[1, 2, 3, 4, 5, 6, 7, 8, 9, 10, 11, 12, 13, 14, 15, 16, 17, 18, 19, 20, 21, 22, 23, 24, 25, 26, 27, 28, 29]",300,37530,366,2,32,9,0.0
undo,1,12,0,0,0,6,"[0, 6]",2,28,"[1, 2, 3, 4, 5, 7, 8, 9, 10, 11, 12, 13, 14, 15, 16, 17, 18, 19, 20, 21, 22, 23, 24, 25, 26, 27, 28, 29]",283.5987805,41455,3925,2,18,9,1.0
undo,1,12,0,0,0,18,"[0, 6, 18]",3,10,"[1, 2, 3, 5, 7, 9, 11, 15, 17, 21]",144.5088815,43036,1581,6,15,7,1.0360320431021144
undo,1,12,0,0,0,21,"[0, 6, 18, 21]",4,7,"[1, 3, 5, 9, 11, 15, 17]",128.230061,44363,1327,4,5,7,1.049996564847597
undo,1,12,0,0,0,15,"[0, 6, 18, 21, 15]",5,3,"[1, 11, 17]",73.1573817,45470,1107,4,0,7,1.2004943839605104
undo,1,12,0,0,0,17,"[0, 6, 18, 21, 15, 17]",6,2,"[1, 11]",56.6649592,46407,937,2,0,7,1.2468231791823723
undo,1,12,0,0,1,1,"[0, 6, 18, 21, 15, 17, 1]",7,0,[],7.501964983,48971,2564,1,0,7,1.2037669701163007
undo,1,12,0,1,1,1,"[0, 6, 18, 21, 15, 17, 1]",7,0,[],7.501964983,51230,2259,1,0,7,1.2037669701163007
undo,2,6,0,0,0,0,[0],1,29,"[1, 2, 3, 4, 5, 6, 7, 8, 9, 10, 11, 12, 13, 14, 15, 16, 17, 18, 19, 20, 21, 22, 23, 24, 25, 26, 27, 28, 29]",300,116,-1,180,4304,10,0.0
undo,2,6,0,0,0,3,"[0, 3]",2,28,"[1, 2, 4, 5, 6, 7, 8, 9, 10, 11, 12, 13, 14, 15, 16, 17, 18, 19, 20, 21, 22, 23, 24, 25, 26, 27, 28, 29]",266.4738908,12146,12030,90,1607,10,1.0
undo,2,6,0,0,0,18,"[0, 3, 18]",3,27,"[1, 2, 4, 5, 6, 7, 8, 9, 10, 11, 12, 13, 14, 15, 16, 17, 19, 20, 21, 22, 23, 24, 25, 26, 27, 28, 29]",237.4738908,13315,1169,34,516,10,1.0266750028725786
undo,2,6,0,0,0,17,"[0, 3, 18, 17]",4,26,"[1, 2, 4, 5, 6, 7, 8, 9, 10, 11, 12, 13, 14, 15, 16, 19, 20, 21, 22, 23, 24, 25, 26, 27, 28, 29]",223.5455025,14197,882,17,243,10,1.0832900829093166
undo,2,6,0,0,0,10,"[0, 3, 18, 17, 10]",5,22,"[1, 2, 4, 5, 6, 7, 8, 9, 11, 13, 14, 16, 19, 20, 21, 22, 23, 24, 26, 27, 28, 29]",203.8224196,15187,990,10,111,10,1.140294203414171
undo,2,6,0,0,0,24,"[0, 3, 18, 17, 10, 24]",6,19,"[1, 2, 4, 5, 6, 7, 8, 11, 13, 14, 16, 20, 21, 22, 23, 26, 27, 28, 29]",190.4060117,16212,1025,10,80,10,1.1264281153820843
undo,2,6,0,0,0,16,"[0, 3, 18, 17, 10, 24, 16]",7,13,"[1, 2, 6, 7, 13, 14, 20, 21, 22, 23, 26, 27, 29]",134.3703088,18674,2462,6,21,10,2.2946652061367843
undo,2,6,0,0,0,29,"[0, 3, 18, 17, 10, 24, 16, 29]",8,7,"[6, 14, 20, 21, 22, 23, 27]",97.68243615,20447,1773,5,5,10,1.8995488998077483
undo,2,6,0,0,1,14,"[0, 3, 18, 17, 10, 24, 16, 29, 14]",9,0,[],34.08212168,22545,2098,1,0,9,1.5811367954275994
undo,2,6,1,0,0,29,"[0, 3, 18, 17, 10, 24, 16, 29]",8,7,"[6, 14, 20, 21, 22, 23, 27]",97.68243615,29600,7055,5,5,10,1.8995488998077483
undo,2,6,0,0,0,22,"[0, 3, 18, 17, 10, 24, 16, 29, 22]",9,3,"[14, 23, 27]",47.35351802,31958,2358,3,0,10,1.6225652141198474
undo,2,6,0,0,1,27,"[0, 3, 18, 17, 10, 24, 16, 29, 22, 27]",10,0,[],2.342408277,33641,1683,1,0,10,1.583531500252726
undo,2,6,0,1,1,27,"[0, 3, 18, 17, 10, 24, 16, 29, 22, 27]",10,0,[],2.342408277,35067,1426,1,0,10,1.583531500252726
undo,3,18,0,0,0,0,[0],1,28,"[1, 2, 3, 4, 5, 6, 7, 8, 9, 10, 11, 12, 13, 14, 16, 17, 18, 19, 20, 21, 22, 23, 24, 25, 26, 27, 28, 29]",300,130,-1,3,136,10,0.0
undo,3,18,0,0,0,28,"[0, 28]",2,16,"[1, 3, 5, 7, 8, 9, 12, 13, 14, 16, 20, 23, 24, 25, 26, 27]",236.4311397,6621,6491,2,19,10,1.0
undo,3,18,0,0,0,7,"[0, 28, 7]",3,15,"[1, 3, 5, 8, 9, 12, 13, 14, 16, 20, 23, 24, 25, 26, 27]",214.4084242,7820,1199,2,17,10,1.4345180696367563
undo,3,18,0,0,0,25,"[0, 28, 7, 25]",4,13,"[1, 3, 5, 8, 9, 12, 13, 14, 16, 20, 23, 26, 27]",186.6055466,9038,1218,2,15,10,1.8896451241781882
undo,3,18,0,0,0,8,"[0, 28, 7, 25, 8]",5,10,"[3, 5, 9, 12, 13, 14, 16, 23, 26, 27]",149.551532,9939,901,2,10,10,1.590467437592877
undo,3,18,0,0,0,13,"[0, 28, 7, 25, 8, 13]",6,9,"[3, 5, 9, 12, 14, 16, 23, 26, 27]",128.4565089,10576,637,2,5,10,1.8248274983549797
undo,3,18,0,0,0,14,"[0, 28, 7, 25, 8, 13, 14]",7,7,"[3, 5, 9, 12, 23, 26, 27]",109.4828429,11543,967,2,3,10,1.6993534956692746
undo,3,18,0,0,0,3,"[0, 28, 7, 25, 8, 13, 14, 3]",8,3,"[5, 12, 27]",79.39962499,12761,1218,2,1,10,1.802637206541468
undo,3,18,0,0,0,5,"[0, 28, 7, 25, 8, 13, 14, 3, 5]",9,1,[12],21.21887216,14338,1577,1,0,10,1.559774889743805
undo,3,18,0,0,1,12,"[0, 28, 7, 25, 8, 13, 14, 3, 5, 12]",10,0,[],9.817117911,14995,657,1,0,10,1.563993037384447
undo,3,18,0,1,1,12,"[0, 28, 7, 25, 8, 13, 14, 3, 5, 12]",10,0,[],9.817117911,16813,1818,1,0,10,1.563993037384447
undo,4,25,0,0,0,0,[0],1,28,"[1, 2, 3, 4, 5, 7, 8, 9, 10, 11, 12, 13, 14, 15, 16, 17, 18, 19, 20, 21, 22, 23, 24, 25, 26, 27, 28, 29]",300,115,-1,5,94,10,0.0
undo,4,25,0,0,0,1,"[0, 1]",2,22,"[2, 3, 5, 7, 8, 9, 11, 12, 13, 14, 16, 17, 18, 19, 20, 21, 22, 23, 24, 25, 28, 29]",268.9516506,13672,13557,16,145,9,1.0
undo,4,25,1,0,0,0,[0],1,28,"[1, 2, 3, 4, 5, 7, 8, 9, 10, 11, 12, 13, 14, 15, 16, 17, 18, 19, 20, 21, 22, 23, 24, 25, 26, 27, 28, 29]",300,16248,2576,5,94,10,0.0
undo,4,25,0,0,0,19,"[0, 19]",2,27,"[1, 2, 3, 4, 5, 7, 8, 9, 10, 11, 12, 13, 14, 15, 16, 17, 18, 20, 21, 22, 23, 24, 25, 26, 27, 28, 29]",251.9479449,19313,3065,2,30,10,1.0
undo,4,25,0,0,0,29,"[0, 19, 29]",3,26,"[1, 2, 3, 4, 5, 7, 8, 9, 10, 11, 12, 13, 14, 15, 16, 17, 18, 20, 21, 22, 23, 24, 25, 26, 27, 28]",235.6691243,20465,1152,2,22,10,1.0272252084351727
undo,4,25,0,0,0,22,"[0, 19, 29, 22]",4,24,"[1, 2, 3, 4, 5, 7, 8, 9, 11, 12, 13, 14, 15, 16, 17, 18, 20, 21, 23, 24, 25, 26, 27, 28]",219.5446088,21404,939,2,17,10,1.03988854593305
undo,4,25,0,0,0,23,"[0, 19, 29, 22, 23]",5,10,"[1, 3, 5, 7, 8, 9, 11, 20, 21, 24]",160.1476392,22861,1457,1,8,9,3.4768066793568115
undo,4,25,0,0,0,7,"[0, 19, 29, 22, 23, 7]",6,3,"[3, 9, 24]",82.31448429,25321,2460,1,3,9,1.8573741286819305
undo,4,25,0,0,0,24,"[0, 19, 29, 22, 23, 7, 24]",7,2,"[3, 9]",57.55564749,26479,1158,1,1,9,1.725025582994401
undo,4,25,0,0,0,9,"[0, 19, 29, 22, 23, 7, 24, 9]",8,1,[3],39.52789111,28924,2445,1,0,9,1.668527856409981
undo,4,25,0,0,1,3,"[0, 19, 29, 22, 23, 7, 24, 9, 3]",9,0,[],9.262399207,31481,2557,1,0,9,1.5702475590603595
undo,4,25,0,1,1,3,"[0, 19, 29, 22, 23, 7, 24, 9, 3]",9,0,[],9.262399207,33565,2084,1,0,9,1.5702475590603595
undo,5,0,0,0,0,0,[0],1,27,"[2, 3, 4, 5, 6, 7, 8, 9, 10, 11, 12, 13, 14, 15, 16, 17, 19, 20, 21, 22, 23, 24, 25, 26, 27, 28, 29]",300,162,-1,104,1136,9,0.0
undo,5,0,0,0,0,28,"[0, 28]",2,26,"[2, 3, 4, 5, 6, 7, 8, 9, 10, 11, 12, 13, 14, 15, 16, 17, 19, 20, 21, 22, 23, 24, 25, 26, 27, 29]",194.9190788,7479,7317,39,388,9,1.0
undo,5,0,0,0,0,26,"[0, 28, 26]",3,21,"[2, 3, 4, 5, 7, 8, 9, 10, 11, 12, 13, 14, 15, 17, 19, 20, 21, 22, 23, 24, 25]",136.9363227,8735,1256,5,55,9,1.0093388233539051
undo,5,0,0,0,0,4,"[0, 28, 26, 4]",4,16,"[3, 5, 7, 8, 9, 11, 12, 13, 14, 15, 17, 19, 20, 21, 23, 24]",124.8947282,9553,818,5,33,9,1.1185924093500432
undo,5,0,0,0,0,24,"[0, 28, 26, 4, 24]",5,12,"[3, 5, 7, 8, 9, 11, 12, 15, 17, 19, 20, 23]",113.4929739,10322,769,5,21,9,1.1179314844344648
undo,5,0,0,0,0,5,"[0, 28, 26, 4, 24, 5]",6,7,"[7, 9, 11, 12, 15, 17, 20]",80.73629521,12737,2415,7,0,7,1.6183696427649112
undo,5,0,1,0,0,24,"[0, 28, 26, 4, 24]",5,12,"[3, 5, 7, 8, 9, 11, 12, 15, 17, 19, 20, 23]",113.4929739,15612,2875,5,21,9,1.1179314844344648
undo,5,0,0,0,0,15,"[0, 28, 26, 4, 24, 15]",6,9,"[3, 5, 7, 8, 9, 11, 12, 17, 19]",90.14773885,18419,2807,5,8,9,1.1101585049568639
undo,5,0,0,0,0,8,"[0, 28, 26, 4, 24, 15, 8]",7,3,"[3, 7, 19]",51.03252442,19356,937,1,2,9,1.1191386353088593
undo,5,0,0,0,0,7,"[0, 28, 26, 4, 24, 15, 8, 7]",8,1,[3],31.92755125,20322,966,1,0,9,1.3076082531700348
undo,5,0,0,0,1,3,"[0, 28, 26, 4, 24, 15, 8, 7, 3]",9,0,[],7.844362091,27206,6884,1,0,9,1.3478285640526748
undo,5,0,0,1,1,3,"[0, 28, 26, 4, 24, 15, 8, 7, 3]",9,0,[],7.844362091,28395,1189,1,0,9,1.3478285640526748
undo,6,31,0,0,0,0,[0],1,27,"[1, 3, 4, 5, 6, 7, 8, 10, 11, 12, 13, 14, 15, 16, 17, 18, 19, 20, 21, 22, 23, 24, 25, 26, 27, 28, 29]",300,130,-1,2,87,10,0.0
undo,6,31,0,0,0,14,"[0, 14]",2,25,"[1, 3, 5, 6, 7, 8, 10, 11, 12, 13, 15, 16, 17, 18, 19, 20, 21, 22, 23, 24, 25, 26, 27, 28, 29]",263.861378,9121,8991,2,59,10,1.0
undo,6,31,0,0,0,27,"[0, 14, 27]",3,22,"[1, 3, 5, 6, 7, 8, 10, 11, 12, 13, 15, 16, 17, 18, 19, 20, 21, 22, 24, 25, 28, 29]",235.6833724,10105,984,1,39,10,1.5881859159302467
undo,6,31,0,0,0,8,"[0, 14, 27, 8]",4,20,"[1, 3, 5, 6, 7, 10, 11, 12, 13, 16, 17, 18, 19, 20, 21, 22, 24, 25, 28, 29]",224.6380114,10861,756,1,36,10,2.1665048452331277
undo,6,31,0,0,0,18,"[0, 14, 27, 8, 18]",5,15,"[1, 5, 6, 7, 11, 12, 13, 16, 17, 19, 20, 22, 25, 28, 29]",188.7911147,13495,2634,1,26,10,1.7273375741920205
undo,6,31,0,0,0,17,"[0, 14, 27, 8, 18, 17]",6,13,"[1, 5, 6, 7, 11, 12, 13, 16, 19, 20, 22, 25, 28]",159.584951,15038,1543,1,13,10,1.551192427769927
undo,6,31,0,0,0,11,"[0, 14, 27, 8, 18, 17, 11]",7,7,"[5, 12, 16, 19, 22, 25, 28]",118.4753414,16406,1368,1,4,10,2.9650760544203494
undo,6,31,0,0,0,5,"[0, 14, 27, 8, 18, 17, 11, 5]",8,2,"[16, 28]",74.79468207,17786,1380,1,1,10,2.56711965625205
undo,6,31,0,0,0,28,"[0, 14, 27, 8, 18, 17, 11, 5, 28]",9,1,[16],54.57093365,18792,1006,1,0,10,2.2865510762058148
undo,6,31,1,0,0,5,"[0, 14, 27, 8, 18, 17, 11, 5]",8,2,"[16, 28]",74.79468207,20914,2122,1,1,10,2.56711965625205
undo,6,31,1,0,0,11,"[0, 14, 27, 8, 18, 17, 11]",7,7,"[5, 12, 16, 19, 22, 25, 28]",118.4753414,22281,1367,1,4,10,2.9650760544203494
undo,6,31,0,0,1,19,"[0, 14, 27, 8, 18, 17, 11, 19]",8,0,[],10.00875669,26264,3983,1,0,8,5.258679150814082
undo,6,31,0,1,1,19,"[0, 14, 27, 8, 18, 17, 11, 19]",8,0,[],10.00875669,28214,1950,1,0,8,5.258679150814082
undo,7,16,0,0,0,0,[0],1,29,"[1, 2, 3, 4, 5, 6, 7, 8, 9, 10, 11, 12, 13, 14, 15, 16, 17, 18, 19, 20, 21, 22, 23, 24, 25, 26, 27, 28, 29]",300,115,-1,13,161,9,0.0
undo,7,16,0,0,0,28,"[0, 28]",2,27,"[1, 2, 3, 4, 5, 7, 8, 9, 10, 11, 12, 13, 14, 15, 16, 17, 18, 19, 20, 21, 22, 23, 24, 25, 26, 27, 29]",284.3475242,7602,7487,11,92,9,1.0
undo,7,16,0,0,0,17,"[0, 28, 17]",3,26,"[1, 2, 3, 4, 5, 7, 8, 9, 10, 11, 12, 13, 14, 15, 16, 18, 19, 20, 21, 22, 23, 24, 25, 26, 27, 29]",219.1555001,9706,2104,10,46,9,1.3773866384707543
undo,7,16,0,0,0,16,"[0, 28, 17, 16]",4,25,"[1, 2, 3, 4, 5, 7, 8, 9, 10, 11, 12, 13, 14, 15, 18, 19, 20, 21, 22, 23, 24, 25, 26, 27, 29]",190.8358956,10546,840,10,34,9,1.3209953830681203
undo,7,16,0,0,0,8,"[0, 28, 17, 16, 8]",5,12,"[3, 4, 5, 9, 12, 13, 15, 19, 20, 21, 25, 29]",142.4623491,11842,1296,6,19,9,1.2700932705506198
undo,7,16,0,0,0,20,"[0, 28, 17, 16, 8, 20]",6,6,"[4, 5, 9, 12, 15, 25]",84.6869218,13142,1300,4,4,9,1.1899382910703262
undo,7,16,0,0,0,25,"[0, 28, 17, 16, 8, 20, 25]",7,3,"[5, 9, 15]",72.03781116,14022,880,2,2,9,1.2372268181049477
undo,7,16,0,0,0,9,"[0, 28, 17, 16, 8, 20, 25, 9]",8,2,"[5, 15]",59.23156268,14677,655,2,0,9,1.221922950237529
undo,7,16,0,0,1,5,"[0, 28, 17, 16, 8, 20, 25, 9, 5]",9,0,[],7.221948185,20678,6001,1,0,9,1.5480288369315591
undo,7,16,0,1,1,5,"[0, 28, 17, 16, 8, 20, 25, 9, 5]",9,0,[],7.221948185,21931,1253,1,0,9,1.5480288369315591
undo,8,39,0,0,0,0,[0],1,28,"[1, 2, 3, 4, 5, 6, 7, 9, 10, 11, 12, 13, 14, 15, 16, 17, 18, 19, 20, 21, 22, 23, 24, 25, 26, 27, 28, 29]",300,131,-1,1,30,10,0.0
undo,8,39,0,0,0,14,"[0, 14]",2,26,"[1, 2, 3, 4, 5, 6, 7, 9, 10, 12, 13, 15, 16, 17, 18, 19, 20, 21, 22, 23, 24, 25, 26, 27, 28, 29]",286.9615952,6555,6424,1,22,10,1.0
undo,8,39,0,0,0,29,"[0, 14, 29]",3,23,"[1, 2, 3, 4, 5, 6, 7, 9, 10, 12, 13, 15, 16, 17, 18, 19, 21, 22, 23, 24, 25, 26, 28]",218.9321898,7978,1423,1,21,10,1.4237768813412561
undo,8,39,0,0,0,10,"[0, 14, 29, 10]",4,16,"[1, 2, 4, 5, 7, 9, 12, 13, 15, 16, 18, 19, 22, 23, 24, 26]",154.2947393,9931,1953,10,55,9,1.2261903217179273
undo,8,39,0,0,0,7,"[0, 14, 29, 10, 7]",5,13,"[1, 2, 5, 9, 12, 13, 15, 16, 18, 19, 22, 24, 26]",120.8731894,11995,2064,7,19,9,1.1772181718345374
undo,8,39,0,0,0,26,"[0, 14, 29, 10, 7, 26]",6,6,"[1, 12, 16, 18, 19, 22]",102.1916477,13046,1051,5,7,9,1.2246375898647768
undo,8,39,0,0,0,22,"[0, 14, 29, 10, 7, 26, 22]",7,4,"[12, 16, 18, 19]",84.47160256,13906,860,3,2,9,1.3919259602577456
undo,8,39,0,0,0,16,"[0, 14, 29, 10, 7, 26, 22, 16]",8,2,"[18, 19]",49.47160256,15742,1836,2,0,9,1.3197225741710712
undo,8,39,0,0,1,19,"[0, 14, 29, 10, 7, 26, 22, 16, 19]",9,0,[],32.00735337,16427,685,1,0,9,1.3285534538986796
undo,8,39,1,0,0,16,"[0, 14, 29, 10, 7, 26, 22, 16]",8,2,"[18, 19]",49.47160256,17865,1438,2,0,9,1.3197225741710712
undo,8,39,0,0,1,18,"[0, 14, 29, 10, 7, 26, 22, 16, 18]",9,0,[],2.856154482,18994,1129,1,0,9,1.2674635411984276
undo,8,39,0,1,1,18,"[0, 14, 29, 10, 7, 26, 22, 16, 18]",9,0,[],2.856154482,20465,1471,1,0,9,1.2674635411984276
undo,9,24,0,0,0,0,[0],1,29,"[1, 2, 3, 4, 5, 6, 7, 8, 9, 10, 11, 12, 13, 14, 15, 16, 17, 18, 19, 20, 21, 22, 23, 24, 25, 26, 27, 28, 29]",300,114,-1,4,76,10,0.0
undo,9,24,0,0,0,16,"[0, 16]",2,28,"[1, 2, 3, 4, 5, 6, 7, 8, 9, 10, 11, 12, 13, 14, 15, 17, 18, 19, 20, 21, 22, 23, 24, 25, 26, 27, 28, 29]",210.3562607,7227,7113,13,110,9,1.0
undo,9,24,0,0,0,22,"[0, 16, 22]",3,27,"[1, 2, 3, 4, 5, 6, 7, 8, 9, 10, 11, 12, 13, 14, 15, 17, 18, 19, 20, 21, 23, 24, 25, 26, 27, 28, 29]",192.3285043,8153,926,7,54,9,1.0217425143037777
undo,9,24,0,0,0,8,"[0, 16, 22, 8]",4,21,"[1, 2, 3, 4, 6, 9, 10, 11, 13, 14, 15, 17, 20, 21, 23, 24, 25, 26, 27, 28, 29]",178.9120964,8759,606,4,28,9,1.0996636936037951
undo,9,24,0,0,0,15,"[0, 16, 22, 8, 15]",5,16,"[3, 4, 6, 9, 10, 11, 13, 14, 17, 23, 24, 25, 26, 27, 28, 29]",148.025206,9591,832,3,17,9,1.2704773343758617
undo,9,24,0,0,0,28,"[0, 16, 22, 8, 15, 28]",6,8,"[3, 4, 9, 11, 13, 23, 26, 27]",102.7482803,10888,1297,3,5,9,1.1981967578189556
undo,9,24,0,0,0,23,"[0, 16, 22, 8, 15, 28, 23]",7,3,"[9, 11, 27]",83.72198273,11475,587,3,1,9,1.2275650852813986
undo,9,24,0,0,1,9,"[0, 16, 22, 8, 15, 28, 23, 9]",8,0,[],30.38344132,14425,2950,1,0,8,1.2701663583512588
undo,9,24,1,0,0,23,"[0, 16, 22, 8, 15, 28, 23]",7,3,"[9, 11, 27]",83.72198273,19514,5089,3,1,9,1.2275650852813986
undo,9,24,0,0,0,11,"[0, 16, 22, 8, 15, 28, 23, 11]",8,2,"[9, 27]",56.79615869,24122,4608,2,0,9,1.2107937989822568
undo,9,24,0,0,1,9,"[0, 16, 22, 8, 15, 28, 23, 11, 9]",9,0,[],24.5471277,27822,3700,1,0,9,1.2976612913524237
undo,9,24,0,1,1,9,"[0, 16, 22, 8, 15, 28, 23, 11, 9]",9,0,[],24.5471277,29998,2176,1,0,9,1.2976612913524237
undo,10,15,0,0,0,0,[0],1,25,"[1, 2, 3, 4, 7, 8, 9, 10, 11, 12, 13, 14, 15, 16, 18, 20, 21, 22, 23, 24, 25, 26, 27, 28, 29]",300,130,-1,4,65,9,0.0
undo,10,15,0,0,0,12,"[0, 12]",2,22,"[1, 2, 3, 4, 7, 8, 9, 10, 11, 13, 14, 15, 16, 18, 21, 22, 23, 24, 26, 27, 28, 29]",213.547701,7024,6894,4,35,9,1.0
undo,10,15,0,0,0,7,"[0, 12, 7]",3,16,"[1, 3, 4, 8, 9, 10, 11, 13, 14, 15, 16, 18, 21, 22, 24, 27]",180.3061607,7962,938,4,29,9,1.411291635294361
undo,10,15,0,0,0,16,"[0, 12, 7, 16]",4,10,"[3, 4, 10, 11, 13, 14, 15, 18, 21, 22]",136.6484008,9002,1040,2,11,9,1.4308733430458784
undo,10,15,0,0,0,11,"[0, 12, 7, 16, 11]",5,7,"[3, 4, 13, 14, 15, 21, 22]",110.6291772,10090,1088,2,5,9,1.5251025438826007
undo,10,15,0,0,0,3,"[0, 12, 7, 16, 11, 3]",6,5,"[4, 13, 14, 15, 22]",99.22742292,10901,811,2,3,9,1.5166583878170454
undo,10,15,0,0,0,22,"[0, 12, 7, 16, 11, 3, 22]",7,2,"[13, 15]",49.49815588,11719,818,2,0,9,1.4519711389669923
undo,10,15,0,0,0,15,"[0, 12, 7, 16, 11, 3, 22, 15]",8,1,[13],23.88565893,12774,1055,1,0,9,1.4060225827822495
undo,10,15,0,0,1,13,"[0, 12, 7, 16, 11, 3, 22, 15, 13]",9,0,[],8.621321408,13719,945,1,0,9,1.4544229719836068
undo,10,15,0,1,1,13,"[0, 12, 7, 16, 11, 3, 22, 15, 13]",9,0,[],8.621321408,15113,1394,1,0,9,1.4544229719836068
undo,11,35,0,0,0,0,[0],1,29,"[1, 2, 3, 4, 5, 6, 7, 8, 9, 10, 11, 12, 13, 14, 15, 16, 17, 18, 19, 20, 21, 22, 23, 24, 25, 26, 27, 28, 29]",300,131,-1,5,236,11,0.0
undo,11,35,0,0,0,24,"[0, 24]",2,27,"[1, 2, 4, 5, 6, 7, 8, 9, 10, 11, 12, 13, 14, 15, 16, 17, 18, 19, 20, 21, 22, 23, 25, 26, 27, 28, 29]",268.9838752,4995,4864,49,512,10,1.0
undo,11,35,0,0,0,17,"[0, 24, 17]",3,26,"[1, 2, 4, 5, 6, 7, 8, 9, 10, 11, 12, 13, 14, 15, 16, 18, 19, 20, 21, 22, 23, 25, 26, 27, 28, 29]",257.2791753,5989,994,33,238,10,1.0771477201815276
undo,11,35,0,0,0,15,"[0, 24, 17, 15]",4,24,"[1, 2, 4, 5, 6, 7, 8, 9, 10, 11, 12, 14, 16, 18, 19, 20, 21, 22, 23, 25, 26, 27, 28, 29]",220.0770248,6922,933,7,78,10,1.4380125899125875
undo,11,35,1,0,0,17,"[0, 24, 17]",3,26,"[1, 2, 4, 5, 6, 7, 8, 9, 10, 11, 12, 13, 14, 15, 16, 18, 19, 20, 21, 22, 23, 25, 26, 27, 28, 29]",257.2791753,8114,1192,33,238,10,1.0771477201815276
undo,11,35,0,0,0,1,"[0, 24, 17, 1]",4,25,"[2, 4, 5, 6, 7, 8, 9, 10, 11, 12, 13, 14, 15, 16, 18, 19, 20, 21, 22, 23, 25, 26, 27, 28, 29]",241.4677869,9429,1315,26,151,10,1.2244804141479215
undo,11,35,0,0,0,15,"[0, 24, 17, 1, 15]",5,23,"[2, 4, 5, 6, 7, 8, 9, 10, 11, 12, 14, 16, 18, 19, 20, 21, 22, 23, 25, 26, 27, 28, 29]",218.6204676,10409,980,26,78,10,1.4642196672428094
undo,11,35,0,0,0,9,"[0, 24, 17, 1, 15, 9]",6,8,"[5, 6, 18, 19, 23, 25, 27, 28]",136.3283052,12378,1969,4,17,10,1.4559671847403095
undo,11,35,0,0,0,18,"[0, 24, 17, 1, 15, 9, 18]",7,5,"[5, 6, 19, 23, 25]",116.3033208,13330,952,2,5,10,1.428087426214553
undo,11,35,0,0,0,25,"[0, 24, 17, 1, 15, 9, 18, 25]",8,2,"[6, 23]",82.46547216,14481,1151,1,1,10,1.343292070389275
undo,11,35,0,0,0,6,"[0, 24, 17, 1, 15, 9, 18, 25, 6]",9,1,[23],58.44464786,15477,996,1,0,10,1.5973591462902639
undo,11,35,0,0,1,23,"[0, 24, 17, 1, 15, 9, 18, 25, 6, 23]",10,0,[],12.79379902,17063,1586,1,0,10,2.701330598603499
undo,11,35,0,1,1,23,"[0, 24, 17, 1, 15, 9, 18, 25, 6, 23]",10,0,[],12.79379902,18214,1151,1,0,10,2.701330598603499
undo,12,21,0,0,0,0,[0],1,29,"[1, 2, 3, 4, 5, 6, 7, 8, 9, 10, 11, 12, 13, 14, 15, 16, 17, 18, 19, 20, 21, 22, 23, 24, 25, 26, 27, 28, 29]",300,115,-1,84,830,9,0.0
undo,12,21,0,0,0,21,"[0, 21]",2,22,"[1, 3, 4, 6, 8, 9, 10, 11, 12, 14, 15, 16, 17, 18, 20, 22, 23, 24, 25, 26, 27, 29]",210.1111798,8890,8775,1,69,9,1.0
undo,12,21,0,0,0,14,"[0, 21, 14]",3,15,"[1, 4, 6, 8, 9, 15, 16, 17, 18, 20, 22, 23, 24, 25, 29]",184.4986828,10639,1749,35,96,8,1.0083702391721483
undo,12,21,0,0,0,4,"[0, 21, 14, 4]",4,13,"[1, 8, 9, 15, 16, 17, 18, 20, 22, 23, 24, 25, 29]",170.3565472,11280,641,20,39,8,1.0135821167776475
undo,12,21,0,0,0,16,"[0, 21, 14, 4, 16]",5,7,"[8, 15, 17, 23, 24, 25, 29]",125.758341,12605,1325,4,6,8,1.0675217597413178
undo,12,21,0,0,0,8,"[0, 21, 14, 4, 16, 8]",6,3,"[15, 23, 24]",107.1572657,13648,1043,3,1,8,1.0643903127717425
undo,12,21,0,0,0,15,"[0, 21, 14, 4, 16, 8, 15]",7,2,"[23, 24]",82.15726573,14637,989,2,0,8,1.29402645910376
undo,12,21,0,0,1,23,"[0, 21, 14, 4, 16, 8, 15, 23]",8,0,[],10.28933129,16440,1803,1,0,8,2.9257734162199216
undo,12,21,1,0,0,15,"[0, 21, 14, 4, 16, 8, 15]",7,2,"[23, 24]",82.15726573,18198,1758,2,0,8,1.29402645910376
undo,12,21,0,0,1,23,"[0, 21, 14, 4, 16, 8, 15, 23]",8,0,[],10.28933129,20428,2230,1,0,8,2.9257734162199216
undo,12,21,0,1,1,23,"[0, 21, 14, 4, 16, 8, 15, 23]",8,0,[],10.28933129,21598,1170,1,0,8,2.9257734162199216
undo,13,30,0,0,0,0,[0],1,19,"[3, 4, 5, 7, 9, 11, 16, 17, 18, 19, 20, 21, 22, 24, 25, 26, 27, 28, 29]",300,146,-1,5,41,8,0.0
undo,13,30,0,0,0,25,"[0, 25]",2,12,"[3, 5, 7, 9, 11, 16, 18, 19, 20, 24, 27, 29]",121.1005869,5773,5627,7,37,7,1.0
undo,13,30,0,0,0,20,"[0, 25, 20]",3,9,"[3, 5, 7, 9, 11, 18, 19, 27, 29]",99.16887472,7610,1837,5,16,7,1.0037291321296267
undo,13,30,0,0,0,27,"[0, 25, 20, 27]",4,4,"[3, 5, 18, 29]",65.11010199,8795,1185,4,6,7,1.1217072851053165
undo,13,30,0,0,0,3,"[0, 25, 20, 27, 3]",5,3,"[5, 18, 29]",46.00512882,9639,844,4,0,7,1.1140018780928678
undo,13,30,0,0,0,29,"[0, 25, 20, 27, 3, 29]",6,1,[18],27.40405358,10376,737,1,0,7,1.119672312555708
undo,13,30,0,0,1,18,"[0, 25, 20, 27, 3, 29, 18]",7,0,[],8.090845662,11856,1480,1,0,7,1.1951451398733344
undo,13,30,1,0,0,29,"[0, 25, 20, 27, 3, 29]",6,1,[18],27.40405358,13546,1690,1,0,7,1.119672312555708
undo,13,30,1,0,0,3,"[0, 25, 20, 27, 3]",5,3,"[5, 18, 29]",46.00512882,17080,3534,4,0,7,1.1140018780928678
undo,13,30,1,0,0,27,"[0, 25, 20, 27]",4,4,"[3, 5, 18, 29]",65.11010199,20947,3867,4,6,7,1.1217072851053165
undo,13,30,1,0,0,20,"[0, 25, 20]",3,9,"[3, 5, 7, 9, 11, 18, 19, 27, 29]",99.16887472,21330,383,5,16,7,1.0037291321296267
undo,13,30,0,0,1,19,"[0, 25, 20, 19]",4,0,[],37.16081073,22980,1650,1,0,4,1.0049834119288894
undo,13,30,1,0,0,20,"[0, 25, 20]",3,9,"[3, 5, 7, 9, 11, 18, 19, 27, 29]",99.16887472,25380,2400,5,16,7,1.0037291321296267
undo,13,30,0,0,0,29,"[0, 25, 20, 29]",4,5,"[3, 5, 7, 18, 27]",46.39577551,26279,899,6,2,6,1.0416648972142672
undo,13,30,0,0,0,18,"[0, 25, 20, 29, 18]",5,2,"[3, 5]",27.0825676,29089,2810,2,0,6,1.1173885370579777
undo,13,30,0,0,1,3,"[0, 25, 20, 29, 18, 3]",6,0,[],8.834280007,30970,1881,1,0,6,1.2770303486899883
undo,13,30,0,1,1,3,"[0, 25, 20, 29, 18, 3]",6,0,[],8.834280007,32313,1343,1,0,6,1.2770303486899883
undo,14,19,0,0,0,0,[0],1,29,"[1, 2, 3, 4, 5, 6, 7, 8, 9, 10, 11, 12, 13, 14, 15, 16, 17, 18, 19, 20, 21, 22, 23, 24, 25, 26, 27, 28, 29]",300,113,-1,12,149,8,0.0
undo,14,19,0,0,0,29,"[0, 29]",2,28,"[1, 2, 3, 4, 5, 6, 7, 8, 9, 10, 11, 12, 13, 14, 15, 16, 17, 18, 19, 20, 21, 22, 23, 24, 25, 26, 27, 28]",265.0715016,9788,9675,12,120,8,1.0
undo,14,19,0,0,0,9,"[0, 29, 9]",3,17,"[1, 4, 5, 6, 7, 10, 11, 12, 13, 14, 19, 20, 21, 22, 24, 27, 28]",181.7108394,10942,1154,11,65,8,1.0375842971861238
undo,14,19,0,0,0,6,"[0, 29, 9, 6]",4,12,"[4, 7, 10, 11, 13, 14, 20, 21, 22, 24, 27, 28]",140.2741407,11541,599,11,34,8,1.0389786364356892
undo,14,19,0,0,0,28,"[0, 29, 9, 6, 28]",5,5,"[4, 11, 14, 22, 27]",89.18598161,15479,3938,2,4,8,1.2864082671854424
undo,14,19,0,0,0,4,"[0, 29, 9, 6, 28, 4]",6,4,"[11, 14, 22, 27]",78.00564173,16454,975,2,2,8,1.3470045407445053
undo,14,19,0,0,0,11,"[0, 29, 9, 6, 28, 4, 11]",7,1,[14],19.86787431,17707,1253,1,0,8,1.2776511912021429
undo,14,19,0,0,1,14,"[0, 29, 9, 6, 28, 4, 11, 14]",8,0,[],9.051220485,18520,813,1,0,8,1.39128745765915
undo,14,19,0,1,1,14,"[0, 29, 9, 6, 28, 4, 11, 14]",8,0,[],9.051220485,20047,1527,1,0,8,1.39128745765915
undo,15,3,0,0,0,0,[0],1,29,"[1, 2, 3, 4, 5, 6, 7, 8, 9, 10, 11, 12, 13, 14, 15, 16, 17, 18, 19, 20, 21, 22, 23, 24, 25, 26, 27, 28, 29]",300,131,-1,34,427,10,0.0
undo,15,3,0,0,0,16,"[0, 16]",2,28,"[1, 2, 3, 4, 5, 6, 7, 8, 9, 10, 11, 12, 13, 14, 15, 17, 18, 19, 20, 21, 22, 23, 24, 25, 26, 27, 28, 29]",268.9355509,7011,6880,32,260,9,1.0
undo,15,3,0,0,0,15,"[0, 16, 15]",3,27,"[1, 2, 3, 4, 5, 6, 7, 8, 9, 10, 11, 12, 13, 14, 17, 18, 19, 20, 21, 22, 23, 24, 25, 26, 27, 28, 29]",229.8203364,7871,860,15,76,9,2.204989671213251
undo,15,3,0,0,0,7,"[0, 16, 15, 7]",4,25,"[1, 2, 3, 4, 5, 6, 8, 9, 10, 11, 12, 13, 14, 17, 18, 19, 20, 21, 22, 24, 25, 26, 27, 28, 29]",199.7537437,8675,804,15,59,9,4.730913335158226
undo,15,3,1,0,0,15,"[0, 16, 15]",3,27,"[1, 2, 3, 4, 5, 6, 7, 8, 9, 10, 11, 12, 13, 14, 17, 18, 19, 20, 21, 22, 23, 24, 25, 26, 27, 28, 29]",229.8203364,9565,890,15,76,9,2.204989671213251
undo,15,3,1,0,0,16,"[0, 16]",2,28,"[1, 2, 3, 4, 5, 6, 7, 8, 9, 10, 11, 12, 13, 14, 15, 17, 18, 19, 20, 21, 22, 23, 24, 25, 26, 27, 28, 29]",268.9355509,9782,217,32,260,9,1.0
undo,15,3,1,0,0,0,[0],1,29,"[1, 2, 3, 4, 5, 6, 7, 8, 9, 10, 11, 12, 13, 14, 15, 16, 17, 18, 19, 20, 21, 22, 23, 24, 25, 26, 27, 28, 29]",300,10215,433,34,427,10,0.0
undo,15,3,0,0,0,8,"[0, 8]",2,28,"[1, 2, 3, 4, 5, 6, 7, 9, 10, 11, 12, 13, 14, 15, 16, 17, 18, 19, 20, 21, 22, 23, 24, 25, 26, 27, 28, 29]",239.9666759,11685,1470,1,54,10,1.0
undo,15,3,0,0,0,24,"[0, 8, 24]",3,23,"[1, 2, 3, 4, 5, 6, 7, 10, 11, 12, 14, 15, 16, 17, 18, 19, 20, 21, 22, 25, 26, 27, 28]",227.8011509,12239,554,1,50,10,1.2267083825981846
undo,15,3,0,0,0,17,"[0, 8, 24, 17]",4,11,"[3, 4, 7, 10, 14, 15, 16, 19, 20, 21, 27]",158.4469873,13125,886,1,18,10,1.3836579788002414
undo,15,3,0,0,0,20,"[0, 8, 24, 17, 20]",5,9,"[3, 4, 7, 10, 14, 15, 16, 19, 21]",145.7978767,13779,654,1,14,10,1.3620097615632467
undo,15,3,0,0,0,3,"[0, 8, 24, 17, 20, 3]",6,5,"[4, 10, 14, 19, 21]",125.4017986,14997,1218,1,11,10,1.3956695218398405
undo,15,3,0,0,0,19,"[0, 8, 24, 17, 20, 3, 19]",7,4,"[4, 10, 14, 21]",88.06548922,17272,2275,1,4,10,1.4360605238855817
undo,15,3,0,0,0,21,"[0, 8, 24, 17, 20, 3, 19, 21]",8,2,"[10, 14]",75.85893361,18589,1317,1,1,10,1.4576450248605066
undo,15,3,0,0,0,14,"[0, 8, 24, 17, 20, 3, 19, 21, 14]",9,1,[10],48.95168551,20456,1867,1,0,10,1.9505702217699148
undo,15,3,0,0,1,10,"[0, 8, 24, 17, 20, 3, 19, 21, 14, 10]",10,0,[],3.498412803,21758,1302,1,0,10,1.8830527336542522
undo,15,3,0,1,1,10,"[0, 8, 24, 17, 20, 3, 19, 21, 14, 10]",10,0,[],3.498412803,23048,1290,1,0,10,1.8830527336542522
undo,16,36,0,0,0,0,[0],1,24,"[2, 4, 5, 6, 7, 8, 9, 10, 12, 13, 14, 15, 16, 17, 18, 19, 20, 22, 23, 25, 26, 27, 28, 29]",300,153,-1,2,200,10,0.0
undo,16,36,0,0,0,12,"[0, 12]",2,23,"[2, 4, 5, 6, 7, 8, 9, 10, 13, 14, 15, 16, 17, 18, 19, 20, 22, 23, 25, 26, 27, 28, 29]",277.7963967,6293,6140,90,804,9,1.0
undo,16,36,0,0,0,9,"[0, 12, 9]",3,14,"[2, 4, 8, 10, 13, 16, 17, 18, 19, 23, 25, 27, 28, 29]",215.4345494,7808,1515,32,191,9,1.224429481246385
undo,16,36,0,0,0,16,"[0, 12, 9, 16]",4,8,"[2, 10, 13, 17, 18, 19, 23, 25]",168.137615,8934,1126,7,26,9,1.235383731443557
undo,16,36,0,0,0,17,"[0, 12, 9, 16, 17]",5,6,"[2, 10, 13, 18, 19, 25]",139.8180105,9947,1013,7,14,9,1.6947865799475665
undo,16,36,0,0,0,19,"[0, 12, 9, 16, 17, 19]",6,5,"[2, 10, 13, 18, 25]",111.9253591,10743,796,6,1,9,2.440059772477113
undo,16,36,1,0,0,17,"[0, 12, 9, 16, 17]",5,6,"[2, 10, 13, 18, 19, 25]",139.8180105,13781,3038,7,14,9,1.6947865799475665
undo,16,36,1,0,0,16,"[0, 12, 9, 16]",4,8,"[2, 10, 13, 17, 18, 19, 23, 25]",168.137615,14164,383,7,26,9,1.235383731443557
undo,16,36,1,0,0,9,"[0, 12, 9]",3,14,"[2, 4, 8, 10, 13, 16, 17, 18, 19, 23, 25, 27, 28, 29]",215.4345494,14748,584,32,191,9,1.224429481246385
undo,16,36,0,0,0,19,"[0, 12, 9, 19]",4,13,"[2, 4, 8, 10, 13, 16, 17, 18, 23, 25, 27, 28, 29]",200.3018034,15639,891,14,61,9,1.293473472808712
undo,16,36,0,0,0,2,"[0, 12, 9, 19, 2]",5,11,"[4, 8, 10, 13, 16, 17, 18, 23, 25, 27, 29]",163.180381,16836,1197,2,17,9,1.2115523850119965
undo,16,36,0,0,0,25,"[0, 12, 9, 19, 2, 25]",6,9,"[4, 8, 10, 13, 16, 17, 18, 27, 29]",138.180381,18271,1435,1,8,9,1.413393071141534
undo,16,36,0,0,0,13,"[0, 12, 9, 19, 2, 25, 13]",7,5,"[4, 10, 16, 17, 18]",117.5891208,19107,836,1,4,9,1.8597869697411082
undo,16,36,1,0,0,25,"[0, 12, 9, 19, 2, 25]",6,9,"[4, 8, 10, 13, 16, 17, 18, 27, 29]",138.180381,20714,1607,1,8,9,1.413393071141534
undo,16,36,1,0,0,2,"[0, 12, 9, 19, 2]",5,11,"[4, 8, 10, 13, 16, 17, 18, 23, 25, 27, 29]",163.180381,20931,217,2,17,9,1.2115523850119965
undo,16,36,1,0,0,19,"[0, 12, 9, 19]",4,13,"[2, 4, 8, 10, 13, 16, 17, 18, 23, 25, 27, 28, 29]",200.3018034,21351,420,14,61,9,1.293473472808712
undo,16,36,1,0,0,9,"[0, 12, 9]",3,14,"[2, 4, 8, 10, 13, 16, 17, 18, 19, 23, 25, 27, 28, 29]",215.4345494,21799,448,32,191,9,1.224429481246385
undo,16,36,0,0,0,17,"[0, 12, 9, 17]",4,11,"[2, 4, 8, 10, 13, 16, 18, 19, 23, 25, 27]",189.1857399,22806,1007,8,54,9,1.1724571624470872
undo,16,36,0,0,0,19,"[0, 12, 9, 17, 19]",5,8,"[2, 4, 10, 13, 16, 18, 23, 25]",161.2930885,24561,1755,3,14,9,1.7995682634090462
undo,16,36,0,0,0,2,"[0, 12, 9, 17, 19, 2]",6,4,"[10, 13, 16, 25]",124.1716661,25296,735,2,3,9,1.5569787348204112
undo,16,36,0,0,0,25,"[0, 12, 9, 17, 19, 2, 25]",7,3,"[10, 13, 16]",99.17166613,26388,1092,1,2,9,1.7541097756555504
undo,16,36,0,0,0,13,"[0, 12, 9, 17, 19, 2, 25, 13]",8,1,[10],78.58040585,27121,733,1,0,9,2.257503926583423
undo,16,36,0,0,1,10,"[0, 12, 9, 17, 19, 2, 25, 13, 10]",9,0,[],2.619889792,29007,1886,1,0,9,1.709815416525762
undo,16,36,0,1,1,10,"[0, 12, 9, 17, 19, 2, 25, 13, 10]",9,0,[],2.619889792,30381,1374,1,0,9,1.709815416525762
undo,17,40,0,0,0,0,[0],1,29,"[1, 2, 3, 4, 5, 6, 7, 8, 9, 10, 11, 12, 13, 14, 15, 16, 17, 18, 19, 20, 21, 22, 23, 24, 25, 26, 27, 28, 29]",300,130,-1,8,191,9,0.0
undo,17,40,0,0,0,1,"[0, 1]",2,18,"[2, 5, 6, 7, 8, 9, 10, 11, 13, 15, 17, 18, 19, 21, 22, 23, 27, 29]",247.8463808,10254,10124,4,80,9,1.0
undo,17,40,0,0,0,6,"[0, 1, 6]",3,17,"[2, 5, 7, 8, 9, 10, 11, 13, 15, 17, 18, 19, 21, 22, 23, 27, 29]",227.7466295,12284,2030,4,74,9,1.0459427008232034
undo,17,40,0,0,0,21,"[0, 1, 6, 21]",4,8,"[2, 5, 9, 17, 18, 19, 22, 23]",175.7754837,13256,972,4,25,9,1.0308822257404064
undo,17,40,0,0,0,9,"[0, 1, 6, 21, 9]",5,6,"[2, 5, 18, 19, 22, 23]",130.0699041,14188,932,4,12,9,1.377861912961129
undo,17,40,0,0,0,18,"[0, 1, 6, 21, 9, 18]",6,5,"[2, 5, 19, 22, 23]",113.5169588,14857,669,4,4,9,1.5742712168661408
undo,17,40,0,0,0,23,"[0, 1, 6, 21, 9, 18, 23]",7,3,"[2, 5, 19]",79.51695879,16402,1545,2,1,9,2.324611956726637
undo,17,40,0,0,0,5,"[0, 1, 6, 21, 9, 18, 23, 5]",8,1,[19],51.21501539,17162,760,1,0,9,2.022909590433451
undo,17,40,0,0,1,19,"[0, 1, 6, 21, 9, 18, 23, 5, 19]",9,0,[],13.13614986,18287,1125,1,0,9,2.796177718843732
undo,17,40,0,1,1,19,"[0, 1, 6, 21, 9, 18, 23, 5, 19]",9,0,[],13.13614986,19879,1592,1,0,9,2.796177718843732
undo,18,5,0,0,0,0,[0],1,29,"[1, 2, 3, 4, 5, 6, 7, 8, 9, 10, 11, 12, 13, 14, 15, 16, 17, 18, 19, 20, 21, 22, 23, 24, 25, 26, 27, 28, 29]",300,114,-1,5,139,9,0.0
undo,18,5,0,0,0,12,"[0, 12]",2,22,"[2, 4, 5, 6, 8, 9, 10, 13, 14, 15, 16, 17, 18, 19, 21, 22, 23, 24, 25, 26, 27, 28]",228.3062067,4672,4558,1,27,9,1.0
undo,18,5,0,0,0,25,"[0, 12, 25]",3,21,"[2, 4, 5, 6, 8, 9, 10, 13, 14, 15, 16, 17, 18, 19, 21, 22, 23, 24, 26, 27, 28]",200.5213187,5689,1017,1,20,9,1.584023303445617
undo,18,5,0,0,0,23,"[0, 12, 25, 23]",4,19,"[2, 4, 5, 6, 8, 9, 10, 13, 14, 15, 16, 17, 18, 19, 21, 22, 24, 26, 27]",182.0822298,6491,802,1,14,9,2.3508446989254357
undo,18,5,0,0,0,24,"[0, 12, 25, 23, 24]",5,15,"[2, 4, 5, 6, 8, 9, 13, 14, 15, 17, 18, 19, 22, 26, 27]",158.995437,7068,577,1,12,9,1.9469752046288753
undo,18,5,0,0,0,17,"[0, 12, 25, 23, 24, 17]",6,7,"[4, 5, 6, 8, 15, 18, 19]",124.0097257,8346,1278,1,8,9,1.6482276497563642
undo,18,5,0,0,0,6,"[0, 12, 25, 23, 24, 17, 6]",7,1,[4],45.11739397,13470,5124,1,0,8,1.5262431498802396
undo,18,5,0,0,1,4,"[0, 12, 25, 23, 24, 17, 6, 4]",8,0,[],33.07579939,13989,519,1,0,8,1.5232680323291379
undo,18,5,1,0,0,6,"[0, 12, 25, 23, 24, 17, 6]",7,1,[4],45.11739397,15197,1208,1,0,8,1.5262431498802396
undo,18,5,1,0,0,17,"[0, 12, 25, 23, 24, 17]",6,7,"[4, 5, 6, 8, 15, 18, 19]",124.0097257,16730,1533,1,8,9,1.6482276497563642
undo,18,5,0,0,0,5,"[0, 12, 25, 23, 24, 17, 5]",7,4,"[4, 6, 15, 18]",80.96323916,18005,1275,1,3,9,1.4654649104389412
undo,18,5,0,0,1,6,"[0, 12, 25, 23, 24, 17, 5, 6]",8,0,[],11.64513186,19805,1800,1,0,8,1.7266758571257486
undo,18,5,0,1,1,6,"[0, 12, 25, 23, 24, 17, 5, 6]",8,0,[],11.64513186,21447,1642,1,0,8,1.7266758571257486
undo,19,43,0,0,0,0,[0],1,23,"[1, 2, 3, 4, 5, 6, 7, 9, 10, 11, 12, 14, 15, 16, 17, 19, 20, 21, 22, 23, 25, 27, 29]",300,130,-1,16,556,12,0.0
undo,19,43,0,0,0,29,"[0, 29]",2,22,"[1, 2, 3, 4, 5, 6, 7, 9, 10, 11, 12, 14, 15, 16, 17, 19, 20, 21, 22, 23, 25, 27]",277.909278,2906,2776,16,520,12,1.0
undo,19,43,0,0,0,20,"[0, 29, 20]",3,20,"[1, 2, 3, 4, 6, 7, 9, 10, 11, 12, 14, 15, 16, 17, 19, 21, 22, 23, 25, 27]",254.4785289,4040,1134,15,422,12,1.082311746871282
undo,19,43,0,0,0,16,"[0, 29, 20, 16]",4,19,"[1, 2, 3, 4, 6, 7, 9, 10, 11, 12, 14, 15, 17, 19, 21, 22, 23, 25, 27]",231.8511119,7072,3032,15,389,12,1.215201926898219
undo,19,43,0,0,0,25,"[0, 29, 20, 16, 25]",5,14,"[1, 2, 3, 4, 6, 7, 9, 11, 12, 14, 15, 19, 22, 23]",175.7708124,7974,902,53,282,11,1.566384303308987
undo,19,43,0,0,0,15,"[0, 29, 20, 16, 25, 15]",6,13,"[1, 2, 3, 4, 6, 7, 9, 11, 12, 14, 19, 22, 23]",153.0992443,9427,1453,27,108,11,1.776736412604812
undo,19,43,0,0,0,12,"[0, 29, 20, 16, 25, 15, 12]",7,10,"[1, 3, 6, 7, 9, 11, 14, 19, 22, 23]",133.7860364,10342,915,21,41,11,1.6813323012225032
undo,19,43,0,0,0,3,"[0, 29, 20, 16, 25, 15, 12, 3]",8,9,"[1, 6, 7, 9, 11, 14, 19, 22, 23]",120.7860364,10941,599,20,12,11,1.608740348096123
undo,19,43,0,0,0,22,"[0, 29, 20, 16, 25, 15, 12, 3, 22]",9,6,"[1, 6, 7, 11, 14, 19]",86.07292644,12114,1173,9,2,11,1.793657891802588
undo,19,43,0,0,0,19,"[0, 29, 20, 16, 25, 15, 12, 3, 22, 19]",10,3,"[1, 6, 7]",65.45739831,12838,724,3,0,11,1.6882745891803936
undo,19,43,0,0,1,1,"[0, 29, 20, 16, 25, 15, 12, 3, 22, 19, 1]",11,0,[],37.2793927,13608,770,1,0,11,1.825064866046553
undo,19,43,1,0,0,19,"[0, 29, 20, 16, 25, 15, 12, 3, 22, 19]",10,3,"[1, 6, 7]",65.45739831,17714,4106,3,0,11,1.6882745891803936
undo,19,43,0,0,1,6,"[0, 29, 20, 16, 25, 15, 12, 3, 22, 19, 6]",11,0,[],0.897348746,20720,3006,1,0,11,2.711952364749881
undo,19,43,0,1,1,6,"[0, 29, 20, 16, 25, 15, 12, 3, 22, 19, 6]",11,0,[],0.897348746,24346,3626,1,0,11,2.711952364749881
undo,20,17,0,0,0,0,[0],1,28,"[1, 2, 3, 4, 5, 6, 7, 8, 9, 10, 11, 12, 13, 14, 15, 16, 17, 18, 19, 20, 22, 23, 24, 25, 26, 27, 28, 29]",300,114,-1,2,73,8,0.0
undo,20,17,0,0,0,9,"[0, 9]",2,25,"[1, 2, 3, 5, 6, 7, 8, 10, 11, 12, 14, 15, 16, 17, 18, 19, 20, 22, 23, 24, 25, 26, 27, 28, 29]",210.5293344,7703,7589,1,34,8,1.0
undo,20,17,0,0,0,16,"[0, 9, 16]",3,21,"[1, 2, 3, 5, 7, 8, 10, 11, 12, 14, 17, 18, 19, 20, 22, 23, 25, 26, 27, 28, 29]",197.1876704,8620,917,1,26,8,1.173103464220352
undo,20,17,0,0,0,2,"[0, 9, 16, 2]",4,18,"[1, 3, 5, 7, 8, 10, 11, 12, 14, 17, 18, 19, 23, 25, 26, 27, 28, 29]",181.0631549,9680,1060,1,23,8,1.14825089247282
undo,20,17,0,0,0,17,"[0, 9, 16, 2, 17]",5,7,"[7, 8, 12, 14, 26, 27, 29]",142.7356191,10588,908,4,5,7,1.4896040699768547
undo,20,17,0,0,0,8,"[0, 9, 16, 2, 17, 8]",6,3,"[7, 12, 27]",104.5256727,11454,866,3,0,7,1.4604726966175894
undo,20,17,0,0,1,12,"[0, 9, 16, 2, 17, 8, 12]",7,0,[],0.122607624,14534,3080,1,0,7,1.2636754183971526
undo,20,17,0,1,1,12,"[0, 9, 16, 2, 17, 8, 12]",7,0,[],0.122607624,15964,1430,1,0,7,1.2636754183971526
undo,21,13,0,0,0,0,[0],1,29,"[1, 2, 3, 4, 5, 6, 7, 8, 9, 10, 11, 12, 13, 14, 15, 16, 17, 18, 19, 20, 21, 22, 23, 24, 25, 26, 27, 28, 29]",300,164,-1,60,2676,11,0.0
undo,21,13,0,0,0,24,"[0, 24]",2,28,"[1, 2, 3, 4, 5, 6, 7, 8, 9, 10, 11, 12, 13, 14, 15, 16, 17, 18, 19, 20, 21, 22, 23, 25, 26, 27, 28, 29]",288.8196601,3439,3275,16,1444,11,1.0
undo,21,13,0,0,0,28,"[0, 24, 28]",3,23,"[1, 2, 3, 4, 6, 7, 8, 9, 10, 11, 12, 13, 15, 16, 17, 19, 20, 21, 22, 23, 26, 27, 29]",222.5324064,7179,3740,8,243,11,1.0513810491680837
undo,21,13,0,0,0,2,"[0, 24, 28, 2]",4,19,"[1, 3, 4, 6, 7, 9, 11, 12, 13, 15, 16, 17, 19, 20, 21, 23, 26, 27, 29]",184.889346,8436,1257,7,110,11,1.050374132001543
undo,21,13,0,0,0,29,"[0, 24, 28, 2, 29]",5,18,"[1, 3, 4, 6, 7, 9, 11, 12, 13, 15, 16, 17, 19, 20, 21, 23, 26, 27]",173.1846461,9143,707,7,85,11,1.1393409619120594
undo,21,13,0,0,0,7,"[0, 24, 28, 2, 29, 7]",6,17,"[1, 3, 4, 6, 9, 11, 12, 13, 15, 16, 17, 19, 20, 21, 23, 26, 27]",157.9203086,9773,630,5,45,11,1.349777315111579
undo,21,13,0,0,0,26,"[0, 24, 28, 2, 29, 7, 26]",7,16,"[1, 3, 4, 6, 9, 11, 12, 13, 15, 16, 17, 19, 20, 21, 23, 27]",147.480002,10245,472,5,25,11,1.5942082773824946
undo,21,13,0,0,0,6,"[0, 24, 28, 2, 29, 7, 26, 6]",8,12,"[1, 3, 4, 11, 13, 15, 16, 17, 19, 20, 23, 27]",127.3802508,11104,859,4,12,11,1.5898347940840756
undo,21,13,0,0,0,11,"[0, 24, 28, 2, 29, 7, 26, 6, 11]",9,6,"[1, 13, 15, 16, 17, 23]",108.2752776,12226,1122,3,4,11,1.5029953945561012
undo,21,13,0,0,0,13,"[0, 24, 28, 2, 29, 7, 26, 6, 11, 13]",10,2,"[15, 17]",52.19497806,14903,2677,2,0,11,1.3655915863754327
undo,21,13,0,0,1,15,"[0, 24, 28, 2, 29, 7, 26, 6, 11, 13, 15]",11,0,[],12.38291958,16203,1300,1,0,11,1.3653085520078876
undo,21,13,0,1,1,15,"[0, 24, 28, 2, 29, 7, 26, 6, 11, 13, 15]",11,0,[],12.38291958,17597,1394,1,0,11,1.3653085520078876
undo,22,34,0,0,0,0,[0],1,25,"[1, 3, 4, 5, 6, 7, 8, 9, 10, 11, 12, 13, 15, 18, 19, 20, 21, 22, 23, 24, 25, 26, 27, 28, 29]",300,130,-1,12,367,10,0.0
undo,22,34,0,0,0,13,"[0, 13]",2,24,"[1, 3, 4, 5, 6, 7, 8, 9, 10, 11, 12, 15, 18, 19, 20, 21, 22, 23, 24, 25, 26, 27, 28, 29]",279.9750156,3738,3608,12,331,10,1.0
undo,22,34,0,0,0,1,"[0, 13, 1]",3,16,"[3, 5, 7, 8, 9, 10, 11, 12, 19, 21, 22, 23, 24, 25, 27, 29]",211.8574701,5040,1302,3,92,10,1.0010381285747127
undo,22,34,0,0,0,8,"[0, 13, 1, 8]",4,14,"[3, 5, 7, 9, 10, 11, 12, 19, 22, 23, 24, 25, 27, 29]",201.0871405,6088,1048,2,54,10,1.1636807
undo,22,34,0,0,0,25,"[0, 13, 1, 8, 25]",5,12,"[3, 5, 7, 9, 10, 11, 12, 22, 23, 24, 27, 29]",183.999133,7086,998,2,28,10,1.1396208815936457
undo,22,34,0,0,0,24,"[0, 13, 1, 8, 25, 24]",6,11,"[3, 5, 7, 9, 10, 11, 12, 22, 23, 27, 29]",166.5062774,8054,968,2,23,10,1.374180768736554
undo,22,34,0,0,0,12,"[0, 13, 1, 8, 25, 24, 12]",7,7,"[7, 9, 10, 11, 22, 23, 27]",115.4670767,10538,2484,1,8,10,1.4994254760835948
undo,22,34,0,0,0,7,"[0, 13, 1, 8, 25, 24, 12, 7]",8,5,"[9, 11, 22, 23, 27]",100.4337804,11362,824,1,4,10,1.758992610425009
undo,22,34,0,0,0,23,"[0, 13, 1, 8, 25, 24, 12, 7, 23]",9,1,[27],72.27352467,12540,1178,1,0,10,2.399781305190153
undo,22,34,0,0,1,27,"[0, 13, 1, 8, 25, 24, 12, 7, 23, 27]",10,0,[],18.60789321,13687,1147,1,0,10,4.766619878750327
undo,22,34,0,1,1,27,"[0, 13, 1, 8, 25, 24, 12, 7, 23, 27]",10,0,[],18.60789321,15080,1393,1,0,10,4.766619878750327
basic,23,42,0,0,0,0,[0],1,29,"[1, 2, 3, 4, 5, 6, 7, 8, 9, 10, 11, 12, 13, 14, 15, 16, 17, 18, 19, 20, 21, 22, 23, 24, 25, 26, 27, 28, 29]",300,149,-1,16,302,9,0.0
basic,23,42,0,0,0,25,"[0, 25]",2,27,"[1, 2, 3, 4, 5, 6, 7, 8, 9, 10, 11, 12, 13, 15, 16, 17, 18, 19, 20, 21, 22, 23, 24, 26, 27, 28, 29]",270.2678625,9447,9298,3,59,9,1.0
basic,23,42,0,0,0,29,"[0, 25, 29]",3,22,"[1, 2, 3, 4, 5, 6, 7, 8, 9, 11, 13, 15, 16, 17, 18, 20, 21, 22, 23, 24, 26, 27]",247.0730355,10711,1264,1,23,9,1.0472889958702385
basic,23,42,0,0,0,5,"[0, 25, 29, 5]",4,11,"[1, 3, 4, 7, 8, 18, 20, 21, 22, 26, 27]",127.921871,12306,1595,3,16,8,1.5829677155700008
basic,23,42,0,0,0,4,"[0, 25, 29, 5, 4]",5,5,"[1, 3, 7, 8, 22]",108.0724378,13322,1016,2,7,8,2.121426576300934
basic,23,42,0,0,0,22,"[0, 25, 29, 5, 4, 22]",6,4,"[1, 3, 7, 8]",96.89209787,14188,866,2,3,8,2.292408404706306
basic,23,42,0,0,1,7,"[0, 25, 29, 5, 4, 22, 7]",7,0,[],2.552286554,17575,3387,1,0,7,1.717029026618083
basic,23,42,0,1,1,7,"[0, 25, 29, 5, 4, 22, 7]",7,0,[],2.552286554,18849,1274,1,0,7,1.717029026618083
basic,24,15,0,0,0,0,[0],1,25,"[1, 2, 3, 4, 7, 8, 9, 10, 11, 12, 13, 14, 15, 16, 18, 20, 21, 22, 23, 24, 25, 26, 27, 28, 29]",300,131,-1,4,65,9,0.0
basic,24,15,0,0,0,7,"[0, 7]",2,23,"[1, 3, 4, 8, 9, 10, 11, 12, 13, 14, 15, 16, 18, 20, 21, 22, 23, 24, 25, 26, 27, 28, 29]",215.1884442,7454,7323,30,107,8,1.0
basic,24,15,0,0,0,11,"[0, 7, 11]",3,18,"[3, 4, 8, 9, 10, 12, 13, 14, 15, 16, 18, 20, 21, 22, 23, 25, 27, 29]",173.7035072,9605,2151,12,34,8,1.0171318876095128
basic,24,15,0,0,0,3,"[0, 7, 11, 3]",4,13,"[4, 10, 12, 13, 14, 15, 16, 18, 20, 21, 22, 25, 27]",162.3017529,10330,725,7,21,8,1.0401878806820521
basic,24,15,0,0,0,22,"[0, 7, 11, 3, 22]",5,8,"[4, 10, 13, 14, 15, 16, 18, 25]",112.5724859,11787,1457,2,7,8,1.08637659765556
basic,24,15,0,0,0,15,"[0, 7, 11, 3, 22, 15]",6,5,"[13, 14, 16, 18, 25]",86.95998892,15259,3472,1,4,8,1.0848370477747913
basic,24,15,0,0,0,13,"[0, 7, 11, 3, 22, 15, 13]",7,1,[18],71.6956514,17602,2343,1,0,8,1.1395860905544997
basic,24,15,0,0,1,18,"[0, 7, 11, 3, 22, 15, 13, 18]",8,0,[],9.406005389,18555,953,1,0,8,1.2311536592605687
basic,24,15,0,1,1,18,"[0, 7, 11, 3, 22, 15, 13, 18]",8,0,[],9.406005389,19931,1376,1,0,8,1.2311536592605687
basic,25,31,0,0,0,0,[0],1,27,"[1, 3, 4, 5, 6, 7, 8, 10, 11, 12, 13, 14, 15, 16, 17, 18, 19, 20, 21, 22, 23, 24, 25, 26, 27, 28, 29]",300,149,-1,2,87,10,0.0
basic,25,31,0,0,0,14,"[0, 14]",2,25,"[1, 3, 5, 6, 7, 8, 10, 11, 12, 13, 15, 16, 17, 18, 19, 20, 21, 22, 23, 24, 25, 26, 27, 28, 29]",263.861378,7555,7406,2,59,10,1.0
basic,25,31,0,0,0,27,"[0, 14, 27]",3,22,"[1, 3, 5, 6, 7, 8, 10, 11, 12, 13, 15, 16, 17, 18, 19, 20, 21, 22, 24, 25, 28, 29]",235.6833724,8597,1042,1,39,10,1.5881859159302467
basic,25,31,0,0,0,8,"[0, 14, 27, 8]",4,20,"[1, 3, 5, 6, 7, 10, 11, 12, 13, 16, 17, 18, 19, 20, 21, 22, 24, 25, 28, 29]",224.6380114,9698,1101,1,36,10,2.1665048452331277
basic,25,31,0,0,0,18,"[0, 14, 27, 8, 18]",5,15,"[1, 5, 6, 7, 11, 12, 13, 16, 17, 19, 20, 22, 25, 28, 29]",188.7911147,10740,1042,1,26,10,1.7273375741920205
basic,25,31,0,0,0,11,"[0, 14, 27, 8, 18, 11]",6,11,"[1, 5, 7, 12, 16, 17, 19, 20, 22, 25, 28]",153.9055876,11965,1225,13,17,9,2.386348208737804
basic,25,31,0,0,0,5,"[0, 14, 27, 8, 18, 11, 5]",7,5,"[16, 17, 20, 25, 28]",110.2249283,16727,4762,3,3,9,2.163249612867222
basic,25,31,0,0,0,28,"[0, 14, 27, 8, 18, 11, 5, 28]",8,2,"[16, 17]",90.00117988,20989,4262,2,0,9,1.9564635733184719
basic,25,31,0,0,1,17,"[0, 14, 27, 8, 18, 11, 5, 28, 17]",9,0,[],0.956247404,26779,5790,1,0,9,3.3035946495935673
basic,25,31,0,1,1,17,"[0, 14, 27, 8, 18, 11, 5, 28, 17]",9,0,[],0.956247404,28233,1454,1,0,9,3.3035946495935673
basic,26,7,0,0,0,0,[0],1,29,"[1, 2, 3, 4, 5, 6, 7, 8, 9, 10, 11, 12, 13, 14, 15, 16, 17, 18, 19, 20, 21, 22, 23, 24, 25, 26, 27, 28, 29]",300,130,-1,3,79,9,0.0
basic,26,7,0,0,0,6,"[0, 6]",2,22,"[2, 4, 5, 7, 8, 9, 10, 11, 13, 14, 15, 16, 18, 19, 20, 21, 22, 23, 24, 25, 27, 28]",231.1160396,6535,6405,1,24,9,1.0
basic,26,7,0,0,0,4,"[0, 6, 4]",3,11,"[2, 7, 13, 15, 16, 18, 19, 20, 21, 23, 25]",148.6236157,9145,2610,4,34,8,1.0779650303607222
basic,26,7,0,0,0,25,"[0, 6, 4, 25]",4,9,"[2, 7, 13, 15, 16, 18, 19, 20, 23]",123.884982,11629,2484,2,11,8,1.4873815316264414
basic,26,7,0,0,0,18,"[0, 6, 4, 25, 18]",5,6,"[2, 7, 13, 16, 19, 20]",95.56537744,12654,1025,1,6,8,1.4279029945047947
basic,26,7,0,0,0,20,"[0, 6, 4, 25, 18, 20]",6,3,"[7, 13, 19]",82.75912896,13687,1033,1,2,8,1.4491099791595008
basic,26,7,0,0,0,7,"[0, 6, 4, 25, 18, 20, 7]",7,1,[19],42.2622155,14788,1101,1,0,8,1.408887083753089
basic,26,7,0,0,1,19,"[0, 6, 4, 25, 18, 20, 7, 19]",8,0,[],12.85133316,16260,1472,1,0,8,1.5179459002174112
basic,26,7,0,1,1,19,"[0, 6, 4, 25, 18, 20, 7, 19]",8,0,[],12.85133316,17847,1587,1,0,8,1.5179459002174112
basic,27,17,0,0,0,0,[0],1,28,"[1, 2, 3, 4, 5, 6, 7, 8, 9, 10, 11, 12, 13, 14, 15, 16, 17, 18, 19, 20, 22, 23, 24, 25, 26, 27, 28, 29]",300,113,-1,2,73,8,0.0
basic,27,17,0,0,0,9,"[0, 9]",2,25,"[1, 2, 3, 5, 6, 7, 8, 10, 11, 12, 14, 15, 16, 17, 18, 19, 20, 22, 23, 24, 25, 26, 27, 28, 29]",210.5293344,6889,6776,1,34,8,1.0
basic,27,17,0,0,0,16,"[0, 9, 16]",3,21,"[1, 2, 3, 5, 7, 8, 10, 11, 12, 14, 17, 18, 19, 20, 22, 23, 25, 26, 27, 28, 29]",197.1876704,7769,880,1,26,8,1.173103464220352
basic,27,17,0,0,0,17,"[0, 9, 16, 17]",4,9,"[2, 7, 8, 10, 12, 14, 26, 27, 29]",155.5103384,8871,1102,2,9,7,1.3686022655428802
basic,27,17,0,0,0,8,"[0, 9, 16, 17, 8]",5,6,"[2, 7, 12, 14, 26, 27]",117.300392,10194,1323,1,5,7,1.365027279297032
basic,27,17,0,0,1,2,"[0, 9, 16, 17, 8, 2]",6,0,[],82.1862923,17366,7172,1,0,6,2.1028368799345176
basic,27,17,0,1,1,2,"[0, 9, 16, 17, 8, 2]",6,0,[],82.1862923,24397,7031,1,0,6,2.1028368799345176
basic,28,28,0,0,0,0,[0],1,27,"[1, 2, 3, 4, 5, 6, 7, 8, 9, 10, 11, 12, 13, 14, 15, 16, 17, 18, 19, 20, 22, 23, 25, 26, 27, 28, 29]",300,130,-1,2,96,9,0.0
basic,28,28,0,0,0,3,"[0, 3]",2,26,"[1, 2, 4, 5, 6, 7, 8, 9, 10, 11, 12, 13, 14, 15, 16, 17, 18, 19, 20, 22, 23, 25, 26, 27, 28, 29]",251.0817008,5759,5629,1,64,9,1.0
basic,28,28,0,0,0,28,"[0, 3, 28]",3,8,"[2, 4, 5, 8, 9, 19, 26, 29]",106.8977904,7995,2236,8,10,6,1.0454005687450825
basic,28,28,0,0,0,8,"[0, 3, 28, 8]",4,6,"[2, 4, 5, 9, 26, 29]",89.09329661,8936,941,4,4,6,1.0457726512017609
basic,28,28,0,0,0,9,"[0, 3, 28, 8, 9]",5,3,"[2, 4, 26]",73.96055066,9870,934,3,0,6,1.0985221387925443
basic,28,28,0,0,1,4,"[0, 3, 28, 8, 9, 4]",6,0,[],50.9388218,12655,2785,1,0,6,1.089839780194112
basic,28,28,0,1,1,4,"[0, 3, 28, 8, 9, 4]",6,0,[],50.9388218,16780,4125,1,0,6,1.089839780194112
basic,29,14,0,0,0,0,[0],1,29,"[1, 2, 3, 4, 5, 6, 7, 8, 9, 10, 11, 12, 13, 14, 15, 16, 17, 18, 19, 20, 21, 22, 23, 24, 25, 26, 27, 28, 29]",300,131,-1,8,157,10,0.0
basic,29,14,0,0,0,15,"[0, 15]",2,20,"[1, 2, 3, 4, 7, 8, 9, 13, 17, 18, 19, 20, 21, 22, 23, 25, 26, 27, 28, 29]",216.7053423,4782,4651,8,102,10,1.0
basic,29,14,0,0,0,28,"[0, 15, 28]",3,17,"[1, 2, 3, 4, 7, 8, 9, 13, 17, 18, 19, 20, 22, 23, 25, 26, 27]",197.4959696,6138,1356,8,48,10,1.0446007867311968
basic,29,14,0,0,0,17,"[0, 15, 28, 17]",4,14,"[1, 2, 3, 4, 7, 8, 13, 18, 19, 20, 22, 23, 25, 26]",184.0423455,7138,1000,8,39,10,1.0729463354689972
basic,29,14,0,0,0,18,"[0, 15, 28, 17, 18]",5,9,"[1, 2, 4, 7, 8, 19, 23, 25, 26]",119.412631,8187,1049,8,27,10,1.5035901079219378
basic,29,14,0,0,0,8,"[0, 15, 28, 17, 18, 8]",6,8,"[1, 2, 4, 7, 19, 23, 25, 26]",105.8111605,9056,869,8,18,10,1.4819689987843856
basic,29,14,0,0,0,19,"[0, 15, 28, 17, 18, 8, 19]",7,5,"[1, 7, 23, 25, 26]",85.19563238,10694,1638,4,9,10,1.4526746797093781
basic,29,14,0,0,0,25,"[0, 15, 28, 17, 18, 8, 19, 25]",8,4,"[1, 7, 23, 26]",49.34873573,13838,3144,1,3,10,1.5313248571613565
basic,29,14,0,0,0,23,"[0, 15, 28, 17, 18, 8, 19, 25, 23]",9,1,[26],19.93785339,19205,5367,1,0,10,1.4899241394052571
basic,29,14,0,0,1,26,"[0, 15, 28, 17, 18, 8, 19, 25, 23, 26]",10,0,[],9.12119956,20706,1501,1,0,10,1.4661334152583665
basic,29,14,0,1,1,26,"[0, 15, 28, 17, 18, 8, 19, 25, 23, 26]",10,0,[],9.12119956,22297,1591,1,0,10,1.4661334152583665
basic,30,11,0,0,0,0,[0],1,25,"[1, 2, 3, 4, 5, 6, 8, 9, 10, 11, 12, 13, 14, 15, 16, 17, 18, 19, 20, 22, 23, 25, 26, 27, 28]",300,131,-1,6,374,12,0.0
basic,30,11,0,0,0,18,"[0, 18]",2,21,"[1, 2, 4, 5, 6, 8, 9, 11, 12, 13, 14, 15, 16, 17, 19, 20, 22, 23, 25, 27, 28]",236.8493864,4606,4475,157,1477,11,1.0
basic,30,11,0,0,0,27,"[0, 18, 27]",3,19,"[1, 2, 4, 5, 6, 8, 9, 11, 12, 14, 15, 16, 17, 19, 20, 22, 23, 25, 28]",212.9956655,6005,1399,157,1315,11,1.060949579704323
basic,30,11,0,0,0,17,"[0, 18, 27, 17]",4,14,"[1, 2, 4, 5, 6, 8, 11, 12, 15, 19, 22, 23, 25, 28]",135.9177828,8291,2286,46,349,11,1.1156120043677304
basic,30,11,0,0,0,8,"[0, 18, 27, 17, 8]",5,11,"[1, 2, 5, 6, 11, 12, 15, 19, 22, 25, 28]",121.5999617,9221,930,26,143,11,1.2285932943120847
basic,30,11,0,0,0,15,"[0, 18, 27, 17, 8, 15]",6,9,"[2, 5, 6, 11, 12, 19, 22, 25, 28]",108.1463377,9971,750,24,54,11,1.223015425852291
basic,30,11,0,0,0,11,"[0, 18, 27, 17, 8, 15, 11]",7,6,"[2, 5, 12, 19, 22, 28]",90.03556742,11039,1068,22,2,11,1.2111003833550413
basic,30,11,0,0,0,28,"[0, 18, 27, 17, 8, 15, 11, 28]",8,3,"[2, 5, 22]",70.61907959,12456,1417,6,0,11,1.3274100985292616
basic,30,11,0,0,0,5,"[0, 18, 27, 17, 8, 15, 11, 28, 5]",9,2,"[2, 22]",52.73053577,13689,1233,2,0,11,1.5198534752211967
basic,30,11,0,0,0,2,"[0, 18, 27, 17, 8, 15, 11, 28, 5, 2]",10,1,[22],35.73053577,14689,1000,1,0,11,1.4805999496229154
basic,30,11,0,0,1,22,"[0, 18, 27, 17, 8, 15, 11, 28, 5, 2, 22]",11,0,[],25.68066014,15918,1229,1,0,11,1.4550139853626707
basic,30,11,0,1,1,22,"[0, 18, 27, 17, 8, 15, 11, 28, 5, 2, 22]",11,0,[],25.68066014,17981,2063,1,0,11,1.4550139853626707
basic,31,19,0,0,0,0,[0],1,29,"[1, 2, 3, 4, 5, 6, 7, 8, 9, 10, 11, 12, 13, 14, 15, 16, 17, 18, 19, 20, 21, 22, 23, 24, 25, 26, 27, 28, 29]",300,131,-1,12,149,8,0.0
basic,31,19,0,0,0,29,"[0, 29]",2,28,"[1, 2, 3, 4, 5, 6, 7, 8, 9, 10, 11, 12, 13, 14, 15, 16, 17, 18, 19, 20, 21, 22, 23, 24, 25, 26, 27, 28]",265.0715016,7990,7859,12,120,8,1.0
basic,31,19,0,0,0,12,"[0, 29, 12]",3,10,"[1, 2, 3, 8, 13, 16, 17, 19, 23, 25]",151.2251139,11221,3231,1,15,8,1.2439006517653588
basic,31,19,0,0,0,17,"[0, 29, 12, 17]",4,9,"[1, 2, 3, 8, 13, 16, 19, 23, 25]",131.1005021,12904,1683,1,7,8,1.2186098272331718
basic,31,19,0,0,0,25,"[0, 29, 12, 17, 25]",5,8,"[1, 2, 3, 8, 13, 16, 19, 23]",120.0551411,15169,2265,1,6,8,1.319561617005615
basic,31,19,0,0,0,23,"[0, 29, 12, 17, 25, 23]",6,2,"[3, 8]",50.41319967,17196,2027,1,1,8,1.3880936298085154
basic,31,19,0,0,0,3,"[0, 29, 12, 17, 25, 23, 3]",7,1,[8],28.48148747,19738,2542,1,0,8,1.3473080672428304
basic,31,19,0,0,1,8,"[0, 29, 12, 17, 25, 23, 3, 8]",8,0,[],5.157679894,20859,1121,1,0,8,1.3530430001016291
basic,31,19,0,1,1,8,"[0, 29, 12, 17, 25, 23, 3, 8]",8,0,[],5.157679894,22414,1555,1,0,8,1.3530430001016291
basic,32,24,0,0,0,0,[0],1,29,"[1, 2, 3, 4, 5, 6, 7, 8, 9, 10, 11, 12, 13, 14, 15, 16, 17, 18, 19, 20, 21, 22, 23, 24, 25, 26, 27, 28, 29]",300,113,-1,4,76,10,0.0
basic,32,24,0,0,0,14,"[0, 14]",2,27,"[1, 2, 3, 4, 5, 6, 8, 9, 10, 11, 12, 13, 15, 16, 17, 18, 19, 20, 21, 22, 23, 24, 25, 26, 27, 28, 29]",278.0455016,5595,5482,4,54,10,1.0
basic,32,24,0,0,0,16,"[0, 14, 16]",3,25,"[2, 3, 4, 5, 6, 8, 9, 10, 11, 12, 13, 15, 17, 18, 19, 20, 21, 22, 23, 24, 25, 26, 27, 28, 29]",188.9949542,7439,1844,4,31,10,1.238291113657358
basic,32,24,0,0,0,22,"[0, 14, 16, 22]",4,20,"[2, 3, 4, 6, 8, 9, 10, 11, 13, 15, 17, 20, 21, 23, 24, 25, 26, 27, 28, 29]",170.9671978,10236,2797,2,14,10,1.2244494133788653
basic,32,24,0,0,0,15,"[0, 14, 16, 22, 15]",5,17,"[3, 4, 6, 8, 9, 10, 11, 13, 17, 21, 23, 24, 25, 26, 27, 28, 29]",149.7539943,11172,936,4,24,9,1.2560250275605345
basic,32,24,0,0,0,28,"[0, 14, 16, 22, 15, 28]",6,9,"[3, 4, 8, 9, 11, 13, 23, 26, 27]",104.4770687,12354,1182,3,6,9,1.1876953099279792
basic,32,24,0,0,0,23,"[0, 14, 16, 22, 15, 28, 23]",7,4,"[8, 9, 11, 27]",85.45077106,13305,951,3,2,9,1.2177527140541342
basic,32,24,0,0,1,9,"[0, 14, 16, 22, 15, 28, 23, 9]",8,0,[],32.11222965,18086,4781,1,0,8,1.26202201889293
basic,32,24,0,1,1,9,"[0, 14, 16, 22, 15, 28, 23, 9]",8,0,[],32.11222965,24246,6160,1,0,8,1.26202201889293
basic,33,22,0,0,0,0,[0],1,29,"[1, 2, 3, 4, 5, 6, 7, 8, 9, 10, 11, 12, 13, 14, 15, 16, 17, 18, 19, 20, 21, 22, 23, 24, 25, 26, 27, 28, 29]",300,130,-1,31,704,9,0.0
basic,33,22,0,0,0,29,"[0, 29]",2,22,"[1, 3, 5, 6, 7, 8, 9, 11, 13, 14, 15, 16, 17, 19, 20, 21, 22, 23, 24, 25, 27, 28]",222.9935068,3839,3709,11,235,9,1.0
basic,33,22,0,0,0,19,"[0, 29, 19]",3,18,"[1, 3, 6, 7, 8, 9, 13, 14, 15, 16, 17, 20, 21, 22, 23, 24, 25, 28]",207.9602104,6252,2413,11,172,9,1.1559285443414686
basic,33,22,0,0,0,9,"[0, 29, 19, 9]",4,16,"[1, 3, 6, 7, 8, 13, 14, 15, 16, 17, 20, 21, 22, 24, 25, 28]",187.5641323,7511,1259,7,84,9,1.2555028175473422
basic,33,22,0,0,0,16,"[0, 29, 19, 9, 16]",5,6,"[6, 7, 14, 22, 25, 28]",128.5302438,8939,1428,4,4,8,2.1066606783673625
basic,33,22,0,0,0,28,"[0, 29, 19, 9, 16, 28]",6,3,"[6, 7, 14]",94.09189305,10510,1571,2,1,8,1.8616882511814346
basic,33,22,0,0,0,6,"[0, 29, 19, 9, 16, 28, 6]",7,1,[14],64.09189305,11339,829,1,0,8,2.662104299756147
basic,33,22,0,0,1,14,"[0, 29, 19, 9, 16, 28, 6, 14]",8,0,[],1.322473741,12371,1032,1,0,8,2.305651302762931
basic,33,22,0,1,1,14,"[0, 29, 19, 9, 16, 28, 6, 14]",8,0,[],1.322473741,13713,1342,1,0,8,2.305651302762931
basic,34,43,0,0,0,0,[0],1,23,"[1, 2, 3, 4, 5, 6, 7, 9, 10, 11, 12, 14, 15, 16, 17, 19, 20, 21, 22, 23, 25, 27, 29]",300,131,-1,16,556,12,0.0
basic,34,43,0,0,0,29,"[0, 29]",2,22,"[1, 2, 3, 4, 5, 6, 7, 9, 10, 11, 12, 14, 15, 16, 17, 19, 20, 21, 22, 23, 25, 27]",277.909278,4014,3883,16,520,12,1.0
basic,34,43,0,0,0,20,"[0, 29, 20]",3,20,"[1, 2, 3, 4, 6, 7, 9, 10, 11, 12, 14, 15, 16, 17, 19, 21, 22, 23, 25, 27]",254.4785289,4957,943,15,422,12,1.082311746871282
basic,34,43,0,0,0,16,"[0, 29, 20, 16]",4,19,"[1, 2, 3, 4, 6, 7, 9, 10, 11, 12, 14, 15, 17, 19, 21, 22, 23, 25, 27]",231.8511119,6008,1051,15,389,12,1.215201926898219
basic,34,43,0,0,0,25,"[0, 29, 20, 16, 25]",5,14,"[1, 2, 3, 4, 6, 7, 9, 11, 12, 14, 15, 19, 22, 23]",175.7708124,8436,2428,53,282,11,1.566384303308987
basic,34,43,0,0,0,15,"[0, 29, 20, 16, 25, 15]",6,13,"[1, 2, 3, 4, 6, 7, 9, 11, 12, 14, 19, 22, 23]",153.0992443,10844,2408,27,108,11,1.776736412604812
basic,34,43,0,0,0,12,"[0, 29, 20, 16, 25, 15, 12]",7,10,"[1, 3, 6, 7, 9, 11, 14, 19, 22, 23]",133.7860364,11805,961,21,41,11,1.6813323012225032
basic,34,43,0,0,0,3,"[0, 29, 20, 16, 25, 15, 12, 3]",8,9,"[1, 6, 7, 9, 11, 14, 19, 22, 23]",120.7860364,13210,1405,20,12,11,1.608740348096123
basic,34,43,0,0,0,19,"[0, 29, 20, 16, 25, 15, 12, 3, 19]",9,5,"[1, 6, 7, 11, 22]",79.67642677,14413,1203,8,2,11,1.5859237827218742
basic,34,43,0,0,0,7,"[0, 29, 20, 16, 25, 15, 12, 3, 19, 7]",10,1,[1],40.56121234,17186,2773,1,0,11,1.4702444514259398
basic,34,43,0,0,1,1,"[0, 29, 20, 16, 25, 15, 12, 3, 19, 7, 1]",11,0,[],2.351265993,18489,1303,1,0,11,2.0677032245099087
basic,34,43,0,1,1,1,"[0, 29, 20, 16, 25, 15, 12, 3, 19, 7, 1]",11,0,[],2.351265993,21447,2958,1,0,11,2.0677032245099087
basic,35,6,0,0,0,0,[0],1,29,"[1, 2, 3, 4, 5, 6, 7, 8, 9, 10, 11, 12, 13, 14, 15, 16, 17, 18, 19, 20, 21, 22, 23, 24, 25, 26, 27, 28, 29]",300,130,-1,180,4304,10,0.0
basic,35,6,0,0,0,3,"[0, 3]",2,28,"[1, 2, 4, 5, 6, 7, 8, 9, 10, 11, 12, 13, 14, 15, 16, 17, 18, 19, 20, 21, 22, 23, 24, 25, 26, 27, 28, 29]",266.4738908,5508,5378,90,1607,10,1.0
basic,35,6,0,0,0,7,"[0, 3, 7]",3,24,"[1, 2, 4, 5, 6, 8, 9, 10, 11, 12, 13, 14, 15, 16, 17, 18, 20, 21, 22, 23, 24, 26, 27, 29]",230.3352688,11376,5868,8,253,10,1.450719050884865
basic,35,6,0,0,0,16,"[0, 3, 7, 16]",4,17,"[1, 2, 6, 10, 11, 13, 14, 17, 18, 20, 21, 22, 23, 24, 26, 27, 29]",151.9260856,13971,2595,6,57,9,2.051444139323231
basic,35,6,0,0,0,18,"[0, 3, 7, 16, 18]",5,13,"[1, 2, 6, 10, 13, 14, 17, 21, 22, 23, 24, 26, 29]",128.5808506,15029,1058,4,24,9,2.814692261431485
basic,35,6,0,0,0,17,"[0, 3, 7, 16, 18, 17]",6,10,"[1, 2, 6, 10, 13, 22, 23, 24, 26, 29]",114.6524623,16029,1000,4,14,9,2.6262045536571694
basic,35,6,0,0,0,10,"[0, 3, 7, 16, 18, 17, 10]",7,6,"[2, 6, 23, 24, 26, 29]",94.92937938,17894,1865,3,5,9,2.431344592065996
basic,35,6,0,0,0,24,"[0, 3, 7, 16, 18, 17, 10, 24]",8,3,"[6, 23, 29]",81.51297151,19054,1160,3,0,9,2.245651751113637
basic,35,6,0,0,1,29,"[0, 3, 7, 16, 18, 17, 10, 24, 29]",9,0,[],5.921966755,30220,11166,1,0,9,2.7610830907509776
basic,35,6,0,1,1,29,"[0, 3, 7, 16, 18, 17, 10, 24, 29]",9,0,[],5.921966755,32047,1827,1,0,9,2.7610830907509776
basic,36,13,0,0,0,0,[0],1,29,"[1, 2, 3, 4, 5, 6, 7, 8, 9, 10, 11, 12, 13, 14, 15, 16, 17, 18, 19, 20, 21, 22, 23, 24, 25, 26, 27, 28, 29]",300,118,-1,60,2676,11,0.0
basic,36,13,0,0,0,24,"[0, 24]",2,28,"[1, 2, 3, 4, 5, 6, 7, 8, 9, 10, 11, 12, 13, 14, 15, 16, 17, 18, 19, 20, 21, 22, 23, 25, 26, 27, 28, 29]",288.8196601,5202,5084,16,1444,11,1.0
basic,36,13,0,0,0,28,"[0, 24, 28]",3,23,"[1, 2, 3, 4, 6, 7, 8, 9, 10, 11, 12, 13, 15, 16, 17, 19, 20, 21, 22, 23, 26, 27, 29]",222.5324064,6377,1175,8,243,11,1.0513810491680837
basic,36,13,0,0,0,2,"[0, 24, 28, 2]",4,19,"[1, 3, 4, 6, 7, 9, 11, 12, 13, 15, 16, 17, 19, 20, 21, 23, 26, 27, 29]",184.889346,7640,1263,7,110,11,1.050374132001543
basic,36,13,0,0,0,29,"[0, 24, 28, 2, 29]",5,18,"[1, 3, 4, 6, 7, 9, 11, 12, 13, 15, 16, 17, 19, 20, 21, 23, 26, 27]",173.1846461,8607,967,7,85,11,1.1393409619120594
basic,36,13,0,0,0,7,"[0, 24, 28, 2, 29, 7]",6,17,"[1, 3, 4, 6, 9, 11, 12, 13, 15, 16, 17, 19, 20, 21, 23, 26, 27]",157.9203086,9584,977,5,45,11,1.349777315111579
basic,36,13,0,0,0,26,"[0, 24, 28, 2, 29, 7, 26]",7,16,"[1, 3, 4, 6, 9, 11, 12, 13, 15, 16, 17, 19, 20, 21, 23, 27]",147.480002,11204,1620,5,25,11,1.5942082773824946
basic,36,13,0,0,0,6,"[0, 24, 28, 2, 29, 7, 26, 6]",8,12,"[1, 3, 4, 11, 13, 15, 16, 17, 19, 20, 23, 27]",127.3802508,11852,648,4,12,11,1.5898347940840756
basic,36,13,0,0,0,11,"[0, 24, 28, 2, 29, 7, 26, 6, 11]",9,6,"[1, 13, 15, 16, 17, 23]",108.2752776,12984,1132,3,4,11,1.5029953945561012
basic,36,13,0,0,1,1,"[0, 24, 28, 2, 29, 7, 26, 6, 11, 1]",10,0,[],7.136758754,21160,8176,1,0,10,1.8808483063610022
basic,36,13,0,1,1,1,"[0, 24, 28, 2, 29, 7, 26, 6, 11, 1]",10,0,[],7.136758754,22663,1503,1,0,10,1.8808483063610022
basic,37,27,0,0,0,0,[0],1,26,"[1, 3, 5, 6, 7, 8, 9, 10, 11, 12, 13, 14, 15, 16, 17, 18, 19, 21, 22, 23, 24, 25, 26, 27, 28, 29]",300,130,-1,13,578,11,0.0
basic,37,27,0,0,0,15,"[0, 15]",2,24,"[1, 3, 5, 6, 7, 8, 9, 10, 11, 12, 13, 14, 16, 17, 18, 19, 21, 22, 23, 24, 25, 26, 27, 29]",263.7508621,3538,3408,6,219,11,1.0
basic,37,27,0,0,0,24,"[0, 15, 24]",3,20,"[1, 5, 6, 7, 8, 9, 10, 12, 13, 14, 16, 17, 18, 19, 21, 23, 25, 26, 27, 29]",246.5462115,4502,964,6,130,11,1.130933077698322
basic,37,27,0,0,0,17,"[0, 15, 24, 17]",4,15,"[1, 6, 8, 10, 12, 13, 14, 16, 18, 19, 23, 25, 26, 27, 29]",229.9932662,5445,943,4,60,11,1.1285538435963374
basic,37,27,0,0,0,12,"[0, 15, 24, 17, 12]",5,14,"[1, 6, 8, 10, 13, 14, 16, 18, 19, 23, 25, 26, 27, 29]",218.8129263,6212,767,2,32,11,1.2561880288755216
basic,37,27,0,0,0,10,"[0, 15, 24, 17, 12, 10]",6,11,"[1, 8, 13, 14, 18, 19, 23, 25, 26, 27, 29]",207.7675653,7270,1058,2,28,11,1.2228289337766665
basic,37,27,0,0,0,13,"[0, 15, 24, 17, 12, 10, 13]",7,9,"[1, 8, 14, 18, 19, 23, 26, 27, 29]",167.9178476,8745,1475,2,18,11,1.3421291994761178
basic,37,27,0,0,0,19,"[0, 15, 24, 17, 12, 10, 13, 19]",8,5,"[1, 8, 14, 23, 29]",131.6825057,10526,1781,2,6,11,1.294749956153846
basic,37,27,0,0,0,8,"[0, 15, 24, 17, 12, 10, 13, 19, 8]",9,3,"[14, 23, 29]",116.816437,11868,1342,2,1,11,1.3554286578836865
basic,37,27,0,0,1,23,"[0, 15, 24, 17, 12, 10, 13, 19, 8, 23]",10,0,[],45.97859399,19872,8004,1,0,10,3.3397859539241304
basic,37,27,0,1,1,23,"[0, 15, 24, 17, 12, 10, 13, 19, 8, 23]",10,0,[],45.97859399,23379,3507,1,0,10,3.3397859539241304
basic,38,1,0,0,0,0,[0],1,26,"[1, 2, 4, 5, 7, 8, 9, 10, 11, 12, 13, 14, 15, 16, 17, 18, 19, 20, 21, 22, 23, 24, 25, 26, 28, 29]",300,113,-1,6,74,7,0.0
basic,38,1,0,0,0,14,"[0, 14]",2,19,"[1, 4, 5, 8, 9, 13, 15, 17, 18, 19, 20, 21, 22, 23, 24, 25, 26, 28, 29]",200.1901808,7522,7409,5,42,7,1.0
basic,38,1,0,0,0,17,"[0, 14, 17]",3,15,"[1, 4, 5, 8, 9, 13, 15, 18, 19, 20, 22, 23, 25, 28, 29]",147.8356204,8488,966,5,27,7,1.0028844724416826
basic,38,1,0,0,0,20,"[0, 14, 17, 20]",4,5,"[4, 5, 8, 18, 29]",79.42509489,12186,3698,3,3,6,1.2972077151057804
basic,38,1,0,0,0,5,"[0, 14, 17, 20, 5]",5,1,[18],57.95418433,13190,1004,1,0,6,1.2923132195161702
basic,38,1,0,0,1,18,"[0, 14, 17, 20, 5, 18]",6,0,[],35.12875991,14286,1096,1,0,6,1.3149712096478787
basic,38,1,0,1,1,18,"[0, 14, 17, 20, 5, 18]",6,0,[],35.12875991,18496,4210,1,0,6,1.3149712096478787
basic,39,32,0,0,0,0,[0],1,29,"[1, 2, 3, 4, 5, 6, 7, 8, 9, 10, 11, 12, 13, 14, 15, 16, 17, 18, 19, 20, 21, 22, 23, 24, 25, 26, 27, 28, 29]",300,131,-1,17,359,10,0.0
basic,39,32,0,0,0,19,"[0, 19]",2,28,"[1, 2, 3, 4, 5, 6, 7, 8, 9, 10, 11, 12, 13, 14, 15, 16, 17, 18, 20, 21, 22, 23, 24, 25, 26, 27, 28, 29]",283.5075775,4305,4174,16,294,10,1.0
basic,39,32,0,0,0,13,"[0, 19, 13]",3,24,"[2, 3, 4, 5, 6, 8, 9, 10, 11, 12, 14, 15, 16, 17, 18, 20, 21, 22, 23, 24, 25, 26, 27, 28]",260.3127505,5070,765,14,227,10,1.0172874229878615
basic,39,32,0,0,0,15,"[0, 19, 13, 15]",4,18,"[2, 3, 5, 8, 9, 10, 11, 12, 16, 17, 20, 22, 23, 24, 25, 26, 27, 28]",177.4393531,7037,1967,9,116,10,1.435447391509833
basic,39,32,0,0,0,28,"[0, 19, 13, 15, 28]",5,17,"[2, 3, 5, 8, 9, 10, 11, 12, 16, 17, 20, 22, 23, 24, 25, 26, 27]",166.0375988,7778,741,9,70,10,1.3843701324937985
basic,39,32,0,0,0,12,"[0, 19, 13, 15, 28, 12]",6,14,"[2, 3, 5, 8, 9, 10, 11, 16, 17, 20, 22, 24, 26, 27]",147.0639329,9188,1410,6,35,10,1.358372254952329
basic,39,32,0,0,0,16,"[0, 19, 13, 15, 28, 12, 16]",7,13,"[2, 3, 5, 8, 9, 10, 11, 17, 20, 22, 24, 26, 27]",131.411457,10143,955,5,15,10,1.4356932930709845
basic,39,32,0,0,0,22,"[0, 19, 13, 15, 28, 12, 16, 22]",8,6,"[2, 8, 9, 17, 20, 27]",97.57360838,14469,4326,3,5,10,1.4335226411545752
basic,39,32,0,0,0,9,"[0, 19, 13, 15, 28, 12, 16, 22, 9]",9,3,"[2, 8, 20]",75.37000507,16263,1794,3,0,10,1.4837166378374758
basic,39,32,0,0,1,2,"[0, 19, 13, 15, 28, 12, 16, 22, 9, 2]",10,0,[],24.28184597,25278,9015,1,0,10,1.9009621017233784
basic,39,32,0,1,1,2,"[0, 19, 13, 15, 28, 12, 16, 22, 9, 2]",10,0,[],24.28184597,26447,1169,1,0,10,1.9009621017233784
basic,40,34,0,0,0,0,[0],1,25,"[1, 3, 4, 5, 6, 7, 8, 9, 10, 11, 12, 13, 15, 18, 19, 20, 21, 22, 23, 24, 25, 26, 27, 28, 29]",300,120,-1,12,367,10,0.0
basic,40,34,0,0,0,13,"[0, 13]",2,24,"[1, 3, 4, 5, 6, 7, 8, 9, 10, 11, 12, 15, 18, 19, 20, 21, 22, 23, 24, 25, 26, 27, 28, 29]",279.9750156,3971,3851,12,331,10,1.0
basic,40,34,0,0,0,1,"[0, 13, 1]",3,16,"[3, 5, 7, 8, 9, 10, 11, 12, 19, 21, 22, 23, 24, 25, 27, 29]",211.8574701,5312,1341,3,92,10,1.0010381285747127
basic,40,34,0,0,0,8,"[0, 13, 1, 8]",4,14,"[3, 5, 7, 9, 10, 11, 12, 19, 22, 23, 24, 25, 27, 29]",201.0871405,6008,696,2,54,10,1.1636807
basic,40,34,0,0,0,25,"[0, 13, 1, 8, 25]",5,12,"[3, 5, 7, 9, 10, 11, 12, 22, 23, 24, 27, 29]",183.999133,8079,2071,2,28,10,1.1396208815936457
basic,40,34,0,0,0,24,"[0, 13, 1, 8, 25, 24]",6,11,"[3, 5, 7, 9, 10, 11, 12, 22, 23, 27, 29]",166.5062774,8895,816,2,23,10,1.374180768736554
basic,40,34,0,0,0,12,"[0, 13, 1, 8, 25, 24, 12]",7,7,"[7, 9, 10, 11, 22, 23, 27]",115.4670767,11095,2200,1,8,10,1.4994254760835948
basic,40,34,0,0,0,7,"[0, 13, 1, 8, 25, 24, 12, 7]",8,5,"[9, 11, 22, 23, 27]",100.4337804,17586,6491,1,4,10,1.758992610425009
basic,40,34,0,0,0,23,"[0, 13, 1, 8, 25, 24, 12, 7, 23]",9,1,[27],72.27352467,18535,949,1,0,10,2.399781305190153
basic,40,34,0,0,1,27,"[0, 13, 1, 8, 25, 24, 12, 7, 23, 27]",10,0,[],18.60789321,23573,5038,1,0,10,4.766619878750327
basic,40,34,0,1,1,27,"[0, 13, 1, 8, 25, 24, 12, 7, 23, 27]",10,0,[],18.60789321,24930,1357,1,0,10,4.766619878750327
basic,41,12,0,0,0,0,[0],1,29,"[1, 2, 3, 4, 5, 6, 7, 8, 9, 10, 11, 12, 13, 14, 15, 16, 17, 18, 19, 20, 21, 22, 23, 24, 25, 26, 27, 28, 29]",300,129,-1,2,32,9,0.0
basic,41,12,0,0,0,22,"[0, 22]",2,22,"[2, 4, 5, 6, 7, 9, 10, 12, 13, 14, 15, 16, 17, 18, 19, 21, 23, 24, 25, 27, 28, 29]",211.9943184,4044,3915,6,42,8,1.0
basic,41,12,0,0,0,16,"[0, 22, 16]",3,12,"[2, 4, 5, 6, 7, 12, 14, 19, 23, 24, 25, 27]",190.9943184,4863,819,6,24,8,1.2017164145167045
basic,41,12,0,0,0,4,"[0, 22, 16, 4]",4,9,"[2, 6, 7, 12, 14, 19, 24, 25, 27]",156.7890556,5837,974,6,14,8,1.146531713305579
basic,41,12,0,0,0,12,"[0, 22, 16, 4, 12]",5,4,"[14, 19, 24, 27]",114.5990094,6586,749,4,3,8,1.1221389456954312
basic,41,12,0,0,0,27,"[0, 22, 16, 4, 12, 27]",6,3,"[14, 19, 24]",90.24741807,9428,2842,2,1,8,1.2262878338287035
basic,41,12,0,0,0,14,"[0, 22, 16, 4, 12, 27, 14]",7,1,[24],61.59432051,10203,775,1,0,8,1.2804562106751427
basic,41,12,0,0,1,24,"[0, 22, 16, 4, 12, 27, 14, 24]",8,0,[],44.38966997,15261,5058,1,0,8,1.4322660007679802
basic,41,12,0,1,1,24,"[0, 22, 16, 4, 12, 27, 14, 24]",8,0,[],44.38966997,16579,1318,1,0,8,1.4322660007679802
basic,42,18,0,0,0,0,[0],1,28,"[1, 2, 3, 4, 5, 6, 7, 8, 9, 10, 11, 12, 13, 14, 16, 17, 18, 19, 20, 21, 22, 23, 24, 25, 26, 27, 28, 29]",300,130,-1,3,136,10,0.0
basic,42,18,0,0,0,28,"[0, 28]",2,16,"[1, 3, 5, 7, 8, 9, 12, 13, 14, 16, 20, 23, 24, 25, 26, 27]",236.4311397,4642,4512,2,19,10,1.0
basic,42,18,0,0,0,7,"[0, 28, 7]",3,15,"[1, 3, 5, 8, 9, 12, 13, 14, 16, 20, 23, 24, 25, 26, 27]",214.4084242,5603,961,2,17,10,1.4345180696367563
basic,42,18,0,0,0,25,"[0, 28, 7, 25]",4,13,"[1, 3, 5, 8, 9, 12, 13, 14, 16, 20, 23, 26, 27]",186.6055466,6528,925,2,15,10,1.8896451241781882
basic,42,18,0,0,0,8,"[0, 28, 7, 25, 8]",5,10,"[3, 5, 9, 12, 13, 14, 16, 23, 26, 27]",149.551532,7587,1059,2,10,10,1.590467437592877
basic,42,18,0,0,0,3,"[0, 28, 7, 25, 8, 3]",6,6,"[5, 12, 13, 14, 23, 27]",121.4801943,9174,1587,1,10,9,1.4587755974793148
basic,42,18,0,0,0,5,"[0, 28, 7, 25, 8, 3, 5]",7,2,"[12, 27]",63.29944145,10521,1347,1,1,9,1.324334937860345
basic,42,18,0,0,0,12,"[0, 28, 7, 25, 8, 3, 5, 12]",8,1,[27],51.8976872,12572,2051,1,0,9,1.3371922112868397
basic,42,18,0,0,1,27,"[0, 28, 7, 25, 8, 3, 5, 12, 27]",9,0,[],11.17914106,13959,1387,1,0,9,1.4648883530615529
basic,42,18,0,1,1,27,"[0, 28, 7, 25, 8, 3, 5, 12, 27]",9,0,[],11.17914106,15447,1488,1,0,9,1.4648883530615529
basic,43,5,0,0,0,0,[0],1,29,"[1, 2, 3, 4, 5, 6, 7, 8, 9, 10, 11, 12, 13, 14, 15, 16, 17, 18, 19, 20, 21, 22, 23, 24, 25, 26, 27, 28, 29]",300,130,-1,5,139,9,0.0
basic,43,5,0,0,0,12,"[0, 12]",2,22,"[2, 4, 5, 6, 8, 9, 10, 13, 14, 15, 16, 17, 18, 19, 21, 22, 23, 24, 25, 26, 27, 28]",228.3062067,3174,3044,1,27,9,1.0
basic,43,5,0,0,0,25,"[0, 12, 25]",3,21,"[2, 4, 5, 6, 8, 9, 10, 13, 14, 15, 16, 17, 18, 19, 21, 22, 23, 24, 26, 27, 28]",200.5213187,4278,1104,1,20,9,1.584023303445617
basic,43,5,0,0,0,23,"[0, 12, 25, 23]",4,19,"[2, 4, 5, 6, 8, 9, 10, 13, 14, 15, 16, 17, 18, 19, 21, 22, 24, 26, 27]",182.0822298,5070,792,1,14,9,2.3508446989254357
basic,43,5,0,0,0,24,"[0, 12, 25, 23, 24]",5,15,"[2, 4, 5, 6, 8, 9, 13, 14, 15, 17, 18, 19, 22, 26, 27]",158.995437,6053,983,1,12,9,1.9469752046288753
basic,43,5,0,0,0,17,"[0, 12, 25, 23, 24, 17]",6,7,"[4, 5, 6, 8, 15, 18, 19]",124.0097257,7221,1168,1,8,9,1.6482276497563642
basic,43,5,0,0,0,5,"[0, 12, 25, 23, 24, 17, 5]",7,4,"[4, 6, 15, 18]",80.96323916,11347,4126,1,3,9,1.4654649104389412
basic,43,5,0,0,0,4,"[0, 12, 25, 23, 24, 17, 5, 4]",8,1,[6],15.16050365,12471,1124,1,0,9,1.6255060355828674
basic,43,5,0,0,1,6,"[0, 12, 25, 23, 24, 17, 5, 4, 6]",9,0,[],3.118909076,13205,734,1,0,9,1.7777310833772453
basic,43,5,0,1,1,6,"[0, 12, 25, 23, 24, 17, 5, 4, 6]",9,0,[],3.118909076,15780,2575,1,0,9,1.7777310833772453
basic,44,3,0,0,0,0,[0],1,29,"[1, 2, 3, 4, 5, 6, 7, 8, 9, 10, 11, 12, 13, 14, 15, 16, 17, 18, 19, 20, 21, 22, 23, 24, 25, 26, 27, 28, 29]",300,115,-1,34,427,10,0.0
basic,44,3,0,0,0,17,"[0, 17]",2,16,"[3, 4, 7, 8, 10, 12, 14, 15, 16, 19, 20, 21, 22, 24, 26, 27]",197.6965299,4039,3924,2,27,9,1.0
basic,44,3,0,0,0,20,"[0, 17, 20]",3,13,"[3, 4, 7, 8, 10, 14, 15, 16, 19, 21, 22, 24, 27]",185.0474192,4854,815,2,24,9,1.0153332121237257
basic,44,3,0,0,0,3,"[0, 17, 20, 3]",4,10,"[4, 7, 8, 10, 14, 15, 16, 19, 21, 24]",164.6513412,5643,789,2,22,9,1.0819240770773468
basic,44,3,0,0,0,19,"[0, 17, 20, 3, 19]",5,6,"[4, 8, 10, 14, 21, 24]",127.3150318,6656,1013,2,11,9,1.1701070532957258
basic,44,3,0,0,0,21,"[0, 17, 20, 3, 19, 21]",6,5,"[4, 8, 10, 14, 24]",115.1084762,7474,818,2,6,9,1.202395500952127
basic,44,3,0,0,0,14,"[0, 17, 20, 3, 19, 21, 14]",7,4,"[4, 8, 10, 24]",88.20122806,8542,1068,2,2,9,1.6456130302761207
basic,44,3,0,0,0,24,"[0, 17, 20, 3, 19, 21, 14, 24]",8,1,[8],17.08864127,9967,1425,1,0,9,4.806859660680286
basic,44,3,0,0,1,8,"[0, 17, 20, 3, 19, 21, 14, 24, 8]",9,0,[],4.923116212,11337,1370,1,0,9,4.915218144486606
basic,44,3,0,1,1,8,"[0, 17, 20, 3, 19, 21, 14, 24, 8]",9,0,[],4.923116212,12981,1644,1,0,9,4.915218144486606
basic,45,37,0,0,0,0,[0],1,29,"[1, 2, 3, 4, 5, 6, 7, 8, 9, 10, 11, 12, 13, 14, 15, 16, 17, 18, 19, 20, 21, 22, 23, 24, 25, 26, 27, 28, 29]",300,130,-1,6,168,10,0.0
basic,45,37,0,0,0,18,"[0, 18]",2,19,"[1, 2, 4, 6, 7, 9, 10, 12, 14, 15, 17, 19, 20, 21, 22, 23, 26, 28, 29]",202.4090168,7771,7641,6,89,10,1.0
basic,45,37,0,0,0,7,"[0, 18, 7]",3,12,"[1, 2, 4, 9, 15, 17, 19, 20, 21, 22, 26, 29]",175.2428614,8988,1217,6,53,10,1.0413073512834488
basic,45,37,0,0,0,22,"[0, 18, 7, 22]",4,8,"[1, 2, 4, 15, 19, 20, 21, 26]",125.2428614,10121,1133,6,29,10,1.0730792320325544
basic,45,37,0,0,0,2,"[0, 18, 7, 22, 2]",5,7,"[1, 4, 15, 19, 20, 21, 26]",97.58422802,12792,2671,2,13,10,1.338975835424605
basic,45,37,0,0,0,4,"[0, 18, 7, 22, 2, 4]",6,5,"[1, 15, 19, 20, 21]",86.18247377,13685,893,2,6,10,1.3155324116512812
basic,45,37,0,0,0,1,"[0, 18, 7, 22, 2, 4, 1]",7,4,"[15, 19, 20, 21]",68.46242863,15006,1321,2,4,10,1.4624721991921241
basic,45,37,0,0,0,15,"[0, 18, 7, 22, 2, 4, 1, 15]",8,2,"[20, 21]",28.49994622,16479,1473,2,0,9,1.631639185530609
basic,45,37,0,0,1,20,"[0, 18, 7, 22, 2, 4, 1, 15, 20]",9,0,[],11.49994622,19963,3484,1,0,9,1.9246600257791293
basic,45,37,0,1,1,20,"[0, 18, 7, 22, 2, 4, 1, 15, 20]",9,0,[],11.49994622,22780,2817,1,0,9,1.9246600257791293
basic,46,38,0,0,0,0,[0],1,29,"[1, 2, 3, 4, 5, 6, 7, 8, 9, 10, 11, 12, 13, 14, 15, 16, 17, 18, 19, 20, 21, 22, 23, 24, 25, 26, 27, 28, 29]",300,166,-1,33,506,9,0.0
basic,46,38,0,0,0,11,"[0, 11]",2,23,"[1, 2, 3, 4, 5, 7, 10, 12, 13, 14, 15, 16, 17, 18, 19, 20, 21, 22, 24, 25, 26, 27, 28]",220.093805,14211,14045,2,40,9,1.0
basic,46,38,0,0,0,28,"[0, 11, 28]",3,16,"[1, 4, 5, 7, 10, 12, 13, 14, 15, 16, 17, 19, 20, 21, 24, 26]",193.0752928,15310,1099,2,20,9,1.0012220945316377
basic,46,38,0,0,0,16,"[0, 11, 28, 16]",4,13,"[1, 4, 5, 10, 12, 13, 14, 15, 17, 19, 20, 24, 26]",164.0752928,16411,1101,2,16,9,1.2422672958602723
basic,46,38,0,0,0,15,"[0, 11, 28, 16, 15]",5,9,"[4, 5, 13, 14, 17, 19, 20, 24, 26]",122.4579887,17504,1093,2,14,9,2.4196280466601676
basic,46,38,0,0,0,4,"[0, 11, 28, 16, 15, 4]",6,6,"[13, 17, 19, 20, 24, 26]",96.45798873,18441,937,2,9,9,2.9030072771852855
basic,46,38,0,0,0,20,"[0, 11, 28, 16, 15, 4, 20]",7,3,"[13, 17, 19]",62.51686323,19605,1164,1,2,9,4.409951139385221
basic,46,38,0,0,0,17,"[0, 11, 28, 16, 15, 4, 20, 17]",8,1,[19],38.74713459,22039,2434,1,0,9,4.030739410625113
basic,46,38,0,0,1,19,"[0, 11, 28, 16, 15, 4, 20, 17, 19]",9,0,[],17.36957626,23023,984,1,0,9,3.511004666623391
basic,46,38,0,1,1,19,"[0, 11, 28, 16, 15, 4, 20, 17, 19]",9,0,[],17.36957626,24982,1959,1,0,9,3.511004666623391
basic,47,26,0,0,0,0,[0],1,29,"[1, 2, 3, 4, 5, 6, 7, 8, 9, 10, 11, 12, 13, 14, 15, 16, 17, 18, 19, 20, 21, 22, 23, 24, 25, 26, 27, 28, 29]",300,114,-1,9,226,9,0.0
basic,47,26,0,0,0,10,"[0, 10]",2,6,"[4, 6, 14, 16, 17, 29]",138.1822012,3510,3396,9,66,7,1.0
basic,47,26,0,0,0,6,"[0, 10, 6]",3,5,"[4, 14, 16, 17, 29]",108.9076389,4553,1043,8,23,7,1.1897813099332413
basic,47,26,0,0,0,14,"[0, 10, 6, 14]",4,4,"[4, 16, 17, 29]",87.88384285,5480,927,4,6,7,1.3162481558218453
basic,47,26,0,0,0,17,"[0, 10, 6, 14, 17]",5,3,"[4, 16, 29]",65.41163779,6420,940,3,1,7,1.6510075497064465
basic,47,26,0,0,0,4,"[0, 10, 6, 14, 17, 4]",6,1,[29],44.31661468,7014,594,1,0,7,2.1095586782058087
basic,47,26,0,0,1,29,"[0, 10, 6, 14, 17, 4, 29]",7,0,[],20.31661468,10354,3340,1,0,7,2.288952413143475
basic,47,26,0,1,1,29,"[0, 10, 6, 14, 17, 4, 29]",7,0,[],20.31661468,12498,2144,1,0,7,2.288952413143475
basic,48,16,0,0,0,0,[0],1,29,"[1, 2, 3, 4, 5, 6, 7, 8, 9, 10, 11, 12, 13, 14, 15, 16, 17, 18, 19, 20, 21, 22, 23, 24, 25, 26, 27, 28, 29]",300,131,-1,13,161,9,0.0
basic,48,16,0,0,0,28,"[0, 28]",2,27,"[1, 2, 3, 4, 5, 7, 8, 9, 10, 11, 12, 13, 14, 15, 16, 17, 18, 19, 20, 21, 22, 23, 24, 25, 26, 27, 29]",284.3475242,9322,9191,11,92,9,1.0
basic,48,16,0,0,0,21,"[0, 28, 21]",3,26,"[1, 2, 3, 4, 5, 7, 8, 9, 10, 11, 12, 13, 14, 15, 16, 17, 18, 19, 20, 22, 23, 24, 25, 26, 27, 29]",205.0380039,11691,2369,1,25,9,1.1196822789757879
basic,48,16,0,0,0,17,"[0, 28, 21, 17]",4,13,"[1, 8, 11, 12, 14, 16, 20, 22, 23, 24, 25, 26, 27]",146.728485,12818,1127,4,15,7,2.6113605388159473
basic,48,16,0,0,0,16,"[0, 28, 21, 17, 16]",5,6,"[8, 12, 14, 20, 23, 25]",118.4088805,13688,870,3,4,7,2.197435061498762
basic,48,16,0,0,0,8,"[0, 28, 21, 17, 16, 8]",6,2,"[20, 25]",70.03533397,14690,1002,2,0,7,1.854011235539654
basic,48,16,0,0,1,20,"[0, 28, 21, 17, 16, 8, 20]",7,0,[],12.25990666,16022,1332,1,0,7,1.5902097438938372
basic,48,16,0,1,1,20,"[0, 28, 21, 17, 16, 8, 20]",7,0,[],12.25990666,19398,3376,1,0,7,1.5902097438938372
basic,49,45,0,0,0,0,[0],1,24,"[1, 2, 3, 4, 5, 6, 7, 9, 10, 11, 12, 14, 15, 16, 17, 19, 20, 21, 22, 23, 24, 25, 27, 29]",300,113,-1,6,248,10,0.0
basic,49,45,0,0,0,15,"[0, 15]",2,23,"[1, 2, 3, 4, 5, 6, 7, 9, 10, 11, 12, 14, 16, 17, 19, 20, 21, 22, 23, 24, 25, 27, 29]",253.9022777,5042,4929,5,207,10,1.0
basic,49,45,0,0,0,23,"[0, 15, 23]",3,22,"[1, 2, 3, 4, 5, 6, 7, 9, 10, 11, 12, 14, 16, 17, 19, 20, 21, 22, 24, 25, 27, 29]",230.3014303,5807,765,5,163,10,1.0006068457769497
basic,49,45,0,0,0,20,"[0, 15, 23, 20]",4,19,"[1, 2, 3, 5, 6, 7, 9, 10, 11, 12, 14, 16, 17, 19, 21, 22, 24, 25, 29]",188.8647316,7163,1356,5,137,10,1.2062119754673604
basic,49,45,0,0,0,10,"[0, 15, 23, 20, 10]",5,12,"[2, 3, 6, 7, 9, 12, 14, 17, 22, 24, 25, 29]",132.784432,8487,1324,1,54,10,1.1363907740691004
basic,49,45,0,0,0,6,"[0, 15, 23, 20, 10, 6]",6,7,"[2, 3, 7, 12, 22, 24, 29]",106.5356225,9922,1435,20,9,9,1.12325622461992
basic,49,45,0,0,0,12,"[0, 15, 23, 20, 10, 6, 12]",7,4,"[2, 3, 22, 29]",86.4110107,10623,701,6,1,9,1.1241525752631578
basic,49,45,0,0,0,29,"[0, 15, 23, 20, 10, 6, 12, 29]",8,2,"[2, 3]",40.02135668,11505,882,2,0,9,1.6141826954191831
basic,49,45,0,0,1,3,"[0, 15, 23, 20, 10, 6, 12, 29, 3]",9,0,[],20.02135668,12447,942,1,0,9,1.560744757715201
basic,49,45,0,1,1,3,"[0, 15, 23, 20, 10, 6, 12, 29, 3]",9,0,[],20.02135668,14680,2233,1,0,9,1.560744757715201
basic,50,29,0,0,0,0,[0],1,29,"[1, 2, 3, 4, 5, 6, 7, 8, 9, 10, 11, 12, 13, 14, 15, 16, 17, 18, 19, 20, 21, 22, 23, 24, 25, 26, 27, 28, 29]",300,130,-1,1,78,9,0.0
basic,50,29,0,0,0,6,"[0, 6]",2,28,"[1, 2, 3, 4, 5, 7, 8, 9, 10, 11, 12, 13, 14, 15, 16, 17, 18, 19, 20, 21, 22, 23, 24, 25, 26, 27, 28, 29]",228.4108947,10408,10278,1,25,9,1.0
basic,50,29,0,0,0,28,"[0, 6, 28]",3,24,"[1, 3, 4, 5, 7, 9, 10, 11, 12, 13, 14, 15, 16, 17, 18, 20, 21, 22, 23, 24, 25, 26, 27, 29]",187.1798384,11478,1070,1,22,9,1.162106788166845
basic,50,29,0,0,0,27,"[0, 6, 28, 27]",4,19,"[1, 3, 4, 5, 7, 9, 10, 11, 12, 13, 14, 15, 16, 21, 22, 23, 25, 26, 29]",166.6615539,12303,825,1,21,9,1.2307173895439045
basic,50,29,0,0,0,22,"[0, 6, 28, 27, 22]",5,13,"[1, 3, 4, 5, 7, 9, 12, 13, 14, 15, 21, 26, 29]",133.4200136,13358,1055,1,19,9,1.4241767805149903
basic,50,29,0,0,0,12,"[0, 6, 28, 27, 22, 12]",6,8,"[4, 5, 7, 9, 13, 14, 21, 26]",95.4726817,14704,1346,1,6,9,1.3248355326460857
basic,50,29,0,0,0,7,"[0, 6, 28, 27, 22, 12, 7]",7,4,"[4, 5, 9, 21]",81.87121119,15686,982,1,3,9,1.3264091962339806
basic,50,29,0,0,0,9,"[0, 6, 28, 27, 22, 12, 7, 9]",8,1,[4],52.80232748,18428,2742,1,0,9,1.309391257644539
basic,50,29,0,0,1,4,"[0, 6, 28, 27, 22, 12, 7, 9, 4]",9,0,[],11.76575843,19626,1198,1,0,9,1.6396807789841599
basic,50,29,0,1,1,4,"[0, 6, 28, 27, 22, 12, 7, 9, 4]",9,0,[],11.76575843,21580,1954,1,0,9,1.6396807789841599
basic,51,20,0,0,0,0,[0],1,21,"[1, 2, 3, 4, 5, 6, 7, 8, 9, 12, 17, 18, 20, 21, 22, 23, 25, 26, 27, 28, 29]",300,115,-1,1,9,9,0.0
basic,51,20,0,0,0,12,"[0, 12]",2,20,"[1, 2, 3, 4, 5, 6, 7, 8, 9, 17, 18, 20, 21, 22, 23, 25, 26, 27, 28, 29]",271.5570747,4079,3964,1,8,9,1.0
basic,51,20,0,0,0,1,"[0, 12, 1]",3,12,"[3, 4, 5, 6, 8, 9, 20, 21, 23, 27, 28, 29]",189.5692707,5406,1327,1,6,9,1.0757997779162911
basic,51,20,0,0,0,5,"[0, 12, 1, 5]",4,10,"[4, 6, 8, 9, 20, 21, 23, 27, 28, 29]",152.8950291,6574,1168,1,5,9,1.1708231454516806
basic,51,20,0,0,0,8,"[0, 12, 1, 5, 8]",5,6,"[6, 9, 21, 23, 27, 28]",93.43075409,8791,2217,1,8,8,1.1236883136722313
basic,51,20,0,0,0,23,"[0, 12, 1, 5, 8, 23]",6,2,"[6, 9]",48.74294815,9892,1101,1,1,8,1.1030554610648977
basic,51,20,0,0,0,9,"[0, 12, 1, 5, 8, 23, 9]",7,1,[6],29.53357544,11082,1190,1,0,8,1.0965255541175696
basic,51,20,0,0,1,6,"[0, 12, 1, 5, 8, 23, 9, 6]",8,0,[],6.511846569,12060,978,1,0,8,1.1073053837461198
basic,51,20,0,1,1,6,"[0, 12, 1, 5, 8, 23, 9, 6]",8,0,[],6.511846569,13897,1837,1,0,8,1.1073053837461198
basic,52,8,0,0,0,0,[0],1,29,"[1, 2, 3, 4, 5, 6, 7, 8, 9, 10, 11, 12, 13, 14, 15, 16, 17, 18, 19, 20, 21, 22, 23, 24, 25, 26, 27, 28, 29]",300,132,-1,10,149,9,0.0
basic,52,8,0,0,0,5,"[0, 5]",2,28,"[1, 2, 3, 4, 6, 7, 8, 9, 10, 11, 12, 13, 14, 15, 16, 17, 18, 19, 20, 21, 22, 23, 24, 25, 26, 27, 28, 29]",254.5137383,4344,4212,10,100,9,1.0
basic,52,8,0,0,0,14,"[0, 5, 14]",3,20,"[1, 2, 3, 4, 6, 7, 11, 15, 16, 17, 18, 19, 20, 21, 22, 23, 24, 25, 28, 29]",214.5512559,5774,1430,4,36,9,1.0001019035932595
basic,52,8,0,0,0,17,"[0, 5, 14, 17]",4,15,"[1, 4, 6, 7, 11, 15, 16, 18, 19, 20, 22, 23, 24, 25, 28]",177.5377449,6974,1200,4,16,9,1.121197267659591
basic,52,8,0,0,0,11,"[0, 5, 14, 17, 11]",5,11,"[1, 4, 15, 16, 18, 19, 22, 23, 24, 25, 28]",152.3583883,7915,941,4,8,9,1.1277254166016362
basic,52,8,0,0,0,24,"[0, 5, 14, 17, 11, 24]",6,3,"[15, 16, 28]",115.1428001,9131,1216,2,2,9,1.1227411011978805
basic,52,8,0,0,0,15,"[0, 5, 14, 17, 11, 24, 15]",7,2,"[16, 28]",98.37974552,10057,926,2,0,9,1.1956385406066814
basic,52,8,0,0,0,16,"[0, 5, 14, 17, 11, 24, 15, 16]",8,1,[28],47.30137436,11613,1556,1,0,9,1.36482239111247
basic,52,8,0,0,1,28,"[0, 5, 14, 17, 11, 24, 15, 16, 28]",9,0,[],24.94069458,12671,1058,1,0,9,1.632953105226947
basic,52,8,0,1,1,28,"[0, 5, 14, 17, 11, 24, 15, 16, 28]",9,0,[],24.94069458,14332,1661,1,0,9,1.632953105226947
basic,53,10,0,0,0,0,[0],1,29,"[1, 2, 3, 4, 5, 6, 7, 8, 9, 10, 11, 12, 13, 14, 15, 16, 17, 18, 19, 20, 21, 22, 23, 24, 25, 26, 27, 28, 29]",300,130,-1,1,100,9,0.0
basic,53,10,0,0,0,13,"[0, 13]",2,25,"[1, 2, 3, 4, 6, 7, 8, 9, 10, 11, 12, 14, 17, 18, 19, 20, 21, 22, 23, 24, 25, 26, 27, 28, 29]",249.4628849,5510,5380,1,79,9,1.0
basic,53,10,0,0,0,19,"[0, 13, 19]",3,12,"[2, 6, 8, 9, 10, 11, 14, 18, 20, 24, 26, 27]",180.5861835,6789,1279,11,79,8,1.0000581961988606
basic,53,10,0,0,0,2,"[0, 13, 19, 2]",4,5,"[11, 14, 20, 26, 27]",136.6771867,7869,1080,3,9,8,1.000456581399483
basic,53,10,0,0,0,14,"[0, 13, 19, 2, 14]",5,4,"[11, 20, 26, 27]",124.5116616,8510,641,3,6,8,1.0972737011325653
basic,53,10,0,0,0,26,"[0, 13, 19, 2, 14, 26]",6,3,"[11, 20, 27]",89.84178999,9821,1311,3,1,8,1.5868342521575007
basic,53,10,0,0,0,11,"[0, 13, 19, 2, 14, 26, 11]",7,1,[20],48.08056395,11726,1905,1,0,8,2.7772471764176028
basic,53,10,0,0,1,20,"[0, 13, 19, 2, 14, 26, 11, 20]",8,0,[],10.00169842,12804,1078,1,0,8,2.3959438836221785
basic,53,10,0,1,1,20,"[0, 13, 19, 2, 14, 26, 11, 20]",8,0,[],10.00169842,14497,1693,1,0,8,2.3959438836221785
basic,54,39,0,0,0,0,[0],1,28,"[1, 2, 3, 4, 5, 6, 7, 9, 10, 11, 12, 13, 14, 15, 16, 17, 18, 19, 20, 21, 22, 23, 24, 25, 26, 27, 28, 29]",300,131,-1,1,30,10,0.0
basic,54,39,0,0,0,14,"[0, 14]",2,26,"[1, 2, 3, 4, 5, 6, 7, 9, 10, 12, 13, 15, 16, 17, 18, 19, 20, 21, 22, 23, 24, 25, 26, 27, 28, 29]",286.9615952,6627,6496,1,22,10,1.0
basic,54,39,0,0,0,29,"[0, 14, 29]",3,23,"[1, 2, 3, 4, 5, 6, 7, 9, 10, 12, 13, 15, 16, 17, 18, 19, 21, 22, 23, 24, 25, 26, 28]",218.9321898,11522,4895,1,21,10,1.4237768813412561
basic,54,39,0,0,0,12,"[0, 14, 29, 12]",4,16,"[1, 2, 4, 5, 7, 9, 10, 13, 15, 16, 18, 19, 22, 23, 24, 26]",158.3929463,12710,1188,1,11,10,1.2085522586932163
basic,54,39,0,0,0,10,"[0, 14, 29, 12, 10]",5,11,"[1, 4, 5, 7, 15, 16, 18, 19, 22, 23, 26]",122.8823845,13693,983,1,8,10,1.4905426536315662
basic,54,39,0,0,0,7,"[0, 14, 29, 12, 10, 7]",6,6,"[1, 16, 18, 19, 22, 26]",89.46083457,14621,928,1,6,10,1.3836596018032035
basic,54,39,0,0,0,26,"[0, 14, 29, 12, 10, 7, 26]",7,3,"[16, 19, 22]",70.77929288,15476,855,1,4,10,1.4191124441944845
basic,54,39,0,0,0,22,"[0, 14, 29, 12, 10, 7, 26, 22]",8,2,"[16, 19]",53.05924773,16269,793,1,1,10,1.594793297833885
basic,54,39,0,0,0,16,"[0, 14, 29, 12, 10, 7, 26, 22, 16]",9,1,[19],18.05924773,17136,867,1,0,10,1.48519520801471
basic,54,39,0,0,1,19,"[0, 14, 29, 12, 10, 7, 26, 22, 16, 19]",10,0,[],0.594998533,18820,1684,1,0,10,1.484277847976571
basic,54,39,0,1,1,19,"[0, 14, 29, 12, 10, 7, 26, 22, 16, 19]",10,0,[],0.594998533,23381,4561,1,0,10,1.484277847976571
basic,55,35,0,0,0,0,[0],1,29,"[1, 2, 3, 4, 5, 6, 7, 8, 9, 10, 11, 12, 13, 14, 15, 16, 17, 18, 19, 20, 21, 22, 23, 24, 25, 26, 27, 28, 29]",300,114,-1,5,236,11,0.0
basic,55,35,0,0,0,24,"[0, 24]",2,27,"[1, 2, 4, 5, 6, 7, 8, 9, 10, 11, 12, 13, 14, 15, 16, 17, 18, 19, 20, 21, 22, 23, 25, 26, 27, 28, 29]",268.9838752,6773,6659,49,512,10,1.0
basic,55,35,0,0,0,17,"[0, 24, 17]",3,26,"[1, 2, 4, 5, 6, 7, 8, 9, 10, 11, 12, 13, 14, 15, 16, 18, 19, 20, 21, 22, 23, 25, 26, 27, 28, 29]",257.2791753,7670,897,33,238,10,1.0771477201815276
basic,55,35,0,0,0,1,"[0, 24, 17, 1]",4,25,"[2, 4, 5, 6, 7, 8, 9, 10, 11, 12, 13, 14, 15, 16, 18, 19, 20, 21, 22, 23, 25, 26, 27, 28, 29]",241.4677869,8345,675,26,151,10,1.2244804141479215
basic,55,35,0,0,0,9,"[0, 24, 17, 1, 9]",5,13,"[2, 4, 5, 6, 15, 18, 19, 23, 25, 26, 27, 28, 29]",171.9408138,9520,1175,23,25,9,1.1391705391673446
basic,55,35,0,0,0,18,"[0, 24, 17, 1, 9, 18]",6,9,"[4, 5, 6, 15, 19, 23, 25, 27, 28]",151.9158294,10524,1004,11,8,9,1.1512300765384265
basic,55,35,0,0,0,25,"[0, 24, 17, 1, 9, 18, 25]",7,3,"[5, 6, 23]",118.0779807,11477,953,4,1,9,1.1233821517043756
basic,55,35,0,0,0,6,"[0, 24, 17, 1, 9, 18, 25, 6]",8,2,"[5, 23]",94.05715644,12485,1008,2,0,9,1.3618604674216885
basic,55,35,0,0,1,23,"[0, 24, 17, 1, 9, 18, 25, 6, 23]",9,0,[],48.4063076,13557,1072,1,0,9,2.3663755774656274
basic,55,35,0,1,1,23,"[0, 24, 17, 1, 9, 18, 25, 6, 23]",9,0,[],48.4063076,17531,3974,1,0,9,2.3663755774656274
basic,56,41,0,0,0,0,[0],1,29,"[1, 2, 3, 4, 5, 6, 7, 8, 9, 10, 11, 12, 13, 14, 15, 16, 17, 18, 19, 20, 21, 22, 23, 24, 25, 26, 27, 28, 29]",300,130,-1,1,143,10,0.0
basic,56,41,0,0,0,21,"[0, 21]",2,28,"[1, 2, 3, 4, 5, 6, 7, 8, 9, 10, 11, 12, 13, 14, 15, 16, 17, 18, 19, 20, 22, 23, 24, 25, 26, 27, 28, 29]",251.1226024,10920,10790,50,469,8,1.0
basic,56,41,0,0,0,9,"[0, 21, 9]",3,23,"[1, 2, 3, 4, 5, 6, 10, 11, 12, 13, 14, 15, 17, 18, 19, 20, 22, 24, 25, 26, 27, 28, 29]",201.7566222,13088,2168,12,83,8,1.1938363858739158
basic,56,41,0,0,0,2,"[0, 21, 9, 2]",4,19,"[1, 3, 5, 6, 10, 12, 13, 14, 15, 17, 19, 20, 22, 24, 25, 26, 27, 28, 29]",189.6735762,13521,433,11,41,8,1.2193929245264608
basic,56,41,0,0,0,14,"[0, 21, 9, 2, 14]",5,6,"[1, 12, 15, 17, 19, 26]",121.8945234,14678,1157,2,4,7,1.125537869200552
basic,56,41,0,0,0,15,"[0, 21, 9, 2, 14, 15]",6,1,[1],93.03278401,15593,915,1,0,7,1.1328643453259997
basic,56,41,0,0,1,1,"[0, 21, 9, 2, 14, 15, 1]",7,0,[],24.68075405,18640,3047,1,0,7,1.8025549376504926
basic,56,41,0,1,1,1,"[0, 21, 9, 2, 14, 15, 1]",7,0,[],24.68075405,20447,1807,1,0,7,1.8025549376504926
basic,57,40,0,0,0,0,[0],1,29,"[1, 2, 3, 4, 5, 6, 7, 8, 9, 10, 11, 12, 13, 14, 15, 16, 17, 18, 19, 20, 21, 22, 23, 24, 25, 26, 27, 28, 29]",300,149,-1,8,191,9,0.0
basic,57,40,0,0,0,2,"[0, 2]",2,28,"[1, 3, 4, 5, 6, 7, 8, 9, 10, 11, 12, 13, 14, 15, 16, 17, 18, 19, 20, 21, 22, 23, 24, 25, 26, 27, 28, 29]",263.7646581,6340,6191,4,79,9,1.0
basic,57,40,0,0,0,19,"[0, 2, 19]",3,22,"[1, 5, 6, 7, 8, 9, 10, 11, 13, 14, 15, 17, 18, 20, 21, 22, 23, 24, 25, 26, 27, 29]",194.4249148,10956,4616,19,105,8,1.02908296307533
basic,57,40,0,0,0,23,"[0, 2, 19, 23]",4,15,"[1, 5, 6, 7, 8, 9, 10, 11, 13, 17, 18, 21, 22, 27, 29]",162.4718242,12164,1208,11,38,8,1.4499965171787688
basic,57,40,0,0,0,5,"[0, 2, 19, 23, 5]",5,10,"[1, 6, 7, 8, 9, 11, 18, 21, 22, 27]",134.1698808,13106,942,4,12,8,1.3483906154476113
basic,57,40,0,0,0,18,"[0, 2, 19, 23, 5, 18]",6,5,"[1, 6, 9, 21, 22]",102.594574,13841,735,3,3,8,1.6664768989460201
basic,57,40,0,0,0,9,"[0, 2, 19, 23, 5, 18, 9]",7,2,"[6, 21]",86.04162866,14443,602,2,0,8,1.7348609689602368
basic,57,40,0,0,1,6,"[0, 2, 19, 23, 5, 18, 9, 6]",8,0,[],17.44133712,16478,2035,1,0,8,4.090330581792032
basic,57,40,0,1,1,6,"[0, 2, 19, 23, 5, 18, 9, 6]",8,0,[],17.44133712,18699,2221,1,0,8,4.090330581792032
basic,58,4,0,0,0,0,[0],1,26,"[3, 4, 5, 6, 7, 8, 10, 11, 12, 13, 14, 15, 16, 17, 18, 19, 20, 21, 22, 23, 24, 25, 26, 27, 28, 29]",300,114,-1,4,489,10,0.0
basic,58,4,0,0,0,28,"[0, 28]",2,21,"[3, 4, 5, 6, 10, 11, 12, 13, 14, 15, 16, 17, 19, 20, 21, 22, 23, 24, 25, 26, 27]",225.9392142,5523,5409,2,216,10,1.0
basic,58,4,0,0,0,14,"[0, 28, 14]",3,13,"[3, 4, 5, 6, 11, 13, 16, 17, 20, 21, 22, 24, 25]",159.6972335,7401,1878,1,26,10,1.0273973946789214
basic,58,4,0,0,0,25,"[0, 28, 14, 25]",4,12,"[3, 4, 5, 6, 11, 13, 16, 17, 20, 21, 22, 24]",143.572718,8553,1152,1,25,10,1.233547772313525
basic,58,4,0,0,0,11,"[0, 28, 14, 25, 11]",5,10,"[3, 4, 5, 6, 13, 16, 17, 20, 21, 22]",124.7844238,9322,769,1,15,10,1.425978575879479
basic,58,4,0,0,0,16,"[0, 28, 14, 25, 11, 16]",6,9,"[3, 4, 5, 6, 13, 17, 20, 21, 22]",109.7844238,10442,1120,1,12,10,1.3799325158051412
basic,58,4,0,0,0,3,"[0, 28, 14, 25, 11, 16, 3]",7,2,"[17, 20]",68.15510719,11970,1528,1,1,9,1.3292844629725955
basic,58,4,0,0,0,17,"[0, 28, 14, 25, 11, 16, 3, 17]",8,1,[20],43.63980585,12905,935,1,0,9,1.5639571149270572
basic,58,4,0,0,1,20,"[0, 28, 14, 25, 11, 16, 3, 17, 20]",9,0,[],3.415435124,15303,2398,1,0,9,1.6231058358944275
basic,58,4,0,1,1,20,"[0, 28, 14, 25, 11, 16, 3, 17, 20]",9,0,[],3.415435124,17097,1794,1,0,9,1.6231058358944275
basic,59,2,0,0,0,0,[0],1,23,"[1, 2, 4, 5, 6, 7, 8, 9, 12, 13, 15, 16, 17, 18, 19, 20, 22, 23, 25, 26, 27, 28, 29]",300,131,-1,70,620,10,0.0
basic,59,2,0,0,0,12,"[0, 12]",2,19,"[1, 2, 4, 5, 6, 7, 13, 15, 16, 17, 18, 19, 20, 22, 25, 26, 27, 28, 29]",186.8275652,8205,8074,3,169,10,1.0
basic,59,2,0,0,0,5,"[0, 12, 5]",3,14,"[1, 4, 6, 7, 13, 15, 16, 18, 19, 22, 25, 26, 28, 29]",157.2979191,9942,1737,2,88,10,1.0082498134695237
basic,59,2,0,0,0,22,"[0, 12, 5, 22]",4,11,"[1, 6, 7, 13, 15, 18, 19, 25, 26, 28, 29]",144.4916706,10805,863,1,45,10,1.0077567572950326
basic,59,2,0,0,0,13,"[0, 12, 5, 22, 13]",5,9,"[1, 6, 7, 15, 18, 19, 25, 26, 29]",129.6256019,11484,679,1,39,10,1.151783231594989
basic,59,2,0,0,0,18,"[0, 12, 5, 22, 13, 18]",6,4,"[7, 15, 26, 29]",94.45459106,12469,985,1,14,10,1.1431544953850095
basic,59,2,0,0,0,7,"[0, 12, 5, 22, 13, 18, 7]",7,3,"[15, 26, 29]",84.15896092,13493,1024,1,4,10,1.1360054688421053
basic,59,2,0,0,0,15,"[0, 12, 5, 22, 13, 18, 7, 15]",8,2,"[26, 29]",69.39413786,19294,5801,2,0,9,1.2242392448275679
basic,59,2,0,0,1,29,"[0, 12, 5, 22, 13, 18, 7, 15, 29]",9,0,[],40.93363892,20447,1153,1,0,9,1.4112243925575212
basic,59,2,0,1,1,29,"[0, 12, 5, 22, 13, 18, 7, 15, 29]",9,0,[],40.93363892,23181,2734,1,0,9,1.4112243925575212
basic,60,25,0,0,0,0,[0],1,28,"[1, 2, 3, 4, 5, 7, 8, 9, 10, 11, 12, 13, 14, 15, 16, 17, 18, 19, 20, 21, 22, 23, 24, 25, 26, 27, 28, 29]",300,113,-1,5,94,10,0.0
basic,60,25,0,0,0,23,"[0, 23]",2,23,"[1, 2, 3, 5, 7, 8, 9, 11, 12, 13, 14, 16, 17, 19, 20, 21, 22, 24, 25, 26, 27, 28, 29]",259.7756293,5529,5416,3,33,10,1.0
basic,60,25,0,0,0,19,"[0, 23, 19]",3,21,"[1, 2, 3, 5, 7, 8, 9, 11, 12, 13, 14, 16, 17, 20, 21, 22, 24, 25, 27, 28, 29]",223.9287326,6493,964,3,24,10,1.583101227007039
basic,60,25,0,0,0,29,"[0, 23, 19, 29]",4,19,"[1, 2, 3, 5, 7, 8, 9, 11, 12, 13, 14, 16, 17, 20, 21, 22, 24, 25, 28]",207.649912,7591,1098,3,17,10,1.474631541426484
basic,60,25,0,0,0,22,"[0, 23, 19, 29, 22]",5,18,"[1, 2, 3, 5, 7, 8, 9, 11, 12, 13, 14, 16, 17, 20, 21, 24, 25, 28]",191.5253965,8569,978,3,14,10,1.4020377754906637
basic,60,25,0,0,0,7,"[0, 23, 19, 29, 22, 7]",6,7,"[3, 8, 9, 11, 13, 24, 28]",115.8814939,10086,1517,3,11,10,1.5709678649326715
basic,60,25,0,0,0,24,"[0, 23, 19, 29, 22, 7, 24]",7,5,"[3, 8, 9, 13, 28]",91.12265712,10940,854,3,7,10,1.486191600033379
basic,60,25,0,0,0,9,"[0, 23, 19, 29, 22, 7, 24, 9]",8,4,"[3, 8, 13, 28]",73.09490075,12153,1213,3,3,10,1.453504870342882
basic,60,25,0,0,0,3,"[0, 23, 19, 29, 22, 7, 24, 9, 3]",9,3,"[8, 13, 28]",42.82940885,13921,1768,3,0,10,1.388955167525479
basic,60,25,0,0,1,28,"[0, 23, 19, 29, 22, 7, 24, 9, 3, 28]",10,0,[],11.52445716,15454,1533,1,0,10,1.3331084120212044
basic,60,25,0,1,1,28,"[0, 23, 19, 29, 22, 7, 24, 9, 3, 28]",10,0,[],11.52445716,17030,1576,1,0,10,1.3331084120212044
basic,61,21,0,0,0,0,[0],1,29,"[1, 2, 3, 4, 5, 6, 7, 8, 9, 10, 11, 12, 13, 14, 15, 16, 17, 18, 19, 20, 21, 22, 23, 24, 25, 26, 27, 28, 29]",300,130,-1,84,830,9,0.0
basic,61,21,0,0,0,21,"[0, 21]",2,22,"[1, 3, 4, 6, 8, 9, 10, 11, 12, 14, 15, 16, 17, 18, 20, 22, 23, 24, 25, 26, 27, 29]",210.1111798,4812,4682,1,69,9,1.0
basic,61,21,0,0,0,14,"[0, 21, 14]",3,15,"[1, 4, 6, 8, 9, 15, 16, 17, 18, 20, 22, 23, 24, 25, 29]",184.4986828,5783,971,35,96,8,1.0083702391721483
basic,61,21,0,0,0,4,"[0, 21, 14, 4]",4,13,"[1, 8, 9, 15, 16, 17, 18, 20, 22, 23, 24, 25, 29]",170.3565472,6603,820,20,39,8,1.0135821167776475
basic,61,21,0,0,0,16,"[0, 21, 14, 4, 16]",5,7,"[8, 15, 17, 23, 24, 25, 29]",125.758341,7741,1138,4,6,8,1.0675217597413178
basic,61,21,0,0,0,8,"[0, 21, 14, 4, 16, 8]",6,3,"[15, 23, 24]",107.1572657,8536,795,3,1,8,1.0643903127717425
basic,61,21,0,0,0,15,"[0, 21, 14, 4, 16, 8, 15]",7,2,"[23, 24]",82.15726573,10907,2371,2,0,8,1.29402645910376
basic,61,21,0,0,1,23,"[0, 21, 14, 4, 16, 8, 15, 23]",8,0,[],10.28933129,12435,1528,1,0,8,2.9257734162199216
basic,61,21,0,1,1,23,"[0, 21, 14, 4, 16, 8, 15, 23]",8,0,[],10.28933129,13863,1428,1,0,8,2.9257734162199216
basic,62,36,0,0,0,0,[0],1,24,"[2, 4, 5, 6, 7, 8, 9, 10, 12, 13, 14, 15, 16, 17, 18, 19, 20, 22, 23, 25, 26, 27, 28, 29]",300,131,-1,2,200,10,0.0
basic,62,36,0,0,0,16,"[0, 16]",2,12,"[2, 8, 9, 10, 12, 13, 17, 18, 19, 23, 25, 27]",193.262003,7776,7645,20,112,8,1.0
basic,62,36,0,0,0,17,"[0, 16, 17]",3,10,"[2, 9, 10, 12, 13, 18, 19, 23, 25, 27]",164.9423985,8673,897,14,64,8,1.4289609665642613
basic,62,36,0,0,0,9,"[0, 16, 17, 9]",4,8,"[2, 10, 12, 13, 18, 19, 23, 25]",138.693589,9554,881,6,21,8,2.335567583937715
basic,62,36,0,0,0,19,"[0, 16, 17, 9, 19]",5,6,"[2, 10, 12, 13, 18, 25]",123.5608431,10296,742,6,5,8,2.2891022786553017
basic,62,36,0,0,0,13,"[0, 16, 17, 9, 19, 13]",6,4,"[2, 10, 12, 25]",80.14425636,11822,1526,2,2,8,2.2415595442424334
basic,62,36,0,0,0,2,"[0, 16, 17, 9, 19, 13, 2]",7,1,[25],41.81672057,13354,1532,1,0,8,2.2862406009450678
basic,62,36,0,0,1,25,"[0, 16, 17, 9, 19, 13, 2, 25]",8,0,[],16.81672057,14872,1518,1,0,8,2.473428670039687
basic,62,36,0,1,1,25,"[0, 16, 17, 9, 19, 13, 2, 25]",8,0,[],16.81672057,16364,1492,1,0,8,2.473428670039687
basic,63,9,0,0,0,0,[0],1,27,"[1, 3, 4, 5, 6, 7, 8, 9, 10, 11, 13, 14, 15, 16, 17, 18, 19, 20, 21, 22, 23, 24, 25, 26, 27, 28, 29]",300,130,-1,2,182,10,0.0
basic,63,9,0,0,0,8,"[0, 8]",2,25,"[1, 3, 4, 5, 6, 7, 9, 10, 11, 13, 14, 15, 16, 17, 18, 19, 20, 21, 22, 23, 24, 25, 26, 27, 28]",236.2191251,7407,7277,2,102,9,1.0
basic,63,9,0,0,0,28,"[0, 8, 28]",3,23,"[1, 3, 4, 5, 6, 7, 9, 10, 11, 13, 15, 16, 17, 18, 19, 20, 21, 22, 23, 24, 25, 26, 27]",225.4024713,8073,666,2,52,9,1.0043219354187498
basic,63,9,0,0,0,5,"[0, 8, 28, 5]",4,4,"[1, 13, 19, 24]",63.79492197,13609,5536,2,4,7,1.0609344016169635
basic,63,9,0,0,0,13,"[0, 8, 28, 5, 13]",5,2,"[1, 24]",48.53058445,18587,4978,2,0,7,1.079904602424511
basic,63,9,0,0,0,1,"[0, 8, 28, 5, 13, 1]",6,1,[24],29.32121173,19589,1002,1,0,7,1.1059266212374836
basic,63,9,0,0,1,24,"[0, 8, 28, 5, 13, 1, 24]",7,0,[],8.321211734,20659,1070,1,0,7,1.1680147083746522
basic,63,9,0,1,1,24,"[0, 8, 28, 5, 13, 1, 24]",7,0,[],8.321211734,22364,1705,1,0,7,1.1680147083746522
basic,64,30,0,0,0,0,[0],1,19,"[3, 4, 5, 7, 9, 11, 16, 17, 18, 19, 20, 21, 22, 24, 25, 26, 27, 28, 29]",300,130,-1,5,41,8,0.0
basic,64,30,0,0,0,27,"[0, 27]",2,10,"[3, 5, 7, 9, 18, 19, 20, 24, 25, 29]",90.59608409,7221,7091,7,22,6,1.0
basic,64,30,0,0,0,3,"[0, 27, 3]",3,8,"[5, 7, 18, 19, 20, 24, 25, 29]",71.49111091,8007,786,5,9,6,1.0022223300201003
basic,64,30,0,0,0,29,"[0, 27, 3, 29]",4,5,"[5, 7, 18, 19, 20]",52.89003567,10136,2129,2,3,6,1.0149900937654948
basic,64,30,0,0,1,7,"[0, 27, 3, 29, 7]",5,0,[],13.77482124,12560,2424,1,0,5,1.018105096727625
basic,64,30,0,1,1,7,"[0, 27, 3, 29, 7]",5,0,[],13.77482124,14897,2337,1,0,5,1.018105096727625
basic,65,0,0,0,0,0,[0],1,27,"[2, 3, 4, 5, 6, 7, 8, 9, 10, 11, 12, 13, 14, 15, 16, 17, 19, 20, 21, 22, 23, 24, 25, 26, 27, 28, 29]",300,131,-1,104,1136,9,0.0
basic,65,0,0,0,0,5,"[0, 5]",2,24,"[2, 3, 4, 7, 8, 9, 11, 12, 13, 14, 15, 16, 17, 19, 20, 21, 22, 23, 24, 25, 26, 27, 28, 29]",164.5156836,4678,4547,5,112,9,1.0
basic,65,0,0,0,0,4,"[0, 5, 4]",3,20,"[2, 3, 7, 8, 9, 11, 12, 13, 14, 15, 17, 19, 20, 21, 22, 23, 24, 25, 26, 28]",139.4358112,5552,874,4,61,9,1.0257023158632692
basic,65,0,0,0,0,24,"[0, 5, 4, 24]",4,17,"[2, 3, 7, 8, 9, 11, 12, 14, 15, 17, 19, 20, 22, 23, 25, 26, 28]",128.0340569,7184,1632,34,99,8,1.030771580363297
basic,65,0,0,0,0,26,"[0, 5, 4, 24, 26]",5,13,"[3, 7, 8, 9, 11, 12, 14, 15, 17, 19, 20, 23, 28]",110.9168141,8107,923,17,27,8,1.1703955383098288
basic,65,0,0,0,0,3,"[0, 5, 4, 24, 26, 3]",6,5,"[7, 8, 17, 19, 23]",52.90819409,10572,2465,2,3,8,1.139931429468396
basic,65,0,0,0,0,7,"[0, 5, 4, 24, 26, 3, 7]",7,1,[8],28.82500493,11447,875,1,0,8,1.3227419052584588
basic,65,0,0,0,1,8,"[0, 5, 4, 24, 26, 3, 7, 8]",8,0,[],9.720031756,13757,2310,1,0,8,1.3048432401111032
basic,65,0,0,1,1,8,"[0, 5, 4, 24, 26, 3, 7, 8]",8,0,[],9.720031756,15948,2191,1,0,8,1.3048432401111032
basic,66,33,0,0,0,0,[0],1,23,"[1, 2, 5, 7, 8, 11, 12, 13, 14, 15, 16, 17, 18, 19, 20, 21, 23, 24, 25, 26, 27, 28, 29]",300,115,-1,5,108,9,0.0
basic,66,33,0,0,0,8,"[0, 8]",2,22,"[1, 2, 5, 7, 11, 12, 13, 14, 15, 16, 17, 18, 19, 20, 21, 23, 24, 25, 26, 27, 28, 29]",265.8679037,5342,5227,5,87,9,1.0
basic,66,33,0,0,0,21,"[0, 8, 21]",3,16,"[2, 5, 7, 11, 13, 14, 16, 17, 18, 19, 20, 24, 26, 27, 28, 29]",166.0430571,7478,2136,5,80,9,1.0670557763739492
basic,66,33,0,0,0,13,"[0, 8, 21, 13]",4,12,"[2, 7, 11, 14, 16, 17, 18, 19, 20, 24, 26, 29]",139.6422995,8271,793,4,54,9,1.0555103820910288
basic,66,33,0,0,0,19,"[0, 8, 21, 13, 19]",5,10,"[7, 11, 14, 16, 17, 18, 20, 24, 26, 29]",114.1472019,9237,966,3,19,9,1.1090798607799486
basic,66,33,0,0,0,24,"[0, 8, 21, 13, 19, 24]",6,6,"[7, 14, 16, 18, 26, 29]",72.09960985,10186,949,2,3,9,1.1193530461391534
basic,66,33,0,0,0,7,"[0, 8, 21, 13, 19, 24, 7]",7,2,"[14, 26]",42.89344611,11178,992,2,0,9,1.2065014071663551
basic,66,33,0,0,0,14,"[0, 8, 21, 13, 19, 24, 7, 14]",8,1,[26],28.02737737,11779,601,1,0,9,1.2536495746979057
basic,66,33,0,0,1,26,"[0, 8, 21, 13, 19, 24, 7, 14, 26]",9,0,[],15.37826672,12656,877,1,0,9,1.2580465331304596
basic,66,33,0,1,1,26,"[0, 8, 21, 13, 19, 24, 7, 14, 26]",9,0,[],15.37826672,14864,2208,1,0,9,1.2580465331304596
basic,67,44,0,0,0,0,[0],1,29,"[1, 2, 3, 4, 5, 6, 7, 8, 9, 10, 11, 12, 13, 14, 15, 16, 17, 18, 19, 20, 21, 22, 23, 24, 25, 26, 27, 28, 29]",300,131,-1,13,126,7,0.0
basic,67,44,0,0,0,11,"[0, 11]",2,18,"[4, 5, 6, 7, 8, 9, 12, 14, 16, 17, 19, 20, 22, 23, 24, 25, 26, 28]",152.7790776,6446,6315,5,34,7,1.0
basic,67,44,0,0,0,14,"[0, 11, 14]",3,14,"[4, 5, 6, 7, 9, 12, 16, 17, 19, 22, 23, 24, 26, 28]",120.5765932,7288,842,6,17,6,1.0032424984204007
basic,67,44,0,0,0,24,"[0, 11, 14, 24]",4,4,"[4, 7, 9, 23]",74.92574436,8340,1052,3,2,6,1.4978014171296756
basic,67,44,0,0,0,9,"[0, 11, 14, 24, 9]",5,1,[4],42.16906565,9255,915,1,0,6,1.6248916534242954
basic,67,44,0,0,1,4,"[0, 11, 14, 24, 9, 4]",6,0,[],22.47135004,11858,2603,1,0,6,1.5800842308612977
basic,67,44,0,1,1,4,"[0, 11, 14, 24, 9, 4]",6,0,[],22.47135004,13481,1623,1,0,6,1.5800842308612977
basic,68,23,0,0,0,0,[0],1,28,"[1, 2, 3, 4, 5, 6, 7, 8, 9, 10, 11, 12, 13, 14, 15, 16, 17, 18, 19, 20, 21, 22, 23, 25, 26, 27, 28, 29]",300,114,-1,76,2626,10,0.0
basic,68,23,0,0,0,27,"[0, 27]",2,11,"[2, 6, 7, 9, 10, 12, 13, 14, 18, 22, 29]",156.8217894,6071,5957,6,455,9,1.0
basic,68,23,0,0,0,6,"[0, 27, 6]",3,10,"[2, 7, 9, 10, 12, 13, 14, 18, 22, 29]",128.519846,6980,909,6,168,9,1.1413510010705277
basic,68,23,0,0,0,2,"[0, 27, 6, 2]",4,8,"[7, 9, 12, 13, 14, 18, 22, 29]",110.0807571,8243,1263,3,50,9,1.3917699979429488
basic,68,23,0,0,0,14,"[0, 27, 6, 2, 14]",5,6,"[7, 9, 12, 13, 22, 29]",95.21468831,10036,1793,1,12,9,1.4535117534194508
basic,68,23,0,0,0,9,"[0, 27, 6, 2, 14, 9]",6,5,"[7, 12, 13, 22, 29]",84.7743818,10712,676,1,5,9,1.6473653414995069
basic,68,23,0,0,0,12,"[0, 27, 6, 2, 14, 9, 12]",7,3,"[13, 22, 29]",70.45656074,11856,1144,1,2,9,1.872467511760823
basic,68,23,0,0,0,13,"[0, 27, 6, 2, 14, 9, 12, 13]",8,1,[22],58.37351476,12428,572,1,0,9,2.1831143896555902
basic,68,23,0,0,1,22,"[0, 27, 6, 2, 14, 9, 12, 13, 22]",9,0,[],16.18346854,14861,2433,1,0,9,3.1711839164511098
basic,68,23,0,1,1,22,"[0, 27, 6, 2, 14, 9, 12, 13, 22]",9,0,[],16.18346854,16347,1486,1,0,9,3.1711839164511098
undo,69,38,0,0,0,0,[0],1,29,"[1, 2, 3, 4, 5, 6, 7, 8, 9, 10, 11, 12, 13, 14, 15, 16, 17, 18, 19, 20, 21, 22, 23, 24, 25, 26, 27, 28, 29]",300,150,-1,33,506,9,0.0
undo,69,38,0,0,0,19,"[0, 19]",2,23,"[3, 4, 5, 6, 7, 8, 9, 11, 13, 14, 15, 16, 17, 18, 20, 22, 23, 24, 25, 26, 27, 28, 29]",219.5015528,6524,6374,6,61,9,1.0
undo,69,38,0,0,0,17,"[0, 19, 17]",3,21,"[3, 4, 5, 6, 7, 9, 11, 13, 14, 15, 16, 18, 20, 22, 23, 24, 25, 26, 27, 28, 29]",198.1239945,7446,922,6,53,9,1.571793785769489
undo,69,38,0,0,0,20,"[0, 19, 17, 20]",4,17,"[3, 4, 5, 6, 7, 11, 13, 14, 15, 16, 18, 22, 24, 25, 26, 27, 28]",174.3542658,8289,843,6,44,9,2.333182710277297
undo,69,38,0,0,0,4,"[0, 19, 17, 20, 4]",5,10,"[5, 11, 13, 14, 15, 16, 24, 26, 27, 28]",140.4131403,9428,1139,5,22,9,2.276099229646013
undo,69,38,0,0,0,15,"[0, 19, 17, 20, 4, 15]",6,8,"[5, 11, 13, 14, 16, 24, 26, 28]",114.4131403,10711,1283,5,6,9,2.5292671156176403
undo,69,38,0,0,0,11,"[0, 19, 17, 20, 4, 15, 11]",7,2,"[16, 28]",78.01259089,14029,3318,2,0,9,2.778100109749787
undo,69,38,0,0,0,28,"[0, 19, 17, 20, 4, 15, 11, 28]",8,1,[16],50.99407872,16859,2830,1,0,9,2.3316428595723258
undo,69,38,0,0,1,16,"[0, 19, 17, 20, 4, 15, 11, 28, 16]",9,0,[],21.99407872,18221,1362,1,0,9,2.5408012360364265
undo,69,38,1,0,0,28,"[0, 19, 17, 20, 4, 15, 11, 28]",8,1,[16],50.99407872,21249,3028,1,0,9,2.3316428595723258
undo,69,38,0,0,1,16,"[0, 19, 17, 20, 4, 15, 11, 28, 16]",9,0,[],21.99407872,25626,4377,1,0,9,2.5408012360364265
undo,69,38,0,1,1,16,"[0, 19, 17, 20, 4, 15, 11, 28, 16]",9,0,[],21.99407872,26816,1190,1,0,9,2.5408012360364265
undo,70,29,0,0,0,0,[0],1,29,"[1, 2, 3, 4, 5, 6, 7, 8, 9, 10, 11, 12, 13, 14, 15, 16, 17, 18, 19, 20, 21, 22, 23, 24, 25, 26, 27, 28, 29]",300,115,-1,1,78,9,0.0
undo,70,29,0,0,0,14,"[0, 14]",2,22,"[1, 3, 4, 5, 6, 7, 9, 10, 11, 12, 13, 15, 16, 17, 21, 22, 23, 25, 26, 27, 28, 29]",209.490332,4036,3921,21,110,8,1.0
undo,70,29,0,0,0,13,"[0, 14, 13]",3,18,"[1, 4, 5, 6, 7, 9, 10, 12, 15, 16, 17, 21, 22, 25, 26, 27, 28, 29]",191.4625756,5022,986,20,75,8,1.0027006502223275
undo,70,29,0,0,0,5,"[0, 14, 13, 5]",4,15,"[1, 4, 6, 7, 9, 12, 15, 17, 21, 22, 25, 26, 27, 28, 29]",165.7526554,5944,922,19,49,8,1.0803937325657265
undo,70,29,0,0,0,7,"[0, 14, 13, 5, 7]",5,8,"[4, 9, 12, 21, 22, 26, 27, 28]",102.2231347,7740,1796,3,12,8,1.2026521321069321
undo,70,29,0,0,0,12,"[0, 14, 13, 5, 7, 12]",6,7,"[4, 9, 21, 22, 26, 27, 28]",88.62166416,8486,746,3,4,8,1.3692133279803023
undo,70,29,0,0,0,22,"[0, 14, 13, 5, 7, 12, 22]",7,1,[27],50.67433224,9558,1072,1,0,8,2.1316115728184912
undo,70,29,0,0,1,27,"[0, 14, 13, 5, 7, 12, 22, 27]",8,0,[],17.43279196,10789,1231,1,0,8,2.6081028152142105
undo,70,29,1,0,0,22,"[0, 14, 13, 5, 7, 12, 22]",7,1,[27],50.67433224,13313,2524,1,0,8,2.1316115728184912
undo,70,29,1,0,0,12,"[0, 14, 13, 5, 7, 12]",6,7,"[4, 9, 21, 22, 26, 27, 28]",88.62166416,16147,2834,3,4,8,1.3692133279803023
undo,70,29,0,0,1,26,"[0, 14, 13, 5, 7, 12, 26]",7,0,[],3.035450318,17588,1441,1,0,7,1.9360300883207051
undo,70,29,0,1,1,26,"[0, 14, 13, 5, 7, 12, 26]",7,0,[],3.035450318,19030,1442,1,0,7,1.9360300883207051
