condition,trial_id,map_id,undoIndicator,submit,checkEnd,currentChoice,chosen_all,n_city_all,n_within_reach,cities_reach,currentBudget,time_all,rt_all,n_opt_paths_all,n_subopt_paths_all,mas_all,tortuosity_all
basic,0,13,0,0,0,0,[0],1,29,"[1, 2, 3, 4, 5, 6, 7, 8, 9, 10, 11, 12, 13, 14, 15, 16, 17, 18, 19, 20, 21, 22, 23, 24, 25, 26, 27, 28, 29]",300,125,-1,60,2676,11,0.0
basic,0,13,0,0,0,24,"[0, 24]",2,28,"[1, 2, 3, 4, 5, 6, 7, 8, 9, 10, 11, 12, 13, 14, 15, 16, 17, 18, 19, 20, 21, 22, 23, 25, 26, 27, 28, 29]",288.8196601,4908,4783,16,1444,11,1.0
basic,0,13,0,0,0,28,"[0, 24, 28]",3,23,"[1, 2, 3, 4, 6, 7, 8, 9, 10, 11, 12, 13, 15, 16, 17, 19, 20, 21, 22, 23, 26, 27, 29]",222.5324064,5947,1039,8,243,11,1.0513810491680837
basic,0,13,0,0,0,2,"[0, 24, 28, 2]",4,19,"[1, 3, 4, 6, 7, 9, 11, 12, 13, 15, 16, 17, 19, 20, 21, 23, 26, 27, 29]",184.889346,6852,905,7,110,11,1.050374132001543
basic,0,13,0,0,0,29,"[0, 24, 28, 2, 29]",5,18,"[1, 3, 4, 6, 7, 9, 11, 12, 13, 15, 16, 17, 19, 20, 21, 23, 26, 27]",173.1846461,7600,748,7,85,11,1.1393409619120594
basic,0,13,0,0,0,7,"[0, 24, 28, 2, 29, 7]",6,17,"[1, 3, 4, 6, 9, 11, 12, 13, 15, 16, 17, 19, 20, 21, 23, 26, 27]",157.9203086,8358,758,5,45,11,1.349777315111579
basic,0,13,0,0,0,26,"[0, 24, 28, 2, 29, 7, 26]",7,16,"[1, 3, 4, 6, 9, 11, 12, 13, 15, 16, 17, 19, 20, 21, 23, 27]",147.480002,9248,890,5,25,11,1.5942082773824946
basic,0,13,0,0,0,6,"[0, 24, 28, 2, 29, 7, 26, 6]",8,12,"[1, 3, 4, 11, 13, 15, 16, 17, 19, 20, 23, 27]",127.3802508,10029,781,4,12,11,1.5898347940840756
basic,0,13,0,0,0,16,"[0, 24, 28, 2, 29, 7, 26, 6, 16]",9,3,"[3, 20, 23]",53.82754861,11428,1399,1,2,11,2.6743660300373904
basic,0,13,0,0,0,3,"[0, 24, 28, 2, 29, 7, 26, 6, 16, 3]",10,1,[20],25.3846233,12297,869,1,0,11,2.696717621944423
basic,0,13,0,0,1,20,"[0, 24, 28, 2, 29, 7, 26, 6, 16, 3, 20]",11,0,[],6.358325711,13085,788,1,0,11,2.6690286409584245
basic,0,13,0,1,1,20,"[0, 24, 28, 2, 29, 7, 26, 6, 16, 3, 20]",11,0,[],6.358325711,15509,2424,1,0,11,2.6690286409584245
basic,1,35,0,0,0,0,[0],1,29,"[1, 2, 3, 4, 5, 6, 7, 8, 9, 10, 11, 12, 13, 14, 15, 16, 17, 18, 19, 20, 21, 22, 23, 24, 25, 26, 27, 28, 29]",300,113,-1,5,236,11,0.0
basic,1,35,0,0,0,27,"[0, 27]",2,27,"[1, 2, 4, 5, 6, 7, 8, 9, 10, 11, 12, 13, 14, 15, 16, 17, 18, 19, 20, 21, 22, 23, 24, 25, 26, 28, 29]",278.7867966,2355,2242,5,144,11,1.0
basic,1,35,0,0,0,24,"[0, 27, 24]",3,25,"[1, 2, 4, 5, 6, 7, 8, 9, 10, 11, 12, 13, 15, 16, 17, 18, 19, 20, 21, 22, 23, 25, 26, 28, 29]",234.6053525,3466,1111,3,80,11,2.1084080567904624
basic,1,35,0,0,0,17,"[0, 27, 24, 17]",4,20,"[1, 2, 4, 5, 6, 7, 8, 9, 10, 15, 16, 18, 19, 20, 21, 23, 25, 26, 28, 29]",222.9006526,4155,689,3,50,11,1.9439555968916868
basic,1,35,0,0,0,1,"[0, 27, 24, 17, 1]",5,18,"[2, 4, 5, 6, 8, 9, 10, 15, 16, 18, 19, 20, 21, 23, 25, 26, 28, 29]",207.0892643,4817,662,3,39,11,1.9436711872547336
basic,1,35,0,0,0,15,"[0, 27, 24, 17, 1, 15]",6,16,"[2, 4, 5, 6, 8, 9, 10, 16, 18, 19, 20, 23, 25, 26, 28, 29]",184.241945,5767,950,3,24,11,2.082774572108194
basic,1,35,0,0,0,23,"[0, 27, 24, 17, 1, 15, 23]",7,7,"[5, 6, 9, 18, 19, 25, 26]",123.801892,6721,954,3,14,11,1.657239080954205
basic,1,35,0,0,0,9,"[0, 27, 24, 17, 1, 15, 23, 9]",8,4,"[6, 18, 19, 25]",86.15883157,7670,949,2,2,11,1.9022575917054987
basic,1,35,0,0,0,18,"[0, 27, 24, 17, 1, 15, 23, 9, 18]",9,2,"[6, 25]",66.13384718,8378,708,2,0,11,1.8181129550839106
basic,1,35,0,0,0,25,"[0, 27, 24, 17, 1, 15, 23, 9, 18, 25]",10,1,[6],32.29599855,9311,933,1,0,11,1.6530923432245144
basic,1,35,0,0,1,6,"[0, 27, 24, 17, 1, 15, 23, 9, 18, 25, 6]",11,0,[],8.275174247,10035,724,1,0,11,1.9291202388527962
basic,1,35,0,1,1,6,"[0, 27, 24, 17, 1, 15, 23, 9, 18, 25, 6]",11,0,[],8.275174247,12880,2845,1,0,11,1.9291202388527962
basic,2,31,0,0,0,0,[0],1,27,"[1, 3, 4, 5, 6, 7, 8, 10, 11, 12, 13, 14, 15, 16, 17, 18, 19, 20, 21, 22, 23, 24, 25, 26, 27, 28, 29]",300,131,-1,2,87,10,0.0
basic,2,31,0,0,0,14,"[0, 14]",2,25,"[1, 3, 5, 6, 7, 8, 10, 11, 12, 13, 15, 16, 17, 18, 19, 20, 21, 22, 23, 24, 25, 26, 27, 28, 29]",263.861378,3635,3504,2,59,10,1.0
basic,2,31,0,0,0,27,"[0, 14, 27]",3,22,"[1, 3, 5, 6, 7, 8, 10, 11, 12, 13, 15, 16, 17, 18, 19, 20, 21, 22, 24, 25, 28, 29]",235.6833724,4513,878,1,39,10,1.5881859159302467
basic,2,31,0,0,0,8,"[0, 14, 27, 8]",4,20,"[1, 3, 5, 6, 7, 10, 11, 12, 13, 16, 17, 18, 19, 20, 21, 22, 24, 25, 28, 29]",224.6380114,5196,683,1,36,10,2.1665048452331277
basic,2,31,0,0,0,18,"[0, 14, 27, 8, 18]",5,15,"[1, 5, 6, 7, 11, 12, 13, 16, 17, 19, 20, 22, 25, 28, 29]",188.7911147,6034,838,1,26,10,1.7273375741920205
basic,2,31,0,0,0,17,"[0, 14, 27, 8, 18, 17]",6,13,"[1, 5, 6, 7, 11, 12, 13, 16, 19, 20, 22, 25, 28]",159.584951,7189,1155,1,13,10,1.551192427769927
basic,2,31,0,0,0,11,"[0, 14, 27, 8, 18, 17, 11]",7,7,"[5, 12, 16, 19, 22, 25, 28]",118.4753414,8073,884,1,4,10,2.9650760544203494
basic,2,31,0,0,0,5,"[0, 14, 27, 8, 18, 17, 11, 5]",8,2,"[16, 28]",74.79468207,9039,966,1,1,10,2.56711965625205
basic,2,31,0,0,0,28,"[0, 14, 27, 8, 18, 17, 11, 5, 28]",9,1,[16],54.57093365,9811,772,1,0,10,2.2865510762058148
basic,2,31,0,0,1,16,"[0, 14, 27, 8, 18, 17, 11, 5, 28, 16]",10,0,[],20.95546102,10744,933,1,0,10,2.089356850786318
basic,2,31,0,1,1,16,"[0, 14, 27, 8, 18, 17, 11, 5, 28, 16]",10,0,[],20.95546102,12265,1521,1,0,10,2.089356850786318
basic,3,21,0,0,0,0,[0],1,29,"[1, 2, 3, 4, 5, 6, 7, 8, 9, 10, 11, 12, 13, 14, 15, 16, 17, 18, 19, 20, 21, 22, 23, 24, 25, 26, 27, 28, 29]",300,114,-1,84,830,9,0.0
basic,3,21,0,0,0,25,"[0, 25]",2,26,"[1, 2, 3, 4, 5, 6, 7, 8, 9, 10, 11, 12, 13, 14, 15, 16, 17, 18, 20, 21, 22, 23, 24, 26, 27, 29]",240.1836143,3085,2971,30,238,9,1.0
basic,3,21,0,0,0,23,"[0, 25, 23]",3,21,"[1, 2, 4, 6, 7, 8, 9, 10, 11, 12, 14, 15, 16, 17, 18, 20, 21, 22, 24, 27, 29]",196.8592562,4861,1776,14,80,9,1.0416131642057598
basic,3,21,0,0,0,21,"[0, 25, 23, 21]",4,14,"[1, 4, 6, 8, 9, 14, 15, 16, 17, 18, 20, 22, 24, 29]",167.2450705,5617,756,10,25,9,1.4768792067751173
basic,3,21,0,0,0,14,"[0, 25, 23, 21, 14]",5,10,"[4, 8, 9, 15, 16, 17, 18, 22, 24, 29]",141.6325735,6371,754,8,13,9,1.3826076066332742
basic,3,21,0,0,0,4,"[0, 25, 23, 21, 14, 4]",6,7,"[8, 15, 16, 17, 18, 24, 29]",127.4904379,7035,664,8,3,9,1.3487191473328533
basic,3,21,0,0,0,16,"[0, 25, 23, 21, 14, 4, 16]",7,3,"[8, 15, 24]",82.89223163,7983,948,4,1,9,1.3301484172843694
basic,3,21,0,0,0,8,"[0, 25, 23, 21, 14, 4, 16, 8]",8,2,"[15, 24]",64.2911564,8650,667,2,0,9,1.3009886562393016
basic,3,21,0,0,1,15,"[0, 25, 23, 21, 14, 4, 16, 8, 15]",9,0,[],39.2911564,9629,979,1,0,9,1.5486591410600183
basic,3,21,0,1,1,15,"[0, 25, 23, 21, 14, 4, 16, 8, 15]",9,0,[],39.2911564,11681,2052,1,0,9,1.5486591410600183
basic,4,36,0,0,0,0,[0],1,24,"[2, 4, 5, 6, 7, 8, 9, 10, 12, 13, 14, 15, 16, 17, 18, 19, 20, 22, 23, 25, 26, 27, 28, 29]",300,130,-1,2,200,10,0.0
basic,4,36,0,0,0,18,"[0, 18]",2,21,"[2, 4, 5, 6, 7, 8, 9, 10, 12, 13, 14, 16, 17, 19, 22, 23, 25, 26, 27, 28, 29]",279.6039219,6983,6853,2,110,10,1.0
basic,4,36,0,0,0,12,"[0, 18, 12]",3,19,"[2, 4, 5, 6, 7, 8, 9, 10, 13, 16, 17, 19, 22, 23, 25, 26, 27, 28, 29]",237.0245842,7874,891,2,86,10,2.836270082716982
basic,4,36,0,0,0,9,"[0, 18, 12, 9]",4,9,"[2, 4, 10, 13, 16, 17, 19, 23, 25]",174.6627369,9579,1705,1,40,10,1.8147676024843966
basic,4,36,0,0,0,16,"[0, 18, 12, 9, 16]",5,5,"[2, 13, 17, 19, 25]",127.3658026,10552,973,4,11,9,1.6173640341692257
basic,4,36,0,0,0,17,"[0, 18, 12, 9, 16, 17]",6,4,"[2, 13, 19, 25]",99.04619804,11203,651,4,5,9,2.126167915720943
basic,4,36,0,0,0,19,"[0, 18, 12, 9, 16, 17, 19]",7,3,"[2, 13, 25]",71.15354668,11943,740,3,0,9,2.9690287970141402
basic,4,36,0,0,0,2,"[0, 18, 12, 9, 16, 17, 19, 2]",8,1,[25],34.0321243,12570,627,1,0,9,2.355174034952613
basic,4,36,0,0,1,25,"[0, 18, 12, 9, 16, 17, 19, 2, 25]",9,0,[],9.032124296,13189,619,1,0,9,2.541422245252009
basic,4,36,0,1,1,25,"[0, 18, 12, 9, 16, 17, 19, 2, 25]",9,0,[],9.032124296,17062,3873,1,0,9,2.541422245252009
basic,5,37,0,0,0,0,[0],1,29,"[1, 2, 3, 4, 5, 6, 7, 8, 9, 10, 11, 12, 13, 14, 15, 16, 17, 18, 19, 20, 21, 22, 23, 24, 25, 26, 27, 28, 29]",300,129,-1,6,168,10,0.0
basic,5,37,0,0,0,19,"[0, 19]",2,19,"[1, 2, 4, 5, 6, 7, 9, 10, 11, 15, 17, 18, 20, 21, 22, 25, 26, 28, 29]",185.6627795,6455,6326,25,244,9,1.0
basic,5,37,0,0,0,26,"[0, 19, 26]",3,9,"[1, 2, 4, 15, 20, 21, 22, 25, 29]",120.4094271,7734,1279,12,37,8,1.0256292033966232
basic,5,37,0,0,0,21,"[0, 19, 26, 21]",4,6,"[1, 2, 4, 15, 20, 22]",90.67728956,8538,804,8,18,8,1.3487859218508713
basic,5,37,0,0,0,15,"[0, 19, 26, 21, 15]",5,4,"[1, 2, 4, 20]",75.67728956,9141,603,4,7,8,1.3481165821607015
basic,5,37,0,0,0,20,"[0, 19, 26, 21, 15, 20]",6,3,"[1, 2, 4]",58.67728956,9866,725,2,2,8,1.6099275130490058
basic,5,37,0,0,0,1,"[0, 19, 26, 21, 15, 20, 1]",7,2,"[2, 4]",24.44280403,10742,876,2,0,8,1.7405155284688993
basic,5,37,0,0,1,2,"[0, 19, 26, 21, 15, 20, 1, 2]",8,0,[],7.238153493,11449,707,1,0,8,1.9366131115805176
basic,5,37,0,1,1,2,"[0, 19, 26, 21, 15, 20, 1, 2]",8,0,[],7.238153493,14514,3065,1,0,8,1.9366131115805176
basic,6,40,0,0,0,0,[0],1,29,"[1, 2, 3, 4, 5, 6, 7, 8, 9, 10, 11, 12, 13, 14, 15, 16, 17, 18, 19, 20, 21, 22, 23, 24, 25, 26, 27, 28, 29]",300,129,-1,8,191,9,0.0
basic,6,40,0,0,0,1,"[0, 1]",2,18,"[2, 5, 6, 7, 8, 9, 10, 11, 13, 15, 17, 18, 19, 21, 22, 23, 27, 29]",247.8463808,2999,2870,4,80,9,1.0
basic,6,40,0,0,0,6,"[0, 1, 6]",3,17,"[2, 5, 7, 8, 9, 10, 11, 13, 15, 17, 18, 19, 21, 22, 23, 27, 29]",227.7466295,3843,844,4,74,9,1.0459427008232034
basic,6,40,0,0,0,21,"[0, 1, 6, 21]",4,8,"[2, 5, 9, 17, 18, 19, 22, 23]",175.7754837,4783,940,4,25,9,1.0308822257404064
basic,6,40,0,0,0,9,"[0, 1, 6, 21, 9]",5,6,"[2, 5, 18, 19, 22, 23]",130.0699041,5667,884,4,12,9,1.377861912961129
basic,6,40,0,0,0,18,"[0, 1, 6, 21, 9, 18]",6,5,"[2, 5, 19, 22, 23]",113.5169588,6299,632,4,4,9,1.5742712168661408
basic,6,40,0,0,0,5,"[0, 1, 6, 21, 9, 18, 5]",7,3,"[19, 22, 23]",81.94165198,7139,840,2,1,9,1.7730665063055515
basic,6,40,0,0,0,23,"[0, 1, 6, 21, 9, 18, 5, 23]",8,1,[19],53.63970859,7783,644,1,0,9,2.597442759912231
basic,6,40,0,0,1,19,"[0, 1, 6, 21, 9, 18, 5, 23, 19]",9,0,[],21.68661797,8618,835,1,0,9,2.7128328554069565
basic,6,40,0,1,1,19,"[0, 1, 6, 21, 9, 18, 5, 23, 19]",9,0,[],21.68661797,10814,2196,1,0,9,2.7128328554069565
basic,7,33,0,0,0,0,[0],1,23,"[1, 2, 5, 7, 8, 11, 12, 13, 14, 15, 16, 17, 18, 19, 20, 21, 23, 24, 25, 26, 27, 28, 29]",300,132,-1,5,108,9,0.0
basic,7,33,0,0,0,8,"[0, 8]",2,22,"[1, 2, 5, 7, 11, 12, 13, 14, 15, 16, 17, 18, 19, 20, 21, 23, 24, 25, 26, 27, 28, 29]",265.8679037,3380,3248,5,87,9,1.0
basic,7,33,0,0,0,21,"[0, 8, 21]",3,16,"[2, 5, 7, 11, 13, 14, 16, 17, 18, 19, 20, 24, 26, 27, 28, 29]",166.0430571,4159,779,5,80,9,1.0670557763739492
basic,7,33,0,0,0,17,"[0, 8, 21, 17]",4,11,"[2, 7, 11, 13, 14, 16, 19, 20, 24, 26, 29]",127.4036989,5108,949,1,18,9,1.0830294710276618
basic,7,33,0,0,0,13,"[0, 8, 21, 17, 13]",5,10,"[2, 7, 11, 14, 16, 19, 20, 24, 26, 29]",104.6001904,5703,595,1,10,9,1.2861654105061844
basic,7,33,0,0,0,19,"[0, 8, 21, 17, 13, 19]",6,6,"[7, 14, 16, 24, 26, 29]",79.10509282,6451,748,1,6,9,1.3181942666818214
basic,7,33,0,0,0,24,"[0, 8, 21, 17, 13, 19, 24]",7,1,[7],37.05750074,7202,751,1,0,8,1.2914654832859356
basic,7,33,0,0,1,7,"[0, 8, 21, 17, 13, 19, 24, 7]",8,0,[],7.851337003,7852,650,1,0,8,1.370940443464748
basic,7,33,0,1,1,7,"[0, 8, 21, 17, 13, 19, 24, 7]",8,0,[],7.851337003,10065,2213,1,0,8,1.370940443464748
basic,8,18,0,0,0,0,[0],1,28,"[1, 2, 3, 4, 5, 6, 7, 8, 9, 10, 11, 12, 13, 14, 16, 17, 18, 19, 20, 21, 22, 23, 24, 25, 26, 27, 28, 29]",300,130,-1,3,136,10,0.0
basic,8,18,0,0,0,28,"[0, 28]",2,16,"[1, 3, 5, 7, 8, 9, 12, 13, 14, 16, 20, 23, 24, 25, 26, 27]",236.4311397,3771,3641,2,19,10,1.0
basic,8,18,0,0,0,7,"[0, 28, 7]",3,15,"[1, 3, 5, 8, 9, 12, 13, 14, 16, 20, 23, 24, 25, 26, 27]",214.4084242,4438,667,2,17,10,1.4345180696367563
basic,8,18,0,0,0,25,"[0, 28, 7, 25]",4,13,"[1, 3, 5, 8, 9, 12, 13, 14, 16, 20, 23, 26, 27]",186.6055466,5685,1247,2,15,10,1.8896451241781882
basic,8,18,0,0,0,8,"[0, 28, 7, 25, 8]",5,10,"[3, 5, 9, 12, 13, 14, 16, 23, 26, 27]",149.551532,6610,925,2,10,10,1.590467437592877
basic,8,18,0,0,0,13,"[0, 28, 7, 25, 8, 13]",6,9,"[3, 5, 9, 12, 14, 16, 23, 26, 27]",128.4565089,7368,758,2,5,10,1.8248274983549797
basic,8,18,0,0,0,14,"[0, 28, 7, 25, 8, 13, 14]",7,7,"[3, 5, 9, 12, 23, 26, 27]",109.4828429,8050,682,2,3,10,1.6993534956692746
basic,8,18,0,0,0,3,"[0, 28, 7, 25, 8, 13, 14, 3]",8,3,"[5, 12, 27]",79.39962499,8925,875,2,1,10,1.802637206541468
basic,8,18,0,0,0,5,"[0, 28, 7, 25, 8, 13, 14, 3, 5]",9,1,[12],21.21887216,10383,1458,1,0,10,1.559774889743805
basic,8,18,0,0,1,12,"[0, 28, 7, 25, 8, 13, 14, 3, 5, 12]",10,0,[],9.817117911,11288,905,1,0,10,1.563993037384447
basic,8,18,0,1,1,12,"[0, 28, 7, 25, 8, 13, 14, 3, 5, 12]",10,0,[],9.817117911,12797,1509,1,0,10,1.563993037384447
basic,9,16,0,0,0,0,[0],1,29,"[1, 2, 3, 4, 5, 6, 7, 8, 9, 10, 11, 12, 13, 14, 15, 16, 17, 18, 19, 20, 21, 22, 23, 24, 25, 26, 27, 28, 29]",300,130,-1,13,161,9,0.0
basic,9,16,0,0,0,28,"[0, 28]",2,27,"[1, 2, 3, 4, 5, 7, 8, 9, 10, 11, 12, 13, 14, 15, 16, 17, 18, 19, 20, 21, 22, 23, 24, 25, 26, 27, 29]",284.3475242,9577,9447,11,92,9,1.0
basic,9,16,0,0,0,17,"[0, 28, 17]",3,26,"[1, 2, 3, 4, 5, 7, 8, 9, 10, 11, 12, 13, 14, 15, 16, 18, 19, 20, 21, 22, 23, 24, 25, 26, 27, 29]",219.1555001,10500,923,10,46,9,1.3773866384707543
basic,9,16,0,0,0,21,"[0, 28, 17, 21]",4,17,"[3, 5, 7, 8, 9, 10, 12, 14, 15, 16, 20, 22, 23, 24, 25, 26, 29]",160.8459812,11240,740,6,13,8,1.6407436163678495
basic,9,16,0,0,0,16,"[0, 28, 17, 21, 16]",5,5,"[8, 12, 14, 20, 25]",116.191754,12045,805,3,3,7,2.224264520562029
basic,9,16,0,0,0,8,"[0, 28, 17, 21, 16, 8]",6,2,"[20, 25]",67.81820754,12824,779,2,0,7,1.8718860568450093
basic,9,16,0,0,1,20,"[0, 28, 17, 21, 16, 8, 20]",7,0,[],10.04278024,14000,1176,1,0,7,1.6024628018379117
basic,9,16,0,1,1,20,"[0, 28, 17, 21, 16, 8, 20]",7,0,[],10.04278024,17147,3147,1,0,7,1.6024628018379117
basic,10,8,0,0,0,0,[0],1,29,"[1, 2, 3, 4, 5, 6, 7, 8, 9, 10, 11, 12, 13, 14, 15, 16, 17, 18, 19, 20, 21, 22, 23, 24, 25, 26, 27, 28, 29]",300,162,-1,10,149,9,0.0
basic,10,8,0,0,0,5,"[0, 5]",2,28,"[1, 2, 3, 4, 6, 7, 8, 9, 10, 11, 12, 13, 14, 15, 16, 17, 18, 19, 20, 21, 22, 23, 24, 25, 26, 27, 28, 29]",254.5137383,2194,2032,10,100,9,1.0
basic,10,8,0,0,0,25,"[0, 5, 25]",3,20,"[1, 2, 3, 4, 6, 11, 12, 14, 15, 16, 17, 18, 19, 20, 21, 22, 23, 24, 28, 29]",215.3091468,2901,707,4,42,9,1.2272747879909065
basic,10,8,0,0,0,1,"[0, 5, 25, 1]",4,17,"[3, 4, 6, 11, 12, 14, 15, 16, 17, 18, 20, 21, 22, 23, 24, 28, 29]",190.3091468,4075,1174,3,24,9,1.1770245007593956
basic,10,8,0,0,0,23,"[0, 5, 25, 1, 23]",5,15,"[3, 4, 6, 11, 14, 15, 16, 17, 18, 20, 21, 22, 24, 28, 29]",167.2874179,5386,1311,1,14,9,1.141996583852372
basic,10,8,0,0,0,18,"[0, 5, 25, 1, 23, 18]",6,9,"[3, 4, 11, 14, 15, 16, 17, 24, 28]",125.5261919,6547,1161,1,7,9,1.3199166330970717
basic,10,8,0,0,0,14,"[0, 5, 25, 1, 23, 18, 14]",7,2,"[11, 17]",68.03706246,7373,826,1,1,9,2.714920831666598
basic,10,8,0,0,0,17,"[0, 5, 25, 1, 23, 18, 14, 17]",8,1,[11],31.02355141,8216,843,1,0,9,2.462600896722246
basic,10,8,0,0,1,11,"[0, 5, 25, 1, 23, 18, 14, 17, 11]",9,0,[],5.84419479,9015,799,1,0,9,2.246839316887767
basic,10,8,0,1,1,11,"[0, 5, 25, 1, 23, 18, 14, 17, 11]",9,0,[],5.84419479,10246,1231,1,0,9,2.246839316887767
basic,11,12,0,0,0,0,[0],1,29,"[1, 2, 3, 4, 5, 6, 7, 8, 9, 10, 11, 12, 13, 14, 15, 16, 17, 18, 19, 20, 21, 22, 23, 24, 25, 26, 27, 28, 29]",300,130,-1,2,32,9,0.0
basic,11,12,0,0,0,22,"[0, 22]",2,22,"[2, 4, 5, 6, 7, 9, 10, 12, 13, 14, 15, 16, 17, 18, 19, 21, 23, 24, 25, 27, 28, 29]",211.9943184,4739,4609,6,42,8,1.0
basic,11,12,0,0,0,16,"[0, 22, 16]",3,12,"[2, 4, 5, 6, 7, 12, 14, 19, 23, 24, 25, 27]",190.9943184,5374,635,6,24,8,1.2017164145167045
basic,11,12,0,0,0,4,"[0, 22, 16, 4]",4,9,"[2, 6, 7, 12, 14, 19, 24, 25, 27]",156.7890556,6026,652,6,14,8,1.146531713305579
basic,11,12,0,0,0,12,"[0, 22, 16, 4, 12]",5,4,"[14, 19, 24, 27]",114.5990094,6629,603,4,3,8,1.1221389456954312
basic,11,12,0,0,0,27,"[0, 22, 16, 4, 12, 27]",6,3,"[14, 19, 24]",90.24741807,7288,659,2,1,8,1.2262878338287035
basic,11,12,0,0,0,14,"[0, 22, 16, 4, 12, 27, 14]",7,1,[24],61.59432051,8013,725,1,0,8,1.2804562106751427
basic,11,12,0,0,1,24,"[0, 22, 16, 4, 12, 27, 14, 24]",8,0,[],44.38966997,8688,675,1,0,8,1.4322660007679802
basic,11,12,0,1,1,24,"[0, 22, 16, 4, 12, 27, 14, 24]",8,0,[],44.38966997,10131,1443,1,0,8,1.4322660007679802
basic,12,6,0,0,0,0,[0],1,29,"[1, 2, 3, 4, 5, 6, 7, 8, 9, 10, 11, 12, 13, 14, 15, 16, 17, 18, 19, 20, 21, 22, 23, 24, 25, 26, 27, 28, 29]",300,130,-1,180,4304,10,0.0
basic,12,6,0,0,0,26,"[0, 26]",2,25,"[1, 2, 3, 4, 5, 6, 7, 8, 9, 10, 11, 12, 13, 14, 15, 16, 17, 18, 20, 21, 22, 23, 24, 27, 29]",250.2606795,2469,2339,45,776,10,1.0
basic,12,6,0,0,0,7,"[0, 26, 7]",3,24,"[1, 2, 3, 4, 5, 6, 8, 9, 10, 11, 12, 13, 14, 15, 16, 17, 18, 20, 21, 22, 23, 24, 27, 29]",226.1774904,3066,597,25,520,10,1.5373018630243536
basic,12,6,0,0,0,3,"[0, 26, 7, 3]",4,22,"[1, 2, 4, 6, 8, 9, 10, 11, 12, 13, 14, 15, 16, 17, 18, 20, 21, 22, 23, 24, 27, 29]",190.0388684,3862,796,20,235,10,3.2798655773210936
basic,12,6,0,0,0,24,"[0, 26, 7, 3, 24]",5,13,"[2, 4, 6, 8, 10, 13, 16, 17, 18, 22, 23, 27, 29]",126.0857606,6934,3072,1,17,10,1.78752404182238
basic,12,6,0,0,0,10,"[0, 26, 7, 3, 24, 10]",6,8,"[2, 6, 16, 17, 18, 22, 23, 29]",112.6693527,7650,716,1,10,10,2.2210171055417245
basic,12,6,0,0,0,17,"[0, 26, 7, 3, 24, 10, 17]",7,5,"[6, 16, 18, 23, 29]",92.94626977,8462,812,1,4,10,2.933761386470952
basic,12,6,0,0,0,18,"[0, 26, 7, 3, 24, 10, 17, 18]",8,3,"[16, 23, 29]",79.01788149,9136,674,1,2,10,3.628513273236627
basic,12,6,0,0,0,16,"[0, 26, 7, 3, 24, 10, 17, 18, 16]",9,1,[29],55.67264643,9908,772,1,0,10,3.38495757060591
basic,12,6,0,0,1,29,"[0, 26, 7, 3, 24, 10, 17, 18, 16, 29]",10,0,[],18.98477378,10511,603,1,0,10,2.6384370869115052
basic,12,6,0,1,1,29,"[0, 26, 7, 3, 24, 10, 17, 18, 16, 29]",10,0,[],18.98477378,11763,1252,1,0,10,2.6384370869115052
basic,13,43,0,0,0,0,[0],1,23,"[1, 2, 3, 4, 5, 6, 7, 9, 10, 11, 12, 14, 15, 16, 17, 19, 20, 21, 22, 23, 25, 27, 29]",300,130,-1,16,556,12,0.0
basic,13,43,0,0,0,29,"[0, 29]",2,22,"[1, 2, 3, 4, 5, 6, 7, 9, 10, 11, 12, 14, 15, 16, 17, 19, 20, 21, 22, 23, 25, 27]",277.909278,2035,1905,16,520,12,1.0
basic,13,43,0,0,0,20,"[0, 29, 20]",3,20,"[1, 2, 3, 4, 6, 7, 9, 10, 11, 12, 14, 15, 16, 17, 19, 21, 22, 23, 25, 27]",254.4785289,2709,674,15,422,12,1.082311746871282
basic,13,43,0,0,0,16,"[0, 29, 20, 16]",4,19,"[1, 2, 3, 4, 6, 7, 9, 10, 11, 12, 14, 15, 17, 19, 21, 22, 23, 25, 27]",231.8511119,3392,683,15,389,12,1.215201926898219
basic,13,43,0,0,0,25,"[0, 29, 20, 16, 25]",5,14,"[1, 2, 3, 4, 6, 7, 9, 11, 12, 14, 15, 19, 22, 23]",175.7708124,4807,1415,53,282,11,1.566384303308987
basic,13,43,0,0,0,15,"[0, 29, 20, 16, 25, 15]",6,13,"[1, 2, 3, 4, 6, 7, 9, 11, 12, 14, 19, 22, 23]",153.0992443,5502,695,27,108,11,1.776736412604812
basic,13,43,0,0,0,12,"[0, 29, 20, 16, 25, 15, 12]",7,10,"[1, 3, 6, 7, 9, 11, 14, 19, 22, 23]",133.7860364,6218,716,21,41,11,1.6813323012225032
basic,13,43,0,0,0,3,"[0, 29, 20, 16, 25, 15, 12, 3]",8,9,"[1, 6, 7, 9, 11, 14, 19, 22, 23]",120.7860364,7405,1187,20,12,11,1.608740348096123
basic,13,43,0,0,0,11,"[0, 29, 20, 16, 25, 15, 12, 3, 11]",9,3,"[6, 14, 22]",53.75619226,8868,1463,1,2,11,2.7059759092307694
basic,13,43,0,0,0,6,"[0, 29, 20, 16, 25, 15, 12, 3, 11, 6]",10,1,[14],33.14066413,9900,1032,1,0,11,2.419603450300579
basic,13,43,0,0,1,14,"[0, 29, 20, 16, 25, 15, 12, 3, 11, 6, 14]",11,0,[],4.680165186,11571,1671,1,0,11,2.3808374911788053
basic,13,43,0,1,1,14,"[0, 29, 20, 16, 25, 15, 12, 3, 11, 6, 14]",11,0,[],4.680165186,14364,2793,1,0,11,2.3808374911788053
basic,14,2,0,0,0,0,[0],1,23,"[1, 2, 4, 5, 6, 7, 8, 9, 12, 13, 15, 16, 17, 18, 19, 20, 22, 23, 25, 26, 27, 28, 29]",300,132,-1,70,620,10,0.0
basic,14,2,0,0,0,19,"[0, 19]",2,22,"[1, 2, 4, 5, 6, 7, 8, 9, 12, 13, 15, 16, 17, 18, 20, 22, 23, 25, 26, 27, 28, 29]",210.306076,3518,3386,67,431,10,1.0
basic,14,2,0,0,0,12,"[0, 19, 12]",3,17,"[1, 4, 5, 6, 7, 13, 15, 16, 17, 18, 20, 22, 25, 26, 27, 28, 29]",174.2921898,4184,666,66,298,10,1.1107635036313153
basic,14,2,0,0,0,5,"[0, 19, 12, 5]",4,11,"[1, 6, 7, 13, 15, 16, 18, 22, 25, 26, 29]",144.7625437,5019,835,38,136,10,1.0968174771581647
basic,14,2,0,0,0,22,"[0, 19, 12, 5, 22]",5,8,"[1, 6, 7, 13, 15, 18, 26, 29]",131.9562952,6236,1217,20,63,10,1.0889910507461968
basic,14,2,0,0,0,13,"[0, 19, 12, 5, 22, 13]",6,7,"[1, 6, 7, 15, 18, 26, 29]",117.0902265,6893,657,19,20,10,1.236526217328057
basic,14,2,0,0,0,18,"[0, 19, 12, 5, 22, 13, 18]",7,4,"[7, 15, 26, 29]",81.91921567,8085,1192,10,3,10,1.2128708213409936
basic,14,2,0,0,0,7,"[0, 19, 12, 5, 22, 13, 18, 7]",8,3,"[15, 26, 29]",71.62358553,9305,1220,5,0,10,1.2019811287894737
basic,14,2,0,0,0,26,"[0, 19, 12, 5, 22, 13, 18, 7, 26]",9,2,"[15, 29]",48.82007703,10152,847,2,0,10,1.1883593342191134
basic,14,2,0,0,1,15,"[0, 19, 12, 5, 22, 13, 18, 7, 26, 15]",10,0,[],24.61264015,10746,594,1,0,10,1.4619750353663825
basic,14,2,0,1,1,15,"[0, 19, 12, 5, 22, 13, 18, 7, 26, 15]",10,0,[],24.61264015,13315,2569,1,0,10,1.4619750353663825
basic,15,34,0,0,0,0,[0],1,25,"[1, 3, 4, 5, 6, 7, 8, 9, 10, 11, 12, 13, 15, 18, 19, 20, 21, 22, 23, 24, 25, 26, 27, 28, 29]",300,164,-1,12,367,10,0.0
basic,15,34,0,0,0,13,"[0, 13]",2,24,"[1, 3, 4, 5, 6, 7, 8, 9, 10, 11, 12, 15, 18, 19, 20, 21, 22, 23, 24, 25, 26, 27, 28, 29]",279.9750156,2718,2554,12,331,10,1.0
basic,15,34,0,0,0,1,"[0, 13, 1]",3,16,"[3, 5, 7, 8, 9, 10, 11, 12, 19, 21, 22, 23, 24, 25, 27, 29]",211.8574701,3634,916,3,92,10,1.0010381285747127
basic,15,34,0,0,0,8,"[0, 13, 1, 8]",4,14,"[3, 5, 7, 9, 10, 11, 12, 19, 22, 23, 24, 25, 27, 29]",201.0871405,4202,568,2,54,10,1.1636807
basic,15,34,0,0,0,25,"[0, 13, 1, 8, 25]",5,12,"[3, 5, 7, 9, 10, 11, 12, 22, 23, 24, 27, 29]",183.999133,5403,1201,2,28,10,1.1396208815936457
basic,15,34,0,0,0,24,"[0, 13, 1, 8, 25, 24]",6,11,"[3, 5, 7, 9, 10, 11, 12, 22, 23, 27, 29]",166.5062774,6093,690,2,23,10,1.374180768736554
basic,15,34,0,0,0,12,"[0, 13, 1, 8, 25, 24, 12]",7,7,"[7, 9, 10, 11, 22, 23, 27]",115.4670767,6937,844,1,8,10,1.4994254760835948
basic,15,34,0,0,0,7,"[0, 13, 1, 8, 25, 24, 12, 7]",8,5,"[9, 11, 22, 23, 27]",100.4337804,7564,627,1,4,10,1.758992610425009
basic,15,34,0,0,0,23,"[0, 13, 1, 8, 25, 24, 12, 7, 23]",9,1,[27],72.27352467,8328,764,1,0,10,2.399781305190153
basic,15,34,0,0,1,27,"[0, 13, 1, 8, 25, 24, 12, 7, 23, 27]",10,0,[],18.60789321,10925,2597,1,0,10,4.766619878750327
basic,15,34,0,1,1,27,"[0, 13, 1, 8, 25, 24, 12, 7, 23, 27]",10,0,[],18.60789321,12465,1540,1,0,10,4.766619878750327
basic,16,4,0,0,0,0,[0],1,26,"[3, 4, 5, 6, 7, 8, 10, 11, 12, 13, 14, 15, 16, 17, 18, 19, 20, 21, 22, 23, 24, 25, 26, 27, 28, 29]",300,129,-1,4,489,10,0.0
basic,16,4,0,0,0,13,"[0, 13]",2,23,"[3, 4, 5, 6, 7, 10, 11, 12, 14, 15, 16, 17, 19, 20, 21, 22, 23, 24, 25, 26, 27, 28, 29]",232.1030192,3369,3240,2,270,10,1.0
basic,16,4,0,0,0,28,"[0, 13, 28]",3,19,"[3, 4, 5, 6, 10, 11, 12, 14, 15, 16, 17, 19, 20, 21, 22, 23, 24, 25, 26]",200.5277124,3996,627,2,221,10,1.3431168257921573
basic,16,4,0,0,0,14,"[0, 13, 28, 14]",4,11,"[3, 4, 5, 6, 11, 16, 17, 20, 21, 22, 25]",134.2857318,4776,780,28,123,9,1.2134786195381546
basic,16,4,0,0,0,25,"[0, 13, 28, 14, 25]",5,10,"[3, 4, 5, 6, 11, 16, 17, 20, 21, 22]",118.1612163,5323,547,22,51,9,1.4339367384350254
basic,16,4,0,0,0,11,"[0, 13, 28, 14, 25, 11]",6,9,"[3, 4, 5, 6, 16, 17, 20, 21, 22]",99.37292203,6440,1117,11,18,9,1.632788140935394
basic,16,4,0,0,0,16,"[0, 13, 28, 14, 25, 11, 16]",7,6,"[3, 5, 17, 20, 21, 22]",84.37292203,7084,644,9,2,9,1.5642820747024264
basic,16,4,0,0,0,3,"[0, 13, 28, 14, 25, 11, 16, 3]",8,1,[17],42.74360544,8025,941,1,0,9,1.474981502263249
basic,16,4,0,0,1,17,"[0, 13, 28, 14, 25, 11, 16, 3, 17]",9,0,[],18.2283041,8724,699,1,0,9,1.718983128597651
basic,16,4,0,1,1,17,"[0, 13, 28, 14, 25, 11, 16, 3, 17]",9,0,[],18.2283041,11980,3256,1,0,9,1.718983128597651
basic,17,28,0,0,0,0,[0],1,27,"[1, 2, 3, 4, 5, 6, 7, 8, 9, 10, 11, 12, 13, 14, 15, 16, 17, 18, 19, 20, 22, 23, 25, 26, 27, 28, 29]",300,112,-1,2,96,9,0.0
basic,17,28,0,0,0,3,"[0, 3]",2,26,"[1, 2, 4, 5, 6, 7, 8, 9, 10, 11, 12, 13, 14, 15, 16, 17, 18, 19, 20, 22, 23, 25, 26, 27, 28, 29]",251.0817008,8795,8683,1,64,9,1.0
basic,17,28,0,0,0,14,"[0, 3, 14]",3,13,"[1, 2, 5, 7, 10, 11, 12, 13, 17, 18, 19, 20, 26]",142.7396498,9702,907,19,59,8,1.0338694802207566
basic,17,28,0,0,0,18,"[0, 3, 14, 18]",4,10,"[1, 2, 5, 7, 11, 12, 13, 17, 19, 26]",117.2445523,10290,588,18,18,8,1.098527225277385
basic,17,28,0,0,0,13,"[0, 3, 14, 18, 13]",5,7,"[2, 7, 11, 12, 17, 19, 26]",92.83144103,11016,726,8,6,8,1.0872780601597938
basic,17,28,0,0,0,12,"[0, 3, 14, 18, 13, 12]",6,3,"[2, 7, 19]",75.6267905,11609,593,3,1,8,1.0890748557820906
basic,17,28,0,0,0,7,"[0, 3, 14, 18, 13, 12, 7]",7,2,"[2, 19]",62.47384406,12284,675,2,0,8,1.2125627495730145
basic,17,28,0,0,1,19,"[0, 3, 14, 18, 13, 12, 7, 19]",8,0,[],34.74299481,13008,724,1,0,8,1.4527925513951803
basic,17,28,0,1,1,19,"[0, 3, 14, 18, 13, 12, 7, 19]",8,0,[],34.74299481,15846,2838,1,0,8,1.4527925513951803
basic,18,42,0,0,0,0,[0],1,29,"[1, 2, 3, 4, 5, 6, 7, 8, 9, 10, 11, 12, 13, 14, 15, 16, 17, 18, 19, 20, 21, 22, 23, 24, 25, 26, 27, 28, 29]",300,131,-1,16,302,9,0.0
basic,18,42,0,0,0,5,"[0, 5]",2,28,"[1, 2, 3, 4, 6, 7, 8, 9, 10, 11, 12, 13, 14, 15, 16, 17, 18, 19, 20, 21, 22, 23, 24, 25, 26, 27, 28, 29]",191.2939744,8335,8204,1,22,9,1.0
basic,18,42,0,0,0,4,"[0, 5, 4]",3,23,"[1, 2, 3, 6, 7, 8, 9, 10, 11, 13, 15, 17, 18, 19, 20, 21, 22, 23, 24, 25, 26, 27, 29]",171.4445412,10096,1761,1,14,9,1.420957801478707
basic,18,42,0,0,0,22,"[0, 5, 4, 22]",4,20,"[1, 2, 3, 6, 7, 8, 9, 11, 15, 17, 18, 19, 20, 21, 23, 24, 25, 26, 27, 29]",160.2642013,10754,658,1,11,9,1.5771494659680896
basic,18,42,0,0,0,8,"[0, 5, 4, 22, 8]",5,14,"[1, 2, 3, 6, 7, 11, 15, 18, 19, 24, 25, 26, 27, 29]",138.1282577,11591,837,1,10,9,1.5055393955524201
basic,18,42,0,0,0,1,"[0, 5, 4, 22, 8, 1]",6,5,"[2, 7, 19, 26, 27]",89.03650682,12411,820,1,7,9,1.3547259083637835
basic,18,42,0,0,0,7,"[0, 5, 4, 22, 8, 1, 7]",7,4,"[2, 19, 26, 27]",59.03650682,13201,790,1,3,9,1.3909715672447451
basic,18,42,0,0,0,26,"[0, 5, 4, 22, 8, 1, 7, 26]",8,1,[27],32.46584631,14028,827,1,0,9,1.3511825943939393
basic,18,42,0,0,1,27,"[0, 5, 4, 22, 8, 1, 7, 26, 27]",9,0,[],14.43808994,14678,650,1,0,9,1.3391911688802078
basic,18,42,0,1,1,27,"[0, 5, 4, 22, 8, 1, 7, 26, 27]",9,0,[],14.43808994,16232,1554,1,0,9,1.3391911688802078
basic,19,32,0,0,0,0,[0],1,29,"[1, 2, 3, 4, 5, 6, 7, 8, 9, 10, 11, 12, 13, 14, 15, 16, 17, 18, 19, 20, 21, 22, 23, 24, 25, 26, 27, 28, 29]",300,129,-1,17,359,10,0.0
basic,19,32,0,0,0,15,"[0, 15]",2,24,"[2, 3, 4, 5, 6, 7, 8, 9, 10, 11, 12, 13, 14, 16, 17, 19, 20, 22, 23, 24, 25, 26, 27, 28]",214.6185032,3300,3171,11,153,9,1.0
basic,19,32,0,0,0,28,"[0, 15, 28]",3,21,"[2, 3, 5, 7, 8, 9, 10, 11, 12, 13, 14, 16, 17, 19, 20, 22, 23, 24, 25, 26, 27]",203.2167489,3999,699,11,119,9,1.000160051986942
basic,19,32,0,0,0,12,"[0, 15, 28, 12]",4,19,"[2, 3, 5, 7, 8, 9, 10, 11, 13, 16, 17, 19, 20, 22, 23, 24, 25, 26, 27]",184.243083,4682,683,8,71,9,1.0281484763748023
basic,19,32,0,0,0,16,"[0, 15, 28, 12, 16]",5,17,"[2, 3, 5, 7, 8, 9, 10, 11, 13, 17, 19, 20, 22, 23, 24, 26, 27]",168.5906071,5357,675,6,38,9,1.1190771370096
basic,19,32,0,0,0,22,"[0, 15, 28, 12, 16, 22]",6,10,"[2, 3, 5, 8, 9, 10, 11, 17, 20, 27]",134.7527585,6057,700,4,16,9,1.1702311155319893
basic,19,32,0,0,0,9,"[0, 15, 28, 12, 16, 22, 9]",7,6,"[2, 8, 10, 17, 20, 27]",112.5491552,6788,731,2,4,9,1.2381424719932013
basic,19,32,0,0,0,8,"[0, 15, 28, 12, 16, 22, 9, 8]",8,1,[20],67.42709849,7809,1021,1,0,9,1.187013645273504
basic,19,32,0,0,1,20,"[0, 15, 28, 12, 16, 22, 9, 8, 20]",9,0,[],17.09818036,8718,909,1,0,9,1.3986201165175596
basic,19,32,0,1,1,20,"[0, 15, 28, 12, 16, 22, 9, 8, 20]",9,0,[],17.09818036,10029,1311,1,0,9,1.3986201165175596
basic,20,10,0,0,0,0,[0],1,29,"[1, 2, 3, 4, 5, 6, 7, 8, 9, 10, 11, 12, 13, 14, 15, 16, 17, 18, 19, 20, 21, 22, 23, 24, 25, 26, 27, 28, 29]",300,130,-1,1,100,9,0.0
basic,20,10,0,0,0,13,"[0, 13]",2,25,"[1, 2, 3, 4, 6, 7, 8, 9, 10, 11, 12, 14, 17, 18, 19, 20, 21, 22, 23, 24, 25, 26, 27, 28, 29]",249.4628849,2684,2554,1,79,9,1.0
basic,20,10,0,0,0,11,"[0, 13, 11]",3,20,"[1, 2, 3, 6, 7, 8, 9, 10, 12, 14, 18, 19, 20, 21, 22, 24, 26, 27, 28, 29]",206.4512586,3502,818,1,54,9,1.0313137484914219
basic,20,10,0,0,0,19,"[0, 13, 11, 19]",4,11,"[2, 6, 8, 9, 10, 14, 18, 20, 24, 26, 27]",170.0919407,4272,770,1,22,9,1.0879446220132545
basic,20,10,0,0,0,2,"[0, 13, 11, 19, 2]",5,4,"[14, 20, 26, 27]",126.1829439,5375,1103,1,4,9,1.06474052351343
basic,20,10,0,0,0,14,"[0, 13, 11, 19, 2, 14]",6,3,"[20, 26, 27]",114.0174188,5979,604,1,3,9,1.1628909195912238
basic,20,10,0,0,0,26,"[0, 13, 11, 19, 2, 14, 26]",7,2,"[20, 27]",79.34754716,6701,722,1,1,9,1.6660727647633602
basic,20,10,0,0,0,20,"[0, 13, 11, 19, 2, 14, 26, 20]",8,1,[27],47.56704999,7417,716,1,0,9,2.085581809637999
basic,20,10,0,0,1,27,"[0, 13, 11, 19, 2, 14, 26, 20, 27]",9,0,[],2.312215998,8367,950,1,0,9,1.9116357409137932
basic,20,10,0,1,1,27,"[0, 13, 11, 19, 2, 14, 26, 20, 27]",9,0,[],2.312215998,9564,1197,1,0,9,1.9116357409137932
basic,21,30,0,0,0,0,[0],1,19,"[3, 4, 5, 7, 9, 11, 16, 17, 18, 19, 20, 21, 22, 24, 25, 26, 27, 28, 29]",300,132,-1,5,41,8,0.0
basic,21,30,0,0,0,16,"[0, 16]",2,17,"[3, 5, 7, 9, 11, 17, 18, 19, 20, 21, 22, 24, 25, 26, 27, 28, 29]",219.3774225,4725,4593,5,34,8,1.0
basic,21,30,0,0,0,25,"[0, 16, 25]",3,10,"[3, 5, 7, 9, 11, 18, 19, 20, 27, 29]",115.0845656,5657,932,5,28,8,1.0336279544884488
basic,21,30,0,0,0,20,"[0, 16, 25, 20]",4,8,"[3, 5, 7, 9, 18, 19, 27, 29]",93.15285342,6367,710,4,14,8,1.0337964627284246
basic,21,30,0,0,0,27,"[0, 16, 25, 20, 27]",5,4,"[3, 5, 18, 29]",59.09408069,7435,1068,4,6,8,1.1504365534848
basic,21,30,0,0,0,3,"[0, 16, 25, 20, 27, 3]",6,3,"[5, 18, 29]",39.98910751,8062,627,4,0,8,1.1403876826835333
basic,21,30,0,0,0,29,"[0, 16, 25, 20, 27, 3, 29]",7,1,[18],21.38803228,9052,990,1,0,8,1.1443827771455848
basic,21,30,0,0,1,18,"[0, 16, 25, 20, 27, 3, 29, 18]",8,0,[],2.074824359,9785,733,1,0,8,1.2197761544023602
basic,21,30,0,1,1,18,"[0, 16, 25, 20, 27, 3, 29, 18]",8,0,[],2.074824359,11898,2113,1,0,8,1.2197761544023602
basic,22,29,0,0,0,0,[0],1,29,"[1, 2, 3, 4, 5, 6, 7, 8, 9, 10, 11, 12, 13, 14, 15, 16, 17, 18, 19, 20, 21, 22, 23, 24, 25, 26, 27, 28, 29]",300,131,-1,1,78,9,0.0
basic,22,29,0,0,0,14,"[0, 14]",2,22,"[1, 3, 4, 5, 6, 7, 9, 10, 11, 12, 13, 15, 16, 17, 21, 22, 23, 25, 26, 27, 28, 29]",209.490332,8669,8538,21,110,8,1.0
basic,22,29,0,0,0,13,"[0, 14, 13]",3,18,"[1, 4, 5, 6, 7, 9, 10, 12, 15, 16, 17, 21, 22, 25, 26, 27, 28, 29]",191.4625756,9934,1265,20,75,8,1.0027006502223275
basic,22,29,0,0,0,5,"[0, 14, 13, 5]",4,15,"[1, 4, 6, 7, 9, 12, 15, 17, 21, 22, 25, 26, 27, 28, 29]",165.7526554,10655,721,19,49,8,1.0803937325657265
basic,22,29,0,0,0,4,"[0, 14, 13, 5, 4]",5,5,"[7, 9, 12, 21, 22]",113.8585324,11604,949,5,5,8,1.0589046774357636
basic,22,29,0,0,0,9,"[0, 14, 13, 5, 4, 9]",6,3,"[7, 12, 21]",72.82196333,12408,804,2,1,8,1.2033484462540056
basic,22,29,0,0,0,7,"[0, 14, 13, 5, 4, 9, 7]",7,1,[12],43.75307962,13188,780,1,0,8,1.5581999677939193
basic,22,29,0,0,1,12,"[0, 14, 13, 5, 4, 9, 7, 12]",8,0,[],30.15160911,13968,780,1,0,8,1.747955919287298
basic,22,29,0,1,1,12,"[0, 14, 13, 5, 4, 9, 7, 12]",8,0,[],30.15160911,15416,1448,1,0,8,1.747955919287298
undo,23,45,0,0,0,0,[0],1,24,"[1, 2, 3, 4, 5, 6, 7, 9, 10, 11, 12, 14, 15, 16, 17, 19, 20, 21, 22, 23, 24, 25, 27, 29]",300,148,-1,6,248,10,0.0
undo,23,45,0,0,0,17,"[0, 17]",2,22,"[1, 2, 3, 4, 5, 6, 7, 9, 10, 11, 12, 14, 15, 16, 19, 20, 21, 22, 23, 24, 25, 29]",235.867325,3541,3393,1,34,10,1.0
undo,23,45,0,0,0,24,"[0, 17, 24]",3,20,"[1, 2, 3, 4, 5, 6, 7, 9, 10, 11, 12, 14, 15, 16, 19, 20, 21, 22, 23, 29]",193.8078433,4337,796,1,33,10,1.0309432256229287
undo,23,45,0,0,0,7,"[0, 17, 24, 7]",4,18,"[1, 2, 3, 4, 5, 6, 9, 10, 12, 14, 15, 16, 19, 20, 21, 22, 23, 29]",159.3985423,5054,717,1,32,10,1.059763151913087
undo,23,45,0,0,0,2,"[0, 17, 24, 7, 2]",5,12,"[3, 4, 6, 10, 12, 14, 16, 19, 20, 22, 23, 29]",121.3853866,6221,1167,1,23,10,1.0656581932115423
undo,23,45,0,0,0,3,"[0, 17, 24, 7, 2, 3]",6,8,"[6, 10, 12, 14, 16, 20, 22, 29]",96.06740884,6871,650,1,13,10,1.1368250049574795
undo,23,45,0,0,0,29,"[0, 17, 24, 7, 2, 3, 29]",7,5,"[6, 10, 12, 20, 22]",76.06740884,7515,644,1,5,10,1.390376182346372
undo,23,45,0,0,0,10,"[0, 17, 24, 7, 2, 3, 29, 10]",8,2,"[6, 12]",54.52674961,8069,554,1,1,10,1.6682270697663164
undo,23,45,0,0,0,6,"[0, 17, 24, 7, 2, 3, 29, 10, 6]",9,1,[12],28.27794012,8793,724,1,0,10,1.5776211572942243
undo,23,45,0,0,1,12,"[0, 17, 24, 7, 2, 3, 29, 10, 6, 12]",10,0,[],8.15332832,9502,709,1,0,10,1.536035114105263
undo,23,45,1,0,0,6,"[0, 17, 24, 7, 2, 3, 29, 10, 6]",9,1,[12],28.27794012,14632,5130,1,0,10,1.5776211572942243
undo,23,45,1,0,0,10,"[0, 17, 24, 7, 2, 3, 29, 10]",8,2,"[6, 12]",54.52674961,14783,151,1,1,10,1.6682270697663164
undo,23,45,1,0,0,29,"[0, 17, 24, 7, 2, 3, 29]",7,5,"[6, 10, 12, 20, 22]",76.06740884,14966,183,1,5,10,1.390376182346372
undo,23,45,1,0,0,3,"[0, 17, 24, 7, 2, 3]",6,8,"[6, 10, 12, 14, 16, 20, 22, 29]",96.06740884,15133,167,1,13,10,1.1368250049574795
undo,23,45,1,0,0,2,"[0, 17, 24, 7, 2]",5,12,"[3, 4, 6, 10, 12, 14, 16, 19, 20, 22, 23, 29]",121.3853866,15282,149,1,23,10,1.0656581932115423
undo,23,45,1,0,0,7,"[0, 17, 24, 7]",4,18,"[1, 2, 3, 4, 5, 6, 9, 10, 12, 14, 15, 16, 19, 20, 21, 22, 23, 29]",159.3985423,15449,167,1,32,10,1.059763151913087
undo,23,45,1,0,0,24,"[0, 17, 24]",3,20,"[1, 2, 3, 4, 5, 6, 7, 9, 10, 11, 12, 14, 15, 16, 19, 20, 21, 22, 23, 29]",193.8078433,15799,350,1,33,10,1.0309432256229287
undo,23,45,1,0,0,17,"[0, 17]",2,22,"[1, 2, 3, 4, 5, 6, 7, 9, 10, 11, 12, 14, 15, 16, 19, 20, 21, 22, 23, 24, 25, 29]",235.867325,16065,266,1,34,10,1.0
undo,23,45,1,0,0,0,[0],1,24,"[1, 2, 3, 4, 5, 6, 7, 9, 10, 11, 12, 14, 15, 16, 17, 19, 20, 21, 22, 23, 24, 25, 27, 29]",300,16666,601,6,248,10,0.0
undo,23,45,0,0,0,15,"[0, 15]",2,23,"[1, 2, 3, 4, 5, 6, 7, 9, 10, 11, 12, 14, 16, 17, 19, 20, 21, 22, 23, 24, 25, 27, 29]",253.9022777,17487,821,5,207,10,1.0
undo,23,45,0,0,0,23,"[0, 15, 23]",3,22,"[1, 2, 3, 4, 5, 6, 7, 9, 10, 11, 12, 14, 16, 17, 19, 20, 21, 22, 24, 25, 27, 29]",230.3014303,18814,1327,5,163,10,1.0006068457769497
undo,23,45,0,0,0,20,"[0, 15, 23, 20]",4,19,"[1, 2, 3, 5, 6, 7, 9, 10, 11, 12, 14, 16, 17, 19, 21, 22, 24, 25, 29]",188.8647316,19553,739,5,137,10,1.2062119754673604
undo,23,45,0,0,0,24,"[0, 15, 23, 20, 24]",5,14,"[1, 2, 3, 5, 6, 7, 9, 10, 12, 17, 19, 21, 22, 29]",145.0355176,20277,724,1,23,10,1.5044386356496664
undo,23,45,0,0,0,7,"[0, 15, 23, 20, 24, 7]",6,9,"[2, 3, 6, 10, 12, 17, 19, 22, 29]",110.6262165,21251,974,1,22,10,1.4273775035809357
undo,23,45,0,0,0,2,"[0, 15, 23, 20, 24, 7, 2]",7,6,"[3, 6, 10, 12, 22, 29]",72.61306087,22609,1358,1,7,10,1.3566457419165387
undo,23,45,0,0,0,3,"[0, 15, 23, 20, 24, 7, 2, 3]",8,4,"[6, 10, 22, 29]",47.29508307,23220,611,1,3,10,1.4087069987569252
undo,23,45,0,0,0,29,"[0, 15, 23, 20, 24, 7, 2, 3, 29]",9,1,[10],27.29508307,23896,676,1,0,10,1.6931989191216303
undo,23,45,0,0,1,10,"[0, 15, 23, 20, 24, 7, 2, 3, 29, 10]",10,0,[],5.754423843,24563,667,1,0,10,1.9996819797033594
undo,23,45,0,1,1,10,"[0, 15, 23, 20, 24, 7, 2, 3, 29, 10]",10,0,[],5.754423843,26098,1535,1,0,10,1.9996819797033594
undo,24,22,0,0,0,0,[0],1,29,"[1, 2, 3, 4, 5, 6, 7, 8, 9, 10, 11, 12, 13, 14, 15, 16, 17, 18, 19, 20, 21, 22, 23, 24, 25, 26, 27, 28, 29]",300,129,-1,31,704,9,0.0
undo,24,22,0,0,0,16,"[0, 16]",2,21,"[1, 3, 6, 7, 8, 9, 11, 13, 14, 15, 17, 18, 19, 20, 21, 22, 24, 25, 27, 28, 29]",218.605897,2753,2624,17,147,9,1.0
undo,24,22,0,0,0,28,"[0, 16, 28]",3,13,"[6, 7, 9, 13, 14, 17, 19, 20, 21, 22, 24, 25, 29]",184.1675463,3349,596,12,61,9,1.047282311284478
undo,24,22,0,0,0,6,"[0, 16, 28, 6]",4,12,"[7, 9, 13, 14, 17, 19, 20, 21, 22, 24, 25, 29]",154.1675463,3952,603,12,43,9,1.645645870580622
undo,24,22,0,0,0,9,"[0, 16, 28, 6, 9]",5,8,"[7, 14, 17, 19, 20, 21, 24, 29]",127.5404924,4565,613,8,17,9,1.925750226630103
undo,24,22,0,0,0,19,"[0, 16, 28, 6, 9, 19]",6,6,"[7, 14, 17, 21, 24, 29]",107.1444143,5199,634,3,7,9,2.4220750331476455
undo,24,22,0,0,0,29,"[0, 16, 28, 6, 9, 19, 29]",7,4,"[7, 14, 17, 24]",92.11111796,5768,569,2,2,9,2.6996279574991067
undo,24,22,0,0,0,7,"[0, 16, 28, 6, 9, 19, 29, 7]",8,1,[14],41.0327468,6572,804,1,0,9,2.059125386946491
undo,24,22,0,0,1,14,"[0, 16, 28, 6, 9, 19, 29, 7, 14]",9,0,[],27.99434199,7103,531,1,0,9,2.0997569104205307
undo,24,22,1,0,0,7,"[0, 16, 28, 6, 9, 19, 29, 7]",8,1,[14],41.0327468,8646,1543,1,0,9,2.059125386946491
undo,24,22,1,0,0,29,"[0, 16, 28, 6, 9, 19, 29]",7,4,"[7, 14, 17, 24]",92.11111796,8829,183,2,2,9,2.6996279574991067
undo,24,22,1,0,0,19,"[0, 16, 28, 6, 9, 19]",6,6,"[7, 14, 17, 21, 24, 29]",107.1444143,8980,151,3,7,9,2.4220750331476455
undo,24,22,1,0,0,9,"[0, 16, 28, 6, 9]",5,8,"[7, 14, 17, 19, 20, 21, 24, 29]",127.5404924,9346,366,8,17,9,1.925750226630103
undo,24,22,1,0,0,6,"[0, 16, 28, 6]",4,12,"[7, 9, 13, 14, 17, 19, 20, 21, 22, 24, 25, 29]",154.1675463,11796,2450,12,43,9,1.645645870580622
undo,24,22,1,0,0,28,"[0, 16, 28]",3,13,"[6, 7, 9, 13, 14, 17, 19, 20, 21, 22, 24, 25, 29]",184.1675463,11947,151,12,61,9,1.047282311284478
undo,24,22,1,0,0,16,"[0, 16]",2,21,"[1, 3, 6, 7, 8, 9, 11, 13, 14, 15, 17, 18, 19, 20, 21, 22, 24, 25, 27, 28, 29]",218.605897,12097,150,17,147,9,1.0
undo,24,22,1,0,0,0,[0],1,29,"[1, 2, 3, 4, 5, 6, 7, 8, 9, 10, 11, 12, 13, 14, 15, 16, 17, 18, 19, 20, 21, 22, 23, 24, 25, 26, 27, 28, 29]",300,12281,184,31,704,9,0.0
undo,24,22,0,0,0,13,"[0, 13]",2,22,"[1, 3, 5, 6, 7, 8, 9, 10, 12, 14, 15, 16, 17, 19, 20, 21, 23, 24, 25, 26, 28, 29]",189.3202819,13350,1069,2,52,8,1.0
undo,24,22,0,0,0,15,"[0, 13, 15]",3,17,"[1, 3, 5, 6, 7, 8, 9, 10, 14, 17, 19, 20, 21, 23, 24, 26, 29]",173.7639327,13962,612,2,40,8,1.001747361505262
undo,24,22,0,0,0,8,"[0, 13, 15, 8]",4,12,"[1, 3, 5, 10, 17, 19, 20, 21, 23, 24, 26, 29]",146.5609917,14583,621,1,14,8,1.009379786590907
undo,24,22,0,0,0,23,"[0, 13, 15, 8, 23]",5,7,"[1, 3, 5, 10, 20, 21, 24]",113.3194514,15552,969,4,5,7,1.0105022544955353
undo,24,22,0,0,0,20,"[0, 13, 15, 8, 23, 20]",6,2,"[3, 24]",42.91348576,16485,933,2,0,7,1.7719572736852243
undo,24,22,0,0,1,3,"[0, 13, 15, 8, 23, 20, 3]",7,0,[],10.66445476,17538,1053,1,0,7,1.6978078216716772
undo,24,22,1,0,0,20,"[0, 13, 15, 8, 23, 20]",6,2,"[3, 24]",42.91348576,18380,842,2,0,7,1.7719572736852243
undo,24,22,1,0,0,23,"[0, 13, 15, 8, 23]",5,7,"[1, 3, 5, 10, 20, 21, 24]",113.3194514,18530,150,4,5,7,1.0105022544955353
undo,24,22,1,0,0,8,"[0, 13, 15, 8]",4,12,"[1, 3, 5, 10, 17, 19, 20, 21, 23, 24, 26, 29]",146.5609917,18680,150,1,14,8,1.009379786590907
undo,24,22,1,0,0,15,"[0, 13, 15]",3,17,"[1, 3, 5, 6, 7, 8, 9, 10, 14, 17, 19, 20, 21, 23, 24, 26, 29]",173.7639327,18863,183,2,40,8,1.001747361505262
undo,24,22,1,0,0,13,"[0, 13]",2,22,"[1, 3, 5, 6, 7, 8, 9, 10, 12, 14, 15, 16, 17, 19, 20, 21, 23, 24, 25, 26, 28, 29]",189.3202819,19063,200,2,52,8,1.0
undo,24,22,1,0,0,0,[0],1,29,"[1, 2, 3, 4, 5, 6, 7, 8, 9, 10, 11, 12, 13, 14, 15, 16, 17, 18, 19, 20, 21, 22, 23, 24, 25, 26, 27, 28, 29]",300,19297,234,31,704,9,0.0
undo,24,22,0,0,0,16,"[0, 16]",2,21,"[1, 3, 6, 7, 8, 9, 11, 13, 14, 15, 17, 18, 19, 20, 21, 22, 24, 25, 27, 28, 29]",218.605897,20566,1269,17,147,9,1.0
undo,24,22,0,0,0,28,"[0, 16, 28]",3,13,"[6, 7, 9, 13, 14, 17, 19, 20, 21, 22, 24, 25, 29]",184.1675463,21185,619,12,61,9,1.047282311284478
undo,24,22,0,0,0,6,"[0, 16, 28, 6]",4,12,"[7, 9, 13, 14, 17, 19, 20, 21, 22, 24, 25, 29]",154.1675463,21804,619,12,43,9,1.645645870580622
undo,24,22,0,0,0,9,"[0, 16, 28, 6, 9]",5,8,"[7, 14, 17, 19, 20, 21, 24, 29]",127.5404924,22472,668,8,17,9,1.925750226630103
undo,24,22,0,0,0,19,"[0, 16, 28, 6, 9, 19]",6,6,"[7, 14, 17, 21, 24, 29]",107.1444143,23384,912,3,7,9,2.4220750331476455
undo,24,22,0,0,0,29,"[0, 16, 28, 6, 9, 19, 29]",7,4,"[7, 14, 17, 24]",92.11111796,23999,615,2,2,9,2.6996279574991067
undo,24,22,0,0,0,14,"[0, 16, 28, 6, 9, 19, 29, 14]",8,1,[7],33.86165444,24966,967,1,0,9,2.0544639927929462
undo,24,22,0,0,1,7,"[0, 16, 28, 6, 9, 19, 29, 14, 7]",9,0,[],20.82324963,25551,585,1,0,9,2.219817088951114
undo,24,22,0,1,1,7,"[0, 16, 28, 6, 9, 19, 29, 14, 7]",9,0,[],20.82324963,26414,863,1,0,9,2.219817088951114
undo,25,13,0,0,0,0,[0],1,29,"[1, 2, 3, 4, 5, 6, 7, 8, 9, 10, 11, 12, 13, 14, 15, 16, 17, 18, 19, 20, 21, 22, 23, 24, 25, 26, 27, 28, 29]",300,131,-1,60,2676,11,0.0
undo,25,13,0,0,0,24,"[0, 24]",2,28,"[1, 2, 3, 4, 5, 6, 7, 8, 9, 10, 11, 12, 13, 14, 15, 16, 17, 18, 19, 20, 21, 22, 23, 25, 26, 27, 28, 29]",288.8196601,1708,1577,16,1444,11,1.0
undo,25,13,0,0,0,23,"[0, 24, 23]",3,27,"[1, 2, 3, 4, 5, 6, 7, 8, 9, 10, 11, 12, 13, 14, 15, 16, 17, 18, 19, 20, 21, 22, 25, 26, 27, 28, 29]",243.1140806,2456,748,2,868,11,1.0065545717039834
undo,25,13,0,0,0,28,"[0, 24, 23, 28]",4,21,"[1, 2, 3, 4, 6, 7, 9, 10, 11, 12, 13, 15, 16, 17, 19, 20, 21, 22, 26, 27, 29]",177.7458926,3245,789,1,253,11,1.6592183354372274
undo,25,13,0,0,0,26,"[0, 24, 23, 28, 26]",5,18,"[1, 2, 3, 4, 6, 7, 9, 11, 12, 13, 15, 16, 17, 19, 20, 21, 27, 29]",137.6959238,4564,1319,56,85,10,1.696475905611795
undo,25,13,0,0,0,6,"[0, 24, 23, 28, 26, 6]",6,10,"[1, 2, 3, 7, 11, 13, 15, 16, 17, 29]",117.5961726,5202,638,13,15,10,1.679946545621712
undo,25,13,0,0,0,11,"[0, 24, 23, 28, 26, 6, 11]",7,7,"[2, 7, 13, 15, 16, 17, 29]",98.4911994,5834,632,6,2,10,1.5796961157280762
undo,25,13,0,0,0,7,"[0, 24, 23, 28, 26, 6, 11, 7]",8,2,"[2, 29]",68.42460664,6403,569,2,0,10,2.1999992371560615
undo,25,13,0,0,0,29,"[0, 24, 23, 28, 26, 6, 11, 7, 29]",9,1,[2],53.16026912,7119,716,1,0,10,2.217670083077638
undo,25,13,0,0,1,2,"[0, 24, 23, 28, 26, 6, 11, 7, 29, 2]",10,0,[],41.45556921,7642,523,1,0,10,2.359194154824967
undo,25,13,0,1,1,2,"[0, 24, 23, 28, 26, 6, 11, 7, 29, 2]",10,0,[],41.45556921,11714,4072,1,0,10,2.359194154824967
undo,26,41,0,0,0,0,[0],1,29,"[1, 2, 3, 4, 5, 6, 7, 8, 9, 10, 11, 12, 13, 14, 15, 16, 17, 18, 19, 20, 21, 22, 23, 24, 25, 26, 27, 28, 29]",300,132,-1,1,143,10,0.0
undo,26,41,0,0,0,13,"[0, 13]",2,23,"[1, 2, 3, 5, 6, 7, 9, 10, 11, 12, 14, 15, 17, 18, 19, 20, 21, 22, 24, 25, 26, 27, 28]",258.2747079,1758,1626,1,55,10,1.0
undo,26,41,0,0,0,28,"[0, 13, 28]",3,22,"[1, 2, 3, 5, 6, 7, 9, 10, 11, 12, 14, 15, 17, 18, 19, 20, 21, 22, 24, 25, 26, 27]",223.7928286,2386,628,1,39,10,1.895724242592676
undo,26,41,0,0,0,5,"[0, 13, 28, 5]",4,19,"[1, 2, 3, 6, 9, 10, 11, 12, 14, 15, 17, 18, 19, 20, 21, 22, 24, 25, 27]",210.1913581,3108,722,1,34,10,2.861541269398273
undo,26,41,0,0,0,22,"[0, 13, 28, 5, 22]",5,12,"[2, 3, 6, 9, 10, 11, 12, 17, 18, 20, 21, 25]",155.4464953,4642,1534,11,12,9,2.096079268852861
undo,26,41,0,0,0,3,"[0, 13, 28, 5, 22, 3]",6,8,"[2, 9, 10, 12, 17, 18, 20, 21]",125.4798472,5336,694,7,5,9,4.404491319005463
undo,26,41,0,0,0,21,"[0, 13, 28, 5, 22, 3, 21]",7,4,"[2, 9, 12, 17]",93.33952984,6036,700,5,1,9,4.228139797553632
undo,26,41,0,0,0,9,"[0, 13, 28, 5, 22, 3, 21, 9]",8,2,"[2, 17]",43.97354965,7178,1142,2,0,9,3.111188754077749
undo,26,41,0,0,1,2,"[0, 13, 28, 5, 22, 3, 21, 9, 2]",9,0,[],31.89050368,7804,626,1,0,9,2.963304814480547
undo,26,41,1,0,0,9,"[0, 13, 28, 5, 22, 3, 21, 9]",8,2,"[2, 17]",43.97354965,9948,2144,2,0,9,3.111188754077749
undo,26,41,0,0,1,17,"[0, 13, 28, 5, 22, 3, 21, 9, 17]",9,0,[],12.95742481,10659,711,1,0,9,4.528364232383654
undo,26,41,1,0,0,9,"[0, 13, 28, 5, 22, 3, 21, 9]",8,2,"[2, 17]",43.97354965,11715,1056,2,0,9,3.111188754077749
undo,26,41,0,0,1,2,"[0, 13, 28, 5, 22, 3, 21, 9, 2]",9,0,[],31.89050368,12662,947,1,0,9,2.963304814480547
undo,26,41,0,1,1,2,"[0, 13, 28, 5, 22, 3, 21, 9, 2]",9,0,[],31.89050368,14198,1536,1,0,9,2.963304814480547
undo,27,32,0,0,0,0,[0],1,29,"[1, 2, 3, 4, 5, 6, 7, 8, 9, 10, 11, 12, 13, 14, 15, 16, 17, 18, 19, 20, 21, 22, 23, 24, 25, 26, 27, 28, 29]",300,130,-1,17,359,10,0.0
undo,27,32,0,0,0,19,"[0, 19]",2,28,"[1, 2, 3, 4, 5, 6, 7, 8, 9, 10, 11, 12, 13, 14, 15, 16, 17, 18, 20, 21, 22, 23, 24, 25, 26, 27, 28, 29]",283.5075775,2667,2537,16,294,10,1.0
undo,27,32,0,0,0,13,"[0, 19, 13]",3,24,"[2, 3, 4, 5, 6, 8, 9, 10, 11, 12, 14, 15, 16, 17, 18, 20, 21, 22, 23, 24, 25, 26, 27, 28]",260.3127505,3339,672,14,227,10,1.0172874229878615
undo,27,32,0,0,0,15,"[0, 19, 13, 15]",4,18,"[2, 3, 5, 8, 9, 10, 11, 12, 16, 17, 20, 22, 23, 24, 25, 26, 27, 28]",177.4393531,4256,917,9,116,10,1.435447391509833
undo,27,32,0,0,0,28,"[0, 19, 13, 15, 28]",5,17,"[2, 3, 5, 8, 9, 10, 11, 12, 16, 17, 20, 22, 23, 24, 25, 26, 27]",166.0375988,4987,731,9,70,10,1.3843701324937985
undo,27,32,0,0,0,12,"[0, 19, 13, 15, 28, 12]",6,14,"[2, 3, 5, 8, 9, 10, 11, 16, 17, 20, 22, 24, 26, 27]",147.0639329,5671,684,6,35,10,1.358372254952329
undo,27,32,0,0,0,16,"[0, 19, 13, 15, 28, 12, 16]",7,13,"[2, 3, 5, 8, 9, 10, 11, 17, 20, 22, 24, 26, 27]",131.411457,6386,715,5,15,10,1.4356932930709845
undo,27,32,0,0,0,22,"[0, 19, 13, 15, 28, 12, 16, 22]",8,6,"[2, 8, 9, 17, 20, 27]",97.57360838,7218,832,3,5,10,1.4335226411545752
undo,27,32,0,0,0,9,"[0, 19, 13, 15, 28, 12, 16, 22, 9]",9,3,"[2, 8, 20]",75.37000507,7858,640,3,0,10,1.4837166378374758
undo,27,32,0,0,1,8,"[0, 19, 13, 15, 28, 12, 16, 22, 9, 8]",10,0,[],30.24794838,8735,877,1,0,10,1.3767698817641267
undo,27,32,0,1,1,8,"[0, 19, 13, 15, 28, 12, 16, 22, 9, 8]",10,0,[],30.24794838,10330,1595,1,0,10,1.3767698817641267
undo,28,17,0,0,0,0,[0],1,28,"[1, 2, 3, 4, 5, 6, 7, 8, 9, 10, 11, 12, 13, 14, 15, 16, 17, 18, 19, 20, 22, 23, 24, 25, 26, 27, 28, 29]",300,130,-1,2,73,8,0.0
undo,28,17,0,0,0,9,"[0, 9]",2,25,"[1, 2, 3, 5, 6, 7, 8, 10, 11, 12, 14, 15, 16, 17, 18, 19, 20, 22, 23, 24, 25, 26, 27, 28, 29]",210.5293344,1519,1389,1,34,8,1.0
undo,28,17,0,0,0,16,"[0, 9, 16]",3,21,"[1, 2, 3, 5, 7, 8, 10, 11, 12, 14, 17, 18, 19, 20, 22, 23, 25, 26, 27, 28, 29]",197.1876704,2150,631,1,26,8,1.173103464220352
undo,28,17,0,0,0,2,"[0, 9, 16, 2]",4,18,"[1, 3, 5, 7, 8, 10, 11, 12, 14, 17, 18, 19, 23, 25, 26, 27, 28, 29]",181.0631549,2734,584,1,23,8,1.14825089247282
undo,28,17,0,0,0,17,"[0, 9, 16, 2, 17]",5,7,"[7, 8, 12, 14, 26, 27, 29]",142.7356191,3394,660,4,5,7,1.4896040699768547
undo,28,17,0,0,0,8,"[0, 9, 16, 2, 17, 8]",6,3,"[7, 12, 27]",104.5256727,4124,730,3,0,7,1.4604726966175894
undo,28,17,0,0,1,7,"[0, 9, 16, 2, 17, 8, 7]",7,0,[],33.81499459,5033,909,1,0,7,1.4474701869793896
undo,28,17,0,1,1,7,"[0, 9, 16, 2, 17, 8, 7]",7,0,[],33.81499459,6847,1814,1,0,7,1.4474701869793896
undo,29,31,0,0,0,0,[0],1,27,"[1, 3, 4, 5, 6, 7, 8, 10, 11, 12, 13, 14, 15, 16, 17, 18, 19, 20, 21, 22, 23, 24, 25, 26, 27, 28, 29]",300,133,-1,2,87,10,0.0
undo,29,31,0,0,0,14,"[0, 14]",2,25,"[1, 3, 5, 6, 7, 8, 10, 11, 12, 13, 15, 16, 17, 18, 19, 20, 21, 22, 23, 24, 25, 26, 27, 28, 29]",263.861378,2153,2020,2,59,10,1.0
undo,29,31,0,0,0,27,"[0, 14, 27]",3,22,"[1, 3, 5, 6, 7, 8, 10, 11, 12, 13, 15, 16, 17, 18, 19, 20, 21, 22, 24, 25, 28, 29]",235.6833724,2908,755,1,39,10,1.5881859159302467
undo,29,31,0,0,0,8,"[0, 14, 27, 8]",4,20,"[1, 3, 5, 6, 7, 10, 11, 12, 13, 16, 17, 18, 19, 20, 21, 22, 24, 25, 28, 29]",224.6380114,3480,572,1,36,10,2.1665048452331277
undo,29,31,0,0,0,18,"[0, 14, 27, 8, 18]",5,15,"[1, 5, 6, 7, 11, 12, 13, 16, 17, 19, 20, 22, 25, 28, 29]",188.7911147,4219,739,1,26,10,1.7273375741920205
undo,29,31,0,0,0,17,"[0, 14, 27, 8, 18, 17]",6,13,"[1, 5, 6, 7, 11, 12, 13, 16, 19, 20, 22, 25, 28]",159.584951,4741,522,1,13,10,1.551192427769927
undo,29,31,0,0,0,11,"[0, 14, 27, 8, 18, 17, 11]",7,7,"[5, 12, 16, 19, 22, 25, 28]",118.4753414,5854,1113,1,4,10,2.9650760544203494
undo,29,31,0,0,0,5,"[0, 14, 27, 8, 18, 17, 11, 5]",8,2,"[16, 28]",74.79468207,6687,833,1,1,10,2.56711965625205
undo,29,31,0,0,0,28,"[0, 14, 27, 8, 18, 17, 11, 5, 28]",9,1,[16],54.57093365,7427,740,1,0,10,2.2865510762058148
undo,29,31,0,0,1,16,"[0, 14, 27, 8, 18, 17, 11, 5, 28, 16]",10,0,[],20.95546102,8153,726,1,0,10,2.089356850786318
undo,29,31,0,1,1,16,"[0, 14, 27, 8, 18, 17, 11, 5, 28, 16]",10,0,[],20.95546102,10300,2147,1,0,10,2.089356850786318
undo,30,16,0,0,0,0,[0],1,29,"[1, 2, 3, 4, 5, 6, 7, 8, 9, 10, 11, 12, 13, 14, 15, 16, 17, 18, 19, 20, 21, 22, 23, 24, 25, 26, 27, 28, 29]",300,131,-1,13,161,9,0.0
undo,30,16,0,0,0,28,"[0, 28]",2,27,"[1, 2, 3, 4, 5, 7, 8, 9, 10, 11, 12, 13, 14, 15, 16, 17, 18, 19, 20, 21, 22, 23, 24, 25, 26, 27, 29]",284.3475242,3219,3088,11,92,9,1.0
undo,30,16,0,0,0,17,"[0, 28, 17]",3,26,"[1, 2, 3, 4, 5, 7, 8, 9, 10, 11, 12, 13, 14, 15, 16, 18, 19, 20, 21, 22, 23, 24, 25, 26, 27, 29]",219.1555001,3984,765,10,46,9,1.3773866384707543
undo,30,16,0,0,0,16,"[0, 28, 17, 16]",4,25,"[1, 2, 3, 4, 5, 7, 8, 9, 10, 11, 12, 13, 14, 15, 18, 19, 20, 21, 22, 23, 24, 25, 26, 27, 29]",190.8358956,4713,729,10,34,9,1.3209953830681203
undo,30,16,0,0,0,21,"[0, 28, 17, 16, 21]",5,13,"[3, 5, 7, 8, 9, 10, 12, 15, 20, 22, 25, 26, 29]",146.1816685,6469,1756,4,7,9,1.8136482702070456
undo,30,16,0,0,0,8,"[0, 28, 17, 16, 21, 8]",6,6,"[5, 9, 12, 15, 20, 25]",96.92722704,7222,753,4,2,9,1.637204572335983
undo,30,16,0,0,0,20,"[0, 28, 17, 16, 21, 8, 20]",7,2,"[9, 25]",39.15179974,8155,933,2,0,9,1.441590377328759
undo,30,16,0,0,0,25,"[0, 28, 17, 16, 21, 8, 20, 25]",8,1,[9],26.5026891,8790,635,1,0,9,1.484361110265371
undo,30,16,0,0,1,9,"[0, 28, 17, 16, 21, 8, 20, 25, 9]",9,0,[],13.69644062,9442,652,1,0,9,1.4530180692918209
undo,30,16,0,1,1,9,"[0, 28, 17, 16, 21, 8, 20, 25, 9]",9,0,[],13.69644062,10732,1290,1,0,9,1.4530180692918209
undo,31,8,0,0,0,0,[0],1,29,"[1, 2, 3, 4, 5, 6, 7, 8, 9, 10, 11, 12, 13, 14, 15, 16, 17, 18, 19, 20, 21, 22, 23, 24, 25, 26, 27, 28, 29]",300,165,-1,10,149,9,0.0
undo,31,8,0,0,0,5,"[0, 5]",2,28,"[1, 2, 3, 4, 6, 7, 8, 9, 10, 11, 12, 13, 14, 15, 16, 17, 18, 19, 20, 21, 22, 23, 24, 25, 26, 27, 28, 29]",254.5137383,2270,2105,10,100,9,1.0
undo,31,8,0,0,0,25,"[0, 5, 25]",3,20,"[1, 2, 3, 4, 6, 11, 12, 14, 15, 16, 17, 18, 19, 20, 21, 22, 23, 24, 28, 29]",215.3091468,4484,2214,4,42,9,1.2272747879909065
undo,31,8,0,0,0,1,"[0, 5, 25, 1]",4,17,"[3, 4, 6, 11, 12, 14, 15, 16, 17, 18, 20, 21, 22, 23, 24, 28, 29]",190.3091468,5151,667,3,24,9,1.1770245007593956
undo,31,8,0,0,0,23,"[0, 5, 25, 1, 23]",5,15,"[3, 4, 6, 11, 14, 15, 16, 17, 18, 20, 21, 22, 24, 28, 29]",167.2874179,5730,579,1,14,9,1.141996583852372
undo,31,8,0,0,0,18,"[0, 5, 25, 1, 23, 18]",6,9,"[3, 4, 11, 14, 15, 16, 17, 24, 28]",125.5261919,6396,666,1,7,9,1.3199166330970717
undo,31,8,0,0,0,28,"[0, 5, 25, 1, 23, 18, 28]",7,1,[16],59.906073,7223,827,1,0,8,1.425373059246715
undo,31,8,0,0,1,16,"[0, 5, 25, 1, 23, 18, 28, 16]",8,0,[],37.54539323,7779,556,1,0,8,1.4175143337764708
undo,31,8,1,0,0,28,"[0, 5, 25, 1, 23, 18, 28]",7,1,[16],59.906073,9399,1620,1,0,8,1.425373059246715
undo,31,8,1,0,0,18,"[0, 5, 25, 1, 23, 18]",6,9,"[3, 4, 11, 14, 15, 16, 17, 24, 28]",125.5261919,9581,182,1,7,9,1.3199166330970717
undo,31,8,0,0,0,14,"[0, 5, 25, 1, 23, 18, 14]",7,2,"[11, 17]",68.03706246,10601,1020,1,1,9,2.714920831666598
undo,31,8,0,0,0,17,"[0, 5, 25, 1, 23, 18, 14, 17]",8,1,[11],31.02355141,11928,1327,1,0,9,2.462600896722246
undo,31,8,0,0,1,11,"[0, 5, 25, 1, 23, 18, 14, 17, 11]",9,0,[],5.84419479,12804,876,1,0,9,2.246839316887767
undo,31,8,0,1,1,11,"[0, 5, 25, 1, 23, 18, 14, 17, 11]",9,0,[],5.84419479,15049,2245,1,0,9,2.246839316887767
undo,32,4,0,0,0,0,[0],1,26,"[3, 4, 5, 6, 7, 8, 10, 11, 12, 13, 14, 15, 16, 17, 18, 19, 20, 21, 22, 23, 24, 25, 26, 27, 28, 29]",300,113,-1,4,489,10,0.0
undo,32,4,0,0,0,28,"[0, 28]",2,21,"[3, 4, 5, 6, 10, 11, 12, 13, 14, 15, 16, 17, 19, 20, 21, 22, 23, 24, 25, 26, 27]",225.9392142,2712,2599,2,216,10,1.0
undo,32,4,0,0,0,14,"[0, 28, 14]",3,13,"[3, 4, 5, 6, 11, 13, 16, 17, 20, 21, 22, 24, 25]",159.6972335,3693,981,1,26,10,1.0273973946789214
undo,32,4,0,0,0,25,"[0, 28, 14, 25]",4,12,"[3, 4, 5, 6, 11, 13, 16, 17, 20, 21, 22, 24]",143.572718,4344,651,1,25,10,1.233547772313525
undo,32,4,0,0,0,11,"[0, 28, 14, 25, 11]",5,10,"[3, 4, 5, 6, 13, 16, 17, 20, 21, 22]",124.7844238,5132,788,1,15,10,1.425978575879479
undo,32,4,0,0,0,16,"[0, 28, 14, 25, 11, 16]",6,9,"[3, 4, 5, 6, 13, 17, 20, 21, 22]",109.7844238,6072,940,1,12,10,1.3799325158051412
undo,32,4,0,0,0,3,"[0, 28, 14, 25, 11, 16, 3]",7,2,"[17, 20]",68.15510719,7069,997,1,1,9,1.3292844629725955
undo,32,4,0,0,0,17,"[0, 28, 14, 25, 11, 16, 3, 17]",8,1,[20],43.63980585,7817,748,1,0,9,1.5639571149270572
undo,32,4,0,0,1,20,"[0, 28, 14, 25, 11, 16, 3, 17, 20]",9,0,[],3.415435124,8517,700,1,0,9,1.6231058358944275
undo,32,4,0,1,1,20,"[0, 28, 14, 25, 11, 16, 3, 17, 20]",9,0,[],3.415435124,9564,1047,1,0,9,1.6231058358944275
undo,33,15,0,0,0,0,[0],1,25,"[1, 2, 3, 4, 7, 8, 9, 10, 11, 12, 13, 14, 15, 16, 18, 20, 21, 22, 23, 24, 25, 26, 27, 28, 29]",300,131,-1,4,65,9,0.0
undo,33,15,0,0,0,7,"[0, 7]",2,23,"[1, 3, 4, 8, 9, 10, 11, 12, 13, 14, 15, 16, 18, 20, 21, 22, 23, 24, 25, 26, 27, 28, 29]",215.1884442,2972,2841,30,107,8,1.0
undo,33,15,0,0,0,16,"[0, 7, 16]",3,14,"[3, 4, 9, 10, 11, 12, 13, 14, 15, 18, 21, 22, 25, 27]",171.5306843,3622,650,11,27,8,1.1253230463291073
undo,33,15,0,0,0,11,"[0, 7, 16, 11]",4,10,"[3, 4, 12, 13, 14, 15, 18, 21, 22, 27]",145.5114606,4161,539,6,10,8,1.2441772230587118
undo,33,15,0,0,0,3,"[0, 7, 16, 11, 3]",5,8,"[4, 12, 13, 14, 15, 18, 21, 22]",134.1097064,4667,506,6,4,8,1.253153736954923
undo,33,15,0,0,0,22,"[0, 7, 16, 11, 3, 22]",6,5,"[4, 13, 14, 15, 18]",84.38043933,5439,772,2,3,8,1.249784727890499
undo,33,15,0,0,0,13,"[0, 7, 16, 11, 3, 22, 13]",7,1,[15],56.22018365,6028,589,1,0,8,1.2168322223118198
undo,33,15,0,0,1,15,"[0, 7, 16, 11, 3, 22, 13, 15]",8,0,[],40.95584612,6573,545,1,0,8,1.3190981999760136
undo,33,15,0,1,1,15,"[0, 7, 16, 11, 3, 22, 13, 15]",8,0,[],40.95584612,10664,4091,1,0,8,1.3190981999760136
undo,34,2,0,0,0,0,[0],1,23,"[1, 2, 4, 5, 6, 7, 8, 9, 12, 13, 15, 16, 17, 18, 19, 20, 22, 23, 25, 26, 27, 28, 29]",300,130,-1,70,620,10,0.0
undo,34,2,0,0,0,19,"[0, 19]",2,22,"[1, 2, 4, 5, 6, 7, 8, 9, 12, 13, 15, 16, 17, 18, 20, 22, 23, 25, 26, 27, 28, 29]",210.306076,1470,1340,67,431,10,1.0
undo,34,2,0,0,0,12,"[0, 19, 12]",3,17,"[1, 4, 5, 6, 7, 13, 15, 16, 17, 18, 20, 22, 25, 26, 27, 28, 29]",174.2921898,2235,765,66,298,10,1.1107635036313153
undo,34,2,0,0,0,5,"[0, 19, 12, 5]",4,11,"[1, 6, 7, 13, 15, 16, 18, 22, 25, 26, 29]",144.7625437,3039,804,38,136,10,1.0968174771581647
undo,34,2,0,0,0,22,"[0, 19, 12, 5, 22]",5,8,"[1, 6, 7, 13, 15, 18, 26, 29]",131.9562952,3634,595,20,63,10,1.0889910507461968
undo,34,2,0,0,0,13,"[0, 19, 12, 5, 22, 13]",6,7,"[1, 6, 7, 15, 18, 26, 29]",117.0902265,4156,522,19,20,10,1.236526217328057
undo,34,2,0,0,0,18,"[0, 19, 12, 5, 22, 13, 18]",7,4,"[7, 15, 26, 29]",81.91921567,5009,853,10,3,10,1.2128708213409936
undo,34,2,0,0,0,7,"[0, 19, 12, 5, 22, 13, 18, 7]",8,3,"[15, 26, 29]",71.62358553,5741,732,5,0,10,1.2019811287894737
undo,34,2,0,0,0,26,"[0, 19, 12, 5, 22, 13, 18, 7, 26]",9,2,"[15, 29]",48.82007703,6328,587,2,0,10,1.1883593342191134
undo,34,2,0,0,1,15,"[0, 19, 12, 5, 22, 13, 18, 7, 26, 15]",10,0,[],24.61264015,7140,812,1,0,10,1.4619750353663825
undo,34,2,0,1,1,15,"[0, 19, 12, 5, 22, 13, 18, 7, 26, 15]",10,0,[],24.61264015,9964,2824,1,0,10,1.4619750353663825
undo,35,35,0,0,0,0,[0],1,29,"[1, 2, 3, 4, 5, 6, 7, 8, 9, 10, 11, 12, 13, 14, 15, 16, 17, 18, 19, 20, 21, 22, 23, 24, 25, 26, 27, 28, 29]",300,130,-1,5,236,11,0.0
undo,35,35,0,0,0,27,"[0, 27]",2,27,"[1, 2, 4, 5, 6, 7, 8, 9, 10, 11, 12, 13, 14, 15, 16, 17, 18, 19, 20, 21, 22, 23, 24, 25, 26, 28, 29]",278.7867966,1684,1554,5,144,11,1.0
undo,35,35,0,0,0,24,"[0, 27, 24]",3,25,"[1, 2, 4, 5, 6, 7, 8, 9, 10, 11, 12, 13, 15, 16, 17, 18, 19, 20, 21, 22, 23, 25, 26, 28, 29]",234.6053525,2423,739,3,80,11,2.1084080567904624
undo,35,35,0,0,0,17,"[0, 27, 24, 17]",4,20,"[1, 2, 4, 5, 6, 7, 8, 9, 10, 15, 16, 18, 19, 20, 21, 23, 25, 26, 28, 29]",222.9006526,2905,482,3,50,11,1.9439555968916868
undo,35,35,0,0,0,1,"[0, 27, 24, 17, 1]",5,18,"[2, 4, 5, 6, 8, 9, 10, 15, 16, 18, 19, 20, 21, 23, 25, 26, 28, 29]",207.0892643,3436,531,3,39,11,1.9436711872547336
undo,35,35,0,0,0,15,"[0, 27, 24, 17, 1, 15]",6,16,"[2, 4, 5, 6, 8, 9, 10, 16, 18, 19, 20, 23, 25, 26, 28, 29]",184.241945,5166,1730,3,24,11,2.082774572108194
undo,35,35,0,0,0,23,"[0, 27, 24, 17, 1, 15, 23]",7,7,"[5, 6, 9, 18, 19, 25, 26]",123.801892,5856,690,3,14,11,1.657239080954205
undo,35,35,0,0,0,6,"[0, 27, 24, 17, 1, 15, 23, 6]",8,3,"[9, 18, 25]",78.15104318,6508,652,1,4,11,1.4670445391994238
undo,35,35,0,0,0,25,"[0, 27, 24, 17, 1, 15, 23, 6, 25]",9,2,"[9, 18]",54.13021888,7184,676,1,1,11,1.5182643905144335
undo,35,35,0,0,0,18,"[0, 27, 24, 17, 1, 15, 23, 6, 25, 18]",10,1,[9],20.29237025,8011,827,1,0,11,2.1744919440125114
undo,35,35,0,0,1,9,"[0, 27, 24, 17, 1, 15, 23, 6, 25, 18, 9]",11,0,[],0.267385855,8807,796,1,0,11,2.6663183938115433
undo,35,35,0,1,1,9,"[0, 27, 24, 17, 1, 15, 23, 6, 25, 18, 9]",11,0,[],0.267385855,11180,2373,1,0,11,2.6663183938115433
undo,36,9,0,0,0,0,[0],1,27,"[1, 3, 4, 5, 6, 7, 8, 9, 10, 11, 13, 14, 15, 16, 17, 18, 19, 20, 21, 22, 23, 24, 25, 26, 27, 28, 29]",300,132,-1,2,182,10,0.0
undo,36,9,0,0,0,9,"[0, 9]",2,26,"[1, 3, 4, 5, 6, 7, 8, 10, 11, 13, 14, 15, 16, 17, 18, 19, 20, 21, 22, 23, 24, 25, 26, 27, 28, 29]",225.5352432,2553,2421,2,101,9,1.0
undo,36,9,0,0,0,23,"[0, 9, 23]",3,22,"[1, 3, 4, 5, 7, 8, 10, 11, 13, 15, 16, 17, 18, 19, 20, 21, 22, 24, 25, 26, 27, 28]",203.1745635,3124,571,2,70,9,1.6262276606762436
undo,36,9,0,0,0,8,"[0, 9, 23, 8]",4,18,"[3, 4, 5, 7, 10, 11, 15, 16, 17, 18, 19, 20, 21, 22, 25, 26, 27, 28]",181.7036529,3703,579,1,36,9,1.8547307061753238
undo,36,9,0,0,0,28,"[0, 9, 23, 8, 28]",5,17,"[3, 4, 5, 7, 10, 11, 15, 16, 17, 18, 19, 20, 21, 22, 25, 26, 27]",170.8869991,4219,516,1,23,9,1.7382749966569708
undo,36,9,0,0,0,26,"[0, 9, 23, 8, 28, 26]",6,10,"[3, 5, 10, 15, 16, 18, 19, 20, 21, 25]",126.1097727,4893,674,4,7,8,1.4884719959249546
undo,36,9,0,0,0,21,"[0, 9, 23, 8, 28, 26, 21]",7,1,[20],72.20244484,5746,853,1,0,8,1.9218119811471304
undo,36,9,0,0,1,20,"[0, 9, 23, 8, 28, 26, 21, 20]",8,0,[],60.11939886,6204,458,1,0,8,1.8940565724013747
undo,36,9,1,0,0,21,"[0, 9, 23, 8, 28, 26, 21]",7,1,[20],72.20244484,10182,3978,1,0,8,1.9218119811471304
undo,36,9,1,0,0,26,"[0, 9, 23, 8, 28, 26]",6,10,"[3, 5, 10, 15, 16, 18, 19, 20, 21, 25]",126.1097727,10331,149,4,7,8,1.4884719959249546
undo,36,9,1,0,0,28,"[0, 9, 23, 8, 28]",5,17,"[3, 4, 5, 7, 10, 11, 15, 16, 17, 18, 19, 20, 21, 22, 25, 26, 27]",170.8869991,10481,150,1,23,9,1.7382749966569708
undo,36,9,1,0,0,8,"[0, 9, 23, 8]",4,18,"[3, 4, 5, 7, 10, 11, 15, 16, 17, 18, 19, 20, 21, 22, 25, 26, 27, 28]",181.7036529,10665,184,1,36,9,1.8547307061753238
undo,36,9,1,0,0,23,"[0, 9, 23]",3,22,"[1, 3, 4, 5, 7, 8, 10, 11, 13, 15, 16, 17, 18, 19, 20, 21, 22, 24, 25, 26, 27, 28]",203.1745635,10998,333,2,70,9,1.6262276606762436
undo,36,9,1,0,0,9,"[0, 9]",2,26,"[1, 3, 4, 5, 6, 7, 8, 10, 11, 13, 14, 15, 16, 17, 18, 19, 20, 21, 22, 23, 24, 25, 26, 27, 28, 29]",225.5352432,11148,150,2,101,9,1.0
undo,36,9,1,0,0,0,[0],1,27,"[1, 3, 4, 5, 6, 7, 8, 9, 10, 11, 13, 14, 15, 16, 17, 18, 19, 20, 21, 22, 23, 24, 25, 26, 27, 28, 29]",300,11549,401,2,182,10,0.0
undo,36,9,0,0,0,25,"[0, 25]",2,24,"[1, 3, 4, 5, 6, 7, 8, 9, 10, 11, 13, 15, 16, 17, 18, 19, 20, 21, 22, 23, 24, 26, 27, 28]",275.9168108,12910,1361,2,104,10,1.0
undo,36,9,0,0,0,10,"[0, 25, 10]",3,20,"[3, 4, 5, 7, 8, 9, 11, 13, 15, 16, 17, 18, 19, 20, 21, 22, 23, 26, 27, 28]",236.0670932,14855,1945,2,76,10,1.1767014107208227
undo,36,9,0,0,0,9,"[0, 25, 10, 9]",4,15,"[3, 4, 5, 7, 8, 11, 18, 19, 20, 21, 22, 23, 26, 27, 28]",150.5744034,15691,836,4,26,9,2.006661984709317
undo,36,9,0,0,0,23,"[0, 25, 10, 9, 23]",5,12,"[4, 7, 8, 11, 18, 19, 20, 21, 22, 26, 27, 28]",128.2137236,16512,821,4,12,9,2.8852293829447864
undo,36,9,0,0,0,8,"[0, 25, 10, 9, 23, 8]",6,7,"[7, 20, 21, 22, 26, 27, 28]",106.7428131,17509,997,2,4,9,3.0300178113656524
undo,36,9,0,0,0,28,"[0, 25, 10, 9, 23, 8, 28]",7,3,"[20, 21, 26]",95.92615925,18072,563,2,1,9,2.74748826512235
undo,36,9,0,0,0,21,"[0, 25, 10, 9, 23, 8, 28, 21]",8,1,[20],42.92615925,18804,732,1,0,9,2.168801095542273
undo,36,9,0,0,1,20,"[0, 25, 10, 9, 23, 8, 28, 21, 20]",9,0,[],30.84311328,19511,707,1,0,9,2.1252171616894433
undo,36,9,0,1,1,20,"[0, 25, 10, 9, 23, 8, 28, 21, 20]",9,0,[],30.84311328,21132,1621,1,0,9,2.1252171616894433
undo,37,28,0,0,0,0,[0],1,27,"[1, 2, 3, 4, 5, 6, 7, 8, 9, 10, 11, 12, 13, 14, 15, 16, 17, 18, 19, 20, 22, 23, 25, 26, 27, 28, 29]",300,128,-1,2,96,9,0.0
undo,37,28,0,0,0,3,"[0, 3]",2,26,"[1, 2, 4, 5, 6, 7, 8, 9, 10, 11, 12, 13, 14, 15, 16, 17, 18, 19, 20, 22, 23, 25, 26, 27, 28, 29]",251.0817008,2259,2131,1,64,9,1.0
undo,37,28,0,0,0,14,"[0, 3, 14]",3,13,"[1, 2, 5, 7, 10, 11, 12, 13, 17, 18, 19, 20, 26]",142.7396498,3087,828,19,59,8,1.0338694802207566
undo,37,28,0,0,0,18,"[0, 3, 14, 18]",4,10,"[1, 2, 5, 7, 11, 12, 13, 17, 19, 26]",117.2445523,3699,612,18,18,8,1.098527225277385
undo,37,28,0,0,0,13,"[0, 3, 14, 18, 13]",5,7,"[2, 7, 11, 12, 17, 19, 26]",92.83144103,4421,722,8,6,8,1.0872780601597938
undo,37,28,0,0,0,12,"[0, 3, 14, 18, 13, 12]",6,3,"[2, 7, 19]",75.6267905,5048,627,3,1,8,1.0890748557820906
undo,37,28,0,0,0,7,"[0, 3, 14, 18, 13, 12, 7]",7,2,"[2, 19]",62.47384406,5684,636,2,0,8,1.2125627495730145
undo,37,28,0,0,1,19,"[0, 3, 14, 18, 13, 12, 7, 19]",8,0,[],34.74299481,6433,749,1,0,8,1.4527925513951803
undo,37,28,1,0,0,7,"[0, 3, 14, 18, 13, 12, 7]",7,2,"[2, 19]",62.47384406,10211,3778,2,0,8,1.2125627495730145
undo,37,28,1,0,0,12,"[0, 3, 14, 18, 13, 12]",6,3,"[2, 7, 19]",75.6267905,10379,168,3,1,8,1.0890748557820906
undo,37,28,1,0,0,13,"[0, 3, 14, 18, 13]",5,7,"[2, 7, 11, 12, 17, 19, 26]",92.83144103,10546,167,8,6,8,1.0872780601597938
undo,37,28,1,0,0,18,"[0, 3, 14, 18]",4,10,"[1, 2, 5, 7, 11, 12, 13, 17, 19, 26]",117.2445523,10728,182,18,18,8,1.098527225277385
undo,37,28,1,0,0,14,"[0, 3, 14]",3,13,"[1, 2, 5, 7, 10, 11, 12, 13, 17, 18, 19, 20, 26]",142.7396498,10928,200,19,59,8,1.0338694802207566
undo,37,28,1,0,0,3,"[0, 3]",2,26,"[1, 2, 4, 5, 6, 7, 8, 9, 10, 11, 12, 13, 14, 15, 16, 17, 18, 19, 20, 22, 23, 25, 26, 27, 28, 29]",251.0817008,11562,634,1,64,9,1.0
undo,37,28,0,0,0,5,"[0, 3, 5]",3,20,"[2, 4, 6, 7, 8, 9, 10, 11, 12, 13, 14, 15, 18, 19, 20, 23, 25, 26, 28, 29]",166.9865166,12192,630,1,34,9,1.0203769473612083
undo,37,28,0,0,0,26,"[0, 3, 5, 26]",4,13,"[2, 4, 7, 8, 9, 12, 13, 14, 18, 19, 20, 25, 28]",134.2298379,13842,1650,1,28,9,1.0315203228799597
undo,37,28,0,0,0,19,"[0, 3, 5, 26, 19]",5,7,"[2, 7, 9, 12, 13, 14, 18]",93.22983789,14549,707,1,17,9,1.1324645362297356
undo,37,28,0,0,0,7,"[0, 3, 5, 26, 19, 7]",6,5,"[2, 12, 13, 14, 18]",65.49898864,15299,750,1,6,9,1.1971194919020265
undo,37,28,0,0,0,12,"[0, 3, 5, 26, 19, 7, 12]",7,2,"[13, 18]",52.3460422,15982,683,1,1,9,1.2020762147848982
undo,37,28,0,0,0,13,"[0, 3, 5, 26, 19, 7, 12, 13]",8,1,[18],35.14139167,16576,594,1,0,9,1.39005144078531
undo,37,28,0,0,1,18,"[0, 3, 5, 26, 19, 7, 12, 13, 18]",9,0,[],10.72828044,17250,674,1,0,9,1.738787343626007
undo,37,28,0,1,1,18,"[0, 3, 5, 26, 19, 7, 12, 13, 18]",9,0,[],10.72828044,18479,1229,1,0,9,1.738787343626007
undo,38,0,0,0,0,0,[0],1,27,"[2, 3, 4, 5, 6, 7, 8, 9, 10, 11, 12, 13, 14, 15, 16, 17, 19, 20, 21, 22, 23, 24, 25, 26, 27, 28, 29]",300,131,-1,104,1136,9,0.0
undo,38,0,0,0,0,28,"[0, 28]",2,26,"[2, 3, 4, 5, 6, 7, 8, 9, 10, 11, 12, 13, 14, 15, 16, 17, 19, 20, 21, 22, 23, 24, 25, 26, 27, 29]",194.9190788,2234,2103,39,388,9,1.0
undo,38,0,0,0,0,5,"[0, 28, 5]",3,21,"[2, 3, 4, 7, 8, 9, 11, 12, 13, 14, 15, 16, 17, 19, 20, 21, 23, 24, 25, 26, 29]",151.2613189,2869,635,27,210,9,1.0978295127671733
undo,38,0,0,0,0,4,"[0, 28, 5, 4]",4,16,"[3, 7, 8, 9, 11, 12, 13, 14, 15, 17, 19, 20, 21, 23, 24, 26]",126.1814465,3923,1054,17,114,9,1.1103727063761901
undo,38,0,0,0,0,26,"[0, 28, 5, 4, 26]",5,14,"[3, 7, 8, 9, 11, 12, 13, 14, 15, 17, 19, 20, 23, 24]",114.1398519,4485,562,7,54,9,1.1504454351688815
undo,38,0,0,0,0,24,"[0, 28, 5, 4, 26, 24]",6,11,"[3, 7, 8, 9, 11, 12, 15, 17, 19, 20, 23]",97.02260914,5645,1160,7,22,9,1.2166555899566422
undo,38,0,0,0,0,15,"[0, 28, 5, 4, 26, 24, 15]",7,7,"[3, 7, 8, 9, 11, 12, 17]",73.67737408,6522,877,4,5,9,1.1972898774231708
undo,38,0,0,0,0,8,"[0, 28, 5, 4, 26, 24, 15, 8]",8,2,"[3, 7]",34.56215965,7324,802,2,0,9,1.1931748985147093
undo,38,0,0,0,1,7,"[0, 28, 5, 4, 26, 24, 15, 8, 7]",9,0,[],15.45718647,8040,716,1,0,9,1.3879476726794748
undo,38,0,0,1,1,7,"[0, 28, 5, 4, 26, 24, 15, 8, 7]",9,0,[],15.45718647,8932,892,1,0,9,1.3879476726794748
undo,39,18,0,0,0,0,[0],1,28,"[1, 2, 3, 4, 5, 6, 7, 8, 9, 10, 11, 12, 13, 14, 16, 17, 18, 19, 20, 21, 22, 23, 24, 25, 26, 27, 28, 29]",300,130,-1,3,136,10,0.0
undo,39,18,0,0,0,28,"[0, 28]",2,16,"[1, 3, 5, 7, 8, 9, 12, 13, 14, 16, 20, 23, 24, 25, 26, 27]",236.4311397,1759,1629,2,19,10,1.0
undo,39,18,0,0,0,7,"[0, 28, 7]",3,15,"[1, 3, 5, 8, 9, 12, 13, 14, 16, 20, 23, 24, 25, 26, 27]",214.4084242,2450,691,2,17,10,1.4345180696367563
undo,39,18,0,0,0,25,"[0, 28, 7, 25]",4,13,"[1, 3, 5, 8, 9, 12, 13, 14, 16, 20, 23, 26, 27]",186.6055466,3134,684,2,15,10,1.8896451241781882
undo,39,18,0,0,0,8,"[0, 28, 7, 25, 8]",5,10,"[3, 5, 9, 12, 13, 14, 16, 23, 26, 27]",149.551532,3825,691,2,10,10,1.590467437592877
undo,39,18,0,0,0,13,"[0, 28, 7, 25, 8, 13]",6,9,"[3, 5, 9, 12, 14, 16, 23, 26, 27]",128.4565089,4621,796,2,5,10,1.8248274983549797
undo,39,18,0,0,0,14,"[0, 28, 7, 25, 8, 13, 14]",7,7,"[3, 5, 9, 12, 23, 26, 27]",109.4828429,5144,523,2,3,10,1.6993534956692746
undo,39,18,0,0,0,3,"[0, 28, 7, 25, 8, 13, 14, 3]",8,3,"[5, 12, 27]",79.39962499,5786,642,2,1,10,1.802637206541468
undo,39,18,0,0,0,5,"[0, 28, 7, 25, 8, 13, 14, 3, 5]",9,1,[12],21.21887216,6608,822,1,0,10,1.559774889743805
undo,39,18,0,0,1,12,"[0, 28, 7, 25, 8, 13, 14, 3, 5, 12]",10,0,[],9.817117911,7307,699,1,0,10,1.563993037384447
undo,39,18,0,1,1,12,"[0, 28, 7, 25, 8, 13, 14, 3, 5, 12]",10,0,[],9.817117911,8364,1057,1,0,10,1.563993037384447
undo,40,44,0,0,0,0,[0],1,29,"[1, 2, 3, 4, 5, 6, 7, 8, 9, 10, 11, 12, 13, 14, 15, 16, 17, 18, 19, 20, 21, 22, 23, 24, 25, 26, 27, 28, 29]",300,166,-1,13,126,7,0.0
undo,40,44,0,0,0,8,"[0, 8]",2,17,"[1, 4, 5, 7, 9, 10, 11, 12, 13, 14, 15, 20, 21, 23, 24, 25, 27]",145.7923478,3565,3399,1,10,7,1.0
undo,40,44,0,0,0,20,"[0, 8, 20]",3,16,"[1, 4, 5, 7, 9, 10, 11, 12, 13, 14, 15, 21, 23, 24, 25, 27]",133.7093018,4128,563,1,9,7,1.0890794433668698
undo,40,44,0,0,0,9,"[0, 8, 20, 9]",4,7,"[4, 7, 11, 12, 14, 23, 24]",76.43801756,4980,852,1,6,7,1.40892325509949
undo,40,44,0,0,0,4,"[0, 8, 20, 9, 4]",5,4,"[7, 12, 23, 24]",56.74030196,6676,1696,1,3,7,1.3849770570803555
undo,40,44,0,0,0,7,"[0, 8, 20, 9, 4, 7]",6,1,[23],25.72417712,7452,776,1,0,7,1.3274380931474288
undo,40,44,0,0,1,23,"[0, 8, 20, 9, 4, 7, 23]",7,0,[],6.619203947,8020,568,1,0,7,1.3395824779823196
undo,40,44,1,0,0,7,"[0, 8, 20, 9, 4, 7]",6,1,[23],25.72417712,9649,1629,1,0,7,1.3274380931474288
undo,40,44,1,0,0,4,"[0, 8, 20, 9, 4]",5,4,"[7, 12, 23, 24]",56.74030196,9814,165,1,3,7,1.3849770570803555
undo,40,44,1,0,0,9,"[0, 8, 20, 9]",4,7,"[4, 7, 11, 12, 14, 23, 24]",76.43801756,10000,186,1,6,7,1.40892325509949
undo,40,44,1,0,0,20,"[0, 8, 20]",3,16,"[1, 4, 5, 7, 9, 10, 11, 12, 13, 14, 15, 21, 23, 24, 25, 27]",133.7093018,10166,166,1,9,7,1.0890794433668698
undo,40,44,1,0,0,8,"[0, 8]",2,17,"[1, 4, 5, 7, 9, 10, 11, 12, 13, 14, 15, 20, 21, 23, 24, 25, 27]",145.7923478,10365,199,1,10,7,1.0
undo,40,44,1,0,0,0,[0],1,29,"[1, 2, 3, 4, 5, 6, 7, 8, 9, 10, 11, 12, 13, 14, 15, 16, 17, 18, 19, 20, 21, 22, 23, 24, 25, 26, 27, 28, 29]",300,10766,401,13,126,7,0.0
undo,40,44,0,0,0,11,"[0, 11]",2,18,"[4, 5, 6, 7, 8, 9, 12, 14, 16, 17, 19, 20, 22, 23, 24, 25, 26, 28]",152.7790776,13319,2553,5,34,7,1.0
undo,40,44,0,0,0,24,"[0, 11, 24]",3,13,"[4, 5, 7, 8, 9, 12, 14, 17, 20, 22, 23, 25, 28]",125.8532535,14486,1167,5,23,7,1.1588941745226709
undo,40,44,0,0,0,9,"[0, 11, 24, 9]",4,7,"[4, 7, 8, 12, 14, 20, 23]",93.09657483,15168,682,2,8,7,1.3039383713641313
undo,40,44,0,0,0,4,"[0, 11, 24, 9, 4]",5,5,"[7, 12, 14, 20, 23]",73.39885923,15785,617,2,3,7,1.2901330701441578
undo,40,44,0,0,0,7,"[0, 11, 24, 9, 4, 7]",6,1,[23],42.38273439,16469,684,1,0,7,1.2468141312360979
undo,40,44,0,0,1,23,"[0, 11, 24, 9, 4, 7, 23]",7,0,[],23.27776121,17554,1085,1,0,7,1.2635191782769477
undo,40,44,0,1,1,23,"[0, 11, 24, 9, 4, 7, 23]",7,0,[],23.27776121,18699,1145,1,0,7,1.2635191782769477
undo,41,27,0,0,0,0,[0],1,26,"[1, 3, 5, 6, 7, 8, 9, 10, 11, 12, 13, 14, 15, 16, 17, 18, 19, 21, 22, 23, 24, 25, 26, 27, 28, 29]",300,130,-1,13,578,11,0.0
undo,41,27,0,0,0,15,"[0, 15]",2,24,"[1, 3, 5, 6, 7, 8, 9, 10, 11, 12, 13, 14, 16, 17, 18, 19, 21, 22, 23, 24, 25, 26, 27, 29]",263.7508621,1843,1713,6,219,11,1.0
undo,41,27,0,0,0,24,"[0, 15, 24]",3,20,"[1, 5, 6, 7, 8, 9, 10, 12, 13, 14, 16, 17, 18, 19, 21, 23, 25, 26, 27, 29]",246.5462115,2532,689,6,130,11,1.130933077698322
undo,41,27,0,0,0,17,"[0, 15, 24, 17]",4,15,"[1, 6, 8, 10, 12, 13, 14, 16, 18, 19, 23, 25, 26, 27, 29]",229.9932662,3571,1039,4,60,11,1.1285538435963374
undo,41,27,0,0,0,12,"[0, 15, 24, 17, 12]",5,14,"[1, 6, 8, 10, 13, 14, 16, 18, 19, 23, 25, 26, 27, 29]",218.8129263,4296,725,2,32,11,1.2561880288755216
undo,41,27,0,0,0,10,"[0, 15, 24, 17, 12, 10]",6,11,"[1, 8, 13, 14, 18, 19, 23, 25, 26, 27, 29]",207.7675653,4931,635,2,28,11,1.2228289337766665
undo,41,27,0,0,0,13,"[0, 15, 24, 17, 12, 10, 13]",7,9,"[1, 8, 14, 18, 19, 23, 26, 27, 29]",167.9178476,6474,1543,2,18,11,1.3421291994761178
undo,41,27,0,0,0,19,"[0, 15, 24, 17, 12, 10, 13, 19]",8,5,"[1, 8, 14, 23, 29]",131.6825057,7559,1085,2,6,11,1.294749956153846
undo,41,27,0,0,0,8,"[0, 15, 24, 17, 12, 10, 13, 19, 8]",9,3,"[14, 23, 29]",116.816437,8185,626,2,1,11,1.3554286578836865
undo,41,27,0,0,0,29,"[0, 15, 24, 17, 12, 10, 13, 19, 8, 29]",10,1,[14],57.61339652,8869,684,1,0,11,1.248354519573802
undo,41,27,0,0,1,14,"[0, 15, 24, 17, 12, 10, 13, 19, 8, 29, 14]",11,0,[],13.31892734,9683,814,1,0,11,1.562811097555156
undo,41,27,0,1,1,14,"[0, 15, 24, 17, 12, 10, 13, 19, 8, 29, 14]",11,0,[],13.31892734,11330,1647,1,0,11,1.562811097555156
undo,42,5,0,0,0,0,[0],1,29,"[1, 2, 3, 4, 5, 6, 7, 8, 9, 10, 11, 12, 13, 14, 15, 16, 17, 18, 19, 20, 21, 22, 23, 24, 25, 26, 27, 28, 29]",300,130,-1,5,139,9,0.0
undo,42,5,0,0,0,12,"[0, 12]",2,22,"[2, 4, 5, 6, 8, 9, 10, 13, 14, 15, 16, 17, 18, 19, 21, 22, 23, 24, 25, 26, 27, 28]",228.3062067,3518,3388,1,27,9,1.0
undo,42,5,0,0,0,25,"[0, 12, 25]",3,21,"[2, 4, 5, 6, 8, 9, 10, 13, 14, 15, 16, 17, 18, 19, 21, 22, 23, 24, 26, 27, 28]",200.5213187,4370,852,1,20,9,1.584023303445617
undo,42,5,0,0,0,23,"[0, 12, 25, 23]",4,19,"[2, 4, 5, 6, 8, 9, 10, 13, 14, 15, 16, 17, 18, 19, 21, 22, 24, 26, 27]",182.0822298,5625,1255,1,14,9,2.3508446989254357
undo,42,5,0,0,0,24,"[0, 12, 25, 23, 24]",5,15,"[2, 4, 5, 6, 8, 9, 13, 14, 15, 17, 18, 19, 22, 26, 27]",158.995437,6308,683,1,12,9,1.9469752046288753
undo,42,5,0,0,0,17,"[0, 12, 25, 23, 24, 17]",6,7,"[4, 5, 6, 8, 15, 18, 19]",124.0097257,6984,676,1,8,9,1.6482276497563642
undo,42,5,0,0,0,5,"[0, 12, 25, 23, 24, 17, 5]",7,4,"[4, 6, 15, 18]",80.96323916,7820,836,1,3,9,1.4654649104389412
undo,42,5,0,0,1,15,"[0, 12, 25, 23, 24, 17, 5, 15]",8,0,[],40.93824697,8801,981,1,0,8,1.4660376450939663
undo,42,5,1,0,0,5,"[0, 12, 25, 23, 24, 17, 5]",7,4,"[4, 6, 15, 18]",80.96323916,10213,1412,1,3,9,1.4654649104389412
undo,42,5,0,0,0,4,"[0, 12, 25, 23, 24, 17, 5, 4]",8,1,[6],15.16050365,11189,976,1,0,9,1.6255060355828674
undo,42,5,0,0,1,6,"[0, 12, 25, 23, 24, 17, 5, 4, 6]",9,0,[],3.118909076,11833,644,1,0,9,1.7777310833772453
undo,42,5,0,1,1,6,"[0, 12, 25, 23, 24, 17, 5, 4, 6]",9,0,[],3.118909076,13713,1880,1,0,9,1.7777310833772453
undo,43,23,0,0,0,0,[0],1,28,"[1, 2, 3, 4, 5, 6, 7, 8, 9, 10, 11, 12, 13, 14, 15, 16, 17, 18, 19, 20, 21, 22, 23, 25, 26, 27, 28, 29]",300,130,-1,76,2626,10,0.0
undo,43,23,0,0,0,18,"[0, 18]",2,14,"[2, 5, 6, 7, 9, 10, 12, 13, 14, 19, 21, 22, 27, 29]",203.8958898,4476,4346,73,787,9,1.0
undo,43,23,1,0,0,0,[0],1,28,"[1, 2, 3, 4, 5, 6, 7, 8, 9, 10, 11, 12, 13, 14, 15, 16, 17, 18, 19, 20, 21, 22, 23, 25, 26, 27, 28, 29]",300,6763,2287,76,2626,10,0.0
undo,43,23,0,0,0,13,"[0, 13]",2,19,"[1, 2, 3, 5, 6, 7, 8, 9, 10, 12, 14, 17, 18, 19, 21, 22, 23, 27, 29]",189.3202819,7427,664,9,168,10,1.0
undo,43,23,0,0,0,12,"[0, 13, 12]",3,16,"[1, 2, 3, 6, 7, 8, 9, 10, 14, 17, 18, 21, 22, 23, 27, 29]",177.2372359,8021,594,9,96,10,1.0014195490503164
undo,43,23,0,0,0,6,"[0, 13, 12, 6]",4,9,"[2, 7, 9, 10, 14, 18, 22, 27, 29]",147.5555918,9044,1023,2,17,10,1.0146513975411646
undo,43,23,0,0,0,2,"[0, 13, 12, 6, 2]",5,8,"[7, 9, 10, 14, 18, 22, 27, 29]",129.1165028,9567,523,2,8,10,1.252271865214601
undo,43,23,0,0,0,9,"[0, 13, 12, 6, 2, 9]",6,7,"[7, 10, 14, 18, 22, 27, 29]",116.078098,10114,547,1,4,10,1.4077625583396691
undo,43,23,0,0,0,14,"[0, 13, 12, 6, 2, 9, 14]",7,5,"[7, 10, 22, 27, 29]",105.6377915,10700,586,1,3,10,1.3795313352500915
undo,43,23,0,0,0,29,"[0, 13, 12, 6, 2, 9, 14, 29]",8,2,"[7, 10]",58.20362662,11608,908,1,1,10,1.5679920543199335
undo,43,23,0,0,0,7,"[0, 13, 12, 6, 2, 9, 14, 29, 7]",9,1,[10],34.12043747,12318,710,1,0,10,1.5808251397817217
undo,43,23,0,0,1,10,"[0, 13, 12, 6, 2, 9, 14, 29, 7, 10]",10,0,[],6.661377032,13017,699,1,0,10,1.5347739273486019
undo,43,23,0,1,1,10,"[0, 13, 12, 6, 2, 9, 14, 29, 7, 10]",10,0,[],6.661377032,14680,1663,1,0,10,1.5347739273486019
undo,44,39,0,0,0,0,[0],1,28,"[1, 2, 3, 4, 5, 6, 7, 9, 10, 11, 12, 13, 14, 15, 16, 17, 18, 19, 20, 21, 22, 23, 24, 25, 26, 27, 28, 29]",300,129,-1,1,30,10,0.0
undo,44,39,0,0,0,29,"[0, 29]",2,26,"[1, 2, 3, 4, 5, 6, 7, 9, 10, 12, 13, 14, 15, 16, 17, 18, 19, 20, 21, 22, 23, 24, 25, 26, 27, 28]",243.0614366,1783,1654,8,104,9,1.0
undo,44,39,0,0,0,12,"[0, 29, 12]",3,18,"[1, 2, 4, 5, 7, 9, 10, 13, 14, 15, 16, 18, 19, 22, 23, 24, 26, 28]",182.5221931,3018,1235,5,54,9,1.0026200331524904
undo,44,39,0,0,0,10,"[0, 29, 12, 10]",4,16,"[1, 2, 4, 5, 7, 9, 13, 14, 15, 16, 18, 19, 22, 23, 24, 26]",147.0116313,3735,717,5,34,9,1.2874817019928908
undo,44,39,0,0,0,7,"[0, 29, 12, 10, 7]",5,10,"[1, 2, 5, 13, 16, 18, 19, 22, 24, 26]",113.5900814,4467,732,4,12,9,1.2250826263866774
undo,44,39,0,0,0,26,"[0, 29, 12, 10, 7, 26]",6,5,"[1, 16, 18, 19, 22]",94.90853971,5046,579,3,4,9,1.2697275353190085
undo,44,39,0,0,0,22,"[0, 29, 12, 10, 7, 26, 22]",7,2,"[16, 19]",77.18849457,5769,723,2,0,9,1.438961743955176
undo,44,39,0,0,0,16,"[0, 29, 12, 10, 7, 26, 22, 16]",8,1,[19],42.18849457,6461,692,1,0,9,1.3580882130477205
undo,44,39,0,0,1,19,"[0, 29, 12, 10, 7, 26, 22, 16, 19]",9,0,[],24.72424537,7017,556,1,0,9,1.3646589157842668
undo,44,39,0,1,1,19,"[0, 29, 12, 10, 7, 26, 22, 16, 19]",9,0,[],24.72424537,8131,1114,1,0,9,1.3646589157842668
undo,45,12,0,0,0,0,[0],1,29,"[1, 2, 3, 4, 5, 6, 7, 8, 9, 10, 11, 12, 13, 14, 15, 16, 17, 18, 19, 20, 21, 22, 23, 24, 25, 26, 27, 28, 29]",300,131,-1,2,32,9,0.0
undo,45,12,0,0,0,6,"[0, 6]",2,28,"[1, 2, 3, 4, 5, 7, 8, 9, 10, 11, 12, 13, 14, 15, 16, 17, 18, 19, 20, 21, 22, 23, 24, 25, 26, 27, 28, 29]",283.5987805,3673,3542,2,18,9,1.0
undo,45,12,0,0,0,25,"[0, 6, 25]",3,13,"[2, 4, 5, 7, 12, 14, 16, 19, 22, 23, 24, 27, 28]",193.4599986,4510,837,3,21,8,1.4358021344876182
undo,45,12,0,0,0,22,"[0, 6, 25, 22]",4,9,"[2, 4, 7, 12, 14, 16, 19, 24, 27]",121.2588906,5347,837,4,10,7,2.031017839754873
undo,45,12,0,0,0,16,"[0, 6, 25, 22, 16]",5,4,"[4, 12, 19, 27]",100.2588906,6000,653,3,2,7,2.2020152188081616
undo,45,12,0,0,0,4,"[0, 6, 25, 22, 16, 4]",6,2,"[12, 27]",66.05362787,6616,616,2,0,7,1.8729499758807084
undo,45,12,0,0,1,12,"[0, 6, 25, 22, 16, 4, 12]",7,0,[],23.86358165,7429,813,1,0,7,1.6713148530252862
undo,45,12,1,0,0,4,"[0, 6, 25, 22, 16, 4]",6,2,"[12, 27]",66.05362787,9963,2534,2,0,7,1.8729499758807084
undo,45,12,1,0,0,16,"[0, 6, 25, 22, 16]",5,4,"[4, 12, 19, 27]",100.2588906,10130,167,3,2,7,2.2020152188081616
undo,45,12,1,0,0,22,"[0, 6, 25, 22]",4,9,"[2, 4, 7, 12, 14, 16, 19, 24, 27]",121.2588906,10247,117,4,10,7,2.031017839754873
undo,45,12,1,0,0,25,"[0, 6, 25]",3,13,"[2, 4, 5, 7, 12, 14, 16, 19, 22, 23, 24, 27, 28]",193.4599986,10396,149,3,21,8,1.4358021344876182
undo,45,12,1,0,0,6,"[0, 6]",2,28,"[1, 2, 3, 4, 5, 7, 8, 9, 10, 11, 12, 13, 14, 15, 16, 17, 18, 19, 20, 21, 22, 23, 24, 25, 26, 27, 28, 29]",283.5987805,10564,168,2,18,9,1.0
undo,45,12,1,0,0,0,[0],1,29,"[1, 2, 3, 4, 5, 6, 7, 8, 9, 10, 11, 12, 13, 14, 15, 16, 17, 18, 19, 20, 21, 22, 23, 24, 25, 26, 27, 28, 29]",300,11114,550,2,32,9,0.0
undo,45,12,0,0,0,22,"[0, 22]",2,22,"[2, 4, 5, 6, 7, 9, 10, 12, 13, 14, 15, 16, 17, 18, 19, 21, 23, 24, 25, 27, 28, 29]",211.9943184,12500,1386,6,42,8,1.0
undo,45,12,0,0,0,16,"[0, 22, 16]",3,12,"[2, 4, 5, 6, 7, 12, 14, 19, 23, 24, 25, 27]",190.9943184,13036,536,6,24,8,1.2017164145167045
undo,45,12,0,0,0,4,"[0, 22, 16, 4]",4,9,"[2, 6, 7, 12, 14, 19, 24, 25, 27]",156.7890556,13624,588,6,14,8,1.146531713305579
undo,45,12,0,0,0,12,"[0, 22, 16, 4, 12]",5,4,"[14, 19, 24, 27]",114.5990094,14275,651,4,3,8,1.1221389456954312
undo,45,12,0,0,0,27,"[0, 22, 16, 4, 12, 27]",6,3,"[14, 19, 24]",90.24741807,14849,574,2,1,8,1.2262878338287035
undo,45,12,0,0,0,14,"[0, 22, 16, 4, 12, 27, 14]",7,1,[24],61.59432051,15722,873,1,0,8,1.2804562106751427
undo,45,12,0,0,1,24,"[0, 22, 16, 4, 12, 27, 14, 24]",8,0,[],44.38966997,16510,788,1,0,8,1.4322660007679802
undo,45,12,0,1,1,24,"[0, 22, 16, 4, 12, 27, 14, 24]",8,0,[],44.38966997,17648,1138,1,0,8,1.4322660007679802
undo,46,30,0,0,0,0,[0],1,19,"[3, 4, 5, 7, 9, 11, 16, 17, 18, 19, 20, 21, 22, 24, 25, 26, 27, 28, 29]",300,149,-1,5,41,8,0.0
undo,46,30,0,0,0,16,"[0, 16]",2,17,"[3, 5, 7, 9, 11, 17, 18, 19, 20, 21, 22, 24, 25, 26, 27, 28, 29]",219.3774225,3786,3637,5,34,8,1.0
undo,46,30,0,0,0,25,"[0, 16, 25]",3,10,"[3, 5, 7, 9, 11, 18, 19, 20, 27, 29]",115.0845656,4707,921,5,28,8,1.0336279544884488
undo,46,30,0,0,0,20,"[0, 16, 25, 20]",4,8,"[3, 5, 7, 9, 18, 19, 27, 29]",93.15285342,5263,556,4,14,8,1.0337964627284246
undo,46,30,0,0,0,27,"[0, 16, 25, 20, 27]",5,4,"[3, 5, 18, 29]",59.09408069,5872,609,4,6,8,1.1504365534848
undo,46,30,0,0,0,3,"[0, 16, 25, 20, 27, 3]",6,3,"[5, 18, 29]",39.98910751,7035,1163,4,0,8,1.1403876826835333
undo,46,30,0,0,0,29,"[0, 16, 25, 20, 27, 3, 29]",7,1,[18],21.38803228,7570,535,1,0,8,1.1443827771455848
undo,46,30,0,0,1,18,"[0, 16, 25, 20, 27, 3, 29, 18]",8,0,[],2.074824359,8156,586,1,0,8,1.2197761544023602
undo,46,30,0,1,1,18,"[0, 16, 25, 20, 27, 3, 29, 18]",8,0,[],2.074824359,9966,1810,1,0,8,1.2197761544023602
undo,47,43,0,0,0,0,[0],1,23,"[1, 2, 3, 4, 5, 6, 7, 9, 10, 11, 12, 14, 15, 16, 17, 19, 20, 21, 22, 23, 25, 27, 29]",300,131,-1,16,556,12,0.0
undo,47,43,0,0,0,29,"[0, 29]",2,22,"[1, 2, 3, 4, 5, 6, 7, 9, 10, 11, 12, 14, 15, 16, 17, 19, 20, 21, 22, 23, 25, 27]",277.909278,1769,1638,16,520,12,1.0
undo,47,43,0,0,0,20,"[0, 29, 20]",3,20,"[1, 2, 3, 4, 6, 7, 9, 10, 11, 12, 14, 15, 16, 17, 19, 21, 22, 23, 25, 27]",254.4785289,2452,683,15,422,12,1.082311746871282
undo,47,43,0,0,0,16,"[0, 29, 20, 16]",4,19,"[1, 2, 3, 4, 6, 7, 9, 10, 11, 12, 14, 15, 17, 19, 21, 22, 23, 25, 27]",231.8511119,3152,700,15,389,12,1.215201926898219
undo,47,43,0,0,0,11,"[0, 29, 20, 16, 11]",5,17,"[1, 2, 3, 4, 6, 7, 9, 10, 12, 14, 15, 17, 19, 21, 22, 23, 25]",196.7227758,4122,970,12,188,12,1.1349145516483516
undo,47,43,0,0,0,6,"[0, 29, 20, 16, 11, 6]",6,15,"[1, 2, 3, 4, 7, 10, 12, 14, 15, 17, 19, 21, 22, 23, 25]",176.1072477,4773,651,10,100,12,1.123330873754209
undo,47,43,0,0,0,1,"[0, 29, 20, 16, 11, 6, 1]",7,10,"[2, 3, 4, 7, 12, 14, 15, 19, 22, 25]",127.8371741,5668,895,7,36,12,1.1959789832191803
undo,47,43,0,0,0,19,"[0, 29, 20, 16, 11, 6, 1, 19]",8,8,"[3, 4, 7, 12, 14, 15, 22, 25]",99.65916852,6469,801,4,16,12,1.442084860173939
undo,47,43,0,0,0,22,"[0, 29, 20, 16, 11, 6, 1, 19, 22]",9,6,"[3, 7, 12, 14, 15, 25]",79.04364039,7147,678,3,7,12,1.852594491960324
undo,47,43,0,0,0,3,"[0, 29, 20, 16, 11, 6, 1, 19, 22, 3]",10,3,"[12, 15, 25]",44.33053048,7757,610,2,2,12,2.295054375959106
undo,47,43,0,0,0,12,"[0, 29, 20, 16, 11, 6, 1, 19, 22, 3, 12]",11,2,"[15, 25]",31.33053048,8408,651,2,0,12,2.717717859995072
undo,47,43,0,0,1,15,"[0, 29, 20, 16, 11, 6, 1, 19, 22, 3, 12, 15]",12,0,[],12.01732256,8996,588,1,0,12,3.483095146576392
undo,47,43,0,1,1,15,"[0, 29, 20, 16, 11, 6, 1, 19, 22, 3, 12, 15]",12,0,[],12.01732256,10848,1852,1,0,12,3.483095146576392
undo,48,6,0,0,0,0,[0],1,29,"[1, 2, 3, 4, 5, 6, 7, 8, 9, 10, 11, 12, 13, 14, 15, 16, 17, 18, 19, 20, 21, 22, 23, 24, 25, 26, 27, 28, 29]",300,130,-1,180,4304,10,0.0
undo,48,6,0,0,0,26,"[0, 26]",2,25,"[1, 2, 3, 4, 5, 6, 7, 8, 9, 10, 11, 12, 13, 14, 15, 16, 17, 18, 20, 21, 22, 23, 24, 27, 29]",250.2606795,1601,1471,45,776,10,1.0
undo,48,6,0,0,0,7,"[0, 26, 7]",3,24,"[1, 2, 3, 4, 5, 6, 8, 9, 10, 11, 12, 13, 14, 15, 16, 17, 18, 20, 21, 22, 23, 24, 27, 29]",226.1774904,3160,1559,25,520,10,1.5373018630243536
undo,48,6,0,0,0,3,"[0, 26, 7, 3]",4,22,"[1, 2, 4, 6, 8, 9, 10, 11, 12, 13, 14, 15, 16, 17, 18, 20, 21, 22, 23, 24, 27, 29]",190.0388684,3819,659,20,235,10,3.2798655773210936
undo,48,6,0,0,0,18,"[0, 26, 7, 3, 18]",5,17,"[1, 2, 6, 8, 10, 11, 13, 14, 16, 17, 20, 21, 22, 23, 24, 27, 29]",161.0388684,4522,703,12,95,10,2.2817335351582497
undo,48,6,0,0,0,17,"[0, 26, 7, 3, 18, 17]",6,14,"[1, 2, 6, 8, 10, 13, 14, 16, 21, 22, 23, 24, 27, 29]",147.1104801,5094,572,7,40,10,2.166304221519952
undo,48,6,0,0,0,10,"[0, 26, 7, 3, 18, 17, 10]",7,10,"[2, 6, 8, 13, 16, 22, 23, 24, 27, 29]",127.3873972,5692,598,6,14,10,2.0465180096074933
undo,48,6,0,0,0,24,"[0, 26, 7, 3, 18, 17, 10, 24]",8,7,"[2, 6, 16, 22, 23, 27, 29]",113.9709893,6271,579,6,3,10,1.9120419940880518
undo,48,6,0,0,0,16,"[0, 26, 7, 3, 18, 17, 10, 24, 16]",9,1,[29],57.93528641,7784,1513,1,0,10,3.3536105264950167
undo,48,6,0,0,1,29,"[0, 26, 7, 3, 18, 17, 10, 24, 16, 29]",10,0,[],21.24741376,8564,780,1,0,10,2.6171932798841704
undo,48,6,0,1,1,29,"[0, 26, 7, 3, 18, 17, 10, 24, 16, 29]",10,0,[],21.24741376,11015,2451,1,0,10,2.6171932798841704
undo,49,34,0,0,0,0,[0],1,25,"[1, 3, 4, 5, 6, 7, 8, 9, 10, 11, 12, 13, 15, 18, 19, 20, 21, 22, 23, 24, 25, 26, 27, 28, 29]",300,132,-1,12,367,10,0.0
undo,49,34,0,0,0,13,"[0, 13]",2,24,"[1, 3, 4, 5, 6, 7, 8, 9, 10, 11, 12, 15, 18, 19, 20, 21, 22, 23, 24, 25, 26, 27, 28, 29]",279.9750156,1768,1636,12,331,10,1.0
undo,49,34,0,0,0,1,"[0, 13, 1]",3,16,"[3, 5, 7, 8, 9, 10, 11, 12, 19, 21, 22, 23, 24, 25, 27, 29]",211.8574701,3464,1696,3,92,10,1.0010381285747127
undo,49,34,0,0,0,8,"[0, 13, 1, 8]",4,14,"[3, 5, 7, 9, 10, 11, 12, 19, 22, 23, 24, 25, 27, 29]",201.0871405,4799,1335,2,54,10,1.1636807
undo,49,34,0,0,0,25,"[0, 13, 1, 8, 25]",5,12,"[3, 5, 7, 9, 10, 11, 12, 22, 23, 24, 27, 29]",183.999133,5869,1070,2,28,10,1.1396208815936457
undo,49,34,0,0,0,24,"[0, 13, 1, 8, 25, 24]",6,11,"[3, 5, 7, 9, 10, 11, 12, 22, 23, 27, 29]",166.5062774,6774,905,2,23,10,1.374180768736554
undo,49,34,0,0,0,12,"[0, 13, 1, 8, 25, 24, 12]",7,7,"[7, 9, 10, 11, 22, 23, 27]",115.4670767,7703,929,1,8,10,1.4994254760835948
undo,49,34,0,0,0,7,"[0, 13, 1, 8, 25, 24, 12, 7]",8,5,"[9, 11, 22, 23, 27]",100.4337804,8254,551,1,4,10,1.758992610425009
undo,49,34,0,0,0,23,"[0, 13, 1, 8, 25, 24, 12, 7, 23]",9,1,[27],72.27352467,8974,720,1,0,10,2.399781305190153
undo,49,34,0,0,1,27,"[0, 13, 1, 8, 25, 24, 12, 7, 23, 27]",10,0,[],18.60789321,9769,795,1,0,10,4.766619878750327
undo,49,34,0,1,1,27,"[0, 13, 1, 8, 25, 24, 12, 7, 23, 27]",10,0,[],18.60789321,10866,1097,1,0,10,4.766619878750327
undo,50,26,0,0,0,0,[0],1,29,"[1, 2, 3, 4, 5, 6, 7, 8, 9, 10, 11, 12, 13, 14, 15, 16, 17, 18, 19, 20, 21, 22, 23, 24, 25, 26, 27, 28, 29]",300,131,-1,9,226,9,0.0
undo,50,26,0,0,0,21,"[0, 21]",2,25,"[2, 3, 4, 5, 6, 7, 8, 10, 11, 12, 13, 14, 15, 16, 17, 18, 19, 22, 23, 24, 25, 26, 27, 28, 29]",211.1349337,3727,3596,7,90,9,1.0
undo,50,26,0,0,0,13,"[0, 21, 13]",3,21,"[3, 4, 5, 6, 7, 8, 10, 11, 12, 14, 15, 16, 17, 18, 19, 22, 23, 24, 25, 26, 29]",188.9989901,5084,1357,6,45,9,1.0103952279992225
undo,50,26,0,0,0,5,"[0, 21, 13, 5]",4,12,"[3, 4, 11, 14, 16, 17, 18, 22, 23, 25, 26, 29]",150.7106107,5877,793,2,10,8,1.0086890649024711
undo,50,26,0,0,0,23,"[0, 21, 13, 5, 23]",5,8,"[3, 4, 11, 14, 16, 17, 22, 29]",118.0150452,6585,708,2,7,8,1.3518621918690494
undo,50,26,0,0,0,16,"[0, 21, 13, 5, 23, 16]",6,4,"[4, 14, 17, 29]",64.77971862,7308,723,2,3,8,2.1011863559657242
undo,50,26,0,0,0,29,"[0, 21, 13, 5, 23, 16, 29]",7,2,"[4, 17]",40.57228175,8178,870,2,0,8,2.123178325538451
undo,50,26,0,0,1,4,"[0, 21, 13, 5, 23, 16, 29, 4]",8,0,[],16.57228175,8813,635,1,0,8,2.338467952972574
undo,50,26,1,0,0,29,"[0, 21, 13, 5, 23, 16, 29]",7,2,"[4, 17]",40.57228175,10730,1917,2,0,8,2.123178325538451
undo,50,26,1,0,0,16,"[0, 21, 13, 5, 23, 16]",6,4,"[4, 14, 17, 29]",64.77971862,10881,151,2,3,8,2.1011863559657242
undo,50,26,1,0,0,23,"[0, 21, 13, 5, 23]",5,8,"[3, 4, 11, 14, 16, 17, 22, 29]",118.0150452,11031,150,2,7,8,1.3518621918690494
undo,50,26,1,0,0,5,"[0, 21, 13, 5]",4,12,"[3, 4, 11, 14, 16, 17, 18, 22, 23, 25, 26, 29]",150.7106107,11181,150,2,10,8,1.0086890649024711
undo,50,26,1,0,0,13,"[0, 21, 13]",3,21,"[3, 4, 5, 6, 7, 8, 10, 11, 12, 14, 15, 16, 17, 18, 19, 22, 23, 24, 25, 26, 29]",188.9989901,11364,183,6,45,9,1.0103952279992225
undo,50,26,1,0,0,21,"[0, 21]",2,25,"[2, 3, 4, 5, 6, 7, 8, 10, 11, 12, 13, 14, 15, 16, 17, 18, 19, 22, 23, 24, 25, 26, 27, 28, 29]",211.1349337,11880,516,7,90,9,1.0
undo,50,26,0,0,0,16,"[0, 21, 16]",3,12,"[4, 5, 6, 10, 11, 12, 13, 14, 17, 23, 26, 29]",151.2266705,14044,2164,1,34,9,1.3289691188319968
undo,50,26,0,0,0,29,"[0, 21, 16, 29]",4,8,"[4, 5, 6, 10, 13, 14, 17, 23]",127.0192337,14697,653,1,28,9,1.4156891800947415
undo,50,26,0,0,0,4,"[0, 21, 16, 29, 4]",5,5,"[6, 10, 14, 17, 23]",103.0192337,15708,1011,1,12,9,1.6252228687746915
undo,50,26,0,0,0,17,"[0, 21, 16, 29, 4, 17]",6,3,"[6, 10, 14]",81.92421056,16344,636,1,4,9,1.534793846471065
undo,50,26,0,0,0,6,"[0, 21, 16, 29, 4, 17, 6]",7,2,"[10, 14]",61.79959876,17026,682,2,0,8,1.4830858951271333
undo,50,26,1,0,0,17,"[0, 21, 16, 29, 4, 17]",6,3,"[6, 10, 14]",81.92421056,17997,971,1,4,9,1.534793846471065
undo,50,26,0,0,0,14,"[0, 21, 16, 29, 4, 17, 14]",7,2,"[6, 10]",59.45200551,19020,1023,1,1,9,1.4926767408397108
undo,50,26,0,0,0,6,"[0, 21, 16, 29, 4, 17, 14, 6]",8,1,[10],38.42820947,20084,1064,1,0,9,1.6286010900012204
undo,50,26,0,0,1,10,"[0, 21, 16, 29, 4, 17, 14, 6, 10]",9,0,[],9.153647129,20854,770,1,0,9,1.797369356615424
undo,50,26,0,1,1,10,"[0, 21, 16, 29, 4, 17, 14, 6, 10]",9,0,[],9.153647129,21847,993,1,0,9,1.797369356615424
undo,51,14,0,0,0,0,[0],1,29,"[1, 2, 3, 4, 5, 6, 7, 8, 9, 10, 11, 12, 13, 14, 15, 16, 17, 18, 19, 20, 21, 22, 23, 24, 25, 26, 27, 28, 29]",300,129,-1,8,157,10,0.0
undo,51,14,0,0,0,15,"[0, 15]",2,20,"[1, 2, 3, 4, 7, 8, 9, 13, 17, 18, 19, 20, 21, 22, 23, 25, 26, 27, 28, 29]",216.7053423,1873,1744,8,102,10,1.0
undo,51,14,0,0,0,28,"[0, 15, 28]",3,17,"[1, 2, 3, 4, 7, 8, 9, 13, 17, 18, 19, 20, 22, 23, 25, 26, 27]",197.4959696,2452,579,8,48,10,1.0446007867311968
undo,51,14,0,0,0,17,"[0, 15, 28, 17]",4,14,"[1, 2, 3, 4, 7, 8, 13, 18, 19, 20, 22, 23, 25, 26]",184.0423455,3191,739,8,39,10,1.0729463354689972
undo,51,14,0,0,0,18,"[0, 15, 28, 17, 18]",5,9,"[1, 2, 4, 7, 8, 19, 23, 25, 26]",119.412631,4051,860,8,27,10,1.5035901079219378
undo,51,14,0,0,0,8,"[0, 15, 28, 17, 18, 8]",6,8,"[1, 2, 4, 7, 19, 23, 25, 26]",105.8111605,4808,757,8,18,10,1.4819689987843856
undo,51,14,0,0,0,1,"[0, 15, 28, 17, 18, 8, 1]",7,5,"[7, 19, 23, 25, 26]",82.21031307,5467,659,4,6,10,1.4084991998385268
undo,51,14,0,0,0,19,"[0, 15, 28, 17, 18, 8, 1, 19]",8,4,"[7, 23, 25, 26]",66.97876686,6095,628,4,1,10,1.5758713333797987
undo,51,14,0,0,0,23,"[0, 15, 28, 17, 18, 8, 1, 19, 23]",9,1,[26],22.70687962,6986,891,1,0,10,1.4751929839361517
undo,51,14,0,0,1,26,"[0, 15, 28, 17, 18, 8, 1, 19, 23, 26]",10,0,[],11.89022579,7758,772,1,0,10,1.4521765305442214
undo,51,14,0,1,1,26,"[0, 15, 28, 17, 18, 8, 1, 19, 23, 26]",10,0,[],11.89022579,8746,988,1,0,10,1.4521765305442214
undo,52,24,0,0,0,0,[0],1,29,"[1, 2, 3, 4, 5, 6, 7, 8, 9, 10, 11, 12, 13, 14, 15, 16, 17, 18, 19, 20, 21, 22, 23, 24, 25, 26, 27, 28, 29]",300,129,-1,4,76,10,0.0
undo,52,24,0,0,0,29,"[0, 29]",2,27,"[2, 3, 4, 5, 6, 7, 8, 9, 10, 11, 12, 13, 14, 15, 16, 17, 18, 19, 20, 21, 22, 23, 24, 25, 26, 27, 28]",245.594118,3237,3108,5,65,9,1.0
undo,52,24,0,0,0,16,"[0, 29, 16]",3,21,"[2, 3, 4, 6, 8, 9, 10, 11, 13, 14, 15, 17, 18, 19, 22, 23, 24, 25, 26, 27, 28]",171.3782167,4034,797,5,51,9,1.4348105541987206
undo,52,24,0,0,0,22,"[0, 29, 16, 22]",4,16,"[2, 3, 4, 6, 8, 9, 10, 11, 14, 15, 17, 23, 24, 26, 27, 28]",153.3504603,4669,635,4,31,9,1.3916224386076739
undo,52,24,0,0,0,8,"[0, 29, 16, 22, 8]",5,13,"[3, 4, 6, 9, 10, 11, 14, 15, 23, 24, 26, 27, 28]",139.9340525,5224,555,2,13,9,1.4536440537404858
undo,52,24,0,0,0,15,"[0, 29, 16, 22, 8, 15]",6,8,"[3, 4, 6, 9, 11, 23, 26, 28]",109.047162,5997,773,1,3,9,1.5963255894510096
undo,52,24,0,0,0,28,"[0, 29, 16, 22, 8, 15, 28]",7,2,"[11, 23]",63.77023635,6834,837,1,1,9,1.4349671441965541
undo,52,24,0,0,0,23,"[0, 29, 16, 22, 8, 15, 28, 23]",8,1,[11],44.74393876,7484,650,1,0,9,1.4487992470982323
undo,52,24,0,0,1,11,"[0, 29, 16, 22, 8, 15, 28, 23, 11]",9,0,[],17.81811472,8175,691,1,0,9,1.4048465478250574
undo,52,24,0,1,1,11,"[0, 29, 16, 22, 8, 15, 28, 23, 11]",9,0,[],17.81811472,9197,1022,1,0,9,1.4048465478250574
undo,53,1,0,0,0,0,[0],1,26,"[1, 2, 4, 5, 7, 8, 9, 10, 11, 12, 13, 14, 15, 16, 17, 18, 19, 20, 21, 22, 23, 24, 25, 26, 28, 29]",300,130,-1,6,74,7,0.0
undo,53,1,0,0,0,14,"[0, 14]",2,19,"[1, 4, 5, 8, 9, 13, 15, 17, 18, 19, 20, 21, 22, 23, 24, 25, 26, 28, 29]",200.1901808,2553,2423,5,42,7,1.0
undo,53,1,0,0,0,17,"[0, 14, 17]",3,15,"[1, 4, 5, 8, 9, 13, 15, 18, 19, 20, 22, 23, 25, 28, 29]",147.8356204,3357,804,5,27,7,1.0028844724416826
undo,53,1,0,0,0,1,"[0, 14, 17, 1]",4,12,"[4, 5, 8, 9, 15, 18, 20, 22, 23, 25, 28, 29]",123.4840291,4274,917,5,15,7,1.0264985578353567
undo,53,1,0,0,0,28,"[0, 14, 17, 1, 28]",5,5,"[9, 15, 22, 23, 29]",88.59850198,6171,1897,5,3,7,1.0339861575999345
undo,53,1,0,0,0,23,"[0, 14, 17, 1, 28, 23]",6,2,"[15, 22]",51.70676849,6790,619,2,0,7,1.0327458250705703
undo,53,1,0,0,1,15,"[0, 14, 17, 1, 28, 23, 15]",7,0,[],20.81987807,7563,773,1,0,7,1.1948681641401226
undo,53,1,0,1,1,15,"[0, 14, 17, 1, 28, 23, 15]",7,0,[],20.81987807,8298,735,1,0,7,1.1948681641401226
undo,54,20,0,0,0,0,[0],1,21,"[1, 2, 3, 4, 5, 6, 7, 8, 9, 12, 17, 18, 20, 21, 22, 23, 25, 26, 27, 28, 29]",300,130,-1,1,9,9,0.0
undo,54,20,0,0,0,1,"[0, 1]",2,14,"[3, 4, 5, 6, 8, 9, 12, 20, 21, 23, 26, 27, 28, 29]",197.3501096,4266,4136,1,9,8,1.0
undo,54,20,0,0,0,5,"[0, 1, 5]",3,12,"[4, 6, 8, 9, 12, 20, 21, 23, 26, 27, 28, 29]",160.675868,5438,1172,1,8,8,1.1088946720668915
undo,54,20,0,0,0,21,"[0, 1, 5, 21]",4,8,"[4, 6, 8, 9, 20, 23, 27, 28]",115.675868,6226,788,1,6,8,1.0805828994591202
undo,54,20,0,0,0,28,"[0, 1, 5, 21, 28]",5,2,"[8, 23]",79.42673003,7921,1695,2,0,6,1.149240055796114
undo,54,20,0,0,1,8,"[0, 1, 5, 21, 28, 8]",6,0,[],36.24108427,8693,772,1,0,6,1.4347867221328323
undo,54,20,1,0,0,28,"[0, 1, 5, 21, 28]",5,2,"[8, 23]",79.42673003,10829,2136,2,0,6,1.149240055796114
undo,54,20,1,0,0,21,"[0, 1, 5, 21]",4,8,"[4, 6, 8, 9, 20, 23, 27, 28]",115.675868,11197,368,1,6,8,1.0805828994591202
undo,54,20,0,0,0,8,"[0, 1, 5, 21, 8]",5,5,"[6, 9, 23, 27, 28]",98.21161876,12733,1536,1,5,8,1.0976815296746363
undo,54,20,0,0,0,23,"[0, 1, 5, 21, 8, 23]",6,3,"[6, 9, 27]",53.52381281,13543,810,1,2,8,1.0820667611140062
undo,54,20,0,0,0,9,"[0, 1, 5, 21, 8, 23, 9]",7,1,[6],34.3144401,14316,773,1,0,8,1.0771429624373048
undo,54,20,0,0,1,6,"[0, 1, 5, 21, 8, 23, 9, 6]",8,0,[],11.29271124,14990,674,1,0,8,1.0892675954154076
undo,54,20,0,1,1,6,"[0, 1, 5, 21, 8, 23, 9, 6]",8,0,[],11.29271124,15897,907,1,0,8,1.0892675954154076
undo,55,36,0,0,0,0,[0],1,24,"[2, 4, 5, 6, 7, 8, 9, 10, 12, 13, 14, 15, 16, 17, 18, 19, 20, 22, 23, 25, 26, 27, 28, 29]",300,130,-1,2,200,10,0.0
undo,55,36,0,0,0,9,"[0, 9]",2,16,"[2, 4, 8, 10, 12, 13, 16, 17, 18, 19, 23, 25, 26, 27, 28, 29]",230.9348134,7194,7064,81,367,8,1.0
undo,55,36,0,0,0,17,"[0, 9, 17]",3,13,"[2, 4, 8, 10, 12, 13, 16, 18, 19, 23, 25, 27, 29]",204.6860039,7893,699,22,90,8,1.0084584538853834
undo,55,36,0,0,0,19,"[0, 9, 17, 19]",4,12,"[2, 4, 8, 10, 12, 13, 16, 18, 23, 25, 27, 29]",176.7933525,8634,741,8,25,8,1.5984695375617641
undo,55,36,0,0,0,2,"[0, 9, 17, 19, 2]",5,8,"[8, 10, 12, 13, 16, 18, 25, 27]",139.6719302,9399,765,3,6,8,1.4197222355264698
undo,55,36,0,0,0,25,"[0, 9, 17, 19, 2, 25]",6,4,"[10, 12, 13, 16]",114.6719302,10088,689,2,3,8,1.618724672336267
undo,55,36,0,0,0,13,"[0, 9, 17, 19, 2, 25, 13]",7,2,"[10, 12]",94.08066987,10748,660,2,0,8,2.099469552875175
undo,55,36,0,0,1,12,"[0, 9, 17, 19, 2, 25, 13, 12]",8,0,[],14.90365301,11857,1109,1,0,8,12.840093699859885
undo,55,36,0,1,1,12,"[0, 9, 17, 19, 2, 25, 13, 12]",8,0,[],14.90365301,13813,1956,1,0,8,12.840093699859885
undo,56,19,0,0,0,0,[0],1,29,"[1, 2, 3, 4, 5, 6, 7, 8, 9, 10, 11, 12, 13, 14, 15, 16, 17, 18, 19, 20, 21, 22, 23, 24, 25, 26, 27, 28, 29]",300,130,-1,12,149,8,0.0
undo,56,19,0,0,0,29,"[0, 29]",2,28,"[1, 2, 3, 4, 5, 6, 7, 8, 9, 10, 11, 12, 13, 14, 15, 16, 17, 18, 19, 20, 21, 22, 23, 24, 25, 26, 27, 28]",265.0715016,2891,2761,12,120,8,1.0
undo,56,19,0,0,0,9,"[0, 29, 9]",3,17,"[1, 4, 5, 6, 7, 10, 11, 12, 13, 14, 19, 20, 21, 22, 24, 27, 28]",181.7108394,4283,1392,11,65,8,1.0375842971861238
undo,56,19,0,0,0,6,"[0, 29, 9, 6]",4,12,"[4, 7, 10, 11, 13, 14, 20, 21, 22, 24, 27, 28]",140.2741407,5271,988,11,34,8,1.0389786364356892
undo,56,19,0,0,0,4,"[0, 29, 9, 6, 4]",5,7,"[10, 11, 14, 20, 22, 27, 28]",99.22538921,6035,764,2,6,8,1.2182485830176533
undo,56,19,0,0,0,28,"[0, 29, 9, 6, 4, 28]",6,3,"[11, 14, 27]",88.04504932,6647,612,2,1,8,1.2933703503588658
undo,56,19,0,0,0,11,"[0, 29, 9, 6, 4, 28, 11]",7,1,[14],23.50823812,7346,699,1,0,8,1.2610479003557273
undo,56,19,0,0,1,14,"[0, 29, 9, 6, 4, 28, 11, 14]",8,0,[],12.69158429,7876,530,1,0,8,1.3738796083749716
undo,56,19,0,1,1,14,"[0, 29, 9, 6, 4, 28, 11, 14]",8,0,[],12.69158429,8881,1005,1,0,8,1.3738796083749716
undo,57,11,0,0,0,0,[0],1,25,"[1, 2, 3, 4, 5, 6, 8, 9, 10, 11, 12, 13, 14, 15, 16, 17, 18, 19, 20, 22, 23, 25, 26, 27, 28]",300,130,-1,6,374,12,0.0
undo,57,11,0,0,0,18,"[0, 18]",2,21,"[1, 2, 4, 5, 6, 8, 9, 11, 12, 13, 14, 15, 16, 17, 19, 20, 22, 23, 25, 27, 28]",236.8493864,2006,1876,157,1477,11,1.0
undo,57,11,0,0,0,27,"[0, 18, 27]",3,19,"[1, 2, 4, 5, 6, 8, 9, 11, 12, 14, 15, 16, 17, 19, 20, 22, 23, 25, 28]",212.9956655,2610,604,157,1315,11,1.060949579704323
undo,57,11,0,0,0,8,"[0, 18, 27, 8]",4,14,"[1, 2, 4, 5, 6, 11, 12, 15, 17, 19, 22, 23, 25, 28]",142.7817068,3485,875,68,433,11,1.0827202875589923
undo,57,11,0,0,0,17,"[0, 18, 27, 8, 17]",5,13,"[1, 2, 4, 5, 6, 11, 12, 15, 19, 22, 23, 25, 28]",128.4638857,4041,556,42,137,11,1.1662918234607762
undo,57,11,0,0,0,15,"[0, 18, 27, 8, 17, 15]",6,9,"[2, 5, 6, 11, 12, 19, 22, 25, 28]",115.8147751,4868,827,38,57,11,1.1741312027420885
undo,57,11,0,0,0,11,"[0, 18, 27, 8, 17, 15, 11]",7,7,"[2, 5, 6, 12, 19, 22, 28]",97.70400479,5584,716,24,0,11,1.1668679039564056
undo,57,11,0,0,0,5,"[0, 18, 27, 8, 17, 15, 11, 5]",8,3,"[2, 22, 28]",62.47617489,6292,708,6,0,11,1.4599514427122162
undo,57,11,0,0,0,28,"[0, 18, 27, 8, 17, 15, 11, 5, 28]",9,2,"[2, 22]",44.58763107,6896,604,2,0,11,1.4780521291873887
undo,57,11,0,0,0,2,"[0, 18, 27, 8, 17, 15, 11, 5, 28, 2]",10,1,[22],33.95748525,7554,658,1,0,11,1.49053366829238
undo,57,11,0,0,1,22,"[0, 18, 27, 8, 17, 15, 11, 5, 28, 2, 22]",11,0,[],23.90760963,8217,663,1,0,11,1.4644184017269015
undo,57,11,0,1,1,22,"[0, 18, 27, 8, 17, 15, 11, 5, 28, 2, 22]",11,0,[],23.90760963,9246,1029,1,0,11,1.4644184017269015
undo,58,38,0,0,0,0,[0],1,29,"[1, 2, 3, 4, 5, 6, 7, 8, 9, 10, 11, 12, 13, 14, 15, 16, 17, 18, 19, 20, 21, 22, 23, 24, 25, 26, 27, 28, 29]",300,115,-1,33,506,9,0.0
undo,58,38,0,0,0,19,"[0, 19]",2,23,"[3, 4, 5, 6, 7, 8, 9, 11, 13, 14, 15, 16, 17, 18, 20, 22, 23, 24, 25, 26, 27, 28, 29]",219.5015528,2004,1889,6,61,9,1.0
undo,58,38,0,0,0,17,"[0, 19, 17]",3,21,"[3, 4, 5, 6, 7, 9, 11, 13, 14, 15, 16, 18, 20, 22, 23, 24, 25, 26, 27, 28, 29]",198.1239945,2601,597,6,53,9,1.571793785769489
undo,58,38,0,0,0,20,"[0, 19, 17, 20]",4,17,"[3, 4, 5, 6, 7, 11, 13, 14, 15, 16, 18, 22, 24, 25, 26, 27, 28]",174.3542658,3318,717,6,44,9,2.333182710277297
undo,58,38,0,0,0,13,"[0, 19, 17, 20, 13]",5,9,"[4, 11, 15, 16, 18, 24, 26, 27, 28]",125.0998244,4063,745,1,11,9,1.7893595974504246
undo,58,38,0,0,0,4,"[0, 19, 17, 20, 13, 4]",6,6,"[11, 15, 16, 24, 26, 28]",93.69918748,5277,1214,1,6,9,2.942354535547757
undo,58,38,0,0,0,15,"[0, 19, 17, 20, 13, 4, 15]",7,4,"[11, 16, 26, 28]",67.69918748,5929,652,1,3,9,3.165907365359093
undo,58,38,0,0,0,11,"[0, 19, 17, 20, 13, 4, 15, 11]",8,1,[28],31.29863803,6789,860,1,0,9,3.362710012119994
undo,58,38,0,0,1,28,"[0, 19, 17, 20, 13, 4, 15, 11, 28]",9,0,[],4.280125857,7466,677,1,0,9,2.7690631991189285
undo,58,38,0,1,1,28,"[0, 19, 17, 20, 13, 4, 15, 11, 28]",9,0,[],4.280125857,8398,932,1,0,9,2.7690631991189285
undo,59,21,0,0,0,0,[0],1,29,"[1, 2, 3, 4, 5, 6, 7, 8, 9, 10, 11, 12, 13, 14, 15, 16, 17, 18, 19, 20, 21, 22, 23, 24, 25, 26, 27, 28, 29]",300,165,-1,84,830,9,0.0
undo,59,21,0,0,0,18,"[0, 18]",2,28,"[1, 2, 3, 4, 5, 6, 7, 8, 9, 10, 11, 12, 13, 14, 15, 16, 17, 19, 20, 21, 22, 23, 24, 25, 26, 27, 28, 29]",240.923778,4607,4442,44,305,9,1.0
undo,59,21,0,0,0,22,"[0, 18, 22]",3,27,"[1, 2, 3, 4, 5, 6, 7, 8, 9, 10, 11, 12, 13, 14, 15, 16, 17, 19, 20, 21, 23, 24, 25, 26, 27, 28, 29]",214.5230205,5396,789,13,86,9,1.0395459700082075
undo,59,21,0,0,0,29,"[0, 18, 22, 29]",4,20,"[2, 4, 6, 7, 8, 9, 10, 11, 12, 14, 15, 16, 17, 20, 21, 23, 24, 25, 26, 27]",184.2575286,6048,652,13,48,9,1.3662220122820667
undo,59,21,0,0,0,25,"[0, 18, 22, 29, 25]",5,13,"[4, 6, 8, 9, 11, 12, 14, 15, 16, 17, 20, 21, 23]",139.0358524,6737,689,11,18,9,2.6909708046730523
undo,59,21,0,0,0,23,"[0, 18, 22, 29, 25, 23]",6,7,"[4, 8, 14, 15, 16, 17, 21]",95.71149432,7374,637,6,5,9,2.0630993046242816
undo,59,21,0,0,0,21,"[0, 18, 22, 29, 25, 23, 21]",7,2,"[4, 14]",66.09730853,8024,650,2,0,9,2.602133289828447
undo,59,21,0,0,0,14,"[0, 18, 22, 29, 25, 23, 21, 14]",8,1,[4],40.48481158,8629,605,1,0,9,2.26566587256098
undo,59,21,0,0,1,4,"[0, 18, 22, 29, 25, 23, 21, 14, 4]",9,0,[],26.34267596,9223,594,1,0,9,2.1395154462606985
undo,59,21,0,1,1,4,"[0, 18, 22, 29, 25, 23, 21, 14, 4]",9,0,[],26.34267596,15049,5826,1,0,9,2.1395154462606985
undo,60,10,0,0,0,0,[0],1,29,"[1, 2, 3, 4, 5, 6, 7, 8, 9, 10, 11, 12, 13, 14, 15, 16, 17, 18, 19, 20, 21, 22, 23, 24, 25, 26, 27, 28, 29]",300,131,-1,1,100,9,0.0
undo,60,10,0,0,0,13,"[0, 13]",2,25,"[1, 2, 3, 4, 6, 7, 8, 9, 10, 11, 12, 14, 17, 18, 19, 20, 21, 22, 23, 24, 25, 26, 27, 28, 29]",249.4628849,2629,2498,1,79,9,1.0
undo,60,10,0,0,0,11,"[0, 13, 11]",3,20,"[1, 2, 3, 6, 7, 8, 9, 10, 12, 14, 18, 19, 20, 21, 22, 24, 26, 27, 28, 29]",206.4512586,3251,622,1,54,9,1.0313137484914219
undo,60,10,0,0,0,19,"[0, 13, 11, 19]",4,11,"[2, 6, 8, 9, 10, 14, 18, 20, 24, 26, 27]",170.0919407,3956,705,1,22,9,1.0879446220132545
undo,60,10,0,0,0,2,"[0, 13, 11, 19, 2]",5,4,"[14, 20, 26, 27]",126.1829439,4696,740,1,4,9,1.06474052351343
undo,60,10,0,0,0,14,"[0, 13, 11, 19, 2, 14]",6,3,"[20, 26, 27]",114.0174188,5187,491,1,3,9,1.1628909195912238
undo,60,10,0,0,0,26,"[0, 13, 11, 19, 2, 14, 26]",7,2,"[20, 27]",79.34754716,5886,699,1,1,9,1.6660727647633602
undo,60,10,0,0,0,20,"[0, 13, 11, 19, 2, 14, 26, 20]",8,1,[27],47.56704999,6689,803,1,0,9,2.085581809637999
undo,60,10,0,0,1,27,"[0, 13, 11, 19, 2, 14, 26, 20, 27]",9,0,[],2.312215998,7535,846,1,0,9,1.9116357409137932
undo,60,10,0,1,1,27,"[0, 13, 11, 19, 2, 14, 26, 20, 27]",9,0,[],2.312215998,8532,997,1,0,9,1.9116357409137932
undo,61,42,0,0,0,0,[0],1,29,"[1, 2, 3, 4, 5, 6, 7, 8, 9, 10, 11, 12, 13, 14, 15, 16, 17, 18, 19, 20, 21, 22, 23, 24, 25, 26, 27, 28, 29]",300,130,-1,16,302,9,0.0
undo,61,42,0,0,0,4,"[0, 4]",2,28,"[1, 2, 3, 5, 6, 7, 8, 9, 10, 11, 12, 13, 14, 15, 16, 17, 18, 19, 20, 21, 22, 23, 24, 25, 26, 27, 28, 29]",209.5290102,4119,3989,4,80,9,1.0
undo,61,42,0,0,0,5,"[0, 4, 5]",3,26,"[1, 2, 3, 6, 7, 8, 9, 10, 11, 12, 13, 15, 16, 17, 18, 19, 20, 21, 22, 23, 24, 25, 26, 27, 28, 29]",189.6795769,5350,1231,1,20,9,1.0148510397583586
undo,61,42,0,0,0,22,"[0, 4, 5, 22]",4,20,"[1, 2, 3, 6, 7, 8, 9, 11, 15, 17, 18, 19, 20, 21, 23, 24, 25, 26, 27, 29]",161.4483885,6475,1125,1,11,9,1.5637839560024156
undo,61,42,0,0,0,8,"[0, 4, 5, 22, 8]",5,14,"[1, 2, 3, 6, 7, 11, 15, 18, 19, 24, 25, 26, 27, 29]",139.3124449,7255,780,1,10,9,1.4945254875288396
undo,61,42,0,0,0,1,"[0, 4, 5, 22, 8, 1]",6,5,"[2, 7, 19, 26, 27]",90.22069405,7923,668,1,7,9,1.3471215162642187
undo,61,42,0,0,0,7,"[0, 4, 5, 22, 8, 1, 7]",7,4,"[2, 19, 26, 27]",60.22069405,9136,1213,1,3,9,1.3841357982845324
undo,61,42,0,0,0,26,"[0, 4, 5, 22, 8, 1, 7, 26]",8,1,[27],33.65003354,9901,765,1,0,9,1.345201850808081
undo,61,42,0,0,1,27,"[0, 4, 5, 22, 8, 1, 7, 26, 27]",9,0,[],15.62227716,10560,659,1,0,9,1.333637721408899
undo,61,42,0,1,1,27,"[0, 4, 5, 22, 8, 1, 7, 26, 27]",9,0,[],15.62227716,11613,1053,1,0,9,1.333637721408899
