condition,trial_id,map_id,undoIndicator,submit,checkEnd,currentChoice,chosen_all,n_city_all,n_within_reach,cities_reach,currentBudget,time_all,rt_all,n_opt_paths_all,n_subopt_paths_all,mas_all,tortuosity_all
undo,0,2,0,0,0,0,[0],1,23,"[1, 2, 4, 5, 6, 7, 8, 9, 12, 13, 15, 16, 17, 18, 19, 20, 22, 23, 25, 26, 27, 28, 29]",300,509,-1,70,620,10,0.0
undo,0,2,0,0,0,19,"[0, 19]",2,22,"[1, 2, 4, 5, 6, 7, 8, 9, 12, 13, 15, 16, 17, 18, 20, 22, 23, 25, 26, 27, 28, 29]",210.306076,2772,2263,67,431,10,1.0
undo,0,2,0,0,0,12,"[0, 19, 12]",3,17,"[1, 4, 5, 6, 7, 13, 15, 16, 17, 18, 20, 22, 25, 26, 27, 28, 29]",174.2921898,4197,1425,66,298,10,1.1107635036313153
undo,0,2,0,0,0,13,"[0, 19, 12, 13]",4,11,"[1, 5, 6, 7, 15, 18, 22, 25, 26, 28, 29]",139.4640403,5468,1271,16,89,10,1.085272367870328
undo,0,2,0,0,0,5,"[0, 19, 12, 13, 5]",5,8,"[1, 6, 7, 15, 18, 22, 26, 29]",125.8625698,6728,1260,11,33,10,1.230353687976334
undo,0,2,0,0,0,22,"[0, 19, 12, 13, 5, 22]",6,7,"[1, 6, 7, 15, 18, 26, 29]",113.0563213,7519,791,11,17,10,1.21147051203237
undo,0,2,0,0,0,18,"[0, 19, 12, 13, 5, 22, 18]",7,4,"[7, 15, 26, 29]",73.73711478,8469,950,7,3,10,1.2583761209355346
undo,0,2,0,0,0,7,"[0, 19, 12, 13, 5, 22, 18, 7]",8,3,"[15, 26, 29]",63.44148464,9264,795,3,1,10,1.2450448176842106
undo,0,2,0,0,0,15,"[0, 19, 12, 13, 5, 22, 18, 7, 15]",9,2,"[26, 29]",48.67666158,10224,960,2,0,10,1.3342240790394682
undo,0,2,0,0,1,26,"[0, 19, 12, 13, 5, 22, 18, 7, 15, 26]",10,0,[],24.46922471,13406,3182,1,0,10,1.3035658455855468
undo,0,2,0,1,1,26,"[0, 19, 12, 13, 5, 22, 18, 7, 15, 26]",10,0,[],24.46922471,17818,4412,1,0,10,1.3035658455855468
undo,1,33,0,0,0,0,[0],1,23,"[1, 2, 5, 7, 8, 11, 12, 13, 14, 15, 16, 17, 18, 19, 20, 21, 23, 24, 25, 26, 27, 28, 29]",300,10,-1,5,108,9,0.0
undo,1,33,0,0,0,21,"[0, 21]",2,17,"[2, 5, 7, 8, 11, 13, 14, 16, 17, 18, 19, 20, 24, 26, 27, 28, 29]",174.4611614,8700,8690,21,129,8,1.0
undo,1,33,0,0,0,17,"[0, 21, 17]",3,12,"[2, 7, 11, 13, 14, 16, 18, 19, 20, 24, 26, 29]",135.8218032,9494,794,3,35,8,1.0302064673538902
undo,1,33,0,0,0,13,"[0, 21, 17, 13]",4,10,"[2, 7, 11, 14, 16, 19, 20, 24, 26, 29]",113.0182947,10289,795,3,18,8,1.2307555582916028
undo,1,33,0,0,0,19,"[0, 21, 17, 13, 19]",5,6,"[7, 14, 16, 24, 26, 29]",87.52319715,10921,632,3,6,8,1.267959080158969
undo,1,33,0,0,0,24,"[0, 21, 17, 13, 19, 24]",6,2,"[7, 14]",45.47560506,11584,663,1,1,8,1.2501192148258107
undo,1,33,0,0,0,7,"[0, 21, 17, 13, 19, 24, 7]",7,1,[14],16.26944133,12244,660,1,0,8,1.3314375425758662
undo,1,33,0,0,1,14,"[0, 21, 17, 13, 19, 24, 7, 14]",8,0,[],1.403372582,13036,792,1,0,8,1.37637211918224
undo,1,33,1,0,0,7,"[0, 21, 17, 13, 19, 24, 7]",7,1,[14],16.26944133,14910,1874,1,0,8,1.3314375425758662
undo,1,33,1,0,0,24,"[0, 21, 17, 13, 19, 24]",6,2,"[7, 14]",45.47560506,17281,2371,1,1,8,1.2501192148258107
undo,1,33,1,0,0,19,"[0, 21, 17, 13, 19]",5,6,"[7, 14, 16, 24, 26, 29]",87.52319715,17597,316,3,6,8,1.267959080158969
undo,1,33,1,0,0,13,"[0, 21, 17, 13]",4,10,"[2, 7, 11, 14, 16, 19, 20, 24, 26, 29]",113.0182947,17911,314,3,18,8,1.2307555582916028
undo,1,33,1,0,0,17,"[0, 21, 17]",3,12,"[2, 7, 11, 13, 14, 16, 18, 19, 20, 24, 26, 29]",135.8218032,18386,475,3,35,8,1.0302064673538902
undo,1,33,1,0,0,21,"[0, 21]",2,17,"[2, 5, 7, 8, 11, 13, 14, 16, 17, 18, 19, 20, 24, 26, 27, 28, 29]",174.4611614,18861,475,21,129,8,1.0
undo,1,33,1,0,0,0,[0],1,23,"[1, 2, 5, 7, 8, 11, 12, 13, 14, 15, 16, 17, 18, 19, 20, 21, 23, 24, 25, 26, 27, 28, 29]",300,19018,157,5,108,9,0.0
undo,1,33,0,0,0,17,"[0, 17]",2,14,"[2, 7, 8, 11, 13, 14, 16, 18, 19, 20, 21, 24, 26, 29]",140.6356376,23649,4631,9,49,7,1.0
undo,1,33,0,0,0,21,"[0, 17, 21]",3,10,"[7, 8, 13, 14, 16, 19, 20, 24, 26, 29]",101.9962794,24442,793,2,11,6,1.5772307820393199
undo,1,33,0,0,0,13,"[0, 17, 21, 13]",4,7,"[7, 14, 16, 19, 24, 26, 29]",75.59552187,25239,797,2,6,6,1.4770806497935172
undo,1,33,0,0,0,19,"[0, 17, 21, 13, 19]",5,2,"[7, 24]",50.1004243,25877,638,2,0,6,1.4912801392271546
undo,1,33,0,0,1,24,"[0, 17, 21, 13, 19, 24]",6,0,[],8.052832221,26838,961,1,0,6,1.4339244937230402
undo,1,33,1,0,0,19,"[0, 17, 21, 13, 19]",5,2,"[7, 24]",50.1004243,28104,1266,2,0,6,1.4912801392271546
undo,1,33,1,0,0,13,"[0, 17, 21, 13]",4,7,"[7, 14, 16, 19, 24, 26, 29]",75.59552187,28577,473,2,6,6,1.4770806497935172
undo,1,33,1,0,0,21,"[0, 17, 21]",3,10,"[7, 8, 13, 14, 16, 19, 20, 24, 26, 29]",101.9962794,28736,159,2,11,6,1.5772307820393199
undo,1,33,1,0,0,17,"[0, 17]",2,14,"[2, 7, 8, 11, 13, 14, 16, 18, 19, 20, 21, 24, 26, 29]",140.6356376,28900,164,9,49,7,1.0
undo,1,33,1,0,0,0,[0],1,23,"[1, 2, 5, 7, 8, 11, 12, 13, 14, 15, 16, 17, 18, 19, 20, 21, 23, 24, 25, 26, 27, 28, 29]",300,29062,162,5,108,9,0.0
undo,1,33,0,0,0,20,"[0, 20]",2,9,"[2, 7, 11, 13, 14, 17, 19, 26, 29]",93.29973391,32249,3187,6,9,5,1.0
undo,1,33,0,0,0,11,"[0, 20, 11]",3,5,"[2, 14, 17, 26, 29]",74.19476074,32884,635,3,3,5,1.0169756507330405
undo,1,33,0,0,0,29,"[0, 20, 11, 29]",4,2,"[14, 26]",36.97917261,33685,801,2,0,5,1.250426128210471
undo,1,33,0,0,1,26,"[0, 20, 11, 29, 26]",5,0,[],9.086521246,34168,483,1,0,5,1.2858564564616415
undo,1,33,1,0,0,29,"[0, 20, 11, 29]",4,2,"[14, 26]",36.97917261,36079,1911,2,0,5,1.250426128210471
undo,1,33,1,0,0,11,"[0, 20, 11]",3,5,"[2, 14, 17, 26, 29]",74.19476074,36245,166,3,3,5,1.0169756507330405
undo,1,33,1,0,0,20,"[0, 20]",2,9,"[2, 7, 11, 13, 14, 17, 19, 26, 29]",93.29973391,36405,160,6,9,5,1.0
undo,1,33,1,0,0,0,[0],1,23,"[1, 2, 5, 7, 8, 11, 12, 13, 14, 15, 16, 17, 18, 19, 20, 21, 23, 24, 25, 26, 27, 28, 29]",300,36561,156,5,108,9,0.0
undo,1,33,0,0,0,21,"[0, 21]",2,17,"[2, 5, 7, 8, 11, 13, 14, 16, 17, 18, 19, 20, 24, 26, 27, 28, 29]",174.4611614,40229,3668,21,129,8,1.0
undo,1,33,0,0,0,13,"[0, 21, 13]",3,15,"[2, 5, 7, 8, 11, 14, 16, 17, 18, 19, 20, 24, 26, 28, 29]",148.0604038,40866,637,17,72,8,1.0001005298764474
undo,1,33,0,0,0,19,"[0, 21, 13, 19]",4,11,"[7, 11, 14, 16, 17, 18, 20, 24, 26, 28, 29]",122.5653063,41505,639,10,27,8,1.0588446738393702
undo,1,33,0,0,0,24,"[0, 21, 13, 19, 24]",5,7,"[7, 14, 16, 18, 26, 28, 29]",80.51771417,42153,648,3,5,8,1.078006777679028
undo,1,33,0,0,0,7,"[0, 21, 13, 19, 24, 7]",6,3,"[14, 26, 29]",51.31155044,42946,793,3,1,8,1.1669985062633954
undo,1,33,0,0,0,14,"[0, 21, 13, 19, 24, 7, 14]",7,2,"[26, 29]",36.44548169,43426,480,2,0,8,1.2148465775488593
undo,1,33,0,0,1,26,"[0, 21, 13, 19, 24, 7, 14, 26]",8,0,[],23.79637105,44062,636,1,0,8,1.2208379656544521
undo,1,33,0,1,1,26,"[0, 21, 13, 19, 24, 7, 14, 26]",8,0,[],23.79637105,46580,2518,1,0,8,1.2208379656544521
undo,2,23,0,0,0,0,[0],1,28,"[1, 2, 3, 4, 5, 6, 7, 8, 9, 10, 11, 12, 13, 14, 15, 16, 17, 18, 19, 20, 21, 22, 23, 25, 26, 27, 28, 29]",300,12,-1,76,2626,10,0.0
undo,2,23,0,0,0,22,"[0, 22]",2,24,"[1, 2, 3, 5, 6, 7, 8, 9, 10, 11, 12, 13, 14, 15, 17, 18, 19, 20, 21, 23, 25, 26, 27, 29]",210.5013967,6439,6427,15,1362,10,1.0
undo,2,23,0,0,0,13,"[0, 22, 13]",3,14,"[1, 2, 5, 6, 7, 8, 9, 10, 12, 14, 18, 21, 27, 29]",168.3113504,7551,1112,14,522,10,1.1898173563652046
undo,2,23,0,0,0,27,"[0, 22, 13, 27]",4,7,"[2, 6, 9, 12, 14, 18, 29]",123.2114613,8980,1429,59,60,9,1.2347447137291254
undo,2,23,0,0,0,6,"[0, 22, 13, 27, 6]",5,5,"[2, 9, 12, 14, 29]",94.90951791,9928,948,25,4,9,1.3650572476361236
undo,2,23,0,0,0,2,"[0, 22, 13, 27, 6, 2]",6,4,"[9, 12, 14, 29]",76.47042899,10563,635,7,2,9,1.6380738772667878
undo,2,23,0,0,0,12,"[0, 22, 13, 27, 6, 2, 12]",7,2,"[9, 14]",62.577985,11357,794,2,0,9,1.9367358574807247
undo,2,23,0,0,0,9,"[0, 22, 13, 27, 6, 2, 12, 9]",8,1,[14],48.26016394,12303,946,1,0,9,1.926849993362044
undo,2,23,0,0,1,14,"[0, 22, 13, 27, 6, 2, 12, 9, 14]",9,0,[],37.81985743,12933,630,1,0,9,1.860885019505484
undo,2,23,0,1,1,14,"[0, 22, 13, 27, 6, 2, 12, 9, 14]",9,0,[],37.81985743,22731,9798,1,0,9,1.860885019505484
undo,3,10,0,0,0,0,[0],1,29,"[1, 2, 3, 4, 5, 6, 7, 8, 9, 10, 11, 12, 13, 14, 15, 16, 17, 18, 19, 20, 21, 22, 23, 24, 25, 26, 27, 28, 29]",300,12,-1,1,100,9,0.0
undo,3,10,0,0,0,13,"[0, 13]",2,25,"[1, 2, 3, 4, 6, 7, 8, 9, 10, 11, 12, 14, 17, 18, 19, 20, 21, 22, 23, 24, 25, 26, 27, 28, 29]",249.4628849,5874,5862,1,79,9,1.0
undo,3,10,0,0,0,11,"[0, 13, 11]",3,20,"[1, 2, 3, 6, 7, 8, 9, 10, 12, 14, 18, 19, 20, 21, 22, 24, 26, 27, 28, 29]",206.4512586,6836,962,1,54,9,1.0313137484914219
undo,3,10,0,0,0,19,"[0, 13, 11, 19]",4,11,"[2, 6, 8, 9, 10, 14, 18, 20, 24, 26, 27]",170.0919407,7793,957,1,22,9,1.0879446220132545
undo,3,10,0,0,0,26,"[0, 13, 11, 19, 26]",5,8,"[2, 6, 9, 10, 14, 18, 20, 27]",141.7723361,8751,958,10,10,8,1.1947240924037068
undo,3,10,0,0,0,14,"[0, 13, 11, 19, 26, 14]",6,3,"[2, 20, 27]",107.1024645,9551,800,1,2,8,1.206127966377938
undo,3,10,0,0,0,2,"[0, 13, 11, 19, 26, 14, 2]",7,1,[20],94.93693944,10029,478,1,0,8,1.256142264475509
undo,3,10,0,0,1,20,"[0, 13, 11, 19, 26, 14, 2, 20]",8,0,[],19.0422756,12743,2714,1,0,8,2.321251323421581
undo,3,10,0,1,1,20,"[0, 13, 11, 19, 26, 14, 2, 20]",8,0,[],19.0422756,14011,1268,1,0,8,2.321251323421581
undo,4,39,0,0,0,0,[0],1,28,"[1, 2, 3, 4, 5, 6, 7, 9, 10, 11, 12, 13, 14, 15, 16, 17, 18, 19, 20, 21, 22, 23, 24, 25, 26, 27, 28, 29]",300,10,-1,1,30,10,0.0
undo,4,39,0,0,0,10,"[0, 10]",2,20,"[1, 2, 4, 5, 7, 9, 12, 13, 14, 15, 16, 17, 18, 19, 22, 23, 24, 26, 28, 29]",181.1723938,2759,2749,3,58,8,1.0
undo,4,39,0,0,0,7,"[0, 10, 7]",3,16,"[1, 2, 4, 5, 9, 12, 13, 15, 16, 18, 19, 22, 23, 24, 26, 29]",147.7508438,3712,953,2,20,8,1.0005787113875788
undo,4,39,0,0,0,26,"[0, 10, 7, 26]",4,12,"[1, 2, 5, 9, 12, 13, 16, 18, 19, 22, 24, 29]",129.0693022,4349,637,1,9,8,1.0582372046162405
undo,4,39,0,0,0,22,"[0, 10, 7, 26, 22]",5,7,"[1, 5, 12, 16, 18, 19, 29]",111.349257,5139,790,1,3,8,1.2183446345009497
undo,4,39,0,0,0,16,"[0, 10, 7, 26, 22, 16]",6,2,"[18, 19]",76.34925701,6399,1260,1,1,8,1.1781376373699262
undo,4,39,0,0,0,19,"[0, 10, 7, 26, 22, 16, 19]",7,1,[18],58.88500781,7190,791,1,0,8,1.1953094970663214
undo,4,39,0,0,1,18,"[0, 10, 7, 26, 22, 16, 19, 18]",8,0,[],15.71094152,8312,1122,1,0,8,1.2126315998801338
undo,4,39,0,1,1,18,"[0, 10, 7, 26, 22, 16, 19, 18]",8,0,[],15.71094152,14438,6126,1,0,8,1.2126315998801338
undo,5,19,0,0,0,0,[0],1,29,"[1, 2, 3, 4, 5, 6, 7, 8, 9, 10, 11, 12, 13, 14, 15, 16, 17, 18, 19, 20, 21, 22, 23, 24, 25, 26, 27, 28, 29]",300,10,-1,12,149,8,0.0
undo,5,19,0,0,0,9,"[0, 9]",2,21,"[1, 4, 5, 6, 7, 10, 11, 12, 13, 14, 15, 19, 20, 21, 22, 23, 24, 25, 27, 28, 29]",185.9956141,3246,3236,13,76,7,1.0
undo,5,19,0,0,0,6,"[0, 9, 6]",3,13,"[4, 7, 10, 11, 13, 14, 20, 21, 22, 24, 27, 28, 29]",144.5589154,4203,957,13,38,7,1.0111071984935167
undo,5,19,0,0,0,4,"[0, 9, 6, 4]",4,7,"[10, 11, 14, 20, 22, 27, 28]",103.5101639,5163,960,2,8,7,1.1922496747189233
undo,5,19,0,0,0,28,"[0, 9, 6, 4, 28]",5,4,"[11, 14, 22, 27]",92.32982402,5798,635,2,2,7,1.2672242257358344
undo,5,19,0,0,0,14,"[0, 9, 6, 4, 28, 14]",6,1,[11],34.74510382,7075,1277,1,0,7,1.2684219220754205
undo,5,19,0,0,1,11,"[0, 9, 6, 4, 28, 14, 11]",7,0,[],23.92845,7549,474,1,0,7,1.2591313611236885
undo,5,19,1,0,0,14,"[0, 9, 6, 4, 28, 14]",6,1,[11],34.74510382,8833,1284,1,0,7,1.2684219220754205
undo,5,19,1,0,0,28,"[0, 9, 6, 4, 28]",5,4,"[11, 14, 22, 27]",92.32982402,9776,943,2,2,7,1.2672242257358344
undo,5,19,1,0,0,4,"[0, 9, 6, 4]",4,7,"[10, 11, 14, 20, 22, 27, 28]",103.5101639,9930,154,2,8,7,1.1922496747189233
undo,5,19,1,0,0,6,"[0, 9, 6]",3,13,"[4, 7, 10, 11, 13, 14, 20, 21, 22, 24, 27, 28, 29]",144.5589154,10098,168,13,38,7,1.0111071984935167
undo,5,19,1,0,0,9,"[0, 9]",2,21,"[1, 4, 5, 6, 7, 10, 11, 12, 13, 14, 15, 19, 20, 21, 22, 23, 24, 25, 27, 28, 29]",185.9956141,10260,162,13,76,7,1.0
undo,5,19,1,0,0,0,[0],1,29,"[1, 2, 3, 4, 5, 6, 7, 8, 9, 10, 11, 12, 13, 14, 15, 16, 17, 18, 19, 20, 21, 22, 23, 24, 25, 26, 27, 28, 29]",300,10898,638,12,149,8,0.0
undo,5,19,0,0,0,6,"[0, 6]",2,14,"[4, 7, 9, 10, 11, 13, 14, 20, 21, 22, 24, 27, 28, 29]",146.2664643,15342,4444,15,42,6,1.0
undo,5,19,0,0,0,4,"[0, 6, 4]",3,8,"[9, 10, 11, 14, 20, 22, 27, 28]",105.2177128,16138,796,2,9,6,1.1818887081620801
undo,5,19,0,0,0,28,"[0, 6, 4, 28]",4,5,"[9, 11, 14, 22, 27]",94.03737291,16457,319,2,3,6,1.2568045912850756
undo,5,19,0,0,0,14,"[0, 6, 4, 28, 14]",5,1,[11],36.45265271,17576,1119,1,0,6,1.260256597037945
undo,5,19,0,0,1,11,"[0, 6, 4, 28, 14, 11]",6,0,[],25.63599888,18055,479,1,0,6,1.2513434222887756
undo,5,19,1,0,0,14,"[0, 6, 4, 28, 14]",5,1,[11],36.45265271,20274,2219,1,0,6,1.260256597037945
undo,5,19,1,0,0,28,"[0, 6, 4, 28]",4,5,"[9, 11, 14, 22, 27]",94.03737291,20433,159,2,3,6,1.2568045912850756
undo,5,19,1,0,0,4,"[0, 6, 4]",3,8,"[9, 10, 11, 14, 20, 22, 27, 28]",105.2177128,20589,156,2,9,6,1.1818887081620801
undo,5,19,1,0,0,6,"[0, 6]",2,14,"[4, 7, 9, 10, 11, 13, 14, 20, 21, 22, 24, 27, 28, 29]",146.2664643,20750,161,15,42,6,1.0
undo,5,19,1,0,0,0,[0],1,29,"[1, 2, 3, 4, 5, 6, 7, 8, 9, 10, 11, 12, 13, 14, 15, 16, 17, 18, 19, 20, 21, 22, 23, 24, 25, 26, 27, 28, 29]",300,21693,943,12,149,8,0.0
undo,5,19,0,0,0,10,"[0, 10]",2,12,"[4, 6, 7, 9, 11, 13, 14, 20, 21, 22, 24, 28]",116.6915168,26126,4433,1,9,6,1.0
undo,5,19,0,0,0,22,"[0, 10, 22]",3,5,"[6, 11, 14, 20, 24]",70.7241371,27083,957,1,4,6,1.0762227462515281
undo,5,19,0,0,0,20,"[0, 10, 22, 20]",4,3,"[11, 14, 24]",57.57119066,27406,323,1,2,6,1.0723160118752468
undo,5,19,0,0,1,24,"[0, 10, 22, 20, 24]",5,0,[],18.73821498,28518,1112,1,0,5,1.083798079394698
undo,5,19,1,0,0,20,"[0, 10, 22, 20]",4,3,"[11, 14, 24]",57.57119066,29310,792,1,2,6,1.0723160118752468
undo,5,19,1,0,0,22,"[0, 10, 22]",3,5,"[6, 11, 14, 20, 24]",70.7241371,29782,472,1,4,6,1.0762227462515281
undo,5,19,1,0,0,10,"[0, 10]",2,12,"[4, 6, 7, 9, 11, 13, 14, 20, 21, 22, 24, 28]",116.6915168,29937,155,1,9,6,1.0
undo,5,19,1,0,0,0,[0],1,29,"[1, 2, 3, 4, 5, 6, 7, 8, 9, 10, 11, 12, 13, 14, 15, 16, 17, 18, 19, 20, 21, 22, 23, 24, 25, 26, 27, 28, 29]",300,30096,159,12,149,8,0.0
undo,5,19,0,0,0,12,"[0, 12]",2,15,"[1, 2, 3, 5, 8, 9, 13, 16, 17, 18, 19, 21, 23, 25, 29]",180.3964883,33759,3663,9,58,7,1.0
undo,5,19,0,0,0,25,"[0, 12, 25]",3,11,"[1, 2, 3, 8, 13, 16, 17, 18, 19, 23, 29]",163.2792456,34230,471,3,32,7,1.002593021312995
undo,5,19,0,0,0,17,"[0, 12, 25, 17]",4,10,"[1, 2, 3, 8, 13, 16, 18, 19, 23, 29]",152.2338846,34550,320,3,14,7,1.0661324787663027
undo,5,19,0,0,0,2,"[0, 12, 25, 17, 2]",5,3,"[3, 8, 23]",84.20447915,35511,961,3,0,6,1.0481687538232383
undo,5,19,1,0,0,17,"[0, 12, 25, 17]",4,10,"[1, 2, 3, 8, 13, 16, 18, 19, 23, 29]",152.2338846,36294,783,3,14,7,1.0661324787663027
undo,5,19,1,0,0,25,"[0, 12, 25]",3,11,"[1, 2, 3, 8, 13, 16, 17, 18, 19, 23, 29]",163.2792456,36449,155,3,32,7,1.002593021312995
undo,5,19,1,0,0,12,"[0, 12]",2,15,"[1, 2, 3, 5, 8, 9, 13, 16, 17, 18, 19, 21, 23, 25, 29]",180.3964883,36607,158,9,58,7,1.0
undo,5,19,1,0,0,0,[0],1,29,"[1, 2, 3, 4, 5, 6, 7, 8, 9, 10, 11, 12, 13, 14, 15, 16, 17, 18, 19, 20, 21, 22, 23, 24, 25, 26, 27, 28, 29]",300,38044,1437,12,149,8,0.0
undo,5,19,0,0,0,9,"[0, 9]",2,21,"[1, 4, 5, 6, 7, 10, 11, 12, 13, 14, 15, 19, 20, 21, 22, 23, 24, 25, 27, 28, 29]",185.9956141,40925,2881,13,76,7,1.0
undo,5,19,0,0,0,6,"[0, 9, 6]",3,13,"[4, 7, 10, 11, 13, 14, 20, 21, 22, 24, 27, 28, 29]",144.5589154,41567,642,13,38,7,1.0111071984935167
undo,5,19,0,0,0,4,"[0, 9, 6, 4]",4,7,"[10, 11, 14, 20, 22, 27, 28]",103.5101639,42527,960,2,8,7,1.1922496747189233
undo,5,19,0,0,0,28,"[0, 9, 6, 4, 28]",5,4,"[11, 14, 22, 27]",92.32982402,42845,318,2,2,7,1.2672242257358344
undo,5,19,0,0,0,14,"[0, 9, 6, 4, 28, 14]",6,1,[11],34.74510382,43815,970,1,0,7,1.2684219220754205
undo,5,19,0,0,1,11,"[0, 9, 6, 4, 28, 14, 11]",7,0,[],23.92845,44293,478,1,0,7,1.2591313611236885
undo,5,19,0,1,1,11,"[0, 9, 6, 4, 28, 14, 11]",7,0,[],23.92845,45414,1121,1,0,7,1.2591313611236885
undo,6,38,0,0,0,0,[0],1,29,"[1, 2, 3, 4, 5, 6, 7, 8, 9, 10, 11, 12, 13, 14, 15, 16, 17, 18, 19, 20, 21, 22, 23, 24, 25, 26, 27, 28, 29]",300,12,-1,33,506,9,0.0
undo,6,38,0,0,0,19,"[0, 19]",2,23,"[3, 4, 5, 6, 7, 8, 9, 11, 13, 14, 15, 16, 17, 18, 20, 22, 23, 24, 25, 26, 27, 28, 29]",219.5015528,3918,3906,6,61,9,1.0
undo,6,38,0,0,0,17,"[0, 19, 17]",3,21,"[3, 4, 5, 6, 7, 9, 11, 13, 14, 15, 16, 18, 20, 22, 23, 24, 25, 26, 27, 28, 29]",198.1239945,4557,639,6,53,9,1.571793785769489
undo,6,38,0,0,0,20,"[0, 19, 17, 20]",4,17,"[3, 4, 5, 6, 7, 11, 13, 14, 15, 16, 18, 22, 24, 25, 26, 27, 28]",174.3542658,5198,641,6,44,9,2.333182710277297
undo,6,38,0,0,0,4,"[0, 19, 17, 20, 4]",5,10,"[5, 11, 13, 14, 15, 16, 24, 26, 27, 28]",140.4131403,5989,791,5,22,9,2.276099229646013
undo,6,38,0,0,0,15,"[0, 19, 17, 20, 4, 15]",6,8,"[5, 11, 13, 14, 16, 24, 26, 28]",114.4131403,6784,795,5,6,9,2.5292671156176403
undo,6,38,0,0,0,11,"[0, 19, 17, 20, 4, 15, 11]",7,2,"[16, 28]",78.01259089,7740,956,2,0,9,2.778100109749787
undo,6,38,0,0,0,28,"[0, 19, 17, 20, 4, 15, 11, 28]",8,1,[16],50.99407872,8379,639,1,0,9,2.3316428595723258
undo,6,38,0,0,1,16,"[0, 19, 17, 20, 4, 15, 11, 28, 16]",9,0,[],21.99407872,9015,636,1,0,9,2.5408012360364265
undo,6,38,0,1,1,16,"[0, 19, 17, 20, 4, 15, 11, 28, 16]",9,0,[],21.99407872,10296,1281,1,0,9,2.5408012360364265
undo,7,16,0,0,0,0,[0],1,29,"[1, 2, 3, 4, 5, 6, 7, 8, 9, 10, 11, 12, 13, 14, 15, 16, 17, 18, 19, 20, 21, 22, 23, 24, 25, 26, 27, 28, 29]",300,10,-1,13,161,9,0.0
undo,7,16,0,0,0,17,"[0, 17]",2,27,"[1, 2, 3, 4, 5, 7, 8, 9, 10, 11, 12, 13, 14, 15, 16, 18, 19, 20, 21, 22, 23, 24, 25, 26, 27, 28, 29]",241.3058776,2083,2073,2,58,9,1.0
undo,7,16,0,0,0,16,"[0, 17, 16]",3,26,"[1, 2, 3, 4, 5, 7, 8, 9, 10, 11, 12, 13, 14, 15, 18, 19, 20, 21, 22, 23, 24, 25, 26, 27, 28, 29]",212.9862731,2726,643,2,52,9,1.0529535521792848
undo,7,16,0,0,0,21,"[0, 17, 16, 21]",4,19,"[3, 5, 7, 8, 9, 10, 12, 14, 15, 19, 20, 22, 23, 24, 25, 26, 27, 28, 29]",168.332046,3527,801,9,18,8,1.5524765786046826
undo,7,16,0,0,0,8,"[0, 17, 16, 21, 8]",5,7,"[3, 5, 9, 12, 15, 20, 25]",119.0776046,4487,960,9,6,8,1.458624751458944
undo,7,16,0,0,0,20,"[0, 17, 16, 21, 8, 20]",6,3,"[9, 15, 25]",61.30217727,5601,1114,4,1,8,1.3191752290945782
undo,7,16,0,0,0,25,"[0, 17, 16, 21, 8, 20, 25]",7,2,"[9, 15]",48.65306663,6079,478,2,0,8,1.3641436248537882
undo,7,16,0,0,1,9,"[0, 17, 16, 21, 8, 20, 25, 9]",8,0,[],35.84681815,6716,637,1,0,8,1.3406027753205443
undo,7,16,0,1,1,9,"[0, 17, 16, 21, 8, 20, 25, 9]",8,0,[],35.84681815,7986,1270,1,0,8,1.3406027753205443
undo,8,18,0,0,0,0,[0],1,28,"[1, 2, 3, 4, 5, 6, 7, 8, 9, 10, 11, 12, 13, 14, 16, 17, 18, 19, 20, 21, 22, 23, 24, 25, 26, 27, 28, 29]",300,10,-1,3,136,10,0.0
undo,8,18,0,0,0,25,"[0, 25]",2,22,"[1, 2, 3, 4, 5, 7, 8, 9, 10, 12, 13, 14, 16, 18, 19, 20, 21, 23, 24, 26, 27, 28]",239.9916672,2410,2400,7,151,9,1.0
undo,8,18,0,0,0,8,"[0, 25, 8]",3,18,"[1, 2, 3, 5, 7, 9, 10, 12, 13, 14, 16, 18, 20, 21, 23, 26, 27, 28]",202.9376526,3210,800,4,45,9,1.0260955462572583
undo,8,18,0,0,0,13,"[0, 25, 8, 13]",4,16,"[1, 3, 5, 7, 9, 10, 12, 14, 16, 18, 20, 21, 23, 26, 27, 28]",181.8426295,3534,324,3,20,9,1.2569221801369617
undo,8,18,0,0,0,14,"[0, 25, 8, 13, 14]",5,13,"[3, 5, 7, 9, 10, 12, 16, 18, 21, 23, 26, 27, 28]",162.8689635,4172,638,3,12,9,1.2231659856162418
undo,8,18,0,0,0,3,"[0, 25, 8, 13, 14, 3]",6,8,"[5, 7, 9, 12, 23, 26, 27, 28]",132.7857456,4814,642,3,6,9,1.366392221372545
undo,8,18,0,0,0,5,"[0, 25, 8, 13, 14, 3, 5]",7,2,"[12, 27]",74.6049928,5929,1115,1,1,9,1.2610806019335608
undo,8,18,0,0,0,12,"[0, 25, 8, 13, 14, 3, 5, 12]",8,1,[27],63.20323855,6245,316,1,0,9,1.2762589009967817
undo,8,18,0,0,1,27,"[0, 25, 8, 13, 14, 3, 5, 12, 27]",9,0,[],22.48469241,7198,953,1,0,9,1.4075470288984155
undo,8,18,0,1,1,27,"[0, 25, 8, 13, 14, 3, 5, 12, 27]",9,0,[],22.48469241,10986,3788,1,0,9,1.4075470288984155
undo,9,31,0,0,0,0,[0],1,27,"[1, 3, 4, 5, 6, 7, 8, 10, 11, 12, 13, 14, 15, 16, 17, 18, 19, 20, 21, 22, 23, 24, 25, 26, 27, 28, 29]",300,10,-1,2,87,10,0.0
undo,9,31,0,0,0,14,"[0, 14]",2,25,"[1, 3, 5, 6, 7, 8, 10, 11, 12, 13, 15, 16, 17, 18, 19, 20, 21, 22, 23, 24, 25, 26, 27, 28, 29]",263.861378,3074,3064,2,59,10,1.0
undo,9,31,0,0,0,27,"[0, 14, 27]",3,22,"[1, 3, 5, 6, 7, 8, 10, 11, 12, 13, 15, 16, 17, 18, 19, 20, 21, 22, 24, 25, 28, 29]",235.6833724,4498,1424,1,39,10,1.5881859159302467
undo,9,31,0,0,0,8,"[0, 14, 27, 8]",4,20,"[1, 3, 5, 6, 7, 10, 11, 12, 13, 16, 17, 18, 19, 20, 21, 22, 24, 25, 28, 29]",224.6380114,4975,477,1,36,10,2.1665048452331277
undo,9,31,0,0,0,18,"[0, 14, 27, 8, 18]",5,15,"[1, 5, 6, 7, 11, 12, 13, 16, 17, 19, 20, 22, 25, 28, 29]",188.7911147,5774,799,1,26,10,1.7273375741920205
undo,9,31,0,0,0,17,"[0, 14, 27, 8, 18, 17]",6,13,"[1, 5, 6, 7, 11, 12, 13, 16, 19, 20, 22, 25, 28]",159.584951,6412,638,1,13,10,1.551192427769927
undo,9,31,0,0,0,11,"[0, 14, 27, 8, 18, 17, 11]",7,7,"[5, 12, 16, 19, 22, 25, 28]",118.4753414,7519,1107,1,4,10,2.9650760544203494
undo,9,31,0,0,0,5,"[0, 14, 27, 8, 18, 17, 11, 5]",8,2,"[16, 28]",74.79468207,8794,1275,1,1,10,2.56711965625205
undo,9,31,0,0,0,28,"[0, 14, 27, 8, 18, 17, 11, 5, 28]",9,1,[16],54.57093365,9583,789,1,0,10,2.2865510762058148
undo,9,31,0,0,1,16,"[0, 14, 27, 8, 18, 17, 11, 5, 28, 16]",10,0,[],20.95546102,10536,953,1,0,10,2.089356850786318
undo,9,31,0,1,1,16,"[0, 14, 27, 8, 18, 17, 11, 5, 28, 16]",10,0,[],20.95546102,11817,1281,1,0,10,2.089356850786318
undo,10,37,0,0,0,0,[0],1,29,"[1, 2, 3, 4, 5, 6, 7, 8, 9, 10, 11, 12, 13, 14, 15, 16, 17, 18, 19, 20, 21, 22, 23, 24, 25, 26, 27, 28, 29]",300,10,-1,6,168,10,0.0
undo,10,37,0,0,0,18,"[0, 18]",2,19,"[1, 2, 4, 6, 7, 9, 10, 12, 14, 15, 17, 19, 20, 21, 22, 23, 26, 28, 29]",202.4090168,2419,2409,6,89,10,1.0
undo,10,37,0,0,0,7,"[0, 18, 7]",3,12,"[1, 2, 4, 9, 15, 17, 19, 20, 21, 22, 26, 29]",175.2428614,3060,641,6,53,10,1.0413073512834488
undo,10,37,0,0,0,22,"[0, 18, 7, 22]",4,8,"[1, 2, 4, 15, 19, 20, 21, 26]",125.2428614,4014,954,6,29,10,1.0730792320325544
undo,10,37,0,0,0,4,"[0, 18, 7, 22, 4]",5,7,"[1, 2, 15, 19, 20, 21, 26]",100.2428614,4815,801,4,16,10,1.2290245562206235
undo,10,37,0,0,0,2,"[0, 18, 7, 22, 4, 2]",6,5,"[1, 15, 19, 20, 21]",88.84110714,5448,633,4,7,10,1.3968113858365216
undo,10,37,0,0,0,1,"[0, 18, 7, 22, 4, 2, 1]",7,4,"[15, 19, 20, 21]",71.63645661,6557,1109,4,3,10,1.4424239294761476
undo,10,37,0,0,0,20,"[0, 18, 7, 22, 4, 2, 1, 20]",8,3,"[15, 19, 21]",37.40197107,7194,637,2,1,10,1.7518607796010042
undo,10,37,0,0,0,21,"[0, 18, 7, 22, 4, 2, 1, 20, 21]",9,1,[15],22.97976597,7825,631,1,0,10,1.7849997782949483
undo,10,37,0,0,1,15,"[0, 18, 7, 22, 4, 2, 1, 20, 21, 15]",10,0,[],7.979765971,8623,798,1,0,10,1.7549597142828803
undo,10,37,0,1,1,15,"[0, 18, 7, 22, 4, 2, 1, 20, 21, 15]",10,0,[],7.979765971,15960,7337,1,0,10,1.7549597142828803
undo,11,21,0,0,0,0,[0],1,29,"[1, 2, 3, 4, 5, 6, 7, 8, 9, 10, 11, 12, 13, 14, 15, 16, 17, 18, 19, 20, 21, 22, 23, 24, 25, 26, 27, 28, 29]",300,11,-1,84,830,9,0.0
undo,11,21,0,0,0,21,"[0, 21]",2,22,"[1, 3, 4, 6, 8, 9, 10, 11, 12, 14, 15, 16, 17, 18, 20, 22, 23, 24, 25, 26, 27, 29]",210.1111798,2750,2739,1,69,9,1.0
undo,11,21,0,0,0,14,"[0, 21, 14]",3,15,"[1, 4, 6, 8, 9, 15, 16, 17, 18, 20, 22, 23, 24, 25, 29]",184.4986828,3395,645,35,96,8,1.0083702391721483
undo,11,21,0,0,0,4,"[0, 21, 14, 4]",4,13,"[1, 8, 9, 15, 16, 17, 18, 20, 22, 23, 24, 25, 29]",170.3565472,4506,1111,20,39,8,1.0135821167776475
undo,11,21,0,0,0,23,"[0, 21, 14, 4, 23]",5,10,"[8, 15, 16, 17, 18, 20, 22, 24, 25, 29]",134.2317635,5624,1118,14,14,8,1.6740850510094318
undo,11,21,0,0,0,25,"[0, 21, 14, 4, 23, 25]",6,5,"[17, 18, 20, 22, 29]",90.90740543,6576,952,5,3,8,3.4955738644324623
undo,11,21,0,0,0,29,"[0, 21, 14, 4, 23, 25, 29]",7,2,"[18, 22]",45.68572921,7529,953,2,0,8,3.001920993979745
undo,11,21,0,0,1,18,"[0, 21, 14, 4, 23, 25, 29, 18]",8,0,[],17.03263165,8322,793,1,0,8,4.789869070924309
undo,11,21,1,0,0,29,"[0, 21, 14, 4, 23, 25, 29]",7,2,"[18, 22]",45.68572921,10216,1894,2,0,8,3.001920993979745
undo,11,21,1,0,0,25,"[0, 21, 14, 4, 23, 25]",6,5,"[17, 18, 20, 22, 29]",90.90740543,11005,789,5,3,8,3.4955738644324623
undo,11,21,1,0,0,23,"[0, 21, 14, 4, 23]",5,10,"[8, 15, 16, 17, 18, 20, 22, 24, 25, 29]",134.2317635,11160,155,14,14,8,1.6740850510094318
undo,11,21,1,0,0,4,"[0, 21, 14, 4]",4,13,"[1, 8, 9, 15, 16, 17, 18, 20, 22, 23, 24, 25, 29]",170.3565472,11962,802,20,39,8,1.0135821167776475
undo,11,21,1,0,0,14,"[0, 21, 14]",3,15,"[1, 4, 6, 8, 9, 15, 16, 17, 18, 20, 22, 23, 24, 25, 29]",184.4986828,12293,331,35,96,8,1.0083702391721483
undo,11,21,1,0,0,21,"[0, 21]",2,22,"[1, 3, 4, 6, 8, 9, 10, 11, 12, 14, 15, 16, 17, 18, 20, 22, 23, 24, 25, 26, 27, 29]",210.1111798,13246,953,1,69,9,1.0
undo,11,21,1,0,0,0,[0],1,29,"[1, 2, 3, 4, 5, 6, 7, 8, 9, 10, 11, 12, 13, 14, 15, 16, 17, 18, 19, 20, 21, 22, 23, 24, 25, 26, 27, 28, 29]",300,13565,319,84,830,9,0.0
undo,11,21,0,0,0,21,"[0, 21]",2,22,"[1, 3, 4, 6, 8, 9, 10, 11, 12, 14, 15, 16, 17, 18, 20, 22, 23, 24, 25, 26, 27, 29]",210.1111798,14674,1109,1,69,9,1.0
undo,11,21,0,0,0,14,"[0, 21, 14]",3,15,"[1, 4, 6, 8, 9, 15, 16, 17, 18, 20, 22, 23, 24, 25, 29]",184.4986828,15636,962,35,96,8,1.0083702391721483
undo,11,21,0,0,0,4,"[0, 21, 14, 4]",4,13,"[1, 8, 9, 15, 16, 17, 18, 20, 22, 23, 24, 25, 29]",170.3565472,16589,953,20,39,8,1.0135821167776475
undo,11,21,0,0,0,16,"[0, 21, 14, 4, 16]",5,7,"[8, 15, 17, 23, 24, 25, 29]",125.758341,17225,636,4,6,8,1.0675217597413178
undo,11,21,0,0,0,8,"[0, 21, 14, 4, 16, 8]",6,3,"[15, 23, 24]",107.1572657,17864,639,3,1,8,1.0643903127717425
undo,11,21,0,0,0,15,"[0, 21, 14, 4, 16, 8, 15]",7,2,"[23, 24]",82.15726573,18659,795,2,0,8,1.29402645910376
undo,11,21,0,0,1,24,"[0, 21, 14, 4, 16, 8, 15, 24]",8,0,[],36.4516862,19616,957,1,0,8,1.3251667405154008
undo,11,21,1,0,0,15,"[0, 21, 14, 4, 16, 8, 15]",7,2,"[23, 24]",82.15726573,21363,1747,2,0,8,1.29402645910376
undo,11,21,1,0,0,8,"[0, 21, 14, 4, 16, 8]",6,3,"[15, 23, 24]",107.1572657,21519,156,3,1,8,1.0643903127717425
undo,11,21,1,0,0,16,"[0, 21, 14, 4, 16]",5,7,"[8, 15, 17, 23, 24, 25, 29]",125.758341,21677,158,4,6,8,1.0675217597413178
undo,11,21,1,0,0,4,"[0, 21, 14, 4]",4,13,"[1, 8, 9, 15, 16, 17, 18, 20, 22, 23, 24, 25, 29]",170.3565472,21834,157,20,39,8,1.0135821167776475
undo,11,21,1,0,0,14,"[0, 21, 14]",3,15,"[1, 4, 6, 8, 9, 15, 16, 17, 18, 20, 22, 23, 24, 25, 29]",184.4986828,22468,634,35,96,8,1.0083702391721483
undo,11,21,1,0,0,21,"[0, 21]",2,22,"[1, 3, 4, 6, 8, 9, 10, 11, 12, 14, 15, 16, 17, 18, 20, 22, 23, 24, 25, 26, 27, 29]",210.1111798,23258,790,1,69,9,1.0
undo,11,21,0,0,0,23,"[0, 21, 23]",3,17,"[1, 4, 6, 8, 9, 11, 12, 14, 15, 16, 17, 18, 20, 22, 24, 25, 29]",180.496994,24039,781,1,20,9,1.2068548240560575
undo,11,21,0,0,0,14,"[0, 21, 23, 14]",4,13,"[1, 4, 8, 9, 15, 16, 17, 18, 20, 22, 24, 25, 29]",151.4281103,24837,798,1,9,9,1.297088860827702
undo,11,21,0,0,0,4,"[0, 21, 23, 14, 4]",5,9,"[8, 15, 16, 17, 18, 22, 24, 25, 29]",137.2859747,25320,483,1,8,9,1.2721354039174873
undo,11,21,0,0,0,16,"[0, 21, 23, 14, 4, 16]",6,3,"[8, 15, 24]",92.68776842,26116,796,1,3,9,1.2701343613365228
undo,11,21,0,0,0,8,"[0, 21, 23, 14, 4, 16, 8]",7,2,"[15, 24]",74.08669318,26750,634,1,1,9,1.246922453045919
undo,11,21,0,0,0,15,"[0, 21, 23, 14, 4, 16, 8, 15]",8,1,[24],49.08669318,27388,638,1,0,9,1.4904718261747145
undo,11,21,0,0,1,24,"[0, 21, 23, 14, 4, 16, 8, 15, 24]",9,0,[],3.381113654,28180,792,1,0,9,1.4914513287029687
undo,11,21,0,1,1,24,"[0, 21, 23, 14, 4, 16, 8, 15, 24]",9,0,[],3.381113654,29443,1263,1,0,9,1.4914513287029687
undo,12,25,0,0,0,0,[0],1,28,"[1, 2, 3, 4, 5, 7, 8, 9, 10, 11, 12, 13, 14, 15, 16, 17, 18, 19, 20, 21, 22, 23, 24, 25, 26, 27, 28, 29]",300,11,-1,5,94,10,0.0
undo,12,25,0,0,0,23,"[0, 23]",2,23,"[1, 2, 3, 5, 7, 8, 9, 11, 12, 13, 14, 16, 17, 19, 20, 21, 22, 24, 25, 26, 27, 28, 29]",259.7756293,3261,3250,3,33,10,1.0
undo,12,25,0,0,0,7,"[0, 23, 7]",3,16,"[1, 3, 5, 8, 9, 11, 13, 17, 19, 21, 22, 24, 26, 27, 28, 29]",181.9424744,4064,803,1,21,9,1.0073109045884563
undo,12,25,0,0,0,24,"[0, 23, 7, 24]",4,10,"[3, 5, 8, 9, 11, 13, 19, 22, 28, 29]",157.1836376,4545,481,1,17,9,1.0161584555781231
undo,12,25,0,0,0,9,"[0, 23, 7, 24, 9]",5,8,"[3, 8, 11, 13, 19, 22, 28, 29]",139.1558812,5338,793,1,16,9,1.0303325523073676
undo,12,25,0,0,0,3,"[0, 23, 7, 24, 9, 3]",6,4,"[8, 11, 13, 28]",108.8903893,5980,642,1,5,9,1.0321657704271587
undo,12,25,0,0,0,8,"[0, 23, 7, 24, 9, 3, 8]",7,2,"[13, 28]",69.68579774,6936,956,2,0,8,1.1517293849793737
undo,12,25,0,0,1,28,"[0, 23, 7, 24, 9, 3, 8, 28]",8,0,[],29.07791673,7577,641,1,0,8,1.251990046205978
undo,12,25,1,0,0,8,"[0, 23, 7, 24, 9, 3, 8]",7,2,"[13, 28]",69.68579774,12007,4430,2,0,8,1.1517293849793737
undo,12,25,1,0,0,3,"[0, 23, 7, 24, 9, 3]",6,4,"[8, 11, 13, 28]",108.8903893,12166,159,1,5,9,1.0321657704271587
undo,12,25,1,0,0,9,"[0, 23, 7, 24, 9]",5,8,"[3, 8, 11, 13, 19, 22, 28, 29]",139.1558812,12328,162,1,16,9,1.0303325523073676
undo,12,25,1,0,0,24,"[0, 23, 7, 24]",4,10,"[3, 5, 8, 9, 11, 13, 19, 22, 28, 29]",157.1836376,12824,496,1,17,9,1.0161584555781231
undo,12,25,1,0,0,7,"[0, 23, 7]",3,16,"[1, 3, 5, 8, 9, 11, 13, 17, 19, 21, 22, 24, 26, 27, 28, 29]",181.9424744,12984,160,1,21,9,1.0073109045884563
undo,12,25,1,0,0,23,"[0, 23]",2,23,"[1, 2, 3, 5, 7, 8, 9, 11, 12, 13, 14, 16, 17, 19, 20, 21, 22, 24, 25, 26, 27, 28, 29]",259.7756293,13470,486,3,33,10,1.0
undo,12,25,0,0,0,19,"[0, 23, 19]",3,21,"[1, 2, 3, 5, 7, 8, 9, 11, 12, 13, 14, 16, 17, 20, 21, 22, 24, 25, 27, 28, 29]",223.9287326,14592,1122,3,24,10,1.583101227007039
undo,12,25,0,0,0,29,"[0, 23, 19, 29]",4,19,"[1, 2, 3, 5, 7, 8, 9, 11, 12, 13, 14, 16, 17, 20, 21, 22, 24, 25, 28]",207.649912,15231,639,3,17,10,1.474631541426484
undo,12,25,0,0,0,22,"[0, 23, 19, 29, 22]",5,18,"[1, 2, 3, 5, 7, 8, 9, 11, 12, 13, 14, 16, 17, 20, 21, 24, 25, 28]",191.5253965,15868,637,3,14,10,1.4020377754906637
undo,12,25,0,0,0,7,"[0, 23, 19, 29, 22, 7]",6,7,"[3, 8, 9, 11, 13, 24, 28]",115.8814939,17147,1279,3,11,10,1.5709678649326715
undo,12,25,0,0,0,24,"[0, 23, 19, 29, 22, 7, 24]",7,5,"[3, 8, 9, 13, 28]",91.12265712,17782,635,3,7,10,1.486191600033379
undo,12,25,0,0,0,9,"[0, 23, 19, 29, 22, 7, 24, 9]",8,4,"[3, 8, 13, 28]",73.09490075,18574,792,3,3,10,1.453504870342882
undo,12,25,0,0,0,3,"[0, 23, 19, 29, 22, 7, 24, 9, 3]",9,3,"[8, 13, 28]",42.82940885,19366,792,3,0,10,1.388955167525479
undo,12,25,0,0,1,8,"[0, 23, 19, 29, 22, 7, 24, 9, 3, 8]",10,0,[],3.624817279,20638,1272,1,0,10,1.4820797135778283
undo,12,25,0,1,1,8,"[0, 23, 19, 29, 22, 7, 24, 9, 3, 8]",10,0,[],3.624817279,21739,1101,1,0,10,1.4820797135778283
undo,13,44,0,0,0,0,[0],1,29,"[1, 2, 3, 4, 5, 6, 7, 8, 9, 10, 11, 12, 13, 14, 15, 16, 17, 18, 19, 20, 21, 22, 23, 24, 25, 26, 27, 28, 29]",300,11,-1,13,126,7,0.0
undo,13,44,0,0,0,11,"[0, 11]",2,18,"[4, 5, 6, 7, 8, 9, 12, 14, 16, 17, 19, 20, 22, 23, 24, 25, 26, 28]",152.7790776,2570,2559,5,34,7,1.0
undo,13,44,0,0,0,24,"[0, 11, 24]",3,13,"[4, 5, 7, 8, 9, 12, 14, 17, 20, 22, 23, 25, 28]",125.8532535,3523,953,5,23,7,1.1588941745226709
undo,13,44,0,0,0,14,"[0, 11, 24, 14]",4,5,"[4, 7, 9, 17, 23]",80.2024047,4474,951,5,0,5,1.228993990184162
undo,13,44,0,0,1,4,"[0, 11, 24, 14, 4]",5,0,[],16.13213078,5117,643,1,0,5,1.6161760015312514
undo,13,44,1,0,0,14,"[0, 11, 24, 14]",4,5,"[4, 7, 9, 17, 23]",80.2024047,7014,1897,5,0,5,1.228993990184162
undo,13,44,1,0,0,24,"[0, 11, 24]",3,13,"[4, 5, 7, 8, 9, 12, 14, 17, 20, 22, 23, 25, 28]",125.8532535,9542,2528,5,23,7,1.1588941745226709
undo,13,44,0,0,0,9,"[0, 11, 24, 9]",4,7,"[4, 7, 8, 12, 14, 20, 23]",93.09657483,11137,1595,2,8,7,1.3039383713641313
undo,13,44,0,0,0,4,"[0, 11, 24, 9, 4]",5,5,"[7, 12, 14, 20, 23]",73.39885923,11617,480,2,3,7,1.2901330701441578
undo,13,44,0,0,0,7,"[0, 11, 24, 9, 4, 7]",6,1,[23],42.38273439,12413,796,1,0,7,1.2468141312360979
undo,13,44,0,0,1,23,"[0, 11, 24, 9, 4, 7, 23]",7,0,[],23.27776121,13046,633,1,0,7,1.2635191782769477
undo,13,44,0,1,1,23,"[0, 11, 24, 9, 4, 7, 23]",7,0,[],23.27776121,15431,2385,1,0,7,1.2635191782769477
undo,14,7,0,0,0,0,[0],1,29,"[1, 2, 3, 4, 5, 6, 7, 8, 9, 10, 11, 12, 13, 14, 15, 16, 17, 18, 19, 20, 21, 22, 23, 24, 25, 26, 27, 28, 29]",300,14,-1,3,79,9,0.0
undo,14,7,0,0,0,15,"[0, 15]",2,19,"[2, 4, 5, 6, 7, 8, 9, 10, 13, 14, 16, 18, 19, 20, 21, 23, 25, 27, 28]",230.9348134,2620,2606,2,38,9,1.0
undo,14,7,0,0,0,6,"[0, 15, 6]",3,18,"[2, 4, 5, 7, 8, 9, 10, 13, 14, 16, 18, 19, 20, 21, 23, 25, 27, 28]",205.854941,3098,478,2,36,9,1.366719602896943
undo,14,7,0,0,0,25,"[0, 15, 6, 25]",4,11,"[2, 4, 7, 13, 14, 16, 18, 19, 20, 21, 23]",138.6760753,4065,967,2,28,9,1.3624631728355765
undo,14,7,0,0,0,4,"[0, 15, 6, 25, 4]",5,7,"[2, 7, 13, 16, 18, 19, 20]",113.9374415,4546,481,2,12,9,1.3249684384385587
undo,14,7,0,0,0,20,"[0, 15, 6, 25, 4, 20]",6,5,"[2, 7, 13, 18, 19]",94.29055881,5022,476,1,6,9,1.3721893242679268
undo,14,7,0,0,0,18,"[0, 15, 6, 25, 4, 20, 18]",7,3,"[7, 13, 19]",81.48431034,5498,476,1,2,9,1.5262542308371432
undo,14,7,0,0,0,7,"[0, 15, 6, 25, 4, 20, 18, 7]",8,1,[19],40.25325408,6139,641,1,0,9,1.41986878673423
undo,14,7,0,0,1,19,"[0, 15, 6, 25, 4, 20, 18, 7, 19]",9,0,[],10.84237174,6782,643,1,0,9,1.5285658163212987
undo,14,7,0,1,1,19,"[0, 15, 6, 25, 4, 20, 18, 7, 19]",9,0,[],10.84237174,7266,484,1,0,9,1.5285658163212987
undo,15,8,0,0,0,0,[0],1,29,"[1, 2, 3, 4, 5, 6, 7, 8, 9, 10, 11, 12, 13, 14, 15, 16, 17, 18, 19, 20, 21, 22, 23, 24, 25, 26, 27, 28, 29]",300,11,-1,10,149,9,0.0
undo,15,8,0,0,0,5,"[0, 5]",2,28,"[1, 2, 3, 4, 6, 7, 8, 9, 10, 11, 12, 13, 14, 15, 16, 17, 18, 19, 20, 21, 22, 23, 24, 25, 26, 27, 28, 29]",254.5137383,1906,1895,10,100,9,1.0
undo,15,8,0,0,0,25,"[0, 5, 25]",3,20,"[1, 2, 3, 4, 6, 11, 12, 14, 15, 16, 17, 18, 19, 20, 21, 22, 23, 24, 28, 29]",215.3091468,2544,638,4,42,9,1.2272747879909065
undo,15,8,0,0,0,1,"[0, 5, 25, 1]",4,17,"[3, 4, 6, 11, 12, 14, 15, 16, 17, 18, 20, 21, 22, 23, 24, 28, 29]",190.3091468,3185,641,3,24,9,1.1770245007593956
undo,15,8,0,0,0,23,"[0, 5, 25, 1, 23]",5,15,"[3, 4, 6, 11, 14, 15, 16, 17, 18, 20, 21, 22, 24, 28, 29]",167.2874179,3984,799,1,14,9,1.141996583852372
undo,15,8,0,0,0,4,"[0, 5, 25, 1, 23, 4]",6,6,"[3, 14, 16, 18, 21, 28]",117.9518324,4937,953,3,4,8,1.115517190692443
undo,15,8,0,0,0,18,"[0, 5, 25, 1, 23, 4, 18]",7,2,"[14, 28]",74.94020603,5738,801,2,0,8,1.702606074443807
undo,15,8,0,0,1,14,"[0, 5, 25, 1, 23, 4, 18, 14]",8,0,[],17.45107663,6701,963,1,0,8,3.306985013025639
undo,15,8,0,1,1,14,"[0, 5, 25, 1, 23, 4, 18, 14]",8,0,[],17.45107663,8442,1741,1,0,8,3.306985013025639
undo,16,9,0,0,0,0,[0],1,27,"[1, 3, 4, 5, 6, 7, 8, 9, 10, 11, 13, 14, 15, 16, 17, 18, 19, 20, 21, 22, 23, 24, 25, 26, 27, 28, 29]",300,10,-1,2,182,10,0.0
undo,16,9,0,0,0,9,"[0, 9]",2,26,"[1, 3, 4, 5, 6, 7, 8, 10, 11, 13, 14, 15, 16, 17, 18, 19, 20, 21, 22, 23, 24, 25, 26, 27, 28, 29]",225.5352432,2941,2931,2,101,9,1.0
undo,16,9,0,0,0,23,"[0, 9, 23]",3,22,"[1, 3, 4, 5, 7, 8, 10, 11, 13, 15, 16, 17, 18, 19, 20, 21, 22, 24, 25, 26, 27, 28]",203.1745635,3420,479,2,70,9,1.6262276606762436
undo,16,9,0,0,0,8,"[0, 9, 23, 8]",4,18,"[3, 4, 5, 7, 10, 11, 15, 16, 17, 18, 19, 20, 21, 22, 25, 26, 27, 28]",181.7036529,3895,475,1,36,9,1.8547307061753238
undo,16,9,0,0,0,28,"[0, 9, 23, 8, 28]",5,17,"[3, 4, 5, 7, 10, 11, 15, 16, 17, 18, 19, 20, 21, 22, 25, 26, 27]",170.8869991,4373,478,1,23,9,1.7382749966569708
undo,16,9,0,0,0,21,"[0, 9, 23, 8, 28, 21]",6,8,"[10, 16, 17, 18, 20, 22, 25, 26]",117.8869991,5169,796,7,5,8,1.5363946588735553
undo,16,9,0,0,0,20,"[0, 9, 23, 8, 28, 21, 20]",7,5,"[10, 16, 17, 22, 26]",105.8039531,5644,475,5,0,8,1.5333390745950446
undo,16,9,0,0,1,22,"[0, 9, 23, 8, 28, 21, 20, 22]",8,0,[],29.74476563,6609,965,1,0,8,2.2739446324527752
undo,16,9,0,1,1,22,"[0, 9, 23, 8, 28, 21, 20, 22]",8,0,[],29.74476563,8831,2222,1,0,8,2.2739446324527752
undo,17,0,0,0,0,0,[0],1,27,"[2, 3, 4, 5, 6, 7, 8, 9, 10, 11, 12, 13, 14, 15, 16, 17, 19, 20, 21, 22, 23, 24, 25, 26, 27, 28, 29]",300,10,-1,104,1136,9,0.0
undo,17,0,0,0,0,5,"[0, 5]",2,24,"[2, 3, 4, 7, 8, 9, 11, 12, 13, 14, 15, 16, 17, 19, 20, 21, 22, 23, 24, 25, 26, 27, 28, 29]",164.5156836,2042,2032,5,112,9,1.0
undo,17,0,0,0,0,4,"[0, 5, 4]",3,20,"[2, 3, 7, 8, 9, 11, 12, 13, 14, 15, 17, 19, 20, 21, 22, 23, 24, 25, 26, 28]",139.4358112,2677,635,4,61,9,1.0257023158632692
undo,17,0,0,0,0,26,"[0, 5, 4, 26]",4,18,"[3, 7, 8, 9, 11, 12, 13, 14, 15, 17, 19, 20, 21, 22, 23, 24, 25, 28]",127.3942166,3153,476,4,26,9,1.0684029773259323
undo,17,0,0,0,0,24,"[0, 5, 4, 26, 24]",5,12,"[3, 7, 8, 9, 11, 12, 15, 17, 19, 20, 23, 28]",110.2769738,3793,640,4,16,9,1.1372083333602885
undo,17,0,0,0,0,15,"[0, 5, 4, 26, 24, 15]",6,8,"[3, 7, 8, 9, 11, 12, 17, 19]",86.93173875,4431,638,4,7,9,1.1271717591548023
undo,17,0,0,0,0,7,"[0, 5, 4, 26, 24, 15, 7]",7,4,"[3, 8, 17, 19]",55.86728962,5229,798,3,2,9,1.190834598819092
undo,17,0,0,0,0,8,"[0, 5, 4, 26, 24, 15, 7, 8]",8,2,"[3, 19]",36.76231644,6174,945,2,0,9,1.1832849301094388
undo,17,0,0,0,1,3,"[0, 5, 4, 26, 24, 15, 7, 8, 3]",9,0,[],6.348503789,6652,478,1,0,9,1.3547295451928671
undo,17,0,0,1,1,3,"[0, 5, 4, 26, 24, 15, 7, 8, 3]",9,0,[],6.348503789,11227,4575,1,0,9,1.3547295451928671
undo,18,35,0,0,0,0,[0],1,29,"[1, 2, 3, 4, 5, 6, 7, 8, 9, 10, 11, 12, 13, 14, 15, 16, 17, 18, 19, 20, 21, 22, 23, 24, 25, 26, 27, 28, 29]",300,12,-1,5,236,11,0.0
undo,18,35,0,0,0,24,"[0, 24]",2,27,"[1, 2, 4, 5, 6, 7, 8, 9, 10, 11, 12, 13, 14, 15, 16, 17, 18, 19, 20, 21, 22, 23, 25, 26, 27, 28, 29]",268.9838752,3063,3051,49,512,10,1.0
undo,18,35,0,0,0,17,"[0, 24, 17]",3,26,"[1, 2, 4, 5, 6, 7, 8, 9, 10, 11, 12, 13, 14, 15, 16, 18, 19, 20, 21, 22, 23, 25, 26, 27, 28, 29]",257.2791753,3698,635,33,238,10,1.0771477201815276
undo,18,35,0,0,0,1,"[0, 24, 17, 1]",4,25,"[2, 4, 5, 6, 7, 8, 9, 10, 11, 12, 13, 14, 15, 16, 18, 19, 20, 21, 22, 23, 25, 26, 27, 28, 29]",241.4677869,4175,477,26,151,10,1.2244804141479215
undo,18,35,0,0,0,15,"[0, 24, 17, 1, 15]",5,23,"[2, 4, 5, 6, 7, 8, 9, 10, 11, 12, 14, 16, 18, 19, 20, 21, 22, 23, 25, 26, 27, 28, 29]",218.6204676,4813,638,26,78,10,1.4642196672428094
undo,18,35,0,0,0,23,"[0, 24, 17, 1, 15, 23]",6,11,"[4, 5, 6, 9, 18, 19, 25, 26, 27, 28, 29]",158.1804147,5934,1121,15,12,10,1.3338903684702363
undo,18,35,0,0,0,6,"[0, 24, 17, 1, 15, 23, 6]",7,4,"[5, 9, 18, 25]",112.5295658,6737,803,4,2,10,1.2397059724630664
undo,18,35,0,0,0,25,"[0, 24, 17, 1, 15, 23, 6, 25]",8,2,"[9, 18]",88.50874155,7691,954,2,0,10,1.305974427386027
undo,18,35,0,0,0,18,"[0, 24, 17, 1, 15, 23, 6, 25, 18]",9,1,[9],54.67089291,8487,796,1,0,10,1.9072277988119046
undo,18,35,0,0,1,9,"[0, 24, 17, 1, 15, 23, 6, 25, 18, 9]",10,0,[],34.64590852,9120,633,1,0,10,2.3604988633102257
undo,18,35,1,0,0,18,"[0, 24, 17, 1, 15, 23, 6, 25, 18]",9,1,[9],54.67089291,14666,5546,1,0,10,1.9072277988119046
undo,18,35,1,0,0,25,"[0, 24, 17, 1, 15, 23, 6, 25]",8,2,"[9, 18]",88.50874155,14824,158,2,0,10,1.305974427386027
undo,18,35,1,0,0,6,"[0, 24, 17, 1, 15, 23, 6]",7,4,"[5, 9, 18, 25]",112.5295658,14982,158,4,2,10,1.2397059724630664
undo,18,35,1,0,0,23,"[0, 24, 17, 1, 15, 23]",6,11,"[4, 5, 6, 9, 18, 19, 25, 26, 27, 28, 29]",158.1804147,15140,158,15,12,10,1.3338903684702363
undo,18,35,1,0,0,15,"[0, 24, 17, 1, 15]",5,23,"[2, 4, 5, 6, 7, 8, 9, 10, 11, 12, 14, 16, 18, 19, 20, 21, 22, 23, 25, 26, 27, 28, 29]",218.6204676,15296,156,26,78,10,1.4642196672428094
undo,18,35,1,0,0,1,"[0, 24, 17, 1]",4,25,"[2, 4, 5, 6, 7, 8, 9, 10, 11, 12, 13, 14, 15, 16, 18, 19, 20, 21, 22, 23, 25, 26, 27, 28, 29]",241.4677869,15452,156,26,151,10,1.2244804141479215
undo,18,35,1,0,0,17,"[0, 24, 17]",3,26,"[1, 2, 4, 5, 6, 7, 8, 9, 10, 11, 12, 13, 14, 15, 16, 18, 19, 20, 21, 22, 23, 25, 26, 27, 28, 29]",257.2791753,15610,158,33,238,10,1.0771477201815276
undo,18,35,1,0,0,24,"[0, 24]",2,27,"[1, 2, 4, 5, 6, 7, 8, 9, 10, 11, 12, 13, 14, 15, 16, 17, 18, 19, 20, 21, 22, 23, 25, 26, 27, 28, 29]",268.9838752,15770,160,49,512,10,1.0
undo,18,35,1,0,0,0,[0],1,29,"[1, 2, 3, 4, 5, 6, 7, 8, 9, 10, 11, 12, 13, 14, 15, 16, 17, 18, 19, 20, 21, 22, 23, 24, 25, 26, 27, 28, 29]",300,15929,159,5,236,11,0.0
undo,18,35,0,0,0,27,"[0, 27]",2,27,"[1, 2, 4, 5, 6, 7, 8, 9, 10, 11, 12, 13, 14, 15, 16, 17, 18, 19, 20, 21, 22, 23, 24, 25, 26, 28, 29]",278.7867966,17053,1124,5,144,11,1.0
undo,18,35,0,0,0,24,"[0, 27, 24]",3,25,"[1, 2, 4, 5, 6, 7, 8, 9, 10, 11, 12, 13, 15, 16, 17, 18, 19, 20, 21, 22, 23, 25, 26, 28, 29]",234.6053525,17851,798,3,80,11,2.1084080567904624
undo,18,35,0,0,0,17,"[0, 27, 24, 17]",4,20,"[1, 2, 4, 5, 6, 7, 8, 9, 10, 15, 16, 18, 19, 20, 21, 23, 25, 26, 28, 29]",222.9006526,18485,634,3,50,11,1.9439555968916868
undo,18,35,0,0,0,1,"[0, 27, 24, 17, 1]",5,18,"[2, 4, 5, 6, 8, 9, 10, 15, 16, 18, 19, 20, 21, 23, 25, 26, 28, 29]",207.0892643,18966,481,3,39,11,1.9436711872547336
undo,18,35,0,0,0,15,"[0, 27, 24, 17, 1, 15]",6,16,"[2, 4, 5, 6, 8, 9, 10, 16, 18, 19, 20, 23, 25, 26, 28, 29]",184.241945,19758,792,3,24,11,2.082774572108194
undo,18,35,0,0,0,23,"[0, 27, 24, 17, 1, 15, 23]",7,7,"[5, 6, 9, 18, 19, 25, 26]",123.801892,20716,958,3,14,11,1.657239080954205
undo,18,35,0,0,0,6,"[0, 27, 24, 17, 1, 15, 23, 6]",8,3,"[9, 18, 25]",78.15104318,21516,800,1,4,11,1.4670445391994238
undo,18,35,0,0,0,25,"[0, 27, 24, 17, 1, 15, 23, 6, 25]",9,2,"[9, 18]",54.13021888,22158,642,1,1,11,1.5182643905144335
undo,18,35,0,0,0,18,"[0, 27, 24, 17, 1, 15, 23, 6, 25, 18]",10,1,[9],20.29237025,22794,636,1,0,11,2.1744919440125114
undo,18,35,0,0,1,9,"[0, 27, 24, 17, 1, 15, 23, 6, 25, 18, 9]",11,0,[],0.267385855,23747,953,1,0,11,2.6663183938115433
undo,18,35,0,1,1,9,"[0, 27, 24, 17, 1, 15, 23, 6, 25, 18, 9]",11,0,[],0.267385855,25317,1570,1,0,11,2.6663183938115433
undo,19,26,0,0,0,0,[0],1,29,"[1, 2, 3, 4, 5, 6, 7, 8, 9, 10, 11, 12, 13, 14, 15, 16, 17, 18, 19, 20, 21, 22, 23, 24, 25, 26, 27, 28, 29]",300,10,-1,9,226,9,0.0
undo,19,26,0,0,0,21,"[0, 21]",2,25,"[2, 3, 4, 5, 6, 7, 8, 10, 11, 12, 13, 14, 15, 16, 17, 18, 19, 22, 23, 24, 25, 26, 27, 28, 29]",211.1349337,2582,2572,7,90,9,1.0
undo,19,26,0,0,0,13,"[0, 21, 13]",3,21,"[3, 4, 5, 6, 7, 8, 10, 11, 12, 14, 15, 16, 17, 18, 19, 22, 23, 24, 25, 26, 29]",188.9989901,3540,958,6,45,9,1.0103952279992225
undo,19,26,0,0,0,5,"[0, 21, 13, 5]",4,12,"[3, 4, 11, 14, 16, 17, 18, 22, 23, 25, 26, 29]",150.7106107,4017,477,2,10,8,1.0086890649024711
undo,19,26,0,0,0,23,"[0, 21, 13, 5, 23]",5,8,"[3, 4, 11, 14, 16, 17, 22, 29]",118.0150452,4817,800,2,7,8,1.3518621918690494
undo,19,26,0,0,0,16,"[0, 21, 13, 5, 23, 16]",6,4,"[4, 14, 17, 29]",64.77971862,5615,798,2,3,8,2.1011863559657242
undo,19,26,0,0,0,29,"[0, 21, 13, 5, 23, 16, 29]",7,2,"[4, 17]",40.57228175,6413,798,2,0,8,2.123178325538451
undo,19,26,0,0,1,4,"[0, 21, 13, 5, 23, 16, 29, 4]",8,0,[],16.57228175,7054,641,1,0,8,2.338467952972574
undo,19,26,1,0,0,29,"[0, 21, 13, 5, 23, 16, 29]",7,2,"[4, 17]",40.57228175,9434,2380,2,0,8,2.123178325538451
undo,19,26,1,0,0,16,"[0, 21, 13, 5, 23, 16]",6,4,"[4, 14, 17, 29]",64.77971862,9591,157,2,3,8,2.1011863559657242
undo,19,26,1,0,0,23,"[0, 21, 13, 5, 23]",5,8,"[3, 4, 11, 14, 16, 17, 22, 29]",118.0150452,10555,964,2,7,8,1.3518621918690494
undo,19,26,1,0,0,5,"[0, 21, 13, 5]",4,12,"[3, 4, 11, 14, 16, 17, 18, 22, 23, 25, 26, 29]",150.7106107,10876,321,2,10,8,1.0086890649024711
undo,19,26,1,0,0,13,"[0, 21, 13]",3,21,"[3, 4, 5, 6, 7, 8, 10, 11, 12, 14, 15, 16, 17, 18, 19, 22, 23, 24, 25, 26, 29]",188.9989901,11190,314,6,45,9,1.0103952279992225
undo,19,26,1,0,0,21,"[0, 21]",2,25,"[2, 3, 4, 5, 6, 7, 8, 10, 11, 12, 13, 14, 15, 16, 17, 18, 19, 22, 23, 24, 25, 26, 27, 28, 29]",211.1349337,11508,318,7,90,9,1.0
undo,19,26,0,0,0,23,"[0, 21, 23]",3,16,"[3, 4, 5, 6, 10, 11, 12, 13, 14, 16, 17, 18, 22, 25, 26, 29]",161.8906447,12454,946,10,34,8,1.0259354460299557
undo,19,26,0,0,0,16,"[0, 21, 23, 16]",4,8,"[4, 5, 6, 10, 13, 14, 17, 29]",108.6553181,13095,641,9,21,8,1.709252418780019
undo,19,26,0,0,0,29,"[0, 21, 23, 16, 29]",5,5,"[4, 6, 10, 14, 17]",84.44788125,13732,637,8,8,8,1.7640967188897918
undo,19,26,0,0,0,4,"[0, 21, 23, 16, 29, 4]",6,4,"[6, 10, 14, 17]",60.44788125,14530,798,3,2,8,1.9764649562942154
undo,19,26,0,0,0,17,"[0, 21, 23, 16, 29, 4, 17]",7,2,"[6, 14]",39.35285814,15011,481,2,0,8,1.8344064256480113
undo,19,26,0,0,1,6,"[0, 21, 23, 16, 29, 4, 17, 6]",8,0,[],19.22824634,16447,1436,1,0,8,1.7481441065403642
undo,19,26,1,0,0,17,"[0, 21, 23, 16, 29, 4, 17]",7,2,"[6, 14]",39.35285814,19137,2690,2,0,8,1.8344064256480113
undo,19,26,1,0,0,4,"[0, 21, 23, 16, 29, 4]",6,4,"[6, 10, 14, 17]",60.44788125,19293,156,3,2,8,1.9764649562942154
undo,19,26,1,0,0,29,"[0, 21, 23, 16, 29]",5,5,"[4, 6, 10, 14, 17]",84.44788125,19452,159,8,8,8,1.7640967188897918
undo,19,26,1,0,0,16,"[0, 21, 23, 16]",4,8,"[4, 5, 6, 10, 13, 14, 17, 29]",108.6553181,19613,161,9,21,8,1.709252418780019
undo,19,26,1,0,0,23,"[0, 21, 23]",3,16,"[3, 4, 5, 6, 10, 11, 12, 13, 14, 16, 17, 18, 22, 25, 26, 29]",161.8906447,19768,155,10,34,8,1.0259354460299557
undo,19,26,1,0,0,21,"[0, 21]",2,25,"[2, 3, 4, 5, 6, 7, 8, 10, 11, 12, 13, 14, 15, 16, 17, 18, 19, 22, 23, 24, 25, 26, 27, 28, 29]",211.1349337,20404,636,7,90,9,1.0
undo,19,26,1,0,0,0,[0],1,29,"[1, 2, 3, 4, 5, 6, 7, 8, 9, 10, 11, 12, 13, 14, 15, 16, 17, 18, 19, 20, 21, 22, 23, 24, 25, 26, 27, 28, 29]",300,21198,794,9,226,9,0.0
undo,19,26,0,0,0,5,"[0, 5]",2,15,"[3, 4, 6, 11, 13, 14, 16, 17, 18, 21, 22, 23, 25, 26, 29]",151.9966217,27389,6191,4,29,6,1.0
undo,19,26,1,0,0,0,[0],1,29,"[1, 2, 3, 4, 5, 6, 7, 8, 9, 10, 11, 12, 13, 14, 15, 16, 17, 18, 19, 20, 21, 22, 23, 24, 25, 26, 27, 28, 29]",300,29285,1896,9,226,9,0.0
undo,19,26,0,0,0,21,"[0, 21]",2,25,"[2, 3, 4, 5, 6, 7, 8, 10, 11, 12, 13, 14, 15, 16, 17, 18, 19, 22, 23, 24, 25, 26, 27, 28, 29]",211.1349337,30717,1432,7,90,9,1.0
undo,19,26,0,0,0,13,"[0, 21, 13]",3,21,"[3, 4, 5, 6, 7, 8, 10, 11, 12, 14, 15, 16, 17, 18, 19, 22, 23, 24, 25, 26, 29]",188.9989901,31518,801,6,45,9,1.0103952279992225
undo,19,26,0,0,0,5,"[0, 21, 13, 5]",4,12,"[3, 4, 11, 14, 16, 17, 18, 22, 23, 25, 26, 29]",150.7106107,32319,801,2,10,8,1.0086890649024711
undo,19,26,0,0,0,23,"[0, 21, 13, 5, 23]",5,8,"[3, 4, 11, 14, 16, 17, 22, 29]",118.0150452,33115,796,2,7,8,1.3518621918690494
undo,19,26,0,0,0,16,"[0, 21, 13, 5, 23, 16]",6,4,"[4, 14, 17, 29]",64.77971862,33920,805,2,3,8,2.1011863559657242
undo,19,26,0,0,0,29,"[0, 21, 13, 5, 23, 16, 29]",7,2,"[4, 17]",40.57228175,34873,953,2,0,8,2.123178325538451
undo,19,26,0,0,1,4,"[0, 21, 13, 5, 23, 16, 29, 4]",8,0,[],16.57228175,35828,955,1,0,8,2.338467952972574
undo,19,26,0,1,1,4,"[0, 21, 13, 5, 23, 16, 29, 4]",8,0,[],16.57228175,39514,3686,1,0,8,2.338467952972574
undo,20,15,0,0,0,0,[0],1,25,"[1, 2, 3, 4, 7, 8, 9, 10, 11, 12, 13, 14, 15, 16, 18, 20, 21, 22, 23, 24, 25, 26, 27, 28, 29]",300,11,-1,4,65,9,0.0
undo,20,15,0,0,0,7,"[0, 7]",2,23,"[1, 3, 4, 8, 9, 10, 11, 12, 13, 14, 15, 16, 18, 20, 21, 22, 23, 24, 25, 26, 27, 28, 29]",215.1884442,2903,2892,30,107,8,1.0
undo,20,15,0,0,0,11,"[0, 7, 11]",3,18,"[3, 4, 8, 9, 10, 12, 13, 14, 15, 16, 18, 20, 21, 22, 23, 25, 27, 29]",173.7035072,3857,954,12,34,8,1.0171318876095128
undo,20,15,0,0,0,3,"[0, 7, 11, 3]",4,13,"[4, 10, 12, 13, 14, 15, 16, 18, 20, 21, 22, 25, 27]",162.3017529,4332,475,7,21,8,1.0401878806820521
undo,20,15,0,0,0,16,"[0, 7, 11, 3, 16]",5,9,"[4, 10, 12, 13, 14, 15, 18, 21, 22]",137.2218805,4974,642,5,6,8,1.4258499651326737
undo,20,15,0,0,0,22,"[0, 7, 11, 3, 16, 22]",6,4,"[4, 13, 14, 15]",78.36612462,6254,1280,2,2,8,1.284645195326425
undo,20,15,0,0,0,15,"[0, 7, 11, 3, 16, 22, 15]",7,1,[13],52.75362767,6730,476,1,0,8,1.2590218300860974
undo,20,15,0,0,1,13,"[0, 7, 11, 3, 16, 22, 15, 13]",8,0,[],37.48929015,7053,323,1,0,8,1.3103278820622872
undo,20,15,0,1,1,13,"[0, 7, 11, 3, 16, 22, 15, 13]",8,0,[],37.48929015,16750,9697,1,0,8,1.3103278820622872
undo,21,40,0,0,0,0,[0],1,29,"[1, 2, 3, 4, 5, 6, 7, 8, 9, 10, 11, 12, 13, 14, 15, 16, 17, 18, 19, 20, 21, 22, 23, 24, 25, 26, 27, 28, 29]",300,520,-1,8,191,9,0.0
undo,21,40,0,0,0,1,"[0, 1]",2,18,"[2, 5, 6, 7, 8, 9, 10, 11, 13, 15, 17, 18, 19, 21, 22, 23, 27, 29]",247.8463808,3464,2944,4,80,9,1.0
undo,21,40,0,0,0,6,"[0, 1, 6]",3,17,"[2, 5, 7, 8, 9, 10, 11, 13, 15, 17, 18, 19, 21, 22, 23, 27, 29]",227.7466295,4257,793,4,74,9,1.0459427008232034
undo,21,40,0,0,0,21,"[0, 1, 6, 21]",4,8,"[2, 5, 9, 17, 18, 19, 22, 23]",175.7754837,5372,1115,4,25,9,1.0308822257404064
undo,21,40,0,0,0,9,"[0, 1, 6, 21, 9]",5,6,"[2, 5, 18, 19, 22, 23]",130.0699041,6332,960,4,12,9,1.377861912961129
undo,21,40,0,0,0,18,"[0, 1, 6, 21, 9, 18]",6,5,"[2, 5, 19, 22, 23]",113.5169588,6974,642,4,4,9,1.5742712168661408
undo,21,40,0,0,0,23,"[0, 1, 6, 21, 9, 18, 23]",7,3,"[2, 5, 19]",79.51695879,7613,639,2,1,9,2.324611956726637
undo,21,40,0,0,0,5,"[0, 1, 6, 21, 9, 18, 23, 5]",8,1,[19],51.21501539,8256,643,1,0,9,2.022909590433451
undo,21,40,0,0,1,19,"[0, 1, 6, 21, 9, 18, 23, 5, 19]",9,0,[],13.13614986,9520,1264,1,0,9,2.796177718843732
undo,21,40,0,1,1,19,"[0, 1, 6, 21, 9, 18, 23, 5, 19]",9,0,[],13.13614986,12209,2689,1,0,9,2.796177718843732
undo,22,3,0,0,0,0,[0],1,29,"[1, 2, 3, 4, 5, 6, 7, 8, 9, 10, 11, 12, 13, 14, 15, 16, 17, 18, 19, 20, 21, 22, 23, 24, 25, 26, 27, 28, 29]",300,13,-1,34,427,10,0.0
undo,22,3,0,0,0,8,"[0, 8]",2,28,"[1, 2, 3, 4, 5, 6, 7, 9, 10, 11, 12, 13, 14, 15, 16, 17, 18, 19, 20, 21, 22, 23, 24, 25, 26, 27, 28, 29]",239.9666759,3251,3238,1,54,10,1.0
undo,22,3,0,0,0,24,"[0, 8, 24]",3,23,"[1, 2, 3, 4, 5, 6, 7, 10, 11, 12, 14, 15, 16, 17, 18, 19, 20, 21, 22, 25, 26, 27, 28]",227.8011509,3891,640,1,50,10,1.2267083825981846
undo,22,3,0,0,0,17,"[0, 8, 24, 17]",4,11,"[3, 4, 7, 10, 14, 15, 16, 19, 20, 21, 27]",158.4469873,5010,1119,1,18,10,1.3836579788002414
undo,22,3,0,0,0,20,"[0, 8, 24, 17, 20]",5,9,"[3, 4, 7, 10, 14, 15, 16, 19, 21]",145.7978767,5804,794,1,14,10,1.3620097615632467
undo,22,3,0,0,0,3,"[0, 8, 24, 17, 20, 3]",6,5,"[4, 10, 14, 19, 21]",125.4017986,6754,950,1,11,10,1.3956695218398405
undo,22,3,0,0,0,19,"[0, 8, 24, 17, 20, 3, 19]",7,4,"[4, 10, 14, 21]",88.06548922,7392,638,1,4,10,1.4360605238855817
undo,22,3,0,0,0,21,"[0, 8, 24, 17, 20, 3, 19, 21]",8,2,"[10, 14]",75.85893361,7870,478,1,1,10,1.4576450248605066
undo,22,3,0,0,0,14,"[0, 8, 24, 17, 20, 3, 19, 21, 14]",9,1,[10],48.95168551,8667,797,1,0,10,1.9505702217699148
undo,22,3,0,0,1,10,"[0, 8, 24, 17, 20, 3, 19, 21, 14, 10]",10,0,[],3.498412803,9781,1114,1,0,10,1.8830527336542522
undo,22,3,0,1,1,10,"[0, 8, 24, 17, 20, 3, 19, 21, 14, 10]",10,0,[],3.498412803,13728,3947,1,0,10,1.8830527336542522
basic,23,12,0,0,0,0,[0],1,29,"[1, 2, 3, 4, 5, 6, 7, 8, 9, 10, 11, 12, 13, 14, 15, 16, 17, 18, 19, 20, 21, 22, 23, 24, 25, 26, 27, 28, 29]",300,530,-1,2,32,9,0.0
basic,23,12,0,0,0,16,"[0, 16]",2,16,"[2, 4, 5, 6, 7, 12, 13, 14, 18, 19, 22, 23, 24, 25, 27, 29]",209.2916762,6289,5759,3,38,8,1.0
basic,23,12,0,0,0,22,"[0, 16, 22]",3,14,"[2, 4, 5, 6, 7, 12, 13, 14, 18, 19, 23, 24, 25, 27]",188.2916762,7083,794,2,21,8,1.26933081733974
basic,23,12,0,0,0,4,"[0, 16, 22, 4]",4,7,"[6, 12, 14, 19, 24, 25, 27]",143.69347,7716,633,2,10,8,1.251373590144064
basic,23,12,0,0,0,12,"[0, 16, 22, 4, 12]",5,4,"[14, 19, 24, 27]",101.5034238,8986,1270,2,3,8,1.2013999386970955
basic,23,12,0,0,0,27,"[0, 16, 22, 4, 12, 27]",6,2,"[14, 24]",77.15183245,9460,474,2,0,8,1.3028492624171124
basic,23,12,0,0,0,14,"[0, 16, 22, 4, 12, 27, 14]",7,1,[24],48.49873489,10255,795,1,0,8,1.3507914643294519
basic,23,12,0,0,1,24,"[0, 16, 22, 4, 12, 27, 14, 24]",8,0,[],31.29408435,11359,1104,1,0,8,1.5056447333155683
basic,23,12,0,1,1,24,"[0, 16, 22, 4, 12, 27, 14, 24]",8,0,[],31.29408435,12140,781,1,0,8,1.5056447333155683
basic,24,21,0,0,0,0,[0],1,29,"[1, 2, 3, 4, 5, 6, 7, 8, 9, 10, 11, 12, 13, 14, 15, 16, 17, 18, 19, 20, 21, 22, 23, 24, 25, 26, 27, 28, 29]",300,14,-1,84,830,9,0.0
basic,24,21,0,0,0,20,"[0, 20]",2,28,"[1, 2, 3, 4, 5, 6, 7, 8, 9, 10, 11, 12, 13, 14, 15, 16, 17, 18, 19, 21, 22, 23, 24, 25, 26, 27, 28, 29]",217.6228187,2425,2411,6,67,9,1.0
basic,24,21,0,0,0,22,"[0, 20, 22]",3,23,"[2, 4, 6, 7, 8, 9, 10, 11, 12, 13, 14, 15, 16, 17, 18, 19, 21, 23, 24, 25, 26, 27, 29]",189.3916303,3218,793,6,47,9,1.3451865712078994
basic,24,21,0,0,0,18,"[0, 20, 22, 18]",4,20,"[2, 4, 6, 7, 8, 9, 10, 11, 12, 14, 15, 16, 17, 21, 23, 24, 25, 26, 27, 29]",162.9908727,4172,954,4,25,9,2.3191924394507706
basic,24,21,0,0,0,29,"[0, 20, 22, 18, 29]",5,16,"[2, 4, 6, 7, 8, 10, 12, 14, 15, 16, 17, 21, 23, 24, 25, 27]",134.3377751,4967,795,2,10,9,1.9554738681863184
basic,24,21,0,0,0,25,"[0, 20, 22, 18, 29, 25]",6,5,"[4, 14, 17, 21, 23]",89.11609892,6082,1115,2,5,9,3.5255206171255487
basic,24,21,0,0,0,23,"[0, 20, 22, 18, 29, 25, 23]",7,3,"[4, 14, 21]",45.79174087,6880,798,1,2,9,2.5672363743380044
basic,24,21,0,0,0,14,"[0, 20, 22, 18, 29, 25, 23, 14]",8,1,[4],16.72285717,8622,1742,1,0,9,2.4731167331439745
basic,24,21,0,0,1,4,"[0, 20, 22, 18, 29, 25, 23, 14, 4]",9,0,[],2.580721543,9254,632,1,0,9,2.3252918316977027
basic,24,21,0,1,1,4,"[0, 20, 22, 18, 29, 25, 23, 14, 4]",9,0,[],2.580721543,10363,1109,1,0,9,2.3252918316977027
basic,25,3,0,0,0,0,[0],1,29,"[1, 2, 3, 4, 5, 6, 7, 8, 9, 10, 11, 12, 13, 14, 15, 16, 17, 18, 19, 20, 21, 22, 23, 24, 25, 26, 27, 28, 29]",300,11,-1,34,427,10,0.0
basic,25,3,0,0,0,17,"[0, 17]",2,16,"[3, 4, 7, 8, 10, 12, 14, 15, 16, 19, 20, 21, 22, 24, 26, 27]",197.6965299,1550,1539,2,27,9,1.0
basic,25,3,0,0,0,20,"[0, 17, 20]",3,13,"[3, 4, 7, 8, 10, 14, 15, 16, 19, 21, 22, 24, 27]",185.0474192,2508,958,2,24,9,1.0153332121237257
basic,25,3,0,0,0,3,"[0, 17, 20, 3]",4,10,"[4, 7, 8, 10, 14, 15, 16, 19, 21, 24]",164.6513412,3456,948,2,22,9,1.0819240770773468
basic,25,3,0,0,0,19,"[0, 17, 20, 3, 19]",5,6,"[4, 8, 10, 14, 21, 24]",127.3150318,4094,638,2,11,9,1.1701070532957258
basic,25,3,0,0,0,21,"[0, 17, 20, 3, 19, 21]",6,5,"[4, 8, 10, 14, 24]",115.1084762,5044,950,2,6,9,1.202395500952127
basic,25,3,0,0,0,14,"[0, 17, 20, 3, 19, 21, 14]",7,4,"[4, 8, 10, 24]",88.20122806,5681,637,2,2,9,1.6456130302761207
basic,25,3,0,0,0,24,"[0, 17, 20, 3, 19, 21, 14, 24]",8,1,[8],17.08864127,6793,1112,1,0,9,4.806859660680286
basic,25,3,0,0,1,8,"[0, 17, 20, 3, 19, 21, 14, 24, 8]",9,0,[],4.923116212,7585,792,1,0,9,4.915218144486606
basic,25,3,0,1,1,8,"[0, 17, 20, 3, 19, 21, 14, 24, 8]",9,0,[],4.923116212,14428,6843,1,0,9,4.915218144486606
basic,26,5,0,0,0,0,[0],1,29,"[1, 2, 3, 4, 5, 6, 7, 8, 9, 10, 11, 12, 13, 14, 15, 16, 17, 18, 19, 20, 21, 22, 23, 24, 25, 26, 27, 28, 29]",300,10,-1,5,139,9,0.0
basic,26,5,0,0,0,23,"[0, 23]",2,27,"[1, 2, 3, 4, 5, 6, 7, 8, 9, 10, 11, 12, 13, 14, 15, 16, 17, 18, 19, 20, 21, 22, 24, 25, 26, 27, 28]",249.8402552,6703,6693,3,75,9,1.0
basic,26,5,0,0,0,12,"[0, 23, 12]",3,20,"[2, 4, 5, 6, 8, 9, 10, 13, 14, 15, 16, 17, 18, 19, 21, 22, 24, 25, 26, 27]",206.6661889,8286,1583,12,56,8,1.3018394868431302
basic,26,5,0,0,0,25,"[0, 23, 12, 25]",4,18,"[2, 4, 5, 6, 8, 9, 10, 13, 14, 15, 17, 18, 19, 21, 22, 24, 26, 27]",178.8813009,9084,798,12,34,8,1.9286025844958365
basic,26,5,0,0,0,24,"[0, 23, 12, 25, 24]",5,14,"[4, 5, 6, 8, 9, 13, 14, 15, 17, 18, 19, 22, 26, 27]",154.0418162,10037,953,9,16,8,2.0153742455218557
basic,26,5,0,0,0,17,"[0, 23, 12, 25, 24, 17]",6,7,"[4, 5, 6, 8, 15, 18, 19]",119.0561048,11148,1111,8,2,8,1.6946205255346762
basic,26,5,0,0,0,5,"[0, 23, 12, 25, 24, 17, 5]",7,4,"[4, 6, 15, 18]",76.00961835,11945,797,4,0,8,1.498607098302
basic,26,5,0,0,1,15,"[0, 23, 12, 25, 24, 17, 5, 15]",8,0,[],35.98462616,13061,1116,1,0,8,1.4940703226391534
basic,26,5,0,1,1,15,"[0, 23, 12, 25, 24, 17, 5, 15]",8,0,[],35.98462616,22258,9197,1,0,8,1.4940703226391534
basic,27,7,0,0,0,0,[0],1,29,"[1, 2, 3, 4, 5, 6, 7, 8, 9, 10, 11, 12, 13, 14, 15, 16, 17, 18, 19, 20, 21, 22, 23, 24, 25, 26, 27, 28, 29]",300,10,-1,3,79,9,0.0
basic,27,7,0,0,0,25,"[0, 25]",2,20,"[2, 3, 4, 5, 6, 7, 10, 13, 14, 15, 16, 18, 19, 20, 21, 22, 23, 24, 27, 28]",181.5939191,6284,6274,5,33,8,1.0
basic,27,7,0,0,0,4,"[0, 25, 4]",3,11,"[2, 6, 7, 13, 15, 16, 18, 19, 20, 21, 23]",156.8552853,7070,786,2,14,8,1.0193465608331511
basic,27,7,0,0,0,20,"[0, 25, 4, 20]",4,8,"[2, 6, 7, 13, 15, 16, 18, 19]",137.2084026,7861,791,1,9,8,1.085904909082323
basic,27,7,0,0,0,18,"[0, 25, 4, 20, 18]",5,7,"[2, 6, 7, 13, 15, 16, 19]",124.4021541,8654,793,1,5,8,1.2264883846453758
basic,27,7,0,0,0,7,"[0, 25, 4, 20, 18, 7]",6,2,"[2, 19]",83.17109789,9453,799,1,1,8,1.185264473968278
basic,27,7,0,0,0,19,"[0, 25, 4, 20, 18, 7, 19]",7,1,[2],53.76021555,10408,955,1,0,8,1.3016904288278204
basic,27,7,0,0,1,2,"[0, 25, 4, 20, 18, 7, 19, 2]",8,0,[],23.61058868,11364,956,1,0,8,1.3168868000947171
basic,27,7,0,1,1,2,"[0, 25, 4, 20, 18, 7, 19, 2]",8,0,[],23.61058868,14038,2674,1,0,8,1.3168868000947171
basic,28,8,0,0,0,0,[0],1,29,"[1, 2, 3, 4, 5, 6, 7, 8, 9, 10, 11, 12, 13, 14, 15, 16, 17, 18, 19, 20, 21, 22, 23, 24, 25, 26, 27, 28, 29]",300,13,-1,10,149,9,0.0
basic,28,8,0,0,0,5,"[0, 5]",2,28,"[1, 2, 3, 4, 6, 7, 8, 9, 10, 11, 12, 13, 14, 15, 16, 17, 18, 19, 20, 21, 22, 23, 24, 25, 26, 27, 28, 29]",254.5137383,9649,9636,10,100,9,1.0
basic,28,8,0,0,0,14,"[0, 5, 14]",3,20,"[1, 2, 3, 4, 6, 7, 11, 15, 16, 17, 18, 19, 20, 21, 22, 23, 24, 25, 28, 29]",214.5512559,12796,3147,4,36,9,1.0001019035932595
basic,28,8,0,0,0,17,"[0, 5, 14, 17]",4,15,"[1, 4, 6, 7, 11, 15, 16, 18, 19, 20, 22, 23, 24, 25, 28]",177.5377449,14066,1270,4,16,9,1.121197267659591
basic,28,8,0,0,0,11,"[0, 5, 14, 17, 11]",5,11,"[1, 4, 15, 16, 18, 19, 22, 23, 24, 25, 28]",152.3583883,15013,947,4,8,9,1.1277254166016362
basic,28,8,0,0,0,24,"[0, 5, 14, 17, 11, 24]",6,3,"[15, 16, 28]",115.1428001,15655,642,2,2,9,1.1227411011978805
basic,28,8,0,0,0,15,"[0, 5, 14, 17, 11, 24, 15]",7,2,"[16, 28]",98.37974552,16291,636,2,0,9,1.1956385406066814
basic,28,8,0,0,0,16,"[0, 5, 14, 17, 11, 24, 15, 16]",8,1,[28],47.30137436,17097,806,1,0,9,1.36482239111247
basic,28,8,0,0,1,28,"[0, 5, 14, 17, 11, 24, 15, 16, 28]",9,0,[],24.94069458,18519,1422,1,0,9,1.632953105226947
basic,28,8,0,1,1,28,"[0, 5, 14, 17, 11, 24, 15, 16, 28]",9,0,[],24.94069458,19467,948,1,0,9,1.632953105226947
basic,29,9,0,0,0,0,[0],1,27,"[1, 3, 4, 5, 6, 7, 8, 9, 10, 11, 13, 14, 15, 16, 17, 18, 19, 20, 21, 22, 23, 24, 25, 26, 27, 28, 29]",300,11,-1,2,182,10,0.0
basic,29,9,0,0,0,10,"[0, 10]",2,22,"[3, 4, 5, 6, 7, 8, 9, 11, 13, 15, 16, 17, 18, 19, 20, 21, 22, 23, 25, 26, 27, 28]",245.6676892,12486,12475,5,195,9,1.0
basic,29,9,0,0,0,9,"[0, 10, 9]",3,17,"[3, 4, 5, 7, 8, 11, 13, 18, 19, 20, 21, 22, 23, 25, 26, 27, 28]",160.1749994,13917,1431,8,54,8,1.877733933143135
basic,29,9,0,0,0,23,"[0, 10, 9, 23]",4,14,"[3, 4, 7, 8, 11, 18, 19, 20, 21, 22, 25, 26, 27, 28]",137.8143197,14871,954,6,25,8,2.7239829636033104
basic,29,9,0,0,0,8,"[0, 10, 9, 23, 8]",5,9,"[7, 18, 20, 21, 22, 25, 26, 27, 28]",116.3434091,15664,793,3,11,8,2.8794931279303175
basic,29,9,0,0,0,28,"[0, 10, 9, 23, 8, 28]",6,6,"[18, 20, 21, 22, 25, 26]",105.5267553,16301,637,3,3,8,2.618233457702576
basic,29,9,0,0,0,21,"[0, 10, 9, 23, 8, 28, 21]",7,1,[20],52.52675527,17256,955,1,0,8,2.0878057554279765
basic,29,9,0,0,1,20,"[0, 10, 9, 23, 8, 28, 21, 20]",8,0,[],40.4437093,18207,951,1,0,8,2.049412482593951
basic,29,9,0,1,1,20,"[0, 10, 9, 23, 8, 28, 21, 20]",8,0,[],40.4437093,20576,2369,1,0,8,2.049412482593951
basic,30,43,0,0,0,0,[0],1,23,"[1, 2, 3, 4, 5, 6, 7, 9, 10, 11, 12, 14, 15, 16, 17, 19, 20, 21, 22, 23, 25, 27, 29]",300,10,-1,16,556,12,0.0
basic,30,43,0,0,0,29,"[0, 29]",2,22,"[1, 2, 3, 4, 5, 6, 7, 9, 10, 11, 12, 14, 15, 16, 17, 19, 20, 21, 22, 23, 25, 27]",277.909278,3279,3269,16,520,12,1.0
basic,30,43,0,0,0,20,"[0, 29, 20]",3,20,"[1, 2, 3, 4, 6, 7, 9, 10, 11, 12, 14, 15, 16, 17, 19, 21, 22, 23, 25, 27]",254.4785289,4230,951,15,422,12,1.082311746871282
basic,30,43,0,0,0,16,"[0, 29, 20, 16]",4,19,"[1, 2, 3, 4, 6, 7, 9, 10, 11, 12, 14, 15, 17, 19, 21, 22, 23, 25, 27]",231.8511119,5187,957,15,389,12,1.215201926898219
basic,30,43,0,0,0,25,"[0, 29, 20, 16, 25]",5,14,"[1, 2, 3, 4, 6, 7, 9, 11, 12, 14, 15, 19, 22, 23]",175.7708124,6151,964,53,282,11,1.566384303308987
basic,30,43,0,0,0,15,"[0, 29, 20, 16, 25, 15]",6,13,"[1, 2, 3, 4, 6, 7, 9, 11, 12, 14, 19, 22, 23]",153.0992443,7263,1112,27,108,11,1.776736412604812
basic,30,43,0,0,0,12,"[0, 29, 20, 16, 25, 15, 12]",7,10,"[1, 3, 6, 7, 9, 11, 14, 19, 22, 23]",133.7860364,8059,796,21,41,11,1.6813323012225032
basic,30,43,0,0,0,3,"[0, 29, 20, 16, 25, 15, 12, 3]",8,9,"[1, 6, 7, 9, 11, 14, 19, 22, 23]",120.7860364,9010,951,20,12,11,1.608740348096123
basic,30,43,0,0,0,22,"[0, 29, 20, 16, 25, 15, 12, 3, 22]",9,6,"[1, 6, 7, 11, 14, 19]",86.07292644,9959,949,9,2,11,1.793657891802588
basic,30,43,0,0,0,19,"[0, 29, 20, 16, 25, 15, 12, 3, 22, 19]",10,3,"[1, 6, 7]",65.45739831,10752,793,3,0,11,1.6882745891803936
basic,30,43,0,0,1,1,"[0, 29, 20, 16, 25, 15, 12, 3, 22, 19, 1]",11,0,[],37.2793927,11864,1112,1,0,11,1.825064866046553
basic,30,43,0,1,1,1,"[0, 29, 20, 16, 25, 15, 12, 3, 22, 19, 1]",11,0,[],37.2793927,13443,1579,1,0,11,1.825064866046553
basic,31,42,0,0,0,0,[0],1,29,"[1, 2, 3, 4, 5, 6, 7, 8, 9, 10, 11, 12, 13, 14, 15, 16, 17, 18, 19, 20, 21, 22, 23, 24, 25, 26, 27, 28, 29]",300,10,-1,16,302,9,0.0
basic,31,42,0,0,0,5,"[0, 5]",2,28,"[1, 2, 3, 4, 6, 7, 8, 9, 10, 11, 12, 13, 14, 15, 16, 17, 18, 19, 20, 21, 22, 23, 24, 25, 26, 27, 28, 29]",191.2939744,6482,6472,1,22,9,1.0
basic,31,42,0,0,0,4,"[0, 5, 4]",3,23,"[1, 2, 3, 6, 7, 8, 9, 10, 11, 13, 15, 17, 18, 19, 20, 21, 22, 23, 24, 25, 26, 27, 29]",171.4445412,7433,951,1,14,9,1.420957801478707
basic,31,42,0,0,0,22,"[0, 5, 4, 22]",4,20,"[1, 2, 3, 6, 7, 8, 9, 11, 15, 17, 18, 19, 20, 21, 23, 24, 25, 26, 27, 29]",160.2642013,8218,785,1,11,9,1.5771494659680896
basic,31,42,0,0,0,8,"[0, 5, 4, 22, 8]",5,14,"[1, 2, 3, 6, 7, 11, 15, 18, 19, 24, 25, 26, 27, 29]",138.1282577,9478,1260,1,10,9,1.5055393955524201
basic,31,42,0,0,0,1,"[0, 5, 4, 22, 8, 1]",6,5,"[2, 7, 19, 26, 27]",89.03650682,10440,962,1,7,9,1.3547259083637835
basic,31,42,0,0,0,7,"[0, 5, 4, 22, 8, 1, 7]",7,4,"[2, 19, 26, 27]",59.03650682,11232,792,1,3,9,1.3909715672447451
basic,31,42,0,0,0,26,"[0, 5, 4, 22, 8, 1, 7, 26]",8,1,[27],32.46584631,12183,951,1,0,9,1.3511825943939393
basic,31,42,0,0,1,27,"[0, 5, 4, 22, 8, 1, 7, 26, 27]",9,0,[],14.43808994,12974,791,1,0,9,1.3391911688802078
basic,31,42,0,1,1,27,"[0, 5, 4, 22, 8, 1, 7, 26, 27]",9,0,[],14.43808994,14703,1729,1,0,9,1.3391911688802078
basic,32,28,0,0,0,0,[0],1,27,"[1, 2, 3, 4, 5, 6, 7, 8, 9, 10, 11, 12, 13, 14, 15, 16, 17, 18, 19, 20, 22, 23, 25, 26, 27, 28, 29]",300,10,-1,2,96,9,0.0
basic,32,28,0,0,0,14,"[0, 14]",2,14,"[1, 2, 3, 5, 7, 10, 11, 12, 13, 17, 18, 19, 20, 26]",147.8914861,4426,4416,1,26,8,1.0
basic,32,28,0,0,0,18,"[0, 14, 18]",3,11,"[1, 2, 3, 5, 7, 11, 12, 13, 17, 19, 26]",122.3963885,5531,1105,1,23,8,1.0675599824559303
basic,32,28,0,0,0,13,"[0, 14, 18, 13]",4,7,"[2, 7, 11, 12, 17, 19, 26]",97.9832773,6484,953,1,9,8,1.0602397944415018
basic,32,28,0,0,0,12,"[0, 14, 18, 13, 12]",5,4,"[2, 7, 17, 19]",80.77862677,7275,791,1,3,8,1.0640685934245377
basic,32,28,0,0,0,7,"[0, 14, 18, 13, 12, 7]",6,2,"[2, 19]",67.62568033,8222,947,1,1,8,1.186262804928269
basic,32,28,0,0,0,19,"[0, 14, 18, 13, 12, 7, 19]",7,1,[2],39.89483108,8858,636,1,0,8,1.424576333867947
basic,32,28,0,0,1,2,"[0, 14, 18, 13, 12, 7, 19, 2]",8,0,[],2.531747699,11084,2226,1,0,8,1.4824387893309579
basic,32,28,0,1,1,2,"[0, 14, 18, 13, 12, 7, 19, 2]",8,0,[],2.531747699,13450,2366,1,0,8,1.4824387893309579
basic,33,11,0,0,0,0,[0],1,25,"[1, 2, 3, 4, 5, 6, 8, 9, 10, 11, 12, 13, 14, 15, 16, 17, 18, 19, 20, 22, 23, 25, 26, 27, 28]",300,11,-1,6,374,12,0.0
basic,33,11,0,0,0,18,"[0, 18]",2,21,"[1, 2, 4, 5, 6, 8, 9, 11, 12, 13, 14, 15, 16, 17, 19, 20, 22, 23, 25, 27, 28]",236.8493864,4265,4254,157,1477,11,1.0
basic,33,11,0,0,0,27,"[0, 18, 27]",3,19,"[1, 2, 4, 5, 6, 8, 9, 11, 12, 14, 15, 16, 17, 19, 20, 22, 23, 25, 28]",212.9956655,5069,804,157,1315,11,1.060949579704323
basic,33,11,0,0,0,8,"[0, 18, 27, 8]",4,14,"[1, 2, 4, 5, 6, 11, 12, 15, 17, 19, 22, 23, 25, 28]",142.7817068,6660,1591,68,433,11,1.0827202875589923
basic,33,11,0,0,0,17,"[0, 18, 27, 8, 17]",5,13,"[1, 2, 4, 5, 6, 11, 12, 15, 19, 22, 23, 25, 28]",128.4638857,7609,949,42,137,11,1.1662918234607762
basic,33,11,0,0,0,15,"[0, 18, 27, 8, 17, 15]",6,9,"[2, 5, 6, 11, 12, 19, 22, 25, 28]",115.8147751,8245,636,38,57,11,1.1741312027420885
basic,33,11,0,0,0,11,"[0, 18, 27, 8, 17, 15, 11]",7,7,"[2, 5, 6, 12, 19, 22, 28]",97.70400479,8882,637,24,0,11,1.1668679039564056
basic,33,11,0,0,0,5,"[0, 18, 27, 8, 17, 15, 11, 5]",8,3,"[2, 22, 28]",62.47617489,10312,1430,6,0,11,1.4599514427122162
basic,33,11,0,0,0,28,"[0, 18, 27, 8, 17, 15, 11, 5, 28]",9,2,"[2, 22]",44.58763107,10952,640,2,0,11,1.4780521291873887
basic,33,11,0,0,0,2,"[0, 18, 27, 8, 17, 15, 11, 5, 28, 2]",10,1,[22],33.95748525,11747,795,1,0,11,1.49053366829238
basic,33,11,0,0,1,22,"[0, 18, 27, 8, 17, 15, 11, 5, 28, 2, 22]",11,0,[],23.90760963,12539,792,1,0,11,1.4644184017269015
basic,33,11,0,1,1,22,"[0, 18, 27, 8, 17, 15, 11, 5, 28, 2, 22]",11,0,[],23.90760963,19270,6731,1,0,11,1.4644184017269015
basic,34,30,0,0,0,0,[0],1,19,"[3, 4, 5, 7, 9, 11, 16, 17, 18, 19, 20, 21, 22, 24, 25, 26, 27, 28, 29]",300,11,-1,5,41,8,0.0
basic,34,30,0,0,0,25,"[0, 25]",2,12,"[3, 5, 7, 9, 11, 16, 18, 19, 20, 24, 27, 29]",121.1005869,3073,3062,7,37,7,1.0
basic,34,30,0,0,0,20,"[0, 25, 20]",3,9,"[3, 5, 7, 9, 11, 18, 19, 27, 29]",99.16887472,3871,798,5,16,7,1.0037291321296267
basic,34,30,0,0,0,27,"[0, 25, 20, 27]",4,4,"[3, 5, 18, 29]",65.11010199,4829,958,4,6,7,1.1217072851053165
basic,34,30,0,0,0,3,"[0, 25, 20, 27, 3]",5,3,"[5, 18, 29]",46.00512882,5625,796,4,0,7,1.1140018780928678
basic,34,30,0,0,0,29,"[0, 25, 20, 27, 3, 29]",6,1,[18],27.40405358,6265,640,1,0,7,1.119672312555708
basic,34,30,0,0,1,18,"[0, 25, 20, 27, 3, 29, 18]",7,0,[],8.090845662,7215,950,1,0,7,1.1951451398733344
basic,34,30,0,1,1,18,"[0, 25, 20, 27, 3, 29, 18]",7,0,[],8.090845662,9289,2074,1,0,7,1.1951451398733344
basic,35,23,0,0,0,0,[0],1,28,"[1, 2, 3, 4, 5, 6, 7, 8, 9, 10, 11, 12, 13, 14, 15, 16, 17, 18, 19, 20, 21, 22, 23, 25, 26, 27, 28, 29]",300,10,-1,76,2626,10,0.0
basic,35,23,0,0,0,22,"[0, 22]",2,24,"[1, 2, 3, 5, 6, 7, 8, 9, 10, 11, 12, 13, 14, 15, 17, 18, 19, 20, 21, 23, 25, 26, 27, 29]",210.5013967,3915,3905,15,1362,10,1.0
basic,35,23,0,0,0,13,"[0, 22, 13]",3,14,"[1, 2, 5, 6, 7, 8, 9, 10, 12, 14, 18, 21, 27, 29]",168.3113504,4872,957,14,522,10,1.1898173563652046
basic,35,23,0,0,0,12,"[0, 22, 13, 12]",4,11,"[1, 2, 6, 7, 9, 10, 14, 18, 21, 27, 29]",156.2283045,5665,793,12,166,10,1.1727968780218219
basic,35,23,0,0,0,2,"[0, 22, 13, 12, 2]",5,9,"[1, 6, 7, 9, 10, 14, 18, 27, 29]",142.3358605,6308,643,4,38,10,1.1553975034701014
basic,35,23,0,0,0,9,"[0, 22, 13, 12, 2, 9]",6,7,"[6, 7, 10, 14, 18, 27, 29]",129.2974557,6785,477,1,12,10,1.3065798464766785
basic,35,23,0,0,0,14,"[0, 22, 13, 12, 2, 9, 14]",7,6,"[6, 7, 10, 18, 27, 29]",118.8571492,7416,631,1,6,10,1.2857038452263323
basic,35,23,0,0,0,29,"[0, 22, 13, 12, 2, 9, 14, 29]",8,2,"[7, 10]",71.42298425,8537,1121,1,1,10,1.4822676597092734
basic,35,23,0,0,0,7,"[0, 22, 13, 12, 2, 9, 14, 29, 7]",9,1,[10],47.3397951,9335,798,1,0,10,1.5022275496758202
basic,35,23,0,0,1,10,"[0, 22, 13, 12, 2, 9, 14, 29, 7, 10]",10,0,[],19.88073466,10608,1273,1,0,10,1.46560906518872
basic,35,23,0,1,1,10,"[0, 22, 13, 12, 2, 9, 14, 29, 7, 10]",10,0,[],19.88073466,16964,6356,1,0,10,1.46560906518872
basic,36,44,0,0,0,0,[0],1,29,"[1, 2, 3, 4, 5, 6, 7, 8, 9, 10, 11, 12, 13, 14, 15, 16, 17, 18, 19, 20, 21, 22, 23, 24, 25, 26, 27, 28, 29]",300,12,-1,13,126,7,0.0
basic,36,44,0,0,0,8,"[0, 8]",2,17,"[1, 4, 5, 7, 9, 10, 11, 12, 13, 14, 15, 20, 21, 23, 24, 25, 27]",145.7923478,4962,4950,1,10,7,1.0
basic,36,44,0,0,0,20,"[0, 8, 20]",3,16,"[1, 4, 5, 7, 9, 10, 11, 12, 13, 14, 15, 21, 23, 24, 25, 27]",133.7093018,5598,636,1,9,7,1.0890794433668698
basic,36,44,0,0,0,9,"[0, 8, 20, 9]",4,7,"[4, 7, 11, 12, 14, 23, 24]",76.43801756,6559,961,1,6,7,1.40892325509949
basic,36,44,0,0,0,4,"[0, 8, 20, 9, 4]",5,4,"[7, 12, 23, 24]",56.74030196,8143,1584,1,3,7,1.3849770570803555
basic,36,44,0,0,0,7,"[0, 8, 20, 9, 4, 7]",6,1,[23],25.72417712,8623,480,1,0,7,1.3274380931474288
basic,36,44,0,0,1,23,"[0, 8, 20, 9, 4, 7, 23]",7,0,[],6.619203947,9265,642,1,0,7,1.3395824779823196
basic,36,44,0,1,1,23,"[0, 8, 20, 9, 4, 7, 23]",7,0,[],6.619203947,10682,1417,1,0,7,1.3395824779823196
basic,37,1,0,0,0,0,[0],1,26,"[1, 2, 4, 5, 7, 8, 9, 10, 11, 12, 13, 14, 15, 16, 17, 18, 19, 20, 21, 22, 23, 24, 25, 26, 28, 29]",300,10,-1,6,74,7,0.0
basic,37,1,0,0,0,14,"[0, 14]",2,19,"[1, 4, 5, 8, 9, 13, 15, 17, 18, 19, 20, 21, 22, 23, 24, 25, 26, 28, 29]",200.1901808,5634,5624,5,42,7,1.0
basic,37,1,0,0,0,17,"[0, 14, 17]",3,15,"[1, 4, 5, 8, 9, 13, 15, 18, 19, 20, 22, 23, 25, 28, 29]",147.8356204,6594,960,5,27,7,1.0028844724416826
basic,37,1,0,0,0,1,"[0, 14, 17, 1]",4,12,"[4, 5, 8, 9, 15, 18, 20, 22, 23, 25, 28, 29]",123.4840291,7234,640,5,15,7,1.0264985578353567
basic,37,1,0,0,0,28,"[0, 14, 17, 1, 28]",5,5,"[9, 15, 22, 23, 29]",88.59850198,8037,803,5,3,7,1.0339861575999345
basic,37,1,0,0,0,23,"[0, 14, 17, 1, 28, 23]",6,2,"[15, 22]",51.70676849,8680,643,2,0,7,1.0327458250705703
basic,37,1,0,0,1,15,"[0, 14, 17, 1, 28, 23, 15]",7,0,[],20.81987807,9636,956,1,0,7,1.1948681641401226
basic,37,1,0,1,1,15,"[0, 14, 17, 1, 28, 23, 15]",7,0,[],20.81987807,10109,473,1,0,7,1.1948681641401226
basic,38,29,0,0,0,0,[0],1,29,"[1, 2, 3, 4, 5, 6, 7, 8, 9, 10, 11, 12, 13, 14, 15, 16, 17, 18, 19, 20, 21, 22, 23, 24, 25, 26, 27, 28, 29]",300,10,-1,1,78,9,0.0
basic,38,29,0,0,0,9,"[0, 9]",2,8,"[4, 5, 7, 12, 13, 21, 22, 27]",111.2117588,4735,4725,7,13,5,1.0
basic,38,29,0,0,0,7,"[0, 9, 7]",3,6,"[4, 5, 12, 21, 22, 27]",82.14287513,5533,798,4,5,5,1.324757247629365
basic,38,29,0,0,0,12,"[0, 9, 7, 12]",4,4,"[4, 5, 22, 27]",68.54140462,6337,804,4,0,5,1.4992841740876488
basic,38,29,0,0,1,22,"[0, 9, 7, 12, 22]",5,0,[],30.5940727,7143,806,1,0,5,2.3032878948162137
basic,38,29,0,1,1,22,"[0, 9, 7, 12, 22]",5,0,[],30.5940727,8888,1745,1,0,5,2.3032878948162137
basic,39,33,0,0,0,0,[0],1,23,"[1, 2, 5, 7, 8, 11, 12, 13, 14, 15, 16, 17, 18, 19, 20, 21, 23, 24, 25, 26, 27, 28, 29]",300,11,-1,5,108,9,0.0
basic,39,33,0,0,0,21,"[0, 21]",2,17,"[2, 5, 7, 8, 11, 13, 14, 16, 17, 18, 19, 20, 24, 26, 27, 28, 29]",174.4611614,2066,2055,21,129,8,1.0
basic,39,33,0,0,0,13,"[0, 21, 13]",3,15,"[2, 5, 7, 8, 11, 14, 16, 17, 18, 19, 20, 24, 26, 28, 29]",148.0604038,2707,641,17,72,8,1.0001005298764474
basic,39,33,0,0,0,19,"[0, 21, 13, 19]",4,11,"[7, 11, 14, 16, 17, 18, 20, 24, 26, 28, 29]",122.5653063,3356,649,10,27,8,1.0588446738393702
basic,39,33,0,0,0,24,"[0, 21, 13, 19, 24]",5,7,"[7, 14, 16, 18, 26, 28, 29]",80.51771417,4314,958,3,5,8,1.078006777679028
basic,39,33,0,0,0,7,"[0, 21, 13, 19, 24, 7]",6,3,"[14, 26, 29]",51.31155044,4952,638,3,1,8,1.1669985062633954
basic,39,33,0,0,0,14,"[0, 21, 13, 19, 24, 7, 14]",7,2,"[26, 29]",36.44548169,5435,483,2,0,8,1.2148465775488593
basic,39,33,0,0,1,26,"[0, 21, 13, 19, 24, 7, 14, 26]",8,0,[],23.79637105,6067,632,1,0,8,1.2208379656544521
basic,39,33,0,1,1,26,"[0, 21, 13, 19, 24, 7, 14, 26]",8,0,[],23.79637105,8929,2862,1,0,8,1.2208379656544521
basic,40,26,0,0,0,0,[0],1,29,"[1, 2, 3, 4, 5, 6, 7, 8, 9, 10, 11, 12, 13, 14, 15, 16, 17, 18, 19, 20, 21, 22, 23, 24, 25, 26, 27, 28, 29]",300,517,-1,9,226,9,0.0
basic,40,26,0,0,0,10,"[0, 10]",2,6,"[4, 6, 14, 16, 17, 29]",138.1822012,2935,2418,9,66,7,1.0
basic,40,26,0,0,0,6,"[0, 10, 6]",3,5,"[4, 14, 16, 17, 29]",108.9076389,3577,642,8,23,7,1.1897813099332413
basic,40,26,0,0,0,14,"[0, 10, 6, 14]",4,4,"[4, 16, 17, 29]",87.88384285,4089,512,4,6,7,1.3162481558218453
basic,40,26,0,0,0,17,"[0, 10, 6, 14, 17]",5,3,"[4, 16, 29]",65.41163779,4752,663,3,1,7,1.6510075497064465
basic,40,26,0,0,0,4,"[0, 10, 6, 14, 17, 4]",6,1,[29],44.31661468,5390,638,1,0,7,2.1095586782058087
basic,40,26,0,0,1,29,"[0, 10, 6, 14, 17, 4, 29]",7,0,[],20.31661468,5869,479,1,0,7,2.288952413143475
basic,40,26,0,1,1,29,"[0, 10, 6, 14, 17, 4, 29]",7,0,[],20.31661468,7139,1270,1,0,7,2.288952413143475
basic,41,22,0,0,0,0,[0],1,29,"[1, 2, 3, 4, 5, 6, 7, 8, 9, 10, 11, 12, 13, 14, 15, 16, 17, 18, 19, 20, 21, 22, 23, 24, 25, 26, 27, 28, 29]",300,12,-1,31,704,9,0.0
basic,41,22,0,0,0,16,"[0, 16]",2,21,"[1, 3, 6, 7, 8, 9, 11, 13, 14, 15, 17, 18, 19, 20, 21, 22, 24, 25, 27, 28, 29]",218.605897,3765,3753,17,147,9,1.0
basic,41,22,0,0,0,28,"[0, 16, 28]",3,13,"[6, 7, 9, 13, 14, 17, 19, 20, 21, 22, 24, 25, 29]",184.1675463,4565,800,12,61,9,1.047282311284478
basic,41,22,0,0,0,6,"[0, 16, 28, 6]",4,12,"[7, 9, 13, 14, 17, 19, 20, 21, 22, 24, 25, 29]",154.1675463,5524,959,12,43,9,1.645645870580622
basic,41,22,0,0,0,9,"[0, 16, 28, 6, 9]",5,8,"[7, 14, 17, 19, 20, 21, 24, 29]",127.5404924,6632,1108,8,17,9,1.925750226630103
basic,41,22,0,0,0,19,"[0, 16, 28, 6, 9, 19]",6,6,"[7, 14, 17, 21, 24, 29]",107.1444143,7110,478,3,7,9,2.4220750331476455
basic,41,22,0,0,0,29,"[0, 16, 28, 6, 9, 19, 29]",7,4,"[7, 14, 17, 24]",92.11111796,7590,480,2,2,9,2.6996279574991067
basic,41,22,0,0,0,14,"[0, 16, 28, 6, 9, 19, 29, 14]",8,1,[7],33.86165444,8713,1123,1,0,9,2.0544639927929462
basic,41,22,0,0,1,7,"[0, 16, 28, 6, 9, 19, 29, 14, 7]",9,0,[],20.82324963,9347,634,1,0,9,2.219817088951114
basic,41,22,0,1,1,7,"[0, 16, 28, 6, 9, 19, 29, 14, 7]",9,0,[],20.82324963,12337,2990,1,0,9,2.219817088951114
basic,42,40,0,0,0,0,[0],1,29,"[1, 2, 3, 4, 5, 6, 7, 8, 9, 10, 11, 12, 13, 14, 15, 16, 17, 18, 19, 20, 21, 22, 23, 24, 25, 26, 27, 28, 29]",300,11,-1,8,191,9,0.0
basic,42,40,0,0,0,1,"[0, 1]",2,18,"[2, 5, 6, 7, 8, 9, 10, 11, 13, 15, 17, 18, 19, 21, 22, 23, 27, 29]",247.8463808,3111,3100,4,80,9,1.0
basic,42,40,0,0,0,6,"[0, 1, 6]",3,17,"[2, 5, 7, 8, 9, 10, 11, 13, 15, 17, 18, 19, 21, 22, 23, 27, 29]",227.7466295,3756,645,4,74,9,1.0459427008232034
basic,42,40,0,0,0,23,"[0, 1, 6, 23]",4,15,"[2, 5, 7, 8, 9, 10, 11, 13, 17, 18, 19, 21, 22, 27, 29]",158.176521,4887,1131,12,41,8,1.4952830531485621
basic,42,40,0,0,0,19,"[0, 1, 6, 23, 19]",5,11,"[2, 5, 7, 8, 9, 10, 18, 21, 22, 27, 29]",126.2234304,5526,639,5,11,8,1.6938703560433817
basic,42,40,0,0,0,5,"[0, 1, 6, 23, 19, 5]",6,3,"[9, 18, 22]",88.14456485,6483,957,2,1,8,1.722629652357085
basic,42,40,0,0,0,18,"[0, 1, 6, 23, 19, 5, 18]",7,1,[9],56.56925804,6962,479,1,0,8,2.0550180214885767
basic,42,40,0,0,1,9,"[0, 1, 6, 23, 19, 5, 18, 9]",8,0,[],40.01631268,7600,638,1,0,8,2.108052836974967
basic,42,40,0,1,1,9,"[0, 1, 6, 23, 19, 5, 18, 9]",8,0,[],40.01631268,18216,10616,1,0,8,2.108052836974967
basic,43,6,0,0,0,0,[0],1,29,"[1, 2, 3, 4, 5, 6, 7, 8, 9, 10, 11, 12, 13, 14, 15, 16, 17, 18, 19, 20, 21, 22, 23, 24, 25, 26, 27, 28, 29]",300,10,-1,180,4304,10,0.0
basic,43,6,0,0,0,3,"[0, 3]",2,28,"[1, 2, 4, 5, 6, 7, 8, 9, 10, 11, 12, 13, 14, 15, 16, 17, 18, 19, 20, 21, 22, 23, 24, 25, 26, 27, 28, 29]",266.4738908,2766,2756,90,1607,10,1.0
basic,43,6,0,0,0,18,"[0, 3, 18]",3,27,"[1, 2, 4, 5, 6, 7, 8, 9, 10, 11, 12, 13, 14, 15, 16, 17, 19, 20, 21, 22, 23, 24, 25, 26, 27, 28, 29]",237.4738908,3724,958,34,516,10,1.0266750028725786
basic,43,6,0,0,0,17,"[0, 3, 18, 17]",4,26,"[1, 2, 4, 5, 6, 7, 8, 9, 10, 11, 12, 13, 14, 15, 16, 19, 20, 21, 22, 23, 24, 25, 26, 27, 28, 29]",223.5455025,4515,791,17,243,10,1.0832900829093166
basic,43,6,0,0,0,24,"[0, 3, 18, 17, 24]",5,20,"[1, 2, 4, 5, 6, 7, 8, 10, 11, 13, 14, 16, 20, 21, 22, 23, 26, 27, 28, 29]",194.2709402,8169,3654,5,76,10,1.0867036360208242
basic,43,6,0,0,0,10,"[0, 3, 18, 17, 24, 10]",6,18,"[1, 2, 4, 5, 6, 7, 8, 11, 13, 14, 16, 20, 21, 22, 23, 26, 27, 29]",180.8545323,8802,633,5,57,10,1.4126045344074838
basic,43,6,0,0,0,7,"[0, 3, 18, 17, 24, 10, 7]",7,7,"[1, 2, 8, 13, 16, 26, 29]",122.8545323,9762,960,1,7,10,3.688929826378193
basic,43,6,0,0,0,26,"[0, 3, 18, 17, 24, 10, 7, 26]",8,3,"[1, 2, 13]",98.77134314,10243,481,1,2,10,4.045665581913427
basic,43,6,0,0,1,2,"[0, 3, 18, 17, 24, 10, 7, 26, 2]",9,0,[],68.93847535,12139,1896,1,0,9,2.912951660533082
basic,43,6,0,1,1,2,"[0, 3, 18, 17, 24, 10, 7, 26, 2]",9,0,[],68.93847535,15984,3845,1,0,9,2.912951660533082
basic,44,20,0,0,0,0,[0],1,21,"[1, 2, 3, 4, 5, 6, 7, 8, 9, 12, 17, 18, 20, 21, 22, 23, 25, 26, 27, 28, 29]",300,10,-1,1,9,9,0.0
basic,44,20,0,0,0,1,"[0, 1]",2,14,"[3, 4, 5, 6, 8, 9, 12, 20, 21, 23, 26, 27, 28, 29]",197.3501096,2101,2091,1,9,8,1.0
basic,44,20,0,0,0,5,"[0, 1, 5]",3,12,"[4, 6, 8, 9, 12, 20, 21, 23, 26, 27, 28, 29]",160.675868,2739,638,1,8,8,1.1088946720668915
basic,44,20,0,0,0,21,"[0, 1, 5, 21]",4,8,"[4, 6, 8, 9, 20, 23, 27, 28]",115.675868,3380,641,1,6,8,1.0805828994591202
basic,44,20,0,0,0,8,"[0, 1, 5, 21, 8]",5,5,"[6, 9, 23, 27, 28]",98.21161876,3857,477,1,5,8,1.0976815296746363
basic,44,20,0,0,0,27,"[0, 1, 5, 21, 8, 27]",6,1,[23],57.98724804,4817,960,1,0,7,1.2719907843846436
basic,44,20,0,0,1,23,"[0, 1, 5, 21, 8, 27, 23]",7,0,[],5.977633539,5778,961,1,0,7,1.2908014903941913
basic,44,20,0,1,1,23,"[0, 1, 5, 21, 8, 27, 23]",7,0,[],5.977633539,6575,797,1,0,7,1.2908014903941913
basic,45,38,0,0,0,0,[0],1,29,"[1, 2, 3, 4, 5, 6, 7, 8, 9, 10, 11, 12, 13, 14, 15, 16, 17, 18, 19, 20, 21, 22, 23, 24, 25, 26, 27, 28, 29]",300,10,-1,33,506,9,0.0
basic,45,38,0,0,0,19,"[0, 19]",2,23,"[3, 4, 5, 6, 7, 8, 9, 11, 13, 14, 15, 16, 17, 18, 20, 22, 23, 24, 25, 26, 27, 28, 29]",219.5015528,2579,2569,6,61,9,1.0
basic,45,38,0,0,0,17,"[0, 19, 17]",3,21,"[3, 4, 5, 6, 7, 9, 11, 13, 14, 15, 16, 18, 20, 22, 23, 24, 25, 26, 27, 28, 29]",198.1239945,3379,800,6,53,9,1.571793785769489
basic,45,38,0,0,0,20,"[0, 19, 17, 20]",4,17,"[3, 4, 5, 6, 7, 11, 13, 14, 15, 16, 18, 22, 24, 25, 26, 27, 28]",174.3542658,3858,479,6,44,9,2.333182710277297
basic,45,38,0,0,0,4,"[0, 19, 17, 20, 4]",5,10,"[5, 11, 13, 14, 15, 16, 24, 26, 27, 28]",140.4131403,5916,2058,5,22,9,2.276099229646013
basic,45,38,0,0,0,15,"[0, 19, 17, 20, 4, 15]",6,8,"[5, 11, 13, 14, 16, 24, 26, 28]",114.4131403,6709,793,5,6,9,2.5292671156176403
basic,45,38,0,0,0,13,"[0, 19, 17, 20, 4, 15, 13]",7,2,"[24, 26]",62.93498963,7826,1117,1,1,9,2.42535234781802
basic,45,38,0,0,0,26,"[0, 19, 17, 20, 4, 15, 13, 26]",8,1,[24],31.88664024,8465,639,1,0,9,2.129628359956924
basic,45,38,0,0,1,24,"[0, 19, 17, 20, 4, 15, 13, 26, 24]",9,0,[],1.08079664,9107,642,1,0,9,1.9259474377664159
basic,45,38,0,1,1,24,"[0, 19, 17, 20, 4, 15, 13, 26, 24]",9,0,[],1.08079664,10212,1105,1,0,9,1.9259474377664159
basic,46,39,0,0,0,0,[0],1,28,"[1, 2, 3, 4, 5, 6, 7, 9, 10, 11, 12, 13, 14, 15, 16, 17, 18, 19, 20, 21, 22, 23, 24, 25, 26, 27, 28, 29]",300,515,-1,1,30,10,0.0
basic,46,39,0,0,0,29,"[0, 29]",2,26,"[1, 2, 3, 4, 5, 6, 7, 9, 10, 12, 13, 14, 15, 16, 17, 18, 19, 20, 21, 22, 23, 24, 25, 26, 27, 28]",243.0614366,5115,4600,8,104,9,1.0
basic,46,39,0,0,0,12,"[0, 29, 12]",3,18,"[1, 2, 4, 5, 7, 9, 10, 13, 14, 15, 16, 18, 19, 22, 23, 24, 26, 28]",182.5221931,6236,1121,5,54,9,1.0026200331524904
basic,46,39,0,0,0,10,"[0, 29, 12, 10]",4,16,"[1, 2, 4, 5, 7, 9, 13, 14, 15, 16, 18, 19, 22, 23, 24, 26]",147.0116313,6880,644,5,34,9,1.2874817019928908
basic,46,39,0,0,0,7,"[0, 29, 12, 10, 7]",5,10,"[1, 2, 5, 13, 16, 18, 19, 22, 24, 26]",113.5900814,7842,962,4,12,9,1.2250826263866774
basic,46,39,0,0,0,26,"[0, 29, 12, 10, 7, 26]",6,5,"[1, 16, 18, 19, 22]",94.90853971,8325,483,3,4,9,1.2697275353190085
basic,46,39,0,0,0,22,"[0, 29, 12, 10, 7, 26, 22]",7,2,"[16, 19]",77.18849457,9122,797,2,0,9,1.438961743955176
basic,46,39,0,0,0,16,"[0, 29, 12, 10, 7, 26, 22, 16]",8,1,[19],42.18849457,9926,804,1,0,9,1.3580882130477205
basic,46,39,0,0,1,19,"[0, 29, 12, 10, 7, 26, 22, 16, 19]",9,0,[],24.72424537,10408,482,1,0,9,1.3646589157842668
basic,46,39,0,1,1,19,"[0, 29, 12, 10, 7, 26, 22, 16, 19]",9,0,[],24.72424537,13108,2700,1,0,9,1.3646589157842668
basic,47,18,0,0,0,0,[0],1,28,"[1, 2, 3, 4, 5, 6, 7, 8, 9, 10, 11, 12, 13, 14, 16, 17, 18, 19, 20, 21, 22, 23, 24, 25, 26, 27, 28, 29]",300,10,-1,3,136,10,0.0
basic,47,18,0,0,0,28,"[0, 28]",2,16,"[1, 3, 5, 7, 8, 9, 12, 13, 14, 16, 20, 23, 24, 25, 26, 27]",236.4311397,1746,1736,2,19,10,1.0
basic,47,18,0,0,0,7,"[0, 28, 7]",3,15,"[1, 3, 5, 8, 9, 12, 13, 14, 16, 20, 23, 24, 25, 26, 27]",214.4084242,2538,792,2,17,10,1.4345180696367563
basic,47,18,0,0,0,25,"[0, 28, 7, 25]",4,13,"[1, 3, 5, 8, 9, 12, 13, 14, 16, 20, 23, 26, 27]",186.6055466,3332,794,2,15,10,1.8896451241781882
basic,47,18,0,0,0,8,"[0, 28, 7, 25, 8]",5,10,"[3, 5, 9, 12, 13, 14, 16, 23, 26, 27]",149.551532,4130,798,2,10,10,1.590467437592877
basic,47,18,0,0,0,13,"[0, 28, 7, 25, 8, 13]",6,9,"[3, 5, 9, 12, 14, 16, 23, 26, 27]",128.4565089,5083,953,2,5,10,1.8248274983549797
basic,47,18,0,0,0,14,"[0, 28, 7, 25, 8, 13, 14]",7,7,"[3, 5, 9, 12, 23, 26, 27]",109.4828429,5720,637,2,3,10,1.6993534956692746
basic,47,18,0,0,0,3,"[0, 28, 7, 25, 8, 13, 14, 3]",8,3,"[5, 12, 27]",79.39962499,6521,801,2,1,10,1.802637206541468
basic,47,18,0,0,0,5,"[0, 28, 7, 25, 8, 13, 14, 3, 5]",9,1,[12],21.21887216,7482,961,1,0,10,1.559774889743805
basic,47,18,0,0,1,12,"[0, 28, 7, 25, 8, 13, 14, 3, 5, 12]",10,0,[],9.817117911,8121,639,1,0,10,1.563993037384447
basic,47,18,0,1,1,12,"[0, 28, 7, 25, 8, 13, 14, 3, 5, 12]",10,0,[],9.817117911,21311,13190,1,0,10,1.563993037384447
basic,48,36,0,0,0,0,[0],1,24,"[2, 4, 5, 6, 7, 8, 9, 10, 12, 13, 14, 15, 16, 17, 18, 19, 20, 22, 23, 25, 26, 27, 28, 29]",300,10,-1,2,200,10,0.0
basic,48,36,0,0,0,18,"[0, 18]",2,21,"[2, 4, 5, 6, 7, 8, 9, 10, 12, 13, 14, 16, 17, 19, 22, 23, 25, 26, 27, 28, 29]",279.6039219,6925,6915,2,110,10,1.0
basic,48,36,0,0,0,12,"[0, 18, 12]",3,19,"[2, 4, 5, 6, 7, 8, 9, 10, 13, 16, 17, 19, 22, 23, 25, 26, 27, 28, 29]",237.0245842,7886,961,2,86,10,2.836270082716982
basic,48,36,0,0,0,16,"[0, 18, 12, 16]",4,6,"[2, 9, 13, 17, 19, 25]",130.8549087,10277,2391,15,25,8,1.5846755239984103
basic,48,36,0,0,0,17,"[0, 18, 12, 16, 17]",5,5,"[2, 9, 13, 19, 25]",102.5353042,11235,958,13,6,8,2.0892518409834624
basic,48,36,0,0,0,9,"[0, 18, 12, 16, 17, 9]",6,4,"[2, 13, 19, 25]",76.2864947,11876,641,4,2,8,3.23916456778496
basic,48,36,0,0,0,19,"[0, 18, 12, 16, 17, 9, 19]",7,3,"[2, 13, 25]",61.15374875,12513,637,3,0,8,3.0987650790834835
basic,48,36,0,0,1,2,"[0, 18, 12, 16, 17, 9, 19, 2]",8,0,[],24.03232636,13309,796,1,0,8,2.443723317083307
basic,48,36,0,1,1,2,"[0, 18, 12, 16, 17, 9, 19, 2]",8,0,[],24.03232636,15054,1745,1,0,8,2.443723317083307
basic,49,15,0,0,0,0,[0],1,25,"[1, 2, 3, 4, 7, 8, 9, 10, 11, 12, 13, 14, 15, 16, 18, 20, 21, 22, 23, 24, 25, 26, 27, 28, 29]",300,11,-1,4,65,9,0.0
basic,49,15,0,0,0,12,"[0, 12]",2,22,"[1, 2, 3, 4, 7, 8, 9, 10, 11, 13, 14, 15, 16, 18, 21, 22, 23, 24, 26, 27, 28, 29]",213.547701,5343,5332,4,35,9,1.0
basic,49,15,0,0,0,7,"[0, 12, 7]",3,16,"[1, 3, 4, 8, 9, 10, 11, 13, 14, 15, 16, 18, 21, 22, 24, 27]",180.3061607,5986,643,4,29,9,1.411291635294361
basic,49,15,0,0,0,16,"[0, 12, 7, 16]",4,10,"[3, 4, 10, 11, 13, 14, 15, 18, 21, 22]",136.6484008,7730,1744,2,11,9,1.4308733430458784
basic,49,15,0,0,0,11,"[0, 12, 7, 16, 11]",5,7,"[3, 4, 13, 14, 15, 21, 22]",110.6291772,8683,953,2,5,9,1.5251025438826007
basic,49,15,0,0,0,3,"[0, 12, 7, 16, 11, 3]",6,5,"[4, 13, 14, 15, 22]",99.22742292,9316,633,2,3,9,1.5166583878170454
basic,49,15,0,0,0,22,"[0, 12, 7, 16, 11, 3, 22]",7,2,"[13, 15]",49.49815588,10115,799,2,0,9,1.4519711389669923
basic,49,15,0,0,0,15,"[0, 12, 7, 16, 11, 3, 22, 15]",8,1,[13],23.88565893,11067,952,1,0,9,1.4060225827822495
basic,49,15,0,0,1,13,"[0, 12, 7, 16, 11, 3, 22, 15, 13]",9,0,[],8.621321408,11703,636,1,0,9,1.4544229719836068
basic,49,15,0,1,1,13,"[0, 12, 7, 16, 11, 3, 22, 15, 13]",9,0,[],8.621321408,12331,628,1,0,9,1.4544229719836068
basic,50,4,0,0,0,0,[0],1,26,"[3, 4, 5, 6, 7, 8, 10, 11, 12, 13, 14, 15, 16, 17, 18, 19, 20, 21, 22, 23, 24, 25, 26, 27, 28, 29]",300,11,-1,4,489,10,0.0
basic,50,4,0,0,0,28,"[0, 28]",2,21,"[3, 4, 5, 6, 10, 11, 12, 13, 14, 15, 16, 17, 19, 20, 21, 22, 23, 24, 25, 26, 27]",225.9392142,3438,3427,2,216,10,1.0
basic,50,4,0,0,0,14,"[0, 28, 14]",3,13,"[3, 4, 5, 6, 11, 13, 16, 17, 20, 21, 22, 24, 25]",159.6972335,4394,956,1,26,10,1.0273973946789214
basic,50,4,0,0,0,25,"[0, 28, 14, 25]",4,12,"[3, 4, 5, 6, 11, 13, 16, 17, 20, 21, 22, 24]",143.572718,4871,477,1,25,10,1.233547772313525
basic,50,4,0,0,0,11,"[0, 28, 14, 25, 11]",5,10,"[3, 4, 5, 6, 13, 16, 17, 20, 21, 22]",124.7844238,5820,949,1,15,10,1.425978575879479
basic,50,4,0,0,0,16,"[0, 28, 14, 25, 11, 16]",6,9,"[3, 4, 5, 6, 13, 17, 20, 21, 22]",109.7844238,6616,796,1,12,10,1.3799325158051412
basic,50,4,0,0,0,3,"[0, 28, 14, 25, 11, 16, 3]",7,2,"[17, 20]",68.15510719,7414,798,1,1,9,1.3292844629725955
basic,50,4,0,0,0,17,"[0, 28, 14, 25, 11, 16, 3, 17]",8,1,[20],43.63980585,8215,801,1,0,9,1.5639571149270572
basic,50,4,0,1,0,17,"[0, 28, 14, 25, 11, 16, 3, 17]",8,1,[20],43.63980585,15031,6816,1,0,9,1.5639571149270572
basic,51,13,0,0,0,0,[0],1,29,"[1, 2, 3, 4, 5, 6, 7, 8, 9, 10, 11, 12, 13, 14, 15, 16, 17, 18, 19, 20, 21, 22, 23, 24, 25, 26, 27, 28, 29]",300,10,-1,60,2676,11,0.0
basic,51,13,0,0,0,24,"[0, 24]",2,28,"[1, 2, 3, 4, 5, 6, 7, 8, 9, 10, 11, 12, 13, 14, 15, 16, 17, 18, 19, 20, 21, 22, 23, 25, 26, 27, 28, 29]",288.8196601,2938,2928,16,1444,11,1.0
basic,51,13,0,0,0,28,"[0, 24, 28]",3,23,"[1, 2, 3, 4, 6, 7, 8, 9, 10, 11, 12, 13, 15, 16, 17, 19, 20, 21, 22, 23, 26, 27, 29]",222.5324064,4839,1901,8,243,11,1.0513810491680837
basic,51,13,0,0,0,2,"[0, 24, 28, 2]",4,19,"[1, 3, 4, 6, 7, 9, 11, 12, 13, 15, 16, 17, 19, 20, 21, 23, 26, 27, 29]",184.889346,5642,803,7,110,11,1.050374132001543
basic,51,13,0,0,0,29,"[0, 24, 28, 2, 29]",5,18,"[1, 3, 4, 6, 7, 9, 11, 12, 13, 15, 16, 17, 19, 20, 21, 23, 26, 27]",173.1846461,6433,791,7,85,11,1.1393409619120594
basic,51,13,0,0,0,7,"[0, 24, 28, 2, 29, 7]",6,17,"[1, 3, 4, 6, 9, 11, 12, 13, 15, 16, 17, 19, 20, 21, 23, 26, 27]",157.9203086,7069,636,5,45,11,1.349777315111579
basic,51,13,0,0,0,26,"[0, 24, 28, 2, 29, 7, 26]",7,16,"[1, 3, 4, 6, 9, 11, 12, 13, 15, 16, 17, 19, 20, 21, 23, 27]",147.480002,7545,476,5,25,11,1.5942082773824946
basic,51,13,0,0,0,6,"[0, 24, 28, 2, 29, 7, 26, 6]",8,12,"[1, 3, 4, 11, 13, 15, 16, 17, 19, 20, 23, 27]",127.3802508,8182,637,4,12,11,1.5898347940840756
basic,51,13,0,0,0,11,"[0, 24, 28, 2, 29, 7, 26, 6, 11]",9,6,"[1, 13, 15, 16, 17, 23]",108.2752776,8818,636,3,4,11,1.5029953945561012
basic,51,13,0,0,0,13,"[0, 24, 28, 2, 29, 7, 26, 6, 11, 13]",10,2,"[15, 17]",52.19497806,10250,1432,2,0,11,1.3655915863754327
basic,51,13,0,0,1,15,"[0, 24, 28, 2, 29, 7, 26, 6, 11, 13, 15]",11,0,[],12.38291958,11366,1116,1,0,11,1.3653085520078876
basic,51,13,0,1,1,15,"[0, 24, 28, 2, 29, 7, 26, 6, 11, 13, 15]",11,0,[],12.38291958,14381,3015,1,0,11,1.3653085520078876
basic,52,32,0,0,0,0,[0],1,29,"[1, 2, 3, 4, 5, 6, 7, 8, 9, 10, 11, 12, 13, 14, 15, 16, 17, 18, 19, 20, 21, 22, 23, 24, 25, 26, 27, 28, 29]",300,11,-1,17,359,10,0.0
basic,52,32,0,0,0,19,"[0, 19]",2,28,"[1, 2, 3, 4, 5, 6, 7, 8, 9, 10, 11, 12, 13, 14, 15, 16, 17, 18, 20, 21, 22, 23, 24, 25, 26, 27, 28, 29]",283.5075775,1900,1889,16,294,10,1.0
basic,52,32,0,0,0,13,"[0, 19, 13]",3,24,"[2, 3, 4, 5, 6, 8, 9, 10, 11, 12, 14, 15, 16, 17, 18, 20, 21, 22, 23, 24, 25, 26, 27, 28]",260.3127505,2543,643,14,227,10,1.0172874229878615
basic,52,32,0,0,0,15,"[0, 19, 13, 15]",4,18,"[2, 3, 5, 8, 9, 10, 11, 12, 16, 17, 20, 22, 23, 24, 25, 26, 27, 28]",177.4393531,3508,965,9,116,10,1.435447391509833
basic,52,32,0,0,0,28,"[0, 19, 13, 15, 28]",5,17,"[2, 3, 5, 8, 9, 10, 11, 12, 16, 17, 20, 22, 23, 24, 25, 26, 27]",166.0375988,4149,641,9,70,10,1.3843701324937985
basic,52,32,0,0,0,12,"[0, 19, 13, 15, 28, 12]",6,14,"[2, 3, 5, 8, 9, 10, 11, 16, 17, 20, 22, 24, 26, 27]",147.0639329,4788,639,6,35,10,1.358372254952329
basic,52,32,0,0,0,16,"[0, 19, 13, 15, 28, 12, 16]",7,13,"[2, 3, 5, 8, 9, 10, 11, 17, 20, 22, 24, 26, 27]",131.411457,5426,638,5,15,10,1.4356932930709845
basic,52,32,0,0,0,22,"[0, 19, 13, 15, 28, 12, 16, 22]",8,6,"[2, 8, 9, 17, 20, 27]",97.57360838,6227,801,3,5,10,1.4335226411545752
basic,52,32,0,0,0,9,"[0, 19, 13, 15, 28, 12, 16, 22, 9]",9,3,"[2, 8, 20]",75.37000507,6864,637,3,0,10,1.4837166378374758
basic,52,32,0,0,1,8,"[0, 19, 13, 15, 28, 12, 16, 22, 9, 8]",10,0,[],30.24794838,7979,1115,1,0,10,1.3767698817641267
basic,52,32,0,1,1,8,"[0, 19, 13, 15, 28, 12, 16, 22, 9, 8]",10,0,[],30.24794838,9427,1448,1,0,10,1.3767698817641267
basic,53,34,0,0,0,0,[0],1,25,"[1, 3, 4, 5, 6, 7, 8, 9, 10, 11, 12, 13, 15, 18, 19, 20, 21, 22, 23, 24, 25, 26, 27, 28, 29]",300,10,-1,12,367,10,0.0
basic,53,34,0,0,0,13,"[0, 13]",2,24,"[1, 3, 4, 5, 6, 7, 8, 9, 10, 11, 12, 15, 18, 19, 20, 21, 22, 23, 24, 25, 26, 27, 28, 29]",279.9750156,1571,1561,12,331,10,1.0
basic,53,34,0,0,0,1,"[0, 13, 1]",3,16,"[3, 5, 7, 8, 9, 10, 11, 12, 19, 21, 22, 23, 24, 25, 27, 29]",211.8574701,2540,969,3,92,10,1.0010381285747127
basic,53,34,0,0,0,8,"[0, 13, 1, 8]",4,14,"[3, 5, 7, 9, 10, 11, 12, 19, 22, 23, 24, 25, 27, 29]",201.0871405,3015,475,2,54,10,1.1636807
basic,53,34,0,0,0,25,"[0, 13, 1, 8, 25]",5,12,"[3, 5, 7, 9, 10, 11, 12, 22, 23, 24, 27, 29]",183.999133,3489,474,2,28,10,1.1396208815936457
basic,53,34,0,0,0,24,"[0, 13, 1, 8, 25, 24]",6,11,"[3, 5, 7, 9, 10, 11, 12, 22, 23, 27, 29]",166.5062774,4130,641,2,23,10,1.374180768736554
basic,53,34,0,0,0,12,"[0, 13, 1, 8, 25, 24, 12]",7,7,"[7, 9, 10, 11, 22, 23, 27]",115.4670767,7603,3473,1,8,10,1.4994254760835948
basic,53,34,0,0,0,7,"[0, 13, 1, 8, 25, 24, 12, 7]",8,5,"[9, 11, 22, 23, 27]",100.4337804,8080,477,1,4,10,1.758992610425009
basic,53,34,0,0,0,23,"[0, 13, 1, 8, 25, 24, 12, 7, 23]",9,1,[27],72.27352467,8721,641,1,0,10,2.399781305190153
basic,53,34,0,0,1,27,"[0, 13, 1, 8, 25, 24, 12, 7, 23, 27]",10,0,[],18.60789321,9685,964,1,0,10,4.766619878750327
basic,53,34,0,1,1,27,"[0, 13, 1, 8, 25, 24, 12, 7, 23, 27]",10,0,[],18.60789321,13804,4119,1,0,10,4.766619878750327
basic,54,31,0,0,0,0,[0],1,27,"[1, 3, 4, 5, 6, 7, 8, 10, 11, 12, 13, 14, 15, 16, 17, 18, 19, 20, 21, 22, 23, 24, 25, 26, 27, 28, 29]",300,10,-1,2,87,10,0.0
basic,54,31,0,0,0,14,"[0, 14]",2,25,"[1, 3, 5, 6, 7, 8, 10, 11, 12, 13, 15, 16, 17, 18, 19, 20, 21, 22, 23, 24, 25, 26, 27, 28, 29]",263.861378,1895,1885,2,59,10,1.0
basic,54,31,0,0,0,27,"[0, 14, 27]",3,22,"[1, 3, 5, 6, 7, 8, 10, 11, 12, 13, 15, 16, 17, 18, 19, 20, 21, 22, 24, 25, 28, 29]",235.6833724,2531,636,1,39,10,1.5881859159302467
basic,54,31,0,0,0,8,"[0, 14, 27, 8]",4,20,"[1, 3, 5, 6, 7, 10, 11, 12, 13, 16, 17, 18, 19, 20, 21, 22, 24, 25, 28, 29]",224.6380114,3010,479,1,36,10,2.1665048452331277
basic,54,31,0,0,0,18,"[0, 14, 27, 8, 18]",5,15,"[1, 5, 6, 7, 11, 12, 13, 16, 17, 19, 20, 22, 25, 28, 29]",188.7911147,3966,956,1,26,10,1.7273375741920205
basic,54,31,0,0,0,17,"[0, 14, 27, 8, 18, 17]",6,13,"[1, 5, 6, 7, 11, 12, 13, 16, 19, 20, 22, 25, 28]",159.584951,4603,637,1,13,10,1.551192427769927
basic,54,31,0,0,0,11,"[0, 14, 27, 8, 18, 17, 11]",7,7,"[5, 12, 16, 19, 22, 25, 28]",118.4753414,5724,1121,1,4,10,2.9650760544203494
basic,54,31,0,0,0,5,"[0, 14, 27, 8, 18, 17, 11, 5]",8,2,"[16, 28]",74.79468207,6525,801,1,1,10,2.56711965625205
basic,54,31,0,0,0,28,"[0, 14, 27, 8, 18, 17, 11, 5, 28]",9,1,[16],54.57093365,7004,479,1,0,10,2.2865510762058148
basic,54,31,0,0,1,16,"[0, 14, 27, 8, 18, 17, 11, 5, 28, 16]",10,0,[],20.95546102,7801,797,1,0,10,2.089356850786318
basic,54,31,0,1,1,16,"[0, 14, 27, 8, 18, 17, 11, 5, 28, 16]",10,0,[],20.95546102,9534,1733,1,0,10,2.089356850786318
basic,55,10,0,0,0,0,[0],1,29,"[1, 2, 3, 4, 5, 6, 7, 8, 9, 10, 11, 12, 13, 14, 15, 16, 17, 18, 19, 20, 21, 22, 23, 24, 25, 26, 27, 28, 29]",300,10,-1,1,100,9,0.0
basic,55,10,0,0,0,13,"[0, 13]",2,25,"[1, 2, 3, 4, 6, 7, 8, 9, 10, 11, 12, 14, 17, 18, 19, 20, 21, 22, 23, 24, 25, 26, 27, 28, 29]",249.4628849,2102,2092,1,79,9,1.0
basic,55,10,0,0,0,11,"[0, 13, 11]",3,20,"[1, 2, 3, 6, 7, 8, 9, 10, 12, 14, 18, 19, 20, 21, 22, 24, 26, 27, 28, 29]",206.4512586,3053,951,1,54,9,1.0313137484914219
basic,55,10,0,0,0,19,"[0, 13, 11, 19]",4,11,"[2, 6, 8, 9, 10, 14, 18, 20, 24, 26, 27]",170.0919407,3855,802,1,22,9,1.0879446220132545
basic,55,10,0,0,0,2,"[0, 13, 11, 19, 2]",5,4,"[14, 20, 26, 27]",126.1829439,4815,960,1,4,9,1.06474052351343
basic,55,10,0,0,0,14,"[0, 13, 11, 19, 2, 14]",6,3,"[20, 26, 27]",114.0174188,5609,794,1,3,9,1.1628909195912238
basic,55,10,0,0,0,26,"[0, 13, 11, 19, 2, 14, 26]",7,2,"[20, 27]",79.34754716,6252,643,1,1,9,1.6660727647633602
basic,55,10,0,0,0,20,"[0, 13, 11, 19, 2, 14, 26, 20]",8,1,[27],47.56704999,6732,480,1,0,9,2.085581809637999
basic,55,10,0,0,1,27,"[0, 13, 11, 19, 2, 14, 26, 20, 27]",9,0,[],2.312215998,7690,958,1,0,9,1.9116357409137932
basic,55,10,0,1,1,27,"[0, 13, 11, 19, 2, 14, 26, 20, 27]",9,0,[],2.312215998,8321,631,1,0,9,1.9116357409137932
basic,56,17,0,0,0,0,[0],1,28,"[1, 2, 3, 4, 5, 6, 7, 8, 9, 10, 11, 12, 13, 14, 15, 16, 17, 18, 19, 20, 22, 23, 24, 25, 26, 27, 28, 29]",300,513,-1,2,73,8,0.0
basic,56,17,0,0,0,9,"[0, 9]",2,25,"[1, 2, 3, 5, 6, 7, 8, 10, 11, 12, 14, 15, 16, 17, 18, 19, 20, 22, 23, 24, 25, 26, 27, 28, 29]",210.5293344,1899,1386,1,34,8,1.0
basic,56,17,0,0,0,16,"[0, 9, 16]",3,21,"[1, 2, 3, 5, 7, 8, 10, 11, 12, 14, 17, 18, 19, 20, 22, 23, 25, 26, 27, 28, 29]",197.1876704,2378,479,1,26,8,1.173103464220352
basic,56,17,0,0,0,2,"[0, 9, 16, 2]",4,18,"[1, 3, 5, 7, 8, 10, 11, 12, 14, 17, 18, 19, 23, 25, 26, 27, 28, 29]",181.0631549,3013,635,1,23,8,1.14825089247282
basic,56,17,0,0,0,17,"[0, 9, 16, 2, 17]",5,7,"[7, 8, 12, 14, 26, 27, 29]",142.7356191,4137,1124,4,5,7,1.4896040699768547
basic,56,17,0,0,0,8,"[0, 9, 16, 2, 17, 8]",6,3,"[7, 12, 27]",104.5256727,4776,639,3,0,7,1.4604726966175894
basic,56,17,0,0,1,7,"[0, 9, 16, 2, 17, 8, 7]",7,0,[],33.81499459,5572,796,1,0,7,1.4474701869793896
basic,56,17,0,1,1,7,"[0, 9, 16, 2, 17, 8, 7]",7,0,[],33.81499459,10505,4933,1,0,7,1.4474701869793896
basic,57,0,0,0,0,0,[0],1,27,"[2, 3, 4, 5, 6, 7, 8, 9, 10, 11, 12, 13, 14, 15, 16, 17, 19, 20, 21, 22, 23, 24, 25, 26, 27, 28, 29]",300,10,-1,104,1136,9,0.0
basic,57,0,0,0,0,28,"[0, 28]",2,26,"[2, 3, 4, 5, 6, 7, 8, 9, 10, 11, 12, 13, 14, 15, 16, 17, 19, 20, 21, 22, 23, 24, 25, 26, 27, 29]",194.9190788,2919,2909,39,388,9,1.0
basic,57,0,0,0,0,5,"[0, 28, 5]",3,21,"[2, 3, 4, 7, 8, 9, 11, 12, 13, 14, 15, 16, 17, 19, 20, 21, 23, 24, 25, 26, 29]",151.2613189,3723,804,27,210,9,1.0978295127671733
basic,57,0,0,0,0,4,"[0, 28, 5, 4]",4,16,"[3, 7, 8, 9, 11, 12, 13, 14, 15, 17, 19, 20, 21, 23, 24, 26]",126.1814465,4363,640,17,114,9,1.1103727063761901
basic,57,0,0,0,0,26,"[0, 28, 5, 4, 26]",5,14,"[3, 7, 8, 9, 11, 12, 13, 14, 15, 17, 19, 20, 23, 24]",114.1398519,4844,481,7,54,9,1.1504454351688815
basic,57,0,0,0,0,24,"[0, 28, 5, 4, 26, 24]",6,11,"[3, 7, 8, 9, 11, 12, 15, 17, 19, 20, 23]",97.02260914,5639,795,7,22,9,1.2166555899566422
basic,57,0,0,0,0,15,"[0, 28, 5, 4, 26, 24, 15]",7,7,"[3, 7, 8, 9, 11, 12, 17]",73.67737408,6116,477,4,5,9,1.1972898774231708
basic,57,0,0,0,0,7,"[0, 28, 5, 4, 26, 24, 15, 7]",8,2,"[3, 8]",42.61292495,7069,953,2,0,9,1.2554869594545575
basic,57,0,0,0,1,8,"[0, 28, 5, 4, 26, 24, 15, 7, 8]",9,0,[],23.50795177,7862,793,1,0,9,1.2428648875079442
basic,57,0,0,1,1,8,"[0, 28, 5, 4, 26, 24, 15, 7, 8]",9,0,[],23.50795177,15781,7919,1,0,9,1.2428648875079442
basic,58,45,0,0,0,0,[0],1,24,"[1, 2, 3, 4, 5, 6, 7, 9, 10, 11, 12, 14, 15, 16, 17, 19, 20, 21, 22, 23, 24, 25, 27, 29]",300,10,-1,6,248,10,0.0
basic,58,45,0,0,0,15,"[0, 15]",2,23,"[1, 2, 3, 4, 5, 6, 7, 9, 10, 11, 12, 14, 16, 17, 19, 20, 21, 22, 23, 24, 25, 27, 29]",253.9022777,5774,5764,5,207,10,1.0
basic,58,45,0,0,0,17,"[0, 15, 17]",3,17,"[1, 2, 3, 5, 6, 7, 9, 10, 11, 12, 19, 20, 21, 22, 23, 24, 29]",196.4740617,6732,958,6,65,9,1.6142463780502154
basic,58,45,0,0,0,24,"[0, 15, 17, 24]",4,16,"[1, 2, 3, 5, 6, 7, 9, 10, 11, 12, 19, 20, 21, 22, 23, 29]",154.41458,7692,960,6,48,9,1.4133840686792347
basic,58,45,0,0,0,7,"[0, 15, 17, 24, 7]",5,11,"[2, 3, 6, 9, 10, 12, 19, 20, 22, 23, 29]",120.0052789,8332,640,6,34,9,1.3566841772555323
basic,58,45,0,0,0,2,"[0, 15, 17, 24, 7, 2]",6,7,"[3, 6, 10, 12, 20, 22, 29]",81.99212328,9133,801,5,8,9,1.3006879761346553
basic,58,45,0,0,0,3,"[0, 15, 17, 24, 7, 2, 3]",7,5,"[6, 10, 12, 22, 29]",56.67414547,9771,638,3,3,9,1.3564232877584654
basic,58,45,0,0,0,29,"[0, 15, 17, 24, 7, 2, 3, 29]",8,2,"[6, 10]",36.67414547,10728,957,2,0,9,1.6349652117985949
basic,58,45,0,0,1,10,"[0, 15, 17, 24, 7, 2, 3, 29, 10]",9,0,[],15.13348625,11368,640,1,0,9,1.9359422208028416
basic,58,45,0,1,1,10,"[0, 15, 17, 24, 7, 2, 3, 29, 10]",9,0,[],15.13348625,13907,2539,1,0,9,1.9359422208028416
basic,59,16,0,0,0,0,[0],1,29,"[1, 2, 3, 4, 5, 6, 7, 8, 9, 10, 11, 12, 13, 14, 15, 16, 17, 18, 19, 20, 21, 22, 23, 24, 25, 26, 27, 28, 29]",300,11,-1,13,161,9,0.0
basic,59,16,0,0,0,28,"[0, 28]",2,27,"[1, 2, 3, 4, 5, 7, 8, 9, 10, 11, 12, 13, 14, 15, 16, 17, 18, 19, 20, 21, 22, 23, 24, 25, 26, 27, 29]",284.3475242,2754,2743,11,92,9,1.0
basic,59,16,0,0,0,17,"[0, 28, 17]",3,26,"[1, 2, 3, 4, 5, 7, 8, 9, 10, 11, 12, 13, 14, 15, 16, 18, 19, 20, 21, 22, 23, 24, 25, 26, 27, 29]",219.1555001,3716,962,10,46,9,1.3773866384707543
basic,59,16,0,0,0,16,"[0, 28, 17, 16]",4,25,"[1, 2, 3, 4, 5, 7, 8, 9, 10, 11, 12, 13, 14, 15, 18, 19, 20, 21, 22, 23, 24, 25, 26, 27, 29]",190.8358956,4353,637,10,34,9,1.3209953830681203
basic,59,16,0,0,0,21,"[0, 28, 17, 16, 21]",5,13,"[3, 5, 7, 8, 9, 10, 12, 15, 20, 22, 25, 26, 29]",146.1816685,5151,798,4,7,9,1.8136482702070456
basic,59,16,0,0,0,8,"[0, 28, 17, 16, 21, 8]",6,6,"[5, 9, 12, 15, 20, 25]",96.92722704,6111,960,4,2,9,1.637204572335983
basic,59,16,0,0,0,20,"[0, 28, 17, 16, 21, 8, 20]",7,2,"[9, 25]",39.15179974,7233,1122,2,0,9,1.441590377328759
basic,59,16,0,0,0,25,"[0, 28, 17, 16, 21, 8, 20, 25]",8,1,[9],26.5026891,7712,479,1,0,9,1.484361110265371
basic,59,16,0,0,1,9,"[0, 28, 17, 16, 21, 8, 20, 25, 9]",9,0,[],13.69644062,8349,637,1,0,9,1.4530180692918209
basic,59,16,0,1,1,9,"[0, 28, 17, 16, 21, 8, 20, 25, 9]",9,0,[],13.69644062,8821,472,1,0,9,1.4530180692918209
basic,60,25,0,0,0,0,[0],1,28,"[1, 2, 3, 4, 5, 7, 8, 9, 10, 11, 12, 13, 14, 15, 16, 17, 18, 19, 20, 21, 22, 23, 24, 25, 26, 27, 28, 29]",300,10,-1,5,94,10,0.0
basic,60,25,0,0,0,23,"[0, 23]",2,23,"[1, 2, 3, 5, 7, 8, 9, 11, 12, 13, 14, 16, 17, 19, 20, 21, 22, 24, 25, 26, 27, 28, 29]",259.7756293,4100,4090,3,33,10,1.0
basic,60,25,0,0,0,19,"[0, 23, 19]",3,21,"[1, 2, 3, 5, 7, 8, 9, 11, 12, 13, 14, 16, 17, 20, 21, 22, 24, 25, 27, 28, 29]",223.9287326,4896,796,3,24,10,1.583101227007039
basic,60,25,0,0,0,29,"[0, 23, 19, 29]",4,19,"[1, 2, 3, 5, 7, 8, 9, 11, 12, 13, 14, 16, 17, 20, 21, 22, 24, 25, 28]",207.649912,5533,637,3,17,10,1.474631541426484
basic,60,25,0,0,0,22,"[0, 23, 19, 29, 22]",5,18,"[1, 2, 3, 5, 7, 8, 9, 11, 12, 13, 14, 16, 17, 20, 21, 24, 25, 28]",191.5253965,6010,477,3,14,10,1.4020377754906637
basic,60,25,0,0,0,7,"[0, 23, 19, 29, 22, 7]",6,7,"[3, 8, 9, 11, 13, 24, 28]",115.8814939,6973,963,3,11,10,1.5709678649326715
basic,60,25,0,0,0,24,"[0, 23, 19, 29, 22, 7, 24]",7,5,"[3, 8, 9, 13, 28]",91.12265712,7604,631,3,7,10,1.486191600033379
basic,60,25,0,0,0,9,"[0, 23, 19, 29, 22, 7, 24, 9]",8,4,"[3, 8, 13, 28]",73.09490075,8397,793,3,3,10,1.453504870342882
basic,60,25,0,0,0,3,"[0, 23, 19, 29, 22, 7, 24, 9, 3]",9,3,"[8, 13, 28]",42.82940885,9039,642,3,0,10,1.388955167525479
basic,60,25,0,0,1,13,"[0, 23, 19, 29, 22, 7, 24, 9, 3, 13]",10,0,[],11.58841014,10925,1886,1,0,10,1.4309045890044414
basic,60,25,0,1,1,13,"[0, 23, 19, 29, 22, 7, 24, 9, 3, 13]",10,0,[],11.58841014,11401,476,1,0,10,1.4309045890044414
basic,61,27,0,0,0,0,[0],1,26,"[1, 3, 5, 6, 7, 8, 9, 10, 11, 12, 13, 14, 15, 16, 17, 18, 19, 21, 22, 23, 24, 25, 26, 27, 28, 29]",300,10,-1,13,578,11,0.0
basic,61,27,0,0,0,15,"[0, 15]",2,24,"[1, 3, 5, 6, 7, 8, 9, 10, 11, 12, 13, 14, 16, 17, 18, 19, 21, 22, 23, 24, 25, 26, 27, 29]",263.7508621,3593,3583,6,219,11,1.0
basic,61,27,0,0,0,24,"[0, 15, 24]",3,20,"[1, 5, 6, 7, 8, 9, 10, 12, 13, 14, 16, 17, 18, 19, 21, 23, 25, 26, 27, 29]",246.5462115,4385,792,6,130,11,1.130933077698322
basic,61,27,0,0,0,17,"[0, 15, 24, 17]",4,15,"[1, 6, 8, 10, 12, 13, 14, 16, 18, 19, 23, 25, 26, 27, 29]",229.9932662,4860,475,4,60,11,1.1285538435963374
basic,61,27,0,0,0,12,"[0, 15, 24, 17, 12]",5,14,"[1, 6, 8, 10, 13, 14, 16, 18, 19, 23, 25, 26, 27, 29]",218.8129263,5340,480,2,32,11,1.2561880288755216
basic,61,27,0,0,0,10,"[0, 15, 24, 17, 12, 10]",6,11,"[1, 8, 13, 14, 18, 19, 23, 25, 26, 27, 29]",207.7675653,5974,634,2,28,11,1.2228289337766665
basic,61,27,0,0,0,13,"[0, 15, 24, 17, 12, 10, 13]",7,9,"[1, 8, 14, 18, 19, 23, 26, 27, 29]",167.9178476,6773,799,2,18,11,1.3421291994761178
basic,61,27,0,0,0,19,"[0, 15, 24, 17, 12, 10, 13, 19]",8,5,"[1, 8, 14, 23, 29]",131.6825057,7415,642,2,6,11,1.294749956153846
basic,61,27,0,0,0,8,"[0, 15, 24, 17, 12, 10, 13, 19, 8]",9,3,"[14, 23, 29]",116.816437,7888,473,2,1,11,1.3554286578836865
basic,61,27,0,0,0,29,"[0, 15, 24, 17, 12, 10, 13, 19, 8, 29]",10,1,[14],57.61339652,8849,961,1,0,11,1.248354519573802
basic,61,27,0,0,1,14,"[0, 15, 24, 17, 12, 10, 13, 19, 8, 29, 14]",11,0,[],13.31892734,9648,799,1,0,11,1.562811097555156
basic,61,27,0,1,1,14,"[0, 15, 24, 17, 12, 10, 13, 19, 8, 29, 14]",11,0,[],13.31892734,10435,787,1,0,11,1.562811097555156
basic,62,24,0,0,0,0,[0],1,29,"[1, 2, 3, 4, 5, 6, 7, 8, 9, 10, 11, 12, 13, 14, 15, 16, 17, 18, 19, 20, 21, 22, 23, 24, 25, 26, 27, 28, 29]",300,10,-1,4,76,10,0.0
basic,62,24,0,0,0,14,"[0, 14]",2,27,"[1, 2, 3, 4, 5, 6, 8, 9, 10, 11, 12, 13, 15, 16, 17, 18, 19, 20, 21, 22, 23, 24, 25, 26, 27, 28, 29]",278.0455016,3102,3092,4,54,10,1.0
basic,62,24,0,0,0,16,"[0, 14, 16]",3,25,"[2, 3, 4, 5, 6, 8, 9, 10, 11, 12, 13, 15, 17, 18, 19, 20, 21, 22, 23, 24, 25, 26, 27, 28, 29]",188.9949542,4558,1456,4,31,10,1.238291113657358
