condition,trial_id,map_id,undoIndicator,submit,checkEnd,currentChoice,chosen_all,n_city_all,n_within_reach,cities_reach,currentBudget,time_all,rt_all,n_opt_paths_all,n_subopt_paths_all,mas_all,tortuosity_all
basic,0,22,0,0,0,0,[0],1,29,"[1, 2, 3, 4, 5, 6, 7, 8, 9, 10, 11, 12, 13, 14, 15, 16, 17, 18, 19, 20, 21, 22, 23, 24, 25, 26, 27, 28, 29]",300,112,-1,31,704,9,0.0
basic,0,22,0,0,0,16,"[0, 16]",2,21,"[1, 3, 6, 7, 8, 9, 11, 13, 14, 15, 17, 18, 19, 20, 21, 22, 24, 25, 27, 28, 29]",218.605897,9050,8938,17,147,9,1.0
basic,0,22,0,0,0,28,"[0, 16, 28]",3,13,"[6, 7, 9, 13, 14, 17, 19, 20, 21, 22, 24, 25, 29]",184.1675463,10571,1521,12,61,9,1.047282311284478
basic,0,22,0,0,0,6,"[0, 16, 28, 6]",4,12,"[7, 9, 13, 14, 17, 19, 20, 21, 22, 24, 25, 29]",154.1675463,11636,1065,12,43,9,1.645645870580622
basic,0,22,0,0,0,9,"[0, 16, 28, 6, 9]",5,8,"[7, 14, 17, 19, 20, 21, 24, 29]",127.5404924,12747,1111,8,17,9,1.925750226630103
basic,0,22,0,0,0,19,"[0, 16, 28, 6, 9, 19]",6,6,"[7, 14, 17, 21, 24, 29]",107.1444143,14031,1284,3,7,9,2.4220750331476455
basic,0,22,0,0,0,29,"[0, 16, 28, 6, 9, 19, 29]",7,4,"[7, 14, 17, 24]",92.11111796,15063,1032,2,2,9,2.6996279574991067
basic,0,22,0,0,0,14,"[0, 16, 28, 6, 9, 19, 29, 14]",8,1,[7],33.86165444,16890,1827,1,0,9,2.0544639927929462
basic,0,22,0,0,1,7,"[0, 16, 28, 6, 9, 19, 29, 14, 7]",9,0,[],20.82324963,18840,1950,1,0,9,2.219817088951114
basic,0,22,0,1,1,7,"[0, 16, 28, 6, 9, 19, 29, 14, 7]",9,0,[],20.82324963,20029,1189,1,0,9,2.219817088951114
basic,1,43,0,0,0,0,[0],1,23,"[1, 2, 3, 4, 5, 6, 7, 9, 10, 11, 12, 14, 15, 16, 17, 19, 20, 21, 22, 23, 25, 27, 29]",300,114,-1,16,556,12,0.0
basic,1,43,0,0,0,29,"[0, 29]",2,22,"[1, 2, 3, 4, 5, 6, 7, 9, 10, 11, 12, 14, 15, 16, 17, 19, 20, 21, 22, 23, 25, 27]",277.909278,3574,3460,16,520,12,1.0
basic,1,43,0,0,0,20,"[0, 29, 20]",3,20,"[1, 2, 3, 4, 6, 7, 9, 10, 11, 12, 14, 15, 16, 17, 19, 21, 22, 23, 25, 27]",254.4785289,7000,3426,15,422,12,1.082311746871282
basic,1,43,0,0,0,16,"[0, 29, 20, 16]",4,19,"[1, 2, 3, 4, 6, 7, 9, 10, 11, 12, 14, 15, 17, 19, 21, 22, 23, 25, 27]",231.8511119,8996,1996,15,389,12,1.215201926898219
basic,1,43,0,0,0,15,"[0, 29, 20, 16, 15]",5,14,"[1, 2, 3, 4, 6, 7, 9, 11, 12, 14, 19, 22, 23, 25]",188.5267539,10766,1770,3,109,12,1.3482474915350444
basic,1,43,0,0,0,25,"[0, 29, 20, 16, 15, 25]",6,12,"[1, 3, 4, 6, 7, 9, 11, 12, 14, 19, 22, 23]",165.8551858,12392,1626,2,43,12,1.691408721191545
basic,1,43,0,0,0,12,"[0, 29, 20, 16, 15, 25, 12]",7,11,"[1, 3, 4, 6, 7, 9, 11, 14, 19, 22, 23]",141.6684126,13600,1208,2,32,12,1.6015983641428178
basic,1,43,0,0,0,3,"[0, 29, 20, 16, 15, 25, 12, 3]",8,10,"[1, 4, 6, 7, 9, 11, 14, 19, 22, 23]",128.6684126,15103,1503,2,24,12,1.5379830456120627
basic,1,43,0,0,0,22,"[0, 29, 20, 16, 15, 25, 12, 3, 22]",9,6,"[1, 6, 7, 11, 14, 19]",93.95530264,17471,2368,1,11,12,1.7275686117408873
basic,1,43,0,0,0,19,"[0, 29, 20, 16, 15, 25, 12, 3, 22, 19]",10,4,"[1, 6, 7, 11]",73.33977451,18711,1240,1,3,12,1.6315360037595275
basic,1,43,0,0,0,1,"[0, 29, 20, 16, 15, 25, 12, 3, 22, 19, 1]",11,1,[7],45.1617689,20308,1597,1,0,12,1.7703076545303877
basic,1,43,0,0,1,7,"[0, 29, 20, 16, 15, 25, 12, 3, 22, 19, 1, 7]",12,0,[],6.951822553,22786,2478,1,0,12,1.6607094905815594
basic,1,43,0,1,1,7,"[0, 29, 20, 16, 15, 25, 12, 3, 22, 19, 1, 7]",12,0,[],6.951822553,25112,2326,1,0,12,1.6607094905815594
basic,2,6,0,0,0,0,[0],1,29,"[1, 2, 3, 4, 5, 6, 7, 8, 9, 10, 11, 12, 13, 14, 15, 16, 17, 18, 19, 20, 21, 22, 23, 24, 25, 26, 27, 28, 29]",300,114,-1,180,4304,10,0.0
basic,2,6,0,0,0,3,"[0, 3]",2,28,"[1, 2, 4, 5, 6, 7, 8, 9, 10, 11, 12, 13, 14, 15, 16, 17, 18, 19, 20, 21, 22, 23, 24, 25, 26, 27, 28, 29]",266.4738908,2587,2473,90,1607,10,1.0
basic,2,6,0,0,0,10,"[0, 3, 10]",3,27,"[1, 2, 4, 5, 6, 7, 8, 9, 11, 12, 13, 14, 15, 16, 17, 18, 19, 20, 21, 22, 23, 24, 25, 26, 27, 28, 29]",215.2293789,3855,1268,8,136,10,1.0050517746249001
basic,2,6,0,0,0,24,"[0, 3, 10, 24]",4,23,"[1, 2, 4, 5, 6, 7, 8, 11, 13, 14, 16, 17, 18, 19, 20, 21, 22, 23, 25, 26, 27, 28, 29]",201.812971,5342,1487,8,85,10,1.0091851911500884
basic,2,6,0,0,0,17,"[0, 3, 10, 24, 17]",5,19,"[1, 2, 4, 5, 6, 7, 8, 11, 13, 14, 16, 18, 20, 21, 22, 23, 26, 27, 29]",172.5384087,6340,998,8,53,10,1.8060138032707682
basic,2,6,0,0,0,18,"[0, 3, 10, 24, 17, 18]",6,15,"[1, 2, 6, 7, 8, 13, 14, 16, 20, 21, 22, 23, 26, 27, 29]",158.6100204,8066,1726,7,36,10,2.3216150751946008
basic,2,6,0,0,0,16,"[0, 3, 10, 24, 17, 18, 16]",7,13,"[1, 2, 6, 7, 13, 14, 20, 21, 22, 23, 26, 27, 29]",135.2647853,9927,1861,7,21,10,2.2822729587843544
basic,2,6,0,0,0,29,"[0, 3, 10, 24, 17, 18, 16, 29]",8,7,"[6, 14, 20, 21, 22, 23, 27]",98.57691268,11291,1364,6,4,10,1.8911507070056388
basic,2,6,0,0,0,23,"[0, 3, 10, 24, 17, 18, 16, 29, 23]",9,2,"[6, 22]",51.05849519,12852,1561,2,0,10,1.8549852217940308
basic,2,6,0,0,1,6,"[0, 3, 10, 24, 17, 18, 16, 29, 23, 6]",10,0,[],15.70315613,14148,1296,1,0,10,1.7651720921259988
basic,2,6,0,1,1,6,"[0, 3, 10, 24, 17, 18, 16, 29, 23, 6]",10,0,[],15.70315613,15046,898,1,0,10,1.7651720921259988
basic,3,26,0,0,0,0,[0],1,29,"[1, 2, 3, 4, 5, 6, 7, 8, 9, 10, 11, 12, 13, 14, 15, 16, 17, 18, 19, 20, 21, 22, 23, 24, 25, 26, 27, 28, 29]",300,115,-1,9,226,9,0.0
basic,3,26,0,0,0,10,"[0, 10]",2,6,"[4, 6, 14, 16, 17, 29]",138.1822012,5922,5807,9,66,7,1.0
basic,3,26,0,0,0,6,"[0, 10, 6]",3,5,"[4, 14, 16, 17, 29]",108.9076389,7274,1352,8,23,7,1.1897813099332413
basic,3,26,0,0,0,14,"[0, 10, 6, 14]",4,4,"[4, 16, 17, 29]",87.88384285,8222,948,4,6,7,1.3162481558218453
basic,3,26,0,0,0,17,"[0, 10, 6, 14, 17]",5,3,"[4, 16, 29]",65.41163779,9475,1253,3,1,7,1.6510075497064465
basic,3,26,0,0,0,4,"[0, 10, 6, 14, 17, 4]",6,1,[29],44.31661468,10886,1411,1,0,7,2.1095586782058087
basic,3,26,0,0,1,29,"[0, 10, 6, 14, 17, 4, 29]",7,0,[],20.31661468,12469,1583,1,0,7,2.288952413143475
basic,3,26,0,1,1,29,"[0, 10, 6, 14, 17, 4, 29]",7,0,[],20.31661468,15198,2729,1,0,7,2.288952413143475
basic,4,14,0,0,0,0,[0],1,29,"[1, 2, 3, 4, 5, 6, 7, 8, 9, 10, 11, 12, 13, 14, 15, 16, 17, 18, 19, 20, 21, 22, 23, 24, 25, 26, 27, 28, 29]",300,132,-1,8,157,10,0.0
basic,4,14,0,0,0,15,"[0, 15]",2,20,"[1, 2, 3, 4, 7, 8, 9, 13, 17, 18, 19, 20, 21, 22, 23, 25, 26, 27, 28, 29]",216.7053423,2812,2680,8,102,10,1.0
basic,4,14,0,0,0,28,"[0, 15, 28]",3,17,"[1, 2, 3, 4, 7, 8, 9, 13, 17, 18, 19, 20, 22, 23, 25, 26, 27]",197.4959696,4735,1923,8,48,10,1.0446007867311968
basic,4,14,0,0,0,17,"[0, 15, 28, 17]",4,14,"[1, 2, 3, 4, 7, 8, 13, 18, 19, 20, 22, 23, 25, 26]",184.0423455,5878,1143,8,39,10,1.0729463354689972
basic,4,14,0,0,0,18,"[0, 15, 28, 17, 18]",5,9,"[1, 2, 4, 7, 8, 19, 23, 25, 26]",119.412631,7657,1779,8,27,10,1.5035901079219378
basic,4,14,0,0,0,8,"[0, 15, 28, 17, 18, 8]",6,8,"[1, 2, 4, 7, 19, 23, 25, 26]",105.8111605,9137,1480,8,18,10,1.4819689987843856
basic,4,14,0,0,0,1,"[0, 15, 28, 17, 18, 8, 1]",7,5,"[7, 19, 23, 25, 26]",82.21031307,11597,2460,4,6,10,1.4084991998385268
basic,4,14,0,0,0,19,"[0, 15, 28, 17, 18, 8, 1, 19]",8,4,"[7, 23, 25, 26]",66.97876686,13041,1444,4,1,10,1.5758713333797987
basic,4,14,0,0,0,25,"[0, 15, 28, 17, 18, 8, 1, 19, 25]",9,2,"[7, 23]",31.1318702,16568,3527,2,0,10,1.6426186864061416
basic,4,14,0,0,1,7,"[0, 15, 28, 17, 18, 8, 1, 19, 25, 7]",10,0,[],11.4341546,17662,1094,1,0,10,1.652323224159132
basic,4,14,0,1,1,7,"[0, 15, 28, 17, 18, 8, 1, 19, 25, 7]",10,0,[],11.4341546,18431,769,1,0,10,1.652323224159132
basic,5,38,0,0,0,0,[0],1,29,"[1, 2, 3, 4, 5, 6, 7, 8, 9, 10, 11, 12, 13, 14, 15, 16, 17, 18, 19, 20, 21, 22, 23, 24, 25, 26, 27, 28, 29]",300,115,-1,33,506,9,0.0
basic,5,38,0,0,0,19,"[0, 19]",2,23,"[3, 4, 5, 6, 7, 8, 9, 11, 13, 14, 15, 16, 17, 18, 20, 22, 23, 24, 25, 26, 27, 28, 29]",219.5015528,3735,3620,6,61,9,1.0
basic,5,38,0,0,0,17,"[0, 19, 17]",3,21,"[3, 4, 5, 6, 7, 9, 11, 13, 14, 15, 16, 18, 20, 22, 23, 24, 25, 26, 27, 28, 29]",198.1239945,5350,1615,6,53,9,1.571793785769489
basic,5,38,0,0,0,20,"[0, 19, 17, 20]",4,17,"[3, 4, 5, 6, 7, 11, 13, 14, 15, 16, 18, 22, 24, 25, 26, 27, 28]",174.3542658,6238,888,6,44,9,2.333182710277297
basic,5,38,0,0,0,4,"[0, 19, 17, 20, 4]",5,10,"[5, 11, 13, 14, 15, 16, 24, 26, 27, 28]",140.4131403,7467,1229,5,22,9,2.276099229646013
basic,5,38,0,0,0,15,"[0, 19, 17, 20, 4, 15]",6,8,"[5, 11, 13, 14, 16, 24, 26, 28]",114.4131403,8628,1161,5,6,9,2.5292671156176403
basic,5,38,0,0,0,11,"[0, 19, 17, 20, 4, 15, 11]",7,2,"[16, 28]",78.01259089,11402,2774,2,0,9,2.778100109749787
basic,5,38,0,0,0,28,"[0, 19, 17, 20, 4, 15, 11, 28]",8,1,[16],50.99407872,12688,1286,1,0,9,2.3316428595723258
basic,5,38,0,0,1,16,"[0, 19, 17, 20, 4, 15, 11, 28, 16]",9,0,[],21.99407872,17113,4425,1,0,9,2.5408012360364265
basic,5,38,0,1,1,16,"[0, 19, 17, 20, 4, 15, 11, 28, 16]",9,0,[],21.99407872,18981,1868,1,0,9,2.5408012360364265
basic,6,21,0,0,0,0,[0],1,29,"[1, 2, 3, 4, 5, 6, 7, 8, 9, 10, 11, 12, 13, 14, 15, 16, 17, 18, 19, 20, 21, 22, 23, 24, 25, 26, 27, 28, 29]",300,115,-1,84,830,9,0.0
basic,6,21,0,0,0,29,"[0, 29]",2,26,"[1, 2, 3, 4, 6, 7, 8, 9, 10, 11, 12, 13, 14, 15, 16, 17, 18, 19, 20, 21, 22, 23, 24, 25, 26, 27]",215.2828235,5508,5393,1,45,9,1.0
basic,6,21,0,0,0,18,"[0, 29, 18]",3,23,"[1, 2, 3, 4, 6, 7, 8, 9, 10, 11, 12, 14, 15, 16, 17, 20, 21, 22, 23, 24, 25, 26, 27]",186.6297259,6926,1418,18,62,8,1.919050852542592
basic,6,21,0,0,0,22,"[0, 29, 18, 22]",4,18,"[2, 4, 6, 7, 10, 11, 12, 14, 15, 16, 17, 20, 21, 23, 24, 25, 26, 27]",160.2289683,8256,1330,3,15,8,1.6998543184089046
basic,6,21,0,0,0,20,"[0, 29, 18, 22, 20]",5,9,"[6, 7, 10, 11, 12, 17, 23, 25, 26]",131.9977799,9131,875,4,5,7,2.0394266644662786
basic,6,21,0,0,0,12,"[0, 29, 18, 22, 20, 12]",6,1,[10],77.8775434,10979,1848,1,0,7,2.000778463630823
basic,6,21,0,0,1,10,"[0, 29, 18, 22, 20, 12, 10]",7,0,[],55.0740349,13408,2429,1,0,7,2.0115807779749084
basic,6,21,0,1,1,10,"[0, 29, 18, 22, 20, 12, 10]",7,0,[],55.0740349,14331,923,1,0,7,2.0115807779749084
basic,7,10,0,0,0,0,[0],1,29,"[1, 2, 3, 4, 5, 6, 7, 8, 9, 10, 11, 12, 13, 14, 15, 16, 17, 18, 19, 20, 21, 22, 23, 24, 25, 26, 27, 28, 29]",300,131,-1,1,100,9,0.0
basic,7,10,0,0,0,13,"[0, 13]",2,25,"[1, 2, 3, 4, 6, 7, 8, 9, 10, 11, 12, 14, 17, 18, 19, 20, 21, 22, 23, 24, 25, 26, 27, 28, 29]",249.4628849,5488,5357,1,79,9,1.0
basic,7,10,0,0,0,19,"[0, 13, 19]",3,12,"[2, 6, 8, 9, 10, 11, 14, 18, 20, 24, 26, 27]",180.5861835,10382,4894,11,79,8,1.0000581961988606
basic,7,10,0,0,0,2,"[0, 13, 19, 2]",4,5,"[11, 14, 20, 26, 27]",136.6771867,12123,1741,3,9,8,1.000456581399483
basic,7,10,0,0,0,14,"[0, 13, 19, 2, 14]",5,4,"[11, 20, 26, 27]",124.5116616,12977,854,3,6,8,1.0972737011325653
basic,7,10,0,0,0,26,"[0, 13, 19, 2, 14, 26]",6,3,"[11, 20, 27]",89.84178999,14705,1728,3,1,8,1.5868342521575007
basic,7,10,0,0,0,20,"[0, 13, 19, 2, 14, 26, 20]",7,2,"[11, 27]",58.06129282,15821,1116,2,0,8,1.9988791745370547
basic,7,10,0,0,1,27,"[0, 13, 19, 2, 14, 26, 20, 27]",8,0,[],12.80645883,19347,3526,1,0,8,1.8442457748164782
basic,7,10,0,1,1,27,"[0, 13, 19, 2, 14, 26, 20, 27]",8,0,[],12.80645883,20581,1234,1,0,8,1.8442457748164782
basic,8,33,0,0,0,0,[0],1,23,"[1, 2, 5, 7, 8, 11, 12, 13, 14, 15, 16, 17, 18, 19, 20, 21, 23, 24, 25, 26, 27, 28, 29]",300,115,-1,5,108,9,0.0
basic,8,33,0,0,0,8,"[0, 8]",2,22,"[1, 2, 5, 7, 11, 12, 13, 14, 15, 16, 17, 18, 19, 20, 21, 23, 24, 25, 26, 27, 28, 29]",265.8679037,4509,4394,5,87,9,1.0
basic,8,33,0,0,0,21,"[0, 8, 21]",3,16,"[2, 5, 7, 11, 13, 14, 16, 17, 18, 19, 20, 24, 26, 27, 28, 29]",166.0430571,5938,1429,5,80,9,1.0670557763739492
basic,8,33,0,0,0,13,"[0, 8, 21, 13]",4,12,"[2, 7, 11, 14, 16, 17, 18, 19, 20, 24, 26, 29]",139.6422995,7123,1185,4,54,9,1.0555103820910288
basic,8,33,0,0,0,19,"[0, 8, 21, 13, 19]",5,10,"[7, 11, 14, 16, 17, 18, 20, 24, 26, 29]",114.1472019,8350,1227,3,19,9,1.1090798607799486
basic,8,33,0,0,0,24,"[0, 8, 21, 13, 19, 24]",6,6,"[7, 14, 16, 18, 26, 29]",72.09960985,9361,1011,2,3,9,1.1193530461391534
basic,8,33,0,0,0,7,"[0, 8, 21, 13, 19, 24, 7]",7,2,"[14, 26]",42.89344611,11752,2391,2,0,9,1.2065014071663551
basic,8,33,0,0,0,14,"[0, 8, 21, 13, 19, 24, 7, 14]",8,1,[26],28.02737737,13710,1958,1,0,9,1.2536495746979057
basic,8,33,0,0,1,26,"[0, 8, 21, 13, 19, 24, 7, 14, 26]",9,0,[],15.37826672,15055,1345,1,0,9,1.2580465331304596
basic,8,33,0,1,1,26,"[0, 8, 21, 13, 19, 24, 7, 14, 26]",9,0,[],15.37826672,16614,1559,1,0,9,1.2580465331304596
basic,9,18,0,0,0,0,[0],1,28,"[1, 2, 3, 4, 5, 6, 7, 8, 9, 10, 11, 12, 13, 14, 16, 17, 18, 19, 20, 21, 22, 23, 24, 25, 26, 27, 28, 29]",300,116,-1,3,136,10,0.0
basic,9,18,0,0,0,28,"[0, 28]",2,16,"[1, 3, 5, 7, 8, 9, 12, 13, 14, 16, 20, 23, 24, 25, 26, 27]",236.4311397,3420,3304,2,19,10,1.0
basic,9,18,0,0,0,7,"[0, 28, 7]",3,15,"[1, 3, 5, 8, 9, 12, 13, 14, 16, 20, 23, 24, 25, 26, 27]",214.4084242,4763,1343,2,17,10,1.4345180696367563
basic,9,18,0,0,0,25,"[0, 28, 7, 25]",4,13,"[1, 3, 5, 8, 9, 12, 13, 14, 16, 20, 23, 26, 27]",186.6055466,7222,2459,2,15,10,1.8896451241781882
basic,9,18,0,0,0,8,"[0, 28, 7, 25, 8]",5,10,"[3, 5, 9, 12, 13, 14, 16, 23, 26, 27]",149.551532,8425,1203,2,10,10,1.590467437592877
basic,9,18,0,0,0,13,"[0, 28, 7, 25, 8, 13]",6,9,"[3, 5, 9, 12, 14, 16, 23, 26, 27]",128.4565089,9588,1163,2,5,10,1.8248274983549797
basic,9,18,0,0,0,14,"[0, 28, 7, 25, 8, 13, 14]",7,7,"[3, 5, 9, 12, 23, 26, 27]",109.4828429,10612,1024,2,3,10,1.6993534956692746
basic,9,18,0,0,0,3,"[0, 28, 7, 25, 8, 13, 14, 3]",8,3,"[5, 12, 27]",79.39962499,12076,1464,2,1,10,1.802637206541468
basic,9,18,0,0,0,5,"[0, 28, 7, 25, 8, 13, 14, 3, 5]",9,1,[12],21.21887216,13844,1768,1,0,10,1.559774889743805
basic,9,18,0,0,1,12,"[0, 28, 7, 25, 8, 13, 14, 3, 5, 12]",10,0,[],9.817117911,15086,1242,1,0,10,1.563993037384447
basic,9,18,0,1,1,12,"[0, 28, 7, 25, 8, 13, 14, 3, 5, 12]",10,0,[],9.817117911,16182,1096,1,0,10,1.563993037384447
basic,10,1,0,0,0,0,[0],1,26,"[1, 2, 4, 5, 7, 8, 9, 10, 11, 12, 13, 14, 15, 16, 17, 18, 19, 20, 21, 22, 23, 24, 25, 26, 28, 29]",300,98,-1,6,74,7,0.0
basic,10,1,0,0,0,20,"[0, 20]",2,13,"[1, 4, 5, 8, 11, 13, 14, 15, 17, 18, 19, 28, 29]",129.961769,4712,4614,2,11,6,1.0
basic,10,1,0,0,0,5,"[0, 20, 5]",3,9,"[1, 4, 8, 11, 13, 17, 18, 19, 29]",108.4908585,5697,985,2,6,6,1.0224915251419384
basic,10,1,0,0,0,18,"[0, 20, 5, 18]",4,4,"[4, 13, 17, 29]",85.66543403,7176,1479,2,3,6,1.064078468417926
basic,10,1,0,0,0,4,"[0, 20, 5, 18, 4]",5,2,"[13, 29]",46.71674984,8767,1591,2,0,6,1.0731955739217967
basic,10,1,0,0,1,13,"[0, 20, 5, 18, 4, 13]",6,0,[],2.332067799,12195,3428,1,0,6,1.0623276828380515
basic,10,1,0,1,1,13,"[0, 20, 5, 18, 4, 13]",6,0,[],2.332067799,13731,1536,1,0,6,1.0623276828380515
basic,11,0,0,0,0,0,[0],1,27,"[2, 3, 4, 5, 6, 7, 8, 9, 10, 11, 12, 13, 14, 15, 16, 17, 19, 20, 21, 22, 23, 24, 25, 26, 27, 28, 29]",300,115,-1,104,1136,9,0.0
basic,11,0,0,0,0,28,"[0, 28]",2,26,"[2, 3, 4, 5, 6, 7, 8, 9, 10, 11, 12, 13, 14, 15, 16, 17, 19, 20, 21, 22, 23, 24, 25, 26, 27, 29]",194.9190788,4205,4090,39,388,9,1.0
basic,11,0,0,0,0,26,"[0, 28, 26]",3,21,"[2, 3, 4, 5, 7, 8, 9, 10, 11, 12, 13, 14, 15, 17, 19, 20, 21, 22, 23, 24, 25]",136.9363227,7467,3262,5,55,9,1.0093388233539051
basic,11,0,0,0,0,4,"[0, 28, 26, 4]",4,16,"[3, 5, 7, 8, 9, 11, 12, 13, 14, 15, 17, 19, 20, 21, 23, 24]",124.8947282,8527,1060,5,33,9,1.1185924093500432
basic,11,0,0,0,0,24,"[0, 28, 26, 4, 24]",5,12,"[3, 5, 7, 8, 9, 11, 12, 15, 17, 19, 20, 23]",113.4929739,10076,1549,5,21,9,1.1179314844344648
basic,11,0,0,0,0,15,"[0, 28, 26, 4, 24, 15]",6,9,"[3, 5, 7, 8, 9, 11, 12, 17, 19]",90.14773885,11397,1321,5,8,9,1.1101585049568639
basic,11,0,0,0,0,7,"[0, 28, 26, 4, 24, 15, 7]",7,4,"[3, 8, 17, 19]",59.08328972,14720,3323,4,2,9,1.1751475399938958
basic,11,0,0,0,0,3,"[0, 28, 26, 4, 24, 15, 7, 3]",8,2,"[8, 19]",35.00010056,15704,984,2,0,9,1.222548489882541
basic,11,0,0,0,1,19,"[0, 28, 26, 4, 24, 15, 7, 3, 19]",9,0,[],2.751069569,18170,2466,1,0,9,1.197407115174519
basic,11,0,0,1,1,19,"[0, 28, 26, 4, 24, 15, 7, 3, 19]",9,0,[],2.751069569,19331,1161,1,0,9,1.197407115174519
basic,12,30,0,0,0,0,[0],1,19,"[3, 4, 5, 7, 9, 11, 16, 17, 18, 19, 20, 21, 22, 24, 25, 26, 27, 28, 29]",300,115,-1,5,41,8,0.0
basic,12,30,0,0,0,27,"[0, 27]",2,10,"[3, 5, 7, 9, 18, 19, 20, 24, 25, 29]",90.59608409,5723,5608,7,22,6,1.0
basic,12,30,0,0,0,3,"[0, 27, 3]",3,8,"[5, 7, 18, 19, 20, 24, 25, 29]",71.49111091,7067,1344,5,9,6,1.0022223300201003
basic,12,30,0,0,0,29,"[0, 27, 3, 29]",4,5,"[5, 7, 18, 19, 20]",52.89003567,8141,1074,2,3,6,1.0149900937654948
basic,12,30,0,0,0,18,"[0, 27, 3, 29, 18]",5,1,[5],33.57682776,9977,1836,1,0,6,1.0907994995031296
basic,12,30,0,0,1,5,"[0, 27, 3, 29, 18, 5]",6,0,[],20.53842295,13257,3280,1,0,6,1.1556882660658163
basic,12,30,0,1,1,5,"[0, 27, 3, 29, 18, 5]",6,0,[],20.53842295,15065,1808,1,0,6,1.1556882660658163
basic,13,31,0,0,0,0,[0],1,27,"[1, 3, 4, 5, 6, 7, 8, 10, 11, 12, 13, 14, 15, 16, 17, 18, 19, 20, 21, 22, 23, 24, 25, 26, 27, 28, 29]",300,116,-1,2,87,10,0.0
basic,13,31,0,0,0,14,"[0, 14]",2,25,"[1, 3, 5, 6, 7, 8, 10, 11, 12, 13, 15, 16, 17, 18, 19, 20, 21, 22, 23, 24, 25, 26, 27, 28, 29]",263.861378,4276,4160,2,59,10,1.0
basic,13,31,0,0,0,27,"[0, 14, 27]",3,22,"[1, 3, 5, 6, 7, 8, 10, 11, 12, 13, 15, 16, 17, 18, 19, 20, 21, 22, 24, 25, 28, 29]",235.6833724,5274,998,1,39,10,1.5881859159302467
basic,13,31,0,0,0,8,"[0, 14, 27, 8]",4,20,"[1, 3, 5, 6, 7, 10, 11, 12, 13, 16, 17, 18, 19, 20, 21, 22, 24, 25, 28, 29]",224.6380114,7104,1830,1,36,10,2.1665048452331277
basic,13,31,0,0,0,18,"[0, 14, 27, 8, 18]",5,15,"[1, 5, 6, 7, 11, 12, 13, 16, 17, 19, 20, 22, 25, 28, 29]",188.7911147,8440,1336,1,26,10,1.7273375741920205
basic,13,31,0,0,0,17,"[0, 14, 27, 8, 18, 17]",6,13,"[1, 5, 6, 7, 11, 12, 13, 16, 19, 20, 22, 25, 28]",159.584951,10370,1930,1,13,10,1.551192427769927
basic,13,31,0,0,0,11,"[0, 14, 27, 8, 18, 17, 11]",7,7,"[5, 12, 16, 19, 22, 25, 28]",118.4753414,11739,1369,1,4,10,2.9650760544203494
basic,13,31,0,0,0,5,"[0, 14, 27, 8, 18, 17, 11, 5]",8,2,"[16, 28]",74.79468207,19092,7353,1,1,10,2.56711965625205
basic,13,31,0,0,0,28,"[0, 14, 27, 8, 18, 17, 11, 5, 28]",9,1,[16],54.57093365,20689,1597,1,0,10,2.2865510762058148
basic,13,31,0,0,1,16,"[0, 14, 27, 8, 18, 17, 11, 5, 28, 16]",10,0,[],20.95546102,22010,1321,1,0,10,2.089356850786318
basic,13,31,0,1,1,16,"[0, 14, 27, 8, 18, 17, 11, 5, 28, 16]",10,0,[],20.95546102,23264,1254,1,0,10,2.089356850786318
basic,14,17,0,0,0,0,[0],1,28,"[1, 2, 3, 4, 5, 6, 7, 8, 9, 10, 11, 12, 13, 14, 15, 16, 17, 18, 19, 20, 22, 23, 24, 25, 26, 27, 28, 29]",300,132,-1,2,73,8,0.0
basic,14,17,0,0,0,19,"[0, 19]",2,9,"[3, 4, 5, 10, 11, 18, 20, 22, 28]",138.1049723,7049,6917,1,8,6,1.0
basic,14,17,0,0,0,5,"[0, 19, 5]",3,5,"[3, 10, 11, 22, 28]",98.81120687,8753,1704,1,5,6,1.1200340368749155
basic,14,17,0,0,0,28,"[0, 19, 5, 28]",4,2,"[3, 11]",60.32744406,11175,2422,1,1,6,1.1548774814009009
basic,14,17,0,0,0,3,"[0, 19, 5, 28, 3]",5,1,[11],26.32744406,14136,2961,1,0,6,1.444690353691831
basic,14,17,0,0,1,11,"[0, 19, 5, 28, 3, 11]",6,0,[],0.154939406,28089,13953,1,0,6,1.4783074152117983
basic,14,17,0,1,1,11,"[0, 19, 5, 28, 3, 11]",6,0,[],0.154939406,29363,1274,1,0,6,1.4783074152117983
basic,15,12,0,0,0,0,[0],1,29,"[1, 2, 3, 4, 5, 6, 7, 8, 9, 10, 11, 12, 13, 14, 15, 16, 17, 18, 19, 20, 21, 22, 23, 24, 25, 26, 27, 28, 29]",300,116,-1,2,32,9,0.0
basic,15,12,0,0,0,22,"[0, 22]",2,22,"[2, 4, 5, 6, 7, 9, 10, 12, 13, 14, 15, 16, 17, 18, 19, 21, 23, 24, 25, 27, 28, 29]",211.9943184,12609,12493,6,42,8,1.0
basic,15,12,0,0,0,16,"[0, 22, 16]",3,12,"[2, 4, 5, 6, 7, 12, 14, 19, 23, 24, 25, 27]",190.9943184,14074,1465,6,24,8,1.2017164145167045
basic,15,12,0,0,0,4,"[0, 22, 16, 4]",4,9,"[2, 6, 7, 12, 14, 19, 24, 25, 27]",156.7890556,15374,1300,6,14,8,1.146531713305579
basic,15,12,0,0,0,12,"[0, 22, 16, 4, 12]",5,4,"[14, 19, 24, 27]",114.5990094,17209,1835,4,3,8,1.1221389456954312
basic,15,12,0,0,0,27,"[0, 22, 16, 4, 12, 27]",6,3,"[14, 19, 24]",90.24741807,18207,998,2,1,8,1.2262878338287035
basic,15,12,0,0,0,14,"[0, 22, 16, 4, 12, 27, 14]",7,1,[24],61.59432051,19774,1567,1,0,8,1.2804562106751427
basic,15,12,0,0,1,24,"[0, 22, 16, 4, 12, 27, 14, 24]",8,0,[],44.38966997,22370,2596,1,0,8,1.4322660007679802
basic,15,12,0,1,1,24,"[0, 22, 16, 4, 12, 27, 14, 24]",8,0,[],44.38966997,24282,1912,1,0,8,1.4322660007679802
basic,16,36,0,0,0,0,[0],1,24,"[2, 4, 5, 6, 7, 8, 9, 10, 12, 13, 14, 15, 16, 17, 18, 19, 20, 22, 23, 25, 26, 27, 28, 29]",300,115,-1,2,200,10,0.0
basic,16,36,0,0,0,12,"[0, 12]",2,23,"[2, 4, 5, 6, 7, 8, 9, 10, 13, 14, 15, 16, 17, 18, 19, 20, 22, 23, 25, 26, 27, 28, 29]",277.7963967,4818,4703,90,804,9,1.0
basic,16,36,0,0,0,9,"[0, 12, 9]",3,14,"[2, 4, 8, 10, 13, 16, 17, 18, 19, 23, 25, 27, 28, 29]",215.4345494,7076,2258,32,191,9,1.224429481246385
basic,16,36,0,0,0,17,"[0, 12, 9, 17]",4,11,"[2, 4, 8, 10, 13, 16, 18, 19, 23, 25, 27]",189.1857399,8285,1209,8,54,9,1.1724571624470872
basic,16,36,0,0,0,19,"[0, 12, 9, 17, 19]",5,8,"[2, 4, 10, 13, 16, 18, 23, 25]",161.2930885,9575,1290,3,14,9,1.7995682634090462
basic,16,36,0,0,0,2,"[0, 12, 9, 17, 19, 2]",6,4,"[10, 13, 16, 25]",124.1716661,12186,2611,2,3,9,1.5569787348204112
basic,16,36,0,0,0,25,"[0, 12, 9, 17, 19, 2, 25]",7,3,"[10, 13, 16]",99.17166613,13485,1299,1,2,9,1.7541097756555504
basic,16,36,0,0,0,13,"[0, 12, 9, 17, 19, 2, 25, 13]",8,1,[10],78.58040585,14921,1436,1,0,9,2.257503926583423
basic,16,36,0,0,1,10,"[0, 12, 9, 17, 19, 2, 25, 13, 10]",9,0,[],2.619889792,17658,2737,1,0,9,1.709815416525762
basic,16,36,0,1,1,10,"[0, 12, 9, 17, 19, 2, 25, 13, 10]",9,0,[],2.619889792,18414,756,1,0,9,1.709815416525762
basic,17,2,0,0,0,0,[0],1,23,"[1, 2, 4, 5, 6, 7, 8, 9, 12, 13, 15, 16, 17, 18, 19, 20, 22, 23, 25, 26, 27, 28, 29]",300,116,-1,70,620,10,0.0
basic,17,2,0,0,0,19,"[0, 19]",2,22,"[1, 2, 4, 5, 6, 7, 8, 9, 12, 13, 15, 16, 17, 18, 20, 22, 23, 25, 26, 27, 28, 29]",210.306076,4034,3918,67,431,10,1.0
basic,17,2,0,0,0,12,"[0, 19, 12]",3,17,"[1, 4, 5, 6, 7, 13, 15, 16, 17, 18, 20, 22, 25, 26, 27, 28, 29]",174.2921898,5305,1271,66,298,10,1.1107635036313153
basic,17,2,0,0,0,5,"[0, 19, 12, 5]",4,11,"[1, 6, 7, 13, 15, 16, 18, 22, 25, 26, 29]",144.7625437,6421,1116,38,136,10,1.0968174771581647
basic,17,2,0,0,0,22,"[0, 19, 12, 5, 22]",5,8,"[1, 6, 7, 13, 15, 18, 26, 29]",131.9562952,9104,2683,20,63,10,1.0889910507461968
basic,17,2,0,0,0,13,"[0, 19, 12, 5, 22, 13]",6,7,"[1, 6, 7, 15, 18, 26, 29]",117.0902265,10104,1000,19,20,10,1.236526217328057
basic,17,2,0,0,0,18,"[0, 19, 12, 5, 22, 13, 18]",7,4,"[7, 15, 26, 29]",81.91921567,11457,1353,10,3,10,1.2128708213409936
basic,17,2,0,0,0,7,"[0, 19, 12, 5, 22, 13, 18, 7]",8,3,"[15, 26, 29]",71.62358553,12664,1207,5,0,10,1.2019811287894737
basic,17,2,0,0,0,26,"[0, 19, 12, 5, 22, 13, 18, 7, 26]",9,2,"[15, 29]",48.82007703,13779,1115,2,0,10,1.1883593342191134
basic,17,2,0,0,1,15,"[0, 19, 12, 5, 22, 13, 18, 7, 26, 15]",10,0,[],24.61264015,14745,966,1,0,10,1.4619750353663825
basic,17,2,0,1,1,15,"[0, 19, 12, 5, 22, 13, 18, 7, 26, 15]",10,0,[],24.61264015,17648,2903,1,0,10,1.4619750353663825
basic,18,25,0,0,0,0,[0],1,28,"[1, 2, 3, 4, 5, 7, 8, 9, 10, 11, 12, 13, 14, 15, 16, 17, 18, 19, 20, 21, 22, 23, 24, 25, 26, 27, 28, 29]",300,116,-1,5,94,10,0.0
basic,18,25,0,0,0,23,"[0, 23]",2,23,"[1, 2, 3, 5, 7, 8, 9, 11, 12, 13, 14, 16, 17, 19, 20, 21, 22, 24, 25, 26, 27, 28, 29]",259.7756293,5292,5176,3,33,10,1.0
basic,18,25,0,0,0,19,"[0, 23, 19]",3,21,"[1, 2, 3, 5, 7, 8, 9, 11, 12, 13, 14, 16, 17, 20, 21, 22, 24, 25, 27, 28, 29]",223.9287326,8208,2916,3,24,10,1.583101227007039
basic,18,25,0,0,0,29,"[0, 23, 19, 29]",4,19,"[1, 2, 3, 5, 7, 8, 9, 11, 12, 13, 14, 16, 17, 20, 21, 22, 24, 25, 28]",207.649912,9136,928,3,17,10,1.474631541426484
basic,18,25,0,0,0,22,"[0, 23, 19, 29, 22]",5,18,"[1, 2, 3, 5, 7, 8, 9, 11, 12, 13, 14, 16, 17, 20, 21, 24, 25, 28]",191.5253965,9980,844,3,14,10,1.4020377754906637
basic,18,25,0,0,0,7,"[0, 23, 19, 29, 22, 7]",6,7,"[3, 8, 9, 11, 13, 24, 28]",115.8814939,11424,1444,3,11,10,1.5709678649326715
basic,18,25,0,0,0,24,"[0, 23, 19, 29, 22, 7, 24]",7,5,"[3, 8, 9, 13, 28]",91.12265712,12401,977,3,7,10,1.486191600033379
basic,18,25,0,0,0,9,"[0, 23, 19, 29, 22, 7, 24, 9]",8,4,"[3, 8, 13, 28]",73.09490075,13538,1137,3,3,10,1.453504870342882
basic,18,25,0,0,0,3,"[0, 23, 19, 29, 22, 7, 24, 9, 3]",9,3,"[8, 13, 28]",42.82940885,14600,1062,3,0,10,1.388955167525479
basic,18,25,0,0,1,28,"[0, 23, 19, 29, 22, 7, 24, 9, 3, 28]",10,0,[],11.52445716,15536,936,1,0,10,1.3331084120212044
basic,18,25,0,1,1,28,"[0, 23, 19, 29, 22, 7, 24, 9, 3, 28]",10,0,[],11.52445716,16931,1395,1,0,10,1.3331084120212044
basic,19,37,0,0,0,0,[0],1,29,"[1, 2, 3, 4, 5, 6, 7, 8, 9, 10, 11, 12, 13, 14, 15, 16, 17, 18, 19, 20, 21, 22, 23, 24, 25, 26, 27, 28, 29]",300,115,-1,6,168,10,0.0
basic,19,37,0,0,0,19,"[0, 19]",2,19,"[1, 2, 4, 5, 6, 7, 9, 10, 11, 15, 17, 18, 20, 21, 22, 25, 26, 28, 29]",185.6627795,5522,5407,25,244,9,1.0
basic,19,37,0,0,0,21,"[0, 19, 21]",3,14,"[1, 2, 4, 7, 10, 11, 15, 17, 18, 20, 22, 25, 26, 29]",144.5531699,7207,1685,10,75,9,1.001632816594558
basic,19,37,0,0,0,15,"[0, 19, 21, 15]",4,9,"[1, 2, 4, 7, 18, 20, 22, 26, 29]",129.5531699,8508,1301,5,32,9,1.0243376499143988
basic,19,37,0,0,0,20,"[0, 19, 21, 15, 20]",5,8,"[1, 2, 4, 7, 18, 22, 26, 29]",112.5531699,9672,1164,5,14,9,1.250507291508492
basic,19,37,0,0,0,1,"[0, 19, 21, 15, 20, 1]",6,6,"[2, 4, 7, 18, 22, 26]",78.31868434,10946,1274,4,4,9,1.4002166443864243
basic,19,37,0,0,0,4,"[0, 19, 21, 15, 20, 1, 4]",7,2,"[2, 22]",60.5986392,12097,1151,2,0,9,1.472939356650523
basic,19,37,0,0,0,2,"[0, 19, 21, 15, 20, 1, 4, 2]",8,1,[22],49.19688495,12879,782,1,0,9,1.6590570350137948
basic,19,37,0,0,1,22,"[0, 19, 21, 15, 20, 1, 4, 2, 22]",9,0,[],21.53825157,14343,1464,1,0,9,1.7098673138592275
basic,19,37,0,1,1,22,"[0, 19, 21, 15, 20, 1, 4, 2, 22]",9,0,[],21.53825157,15348,1005,1,0,9,1.7098673138592275
basic,20,35,0,0,0,0,[0],1,29,"[1, 2, 3, 4, 5, 6, 7, 8, 9, 10, 11, 12, 13, 14, 15, 16, 17, 18, 19, 20, 21, 22, 23, 24, 25, 26, 27, 28, 29]",300,115,-1,5,236,11,0.0
basic,20,35,0,0,0,24,"[0, 24]",2,27,"[1, 2, 4, 5, 6, 7, 8, 9, 10, 11, 12, 13, 14, 15, 16, 17, 18, 19, 20, 21, 22, 23, 25, 26, 27, 28, 29]",268.9838752,2667,2552,49,512,10,1.0
basic,20,35,0,0,0,17,"[0, 24, 17]",3,26,"[1, 2, 4, 5, 6, 7, 8, 9, 10, 11, 12, 13, 14, 15, 16, 18, 19, 20, 21, 22, 23, 25, 26, 27, 28, 29]",257.2791753,3639,972,33,238,10,1.0771477201815276
basic,20,35,0,0,0,1,"[0, 24, 17, 1]",4,25,"[2, 4, 5, 6, 7, 8, 9, 10, 11, 12, 13, 14, 15, 16, 18, 19, 20, 21, 22, 23, 25, 26, 27, 28, 29]",241.4677869,4771,1132,26,151,10,1.2244804141479215
basic,20,35,0,0,0,15,"[0, 24, 17, 1, 15]",5,23,"[2, 4, 5, 6, 7, 8, 9, 10, 11, 12, 14, 16, 18, 19, 20, 21, 22, 23, 25, 26, 27, 28, 29]",218.6204676,5624,853,26,78,10,1.4642196672428094
basic,20,35,0,0,0,23,"[0, 24, 17, 1, 15, 23]",6,11,"[4, 5, 6, 9, 18, 19, 25, 26, 27, 28, 29]",158.1804147,7387,1763,15,12,10,1.3338903684702363
basic,20,35,0,0,0,9,"[0, 24, 17, 1, 15, 23, 9]",7,6,"[5, 6, 18, 19, 25, 27]",120.5373542,8838,1451,6,1,10,1.5964380615155294
basic,20,35,0,0,0,18,"[0, 24, 17, 1, 15, 23, 9, 18]",8,3,"[5, 6, 25]",100.5123698,10387,1549,2,1,10,1.5508488101942703
basic,20,35,0,0,0,6,"[0, 24, 17, 1, 15, 23, 9, 18, 6]",9,1,[25],66.89689722,11512,1125,1,0,10,1.541466044761729
basic,20,35,0,0,1,25,"[0, 24, 17, 1, 15, 23, 9, 18, 6, 25]",10,0,[],42.87607292,12785,1273,1,0,10,1.5877595882523792
basic,20,35,0,1,1,25,"[0, 24, 17, 1, 15, 23, 9, 18, 6, 25]",10,0,[],42.87607292,13615,830,1,0,10,1.5877595882523792
basic,21,7,0,0,0,0,[0],1,29,"[1, 2, 3, 4, 5, 6, 7, 8, 9, 10, 11, 12, 13, 14, 15, 16, 17, 18, 19, 20, 21, 22, 23, 24, 25, 26, 27, 28, 29]",300,115,-1,3,79,9,0.0
basic,21,7,0,0,0,25,"[0, 25]",2,20,"[2, 3, 4, 5, 6, 7, 10, 13, 14, 15, 16, 18, 19, 20, 21, 22, 23, 24, 27, 28]",181.5939191,4473,4358,5,33,8,1.0
basic,21,7,0,0,0,4,"[0, 25, 4]",3,11,"[2, 6, 7, 13, 15, 16, 18, 19, 20, 21, 23]",156.8552853,5436,963,2,14,8,1.0193465608331511
basic,21,7,0,0,0,20,"[0, 25, 4, 20]",4,8,"[2, 6, 7, 13, 15, 16, 18, 19]",137.2084026,6456,1020,1,9,8,1.085904909082323
basic,21,7,0,0,0,18,"[0, 25, 4, 20, 18]",5,7,"[2, 6, 7, 13, 15, 16, 19]",124.4021541,7375,919,1,5,8,1.2264883846453758
basic,21,7,0,0,0,7,"[0, 25, 4, 20, 18, 7]",6,2,"[2, 19]",83.17109789,9264,1889,1,1,8,1.185264473968278
basic,21,7,0,0,0,19,"[0, 25, 4, 20, 18, 7, 19]",7,1,[2],53.76021555,10674,1410,1,0,8,1.3016904288278204
basic,21,7,0,0,1,2,"[0, 25, 4, 20, 18, 7, 19, 2]",8,0,[],23.61058868,11659,985,1,0,8,1.3168868000947171
basic,21,7,0,1,1,2,"[0, 25, 4, 20, 18, 7, 19, 2]",8,0,[],23.61058868,13281,1622,1,0,8,1.3168868000947171
basic,22,9,0,0,0,0,[0],1,27,"[1, 3, 4, 5, 6, 7, 8, 9, 10, 11, 13, 14, 15, 16, 17, 18, 19, 20, 21, 22, 23, 24, 25, 26, 27, 28, 29]",300,115,-1,2,182,10,0.0
basic,22,9,0,0,0,9,"[0, 9]",2,26,"[1, 3, 4, 5, 6, 7, 8, 10, 11, 13, 14, 15, 16, 17, 18, 19, 20, 21, 22, 23, 24, 25, 26, 27, 28, 29]",225.5352432,5392,5277,2,101,9,1.0
basic,22,9,0,0,0,8,"[0, 9, 8]",3,20,"[3, 4, 5, 7, 10, 11, 13, 15, 16, 17, 18, 19, 20, 21, 22, 23, 25, 26, 27, 28]",183.8099511,8527,3135,10,90,8,1.8217067283123436
basic,22,9,0,0,0,28,"[0, 9, 8, 28]",4,18,"[3, 4, 5, 7, 10, 11, 15, 16, 17, 18, 19, 20, 21, 22, 23, 25, 26, 27]",172.9932973,9273,746,5,46,8,1.7099174689793413
basic,22,9,0,0,0,26,"[0, 9, 8, 28, 26]",5,11,"[3, 5, 10, 15, 16, 18, 19, 20, 21, 23, 25]",128.216071,10472,1199,6,7,7,1.4704424258720876
basic,22,9,0,0,0,18,"[0, 9, 8, 28, 26, 18]",6,3,"[5, 15, 19]",67.33914594,11514,1042,3,0,7,1.335060423947915
basic,22,9,0,0,1,19,"[0, 9, 8, 28, 26, 18, 19]",7,0,[],11.01863458,15928,4414,1,0,7,1.6976010481835324
basic,22,9,0,1,1,19,"[0, 9, 8, 28, 26, 18, 19]",7,0,[],11.01863458,18931,3003,1,0,7,1.6976010481835324
undo,23,25,0,0,0,0,[0],1,28,"[1, 2, 3, 4, 5, 7, 8, 9, 10, 11, 12, 13, 14, 15, 16, 17, 18, 19, 20, 21, 22, 23, 24, 25, 26, 27, 28, 29]",300,149,-1,5,94,10,0.0
undo,23,25,0,0,0,19,"[0, 19]",2,27,"[1, 2, 3, 4, 5, 7, 8, 9, 10, 11, 12, 13, 14, 15, 16, 17, 18, 20, 21, 22, 23, 24, 25, 26, 27, 28, 29]",251.9479449,5940,5791,2,30,10,1.0
undo,23,25,0,0,0,29,"[0, 19, 29]",3,26,"[1, 2, 3, 4, 5, 7, 8, 9, 10, 11, 12, 13, 14, 15, 16, 17, 18, 20, 21, 22, 23, 24, 25, 26, 27, 28]",235.6691243,7751,1811,2,22,10,1.0272252084351727
undo,23,25,0,0,0,22,"[0, 19, 29, 22]",4,24,"[1, 2, 3, 4, 5, 7, 8, 9, 11, 12, 13, 14, 15, 16, 17, 18, 20, 21, 23, 24, 25, 26, 27, 28]",219.5446088,8994,1243,2,17,10,1.03988854593305
undo,23,25,0,0,0,7,"[0, 19, 29, 22, 7]",5,10,"[1, 3, 5, 8, 9, 11, 13, 23, 24, 28]",143.9007062,11185,2191,2,14,10,1.3318974800137366
undo,23,25,0,0,0,24,"[0, 19, 29, 22, 7, 24]",6,7,"[3, 8, 9, 11, 13, 23, 28]",119.1418694,12332,1147,2,9,10,1.2868309735722725
undo,23,25,0,0,0,9,"[0, 19, 29, 22, 7, 24, 9]",7,4,"[3, 8, 13, 28]",101.114113,13452,1120,2,7,10,1.2740198715343065
undo,23,25,0,0,0,3,"[0, 19, 29, 22, 7, 24, 9, 3]",8,3,"[8, 13, 28]",70.84862112,15257,1805,2,1,10,1.2376259292234586
undo,23,25,0,0,0,28,"[0, 19, 29, 22, 7, 24, 9, 3, 28]",9,1,[13],39.54366943,16550,1293,1,0,10,1.203625519961748
undo,23,25,0,0,1,13,"[0, 19, 29, 22, 7, 24, 9, 3, 28, 13]",10,0,[],5.309183897,18744,2194,1,0,10,1.4620578920005771
undo,23,25,0,1,1,13,"[0, 19, 29, 22, 7, 24, 9, 3, 28, 13]",10,0,[],5.309183897,19831,1087,1,0,10,1.4620578920005771
undo,24,16,0,0,0,0,[0],1,29,"[1, 2, 3, 4, 5, 6, 7, 8, 9, 10, 11, 12, 13, 14, 15, 16, 17, 18, 19, 20, 21, 22, 23, 24, 25, 26, 27, 28, 29]",300,114,-1,13,161,9,0.0
undo,24,16,0,0,0,17,"[0, 17]",2,27,"[1, 2, 3, 4, 5, 7, 8, 9, 10, 11, 12, 13, 14, 15, 16, 18, 19, 20, 21, 22, 23, 24, 25, 26, 27, 28, 29]",241.3058776,4065,3951,2,58,9,1.0
undo,24,16,0,0,0,16,"[0, 17, 16]",3,26,"[1, 2, 3, 4, 5, 7, 8, 9, 10, 11, 12, 13, 14, 15, 18, 19, 20, 21, 22, 23, 24, 25, 26, 27, 28, 29]",212.9862731,6586,2521,2,52,9,1.0529535521792848
undo,24,16,0,0,0,8,"[0, 17, 16, 8]",4,19,"[2, 3, 4, 5, 9, 12, 13, 14, 15, 19, 20, 21, 22, 23, 25, 26, 27, 28, 29]",164.6127266,9259,2673,2,38,9,1.0915134501573105
undo,24,16,0,0,0,20,"[0, 17, 16, 8, 20]",5,10,"[3, 4, 5, 9, 12, 13, 15, 19, 21, 25]",106.8372993,10934,1675,1,15,9,1.067523143001942
undo,24,16,0,0,0,25,"[0, 17, 16, 8, 20, 25]",6,7,"[3, 4, 5, 9, 12, 13, 15]",94.18818869,12651,1717,1,9,9,1.1170093326933646
undo,24,16,0,0,0,9,"[0, 17, 16, 8, 20, 25, 9]",7,5,"[3, 4, 5, 13, 15]",81.38194021,13617,966,1,4,9,1.1095076562662525
undo,24,16,0,0,0,15,"[0, 17, 16, 8, 20, 25, 9, 15]",8,1,[5],42.48463953,14885,1268,1,0,9,1.213831159678775
undo,24,16,0,0,1,5,"[0, 17, 16, 8, 20, 25, 9, 15, 5]",9,0,[],13.0567616,19058,4173,1,0,9,1.5171779607523481
undo,24,16,0,1,1,5,"[0, 17, 16, 8, 20, 25, 9, 15, 5]",9,0,[],13.0567616,20913,1855,1,0,9,1.5171779607523481
undo,25,36,0,0,0,0,[0],1,24,"[2, 4, 5, 6, 7, 8, 9, 10, 12, 13, 14, 15, 16, 17, 18, 19, 20, 22, 23, 25, 26, 27, 28, 29]",300,115,-1,2,200,10,0.0
undo,25,36,0,0,0,12,"[0, 12]",2,23,"[2, 4, 5, 6, 7, 8, 9, 10, 13, 14, 15, 16, 17, 18, 19, 20, 22, 23, 25, 26, 27, 28, 29]",277.7963967,5192,5077,90,804,9,1.0
undo,25,36,0,0,0,16,"[0, 12, 16]",3,10,"[2, 9, 10, 13, 17, 18, 19, 23, 25, 27]",171.6267212,7822,2630,4,38,9,1.202695220335868
undo,25,36,0,0,0,9,"[0, 12, 16, 9]",4,7,"[2, 13, 17, 18, 19, 23, 25]",124.3297868,9262,1440,11,17,8,2.5435421498116852
undo,25,36,0,0,0,17,"[0, 12, 16, 9, 17]",5,4,"[2, 13, 19, 25]",98.08097731,10719,1457,4,5,8,2.1363803194062605
undo,25,36,0,0,0,19,"[0, 12, 16, 9, 17, 19]",6,3,"[2, 13, 25]",70.18832595,11797,1078,3,0,8,2.981551464948337
undo,25,36,0,0,0,13,"[0, 12, 16, 9, 17, 19, 13]",7,1,[25],26.77173926,12773,976,1,0,8,2.7857239728126806
undo,25,36,0,0,1,25,"[0, 12, 16, 9, 17, 19, 13, 25]",8,0,[],6.180478974,13758,985,1,0,8,2.56632958197901
undo,25,36,1,0,0,13,"[0, 12, 16, 9, 17, 19, 13]",7,1,[25],26.77173926,17148,3390,1,0,8,2.7857239728126806
undo,25,36,1,0,0,19,"[0, 12, 16, 9, 17, 19]",6,3,"[2, 13, 25]",70.18832595,17397,249,3,0,8,2.981551464948337
undo,25,36,0,0,0,2,"[0, 12, 16, 9, 17, 19, 2]",7,1,[25],33.06690356,20502,3105,1,0,8,2.3637211680184493
undo,25,36,0,0,1,25,"[0, 12, 16, 9, 17, 19, 2, 25]",8,0,[],8.066903562,21552,1050,1,0,8,2.549852844124929
undo,25,36,1,0,0,2,"[0, 12, 16, 9, 17, 19, 2]",7,1,[25],33.06690356,24897,3345,1,0,8,2.3637211680184493
undo,25,36,1,0,0,19,"[0, 12, 16, 9, 17, 19]",6,3,"[2, 13, 25]",70.18832595,25331,434,3,0,8,2.981551464948337
undo,25,36,1,0,0,17,"[0, 12, 16, 9, 17]",5,4,"[2, 13, 19, 25]",98.08097731,28014,2683,4,5,8,2.1363803194062605
undo,25,36,0,0,0,2,"[0, 12, 16, 9, 17, 2]",6,3,"[13, 19, 25]",56.84992105,30401,2387,1,2,8,2.153120000047126
undo,25,36,0,0,0,25,"[0, 12, 16, 9, 17, 2, 25]",7,1,[13],31.84992105,32820,2419,1,0,8,2.3421230747922186
undo,25,36,0,0,1,13,"[0, 12, 16, 9, 17, 2, 25, 13]",8,0,[],11.25866077,34182,1362,1,0,8,2.9438889976335965
undo,25,36,0,1,1,13,"[0, 12, 16, 9, 17, 2, 25, 13]",8,0,[],11.25866077,35380,1198,1,0,8,2.9438889976335965
undo,26,21,0,0,0,0,[0],1,29,"[1, 2, 3, 4, 5, 6, 7, 8, 9, 10, 11, 12, 13, 14, 15, 16, 17, 18, 19, 20, 21, 22, 23, 24, 25, 26, 27, 28, 29]",300,115,-1,84,830,9,0.0
undo,26,21,0,0,0,21,"[0, 21]",2,22,"[1, 3, 4, 6, 8, 9, 10, 11, 12, 14, 15, 16, 17, 18, 20, 22, 23, 24, 25, 26, 27, 29]",210.1111798,3370,3255,1,69,9,1.0
undo,26,21,0,0,0,14,"[0, 21, 14]",3,15,"[1, 4, 6, 8, 9, 15, 16, 17, 18, 20, 22, 23, 24, 25, 29]",184.4986828,4752,1382,35,96,8,1.0083702391721483
undo,26,21,0,0,0,4,"[0, 21, 14, 4]",4,13,"[1, 8, 9, 15, 16, 17, 18, 20, 22, 23, 24, 25, 29]",170.3565472,6066,1314,20,39,8,1.0135821167776475
undo,26,21,0,0,0,16,"[0, 21, 14, 4, 16]",5,7,"[8, 15, 17, 23, 24, 25, 29]",125.758341,7692,1626,4,6,8,1.0675217597413178
undo,26,21,0,0,0,8,"[0, 21, 14, 4, 16, 8]",6,3,"[15, 23, 24]",107.1572657,8595,903,3,1,8,1.0643903127717425
undo,26,21,0,0,0,15,"[0, 21, 14, 4, 16, 8, 15]",7,2,"[23, 24]",82.15726573,9874,1279,2,0,8,1.29402645910376
undo,26,21,0,0,1,24,"[0, 21, 14, 4, 16, 8, 15, 24]",8,0,[],36.4516862,12136,2262,1,0,8,1.3251667405154008
undo,26,21,1,0,0,15,"[0, 21, 14, 4, 16, 8, 15]",7,2,"[23, 24]",82.15726573,13547,1411,2,0,8,1.29402645910376
undo,26,21,1,0,0,8,"[0, 21, 14, 4, 16, 8]",6,3,"[15, 23, 24]",107.1572657,13731,184,3,1,8,1.0643903127717425
undo,26,21,1,0,0,16,"[0, 21, 14, 4, 16]",5,7,"[8, 15, 17, 23, 24, 25, 29]",125.758341,13930,199,4,6,8,1.0675217597413178
undo,26,21,1,0,0,4,"[0, 21, 14, 4]",4,13,"[1, 8, 9, 15, 16, 17, 18, 20, 22, 23, 24, 25, 29]",170.3565472,14147,217,20,39,8,1.0135821167776475
undo,26,21,1,0,0,14,"[0, 21, 14]",3,15,"[1, 4, 6, 8, 9, 15, 16, 17, 18, 20, 22, 23, 24, 25, 29]",184.4986828,14347,200,35,96,8,1.0083702391721483
undo,26,21,1,0,0,21,"[0, 21]",2,22,"[1, 3, 4, 6, 8, 9, 10, 11, 12, 14, 15, 16, 17, 18, 20, 22, 23, 24, 25, 26, 27, 29]",210.1111798,14547,200,1,69,9,1.0
undo,26,21,1,0,0,0,[0],1,29,"[1, 2, 3, 4, 5, 6, 7, 8, 9, 10, 11, 12, 13, 14, 15, 16, 17, 18, 19, 20, 21, 22, 23, 24, 25, 26, 27, 28, 29]",300,14947,400,84,830,9,0.0
undo,26,21,0,0,0,25,"[0, 25]",2,26,"[1, 2, 3, 4, 5, 6, 7, 8, 9, 10, 11, 12, 13, 14, 15, 16, 17, 18, 20, 21, 22, 23, 24, 26, 27, 29]",240.1836143,17540,2593,30,238,9,1.0
undo,26,21,0,0,0,23,"[0, 25, 23]",3,21,"[1, 2, 4, 6, 7, 8, 9, 10, 11, 12, 14, 15, 16, 17, 18, 20, 21, 22, 24, 27, 29]",196.8592562,18615,1075,14,80,9,1.0416131642057598
undo,26,21,0,0,0,21,"[0, 25, 23, 21]",4,14,"[1, 4, 6, 8, 9, 14, 15, 16, 17, 18, 20, 22, 24, 29]",167.2450705,19634,1019,10,25,9,1.4768792067751173
undo,26,21,0,0,0,14,"[0, 25, 23, 21, 14]",5,10,"[4, 8, 9, 15, 16, 17, 18, 22, 24, 29]",141.6325735,20371,737,8,13,9,1.3826076066332742
undo,26,21,0,0,0,16,"[0, 25, 23, 21, 14, 16]",6,4,"[4, 8, 15, 24]",83.93508655,22917,2546,5,2,8,1.3237591856520345
undo,26,21,0,0,0,8,"[0, 25, 23, 21, 14, 16, 8]",7,3,"[4, 15, 24]",65.33401132,24140,1223,3,0,8,1.2952326464082673
undo,26,21,0,0,1,15,"[0, 25, 23, 21, 14, 16, 8, 15]",8,0,[],40.33401132,26273,2133,1,0,8,1.5424643883912699
undo,26,21,0,1,1,15,"[0, 25, 23, 21, 14, 16, 8, 15]",8,0,[],40.33401132,28646,2373,1,0,8,1.5424643883912699
undo,27,20,0,0,0,0,[0],1,21,"[1, 2, 3, 4, 5, 6, 7, 8, 9, 12, 17, 18, 20, 21, 22, 23, 25, 26, 27, 28, 29]",300,115,-1,1,9,9,0.0
undo,27,20,0,0,0,12,"[0, 12]",2,20,"[1, 2, 3, 4, 5, 6, 7, 8, 9, 17, 18, 20, 21, 22, 23, 25, 26, 27, 28, 29]",271.5570747,5259,5144,1,8,9,1.0
undo,27,20,0,0,0,1,"[0, 12, 1]",3,12,"[3, 4, 5, 6, 8, 9, 20, 21, 23, 27, 28, 29]",189.5692707,7777,2518,1,6,9,1.0757997779162911
undo,27,20,0,0,0,5,"[0, 12, 1, 5]",4,10,"[4, 6, 8, 9, 20, 21, 23, 27, 28, 29]",152.8950291,10390,2613,1,5,9,1.1708231454516806
undo,27,20,0,0,0,21,"[0, 12, 1, 5, 21]",5,8,"[4, 6, 8, 9, 20, 23, 27, 28]",107.8950291,12577,2187,1,4,9,1.126197336199212
undo,27,20,0,0,0,8,"[0, 12, 1, 5, 21, 8]",6,5,"[6, 9, 23, 27, 28]",90.43077988,13650,1073,1,3,9,1.140007470699913
undo,27,20,0,0,0,23,"[0, 12, 1, 5, 21, 8, 23]",7,2,"[6, 9]",45.74297394,15551,1901,1,1,9,1.1162257896627588
undo,27,20,0,0,0,9,"[0, 12, 1, 5, 21, 8, 23, 9]",8,1,[6],26.53360123,17240,1689,1,0,9,1.1086880559449597
undo,27,20,0,0,1,6,"[0, 12, 1, 5, 21, 8, 23, 9, 6]",9,0,[],3.511872362,18120,880,1,0,9,1.1186240265999328
undo,27,20,0,1,1,6,"[0, 12, 1, 5, 21, 8, 23, 9, 6]",9,0,[],3.511872362,18914,794,1,0,9,1.1186240265999328
undo,28,29,0,0,0,0,[0],1,29,"[1, 2, 3, 4, 5, 6, 7, 8, 9, 10, 11, 12, 13, 14, 15, 16, 17, 18, 19, 20, 21, 22, 23, 24, 25, 26, 27, 28, 29]",300,114,-1,1,78,9,0.0
undo,28,29,0,0,0,14,"[0, 14]",2,22,"[1, 3, 4, 5, 6, 7, 9, 10, 11, 12, 13, 15, 16, 17, 21, 22, 23, 25, 26, 27, 28, 29]",209.490332,6937,6823,21,110,8,1.0
undo,28,29,0,0,0,13,"[0, 14, 13]",3,18,"[1, 4, 5, 6, 7, 9, 10, 12, 15, 16, 17, 21, 22, 25, 26, 27, 28, 29]",191.4625756,8034,1097,20,75,8,1.0027006502223275
undo,28,29,0,0,0,5,"[0, 14, 13, 5]",4,15,"[1, 4, 6, 7, 9, 12, 15, 17, 21, 22, 25, 26, 27, 28, 29]",165.7526554,9116,1082,19,49,8,1.0803937325657265
undo,28,29,0,0,0,4,"[0, 14, 13, 5, 4]",5,5,"[7, 9, 12, 21, 22]",113.8585324,11389,2273,5,5,8,1.0589046774357636
undo,28,29,0,0,0,9,"[0, 14, 13, 5, 4, 9]",6,3,"[7, 12, 21]",72.82196333,12920,1531,2,1,8,1.2033484462540056
undo,28,29,0,0,0,7,"[0, 14, 13, 5, 4, 9, 7]",7,1,[12],43.75307962,14558,1638,1,0,8,1.5581999677939193
undo,28,29,0,0,1,12,"[0, 14, 13, 5, 4, 9, 7, 12]",8,0,[],30.15160911,15673,1115,1,0,8,1.747955919287298
undo,28,29,1,0,0,7,"[0, 14, 13, 5, 4, 9, 7]",7,1,[12],43.75307962,17930,2257,1,0,8,1.5581999677939193
undo,28,29,1,0,0,9,"[0, 14, 13, 5, 4, 9]",6,3,"[7, 12, 21]",72.82196333,18114,184,2,1,8,1.2033484462540056
undo,28,29,1,0,0,4,"[0, 14, 13, 5, 4]",5,5,"[7, 9, 12, 21, 22]",113.8585324,18297,183,5,5,8,1.0589046774357636
undo,28,29,1,0,0,5,"[0, 14, 13, 5]",4,15,"[1, 4, 6, 7, 9, 12, 15, 17, 21, 22, 25, 26, 27, 28, 29]",165.7526554,18480,183,19,49,8,1.0803937325657265
undo,28,29,1,0,0,13,"[0, 14, 13]",3,18,"[1, 4, 5, 6, 7, 9, 10, 12, 15, 16, 17, 21, 22, 25, 26, 27, 28, 29]",191.4625756,18730,250,20,75,8,1.0027006502223275
undo,28,29,1,0,0,14,"[0, 14]",2,22,"[1, 3, 4, 5, 6, 7, 9, 10, 11, 12, 13, 15, 16, 17, 21, 22, 23, 25, 26, 27, 28, 29]",209.490332,19830,1100,21,110,8,1.0
undo,28,29,1,0,0,0,[0],1,29,"[1, 2, 3, 4, 5, 6, 7, 8, 9, 10, 11, 12, 13, 14, 15, 16, 17, 18, 19, 20, 21, 22, 23, 24, 25, 26, 27, 28, 29]",300,21130,1300,1,78,9,0.0
undo,28,29,0,0,0,6,"[0, 6]",2,28,"[1, 2, 3, 4, 5, 7, 8, 9, 10, 11, 12, 13, 14, 15, 16, 17, 18, 19, 20, 21, 22, 23, 24, 25, 26, 27, 28, 29]",228.4108947,24266,3136,1,25,9,1.0
undo,28,29,0,0,0,28,"[0, 6, 28]",3,24,"[1, 3, 4, 5, 7, 9, 10, 11, 12, 13, 14, 15, 16, 17, 18, 20, 21, 22, 23, 24, 25, 26, 27, 29]",187.1798384,25358,1092,1,22,9,1.162106788166845
undo,28,29,0,0,0,27,"[0, 6, 28, 27]",4,19,"[1, 3, 4, 5, 7, 9, 10, 11, 12, 13, 14, 15, 16, 21, 22, 23, 25, 26, 29]",166.6615539,26275,917,1,21,9,1.2307173895439045
undo,28,29,0,0,0,22,"[0, 6, 28, 27, 22]",5,13,"[1, 3, 4, 5, 7, 9, 12, 13, 14, 15, 21, 26, 29]",133.4200136,27769,1494,1,19,9,1.4241767805149903
undo,28,29,0,0,0,12,"[0, 6, 28, 27, 22, 12]",6,8,"[4, 5, 7, 9, 13, 14, 21, 26]",95.4726817,29524,1755,1,6,9,1.3248355326460857
undo,28,29,0,0,0,7,"[0, 6, 28, 27, 22, 12, 7]",7,4,"[4, 5, 9, 21]",81.87121119,30518,994,1,3,9,1.3264091962339806
undo,28,29,0,0,0,9,"[0, 6, 28, 27, 22, 12, 7, 9]",8,1,[4],52.80232748,31761,1243,1,0,9,1.309391257644539
undo,28,29,0,0,1,4,"[0, 6, 28, 27, 22, 12, 7, 9, 4]",9,0,[],11.76575843,33267,1506,1,0,9,1.6396807789841599
undo,28,29,0,1,1,4,"[0, 6, 28, 27, 22, 12, 7, 9, 4]",9,0,[],11.76575843,34296,1029,1,0,9,1.6396807789841599
undo,29,18,0,0,0,0,[0],1,28,"[1, 2, 3, 4, 5, 6, 7, 8, 9, 10, 11, 12, 13, 14, 16, 17, 18, 19, 20, 21, 22, 23, 24, 25, 26, 27, 28, 29]",300,115,-1,3,136,10,0.0
undo,29,18,0,0,0,28,"[0, 28]",2,16,"[1, 3, 5, 7, 8, 9, 12, 13, 14, 16, 20, 23, 24, 25, 26, 27]",236.4311397,2458,2343,2,19,10,1.0
undo,29,18,0,0,0,7,"[0, 28, 7]",3,15,"[1, 3, 5, 8, 9, 12, 13, 14, 16, 20, 23, 24, 25, 26, 27]",214.4084242,3603,1145,2,17,10,1.4345180696367563
undo,29,18,0,0,0,25,"[0, 28, 7, 25]",4,13,"[1, 3, 5, 8, 9, 12, 13, 14, 16, 20, 23, 26, 27]",186.6055466,4563,960,2,15,10,1.8896451241781882
undo,29,18,0,0,0,8,"[0, 28, 7, 25, 8]",5,10,"[3, 5, 9, 12, 13, 14, 16, 23, 26, 27]",149.551532,5542,979,2,10,10,1.590467437592877
undo,29,18,0,0,0,13,"[0, 28, 7, 25, 8, 13]",6,9,"[3, 5, 9, 12, 14, 16, 23, 26, 27]",128.4565089,6939,1397,2,5,10,1.8248274983549797
undo,29,18,0,0,0,14,"[0, 28, 7, 25, 8, 13, 14]",7,7,"[3, 5, 9, 12, 23, 26, 27]",109.4828429,8614,1675,2,3,10,1.6993534956692746
undo,29,18,0,0,0,3,"[0, 28, 7, 25, 8, 13, 14, 3]",8,3,"[5, 12, 27]",79.39962499,9939,1325,2,1,10,1.802637206541468
undo,29,18,0,0,0,5,"[0, 28, 7, 25, 8, 13, 14, 3, 5]",9,1,[12],21.21887216,11069,1130,1,0,10,1.559774889743805
undo,29,18,0,0,1,12,"[0, 28, 7, 25, 8, 13, 14, 3, 5, 12]",10,0,[],9.817117911,11978,909,1,0,10,1.563993037384447
undo,29,18,0,1,1,12,"[0, 28, 7, 25, 8, 13, 14, 3, 5, 12]",10,0,[],9.817117911,12781,803,1,0,10,1.563993037384447
undo,30,38,0,0,0,0,[0],1,29,"[1, 2, 3, 4, 5, 6, 7, 8, 9, 10, 11, 12, 13, 14, 15, 16, 17, 18, 19, 20, 21, 22, 23, 24, 25, 26, 27, 28, 29]",300,115,-1,33,506,9,0.0
undo,30,38,0,0,0,19,"[0, 19]",2,23,"[3, 4, 5, 6, 7, 8, 9, 11, 13, 14, 15, 16, 17, 18, 20, 22, 23, 24, 25, 26, 27, 28, 29]",219.5015528,2594,2479,6,61,9,1.0
undo,30,38,0,0,0,17,"[0, 19, 17]",3,21,"[3, 4, 5, 6, 7, 9, 11, 13, 14, 15, 16, 18, 20, 22, 23, 24, 25, 26, 27, 28, 29]",198.1239945,4757,2163,6,53,9,1.571793785769489
undo,30,38,0,0,0,20,"[0, 19, 17, 20]",4,17,"[3, 4, 5, 6, 7, 11, 13, 14, 15, 16, 18, 22, 24, 25, 26, 27, 28]",174.3542658,7512,2755,6,44,9,2.333182710277297
undo,30,38,0,0,0,4,"[0, 19, 17, 20, 4]",5,10,"[5, 11, 13, 14, 15, 16, 24, 26, 27, 28]",140.4131403,8685,1173,5,22,9,2.276099229646013
undo,30,38,0,0,0,15,"[0, 19, 17, 20, 4, 15]",6,8,"[5, 11, 13, 14, 16, 24, 26, 28]",114.4131403,9683,998,5,6,9,2.5292671156176403
undo,30,38,0,0,0,16,"[0, 19, 17, 20, 4, 15, 16]",7,2,"[11, 28]",72.79583625,11144,1461,2,0,9,2.0765047644693917
undo,30,38,0,0,0,28,"[0, 19, 17, 20, 4, 15, 16, 28]",8,1,[11],43.79583625,12758,1614,1,0,9,2.3990457975039625
undo,30,38,0,0,1,11,"[0, 19, 17, 20, 4, 15, 16, 28, 11]",9,0,[],16.77732407,13853,1095,1,0,9,3.5444395258240657
undo,30,38,1,0,0,28,"[0, 19, 17, 20, 4, 15, 16, 28]",8,1,[11],43.79583625,15797,1944,1,0,9,2.3990457975039625
undo,30,38,1,0,0,16,"[0, 19, 17, 20, 4, 15, 16]",7,2,"[11, 28]",72.79583625,15981,184,2,0,9,2.0765047644693917
undo,30,38,1,0,0,15,"[0, 19, 17, 20, 4, 15]",6,8,"[5, 11, 13, 14, 16, 24, 26, 28]",114.4131403,16131,150,5,6,9,2.5292671156176403
undo,30,38,1,0,0,4,"[0, 19, 17, 20, 4]",5,10,"[5, 11, 13, 14, 15, 16, 24, 26, 27, 28]",140.4131403,16314,183,5,22,9,2.276099229646013
undo,30,38,1,0,0,20,"[0, 19, 17, 20]",4,17,"[3, 4, 5, 6, 7, 11, 13, 14, 15, 16, 18, 22, 24, 25, 26, 27, 28]",174.3542658,16497,183,6,44,9,2.333182710277297
undo,30,38,1,0,0,17,"[0, 19, 17]",3,21,"[3, 4, 5, 6, 7, 9, 11, 13, 14, 15, 16, 18, 20, 22, 23, 24, 25, 26, 27, 28, 29]",198.1239945,17047,550,6,53,9,1.571793785769489
undo,30,38,0,0,0,20,"[0, 19, 17, 20]",4,17,"[3, 4, 5, 6, 7, 11, 13, 14, 15, 16, 18, 22, 24, 25, 26, 27, 28]",174.3542658,19372,2325,6,44,9,2.333182710277297
undo,30,38,0,0,0,13,"[0, 19, 17, 20, 13]",5,9,"[4, 11, 15, 16, 18, 24, 26, 27, 28]",125.0998244,20304,932,1,11,9,1.7893595974504246
undo,30,38,0,0,0,4,"[0, 19, 17, 20, 13, 4]",6,6,"[11, 15, 16, 24, 26, 28]",93.69918748,21050,746,1,6,9,2.942354535547757
undo,30,38,0,0,0,15,"[0, 19, 17, 20, 13, 4, 15]",7,4,"[11, 16, 26, 28]",67.69918748,21738,688,1,3,9,3.165907365359093
undo,30,38,0,0,1,16,"[0, 19, 17, 20, 13, 4, 15, 16]",8,0,[],26.08188338,23243,1505,1,0,8,2.5034412435406455
undo,30,38,1,0,0,15,"[0, 19, 17, 20, 13, 4, 15]",7,4,"[11, 16, 26, 28]",67.69918748,27647,4404,1,3,9,3.165907365359093
undo,30,38,1,0,0,4,"[0, 19, 17, 20, 13, 4]",6,6,"[11, 15, 16, 24, 26, 28]",93.69918748,27814,167,1,6,9,2.942354535547757
undo,30,38,1,0,0,13,"[0, 19, 17, 20, 13]",5,9,"[4, 11, 15, 16, 18, 24, 26, 27, 28]",125.0998244,27981,167,1,11,9,1.7893595974504246
undo,30,38,1,0,0,20,"[0, 19, 17, 20]",4,17,"[3, 4, 5, 6, 7, 11, 13, 14, 15, 16, 18, 22, 24, 25, 26, 27, 28]",174.3542658,28314,333,6,44,9,2.333182710277297
undo,30,38,0,0,0,4,"[0, 19, 17, 20, 4]",5,10,"[5, 11, 13, 14, 15, 16, 24, 26, 27, 28]",140.4131403,29733,1419,5,22,9,2.276099229646013
undo,30,38,0,0,0,15,"[0, 19, 17, 20, 4, 15]",6,8,"[5, 11, 13, 14, 16, 24, 26, 28]",114.4131403,30498,765,5,6,9,2.5292671156176403
undo,30,38,0,0,0,16,"[0, 19, 17, 20, 4, 15, 16]",7,2,"[11, 28]",72.79583625,32633,2135,2,0,9,2.0765047644693917
undo,30,38,0,0,0,28,"[0, 19, 17, 20, 4, 15, 16, 28]",8,1,[11],43.79583625,36001,3368,1,0,9,2.3990457975039625
undo,30,38,0,0,1,11,"[0, 19, 17, 20, 4, 15, 16, 28, 11]",9,0,[],16.77732407,38081,2080,1,0,9,3.5444395258240657
undo,30,38,0,1,1,11,"[0, 19, 17, 20, 4, 15, 16, 28, 11]",9,0,[],16.77732407,38930,849,1,0,9,3.5444395258240657
undo,31,8,0,0,0,0,[0],1,29,"[1, 2, 3, 4, 5, 6, 7, 8, 9, 10, 11, 12, 13, 14, 15, 16, 17, 18, 19, 20, 21, 22, 23, 24, 25, 26, 27, 28, 29]",300,114,-1,10,149,9,0.0
undo,31,8,0,0,0,5,"[0, 5]",2,28,"[1, 2, 3, 4, 6, 7, 8, 9, 10, 11, 12, 13, 14, 15, 16, 17, 18, 19, 20, 21, 22, 23, 24, 25, 26, 27, 28, 29]",254.5137383,3672,3558,10,100,9,1.0
undo,31,8,0,0,0,25,"[0, 5, 25]",3,20,"[1, 2, 3, 4, 6, 11, 12, 14, 15, 16, 17, 18, 19, 20, 21, 22, 23, 24, 28, 29]",215.3091468,4909,1237,4,42,9,1.2272747879909065
undo,31,8,0,0,0,1,"[0, 5, 25, 1]",4,17,"[3, 4, 6, 11, 12, 14, 15, 16, 17, 18, 20, 21, 22, 23, 24, 28, 29]",190.3091468,6100,1191,3,24,9,1.1770245007593956
undo,31,8,1,0,0,25,"[0, 5, 25]",3,20,"[1, 2, 3, 4, 6, 11, 12, 14, 15, 16, 17, 18, 19, 20, 21, 22, 23, 24, 28, 29]",215.3091468,11147,5047,4,42,9,1.2272747879909065
undo,31,8,0,0,0,14,"[0, 5, 25, 14]",4,16,"[1, 3, 4, 6, 11, 15, 16, 17, 18, 19, 20, 21, 22, 23, 24, 28]",170.2092576,12611,1464,1,13,9,1.5190857385933465
undo,31,8,0,0,0,17,"[0, 5, 25, 14, 17]",5,9,"[1, 4, 11, 15, 16, 18, 23, 24, 28]",133.1957466,14055,1444,1,9,9,1.5271682935559303
undo,31,8,0,0,0,11,"[0, 5, 25, 14, 17, 11]",6,5,"[15, 16, 18, 24, 28]",108.01639,16386,2331,1,6,9,1.4664212485560129
undo,31,8,0,0,0,24,"[0, 5, 25, 14, 17, 11, 24]",7,2,"[15, 16]",70.80080183,17811,1425,1,1,9,1.3920548417170795
undo,31,8,0,0,0,15,"[0, 5, 25, 14, 17, 11, 24, 15]",8,1,[16],54.03774722,19383,1572,1,0,9,1.4585932832823736
undo,31,8,0,0,1,16,"[0, 5, 25, 14, 17, 11, 24, 15, 16]",9,0,[],2.959376062,22086,2703,1,0,9,1.6043130175078746
undo,31,8,0,1,1,16,"[0, 5, 25, 14, 17, 11, 24, 15, 16]",9,0,[],2.959376062,22780,694,1,0,9,1.6043130175078746
undo,32,44,0,0,0,0,[0],1,29,"[1, 2, 3, 4, 5, 6, 7, 8, 9, 10, 11, 12, 13, 14, 15, 16, 17, 18, 19, 20, 21, 22, 23, 24, 25, 26, 27, 28, 29]",300,115,-1,13,126,7,0.0
undo,32,44,0,0,0,11,"[0, 11]",2,18,"[4, 5, 6, 7, 8, 9, 12, 14, 16, 17, 19, 20, 22, 23, 24, 25, 26, 28]",152.7790776,4151,4036,5,34,7,1.0
undo,32,44,0,0,0,24,"[0, 11, 24]",3,13,"[4, 5, 7, 8, 9, 12, 14, 17, 20, 22, 23, 25, 28]",125.8532535,5154,1003,5,23,7,1.1588941745226709
undo,32,44,0,0,0,9,"[0, 11, 24, 9]",4,7,"[4, 7, 8, 12, 14, 20, 23]",93.09657483,6789,1635,2,8,7,1.3039383713641313
undo,32,44,0,0,0,4,"[0, 11, 24, 9, 4]",5,5,"[7, 12, 14, 20, 23]",73.39885923,8020,1231,2,3,7,1.2901330701441578
undo,32,44,0,0,0,7,"[0, 11, 24, 9, 4, 7]",6,1,[23],42.38273439,9238,1218,1,0,7,1.2468141312360979
undo,32,44,0,0,1,23,"[0, 11, 24, 9, 4, 7, 23]",7,0,[],23.27776121,10088,850,1,0,7,1.2635191782769477
undo,32,44,1,0,0,7,"[0, 11, 24, 9, 4, 7]",6,1,[23],42.38273439,23564,13476,1,0,7,1.2468141312360979
undo,32,44,1,0,0,4,"[0, 11, 24, 9, 4]",5,5,"[7, 12, 14, 20, 23]",73.39885923,23747,183,2,3,7,1.2901330701441578
undo,32,44,1,0,0,9,"[0, 11, 24, 9]",4,7,"[4, 7, 8, 12, 14, 20, 23]",93.09657483,23914,167,2,8,7,1.3039383713641313
undo,32,44,1,0,0,24,"[0, 11, 24]",3,13,"[4, 5, 7, 8, 9, 12, 14, 17, 20, 22, 23, 25, 28]",125.8532535,24097,183,5,23,7,1.1588941745226709
undo,32,44,1,0,0,11,"[0, 11]",2,18,"[4, 5, 6, 7, 8, 9, 12, 14, 16, 17, 19, 20, 22, 23, 24, 25, 26, 28]",152.7790776,24264,167,5,34,7,1.0
undo,32,44,1,0,0,0,[0],1,29,"[1, 2, 3, 4, 5, 6, 7, 8, 9, 10, 11, 12, 13, 14, 15, 16, 17, 18, 19, 20, 21, 22, 23, 24, 25, 26, 27, 28, 29]",300,26431,2167,13,126,7,0.0
undo,32,44,0,0,0,8,"[0, 8]",2,17,"[1, 4, 5, 7, 9, 10, 11, 12, 13, 14, 15, 20, 21, 23, 24, 25, 27]",145.7923478,28456,2025,1,10,7,1.0
undo,32,44,0,0,0,9,"[0, 8, 9]",3,8,"[4, 7, 11, 12, 14, 20, 23, 24]",76.43818425,33010,4554,1,6,6,1.408922204592535
undo,32,44,0,0,0,24,"[0, 8, 9, 24]",4,2,"[4, 11]",43.68150554,34009,999,2,0,5,1.7057224210164357
undo,32,44,0,0,1,11,"[0, 8, 9, 24, 11]",5,0,[],16.75568151,35072,1063,1,0,5,1.9239406588565926
undo,32,44,1,0,0,24,"[0, 8, 9, 24]",4,2,"[4, 11]",43.68150554,41363,6291,2,0,5,1.7057224210164357
undo,32,44,1,0,0,9,"[0, 8, 9]",3,8,"[4, 7, 11, 12, 14, 20, 23, 24]",76.43818425,41547,184,1,6,6,1.408922204592535
undo,32,44,1,0,0,8,"[0, 8]",2,17,"[1, 4, 5, 7, 9, 10, 11, 12, 13, 14, 15, 20, 21, 23, 24, 25, 27]",145.7923478,41713,166,1,10,7,1.0
undo,32,44,1,0,0,0,[0],1,29,"[1, 2, 3, 4, 5, 6, 7, 8, 9, 10, 11, 12, 13, 14, 15, 16, 17, 18, 19, 20, 21, 22, 23, 24, 25, 26, 27, 28, 29]",300,41930,217,13,126,7,0.0
undo,32,44,0,0,0,11,"[0, 11]",2,18,"[4, 5, 6, 7, 8, 9, 12, 14, 16, 17, 19, 20, 22, 23, 24, 25, 26, 28]",152.7790776,45105,3175,5,34,7,1.0
undo,32,44,0,0,0,24,"[0, 11, 24]",3,13,"[4, 5, 7, 8, 9, 12, 14, 17, 20, 22, 23, 25, 28]",125.8532535,45959,854,5,23,7,1.1588941745226709
undo,32,44,0,0,0,9,"[0, 11, 24, 9]",4,7,"[4, 7, 8, 12, 14, 20, 23]",93.09657483,46923,964,2,8,7,1.3039383713641313
undo,32,44,0,0,0,4,"[0, 11, 24, 9, 4]",5,5,"[7, 12, 14, 20, 23]",73.39885923,47676,753,2,3,7,1.2901330701441578
undo,32,44,0,0,0,7,"[0, 11, 24, 9, 4, 7]",6,1,[23],42.38273439,48537,861,1,0,7,1.2468141312360979
undo,32,44,0,0,1,23,"[0, 11, 24, 9, 4, 7, 23]",7,0,[],23.27776121,49619,1082,1,0,7,1.2635191782769477
undo,32,44,0,1,1,23,"[0, 11, 24, 9, 4, 7, 23]",7,0,[],23.27776121,50263,644,1,0,7,1.2635191782769477
undo,33,4,0,0,0,0,[0],1,26,"[3, 4, 5, 6, 7, 8, 10, 11, 12, 13, 14, 15, 16, 17, 18, 19, 20, 21, 22, 23, 24, 25, 26, 27, 28, 29]",300,113,-1,4,489,10,0.0
undo,33,4,0,0,0,28,"[0, 28]",2,21,"[3, 4, 5, 6, 10, 11, 12, 13, 14, 15, 16, 17, 19, 20, 21, 22, 23, 24, 25, 26, 27]",225.9392142,6184,6071,2,216,10,1.0
undo,33,4,0,0,0,11,"[0, 28, 11]",3,16,"[3, 4, 5, 6, 12, 13, 14, 16, 17, 20, 21, 22, 23, 24, 25, 26]",177.0618165,8340,2156,1,99,10,1.0005230107421244
undo,33,4,0,0,0,16,"[0, 28, 11, 16]",4,13,"[3, 4, 5, 6, 12, 13, 14, 17, 20, 21, 22, 24, 25]",162.0618165,9188,848,38,165,9,1.0006824277240565
undo,33,4,0,0,0,17,"[0, 28, 11, 16, 17]",5,12,"[3, 4, 5, 6, 12, 13, 14, 20, 21, 22, 24, 25]",135.9850069,10284,1096,9,39,9,1.000593778858539
undo,33,4,0,0,0,3,"[0, 28, 11, 16, 17, 3]",6,6,"[5, 14, 20, 21, 22, 25]",111.4697056,12118,1834,2,7,9,1.0809398822985845
undo,33,4,0,0,0,14,"[0, 28, 11, 16, 17, 3, 14]",7,1,[25],70.03300684,13670,1552,1,0,8,1.6839831140088701
undo,33,4,0,0,1,25,"[0, 28, 11, 16, 17, 3, 14, 25]",8,0,[],53.90849134,16585,2915,1,0,8,1.9406182119358029
undo,33,4,1,0,0,14,"[0, 28, 11, 16, 17, 3, 14]",7,1,[25],70.03300684,23896,7311,1,0,8,1.6839831140088701
undo,33,4,1,0,0,3,"[0, 28, 11, 16, 17, 3]",6,6,"[5, 14, 20, 21, 22, 25]",111.4697056,24278,382,2,7,9,1.0809398822985845
undo,33,4,1,0,0,17,"[0, 28, 11, 16, 17]",5,12,"[3, 4, 5, 6, 12, 13, 14, 20, 21, 22, 24, 25]",135.9850069,24645,367,9,39,9,1.000593778858539
undo,33,4,1,0,0,16,"[0, 28, 11, 16]",4,13,"[3, 4, 5, 6, 12, 13, 14, 17, 20, 21, 22, 24, 25]",162.0618165,25028,383,38,165,9,1.0006824277240565
undo,33,4,1,0,0,11,"[0, 28, 11]",3,16,"[3, 4, 5, 6, 12, 13, 14, 16, 17, 20, 21, 22, 23, 24, 25, 26]",177.0618165,25429,401,1,99,10,1.0005230107421244
undo,33,4,0,0,0,21,"[0, 28, 11, 21]",4,13,"[3, 4, 5, 12, 13, 14, 16, 17, 20, 22, 24, 25, 26]",130.1896499,27934,2505,2,28,9,1.1489156172212258
undo,33,4,0,0,0,22,"[0, 28, 11, 21, 22]",5,11,"[3, 4, 5, 12, 13, 14, 16, 17, 20, 24, 25]",119.1442889,28840,906,2,22,9,1.1398947138161712
undo,33,4,0,0,0,20,"[0, 28, 11, 21, 22, 20]",6,7,"[3, 5, 14, 16, 17, 24, 25]",88.911856,30940,2100,1,8,9,1.1552131802872807
undo,33,4,0,0,0,5,"[0, 28, 11, 21, 22, 20, 5]",7,1,[24],58.49804335,32398,1458,1,0,8,1.2232063765174974
undo,33,4,0,0,1,24,"[0, 28, 11, 21, 22, 20, 5, 24]",8,0,[],18.87481784,33757,1359,1,0,8,1.2000097788531534
undo,33,4,1,0,0,5,"[0, 28, 11, 21, 22, 20, 5]",7,1,[24],58.49804335,35312,1555,1,0,8,1.2232063765174974
undo,33,4,1,0,0,20,"[0, 28, 11, 21, 22, 20]",6,7,"[3, 5, 14, 16, 17, 24, 25]",88.911856,35495,183,1,8,9,1.1552131802872807
undo,33,4,1,0,0,22,"[0, 28, 11, 21, 22]",5,11,"[3, 4, 5, 12, 13, 14, 16, 17, 20, 24, 25]",119.1442889,35678,183,2,22,9,1.1398947138161712
undo,33,4,1,0,0,21,"[0, 28, 11, 21]",4,13,"[3, 4, 5, 12, 13, 14, 16, 17, 20, 22, 24, 25, 26]",130.1896499,35894,216,2,28,9,1.1489156172212258
undo,33,4,0,0,0,16,"[0, 28, 11, 21, 16]",5,8,"[3, 5, 13, 14, 17, 20, 22, 25]",85.98557772,40892,4998,3,13,8,1.552582948543119
undo,33,4,0,0,0,25,"[0, 28, 11, 21, 16, 25]",6,3,"[3, 14, 17]",64.4449185,42150,1258,2,2,8,1.8575304916533415
undo,33,4,0,0,0,14,"[0, 28, 11, 21, 16, 25, 14]",7,2,"[3, 17]",48.320403,43167,1017,2,0,8,1.8429783581754315
undo,33,4,0,0,1,3,"[0, 28, 11, 21, 16, 25, 14, 3]",8,0,[],6.883704288,44433,1266,1,0,8,1.6805845192947748
undo,33,4,0,1,1,3,"[0, 28, 11, 21, 16, 25, 14, 3]",8,0,[],6.883704288,45711,1278,1,0,8,1.6805845192947748
undo,34,41,0,0,0,0,[0],1,29,"[1, 2, 3, 4, 5, 6, 7, 8, 9, 10, 11, 12, 13, 14, 15, 16, 17, 18, 19, 20, 21, 22, 23, 24, 25, 26, 27, 28, 29]",300,96,-1,1,143,10,0.0
undo,34,41,0,0,0,3,"[0, 3]",2,28,"[1, 2, 4, 5, 6, 7, 8, 9, 10, 11, 12, 13, 14, 15, 16, 17, 18, 19, 20, 21, 22, 23, 24, 25, 26, 27, 28, 29]",260.3767745,8495,8399,2,145,9,1.0
undo,34,41,1,0,0,0,[0],1,29,"[1, 2, 3, 4, 5, 6, 7, 8, 9, 10, 11, 12, 13, 14, 15, 16, 17, 18, 19, 20, 21, 22, 23, 24, 25, 26, 27, 28, 29]",300,14062,5567,1,143,10,0.0
undo,34,41,0,0,0,13,"[0, 13]",2,23,"[1, 2, 3, 5, 6, 7, 9, 10, 11, 12, 14, 15, 17, 18, 19, 20, 21, 22, 24, 25, 26, 27, 28]",258.2747079,17637,3575,1,55,10,1.0
undo,34,41,0,0,0,28,"[0, 13, 28]",3,22,"[1, 2, 3, 5, 6, 7, 9, 10, 11, 12, 14, 15, 17, 18, 19, 20, 21, 22, 24, 25, 26, 27]",223.7928286,19421,1784,1,39,10,1.895724242592676
undo,34,41,0,0,0,5,"[0, 13, 28, 5]",4,19,"[1, 2, 3, 6, 9, 10, 11, 12, 14, 15, 17, 18, 19, 20, 21, 22, 24, 25, 27]",210.1913581,21683,2262,1,34,10,2.861541269398273
undo,34,41,0,0,0,3,"[0, 13, 28, 5, 3]",5,16,"[1, 2, 6, 9, 10, 12, 14, 17, 18, 19, 20, 21, 22, 24, 25, 27]",175.3632086,31269,9586,1,22,10,3.1455488489005883
undo,34,41,0,0,0,21,"[0, 13, 28, 5, 3, 21]",6,14,"[1, 2, 6, 9, 10, 12, 14, 17, 18, 19, 20, 22, 25, 27]",143.2228912,35616,4347,13,11,9,3.207558429289677
undo,34,41,0,0,0,9,"[0, 13, 28, 5, 3, 21, 9]",7,6,"[1, 2, 10, 12, 14, 17]",93.85691102,37834,2218,7,4,9,2.5050148501792275
undo,34,41,0,0,0,2,"[0, 13, 28, 5, 3, 21, 9, 2]",8,5,"[1, 10, 12, 14, 17]",81.77386505,39467,1633,5,0,9,2.4119643847713177
undo,34,41,0,0,1,17,"[0, 13, 28, 5, 3, 21, 9, 2, 17]",9,0,[],49.21622385,42557,3090,1,0,9,3.9563478735796007
undo,34,41,1,0,0,2,"[0, 13, 28, 5, 3, 21, 9, 2]",8,5,"[1, 10, 12, 14, 17]",81.77386505,54844,12287,5,0,9,2.4119643847713177
undo,34,41,1,0,0,9,"[0, 13, 28, 5, 3, 21, 9]",7,6,"[1, 2, 10, 12, 14, 17]",93.85691102,55160,316,7,4,9,2.5050148501792275
undo,34,41,1,0,0,21,"[0, 13, 28, 5, 3, 21]",6,14,"[1, 2, 6, 9, 10, 12, 14, 17, 18, 19, 20, 22, 25, 27]",143.2228912,55461,301,13,11,9,3.207558429289677
undo,34,41,1,0,0,3,"[0, 13, 28, 5, 3]",5,16,"[1, 2, 6, 9, 10, 12, 14, 17, 18, 19, 20, 21, 22, 24, 25, 27]",175.3632086,55810,349,1,22,10,3.1455488489005883
undo,34,41,0,0,0,22,"[0, 13, 28, 5, 3, 22]",6,10,"[2, 6, 9, 10, 12, 17, 18, 20, 21, 25]",145.3965604,58697,2887,1,7,10,2.241807041008432
undo,34,41,0,0,0,21,"[0, 13, 28, 5, 3, 22, 21]",7,4,"[2, 9, 12, 17]",94.39656044,61399,2702,1,5,10,4.206513633906409
undo,34,41,0,0,0,9,"[0, 13, 28, 5, 3, 22, 21, 9]",8,2,"[2, 17]",45.03058025,65303,3904,1,1,10,3.098343902653451
undo,34,41,0,0,0,2,"[0, 13, 28, 5, 3, 22, 21, 9, 2]",9,1,[17],32.94753428,67340,2037,1,0,10,2.9516218867624824
undo,34,41,0,0,1,17,"[0, 13, 28, 5, 3, 22, 21, 9, 2, 17]",10,0,[],0.389893085,72517,5177,1,0,10,4.726628762010198
undo,34,41,0,1,1,17,"[0, 13, 28, 5, 3, 22, 21, 9, 2, 17]",10,0,[],0.389893085,73676,1159,1,0,10,4.726628762010198
undo,35,43,0,0,0,0,[0],1,23,"[1, 2, 3, 4, 5, 6, 7, 9, 10, 11, 12, 14, 15, 16, 17, 19, 20, 21, 22, 23, 25, 27, 29]",300,116,-1,16,556,12,0.0
undo,35,43,0,0,0,29,"[0, 29]",2,22,"[1, 2, 3, 4, 5, 6, 7, 9, 10, 11, 12, 14, 15, 16, 17, 19, 20, 21, 22, 23, 25, 27]",277.909278,7971,7855,16,520,12,1.0
undo,35,43,0,0,0,20,"[0, 29, 20]",3,20,"[1, 2, 3, 4, 6, 7, 9, 10, 11, 12, 14, 15, 16, 17, 19, 21, 22, 23, 25, 27]",254.4785289,9389,1418,15,422,12,1.082311746871282
undo,35,43,0,0,0,16,"[0, 29, 20, 16]",4,19,"[1, 2, 3, 4, 6, 7, 9, 10, 11, 12, 14, 15, 17, 19, 21, 22, 23, 25, 27]",231.8511119,10800,1411,15,389,12,1.215201926898219
undo,35,43,0,0,0,25,"[0, 29, 20, 16, 25]",5,14,"[1, 2, 3, 4, 6, 7, 9, 11, 12, 14, 15, 19, 22, 23]",175.7708124,12701,1901,53,282,11,1.566384303308987
undo,35,43,0,0,0,15,"[0, 29, 20, 16, 25, 15]",6,13,"[1, 2, 3, 4, 6, 7, 9, 11, 12, 14, 19, 22, 23]",153.0992443,15218,2517,27,108,11,1.776736412604812
undo,35,43,0,0,0,12,"[0, 29, 20, 16, 25, 15, 12]",7,10,"[1, 3, 6, 7, 9, 11, 14, 19, 22, 23]",133.7860364,16578,1360,21,41,11,1.6813323012225032
undo,35,43,0,0,0,3,"[0, 29, 20, 16, 25, 15, 12, 3]",8,9,"[1, 6, 7, 9, 11, 14, 19, 22, 23]",120.7860364,17483,905,20,12,11,1.608740348096123
undo,35,43,0,0,0,22,"[0, 29, 20, 16, 25, 15, 12, 3, 22]",9,6,"[1, 6, 7, 11, 14, 19]",86.07292644,22112,4629,9,2,11,1.793657891802588
undo,35,43,0,0,0,19,"[0, 29, 20, 16, 25, 15, 12, 3, 22, 19]",10,3,"[1, 6, 7]",65.45739831,23713,1601,3,0,11,1.6882745891803936
undo,35,43,0,0,1,1,"[0, 29, 20, 16, 25, 15, 12, 3, 22, 19, 1]",11,0,[],37.2793927,24980,1267,1,0,11,1.825064866046553
undo,35,43,1,0,0,19,"[0, 29, 20, 16, 25, 15, 12, 3, 22, 19]",10,3,"[1, 6, 7]",65.45739831,29048,4068,3,0,11,1.6882745891803936
undo,35,43,0,0,1,6,"[0, 29, 20, 16, 25, 15, 12, 3, 22, 19, 6]",11,0,[],0.897348746,37309,8261,1,0,11,2.711952364749881
undo,35,43,0,1,1,6,"[0, 29, 20, 16, 25, 15, 12, 3, 22, 19, 6]",11,0,[],0.897348746,39697,2388,1,0,11,2.711952364749881
undo,36,9,0,0,0,0,[0],1,27,"[1, 3, 4, 5, 6, 7, 8, 9, 10, 11, 13, 14, 15, 16, 17, 18, 19, 20, 21, 22, 23, 24, 25, 26, 27, 28, 29]",300,115,-1,2,182,10,0.0
undo,36,9,0,0,0,23,"[0, 23]",2,26,"[1, 3, 4, 5, 6, 7, 8, 9, 10, 11, 13, 14, 15, 16, 17, 18, 19, 20, 21, 22, 24, 25, 26, 27, 28, 29]",240.4600974,5957,5842,7,160,9,1.0
undo,36,9,0,0,0,8,"[0, 23, 8]",3,23,"[1, 3, 4, 5, 6, 7, 9, 10, 11, 13, 15, 16, 17, 18, 19, 20, 21, 22, 24, 25, 26, 27, 28]",218.9891869,7183,1226,3,53,9,1.2701427074648883
undo,36,9,0,0,0,28,"[0, 23, 8, 28]",4,22,"[1, 3, 4, 5, 6, 7, 9, 10, 11, 13, 15, 16, 17, 18, 19, 20, 21, 22, 24, 25, 26, 27]",208.172533,8073,890,3,39,9,1.2362921532284137
undo,36,9,0,0,0,26,"[0, 23, 8, 28, 26]",5,19,"[1, 3, 5, 6, 7, 9, 10, 13, 15, 16, 17, 18, 19, 20, 21, 22, 24, 25, 27]",163.3953067,9777,1704,2,15,9,1.169313903639755
undo,36,9,0,0,0,21,"[0, 23, 8, 28, 26, 21]",6,7,"[9, 10, 16, 17, 18, 20, 22]",109.4879788,12173,2396,4,6,8,1.607252916465919
undo,36,9,0,0,0,20,"[0, 23, 8, 28, 26, 21, 20]",7,4,"[10, 16, 17, 22]",97.40493282,14436,2263,4,0,8,1.5996563152867251
undo,36,9,0,0,1,22,"[0, 23, 8, 28, 26, 21, 20, 22]",8,0,[],21.34574534,17630,3194,1,0,8,2.344614520312041
undo,36,9,1,0,0,20,"[0, 23, 8, 28, 26, 21, 20]",7,4,"[10, 16, 17, 22]",97.40493282,23047,5417,4,0,8,1.5996563152867251
undo,36,9,1,0,0,21,"[0, 23, 8, 28, 26, 21]",6,7,"[9, 10, 16, 17, 18, 20, 22]",109.4879788,23248,201,4,6,8,1.607252916465919
undo,36,9,1,0,0,26,"[0, 23, 8, 28, 26]",5,19,"[1, 3, 5, 6, 7, 9, 10, 13, 15, 16, 17, 18, 19, 20, 21, 22, 24, 25, 27]",163.3953067,23448,200,2,15,9,1.169313903639755
undo,36,9,1,0,0,28,"[0, 23, 8, 28]",4,22,"[1, 3, 4, 5, 6, 7, 9, 10, 11, 13, 15, 16, 17, 18, 19, 20, 21, 22, 24, 25, 26, 27]",208.172533,23647,199,3,39,9,1.2362921532284137
undo,36,9,1,0,0,8,"[0, 23, 8]",3,23,"[1, 3, 4, 5, 6, 7, 9, 10, 11, 13, 15, 16, 17, 18, 19, 20, 21, 22, 24, 25, 26, 27, 28]",218.9891869,23847,200,3,53,9,1.2701427074648883
undo,36,9,1,0,0,23,"[0, 23]",2,26,"[1, 3, 4, 5, 6, 7, 8, 9, 10, 11, 13, 14, 15, 16, 17, 18, 19, 20, 21, 22, 24, 25, 26, 27, 28, 29]",240.4600974,24197,350,7,160,9,1.0
undo,36,9,1,0,0,0,[0],1,27,"[1, 3, 4, 5, 6, 7, 8, 9, 10, 11, 13, 14, 15, 16, 17, 18, 19, 20, 21, 22, 23, 24, 25, 26, 27, 28, 29]",300,24531,334,2,182,10,0.0
undo,36,9,0,0,0,27,"[0, 27]",2,18,"[3, 4, 7, 8, 9, 10, 11, 16, 17, 18, 19, 20, 21, 22, 23, 25, 26, 28]",246.3996269,28704,4173,6,149,9,1.0
undo,36,9,0,0,0,25,"[0, 27, 25]",3,16,"[3, 4, 7, 8, 9, 10, 11, 17, 18, 19, 20, 21, 22, 23, 26, 28]",210.4969807,30454,1750,6,109,9,3.7164105930635247
undo,36,9,0,0,0,10,"[0, 27, 25, 10]",4,13,"[4, 7, 8, 9, 11, 17, 18, 20, 21, 22, 23, 26, 28]",170.647263,31482,1028,5,56,9,2.380770024811378
undo,36,9,0,0,0,9,"[0, 27, 25, 10, 9]",5,4,"[8, 23, 26, 28]",85.15457329,35736,4254,4,3,8,2.8851961121606706
undo,36,9,0,0,0,8,"[0, 27, 25, 10, 9, 8]",6,2,"[23, 28]",43.4292812,41835,6099,1,1,8,4.022690489855663
undo,36,9,0,0,0,28,"[0, 27, 25, 10, 9, 8, 28]",7,1,[23],32.61262737,43538,1703,1,0,8,3.5998914208842425
undo,36,9,0,0,1,23,"[0, 27, 25, 10, 9, 8, 28, 23]",8,0,[],7.592635366,54882,11344,1,0,8,4.9111159395935715
undo,36,9,0,1,1,23,"[0, 27, 25, 10, 9, 8, 28, 23]",8,0,[],7.592635366,57346,2464,1,0,8,4.9111159395935715
undo,37,27,0,0,0,0,[0],1,26,"[1, 3, 5, 6, 7, 8, 9, 10, 11, 12, 13, 14, 15, 16, 17, 18, 19, 21, 22, 23, 24, 25, 26, 27, 28, 29]",300,94,-1,13,578,11,0.0
undo,37,27,0,0,0,15,"[0, 15]",2,24,"[1, 3, 5, 6, 7, 8, 9, 10, 11, 12, 13, 14, 16, 17, 18, 19, 21, 22, 23, 24, 25, 26, 27, 29]",263.7508621,3431,3337,6,219,11,1.0
undo,37,27,0,0,0,24,"[0, 15, 24]",3,20,"[1, 5, 6, 7, 8, 9, 10, 12, 13, 14, 16, 17, 18, 19, 21, 23, 25, 26, 27, 29]",246.5462115,4875,1444,6,130,11,1.130933077698322
undo,37,27,0,0,0,17,"[0, 15, 24, 17]",4,15,"[1, 6, 8, 10, 12, 13, 14, 16, 18, 19, 23, 25, 26, 27, 29]",229.9932662,6050,1175,4,60,11,1.1285538435963374
undo,37,27,0,0,0,12,"[0, 15, 24, 17, 12]",5,14,"[1, 6, 8, 10, 13, 14, 16, 18, 19, 23, 25, 26, 27, 29]",218.8129263,7869,1819,2,32,11,1.2561880288755216
undo,37,27,0,0,0,10,"[0, 15, 24, 17, 12, 10]",6,11,"[1, 8, 13, 14, 18, 19, 23, 25, 26, 27, 29]",207.7675653,11428,3559,2,28,11,1.2228289337766665
undo,37,27,0,0,0,13,"[0, 15, 24, 17, 12, 10, 13]",7,9,"[1, 8, 14, 18, 19, 23, 26, 27, 29]",167.9178476,12575,1147,2,18,11,1.3421291994761178
undo,37,27,0,0,0,19,"[0, 15, 24, 17, 12, 10, 13, 19]",8,5,"[1, 8, 14, 23, 29]",131.6825057,13957,1382,2,6,11,1.294749956153846
undo,37,27,0,0,0,8,"[0, 15, 24, 17, 12, 10, 13, 19, 8]",9,3,"[14, 23, 29]",116.816437,14862,905,2,1,11,1.3554286578836865
undo,37,27,0,0,1,23,"[0, 15, 24, 17, 12, 10, 13, 19, 8, 23]",10,0,[],45.97859399,17673,2811,1,0,10,3.3397859539241304
undo,37,27,1,0,0,8,"[0, 15, 24, 17, 12, 10, 13, 19, 8]",9,3,"[14, 23, 29]",116.816437,20976,3303,2,1,11,1.3554286578836865
undo,37,27,0,0,0,29,"[0, 15, 24, 17, 12, 10, 13, 19, 8, 29]",10,1,[14],57.61339652,22902,1926,1,0,11,1.248354519573802
undo,37,27,0,0,1,14,"[0, 15, 24, 17, 12, 10, 13, 19, 8, 29, 14]",11,0,[],13.31892734,24446,1544,1,0,11,1.562811097555156
undo,37,27,0,1,1,14,"[0, 15, 24, 17, 12, 10, 13, 19, 8, 29, 14]",11,0,[],13.31892734,25294,848,1,0,11,1.562811097555156
undo,38,40,0,0,0,0,[0],1,29,"[1, 2, 3, 4, 5, 6, 7, 8, 9, 10, 11, 12, 13, 14, 15, 16, 17, 18, 19, 20, 21, 22, 23, 24, 25, 26, 27, 28, 29]",300,116,-1,8,191,9,0.0
undo,38,40,0,0,0,1,"[0, 1]",2,18,"[2, 5, 6, 7, 8, 9, 10, 11, 13, 15, 17, 18, 19, 21, 22, 23, 27, 29]",247.8463808,7710,7594,4,80,9,1.0
undo,38,40,0,0,0,6,"[0, 1, 6]",3,17,"[2, 5, 7, 8, 9, 10, 11, 13, 15, 17, 18, 19, 21, 22, 23, 27, 29]",227.7466295,9247,1537,4,74,9,1.0459427008232034
undo,38,40,0,0,0,9,"[0, 1, 6, 9]",4,10,"[2, 5, 8, 11, 18, 19, 21, 22, 23, 27]",159.146338,12339,3092,17,39,8,1.142098432552584
undo,38,40,0,0,0,18,"[0, 1, 6, 9, 18]",5,9,"[2, 5, 8, 11, 19, 21, 22, 23, 27]",142.5933926,13331,992,13,14,8,1.3288108654802917
undo,38,40,0,0,0,23,"[0, 1, 6, 9, 18, 23]",6,6,"[2, 5, 8, 19, 21, 22]",108.5933926,14418,1087,6,4,8,2.0180513009829646
undo,38,40,0,0,0,5,"[0, 1, 6, 9, 18, 23, 5]",7,2,"[19, 22]",80.29144922,15406,988,2,0,8,1.786484562843798
undo,38,40,0,0,1,19,"[0, 1, 6, 9, 18, 23, 5, 19]",8,0,[],42.21258369,16952,1546,1,0,8,2.512757983735243
undo,38,40,1,0,0,5,"[0, 1, 6, 9, 18, 23, 5]",7,2,"[19, 22]",80.29144922,19565,2613,2,0,8,1.786484562843798
undo,38,40,1,0,0,23,"[0, 1, 6, 9, 18, 23]",6,6,"[2, 5, 8, 19, 21, 22]",108.5933926,51330,31765,6,4,8,2.0180513009829646
undo,38,40,1,0,0,18,"[0, 1, 6, 9, 18]",5,9,"[2, 5, 8, 11, 19, 21, 22, 23, 27]",142.5933926,52364,1034,13,14,8,1.3288108654802917
undo,38,40,1,0,0,9,"[0, 1, 6, 9]",4,10,"[2, 5, 8, 11, 18, 19, 21, 22, 23, 27]",159.146338,60096,7732,17,39,8,1.142098432552584
undo,38,40,1,0,0,6,"[0, 1, 6]",3,17,"[2, 5, 7, 8, 9, 10, 11, 13, 15, 17, 18, 19, 21, 22, 23, 27, 29]",227.7466295,60530,434,4,74,9,1.0459427008232034
undo,38,40,1,0,0,1,"[0, 1]",2,18,"[2, 5, 6, 7, 8, 9, 10, 11, 13, 15, 17, 18, 19, 21, 22, 23, 27, 29]",247.8463808,61913,1383,4,80,9,1.0
undo,38,40,0,0,0,19,"[0, 1, 19]",3,16,"[2, 5, 6, 7, 8, 9, 10, 11, 13, 17, 18, 21, 22, 23, 27, 29]",145.0601949,67383,5470,10,26,7,1.5102608103850448
undo,38,40,0,0,0,5,"[0, 1, 19, 5]",4,9,"[2, 6, 8, 9, 18, 21, 22, 23, 27]",106.9813294,68654,1271,5,7,7,1.569464975957237
undo,38,40,0,0,0,18,"[0, 1, 19, 5, 18]",5,4,"[6, 9, 21, 23]",75.40602258,70123,1469,2,3,7,1.895999935750672
undo,38,40,0,0,0,9,"[0, 1, 19, 5, 18, 9]",6,2,"[21, 23]",58.85307722,71300,1177,2,0,7,1.9553167351937006
undo,38,40,0,0,1,21,"[0, 1, 19, 5, 18, 9, 21]",7,0,[],13.14749769,73093,1793,1,0,7,2.380457214471262
undo,38,40,0,1,1,21,"[0, 1, 19, 5, 18, 9, 21]",7,0,[],13.14749769,75546,2453,1,0,7,2.380457214471262
undo,39,14,0,0,0,0,[0],1,29,"[1, 2, 3, 4, 5, 6, 7, 8, 9, 10, 11, 12, 13, 14, 15, 16, 17, 18, 19, 20, 21, 22, 23, 24, 25, 26, 27, 28, 29]",300,115,-1,8,157,10,0.0
undo,39,14,0,0,0,18,"[0, 18]",2,17,"[1, 2, 3, 4, 7, 8, 9, 13, 15, 17, 19, 20, 22, 23, 25, 26, 28]",179.8958785,2836,2721,18,136,9,1.0
undo,39,14,0,0,0,8,"[0, 18, 8]",3,13,"[1, 2, 4, 7, 13, 15, 17, 19, 20, 23, 25, 26, 28]",166.294408,3628,792,18,99,9,1.0203858410107731
undo,39,14,0,0,0,1,"[0, 18, 8, 1]",4,10,"[2, 4, 7, 15, 17, 19, 23, 25, 26, 28]",142.6935606,4374,746,11,42,9,1.0173392374431458
undo,39,14,0,0,0,19,"[0, 18, 8, 1, 19]",5,9,"[2, 4, 7, 15, 17, 23, 25, 26, 28]",127.4620143,5400,1026,11,22,9,1.1668364376922102
undo,39,14,0,0,0,25,"[0, 18, 8, 1, 19, 25]",6,5,"[2, 4, 7, 23, 26]",91.61511768,8254,2854,5,7,9,1.273103293863789
undo,39,14,0,0,0,7,"[0, 18, 8, 1, 19, 25, 7]",7,4,"[2, 4, 23, 26]",71.91740208,9504,1250,2,2,9,1.3059971565497175
undo,39,14,0,0,0,23,"[0, 18, 8, 1, 19, 25, 7, 23]",8,1,[26],34.80945145,10940,1436,1,0,9,1.4108075818506876
undo,39,14,0,0,1,26,"[0, 18, 8, 1, 19, 25, 7, 23, 26]",9,0,[],23.99279762,12075,1135,1,0,9,1.3911752305399343
undo,39,14,0,1,1,26,"[0, 18, 8, 1, 19, 25, 7, 23, 26]",9,0,[],23.99279762,13130,1055,1,0,9,1.3911752305399343
undo,40,42,0,0,0,0,[0],1,29,"[1, 2, 3, 4, 5, 6, 7, 8, 9, 10, 11, 12, 13, 14, 15, 16, 17, 18, 19, 20, 21, 22, 23, 24, 25, 26, 27, 28, 29]",300,115,-1,16,302,9,0.0
undo,40,42,0,0,0,5,"[0, 5]",2,28,"[1, 2, 3, 4, 6, 7, 8, 9, 10, 11, 12, 13, 14, 15, 16, 17, 18, 19, 20, 21, 22, 23, 24, 25, 26, 27, 28, 29]",191.2939744,5073,4958,1,22,9,1.0
undo,40,42,0,0,0,4,"[0, 5, 4]",3,23,"[1, 2, 3, 6, 7, 8, 9, 10, 11, 13, 15, 17, 18, 19, 20, 21, 22, 23, 24, 25, 26, 27, 29]",171.4445412,5944,871,1,14,9,1.420957801478707
undo,40,42,0,0,0,22,"[0, 5, 4, 22]",4,20,"[1, 2, 3, 6, 7, 8, 9, 11, 15, 17, 18, 19, 20, 21, 23, 24, 25, 26, 27, 29]",160.2642013,6675,731,1,11,9,1.5771494659680896
undo,40,42,0,0,0,8,"[0, 5, 4, 22, 8]",5,14,"[1, 2, 3, 6, 7, 11, 15, 18, 19, 24, 25, 26, 27, 29]",138.1282577,7401,726,1,10,9,1.5055393955524201
undo,40,42,0,0,0,1,"[0, 5, 4, 22, 8, 1]",6,5,"[2, 7, 19, 26, 27]",89.03650682,9329,1928,1,7,9,1.3547259083637835
undo,40,42,0,0,0,7,"[0, 5, 4, 22, 8, 1, 7]",7,4,"[2, 19, 26, 27]",59.03650682,10874,1545,1,3,9,1.3909715672447451
undo,40,42,0,0,0,26,"[0, 5, 4, 22, 8, 1, 7, 26]",8,1,[27],32.46584631,12728,1854,1,0,9,1.3511825943939393
undo,40,42,0,0,1,27,"[0, 5, 4, 22, 8, 1, 7, 26, 27]",9,0,[],14.43808994,13905,1177,1,0,9,1.3391911688802078
undo,40,42,0,1,1,27,"[0, 5, 4, 22, 8, 1, 7, 26, 27]",9,0,[],14.43808994,15515,1610,1,0,9,1.3391911688802078
undo,41,31,0,0,0,0,[0],1,27,"[1, 3, 4, 5, 6, 7, 8, 10, 11, 12, 13, 14, 15, 16, 17, 18, 19, 20, 21, 22, 23, 24, 25, 26, 27, 28, 29]",300,115,-1,2,87,10,0.0
undo,41,31,0,0,0,14,"[0, 14]",2,25,"[1, 3, 5, 6, 7, 8, 10, 11, 12, 13, 15, 16, 17, 18, 19, 20, 21, 22, 23, 24, 25, 26, 27, 28, 29]",263.861378,3853,3738,2,59,10,1.0
undo,41,31,0,0,0,27,"[0, 14, 27]",3,22,"[1, 3, 5, 6, 7, 8, 10, 11, 12, 13, 15, 16, 17, 18, 19, 20, 21, 22, 24, 25, 28, 29]",235.6833724,5124,1271,1,39,10,1.5881859159302467
undo,41,31,0,0,0,8,"[0, 14, 27, 8]",4,20,"[1, 3, 5, 6, 7, 10, 11, 12, 13, 16, 17, 18, 19, 20, 21, 22, 24, 25, 28, 29]",224.6380114,5953,829,1,36,10,2.1665048452331277
undo,41,31,0,0,0,18,"[0, 14, 27, 8, 18]",5,15,"[1, 5, 6, 7, 11, 12, 13, 16, 17, 19, 20, 22, 25, 28, 29]",188.7911147,7497,1544,1,26,10,1.7273375741920205
undo,41,31,0,0,0,17,"[0, 14, 27, 8, 18, 17]",6,13,"[1, 5, 6, 7, 11, 12, 13, 16, 19, 20, 22, 25, 28]",159.584951,8661,1164,1,13,10,1.551192427769927
undo,41,31,0,0,0,11,"[0, 14, 27, 8, 18, 17, 11]",7,7,"[5, 12, 16, 19, 22, 25, 28]",118.4753414,9734,1073,1,4,10,2.9650760544203494
undo,41,31,0,0,0,5,"[0, 14, 27, 8, 18, 17, 11, 5]",8,2,"[16, 28]",74.79468207,11023,1289,1,1,10,2.56711965625205
undo,41,31,0,0,0,28,"[0, 14, 27, 8, 18, 17, 11, 5, 28]",9,1,[16],54.57093365,12267,1244,1,0,10,2.2865510762058148
undo,41,31,0,0,1,16,"[0, 14, 27, 8, 18, 17, 11, 5, 28, 16]",10,0,[],20.95546102,14668,2401,1,0,10,2.089356850786318
undo,41,31,0,1,1,16,"[0, 14, 27, 8, 18, 17, 11, 5, 28, 16]",10,0,[],20.95546102,15398,730,1,0,10,2.089356850786318
undo,42,32,0,0,0,0,[0],1,29,"[1, 2, 3, 4, 5, 6, 7, 8, 9, 10, 11, 12, 13, 14, 15, 16, 17, 18, 19, 20, 21, 22, 23, 24, 25, 26, 27, 28, 29]",300,115,-1,17,359,10,0.0
undo,42,32,0,0,0,19,"[0, 19]",2,28,"[1, 2, 3, 4, 5, 6, 7, 8, 9, 10, 11, 12, 13, 14, 15, 16, 17, 18, 20, 21, 22, 23, 24, 25, 26, 27, 28, 29]",283.5075775,8211,8096,16,294,10,1.0
undo,42,32,0,0,0,16,"[0, 19, 16]",3,19,"[2, 3, 5, 7, 8, 9, 10, 11, 12, 13, 15, 17, 20, 22, 23, 24, 26, 27, 28]",162.3589085,9640,1429,42,132,8,1.1721460331828106
undo,42,32,0,0,0,15,"[0, 19, 16, 15]",4,10,"[2, 5, 8, 9, 12, 13, 17, 22, 27, 28]",122.54685,13584,3944,6,24,8,2.07835604433892
undo,42,32,0,0,0,28,"[0, 19, 16, 15, 28]",5,9,"[2, 5, 8, 9, 12, 13, 17, 22, 27]",111.1450958,14486,902,5,13,8,1.951630356036479
undo,42,32,0,0,0,12,"[0, 19, 16, 15, 28, 12]",6,7,"[2, 5, 8, 9, 17, 22, 27]",92.17142981,16378,1892,4,5,8,1.8459253522448442
undo,42,32,0,0,0,22,"[0, 19, 16, 15, 28, 12, 22]",7,2,"[8, 9]",62.64178369,17739,1361,2,0,8,1.6808992860140088
undo,42,32,0,0,1,9,"[0, 19, 16, 15, 28, 12, 22, 9]",8,0,[],40.43818038,18571,832,1,0,8,1.7144468637751384
undo,42,32,1,0,0,22,"[0, 19, 16, 15, 28, 12, 22]",7,2,"[8, 9]",62.64178369,23864,5293,2,0,8,1.6808992860140088
undo,42,32,1,0,0,12,"[0, 19, 16, 15, 28, 12]",6,7,"[2, 5, 8, 9, 17, 22, 27]",92.17142981,24114,250,4,5,8,1.8459253522448442
undo,42,32,1,0,0,28,"[0, 19, 16, 15, 28]",5,9,"[2, 5, 8, 9, 12, 13, 17, 22, 27]",111.1450958,24314,200,5,13,8,1.951630356036479
undo,42,32,1,0,0,15,"[0, 19, 16, 15]",4,10,"[2, 5, 8, 9, 12, 13, 17, 22, 27, 28]",122.54685,24514,200,6,24,8,2.07835604433892
undo,42,32,1,0,0,16,"[0, 19, 16]",3,19,"[2, 3, 5, 7, 8, 9, 10, 11, 12, 13, 15, 17, 20, 22, 23, 24, 26, 27, 28]",162.3589085,24948,434,42,132,8,1.1721460331828106
undo,42,32,1,0,0,19,"[0, 19]",2,28,"[1, 2, 3, 4, 5, 6, 7, 8, 9, 10, 11, 12, 13, 14, 15, 16, 17, 18, 20, 21, 22, 23, 24, 25, 26, 27, 28, 29]",283.5075775,25247,299,16,294,10,1.0
undo,42,32,0,0,0,16,"[0, 19, 16]",3,19,"[2, 3, 5, 7, 8, 9, 10, 11, 12, 13, 15, 17, 20, 22, 23, 24, 26, 27, 28]",162.3589085,27123,1876,42,132,8,1.1721460331828106
undo,42,32,0,0,0,12,"[0, 19, 16, 12]",4,16,"[2, 3, 5, 8, 9, 10, 11, 13, 15, 17, 20, 22, 24, 26, 27, 28]",146.7064327,28215,1092,18,47,8,1.3615475579533036
undo,42,32,0,0,0,28,"[0, 19, 16, 12, 28]",5,10,"[2, 5, 8, 9, 13, 15, 17, 20, 22, 27]",127.7327667,28994,779,8,15,8,1.7802130332959505
undo,42,32,0,0,0,15,"[0, 19, 16, 12, 28, 15]",6,8,"[2, 5, 8, 9, 13, 17, 22, 27]",116.3310124,29937,943,6,4,8,2.1511568013082334
undo,42,32,0,0,0,22,"[0, 19, 16, 12, 28, 15, 22]",7,2,"[8, 9]",60.2417978,31349,1412,2,0,8,1.6978952621030605
undo,42,32,0,0,1,9,"[0, 19, 16, 12, 28, 15, 22, 9]",8,0,[],38.03819448,33455,2106,1,0,8,1.7302991501606453
undo,42,32,1,0,0,22,"[0, 19, 16, 12, 28, 15, 22]",7,2,"[8, 9]",60.2417978,36197,2742,2,0,8,1.6978952621030605
undo,42,32,1,0,0,15,"[0, 19, 16, 12, 28, 15]",6,8,"[2, 5, 8, 9, 13, 17, 22, 27]",116.3310124,36397,200,6,4,8,2.1511568013082334
undo,42,32,1,0,0,28,"[0, 19, 16, 12, 28]",5,10,"[2, 5, 8, 9, 13, 15, 17, 20, 22, 27]",127.7327667,36597,200,8,15,8,1.7802130332959505
undo,42,32,1,0,0,12,"[0, 19, 16, 12]",4,16,"[2, 3, 5, 8, 9, 10, 11, 13, 15, 17, 20, 22, 24, 26, 27, 28]",146.7064327,36797,200,18,47,8,1.3615475579533036
undo,42,32,0,0,0,22,"[0, 19, 16, 12, 22]",5,12,"[2, 3, 5, 8, 9, 10, 11, 15, 17, 20, 27, 28]",117.1767865,39401,2604,3,13,8,1.2946988472376288
undo,42,32,0,0,0,9,"[0, 19, 16, 12, 22, 9]",6,6,"[2, 8, 15, 17, 20, 28]",94.97318323,40499,1098,3,3,8,1.354234546189172
undo,42,32,0,0,0,28,"[0, 19, 16, 12, 22, 9, 28]",7,1,[15],39.21477579,42183,1684,1,0,8,2.6949597212208127
undo,42,32,0,0,1,15,"[0, 19, 16, 12, 22, 9, 28, 15]",8,0,[],27.81302154,43070,887,1,0,8,3.1878918569362584
undo,42,32,0,1,1,15,"[0, 19, 16, 12, 22, 9, 28, 15]",8,0,[],27.81302154,43780,710,1,0,8,3.1878918569362584
undo,43,24,0,0,0,0,[0],1,29,"[1, 2, 3, 4, 5, 6, 7, 8, 9, 10, 11, 12, 13, 14, 15, 16, 17, 18, 19, 20, 21, 22, 23, 24, 25, 26, 27, 28, 29]",300,97,-1,4,76,10,0.0
undo,43,24,0,0,0,16,"[0, 16]",2,28,"[1, 2, 3, 4, 5, 6, 7, 8, 9, 10, 11, 12, 13, 14, 15, 17, 18, 19, 20, 21, 22, 23, 24, 25, 26, 27, 28, 29]",210.3562607,3558,3461,13,110,9,1.0
undo,43,24,0,0,0,8,"[0, 16, 8]",3,22,"[1, 2, 3, 4, 6, 9, 10, 11, 13, 14, 15, 17, 20, 21, 22, 23, 24, 25, 26, 27, 28, 29]",181.3562607,4786,1228,3,31,9,1.0774669368510212
undo,43,24,0,0,0,22,"[0, 16, 8, 22]",4,18,"[2, 3, 4, 6, 9, 10, 11, 13, 14, 15, 17, 23, 24, 25, 26, 27, 28, 29]",167.9398528,5567,781,3,23,9,1.2531772310046492
undo,43,24,0,0,0,15,"[0, 16, 8, 22, 15]",5,16,"[3, 4, 6, 9, 10, 11, 13, 14, 17, 23, 24, 25, 26, 27, 28, 29]",146.7266494,6436,869,3,16,9,1.2813329946092564
undo,43,24,0,0,0,28,"[0, 16, 8, 22, 15, 28]",6,8,"[3, 4, 9, 11, 13, 23, 26, 27]",101.4497237,7867,1431,3,5,9,1.2060847818642253
undo,43,24,0,0,0,23,"[0, 16, 8, 22, 15, 28, 23]",7,3,"[9, 11, 27]",82.42342609,9116,1249,3,1,9,1.2349355190066822
undo,43,24,0,0,0,11,"[0, 16, 8, 22, 15, 28, 23, 11]",8,2,"[9, 27]",55.49760206,10347,1231,2,0,9,1.2172586817191506
undo,43,24,0,0,1,9,"[0, 16, 8, 22, 15, 28, 23, 11, 9]",9,0,[],23.24857107,14671,4324,1,0,9,1.3037788048831767
undo,43,24,0,1,1,9,"[0, 16, 8, 22, 15, 28, 23, 11, 9]",9,0,[],23.24857107,15813,1142,1,0,9,1.3037788048831767
undo,44,0,0,0,0,0,[0],1,27,"[2, 3, 4, 5, 6, 7, 8, 9, 10, 11, 12, 13, 14, 15, 16, 17, 19, 20, 21, 22, 23, 24, 25, 26, 27, 28, 29]",300,114,-1,104,1136,9,0.0
undo,44,0,0,0,0,5,"[0, 5]",2,24,"[2, 3, 4, 7, 8, 9, 11, 12, 13, 14, 15, 16, 17, 19, 20, 21, 22, 23, 24, 25, 26, 27, 28, 29]",164.5156836,4554,4440,5,112,9,1.0
undo,44,0,0,0,0,26,"[0, 5, 26]",3,19,"[3, 4, 7, 8, 9, 11, 12, 13, 14, 15, 17, 19, 20, 21, 22, 23, 24, 25, 28]",129.0755933,7389,2835,1,27,9,1.0579955168289483
undo,44,0,0,0,0,4,"[0, 5, 26, 4]",4,15,"[3, 7, 8, 9, 11, 12, 14, 15, 17, 19, 20, 21, 23, 24, 28]",117.0339987,8293,904,1,18,9,1.168807644221424
undo,44,0,0,0,0,24,"[0, 5, 26, 4, 24]",5,12,"[3, 7, 8, 9, 11, 12, 15, 17, 19, 20, 23, 28]",105.6322444,9106,813,1,16,9,1.1650490498282802
undo,44,0,0,0,0,15,"[0, 5, 26, 4, 24, 15]",6,8,"[3, 7, 8, 9, 11, 12, 17, 19]",82.28700938,11125,2019,1,8,9,1.151743263817517
undo,44,0,0,0,0,8,"[0, 5, 26, 4, 24, 15, 8]",7,3,"[3, 7, 19]",43.17179495,13957,2832,3,0,8,1.154473556189965
undo,44,0,0,0,1,7,"[0, 5, 26, 4, 24, 15, 8, 7]",8,0,[],24.06682178,15194,1237,1,0,8,1.345951450237984
undo,44,0,1,0,0,8,"[0, 5, 26, 4, 24, 15, 8]",7,3,"[3, 7, 19]",43.17179495,17647,2453,3,0,8,1.154473556189965
undo,44,0,0,0,1,3,"[0, 5, 26, 4, 24, 15, 8, 3]",8,0,[],12.7579823,23220,5573,1,0,8,1.3251601065209413
undo,44,0,0,1,1,3,"[0, 5, 26, 4, 24, 15, 8, 3]",8,0,[],12.7579823,24130,910,1,0,8,1.3251601065209413
undo,45,10,0,0,0,0,[0],1,29,"[1, 2, 3, 4, 5, 6, 7, 8, 9, 10, 11, 12, 13, 14, 15, 16, 17, 18, 19, 20, 21, 22, 23, 24, 25, 26, 27, 28, 29]",300,114,-1,1,100,9,0.0
undo,45,10,0,0,0,13,"[0, 13]",2,25,"[1, 2, 3, 4, 6, 7, 8, 9, 10, 11, 12, 14, 17, 18, 19, 20, 21, 22, 23, 24, 25, 26, 27, 28, 29]",249.4628849,3873,3759,1,79,9,1.0
undo,45,10,0,0,0,11,"[0, 13, 11]",3,20,"[1, 2, 3, 6, 7, 8, 9, 10, 12, 14, 18, 19, 20, 21, 22, 24, 26, 27, 28, 29]",206.4512586,4788,915,1,54,9,1.0313137484914219
undo,45,10,0,0,0,19,"[0, 13, 11, 19]",4,11,"[2, 6, 8, 9, 10, 14, 18, 20, 24, 26, 27]",170.0919407,5869,1081,1,22,9,1.0879446220132545
undo,45,10,0,0,0,2,"[0, 13, 11, 19, 2]",5,4,"[14, 20, 26, 27]",126.1829439,7394,1525,1,4,9,1.06474052351343
undo,45,10,0,0,0,14,"[0, 13, 11, 19, 2, 14]",6,3,"[20, 26, 27]",114.0174188,8605,1211,1,3,9,1.1628909195912238
undo,45,10,0,0,0,26,"[0, 13, 11, 19, 2, 14, 26]",7,2,"[20, 27]",79.34754716,10087,1482,1,1,9,1.6660727647633602
undo,45,10,0,0,0,20,"[0, 13, 11, 19, 2, 14, 26, 20]",8,1,[27],47.56704999,11916,1829,1,0,9,2.085581809637999
undo,45,10,0,0,1,27,"[0, 13, 11, 19, 2, 14, 26, 20, 27]",9,0,[],2.312215998,14845,2929,1,0,9,1.9116357409137932
undo,45,10,0,1,1,27,"[0, 13, 11, 19, 2, 14, 26, 20, 27]",9,0,[],2.312215998,15680,835,1,0,9,1.9116357409137932
undo,46,15,0,0,0,0,[0],1,25,"[1, 2, 3, 4, 7, 8, 9, 10, 11, 12, 13, 14, 15, 16, 18, 20, 21, 22, 23, 24, 25, 26, 27, 28, 29]",300,148,-1,4,65,9,0.0
undo,46,15,0,0,0,12,"[0, 12]",2,22,"[1, 2, 3, 4, 7, 8, 9, 10, 11, 13, 14, 15, 16, 18, 21, 22, 23, 24, 26, 27, 28, 29]",213.547701,16708,16560,4,35,9,1.0
undo,46,15,0,0,0,7,"[0, 12, 7]",3,16,"[1, 3, 4, 8, 9, 10, 11, 13, 14, 15, 16, 18, 21, 22, 24, 27]",180.3061607,18239,1531,4,29,9,1.411291635294361
undo,46,15,0,0,0,16,"[0, 12, 7, 16]",4,10,"[3, 4, 10, 11, 13, 14, 15, 18, 21, 22]",136.6484008,19835,1596,2,11,9,1.4308733430458784
undo,46,15,0,0,0,11,"[0, 12, 7, 16, 11]",5,7,"[3, 4, 13, 14, 15, 21, 22]",110.6291772,21073,1238,2,5,9,1.5251025438826007
undo,46,15,0,0,0,3,"[0, 12, 7, 16, 11, 3]",6,5,"[4, 13, 14, 15, 22]",99.22742292,21989,916,2,3,9,1.5166583878170454
undo,46,15,0,0,0,22,"[0, 12, 7, 16, 11, 3, 22]",7,2,"[13, 15]",49.49815588,25040,3051,2,0,9,1.4519711389669923
undo,46,15,0,0,0,15,"[0, 12, 7, 16, 11, 3, 22, 15]",8,1,[13],23.88565893,27312,2272,1,0,9,1.4060225827822495
undo,46,15,0,0,1,13,"[0, 12, 7, 16, 11, 3, 22, 15, 13]",9,0,[],8.621321408,29639,2327,1,0,9,1.4544229719836068
undo,46,15,0,1,1,13,"[0, 12, 7, 16, 11, 3, 22, 15, 13]",9,0,[],8.621321408,30280,641,1,0,9,1.4544229719836068
undo,47,19,0,0,0,0,[0],1,29,"[1, 2, 3, 4, 5, 6, 7, 8, 9, 10, 11, 12, 13, 14, 15, 16, 17, 18, 19, 20, 21, 22, 23, 24, 25, 26, 27, 28, 29]",300,117,-1,12,149,8,0.0
undo,47,19,0,0,0,9,"[0, 9]",2,21,"[1, 4, 5, 6, 7, 10, 11, 12, 13, 14, 15, 19, 20, 21, 22, 23, 24, 25, 27, 28, 29]",185.9956141,3807,3690,13,76,7,1.0
undo,47,19,0,0,0,6,"[0, 9, 6]",3,13,"[4, 7, 10, 11, 13, 14, 20, 21, 22, 24, 27, 28, 29]",144.5589154,4992,1185,13,38,7,1.0111071984935167
undo,47,19,0,0,0,14,"[0, 9, 6, 14]",4,7,"[4, 10, 11, 20, 22, 24, 28]",84.87642216,6721,1729,3,7,7,1.0286990589700116
undo,47,19,0,0,0,11,"[0, 9, 6, 14, 11]",5,5,"[4, 20, 22, 24, 28]",74.05976834,8972,2251,3,2,7,1.0304880434896582
undo,47,19,0,0,0,4,"[0, 9, 6, 14, 11, 4]",6,1,[28],15.92200092,11161,2189,1,0,7,1.7237120693894892
undo,47,19,0,0,1,28,"[0, 9, 6, 14, 11, 4, 28]",7,0,[],4.741661035,13855,2694,1,0,7,1.8016959740189393
undo,47,19,1,0,0,4,"[0, 9, 6, 14, 11, 4]",6,1,[28],15.92200092,19848,5993,1,0,7,1.7237120693894892
undo,47,19,1,0,0,11,"[0, 9, 6, 14, 11]",5,5,"[4, 20, 22, 24, 28]",74.05976834,20081,233,3,2,7,1.0304880434896582
undo,47,19,1,0,0,14,"[0, 9, 6, 14]",4,7,"[4, 10, 11, 20, 22, 24, 28]",84.87642216,20298,217,3,7,7,1.0286990589700116
undo,47,19,1,0,0,6,"[0, 9, 6]",3,13,"[4, 7, 10, 11, 13, 14, 20, 21, 22, 24, 27, 28, 29]",144.5589154,20498,200,13,38,7,1.0111071984935167
undo,47,19,1,0,0,9,"[0, 9]",2,21,"[1, 4, 5, 6, 7, 10, 11, 12, 13, 14, 15, 19, 20, 21, 22, 23, 24, 25, 27, 28, 29]",185.9956141,20731,233,13,76,7,1.0
undo,47,19,1,0,0,0,[0],1,29,"[1, 2, 3, 4, 5, 6, 7, 8, 9, 10, 11, 12, 13, 14, 15, 16, 17, 18, 19, 20, 21, 22, 23, 24, 25, 26, 27, 28, 29]",300,20982,251,12,149,8,0.0
undo,47,19,0,0,0,9,"[0, 9]",2,21,"[1, 4, 5, 6, 7, 10, 11, 12, 13, 14, 15, 19, 20, 21, 22, 23, 24, 25, 27, 28, 29]",185.9956141,23851,2869,13,76,7,1.0
undo,47,19,0,0,0,6,"[0, 9, 6]",3,13,"[4, 7, 10, 11, 13, 14, 20, 21, 22, 24, 27, 28, 29]",144.5589154,27709,3858,13,38,7,1.0111071984935167
undo,47,19,0,0,0,4,"[0, 9, 6, 4]",4,7,"[10, 11, 14, 20, 22, 27, 28]",103.5101639,30396,2687,2,8,7,1.1922496747189233
undo,47,19,0,0,0,28,"[0, 9, 6, 4, 28]",5,4,"[11, 14, 22, 27]",92.32982402,31422,1026,2,2,7,1.2672242257358344
undo,47,19,0,0,0,11,"[0, 9, 6, 4, 28, 11]",6,1,[14],27.79301282,33379,1957,1,0,7,1.2415055237503896
undo,47,19,0,0,1,14,"[0, 9, 6, 4, 28, 11, 14]",7,0,[],16.97635899,34404,1025,1,0,7,1.3533902517640155
undo,47,19,0,1,1,14,"[0, 9, 6, 4, 28, 11, 14]",7,0,[],16.97635899,38413,4009,1,0,7,1.3533902517640155
undo,48,39,0,0,0,0,[0],1,28,"[1, 2, 3, 4, 5, 6, 7, 9, 10, 11, 12, 13, 14, 15, 16, 17, 18, 19, 20, 21, 22, 23, 24, 25, 26, 27, 28, 29]",300,115,-1,1,30,10,0.0
undo,48,39,0,0,0,29,"[0, 29]",2,26,"[1, 2, 3, 4, 5, 6, 7, 9, 10, 12, 13, 14, 15, 16, 17, 18, 19, 20, 21, 22, 23, 24, 25, 26, 27, 28]",243.0614366,4959,4844,8,104,9,1.0
undo,48,39,0,0,0,12,"[0, 29, 12]",3,18,"[1, 2, 4, 5, 7, 9, 10, 13, 14, 15, 16, 18, 19, 22, 23, 24, 26, 28]",182.5221931,6088,1129,5,54,9,1.0026200331524904
undo,48,39,0,0,0,10,"[0, 29, 12, 10]",4,16,"[1, 2, 4, 5, 7, 9, 13, 14, 15, 16, 18, 19, 22, 23, 24, 26]",147.0116313,7419,1331,5,34,9,1.2874817019928908
undo,48,39,0,0,0,7,"[0, 29, 12, 10, 7]",5,10,"[1, 2, 5, 13, 16, 18, 19, 22, 24, 26]",113.5900814,9393,1974,4,12,9,1.2250826263866774
undo,48,39,0,0,0,26,"[0, 29, 12, 10, 7, 26]",6,5,"[1, 16, 18, 19, 22]",94.90853971,10377,984,3,4,9,1.2697275353190085
undo,48,39,0,0,0,22,"[0, 29, 12, 10, 7, 26, 22]",7,2,"[16, 19]",77.18849457,11637,1260,2,0,9,1.438961743955176
undo,48,39,0,0,0,16,"[0, 29, 12, 10, 7, 26, 22, 16]",8,1,[19],42.18849457,13205,1568,1,0,9,1.3580882130477205
undo,48,39,0,0,1,19,"[0, 29, 12, 10, 7, 26, 22, 16, 19]",9,0,[],24.72424537,14789,1584,1,0,9,1.3646589157842668
undo,48,39,0,1,1,19,"[0, 29, 12, 10, 7, 26, 22, 16, 19]",9,0,[],24.72424537,16147,1358,1,0,9,1.3646589157842668
undo,49,45,0,0,0,0,[0],1,24,"[1, 2, 3, 4, 5, 6, 7, 9, 10, 11, 12, 14, 15, 16, 17, 19, 20, 21, 22, 23, 24, 25, 27, 29]",300,116,-1,6,248,10,0.0
undo,49,45,0,0,0,15,"[0, 15]",2,23,"[1, 2, 3, 4, 5, 6, 7, 9, 10, 11, 12, 14, 16, 17, 19, 20, 21, 22, 23, 24, 25, 27, 29]",253.9022777,4419,4303,5,207,10,1.0
undo,49,45,0,0,0,23,"[0, 15, 23]",3,22,"[1, 2, 3, 4, 5, 6, 7, 9, 10, 11, 12, 14, 16, 17, 19, 20, 21, 22, 24, 25, 27, 29]",230.3014303,6722,2303,5,163,10,1.0006068457769497
undo,49,45,0,0,0,20,"[0, 15, 23, 20]",4,19,"[1, 2, 3, 5, 6, 7, 9, 10, 11, 12, 14, 16, 17, 19, 21, 22, 24, 25, 29]",188.8647316,7852,1130,5,137,10,1.2062119754673604
undo,49,45,0,0,0,10,"[0, 15, 23, 20, 10]",5,12,"[2, 3, 6, 7, 9, 12, 14, 17, 22, 24, 25, 29]",132.784432,9876,2024,1,54,10,1.1363907740691004
undo,49,45,0,0,0,29,"[0, 15, 23, 20, 10, 29]",6,8,"[2, 3, 6, 7, 12, 14, 22, 24]",111.2437728,11809,1933,1,21,10,1.1719694806770014
undo,49,45,0,0,0,3,"[0, 15, 23, 20, 10, 29, 3]",7,5,"[2, 6, 7, 12, 22]",91.24377276,12904,1095,1,7,10,1.1637144299354454
undo,49,45,0,0,0,6,"[0, 15, 23, 20, 10, 29, 3, 6]",8,2,"[12, 22]",55.0084309,16136,3232,1,1,10,1.422423644740367
undo,49,45,0,0,0,12,"[0, 15, 23, 20, 10, 29, 3, 6, 12]",9,1,[22],34.8838191,17535,1399,1,0,10,1.395348320526316
undo,49,45,0,0,1,22,"[0, 15, 23, 20, 10, 29, 3, 6, 12, 22]",10,0,[],3.308512292,20222,2687,1,0,10,1.3962454826892252
undo,49,45,0,1,1,22,"[0, 15, 23, 20, 10, 29, 3, 6, 12, 22]",10,0,[],3.308512292,21048,826,1,0,10,1.3962454826892252
undo,50,34,0,0,0,0,[0],1,25,"[1, 3, 4, 5, 6, 7, 8, 9, 10, 11, 12, 13, 15, 18, 19, 20, 21, 22, 23, 24, 25, 26, 27, 28, 29]",300,114,-1,12,367,10,0.0
undo,50,34,0,0,0,1,"[0, 1]",2,17,"[3, 5, 7, 8, 9, 10, 11, 12, 13, 19, 21, 22, 23, 24, 25, 27, 29]",211.9488785,2447,2333,3,92,9,1.0
undo,50,34,1,0,0,0,[0],1,25,"[1, 3, 4, 5, 6, 7, 8, 9, 10, 11, 12, 13, 15, 18, 19, 20, 21, 22, 23, 24, 25, 26, 27, 28, 29]",300,4597,2150,12,367,10,0.0
undo,50,34,0,0,0,13,"[0, 13]",2,24,"[1, 3, 4, 5, 6, 7, 8, 9, 10, 11, 12, 15, 18, 19, 20, 21, 22, 23, 24, 25, 26, 27, 28, 29]",279.9750156,5908,1311,12,331,10,1.0
undo,50,34,0,0,0,1,"[0, 13, 1]",3,16,"[3, 5, 7, 8, 9, 10, 11, 12, 19, 21, 22, 23, 24, 25, 27, 29]",211.8574701,7946,2038,3,92,10,1.0010381285747127
undo,50,34,0,0,0,8,"[0, 13, 1, 8]",4,14,"[3, 5, 7, 9, 10, 11, 12, 19, 22, 23, 24, 25, 27, 29]",201.0871405,9033,1087,2,54,10,1.1636807
undo,50,34,0,0,0,25,"[0, 13, 1, 8, 25]",5,12,"[3, 5, 7, 9, 10, 11, 12, 22, 23, 24, 27, 29]",183.999133,9855,822,2,28,10,1.1396208815936457
undo,50,34,0,0,0,24,"[0, 13, 1, 8, 25, 24]",6,11,"[3, 5, 7, 9, 10, 11, 12, 22, 23, 27, 29]",166.5062774,10653,798,2,23,10,1.374180768736554
undo,50,34,0,0,0,12,"[0, 13, 1, 8, 25, 24, 12]",7,7,"[7, 9, 10, 11, 22, 23, 27]",115.4670767,14005,3352,1,8,10,1.4994254760835948
undo,50,34,0,0,0,7,"[0, 13, 1, 8, 25, 24, 12, 7]",8,5,"[9, 11, 22, 23, 27]",100.4337804,14908,903,1,4,10,1.758992610425009
undo,50,34,0,0,0,23,"[0, 13, 1, 8, 25, 24, 12, 7, 23]",9,1,[27],72.27352467,18169,3261,1,0,10,2.399781305190153
undo,50,34,0,0,1,27,"[0, 13, 1, 8, 25, 24, 12, 7, 23, 27]",10,0,[],18.60789321,19907,1738,1,0,10,4.766619878750327
undo,50,34,0,1,1,27,"[0, 13, 1, 8, 25, 24, 12, 7, 23, 27]",10,0,[],18.60789321,21829,1922,1,0,10,4.766619878750327
undo,51,23,0,0,0,0,[0],1,28,"[1, 2, 3, 4, 5, 6, 7, 8, 9, 10, 11, 12, 13, 14, 15, 16, 17, 18, 19, 20, 21, 22, 23, 25, 26, 27, 28, 29]",300,116,-1,76,2626,10,0.0
undo,51,23,0,0,0,27,"[0, 27]",2,11,"[2, 6, 7, 9, 10, 12, 13, 14, 18, 22, 29]",156.8217894,2908,2792,6,455,9,1.0
undo,51,23,0,0,0,6,"[0, 27, 6]",3,10,"[2, 7, 9, 10, 12, 13, 14, 18, 22, 29]",128.519846,4214,1306,6,168,9,1.1413510010705277
undo,51,23,0,0,0,2,"[0, 27, 6, 2]",4,8,"[7, 9, 12, 13, 14, 18, 22, 29]",110.0807571,5173,959,3,50,9,1.3917699979429488
undo,51,23,0,0,0,12,"[0, 27, 6, 2, 12]",5,7,"[7, 9, 13, 14, 18, 22, 29]",96.18831307,6376,1203,1,16,9,1.6625644519568523
undo,51,23,0,0,0,13,"[0, 27, 6, 2, 12, 13]",6,5,"[9, 14, 18, 22, 29]",84.10526709,7621,1245,1,4,9,1.9506259737980345
undo,51,23,0,0,1,22,"[0, 27, 6, 2, 12, 13, 22]",7,0,[],41.91522087,9945,2324,1,0,7,2.8836738171935554
undo,51,23,1,0,0,13,"[0, 27, 6, 2, 12, 13]",6,5,"[9, 14, 18, 22, 29]",84.10526709,11748,1803,1,4,9,1.9506259737980345
undo,51,23,0,0,0,9,"[0, 27, 6, 2, 12, 13, 9]",7,3,"[14, 22, 29]",60.08444279,13872,2124,1,2,9,1.8363453994915562
undo,51,23,0,0,0,14,"[0, 27, 6, 2, 12, 13, 9, 14]",8,1,[29],49.64413629,15108,1236,1,0,9,1.7769594285688837
undo,51,23,0,0,1,29,"[0, 27, 6, 2, 12, 13, 9, 14, 29]",9,0,[],2.209971383,17491,2383,1,0,9,1.931097609943655
undo,51,23,0,1,1,29,"[0, 27, 6, 2, 12, 13, 9, 14, 29]",9,0,[],2.209971383,18865,1374,1,0,9,1.931097609943655
undo,52,33,0,0,0,0,[0],1,23,"[1, 2, 5, 7, 8, 11, 12, 13, 14, 15, 16, 17, 18, 19, 20, 21, 23, 24, 25, 26, 27, 28, 29]",300,115,-1,5,108,9,0.0
undo,52,33,0,0,0,21,"[0, 21]",2,17,"[2, 5, 7, 8, 11, 13, 14, 16, 17, 18, 19, 20, 24, 26, 27, 28, 29]",174.4611614,6906,6791,21,129,8,1.0
undo,52,33,0,0,0,17,"[0, 21, 17]",3,12,"[2, 7, 11, 13, 14, 16, 18, 19, 20, 24, 26, 29]",135.8218032,9307,2401,3,35,8,1.0302064673538902
undo,52,33,0,0,0,13,"[0, 21, 17, 13]",4,10,"[2, 7, 11, 14, 16, 19, 20, 24, 26, 29]",113.0182947,10538,1231,3,18,8,1.2307555582916028
undo,52,33,0,0,0,19,"[0, 21, 17, 13, 19]",5,6,"[7, 14, 16, 24, 26, 29]",87.52319715,11805,1267,3,6,8,1.267959080158969
undo,52,33,0,0,0,7,"[0, 21, 17, 13, 19, 7]",6,3,"[14, 24, 26]",41.90521823,13132,1327,2,1,8,1.2111387775864462
undo,52,33,0,0,0,14,"[0, 21, 17, 13, 19, 7, 14]",7,1,[26],27.03914949,14432,1300,1,0,8,1.2582047812090849
undo,52,33,0,0,1,26,"[0, 21, 17, 13, 19, 7, 14, 26]",8,0,[],14.39003885,15372,940,1,0,8,1.2624145644521343
undo,52,33,1,0,0,14,"[0, 21, 17, 13, 19, 7, 14]",7,1,[26],27.03914949,26130,10758,1,0,8,1.2582047812090849
undo,52,33,1,0,0,7,"[0, 21, 17, 13, 19, 7]",6,3,"[14, 24, 26]",41.90521823,26313,183,2,1,8,1.2111387775864462
undo,52,33,1,0,0,19,"[0, 21, 17, 13, 19]",5,6,"[7, 14, 16, 24, 26, 29]",87.52319715,26497,184,3,6,8,1.267959080158969
undo,52,33,1,0,0,13,"[0, 21, 17, 13]",4,10,"[2, 7, 11, 14, 16, 19, 20, 24, 26, 29]",113.0182947,26664,167,3,18,8,1.2307555582916028
undo,52,33,1,0,0,17,"[0, 21, 17]",3,12,"[2, 7, 11, 13, 14, 16, 18, 19, 20, 24, 26, 29]",135.8218032,26847,183,3,35,8,1.0302064673538902
undo,52,33,0,0,0,20,"[0, 21, 17, 20]",4,6,"[2, 11, 13, 14, 26, 29]",78.55051896,29061,2214,3,4,6,1.0713555682987053
undo,52,33,0,0,0,11,"[0, 21, 17, 20, 11]",5,1,[29],59.44554579,29911,850,1,0,6,1.0834027740395407
undo,52,33,0,0,1,29,"[0, 21, 17, 20, 11, 29]",6,0,[],22.22995766,31087,1176,1,0,6,1.3205453044258433
undo,52,33,1,0,0,11,"[0, 21, 17, 20, 11]",5,1,[29],59.44554579,33130,2043,1,0,6,1.0834027740395407
undo,52,33,1,0,0,20,"[0, 21, 17, 20]",4,6,"[2, 11, 13, 14, 26, 29]",78.55051896,33347,217,3,4,6,1.0713555682987053
undo,52,33,0,0,0,29,"[0, 21, 17, 20, 29]",5,2,"[14, 26]",33.27359327,35704,2357,2,0,6,1.2680428062236626
undo,52,33,0,0,1,14,"[0, 21, 17, 20, 29, 14]",6,0,[],1.872956335,37131,1427,1,0,6,1.3742075870813952
undo,52,33,1,0,0,29,"[0, 21, 17, 20, 29]",5,2,"[14, 26]",33.27359327,39963,2832,2,0,6,1.2680428062236626
undo,52,33,1,0,0,20,"[0, 21, 17, 20]",4,6,"[2, 11, 13, 14, 26, 29]",78.55051896,40146,183,3,4,6,1.0713555682987053
undo,52,33,1,0,0,17,"[0, 21, 17]",3,12,"[2, 7, 11, 13, 14, 16, 18, 19, 20, 24, 26, 29]",135.8218032,40563,417,3,35,8,1.0302064673538902
undo,52,33,0,0,0,29,"[0, 21, 17, 29]",4,8,"[7, 11, 13, 14, 19, 20, 24, 26]",84.34365251,42584,2021,8,6,7,1.0252508681226402
undo,52,33,0,0,0,26,"[0, 21, 17, 29, 26]",5,3,"[7, 14, 24]",56.45100115,43450,866,3,1,7,1.0765023813175085
undo,52,33,0,0,0,14,"[0, 21, 17, 29, 26, 14]",6,1,[7],43.80189051,44285,835,1,0,7,1.1809374336824072
undo,52,33,0,0,1,7,"[0, 21, 17, 29, 26, 14, 7]",7,0,[],28.93582176,45768,1483,1,0,7,1.2719991284970185
undo,52,33,1,0,0,14,"[0, 21, 17, 29, 26, 14]",6,1,[7],43.80189051,50713,4945,1,0,7,1.1809374336824072
undo,52,33,1,0,0,26,"[0, 21, 17, 29, 26]",5,3,"[7, 14, 24]",56.45100115,50912,199,3,1,7,1.0765023813175085
undo,52,33,1,0,0,29,"[0, 21, 17, 29]",4,8,"[7, 11, 13, 14, 19, 20, 24, 26]",84.34365251,51429,517,8,6,7,1.0252508681226402
undo,52,33,1,0,0,17,"[0, 21, 17]",3,12,"[2, 7, 11, 13, 14, 16, 18, 19, 20, 24, 26, 29]",135.8218032,51779,350,3,35,8,1.0302064673538902
undo,52,33,0,0,0,13,"[0, 21, 17, 13]",4,10,"[2, 7, 11, 14, 16, 19, 20, 24, 26, 29]",113.0182947,53385,1606,3,18,8,1.2307555582916028
undo,52,33,0,0,0,19,"[0, 21, 17, 13, 19]",5,6,"[7, 14, 16, 24, 26, 29]",87.52319715,54408,1023,3,6,8,1.267959080158969
undo,52,33,0,0,0,7,"[0, 21, 17, 13, 19, 7]",6,3,"[14, 24, 26]",41.90521823,57302,2894,2,1,8,1.2111387775864462
undo,52,33,0,0,0,14,"[0, 21, 17, 13, 19, 7, 14]",7,1,[26],27.03914949,58473,1171,1,0,8,1.2582047812090849
undo,52,33,0,0,1,26,"[0, 21, 17, 13, 19, 7, 14, 26]",8,0,[],14.39003885,60183,1710,1,0,8,1.2624145644521343
undo,52,33,0,1,1,26,"[0, 21, 17, 13, 19, 7, 14, 26]",8,0,[],14.39003885,60878,695,1,0,8,1.2624145644521343
undo,53,13,0,0,0,0,[0],1,29,"[1, 2, 3, 4, 5, 6, 7, 8, 9, 10, 11, 12, 13, 14, 15, 16, 17, 18, 19, 20, 21, 22, 23, 24, 25, 26, 27, 28, 29]",300,114,-1,60,2676,11,0.0
undo,53,13,0,0,0,2,"[0, 2]",2,21,"[1, 3, 4, 6, 7, 9, 11, 12, 13, 15, 16, 17, 19, 20, 21, 23, 24, 26, 27, 28, 29]",190.4098545,2609,2495,11,426,9,1.0
undo,53,13,1,0,0,0,[0],1,29,"[1, 2, 3, 4, 5, 6, 7, 8, 9, 10, 11, 12, 13, 14, 15, 16, 17, 18, 19, 20, 21, 22, 23, 24, 25, 26, 27, 28, 29]",300,5881,3272,60,2676,11,0.0
undo,53,13,0,0,0,24,"[0, 24]",2,28,"[1, 2, 3, 4, 5, 6, 7, 8, 9, 10, 11, 12, 13, 14, 15, 16, 17, 18, 19, 20, 21, 22, 23, 25, 26, 27, 28, 29]",288.8196601,8123,2242,16,1444,11,1.0
undo,53,13,0,0,0,23,"[0, 24, 23]",3,27,"[1, 2, 3, 4, 5, 6, 7, 8, 9, 10, 11, 12, 13, 14, 15, 16, 17, 18, 19, 20, 21, 22, 25, 26, 27, 28, 29]",243.1140806,9927,1804,2,868,11,1.0065545717039834
undo,53,13,0,0,0,2,"[0, 24, 23, 2]",4,16,"[1, 3, 6, 7, 9, 11, 12, 13, 15, 16, 17, 19, 21, 26, 28, 29]",156.7427891,12920,2993,23,256,10,1.3072088753144384
undo,53,13,0,0,0,29,"[0, 24, 23, 2, 29]",5,15,"[1, 3, 6, 7, 9, 11, 12, 13, 15, 16, 17, 19, 21, 26, 28]",145.0380891,13954,1034,20,77,10,1.3922166929704625
undo,53,13,0,0,0,7,"[0, 24, 23, 2, 29, 7]",6,11,"[1, 3, 6, 11, 13, 15, 16, 17, 19, 26, 28]",129.7737516,15169,1215,9,29,10,1.6171736175861986
undo,53,13,0,0,0,26,"[0, 24, 23, 2, 29, 7, 26]",7,9,"[1, 3, 6, 11, 13, 16, 17, 19, 28]",119.3334451,16038,869,5,10,10,1.8884088712600096
undo,53,13,0,0,0,6,"[0, 24, 23, 2, 29, 7, 26, 6]",8,5,"[11, 13, 16, 17, 28]",99.23369387,18446,2408,3,4,10,1.84906570913503
undo,53,13,0,0,0,11,"[0, 24, 23, 2, 29, 7, 26, 6, 11]",9,3,"[13, 17, 28]",80.1287207,19506,1060,3,0,10,1.7236458399642371
undo,53,13,0,0,1,17,"[0, 24, 23, 2, 29, 7, 26, 6, 11, 17]",10,0,[],8.539615382,23728,4222,1,0,10,1.4666263081874444
undo,53,13,1,0,0,11,"[0, 24, 23, 2, 29, 7, 26, 6, 11]",9,3,"[13, 17, 28]",80.1287207,28714,4986,3,0,10,1.7236458399642371
undo,53,13,1,0,0,6,"[0, 24, 23, 2, 29, 7, 26, 6]",8,5,"[11, 13, 16, 17, 28]",99.23369387,28914,200,3,4,10,1.84906570913503
undo,53,13,1,0,0,26,"[0, 24, 23, 2, 29, 7, 26]",7,9,"[1, 3, 6, 11, 13, 16, 17, 19, 28]",119.3334451,29082,168,5,10,10,1.8884088712600096
undo,53,13,1,0,0,7,"[0, 24, 23, 2, 29, 7]",6,11,"[1, 3, 6, 11, 13, 15, 16, 17, 19, 26, 28]",129.7737516,29231,149,9,29,10,1.6171736175861986
undo,53,13,1,0,0,29,"[0, 24, 23, 2, 29]",5,15,"[1, 3, 6, 7, 9, 11, 12, 13, 15, 16, 17, 19, 21, 26, 28]",145.0380891,29398,167,20,77,10,1.3922166929704625
undo,53,13,1,0,0,2,"[0, 24, 23, 2]",4,16,"[1, 3, 6, 7, 9, 11, 12, 13, 15, 16, 17, 19, 21, 26, 28, 29]",156.7427891,29598,200,23,256,10,1.3072088753144384
undo,53,13,1,0,0,23,"[0, 24, 23]",3,27,"[1, 2, 3, 4, 5, 6, 7, 8, 9, 10, 11, 12, 13, 14, 15, 16, 17, 18, 19, 20, 21, 22, 25, 26, 27, 28, 29]",243.1140806,29881,283,2,868,11,1.0065545717039834
undo,53,13,1,0,0,24,"[0, 24]",2,28,"[1, 2, 3, 4, 5, 6, 7, 8, 9, 10, 11, 12, 13, 14, 15, 16, 17, 18, 19, 20, 21, 22, 23, 25, 26, 27, 28, 29]",288.8196601,30580,699,16,1444,11,1.0
undo,53,13,0,0,0,28,"[0, 24, 28]",3,23,"[1, 2, 3, 4, 6, 7, 8, 9, 10, 11, 12, 13, 15, 16, 17, 19, 20, 21, 22, 23, 26, 27, 29]",222.5324064,32660,2080,8,243,11,1.0513810491680837
undo,53,13,0,0,0,2,"[0, 24, 28, 2]",4,19,"[1, 3, 4, 6, 7, 9, 11, 12, 13, 15, 16, 17, 19, 20, 21, 23, 26, 27, 29]",184.889346,34234,1574,7,110,11,1.050374132001543
undo,53,13,0,0,0,29,"[0, 24, 28, 2, 29]",5,18,"[1, 3, 4, 6, 7, 9, 11, 12, 13, 15, 16, 17, 19, 20, 21, 23, 26, 27]",173.1846461,35054,820,7,85,11,1.1393409619120594
undo,53,13,0,0,0,7,"[0, 24, 28, 2, 29, 7]",6,17,"[1, 3, 4, 6, 9, 11, 12, 13, 15, 16, 17, 19, 20, 21, 23, 26, 27]",157.9203086,35986,932,5,45,11,1.349777315111579
undo,53,13,0,0,0,26,"[0, 24, 28, 2, 29, 7, 26]",7,16,"[1, 3, 4, 6, 9, 11, 12, 13, 15, 16, 17, 19, 20, 21, 23, 27]",147.480002,37455,1469,5,25,11,1.5942082773824946
undo,53,13,0,0,0,6,"[0, 24, 28, 2, 29, 7, 26, 6]",8,12,"[1, 3, 4, 11, 13, 15, 16, 17, 19, 20, 23, 27]",127.3802508,38450,995,4,12,11,1.5898347940840756
undo,53,13,0,0,0,11,"[0, 24, 28, 2, 29, 7, 26, 6, 11]",9,6,"[1, 13, 15, 16, 17, 23]",108.2752776,39959,1509,3,4,11,1.5029953945561012
undo,53,13,0,0,0,17,"[0, 24, 28, 2, 29, 7, 26, 6, 11, 17]",10,1,[13],36.68617231,42334,2375,1,0,11,1.324993060397683
undo,53,13,0,0,1,13,"[0, 24, 28, 2, 29, 7, 26, 6, 11, 17, 13]",11,0,[],3.309533775,43694,1360,1,0,11,1.6349870606446535
undo,53,13,0,1,1,13,"[0, 24, 28, 2, 29, 7, 26, 6, 11, 17, 13]",11,0,[],3.309533775,44613,919,1,0,11,1.6349870606446535
undo,54,1,0,0,0,0,[0],1,26,"[1, 2, 4, 5, 7, 8, 9, 10, 11, 12, 13, 14, 15, 16, 17, 18, 19, 20, 21, 22, 23, 24, 25, 26, 28, 29]",300,114,-1,6,74,7,0.0
undo,54,1,0,0,0,20,"[0, 20]",2,13,"[1, 4, 5, 8, 11, 13, 14, 15, 17, 18, 19, 28, 29]",129.961769,8071,7957,2,11,6,1.0
undo,54,1,0,0,0,5,"[0, 20, 5]",3,9,"[1, 4, 8, 11, 13, 17, 18, 19, 29]",108.4908585,9344,1273,2,6,6,1.0224915251419384
undo,54,1,0,0,0,18,"[0, 20, 5, 18]",4,4,"[4, 13, 17, 29]",85.66543403,10652,1308,2,3,6,1.064078468417926
undo,54,1,0,0,0,4,"[0, 20, 5, 18, 4]",5,2,"[13, 29]",46.71674984,12498,1846,2,0,6,1.0731955739217967
undo,54,1,0,0,1,13,"[0, 20, 5, 18, 4, 13]",6,0,[],2.332067799,14878,2380,1,0,6,1.0623276828380515
undo,54,1,1,0,0,4,"[0, 20, 5, 18, 4]",5,2,"[13, 29]",46.71674984,16363,1485,2,0,6,1.0731955739217967
undo,54,1,1,0,0,18,"[0, 20, 5, 18]",4,4,"[4, 13, 17, 29]",85.66543403,16530,167,2,3,6,1.064078468417926
undo,54,1,1,0,0,5,"[0, 20, 5]",3,9,"[1, 4, 8, 11, 13, 17, 18, 19, 29]",108.4908585,16713,183,2,6,6,1.0224915251419384
undo,54,1,1,0,0,20,"[0, 20]",2,13,"[1, 4, 5, 8, 11, 13, 14, 15, 17, 18, 19, 28, 29]",129.961769,16913,200,2,11,6,1.0
undo,54,1,1,0,0,0,[0],1,26,"[1, 2, 4, 5, 7, 8, 9, 10, 11, 12, 13, 14, 15, 16, 17, 18, 19, 20, 21, 22, 23, 24, 25, 26, 28, 29]",300,17213,300,6,74,7,0.0
