condition,trial_id,map_id,undoIndicator,submit,checkEnd,currentChoice,chosen_all,n_city_all,n_within_reach,cities_reach,currentBudget,time_all,rt_all,n_opt_paths_all,n_subopt_paths_all,mas_all,tortuosity_all
basic,0,18,0,0,0,0,[0],1,28,"[1, 2, 3, 4, 5, 6, 7, 8, 9, 10, 11, 12, 13, 14, 16, 17, 18, 19, 20, 21, 22, 23, 24, 25, 26, 27, 28, 29]",300,113,-1,3,136,10,0.0
basic,0,18,0,0,0,28,"[0, 28]",2,16,"[1, 3, 5, 7, 8, 9, 12, 13, 14, 16, 20, 23, 24, 25, 26, 27]",236.4311397,10225,10112,2,19,10,1.0
basic,0,18,0,0,0,7,"[0, 28, 7]",3,15,"[1, 3, 5, 8, 9, 12, 13, 14, 16, 20, 23, 24, 25, 26, 27]",214.4084242,11288,1063,2,17,10,1.4345180696367563
basic,0,18,0,0,0,25,"[0, 28, 7, 25]",4,13,"[1, 3, 5, 8, 9, 12, 13, 14, 16, 20, 23, 26, 27]",186.6055466,12255,967,2,15,10,1.8896451241781882
basic,0,18,0,0,0,13,"[0, 28, 7, 25, 13]",5,10,"[3, 5, 8, 9, 12, 14, 16, 23, 26, 27]",141.3286209,13653,1398,5,21,9,1.6878978848273398
basic,0,18,0,0,0,14,"[0, 28, 7, 25, 13, 14]",6,8,"[3, 5, 8, 9, 12, 23, 26, 27]",122.354955,14672,1019,3,7,9,1.584538278883837
basic,0,18,0,0,0,3,"[0, 28, 7, 25, 13, 14, 3]",7,4,"[5, 8, 12, 27]",92.27173704,17311,2639,2,2,9,1.6974526704451494
basic,0,18,0,0,0,5,"[0, 28, 7, 25, 13, 14, 3, 5]",8,1,[12],34.09098421,18920,1609,1,0,9,1.4877556777221013
basic,0,18,0,0,1,12,"[0, 28, 7, 25, 13, 14, 3, 5, 12]",9,0,[],22.68922996,19640,720,1,0,9,1.4946164653546268
basic,0,18,0,1,1,12,"[0, 28, 7, 25, 13, 14, 3, 5, 12]",9,0,[],22.68922996,24014,4374,1,0,9,1.4946164653546268
basic,1,20,0,0,0,0,[0],1,21,"[1, 2, 3, 4, 5, 6, 7, 8, 9, 12, 17, 18, 20, 21, 22, 23, 25, 26, 27, 28, 29]",300,116,-1,1,9,9,0.0
basic,1,20,0,0,0,5,"[0, 5]",2,14,"[1, 3, 4, 6, 8, 9, 12, 20, 21, 23, 26, 27, 28, 29]",174.3576505,7608,7492,3,24,7,1.0
basic,1,20,0,0,0,21,"[0, 5, 21]",3,10,"[1, 4, 6, 8, 9, 20, 23, 26, 27, 28]",129.3576505,8439,831,3,13,7,1.000374735486217
basic,1,20,0,0,0,8,"[0, 5, 21, 8]",4,6,"[1, 6, 9, 23, 27, 28]",111.8934013,9205,766,3,7,7,1.0232558372988163
basic,1,20,0,0,0,23,"[0, 5, 21, 8, 23]",5,4,"[6, 9, 27, 28]",67.20559531,12056,2851,2,2,7,1.022001720978389
basic,1,20,0,0,0,9,"[0, 5, 21, 8, 23, 9]",6,1,[6],47.9962226,12912,856,1,0,7,1.0216742507052117
basic,1,20,0,0,1,6,"[0, 5, 21, 8, 23, 9, 6]",7,0,[],24.97449373,15922,3010,1,0,7,1.037647415066349
basic,1,20,0,1,1,6,"[0, 5, 21, 8, 23, 9, 6]",7,0,[],24.97449373,19382,3460,1,0,7,1.037647415066349
basic,2,17,0,0,0,0,[0],1,28,"[1, 2, 3, 4, 5, 6, 7, 8, 9, 10, 11, 12, 13, 14, 15, 16, 17, 18, 19, 20, 22, 23, 24, 25, 26, 27, 28, 29]",300,116,-1,2,73,8,0.0
basic,2,17,0,0,0,9,"[0, 9]",2,25,"[1, 2, 3, 5, 6, 7, 8, 10, 11, 12, 14, 15, 16, 17, 18, 19, 20, 22, 23, 24, 25, 26, 27, 28, 29]",210.5293344,8664,8548,1,34,8,1.0
basic,2,17,0,0,0,16,"[0, 9, 16]",3,21,"[1, 2, 3, 5, 7, 8, 10, 11, 12, 14, 17, 18, 19, 20, 22, 23, 25, 26, 27, 28, 29]",197.1876704,10696,2032,1,26,8,1.173103464220352
basic,2,17,0,0,0,2,"[0, 9, 16, 2]",4,18,"[1, 3, 5, 7, 8, 10, 11, 12, 14, 17, 18, 19, 23, 25, 26, 27, 28, 29]",181.0631549,11832,1136,1,23,8,1.14825089247282
basic,2,17,0,0,0,17,"[0, 9, 16, 2, 17]",5,7,"[7, 8, 12, 14, 26, 27, 29]",142.7356191,13216,1384,4,5,7,1.4896040699768547
basic,2,17,0,0,0,8,"[0, 9, 16, 2, 17, 8]",6,3,"[7, 12, 27]",104.5256727,15447,2231,3,0,7,1.4604726966175894
basic,2,17,0,0,1,27,"[0, 9, 16, 2, 17, 8, 27]",7,0,[],21.88790895,19840,4393,1,0,7,1.2949460667276491
basic,2,17,0,1,1,27,"[0, 9, 16, 2, 17, 8, 27]",7,0,[],21.88790895,25800,5960,1,0,7,1.2949460667276491
basic,3,19,0,0,0,0,[0],1,29,"[1, 2, 3, 4, 5, 6, 7, 8, 9, 10, 11, 12, 13, 14, 15, 16, 17, 18, 19, 20, 21, 22, 23, 24, 25, 26, 27, 28, 29]",300,132,-1,12,149,8,0.0
basic,3,19,0,0,0,29,"[0, 29]",2,28,"[1, 2, 3, 4, 5, 6, 7, 8, 9, 10, 11, 12, 13, 14, 15, 16, 17, 18, 19, 20, 21, 22, 23, 24, 25, 26, 27, 28]",265.0715016,16542,16410,12,120,8,1.0
basic,3,19,0,0,0,13,"[0, 29, 13]",3,16,"[1, 2, 3, 6, 7, 8, 9, 10, 12, 17, 18, 19, 21, 23, 25, 26]",155.7828929,19677,3135,13,26,7,1.0287584179832434
basic,3,19,0,0,0,19,"[0, 29, 13, 19]",4,10,"[1, 3, 8, 12, 17, 18, 21, 23, 25, 26]",119.4373292,22484,2807,3,10,7,1.088418374451737
basic,3,19,0,0,0,1,"[0, 29, 13, 19, 1]",5,4,"[3, 12, 23, 25]",85.37855645,24938,2454,1,3,7,1.6044697394741576
basic,3,19,0,0,0,23,"[0, 29, 13, 19, 1, 23]",6,1,[3],28.62470195,26758,1820,1,0,7,1.5092718125018332
basic,3,19,0,0,1,3,"[0, 29, 13, 19, 1, 23, 3]",7,0,[],6.692989752,28557,1799,1,0,7,1.4554252577615427
basic,3,19,0,1,1,3,"[0, 29, 13, 19, 1, 23, 3]",7,0,[],6.692989752,31732,3175,1,0,7,1.4554252577615427
basic,4,11,0,0,0,0,[0],1,25,"[1, 2, 3, 4, 5, 6, 8, 9, 10, 11, 12, 13, 14, 15, 16, 17, 18, 19, 20, 22, 23, 25, 26, 27, 28]",300,115,-1,6,374,12,0.0
basic,4,11,0,0,0,17,"[0, 17]",2,18,"[1, 2, 4, 5, 6, 8, 10, 11, 12, 15, 18, 19, 22, 23, 25, 26, 27, 28]",152.9217895,7648,7533,218,762,9,1.0
basic,4,11,0,0,0,8,"[0, 17, 8]",3,15,"[1, 2, 4, 5, 6, 11, 12, 15, 18, 19, 22, 23, 25, 27, 28]",138.6039684,8706,1058,95,263,9,1.1114912532636003
basic,4,11,0,0,0,15,"[0, 17, 8, 15]",4,11,"[2, 5, 6, 11, 12, 18, 19, 22, 25, 27, 28]",125.1503444,10111,1405,62,51,9,1.1146194627724886
basic,4,11,0,0,0,11,"[0, 17, 8, 15, 11]",5,9,"[2, 5, 6, 12, 19, 22, 25, 27, 28]",107.0395741,11191,1080,24,2,9,1.1130192047684102
basic,4,11,0,0,0,22,"[0, 17, 8, 15, 11, 22]",6,4,"[2, 5, 19, 28]",73.61802419,14956,3765,6,0,9,1.2007499763074991
basic,4,11,0,0,0,2,"[0, 17, 8, 15, 11, 22, 2]",7,2,"[5, 28]",63.56814857,16389,1433,2,0,9,1.32463653466919
basic,4,11,0,0,0,28,"[0, 17, 8, 15, 11, 22, 2, 28]",8,1,[5],52.93800276,17256,867,1,0,9,1.4297291575646118
basic,4,11,0,0,1,5,"[0, 17, 8, 15, 11, 22, 2, 28, 5]",9,0,[],35.04945894,18902,1646,1,0,9,1.6285310515220563
basic,4,11,0,1,1,5,"[0, 17, 8, 15, 11, 22, 2, 28, 5]",9,0,[],35.04945894,28283,9381,1,0,9,1.6285310515220563
basic,5,4,0,0,0,0,[0],1,26,"[3, 4, 5, 6, 7, 8, 10, 11, 12, 13, 14, 15, 16, 17, 18, 19, 20, 21, 22, 23, 24, 25, 26, 27, 28, 29]",300,115,-1,4,489,10,0.0
basic,5,4,0,0,0,28,"[0, 28]",2,21,"[3, 4, 5, 6, 10, 11, 12, 13, 14, 15, 16, 17, 19, 20, 21, 22, 23, 24, 25, 26, 27]",225.9392142,6379,6264,2,216,10,1.0
basic,5,4,0,0,0,14,"[0, 28, 14]",3,13,"[3, 4, 5, 6, 11, 13, 16, 17, 20, 21, 22, 24, 25]",159.6972335,11426,5047,1,26,10,1.0273973946789214
basic,5,4,0,0,0,25,"[0, 28, 14, 25]",4,12,"[3, 4, 5, 6, 11, 13, 16, 17, 20, 21, 22, 24]",143.572718,12562,1136,1,25,10,1.233547772313525
basic,5,4,0,0,0,11,"[0, 28, 14, 25, 11]",5,10,"[3, 4, 5, 6, 13, 16, 17, 20, 21, 22]",124.7844238,13722,1160,1,15,10,1.425978575879479
basic,5,4,0,0,0,16,"[0, 28, 14, 25, 11, 16]",6,9,"[3, 4, 5, 6, 13, 17, 20, 21, 22]",109.7844238,15373,1651,1,12,10,1.3799325158051412
basic,5,4,0,0,0,17,"[0, 28, 14, 25, 11, 16, 17]",7,5,"[3, 5, 20, 21, 22]",83.70761416,16507,1134,1,5,10,1.3195184878861832
basic,5,4,0,0,0,20,"[0, 28, 14, 25, 11, 16, 17, 20]",8,3,"[5, 21, 22]",43.48324344,23075,6568,1,2,10,1.4038284317031835
basic,5,4,0,0,1,5,"[0, 28, 14, 25, 11, 16, 17, 20, 5]",9,0,[],13.06943079,24827,1752,1,0,9,1.4533021046455652
basic,5,4,0,1,1,5,"[0, 28, 14, 25, 11, 16, 17, 20, 5]",9,0,[],13.06943079,33117,8290,1,0,9,1.4533021046455652
basic,6,21,0,0,0,0,[0],1,29,"[1, 2, 3, 4, 5, 6, 7, 8, 9, 10, 11, 12, 13, 14, 15, 16, 17, 18, 19, 20, 21, 22, 23, 24, 25, 26, 27, 28, 29]",300,116,-1,84,830,9,0.0
basic,6,21,0,0,0,25,"[0, 25]",2,26,"[1, 2, 3, 4, 5, 6, 7, 8, 9, 10, 11, 12, 13, 14, 15, 16, 17, 18, 20, 21, 22, 23, 24, 26, 27, 29]",240.1836143,6909,6793,30,238,9,1.0
basic,6,21,0,0,0,23,"[0, 25, 23]",3,21,"[1, 2, 4, 6, 7, 8, 9, 10, 11, 12, 14, 15, 16, 17, 18, 20, 21, 22, 24, 27, 29]",196.8592562,8272,1363,14,80,9,1.0416131642057598
basic,6,21,0,0,0,21,"[0, 25, 23, 21]",4,14,"[1, 4, 6, 8, 9, 14, 15, 16, 17, 18, 20, 22, 24, 29]",167.2450705,10724,2452,10,25,9,1.4768792067751173
basic,6,21,0,0,0,14,"[0, 25, 23, 21, 14]",5,10,"[4, 8, 9, 15, 16, 17, 18, 22, 24, 29]",141.6325735,12412,1688,8,13,9,1.3826076066332742
basic,6,21,0,0,0,4,"[0, 25, 23, 21, 14, 4]",6,7,"[8, 15, 16, 17, 18, 24, 29]",127.4904379,15492,3080,8,3,9,1.3487191473328533
basic,6,21,0,0,0,16,"[0, 25, 23, 21, 14, 4, 16]",7,3,"[8, 15, 24]",82.89223163,16844,1352,4,1,9,1.3301484172843694
basic,6,21,0,0,0,8,"[0, 25, 23, 21, 14, 4, 16, 8]",8,2,"[15, 24]",64.2911564,18548,1704,2,0,9,1.3009886562393016
basic,6,21,0,0,1,15,"[0, 25, 23, 21, 14, 4, 16, 8, 15]",9,0,[],39.2911564,21380,2832,1,0,9,1.5486591410600183
basic,6,21,0,1,1,15,"[0, 25, 23, 21, 14, 4, 16, 8, 15]",9,0,[],39.2911564,25500,4120,1,0,9,1.5486591410600183
basic,7,45,0,0,0,0,[0],1,24,"[1, 2, 3, 4, 5, 6, 7, 9, 10, 11, 12, 14, 15, 16, 17, 19, 20, 21, 22, 23, 24, 25, 27, 29]",300,117,-1,6,248,10,0.0
basic,7,45,0,0,0,20,"[0, 20]",2,22,"[1, 2, 3, 4, 5, 6, 7, 9, 10, 11, 12, 14, 15, 16, 17, 19, 21, 22, 23, 24, 25, 29]",207.8642306,8949,8832,1,73,9,1.0
basic,7,45,0,0,0,10,"[0, 20, 10]",3,17,"[2, 3, 4, 6, 7, 9, 12, 14, 15, 16, 17, 19, 22, 23, 24, 25, 29]",151.783931,10694,1745,28,123,8,1.0072708862872697
basic,7,45,0,0,0,29,"[0, 20, 10, 29]",4,15,"[2, 3, 4, 6, 7, 9, 12, 14, 15, 16, 17, 19, 22, 23, 24]",130.2432718,15398,4704,14,33,8,1.0540033965564493
basic,7,45,0,0,0,6,"[0, 20, 10, 29, 6]",5,5,"[2, 3, 7, 12, 22]",102.0830161,17874,2476,3,8,8,1.1491081045329676
basic,7,45,0,0,0,12,"[0, 20, 10, 29, 6, 12]",6,3,"[2, 3, 22]",81.95840434,19040,1166,2,1,8,1.1475873455789474
basic,7,45,0,0,0,3,"[0, 20, 10, 29, 6, 12, 3]",7,1,[2],33.87514322,20430,1390,1,0,8,1.4835166360970196
basic,7,45,0,0,1,2,"[0, 20, 10, 29, 6, 12, 3, 2]",8,0,[],8.557165415,22262,1832,1,0,8,1.7388187820487788
basic,7,45,0,1,1,2,"[0, 20, 10, 29, 6, 12, 3, 2]",8,0,[],8.557165415,25218,2956,1,0,8,1.7388187820487788
basic,8,16,0,0,0,0,[0],1,29,"[1, 2, 3, 4, 5, 6, 7, 8, 9, 10, 11, 12, 13, 14, 15, 16, 17, 18, 19, 20, 21, 22, 23, 24, 25, 26, 27, 28, 29]",300,116,-1,13,161,9,0.0
basic,8,16,0,0,0,16,"[0, 16]",2,27,"[1, 2, 3, 4, 5, 7, 8, 9, 10, 11, 12, 13, 14, 15, 17, 18, 19, 20, 21, 22, 23, 24, 25, 26, 27, 28, 29]",217.3622362,9331,9215,6,77,8,1.0
basic,8,16,0,0,0,20,"[0, 16, 20]",3,11,"[3, 4, 5, 8, 9, 12, 13, 15, 19, 21, 25]",116.5951781,11390,2059,7,22,7,1.0135957470406158
basic,8,16,0,0,0,25,"[0, 16, 20, 25]",4,8,"[3, 4, 5, 8, 9, 12, 13, 15]",103.9460675,12298,908,5,12,7,1.0640500704008644
basic,8,16,0,0,0,9,"[0, 16, 20, 25, 9]",5,7,"[3, 4, 5, 8, 12, 13, 15]",91.13981901,14043,1745,5,5,7,1.0599854839081324
basic,8,16,0,0,0,15,"[0, 16, 20, 25, 9, 15]",6,3,"[3, 5, 13]",52.24251833,16610,2567,3,0,7,1.1678361661444425
basic,8,16,0,0,1,5,"[0, 16, 20, 25, 9, 15, 5]",7,0,[],22.81464039,18390,1780,1,0,7,1.4655843468849137
basic,8,16,0,1,1,5,"[0, 16, 20, 25, 9, 15, 5]",7,0,[],22.81464039,24217,5827,1,0,7,1.4655843468849137
basic,9,7,0,0,0,0,[0],1,29,"[1, 2, 3, 4, 5, 6, 7, 8, 9, 10, 11, 12, 13, 14, 15, 16, 17, 18, 19, 20, 21, 22, 23, 24, 25, 26, 27, 28, 29]",300,115,-1,3,79,9,0.0
basic,9,7,0,0,0,25,"[0, 25]",2,20,"[2, 3, 4, 5, 6, 7, 10, 13, 14, 15, 16, 18, 19, 20, 21, 22, 23, 24, 27, 28]",181.5939191,3574,3459,5,33,8,1.0
basic,9,7,0,0,0,4,"[0, 25, 4]",3,11,"[2, 6, 7, 13, 15, 16, 18, 19, 20, 21, 23]",156.8552853,4871,1297,2,14,8,1.0193465608331511
basic,9,7,0,0,0,20,"[0, 25, 4, 20]",4,8,"[2, 6, 7, 13, 15, 16, 18, 19]",137.2084026,6839,1968,1,9,8,1.085904909082323
basic,9,7,0,0,0,18,"[0, 25, 4, 20, 18]",5,7,"[2, 6, 7, 13, 15, 16, 19]",124.4021541,8063,1224,1,5,8,1.2264883846453758
basic,9,7,0,0,0,7,"[0, 25, 4, 20, 18, 7]",6,2,"[2, 19]",83.17109789,9318,1255,1,1,8,1.185264473968278
basic,9,7,0,0,0,19,"[0, 25, 4, 20, 18, 7, 19]",7,1,[2],53.76021555,11372,2054,1,0,8,1.3016904288278204
basic,9,7,0,0,1,2,"[0, 25, 4, 20, 18, 7, 19, 2]",8,0,[],23.61058868,12372,1000,1,0,8,1.3168868000947171
basic,9,7,0,1,1,2,"[0, 25, 4, 20, 18, 7, 19, 2]",8,0,[],23.61058868,17732,5360,1,0,8,1.3168868000947171
basic,10,43,0,0,0,0,[0],1,23,"[1, 2, 3, 4, 5, 6, 7, 9, 10, 11, 12, 14, 15, 16, 17, 19, 20, 21, 22, 23, 25, 27, 29]",300,115,-1,16,556,12,0.0
basic,10,43,0,0,0,29,"[0, 29]",2,22,"[1, 2, 3, 4, 5, 6, 7, 9, 10, 11, 12, 14, 15, 16, 17, 19, 20, 21, 22, 23, 25, 27]",277.909278,4914,4799,16,520,12,1.0
basic,10,43,0,0,0,20,"[0, 29, 20]",3,20,"[1, 2, 3, 4, 6, 7, 9, 10, 11, 12, 14, 15, 16, 17, 19, 21, 22, 23, 25, 27]",254.4785289,5761,847,15,422,12,1.082311746871282
basic,10,43,0,0,0,16,"[0, 29, 20, 16]",4,19,"[1, 2, 3, 4, 6, 7, 9, 10, 11, 12, 14, 15, 17, 19, 21, 22, 23, 25, 27]",231.8511119,7389,1628,15,389,12,1.215201926898219
basic,10,43,0,0,0,15,"[0, 29, 20, 16, 15]",5,14,"[1, 2, 3, 4, 6, 7, 9, 11, 12, 14, 19, 22, 23, 25]",188.5267539,11481,4092,3,109,12,1.3482474915350444
basic,10,43,0,0,0,12,"[0, 29, 20, 16, 15, 12]",6,13,"[1, 2, 3, 4, 6, 7, 9, 11, 14, 19, 22, 23, 25]",169.213546,12506,1025,1,49,12,1.3229664037236823
basic,10,43,0,0,0,3,"[0, 29, 20, 16, 15, 12, 3]",7,11,"[1, 4, 6, 7, 9, 11, 14, 19, 22, 23, 25]",156.213546,13177,671,1,35,12,1.2907201281243643
basic,10,43,0,0,0,22,"[0, 29, 20, 16, 15, 12, 3, 22]",8,9,"[1, 4, 6, 7, 11, 14, 19, 23, 25]",121.5004361,16378,3201,1,18,12,1.4966181986440266
basic,10,43,0,0,0,19,"[0, 29, 20, 16, 15, 12, 3, 22, 19]",9,7,"[1, 4, 6, 7, 11, 14, 25]",100.8849079,17409,1031,1,9,12,1.4332617950535695
basic,10,43,0,0,0,1,"[0, 29, 20, 16, 15, 12, 3, 22, 19, 1]",10,5,"[4, 6, 7, 11, 14]",72.70690233,18177,768,1,4,12,1.5789573993284716
basic,10,43,0,0,1,7,"[0, 29, 20, 16, 15, 12, 3, 22, 19, 1, 7]",11,0,[],34.49695598,21218,3041,1,0,11,1.5046107053917848
basic,10,43,0,1,1,7,"[0, 29, 20, 16, 15, 12, 3, 22, 19, 1, 7]",11,0,[],34.49695598,31666,10448,1,0,11,1.5046107053917848
basic,11,10,0,0,0,0,[0],1,29,"[1, 2, 3, 4, 5, 6, 7, 8, 9, 10, 11, 12, 13, 14, 15, 16, 17, 18, 19, 20, 21, 22, 23, 24, 25, 26, 27, 28, 29]",300,115,-1,1,100,9,0.0
basic,11,10,0,0,0,13,"[0, 13]",2,25,"[1, 2, 3, 4, 6, 7, 8, 9, 10, 11, 12, 14, 17, 18, 19, 20, 21, 22, 23, 24, 25, 26, 27, 28, 29]",249.4628849,9973,9858,1,79,9,1.0
basic,11,10,0,0,0,11,"[0, 13, 11]",3,20,"[1, 2, 3, 6, 7, 8, 9, 10, 12, 14, 18, 19, 20, 21, 22, 24, 26, 27, 28, 29]",206.4512586,12141,2168,1,54,9,1.0313137484914219
basic,11,10,0,0,0,20,"[0, 13, 11, 20]",4,15,"[1, 2, 3, 6, 8, 9, 10, 12, 14, 18, 19, 21, 24, 26, 27]",168.3723931,15289,3148,15,34,8,1.0874972644654597
basic,11,10,0,0,0,26,"[0, 13, 11, 20, 26]",5,8,"[2, 6, 9, 10, 14, 18, 19, 27]",136.5918959,16606,1317,6,9,8,1.2338398611867702
basic,11,10,0,0,0,14,"[0, 13, 11, 20, 26, 14]",6,3,"[2, 19, 27]",101.9220243,18221,1615,2,1,8,1.2385196389162765
basic,11,10,0,0,0,2,"[0, 13, 11, 20, 26, 14, 2]",7,1,[19],89.75649919,18821,600,1,0,8,1.2878757708849242
basic,11,10,0,0,1,19,"[0, 13, 11, 20, 26, 14, 2, 19]",8,0,[],45.84750239,20272,1451,1,0,8,2.1284579604680154
basic,11,10,0,1,1,19,"[0, 13, 11, 20, 26, 14, 2, 19]",8,0,[],45.84750239,27549,7277,1,0,8,2.1284579604680154
basic,12,34,0,0,0,0,[0],1,25,"[1, 3, 4, 5, 6, 7, 8, 9, 10, 11, 12, 13, 15, 18, 19, 20, 21, 22, 23, 24, 25, 26, 27, 28, 29]",300,115,-1,12,367,10,0.0
basic,12,34,0,0,0,13,"[0, 13]",2,24,"[1, 3, 4, 5, 6, 7, 8, 9, 10, 11, 12, 15, 18, 19, 20, 21, 22, 23, 24, 25, 26, 27, 28, 29]",279.9750156,5755,5640,12,331,10,1.0
basic,12,34,0,0,0,1,"[0, 13, 1]",3,16,"[3, 5, 7, 8, 9, 10, 11, 12, 19, 21, 22, 23, 24, 25, 27, 29]",211.8574701,7522,1767,3,92,10,1.0010381285747127
basic,12,34,0,0,0,8,"[0, 13, 1, 8]",4,14,"[3, 5, 7, 9, 10, 11, 12, 19, 22, 23, 24, 25, 27, 29]",201.0871405,8472,950,2,54,10,1.1636807
basic,12,34,0,0,0,25,"[0, 13, 1, 8, 25]",5,12,"[3, 5, 7, 9, 10, 11, 12, 22, 23, 24, 27, 29]",183.999133,9638,1166,2,28,10,1.1396208815936457
basic,12,34,0,0,0,24,"[0, 13, 1, 8, 25, 24]",6,11,"[3, 5, 7, 9, 10, 11, 12, 22, 23, 27, 29]",166.5062774,10326,688,2,23,10,1.374180768736554
basic,12,34,0,0,0,12,"[0, 13, 1, 8, 25, 24, 12]",7,7,"[7, 9, 10, 11, 22, 23, 27]",115.4670767,16396,6070,1,8,10,1.4994254760835948
basic,12,34,0,0,0,7,"[0, 13, 1, 8, 25, 24, 12, 7]",8,5,"[9, 11, 22, 23, 27]",100.4337804,18358,1962,1,4,10,1.758992610425009
basic,12,34,0,0,0,23,"[0, 13, 1, 8, 25, 24, 12, 7, 23]",9,1,[27],72.27352467,21078,2720,1,0,10,2.399781305190153
basic,12,34,0,0,1,27,"[0, 13, 1, 8, 25, 24, 12, 7, 23, 27]",10,0,[],18.60789321,22829,1751,1,0,10,4.766619878750327
basic,12,34,0,1,1,27,"[0, 13, 1, 8, 25, 24, 12, 7, 23, 27]",10,0,[],18.60789321,26983,4154,1,0,10,4.766619878750327
basic,13,40,0,0,0,0,[0],1,29,"[1, 2, 3, 4, 5, 6, 7, 8, 9, 10, 11, 12, 13, 14, 15, 16, 17, 18, 19, 20, 21, 22, 23, 24, 25, 26, 27, 28, 29]",300,115,-1,8,191,9,0.0
basic,13,40,0,0,0,1,"[0, 1]",2,18,"[2, 5, 6, 7, 8, 9, 10, 11, 13, 15, 17, 18, 19, 21, 22, 23, 27, 29]",247.8463808,5413,5298,4,80,9,1.0
basic,13,40,0,0,0,6,"[0, 1, 6]",3,17,"[2, 5, 7, 8, 9, 10, 11, 13, 15, 17, 18, 19, 21, 22, 23, 27, 29]",227.7466295,6041,628,4,74,9,1.0459427008232034
basic,13,40,0,0,0,21,"[0, 1, 6, 21]",4,8,"[2, 5, 9, 17, 18, 19, 22, 23]",175.7754837,7749,1708,4,25,9,1.0308822257404064
basic,13,40,0,0,0,9,"[0, 1, 6, 21, 9]",5,6,"[2, 5, 18, 19, 22, 23]",130.0699041,9105,1356,4,12,9,1.377861912961129
basic,13,40,0,0,0,18,"[0, 1, 6, 21, 9, 18]",6,5,"[2, 5, 19, 22, 23]",113.5169588,10289,1184,4,4,9,1.5742712168661408
basic,13,40,0,0,0,5,"[0, 1, 6, 21, 9, 18, 5]",7,3,"[19, 22, 23]",81.94165198,11596,1307,2,1,9,1.7730665063055515
basic,13,40,0,0,0,19,"[0, 1, 6, 21, 9, 18, 5, 19]",8,1,[23],43.86278645,14589,2993,1,0,9,2.4966727914503504
basic,13,40,0,0,1,23,"[0, 1, 6, 21, 9, 18, 5, 19, 23]",9,0,[],11.90969584,15963,1374,1,0,9,3.0374134989796913
basic,13,40,0,1,1,23,"[0, 1, 6, 21, 9, 18, 5, 19, 23]",9,0,[],11.90969584,18530,2567,1,0,9,3.0374134989796913
basic,14,30,0,0,0,0,[0],1,19,"[3, 4, 5, 7, 9, 11, 16, 17, 18, 19, 20, 21, 22, 24, 25, 26, 27, 28, 29]",300,115,-1,5,41,8,0.0
basic,14,30,0,0,0,27,"[0, 27]",2,10,"[3, 5, 7, 9, 18, 19, 20, 24, 25, 29]",90.59608409,4622,4507,7,22,6,1.0
basic,14,30,0,0,0,3,"[0, 27, 3]",3,8,"[5, 7, 18, 19, 20, 24, 25, 29]",71.49111091,5478,856,5,9,6,1.0022223300201003
basic,14,30,0,0,0,29,"[0, 27, 3, 29]",4,5,"[5, 7, 18, 19, 20]",52.89003567,7238,1760,2,3,6,1.0149900937654948
basic,14,30,0,0,0,18,"[0, 27, 3, 29, 18]",5,1,[5],33.57682776,9055,1817,1,0,6,1.0907994995031296
basic,14,30,0,0,1,5,"[0, 27, 3, 29, 18, 5]",6,0,[],20.53842295,12446,3391,1,0,6,1.1556882660658163
basic,14,30,0,1,1,5,"[0, 27, 3, 29, 18, 5]",6,0,[],20.53842295,19082,6636,1,0,6,1.1556882660658163
basic,15,26,0,0,0,0,[0],1,29,"[1, 2, 3, 4, 5, 6, 7, 8, 9, 10, 11, 12, 13, 14, 15, 16, 17, 18, 19, 20, 21, 22, 23, 24, 25, 26, 27, 28, 29]",300,116,-1,9,226,9,0.0
basic,15,26,0,0,0,4,"[0, 4]",2,13,"[5, 6, 10, 12, 13, 14, 16, 17, 19, 21, 23, 26, 29]",178.7976898,5842,5726,4,118,8,1.0
basic,15,26,0,0,0,17,"[0, 4, 17]",3,10,"[5, 6, 10, 12, 13, 14, 16, 21, 23, 29]",157.7026667,9898,4056,1,35,8,1.0014732588101924
basic,15,26,0,0,0,6,"[0, 4, 17, 6]",4,6,"[10, 14, 16, 21, 23, 29]",137.5780549,11019,1121,10,11,7,1.011273258075741
basic,15,26,0,0,0,14,"[0, 4, 17, 6, 14]",5,4,"[10, 16, 23, 29]",116.5542588,11826,807,5,2,7,1.1383391147196797
basic,15,26,0,0,0,29,"[0, 4, 17, 6, 14, 29]",6,3,"[10, 16, 23]",75.32320259,13290,1464,3,0,7,1.8387738585921345
basic,15,26,0,0,1,16,"[0, 4, 17, 6, 14, 29, 16]",7,0,[],51.11576571,20274,6984,1,0,7,2.2232443318112174
basic,15,26,0,1,1,16,"[0, 4, 17, 6, 14, 29, 16]",7,0,[],51.11576571,22933,2659,1,0,7,2.2232443318112174
basic,16,42,0,0,0,0,[0],1,29,"[1, 2, 3, 4, 5, 6, 7, 8, 9, 10, 11, 12, 13, 14, 15, 16, 17, 18, 19, 20, 21, 22, 23, 24, 25, 26, 27, 28, 29]",300,115,-1,16,302,9,0.0
basic,16,42,0,0,0,5,"[0, 5]",2,28,"[1, 2, 3, 4, 6, 7, 8, 9, 10, 11, 12, 13, 14, 15, 16, 17, 18, 19, 20, 21, 22, 23, 24, 25, 26, 27, 28, 29]",191.2939744,15268,15153,1,22,9,1.0
basic,16,42,0,0,0,4,"[0, 5, 4]",3,23,"[1, 2, 3, 6, 7, 8, 9, 10, 11, 13, 15, 17, 18, 19, 20, 21, 22, 23, 24, 25, 26, 27, 29]",171.4445412,16395,1127,1,14,9,1.420957801478707
basic,16,42,0,0,0,22,"[0, 5, 4, 22]",4,20,"[1, 2, 3, 6, 7, 8, 9, 11, 15, 17, 18, 19, 20, 21, 23, 24, 25, 26, 27, 29]",160.2642013,17136,741,1,11,9,1.5771494659680896
basic,16,42,0,0,0,8,"[0, 5, 4, 22, 8]",5,14,"[1, 2, 3, 6, 7, 11, 15, 18, 19, 24, 25, 26, 27, 29]",138.1282577,18136,1000,1,10,9,1.5055393955524201
basic,16,42,0,0,0,1,"[0, 5, 4, 22, 8, 1]",6,5,"[2, 7, 19, 26, 27]",89.03650682,19004,868,1,7,9,1.3547259083637835
basic,16,42,0,0,0,7,"[0, 5, 4, 22, 8, 1, 7]",7,4,"[2, 19, 26, 27]",59.03650682,20144,1140,1,3,9,1.3909715672447451
basic,16,42,0,0,0,26,"[0, 5, 4, 22, 8, 1, 7, 26]",8,1,[27],32.46584631,25053,4909,1,0,9,1.3511825943939393
basic,16,42,0,0,1,27,"[0, 5, 4, 22, 8, 1, 7, 26, 27]",9,0,[],14.43808994,26097,1044,1,0,9,1.3391911688802078
basic,16,42,0,1,1,27,"[0, 5, 4, 22, 8, 1, 7, 26, 27]",9,0,[],14.43808994,29863,3766,1,0,9,1.3391911688802078
basic,17,36,0,0,0,0,[0],1,24,"[2, 4, 5, 6, 7, 8, 9, 10, 12, 13, 14, 15, 16, 17, 18, 19, 20, 22, 23, 25, 26, 27, 28, 29]",300,116,-1,2,200,10,0.0
basic,17,36,0,0,0,17,"[0, 17]",2,14,"[2, 4, 8, 9, 10, 12, 13, 16, 18, 19, 23, 25, 27, 29]",205.4854509,7080,6964,15,166,8,1.0
basic,17,36,0,0,0,9,"[0, 17, 9]",3,11,"[2, 4, 10, 12, 13, 16, 18, 19, 23, 25, 27]",179.2366414,7943,863,4,46,8,1.7485416972894268
basic,17,36,0,0,0,19,"[0, 17, 9, 19]",4,9,"[2, 4, 10, 12, 13, 16, 18, 23, 25]",164.1038954,10095,2152,4,20,8,1.7631011628362594
basic,17,36,0,0,0,2,"[0, 17, 9, 19, 2]",5,6,"[10, 12, 13, 16, 18, 25]",126.982473,12023,1928,3,5,8,1.5320887385728468
basic,17,36,0,0,0,25,"[0, 17, 9, 19, 2, 25]",6,4,"[10, 12, 13, 16]",101.982473,13775,1752,2,3,8,1.7295591372414592
basic,17,36,0,0,0,13,"[0, 17, 9, 19, 2, 25, 13]",7,2,"[10, 12]",81.39121274,14591,816,2,0,8,2.2288460852780867
basic,17,36,0,0,1,10,"[0, 17, 9, 19, 2, 25, 13, 10]",8,0,[],5.43069668,18490,3899,1,0,8,1.6936544132003624
basic,17,36,0,1,1,10,"[0, 17, 9, 19, 2, 25, 13, 10]",8,0,[],5.43069668,29733,11243,1,0,8,1.6936544132003624
basic,18,23,0,0,0,0,[0],1,28,"[1, 2, 3, 4, 5, 6, 7, 8, 9, 10, 11, 12, 13, 14, 15, 16, 17, 18, 19, 20, 21, 22, 23, 25, 26, 27, 28, 29]",300,115,-1,76,2626,10,0.0
basic,18,23,0,0,0,13,"[0, 13]",2,19,"[1, 2, 3, 5, 6, 7, 8, 9, 10, 12, 14, 17, 18, 19, 21, 22, 23, 27, 29]",189.3202819,5256,5141,9,168,10,1.0
basic,18,23,0,0,0,12,"[0, 13, 12]",3,16,"[1, 2, 3, 6, 7, 8, 9, 10, 14, 17, 18, 21, 22, 23, 27, 29]",177.2372359,7128,1872,9,96,10,1.0014195490503164
basic,18,23,0,0,0,27,"[0, 13, 12, 27]",4,8,"[2, 6, 7, 9, 14, 18, 22, 29]",136.4450798,9977,2849,9,47,9,1.1423171128985576
basic,18,23,0,0,0,6,"[0, 13, 12, 27, 6]",5,7,"[2, 7, 9, 14, 18, 22, 29]",108.1431364,11306,1329,8,17,9,1.2769758961851159
basic,18,23,0,0,0,2,"[0, 13, 12, 27, 6, 2]",6,5,"[7, 9, 14, 22, 29]",89.7040475,13808,2502,6,5,9,1.5410950091689495
basic,18,23,0,0,0,9,"[0, 13, 12, 27, 6, 2, 9]",7,4,"[7, 14, 22, 29]",76.66564269,14776,968,3,2,9,1.709430702885355
basic,18,23,0,0,0,14,"[0, 13, 12, 27, 6, 2, 9, 14]",8,2,"[22, 29]",66.22533618,16389,1613,2,0,9,1.659270475552586
basic,18,23,0,0,1,22,"[0, 13, 12, 27, 6, 2, 9, 14, 22]",9,0,[],8.087568767,18757,2368,1,0,9,3.261642308769797
basic,18,23,0,1,1,22,"[0, 13, 12, 27, 6, 2, 9, 14, 22]",9,0,[],8.087568767,24747,5990,1,0,9,3.261642308769797
basic,19,0,0,0,0,0,[0],1,27,"[2, 3, 4, 5, 6, 7, 8, 9, 10, 11, 12, 13, 14, 15, 16, 17, 19, 20, 21, 22, 23, 24, 25, 26, 27, 28, 29]",300,115,-1,104,1136,9,0.0
basic,19,0,0,0,0,20,"[0, 20]",2,25,"[2, 3, 4, 5, 6, 7, 8, 9, 11, 12, 13, 14, 15, 16, 17, 19, 21, 22, 23, 24, 25, 26, 27, 28, 29]",215.4955622,4304,4189,36,372,9,1.0
basic,19,0,0,0,0,5,"[0, 20, 5]",3,22,"[2, 3, 4, 7, 8, 9, 11, 12, 13, 14, 15, 16, 17, 19, 21, 22, 23, 24, 25, 26, 28, 29]",153.2942761,5593,1289,33,251,9,1.0828244018179105
basic,19,0,0,0,0,26,"[0, 20, 5, 26]",4,16,"[3, 4, 7, 8, 9, 11, 12, 13, 14, 15, 17, 19, 21, 23, 24, 28]",117.8541858,7572,1979,6,51,9,1.1274542855134486
basic,19,0,0,0,0,4,"[0, 20, 5, 26, 4]",5,12,"[3, 7, 8, 9, 11, 12, 15, 17, 19, 23, 24, 28]",105.8125912,9156,1584,5,27,9,1.240491272719259
basic,19,0,0,0,0,24,"[0, 20, 5, 26, 4, 24]",6,11,"[3, 7, 8, 9, 11, 12, 15, 17, 19, 23, 28]",94.41083696,10329,1173,5,18,9,1.2323106696136763
basic,19,0,0,0,0,15,"[0, 20, 5, 26, 4, 24, 15]",7,7,"[3, 7, 8, 9, 11, 12, 17]",71.0656019,13496,3167,4,5,9,1.2111066506270785
basic,19,0,0,0,0,7,"[0, 20, 5, 26, 4, 24, 15, 7]",8,2,"[3, 8]",40.00115277,15761,2265,2,0,9,1.268226705272871
basic,19,0,0,0,1,3,"[0, 20, 5, 26, 4, 24, 15, 7, 3]",9,0,[],15.91796361,18097,2336,1,0,9,1.3105818731451497
basic,19,0,0,1,1,3,"[0, 20, 5, 26, 4, 24, 15, 7, 3]",9,0,[],15.91796361,20899,2802,1,0,9,1.3105818731451497
basic,20,22,0,0,0,0,[0],1,29,"[1, 2, 3, 4, 5, 6, 7, 8, 9, 10, 11, 12, 13, 14, 15, 16, 17, 18, 19, 20, 21, 22, 23, 24, 25, 26, 27, 28, 29]",300,116,-1,31,704,9,0.0
basic,20,22,0,0,0,29,"[0, 29]",2,22,"[1, 3, 5, 6, 7, 8, 9, 11, 13, 14, 15, 16, 17, 19, 20, 21, 22, 23, 24, 25, 27, 28]",222.9935068,5459,5343,11,235,9,1.0
basic,20,22,0,0,0,19,"[0, 29, 19]",3,18,"[1, 3, 6, 7, 8, 9, 13, 14, 15, 16, 17, 20, 21, 22, 23, 24, 25, 28]",207.9602104,10456,4997,11,172,9,1.1559285443414686
basic,20,22,0,0,0,9,"[0, 29, 19, 9]",4,16,"[1, 3, 6, 7, 8, 13, 14, 15, 16, 17, 20, 21, 22, 24, 25, 28]",187.5641323,11716,1260,7,84,9,1.2555028175473422
basic,20,22,0,0,0,6,"[0, 29, 19, 9, 6]",5,13,"[3, 7, 13, 14, 15, 16, 17, 20, 21, 22, 24, 25, 28]",160.9370784,12839,1123,17,16,8,1.5692551066355458
basic,20,22,0,0,0,28,"[0, 29, 19, 9, 6, 28]",6,5,"[7, 14, 16, 17, 22]",130.9370784,15656,2817,5,2,8,1.5285578577513508
basic,20,22,0,0,0,16,"[0, 29, 19, 9, 6, 28, 16]",7,1,[22],96.49872771,16643,987,1,0,8,2.5001967567448653
basic,20,22,0,0,1,22,"[0, 29, 19, 9, 6, 28, 16, 22]",8,0,[],8.039697643,19883,3240,1,0,8,2.084367549440744
basic,20,22,0,1,1,22,"[0, 29, 19, 9, 6, 28, 16, 22]",8,0,[],8.039697643,23333,3450,1,0,8,2.084367549440744
basic,21,25,0,0,0,0,[0],1,28,"[1, 2, 3, 4, 5, 7, 8, 9, 10, 11, 12, 13, 14, 15, 16, 17, 18, 19, 20, 21, 22, 23, 24, 25, 26, 27, 28, 29]",300,133,-1,5,94,10,0.0
basic,21,25,0,0,0,23,"[0, 23]",2,23,"[1, 2, 3, 5, 7, 8, 9, 11, 12, 13, 14, 16, 17, 19, 20, 21, 22, 24, 25, 26, 27, 28, 29]",259.7756293,8043,7910,3,33,10,1.0
basic,21,25,0,0,0,19,"[0, 23, 19]",3,21,"[1, 2, 3, 5, 7, 8, 9, 11, 12, 13, 14, 16, 17, 20, 21, 22, 24, 25, 27, 28, 29]",223.9287326,9355,1312,3,24,10,1.583101227007039
basic,21,25,0,0,0,29,"[0, 23, 19, 29]",4,19,"[1, 2, 3, 5, 7, 8, 9, 11, 12, 13, 14, 16, 17, 20, 21, 22, 24, 25, 28]",207.649912,10204,849,3,17,10,1.474631541426484
basic,21,25,0,0,0,22,"[0, 23, 19, 29, 22]",5,18,"[1, 2, 3, 5, 7, 8, 9, 11, 12, 13, 14, 16, 17, 20, 21, 24, 25, 28]",191.5253965,12171,1967,3,14,10,1.4020377754906637
basic,21,25,0,0,0,7,"[0, 23, 19, 29, 22, 7]",6,7,"[3, 8, 9, 11, 13, 24, 28]",115.8814939,14075,1904,3,11,10,1.5709678649326715
basic,21,25,0,0,0,24,"[0, 23, 19, 29, 22, 7, 24]",7,5,"[3, 8, 9, 13, 28]",91.12265712,15354,1279,3,7,10,1.486191600033379
basic,21,25,0,0,0,9,"[0, 23, 19, 29, 22, 7, 24, 9]",8,4,"[3, 8, 13, 28]",73.09490075,16971,1617,3,3,10,1.453504870342882
basic,21,25,0,0,0,3,"[0, 23, 19, 29, 22, 7, 24, 9, 3]",9,3,"[8, 13, 28]",42.82940885,19604,2633,3,0,10,1.388955167525479
basic,21,25,0,0,1,28,"[0, 23, 19, 29, 22, 7, 24, 9, 3, 28]",10,0,[],11.52445716,24379,4775,1,0,10,1.3331084120212044
basic,21,25,0,1,1,28,"[0, 23, 19, 29, 22, 7, 24, 9, 3, 28]",10,0,[],11.52445716,27298,2919,1,0,10,1.3331084120212044
basic,22,29,0,0,0,0,[0],1,29,"[1, 2, 3, 4, 5, 6, 7, 8, 9, 10, 11, 12, 13, 14, 15, 16, 17, 18, 19, 20, 21, 22, 23, 24, 25, 26, 27, 28, 29]",300,115,-1,1,78,9,0.0
basic,22,29,0,0,0,6,"[0, 6]",2,28,"[1, 2, 3, 4, 5, 7, 8, 9, 10, 11, 12, 13, 14, 15, 16, 17, 18, 19, 20, 21, 22, 23, 24, 25, 26, 27, 28, 29]",228.4108947,6572,6457,1,25,9,1.0
basic,22,29,0,0,0,28,"[0, 6, 28]",3,24,"[1, 3, 4, 5, 7, 9, 10, 11, 12, 13, 14, 15, 16, 17, 18, 20, 21, 22, 23, 24, 25, 26, 27, 29]",187.1798384,8272,1700,1,22,9,1.162106788166845
basic,22,29,0,0,0,27,"[0, 6, 28, 27]",4,19,"[1, 3, 4, 5, 7, 9, 10, 11, 12, 13, 14, 15, 16, 21, 22, 23, 25, 26, 29]",166.6615539,9423,1151,1,21,9,1.2307173895439045
basic,22,29,0,0,0,22,"[0, 6, 28, 27, 22]",5,13,"[1, 3, 4, 5, 7, 9, 12, 13, 14, 15, 21, 26, 29]",133.4200136,12223,2800,1,19,9,1.4241767805149903
basic,22,29,0,0,0,12,"[0, 6, 28, 27, 22, 12]",6,8,"[4, 5, 7, 9, 13, 14, 21, 26]",95.4726817,13571,1348,1,6,9,1.3248355326460857
basic,22,29,0,0,0,7,"[0, 6, 28, 27, 22, 12, 7]",7,4,"[4, 5, 9, 21]",81.87121119,14342,771,1,3,9,1.3264091962339806
basic,22,29,0,0,0,9,"[0, 6, 28, 27, 22, 12, 7, 9]",8,1,[4],52.80232748,15286,944,1,0,9,1.309391257644539
basic,22,29,0,0,1,4,"[0, 6, 28, 27, 22, 12, 7, 9, 4]",9,0,[],11.76575843,16695,1409,1,0,9,1.6396807789841599
basic,22,29,0,1,1,4,"[0, 6, 28, 27, 22, 12, 7, 9, 4]",9,0,[],11.76575843,19582,2887,1,0,9,1.6396807789841599
undo,23,10,0,0,0,0,[0],1,29,"[1, 2, 3, 4, 5, 6, 7, 8, 9, 10, 11, 12, 13, 14, 15, 16, 17, 18, 19, 20, 21, 22, 23, 24, 25, 26, 27, 28, 29]",300,133,-1,1,100,9,0.0
undo,23,10,0,0,0,13,"[0, 13]",2,25,"[1, 2, 3, 4, 6, 7, 8, 9, 10, 11, 12, 14, 17, 18, 19, 20, 21, 22, 23, 24, 25, 26, 27, 28, 29]",249.4628849,4191,4058,1,79,9,1.0
undo,23,10,0,0,0,11,"[0, 13, 11]",3,20,"[1, 2, 3, 6, 7, 8, 9, 10, 12, 14, 18, 19, 20, 21, 22, 24, 26, 27, 28, 29]",206.4512586,5423,1232,1,54,9,1.0313137484914219
undo,23,10,0,0,0,19,"[0, 13, 11, 19]",4,11,"[2, 6, 8, 9, 10, 14, 18, 20, 24, 26, 27]",170.0919407,6207,784,1,22,9,1.0879446220132545
undo,23,10,0,0,0,2,"[0, 13, 11, 19, 2]",5,4,"[14, 20, 26, 27]",126.1829439,8292,2085,1,4,9,1.06474052351343
undo,23,10,0,0,0,14,"[0, 13, 11, 19, 2, 14]",6,3,"[20, 26, 27]",114.0174188,9765,1473,1,3,9,1.1628909195912238
undo,23,10,0,0,0,26,"[0, 13, 11, 19, 2, 14, 26]",7,2,"[20, 27]",79.34754716,10916,1151,1,1,9,1.6660727647633602
undo,23,10,0,0,0,20,"[0, 13, 11, 19, 2, 14, 26, 20]",8,1,[27],47.56704999,11708,792,1,0,9,2.085581809637999
undo,23,10,0,0,1,27,"[0, 13, 11, 19, 2, 14, 26, 20, 27]",9,0,[],2.312215998,13676,1968,1,0,9,1.9116357409137932
undo,23,10,0,1,1,27,"[0, 13, 11, 19, 2, 14, 26, 20, 27]",9,0,[],2.312215998,16431,2755,1,0,9,1.9116357409137932
undo,24,15,0,0,0,0,[0],1,25,"[1, 2, 3, 4, 7, 8, 9, 10, 11, 12, 13, 14, 15, 16, 18, 20, 21, 22, 23, 24, 25, 26, 27, 28, 29]",300,116,-1,4,65,9,0.0
undo,24,15,0,0,0,12,"[0, 12]",2,22,"[1, 2, 3, 4, 7, 8, 9, 10, 11, 13, 14, 15, 16, 18, 21, 22, 23, 24, 26, 27, 28, 29]",213.547701,4789,4673,4,35,9,1.0
undo,24,15,0,0,0,7,"[0, 12, 7]",3,16,"[1, 3, 4, 8, 9, 10, 11, 13, 14, 15, 16, 18, 21, 22, 24, 27]",180.3061607,5692,903,4,29,9,1.411291635294361
undo,24,15,0,0,0,11,"[0, 12, 7, 11]",4,9,"[3, 4, 13, 14, 15, 16, 21, 22, 27]",138.8212237,10006,4314,2,12,9,1.2980572092387541
undo,24,15,0,0,0,3,"[0, 12, 7, 11, 3]",5,7,"[4, 13, 14, 15, 16, 21, 22]",127.4194695,12006,2000,2,7,9,1.3036925309398455
undo,24,15,0,0,0,22,"[0, 12, 7, 11, 3, 22]",6,5,"[4, 13, 14, 15, 16]",77.69020242,13492,1486,2,3,8,1.2885630089059408
undo,24,15,0,0,0,15,"[0, 12, 7, 11, 3, 22, 15]",7,1,[13],52.07770547,16773,3281,1,0,8,1.2624637443080136
undo,24,15,0,0,1,13,"[0, 12, 7, 11, 3, 22, 15, 13]",8,0,[],36.81336795,18580,1807,1,0,8,1.313701762332814
undo,24,15,1,0,0,15,"[0, 12, 7, 11, 3, 22, 15]",7,1,[13],52.07770547,20817,2237,1,0,8,1.2624637443080136
undo,24,15,1,0,0,22,"[0, 12, 7, 11, 3, 22]",6,5,"[4, 13, 14, 15, 16]",77.69020242,20984,167,2,3,8,1.2885630089059408
undo,24,15,1,0,0,3,"[0, 12, 7, 11, 3]",5,7,"[4, 13, 14, 15, 16, 21, 22]",127.4194695,21133,149,2,7,9,1.3036925309398455
undo,24,15,1,0,0,11,"[0, 12, 7, 11]",4,9,"[3, 4, 13, 14, 15, 16, 21, 22, 27]",138.8212237,21700,567,2,12,9,1.2980572092387541
undo,24,15,0,0,0,16,"[0, 12, 7, 11, 16]",5,6,"[3, 4, 13, 14, 15, 22]",112.802,25823,4123,5,7,8,1.639755162381675
undo,24,15,0,0,0,3,"[0, 12, 7, 11, 16, 3]",6,5,"[4, 13, 14, 15, 22]",87.72212764,28524,2701,3,3,8,1.6035706685901854
undo,24,15,0,0,0,22,"[0, 12, 7, 11, 16, 3, 22]",7,2,"[13, 15]",37.9928606,29806,1282,2,0,8,1.5186586986954977
undo,24,15,0,0,1,15,"[0, 12, 7, 11, 16, 3, 22, 15]",8,0,[],12.38036365,32657,2851,1,0,8,1.4646095613599284
undo,24,15,1,0,0,22,"[0, 12, 7, 11, 16, 3, 22]",7,2,"[13, 15]",37.9928606,39584,6927,2,0,8,1.5186586986954977
undo,24,15,1,0,0,3,"[0, 12, 7, 11, 16, 3]",6,5,"[4, 13, 14, 15, 22]",87.72212764,39767,183,3,3,8,1.6035706685901854
undo,24,15,1,0,0,16,"[0, 12, 7, 11, 16]",5,6,"[3, 4, 13, 14, 15, 22]",112.802,40101,334,5,7,8,1.639755162381675
undo,24,15,1,0,0,11,"[0, 12, 7, 11]",4,9,"[3, 4, 13, 14, 15, 16, 21, 22, 27]",138.8212237,40517,416,2,12,9,1.2980572092387541
undo,24,15,1,0,0,7,"[0, 12, 7]",3,16,"[1, 3, 4, 8, 9, 10, 11, 13, 14, 15, 16, 18, 21, 22, 24, 27]",180.3061607,41501,984,4,29,9,1.411291635294361
undo,24,15,0,0,0,16,"[0, 12, 7, 16]",4,10,"[3, 4, 10, 11, 13, 14, 15, 18, 21, 22]",136.6484008,44257,2756,2,11,9,1.4308733430458784
undo,24,15,0,0,0,11,"[0, 12, 7, 16, 11]",5,7,"[3, 4, 13, 14, 15, 21, 22]",110.6291772,45457,1200,2,5,9,1.5251025438826007
undo,24,15,0,0,0,3,"[0, 12, 7, 16, 11, 3]",6,5,"[4, 13, 14, 15, 22]",99.22742292,46331,874,2,3,9,1.5166583878170454
undo,24,15,0,0,0,22,"[0, 12, 7, 16, 11, 3, 22]",7,2,"[13, 15]",49.49815588,48474,2143,2,0,9,1.4519711389669923
undo,24,15,0,0,0,15,"[0, 12, 7, 16, 11, 3, 22, 15]",8,1,[13],23.88565893,49957,1483,1,0,9,1.4060225827822495
undo,24,15,0,0,1,13,"[0, 12, 7, 16, 11, 3, 22, 15, 13]",9,0,[],8.621321408,51772,1815,1,0,9,1.4544229719836068
undo,24,15,0,1,1,13,"[0, 12, 7, 16, 11, 3, 22, 15, 13]",9,0,[],8.621321408,57165,5393,1,0,9,1.4544229719836068
undo,25,32,0,0,0,0,[0],1,29,"[1, 2, 3, 4, 5, 6, 7, 8, 9, 10, 11, 12, 13, 14, 15, 16, 17, 18, 19, 20, 21, 22, 23, 24, 25, 26, 27, 28, 29]",300,117,-1,17,359,10,0.0
undo,25,32,0,0,0,19,"[0, 19]",2,28,"[1, 2, 3, 4, 5, 6, 7, 8, 9, 10, 11, 12, 13, 14, 15, 16, 17, 18, 20, 21, 22, 23, 24, 25, 26, 27, 28, 29]",283.5075775,5378,5261,16,294,10,1.0
undo,25,32,0,0,0,15,"[0, 19, 15]",3,21,"[2, 3, 5, 7, 8, 9, 10, 11, 12, 13, 14, 16, 17, 20, 22, 23, 24, 25, 26, 27, 28]",197.7987681,7371,1993,2,52,10,1.19699508325577
undo,25,32,0,0,0,28,"[0, 19, 15, 28]",4,19,"[2, 3, 5, 7, 8, 9, 10, 11, 12, 13, 16, 17, 20, 22, 23, 24, 25, 26, 27]",186.3970139,8505,1134,2,41,10,1.1739755297768444
undo,25,32,0,0,0,12,"[0, 19, 15, 28, 12]",5,17,"[2, 3, 5, 7, 8, 9, 10, 11, 13, 16, 17, 20, 22, 23, 24, 26, 27]",167.4233479,9771,1266,2,25,10,1.177540715424265
undo,25,32,0,0,0,16,"[0, 19, 15, 28, 12, 16]",6,16,"[2, 3, 5, 7, 8, 9, 10, 11, 13, 17, 20, 22, 23, 24, 26, 27]",151.7708721,18314,8543,2,17,10,1.2623133279216439
undo,25,32,0,0,0,22,"[0, 19, 15, 28, 12, 16, 22]",7,10,"[2, 3, 5, 8, 9, 10, 11, 17, 20, 27]",117.9330235,19841,1527,2,7,10,1.2893434049314008
undo,25,32,0,0,0,9,"[0, 19, 15, 28, 12, 16, 22, 9]",8,4,"[2, 8, 17, 20]",95.72942015,20929,1088,2,2,10,1.3492394817468627
undo,25,32,0,0,0,2,"[0, 19, 15, 28, 12, 16, 22, 9, 2]",9,1,[17],44.64126105,23177,2248,1,0,10,1.760592394779365
undo,25,32,0,0,1,17,"[0, 19, 15, 28, 12, 16, 22, 9, 2, 17]",10,0,[],4.829202579,24897,1720,1,0,10,2.6120286725511583
undo,25,32,0,1,1,17,"[0, 19, 15, 28, 12, 16, 22, 9, 2, 17]",10,0,[],4.829202579,26599,1702,1,0,10,2.6120286725511583
undo,26,20,0,0,0,0,[0],1,21,"[1, 2, 3, 4, 5, 6, 7, 8, 9, 12, 17, 18, 20, 21, 22, 23, 25, 26, 27, 28, 29]",300,115,-1,1,9,9,0.0
undo,26,20,0,0,0,12,"[0, 12]",2,20,"[1, 2, 3, 4, 5, 6, 7, 8, 9, 17, 18, 20, 21, 22, 23, 25, 26, 27, 28, 29]",271.5570747,5543,5428,1,8,9,1.0
undo,26,20,0,0,0,5,"[0, 12, 5]",3,13,"[1, 3, 4, 6, 8, 9, 20, 21, 23, 26, 27, 28, 29]",171.4321527,7772,2229,2,19,8,1.0232843285905395
undo,26,20,0,0,0,21,"[0, 12, 5, 21]",4,10,"[1, 4, 6, 8, 9, 20, 23, 26, 27, 28]",126.4321527,9496,1724,2,12,8,1.017525191374897
undo,26,20,0,0,0,8,"[0, 12, 5, 21, 8]",5,6,"[1, 6, 9, 23, 27, 28]",108.9679035,10440,944,2,6,8,1.0391698601004782
undo,26,20,0,0,0,23,"[0, 12, 5, 21, 8, 23]",6,3,"[6, 9, 27]",64.28009758,12376,1936,2,1,8,1.0348450868606567
undo,26,20,0,0,0,9,"[0, 12, 5, 21, 8, 23, 9]",7,1,[6],45.07072487,13192,816,1,0,8,1.0335348098288684
undo,26,20,0,0,1,6,"[0, 12, 5, 21, 8, 23, 9, 6]",8,0,[],22.048996,16409,3217,1,0,8,1.0486850646228845
undo,26,20,1,0,0,9,"[0, 12, 5, 21, 8, 23, 9]",7,1,[6],45.07072487,23683,7274,1,0,8,1.0335348098288684
undo,26,20,1,0,0,23,"[0, 12, 5, 21, 8, 23]",6,3,"[6, 9, 27]",64.28009758,23849,166,2,1,8,1.0348450868606567
undo,26,20,1,0,0,8,"[0, 12, 5, 21, 8]",5,6,"[1, 6, 9, 23, 27, 28]",108.9679035,24132,283,2,6,8,1.0391698601004782
undo,26,20,1,0,0,21,"[0, 12, 5, 21]",4,10,"[1, 4, 6, 8, 9, 20, 23, 26, 27, 28]",126.4321527,24249,117,2,12,8,1.017525191374897
undo,26,20,1,0,0,5,"[0, 12, 5]",3,13,"[1, 3, 4, 6, 8, 9, 20, 21, 23, 26, 27, 28, 29]",171.4321527,24366,117,2,19,8,1.0232843285905395
undo,26,20,1,0,0,12,"[0, 12]",2,20,"[1, 2, 3, 4, 5, 6, 7, 8, 9, 17, 18, 20, 21, 22, 23, 25, 26, 27, 28, 29]",271.5570747,24516,150,1,8,9,1.0
undo,26,20,1,0,0,0,[0],1,21,"[1, 2, 3, 4, 5, 6, 7, 8, 9, 12, 17, 18, 20, 21, 22, 23, 25, 26, 27, 28, 29]",300,25516,1000,1,9,9,0.0
undo,26,20,0,0,0,3,"[0, 3]",2,8,"[4, 7, 17, 18, 20, 22, 25, 29]",133.1797374,29910,4394,10,7,5,1.0
undo,26,20,0,0,0,17,"[0, 3, 17]",3,3,"[7, 18, 25]",94.06452301,31253,1343,5,0,5,1.010934038413896
undo,26,20,0,0,0,25,"[0, 3, 17, 25]",4,2,"[7, 18]",69.98133385,33269,2016,2,0,5,1.0107903577828563
undo,26,20,0,0,1,7,"[0, 3, 17, 25, 7]",5,0,[],32.49800422,34341,1072,1,0,5,1.177041739062107
undo,26,20,1,0,0,25,"[0, 3, 17, 25]",4,2,"[7, 18]",69.98133385,37197,2856,2,0,5,1.0107903577828563
undo,26,20,1,0,0,17,"[0, 3, 17]",3,3,"[7, 18, 25]",94.06452301,37347,150,5,0,5,1.010934038413896
undo,26,20,1,0,0,3,"[0, 3]",2,8,"[4, 7, 17, 18, 20, 22, 25, 29]",133.1797374,37480,133,10,7,5,1.0
undo,26,20,1,0,0,0,[0],1,21,"[1, 2, 3, 4, 5, 6, 7, 8, 9, 12, 17, 18, 20, 21, 22, 23, 25, 26, 27, 28, 29]",300,37747,267,1,9,9,0.0
undo,26,20,0,0,0,12,"[0, 12]",2,20,"[1, 2, 3, 4, 5, 6, 7, 8, 9, 17, 18, 20, 21, 22, 23, 25, 26, 27, 28, 29]",271.5570747,40246,2499,1,8,9,1.0
undo,26,20,0,0,0,5,"[0, 12, 5]",3,13,"[1, 3, 4, 6, 8, 9, 20, 21, 23, 26, 27, 28, 29]",171.4321527,41629,1383,2,19,8,1.0232843285905395
undo,26,20,0,0,0,21,"[0, 12, 5, 21]",4,10,"[1, 4, 6, 8, 9, 20, 23, 26, 27, 28]",126.4321527,42957,1328,2,12,8,1.017525191374897
undo,26,20,0,0,0,8,"[0, 12, 5, 21, 8]",5,6,"[1, 6, 9, 23, 27, 28]",108.9679035,44637,1680,2,6,8,1.0391698601004782
undo,26,20,0,0,0,23,"[0, 12, 5, 21, 8, 23]",6,3,"[6, 9, 27]",64.28009758,45861,1224,2,1,8,1.0348450868606567
undo,26,20,0,0,0,9,"[0, 12, 5, 21, 8, 23, 9]",7,1,[6],45.07072487,46589,728,1,0,8,1.0335348098288684
undo,26,20,0,0,1,6,"[0, 12, 5, 21, 8, 23, 9, 6]",8,0,[],22.048996,48589,2000,1,0,8,1.0486850646228845
undo,26,20,0,1,1,6,"[0, 12, 5, 21, 8, 23, 9, 6]",8,0,[],22.048996,50613,2024,1,0,8,1.0486850646228845
undo,27,11,0,0,0,0,[0],1,25,"[1, 2, 3, 4, 5, 6, 8, 9, 10, 11, 12, 13, 14, 15, 16, 17, 18, 19, 20, 22, 23, 25, 26, 27, 28]",300,115,-1,6,374,12,0.0
undo,27,11,0,0,0,18,"[0, 18]",2,21,"[1, 2, 4, 5, 6, 8, 9, 11, 12, 13, 14, 15, 16, 17, 19, 20, 22, 23, 25, 27, 28]",236.8493864,4109,3994,157,1477,11,1.0
undo,27,11,0,0,0,27,"[0, 18, 27]",3,19,"[1, 2, 4, 5, 6, 8, 9, 11, 12, 14, 15, 16, 17, 19, 20, 22, 23, 25, 28]",212.9956655,5525,1416,157,1315,11,1.060949579704323
undo,27,11,0,0,0,8,"[0, 18, 27, 8]",4,14,"[1, 2, 4, 5, 6, 11, 12, 15, 17, 19, 22, 23, 25, 28]",142.7817068,9109,3584,68,433,11,1.0827202875589923
undo,27,11,0,0,0,17,"[0, 18, 27, 8, 17]",5,13,"[1, 2, 4, 5, 6, 11, 12, 15, 19, 22, 23, 25, 28]",128.4638857,10305,1196,42,137,11,1.1662918234607762
undo,27,11,0,0,0,15,"[0, 18, 27, 8, 17, 15]",6,9,"[2, 5, 6, 11, 12, 19, 22, 25, 28]",115.8147751,11468,1163,38,57,11,1.1741312027420885
undo,27,11,0,0,0,11,"[0, 18, 27, 8, 17, 15, 11]",7,7,"[2, 5, 6, 12, 19, 22, 28]",97.70400479,12757,1289,24,0,11,1.1668679039564056
undo,27,11,0,0,0,5,"[0, 18, 27, 8, 17, 15, 11, 5]",8,3,"[2, 22, 28]",62.47617489,14754,1997,6,0,11,1.4599514427122162
undo,27,11,0,0,0,28,"[0, 18, 27, 8, 17, 15, 11, 5, 28]",9,2,"[2, 22]",44.58763107,16766,2012,2,0,11,1.4780521291873887
undo,27,11,0,0,0,2,"[0, 18, 27, 8, 17, 15, 11, 5, 28, 2]",10,1,[22],33.95748525,17773,1007,1,0,11,1.49053366829238
undo,27,11,0,0,1,22,"[0, 18, 27, 8, 17, 15, 11, 5, 28, 2, 22]",11,0,[],23.90760963,19755,1982,1,0,11,1.4644184017269015
undo,27,11,0,1,1,22,"[0, 18, 27, 8, 17, 15, 11, 5, 28, 2, 22]",11,0,[],23.90760963,24499,4744,1,0,11,1.4644184017269015
undo,28,33,0,0,0,0,[0],1,23,"[1, 2, 5, 7, 8, 11, 12, 13, 14, 15, 16, 17, 18, 19, 20, 21, 23, 24, 25, 26, 27, 28, 29]",300,149,-1,5,108,9,0.0
undo,28,33,0,0,0,21,"[0, 21]",2,17,"[2, 5, 7, 8, 11, 13, 14, 16, 17, 18, 19, 20, 24, 26, 27, 28, 29]",174.4611614,3072,2923,21,129,8,1.0
undo,28,33,0,0,0,13,"[0, 21, 13]",3,15,"[2, 5, 7, 8, 11, 14, 16, 17, 18, 19, 20, 24, 26, 28, 29]",148.0604038,4703,1631,17,72,8,1.0001005298764474
undo,28,33,0,0,0,19,"[0, 21, 13, 19]",4,11,"[7, 11, 14, 16, 17, 18, 20, 24, 26, 28, 29]",122.5653063,6880,2177,10,27,8,1.0588446738393702
undo,28,33,0,0,0,7,"[0, 21, 13, 19, 7]",5,7,"[14, 16, 17, 18, 24, 26, 29]",76.94732734,8473,1593,3,5,8,1.0466997412739754
undo,28,33,0,0,0,14,"[0, 21, 13, 19, 7, 14]",6,3,"[24, 26, 29]",62.0812586,9188,715,2,1,8,1.096679239566485
undo,28,33,0,0,0,26,"[0, 21, 13, 19, 7, 14, 26]",7,1,[29],49.43214796,10263,1075,1,0,8,1.1075261679429118
undo,28,33,0,0,1,29,"[0, 21, 13, 19, 7, 14, 26, 29]",8,0,[],21.53949659,11392,1129,1,0,8,1.3238278222819673
undo,28,33,1,0,0,26,"[0, 21, 13, 19, 7, 14, 26]",7,1,[29],49.43214796,19364,7972,1,0,8,1.1075261679429118
undo,28,33,1,0,0,14,"[0, 21, 13, 19, 7, 14]",6,3,"[24, 26, 29]",62.0812586,19548,184,2,1,8,1.096679239566485
undo,28,33,1,0,0,7,"[0, 21, 13, 19, 7]",5,7,"[14, 16, 17, 18, 24, 26, 29]",76.94732734,19681,133,3,5,8,1.0466997412739754
undo,28,33,1,0,0,19,"[0, 21, 13, 19]",4,11,"[7, 11, 14, 16, 17, 18, 20, 24, 26, 28, 29]",122.5653063,19831,150,10,27,8,1.0588446738393702
undo,28,33,1,0,0,13,"[0, 21, 13]",3,15,"[2, 5, 7, 8, 11, 14, 16, 17, 18, 19, 20, 24, 26, 28, 29]",148.0604038,19981,150,17,72,8,1.0001005298764474
undo,28,33,1,0,0,21,"[0, 21]",2,17,"[2, 5, 7, 8, 11, 13, 14, 16, 17, 18, 19, 20, 24, 26, 27, 28, 29]",174.4611614,20131,150,21,129,8,1.0
undo,28,33,1,0,0,0,[0],1,23,"[1, 2, 5, 7, 8, 11, 12, 13, 14, 15, 16, 17, 18, 19, 20, 21, 23, 24, 25, 26, 27, 28, 29]",300,20831,700,5,108,9,0.0
undo,28,33,0,0,0,20,"[0, 20]",2,9,"[2, 7, 11, 13, 14, 17, 19, 26, 29]",93.29973391,23541,2710,6,9,5,1.0
undo,28,33,0,0,0,11,"[0, 20, 11]",3,5,"[2, 14, 17, 26, 29]",74.19476074,25390,1849,3,3,5,1.0169756507330405
undo,28,33,0,0,0,29,"[0, 20, 11, 29]",4,2,"[14, 26]",36.97917261,26270,880,2,0,5,1.250426128210471
undo,28,33,0,0,1,26,"[0, 20, 11, 29, 26]",5,0,[],9.086521246,27358,1088,1,0,5,1.2858564564616415
undo,28,33,1,0,0,29,"[0, 20, 11, 29]",4,2,"[14, 26]",36.97917261,29898,2540,2,0,5,1.250426128210471
undo,28,33,1,0,0,11,"[0, 20, 11]",3,5,"[2, 14, 17, 26, 29]",74.19476074,30081,183,3,3,5,1.0169756507330405
undo,28,33,1,0,0,20,"[0, 20]",2,9,"[2, 7, 11, 13, 14, 17, 19, 26, 29]",93.29973391,30214,133,6,9,5,1.0
undo,28,33,1,0,0,0,[0],1,23,"[1, 2, 5, 7, 8, 11, 12, 13, 14, 15, 16, 17, 18, 19, 20, 21, 23, 24, 25, 26, 27, 28, 29]",300,30414,200,5,108,9,0.0
undo,28,33,0,0,0,21,"[0, 21]",2,17,"[2, 5, 7, 8, 11, 13, 14, 16, 17, 18, 19, 20, 24, 26, 27, 28, 29]",174.4611614,35405,4991,21,129,8,1.0
undo,28,33,0,0,0,13,"[0, 21, 13]",3,15,"[2, 5, 7, 8, 11, 14, 16, 17, 18, 19, 20, 24, 26, 28, 29]",148.0604038,37371,1966,17,72,8,1.0001005298764474
undo,28,33,0,0,0,7,"[0, 21, 13, 7]",4,9,"[11, 14, 16, 17, 18, 19, 24, 26, 29]",83.70980165,40406,3035,6,12,7,1.0149660703601175
undo,28,33,0,0,0,14,"[0, 21, 13, 7, 14]",5,6,"[11, 17, 19, 24, 26, 29]",68.8437329,41606,1200,4,4,7,1.0655078188987734
undo,28,33,0,0,0,26,"[0, 21, 13, 7, 14, 26]",6,2,"[24, 29]",56.19462226,42470,864,2,0,7,1.0776355926503727
undo,28,33,0,0,1,29,"[0, 21, 13, 7, 14, 26, 29]",7,0,[],28.3019709,44215,1745,1,0,7,1.291678373690819
undo,28,33,1,0,0,26,"[0, 21, 13, 7, 14, 26]",6,2,"[24, 29]",56.19462226,46298,2083,2,0,7,1.0776355926503727
undo,28,33,1,0,0,14,"[0, 21, 13, 7, 14]",5,6,"[11, 17, 19, 24, 26, 29]",68.8437329,46448,150,4,4,7,1.0655078188987734
undo,28,33,1,0,0,7,"[0, 21, 13, 7]",4,9,"[11, 14, 16, 17, 18, 19, 24, 26, 29]",83.70980165,46581,133,6,12,7,1.0149660703601175
undo,28,33,1,0,0,13,"[0, 21, 13]",3,15,"[2, 5, 7, 8, 11, 14, 16, 17, 18, 19, 20, 24, 26, 28, 29]",148.0604038,48231,1650,17,72,8,1.0001005298764474
undo,28,33,0,0,0,19,"[0, 21, 13, 19]",4,11,"[7, 11, 14, 16, 17, 18, 20, 24, 26, 28, 29]",122.5653063,51187,2956,10,27,8,1.0588446738393702
undo,28,33,0,0,0,24,"[0, 21, 13, 19, 24]",5,7,"[7, 14, 16, 18, 26, 28, 29]",80.51771417,52371,1184,3,5,8,1.078006777679028
undo,28,33,0,0,0,7,"[0, 21, 13, 19, 24, 7]",6,3,"[14, 26, 29]",51.31155044,54888,2517,3,1,8,1.1669985062633954
undo,28,33,0,0,0,14,"[0, 21, 13, 19, 24, 7, 14]",7,2,"[26, 29]",36.44548169,55758,870,2,0,8,1.2148465775488593
undo,28,33,0,0,1,26,"[0, 21, 13, 19, 24, 7, 14, 26]",8,0,[],23.79637105,57399,1641,1,0,8,1.2208379656544521
undo,28,33,0,1,1,26,"[0, 21, 13, 19, 24, 7, 14, 26]",8,0,[],23.79637105,64665,7266,1,0,8,1.2208379656544521
undo,29,27,0,0,0,0,[0],1,26,"[1, 3, 5, 6, 7, 8, 9, 10, 11, 12, 13, 14, 15, 16, 17, 18, 19, 21, 22, 23, 24, 25, 26, 27, 28, 29]",300,115,-1,13,578,11,0.0
undo,29,27,0,0,0,15,"[0, 15]",2,24,"[1, 3, 5, 6, 7, 8, 9, 10, 11, 12, 13, 14, 16, 17, 18, 19, 21, 22, 23, 24, 25, 26, 27, 29]",263.7508621,2316,2201,6,219,11,1.0
undo,29,27,0,0,0,24,"[0, 15, 24]",3,20,"[1, 5, 6, 7, 8, 9, 10, 12, 13, 14, 16, 17, 18, 19, 21, 23, 25, 26, 27, 29]",246.5462115,3155,839,6,130,11,1.130933077698322
undo,29,27,0,0,0,17,"[0, 15, 24, 17]",4,15,"[1, 6, 8, 10, 12, 13, 14, 16, 18, 19, 23, 25, 26, 27, 29]",229.9932662,4347,1192,4,60,11,1.1285538435963374
undo,29,27,0,0,0,12,"[0, 15, 24, 17, 12]",5,14,"[1, 6, 8, 10, 13, 14, 16, 18, 19, 23, 25, 26, 27, 29]",218.8129263,8669,4322,2,32,11,1.2561880288755216
undo,29,27,0,0,0,10,"[0, 15, 24, 17, 12, 10]",6,11,"[1, 8, 13, 14, 18, 19, 23, 25, 26, 27, 29]",207.7675653,9425,756,2,28,11,1.2228289337766665
undo,29,27,0,0,0,13,"[0, 15, 24, 17, 12, 10, 13]",7,9,"[1, 8, 14, 18, 19, 23, 26, 27, 29]",167.9178476,10914,1489,2,18,11,1.3421291994761178
undo,29,27,0,0,0,23,"[0, 15, 24, 17, 12, 10, 13, 23]",8,6,"[1, 8, 18, 19, 26, 27]",108.3024133,17657,6743,6,2,10,2.5203738437563388
undo,29,27,0,0,0,1,"[0, 15, 24, 17, 12, 10, 13, 23, 1]",9,2,"[18, 27]",60.26076475,18872,1215,2,0,10,3.2940040527163665
undo,29,27,0,0,1,27,"[0, 15, 24, 17, 12, 10, 13, 23, 1, 27]",10,0,[],30.02833184,20441,1569,1,0,10,4.768745803615311
undo,29,27,0,1,1,27,"[0, 15, 24, 17, 12, 10, 13, 23, 1, 27]",10,0,[],30.02833184,25063,4622,1,0,10,4.768745803615311
undo,30,7,0,0,0,0,[0],1,29,"[1, 2, 3, 4, 5, 6, 7, 8, 9, 10, 11, 12, 13, 14, 15, 16, 17, 18, 19, 20, 21, 22, 23, 24, 25, 26, 27, 28, 29]",300,116,-1,3,79,9,0.0
undo,30,7,0,0,0,25,"[0, 25]",2,20,"[2, 3, 4, 5, 6, 7, 10, 13, 14, 15, 16, 18, 19, 20, 21, 22, 23, 24, 27, 28]",181.5939191,4072,3956,5,33,8,1.0
undo,30,7,0,0,0,4,"[0, 25, 4]",3,11,"[2, 6, 7, 13, 15, 16, 18, 19, 20, 21, 23]",156.8552853,6231,2159,2,14,8,1.0193465608331511
undo,30,7,0,0,0,20,"[0, 25, 4, 20]",4,8,"[2, 6, 7, 13, 15, 16, 18, 19]",137.2084026,7311,1080,1,9,8,1.085904909082323
undo,30,7,0,0,0,18,"[0, 25, 4, 20, 18]",5,7,"[2, 6, 7, 13, 15, 16, 19]",124.4021541,7896,585,1,5,8,1.2264883846453758
undo,30,7,0,0,0,7,"[0, 25, 4, 20, 18, 7]",6,2,"[2, 19]",83.17109789,8824,928,1,1,8,1.185264473968278
undo,30,7,0,0,0,19,"[0, 25, 4, 20, 18, 7, 19]",7,1,[2],53.76021555,9672,848,1,0,8,1.3016904288278204
undo,30,7,0,0,1,2,"[0, 25, 4, 20, 18, 7, 19, 2]",8,0,[],23.61058868,12391,2719,1,0,8,1.3168868000947171
undo,30,7,0,1,1,2,"[0, 25, 4, 20, 18, 7, 19, 2]",8,0,[],23.61058868,18983,6592,1,0,8,1.3168868000947171
undo,31,28,0,0,0,0,[0],1,27,"[1, 2, 3, 4, 5, 6, 7, 8, 9, 10, 11, 12, 13, 14, 15, 16, 17, 18, 19, 20, 22, 23, 25, 26, 27, 28, 29]",300,115,-1,2,96,9,0.0
undo,31,28,0,0,0,5,"[0, 5]",2,21,"[2, 3, 4, 6, 7, 8, 9, 10, 11, 12, 13, 14, 15, 18, 19, 20, 23, 25, 26, 28, 29]",169.6427984,11231,11116,4,42,8,1.0
undo,31,28,0,0,0,26,"[0, 5, 26]",3,15,"[2, 3, 4, 7, 8, 9, 12, 13, 14, 15, 18, 19, 20, 25, 28]",136.8861197,14159,2928,4,35,8,1.0149913611821164
undo,31,28,0,0,0,19,"[0, 5, 26, 19]",4,7,"[2, 7, 9, 12, 13, 14, 18]",95.88611973,15142,983,3,16,8,1.1179162815331476
undo,31,28,0,0,0,7,"[0, 5, 26, 19, 7]",5,5,"[2, 12, 13, 14, 18]",68.15527048,17159,2017,2,5,8,1.1835592656658687
undo,31,28,0,0,0,12,"[0, 5, 26, 19, 7, 12]",6,2,"[13, 18]",55.00232404,19006,1847,1,1,8,1.1891830098953253
undo,31,28,0,0,0,13,"[0, 5, 26, 19, 7, 12, 13]",7,1,[18],37.79767351,20672,1666,1,0,8,1.3761105369117108
undo,31,28,0,0,1,18,"[0, 5, 26, 19, 7, 12, 13, 18]",8,0,[],13.38456227,22558,1886,1,0,8,1.7228206627692229
undo,31,28,1,0,0,13,"[0, 5, 26, 19, 7, 12, 13]",7,1,[18],37.79767351,25830,3272,1,0,8,1.3761105369117108
undo,31,28,1,0,0,12,"[0, 5, 26, 19, 7, 12]",6,2,"[13, 18]",55.00232404,25997,167,1,1,8,1.1891830098953253
undo,31,28,1,0,0,7,"[0, 5, 26, 19, 7]",5,5,"[2, 12, 13, 14, 18]",68.15527048,26147,150,2,5,8,1.1835592656658687
undo,31,28,1,0,0,19,"[0, 5, 26, 19]",4,7,"[2, 7, 9, 12, 13, 14, 18]",95.88611973,26280,133,3,16,8,1.1179162815331476
undo,31,28,1,0,0,26,"[0, 5, 26]",3,15,"[2, 3, 4, 7, 8, 9, 12, 13, 14, 15, 18, 19, 20, 25, 28]",136.8861197,26397,117,4,35,8,1.0149913611821164
undo,31,28,1,0,0,5,"[0, 5]",2,21,"[2, 3, 4, 6, 7, 8, 9, 10, 11, 12, 13, 14, 15, 18, 19, 20, 23, 25, 26, 28, 29]",169.6427984,26530,133,4,42,8,1.0
undo,31,28,1,0,0,0,[0],1,27,"[1, 2, 3, 4, 5, 6, 7, 8, 9, 10, 11, 12, 13, 14, 15, 16, 17, 18, 19, 20, 22, 23, 25, 26, 27, 28, 29]",300,27230,700,2,96,9,0.0
undo,31,28,0,0,0,28,"[0, 28]",2,8,"[2, 4, 5, 8, 9, 19, 26, 29]",115.2840018,30180,2950,16,16,5,1.0
undo,31,28,0,0,0,8,"[0, 28, 8]",3,6,"[2, 4, 5, 9, 26, 29]",97.47950796,31412,1232,8,4,5,1.0041899497699787
undo,31,28,0,0,0,9,"[0, 28, 8, 9]",4,5,"[2, 4, 5, 26, 29]",82.34676201,32708,1296,5,0,5,1.057766249254381
undo,31,28,0,0,1,4,"[0, 28, 8, 9, 4]",5,0,[],59.32503314,33853,1145,1,0,5,1.0531434681092646
undo,31,28,1,0,0,9,"[0, 28, 8, 9]",4,5,"[2, 4, 5, 26, 29]",82.34676201,38180,4327,5,0,5,1.057766249254381
undo,31,28,1,0,0,8,"[0, 28, 8]",3,6,"[2, 4, 5, 9, 26, 29]",97.47950796,38330,150,8,4,5,1.0041899497699787
undo,31,28,1,0,0,28,"[0, 28]",2,8,"[2, 4, 5, 8, 9, 19, 26, 29]",115.2840018,38930,600,16,16,5,1.0
undo,31,28,1,0,0,0,[0],1,27,"[1, 2, 3, 4, 5, 6, 7, 8, 9, 10, 11, 12, 13, 14, 15, 16, 17, 18, 19, 20, 22, 23, 25, 26, 27, 28, 29]",300,39397,467,2,96,9,0.0
undo,31,28,0,0,0,3,"[0, 3]",2,26,"[1, 2, 4, 5, 6, 7, 8, 9, 10, 11, 12, 13, 14, 15, 16, 17, 18, 19, 20, 22, 23, 25, 26, 27, 28, 29]",251.0817008,42388,2991,1,64,9,1.0
undo,31,28,0,0,0,5,"[0, 3, 5]",3,20,"[2, 4, 6, 7, 8, 9, 10, 11, 12, 13, 14, 15, 18, 19, 20, 23, 25, 26, 28, 29]",166.9865166,43540,1152,1,34,9,1.0203769473612083
undo,31,28,0,0,0,26,"[0, 3, 5, 26]",4,13,"[2, 4, 7, 8, 9, 12, 13, 14, 18, 19, 20, 25, 28]",134.2298379,44920,1380,1,28,9,1.0315203228799597
undo,31,28,0,0,0,19,"[0, 3, 5, 26, 19]",5,7,"[2, 7, 9, 12, 13, 14, 18]",93.22983789,45860,940,1,17,9,1.1324645362297356
undo,31,28,0,0,0,7,"[0, 3, 5, 26, 19, 7]",6,5,"[2, 12, 13, 14, 18]",65.49898864,46803,943,1,6,9,1.1971194919020265
undo,31,28,0,0,0,12,"[0, 3, 5, 26, 19, 7, 12]",7,2,"[13, 18]",52.3460422,47953,1150,1,1,9,1.2020762147848982
undo,31,28,0,0,0,13,"[0, 3, 5, 26, 19, 7, 12, 13]",8,1,[18],35.14139167,49483,1530,1,0,9,1.39005144078531
undo,31,28,0,0,1,18,"[0, 3, 5, 26, 19, 7, 12, 13, 18]",9,0,[],10.72828044,51740,2257,1,0,9,1.738787343626007
undo,31,28,0,1,1,18,"[0, 3, 5, 26, 19, 7, 12, 13, 18]",9,0,[],10.72828044,54997,3257,1,0,9,1.738787343626007
undo,32,25,0,0,0,0,[0],1,28,"[1, 2, 3, 4, 5, 7, 8, 9, 10, 11, 12, 13, 14, 15, 16, 17, 18, 19, 20, 21, 22, 23, 24, 25, 26, 27, 28, 29]",300,115,-1,5,94,10,0.0
undo,32,25,0,0,0,23,"[0, 23]",2,23,"[1, 2, 3, 5, 7, 8, 9, 11, 12, 13, 14, 16, 17, 19, 20, 21, 22, 24, 25, 26, 27, 28, 29]",259.7756293,4404,4289,3,33,10,1.0
undo,32,25,0,0,0,7,"[0, 23, 7]",3,16,"[1, 3, 5, 8, 9, 11, 13, 17, 19, 21, 22, 24, 26, 27, 28, 29]",181.9424744,5704,1300,1,21,9,1.0073109045884563
undo,32,25,0,0,0,24,"[0, 23, 7, 24]",4,10,"[3, 5, 8, 9, 11, 13, 19, 22, 28, 29]",157.1836376,6602,898,1,17,9,1.0161584555781231
undo,32,25,0,0,0,9,"[0, 23, 7, 24, 9]",5,8,"[3, 8, 11, 13, 19, 22, 28, 29]",139.1558812,7370,768,1,16,9,1.0303325523073676
undo,32,25,0,0,0,3,"[0, 23, 7, 24, 9, 3]",6,4,"[8, 11, 13, 28]",108.8903893,8588,1218,1,5,9,1.0321657704271587
undo,32,25,0,0,0,13,"[0, 23, 7, 24, 9, 3, 13]",7,2,"[8, 28]",77.6493906,9755,1167,1,1,9,1.1031543757060376
undo,32,25,0,0,0,28,"[0, 23, 7, 24, 9, 3, 13, 28]",8,1,[8],43.41490506,11060,1305,1,0,9,1.1857356956374323
undo,32,25,0,0,1,8,"[0, 23, 7, 24, 9, 3, 13, 28, 8]",9,0,[],2.807024055,12255,1195,1,0,9,1.486169242046657
undo,32,25,0,1,1,8,"[0, 23, 7, 24, 9, 3, 13, 28, 8]",9,0,[],2.807024055,14415,2160,1,0,9,1.486169242046657
undo,33,9,0,0,0,0,[0],1,27,"[1, 3, 4, 5, 6, 7, 8, 9, 10, 11, 13, 14, 15, 16, 17, 18, 19, 20, 21, 22, 23, 24, 25, 26, 27, 28, 29]",300,116,-1,2,182,10,0.0
undo,33,9,0,0,0,25,"[0, 25]",2,24,"[1, 3, 4, 5, 6, 7, 8, 9, 10, 11, 13, 15, 16, 17, 18, 19, 20, 21, 22, 23, 24, 26, 27, 28]",275.9168108,6010,5894,2,104,10,1.0
undo,33,9,0,0,0,8,"[0, 25, 8]",3,23,"[1, 3, 4, 5, 6, 7, 9, 10, 11, 13, 15, 16, 17, 18, 19, 20, 21, 22, 23, 24, 26, 27, 28]",207.9168108,8255,2245,6,96,9,1.4437429617959179
undo,33,9,0,0,0,28,"[0, 25, 8, 28]",4,22,"[1, 3, 4, 5, 6, 7, 9, 10, 11, 13, 15, 16, 17, 18, 19, 20, 21, 22, 23, 24, 26, 27]",197.100157,10255,2000,3,47,9,1.3853618380798385
undo,33,9,0,0,0,23,"[0, 25, 8, 28, 23]",5,16,"[3, 4, 5, 7, 9, 10, 11, 16, 17, 18, 19, 20, 21, 22, 26, 27]",172.080165,12146,1891,2,17,9,2.148472359596758
undo,33,9,0,0,0,9,"[0, 25, 8, 28, 23, 9]",6,13,"[3, 4, 5, 7, 10, 11, 18, 19, 20, 21, 22, 26, 27]",149.7194852,13728,1582,2,8,9,2.018142827958472
undo,33,9,0,0,0,26,"[0, 25, 8, 28, 23, 9, 26]",7,4,"[18, 19, 20, 21]",93.07144908,15086,1358,2,2,9,1.7712746597907922
undo,33,9,0,0,0,21,"[0, 25, 8, 28, 23, 9, 26, 21]",8,1,[20],39.16412119,16328,1242,1,0,9,2.200539495070579
undo,33,9,0,0,1,20,"[0, 25, 8, 28, 23, 9, 26, 21, 20]",9,0,[],27.08107522,18391,2063,1,0,9,2.154921576632978
undo,33,9,0,1,1,20,"[0, 25, 8, 28, 23, 9, 26, 21, 20]",9,0,[],27.08107522,22730,4339,1,0,9,2.154921576632978
undo,34,43,0,0,0,0,[0],1,23,"[1, 2, 3, 4, 5, 6, 7, 9, 10, 11, 12, 14, 15, 16, 17, 19, 20, 21, 22, 23, 25, 27, 29]",300,132,-1,16,556,12,0.0
undo,34,43,0,0,0,29,"[0, 29]",2,22,"[1, 2, 3, 4, 5, 6, 7, 9, 10, 11, 12, 14, 15, 16, 17, 19, 20, 21, 22, 23, 25, 27]",277.909278,9976,9844,16,520,12,1.0
undo,34,43,0,0,0,16,"[0, 29, 16]",3,21,"[1, 2, 3, 4, 5, 6, 7, 9, 10, 11, 12, 14, 15, 17, 19, 20, 21, 22, 23, 25, 27]",243.8945753,12319,2343,1,94,12,1.0004480205874837
undo,34,43,0,0,0,15,"[0, 29, 16, 15]",4,17,"[1, 2, 3, 4, 5, 6, 7, 9, 11, 12, 14, 19, 20, 21, 22, 23, 25]",200.5702172,16215,3896,19,260,11,1.2025841171227387
undo,34,43,0,0,0,25,"[0, 29, 16, 15, 25]",5,14,"[1, 2, 3, 4, 6, 7, 9, 11, 12, 14, 19, 20, 22, 23]",177.8986491,17823,1608,13,88,11,1.5395547790138062
undo,34,43,0,0,0,12,"[0, 29, 16, 15, 25, 12]",6,12,"[1, 3, 4, 6, 7, 9, 11, 14, 19, 20, 22, 23]",153.7118759,19343,1520,12,58,11,1.4797730768666666
undo,34,43,0,0,0,3,"[0, 29, 16, 15, 25, 12, 3]",7,11,"[1, 4, 6, 7, 9, 11, 14, 19, 20, 22, 23]",140.7118759,20792,1449,12,37,11,1.4298731363598527
undo,34,43,0,0,0,22,"[0, 29, 16, 15, 25, 12, 3, 22]",8,8,"[1, 4, 6, 7, 11, 14, 19, 20]",105.998766,23631,2839,7,14,11,1.6265909620174612
undo,34,43,0,0,0,19,"[0, 29, 16, 15, 25, 12, 3, 22, 19]",9,4,"[1, 6, 7, 11]",85.38323783,27007,3376,4,1,11,1.5448452578465257
undo,34,43,0,0,0,1,"[0, 29, 16, 15, 25, 12, 3, 22, 19, 1]",10,2,"[6, 7]",57.20523222,29023,2016,2,0,11,1.686644244961022
undo,34,43,0,0,1,7,"[0, 29, 16, 15, 25, 12, 3, 22, 19, 1, 7]",11,0,[],18.99528588,30647,1624,1,0,11,1.5924589591472287
undo,34,43,0,1,1,7,"[0, 29, 16, 15, 25, 12, 3, 22, 19, 1, 7]",11,0,[],18.99528588,33481,2834,1,0,11,1.5924589591472287
undo,35,34,0,0,0,0,[0],1,25,"[1, 3, 4, 5, 6, 7, 8, 9, 10, 11, 12, 13, 15, 18, 19, 20, 21, 22, 23, 24, 25, 26, 27, 28, 29]",300,116,-1,12,367,10,0.0
undo,35,34,0,0,0,13,"[0, 13]",2,24,"[1, 3, 4, 5, 6, 7, 8, 9, 10, 11, 12, 15, 18, 19, 20, 21, 22, 23, 24, 25, 26, 27, 28, 29]",279.9750156,3330,3214,12,331,10,1.0
undo,35,34,0,0,0,1,"[0, 13, 1]",3,16,"[3, 5, 7, 8, 9, 10, 11, 12, 19, 21, 22, 23, 24, 25, 27, 29]",211.8574701,5458,2128,3,92,10,1.0010381285747127
undo,35,34,0,0,0,8,"[0, 13, 1, 8]",4,14,"[3, 5, 7, 9, 10, 11, 12, 19, 22, 23, 24, 25, 27, 29]",201.0871405,6322,864,2,54,10,1.1636807
undo,35,34,0,0,0,25,"[0, 13, 1, 8, 25]",5,12,"[3, 5, 7, 9, 10, 11, 12, 22, 23, 24, 27, 29]",183.999133,7240,918,2,28,10,1.1396208815936457
undo,35,34,0,0,0,24,"[0, 13, 1, 8, 25, 24]",6,11,"[3, 5, 7, 9, 10, 11, 12, 22, 23, 27, 29]",166.5062774,8273,1033,2,23,10,1.374180768736554
undo,35,34,0,0,0,12,"[0, 13, 1, 8, 25, 24, 12]",7,7,"[7, 9, 10, 11, 22, 23, 27]",115.4670767,10131,1858,1,8,10,1.4994254760835948
undo,35,34,0,0,0,7,"[0, 13, 1, 8, 25, 24, 12, 7]",8,5,"[9, 11, 22, 23, 27]",100.4337804,11442,1311,1,4,10,1.758992610425009
undo,35,34,0,0,0,23,"[0, 13, 1, 8, 25, 24, 12, 7, 23]",9,1,[27],72.27352467,12423,981,1,0,10,2.399781305190153
undo,35,34,0,0,1,27,"[0, 13, 1, 8, 25, 24, 12, 7, 23, 27]",10,0,[],18.60789321,13773,1350,1,0,10,4.766619878750327
undo,35,34,0,1,1,27,"[0, 13, 1, 8, 25, 24, 12, 7, 23, 27]",10,0,[],18.60789321,17383,3610,1,0,10,4.766619878750327
undo,36,37,0,0,0,0,[0],1,29,"[1, 2, 3, 4, 5, 6, 7, 8, 9, 10, 11, 12, 13, 14, 15, 16, 17, 18, 19, 20, 21, 22, 23, 24, 25, 26, 27, 28, 29]",300,116,-1,6,168,10,0.0
undo,36,37,0,0,0,18,"[0, 18]",2,19,"[1, 2, 4, 6, 7, 9, 10, 12, 14, 15, 17, 19, 20, 21, 22, 23, 26, 28, 29]",202.4090168,13572,13456,6,89,10,1.0
undo,36,37,0,0,0,7,"[0, 18, 7]",3,12,"[1, 2, 4, 9, 15, 17, 19, 20, 21, 22, 26, 29]",175.2428614,15280,1708,6,53,10,1.0413073512834488
undo,36,37,0,0,0,22,"[0, 18, 7, 22]",4,8,"[1, 2, 4, 15, 19, 20, 21, 26]",125.2428614,16441,1161,6,29,10,1.0730792320325544
undo,36,37,0,0,0,4,"[0, 18, 7, 22, 4]",5,7,"[1, 2, 15, 19, 20, 21, 26]",100.2428614,18006,1565,4,16,10,1.2290245562206235
undo,36,37,0,0,0,2,"[0, 18, 7, 22, 4, 2]",6,5,"[1, 15, 19, 20, 21]",88.84110714,20393,2387,4,7,10,1.3968113858365216
undo,36,37,0,0,0,1,"[0, 18, 7, 22, 4, 2, 1]",7,4,"[15, 19, 20, 21]",71.63645661,21792,1399,4,3,10,1.4424239294761476
undo,36,37,0,0,0,20,"[0, 18, 7, 22, 4, 2, 1, 20]",8,3,"[15, 19, 21]",37.40197107,25156,3364,2,1,10,1.7518607796010042
undo,36,37,0,0,0,15,"[0, 18, 7, 22, 4, 2, 1, 20, 15]",9,1,[21],20.40197107,26572,1416,1,0,10,1.680305745239285
undo,36,37,0,0,1,21,"[0, 18, 7, 22, 4, 2, 1, 20, 15, 21]",10,0,[],5.401971073,27993,1421,1,0,10,1.8982635624510946
undo,36,37,0,1,1,21,"[0, 18, 7, 22, 4, 2, 1, 20, 15, 21]",10,0,[],5.401971073,35700,7707,1,0,10,1.8982635624510946
undo,37,1,0,0,0,0,[0],1,26,"[1, 2, 4, 5, 7, 8, 9, 10, 11, 12, 13, 14, 15, 16, 17, 18, 19, 20, 21, 22, 23, 24, 25, 26, 28, 29]",300,115,-1,6,74,7,0.0
undo,37,1,0,0,0,14,"[0, 14]",2,19,"[1, 4, 5, 8, 9, 13, 15, 17, 18, 19, 20, 21, 22, 23, 24, 25, 26, 28, 29]",200.1901808,19769,19654,5,42,7,1.0
undo,37,1,0,0,0,17,"[0, 14, 17]",3,15,"[1, 4, 5, 8, 9, 13, 15, 18, 19, 20, 22, 23, 25, 28, 29]",147.8356204,21129,1360,5,27,7,1.0028844724416826
undo,37,1,0,0,0,1,"[0, 14, 17, 1]",4,12,"[4, 5, 8, 9, 15, 18, 20, 22, 23, 25, 28, 29]",123.4840291,22153,1024,5,15,7,1.0264985578353567
undo,37,1,0,0,0,28,"[0, 14, 17, 1, 28]",5,5,"[9, 15, 22, 23, 29]",88.59850198,23354,1201,5,3,7,1.0339861575999345
undo,37,1,0,0,0,15,"[0, 14, 17, 1, 28, 15]",6,3,"[22, 23, 29]",53.37067208,26657,3303,3,0,7,1.055553419196412
undo,37,1,0,0,1,23,"[0, 14, 17, 1, 28, 15, 23]",7,0,[],22.48378165,27887,1230,1,0,7,1.1542953231038533
undo,37,1,1,0,0,15,"[0, 14, 17, 1, 28, 15]",6,3,"[22, 23, 29]",53.37067208,30764,2877,3,0,7,1.055553419196412
undo,37,1,1,0,0,28,"[0, 14, 17, 1, 28]",5,5,"[9, 15, 22, 23, 29]",88.59850198,30964,200,5,3,7,1.0339861575999345
undo,37,1,1,0,0,1,"[0, 14, 17, 1]",4,12,"[4, 5, 8, 9, 15, 18, 20, 22, 23, 25, 28, 29]",123.4840291,31114,150,5,15,7,1.0264985578353567
undo,37,1,1,0,0,17,"[0, 14, 17]",3,15,"[1, 4, 5, 8, 9, 13, 15, 18, 19, 20, 22, 23, 25, 28, 29]",147.8356204,31331,217,5,27,7,1.0028844724416826
undo,37,1,1,0,0,14,"[0, 14]",2,19,"[1, 4, 5, 8, 9, 13, 15, 17, 18, 19, 20, 21, 22, 23, 24, 25, 26, 28, 29]",200.1901808,31564,233,5,42,7,1.0
undo,37,1,1,0,0,0,[0],1,26,"[1, 2, 4, 5, 7, 8, 9, 10, 11, 12, 13, 14, 15, 16, 17, 18, 19, 20, 21, 22, 23, 24, 25, 26, 28, 29]",300,32331,767,6,74,7,0.0
undo,37,1,0,0,0,20,"[0, 20]",2,13,"[1, 4, 5, 8, 11, 13, 14, 15, 17, 18, 19, 28, 29]",129.961769,35204,2873,2,11,6,1.0
undo,37,1,0,0,0,5,"[0, 20, 5]",3,9,"[1, 4, 8, 11, 13, 17, 18, 19, 29]",108.4908585,36838,1634,2,6,6,1.0224915251419384
undo,37,1,0,0,0,18,"[0, 20, 5, 18]",4,4,"[4, 13, 17, 29]",85.66543403,37521,683,2,3,6,1.064078468417926
undo,37,1,0,0,0,4,"[0, 20, 5, 18, 4]",5,2,"[13, 29]",46.71674984,39609,2088,2,0,6,1.0731955739217967
undo,37,1,0,0,1,13,"[0, 20, 5, 18, 4, 13]",6,0,[],2.332067799,40837,1228,1,0,6,1.0623276828380515
undo,37,1,1,0,0,4,"[0, 20, 5, 18, 4]",5,2,"[13, 29]",46.71674984,45265,4428,2,0,6,1.0731955739217967
undo,37,1,1,0,0,18,"[0, 20, 5, 18]",4,4,"[4, 13, 17, 29]",85.66543403,45431,166,2,3,6,1.064078468417926
undo,37,1,1,0,0,5,"[0, 20, 5]",3,9,"[1, 4, 8, 11, 13, 17, 18, 19, 29]",108.4908585,45614,183,2,6,6,1.0224915251419384
undo,37,1,1,0,0,20,"[0, 20]",2,13,"[1, 4, 5, 8, 11, 13, 14, 15, 17, 18, 19, 28, 29]",129.961769,46131,517,2,11,6,1.0
undo,37,1,1,0,0,0,[0],1,26,"[1, 2, 4, 5, 7, 8, 9, 10, 11, 12, 13, 14, 15, 16, 17, 18, 19, 20, 21, 22, 23, 24, 25, 26, 28, 29]",300,46615,484,6,74,7,0.0
undo,37,1,0,0,0,14,"[0, 14]",2,19,"[1, 4, 5, 8, 9, 13, 15, 17, 18, 19, 20, 21, 22, 23, 24, 25, 26, 28, 29]",200.1901808,50038,3423,5,42,7,1.0
undo,37,1,0,0,0,17,"[0, 14, 17]",3,15,"[1, 4, 5, 8, 9, 13, 15, 18, 19, 20, 22, 23, 25, 28, 29]",147.8356204,50825,787,5,27,7,1.0028844724416826
undo,37,1,0,0,0,1,"[0, 14, 17, 1]",4,12,"[4, 5, 8, 9, 15, 18, 20, 22, 23, 25, 28, 29]",123.4840291,52588,1763,5,15,7,1.0264985578353567
undo,37,1,0,0,0,28,"[0, 14, 17, 1, 28]",5,5,"[9, 15, 22, 23, 29]",88.59850198,53689,1101,5,3,7,1.0339861575999345
undo,37,1,0,0,0,15,"[0, 14, 17, 1, 28, 15]",6,3,"[22, 23, 29]",53.37067208,54689,1000,3,0,7,1.055553419196412
undo,37,1,0,0,1,23,"[0, 14, 17, 1, 28, 15, 23]",7,0,[],22.48378165,59689,5000,1,0,7,1.1542953231038533
undo,37,1,0,1,1,23,"[0, 14, 17, 1, 28, 15, 23]",7,0,[],22.48378165,65979,6290,1,0,7,1.1542953231038533
undo,38,23,0,0,0,0,[0],1,28,"[1, 2, 3, 4, 5, 6, 7, 8, 9, 10, 11, 12, 13, 14, 15, 16, 17, 18, 19, 20, 21, 22, 23, 25, 26, 27, 28, 29]",300,115,-1,76,2626,10,0.0
undo,38,23,0,0,0,13,"[0, 13]",2,19,"[1, 2, 3, 5, 6, 7, 8, 9, 10, 12, 14, 17, 18, 19, 21, 22, 23, 27, 29]",189.3202819,3097,2982,9,168,10,1.0
undo,38,23,0,0,0,12,"[0, 13, 12]",3,16,"[1, 2, 3, 6, 7, 8, 9, 10, 14, 17, 18, 21, 22, 23, 27, 29]",177.2372359,3913,816,9,96,10,1.0014195490503164
undo,38,23,0,0,0,2,"[0, 13, 12, 2]",4,12,"[1, 3, 6, 7, 9, 10, 14, 18, 21, 22, 27, 29]",163.3447919,6681,2768,4,30,10,1.0014394317924602
undo,38,23,0,0,0,6,"[0, 13, 12, 2, 6]",5,8,"[7, 9, 10, 14, 18, 22, 27, 29]",144.905703,9057,2376,2,11,10,1.0322887343644427
undo,38,23,0,0,0,14,"[0, 13, 12, 2, 6, 14]",6,7,"[7, 9, 10, 18, 22, 27, 29]",116.0439636,10905,1848,1,4,10,1.305671089460822
undo,38,23,0,0,0,9,"[0, 13, 12, 2, 6, 14, 9]",7,6,"[7, 10, 18, 22, 27, 29]",105.6036571,16521,5616,1,3,10,1.4879353140485658
undo,38,23,0,0,0,29,"[0, 13, 12, 2, 6, 14, 9, 29]",8,2,"[7, 10]",53.98001913,19041,2520,1,1,10,1.5953811457786307
undo,38,23,0,0,0,7,"[0, 13, 12, 2, 6, 14, 9, 29, 7]",9,1,[10],29.89682997,20225,1184,1,0,10,1.6059372050079357
undo,38,23,0,0,1,10,"[0, 13, 12, 2, 6, 14, 9, 29, 7, 10]",10,0,[],2.437769539,21713,1488,1,0,10,1.5568722197385467
undo,38,23,0,1,1,10,"[0, 13, 12, 2, 6, 14, 9, 29, 7, 10]",10,0,[],2.437769539,24249,2536,1,0,10,1.5568722197385467
undo,39,40,0,0,0,0,[0],1,29,"[1, 2, 3, 4, 5, 6, 7, 8, 9, 10, 11, 12, 13, 14, 15, 16, 17, 18, 19, 20, 21, 22, 23, 24, 25, 26, 27, 28, 29]",300,115,-1,8,191,9,0.0
undo,39,40,0,0,0,1,"[0, 1]",2,18,"[2, 5, 6, 7, 8, 9, 10, 11, 13, 15, 17, 18, 19, 21, 22, 23, 27, 29]",247.8463808,6781,6666,4,80,9,1.0
undo,39,40,0,0,0,6,"[0, 1, 6]",3,17,"[2, 5, 7, 8, 9, 10, 11, 13, 15, 17, 18, 19, 21, 22, 23, 27, 29]",227.7466295,8270,1489,4,74,9,1.0459427008232034
undo,39,40,0,0,0,9,"[0, 1, 6, 9]",4,10,"[2, 5, 8, 11, 18, 19, 21, 22, 23, 27]",159.146338,9525,1255,17,39,8,1.142098432552584
undo,39,40,0,0,0,18,"[0, 1, 6, 9, 18]",5,9,"[2, 5, 8, 11, 19, 21, 22, 23, 27]",142.5933926,11157,1632,13,14,8,1.3288108654802917
undo,39,40,0,0,0,5,"[0, 1, 6, 9, 18, 5]",6,7,"[2, 8, 19, 21, 22, 23, 27]",111.0180858,13705,2548,5,5,8,1.5366414787972102
undo,39,40,0,0,0,23,"[0, 1, 6, 9, 18, 5, 23]",7,3,"[2, 19, 21]",82.71614241,14494,789,3,0,8,2.2908821040631264
undo,39,40,0,0,1,19,"[0, 1, 6, 9, 18, 5, 23, 19]",8,0,[],50.76305179,16358,1864,1,0,8,2.4294131203959415
undo,39,40,1,0,0,23,"[0, 1, 6, 9, 18, 5, 23]",7,3,"[2, 19, 21]",82.71614241,20683,4325,3,0,8,2.2908821040631264
undo,39,40,1,0,0,5,"[0, 1, 6, 9, 18, 5]",6,7,"[2, 8, 19, 21, 22, 23, 27]",111.0180858,20849,166,5,5,8,1.5366414787972102
undo,39,40,1,0,0,18,"[0, 1, 6, 9, 18]",5,9,"[2, 5, 8, 11, 19, 21, 22, 23, 27]",142.5933926,20983,134,13,14,8,1.3288108654802917
undo,39,40,1,0,0,9,"[0, 1, 6, 9]",4,10,"[2, 5, 8, 11, 18, 19, 21, 22, 23, 27]",159.146338,21316,333,17,39,8,1.142098432552584
undo,39,40,1,0,0,6,"[0, 1, 6]",3,17,"[2, 5, 7, 8, 9, 10, 11, 13, 15, 17, 18, 19, 21, 22, 23, 27, 29]",227.7466295,21483,167,4,74,9,1.0459427008232034
undo,39,40,1,0,0,1,"[0, 1]",2,18,"[2, 5, 6, 7, 8, 9, 10, 11, 13, 15, 17, 18, 19, 21, 22, 23, 27, 29]",247.8463808,21633,150,4,80,9,1.0
undo,39,40,1,0,0,0,[0],1,29,"[1, 2, 3, 4, 5, 6, 7, 8, 9, 10, 11, 12, 13, 14, 15, 16, 17, 18, 19, 20, 21, 22, 23, 24, 25, 26, 27, 28, 29]",300,22499,866,8,191,9,0.0
undo,39,40,0,0,0,2,"[0, 2]",2,28,"[1, 3, 4, 5, 6, 7, 8, 9, 10, 11, 12, 13, 14, 15, 16, 17, 18, 19, 20, 21, 22, 23, 24, 25, 26, 27, 28, 29]",263.7646581,26198,3699,4,79,9,1.0
undo,39,40,0,0,0,1,"[0, 2, 1]",3,13,"[5, 6, 8, 9, 10, 13, 17, 18, 19, 21, 22, 23, 27]",197.9695215,27510,1312,3,32,9,1.9563451201211088
undo,39,40,0,0,0,6,"[0, 2, 1, 6]",4,10,"[5, 8, 9, 13, 17, 18, 19, 21, 22, 23]",177.8697703,28246,736,3,29,9,1.767962123020631
undo,39,40,0,0,0,9,"[0, 2, 1, 6, 9]",5,6,"[5, 18, 19, 21, 22, 23]",109.2694788,30725,2479,1,5,9,1.5465201700077729
undo,39,40,0,0,0,18,"[0, 2, 1, 6, 9, 18]",6,5,"[5, 19, 21, 22, 23]",92.71653339,32022,1297,1,3,9,1.7498663316327165
undo,39,40,0,0,0,5,"[0, 2, 1, 6, 9, 18, 5]",7,2,"[19, 23]",61.14122659,33845,1823,1,1,9,1.9421980158799246
undo,39,40,0,0,0,23,"[0, 2, 1, 6, 9, 18, 5, 23]",8,1,[19],32.83928319,34687,842,1,0,9,2.816747234870858
undo,39,40,0,0,1,19,"[0, 2, 1, 6, 9, 18, 5, 23, 19]",9,0,[],0.886192572,36139,1452,1,0,9,2.915582996325632
undo,39,40,0,1,1,19,"[0, 2, 1, 6, 9, 18, 5, 23, 19]",9,0,[],0.886192572,38113,1974,1,0,9,2.915582996325632
undo,40,30,0,0,0,0,[0],1,19,"[3, 4, 5, 7, 9, 11, 16, 17, 18, 19, 20, 21, 22, 24, 25, 26, 27, 28, 29]",300,132,-1,5,41,8,0.0
undo,40,30,0,0,0,27,"[0, 27]",2,10,"[3, 5, 7, 9, 18, 19, 20, 24, 25, 29]",90.59608409,7175,7043,7,22,6,1.0
undo,40,30,0,0,0,3,"[0, 27, 3]",3,8,"[5, 7, 18, 19, 20, 24, 25, 29]",71.49111091,8539,1364,5,9,6,1.0022223300201003
undo,40,30,0,0,0,5,"[0, 27, 3, 5]",4,4,"[7, 18, 24, 29]",46.65162621,9528,989,1,3,6,1.047699458031665
undo,40,30,0,0,0,18,"[0, 27, 3, 5, 18]",5,1,[29],33.6132214,11056,1528,1,0,6,1.0906504953306948
undo,40,30,0,0,1,29,"[0, 27, 3, 5, 18, 29]",6,0,[],14.30001349,13523,2467,1,0,6,1.1734964103241567
undo,40,30,0,1,1,29,"[0, 27, 3, 5, 18, 29]",6,0,[],14.30001349,23083,9560,1,0,6,1.1734964103241567
undo,41,39,0,0,0,0,[0],1,28,"[1, 2, 3, 4, 5, 6, 7, 9, 10, 11, 12, 13, 14, 15, 16, 17, 18, 19, 20, 21, 22, 23, 24, 25, 26, 27, 28, 29]",300,116,-1,1,30,10,0.0
undo,41,39,0,0,0,29,"[0, 29]",2,26,"[1, 2, 3, 4, 5, 6, 7, 9, 10, 12, 13, 14, 15, 16, 17, 18, 19, 20, 21, 22, 23, 24, 25, 26, 27, 28]",243.0614366,8606,8490,8,104,9,1.0
undo,41,39,0,0,0,10,"[0, 29, 10]",3,19,"[1, 2, 4, 5, 7, 9, 12, 13, 14, 15, 16, 17, 18, 19, 22, 23, 24, 26, 28]",178.4239862,10656,2050,3,48,9,1.0231293692376968
undo,41,39,0,0,0,7,"[0, 29, 10, 7]",4,14,"[1, 2, 4, 5, 9, 12, 13, 15, 16, 18, 19, 22, 24, 26]",145.0024362,15108,4452,2,20,9,1.0186411966151707
undo,41,39,0,0,0,26,"[0, 29, 10, 7, 26]",5,9,"[1, 2, 5, 12, 13, 16, 18, 19, 22]",126.3208945,16028,920,1,9,9,1.0752526811750318
undo,41,39,0,0,0,22,"[0, 29, 10, 7, 26, 22]",6,6,"[1, 5, 12, 16, 18, 19]",108.6008494,17324,1296,1,3,9,1.2360944063790367
undo,41,39,0,0,0,16,"[0, 29, 10, 7, 26, 22, 16]",7,2,"[18, 19]",73.6008494,18212,888,1,1,9,1.1926155792040818
undo,41,39,0,0,0,19,"[0, 29, 10, 7, 26, 22, 16, 19]",8,1,[18],56.1366002,18840,628,1,0,9,1.2089345217410772
undo,41,39,0,0,1,18,"[0, 29, 10, 7, 26, 22, 16, 19, 18]",9,0,[],12.96253391,20171,1331,1,0,9,1.2243548998729528
undo,41,39,0,1,1,18,"[0, 29, 10, 7, 26, 22, 16, 19, 18]",9,0,[],12.96253391,22600,2429,1,0,9,1.2243548998729528
undo,42,45,0,0,0,0,[0],1,24,"[1, 2, 3, 4, 5, 6, 7, 9, 10, 11, 12, 14, 15, 16, 17, 19, 20, 21, 22, 23, 24, 25, 27, 29]",300,116,-1,6,248,10,0.0
undo,42,45,0,0,0,17,"[0, 17]",2,22,"[1, 2, 3, 4, 5, 6, 7, 9, 10, 11, 12, 14, 15, 16, 19, 20, 21, 22, 23, 24, 25, 29]",235.867325,4555,4439,1,34,10,1.0
undo,42,45,0,0,0,24,"[0, 17, 24]",3,20,"[1, 2, 3, 4, 5, 6, 7, 9, 10, 11, 12, 14, 15, 16, 19, 20, 21, 22, 23, 29]",193.8078433,5605,1050,1,33,10,1.0309432256229287
undo,42,45,0,0,0,7,"[0, 17, 24, 7]",4,18,"[1, 2, 3, 4, 5, 6, 9, 10, 12, 14, 15, 16, 19, 20, 21, 22, 23, 29]",159.3985423,11253,5648,1,32,10,1.059763151913087
undo,42,45,0,0,0,2,"[0, 17, 24, 7, 2]",5,12,"[3, 4, 6, 10, 12, 14, 16, 19, 20, 22, 23, 29]",121.3853866,12927,1674,1,23,10,1.0656581932115423
undo,42,45,0,0,0,3,"[0, 17, 24, 7, 2, 3]",6,8,"[6, 10, 12, 14, 16, 20, 22, 29]",96.06740884,14586,1659,1,13,10,1.1368250049574795
undo,42,45,0,0,0,29,"[0, 17, 24, 7, 2, 3, 29]",7,5,"[6, 10, 12, 20, 22]",76.06740884,15836,1250,1,5,10,1.390376182346372
undo,42,45,0,0,0,10,"[0, 17, 24, 7, 2, 3, 29, 10]",8,2,"[6, 12]",54.52674961,16487,651,1,1,10,1.6682270697663164
undo,42,45,0,0,0,6,"[0, 17, 24, 7, 2, 3, 29, 10, 6]",9,1,[12],28.27794012,17575,1088,1,0,10,1.5776211572942243
undo,42,45,0,0,1,12,"[0, 17, 24, 7, 2, 3, 29, 10, 6, 12]",10,0,[],8.15332832,19159,1584,1,0,10,1.536035114105263
undo,42,45,0,1,1,12,"[0, 17, 24, 7, 2, 3, 29, 10, 6, 12]",10,0,[],8.15332832,31630,12471,1,0,10,1.536035114105263
undo,43,17,0,0,0,0,[0],1,28,"[1, 2, 3, 4, 5, 6, 7, 8, 9, 10, 11, 12, 13, 14, 15, 16, 17, 18, 19, 20, 22, 23, 24, 25, 26, 27, 28, 29]",300,149,-1,2,73,8,0.0
undo,43,17,0,0,0,9,"[0, 9]",2,25,"[1, 2, 3, 5, 6, 7, 8, 10, 11, 12, 14, 15, 16, 17, 18, 19, 20, 22, 23, 24, 25, 26, 27, 28, 29]",210.5293344,4759,4610,1,34,8,1.0
undo,43,17,0,0,0,16,"[0, 9, 16]",3,21,"[1, 2, 3, 5, 7, 8, 10, 11, 12, 14, 17, 18, 19, 20, 22, 23, 25, 26, 27, 28, 29]",197.1876704,5556,797,1,26,8,1.173103464220352
undo,43,17,0,0,0,2,"[0, 9, 16, 2]",4,18,"[1, 3, 5, 7, 8, 10, 11, 12, 14, 17, 18, 19, 23, 25, 26, 27, 28, 29]",181.0631549,6289,733,1,23,8,1.14825089247282
undo,43,17,0,0,0,17,"[0, 9, 16, 2, 17]",5,7,"[7, 8, 12, 14, 26, 27, 29]",142.7356191,7607,1318,4,5,7,1.4896040699768547
undo,43,17,0,0,0,8,"[0, 9, 16, 2, 17, 8]",6,3,"[7, 12, 27]",104.5256727,8927,1320,3,0,7,1.4604726966175894
undo,43,17,0,0,1,27,"[0, 9, 16, 2, 17, 8, 27]",7,0,[],21.88790895,13576,4649,1,0,7,1.2949460667276491
undo,43,17,1,0,0,8,"[0, 9, 16, 2, 17, 8]",6,3,"[7, 12, 27]",104.5256727,17266,3690,3,0,7,1.4604726966175894
undo,43,17,1,0,0,17,"[0, 9, 16, 2, 17]",5,7,"[7, 8, 12, 14, 26, 27, 29]",142.7356191,24183,6917,4,5,7,1.4896040699768547
undo,43,17,1,0,0,2,"[0, 9, 16, 2]",4,18,"[1, 3, 5, 7, 8, 10, 11, 12, 14, 17, 18, 19, 23, 25, 26, 27, 28, 29]",181.0631549,28050,3867,1,23,8,1.14825089247282
undo,43,17,0,0,0,10,"[0, 9, 16, 2, 10]",5,4,"[3, 11, 23, 28]",71.04042993,30247,2197,3,2,7,1.2629477265421833
undo,43,17,0,0,0,11,"[0, 9, 16, 2, 10, 11]",6,1,[3],49.08593153,30907,660,1,0,7,1.2370659942349713
undo,43,17,0,0,1,3,"[0, 9, 16, 2, 10, 11, 3]",7,0,[],22.91342687,32031,1124,1,0,7,1.4627126127553682
undo,43,17,0,1,1,3,"[0, 9, 16, 2, 10, 11, 3]",7,0,[],22.91342687,39248,7217,1,0,7,1.4627126127553682
undo,44,38,0,0,0,0,[0],1,29,"[1, 2, 3, 4, 5, 6, 7, 8, 9, 10, 11, 12, 13, 14, 15, 16, 17, 18, 19, 20, 21, 22, 23, 24, 25, 26, 27, 28, 29]",300,116,-1,33,506,9,0.0
undo,44,38,0,0,0,19,"[0, 19]",2,23,"[3, 4, 5, 6, 7, 8, 9, 11, 13, 14, 15, 16, 17, 18, 20, 22, 23, 24, 25, 26, 27, 28, 29]",219.5015528,8091,7975,6,61,9,1.0
undo,44,38,0,0,0,17,"[0, 19, 17]",3,21,"[3, 4, 5, 6, 7, 9, 11, 13, 14, 15, 16, 18, 20, 22, 23, 24, 25, 26, 27, 28, 29]",198.1239945,9427,1336,6,53,9,1.571793785769489
undo,44,38,0,0,0,20,"[0, 19, 17, 20]",4,17,"[3, 4, 5, 6, 7, 11, 13, 14, 15, 16, 18, 22, 24, 25, 26, 27, 28]",174.3542658,12163,2736,6,44,9,2.333182710277297
undo,44,38,0,0,0,4,"[0, 19, 17, 20, 4]",5,10,"[5, 11, 13, 14, 15, 16, 24, 26, 27, 28]",140.4131403,15622,3459,5,22,9,2.276099229646013
undo,44,38,0,0,0,15,"[0, 19, 17, 20, 4, 15]",6,8,"[5, 11, 13, 14, 16, 24, 26, 28]",114.4131403,16623,1001,5,6,9,2.5292671156176403
undo,44,38,0,0,0,11,"[0, 19, 17, 20, 4, 15, 11]",7,2,"[16, 28]",78.01259089,17739,1116,2,0,9,2.778100109749787
undo,44,38,0,0,0,28,"[0, 19, 17, 20, 4, 15, 11, 28]",8,1,[16],50.99407872,19288,1549,1,0,9,2.3316428595723258
undo,44,38,0,0,1,16,"[0, 19, 17, 20, 4, 15, 11, 28, 16]",9,0,[],21.99407872,20452,1164,1,0,9,2.5408012360364265
undo,44,38,0,1,1,16,"[0, 19, 17, 20, 4, 15, 11, 28, 16]",9,0,[],21.99407872,24266,3814,1,0,9,2.5408012360364265
undo,45,2,0,0,0,0,[0],1,23,"[1, 2, 4, 5, 6, 7, 8, 9, 12, 13, 15, 16, 17, 18, 19, 20, 22, 23, 25, 26, 27, 28, 29]",300,116,-1,70,620,10,0.0
undo,45,2,0,0,0,19,"[0, 19]",2,22,"[1, 2, 4, 5, 6, 7, 8, 9, 12, 13, 15, 16, 17, 18, 20, 22, 23, 25, 26, 27, 28, 29]",210.306076,2559,2443,67,431,10,1.0
undo,45,2,0,0,0,12,"[0, 19, 12]",3,17,"[1, 4, 5, 6, 7, 13, 15, 16, 17, 18, 20, 22, 25, 26, 27, 28, 29]",174.2921898,4388,1829,66,298,10,1.1107635036313153
undo,45,2,0,0,0,5,"[0, 19, 12, 5]",4,11,"[1, 6, 7, 13, 15, 16, 18, 22, 25, 26, 29]",144.7625437,6127,1739,38,136,10,1.0968174771581647
undo,45,2,0,0,0,22,"[0, 19, 12, 5, 22]",5,8,"[1, 6, 7, 13, 15, 18, 26, 29]",131.9562952,7191,1064,20,63,10,1.0889910507461968
undo,45,2,0,0,0,13,"[0, 19, 12, 5, 22, 13]",6,7,"[1, 6, 7, 15, 18, 26, 29]",117.0902265,8879,1688,19,20,10,1.236526217328057
undo,45,2,0,0,0,18,"[0, 19, 12, 5, 22, 13, 18]",7,4,"[7, 15, 26, 29]",81.91921567,10479,1600,10,3,10,1.2128708213409936
undo,45,2,0,0,0,7,"[0, 19, 12, 5, 22, 13, 18, 7]",8,3,"[15, 26, 29]",71.62358553,11879,1400,5,0,10,1.2019811287894737
undo,45,2,0,0,0,15,"[0, 19, 12, 5, 22, 13, 18, 7, 15]",9,2,"[26, 29]",56.85876247,16519,4640,2,0,10,1.2907869828541363
undo,45,2,0,0,1,26,"[0, 19, 12, 5, 22, 13, 18, 7, 15, 26]",10,0,[],32.6513256,18390,1871,1,0,10,1.2648554428941847
undo,45,2,1,0,0,15,"[0, 19, 12, 5, 22, 13, 18, 7, 15]",9,2,"[26, 29]",56.85876247,21199,2809,2,0,10,1.2907869828541363
undo,45,2,1,0,0,7,"[0, 19, 12, 5, 22, 13, 18, 7]",8,3,"[15, 26, 29]",71.62358553,21600,401,5,0,10,1.2019811287894737
undo,45,2,0,0,0,26,"[0, 19, 12, 5, 22, 13, 18, 7, 26]",9,2,"[15, 29]",48.82007703,22956,1356,2,0,10,1.1883593342191134
undo,45,2,0,0,1,15,"[0, 19, 12, 5, 22, 13, 18, 7, 26, 15]",10,0,[],24.61264015,23631,675,1,0,10,1.4619750353663825
undo,45,2,0,1,1,15,"[0, 19, 12, 5, 22, 13, 18, 7, 26, 15]",10,0,[],24.61264015,28116,4485,1,0,10,1.4619750353663825
undo,46,31,0,0,0,0,[0],1,27,"[1, 3, 4, 5, 6, 7, 8, 10, 11, 12, 13, 14, 15, 16, 17, 18, 19, 20, 21, 22, 23, 24, 25, 26, 27, 28, 29]",300,134,-1,2,87,10,0.0
undo,46,31,0,0,0,14,"[0, 14]",2,25,"[1, 3, 5, 6, 7, 8, 10, 11, 12, 13, 15, 16, 17, 18, 19, 20, 21, 22, 23, 24, 25, 26, 27, 28, 29]",263.861378,4276,4142,2,59,10,1.0
undo,46,31,0,0,0,27,"[0, 14, 27]",3,22,"[1, 3, 5, 6, 7, 8, 10, 11, 12, 13, 15, 16, 17, 18, 19, 20, 21, 22, 24, 25, 28, 29]",235.6833724,5628,1352,1,39,10,1.5881859159302467
undo,46,31,0,0,0,8,"[0, 14, 27, 8]",4,20,"[1, 3, 5, 6, 7, 10, 11, 12, 13, 16, 17, 18, 19, 20, 21, 22, 24, 25, 28, 29]",224.6380114,7673,2045,1,36,10,2.1665048452331277
undo,46,31,0,0,0,18,"[0, 14, 27, 8, 18]",5,15,"[1, 5, 6, 7, 11, 12, 13, 16, 17, 19, 20, 22, 25, 28, 29]",188.7911147,8900,1227,1,26,10,1.7273375741920205
undo,46,31,0,0,0,11,"[0, 14, 27, 8, 18, 11]",6,11,"[1, 5, 7, 12, 16, 17, 19, 20, 22, 25, 28]",153.9055876,12140,3240,13,17,9,2.386348208737804
undo,46,31,0,0,0,5,"[0, 14, 27, 8, 18, 11, 5]",7,5,"[16, 17, 20, 25, 28]",110.2249283,14557,2417,3,3,9,2.163249612867222
undo,46,31,0,0,0,28,"[0, 14, 27, 8, 18, 11, 5, 28]",8,2,"[16, 17]",90.00117988,16628,2071,2,0,9,1.9564635733184719
undo,46,31,0,0,1,16,"[0, 14, 27, 8, 18, 11, 5, 28, 16]",9,0,[],56.38570725,19164,2536,1,0,9,1.824071502589619
undo,46,31,1,0,0,28,"[0, 14, 27, 8, 18, 11, 5, 28]",8,2,"[16, 17]",90.00117988,20884,1720,2,0,9,1.9564635733184719
undo,46,31,1,0,0,5,"[0, 14, 27, 8, 18, 11, 5]",7,5,"[16, 17, 20, 25, 28]",110.2249283,21118,234,3,3,9,2.163249612867222
undo,46,31,1,0,0,11,"[0, 14, 27, 8, 18, 11]",6,11,"[1, 5, 7, 12, 16, 17, 19, 20, 22, 25, 28]",153.9055876,21534,416,13,17,9,2.386348208737804
undo,46,31,1,0,0,18,"[0, 14, 27, 8, 18]",5,15,"[1, 5, 6, 7, 11, 12, 13, 16, 17, 19, 20, 22, 25, 28, 29]",188.7911147,21784,250,1,26,10,1.7273375741920205
undo,46,31,1,0,0,8,"[0, 14, 27, 8]",4,20,"[1, 3, 5, 6, 7, 10, 11, 12, 13, 16, 17, 18, 19, 20, 21, 22, 24, 25, 28, 29]",224.6380114,22152,368,1,36,10,2.1665048452331277
undo,46,31,0,0,0,18,"[0, 14, 27, 8, 18]",5,15,"[1, 5, 6, 7, 11, 12, 13, 16, 17, 19, 20, 22, 25, 28, 29]",188.7911147,24268,2116,1,26,10,1.7273375741920205
undo,46,31,0,0,0,17,"[0, 14, 27, 8, 18, 17]",6,13,"[1, 5, 6, 7, 11, 12, 13, 16, 19, 20, 22, 25, 28]",159.584951,25040,772,1,13,10,1.551192427769927
undo,46,31,0,0,0,25,"[0, 14, 27, 8, 18, 17, 25]",7,7,"[1, 5, 11, 12, 20, 22, 28]",99.14489804,27284,2244,4,5,9,1.3923783527528582
undo,46,31,0,0,0,12,"[0, 14, 27, 8, 18, 17, 25, 12]",8,3,"[1, 20, 22]",68.55078096,28500,1216,3,0,9,1.3338517222537312
undo,46,31,0,0,1,22,"[0, 14, 27, 8, 18, 17, 25, 12, 22]",9,0,[],18.06315871,30408,1908,1,0,9,1.8717753474146654
undo,46,31,0,1,1,22,"[0, 14, 27, 8, 18, 17, 25, 12, 22]",9,0,[],18.06315871,36982,6574,1,0,9,1.8717753474146654
undo,47,36,0,0,0,0,[0],1,24,"[2, 4, 5, 6, 7, 8, 9, 10, 12, 13, 14, 15, 16, 17, 18, 19, 20, 22, 23, 25, 26, 27, 28, 29]",300,115,-1,2,200,10,0.0
undo,47,36,0,0,0,12,"[0, 12]",2,23,"[2, 4, 5, 6, 7, 8, 9, 10, 13, 14, 15, 16, 17, 18, 19, 20, 22, 23, 25, 26, 27, 28, 29]",277.7963967,3738,3623,90,804,9,1.0
undo,47,36,0,0,0,9,"[0, 12, 9]",3,14,"[2, 4, 8, 10, 13, 16, 17, 18, 19, 23, 25, 27, 28, 29]",215.4345494,6456,2718,32,191,9,1.224429481246385
undo,47,36,0,0,0,19,"[0, 12, 9, 19]",4,13,"[2, 4, 8, 10, 13, 16, 17, 18, 23, 25, 27, 28, 29]",200.3018034,7073,617,14,61,9,1.293473472808712
undo,47,36,0,0,0,2,"[0, 12, 9, 19, 2]",5,11,"[4, 8, 10, 13, 16, 17, 18, 23, 25, 27, 29]",163.180381,8545,1472,2,17,9,1.2115523850119965
undo,47,36,0,0,0,25,"[0, 12, 9, 19, 2, 25]",6,9,"[4, 8, 10, 13, 16, 17, 18, 27, 29]",138.180381,9825,1280,1,8,9,1.413393071141534
undo,47,36,0,0,0,13,"[0, 12, 9, 19, 2, 25, 13]",7,5,"[4, 10, 16, 17, 18]",117.5891208,10923,1098,1,4,9,1.8597869697411082
undo,47,36,0,0,0,17,"[0, 12, 9, 19, 2, 25, 13, 17]",8,1,[16],51.79398416,22273,11350,1,0,9,2.6261143716652686
undo,47,36,0,0,1,16,"[0, 12, 9, 19, 2, 25, 13, 17, 16]",9,0,[],23.47437964,23356,1083,1,0,9,2.590695236705155
undo,47,36,0,1,1,16,"[0, 12, 9, 19, 2, 25, 13, 17, 16]",9,0,[],23.47437964,26983,3627,1,0,9,2.590695236705155
undo,48,29,0,0,0,0,[0],1,29,"[1, 2, 3, 4, 5, 6, 7, 8, 9, 10, 11, 12, 13, 14, 15, 16, 17, 18, 19, 20, 21, 22, 23, 24, 25, 26, 27, 28, 29]",300,116,-1,1,78,9,0.0
undo,48,29,0,0,0,14,"[0, 14]",2,22,"[1, 3, 4, 5, 6, 7, 9, 10, 11, 12, 13, 15, 16, 17, 21, 22, 23, 25, 26, 27, 28, 29]",209.490332,7139,7023,21,110,8,1.0
undo,48,29,0,0,0,13,"[0, 14, 13]",3,18,"[1, 4, 5, 6, 7, 9, 10, 12, 15, 16, 17, 21, 22, 25, 26, 27, 28, 29]",191.4625756,8042,903,20,75,8,1.0027006502223275
undo,48,29,0,0,0,5,"[0, 14, 13, 5]",4,15,"[1, 4, 6, 7, 9, 12, 15, 17, 21, 22, 25, 26, 27, 28, 29]",165.7526554,13657,5615,19,49,8,1.0803937325657265
undo,48,29,0,0,0,12,"[0, 14, 13, 5, 12]",5,9,"[4, 7, 9, 21, 22, 26, 27, 28, 29]",102.625799,17656,3999,3,9,8,1.2785008715993642
undo,48,29,0,0,0,7,"[0, 14, 13, 5, 12, 7]",6,5,"[4, 9, 21, 22, 27]",89.02432845,19423,1767,2,3,8,1.2829121385224997
undo,48,29,0,0,0,9,"[0, 14, 13, 5, 12, 7, 9]",7,1,[4],59.95544474,23040,3617,1,0,8,1.271501624179675
undo,48,29,0,0,1,4,"[0, 14, 13, 5, 12, 7, 9, 4]",8,0,[],18.91887568,24072,1032,1,0,8,1.598988775144649
undo,48,29,0,1,1,4,"[0, 14, 13, 5, 12, 7, 9, 4]",8,0,[],18.91887568,30415,6343,1,0,8,1.598988775144649
undo,49,5,0,0,0,0,[0],1,29,"[1, 2, 3, 4, 5, 6, 7, 8, 9, 10, 11, 12, 13, 14, 15, 16, 17, 18, 19, 20, 21, 22, 23, 24, 25, 26, 27, 28, 29]",300,115,-1,5,139,9,0.0
undo,49,5,0,0,0,23,"[0, 23]",2,27,"[1, 2, 3, 4, 5, 6, 7, 8, 9, 10, 11, 12, 13, 14, 15, 16, 17, 18, 19, 20, 21, 22, 24, 25, 26, 27, 28]",249.8402552,2872,2757,3,75,9,1.0
undo,49,5,0,0,0,25,"[0, 23, 25]",3,23,"[1, 2, 3, 4, 5, 6, 8, 9, 10, 12, 13, 14, 15, 16, 17, 18, 19, 21, 22, 24, 26, 27, 28]",231.4011663,3956,1084,3,43,9,1.0923159590575564
undo,49,5,0,0,0,24,"[0, 23, 25, 24]",4,21,"[2, 3, 4, 5, 6, 8, 9, 10, 12, 13, 14, 15, 16, 17, 18, 19, 21, 22, 26, 27, 28]",206.5616816,7305,3349,3,25,9,1.2901858295679272
undo,49,5,0,0,0,17,"[0, 23, 25, 24, 17]",5,13,"[4, 5, 6, 8, 12, 13, 14, 15, 18, 19, 22, 26, 27]",171.5759702,8739,1434,3,14,9,1.2027484907982513
undo,49,5,0,0,0,6,"[0, 23, 25, 24, 17, 6]",6,6,"[4, 5, 8, 14, 18, 19]",92.68363851,12739,4000,4,4,8,1.2414153382634732
undo,49,5,0,0,0,4,"[0, 23, 25, 24, 17, 6, 4]",7,3,"[5, 14, 18]",80.64204393,13615,876,3,0,8,1.2518196602439209
undo,49,5,0,0,1,14,"[0, 23, 25, 24, 17, 6, 4, 14]",8,0,[],17.01029085,24232,10617,1,0,8,1.3345453731277794
undo,49,5,0,1,1,14,"[0, 23, 25, 24, 17, 6, 4, 14]",8,0,[],17.01029085,25483,1251,1,0,8,1.3345453731277794
undo,50,14,0,0,0,0,[0],1,29,"[1, 2, 3, 4, 5, 6, 7, 8, 9, 10, 11, 12, 13, 14, 15, 16, 17, 18, 19, 20, 21, 22, 23, 24, 25, 26, 27, 28, 29]",300,115,-1,8,157,10,0.0
undo,50,14,0,0,0,18,"[0, 18]",2,17,"[1, 2, 3, 4, 7, 8, 9, 13, 15, 17, 19, 20, 22, 23, 25, 26, 28]",179.8958785,4071,3956,18,136,9,1.0
undo,50,14,0,0,0,8,"[0, 18, 8]",3,13,"[1, 2, 4, 7, 13, 15, 17, 19, 20, 23, 25, 26, 28]",166.294408,4914,843,18,99,9,1.0203858410107731
undo,50,14,0,0,0,1,"[0, 18, 8, 1]",4,10,"[2, 4, 7, 15, 17, 19, 23, 25, 26, 28]",142.6935606,7442,2528,11,42,9,1.0173392374431458
undo,50,14,0,0,0,19,"[0, 18, 8, 1, 19]",5,9,"[2, 4, 7, 15, 17, 23, 25, 26, 28]",127.4620143,8963,1521,11,22,9,1.1668364376922102
undo,50,14,0,0,0,25,"[0, 18, 8, 1, 19, 25]",6,5,"[2, 4, 7, 23, 26]",91.61511768,10914,1951,5,7,9,1.273103293863789
undo,50,14,0,0,0,7,"[0, 18, 8, 1, 19, 25, 7]",7,4,"[2, 4, 23, 26]",71.91740208,12042,1128,2,2,9,1.3059971565497175
undo,50,14,0,0,0,23,"[0, 18, 8, 1, 19, 25, 7, 23]",8,1,[26],34.80945145,13642,1600,1,0,9,1.4108075818506876
undo,50,14,1,0,0,7,"[0, 18, 8, 1, 19, 25, 7]",7,4,"[2, 4, 23, 26]",71.91740208,17349,3707,2,2,9,1.3059971565497175
undo,50,14,0,0,1,4,"[0, 18, 8, 1, 19, 25, 7, 4]",8,0,[],36.18226531,18642,1293,1,0,8,1.2576302477979833
undo,50,14,1,0,0,7,"[0, 18, 8, 1, 19, 25, 7]",7,4,"[2, 4, 23, 26]",71.91740208,19783,1141,2,2,9,1.3059971565497175
undo,50,14,0,0,0,23,"[0, 18, 8, 1, 19, 25, 7, 23]",8,1,[26],34.80945145,21272,1489,1,0,9,1.4108075818506876
undo,50,14,0,0,1,26,"[0, 18, 8, 1, 19, 25, 7, 23, 26]",9,0,[],23.99279762,21897,625,1,0,9,1.3911752305399343
undo,50,14,0,1,1,26,"[0, 18, 8, 1, 19, 25, 7, 23, 26]",9,0,[],23.99279762,30013,8116,1,0,9,1.3911752305399343
undo,51,18,0,0,0,0,[0],1,28,"[1, 2, 3, 4, 5, 6, 7, 8, 9, 10, 11, 12, 13, 14, 16, 17, 18, 19, 20, 21, 22, 23, 24, 25, 26, 27, 28, 29]",300,115,-1,3,136,10,0.0
undo,51,18,0,0,0,28,"[0, 28]",2,16,"[1, 3, 5, 7, 8, 9, 12, 13, 14, 16, 20, 23, 24, 25, 26, 27]",236.4311397,6944,6829,2,19,10,1.0
undo,51,18,0,0,0,7,"[0, 28, 7]",3,15,"[1, 3, 5, 8, 9, 12, 13, 14, 16, 20, 23, 24, 25, 26, 27]",214.4084242,8008,1064,2,17,10,1.4345180696367563
undo,51,18,0,0,0,25,"[0, 28, 7, 25]",4,13,"[1, 3, 5, 8, 9, 12, 13, 14, 16, 20, 23, 26, 27]",186.6055466,8896,888,2,15,10,1.8896451241781882
undo,51,18,0,0,0,8,"[0, 28, 7, 25, 8]",5,10,"[3, 5, 9, 12, 13, 14, 16, 23, 26, 27]",149.551532,10389,1493,2,10,10,1.590467437592877
undo,51,18,0,0,0,13,"[0, 28, 7, 25, 8, 13]",6,9,"[3, 5, 9, 12, 14, 16, 23, 26, 27]",128.4565089,14880,4491,2,5,10,1.8248274983549797
undo,51,18,0,0,0,14,"[0, 28, 7, 25, 8, 13, 14]",7,7,"[3, 5, 9, 12, 23, 26, 27]",109.4828429,15633,753,2,3,10,1.6993534956692746
undo,51,18,0,0,0,3,"[0, 28, 7, 25, 8, 13, 14, 3]",8,3,"[5, 12, 27]",79.39962499,16544,911,2,1,10,1.802637206541468
undo,51,18,0,0,0,5,"[0, 28, 7, 25, 8, 13, 14, 3, 5]",9,1,[12],21.21887216,18144,1600,1,0,10,1.559774889743805
undo,51,18,0,0,1,12,"[0, 28, 7, 25, 8, 13, 14, 3, 5, 12]",10,0,[],9.817117911,19738,1594,1,0,10,1.563993037384447
undo,51,18,0,1,1,12,"[0, 28, 7, 25, 8, 13, 14, 3, 5, 12]",10,0,[],9.817117911,23249,3511,1,0,10,1.563993037384447
undo,52,24,0,0,0,0,[0],1,29,"[1, 2, 3, 4, 5, 6, 7, 8, 9, 10, 11, 12, 13, 14, 15, 16, 17, 18, 19, 20, 21, 22, 23, 24, 25, 26, 27, 28, 29]",300,116,-1,4,76,10,0.0
undo,52,24,0,0,0,16,"[0, 16]",2,28,"[1, 2, 3, 4, 5, 6, 7, 8, 9, 10, 11, 12, 13, 14, 15, 17, 18, 19, 20, 21, 22, 23, 24, 25, 26, 27, 28, 29]",210.3562607,4262,4146,13,110,9,1.0
undo,52,24,0,0,0,22,"[0, 16, 22]",3,27,"[1, 2, 3, 4, 5, 6, 7, 8, 9, 10, 11, 12, 13, 14, 15, 17, 18, 19, 20, 21, 23, 24, 25, 26, 27, 28, 29]",192.3285043,6323,2061,7,54,9,1.0217425143037777
undo,52,24,0,0,0,8,"[0, 16, 22, 8]",4,21,"[1, 2, 3, 4, 6, 9, 10, 11, 13, 14, 15, 17, 20, 21, 23, 24, 25, 26, 27, 28, 29]",178.9120964,6846,523,4,28,9,1.0996636936037951
undo,52,24,0,0,0,15,"[0, 16, 22, 8, 15]",5,16,"[3, 4, 6, 9, 10, 11, 13, 14, 17, 23, 24, 25, 26, 27, 28, 29]",148.025206,8133,1287,3,17,9,1.2704773343758617
undo,52,24,0,0,0,28,"[0, 16, 22, 8, 15, 28]",6,8,"[3, 4, 9, 11, 13, 23, 26, 27]",102.7482803,9223,1090,3,5,9,1.1981967578189556
undo,52,24,0,0,0,23,"[0, 16, 22, 8, 15, 28, 23]",7,3,"[9, 11, 27]",83.72198273,10166,943,3,1,9,1.2275650852813986
undo,52,24,0,0,0,11,"[0, 16, 22, 8, 15, 28, 23, 11]",8,2,"[9, 27]",56.79615869,12223,2057,2,0,9,1.2107937989822568
undo,52,24,0,0,1,9,"[0, 16, 22, 8, 15, 28, 23, 11, 9]",9,0,[],24.5471277,20014,7791,1,0,9,1.2976612913524237
undo,52,24,0,1,1,9,"[0, 16, 22, 8, 15, 28, 23, 11, 9]",9,0,[],24.5471277,21317,1303,1,0,9,1.2976612913524237
undo,53,4,0,0,0,0,[0],1,26,"[3, 4, 5, 6, 7, 8, 10, 11, 12, 13, 14, 15, 16, 17, 18, 19, 20, 21, 22, 23, 24, 25, 26, 27, 28, 29]",300,115,-1,4,489,10,0.0
undo,53,4,0,0,0,28,"[0, 28]",2,21,"[3, 4, 5, 6, 10, 11, 12, 13, 14, 15, 16, 17, 19, 20, 21, 22, 23, 24, 25, 26, 27]",225.9392142,4413,4298,2,216,10,1.0
undo,53,4,0,0,0,11,"[0, 28, 11]",3,16,"[3, 4, 5, 6, 12, 13, 14, 16, 17, 20, 21, 22, 23, 24, 25, 26]",177.0618165,5972,1559,1,99,10,1.0005230107421244
undo,53,4,0,0,0,25,"[0, 28, 11, 25]",4,14,"[3, 4, 5, 6, 12, 13, 14, 16, 17, 20, 21, 22, 23, 24]",158.2735223,8705,2733,1,47,10,1.11762077950493
undo,53,4,1,0,0,11,"[0, 28, 11]",3,16,"[3, 4, 5, 6, 12, 13, 14, 16, 17, 20, 21, 22, 23, 24, 25, 26]",177.0618165,12881,4176,1,99,10,1.0005230107421244
undo,53,4,0,0,0,16,"[0, 28, 11, 16]",4,13,"[3, 4, 5, 6, 12, 13, 14, 17, 20, 21, 22, 24, 25]",162.0618165,14171,1290,38,165,9,1.0006824277240565
undo,53,4,0,0,0,17,"[0, 28, 11, 16, 17]",5,12,"[3, 4, 5, 6, 12, 13, 14, 20, 21, 22, 24, 25]",135.9850069,15188,1017,9,39,9,1.000593778858539
undo,53,4,0,0,0,3,"[0, 28, 11, 16, 17, 3]",6,6,"[5, 14, 20, 21, 22, 25]",111.4697056,16137,949,2,7,9,1.0809398822985845
undo,53,4,0,0,0,14,"[0, 28, 11, 16, 17, 3, 14]",7,1,[25],70.03300684,17245,1108,1,0,8,1.6839831140088701
undo,53,4,0,0,1,25,"[0, 28, 11, 16, 17, 3, 14, 25]",8,0,[],53.90849134,17893,648,1,0,8,1.9406182119358029
undo,53,4,1,0,0,14,"[0, 28, 11, 16, 17, 3, 14]",7,1,[25],70.03300684,21332,3439,1,0,8,1.6839831140088701
undo,53,4,1,0,0,3,"[0, 28, 11, 16, 17, 3]",6,6,"[5, 14, 20, 21, 22, 25]",111.4697056,21865,533,2,7,9,1.0809398822985845
undo,53,4,0,0,0,21,"[0, 28, 11, 16, 17, 3, 21]",7,1,[22],37.78795747,24355,2490,1,0,8,1.7740939260108934
undo,53,4,0,0,1,22,"[0, 28, 11, 16, 17, 3, 21, 22]",8,0,[],26.74259645,26061,1706,1,0,8,1.7222827408836927
undo,53,4,1,0,0,21,"[0, 28, 11, 16, 17, 3, 21]",7,1,[22],37.78795747,28732,2671,1,0,8,1.7740939260108934
undo,53,4,1,0,0,3,"[0, 28, 11, 16, 17, 3]",6,6,"[5, 14, 20, 21, 22, 25]",111.4697056,29148,416,2,7,9,1.0809398822985845
undo,53,4,0,0,0,20,"[0, 28, 11, 16, 17, 3, 20]",7,3,"[5, 21, 22]",51.02965261,31453,2305,2,1,9,1.3625295166062523
undo,53,4,0,0,0,22,"[0, 28, 11, 16, 17, 3, 20, 22]",8,1,[21],20.79721969,32757,1304,1,0,9,1.7597551740136714
undo,53,4,0,0,1,21,"[0, 28, 11, 16, 17, 3, 20, 22, 21]",9,0,[],9.751858672,34613,1856,1,0,9,1.9637826683991548
undo,53,4,0,1,1,21,"[0, 28, 11, 16, 17, 3, 20, 22, 21]",9,0,[],9.751858672,38265,3652,1,0,9,1.9637826683991548
undo,54,12,0,0,0,0,[0],1,29,"[1, 2, 3, 4, 5, 6, 7, 8, 9, 10, 11, 12, 13, 14, 15, 16, 17, 18, 19, 20, 21, 22, 23, 24, 25, 26, 27, 28, 29]",300,149,-1,2,32,9,0.0
undo,54,12,0,0,0,6,"[0, 6]",2,28,"[1, 2, 3, 4, 5, 7, 8, 9, 10, 11, 12, 13, 14, 15, 16, 17, 18, 19, 20, 21, 22, 23, 24, 25, 26, 27, 28, 29]",283.5987805,10394,10245,2,18,9,1.0
undo,54,12,0,0,0,22,"[0, 6, 22]",3,13,"[2, 4, 5, 7, 12, 13, 14, 16, 19, 23, 24, 25, 27]",182.0015365,12146,1752,2,9,9,1.3408050629015749
undo,54,12,0,0,0,16,"[0, 6, 22, 16]",4,10,"[2, 4, 5, 7, 12, 14, 19, 24, 25, 27]",161.0015365,13010,864,2,7,9,1.5323672374573825
undo,54,12,0,0,0,4,"[0, 6, 22, 16, 4]",5,6,"[12, 14, 19, 24, 25, 27]",126.7962737,16210,3200,2,5,9,1.38665076120851
undo,54,12,0,0,0,12,"[0, 6, 22, 16, 4, 12]",6,3,"[14, 24, 27]",84.6062275,17483,1273,2,3,9,1.3036701691846924
undo,54,12,0,0,0,27,"[0, 6, 22, 16, 4, 12, 27]",7,2,"[14, 24]",60.25463618,18467,984,2,0,9,1.401636252408167
undo,54,12,0,0,0,14,"[0, 6, 22, 16, 4, 12, 27, 14]",8,1,[24],31.60153862,19789,1322,1,0,9,1.4415448388010776
undo,54,12,0,0,1,24,"[0, 6, 22, 16, 4, 12, 27, 14, 24]",9,0,[],14.39688808,21906,2117,1,0,9,1.6003250998053893
undo,54,12,0,1,1,24,"[0, 6, 22, 16, 4, 12, 27, 14, 24]",9,0,[],14.39688808,28266,6360,1,0,9,1.6003250998053893
undo,55,3,0,0,0,0,[0],1,29,"[1, 2, 3, 4, 5, 6, 7, 8, 9, 10, 11, 12, 13, 14, 15, 16, 17, 18, 19, 20, 21, 22, 23, 24, 25, 26, 27, 28, 29]",300,116,-1,34,427,10,0.0
undo,55,3,0,0,0,7,"[0, 7]",2,28,"[1, 2, 3, 4, 5, 6, 8, 9, 10, 11, 12, 13, 14, 15, 16, 17, 18, 19, 20, 21, 22, 23, 24, 25, 26, 27, 28, 29]",278.8103799,6356,6240,24,215,10,1.0
undo,55,3,0,0,0,8,"[0, 7, 8]",3,24,"[1, 2, 3, 4, 5, 6, 10, 11, 12, 13, 14, 15, 16, 17, 18, 19, 20, 21, 22, 24, 25, 26, 27, 28]",222.837172,7470,1114,16,114,10,1.2853332575451413
undo,55,3,0,0,0,24,"[0, 7, 8, 24]",4,21,"[1, 3, 4, 5, 6, 10, 11, 12, 14, 15, 16, 17, 18, 19, 20, 21, 22, 25, 26, 27, 28]",210.671647,8536,1066,16,91,10,1.5177505014936548
undo,55,3,0,0,0,17,"[0, 7, 8, 24, 17]",5,9,"[3, 4, 10, 14, 15, 16, 19, 20, 21]",141.3174834,9828,1292,7,26,10,1.5510961300062232
undo,55,3,0,0,0,20,"[0, 7, 8, 24, 17, 20]",6,7,"[3, 4, 10, 14, 16, 19, 21]",128.6683728,11052,1224,7,14,10,1.5133082717474817
undo,55,3,0,0,0,3,"[0, 7, 8, 24, 17, 20, 3]",7,5,"[4, 10, 14, 19, 21]",108.2722947,12181,1129,7,4,10,1.5325960555943097
undo,55,3,0,0,0,19,"[0, 7, 8, 24, 17, 20, 3, 19]",8,3,"[10, 14, 21]",70.93598532,14308,2127,3,1,10,1.5521294182529992
undo,55,3,0,0,0,21,"[0, 7, 8, 24, 17, 20, 3, 19, 21]",9,2,"[10, 14]",58.72942971,15437,1129,2,0,10,1.5690424431931145
undo,55,3,1,0,0,19,"[0, 7, 8, 24, 17, 20, 3, 19]",8,3,"[10, 14, 21]",70.93598532,20697,5260,3,1,10,1.5521294182529992
undo,55,3,1,0,0,3,"[0, 7, 8, 24, 17, 20, 3]",7,5,"[4, 10, 14, 19, 21]",108.2722947,23582,2885,7,4,10,1.5325960555943097
undo,55,3,0,0,0,14,"[0, 7, 8, 24, 17, 20, 3, 14]",8,4,"[4, 10, 19, 21]",62.78603307,24288,706,2,2,10,1.8430814842216443
undo,55,3,1,0,0,3,"[0, 7, 8, 24, 17, 20, 3]",7,5,"[4, 10, 14, 19, 21]",108.2722947,26214,1926,7,4,10,1.5325960555943097
undo,55,3,0,0,0,19,"[0, 7, 8, 24, 17, 20, 3, 19]",8,3,"[10, 14, 21]",70.93598532,28537,2323,3,1,10,1.5521294182529992
undo,55,3,0,0,0,21,"[0, 7, 8, 24, 17, 20, 3, 19, 21]",9,2,"[10, 14]",58.72942971,29124,587,2,0,10,1.5690424431931145
undo,55,3,0,0,1,10,"[0, 7, 8, 24, 17, 20, 3, 19, 21, 10]",10,0,[],9.393844175,34693,5569,1,0,10,1.8456114225770883
undo,55,3,0,1,1,10,"[0, 7, 8, 24, 17, 20, 3, 19, 21, 10]",10,0,[],9.393844175,39414,4721,1,0,10,1.8456114225770883
undo,56,22,0,0,0,0,[0],1,29,"[1, 2, 3, 4, 5, 6, 7, 8, 9, 10, 11, 12, 13, 14, 15, 16, 17, 18, 19, 20, 21, 22, 23, 24, 25, 26, 27, 28, 29]",300,132,-1,31,704,9,0.0
undo,56,22,0,0,0,6,"[0, 6]",2,19,"[1, 3, 7, 8, 9, 11, 13, 14, 15, 16, 17, 19, 20, 21, 22, 24, 25, 28, 29]",211.3828459,9493,9361,1,73,9,1.0
undo,56,22,0,0,0,9,"[0, 6, 9]",3,17,"[1, 3, 7, 8, 13, 14, 15, 16, 17, 19, 20, 21, 22, 24, 25, 28, 29]",184.755792,10660,1167,1,39,9,1.2868618423088127
undo,56,22,0,0,0,19,"[0, 6, 9, 19]",4,16,"[1, 3, 7, 8, 13, 14, 15, 16, 17, 20, 21, 22, 24, 25, 28, 29]",164.3597139,12589,1929,1,29,9,1.7035075715300563
undo,56,22,0,0,0,29,"[0, 6, 9, 19, 29]",5,14,"[1, 3, 7, 8, 13, 14, 15, 16, 17, 20, 21, 24, 25, 28]",149.3264176,13189,600,1,21,9,1.9566347729231615
undo,56,22,0,0,0,14,"[0, 6, 9, 19, 29, 14]",6,4,"[7, 17, 24, 28]",91.07695404,14573,1384,2,3,8,1.612788545319481
undo,56,22,0,0,0,7,"[0, 6, 9, 19, 29, 14, 7]",7,2,"[17, 24]",78.03854923,16257,1684,2,0,8,1.7648812834687035
undo,56,22,1,0,0,14,"[0, 6, 9, 19, 29, 14]",6,4,"[7, 17, 24, 28]",91.07695404,22083,5826,2,3,8,1.612788545319481
undo,56,22,1,0,0,29,"[0, 6, 9, 19, 29]",5,14,"[1, 3, 7, 8, 13, 14, 15, 16, 17, 20, 21, 24, 25, 28]",149.3264176,22317,234,1,21,9,1.9566347729231615
undo,56,22,1,0,0,19,"[0, 6, 9, 19]",4,16,"[1, 3, 7, 8, 13, 14, 15, 16, 17, 20, 21, 22, 24, 25, 28, 29]",164.3597139,22650,333,1,29,9,1.7035075715300563
undo,56,22,1,0,0,9,"[0, 6, 9]",3,17,"[1, 3, 7, 8, 13, 14, 15, 16, 17, 19, 20, 21, 22, 24, 25, 28, 29]",184.755792,22916,266,1,39,9,1.2868618423088127
undo,56,22,1,0,0,6,"[0, 6]",2,19,"[1, 3, 7, 8, 9, 11, 13, 14, 15, 16, 17, 19, 20, 21, 22, 24, 25, 28, 29]",211.3828459,23150,234,1,73,9,1.0
undo,56,22,1,0,0,0,[0],1,29,"[1, 2, 3, 4, 5, 6, 7, 8, 9, 10, 11, 12, 13, 14, 15, 16, 17, 18, 19, 20, 21, 22, 23, 24, 25, 26, 27, 28, 29]",300,23650,500,31,704,9,0.0
undo,56,22,0,0,0,13,"[0, 13]",2,22,"[1, 3, 5, 6, 7, 8, 9, 10, 12, 14, 15, 16, 17, 19, 20, 21, 23, 24, 25, 26, 28, 29]",189.3202819,25714,2064,2,52,8,1.0
undo,56,22,0,0,0,15,"[0, 13, 15]",3,17,"[1, 3, 5, 6, 7, 8, 9, 10, 14, 17, 19, 20, 21, 23, 24, 26, 29]",173.7639327,26803,1089,2,40,8,1.001747361505262
undo,56,22,0,0,0,8,"[0, 13, 15, 8]",4,12,"[1, 3, 5, 10, 17, 19, 20, 21, 23, 24, 26, 29]",146.5609917,28137,1334,1,14,8,1.009379786590907
undo,56,22,0,0,0,20,"[0, 13, 15, 8, 20]",5,5,"[1, 3, 21, 23, 24]",88.30294504,29137,1000,1,8,8,1.45911246050007
undo,56,22,0,0,0,24,"[0, 13, 15, 8, 20, 24]",6,2,"[3, 21]",50.64660427,30353,1216,2,0,7,1.8589836309601993
undo,56,22,0,0,1,21,"[0, 13, 15, 8, 20, 24, 21]",7,0,[],23.44366325,31593,1240,1,0,7,1.7144703064923414
undo,56,22,1,0,0,24,"[0, 13, 15, 8, 20, 24]",6,2,"[3, 21]",50.64660427,34047,2454,2,0,7,1.8589836309601993
undo,56,22,1,0,0,20,"[0, 13, 15, 8, 20]",5,5,"[1, 3, 21, 23, 24]",88.30294504,34681,634,1,8,8,1.45911246050007
undo,56,22,1,0,0,8,"[0, 13, 15, 8]",4,12,"[1, 3, 5, 10, 17, 19, 20, 21, 23, 24, 26, 29]",146.5609917,34949,268,1,14,8,1.009379786590907
undo,56,22,1,0,0,15,"[0, 13, 15]",3,17,"[1, 3, 5, 6, 7, 8, 9, 10, 14, 17, 19, 20, 21, 23, 24, 26, 29]",173.7639327,36047,1098,2,40,8,1.001747361505262
undo,56,22,0,0,0,29,"[0, 13, 15, 29]",4,6,"[6, 7, 9, 14, 19, 24]",70.72025265,38272,2225,1,6,7,2.977407978533914
undo,56,22,0,0,0,19,"[0, 13, 15, 29, 19]",5,4,"[6, 7, 9, 14]",55.68695627,39105,833,1,3,7,3.068329710767314
undo,56,22,0,0,0,9,"[0, 13, 15, 29, 19, 9]",6,1,[6],35.29087822,39837,732,1,0,7,2.9558454523784716
undo,56,22,0,0,1,6,"[0, 13, 15, 29, 19, 9, 6]",7,0,[],8.663824305,41400,1563,1,0,7,3.2875821692577567
undo,56,22,0,1,1,6,"[0, 13, 15, 29, 19, 9, 6]",7,0,[],8.663824305,43997,2597,1,0,7,3.2875821692577567
undo,57,0,0,0,0,0,[0],1,27,"[2, 3, 4, 5, 6, 7, 8, 9, 10, 11, 12, 13, 14, 15, 16, 17, 19, 20, 21, 22, 23, 24, 25, 26, 27, 28, 29]",300,114,-1,104,1136,9,0.0
undo,57,0,0,0,0,28,"[0, 28]",2,26,"[2, 3, 4, 5, 6, 7, 8, 9, 10, 11, 12, 13, 14, 15, 16, 17, 19, 20, 21, 22, 23, 24, 25, 26, 27, 29]",194.9190788,4962,4848,39,388,9,1.0
undo,57,0,0,0,0,5,"[0, 28, 5]",3,21,"[2, 3, 4, 7, 8, 9, 11, 12, 13, 14, 15, 16, 17, 19, 20, 21, 23, 24, 25, 26, 29]",151.2613189,7193,2231,27,210,9,1.0978295127671733
undo,57,0,0,0,0,4,"[0, 28, 5, 4]",4,16,"[3, 7, 8, 9, 11, 12, 13, 14, 15, 17, 19, 20, 21, 23, 24, 26]",126.1814465,8089,896,17,114,9,1.1103727063761901
undo,57,0,0,0,0,26,"[0, 28, 5, 4, 26]",5,14,"[3, 7, 8, 9, 11, 12, 13, 14, 15, 17, 19, 20, 23, 24]",114.1398519,9857,1768,7,54,9,1.1504454351688815
undo,57,0,0,0,0,24,"[0, 28, 5, 4, 26, 24]",6,11,"[3, 7, 8, 9, 11, 12, 15, 17, 19, 20, 23]",97.02260914,10938,1081,7,22,9,1.2166555899566422
undo,57,0,0,0,0,15,"[0, 28, 5, 4, 26, 24, 15]",7,7,"[3, 7, 8, 9, 11, 12, 17]",73.67737408,12305,1367,4,5,9,1.1972898774231708
undo,57,0,0,0,0,7,"[0, 28, 5, 4, 26, 24, 15, 7]",8,2,"[3, 8]",42.61292495,13457,1152,2,0,9,1.2554869594545575
undo,57,0,0,0,1,3,"[0, 28, 5, 4, 26, 24, 15, 7, 3]",9,0,[],18.52973579,19225,5768,1,0,9,1.2985327435367093
undo,57,0,0,1,1,3,"[0, 28, 5, 4, 26, 24, 15, 7, 3]",9,0,[],18.52973579,20482,1257,1,0,9,1.2985327435367093
undo,58,35,0,0,0,0,[0],1,29,"[1, 2, 3, 4, 5, 6, 7, 8, 9, 10, 11, 12, 13, 14, 15, 16, 17, 18, 19, 20, 21, 22, 23, 24, 25, 26, 27, 28, 29]",300,115,-1,5,236,11,0.0
undo,58,35,0,0,0,24,"[0, 24]",2,27,"[1, 2, 4, 5, 6, 7, 8, 9, 10, 11, 12, 13, 14, 15, 16, 17, 18, 19, 20, 21, 22, 23, 25, 26, 27, 28, 29]",268.9838752,4461,4346,49,512,10,1.0
undo,58,35,0,0,0,17,"[0, 24, 17]",3,26,"[1, 2, 4, 5, 6, 7, 8, 9, 10, 11, 12, 13, 14, 15, 16, 18, 19, 20, 21, 22, 23, 25, 26, 27, 28, 29]",257.2791753,5277,816,33,238,10,1.0771477201815276
undo,58,35,0,0,0,1,"[0, 24, 17, 1]",4,25,"[2, 4, 5, 6, 7, 8, 9, 10, 11, 12, 13, 14, 15, 16, 18, 19, 20, 21, 22, 23, 25, 26, 27, 28, 29]",241.4677869,6388,1111,26,151,10,1.2244804141479215
undo,58,35,0,0,0,15,"[0, 24, 17, 1, 15]",5,23,"[2, 4, 5, 6, 7, 8, 9, 10, 11, 12, 14, 16, 18, 19, 20, 21, 22, 23, 25, 26, 27, 28, 29]",218.6204676,7622,1234,26,78,10,1.4642196672428094
undo,58,35,0,0,0,23,"[0, 24, 17, 1, 15, 23]",6,11,"[4, 5, 6, 9, 18, 19, 25, 26, 27, 28, 29]",158.1804147,9389,1767,15,12,10,1.3338903684702363
undo,58,35,0,0,0,9,"[0, 24, 17, 1, 15, 23, 9]",7,6,"[5, 6, 18, 19, 25, 27]",120.5373542,12305,2916,6,1,10,1.5964380615155294
undo,58,35,0,0,0,18,"[0, 24, 17, 1, 15, 23, 9, 18]",8,3,"[5, 6, 25]",100.5123698,13122,817,2,1,10,1.5508488101942703
undo,58,35,0,0,0,6,"[0, 24, 17, 1, 15, 23, 9, 18, 6]",9,1,[25],66.89689722,15438,2316,1,0,10,1.541466044761729
undo,58,35,0,0,1,25,"[0, 24, 17, 1, 15, 23, 9, 18, 6, 25]",10,0,[],42.87607292,16689,1251,1,0,10,1.5877595882523792
undo,58,35,1,0,0,6,"[0, 24, 17, 1, 15, 23, 9, 18, 6]",9,1,[25],66.89689722,19000,2311,1,0,10,1.541466044761729
undo,58,35,1,0,0,18,"[0, 24, 17, 1, 15, 23, 9, 18]",8,3,"[5, 6, 25]",100.5123698,19249,249,2,1,10,1.5508488101942703
undo,58,35,1,0,0,9,"[0, 24, 17, 1, 15, 23, 9]",7,6,"[5, 6, 18, 19, 25, 27]",120.5373542,20100,851,6,1,10,1.5964380615155294
undo,58,35,1,0,0,23,"[0, 24, 17, 1, 15, 23]",6,11,"[4, 5, 6, 9, 18, 19, 25, 26, 27, 28, 29]",158.1804147,21164,1064,15,12,10,1.3338903684702363
undo,58,35,0,0,0,9,"[0, 24, 17, 1, 15, 23, 9]",7,6,"[5, 6, 18, 19, 25, 27]",120.5373542,26471,5307,6,1,10,1.5964380615155294
undo,58,35,0,0,0,18,"[0, 24, 17, 1, 15, 23, 9, 18]",8,3,"[5, 6, 25]",100.5123698,27139,668,2,1,10,1.5508488101942703
undo,58,35,0,0,0,25,"[0, 24, 17, 1, 15, 23, 9, 18, 25]",9,1,[6],66.67452121,28288,1149,1,0,10,1.4408023801578587
undo,58,35,0,0,1,6,"[0, 24, 17, 1, 15, 23, 9, 18, 25, 6]",10,0,[],42.65369691,30937,2649,1,0,10,1.701781671832088
undo,58,35,1,0,0,25,"[0, 24, 17, 1, 15, 23, 9, 18, 25]",9,1,[6],66.67452121,36882,5945,1,0,10,1.4408023801578587
undo,58,35,1,0,0,18,"[0, 24, 17, 1, 15, 23, 9, 18]",8,3,"[5, 6, 25]",100.5123698,37415,533,2,1,10,1.5508488101942703
undo,58,35,1,0,0,9,"[0, 24, 17, 1, 15, 23, 9]",7,6,"[5, 6, 18, 19, 25, 27]",120.5373542,37698,283,6,1,10,1.5964380615155294
undo,58,35,1,0,0,23,"[0, 24, 17, 1, 15, 23]",6,11,"[4, 5, 6, 9, 18, 19, 25, 26, 27, 28, 29]",158.1804147,38215,517,15,12,10,1.3338903684702363
undo,58,35,1,0,0,15,"[0, 24, 17, 1, 15]",5,23,"[2, 4, 5, 6, 7, 8, 9, 10, 11, 12, 14, 16, 18, 19, 20, 21, 22, 23, 25, 26, 27, 28, 29]",218.6204676,38915,700,26,78,10,1.4642196672428094
