condition,trial_id,map_id,undoIndicator,submit,checkEnd,currentChoice,chosen_all,n_city_all,n_within_reach,cities_reach,currentBudget,time_all,rt_all,n_opt_paths_all,n_subopt_paths_all,mas_all,tortuosity_all
basic,0,37,0,0,0,0,[0],1,29,"[1, 2, 3, 4, 5, 6, 7, 8, 9, 10, 11, 12, 13, 14, 15, 16, 17, 18, 19, 20, 21, 22, 23, 24, 25, 26, 27, 28, 29]",300,181,-1,6,168,10,0.0
basic,0,37,0,0,0,28,"[0, 28]",2,28,"[1, 2, 3, 4, 5, 6, 7, 8, 9, 10, 11, 12, 13, 14, 15, 16, 17, 18, 19, 20, 21, 22, 23, 24, 25, 26, 27, 29]",229.1692157,8096,7915,18,114,7,1.0
basic,0,37,0,0,0,6,"[0, 28, 6]",3,15,"[3, 5, 9, 10, 11, 15, 17, 18, 19, 20, 21, 23, 25, 26, 29]",168.4979705,9468,1372,7,34,7,1.4684030276794289
basic,0,37,0,0,0,10,"[0, 28, 6, 10]",4,13,"[3, 5, 9, 11, 17, 18, 19, 20, 21, 23, 25, 26, 29]",154.1801494,10102,634,4,16,7,1.4636977027853721
basic,0,37,0,0,0,17,"[0, 28, 6, 10, 17]",5,11,"[3, 5, 9, 11, 18, 19, 20, 21, 23, 26, 29]",139.6199296,10734,632,4,8,7,1.756910785214025
basic,0,37,0,0,0,29,"[0, 28, 6, 10, 17, 29]",6,2,"[11, 19]",86.15966402,11539,805,2,0,7,1.6485878380764996
basic,0,37,0,1,0,29,"[0, 28, 6, 10, 17, 29]",6,2,"[11, 19]",86.15966402,12363,824,2,0,7,1.6485878380764996
basic,1,26,0,0,0,0,[0],1,29,"[1, 2, 3, 4, 5, 6, 7, 8, 9, 10, 11, 12, 13, 14, 15, 16, 17, 18, 19, 20, 21, 22, 23, 24, 25, 26, 27, 28, 29]",300,163,-1,9,226,9,0.0
basic,1,26,0,0,0,16,"[0, 16]",2,17,"[3, 4, 5, 6, 10, 11, 12, 13, 14, 17, 18, 19, 21, 22, 23, 26, 29]",188.0535842,4730,4567,34,176,8,1.0
basic,1,26,0,0,0,29,"[0, 16, 29]",3,12,"[4, 5, 6, 10, 12, 13, 14, 17, 19, 21, 23, 26]",163.8461474,5808,1078,32,68,8,1.1142946124989752
basic,1,26,0,0,0,4,"[0, 16, 29, 4]",4,9,"[5, 6, 10, 12, 13, 14, 17, 21, 23]",139.8461474,6594,786,17,7,8,1.3213762371676339
basic,1,26,0,0,0,17,"[0, 16, 29, 4, 17]",5,5,"[6, 10, 14, 21, 23]",118.7511243,7187,593,6,0,8,1.2756100061290643
basic,1,26,0,0,0,14,"[0, 16, 29, 4, 17, 14]",6,2,"[6, 10]",96.27891921,7785,598,2,0,8,1.264154039440982
basic,1,26,0,0,0,6,"[0, 16, 29, 4, 17, 14, 6]",7,1,[10],75.25512317,9454,1669,1,0,8,1.3993089646092733
basic,1,26,0,1,0,6,"[0, 16, 29, 4, 17, 14, 6]",7,1,[10],75.25512317,10613,1159,1,0,8,1.3993089646092733
basic,2,15,0,0,0,0,[0],1,25,"[1, 2, 3, 4, 7, 8, 9, 10, 11, 12, 13, 14, 15, 16, 18, 20, 21, 22, 23, 24, 25, 26, 27, 28, 29]",300,163,-1,4,65,9,0.0
basic,2,15,0,0,0,12,"[0, 12]",2,22,"[1, 2, 3, 4, 7, 8, 9, 10, 11, 13, 14, 15, 16, 18, 21, 22, 23, 24, 26, 27, 28, 29]",213.547701,6304,6141,4,35,9,1.0
basic,2,15,0,0,0,7,"[0, 12, 7]",3,16,"[1, 3, 4, 8, 9, 10, 11, 13, 14, 15, 16, 18, 21, 22, 24, 27]",180.3061607,7168,864,4,29,9,1.411291635294361
basic,2,15,0,0,0,11,"[0, 12, 7, 11]",4,9,"[3, 4, 13, 14, 15, 16, 21, 22, 27]",138.8212237,7955,787,2,12,9,1.2980572092387541
basic,2,15,0,0,0,3,"[0, 12, 7, 11, 3]",5,7,"[4, 13, 14, 15, 16, 21, 22]",127.4194695,8754,799,2,7,9,1.3036925309398455
basic,2,15,0,0,0,16,"[0, 12, 7, 11, 3, 16]",6,5,"[4, 13, 14, 15, 22]",102.3395971,10542,1788,2,2,9,1.731400260973498
basic,2,15,0,1,0,16,"[0, 12, 7, 11, 3, 16]",6,5,"[4, 13, 14, 15, 22]",102.3395971,12248,1706,2,2,9,1.731400260973498
basic,3,20,0,0,0,0,[0],1,21,"[1, 2, 3, 4, 5, 6, 7, 8, 9, 12, 17, 18, 20, 21, 22, 23, 25, 26, 27, 28, 29]",300,162,-1,1,9,9,0.0
basic,3,20,0,0,0,12,"[0, 12]",2,20,"[1, 2, 3, 4, 5, 6, 7, 8, 9, 17, 18, 20, 21, 22, 23, 25, 26, 27, 28, 29]",271.5570747,3857,3695,1,8,9,1.0
basic,3,20,0,0,0,1,"[0, 12, 1]",3,12,"[3, 4, 5, 6, 8, 9, 20, 21, 23, 27, 28, 29]",189.5692707,5838,1981,1,6,9,1.0757997779162911
basic,3,20,0,0,0,5,"[0, 12, 1, 5]",4,10,"[4, 6, 8, 9, 20, 21, 23, 27, 28, 29]",152.8950291,6719,881,1,5,9,1.1708231454516806
basic,3,20,0,0,0,21,"[0, 12, 1, 5, 21]",5,8,"[4, 6, 8, 9, 20, 23, 27, 28]",107.8950291,8054,1335,1,4,9,1.126197336199212
basic,3,20,0,0,0,8,"[0, 12, 1, 5, 21, 8]",6,5,"[6, 9, 23, 27, 28]",90.43077988,9295,1241,1,3,9,1.140007470699913
basic,3,20,0,1,0,8,"[0, 12, 1, 5, 21, 8]",6,5,"[6, 9, 23, 27, 28]",90.43077988,10229,934,1,3,9,1.140007470699913
basic,4,7,0,0,0,0,[0],1,29,"[1, 2, 3, 4, 5, 6, 7, 8, 9, 10, 11, 12, 13, 14, 15, 16, 17, 18, 19, 20, 21, 22, 23, 24, 25, 26, 27, 28, 29]",300,162,-1,3,79,9,0.0
basic,4,7,0,0,0,6,"[0, 6]",2,22,"[2, 4, 5, 7, 8, 9, 10, 11, 13, 14, 15, 16, 18, 19, 20, 21, 22, 23, 24, 25, 27, 28]",231.1160396,3421,3259,1,24,9,1.0
basic,4,7,0,0,0,25,"[0, 6, 25]",3,14,"[2, 4, 5, 7, 13, 14, 15, 16, 18, 19, 20, 21, 23, 28]",163.9371739,4510,1089,1,15,9,1.1491202566384209
basic,4,7,0,0,0,4,"[0, 6, 25, 4]",4,10,"[2, 7, 13, 15, 16, 18, 19, 20, 21, 23]",139.1985401,5253,743,1,9,9,1.145081852791697
basic,4,7,0,0,0,20,"[0, 6, 25, 4, 20]",5,6,"[2, 7, 13, 16, 18, 19]",119.5516574,6108,855,1,4,9,1.2036846139155144
basic,4,7,0,0,0,18,"[0, 6, 25, 4, 20, 18]",6,5,"[2, 7, 13, 16, 19]",106.7454089,6994,886,1,3,9,1.3498144584217913
basic,4,7,0,0,0,7,"[0, 6, 25, 4, 20, 18, 7]",7,2,"[2, 19]",65.51435269,8293,1299,1,1,9,1.2817825700699357
basic,4,7,0,1,0,7,"[0, 6, 25, 4, 20, 18, 7]",7,2,"[2, 19]",65.51435269,9247,954,1,1,9,1.2817825700699357
basic,5,18,0,0,0,0,[0],1,28,"[1, 2, 3, 4, 5, 6, 7, 8, 9, 10, 11, 12, 13, 14, 16, 17, 18, 19, 20, 21, 22, 23, 24, 25, 26, 27, 28, 29]",300,162,-1,3,136,10,0.0
basic,5,18,0,0,0,26,"[0, 26]",2,27,"[1, 2, 3, 4, 5, 6, 7, 8, 9, 10, 11, 12, 13, 14, 16, 17, 18, 19, 20, 21, 22, 23, 24, 25, 27, 28, 29]",258.0238163,5703,5541,1,61,10,1.0
basic,5,18,0,0,0,23,"[0, 26, 23]",3,24,"[1, 2, 3, 4, 5, 6, 7, 8, 9, 10, 12, 13, 14, 16, 17, 18, 19, 20, 21, 24, 25, 27, 28, 29]",239.422741,6620,917,1,60,10,1.576763070488403
basic,5,18,0,0,0,25,"[0, 26, 23, 25]",4,12,"[1, 3, 5, 7, 8, 9, 12, 13, 14, 16, 27, 28]",177.1571807,7889,1269,1,20,10,2.047096022516276
basic,5,18,0,0,0,8,"[0, 26, 23, 25, 8]",5,10,"[3, 5, 7, 9, 12, 13, 14, 16, 27, 28]",140.1031661,8537,648,1,8,10,1.690350929277305
basic,5,18,0,0,0,13,"[0, 26, 23, 25, 8, 13]",6,9,"[3, 5, 7, 9, 12, 14, 16, 27, 28]",119.008143,9603,1066,1,5,10,1.9253363419040979
basic,5,18,0,0,0,14,"[0, 26, 23, 25, 8, 13, 14]",7,6,"[3, 5, 7, 9, 12, 27]",100.034477,10542,939,1,3,10,1.7836299664340558
basic,5,18,0,0,0,3,"[0, 26, 23, 25, 8, 13, 14, 3]",8,2,"[5, 12]",69.95125912,12053,1511,1,1,10,1.8798445814496316
basic,5,18,0,1,0,3,"[0, 26, 23, 25, 8, 13, 14, 3]",8,2,"[5, 12]",69.95125912,13196,1143,1,1,10,1.8798445814496316
basic,6,21,0,0,0,0,[0],1,29,"[1, 2, 3, 4, 5, 6, 7, 8, 9, 10, 11, 12, 13, 14, 15, 16, 17, 18, 19, 20, 21, 22, 23, 24, 25, 26, 27, 28, 29]",300,163,-1,84,830,9,0.0
basic,6,21,0,0,0,25,"[0, 25]",2,26,"[1, 2, 3, 4, 5, 6, 7, 8, 9, 10, 11, 12, 13, 14, 15, 16, 17, 18, 20, 21, 22, 23, 24, 26, 27, 29]",240.1836143,5072,4909,30,238,9,1.0
basic,6,21,0,0,0,23,"[0, 25, 23]",3,21,"[1, 2, 4, 6, 7, 8, 9, 10, 11, 12, 14, 15, 16, 17, 18, 20, 21, 22, 24, 27, 29]",196.8592562,6494,1422,14,80,9,1.0416131642057598
basic,6,21,0,0,0,21,"[0, 25, 23, 21]",4,14,"[1, 4, 6, 8, 9, 14, 15, 16, 17, 18, 20, 22, 24, 29]",167.2450705,7607,1113,10,25,9,1.4768792067751173
basic,6,21,0,0,0,14,"[0, 25, 23, 21, 14]",5,10,"[4, 8, 9, 15, 16, 17, 18, 22, 24, 29]",141.6325735,11119,3512,8,13,9,1.3826076066332742
basic,6,21,0,0,0,4,"[0, 25, 23, 21, 14, 4]",6,7,"[8, 15, 16, 17, 18, 24, 29]",127.4904379,12872,1753,8,3,9,1.3487191473328533
basic,6,21,0,0,0,16,"[0, 25, 23, 21, 14, 4, 16]",7,3,"[8, 15, 24]",82.89223163,14052,1180,4,1,9,1.3301484172843694
basic,6,21,0,0,0,8,"[0, 25, 23, 21, 14, 4, 16, 8]",8,2,"[15, 24]",64.2911564,15787,1735,2,0,9,1.3009886562393016
basic,6,21,0,1,0,8,"[0, 25, 23, 21, 14, 4, 16, 8]",8,2,"[15, 24]",64.2911564,17197,1410,2,0,9,1.3009886562393016
basic,7,6,0,0,0,0,[0],1,29,"[1, 2, 3, 4, 5, 6, 7, 8, 9, 10, 11, 12, 13, 14, 15, 16, 17, 18, 19, 20, 21, 22, 23, 24, 25, 26, 27, 28, 29]",300,187,-1,180,4304,10,0.0
basic,7,6,0,0,0,3,"[0, 3]",2,28,"[1, 2, 4, 5, 6, 7, 8, 9, 10, 11, 12, 13, 14, 15, 16, 17, 18, 19, 20, 21, 22, 23, 24, 25, 26, 27, 28, 29]",266.4738908,4684,4497,90,1607,10,1.0
basic,7,6,0,0,0,10,"[0, 3, 10]",3,27,"[1, 2, 4, 5, 6, 7, 8, 9, 11, 12, 13, 14, 15, 16, 17, 18, 19, 20, 21, 22, 23, 24, 25, 26, 27, 28, 29]",215.2293789,6433,1749,8,136,10,1.0050517746249001
basic,7,6,0,0,0,24,"[0, 3, 10, 24]",4,23,"[1, 2, 4, 5, 6, 7, 8, 11, 13, 14, 16, 17, 18, 19, 20, 21, 22, 23, 25, 26, 27, 28, 29]",201.812971,7801,1368,8,85,10,1.0091851911500884
basic,7,6,0,0,0,17,"[0, 3, 10, 24, 17]",5,19,"[1, 2, 4, 5, 6, 7, 8, 11, 13, 14, 16, 18, 20, 21, 22, 23, 26, 27, 29]",172.5384087,8637,836,8,53,10,1.8060138032707682
basic,7,6,0,0,0,18,"[0, 3, 10, 24, 17, 18]",6,15,"[1, 2, 6, 7, 8, 13, 14, 16, 20, 21, 22, 23, 26, 27, 29]",158.6100204,9469,832,7,36,10,2.3216150751946008
basic,7,6,0,0,0,16,"[0, 3, 10, 24, 17, 18, 16]",7,13,"[1, 2, 6, 7, 13, 14, 20, 21, 22, 23, 26, 27, 29]",135.2647853,10768,1299,7,21,10,2.2822729587843544
basic,7,6,0,0,0,29,"[0, 3, 10, 24, 17, 18, 16, 29]",8,7,"[6, 14, 20, 21, 22, 23, 27]",98.57691268,12512,1744,6,4,10,1.8911507070056388
basic,7,6,0,1,0,29,"[0, 3, 10, 24, 17, 18, 16, 29]",8,7,"[6, 14, 20, 21, 22, 23, 27]",98.57691268,14195,1683,6,4,10,1.8911507070056388
basic,8,30,0,0,0,0,[0],1,19,"[3, 4, 5, 7, 9, 11, 16, 17, 18, 19, 20, 21, 22, 24, 25, 26, 27, 28, 29]",300,172,-1,5,41,8,0.0
basic,8,30,0,0,0,26,"[0, 26]",2,15,"[3, 5, 9, 11, 16, 17, 18, 19, 20, 21, 22, 25, 27, 28, 29]",208.2939479,8778,8606,5,27,6,1.0
basic,8,30,0,0,0,16,"[0, 26, 16]",3,9,"[3, 9, 11, 17, 20, 22, 25, 27, 28]",165.8439773,10106,1328,2,8,6,1.6640006669138325
basic,8,30,0,0,0,11,"[0, 26, 16, 11]",4,1,[9],63.66276572,11441,1335,1,0,5,1.3262938848531356
basic,8,30,0,1,0,11,"[0, 26, 16, 11]",4,1,[9],63.66276572,12549,1108,1,0,5,1.3262938848531356
basic,9,40,0,0,0,0,[0],1,29,"[1, 2, 3, 4, 5, 6, 7, 8, 9, 10, 11, 12, 13, 14, 15, 16, 17, 18, 19, 20, 21, 22, 23, 24, 25, 26, 27, 28, 29]",300,165,-1,8,191,9,0.0
basic,9,40,0,0,0,1,"[0, 1]",2,18,"[2, 5, 6, 7, 8, 9, 10, 11, 13, 15, 17, 18, 19, 21, 22, 23, 27, 29]",247.8463808,2545,2380,4,80,9,1.0
basic,9,40,0,0,0,6,"[0, 1, 6]",3,17,"[2, 5, 7, 8, 9, 10, 11, 13, 15, 17, 18, 19, 21, 22, 23, 27, 29]",227.7466295,3705,1160,4,74,9,1.0459427008232034
basic,9,40,0,0,0,21,"[0, 1, 6, 21]",4,8,"[2, 5, 9, 17, 18, 19, 22, 23]",175.7754837,5307,1602,4,25,9,1.0308822257404064
basic,9,40,0,0,0,9,"[0, 1, 6, 21, 9]",5,6,"[2, 5, 18, 19, 22, 23]",130.0699041,6110,803,4,12,9,1.377861912961129
basic,9,40,0,0,0,18,"[0, 1, 6, 21, 9, 18]",6,5,"[2, 5, 19, 22, 23]",113.5169588,7320,1210,4,4,9,1.5742712168661408
basic,9,40,0,0,0,23,"[0, 1, 6, 21, 9, 18, 23]",7,3,"[2, 5, 19]",79.51695879,9338,2018,2,1,9,2.324611956726637
basic,9,40,0,1,0,23,"[0, 1, 6, 21, 9, 18, 23]",7,3,"[2, 5, 19]",79.51695879,11048,1710,2,1,9,2.324611956726637
basic,10,19,0,0,0,0,[0],1,29,"[1, 2, 3, 4, 5, 6, 7, 8, 9, 10, 11, 12, 13, 14, 15, 16, 17, 18, 19, 20, 21, 22, 23, 24, 25, 26, 27, 28, 29]",300,164,-1,12,149,8,0.0
basic,10,19,0,0,0,29,"[0, 29]",2,28,"[1, 2, 3, 4, 5, 6, 7, 8, 9, 10, 11, 12, 13, 14, 15, 16, 17, 18, 19, 20, 21, 22, 23, 24, 25, 26, 27, 28]",265.0715016,3203,3039,12,120,8,1.0
basic,10,19,0,0,0,12,"[0, 29, 12]",3,10,"[1, 2, 3, 8, 13, 16, 17, 19, 23, 25]",151.2251139,5011,1808,1,15,8,1.2439006517653588
basic,10,19,0,0,0,25,"[0, 29, 12, 25]",4,9,"[1, 2, 3, 8, 13, 16, 17, 19, 23]",134.1078711,5811,800,8,14,7,1.21651092005601
basic,10,19,0,0,0,17,"[0, 29, 12, 25, 17]",5,8,"[1, 2, 3, 8, 13, 16, 19, 23]",123.0625101,6824,1013,6,5,7,1.2766039371281641
basic,10,19,0,0,1,2,"[0, 29, 12, 25, 17, 2]",6,0,[],55.03310468,7756,932,1,0,6,1.1898608663614996
basic,10,19,0,1,1,2,"[0, 29, 12, 25, 17, 2]",6,0,[],55.03310468,9313,1557,1,0,6,1.1898608663614996
basic,11,4,0,0,0,0,[0],1,26,"[3, 4, 5, 6, 7, 8, 10, 11, 12, 13, 14, 15, 16, 17, 18, 19, 20, 21, 22, 23, 24, 25, 26, 27, 28, 29]",300,164,-1,4,489,10,0.0
basic,11,4,0,0,0,23,"[0, 23]",2,20,"[3, 4, 5, 6, 7, 10, 11, 12, 13, 14, 15, 16, 17, 19, 20, 21, 22, 25, 26, 28]",258.0238163,4642,4478,27,227,8,1.0
basic,11,4,0,0,0,15,"[0, 23, 15]",3,12,"[4, 6, 7, 10, 11, 13, 14, 16, 19, 21, 25, 28]",206.0142018,5338,696,9,19,6,1.5636093306022785
basic,11,4,0,0,0,19,"[0, 23, 15, 19]",4,4,"[4, 7, 10, 13]",155.2106586,6061,723,1,3,6,1.4672418557560916
basic,11,4,0,0,0,10,"[0, 23, 15, 19, 10]",5,1,[7],121.2548049,7136,1075,1,0,6,1.769754406930693
basic,11,4,0,1,0,10,"[0, 23, 15, 19, 10]",5,1,[7],121.2548049,8130,994,1,0,6,1.769754406930693
basic,12,32,0,0,0,0,[0],1,29,"[1, 2, 3, 4, 5, 6, 7, 8, 9, 10, 11, 12, 13, 14, 15, 16, 17, 18, 19, 20, 21, 22, 23, 24, 25, 26, 27, 28, 29]",300,163,-1,17,359,10,0.0
basic,12,32,0,0,0,19,"[0, 19]",2,28,"[1, 2, 3, 4, 5, 6, 7, 8, 9, 10, 11, 12, 13, 14, 15, 16, 17, 18, 20, 21, 22, 23, 24, 25, 26, 27, 28, 29]",283.5075775,2953,2790,16,294,10,1.0
basic,12,32,0,0,0,13,"[0, 19, 13]",3,24,"[2, 3, 4, 5, 6, 8, 9, 10, 11, 12, 14, 15, 16, 17, 18, 20, 21, 22, 23, 24, 25, 26, 27, 28]",260.3127505,3758,805,14,227,10,1.0172874229878615
basic,12,32,0,0,0,15,"[0, 19, 13, 15]",4,18,"[2, 3, 5, 8, 9, 10, 11, 12, 16, 17, 20, 22, 23, 24, 25, 26, 27, 28]",177.4393531,4843,1085,9,116,10,1.435447391509833
basic,12,32,0,0,0,28,"[0, 19, 13, 15, 28]",5,17,"[2, 3, 5, 8, 9, 10, 11, 12, 16, 17, 20, 22, 23, 24, 25, 26, 27]",166.0375988,5853,1010,9,70,10,1.3843701324937985
basic,12,32,0,0,0,12,"[0, 19, 13, 15, 28, 12]",6,14,"[2, 3, 5, 8, 9, 10, 11, 16, 17, 20, 22, 24, 26, 27]",147.0639329,6985,1132,6,35,10,1.358372254952329
basic,12,32,0,0,0,16,"[0, 19, 13, 15, 28, 12, 16]",7,13,"[2, 3, 5, 8, 9, 10, 11, 17, 20, 22, 24, 26, 27]",131.411457,7687,702,5,15,10,1.4356932930709845
basic,12,32,0,1,0,16,"[0, 19, 13, 15, 28, 12, 16]",7,13,"[2, 3, 5, 8, 9, 10, 11, 17, 20, 22, 24, 26, 27]",131.411457,8764,1077,5,15,10,1.4356932930709845
basic,13,12,0,0,0,0,[0],1,29,"[1, 2, 3, 4, 5, 6, 7, 8, 9, 10, 11, 12, 13, 14, 15, 16, 17, 18, 19, 20, 21, 22, 23, 24, 25, 26, 27, 28, 29]",300,165,-1,2,32,9,0.0
basic,13,12,0,0,0,22,"[0, 22]",2,22,"[2, 4, 5, 6, 7, 9, 10, 12, 13, 14, 15, 16, 17, 18, 19, 21, 23, 24, 25, 27, 28, 29]",211.9943184,3643,3478,6,42,8,1.0
basic,13,12,0,0,0,16,"[0, 22, 16]",3,12,"[2, 4, 5, 6, 7, 12, 14, 19, 23, 24, 25, 27]",190.9943184,4347,704,6,24,8,1.2017164145167045
basic,13,12,0,0,0,4,"[0, 22, 16, 4]",4,9,"[2, 6, 7, 12, 14, 19, 24, 25, 27]",156.7890556,5194,847,6,14,8,1.146531713305579
basic,13,12,0,0,0,12,"[0, 22, 16, 4, 12]",5,4,"[14, 19, 24, 27]",114.5990094,6268,1074,4,3,8,1.1221389456954312
basic,13,12,0,0,0,27,"[0, 22, 16, 4, 12, 27]",6,3,"[14, 19, 24]",90.24741807,7202,934,2,1,8,1.2262878338287035
basic,13,12,0,0,0,14,"[0, 22, 16, 4, 12, 27, 14]",7,1,[24],61.59432051,8311,1109,1,0,8,1.2804562106751427
basic,13,12,0,1,0,14,"[0, 22, 16, 4, 12, 27, 14]",7,1,[24],61.59432051,9447,1136,1,0,8,1.2804562106751427
basic,14,25,0,0,0,0,[0],1,28,"[1, 2, 3, 4, 5, 7, 8, 9, 10, 11, 12, 13, 14, 15, 16, 17, 18, 19, 20, 21, 22, 23, 24, 25, 26, 27, 28, 29]",300,163,-1,5,94,10,0.0
basic,14,25,0,0,0,23,"[0, 23]",2,23,"[1, 2, 3, 5, 7, 8, 9, 11, 12, 13, 14, 16, 17, 19, 20, 21, 22, 24, 25, 26, 27, 28, 29]",259.7756293,2720,2557,3,33,10,1.0
basic,14,25,0,0,0,19,"[0, 23, 19]",3,21,"[1, 2, 3, 5, 7, 8, 9, 11, 12, 13, 14, 16, 17, 20, 21, 22, 24, 25, 27, 28, 29]",223.9287326,3939,1219,3,24,10,1.583101227007039
basic,14,25,0,0,0,29,"[0, 23, 19, 29]",4,19,"[1, 2, 3, 5, 7, 8, 9, 11, 12, 13, 14, 16, 17, 20, 21, 22, 24, 25, 28]",207.649912,5040,1101,3,17,10,1.474631541426484
basic,14,25,0,0,0,22,"[0, 23, 19, 29, 22]",5,18,"[1, 2, 3, 5, 7, 8, 9, 11, 12, 13, 14, 16, 17, 20, 21, 24, 25, 28]",191.5253965,5954,914,3,14,10,1.4020377754906637
basic,14,25,0,0,0,7,"[0, 23, 19, 29, 22, 7]",6,7,"[3, 8, 9, 11, 13, 24, 28]",115.8814939,7457,1503,3,11,10,1.5709678649326715
basic,14,25,0,0,0,24,"[0, 23, 19, 29, 22, 7, 24]",7,5,"[3, 8, 9, 13, 28]",91.12265712,8387,930,3,7,10,1.486191600033379
basic,14,25,0,0,0,9,"[0, 23, 19, 29, 22, 7, 24, 9]",8,4,"[3, 8, 13, 28]",73.09490075,9257,870,3,3,10,1.453504870342882
basic,14,25,0,1,0,9,"[0, 23, 19, 29, 22, 7, 24, 9]",8,4,"[3, 8, 13, 28]",73.09490075,10330,1073,3,3,10,1.453504870342882
basic,15,2,0,0,0,0,[0],1,23,"[1, 2, 4, 5, 6, 7, 8, 9, 12, 13, 15, 16, 17, 18, 19, 20, 22, 23, 25, 26, 27, 28, 29]",300,164,-1,70,620,10,0.0
basic,15,2,0,0,0,19,"[0, 19]",2,22,"[1, 2, 4, 5, 6, 7, 8, 9, 12, 13, 15, 16, 17, 18, 20, 22, 23, 25, 26, 27, 28, 29]",210.306076,3944,3780,67,431,10,1.0
basic,15,2,0,0,0,12,"[0, 19, 12]",3,17,"[1, 4, 5, 6, 7, 13, 15, 16, 17, 18, 20, 22, 25, 26, 27, 28, 29]",174.2921898,4755,811,66,298,10,1.1107635036313153
basic,15,2,0,0,0,5,"[0, 19, 12, 5]",4,11,"[1, 6, 7, 13, 15, 16, 18, 22, 25, 26, 29]",144.7625437,6876,2121,38,136,10,1.0968174771581647
basic,15,2,0,0,0,22,"[0, 19, 12, 5, 22]",5,8,"[1, 6, 7, 13, 15, 18, 26, 29]",131.9562952,7789,913,20,63,10,1.0889910507461968
basic,15,2,0,0,0,13,"[0, 19, 12, 5, 22, 13]",6,7,"[1, 6, 7, 15, 18, 26, 29]",117.0902265,8490,701,19,20,10,1.236526217328057
basic,15,2,0,0,0,18,"[0, 19, 12, 5, 22, 13, 18]",7,4,"[7, 15, 26, 29]",81.91921567,9712,1222,10,3,10,1.2128708213409936
basic,15,2,0,0,0,7,"[0, 19, 12, 5, 22, 13, 18, 7]",8,3,"[15, 26, 29]",71.62358553,10670,958,5,0,10,1.2019811287894737
basic,15,2,0,0,0,15,"[0, 19, 12, 5, 22, 13, 18, 7, 15]",9,2,"[26, 29]",56.85876247,11690,1020,2,0,10,1.2907869828541363
basic,15,2,0,1,0,15,"[0, 19, 12, 5, 22, 13, 18, 7, 15]",9,2,"[26, 29]",56.85876247,12764,1074,2,0,10,1.2907869828541363
basic,16,35,0,0,0,0,[0],1,29,"[1, 2, 3, 4, 5, 6, 7, 8, 9, 10, 11, 12, 13, 14, 15, 16, 17, 18, 19, 20, 21, 22, 23, 24, 25, 26, 27, 28, 29]",300,187,-1,5,236,11,0.0
basic,16,35,0,0,0,24,"[0, 24]",2,27,"[1, 2, 4, 5, 6, 7, 8, 9, 10, 11, 12, 13, 14, 15, 16, 17, 18, 19, 20, 21, 22, 23, 25, 26, 27, 28, 29]",268.9838752,3535,3348,49,512,10,1.0
basic,16,35,0,0,0,17,"[0, 24, 17]",3,26,"[1, 2, 4, 5, 6, 7, 8, 9, 10, 11, 12, 13, 14, 15, 16, 18, 19, 20, 21, 22, 23, 25, 26, 27, 28, 29]",257.2791753,4436,901,33,238,10,1.0771477201815276
basic,16,35,0,0,0,1,"[0, 24, 17, 1]",4,25,"[2, 4, 5, 6, 7, 8, 9, 10, 11, 12, 13, 14, 15, 16, 18, 19, 20, 21, 22, 23, 25, 26, 27, 28, 29]",241.4677869,5678,1242,26,151,10,1.2244804141479215
basic,16,35,0,0,0,15,"[0, 24, 17, 1, 15]",5,23,"[2, 4, 5, 6, 7, 8, 9, 10, 11, 12, 14, 16, 18, 19, 20, 21, 22, 23, 25, 26, 27, 28, 29]",218.6204676,6542,864,26,78,10,1.4642196672428094
basic,16,35,0,0,0,23,"[0, 24, 17, 1, 15, 23]",6,11,"[4, 5, 6, 9, 18, 19, 25, 26, 27, 28, 29]",158.1804147,9485,2943,15,12,10,1.3338903684702363
basic,16,35,0,0,0,6,"[0, 24, 17, 1, 15, 23, 6]",7,4,"[5, 9, 18, 25]",112.5295658,10757,1272,4,2,10,1.2397059724630664
basic,16,35,0,0,0,25,"[0, 24, 17, 1, 15, 23, 6, 25]",8,2,"[9, 18]",88.50874155,12153,1396,2,0,10,1.305974427386027
basic,16,35,0,0,0,18,"[0, 24, 17, 1, 15, 23, 6, 25, 18]",9,1,[9],54.67089291,14939,2786,1,0,10,1.9072277988119046
basic,16,35,0,1,0,18,"[0, 24, 17, 1, 15, 23, 6, 25, 18]",9,1,[9],54.67089291,16047,1108,1,0,10,1.9072277988119046
basic,17,5,0,0,0,0,[0],1,29,"[1, 2, 3, 4, 5, 6, 7, 8, 9, 10, 11, 12, 13, 14, 15, 16, 17, 18, 19, 20, 21, 22, 23, 24, 25, 26, 27, 28, 29]",300,163,-1,5,139,9,0.0
basic,17,5,0,0,0,25,"[0, 25]",2,25,"[1, 2, 3, 4, 5, 6, 8, 9, 10, 11, 12, 13, 14, 15, 16, 17, 18, 19, 21, 22, 23, 24, 26, 27, 28]",237.1987261,4105,3942,1,27,9,1.0
basic,17,5,0,0,0,23,"[0, 25, 23]",3,24,"[1, 2, 3, 4, 5, 6, 8, 9, 10, 11, 12, 13, 14, 15, 16, 17, 18, 19, 21, 22, 24, 26, 27, 28]",218.7596372,4970,865,1,16,9,1.619632697457157
basic,17,5,0,0,0,24,"[0, 25, 23, 24]",4,19,"[2, 4, 5, 6, 8, 9, 10, 12, 13, 14, 15, 17, 18, 19, 21, 22, 26, 27, 28]",195.6728445,5707,737,1,14,9,1.4405376720181815
basic,17,5,0,0,0,17,"[0, 25, 23, 24, 17]",5,11,"[4, 5, 6, 8, 12, 14, 15, 18, 19, 22, 27]",160.6871331,6693,986,1,10,9,1.3047273214654462
basic,17,5,0,0,0,5,"[0, 25, 23, 24, 17, 5]",6,6,"[4, 6, 8, 12, 15, 18]",117.6406466,7586,893,1,4,9,1.2200748060424715
basic,17,5,0,0,1,15,"[0, 25, 23, 24, 17, 5, 15]",7,0,[],77.61565439,8870,1284,1,0,7,1.2584791793101653
basic,17,5,0,1,1,15,"[0, 25, 23, 24, 17, 5, 15]",7,0,[],77.61565439,9746,876,1,0,7,1.2584791793101653
basic,18,44,0,0,0,0,[0],1,29,"[1, 2, 3, 4, 5, 6, 7, 8, 9, 10, 11, 12, 13, 14, 15, 16, 17, 18, 19, 20, 21, 22, 23, 24, 25, 26, 27, 28, 29]",300,164,-1,13,126,7,0.0
basic,18,44,0,0,0,11,"[0, 11]",2,18,"[4, 5, 6, 7, 8, 9, 12, 14, 16, 17, 19, 20, 22, 23, 24, 25, 26, 28]",152.7790776,4469,4305,5,34,7,1.0
basic,18,44,0,0,0,24,"[0, 11, 24]",3,13,"[4, 5, 7, 8, 9, 12, 14, 17, 20, 22, 23, 25, 28]",125.8532535,5288,819,5,23,7,1.1588941745226709
basic,18,44,0,0,0,9,"[0, 11, 24, 9]",4,7,"[4, 7, 8, 12, 14, 20, 23]",93.09657483,5887,599,2,8,7,1.3039383713641313
basic,18,44,0,0,0,4,"[0, 11, 24, 9, 4]",5,5,"[7, 12, 14, 20, 23]",73.39885923,6921,1034,2,3,7,1.2901330701441578
basic,18,44,0,0,0,7,"[0, 11, 24, 9, 4, 7]",6,1,[23],42.38273439,10408,3487,1,0,7,1.2468141312360979
basic,18,44,0,1,0,7,"[0, 11, 24, 9, 4, 7]",6,1,[23],42.38273439,11297,889,1,0,7,1.2468141312360979
basic,19,9,0,0,0,0,[0],1,27,"[1, 3, 4, 5, 6, 7, 8, 9, 10, 11, 13, 14, 15, 16, 17, 18, 19, 20, 21, 22, 23, 24, 25, 26, 27, 28, 29]",300,168,-1,2,182,10,0.0
basic,19,9,0,0,0,23,"[0, 23]",2,26,"[1, 3, 4, 5, 6, 7, 8, 9, 10, 11, 13, 14, 15, 16, 17, 18, 19, 20, 21, 22, 24, 25, 26, 27, 28, 29]",240.4600974,9514,9346,7,160,9,1.0
basic,19,9,0,0,0,8,"[0, 23, 8]",3,23,"[1, 3, 4, 5, 6, 7, 9, 10, 11, 13, 15, 16, 17, 18, 19, 20, 21, 22, 24, 25, 26, 27, 28]",218.9891869,10687,1173,3,53,9,1.2701427074648883
basic,19,9,0,0,0,28,"[0, 23, 8, 28]",4,22,"[1, 3, 4, 5, 6, 7, 9, 10, 11, 13, 15, 16, 17, 18, 19, 20, 21, 22, 24, 25, 26, 27]",208.172533,11462,775,3,39,9,1.2362921532284137
basic,19,9,0,0,0,21,"[0, 23, 8, 28, 21]",5,12,"[9, 10, 15, 16, 17, 18, 19, 20, 22, 25, 26, 27]",155.172533,12793,1331,5,17,8,1.2218355946985338
basic,19,9,0,0,0,20,"[0, 23, 8, 28, 21, 20]",6,9,"[9, 10, 15, 16, 17, 18, 22, 25, 26]",143.0894871,13637,844,4,6,8,1.238938817164562
basic,19,9,0,1,0,20,"[0, 23, 8, 28, 21, 20]",6,9,"[9, 10, 15, 16, 17, 18, 22, 25, 26]",143.0894871,15081,1444,4,6,8,1.238938817164562
basic,20,13,0,0,0,0,[0],1,29,"[1, 2, 3, 4, 5, 6, 7, 8, 9, 10, 11, 12, 13, 14, 15, 16, 17, 18, 19, 20, 21, 22, 23, 24, 25, 26, 27, 28, 29]",300,163,-1,60,2676,11,0.0
basic,20,13,0,0,0,28,"[0, 28]",2,24,"[1, 2, 3, 4, 6, 7, 8, 9, 10, 11, 12, 13, 15, 16, 17, 19, 20, 21, 22, 23, 24, 26, 27, 29]",226.3182519,2959,2796,12,378,10,1.0
basic,20,13,0,0,0,2,"[0, 28, 2]",3,20,"[1, 3, 4, 6, 7, 9, 11, 12, 13, 15, 16, 17, 19, 20, 21, 23, 24, 26, 27, 29]",188.6751915,3912,953,9,174,10,1.0158286399660754
basic,20,13,0,0,0,29,"[0, 28, 2, 29]",4,19,"[1, 3, 4, 6, 7, 9, 11, 12, 13, 15, 16, 17, 19, 20, 21, 23, 24, 26, 27]",176.9704916,4673,761,9,132,10,1.1053279759370194
basic,20,13,0,0,0,7,"[0, 28, 2, 29, 7]",5,18,"[1, 3, 4, 6, 9, 11, 12, 13, 15, 16, 17, 19, 20, 21, 23, 24, 26, 27]",161.706154,5458,785,6,72,10,1.313811244316471
basic,20,13,0,0,0,26,"[0, 28, 2, 29, 7, 26]",6,17,"[1, 3, 4, 6, 9, 11, 12, 13, 15, 16, 17, 19, 20, 21, 23, 24, 27]",151.2658475,6074,616,6,39,10,1.554636901089982
basic,20,13,0,0,0,6,"[0, 28, 2, 29, 7, 26, 6]",7,13,"[1, 3, 4, 11, 13, 15, 16, 17, 19, 20, 23, 24, 27]",131.1660963,6887,813,4,17,10,1.554967005613632
basic,20,13,0,0,0,11,"[0, 28, 2, 29, 7, 26, 6, 11]",8,6,"[1, 13, 15, 16, 17, 23]",112.0611231,7969,1082,3,4,10,1.4733168623367165
basic,20,13,0,1,0,11,"[0, 28, 2, 29, 7, 26, 6, 11]",8,6,"[1, 13, 15, 16, 17, 23]",112.0611231,9748,1779,3,4,10,1.4733168623367165
basic,21,43,0,0,0,0,[0],1,23,"[1, 2, 3, 4, 5, 6, 7, 9, 10, 11, 12, 14, 15, 16, 17, 19, 20, 21, 22, 23, 25, 27, 29]",300,165,-1,16,556,12,0.0
basic,21,43,0,0,0,29,"[0, 29]",2,22,"[1, 2, 3, 4, 5, 6, 7, 9, 10, 11, 12, 14, 15, 16, 17, 19, 20, 21, 22, 23, 25, 27]",277.909278,2572,2407,16,520,12,1.0
basic,21,43,0,0,0,20,"[0, 29, 20]",3,20,"[1, 2, 3, 4, 6, 7, 9, 10, 11, 12, 14, 15, 16, 17, 19, 21, 22, 23, 25, 27]",254.4785289,3898,1326,15,422,12,1.082311746871282
basic,21,43,0,0,0,16,"[0, 29, 20, 16]",4,19,"[1, 2, 3, 4, 6, 7, 9, 10, 11, 12, 14, 15, 17, 19, 21, 22, 23, 25, 27]",231.8511119,4922,1024,15,389,12,1.215201926898219
basic,21,43,0,0,0,15,"[0, 29, 20, 16, 15]",5,14,"[1, 2, 3, 4, 6, 7, 9, 11, 12, 14, 19, 22, 23, 25]",188.5267539,6865,1943,3,109,12,1.3482474915350444
basic,21,43,0,0,0,12,"[0, 29, 20, 16, 15, 12]",6,13,"[1, 2, 3, 4, 6, 7, 9, 11, 14, 19, 22, 23, 25]",169.213546,7820,955,1,49,12,1.3229664037236823
basic,21,43,0,0,0,3,"[0, 29, 20, 16, 15, 12, 3]",7,11,"[1, 4, 6, 7, 9, 11, 14, 19, 22, 23, 25]",156.213546,9305,1485,1,35,12,1.2907201281243643
basic,21,43,0,0,0,22,"[0, 29, 20, 16, 15, 12, 3, 22]",8,9,"[1, 4, 6, 7, 11, 14, 19, 23, 25]",121.5004361,11861,2556,1,18,12,1.4966181986440266
basic,21,43,0,0,0,19,"[0, 29, 20, 16, 15, 12, 3, 22, 19]",9,7,"[1, 4, 6, 7, 11, 14, 25]",100.8849079,12854,993,1,9,12,1.4332617950535695
basic,21,43,0,1,0,19,"[0, 29, 20, 16, 15, 12, 3, 22, 19]",9,7,"[1, 4, 6, 7, 11, 14, 25]",100.8849079,13965,1111,1,9,12,1.4332617950535695
basic,22,1,0,0,0,0,[0],1,26,"[1, 2, 4, 5, 7, 8, 9, 10, 11, 12, 13, 14, 15, 16, 17, 18, 19, 20, 21, 22, 23, 24, 25, 26, 28, 29]",300,162,-1,6,74,7,0.0
basic,22,1,0,0,0,14,"[0, 14]",2,19,"[1, 4, 5, 8, 9, 13, 15, 17, 18, 19, 20, 21, 22, 23, 24, 25, 26, 28, 29]",200.1901808,7405,7243,5,42,7,1.0
basic,22,1,0,0,0,17,"[0, 14, 17]",3,15,"[1, 4, 5, 8, 9, 13, 15, 18, 19, 20, 22, 23, 25, 28, 29]",147.8356204,8720,1315,5,27,7,1.0028844724416826
basic,22,1,0,0,0,1,"[0, 14, 17, 1]",4,12,"[4, 5, 8, 9, 15, 18, 20, 22, 23, 25, 28, 29]",123.4840291,9719,999,5,15,7,1.0264985578353567
basic,22,1,0,0,0,28,"[0, 14, 17, 1, 28]",5,5,"[9, 15, 22, 23, 29]",88.59850198,11570,1851,5,3,7,1.0339861575999345
basic,22,1,0,0,0,15,"[0, 14, 17, 1, 28, 15]",6,3,"[22, 23, 29]",53.37067208,12953,1383,3,0,7,1.055553419196412
basic,22,1,0,1,0,15,"[0, 14, 17, 1, 28, 15]",6,3,"[22, 23, 29]",53.37067208,14014,1061,3,0,7,1.055553419196412
undo,23,20,0,0,0,0,[0],1,21,"[1, 2, 3, 4, 5, 6, 7, 8, 9, 12, 17, 18, 20, 21, 22, 23, 25, 26, 27, 28, 29]",300,200,-1,1,9,9,0.0
undo,23,20,0,0,0,12,"[0, 12]",2,20,"[1, 2, 3, 4, 5, 6, 7, 8, 9, 17, 18, 20, 21, 22, 23, 25, 26, 27, 28, 29]",271.5570747,5208,5008,1,8,9,1.0
undo,23,20,0,0,0,1,"[0, 12, 1]",3,12,"[3, 4, 5, 6, 8, 9, 20, 21, 23, 27, 28, 29]",189.5692707,6591,1383,1,6,9,1.0757997779162911
undo,23,20,0,0,0,5,"[0, 12, 1, 5]",4,10,"[4, 6, 8, 9, 20, 21, 23, 27, 28, 29]",152.8950291,7309,718,1,5,9,1.1708231454516806
undo,23,20,0,0,0,21,"[0, 12, 1, 5, 21]",5,8,"[4, 6, 8, 9, 20, 23, 27, 28]",107.8950291,8494,1185,1,4,9,1.126197336199212
undo,23,20,0,0,0,8,"[0, 12, 1, 5, 21, 8]",6,5,"[6, 9, 23, 27, 28]",90.43077988,10027,1533,1,3,9,1.140007470699913
undo,23,20,0,1,0,8,"[0, 12, 1, 5, 21, 8]",6,5,"[6, 9, 23, 27, 28]",90.43077988,11401,1374,1,3,9,1.140007470699913
undo,24,18,0,0,0,0,[0],1,28,"[1, 2, 3, 4, 5, 6, 7, 8, 9, 10, 11, 12, 13, 14, 16, 17, 18, 19, 20, 21, 22, 23, 24, 25, 26, 27, 28, 29]",300,211,-1,3,136,10,0.0
undo,24,18,0,0,0,28,"[0, 28]",2,16,"[1, 3, 5, 7, 8, 9, 12, 13, 14, 16, 20, 23, 24, 25, 26, 27]",236.4311397,4903,4692,2,19,10,1.0
undo,24,18,0,0,0,7,"[0, 28, 7]",3,15,"[1, 3, 5, 8, 9, 12, 13, 14, 16, 20, 23, 24, 25, 26, 27]",214.4084242,5574,671,2,17,10,1.4345180696367563
undo,24,18,0,0,0,25,"[0, 28, 7, 25]",4,13,"[1, 3, 5, 8, 9, 12, 13, 14, 16, 20, 23, 26, 27]",186.6055466,7793,2219,2,15,10,1.8896451241781882
undo,24,18,0,0,0,13,"[0, 28, 7, 25, 13]",5,10,"[3, 5, 8, 9, 12, 14, 16, 23, 26, 27]",141.3286209,8882,1089,5,21,9,1.6878978848273398
undo,24,18,0,0,0,14,"[0, 28, 7, 25, 13, 14]",6,8,"[3, 5, 8, 9, 12, 23, 26, 27]",122.354955,9658,776,3,7,9,1.584538278883837
undo,24,18,0,0,0,8,"[0, 28, 7, 25, 13, 14, 8]",7,3,"[3, 5, 23]",88.75435972,10856,1198,1,2,9,2.2331853335907565
undo,24,18,0,1,0,8,"[0, 28, 7, 25, 13, 14, 8]",7,3,"[3, 5, 23]",88.75435972,12978,2122,1,2,9,2.2331853335907565
undo,25,12,0,0,0,0,[0],1,29,"[1, 2, 3, 4, 5, 6, 7, 8, 9, 10, 11, 12, 13, 14, 15, 16, 17, 18, 19, 20, 21, 22, 23, 24, 25, 26, 27, 28, 29]",300,163,-1,2,32,9,0.0
undo,25,12,0,0,0,25,"[0, 25]",2,16,"[2, 4, 5, 6, 7, 9, 12, 14, 16, 18, 19, 22, 23, 24, 27, 28]",225.7975742,5940,5777,5,34,8,1.0
undo,25,12,0,0,0,16,"[0, 25, 16]",3,11,"[2, 4, 5, 6, 7, 12, 14, 19, 22, 24, 27]",169.0701557,8204,2264,4,22,8,1.4434159828731936
undo,25,12,0,0,0,4,"[0, 25, 16, 4]",4,6,"[12, 14, 19, 22, 24, 27]",134.864893,9387,1183,2,7,8,1.3220542462647857
undo,25,12,0,0,0,12,"[0, 25, 16, 4, 12]",5,5,"[14, 19, 22, 24, 27]",92.67484678,10573,1186,2,3,8,1.2548348749245275
undo,25,12,0,0,0,27,"[0, 25, 16, 4, 12, 27]",6,2,"[14, 24]",68.32325545,11689,1116,2,0,8,1.3544642483472162
undo,25,12,0,1,0,27,"[0, 25, 16, 4, 12, 27]",6,2,"[14, 24]",68.32325545,12495,806,2,0,8,1.3544642483472162
undo,26,1,0,0,0,0,[0],1,26,"[1, 2, 4, 5, 7, 8, 9, 10, 11, 12, 13, 14, 15, 16, 17, 18, 19, 20, 21, 22, 23, 24, 25, 26, 28, 29]",300,171,-1,6,74,7,0.0
undo,26,1,0,0,0,14,"[0, 14]",2,19,"[1, 4, 5, 8, 9, 13, 15, 17, 18, 19, 20, 21, 22, 23, 24, 25, 26, 28, 29]",200.1901808,2787,2616,5,42,7,1.0
undo,26,1,0,0,0,17,"[0, 14, 17]",3,15,"[1, 4, 5, 8, 9, 13, 15, 18, 19, 20, 22, 23, 25, 28, 29]",147.8356204,4020,1233,5,27,7,1.0028844724416826
undo,26,1,0,0,0,1,"[0, 14, 17, 1]",4,12,"[4, 5, 8, 9, 15, 18, 20, 22, 23, 25, 28, 29]",123.4840291,5009,989,5,15,7,1.0264985578353567
undo,26,1,0,0,0,28,"[0, 14, 17, 1, 28]",5,5,"[9, 15, 22, 23, 29]",88.59850198,6370,1361,5,3,7,1.0339861575999345
undo,26,1,0,0,0,23,"[0, 14, 17, 1, 28, 23]",6,2,"[15, 22]",51.70676849,7659,1289,2,0,7,1.0327458250705703
undo,26,1,0,1,0,23,"[0, 14, 17, 1, 28, 23]",6,2,"[15, 22]",51.70676849,8430,771,2,0,7,1.0327458250705703
undo,27,37,0,0,0,0,[0],1,29,"[1, 2, 3, 4, 5, 6, 7, 8, 9, 10, 11, 12, 13, 14, 15, 16, 17, 18, 19, 20, 21, 22, 23, 24, 25, 26, 27, 28, 29]",300,163,-1,6,168,10,0.0
undo,27,37,0,0,0,17,"[0, 17]",2,23,"[1, 2, 3, 4, 5, 6, 7, 9, 10, 11, 12, 15, 18, 19, 20, 21, 22, 23, 25, 26, 27, 28, 29]",208.7147328,3635,3472,35,171,7,1.0
undo,27,37,0,0,0,10,"[0, 17, 10]",3,21,"[1, 2, 3, 4, 5, 6, 7, 9, 11, 12, 15, 18, 19, 20, 21, 23, 25, 26, 27, 28, 29]",194.1545131,4455,820,14,55,7,1.062446542005504
undo,27,37,0,0,0,6,"[0, 17, 10, 6]",4,18,"[1, 3, 5, 7, 9, 11, 12, 15, 18, 19, 20, 21, 23, 25, 26, 27, 28, 29]",179.836692,5392,937,6,22,7,1.3417904343687392
undo,27,37,0,0,0,28,"[0, 17, 10, 6, 28]",5,4,"[3, 5, 9, 23]",119.1654468,8357,2965,1,3,7,2.5530502742443484
undo,27,37,0,0,0,5,"[0, 17, 10, 6, 28, 5]",6,1,[3],62.84493539,9766,1409,1,0,7,1.9280899561788618
undo,27,37,0,1,0,5,"[0, 17, 10, 6, 28, 5]",6,1,[3],62.84493539,10682,916,1,0,7,1.9280899561788618
undo,28,40,0,0,0,0,[0],1,29,"[1, 2, 3, 4, 5, 6, 7, 8, 9, 10, 11, 12, 13, 14, 15, 16, 17, 18, 19, 20, 21, 22, 23, 24, 25, 26, 27, 28, 29]",300,166,-1,8,191,9,0.0
undo,28,40,0,0,0,1,"[0, 1]",2,18,"[2, 5, 6, 7, 8, 9, 10, 11, 13, 15, 17, 18, 19, 21, 22, 23, 27, 29]",247.8463808,2337,2171,4,80,9,1.0
undo,28,40,0,0,0,6,"[0, 1, 6]",3,17,"[2, 5, 7, 8, 9, 10, 11, 13, 15, 17, 18, 19, 21, 22, 23, 27, 29]",227.7466295,3372,1035,4,74,9,1.0459427008232034
undo,28,40,0,0,0,23,"[0, 1, 6, 23]",4,15,"[2, 5, 7, 8, 9, 10, 11, 13, 17, 18, 19, 21, 22, 27, 29]",158.176521,4381,1009,12,41,8,1.4952830531485621
undo,28,40,0,0,0,5,"[0, 1, 6, 23, 5]",5,10,"[2, 7, 8, 9, 11, 18, 19, 21, 22, 27]",129.8745776,5212,831,5,13,8,1.3833163970446014
undo,28,40,0,0,0,18,"[0, 1, 6, 23, 5, 18]",6,4,"[9, 19, 21, 22]",98.29927079,6303,1091,2,3,8,1.7027374198368375
undo,28,40,0,0,0,9,"[0, 1, 6, 23, 5, 18, 9]",7,2,"[19, 21]",81.74632543,7740,1437,2,0,8,1.769689023954796
undo,28,40,0,1,0,9,"[0, 1, 6, 23, 5, 18, 9]",7,2,"[19, 21]",81.74632543,8647,907,2,0,8,1.769689023954796
undo,29,33,0,0,0,0,[0],1,23,"[1, 2, 5, 7, 8, 11, 12, 13, 14, 15, 16, 17, 18, 19, 20, 21, 23, 24, 25, 26, 27, 28, 29]",300,196,-1,5,108,9,0.0
undo,29,33,0,0,0,8,"[0, 8]",2,22,"[1, 2, 5, 7, 11, 12, 13, 14, 15, 16, 17, 18, 19, 20, 21, 23, 24, 25, 26, 27, 28, 29]",265.8679037,2386,2190,5,87,9,1.0
undo,29,33,0,0,0,21,"[0, 8, 21]",3,16,"[2, 5, 7, 11, 13, 14, 16, 17, 18, 19, 20, 24, 26, 27, 28, 29]",166.0430571,3521,1135,5,80,9,1.0670557763739492
undo,29,33,0,0,0,17,"[0, 8, 21, 17]",4,11,"[2, 7, 11, 13, 14, 16, 19, 20, 24, 26, 29]",127.4036989,4842,1321,1,18,9,1.0830294710276618
undo,29,33,0,0,0,13,"[0, 8, 21, 17, 13]",5,10,"[2, 7, 11, 14, 16, 19, 20, 24, 26, 29]",104.6001904,5687,845,1,10,9,1.2861654105061844
undo,29,33,0,0,0,19,"[0, 8, 21, 17, 13, 19]",6,6,"[7, 14, 16, 24, 26, 29]",79.10509282,7706,2019,1,6,9,1.3181942666818214
undo,29,33,0,1,0,19,"[0, 8, 21, 17, 13, 19]",6,6,"[7, 14, 16, 24, 26, 29]",79.10509282,9732,2026,1,6,9,1.3181942666818214
undo,30,32,0,0,0,0,[0],1,29,"[1, 2, 3, 4, 5, 6, 7, 8, 9, 10, 11, 12, 13, 14, 15, 16, 17, 18, 19, 20, 21, 22, 23, 24, 25, 26, 27, 28, 29]",300,168,-1,17,359,10,0.0
undo,30,32,0,0,0,19,"[0, 19]",2,28,"[1, 2, 3, 4, 5, 6, 7, 8, 9, 10, 11, 12, 13, 14, 15, 16, 17, 18, 20, 21, 22, 23, 24, 25, 26, 27, 28, 29]",283.5075775,2903,2735,16,294,10,1.0
undo,30,32,0,0,0,15,"[0, 19, 15]",3,21,"[2, 3, 5, 7, 8, 9, 10, 11, 12, 13, 14, 16, 17, 20, 22, 23, 24, 25, 26, 27, 28]",197.7987681,4136,1233,2,52,10,1.19699508325577
undo,30,32,0,0,0,28,"[0, 19, 15, 28]",4,19,"[2, 3, 5, 7, 8, 9, 10, 11, 12, 13, 16, 17, 20, 22, 23, 24, 25, 26, 27]",186.3970139,5055,919,2,41,10,1.1739755297768444
undo,30,32,0,0,0,12,"[0, 19, 15, 28, 12]",5,17,"[2, 3, 5, 7, 8, 9, 10, 11, 13, 16, 17, 20, 22, 23, 24, 26, 27]",167.4233479,5985,930,2,25,10,1.177540715424265
undo,30,32,0,0,0,16,"[0, 19, 15, 28, 12, 16]",6,16,"[2, 3, 5, 7, 8, 9, 10, 11, 13, 17, 20, 22, 23, 24, 26, 27]",151.7708721,7288,1303,2,17,10,1.2623133279216439
undo,30,32,0,0,0,22,"[0, 19, 15, 28, 12, 16, 22]",7,10,"[2, 3, 5, 8, 9, 10, 11, 17, 20, 27]",117.9330235,8212,924,2,7,10,1.2893434049314008
undo,30,32,0,0,0,9,"[0, 19, 15, 28, 12, 16, 22, 9]",8,4,"[2, 8, 17, 20]",95.72942015,9823,1611,2,2,10,1.3492394817468627
undo,30,32,0,1,0,9,"[0, 19, 15, 28, 12, 16, 22, 9]",8,4,"[2, 8, 17, 20]",95.72942015,11380,1557,2,2,10,1.3492394817468627
undo,31,13,0,0,0,0,[0],1,29,"[1, 2, 3, 4, 5, 6, 7, 8, 9, 10, 11, 12, 13, 14, 15, 16, 17, 18, 19, 20, 21, 22, 23, 24, 25, 26, 27, 28, 29]",300,161,-1,60,2676,11,0.0
undo,31,13,0,0,0,24,"[0, 24]",2,28,"[1, 2, 3, 4, 5, 6, 7, 8, 9, 10, 11, 12, 13, 14, 15, 16, 17, 18, 19, 20, 21, 22, 23, 25, 26, 27, 28, 29]",288.8196601,2102,1941,16,1444,11,1.0
undo,31,13,0,0,0,23,"[0, 24, 23]",3,27,"[1, 2, 3, 4, 5, 6, 7, 8, 9, 10, 11, 12, 13, 14, 15, 16, 17, 18, 19, 20, 21, 22, 25, 26, 27, 28, 29]",243.1140806,2987,885,2,868,11,1.0065545717039834
undo,31,13,0,0,0,26,"[0, 24, 23, 26]",4,20,"[1, 2, 3, 4, 6, 7, 9, 11, 12, 13, 15, 16, 17, 19, 20, 21, 22, 27, 28, 29]",183.574178,4066,1079,156,611,10,1.2169355597123794
undo,31,13,0,0,0,7,"[0, 24, 23, 26, 7]",5,18,"[1, 2, 3, 4, 6, 9, 11, 12, 13, 15, 16, 17, 19, 20, 21, 27, 28, 29]",173.1338715,4976,910,51,171,10,1.2052462995800861
undo,31,13,0,0,0,29,"[0, 24, 23, 26, 7, 29]",6,17,"[1, 2, 3, 4, 6, 9, 11, 12, 13, 15, 16, 17, 19, 20, 21, 27, 28]",157.869534,6305,1329,17,53,10,1.2769357721237986
undo,31,13,0,0,0,2,"[0, 24, 23, 26, 7, 29, 2]",7,13,"[1, 3, 6, 9, 11, 12, 13, 15, 16, 17, 19, 21, 28]",146.1648341,7468,1163,9,22,10,1.4037317419248252
undo,31,13,0,0,0,28,"[0, 24, 23, 26, 7, 29, 2, 28]",8,8,"[1, 6, 9, 11, 12, 16, 19, 21]",108.5217736,9454,1986,2,6,10,2.5987199189994703
undo,31,13,0,1,0,28,"[0, 24, 23, 26, 7, 29, 2, 28]",8,8,"[1, 6, 9, 11, 12, 16, 19, 21]",108.5217736,12828,3374,2,6,10,2.5987199189994703
undo,32,44,0,0,0,0,[0],1,29,"[1, 2, 3, 4, 5, 6, 7, 8, 9, 10, 11, 12, 13, 14, 15, 16, 17, 18, 19, 20, 21, 22, 23, 24, 25, 26, 27, 28, 29]",300,165,-1,13,126,7,0.0
undo,32,44,0,0,0,8,"[0, 8]",2,17,"[1, 4, 5, 7, 9, 10, 11, 12, 13, 14, 15, 20, 21, 23, 24, 25, 27]",145.7923478,4074,3909,1,10,7,1.0
undo,32,44,0,0,0,20,"[0, 8, 20]",3,16,"[1, 4, 5, 7, 9, 10, 11, 12, 13, 14, 15, 21, 23, 24, 25, 27]",133.7093018,5042,968,1,9,7,1.0890794433668698
undo,32,44,0,0,0,9,"[0, 8, 20, 9]",4,7,"[4, 7, 11, 12, 14, 23, 24]",76.43801756,6185,1143,1,6,7,1.40892325509949
undo,32,44,0,0,0,4,"[0, 8, 20, 9, 4]",5,4,"[7, 12, 23, 24]",56.74030196,7494,1309,1,3,7,1.3849770570803555
undo,32,44,0,1,0,4,"[0, 8, 20, 9, 4]",5,4,"[7, 12, 23, 24]",56.74030196,8446,952,1,3,7,1.3849770570803555
undo,33,30,0,0,0,0,[0],1,19,"[3, 4, 5, 7, 9, 11, 16, 17, 18, 19, 20, 21, 22, 24, 25, 26, 27, 28, 29]",300,166,-1,5,41,8,0.0
undo,33,30,0,0,0,25,"[0, 25]",2,12,"[3, 5, 7, 9, 11, 16, 18, 19, 20, 24, 27, 29]",121.1005869,4256,4090,7,37,7,1.0
undo,33,30,0,0,0,27,"[0, 25, 27]",3,8,"[3, 5, 7, 18, 19, 20, 24, 29]",81.54050603,5354,1098,2,17,7,1.0432445497342653
undo,33,30,0,0,0,3,"[0, 25, 27, 3]",4,5,"[5, 7, 18, 20, 29]",62.43553286,6136,782,2,6,7,1.0419393955972533
undo,33,30,0,0,0,29,"[0, 25, 27, 3, 29]",5,3,"[5, 7, 18]",43.83445762,6906,770,1,2,7,1.0521853644580021
undo,33,30,0,0,0,18,"[0, 25, 27, 3, 29, 18]",6,1,[5],24.5212497,7626,720,1,0,7,1.1278751785159948
undo,33,30,0,1,0,18,"[0, 25, 27, 3, 29, 18]",6,1,[5],24.5212497,8747,1121,1,0,7,1.1278751785159948
undo,34,31,0,0,0,0,[0],1,27,"[1, 3, 4, 5, 6, 7, 8, 10, 11, 12, 13, 14, 15, 16, 17, 18, 19, 20, 21, 22, 23, 24, 25, 26, 27, 28, 29]",300,182,-1,2,87,10,0.0
undo,34,31,0,0,0,27,"[0, 27]",2,26,"[1, 3, 4, 5, 6, 7, 8, 10, 11, 12, 13, 14, 15, 16, 17, 18, 19, 20, 21, 22, 23, 24, 25, 26, 28, 29]",259.5030865,2693,2511,14,191,9,1.0
undo,34,31,0,0,0,8,"[0, 27, 8]",3,23,"[1, 3, 5, 6, 7, 10, 11, 12, 13, 14, 15, 16, 17, 18, 19, 20, 21, 22, 24, 25, 26, 28, 29]",248.4577255,3398,705,9,131,9,1.481736210960148
undo,34,31,0,0,0,18,"[0, 27, 8, 18]",4,19,"[1, 3, 5, 6, 7, 10, 11, 12, 13, 14, 16, 17, 19, 20, 21, 22, 25, 28, 29]",212.6108289,4470,1072,5,65,9,1.3573609555685873
undo,34,31,0,0,0,11,"[0, 27, 8, 18, 11]",5,13,"[1, 5, 7, 12, 13, 14, 16, 17, 19, 20, 22, 25, 28]",177.7253018,5390,920,1,27,9,1.9972701366881676
undo,34,31,0,0,0,5,"[0, 27, 8, 18, 11, 5]",6,9,"[12, 14, 16, 17, 19, 20, 22, 25, 28]",134.0446424,6089,699,6,6,8,1.8917282436808132
undo,34,31,0,0,0,28,"[0, 27, 8, 18, 11, 5, 28]",7,4,"[16, 17, 20, 25]",113.820894,6776,687,4,0,8,1.734546121706079
undo,34,31,0,1,0,28,"[0, 27, 8, 18, 11, 5, 28]",7,4,"[16, 17, 20, 25]",113.820894,7614,838,4,0,8,1.734546121706079
undo,35,27,0,0,0,0,[0],1,26,"[1, 3, 5, 6, 7, 8, 9, 10, 11, 12, 13, 14, 15, 16, 17, 18, 19, 21, 22, 23, 24, 25, 26, 27, 28, 29]",300,166,-1,13,578,11,0.0
undo,35,27,0,0,0,15,"[0, 15]",2,24,"[1, 3, 5, 6, 7, 8, 9, 10, 11, 12, 13, 14, 16, 17, 18, 19, 21, 22, 23, 24, 25, 26, 27, 29]",263.7508621,3543,3377,6,219,11,1.0
undo,35,27,0,0,0,24,"[0, 15, 24]",3,20,"[1, 5, 6, 7, 8, 9, 10, 12, 13, 14, 16, 17, 18, 19, 21, 23, 25, 26, 27, 29]",246.5462115,4564,1021,6,130,11,1.130933077698322
undo,35,27,0,0,0,17,"[0, 15, 24, 17]",4,15,"[1, 6, 8, 10, 12, 13, 14, 16, 18, 19, 23, 25, 26, 27, 29]",229.9932662,5338,774,4,60,11,1.1285538435963374
undo,35,27,0,0,0,12,"[0, 15, 24, 17, 12]",5,14,"[1, 6, 8, 10, 13, 14, 16, 18, 19, 23, 25, 26, 27, 29]",218.8129263,6026,688,2,32,11,1.2561880288755216
undo,35,27,0,0,0,10,"[0, 15, 24, 17, 12, 10]",6,11,"[1, 8, 13, 14, 18, 19, 23, 25, 26, 27, 29]",207.7675653,7138,1112,2,28,11,1.2228289337766665
undo,35,27,0,0,0,13,"[0, 15, 24, 17, 12, 10, 13]",7,9,"[1, 8, 14, 18, 19, 23, 26, 27, 29]",167.9178476,8269,1131,2,18,11,1.3421291994761178
undo,35,27,0,0,0,19,"[0, 15, 24, 17, 12, 10, 13, 19]",8,5,"[1, 8, 14, 23, 29]",131.6825057,9548,1279,2,6,11,1.294749956153846
undo,35,27,0,0,0,8,"[0, 15, 24, 17, 12, 10, 13, 19, 8]",9,3,"[14, 23, 29]",116.816437,10278,730,2,1,11,1.3554286578836865
undo,35,27,0,1,0,8,"[0, 15, 24, 17, 12, 10, 13, 19, 8]",9,3,"[14, 23, 29]",116.816437,11663,1385,2,1,11,1.3554286578836865
undo,36,16,0,0,0,0,[0],1,29,"[1, 2, 3, 4, 5, 6, 7, 8, 9, 10, 11, 12, 13, 14, 15, 16, 17, 18, 19, 20, 21, 22, 23, 24, 25, 26, 27, 28, 29]",300,165,-1,13,161,9,0.0
undo,36,16,0,0,0,17,"[0, 17]",2,27,"[1, 2, 3, 4, 5, 7, 8, 9, 10, 11, 12, 13, 14, 15, 16, 18, 19, 20, 21, 22, 23, 24, 25, 26, 27, 28, 29]",241.3058776,3018,2853,2,58,9,1.0
undo,36,16,0,0,0,16,"[0, 17, 16]",3,26,"[1, 2, 3, 4, 5, 7, 8, 9, 10, 11, 12, 13, 14, 15, 18, 19, 20, 21, 22, 23, 24, 25, 26, 27, 28, 29]",212.9862731,4044,1026,2,52,9,1.0529535521792848
undo,36,16,0,0,0,8,"[0, 17, 16, 8]",4,19,"[2, 3, 4, 5, 9, 12, 13, 14, 15, 19, 20, 21, 22, 23, 25, 26, 27, 28, 29]",164.6127266,5096,1052,2,38,9,1.0915134501573105
undo,36,16,0,0,0,20,"[0, 17, 16, 8, 20]",5,10,"[3, 4, 5, 9, 12, 13, 15, 19, 21, 25]",106.8372993,6025,929,1,15,9,1.067523143001942
undo,36,16,0,0,0,25,"[0, 17, 16, 8, 20, 25]",6,7,"[3, 4, 5, 9, 12, 13, 15]",94.18818869,6603,578,1,9,9,1.1170093326933646
undo,36,16,0,0,0,9,"[0, 17, 16, 8, 20, 25, 9]",7,5,"[3, 4, 5, 13, 15]",81.38194021,7304,701,1,4,9,1.1095076562662525
undo,36,16,0,0,0,15,"[0, 17, 16, 8, 20, 25, 9, 15]",8,1,[5],42.48463953,8638,1334,1,0,9,1.213831159678775
undo,36,16,0,1,0,15,"[0, 17, 16, 8, 20, 25, 9, 15]",8,1,[5],42.48463953,9729,1091,1,0,9,1.213831159678775
undo,37,15,0,0,0,0,[0],1,25,"[1, 2, 3, 4, 7, 8, 9, 10, 11, 12, 13, 14, 15, 16, 18, 20, 21, 22, 23, 24, 25, 26, 27, 28, 29]",300,169,-1,4,65,9,0.0
undo,37,15,0,0,0,7,"[0, 7]",2,23,"[1, 3, 4, 8, 9, 10, 11, 12, 13, 14, 15, 16, 18, 20, 21, 22, 23, 24, 25, 26, 27, 28, 29]",215.1884442,3174,3005,30,107,8,1.0
undo,37,15,0,0,0,11,"[0, 7, 11]",3,18,"[3, 4, 8, 9, 10, 12, 13, 14, 15, 16, 18, 20, 21, 22, 23, 25, 27, 29]",173.7035072,4827,1653,12,34,8,1.0171318876095128
undo,37,15,0,0,0,3,"[0, 7, 11, 3]",4,13,"[4, 10, 12, 13, 14, 15, 16, 18, 20, 21, 22, 25, 27]",162.3017529,5772,945,7,21,8,1.0401878806820521
undo,37,15,0,0,0,22,"[0, 7, 11, 3, 22]",5,8,"[4, 10, 13, 14, 15, 16, 18, 25]",112.5724859,6672,900,2,7,8,1.08637659765556
undo,37,15,0,0,0,13,"[0, 7, 11, 3, 22, 13]",6,4,"[14, 15, 18, 25]",84.41223019,7425,753,1,3,8,1.07611101267101
undo,37,15,0,0,0,15,"[0, 7, 11, 3, 22, 13, 15]",7,1,[14],69.14789267,7971,546,1,0,8,1.175539361450856
undo,37,15,0,1,0,15,"[0, 7, 11, 3, 22, 13, 15]",7,1,[14],69.14789267,8814,843,1,0,8,1.175539361450856
undo,38,2,0,0,0,0,[0],1,23,"[1, 2, 4, 5, 6, 7, 8, 9, 12, 13, 15, 16, 17, 18, 19, 20, 22, 23, 25, 26, 27, 28, 29]",300,168,-1,70,620,10,0.0
undo,38,2,0,0,0,12,"[0, 12]",2,19,"[1, 2, 4, 5, 6, 7, 13, 15, 16, 17, 18, 19, 20, 22, 25, 26, 27, 28, 29]",186.8275652,2247,2079,3,169,10,1.0
undo,38,2,0,0,0,5,"[0, 12, 5]",3,14,"[1, 4, 6, 7, 13, 15, 16, 18, 19, 22, 25, 26, 28, 29]",157.2979191,3133,886,2,88,10,1.0082498134695237
undo,38,2,0,0,0,22,"[0, 12, 5, 22]",4,11,"[1, 6, 7, 13, 15, 18, 19, 25, 26, 28, 29]",144.4916706,5157,2024,1,45,10,1.0077567572950326
undo,38,2,0,0,0,13,"[0, 12, 5, 22, 13]",5,9,"[1, 6, 7, 15, 18, 19, 25, 26, 29]",129.6256019,5786,629,1,39,10,1.151783231594989
undo,38,2,0,0,0,18,"[0, 12, 5, 22, 13, 18]",6,4,"[7, 15, 26, 29]",94.45459106,6692,906,1,14,10,1.1431544953850095
undo,38,2,0,0,0,7,"[0, 12, 5, 22, 13, 18, 7]",7,3,"[15, 26, 29]",84.15896092,7302,610,1,4,10,1.1360054688421053
undo,38,2,0,0,0,26,"[0, 12, 5, 22, 13, 18, 7, 26]",8,2,"[15, 29]",61.35545242,8172,870,1,1,10,1.1290531198668372
undo,38,2,0,1,0,26,"[0, 12, 5, 22, 13, 18, 7, 26]",8,2,"[15, 29]",61.35545242,10547,2375,1,1,10,1.1290531198668372
undo,39,41,0,0,0,0,[0],1,29,"[1, 2, 3, 4, 5, 6, 7, 8, 9, 10, 11, 12, 13, 14, 15, 16, 17, 18, 19, 20, 21, 22, 23, 24, 25, 26, 27, 28, 29]",300,168,-1,1,143,10,0.0
undo,39,41,0,0,0,5,"[0, 5]",2,27,"[1, 2, 3, 6, 7, 8, 9, 10, 11, 12, 13, 14, 15, 16, 17, 18, 19, 20, 21, 22, 23, 24, 25, 26, 27, 28, 29]",268.6152903,12604,12436,38,328,9,1.0
undo,39,41,0,0,0,28,"[0, 5, 28]",3,25,"[1, 2, 3, 6, 7, 8, 9, 10, 11, 12, 13, 14, 15, 16, 17, 18, 19, 20, 21, 22, 23, 24, 25, 26, 27]",255.0138198,13706,1102,28,163,9,1.1190730586122064
undo,39,41,0,0,0,13,"[0, 5, 28, 13]",4,18,"[1, 2, 3, 6, 9, 10, 12, 14, 15, 17, 18, 20, 21, 22, 24, 25, 26, 27]",220.5319405,15020,1314,7,37,9,1.904553701589307
undo,39,41,1,0,0,28,"[0, 5, 28]",3,25,"[1, 2, 3, 6, 7, 8, 9, 10, 11, 12, 13, 14, 15, 16, 17, 18, 19, 20, 21, 22, 23, 24, 25, 26, 27]",255.0138198,18232,3212,28,163,9,1.1190730586122064
undo,39,41,1,0,0,5,"[0, 5]",2,27,"[1, 2, 3, 6, 7, 8, 9, 10, 11, 12, 13, 14, 15, 16, 17, 18, 19, 20, 21, 22, 23, 24, 25, 26, 27, 28, 29]",268.6152903,18665,433,38,328,9,1.0
undo,39,41,1,0,0,0,[0],1,29,"[1, 2, 3, 4, 5, 6, 7, 8, 9, 10, 11, 12, 13, 14, 15, 16, 17, 18, 19, 20, 21, 22, 23, 24, 25, 26, 27, 28, 29]",300,19231,566,1,143,10,0.0
undo,39,41,0,0,0,21,"[0, 21]",2,28,"[1, 2, 3, 4, 5, 6, 7, 8, 9, 10, 11, 12, 13, 14, 15, 16, 17, 18, 19, 20, 22, 23, 24, 25, 26, 27, 28, 29]",251.1226024,22431,3200,50,469,8,1.0
undo,39,41,0,0,0,3,"[0, 21, 3]",3,26,"[1, 2, 5, 6, 7, 8, 9, 10, 11, 12, 13, 14, 15, 16, 17, 18, 19, 20, 22, 23, 24, 25, 26, 27, 28, 29]",218.982285,24006,1575,16,151,8,2.044702670024013
undo,39,41,0,0,0,22,"[0, 21, 3, 22]",4,20,"[2, 5, 6, 7, 8, 9, 10, 11, 12, 13, 14, 16, 17, 18, 19, 20, 23, 25, 27, 28]",189.0156369,25394,1388,4,36,8,1.609314302987968
undo,39,41,0,0,0,5,"[0, 21, 3, 22, 5]",5,9,"[2, 9, 10, 13, 17, 18, 20, 27, 28]",134.2707741,26149,755,3,11,8,5.280572219167241
undo,39,41,0,0,0,28,"[0, 21, 3, 22, 5, 28]",6,5,"[9, 13, 17, 18, 20]",120.6693036,26844,695,2,3,8,4.4610178066064154
undo,39,41,0,0,0,13,"[0, 21, 3, 22, 5, 28, 13]",7,1,[20],86.18742429,28928,2084,1,0,8,5.124291886287024
undo,39,41,0,1,0,13,"[0, 21, 3, 22, 5, 28, 13]",7,1,[20],86.18742429,29783,855,1,0,8,5.124291886287024
undo,40,10,0,0,0,0,[0],1,29,"[1, 2, 3, 4, 5, 6, 7, 8, 9, 10, 11, 12, 13, 14, 15, 16, 17, 18, 19, 20, 21, 22, 23, 24, 25, 26, 27, 28, 29]",300,168,-1,1,100,9,0.0
undo,40,10,0,0,0,13,"[0, 13]",2,25,"[1, 2, 3, 4, 6, 7, 8, 9, 10, 11, 12, 14, 17, 18, 19, 20, 21, 22, 23, 24, 25, 26, 27, 28, 29]",249.4628849,2187,2019,1,79,9,1.0
undo,40,10,0,0,0,11,"[0, 13, 11]",3,20,"[1, 2, 3, 6, 7, 8, 9, 10, 12, 14, 18, 19, 20, 21, 22, 24, 26, 27, 28, 29]",206.4512586,3204,1017,1,54,9,1.0313137484914219
undo,40,10,0,0,0,19,"[0, 13, 11, 19]",4,11,"[2, 6, 8, 9, 10, 14, 18, 20, 24, 26, 27]",170.0919407,4024,820,1,22,9,1.0879446220132545
undo,40,10,0,0,0,26,"[0, 13, 11, 19, 26]",5,8,"[2, 6, 9, 10, 14, 18, 20, 27]",141.7723361,5236,1212,10,10,8,1.1947240924037068
undo,40,10,0,0,0,2,"[0, 13, 11, 19, 26, 2]",6,2,"[14, 20]",97.38765411,6487,1251,1,1,8,1.2411300713152669
undo,40,10,0,0,0,14,"[0, 13, 11, 19, 26, 2, 14]",7,1,[20],85.22212905,7326,839,1,0,8,1.3429388615071587
undo,40,10,0,1,0,14,"[0, 13, 11, 19, 26, 2, 14]",7,1,[20],85.22212905,9597,2271,1,0,8,1.3429388615071587
undo,41,17,0,0,0,0,[0],1,28,"[1, 2, 3, 4, 5, 6, 7, 8, 9, 10, 11, 12, 13, 14, 15, 16, 17, 18, 19, 20, 22, 23, 24, 25, 26, 27, 28, 29]",300,167,-1,2,73,8,0.0
undo,41,17,0,0,0,9,"[0, 9]",2,25,"[1, 2, 3, 5, 6, 7, 8, 10, 11, 12, 14, 15, 16, 17, 18, 19, 20, 22, 23, 24, 25, 26, 27, 28, 29]",210.5293344,2087,1920,1,34,8,1.0
undo,41,17,0,0,0,16,"[0, 9, 16]",3,21,"[1, 2, 3, 5, 7, 8, 10, 11, 12, 14, 17, 18, 19, 20, 22, 23, 25, 26, 27, 28, 29]",197.1876704,2762,675,1,26,8,1.173103464220352
undo,41,17,0,0,0,2,"[0, 9, 16, 2]",4,18,"[1, 3, 5, 7, 8, 10, 11, 12, 14, 17, 18, 19, 23, 25, 26, 27, 28, 29]",181.0631549,3742,980,1,23,8,1.14825089247282
undo,41,17,0,0,0,17,"[0, 9, 16, 2, 17]",5,7,"[7, 8, 12, 14, 26, 27, 29]",142.7356191,4595,853,4,5,7,1.4896040699768547
undo,41,17,0,0,0,8,"[0, 9, 16, 2, 17, 8]",6,3,"[7, 12, 27]",104.5256727,5605,1010,3,0,7,1.4604726966175894
undo,41,17,0,1,0,8,"[0, 9, 16, 2, 17, 8]",6,3,"[7, 12, 27]",104.5256727,6849,1244,3,0,7,1.4604726966175894
undo,42,26,0,0,0,0,[0],1,29,"[1, 2, 3, 4, 5, 6, 7, 8, 9, 10, 11, 12, 13, 14, 15, 16, 17, 18, 19, 20, 21, 22, 23, 24, 25, 26, 27, 28, 29]",300,168,-1,9,226,9,0.0
undo,42,26,0,0,0,21,"[0, 21]",2,25,"[2, 3, 4, 5, 6, 7, 8, 10, 11, 12, 13, 14, 15, 16, 17, 18, 19, 22, 23, 24, 25, 26, 27, 28, 29]",211.1349337,2537,2369,7,90,9,1.0
undo,42,26,0,0,0,13,"[0, 21, 13]",3,21,"[3, 4, 5, 6, 7, 8, 10, 11, 12, 14, 15, 16, 17, 18, 19, 22, 23, 24, 25, 26, 29]",188.9989901,4043,1506,6,45,9,1.0103952279992225
undo,42,26,0,0,0,16,"[0, 21, 13, 16]",4,8,"[4, 5, 6, 10, 14, 17, 23, 29]",119.9700107,5214,1171,3,23,9,1.608180021563306
undo,42,26,0,0,0,29,"[0, 21, 13, 16, 29]",5,6,"[4, 6, 10, 14, 17, 23]",95.76257383,6109,895,3,20,9,1.6714963205667543
undo,42,26,0,0,0,4,"[0, 21, 13, 16, 29, 4]",6,4,"[6, 10, 14, 17]",71.76257383,7022,913,3,6,9,1.8831111863826637
undo,42,26,0,0,0,17,"[0, 21, 13, 16, 29, 4, 17]",7,3,"[6, 10, 14]",50.66755072,8275,1253,3,1,9,1.7547748416418751
undo,42,26,0,1,0,17,"[0, 21, 13, 16, 29, 4, 17]",7,3,"[6, 10, 14]",50.66755072,9181,906,3,1,9,1.7547748416418751
undo,43,14,0,0,0,0,[0],1,29,"[1, 2, 3, 4, 5, 6, 7, 8, 9, 10, 11, 12, 13, 14, 15, 16, 17, 18, 19, 20, 21, 22, 23, 24, 25, 26, 27, 28, 29]",300,166,-1,8,157,10,0.0
undo,43,14,0,0,0,15,"[0, 15]",2,20,"[1, 2, 3, 4, 7, 8, 9, 13, 17, 18, 19, 20, 21, 22, 23, 25, 26, 27, 28, 29]",216.7053423,2836,2670,8,102,10,1.0
undo,43,14,0,0,0,18,"[0, 15, 18]",3,13,"[1, 2, 4, 7, 8, 13, 17, 19, 20, 23, 25, 26, 28]",153.6418822,4473,1637,26,101,9,1.2185936334127205
undo,43,14,0,0,0,8,"[0, 15, 18, 8]",4,10,"[1, 2, 4, 7, 17, 19, 23, 25, 26, 28]",140.0404117,4951,478,26,60,9,1.2207454945880838
undo,43,14,0,0,0,1,"[0, 15, 18, 8, 1]",5,9,"[2, 4, 7, 17, 19, 23, 25, 26, 28]",116.4395643,5691,740,13,25,9,1.1871302560279655
undo,43,14,0,0,0,19,"[0, 15, 18, 8, 1, 19]",6,7,"[2, 4, 7, 17, 23, 25, 26]",101.208018,6703,1012,11,8,9,1.3443864386012363
undo,43,14,0,0,0,23,"[0, 15, 18, 8, 1, 19, 23]",7,4,"[4, 7, 25, 26]",56.9361308,7928,1225,4,1,9,1.293094159713875
undo,43,14,0,0,0,26,"[0, 15, 18, 8, 1, 19, 23, 26]",8,2,"[7, 25]",46.11947697,8591,663,2,0,9,1.2796488356473856
undo,43,14,0,1,0,26,"[0, 15, 18, 8, 1, 19, 23, 26]",8,2,"[7, 25]",46.11947697,9414,823,2,0,9,1.2796488356473856
undo,44,35,0,0,0,0,[0],1,29,"[1, 2, 3, 4, 5, 6, 7, 8, 9, 10, 11, 12, 13, 14, 15, 16, 17, 18, 19, 20, 21, 22, 23, 24, 25, 26, 27, 28, 29]",300,169,-1,5,236,11,0.0
undo,44,35,0,0,0,24,"[0, 24]",2,27,"[1, 2, 4, 5, 6, 7, 8, 9, 10, 11, 12, 13, 14, 15, 16, 17, 18, 19, 20, 21, 22, 23, 25, 26, 27, 28, 29]",268.9838752,2137,1968,49,512,10,1.0
undo,44,35,0,0,0,17,"[0, 24, 17]",3,26,"[1, 2, 4, 5, 6, 7, 8, 9, 10, 11, 12, 13, 14, 15, 16, 18, 19, 20, 21, 22, 23, 25, 26, 27, 28, 29]",257.2791753,2886,749,33,238,10,1.0771477201815276
undo,44,35,0,0,0,1,"[0, 24, 17, 1]",4,25,"[2, 4, 5, 6, 7, 8, 9, 10, 11, 12, 13, 14, 15, 16, 18, 19, 20, 21, 22, 23, 25, 26, 27, 28, 29]",241.4677869,3592,706,26,151,10,1.2244804141479215
undo,44,35,0,0,0,15,"[0, 24, 17, 1, 15]",5,23,"[2, 4, 5, 6, 7, 8, 9, 10, 11, 12, 14, 16, 18, 19, 20, 21, 22, 23, 25, 26, 27, 28, 29]",218.6204676,4841,1249,26,78,10,1.4642196672428094
undo,44,35,0,0,0,23,"[0, 24, 17, 1, 15, 23]",6,11,"[4, 5, 6, 9, 18, 19, 25, 26, 27, 28, 29]",158.1804147,5943,1102,15,12,10,1.3338903684702363
undo,44,35,0,0,0,6,"[0, 24, 17, 1, 15, 23, 6]",7,4,"[5, 9, 18, 25]",112.5295658,6859,916,4,2,10,1.2397059724630664
undo,44,35,0,0,0,25,"[0, 24, 17, 1, 15, 23, 6, 25]",8,2,"[9, 18]",88.50874155,7831,972,2,0,10,1.305974427386027
undo,44,35,0,0,0,18,"[0, 24, 17, 1, 15, 23, 6, 25, 18]",9,1,[9],54.67089291,8875,1044,1,0,10,1.9072277988119046
undo,44,35,0,1,0,18,"[0, 24, 17, 1, 15, 23, 6, 25, 18]",9,1,[9],54.67089291,9847,972,1,0,10,1.9072277988119046
undo,45,29,0,0,0,0,[0],1,29,"[1, 2, 3, 4, 5, 6, 7, 8, 9, 10, 11, 12, 13, 14, 15, 16, 17, 18, 19, 20, 21, 22, 23, 24, 25, 26, 27, 28, 29]",300,246,-1,1,78,9,0.0
undo,45,29,0,0,0,14,"[0, 14]",2,22,"[1, 3, 4, 5, 6, 7, 9, 10, 11, 12, 13, 15, 16, 17, 21, 22, 23, 25, 26, 27, 28, 29]",209.490332,3154,2908,21,110,8,1.0
undo,45,29,0,0,0,13,"[0, 14, 13]",3,18,"[1, 4, 5, 6, 7, 9, 10, 12, 15, 16, 17, 21, 22, 25, 26, 27, 28, 29]",191.4625756,4569,1415,20,75,8,1.0027006502223275
undo,45,29,0,0,0,5,"[0, 14, 13, 5]",4,15,"[1, 4, 6, 7, 9, 12, 15, 17, 21, 22, 25, 26, 27, 28, 29]",165.7526554,5470,901,19,49,8,1.0803937325657265
undo,45,29,0,0,0,12,"[0, 14, 13, 5, 12]",5,9,"[4, 7, 9, 21, 22, 26, 27, 28, 29]",102.625799,7044,1574,3,9,8,1.2785008715993642
undo,45,29,0,0,0,7,"[0, 14, 13, 5, 12, 7]",6,5,"[4, 9, 21, 22, 27]",89.02432845,7886,842,2,3,8,1.2829121385224997
undo,45,29,0,0,0,9,"[0, 14, 13, 5, 12, 7, 9]",7,1,[4],59.95544474,8936,1050,1,0,8,1.271501624179675
undo,45,29,0,1,0,9,"[0, 14, 13, 5, 12, 7, 9]",7,1,[4],59.95544474,10680,1744,1,0,8,1.271501624179675
undo,46,42,0,0,0,0,[0],1,29,"[1, 2, 3, 4, 5, 6, 7, 8, 9, 10, 11, 12, 13, 14, 15, 16, 17, 18, 19, 20, 21, 22, 23, 24, 25, 26, 27, 28, 29]",300,193,-1,16,302,9,0.0
undo,46,42,0,0,0,3,"[0, 3]",2,25,"[1, 2, 4, 5, 6, 7, 8, 9, 10, 11, 13, 15, 17, 18, 19, 20, 21, 22, 23, 24, 25, 26, 27, 28, 29]",255.7959278,8804,8611,3,45,9,1.0
undo,46,42,0,0,0,23,"[0, 3, 23]",3,15,"[1, 2, 4, 5, 6, 7, 8, 9, 11, 15, 17, 22, 24, 25, 29]",202.4573864,10185,1381,1,24,8,1.2042297975308642
undo,46,42,0,0,0,17,"[0, 3, 23, 17]",4,11,"[4, 5, 6, 8, 9, 11, 15, 22, 24, 25, 29]",191.2770465,10879,694,1,14,8,1.192958341617778
undo,46,42,0,0,0,11,"[0, 3, 23, 17, 11]",5,7,"[4, 6, 8, 15, 22, 24, 25]",140.0813435,11795,916,1,7,8,1.7422648616902974
undo,46,42,0,0,0,24,"[0, 3, 23, 17, 11, 24]",6,2,"[6, 15]",82.0727235,13980,2185,1,1,8,1.6631309430247303
undo,46,42,0,0,0,15,"[0, 3, 23, 17, 11, 24, 15]",7,1,[6],68.47125299,15042,1062,1,0,8,1.6008668931493675
undo,46,42,0,1,0,15,"[0, 3, 23, 17, 11, 24, 15]",7,1,[6],68.47125299,16085,1043,1,0,8,1.6008668931493675
undo,47,11,0,0,0,0,[0],1,25,"[1, 2, 3, 4, 5, 6, 8, 9, 10, 11, 12, 13, 14, 15, 16, 17, 18, 19, 20, 22, 23, 25, 26, 27, 28]",300,245,-1,6,374,12,0.0
undo,47,11,0,0,0,17,"[0, 17]",2,18,"[1, 2, 4, 5, 6, 8, 10, 11, 12, 15, 18, 19, 22, 23, 25, 26, 27, 28]",152.9217895,2769,2524,218,762,9,1.0
undo,47,11,0,0,0,8,"[0, 17, 8]",3,15,"[1, 2, 4, 5, 6, 11, 12, 15, 18, 19, 22, 23, 25, 27, 28]",138.6039684,3770,1001,95,263,9,1.1114912532636003
undo,47,11,0,0,0,15,"[0, 17, 8, 15]",4,11,"[2, 5, 6, 11, 12, 18, 19, 22, 25, 27, 28]",125.1503444,4669,899,62,51,9,1.1146194627724886
undo,47,11,0,0,0,11,"[0, 17, 8, 15, 11]",5,9,"[2, 5, 6, 12, 19, 22, 25, 27, 28]",107.0395741,5300,631,24,2,9,1.1130192047684102
undo,47,11,0,0,0,28,"[0, 17, 8, 15, 11, 28]",6,4,"[2, 5, 19, 22]",87.62308629,6102,802,6,2,9,1.2290091933070886
undo,47,11,0,0,0,2,"[0, 17, 8, 15, 11, 28, 2]",7,3,"[5, 19, 22]",76.99294047,7336,1234,2,1,9,1.2494226000258029
undo,47,11,0,0,0,22,"[0, 17, 8, 15, 11, 28, 2, 22]",8,1,[5],66.94306485,9040,1704,1,0,9,1.2361545496649002
undo,47,11,0,1,0,22,"[0, 17, 8, 15, 11, 28, 2, 22]",8,1,[5],66.94306485,10129,1089,1,0,9,1.2361545496649002
undo,48,23,0,0,0,0,[0],1,28,"[1, 2, 3, 4, 5, 6, 7, 8, 9, 10, 11, 12, 13, 14, 15, 16, 17, 18, 19, 20, 21, 22, 23, 25, 26, 27, 28, 29]",300,166,-1,76,2626,10,0.0
undo,48,23,0,0,0,13,"[0, 13]",2,19,"[1, 2, 3, 5, 6, 7, 8, 9, 10, 12, 14, 17, 18, 19, 21, 22, 23, 27, 29]",189.3202819,2774,2608,9,168,10,1.0
undo,48,23,0,0,0,12,"[0, 13, 12]",3,16,"[1, 2, 3, 6, 7, 8, 9, 10, 14, 17, 18, 21, 22, 23, 27, 29]",177.2372359,3618,844,9,96,10,1.0014195490503164
undo,48,23,0,0,0,27,"[0, 13, 12, 27]",4,8,"[2, 6, 7, 9, 14, 18, 22, 29]",136.4450798,5794,2176,9,47,9,1.1423171128985576
undo,48,23,0,0,0,6,"[0, 13, 12, 27, 6]",5,7,"[2, 7, 9, 14, 18, 22, 29]",108.1431364,7291,1497,8,17,9,1.2769758961851159
undo,48,23,0,0,0,2,"[0, 13, 12, 27, 6, 2]",6,5,"[7, 9, 14, 22, 29]",89.7040475,8355,1064,6,5,9,1.5410950091689495
undo,48,23,0,0,0,9,"[0, 13, 12, 27, 6, 2, 9]",7,4,"[7, 14, 22, 29]",76.66564269,9087,732,3,2,9,1.709430702885355
undo,48,23,0,0,0,14,"[0, 13, 12, 27, 6, 2, 9, 14]",8,2,"[22, 29]",66.22533618,10188,1101,2,0,9,1.659270475552586
undo,48,23,0,1,0,14,"[0, 13, 12, 27, 6, 2, 9, 14]",8,2,"[22, 29]",66.22533618,11164,976,2,0,9,1.659270475552586
undo,49,36,0,0,0,0,[0],1,24,"[2, 4, 5, 6, 7, 8, 9, 10, 12, 13, 14, 15, 16, 17, 18, 19, 20, 22, 23, 25, 26, 27, 28, 29]",300,179,-1,2,200,10,0.0
undo,49,36,0,0,0,12,"[0, 12]",2,23,"[2, 4, 5, 6, 7, 8, 9, 10, 13, 14, 15, 16, 17, 18, 19, 20, 22, 23, 25, 26, 27, 28, 29]",277.7963967,2587,2408,90,804,9,1.0
undo,49,36,0,0,0,9,"[0, 12, 9]",3,14,"[2, 4, 8, 10, 13, 16, 17, 18, 19, 23, 25, 27, 28, 29]",215.4345494,3577,990,32,191,9,1.224429481246385
undo,49,36,0,0,0,17,"[0, 12, 9, 17]",4,11,"[2, 4, 8, 10, 13, 16, 18, 19, 23, 25, 27]",189.1857399,4744,1167,8,54,9,1.1724571624470872
undo,49,36,0,0,0,19,"[0, 12, 9, 17, 19]",5,8,"[2, 4, 10, 13, 16, 18, 23, 25]",161.2930885,5625,881,3,14,9,1.7995682634090462
undo,49,36,0,0,0,2,"[0, 12, 9, 17, 19, 2]",6,4,"[10, 13, 16, 25]",124.1716661,6671,1046,2,3,9,1.5569787348204112
undo,49,36,0,0,0,25,"[0, 12, 9, 17, 19, 2, 25]",7,3,"[10, 13, 16]",99.17166613,7769,1098,1,2,9,1.7541097756555504
undo,49,36,0,0,0,13,"[0, 12, 9, 17, 19, 2, 25, 13]",8,1,[10],78.58040585,8775,1006,1,0,9,2.257503926583423
undo,49,36,0,1,0,13,"[0, 12, 9, 17, 19, 2, 25, 13]",8,1,[10],78.58040585,9746,971,1,0,9,2.257503926583423
undo,50,9,0,0,0,0,[0],1,27,"[1, 3, 4, 5, 6, 7, 8, 9, 10, 11, 13, 14, 15, 16, 17, 18, 19, 20, 21, 22, 23, 24, 25, 26, 27, 28, 29]",300,181,-1,2,182,10,0.0
undo,50,9,0,0,0,9,"[0, 9]",2,26,"[1, 3, 4, 5, 6, 7, 8, 10, 11, 13, 14, 15, 16, 17, 18, 19, 20, 21, 22, 23, 24, 25, 26, 27, 28, 29]",225.5352432,2802,2621,2,101,9,1.0
undo,50,9,0,0,0,23,"[0, 9, 23]",3,22,"[1, 3, 4, 5, 7, 8, 10, 11, 13, 15, 16, 17, 18, 19, 20, 21, 22, 24, 25, 26, 27, 28]",203.1745635,4004,1202,2,70,9,1.6262276606762436
undo,50,9,0,0,0,8,"[0, 9, 23, 8]",4,18,"[3, 4, 5, 7, 10, 11, 15, 16, 17, 18, 19, 20, 21, 22, 25, 26, 27, 28]",181.7036529,4839,835,1,36,9,1.8547307061753238
undo,50,9,0,0,0,28,"[0, 9, 23, 8, 28]",5,17,"[3, 4, 5, 7, 10, 11, 15, 16, 17, 18, 19, 20, 21, 22, 25, 26, 27]",170.8869991,6379,1540,1,23,9,1.7382749966569708
undo,50,9,0,0,0,26,"[0, 9, 23, 8, 28, 26]",6,10,"[3, 5, 10, 15, 16, 18, 19, 20, 21, 25]",126.1097727,8942,2563,4,7,8,1.4884719959249546
undo,50,9,0,0,0,21,"[0, 9, 23, 8, 28, 26, 21]",7,1,[20],72.20244484,9726,784,1,0,8,1.9218119811471304
undo,50,9,0,0,1,20,"[0, 9, 23, 8, 28, 26, 21, 20]",8,0,[],60.11939886,10450,724,1,0,8,1.8940565724013747
undo,50,9,0,1,1,20,"[0, 9, 23, 8, 28, 26, 21, 20]",8,0,[],60.11939886,11948,1498,1,0,8,1.8940565724013747
undo,51,25,0,0,0,0,[0],1,28,"[1, 2, 3, 4, 5, 7, 8, 9, 10, 11, 12, 13, 14, 15, 16, 17, 18, 19, 20, 21, 22, 23, 24, 25, 26, 27, 28, 29]",300,229,-1,5,94,10,0.0
undo,51,25,0,0,0,23,"[0, 23]",2,23,"[1, 2, 3, 5, 7, 8, 9, 11, 12, 13, 14, 16, 17, 19, 20, 21, 22, 24, 25, 26, 27, 28, 29]",259.7756293,3422,3193,3,33,10,1.0
undo,51,25,0,0,0,19,"[0, 23, 19]",3,21,"[1, 2, 3, 5, 7, 8, 9, 11, 12, 13, 14, 16, 17, 20, 21, 22, 24, 25, 27, 28, 29]",223.9287326,6119,2697,3,24,10,1.583101227007039
undo,51,25,0,0,0,29,"[0, 23, 19, 29]",4,19,"[1, 2, 3, 5, 7, 8, 9, 11, 12, 13, 14, 16, 17, 20, 21, 22, 24, 25, 28]",207.649912,6970,851,3,17,10,1.474631541426484
undo,51,25,0,0,0,22,"[0, 23, 19, 29, 22]",5,18,"[1, 2, 3, 5, 7, 8, 9, 11, 12, 13, 14, 16, 17, 20, 21, 24, 25, 28]",191.5253965,7911,941,3,14,10,1.4020377754906637
undo,51,25,0,0,0,1,"[0, 23, 19, 29, 22, 1]",6,3,"[5, 20, 21]",107.7996538,8746,835,2,1,8,6.190356330063188
undo,51,25,0,0,0,21,"[0, 23, 19, 29, 22, 1, 21]",7,1,[20],79.35672846,9954,1208,1,0,8,4.394447349021464
undo,51,25,0,1,0,21,"[0, 23, 19, 29, 22, 1, 21]",7,1,[20],79.35672846,10930,976,1,0,8,4.394447349021464
undo,52,34,0,0,0,0,[0],1,25,"[1, 3, 4, 5, 6, 7, 8, 9, 10, 11, 12, 13, 15, 18, 19, 20, 21, 22, 23, 24, 25, 26, 27, 28, 29]",300,196,-1,12,367,10,0.0
undo,52,34,0,0,0,13,"[0, 13]",2,24,"[1, 3, 4, 5, 6, 7, 8, 9, 10, 11, 12, 15, 18, 19, 20, 21, 22, 23, 24, 25, 26, 27, 28, 29]",279.9750156,2664,2468,12,331,10,1.0
undo,52,34,0,0,0,1,"[0, 13, 1]",3,16,"[3, 5, 7, 8, 9, 10, 11, 12, 19, 21, 22, 23, 24, 25, 27, 29]",211.8574701,3556,892,3,92,10,1.0010381285747127
undo,52,34,0,0,0,8,"[0, 13, 1, 8]",4,14,"[3, 5, 7, 9, 10, 11, 12, 19, 22, 23, 24, 25, 27, 29]",201.0871405,4248,692,2,54,10,1.1636807
undo,52,34,0,0,0,25,"[0, 13, 1, 8, 25]",5,12,"[3, 5, 7, 9, 10, 11, 12, 22, 23, 24, 27, 29]",183.999133,5108,860,2,28,10,1.1396208815936457
undo,52,34,0,0,0,24,"[0, 13, 1, 8, 25, 24]",6,11,"[3, 5, 7, 9, 10, 11, 12, 22, 23, 27, 29]",166.5062774,6008,900,2,23,10,1.374180768736554
undo,52,34,0,0,0,12,"[0, 13, 1, 8, 25, 24, 12]",7,7,"[7, 9, 10, 11, 22, 23, 27]",115.4670767,7103,1095,1,8,10,1.4994254760835948
undo,52,34,0,0,0,7,"[0, 13, 1, 8, 25, 24, 12, 7]",8,5,"[9, 11, 22, 23, 27]",100.4337804,7868,765,1,4,10,1.758992610425009
undo,52,34,0,0,0,23,"[0, 13, 1, 8, 25, 24, 12, 7, 23]",9,1,[27],72.27352467,9086,1218,1,0,10,2.399781305190153
undo,52,34,0,1,0,23,"[0, 13, 1, 8, 25, 24, 12, 7, 23]",9,1,[27],72.27352467,10247,1161,1,0,10,2.399781305190153
undo,53,43,0,0,0,0,[0],1,23,"[1, 2, 3, 4, 5, 6, 7, 9, 10, 11, 12, 14, 15, 16, 17, 19, 20, 21, 22, 23, 25, 27, 29]",300,180,-1,16,556,12,0.0
undo,53,43,0,0,0,29,"[0, 29]",2,22,"[1, 2, 3, 4, 5, 6, 7, 9, 10, 11, 12, 14, 15, 16, 17, 19, 20, 21, 22, 23, 25, 27]",277.909278,2530,2350,16,520,12,1.0
undo,53,43,0,0,0,20,"[0, 29, 20]",3,20,"[1, 2, 3, 4, 6, 7, 9, 10, 11, 12, 14, 15, 16, 17, 19, 21, 22, 23, 25, 27]",254.4785289,3371,841,15,422,12,1.082311746871282
undo,53,43,0,0,0,16,"[0, 29, 20, 16]",4,19,"[1, 2, 3, 4, 6, 7, 9, 10, 11, 12, 14, 15, 17, 19, 21, 22, 23, 25, 27]",231.8511119,4241,870,15,389,12,1.215201926898219
undo,53,43,0,0,0,11,"[0, 29, 20, 16, 11]",5,17,"[1, 2, 3, 4, 6, 7, 9, 10, 12, 14, 15, 17, 19, 21, 22, 23, 25]",196.7227758,5320,1079,12,188,12,1.1349145516483516
undo,53,43,0,0,0,15,"[0, 29, 20, 16, 11, 15]",6,12,"[1, 2, 3, 4, 6, 7, 12, 14, 19, 22, 23, 25]",147.9682888,8359,3039,1,32,12,1.8387943334430294
undo,53,43,0,0,0,25,"[0, 29, 20, 16, 11, 15, 25]",7,9,"[1, 3, 6, 7, 12, 14, 19, 22, 23]",125.2967207,9022,663,1,12,12,2.202803380742111
undo,53,43,0,0,0,12,"[0, 29, 20, 16, 11, 15, 25, 12]",8,6,"[1, 3, 6, 7, 19, 22]",101.1099475,11119,2097,1,8,12,2.011866286185413
undo,53,43,0,0,0,3,"[0, 29, 20, 16, 11, 15, 25, 12, 3]",9,5,"[1, 6, 7, 19, 22]",88.10994748,12526,1407,1,5,12,1.9020620380337963
undo,53,43,0,1,0,3,"[0, 29, 20, 16, 11, 15, 25, 12, 3]",9,5,"[1, 6, 7, 19, 22]",88.10994748,13597,1071,1,5,12,1.9020620380337963
undo,54,19,0,0,0,0,[0],1,29,"[1, 2, 3, 4, 5, 6, 7, 8, 9, 10, 11, 12, 13, 14, 15, 16, 17, 18, 19, 20, 21, 22, 23, 24, 25, 26, 27, 28, 29]",300,213,-1,12,149,8,0.0
undo,54,19,0,0,0,29,"[0, 29]",2,28,"[1, 2, 3, 4, 5, 6, 7, 8, 9, 10, 11, 12, 13, 14, 15, 16, 17, 18, 19, 20, 21, 22, 23, 24, 25, 26, 27, 28]",265.0715016,4309,4096,12,120,8,1.0
undo,54,19,0,0,0,9,"[0, 29, 9]",3,17,"[1, 4, 5, 6, 7, 10, 11, 12, 13, 14, 19, 20, 21, 22, 24, 27, 28]",181.7108394,5269,960,11,65,8,1.0375842971861238
undo,54,19,0,0,0,6,"[0, 29, 9, 6]",4,12,"[4, 7, 10, 11, 13, 14, 20, 21, 22, 24, 27, 28]",140.2741407,6321,1052,11,34,8,1.0389786364356892
undo,54,19,0,0,0,14,"[0, 29, 9, 6, 14]",5,7,"[4, 10, 11, 20, 22, 24, 28]",80.59164747,9353,3032,3,6,8,1.0491884155331486
undo,54,19,0,0,0,11,"[0, 29, 9, 6, 14, 11]",6,5,"[4, 20, 22, 24, 28]",69.77499364,10522,1169,3,2,8,1.050030420094996
undo,54,19,0,1,0,11,"[0, 29, 9, 6, 14, 11]",6,5,"[4, 20, 22, 24, 28]",69.77499364,12463,1941,3,2,8,1.050030420094996
undo,55,24,0,0,0,0,[0],1,29,"[1, 2, 3, 4, 5, 6, 7, 8, 9, 10, 11, 12, 13, 14, 15, 16, 17, 18, 19, 20, 21, 22, 23, 24, 25, 26, 27, 28, 29]",300,163,-1,4,76,10,0.0
undo,55,24,0,0,0,16,"[0, 16]",2,28,"[1, 2, 3, 4, 5, 6, 7, 8, 9, 10, 11, 12, 13, 14, 15, 17, 18, 19, 20, 21, 22, 23, 24, 25, 26, 27, 28, 29]",210.3562607,6108,5945,13,110,9,1.0
undo,55,24,0,0,0,22,"[0, 16, 22]",3,27,"[1, 2, 3, 4, 5, 6, 7, 8, 9, 10, 11, 12, 13, 14, 15, 17, 18, 19, 20, 21, 23, 24, 25, 26, 27, 28, 29]",192.3285043,7853,1745,7,54,9,1.0217425143037777
undo,55,24,0,0,0,8,"[0, 16, 22, 8]",4,21,"[1, 2, 3, 4, 6, 9, 10, 11, 13, 14, 15, 17, 20, 21, 23, 24, 25, 26, 27, 28, 29]",178.9120964,9135,1282,4,28,9,1.0996636936037951
undo,55,24,0,0,0,15,"[0, 16, 22, 8, 15]",5,16,"[3, 4, 6, 9, 10, 11, 13, 14, 17, 23, 24, 25, 26, 27, 28, 29]",148.025206,10718,1583,3,17,9,1.2704773343758617
undo,55,24,0,0,0,4,"[0, 16, 22, 8, 15, 4]",6,5,"[3, 23, 26, 28, 29]",97.77582791,12122,1404,3,2,8,1.4969304808573367
undo,55,24,0,1,0,4,"[0, 16, 22, 8, 15, 4]",6,5,"[3, 23, 26, 28, 29]",97.77582791,13213,1091,3,2,8,1.4969304808573367
undo,56,22,0,0,0,0,[0],1,29,"[1, 2, 3, 4, 5, 6, 7, 8, 9, 10, 11, 12, 13, 14, 15, 16, 17, 18, 19, 20, 21, 22, 23, 24, 25, 26, 27, 28, 29]",300,230,-1,31,704,9,0.0
undo,56,22,0,0,0,16,"[0, 16]",2,21,"[1, 3, 6, 7, 8, 9, 11, 13, 14, 15, 17, 18, 19, 20, 21, 22, 24, 25, 27, 28, 29]",218.605897,2113,1883,17,147,9,1.0
undo,56,22,0,0,0,28,"[0, 16, 28]",3,13,"[6, 7, 9, 13, 14, 17, 19, 20, 21, 22, 24, 25, 29]",184.1675463,2976,863,12,61,9,1.047282311284478
undo,56,22,0,0,0,6,"[0, 16, 28, 6]",4,12,"[7, 9, 13, 14, 17, 19, 20, 21, 22, 24, 25, 29]",154.1675463,3702,726,12,43,9,1.645645870580622
undo,56,22,0,0,0,9,"[0, 16, 28, 6, 9]",5,8,"[7, 14, 17, 19, 20, 21, 24, 29]",127.5404924,5070,1368,8,17,9,1.925750226630103
undo,56,22,0,0,0,19,"[0, 16, 28, 6, 9, 19]",6,6,"[7, 14, 17, 21, 24, 29]",107.1444143,5685,615,3,7,9,2.4220750331476455
undo,56,22,0,0,0,29,"[0, 16, 28, 6, 9, 19, 29]",7,4,"[7, 14, 17, 24]",92.11111796,7236,1551,2,2,9,2.6996279574991067
undo,56,22,0,1,0,29,"[0, 16, 28, 6, 9, 19, 29]",7,4,"[7, 14, 17, 24]",92.11111796,9814,2578,2,2,9,2.6996279574991067
undo,57,3,0,0,0,0,[0],1,29,"[1, 2, 3, 4, 5, 6, 7, 8, 9, 10, 11, 12, 13, 14, 15, 16, 17, 18, 19, 20, 21, 22, 23, 24, 25, 26, 27, 28, 29]",300,147,-1,34,427,10,0.0
undo,57,3,0,0,0,17,"[0, 17]",2,16,"[3, 4, 7, 8, 10, 12, 14, 15, 16, 19, 20, 21, 22, 24, 26, 27]",197.6965299,2408,2261,2,27,9,1.0
undo,57,3,0,0,0,20,"[0, 17, 20]",3,13,"[3, 4, 7, 8, 10, 14, 15, 16, 19, 21, 22, 24, 27]",185.0474192,2943,535,2,24,9,1.0153332121237257
undo,57,3,0,0,0,3,"[0, 17, 20, 3]",4,10,"[4, 7, 8, 10, 14, 15, 16, 19, 21, 24]",164.6513412,3907,964,2,22,9,1.0819240770773468
undo,57,3,0,0,0,19,"[0, 17, 20, 3, 19]",5,6,"[4, 8, 10, 14, 21, 24]",127.3150318,4623,716,2,11,9,1.1701070532957258
undo,57,3,0,0,0,21,"[0, 17, 20, 3, 19, 21]",6,5,"[4, 8, 10, 14, 24]",115.1084762,5291,668,2,6,9,1.202395500952127
undo,57,3,0,0,0,14,"[0, 17, 20, 3, 19, 21, 14]",7,4,"[4, 8, 10, 24]",88.20122806,6435,1144,2,2,9,1.6456130302761207
undo,57,3,0,1,0,14,"[0, 17, 20, 3, 19, 21, 14]",7,4,"[4, 8, 10, 24]",88.20122806,7680,1245,2,2,9,1.6456130302761207
undo,58,0,0,0,0,0,[0],1,27,"[2, 3, 4, 5, 6, 7, 8, 9, 10, 11, 12, 13, 14, 15, 16, 17, 19, 20, 21, 22, 23, 24, 25, 26, 27, 28, 29]",300,161,-1,104,1136,9,0.0
undo,58,0,0,0,0,5,"[0, 5]",2,24,"[2, 3, 4, 7, 8, 9, 11, 12, 13, 14, 15, 16, 17, 19, 20, 21, 22, 23, 24, 25, 26, 27, 28, 29]",164.5156836,2718,2557,5,112,9,1.0
undo,58,0,0,0,0,4,"[0, 5, 4]",3,20,"[2, 3, 7, 8, 9, 11, 12, 13, 14, 15, 17, 19, 20, 21, 22, 23, 24, 25, 26, 28]",139.4358112,3500,782,4,61,9,1.0257023158632692
undo,58,0,0,0,0,26,"[0, 5, 4, 26]",4,18,"[3, 7, 8, 9, 11, 12, 13, 14, 15, 17, 19, 20, 21, 22, 23, 24, 25, 28]",127.3942166,5574,2074,4,26,9,1.0684029773259323
undo,58,0,0,0,0,24,"[0, 5, 4, 26, 24]",5,12,"[3, 7, 8, 9, 11, 12, 15, 17, 19, 20, 23, 28]",110.2769738,6320,746,4,16,9,1.1372083333602885
undo,58,0,0,0,0,15,"[0, 5, 4, 26, 24, 15]",6,8,"[3, 7, 8, 9, 11, 12, 17, 19]",86.93173875,7596,1276,4,7,9,1.1271717591548023
undo,58,0,0,0,0,7,"[0, 5, 4, 26, 24, 15, 7]",7,4,"[3, 8, 17, 19]",55.86728962,8767,1171,3,2,9,1.190834598819092
undo,58,0,0,1,0,7,"[0, 5, 4, 26, 24, 15, 7]",7,4,"[3, 8, 17, 19]",55.86728962,9912,1145,3,2,9,1.190834598819092
undo,59,38,0,0,0,0,[0],1,29,"[1, 2, 3, 4, 5, 6, 7, 8, 9, 10, 11, 12, 13, 14, 15, 16, 17, 18, 19, 20, 21, 22, 23, 24, 25, 26, 27, 28, 29]",300,179,-1,33,506,9,0.0
undo,59,38,0,0,0,15,"[0, 15]",2,24,"[1, 2, 3, 4, 5, 6, 7, 10, 11, 12, 13, 14, 16, 17, 18, 19, 20, 21, 22, 24, 25, 26, 27, 28]",226.6242547,2361,2182,26,315,8,1.0
undo,59,38,0,0,0,4,"[0, 15, 4]",3,21,"[1, 3, 5, 6, 7, 10, 11, 12, 13, 14, 16, 17, 18, 19, 20, 22, 24, 25, 26, 27, 28]",200.6242547,3569,1208,13,104,8,1.4173413634934033
undo,59,38,0,0,0,20,"[0, 15, 4, 20]",4,16,"[3, 5, 6, 7, 11, 13, 14, 16, 17, 18, 19, 22, 24, 26, 27, 28]",166.6831292,4504,935,6,33,8,2.4756321407912334
undo,59,38,0,0,0,17,"[0, 15, 4, 20, 17]",5,13,"[3, 5, 6, 11, 13, 16, 18, 19, 22, 24, 26, 27, 28]",142.9134005,5171,667,5,14,8,2.4236103458312424
undo,59,38,0,0,0,19,"[0, 15, 4, 20, 17, 19]",6,7,"[3, 6, 13, 18, 22, 26, 27]",121.5358422,8168,2997,4,4,8,2.216988824378052
undo,59,38,0,1,0,19,"[0, 15, 4, 20, 17, 19]",6,7,"[3, 6, 13, 18, 22, 26, 27]",121.5358422,10079,1911,4,4,8,2.216988824378052
undo,60,4,0,0,0,0,[0],1,26,"[3, 4, 5, 6, 7, 8, 10, 11, 12, 13, 14, 15, 16, 17, 18, 19, 20, 21, 22, 23, 24, 25, 26, 27, 28, 29]",300,173,-1,4,489,10,0.0
undo,60,4,0,0,0,28,"[0, 28]",2,21,"[3, 4, 5, 6, 10, 11, 12, 13, 14, 15, 16, 17, 19, 20, 21, 22, 23, 24, 25, 26, 27]",225.9392142,3672,3499,2,216,10,1.0
undo,60,4,0,0,0,11,"[0, 28, 11]",3,16,"[3, 4, 5, 6, 12, 13, 14, 16, 17, 20, 21, 22, 23, 24, 25, 26]",177.0618165,5439,1767,1,99,10,1.0005230107421244
undo,60,4,0,0,0,25,"[0, 28, 11, 25]",4,14,"[3, 4, 5, 6, 12, 13, 14, 16, 17, 20, 21, 22, 23, 24]",158.2735223,6207,768,1,47,10,1.11762077950493
undo,60,4,0,0,0,14,"[0, 28, 11, 25, 14]",5,10,"[3, 4, 5, 6, 13, 16, 17, 20, 21, 22]",142.1490068,6905,698,1,23,10,1.1558980853108136
undo,60,4,0,0,0,16,"[0, 28, 11, 25, 14, 16]",6,9,"[3, 4, 5, 6, 13, 17, 20, 21, 22]",109.5913656,7610,705,1,12,10,1.3813330703388178
undo,60,4,0,0,0,17,"[0, 28, 11, 25, 14, 16, 17]",7,5,"[3, 5, 20, 21, 22]",83.51455598,8788,1178,1,5,10,1.3206962632237582
undo,60,4,0,1,0,17,"[0, 28, 11, 25, 14, 16, 17]",7,5,"[3, 5, 20, 21, 22]",83.51455598,10514,1726,1,5,10,1.3206962632237582
undo,61,8,0,0,0,0,[0],1,29,"[1, 2, 3, 4, 5, 6, 7, 8, 9, 10, 11, 12, 13, 14, 15, 16, 17, 18, 19, 20, 21, 22, 23, 24, 25, 26, 27, 28, 29]",300,182,-1,10,149,9,0.0
undo,61,8,0,0,0,5,"[0, 5]",2,28,"[1, 2, 3, 4, 6, 7, 8, 9, 10, 11, 12, 13, 14, 15, 16, 17, 18, 19, 20, 21, 22, 23, 24, 25, 26, 27, 28, 29]",254.5137383,2663,2481,10,100,9,1.0
undo,61,8,0,0,0,14,"[0, 5, 14]",3,20,"[1, 2, 3, 4, 6, 7, 11, 15, 16, 17, 18, 19, 20, 21, 22, 23, 24, 25, 28, 29]",214.5512559,6035,3372,4,36,9,1.0001019035932595
undo,61,8,0,0,0,17,"[0, 5, 14, 17]",4,15,"[1, 4, 6, 7, 11, 15, 16, 18, 19, 20, 22, 23, 24, 25, 28]",177.5377449,7186,1151,4,16,9,1.121197267659591
undo,61,8,0,0,0,11,"[0, 5, 14, 17, 11]",5,11,"[1, 4, 15, 16, 18, 19, 22, 23, 24, 25, 28]",152.3583883,9220,2034,4,8,9,1.1277254166016362
undo,61,8,0,0,0,24,"[0, 5, 14, 17, 11, 24]",6,3,"[15, 16, 28]",115.1428001,10473,1253,2,2,9,1.1227411011978805
undo,61,8,0,0,0,15,"[0, 5, 14, 17, 11, 24, 15]",7,2,"[16, 28]",98.37974552,11403,930,2,0,9,1.1956385406066814
undo,61,8,0,1,0,15,"[0, 5, 14, 17, 11, 24, 15]",7,2,"[16, 28]",98.37974552,12397,994,2,0,9,1.1956385406066814
undo,62,7,0,0,0,0,[0],1,29,"[1, 2, 3, 4, 5, 6, 7, 8, 9, 10, 11, 12, 13, 14, 15, 16, 17, 18, 19, 20, 21, 22, 23, 24, 25, 26, 27, 28, 29]",300,165,-1,3,79,9,0.0
undo,62,7,0,0,0,25,"[0, 25]",2,20,"[2, 3, 4, 5, 6, 7, 10, 13, 14, 15, 16, 18, 19, 20, 21, 22, 23, 24, 27, 28]",181.5939191,6425,6260,5,33,8,1.0
undo,62,7,0,0,0,4,"[0, 25, 4]",3,11,"[2, 6, 7, 13, 15, 16, 18, 19, 20, 21, 23]",156.8552853,7160,735,2,14,8,1.0193465608331511
undo,62,7,0,0,0,20,"[0, 25, 4, 20]",4,8,"[2, 6, 7, 13, 15, 16, 18, 19]",137.2084026,8021,861,1,9,8,1.085904909082323
undo,62,7,0,0,0,18,"[0, 25, 4, 20, 18]",5,7,"[2, 6, 7, 13, 15, 16, 19]",124.4021541,9405,1384,1,5,8,1.2264883846453758
undo,62,7,0,0,0,7,"[0, 25, 4, 20, 18, 7]",6,2,"[2, 19]",83.17109789,10589,1184,1,1,8,1.185264473968278
undo,62,7,0,1,0,7,"[0, 25, 4, 20, 18, 7]",6,2,"[2, 19]",83.17109789,12083,1494,1,1,8,1.185264473968278
undo,63,6,0,0,0,0,[0],1,29,"[1, 2, 3, 4, 5, 6, 7, 8, 9, 10, 11, 12, 13, 14, 15, 16, 17, 18, 19, 20, 21, 22, 23, 24, 25, 26, 27, 28, 29]",300,230,-1,180,4304,10,0.0
undo,63,6,0,0,0,3,"[0, 3]",2,28,"[1, 2, 4, 5, 6, 7, 8, 9, 10, 11, 12, 13, 14, 15, 16, 17, 18, 19, 20, 21, 22, 23, 24, 25, 26, 27, 28, 29]",266.4738908,2404,2174,90,1607,10,1.0
undo,63,6,0,0,0,16,"[0, 3, 16]",3,27,"[1, 2, 4, 5, 6, 7, 8, 9, 10, 11, 12, 13, 14, 15, 17, 18, 19, 20, 21, 22, 23, 24, 25, 26, 27, 28, 29]",220.2353787,4392,1988,16,190,10,1.1050742161728249
undo,63,6,0,0,0,18,"[0, 3, 16, 18]",4,24,"[1, 2, 4, 5, 6, 7, 8, 9, 10, 11, 12, 13, 14, 15, 17, 19, 20, 21, 22, 23, 24, 26, 27, 29]",196.8901436,5227,835,10,97,10,1.6930577237270534
undo,63,6,0,0,0,17,"[0, 3, 16, 18, 17]",5,20,"[1, 2, 4, 5, 6, 7, 8, 9, 10, 11, 13, 14, 20, 21, 22, 23, 24, 26, 27, 29]",182.9617553,6009,782,8,58,10,1.6583245453234965
undo,63,6,0,0,0,10,"[0, 3, 16, 18, 17, 10]",6,17,"[1, 2, 4, 5, 6, 7, 8, 11, 13, 14, 21, 22, 23, 24, 26, 27, 29]",163.2386724,7103,1094,6,33,10,1.6214605156931816
undo,63,6,0,0,0,24,"[0, 3, 16, 18, 17, 10, 24]",7,15,"[1, 2, 4, 5, 6, 7, 8, 11, 13, 14, 22, 23, 26, 27, 29]",149.8222646,7821,718,6,18,10,1.5435556829623227
undo,63,6,0,0,0,23,"[0, 3, 16, 18, 17, 10, 24, 23]",8,6,"[6, 11, 14, 22, 27, 29]",88.6340304,8687,866,3,4,10,1.5749914836315253
undo,63,6,0,1,0,23,"[0, 3, 16, 18, 17, 10, 24, 23]",8,6,"[6, 11, 14, 22, 27, 29]",88.6340304,10198,1511,3,4,10,1.5749914836315253
undo,64,21,0,0,0,0,[0],1,29,"[1, 2, 3, 4, 5, 6, 7, 8, 9, 10, 11, 12, 13, 14, 15, 16, 17, 18, 19, 20, 21, 22, 23, 24, 25, 26, 27, 28, 29]",300,212,-1,84,830,9,0.0
undo,64,21,0,0,0,25,"[0, 25]",2,26,"[1, 2, 3, 4, 5, 6, 7, 8, 9, 10, 11, 12, 13, 14, 15, 16, 17, 18, 20, 21, 22, 23, 24, 26, 27, 29]",240.1836143,2826,2614,30,238,9,1.0
undo,64,21,0,0,0,23,"[0, 25, 23]",3,21,"[1, 2, 4, 6, 7, 8, 9, 10, 11, 12, 14, 15, 16, 17, 18, 20, 21, 22, 24, 27, 29]",196.8592562,3954,1128,14,80,9,1.0416131642057598
undo,64,21,0,0,0,21,"[0, 25, 23, 21]",4,14,"[1, 4, 6, 8, 9, 14, 15, 16, 17, 18, 20, 22, 24, 29]",167.2450705,4651,697,10,25,9,1.4768792067751173
undo,64,21,0,0,0,14,"[0, 25, 23, 21, 14]",5,10,"[4, 8, 9, 15, 16, 17, 18, 22, 24, 29]",141.6325735,5863,1212,8,13,9,1.3826076066332742
undo,64,21,0,0,0,4,"[0, 25, 23, 21, 14, 4]",6,7,"[8, 15, 16, 17, 18, 24, 29]",127.4904379,7153,1290,8,3,9,1.3487191473328533
undo,64,21,0,0,0,16,"[0, 25, 23, 21, 14, 4, 16]",7,3,"[8, 15, 24]",82.89223163,8387,1234,4,1,9,1.3301484172843694
undo,64,21,0,1,0,16,"[0, 25, 23, 21, 14, 4, 16]",7,3,"[8, 15, 24]",82.89223163,9279,892,4,1,9,1.3301484172843694
undo,65,39,0,0,0,0,[0],1,28,"[1, 2, 3, 4, 5, 6, 7, 9, 10, 11, 12, 13, 14, 15, 16, 17, 18, 19, 20, 21, 22, 23, 24, 25, 26, 27, 28, 29]",300,230,-1,1,30,10,0.0
undo,65,39,0,0,0,14,"[0, 14]",2,26,"[1, 2, 3, 4, 5, 6, 7, 9, 10, 12, 13, 15, 16, 17, 18, 19, 20, 21, 22, 23, 24, 25, 26, 27, 28, 29]",286.9615952,3792,3562,1,22,10,1.0
undo,65,39,0,0,0,29,"[0, 14, 29]",3,23,"[1, 2, 3, 4, 5, 6, 7, 9, 10, 12, 13, 15, 16, 17, 18, 19, 21, 22, 23, 24, 25, 26, 28]",218.9321898,5476,1684,1,21,10,1.4237768813412561
undo,65,39,0,0,0,10,"[0, 14, 29, 10]",4,16,"[1, 2, 4, 5, 7, 9, 12, 13, 15, 16, 18, 19, 22, 23, 24, 26]",154.2947393,6612,1136,10,55,9,1.2261903217179273
undo,65,39,0,0,0,7,"[0, 14, 29, 10, 7]",5,13,"[1, 2, 5, 9, 12, 13, 15, 16, 18, 19, 22, 24, 26]",120.8731894,7552,940,7,19,9,1.1772181718345374
undo,65,39,0,0,0,26,"[0, 14, 29, 10, 7, 26]",6,6,"[1, 12, 16, 18, 19, 22]",102.1916477,8737,1185,5,7,9,1.2246375898647768
undo,65,39,0,0,0,22,"[0, 14, 29, 10, 7, 26, 22]",7,4,"[12, 16, 18, 19]",84.47160256,9403,666,3,2,9,1.3919259602577456
undo,65,39,0,1,0,22,"[0, 14, 29, 10, 7, 26, 22]",7,4,"[12, 16, 18, 19]",84.47160256,10397,994,3,2,9,1.3919259602577456
undo,66,28,0,0,0,0,[0],1,27,"[1, 2, 3, 4, 5, 6, 7, 8, 9, 10, 11, 12, 13, 14, 15, 16, 17, 18, 19, 20, 22, 23, 25, 26, 27, 28, 29]",300,162,-1,2,96,9,0.0
undo,66,28,0,0,0,3,"[0, 3]",2,26,"[1, 2, 4, 5, 6, 7, 8, 9, 10, 11, 12, 13, 14, 15, 16, 17, 18, 19, 20, 22, 23, 25, 26, 27, 28, 29]",251.0817008,3243,3081,1,64,9,1.0
undo,66,28,0,0,0,14,"[0, 3, 14]",3,13,"[1, 2, 5, 7, 10, 11, 12, 13, 17, 18, 19, 20, 26]",142.7396498,4494,1251,19,59,8,1.0338694802207566
undo,66,28,0,0,0,18,"[0, 3, 14, 18]",4,10,"[1, 2, 5, 7, 11, 12, 13, 17, 19, 26]",117.2445523,5566,1072,18,18,8,1.098527225277385
undo,66,28,0,0,0,13,"[0, 3, 14, 18, 13]",5,7,"[2, 7, 11, 12, 17, 19, 26]",92.83144103,6365,799,8,6,8,1.0872780601597938
undo,66,28,0,0,0,12,"[0, 3, 14, 18, 13, 12]",6,3,"[2, 7, 19]",75.6267905,7201,836,3,1,8,1.0890748557820906
undo,66,28,0,0,0,7,"[0, 3, 14, 18, 13, 12, 7]",7,2,"[2, 19]",62.47384406,7952,751,2,0,8,1.2125627495730145
undo,66,28,0,0,1,19,"[0, 3, 14, 18, 13, 12, 7, 19]",8,0,[],34.74299481,8652,700,1,0,8,1.4527925513951803
undo,66,28,0,1,1,19,"[0, 3, 14, 18, 13, 12, 7, 19]",8,0,[],34.74299481,9646,994,1,0,8,1.4527925513951803
undo,67,45,0,0,0,0,[0],1,24,"[1, 2, 3, 4, 5, 6, 7, 9, 10, 11, 12, 14, 15, 16, 17, 19, 20, 21, 22, 23, 24, 25, 27, 29]",300,190,-1,6,248,10,0.0
undo,67,45,0,0,0,17,"[0, 17]",2,22,"[1, 2, 3, 4, 5, 6, 7, 9, 10, 11, 12, 14, 15, 16, 19, 20, 21, 22, 23, 24, 25, 29]",235.867325,2704,2514,1,34,10,1.0
undo,67,45,0,0,0,24,"[0, 17, 24]",3,20,"[1, 2, 3, 4, 5, 6, 7, 9, 10, 11, 12, 14, 15, 16, 19, 20, 21, 22, 23, 29]",193.8078433,3507,803,1,33,10,1.0309432256229287
undo,67,45,0,0,0,7,"[0, 17, 24, 7]",4,18,"[1, 2, 3, 4, 5, 6, 9, 10, 12, 14, 15, 16, 19, 20, 21, 22, 23, 29]",159.3985423,4553,1046,1,32,10,1.059763151913087
undo,67,45,0,0,0,2,"[0, 17, 24, 7, 2]",5,12,"[3, 4, 6, 10, 12, 14, 16, 19, 20, 22, 23, 29]",121.3853866,5411,858,1,23,10,1.0656581932115423
undo,67,45,0,0,0,3,"[0, 17, 24, 7, 2, 3]",6,8,"[6, 10, 12, 14, 16, 20, 22, 29]",96.06740884,6622,1211,1,13,10,1.1368250049574795
undo,67,45,0,0,0,29,"[0, 17, 24, 7, 2, 3, 29]",7,5,"[6, 10, 12, 20, 22]",76.06740884,7774,1152,1,5,10,1.390376182346372
undo,67,45,0,1,0,29,"[0, 17, 24, 7, 2, 3, 29]",7,5,"[6, 10, 12, 20, 22]",76.06740884,8746,972,1,5,10,1.390376182346372
undo,68,5,0,0,0,0,[0],1,29,"[1, 2, 3, 4, 5, 6, 7, 8, 9, 10, 11, 12, 13, 14, 15, 16, 17, 18, 19, 20, 21, 22, 23, 24, 25, 26, 27, 28, 29]",300,164,-1,5,139,9,0.0
undo,68,5,0,0,0,23,"[0, 23]",2,27,"[1, 2, 3, 4, 5, 6, 7, 8, 9, 10, 11, 12, 13, 14, 15, 16, 17, 18, 19, 20, 21, 22, 24, 25, 26, 27, 28]",249.8402552,2277,2113,3,75,9,1.0
undo,68,5,0,0,0,25,"[0, 23, 25]",3,23,"[1, 2, 3, 4, 5, 6, 8, 9, 10, 12, 13, 14, 15, 16, 17, 18, 19, 21, 22, 24, 26, 27, 28]",231.4011663,3170,893,3,43,9,1.0923159590575564
undo,68,5,0,0,0,24,"[0, 23, 25, 24]",4,21,"[2, 3, 4, 5, 6, 8, 9, 10, 12, 13, 14, 15, 16, 17, 18, 19, 21, 22, 26, 27, 28]",206.5616816,4160,990,3,25,9,1.2901858295679272
undo,68,5,0,0,0,17,"[0, 23, 25, 24, 17]",5,13,"[4, 5, 6, 8, 12, 13, 14, 15, 18, 19, 22, 26, 27]",171.5759702,5054,894,3,14,9,1.2027484907982513
undo,68,5,1,0,0,24,"[0, 23, 25, 24]",4,21,"[2, 3, 4, 5, 6, 8, 9, 10, 12, 13, 14, 15, 16, 17, 18, 19, 21, 22, 26, 27, 28]",206.5616816,12130,7076,3,25,9,1.2901858295679272
undo,68,5,1,0,0,25,"[0, 23, 25]",3,23,"[1, 2, 3, 4, 5, 6, 8, 9, 10, 12, 13, 14, 15, 16, 17, 18, 19, 21, 22, 24, 26, 27, 28]",231.4011663,12530,400,3,43,9,1.0923159590575564
undo,68,5,1,0,0,23,"[0, 23]",2,27,"[1, 2, 3, 4, 5, 6, 7, 8, 9, 10, 11, 12, 13, 14, 15, 16, 17, 18, 19, 20, 21, 22, 24, 25, 26, 27, 28]",249.8402552,12963,433,3,75,9,1.0
undo,68,5,0,0,0,12,"[0, 23, 12]",3,20,"[2, 4, 5, 6, 8, 9, 10, 13, 14, 15, 16, 17, 18, 19, 21, 22, 24, 25, 26, 27]",206.6661889,16820,3857,12,56,8,1.3018394868431302
undo,68,5,0,0,0,25,"[0, 23, 12, 25]",4,18,"[2, 4, 5, 6, 8, 9, 10, 13, 14, 15, 17, 18, 19, 21, 22, 24, 26, 27]",178.8813009,17673,853,12,34,8,1.9286025844958365
undo,68,5,0,0,0,24,"[0, 23, 12, 25, 24]",5,14,"[4, 5, 6, 8, 9, 13, 14, 15, 17, 18, 19, 22, 26, 27]",154.0418162,19337,1664,9,16,8,2.0153742455218557
undo,68,5,0,0,0,17,"[0, 23, 12, 25, 24, 17]",6,7,"[4, 5, 6, 8, 15, 18, 19]",119.0561048,20389,1052,8,2,8,1.6946205255346762
undo,68,5,0,0,0,5,"[0, 23, 12, 25, 24, 17, 5]",7,4,"[4, 6, 15, 18]",76.00961835,21388,999,4,0,8,1.498607098302
undo,68,5,0,1,0,5,"[0, 23, 12, 25, 24, 17, 5]",7,4,"[4, 6, 15, 18]",76.00961835,22197,809,4,0,8,1.498607098302
basic,69,45,0,0,0,0,[0],1,24,"[1, 2, 3, 4, 5, 6, 7, 9, 10, 11, 12, 14, 15, 16, 17, 19, 20, 21, 22, 23, 24, 25, 27, 29]",300,198,-1,6,248,10,0.0
basic,69,45,0,0,0,15,"[0, 15]",2,23,"[1, 2, 3, 4, 5, 6, 7, 9, 10, 11, 12, 14, 16, 17, 19, 20, 21, 22, 23, 24, 25, 27, 29]",253.9022777,3215,3017,5,207,10,1.0
basic,69,45,0,0,0,23,"[0, 15, 23]",3,22,"[1, 2, 3, 4, 5, 6, 7, 9, 10, 11, 12, 14, 16, 17, 19, 20, 21, 22, 24, 25, 27, 29]",230.3014303,4082,867,5,163,10,1.0006068457769497
basic,69,45,0,0,0,20,"[0, 15, 23, 20]",4,19,"[1, 2, 3, 5, 6, 7, 9, 10, 11, 12, 14, 16, 17, 19, 21, 22, 24, 25, 29]",188.8647316,5211,1129,5,137,10,1.2062119754673604
basic,69,45,0,0,0,24,"[0, 15, 23, 20, 24]",5,14,"[1, 2, 3, 5, 6, 7, 9, 10, 12, 17, 19, 21, 22, 29]",145.0355176,6009,798,1,23,10,1.5044386356496664
basic,69,45,0,0,0,7,"[0, 15, 23, 20, 24, 7]",6,9,"[2, 3, 6, 10, 12, 17, 19, 22, 29]",110.6262165,7110,1101,1,22,10,1.4273775035809357
basic,69,45,0,0,0,2,"[0, 15, 23, 20, 24, 7, 2]",7,6,"[3, 6, 10, 12, 22, 29]",72.61306087,8076,966,1,7,10,1.3566457419165387
basic,69,45,0,1,0,2,"[0, 15, 23, 20, 24, 7, 2]",7,6,"[3, 6, 10, 12, 22, 29]",72.61306087,8899,823,1,7,10,1.3566457419165387
basic,70,31,0,0,0,0,[0],1,27,"[1, 3, 4, 5, 6, 7, 8, 10, 11, 12, 13, 14, 15, 16, 17, 18, 19, 20, 21, 22, 23, 24, 25, 26, 27, 28, 29]",300,188,-1,2,87,10,0.0
basic,70,31,0,0,0,14,"[0, 14]",2,25,"[1, 3, 5, 6, 7, 8, 10, 11, 12, 13, 15, 16, 17, 18, 19, 20, 21, 22, 23, 24, 25, 26, 27, 28, 29]",263.861378,3406,3218,2,59,10,1.0
basic,70,31,0,0,0,27,"[0, 14, 27]",3,22,"[1, 3, 5, 6, 7, 8, 10, 11, 12, 13, 15, 16, 17, 18, 19, 20, 21, 22, 24, 25, 28, 29]",235.6833724,5304,1898,1,39,10,1.5881859159302467
basic,70,31,0,0,0,8,"[0, 14, 27, 8]",4,20,"[1, 3, 5, 6, 7, 10, 11, 12, 13, 16, 17, 18, 19, 20, 21, 22, 24, 25, 28, 29]",224.6380114,5947,643,1,36,10,2.1665048452331277
basic,70,31,0,0,0,18,"[0, 14, 27, 8, 18]",5,15,"[1, 5, 6, 7, 11, 12, 13, 16, 17, 19, 20, 22, 25, 28, 29]",188.7911147,6860,913,1,26,10,1.7273375741920205
basic,70,31,0,0,0,11,"[0, 14, 27, 8, 18, 11]",6,11,"[1, 5, 7, 12, 16, 17, 19, 20, 22, 25, 28]",153.9055876,7820,960,13,17,9,2.386348208737804
basic,70,31,0,0,0,5,"[0, 14, 27, 8, 18, 11, 5]",7,5,"[16, 17, 20, 25, 28]",110.2249283,9054,1234,3,3,9,2.163249612867222
basic,70,31,0,0,0,28,"[0, 14, 27, 8, 18, 11, 5, 28]",8,2,"[16, 17]",90.00117988,10315,1261,2,0,9,1.9564635733184719
basic,70,31,0,1,0,28,"[0, 14, 27, 8, 18, 11, 5, 28]",8,2,"[16, 17]",90.00117988,11314,999,2,0,9,1.9564635733184719
basic,71,16,0,0,0,0,[0],1,29,"[1, 2, 3, 4, 5, 6, 7, 8, 9, 10, 11, 12, 13, 14, 15, 16, 17, 18, 19, 20, 21, 22, 23, 24, 25, 26, 27, 28, 29]",300,168,-1,13,161,9,0.0
basic,71,16,0,0,0,21,"[0, 21]",2,28,"[1, 2, 3, 4, 5, 6, 7, 8, 9, 10, 11, 12, 13, 14, 15, 16, 17, 18, 19, 20, 22, 23, 24, 25, 26, 27, 28, 29]",215.1884442,5618,5450,5,68,8,1.0
basic,71,16,0,0,0,8,"[0, 21, 8]",3,21,"[2, 3, 4, 5, 9, 10, 12, 13, 14, 15, 16, 17, 19, 20, 22, 23, 25, 26, 27, 28, 29]",165.9340028,6608,990,4,44,8,1.0808611140295874
basic,71,16,0,0,0,20,"[0, 21, 8, 20]",4,10,"[3, 4, 5, 9, 12, 13, 15, 16, 19, 25]",108.1585755,7585,977,3,15,8,1.0602210452538456
basic,71,16,0,0,0,25,"[0, 21, 8, 20, 25]",5,7,"[3, 4, 5, 9, 12, 13, 15]",95.50946482,8622,1037,3,9,8,1.1098383265257352
basic,71,16,0,0,0,9,"[0, 21, 8, 20, 25, 9]",6,5,"[3, 4, 5, 13, 15]",82.70321634,10698,2076,3,3,8,1.1028020529703262
basic,71,16,0,1,0,9,"[0, 21, 8, 20, 25, 9]",6,5,"[3, 4, 5, 13, 15]",82.70321634,12797,2099,3,3,8,1.1028020529703262
basic,72,29,0,0,0,0,[0],1,29,"[1, 2, 3, 4, 5, 6, 7, 8, 9, 10, 11, 12, 13, 14, 15, 16, 17, 18, 19, 20, 21, 22, 23, 24, 25, 26, 27, 28, 29]",300,196,-1,1,78,9,0.0
basic,72,29,0,0,0,25,"[0, 25]",2,18,"[1, 2, 4, 5, 6, 7, 9, 10, 12, 13, 14, 15, 16, 17, 22, 26, 27, 28]",223.3449284,3303,3107,13,101,8,1.0
basic,72,29,0,0,0,17,"[0, 25, 17]",3,13,"[1, 4, 5, 6, 7, 9, 10, 12, 13, 14, 22, 27, 28]",188.41643,4003,700,2,22,8,1.014228463693056
basic,72,29,0,0,0,1,"[0, 25, 17, 1]",4,11,"[4, 5, 6, 7, 10, 12, 13, 14, 22, 27, 28]",149.5191293,4952,949,2,18,8,1.7553639368828857
basic,72,29,0,0,0,14,"[0, 25, 17, 1, 14]",5,8,"[4, 5, 7, 12, 13, 22, 27, 28]",106.5656662,5909,957,2,9,8,2.137167642879409
basic,72,29,0,0,0,13,"[0, 25, 17, 1, 14, 13]",6,4,"[4, 5, 12, 22]",88.53790978,6718,809,2,3,8,1.9535489858276616
basic,72,29,0,0,0,5,"[0, 25, 17, 1, 14, 13, 5]",7,2,"[4, 22]",62.82798951,7429,711,2,0,8,1.9087092890879327
basic,72,29,0,1,0,5,"[0, 25, 17, 1, 14, 13, 5]",7,2,"[4, 22]",62.82798951,8564,1135,2,0,8,1.9087092890879327
basic,73,14,0,0,0,0,[0],1,29,"[1, 2, 3, 4, 5, 6, 7, 8, 9, 10, 11, 12, 13, 14, 15, 16, 17, 18, 19, 20, 21, 22, 23, 24, 25, 26, 27, 28, 29]",300,189,-1,8,157,10,0.0
basic,73,14,0,0,0,15,"[0, 15]",2,20,"[1, 2, 3, 4, 7, 8, 9, 13, 17, 18, 19, 20, 21, 22, 23, 25, 26, 27, 28, 29]",216.7053423,3540,3351,8,102,10,1.0
basic,73,14,0,0,0,28,"[0, 15, 28]",3,17,"[1, 2, 3, 4, 7, 8, 9, 13, 17, 18, 19, 20, 22, 23, 25, 26, 27]",197.4959696,4481,941,8,48,10,1.0446007867311968
basic,73,14,0,0,0,17,"[0, 15, 28, 17]",4,14,"[1, 2, 3, 4, 7, 8, 13, 18, 19, 20, 22, 23, 25, 26]",184.0423455,5537,1056,8,39,10,1.0729463354689972
basic,73,14,0,0,0,18,"[0, 15, 28, 17, 18]",5,9,"[1, 2, 4, 7, 8, 19, 23, 25, 26]",119.412631,6757,1220,8,27,10,1.5035901079219378
basic,73,14,0,0,0,8,"[0, 15, 28, 17, 18, 8]",6,8,"[1, 2, 4, 7, 19, 23, 25, 26]",105.8111605,7523,766,8,18,10,1.4819689987843856
basic,73,14,0,0,0,19,"[0, 15, 28, 17, 18, 8, 19]",7,5,"[1, 7, 23, 25, 26]",85.19563238,8368,845,4,9,10,1.4526746797093781
basic,73,14,0,0,0,1,"[0, 15, 28, 17, 18, 8, 19, 1]",8,4,"[7, 23, 25, 26]",69.96408617,9655,1287,3,1,10,1.4876985459270997
basic,73,14,0,1,0,1,"[0, 15, 28, 17, 18, 8, 19, 1]",8,4,"[7, 23, 25, 26]",69.96408617,10764,1109,3,1,10,1.4876985459270997
basic,74,38,0,0,0,0,[0],1,29,"[1, 2, 3, 4, 5, 6, 7, 8, 9, 10, 11, 12, 13, 14, 15, 16, 17, 18, 19, 20, 21, 22, 23, 24, 25, 26, 27, 28, 29]",300,180,-1,33,506,9,0.0
basic,74,38,0,0,0,19,"[0, 19]",2,23,"[3, 4, 5, 6, 7, 8, 9, 11, 13, 14, 15, 16, 17, 18, 20, 22, 23, 24, 25, 26, 27, 28, 29]",219.5015528,2736,2556,6,61,9,1.0
basic,74,38,0,0,0,17,"[0, 19, 17]",3,21,"[3, 4, 5, 6, 7, 9, 11, 13, 14, 15, 16, 18, 20, 22, 23, 24, 25, 26, 27, 28, 29]",198.1239945,3504,768,6,53,9,1.571793785769489
basic,74,38,0,0,0,20,"[0, 19, 17, 20]",4,17,"[3, 4, 5, 6, 7, 11, 13, 14, 15, 16, 18, 22, 24, 25, 26, 27, 28]",174.3542658,5113,1609,6,44,9,2.333182710277297
basic,74,38,0,0,0,4,"[0, 19, 17, 20, 4]",5,10,"[5, 11, 13, 14, 15, 16, 24, 26, 27, 28]",140.4131403,7445,2332,5,22,9,2.276099229646013
basic,74,38,0,0,0,15,"[0, 19, 17, 20, 4, 15]",6,8,"[5, 11, 13, 14, 16, 24, 26, 28]",114.4131403,8106,661,5,6,9,2.5292671156176403
basic,74,38,0,0,0,11,"[0, 19, 17, 20, 4, 15, 11]",7,2,"[16, 28]",78.01259089,9086,980,2,0,9,2.778100109749787
basic,74,38,0,0,0,28,"[0, 19, 17, 20, 4, 15, 11, 28]",8,1,[16],50.99407872,10233,1147,1,0,9,2.3316428595723258
basic,74,38,0,1,0,28,"[0, 19, 17, 20, 4, 15, 11, 28]",8,1,[16],50.99407872,11397,1164,1,0,9,2.3316428595723258
basic,75,8,0,0,0,0,[0],1,29,"[1, 2, 3, 4, 5, 6, 7, 8, 9, 10, 11, 12, 13, 14, 15, 16, 17, 18, 19, 20, 21, 22, 23, 24, 25, 26, 27, 28, 29]",300,206,-1,10,149,9,0.0
basic,75,8,0,0,0,5,"[0, 5]",2,28,"[1, 2, 3, 4, 6, 7, 8, 9, 10, 11, 12, 13, 14, 15, 16, 17, 18, 19, 20, 21, 22, 23, 24, 25, 26, 27, 28, 29]",254.5137383,3838,3632,10,100,9,1.0
basic,75,8,0,0,0,14,"[0, 5, 14]",3,20,"[1, 2, 3, 4, 6, 7, 11, 15, 16, 17, 18, 19, 20, 21, 22, 23, 24, 25, 28, 29]",214.5512559,5502,1664,4,36,9,1.0001019035932595
basic,75,8,0,0,0,17,"[0, 5, 14, 17]",4,15,"[1, 4, 6, 7, 11, 15, 16, 18, 19, 20, 22, 23, 24, 25, 28]",177.5377449,6386,884,4,16,9,1.121197267659591
basic,75,8,0,0,0,11,"[0, 5, 14, 17, 11]",5,11,"[1, 4, 15, 16, 18, 19, 22, 23, 24, 25, 28]",152.3583883,7090,704,4,8,9,1.1277254166016362
basic,75,8,0,0,0,24,"[0, 5, 14, 17, 11, 24]",6,3,"[15, 16, 28]",115.1428001,7794,704,2,2,9,1.1227411011978805
basic,75,8,0,0,0,15,"[0, 5, 14, 17, 11, 24, 15]",7,2,"[16, 28]",98.37974552,8494,700,2,0,9,1.1956385406066814
basic,75,8,0,0,0,16,"[0, 5, 14, 17, 11, 24, 15, 16]",8,1,[28],47.30137436,9538,1044,1,0,9,1.36482239111247
basic,75,8,0,1,0,16,"[0, 5, 14, 17, 11, 24, 15, 16]",8,1,[28],47.30137436,10597,1059,1,0,9,1.36482239111247
basic,76,3,0,0,0,0,[0],1,29,"[1, 2, 3, 4, 5, 6, 7, 8, 9, 10, 11, 12, 13, 14, 15, 16, 17, 18, 19, 20, 21, 22, 23, 24, 25, 26, 27, 28, 29]",300,216,-1,34,427,10,0.0
basic,76,3,0,0,0,7,"[0, 7]",2,28,"[1, 2, 3, 4, 5, 6, 8, 9, 10, 11, 12, 13, 14, 15, 16, 17, 18, 19, 20, 21, 22, 23, 24, 25, 26, 27, 28, 29]",278.8103799,2238,2022,24,215,10,1.0
basic,76,3,0,0,0,8,"[0, 7, 8]",3,24,"[1, 2, 3, 4, 5, 6, 10, 11, 12, 13, 14, 15, 16, 17, 18, 19, 20, 21, 22, 24, 25, 26, 27, 28]",222.837172,5989,3751,16,114,10,1.2853332575451413
basic,76,3,0,0,0,24,"[0, 7, 8, 24]",4,21,"[1, 3, 4, 5, 6, 10, 11, 12, 14, 15, 16, 17, 18, 19, 20, 21, 22, 25, 26, 27, 28]",210.671647,6674,685,16,91,10,1.5177505014936548
basic,76,3,0,0,0,14,"[0, 7, 8, 24, 14]",5,7,"[3, 4, 10, 17, 19, 20, 21]",139.5590602,7687,1013,4,18,10,1.2465780547557723
basic,76,3,0,0,0,21,"[0, 7, 8, 24, 14, 21]",6,6,"[3, 4, 10, 17, 19, 20]",112.6518121,8462,775,2,7,10,1.2183717977583874
basic,76,3,0,0,0,19,"[0, 7, 8, 24, 14, 21, 19]",7,5,"[3, 4, 10, 17, 20]",100.4452565,9457,995,2,4,10,1.3521756718137403
basic,76,3,0,0,0,3,"[0, 7, 8, 24, 14, 21, 19, 3]",8,2,"[17, 20]",63.10894706,11545,2088,2,0,10,1.8936141376820974
basic,76,3,0,1,0,3,"[0, 7, 8, 24, 14, 21, 19, 3]",8,2,"[17, 20]",63.10894706,12665,1120,2,0,10,1.8936141376820974
basic,77,17,0,0,0,0,[0],1,28,"[1, 2, 3, 4, 5, 6, 7, 8, 9, 10, 11, 12, 13, 14, 15, 16, 17, 18, 19, 20, 22, 23, 24, 25, 26, 27, 28, 29]",300,185,-1,2,73,8,0.0
basic,77,17,0,0,0,9,"[0, 9]",2,25,"[1, 2, 3, 5, 6, 7, 8, 10, 11, 12, 14, 15, 16, 17, 18, 19, 20, 22, 23, 24, 25, 26, 27, 28, 29]",210.5293344,3620,3435,1,34,8,1.0
basic,77,17,0,0,0,16,"[0, 9, 16]",3,21,"[1, 2, 3, 5, 7, 8, 10, 11, 12, 14, 17, 18, 19, 20, 22, 23, 25, 26, 27, 28, 29]",197.1876704,4544,924,1,26,8,1.173103464220352
basic,77,17,0,0,0,2,"[0, 9, 16, 2]",4,18,"[1, 3, 5, 7, 8, 10, 11, 12, 14, 17, 18, 19, 23, 25, 26, 27, 28, 29]",181.0631549,5270,726,1,23,8,1.14825089247282
basic,77,17,0,0,0,17,"[0, 9, 16, 2, 17]",5,7,"[7, 8, 12, 14, 26, 27, 29]",142.7356191,7940,2670,4,5,7,1.4896040699768547
basic,77,17,0,0,0,8,"[0, 9, 16, 2, 17, 8]",6,3,"[7, 12, 27]",104.5256727,9157,1217,3,0,7,1.4604726966175894
basic,77,17,0,1,0,8,"[0, 9, 16, 2, 17, 8]",6,3,"[7, 12, 27]",104.5256727,10281,1124,3,0,7,1.4604726966175894
basic,78,41,0,0,0,0,[0],1,29,"[1, 2, 3, 4, 5, 6, 7, 8, 9, 10, 11, 12, 13, 14, 15, 16, 17, 18, 19, 20, 21, 22, 23, 24, 25, 26, 27, 28, 29]",300,213,-1,1,143,10,0.0
basic,78,41,0,0,0,13,"[0, 13]",2,23,"[1, 2, 3, 5, 6, 7, 9, 10, 11, 12, 14, 15, 17, 18, 19, 20, 21, 22, 24, 25, 26, 27, 28]",258.2747079,2653,2440,1,55,10,1.0
basic,78,41,0,0,0,28,"[0, 13, 28]",3,22,"[1, 2, 3, 5, 6, 7, 9, 10, 11, 12, 14, 15, 17, 18, 19, 20, 21, 22, 24, 25, 26, 27]",223.7928286,3996,1343,1,39,10,1.895724242592676
basic,78,41,0,0,0,5,"[0, 13, 28, 5]",4,19,"[1, 2, 3, 6, 9, 10, 11, 12, 14, 15, 17, 18, 19, 20, 21, 22, 24, 25, 27]",210.1913581,5054,1058,1,34,10,2.861541269398273
basic,78,41,0,0,0,22,"[0, 13, 28, 5, 22]",5,12,"[2, 3, 6, 9, 10, 11, 12, 17, 18, 20, 21, 25]",155.4464953,5878,824,11,12,9,2.096079268852861
basic,78,41,0,0,0,3,"[0, 13, 28, 5, 22, 3]",6,8,"[2, 9, 10, 12, 17, 18, 20, 21]",125.4798472,7081,1203,7,5,9,4.404491319005463
basic,78,41,0,0,0,21,"[0, 13, 28, 5, 22, 3, 21]",7,4,"[2, 9, 12, 17]",93.33952984,8340,1259,5,1,9,4.228139797553632
basic,78,41,0,0,0,17,"[0, 13, 28, 5, 22, 3, 21, 17]",8,2,"[2, 9]",41.67716443,10627,2287,2,0,9,4.075283564568108
basic,78,41,0,1,0,17,"[0, 13, 28, 5, 22, 3, 21, 17]",8,2,"[2, 9]",41.67716443,11580,953,2,0,9,4.075283564568108
basic,79,0,0,0,0,0,[0],1,27,"[2, 3, 4, 5, 6, 7, 8, 9, 10, 11, 12, 13, 14, 15, 16, 17, 19, 20, 21, 22, 23, 24, 25, 26, 27, 28, 29]",300,164,-1,104,1136,9,0.0
basic,79,0,0,0,0,20,"[0, 20]",2,25,"[2, 3, 4, 5, 6, 7, 8, 9, 11, 12, 13, 14, 15, 16, 17, 19, 21, 22, 23, 24, 25, 26, 27, 28, 29]",215.4955622,5803,5639,36,372,9,1.0
basic,79,0,0,0,0,5,"[0, 20, 5]",3,22,"[2, 3, 4, 7, 8, 9, 11, 12, 13, 14, 15, 16, 17, 19, 21, 22, 23, 24, 25, 26, 28, 29]",153.2942761,6642,839,33,251,9,1.0828244018179105
basic,79,0,0,0,0,4,"[0, 20, 5, 4]",4,19,"[2, 3, 7, 8, 9, 11, 12, 13, 14, 15, 17, 19, 21, 22, 23, 24, 25, 26, 28]",128.2144037,10756,4114,21,127,9,1.0973859443611045
basic,79,0,0,0,0,24,"[0, 20, 5, 4, 24]",5,13,"[2, 3, 7, 8, 9, 11, 12, 15, 17, 19, 23, 26, 28]",116.8126494,12021,1265,12,49,9,1.098033200508336
basic,79,0,0,0,0,26,"[0, 20, 5, 4, 24, 26]",6,11,"[3, 7, 8, 9, 11, 12, 15, 17, 19, 23, 28]",99.69540666,12988,967,6,21,9,1.2398543066229384
basic,79,0,0,0,0,15,"[0, 20, 5, 4, 24, 26, 15]",7,5,"[3, 7, 8, 9, 11]",62.92585404,14337,1349,3,3,9,1.2541674700124092
basic,79,0,0,1,0,15,"[0, 20, 5, 4, 24, 26, 15]",7,5,"[3, 7, 8, 9, 11]",62.92585404,15482,1145,3,3,9,1.2541674700124092
basic,80,39,0,0,0,0,[0],1,28,"[1, 2, 3, 4, 5, 6, 7, 9, 10, 11, 12, 13, 14, 15, 16, 17, 18, 19, 20, 21, 22, 23, 24, 25, 26, 27, 28, 29]",300,164,-1,1,30,10,0.0
basic,80,39,0,0,0,29,"[0, 29]",2,26,"[1, 2, 3, 4, 5, 6, 7, 9, 10, 12, 13, 14, 15, 16, 17, 18, 19, 20, 21, 22, 23, 24, 25, 26, 27, 28]",243.0614366,2977,2813,8,104,9,1.0
basic,80,39,0,0,0,12,"[0, 29, 12]",3,18,"[1, 2, 4, 5, 7, 9, 10, 13, 14, 15, 16, 18, 19, 22, 23, 24, 26, 28]",182.5221931,3976,999,5,54,9,1.0026200331524904
basic,80,39,0,0,0,10,"[0, 29, 12, 10]",4,16,"[1, 2, 4, 5, 7, 9, 13, 14, 15, 16, 18, 19, 22, 23, 24, 26]",147.0116313,5108,1132,5,34,9,1.2874817019928908
basic,80,39,0,0,0,7,"[0, 29, 12, 10, 7]",5,10,"[1, 2, 5, 13, 16, 18, 19, 22, 24, 26]",113.5900814,5904,796,4,12,9,1.2250826263866774
basic,80,39,0,0,0,26,"[0, 29, 12, 10, 7, 26]",6,5,"[1, 16, 18, 19, 22]",94.90853971,6709,805,3,4,9,1.2697275353190085
basic,80,39,0,0,0,22,"[0, 29, 12, 10, 7, 26, 22]",7,2,"[16, 19]",77.18849457,7424,715,2,0,9,1.438961743955176
basic,80,39,0,1,0,22,"[0, 29, 12, 10, 7, 26, 22]",7,2,"[16, 19]",77.18849457,9313,1889,2,0,9,1.438961743955176
basic,81,10,0,0,0,0,[0],1,29,"[1, 2, 3, 4, 5, 6, 7, 8, 9, 10, 11, 12, 13, 14, 15, 16, 17, 18, 19, 20, 21, 22, 23, 24, 25, 26, 27, 28, 29]",300,198,-1,1,100,9,0.0
basic,81,10,0,0,0,13,"[0, 13]",2,25,"[1, 2, 3, 4, 6, 7, 8, 9, 10, 11, 12, 14, 17, 18, 19, 20, 21, 22, 23, 24, 25, 26, 27, 28, 29]",249.4628849,3479,3281,1,79,9,1.0
basic,81,10,0,0,0,11,"[0, 13, 11]",3,20,"[1, 2, 3, 6, 7, 8, 9, 10, 12, 14, 18, 19, 20, 21, 22, 24, 26, 27, 28, 29]",206.4512586,4477,998,1,54,9,1.0313137484914219
basic,81,10,0,0,0,20,"[0, 13, 11, 20]",4,15,"[1, 2, 3, 6, 8, 9, 10, 12, 14, 18, 19, 21, 24, 26, 27]",168.3723931,5422,945,15,34,8,1.0874972644654597
basic,81,10,0,0,0,27,"[0, 13, 11, 20, 27]",5,11,"[1, 2, 6, 9, 10, 12, 14, 18, 19, 21, 26]",123.1175591,9204,3782,1,10,8,1.1358705803065132
basic,81,10,0,0,0,6,"[0, 13, 11, 20, 27, 6]",6,2,"[1, 9]",63.20929586,12080,2876,2,0,7,1.1155853216515053
basic,81,10,0,0,1,9,"[0, 13, 11, 20, 27, 6, 9]",7,0,[],51.54739207,13209,1129,1,0,7,1.1535987566519352
basic,81,10,0,1,1,9,"[0, 13, 11, 20, 27, 6, 9]",7,0,[],51.54739207,14399,1190,1,0,7,1.1535987566519352
basic,82,23,0,0,0,0,[0],1,28,"[1, 2, 3, 4, 5, 6, 7, 8, 9, 10, 11, 12, 13, 14, 15, 16, 17, 18, 19, 20, 21, 22, 23, 25, 26, 27, 28, 29]",300,181,-1,76,2626,10,0.0
basic,82,23,0,0,0,27,"[0, 27]",2,11,"[2, 6, 7, 9, 10, 12, 13, 14, 18, 22, 29]",156.8217894,4757,4576,6,455,9,1.0
basic,82,23,0,0,0,6,"[0, 27, 6]",3,10,"[2, 7, 9, 10, 12, 13, 14, 18, 22, 29]",128.519846,5857,1100,6,168,9,1.1413510010705277
basic,82,23,0,0,0,2,"[0, 27, 6, 2]",4,8,"[7, 9, 12, 13, 14, 18, 22, 29]",110.0807571,6664,807,3,50,9,1.3917699979429488
basic,82,23,0,0,0,14,"[0, 27, 6, 2, 14]",5,6,"[7, 9, 12, 13, 22, 29]",95.21468831,7420,756,1,12,9,1.4535117534194508
basic,82,23,0,0,0,9,"[0, 27, 6, 2, 14, 9]",6,5,"[7, 12, 13, 22, 29]",84.7743818,8204,784,1,5,9,1.6473653414995069
basic,82,23,0,0,0,12,"[0, 27, 6, 2, 14, 9, 12]",7,3,"[13, 22, 29]",70.45656074,8969,765,1,2,9,1.872467511760823
basic,82,23,0,0,0,13,"[0, 27, 6, 2, 14, 9, 12, 13]",8,1,[22],58.37351476,9859,890,1,0,9,2.1831143896555902
basic,82,23,0,1,0,13,"[0, 27, 6, 2, 14, 9, 12, 13]",8,1,[22],58.37351476,11230,1371,1,0,9,2.1831143896555902
basic,83,22,0,0,0,0,[0],1,29,"[1, 2, 3, 4, 5, 6, 7, 8, 9, 10, 11, 12, 13, 14, 15, 16, 17, 18, 19, 20, 21, 22, 23, 24, 25, 26, 27, 28, 29]",300,168,-1,31,704,9,0.0
basic,83,22,0,0,0,29,"[0, 29]",2,22,"[1, 3, 5, 6, 7, 8, 9, 11, 13, 14, 15, 16, 17, 19, 20, 21, 22, 23, 24, 25, 27, 28]",222.9935068,4054,3886,11,235,9,1.0
basic,83,22,0,0,0,19,"[0, 29, 19]",3,18,"[1, 3, 6, 7, 8, 9, 13, 14, 15, 16, 17, 20, 21, 22, 23, 24, 25, 28]",207.9602104,4743,689,11,172,9,1.1559285443414686
basic,83,22,0,0,0,9,"[0, 29, 19, 9]",4,16,"[1, 3, 6, 7, 8, 13, 14, 15, 16, 17, 20, 21, 22, 24, 25, 28]",187.5641323,5536,793,7,84,9,1.2555028175473422
basic,83,22,0,0,0,6,"[0, 29, 19, 9, 6]",5,13,"[3, 7, 13, 14, 15, 16, 17, 20, 21, 22, 24, 25, 28]",160.9370784,6191,655,17,16,8,1.5692551066355458
basic,83,22,0,0,0,16,"[0, 29, 19, 9, 6, 16]",6,5,"[7, 14, 22, 25, 28]",126.4987277,8320,2129,4,2,8,2.1316196867673534
basic,83,22,0,0,0,28,"[0, 29, 19, 9, 6, 16, 28]",7,2,"[7, 14]",92.06037699,9321,1001,2,0,8,1.8800559086622874
basic,83,22,0,1,0,28,"[0, 29, 19, 9, 6, 16, 28]",7,2,"[7, 14]",92.06037699,10483,1162,2,0,8,1.8800559086622874
basic,84,27,0,0,0,0,[0],1,26,"[1, 3, 5, 6, 7, 8, 9, 10, 11, 12, 13, 14, 15, 16, 17, 18, 19, 21, 22, 23, 24, 25, 26, 27, 28, 29]",300,188,-1,13,578,11,0.0
basic,84,27,0,0,0,15,"[0, 15]",2,24,"[1, 3, 5, 6, 7, 8, 9, 10, 11, 12, 13, 14, 16, 17, 18, 19, 21, 22, 23, 24, 25, 26, 27, 29]",263.7508621,3553,3365,6,219,11,1.0
basic,84,27,0,0,0,24,"[0, 15, 24]",3,20,"[1, 5, 6, 7, 8, 9, 10, 12, 13, 14, 16, 17, 18, 19, 21, 23, 25, 26, 27, 29]",246.5462115,4158,605,6,130,11,1.130933077698322
basic,84,27,0,0,0,17,"[0, 15, 24, 17]",4,15,"[1, 6, 8, 10, 12, 13, 14, 16, 18, 19, 23, 25, 26, 27, 29]",229.9932662,4917,759,4,60,11,1.1285538435963374
basic,84,27,0,0,0,12,"[0, 15, 24, 17, 12]",5,14,"[1, 6, 8, 10, 13, 14, 16, 18, 19, 23, 25, 26, 27, 29]",218.8129263,5517,600,2,32,11,1.2561880288755216
basic,84,27,0,0,0,10,"[0, 15, 24, 17, 12, 10]",6,11,"[1, 8, 13, 14, 18, 19, 23, 25, 26, 27, 29]",207.7675653,6224,707,2,28,11,1.2228289337766665
basic,84,27,0,0,0,13,"[0, 15, 24, 17, 12, 10, 13]",7,9,"[1, 8, 14, 18, 19, 23, 26, 27, 29]",167.9178476,6902,678,2,18,11,1.3421291994761178
basic,84,27,0,0,0,19,"[0, 15, 24, 17, 12, 10, 13, 19]",8,5,"[1, 8, 14, 23, 29]",131.6825057,7718,816,2,6,11,1.294749956153846
basic,84,27,0,0,0,8,"[0, 15, 24, 17, 12, 10, 13, 19, 8]",9,3,"[14, 23, 29]",116.816437,8557,839,2,1,11,1.3554286578836865
basic,84,27,0,1,0,8,"[0, 15, 24, 17, 12, 10, 13, 19, 8]",9,3,"[14, 23, 29]",116.816437,10829,2272,2,1,11,1.3554286578836865
basic,85,33,0,0,0,0,[0],1,23,"[1, 2, 5, 7, 8, 11, 12, 13, 14, 15, 16, 17, 18, 19, 20, 21, 23, 24, 25, 26, 27, 28, 29]",300,180,-1,5,108,9,0.0
basic,85,33,0,0,0,8,"[0, 8]",2,22,"[1, 2, 5, 7, 11, 12, 13, 14, 15, 16, 17, 18, 19, 20, 21, 23, 24, 25, 26, 27, 28, 29]",265.8679037,3772,3592,5,87,9,1.0
basic,85,33,0,0,0,21,"[0, 8, 21]",3,16,"[2, 5, 7, 11, 13, 14, 16, 17, 18, 19, 20, 24, 26, 27, 28, 29]",166.0430571,5058,1286,5,80,9,1.0670557763739492
basic,85,33,0,0,0,17,"[0, 8, 21, 17]",4,11,"[2, 7, 11, 13, 14, 16, 19, 20, 24, 26, 29]",127.4036989,5737,679,1,18,9,1.0830294710276618
basic,85,33,0,0,0,13,"[0, 8, 21, 17, 13]",5,10,"[2, 7, 11, 14, 16, 19, 20, 24, 26, 29]",104.6001904,6424,687,1,10,9,1.2861654105061844
basic,85,33,0,0,0,19,"[0, 8, 21, 17, 13, 19]",6,6,"[7, 14, 16, 24, 26, 29]",79.10509282,7338,914,1,6,9,1.3181942666818214
basic,85,33,0,1,0,19,"[0, 8, 21, 17, 13, 19]",6,6,"[7, 14, 16, 24, 26, 29]",79.10509282,9113,1775,1,6,9,1.3181942666818214
basic,86,34,0,0,0,0,[0],1,25,"[1, 3, 4, 5, 6, 7, 8, 9, 10, 11, 12, 13, 15, 18, 19, 20, 21, 22, 23, 24, 25, 26, 27, 28, 29]",300,196,-1,12,367,10,0.0
basic,86,34,0,0,0,13,"[0, 13]",2,24,"[1, 3, 4, 5, 6, 7, 8, 9, 10, 11, 12, 15, 18, 19, 20, 21, 22, 23, 24, 25, 26, 27, 28, 29]",279.9750156,2307,2111,12,331,10,1.0
basic,86,34,0,0,0,1,"[0, 13, 1]",3,16,"[3, 5, 7, 8, 9, 10, 11, 12, 19, 21, 22, 23, 24, 25, 27, 29]",211.8574701,3309,1002,3,92,10,1.0010381285747127
basic,86,34,0,0,0,8,"[0, 13, 1, 8]",4,14,"[3, 5, 7, 9, 10, 11, 12, 19, 22, 23, 24, 25, 27, 29]",201.0871405,4503,1194,2,54,10,1.1636807
basic,86,34,0,0,0,25,"[0, 13, 1, 8, 25]",5,12,"[3, 5, 7, 9, 10, 11, 12, 22, 23, 24, 27, 29]",183.999133,5336,833,2,28,10,1.1396208815936457
basic,86,34,0,0,0,24,"[0, 13, 1, 8, 25, 24]",6,11,"[3, 5, 7, 9, 10, 11, 12, 22, 23, 27, 29]",166.5062774,6674,1338,2,23,10,1.374180768736554
basic,86,34,0,0,0,12,"[0, 13, 1, 8, 25, 24, 12]",7,7,"[7, 9, 10, 11, 22, 23, 27]",115.4670767,7907,1233,1,8,10,1.4994254760835948
basic,86,34,0,0,0,7,"[0, 13, 1, 8, 25, 24, 12, 7]",8,5,"[9, 11, 22, 23, 27]",100.4337804,8859,952,1,4,10,1.758992610425009
basic,86,34,0,0,0,23,"[0, 13, 1, 8, 25, 24, 12, 7, 23]",9,1,[27],72.27352467,9487,628,1,0,10,2.399781305190153
basic,86,34,0,1,0,23,"[0, 13, 1, 8, 25, 24, 12, 7, 23]",9,1,[27],72.27352467,10380,893,1,0,10,2.399781305190153
basic,87,28,0,0,0,0,[0],1,27,"[1, 2, 3, 4, 5, 6, 7, 8, 9, 10, 11, 12, 13, 14, 15, 16, 17, 18, 19, 20, 22, 23, 25, 26, 27, 28, 29]",300,182,-1,2,96,9,0.0
basic,87,28,0,0,0,3,"[0, 3]",2,26,"[1, 2, 4, 5, 6, 7, 8, 9, 10, 11, 12, 13, 14, 15, 16, 17, 18, 19, 20, 22, 23, 25, 26, 27, 28, 29]",251.0817008,10184,10002,1,64,9,1.0
