condition,trial_id,map_id,undoIndicator,submit,checkEnd,currentChoice,chosen_all,n_city_all,n_within_reach,cities_reach,currentBudget,time_all,rt_all,n_opt_paths_all,n_subopt_paths_all,mas_all,tortuosity_all
undo,0,33,0,0,0,0,[0],1,23,"[1, 2, 5, 7, 8, 11, 12, 13, 14, 15, 16, 17, 18, 19, 20, 21, 23, 24, 25, 26, 27, 28, 29]",300,395,-1,5,108,9,0.0
undo,0,33,0,0,0,8,"[0, 8]",2,22,"[1, 2, 5, 7, 11, 12, 13, 14, 15, 16, 17, 18, 19, 20, 21, 23, 24, 25, 26, 27, 28, 29]",265.8679037,2075,1680,5,87,9,1.0
undo,0,33,0,0,0,21,"[0, 8, 21]",3,16,"[2, 5, 7, 11, 13, 14, 16, 17, 18, 19, 20, 24, 26, 27, 28, 29]",166.0430571,3323,1248,5,80,9,1.0670557763739492
undo,0,33,0,0,0,17,"[0, 8, 21, 17]",4,11,"[2, 7, 11, 13, 14, 16, 19, 20, 24, 26, 29]",127.4036989,6615,3292,1,18,9,1.0830294710276618
undo,0,33,0,0,0,13,"[0, 8, 21, 17, 13]",5,10,"[2, 7, 11, 14, 16, 19, 20, 24, 26, 29]",104.6001904,7758,1143,1,10,9,1.2861654105061844
undo,0,33,0,0,0,19,"[0, 8, 21, 17, 13, 19]",6,6,"[7, 14, 16, 24, 26, 29]",79.10509282,9142,1384,1,6,9,1.3181942666818214
undo,0,33,0,0,0,24,"[0, 8, 21, 17, 13, 19, 24]",7,1,[7],37.05750074,11972,2830,1,0,8,1.2914654832859356
undo,0,33,0,0,1,7,"[0, 8, 21, 17, 13, 19, 24, 7]",8,0,[],7.851337003,13256,1284,1,0,8,1.370940443464748
undo,0,33,0,1,1,7,"[0, 8, 21, 17, 13, 19, 24, 7]",8,0,[],7.851337003,14644,1388,1,0,8,1.370940443464748
undo,1,11,0,0,0,0,[0],1,25,"[1, 2, 3, 4, 5, 6, 8, 9, 10, 11, 12, 13, 14, 15, 16, 17, 18, 19, 20, 22, 23, 25, 26, 27, 28]",300,731,-1,6,374,12,0.0
undo,1,11,0,0,0,1,"[0, 1]",2,24,"[2, 3, 4, 5, 6, 8, 9, 10, 11, 12, 13, 14, 15, 16, 17, 18, 19, 20, 22, 23, 25, 26, 27, 28]",264.6446609,3046,2315,6,217,12,1.0
undo,1,11,0,0,0,18,"[0, 1, 18]",3,19,"[2, 4, 5, 6, 8, 9, 11, 12, 14, 15, 16, 17, 19, 20, 22, 23, 25, 27, 28]",212.3187591,5278,2232,6,161,12,1.3884463804898786
undo,1,11,0,0,0,27,"[0, 1, 18, 27]",4,18,"[2, 4, 5, 6, 8, 9, 11, 12, 14, 15, 16, 17, 19, 20, 22, 23, 25, 28]",188.4650382,7143,1865,6,155,12,1.3600813284083875
undo,1,11,0,0,0,8,"[0, 1, 18, 27, 8]",5,11,"[2, 5, 6, 11, 12, 15, 17, 19, 22, 25, 28]",118.2510795,8859,1716,4,75,12,1.2516561493067806
undo,1,11,0,0,0,17,"[0, 1, 18, 27, 8, 17]",6,10,"[2, 5, 6, 11, 12, 15, 19, 22, 25, 28]",103.9332585,10078,1219,4,40,12,1.3330781007673067
undo,1,11,0,0,0,15,"[0, 1, 18, 27, 8, 17, 15]",7,7,"[2, 5, 11, 12, 19, 22, 28]",91.28414782,10845,767,4,35,12,1.3305073448996472
undo,1,11,0,0,0,11,"[0, 1, 18, 27, 8, 17, 15, 11]",8,5,"[2, 5, 19, 22, 28]",73.17337754,11660,815,4,17,12,1.308363545391271
undo,1,11,0,0,0,28,"[0, 1, 18, 27, 8, 17, 15, 11, 28]",9,3,"[2, 5, 22]",53.7568897,12576,916,3,3,12,1.4249903205603536
undo,1,11,0,0,0,5,"[0, 1, 18, 27, 8, 17, 15, 11, 28, 5]",10,2,"[2, 22]",35.86834588,14367,1791,1,1,12,1.623497724154086
undo,1,11,0,0,0,2,"[0, 1, 18, 27, 8, 17, 15, 11, 28, 5, 2]",11,1,[22],18.86834588,15992,1625,1,0,12,1.5750723003139413
undo,1,11,0,0,1,22,"[0, 1, 18, 27, 8, 17, 15, 11, 28, 5, 2, 22]",12,0,[],8.818470263,17059,1067,1,0,12,1.5444525284394994
undo,1,11,0,1,1,22,"[0, 1, 18, 27, 8, 17, 15, 11, 28, 5, 2, 22]",12,0,[],8.818470263,18216,1157,1,0,12,1.5444525284394994
undo,2,16,0,0,0,0,[0],1,29,"[1, 2, 3, 4, 5, 6, 7, 8, 9, 10, 11, 12, 13, 14, 15, 16, 17, 18, 19, 20, 21, 22, 23, 24, 25, 26, 27, 28, 29]",300,398,-1,13,161,9,0.0
undo,2,16,0,0,0,28,"[0, 28]",2,27,"[1, 2, 3, 4, 5, 7, 8, 9, 10, 11, 12, 13, 14, 15, 16, 17, 18, 19, 20, 21, 22, 23, 24, 25, 26, 27, 29]",284.3475242,2988,2590,11,92,9,1.0
undo,2,16,0,0,0,17,"[0, 28, 17]",3,26,"[1, 2, 3, 4, 5, 7, 8, 9, 10, 11, 12, 13, 14, 15, 16, 18, 19, 20, 21, 22, 23, 24, 25, 26, 27, 29]",219.1555001,5733,2745,10,46,9,1.3773866384707543
undo,2,16,0,0,0,16,"[0, 28, 17, 16]",4,25,"[1, 2, 3, 4, 5, 7, 8, 9, 10, 11, 12, 13, 14, 15, 18, 19, 20, 21, 22, 23, 24, 25, 26, 27, 29]",190.8358956,6786,1053,10,34,9,1.3209953830681203
undo,2,16,0,0,0,21,"[0, 28, 17, 16, 21]",5,13,"[3, 5, 7, 8, 9, 10, 12, 15, 20, 22, 25, 26, 29]",146.1816685,7904,1118,4,7,9,1.8136482702070456
undo,2,16,0,0,0,8,"[0, 28, 17, 16, 21, 8]",6,6,"[5, 9, 12, 15, 20, 25]",96.92722704,13130,5226,4,2,9,1.637204572335983
undo,2,16,0,0,0,20,"[0, 28, 17, 16, 21, 8, 20]",7,2,"[9, 25]",39.15179974,14323,1193,2,0,9,1.441590377328759
undo,2,16,0,0,0,25,"[0, 28, 17, 16, 21, 8, 20, 25]",8,1,[9],26.5026891,15206,883,1,0,9,1.484361110265371
undo,2,16,0,0,1,9,"[0, 28, 17, 16, 21, 8, 20, 25, 9]",9,0,[],13.69644062,18142,2936,1,0,9,1.4530180692918209
undo,2,16,0,1,1,9,"[0, 28, 17, 16, 21, 8, 20, 25, 9]",9,0,[],13.69644062,19187,1045,1,0,9,1.4530180692918209
undo,3,40,0,0,0,0,[0],1,29,"[1, 2, 3, 4, 5, 6, 7, 8, 9, 10, 11, 12, 13, 14, 15, 16, 17, 18, 19, 20, 21, 22, 23, 24, 25, 26, 27, 28, 29]",300,406,-1,8,191,9,0.0
undo,3,40,0,0,0,1,"[0, 1]",2,18,"[2, 5, 6, 7, 8, 9, 10, 11, 13, 15, 17, 18, 19, 21, 22, 23, 27, 29]",247.8463808,2902,2496,4,80,9,1.0
undo,3,40,0,0,0,6,"[0, 1, 6]",3,17,"[2, 5, 7, 8, 9, 10, 11, 13, 15, 17, 18, 19, 21, 22, 23, 27, 29]",227.7466295,3818,916,4,74,9,1.0459427008232034
undo,3,40,0,0,0,21,"[0, 1, 6, 21]",4,8,"[2, 5, 9, 17, 18, 19, 22, 23]",175.7754837,7328,3510,4,25,9,1.0308822257404064
undo,3,40,0,0,0,9,"[0, 1, 6, 21, 9]",5,6,"[2, 5, 18, 19, 22, 23]",130.0699041,8545,1217,4,12,9,1.377861912961129
undo,3,40,0,0,0,18,"[0, 1, 6, 21, 9, 18]",6,5,"[2, 5, 19, 22, 23]",113.5169588,10643,2098,4,4,9,1.5742712168661408
undo,3,40,0,0,0,5,"[0, 1, 6, 21, 9, 18, 5]",7,3,"[19, 22, 23]",81.94165198,11642,999,2,1,9,1.7730665063055515
undo,3,40,0,0,0,23,"[0, 1, 6, 21, 9, 18, 5, 23]",8,1,[19],53.63970859,12927,1285,1,0,9,2.597442759912231
undo,3,40,0,0,1,19,"[0, 1, 6, 21, 9, 18, 5, 23, 19]",9,0,[],21.68661797,14161,1234,1,0,9,2.7128328554069565
undo,3,40,0,1,1,19,"[0, 1, 6, 21, 9, 18, 5, 23, 19]",9,0,[],21.68661797,15285,1124,1,0,9,2.7128328554069565
undo,4,26,0,0,0,0,[0],1,29,"[1, 2, 3, 4, 5, 6, 7, 8, 9, 10, 11, 12, 13, 14, 15, 16, 17, 18, 19, 20, 21, 22, 23, 24, 25, 26, 27, 28, 29]",300,409,-1,9,226,9,0.0
undo,4,26,0,0,0,21,"[0, 21]",2,25,"[2, 3, 4, 5, 6, 7, 8, 10, 11, 12, 13, 14, 15, 16, 17, 18, 19, 22, 23, 24, 25, 26, 27, 28, 29]",211.1349337,7666,7257,7,90,9,1.0
undo,4,26,0,0,0,13,"[0, 21, 13]",3,21,"[3, 4, 5, 6, 7, 8, 10, 11, 12, 14, 15, 16, 17, 18, 19, 22, 23, 24, 25, 26, 29]",188.9989901,14283,6617,6,45,9,1.0103952279992225
undo,4,26,0,0,0,16,"[0, 21, 13, 16]",4,8,"[4, 5, 6, 10, 14, 17, 23, 29]",119.9700107,15862,1579,3,23,9,1.608180021563306
undo,4,26,0,0,0,29,"[0, 21, 13, 16, 29]",5,6,"[4, 6, 10, 14, 17, 23]",95.76257383,17464,1602,3,20,9,1.6714963205667543
undo,4,26,0,0,0,4,"[0, 21, 13, 16, 29, 4]",6,4,"[6, 10, 14, 17]",71.76257383,19500,2036,3,6,9,1.8831111863826637
undo,4,26,0,0,0,17,"[0, 21, 13, 16, 29, 4, 17]",7,3,"[6, 10, 14]",50.66755072,20345,845,3,1,9,1.7547748416418751
undo,4,26,0,0,0,14,"[0, 21, 13, 16, 29, 4, 17, 14]",8,1,[6],28.19534567,21584,1239,1,0,9,1.6866342470680415
undo,4,26,0,0,1,6,"[0, 21, 13, 16, 29, 4, 17, 14, 6]",9,0,[],7.171549626,22476,892,1,0,9,1.823211641041882
undo,4,26,0,1,1,6,"[0, 21, 13, 16, 29, 4, 17, 14, 6]",9,0,[],7.171549626,23583,1107,1,0,9,1.823211641041882
undo,5,19,0,0,0,0,[0],1,29,"[1, 2, 3, 4, 5, 6, 7, 8, 9, 10, 11, 12, 13, 14, 15, 16, 17, 18, 19, 20, 21, 22, 23, 24, 25, 26, 27, 28, 29]",300,517,-1,12,149,8,0.0
undo,5,19,0,0,0,29,"[0, 29]",2,28,"[1, 2, 3, 4, 5, 6, 7, 8, 9, 10, 11, 12, 13, 14, 15, 16, 17, 18, 19, 20, 21, 22, 23, 24, 25, 26, 27, 28]",265.0715016,3050,2533,12,120,8,1.0
undo,5,19,0,0,0,9,"[0, 29, 9]",3,17,"[1, 4, 5, 6, 7, 10, 11, 12, 13, 14, 19, 20, 21, 22, 24, 27, 28]",181.7108394,7362,4312,11,65,8,1.0375842971861238
undo,5,19,0,0,0,6,"[0, 29, 9, 6]",4,12,"[4, 7, 10, 11, 13, 14, 20, 21, 22, 24, 27, 28]",140.2741407,8310,948,11,34,8,1.0389786364356892
undo,5,19,0,0,0,4,"[0, 29, 9, 6, 4]",5,7,"[10, 11, 14, 20, 22, 27, 28]",99.22538921,9751,1441,2,6,8,1.2182485830176533
undo,5,19,1,0,0,6,"[0, 29, 9, 6]",4,12,"[4, 7, 10, 11, 13, 14, 20, 21, 22, 24, 27, 28]",140.2741407,12785,3034,11,34,8,1.0389786364356892
undo,5,19,0,0,0,14,"[0, 29, 9, 6, 14]",5,7,"[4, 10, 11, 20, 22, 24, 28]",80.59164747,15293,2508,3,6,8,1.0491884155331486
undo,5,19,0,0,0,11,"[0, 29, 9, 6, 14, 11]",6,5,"[4, 20, 22, 24, 28]",69.77499364,16262,969,3,2,8,1.050030420094996
undo,5,19,0,0,0,20,"[0, 29, 9, 6, 14, 11, 20]",7,1,[22],21.97332003,18014,1752,1,0,8,1.2297732331070566
undo,5,19,0,0,1,22,"[0, 29, 9, 6, 14, 11, 20, 22]",8,0,[],8.82037359,21301,3287,1,0,8,1.3667995105273867
undo,5,19,0,1,1,22,"[0, 29, 9, 6, 14, 11, 20, 22]",8,0,[],8.82037359,22450,1149,1,0,8,1.3667995105273867
undo,6,0,0,0,0,0,[0],1,27,"[2, 3, 4, 5, 6, 7, 8, 9, 10, 11, 12, 13, 14, 15, 16, 17, 19, 20, 21, 22, 23, 24, 25, 26, 27, 28, 29]",300,380,-1,104,1136,9,0.0
undo,6,0,0,0,0,28,"[0, 28]",2,26,"[2, 3, 4, 5, 6, 7, 8, 9, 10, 11, 12, 13, 14, 15, 16, 17, 19, 20, 21, 22, 23, 24, 25, 26, 27, 29]",194.9190788,4300,3920,39,388,9,1.0
undo,6,0,0,0,0,12,"[0, 28, 12]",3,19,"[3, 4, 5, 7, 8, 9, 10, 11, 13, 14, 15, 17, 19, 20, 21, 22, 23, 24, 26]",141.7683497,5603,1303,3,43,9,1.0142012686492925
undo,6,0,0,0,0,17,"[0, 28, 12, 17]",4,15,"[3, 4, 5, 7, 8, 9, 10, 13, 14, 15, 19, 22, 23, 24, 26]",108.0340942,6633,1030,3,43,8,1.0118475378909342
undo,6,0,0,0,0,26,"[0, 28, 12, 17, 26]",5,7,"[3, 4, 5, 7, 8, 15, 24]",61.63366312,8913,2280,3,7,8,1.4754505845652224
undo,6,0,0,0,0,4,"[0, 28, 12, 17, 26, 4]",6,3,"[5, 15, 24]",49.59206854,10404,1491,2,2,8,1.5996343713290866
undo,6,0,0,0,0,24,"[0, 28, 12, 17, 26, 4, 24]",7,2,"[5, 15]",38.19031429,11379,975,2,0,8,1.5692990055407943
undo,6,0,0,0,1,15,"[0, 28, 12, 17, 26, 4, 24, 15]",8,0,[],14.84507923,12298,919,1,0,8,1.5085239434081559
undo,6,0,0,1,1,15,"[0, 28, 12, 17, 26, 4, 24, 15]",8,0,[],14.84507923,13502,1204,1,0,8,1.5085239434081559
undo,7,34,0,0,0,0,[0],1,25,"[1, 3, 4, 5, 6, 7, 8, 9, 10, 11, 12, 13, 15, 18, 19, 20, 21, 22, 23, 24, 25, 26, 27, 28, 29]",300,414,-1,12,367,10,0.0
undo,7,34,0,0,0,13,"[0, 13]",2,24,"[1, 3, 4, 5, 6, 7, 8, 9, 10, 11, 12, 15, 18, 19, 20, 21, 22, 23, 24, 25, 26, 27, 28, 29]",279.9750156,3838,3424,12,331,10,1.0
undo,7,34,0,0,0,1,"[0, 13, 1]",3,16,"[3, 5, 7, 8, 9, 10, 11, 12, 19, 21, 22, 23, 24, 25, 27, 29]",211.8574701,5123,1285,3,92,10,1.0010381285747127
undo,7,34,0,0,0,8,"[0, 13, 1, 8]",4,14,"[3, 5, 7, 9, 10, 11, 12, 19, 22, 23, 24, 25, 27, 29]",201.0871405,5963,840,2,54,10,1.1636807
undo,7,34,0,0,0,25,"[0, 13, 1, 8, 25]",5,12,"[3, 5, 7, 9, 10, 11, 12, 22, 23, 24, 27, 29]",183.999133,6771,808,2,28,10,1.1396208815936457
undo,7,34,0,0,0,24,"[0, 13, 1, 8, 25, 24]",6,11,"[3, 5, 7, 9, 10, 11, 12, 22, 23, 27, 29]",166.5062774,7621,850,2,23,10,1.374180768736554
undo,7,34,0,0,0,22,"[0, 13, 1, 8, 25, 24, 22]",7,4,"[7, 9, 10, 12]",92.1019764,10394,2773,1,3,9,1.223247043445626
undo,7,34,0,0,0,12,"[0, 13, 1, 8, 25, 24, 22, 12]",8,1,[7],29.70806644,12788,2394,1,0,9,2.196261804734323
undo,7,34,0,0,1,7,"[0, 13, 1, 8, 25, 24, 22, 12, 7]",9,0,[],14.67477006,13886,1098,1,0,9,2.514879382082941
undo,7,34,0,1,1,7,"[0, 13, 1, 8, 25, 24, 22, 12, 7]",9,0,[],14.67477006,15027,1141,1,0,9,2.514879382082941
undo,8,35,0,0,0,0,[0],1,29,"[1, 2, 3, 4, 5, 6, 7, 8, 9, 10, 11, 12, 13, 14, 15, 16, 17, 18, 19, 20, 21, 22, 23, 24, 25, 26, 27, 28, 29]",300,444,-1,5,236,11,0.0
undo,8,35,0,0,0,24,"[0, 24]",2,27,"[1, 2, 4, 5, 6, 7, 8, 9, 10, 11, 12, 13, 14, 15, 16, 17, 18, 19, 20, 21, 22, 23, 25, 26, 27, 28, 29]",268.9838752,2647,2203,49,512,10,1.0
undo,8,35,0,0,0,17,"[0, 24, 17]",3,26,"[1, 2, 4, 5, 6, 7, 8, 9, 10, 11, 12, 13, 14, 15, 16, 18, 19, 20, 21, 22, 23, 25, 26, 27, 28, 29]",257.2791753,4247,1600,33,238,10,1.0771477201815276
undo,8,35,0,0,0,1,"[0, 24, 17, 1]",4,25,"[2, 4, 5, 6, 7, 8, 9, 10, 11, 12, 13, 14, 15, 16, 18, 19, 20, 21, 22, 23, 25, 26, 27, 28, 29]",241.4677869,5046,799,26,151,10,1.2244804141479215
undo,8,35,0,0,0,15,"[0, 24, 17, 1, 15]",5,23,"[2, 4, 5, 6, 7, 8, 9, 10, 11, 12, 14, 16, 18, 19, 20, 21, 22, 23, 25, 26, 27, 28, 29]",218.6204676,6577,1531,26,78,10,1.4642196672428094
undo,8,35,0,0,0,23,"[0, 24, 17, 1, 15, 23]",6,11,"[4, 5, 6, 9, 18, 19, 25, 26, 27, 28, 29]",158.1804147,8063,1486,15,12,10,1.3338903684702363
undo,8,35,0,0,0,9,"[0, 24, 17, 1, 15, 23, 9]",7,6,"[5, 6, 18, 19, 25, 27]",120.5373542,10077,2014,6,1,10,1.5964380615155294
undo,8,35,0,0,0,18,"[0, 24, 17, 1, 15, 23, 9, 18]",8,3,"[5, 6, 25]",100.5123698,11276,1199,2,1,10,1.5508488101942703
undo,8,35,0,0,0,6,"[0, 24, 17, 1, 15, 23, 9, 18, 6]",9,1,[25],66.89689722,12939,1663,1,0,10,1.541466044761729
undo,8,35,0,0,1,25,"[0, 24, 17, 1, 15, 23, 9, 18, 6, 25]",10,0,[],42.87607292,16250,3311,1,0,10,1.5877595882523792
undo,8,35,0,1,1,25,"[0, 24, 17, 1, 15, 23, 9, 18, 6, 25]",10,0,[],42.87607292,17665,1415,1,0,10,1.5877595882523792
undo,9,22,0,0,0,0,[0],1,29,"[1, 2, 3, 4, 5, 6, 7, 8, 9, 10, 11, 12, 13, 14, 15, 16, 17, 18, 19, 20, 21, 22, 23, 24, 25, 26, 27, 28, 29]",300,407,-1,31,704,9,0.0
undo,9,22,0,0,0,16,"[0, 16]",2,21,"[1, 3, 6, 7, 8, 9, 11, 13, 14, 15, 17, 18, 19, 20, 21, 22, 24, 25, 27, 28, 29]",218.605897,6776,6369,17,147,9,1.0
undo,9,22,0,0,0,28,"[0, 16, 28]",3,13,"[6, 7, 9, 13, 14, 17, 19, 20, 21, 22, 24, 25, 29]",184.1675463,7897,1121,12,61,9,1.047282311284478
undo,9,22,0,0,0,6,"[0, 16, 28, 6]",4,12,"[7, 9, 13, 14, 17, 19, 20, 21, 22, 24, 25, 29]",154.1675463,10014,2117,12,43,9,1.645645870580622
undo,9,22,0,0,0,9,"[0, 16, 28, 6, 9]",5,8,"[7, 14, 17, 19, 20, 21, 24, 29]",127.5404924,11713,1699,8,17,9,1.925750226630103
undo,9,22,0,0,0,19,"[0, 16, 28, 6, 9, 19]",6,6,"[7, 14, 17, 21, 24, 29]",107.1444143,13073,1360,3,7,9,2.4220750331476455
undo,9,22,0,0,0,29,"[0, 16, 28, 6, 9, 19, 29]",7,4,"[7, 14, 17, 24]",92.11111796,14311,1238,2,2,9,2.6996279574991067
undo,9,22,0,0,0,14,"[0, 16, 28, 6, 9, 19, 29, 14]",8,1,[7],33.86165444,20265,5954,1,0,9,2.0544639927929462
undo,9,22,0,0,1,7,"[0, 16, 28, 6, 9, 19, 29, 14, 7]",9,0,[],20.82324963,21218,953,1,0,9,2.219817088951114
undo,9,22,0,1,1,7,"[0, 16, 28, 6, 9, 19, 29, 14, 7]",9,0,[],20.82324963,23008,1790,1,0,9,2.219817088951114
undo,10,10,0,0,0,0,[0],1,29,"[1, 2, 3, 4, 5, 6, 7, 8, 9, 10, 11, 12, 13, 14, 15, 16, 17, 18, 19, 20, 21, 22, 23, 24, 25, 26, 27, 28, 29]",300,417,-1,1,100,9,0.0
undo,10,10,0,0,0,13,"[0, 13]",2,25,"[1, 2, 3, 4, 6, 7, 8, 9, 10, 11, 12, 14, 17, 18, 19, 20, 21, 22, 23, 24, 25, 26, 27, 28, 29]",249.4628849,4074,3657,1,79,9,1.0
undo,10,10,0,0,0,11,"[0, 13, 11]",3,20,"[1, 2, 3, 6, 7, 8, 9, 10, 12, 14, 18, 19, 20, 21, 22, 24, 26, 27, 28, 29]",206.4512586,5591,1517,1,54,9,1.0313137484914219
undo,10,10,0,0,0,19,"[0, 13, 11, 19]",4,11,"[2, 6, 8, 9, 10, 14, 18, 20, 24, 26, 27]",170.0919407,7211,1620,1,22,9,1.0879446220132545
undo,10,10,0,0,0,2,"[0, 13, 11, 19, 2]",5,4,"[14, 20, 26, 27]",126.1829439,8648,1437,1,4,9,1.06474052351343
undo,10,10,0,0,0,14,"[0, 13, 11, 19, 2, 14]",6,3,"[20, 26, 27]",114.0174188,9571,923,1,3,9,1.1628909195912238
undo,10,10,0,0,0,26,"[0, 13, 11, 19, 2, 14, 26]",7,2,"[20, 27]",79.34754716,10742,1171,1,1,9,1.6660727647633602
undo,10,10,0,0,0,20,"[0, 13, 11, 19, 2, 14, 26, 20]",8,1,[27],47.56704999,11715,973,1,0,9,2.085581809637999
undo,10,10,0,0,1,27,"[0, 13, 11, 19, 2, 14, 26, 20, 27]",9,0,[],2.312215998,13452,1737,1,0,9,1.9116357409137932
undo,10,10,0,1,1,27,"[0, 13, 11, 19, 2, 14, 26, 20, 27]",9,0,[],2.312215998,16459,3007,1,0,9,1.9116357409137932
undo,11,23,0,0,0,0,[0],1,28,"[1, 2, 3, 4, 5, 6, 7, 8, 9, 10, 11, 12, 13, 14, 15, 16, 17, 18, 19, 20, 21, 22, 23, 25, 26, 27, 28, 29]",300,493,-1,76,2626,10,0.0
undo,11,23,0,0,0,18,"[0, 18]",2,14,"[2, 5, 6, 7, 9, 10, 12, 13, 14, 19, 21, 22, 27, 29]",203.8958898,3649,3156,73,787,9,1.0
undo,11,23,0,0,0,13,"[0, 18, 13]",3,11,"[2, 6, 7, 9, 10, 12, 14, 21, 22, 27, 29]",126.423314,5086,1437,20,231,9,1.5682790756110327
undo,11,23,0,0,0,12,"[0, 18, 13, 12]",4,8,"[2, 6, 7, 9, 14, 22, 27, 29]",114.340268,7633,2547,13,77,9,1.5144924966400508
undo,11,23,0,0,0,9,"[0, 18, 13, 12, 9]",5,7,"[2, 6, 7, 14, 22, 27, 29]",100.022447,8535,902,5,17,9,1.5306546341706861
undo,11,23,0,0,0,14,"[0, 18, 13, 12, 9, 14]",6,6,"[2, 6, 7, 22, 27, 29]",89.58214045,9402,867,3,5,9,1.4934900821806505
undo,11,23,0,0,0,2,"[0, 18, 13, 12, 9, 14, 2]",7,4,"[6, 22, 27, 29]",74.7160717,10666,1264,2,2,9,1.650930193481044
undo,11,23,0,0,0,6,"[0, 18, 13, 12, 9, 14, 2, 6]",8,1,[27],56.27698279,11848,1182,1,0,9,1.622190691971054
undo,11,23,0,0,1,27,"[0, 18, 13, 12, 9, 14, 2, 6, 27]",9,0,[],27.97503939,12940,1092,1,0,9,1.8999047369555018
undo,11,23,0,1,1,27,"[0, 18, 13, 12, 9, 14, 2, 6, 27]",9,0,[],27.97503939,14138,1198,1,0,9,1.8999047369555018
undo,12,28,0,0,0,0,[0],1,27,"[1, 2, 3, 4, 5, 6, 7, 8, 9, 10, 11, 12, 13, 14, 15, 16, 17, 18, 19, 20, 22, 23, 25, 26, 27, 28, 29]",300,419,-1,2,96,9,0.0
undo,12,28,0,0,0,3,"[0, 3]",2,26,"[1, 2, 4, 5, 6, 7, 8, 9, 10, 11, 12, 13, 14, 15, 16, 17, 18, 19, 20, 22, 23, 25, 26, 27, 28, 29]",251.0817008,4617,4198,1,64,9,1.0
undo,12,28,0,0,0,20,"[0, 3, 20]",3,20,"[2, 4, 5, 6, 7, 8, 9, 10, 11, 12, 13, 14, 15, 16, 18, 19, 22, 23, 26, 28]",209.7416475,6253,1636,2,29,8,1.6703057504555512
undo,12,28,0,0,0,5,"[0, 3, 20, 5]",4,13,"[2, 4, 7, 8, 9, 12, 13, 14, 15, 18, 19, 26, 28]",120.5396296,7717,1464,2,20,8,1.37668167346908
undo,12,28,0,0,0,26,"[0, 3, 20, 5, 26]",5,11,"[2, 4, 7, 8, 9, 12, 13, 14, 18, 19, 28]",87.78295093,9573,1856,2,12,8,1.3205404169494905
undo,12,28,0,0,0,2,"[0, 3, 20, 5, 26, 2]",6,1,[19],47.42207878,10650,1077,1,0,7,1.2587269560659873
undo,12,28,0,0,1,19,"[0, 3, 20, 5, 26, 2, 19]",7,0,[],10.0589954,12563,1913,1,0,7,1.587984948880798
undo,12,28,1,0,0,2,"[0, 3, 20, 5, 26, 2]",6,1,[19],47.42207878,16970,4407,1,0,7,1.2587269560659873
undo,12,28,1,0,0,26,"[0, 3, 20, 5, 26]",5,11,"[2, 4, 7, 8, 9, 12, 13, 14, 18, 19, 28]",87.78295093,17303,333,2,12,8,1.3205404169494905
undo,12,28,1,0,0,5,"[0, 3, 20, 5]",4,13,"[2, 4, 7, 8, 9, 12, 13, 14, 15, 18, 19, 26, 28]",120.5396296,17620,317,2,20,8,1.37668167346908
undo,12,28,1,0,0,20,"[0, 3, 20]",3,20,"[2, 4, 5, 6, 7, 8, 9, 10, 11, 12, 13, 14, 15, 16, 18, 19, 22, 23, 26, 28]",209.7416475,17920,300,2,29,8,1.6703057504555512
undo,12,28,1,0,0,3,"[0, 3]",2,26,"[1, 2, 4, 5, 6, 7, 8, 9, 10, 11, 12, 13, 14, 15, 16, 17, 18, 19, 20, 22, 23, 25, 26, 27, 28, 29]",251.0817008,18368,448,1,64,9,1.0
undo,12,28,1,0,0,0,[0],1,27,"[1, 2, 3, 4, 5, 6, 7, 8, 9, 10, 11, 12, 13, 14, 15, 16, 17, 18, 19, 20, 22, 23, 25, 26, 27, 28, 29]",300,18986,618,2,96,9,0.0
undo,12,28,0,0,0,3,"[0, 3]",2,26,"[1, 2, 4, 5, 6, 7, 8, 9, 10, 11, 12, 13, 14, 15, 16, 17, 18, 19, 20, 22, 23, 25, 26, 27, 28, 29]",251.0817008,22449,3463,1,64,9,1.0
undo,12,28,0,0,0,14,"[0, 3, 14]",3,13,"[1, 2, 5, 7, 10, 11, 12, 13, 17, 18, 19, 20, 26]",142.7396498,23915,1466,19,59,8,1.0338694802207566
undo,12,28,0,0,0,18,"[0, 3, 14, 18]",4,10,"[1, 2, 5, 7, 11, 12, 13, 17, 19, 26]",117.2445523,25351,1436,18,18,8,1.098527225277385
undo,12,28,0,0,0,13,"[0, 3, 14, 18, 13]",5,7,"[2, 7, 11, 12, 17, 19, 26]",92.83144103,26534,1183,8,6,8,1.0872780601597938
undo,12,28,0,0,0,12,"[0, 3, 14, 18, 13, 12]",6,3,"[2, 7, 19]",75.6267905,30780,4246,3,1,8,1.0890748557820906
undo,12,28,0,0,0,7,"[0, 3, 14, 18, 13, 12, 7]",7,2,"[2, 19]",62.47384406,33724,2944,2,0,8,1.2125627495730145
undo,12,28,0,0,1,19,"[0, 3, 14, 18, 13, 12, 7, 19]",8,0,[],34.74299481,35756,2032,1,0,8,1.4527925513951803
undo,12,28,0,1,1,19,"[0, 3, 14, 18, 13, 12, 7, 19]",8,0,[],34.74299481,39896,4140,1,0,8,1.4527925513951803
undo,13,27,0,0,0,0,[0],1,26,"[1, 3, 5, 6, 7, 8, 9, 10, 11, 12, 13, 14, 15, 16, 17, 18, 19, 21, 22, 23, 24, 25, 26, 27, 28, 29]",300,421,-1,13,578,11,0.0
undo,13,27,0,0,0,15,"[0, 15]",2,24,"[1, 3, 5, 6, 7, 8, 9, 10, 11, 12, 13, 14, 16, 17, 18, 19, 21, 22, 23, 24, 25, 26, 27, 29]",263.7508621,2429,2008,6,219,11,1.0
undo,13,27,0,0,0,24,"[0, 15, 24]",3,20,"[1, 5, 6, 7, 8, 9, 10, 12, 13, 14, 16, 17, 18, 19, 21, 23, 25, 26, 27, 29]",246.5462115,3432,1003,6,130,11,1.130933077698322
undo,13,27,0,0,0,17,"[0, 15, 24, 17]",4,15,"[1, 6, 8, 10, 12, 13, 14, 16, 18, 19, 23, 25, 26, 27, 29]",229.9932662,4412,980,4,60,11,1.1285538435963374
undo,13,27,0,0,0,12,"[0, 15, 24, 17, 12]",5,14,"[1, 6, 8, 10, 13, 14, 16, 18, 19, 23, 25, 26, 27, 29]",218.8129263,5530,1118,2,32,11,1.2561880288755216
undo,13,27,0,0,0,10,"[0, 15, 24, 17, 12, 10]",6,11,"[1, 8, 13, 14, 18, 19, 23, 25, 26, 27, 29]",207.7675653,6366,836,2,28,11,1.2228289337766665
undo,13,27,0,0,0,13,"[0, 15, 24, 17, 12, 10, 13]",7,9,"[1, 8, 14, 18, 19, 23, 26, 27, 29]",167.9178476,7586,1220,2,18,11,1.3421291994761178
undo,13,27,0,0,0,23,"[0, 15, 24, 17, 12, 10, 13, 23]",8,6,"[1, 8, 18, 19, 26, 27]",108.3024133,11144,3558,6,2,10,2.5203738437563388
undo,13,27,0,0,0,1,"[0, 15, 24, 17, 12, 10, 13, 23, 1]",9,2,"[18, 27]",60.26076475,14626,3482,2,0,10,3.2940040527163665
undo,13,27,0,0,1,27,"[0, 15, 24, 17, 12, 10, 13, 23, 1, 27]",10,0,[],30.02833184,15627,1001,1,0,10,4.768745803615311
undo,13,27,0,1,1,27,"[0, 15, 24, 17, 12, 10, 13, 23, 1, 27]",10,0,[],30.02833184,20501,4874,1,0,10,4.768745803615311
undo,14,29,0,0,0,0,[0],1,29,"[1, 2, 3, 4, 5, 6, 7, 8, 9, 10, 11, 12, 13, 14, 15, 16, 17, 18, 19, 20, 21, 22, 23, 24, 25, 26, 27, 28, 29]",300,525,-1,1,78,9,0.0
undo,14,29,0,0,0,6,"[0, 6]",2,28,"[1, 2, 3, 4, 5, 7, 8, 9, 10, 11, 12, 13, 14, 15, 16, 17, 18, 19, 20, 21, 22, 23, 24, 25, 26, 27, 28, 29]",228.4108947,3129,2604,1,25,9,1.0
undo,14,29,0,0,0,28,"[0, 6, 28]",3,24,"[1, 3, 4, 5, 7, 9, 10, 11, 12, 13, 14, 15, 16, 17, 18, 20, 21, 22, 23, 24, 25, 26, 27, 29]",187.1798384,7190,4061,1,22,9,1.162106788166845
undo,14,29,0,0,0,27,"[0, 6, 28, 27]",4,19,"[1, 3, 4, 5, 7, 9, 10, 11, 12, 13, 14, 15, 16, 21, 22, 23, 25, 26, 29]",166.6615539,9216,2026,1,21,9,1.2307173895439045
undo,14,29,0,0,0,22,"[0, 6, 28, 27, 22]",5,13,"[1, 3, 4, 5, 7, 9, 12, 13, 14, 15, 21, 26, 29]",133.4200136,10329,1113,1,19,9,1.4241767805149903
undo,14,29,0,0,0,12,"[0, 6, 28, 27, 22, 12]",6,8,"[4, 5, 7, 9, 13, 14, 21, 26]",95.4726817,11398,1069,1,6,9,1.3248355326460857
undo,14,29,0,0,0,7,"[0, 6, 28, 27, 22, 12, 7]",7,4,"[4, 5, 9, 21]",81.87121119,12281,883,1,3,9,1.3264091962339806
undo,14,29,0,0,0,9,"[0, 6, 28, 27, 22, 12, 7, 9]",8,1,[4],52.80232748,14065,1784,1,0,9,1.309391257644539
undo,14,29,0,0,1,4,"[0, 6, 28, 27, 22, 12, 7, 9, 4]",9,0,[],11.76575843,15363,1298,1,0,9,1.6396807789841599
undo,14,29,0,1,1,4,"[0, 6, 28, 27, 22, 12, 7, 9, 4]",9,0,[],11.76575843,20066,4703,1,0,9,1.6396807789841599
undo,15,7,0,0,0,0,[0],1,29,"[1, 2, 3, 4, 5, 6, 7, 8, 9, 10, 11, 12, 13, 14, 15, 16, 17, 18, 19, 20, 21, 22, 23, 24, 25, 26, 27, 28, 29]",300,400,-1,3,79,9,0.0
undo,15,7,0,0,0,15,"[0, 15]",2,19,"[2, 4, 5, 6, 7, 8, 9, 10, 13, 14, 16, 18, 19, 20, 21, 23, 25, 27, 28]",230.9348134,4865,4465,2,38,9,1.0
undo,15,7,0,0,0,6,"[0, 15, 6]",3,18,"[2, 4, 5, 7, 8, 9, 10, 13, 14, 16, 18, 19, 20, 21, 23, 25, 27, 28]",205.854941,6234,1369,2,36,9,1.366719602896943
undo,15,7,0,0,0,25,"[0, 15, 6, 25]",4,11,"[2, 4, 7, 13, 14, 16, 18, 19, 20, 21, 23]",138.6760753,7581,1347,2,28,9,1.3624631728355765
undo,15,7,0,0,0,4,"[0, 15, 6, 25, 4]",5,7,"[2, 7, 13, 16, 18, 19, 20]",113.9374415,9165,1584,2,12,9,1.3249684384385587
undo,15,7,0,0,0,20,"[0, 15, 6, 25, 4, 20]",6,5,"[2, 7, 13, 18, 19]",94.29055881,11426,2261,1,6,9,1.3721893242679268
undo,15,7,0,0,0,18,"[0, 15, 6, 25, 4, 20, 18]",7,3,"[7, 13, 19]",81.48431034,13178,1752,1,2,9,1.5262542308371432
undo,15,7,0,0,0,7,"[0, 15, 6, 25, 4, 20, 18, 7]",8,1,[19],40.25325408,16095,2917,1,0,9,1.41986878673423
undo,15,7,0,0,1,19,"[0, 15, 6, 25, 4, 20, 18, 7, 19]",9,0,[],10.84237174,17794,1699,1,0,9,1.5285658163212987
undo,15,7,0,1,1,19,"[0, 15, 6, 25, 4, 20, 18, 7, 19]",9,0,[],10.84237174,21300,3506,1,0,9,1.5285658163212987
undo,16,4,0,0,0,0,[0],1,26,"[3, 4, 5, 6, 7, 8, 10, 11, 12, 13, 14, 15, 16, 17, 18, 19, 20, 21, 22, 23, 24, 25, 26, 27, 28, 29]",300,404,-1,4,489,10,0.0
undo,16,4,0,0,0,28,"[0, 28]",2,21,"[3, 4, 5, 6, 10, 11, 12, 13, 14, 15, 16, 17, 19, 20, 21, 22, 23, 24, 25, 26, 27]",225.9392142,9144,8740,2,216,10,1.0
undo,16,4,0,0,0,14,"[0, 28, 14]",3,13,"[3, 4, 5, 6, 11, 13, 16, 17, 20, 21, 22, 24, 25]",159.6972335,10578,1434,1,26,10,1.0273973946789214
undo,16,4,0,0,0,3,"[0, 28, 14, 3]",4,9,"[5, 6, 11, 16, 17, 20, 21, 22, 25]",118.2605348,13145,2567,15,33,8,1.042004611235019
undo,16,4,0,0,0,17,"[0, 28, 14, 3, 17]",5,7,"[5, 11, 16, 20, 21, 22, 25]",93.74523345,14359,1214,12,8,8,1.2582827482364494
undo,16,4,0,0,0,16,"[0, 28, 14, 3, 17, 16]",6,5,"[11, 20, 21, 22, 25]",67.66842383,15510,1151,5,1,8,1.685466052833385
undo,16,4,0,0,0,25,"[0, 28, 14, 3, 17, 16, 25]",7,1,[11],46.1277646,16710,1200,1,0,8,2.0019751441434934
undo,16,4,0,0,1,11,"[0, 28, 14, 3, 17, 16, 25, 11]",8,0,[],27.33947038,17750,1040,1,0,8,2.2190268819609207
undo,16,4,1,0,0,25,"[0, 28, 14, 3, 17, 16, 25]",7,1,[11],46.1277646,20150,2400,1,0,8,2.0019751441434934
undo,16,4,1,0,0,16,"[0, 28, 14, 3, 17, 16]",6,5,"[11, 20, 21, 22, 25]",67.66842383,20482,332,5,1,8,1.685466052833385
undo,16,4,1,0,0,17,"[0, 28, 14, 3, 17]",5,7,"[5, 11, 16, 20, 21, 22, 25]",93.74523345,20832,350,12,8,8,1.2582827482364494
undo,16,4,1,0,0,3,"[0, 28, 14, 3]",4,9,"[5, 6, 11, 16, 17, 20, 21, 22, 25]",118.2605348,21198,366,15,33,8,1.042004611235019
undo,16,4,1,0,0,14,"[0, 28, 14]",3,13,"[3, 4, 5, 6, 11, 13, 16, 17, 20, 21, 22, 24, 25]",159.6972335,21698,500,1,26,10,1.0273973946789214
undo,16,4,1,0,0,28,"[0, 28]",2,21,"[3, 4, 5, 6, 10, 11, 12, 13, 14, 15, 16, 17, 19, 20, 21, 22, 23, 24, 25, 26, 27]",225.9392142,22065,367,2,216,10,1.0
undo,16,4,1,0,0,0,[0],1,26,"[3, 4, 5, 6, 7, 8, 10, 11, 12, 13, 14, 15, 16, 17, 18, 19, 20, 21, 22, 23, 24, 25, 26, 27, 28, 29]",300,22731,666,4,489,10,0.0
undo,16,4,0,0,0,13,"[0, 13]",2,23,"[3, 4, 5, 6, 7, 10, 11, 12, 14, 15, 16, 17, 19, 20, 21, 22, 23, 24, 25, 26, 27, 28, 29]",232.1030192,25492,2761,2,270,10,1.0
undo,16,4,0,0,0,4,"[0, 13, 4]",3,21,"[3, 5, 6, 10, 11, 12, 14, 15, 16, 17, 19, 20, 21, 22, 23, 24, 25, 26, 27, 28, 29]",196.0336416,27671,2179,5,140,9,1.1054622425974667
undo,16,4,0,0,0,21,"[0, 13, 4, 21]",4,12,"[3, 5, 11, 12, 14, 16, 17, 20, 22, 24, 25, 28]",122.3722542,29156,1485,3,41,9,1.2018071400314605
undo,16,4,0,0,0,22,"[0, 13, 4, 21, 22]",5,11,"[3, 5, 11, 12, 14, 16, 17, 20, 24, 25, 28]",111.3268932,31174,2018,3,24,9,1.189166080366007
undo,16,4,0,0,0,20,"[0, 13, 4, 21, 22, 20]",6,7,"[3, 5, 11, 16, 17, 24, 25]",81.09446024,32470,1296,5,4,8,1.1979951122629293
undo,16,4,0,0,0,17,"[0, 13, 4, 21, 22, 20, 17]",7,2,"[3, 16]",40.87008952,34139,1669,2,0,8,1.5808541124308844
undo,16,4,0,0,1,3,"[0, 13, 4, 21, 22, 20, 17, 3]",8,0,[],16.35478818,35419,1280,1,0,8,1.626281987491915
undo,16,4,1,0,0,17,"[0, 13, 4, 21, 22, 20, 17]",7,2,"[3, 16]",40.87008952,40759,5340,2,0,8,1.5808541124308844
undo,16,4,1,0,0,20,"[0, 13, 4, 21, 22, 20]",6,7,"[3, 5, 11, 16, 17, 24, 25]",81.09446024,41325,566,5,4,8,1.1979951122629293
undo,16,4,1,0,0,22,"[0, 13, 4, 21, 22]",5,11,"[3, 5, 11, 12, 14, 16, 17, 20, 24, 25, 28]",111.3268932,41675,350,3,24,9,1.189166080366007
undo,16,4,1,0,0,21,"[0, 13, 4, 21]",4,12,"[3, 5, 11, 12, 14, 16, 17, 20, 22, 24, 25, 28]",122.3722542,42058,383,3,41,9,1.2018071400314605
undo,16,4,1,0,0,4,"[0, 13, 4]",3,21,"[3, 5, 6, 10, 11, 12, 14, 15, 16, 17, 19, 20, 21, 22, 23, 24, 25, 26, 27, 28, 29]",196.0336416,42409,351,5,140,9,1.1054622425974667
undo,16,4,1,0,0,13,"[0, 13]",2,23,"[3, 4, 5, 6, 7, 10, 11, 12, 14, 15, 16, 17, 19, 20, 21, 22, 23, 24, 25, 26, 27, 28, 29]",232.1030192,42758,349,2,270,10,1.0
undo,16,4,1,0,0,0,[0],1,26,"[3, 4, 5, 6, 7, 8, 10, 11, 12, 13, 14, 15, 16, 17, 18, 19, 20, 21, 22, 23, 24, 25, 26, 27, 28, 29]",300,43125,367,4,489,10,0.0
undo,16,4,0,0,0,14,"[0, 14]",2,15,"[3, 4, 5, 6, 11, 13, 16, 17, 20, 21, 22, 23, 24, 25, 28]",163.4386585,45868,2743,1,44,9,1.0
undo,16,4,0,0,0,25,"[0, 14, 25]",3,13,"[3, 4, 5, 6, 11, 13, 16, 17, 20, 21, 22, 24, 28]",147.314143,48133,2265,1,39,9,1.2040437982303591
undo,16,4,0,0,0,11,"[0, 14, 25, 11]",4,11,"[3, 4, 5, 6, 13, 16, 17, 20, 21, 22, 28]",128.5258487,49033,900,1,23,9,1.3955292752729385
undo,16,4,0,0,0,16,"[0, 14, 25, 11, 16]",5,10,"[3, 4, 5, 6, 13, 17, 20, 21, 22, 28]",113.5258487,49883,850,1,18,9,1.3527900810051412
undo,16,4,0,0,0,17,"[0, 14, 25, 11, 16, 17]",6,5,"[3, 5, 20, 21, 22]",87.44903913,50815,932,1,6,9,1.2966934614767651
undo,16,4,0,0,0,20,"[0, 14, 25, 11, 16, 17, 20]",7,3,"[5, 21, 22]",47.2246684,55232,4417,1,2,9,1.3833528931677375
undo,16,4,0,0,1,21,"[0, 14, 25, 11, 16, 17, 20, 21]",8,0,[],9.014722055,58930,3698,1,0,8,1.9687700426716785
undo,16,4,1,0,0,20,"[0, 14, 25, 11, 16, 17, 20]",7,3,"[5, 21, 22]",47.2246684,64299,5369,1,2,9,1.3833528931677375
undo,16,4,1,0,0,17,"[0, 14, 25, 11, 16, 17]",6,5,"[3, 5, 20, 21, 22]",87.44903913,64535,236,1,6,9,1.2966934614767651
undo,16,4,1,0,0,16,"[0, 14, 25, 11, 16]",5,10,"[3, 4, 5, 6, 13, 17, 20, 21, 22, 28]",113.5258487,64783,248,1,18,9,1.3527900810051412
undo,16,4,1,0,0,11,"[0, 14, 25, 11]",4,11,"[3, 4, 5, 6, 13, 16, 17, 20, 21, 22, 28]",128.5258487,65017,234,1,23,9,1.3955292752729385
undo,16,4,1,0,0,25,"[0, 14, 25]",3,13,"[3, 4, 5, 6, 11, 13, 16, 17, 20, 21, 22, 24, 28]",147.314143,65267,250,1,39,9,1.2040437982303591
undo,16,4,1,0,0,14,"[0, 14]",2,15,"[3, 4, 5, 6, 11, 13, 16, 17, 20, 21, 22, 23, 24, 25, 28]",163.4386585,65649,382,1,44,9,1.0
undo,16,4,1,0,0,0,[0],1,26,"[3, 4, 5, 6, 7, 8, 10, 11, 12, 13, 14, 15, 16, 17, 18, 19, 20, 21, 22, 23, 24, 25, 26, 27, 28, 29]",300,65952,303,4,489,10,0.0
undo,16,4,0,0,0,4,"[0, 4]",2,23,"[3, 5, 6, 7, 10, 11, 12, 13, 14, 15, 16, 17, 19, 20, 21, 22, 23, 24, 25, 26, 27, 28, 29]",205.9521398,70148,4196,96,515,8,1.0
undo,16,4,0,0,0,13,"[0, 4, 13]",3,19,"[3, 5, 6, 10, 11, 12, 14, 15, 16, 17, 19, 20, 21, 22, 23, 24, 25, 26, 28]",169.8827622,71207,1059,68,178,8,1.9163921030311182
undo,16,4,0,0,0,28,"[0, 4, 13, 28]",4,13,"[3, 5, 6, 11, 14, 15, 16, 17, 20, 21, 22, 23, 25]",138.3074554,73309,2102,51,55,8,2.183241006085084
undo,16,4,0,0,0,11,"[0, 4, 13, 28, 11]",5,9,"[3, 6, 14, 16, 17, 20, 21, 22, 25]",89.4300578,74893,1584,25,13,8,1.713707381577987
undo,16,4,0,0,0,16,"[0, 4, 13, 28, 11, 16]",6,7,"[3, 14, 17, 20, 21, 22, 25]",74.4300578,75891,998,12,1,8,1.636413295106725
undo,16,4,0,0,0,17,"[0, 4, 13, 28, 11, 16, 17]",7,4,"[3, 14, 20, 25]",48.35324818,77909,2018,4,0,8,1.5352021762274533
undo,16,4,0,0,1,25,"[0, 4, 13, 28, 11, 16, 17, 25]",8,0,[],5.926841311,80703,2794,1,0,8,2.3189899176156357
undo,16,4,0,1,1,25,"[0, 4, 13, 28, 11, 16, 17, 25]",8,0,[],5.926841311,81383,680,1,0,8,2.3189899176156357
undo,17,1,0,0,0,0,[0],1,26,"[1, 2, 4, 5, 7, 8, 9, 10, 11, 12, 13, 14, 15, 16, 17, 18, 19, 20, 21, 22, 23, 24, 25, 26, 28, 29]",300,383,-1,6,74,7,0.0
undo,17,1,0,0,0,24,"[0, 24]",2,8,"[5, 7, 8, 14, 16, 19, 20, 26]",185.4137879,6255,5872,9,13,5,1.0
undo,17,1,0,0,0,26,"[0, 24, 26]",3,6,"[5, 8, 14, 16, 19, 20]",152.1722476,7711,1456,7,4,5,1.502125301442057
undo,17,1,0,0,0,19,"[0, 24, 26, 19]",4,4,"[5, 8, 16, 20]",113.5458318,9720,2009,4,0,5,1.5438989781695114
undo,17,1,0,0,1,8,"[0, 24, 26, 19, 8]",5,0,[],60.39510274,10903,1183,1,0,5,2.44494793122449
undo,17,1,0,1,1,8,"[0, 24, 26, 19, 8]",5,0,[],60.39510274,13512,2609,1,0,5,2.44494793122449
undo,18,3,0,0,0,0,[0],1,29,"[1, 2, 3, 4, 5, 6, 7, 8, 9, 10, 11, 12, 13, 14, 15, 16, 17, 18, 19, 20, 21, 22, 23, 24, 25, 26, 27, 28, 29]",300,362,-1,34,427,10,0.0
undo,18,3,0,0,0,7,"[0, 7]",2,28,"[1, 2, 3, 4, 5, 6, 8, 9, 10, 11, 12, 13, 14, 15, 16, 17, 18, 19, 20, 21, 22, 23, 24, 25, 26, 27, 28, 29]",278.8103799,3079,2717,24,215,10,1.0
undo,18,3,0,0,0,15,"[0, 7, 15]",3,27,"[1, 2, 3, 4, 5, 6, 8, 9, 10, 11, 12, 13, 14, 16, 17, 18, 19, 20, 21, 22, 23, 24, 25, 26, 27, 28, 29]",248.7437871,4950,1871,12,119,9,1.6104297774092982
undo,18,3,0,0,0,16,"[0, 7, 15, 16]",4,20,"[1, 2, 3, 4, 8, 9, 10, 11, 12, 14, 17, 18, 19, 20, 21, 22, 24, 25, 26, 27]",209.6285727,7377,2427,4,38,9,2.9091591777507437
undo,18,3,0,0,0,24,"[0, 7, 15, 16, 24]",5,10,"[3, 4, 8, 10, 14, 17, 19, 20, 21, 22]",125.3374107,9346,1969,16,15,8,2.9676381977204396
undo,18,3,0,0,0,8,"[0, 7, 15, 16, 24, 8]",6,9,"[3, 4, 10, 14, 17, 19, 20, 21, 22]",113.1718856,10326,980,9,3,8,3.11207345695998
undo,18,3,0,0,0,4,"[0, 7, 15, 16, 24, 8, 4]",7,1,[10],57.5122054,12297,1971,1,0,8,2.1162039497388867
undo,18,3,0,0,1,10,"[0, 7, 15, 16, 24, 8, 4, 10]",8,0,[],3.688418836,17839,5542,1,0,8,1.8818460238243528
undo,18,3,0,1,1,10,"[0, 7, 15, 16, 24, 8, 4, 10]",8,0,[],3.688418836,19000,1161,1,0,8,1.8818460238243528
undo,19,13,0,0,0,0,[0],1,29,"[1, 2, 3, 4, 5, 6, 7, 8, 9, 10, 11, 12, 13, 14, 15, 16, 17, 18, 19, 20, 21, 22, 23, 24, 25, 26, 27, 28, 29]",300,429,-1,60,2676,11,0.0
undo,19,13,0,0,0,21,"[0, 21]",2,28,"[1, 2, 3, 4, 5, 6, 7, 8, 9, 10, 11, 12, 13, 14, 15, 16, 17, 18, 19, 20, 22, 23, 24, 25, 26, 27, 28, 29]",271.3469024,2247,1818,20,656,11,1.0
undo,19,13,0,0,0,9,"[0, 21, 9]",3,25,"[1, 2, 3, 4, 5, 6, 7, 8, 10, 11, 12, 13, 14, 15, 16, 17, 19, 20, 22, 23, 24, 26, 27, 28, 29]",248.0016674,3281,1034,19,366,11,1.6747535253042172
undo,19,13,0,0,0,24,"[0, 21, 9, 24]",4,24,"[1, 2, 3, 4, 5, 6, 7, 8, 10, 11, 12, 13, 14, 15, 16, 17, 19, 20, 22, 23, 26, 27, 28, 29]",205.9421857,4346,1065,19,307,11,8.412786663594071
undo,19,13,0,0,0,23,"[0, 21, 9, 24, 23]",5,21,"[1, 2, 3, 4, 6, 7, 8, 10, 11, 12, 13, 15, 16, 17, 19, 20, 22, 26, 27, 28, 29]",160.2366062,5643,1297,7,121,11,2.4730106231921805
undo,19,13,0,0,0,26,"[0, 21, 9, 24, 23, 26]",6,10,"[1, 2, 6, 7, 11, 13, 16, 19, 28, 29]",100.6967036,7295,1652,3,35,11,2.083208556234683
undo,19,13,0,0,0,7,"[0, 21, 9, 24, 23, 26, 7]",7,8,"[1, 2, 6, 11, 13, 16, 28, 29]",90.25639706,8344,1049,14,11,10,1.9925941170659265
undo,19,13,0,0,0,29,"[0, 21, 9, 24, 23, 26, 7, 29]",8,5,"[1, 2, 6, 11, 28]",74.99205954,9541,1197,6,2,10,2.021527799573075
undo,19,13,0,0,0,2,"[0, 21, 9, 24, 23, 26, 7, 29, 2]",9,4,"[1, 6, 11, 28]",63.28735963,10411,870,4,0,10,2.1599810749266712
undo,19,13,0,0,1,28,"[0, 21, 9, 24, 23, 26, 7, 29, 2, 28]",10,0,[],25.64429918,11943,1532,1,0,10,3.7235232329893426
undo,19,13,0,1,1,28,"[0, 21, 9, 24, 23, 26, 7, 29, 2, 28]",10,0,[],25.64429918,13002,1059,1,0,10,3.7235232329893426
undo,20,31,0,0,0,0,[0],1,27,"[1, 3, 4, 5, 6, 7, 8, 10, 11, 12, 13, 14, 15, 16, 17, 18, 19, 20, 21, 22, 23, 24, 25, 26, 27, 28, 29]",300,414,-1,2,87,10,0.0
undo,20,31,0,0,0,14,"[0, 14]",2,25,"[1, 3, 5, 6, 7, 8, 10, 11, 12, 13, 15, 16, 17, 18, 19, 20, 21, 22, 23, 24, 25, 26, 27, 28, 29]",263.861378,3152,2738,2,59,10,1.0
undo,20,31,0,0,0,27,"[0, 14, 27]",3,22,"[1, 3, 5, 6, 7, 8, 10, 11, 12, 13, 15, 16, 17, 18, 19, 20, 21, 22, 24, 25, 28, 29]",235.6833724,4833,1681,1,39,10,1.5881859159302467
undo,20,31,0,0,0,8,"[0, 14, 27, 8]",4,20,"[1, 3, 5, 6, 7, 10, 11, 12, 13, 16, 17, 18, 19, 20, 21, 22, 24, 25, 28, 29]",224.6380114,5683,850,1,36,10,2.1665048452331277
undo,20,31,0,0,0,18,"[0, 14, 27, 8, 18]",5,15,"[1, 5, 6, 7, 11, 12, 13, 16, 17, 19, 20, 22, 25, 28, 29]",188.7911147,6864,1181,1,26,10,1.7273375741920205
undo,20,31,0,0,0,11,"[0, 14, 27, 8, 18, 11]",6,11,"[1, 5, 7, 12, 16, 17, 19, 20, 22, 25, 28]",153.9055876,8513,1649,13,17,9,2.386348208737804
undo,20,31,0,0,0,5,"[0, 14, 27, 8, 18, 11, 5]",7,5,"[16, 17, 20, 25, 28]",110.2249283,9657,1144,3,3,9,2.163249612867222
undo,20,31,0,0,0,28,"[0, 14, 27, 8, 18, 11, 5, 28]",8,2,"[16, 17]",90.00117988,11781,2124,2,0,9,1.9564635733184719
undo,20,31,0,0,1,17,"[0, 14, 27, 8, 18, 11, 5, 28, 17]",9,0,[],0.956247404,13747,1966,1,0,9,3.3035946495935673
undo,20,31,0,1,1,17,"[0, 14, 27, 8, 18, 11, 5, 28, 17]",9,0,[],0.956247404,14971,1224,1,0,9,3.3035946495935673
undo,21,39,0,0,0,0,[0],1,28,"[1, 2, 3, 4, 5, 6, 7, 9, 10, 11, 12, 13, 14, 15, 16, 17, 18, 19, 20, 21, 22, 23, 24, 25, 26, 27, 28, 29]",300,427,-1,1,30,10,0.0
undo,21,39,0,0,0,29,"[0, 29]",2,26,"[1, 2, 3, 4, 5, 6, 7, 9, 10, 12, 13, 14, 15, 16, 17, 18, 19, 20, 21, 22, 23, 24, 25, 26, 27, 28]",243.0614366,2061,1634,8,104,9,1.0
undo,21,39,0,0,0,23,"[0, 29, 23]",3,12,"[1, 4, 5, 7, 10, 12, 14, 15, 22, 24, 26, 28]",182.9282511,4002,1941,12,17,6,1.9066958929652547
undo,21,39,0,0,0,15,"[0, 29, 23, 15]",4,4,"[1, 10, 12, 24]",108.1953935,5402,1400,1,3,6,1.5115851205640898
undo,21,39,0,0,0,12,"[0, 29, 23, 15, 12]",5,1,[10],37.98143481,6321,919,1,0,6,2.236210135766212
undo,21,39,0,0,1,10,"[0, 29, 23, 15, 12, 10]",6,0,[],2.470873003,7618,1297,1,0,6,2.5038720921962256
undo,21,39,0,1,1,10,"[0, 29, 23, 15, 12, 10]",6,0,[],2.470873003,9424,1806,1,0,6,2.5038720921962256
undo,22,36,0,0,0,0,[0],1,24,"[2, 4, 5, 6, 7, 8, 9, 10, 12, 13, 14, 15, 16, 17, 18, 19, 20, 22, 23, 25, 26, 27, 28, 29]",300,380,-1,2,200,10,0.0
undo,22,36,0,0,0,18,"[0, 18]",2,21,"[2, 4, 5, 6, 7, 8, 9, 10, 12, 13, 14, 16, 17, 19, 22, 23, 25, 26, 27, 28, 29]",279.6039219,2737,2357,2,110,10,1.0
undo,22,36,0,0,0,9,"[0, 18, 9]",3,14,"[2, 4, 8, 10, 12, 13, 16, 17, 19, 23, 25, 27, 28, 29]",200.2944017,5168,2431,15,121,9,1.443644811653489
undo,22,36,0,0,0,19,"[0, 18, 9, 19]",4,12,"[2, 4, 8, 10, 12, 13, 16, 17, 23, 25, 27, 29]",185.1616558,7107,1939,8,45,9,1.489900087961834
undo,22,36,0,0,0,17,"[0, 18, 9, 19, 17]",5,7,"[2, 10, 12, 13, 16, 23, 25]",157.2690044,8336,1229,2,14,9,1.5101484045772522
undo,22,36,0,0,0,16,"[0, 18, 9, 19, 17, 16]",6,4,"[2, 12, 13, 25]",128.9493999,9383,1047,2,3,9,1.6025277308399788
undo,22,36,0,0,0,2,"[0, 18, 9, 19, 17, 16, 2]",7,2,"[13, 25]",62.30106907,10473,1090,2,0,9,2.1048495002974925
undo,22,36,0,0,0,25,"[0, 18, 9, 19, 17, 16, 2, 25]",8,1,[13],37.30106907,11474,1001,1,0,9,2.29451070931486
undo,22,36,0,0,1,13,"[0, 18, 9, 19, 17, 16, 2, 25, 13]",9,0,[],16.70980879,13611,2137,1,0,9,2.8883113144263874
undo,22,36,0,1,1,13,"[0, 18, 9, 19, 17, 16, 2, 25, 13]",9,0,[],16.70980879,15439,1828,1,0,9,2.8883113144263874
basic,23,41,0,0,0,0,[0],1,29,"[1, 2, 3, 4, 5, 6, 7, 8, 9, 10, 11, 12, 13, 14, 15, 16, 17, 18, 19, 20, 21, 22, 23, 24, 25, 26, 27, 28, 29]",300,575,-1,1,143,10,0.0
basic,23,41,0,0,0,21,"[0, 21]",2,28,"[1, 2, 3, 4, 5, 6, 7, 8, 9, 10, 11, 12, 13, 14, 15, 16, 17, 18, 19, 20, 22, 23, 24, 25, 26, 27, 28, 29]",251.1226024,4124,3549,50,469,8,1.0
basic,23,41,0,0,0,3,"[0, 21, 3]",3,26,"[1, 2, 5, 6, 7, 8, 9, 10, 11, 12, 13, 14, 15, 16, 17, 18, 19, 20, 22, 23, 24, 25, 26, 27, 28, 29]",218.982285,6480,2356,16,151,8,2.044702670024013
basic,23,41,0,0,0,5,"[0, 21, 3, 5]",4,16,"[1, 2, 6, 9, 10, 12, 13, 14, 17, 18, 20, 22, 24, 25, 27, 28]",184.1541355,9021,2541,8,39,8,3.691156164291917
basic,23,41,0,0,0,28,"[0, 21, 3, 5, 28]",5,12,"[2, 6, 9, 10, 12, 13, 17, 18, 20, 22, 24, 27]",170.552665,10020,999,7,18,8,3.22012281246428
basic,23,41,0,0,0,22,"[0, 21, 3, 5, 28, 22]",6,5,"[9, 12, 13, 17, 18]",105.4066751,13591,3571,5,0,7,2.82167516468412
basic,23,41,0,0,1,13,"[0, 21, 3, 5, 28, 22, 13]",7,0,[],9.881809185,19457,5866,1,0,7,6.953053562546107
basic,23,41,0,1,1,13,"[0, 21, 3, 5, 28, 22, 13]",7,0,[],9.881809185,21211,1754,1,0,7,6.953053562546107
basic,24,15,0,0,0,0,[0],1,25,"[1, 2, 3, 4, 7, 8, 9, 10, 11, 12, 13, 14, 15, 16, 18, 20, 21, 22, 23, 24, 25, 26, 27, 28, 29]",300,410,-1,4,65,9,0.0
basic,24,15,0,0,0,7,"[0, 7]",2,23,"[1, 3, 4, 8, 9, 10, 11, 12, 13, 14, 15, 16, 18, 20, 21, 22, 23, 24, 25, 26, 27, 28, 29]",215.1884442,5500,5090,30,107,8,1.0
basic,24,15,0,0,0,16,"[0, 7, 16]",3,14,"[3, 4, 9, 10, 11, 12, 13, 14, 15, 18, 21, 22, 25, 27]",171.5306843,6777,1277,11,27,8,1.1253230463291073
basic,24,15,0,0,0,3,"[0, 7, 16, 3]",4,12,"[4, 10, 11, 12, 13, 14, 15, 18, 21, 22, 25, 27]",146.4508119,7849,1072,5,12,8,1.1599276527768434
basic,24,15,0,0,0,11,"[0, 7, 16, 3, 11]",5,8,"[4, 12, 13, 14, 15, 21, 22, 27]",135.0490576,8631,782,5,3,8,1.3284364410021055
basic,24,15,0,0,0,12,"[0, 7, 16, 3, 11, 12]",6,1,[21],69.93377523,10067,1436,1,0,7,2.661192674664603
basic,24,15,0,0,1,21,"[0, 7, 16, 3, 11, 12, 21]",7,0,[],26.10456123,11842,1775,1,0,7,2.88055760962226
basic,24,15,0,1,1,21,"[0, 7, 16, 3, 11, 12, 21]",7,0,[],26.10456123,13421,1579,1,0,7,2.88055760962226
basic,25,7,0,0,0,0,[0],1,29,"[1, 2, 3, 4, 5, 6, 7, 8, 9, 10, 11, 12, 13, 14, 15, 16, 17, 18, 19, 20, 21, 22, 23, 24, 25, 26, 27, 28, 29]",300,428,-1,3,79,9,0.0
basic,25,7,0,0,0,6,"[0, 6]",2,22,"[2, 4, 5, 7, 8, 9, 10, 11, 13, 14, 15, 16, 18, 19, 20, 21, 22, 23, 24, 25, 27, 28]",231.1160396,2748,2320,1,24,9,1.0
basic,25,7,0,0,0,25,"[0, 6, 25]",3,14,"[2, 4, 5, 7, 13, 14, 15, 16, 18, 19, 20, 21, 23, 28]",163.9371739,4322,1574,1,15,9,1.1491202566384209
basic,25,7,0,0,0,4,"[0, 6, 25, 4]",4,10,"[2, 7, 13, 15, 16, 18, 19, 20, 21, 23]",139.1985401,5498,1176,1,9,9,1.145081852791697
basic,25,7,0,0,0,20,"[0, 6, 25, 4, 20]",5,6,"[2, 7, 13, 16, 18, 19]",119.5516574,6852,1354,1,4,9,1.2036846139155144
basic,25,7,0,0,0,18,"[0, 6, 25, 4, 20, 18]",6,5,"[2, 7, 13, 16, 19]",106.7454089,7697,845,1,3,9,1.3498144584217913
basic,25,7,0,0,0,7,"[0, 6, 25, 4, 20, 18, 7]",7,2,"[2, 19]",65.51435269,8818,1121,1,1,9,1.2817825700699357
basic,25,7,0,0,0,19,"[0, 6, 25, 4, 20, 18, 7, 19]",8,1,[2],36.10347035,11052,2234,1,0,9,1.3950287830764145
basic,25,7,0,0,1,2,"[0, 6, 25, 4, 20, 18, 7, 19, 2]",9,0,[],5.953843486,12195,1143,1,0,9,1.4010142439340676
basic,25,7,0,1,1,2,"[0, 6, 25, 4, 20, 18, 7, 19, 2]",9,0,[],5.953843486,13302,1107,1,0,9,1.4010142439340676
basic,26,4,0,0,0,0,[0],1,26,"[3, 4, 5, 6, 7, 8, 10, 11, 12, 13, 14, 15, 16, 17, 18, 19, 20, 21, 22, 23, 24, 25, 26, 27, 28, 29]",300,387,-1,4,489,10,0.0
basic,26,4,0,0,0,28,"[0, 28]",2,21,"[3, 4, 5, 6, 10, 11, 12, 13, 14, 15, 16, 17, 19, 20, 21, 22, 23, 24, 25, 26, 27]",225.9392142,5200,4813,2,216,10,1.0
basic,26,4,0,0,0,14,"[0, 28, 14]",3,13,"[3, 4, 5, 6, 11, 13, 16, 17, 20, 21, 22, 24, 25]",159.6972335,7864,2664,1,26,10,1.0273973946789214
basic,26,4,0,0,0,25,"[0, 28, 14, 25]",4,12,"[3, 4, 5, 6, 11, 13, 16, 17, 20, 21, 22, 24]",143.572718,9065,1201,1,25,10,1.233547772313525
basic,26,4,0,0,0,11,"[0, 28, 14, 25, 11]",5,10,"[3, 4, 5, 6, 13, 16, 17, 20, 21, 22]",124.7844238,10115,1050,1,15,10,1.425978575879479
basic,26,4,0,0,0,16,"[0, 28, 14, 25, 11, 16]",6,9,"[3, 4, 5, 6, 13, 17, 20, 21, 22]",109.7844238,11914,1799,1,12,10,1.3799325158051412
basic,26,4,0,0,0,17,"[0, 28, 14, 25, 11, 16, 17]",7,5,"[3, 5, 20, 21, 22]",83.70761416,13785,1871,1,5,10,1.3195184878861832
basic,26,4,0,0,0,21,"[0, 28, 14, 25, 11, 16, 17, 21]",8,1,[22],34.45317274,15717,1932,1,0,9,1.7966566629354186
basic,26,4,0,0,1,22,"[0, 28, 14, 25, 11, 16, 17, 21, 22]",9,0,[],23.40781172,16681,964,1,0,9,1.7433011729935863
basic,26,4,0,1,1,22,"[0, 28, 14, 25, 11, 16, 17, 21, 22]",9,0,[],23.40781172,19636,2955,1,0,9,1.7433011729935863
basic,27,40,0,0,0,0,[0],1,29,"[1, 2, 3, 4, 5, 6, 7, 8, 9, 10, 11, 12, 13, 14, 15, 16, 17, 18, 19, 20, 21, 22, 23, 24, 25, 26, 27, 28, 29]",300,425,-1,8,191,9,0.0
basic,27,40,0,0,0,1,"[0, 1]",2,18,"[2, 5, 6, 7, 8, 9, 10, 11, 13, 15, 17, 18, 19, 21, 22, 23, 27, 29]",247.8463808,2839,2414,4,80,9,1.0
basic,27,40,0,0,0,6,"[0, 1, 6]",3,17,"[2, 5, 7, 8, 9, 10, 11, 13, 15, 17, 18, 19, 21, 22, 23, 27, 29]",227.7466295,5720,2881,4,74,9,1.0459427008232034
basic,27,40,0,0,0,9,"[0, 1, 6, 9]",4,10,"[2, 5, 8, 11, 18, 19, 21, 22, 23, 27]",159.146338,7837,2117,17,39,8,1.142098432552584
basic,27,40,0,0,0,18,"[0, 1, 6, 9, 18]",5,9,"[2, 5, 8, 11, 19, 21, 22, 23, 27]",142.5933926,9331,1494,13,14,8,1.3288108654802917
basic,27,40,0,0,0,5,"[0, 1, 6, 9, 18, 5]",6,7,"[2, 8, 19, 21, 22, 23, 27]",111.0180858,10612,1281,5,5,8,1.5366414787972102
basic,27,40,0,0,0,23,"[0, 1, 6, 9, 18, 5, 23]",7,3,"[2, 19, 21]",82.71614241,12346,1734,3,0,8,2.2908821040631264
basic,27,40,0,0,1,19,"[0, 1, 6, 9, 18, 5, 23, 19]",8,0,[],50.76305179,13544,1198,1,0,8,2.4294131203959415
basic,27,40,0,1,1,19,"[0, 1, 6, 9, 18, 5, 23, 19]",8,0,[],50.76305179,15486,1942,1,0,8,2.4294131203959415
basic,28,45,0,0,0,0,[0],1,24,"[1, 2, 3, 4, 5, 6, 7, 9, 10, 11, 12, 14, 15, 16, 17, 19, 20, 21, 22, 23, 24, 25, 27, 29]",300,427,-1,6,248,10,0.0
basic,28,45,0,0,0,15,"[0, 15]",2,23,"[1, 2, 3, 4, 5, 6, 7, 9, 10, 11, 12, 14, 16, 17, 19, 20, 21, 22, 23, 24, 25, 27, 29]",253.9022777,2854,2427,5,207,10,1.0
basic,28,45,0,0,0,23,"[0, 15, 23]",3,22,"[1, 2, 3, 4, 5, 6, 7, 9, 10, 11, 12, 14, 16, 17, 19, 20, 21, 22, 24, 25, 27, 29]",230.3014303,3829,975,5,163,10,1.0006068457769497
basic,28,45,0,0,0,20,"[0, 15, 23, 20]",4,19,"[1, 2, 3, 5, 6, 7, 9, 10, 11, 12, 14, 16, 17, 19, 21, 22, 24, 25, 29]",188.8647316,5322,1493,5,137,10,1.2062119754673604
basic,28,45,0,0,0,24,"[0, 15, 23, 20, 24]",5,14,"[1, 2, 3, 5, 6, 7, 9, 10, 12, 17, 19, 21, 22, 29]",145.0355176,7205,1883,1,23,10,1.5044386356496664
basic,28,45,0,0,0,10,"[0, 15, 23, 20, 24, 10]",6,7,"[2, 3, 6, 7, 12, 22, 29]",66.58808293,21333,14128,9,3,8,1.586258697611995
basic,28,45,0,0,0,6,"[0, 15, 23, 20, 24, 10, 6]",7,3,"[3, 12, 29]",40.33927343,22884,1551,3,0,8,1.5075929283626572
basic,28,45,0,0,1,12,"[0, 15, 23, 20, 24, 10, 6, 12]",8,0,[],20.21466164,24199,1315,1,0,8,1.4725544124210528
basic,28,45,0,1,1,12,"[0, 15, 23, 20, 24, 10, 6, 12]",8,0,[],20.21466164,25352,1153,1,0,8,1.4725544124210528
basic,29,34,0,0,0,0,[0],1,25,"[1, 3, 4, 5, 6, 7, 8, 9, 10, 11, 12, 13, 15, 18, 19, 20, 21, 22, 23, 24, 25, 26, 27, 28, 29]",300,408,-1,12,367,10,0.0
basic,29,34,0,0,0,13,"[0, 13]",2,24,"[1, 3, 4, 5, 6, 7, 8, 9, 10, 11, 12, 15, 18, 19, 20, 21, 22, 23, 24, 25, 26, 27, 28, 29]",279.9750156,4466,4058,12,331,10,1.0
basic,29,34,0,0,0,1,"[0, 13, 1]",3,16,"[3, 5, 7, 8, 9, 10, 11, 12, 19, 21, 22, 23, 24, 25, 27, 29]",211.8574701,6498,2032,3,92,10,1.0010381285747127
basic,29,34,0,0,0,8,"[0, 13, 1, 8]",4,14,"[3, 5, 7, 9, 10, 11, 12, 19, 22, 23, 24, 25, 27, 29]",201.0871405,8315,1817,2,54,10,1.1636807
basic,29,34,0,0,0,25,"[0, 13, 1, 8, 25]",5,12,"[3, 5, 7, 9, 10, 11, 12, 22, 23, 24, 27, 29]",183.999133,9598,1283,2,28,10,1.1396208815936457
basic,29,34,0,0,0,24,"[0, 13, 1, 8, 25, 24]",6,11,"[3, 5, 7, 9, 10, 11, 12, 22, 23, 27, 29]",166.5062774,10753,1155,2,23,10,1.374180768736554
basic,29,34,0,0,0,12,"[0, 13, 1, 8, 25, 24, 12]",7,7,"[7, 9, 10, 11, 22, 23, 27]",115.4670767,12211,1458,1,8,10,1.4994254760835948
basic,29,34,0,0,0,7,"[0, 13, 1, 8, 25, 24, 12, 7]",8,5,"[9, 11, 22, 23, 27]",100.4337804,14095,1884,1,4,10,1.758992610425009
basic,29,34,0,0,0,23,"[0, 13, 1, 8, 25, 24, 12, 7, 23]",9,1,[27],72.27352467,15198,1103,1,0,10,2.399781305190153
basic,29,34,0,0,1,27,"[0, 13, 1, 8, 25, 24, 12, 7, 23, 27]",10,0,[],18.60789321,21867,6669,1,0,10,4.766619878750327
basic,29,34,0,1,1,27,"[0, 13, 1, 8, 25, 24, 12, 7, 23, 27]",10,0,[],18.60789321,24467,2600,1,0,10,4.766619878750327
basic,30,18,0,0,0,0,[0],1,28,"[1, 2, 3, 4, 5, 6, 7, 8, 9, 10, 11, 12, 13, 14, 16, 17, 18, 19, 20, 21, 22, 23, 24, 25, 26, 27, 28, 29]",300,405,-1,3,136,10,0.0
basic,30,18,0,0,0,28,"[0, 28]",2,16,"[1, 3, 5, 7, 8, 9, 12, 13, 14, 16, 20, 23, 24, 25, 26, 27]",236.4311397,6012,5607,2,19,10,1.0
basic,30,18,0,0,0,7,"[0, 28, 7]",3,15,"[1, 3, 5, 8, 9, 12, 13, 14, 16, 20, 23, 24, 25, 26, 27]",214.4084242,7364,1352,2,17,10,1.4345180696367563
basic,30,18,0,0,0,25,"[0, 28, 7, 25]",4,13,"[1, 3, 5, 8, 9, 12, 13, 14, 16, 20, 23, 26, 27]",186.6055466,9625,2261,2,15,10,1.8896451241781882
basic,30,18,0,0,0,8,"[0, 28, 7, 25, 8]",5,10,"[3, 5, 9, 12, 13, 14, 16, 23, 26, 27]",149.551532,10546,921,2,10,10,1.590467437592877
basic,30,18,0,0,0,13,"[0, 28, 7, 25, 8, 13]",6,9,"[3, 5, 9, 12, 14, 16, 23, 26, 27]",128.4565089,11661,1115,2,5,10,1.8248274983549797
basic,30,18,0,0,0,14,"[0, 28, 7, 25, 8, 13, 14]",7,7,"[3, 5, 9, 12, 23, 26, 27]",109.4828429,12476,815,2,3,10,1.6993534956692746
basic,30,18,0,0,0,3,"[0, 28, 7, 25, 8, 13, 14, 3]",8,3,"[5, 12, 27]",79.39962499,14157,1681,2,1,10,1.802637206541468
basic,30,18,0,0,0,5,"[0, 28, 7, 25, 8, 13, 14, 3, 5]",9,1,[12],21.21887216,16542,2385,1,0,10,1.559774889743805
basic,30,18,0,0,1,12,"[0, 28, 7, 25, 8, 13, 14, 3, 5, 12]",10,0,[],9.817117911,17349,807,1,0,10,1.563993037384447
basic,30,18,0,1,1,12,"[0, 28, 7, 25, 8, 13, 14, 3, 5, 12]",10,0,[],9.817117911,20183,2834,1,0,10,1.563993037384447
basic,31,32,0,0,0,0,[0],1,29,"[1, 2, 3, 4, 5, 6, 7, 8, 9, 10, 11, 12, 13, 14, 15, 16, 17, 18, 19, 20, 21, 22, 23, 24, 25, 26, 27, 28, 29]",300,412,-1,17,359,10,0.0
basic,31,32,0,0,0,19,"[0, 19]",2,28,"[1, 2, 3, 4, 5, 6, 7, 8, 9, 10, 11, 12, 13, 14, 15, 16, 17, 18, 20, 21, 22, 23, 24, 25, 26, 27, 28, 29]",283.5075775,3681,3269,16,294,10,1.0
basic,31,32,0,0,0,13,"[0, 19, 13]",3,24,"[2, 3, 4, 5, 6, 8, 9, 10, 11, 12, 14, 15, 16, 17, 18, 20, 21, 22, 23, 24, 25, 26, 27, 28]",260.3127505,4645,964,14,227,10,1.0172874229878615
basic,31,32,0,0,0,15,"[0, 19, 13, 15]",4,18,"[2, 3, 5, 8, 9, 10, 11, 12, 16, 17, 20, 22, 23, 24, 25, 26, 27, 28]",177.4393531,6229,1584,9,116,10,1.435447391509833
basic,31,32,0,0,0,28,"[0, 19, 13, 15, 28]",5,17,"[2, 3, 5, 8, 9, 10, 11, 12, 16, 17, 20, 22, 23, 24, 25, 26, 27]",166.0375988,10350,4121,9,70,10,1.3843701324937985
basic,31,32,0,0,0,12,"[0, 19, 13, 15, 28, 12]",6,14,"[2, 3, 5, 8, 9, 10, 11, 16, 17, 20, 22, 24, 26, 27]",147.0639329,11693,1343,6,35,10,1.358372254952329
basic,31,32,0,0,0,16,"[0, 19, 13, 15, 28, 12, 16]",7,13,"[2, 3, 5, 8, 9, 10, 11, 17, 20, 22, 24, 26, 27]",131.411457,12677,984,5,15,10,1.4356932930709845
basic,31,32,0,0,0,22,"[0, 19, 13, 15, 28, 12, 16, 22]",8,6,"[2, 8, 9, 17, 20, 27]",97.57360838,14535,1858,3,5,10,1.4335226411545752
basic,31,32,0,0,0,9,"[0, 19, 13, 15, 28, 12, 16, 22, 9]",9,3,"[2, 8, 20]",75.37000507,15562,1027,3,0,10,1.4837166378374758
basic,31,32,0,0,1,8,"[0, 19, 13, 15, 28, 12, 16, 22, 9, 8]",10,0,[],30.24794838,17043,1481,1,0,10,1.3767698817641267
basic,31,32,0,1,1,8,"[0, 19, 13, 15, 28, 12, 16, 22, 9, 8]",10,0,[],30.24794838,18317,1274,1,0,10,1.3767698817641267
basic,32,33,0,0,0,0,[0],1,23,"[1, 2, 5, 7, 8, 11, 12, 13, 14, 15, 16, 17, 18, 19, 20, 21, 23, 24, 25, 26, 27, 28, 29]",300,432,-1,5,108,9,0.0
basic,32,33,0,0,0,8,"[0, 8]",2,22,"[1, 2, 5, 7, 11, 12, 13, 14, 15, 16, 17, 18, 19, 20, 21, 23, 24, 25, 26, 27, 28, 29]",265.8679037,3561,3129,5,87,9,1.0
basic,32,33,0,0,0,21,"[0, 8, 21]",3,16,"[2, 5, 7, 11, 13, 14, 16, 17, 18, 19, 20, 24, 26, 27, 28, 29]",166.0430571,4962,1401,5,80,9,1.0670557763739492
basic,32,33,0,0,0,17,"[0, 8, 21, 17]",4,11,"[2, 7, 11, 13, 14, 16, 19, 20, 24, 26, 29]",127.4036989,6198,1236,1,18,9,1.0830294710276618
basic,32,33,0,0,0,13,"[0, 8, 21, 17, 13]",5,10,"[2, 7, 11, 14, 16, 19, 20, 24, 26, 29]",104.6001904,7362,1164,1,10,9,1.2861654105061844
basic,32,33,0,0,0,19,"[0, 8, 21, 17, 13, 19]",6,6,"[7, 14, 16, 24, 26, 29]",79.10509282,9808,2446,1,6,9,1.3181942666818214
basic,32,33,0,0,0,24,"[0, 8, 21, 17, 13, 19, 24]",7,1,[7],37.05750074,12692,2884,1,0,8,1.2914654832859356
basic,32,33,0,0,1,7,"[0, 8, 21, 17, 13, 19, 24, 7]",8,0,[],7.851337003,14475,1783,1,0,8,1.370940443464748
basic,32,33,0,1,1,7,"[0, 8, 21, 17, 13, 19, 24, 7]",8,0,[],7.851337003,15881,1406,1,0,8,1.370940443464748
basic,33,10,0,0,0,0,[0],1,29,"[1, 2, 3, 4, 5, 6, 7, 8, 9, 10, 11, 12, 13, 14, 15, 16, 17, 18, 19, 20, 21, 22, 23, 24, 25, 26, 27, 28, 29]",300,312,-1,1,100,9,0.0
basic,33,10,0,0,0,29,"[0, 29]",2,22,"[3, 4, 7, 8, 10, 11, 12, 13, 15, 16, 17, 18, 19, 20, 21, 22, 23, 24, 25, 26, 27, 28]",219.9375244,5038,4726,3,19,7,1.0
basic,33,10,0,0,0,7,"[0, 29, 7]",3,18,"[3, 4, 8, 10, 11, 12, 13, 15, 16, 17, 18, 20, 21, 22, 23, 25, 27, 28]",191.3368251,8086,3048,3,16,7,1.1306818684255975
basic,33,10,0,0,0,10,"[0, 29, 7, 10]",4,5,"[11, 13, 18, 20, 27]",87.12070351,9316,1230,1,4,6,2.3985733475552826
basic,33,10,0,0,0,18,"[0, 29, 7, 10, 18]",5,1,[20],73.66707946,10134,818,1,0,6,2.217245938293641
basic,33,10,0,0,1,20,"[0, 29, 7, 10, 18, 20]",6,0,[],2.322843535,11768,1634,1,0,6,2.4593859979197434
basic,33,10,0,1,1,20,"[0, 29, 7, 10, 18, 20]",6,0,[],2.322843535,13254,1486,1,0,6,2.4593859979197434
basic,34,14,0,0,0,0,[0],1,29,"[1, 2, 3, 4, 5, 6, 7, 8, 9, 10, 11, 12, 13, 14, 15, 16, 17, 18, 19, 20, 21, 22, 23, 24, 25, 26, 27, 28, 29]",300,356,-1,8,157,10,0.0
basic,34,14,0,0,0,15,"[0, 15]",2,20,"[1, 2, 3, 4, 7, 8, 9, 13, 17, 18, 19, 20, 21, 22, 23, 25, 26, 27, 28, 29]",216.7053423,3071,2715,8,102,10,1.0
basic,34,14,0,0,0,18,"[0, 15, 18]",3,13,"[1, 2, 4, 7, 8, 13, 17, 19, 20, 23, 25, 26, 28]",153.6418822,4536,1465,26,101,9,1.2185936334127205
basic,34,14,0,0,0,8,"[0, 15, 18, 8]",4,10,"[1, 2, 4, 7, 17, 19, 23, 25, 26, 28]",140.0404117,6215,1679,26,60,9,1.2207454945880838
basic,34,14,0,0,0,19,"[0, 15, 18, 8, 19]",5,9,"[1, 2, 4, 7, 17, 23, 25, 26, 28]",119.4248836,7180,965,13,29,9,1.2211897843897934
basic,34,14,0,0,0,1,"[0, 15, 18, 8, 19, 1]",6,7,"[4, 7, 17, 23, 25, 26, 28]",104.1933374,9346,2166,8,7,9,1.2663296021165384
basic,34,14,0,0,0,25,"[0, 15, 18, 8, 19, 1, 25]",7,4,"[4, 7, 23, 26]",56.18292182,12463,3117,3,1,9,1.4895721890925844
basic,34,14,0,0,0,7,"[0, 15, 18, 8, 19, 1, 25, 7]",8,1,[4],36.48520622,14711,2248,1,0,9,1.5088813198549047
basic,34,14,0,0,1,4,"[0, 15, 18, 8, 19, 1, 25, 7, 4]",9,0,[],0.750069447,15816,1105,1,0,9,1.4265370171460428
basic,34,14,0,1,1,4,"[0, 15, 18, 8, 19, 1, 25, 7, 4]",9,0,[],0.750069447,17303,1487,1,0,9,1.4265370171460428
basic,35,16,0,0,0,0,[0],1,29,"[1, 2, 3, 4, 5, 6, 7, 8, 9, 10, 11, 12, 13, 14, 15, 16, 17, 18, 19, 20, 21, 22, 23, 24, 25, 26, 27, 28, 29]",300,597,-1,13,161,9,0.0
basic,35,16,0,0,0,28,"[0, 28]",2,27,"[1, 2, 3, 4, 5, 7, 8, 9, 10, 11, 12, 13, 14, 15, 16, 17, 18, 19, 20, 21, 22, 23, 24, 25, 26, 27, 29]",284.3475242,2799,2202,11,92,9,1.0
basic,35,16,0,0,0,17,"[0, 28, 17]",3,26,"[1, 2, 3, 4, 5, 7, 8, 9, 10, 11, 12, 13, 14, 15, 16, 18, 19, 20, 21, 22, 23, 24, 25, 26, 27, 29]",219.1555001,4833,2034,10,46,9,1.3773866384707543
basic,35,16,0,0,0,16,"[0, 28, 17, 16]",4,25,"[1, 2, 3, 4, 5, 7, 8, 9, 10, 11, 12, 13, 14, 15, 18, 19, 20, 21, 22, 23, 24, 25, 26, 27, 29]",190.8358956,5885,1052,10,34,9,1.3209953830681203
basic,35,16,0,0,0,21,"[0, 28, 17, 16, 21]",5,13,"[3, 5, 7, 8, 9, 10, 12, 15, 20, 22, 25, 26, 29]",146.1816685,6982,1097,4,7,9,1.8136482702070456
basic,35,16,0,0,0,8,"[0, 28, 17, 16, 21, 8]",6,6,"[5, 9, 12, 15, 20, 25]",96.92722704,7982,1000,4,2,9,1.637204572335983
basic,35,16,0,0,0,20,"[0, 28, 17, 16, 21, 8, 20]",7,2,"[9, 25]",39.15179974,9495,1513,2,0,9,1.441590377328759
basic,35,16,0,0,0,25,"[0, 28, 17, 16, 21, 8, 20, 25]",8,1,[9],26.5026891,10347,852,1,0,9,1.484361110265371
basic,35,16,0,0,1,9,"[0, 28, 17, 16, 21, 8, 20, 25, 9]",9,0,[],13.69644062,11282,935,1,0,9,1.4530180692918209
basic,35,16,0,1,1,9,"[0, 28, 17, 16, 21, 8, 20, 25, 9]",9,0,[],13.69644062,22650,11368,1,0,9,1.4530180692918209
basic,36,23,0,0,0,0,[0],1,28,"[1, 2, 3, 4, 5, 6, 7, 8, 9, 10, 11, 12, 13, 14, 15, 16, 17, 18, 19, 20, 21, 22, 23, 25, 26, 27, 28, 29]",300,414,-1,76,2626,10,0.0
basic,36,23,0,0,0,22,"[0, 22]",2,24,"[1, 2, 3, 5, 6, 7, 8, 9, 10, 11, 12, 13, 14, 15, 17, 18, 19, 20, 21, 23, 25, 26, 27, 29]",210.5013967,6599,6185,15,1362,10,1.0
basic,36,23,0,0,0,13,"[0, 22, 13]",3,14,"[1, 2, 5, 6, 7, 8, 9, 10, 12, 14, 18, 21, 27, 29]",168.3113504,7856,1257,14,522,10,1.1898173563652046
basic,36,23,0,0,0,12,"[0, 22, 13, 12]",4,11,"[1, 2, 6, 7, 9, 10, 14, 18, 21, 27, 29]",156.2283045,8668,812,12,166,10,1.1727968780218219
basic,36,23,0,0,0,9,"[0, 22, 13, 12, 9]",5,10,"[1, 2, 6, 7, 10, 14, 18, 21, 27, 29]",141.9104834,9548,880,5,49,10,1.2100380646101494
basic,36,23,0,0,0,14,"[0, 22, 13, 12, 9, 14]",6,8,"[1, 2, 6, 7, 10, 18, 27, 29]",131.4701769,10364,816,2,19,10,1.1961799245073135
basic,36,23,0,0,0,2,"[0, 22, 13, 12, 9, 14, 2]",7,6,"[6, 7, 10, 18, 27, 29]",116.6041081,12382,2018,1,8,10,1.343965446549325
basic,36,23,0,0,0,6,"[0, 22, 13, 12, 9, 14, 2, 6]",8,3,"[18, 27, 29]",98.16501923,20862,8480,3,0,9,1.3433890277057379
basic,36,23,0,0,1,27,"[0, 22, 13, 12, 9, 14, 2, 6, 27]",9,0,[],69.86307584,21901,1039,1,0,9,1.607346000085698
basic,36,23,0,1,1,27,"[0, 22, 13, 12, 9, 14, 2, 6, 27]",9,0,[],69.86307584,23885,1984,1,0,9,1.607346000085698
basic,37,25,0,0,0,0,[0],1,28,"[1, 2, 3, 4, 5, 7, 8, 9, 10, 11, 12, 13, 14, 15, 16, 17, 18, 19, 20, 21, 22, 23, 24, 25, 26, 27, 28, 29]",300,427,-1,5,94,10,0.0
basic,37,25,0,0,0,23,"[0, 23]",2,23,"[1, 2, 3, 5, 7, 8, 9, 11, 12, 13, 14, 16, 17, 19, 20, 21, 22, 24, 25, 26, 27, 28, 29]",259.7756293,3010,2583,3,33,10,1.0
basic,37,25,0,0,0,19,"[0, 23, 19]",3,21,"[1, 2, 3, 5, 7, 8, 9, 11, 12, 13, 14, 16, 17, 20, 21, 22, 24, 25, 27, 28, 29]",223.9287326,4058,1048,3,24,10,1.583101227007039
basic,37,25,0,0,0,29,"[0, 23, 19, 29]",4,19,"[1, 2, 3, 5, 7, 8, 9, 11, 12, 13, 14, 16, 17, 20, 21, 22, 24, 25, 28]",207.649912,4873,815,3,17,10,1.474631541426484
basic,37,25,0,0,0,22,"[0, 23, 19, 29, 22]",5,18,"[1, 2, 3, 5, 7, 8, 9, 11, 12, 13, 14, 16, 17, 20, 21, 24, 25, 28]",191.5253965,5641,768,3,14,10,1.4020377754906637
basic,37,25,0,0,0,7,"[0, 23, 19, 29, 22, 7]",6,7,"[3, 8, 9, 11, 13, 24, 28]",115.8814939,10572,4931,3,11,10,1.5709678649326715
basic,37,25,0,0,0,24,"[0, 23, 19, 29, 22, 7, 24]",7,5,"[3, 8, 9, 13, 28]",91.12265712,11472,900,3,7,10,1.486191600033379
basic,37,25,0,0,0,9,"[0, 23, 19, 29, 22, 7, 24, 9]",8,4,"[3, 8, 13, 28]",73.09490075,12303,831,3,3,10,1.453504870342882
basic,37,25,0,0,0,3,"[0, 23, 19, 29, 22, 7, 24, 9, 3]",9,3,"[8, 13, 28]",42.82940885,14773,2470,3,0,10,1.388955167525479
basic,37,25,0,0,1,28,"[0, 23, 19, 29, 22, 7, 24, 9, 3, 28]",10,0,[],11.52445716,16279,1506,1,0,10,1.3331084120212044
basic,37,25,0,1,1,28,"[0, 23, 19, 29, 22, 7, 24, 9, 3, 28]",10,0,[],11.52445716,17694,1415,1,0,10,1.3331084120212044
basic,38,19,0,0,0,0,[0],1,29,"[1, 2, 3, 4, 5, 6, 7, 8, 9, 10, 11, 12, 13, 14, 15, 16, 17, 18, 19, 20, 21, 22, 23, 24, 25, 26, 27, 28, 29]",300,350,-1,12,149,8,0.0
basic,38,19,0,0,0,12,"[0, 12]",2,15,"[1, 2, 3, 5, 8, 9, 13, 16, 17, 18, 19, 21, 23, 25, 29]",180.3964883,10092,9742,9,58,7,1.0
basic,38,19,0,0,0,25,"[0, 12, 25]",3,11,"[1, 2, 3, 8, 13, 16, 17, 18, 19, 23, 29]",163.2792456,11197,1105,3,32,7,1.002593021312995
basic,38,19,0,0,0,17,"[0, 12, 25, 17]",4,10,"[1, 2, 3, 8, 13, 16, 18, 19, 23, 29]",152.2338846,11974,777,3,14,7,1.0661324787663027
basic,38,19,0,0,0,23,"[0, 12, 25, 17, 23]",5,4,"[1, 3, 8, 19]",73.51920994,13584,1610,2,2,7,1.2595880132307544
basic,38,19,0,0,0,3,"[0, 12, 25, 17, 23, 3]",6,1,[8],51.58749774,14843,1259,1,0,7,1.2326532183027346
basic,38,19,0,0,1,8,"[0, 12, 25, 17, 23, 3, 8]",7,0,[],28.26369016,16211,1368,1,0,7,1.2470086104677123
basic,38,19,0,1,1,8,"[0, 12, 25, 17, 23, 3, 8]",7,0,[],28.26369016,17232,1021,1,0,7,1.2470086104677123
basic,39,17,0,0,0,0,[0],1,28,"[1, 2, 3, 4, 5, 6, 7, 8, 9, 10, 11, 12, 13, 14, 15, 16, 17, 18, 19, 20, 22, 23, 24, 25, 26, 27, 28, 29]",300,386,-1,2,73,8,0.0
basic,39,17,0,0,0,9,"[0, 9]",2,25,"[1, 2, 3, 5, 6, 7, 8, 10, 11, 12, 14, 15, 16, 17, 18, 19, 20, 22, 23, 24, 25, 26, 27, 28, 29]",210.5293344,7275,6889,1,34,8,1.0
basic,39,17,0,0,0,16,"[0, 9, 16]",3,21,"[1, 2, 3, 5, 7, 8, 10, 11, 12, 14, 17, 18, 19, 20, 22, 23, 25, 26, 27, 28, 29]",197.1876704,8136,861,1,26,8,1.173103464220352
basic,39,17,0,0,0,2,"[0, 9, 16, 2]",4,18,"[1, 3, 5, 7, 8, 10, 11, 12, 14, 17, 18, 19, 23, 25, 26, 27, 28, 29]",181.0631549,10200,2064,1,23,8,1.14825089247282
basic,39,17,0,0,0,17,"[0, 9, 16, 2, 17]",5,7,"[7, 8, 12, 14, 26, 27, 29]",142.7356191,12147,1947,4,5,7,1.4896040699768547
basic,39,17,0,0,0,8,"[0, 9, 16, 2, 17, 8]",6,3,"[7, 12, 27]",104.5256727,13268,1121,3,0,7,1.4604726966175894
basic,39,17,0,0,1,7,"[0, 9, 16, 2, 17, 8, 7]",7,0,[],33.81499459,15259,1991,1,0,7,1.4474701869793896
basic,39,17,0,1,1,7,"[0, 9, 16, 2, 17, 8, 7]",7,0,[],33.81499459,16067,808,1,0,7,1.4474701869793896
basic,40,27,0,0,0,0,[0],1,26,"[1, 3, 5, 6, 7, 8, 9, 10, 11, 12, 13, 14, 15, 16, 17, 18, 19, 21, 22, 23, 24, 25, 26, 27, 28, 29]",300,382,-1,13,578,11,0.0
basic,40,27,0,0,0,15,"[0, 15]",2,24,"[1, 3, 5, 6, 7, 8, 9, 10, 11, 12, 13, 14, 16, 17, 18, 19, 21, 22, 23, 24, 25, 26, 27, 29]",263.7508621,2279,1897,6,219,11,1.0
basic,40,27,0,0,0,24,"[0, 15, 24]",3,20,"[1, 5, 6, 7, 8, 9, 10, 12, 13, 14, 16, 17, 18, 19, 21, 23, 25, 26, 27, 29]",246.5462115,3218,939,6,130,11,1.130933077698322
basic,40,27,0,0,0,17,"[0, 15, 24, 17]",4,15,"[1, 6, 8, 10, 12, 13, 14, 16, 18, 19, 23, 25, 26, 27, 29]",229.9932662,4287,1069,4,60,11,1.1285538435963374
basic,40,27,0,0,0,12,"[0, 15, 24, 17, 12]",5,14,"[1, 6, 8, 10, 13, 14, 16, 18, 19, 23, 25, 26, 27, 29]",218.8129263,5747,1460,2,32,11,1.2561880288755216
basic,40,27,0,0,0,10,"[0, 15, 24, 17, 12, 10]",6,11,"[1, 8, 13, 14, 18, 19, 23, 25, 26, 27, 29]",207.7675653,6645,898,2,28,11,1.2228289337766665
basic,40,27,0,0,0,13,"[0, 15, 24, 17, 12, 10, 13]",7,9,"[1, 8, 14, 18, 19, 23, 26, 27, 29]",167.9178476,8047,1402,2,18,11,1.3421291994761178
basic,40,27,0,0,0,19,"[0, 15, 24, 17, 12, 10, 13, 19]",8,5,"[1, 8, 14, 23, 29]",131.6825057,9099,1052,2,6,11,1.294749956153846
basic,40,27,0,0,0,8,"[0, 15, 24, 17, 12, 10, 13, 19, 8]",9,3,"[14, 23, 29]",116.816437,9933,834,2,1,11,1.3554286578836865
basic,40,27,0,0,0,14,"[0, 15, 24, 17, 12, 10, 13, 19, 8, 14]",10,1,[29],59.25777126,11468,1535,1,0,11,1.312380420632942
basic,40,27,0,0,1,29,"[0, 15, 24, 17, 12, 10, 13, 19, 8, 14, 29]",11,0,[],14.96330208,12721,1253,1,0,11,1.4680136813839417
basic,40,27,0,1,1,29,"[0, 15, 24, 17, 12, 10, 13, 19, 8, 14, 29]",11,0,[],14.96330208,14118,1397,1,0,11,1.4680136813839417
basic,41,13,0,0,0,0,[0],1,29,"[1, 2, 3, 4, 5, 6, 7, 8, 9, 10, 11, 12, 13, 14, 15, 16, 17, 18, 19, 20, 21, 22, 23, 24, 25, 26, 27, 28, 29]",300,434,-1,60,2676,11,0.0
basic,41,13,0,0,0,24,"[0, 24]",2,28,"[1, 2, 3, 4, 5, 6, 7, 8, 9, 10, 11, 12, 13, 14, 15, 16, 17, 18, 19, 20, 21, 22, 23, 25, 26, 27, 28, 29]",288.8196601,3467,3033,16,1444,11,1.0
basic,41,13,0,0,0,23,"[0, 24, 23]",3,27,"[1, 2, 3, 4, 5, 6, 7, 8, 9, 10, 11, 12, 13, 14, 15, 16, 17, 18, 19, 20, 21, 22, 25, 26, 27, 28, 29]",243.1140806,6040,2573,2,868,11,1.0065545717039834
basic,41,13,0,0,0,28,"[0, 24, 23, 28]",4,21,"[1, 2, 3, 4, 6, 7, 9, 10, 11, 12, 13, 15, 16, 17, 19, 20, 21, 22, 26, 27, 29]",177.7458926,11445,5405,1,253,11,1.6592183354372274
basic,41,13,0,0,0,2,"[0, 24, 23, 28, 2]",5,15,"[1, 3, 6, 7, 9, 11, 12, 13, 15, 16, 17, 19, 21, 26, 29]",140.1028322,12545,1100,1,80,11,1.459046951791535
basic,41,13,0,0,0,29,"[0, 24, 23, 28, 2, 29]",6,9,"[1, 6, 7, 11, 13, 16, 17, 19, 26]",128.3981322,13911,1366,1,31,11,1.5417142413159963
basic,41,13,0,0,0,7,"[0, 24, 23, 28, 2, 29, 7]",7,8,"[1, 6, 11, 13, 16, 17, 19, 26]",113.1337947,15413,1502,1,10,11,1.77525557938341
basic,41,13,0,0,0,26,"[0, 24, 23, 28, 2, 29, 7, 26]",8,6,"[1, 6, 11, 13, 16, 19]",102.6934882,16361,948,1,4,11,2.0623372568692724
basic,41,13,0,0,0,6,"[0, 24, 23, 28, 2, 29, 7, 26, 6]",9,3,"[11, 13, 16]",82.59373697,17593,1232,1,2,11,2.002320377701536
basic,41,13,0,0,0,11,"[0, 24, 23, 28, 2, 29, 7, 26, 6, 11]",10,1,[13],63.48876379,18743,1150,1,0,11,1.8540921292495773
basic,41,13,0,0,1,13,"[0, 24, 23, 28, 2, 29, 7, 26, 6, 11, 13]",11,0,[],7.408464223,21578,2835,1,0,11,1.6123988786574368
basic,41,13,0,1,1,13,"[0, 24, 23, 28, 2, 29, 7, 26, 6, 11, 13]",11,0,[],7.408464223,23966,2388,1,0,11,1.6123988786574368
basic,42,43,0,0,0,0,[0],1,23,"[1, 2, 3, 4, 5, 6, 7, 9, 10, 11, 12, 14, 15, 16, 17, 19, 20, 21, 22, 23, 25, 27, 29]",300,378,-1,16,556,12,0.0
basic,42,43,0,0,0,29,"[0, 29]",2,22,"[1, 2, 3, 4, 5, 6, 7, 9, 10, 11, 12, 14, 15, 16, 17, 19, 20, 21, 22, 23, 25, 27]",277.909278,3236,2858,16,520,12,1.0
basic,42,43,0,0,0,20,"[0, 29, 20]",3,20,"[1, 2, 3, 4, 6, 7, 9, 10, 11, 12, 14, 15, 16, 17, 19, 21, 22, 23, 25, 27]",254.4785289,4536,1300,15,422,12,1.082311746871282
basic,42,43,0,0,0,16,"[0, 29, 20, 16]",4,19,"[1, 2, 3, 4, 6, 7, 9, 10, 11, 12, 14, 15, 17, 19, 21, 22, 23, 25, 27]",231.8511119,8651,4115,15,389,12,1.215201926898219
basic,42,43,0,0,0,25,"[0, 29, 20, 16, 25]",5,14,"[1, 2, 3, 4, 6, 7, 9, 11, 12, 14, 15, 19, 22, 23]",175.7708124,11972,3321,53,282,11,1.566384303308987
basic,42,43,0,0,0,15,"[0, 29, 20, 16, 25, 15]",6,13,"[1, 2, 3, 4, 6, 7, 9, 11, 12, 14, 19, 22, 23]",153.0992443,15114,3142,27,108,11,1.776736412604812
basic,42,43,0,0,0,12,"[0, 29, 20, 16, 25, 15, 12]",7,10,"[1, 3, 6, 7, 9, 11, 14, 19, 22, 23]",133.7860364,16340,1226,21,41,11,1.6813323012225032
basic,42,43,0,0,0,3,"[0, 29, 20, 16, 25, 15, 12, 3]",8,9,"[1, 6, 7, 9, 11, 14, 19, 22, 23]",120.7860364,17272,932,20,12,11,1.608740348096123
basic,42,43,0,0,0,22,"[0, 29, 20, 16, 25, 15, 12, 3, 22]",9,6,"[1, 6, 7, 11, 14, 19]",86.07292644,18697,1425,9,2,11,1.793657891802588
basic,42,43,0,0,0,19,"[0, 29, 20, 16, 25, 15, 12, 3, 22, 19]",10,3,"[1, 6, 7]",65.45739831,20782,2085,3,0,11,1.6882745891803936
basic,42,43,0,0,1,1,"[0, 29, 20, 16, 25, 15, 12, 3, 22, 19, 1]",11,0,[],37.2793927,22782,2000,1,0,11,1.825064866046553
basic,42,43,0,1,1,1,"[0, 29, 20, 16, 25, 15, 12, 3, 22, 19, 1]",11,0,[],37.2793927,25084,2302,1,0,11,1.825064866046553
basic,43,22,0,0,0,0,[0],1,29,"[1, 2, 3, 4, 5, 6, 7, 8, 9, 10, 11, 12, 13, 14, 15, 16, 17, 18, 19, 20, 21, 22, 23, 24, 25, 26, 27, 28, 29]",300,309,-1,31,704,9,0.0
basic,43,22,0,0,0,16,"[0, 16]",2,21,"[1, 3, 6, 7, 8, 9, 11, 13, 14, 15, 17, 18, 19, 20, 21, 22, 24, 25, 27, 28, 29]",218.605897,5815,5506,17,147,9,1.0
basic,43,22,0,0,0,28,"[0, 16, 28]",3,13,"[6, 7, 9, 13, 14, 17, 19, 20, 21, 22, 24, 25, 29]",184.1675463,7113,1298,12,61,9,1.047282311284478
basic,43,22,0,0,0,6,"[0, 16, 28, 6]",4,12,"[7, 9, 13, 14, 17, 19, 20, 21, 22, 24, 25, 29]",154.1675463,8113,1000,12,43,9,1.645645870580622
basic,43,22,0,0,0,9,"[0, 16, 28, 6, 9]",5,8,"[7, 14, 17, 19, 20, 21, 24, 29]",127.5404924,9262,1149,8,17,9,1.925750226630103
basic,43,22,0,0,0,14,"[0, 16, 28, 6, 9, 14]",6,5,"[7, 17, 19, 24, 29]",84.49400589,10530,1268,2,4,9,1.6636058370259441
basic,43,22,0,0,0,7,"[0, 16, 28, 6, 9, 14, 7]",7,4,"[17, 19, 24, 29]",71.45560108,11395,865,2,2,9,1.8172242553661921
basic,43,22,0,0,0,19,"[0, 16, 28, 6, 9, 14, 7, 19]",8,1,[29],25.18465988,13361,1966,1,0,9,3.451408325118739
basic,43,22,0,0,1,29,"[0, 16, 28, 6, 9, 14, 7, 19, 29]",9,0,[],10.1513635,14410,1049,1,0,9,3.763950601205494
basic,43,22,0,1,1,29,"[0, 16, 28, 6, 9, 14, 7, 19, 29]",9,0,[],10.1513635,15519,1109,1,0,9,3.763950601205494
basic,44,21,0,0,0,0,[0],1,29,"[1, 2, 3, 4, 5, 6, 7, 8, 9, 10, 11, 12, 13, 14, 15, 16, 17, 18, 19, 20, 21, 22, 23, 24, 25, 26, 27, 28, 29]",300,327,-1,84,830,9,0.0
basic,44,21,0,0,0,25,"[0, 25]",2,26,"[1, 2, 3, 4, 5, 6, 7, 8, 9, 10, 11, 12, 13, 14, 15, 16, 17, 18, 20, 21, 22, 23, 24, 26, 27, 29]",240.1836143,3417,3090,30,238,9,1.0
basic,44,21,0,0,0,18,"[0, 25, 18]",3,23,"[1, 2, 3, 4, 6, 7, 8, 9, 10, 11, 12, 14, 15, 16, 17, 20, 21, 22, 23, 24, 26, 27, 29]",198.4223882,4620,1203,1,22,9,1.7194331060017298
basic,44,21,0,0,0,29,"[0, 25, 18, 29]",4,19,"[2, 4, 6, 7, 8, 10, 11, 12, 14, 15, 16, 17, 20, 21, 22, 23, 24, 26, 27]",169.7692907,6219,1599,11,44,8,1.5372409070640154
basic,44,21,0,0,0,22,"[0, 25, 18, 29, 22]",5,13,"[2, 4, 6, 7, 10, 11, 12, 14, 17, 20, 21, 23, 27]",139.5037988,7698,1479,2,11,8,1.9519077549890076
basic,44,21,0,0,0,20,"[0, 25, 18, 29, 22, 20]",6,6,"[6, 7, 10, 11, 12, 17]",111.2726104,8921,1223,2,4,8,2.2910153832268065
basic,44,21,0,0,0,12,"[0, 25, 18, 29, 22, 20, 12]",7,1,[10],57.15237385,10406,1485,1,0,8,2.1874614020669414
basic,44,21,0,0,1,10,"[0, 25, 18, 29, 22, 20, 12, 10]",8,0,[],34.34886534,11399,993,1,0,8,2.181796919371535
basic,44,21,0,1,1,10,"[0, 25, 18, 29, 22, 20, 12, 10]",8,0,[],34.34886534,12576,1177,1,0,8,2.181796919371535
basic,45,29,0,0,0,0,[0],1,29,"[1, 2, 3, 4, 5, 6, 7, 8, 9, 10, 11, 12, 13, 14, 15, 16, 17, 18, 19, 20, 21, 22, 23, 24, 25, 26, 27, 28, 29]",300,441,-1,1,78,9,0.0
basic,45,29,0,0,0,6,"[0, 6]",2,28,"[1, 2, 3, 4, 5, 7, 8, 9, 10, 11, 12, 13, 14, 15, 16, 17, 18, 19, 20, 21, 22, 23, 24, 25, 26, 27, 28, 29]",228.4108947,5299,4858,1,25,9,1.0
basic,45,29,0,0,0,28,"[0, 6, 28]",3,24,"[1, 3, 4, 5, 7, 9, 10, 11, 12, 13, 14, 15, 16, 17, 18, 20, 21, 22, 23, 24, 25, 26, 27, 29]",187.1798384,6489,1190,1,22,9,1.162106788166845
basic,45,29,0,0,0,27,"[0, 6, 28, 27]",4,19,"[1, 3, 4, 5, 7, 9, 10, 11, 12, 13, 14, 15, 16, 21, 22, 23, 25, 26, 29]",166.6615539,7370,881,1,21,9,1.2307173895439045
basic,45,29,0,0,0,22,"[0, 6, 28, 27, 22]",5,13,"[1, 3, 4, 5, 7, 9, 12, 13, 14, 15, 21, 26, 29]",133.4200136,8365,995,1,19,9,1.4241767805149903
basic,45,29,0,0,0,5,"[0, 6, 28, 27, 22, 5]",6,6,"[4, 7, 9, 12, 13, 14]",79.07850094,9417,1052,4,2,8,1.7779286710260118
basic,45,29,0,0,0,13,"[0, 6, 28, 27, 22, 5, 13]",7,1,[14],53.36858068,10225,808,1,0,8,2.2784535922470215
basic,45,29,0,0,1,14,"[0, 6, 28, 27, 22, 5, 13, 14]",8,0,[],35.3408243,11733,1508,1,0,8,2.9240984037611235
basic,45,29,0,1,1,14,"[0, 6, 28, 27, 22, 5, 13, 14]",8,0,[],35.3408243,15291,3558,1,0,8,2.9240984037611235
basic,46,26,0,0,0,0,[0],1,29,"[1, 2, 3, 4, 5, 6, 7, 8, 9, 10, 11, 12, 13, 14, 15, 16, 17, 18, 19, 20, 21, 22, 23, 24, 25, 26, 27, 28, 29]",300,478,-1,9,226,9,0.0
basic,46,26,0,0,0,21,"[0, 21]",2,25,"[2, 3, 4, 5, 6, 7, 8, 10, 11, 12, 13, 14, 15, 16, 17, 18, 19, 22, 23, 24, 25, 26, 27, 28, 29]",211.1349337,2545,2067,7,90,9,1.0
basic,46,26,0,0,0,13,"[0, 21, 13]",3,21,"[3, 4, 5, 6, 7, 8, 10, 11, 12, 14, 15, 16, 17, 18, 19, 22, 23, 24, 25, 26, 29]",188.9989901,4294,1749,6,45,9,1.0103952279992225
basic,46,26,0,0,0,23,"[0, 21, 13, 23]",4,13,"[3, 4, 5, 6, 10, 11, 14, 16, 17, 18, 22, 26, 29]",150.9858345,5626,1332,3,17,9,1.1069410469330032
basic,46,26,0,0,0,16,"[0, 21, 13, 23, 16]",5,7,"[4, 5, 6, 10, 14, 17, 29]",97.75050789,6624,998,3,13,9,1.8066634000662438
basic,46,26,0,0,0,29,"[0, 21, 13, 23, 16, 29]",6,5,"[4, 6, 10, 14, 17]",73.54307102,7554,930,3,9,9,1.853342605492142
basic,46,26,0,0,0,4,"[0, 21, 13, 23, 16, 29, 4]",7,3,"[6, 14, 17]",49.54307102,8459,905,2,2,9,2.0664369230924997
basic,46,26,0,0,0,17,"[0, 21, 13, 23, 16, 29, 4, 17]",8,2,"[6, 14]",28.44804791,9508,1049,2,0,9,1.911153301956092
basic,46,26,0,0,1,14,"[0, 21, 13, 23, 16, 29, 4, 17, 14]",9,0,[],5.975842855,10872,1364,1,0,9,1.8245133223656398
basic,46,26,0,1,1,14,"[0, 21, 13, 23, 16, 29, 4, 17, 14]",9,0,[],5.975842855,12560,1688,1,0,9,1.8245133223656398
basic,47,0,0,0,0,0,[0],1,27,"[2, 3, 4, 5, 6, 7, 8, 9, 10, 11, 12, 13, 14, 15, 16, 17, 19, 20, 21, 22, 23, 24, 25, 26, 27, 28, 29]",300,432,-1,104,1136,9,0.0
basic,47,0,0,0,0,21,"[0, 21]",2,24,"[3, 4, 5, 6, 7, 8, 9, 10, 11, 12, 13, 14, 15, 16, 17, 19, 20, 22, 23, 24, 26, 27, 28, 29]",228.2156006,3069,2637,24,249,9,1.0
basic,47,0,0,0,0,28,"[0, 21, 28]",3,21,"[3, 4, 5, 6, 7, 8, 9, 11, 12, 13, 14, 15, 16, 17, 19, 20, 23, 24, 26, 27, 29]",166.6282642,4866,1797,24,214,9,1.269228840767463
basic,47,0,0,0,0,5,"[0, 21, 28, 5]",4,16,"[3, 4, 7, 8, 9, 11, 12, 14, 15, 17, 19, 20, 23, 24, 26, 29]",122.9705043,5997,1131,17,100,9,1.3066419815776449
basic,47,0,0,0,0,4,"[0, 21, 28, 5, 4]",5,13,"[3, 7, 8, 9, 11, 12, 15, 17, 19, 20, 23, 24, 26]",97.89063191,7888,1891,12,40,9,1.2910976504592468
basic,47,0,0,0,0,26,"[0, 21, 28, 5, 4, 26]",6,10,"[3, 7, 8, 9, 11, 12, 15, 17, 23, 24]",85.84903733,9265,1377,5,20,9,1.3255611811315622
basic,47,0,0,0,0,24,"[0, 21, 28, 5, 4, 26, 24]",7,8,"[3, 7, 8, 9, 11, 12, 15, 17]",68.73179456,10361,1096,5,6,9,1.3862320021735308
basic,47,0,0,0,0,15,"[0, 21, 28, 5, 4, 26, 24, 15]",8,3,"[7, 8, 9]",45.3865595,11444,1083,3,0,9,1.3469536849324695
basic,47,0,0,0,1,7,"[0, 21, 28, 5, 4, 26, 24, 15, 7]",9,0,[],14.32211036,12598,1154,1,0,9,1.3934843658246785
basic,47,0,0,1,1,7,"[0, 21, 28, 5, 4, 26, 24, 15, 7]",9,0,[],14.32211036,13369,771,1,0,9,1.3934843658246785
basic,48,30,0,0,0,0,[0],1,19,"[3, 4, 5, 7, 9, 11, 16, 17, 18, 19, 20, 21, 22, 24, 25, 26, 27, 28, 29]",300,359,-1,5,41,8,0.0
basic,48,30,0,0,0,16,"[0, 16]",2,17,"[3, 5, 7, 9, 11, 17, 18, 19, 20, 21, 22, 24, 25, 26, 27, 28, 29]",219.3774225,3786,3427,5,34,8,1.0
basic,48,30,0,0,0,26,"[0, 16, 26]",3,8,"[9, 11, 17, 20, 22, 25, 27, 28]",176.927452,5014,1228,7,3,5,1.3420329969668985
basic,48,30,0,0,0,17,"[0, 16, 26, 17]",4,1,[22],74.96177146,8080,3066,1,0,5,1.193219858893313
basic,48,30,0,0,1,22,"[0, 16, 26, 17, 22]",5,0,[],55.7263874,10032,1952,1,0,5,1.223925680162388
basic,48,30,0,1,1,22,"[0, 16, 26, 17, 22]",5,0,[],55.7263874,10885,853,1,0,5,1.223925680162388
basic,49,42,0,0,0,0,[0],1,29,"[1, 2, 3, 4, 5, 6, 7, 8, 9, 10, 11, 12, 13, 14, 15, 16, 17, 18, 19, 20, 21, 22, 23, 24, 25, 26, 27, 28, 29]",300,433,-1,16,302,9,0.0
basic,49,42,0,0,0,4,"[0, 4]",2,28,"[1, 2, 3, 5, 6, 7, 8, 9, 10, 11, 12, 13, 14, 15, 16, 17, 18, 19, 20, 21, 22, 23, 24, 25, 26, 27, 28, 29]",209.5290102,5733,5300,4,80,9,1.0
basic,49,42,0,0,0,5,"[0, 4, 5]",3,26,"[1, 2, 3, 6, 7, 8, 9, 10, 11, 12, 13, 15, 16, 17, 18, 19, 20, 21, 22, 23, 24, 25, 26, 27, 28, 29]",189.6795769,7984,2251,1,20,9,1.0148510397583586
basic,49,42,0,0,0,22,"[0, 4, 5, 22]",4,20,"[1, 2, 3, 6, 7, 8, 9, 11, 15, 17, 18, 19, 20, 21, 23, 24, 25, 26, 27, 29]",161.4483885,8965,981,1,11,9,1.5637839560024156
basic,49,42,0,0,0,8,"[0, 4, 5, 22, 8]",5,14,"[1, 2, 3, 6, 7, 11, 15, 18, 19, 24, 25, 26, 27, 29]",139.3124449,9984,1019,1,10,9,1.4945254875288396
basic,49,42,0,0,0,1,"[0, 4, 5, 22, 8, 1]",6,5,"[2, 7, 19, 26, 27]",90.22069405,11139,1155,1,7,9,1.3471215162642187
basic,49,42,0,0,0,7,"[0, 4, 5, 22, 8, 1, 7]",7,4,"[2, 19, 26, 27]",60.22069405,13265,2126,1,3,9,1.3841357982845324
basic,49,42,0,0,0,26,"[0, 4, 5, 22, 8, 1, 7, 26]",8,1,[27],33.65003354,14440,1175,1,0,9,1.345201850808081
basic,49,42,0,0,1,27,"[0, 4, 5, 22, 8, 1, 7, 26, 27]",9,0,[],15.62227716,15485,1045,1,0,9,1.333637721408899
basic,49,42,0,1,1,27,"[0, 4, 5, 22, 8, 1, 7, 26, 27]",9,0,[],15.62227716,16668,1183,1,0,9,1.333637721408899
basic,50,39,0,0,0,0,[0],1,28,"[1, 2, 3, 4, 5, 6, 7, 9, 10, 11, 12, 13, 14, 15, 16, 17, 18, 19, 20, 21, 22, 23, 24, 25, 26, 27, 28, 29]",300,365,-1,1,30,10,0.0
basic,50,39,0,0,0,14,"[0, 14]",2,26,"[1, 2, 3, 4, 5, 6, 7, 9, 10, 12, 13, 15, 16, 17, 18, 19, 20, 21, 22, 23, 24, 25, 26, 27, 28, 29]",286.9615952,3698,3333,1,22,10,1.0
basic,50,39,0,0,0,4,"[0, 14, 4]",3,21,"[1, 3, 5, 6, 7, 10, 12, 15, 16, 17, 18, 19, 20, 21, 22, 23, 25, 26, 27, 28, 29]",220.0512074,4883,1185,5,50,8,1.123368351762204
basic,50,39,0,0,0,29,"[0, 14, 4, 29]",4,10,"[1, 5, 7, 10, 12, 15, 22, 23, 26, 28]",137.7529692,6281,1398,1,7,8,2.849510440079739
basic,50,39,0,0,0,12,"[0, 14, 4, 29, 12]",5,6,"[1, 7, 10, 15, 22, 26]",77.21372575,8065,1784,2,4,7,1.9013802484804037
basic,50,39,0,0,0,10,"[0, 14, 4, 29, 12, 10]",6,1,[7],41.70316394,9300,1235,1,0,7,2.173710674450165
basic,50,39,0,0,1,7,"[0, 14, 4, 29, 12, 10, 7]",7,0,[],8.281614008,11388,2088,1,0,7,1.917167976684916
basic,50,39,0,1,1,7,"[0, 14, 4, 29, 12, 10, 7]",7,0,[],8.281614008,12322,934,1,0,7,1.917167976684916
basic,51,38,0,0,0,0,[0],1,29,"[1, 2, 3, 4, 5, 6, 7, 8, 9, 10, 11, 12, 13, 14, 15, 16, 17, 18, 19, 20, 21, 22, 23, 24, 25, 26, 27, 28, 29]",300,426,-1,33,506,9,0.0
basic,51,38,0,0,0,20,"[0, 20]",2,28,"[1, 2, 3, 4, 5, 6, 7, 8, 9, 10, 11, 12, 13, 14, 15, 16, 17, 18, 19, 21, 22, 23, 24, 25, 26, 27, 28, 29]",246.1483519,2380,1954,14,198,9,1.0
basic,51,38,0,0,0,17,"[0, 20, 17]",3,24,"[3, 4, 5, 6, 7, 8, 9, 10, 11, 12, 13, 14, 15, 16, 18, 19, 22, 23, 24, 25, 26, 27, 28, 29]",222.3786233,3564,1184,7,72,9,1.1975812846326472
basic,51,38,0,0,0,4,"[0, 20, 17, 4]",4,16,"[3, 5, 10, 11, 12, 13, 14, 15, 16, 18, 19, 22, 24, 26, 27, 28]",166.6202158,6232,2668,1,25,9,1.9023221876705145
basic,51,38,0,0,0,15,"[0, 20, 17, 4, 15]",5,11,"[5, 10, 11, 12, 13, 14, 16, 19, 24, 26, 28]",140.6202158,7204,972,1,14,9,2.1721044675411143
basic,51,38,0,0,0,11,"[0, 20, 17, 4, 15, 11]",6,8,"[5, 10, 12, 13, 14, 16, 26, 28]",104.2196664,8730,1526,1,4,9,2.450127097035021
basic,51,38,0,0,0,28,"[0, 20, 17, 4, 15, 11, 28]",7,3,"[12, 14, 16]",77.20115422,9671,941,1,2,9,2.0862449182473224
basic,51,38,0,0,1,16,"[0, 20, 17, 4, 15, 11, 28, 16]",8,0,[],48.20115422,10863,1192,1,0,8,2.301284863447242
basic,51,38,0,1,1,16,"[0, 20, 17, 4, 15, 11, 28, 16]",8,0,[],48.20115422,12021,1158,1,0,8,2.301284863447242
basic,52,6,0,0,0,0,[0],1,29,"[1, 2, 3, 4, 5, 6, 7, 8, 9, 10, 11, 12, 13, 14, 15, 16, 17, 18, 19, 20, 21, 22, 23, 24, 25, 26, 27, 28, 29]",300,455,-1,180,4304,10,0.0
basic,52,6,0,0,0,3,"[0, 3]",2,28,"[1, 2, 4, 5, 6, 7, 8, 9, 10, 11, 12, 13, 14, 15, 16, 17, 18, 19, 20, 21, 22, 23, 24, 25, 26, 27, 28, 29]",266.4738908,1979,1524,90,1607,10,1.0
basic,52,6,0,0,0,18,"[0, 3, 18]",3,27,"[1, 2, 4, 5, 6, 7, 8, 9, 10, 11, 12, 13, 14, 15, 16, 17, 19, 20, 21, 22, 23, 24, 25, 26, 27, 28, 29]",237.4738908,3024,1045,34,516,10,1.0266750028725786
basic,52,6,0,0,0,17,"[0, 3, 18, 17]",4,26,"[1, 2, 4, 5, 6, 7, 8, 9, 10, 11, 12, 13, 14, 15, 16, 19, 20, 21, 22, 23, 24, 25, 26, 27, 28, 29]",223.5455025,4527,1503,17,243,10,1.0832900829093166
basic,52,6,0,0,0,10,"[0, 3, 18, 17, 10]",5,22,"[1, 2, 4, 5, 6, 7, 8, 9, 11, 13, 14, 16, 19, 20, 21, 22, 23, 24, 26, 27, 28, 29]",203.8224196,5339,812,10,111,10,1.140294203414171
basic,52,6,0,0,0,7,"[0, 3, 18, 17, 10, 7]",6,10,"[1, 2, 6, 8, 13, 16, 23, 24, 26, 29]",145.8224196,7141,1802,3,14,9,3.210639720456037
basic,52,6,0,0,0,26,"[0, 3, 18, 17, 10, 7, 26]",7,6,"[1, 2, 8, 13, 16, 24]",121.7392304,8155,1014,3,3,9,3.5839003819315134
basic,52,6,0,0,0,2,"[0, 3, 18, 17, 10, 7, 26, 2]",8,1,[8],91.90636263,10295,2140,1,0,9,2.623399579144561
basic,52,6,0,0,1,8,"[0, 3, 18, 17, 10, 7, 26, 2, 8]",9,0,[],13.19168802,11973,1678,1,0,9,1.8749245890341375
basic,52,6,0,1,1,8,"[0, 3, 18, 17, 10, 7, 26, 2, 8]",9,0,[],13.19168802,12711,738,1,0,9,1.8749245890341375
basic,53,24,0,0,0,0,[0],1,29,"[1, 2, 3, 4, 5, 6, 7, 8, 9, 10, 11, 12, 13, 14, 15, 16, 17, 18, 19, 20, 21, 22, 23, 24, 25, 26, 27, 28, 29]",300,401,-1,4,76,10,0.0
basic,53,24,0,0,0,14,"[0, 14]",2,27,"[1, 2, 3, 4, 5, 6, 8, 9, 10, 11, 12, 13, 15, 16, 17, 18, 19, 20, 21, 22, 23, 24, 25, 26, 27, 28, 29]",278.0455016,4617,4216,4,54,10,1.0
basic,53,24,0,0,0,16,"[0, 14, 16]",3,25,"[2, 3, 4, 5, 6, 8, 9, 10, 11, 12, 13, 15, 17, 18, 19, 20, 21, 22, 23, 24, 25, 26, 27, 28, 29]",188.9949542,5983,1366,4,31,10,1.238291113657358
basic,53,24,0,0,0,8,"[0, 14, 16, 8]",4,17,"[2, 3, 4, 6, 9, 10, 11, 13, 15, 20, 22, 23, 24, 26, 27, 28, 29]",159.9949542,9202,3219,2,13,10,1.2714603293172921
basic,53,24,0,0,0,22,"[0, 14, 16, 8, 22]",5,13,"[3, 4, 6, 9, 10, 11, 15, 23, 24, 26, 27, 28, 29]",146.5785463,10165,963,2,10,10,1.4558841300797367
basic,53,24,0,0,0,15,"[0, 14, 16, 8, 22, 15]",6,11,"[3, 4, 6, 9, 10, 11, 23, 26, 27, 28, 29]",125.3653429,11338,1173,2,8,10,1.459909027032803
basic,53,24,0,0,0,28,"[0, 14, 16, 8, 22, 15, 28]",7,5,"[4, 9, 11, 23, 27]",80.08841717,12515,1177,2,5,10,1.3358430839259279
basic,53,24,0,0,0,23,"[0, 14, 16, 8, 22, 15, 28, 23]",8,3,"[9, 11, 27]",61.06211957,14151,1636,2,2,10,1.3561794364003306
basic,53,24,0,0,0,11,"[0, 14, 16, 8, 22, 15, 28, 23, 11]",9,2,"[9, 27]",34.13629554,15348,1197,2,0,10,1.323606251450204
basic,53,24,0,0,1,27,"[0, 14, 16, 8, 22, 15, 28, 23, 11, 27]",10,0,[],6.33341799,17099,1751,1,0,10,1.2857748381905127
basic,53,24,0,1,1,27,"[0, 14, 16, 8, 22, 15, 28, 23, 11, 27]",10,0,[],6.33341799,18639,1540,1,0,10,1.2857748381905127
basic,54,11,0,0,0,0,[0],1,25,"[1, 2, 3, 4, 5, 6, 8, 9, 10, 11, 12, 13, 14, 15, 16, 17, 18, 19, 20, 22, 23, 25, 26, 27, 28]",300,460,-1,6,374,12,0.0
basic,54,11,0,0,0,1,"[0, 1]",2,24,"[2, 3, 4, 5, 6, 8, 9, 10, 11, 12, 13, 14, 15, 16, 17, 18, 19, 20, 22, 23, 25, 26, 27, 28]",264.6446609,2432,1972,6,217,12,1.0
basic,54,11,0,0,0,18,"[0, 1, 18]",3,19,"[2, 4, 5, 6, 8, 9, 11, 12, 14, 15, 16, 17, 19, 20, 22, 23, 25, 27, 28]",212.3187591,3831,1399,6,161,12,1.3884463804898786
basic,54,11,0,0,0,27,"[0, 1, 18, 27]",4,18,"[2, 4, 5, 6, 8, 9, 11, 12, 14, 15, 16, 17, 19, 20, 22, 23, 25, 28]",188.4650382,6799,2968,6,155,12,1.3600813284083875
basic,54,11,0,0,0,8,"[0, 1, 18, 27, 8]",5,11,"[2, 5, 6, 11, 12, 15, 17, 19, 22, 25, 28]",118.2510795,8182,1383,4,75,12,1.2516561493067806
basic,54,11,0,0,0,17,"[0, 1, 18, 27, 8, 17]",6,10,"[2, 5, 6, 11, 12, 15, 19, 22, 25, 28]",103.9332585,9071,889,4,40,12,1.3330781007673067
basic,54,11,0,0,0,11,"[0, 1, 18, 27, 8, 17, 11]",7,6,"[2, 5, 15, 19, 22, 28]",73.33914138,11530,2459,5,23,11,1.3074073994016688
basic,54,11,0,0,0,28,"[0, 1, 18, 27, 8, 17, 11, 28]",8,4,"[2, 5, 15, 22]",53.92265354,12611,1081,3,4,11,1.424031057711492
basic,54,11,0,0,0,5,"[0, 1, 18, 27, 8, 17, 11, 28, 5]",9,2,"[2, 22]",36.03410972,15149,2538,1,1,11,1.6224788488591741
basic,54,11,0,0,0,2,"[0, 1, 18, 27, 8, 17, 11, 28, 5, 2]",10,1,[22],19.03410972,16263,1114,1,0,11,1.5741435894094544
basic,54,11,0,0,1,22,"[0, 1, 18, 27, 8, 17, 11, 28, 5, 2, 22]",11,0,[],8.984234098,17210,947,1,0,11,1.5435733024311713
basic,54,11,0,1,1,22,"[0, 1, 18, 27, 8, 17, 11, 28, 5, 2, 22]",11,0,[],8.984234098,18584,1374,1,0,11,1.5435733024311713
basic,55,31,0,0,0,0,[0],1,27,"[1, 3, 4, 5, 6, 7, 8, 10, 11, 12, 13, 14, 15, 16, 17, 18, 19, 20, 21, 22, 23, 24, 25, 26, 27, 28, 29]",300,446,-1,2,87,10,0.0
basic,55,31,0,0,0,14,"[0, 14]",2,25,"[1, 3, 5, 6, 7, 8, 10, 11, 12, 13, 15, 16, 17, 18, 19, 20, 21, 22, 23, 24, 25, 26, 27, 28, 29]",263.861378,5802,5356,2,59,10,1.0
basic,55,31,0,0,0,27,"[0, 14, 27]",3,22,"[1, 3, 5, 6, 7, 8, 10, 11, 12, 13, 15, 16, 17, 18, 19, 20, 21, 22, 24, 25, 28, 29]",235.6833724,7131,1329,1,39,10,1.5881859159302467
basic,55,31,0,0,0,8,"[0, 14, 27, 8]",4,20,"[1, 3, 5, 6, 7, 10, 11, 12, 13, 16, 17, 18, 19, 20, 21, 22, 24, 25, 28, 29]",224.6380114,7952,821,1,36,10,2.1665048452331277
basic,55,31,0,0,0,18,"[0, 14, 27, 8, 18]",5,15,"[1, 5, 6, 7, 11, 12, 13, 16, 17, 19, 20, 22, 25, 28, 29]",188.7911147,9151,1199,1,26,10,1.7273375741920205
basic,55,31,0,0,0,17,"[0, 14, 27, 8, 18, 17]",6,13,"[1, 5, 6, 7, 11, 12, 13, 16, 19, 20, 22, 25, 28]",159.584951,10265,1114,1,13,10,1.551192427769927
basic,55,31,0,0,0,11,"[0, 14, 27, 8, 18, 17, 11]",7,7,"[5, 12, 16, 19, 22, 25, 28]",118.4753414,11484,1219,1,4,10,2.9650760544203494
basic,55,31,0,0,0,5,"[0, 14, 27, 8, 18, 17, 11, 5]",8,2,"[16, 28]",74.79468207,12694,1210,1,1,10,2.56711965625205
basic,55,31,0,0,0,28,"[0, 14, 27, 8, 18, 17, 11, 5, 28]",9,1,[16],54.57093365,13565,871,1,0,10,2.2865510762058148
basic,55,31,0,0,1,16,"[0, 14, 27, 8, 18, 17, 11, 5, 28, 16]",10,0,[],20.95546102,14654,1089,1,0,10,2.089356850786318
basic,55,31,0,1,1,16,"[0, 14, 27, 8, 18, 17, 11, 5, 28, 16]",10,0,[],20.95546102,16020,1366,1,0,10,2.089356850786318
basic,56,5,0,0,0,0,[0],1,29,"[1, 2, 3, 4, 5, 6, 7, 8, 9, 10, 11, 12, 13, 14, 15, 16, 17, 18, 19, 20, 21, 22, 23, 24, 25, 26, 27, 28, 29]",300,414,-1,5,139,9,0.0
basic,56,5,0,0,0,23,"[0, 23]",2,27,"[1, 2, 3, 4, 5, 6, 7, 8, 9, 10, 11, 12, 13, 14, 15, 16, 17, 18, 19, 20, 21, 22, 24, 25, 26, 27, 28]",249.8402552,3733,3319,3,75,9,1.0
basic,56,5,0,0,0,12,"[0, 23, 12]",3,20,"[2, 4, 5, 6, 8, 9, 10, 13, 14, 15, 16, 17, 18, 19, 21, 22, 24, 25, 26, 27]",206.6661889,6813,3080,12,56,8,1.3018394868431302
basic,56,5,0,0,0,25,"[0, 23, 12, 25]",4,18,"[2, 4, 5, 6, 8, 9, 10, 13, 14, 15, 17, 18, 19, 21, 22, 24, 26, 27]",178.8813009,8670,1857,12,34,8,1.9286025844958365
basic,56,5,0,0,0,24,"[0, 23, 12, 25, 24]",5,14,"[4, 5, 6, 8, 9, 13, 14, 15, 17, 18, 19, 22, 26, 27]",154.0418162,9914,1244,9,16,8,2.0153742455218557
basic,56,5,0,0,0,17,"[0, 23, 12, 25, 24, 17]",6,7,"[4, 5, 6, 8, 15, 18, 19]",119.0561048,10932,1018,8,2,8,1.6946205255346762
basic,56,5,0,0,0,5,"[0, 23, 12, 25, 24, 17, 5]",7,4,"[4, 6, 15, 18]",76.00961835,11865,933,4,0,8,1.498607098302
basic,56,5,0,0,1,15,"[0, 23, 12, 25, 24, 17, 5, 15]",8,0,[],35.98462616,13378,1513,1,0,8,1.4940703226391534
basic,56,5,0,1,1,15,"[0, 23, 12, 25, 24, 17, 5, 15]",8,0,[],35.98462616,15068,1690,1,0,8,1.4940703226391534
basic,57,35,0,0,0,0,[0],1,29,"[1, 2, 3, 4, 5, 6, 7, 8, 9, 10, 11, 12, 13, 14, 15, 16, 17, 18, 19, 20, 21, 22, 23, 24, 25, 26, 27, 28, 29]",300,347,-1,5,236,11,0.0
basic,57,35,0,0,0,24,"[0, 24]",2,27,"[1, 2, 4, 5, 6, 7, 8, 9, 10, 11, 12, 13, 14, 15, 16, 17, 18, 19, 20, 21, 22, 23, 25, 26, 27, 28, 29]",268.9838752,2017,1670,49,512,10,1.0
basic,57,35,0,0,0,17,"[0, 24, 17]",3,26,"[1, 2, 4, 5, 6, 7, 8, 9, 10, 11, 12, 13, 14, 15, 16, 18, 19, 20, 21, 22, 23, 25, 26, 27, 28, 29]",257.2791753,2800,783,33,238,10,1.0771477201815276
basic,57,35,0,0,0,1,"[0, 24, 17, 1]",4,25,"[2, 4, 5, 6, 7, 8, 9, 10, 11, 12, 13, 14, 15, 16, 18, 19, 20, 21, 22, 23, 25, 26, 27, 28, 29]",241.4677869,3624,824,26,151,10,1.2244804141479215
basic,57,35,0,0,0,15,"[0, 24, 17, 1, 15]",5,23,"[2, 4, 5, 6, 7, 8, 9, 10, 11, 12, 14, 16, 18, 19, 20, 21, 22, 23, 25, 26, 27, 28, 29]",218.6204676,4604,980,26,78,10,1.4642196672428094
basic,57,35,0,0,0,9,"[0, 24, 17, 1, 15, 9]",6,8,"[5, 6, 18, 19, 23, 25, 27, 28]",136.3283052,5965,1361,4,17,10,1.4559671847403095
basic,57,35,0,0,0,18,"[0, 24, 17, 1, 15, 9, 18]",7,5,"[5, 6, 19, 23, 25]",116.3033208,7035,1070,2,5,10,1.428087426214553
basic,57,35,0,0,0,23,"[0, 24, 17, 1, 15, 9, 18, 23]",8,3,"[5, 6, 25]",80.16469879,8382,1347,1,2,10,2.0676706275333627
basic,57,35,0,0,0,6,"[0, 24, 17, 1, 15, 9, 18, 23, 6]",9,1,[25],34.51384995,9447,1065,1,0,10,1.7556089162949768
basic,57,35,0,0,1,25,"[0, 24, 17, 1, 15, 9, 18, 23, 6, 25]",10,0,[],10.49302565,11132,1685,1,0,10,1.7877273407041965
basic,57,35,0,1,1,25,"[0, 24, 17, 1, 15, 9, 18, 23, 6, 25]",10,0,[],10.49302565,12555,1423,1,0,10,1.7877273407041965
basic,58,28,0,0,0,0,[0],1,27,"[1, 2, 3, 4, 5, 6, 7, 8, 9, 10, 11, 12, 13, 14, 15, 16, 17, 18, 19, 20, 22, 23, 25, 26, 27, 28, 29]",300,365,-1,2,96,9,0.0
basic,58,28,0,0,0,10,"[0, 10]",2,21,"[1, 2, 3, 4, 5, 6, 7, 8, 9, 11, 12, 13, 14, 15, 16, 18, 19, 20, 23, 26, 28]",253.3095299,5940,5575,3,30,8,1.0
basic,58,28,0,0,0,3,"[0, 10, 3]",3,18,"[2, 4, 5, 6, 7, 8, 9, 11, 12, 13, 14, 15, 18, 19, 20, 23, 26, 28]",189.239256,7082,1142,2,12,8,2.264198586891886
basic,58,28,0,0,0,20,"[0, 10, 3, 20]",4,7,"[5, 6, 14, 15, 23, 26, 28]",147.8992027,8120,1038,2,5,6,2.8147515364748563
basic,58,28,0,0,0,15,"[0, 10, 3, 20, 15]",5,1,[23],95.40158375,9331,1211,1,0,6,2.0604582076709654
basic,58,28,0,0,1,23,"[0, 10, 3, 20, 15, 23]",6,0,[],26.89610952,11249,1918,1,0,6,1.6408926256480778
basic,58,28,0,1,1,23,"[0, 10, 3, 20, 15, 23]",6,0,[],26.89610952,12641,1392,1,0,6,1.6408926256480778
basic,59,12,0,0,0,0,[0],1,29,"[1, 2, 3, 4, 5, 6, 7, 8, 9, 10, 11, 12, 13, 14, 15, 16, 17, 18, 19, 20, 21, 22, 23, 24, 25, 26, 27, 28, 29]",300,369,-1,2,32,9,0.0
basic,59,12,0,0,0,6,"[0, 6]",2,28,"[1, 2, 3, 4, 5, 7, 8, 9, 10, 11, 12, 13, 14, 15, 16, 17, 18, 19, 20, 21, 22, 23, 24, 25, 26, 27, 28, 29]",283.5987805,2641,2272,2,18,9,1.0
basic,59,12,0,0,0,16,"[0, 6, 16]",3,12,"[2, 4, 5, 7, 12, 14, 19, 22, 23, 24, 25, 27]",177.65068,5252,2611,6,32,8,1.3488213090441052
basic,59,12,0,0,0,22,"[0, 6, 16, 22]",4,10,"[2, 4, 5, 7, 12, 14, 19, 24, 25, 27]",156.65068,6134,882,4,19,8,1.6288643794035333
basic,59,12,0,0,0,4,"[0, 6, 16, 22, 4]",5,6,"[12, 14, 19, 24, 25, 27]",112.0524738,7239,1105,3,7,8,1.5046880678599257
basic,59,12,0,0,0,12,"[0, 6, 16, 22, 4, 12]",6,3,"[14, 24, 27]",69.86242757,8935,1696,2,2,8,1.3929069745299738
basic,59,12,0,0,0,27,"[0, 6, 16, 22, 4, 12, 27]",7,2,"[14, 24]",45.51083625,11199,2264,2,0,8,1.4878337252221001
basic,59,12,0,0,1,14,"[0, 6, 16, 22, 4, 12, 27, 14]",8,0,[],16.85773868,13686,2487,1,0,8,1.520732508501357
basic,59,12,0,1,1,14,"[0, 6, 16, 22, 4, 12, 27, 14]",8,0,[],16.85773868,15806,2120,1,0,8,1.520732508501357
basic,60,2,0,0,0,0,[0],1,23,"[1, 2, 4, 5, 6, 7, 8, 9, 12, 13, 15, 16, 17, 18, 19, 20, 22, 23, 25, 26, 27, 28, 29]",300,423,-1,70,620,10,0.0
basic,60,2,0,0,0,19,"[0, 19]",2,22,"[1, 2, 4, 5, 6, 7, 8, 9, 12, 13, 15, 16, 17, 18, 20, 22, 23, 25, 26, 27, 28, 29]",210.306076,3451,3028,67,431,10,1.0
basic,60,2,0,0,0,6,"[0, 19, 6]",3,16,"[1, 2, 5, 7, 9, 12, 13, 15, 16, 17, 18, 22, 23, 26, 27, 29]",158.1332862,4585,1134,2,30,9,1.0690872794731507
basic,60,2,0,0,0,1,"[0, 19, 6, 1]",4,8,"[2, 5, 9, 12, 13, 18, 22, 23]",108.9397907,6779,2194,4,3,7,1.0544232312863975
basic,60,2,0,0,0,22,"[0, 19, 6, 1, 22]",5,2,"[5, 13]",34.28726224,8029,1250,2,0,7,1.7219258158721042
basic,60,2,0,0,0,5,"[0, 19, 6, 1, 22, 5]",6,1,[13],21.48101377,8934,905,1,0,7,1.967852985345768
basic,60,2,0,0,1,13,"[0, 19, 6, 1, 22, 5, 13]",7,0,[],7.879543259,12627,3693,1,0,7,1.9748239608316664
basic,60,2,0,1,1,13,"[0, 19, 6, 1, 22, 5, 13]",7,0,[],7.879543259,13669,1042,1,0,7,1.9748239608316664
basic,61,8,0,0,0,0,[0],1,29,"[1, 2, 3, 4, 5, 6, 7, 8, 9, 10, 11, 12, 13, 14, 15, 16, 17, 18, 19, 20, 21, 22, 23, 24, 25, 26, 27, 28, 29]",300,375,-1,10,149,9,0.0
basic,61,8,0,0,0,6,"[0, 6]",2,28,"[1, 2, 3, 4, 5, 7, 8, 9, 10, 11, 12, 13, 14, 15, 16, 17, 18, 19, 20, 21, 22, 23, 24, 25, 26, 27, 28, 29]",257.8929935,2730,2355,12,179,8,1.0
basic,61,8,0,0,0,22,"[0, 6, 22]",3,20,"[1, 2, 5, 7, 8, 9, 10, 11, 13, 14, 17, 18, 19, 20, 23, 24, 25, 26, 27, 29]",185.5466045,6838,4108,2,13,7,2.4946098416356564
basic,61,8,0,0,0,5,"[0, 6, 22, 5]",4,8,"[1, 11, 14, 17, 18, 20, 23, 25]",102.673207,12414,5576,2,9,7,4.338162464647736
basic,61,8,0,0,0,25,"[0, 6, 22, 5, 25]",5,3,"[1, 14, 23]",63.46861548,13515,1101,1,2,7,3.4276311292372084
basic,61,8,0,0,0,1,"[0, 6, 22, 5, 25, 1]",6,1,[23],38.46861548,14739,1224,1,0,7,2.806331050559889
basic,61,8,0,0,1,23,"[0, 6, 22, 5, 25, 1, 23]",7,0,[],15.44688661,17167,2428,1,0,7,2.448589864456693
basic,61,8,0,1,1,23,"[0, 6, 22, 5, 25, 1, 23]",7,0,[],15.44688661,18720,1553,1,0,7,2.448589864456693
basic,62,20,0,0,0,0,[0],1,21,"[1, 2, 3, 4, 5, 6, 7, 8, 9, 12, 17, 18, 20, 21, 22, 23, 25, 26, 27, 28, 29]",300,421,-1,1,9,9,0.0
basic,62,20,0,0,0,29,"[0, 29]",2,16,"[1, 3, 4, 5, 7, 8, 12, 17, 18, 20, 21, 22, 23, 25, 27, 28]",245.8797635,2275,1854,1,18,7,1.0
basic,62,20,0,0,0,12,"[0, 29, 12]",3,11,"[1, 3, 4, 5, 8, 17, 18, 20, 21, 27, 28]",192.7949257,3157,882,1,7,7,3.7691296919769885
basic,62,20,0,0,0,1,"[0, 29, 12, 1]",4,6,"[4, 5, 8, 21, 27, 28]",110.8071218,4484,1327,1,4,7,1.8430889449075105
basic,62,20,0,0,0,5,"[0, 29, 12, 1, 5]",5,3,"[8, 21, 28]",74.13288012,5574,1090,1,2,7,1.7976989501720055
basic,62,20,0,0,0,21,"[0, 29, 12, 1, 5, 21]",6,1,[8],29.13288012,8766,3192,1,0,7,1.5879330318401907
basic,62,20,0,0,1,8,"[0, 29, 12, 1, 5, 21, 8]",7,0,[],11.66863092,9649,883,1,0,7,1.5684551128267752
basic,62,20,0,1,1,8,"[0, 29, 12, 1, 5, 21, 8]",7,0,[],11.66863092,11653,2004,1,0,7,1.5684551128267752
basic,63,37,0,0,0,0,[0],1,29,"[1, 2, 3, 4, 5, 6, 7, 8, 9, 10, 11, 12, 13, 14, 15, 16, 17, 18, 19, 20, 21, 22, 23, 24, 25, 26, 27, 28, 29]",300,506,-1,6,168,10,0.0
basic,63,37,0,0,0,19,"[0, 19]",2,19,"[1, 2, 4, 5, 6, 7, 9, 10, 11, 15, 17, 18, 20, 21, 22, 25, 26, 28, 29]",185.6627795,7130,6624,25,244,9,1.0
basic,63,37,0,0,0,21,"[0, 19, 21]",3,14,"[1, 2, 4, 7, 10, 11, 15, 17, 18, 20, 22, 25, 26, 29]",144.5531699,10959,3829,10,75,9,1.001632816594558
basic,63,37,0,0,0,15,"[0, 19, 21, 15]",4,9,"[1, 2, 4, 7, 18, 20, 22, 26, 29]",129.5531699,11789,830,5,32,9,1.0243376499143988
basic,63,37,0,0,0,20,"[0, 19, 21, 15, 20]",5,8,"[1, 2, 4, 7, 18, 22, 26, 29]",112.5531699,15434,3645,5,14,9,1.250507291508492
basic,63,37,0,0,0,1,"[0, 19, 21, 15, 20, 1]",6,6,"[2, 4, 7, 18, 22, 26]",78.31868434,17314,1880,4,4,9,1.4002166443864243
basic,63,37,0,0,0,4,"[0, 19, 21, 15, 20, 1, 4]",7,2,"[2, 22]",60.5986392,20221,2907,2,0,9,1.472939356650523
basic,63,37,0,0,0,22,"[0, 19, 21, 15, 20, 1, 4, 22]",8,1,[2],35.5986392,21266,1045,1,0,9,1.6235308695745967
basic,63,37,0,0,1,2,"[0, 19, 21, 15, 20, 1, 4, 22, 2]",9,0,[],7.940005826,22869,1603,1,0,9,1.9319703739878353
basic,63,37,0,1,1,2,"[0, 19, 21, 15, 20, 1, 4, 22, 2]",9,0,[],7.940005826,24255,1386,1,0,9,1.9319703739878353
basic,64,44,0,0,0,0,[0],1,29,"[1, 2, 3, 4, 5, 6, 7, 8, 9, 10, 11, 12, 13, 14, 15, 16, 17, 18, 19, 20, 21, 22, 23, 24, 25, 26, 27, 28, 29]",300,578,-1,13,126,7,0.0
basic,64,44,0,0,0,11,"[0, 11]",2,18,"[4, 5, 6, 7, 8, 9, 12, 14, 16, 17, 19, 20, 22, 23, 24, 25, 26, 28]",152.7790776,7417,6839,5,34,7,1.0
basic,64,44,0,0,0,24,"[0, 11, 24]",3,13,"[4, 5, 7, 8, 9, 12, 14, 17, 20, 22, 23, 25, 28]",125.8532535,9098,1681,5,23,7,1.1588941745226709
basic,64,44,0,0,0,9,"[0, 11, 24, 9]",4,7,"[4, 7, 8, 12, 14, 20, 23]",93.09657483,10166,1068,2,8,7,1.3039383713641313
basic,64,44,0,0,0,4,"[0, 11, 24, 9, 4]",5,5,"[7, 12, 14, 20, 23]",73.39885923,11567,1401,2,3,7,1.2901330701441578
basic,64,44,0,0,0,7,"[0, 11, 24, 9, 4, 7]",6,1,[23],42.38273439,12382,815,1,0,7,1.2468141312360979
basic,64,44,0,0,1,23,"[0, 11, 24, 9, 4, 7, 23]",7,0,[],23.27776121,13265,883,1,0,7,1.2635191782769477
basic,64,44,0,1,1,23,"[0, 11, 24, 9, 4, 7, 23]",7,0,[],23.27776121,14706,1441,1,0,7,1.2635191782769477
basic,65,9,0,0,0,0,[0],1,27,"[1, 3, 4, 5, 6, 7, 8, 9, 10, 11, 13, 14, 15, 16, 17, 18, 19, 20, 21, 22, 23, 24, 25, 26, 27, 28, 29]",300,460,-1,2,182,10,0.0
basic,65,9,0,0,0,25,"[0, 25]",2,24,"[1, 3, 4, 5, 6, 7, 8, 9, 10, 11, 13, 15, 16, 17, 18, 19, 20, 21, 22, 23, 24, 26, 27, 28]",275.9168108,7468,7008,2,104,10,1.0
basic,65,9,0,0,0,10,"[0, 25, 10]",3,20,"[3, 4, 5, 7, 8, 9, 11, 13, 15, 16, 17, 18, 19, 20, 21, 22, 23, 26, 27, 28]",236.0670932,8620,1152,2,76,10,1.1767014107208227
basic,65,9,0,0,0,8,"[0, 25, 10, 8]",4,19,"[3, 4, 5, 7, 9, 11, 13, 15, 16, 17, 18, 19, 20, 21, 22, 23, 26, 27, 28]",187.6935467,10020,1400,1,29,10,1.7608170712242983
basic,65,9,0,0,0,28,"[0, 25, 10, 8, 28]",5,18,"[3, 4, 5, 7, 9, 11, 13, 15, 16, 17, 18, 19, 20, 21, 22, 23, 26, 27]",176.8768928,11804,1784,1,15,10,1.6576318206889098
basic,65,9,0,0,0,23,"[0, 25, 10, 8, 28, 23]",6,12,"[3, 4, 7, 9, 11, 18, 19, 20, 21, 22, 26, 27]",151.8569008,13132,1328,1,7,10,2.488131366775142
basic,65,9,0,0,0,9,"[0, 25, 10, 8, 28, 23, 9]",7,10,"[3, 4, 7, 11, 18, 19, 20, 21, 26, 27]",129.4962211,14038,906,1,5,10,2.289724512754012
basic,65,9,0,0,0,26,"[0, 25, 10, 8, 28, 23, 9, 26]",8,3,"[18, 20, 21]",72.8481849,15085,1047,1,2,10,1.944382504121744
basic,65,9,0,0,1,18,"[0, 25, 10, 8, 28, 23, 9, 26, 18]",9,0,[],11.97125988,16166,1081,1,0,9,1.6527738344613165
basic,65,9,0,1,1,18,"[0, 25, 10, 8, 28, 23, 9, 26, 18]",9,0,[],11.97125988,17188,1022,1,0,9,1.6527738344613165
basic,66,36,0,0,0,0,[0],1,24,"[2, 4, 5, 6, 7, 8, 9, 10, 12, 13, 14, 15, 16, 17, 18, 19, 20, 22, 23, 25, 26, 27, 28, 29]",300,512,-1,2,200,10,0.0
basic,66,36,0,0,0,18,"[0, 18]",2,21,"[2, 4, 5, 6, 7, 8, 9, 10, 12, 13, 14, 16, 17, 19, 22, 23, 25, 26, 27, 28, 29]",279.6039219,4016,3504,2,110,10,1.0
basic,66,36,0,0,0,23,"[0, 18, 23]",3,17,"[2, 4, 5, 6, 7, 9, 10, 12, 13, 16, 17, 19, 22, 25, 26, 28, 29]",209.5967795,5049,1033,8,38,8,1.474902475021843
basic,66,36,0,0,0,12,"[0, 18, 23, 12]",4,8,"[2, 9, 13, 16, 17, 19, 25, 28]",149.4303436,6069,1020,8,29,8,6.781316270599289
basic,66,36,0,0,0,9,"[0, 18, 23, 12, 9]",5,6,"[2, 13, 16, 17, 19, 25]",87.06849632,7728,1659,5,8,8,3.083051160279812
basic,66,36,0,0,0,19,"[0, 18, 23, 12, 9, 19]",6,5,"[2, 13, 16, 17, 25]",71.93575037,8912,1184,5,1,8,2.958880572092807
basic,66,36,0,0,0,17,"[0, 18, 23, 12, 9, 19, 17]",7,2,"[2, 16]",44.043099,10068,1156,2,0,8,2.7081216946663527
basic,66,36,0,0,1,2,"[0, 18, 23, 12, 9, 19, 17, 2]",8,0,[],2.812042748,14325,4257,1,0,8,2.6316312019952623
basic,66,36,0,1,1,2,"[0, 18, 23, 12, 9, 19, 17, 2]",8,0,[],2.812042748,15315,990,1,0,8,2.6316312019952623
basic,67,3,0,0,0,0,[0],1,29,"[1, 2, 3, 4, 5, 6, 7, 8, 9, 10, 11, 12, 13, 14, 15, 16, 17, 18, 19, 20, 21, 22, 23, 24, 25, 26, 27, 28, 29]",300,365,-1,34,427,10,0.0
basic,67,3,0,0,0,7,"[0, 7]",2,28,"[1, 2, 3, 4, 5, 6, 8, 9, 10, 11, 12, 13, 14, 15, 16, 17, 18, 19, 20, 21, 22, 23, 24, 25, 26, 27, 28, 29]",278.8103799,5105,4740,24,215,10,1.0
basic,67,3,0,0,0,8,"[0, 7, 8]",3,24,"[1, 2, 3, 4, 5, 6, 10, 11, 12, 13, 14, 15, 16, 17, 18, 19, 20, 21, 22, 24, 25, 26, 27, 28]",222.837172,6505,1400,16,114,10,1.2853332575451413
basic,67,3,0,0,0,24,"[0, 7, 8, 24]",4,21,"[1, 3, 4, 5, 6, 10, 11, 12, 14, 15, 16, 17, 18, 19, 20, 21, 22, 25, 26, 27, 28]",210.671647,7735,1230,16,91,10,1.5177505014936548
basic,67,3,0,0,0,14,"[0, 7, 8, 24, 14]",5,7,"[3, 4, 10, 17, 19, 20, 21]",139.5590602,9802,2067,4,18,10,1.2465780547557723
basic,67,3,0,0,0,21,"[0, 7, 8, 24, 14, 21]",6,6,"[3, 4, 10, 17, 19, 20]",112.6518121,10716,914,2,7,10,1.2183717977583874
basic,67,3,0,0,0,19,"[0, 7, 8, 24, 14, 21, 19]",7,5,"[3, 4, 10, 17, 20]",100.4452565,11636,920,2,4,10,1.3521756718137403
basic,67,3,0,0,0,3,"[0, 7, 8, 24, 14, 21, 19, 3]",8,2,"[17, 20]",63.10894706,12801,1165,2,0,10,1.8936141376820974
basic,67,3,0,0,0,20,"[0, 7, 8, 24, 14, 21, 19, 3, 20]",9,1,[17],42.712869,14715,1914,1,0,10,2.2725211329603123
basic,67,3,0,0,1,17,"[0, 7, 8, 24, 14, 21, 19, 3, 20, 17]",10,0,[],30.06375836,15667,952,1,0,10,2.638583435197603
basic,67,3,0,1,1,17,"[0, 7, 8, 24, 14, 21, 19, 3, 20, 17]",10,0,[],30.06375836,16605,938,1,0,10,2.638583435197603
basic,68,1,0,0,0,0,[0],1,26,"[1, 2, 4, 5, 7, 8, 9, 10, 11, 12, 13, 14, 15, 16, 17, 18, 19, 20, 21, 22, 23, 24, 25, 26, 28, 29]",300,384,-1,6,74,7,0.0
basic,68,1,0,0,0,8,"[0, 8]",2,23,"[1, 4, 5, 7, 9, 10, 11, 12, 13, 14, 15, 16, 17, 18, 19, 20, 21, 23, 24, 25, 26, 28, 29]",202,6188,5804,1,16,7,1.0
basic,68,1,0,0,0,14,"[0, 8, 14]",3,12,"[1, 5, 9, 15, 17, 18, 19, 20, 25, 26, 28, 29]",138.1094686,7318,1130,2,11,6,1.6219900283216735
basic,68,1,0,0,0,17,"[0, 8, 14, 17]",4,6,"[1, 15, 18, 20, 28, 29]",85.75490817,8354,1036,1,5,6,1.4120458181998161
basic,68,1,0,0,0,1,"[0, 8, 14, 17, 1]",5,1,[28],61.40331685,9651,1297,1,0,6,1.3875183639701723
basic,68,1,0,0,1,28,"[0, 8, 14, 17, 1, 28]",6,0,[],26.51778976,10480,829,1,0,6,1.3376292144876023
basic,68,1,0,1,1,28,"[0, 8, 14, 17, 1, 28]",6,0,[],26.51778976,12555,2075,1,0,6,1.3376292144876023
undo,69,8,0,0,0,0,[0],1,29,"[1, 2, 3, 4, 5, 6, 7, 8, 9, 10, 11, 12, 13, 14, 15, 16, 17, 18, 19, 20, 21, 22, 23, 24, 25, 26, 27, 28, 29]",300,1841,-1,10,149,9,0.0
undo,69,8,0,0,0,5,"[0, 5]",2,28,"[1, 2, 3, 4, 6, 7, 8, 9, 10, 11, 12, 13, 14, 15, 16, 17, 18, 19, 20, 21, 22, 23, 24, 25, 26, 27, 28, 29]",254.5137383,4613,2772,10,100,9,1.0
undo,69,8,0,0,0,14,"[0, 5, 14]",3,20,"[1, 2, 3, 4, 6, 7, 11, 15, 16, 17, 18, 19, 20, 21, 22, 23, 24, 25, 28, 29]",214.5512559,6266,1653,4,36,9,1.0001019035932595
undo,69,8,0,0,0,17,"[0, 5, 14, 17]",4,15,"[1, 4, 6, 7, 11, 15, 16, 18, 19, 20, 22, 23, 24, 25, 28]",177.5377449,7474,1208,4,16,9,1.121197267659591
undo,69,8,0,0,0,11,"[0, 5, 14, 17, 11]",5,11,"[1, 4, 15, 16, 18, 19, 22, 23, 24, 25, 28]",152.3583883,8515,1041,4,8,9,1.1277254166016362
undo,69,8,0,0,0,24,"[0, 5, 14, 17, 11, 24]",6,3,"[15, 16, 28]",115.1428001,9458,943,2,2,9,1.1227411011978805
undo,69,8,0,0,0,15,"[0, 5, 14, 17, 11, 24, 15]",7,2,"[16, 28]",98.37974552,11692,2234,2,0,9,1.1956385406066814
undo,69,8,0,0,0,16,"[0, 5, 14, 17, 11, 24, 15, 16]",8,1,[28],47.30137436,14069,2377,1,0,9,1.36482239111247
undo,69,8,0,0,1,28,"[0, 5, 14, 17, 11, 24, 15, 16, 28]",9,0,[],24.94069458,15884,1815,1,0,9,1.632953105226947
undo,69,8,0,1,1,28,"[0, 5, 14, 17, 11, 24, 15, 16, 28]",9,0,[],24.94069458,18128,2244,1,0,9,1.632953105226947
undo,70,21,0,0,0,0,[0],1,29,"[1, 2, 3, 4, 5, 6, 7, 8, 9, 10, 11, 12, 13, 14, 15, 16, 17, 18, 19, 20, 21, 22, 23, 24, 25, 26, 27, 28, 29]",300,487,-1,84,830,9,0.0
undo,70,21,0,0,0,18,"[0, 18]",2,28,"[1, 2, 3, 4, 5, 6, 7, 8, 9, 10, 11, 12, 13, 14, 15, 16, 17, 19, 20, 21, 22, 23, 24, 25, 26, 27, 28, 29]",240.923778,2329,1842,44,305,9,1.0
undo,70,21,0,0,0,22,"[0, 18, 22]",3,27,"[1, 2, 3, 4, 5, 6, 7, 8, 9, 10, 11, 12, 13, 14, 15, 16, 17, 19, 20, 21, 23, 24, 25, 26, 27, 28, 29]",214.5230205,3295,966,13,86,9,1.0395459700082075
undo,70,21,0,0,0,29,"[0, 18, 22, 29]",4,20,"[2, 4, 6, 7, 8, 9, 10, 11, 12, 14, 15, 16, 17, 20, 21, 23, 24, 25, 26, 27]",184.2575286,4159,864,13,48,9,1.3662220122820667
undo,70,21,0,0,0,25,"[0, 18, 22, 29, 25]",5,13,"[4, 6, 8, 9, 11, 12, 14, 15, 16, 17, 20, 21, 23]",139.0358524,6641,2482,11,18,9,2.6909708046730523
undo,70,21,0,0,0,23,"[0, 18, 22, 29, 25, 23]",6,7,"[4, 8, 14, 15, 16, 17, 21]",95.71149432,8598,1957,6,5,9,2.0630993046242816
undo,70,21,0,0,0,21,"[0, 18, 22, 29, 25, 23, 21]",7,2,"[4, 14]",66.09730853,10490,1892,2,0,9,2.602133289828447
undo,70,21,0,0,0,14,"[0, 18, 22, 29, 25, 23, 21, 14]",8,1,[4],40.48481158,12557,2067,1,0,9,2.26566587256098
undo,70,21,0,0,1,4,"[0, 18, 22, 29, 25, 23, 21, 14, 4]",9,0,[],26.34267596,13572,1015,1,0,9,2.1395154462606985
undo,70,21,0,1,1,4,"[0, 18, 22, 29, 25, 23, 21, 14, 4]",9,0,[],26.34267596,15297,1725,1,0,9,2.1395154462606985
undo,71,18,0,0,0,0,[0],1,28,"[1, 2, 3, 4, 5, 6, 7, 8, 9, 10, 11, 12, 13, 14, 16, 17, 18, 19, 20, 21, 22, 23, 24, 25, 26, 27, 28, 29]",300,384,-1,3,136,10,0.0
undo,71,18,0,0,0,28,"[0, 28]",2,16,"[1, 3, 5, 7, 8, 9, 12, 13, 14, 16, 20, 23, 24, 25, 26, 27]",236.4311397,5835,5451,2,19,10,1.0
undo,71,18,0,0,0,7,"[0, 28, 7]",3,15,"[1, 3, 5, 8, 9, 12, 13, 14, 16, 20, 23, 24, 25, 26, 27]",214.4084242,6768,933,2,17,10,1.4345180696367563
undo,71,18,0,0,0,25,"[0, 28, 7, 25]",4,13,"[1, 3, 5, 8, 9, 12, 13, 14, 16, 20, 23, 26, 27]",186.6055466,7998,1230,2,15,10,1.8896451241781882
undo,71,18,0,0,0,8,"[0, 28, 7, 25, 8]",5,10,"[3, 5, 9, 12, 13, 14, 16, 23, 26, 27]",149.551532,11376,3378,2,10,10,1.590467437592877
undo,71,18,0,0,0,13,"[0, 28, 7, 25, 8, 13]",6,9,"[3, 5, 9, 12, 14, 16, 23, 26, 27]",128.4565089,12233,857,2,5,10,1.8248274983549797
undo,71,18,0,0,0,14,"[0, 28, 7, 25, 8, 13, 14]",7,7,"[3, 5, 9, 12, 23, 26, 27]",109.4828429,13500,1267,2,3,10,1.6993534956692746
undo,71,18,0,0,0,3,"[0, 28, 7, 25, 8, 13, 14, 3]",8,3,"[5, 12, 27]",79.39962499,14463,963,2,1,10,1.802637206541468
undo,71,18,0,0,0,5,"[0, 28, 7, 25, 8, 13, 14, 3, 5]",9,1,[12],21.21887216,15622,1159,1,0,10,1.559774889743805
undo,71,18,0,0,1,12,"[0, 28, 7, 25, 8, 13, 14, 3, 5, 12]",10,0,[],9.817117911,16521,899,1,0,10,1.563993037384447
undo,71,18,0,1,1,12,"[0, 28, 7, 25, 8, 13, 14, 3, 5, 12]",10,0,[],9.817117911,17537,1016,1,0,10,1.563993037384447
undo,72,30,0,0,0,0,[0],1,19,"[3, 4, 5, 7, 9, 11, 16, 17, 18, 19, 20, 21, 22, 24, 25, 26, 27, 28, 29]",300,394,-1,5,41,8,0.0
undo,72,30,0,0,0,16,"[0, 16]",2,17,"[3, 5, 7, 9, 11, 17, 18, 19, 20, 21, 22, 24, 25, 26, 27, 28, 29]",219.3774225,4152,3758,5,34,8,1.0
