condition,trial_id,map_id,undoIndicator,submit,checkEnd,currentChoice,chosen_all,n_city_all,n_within_reach,cities_reach,currentBudget,time_all,rt_all,n_opt_paths_all,n_subopt_paths_all,mas_all,tortuosity_all
undo,0,22,0,0,0,0,[0],1,29,"[1, 2, 3, 4, 5, 6, 7, 8, 9, 10, 11, 12, 13, 14, 15, 16, 17, 18, 19, 20, 21, 22, 23, 24, 25, 26, 27, 28, 29]",300,130,-1,31,704,9,0.0
undo,0,22,0,0,0,29,"[0, 29]",2,22,"[1, 3, 5, 6, 7, 8, 9, 11, 13, 14, 15, 16, 17, 19, 20, 21, 22, 23, 24, 25, 27, 28]",222.9935068,5745,5615,11,235,9,1.0
undo,0,22,0,0,0,19,"[0, 29, 19]",3,18,"[1, 3, 6, 7, 8, 9, 13, 14, 15, 16, 17, 20, 21, 22, 23, 24, 25, 28]",207.9602104,6690,945,11,172,9,1.1559285443414686
undo,0,22,0,0,0,9,"[0, 29, 19, 9]",4,16,"[1, 3, 6, 7, 8, 13, 14, 15, 16, 17, 20, 21, 22, 24, 25, 28]",187.5641323,7490,800,7,84,9,1.2555028175473422
undo,0,22,0,0,0,6,"[0, 29, 19, 9, 6]",5,13,"[3, 7, 13, 14, 15, 16, 17, 20, 21, 22, 24, 25, 28]",160.9370784,9300,1810,17,16,8,1.5692551066355458
undo,0,22,0,0,0,28,"[0, 29, 19, 9, 6, 28]",6,5,"[7, 14, 16, 17, 22]",130.9370784,10290,990,5,2,8,1.5285578577513508
undo,0,22,0,0,0,16,"[0, 29, 19, 9, 6, 28, 16]",7,1,[22],96.49872771,11110,820,1,0,8,2.5001967567448653
undo,0,22,0,0,1,22,"[0, 29, 19, 9, 6, 28, 16, 22]",8,0,[],8.039697643,14270,3160,1,0,8,2.084367549440744
undo,0,22,1,0,0,16,"[0, 29, 19, 9, 6, 28, 16]",7,1,[22],96.49872771,20261,5991,1,0,8,2.5001967567448653
undo,0,22,1,0,0,28,"[0, 29, 19, 9, 6, 28]",6,5,"[7, 14, 16, 17, 22]",130.9370784,20494,233,5,2,8,1.5285578577513508
undo,0,22,1,0,0,6,"[0, 29, 19, 9, 6]",5,13,"[3, 7, 13, 14, 15, 16, 17, 20, 21, 22, 24, 25, 28]",160.9370784,20694,200,17,16,8,1.5692551066355458
undo,0,22,1,0,0,9,"[0, 29, 19, 9]",4,16,"[1, 3, 6, 7, 8, 13, 14, 15, 16, 17, 20, 21, 22, 24, 25, 28]",187.5641323,21061,367,7,84,9,1.2555028175473422
undo,0,22,0,0,0,14,"[0, 29, 19, 9, 14]",5,11,"[1, 3, 6, 7, 13, 16, 17, 20, 21, 24, 28]",144.5176458,22516,1455,4,28,9,1.200251311198461
undo,0,22,0,0,0,7,"[0, 29, 19, 9, 14, 7]",6,10,"[1, 3, 6, 13, 16, 17, 20, 21, 24, 28]",131.479241,23616,1100,4,18,9,1.3399585036197592
undo,0,22,0,0,0,17,"[0, 29, 19, 9, 14, 7, 17]",7,5,"[1, 3, 20, 21, 24]",89.86193693,24972,1356,3,3,9,1.3297480627305363
undo,0,22,0,0,0,21,"[0, 29, 19, 9, 14, 7, 17, 21]",8,2,"[3, 24]",38.51020862,26864,1892,2,0,9,1.621067475944888
undo,0,22,0,0,1,3,"[0, 29, 19, 9, 14, 7, 17, 21, 3]",9,0,[],13.49021662,29149,2285,1,0,9,1.6812263795812836
undo,0,22,0,1,1,3,"[0, 29, 19, 9, 14, 7, 17, 21, 3]",9,0,[],13.49021662,30727,1578,1,0,9,1.6812263795812836
undo,1,25,0,0,0,0,[0],1,28,"[1, 2, 3, 4, 5, 7, 8, 9, 10, 11, 12, 13, 14, 15, 16, 17, 18, 19, 20, 21, 22, 23, 24, 25, 26, 27, 28, 29]",300,147,-1,5,94,10,0.0
undo,1,25,0,0,0,23,"[0, 23]",2,23,"[1, 2, 3, 5, 7, 8, 9, 11, 12, 13, 14, 16, 17, 19, 20, 21, 22, 24, 25, 26, 27, 28, 29]",259.7756293,3323,3176,3,33,10,1.0
undo,1,25,0,0,0,22,"[0, 23, 22]",3,21,"[1, 2, 3, 5, 7, 8, 9, 11, 12, 13, 14, 16, 17, 19, 20, 21, 24, 25, 27, 28, 29]",200.3786597,6820,3497,1,22,9,1.2876090609136028
undo,1,25,0,0,0,29,"[0, 23, 22, 29]",4,16,"[1, 3, 5, 7, 8, 9, 11, 12, 13, 17, 19, 20, 21, 24, 25, 28]",184.2541442,7837,1017,1,13,9,1.8482114467728663
undo,1,25,0,0,0,19,"[0, 23, 22, 29, 19]",5,12,"[1, 3, 5, 7, 9, 11, 12, 13, 17, 20, 21, 24]",167.9753236,8578,741,1,10,9,2.747534441683921
undo,1,25,0,0,0,1,"[0, 23, 22, 29, 19, 1]",6,3,"[5, 20, 21]",109.451824,9833,1255,2,1,8,6.137143510949588
undo,1,25,0,0,0,21,"[0, 23, 22, 29, 19, 1, 21]",7,1,[20],81.00889871,10515,682,1,0,8,4.361541858069621
undo,1,25,0,0,1,20,"[0, 23, 22, 29, 19, 1, 21, 20]",8,0,[],43.52556908,12374,1859,1,0,8,3.28813372974359
undo,1,25,1,0,0,21,"[0, 23, 22, 29, 19, 1, 21]",7,1,[20],81.00889871,14962,2588,1,0,8,4.361541858069621
undo,1,25,1,0,0,1,"[0, 23, 22, 29, 19, 1]",6,3,"[5, 20, 21]",109.451824,15129,167,2,1,8,6.137143510949588
undo,1,25,1,0,0,19,"[0, 23, 22, 29, 19]",5,12,"[1, 3, 5, 7, 9, 11, 12, 13, 17, 20, 21, 24]",167.9753236,15296,167,1,10,9,2.747534441683921
undo,1,25,1,0,0,29,"[0, 23, 22, 29]",4,16,"[1, 3, 5, 7, 8, 9, 11, 12, 13, 17, 19, 20, 21, 24, 25, 28]",184.2541442,15462,166,1,13,9,1.8482114467728663
undo,1,25,1,0,0,22,"[0, 23, 22]",3,21,"[1, 2, 3, 5, 7, 8, 9, 11, 12, 13, 14, 16, 17, 19, 20, 21, 24, 25, 27, 28, 29]",200.3786597,15829,367,1,22,9,1.2876090609136028
undo,1,25,1,0,0,23,"[0, 23]",2,23,"[1, 2, 3, 5, 7, 8, 9, 11, 12, 13, 14, 16, 17, 19, 20, 21, 22, 24, 25, 26, 27, 28, 29]",259.7756293,17812,1983,3,33,10,1.0
undo,1,25,0,0,0,19,"[0, 23, 19]",3,21,"[1, 2, 3, 5, 7, 8, 9, 11, 12, 13, 14, 16, 17, 20, 21, 22, 24, 25, 27, 28, 29]",223.9287326,18973,1161,3,24,10,1.583101227007039
undo,1,25,0,0,0,29,"[0, 23, 19, 29]",4,19,"[1, 2, 3, 5, 7, 8, 9, 11, 12, 13, 14, 16, 17, 20, 21, 22, 24, 25, 28]",207.649912,20937,1964,3,17,10,1.474631541426484
undo,1,25,0,0,0,22,"[0, 23, 19, 29, 22]",5,18,"[1, 2, 3, 5, 7, 8, 9, 11, 12, 13, 14, 16, 17, 20, 21, 24, 25, 28]",191.5253965,22183,1246,3,14,10,1.4020377754906637
undo,1,25,0,0,0,7,"[0, 23, 19, 29, 22, 7]",6,7,"[3, 8, 9, 11, 13, 24, 28]",115.8814939,24089,1906,3,11,10,1.5709678649326715
undo,1,25,0,0,0,24,"[0, 23, 19, 29, 22, 7, 24]",7,5,"[3, 8, 9, 13, 28]",91.12265712,24990,901,3,7,10,1.486191600033379
undo,1,25,0,0,0,9,"[0, 23, 19, 29, 22, 7, 24, 9]",8,4,"[3, 8, 13, 28]",73.09490075,26215,1225,3,3,10,1.453504870342882
undo,1,25,0,0,0,3,"[0, 23, 19, 29, 22, 7, 24, 9, 3]",9,3,"[8, 13, 28]",42.82940885,28207,1992,3,0,10,1.388955167525479
undo,1,25,0,0,1,28,"[0, 23, 19, 29, 22, 7, 24, 9, 3, 28]",10,0,[],11.52445716,29081,874,1,0,10,1.3331084120212044
undo,1,25,0,1,1,28,"[0, 23, 19, 29, 22, 7, 24, 9, 3, 28]",10,0,[],11.52445716,30761,1680,1,0,10,1.3331084120212044
undo,2,5,0,0,0,0,[0],1,29,"[1, 2, 3, 4, 5, 6, 7, 8, 9, 10, 11, 12, 13, 14, 15, 16, 17, 18, 19, 20, 21, 22, 23, 24, 25, 26, 27, 28, 29]",300,164,-1,5,139,9,0.0
undo,2,5,0,0,0,12,"[0, 12]",2,22,"[2, 4, 5, 6, 8, 9, 10, 13, 14, 15, 16, 17, 18, 19, 21, 22, 23, 24, 25, 26, 27, 28]",228.3062067,6223,6059,1,27,9,1.0
undo,2,5,0,0,0,25,"[0, 12, 25]",3,21,"[2, 4, 5, 6, 8, 9, 10, 13, 14, 15, 16, 17, 18, 19, 21, 22, 23, 24, 26, 27, 28]",200.5213187,7133,910,1,20,9,1.584023303445617
undo,2,5,0,0,0,23,"[0, 12, 25, 23]",4,19,"[2, 4, 5, 6, 8, 9, 10, 13, 14, 15, 16, 17, 18, 19, 21, 22, 24, 26, 27]",182.0822298,7784,651,1,14,9,2.3508446989254357
undo,2,5,0,0,0,24,"[0, 12, 25, 23, 24]",5,15,"[2, 4, 5, 6, 8, 9, 13, 14, 15, 17, 18, 19, 22, 26, 27]",158.995437,8407,623,1,12,9,1.9469752046288753
undo,2,5,0,0,0,17,"[0, 12, 25, 23, 24, 17]",6,7,"[4, 5, 6, 8, 15, 18, 19]",124.0097257,9099,692,1,8,9,1.6482276497563642
undo,2,5,0,0,0,5,"[0, 12, 25, 23, 24, 17, 5]",7,4,"[4, 6, 15, 18]",80.96323916,12550,3451,1,3,9,1.4654649104389412
undo,2,5,0,0,1,15,"[0, 12, 25, 23, 24, 17, 5, 15]",8,0,[],40.93824697,14616,2066,1,0,8,1.4660376450939663
undo,2,5,0,1,1,15,"[0, 12, 25, 23, 24, 17, 5, 15]",8,0,[],40.93824697,17562,2946,1,0,8,1.4660376450939663
undo,3,15,0,0,0,0,[0],1,25,"[1, 2, 3, 4, 7, 8, 9, 10, 11, 12, 13, 14, 15, 16, 18, 20, 21, 22, 23, 24, 25, 26, 27, 28, 29]",300,133,-1,4,65,9,0.0
undo,3,15,0,0,0,16,"[0, 16]",2,16,"[3, 4, 7, 9, 10, 11, 12, 13, 14, 15, 18, 20, 21, 22, 25, 27]",185.8378346,4153,4020,22,104,7,1.0
undo,3,15,0,0,0,11,"[0, 16, 11]",3,13,"[3, 4, 7, 10, 12, 13, 14, 15, 18, 21, 22, 25, 27]",159.818611,5236,1083,10,29,7,1.1289542380807378
undo,3,15,1,0,0,16,"[0, 16]",2,16,"[3, 4, 7, 9, 10, 11, 12, 13, 14, 15, 18, 20, 21, 22, 25, 27]",185.8378346,8083,2847,22,104,7,1.0
undo,3,15,1,0,0,0,[0],1,25,"[1, 2, 3, 4, 7, 8, 9, 10, 11, 12, 13, 14, 15, 16, 18, 20, 21, 22, 23, 24, 25, 26, 27, 28, 29]",300,8383,300,4,65,9,0.0
undo,3,15,0,0,0,12,"[0, 12]",2,22,"[1, 2, 3, 4, 7, 8, 9, 10, 11, 13, 14, 15, 16, 18, 21, 22, 23, 24, 26, 27, 28, 29]",213.547701,10989,2606,4,35,9,1.0
undo,3,15,0,0,0,7,"[0, 12, 7]",3,16,"[1, 3, 4, 8, 9, 10, 11, 13, 14, 15, 16, 18, 21, 22, 24, 27]",180.3061607,11994,1005,4,29,9,1.411291635294361
undo,3,15,0,0,0,16,"[0, 12, 7, 16]",4,10,"[3, 4, 10, 11, 13, 14, 15, 18, 21, 22]",136.6484008,13503,1509,2,11,9,1.4308733430458784
undo,3,15,0,0,0,11,"[0, 12, 7, 16, 11]",5,7,"[3, 4, 13, 14, 15, 21, 22]",110.6291772,15446,1943,2,5,9,1.5251025438826007
undo,3,15,0,0,0,3,"[0, 12, 7, 16, 11, 3]",6,5,"[4, 13, 14, 15, 22]",99.22742292,16751,1305,2,3,9,1.5166583878170454
undo,3,15,0,0,0,22,"[0, 12, 7, 16, 11, 3, 22]",7,2,"[13, 15]",49.49815588,18686,1935,2,0,9,1.4519711389669923
undo,3,15,0,0,0,15,"[0, 12, 7, 16, 11, 3, 22, 15]",8,1,[13],23.88565893,20246,1560,1,0,9,1.4060225827822495
undo,3,15,0,0,1,13,"[0, 12, 7, 16, 11, 3, 22, 15, 13]",9,0,[],8.621321408,22687,2441,1,0,9,1.4544229719836068
undo,3,15,0,1,1,13,"[0, 12, 7, 16, 11, 3, 22, 15, 13]",9,0,[],8.621321408,23664,977,1,0,9,1.4544229719836068
undo,4,16,0,0,0,0,[0],1,29,"[1, 2, 3, 4, 5, 6, 7, 8, 9, 10, 11, 12, 13, 14, 15, 16, 17, 18, 19, 20, 21, 22, 23, 24, 25, 26, 27, 28, 29]",300,130,-1,13,161,9,0.0
undo,4,16,0,0,0,17,"[0, 17]",2,27,"[1, 2, 3, 4, 5, 7, 8, 9, 10, 11, 12, 13, 14, 15, 16, 18, 19, 20, 21, 22, 23, 24, 25, 26, 27, 28, 29]",241.3058776,1708,1578,2,58,9,1.0
undo,4,16,0,0,0,16,"[0, 17, 16]",3,26,"[1, 2, 3, 4, 5, 7, 8, 9, 10, 11, 12, 13, 14, 15, 18, 19, 20, 21, 22, 23, 24, 25, 26, 27, 28, 29]",212.9862731,5057,3349,2,52,9,1.0529535521792848
undo,4,16,0,0,0,21,"[0, 17, 16, 21]",4,19,"[3, 5, 7, 8, 9, 10, 12, 14, 15, 19, 20, 22, 23, 24, 25, 26, 27, 28, 29]",168.332046,6166,1109,9,18,8,1.5524765786046826
undo,4,16,0,0,0,8,"[0, 17, 16, 21, 8]",5,7,"[3, 5, 9, 12, 15, 20, 25]",119.0776046,7417,1251,9,6,8,1.458624751458944
undo,4,16,0,0,0,20,"[0, 17, 16, 21, 8, 20]",6,3,"[9, 15, 25]",61.30217727,8927,1510,4,1,8,1.3191752290945782
undo,4,16,0,0,0,25,"[0, 17, 16, 21, 8, 20, 25]",7,2,"[9, 15]",48.65306663,11625,2698,2,0,8,1.3641436248537882
undo,4,16,0,0,1,9,"[0, 17, 16, 21, 8, 20, 25, 9]",8,0,[],35.84681815,12657,1032,1,0,8,1.3406027753205443
undo,4,16,1,0,0,25,"[0, 17, 16, 21, 8, 20, 25]",7,2,"[9, 15]",48.65306663,21812,9155,2,0,8,1.3641436248537882
undo,4,16,1,0,0,20,"[0, 17, 16, 21, 8, 20]",6,3,"[9, 15, 25]",61.30217727,22911,1099,4,1,8,1.3191752290945782
undo,4,16,1,0,0,8,"[0, 17, 16, 21, 8]",5,7,"[3, 5, 9, 12, 15, 20, 25]",119.0776046,23078,167,9,6,8,1.458624751458944
undo,4,16,1,0,0,21,"[0, 17, 16, 21]",4,19,"[3, 5, 7, 8, 9, 10, 12, 14, 15, 19, 20, 22, 23, 24, 25, 26, 27, 28, 29]",168.332046,23244,166,9,18,8,1.5524765786046826
undo,4,16,1,0,0,16,"[0, 17, 16]",3,26,"[1, 2, 3, 4, 5, 7, 8, 9, 10, 11, 12, 13, 14, 15, 18, 19, 20, 21, 22, 23, 24, 25, 26, 27, 28, 29]",212.9862731,23378,134,2,52,9,1.0529535521792848
undo,4,16,1,0,0,17,"[0, 17]",2,27,"[1, 2, 3, 4, 5, 7, 8, 9, 10, 11, 12, 13, 14, 15, 16, 18, 19, 20, 21, 22, 23, 24, 25, 26, 27, 28, 29]",241.3058776,23544,166,2,58,9,1.0
undo,4,16,1,0,0,0,[0],1,29,"[1, 2, 3, 4, 5, 6, 7, 8, 9, 10, 11, 12, 13, 14, 15, 16, 17, 18, 19, 20, 21, 22, 23, 24, 25, 26, 27, 28, 29]",300,23828,284,13,161,9,0.0
undo,4,16,0,0,0,28,"[0, 28]",2,27,"[1, 2, 3, 4, 5, 7, 8, 9, 10, 11, 12, 13, 14, 15, 16, 17, 18, 19, 20, 21, 22, 23, 24, 25, 26, 27, 29]",284.3475242,25648,1820,11,92,9,1.0
undo,4,16,0,0,0,17,"[0, 28, 17]",3,26,"[1, 2, 3, 4, 5, 7, 8, 9, 10, 11, 12, 13, 14, 15, 16, 18, 19, 20, 21, 22, 23, 24, 25, 26, 27, 29]",219.1555001,26820,1172,10,46,9,1.3773866384707543
undo,4,16,0,0,0,16,"[0, 28, 17, 16]",4,25,"[1, 2, 3, 4, 5, 7, 8, 9, 10, 11, 12, 13, 14, 15, 18, 19, 20, 21, 22, 23, 24, 25, 26, 27, 29]",190.8358956,27692,872,10,34,9,1.3209953830681203
undo,4,16,0,0,0,21,"[0, 28, 17, 16, 21]",5,13,"[3, 5, 7, 8, 9, 10, 12, 15, 20, 22, 25, 26, 29]",146.1816685,29130,1438,4,7,9,1.8136482702070456
undo,4,16,0,0,0,8,"[0, 28, 17, 16, 21, 8]",6,6,"[5, 9, 12, 15, 20, 25]",96.92722704,31193,2063,4,2,9,1.637204572335983
undo,4,16,0,0,0,20,"[0, 28, 17, 16, 21, 8, 20]",7,2,"[9, 25]",39.15179974,31840,647,2,0,9,1.441590377328759
undo,4,16,0,0,0,25,"[0, 28, 17, 16, 21, 8, 20, 25]",8,1,[9],26.5026891,37655,5815,1,0,9,1.484361110265371
undo,4,16,0,0,1,9,"[0, 28, 17, 16, 21, 8, 20, 25, 9]",9,0,[],13.69644062,38647,992,1,0,9,1.4530180692918209
undo,4,16,0,1,1,9,"[0, 28, 17, 16, 21, 8, 20, 25, 9]",9,0,[],13.69644062,40176,1529,1,0,9,1.4530180692918209
undo,5,35,0,0,0,0,[0],1,29,"[1, 2, 3, 4, 5, 6, 7, 8, 9, 10, 11, 12, 13, 14, 15, 16, 17, 18, 19, 20, 21, 22, 23, 24, 25, 26, 27, 28, 29]",300,130,-1,5,236,11,0.0
undo,5,35,0,0,0,27,"[0, 27]",2,27,"[1, 2, 4, 5, 6, 7, 8, 9, 10, 11, 12, 13, 14, 15, 16, 17, 18, 19, 20, 21, 22, 23, 24, 25, 26, 28, 29]",278.7867966,2201,2071,5,144,11,1.0
undo,5,35,0,0,0,24,"[0, 27, 24]",3,25,"[1, 2, 4, 5, 6, 7, 8, 9, 10, 11, 12, 13, 15, 16, 17, 18, 19, 20, 21, 22, 23, 25, 26, 28, 29]",234.6053525,3469,1268,3,80,11,2.1084080567904624
undo,5,35,0,0,0,17,"[0, 27, 24, 17]",4,20,"[1, 2, 4, 5, 6, 7, 8, 9, 10, 15, 16, 18, 19, 20, 21, 23, 25, 26, 28, 29]",222.9006526,5887,2418,3,50,11,1.9439555968916868
undo,5,35,0,0,0,1,"[0, 27, 24, 17, 1]",5,18,"[2, 4, 5, 6, 8, 9, 10, 15, 16, 18, 19, 20, 21, 23, 25, 26, 28, 29]",207.0892643,6672,785,3,39,11,1.9436711872547336
undo,5,35,0,0,0,15,"[0, 27, 24, 17, 1, 15]",6,16,"[2, 4, 5, 6, 8, 9, 10, 16, 18, 19, 20, 23, 25, 26, 28, 29]",184.241945,8636,1964,3,24,11,2.082774572108194
undo,5,35,0,0,0,23,"[0, 27, 24, 17, 1, 15, 23]",7,7,"[5, 6, 9, 18, 19, 25, 26]",123.801892,9949,1313,3,14,11,1.657239080954205
undo,5,35,0,0,0,9,"[0, 27, 24, 17, 1, 15, 23, 9]",8,4,"[6, 18, 19, 25]",86.15883157,21623,11674,2,2,11,1.9022575917054987
undo,5,35,0,0,0,18,"[0, 27, 24, 17, 1, 15, 23, 9, 18]",9,2,"[6, 25]",66.13384718,23010,1387,2,0,11,1.8181129550839106
undo,5,35,0,0,0,25,"[0, 27, 24, 17, 1, 15, 23, 9, 18, 25]",10,1,[6],32.29599855,24460,1450,1,0,11,1.6530923432245144
undo,5,35,0,0,1,6,"[0, 27, 24, 17, 1, 15, 23, 9, 18, 25, 6]",11,0,[],8.275174247,26050,1590,1,0,11,1.9291202388527962
undo,5,35,0,1,1,6,"[0, 27, 24, 17, 1, 15, 23, 9, 18, 25, 6]",11,0,[],8.275174247,27494,1444,1,0,11,1.9291202388527962
undo,6,28,0,0,0,0,[0],1,27,"[1, 2, 3, 4, 5, 6, 7, 8, 9, 10, 11, 12, 13, 14, 15, 16, 17, 18, 19, 20, 22, 23, 25, 26, 27, 28, 29]",300,132,-1,2,96,9,0.0
undo,6,28,0,0,0,3,"[0, 3]",2,26,"[1, 2, 4, 5, 6, 7, 8, 9, 10, 11, 12, 13, 14, 15, 16, 17, 18, 19, 20, 22, 23, 25, 26, 27, 28, 29]",251.0817008,4959,4827,1,64,9,1.0
undo,6,28,0,0,0,14,"[0, 3, 14]",3,13,"[1, 2, 5, 7, 10, 11, 12, 13, 17, 18, 19, 20, 26]",142.7396498,6501,1542,19,59,8,1.0338694802207566
undo,6,28,0,0,0,18,"[0, 3, 14, 18]",4,10,"[1, 2, 5, 7, 11, 12, 13, 17, 19, 26]",117.2445523,7597,1096,18,18,8,1.098527225277385
undo,6,28,0,0,0,13,"[0, 3, 14, 18, 13]",5,7,"[2, 7, 11, 12, 17, 19, 26]",92.83144103,10388,2791,8,6,8,1.0872780601597938
undo,6,28,0,0,0,12,"[0, 3, 14, 18, 13, 12]",6,3,"[2, 7, 19]",75.6267905,11430,1042,3,1,8,1.0890748557820906
undo,6,28,0,0,0,7,"[0, 3, 14, 18, 13, 12, 7]",7,2,"[2, 19]",62.47384406,17996,6566,2,0,8,1.2125627495730145
undo,6,28,0,0,1,19,"[0, 3, 14, 18, 13, 12, 7, 19]",8,0,[],34.74299481,26028,8032,1,0,8,1.4527925513951803
undo,6,28,1,0,0,7,"[0, 3, 14, 18, 13, 12, 7]",7,2,"[2, 19]",62.47384406,28346,2318,2,0,8,1.2125627495730145
undo,6,28,1,0,0,12,"[0, 3, 14, 18, 13, 12]",6,3,"[2, 7, 19]",75.6267905,28513,167,3,1,8,1.0890748557820906
undo,6,28,1,0,0,13,"[0, 3, 14, 18, 13]",5,7,"[2, 7, 11, 12, 17, 19, 26]",92.83144103,28662,149,8,6,8,1.0872780601597938
undo,6,28,1,0,0,18,"[0, 3, 14, 18]",4,10,"[1, 2, 5, 7, 11, 12, 13, 17, 19, 26]",117.2445523,28779,117,18,18,8,1.098527225277385
undo,6,28,1,0,0,14,"[0, 3, 14]",3,13,"[1, 2, 5, 7, 10, 11, 12, 13, 17, 18, 19, 20, 26]",142.7396498,29346,567,19,59,8,1.0338694802207566
undo,6,28,1,0,0,3,"[0, 3]",2,26,"[1, 2, 4, 5, 6, 7, 8, 9, 10, 11, 12, 13, 14, 15, 16, 17, 18, 19, 20, 22, 23, 25, 26, 27, 28, 29]",251.0817008,29862,516,1,64,9,1.0
undo,6,28,0,0,0,5,"[0, 3, 5]",3,20,"[2, 4, 6, 7, 8, 9, 10, 11, 12, 13, 14, 15, 18, 19, 20, 23, 25, 26, 28, 29]",166.9865166,31541,1679,1,34,9,1.0203769473612083
undo,6,28,0,0,0,26,"[0, 3, 5, 26]",4,13,"[2, 4, 7, 8, 9, 12, 13, 14, 18, 19, 20, 25, 28]",134.2298379,32927,1386,1,28,9,1.0315203228799597
undo,6,28,0,0,0,2,"[0, 3, 5, 26, 2]",5,10,"[4, 7, 8, 9, 12, 13, 18, 19, 25, 28]",93.86896575,34055,1128,7,13,8,1.027257996419408
undo,6,28,0,0,0,19,"[0, 3, 5, 26, 2, 19]",6,4,"[7, 12, 13, 18]",56.50588236,35389,1334,4,1,8,1.3335988625919608
undo,6,28,0,0,0,7,"[0, 3, 5, 26, 2, 19, 7]",7,2,"[12, 13]",28.77503312,38005,2616,2,0,8,1.3845940052005818
undo,6,28,0,0,1,12,"[0, 3, 5, 26, 2, 19, 7, 12]",8,0,[],15.62208668,40241,2236,1,0,8,1.380328942242059
undo,6,28,1,0,0,7,"[0, 3, 5, 26, 2, 19, 7]",7,2,"[12, 13]",28.77503312,42445,2204,2,0,8,1.3845940052005818
undo,6,28,1,0,0,19,"[0, 3, 5, 26, 2, 19]",6,4,"[7, 12, 13, 18]",56.50588236,42794,349,4,1,8,1.3335988625919608
undo,6,28,0,0,0,13,"[0, 3, 5, 26, 2, 19, 13]",7,1,[7],16.90790262,44771,1977,1,0,8,1.4857458487726711
undo,6,28,0,0,1,7,"[0, 3, 5, 26, 2, 19, 13, 7]",8,0,[],0.629082022,49308,4537,1,0,8,1.5282781048218446
undo,6,28,1,0,0,13,"[0, 3, 5, 26, 2, 19, 13]",7,1,[7],16.90790262,50710,1402,1,0,8,1.4857458487726711
undo,6,28,1,0,0,19,"[0, 3, 5, 26, 2, 19]",6,4,"[7, 12, 13, 18]",56.50588236,50893,183,4,1,8,1.3335988625919608
undo,6,28,1,0,0,2,"[0, 3, 5, 26, 2]",5,10,"[4, 7, 8, 9, 12, 13, 18, 19, 25, 28]",93.86896575,51077,184,7,13,8,1.027257996419408
undo,6,28,1,0,0,26,"[0, 3, 5, 26]",4,13,"[2, 4, 7, 8, 9, 12, 13, 14, 18, 19, 20, 25, 28]",134.2298379,51260,183,1,28,9,1.0315203228799597
undo,6,28,1,0,0,5,"[0, 3, 5]",3,20,"[2, 4, 6, 7, 8, 9, 10, 11, 12, 13, 14, 15, 18, 19, 20, 23, 25, 26, 28, 29]",166.9865166,51410,150,1,34,9,1.0203769473612083
undo,6,28,0,0,0,28,"[0, 3, 5, 28]",4,6,"[2, 4, 8, 9, 19, 26]",100.0761288,53119,1709,8,4,7,1.0823311089558794
undo,6,28,0,0,0,8,"[0, 3, 5, 28, 8]",5,4,"[2, 4, 9, 26]",82.27163495,54064,945,4,2,7,1.0795975941035891
undo,6,28,0,0,0,9,"[0, 3, 5, 28, 8, 9]",6,3,"[2, 4, 26]",67.138889,56959,2895,3,0,7,1.131674521612193
undo,6,28,0,0,1,4,"[0, 3, 5, 28, 8, 9, 4]",7,0,[],44.11716013,58784,1825,1,0,7,1.1196899491715564
undo,6,28,1,0,0,9,"[0, 3, 5, 28, 8, 9]",6,3,"[2, 4, 26]",67.138889,61209,2425,3,0,7,1.131674521612193
undo,6,28,1,0,0,8,"[0, 3, 5, 28, 8]",5,4,"[2, 4, 9, 26]",82.27163495,61359,150,4,2,7,1.0795975941035891
undo,6,28,1,0,0,28,"[0, 3, 5, 28]",4,6,"[2, 4, 8, 9, 19, 26]",100.0761288,61526,167,8,4,7,1.0823311089558794
undo,6,28,1,0,0,5,"[0, 3, 5]",3,20,"[2, 4, 6, 7, 8, 9, 10, 11, 12, 13, 14, 15, 18, 19, 20, 23, 25, 26, 28, 29]",166.9865166,64609,3083,1,34,9,1.0203769473612083
undo,6,28,0,0,0,26,"[0, 3, 5, 26]",4,13,"[2, 4, 7, 8, 9, 12, 13, 14, 18, 19, 20, 25, 28]",134.2298379,66760,2151,1,28,9,1.0315203228799597
undo,6,28,0,0,0,28,"[0, 3, 5, 26, 28]",5,3,"[4, 8, 9]",71.60396464,70028,3268,1,3,8,1.2364713265531995
undo,6,28,0,0,0,8,"[0, 3, 5, 26, 28, 8]",6,2,"[4, 9]",53.79947083,71561,1533,1,1,8,1.220775707831746
undo,6,28,0,0,0,9,"[0, 3, 5, 26, 28, 8, 9]",7,1,[4],38.66672488,73377,1816,1,0,8,1.2700455126780428
undo,6,28,0,0,1,4,"[0, 3, 5, 26, 28, 8, 9, 4]",8,0,[],15.64499601,74595,1218,1,0,8,1.2442782021881458
undo,6,28,0,1,1,4,"[0, 3, 5, 26, 28, 8, 9, 4]",8,0,[],15.64499601,75558,963,1,0,8,1.2442782021881458
undo,7,32,0,0,0,0,[0],1,29,"[1, 2, 3, 4, 5, 6, 7, 8, 9, 10, 11, 12, 13, 14, 15, 16, 17, 18, 19, 20, 21, 22, 23, 24, 25, 26, 27, 28, 29]",300,129,-1,17,359,10,0.0
undo,7,32,0,0,0,19,"[0, 19]",2,28,"[1, 2, 3, 4, 5, 6, 7, 8, 9, 10, 11, 12, 13, 14, 15, 16, 17, 18, 20, 21, 22, 23, 24, 25, 26, 27, 28, 29]",283.5075775,4335,4206,16,294,10,1.0
undo,7,32,0,0,0,13,"[0, 19, 13]",3,24,"[2, 3, 4, 5, 6, 8, 9, 10, 11, 12, 14, 15, 16, 17, 18, 20, 21, 22, 23, 24, 25, 26, 27, 28]",260.3127505,5295,960,14,227,10,1.0172874229878615
undo,7,32,0,0,0,15,"[0, 19, 13, 15]",4,18,"[2, 3, 5, 8, 9, 10, 11, 12, 16, 17, 20, 22, 23, 24, 25, 26, 27, 28]",177.4393531,6768,1473,9,116,10,1.435447391509833
undo,7,32,0,0,0,28,"[0, 19, 13, 15, 28]",5,17,"[2, 3, 5, 8, 9, 10, 11, 12, 16, 17, 20, 22, 23, 24, 25, 26, 27]",166.0375988,7904,1136,9,70,10,1.3843701324937985
undo,7,32,0,0,0,12,"[0, 19, 13, 15, 28, 12]",6,14,"[2, 3, 5, 8, 9, 10, 11, 16, 17, 20, 22, 24, 26, 27]",147.0639329,8754,850,6,35,10,1.358372254952329
undo,7,32,0,0,0,16,"[0, 19, 13, 15, 28, 12, 16]",7,13,"[2, 3, 5, 8, 9, 10, 11, 17, 20, 22, 24, 26, 27]",131.411457,9640,886,5,15,10,1.4356932930709845
undo,7,32,0,0,0,22,"[0, 19, 13, 15, 28, 12, 16, 22]",8,6,"[2, 8, 9, 17, 20, 27]",97.57360838,11443,1803,3,5,10,1.4335226411545752
undo,7,32,0,0,0,9,"[0, 19, 13, 15, 28, 12, 16, 22, 9]",9,3,"[2, 8, 20]",75.37000507,12755,1312,3,0,10,1.4837166378374758
undo,7,32,0,0,1,2,"[0, 19, 13, 15, 28, 12, 16, 22, 9, 2]",10,0,[],24.28184597,21674,8919,1,0,10,1.9009621017233784
undo,7,32,1,0,0,9,"[0, 19, 13, 15, 28, 12, 16, 22, 9]",9,3,"[2, 8, 20]",75.37000507,22760,1086,3,0,10,1.4837166378374758
undo,7,32,1,0,0,22,"[0, 19, 13, 15, 28, 12, 16, 22]",8,6,"[2, 8, 9, 17, 20, 27]",97.57360838,22961,201,3,5,10,1.4335226411545752
undo,7,32,1,0,0,16,"[0, 19, 13, 15, 28, 12, 16]",7,13,"[2, 3, 5, 8, 9, 10, 11, 17, 20, 22, 24, 26, 27]",131.411457,23160,199,5,15,10,1.4356932930709845
undo,7,32,0,0,0,27,"[0, 19, 13, 15, 28, 12, 16, 27]",8,2,"[3, 11]",55.13564171,25265,2105,2,0,10,1.3380566026775955
undo,7,32,0,0,0,3,"[0, 19, 13, 15, 28, 12, 16, 27, 3]",9,1,[11],29.64054414,26314,1049,1,0,10,1.3269345554887129
undo,7,32,0,0,1,11,"[0, 19, 13, 15, 28, 12, 16, 27, 3, 11]",10,0,[],14.02004479,27515,1201,1,0,10,1.356452519014518
undo,7,32,0,1,1,11,"[0, 19, 13, 15, 28, 12, 16, 27, 3, 11]",10,0,[],14.02004479,32426,4911,1,0,10,1.356452519014518
undo,8,18,0,0,0,0,[0],1,28,"[1, 2, 3, 4, 5, 6, 7, 8, 9, 10, 11, 12, 13, 14, 16, 17, 18, 19, 20, 21, 22, 23, 24, 25, 26, 27, 28, 29]",300,131,-1,3,136,10,0.0
undo,8,18,0,0,0,25,"[0, 25]",2,22,"[1, 2, 3, 4, 5, 7, 8, 9, 10, 12, 13, 14, 16, 18, 19, 20, 21, 23, 24, 26, 27, 28]",239.9916672,3175,3044,7,151,9,1.0
undo,8,18,0,0,0,13,"[0, 25, 13]",3,19,"[1, 2, 3, 5, 7, 8, 9, 10, 12, 14, 16, 18, 19, 20, 21, 23, 26, 27, 28]",194.7147416,4560,1385,1,33,9,1.1199925655455523
undo,8,18,0,0,0,14,"[0, 25, 13, 14]",4,15,"[2, 3, 5, 7, 8, 9, 10, 12, 16, 18, 21, 23, 26, 27, 28]",175.7410756,9418,4858,1,14,9,1.1083507688308043
undo,8,18,0,0,0,8,"[0, 25, 13, 14, 8]",5,10,"[3, 5, 7, 9, 12, 16, 23, 26, 27, 28]",142.1404804,11068,1650,1,5,9,1.6688134414094171
undo,8,18,0,0,0,3,"[0, 25, 13, 14, 8, 3]",6,6,"[5, 7, 12, 23, 27, 28]",114.0691427,12049,981,1,4,9,1.5193350473585505
undo,8,18,0,0,0,5,"[0, 25, 13, 14, 8, 3, 5]",7,2,"[12, 27]",55.88838983,13200,1151,1,1,9,1.3657996249180195
undo,8,18,0,0,0,12,"[0, 25, 13, 14, 8, 3, 5, 12]",8,1,[27],44.48663558,14123,923,1,0,9,1.377135412105356
undo,8,18,0,0,1,27,"[0, 25, 13, 14, 8, 3, 5, 12, 27]",9,0,[],3.76808944,16570,2447,1,0,9,1.502476923505945
undo,8,18,0,1,1,27,"[0, 25, 13, 14, 8, 3, 5, 12, 27]",9,0,[],3.76808944,20929,4359,1,0,9,1.502476923505945
undo,9,31,0,0,0,0,[0],1,27,"[1, 3, 4, 5, 6, 7, 8, 10, 11, 12, 13, 14, 15, 16, 17, 18, 19, 20, 21, 22, 23, 24, 25, 26, 27, 28, 29]",300,133,-1,2,87,10,0.0
undo,9,31,0,0,0,14,"[0, 14]",2,25,"[1, 3, 5, 6, 7, 8, 10, 11, 12, 13, 15, 16, 17, 18, 19, 20, 21, 22, 23, 24, 25, 26, 27, 28, 29]",263.861378,2645,2512,2,59,10,1.0
undo,9,31,0,0,0,27,"[0, 14, 27]",3,22,"[1, 3, 5, 6, 7, 8, 10, 11, 12, 13, 15, 16, 17, 18, 19, 20, 21, 22, 24, 25, 28, 29]",235.6833724,3978,1333,1,39,10,1.5881859159302467
undo,9,31,0,0,0,8,"[0, 14, 27, 8]",4,20,"[1, 3, 5, 6, 7, 10, 11, 12, 13, 16, 17, 18, 19, 20, 21, 22, 24, 25, 28, 29]",224.6380114,4747,769,1,36,10,2.1665048452331277
undo,9,31,0,0,0,18,"[0, 14, 27, 8, 18]",5,15,"[1, 5, 6, 7, 11, 12, 13, 16, 17, 19, 20, 22, 25, 28, 29]",188.7911147,6996,2249,1,26,10,1.7273375741920205
undo,9,31,0,0,0,17,"[0, 14, 27, 8, 18, 17]",6,13,"[1, 5, 6, 7, 11, 12, 13, 16, 19, 20, 22, 25, 28]",159.584951,8285,1289,1,13,10,1.551192427769927
undo,9,31,0,0,0,11,"[0, 14, 27, 8, 18, 17, 11]",7,7,"[5, 12, 16, 19, 22, 25, 28]",118.4753414,10675,2390,1,4,10,2.9650760544203494
undo,9,31,0,0,0,5,"[0, 14, 27, 8, 18, 17, 11, 5]",8,2,"[16, 28]",74.79468207,11913,1238,1,1,10,2.56711965625205
undo,9,31,0,0,0,28,"[0, 14, 27, 8, 18, 17, 11, 5, 28]",9,1,[16],54.57093365,12734,821,1,0,10,2.2865510762058148
undo,9,31,0,0,1,16,"[0, 14, 27, 8, 18, 17, 11, 5, 28, 16]",10,0,[],20.95546102,14272,1538,1,0,10,2.089356850786318
undo,9,31,0,1,1,16,"[0, 14, 27, 8, 18, 17, 11, 5, 28, 16]",10,0,[],20.95546102,16463,2191,1,0,10,2.089356850786318
undo,10,12,0,0,0,0,[0],1,29,"[1, 2, 3, 4, 5, 6, 7, 8, 9, 10, 11, 12, 13, 14, 15, 16, 17, 18, 19, 20, 21, 22, 23, 24, 25, 26, 27, 28, 29]",300,132,-1,2,32,9,0.0
undo,10,12,0,0,0,6,"[0, 6]",2,28,"[1, 2, 3, 4, 5, 7, 8, 9, 10, 11, 12, 13, 14, 15, 16, 17, 18, 19, 20, 21, 22, 23, 24, 25, 26, 27, 28, 29]",283.5987805,2467,2335,2,18,9,1.0
undo,10,12,0,0,0,18,"[0, 6, 18]",3,10,"[1, 2, 3, 5, 7, 9, 11, 15, 17, 21]",144.5088815,4474,2007,6,15,7,1.0360320431021144
undo,10,12,0,0,0,21,"[0, 6, 18, 21]",4,7,"[1, 3, 5, 9, 11, 15, 17]",128.230061,5911,1437,4,5,7,1.049996564847597
undo,10,12,0,0,0,15,"[0, 6, 18, 21, 15]",5,3,"[1, 11, 17]",73.1573817,7112,1201,4,0,7,1.2004943839605104
undo,10,12,0,0,0,17,"[0, 6, 18, 21, 15, 17]",6,2,"[1, 11]",56.6649592,7875,763,2,0,7,1.2468231791823723
undo,10,12,0,0,1,11,"[0, 6, 18, 21, 15, 17, 11]",7,0,[],13.2483725,9355,1480,1,0,7,1.2024212446811722
undo,10,12,1,0,0,17,"[0, 6, 18, 21, 15, 17]",6,2,"[1, 11]",56.6649592,13681,4326,2,0,7,1.2468231791823723
undo,10,12,1,0,0,15,"[0, 6, 18, 21, 15]",5,3,"[1, 11, 17]",73.1573817,14097,416,4,0,7,1.2004943839605104
undo,10,12,1,0,0,21,"[0, 6, 18, 21]",4,7,"[1, 3, 5, 9, 11, 15, 17]",128.230061,14413,316,4,5,7,1.049996564847597
undo,10,12,0,0,0,15,"[0, 6, 18, 21, 15]",5,3,"[1, 11, 17]",73.1573817,17534,3121,4,0,7,1.2004943839605104
undo,10,12,0,0,0,17,"[0, 6, 18, 21, 15, 17]",6,2,"[1, 11]",56.6649592,21058,3524,2,0,7,1.2468231791823723
undo,10,12,0,0,1,11,"[0, 6, 18, 21, 15, 17, 11]",7,0,[],13.2483725,24319,3261,1,0,7,1.2024212446811722
undo,10,12,0,1,1,11,"[0, 6, 18, 21, 15, 17, 11]",7,0,[],13.2483725,25446,1127,1,0,7,1.2024212446811722
undo,11,30,0,0,0,0,[0],1,19,"[3, 4, 5, 7, 9, 11, 16, 17, 18, 19, 20, 21, 22, 24, 25, 26, 27, 28, 29]",300,131,-1,5,41,8,0.0
undo,11,30,0,0,0,16,"[0, 16]",2,17,"[3, 5, 7, 9, 11, 17, 18, 19, 20, 21, 22, 24, 25, 26, 27, 28, 29]",219.3774225,2130,1999,5,34,8,1.0
undo,11,30,0,0,0,25,"[0, 16, 25]",3,10,"[3, 5, 7, 9, 11, 18, 19, 20, 27, 29]",115.0845656,2980,850,5,28,8,1.0336279544884488
undo,11,30,0,0,0,20,"[0, 16, 25, 20]",4,8,"[3, 5, 7, 9, 18, 19, 27, 29]",93.15285342,4212,1232,4,14,8,1.0337964627284246
undo,11,30,0,0,0,27,"[0, 16, 25, 20, 27]",5,4,"[3, 5, 18, 29]",59.09408069,6688,2476,4,6,8,1.1504365534848
undo,11,30,0,0,0,3,"[0, 16, 25, 20, 27, 3]",6,3,"[5, 18, 29]",39.98910751,8608,1920,4,0,8,1.1403876826835333
undo,11,30,0,0,0,5,"[0, 16, 25, 20, 27, 3, 5]",7,1,[18],15.14962282,12770,4162,1,0,8,1.1779731652786363
undo,11,30,0,0,1,18,"[0, 16, 25, 20, 27, 3, 5, 18]",8,0,[],2.111218006,14961,2191,1,0,8,1.2196271502012654
undo,11,30,1,0,0,5,"[0, 16, 25, 20, 27, 3, 5]",7,1,[18],15.14962282,17013,2052,1,0,8,1.1779731652786363
undo,11,30,1,0,0,3,"[0, 16, 25, 20, 27, 3]",6,3,"[5, 18, 29]",39.98910751,18046,1033,4,0,8,1.1403876826835333
undo,11,30,1,0,0,27,"[0, 16, 25, 20, 27]",5,4,"[3, 5, 18, 29]",59.09408069,18212,166,4,6,8,1.1504365534848
undo,11,30,1,0,0,20,"[0, 16, 25, 20]",4,8,"[3, 5, 7, 9, 18, 19, 27, 29]",93.15285342,18362,150,4,14,8,1.0337964627284246
undo,11,30,1,0,0,25,"[0, 16, 25]",3,10,"[3, 5, 7, 9, 11, 18, 19, 20, 27, 29]",115.0845656,18496,134,5,28,8,1.0336279544884488
undo,11,30,1,0,0,16,"[0, 16]",2,17,"[3, 5, 7, 9, 11, 17, 18, 19, 20, 21, 22, 24, 25, 26, 27, 28, 29]",219.3774225,18996,500,5,34,8,1.0
undo,11,30,1,0,0,0,[0],1,19,"[3, 4, 5, 7, 9, 11, 16, 17, 18, 19, 20, 21, 22, 24, 25, 26, 27, 28, 29]",300,19429,433,5,41,8,0.0
undo,11,30,0,0,0,27,"[0, 27]",2,10,"[3, 5, 7, 9, 18, 19, 20, 24, 25, 29]",90.59608409,20598,1169,7,22,6,1.0
undo,11,30,0,0,0,3,"[0, 27, 3]",3,8,"[5, 7, 18, 19, 20, 24, 25, 29]",71.49111091,21373,775,5,9,6,1.0022223300201003
undo,11,30,0,0,0,5,"[0, 27, 3, 5]",4,4,"[7, 18, 24, 29]",46.65162621,22385,1012,1,3,6,1.047699458031665
undo,11,30,0,0,0,18,"[0, 27, 3, 5, 18]",5,1,[29],33.6132214,23110,725,1,0,6,1.0906504953306948
undo,11,30,0,0,1,29,"[0, 27, 3, 5, 18, 29]",6,0,[],14.30001349,24232,1122,1,0,6,1.1734964103241567
undo,11,30,1,0,0,18,"[0, 27, 3, 5, 18]",5,1,[29],33.6132214,28095,3863,1,0,6,1.0906504953306948
undo,11,30,1,0,0,5,"[0, 27, 3, 5]",4,4,"[7, 18, 24, 29]",46.65162621,28312,217,1,3,6,1.047699458031665
undo,11,30,1,0,0,3,"[0, 27, 3]",3,8,"[5, 7, 18, 19, 20, 24, 25, 29]",71.49111091,28462,150,5,9,6,1.0022223300201003
undo,11,30,1,0,0,27,"[0, 27]",2,10,"[3, 5, 7, 9, 18, 19, 20, 24, 25, 29]",90.59608409,28645,183,7,22,6,1.0
undo,11,30,1,0,0,0,[0],1,19,"[3, 4, 5, 7, 9, 11, 16, 17, 18, 19, 20, 21, 22, 24, 25, 26, 27, 28, 29]",300,29045,400,5,41,8,0.0
undo,11,30,0,0,0,16,"[0, 16]",2,17,"[3, 5, 7, 9, 11, 17, 18, 19, 20, 21, 22, 24, 25, 26, 27, 28, 29]",219.3774225,30483,1438,5,34,8,1.0
undo,11,30,0,0,0,25,"[0, 16, 25]",3,10,"[3, 5, 7, 9, 11, 18, 19, 20, 27, 29]",115.0845656,31797,1314,5,28,8,1.0336279544884488
undo,11,30,0,0,0,20,"[0, 16, 25, 20]",4,8,"[3, 5, 7, 9, 18, 19, 27, 29]",93.15285342,32674,877,4,14,8,1.0337964627284246
undo,11,30,0,0,0,27,"[0, 16, 25, 20, 27]",5,4,"[3, 5, 18, 29]",59.09408069,34522,1848,4,6,8,1.1504365534848
undo,11,30,0,0,0,3,"[0, 16, 25, 20, 27, 3]",6,3,"[5, 18, 29]",39.98910751,35197,675,4,0,8,1.1403876826835333
undo,11,30,0,0,0,29,"[0, 16, 25, 20, 27, 3, 29]",7,1,[18],21.38803228,36566,1369,1,0,8,1.1443827771455848
undo,11,30,0,0,1,18,"[0, 16, 25, 20, 27, 3, 29, 18]",8,0,[],2.074824359,37489,923,1,0,8,1.2197761544023602
undo,11,30,0,1,1,18,"[0, 16, 25, 20, 27, 3, 29, 18]",8,0,[],2.074824359,38528,1039,1,0,8,1.2197761544023602
undo,12,26,0,0,0,0,[0],1,29,"[1, 2, 3, 4, 5, 6, 7, 8, 9, 10, 11, 12, 13, 14, 15, 16, 17, 18, 19, 20, 21, 22, 23, 24, 25, 26, 27, 28, 29]",300,132,-1,9,226,9,0.0
undo,12,26,0,0,0,21,"[0, 21]",2,25,"[2, 3, 4, 5, 6, 7, 8, 10, 11, 12, 13, 14, 15, 16, 17, 18, 19, 22, 23, 24, 25, 26, 27, 28, 29]",211.1349337,4411,4279,7,90,9,1.0
undo,12,26,0,0,0,16,"[0, 21, 16]",3,12,"[4, 5, 6, 10, 11, 12, 13, 14, 17, 23, 26, 29]",151.2266705,6169,1758,1,34,9,1.3289691188319968
undo,12,26,0,0,0,29,"[0, 21, 16, 29]",4,8,"[4, 5, 6, 10, 13, 14, 17, 23]",127.0192337,7157,988,1,28,9,1.4156891800947415
undo,12,26,0,0,0,4,"[0, 21, 16, 29, 4]",5,5,"[6, 10, 14, 17, 23]",103.0192337,8045,888,1,12,9,1.6252228687746915
undo,12,26,0,0,0,17,"[0, 21, 16, 29, 4, 17]",6,3,"[6, 10, 14]",81.92421056,8902,857,1,4,9,1.534793846471065
undo,12,26,0,0,0,14,"[0, 21, 16, 29, 4, 17, 14]",7,2,"[6, 10]",59.45200551,10844,1942,1,1,9,1.4926767408397108
undo,12,26,0,0,0,6,"[0, 21, 16, 29, 4, 17, 14, 6]",8,1,[10],38.42820947,12133,1289,1,0,9,1.6286010900012204
undo,12,26,0,0,1,10,"[0, 21, 16, 29, 4, 17, 14, 6, 10]",9,0,[],9.153647129,13916,1783,1,0,9,1.797369356615424
undo,12,26,0,1,1,10,"[0, 21, 16, 29, 4, 17, 14, 6, 10]",9,0,[],9.153647129,26245,12329,1,0,9,1.797369356615424
undo,13,44,0,0,0,0,[0],1,29,"[1, 2, 3, 4, 5, 6, 7, 8, 9, 10, 11, 12, 13, 14, 15, 16, 17, 18, 19, 20, 21, 22, 23, 24, 25, 26, 27, 28, 29]",300,132,-1,13,126,7,0.0
undo,13,44,0,0,0,9,"[0, 9]",2,17,"[2, 4, 5, 7, 8, 10, 11, 12, 13, 14, 20, 22, 23, 24, 25, 26, 28]",141.32423,8028,7896,3,26,7,1.0
undo,13,44,0,0,0,4,"[0, 9, 4]",3,15,"[2, 5, 7, 8, 10, 11, 12, 14, 20, 22, 23, 24, 25, 26, 28]",121.6265143,8834,806,3,21,7,1.0155532843148096
undo,13,44,0,0,0,7,"[0, 9, 4, 7]",4,10,"[2, 5, 11, 12, 14, 23, 24, 25, 26, 28]",90.61038951,9845,1011,3,9,7,1.0134022837125412
undo,13,44,0,0,0,23,"[0, 9, 4, 7, 23]",5,7,"[5, 12, 14, 24, 25, 26, 28]",71.50541634,10528,683,3,4,7,1.043310757564056
undo,13,44,0,0,0,28,"[0, 9, 4, 7, 23, 28]",6,1,[26],19.5342705,11384,856,1,0,7,1.0580072524850708
undo,13,44,0,0,1,26,"[0, 9, 4, 7, 23, 28, 26]",7,0,[],6.534270496,12083,699,1,0,7,1.055488728885845
undo,13,44,1,0,0,28,"[0, 9, 4, 7, 23, 28]",6,1,[26],19.5342705,14314,2231,1,0,7,1.0580072524850708
undo,13,44,1,0,0,23,"[0, 9, 4, 7, 23]",5,7,"[5, 12, 14, 24, 25, 26, 28]",71.50541634,14480,166,3,4,7,1.043310757564056
undo,13,44,1,0,0,7,"[0, 9, 4, 7]",4,10,"[2, 5, 11, 12, 14, 23, 24, 25, 26, 28]",90.61038951,14647,167,3,9,7,1.0134022837125412
undo,13,44,1,0,0,4,"[0, 9, 4]",3,15,"[2, 5, 7, 8, 10, 11, 12, 14, 20, 22, 23, 24, 25, 26, 28]",121.6265143,14864,217,3,21,7,1.0155532843148096
undo,13,44,0,0,0,24,"[0, 9, 4, 24]",4,5,"[7, 11, 14, 20, 23]",86.97106745,17291,2427,3,2,6,1.4176434179720834
undo,13,44,0,0,0,11,"[0, 9, 4, 24, 11]",5,1,[14],60.04524341,18089,798,1,0,6,1.6298957555465912
undo,13,44,0,0,1,14,"[0, 9, 4, 24, 11, 14]",6,0,[],27.84275904,19673,1584,1,0,6,1.5217619331476957
undo,13,44,1,0,0,11,"[0, 9, 4, 24, 11]",5,1,[14],60.04524341,22030,2357,1,0,6,1.6298957555465912
undo,13,44,1,0,0,24,"[0, 9, 4, 24]",4,5,"[7, 11, 14, 20, 23]",86.97106745,22180,150,3,2,6,1.4176434179720834
undo,13,44,1,0,0,4,"[0, 9, 4]",3,15,"[2, 5, 7, 8, 10, 11, 12, 14, 20, 22, 23, 24, 25, 26, 28]",121.6265143,22329,149,3,21,7,1.0155532843148096
undo,13,44,1,0,0,9,"[0, 9]",2,17,"[2, 4, 5, 7, 8, 10, 11, 12, 13, 14, 20, 22, 23, 24, 25, 26, 28]",141.32423,22463,134,3,26,7,1.0
undo,13,44,1,0,0,0,[0],1,29,"[1, 2, 3, 4, 5, 6, 7, 8, 9, 10, 11, 12, 13, 14, 15, 16, 17, 18, 19, 20, 21, 22, 23, 24, 25, 26, 27, 28, 29]",300,22830,367,13,126,7,0.0
undo,13,44,0,0,0,8,"[0, 8]",2,17,"[1, 4, 5, 7, 9, 10, 11, 12, 13, 14, 15, 20, 21, 23, 24, 25, 27]",145.7923478,24400,1570,1,10,7,1.0
undo,13,44,0,0,0,20,"[0, 8, 20]",3,16,"[1, 4, 5, 7, 9, 10, 11, 12, 13, 14, 15, 21, 23, 24, 25, 27]",133.7093018,25015,615,1,9,7,1.0890794433668698
undo,13,44,0,0,0,9,"[0, 8, 20, 9]",4,7,"[4, 7, 11, 12, 14, 23, 24]",76.43801756,26182,1167,1,6,7,1.40892325509949
undo,13,44,0,0,0,4,"[0, 8, 20, 9, 4]",5,4,"[7, 12, 23, 24]",56.74030196,26854,672,1,3,7,1.3849770570803555
undo,13,44,0,0,0,7,"[0, 8, 20, 9, 4, 7]",6,1,[23],25.72417712,27755,901,1,0,7,1.3274380931474288
undo,13,44,0,0,1,23,"[0, 8, 20, 9, 4, 7, 23]",7,0,[],6.619203947,28679,924,1,0,7,1.3395824779823196
undo,13,44,0,1,1,23,"[0, 8, 20, 9, 4, 7, 23]",7,0,[],6.619203947,35995,7316,1,0,7,1.3395824779823196
undo,14,27,0,0,0,0,[0],1,26,"[1, 3, 5, 6, 7, 8, 9, 10, 11, 12, 13, 14, 15, 16, 17, 18, 19, 21, 22, 23, 24, 25, 26, 27, 28, 29]",300,131,-1,13,578,11,0.0
undo,14,27,0,0,0,15,"[0, 15]",2,24,"[1, 3, 5, 6, 7, 8, 9, 10, 11, 12, 13, 14, 16, 17, 18, 19, 21, 22, 23, 24, 25, 26, 27, 29]",263.7508621,4455,4324,6,219,11,1.0
undo,14,27,0,0,0,24,"[0, 15, 24]",3,20,"[1, 5, 6, 7, 8, 9, 10, 12, 13, 14, 16, 17, 18, 19, 21, 23, 25, 26, 27, 29]",246.5462115,5253,798,6,130,11,1.130933077698322
undo,14,27,0,0,0,17,"[0, 15, 24, 17]",4,15,"[1, 6, 8, 10, 12, 13, 14, 16, 18, 19, 23, 25, 26, 27, 29]",229.9932662,5985,732,4,60,11,1.1285538435963374
undo,14,27,0,0,0,12,"[0, 15, 24, 17, 12]",5,14,"[1, 6, 8, 10, 13, 14, 16, 18, 19, 23, 25, 26, 27, 29]",218.8129263,6601,616,2,32,11,1.2561880288755216
undo,14,27,0,0,0,10,"[0, 15, 24, 17, 12, 10]",6,11,"[1, 8, 13, 14, 18, 19, 23, 25, 26, 27, 29]",207.7675653,8345,1744,2,28,11,1.2228289337766665
undo,14,27,0,0,0,13,"[0, 15, 24, 17, 12, 10, 13]",7,9,"[1, 8, 14, 18, 19, 23, 26, 27, 29]",167.9178476,9612,1267,2,18,11,1.3421291994761178
undo,14,27,0,0,0,19,"[0, 15, 24, 17, 12, 10, 13, 19]",8,5,"[1, 8, 14, 23, 29]",131.6825057,11759,2147,2,6,11,1.294749956153846
undo,14,27,0,0,0,8,"[0, 15, 24, 17, 12, 10, 13, 19, 8]",9,3,"[14, 23, 29]",116.816437,13299,1540,2,1,11,1.3554286578836865
undo,14,27,0,0,0,29,"[0, 15, 24, 17, 12, 10, 13, 19, 8, 29]",10,1,[14],57.61339652,14353,1054,1,0,11,1.248354519573802
undo,14,27,0,0,1,14,"[0, 15, 24, 17, 12, 10, 13, 19, 8, 29, 14]",11,0,[],13.31892734,17218,2865,1,0,11,1.562811097555156
undo,14,27,0,1,1,14,"[0, 15, 24, 17, 12, 10, 13, 19, 8, 29, 14]",11,0,[],13.31892734,18479,1261,1,0,11,1.562811097555156
undo,15,13,0,0,0,0,[0],1,29,"[1, 2, 3, 4, 5, 6, 7, 8, 9, 10, 11, 12, 13, 14, 15, 16, 17, 18, 19, 20, 21, 22, 23, 24, 25, 26, 27, 28, 29]",300,115,-1,60,2676,11,0.0
undo,15,13,0,0,0,24,"[0, 24]",2,28,"[1, 2, 3, 4, 5, 6, 7, 8, 9, 10, 11, 12, 13, 14, 15, 16, 17, 18, 19, 20, 21, 22, 23, 25, 26, 27, 28, 29]",288.8196601,15508,15393,16,1444,11,1.0
undo,15,13,0,0,0,23,"[0, 24, 23]",3,27,"[1, 2, 3, 4, 5, 6, 7, 8, 9, 10, 11, 12, 13, 14, 15, 16, 17, 18, 19, 20, 21, 22, 25, 26, 27, 28, 29]",243.1140806,17596,2088,2,868,11,1.0065545717039834
undo,15,13,0,0,0,28,"[0, 24, 23, 28]",4,21,"[1, 2, 3, 4, 6, 7, 9, 10, 11, 12, 13, 15, 16, 17, 19, 20, 21, 22, 26, 27, 29]",177.7458926,18892,1296,1,253,11,1.6592183354372274
undo,15,13,0,0,0,26,"[0, 24, 23, 28, 26]",5,18,"[1, 2, 3, 4, 6, 7, 9, 11, 12, 13, 15, 16, 17, 19, 20, 21, 27, 29]",137.6959238,20036,1144,56,85,10,1.696475905611795
undo,15,13,1,0,0,28,"[0, 24, 23, 28]",4,21,"[1, 2, 3, 4, 6, 7, 9, 10, 11, 12, 13, 15, 16, 17, 19, 20, 21, 22, 26, 27, 29]",177.7458926,23366,3330,1,253,11,1.6592183354372274
undo,15,13,0,0,0,2,"[0, 24, 23, 28, 2]",5,15,"[1, 3, 6, 7, 9, 11, 12, 13, 15, 16, 17, 19, 21, 26, 29]",140.1028322,24336,970,1,80,11,1.459046951791535
undo,15,13,0,0,0,29,"[0, 24, 23, 28, 2, 29]",6,9,"[1, 6, 7, 11, 13, 16, 17, 19, 26]",128.3981322,25230,894,1,31,11,1.5417142413159963
undo,15,13,0,0,0,7,"[0, 24, 23, 28, 2, 29, 7]",7,8,"[1, 6, 11, 13, 16, 17, 19, 26]",113.1337947,26308,1078,1,10,11,1.77525557938341
undo,15,13,0,0,0,26,"[0, 24, 23, 28, 2, 29, 7, 26]",8,6,"[1, 6, 11, 13, 16, 19]",102.6934882,28419,2111,1,4,11,2.0623372568692724
undo,15,13,0,0,0,6,"[0, 24, 23, 28, 2, 29, 7, 26, 6]",9,3,"[11, 13, 16]",82.59373697,29348,929,1,2,11,2.002320377701536
undo,15,13,0,0,0,11,"[0, 24, 23, 28, 2, 29, 7, 26, 6, 11]",10,1,[13],63.48876379,30227,879,1,0,11,1.8540921292495773
undo,15,13,0,0,1,13,"[0, 24, 23, 28, 2, 29, 7, 26, 6, 11, 13]",11,0,[],7.408464223,32022,1795,1,0,11,1.6123988786574368
undo,15,13,0,1,1,13,"[0, 24, 23, 28, 2, 29, 7, 26, 6, 11, 13]",11,0,[],7.408464223,35499,3477,1,0,11,1.6123988786574368
undo,16,41,0,0,0,0,[0],1,29,"[1, 2, 3, 4, 5, 6, 7, 8, 9, 10, 11, 12, 13, 14, 15, 16, 17, 18, 19, 20, 21, 22, 23, 24, 25, 26, 27, 28, 29]",300,165,-1,1,143,10,0.0
undo,16,41,0,0,0,28,"[0, 28]",2,27,"[1, 2, 3, 5, 6, 7, 8, 9, 10, 11, 12, 13, 14, 15, 16, 17, 18, 19, 20, 21, 22, 23, 24, 25, 26, 27, 29]",259.8004975,3356,3191,37,249,9,1.0
undo,16,41,0,0,0,5,"[0, 28, 5]",3,26,"[1, 2, 3, 6, 7, 8, 9, 10, 11, 12, 13, 14, 15, 16, 17, 18, 19, 20, 21, 22, 23, 24, 25, 26, 27, 29]",246.199027,4023,667,30,182,9,1.714241539747437
undo,16,41,0,0,0,3,"[0, 28, 5, 3]",4,25,"[1, 2, 6, 7, 8, 9, 10, 11, 12, 13, 14, 15, 16, 17, 18, 19, 20, 21, 22, 23, 24, 25, 26, 27, 29]",211.3708775,9972,5949,20,93,9,2.2367972660995847
undo,16,41,0,0,0,21,"[0, 28, 5, 3, 21]",5,19,"[1, 2, 6, 9, 10, 11, 12, 13, 14, 15, 17, 18, 19, 20, 22, 24, 25, 26, 27]",179.2305601,10874,902,12,46,9,2.470864770481327
undo,16,41,0,0,0,9,"[0, 28, 5, 3, 21, 9]",6,13,"[1, 2, 10, 12, 13, 14, 15, 17, 19, 22, 24, 25, 26]",129.8645799,11928,1054,3,17,9,2.0674559404382
undo,16,41,0,0,0,2,"[0, 28, 5, 3, 21, 9, 2]",7,9,"[1, 10, 12, 14, 15, 17, 19, 22, 24]",117.7815339,12624,696,2,7,9,2.0139863201149533
undo,16,41,0,0,0,17,"[0, 28, 5, 3, 21, 9, 2, 17]",8,1,[10],85.22389276,13585,961,1,0,9,3.388293326704014
undo,16,41,0,0,1,10,"[0, 28, 5, 3, 21, 9, 2, 17, 10]",9,0,[],35.97960375,14742,1157,1,0,9,3.1208433501016275
undo,16,41,1,0,0,17,"[0, 28, 5, 3, 21, 9, 2, 17]",8,1,[10],85.22389276,16196,1454,1,0,9,3.388293326704014
undo,16,41,1,0,0,2,"[0, 28, 5, 3, 21, 9, 2]",7,9,"[1, 10, 12, 14, 15, 17, 19, 22, 24]",117.7815339,16380,184,2,7,9,2.0139863201149533
undo,16,41,1,0,0,9,"[0, 28, 5, 3, 21, 9]",6,13,"[1, 2, 10, 12, 13, 14, 15, 17, 19, 22, 24, 25, 26]",129.8645799,16547,167,3,17,9,2.0674559404382
undo,16,41,1,0,0,21,"[0, 28, 5, 3, 21]",5,19,"[1, 2, 6, 9, 10, 11, 12, 13, 14, 15, 17, 18, 19, 20, 22, 24, 25, 26, 27]",179.2305601,16713,166,12,46,9,2.470864770481327
undo,16,41,1,0,0,3,"[0, 28, 5, 3]",4,25,"[1, 2, 6, 7, 8, 9, 10, 11, 12, 13, 14, 15, 16, 17, 18, 19, 20, 21, 22, 23, 24, 25, 26, 27, 29]",211.3708775,16896,183,20,93,9,2.2367972660995847
undo,16,41,0,0,0,22,"[0, 28, 5, 3, 22]",5,19,"[2, 6, 7, 8, 9, 10, 11, 12, 13, 14, 16, 17, 18, 19, 20, 21, 23, 25, 27]",181.4042293,19475,2579,8,18,9,1.7196825276135803
undo,16,41,0,0,0,21,"[0, 28, 5, 3, 22, 21]",6,8,"[2, 9, 10, 12, 13, 14, 17, 25]",130.4042293,21316,1841,8,6,9,3.469819975916434
undo,16,41,0,0,0,2,"[0, 28, 5, 3, 22, 21, 2]",7,3,"[9, 14, 17]",69.40422934,23578,2262,2,1,9,2.548680918709616
undo,16,41,1,0,0,21,"[0, 28, 5, 3, 22, 21]",6,8,"[2, 9, 10, 12, 13, 14, 17, 25]",130.4042293,24912,1334,8,6,9,3.469819975916434
undo,16,41,0,0,0,9,"[0, 28, 5, 3, 22, 21, 9]",7,5,"[2, 10, 12, 14, 17]",81.03824916,26238,1326,4,3,9,2.6607849925478684
undo,16,41,0,0,0,2,"[0, 28, 5, 3, 22, 21, 9, 2]",8,2,"[14, 17]",68.95520318,27315,1077,2,0,9,2.5536438215534885
undo,16,41,0,0,1,17,"[0, 28, 5, 3, 22, 21, 9, 2, 17]",9,0,[],36.39756199,28392,1077,1,0,9,4.158574215213491
undo,16,41,0,1,1,17,"[0, 28, 5, 3, 22, 21, 9, 2, 17]",9,0,[],36.39756199,29279,887,1,0,9,4.158574215213491
undo,17,39,0,0,0,0,[0],1,28,"[1, 2, 3, 4, 5, 6, 7, 9, 10, 11, 12, 13, 14, 15, 16, 17, 18, 19, 20, 21, 22, 23, 24, 25, 26, 27, 28, 29]",300,115,-1,1,30,10,0.0
undo,17,39,0,0,0,29,"[0, 29]",2,26,"[1, 2, 3, 4, 5, 6, 7, 9, 10, 12, 13, 14, 15, 16, 17, 18, 19, 20, 21, 22, 23, 24, 25, 26, 27, 28]",243.0614366,2356,2241,8,104,9,1.0
undo,17,39,0,0,0,12,"[0, 29, 12]",3,18,"[1, 2, 4, 5, 7, 9, 10, 13, 14, 15, 16, 18, 19, 22, 23, 24, 26, 28]",182.5221931,3579,1223,5,54,9,1.0026200331524904
undo,17,39,0,0,0,10,"[0, 29, 12, 10]",4,16,"[1, 2, 4, 5, 7, 9, 13, 14, 15, 16, 18, 19, 22, 23, 24, 26]",147.0116313,4717,1138,5,34,9,1.2874817019928908
undo,17,39,0,0,0,7,"[0, 29, 12, 10, 7]",5,10,"[1, 2, 5, 13, 16, 18, 19, 22, 24, 26]",113.5900814,5689,972,4,12,9,1.2250826263866774
undo,17,39,0,0,0,26,"[0, 29, 12, 10, 7, 26]",6,5,"[1, 16, 18, 19, 22]",94.90853971,6600,911,3,4,9,1.2697275353190085
undo,17,39,0,0,0,22,"[0, 29, 12, 10, 7, 26, 22]",7,2,"[16, 19]",77.18849457,7704,1104,2,0,9,1.438961743955176
undo,17,39,0,0,0,16,"[0, 29, 12, 10, 7, 26, 22, 16]",8,1,[19],42.18849457,9052,1348,1,0,9,1.3580882130477205
undo,17,39,0,0,1,19,"[0, 29, 12, 10, 7, 26, 22, 16, 19]",9,0,[],24.72424537,10092,1040,1,0,9,1.3646589157842668
undo,17,39,0,1,1,19,"[0, 29, 12, 10, 7, 26, 22, 16, 19]",9,0,[],24.72424537,11430,1338,1,0,9,1.3646589157842668
undo,18,24,0,0,0,0,[0],1,29,"[1, 2, 3, 4, 5, 6, 7, 8, 9, 10, 11, 12, 13, 14, 15, 16, 17, 18, 19, 20, 21, 22, 23, 24, 25, 26, 27, 28, 29]",300,132,-1,4,76,10,0.0
undo,18,24,0,0,0,14,"[0, 14]",2,27,"[1, 2, 3, 4, 5, 6, 8, 9, 10, 11, 12, 13, 15, 16, 17, 18, 19, 20, 21, 22, 23, 24, 25, 26, 27, 28, 29]",278.0455016,2740,2608,4,54,10,1.0
undo,18,24,0,0,0,16,"[0, 14, 16]",3,25,"[2, 3, 4, 5, 6, 8, 9, 10, 11, 12, 13, 15, 17, 18, 19, 20, 21, 22, 23, 24, 25, 26, 27, 28, 29]",188.9949542,5957,3217,4,31,10,1.238291113657358
undo,18,24,0,0,0,8,"[0, 14, 16, 8]",4,17,"[2, 3, 4, 6, 9, 10, 11, 13, 15, 20, 22, 23, 24, 26, 27, 28, 29]",159.9949542,7234,1277,2,13,10,1.2714603293172921
undo,18,24,0,0,0,22,"[0, 14, 16, 8, 22]",5,13,"[3, 4, 6, 9, 10, 11, 15, 23, 24, 26, 27, 28, 29]",146.5785463,7957,723,2,10,10,1.4558841300797367
undo,18,24,0,0,0,15,"[0, 14, 16, 8, 22, 15]",6,11,"[3, 4, 6, 9, 10, 11, 23, 26, 27, 28, 29]",125.3653429,9401,1444,2,8,10,1.459909027032803
undo,18,24,0,0,0,28,"[0, 14, 16, 8, 22, 15, 28]",7,5,"[4, 9, 11, 23, 27]",80.08841717,11840,2439,2,5,10,1.3358430839259279
undo,18,24,0,0,0,23,"[0, 14, 16, 8, 22, 15, 28, 23]",8,3,"[9, 11, 27]",61.06211957,12763,923,2,2,10,1.3561794364003306
undo,18,24,0,0,0,11,"[0, 14, 16, 8, 22, 15, 28, 23, 11]",9,2,"[9, 27]",34.13629554,14250,1487,2,0,10,1.323606251450204
undo,18,24,0,0,1,27,"[0, 14, 16, 8, 22, 15, 28, 23, 11, 27]",10,0,[],6.33341799,15335,1085,1,0,10,1.2857748381905127
undo,18,24,0,1,1,27,"[0, 14, 16, 8, 22, 15, 28, 23, 11, 27]",10,0,[],6.33341799,16014,679,1,0,10,1.2857748381905127
undo,19,19,0,0,0,0,[0],1,29,"[1, 2, 3, 4, 5, 6, 7, 8, 9, 10, 11, 12, 13, 14, 15, 16, 17, 18, 19, 20, 21, 22, 23, 24, 25, 26, 27, 28, 29]",300,132,-1,12,149,8,0.0
undo,19,19,0,0,0,29,"[0, 29]",2,28,"[1, 2, 3, 4, 5, 6, 7, 8, 9, 10, 11, 12, 13, 14, 15, 16, 17, 18, 19, 20, 21, 22, 23, 24, 25, 26, 27, 28]",265.0715016,2418,2286,12,120,8,1.0
undo,19,19,0,0,0,13,"[0, 29, 13]",3,16,"[1, 2, 3, 6, 7, 8, 9, 10, 12, 17, 18, 19, 21, 23, 25, 26]",155.7828929,3935,1517,13,26,7,1.0287584179832434
undo,19,19,0,0,0,1,"[0, 29, 13, 1]",4,10,"[2, 3, 8, 12, 17, 18, 19, 21, 23, 25]",121.7681902,5025,1090,10,8,7,1.332427648913806
undo,19,19,0,0,0,19,"[0, 29, 13, 1, 19]",5,5,"[3, 8, 18, 21, 23]",87.70941743,7128,2103,3,3,7,1.279671871093367
undo,19,19,0,0,0,23,"[0, 29, 13, 1, 19, 23]",6,1,[3],35.85384878,10579,3451,1,0,7,1.4690664304447463
undo,19,19,0,0,1,3,"[0, 29, 13, 1, 19, 23, 3]",7,0,[],13.92213658,14571,3992,1,0,7,1.419553347040276
undo,19,19,1,0,0,23,"[0, 29, 13, 1, 19, 23]",6,1,[3],35.85384878,15447,876,1,0,7,1.4690664304447463
undo,19,19,1,0,0,19,"[0, 29, 13, 1, 19]",5,5,"[3, 8, 18, 21, 23]",87.70941743,15614,167,3,3,7,1.279671871093367
undo,19,19,1,0,0,1,"[0, 29, 13, 1]",4,10,"[2, 3, 8, 12, 17, 18, 19, 21, 23, 25]",121.7681902,19530,3916,10,8,7,1.332427648913806
undo,19,19,0,0,0,12,"[0, 29, 13, 1, 12]",5,2,"[17, 25]",46.76152379,20909,1379,2,0,7,2.1173163957117977
undo,19,19,0,0,0,25,"[0, 29, 13, 1, 12, 25]",6,1,[17],29.64428103,22052,1143,1,0,7,1.982557500512002
undo,19,19,0,0,1,17,"[0, 29, 13, 1, 12, 25, 17]",7,0,[],18.59892001,23854,1802,1,0,7,2.030308708631406
undo,19,19,1,0,0,25,"[0, 29, 13, 1, 12, 25]",6,1,[17],29.64428103,25663,1809,1,0,7,1.982557500512002
undo,19,19,1,0,0,12,"[0, 29, 13, 1, 12]",5,2,"[17, 25]",46.76152379,25829,166,2,0,7,2.1173163957117977
undo,19,19,1,0,0,1,"[0, 29, 13, 1]",4,10,"[2, 3, 8, 12, 17, 18, 19, 21, 23, 25]",121.7681902,25996,167,10,8,7,1.332427648913806
undo,19,19,1,0,0,13,"[0, 29, 13]",3,16,"[1, 2, 3, 6, 7, 8, 9, 10, 12, 17, 18, 19, 21, 23, 25, 26]",155.7828929,26180,184,13,26,7,1.0287584179832434
undo,19,19,1,0,0,29,"[0, 29]",2,28,"[1, 2, 3, 4, 5, 6, 7, 8, 9, 10, 11, 12, 13, 14, 15, 16, 17, 18, 19, 20, 21, 22, 23, 24, 25, 26, 27, 28]",265.0715016,26479,299,12,120,8,1.0
undo,19,19,0,0,0,9,"[0, 29, 9]",3,17,"[1, 4, 5, 6, 7, 10, 11, 12, 13, 14, 19, 20, 21, 22, 24, 27, 28]",181.7108394,28566,2087,11,65,8,1.0375842971861238
undo,19,19,0,0,0,6,"[0, 29, 9, 6]",4,12,"[4, 7, 10, 11, 13, 14, 20, 21, 22, 24, 27, 28]",140.2741407,29826,1260,11,34,8,1.0389786364356892
undo,19,19,0,0,0,28,"[0, 29, 9, 6, 28]",5,5,"[4, 11, 14, 22, 27]",89.18598161,33240,3414,2,4,8,1.2864082671854424
undo,19,19,0,0,0,4,"[0, 29, 9, 6, 28, 4]",6,4,"[11, 14, 22, 27]",78.00564173,34048,808,2,2,8,1.3470045407445053
undo,19,19,0,0,0,14,"[0, 29, 9, 6, 28, 4, 14]",7,1,[11],27.99564273,36098,2050,1,0,8,1.3006971582050546
undo,19,19,0,0,1,11,"[0, 29, 9, 6, 28, 4, 14, 11]",8,0,[],17.1789889,39724,3626,1,0,8,1.289914895833058
undo,19,19,0,1,1,11,"[0, 29, 9, 6, 28, 4, 14, 11]",8,0,[],17.1789889,41395,1671,1,0,8,1.289914895833058
undo,20,37,0,0,0,0,[0],1,29,"[1, 2, 3, 4, 5, 6, 7, 8, 9, 10, 11, 12, 13, 14, 15, 16, 17, 18, 19, 20, 21, 22, 23, 24, 25, 26, 27, 28, 29]",300,132,-1,6,168,10,0.0
undo,20,37,0,0,0,18,"[0, 18]",2,19,"[1, 2, 4, 6, 7, 9, 10, 12, 14, 15, 17, 19, 20, 21, 22, 23, 26, 28, 29]",202.4090168,1901,1769,6,89,10,1.0
undo,20,37,0,0,0,7,"[0, 18, 7]",3,12,"[1, 2, 4, 9, 15, 17, 19, 20, 21, 22, 26, 29]",175.2428614,3718,1817,6,53,10,1.0413073512834488
undo,20,37,0,0,0,22,"[0, 18, 7, 22]",4,8,"[1, 2, 4, 15, 19, 20, 21, 26]",125.2428614,4700,982,6,29,10,1.0730792320325544
undo,20,37,0,0,0,4,"[0, 18, 7, 22, 4]",5,7,"[1, 2, 15, 19, 20, 21, 26]",100.2428614,5879,1179,4,16,10,1.2290245562206235
undo,20,37,0,0,0,2,"[0, 18, 7, 22, 4, 2]",6,5,"[1, 15, 19, 20, 21]",88.84110714,7901,2022,4,7,10,1.3968113858365216
undo,20,37,0,0,0,1,"[0, 18, 7, 22, 4, 2, 1]",7,4,"[15, 19, 20, 21]",71.63645661,9125,1224,4,3,10,1.4424239294761476
undo,20,37,0,0,0,15,"[0, 18, 7, 22, 4, 2, 1, 15]",8,2,"[20, 21]",31.67397421,11044,1919,2,0,10,1.612564167414217
undo,20,37,0,0,0,20,"[0, 18, 7, 22, 4, 2, 1, 15, 20]",9,1,[21],14.67397421,12056,1012,1,0,10,1.9034852470814607
undo,20,37,0,0,1,21,"[0, 18, 7, 22, 4, 2, 1, 15, 20, 21]",10,0,[],0.251769103,14854,2798,1,0,10,1.9314492588202221
undo,20,37,1,0,0,20,"[0, 18, 7, 22, 4, 2, 1, 15, 20]",9,1,[21],14.67397421,23730,8876,1,0,10,1.9034852470814607
undo,20,37,1,0,0,15,"[0, 18, 7, 22, 4, 2, 1, 15]",8,2,"[20, 21]",31.67397421,23913,183,2,0,10,1.612564167414217
undo,20,37,1,0,0,1,"[0, 18, 7, 22, 4, 2, 1]",7,4,"[15, 19, 20, 21]",71.63645661,24080,167,4,3,10,1.4424239294761476
undo,20,37,1,0,0,2,"[0, 18, 7, 22, 4, 2]",6,5,"[1, 15, 19, 20, 21]",88.84110714,24246,166,4,7,10,1.3968113858365216
undo,20,37,1,0,0,4,"[0, 18, 7, 22, 4]",5,7,"[1, 2, 15, 19, 20, 21, 26]",100.2428614,24396,150,4,16,10,1.2290245562206235
undo,20,37,1,0,0,22,"[0, 18, 7, 22]",4,8,"[1, 2, 4, 15, 19, 20, 21, 26]",125.2428614,24546,150,6,29,10,1.0730792320325544
undo,20,37,1,0,0,7,"[0, 18, 7]",3,12,"[1, 2, 4, 9, 15, 17, 19, 20, 21, 22, 26, 29]",175.2428614,24646,100,6,53,10,1.0413073512834488
undo,20,37,1,0,0,18,"[0, 18]",2,19,"[1, 2, 4, 6, 7, 9, 10, 12, 14, 15, 17, 19, 20, 21, 22, 23, 26, 28, 29]",202.4090168,24846,200,6,89,10,1.0
undo,20,37,1,0,0,0,[0],1,29,"[1, 2, 3, 4, 5, 6, 7, 8, 9, 10, 11, 12, 13, 14, 15, 16, 17, 18, 19, 20, 21, 22, 23, 24, 25, 26, 27, 28, 29]",300,24996,150,6,168,10,0.0
undo,20,37,0,0,0,19,"[0, 19]",2,19,"[1, 2, 4, 5, 6, 7, 9, 10, 11, 15, 17, 18, 20, 21, 22, 25, 26, 28, 29]",185.6627795,26850,1854,25,244,9,1.0
undo,20,37,0,0,0,26,"[0, 19, 26]",3,9,"[1, 2, 4, 15, 20, 21, 22, 25, 29]",120.4094271,28645,1795,12,37,8,1.0256292033966232
undo,20,37,0,0,0,21,"[0, 19, 26, 21]",4,6,"[1, 2, 4, 15, 20, 22]",90.67728956,29839,1194,8,18,8,1.3487859218508713
undo,20,37,0,0,0,15,"[0, 19, 26, 21, 15]",5,4,"[1, 2, 4, 20]",75.67728956,32733,2894,4,7,8,1.3481165821607015
undo,20,37,0,0,0,20,"[0, 19, 26, 21, 15, 20]",6,3,"[1, 2, 4]",58.67728956,33431,698,2,2,8,1.6099275130490058
undo,20,37,0,0,0,1,"[0, 19, 26, 21, 15, 20, 1]",7,2,"[2, 4]",24.44280403,34381,950,2,0,8,1.7405155284688993
undo,20,37,0,0,1,4,"[0, 19, 26, 21, 15, 20, 1, 4]",8,0,[],6.722758881,38440,4059,1,0,8,1.8044157702802002
undo,20,37,1,0,0,1,"[0, 19, 26, 21, 15, 20, 1]",7,2,"[2, 4]",24.44280403,40844,2404,2,0,8,1.7405155284688993
undo,20,37,0,0,1,2,"[0, 19, 26, 21, 15, 20, 1, 2]",8,0,[],7.238153493,41994,1150,1,0,8,1.9366131115805176
undo,20,37,1,0,0,1,"[0, 19, 26, 21, 15, 20, 1]",7,2,"[2, 4]",24.44280403,43378,1384,2,0,8,1.7405155284688993
undo,20,37,1,0,0,20,"[0, 19, 26, 21, 15, 20]",6,3,"[1, 2, 4]",58.67728956,43577,199,2,2,8,1.6099275130490058
undo,20,37,1,0,0,15,"[0, 19, 26, 21, 15]",5,4,"[1, 2, 4, 20]",75.67728956,43744,167,4,7,8,1.3481165821607015
undo,20,37,1,0,0,21,"[0, 19, 26, 21]",4,6,"[1, 2, 4, 15, 20, 22]",90.67728956,43911,167,8,18,8,1.3487859218508713
undo,20,37,1,0,0,26,"[0, 19, 26]",3,9,"[1, 2, 4, 15, 20, 21, 22, 25, 29]",120.4094271,44077,166,12,37,8,1.0256292033966232
undo,20,37,1,0,0,19,"[0, 19]",2,19,"[1, 2, 4, 5, 6, 7, 9, 10, 11, 15, 17, 18, 20, 21, 22, 25, 26, 28, 29]",185.6627795,44877,800,25,244,9,1.0
undo,20,37,0,0,0,18,"[0, 19, 18]",3,10,"[1, 2, 4, 7, 9, 15, 20, 21, 22, 26]",124.1079259,46258,1381,12,30,7,1.8023394001213324
undo,20,37,0,0,0,7,"[0, 19, 18, 7]",4,5,"[1, 2, 4, 20, 22]",96.94177046,48002,1744,8,6,7,1.694861148078656
undo,20,37,0,0,0,22,"[0, 19, 18, 7, 22]",5,3,"[1, 2, 4]",46.94177046,49819,1817,4,1,7,1.5538794740502868
undo,20,37,0,0,0,2,"[0, 19, 18, 7, 22, 2]",6,2,"[1, 4]",19.28313709,51321,1502,2,0,7,1.8569358126392954
undo,20,37,0,0,1,4,"[0, 19, 18, 7, 22, 2, 4]",7,0,[],7.88138284,52772,1451,1,0,7,1.7972872275556873
undo,20,37,1,0,0,2,"[0, 19, 18, 7, 22, 2]",6,2,"[1, 4]",19.28313709,58976,6204,2,0,7,1.8569358126392954
undo,20,37,1,0,0,22,"[0, 19, 18, 7, 22]",5,3,"[1, 2, 4]",46.94177046,59193,217,4,1,7,1.5538794740502868
undo,20,37,1,0,0,7,"[0, 19, 18, 7]",4,5,"[1, 2, 4, 20, 22]",96.94177046,59359,166,8,6,7,1.694861148078656
undo,20,37,1,0,0,18,"[0, 19, 18]",3,10,"[1, 2, 4, 7, 9, 15, 20, 21, 22, 26]",124.1079259,59609,250,12,30,7,1.8023394001213324
undo,20,37,0,0,0,2,"[0, 19, 18, 2]",4,7,"[1, 4, 7, 15, 20, 21, 22]",65.41380351,63206,3597,2,9,7,1.5517824789627264
undo,20,37,0,0,0,4,"[0, 19, 18, 2, 4]",5,3,"[1, 20, 22]",54.01204926,63975,769,1,2,7,1.5134639698620966
undo,20,37,0,0,0,1,"[0, 19, 18, 2, 4, 1]",6,1,[20],36.29200412,64995,1020,1,0,7,1.66567184063131
undo,20,37,0,0,1,20,"[0, 19, 18, 2, 4, 1, 20]",7,0,[],2.057518579,66239,1244,1,0,7,1.9876529534712786
undo,20,37,1,0,0,1,"[0, 19, 18, 2, 4, 1]",6,1,[20],36.29200412,67242,1003,1,0,7,1.66567184063131
undo,20,37,1,0,0,4,"[0, 19, 18, 2, 4]",5,3,"[1, 20, 22]",54.01204926,67392,150,1,2,7,1.5134639698620966
undo,20,37,1,0,0,2,"[0, 19, 18, 2]",4,7,"[1, 4, 7, 15, 20, 21, 22]",65.41380351,67542,150,2,9,7,1.5517824789627264
undo,20,37,1,0,0,18,"[0, 19, 18]",3,10,"[1, 2, 4, 7, 9, 15, 20, 21, 22, 26]",124.1079259,69308,1766,12,30,7,1.8023394001213324
undo,20,37,1,0,0,19,"[0, 19]",2,19,"[1, 2, 4, 5, 6, 7, 9, 10, 11, 15, 17, 18, 20, 21, 22, 25, 26, 28, 29]",185.6627795,69658,350,25,244,9,1.0
undo,20,37,1,0,0,0,[0],1,29,"[1, 2, 3, 4, 5, 6, 7, 8, 9, 10, 11, 12, 13, 14, 15, 16, 17, 18, 19, 20, 21, 22, 23, 24, 25, 26, 27, 28, 29]",300,69992,334,6,168,10,0.0
undo,20,37,0,0,0,9,"[0, 9]",2,28,"[1, 2, 3, 4, 5, 6, 7, 8, 10, 11, 12, 13, 14, 15, 16, 17, 18, 19, 20, 21, 22, 23, 24, 25, 26, 27, 28, 29]",275.7925631,71428,1436,45,289,9,1.0
undo,20,37,0,0,0,18,"[0, 9, 18]",3,15,"[1, 2, 4, 6, 7, 10, 15, 17, 19, 20, 21, 22, 26, 28, 29]",172.2068498,73171,1743,33,160,9,1.3094770236215172
undo,20,37,0,0,0,7,"[0, 9, 18, 7]",4,9,"[1, 2, 4, 15, 19, 20, 21, 22, 26]",145.0406944,74029,858,17,59,9,1.293395038406712
undo,20,37,0,0,0,22,"[0, 9, 18, 7, 22]",5,7,"[1, 2, 4, 15, 19, 20, 21]",95.04069441,75027,998,6,17,9,1.2585327043140475
undo,20,37,0,0,0,4,"[0, 9, 18, 7, 22, 4]",6,5,"[1, 2, 15, 20, 21]",70.04069441,75963,936,4,7,9,1.4148462251829255
undo,20,37,0,0,0,2,"[0, 9, 18, 7, 22, 4, 2]",7,3,"[1, 15, 20]",58.63894016,77282,1319,2,2,9,1.5965980495342236
undo,20,37,0,0,0,1,"[0, 9, 18, 7, 22, 4, 2, 1]",8,2,"[15, 20]",41.43428963,80256,2974,2,0,9,1.6331913686535429
undo,20,37,0,0,1,15,"[0, 9, 18, 7, 22, 4, 2, 1, 15]",9,0,[],1.471807221,82285,2029,1,0,9,1.7940707213212848
undo,20,37,1,0,0,1,"[0, 9, 18, 7, 22, 4, 2, 1]",8,2,"[15, 20]",41.43428963,85223,2938,2,0,9,1.6331913686535429
undo,20,37,1,0,0,2,"[0, 9, 18, 7, 22, 4, 2]",7,3,"[1, 15, 20]",58.63894016,85390,167,2,2,9,1.5965980495342236
undo,20,37,1,0,0,4,"[0, 9, 18, 7, 22, 4]",6,5,"[1, 2, 15, 20, 21]",70.04069441,85557,167,4,7,9,1.4148462251829255
undo,20,37,1,0,0,22,"[0, 9, 18, 7, 22]",5,7,"[1, 2, 4, 15, 19, 20, 21]",95.04069441,85740,183,6,17,9,1.2585327043140475
undo,20,37,1,0,0,7,"[0, 9, 18, 7]",4,9,"[1, 2, 4, 15, 19, 20, 21, 22, 26]",145.0406944,85874,134,17,59,9,1.293395038406712
undo,20,37,1,0,0,18,"[0, 9, 18]",3,15,"[1, 2, 4, 6, 7, 10, 15, 17, 19, 20, 21, 22, 26, 28, 29]",172.2068498,86007,133,33,160,9,1.3094770236215172
undo,20,37,1,0,0,9,"[0, 9]",2,28,"[1, 2, 3, 4, 5, 6, 7, 8, 10, 11, 12, 13, 14, 15, 16, 17, 18, 19, 20, 21, 22, 23, 24, 25, 26, 27, 28, 29]",275.7925631,86140,133,45,289,9,1.0
undo,20,37,1,0,0,0,[0],1,29,"[1, 2, 3, 4, 5, 6, 7, 8, 9, 10, 11, 12, 13, 14, 15, 16, 17, 18, 19, 20, 21, 22, 23, 24, 25, 26, 27, 28, 29]",300,86307,167,6,168,10,0.0
undo,20,37,0,0,0,18,"[0, 18]",2,19,"[1, 2, 4, 6, 7, 9, 10, 12, 14, 15, 17, 19, 20, 21, 22, 23, 26, 28, 29]",202.4090168,87517,1210,6,89,10,1.0
undo,20,37,0,0,0,7,"[0, 18, 7]",3,12,"[1, 2, 4, 9, 15, 17, 19, 20, 21, 22, 26, 29]",175.2428614,88295,778,6,53,10,1.0413073512834488
undo,20,37,0,0,0,22,"[0, 18, 7, 22]",4,8,"[1, 2, 4, 15, 19, 20, 21, 26]",125.2428614,89327,1032,6,29,10,1.0730792320325544
undo,20,37,0,0,0,2,"[0, 18, 7, 22, 2]",5,7,"[1, 4, 15, 19, 20, 21, 26]",97.58422802,90682,1355,2,13,10,1.338975835424605
undo,20,37,0,0,0,4,"[0, 18, 7, 22, 2, 4]",6,5,"[1, 15, 19, 20, 21]",86.18247377,92309,1627,2,6,10,1.3155324116512812
undo,20,37,0,0,0,1,"[0, 18, 7, 22, 2, 4, 1]",7,4,"[15, 19, 20, 21]",68.46242863,93409,1100,2,4,10,1.4624721991921241
undo,20,37,0,0,0,20,"[0, 18, 7, 22, 2, 4, 1, 20]",8,2,"[15, 21]",34.22794309,96515,3106,2,0,10,1.7730355582319604
undo,20,37,0,0,0,21,"[0, 18, 7, 22, 2, 4, 1, 20, 21]",9,1,[15],19.80573799,98118,1603,1,0,10,1.8054518555969565
undo,20,37,0,0,1,15,"[0, 18, 7, 22, 2, 4, 1, 20, 21, 15]",10,0,[],4.805737987,99254,1136,1,0,10,1.7740347323632142
undo,20,37,0,1,1,15,"[0, 18, 7, 22, 2, 4, 1, 20, 21, 15]",10,0,[],4.805737987,100355,1101,1,0,10,1.7740347323632142
undo,21,17,0,0,0,0,[0],1,28,"[1, 2, 3, 4, 5, 6, 7, 8, 9, 10, 11, 12, 13, 14, 15, 16, 17, 18, 19, 20, 22, 23, 24, 25, 26, 27, 28, 29]",300,129,-1,2,73,8,0.0
undo,21,17,0,0,0,9,"[0, 9]",2,25,"[1, 2, 3, 5, 6, 7, 8, 10, 11, 12, 14, 15, 16, 17, 18, 19, 20, 22, 23, 24, 25, 26, 27, 28, 29]",210.5293344,2432,2303,1,34,8,1.0
undo,21,17,0,0,0,16,"[0, 9, 16]",3,21,"[1, 2, 3, 5, 7, 8, 10, 11, 12, 14, 17, 18, 19, 20, 22, 23, 25, 26, 27, 28, 29]",197.1876704,3340,908,1,26,8,1.173103464220352
undo,21,17,0,0,0,2,"[0, 9, 16, 2]",4,18,"[1, 3, 5, 7, 8, 10, 11, 12, 14, 17, 18, 19, 23, 25, 26, 27, 28, 29]",181.0631549,4036,696,1,23,8,1.14825089247282
undo,21,17,0,0,0,17,"[0, 9, 16, 2, 17]",5,7,"[7, 8, 12, 14, 26, 27, 29]",142.7356191,4835,799,4,5,7,1.4896040699768547
undo,21,17,0,0,0,8,"[0, 9, 16, 2, 17, 8]",6,3,"[7, 12, 27]",104.5256727,6205,1370,3,0,7,1.4604726966175894
undo,21,17,0,0,1,7,"[0, 9, 16, 2, 17, 8, 7]",7,0,[],33.81499459,9201,2996,1,0,7,1.4474701869793896
undo,21,17,1,0,0,8,"[0, 9, 16, 2, 17, 8]",6,3,"[7, 12, 27]",104.5256727,11328,2127,3,0,7,1.4604726966175894
undo,21,17,1,0,0,17,"[0, 9, 16, 2, 17]",5,7,"[7, 8, 12, 14, 26, 27, 29]",142.7356191,11528,200,4,5,7,1.4896040699768547
undo,21,17,1,0,0,2,"[0, 9, 16, 2]",4,18,"[1, 3, 5, 7, 8, 10, 11, 12, 14, 17, 18, 19, 23, 25, 26, 27, 28, 29]",181.0631549,11712,184,1,23,8,1.14825089247282
undo,21,17,1,0,0,16,"[0, 9, 16]",3,21,"[1, 2, 3, 5, 7, 8, 10, 11, 12, 14, 17, 18, 19, 20, 22, 23, 25, 26, 27, 28, 29]",197.1876704,11962,250,1,26,8,1.173103464220352
undo,21,17,1,0,0,9,"[0, 9]",2,25,"[1, 2, 3, 5, 6, 7, 8, 10, 11, 12, 14, 15, 16, 17, 18, 19, 20, 22, 23, 24, 25, 26, 27, 28, 29]",210.5293344,12294,332,1,34,8,1.0
undo,21,17,0,0,0,16,"[0, 9, 16]",3,21,"[1, 2, 3, 5, 7, 8, 10, 11, 12, 14, 17, 18, 19, 20, 22, 23, 25, 26, 27, 28, 29]",197.1876704,14059,1765,1,26,8,1.173103464220352
undo,21,17,0,0,0,2,"[0, 9, 16, 2]",4,18,"[1, 3, 5, 7, 8, 10, 11, 12, 14, 17, 18, 19, 23, 25, 26, 27, 28, 29]",181.0631549,14923,864,1,23,8,1.14825089247282
undo,21,17,0,0,0,10,"[0, 9, 16, 2, 10]",5,4,"[3, 11, 23, 28]",71.04042993,16647,1724,3,2,7,1.2629477265421833
undo,21,17,0,0,0,11,"[0, 9, 16, 2, 10, 11]",6,1,[3],49.08593153,17905,1258,1,0,7,1.2370659942349713
undo,21,17,0,0,1,3,"[0, 9, 16, 2, 10, 11, 3]",7,0,[],22.91342687,19510,1605,1,0,7,1.4627126127553682
undo,21,17,0,1,1,3,"[0, 9, 16, 2, 10, 11, 3]",7,0,[],22.91342687,22627,3117,1,0,7,1.4627126127553682
undo,22,38,0,0,0,0,[0],1,29,"[1, 2, 3, 4, 5, 6, 7, 8, 9, 10, 11, 12, 13, 14, 15, 16, 17, 18, 19, 20, 21, 22, 23, 24, 25, 26, 27, 28, 29]",300,132,-1,33,506,9,0.0
undo,22,38,0,0,0,19,"[0, 19]",2,23,"[3, 4, 5, 6, 7, 8, 9, 11, 13, 14, 15, 16, 17, 18, 20, 22, 23, 24, 25, 26, 27, 28, 29]",219.5015528,8630,8498,6,61,9,1.0
undo,22,38,0,0,0,17,"[0, 19, 17]",3,21,"[3, 4, 5, 6, 7, 9, 11, 13, 14, 15, 16, 18, 20, 22, 23, 24, 25, 26, 27, 28, 29]",198.1239945,11041,2411,6,53,9,1.571793785769489
undo,22,38,0,0,0,20,"[0, 19, 17, 20]",4,17,"[3, 4, 5, 6, 7, 11, 13, 14, 15, 16, 18, 22, 24, 25, 26, 27, 28]",174.3542658,13503,2462,6,44,9,2.333182710277297
undo,22,38,0,0,0,4,"[0, 19, 17, 20, 4]",5,10,"[5, 11, 13, 14, 15, 16, 24, 26, 27, 28]",140.4131403,14850,1347,5,22,9,2.276099229646013
undo,22,38,0,0,0,15,"[0, 19, 17, 20, 4, 15]",6,8,"[5, 11, 13, 14, 16, 24, 26, 28]",114.4131403,17056,2206,5,6,9,2.5292671156176403
undo,22,38,0,0,0,11,"[0, 19, 17, 20, 4, 15, 11]",7,2,"[16, 28]",78.01259089,18550,1494,2,0,9,2.778100109749787
undo,22,38,0,0,0,28,"[0, 19, 17, 20, 4, 15, 11, 28]",8,1,[16],50.99407872,20083,1533,1,0,9,2.3316428595723258
undo,22,38,0,0,1,16,"[0, 19, 17, 20, 4, 15, 11, 28, 16]",9,0,[],21.99407872,26404,6321,1,0,9,2.5408012360364265
undo,22,38,0,1,1,16,"[0, 19, 17, 20, 4, 15, 11, 28, 16]",9,0,[],21.99407872,26996,592,1,0,9,2.5408012360364265
basic,23,25,0,0,0,0,[0],1,28,"[1, 2, 3, 4, 5, 7, 8, 9, 10, 11, 12, 13, 14, 15, 16, 17, 18, 19, 20, 21, 22, 23, 24, 25, 26, 27, 28, 29]",300,116,-1,5,94,10,0.0
basic,23,25,0,0,0,23,"[0, 23]",2,23,"[1, 2, 3, 5, 7, 8, 9, 11, 12, 13, 14, 16, 17, 19, 20, 21, 22, 24, 25, 26, 27, 28, 29]",259.7756293,6914,6798,3,33,10,1.0
basic,23,25,0,0,0,19,"[0, 23, 19]",3,21,"[1, 2, 3, 5, 7, 8, 9, 11, 12, 13, 14, 16, 17, 20, 21, 22, 24, 25, 27, 28, 29]",223.9287326,7881,967,3,24,10,1.583101227007039
basic,23,25,0,0,0,29,"[0, 23, 19, 29]",4,19,"[1, 2, 3, 5, 7, 8, 9, 11, 12, 13, 14, 16, 17, 20, 21, 22, 24, 25, 28]",207.649912,8708,827,3,17,10,1.474631541426484
basic,23,25,0,0,0,22,"[0, 23, 19, 29, 22]",5,18,"[1, 2, 3, 5, 7, 8, 9, 11, 12, 13, 14, 16, 17, 20, 21, 24, 25, 28]",191.5253965,10534,1826,3,14,10,1.4020377754906637
basic,23,25,0,0,0,7,"[0, 23, 19, 29, 22, 7]",6,7,"[3, 8, 9, 11, 13, 24, 28]",115.8814939,12885,2351,3,11,10,1.5709678649326715
basic,23,25,0,0,0,24,"[0, 23, 19, 29, 22, 7, 24]",7,5,"[3, 8, 9, 13, 28]",91.12265712,13830,945,3,7,10,1.486191600033379
basic,23,25,0,0,0,9,"[0, 23, 19, 29, 22, 7, 24, 9]",8,4,"[3, 8, 13, 28]",73.09490075,15684,1854,3,3,10,1.453504870342882
basic,23,25,0,0,0,3,"[0, 23, 19, 29, 22, 7, 24, 9, 3]",9,3,"[8, 13, 28]",42.82940885,16738,1054,3,0,10,1.388955167525479
basic,23,25,0,0,1,13,"[0, 23, 19, 29, 22, 7, 24, 9, 3, 13]",10,0,[],11.58841014,19713,2975,1,0,10,1.4309045890044414
basic,23,25,0,1,1,13,"[0, 23, 19, 29, 22, 7, 24, 9, 3, 13]",10,0,[],11.58841014,21181,1468,1,0,10,1.4309045890044414
basic,24,8,0,0,0,0,[0],1,29,"[1, 2, 3, 4, 5, 6, 7, 8, 9, 10, 11, 12, 13, 14, 15, 16, 17, 18, 19, 20, 21, 22, 23, 24, 25, 26, 27, 28, 29]",300,131,-1,10,149,9,0.0
basic,24,8,0,0,0,5,"[0, 5]",2,28,"[1, 2, 3, 4, 6, 7, 8, 9, 10, 11, 12, 13, 14, 15, 16, 17, 18, 19, 20, 21, 22, 23, 24, 25, 26, 27, 28, 29]",254.5137383,1964,1833,10,100,9,1.0
basic,24,8,0,0,0,25,"[0, 5, 25]",3,20,"[1, 2, 3, 4, 6, 11, 12, 14, 15, 16, 17, 18, 19, 20, 21, 22, 23, 24, 28, 29]",215.3091468,3253,1289,4,42,9,1.2272747879909065
basic,24,8,0,0,0,1,"[0, 5, 25, 1]",4,17,"[3, 4, 6, 11, 12, 14, 15, 16, 17, 18, 20, 21, 22, 23, 24, 28, 29]",190.3091468,4975,1722,3,24,9,1.1770245007593956
basic,24,8,0,0,0,14,"[0, 5, 25, 1, 14]",5,12,"[4, 6, 11, 15, 16, 17, 18, 20, 22, 23, 24, 28]",134.2288472,9533,4558,2,7,9,1.9402045895737055
basic,24,8,0,0,0,17,"[0, 5, 25, 1, 14, 17]",6,6,"[11, 15, 16, 18, 24, 28]",97.21533615,10653,1120,2,5,9,1.8565852053453542
basic,24,8,0,0,0,11,"[0, 5, 25, 1, 14, 17, 11]",7,4,"[15, 16, 24, 28]",72.03597953,11634,981,2,2,9,1.7412490760199053
basic,24,8,0,0,0,24,"[0, 5, 25, 1, 14, 17, 11, 24]",8,1,[15],34.8203914,12472,838,1,0,9,1.6105839855620734
basic,24,8,0,0,1,15,"[0, 5, 25, 1, 14, 17, 11, 24, 15]",9,0,[],18.05733678,13436,964,1,0,9,1.671962547892534
basic,24,8,0,1,1,15,"[0, 5, 25, 1, 14, 17, 11, 24, 15]",9,0,[],18.05733678,14646,1210,1,0,9,1.671962547892534
basic,25,29,0,0,0,0,[0],1,29,"[1, 2, 3, 4, 5, 6, 7, 8, 9, 10, 11, 12, 13, 14, 15, 16, 17, 18, 19, 20, 21, 22, 23, 24, 25, 26, 27, 28, 29]",300,112,-1,1,78,9,0.0
basic,25,29,0,0,0,14,"[0, 14]",2,22,"[1, 3, 4, 5, 6, 7, 9, 10, 11, 12, 13, 15, 16, 17, 21, 22, 23, 25, 26, 27, 28, 29]",209.490332,2615,2503,21,110,8,1.0
basic,25,29,0,0,0,13,"[0, 14, 13]",3,18,"[1, 4, 5, 6, 7, 9, 10, 12, 15, 16, 17, 21, 22, 25, 26, 27, 28, 29]",191.4625756,3441,826,20,75,8,1.0027006502223275
basic,25,29,0,0,0,5,"[0, 14, 13, 5]",4,15,"[1, 4, 6, 7, 9, 12, 15, 17, 21, 22, 25, 26, 27, 28, 29]",165.7526554,4555,1114,19,49,8,1.0803937325657265
basic,25,29,0,0,0,7,"[0, 14, 13, 5, 7]",5,8,"[4, 9, 12, 21, 22, 26, 27, 28]",102.2231347,6042,1487,3,12,8,1.2026521321069321
basic,25,29,0,0,0,12,"[0, 14, 13, 5, 7, 12]",6,7,"[4, 9, 21, 22, 26, 27, 28]",88.62166416,9134,3092,3,4,8,1.3692133279803023
basic,25,29,0,0,0,22,"[0, 14, 13, 5, 7, 12, 22]",7,1,[27],50.67433224,11480,2346,1,0,8,2.1316115728184912
basic,25,29,0,0,1,27,"[0, 14, 13, 5, 7, 12, 22, 27]",8,0,[],17.43279196,12570,1090,1,0,8,2.6081028152142105
basic,25,29,0,1,1,27,"[0, 14, 13, 5, 7, 12, 22, 27]",8,0,[],17.43279196,13411,841,1,0,8,2.6081028152142105
basic,26,13,0,0,0,0,[0],1,29,"[1, 2, 3, 4, 5, 6, 7, 8, 9, 10, 11, 12, 13, 14, 15, 16, 17, 18, 19, 20, 21, 22, 23, 24, 25, 26, 27, 28, 29]",300,132,-1,60,2676,11,0.0
basic,26,13,0,0,0,24,"[0, 24]",2,28,"[1, 2, 3, 4, 5, 6, 7, 8, 9, 10, 11, 12, 13, 14, 15, 16, 17, 18, 19, 20, 21, 22, 23, 25, 26, 27, 28, 29]",288.8196601,4900,4768,16,1444,11,1.0
basic,26,13,0,0,0,28,"[0, 24, 28]",3,23,"[1, 2, 3, 4, 6, 7, 8, 9, 10, 11, 12, 13, 15, 16, 17, 19, 20, 21, 22, 23, 26, 27, 29]",222.5324064,6078,1178,8,243,11,1.0513810491680837
basic,26,13,0,0,0,2,"[0, 24, 28, 2]",4,19,"[1, 3, 4, 6, 7, 9, 11, 12, 13, 15, 16, 17, 19, 20, 21, 23, 26, 27, 29]",184.889346,7477,1399,7,110,11,1.050374132001543
basic,26,13,0,0,0,29,"[0, 24, 28, 2, 29]",5,18,"[1, 3, 4, 6, 7, 9, 11, 12, 13, 15, 16, 17, 19, 20, 21, 23, 26, 27]",173.1846461,12107,4630,7,85,11,1.1393409619120594
basic,26,13,0,0,0,7,"[0, 24, 28, 2, 29, 7]",6,17,"[1, 3, 4, 6, 9, 11, 12, 13, 15, 16, 17, 19, 20, 21, 23, 26, 27]",157.9203086,13352,1245,5,45,11,1.349777315111579
basic,26,13,0,0,0,26,"[0, 24, 28, 2, 29, 7, 26]",7,16,"[1, 3, 4, 6, 9, 11, 12, 13, 15, 16, 17, 19, 20, 21, 23, 27]",147.480002,14444,1092,5,25,11,1.5942082773824946
basic,26,13,0,0,0,6,"[0, 24, 28, 2, 29, 7, 26, 6]",8,12,"[1, 3, 4, 11, 13, 15, 16, 17, 19, 20, 23, 27]",127.3802508,15762,1318,4,12,11,1.5898347940840756
basic,26,13,0,0,0,11,"[0, 24, 28, 2, 29, 7, 26, 6, 11]",9,6,"[1, 13, 15, 16, 17, 23]",108.2752776,17616,1854,3,4,11,1.5029953945561012
basic,26,13,0,0,0,13,"[0, 24, 28, 2, 29, 7, 26, 6, 11, 13]",10,2,"[15, 17]",52.19497806,20260,2644,2,0,11,1.3655915863754327
basic,26,13,0,0,1,15,"[0, 24, 28, 2, 29, 7, 26, 6, 11, 13, 15]",11,0,[],12.38291958,21850,1590,1,0,11,1.3653085520078876
basic,26,13,0,1,1,15,"[0, 24, 28, 2, 29, 7, 26, 6, 11, 13, 15]",11,0,[],12.38291958,22963,1113,1,0,11,1.3653085520078876
basic,27,23,0,0,0,0,[0],1,28,"[1, 2, 3, 4, 5, 6, 7, 8, 9, 10, 11, 12, 13, 14, 15, 16, 17, 18, 19, 20, 21, 22, 23, 25, 26, 27, 28, 29]",300,115,-1,76,2626,10,0.0
basic,27,23,0,0,0,22,"[0, 22]",2,24,"[1, 2, 3, 5, 6, 7, 8, 9, 10, 11, 12, 13, 14, 15, 17, 18, 19, 20, 21, 23, 25, 26, 27, 29]",210.5013967,6304,6189,15,1362,10,1.0
basic,27,23,0,0,0,13,"[0, 22, 13]",3,14,"[1, 2, 5, 6, 7, 8, 9, 10, 12, 14, 18, 21, 27, 29]",168.3113504,8685,2381,14,522,10,1.1898173563652046
basic,27,23,0,0,0,12,"[0, 22, 13, 12]",4,11,"[1, 2, 6, 7, 9, 10, 14, 18, 21, 27, 29]",156.2283045,14193,5508,12,166,10,1.1727968780218219
basic,27,23,0,0,0,9,"[0, 22, 13, 12, 9]",5,10,"[1, 2, 6, 7, 10, 14, 18, 21, 27, 29]",141.9104834,16039,1846,5,49,10,1.2100380646101494
basic,27,23,0,0,0,14,"[0, 22, 13, 12, 9, 14]",6,8,"[1, 2, 6, 7, 10, 18, 27, 29]",131.4701769,16963,924,2,19,10,1.1961799245073135
basic,27,23,0,0,0,2,"[0, 22, 13, 12, 9, 14, 2]",7,6,"[6, 7, 10, 18, 27, 29]",116.6041081,18289,1326,1,8,10,1.343965446549325
basic,27,23,0,0,0,6,"[0, 22, 13, 12, 9, 14, 2, 6]",8,3,"[18, 27, 29]",98.16501923,19534,1245,3,0,9,1.3433890277057379
basic,27,23,0,0,1,27,"[0, 22, 13, 12, 9, 14, 2, 6, 27]",9,0,[],69.86307584,20890,1356,1,0,9,1.607346000085698
basic,27,23,0,1,1,27,"[0, 22, 13, 12, 9, 14, 2, 6, 27]",9,0,[],69.86307584,33828,12938,1,0,9,1.607346000085698
basic,28,9,0,0,0,0,[0],1,27,"[1, 3, 4, 5, 6, 7, 8, 9, 10, 11, 13, 14, 15, 16, 17, 18, 19, 20, 21, 22, 23, 24, 25, 26, 27, 28, 29]",300,131,-1,2,182,10,0.0
basic,28,9,0,0,0,8,"[0, 8]",2,25,"[1, 3, 4, 5, 6, 7, 9, 10, 11, 13, 14, 15, 16, 17, 18, 19, 20, 21, 22, 23, 24, 25, 26, 27, 28]",236.2191251,2816,2685,2,102,9,1.0
basic,28,9,0,0,0,28,"[0, 8, 28]",3,23,"[1, 3, 4, 5, 6, 7, 9, 10, 11, 13, 15, 16, 17, 18, 19, 20, 21, 22, 23, 24, 25, 26, 27]",225.4024713,3621,805,2,52,9,1.0043219354187498
basic,28,9,0,0,0,23,"[0, 8, 28, 23]",4,21,"[1, 3, 4, 5, 7, 9, 10, 11, 13, 15, 16, 17, 18, 19, 20, 21, 22, 24, 25, 26, 27]",200.3824793,4404,783,19,104,8,1.6731219967216804
basic,28,9,0,0,0,9,"[0, 8, 28, 23, 9]",5,19,"[1, 3, 4, 5, 7, 10, 11, 13, 15, 16, 18, 19, 20, 21, 22, 24, 25, 26, 27]",178.0217995,5313,909,12,35,8,1.6380661913087589
basic,28,9,0,0,0,26,"[0, 8, 28, 23, 9, 26]",6,9,"[3, 5, 10, 15, 16, 18, 19, 20, 21]",121.3737634,6844,1531,3,6,8,1.529011463409394
basic,28,9,0,0,0,21,"[0, 8, 28, 23, 9, 26, 21]",7,1,[20],67.46643547,8083,1239,1,0,8,1.9617672806835904
basic,28,9,0,0,1,20,"[0, 8, 28, 23, 9, 26, 21, 20]",8,0,[],55.3833895,9378,1295,1,0,8,1.9314512996641564
basic,28,9,0,1,1,20,"[0, 8, 28, 23, 9, 26, 21, 20]",8,0,[],55.3833895,10380,1002,1,0,8,1.9314512996641564
basic,29,10,0,0,0,0,[0],1,29,"[1, 2, 3, 4, 5, 6, 7, 8, 9, 10, 11, 12, 13, 14, 15, 16, 17, 18, 19, 20, 21, 22, 23, 24, 25, 26, 27, 28, 29]",300,132,-1,1,100,9,0.0
basic,29,10,0,0,0,13,"[0, 13]",2,25,"[1, 2, 3, 4, 6, 7, 8, 9, 10, 11, 12, 14, 17, 18, 19, 20, 21, 22, 23, 24, 25, 26, 27, 28, 29]",249.4628849,2871,2739,1,79,9,1.0
basic,29,10,0,0,0,11,"[0, 13, 11]",3,20,"[1, 2, 3, 6, 7, 8, 9, 10, 12, 14, 18, 19, 20, 21, 22, 24, 26, 27, 28, 29]",206.4512586,4153,1282,1,54,9,1.0313137484914219
basic,29,10,0,0,0,20,"[0, 13, 11, 20]",4,15,"[1, 2, 3, 6, 8, 9, 10, 12, 14, 18, 19, 21, 24, 26, 27]",168.3723931,6036,1883,15,34,8,1.0874972644654597
basic,29,10,0,0,0,26,"[0, 13, 11, 20, 26]",5,8,"[2, 6, 9, 10, 14, 18, 19, 27]",136.5918959,7105,1069,6,9,8,1.2338398611867702
basic,29,10,0,0,0,19,"[0, 13, 11, 20, 26, 19]",6,4,"[2, 10, 14, 27]",108.2722914,7925,820,2,2,8,1.605667351096318
basic,29,10,0,0,0,2,"[0, 13, 11, 20, 26, 19, 2]",7,1,[14],64.36329458,9003,1078,1,0,8,1.443425373304724
basic,29,10,0,0,1,14,"[0, 13, 11, 20, 26, 19, 2, 14]",8,0,[],52.19776952,11237,2234,1,0,8,1.5494298542386484
basic,29,10,0,1,1,14,"[0, 13, 11, 20, 26, 19, 2, 14]",8,0,[],52.19776952,15281,4044,1,0,8,1.5494298542386484
basic,30,34,0,0,0,0,[0],1,25,"[1, 3, 4, 5, 6, 7, 8, 9, 10, 11, 12, 13, 15, 18, 19, 20, 21, 22, 23, 24, 25, 26, 27, 28, 29]",300,132,-1,12,367,10,0.0
basic,30,34,0,0,0,13,"[0, 13]",2,24,"[1, 3, 4, 5, 6, 7, 8, 9, 10, 11, 12, 15, 18, 19, 20, 21, 22, 23, 24, 25, 26, 27, 28, 29]",279.9750156,3564,3432,12,331,10,1.0
basic,30,34,0,0,0,1,"[0, 13, 1]",3,16,"[3, 5, 7, 8, 9, 10, 11, 12, 19, 21, 22, 23, 24, 25, 27, 29]",211.8574701,4905,1341,3,92,10,1.0010381285747127
basic,30,34,0,0,0,8,"[0, 13, 1, 8]",4,14,"[3, 5, 7, 9, 10, 11, 12, 19, 22, 23, 24, 25, 27, 29]",201.0871405,5594,689,2,54,10,1.1636807
basic,30,34,0,0,0,25,"[0, 13, 1, 8, 25]",5,12,"[3, 5, 7, 9, 10, 11, 12, 22, 23, 24, 27, 29]",183.999133,8479,2885,2,28,10,1.1396208815936457
basic,30,34,0,0,0,24,"[0, 13, 1, 8, 25, 24]",6,11,"[3, 5, 7, 9, 10, 11, 12, 22, 23, 27, 29]",166.5062774,9806,1327,2,23,10,1.374180768736554
basic,30,34,0,0,0,7,"[0, 13, 1, 8, 25, 24, 7]",7,8,"[9, 10, 11, 12, 22, 23, 27, 29]",111.7979599,12845,3039,1,9,10,1.6588278239991836
basic,30,34,0,0,0,12,"[0, 13, 1, 8, 25, 24, 7, 12]",8,6,"[9, 10, 11, 22, 23, 27]",96.76466351,13519,674,1,5,10,1.6513922595704515
basic,30,34,0,0,1,22,"[0, 13, 1, 8, 25, 24, 7, 12, 22]",9,0,[],34.37075355,18376,4857,1,0,9,1.5629306365981828
basic,30,34,0,1,1,22,"[0, 13, 1, 8, 25, 24, 7, 12, 22]",9,0,[],34.37075355,19613,1237,1,0,9,1.5629306365981828
basic,31,31,0,0,0,0,[0],1,27,"[1, 3, 4, 5, 6, 7, 8, 10, 11, 12, 13, 14, 15, 16, 17, 18, 19, 20, 21, 22, 23, 24, 25, 26, 27, 28, 29]",300,132,-1,2,87,10,0.0
basic,31,31,0,0,0,14,"[0, 14]",2,25,"[1, 3, 5, 6, 7, 8, 10, 11, 12, 13, 15, 16, 17, 18, 19, 20, 21, 22, 23, 24, 25, 26, 27, 28, 29]",263.861378,6254,6122,2,59,10,1.0
basic,31,31,0,0,0,27,"[0, 14, 27]",3,22,"[1, 3, 5, 6, 7, 8, 10, 11, 12, 13, 15, 16, 17, 18, 19, 20, 21, 22, 24, 25, 28, 29]",235.6833724,7528,1274,1,39,10,1.5881859159302467
basic,31,31,0,0,0,8,"[0, 14, 27, 8]",4,20,"[1, 3, 5, 6, 7, 10, 11, 12, 13, 16, 17, 18, 19, 20, 21, 22, 24, 25, 28, 29]",224.6380114,8891,1363,1,36,10,2.1665048452331277
basic,31,31,0,0,0,18,"[0, 14, 27, 8, 18]",5,15,"[1, 5, 6, 7, 11, 12, 13, 16, 17, 19, 20, 22, 25, 28, 29]",188.7911147,10055,1164,1,26,10,1.7273375741920205
basic,31,31,0,0,0,11,"[0, 14, 27, 8, 18, 11]",6,11,"[1, 5, 7, 12, 16, 17, 19, 20, 22, 25, 28]",153.9055876,12737,2682,13,17,9,2.386348208737804
basic,31,31,0,0,0,5,"[0, 14, 27, 8, 18, 11, 5]",7,5,"[16, 17, 20, 25, 28]",110.2249283,14743,2006,3,3,9,2.163249612867222
basic,31,31,0,0,0,28,"[0, 14, 27, 8, 18, 11, 5, 28]",8,2,"[16, 17]",90.00117988,15703,960,2,0,9,1.9564635733184719
basic,31,31,0,0,1,16,"[0, 14, 27, 8, 18, 11, 5, 28, 16]",9,0,[],56.38570725,18326,2623,1,0,9,1.824071502589619
basic,31,31,0,1,1,16,"[0, 14, 27, 8, 18, 11, 5, 28, 16]",9,0,[],56.38570725,19247,921,1,0,9,1.824071502589619
basic,32,0,0,0,0,0,[0],1,27,"[2, 3, 4, 5, 6, 7, 8, 9, 10, 11, 12, 13, 14, 15, 16, 17, 19, 20, 21, 22, 23, 24, 25, 26, 27, 28, 29]",300,131,-1,104,1136,9,0.0
basic,32,0,0,0,0,20,"[0, 20]",2,25,"[2, 3, 4, 5, 6, 7, 8, 9, 11, 12, 13, 14, 15, 16, 17, 19, 21, 22, 23, 24, 25, 26, 27, 28, 29]",215.4955622,3118,2987,36,372,9,1.0
basic,32,0,0,0,0,28,"[0, 20, 28]",3,19,"[3, 4, 5, 7, 8, 9, 11, 12, 13, 14, 15, 16, 17, 19, 21, 23, 24, 26, 29]",156.2925218,4195,1077,3,83,9,1.3675886789005969
basic,32,0,0,0,0,5,"[0, 20, 28, 5]",4,12,"[3, 4, 7, 8, 9, 11, 12, 15, 17, 21, 24, 26]",112.6347619,5426,1231,2,50,9,1.3829293532227536
basic,32,0,0,0,0,26,"[0, 20, 28, 5, 26]",5,10,"[3, 4, 7, 8, 9, 11, 12, 15, 17, 24]",77.19467159,9909,4483,9,19,8,1.3791303602248017
basic,32,0,0,0,0,4,"[0, 20, 28, 5, 26, 4]",6,7,"[7, 9, 11, 12, 15, 17, 24]",65.15307701,12091,2182,4,5,8,1.5002288778368358
basic,32,0,0,0,0,24,"[0, 20, 28, 5, 26, 4, 24]",7,3,"[7, 12, 15]",53.75132276,13256,1165,3,0,8,1.4760256224306212
basic,32,0,0,0,1,15,"[0, 20, 28, 5, 26, 4, 24, 15]",8,0,[],30.4060877,14421,1165,1,0,8,1.4262032392898991
basic,32,0,0,1,1,15,"[0, 20, 28, 5, 26, 4, 24, 15]",8,0,[],30.4060877,18079,3658,1,0,8,1.4262032392898991
basic,33,38,0,0,0,0,[0],1,29,"[1, 2, 3, 4, 5, 6, 7, 8, 9, 10, 11, 12, 13, 14, 15, 16, 17, 18, 19, 20, 21, 22, 23, 24, 25, 26, 27, 28, 29]",300,132,-1,33,506,9,0.0
basic,33,38,0,0,0,11,"[0, 11]",2,23,"[1, 2, 3, 4, 5, 7, 10, 12, 13, 14, 15, 16, 17, 18, 19, 20, 21, 22, 24, 25, 26, 27, 28]",220.093805,3502,3370,2,40,9,1.0
basic,33,38,0,0,0,15,"[0, 11, 15]",3,19,"[1, 3, 4, 5, 7, 10, 12, 13, 14, 16, 17, 18, 19, 20, 22, 24, 26, 27, 28]",183.6932555,4622,1120,11,93,8,1.5850843355177096
basic,33,38,0,0,0,4,"[0, 11, 15, 4]",4,15,"[3, 5, 12, 13, 14, 16, 17, 18, 19, 20, 22, 24, 26, 27, 28]",157.6932555,5472,850,8,37,8,2.02964249148567
basic,33,38,0,0,0,20,"[0, 11, 15, 4, 20]",5,10,"[3, 5, 13, 16, 17, 19, 24, 26, 27, 28]",123.7521301,7538,2066,5,11,8,3.2728407804065545
basic,33,38,0,0,0,17,"[0, 11, 15, 4, 20, 17]",6,5,"[3, 13, 19, 26, 27]",99.9824014,8563,1025,4,3,8,3.0859711958770903
basic,33,38,0,0,0,19,"[0, 11, 15, 4, 20, 17, 19]",7,3,"[3, 13, 27]",78.60484308,9925,1362,3,0,8,2.750303448679739
basic,33,38,0,0,1,3,"[0, 11, 15, 4, 20, 17, 19, 3]",8,0,[],2.499652717,11750,1825,1,0,8,1.940513139731111
basic,33,38,0,1,1,3,"[0, 11, 15, 4, 20, 17, 19, 3]",8,0,[],2.499652717,12597,847,1,0,8,1.940513139731111
basic,34,12,0,0,0,0,[0],1,29,"[1, 2, 3, 4, 5, 6, 7, 8, 9, 10, 11, 12, 13, 14, 15, 16, 17, 18, 19, 20, 21, 22, 23, 24, 25, 26, 27, 28, 29]",300,132,-1,2,32,9,0.0
basic,34,12,0,0,0,22,"[0, 22]",2,22,"[2, 4, 5, 6, 7, 9, 10, 12, 13, 14, 15, 16, 17, 18, 19, 21, 23, 24, 25, 27, 28, 29]",211.9943184,4489,4357,6,42,8,1.0
basic,34,12,0,0,0,16,"[0, 22, 16]",3,12,"[2, 4, 5, 6, 7, 12, 14, 19, 23, 24, 25, 27]",190.9943184,5368,879,6,24,8,1.2017164145167045
basic,34,12,0,0,0,4,"[0, 22, 16, 4]",4,9,"[2, 6, 7, 12, 14, 19, 24, 25, 27]",156.7890556,6217,849,6,14,8,1.146531713305579
basic,34,12,0,0,0,12,"[0, 22, 16, 4, 12]",5,4,"[14, 19, 24, 27]",114.5990094,7323,1106,4,3,8,1.1221389456954312
basic,34,12,0,0,0,27,"[0, 22, 16, 4, 12, 27]",6,3,"[14, 19, 24]",90.24741807,8327,1004,2,1,8,1.2262878338287035
basic,34,12,0,0,0,14,"[0, 22, 16, 4, 12, 27, 14]",7,1,[24],61.59432051,9317,990,1,0,8,1.2804562106751427
basic,34,12,0,0,1,24,"[0, 22, 16, 4, 12, 27, 14, 24]",8,0,[],44.38966997,10818,1501,1,0,8,1.4322660007679802
basic,34,12,0,1,1,24,"[0, 22, 16, 4, 12, 27, 14, 24]",8,0,[],44.38966997,11647,829,1,0,8,1.4322660007679802
basic,35,5,0,0,0,0,[0],1,29,"[1, 2, 3, 4, 5, 6, 7, 8, 9, 10, 11, 12, 13, 14, 15, 16, 17, 18, 19, 20, 21, 22, 23, 24, 25, 26, 27, 28, 29]",300,132,-1,5,139,9,0.0
basic,35,5,0,0,0,23,"[0, 23]",2,27,"[1, 2, 3, 4, 5, 6, 7, 8, 9, 10, 11, 12, 13, 14, 15, 16, 17, 18, 19, 20, 21, 22, 24, 25, 26, 27, 28]",249.8402552,1855,1723,3,75,9,1.0
basic,35,5,0,0,0,25,"[0, 23, 25]",3,23,"[1, 2, 3, 4, 5, 6, 8, 9, 10, 12, 13, 14, 15, 16, 17, 18, 19, 21, 22, 24, 26, 27, 28]",231.4011663,6953,5098,3,43,9,1.0923159590575564
basic,35,5,0,0,0,24,"[0, 23, 25, 24]",4,21,"[2, 3, 4, 5, 6, 8, 9, 10, 12, 13, 14, 15, 16, 17, 18, 19, 21, 22, 26, 27, 28]",206.5616816,8286,1333,3,25,9,1.2901858295679272
basic,35,5,0,0,0,17,"[0, 23, 25, 24, 17]",5,13,"[4, 5, 6, 8, 12, 13, 14, 15, 18, 19, 22, 26, 27]",171.5759702,14028,5742,3,14,9,1.2027484907982513
basic,35,5,0,0,0,5,"[0, 23, 25, 24, 17, 5]",6,7,"[4, 6, 8, 12, 15, 18, 19]",128.5294837,15003,975,3,4,9,1.1472230681682432
basic,35,5,0,0,0,18,"[0, 23, 25, 24, 17, 5, 18]",7,2,"[4, 6]",61.46235316,18372,3369,1,1,9,1.1763046566678599
basic,35,5,0,0,0,4,"[0, 23, 25, 24, 17, 5, 18, 4]",8,1,[6],23.04360773,19742,1370,1,0,9,1.580519180089265
basic,35,5,0,0,1,6,"[0, 23, 25, 24, 17, 5, 18, 4, 6]",9,0,[],11.00201315,20716,974,1,0,9,1.7305268673652696
basic,35,5,0,1,1,6,"[0, 23, 25, 24, 17, 5, 18, 4, 6]",9,0,[],11.00201315,23946,3230,1,0,9,1.7305268673652696
basic,36,44,0,0,0,0,[0],1,29,"[1, 2, 3, 4, 5, 6, 7, 8, 9, 10, 11, 12, 13, 14, 15, 16, 17, 18, 19, 20, 21, 22, 23, 24, 25, 26, 27, 28, 29]",300,117,-1,13,126,7,0.0
basic,36,44,0,0,0,11,"[0, 11]",2,18,"[4, 5, 6, 7, 8, 9, 12, 14, 16, 17, 19, 20, 22, 23, 24, 25, 26, 28]",152.7790776,3286,3169,5,34,7,1.0
basic,36,44,0,0,0,24,"[0, 11, 24]",3,13,"[4, 5, 7, 8, 9, 12, 14, 17, 20, 22, 23, 25, 28]",125.8532535,6355,3069,5,23,7,1.1588941745226709
basic,36,44,0,0,0,9,"[0, 11, 24, 9]",4,7,"[4, 7, 8, 12, 14, 20, 23]",93.09657483,7886,1531,2,8,7,1.3039383713641313
basic,36,44,0,0,0,4,"[0, 11, 24, 9, 4]",5,5,"[7, 12, 14, 20, 23]",73.39885923,10889,3003,2,3,7,1.2901330701441578
basic,36,44,0,0,0,7,"[0, 11, 24, 9, 4, 7]",6,1,[23],42.38273439,12273,1384,1,0,7,1.2468141312360979
basic,36,44,0,0,1,23,"[0, 11, 24, 9, 4, 7, 23]",7,0,[],23.27776121,14873,2600,1,0,7,1.2635191782769477
basic,36,44,0,1,1,23,"[0, 11, 24, 9, 4, 7, 23]",7,0,[],23.27776121,16315,1442,1,0,7,1.2635191782769477
basic,37,28,0,0,0,0,[0],1,27,"[1, 2, 3, 4, 5, 6, 7, 8, 9, 10, 11, 12, 13, 14, 15, 16, 17, 18, 19, 20, 22, 23, 25, 26, 27, 28, 29]",300,165,-1,2,96,9,0.0
basic,37,28,0,0,0,20,"[0, 20]",2,22,"[2, 3, 4, 5, 6, 7, 8, 9, 10, 11, 12, 13, 14, 15, 16, 18, 19, 22, 23, 26, 28, 29]",245.9629757,3280,3115,1,24,9,1.0
basic,37,28,0,0,0,3,"[0, 20, 3]",3,19,"[2, 4, 5, 6, 7, 8, 9, 10, 11, 12, 13, 14, 15, 16, 18, 19, 23, 26, 28]",204.6229224,4957,1677,9,50,8,1.9497218646689283
basic,37,28,0,0,0,5,"[0, 20, 3, 5]",4,13,"[2, 4, 7, 8, 9, 12, 13, 14, 15, 18, 19, 26, 28]",120.5277383,6085,1128,2,20,8,1.3767728943595041
basic,37,28,0,0,0,26,"[0, 20, 3, 5, 26]",5,11,"[2, 4, 7, 8, 9, 12, 13, 14, 18, 19, 28]",87.77105956,7653,1568,2,12,8,1.32061441211042
basic,37,28,0,0,0,19,"[0, 20, 3, 5, 26, 19]",6,5,"[2, 7, 12, 13, 18]",46.77105956,10635,2982,2,4,8,1.3869157506525107
basic,37,28,0,0,0,7,"[0, 20, 3, 5, 26, 19, 7]",7,2,"[12, 13]",19.04021032,11587,952,2,0,8,1.4342899363887067
basic,37,28,0,0,1,12,"[0, 20, 3, 5, 26, 19, 7, 12]",8,0,[],5.887263878,12686,1099,1,0,8,1.4275803532406273
basic,37,28,0,1,1,12,"[0, 20, 3, 5, 26, 19, 7, 12]",8,0,[],5.887263878,13448,762,1,0,8,1.4275803532406273
basic,38,36,0,0,0,0,[0],1,24,"[2, 4, 5, 6, 7, 8, 9, 10, 12, 13, 14, 15, 16, 17, 18, 19, 20, 22, 23, 25, 26, 27, 28, 29]",300,132,-1,2,200,10,0.0
basic,38,36,0,0,0,12,"[0, 12]",2,23,"[2, 4, 5, 6, 7, 8, 9, 10, 13, 14, 15, 16, 17, 18, 19, 20, 22, 23, 25, 26, 27, 28, 29]",277.7963967,2544,2412,90,804,9,1.0
basic,38,36,0,0,0,13,"[0, 12, 13]",3,18,"[2, 4, 7, 8, 9, 10, 16, 17, 18, 19, 20, 22, 23, 25, 26, 27, 28, 29]",198.6193798,4141,1597,15,125,9,1.033635478646562
basic,38,36,0,0,0,25,"[0, 12, 13, 25]",4,12,"[2, 4, 8, 9, 10, 16, 17, 18, 19, 23, 27, 29]",178.0281195,4881,740,13,50,9,1.0653480204572918
basic,38,36,0,0,0,2,"[0, 12, 13, 25, 2]",5,9,"[4, 8, 9, 10, 16, 17, 18, 19, 27]",153.0281195,5672,791,13,13,9,1.3014517483013393
basic,38,36,0,0,0,19,"[0, 12, 13, 25, 2, 19]",6,5,"[9, 10, 16, 17, 18]",115.9066972,8317,2645,5,2,9,2.3884063284404666
basic,38,36,0,0,0,9,"[0, 12, 13, 25, 2, 19, 9]",7,3,"[16, 17, 18]",100.7739512,10668,2351,2,1,9,2.8846088544693567
basic,38,36,0,0,0,17,"[0, 12, 13, 25, 2, 19, 9, 17]",8,1,[16],74.52514171,12038,1370,1,0,9,2.3856100497832267
basic,38,36,0,0,1,16,"[0, 12, 13, 25, 2, 19, 9, 17, 16]",9,0,[],46.20553719,13012,974,1,0,9,2.3777330471152243
basic,38,36,0,1,1,16,"[0, 12, 13, 25, 2, 19, 9, 17, 16]",9,0,[],46.20553719,16480,3468,1,0,9,2.3777330471152243
basic,39,41,0,0,0,0,[0],1,29,"[1, 2, 3, 4, 5, 6, 7, 8, 9, 10, 11, 12, 13, 14, 15, 16, 17, 18, 19, 20, 21, 22, 23, 24, 25, 26, 27, 28, 29]",300,132,-1,1,143,10,0.0
basic,39,41,0,0,0,13,"[0, 13]",2,23,"[1, 2, 3, 5, 6, 7, 9, 10, 11, 12, 14, 15, 17, 18, 19, 20, 21, 22, 24, 25, 26, 27, 28]",258.2747079,2302,2170,1,55,10,1.0
basic,39,41,0,0,0,28,"[0, 13, 28]",3,22,"[1, 2, 3, 5, 6, 7, 9, 10, 11, 12, 14, 15, 17, 18, 19, 20, 21, 22, 24, 25, 26, 27]",223.7928286,4264,1962,1,39,10,1.895724242592676
basic,39,41,0,0,0,5,"[0, 13, 28, 5]",4,19,"[1, 2, 3, 6, 9, 10, 11, 12, 14, 15, 17, 18, 19, 20, 21, 22, 24, 25, 27]",210.1913581,5040,776,1,34,10,2.861541269398273
basic,39,41,0,0,0,3,"[0, 13, 28, 5, 3]",5,16,"[1, 2, 6, 9, 10, 12, 14, 17, 18, 19, 20, 21, 22, 24, 25, 27]",175.3632086,6359,1319,1,22,10,3.1455488489005883
basic,39,41,0,0,0,21,"[0, 13, 28, 5, 3, 21]",6,14,"[1, 2, 6, 9, 10, 12, 14, 17, 18, 19, 20, 22, 25, 27]",143.2228912,7794,1435,13,11,9,3.207558429289677
basic,39,41,0,0,0,9,"[0, 13, 28, 5, 3, 21, 9]",7,6,"[1, 2, 10, 12, 14, 17]",93.85691102,10739,2945,7,4,9,2.5050148501792275
basic,39,41,0,0,0,2,"[0, 13, 28, 5, 3, 21, 9, 2]",8,5,"[1, 10, 12, 14, 17]",81.77386505,11523,784,5,0,9,2.4119643847713177
basic,39,41,0,0,1,17,"[0, 13, 28, 5, 3, 21, 9, 2, 17]",9,0,[],49.21622385,12541,1018,1,0,9,3.9563478735796007
basic,39,41,0,1,1,17,"[0, 13, 28, 5, 3, 21, 9, 2, 17]",9,0,[],49.21622385,14364,1823,1,0,9,3.9563478735796007
basic,40,35,0,0,0,0,[0],1,29,"[1, 2, 3, 4, 5, 6, 7, 8, 9, 10, 11, 12, 13, 14, 15, 16, 17, 18, 19, 20, 21, 22, 23, 24, 25, 26, 27, 28, 29]",300,132,-1,5,236,11,0.0
basic,40,35,0,0,0,27,"[0, 27]",2,27,"[1, 2, 4, 5, 6, 7, 8, 9, 10, 11, 12, 13, 14, 15, 16, 17, 18, 19, 20, 21, 22, 23, 24, 25, 26, 28, 29]",278.7867966,2168,2036,5,144,11,1.0
basic,40,35,0,0,0,24,"[0, 27, 24]",3,25,"[1, 2, 4, 5, 6, 7, 8, 9, 10, 11, 12, 13, 15, 16, 17, 18, 19, 20, 21, 22, 23, 25, 26, 28, 29]",234.6053525,7110,4942,3,80,11,2.1084080567904624
basic,40,35,0,0,0,17,"[0, 27, 24, 17]",4,20,"[1, 2, 4, 5, 6, 7, 8, 9, 10, 15, 16, 18, 19, 20, 21, 23, 25, 26, 28, 29]",222.9006526,8407,1297,3,50,11,1.9439555968916868
basic,40,35,0,0,0,1,"[0, 27, 24, 17, 1]",5,18,"[2, 4, 5, 6, 8, 9, 10, 15, 16, 18, 19, 20, 21, 23, 25, 26, 28, 29]",207.0892643,9776,1369,3,39,11,1.9436711872547336
basic,40,35,0,0,0,15,"[0, 27, 24, 17, 1, 15]",6,16,"[2, 4, 5, 6, 8, 9, 10, 16, 18, 19, 20, 23, 25, 26, 28, 29]",184.241945,10860,1084,3,24,11,2.082774572108194
basic,40,35,0,0,0,23,"[0, 27, 24, 17, 1, 15, 23]",7,7,"[5, 6, 9, 18, 19, 25, 26]",123.801892,15453,4593,3,14,11,1.657239080954205
basic,40,35,0,0,0,9,"[0, 27, 24, 17, 1, 15, 23, 9]",8,4,"[6, 18, 19, 25]",86.15883157,16507,1054,2,2,11,1.9022575917054987
basic,40,35,0,0,0,18,"[0, 27, 24, 17, 1, 15, 23, 9, 18]",9,2,"[6, 25]",66.13384718,17328,821,2,0,11,1.8181129550839106
basic,40,35,0,0,0,6,"[0, 27, 24, 17, 1, 15, 23, 9, 18, 6]",10,1,[25],32.51837455,19783,2455,1,0,11,1.768804611828727
basic,40,35,0,0,1,25,"[0, 27, 24, 17, 1, 15, 23, 9, 18, 6, 25]",11,0,[],8.497550251,20771,988,1,0,11,1.8000495513746106
basic,40,35,0,1,1,25,"[0, 27, 24, 17, 1, 15, 23, 9, 18, 6, 25]",11,0,[],8.497550251,21630,859,1,0,11,1.8000495513746106
basic,41,30,0,0,0,0,[0],1,19,"[3, 4, 5, 7, 9, 11, 16, 17, 18, 19, 20, 21, 22, 24, 25, 26, 27, 28, 29]",300,132,-1,5,41,8,0.0
basic,41,30,0,0,0,16,"[0, 16]",2,17,"[3, 5, 7, 9, 11, 17, 18, 19, 20, 21, 22, 24, 25, 26, 27, 28, 29]",219.3774225,2551,2419,5,34,8,1.0
basic,41,30,0,0,0,11,"[0, 16, 11]",3,7,"[9, 17, 20, 21, 22, 25, 26]",117.1962109,3561,1010,4,4,5,1.0258711385446289
basic,41,30,0,0,0,9,"[0, 16, 11, 9]",4,2,"[20, 25]",60.68072633,4997,1436,2,0,5,1.1786838797126196
basic,41,30,0,0,1,25,"[0, 16, 11, 9, 25]",5,0,[],2.629025238,9533,4536,1,0,5,1.6622244290468067
basic,41,30,0,1,1,25,"[0, 16, 11, 9, 25]",5,0,[],2.629025238,10898,1365,1,0,5,1.6622244290468067
basic,42,39,0,0,0,0,[0],1,28,"[1, 2, 3, 4, 5, 6, 7, 9, 10, 11, 12, 13, 14, 15, 16, 17, 18, 19, 20, 21, 22, 23, 24, 25, 26, 27, 28, 29]",300,132,-1,1,30,10,0.0
basic,42,39,0,0,0,14,"[0, 14]",2,26,"[1, 2, 3, 4, 5, 6, 7, 9, 10, 12, 13, 15, 16, 17, 18, 19, 20, 21, 22, 23, 24, 25, 26, 27, 28, 29]",286.9615952,1955,1823,1,22,10,1.0
basic,42,39,0,0,0,29,"[0, 14, 29]",3,23,"[1, 2, 3, 4, 5, 6, 7, 9, 10, 12, 13, 15, 16, 17, 18, 19, 21, 22, 23, 24, 25, 26, 28]",218.9321898,3970,2015,1,21,10,1.4237768813412561
basic,42,39,0,0,0,10,"[0, 14, 29, 10]",4,16,"[1, 2, 4, 5, 7, 9, 12, 13, 15, 16, 18, 19, 22, 23, 24, 26]",154.2947393,5896,1926,10,55,9,1.2261903217179273
basic,42,39,0,0,0,7,"[0, 14, 29, 10, 7]",5,13,"[1, 2, 5, 9, 12, 13, 15, 16, 18, 19, 22, 24, 26]",120.8731894,6784,888,7,19,9,1.1772181718345374
basic,42,39,0,0,0,26,"[0, 14, 29, 10, 7, 26]",6,6,"[1, 12, 16, 18, 19, 22]",102.1916477,9001,2217,5,7,9,1.2246375898647768
basic,42,39,0,0,0,22,"[0, 14, 29, 10, 7, 26, 22]",7,4,"[12, 16, 18, 19]",84.47160256,10026,1025,3,2,9,1.3919259602577456
basic,42,39,0,0,0,16,"[0, 14, 29, 10, 7, 26, 22, 16]",8,2,"[18, 19]",49.47160256,11572,1546,2,0,9,1.3197225741710712
basic,42,39,0,0,1,19,"[0, 14, 29, 10, 7, 26, 22, 16, 19]",9,0,[],32.00735337,12334,762,1,0,9,1.3285534538986796
basic,42,39,0,1,1,19,"[0, 14, 29, 10, 7, 26, 22, 16, 19]",9,0,[],32.00735337,13280,946,1,0,9,1.3285534538986796
basic,43,1,0,0,0,0,[0],1,26,"[1, 2, 4, 5, 7, 8, 9, 10, 11, 12, 13, 14, 15, 16, 17, 18, 19, 20, 21, 22, 23, 24, 25, 26, 28, 29]",300,131,-1,6,74,7,0.0
basic,43,1,0,0,0,14,"[0, 14]",2,19,"[1, 4, 5, 8, 9, 13, 15, 17, 18, 19, 20, 21, 22, 23, 24, 25, 26, 28, 29]",200.1901808,2770,2639,5,42,7,1.0
basic,43,1,0,0,0,17,"[0, 14, 17]",3,15,"[1, 4, 5, 8, 9, 13, 15, 18, 19, 20, 22, 23, 25, 28, 29]",147.8356204,5056,2286,5,27,7,1.0028844724416826
basic,43,1,0,0,0,1,"[0, 14, 17, 1]",4,12,"[4, 5, 8, 9, 15, 18, 20, 22, 23, 25, 28, 29]",123.4840291,5810,754,5,15,7,1.0264985578353567
basic,43,1,0,0,0,28,"[0, 14, 17, 1, 28]",5,5,"[9, 15, 22, 23, 29]",88.59850198,7018,1208,5,3,7,1.0339861575999345
basic,43,1,0,0,0,23,"[0, 14, 17, 1, 28, 23]",6,2,"[15, 22]",51.70676849,8212,1194,2,0,7,1.0327458250705703
basic,43,1,0,0,1,15,"[0, 14, 17, 1, 28, 23, 15]",7,0,[],20.81987807,9304,1092,1,0,7,1.1948681641401226
basic,43,1,0,1,1,15,"[0, 14, 17, 1, 28, 23, 15]",7,0,[],20.81987807,10080,776,1,0,7,1.1948681641401226
basic,44,7,0,0,0,0,[0],1,29,"[1, 2, 3, 4, 5, 6, 7, 8, 9, 10, 11, 12, 13, 14, 15, 16, 17, 18, 19, 20, 21, 22, 23, 24, 25, 26, 27, 28, 29]",300,133,-1,3,79,9,0.0
basic,44,7,0,0,0,6,"[0, 6]",2,22,"[2, 4, 5, 7, 8, 9, 10, 11, 13, 14, 15, 16, 18, 19, 20, 21, 22, 23, 24, 25, 27, 28]",231.1160396,2039,1906,1,24,9,1.0
basic,44,7,0,0,0,25,"[0, 6, 25]",3,14,"[2, 4, 5, 7, 13, 14, 15, 16, 18, 19, 20, 21, 23, 28]",163.9371739,5335,3296,1,15,9,1.1491202566384209
basic,44,7,0,0,0,4,"[0, 6, 25, 4]",4,10,"[2, 7, 13, 15, 16, 18, 19, 20, 21, 23]",139.1985401,6404,1069,1,9,9,1.145081852791697
basic,44,7,0,0,0,20,"[0, 6, 25, 4, 20]",5,6,"[2, 7, 13, 16, 18, 19]",119.5516574,9107,2703,1,4,9,1.2036846139155144
basic,44,7,0,0,0,18,"[0, 6, 25, 4, 20, 18]",6,5,"[2, 7, 13, 16, 19]",106.7454089,9920,813,1,3,9,1.3498144584217913
basic,44,7,0,0,0,7,"[0, 6, 25, 4, 20, 18, 7]",7,2,"[2, 19]",65.51435269,11692,1772,1,1,9,1.2817825700699357
basic,44,7,0,0,0,19,"[0, 6, 25, 4, 20, 18, 7, 19]",8,1,[2],36.10347035,13026,1334,1,0,9,1.3950287830764145
basic,44,7,0,0,1,2,"[0, 6, 25, 4, 20, 18, 7, 19, 2]",9,0,[],5.953843486,16300,3274,1,0,9,1.4010142439340676
basic,44,7,0,1,1,2,"[0, 6, 25, 4, 20, 18, 7, 19, 2]",9,0,[],5.953843486,16646,346,1,0,9,1.4010142439340676
basic,45,20,0,0,0,0,[0],1,21,"[1, 2, 3, 4, 5, 6, 7, 8, 9, 12, 17, 18, 20, 21, 22, 23, 25, 26, 27, 28, 29]",300,132,-1,1,9,9,0.0
basic,45,20,0,0,0,12,"[0, 12]",2,20,"[1, 2, 3, 4, 5, 6, 7, 8, 9, 17, 18, 20, 21, 22, 23, 25, 26, 27, 28, 29]",271.5570747,5012,4880,1,8,9,1.0
basic,45,20,0,0,0,1,"[0, 12, 1]",3,12,"[3, 4, 5, 6, 8, 9, 20, 21, 23, 27, 28, 29]",189.5692707,6644,1632,1,6,9,1.0757997779162911
basic,45,20,0,0,0,5,"[0, 12, 1, 5]",4,10,"[4, 6, 8, 9, 20, 21, 23, 27, 28, 29]",152.8950291,7824,1180,1,5,9,1.1708231454516806
basic,45,20,0,0,0,21,"[0, 12, 1, 5, 21]",5,8,"[4, 6, 8, 9, 20, 23, 27, 28]",107.8950291,8995,1171,1,4,9,1.126197336199212
basic,45,20,0,0,0,8,"[0, 12, 1, 5, 21, 8]",6,5,"[6, 9, 23, 27, 28]",90.43077988,11156,2161,1,3,9,1.140007470699913
basic,45,20,0,0,0,23,"[0, 12, 1, 5, 21, 8, 23]",7,2,"[6, 9]",45.74297394,12722,1566,1,1,9,1.1162257896627588
basic,45,20,0,0,1,6,"[0, 12, 1, 5, 21, 8, 23, 6]",8,0,[],7.259211131,15133,2411,1,0,8,1.1044856419832951
basic,45,20,0,1,1,6,"[0, 12, 1, 5, 21, 8, 23, 6]",8,0,[],7.259211131,16613,1480,1,0,8,1.1044856419832951
basic,46,6,0,0,0,0,[0],1,29,"[1, 2, 3, 4, 5, 6, 7, 8, 9, 10, 11, 12, 13, 14, 15, 16, 17, 18, 19, 20, 21, 22, 23, 24, 25, 26, 27, 28, 29]",300,132,-1,180,4304,10,0.0
basic,46,6,0,0,0,3,"[0, 3]",2,28,"[1, 2, 4, 5, 6, 7, 8, 9, 10, 11, 12, 13, 14, 15, 16, 17, 18, 19, 20, 21, 22, 23, 24, 25, 26, 27, 28, 29]",266.4738908,4510,4378,90,1607,10,1.0
basic,46,6,0,0,0,16,"[0, 3, 16]",3,27,"[1, 2, 4, 5, 6, 7, 8, 9, 10, 11, 12, 13, 14, 15, 17, 18, 19, 20, 21, 22, 23, 24, 25, 26, 27, 28, 29]",220.2353787,5631,1121,16,190,10,1.1050742161728249
basic,46,6,0,0,0,18,"[0, 3, 16, 18]",4,24,"[1, 2, 4, 5, 6, 7, 8, 9, 10, 11, 12, 13, 14, 15, 17, 19, 20, 21, 22, 23, 24, 26, 27, 29]",196.8901436,7821,2190,10,97,10,1.6930577237270534
basic,46,6,0,0,0,17,"[0, 3, 16, 18, 17]",5,20,"[1, 2, 4, 5, 6, 7, 8, 9, 10, 11, 13, 14, 20, 21, 22, 23, 24, 26, 27, 29]",182.9617553,8978,1157,8,58,10,1.6583245453234965
basic,46,6,0,0,0,10,"[0, 3, 16, 18, 17, 10]",6,17,"[1, 2, 4, 5, 6, 7, 8, 11, 13, 14, 21, 22, 23, 24, 26, 27, 29]",163.2386724,9761,783,6,33,10,1.6214605156931816
basic,46,6,0,0,0,24,"[0, 3, 16, 18, 17, 10, 24]",7,15,"[1, 2, 4, 5, 6, 7, 8, 11, 13, 14, 22, 23, 26, 27, 29]",149.8222646,10523,762,6,18,10,1.5435556829623227
basic,46,6,0,0,0,23,"[0, 3, 16, 18, 17, 10, 24, 23]",8,6,"[6, 11, 14, 22, 27, 29]",88.6340304,13197,2674,3,4,10,1.5749914836315253
basic,46,6,0,0,0,22,"[0, 3, 16, 18, 17, 10, 24, 23, 22]",9,2,"[14, 27]",47.6340304,14400,1203,2,0,10,1.6207636864423158
basic,46,6,0,0,1,14,"[0, 3, 16, 18, 17, 10, 24, 23, 22, 14]",10,0,[],13.22472933,15921,1521,1,0,10,1.7051539946832646
basic,46,6,0,1,1,14,"[0, 3, 16, 18, 17, 10, 24, 23, 22, 14]",10,0,[],13.22472933,16564,643,1,0,10,1.7051539946832646
basic,47,4,0,0,0,0,[0],1,26,"[3, 4, 5, 6, 7, 8, 10, 11, 12, 13, 14, 15, 16, 17, 18, 19, 20, 21, 22, 23, 24, 25, 26, 27, 28, 29]",300,116,-1,4,489,10,0.0
basic,47,4,0,0,0,28,"[0, 28]",2,21,"[3, 4, 5, 6, 10, 11, 12, 13, 14, 15, 16, 17, 19, 20, 21, 22, 23, 24, 25, 26, 27]",225.9392142,1940,1824,2,216,10,1.0
basic,47,4,0,0,0,14,"[0, 28, 14]",3,13,"[3, 4, 5, 6, 11, 13, 16, 17, 20, 21, 22, 24, 25]",159.6972335,5045,3105,1,26,10,1.0273973946789214
basic,47,4,0,0,0,25,"[0, 28, 14, 25]",4,12,"[3, 4, 5, 6, 11, 13, 16, 17, 20, 21, 22, 24]",143.572718,5801,756,1,25,10,1.233547772313525
basic,47,4,0,0,0,11,"[0, 28, 14, 25, 11]",5,10,"[3, 4, 5, 6, 13, 16, 17, 20, 21, 22]",124.7844238,6568,767,1,15,10,1.425978575879479
basic,47,4,0,0,0,16,"[0, 28, 14, 25, 11, 16]",6,9,"[3, 4, 5, 6, 13, 17, 20, 21, 22]",109.7844238,7601,1033,1,12,10,1.3799325158051412
basic,47,4,0,0,0,17,"[0, 28, 14, 25, 11, 16, 17]",7,5,"[3, 5, 20, 21, 22]",83.70761416,8641,1040,1,5,10,1.3195184878861832
basic,47,4,0,0,0,21,"[0, 28, 14, 25, 11, 16, 17, 21]",8,1,[22],34.45317274,10772,2131,1,0,9,1.7966566629354186
basic,47,4,0,0,1,22,"[0, 28, 14, 25, 11, 16, 17, 21, 22]",9,0,[],23.40781172,11981,1209,1,0,9,1.7433011729935863
basic,47,4,0,1,1,22,"[0, 28, 14, 25, 11, 16, 17, 21, 22]",9,0,[],23.40781172,13231,1250,1,0,9,1.7433011729935863
basic,48,43,0,0,0,0,[0],1,23,"[1, 2, 3, 4, 5, 6, 7, 9, 10, 11, 12, 14, 15, 16, 17, 19, 20, 21, 22, 23, 25, 27, 29]",300,132,-1,16,556,12,0.0
basic,48,43,0,0,0,29,"[0, 29]",2,22,"[1, 2, 3, 4, 5, 6, 7, 9, 10, 11, 12, 14, 15, 16, 17, 19, 20, 21, 22, 23, 25, 27]",277.909278,1778,1646,16,520,12,1.0
basic,48,43,0,0,0,20,"[0, 29, 20]",3,20,"[1, 2, 3, 4, 6, 7, 9, 10, 11, 12, 14, 15, 16, 17, 19, 21, 22, 23, 25, 27]",254.4785289,2570,792,15,422,12,1.082311746871282
basic,48,43,0,0,0,16,"[0, 29, 20, 16]",4,19,"[1, 2, 3, 4, 6, 7, 9, 10, 11, 12, 14, 15, 17, 19, 21, 22, 23, 25, 27]",231.8511119,3450,880,15,389,12,1.215201926898219
basic,48,43,0,0,0,25,"[0, 29, 20, 16, 25]",5,14,"[1, 2, 3, 4, 6, 7, 9, 11, 12, 14, 15, 19, 22, 23]",175.7708124,4701,1251,53,282,11,1.566384303308987
basic,48,43,0,0,0,15,"[0, 29, 20, 16, 25, 15]",6,13,"[1, 2, 3, 4, 6, 7, 9, 11, 12, 14, 19, 22, 23]",153.0992443,6876,2175,27,108,11,1.776736412604812
basic,48,43,0,0,0,12,"[0, 29, 20, 16, 25, 15, 12]",7,10,"[1, 3, 6, 7, 9, 11, 14, 19, 22, 23]",133.7860364,8517,1641,21,41,11,1.6813323012225032
basic,48,43,0,0,0,3,"[0, 29, 20, 16, 25, 15, 12, 3]",8,9,"[1, 6, 7, 9, 11, 14, 19, 22, 23]",120.7860364,9557,1040,20,12,11,1.608740348096123
basic,48,43,0,0,0,22,"[0, 29, 20, 16, 25, 15, 12, 3, 22]",9,6,"[1, 6, 7, 11, 14, 19]",86.07292644,10794,1237,9,2,11,1.793657891802588
basic,48,43,0,0,0,19,"[0, 29, 20, 16, 25, 15, 12, 3, 22, 19]",10,3,"[1, 6, 7]",65.45739831,11703,909,3,0,11,1.6882745891803936
basic,48,43,0,0,1,1,"[0, 29, 20, 16, 25, 15, 12, 3, 22, 19, 1]",11,0,[],37.2793927,14186,2483,1,0,11,1.825064866046553
basic,48,43,0,1,1,1,"[0, 29, 20, 16, 25, 15, 12, 3, 22, 19, 1]",11,0,[],37.2793927,16997,2811,1,0,11,1.825064866046553
basic,49,2,0,0,0,0,[0],1,23,"[1, 2, 4, 5, 6, 7, 8, 9, 12, 13, 15, 16, 17, 18, 19, 20, 22, 23, 25, 26, 27, 28, 29]",300,132,-1,70,620,10,0.0
basic,49,2,0,0,0,19,"[0, 19]",2,22,"[1, 2, 4, 5, 6, 7, 8, 9, 12, 13, 15, 16, 17, 18, 20, 22, 23, 25, 26, 27, 28, 29]",210.306076,2341,2209,67,431,10,1.0
basic,49,2,0,0,0,12,"[0, 19, 12]",3,17,"[1, 4, 5, 6, 7, 13, 15, 16, 17, 18, 20, 22, 25, 26, 27, 28, 29]",174.2921898,3095,754,66,298,10,1.1107635036313153
basic,49,2,0,0,0,5,"[0, 19, 12, 5]",4,11,"[1, 6, 7, 13, 15, 16, 18, 22, 25, 26, 29]",144.7625437,4341,1246,38,136,10,1.0968174771581647
basic,49,2,0,0,0,22,"[0, 19, 12, 5, 22]",5,8,"[1, 6, 7, 13, 15, 18, 26, 29]",131.9562952,5198,857,20,63,10,1.0889910507461968
basic,49,2,0,0,0,13,"[0, 19, 12, 5, 22, 13]",6,7,"[1, 6, 7, 15, 18, 26, 29]",117.0902265,5944,746,19,20,10,1.236526217328057
basic,49,2,0,0,0,18,"[0, 19, 12, 5, 22, 13, 18]",7,4,"[7, 15, 26, 29]",81.91921567,9321,3377,10,3,10,1.2128708213409936
basic,49,2,0,0,0,7,"[0, 19, 12, 5, 22, 13, 18, 7]",8,3,"[15, 26, 29]",71.62358553,14243,4922,5,0,10,1.2019811287894737
basic,49,2,0,0,0,26,"[0, 19, 12, 5, 22, 13, 18, 7, 26]",9,2,"[15, 29]",48.82007703,15766,1523,2,0,10,1.1883593342191134
basic,49,2,0,0,1,15,"[0, 19, 12, 5, 22, 13, 18, 7, 26, 15]",10,0,[],24.61264015,16953,1187,1,0,10,1.4619750353663825
basic,49,2,0,1,1,15,"[0, 19, 12, 5, 22, 13, 18, 7, 26, 15]",10,0,[],24.61264015,18780,1827,1,0,10,1.4619750353663825
basic,50,24,0,0,0,0,[0],1,29,"[1, 2, 3, 4, 5, 6, 7, 8, 9, 10, 11, 12, 13, 14, 15, 16, 17, 18, 19, 20, 21, 22, 23, 24, 25, 26, 27, 28, 29]",300,132,-1,4,76,10,0.0
basic,50,24,0,0,0,14,"[0, 14]",2,27,"[1, 2, 3, 4, 5, 6, 8, 9, 10, 11, 12, 13, 15, 16, 17, 18, 19, 20, 21, 22, 23, 24, 25, 26, 27, 28, 29]",278.0455016,1971,1839,4,54,10,1.0
basic,50,24,0,0,0,10,"[0, 14, 10]",3,20,"[1, 2, 3, 4, 6, 8, 9, 11, 15, 16, 17, 19, 20, 22, 23, 24, 26, 27, 28, 29]",229.342319,3926,1955,10,99,9,1.0038790212375874
basic,50,24,0,0,0,16,"[0, 14, 10, 16]",4,14,"[3, 4, 6, 8, 9, 11, 15, 17, 22, 23, 24, 26, 28, 29]",131.9256879,5472,1546,3,19,9,1.8749141141069043
basic,50,24,0,0,0,8,"[0, 14, 10, 16, 8]",5,10,"[4, 6, 9, 11, 15, 22, 23, 24, 28, 29]",102.9256879,8160,2688,1,4,9,1.7897367079225996
basic,50,24,0,0,0,22,"[0, 14, 10, 16, 8, 22]",6,5,"[4, 6, 15, 23, 28]",89.50928006,8921,761,1,3,9,1.997439675476784
basic,50,24,0,0,0,15,"[0, 14, 10, 16, 8, 22, 15]",7,3,"[4, 23, 28]",68.29607663,10233,1312,1,2,9,1.9369960977051663
basic,50,24,0,0,0,28,"[0, 14, 10, 16, 8, 22, 15, 28]",8,1,[23],23.01915094,12584,2351,1,0,9,1.6825077917008069
basic,50,24,0,0,1,23,"[0, 14, 10, 16, 8, 22, 15, 28, 23]",9,0,[],3.992853347,13433,849,1,0,9,1.6800969548900904
basic,50,24,0,1,1,23,"[0, 14, 10, 16, 8, 22, 15, 28, 23]",9,0,[],3.992853347,14130,697,1,0,9,1.6800969548900904
basic,51,18,0,0,0,0,[0],1,28,"[1, 2, 3, 4, 5, 6, 7, 8, 9, 10, 11, 12, 13, 14, 16, 17, 18, 19, 20, 21, 22, 23, 24, 25, 26, 27, 28, 29]",300,131,-1,3,136,10,0.0
basic,51,18,0,0,0,26,"[0, 26]",2,27,"[1, 2, 3, 4, 5, 6, 7, 8, 9, 10, 11, 12, 13, 14, 16, 17, 18, 19, 20, 21, 22, 23, 24, 25, 27, 28, 29]",258.0238163,1877,1746,1,61,10,1.0
basic,51,18,0,0,0,23,"[0, 26, 23]",3,24,"[1, 2, 3, 4, 5, 6, 7, 8, 9, 10, 12, 13, 14, 16, 17, 18, 19, 20, 21, 24, 25, 27, 28, 29]",239.422741,4455,2578,1,60,10,1.576763070488403
basic,51,18,0,0,0,14,"[0, 26, 23, 14]",4,11,"[3, 5, 7, 8, 9, 12, 13, 16, 25, 27, 28]",147.9405023,6162,1707,5,34,9,1.3563231936668922
basic,51,18,0,0,0,13,"[0, 26, 23, 14, 13]",5,10,"[3, 5, 7, 8, 9, 12, 16, 25, 27, 28]",128.9668364,7069,907,4,16,9,1.8193987895815067
basic,51,18,0,0,0,25,"[0, 26, 23, 14, 13, 25]",6,4,"[3, 7, 8, 28]",83.68991067,8505,1436,3,1,8,3.6046675419926917
basic,51,18,0,0,0,7,"[0, 26, 23, 14, 13, 25, 7]",7,1,[28],55.88703312,9713,1208,1,0,8,4.091342620449793
basic,51,18,0,0,1,28,"[0, 26, 23, 14, 13, 25, 7, 28]",8,0,[],33.86431758,11179,1466,1,0,8,4.186573129654827
basic,51,18,0,1,1,28,"[0, 26, 23, 14, 13, 25, 7, 28]",8,0,[],33.86431758,12397,1218,1,0,8,4.186573129654827
basic,52,14,0,0,0,0,[0],1,29,"[1, 2, 3, 4, 5, 6, 7, 8, 9, 10, 11, 12, 13, 14, 15, 16, 17, 18, 19, 20, 21, 22, 23, 24, 25, 26, 27, 28, 29]",300,132,-1,8,157,10,0.0
basic,52,14,0,0,0,15,"[0, 15]",2,20,"[1, 2, 3, 4, 7, 8, 9, 13, 17, 18, 19, 20, 21, 22, 23, 25, 26, 27, 28, 29]",216.7053423,3846,3714,8,102,10,1.0
basic,52,14,0,0,0,28,"[0, 15, 28]",3,17,"[1, 2, 3, 4, 7, 8, 9, 13, 17, 18, 19, 20, 22, 23, 25, 26, 27]",197.4959696,4776,930,8,48,10,1.0446007867311968
basic,52,14,0,0,0,17,"[0, 15, 28, 17]",4,14,"[1, 2, 3, 4, 7, 8, 13, 18, 19, 20, 22, 23, 25, 26]",184.0423455,5809,1033,8,39,10,1.0729463354689972
basic,52,14,0,0,0,18,"[0, 15, 28, 17, 18]",5,9,"[1, 2, 4, 7, 8, 19, 23, 25, 26]",119.412631,7544,1735,8,27,10,1.5035901079219378
basic,52,14,0,0,0,8,"[0, 15, 28, 17, 18, 8]",6,8,"[1, 2, 4, 7, 19, 23, 25, 26]",105.8111605,8292,748,8,18,10,1.4819689987843856
basic,52,14,0,0,0,1,"[0, 15, 28, 17, 18, 8, 1]",7,5,"[7, 19, 23, 25, 26]",82.21031307,9361,1069,4,6,10,1.4084991998385268
basic,52,14,0,0,0,19,"[0, 15, 28, 17, 18, 8, 1, 19]",8,4,"[7, 23, 25, 26]",66.97876686,10350,989,4,1,10,1.5758713333797987
basic,52,14,0,0,0,26,"[0, 15, 28, 17, 18, 8, 1, 19, 26]",9,1,[23],13.75283333,14444,4094,1,0,10,1.4427883209195413
basic,52,14,0,0,1,23,"[0, 15, 28, 17, 18, 8, 1, 19, 26, 23]",10,0,[],2.936179503,15505,1061,1,0,10,1.5803726510701064
basic,52,14,0,1,1,23,"[0, 15, 28, 17, 18, 8, 1, 19, 26, 23]",10,0,[],2.936179503,16814,1309,1,0,10,1.5803726510701064
basic,53,27,0,0,0,0,[0],1,26,"[1, 3, 5, 6, 7, 8, 9, 10, 11, 12, 13, 14, 15, 16, 17, 18, 19, 21, 22, 23, 24, 25, 26, 27, 28, 29]",300,133,-1,13,578,11,0.0
basic,53,27,0,0,0,15,"[0, 15]",2,24,"[1, 3, 5, 6, 7, 8, 9, 10, 11, 12, 13, 14, 16, 17, 18, 19, 21, 22, 23, 24, 25, 26, 27, 29]",263.7508621,6162,6029,6,219,11,1.0
