condition,trial_id,map_id,undoIndicator,submit,checkEnd,currentChoice,chosen_all,n_city_all,n_within_reach,cities_reach,currentBudget,time_all,rt_all,n_opt_paths_all,n_subopt_paths_all,mas_all,tortuosity_all
basic,0,23,0,0,0,0,[0],1,28,"[1, 2, 3, 4, 5, 6, 7, 8, 9, 10, 11, 12, 13, 14, 15, 16, 17, 18, 19, 20, 21, 22, 23, 25, 26, 27, 28, 29]",300,156,-1,76,2626,10,0.0
basic,0,23,0,0,0,21,"[0, 21]",2,27,"[1, 2, 3, 4, 5, 6, 7, 8, 9, 10, 11, 12, 13, 14, 15, 16, 17, 18, 19, 20, 22, 23, 25, 26, 27, 28, 29]",267.1062316,8849,8693,52,986,10,1.0
basic,0,23,0,0,0,5,"[0, 21, 5]",3,24,"[1, 2, 4, 6, 7, 8, 9, 10, 11, 12, 13, 14, 15, 16, 17, 18, 19, 20, 22, 23, 25, 26, 27, 29]",210.8834604,10546,1697,3,21,8,1.0074329272517222
basic,0,23,0,0,0,26,"[0, 21, 5, 26]",4,6,"[4, 8, 11, 16, 19, 20]",132.4487742,13569,3023,1,5,6,1.0069904353748054
basic,0,23,0,0,0,11,"[0, 21, 5, 26, 11]",5,1,[16],71.41599612,16078,2509,1,0,6,1.1101020566483102
basic,0,23,0,0,1,16,"[0, 21, 5, 26, 11, 16]",6,0,[],20.15197365,19021,2943,1,0,6,1.090066973788043
basic,0,23,0,1,1,16,"[0, 21, 5, 26, 11, 16]",6,0,[],20.15197365,20388,1367,1,0,6,1.090066973788043
basic,1,39,0,0,0,0,[0],1,28,"[1, 2, 3, 4, 5, 6, 7, 9, 10, 11, 12, 13, 14, 15, 16, 17, 18, 19, 20, 21, 22, 23, 24, 25, 26, 27, 28, 29]",300,157,-1,1,30,10,0.0
basic,1,39,0,0,0,29,"[0, 29]",2,26,"[1, 2, 3, 4, 5, 6, 7, 9, 10, 12, 13, 14, 15, 16, 17, 18, 19, 20, 21, 22, 23, 24, 25, 26, 27, 28]",243.0614366,4802,4645,8,104,9,1.0
basic,1,39,0,0,0,12,"[0, 29, 12]",3,18,"[1, 2, 4, 5, 7, 9, 10, 13, 14, 15, 16, 18, 19, 22, 23, 24, 26, 28]",182.5221931,6813,2011,5,54,9,1.0026200331524904
basic,1,39,0,0,0,10,"[0, 29, 12, 10]",4,16,"[1, 2, 4, 5, 7, 9, 13, 14, 15, 16, 18, 19, 22, 23, 24, 26]",147.0116313,8509,1696,5,34,9,1.2874817019928908
basic,1,39,0,0,0,7,"[0, 29, 12, 10, 7]",5,10,"[1, 2, 5, 13, 16, 18, 19, 22, 24, 26]",113.5900814,10183,1674,4,12,9,1.2250826263866774
basic,1,39,0,0,0,26,"[0, 29, 12, 10, 7, 26]",6,5,"[1, 16, 18, 19, 22]",94.90853971,12149,1966,3,4,9,1.2697275353190085
basic,1,39,0,0,0,22,"[0, 29, 12, 10, 7, 26, 22]",7,2,"[16, 19]",77.18849457,13565,1416,2,0,9,1.438961743955176
basic,1,39,0,0,0,16,"[0, 29, 12, 10, 7, 26, 22, 16]",8,1,[19],42.18849457,15781,2216,1,0,9,1.3580882130477205
basic,1,39,0,0,1,19,"[0, 29, 12, 10, 7, 26, 22, 16, 19]",9,0,[],24.72424537,22770,6989,1,0,9,1.3646589157842668
basic,1,39,0,1,1,19,"[0, 29, 12, 10, 7, 26, 22, 16, 19]",9,0,[],24.72424537,23837,1067,1,0,9,1.3646589157842668
basic,2,26,0,0,0,0,[0],1,29,"[1, 2, 3, 4, 5, 6, 7, 8, 9, 10, 11, 12, 13, 14, 15, 16, 17, 18, 19, 20, 21, 22, 23, 24, 25, 26, 27, 28, 29]",300,159,-1,9,226,9,0.0
basic,2,26,0,0,0,18,"[0, 18]",2,15,"[2, 5, 7, 8, 9, 11, 12, 13, 15, 20, 21, 23, 24, 25, 27]",160.9136959,9091,8932,24,22,5,1.0
basic,2,26,0,0,0,11,"[0, 18, 11]",3,6,"[5, 8, 13, 21, 23, 25]",114.3411718,14418,5327,7,2,5,1.2338382000291297
basic,2,26,0,0,0,5,"[0, 18, 11, 5]",4,2,"[13, 23]",40.93136316,16903,2485,2,0,5,1.7504238061726565
basic,2,26,0,0,1,23,"[0, 18, 11, 5, 23]",5,0,[],8.235797711,19251,2348,1,0,5,2.1673494627553263
basic,2,26,0,1,1,23,"[0, 18, 11, 5, 23]",5,0,[],8.235797711,20507,1256,1,0,5,2.1673494627553263
basic,3,41,0,0,0,0,[0],1,29,"[1, 2, 3, 4, 5, 6, 7, 8, 9, 10, 11, 12, 13, 14, 15, 16, 17, 18, 19, 20, 21, 22, 23, 24, 25, 26, 27, 28, 29]",300,165,-1,1,143,10,0.0
basic,3,41,0,0,0,27,"[0, 27]",2,15,"[1, 2, 3, 5, 9, 10, 13, 14, 17, 20, 21, 22, 24, 26, 28]",199.3421637,2648,2483,14,45,6,1.0
basic,3,41,0,0,0,24,"[0, 27, 24]",3,6,"[1, 2, 9, 10, 17, 26]",136.5408899,4317,1669,3,8,6,1.2664021281651117
basic,3,41,0,0,0,10,"[0, 27, 24, 10]",4,4,"[1, 2, 9, 17]",87.29660086,6433,2116,3,2,6,2.5142526796358493
basic,3,41,0,0,0,17,"[0, 27, 24, 10, 17]",5,2,"[2, 9]",38.05231185,8133,1700,2,0,6,4.132468993454642
basic,3,41,0,0,1,2,"[0, 27, 24, 10, 17, 2]",6,0,[],5.49467066,9969,1836,1,0,6,3.255047181476131
basic,3,41,0,1,1,2,"[0, 27, 24, 10, 17, 2]",6,0,[],5.49467066,13173,3204,1,0,6,3.255047181476131
basic,4,1,0,0,0,0,[0],1,26,"[1, 2, 4, 5, 7, 8, 9, 10, 11, 12, 13, 14, 15, 16, 17, 18, 19, 20, 21, 22, 23, 24, 25, 26, 28, 29]",300,166,-1,6,74,7,0.0
basic,4,1,0,0,0,24,"[0, 24]",2,8,"[5, 7, 8, 14, 16, 19, 20, 26]",185.4137879,6170,6004,9,13,5,1.0
basic,4,1,0,0,0,26,"[0, 24, 26]",3,6,"[5, 8, 14, 16, 19, 20]",152.1722476,8172,2002,7,4,5,1.502125301442057
basic,4,1,0,0,0,19,"[0, 24, 26, 19]",4,4,"[5, 8, 16, 20]",113.5458318,9762,1590,4,0,5,1.5438989781695114
basic,4,1,0,0,1,8,"[0, 24, 26, 19, 8]",5,0,[],60.39510274,14438,4676,1,0,5,2.44494793122449
basic,4,1,0,1,1,8,"[0, 24, 26, 19, 8]",5,0,[],60.39510274,16094,1656,1,0,5,2.44494793122449
basic,5,45,0,0,0,0,[0],1,24,"[1, 2, 3, 4, 5, 6, 7, 9, 10, 11, 12, 14, 15, 16, 17, 19, 20, 21, 22, 23, 24, 25, 27, 29]",300,156,-1,6,248,10,0.0
basic,5,45,0,0,0,15,"[0, 15]",2,23,"[1, 2, 3, 4, 5, 6, 7, 9, 10, 11, 12, 14, 16, 17, 19, 20, 21, 22, 23, 24, 25, 27, 29]",253.9022777,3072,2916,5,207,10,1.0
basic,5,45,0,0,0,23,"[0, 15, 23]",3,22,"[1, 2, 3, 4, 5, 6, 7, 9, 10, 11, 12, 14, 16, 17, 19, 20, 21, 22, 24, 25, 27, 29]",230.3014303,4638,1566,5,163,10,1.0006068457769497
basic,5,45,0,0,0,20,"[0, 15, 23, 20]",4,19,"[1, 2, 3, 5, 6, 7, 9, 10, 11, 12, 14, 16, 17, 19, 21, 22, 24, 25, 29]",188.8647316,6718,2080,5,137,10,1.2062119754673604
basic,5,45,0,0,0,24,"[0, 15, 23, 20, 24]",5,14,"[1, 2, 3, 5, 6, 7, 9, 10, 12, 17, 19, 21, 22, 29]",145.0355176,9087,2369,1,23,10,1.5044386356496664
basic,5,45,0,0,0,7,"[0, 15, 23, 20, 24, 7]",6,9,"[2, 3, 6, 10, 12, 17, 19, 22, 29]",110.6262165,10702,1615,1,22,10,1.4273775035809357
basic,5,45,0,0,0,2,"[0, 15, 23, 20, 24, 7, 2]",7,6,"[3, 6, 10, 12, 22, 29]",72.61306087,12718,2016,1,7,10,1.3566457419165387
basic,5,45,0,0,0,3,"[0, 15, 23, 20, 24, 7, 2, 3]",8,4,"[6, 10, 22, 29]",47.29508307,14451,1733,1,3,10,1.4087069987569252
basic,5,45,0,0,0,29,"[0, 15, 23, 20, 24, 7, 2, 3, 29]",9,1,[10],27.29508307,16018,1567,1,0,10,1.6931989191216303
basic,5,45,0,0,1,10,"[0, 15, 23, 20, 24, 7, 2, 3, 29, 10]",10,0,[],5.754423843,17450,1432,1,0,10,1.9996819797033594
basic,5,45,0,1,1,10,"[0, 15, 23, 20, 24, 7, 2, 3, 29, 10]",10,0,[],5.754423843,19193,1743,1,0,10,1.9996819797033594
basic,6,19,0,0,0,0,[0],1,29,"[1, 2, 3, 4, 5, 6, 7, 8, 9, 10, 11, 12, 13, 14, 15, 16, 17, 18, 19, 20, 21, 22, 23, 24, 25, 26, 27, 28, 29]",300,169,-1,12,149,8,0.0
basic,6,19,0,0,0,29,"[0, 29]",2,28,"[1, 2, 3, 4, 5, 6, 7, 8, 9, 10, 11, 12, 13, 14, 15, 16, 17, 18, 19, 20, 21, 22, 23, 24, 25, 26, 27, 28]",265.0715016,5664,5495,12,120,8,1.0
basic,6,19,0,0,0,9,"[0, 29, 9]",3,17,"[1, 4, 5, 6, 7, 10, 11, 12, 13, 14, 19, 20, 21, 22, 24, 27, 28]",181.7108394,10870,5206,11,65,8,1.0375842971861238
basic,6,19,0,0,0,6,"[0, 29, 9, 6]",4,12,"[4, 7, 10, 11, 13, 14, 20, 21, 22, 24, 27, 28]",140.2741407,12782,1912,11,34,8,1.0389786364356892
basic,6,19,0,0,0,4,"[0, 29, 9, 6, 4]",5,7,"[10, 11, 14, 20, 22, 27, 28]",99.22538921,15337,2555,2,6,8,1.2182485830176533
basic,6,19,0,0,0,14,"[0, 29, 9, 6, 4, 14]",6,3,"[11, 20, 22]",49.21539021,18331,2994,3,0,7,1.1992264850067285
basic,6,19,0,0,1,22,"[0, 29, 9, 6, 4, 14, 22]",7,0,[],6.261927018,23905,5574,1,0,7,1.3788088793332804
basic,6,19,0,1,1,22,"[0, 29, 9, 6, 4, 14, 22]",7,0,[],6.261927018,25407,1502,1,0,7,1.3788088793332804
basic,7,10,0,0,0,0,[0],1,29,"[1, 2, 3, 4, 5, 6, 7, 8, 9, 10, 11, 12, 13, 14, 15, 16, 17, 18, 19, 20, 21, 22, 23, 24, 25, 26, 27, 28, 29]",300,140,-1,1,100,9,0.0
basic,7,10,0,0,0,13,"[0, 13]",2,25,"[1, 2, 3, 4, 6, 7, 8, 9, 10, 11, 12, 14, 17, 18, 19, 20, 21, 22, 23, 24, 25, 26, 27, 28, 29]",249.4628849,4300,4160,1,79,9,1.0
basic,7,10,0,0,0,11,"[0, 13, 11]",3,20,"[1, 2, 3, 6, 7, 8, 9, 10, 12, 14, 18, 19, 20, 21, 22, 24, 26, 27, 28, 29]",206.4512586,5671,1371,1,54,9,1.0313137484914219
basic,7,10,0,0,0,19,"[0, 13, 11, 19]",4,11,"[2, 6, 8, 9, 10, 14, 18, 20, 24, 26, 27]",170.0919407,7350,1679,1,22,9,1.0879446220132545
basic,7,10,0,0,0,2,"[0, 13, 11, 19, 2]",5,4,"[14, 20, 26, 27]",126.1829439,9117,1767,1,4,9,1.06474052351343
basic,7,10,0,0,0,14,"[0, 13, 11, 19, 2, 14]",6,3,"[20, 26, 27]",114.0174188,10502,1385,1,3,9,1.1628909195912238
basic,7,10,0,0,0,26,"[0, 13, 11, 19, 2, 14, 26]",7,2,"[20, 27]",79.34754716,12350,1848,1,1,9,1.6660727647633602
basic,7,10,0,0,0,20,"[0, 13, 11, 19, 2, 14, 26, 20]",8,1,[27],47.56704999,15050,2700,1,0,9,2.085581809637999
basic,7,10,0,0,1,27,"[0, 13, 11, 19, 2, 14, 26, 20, 27]",9,0,[],2.312215998,19732,4682,1,0,9,1.9116357409137932
basic,7,10,0,1,1,27,"[0, 13, 11, 19, 2, 14, 26, 20, 27]",9,0,[],2.312215998,21273,1541,1,0,9,1.9116357409137932
basic,8,37,0,0,0,0,[0],1,29,"[1, 2, 3, 4, 5, 6, 7, 8, 9, 10, 11, 12, 13, 14, 15, 16, 17, 18, 19, 20, 21, 22, 23, 24, 25, 26, 27, 28, 29]",300,159,-1,6,168,10,0.0
basic,8,37,0,0,0,28,"[0, 28]",2,28,"[1, 2, 3, 4, 5, 6, 7, 8, 9, 10, 11, 12, 13, 14, 15, 16, 17, 18, 19, 20, 21, 22, 23, 24, 25, 26, 27, 29]",229.1692157,3185,3026,18,114,7,1.0
basic,8,37,0,0,0,6,"[0, 28, 6]",3,15,"[3, 5, 9, 10, 11, 15, 17, 18, 19, 20, 21, 23, 25, 26, 29]",168.4979705,5390,2205,7,34,7,1.4684030276794289
basic,8,37,0,0,0,10,"[0, 28, 6, 10]",4,13,"[3, 5, 9, 11, 17, 18, 19, 20, 21, 23, 25, 26, 29]",154.1801494,10952,5562,4,16,7,1.4636977027853721
basic,8,37,0,0,0,17,"[0, 28, 6, 10, 17]",5,11,"[3, 5, 9, 11, 18, 19, 20, 21, 23, 26, 29]",139.6199296,12602,1650,4,8,7,1.756910785214025
basic,8,37,0,0,0,29,"[0, 28, 6, 10, 17, 29]",6,2,"[11, 19]",86.15966402,14284,1682,2,0,7,1.6485878380764996
basic,8,37,0,0,1,11,"[0, 28, 6, 10, 17, 29, 11]",7,0,[],15.1315006,24952,10668,1,0,7,1.4563707402829547
basic,8,37,0,1,1,11,"[0, 28, 6, 10, 17, 29, 11]",7,0,[],15.1315006,26573,1621,1,0,7,1.4563707402829547
basic,9,38,0,0,0,0,[0],1,29,"[1, 2, 3, 4, 5, 6, 7, 8, 9, 10, 11, 12, 13, 14, 15, 16, 17, 18, 19, 20, 21, 22, 23, 24, 25, 26, 27, 28, 29]",300,170,-1,33,506,9,0.0
basic,9,38,0,0,0,19,"[0, 19]",2,23,"[3, 4, 5, 6, 7, 8, 9, 11, 13, 14, 15, 16, 17, 18, 20, 22, 23, 24, 25, 26, 27, 28, 29]",219.5015528,4221,4051,6,61,9,1.0
basic,9,38,0,0,0,17,"[0, 19, 17]",3,21,"[3, 4, 5, 6, 7, 9, 11, 13, 14, 15, 16, 18, 20, 22, 23, 24, 25, 26, 27, 28, 29]",198.1239945,7036,2815,6,53,9,1.571793785769489
basic,9,38,0,0,0,20,"[0, 19, 17, 20]",4,17,"[3, 4, 5, 6, 7, 11, 13, 14, 15, 16, 18, 22, 24, 25, 26, 27, 28]",174.3542658,8456,1420,6,44,9,2.333182710277297
basic,9,38,0,0,0,4,"[0, 19, 17, 20, 4]",5,10,"[5, 11, 13, 14, 15, 16, 24, 26, 27, 28]",140.4131403,10249,1793,5,22,9,2.276099229646013
basic,9,38,0,0,0,15,"[0, 19, 17, 20, 4, 15]",6,8,"[5, 11, 13, 14, 16, 24, 26, 28]",114.4131403,14285,4036,5,6,9,2.5292671156176403
basic,9,38,0,0,0,11,"[0, 19, 17, 20, 4, 15, 11]",7,2,"[16, 28]",78.01259089,15835,1550,2,0,9,2.778100109749787
basic,9,38,0,0,0,28,"[0, 19, 17, 20, 4, 15, 11, 28]",8,1,[16],50.99407872,17669,1834,1,0,9,2.3316428595723258
basic,9,38,0,0,1,16,"[0, 19, 17, 20, 4, 15, 11, 28, 16]",9,0,[],21.99407872,19504,1835,1,0,9,2.5408012360364265
basic,9,38,0,1,1,16,"[0, 19, 17, 20, 4, 15, 11, 28, 16]",9,0,[],21.99407872,21440,1936,1,0,9,2.5408012360364265
basic,10,7,0,0,0,0,[0],1,29,"[1, 2, 3, 4, 5, 6, 7, 8, 9, 10, 11, 12, 13, 14, 15, 16, 17, 18, 19, 20, 21, 22, 23, 24, 25, 26, 27, 28, 29]",300,166,-1,3,79,9,0.0
basic,10,7,0,0,0,27,"[0, 27]",2,26,"[1, 4, 5, 6, 7, 8, 9, 10, 11, 12, 13, 14, 15, 16, 17, 18, 19, 20, 21, 22, 23, 24, 25, 26, 28, 29]",238.7056283,4949,4783,3,19,7,1.0
basic,10,7,0,0,0,23,"[0, 27, 23]",3,23,"[4, 5, 6, 7, 8, 9, 10, 11, 12, 13, 14, 15, 16, 17, 18, 19, 20, 21, 22, 24, 25, 28, 29]",177.3053026,9404,4455,3,13,7,2.6516576971346186
basic,10,7,0,0,0,16,"[0, 27, 23, 16]",4,4,"[5, 14, 18, 22]",88.19862495,12901,3497,2,2,6,1.6444424215749067
basic,10,7,0,0,0,14,"[0, 27, 23, 16, 14]",5,1,[5],40.56460349,14717,1816,1,0,6,1.711485077836069
basic,10,7,0,0,1,5,"[0, 27, 23, 16, 14, 5]",6,0,[],25.56460349,16985,2268,1,0,6,1.737037264972022
basic,10,7,0,1,1,5,"[0, 27, 23, 16, 14, 5]",6,0,[],25.56460349,18007,1022,1,0,6,1.737037264972022
basic,11,32,0,0,0,0,[0],1,29,"[1, 2, 3, 4, 5, 6, 7, 8, 9, 10, 11, 12, 13, 14, 15, 16, 17, 18, 19, 20, 21, 22, 23, 24, 25, 26, 27, 28, 29]",300,157,-1,17,359,10,0.0
basic,11,32,0,0,0,15,"[0, 15]",2,24,"[2, 3, 4, 5, 6, 7, 8, 9, 10, 11, 12, 13, 14, 16, 17, 19, 20, 22, 23, 24, 25, 26, 27, 28]",214.6185032,2785,2628,11,153,9,1.0
basic,11,32,0,0,0,28,"[0, 15, 28]",3,21,"[2, 3, 5, 7, 8, 9, 10, 11, 12, 13, 14, 16, 17, 19, 20, 22, 23, 24, 25, 26, 27]",203.2167489,3924,1139,11,119,9,1.000160051986942
basic,11,32,0,0,0,12,"[0, 15, 28, 12]",4,19,"[2, 3, 5, 7, 8, 9, 10, 11, 13, 16, 17, 19, 20, 22, 23, 24, 25, 26, 27]",184.243083,5217,1293,8,71,9,1.0281484763748023
basic,11,32,0,0,0,16,"[0, 15, 28, 12, 16]",5,17,"[2, 3, 5, 7, 8, 9, 10, 11, 13, 17, 19, 20, 22, 23, 24, 26, 27]",168.5906071,6728,1511,6,38,9,1.1190771370096
basic,11,32,0,0,0,22,"[0, 15, 28, 12, 16, 22]",6,10,"[2, 3, 5, 8, 9, 10, 11, 17, 20, 27]",134.7527585,9085,2357,4,16,9,1.1702311155319893
basic,11,32,0,0,0,9,"[0, 15, 28, 12, 16, 22, 9]",7,6,"[2, 8, 10, 17, 20, 27]",112.5491552,10653,1568,2,4,9,1.2381424719932013
basic,11,32,0,0,0,2,"[0, 15, 28, 12, 16, 22, 9, 2]",8,1,[17],61.46099608,12385,1732,1,0,9,1.6446273109221003
basic,11,32,0,0,1,17,"[0, 15, 28, 12, 16, 22, 9, 2, 17]",9,0,[],21.64893761,14401,2016,1,0,9,2.46318728800517
basic,11,32,0,1,1,17,"[0, 15, 28, 12, 16, 22, 9, 2, 17]",9,0,[],21.64893761,15624,1223,1,0,9,2.46318728800517
basic,12,3,0,0,0,0,[0],1,29,"[1, 2, 3, 4, 5, 6, 7, 8, 9, 10, 11, 12, 13, 14, 15, 16, 17, 18, 19, 20, 21, 22, 23, 24, 25, 26, 27, 28, 29]",300,167,-1,34,427,10,0.0
basic,12,3,0,0,0,24,"[0, 24]",2,27,"[1, 2, 3, 4, 5, 6, 7, 8, 9, 10, 11, 12, 13, 14, 15, 16, 17, 18, 19, 20, 21, 22, 25, 26, 27, 28, 29]",241.1442441,2985,2818,1,40,10,1.0
basic,12,3,0,0,0,17,"[0, 24, 17]",3,13,"[3, 4, 7, 8, 10, 14, 15, 16, 19, 20, 21, 22, 27]",171.7900806,7224,4239,4,33,9,1.2532313834613698
basic,12,3,0,0,0,20,"[0, 24, 17, 20]",4,10,"[3, 4, 7, 8, 10, 14, 15, 16, 19, 21]",159.1409699,8990,1766,4,21,9,1.2441552028909786
basic,12,3,0,0,0,3,"[0, 24, 17, 20, 3]",5,8,"[4, 7, 8, 10, 14, 16, 19, 21]",138.7448919,10457,1467,4,12,9,1.2890100688984463
basic,12,3,0,0,0,19,"[0, 24, 17, 20, 3, 19]",6,5,"[4, 8, 10, 14, 21]",101.4085825,12335,1878,2,5,9,1.3456482099334586
basic,12,3,0,0,0,21,"[0, 24, 17, 20, 3, 19, 21]",7,3,"[4, 10, 14]",89.20202687,13670,1335,2,2,9,1.3708715753541716
basic,12,3,0,0,0,14,"[0, 24, 17, 20, 3, 19, 21, 14]",8,2,"[4, 10]",62.29477877,15485,1815,2,0,9,1.8468983830159784
basic,12,3,0,0,1,10,"[0, 24, 17, 20, 3, 19, 21, 14, 10]",9,0,[],16.84150606,16724,1239,1,0,9,1.7983120465283395
basic,12,3,0,1,1,10,"[0, 24, 17, 20, 3, 19, 21, 14, 10]",9,0,[],16.84150606,18124,1400,1,0,9,1.7983120465283395
basic,13,15,0,0,0,0,[0],1,25,"[1, 2, 3, 4, 7, 8, 9, 10, 11, 12, 13, 14, 15, 16, 18, 20, 21, 22, 23, 24, 25, 26, 27, 28, 29]",300,163,-1,4,65,9,0.0
basic,13,15,0,0,0,21,"[0, 21]",2,17,"[1, 3, 4, 7, 8, 9, 11, 12, 13, 14, 15, 16, 22, 23, 24, 26, 27]",204.9158268,8102,7939,21,65,7,1.0
basic,13,15,0,0,0,12,"[0, 21, 12]",3,14,"[1, 3, 4, 7, 8, 9, 11, 13, 14, 15, 16, 22, 24, 27]",161.0866128,9614,1512,20,39,7,1.6068212046294776
basic,13,15,0,0,0,7,"[0, 21, 12, 7]",4,10,"[3, 4, 9, 11, 13, 14, 15, 16, 22, 27]",127.8450725,11251,1637,13,11,7,2.0298522511797907
basic,13,15,0,0,0,11,"[0, 21, 12, 7, 11]",5,6,"[3, 4, 14, 15, 16, 22]",86.36013546,13650,2399,6,4,7,1.7205538639328775
basic,13,15,0,0,0,3,"[0, 21, 12, 7, 11, 3]",6,4,"[14, 15, 16, 22]",74.95838121,15450,1800,4,0,7,1.6999894293819835
basic,13,15,0,0,1,16,"[0, 21, 12, 7, 11, 3, 16]",7,0,[],49.8785088,17333,1883,1,0,7,2.1909315613297298
basic,13,15,0,1,1,16,"[0, 21, 12, 7, 11, 3, 16]",7,0,[],49.8785088,19623,2290,1,0,7,2.1909315613297298
basic,14,5,0,0,0,0,[0],1,29,"[1, 2, 3, 4, 5, 6, 7, 8, 9, 10, 11, 12, 13, 14, 15, 16, 17, 18, 19, 20, 21, 22, 23, 24, 25, 26, 27, 28, 29]",300,166,-1,5,139,9,0.0
basic,14,5,0,0,0,12,"[0, 12]",2,22,"[2, 4, 5, 6, 8, 9, 10, 13, 14, 15, 16, 17, 18, 19, 21, 22, 23, 24, 25, 26, 27, 28]",228.3062067,3918,3752,1,27,9,1.0
basic,14,5,0,0,0,25,"[0, 12, 25]",3,21,"[2, 4, 5, 6, 8, 9, 10, 13, 14, 15, 16, 17, 18, 19, 21, 22, 23, 24, 26, 27, 28]",200.5213187,5272,1354,1,20,9,1.584023303445617
basic,14,5,0,0,0,23,"[0, 12, 25, 23]",4,19,"[2, 4, 5, 6, 8, 9, 10, 13, 14, 15, 16, 17, 18, 19, 21, 22, 24, 26, 27]",182.0822298,6336,1064,1,14,9,2.3508446989254357
basic,14,5,0,0,0,24,"[0, 12, 25, 23, 24]",5,15,"[2, 4, 5, 6, 8, 9, 13, 14, 15, 17, 18, 19, 22, 26, 27]",158.995437,7884,1548,1,12,9,1.9469752046288753
basic,14,5,0,0,0,17,"[0, 12, 25, 23, 24, 17]",6,7,"[4, 5, 6, 8, 15, 18, 19]",124.0097257,9570,1686,1,8,9,1.6482276497563642
basic,14,5,0,0,0,5,"[0, 12, 25, 23, 24, 17, 5]",7,4,"[4, 6, 15, 18]",80.96323916,11106,1536,1,3,9,1.4654649104389412
basic,14,5,0,0,1,15,"[0, 12, 25, 23, 24, 17, 5, 15]",8,0,[],40.93824697,13233,2127,1,0,8,1.4660376450939663
basic,14,5,0,1,1,15,"[0, 12, 25, 23, 24, 17, 5, 15]",8,0,[],40.93824697,14992,1759,1,0,8,1.4660376450939663
basic,15,40,0,0,0,0,[0],1,29,"[1, 2, 3, 4, 5, 6, 7, 8, 9, 10, 11, 12, 13, 14, 15, 16, 17, 18, 19, 20, 21, 22, 23, 24, 25, 26, 27, 28, 29]",300,164,-1,8,191,9,0.0
basic,15,40,0,0,0,1,"[0, 1]",2,18,"[2, 5, 6, 7, 8, 9, 10, 11, 13, 15, 17, 18, 19, 21, 22, 23, 27, 29]",247.8463808,2415,2251,4,80,9,1.0
basic,15,40,0,0,0,6,"[0, 1, 6]",3,17,"[2, 5, 7, 8, 9, 10, 11, 13, 15, 17, 18, 19, 21, 22, 23, 27, 29]",227.7466295,5901,3486,4,74,9,1.0459427008232034
basic,15,40,0,0,0,21,"[0, 1, 6, 21]",4,8,"[2, 5, 9, 17, 18, 19, 22, 23]",175.7754837,8971,3070,4,25,9,1.0308822257404064
basic,15,40,0,0,0,9,"[0, 1, 6, 21, 9]",5,6,"[2, 5, 18, 19, 22, 23]",130.0699041,10516,1545,4,12,9,1.377861912961129
basic,15,40,0,0,0,18,"[0, 1, 6, 21, 9, 18]",6,5,"[2, 5, 19, 22, 23]",113.5169588,13400,2884,4,4,9,1.5742712168661408
basic,15,40,0,0,0,5,"[0, 1, 6, 21, 9, 18, 5]",7,3,"[19, 22, 23]",81.94165198,16013,2613,2,1,9,1.7730665063055515
basic,15,40,0,0,0,23,"[0, 1, 6, 21, 9, 18, 5, 23]",8,1,[19],53.63970859,18298,2285,1,0,9,2.597442759912231
basic,15,40,0,0,1,19,"[0, 1, 6, 21, 9, 18, 5, 23, 19]",9,0,[],21.68661797,22004,3706,1,0,9,2.7128328554069565
basic,15,40,0,1,1,19,"[0, 1, 6, 21, 9, 18, 5, 23, 19]",9,0,[],21.68661797,23155,1151,1,0,9,2.7128328554069565
basic,16,8,0,0,0,0,[0],1,29,"[1, 2, 3, 4, 5, 6, 7, 8, 9, 10, 11, 12, 13, 14, 15, 16, 17, 18, 19, 20, 21, 22, 23, 24, 25, 26, 27, 28, 29]",300,184,-1,10,149,9,0.0
basic,16,8,0,0,0,22,"[0, 22]",2,28,"[1, 2, 3, 4, 5, 6, 7, 8, 9, 10, 11, 12, 13, 14, 15, 16, 17, 18, 19, 20, 21, 23, 24, 25, 26, 27, 28, 29]",254.119721,13610,13426,2,42,8,1.0
basic,16,8,0,0,0,6,"[0, 22, 6]",3,16,"[1, 3, 4, 5, 11, 12, 13, 14, 17, 18, 19, 20, 21, 23, 25, 29]",181.773332,15558,1948,5,41,7,2.807767108299999
basic,16,8,0,0,0,5,"[0, 22, 6, 5]",4,8,"[1, 11, 14, 17, 18, 20, 23, 25]",106.1823273,20289,4731,2,10,7,4.2610156477459205
basic,16,8,0,0,0,14,"[0, 22, 6, 5, 14]",5,5,"[1, 11, 17, 18, 25]",66.21984486,23239,2950,1,4,7,2.7361897549274983
basic,16,8,0,0,0,17,"[0, 22, 6, 5, 14, 17]",6,1,[11],29.20633381,25026,1787,1,0,7,2.479238344776744
basic,16,8,0,0,1,11,"[0, 22, 6, 5, 14, 17, 11]",7,0,[],4.02697719,26623,1597,1,0,7,2.260719702311762
basic,16,8,0,1,1,11,"[0, 22, 6, 5, 14, 17, 11]",7,0,[],4.02697719,30446,3823,1,0,7,2.260719702311762
basic,17,30,0,0,0,0,[0],1,19,"[3, 4, 5, 7, 9, 11, 16, 17, 18, 19, 20, 21, 22, 24, 25, 26, 27, 28, 29]",300,154,-1,5,41,8,0.0
basic,17,30,0,0,0,25,"[0, 25]",2,12,"[3, 5, 7, 9, 11, 16, 18, 19, 20, 24, 27, 29]",121.1005869,12067,11913,7,37,7,1.0
basic,17,30,0,0,0,27,"[0, 25, 27]",3,8,"[3, 5, 7, 18, 19, 20, 24, 29]",81.54050603,13566,1499,2,17,7,1.0432445497342653
basic,17,30,0,0,0,3,"[0, 25, 27, 3]",4,5,"[5, 7, 18, 20, 29]",62.43553286,16336,2770,2,6,7,1.0419393955972533
basic,17,30,0,0,0,5,"[0, 25, 27, 3, 5]",5,2,"[18, 29]",37.59604816,19167,2831,1,1,7,1.0851479881849022
basic,17,30,0,0,0,18,"[0, 25, 27, 3, 5, 18]",6,1,[29],24.55764335,20233,1066,1,0,7,1.1277261743026177
basic,17,30,0,0,1,29,"[0, 25, 27, 3, 5, 18, 29]",7,0,[],5.244435434,21816,1583,1,0,7,1.210691681041309
basic,17,30,0,1,1,29,"[0, 25, 27, 3, 5, 18, 29]",7,0,[],5.244435434,24072,2256,1,0,7,1.210691681041309
basic,18,35,0,0,0,0,[0],1,29,"[1, 2, 3, 4, 5, 6, 7, 8, 9, 10, 11, 12, 13, 14, 15, 16, 17, 18, 19, 20, 21, 22, 23, 24, 25, 26, 27, 28, 29]",300,185,-1,5,236,11,0.0
basic,18,35,0,0,0,24,"[0, 24]",2,27,"[1, 2, 4, 5, 6, 7, 8, 9, 10, 11, 12, 13, 14, 15, 16, 17, 18, 19, 20, 21, 22, 23, 25, 26, 27, 28, 29]",268.9838752,2618,2433,49,512,10,1.0
basic,18,35,0,0,0,17,"[0, 24, 17]",3,26,"[1, 2, 4, 5, 6, 7, 8, 9, 10, 11, 12, 13, 14, 15, 16, 18, 19, 20, 21, 22, 23, 25, 26, 27, 28, 29]",257.2791753,4017,1399,33,238,10,1.0771477201815276
basic,18,35,0,0,0,1,"[0, 24, 17, 1]",4,25,"[2, 4, 5, 6, 7, 8, 9, 10, 11, 12, 13, 14, 15, 16, 18, 19, 20, 21, 22, 23, 25, 26, 27, 28, 29]",241.4677869,5185,1168,26,151,10,1.2244804141479215
basic,18,35,0,0,0,15,"[0, 24, 17, 1, 15]",5,23,"[2, 4, 5, 6, 7, 8, 9, 10, 11, 12, 14, 16, 18, 19, 20, 21, 22, 23, 25, 26, 27, 28, 29]",218.6204676,6868,1683,26,78,10,1.4642196672428094
basic,18,35,0,0,0,23,"[0, 24, 17, 1, 15, 23]",6,11,"[4, 5, 6, 9, 18, 19, 25, 26, 27, 28, 29]",158.1804147,8801,1933,15,12,10,1.3338903684702363
basic,18,35,0,0,0,9,"[0, 24, 17, 1, 15, 23, 9]",7,6,"[5, 6, 18, 19, 25, 27]",120.5373542,11567,2766,6,1,10,1.5964380615155294
basic,18,35,0,0,0,18,"[0, 24, 17, 1, 15, 23, 9, 18]",8,3,"[5, 6, 25]",100.5123698,12603,1036,2,1,10,1.5508488101942703
basic,18,35,0,0,0,6,"[0, 24, 17, 1, 15, 23, 9, 18, 6]",9,1,[25],66.89689722,16542,3939,1,0,10,1.541466044761729
basic,18,35,0,0,1,25,"[0, 24, 17, 1, 15, 23, 9, 18, 6, 25]",10,0,[],42.87607292,17936,1394,1,0,10,1.5877595882523792
basic,18,35,0,1,1,25,"[0, 24, 17, 1, 15, 23, 9, 18, 6, 25]",10,0,[],42.87607292,18923,987,1,0,10,1.5877595882523792
basic,19,27,0,0,0,0,[0],1,26,"[1, 3, 5, 6, 7, 8, 9, 10, 11, 12, 13, 14, 15, 16, 17, 18, 19, 21, 22, 23, 24, 25, 26, 27, 28, 29]",300,208,-1,13,578,11,0.0
basic,19,27,0,0,0,15,"[0, 15]",2,24,"[1, 3, 5, 6, 7, 8, 9, 10, 11, 12, 13, 14, 16, 17, 18, 19, 21, 22, 23, 24, 25, 26, 27, 29]",263.7508621,3337,3129,6,219,11,1.0
basic,19,27,0,0,0,24,"[0, 15, 24]",3,20,"[1, 5, 6, 7, 8, 9, 10, 12, 13, 14, 16, 17, 18, 19, 21, 23, 25, 26, 27, 29]",246.5462115,4922,1585,6,130,11,1.130933077698322
basic,19,27,0,0,0,17,"[0, 15, 24, 17]",4,15,"[1, 6, 8, 10, 12, 13, 14, 16, 18, 19, 23, 25, 26, 27, 29]",229.9932662,6155,1233,4,60,11,1.1285538435963374
basic,19,27,0,0,0,12,"[0, 15, 24, 17, 12]",5,14,"[1, 6, 8, 10, 13, 14, 16, 18, 19, 23, 25, 26, 27, 29]",218.8129263,7234,1079,2,32,11,1.2561880288755216
basic,19,27,0,0,0,10,"[0, 15, 24, 17, 12, 10]",6,11,"[1, 8, 13, 14, 18, 19, 23, 25, 26, 27, 29]",207.7675653,8204,970,2,28,11,1.2228289337766665
basic,19,27,0,0,0,13,"[0, 15, 24, 17, 12, 10, 13]",7,9,"[1, 8, 14, 18, 19, 23, 26, 27, 29]",167.9178476,9734,1530,2,18,11,1.3421291994761178
basic,19,27,0,0,0,19,"[0, 15, 24, 17, 12, 10, 13, 19]",8,5,"[1, 8, 14, 23, 29]",131.6825057,11131,1397,2,6,11,1.294749956153846
basic,19,27,0,0,0,8,"[0, 15, 24, 17, 12, 10, 13, 19, 8]",9,3,"[14, 23, 29]",116.816437,12122,991,2,1,11,1.3554286578836865
basic,19,27,0,0,0,29,"[0, 15, 24, 17, 12, 10, 13, 19, 8, 29]",10,1,[14],57.61339652,13632,1510,1,0,11,1.248354519573802
basic,19,27,0,0,1,14,"[0, 15, 24, 17, 12, 10, 13, 19, 8, 29, 14]",11,0,[],13.31892734,15450,1818,1,0,11,1.562811097555156
basic,19,27,0,1,1,14,"[0, 15, 24, 17, 12, 10, 13, 19, 8, 29, 14]",11,0,[],13.31892734,16773,1323,1,0,11,1.562811097555156
basic,20,28,0,0,0,0,[0],1,27,"[1, 2, 3, 4, 5, 6, 7, 8, 9, 10, 11, 12, 13, 14, 15, 16, 17, 18, 19, 20, 22, 23, 25, 26, 27, 28, 29]",300,197,-1,2,96,9,0.0
basic,20,28,0,0,0,3,"[0, 3]",2,26,"[1, 2, 4, 5, 6, 7, 8, 9, 10, 11, 12, 13, 14, 15, 16, 17, 18, 19, 20, 22, 23, 25, 26, 27, 28, 29]",251.0817008,4120,3923,1,64,9,1.0
basic,20,28,0,0,0,20,"[0, 3, 20]",3,20,"[2, 4, 5, 6, 7, 8, 9, 10, 11, 12, 13, 14, 15, 16, 18, 19, 22, 23, 26, 28]",209.7416475,6320,2200,2,29,8,1.6703057504555512
basic,20,28,0,0,0,15,"[0, 3, 20, 15]",4,10,"[5, 6, 8, 9, 10, 16, 22, 23, 26, 28]",157.2440286,7754,1434,1,6,7,1.4376587969564578
basic,20,28,0,0,0,23,"[0, 3, 20, 15, 23]",5,2,"[16, 22]",88.73855432,9287,1533,2,0,6,1.269324093812023
basic,20,28,0,0,1,16,"[0, 3, 20, 15, 23, 16]",6,0,[],48.42726558,10520,1233,1,0,6,1.2537020201649651
basic,20,28,0,1,1,16,"[0, 3, 20, 15, 23, 16]",6,0,[],48.42726558,12843,2323,1,0,6,1.2537020201649651
basic,21,4,0,0,0,0,[0],1,26,"[3, 4, 5, 6, 7, 8, 10, 11, 12, 13, 14, 15, 16, 17, 18, 19, 20, 21, 22, 23, 24, 25, 26, 27, 28, 29]",300,166,-1,4,489,10,0.0
basic,21,4,0,0,0,28,"[0, 28]",2,21,"[3, 4, 5, 6, 10, 11, 12, 13, 14, 15, 16, 17, 19, 20, 21, 22, 23, 24, 25, 26, 27]",225.9392142,2850,2684,2,216,10,1.0
basic,21,4,0,0,0,14,"[0, 28, 14]",3,13,"[3, 4, 5, 6, 11, 13, 16, 17, 20, 21, 22, 24, 25]",159.6972335,5883,3033,1,26,10,1.0273973946789214
basic,21,4,0,0,0,25,"[0, 28, 14, 25]",4,12,"[3, 4, 5, 6, 11, 13, 16, 17, 20, 21, 22, 24]",143.572718,7468,1585,1,25,10,1.233547772313525
basic,21,4,0,0,0,11,"[0, 28, 14, 25, 11]",5,10,"[3, 4, 5, 6, 13, 16, 17, 20, 21, 22]",124.7844238,9500,2032,1,15,10,1.425978575879479
basic,21,4,0,0,0,16,"[0, 28, 14, 25, 11, 16]",6,9,"[3, 4, 5, 6, 13, 17, 20, 21, 22]",109.7844238,10505,1005,1,12,10,1.3799325158051412
basic,21,4,0,0,0,3,"[0, 28, 14, 25, 11, 16, 3]",7,2,"[17, 20]",68.15510719,14266,3761,1,1,9,1.3292844629725955
basic,21,4,0,0,0,17,"[0, 28, 14, 25, 11, 16, 3, 17]",8,1,[20],43.63980585,17052,2786,1,0,9,1.5639571149270572
basic,21,4,0,0,1,20,"[0, 28, 14, 25, 11, 16, 3, 17, 20]",9,0,[],3.415435124,19650,2598,1,0,9,1.6231058358944275
basic,21,4,0,1,1,20,"[0, 28, 14, 25, 11, 16, 3, 17, 20]",9,0,[],3.415435124,21439,1789,1,0,9,1.6231058358944275
basic,22,20,0,0,0,0,[0],1,21,"[1, 2, 3, 4, 5, 6, 7, 8, 9, 12, 17, 18, 20, 21, 22, 23, 25, 26, 27, 28, 29]",300,162,-1,1,9,9,0.0
basic,22,20,0,0,0,12,"[0, 12]",2,20,"[1, 2, 3, 4, 5, 6, 7, 8, 9, 17, 18, 20, 21, 22, 23, 25, 26, 27, 28, 29]",271.5570747,5390,5228,1,8,9,1.0
basic,22,20,0,0,0,1,"[0, 12, 1]",3,12,"[3, 4, 5, 6, 8, 9, 20, 21, 23, 27, 28, 29]",189.5692707,8585,3195,1,6,9,1.0757997779162911
basic,22,20,0,0,0,5,"[0, 12, 1, 5]",4,10,"[4, 6, 8, 9, 20, 21, 23, 27, 28, 29]",152.8950291,10135,1550,1,5,9,1.1708231454516806
basic,22,20,0,0,0,8,"[0, 12, 1, 5, 8]",5,6,"[6, 9, 21, 23, 27, 28]",93.43075409,12803,2668,1,8,8,1.1236883136722313
basic,22,20,0,0,0,23,"[0, 12, 1, 5, 8, 23]",6,2,"[6, 9]",48.74294815,15453,2650,1,1,8,1.1030554610648977
basic,22,20,0,0,0,9,"[0, 12, 1, 5, 8, 23, 9]",7,1,[6],29.53357544,18068,2615,1,0,8,1.0965255541175696
basic,22,20,0,0,1,6,"[0, 12, 1, 5, 8, 23, 9, 6]",8,0,[],6.511846569,19634,1566,1,0,8,1.1073053837461198
basic,22,20,0,1,1,6,"[0, 12, 1, 5, 8, 23, 9, 6]",8,0,[],6.511846569,20707,1073,1,0,8,1.1073053837461198
undo,23,31,0,0,0,0,[0],1,27,"[1, 3, 4, 5, 6, 7, 8, 10, 11, 12, 13, 14, 15, 16, 17, 18, 19, 20, 21, 22, 23, 24, 25, 26, 27, 28, 29]",300,211,-1,2,87,10,0.0
undo,23,31,0,0,0,14,"[0, 14]",2,25,"[1, 3, 5, 6, 7, 8, 10, 11, 12, 13, 15, 16, 17, 18, 19, 20, 21, 22, 23, 24, 25, 26, 27, 28, 29]",263.861378,3292,3081,2,59,10,1.0
undo,23,31,0,0,0,27,"[0, 14, 27]",3,22,"[1, 3, 5, 6, 7, 8, 10, 11, 12, 13, 15, 16, 17, 18, 19, 20, 21, 22, 24, 25, 28, 29]",235.6833724,4929,1637,1,39,10,1.5881859159302467
undo,23,31,0,0,0,8,"[0, 14, 27, 8]",4,20,"[1, 3, 5, 6, 7, 10, 11, 12, 13, 16, 17, 18, 19, 20, 21, 22, 24, 25, 28, 29]",224.6380114,6290,1361,1,36,10,2.1665048452331277
undo,23,31,0,0,0,11,"[0, 14, 27, 8, 11]",5,13,"[1, 5, 7, 12, 13, 16, 17, 18, 19, 20, 22, 25, 28]",173.3934995,8457,2167,7,41,9,2.0680270430571026
undo,23,31,0,0,0,18,"[0, 14, 27, 8, 11, 18]",6,12,"[1, 5, 7, 12, 13, 16, 17, 19, 20, 22, 25, 28]",138.5079724,12345,3888,5,9,9,2.50835395439338
undo,23,31,0,0,0,17,"[0, 14, 27, 8, 11, 18, 17]",7,6,"[1, 5, 12, 22, 25, 28]",109.3018087,13773,1428,4,2,9,2.1066801061614195
undo,23,31,0,0,0,25,"[0, 14, 27, 8, 11, 18, 17, 25]",8,1,[12],48.86175571,16927,3154,1,0,9,1.740953809415273
undo,23,31,0,0,1,12,"[0, 14, 27, 8, 11, 18, 17, 25, 12]",9,0,[],18.26763863,19278,2351,1,0,9,1.6236356164288444
undo,23,31,0,1,1,12,"[0, 14, 27, 8, 11, 18, 17, 25, 12]",9,0,[],18.26763863,20446,1168,1,0,9,1.6236356164288444
undo,24,33,0,0,0,0,[0],1,23,"[1, 2, 5, 7, 8, 11, 12, 13, 14, 15, 16, 17, 18, 19, 20, 21, 23, 24, 25, 26, 27, 28, 29]",300,161,-1,5,108,9,0.0
undo,24,33,0,0,0,8,"[0, 8]",2,22,"[1, 2, 5, 7, 11, 12, 13, 14, 15, 16, 17, 18, 19, 20, 21, 23, 24, 25, 26, 27, 28, 29]",265.8679037,5321,5160,5,87,9,1.0
undo,24,33,0,0,0,27,"[0, 8, 27]",3,6,"[5, 16, 19, 21, 23, 25]",172.3906337,10241,4920,2,5,5,1.1120034973992803
undo,24,33,0,0,0,25,"[0, 8, 27, 25]",4,2,"[5, 23]",120.7669957,12537,2296,2,0,5,1.0777241092063088
undo,24,33,0,0,1,23,"[0, 8, 27, 25, 23]",5,0,[],53.40231653,15138,2601,1,0,5,1.0653783070933391
undo,24,33,1,0,0,25,"[0, 8, 27, 25]",4,2,"[5, 23]",120.7669957,16760,1622,2,0,5,1.0777241092063088
undo,24,33,1,0,0,27,"[0, 8, 27]",3,6,"[5, 16, 19, 21, 23, 25]",172.3906337,17026,266,2,5,5,1.1120034973992803
undo,24,33,1,0,0,8,"[0, 8]",2,22,"[1, 2, 5, 7, 11, 12, 13, 14, 15, 16, 17, 18, 19, 20, 21, 23, 24, 25, 26, 27, 28, 29]",265.8679037,17193,167,5,87,9,1.0
undo,24,33,0,0,0,21,"[0, 8, 21]",3,16,"[2, 5, 7, 11, 13, 14, 16, 17, 18, 19, 20, 24, 26, 27, 28, 29]",166.0430571,30041,12848,5,80,9,1.0670557763739492
undo,24,33,0,0,0,17,"[0, 8, 21, 17]",4,11,"[2, 7, 11, 13, 14, 16, 19, 20, 24, 26, 29]",127.4036989,31685,1644,1,18,9,1.0830294710276618
undo,24,33,0,0,0,13,"[0, 8, 21, 17, 13]",5,10,"[2, 7, 11, 14, 16, 19, 20, 24, 26, 29]",104.6001904,34003,2318,1,10,9,1.2861654105061844
undo,24,33,0,0,0,19,"[0, 8, 21, 17, 13, 19]",6,6,"[7, 14, 16, 24, 26, 29]",79.10509282,35285,1282,1,6,9,1.3181942666818214
undo,24,33,0,0,0,7,"[0, 8, 21, 17, 13, 19, 7]",7,3,"[14, 24, 26]",33.48711391,40518,5233,1,2,9,1.25064167844248
undo,24,33,0,0,0,14,"[0, 8, 21, 17, 13, 19, 7, 14]",8,1,[26],18.62104516,47217,6699,1,0,9,1.297007778404226
undo,24,33,0,0,1,26,"[0, 8, 21, 17, 13, 19, 7, 14, 26]",9,0,[],5.971934519,48583,1366,1,0,9,1.2996231319325615
undo,24,33,0,1,1,26,"[0, 8, 21, 17, 13, 19, 7, 14, 26]",9,0,[],5.971934519,49440,857,1,0,9,1.2996231319325615
undo,25,18,0,0,0,0,[0],1,28,"[1, 2, 3, 4, 5, 6, 7, 8, 9, 10, 11, 12, 13, 14, 16, 17, 18, 19, 20, 21, 22, 23, 24, 25, 26, 27, 28, 29]",300,151,-1,3,136,10,0.0
undo,25,18,0,0,0,28,"[0, 28]",2,16,"[1, 3, 5, 7, 8, 9, 12, 13, 14, 16, 20, 23, 24, 25, 26, 27]",236.4311397,5711,5560,2,19,10,1.0
undo,25,18,0,0,0,7,"[0, 28, 7]",3,15,"[1, 3, 5, 8, 9, 12, 13, 14, 16, 20, 23, 24, 25, 26, 27]",214.4084242,7788,2077,2,17,10,1.4345180696367563
undo,25,18,0,0,0,25,"[0, 28, 7, 25]",4,13,"[1, 3, 5, 8, 9, 12, 13, 14, 16, 20, 23, 26, 27]",186.6055466,9533,1745,2,15,10,1.8896451241781882
undo,25,18,0,0,0,8,"[0, 28, 7, 25, 8]",5,10,"[3, 5, 9, 12, 13, 14, 16, 23, 26, 27]",149.551532,11272,1739,2,10,10,1.590467437592877
undo,25,18,0,0,0,3,"[0, 28, 7, 25, 8, 3]",6,6,"[5, 12, 13, 14, 23, 27]",121.4801943,12668,1396,1,10,9,1.4587755974793148
undo,25,18,0,0,0,13,"[0, 28, 7, 25, 8, 3, 13]",7,2,"[14, 23]",86.76708437,16267,3599,2,0,8,2.2683069203086266
undo,25,18,0,0,1,23,"[0, 28, 7, 25, 8, 3, 13, 23]",8,0,[],10.20991618,22683,6416,1,0,8,7.542934591363979
undo,25,18,0,1,1,23,"[0, 28, 7, 25, 8, 3, 13, 23]",8,0,[],10.20991618,23872,1189,1,0,8,7.542934591363979
undo,26,1,0,0,0,0,[0],1,26,"[1, 2, 4, 5, 7, 8, 9, 10, 11, 12, 13, 14, 15, 16, 17, 18, 19, 20, 21, 22, 23, 24, 25, 26, 28, 29]",300,166,-1,6,74,7,0.0
undo,26,1,0,0,0,14,"[0, 14]",2,19,"[1, 4, 5, 8, 9, 13, 15, 17, 18, 19, 20, 21, 22, 23, 24, 25, 26, 28, 29]",200.1901808,6385,6219,5,42,7,1.0
undo,26,1,0,0,0,8,"[0, 14, 8]",3,8,"[1, 5, 17, 18, 19, 20, 24, 26]",136.2996495,10735,4350,3,7,6,1.6704117397959184
undo,26,1,0,0,0,26,"[0, 14, 8, 26]",4,2,"[19, 24]",65.72344951,13973,3238,2,0,5,2.380559321996406
undo,26,1,0,0,1,24,"[0, 14, 8, 26, 24]",5,0,[],32.48190923,16354,2381,1,0,5,2.3346446828300693
undo,26,1,0,1,1,24,"[0, 14, 8, 26, 24]",5,0,[],32.48190923,17690,1336,1,0,5,2.3346446828300693
undo,27,13,0,0,0,0,[0],1,29,"[1, 2, 3, 4, 5, 6, 7, 8, 9, 10, 11, 12, 13, 14, 15, 16, 17, 18, 19, 20, 21, 22, 23, 24, 25, 26, 27, 28, 29]",300,166,-1,60,2676,11,0.0
undo,27,13,0,0,0,24,"[0, 24]",2,28,"[1, 2, 3, 4, 5, 6, 7, 8, 9, 10, 11, 12, 13, 14, 15, 16, 17, 18, 19, 20, 21, 22, 23, 25, 26, 27, 28, 29]",288.8196601,3186,3020,16,1444,11,1.0
undo,27,13,0,0,0,23,"[0, 24, 23]",3,27,"[1, 2, 3, 4, 5, 6, 7, 8, 9, 10, 11, 12, 13, 14, 15, 16, 17, 18, 19, 20, 21, 22, 25, 26, 27, 28, 29]",243.1140806,4551,1365,2,868,11,1.0065545717039834
undo,27,13,0,0,0,16,"[0, 24, 23, 16]",4,25,"[1, 2, 3, 4, 6, 7, 8, 9, 10, 11, 12, 13, 14, 15, 17, 18, 19, 20, 21, 22, 25, 26, 27, 28, 29]",202.8027918,7851,3300,1,145,11,1.055930143104189
undo,27,13,0,0,0,3,"[0, 24, 23, 16, 3]",5,20,"[2, 4, 6, 7, 8, 9, 10, 11, 13, 14, 15, 18, 20, 21, 22, 25, 26, 27, 28, 29]",174.3598665,10341,2490,3,44,10,1.233783650807853
undo,27,13,0,0,0,20,"[0, 24, 23, 16, 3, 20]",6,15,"[4, 6, 7, 8, 9, 11, 14, 18, 21, 22, 25, 26, 27, 28, 29]",155.3335689,11384,1043,7,15,9,1.3149320474556456
undo,27,13,0,0,0,4,"[0, 24, 23, 16, 3, 20, 4]",7,5,"[6, 8, 18, 25, 27]",133.3108534,12850,1466,2,4,9,1.2859964130018764
undo,27,13,0,0,0,27,"[0, 24, 23, 16, 3, 20, 4, 27]",8,2,"[8, 18]",111.2881379,15503,2653,2,0,9,1.3345945780156503
undo,27,13,0,0,1,18,"[0, 24, 23, 16, 3, 20, 4, 27, 18]",9,0,[],16.20922326,19239,3736,1,0,9,1.2000709670094927
undo,27,13,0,1,1,18,"[0, 24, 23, 16, 3, 20, 4, 27, 18]",9,0,[],16.20922326,20773,1534,1,0,9,1.2000709670094927
undo,28,30,0,0,0,0,[0],1,19,"[3, 4, 5, 7, 9, 11, 16, 17, 18, 19, 20, 21, 22, 24, 25, 26, 27, 28, 29]",300,160,-1,5,41,8,0.0
undo,28,30,0,0,0,25,"[0, 25]",2,12,"[3, 5, 7, 9, 11, 16, 18, 19, 20, 24, 27, 29]",121.1005869,6968,6808,7,37,7,1.0
undo,28,30,0,0,0,27,"[0, 25, 27]",3,8,"[3, 5, 7, 18, 19, 20, 24, 29]",81.54050603,9622,2654,2,17,7,1.0432445497342653
undo,28,30,0,0,0,3,"[0, 25, 27, 3]",4,5,"[5, 7, 18, 20, 29]",62.43553286,10909,1287,2,6,7,1.0419393955972533
undo,28,30,0,0,0,5,"[0, 25, 27, 3, 5]",5,2,"[18, 29]",37.59604816,13369,2460,1,1,7,1.0851479881849022
undo,28,30,0,0,0,18,"[0, 25, 27, 3, 5, 18]",6,1,[29],24.55764335,15134,1765,1,0,7,1.1277261743026177
undo,28,30,0,0,1,29,"[0, 25, 27, 3, 5, 18, 29]",7,0,[],5.244435434,17935,2801,1,0,7,1.210691681041309
undo,28,30,0,1,1,29,"[0, 25, 27, 3, 5, 18, 29]",7,0,[],5.244435434,19025,1090,1,0,7,1.210691681041309
undo,29,36,0,0,0,0,[0],1,24,"[2, 4, 5, 6, 7, 8, 9, 10, 12, 13, 14, 15, 16, 17, 18, 19, 20, 22, 23, 25, 26, 27, 28, 29]",300,158,-1,2,200,10,0.0
undo,29,36,0,0,0,12,"[0, 12]",2,23,"[2, 4, 5, 6, 7, 8, 9, 10, 13, 14, 15, 16, 17, 18, 19, 20, 22, 23, 25, 26, 27, 28, 29]",277.7963967,2883,2725,90,804,9,1.0
undo,29,36,0,0,0,9,"[0, 12, 9]",3,14,"[2, 4, 8, 10, 13, 16, 17, 18, 19, 23, 25, 27, 28, 29]",215.4345494,5184,2301,32,191,9,1.224429481246385
undo,29,36,0,0,0,16,"[0, 12, 9, 16]",4,8,"[2, 10, 13, 17, 18, 19, 23, 25]",168.137615,8051,2867,7,26,9,1.235383731443557
undo,29,36,0,0,0,17,"[0, 12, 9, 16, 17]",5,6,"[2, 10, 13, 18, 19, 25]",139.8180105,9586,1535,7,14,9,1.6947865799475665
undo,29,36,0,0,0,19,"[0, 12, 9, 16, 17, 19]",6,5,"[2, 10, 13, 18, 25]",111.9253591,11084,1498,6,1,9,2.440059772477113
undo,29,36,0,0,0,2,"[0, 12, 9, 16, 17, 19, 2]",7,2,"[13, 25]",74.80393675,12940,1856,2,0,9,1.994135267441798
undo,29,36,0,0,0,25,"[0, 12, 9, 16, 17, 19, 2, 25]",8,1,[13],49.80393675,14437,1497,1,0,9,2.1853059870598197
undo,29,36,0,0,1,13,"[0, 12, 9, 16, 17, 19, 2, 25, 13]",9,0,[],29.21267647,16534,2097,1,0,9,2.7608371719978186
undo,29,36,1,0,0,25,"[0, 12, 9, 16, 17, 19, 2, 25]",8,1,[13],49.80393675,19191,2657,1,0,9,2.1853059870598197
undo,29,36,1,0,0,2,"[0, 12, 9, 16, 17, 19, 2]",7,2,"[13, 25]",74.80393675,19373,182,2,0,9,1.994135267441798
undo,29,36,1,0,0,19,"[0, 12, 9, 16, 17, 19]",6,5,"[2, 10, 13, 18, 25]",111.9253591,19590,217,6,1,9,2.440059772477113
undo,29,36,1,0,0,17,"[0, 12, 9, 16, 17]",5,6,"[2, 10, 13, 18, 19, 25]",139.8180105,19856,266,7,14,9,1.6947865799475665
undo,29,36,1,0,0,16,"[0, 12, 9, 16]",4,8,"[2, 10, 13, 17, 18, 19, 23, 25]",168.137615,20273,417,7,26,9,1.235383731443557
undo,29,36,1,0,0,9,"[0, 12, 9]",3,14,"[2, 4, 8, 10, 13, 16, 17, 18, 19, 23, 25, 27, 28, 29]",215.4345494,20791,518,32,191,9,1.224429481246385
undo,29,36,1,0,0,12,"[0, 12]",2,23,"[2, 4, 5, 6, 7, 8, 9, 10, 13, 14, 15, 16, 17, 18, 19, 20, 22, 23, 25, 26, 27, 28, 29]",277.7963967,21556,765,90,804,9,1.0
undo,29,36,1,0,0,0,[0],1,24,"[2, 4, 5, 6, 7, 8, 9, 10, 12, 13, 14, 15, 16, 17, 18, 19, 20, 22, 23, 25, 26, 27, 28, 29]",300,22956,1400,2,200,10,0.0
undo,29,36,0,0,0,18,"[0, 18]",2,21,"[2, 4, 5, 6, 7, 8, 9, 10, 12, 13, 14, 16, 17, 19, 22, 23, 25, 26, 27, 28, 29]",279.6039219,28600,5644,2,110,10,1.0
undo,29,36,0,0,0,9,"[0, 18, 9]",3,14,"[2, 4, 8, 10, 12, 13, 16, 17, 19, 23, 25, 27, 28, 29]",200.2944017,31183,2583,15,121,9,1.443644811653489
undo,29,36,0,0,0,16,"[0, 18, 9, 16]",4,7,"[2, 10, 12, 13, 17, 19, 25]",152.9974673,32516,1333,3,14,9,1.3772277619472717
undo,29,36,0,0,0,17,"[0, 18, 9, 16, 17]",5,6,"[2, 10, 12, 13, 19, 25]",124.6778628,35599,3083,3,10,9,1.854975120622322
undo,29,36,0,0,0,19,"[0, 18, 9, 16, 17, 19]",6,4,"[2, 12, 13, 25]",96.78521147,38250,2651,3,3,9,2.636486388019452
undo,29,36,0,0,0,2,"[0, 18, 9, 16, 17, 19, 2]",7,2,"[13, 25]",59.66378908,41014,2764,2,0,9,2.128202897165444
undo,29,36,0,0,0,25,"[0, 18, 9, 16, 17, 19, 2, 25]",8,1,[13],34.66378908,44831,3817,1,0,9,2.317545699061846
undo,29,36,0,0,1,13,"[0, 18, 9, 16, 17, 19, 2, 25, 13]",9,0,[],14.0725288,47398,2567,1,0,9,2.9151999461926064
undo,29,36,0,1,1,13,"[0, 18, 9, 16, 17, 19, 2, 25, 13]",9,0,[],14.0725288,48404,1006,1,0,9,2.9151999461926064
undo,30,22,0,0,0,0,[0],1,29,"[1, 2, 3, 4, 5, 6, 7, 8, 9, 10, 11, 12, 13, 14, 15, 16, 17, 18, 19, 20, 21, 22, 23, 24, 25, 26, 27, 28, 29]",300,172,-1,31,704,9,0.0
undo,30,22,0,0,0,16,"[0, 16]",2,21,"[1, 3, 6, 7, 8, 9, 11, 13, 14, 15, 17, 18, 19, 20, 21, 22, 24, 25, 27, 28, 29]",218.605897,4425,4253,17,147,9,1.0
undo,30,22,0,0,0,28,"[0, 16, 28]",3,13,"[6, 7, 9, 13, 14, 17, 19, 20, 21, 22, 24, 25, 29]",184.1675463,6053,1628,12,61,9,1.047282311284478
undo,30,22,0,0,0,6,"[0, 16, 28, 6]",4,12,"[7, 9, 13, 14, 17, 19, 20, 21, 22, 24, 25, 29]",154.1675463,7286,1233,12,43,9,1.645645870580622
undo,30,22,0,0,0,9,"[0, 16, 28, 6, 9]",5,8,"[7, 14, 17, 19, 20, 21, 24, 29]",127.5404924,9627,2341,8,17,9,1.925750226630103
undo,30,22,0,0,0,19,"[0, 16, 28, 6, 9, 19]",6,6,"[7, 14, 17, 21, 24, 29]",107.1444143,10968,1341,3,7,9,2.4220750331476455
undo,30,22,0,0,0,29,"[0, 16, 28, 6, 9, 19, 29]",7,4,"[7, 14, 17, 24]",92.11111796,12432,1464,2,2,9,2.6996279574991067
undo,30,22,0,0,0,7,"[0, 16, 28, 6, 9, 19, 29, 7]",8,1,[14],41.0327468,16866,4434,1,0,9,2.059125386946491
undo,30,22,1,0,0,29,"[0, 16, 28, 6, 9, 19, 29]",7,4,"[7, 14, 17, 24]",92.11111796,23190,6324,2,2,9,2.6996279574991067
undo,30,22,1,0,0,19,"[0, 16, 28, 6, 9, 19]",6,6,"[7, 14, 17, 21, 24, 29]",107.1444143,23756,566,3,7,9,2.4220750331476455
undo,30,22,0,0,0,14,"[0, 16, 28, 6, 9, 19, 14]",7,2,"[7, 17]",56.81549621,27217,3461,1,1,9,1.8772710320660593
undo,30,22,0,0,0,7,"[0, 16, 28, 6, 9, 19, 14, 7]",8,1,[17],43.7770914,29416,2199,1,0,9,2.0373042896202382
undo,30,22,0,0,1,17,"[0, 16, 28, 6, 9, 19, 14, 7, 17]",9,0,[],2.159787306,31169,1753,1,0,9,1.884724928206684
undo,30,22,0,1,1,17,"[0, 16, 28, 6, 9, 19, 14, 7, 17]",9,0,[],2.159787306,32756,1587,1,0,9,1.884724928206684
undo,31,44,0,0,0,0,[0],1,29,"[1, 2, 3, 4, 5, 6, 7, 8, 9, 10, 11, 12, 13, 14, 15, 16, 17, 18, 19, 20, 21, 22, 23, 24, 25, 26, 27, 28, 29]",300,164,-1,13,126,7,0.0
undo,31,44,0,0,0,11,"[0, 11]",2,18,"[4, 5, 6, 7, 8, 9, 12, 14, 16, 17, 19, 20, 22, 23, 24, 25, 26, 28]",152.7790776,6202,6038,5,34,7,1.0
undo,31,44,0,0,0,24,"[0, 11, 24]",3,13,"[4, 5, 7, 8, 9, 12, 14, 17, 20, 22, 23, 25, 28]",125.8532535,7688,1486,5,23,7,1.1588941745226709
undo,31,44,0,0,0,9,"[0, 11, 24, 9]",4,7,"[4, 7, 8, 12, 14, 20, 23]",93.09657483,11184,3496,2,8,7,1.3039383713641313
undo,31,44,0,0,0,4,"[0, 11, 24, 9, 4]",5,5,"[7, 12, 14, 20, 23]",73.39885923,12834,1650,2,3,7,1.2901330701441578
undo,31,44,0,0,0,7,"[0, 11, 24, 9, 4, 7]",6,1,[23],42.38273439,14601,1767,1,0,7,1.2468141312360979
undo,31,44,1,0,0,4,"[0, 11, 24, 9, 4]",5,5,"[7, 12, 14, 20, 23]",73.39885923,18374,3773,2,3,7,1.2901330701441578
undo,31,44,1,0,0,9,"[0, 11, 24, 9]",4,7,"[4, 7, 8, 12, 14, 20, 23]",93.09657483,18690,316,2,8,7,1.3039383713641313
undo,31,44,1,0,0,24,"[0, 11, 24]",3,13,"[4, 5, 7, 8, 9, 12, 14, 17, 20, 22, 23, 25, 28]",125.8532535,19123,433,5,23,7,1.1588941745226709
undo,31,44,1,0,0,11,"[0, 11]",2,18,"[4, 5, 6, 7, 8, 9, 12, 14, 16, 17, 19, 20, 22, 23, 24, 25, 26, 28]",152.7790776,19540,417,5,34,7,1.0
undo,31,44,0,0,0,14,"[0, 11, 14]",3,14,"[4, 5, 6, 7, 9, 12, 16, 17, 19, 22, 23, 24, 26, 28]",120.5765932,23135,3595,6,17,6,1.0032424984204007
undo,31,44,0,0,0,24,"[0, 11, 14, 24]",4,4,"[4, 7, 9, 23]",74.92574436,24570,1435,3,2,6,1.4978014171296756
undo,31,44,0,0,0,9,"[0, 11, 14, 24, 9]",5,1,[4],42.16906565,25755,1185,1,0,6,1.6248916534242954
undo,31,44,0,0,1,4,"[0, 11, 14, 24, 9, 4]",6,0,[],22.47135004,26966,1211,1,0,6,1.5800842308612977
undo,31,44,0,1,1,4,"[0, 11, 14, 24, 9, 4]",6,0,[],22.47135004,29389,2423,1,0,6,1.5800842308612977
undo,32,20,0,0,0,0,[0],1,21,"[1, 2, 3, 4, 5, 6, 7, 8, 9, 12, 17, 18, 20, 21, 22, 23, 25, 26, 27, 28, 29]",300,180,-1,1,9,9,0.0
undo,32,20,0,0,0,12,"[0, 12]",2,20,"[1, 2, 3, 4, 5, 6, 7, 8, 9, 17, 18, 20, 21, 22, 23, 25, 26, 27, 28, 29]",271.5570747,6076,5896,1,8,9,1.0
undo,32,20,0,0,0,5,"[0, 12, 5]",3,13,"[1, 3, 4, 6, 8, 9, 20, 21, 23, 26, 27, 28, 29]",171.4321527,10024,3948,2,19,8,1.0232843285905395
undo,32,20,0,0,0,21,"[0, 12, 5, 21]",4,10,"[1, 4, 6, 8, 9, 20, 23, 26, 27, 28]",126.4321527,12725,2701,2,12,8,1.017525191374897
undo,32,20,0,0,0,8,"[0, 12, 5, 21, 8]",5,6,"[1, 6, 9, 23, 27, 28]",108.9679035,15142,2417,2,6,8,1.0391698601004782
undo,32,20,0,0,0,27,"[0, 12, 5, 21, 8, 27]",6,2,"[9, 23]",68.7435328,18942,3800,2,0,7,1.215457006812467
undo,32,20,0,0,1,23,"[0, 12, 5, 21, 8, 27, 23]",7,0,[],16.73391831,20991,2049,1,0,7,1.2435798161364517
undo,32,20,1,0,0,27,"[0, 12, 5, 21, 8, 27]",6,2,"[9, 23]",68.7435328,26197,5206,2,0,7,1.215457006812467
undo,32,20,1,0,0,8,"[0, 12, 5, 21, 8]",5,6,"[1, 6, 9, 23, 27, 28]",108.9679035,26697,500,2,6,8,1.0391698601004782
undo,32,20,0,0,1,28,"[0, 12, 5, 21, 8, 28]",6,0,[],65.78225776,33224,6527,1,0,6,1.2203310546057888
undo,32,20,1,0,0,8,"[0, 12, 5, 21, 8]",5,6,"[1, 6, 9, 23, 27, 28]",108.9679035,37032,3808,2,6,8,1.0391698601004782
undo,32,20,0,0,0,23,"[0, 12, 5, 21, 8, 23]",6,3,"[6, 9, 27]",64.28009758,41926,4894,2,1,8,1.0348450868606567
undo,32,20,0,0,0,9,"[0, 12, 5, 21, 8, 23, 9]",7,1,[6],45.07072487,43173,1247,1,0,8,1.0335348098288684
undo,32,20,0,0,1,6,"[0, 12, 5, 21, 8, 23, 9, 6]",8,0,[],22.048996,44390,1217,1,0,8,1.0486850646228845
undo,32,20,0,1,1,6,"[0, 12, 5, 21, 8, 23, 9, 6]",8,0,[],22.048996,46212,1822,1,0,8,1.0486850646228845
undo,33,3,0,0,0,0,[0],1,29,"[1, 2, 3, 4, 5, 6, 7, 8, 9, 10, 11, 12, 13, 14, 15, 16, 17, 18, 19, 20, 21, 22, 23, 24, 25, 26, 27, 28, 29]",300,160,-1,34,427,10,0.0
undo,33,3,0,0,0,17,"[0, 17]",2,16,"[3, 4, 7, 8, 10, 12, 14, 15, 16, 19, 20, 21, 22, 24, 26, 27]",197.6965299,6074,5914,2,27,9,1.0
undo,33,3,0,0,0,20,"[0, 17, 20]",3,13,"[3, 4, 7, 8, 10, 14, 15, 16, 19, 21, 22, 24, 27]",185.0474192,7623,1549,2,24,9,1.0153332121237257
undo,33,3,0,0,0,3,"[0, 17, 20, 3]",4,10,"[4, 7, 8, 10, 14, 15, 16, 19, 21, 24]",164.6513412,9059,1436,2,22,9,1.0819240770773468
undo,33,3,0,0,0,19,"[0, 17, 20, 3, 19]",5,6,"[4, 8, 10, 14, 21, 24]",127.3150318,10503,1444,2,11,9,1.1701070532957258
undo,33,3,0,0,0,21,"[0, 17, 20, 3, 19, 21]",6,5,"[4, 8, 10, 14, 24]",115.1084762,11588,1085,2,6,9,1.202395500952127
undo,33,3,0,0,0,10,"[0, 17, 20, 3, 19, 21, 10]",7,2,"[4, 14]",65.77289062,14018,2430,2,0,8,1.4875535837212719
undo,33,3,0,0,1,4,"[0, 17, 20, 3, 19, 21, 10, 4]",8,0,[],11.94910406,15968,1950,1,0,8,2.5138355714752043
undo,33,3,0,1,1,4,"[0, 17, 20, 3, 19, 21, 10, 4]",8,0,[],11.94910406,17057,1089,1,0,8,2.5138355714752043
undo,34,17,0,0,0,0,[0],1,28,"[1, 2, 3, 4, 5, 6, 7, 8, 9, 10, 11, 12, 13, 14, 15, 16, 17, 18, 19, 20, 22, 23, 24, 25, 26, 27, 28, 29]",300,162,-1,2,73,8,0.0
undo,34,17,0,0,0,17,"[0, 17]",2,19,"[1, 2, 3, 5, 7, 8, 9, 10, 11, 12, 14, 16, 18, 19, 23, 25, 26, 27, 29]",194.4253818,10436,10274,3,56,7,1.0
undo,34,17,0,0,0,16,"[0, 17, 16]",3,14,"[1, 2, 3, 5, 7, 8, 9, 10, 11, 12, 18, 19, 27, 29]",152.7480499,12519,2083,1,17,7,1.6801659241413822
undo,34,17,0,0,0,9,"[0, 17, 16, 9]",4,11,"[2, 3, 5, 7, 8, 10, 11, 18, 19, 27, 29]",139.4063858,13786,1267,1,7,7,1.7949303623953352
undo,34,17,0,0,0,2,"[0, 17, 16, 9, 2]",5,4,"[7, 8, 10, 27]",117.4518874,15369,1583,1,3,7,1.7623725687018317
undo,34,17,0,0,0,8,"[0, 17, 16, 9, 2, 8]",6,1,[7],82.33778767,18084,2715,1,0,7,1.6262479200425692
undo,34,17,0,0,1,7,"[0, 17, 16, 9, 2, 8, 7]",7,0,[],11.62710955,20135,2051,1,0,7,1.5681242488340676
undo,34,17,0,1,1,7,"[0, 17, 16, 9, 2, 8, 7]",7,0,[],11.62710955,21207,1072,1,0,7,1.5681242488340676
undo,35,40,0,0,0,0,[0],1,29,"[1, 2, 3, 4, 5, 6, 7, 8, 9, 10, 11, 12, 13, 14, 15, 16, 17, 18, 19, 20, 21, 22, 23, 24, 25, 26, 27, 28, 29]",300,169,-1,8,191,9,0.0
undo,35,40,0,0,0,1,"[0, 1]",2,18,"[2, 5, 6, 7, 8, 9, 10, 11, 13, 15, 17, 18, 19, 21, 22, 23, 27, 29]",247.8463808,3569,3400,4,80,9,1.0
undo,35,40,0,0,0,6,"[0, 1, 6]",3,17,"[2, 5, 7, 8, 9, 10, 11, 13, 15, 17, 18, 19, 21, 22, 23, 27, 29]",227.7466295,5051,1482,4,74,9,1.0459427008232034
undo,35,40,0,0,0,21,"[0, 1, 6, 21]",4,8,"[2, 5, 9, 17, 18, 19, 22, 23]",175.7754837,7092,2041,4,25,9,1.0308822257404064
undo,35,40,0,0,0,9,"[0, 1, 6, 21, 9]",5,6,"[2, 5, 18, 19, 22, 23]",130.0699041,9150,2058,4,12,9,1.377861912961129
undo,35,40,0,0,0,18,"[0, 1, 6, 21, 9, 18]",6,5,"[2, 5, 19, 22, 23]",113.5169588,10557,1407,4,4,9,1.5742712168661408
undo,35,40,0,0,0,5,"[0, 1, 6, 21, 9, 18, 5]",7,3,"[19, 22, 23]",81.94165198,12084,1527,2,1,9,1.7730665063055515
undo,35,40,0,0,0,19,"[0, 1, 6, 21, 9, 18, 5, 19]",8,1,[23],43.86278645,13703,1619,1,0,9,2.4966727914503504
undo,35,40,0,0,1,23,"[0, 1, 6, 21, 9, 18, 5, 19, 23]",9,0,[],11.90969584,15339,1636,1,0,9,3.0374134989796913
undo,35,40,0,1,1,23,"[0, 1, 6, 21, 9, 18, 5, 19, 23]",9,0,[],11.90969584,17424,2085,1,0,9,3.0374134989796913
undo,36,35,0,0,0,0,[0],1,29,"[1, 2, 3, 4, 5, 6, 7, 8, 9, 10, 11, 12, 13, 14, 15, 16, 17, 18, 19, 20, 21, 22, 23, 24, 25, 26, 27, 28, 29]",300,165,-1,5,236,11,0.0
undo,36,35,0,0,0,27,"[0, 27]",2,27,"[1, 2, 4, 5, 6, 7, 8, 9, 10, 11, 12, 13, 14, 15, 16, 17, 18, 19, 20, 21, 22, 23, 24, 25, 26, 28, 29]",278.7867966,5976,5811,5,144,11,1.0
undo,36,35,0,0,0,2,"[0, 27, 2]",3,17,"[1, 5, 6, 7, 9, 10, 13, 15, 16, 17, 18, 19, 21, 23, 24, 26, 28]",217.43535,7925,1949,1,47,9,1.0198608620047263
undo,36,35,0,0,0,28,"[0, 27, 2, 28]",4,13,"[1, 5, 9, 10, 15, 16, 17, 18, 19, 21, 23, 24, 26]",171.8941598,9488,1563,1,43,9,2.196997034279233
undo,36,35,0,0,0,19,"[0, 27, 2, 28, 19]",5,7,"[1, 9, 15, 17, 18, 23, 24]",122.9758606,11239,1751,1,8,9,2.1510076450391287
undo,36,35,0,0,0,24,"[0, 27, 2, 28, 19, 24]",6,3,"[1, 15, 17]",48.64551685,13704,2465,3,1,8,8.10399379221155
undo,36,35,0,0,0,17,"[0, 27, 2, 28, 19, 24, 17]",7,1,[1],36.94081693,14906,1202,1,0,8,6.632680930353522
undo,36,35,0,0,1,1,"[0, 27, 2, 28, 19, 24, 17, 1]",8,0,[],21.12942863,16193,1287,1,0,8,5.833908110418006
undo,36,35,1,0,0,17,"[0, 27, 2, 28, 19, 24, 17]",7,1,[1],36.94081693,22309,6116,1,0,8,6.632680930353522
undo,36,35,1,0,0,24,"[0, 27, 2, 28, 19, 24]",6,3,"[1, 15, 17]",48.64551685,23126,817,3,1,8,8.10399379221155
undo,36,35,0,0,1,15,"[0, 27, 2, 28, 19, 24, 15]",7,0,[],16.44303247,28370,5244,1,0,7,5.101893269678665
undo,36,35,1,0,0,24,"[0, 27, 2, 28, 19, 24]",6,3,"[1, 15, 17]",48.64551685,31375,3005,3,1,8,8.10399379221155
undo,36,35,0,0,0,17,"[0, 27, 2, 28, 19, 24, 17]",7,1,[1],36.94081693,34090,2715,1,0,8,6.632680930353522
undo,36,35,0,0,1,1,"[0, 27, 2, 28, 19, 24, 17, 1]",8,0,[],21.12942863,35334,1244,1,0,8,5.833908110418006
undo,36,35,0,1,1,1,"[0, 27, 2, 28, 19, 24, 17, 1]",8,0,[],21.12942863,38558,3224,1,0,8,5.833908110418006
undo,37,42,0,0,0,0,[0],1,29,"[1, 2, 3, 4, 5, 6, 7, 8, 9, 10, 11, 12, 13, 14, 15, 16, 17, 18, 19, 20, 21, 22, 23, 24, 25, 26, 27, 28, 29]",300,157,-1,16,302,9,0.0
undo,37,42,0,0,0,3,"[0, 3]",2,25,"[1, 2, 4, 5, 6, 7, 8, 9, 10, 11, 13, 15, 17, 18, 19, 20, 21, 22, 23, 24, 25, 26, 27, 28, 29]",255.7959278,7056,6899,3,45,9,1.0
undo,37,42,0,0,0,4,"[0, 3, 4]",3,23,"[1, 2, 5, 6, 7, 8, 9, 10, 11, 13, 15, 17, 18, 19, 20, 21, 22, 23, 24, 25, 26, 27, 29]",165.3691618,8867,1811,1,16,9,1.4881105916904676
undo,37,42,0,0,0,5,"[0, 3, 4, 5]",4,16,"[1, 2, 7, 8, 11, 15, 18, 19, 20, 21, 22, 24, 25, 26, 27, 29]",145.5197286,12038,3171,4,16,8,1.4210828752019482
undo,37,42,0,0,0,22,"[0, 3, 4, 5, 22]",5,8,"[1, 7, 8, 11, 24, 25, 26, 29]",117.2885402,13967,1929,2,4,8,2.0622008385158357
undo,37,42,0,0,0,8,"[0, 3, 4, 5, 22, 8]",6,3,"[1, 7, 26]",95.15259655,15817,1850,2,2,8,1.9052481402159822
undo,37,42,0,0,0,1,"[0, 3, 4, 5, 22, 8, 1]",7,2,"[7, 26]",46.06084572,21971,6154,2,0,8,1.630698971966577
undo,37,42,0,0,1,7,"[0, 3, 4, 5, 22, 8, 1, 7]",8,0,[],16.06084572,23487,1516,1,0,8,1.6390503192779085
undo,37,42,0,1,1,7,"[0, 3, 4, 5, 22, 8, 1, 7]",8,0,[],16.06084572,26072,2585,1,0,8,1.6390503192779085
undo,38,43,0,0,0,0,[0],1,23,"[1, 2, 3, 4, 5, 6, 7, 9, 10, 11, 12, 14, 15, 16, 17, 19, 20, 21, 22, 23, 25, 27, 29]",300,161,-1,16,556,12,0.0
undo,38,43,0,0,0,29,"[0, 29]",2,22,"[1, 2, 3, 4, 5, 6, 7, 9, 10, 11, 12, 14, 15, 16, 17, 19, 20, 21, 22, 23, 25, 27]",277.909278,3538,3377,16,520,12,1.0
undo,38,43,0,0,0,20,"[0, 29, 20]",3,20,"[1, 2, 3, 4, 6, 7, 9, 10, 11, 12, 14, 15, 16, 17, 19, 21, 22, 23, 25, 27]",254.4785289,5048,1510,15,422,12,1.082311746871282
undo,38,43,0,0,0,16,"[0, 29, 20, 16]",4,19,"[1, 2, 3, 4, 6, 7, 9, 10, 11, 12, 14, 15, 17, 19, 21, 22, 23, 25, 27]",231.8511119,7273,2225,15,389,12,1.215201926898219
undo,38,43,0,0,0,25,"[0, 29, 20, 16, 25]",5,14,"[1, 2, 3, 4, 6, 7, 9, 11, 12, 14, 15, 19, 22, 23]",175.7708124,11553,4280,53,282,11,1.566384303308987
undo,38,43,0,0,0,15,"[0, 29, 20, 16, 25, 15]",6,13,"[1, 2, 3, 4, 6, 7, 9, 11, 12, 14, 19, 22, 23]",153.0992443,12918,1365,27,108,11,1.776736412604812
undo,38,43,0,0,0,12,"[0, 29, 20, 16, 25, 15, 12]",7,10,"[1, 3, 6, 7, 9, 11, 14, 19, 22, 23]",133.7860364,14306,1388,21,41,11,1.6813323012225032
undo,38,43,0,0,0,3,"[0, 29, 20, 16, 25, 15, 12, 3]",8,9,"[1, 6, 7, 9, 11, 14, 19, 22, 23]",120.7860364,15639,1333,20,12,11,1.608740348096123
undo,38,43,0,0,0,22,"[0, 29, 20, 16, 25, 15, 12, 3, 22]",9,6,"[1, 6, 7, 11, 14, 19]",86.07292644,17849,2210,9,2,11,1.793657891802588
undo,38,43,0,0,0,19,"[0, 29, 20, 16, 25, 15, 12, 3, 22, 19]",10,3,"[1, 6, 7]",65.45739831,19516,1667,3,0,11,1.6882745891803936
undo,38,43,0,0,1,1,"[0, 29, 20, 16, 25, 15, 12, 3, 22, 19, 1]",11,0,[],37.2793927,21900,2384,1,0,11,1.825064866046553
undo,38,43,0,1,1,1,"[0, 29, 20, 16, 25, 15, 12, 3, 22, 19, 1]",11,0,[],37.2793927,27839,5939,1,0,11,1.825064866046553
undo,39,19,0,0,0,0,[0],1,29,"[1, 2, 3, 4, 5, 6, 7, 8, 9, 10, 11, 12, 13, 14, 15, 16, 17, 18, 19, 20, 21, 22, 23, 24, 25, 26, 27, 28, 29]",300,158,-1,12,149,8,0.0
undo,39,19,0,0,0,16,"[0, 16]",2,13,"[1, 2, 3, 5, 8, 12, 13, 15, 17, 19, 23, 25, 29]",194.2408396,4056,3898,1,26,7,1.0
undo,39,19,0,0,0,12,"[0, 16, 12]",3,10,"[1, 2, 3, 8, 13, 17, 19, 23, 25, 29]",126.5651424,5977,1921,1,12,7,1.450081650625254
undo,39,19,0,0,0,17,"[0, 16, 12, 17]",4,6,"[1, 2, 3, 8, 23, 25]",106.4405306,7267,1290,1,5,7,1.3965315142886428
undo,39,19,0,0,0,25,"[0, 16, 12, 17, 25]",5,5,"[1, 2, 3, 8, 23]",95.39516956,8353,1086,1,4,7,1.5003967468312378
undo,39,19,0,0,0,23,"[0, 16, 12, 17, 25, 23]",6,1,[3],25.75322818,12085,3732,1,0,7,1.5252417053127876
undo,39,19,0,0,1,3,"[0, 16, 12, 17, 25, 23, 3]",7,0,[],3.821515977,13283,1198,1,0,7,1.4696738618286642
undo,39,19,0,1,1,3,"[0, 16, 12, 17, 25, 23, 3]",7,0,[],3.821515977,15461,2178,1,0,7,1.4696738618286642
undo,40,39,0,0,0,0,[0],1,28,"[1, 2, 3, 4, 5, 6, 7, 9, 10, 11, 12, 13, 14, 15, 16, 17, 18, 19, 20, 21, 22, 23, 24, 25, 26, 27, 28, 29]",300,169,-1,1,30,10,0.0
undo,40,39,0,0,0,29,"[0, 29]",2,26,"[1, 2, 3, 4, 5, 6, 7, 9, 10, 12, 13, 14, 15, 16, 17, 18, 19, 20, 21, 22, 23, 24, 25, 26, 27, 28]",243.0614366,3334,3165,8,104,9,1.0
undo,40,39,0,0,0,12,"[0, 29, 12]",3,18,"[1, 2, 4, 5, 7, 9, 10, 13, 14, 15, 16, 18, 19, 22, 23, 24, 26, 28]",182.5221931,5149,1815,5,54,9,1.0026200331524904
undo,40,39,0,0,0,10,"[0, 29, 12, 10]",4,16,"[1, 2, 4, 5, 7, 9, 13, 14, 15, 16, 18, 19, 22, 23, 24, 26]",147.0116313,6415,1266,5,34,9,1.2874817019928908
undo,40,39,0,0,0,7,"[0, 29, 12, 10, 7]",5,10,"[1, 2, 5, 13, 16, 18, 19, 22, 24, 26]",113.5900814,9266,2851,4,12,9,1.2250826263866774
undo,40,39,0,0,0,26,"[0, 29, 12, 10, 7, 26]",6,5,"[1, 16, 18, 19, 22]",94.90853971,11216,1950,3,4,9,1.2697275353190085
undo,40,39,0,0,0,22,"[0, 29, 12, 10, 7, 26, 22]",7,2,"[16, 19]",77.18849457,12665,1449,2,0,9,1.438961743955176
undo,40,39,0,0,0,16,"[0, 29, 12, 10, 7, 26, 22, 16]",8,1,[19],42.18849457,14200,1535,1,0,9,1.3580882130477205
undo,40,39,0,0,1,19,"[0, 29, 12, 10, 7, 26, 22, 16, 19]",9,0,[],24.72424537,15974,1774,1,0,9,1.3646589157842668
undo,40,39,0,1,1,19,"[0, 29, 12, 10, 7, 26, 22, 16, 19]",9,0,[],24.72424537,17821,1847,1,0,9,1.3646589157842668
undo,41,32,0,0,0,0,[0],1,29,"[1, 2, 3, 4, 5, 6, 7, 8, 9, 10, 11, 12, 13, 14, 15, 16, 17, 18, 19, 20, 21, 22, 23, 24, 25, 26, 27, 28, 29]",300,158,-1,17,359,10,0.0
undo,41,32,0,0,0,19,"[0, 19]",2,28,"[1, 2, 3, 4, 5, 6, 7, 8, 9, 10, 11, 12, 13, 14, 15, 16, 17, 18, 20, 21, 22, 23, 24, 25, 26, 27, 28, 29]",283.5075775,2734,2576,16,294,10,1.0
undo,41,32,0,0,0,13,"[0, 19, 13]",3,24,"[2, 3, 4, 5, 6, 8, 9, 10, 11, 12, 14, 15, 16, 17, 18, 20, 21, 22, 23, 24, 25, 26, 27, 28]",260.3127505,3838,1104,14,227,10,1.0172874229878615
undo,41,32,0,0,0,15,"[0, 19, 13, 15]",4,18,"[2, 3, 5, 8, 9, 10, 11, 12, 16, 17, 20, 22, 23, 24, 25, 26, 27, 28]",177.4393531,5304,1466,9,116,10,1.435447391509833
undo,41,32,0,0,0,28,"[0, 19, 13, 15, 28]",5,17,"[2, 3, 5, 8, 9, 10, 11, 12, 16, 17, 20, 22, 23, 24, 25, 26, 27]",166.0375988,6468,1164,9,70,10,1.3843701324937985
undo,41,32,0,0,0,12,"[0, 19, 13, 15, 28, 12]",6,14,"[2, 3, 5, 8, 9, 10, 11, 16, 17, 20, 22, 24, 26, 27]",147.0639329,8080,1612,6,35,10,1.358372254952329
undo,41,32,0,0,0,16,"[0, 19, 13, 15, 28, 12, 16]",7,13,"[2, 3, 5, 8, 9, 10, 11, 17, 20, 22, 24, 26, 27]",131.411457,10468,2388,5,15,10,1.4356932930709845
undo,41,32,0,0,0,22,"[0, 19, 13, 15, 28, 12, 16, 22]",8,6,"[2, 8, 9, 17, 20, 27]",97.57360838,13067,2599,3,5,10,1.4335226411545752
undo,41,32,0,0,0,9,"[0, 19, 13, 15, 28, 12, 16, 22, 9]",9,3,"[2, 8, 20]",75.37000507,14385,1318,3,0,10,1.4837166378374758
undo,41,32,0,0,1,2,"[0, 19, 13, 15, 28, 12, 16, 22, 9, 2]",10,0,[],24.28184597,22580,8195,1,0,10,1.9009621017233784
undo,41,32,0,1,1,2,"[0, 19, 13, 15, 28, 12, 16, 22, 9, 2]",10,0,[],24.28184597,23556,976,1,0,10,1.9009621017233784
undo,42,16,0,0,0,0,[0],1,29,"[1, 2, 3, 4, 5, 6, 7, 8, 9, 10, 11, 12, 13, 14, 15, 16, 17, 18, 19, 20, 21, 22, 23, 24, 25, 26, 27, 28, 29]",300,157,-1,13,161,9,0.0
undo,42,16,0,0,0,17,"[0, 17]",2,27,"[1, 2, 3, 4, 5, 7, 8, 9, 10, 11, 12, 13, 14, 15, 16, 18, 19, 20, 21, 22, 23, 24, 25, 26, 27, 28, 29]",241.3058776,3835,3678,2,58,9,1.0
undo,42,16,0,0,0,16,"[0, 17, 16]",3,26,"[1, 2, 3, 4, 5, 7, 8, 9, 10, 11, 12, 13, 14, 15, 18, 19, 20, 21, 22, 23, 24, 25, 26, 27, 28, 29]",212.9862731,5123,1288,2,52,9,1.0529535521792848
undo,42,16,0,0,0,21,"[0, 17, 16, 21]",4,19,"[3, 5, 7, 8, 9, 10, 12, 14, 15, 19, 20, 22, 23, 24, 25, 26, 27, 28, 29]",168.332046,6800,1677,9,18,8,1.5524765786046826
undo,42,16,0,0,0,8,"[0, 17, 16, 21, 8]",5,7,"[3, 5, 9, 12, 15, 20, 25]",119.0776046,8601,1801,9,6,8,1.458624751458944
undo,42,16,0,0,0,20,"[0, 17, 16, 21, 8, 20]",6,3,"[9, 15, 25]",61.30217727,13039,4438,4,1,8,1.3191752290945782
undo,42,16,0,0,0,25,"[0, 17, 16, 21, 8, 20, 25]",7,2,"[9, 15]",48.65306663,14318,1279,2,0,8,1.3641436248537882
undo,42,16,0,0,1,9,"[0, 17, 16, 21, 8, 20, 25, 9]",8,0,[],35.84681815,21736,7418,1,0,8,1.3406027753205443
undo,42,16,0,1,1,9,"[0, 17, 16, 21, 8, 20, 25, 9]",8,0,[],35.84681815,26974,5238,1,0,8,1.3406027753205443
undo,43,34,0,0,0,0,[0],1,25,"[1, 3, 4, 5, 6, 7, 8, 9, 10, 11, 12, 13, 15, 18, 19, 20, 21, 22, 23, 24, 25, 26, 27, 28, 29]",300,155,-1,12,367,10,0.0
undo,43,34,0,0,0,13,"[0, 13]",2,24,"[1, 3, 4, 5, 6, 7, 8, 9, 10, 11, 12, 15, 18, 19, 20, 21, 22, 23, 24, 25, 26, 27, 28, 29]",279.9750156,6917,6762,12,331,10,1.0
undo,43,34,0,0,0,1,"[0, 13, 1]",3,16,"[3, 5, 7, 8, 9, 10, 11, 12, 19, 21, 22, 23, 24, 25, 27, 29]",211.8574701,8467,1550,3,92,10,1.0010381285747127
undo,43,34,0,0,0,8,"[0, 13, 1, 8]",4,14,"[3, 5, 7, 9, 10, 11, 12, 19, 22, 23, 24, 25, 27, 29]",201.0871405,9702,1235,2,54,10,1.1636807
undo,43,34,0,0,0,25,"[0, 13, 1, 8, 25]",5,12,"[3, 5, 7, 9, 10, 11, 12, 22, 23, 24, 27, 29]",183.999133,10919,1217,2,28,10,1.1396208815936457
undo,43,34,0,0,0,24,"[0, 13, 1, 8, 25, 24]",6,11,"[3, 5, 7, 9, 10, 11, 12, 22, 23, 27, 29]",166.5062774,11983,1064,2,23,10,1.374180768736554
undo,43,34,0,0,0,12,"[0, 13, 1, 8, 25, 24, 12]",7,7,"[7, 9, 10, 11, 22, 23, 27]",115.4670767,14987,3004,1,8,10,1.4994254760835948
undo,43,34,0,0,0,7,"[0, 13, 1, 8, 25, 24, 12, 7]",8,5,"[9, 11, 22, 23, 27]",100.4337804,16349,1362,1,4,10,1.758992610425009
undo,43,34,0,0,0,23,"[0, 13, 1, 8, 25, 24, 12, 7, 23]",9,1,[27],72.27352467,17833,1484,1,0,10,2.399781305190153
undo,43,34,0,0,1,27,"[0, 13, 1, 8, 25, 24, 12, 7, 23, 27]",10,0,[],18.60789321,19666,1833,1,0,10,4.766619878750327
undo,43,34,0,1,1,27,"[0, 13, 1, 8, 25, 24, 12, 7, 23, 27]",10,0,[],18.60789321,21905,2239,1,0,10,4.766619878750327
undo,44,15,0,0,0,0,[0],1,25,"[1, 2, 3, 4, 7, 8, 9, 10, 11, 12, 13, 14, 15, 16, 18, 20, 21, 22, 23, 24, 25, 26, 27, 28, 29]",300,164,-1,4,65,9,0.0
undo,44,15,0,0,0,21,"[0, 21]",2,17,"[1, 3, 4, 7, 8, 9, 11, 12, 13, 14, 15, 16, 22, 23, 24, 26, 27]",204.9158268,4735,4571,21,65,7,1.0
undo,44,15,0,0,0,12,"[0, 21, 12]",3,14,"[1, 3, 4, 7, 8, 9, 11, 13, 14, 15, 16, 22, 24, 27]",161.0866128,6269,1534,20,39,7,1.6068212046294776
undo,44,15,0,0,0,7,"[0, 21, 12, 7]",4,10,"[3, 4, 9, 11, 13, 14, 15, 16, 22, 27]",127.8450725,8202,1933,13,11,7,2.0298522511797907
undo,44,15,0,0,0,16,"[0, 21, 12, 7, 16]",5,5,"[3, 4, 11, 15, 22]",84.18731258,11912,3710,3,3,7,1.8904046427013528
undo,44,15,0,0,0,3,"[0, 21, 12, 7, 16, 3]",6,2,"[11, 22]",59.10744017,13956,2044,2,0,7,1.8197292017789393
undo,44,15,0,0,1,22,"[0, 21, 12, 7, 16, 3, 22]",7,0,[],9.378173135,16667,2711,1,0,7,1.6845165609228017
undo,44,15,0,1,1,22,"[0, 21, 12, 7, 16, 3, 22]",7,0,[],9.378173135,17674,1007,1,0,7,1.6845165609228017
undo,45,14,0,0,0,0,[0],1,29,"[1, 2, 3, 4, 5, 6, 7, 8, 9, 10, 11, 12, 13, 14, 15, 16, 17, 18, 19, 20, 21, 22, 23, 24, 25, 26, 27, 28, 29]",300,164,-1,8,157,10,0.0
undo,45,14,0,0,0,15,"[0, 15]",2,20,"[1, 2, 3, 4, 7, 8, 9, 13, 17, 18, 19, 20, 21, 22, 23, 25, 26, 27, 28, 29]",216.7053423,2684,2520,8,102,10,1.0
undo,45,14,0,0,0,18,"[0, 15, 18]",3,13,"[1, 2, 4, 7, 8, 13, 17, 19, 20, 23, 25, 26, 28]",153.6418822,4618,1934,26,101,9,1.2185936334127205
undo,45,14,0,0,0,8,"[0, 15, 18, 8]",4,10,"[1, 2, 4, 7, 17, 19, 23, 25, 26, 28]",140.0404117,7356,2738,26,60,9,1.2207454945880838
undo,45,14,0,0,0,1,"[0, 15, 18, 8, 1]",5,9,"[2, 4, 7, 17, 19, 23, 25, 26, 28]",116.4395643,9637,2281,13,25,9,1.1871302560279655
undo,45,14,0,0,0,19,"[0, 15, 18, 8, 1, 19]",6,7,"[2, 4, 7, 17, 23, 25, 26]",101.208018,11434,1797,11,8,9,1.3443864386012363
undo,45,14,0,0,0,25,"[0, 15, 18, 8, 1, 19, 25]",7,4,"[4, 7, 23, 26]",65.36112139,14901,3467,5,1,9,1.4334990422586273
undo,45,14,0,0,0,23,"[0, 15, 18, 8, 1, 19, 25, 23]",8,1,[26],35.95023905,16567,1666,1,0,9,1.4047386182161943
undo,45,14,0,0,1,26,"[0, 15, 18, 8, 1, 19, 25, 23, 26]",9,0,[],25.13358522,18451,1884,1,0,9,1.3854252521381312
undo,45,14,1,0,0,23,"[0, 15, 18, 8, 1, 19, 25, 23]",8,1,[26],35.95023905,20790,2339,1,0,9,1.4047386182161943
undo,45,14,1,0,0,25,"[0, 15, 18, 8, 1, 19, 25]",7,4,"[4, 7, 23, 26]",65.36112139,21158,368,5,1,9,1.4334990422586273
undo,45,14,1,0,0,19,"[0, 15, 18, 8, 1, 19]",6,7,"[2, 4, 7, 17, 23, 25, 26]",101.208018,21558,400,11,8,9,1.3443864386012363
undo,45,14,0,0,0,25,"[0, 15, 18, 8, 1, 19, 25]",7,4,"[4, 7, 23, 26]",65.36112139,25767,4209,5,1,9,1.4334990422586273
undo,45,14,0,0,0,7,"[0, 15, 18, 8, 1, 19, 25, 7]",8,3,"[4, 23, 26]",45.66340578,28816,3049,3,0,9,1.456327102054342
undo,45,14,0,0,1,4,"[0, 15, 18, 8, 1, 19, 25, 7, 4]",9,0,[],9.928269012,31499,2683,1,0,9,1.3827841534243006
undo,45,14,0,1,1,4,"[0, 15, 18, 8, 1, 19, 25, 7, 4]",9,0,[],9.928269012,33122,1623,1,0,9,1.3827841534243006
undo,46,37,0,0,0,0,[0],1,29,"[1, 2, 3, 4, 5, 6, 7, 8, 9, 10, 11, 12, 13, 14, 15, 16, 17, 18, 19, 20, 21, 22, 23, 24, 25, 26, 27, 28, 29]",300,220,-1,6,168,10,0.0
undo,46,37,0,0,0,18,"[0, 18]",2,19,"[1, 2, 4, 6, 7, 9, 10, 12, 14, 15, 17, 19, 20, 21, 22, 23, 26, 28, 29]",202.4090168,16160,15940,6,89,10,1.0
undo,46,37,0,0,0,7,"[0, 18, 7]",3,12,"[1, 2, 4, 9, 15, 17, 19, 20, 21, 22, 26, 29]",175.2428614,17658,1498,6,53,10,1.0413073512834488
undo,46,37,0,0,0,22,"[0, 18, 7, 22]",4,8,"[1, 2, 4, 15, 19, 20, 21, 26]",125.2428614,19604,1946,6,29,10,1.0730792320325544
undo,46,37,0,0,0,4,"[0, 18, 7, 22, 4]",5,7,"[1, 2, 15, 19, 20, 21, 26]",100.2428614,20893,1289,4,16,10,1.2290245562206235
undo,46,37,0,0,0,2,"[0, 18, 7, 22, 4, 2]",6,5,"[1, 15, 19, 20, 21]",88.84110714,22105,1212,4,7,10,1.3968113858365216
undo,46,37,0,0,0,1,"[0, 18, 7, 22, 4, 2, 1]",7,4,"[15, 19, 20, 21]",71.63645661,23555,1450,4,3,10,1.4424239294761476
undo,46,37,0,0,0,20,"[0, 18, 7, 22, 4, 2, 1, 20]",8,3,"[15, 19, 21]",37.40197107,25060,1505,2,1,10,1.7518607796010042
undo,46,37,0,0,0,21,"[0, 18, 7, 22, 4, 2, 1, 20, 21]",9,1,[15],22.97976597,26072,1012,1,0,10,1.7849997782949483
undo,46,37,0,0,1,15,"[0, 18, 7, 22, 4, 2, 1, 20, 21, 15]",10,0,[],7.979765971,27707,1635,1,0,10,1.7549597142828803
undo,46,37,0,1,1,15,"[0, 18, 7, 22, 4, 2, 1, 20, 21, 15]",10,0,[],7.979765971,28878,1171,1,0,10,1.7549597142828803
undo,47,38,0,0,0,0,[0],1,29,"[1, 2, 3, 4, 5, 6, 7, 8, 9, 10, 11, 12, 13, 14, 15, 16, 17, 18, 19, 20, 21, 22, 23, 24, 25, 26, 27, 28, 29]",300,158,-1,33,506,9,0.0
undo,47,38,0,0,0,19,"[0, 19]",2,23,"[3, 4, 5, 6, 7, 8, 9, 11, 13, 14, 15, 16, 17, 18, 20, 22, 23, 24, 25, 26, 27, 28, 29]",219.5015528,6201,6043,6,61,9,1.0
undo,47,38,0,0,0,17,"[0, 19, 17]",3,21,"[3, 4, 5, 6, 7, 9, 11, 13, 14, 15, 16, 18, 20, 22, 23, 24, 25, 26, 27, 28, 29]",198.1239945,7552,1351,6,53,9,1.571793785769489
undo,47,38,0,0,0,20,"[0, 19, 17, 20]",4,17,"[3, 4, 5, 6, 7, 11, 13, 14, 15, 16, 18, 22, 24, 25, 26, 27, 28]",174.3542658,9867,2315,6,44,9,2.333182710277297
undo,47,38,0,0,0,13,"[0, 19, 17, 20, 13]",5,9,"[4, 11, 15, 16, 18, 24, 26, 27, 28]",125.0998244,11497,1630,1,11,9,1.7893595974504246
undo,47,38,0,0,0,26,"[0, 19, 17, 20, 13, 26]",6,4,"[4, 15, 16, 24]",94.05147502,13164,1667,2,2,8,1.6358521629854983
undo,47,38,0,0,1,24,"[0, 19, 17, 20, 13, 26, 24]",7,0,[],63.24563142,14971,1807,1,0,7,1.5254171174727325
undo,47,38,1,0,0,26,"[0, 19, 17, 20, 13, 26]",6,4,"[4, 15, 16, 24]",94.05147502,16440,1469,2,2,8,1.6358521629854983
undo,47,38,1,0,0,13,"[0, 19, 17, 20, 13]",5,9,"[4, 11, 15, 16, 18, 24, 26, 27, 28]",125.0998244,16690,250,1,11,9,1.7893595974504246
undo,47,38,1,0,0,20,"[0, 19, 17, 20]",4,17,"[3, 4, 5, 6, 7, 11, 13, 14, 15, 16, 18, 22, 24, 25, 26, 27, 28]",174.3542658,16841,151,6,44,9,2.333182710277297
undo,47,38,1,0,0,17,"[0, 19, 17]",3,21,"[3, 4, 5, 6, 7, 9, 11, 13, 14, 15, 16, 18, 20, 22, 23, 24, 25, 26, 27, 28, 29]",198.1239945,17007,166,6,53,9,1.571793785769489
undo,47,38,0,0,0,20,"[0, 19, 17, 20]",4,17,"[3, 4, 5, 6, 7, 11, 13, 14, 15, 16, 18, 22, 24, 25, 26, 27, 28]",174.3542658,20124,3117,6,44,9,2.333182710277297
undo,47,38,0,0,0,4,"[0, 19, 17, 20, 4]",5,10,"[5, 11, 13, 14, 15, 16, 24, 26, 27, 28]",140.4131403,21137,1013,5,22,9,2.276099229646013
undo,47,38,0,0,0,15,"[0, 19, 17, 20, 4, 15]",6,8,"[5, 11, 13, 14, 16, 24, 26, 28]",114.4131403,22144,1007,5,6,9,2.5292671156176403
undo,47,38,0,0,0,16,"[0, 19, 17, 20, 4, 15, 16]",7,2,"[11, 28]",72.79583625,23203,1059,2,0,9,2.0765047644693917
undo,47,38,0,0,0,28,"[0, 19, 17, 20, 4, 15, 16, 28]",8,1,[11],43.79583625,24396,1193,1,0,9,2.3990457975039625
undo,47,38,0,0,1,11,"[0, 19, 17, 20, 4, 15, 16, 28, 11]",9,0,[],16.77732407,25797,1401,1,0,9,3.5444395258240657
undo,47,38,0,1,1,11,"[0, 19, 17, 20, 4, 15, 16, 28, 11]",9,0,[],16.77732407,26990,1193,1,0,9,3.5444395258240657
undo,48,8,0,0,0,0,[0],1,29,"[1, 2, 3, 4, 5, 6, 7, 8, 9, 10, 11, 12, 13, 14, 15, 16, 17, 18, 19, 20, 21, 22, 23, 24, 25, 26, 27, 28, 29]",300,288,-1,10,149,9,0.0
undo,48,8,0,0,0,5,"[0, 5]",2,28,"[1, 2, 3, 4, 6, 7, 8, 9, 10, 11, 12, 13, 14, 15, 16, 17, 18, 19, 20, 21, 22, 23, 24, 25, 26, 27, 28, 29]",254.5137383,3152,2864,10,100,9,1.0
undo,48,8,0,0,0,14,"[0, 5, 14]",3,20,"[1, 2, 3, 4, 6, 7, 11, 15, 16, 17, 18, 19, 20, 21, 22, 23, 24, 25, 28, 29]",214.5512559,5191,2039,4,36,9,1.0001019035932595
undo,48,8,0,0,0,25,"[0, 5, 14, 25]",4,16,"[1, 3, 4, 6, 11, 15, 16, 17, 18, 20, 21, 22, 23, 24, 28, 29]",169.4513668,6536,1345,9,37,8,1.8918105093907904
undo,48,8,0,0,0,23,"[0, 5, 14, 25, 23]",5,9,"[1, 3, 4, 6, 17, 18, 20, 21, 28]",121.775377,9503,2967,1,9,8,1.5336293469975137
undo,48,8,0,0,0,18,"[0, 5, 14, 25, 23, 18]",6,4,"[1, 4, 17, 28]",80.014151,14094,4591,4,0,7,1.6642210329624878
undo,48,8,0,0,1,28,"[0, 5, 14, 25, 23, 18, 28]",7,0,[],14.39403213,17468,3374,1,0,7,1.6955658031366234
undo,48,8,0,1,1,28,"[0, 5, 14, 25, 23, 18, 28]",7,0,[],14.39403213,19491,2023,1,0,7,1.6955658031366234
undo,49,27,0,0,0,0,[0],1,26,"[1, 3, 5, 6, 7, 8, 9, 10, 11, 12, 13, 14, 15, 16, 17, 18, 19, 21, 22, 23, 24, 25, 26, 27, 28, 29]",300,159,-1,13,578,11,0.0
undo,49,27,0,0,0,15,"[0, 15]",2,24,"[1, 3, 5, 6, 7, 8, 9, 10, 11, 12, 13, 14, 16, 17, 18, 19, 21, 22, 23, 24, 25, 26, 27, 29]",263.7508621,2845,2686,6,219,11,1.0
undo,49,27,0,0,0,24,"[0, 15, 24]",3,20,"[1, 5, 6, 7, 8, 9, 10, 12, 13, 14, 16, 17, 18, 19, 21, 23, 25, 26, 27, 29]",246.5462115,4169,1324,6,130,11,1.130933077698322
undo,49,27,0,0,0,17,"[0, 15, 24, 17]",4,15,"[1, 6, 8, 10, 12, 13, 14, 16, 18, 19, 23, 25, 26, 27, 29]",229.9932662,7090,2921,4,60,11,1.1285538435963374
undo,49,27,0,0,0,12,"[0, 15, 24, 17, 12]",5,14,"[1, 6, 8, 10, 13, 14, 16, 18, 19, 23, 25, 26, 27, 29]",218.8129263,8076,986,2,32,11,1.2561880288755216
undo,49,27,0,0,0,10,"[0, 15, 24, 17, 12, 10]",6,11,"[1, 8, 13, 14, 18, 19, 23, 25, 26, 27, 29]",207.7675653,9085,1009,2,28,11,1.2228289337766665
undo,49,27,0,0,0,13,"[0, 15, 24, 17, 12, 10, 13]",7,9,"[1, 8, 14, 18, 19, 23, 26, 27, 29]",167.9178476,13079,3994,2,18,11,1.3421291994761178
undo,49,27,0,0,0,19,"[0, 15, 24, 17, 12, 10, 13, 19]",8,5,"[1, 8, 14, 23, 29]",131.6825057,14320,1241,2,6,11,1.294749956153846
undo,49,27,0,0,0,8,"[0, 15, 24, 17, 12, 10, 13, 19, 8]",9,3,"[14, 23, 29]",116.816437,15468,1148,2,1,11,1.3554286578836865
undo,49,27,0,0,0,29,"[0, 15, 24, 17, 12, 10, 13, 19, 8, 29]",10,1,[14],57.61339652,16838,1370,1,0,11,1.248354519573802
undo,49,27,0,0,1,14,"[0, 15, 24, 17, 12, 10, 13, 19, 8, 29, 14]",11,0,[],13.31892734,18108,1270,1,0,11,1.562811097555156
undo,49,27,0,1,1,14,"[0, 15, 24, 17, 12, 10, 13, 19, 8, 29, 14]",11,0,[],13.31892734,19124,1016,1,0,11,1.562811097555156
undo,50,7,0,0,0,0,[0],1,29,"[1, 2, 3, 4, 5, 6, 7, 8, 9, 10, 11, 12, 13, 14, 15, 16, 17, 18, 19, 20, 21, 22, 23, 24, 25, 26, 27, 28, 29]",300,163,-1,3,79,9,0.0
undo,50,7,0,0,0,15,"[0, 15]",2,19,"[2, 4, 5, 6, 7, 8, 9, 10, 13, 14, 16, 18, 19, 20, 21, 23, 25, 27, 28]",230.9348134,3388,3225,2,38,9,1.0
undo,50,7,0,0,0,6,"[0, 15, 6]",3,18,"[2, 4, 5, 7, 8, 9, 10, 13, 14, 16, 18, 19, 20, 21, 23, 25, 27, 28]",205.854941,5890,2502,2,36,9,1.366719602896943
undo,50,7,0,0,0,25,"[0, 15, 6, 25]",4,11,"[2, 4, 7, 13, 14, 16, 18, 19, 20, 21, 23]",138.6760753,8360,2470,2,28,9,1.3624631728355765
undo,50,7,0,0,0,4,"[0, 15, 6, 25, 4]",5,7,"[2, 7, 13, 16, 18, 19, 20]",113.9374415,9666,1306,2,12,9,1.3249684384385587
undo,50,7,0,0,0,20,"[0, 15, 6, 25, 4, 20]",6,5,"[2, 7, 13, 18, 19]",94.29055881,10619,953,1,6,9,1.3721893242679268
undo,50,7,0,0,0,18,"[0, 15, 6, 25, 4, 20, 18]",7,3,"[7, 13, 19]",81.48431034,12651,2032,1,2,9,1.5262542308371432
undo,50,7,0,0,0,7,"[0, 15, 6, 25, 4, 20, 18, 7]",8,1,[19],40.25325408,14086,1435,1,0,9,1.41986878673423
undo,50,7,0,0,1,19,"[0, 15, 6, 25, 4, 20, 18, 7, 19]",9,0,[],10.84237174,15802,1716,1,0,9,1.5285658163212987
undo,50,7,0,1,1,19,"[0, 15, 6, 25, 4, 20, 18, 7, 19]",9,0,[],10.84237174,17041,1239,1,0,9,1.5285658163212987
undo,51,45,0,0,0,0,[0],1,24,"[1, 2, 3, 4, 5, 6, 7, 9, 10, 11, 12, 14, 15, 16, 17, 19, 20, 21, 22, 23, 24, 25, 27, 29]",300,157,-1,6,248,10,0.0
undo,51,45,0,0,0,15,"[0, 15]",2,23,"[1, 2, 3, 4, 5, 6, 7, 9, 10, 11, 12, 14, 16, 17, 19, 20, 21, 22, 23, 24, 25, 27, 29]",253.9022777,3686,3529,5,207,10,1.0
undo,51,45,0,0,0,23,"[0, 15, 23]",3,22,"[1, 2, 3, 4, 5, 6, 7, 9, 10, 11, 12, 14, 16, 17, 19, 20, 21, 22, 24, 25, 27, 29]",230.3014303,6000,2314,5,163,10,1.0006068457769497
undo,51,45,0,0,0,20,"[0, 15, 23, 20]",4,19,"[1, 2, 3, 5, 6, 7, 9, 10, 11, 12, 14, 16, 17, 19, 21, 22, 24, 25, 29]",188.8647316,8166,2166,5,137,10,1.2062119754673604
undo,51,45,0,0,0,17,"[0, 15, 23, 20, 17]",5,10,"[2, 3, 5, 7, 9, 10, 11, 19, 24, 29]",133.1511785,10416,2250,3,9,8,2.6016195574855456
undo,51,45,0,0,0,24,"[0, 15, 23, 20, 17, 24]",6,5,"[2, 7, 10, 19, 29]",91.09169676,12166,1750,3,4,8,2.0281403701979674
undo,51,45,0,0,0,7,"[0, 15, 23, 20, 17, 24, 7]",7,3,"[2, 10, 29]",56.68239569,13538,1372,3,0,8,1.8339712509218666
undo,51,45,0,0,1,2,"[0, 15, 23, 20, 17, 24, 7, 2]",8,0,[],18.66924008,15285,1747,1,0,8,1.6784876870056666
undo,51,45,0,1,1,2,"[0, 15, 23, 20, 17, 24, 7, 2]",8,0,[],18.66924008,16921,1636,1,0,8,1.6784876870056666
undo,52,21,0,0,0,0,[0],1,29,"[1, 2, 3, 4, 5, 6, 7, 8, 9, 10, 11, 12, 13, 14, 15, 16, 17, 18, 19, 20, 21, 22, 23, 24, 25, 26, 27, 28, 29]",300,161,-1,84,830,9,0.0
undo,52,21,0,0,0,21,"[0, 21]",2,22,"[1, 3, 4, 6, 8, 9, 10, 11, 12, 14, 15, 16, 17, 18, 20, 22, 23, 24, 25, 26, 27, 29]",210.1111798,3392,3231,1,69,9,1.0
undo,52,21,0,0,0,14,"[0, 21, 14]",3,15,"[1, 4, 6, 8, 9, 15, 16, 17, 18, 20, 22, 23, 24, 25, 29]",184.4986828,4785,1393,35,96,8,1.0083702391721483
undo,52,21,0,0,0,4,"[0, 21, 14, 4]",4,13,"[1, 8, 9, 15, 16, 17, 18, 20, 22, 23, 24, 25, 29]",170.3565472,6105,1320,20,39,8,1.0135821167776475
undo,52,21,0,0,0,16,"[0, 21, 14, 4, 16]",5,7,"[8, 15, 17, 23, 24, 25, 29]",125.758341,7689,1584,4,6,8,1.0675217597413178
undo,52,21,0,0,0,8,"[0, 21, 14, 4, 16, 8]",6,3,"[15, 23, 24]",107.1572657,9590,1901,3,1,8,1.0643903127717425
undo,52,21,0,0,0,15,"[0, 21, 14, 4, 16, 8, 15]",7,2,"[23, 24]",82.15726573,12264,2674,2,0,8,1.29402645910376
undo,52,21,0,0,1,24,"[0, 21, 14, 4, 16, 8, 15, 24]",8,0,[],36.4516862,13627,1363,1,0,8,1.3251667405154008
undo,52,21,0,1,1,24,"[0, 21, 14, 4, 16, 8, 15, 24]",8,0,[],36.4516862,15758,2131,1,0,8,1.3251667405154008
undo,53,0,0,0,0,0,[0],1,27,"[2, 3, 4, 5, 6, 7, 8, 9, 10, 11, 12, 13, 14, 15, 16, 17, 19, 20, 21, 22, 23, 24, 25, 26, 27, 28, 29]",300,162,-1,104,1136,9,0.0
undo,53,0,0,0,0,20,"[0, 20]",2,25,"[2, 3, 4, 5, 6, 7, 8, 9, 11, 12, 13, 14, 15, 16, 17, 19, 21, 22, 23, 24, 25, 26, 27, 28, 29]",215.4955622,3421,3259,36,372,9,1.0
undo,53,0,0,0,0,5,"[0, 20, 5]",3,22,"[2, 3, 4, 7, 8, 9, 11, 12, 13, 14, 15, 16, 17, 19, 21, 22, 23, 24, 25, 26, 28, 29]",153.2942761,5187,1766,33,251,9,1.0828244018179105
undo,53,0,0,0,0,26,"[0, 20, 5, 26]",4,16,"[3, 4, 7, 8, 9, 11, 12, 13, 14, 15, 17, 19, 21, 23, 24, 28]",117.8541858,10029,4842,6,51,9,1.1274542855134486
undo,53,0,0,0,0,4,"[0, 20, 5, 26, 4]",5,12,"[3, 7, 8, 9, 11, 12, 15, 17, 19, 23, 24, 28]",105.8125912,11602,1573,5,27,9,1.240491272719259
undo,53,0,0,0,0,24,"[0, 20, 5, 26, 4, 24]",6,11,"[3, 7, 8, 9, 11, 12, 15, 17, 19, 23, 28]",94.41083696,12704,1102,5,18,9,1.2323106696136763
undo,53,0,0,0,0,15,"[0, 20, 5, 26, 4, 24, 15]",7,7,"[3, 7, 8, 9, 11, 12, 17]",71.0656019,13837,1133,4,5,9,1.2111066506270785
undo,53,0,0,0,0,7,"[0, 20, 5, 26, 4, 24, 15, 7]",8,2,"[3, 8]",40.00115277,15169,1332,2,0,9,1.268226705272871
undo,53,0,0,0,1,3,"[0, 20, 5, 26, 4, 24, 15, 7, 3]",9,0,[],15.91796361,17236,2067,1,0,9,1.3105818731451497
undo,53,0,0,1,1,3,"[0, 20, 5, 26, 4, 24, 15, 7, 3]",9,0,[],15.91796361,18378,1142,1,0,9,1.3105818731451497
undo,54,26,0,0,0,0,[0],1,29,"[1, 2, 3, 4, 5, 6, 7, 8, 9, 10, 11, 12, 13, 14, 15, 16, 17, 18, 19, 20, 21, 22, 23, 24, 25, 26, 27, 28, 29]",300,162,-1,9,226,9,0.0
undo,54,26,0,0,0,16,"[0, 16]",2,17,"[3, 4, 5, 6, 10, 11, 12, 13, 14, 17, 18, 19, 21, 22, 23, 26, 29]",188.0535842,3853,3691,34,176,8,1.0
undo,54,26,0,0,0,29,"[0, 16, 29]",3,12,"[4, 5, 6, 10, 12, 13, 14, 17, 19, 21, 23, 26]",163.8461474,5023,1170,32,68,8,1.1142946124989752
undo,54,26,0,0,0,4,"[0, 16, 29, 4]",4,9,"[5, 6, 10, 12, 13, 14, 17, 21, 23]",139.8461474,6202,1179,17,7,8,1.3213762371676339
undo,54,26,0,0,0,17,"[0, 16, 29, 4, 17]",5,5,"[6, 10, 14, 21, 23]",118.7511243,7586,1384,6,0,8,1.2756100061290643
undo,54,26,0,0,0,10,"[0, 16, 29, 4, 17, 10]",6,2,"[6, 14]",78.2542108,9453,1867,2,0,8,1.3703423905176408
undo,54,26,0,0,0,6,"[0, 16, 29, 4, 17, 10, 6]",7,1,[14],48.97964846,13111,3658,1,0,8,1.5629056072988359
undo,54,26,0,0,1,14,"[0, 16, 29, 4, 17, 10, 6, 14]",8,0,[],27.95585242,14351,1240,1,0,8,1.6881203787841719
undo,54,26,0,1,1,14,"[0, 16, 29, 4, 17, 10, 6, 14]",8,0,[],27.95585242,15308,957,1,0,8,1.6881203787841719
undo,55,11,0,0,0,0,[0],1,25,"[1, 2, 3, 4, 5, 6, 8, 9, 10, 11, 12, 13, 14, 15, 16, 17, 18, 19, 20, 22, 23, 25, 26, 27, 28]",300,165,-1,6,374,12,0.0
undo,55,11,0,0,0,17,"[0, 17]",2,18,"[1, 2, 4, 5, 6, 8, 10, 11, 12, 15, 18, 19, 22, 23, 25, 26, 27, 28]",152.9217895,4572,4407,218,762,9,1.0
undo,55,11,0,0,0,8,"[0, 17, 8]",3,15,"[1, 2, 4, 5, 6, 11, 12, 15, 18, 19, 22, 23, 25, 27, 28]",138.6039684,5719,1147,95,263,9,1.1114912532636003
undo,55,11,0,0,0,15,"[0, 17, 8, 15]",4,11,"[2, 5, 6, 11, 12, 18, 19, 22, 25, 27, 28]",125.1503444,6968,1249,62,51,9,1.1146194627724886
undo,55,11,0,0,0,11,"[0, 17, 8, 15, 11]",5,9,"[2, 5, 6, 12, 19, 22, 25, 27, 28]",107.0395741,8089,1121,24,2,9,1.1130192047684102
undo,55,11,0,0,0,28,"[0, 17, 8, 15, 11, 28]",6,4,"[2, 5, 19, 22]",87.62308629,9117,1028,6,2,9,1.2290091933070886
undo,55,11,0,0,0,5,"[0, 17, 8, 15, 11, 28, 5]",7,2,"[2, 22]",69.73454247,10834,1717,2,0,9,1.4153375425476789
undo,55,11,0,0,0,2,"[0, 17, 8, 15, 11, 28, 5, 2]",8,1,[22],52.73454247,11998,1164,1,0,9,1.3853330540064914
undo,55,11,0,0,1,22,"[0, 17, 8, 15, 11, 28, 5, 2, 22]",9,0,[],42.68466685,13370,1372,1,0,9,1.3648232332892756
undo,55,11,0,1,1,22,"[0, 17, 8, 15, 11, 28, 5, 2, 22]",9,0,[],42.68466685,15274,1904,1,0,9,1.3648232332892756
undo,56,28,0,0,0,0,[0],1,27,"[1, 2, 3, 4, 5, 6, 7, 8, 9, 10, 11, 12, 13, 14, 15, 16, 17, 18, 19, 20, 22, 23, 25, 26, 27, 28, 29]",300,174,-1,2,96,9,0.0
undo,56,28,0,0,0,3,"[0, 3]",2,26,"[1, 2, 4, 5, 6, 7, 8, 9, 10, 11, 12, 13, 14, 15, 16, 17, 18, 19, 20, 22, 23, 25, 26, 27, 28, 29]",251.0817008,5012,4838,1,64,9,1.0
undo,56,28,0,0,0,20,"[0, 3, 20]",3,20,"[2, 4, 5, 6, 7, 8, 9, 10, 11, 12, 13, 14, 15, 16, 18, 19, 22, 23, 26, 28]",209.7416475,6879,1867,2,29,8,1.6703057504555512
undo,56,28,0,0,0,5,"[0, 3, 20, 5]",4,13,"[2, 4, 7, 8, 9, 12, 13, 14, 15, 18, 19, 26, 28]",120.5396296,9092,2213,2,20,8,1.37668167346908
undo,56,28,0,0,0,26,"[0, 3, 20, 5, 26]",5,11,"[2, 4, 7, 8, 9, 12, 13, 14, 18, 19, 28]",87.78295093,10475,1383,2,12,8,1.3205404169494905
undo,56,28,0,0,0,19,"[0, 3, 20, 5, 26, 19]",6,5,"[2, 7, 12, 13, 18]",46.78295093,13575,3100,2,4,8,1.3868506225185733
undo,56,28,0,0,0,7,"[0, 3, 20, 5, 26, 19, 7]",7,2,"[12, 13]",19.05210168,15193,1618,2,0,8,1.4342292314102563
undo,56,28,0,0,1,12,"[0, 3, 20, 5, 26, 19, 7, 12]",8,0,[],5.89915524,16330,1137,1,0,8,1.4275226343026841
undo,56,28,0,1,1,12,"[0, 3, 20, 5, 26, 19, 7, 12]",8,0,[],5.89915524,20799,4469,1,0,8,1.4275226343026841
undo,57,24,0,0,0,0,[0],1,29,"[1, 2, 3, 4, 5, 6, 7, 8, 9, 10, 11, 12, 13, 14, 15, 16, 17, 18, 19, 20, 21, 22, 23, 24, 25, 26, 27, 28, 29]",300,160,-1,4,76,10,0.0
undo,57,24,0,0,0,16,"[0, 16]",2,28,"[1, 2, 3, 4, 5, 6, 7, 8, 9, 10, 11, 12, 13, 14, 15, 17, 18, 19, 20, 21, 22, 23, 24, 25, 26, 27, 28, 29]",210.3562607,2185,2025,13,110,9,1.0
undo,57,24,0,0,0,22,"[0, 16, 22]",3,27,"[1, 2, 3, 4, 5, 6, 7, 8, 9, 10, 11, 12, 13, 14, 15, 17, 18, 19, 20, 21, 23, 24, 25, 26, 27, 28, 29]",192.3285043,3435,1250,7,54,9,1.0217425143037777
undo,57,24,0,0,0,8,"[0, 16, 22, 8]",4,21,"[1, 2, 3, 4, 6, 9, 10, 11, 13, 14, 15, 17, 20, 21, 23, 24, 25, 26, 27, 28, 29]",178.9120964,4552,1117,4,28,9,1.0996636936037951
undo,57,24,0,0,0,15,"[0, 16, 22, 8, 15]",5,16,"[3, 4, 6, 9, 10, 11, 13, 14, 17, 23, 24, 25, 26, 27, 28, 29]",148.025206,6319,1767,3,17,9,1.2704773343758617
undo,57,24,0,0,0,28,"[0, 16, 22, 8, 15, 28]",6,8,"[3, 4, 9, 11, 13, 23, 26, 27]",102.7482803,7435,1116,3,5,9,1.1981967578189556
undo,57,24,0,0,0,23,"[0, 16, 22, 8, 15, 28, 23]",7,3,"[9, 11, 27]",83.72198273,8685,1250,3,1,9,1.2275650852813986
undo,57,24,0,0,0,11,"[0, 16, 22, 8, 15, 28, 23, 11]",8,2,"[9, 27]",56.79615869,9684,999,2,0,9,1.2107937989822568
undo,57,24,0,0,1,9,"[0, 16, 22, 8, 15, 28, 23, 11, 9]",9,0,[],24.5471277,11587,1903,1,0,9,1.2976612913524237
undo,57,24,0,1,1,9,"[0, 16, 22, 8, 15, 28, 23, 11, 9]",9,0,[],24.5471277,14057,2470,1,0,9,1.2976612913524237
undo,58,23,0,0,0,0,[0],1,28,"[1, 2, 3, 4, 5, 6, 7, 8, 9, 10, 11, 12, 13, 14, 15, 16, 17, 18, 19, 20, 21, 22, 23, 25, 26, 27, 28, 29]",300,170,-1,76,2626,10,0.0
undo,58,23,0,0,0,18,"[0, 18]",2,14,"[2, 5, 6, 7, 9, 10, 12, 13, 14, 19, 21, 22, 27, 29]",203.8958898,3285,3115,73,787,9,1.0
undo,58,23,0,0,0,27,"[0, 18, 27]",3,9,"[2, 6, 7, 9, 12, 13, 14, 22, 29]",128.5832083,6548,3263,51,277,9,1.1972268052690318
undo,58,23,0,0,0,6,"[0, 18, 27, 6]",4,8,"[2, 7, 9, 12, 13, 14, 22, 29]",100.2812649,9098,2550,43,68,9,1.3293035545030156
undo,58,23,0,0,0,2,"[0, 18, 27, 6, 2]",5,6,"[9, 12, 13, 14, 22, 29]",81.84217594,12720,3622,16,17,9,1.5987085337271232
undo,58,23,0,0,0,14,"[0, 18, 27, 6, 2, 14]",6,5,"[9, 12, 13, 22, 29]",66.97610719,13937,1217,5,3,9,1.653941702320971
undo,58,23,0,0,0,9,"[0, 18, 27, 6, 2, 14, 9]",7,4,"[12, 13, 22, 29]",56.53580068,16122,2185,2,2,9,1.8635071754469044
undo,58,23,0,0,0,12,"[0, 18, 27, 6, 2, 14, 9, 12]",8,1,[13],42.21797962,19206,3084,1,0,9,2.1028196660017944
undo,58,23,0,0,1,13,"[0, 18, 27, 6, 2, 14, 9, 12, 13]",9,0,[],30.13493365,20755,1549,1,0,9,2.43825220165275
undo,58,23,0,1,1,13,"[0, 18, 27, 6, 2, 14, 9, 12, 13]",9,0,[],30.13493365,22274,1519,1,0,9,2.43825220165275
undo,59,5,0,0,0,0,[0],1,29,"[1, 2, 3, 4, 5, 6, 7, 8, 9, 10, 11, 12, 13, 14, 15, 16, 17, 18, 19, 20, 21, 22, 23, 24, 25, 26, 27, 28, 29]",300,169,-1,5,139,9,0.0
undo,59,5,0,0,0,23,"[0, 23]",2,27,"[1, 2, 3, 4, 5, 6, 7, 8, 9, 10, 11, 12, 13, 14, 15, 16, 17, 18, 19, 20, 21, 22, 24, 25, 26, 27, 28]",249.8402552,2569,2400,3,75,9,1.0
undo,59,5,0,0,0,25,"[0, 23, 25]",3,23,"[1, 2, 3, 4, 5, 6, 8, 9, 10, 12, 13, 14, 15, 16, 17, 18, 19, 21, 22, 24, 26, 27, 28]",231.4011663,5018,2449,3,43,9,1.0923159590575564
undo,59,5,0,0,0,12,"[0, 23, 25, 12]",4,19,"[2, 4, 5, 6, 8, 9, 10, 13, 14, 15, 16, 17, 18, 19, 21, 22, 24, 26, 27]",203.6162783,6740,1722,13,38,8,1.344380276762952
undo,59,5,0,0,0,24,"[0, 23, 25, 12, 24]",5,13,"[4, 5, 6, 8, 9, 13, 15, 17, 18, 19, 22, 26, 27]",151.7607096,8668,1928,9,16,8,2.0468715098289354
undo,59,5,0,0,0,17,"[0, 23, 25, 12, 24, 17]",6,7,"[4, 5, 6, 8, 15, 18, 19]",116.7749983,10251,1583,8,2,8,1.715984108382044
undo,59,5,0,0,0,6,"[0, 23, 25, 12, 24, 17, 6]",7,1,[4],37.88266658,13739,3488,1,0,8,1.5695648707784433
undo,59,5,0,0,1,4,"[0, 23, 25, 12, 24, 17, 6, 4]",8,0,[],25.841072,15117,1378,1,0,8,1.564554768153833
undo,59,5,0,1,1,4,"[0, 23, 25, 12, 24, 17, 6, 4]",8,0,[],25.841072,16607,1490,1,0,8,1.564554768153833
undo,60,4,0,0,0,0,[0],1,26,"[3, 4, 5, 6, 7, 8, 10, 11, 12, 13, 14, 15, 16, 17, 18, 19, 20, 21, 22, 23, 24, 25, 26, 27, 28, 29]",300,167,-1,4,489,10,0.0
undo,60,4,0,0,0,28,"[0, 28]",2,21,"[3, 4, 5, 6, 10, 11, 12, 13, 14, 15, 16, 17, 19, 20, 21, 22, 23, 24, 25, 26, 27]",225.9392142,3887,3720,2,216,10,1.0
undo,60,4,0,0,0,14,"[0, 28, 14]",3,13,"[3, 4, 5, 6, 11, 13, 16, 17, 20, 21, 22, 24, 25]",159.6972335,6005,2118,1,26,10,1.0273973946789214
undo,60,4,0,0,0,25,"[0, 28, 14, 25]",4,12,"[3, 4, 5, 6, 11, 13, 16, 17, 20, 21, 22, 24]",143.572718,7251,1246,1,25,10,1.233547772313525
undo,60,4,0,0,0,11,"[0, 28, 14, 25, 11]",5,10,"[3, 4, 5, 6, 13, 16, 17, 20, 21, 22]",124.7844238,8306,1055,1,15,10,1.425978575879479
undo,60,4,0,0,0,16,"[0, 28, 14, 25, 11, 16]",6,9,"[3, 4, 5, 6, 13, 17, 20, 21, 22]",109.7844238,9198,892,1,12,10,1.3799325158051412
undo,60,4,0,0,0,17,"[0, 28, 14, 25, 11, 16, 17]",7,5,"[3, 5, 20, 21, 22]",83.70761416,10665,1467,1,5,10,1.3195184878861832
undo,60,4,0,0,1,3,"[0, 28, 14, 25, 11, 16, 17, 3]",8,0,[],59.19231282,14434,3769,1,0,8,1.3806727129204737
undo,60,4,0,1,1,3,"[0, 28, 14, 25, 11, 16, 17, 3]",8,0,[],59.19231282,19740,5306,1,0,8,1.3806727129204737
undo,61,12,0,0,0,0,[0],1,29,"[1, 2, 3, 4, 5, 6, 7, 8, 9, 10, 11, 12, 13, 14, 15, 16, 17, 18, 19, 20, 21, 22, 23, 24, 25, 26, 27, 28, 29]",300,158,-1,2,32,9,0.0
undo,61,12,0,0,0,22,"[0, 22]",2,22,"[2, 4, 5, 6, 7, 9, 10, 12, 13, 14, 15, 16, 17, 18, 19, 21, 23, 24, 25, 27, 28, 29]",211.9943184,4439,4281,6,42,8,1.0
undo,61,12,0,0,0,16,"[0, 22, 16]",3,12,"[2, 4, 5, 6, 7, 12, 14, 19, 23, 24, 25, 27]",190.9943184,5622,1183,6,24,8,1.2017164145167045
undo,61,12,0,0,0,4,"[0, 22, 16, 4]",4,9,"[2, 6, 7, 12, 14, 19, 24, 25, 27]",156.7890556,7554,1932,6,14,8,1.146531713305579
undo,61,12,0,0,0,12,"[0, 22, 16, 4, 12]",5,4,"[14, 19, 24, 27]",114.5990094,9988,2434,4,3,8,1.1221389456954312
undo,61,12,0,0,0,27,"[0, 22, 16, 4, 12, 27]",6,3,"[14, 19, 24]",90.24741807,11358,1370,2,1,8,1.2262878338287035
undo,61,12,0,0,0,14,"[0, 22, 16, 4, 12, 27, 14]",7,1,[24],61.59432051,13237,1879,1,0,8,1.2804562106751427
undo,61,12,0,0,1,24,"[0, 22, 16, 4, 12, 27, 14, 24]",8,0,[],44.38966997,14436,1199,1,0,8,1.4322660007679802
undo,61,12,0,1,1,24,"[0, 22, 16, 4, 12, 27, 14, 24]",8,0,[],44.38966997,16177,1741,1,0,8,1.4322660007679802
undo,62,6,0,0,0,0,[0],1,29,"[1, 2, 3, 4, 5, 6, 7, 8, 9, 10, 11, 12, 13, 14, 15, 16, 17, 18, 19, 20, 21, 22, 23, 24, 25, 26, 27, 28, 29]",300,158,-1,180,4304,10,0.0
undo,62,6,0,0,0,26,"[0, 26]",2,25,"[1, 2, 3, 4, 5, 6, 7, 8, 9, 10, 11, 12, 13, 14, 15, 16, 17, 18, 20, 21, 22, 23, 24, 27, 29]",250.2606795,3571,3413,45,776,10,1.0
undo,62,6,0,0,0,2,"[0, 26, 2]",3,20,"[1, 3, 4, 5, 6, 7, 8, 9, 10, 13, 14, 16, 17, 18, 21, 22, 23, 24, 27, 29]",220.4278118,4951,1380,20,184,10,1.003152463832065
undo,62,6,0,0,0,7,"[0, 26, 2, 7]",4,18,"[1, 3, 4, 6, 8, 9, 10, 13, 14, 16, 17, 18, 21, 22, 23, 24, 27, 29]",179.3182022,7351,2400,20,157,10,2.5131135963314413
undo,62,6,0,0,0,3,"[0, 26, 2, 7, 3]",5,13,"[1, 6, 8, 10, 13, 16, 17, 18, 21, 22, 23, 24, 29]",143.1795802,8599,1248,18,67,10,4.677560963942129
undo,62,6,0,0,0,18,"[0, 26, 2, 7, 3, 18]",6,10,"[1, 6, 10, 13, 16, 17, 22, 23, 24, 29]",114.1795802,11767,3168,9,21,10,3.0511602668529507
undo,62,6,0,0,0,17,"[0, 26, 2, 7, 3, 18, 17]",7,7,"[6, 10, 13, 16, 23, 24, 29]",100.2511919,13684,1917,4,9,10,2.830257342122825
undo,62,6,0,0,0,10,"[0, 26, 2, 7, 3, 18, 17, 10]",8,4,"[16, 23, 24, 29]",80.52810898,15470,1786,2,3,10,2.602087972078497
undo,62,6,0,0,0,24,"[0, 26, 2, 7, 3, 18, 17, 10, 24]",9,2,"[16, 23]",67.11170111,17849,2379,2,0,10,2.393670781421888
undo,62,6,0,0,1,16,"[0, 26, 2, 7, 3, 18, 17, 10, 24, 16]",10,0,[],11.07599821,20150,2301,1,0,10,4.002808006957843
undo,62,6,0,1,1,16,"[0, 26, 2, 7, 3, 18, 17, 10, 24, 16]",10,0,[],11.07599821,21290,1140,1,0,10,4.002808006957843
undo,63,9,0,0,0,0,[0],1,27,"[1, 3, 4, 5, 6, 7, 8, 9, 10, 11, 13, 14, 15, 16, 17, 18, 19, 20, 21, 22, 23, 24, 25, 26, 27, 28, 29]",300,156,-1,2,182,10,0.0
undo,63,9,0,0,0,25,"[0, 25]",2,24,"[1, 3, 4, 5, 6, 7, 8, 9, 10, 11, 13, 15, 16, 17, 18, 19, 20, 21, 22, 23, 24, 26, 27, 28]",275.9168108,4235,4079,2,104,10,1.0
undo,63,9,0,0,0,10,"[0, 25, 10]",3,20,"[3, 4, 5, 7, 8, 9, 11, 13, 15, 16, 17, 18, 19, 20, 21, 22, 23, 26, 27, 28]",236.0670932,7823,3588,2,76,10,1.1767014107208227
undo,63,9,0,0,0,8,"[0, 25, 10, 8]",4,19,"[3, 4, 5, 7, 9, 11, 13, 15, 16, 17, 18, 19, 20, 21, 22, 23, 26, 27, 28]",187.6935467,9540,1717,1,29,10,1.7608170712242983
undo,63,9,0,0,0,23,"[0, 25, 10, 8, 23]",5,15,"[3, 4, 5, 7, 9, 11, 16, 18, 19, 20, 21, 22, 26, 27, 28]",166.2226361,11317,1777,10,32,9,2.2468522467908687
undo,63,9,0,0,0,9,"[0, 25, 10, 8, 23, 9]",6,12,"[3, 4, 7, 11, 18, 19, 20, 21, 22, 26, 27, 28]",143.8619563,12933,1616,5,10,9,2.096804588964727
undo,63,9,0,0,0,28,"[0, 25, 10, 8, 23, 9, 28]",7,4,"[20, 21, 22, 26]",103.0452931,14268,1335,3,1,9,2.651641895794339
undo,63,9,0,0,0,26,"[0, 25, 10, 8, 23, 9, 28, 26]",8,1,[21],58.26806672,17700,3432,1,0,9,2.0691859387090443
undo,63,9,0,0,1,21,"[0, 25, 10, 8, 23, 9, 28, 26, 21]",9,0,[],4.360738828,22226,4526,1,0,9,2.4941579106007956
undo,63,9,0,1,1,21,"[0, 25, 10, 8, 23, 9, 28, 26, 21]",9,0,[],4.360738828,23073,847,1,0,9,2.4941579106007956
undo,64,25,0,0,0,0,[0],1,28,"[1, 2, 3, 4, 5, 7, 8, 9, 10, 11, 12, 13, 14, 15, 16, 17, 18, 19, 20, 21, 22, 23, 24, 25, 26, 27, 28, 29]",300,171,-1,5,94,10,0.0
undo,64,25,0,0,0,23,"[0, 23]",2,23,"[1, 2, 3, 5, 7, 8, 9, 11, 12, 13, 14, 16, 17, 19, 20, 21, 22, 24, 25, 26, 27, 28, 29]",259.7756293,2691,2520,3,33,10,1.0
undo,64,25,0,0,0,19,"[0, 23, 19]",3,21,"[1, 2, 3, 5, 7, 8, 9, 11, 12, 13, 14, 16, 17, 20, 21, 22, 24, 25, 27, 28, 29]",223.9287326,4470,1779,3,24,10,1.583101227007039
undo,64,25,0,0,0,29,"[0, 23, 19, 29]",4,19,"[1, 2, 3, 5, 7, 8, 9, 11, 12, 13, 14, 16, 17, 20, 21, 22, 24, 25, 28]",207.649912,5975,1505,3,17,10,1.474631541426484
undo,64,25,0,0,0,22,"[0, 23, 19, 29, 22]",5,18,"[1, 2, 3, 5, 7, 8, 9, 11, 12, 13, 14, 16, 17, 20, 21, 24, 25, 28]",191.5253965,7036,1061,3,14,10,1.4020377754906637
undo,64,25,0,0,0,11,"[0, 23, 19, 29, 22, 11]",6,4,"[13, 14, 16, 17]",82.30085716,9020,1984,4,0,7,1.1715096031111274
undo,64,25,0,0,1,16,"[0, 23, 19, 29, 22, 11, 16]",7,0,[],7.648328737,12519,3499,1,0,7,1.1565886889873804
undo,64,25,0,1,1,16,"[0, 23, 19, 29, 22, 11, 16]",7,0,[],7.648328737,13775,1256,1,0,7,1.1565886889873804
undo,65,10,0,0,0,0,[0],1,29,"[1, 2, 3, 4, 5, 6, 7, 8, 9, 10, 11, 12, 13, 14, 15, 16, 17, 18, 19, 20, 21, 22, 23, 24, 25, 26, 27, 28, 29]",300,158,-1,1,100,9,0.0
undo,65,10,0,0,0,13,"[0, 13]",2,25,"[1, 2, 3, 4, 6, 7, 8, 9, 10, 11, 12, 14, 17, 18, 19, 20, 21, 22, 23, 24, 25, 26, 27, 28, 29]",249.4628849,2535,2377,1,79,9,1.0
undo,65,10,0,0,0,11,"[0, 13, 11]",3,20,"[1, 2, 3, 6, 7, 8, 9, 10, 12, 14, 18, 19, 20, 21, 22, 24, 26, 27, 28, 29]",206.4512586,4318,1783,1,54,9,1.0313137484914219
undo,65,10,0,0,0,19,"[0, 13, 11, 19]",4,11,"[2, 6, 8, 9, 10, 14, 18, 20, 24, 26, 27]",170.0919407,6173,1855,1,22,9,1.0879446220132545
undo,65,10,0,0,0,2,"[0, 13, 11, 19, 2]",5,4,"[14, 20, 26, 27]",126.1829439,8785,2612,1,4,9,1.06474052351343
undo,65,10,0,0,0,26,"[0, 13, 11, 19, 2, 26]",6,3,"[14, 20, 27]",81.79826182,10235,1450,1,2,8,1.647568239222495
undo,65,10,0,0,0,20,"[0, 13, 11, 19, 2, 26, 20]",7,1,[27],50.01776466,11551,1316,1,0,8,2.065334191661968
undo,65,10,0,1,0,20,"[0, 13, 11, 19, 2, 26, 20]",7,1,[27],50.01776466,12491,940,1,0,8,2.065334191661968
undo,66,2,0,0,0,0,[0],1,23,"[1, 2, 4, 5, 6, 7, 8, 9, 12, 13, 15, 16, 17, 18, 19, 20, 22, 23, 25, 26, 27, 28, 29]",300,163,-1,70,620,10,0.0
undo,66,2,0,0,0,19,"[0, 19]",2,22,"[1, 2, 4, 5, 6, 7, 8, 9, 12, 13, 15, 16, 17, 18, 20, 22, 23, 25, 26, 27, 28, 29]",210.306076,4685,4522,67,431,10,1.0
undo,66,2,0,0,0,12,"[0, 19, 12]",3,17,"[1, 4, 5, 6, 7, 13, 15, 16, 17, 18, 20, 22, 25, 26, 27, 28, 29]",174.2921898,6117,1432,66,298,10,1.1107635036313153
undo,66,2,0,0,0,5,"[0, 19, 12, 5]",4,11,"[1, 6, 7, 13, 15, 16, 18, 22, 25, 26, 29]",144.7625437,7151,1034,38,136,10,1.0968174771581647
undo,66,2,0,0,0,22,"[0, 19, 12, 5, 22]",5,8,"[1, 6, 7, 13, 15, 18, 26, 29]",131.9562952,8485,1334,20,63,10,1.0889910507461968
undo,66,2,0,0,0,13,"[0, 19, 12, 5, 22, 13]",6,7,"[1, 6, 7, 15, 18, 26, 29]",117.0902265,9673,1188,19,20,10,1.236526217328057
undo,66,2,0,0,0,18,"[0, 19, 12, 5, 22, 13, 18]",7,4,"[7, 15, 26, 29]",81.91921567,11468,1795,10,3,10,1.2128708213409936
undo,66,2,0,0,0,7,"[0, 19, 12, 5, 22, 13, 18, 7]",8,3,"[15, 26, 29]",71.62358553,12557,1089,5,0,10,1.2019811287894737
undo,66,2,0,0,0,26,"[0, 19, 12, 5, 22, 13, 18, 7, 26]",9,2,"[15, 29]",48.82007703,14585,2028,2,0,10,1.1883593342191134
undo,66,2,0,0,1,15,"[0, 19, 12, 5, 22, 13, 18, 7, 26, 15]",10,0,[],24.61264015,15917,1332,1,0,10,1.4619750353663825
undo,66,2,0,1,1,15,"[0, 19, 12, 5, 22, 13, 18, 7, 26, 15]",10,0,[],24.61264015,18823,2906,1,0,10,1.4619750353663825
undo,67,29,0,0,0,0,[0],1,29,"[1, 2, 3, 4, 5, 6, 7, 8, 9, 10, 11, 12, 13, 14, 15, 16, 17, 18, 19, 20, 21, 22, 23, 24, 25, 26, 27, 28, 29]",300,162,-1,1,78,9,0.0
undo,67,29,0,0,0,14,"[0, 14]",2,22,"[1, 3, 4, 5, 6, 7, 9, 10, 11, 12, 13, 15, 16, 17, 21, 22, 23, 25, 26, 27, 28, 29]",209.490332,1852,1690,21,110,8,1.0
undo,67,29,0,0,0,13,"[0, 14, 13]",3,18,"[1, 4, 5, 6, 7, 9, 10, 12, 15, 16, 17, 21, 22, 25, 26, 27, 28, 29]",191.4625756,2886,1034,20,75,8,1.0027006502223275
undo,67,29,0,0,0,5,"[0, 14, 13, 5]",4,15,"[1, 4, 6, 7, 9, 12, 15, 17, 21, 22, 25, 26, 27, 28, 29]",165.7526554,6120,3234,19,49,8,1.0803937325657265
undo,67,29,0,0,0,4,"[0, 14, 13, 5, 4]",5,5,"[7, 9, 12, 21, 22]",113.8585324,8052,1932,5,5,8,1.0589046774357636
undo,67,29,0,0,0,9,"[0, 14, 13, 5, 4, 9]",6,3,"[7, 12, 21]",72.82196333,11335,3283,2,1,8,1.2033484462540056
undo,67,29,0,0,0,7,"[0, 14, 13, 5, 4, 9, 7]",7,1,[12],43.75307962,12931,1596,1,0,8,1.5581999677939193
undo,67,29,0,0,1,12,"[0, 14, 13, 5, 4, 9, 7, 12]",8,0,[],30.15160911,14056,1125,1,0,8,1.747955919287298
undo,67,29,1,0,0,7,"[0, 14, 13, 5, 4, 9, 7]",7,1,[12],43.75307962,16641,2585,1,0,8,1.5581999677939193
undo,67,29,1,0,0,9,"[0, 14, 13, 5, 4, 9]",6,3,"[7, 12, 21]",72.82196333,17057,416,2,1,8,1.2033484462540056
undo,67,29,1,0,0,4,"[0, 14, 13, 5, 4]",5,5,"[7, 9, 12, 21, 22]",113.8585324,17907,850,5,5,8,1.0589046774357636
undo,67,29,1,0,0,5,"[0, 14, 13, 5]",4,15,"[1, 4, 6, 7, 9, 12, 15, 17, 21, 22, 25, 26, 27, 28, 29]",165.7526554,18440,533,19,49,8,1.0803937325657265
undo,67,29,1,0,0,13,"[0, 14, 13]",3,18,"[1, 4, 5, 6, 7, 9, 10, 12, 15, 16, 17, 21, 22, 25, 26, 27, 28, 29]",191.4625756,19407,967,20,75,8,1.0027006502223275
undo,67,29,1,0,0,14,"[0, 14]",2,22,"[1, 3, 4, 5, 6, 7, 9, 10, 11, 12, 13, 15, 16, 17, 21, 22, 23, 25, 26, 27, 28, 29]",209.490332,19574,167,21,110,8,1.0
undo,67,29,1,0,0,0,[0],1,29,"[1, 2, 3, 4, 5, 6, 7, 8, 9, 10, 11, 12, 13, 14, 15, 16, 17, 18, 19, 20, 21, 22, 23, 24, 25, 26, 27, 28, 29]",300,20290,716,1,78,9,0.0
undo,67,29,0,0,0,6,"[0, 6]",2,28,"[1, 2, 3, 4, 5, 7, 8, 9, 10, 11, 12, 13, 14, 15, 16, 17, 18, 19, 20, 21, 22, 23, 24, 25, 26, 27, 28, 29]",228.4108947,23221,2931,1,25,9,1.0
undo,67,29,0,0,0,28,"[0, 6, 28]",3,24,"[1, 3, 4, 5, 7, 9, 10, 11, 12, 13, 14, 15, 16, 17, 18, 20, 21, 22, 23, 24, 25, 26, 27, 29]",187.1798384,24701,1480,1,22,9,1.162106788166845
undo,67,29,0,0,0,27,"[0, 6, 28, 27]",4,19,"[1, 3, 4, 5, 7, 9, 10, 11, 12, 13, 14, 15, 16, 21, 22, 23, 25, 26, 29]",166.6615539,27169,2468,1,21,9,1.2307173895439045
undo,67,29,0,0,0,22,"[0, 6, 28, 27, 22]",5,13,"[1, 3, 4, 5, 7, 9, 12, 13, 14, 15, 21, 26, 29]",133.4200136,29400,2231,1,19,9,1.4241767805149903
undo,67,29,0,0,0,5,"[0, 6, 28, 27, 22, 5]",6,6,"[4, 7, 9, 12, 13, 14]",79.07850094,31169,1769,4,2,8,1.7779286710260118
undo,67,29,0,0,0,13,"[0, 6, 28, 27, 22, 5, 13]",7,1,[14],53.36858068,33755,2586,1,0,8,2.2784535922470215
undo,67,29,0,0,1,14,"[0, 6, 28, 27, 22, 5, 13, 14]",8,0,[],35.3408243,42070,8315,1,0,8,2.9240984037611235
undo,67,29,0,1,1,14,"[0, 6, 28, 27, 22, 5, 13, 14]",8,0,[],35.3408243,43972,1902,1,0,8,2.9240984037611235
undo,68,41,0,0,0,0,[0],1,29,"[1, 2, 3, 4, 5, 6, 7, 8, 9, 10, 11, 12, 13, 14, 15, 16, 17, 18, 19, 20, 21, 22, 23, 24, 25, 26, 27, 28, 29]",300,161,-1,1,143,10,0.0
undo,68,41,0,0,0,13,"[0, 13]",2,23,"[1, 2, 3, 5, 6, 7, 9, 10, 11, 12, 14, 15, 17, 18, 19, 20, 21, 22, 24, 25, 26, 27, 28]",258.2747079,6034,5873,1,55,10,1.0
undo,68,41,0,0,0,28,"[0, 13, 28]",3,22,"[1, 2, 3, 5, 6, 7, 9, 10, 11, 12, 14, 15, 17, 18, 19, 20, 21, 22, 24, 25, 26, 27]",223.7928286,7834,1800,1,39,10,1.895724242592676
undo,68,41,0,0,0,5,"[0, 13, 28, 5]",4,19,"[1, 2, 3, 6, 9, 10, 11, 12, 14, 15, 17, 18, 19, 20, 21, 22, 24, 25, 27]",210.1913581,10732,2898,1,34,10,2.861541269398273
undo,68,41,0,0,0,3,"[0, 13, 28, 5, 3]",5,16,"[1, 2, 6, 9, 10, 12, 14, 17, 18, 19, 20, 21, 22, 24, 25, 27]",175.3632086,12372,1640,1,22,10,3.1455488489005883
undo,68,41,0,0,0,22,"[0, 13, 28, 5, 3, 22]",6,10,"[2, 6, 9, 10, 12, 17, 18, 20, 21, 25]",145.3965604,14121,1749,1,7,10,2.241807041008432
undo,68,41,0,0,0,21,"[0, 13, 28, 5, 3, 22, 21]",7,4,"[2, 9, 12, 17]",94.39656044,16370,2249,1,5,10,4.206513633906409
undo,68,41,0,0,0,9,"[0, 13, 28, 5, 3, 22, 21, 9]",8,2,"[2, 17]",45.03058025,17905,1535,1,1,10,3.098343902653451
undo,68,41,0,0,0,2,"[0, 13, 28, 5, 3, 22, 21, 9, 2]",9,1,[17],32.94753428,20085,2180,1,0,10,2.9516218867624824
undo,68,41,0,0,1,17,"[0, 13, 28, 5, 3, 22, 21, 9, 2, 17]",10,0,[],0.389893085,21516,1431,1,0,10,4.726628762010198
undo,68,41,0,1,1,17,"[0, 13, 28, 5, 3, 22, 21, 9, 2, 17]",10,0,[],0.389893085,23406,1890,1,0,10,4.726628762010198
basic,69,16,0,0,0,0,[0],1,29,"[1, 2, 3, 4, 5, 6, 7, 8, 9, 10, 11, 12, 13, 14, 15, 16, 17, 18, 19, 20, 21, 22, 23, 24, 25, 26, 27, 28, 29]",300,163,-1,13,161,9,0.0
basic,69,16,0,0,0,21,"[0, 21]",2,28,"[1, 2, 3, 4, 5, 6, 7, 8, 9, 10, 11, 12, 13, 14, 15, 16, 17, 18, 19, 20, 22, 23, 24, 25, 26, 27, 28, 29]",215.1884442,8862,8699,5,68,8,1.0
basic,69,16,0,0,0,8,"[0, 21, 8]",3,21,"[2, 3, 4, 5, 9, 10, 12, 13, 14, 15, 16, 17, 19, 20, 22, 23, 25, 26, 27, 28, 29]",165.9340028,12492,3630,4,44,8,1.0808611140295874
basic,69,16,0,0,0,20,"[0, 21, 8, 20]",4,10,"[3, 4, 5, 9, 12, 13, 15, 16, 19, 25]",108.1585755,14788,2296,3,15,8,1.0602210452538456
basic,69,16,0,0,0,25,"[0, 21, 8, 20, 25]",5,7,"[3, 4, 5, 9, 12, 13, 15]",95.50946482,16061,1273,3,9,8,1.1098383265257352
basic,69,16,0,0,0,9,"[0, 21, 8, 20, 25, 9]",6,5,"[3, 4, 5, 13, 15]",82.70321634,17622,1561,3,3,8,1.1028020529703262
basic,69,16,0,0,0,15,"[0, 21, 8, 20, 25, 9, 15]",7,2,"[3, 5]",43.80591566,19857,2235,2,0,8,1.207603157845383
basic,69,16,0,0,1,5,"[0, 21, 8, 20, 25, 9, 15, 5]",8,0,[],14.37803772,21753,1896,1,0,8,1.5101918717247407
basic,69,16,0,1,1,5,"[0, 21, 8, 20, 25, 9, 15, 5]",8,0,[],14.37803772,22744,991,1,0,8,1.5101918717247407
basic,70,24,0,0,0,0,[0],1,29,"[1, 2, 3, 4, 5, 6, 7, 8, 9, 10, 11, 12, 13, 14, 15, 16, 17, 18, 19, 20, 21, 22, 23, 24, 25, 26, 27, 28, 29]",300,159,-1,4,76,10,0.0
basic,70,24,0,0,0,16,"[0, 16]",2,28,"[1, 2, 3, 4, 5, 6, 7, 8, 9, 10, 11, 12, 13, 14, 15, 17, 18, 19, 20, 21, 22, 23, 24, 25, 26, 27, 28, 29]",210.3562607,5285,5126,13,110,9,1.0
basic,70,24,0,0,0,22,"[0, 16, 22]",3,27,"[1, 2, 3, 4, 5, 6, 7, 8, 9, 10, 11, 12, 13, 14, 15, 17, 18, 19, 20, 21, 23, 24, 25, 26, 27, 28, 29]",192.3285043,6702,1417,7,54,9,1.0217425143037777
basic,70,24,0,0,0,8,"[0, 16, 22, 8]",4,21,"[1, 2, 3, 4, 6, 9, 10, 11, 13, 14, 15, 17, 20, 21, 23, 24, 25, 26, 27, 28, 29]",178.9120964,10907,4205,4,28,9,1.0996636936037951
basic,70,24,0,0,0,15,"[0, 16, 22, 8, 15]",5,16,"[3, 4, 6, 9, 10, 11, 13, 14, 17, 23, 24, 25, 26, 27, 28, 29]",148.025206,12774,1867,3,17,9,1.2704773343758617
basic,70,24,0,0,0,28,"[0, 16, 22, 8, 15, 28]",6,8,"[3, 4, 9, 11, 13, 23, 26, 27]",102.7482803,14668,1894,3,5,9,1.1981967578189556
basic,70,24,0,0,0,23,"[0, 16, 22, 8, 15, 28, 23]",7,3,"[9, 11, 27]",83.72198273,16973,2305,3,1,9,1.2275650852813986
basic,70,24,0,0,0,11,"[0, 16, 22, 8, 15, 28, 23, 11]",8,2,"[9, 27]",56.79615869,18234,1261,2,0,9,1.2107937989822568
basic,70,24,0,0,1,27,"[0, 16, 22, 8, 15, 28, 23, 11, 27]",9,0,[],28.99328114,19804,1570,1,0,9,1.1865620449755248
basic,70,24,0,1,1,27,"[0, 16, 22, 8, 15, 28, 23, 11, 27]",9,0,[],28.99328114,20791,987,1,0,9,1.1865620449755248
basic,71,12,0,0,0,0,[0],1,29,"[1, 2, 3, 4, 5, 6, 7, 8, 9, 10, 11, 12, 13, 14, 15, 16, 17, 18, 19, 20, 21, 22, 23, 24, 25, 26, 27, 28, 29]",300,161,-1,2,32,9,0.0
basic,71,12,0,0,0,22,"[0, 22]",2,22,"[2, 4, 5, 6, 7, 9, 10, 12, 13, 14, 15, 16, 17, 18, 19, 21, 23, 24, 25, 27, 28, 29]",211.9943184,5737,5576,6,42,8,1.0
basic,71,12,0,0,0,16,"[0, 22, 16]",3,12,"[2, 4, 5, 6, 7, 12, 14, 19, 23, 24, 25, 27]",190.9943184,8466,2729,6,24,8,1.2017164145167045
basic,71,12,0,0,0,4,"[0, 22, 16, 4]",4,9,"[2, 6, 7, 12, 14, 19, 24, 25, 27]",156.7890556,10117,1651,6,14,8,1.146531713305579
basic,71,12,0,0,0,12,"[0, 22, 16, 4, 12]",5,4,"[14, 19, 24, 27]",114.5990094,12505,2388,4,3,8,1.1221389456954312
basic,71,12,0,0,0,27,"[0, 22, 16, 4, 12, 27]",6,3,"[14, 19, 24]",90.24741807,14350,1845,2,1,8,1.2262878338287035
basic,71,12,0,0,0,14,"[0, 22, 16, 4, 12, 27, 14]",7,1,[24],61.59432051,16349,1999,1,0,8,1.2804562106751427
basic,71,12,0,1,0,14,"[0, 22, 16, 4, 12, 27, 14]",7,1,[24],61.59432051,17739,1390,1,0,8,1.2804562106751427
basic,72,43,0,0,0,0,[0],1,23,"[1, 2, 3, 4, 5, 6, 7, 9, 10, 11, 12, 14, 15, 16, 17, 19, 20, 21, 22, 23, 25, 27, 29]",300,165,-1,16,556,12,0.0
basic,72,43,0,0,0,29,"[0, 29]",2,22,"[1, 2, 3, 4, 5, 6, 7, 9, 10, 11, 12, 14, 15, 16, 17, 19, 20, 21, 22, 23, 25, 27]",277.909278,2804,2639,16,520,12,1.0
basic,72,43,0,0,0,20,"[0, 29, 20]",3,20,"[1, 2, 3, 4, 6, 7, 9, 10, 11, 12, 14, 15, 16, 17, 19, 21, 22, 23, 25, 27]",254.4785289,4567,1763,15,422,12,1.082311746871282
basic,72,43,0,0,0,16,"[0, 29, 20, 16]",4,19,"[1, 2, 3, 4, 6, 7, 9, 10, 11, 12, 14, 15, 17, 19, 21, 22, 23, 25, 27]",231.8511119,6335,1768,15,389,12,1.215201926898219
basic,72,43,0,0,0,11,"[0, 29, 20, 16, 11]",5,17,"[1, 2, 3, 4, 6, 7, 9, 10, 12, 14, 15, 17, 19, 21, 22, 23, 25]",196.7227758,8400,2065,12,188,12,1.1349145516483516
basic,72,43,0,0,0,6,"[0, 29, 20, 16, 11, 6]",6,15,"[1, 2, 3, 4, 7, 10, 12, 14, 15, 17, 19, 21, 22, 23, 25]",176.1072477,10485,2085,10,100,12,1.123330873754209
basic,72,43,0,0,0,22,"[0, 29, 20, 16, 11, 6, 22]",7,10,"[1, 3, 4, 7, 12, 14, 15, 19, 23, 25]",127.0664483,12417,1932,2,36,12,1.449950324670612
basic,72,43,0,0,0,19,"[0, 29, 20, 16, 11, 6, 22, 19]",8,9,"[1, 3, 4, 7, 12, 14, 15, 23, 25]",106.4509202,14433,2016,2,14,12,1.39319676182956
basic,72,43,0,0,0,3,"[0, 29, 20, 16, 11, 6, 22, 19, 3]",9,4,"[1, 12, 15, 25]",65.34131062,15965,1532,2,4,12,2.10644803593285
basic,72,43,0,0,0,12,"[0, 29, 20, 16, 11, 6, 22, 19, 3, 12]",10,2,"[15, 25]",52.34131062,17332,1367,2,0,12,2.505183951542712
basic,72,43,0,0,0,15,"[0, 29, 20, 16, 11, 6, 22, 19, 3, 12, 15]",11,1,[25],33.0281027,19202,1870,1,0,12,3.2289737980912396
basic,72,43,0,0,1,25,"[0, 29, 20, 16, 11, 6, 22, 19, 3, 12, 15, 25]",12,0,[],10.35653461,22134,2932,1,0,12,3.652064273363371
basic,72,43,0,1,1,25,"[0, 29, 20, 16, 11, 6, 22, 19, 3, 12, 15, 25]",12,0,[],10.35653461,24139,2005,1,0,12,3.652064273363371
basic,73,2,0,0,0,0,[0],1,23,"[1, 2, 4, 5, 6, 7, 8, 9, 12, 13, 15, 16, 17, 18, 19, 20, 22, 23, 25, 26, 27, 28, 29]",300,158,-1,70,620,10,0.0
basic,73,2,0,0,0,19,"[0, 19]",2,22,"[1, 2, 4, 5, 6, 7, 8, 9, 12, 13, 15, 16, 17, 18, 20, 22, 23, 25, 26, 27, 28, 29]",210.306076,4306,4148,67,431,10,1.0
basic,73,2,0,0,0,12,"[0, 19, 12]",3,17,"[1, 4, 5, 6, 7, 13, 15, 16, 17, 18, 20, 22, 25, 26, 27, 28, 29]",174.2921898,7435,3129,66,298,10,1.1107635036313153
basic,73,2,0,0,0,5,"[0, 19, 12, 5]",4,11,"[1, 6, 7, 13, 15, 16, 18, 22, 25, 26, 29]",144.7625437,8836,1401,38,136,10,1.0968174771581647
basic,73,2,0,0,0,22,"[0, 19, 12, 5, 22]",5,8,"[1, 6, 7, 13, 15, 18, 26, 29]",131.9562952,10651,1815,20,63,10,1.0889910507461968
basic,73,2,0,0,0,13,"[0, 19, 12, 5, 22, 13]",6,7,"[1, 6, 7, 15, 18, 26, 29]",117.0902265,11751,1100,19,20,10,1.236526217328057
basic,73,2,0,0,0,18,"[0, 19, 12, 5, 22, 13, 18]",7,4,"[7, 15, 26, 29]",81.91921567,13801,2050,10,3,10,1.2128708213409936
basic,73,2,0,0,0,7,"[0, 19, 12, 5, 22, 13, 18, 7]",8,3,"[15, 26, 29]",71.62358553,15634,1833,5,0,10,1.2019811287894737
basic,73,2,0,0,0,15,"[0, 19, 12, 5, 22, 13, 18, 7, 15]",9,2,"[26, 29]",56.85876247,19671,4037,2,0,10,1.2907869828541363
basic,73,2,0,0,1,26,"[0, 19, 12, 5, 22, 13, 18, 7, 15, 26]",10,0,[],32.6513256,22300,2629,1,0,10,1.2648554428941847
basic,73,2,0,1,1,26,"[0, 19, 12, 5, 22, 13, 18, 7, 15, 26]",10,0,[],32.6513256,23206,906,1,0,10,1.2648554428941847
basic,74,9,0,0,0,0,[0],1,27,"[1, 3, 4, 5, 6, 7, 8, 9, 10, 11, 13, 14, 15, 16, 17, 18, 19, 20, 21, 22, 23, 24, 25, 26, 27, 28, 29]",300,162,-1,2,182,10,0.0
basic,74,9,0,0,0,7,"[0, 7]",2,19,"[3, 4, 5, 8, 9, 10, 11, 16, 17, 18, 19, 20, 21, 22, 23, 25, 26, 27, 28]",258.4067313,4868,4706,39,322,9,1.0
basic,74,9,0,0,0,4,"[0, 7, 4]",3,15,"[3, 8, 9, 10, 11, 18, 19, 20, 21, 22, 23, 25, 26, 27, 28]",243.4067313,7883,3015,32,159,9,1.002790151820037
basic,74,9,0,0,0,27,"[0, 7, 4, 27]",4,11,"[8, 9, 10, 11, 20, 21, 22, 23, 25, 26, 28]",181.165266,9165,1282,19,48,9,2.2170504989781823
