condition,trial_id,map_id,undoIndicator,submit,checkEnd,currentChoice,chosen_all,n_city_all,n_within_reach,cities_reach,currentBudget,time_all,rt_all,n_opt_paths_all,n_subopt_paths_all,mas_all,tortuosity_all
undo,0,25,0,0,0,0,[0],1,28,"[1, 2, 3, 4, 5, 7, 8, 9, 10, 11, 12, 13, 14, 15, 16, 17, 18, 19, 20, 21, 22, 23, 24, 25, 26, 27, 28, 29]",300,484,-1,5,94,10,0.0
undo,0,25,0,0,0,23,"[0, 23]",2,23,"[1, 2, 3, 5, 7, 8, 9, 11, 12, 13, 14, 16, 17, 19, 20, 21, 22, 24, 25, 26, 27, 28, 29]",259.7756293,10020,9536,3,33,10,1.0
undo,0,25,0,0,0,19,"[0, 23, 19]",3,21,"[1, 2, 3, 5, 7, 8, 9, 11, 12, 13, 14, 16, 17, 20, 21, 22, 24, 25, 27, 28, 29]",223.9287326,11373,1353,3,24,10,1.583101227007039
undo,0,25,0,0,0,29,"[0, 23, 19, 29]",4,19,"[1, 2, 3, 5, 7, 8, 9, 11, 12, 13, 14, 16, 17, 20, 21, 22, 24, 25, 28]",207.649912,13052,1679,3,17,10,1.474631541426484
undo,0,25,0,0,0,22,"[0, 23, 19, 29, 22]",5,18,"[1, 2, 3, 5, 7, 8, 9, 11, 12, 13, 14, 16, 17, 20, 21, 24, 25, 28]",191.5253965,14463,1411,3,14,10,1.4020377754906637
undo,0,25,0,0,0,7,"[0, 23, 19, 29, 22, 7]",6,7,"[3, 8, 9, 11, 13, 24, 28]",115.8814939,21154,6691,3,11,10,1.5709678649326715
undo,0,25,0,0,0,24,"[0, 23, 19, 29, 22, 7, 24]",7,5,"[3, 8, 9, 13, 28]",91.12265712,22630,1476,3,7,10,1.486191600033379
undo,0,25,0,0,0,9,"[0, 23, 19, 29, 22, 7, 24, 9]",8,4,"[3, 8, 13, 28]",73.09490075,23825,1195,3,3,10,1.453504870342882
undo,0,25,0,0,0,3,"[0, 23, 19, 29, 22, 7, 24, 9, 3]",9,3,"[8, 13, 28]",42.82940885,26450,2625,3,0,10,1.388955167525479
undo,0,25,0,0,1,28,"[0, 23, 19, 29, 22, 7, 24, 9, 3, 28]",10,0,[],11.52445716,27921,1471,1,0,10,1.3331084120212044
undo,0,25,0,1,1,28,"[0, 23, 19, 29, 22, 7, 24, 9, 3, 28]",10,0,[],11.52445716,30035,2114,1,0,10,1.3331084120212044
undo,1,3,0,0,0,0,[0],1,29,"[1, 2, 3, 4, 5, 6, 7, 8, 9, 10, 11, 12, 13, 14, 15, 16, 17, 18, 19, 20, 21, 22, 23, 24, 25, 26, 27, 28, 29]",300,392,-1,34,427,10,0.0
undo,1,3,0,0,0,7,"[0, 7]",2,28,"[1, 2, 3, 4, 5, 6, 8, 9, 10, 11, 12, 13, 14, 15, 16, 17, 18, 19, 20, 21, 22, 23, 24, 25, 26, 27, 28, 29]",278.8103799,5093,4701,24,215,10,1.0
undo,1,3,1,0,0,0,[0],1,29,"[1, 2, 3, 4, 5, 6, 7, 8, 9, 10, 11, 12, 13, 14, 15, 16, 17, 18, 19, 20, 21, 22, 23, 24, 25, 26, 27, 28, 29]",300,6814,1721,34,427,10,0.0
undo,1,3,0,0,0,8,"[0, 8]",2,28,"[1, 2, 3, 4, 5, 6, 7, 9, 10, 11, 12, 13, 14, 15, 16, 17, 18, 19, 20, 21, 22, 23, 24, 25, 26, 27, 28, 29]",239.9666759,11578,4764,1,54,10,1.0
undo,1,3,0,0,0,24,"[0, 8, 24]",3,23,"[1, 2, 3, 4, 5, 6, 7, 10, 11, 12, 14, 15, 16, 17, 18, 19, 20, 21, 22, 25, 26, 27, 28]",227.8011509,12839,1261,1,50,10,1.2267083825981846
undo,1,3,0,0,0,17,"[0, 8, 24, 17]",4,11,"[3, 4, 7, 10, 14, 15, 16, 19, 20, 21, 27]",158.4469873,14194,1355,1,18,10,1.3836579788002414
undo,1,3,0,0,0,20,"[0, 8, 24, 17, 20]",5,9,"[3, 4, 7, 10, 14, 15, 16, 19, 21]",145.7978767,15961,1767,1,14,10,1.3620097615632467
undo,1,3,0,0,0,3,"[0, 8, 24, 17, 20, 3]",6,5,"[4, 10, 14, 19, 21]",125.4017986,17487,1526,1,11,10,1.3956695218398405
undo,1,3,0,0,0,14,"[0, 8, 24, 17, 20, 3, 14]",7,4,"[4, 10, 19, 21]",79.91553697,19483,1996,3,2,9,1.709990368717013
undo,1,3,0,0,0,19,"[0, 8, 24, 17, 20, 3, 14, 19]",8,1,[21],52.98971293,21060,1577,1,0,9,1.673732706152295
undo,1,3,0,0,1,21,"[0, 8, 24, 17, 20, 3, 14, 19, 21]",9,0,[],40.78315731,22875,1815,1,0,9,1.685751509942779
undo,1,3,0,1,1,21,"[0, 8, 24, 17, 20, 3, 14, 19, 21]",9,0,[],40.78315731,26997,4122,1,0,9,1.685751509942779
undo,2,18,0,0,0,0,[0],1,28,"[1, 2, 3, 4, 5, 6, 7, 8, 9, 10, 11, 12, 13, 14, 16, 17, 18, 19, 20, 21, 22, 23, 24, 25, 26, 27, 28, 29]",300,433,-1,3,136,10,0.0
undo,2,18,0,0,0,28,"[0, 28]",2,16,"[1, 3, 5, 7, 8, 9, 12, 13, 14, 16, 20, 23, 24, 25, 26, 27]",236.4311397,5099,4666,2,19,10,1.0
undo,2,18,0,0,0,7,"[0, 28, 7]",3,15,"[1, 3, 5, 8, 9, 12, 13, 14, 16, 20, 23, 24, 25, 26, 27]",214.4084242,6210,1111,2,17,10,1.4345180696367563
undo,2,18,0,0,0,25,"[0, 28, 7, 25]",4,13,"[1, 3, 5, 8, 9, 12, 13, 14, 16, 20, 23, 26, 27]",186.6055466,7557,1347,2,15,10,1.8896451241781882
undo,2,18,0,0,0,8,"[0, 28, 7, 25, 8]",5,10,"[3, 5, 9, 12, 13, 14, 16, 23, 26, 27]",149.551532,10207,2650,2,10,10,1.590467437592877
undo,2,18,0,0,0,13,"[0, 28, 7, 25, 8, 13]",6,9,"[3, 5, 9, 12, 14, 16, 23, 26, 27]",128.4565089,11959,1752,2,5,10,1.8248274983549797
undo,2,18,0,0,0,14,"[0, 28, 7, 25, 8, 13, 14]",7,7,"[3, 5, 9, 12, 23, 26, 27]",109.4828429,13095,1136,2,3,10,1.6993534956692746
undo,2,18,0,0,0,3,"[0, 28, 7, 25, 8, 13, 14, 3]",8,3,"[5, 12, 27]",79.39962499,14190,1095,2,1,10,1.802637206541468
undo,2,18,0,0,0,5,"[0, 28, 7, 25, 8, 13, 14, 3, 5]",9,1,[12],21.21887216,18204,4014,1,0,10,1.559774889743805
undo,2,18,0,0,1,12,"[0, 28, 7, 25, 8, 13, 14, 3, 5, 12]",10,0,[],9.817117911,19588,1384,1,0,10,1.563993037384447
undo,2,18,0,1,1,12,"[0, 28, 7, 25, 8, 13, 14, 3, 5, 12]",10,0,[],9.817117911,21237,1649,1,0,10,1.563993037384447
undo,3,45,0,0,0,0,[0],1,24,"[1, 2, 3, 4, 5, 6, 7, 9, 10, 11, 12, 14, 15, 16, 17, 19, 20, 21, 22, 23, 24, 25, 27, 29]",300,412,-1,6,248,10,0.0
undo,3,45,0,0,0,17,"[0, 17]",2,22,"[1, 2, 3, 4, 5, 6, 7, 9, 10, 11, 12, 14, 15, 16, 19, 20, 21, 22, 23, 24, 25, 29]",235.867325,5971,5559,1,34,10,1.0
undo,3,45,0,0,0,24,"[0, 17, 24]",3,20,"[1, 2, 3, 4, 5, 6, 7, 9, 10, 11, 12, 14, 15, 16, 19, 20, 21, 22, 23, 29]",193.8078433,7740,1769,1,33,10,1.0309432256229287
undo,3,45,0,0,0,7,"[0, 17, 24, 7]",4,18,"[1, 2, 3, 4, 5, 6, 9, 10, 12, 14, 15, 16, 19, 20, 21, 22, 23, 29]",159.3985423,8955,1215,1,32,10,1.059763151913087
undo,3,45,0,0,0,2,"[0, 17, 24, 7, 2]",5,12,"[3, 4, 6, 10, 12, 14, 16, 19, 20, 22, 23, 29]",121.3853866,12692,3737,1,23,10,1.0656581932115423
undo,3,45,0,0,0,3,"[0, 17, 24, 7, 2, 3]",6,8,"[6, 10, 12, 14, 16, 20, 22, 29]",96.06740884,15995,3303,1,13,10,1.1368250049574795
undo,3,45,0,0,0,29,"[0, 17, 24, 7, 2, 3, 29]",7,5,"[6, 10, 12, 20, 22]",76.06740884,17674,1679,1,5,10,1.390376182346372
undo,3,45,0,0,0,10,"[0, 17, 24, 7, 2, 3, 29, 10]",8,2,"[6, 12]",54.52674961,19401,1727,1,1,10,1.6682270697663164
undo,3,45,0,0,0,6,"[0, 17, 24, 7, 2, 3, 29, 10, 6]",9,1,[12],28.27794012,22538,3137,1,0,10,1.5776211572942243
undo,3,45,0,0,1,12,"[0, 17, 24, 7, 2, 3, 29, 10, 6, 12]",10,0,[],8.15332832,23621,1083,1,0,10,1.536035114105263
undo,3,45,0,1,1,12,"[0, 17, 24, 7, 2, 3, 29, 10, 6, 12]",10,0,[],8.15332832,24999,1378,1,0,10,1.536035114105263
undo,4,8,0,0,0,0,[0],1,29,"[1, 2, 3, 4, 5, 6, 7, 8, 9, 10, 11, 12, 13, 14, 15, 16, 17, 18, 19, 20, 21, 22, 23, 24, 25, 26, 27, 28, 29]",300,449,-1,10,149,9,0.0
undo,4,8,0,0,0,5,"[0, 5]",2,28,"[1, 2, 3, 4, 6, 7, 8, 9, 10, 11, 12, 13, 14, 15, 16, 17, 18, 19, 20, 21, 22, 23, 24, 25, 26, 27, 28, 29]",254.5137383,7199,6750,10,100,9,1.0
undo,4,8,0,0,0,14,"[0, 5, 14]",3,20,"[1, 2, 3, 4, 6, 7, 11, 15, 16, 17, 18, 19, 20, 21, 22, 23, 24, 25, 28, 29]",214.5512559,8744,1545,4,36,9,1.0001019035932595
undo,4,8,0,0,0,25,"[0, 5, 14, 25]",4,16,"[1, 3, 4, 6, 11, 15, 16, 17, 18, 20, 21, 22, 23, 24, 28, 29]",169.4513668,12649,3905,9,37,8,1.8918105093907904
undo,4,8,0,0,0,1,"[0, 5, 14, 25, 1]",5,12,"[3, 4, 6, 11, 16, 17, 18, 20, 21, 22, 23, 28]",144.4513668,14081,1432,6,17,8,1.669095890814316
undo,4,8,0,0,0,23,"[0, 5, 14, 25, 1, 23]",6,7,"[3, 4, 6, 17, 18, 21, 28]",121.4296379,15485,1404,4,5,8,1.5366044444966092
undo,4,8,0,0,0,18,"[0, 5, 14, 25, 1, 23, 18]",7,3,"[4, 17, 28]",79.6684119,18399,2914,3,0,8,1.6668365933940024
undo,4,8,0,0,1,4,"[0, 5, 14, 25, 1, 23, 18, 4]",8,0,[],36.65678556,22258,3859,1,0,8,1.6136602012138375
undo,4,8,1,0,0,18,"[0, 5, 14, 25, 1, 23, 18]",7,3,"[4, 17, 28]",79.6684119,25297,3039,3,0,8,1.6668365933940024
undo,4,8,1,0,0,23,"[0, 5, 14, 25, 1, 23]",6,7,"[3, 4, 6, 17, 18, 21, 28]",121.4296379,25682,385,4,5,8,1.5366044444966092
undo,4,8,1,0,0,1,"[0, 5, 14, 25, 1]",5,12,"[3, 4, 6, 11, 16, 17, 18, 20, 21, 22, 23, 28]",144.4513668,26172,490,6,17,8,1.669095890814316
undo,4,8,1,0,0,25,"[0, 5, 14, 25]",4,16,"[1, 3, 4, 6, 11, 15, 16, 17, 18, 20, 21, 22, 23, 24, 28, 29]",169.4513668,26366,194,9,37,8,1.8918105093907904
undo,4,8,1,0,0,14,"[0, 5, 14]",3,20,"[1, 2, 3, 4, 6, 7, 11, 15, 16, 17, 18, 19, 20, 21, 22, 23, 24, 25, 28, 29]",214.5512559,26610,244,4,36,9,1.0001019035932595
undo,4,8,1,0,0,5,"[0, 5]",2,28,"[1, 2, 3, 4, 6, 7, 8, 9, 10, 11, 12, 13, 14, 15, 16, 17, 18, 19, 20, 21, 22, 23, 24, 25, 26, 27, 28, 29]",254.5137383,26870,260,10,100,9,1.0
undo,4,8,1,0,0,0,[0],1,29,"[1, 2, 3, 4, 5, 6, 7, 8, 9, 10, 11, 12, 13, 14, 15, 16, 17, 18, 19, 20, 21, 22, 23, 24, 25, 26, 27, 28, 29]",300,27211,341,10,149,9,0.0
undo,4,8,0,0,0,5,"[0, 5]",2,28,"[1, 2, 3, 4, 6, 7, 8, 9, 10, 11, 12, 13, 14, 15, 16, 17, 18, 19, 20, 21, 22, 23, 24, 25, 26, 27, 28, 29]",254.5137383,32220,5009,10,100,9,1.0
undo,4,8,0,0,0,14,"[0, 5, 14]",3,20,"[1, 2, 3, 4, 6, 7, 11, 15, 16, 17, 18, 19, 20, 21, 22, 23, 24, 25, 28, 29]",214.5512559,33760,1540,4,36,9,1.0001019035932595
undo,4,8,0,0,0,17,"[0, 5, 14, 17]",4,15,"[1, 4, 6, 7, 11, 15, 16, 18, 19, 20, 22, 23, 24, 25, 28]",177.5377449,35226,1466,4,16,9,1.121197267659591
undo,4,8,0,0,0,11,"[0, 5, 14, 17, 11]",5,11,"[1, 4, 15, 16, 18, 19, 22, 23, 24, 25, 28]",152.3583883,36797,1571,4,8,9,1.1277254166016362
undo,4,8,0,0,0,24,"[0, 5, 14, 17, 11, 24]",6,3,"[15, 16, 28]",115.1428001,40699,3902,2,2,9,1.1227411011978805
undo,4,8,0,0,0,15,"[0, 5, 14, 17, 11, 24, 15]",7,2,"[16, 28]",98.37974552,42138,1439,2,0,9,1.1956385406066814
undo,4,8,0,0,0,16,"[0, 5, 14, 17, 11, 24, 15, 16]",8,1,[28],47.30137436,45765,3627,1,0,9,1.36482239111247
undo,4,8,0,0,1,28,"[0, 5, 14, 17, 11, 24, 15, 16, 28]",9,0,[],24.94069458,48102,2337,1,0,9,1.632953105226947
undo,4,8,0,1,1,28,"[0, 5, 14, 17, 11, 24, 15, 16, 28]",9,0,[],24.94069458,51037,2935,1,0,9,1.632953105226947
undo,5,11,0,0,0,0,[0],1,25,"[1, 2, 3, 4, 5, 6, 8, 9, 10, 11, 12, 13, 14, 15, 16, 17, 18, 19, 20, 22, 23, 25, 26, 27, 28]",300,438,-1,6,374,12,0.0
undo,5,11,0,0,0,1,"[0, 1]",2,24,"[2, 3, 4, 5, 6, 8, 9, 10, 11, 12, 13, 14, 15, 16, 17, 18, 19, 20, 22, 23, 25, 26, 27, 28]",264.6446609,3692,3254,6,217,12,1.0
undo,5,11,0,0,0,18,"[0, 1, 18]",3,19,"[2, 4, 5, 6, 8, 9, 11, 12, 14, 15, 16, 17, 19, 20, 22, 23, 25, 27, 28]",212.3187591,13011,9319,6,161,12,1.3884463804898786
undo,5,11,0,0,0,27,"[0, 1, 18, 27]",4,18,"[2, 4, 5, 6, 8, 9, 11, 12, 14, 15, 16, 17, 19, 20, 22, 23, 25, 28]",188.4650382,15498,2487,6,155,12,1.3600813284083875
undo,5,11,0,0,0,8,"[0, 1, 18, 27, 8]",5,11,"[2, 5, 6, 11, 12, 15, 17, 19, 22, 25, 28]",118.2510795,16905,1407,4,75,12,1.2516561493067806
undo,5,11,0,0,0,17,"[0, 1, 18, 27, 8, 17]",6,10,"[2, 5, 6, 11, 12, 15, 19, 22, 25, 28]",103.9332585,18292,1387,4,40,12,1.3330781007673067
undo,5,11,0,0,0,15,"[0, 1, 18, 27, 8, 17, 15]",7,7,"[2, 5, 11, 12, 19, 22, 28]",91.28414782,19912,1620,4,35,12,1.3305073448996472
undo,5,11,0,0,0,11,"[0, 1, 18, 27, 8, 17, 15, 11]",8,5,"[2, 5, 19, 22, 28]",73.17337754,21313,1401,4,17,12,1.308363545391271
undo,5,11,0,0,0,28,"[0, 1, 18, 27, 8, 17, 15, 11, 28]",9,3,"[2, 5, 22]",53.7568897,22483,1170,3,3,12,1.4249903205603536
undo,5,11,0,0,0,5,"[0, 1, 18, 27, 8, 17, 15, 11, 28, 5]",10,2,"[2, 22]",35.86834588,24174,1691,1,1,12,1.623497724154086
undo,5,11,0,0,0,2,"[0, 1, 18, 27, 8, 17, 15, 11, 28, 5, 2]",11,1,[22],18.86834588,25488,1314,1,0,12,1.5750723003139413
undo,5,11,0,0,1,22,"[0, 1, 18, 27, 8, 17, 15, 11, 28, 5, 2, 22]",12,0,[],8.818470263,26678,1190,1,0,12,1.5444525284394994
undo,5,11,0,1,1,22,"[0, 1, 18, 27, 8, 17, 15, 11, 28, 5, 2, 22]",12,0,[],8.818470263,29844,3166,1,0,12,1.5444525284394994
undo,6,42,0,0,0,0,[0],1,29,"[1, 2, 3, 4, 5, 6, 7, 8, 9, 10, 11, 12, 13, 14, 15, 16, 17, 18, 19, 20, 21, 22, 23, 24, 25, 26, 27, 28, 29]",300,437,-1,16,302,9,0.0
undo,6,42,0,0,0,5,"[0, 5]",2,28,"[1, 2, 3, 4, 6, 7, 8, 9, 10, 11, 12, 13, 14, 15, 16, 17, 18, 19, 20, 21, 22, 23, 24, 25, 26, 27, 28, 29]",191.2939744,6552,6115,1,22,9,1.0
undo,6,42,0,0,0,4,"[0, 5, 4]",3,23,"[1, 2, 3, 6, 7, 8, 9, 10, 11, 13, 15, 17, 18, 19, 20, 21, 22, 23, 24, 25, 26, 27, 29]",171.4445412,7905,1353,1,14,9,1.420957801478707
undo,6,42,0,0,0,22,"[0, 5, 4, 22]",4,20,"[1, 2, 3, 6, 7, 8, 9, 11, 15, 17, 18, 19, 20, 21, 23, 24, 25, 26, 27, 29]",160.2642013,9532,1627,1,11,9,1.5771494659680896
undo,6,42,0,0,0,8,"[0, 5, 4, 22, 8]",5,14,"[1, 2, 3, 6, 7, 11, 15, 18, 19, 24, 25, 26, 27, 29]",138.1282577,11687,2155,1,10,9,1.5055393955524201
undo,6,42,0,0,0,1,"[0, 5, 4, 22, 8, 1]",6,5,"[2, 7, 19, 26, 27]",89.03650682,15092,3405,1,7,9,1.3547259083637835
undo,6,42,0,0,0,7,"[0, 5, 4, 22, 8, 1, 7]",7,4,"[2, 19, 26, 27]",59.03650682,16638,1546,1,3,9,1.3909715672447451
undo,6,42,0,0,0,26,"[0, 5, 4, 22, 8, 1, 7, 26]",8,1,[27],32.46584631,18244,1606,1,0,9,1.3511825943939393
undo,6,42,0,0,1,27,"[0, 5, 4, 22, 8, 1, 7, 26, 27]",9,0,[],14.43808994,19345,1101,1,0,9,1.3391911688802078
undo,6,42,0,1,1,27,"[0, 5, 4, 22, 8, 1, 7, 26, 27]",9,0,[],14.43808994,20583,1238,1,0,9,1.3391911688802078
undo,7,2,0,0,0,0,[0],1,23,"[1, 2, 4, 5, 6, 7, 8, 9, 12, 13, 15, 16, 17, 18, 19, 20, 22, 23, 25, 26, 27, 28, 29]",300,391,-1,70,620,10,0.0
undo,7,2,0,0,0,19,"[0, 19]",2,22,"[1, 2, 4, 5, 6, 7, 8, 9, 12, 13, 15, 16, 17, 18, 20, 22, 23, 25, 26, 27, 28, 29]",210.306076,3703,3312,67,431,10,1.0
undo,7,2,0,0,0,12,"[0, 19, 12]",3,17,"[1, 4, 5, 6, 7, 13, 15, 16, 17, 18, 20, 22, 25, 26, 27, 28, 29]",174.2921898,4926,1223,66,298,10,1.1107635036313153
undo,7,2,0,0,0,5,"[0, 19, 12, 5]",4,11,"[1, 6, 7, 13, 15, 16, 18, 22, 25, 26, 29]",144.7625437,6535,1609,38,136,10,1.0968174771581647
undo,7,2,0,0,0,22,"[0, 19, 12, 5, 22]",5,8,"[1, 6, 7, 13, 15, 18, 26, 29]",131.9562952,8027,1492,20,63,10,1.0889910507461968
undo,7,2,0,0,0,13,"[0, 19, 12, 5, 22, 13]",6,7,"[1, 6, 7, 15, 18, 26, 29]",117.0902265,9042,1015,19,20,10,1.236526217328057
undo,7,2,0,0,0,18,"[0, 19, 12, 5, 22, 13, 18]",7,4,"[7, 15, 26, 29]",81.91921567,10569,1527,10,3,10,1.2128708213409936
undo,7,2,0,0,0,7,"[0, 19, 12, 5, 22, 13, 18, 7]",8,3,"[15, 26, 29]",71.62358553,12052,1483,5,0,10,1.2019811287894737
undo,7,2,0,0,0,26,"[0, 19, 12, 5, 22, 13, 18, 7, 26]",9,2,"[15, 29]",48.82007703,13439,1387,2,0,10,1.1883593342191134
undo,7,2,0,0,1,15,"[0, 19, 12, 5, 22, 13, 18, 7, 26, 15]",10,0,[],24.61264015,16971,3532,1,0,10,1.4619750353663825
undo,7,2,0,1,1,15,"[0, 19, 12, 5, 22, 13, 18, 7, 26, 15]",10,0,[],24.61264015,18773,1802,1,0,10,1.4619750353663825
undo,8,17,0,0,0,0,[0],1,28,"[1, 2, 3, 4, 5, 6, 7, 8, 9, 10, 11, 12, 13, 14, 15, 16, 17, 18, 19, 20, 22, 23, 24, 25, 26, 27, 28, 29]",300,688,-1,2,73,8,0.0
undo,8,17,0,0,0,9,"[0, 9]",2,25,"[1, 2, 3, 5, 6, 7, 8, 10, 11, 12, 14, 15, 16, 17, 18, 19, 20, 22, 23, 24, 25, 26, 27, 28, 29]",210.5293344,15588,14900,1,34,8,1.0
undo,8,17,0,0,0,16,"[0, 9, 16]",3,21,"[1, 2, 3, 5, 7, 8, 10, 11, 12, 14, 17, 18, 19, 20, 22, 23, 25, 26, 27, 28, 29]",197.1876704,16769,1181,1,26,8,1.173103464220352
undo,8,17,0,0,0,2,"[0, 9, 16, 2]",4,18,"[1, 3, 5, 7, 8, 10, 11, 12, 14, 17, 18, 19, 23, 25, 26, 27, 28, 29]",181.0631549,18189,1420,1,23,8,1.14825089247282
undo,8,17,0,0,0,17,"[0, 9, 16, 2, 17]",5,7,"[7, 8, 12, 14, 26, 27, 29]",142.7356191,19672,1483,4,5,7,1.4896040699768547
undo,8,17,0,0,0,8,"[0, 9, 16, 2, 17, 8]",6,3,"[7, 12, 27]",104.5256727,22184,2512,3,0,7,1.4604726966175894
undo,8,17,0,0,1,7,"[0, 9, 16, 2, 17, 8, 7]",7,0,[],33.81499459,23856,1672,1,0,7,1.4474701869793896
undo,8,17,1,0,0,8,"[0, 9, 16, 2, 17, 8]",6,3,"[7, 12, 27]",104.5256727,25849,1993,3,0,7,1.4604726966175894
undo,8,17,1,0,0,17,"[0, 9, 16, 2, 17]",5,7,"[7, 8, 12, 14, 26, 27, 29]",142.7356191,26029,180,4,5,7,1.4896040699768547
undo,8,17,1,0,0,2,"[0, 9, 16, 2]",4,18,"[1, 3, 5, 7, 8, 10, 11, 12, 14, 17, 18, 19, 23, 25, 26, 27, 28, 29]",181.0631549,26595,566,1,23,8,1.14825089247282
undo,8,17,1,0,0,16,"[0, 9, 16]",3,21,"[1, 2, 3, 5, 7, 8, 10, 11, 12, 14, 17, 18, 19, 20, 22, 23, 25, 26, 27, 28, 29]",197.1876704,26760,165,1,26,8,1.173103464220352
undo,8,17,1,0,0,9,"[0, 9]",2,25,"[1, 2, 3, 5, 6, 7, 8, 10, 11, 12, 14, 15, 16, 17, 18, 19, 20, 22, 23, 24, 25, 26, 27, 28, 29]",210.5293344,26959,199,1,34,8,1.0
undo,8,17,1,0,0,0,[0],1,28,"[1, 2, 3, 4, 5, 6, 7, 8, 9, 10, 11, 12, 13, 14, 15, 16, 17, 18, 19, 20, 22, 23, 24, 25, 26, 27, 28, 29]",300,27230,271,2,73,8,0.0
undo,8,17,0,0,0,19,"[0, 19]",2,9,"[3, 4, 5, 10, 11, 18, 20, 22, 28]",138.1049723,29814,2584,1,8,6,1.0
undo,8,17,0,0,0,5,"[0, 19, 5]",3,5,"[3, 10, 11, 22, 28]",98.81120687,31873,2059,1,5,6,1.1200340368749155
undo,8,17,0,0,0,28,"[0, 19, 5, 28]",4,2,"[3, 11]",60.32744406,33117,1244,1,1,6,1.1548774814009009
undo,8,17,0,0,0,3,"[0, 19, 5, 28, 3]",5,1,[11],26.32744406,34869,1752,1,0,6,1.444690353691831
undo,8,17,0,0,1,11,"[0, 19, 5, 28, 3, 11]",6,0,[],0.154939406,43518,8649,1,0,6,1.4783074152117983
undo,8,17,0,1,1,11,"[0, 19, 5, 28, 3, 11]",6,0,[],0.154939406,47544,4026,1,0,6,1.4783074152117983
undo,9,39,0,0,0,0,[0],1,28,"[1, 2, 3, 4, 5, 6, 7, 9, 10, 11, 12, 13, 14, 15, 16, 17, 18, 19, 20, 21, 22, 23, 24, 25, 26, 27, 28, 29]",300,439,-1,1,30,10,0.0
undo,9,39,0,0,0,22,"[0, 22]",2,15,"[1, 2, 4, 5, 7, 10, 12, 13, 16, 17, 18, 19, 24, 26, 29]",145.1581452,10103,9664,1,28,7,1.0
undo,9,39,0,0,0,26,"[0, 22, 26]",3,11,"[1, 2, 5, 7, 10, 12, 13, 16, 18, 19, 29]",127.4381,13370,3267,13,18,6,1.068336027580806
undo,9,39,0,0,0,16,"[0, 22, 26, 16]",4,4,"[7, 10, 18, 19]",94.19655977,15351,1981,4,1,6,1.0841223936645552
undo,9,39,0,0,0,19,"[0, 22, 26, 16, 19]",5,2,"[7, 18]",76.73231057,17043,1692,2,0,6,1.106832831669939
undo,9,39,0,0,1,18,"[0, 22, 26, 16, 19, 18]",6,0,[],33.55824428,22398,5355,1,0,6,1.1365041420908062
undo,9,39,0,1,1,18,"[0, 22, 26, 16, 19, 18]",6,0,[],33.55824428,23690,1292,1,0,6,1.1365041420908062
undo,10,19,0,0,0,0,[0],1,29,"[1, 2, 3, 4, 5, 6, 7, 8, 9, 10, 11, 12, 13, 14, 15, 16, 17, 18, 19, 20, 21, 22, 23, 24, 25, 26, 27, 28, 29]",300,357,-1,12,149,8,0.0
undo,10,19,0,0,0,27,"[0, 27]",2,8,"[4, 5, 6, 9, 11, 14, 22, 28]",144.275885,5385,5028,3,9,6,1.0
undo,10,19,0,0,0,28,"[0, 27, 28]",3,6,"[4, 6, 9, 11, 14, 22]",91.87359495,7060,1675,2,5,6,1.2700081812424961
undo,10,19,0,0,0,4,"[0, 27, 28, 4]",4,5,"[6, 9, 11, 14, 22]",80.69325506,8721,1661,2,3,6,1.3306967958653657
undo,10,19,0,0,0,14,"[0, 27, 28, 4, 14]",5,1,[11],30.68325606,11583,2862,1,0,6,1.2878452647436014
undo,10,19,0,0,1,11,"[0, 27, 28, 4, 14, 11]",6,0,[],19.86660224,12693,1110,1,0,6,1.2776569929706716
undo,10,19,1,0,0,14,"[0, 27, 28, 4, 14]",5,1,[11],30.68325606,15008,2315,1,0,6,1.2878452647436014
undo,10,19,1,0,0,4,"[0, 27, 28, 4]",4,5,"[6, 9, 11, 14, 22]",80.69325506,15226,218,2,3,6,1.3306967958653657
undo,10,19,1,0,0,28,"[0, 27, 28]",3,6,"[4, 6, 9, 11, 14, 22]",91.87359495,15463,237,2,5,6,1.2700081812424961
undo,10,19,1,0,0,27,"[0, 27]",2,8,"[4, 5, 6, 9, 11, 14, 22, 28]",144.275885,15729,266,3,9,6,1.0
undo,10,19,1,0,0,0,[0],1,29,"[1, 2, 3, 4, 5, 6, 7, 8, 9, 10, 11, 12, 13, 14, 15, 16, 17, 18, 19, 20, 21, 22, 23, 24, 25, 26, 27, 28, 29]",300,15996,267,12,149,8,0.0
undo,10,19,0,0,0,12,"[0, 12]",2,15,"[1, 2, 3, 5, 8, 9, 13, 16, 17, 18, 19, 21, 23, 25, 29]",180.3964883,25590,9594,9,58,7,1.0
undo,10,19,0,0,0,25,"[0, 12, 25]",3,11,"[1, 2, 3, 8, 13, 16, 17, 18, 19, 23, 29]",163.2792456,28368,2778,3,32,7,1.002593021312995
undo,10,19,0,0,0,17,"[0, 12, 25, 17]",4,10,"[1, 2, 3, 8, 13, 16, 18, 19, 23, 29]",152.2338846,29315,947,3,14,7,1.0661324787663027
undo,10,19,0,0,0,23,"[0, 12, 25, 17, 23]",5,4,"[1, 3, 8, 19]",73.51920994,31088,1773,2,2,7,1.2595880132307544
undo,10,19,0,0,0,3,"[0, 12, 25, 17, 23, 3]",6,1,[8],51.58749774,32785,1697,1,0,7,1.2326532183027346
undo,10,19,0,0,1,8,"[0, 12, 25, 17, 23, 3, 8]",7,0,[],28.26369016,34704,1919,1,0,7,1.2470086104677123
undo,10,19,0,1,1,8,"[0, 12, 25, 17, 23, 3, 8]",7,0,[],28.26369016,37119,2415,1,0,7,1.2470086104677123
undo,11,36,0,0,0,0,[0],1,24,"[2, 4, 5, 6, 7, 8, 9, 10, 12, 13, 14, 15, 16, 17, 18, 19, 20, 22, 23, 25, 26, 27, 28, 29]",300,446,-1,2,200,10,0.0
undo,11,36,0,0,0,12,"[0, 12]",2,23,"[2, 4, 5, 6, 7, 8, 9, 10, 13, 14, 15, 16, 17, 18, 19, 20, 22, 23, 25, 26, 27, 28, 29]",277.7963967,29695,29249,90,804,9,1.0
undo,11,36,0,0,0,9,"[0, 12, 9]",3,14,"[2, 4, 8, 10, 13, 16, 17, 18, 19, 23, 25, 27, 28, 29]",215.4345494,31206,1511,32,191,9,1.224429481246385
undo,11,36,0,0,0,19,"[0, 12, 9, 19]",4,13,"[2, 4, 8, 10, 13, 16, 17, 18, 23, 25, 27, 28, 29]",200.3018034,31961,755,14,61,9,1.293473472808712
undo,11,36,0,0,0,17,"[0, 12, 9, 19, 17]",5,8,"[2, 10, 13, 16, 18, 23, 25, 27]",172.4091521,32927,966,5,15,9,1.3499598639024968
undo,11,36,0,0,0,16,"[0, 12, 9, 19, 17, 16]",6,4,"[2, 13, 18, 25]",144.0895475,34116,1189,3,3,9,1.4606837012731375
undo,11,36,0,0,0,2,"[0, 12, 9, 19, 17, 16, 2]",7,2,"[13, 25]",77.44121674,35638,1522,2,0,9,1.9707818705738465
undo,11,36,0,0,0,25,"[0, 12, 9, 19, 17, 16, 2, 25]",8,1,[13],52.44121674,36797,1159,1,0,9,2.1622709973128336
undo,11,36,0,0,1,13,"[0, 12, 9, 19, 17, 16, 2, 25, 13]",9,0,[],31.84995645,38069,1272,1,0,9,2.733948540333557
undo,11,36,0,1,1,13,"[0, 12, 9, 19, 17, 16, 2, 25, 13]",9,0,[],31.84995645,39534,1465,1,0,9,2.733948540333557
undo,12,35,0,0,0,0,[0],1,29,"[1, 2, 3, 4, 5, 6, 7, 8, 9, 10, 11, 12, 13, 14, 15, 16, 17, 18, 19, 20, 21, 22, 23, 24, 25, 26, 27, 28, 29]",300,412,-1,5,236,11,0.0
undo,12,35,0,0,0,24,"[0, 24]",2,27,"[1, 2, 4, 5, 6, 7, 8, 9, 10, 11, 12, 13, 14, 15, 16, 17, 18, 19, 20, 21, 22, 23, 25, 26, 27, 28, 29]",268.9838752,2141,1729,49,512,10,1.0
undo,12,35,0,0,0,17,"[0, 24, 17]",3,26,"[1, 2, 4, 5, 6, 7, 8, 9, 10, 11, 12, 13, 14, 15, 16, 18, 19, 20, 21, 22, 23, 25, 26, 27, 28, 29]",257.2791753,4096,1955,33,238,10,1.0771477201815276
undo,12,35,0,0,0,1,"[0, 24, 17, 1]",4,25,"[2, 4, 5, 6, 7, 8, 9, 10, 11, 12, 13, 14, 15, 16, 18, 19, 20, 21, 22, 23, 25, 26, 27, 28, 29]",241.4677869,9843,5747,26,151,10,1.2244804141479215
undo,12,35,0,0,0,15,"[0, 24, 17, 1, 15]",5,23,"[2, 4, 5, 6, 7, 8, 9, 10, 11, 12, 14, 16, 18, 19, 20, 21, 22, 23, 25, 26, 27, 28, 29]",218.6204676,11824,1981,26,78,10,1.4642196672428094
undo,12,35,1,0,0,1,"[0, 24, 17, 1]",4,25,"[2, 4, 5, 6, 7, 8, 9, 10, 11, 12, 13, 14, 15, 16, 18, 19, 20, 21, 22, 23, 25, 26, 27, 28, 29]",241.4677869,16208,4384,26,151,10,1.2244804141479215
undo,12,35,1,0,0,17,"[0, 24, 17]",3,26,"[1, 2, 4, 5, 6, 7, 8, 9, 10, 11, 12, 13, 14, 15, 16, 18, 19, 20, 21, 22, 23, 25, 26, 27, 28, 29]",257.2791753,16528,320,33,238,10,1.0771477201815276
undo,12,35,1,0,0,24,"[0, 24]",2,27,"[1, 2, 4, 5, 6, 7, 8, 9, 10, 11, 12, 13, 14, 15, 16, 17, 18, 19, 20, 21, 22, 23, 25, 26, 27, 28, 29]",268.9838752,16789,261,49,512,10,1.0
undo,12,35,1,0,0,0,[0],1,29,"[1, 2, 3, 4, 5, 6, 7, 8, 9, 10, 11, 12, 13, 14, 15, 16, 17, 18, 19, 20, 21, 22, 23, 24, 25, 26, 27, 28, 29]",300,17035,246,5,236,11,0.0
undo,12,35,0,0,0,27,"[0, 27]",2,27,"[1, 2, 4, 5, 6, 7, 8, 9, 10, 11, 12, 13, 14, 15, 16, 17, 18, 19, 20, 21, 22, 23, 24, 25, 26, 28, 29]",278.7867966,19223,2188,5,144,11,1.0
undo,12,35,0,0,0,24,"[0, 27, 24]",3,25,"[1, 2, 4, 5, 6, 7, 8, 9, 10, 11, 12, 13, 15, 16, 17, 18, 19, 20, 21, 22, 23, 25, 26, 28, 29]",234.6053525,20933,1710,3,80,11,2.1084080567904624
undo,12,35,0,0,0,17,"[0, 27, 24, 17]",4,20,"[1, 2, 4, 5, 6, 7, 8, 9, 10, 15, 16, 18, 19, 20, 21, 23, 25, 26, 28, 29]",222.9006526,21666,733,3,50,11,1.9439555968916868
undo,12,35,0,0,0,1,"[0, 27, 24, 17, 1]",5,18,"[2, 4, 5, 6, 8, 9, 10, 15, 16, 18, 19, 20, 21, 23, 25, 26, 28, 29]",207.0892643,23127,1461,3,39,11,1.9436711872547336
undo,12,35,0,0,0,15,"[0, 27, 24, 17, 1, 15]",6,16,"[2, 4, 5, 6, 8, 9, 10, 16, 18, 19, 20, 23, 25, 26, 28, 29]",184.241945,26980,3853,3,24,11,2.082774572108194
undo,12,35,0,0,0,23,"[0, 27, 24, 17, 1, 15, 23]",7,7,"[5, 6, 9, 18, 19, 25, 26]",123.801892,29344,2364,3,14,11,1.657239080954205
undo,12,35,0,0,0,9,"[0, 27, 24, 17, 1, 15, 23, 9]",8,4,"[6, 18, 19, 25]",86.15883157,30730,1386,2,2,11,1.9022575917054987
undo,12,35,0,0,0,18,"[0, 27, 24, 17, 1, 15, 23, 9, 18]",9,2,"[6, 25]",66.13384718,31953,1223,2,0,11,1.8181129550839106
undo,12,35,0,0,0,6,"[0, 27, 24, 17, 1, 15, 23, 9, 18, 6]",10,1,[25],32.51837455,34029,2076,1,0,11,1.768804611828727
undo,12,35,0,0,1,25,"[0, 27, 24, 17, 1, 15, 23, 9, 18, 6, 25]",11,0,[],8.497550251,35942,1913,1,0,11,1.8000495513746106
undo,12,35,0,1,1,25,"[0, 27, 24, 17, 1, 15, 23, 9, 18, 6, 25]",11,0,[],8.497550251,37421,1479,1,0,11,1.8000495513746106
undo,13,15,0,0,0,0,[0],1,25,"[1, 2, 3, 4, 7, 8, 9, 10, 11, 12, 13, 14, 15, 16, 18, 20, 21, 22, 23, 24, 25, 26, 27, 28, 29]",300,429,-1,4,65,9,0.0
undo,13,15,0,0,0,21,"[0, 21]",2,17,"[1, 3, 4, 7, 8, 9, 11, 12, 13, 14, 15, 16, 22, 23, 24, 26, 27]",204.9158268,6614,6185,21,65,7,1.0
undo,13,15,0,0,0,12,"[0, 21, 12]",3,14,"[1, 3, 4, 7, 8, 9, 11, 13, 14, 15, 16, 22, 24, 27]",161.0866128,8716,2102,20,39,7,1.6068212046294776
undo,13,15,0,0,0,7,"[0, 21, 12, 7]",4,10,"[3, 4, 9, 11, 13, 14, 15, 16, 22, 27]",127.8450725,10788,2072,13,11,7,2.0298522511797907
undo,13,15,0,0,0,16,"[0, 21, 12, 7, 16]",5,5,"[3, 4, 11, 15, 22]",84.18731258,12290,1502,3,3,7,1.8904046427013528
undo,13,15,0,0,0,11,"[0, 21, 12, 7, 16, 11]",6,1,[3],58.16808892,14257,1967,1,0,7,1.9475991988988648
undo,13,15,0,0,1,3,"[0, 21, 12, 7, 16, 11, 3]",7,0,[],46.76633467,15335,1078,1,0,7,1.912955285957019
undo,13,15,0,1,1,3,"[0, 21, 12, 7, 16, 11, 3]",7,0,[],46.76633467,17882,2547,1,0,7,1.912955285957019
undo,14,10,0,0,0,0,[0],1,29,"[1, 2, 3, 4, 5, 6, 7, 8, 9, 10, 11, 12, 13, 14, 15, 16, 17, 18, 19, 20, 21, 22, 23, 24, 25, 26, 27, 28, 29]",300,380,-1,1,100,9,0.0
undo,14,10,0,0,0,10,"[0, 10]",2,27,"[1, 2, 3, 4, 5, 6, 7, 8, 9, 11, 12, 13, 14, 15, 17, 18, 19, 20, 21, 22, 23, 24, 25, 26, 27, 28, 29]",211.2475352,10328,9948,5,73,8,1.0
undo,14,10,0,0,0,18,"[0, 10, 18]",3,24,"[1, 2, 3, 5, 6, 7, 8, 9, 11, 12, 13, 14, 15, 17, 19, 20, 21, 23, 24, 25, 26, 27, 28, 29]",197.7939112,11414,1086,5,49,8,1.0012508773359339
undo,14,10,0,0,0,20,"[0, 10, 18, 20]",4,9,"[2, 6, 9, 11, 13, 14, 19, 26, 27]",126.4496753,16361,4947,3,23,8,1.4338595664185272
undo,14,10,0,0,0,26,"[0, 10, 18, 20, 26]",5,6,"[2, 11, 13, 14, 19, 27]",94.66917811,17699,1338,3,6,8,1.550384261377175
undo,14,10,0,0,0,14,"[0, 10, 18, 20, 26, 14]",6,2,"[2, 19]",59.99930646,19276,1577,1,1,8,1.5006492834569933
undo,14,10,0,0,0,2,"[0, 10, 18, 20, 26, 14, 2]",7,1,[19],47.8337814,20049,773,1,0,8,1.544679202540964
undo,14,10,0,0,1,19,"[0, 10, 18, 20, 26, 14, 2, 19]",8,0,[],3.9247846,21278,1229,1,0,8,2.4795493061903198
undo,14,10,0,1,1,19,"[0, 10, 18, 20, 26, 14, 2, 19]",8,0,[],3.9247846,22791,1513,1,0,8,2.4795493061903198
undo,15,22,0,0,0,0,[0],1,29,"[1, 2, 3, 4, 5, 6, 7, 8, 9, 10, 11, 12, 13, 14, 15, 16, 17, 18, 19, 20, 21, 22, 23, 24, 25, 26, 27, 28, 29]",300,479,-1,31,704,9,0.0
undo,15,22,0,0,0,16,"[0, 16]",2,21,"[1, 3, 6, 7, 8, 9, 11, 13, 14, 15, 17, 18, 19, 20, 21, 22, 24, 25, 27, 28, 29]",218.605897,5390,4911,17,147,9,1.0
undo,15,22,0,0,0,28,"[0, 16, 28]",3,13,"[6, 7, 9, 13, 14, 17, 19, 20, 21, 22, 24, 25, 29]",184.1675463,6438,1048,12,61,9,1.047282311284478
undo,15,22,0,0,0,6,"[0, 16, 28, 6]",4,12,"[7, 9, 13, 14, 17, 19, 20, 21, 22, 24, 25, 29]",154.1675463,7374,936,12,43,9,1.645645870580622
undo,15,22,0,0,0,9,"[0, 16, 28, 6, 9]",5,8,"[7, 14, 17, 19, 20, 21, 24, 29]",127.5404924,9360,1986,8,17,9,1.925750226630103
undo,15,22,0,0,0,19,"[0, 16, 28, 6, 9, 19]",6,6,"[7, 14, 17, 21, 24, 29]",107.1444143,10413,1053,3,7,9,2.4220750331476455
undo,15,22,0,0,0,29,"[0, 16, 28, 6, 9, 19, 29]",7,4,"[7, 14, 17, 24]",92.11111796,11589,1176,2,2,9,2.6996279574991067
undo,15,22,0,0,0,14,"[0, 16, 28, 6, 9, 19, 29, 14]",8,1,[7],33.86165444,14092,2503,1,0,9,2.0544639927929462
undo,15,22,0,0,1,7,"[0, 16, 28, 6, 9, 19, 29, 14, 7]",9,0,[],20.82324963,15312,1220,1,0,9,2.219817088951114
undo,15,22,0,1,1,7,"[0, 16, 28, 6, 9, 19, 29, 14, 7]",9,0,[],20.82324963,16597,1285,1,0,9,2.219817088951114
undo,16,16,0,0,0,0,[0],1,29,"[1, 2, 3, 4, 5, 6, 7, 8, 9, 10, 11, 12, 13, 14, 15, 16, 17, 18, 19, 20, 21, 22, 23, 24, 25, 26, 27, 28, 29]",300,406,-1,13,161,9,0.0
undo,16,16,0,0,0,28,"[0, 28]",2,27,"[1, 2, 3, 4, 5, 7, 8, 9, 10, 11, 12, 13, 14, 15, 16, 17, 18, 19, 20, 21, 22, 23, 24, 25, 26, 27, 29]",284.3475242,5249,4843,11,92,9,1.0
undo,16,16,0,0,0,17,"[0, 28, 17]",3,26,"[1, 2, 3, 4, 5, 7, 8, 9, 10, 11, 12, 13, 14, 15, 16, 18, 19, 20, 21, 22, 23, 24, 25, 26, 27, 29]",219.1555001,11101,5852,10,46,9,1.3773866384707543
undo,16,16,0,0,0,16,"[0, 28, 17, 16]",4,25,"[1, 2, 3, 4, 5, 7, 8, 9, 10, 11, 12, 13, 14, 15, 18, 19, 20, 21, 22, 23, 24, 25, 26, 27, 29]",190.8358956,13154,2053,10,34,9,1.3209953830681203
undo,16,16,0,0,0,21,"[0, 28, 17, 16, 21]",5,13,"[3, 5, 7, 8, 9, 10, 12, 15, 20, 22, 25, 26, 29]",146.1816685,15736,2582,4,7,9,1.8136482702070456
undo,16,16,0,0,0,8,"[0, 28, 17, 16, 21, 8]",6,6,"[5, 9, 12, 15, 20, 25]",96.92722704,17265,1529,4,2,9,1.637204572335983
undo,16,16,0,0,0,20,"[0, 28, 17, 16, 21, 8, 20]",7,2,"[9, 25]",39.15179974,18428,1163,2,0,9,1.441590377328759
undo,16,16,0,0,0,25,"[0, 28, 17, 16, 21, 8, 20, 25]",8,1,[9],26.5026891,19470,1042,1,0,9,1.484361110265371
undo,16,16,0,0,1,9,"[0, 28, 17, 16, 21, 8, 20, 25, 9]",9,0,[],13.69644062,21614,2144,1,0,9,1.4530180692918209
undo,16,16,0,1,1,9,"[0, 28, 17, 16, 21, 8, 20, 25, 9]",9,0,[],13.69644062,22829,1215,1,0,9,1.4530180692918209
undo,17,23,0,0,0,0,[0],1,28,"[1, 2, 3, 4, 5, 6, 7, 8, 9, 10, 11, 12, 13, 14, 15, 16, 17, 18, 19, 20, 21, 22, 23, 25, 26, 27, 28, 29]",300,377,-1,76,2626,10,0.0
undo,17,23,0,0,0,22,"[0, 22]",2,24,"[1, 2, 3, 5, 6, 7, 8, 9, 10, 11, 12, 13, 14, 15, 17, 18, 19, 20, 21, 23, 25, 26, 27, 29]",210.5013967,5120,4743,15,1362,10,1.0
undo,17,23,0,0,0,13,"[0, 22, 13]",3,14,"[1, 2, 5, 6, 7, 8, 9, 10, 12, 14, 18, 21, 27, 29]",168.3113504,6924,1804,14,522,10,1.1898173563652046
undo,17,23,0,0,0,27,"[0, 22, 13, 27]",4,7,"[2, 6, 9, 12, 14, 18, 29]",123.2114613,10555,3631,59,60,9,1.2347447137291254
undo,17,23,0,0,0,6,"[0, 22, 13, 27, 6]",5,5,"[2, 9, 12, 14, 29]",94.90951791,12406,1851,25,4,9,1.3650572476361236
undo,17,23,0,0,0,2,"[0, 22, 13, 27, 6, 2]",6,4,"[9, 12, 14, 29]",76.47042899,14876,2470,7,2,9,1.6380738772667878
undo,17,23,0,0,0,12,"[0, 22, 13, 27, 6, 2, 12]",7,2,"[9, 14]",62.577985,16540,1664,2,0,9,1.9367358574807247
undo,17,23,0,0,0,9,"[0, 22, 13, 27, 6, 2, 12, 9]",8,1,[14],48.26016394,18641,2101,1,0,9,1.926849993362044
undo,17,23,0,0,1,14,"[0, 22, 13, 27, 6, 2, 12, 9, 14]",9,0,[],37.81985743,20032,1391,1,0,9,1.860885019505484
undo,17,23,0,1,1,14,"[0, 22, 13, 27, 6, 2, 12, 9, 14]",9,0,[],37.81985743,22199,2167,1,0,9,1.860885019505484
undo,18,37,0,0,0,0,[0],1,29,"[1, 2, 3, 4, 5, 6, 7, 8, 9, 10, 11, 12, 13, 14, 15, 16, 17, 18, 19, 20, 21, 22, 23, 24, 25, 26, 27, 28, 29]",300,422,-1,6,168,10,0.0
undo,18,37,0,0,0,18,"[0, 18]",2,19,"[1, 2, 4, 6, 7, 9, 10, 12, 14, 15, 17, 19, 20, 21, 22, 23, 26, 28, 29]",202.4090168,6364,5942,6,89,10,1.0
undo,18,37,0,0,0,22,"[0, 18, 22]",3,9,"[1, 2, 4, 7, 15, 19, 20, 21, 26]",136.9720242,7757,1393,15,58,9,1.001057447339584
undo,18,37,0,0,0,4,"[0, 18, 22, 4]",4,8,"[1, 2, 7, 15, 19, 20, 21, 26]",111.9720242,9260,1503,8,28,9,1.1568597805027683
undo,18,37,0,0,0,2,"[0, 18, 22, 4, 2]",5,7,"[1, 7, 15, 19, 20, 21, 26]",100.57027,10249,989,7,12,9,1.3192232340552885
undo,18,37,0,0,0,1,"[0, 18, 22, 4, 2, 1]",6,6,"[7, 15, 19, 20, 21, 26]",83.36561943,11938,1689,7,4,9,1.3683384389764814
undo,18,37,0,0,0,20,"[0, 18, 22, 4, 2, 1, 20]",7,4,"[15, 19, 21, 26]",49.13113389,14164,2226,3,2,9,1.6736124378078914
undo,18,37,0,0,0,21,"[0, 18, 22, 4, 2, 1, 20, 21]",8,2,"[15, 26]",34.70892879,15700,1536,2,0,9,1.7094220750755582
undo,18,37,0,0,1,26,"[0, 18, 22, 4, 2, 1, 20, 21, 26]",9,0,[],4.976791295,21029,5329,1,0,9,1.6848569144891061
undo,18,37,0,1,1,26,"[0, 18, 22, 4, 2, 1, 20, 21, 26]",9,0,[],4.976791295,22622,1593,1,0,9,1.6848569144891061
undo,19,9,0,0,0,0,[0],1,27,"[1, 3, 4, 5, 6, 7, 8, 9, 10, 11, 13, 14, 15, 16, 17, 18, 19, 20, 21, 22, 23, 24, 25, 26, 27, 28, 29]",300,380,-1,2,182,10,0.0
undo,19,9,0,0,0,9,"[0, 9]",2,26,"[1, 3, 4, 5, 6, 7, 8, 10, 11, 13, 14, 15, 16, 17, 18, 19, 20, 21, 22, 23, 24, 25, 26, 27, 28, 29]",225.5352432,5263,4883,2,101,9,1.0
undo,19,9,0,0,0,23,"[0, 9, 23]",3,22,"[1, 3, 4, 5, 7, 8, 10, 11, 13, 15, 16, 17, 18, 19, 20, 21, 22, 24, 25, 26, 27, 28]",203.1745635,6241,978,2,70,9,1.6262276606762436
undo,19,9,0,0,0,8,"[0, 9, 23, 8]",4,18,"[3, 4, 5, 7, 10, 11, 15, 16, 17, 18, 19, 20, 21, 22, 25, 26, 27, 28]",181.7036529,7685,1444,1,36,9,1.8547307061753238
undo,19,9,0,0,0,28,"[0, 9, 23, 8, 28]",5,17,"[3, 4, 5, 7, 10, 11, 15, 16, 17, 18, 19, 20, 21, 22, 25, 26, 27]",170.8869991,8733,1048,1,23,9,1.7382749966569708
undo,19,9,0,0,0,26,"[0, 9, 23, 8, 28, 26]",6,10,"[3, 5, 10, 15, 16, 18, 19, 20, 21, 25]",126.1097727,12743,4010,4,7,8,1.4884719959249546
undo,19,9,0,0,0,21,"[0, 9, 23, 8, 28, 26, 21]",7,1,[20],72.20244484,13849,1106,1,0,8,1.9218119811471304
undo,19,9,0,0,1,20,"[0, 9, 23, 8, 28, 26, 21, 20]",8,0,[],60.11939886,15201,1352,1,0,8,1.8940565724013747
undo,19,9,1,0,0,21,"[0, 9, 23, 8, 28, 26, 21]",7,1,[20],72.20244484,17456,2255,1,0,8,1.9218119811471304
undo,19,9,1,0,0,26,"[0, 9, 23, 8, 28, 26]",6,10,"[3, 5, 10, 15, 16, 18, 19, 20, 21, 25]",126.1097727,17801,345,4,7,8,1.4884719959249546
undo,19,9,1,0,0,28,"[0, 9, 23, 8, 28]",5,17,"[3, 4, 5, 7, 10, 11, 15, 16, 17, 18, 19, 20, 21, 22, 25, 26, 27]",170.8869991,17992,191,1,23,9,1.7382749966569708
undo,19,9,1,0,0,8,"[0, 9, 23, 8]",4,18,"[3, 4, 5, 7, 10, 11, 15, 16, 17, 18, 19, 20, 21, 22, 25, 26, 27, 28]",181.7036529,18209,217,1,36,9,1.8547307061753238
undo,19,9,1,0,0,23,"[0, 9, 23]",3,22,"[1, 3, 4, 5, 7, 8, 10, 11, 13, 15, 16, 17, 18, 19, 20, 21, 22, 24, 25, 26, 27, 28]",203.1745635,18463,254,2,70,9,1.6262276606762436
undo,19,9,1,0,0,9,"[0, 9]",2,26,"[1, 3, 4, 5, 6, 7, 8, 10, 11, 13, 14, 15, 16, 17, 18, 19, 20, 21, 22, 23, 24, 25, 26, 27, 28, 29]",225.5352432,18756,293,2,101,9,1.0
undo,19,9,1,0,0,0,[0],1,27,"[1, 3, 4, 5, 6, 7, 8, 9, 10, 11, 13, 14, 15, 16, 17, 18, 19, 20, 21, 22, 23, 24, 25, 26, 27, 28, 29]",300,19106,350,2,182,10,0.0
undo,19,9,0,0,0,9,"[0, 9]",2,26,"[1, 3, 4, 5, 6, 7, 8, 10, 11, 13, 14, 15, 16, 17, 18, 19, 20, 21, 22, 23, 24, 25, 26, 27, 28, 29]",225.5352432,31018,11912,2,101,9,1.0
undo,19,9,0,0,0,23,"[0, 9, 23]",3,22,"[1, 3, 4, 5, 7, 8, 10, 11, 13, 15, 16, 17, 18, 19, 20, 21, 22, 24, 25, 26, 27, 28]",203.1745635,32522,1504,2,70,9,1.6262276606762436
undo,19,9,0,0,0,8,"[0, 9, 23, 8]",4,18,"[3, 4, 5, 7, 10, 11, 15, 16, 17, 18, 19, 20, 21, 22, 25, 26, 27, 28]",181.7036529,33784,1262,1,36,9,1.8547307061753238
undo,19,9,0,0,0,28,"[0, 9, 23, 8, 28]",5,17,"[3, 4, 5, 7, 10, 11, 15, 16, 17, 18, 19, 20, 21, 22, 25, 26, 27]",170.8869991,35044,1260,1,23,9,1.7382749966569708
undo,19,9,0,0,0,26,"[0, 9, 23, 8, 28, 26]",6,10,"[3, 5, 10, 15, 16, 18, 19, 20, 21, 25]",126.1097727,37673,2629,4,7,8,1.4884719959249546
undo,19,9,0,0,0,21,"[0, 9, 23, 8, 28, 26, 21]",7,1,[20],72.20244484,40624,2951,1,0,8,1.9218119811471304
undo,19,9,0,0,1,20,"[0, 9, 23, 8, 28, 26, 21, 20]",8,0,[],60.11939886,41626,1002,1,0,8,1.8940565724013747
undo,19,9,0,1,1,20,"[0, 9, 23, 8, 28, 26, 21, 20]",8,0,[],60.11939886,45465,3839,1,0,8,1.8940565724013747
undo,20,28,0,0,0,0,[0],1,27,"[1, 2, 3, 4, 5, 6, 7, 8, 9, 10, 11, 12, 13, 14, 15, 16, 17, 18, 19, 20, 22, 23, 25, 26, 27, 28, 29]",300,418,-1,2,96,9,0.0
undo,20,28,0,0,0,14,"[0, 14]",2,14,"[1, 2, 3, 5, 7, 10, 11, 12, 13, 17, 18, 19, 20, 26]",147.8914861,4602,4184,1,26,8,1.0
undo,20,28,0,0,0,18,"[0, 14, 18]",3,11,"[1, 2, 3, 5, 7, 11, 12, 13, 17, 19, 26]",122.3963885,5872,1270,1,23,8,1.0675599824559303
undo,20,28,0,0,0,13,"[0, 14, 18, 13]",4,7,"[2, 7, 11, 12, 17, 19, 26]",97.9832773,6856,984,1,9,8,1.0602397944415018
undo,20,28,0,0,0,12,"[0, 14, 18, 13, 12]",5,4,"[2, 7, 17, 19]",80.77862677,7808,952,1,3,8,1.0640685934245377
undo,20,28,0,0,0,7,"[0, 14, 18, 13, 12, 7]",6,2,"[2, 19]",67.62568033,10478,2670,1,1,8,1.186262804928269
undo,20,28,0,0,0,19,"[0, 14, 18, 13, 12, 7, 19]",7,1,[2],39.89483108,11589,1111,1,0,8,1.424576333867947
undo,20,28,0,0,1,2,"[0, 14, 18, 13, 12, 7, 19, 2]",8,0,[],2.531747699,13610,2021,1,0,8,1.4824387893309579
undo,20,28,0,1,1,2,"[0, 14, 18, 13, 12, 7, 19, 2]",8,0,[],2.531747699,14862,1252,1,0,8,1.4824387893309579
undo,21,21,0,0,0,0,[0],1,29,"[1, 2, 3, 4, 5, 6, 7, 8, 9, 10, 11, 12, 13, 14, 15, 16, 17, 18, 19, 20, 21, 22, 23, 24, 25, 26, 27, 28, 29]",300,427,-1,84,830,9,0.0
undo,21,21,0,0,0,20,"[0, 20]",2,28,"[1, 2, 3, 4, 5, 6, 7, 8, 9, 10, 11, 12, 13, 14, 15, 16, 17, 18, 19, 21, 22, 23, 24, 25, 26, 27, 28, 29]",217.6228187,9399,8972,6,67,9,1.0
undo,21,21,0,0,0,22,"[0, 20, 22]",3,23,"[2, 4, 6, 7, 8, 9, 10, 11, 12, 13, 14, 15, 16, 17, 18, 19, 21, 23, 24, 25, 26, 27, 29]",189.3916303,10658,1259,6,47,9,1.3451865712078994
undo,21,21,0,0,0,18,"[0, 20, 22, 18]",4,20,"[2, 4, 6, 7, 8, 9, 10, 11, 12, 14, 15, 16, 17, 21, 23, 24, 25, 26, 27, 29]",162.9908727,12127,1469,4,25,9,2.3191924394507706
undo,21,21,0,0,0,29,"[0, 20, 22, 18, 29]",5,16,"[2, 4, 6, 7, 8, 10, 12, 14, 15, 16, 17, 21, 23, 24, 25, 27]",134.3377751,14174,2047,2,10,9,1.9554738681863184
undo,21,21,0,0,0,25,"[0, 20, 22, 18, 29, 25]",6,5,"[4, 14, 17, 21, 23]",89.11609892,15537,1363,2,5,9,3.5255206171255487
undo,21,21,0,0,0,23,"[0, 20, 22, 18, 29, 25, 23]",7,3,"[4, 14, 21]",45.79174087,17064,1527,1,2,9,2.5672363743380044
undo,21,21,0,0,1,21,"[0, 20, 22, 18, 29, 25, 23, 21]",8,0,[],16.17755508,21147,4083,1,0,8,3.1574832580391976
undo,21,21,0,1,1,21,"[0, 20, 22, 18, 29, 25, 23, 21]",8,0,[],16.17755508,22581,1434,1,0,8,3.1574832580391976
undo,22,27,0,0,0,0,[0],1,26,"[1, 3, 5, 6, 7, 8, 9, 10, 11, 12, 13, 14, 15, 16, 17, 18, 19, 21, 22, 23, 24, 25, 26, 27, 28, 29]",300,436,-1,13,578,11,0.0
undo,22,27,0,0,0,15,"[0, 15]",2,24,"[1, 3, 5, 6, 7, 8, 9, 10, 11, 12, 13, 14, 16, 17, 18, 19, 21, 22, 23, 24, 25, 26, 27, 29]",263.7508621,4340,3904,6,219,11,1.0
undo,22,27,0,0,0,24,"[0, 15, 24]",3,20,"[1, 5, 6, 7, 8, 9, 10, 12, 13, 14, 16, 17, 18, 19, 21, 23, 25, 26, 27, 29]",246.5462115,5080,740,6,130,11,1.130933077698322
undo,22,27,0,0,0,17,"[0, 15, 24, 17]",4,15,"[1, 6, 8, 10, 12, 13, 14, 16, 18, 19, 23, 25, 26, 27, 29]",229.9932662,6149,1069,4,60,11,1.1285538435963374
undo,22,27,0,0,0,12,"[0, 15, 24, 17, 12]",5,14,"[1, 6, 8, 10, 13, 14, 16, 18, 19, 23, 25, 26, 27, 29]",218.8129263,8454,2305,2,32,11,1.2561880288755216
undo,22,27,0,0,0,10,"[0, 15, 24, 17, 12, 10]",6,11,"[1, 8, 13, 14, 18, 19, 23, 25, 26, 27, 29]",207.7675653,9298,844,2,28,11,1.2228289337766665
undo,22,27,0,0,0,13,"[0, 15, 24, 17, 12, 10, 13]",7,9,"[1, 8, 14, 18, 19, 23, 26, 27, 29]",167.9178476,10368,1070,2,18,11,1.3421291994761178
undo,22,27,0,0,0,19,"[0, 15, 24, 17, 12, 10, 13, 19]",8,5,"[1, 8, 14, 23, 29]",131.6825057,11643,1275,2,6,11,1.294749956153846
undo,22,27,0,0,0,8,"[0, 15, 24, 17, 12, 10, 13, 19, 8]",9,3,"[14, 23, 29]",116.816437,13797,2154,2,1,11,1.3554286578836865
undo,22,27,0,0,1,23,"[0, 15, 24, 17, 12, 10, 13, 19, 8, 23]",10,0,[],45.97859399,17075,3278,1,0,10,3.3397859539241304
undo,22,27,0,1,1,23,"[0, 15, 24, 17, 12, 10, 13, 19, 8, 23]",10,0,[],45.97859399,18734,1659,1,0,10,3.3397859539241304
basic,23,27,0,0,0,0,[0],1,26,"[1, 3, 5, 6, 7, 8, 9, 10, 11, 12, 13, 14, 15, 16, 17, 18, 19, 21, 22, 23, 24, 25, 26, 27, 28, 29]",300,1045,-1,13,578,11,0.0
basic,23,27,0,0,0,15,"[0, 15]",2,24,"[1, 3, 5, 6, 7, 8, 9, 10, 11, 12, 13, 14, 16, 17, 18, 19, 21, 22, 23, 24, 25, 26, 27, 29]",263.7508621,25927,24882,6,219,11,1.0
basic,23,27,0,0,0,24,"[0, 15, 24]",3,20,"[1, 5, 6, 7, 8, 9, 10, 12, 13, 14, 16, 17, 18, 19, 21, 23, 25, 26, 27, 29]",246.5462115,27700,1773,6,130,11,1.130933077698322
basic,23,27,0,0,0,17,"[0, 15, 24, 17]",4,15,"[1, 6, 8, 10, 12, 13, 14, 16, 18, 19, 23, 25, 26, 27, 29]",229.9932662,29522,1822,4,60,11,1.1285538435963374
basic,23,27,0,0,0,12,"[0, 15, 24, 17, 12]",5,14,"[1, 6, 8, 10, 13, 14, 16, 18, 19, 23, 25, 26, 27, 29]",218.8129263,31187,1665,2,32,11,1.2561880288755216
basic,23,27,0,0,0,10,"[0, 15, 24, 17, 12, 10]",6,11,"[1, 8, 13, 14, 18, 19, 23, 25, 26, 27, 29]",207.7675653,32328,1141,2,28,11,1.2228289337766665
basic,23,27,0,0,0,13,"[0, 15, 24, 17, 12, 10, 13]",7,9,"[1, 8, 14, 18, 19, 23, 26, 27, 29]",167.9178476,33900,1572,2,18,11,1.3421291994761178
basic,23,27,0,0,0,19,"[0, 15, 24, 17, 12, 10, 13, 19]",8,5,"[1, 8, 14, 23, 29]",131.6825057,35492,1592,2,6,11,1.294749956153846
basic,23,27,0,0,0,8,"[0, 15, 24, 17, 12, 10, 13, 19, 8]",9,3,"[14, 23, 29]",116.816437,36789,1297,2,1,11,1.3554286578836865
basic,23,27,0,0,0,29,"[0, 15, 24, 17, 12, 10, 13, 19, 8, 29]",10,1,[14],57.61339652,38702,1913,1,0,11,1.248354519573802
basic,23,27,0,0,1,14,"[0, 15, 24, 17, 12, 10, 13, 19, 8, 29, 14]",11,0,[],13.31892734,40284,1582,1,0,11,1.562811097555156
basic,23,27,0,1,1,14,"[0, 15, 24, 17, 12, 10, 13, 19, 8, 29, 14]",11,0,[],13.31892734,42052,1768,1,0,11,1.562811097555156
basic,24,37,0,0,0,0,[0],1,29,"[1, 2, 3, 4, 5, 6, 7, 8, 9, 10, 11, 12, 13, 14, 15, 16, 17, 18, 19, 20, 21, 22, 23, 24, 25, 26, 27, 28, 29]",300,468,-1,6,168,10,0.0
basic,24,37,0,0,0,18,"[0, 18]",2,19,"[1, 2, 4, 6, 7, 9, 10, 12, 14, 15, 17, 19, 20, 21, 22, 23, 26, 28, 29]",202.4090168,9016,8548,6,89,10,1.0
basic,24,37,0,0,0,7,"[0, 18, 7]",3,12,"[1, 2, 4, 9, 15, 17, 19, 20, 21, 22, 26, 29]",175.2428614,9988,972,6,53,10,1.0413073512834488
basic,24,37,0,0,0,22,"[0, 18, 7, 22]",4,8,"[1, 2, 4, 15, 19, 20, 21, 26]",125.2428614,11658,1670,6,29,10,1.0730792320325544
basic,24,37,0,0,0,4,"[0, 18, 7, 22, 4]",5,7,"[1, 2, 15, 19, 20, 21, 26]",100.2428614,12629,971,4,16,10,1.2290245562206235
basic,24,37,0,0,0,2,"[0, 18, 7, 22, 4, 2]",6,5,"[1, 15, 19, 20, 21]",88.84110714,13803,1174,4,7,10,1.3968113858365216
basic,24,37,0,0,0,1,"[0, 18, 7, 22, 4, 2, 1]",7,4,"[15, 19, 20, 21]",71.63645661,14593,790,4,3,10,1.4424239294761476
basic,24,37,0,0,0,20,"[0, 18, 7, 22, 4, 2, 1, 20]",8,3,"[15, 19, 21]",37.40197107,17205,2612,2,1,10,1.7518607796010042
basic,24,37,0,0,0,21,"[0, 18, 7, 22, 4, 2, 1, 20, 21]",9,1,[15],22.97976597,18157,952,1,0,10,1.7849997782949483
basic,24,37,0,0,1,15,"[0, 18, 7, 22, 4, 2, 1, 20, 21, 15]",10,0,[],7.979765971,19482,1325,1,0,10,1.7549597142828803
basic,24,37,0,1,1,15,"[0, 18, 7, 22, 4, 2, 1, 20, 21, 15]",10,0,[],7.979765971,20902,1420,1,0,10,1.7549597142828803
basic,25,0,0,0,0,0,[0],1,27,"[2, 3, 4, 5, 6, 7, 8, 9, 10, 11, 12, 13, 14, 15, 16, 17, 19, 20, 21, 22, 23, 24, 25, 26, 27, 28, 29]",300,386,-1,104,1136,9,0.0
basic,25,0,0,0,0,5,"[0, 5]",2,24,"[2, 3, 4, 7, 8, 9, 11, 12, 13, 14, 15, 16, 17, 19, 20, 21, 22, 23, 24, 25, 26, 27, 28, 29]",164.5156836,9678,9292,5,112,9,1.0
basic,25,0,0,0,0,4,"[0, 5, 4]",3,20,"[2, 3, 7, 8, 9, 11, 12, 13, 14, 15, 17, 19, 20, 21, 22, 23, 24, 25, 26, 28]",139.4358112,14471,4793,4,61,9,1.0257023158632692
basic,25,0,0,0,0,24,"[0, 5, 4, 24]",4,17,"[2, 3, 7, 8, 9, 11, 12, 14, 15, 17, 19, 20, 22, 23, 25, 26, 28]",128.0340569,16128,1657,34,99,8,1.030771580363297
basic,25,0,0,0,0,15,"[0, 5, 4, 24, 15]",5,13,"[2, 3, 7, 8, 9, 11, 12, 17, 19, 23, 25, 26, 28]",104.6888218,18153,2025,15,27,8,1.0332334014589941
basic,25,0,0,0,0,7,"[0, 5, 4, 24, 15, 7]",6,8,"[3, 8, 9, 12, 17, 19, 23, 26]",73.62437271,23204,5051,5,6,8,1.1042188033168694
basic,25,0,0,0,0,8,"[0, 5, 4, 24, 15, 7, 8]",7,2,"[3, 19]",54.51939954,24910,1706,2,0,8,1.1034647138289617
basic,25,0,0,0,1,3,"[0, 5, 4, 24, 15, 7, 8, 3]",8,0,[],24.10558689,26378,1468,1,0,8,1.2728091551258456
basic,25,0,0,1,1,3,"[0, 5, 4, 24, 15, 7, 8, 3]",8,0,[],24.10558689,28379,2001,1,0,8,1.2728091551258456
basic,26,7,0,0,0,0,[0],1,29,"[1, 2, 3, 4, 5, 6, 7, 8, 9, 10, 11, 12, 13, 14, 15, 16, 17, 18, 19, 20, 21, 22, 23, 24, 25, 26, 27, 28, 29]",300,398,-1,3,79,9,0.0
basic,26,7,0,0,0,25,"[0, 25]",2,20,"[2, 3, 4, 5, 6, 7, 10, 13, 14, 15, 16, 18, 19, 20, 21, 22, 23, 24, 27, 28]",181.5939191,14749,14351,5,33,8,1.0
basic,26,7,0,0,0,4,"[0, 25, 4]",3,11,"[2, 6, 7, 13, 15, 16, 18, 19, 20, 21, 23]",156.8552853,16587,1838,2,14,8,1.0193465608331511
basic,26,7,0,0,0,20,"[0, 25, 4, 20]",4,8,"[2, 6, 7, 13, 15, 16, 18, 19]",137.2084026,17589,1002,1,9,8,1.085904909082323
basic,26,7,0,0,0,18,"[0, 25, 4, 20, 18]",5,7,"[2, 6, 7, 13, 15, 16, 19]",124.4021541,19568,1979,1,5,8,1.2264883846453758
basic,26,7,0,0,0,7,"[0, 25, 4, 20, 18, 7]",6,2,"[2, 19]",83.17109789,21016,1448,1,1,8,1.185264473968278
basic,26,7,0,0,0,19,"[0, 25, 4, 20, 18, 7, 19]",7,1,[2],53.76021555,23093,2077,1,0,8,1.3016904288278204
basic,26,7,0,0,1,2,"[0, 25, 4, 20, 18, 7, 19, 2]",8,0,[],23.61058868,24077,984,1,0,8,1.3168868000947171
basic,26,7,0,1,1,2,"[0, 25, 4, 20, 18, 7, 19, 2]",8,0,[],23.61058868,26086,2009,1,0,8,1.3168868000947171
basic,27,41,0,0,0,0,[0],1,29,"[1, 2, 3, 4, 5, 6, 7, 8, 9, 10, 11, 12, 13, 14, 15, 16, 17, 18, 19, 20, 21, 22, 23, 24, 25, 26, 27, 28, 29]",300,1001,-1,1,143,10,0.0
basic,27,41,0,0,0,13,"[0, 13]",2,23,"[1, 2, 3, 5, 6, 7, 9, 10, 11, 12, 14, 15, 17, 18, 19, 20, 21, 22, 24, 25, 26, 27, 28]",258.2747079,5533,4532,1,55,10,1.0
basic,27,41,0,0,0,28,"[0, 13, 28]",3,22,"[1, 2, 3, 5, 6, 7, 9, 10, 11, 12, 14, 15, 17, 18, 19, 20, 21, 22, 24, 25, 26, 27]",223.7928286,7339,1806,1,39,10,1.895724242592676
basic,27,41,0,0,0,5,"[0, 13, 28, 5]",4,19,"[1, 2, 3, 6, 9, 10, 11, 12, 14, 15, 17, 18, 19, 20, 21, 22, 24, 25, 27]",210.1913581,8345,1006,1,34,10,2.861541269398273
basic,27,41,0,0,0,3,"[0, 13, 28, 5, 3]",5,16,"[1, 2, 6, 9, 10, 12, 14, 17, 18, 19, 20, 21, 22, 24, 25, 27]",175.3632086,11082,2737,1,22,10,3.1455488489005883
basic,27,41,0,0,0,21,"[0, 13, 28, 5, 3, 21]",6,14,"[1, 2, 6, 9, 10, 12, 14, 17, 18, 19, 20, 22, 25, 27]",143.2228912,12466,1384,13,11,9,3.207558429289677
basic,27,41,0,0,0,9,"[0, 13, 28, 5, 3, 21, 9]",7,6,"[1, 2, 10, 12, 14, 17]",93.85691102,13606,1140,7,4,9,2.5050148501792275
basic,27,41,0,0,0,2,"[0, 13, 28, 5, 3, 21, 9, 2]",8,5,"[1, 10, 12, 14, 17]",81.77386505,14450,844,5,0,9,2.4119643847713177
basic,27,41,0,0,1,17,"[0, 13, 28, 5, 3, 21, 9, 2, 17]",9,0,[],49.21622385,15669,1219,1,0,9,3.9563478735796007
basic,27,41,0,1,1,17,"[0, 13, 28, 5, 3, 21, 9, 2, 17]",9,0,[],49.21622385,17292,1623,1,0,9,3.9563478735796007
basic,28,14,0,0,0,0,[0],1,29,"[1, 2, 3, 4, 5, 6, 7, 8, 9, 10, 11, 12, 13, 14, 15, 16, 17, 18, 19, 20, 21, 22, 23, 24, 25, 26, 27, 28, 29]",300,1019,-1,8,157,10,0.0
basic,28,14,0,0,0,15,"[0, 15]",2,20,"[1, 2, 3, 4, 7, 8, 9, 13, 17, 18, 19, 20, 21, 22, 23, 25, 26, 27, 28, 29]",216.7053423,8034,7015,8,102,10,1.0
basic,28,14,0,0,0,28,"[0, 15, 28]",3,17,"[1, 2, 3, 4, 7, 8, 9, 13, 17, 18, 19, 20, 22, 23, 25, 26, 27]",197.4959696,10007,1973,8,48,10,1.0446007867311968
basic,28,14,0,0,0,17,"[0, 15, 28, 17]",4,14,"[1, 2, 3, 4, 7, 8, 13, 18, 19, 20, 22, 23, 25, 26]",184.0423455,11152,1145,8,39,10,1.0729463354689972
basic,28,14,0,0,0,18,"[0, 15, 28, 17, 18]",5,9,"[1, 2, 4, 7, 8, 19, 23, 25, 26]",119.412631,13361,2209,8,27,10,1.5035901079219378
basic,28,14,0,0,0,8,"[0, 15, 28, 17, 18, 8]",6,8,"[1, 2, 4, 7, 19, 23, 25, 26]",105.8111605,14805,1444,8,18,10,1.4819689987843856
basic,28,14,0,0,0,19,"[0, 15, 28, 17, 18, 8, 19]",7,5,"[1, 7, 23, 25, 26]",85.19563238,16370,1565,4,9,10,1.4526746797093781
basic,28,14,0,0,0,1,"[0, 15, 28, 17, 18, 8, 19, 1]",8,4,"[7, 23, 25, 26]",69.96408617,17706,1336,3,1,10,1.4876985459270997
basic,28,14,0,0,0,23,"[0, 15, 28, 17, 18, 8, 19, 1, 23]",9,1,[26],21.96408617,19224,1518,1,0,10,1.4791446279021185
basic,28,14,0,0,1,26,"[0, 15, 28, 17, 18, 8, 19, 1, 23, 26]",10,0,[],11.14743235,21539,2315,1,0,10,1.4559204757247275
basic,28,14,0,1,1,26,"[0, 15, 28, 17, 18, 8, 19, 1, 23, 26]",10,0,[],11.14743235,22840,1301,1,0,10,1.4559204757247275
basic,29,9,0,0,0,0,[0],1,27,"[1, 3, 4, 5, 6, 7, 8, 9, 10, 11, 13, 14, 15, 16, 17, 18, 19, 20, 21, 22, 23, 24, 25, 26, 27, 28, 29]",300,944,-1,2,182,10,0.0
basic,29,9,0,0,0,9,"[0, 9]",2,26,"[1, 3, 4, 5, 6, 7, 8, 10, 11, 13, 14, 15, 16, 17, 18, 19, 20, 21, 22, 23, 24, 25, 26, 27, 28, 29]",225.5352432,6675,5731,2,101,9,1.0
basic,29,9,0,0,0,23,"[0, 9, 23]",3,22,"[1, 3, 4, 5, 7, 8, 10, 11, 13, 15, 16, 17, 18, 19, 20, 21, 22, 24, 25, 26, 27, 28]",203.1745635,7825,1150,2,70,9,1.6262276606762436
basic,29,9,0,0,0,8,"[0, 9, 23, 8]",4,18,"[3, 4, 5, 7, 10, 11, 15, 16, 17, 18, 19, 20, 21, 22, 25, 26, 27, 28]",181.7036529,10169,2344,1,36,9,1.8547307061753238
basic,29,9,0,0,0,28,"[0, 9, 23, 8, 28]",5,17,"[3, 4, 5, 7, 10, 11, 15, 16, 17, 18, 19, 20, 21, 22, 25, 26, 27]",170.8869991,11487,1318,1,23,9,1.7382749966569708
basic,29,9,0,0,0,26,"[0, 9, 23, 8, 28, 26]",6,10,"[3, 5, 10, 15, 16, 18, 19, 20, 21, 25]",126.1097727,14062,2575,4,7,8,1.4884719959249546
basic,29,9,0,0,0,21,"[0, 9, 23, 8, 28, 26, 21]",7,1,[20],72.20244484,16167,2105,1,0,8,1.9218119811471304
basic,29,9,0,0,1,20,"[0, 9, 23, 8, 28, 26, 21, 20]",8,0,[],60.11939886,16948,781,1,0,8,1.8940565724013747
basic,29,9,0,1,1,20,"[0, 9, 23, 8, 28, 26, 21, 20]",8,0,[],60.11939886,19327,2379,1,0,8,1.8940565724013747
basic,30,26,0,0,0,0,[0],1,29,"[1, 2, 3, 4, 5, 6, 7, 8, 9, 10, 11, 12, 13, 14, 15, 16, 17, 18, 19, 20, 21, 22, 23, 24, 25, 26, 27, 28, 29]",300,1040,-1,9,226,9,0.0
basic,30,26,0,0,0,16,"[0, 16]",2,17,"[3, 4, 5, 6, 10, 11, 12, 13, 14, 17, 18, 19, 21, 22, 23, 26, 29]",188.0535842,10663,9623,34,176,8,1.0
basic,30,26,0,0,0,29,"[0, 16, 29]",3,12,"[4, 5, 6, 10, 12, 13, 14, 17, 19, 21, 23, 26]",163.8461474,11601,938,32,68,8,1.1142946124989752
basic,30,26,0,0,0,4,"[0, 16, 29, 4]",4,9,"[5, 6, 10, 12, 13, 14, 17, 21, 23]",139.8461474,12789,1188,17,7,8,1.3213762371676339
basic,30,26,0,0,0,17,"[0, 16, 29, 4, 17]",5,5,"[6, 10, 14, 21, 23]",118.7511243,14395,1606,6,0,8,1.2756100061290643
basic,30,26,0,0,0,14,"[0, 16, 29, 4, 17, 14]",6,2,"[6, 10]",96.27891921,15932,1537,2,0,8,1.264154039440982
basic,30,26,0,0,0,6,"[0, 16, 29, 4, 17, 14, 6]",7,1,[10],75.25512317,17123,1191,1,0,8,1.3993089646092733
basic,30,26,0,0,1,10,"[0, 16, 29, 4, 17, 14, 6, 10]",8,0,[],45.98056083,18538,1415,1,0,8,1.5697867669370302
basic,30,26,0,1,1,10,"[0, 16, 29, 4, 17, 14, 6, 10]",8,0,[],45.98056083,21219,2681,1,0,8,1.5697867669370302
basic,31,36,0,0,0,0,[0],1,24,"[2, 4, 5, 6, 7, 8, 9, 10, 12, 13, 14, 15, 16, 17, 18, 19, 20, 22, 23, 25, 26, 27, 28, 29]",300,1041,-1,2,200,10,0.0
basic,31,36,0,0,0,12,"[0, 12]",2,23,"[2, 4, 5, 6, 7, 8, 9, 10, 13, 14, 15, 16, 17, 18, 19, 20, 22, 23, 25, 26, 27, 28, 29]",277.7963967,6037,4996,90,804,9,1.0
basic,31,36,0,0,0,16,"[0, 12, 16]",3,10,"[2, 9, 10, 13, 17, 18, 19, 23, 25, 27]",171.6267212,10327,4290,4,38,9,1.202695220335868
basic,31,36,0,0,0,17,"[0, 12, 16, 17]",4,7,"[2, 9, 10, 13, 18, 19, 25]",143.3071167,12777,2450,4,23,9,1.6578705047868705
basic,31,36,0,0,0,9,"[0, 12, 16, 17, 9]",5,5,"[2, 13, 18, 19, 25]",117.0583072,13807,1030,3,6,9,2.6488264465469484
basic,31,36,0,0,0,19,"[0, 12, 16, 17, 9, 19]",6,4,"[2, 13, 18, 25]",101.9255612,14932,1125,3,3,9,2.5697960541572393
basic,31,36,0,0,0,2,"[0, 12, 16, 17, 9, 19, 2]",7,2,"[13, 25]",64.80413882,16661,1729,2,0,9,2.082684549483941
basic,31,36,0,0,0,25,"[0, 12, 16, 17, 9, 19, 2, 25]",8,1,[13],39.80413882,19593,2932,1,0,9,2.272647961997219
basic,31,36,0,0,1,13,"[0, 12, 16, 17, 9, 19, 2, 25, 13]",9,0,[],19.21287854,21568,1975,1,0,9,2.86279103556024
basic,31,36,0,1,1,13,"[0, 12, 16, 17, 9, 19, 2, 25, 13]",9,0,[],19.21287854,22749,1181,1,0,9,2.86279103556024
basic,32,34,0,0,0,0,[0],1,25,"[1, 3, 4, 5, 6, 7, 8, 9, 10, 11, 12, 13, 15, 18, 19, 20, 21, 22, 23, 24, 25, 26, 27, 28, 29]",300,975,-1,12,367,10,0.0
basic,32,34,0,0,0,13,"[0, 13]",2,24,"[1, 3, 4, 5, 6, 7, 8, 9, 10, 11, 12, 15, 18, 19, 20, 21, 22, 23, 24, 25, 26, 27, 28, 29]",279.9750156,2954,1979,12,331,10,1.0
basic,32,34,0,0,0,1,"[0, 13, 1]",3,16,"[3, 5, 7, 8, 9, 10, 11, 12, 19, 21, 22, 23, 24, 25, 27, 29]",211.8574701,4454,1500,3,92,10,1.0010381285747127
basic,32,34,0,0,0,8,"[0, 13, 1, 8]",4,14,"[3, 5, 7, 9, 10, 11, 12, 19, 22, 23, 24, 25, 27, 29]",201.0871405,5414,960,2,54,10,1.1636807
basic,32,34,0,0,0,25,"[0, 13, 1, 8, 25]",5,12,"[3, 5, 7, 9, 10, 11, 12, 22, 23, 24, 27, 29]",183.999133,6282,868,2,28,10,1.1396208815936457
basic,32,34,0,0,0,24,"[0, 13, 1, 8, 25, 24]",6,11,"[3, 5, 7, 9, 10, 11, 12, 22, 23, 27, 29]",166.5062774,7350,1068,2,23,10,1.374180768736554
basic,32,34,0,0,0,12,"[0, 13, 1, 8, 25, 24, 12]",7,7,"[7, 9, 10, 11, 22, 23, 27]",115.4670767,10078,2728,1,8,10,1.4994254760835948
basic,32,34,0,0,0,7,"[0, 13, 1, 8, 25, 24, 12, 7]",8,5,"[9, 11, 22, 23, 27]",100.4337804,11447,1369,1,4,10,1.758992610425009
basic,32,34,0,0,0,23,"[0, 13, 1, 8, 25, 24, 12, 7, 23]",9,1,[27],72.27352467,12959,1512,1,0,10,2.399781305190153
basic,32,34,0,0,1,27,"[0, 13, 1, 8, 25, 24, 12, 7, 23, 27]",10,0,[],18.60789321,14994,2035,1,0,10,4.766619878750327
basic,32,34,0,1,1,27,"[0, 13, 1, 8, 25, 24, 12, 7, 23, 27]",10,0,[],18.60789321,18950,3956,1,0,10,4.766619878750327
basic,33,8,0,0,0,0,[0],1,29,"[1, 2, 3, 4, 5, 6, 7, 8, 9, 10, 11, 12, 13, 14, 15, 16, 17, 18, 19, 20, 21, 22, 23, 24, 25, 26, 27, 28, 29]",300,1153,-1,10,149,9,0.0
basic,33,8,0,0,0,5,"[0, 5]",2,28,"[1, 2, 3, 4, 6, 7, 8, 9, 10, 11, 12, 13, 14, 15, 16, 17, 18, 19, 20, 21, 22, 23, 24, 25, 26, 27, 28, 29]",254.5137383,10826,9673,10,100,9,1.0
basic,33,8,0,0,0,25,"[0, 5, 25]",3,20,"[1, 2, 3, 4, 6, 11, 12, 14, 15, 16, 17, 18, 19, 20, 21, 22, 23, 24, 28, 29]",215.3091468,12934,2108,4,42,9,1.2272747879909065
basic,33,8,0,0,0,1,"[0, 5, 25, 1]",4,17,"[3, 4, 6, 11, 12, 14, 15, 16, 17, 18, 20, 21, 22, 23, 24, 28, 29]",190.3091468,14560,1626,3,24,9,1.1770245007593956
basic,33,8,0,0,0,23,"[0, 5, 25, 1, 23]",5,15,"[3, 4, 6, 11, 14, 15, 16, 17, 18, 20, 21, 22, 24, 28, 29]",167.2874179,15755,1195,1,14,9,1.141996583852372
basic,33,8,0,0,0,18,"[0, 5, 25, 1, 23, 18]",6,9,"[3, 4, 11, 14, 15, 16, 17, 24, 28]",125.5261919,17286,1531,1,7,9,1.3199166330970717
basic,33,8,0,0,0,14,"[0, 5, 25, 1, 23, 18, 14]",7,2,"[11, 17]",68.03706246,19026,1740,1,1,9,2.714920831666598
basic,33,8,0,0,0,17,"[0, 5, 25, 1, 23, 18, 14, 17]",8,1,[11],31.02355141,19798,772,1,0,9,2.462600896722246
basic,33,8,0,0,1,11,"[0, 5, 25, 1, 23, 18, 14, 17, 11]",9,0,[],5.84419479,20611,813,1,0,9,2.246839316887767
basic,33,8,0,1,1,11,"[0, 5, 25, 1, 23, 18, 14, 17, 11]",9,0,[],5.84419479,22540,1929,1,0,9,2.246839316887767
basic,34,4,0,0,0,0,[0],1,26,"[3, 4, 5, 6, 7, 8, 10, 11, 12, 13, 14, 15, 16, 17, 18, 19, 20, 21, 22, 23, 24, 25, 26, 27, 28, 29]",300,1031,-1,4,489,10,0.0
basic,34,4,0,0,0,14,"[0, 14]",2,15,"[3, 4, 5, 6, 11, 13, 16, 17, 20, 21, 22, 23, 24, 25, 28]",163.4386585,7624,6593,1,44,9,1.0
basic,34,4,0,0,0,25,"[0, 14, 25]",3,13,"[3, 4, 5, 6, 11, 13, 16, 17, 20, 21, 22, 24, 28]",147.314143,8739,1115,1,39,9,1.2040437982303591
basic,34,4,0,0,0,11,"[0, 14, 25, 11]",4,11,"[3, 4, 5, 6, 13, 16, 17, 20, 21, 22, 28]",128.5258487,10005,1266,1,23,9,1.3955292752729385
basic,34,4,0,0,0,16,"[0, 14, 25, 11, 16]",5,10,"[3, 4, 5, 6, 13, 17, 20, 21, 22, 28]",113.5258487,11275,1270,1,18,9,1.3527900810051412
basic,34,4,0,0,0,3,"[0, 14, 25, 11, 16, 3]",6,2,"[17, 20]",71.89653215,13612,2337,1,1,8,1.3078329744000972
basic,34,4,0,0,0,17,"[0, 14, 25, 11, 16, 3, 17]",7,1,[20],47.38123081,14970,1358,1,0,8,1.5411320885786457
basic,34,4,0,0,1,20,"[0, 14, 25, 11, 16, 3, 17, 20]",8,0,[],7.156860088,19333,4363,1,0,8,1.602630297337091
basic,34,4,0,1,1,20,"[0, 14, 25, 11, 16, 3, 17, 20]",8,0,[],7.156860088,23205,3872,1,0,8,1.602630297337091
basic,35,3,0,0,0,0,[0],1,29,"[1, 2, 3, 4, 5, 6, 7, 8, 9, 10, 11, 12, 13, 14, 15, 16, 17, 18, 19, 20, 21, 22, 23, 24, 25, 26, 27, 28, 29]",300,954,-1,34,427,10,0.0
basic,35,3,0,0,0,7,"[0, 7]",2,28,"[1, 2, 3, 4, 5, 6, 8, 9, 10, 11, 12, 13, 14, 15, 16, 17, 18, 19, 20, 21, 22, 23, 24, 25, 26, 27, 28, 29]",278.8103799,5909,4955,24,215,10,1.0
basic,35,3,0,0,0,8,"[0, 7, 8]",3,24,"[1, 2, 3, 4, 5, 6, 10, 11, 12, 13, 14, 15, 16, 17, 18, 19, 20, 21, 22, 24, 25, 26, 27, 28]",222.837172,8146,2237,16,114,10,1.2853332575451413
basic,35,3,0,0,0,24,"[0, 7, 8, 24]",4,21,"[1, 3, 4, 5, 6, 10, 11, 12, 14, 15, 16, 17, 18, 19, 20, 21, 22, 25, 26, 27, 28]",210.671647,9694,1548,16,91,10,1.5177505014936548
basic,35,3,0,0,0,4,"[0, 7, 8, 24, 4]",5,13,"[3, 5, 6, 10, 14, 15, 16, 17, 18, 19, 20, 21, 22]",148.4944807,12988,3294,6,23,9,1.3221967682075704
basic,35,3,0,0,0,10,"[0, 7, 8, 24, 4, 10]",6,4,"[3, 14, 19, 21]",94.67069417,16945,3957,3,4,9,1.304026444841991
basic,35,3,0,0,0,14,"[0, 7, 8, 24, 4, 10, 14]",7,3,"[3, 19, 21]",49.21742146,20147,3202,2,1,9,1.9485055330187606
basic,35,3,0,0,0,21,"[0, 7, 8, 24, 4, 10, 14, 21]",8,1,[19],22.31017337,22313,2166,1,0,9,1.8058859126569007
basic,35,3,0,0,1,19,"[0, 7, 8, 24, 4, 10, 14, 21, 19]",9,0,[],10.10361775,23352,1039,1,0,9,1.9643273246735256
basic,35,3,0,1,1,19,"[0, 7, 8, 24, 4, 10, 14, 21, 19]",9,0,[],10.10361775,24938,1586,1,0,9,1.9643273246735256
basic,36,23,0,0,0,0,[0],1,28,"[1, 2, 3, 4, 5, 6, 7, 8, 9, 10, 11, 12, 13, 14, 15, 16, 17, 18, 19, 20, 21, 22, 23, 25, 26, 27, 28, 29]",300,928,-1,76,2626,10,0.0
basic,36,23,0,0,0,22,"[0, 22]",2,24,"[1, 2, 3, 5, 6, 7, 8, 9, 10, 11, 12, 13, 14, 15, 17, 18, 19, 20, 21, 23, 25, 26, 27, 29]",210.5013967,4546,3618,15,1362,10,1.0
basic,36,23,0,0,0,13,"[0, 22, 13]",3,14,"[1, 2, 5, 6, 7, 8, 9, 10, 12, 14, 18, 21, 27, 29]",168.3113504,10057,5511,14,522,10,1.1898173563652046
basic,36,23,0,0,0,12,"[0, 22, 13, 12]",4,11,"[1, 2, 6, 7, 9, 10, 14, 18, 21, 27, 29]",156.2283045,11272,1215,12,166,10,1.1727968780218219
basic,36,23,0,0,0,2,"[0, 22, 13, 12, 2]",5,9,"[1, 6, 7, 9, 10, 14, 18, 27, 29]",142.3358605,14427,3155,4,38,10,1.1553975034701014
basic,36,23,0,0,0,9,"[0, 22, 13, 12, 2, 9]",6,7,"[6, 7, 10, 14, 18, 27, 29]",129.2974557,16490,2063,1,12,10,1.3065798464766785
basic,36,23,0,0,0,14,"[0, 22, 13, 12, 2, 9, 14]",7,6,"[6, 7, 10, 18, 27, 29]",118.8571492,18092,1602,1,6,10,1.2857038452263323
basic,36,23,0,0,0,29,"[0, 22, 13, 12, 2, 9, 14, 29]",8,2,"[7, 10]",71.42298425,20419,2327,1,1,10,1.4822676597092734
basic,36,23,0,0,0,7,"[0, 22, 13, 12, 2, 9, 14, 29, 7]",9,1,[10],47.3397951,22744,2325,1,0,10,1.5022275496758202
basic,36,23,0,0,1,10,"[0, 22, 13, 12, 2, 9, 14, 29, 7, 10]",10,0,[],19.88073466,25576,2832,1,0,10,1.46560906518872
basic,36,23,0,1,1,10,"[0, 22, 13, 12, 2, 9, 14, 29, 7, 10]",10,0,[],19.88073466,27038,1462,1,0,10,1.46560906518872
basic,37,31,0,0,0,0,[0],1,27,"[1, 3, 4, 5, 6, 7, 8, 10, 11, 12, 13, 14, 15, 16, 17, 18, 19, 20, 21, 22, 23, 24, 25, 26, 27, 28, 29]",300,1061,-1,2,87,10,0.0
basic,37,31,0,0,0,14,"[0, 14]",2,25,"[1, 3, 5, 6, 7, 8, 10, 11, 12, 13, 15, 16, 17, 18, 19, 20, 21, 22, 23, 24, 25, 26, 27, 28, 29]",263.861378,7784,6723,2,59,10,1.0
basic,37,31,0,0,0,27,"[0, 14, 27]",3,22,"[1, 3, 5, 6, 7, 8, 10, 11, 12, 13, 15, 16, 17, 18, 19, 20, 21, 22, 24, 25, 28, 29]",235.6833724,9861,2077,1,39,10,1.5881859159302467
basic,37,31,0,0,0,8,"[0, 14, 27, 8]",4,20,"[1, 3, 5, 6, 7, 10, 11, 12, 13, 16, 17, 18, 19, 20, 21, 22, 24, 25, 28, 29]",224.6380114,12655,2794,1,36,10,2.1665048452331277
basic,37,31,0,0,0,18,"[0, 14, 27, 8, 18]",5,15,"[1, 5, 6, 7, 11, 12, 13, 16, 17, 19, 20, 22, 25, 28, 29]",188.7911147,16426,3771,1,26,10,1.7273375741920205
basic,37,31,0,0,0,11,"[0, 14, 27, 8, 18, 11]",6,11,"[1, 5, 7, 12, 16, 17, 19, 20, 22, 25, 28]",153.9055876,17563,1137,13,17,9,2.386348208737804
basic,37,31,0,0,0,5,"[0, 14, 27, 8, 18, 11, 5]",7,5,"[16, 17, 20, 25, 28]",110.2249283,19634,2071,3,3,9,2.163249612867222
basic,37,31,0,0,0,28,"[0, 14, 27, 8, 18, 11, 5, 28]",8,2,"[16, 17]",90.00117988,23801,4167,2,0,9,1.9564635733184719
basic,37,31,0,0,1,16,"[0, 14, 27, 8, 18, 11, 5, 28, 16]",9,0,[],56.38570725,25472,1671,1,0,9,1.824071502589619
basic,37,31,0,1,1,16,"[0, 14, 27, 8, 18, 11, 5, 28, 16]",9,0,[],56.38570725,27124,1652,1,0,9,1.824071502589619
basic,38,32,0,0,0,0,[0],1,29,"[1, 2, 3, 4, 5, 6, 7, 8, 9, 10, 11, 12, 13, 14, 15, 16, 17, 18, 19, 20, 21, 22, 23, 24, 25, 26, 27, 28, 29]",300,1075,-1,17,359,10,0.0
basic,38,32,0,0,0,15,"[0, 15]",2,24,"[2, 3, 4, 5, 6, 7, 8, 9, 10, 11, 12, 13, 14, 16, 17, 19, 20, 22, 23, 24, 25, 26, 27, 28]",214.6185032,5700,4625,11,153,9,1.0
basic,38,32,0,0,0,28,"[0, 15, 28]",3,21,"[2, 3, 5, 7, 8, 9, 10, 11, 12, 13, 14, 16, 17, 19, 20, 22, 23, 24, 25, 26, 27]",203.2167489,9058,3358,11,119,9,1.000160051986942
basic,38,32,0,0,0,12,"[0, 15, 28, 12]",4,19,"[2, 3, 5, 7, 8, 9, 10, 11, 13, 16, 17, 19, 20, 22, 23, 24, 25, 26, 27]",184.243083,10599,1541,8,71,9,1.0281484763748023
basic,38,32,0,0,0,16,"[0, 15, 28, 12, 16]",5,17,"[2, 3, 5, 7, 8, 9, 10, 11, 13, 17, 19, 20, 22, 23, 24, 26, 27]",168.5906071,11714,1115,6,38,9,1.1190771370096
basic,38,32,0,0,0,22,"[0, 15, 28, 12, 16, 22]",6,10,"[2, 3, 5, 8, 9, 10, 11, 17, 20, 27]",134.7527585,13342,1628,4,16,9,1.1702311155319893
basic,38,32,0,0,0,9,"[0, 15, 28, 12, 16, 22, 9]",7,6,"[2, 8, 10, 17, 20, 27]",112.5491552,14640,1298,2,4,9,1.2381424719932013
basic,38,32,0,0,0,2,"[0, 15, 28, 12, 16, 22, 9, 2]",8,1,[17],61.46099608,23047,8407,1,0,9,1.6446273109221003
basic,38,32,0,0,1,17,"[0, 15, 28, 12, 16, 22, 9, 2, 17]",9,0,[],21.64893761,24389,1342,1,0,9,2.46318728800517
basic,38,32,0,1,1,17,"[0, 15, 28, 12, 16, 22, 9, 2, 17]",9,0,[],21.64893761,25763,1374,1,0,9,2.46318728800517
basic,39,17,0,0,0,0,[0],1,28,"[1, 2, 3, 4, 5, 6, 7, 8, 9, 10, 11, 12, 13, 14, 15, 16, 17, 18, 19, 20, 22, 23, 24, 25, 26, 27, 28, 29]",300,906,-1,2,73,8,0.0
basic,39,17,0,0,0,16,"[0, 16]",2,23,"[1, 2, 3, 5, 7, 8, 9, 10, 11, 12, 14, 17, 18, 19, 20, 22, 23, 24, 25, 26, 27, 28, 29]",212.3586855,10395,9489,1,29,8,1.0
basic,39,17,0,0,0,9,"[0, 16, 9]",3,22,"[1, 2, 3, 5, 7, 8, 10, 11, 12, 14, 17, 18, 19, 20, 22, 23, 24, 25, 26, 27, 28, 29]",199.0170215,11834,1439,1,16,8,1.1286713677732607
basic,39,17,0,0,0,2,"[0, 16, 9, 2]",4,18,"[1, 3, 5, 7, 8, 10, 11, 12, 14, 17, 18, 19, 23, 25, 26, 27, 28, 29]",177.0625231,15045,3211,1,12,8,1.1868741553560993
basic,39,17,0,0,0,8,"[0, 16, 9, 2, 8]",5,8,"[7, 10, 11, 12, 14, 17, 26, 27]",141.9484233,16456,1411,1,5,8,1.1808712459383446
basic,39,17,0,0,0,7,"[0, 16, 9, 2, 8, 7]",6,1,[27],71.23774523,23927,7471,1,0,7,1.2439714369925923
basic,39,17,0,0,1,27,"[0, 16, 9, 2, 8, 7, 27]",7,0,[],17.63737209,26084,2157,1,0,7,1.314737424836378
basic,39,17,0,1,1,27,"[0, 16, 9, 2, 8, 7, 27]",7,0,[],17.63737209,27318,1234,1,0,7,1.314737424836378
basic,40,6,0,0,0,0,[0],1,29,"[1, 2, 3, 4, 5, 6, 7, 8, 9, 10, 11, 12, 13, 14, 15, 16, 17, 18, 19, 20, 21, 22, 23, 24, 25, 26, 27, 28, 29]",300,957,-1,180,4304,10,0.0
basic,40,6,0,0,0,3,"[0, 3]",2,28,"[1, 2, 4, 5, 6, 7, 8, 9, 10, 11, 12, 13, 14, 15, 16, 17, 18, 19, 20, 21, 22, 23, 24, 25, 26, 27, 28, 29]",266.4738908,8467,7510,90,1607,10,1.0
basic,40,6,0,0,0,7,"[0, 3, 7]",3,24,"[1, 2, 4, 5, 6, 8, 9, 10, 11, 12, 13, 14, 15, 16, 17, 18, 20, 21, 22, 23, 24, 26, 27, 29]",230.3352688,21722,13255,8,253,10,1.450719050884865
basic,40,6,0,0,0,10,"[0, 3, 7, 10]",4,20,"[1, 2, 4, 5, 6, 8, 11, 13, 14, 16, 17, 18, 20, 21, 22, 23, 24, 26, 27, 29]",172.3352688,25353,3631,2,36,10,1.5136100571707485
basic,40,6,0,0,0,17,"[0, 3, 7, 10, 17]",5,18,"[1, 2, 4, 6, 8, 11, 13, 14, 16, 18, 20, 21, 22, 23, 24, 26, 27, 29]",152.6121858,27293,1940,11,68,9,2.088350099541769
basic,40,6,0,0,0,18,"[0, 3, 7, 10, 17, 18]",6,14,"[1, 2, 6, 13, 14, 16, 20, 21, 22, 23, 24, 26, 27, 29]",138.6837976,28486,1193,9,28,9,2.648802471182926
basic,40,6,0,0,0,16,"[0, 3, 7, 10, 17, 18, 16]",7,10,"[1, 6, 13, 14, 21, 22, 23, 24, 26, 29]",115.3385625,30106,1620,8,7,9,2.558334634789517
basic,40,6,0,0,0,29,"[0, 3, 7, 10, 17, 18, 16, 29]",8,4,"[14, 22, 23, 24]",78.65068986,31629,1523,4,0,9,2.0782369585142724
basic,40,6,0,0,1,23,"[0, 3, 7, 10, 17, 18, 16, 29, 23]",9,0,[],31.13227237,35738,4109,1,0,9,2.0034652789282807
basic,40,6,0,1,1,23,"[0, 3, 7, 10, 17, 18, 16, 29, 23]",9,0,[],31.13227237,37572,1834,1,0,9,2.0034652789282807
basic,41,12,0,0,0,0,[0],1,29,"[1, 2, 3, 4, 5, 6, 7, 8, 9, 10, 11, 12, 13, 14, 15, 16, 17, 18, 19, 20, 21, 22, 23, 24, 25, 26, 27, 28, 29]",300,1005,-1,2,32,9,0.0
basic,41,12,0,0,0,16,"[0, 16]",2,16,"[2, 4, 5, 6, 7, 12, 13, 14, 18, 19, 22, 23, 24, 25, 27, 29]",209.2916762,6339,5334,3,38,8,1.0
basic,41,12,0,0,0,22,"[0, 16, 22]",3,14,"[2, 4, 5, 6, 7, 12, 13, 14, 18, 19, 23, 24, 25, 27]",188.2916762,9978,3639,2,21,8,1.26933081733974
basic,41,12,0,0,0,4,"[0, 16, 22, 4]",4,7,"[6, 12, 14, 19, 24, 25, 27]",143.69347,12279,2301,2,10,8,1.251373590144064
basic,41,12,0,0,0,12,"[0, 16, 22, 4, 12]",5,4,"[14, 19, 24, 27]",101.5034238,13430,1151,2,3,8,1.2013999386970955
basic,41,12,0,0,0,27,"[0, 16, 22, 4, 12, 27]",6,2,"[14, 24]",77.15183245,18988,5558,2,0,8,1.3028492624171124
basic,41,12,0,0,0,14,"[0, 16, 22, 4, 12, 27, 14]",7,1,[24],48.49873489,19902,914,1,0,8,1.3507914643294519
basic,41,12,0,0,1,24,"[0, 16, 22, 4, 12, 27, 14, 24]",8,0,[],31.29408435,21179,1277,1,0,8,1.5056447333155683
basic,41,12,0,1,1,24,"[0, 16, 22, 4, 12, 27, 14, 24]",8,0,[],31.29408435,23495,2316,1,0,8,1.5056447333155683
basic,42,39,0,0,0,0,[0],1,28,"[1, 2, 3, 4, 5, 6, 7, 9, 10, 11, 12, 13, 14, 15, 16, 17, 18, 19, 20, 21, 22, 23, 24, 25, 26, 27, 28, 29]",300,929,-1,1,30,10,0.0
basic,42,39,0,0,0,29,"[0, 29]",2,26,"[1, 2, 3, 4, 5, 6, 7, 9, 10, 12, 13, 14, 15, 16, 17, 18, 19, 20, 21, 22, 23, 24, 25, 26, 27, 28]",243.0614366,7109,6180,8,104,9,1.0
basic,42,39,0,0,0,10,"[0, 29, 10]",3,19,"[1, 2, 4, 5, 7, 9, 12, 13, 14, 15, 16, 17, 18, 19, 22, 23, 24, 26, 28]",178.4239862,8153,1044,3,48,9,1.0231293692376968
basic,42,39,0,0,0,7,"[0, 29, 10, 7]",4,14,"[1, 2, 4, 5, 9, 12, 13, 15, 16, 18, 19, 22, 24, 26]",145.0024362,9938,1785,2,20,9,1.0186411966151707
basic,42,39,0,0,0,26,"[0, 29, 10, 7, 26]",5,9,"[1, 2, 5, 12, 13, 16, 18, 19, 22]",126.3208945,11809,1871,1,9,9,1.0752526811750318
basic,42,39,0,0,0,22,"[0, 29, 10, 7, 26, 22]",6,6,"[1, 5, 12, 16, 18, 19]",108.6008494,13009,1200,1,3,9,1.2360944063790367
basic,42,39,0,0,0,16,"[0, 29, 10, 7, 26, 22, 16]",7,2,"[18, 19]",73.6008494,14424,1415,1,1,9,1.1926155792040818
basic,42,39,0,0,0,19,"[0, 29, 10, 7, 26, 22, 16, 19]",8,1,[18],56.1366002,16173,1749,1,0,9,1.2089345217410772
basic,42,39,0,0,1,18,"[0, 29, 10, 7, 26, 22, 16, 19, 18]",9,0,[],12.96253391,17690,1517,1,0,9,1.2243548998729528
basic,42,39,0,1,1,18,"[0, 29, 10, 7, 26, 22, 16, 19, 18]",9,0,[],12.96253391,19079,1389,1,0,9,1.2243548998729528
basic,43,30,0,0,0,0,[0],1,19,"[3, 4, 5, 7, 9, 11, 16, 17, 18, 19, 20, 21, 22, 24, 25, 26, 27, 28, 29]",300,968,-1,5,41,8,0.0
basic,43,30,0,0,0,27,"[0, 27]",2,10,"[3, 5, 7, 9, 18, 19, 20, 24, 25, 29]",90.59608409,8200,7232,7,22,6,1.0
basic,43,30,0,0,0,3,"[0, 27, 3]",3,8,"[5, 7, 18, 19, 20, 24, 25, 29]",71.49111091,10159,1959,5,9,6,1.0022223300201003
basic,43,30,0,0,0,29,"[0, 27, 3, 29]",4,5,"[5, 7, 18, 19, 20]",52.89003567,13420,3261,2,3,6,1.0149900937654948
basic,43,30,0,0,0,18,"[0, 27, 3, 29, 18]",5,1,[5],33.57682776,14790,1370,1,0,6,1.0907994995031296
basic,43,30,0,0,1,5,"[0, 27, 3, 29, 18, 5]",6,0,[],20.53842295,17738,2948,1,0,6,1.1556882660658163
basic,43,30,0,1,1,5,"[0, 27, 3, 29, 18, 5]",6,0,[],20.53842295,18876,1138,1,0,6,1.1556882660658163
basic,44,24,0,0,0,0,[0],1,29,"[1, 2, 3, 4, 5, 6, 7, 8, 9, 10, 11, 12, 13, 14, 15, 16, 17, 18, 19, 20, 21, 22, 23, 24, 25, 26, 27, 28, 29]",300,1045,-1,4,76,10,0.0
basic,44,24,0,0,0,16,"[0, 16]",2,28,"[1, 2, 3, 4, 5, 6, 7, 8, 9, 10, 11, 12, 13, 14, 15, 17, 18, 19, 20, 21, 22, 23, 24, 25, 26, 27, 28, 29]",210.3562607,6746,5701,13,110,9,1.0
basic,44,24,0,0,0,22,"[0, 16, 22]",3,27,"[1, 2, 3, 4, 5, 6, 7, 8, 9, 10, 11, 12, 13, 14, 15, 17, 18, 19, 20, 21, 23, 24, 25, 26, 27, 28, 29]",192.3285043,10364,3618,7,54,9,1.0217425143037777
basic,44,24,0,0,0,8,"[0, 16, 22, 8]",4,21,"[1, 2, 3, 4, 6, 9, 10, 11, 13, 14, 15, 17, 20, 21, 23, 24, 25, 26, 27, 28, 29]",178.9120964,12253,1889,4,28,9,1.0996636936037951
basic,44,24,0,0,0,15,"[0, 16, 22, 8, 15]",5,16,"[3, 4, 6, 9, 10, 11, 13, 14, 17, 23, 24, 25, 26, 27, 28, 29]",148.025206,14097,1844,3,17,9,1.2704773343758617
basic,44,24,0,0,0,28,"[0, 16, 22, 8, 15, 28]",6,8,"[3, 4, 9, 11, 13, 23, 26, 27]",102.7482803,15712,1615,3,5,9,1.1981967578189556
basic,44,24,0,0,0,23,"[0, 16, 22, 8, 15, 28, 23]",7,3,"[9, 11, 27]",83.72198273,16796,1084,3,1,9,1.2275650852813986
basic,44,24,0,0,0,11,"[0, 16, 22, 8, 15, 28, 23, 11]",8,2,"[9, 27]",56.79615869,18486,1690,2,0,9,1.2107937989822568
basic,44,24,0,0,1,27,"[0, 16, 22, 8, 15, 28, 23, 11, 27]",9,0,[],28.99328114,20379,1893,1,0,9,1.1865620449755248
basic,44,24,0,1,1,27,"[0, 16, 22, 8, 15, 28, 23, 11, 27]",9,0,[],28.99328114,22749,2370,1,0,9,1.1865620449755248
basic,45,40,0,0,0,0,[0],1,29,"[1, 2, 3, 4, 5, 6, 7, 8, 9, 10, 11, 12, 13, 14, 15, 16, 17, 18, 19, 20, 21, 22, 23, 24, 25, 26, 27, 28, 29]",300,1035,-1,8,191,9,0.0
basic,45,40,0,0,0,1,"[0, 1]",2,18,"[2, 5, 6, 7, 8, 9, 10, 11, 13, 15, 17, 18, 19, 21, 22, 23, 27, 29]",247.8463808,8089,7054,4,80,9,1.0
basic,45,40,0,0,0,6,"[0, 1, 6]",3,17,"[2, 5, 7, 8, 9, 10, 11, 13, 15, 17, 18, 19, 21, 22, 23, 27, 29]",227.7466295,9164,1075,4,74,9,1.0459427008232034
basic,45,40,0,0,0,21,"[0, 1, 6, 21]",4,8,"[2, 5, 9, 17, 18, 19, 22, 23]",175.7754837,10700,1536,4,25,9,1.0308822257404064
basic,45,40,0,0,0,9,"[0, 1, 6, 21, 9]",5,6,"[2, 5, 18, 19, 22, 23]",130.0699041,12212,1512,4,12,9,1.377861912961129
basic,45,40,0,0,0,18,"[0, 1, 6, 21, 9, 18]",6,5,"[2, 5, 19, 22, 23]",113.5169588,13038,826,4,4,9,1.5742712168661408
basic,45,40,0,0,0,5,"[0, 1, 6, 21, 9, 18, 5]",7,3,"[19, 22, 23]",81.94165198,14557,1519,2,1,9,1.7730665063055515
basic,45,40,0,0,0,23,"[0, 1, 6, 21, 9, 18, 5, 23]",8,1,[19],53.63970859,15548,991,1,0,9,2.597442759912231
basic,45,40,0,0,1,19,"[0, 1, 6, 21, 9, 18, 5, 23, 19]",9,0,[],21.68661797,17101,1553,1,0,9,2.7128328554069565
basic,45,40,0,1,1,19,"[0, 1, 6, 21, 9, 18, 5, 23, 19]",9,0,[],21.68661797,18465,1364,1,0,9,2.7128328554069565
basic,46,13,0,0,0,0,[0],1,29,"[1, 2, 3, 4, 5, 6, 7, 8, 9, 10, 11, 12, 13, 14, 15, 16, 17, 18, 19, 20, 21, 22, 23, 24, 25, 26, 27, 28, 29]",300,1133,-1,60,2676,11,0.0
basic,46,13,0,0,0,24,"[0, 24]",2,28,"[1, 2, 3, 4, 5, 6, 7, 8, 9, 10, 11, 12, 13, 14, 15, 16, 17, 18, 19, 20, 21, 22, 23, 25, 26, 27, 28, 29]",288.8196601,6236,5103,16,1444,11,1.0
basic,46,13,0,0,0,28,"[0, 24, 28]",3,23,"[1, 2, 3, 4, 6, 7, 8, 9, 10, 11, 12, 13, 15, 16, 17, 19, 20, 21, 22, 23, 26, 27, 29]",222.5324064,8951,2715,8,243,11,1.0513810491680837
basic,46,13,0,0,0,2,"[0, 24, 28, 2]",4,19,"[1, 3, 4, 6, 7, 9, 11, 12, 13, 15, 16, 17, 19, 20, 21, 23, 26, 27, 29]",184.889346,10332,1381,7,110,11,1.050374132001543
basic,46,13,0,0,0,29,"[0, 24, 28, 2, 29]",5,18,"[1, 3, 4, 6, 7, 9, 11, 12, 13, 15, 16, 17, 19, 20, 21, 23, 26, 27]",173.1846461,11580,1248,7,85,11,1.1393409619120594
basic,46,13,0,0,0,7,"[0, 24, 28, 2, 29, 7]",6,17,"[1, 3, 4, 6, 9, 11, 12, 13, 15, 16, 17, 19, 20, 21, 23, 26, 27]",157.9203086,13932,2352,5,45,11,1.349777315111579
basic,46,13,0,0,0,26,"[0, 24, 28, 2, 29, 7, 26]",7,16,"[1, 3, 4, 6, 9, 11, 12, 13, 15, 16, 17, 19, 20, 21, 23, 27]",147.480002,15027,1095,5,25,11,1.5942082773824946
basic,46,13,0,0,0,6,"[0, 24, 28, 2, 29, 7, 26, 6]",8,12,"[1, 3, 4, 11, 13, 15, 16, 17, 19, 20, 23, 27]",127.3802508,16538,1511,4,12,11,1.5898347940840756
basic,46,13,0,0,0,11,"[0, 24, 28, 2, 29, 7, 26, 6, 11]",9,6,"[1, 13, 15, 16, 17, 23]",108.2752776,17861,1323,3,4,11,1.5029953945561012
basic,46,13,0,0,0,13,"[0, 24, 28, 2, 29, 7, 26, 6, 11, 13]",10,2,"[15, 17]",52.19497806,20345,2484,2,0,11,1.3655915863754327
basic,46,13,0,0,1,17,"[0, 24, 28, 2, 29, 7, 26, 6, 11, 13, 17]",11,0,[],18.81833952,22453,2108,1,0,11,1.4149038511024103
basic,46,13,0,1,1,17,"[0, 24, 28, 2, 29, 7, 26, 6, 11, 13, 17]",11,0,[],18.81833952,23866,1413,1,0,11,1.4149038511024103
basic,47,38,0,0,0,0,[0],1,29,"[1, 2, 3, 4, 5, 6, 7, 8, 9, 10, 11, 12, 13, 14, 15, 16, 17, 18, 19, 20, 21, 22, 23, 24, 25, 26, 27, 28, 29]",300,1035,-1,33,506,9,0.0
basic,47,38,0,0,0,19,"[0, 19]",2,23,"[3, 4, 5, 6, 7, 8, 9, 11, 13, 14, 15, 16, 17, 18, 20, 22, 23, 24, 25, 26, 27, 28, 29]",219.5015528,4288,3253,6,61,9,1.0
basic,47,38,0,0,0,17,"[0, 19, 17]",3,21,"[3, 4, 5, 6, 7, 9, 11, 13, 14, 15, 16, 18, 20, 22, 23, 24, 25, 26, 27, 28, 29]",198.1239945,5302,1014,6,53,9,1.571793785769489
basic,47,38,0,0,0,20,"[0, 19, 17, 20]",4,17,"[3, 4, 5, 6, 7, 11, 13, 14, 15, 16, 18, 22, 24, 25, 26, 27, 28]",174.3542658,6638,1336,6,44,9,2.333182710277297
basic,47,38,0,0,0,4,"[0, 19, 17, 20, 4]",5,10,"[5, 11, 13, 14, 15, 16, 24, 26, 27, 28]",140.4131403,13522,6884,5,22,9,2.276099229646013
basic,47,38,0,0,0,15,"[0, 19, 17, 20, 4, 15]",6,8,"[5, 11, 13, 14, 16, 24, 26, 28]",114.4131403,16135,2613,5,6,9,2.5292671156176403
basic,47,38,0,0,0,11,"[0, 19, 17, 20, 4, 15, 11]",7,2,"[16, 28]",78.01259089,17735,1600,2,0,9,2.778100109749787
basic,47,38,0,0,0,28,"[0, 19, 17, 20, 4, 15, 11, 28]",8,1,[16],50.99407872,21347,3612,1,0,9,2.3316428595723258
basic,47,38,0,0,1,16,"[0, 19, 17, 20, 4, 15, 11, 28, 16]",9,0,[],21.99407872,24227,2880,1,0,9,2.5408012360364265
basic,47,38,0,1,1,16,"[0, 19, 17, 20, 4, 15, 11, 28, 16]",9,0,[],21.99407872,25633,1406,1,0,9,2.5408012360364265
basic,48,44,0,0,0,0,[0],1,29,"[1, 2, 3, 4, 5, 6, 7, 8, 9, 10, 11, 12, 13, 14, 15, 16, 17, 18, 19, 20, 21, 22, 23, 24, 25, 26, 27, 28, 29]",300,979,-1,13,126,7,0.0
basic,48,44,0,0,0,8,"[0, 8]",2,17,"[1, 4, 5, 7, 9, 10, 11, 12, 13, 14, 15, 20, 21, 23, 24, 25, 27]",145.7923478,7571,6592,1,10,7,1.0
basic,48,44,0,0,0,20,"[0, 8, 20]",3,16,"[1, 4, 5, 7, 9, 10, 11, 12, 13, 14, 15, 21, 23, 24, 25, 27]",133.7093018,10075,2504,1,9,7,1.0890794433668698
basic,48,44,0,0,0,9,"[0, 8, 20, 9]",4,7,"[4, 7, 11, 12, 14, 23, 24]",76.43801756,15204,5129,1,6,7,1.40892325509949
basic,48,44,0,0,0,4,"[0, 8, 20, 9, 4]",5,4,"[7, 12, 23, 24]",56.74030196,16293,1089,1,3,7,1.3849770570803555
basic,48,44,0,0,0,7,"[0, 8, 20, 9, 4, 7]",6,1,[23],25.72417712,19879,3586,1,0,7,1.3274380931474288
basic,48,44,0,0,1,23,"[0, 8, 20, 9, 4, 7, 23]",7,0,[],6.619203947,22859,2980,1,0,7,1.3395824779823196
basic,48,44,0,1,1,23,"[0, 8, 20, 9, 4, 7, 23]",7,0,[],6.619203947,24284,1425,1,0,7,1.3395824779823196
basic,49,43,0,0,0,0,[0],1,23,"[1, 2, 3, 4, 5, 6, 7, 9, 10, 11, 12, 14, 15, 16, 17, 19, 20, 21, 22, 23, 25, 27, 29]",300,1001,-1,16,556,12,0.0
basic,49,43,0,0,0,29,"[0, 29]",2,22,"[1, 2, 3, 4, 5, 6, 7, 9, 10, 11, 12, 14, 15, 16, 17, 19, 20, 21, 22, 23, 25, 27]",277.909278,3466,2465,16,520,12,1.0
basic,49,43,0,0,0,20,"[0, 29, 20]",3,20,"[1, 2, 3, 4, 6, 7, 9, 10, 11, 12, 14, 15, 16, 17, 19, 21, 22, 23, 25, 27]",254.4785289,5123,1657,15,422,12,1.082311746871282
basic,49,43,0,0,0,16,"[0, 29, 20, 16]",4,19,"[1, 2, 3, 4, 6, 7, 9, 10, 11, 12, 14, 15, 17, 19, 21, 22, 23, 25, 27]",231.8511119,6692,1569,15,389,12,1.215201926898219
basic,49,43,0,0,0,15,"[0, 29, 20, 16, 15]",5,14,"[1, 2, 3, 4, 6, 7, 9, 11, 12, 14, 19, 22, 23, 25]",188.5267539,8017,1325,3,109,12,1.3482474915350444
basic,49,43,0,0,0,12,"[0, 29, 20, 16, 15, 12]",6,13,"[1, 2, 3, 4, 6, 7, 9, 11, 14, 19, 22, 23, 25]",169.213546,9136,1119,1,49,12,1.3229664037236823
basic,49,43,0,0,0,3,"[0, 29, 20, 16, 15, 12, 3]",7,11,"[1, 4, 6, 7, 9, 11, 14, 19, 22, 23, 25]",156.213546,10326,1190,1,35,12,1.2907201281243643
basic,49,43,0,0,0,22,"[0, 29, 20, 16, 15, 12, 3, 22]",8,9,"[1, 4, 6, 7, 11, 14, 19, 23, 25]",121.5004361,12003,1677,1,18,12,1.4966181986440266
basic,49,43,0,0,0,19,"[0, 29, 20, 16, 15, 12, 3, 22, 19]",9,7,"[1, 4, 6, 7, 11, 14, 25]",100.8849079,18849,6846,1,9,12,1.4332617950535695
basic,49,43,0,0,0,1,"[0, 29, 20, 16, 15, 12, 3, 22, 19, 1]",10,5,"[4, 6, 7, 11, 14]",72.70690233,20238,1389,1,4,12,1.5789573993284716
basic,49,43,0,0,1,11,"[0, 29, 20, 16, 15, 12, 3, 22, 19, 1, 11]",11,0,[],14.90551826,23434,3196,1,0,11,3.1329063927472527
basic,49,43,0,1,1,11,"[0, 29, 20, 16, 15, 12, 3, 22, 19, 1, 11]",11,0,[],14.90551826,25075,1641,1,0,11,3.1329063927472527
basic,50,19,0,0,0,0,[0],1,29,"[1, 2, 3, 4, 5, 6, 7, 8, 9, 10, 11, 12, 13, 14, 15, 16, 17, 18, 19, 20, 21, 22, 23, 24, 25, 26, 27, 28, 29]",300,963,-1,12,149,8,0.0
basic,50,19,0,0,0,12,"[0, 12]",2,15,"[1, 2, 3, 5, 8, 9, 13, 16, 17, 18, 19, 21, 23, 25, 29]",180.3964883,15844,14881,9,58,7,1.0
basic,50,19,0,0,0,17,"[0, 12, 17]",3,11,"[1, 2, 3, 8, 13, 16, 18, 19, 23, 25, 29]",160.2718765,16785,941,6,25,7,1.0081383695928103
basic,50,19,0,0,0,25,"[0, 12, 17, 25]",4,10,"[1, 2, 3, 8, 13, 16, 18, 19, 23, 29]",149.2265155,17678,893,6,16,7,1.1056437189959143
basic,50,19,0,0,0,8,"[0, 12, 17, 25, 8]",5,2,"[3, 23]",54.01622197,21126,3448,1,1,7,1.128829229407734
basic,50,19,0,0,0,3,"[0, 12, 17, 25, 8, 3]",6,1,[23],30.69241439,22314,1188,1,0,7,1.3363371774583954
basic,50,19,0,0,1,23,"[0, 12, 17, 25, 8, 3, 23]",7,0,[],8.760702191,23237,923,1,0,7,1.6197467714801483
basic,50,19,0,1,1,23,"[0, 12, 17, 25, 8, 3, 23]",7,0,[],8.760702191,24668,1431,1,0,7,1.6197467714801483
basic,51,20,0,0,0,0,[0],1,21,"[1, 2, 3, 4, 5, 6, 7, 8, 9, 12, 17, 18, 20, 21, 22, 23, 25, 26, 27, 28, 29]",300,1102,-1,1,9,9,0.0
basic,51,20,0,0,0,29,"[0, 29]",2,16,"[1, 3, 4, 5, 7, 8, 12, 17, 18, 20, 21, 22, 23, 25, 27, 28]",245.8797635,4390,3288,1,18,7,1.0
basic,51,20,0,0,0,12,"[0, 29, 12]",3,11,"[1, 3, 4, 5, 8, 17, 18, 20, 21, 27, 28]",192.7949257,6303,1913,1,7,7,3.7691296919769885
basic,51,20,0,0,0,1,"[0, 29, 12, 1]",4,6,"[4, 5, 8, 21, 27, 28]",110.8071218,9555,3252,1,4,7,1.8430889449075105
basic,51,20,0,0,0,5,"[0, 29, 12, 1, 5]",5,3,"[8, 21, 28]",74.13288012,11628,2073,1,2,7,1.7976989501720055
basic,51,20,0,0,0,21,"[0, 29, 12, 1, 5, 21]",6,1,[8],29.13288012,12888,1260,1,0,7,1.5879330318401907
basic,51,20,0,0,1,8,"[0, 29, 12, 1, 5, 21, 8]",7,0,[],11.66863092,15110,2222,1,0,7,1.5684551128267752
basic,51,20,0,1,1,8,"[0, 29, 12, 1, 5, 21, 8]",7,0,[],11.66863092,16504,1394,1,0,7,1.5684551128267752
basic,52,22,0,0,0,0,[0],1,29,"[1, 2, 3, 4, 5, 6, 7, 8, 9, 10, 11, 12, 13, 14, 15, 16, 17, 18, 19, 20, 21, 22, 23, 24, 25, 26, 27, 28, 29]",300,1195,-1,31,704,9,0.0
basic,52,22,0,0,0,29,"[0, 29]",2,22,"[1, 3, 5, 6, 7, 8, 9, 11, 13, 14, 15, 16, 17, 19, 20, 21, 22, 23, 24, 25, 27, 28]",222.9935068,7764,6569,11,235,9,1.0
basic,52,22,0,0,0,19,"[0, 29, 19]",3,18,"[1, 3, 6, 7, 8, 9, 13, 14, 15, 16, 17, 20, 21, 22, 23, 24, 25, 28]",207.9602104,8809,1045,11,172,9,1.1559285443414686
basic,52,22,0,0,0,9,"[0, 29, 19, 9]",4,16,"[1, 3, 6, 7, 8, 13, 14, 15, 16, 17, 20, 21, 22, 24, 25, 28]",187.5641323,10004,1195,7,84,9,1.2555028175473422
basic,52,22,0,0,0,14,"[0, 29, 19, 9, 14]",5,11,"[1, 3, 6, 7, 13, 16, 17, 20, 21, 24, 28]",144.5176458,11551,1547,4,28,9,1.200251311198461
basic,52,22,0,0,0,7,"[0, 29, 19, 9, 14, 7]",6,10,"[1, 3, 6, 13, 16, 17, 20, 21, 24, 28]",131.479241,13093,1542,4,18,9,1.3399585036197592
basic,52,22,0,0,0,17,"[0, 29, 19, 9, 14, 7, 17]",7,5,"[1, 3, 20, 21, 24]",89.86193693,14576,1483,3,3,9,1.3297480627305363
basic,52,22,0,0,0,24,"[0, 29, 19, 9, 14, 7, 17, 24]",8,1,[21],36.2615638,16433,1857,1,0,9,1.9662272266856244
basic,52,22,0,0,1,21,"[0, 29, 19, 9, 14, 7, 17, 24, 21]",9,0,[],9.05862278,18356,1923,1,0,9,1.803648247715218
basic,52,22,0,1,1,21,"[0, 29, 19, 9, 14, 7, 17, 24, 21]",9,0,[],9.05862278,19566,1210,1,0,9,1.803648247715218
basic,53,1,0,0,0,0,[0],1,26,"[1, 2, 4, 5, 7, 8, 9, 10, 11, 12, 13, 14, 15, 16, 17, 18, 19, 20, 21, 22, 23, 24, 25, 26, 28, 29]",300,910,-1,6,74,7,0.0
basic,53,1,0,0,0,14,"[0, 14]",2,19,"[1, 4, 5, 8, 9, 13, 15, 17, 18, 19, 20, 21, 22, 23, 24, 25, 26, 28, 29]",200.1901808,5520,4610,5,42,7,1.0
basic,53,1,0,0,0,17,"[0, 14, 17]",3,15,"[1, 4, 5, 8, 9, 13, 15, 18, 19, 20, 22, 23, 25, 28, 29]",147.8356204,7216,1696,5,27,7,1.0028844724416826
basic,53,1,0,0,0,1,"[0, 14, 17, 1]",4,12,"[4, 5, 8, 9, 15, 18, 20, 22, 23, 25, 28, 29]",123.4840291,8133,917,5,15,7,1.0264985578353567
basic,53,1,0,0,0,28,"[0, 14, 17, 1, 28]",5,5,"[9, 15, 22, 23, 29]",88.59850198,9439,1306,5,3,7,1.0339861575999345
basic,53,1,0,0,0,23,"[0, 14, 17, 1, 28, 23]",6,2,"[15, 22]",51.70676849,11055,1616,2,0,7,1.0327458250705703
basic,53,1,0,0,1,15,"[0, 14, 17, 1, 28, 23, 15]",7,0,[],20.81987807,12999,1944,1,0,7,1.1948681641401226
basic,53,1,0,1,1,15,"[0, 14, 17, 1, 28, 23, 15]",7,0,[],20.81987807,14681,1682,1,0,7,1.1948681641401226
basic,54,33,0,0,0,0,[0],1,23,"[1, 2, 5, 7, 8, 11, 12, 13, 14, 15, 16, 17, 18, 19, 20, 21, 23, 24, 25, 26, 27, 28, 29]",300,1159,-1,5,108,9,0.0
basic,54,33,0,0,0,8,"[0, 8]",2,22,"[1, 2, 5, 7, 11, 12, 13, 14, 15, 16, 17, 18, 19, 20, 21, 23, 24, 25, 26, 27, 28, 29]",265.8679037,9825,8666,5,87,9,1.0
basic,54,33,0,0,0,21,"[0, 8, 21]",3,16,"[2, 5, 7, 11, 13, 14, 16, 17, 18, 19, 20, 24, 26, 27, 28, 29]",166.0430571,11469,1644,5,80,9,1.0670557763739492
basic,54,33,0,0,0,17,"[0, 8, 21, 17]",4,11,"[2, 7, 11, 13, 14, 16, 19, 20, 24, 26, 29]",127.4036989,13503,2034,1,18,9,1.0830294710276618
basic,54,33,0,0,0,13,"[0, 8, 21, 17, 13]",5,10,"[2, 7, 11, 14, 16, 19, 20, 24, 26, 29]",104.6001904,14990,1487,1,10,9,1.2861654105061844
basic,54,33,0,0,0,19,"[0, 8, 21, 17, 13, 19]",6,6,"[7, 14, 16, 24, 26, 29]",79.10509282,16815,1825,1,6,9,1.3181942666818214
basic,54,33,0,0,0,7,"[0, 8, 21, 17, 13, 19, 7]",7,3,"[14, 24, 26]",33.48711391,18449,1634,1,2,9,1.25064167844248
basic,54,33,0,0,0,14,"[0, 8, 21, 17, 13, 19, 7, 14]",8,1,[26],18.62104516,19460,1011,1,0,9,1.297007778404226
basic,54,33,0,0,1,26,"[0, 8, 21, 17, 13, 19, 7, 14, 26]",9,0,[],5.971934519,20516,1056,1,0,9,1.2996231319325615
basic,54,33,0,1,1,26,"[0, 8, 21, 17, 13, 19, 7, 14, 26]",9,0,[],5.971934519,21890,1374,1,0,9,1.2996231319325615
basic,55,18,0,0,0,0,[0],1,28,"[1, 2, 3, 4, 5, 6, 7, 8, 9, 10, 11, 12, 13, 14, 16, 17, 18, 19, 20, 21, 22, 23, 24, 25, 26, 27, 28, 29]",300,937,-1,3,136,10,0.0
basic,55,18,0,0,0,28,"[0, 28]",2,16,"[1, 3, 5, 7, 8, 9, 12, 13, 14, 16, 20, 23, 24, 25, 26, 27]",236.4311397,5824,4887,2,19,10,1.0
basic,55,18,0,0,0,7,"[0, 28, 7]",3,15,"[1, 3, 5, 8, 9, 12, 13, 14, 16, 20, 23, 24, 25, 26, 27]",214.4084242,7162,1338,2,17,10,1.4345180696367563
basic,55,18,0,0,0,25,"[0, 28, 7, 25]",4,13,"[1, 3, 5, 8, 9, 12, 13, 14, 16, 20, 23, 26, 27]",186.6055466,9777,2615,2,15,10,1.8896451241781882
basic,55,18,0,0,0,8,"[0, 28, 7, 25, 8]",5,10,"[3, 5, 9, 12, 13, 14, 16, 23, 26, 27]",149.551532,13146,3369,2,10,10,1.590467437592877
basic,55,18,0,0,0,13,"[0, 28, 7, 25, 8, 13]",6,9,"[3, 5, 9, 12, 14, 16, 23, 26, 27]",128.4565089,16142,2996,2,5,10,1.8248274983549797
basic,55,18,0,0,0,14,"[0, 28, 7, 25, 8, 13, 14]",7,7,"[3, 5, 9, 12, 23, 26, 27]",109.4828429,17229,1087,2,3,10,1.6993534956692746
basic,55,18,0,0,0,3,"[0, 28, 7, 25, 8, 13, 14, 3]",8,3,"[5, 12, 27]",79.39962499,18524,1295,2,1,10,1.802637206541468
basic,55,18,0,0,0,5,"[0, 28, 7, 25, 8, 13, 14, 3, 5]",9,1,[12],21.21887216,21272,2748,1,0,10,1.559774889743805
basic,55,18,0,0,1,12,"[0, 28, 7, 25, 8, 13, 14, 3, 5, 12]",10,0,[],9.817117911,23554,2282,1,0,10,1.563993037384447
basic,55,18,0,1,1,12,"[0, 28, 7, 25, 8, 13, 14, 3, 5, 12]",10,0,[],9.817117911,26354,2800,1,0,10,1.563993037384447
basic,56,45,0,0,0,0,[0],1,24,"[1, 2, 3, 4, 5, 6, 7, 9, 10, 11, 12, 14, 15, 16, 17, 19, 20, 21, 22, 23, 24, 25, 27, 29]",300,982,-1,6,248,10,0.0
basic,56,45,0,0,0,15,"[0, 15]",2,23,"[1, 2, 3, 4, 5, 6, 7, 9, 10, 11, 12, 14, 16, 17, 19, 20, 21, 22, 23, 24, 25, 27, 29]",253.9022777,8148,7166,5,207,10,1.0
basic,56,45,0,0,0,23,"[0, 15, 23]",3,22,"[1, 2, 3, 4, 5, 6, 7, 9, 10, 11, 12, 14, 16, 17, 19, 20, 21, 22, 24, 25, 27, 29]",230.3014303,9422,1274,5,163,10,1.0006068457769497
basic,56,45,0,0,0,20,"[0, 15, 23, 20]",4,19,"[1, 2, 3, 5, 6, 7, 9, 10, 11, 12, 14, 16, 17, 19, 21, 22, 24, 25, 29]",188.8647316,11327,1905,5,137,10,1.2062119754673604
basic,56,45,0,0,0,10,"[0, 15, 23, 20, 10]",5,12,"[2, 3, 6, 7, 9, 12, 14, 17, 22, 24, 25, 29]",132.784432,13265,1938,1,54,10,1.1363907740691004
basic,56,45,0,0,0,29,"[0, 15, 23, 20, 10, 29]",6,8,"[2, 3, 6, 7, 12, 14, 22, 24]",111.2437728,15721,2456,1,21,10,1.1719694806770014
basic,56,45,0,0,0,6,"[0, 15, 23, 20, 10, 29, 6]",7,5,"[2, 3, 7, 12, 22]",83.08351708,18597,2876,6,1,9,1.259419397054378
basic,56,45,0,0,0,3,"[0, 15, 23, 20, 10, 29, 6, 3]",8,2,"[2, 22]",46.84817522,19997,1400,2,0,9,1.4111982926491955
basic,56,45,0,0,1,22,"[0, 15, 23, 20, 10, 29, 6, 3, 22]",9,0,[],3.385547592,22426,2429,1,0,9,1.3958829505840287
basic,56,45,0,1,1,22,"[0, 15, 23, 20, 10, 29, 6, 3, 22]",9,0,[],3.385547592,23949,1523,1,0,9,1.3958829505840287
basic,57,25,0,0,0,0,[0],1,28,"[1, 2, 3, 4, 5, 7, 8, 9, 10, 11, 12, 13, 14, 15, 16, 17, 18, 19, 20, 21, 22, 23, 24, 25, 26, 27, 28, 29]",300,912,-1,5,94,10,0.0
basic,57,25,0,0,0,23,"[0, 23]",2,23,"[1, 2, 3, 5, 7, 8, 9, 11, 12, 13, 14, 16, 17, 19, 20, 21, 22, 24, 25, 26, 27, 28, 29]",259.7756293,6093,5181,3,33,10,1.0
basic,57,25,0,0,0,19,"[0, 23, 19]",3,21,"[1, 2, 3, 5, 7, 8, 9, 11, 12, 13, 14, 16, 17, 20, 21, 22, 24, 25, 27, 28, 29]",223.9287326,7711,1618,3,24,10,1.583101227007039
basic,57,25,0,0,0,29,"[0, 23, 19, 29]",4,19,"[1, 2, 3, 5, 7, 8, 9, 11, 12, 13, 14, 16, 17, 20, 21, 22, 24, 25, 28]",207.649912,8583,872,3,17,10,1.474631541426484
basic,57,25,0,0,0,22,"[0, 23, 19, 29, 22]",5,18,"[1, 2, 3, 5, 7, 8, 9, 11, 12, 13, 14, 16, 17, 20, 21, 24, 25, 28]",191.5253965,9382,799,3,14,10,1.4020377754906637
basic,57,25,0,0,0,7,"[0, 23, 19, 29, 22, 7]",6,7,"[3, 8, 9, 11, 13, 24, 28]",115.8814939,11374,1992,3,11,10,1.5709678649326715
basic,57,25,0,0,0,24,"[0, 23, 19, 29, 22, 7, 24]",7,5,"[3, 8, 9, 13, 28]",91.12265712,12783,1409,3,7,10,1.486191600033379
basic,57,25,0,0,0,9,"[0, 23, 19, 29, 22, 7, 24, 9]",8,4,"[3, 8, 13, 28]",73.09490075,14053,1270,3,3,10,1.453504870342882
basic,57,25,0,0,0,3,"[0, 23, 19, 29, 22, 7, 24, 9, 3]",9,3,"[8, 13, 28]",42.82940885,16031,1978,3,0,10,1.388955167525479
basic,57,25,0,0,1,13,"[0, 23, 19, 29, 22, 7, 24, 9, 3, 13]",10,0,[],11.58841014,18199,2168,1,0,10,1.4309045890044414
basic,57,25,0,1,1,13,"[0, 23, 19, 29, 22, 7, 24, 9, 3, 13]",10,0,[],11.58841014,19399,1200,1,0,10,1.4309045890044414
basic,58,21,0,0,0,0,[0],1,29,"[1, 2, 3, 4, 5, 6, 7, 8, 9, 10, 11, 12, 13, 14, 15, 16, 17, 18, 19, 20, 21, 22, 23, 24, 25, 26, 27, 28, 29]",300,1060,-1,84,830,9,0.0
basic,58,21,0,0,0,20,"[0, 20]",2,28,"[1, 2, 3, 4, 5, 6, 7, 8, 9, 10, 11, 12, 13, 14, 15, 16, 17, 18, 19, 21, 22, 23, 24, 25, 26, 27, 28, 29]",217.6228187,6026,4966,6,67,9,1.0
basic,58,21,0,0,0,22,"[0, 20, 22]",3,23,"[2, 4, 6, 7, 8, 9, 10, 11, 12, 13, 14, 15, 16, 17, 18, 19, 21, 23, 24, 25, 26, 27, 29]",189.3916303,8477,2451,6,47,9,1.3451865712078994
basic,58,21,0,0,0,18,"[0, 20, 22, 18]",4,20,"[2, 4, 6, 7, 8, 9, 10, 11, 12, 14, 15, 16, 17, 21, 23, 24, 25, 26, 27, 29]",162.9908727,9832,1355,4,25,9,2.3191924394507706
basic,58,21,0,0,0,29,"[0, 20, 22, 18, 29]",5,16,"[2, 4, 6, 7, 8, 10, 12, 14, 15, 16, 17, 21, 23, 24, 25, 27]",134.3377751,11667,1835,2,10,9,1.9554738681863184
basic,58,21,0,0,0,25,"[0, 20, 22, 18, 29, 25]",6,5,"[4, 14, 17, 21, 23]",89.11609892,12871,1204,2,5,9,3.5255206171255487
basic,58,21,0,0,0,23,"[0, 20, 22, 18, 29, 25, 23]",7,3,"[4, 14, 21]",45.79174087,14528,1657,1,2,9,2.5672363743380044
basic,58,21,0,0,0,14,"[0, 20, 22, 18, 29, 25, 23, 14]",8,1,[4],16.72285717,17787,3259,1,0,9,2.4731167331439745
basic,58,21,0,0,1,4,"[0, 20, 22, 18, 29, 25, 23, 14, 4]",9,0,[],2.580721543,18939,1152,1,0,9,2.3252918316977027
basic,58,21,0,1,1,4,"[0, 20, 22, 18, 29, 25, 23, 14, 4]",9,0,[],2.580721543,20383,1444,1,0,9,2.3252918316977027
basic,59,15,0,0,0,0,[0],1,25,"[1, 2, 3, 4, 7, 8, 9, 10, 11, 12, 13, 14, 15, 16, 18, 20, 21, 22, 23, 24, 25, 26, 27, 28, 29]",300,1062,-1,4,65,9,0.0
basic,59,15,0,0,0,16,"[0, 16]",2,16,"[3, 4, 7, 9, 10, 11, 12, 13, 14, 15, 18, 20, 21, 22, 25, 27]",185.8378346,8151,7089,22,104,7,1.0
basic,59,15,0,0,0,3,"[0, 16, 3]",3,14,"[4, 7, 10, 11, 12, 13, 14, 15, 18, 20, 21, 22, 25, 27]",160.7579622,9191,1040,8,31,7,1.0518498474119804
basic,59,15,0,0,0,11,"[0, 16, 3, 11]",4,11,"[4, 7, 10, 12, 13, 14, 15, 18, 21, 22, 27]",149.356208,10003,812,7,11,7,1.2132134560241312
basic,59,15,0,0,0,7,"[0, 16, 3, 11, 7]",5,4,"[4, 12, 21, 22]",107.871271,11170,1167,1,3,7,2.2653602701959374
basic,59,15,0,0,0,12,"[0, 16, 3, 11, 7, 12]",6,1,[21],74.62973068,12203,1033,1,0,7,2.606874218069835
basic,59,15,0,0,1,21,"[0, 16, 3, 11, 7, 12, 21]",7,0,[],30.80051668,13413,1210,1,0,7,2.8311702584977176
basic,59,15,0,1,1,21,"[0, 16, 3, 11, 7, 12, 21]",7,0,[],30.80051668,14972,1559,1,0,7,2.8311702584977176
basic,60,28,0,0,0,0,[0],1,27,"[1, 2, 3, 4, 5, 6, 7, 8, 9, 10, 11, 12, 13, 14, 15, 16, 17, 18, 19, 20, 22, 23, 25, 26, 27, 28, 29]",300,945,-1,2,96,9,0.0
basic,60,28,0,0,0,3,"[0, 3]",2,26,"[1, 2, 4, 5, 6, 7, 8, 9, 10, 11, 12, 13, 14, 15, 16, 17, 18, 19, 20, 22, 23, 25, 26, 27, 28, 29]",251.0817008,8282,7337,1,64,9,1.0
basic,60,28,0,0,0,14,"[0, 3, 14]",3,13,"[1, 2, 5, 7, 10, 11, 12, 13, 17, 18, 19, 20, 26]",142.7396498,11019,2737,19,59,8,1.0338694802207566
basic,60,28,0,0,0,18,"[0, 3, 14, 18]",4,10,"[1, 2, 5, 7, 11, 12, 13, 17, 19, 26]",117.2445523,12609,1590,18,18,8,1.098527225277385
basic,60,28,0,0,0,13,"[0, 3, 14, 18, 13]",5,7,"[2, 7, 11, 12, 17, 19, 26]",92.83144103,13977,1368,8,6,8,1.0872780601597938
basic,60,28,0,0,0,12,"[0, 3, 14, 18, 13, 12]",6,3,"[2, 7, 19]",75.6267905,15885,1908,3,1,8,1.0890748557820906
basic,60,28,0,0,0,7,"[0, 3, 14, 18, 13, 12, 7]",7,2,"[2, 19]",62.47384406,17181,1296,2,0,8,1.2125627495730145
basic,60,28,0,0,1,19,"[0, 3, 14, 18, 13, 12, 7, 19]",8,0,[],34.74299481,20467,3286,1,0,8,1.4527925513951803
basic,60,28,0,1,1,19,"[0, 3, 14, 18, 13, 12, 7, 19]",8,0,[],34.74299481,23531,3064,1,0,8,1.4527925513951803
basic,61,42,0,0,0,0,[0],1,29,"[1, 2, 3, 4, 5, 6, 7, 8, 9, 10, 11, 12, 13, 14, 15, 16, 17, 18, 19, 20, 21, 22, 23, 24, 25, 26, 27, 28, 29]",300,1117,-1,16,302,9,0.0
basic,61,42,0,0,0,3,"[0, 3]",2,25,"[1, 2, 4, 5, 6, 7, 8, 9, 10, 11, 13, 15, 17, 18, 19, 20, 21, 22, 23, 24, 25, 26, 27, 28, 29]",255.7959278,10119,9002,3,45,9,1.0
basic,61,42,0,0,0,8,"[0, 3, 8]",3,21,"[1, 2, 4, 5, 6, 7, 10, 11, 15, 17, 18, 19, 21, 22, 23, 24, 25, 26, 27, 28, 29]",160.6644398,14728,4609,1,36,8,1.2959344979044305
basic,61,42,0,0,0,24,"[0, 3, 8, 24]",4,2,"[11, 15]",61.61899572,17352,2624,2,0,5,1.81922534349379
basic,61,42,0,0,1,15,"[0, 3, 8, 24, 15]",5,0,[],48.01752521,18640,1288,1,0,5,1.7422907814023336
basic,61,42,0,1,1,15,"[0, 3, 8, 24, 15]",5,0,[],48.01752521,20006,1366,1,0,5,1.7422907814023336
basic,62,29,0,0,0,0,[0],1,29,"[1, 2, 3, 4, 5, 6, 7, 8, 9, 10, 11, 12, 13, 14, 15, 16, 17, 18, 19, 20, 21, 22, 23, 24, 25, 26, 27, 28, 29]",300,1139,-1,1,78,9,0.0
basic,62,29,0,0,0,25,"[0, 25]",2,18,"[1, 2, 4, 5, 6, 7, 9, 10, 12, 13, 14, 15, 16, 17, 22, 26, 27, 28]",223.3449284,8511,7372,13,101,8,1.0
basic,62,29,0,0,0,17,"[0, 25, 17]",3,13,"[1, 4, 5, 6, 7, 9, 10, 12, 13, 14, 22, 27, 28]",188.41643,9293,782,2,22,8,1.014228463693056
basic,62,29,0,0,0,1,"[0, 25, 17, 1]",4,11,"[4, 5, 6, 7, 10, 12, 13, 14, 22, 27, 28]",149.5191293,10300,1007,2,18,8,1.7553639368828857
basic,62,29,0,0,0,14,"[0, 25, 17, 1, 14]",5,8,"[4, 5, 7, 12, 13, 22, 27, 28]",106.5656662,12119,1819,2,9,8,2.137167642879409
basic,62,29,0,0,0,13,"[0, 25, 17, 1, 14, 13]",6,4,"[4, 5, 12, 22]",88.53790978,13106,987,2,3,8,1.9535489858276616
basic,62,29,0,0,0,5,"[0, 25, 17, 1, 14, 13, 5]",7,2,"[4, 22]",62.82798951,14508,1402,2,0,8,1.9087092890879327
basic,62,29,0,0,1,4,"[0, 25, 17, 1, 14, 13, 5, 4]",8,0,[],10.93386653,16036,1528,1,0,8,1.6444131700810427
basic,62,29,0,1,1,4,"[0, 25, 17, 1, 14, 13, 5, 4]",8,0,[],10.93386653,17657,1621,1,0,8,1.6444131700810427
basic,63,11,0,0,0,0,[0],1,25,"[1, 2, 3, 4, 5, 6, 8, 9, 10, 11, 12, 13, 14, 15, 16, 17, 18, 19, 20, 22, 23, 25, 26, 27, 28]",300,1075,-1,6,374,12,0.0
basic,63,11,0,0,0,1,"[0, 1]",2,24,"[2, 3, 4, 5, 6, 8, 9, 10, 11, 12, 13, 14, 15, 16, 17, 18, 19, 20, 22, 23, 25, 26, 27, 28]",264.6446609,5770,4695,6,217,12,1.0
basic,63,11,0,0,0,18,"[0, 1, 18]",3,19,"[2, 4, 5, 6, 8, 9, 11, 12, 14, 15, 16, 17, 19, 20, 22, 23, 25, 27, 28]",212.3187591,7274,1504,6,161,12,1.3884463804898786
basic,63,11,0,0,0,27,"[0, 1, 18, 27]",4,18,"[2, 4, 5, 6, 8, 9, 11, 12, 14, 15, 16, 17, 19, 20, 22, 23, 25, 28]",188.4650382,9342,2068,6,155,12,1.3600813284083875
basic,63,11,0,0,0,8,"[0, 1, 18, 27, 8]",5,11,"[2, 5, 6, 11, 12, 15, 17, 19, 22, 25, 28]",118.2510795,11792,2450,4,75,12,1.2516561493067806
basic,63,11,0,0,0,17,"[0, 1, 18, 27, 8, 17]",6,10,"[2, 5, 6, 11, 12, 15, 19, 22, 25, 28]",103.9332585,13220,1428,4,40,12,1.3330781007673067
basic,63,11,0,0,0,15,"[0, 1, 18, 27, 8, 17, 15]",7,7,"[2, 5, 11, 12, 19, 22, 28]",91.28414782,14234,1014,4,35,12,1.3305073448996472
basic,63,11,0,0,0,11,"[0, 1, 18, 27, 8, 17, 15, 11]",8,5,"[2, 5, 19, 22, 28]",73.17337754,16022,1788,4,17,12,1.308363545391271
basic,63,11,0,0,0,5,"[0, 1, 18, 27, 8, 17, 15, 11, 5]",9,3,"[2, 22, 28]",37.94554764,21952,5930,5,0,11,1.610730105137712
basic,63,11,0,0,0,28,"[0, 1, 18, 27, 8, 17, 15, 11, 5, 28]",10,2,"[2, 22]",20.05700382,23093,1141,2,0,11,1.6200090202692834
basic,63,11,0,0,1,2,"[0, 1, 18, 27, 8, 17, 15, 11, 5, 28, 2]",11,0,[],9.426858002,24650,1557,1,0,11,1.6279693178231827
basic,63,11,0,1,1,2,"[0, 1, 18, 27, 8, 17, 15, 11, 5, 28, 2]",11,0,[],9.426858002,26176,1526,1,0,11,1.6279693178231827
basic,64,35,0,0,0,0,[0],1,29,"[1, 2, 3, 4, 5, 6, 7, 8, 9, 10, 11, 12, 13, 14, 15, 16, 17, 18, 19, 20, 21, 22, 23, 24, 25, 26, 27, 28, 29]",300,1062,-1,5,236,11,0.0
basic,64,35,0,0,0,24,"[0, 24]",2,27,"[1, 2, 4, 5, 6, 7, 8, 9, 10, 11, 12, 13, 14, 15, 16, 17, 18, 19, 20, 21, 22, 23, 25, 26, 27, 28, 29]",268.9838752,3869,2807,49,512,10,1.0
basic,64,35,0,0,0,17,"[0, 24, 17]",3,26,"[1, 2, 4, 5, 6, 7, 8, 9, 10, 11, 12, 13, 14, 15, 16, 18, 19, 20, 21, 22, 23, 25, 26, 27, 28, 29]",257.2791753,5118,1249,33,238,10,1.0771477201815276
basic,64,35,0,0,0,1,"[0, 24, 17, 1]",4,25,"[2, 4, 5, 6, 7, 8, 9, 10, 11, 12, 13, 14, 15, 16, 18, 19, 20, 21, 22, 23, 25, 26, 27, 28, 29]",241.4677869,6534,1416,26,151,10,1.2244804141479215
basic,64,35,0,0,0,15,"[0, 24, 17, 1, 15]",5,23,"[2, 4, 5, 6, 7, 8, 9, 10, 11, 12, 14, 16, 18, 19, 20, 21, 22, 23, 25, 26, 27, 28, 29]",218.6204676,7810,1276,26,78,10,1.4642196672428094
basic,64,35,0,0,0,23,"[0, 24, 17, 1, 15, 23]",6,11,"[4, 5, 6, 9, 18, 19, 25, 26, 27, 28, 29]",158.1804147,9700,1890,15,12,10,1.3338903684702363
basic,64,35,0,0,0,9,"[0, 24, 17, 1, 15, 23, 9]",7,6,"[5, 6, 18, 19, 25, 27]",120.5373542,11351,1651,6,1,10,1.5964380615155294
basic,64,35,0,0,0,18,"[0, 24, 17, 1, 15, 23, 9, 18]",8,3,"[5, 6, 25]",100.5123698,12948,1597,2,1,10,1.5508488101942703
basic,64,35,0,0,0,25,"[0, 24, 17, 1, 15, 23, 9, 18, 25]",9,1,[6],66.67452121,14520,1572,1,0,10,1.4408023801578587
basic,64,35,0,0,1,6,"[0, 24, 17, 1, 15, 23, 9, 18, 25, 6]",10,0,[],42.65369691,16213,1693,1,0,10,1.701781671832088
basic,64,35,0,1,1,6,"[0, 24, 17, 1, 15, 23, 9, 18, 25, 6]",10,0,[],42.65369691,17859,1646,1,0,10,1.701781671832088
basic,65,10,0,0,0,0,[0],1,29,"[1, 2, 3, 4, 5, 6, 7, 8, 9, 10, 11, 12, 13, 14, 15, 16, 17, 18, 19, 20, 21, 22, 23, 24, 25, 26, 27, 28, 29]",300,966,-1,1,100,9,0.0
basic,65,10,0,0,0,13,"[0, 13]",2,25,"[1, 2, 3, 4, 6, 7, 8, 9, 10, 11, 12, 14, 17, 18, 19, 20, 21, 22, 23, 24, 25, 26, 27, 28, 29]",249.4628849,6730,5764,1,79,9,1.0
basic,65,10,0,0,0,11,"[0, 13, 11]",3,20,"[1, 2, 3, 6, 7, 8, 9, 10, 12, 14, 18, 19, 20, 21, 22, 24, 26, 27, 28, 29]",206.4512586,11011,4281,1,54,9,1.0313137484914219
basic,65,10,0,0,0,20,"[0, 13, 11, 20]",4,15,"[1, 2, 3, 6, 8, 9, 10, 12, 14, 18, 19, 21, 24, 26, 27]",168.3723931,13516,2505,15,34,8,1.0874972644654597
basic,65,10,0,0,0,26,"[0, 13, 11, 20, 26]",5,8,"[2, 6, 9, 10, 14, 18, 19, 27]",136.5918959,14939,1423,6,9,8,1.2338398611867702
basic,65,10,0,0,0,14,"[0, 13, 11, 20, 26, 14]",6,3,"[2, 19, 27]",101.9220243,16471,1532,2,1,8,1.2385196389162765
basic,65,10,0,0,0,2,"[0, 13, 11, 20, 26, 14, 2]",7,1,[19],89.75649919,17474,1003,1,0,8,1.2878757708849242
basic,65,10,0,0,1,19,"[0, 13, 11, 20, 26, 14, 2, 19]",8,0,[],45.84750239,18528,1054,1,0,8,2.1284579604680154
basic,65,10,0,1,1,19,"[0, 13, 11, 20, 26, 14, 2, 19]",8,0,[],45.84750239,19859,1331,1,0,8,2.1284579604680154
basic,66,2,0,0,0,0,[0],1,23,"[1, 2, 4, 5, 6, 7, 8, 9, 12, 13, 15, 16, 17, 18, 19, 20, 22, 23, 25, 26, 27, 28, 29]",300,1087,-1,70,620,10,0.0
basic,66,2,0,0,0,19,"[0, 19]",2,22,"[1, 2, 4, 5, 6, 7, 8, 9, 12, 13, 15, 16, 17, 18, 20, 22, 23, 25, 26, 27, 28, 29]",210.306076,5449,4362,67,431,10,1.0
basic,66,2,0,0,0,12,"[0, 19, 12]",3,17,"[1, 4, 5, 6, 7, 13, 15, 16, 17, 18, 20, 22, 25, 26, 27, 28, 29]",174.2921898,7482,2033,66,298,10,1.1107635036313153
basic,66,2,0,0,0,5,"[0, 19, 12, 5]",4,11,"[1, 6, 7, 13, 15, 16, 18, 22, 25, 26, 29]",144.7625437,9058,1576,38,136,10,1.0968174771581647
basic,66,2,0,0,0,22,"[0, 19, 12, 5, 22]",5,8,"[1, 6, 7, 13, 15, 18, 26, 29]",131.9562952,10035,977,20,63,10,1.0889910507461968
basic,66,2,0,0,0,13,"[0, 19, 12, 5, 22, 13]",6,7,"[1, 6, 7, 15, 18, 26, 29]",117.0902265,11142,1107,19,20,10,1.236526217328057
basic,66,2,0,0,0,18,"[0, 19, 12, 5, 22, 13, 18]",7,4,"[7, 15, 26, 29]",81.91921567,12819,1677,10,3,10,1.2128708213409936
basic,66,2,0,0,0,7,"[0, 19, 12, 5, 22, 13, 18, 7]",8,3,"[15, 26, 29]",71.62358553,14955,2136,5,0,10,1.2019811287894737
basic,66,2,0,0,0,26,"[0, 19, 12, 5, 22, 13, 18, 7, 26]",9,2,"[15, 29]",48.82007703,15756,801,2,0,10,1.1883593342191134
basic,66,2,0,0,1,15,"[0, 19, 12, 5, 22, 13, 18, 7, 26, 15]",10,0,[],24.61264015,17613,1857,1,0,10,1.4619750353663825
basic,66,2,0,1,1,15,"[0, 19, 12, 5, 22, 13, 18, 7, 26, 15]",10,0,[],24.61264015,19252,1639,1,0,10,1.4619750353663825
basic,67,5,0,0,0,0,[0],1,29,"[1, 2, 3, 4, 5, 6, 7, 8, 9, 10, 11, 12, 13, 14, 15, 16, 17, 18, 19, 20, 21, 22, 23, 24, 25, 26, 27, 28, 29]",300,1086,-1,5,139,9,0.0
basic,67,5,0,0,0,12,"[0, 12]",2,22,"[2, 4, 5, 6, 8, 9, 10, 13, 14, 15, 16, 17, 18, 19, 21, 22, 23, 24, 25, 26, 27, 28]",228.3062067,5851,4765,1,27,9,1.0
basic,67,5,0,0,0,25,"[0, 12, 25]",3,21,"[2, 4, 5, 6, 8, 9, 10, 13, 14, 15, 16, 17, 18, 19, 21, 22, 23, 24, 26, 27, 28]",200.5213187,6821,970,1,20,9,1.584023303445617
basic,67,5,0,0,0,23,"[0, 12, 25, 23]",4,19,"[2, 4, 5, 6, 8, 9, 10, 13, 14, 15, 16, 17, 18, 19, 21, 22, 24, 26, 27]",182.0822298,7911,1090,1,14,9,2.3508446989254357
basic,67,5,0,0,0,24,"[0, 12, 25, 23, 24]",5,15,"[2, 4, 5, 6, 8, 9, 13, 14, 15, 17, 18, 19, 22, 26, 27]",158.995437,10050,2139,1,12,9,1.9469752046288753
basic,67,5,0,0,0,17,"[0, 12, 25, 23, 24, 17]",6,7,"[4, 5, 6, 8, 15, 18, 19]",124.0097257,11415,1365,1,8,9,1.6482276497563642
basic,67,5,0,0,0,5,"[0, 12, 25, 23, 24, 17, 5]",7,4,"[4, 6, 15, 18]",80.96323916,12830,1415,1,3,9,1.4654649104389412
basic,67,5,0,0,1,15,"[0, 12, 25, 23, 24, 17, 5, 15]",8,0,[],40.93824697,13813,983,1,0,8,1.4660376450939663
basic,67,5,0,1,1,15,"[0, 12, 25, 23, 24, 17, 5, 15]",8,0,[],40.93824697,15962,2149,1,0,8,1.4660376450939663
basic,68,16,0,0,0,0,[0],1,29,"[1, 2, 3, 4, 5, 6, 7, 8, 9, 10, 11, 12, 13, 14, 15, 16, 17, 18, 19, 20, 21, 22, 23, 24, 25, 26, 27, 28, 29]",300,983,-1,13,161,9,0.0
basic,68,16,0,0,0,17,"[0, 17]",2,27,"[1, 2, 3, 4, 5, 7, 8, 9, 10, 11, 12, 13, 14, 15, 16, 18, 19, 20, 21, 22, 23, 24, 25, 26, 27, 28, 29]",241.3058776,7455,6472,2,58,9,1.0
basic,68,16,0,0,0,16,"[0, 17, 16]",3,26,"[1, 2, 3, 4, 5, 7, 8, 9, 10, 11, 12, 13, 14, 15, 18, 19, 20, 21, 22, 23, 24, 25, 26, 27, 28, 29]",212.9862731,9346,1891,2,52,9,1.0529535521792848
basic,68,16,0,0,0,8,"[0, 17, 16, 8]",4,19,"[2, 3, 4, 5, 9, 12, 13, 14, 15, 19, 20, 21, 22, 23, 25, 26, 27, 28, 29]",164.6127266,12338,2992,2,38,9,1.0915134501573105
basic,68,16,0,0,0,20,"[0, 17, 16, 8, 20]",5,10,"[3, 4, 5, 9, 12, 13, 15, 19, 21, 25]",106.8372993,14464,2126,1,15,9,1.067523143001942
basic,68,16,0,0,0,25,"[0, 17, 16, 8, 20, 25]",6,7,"[3, 4, 5, 9, 12, 13, 15]",94.18818869,15450,986,1,9,9,1.1170093326933646
basic,68,16,0,0,0,9,"[0, 17, 16, 8, 20, 25, 9]",7,5,"[3, 4, 5, 13, 15]",81.38194021,16543,1093,1,4,9,1.1095076562662525
basic,68,16,0,0,0,15,"[0, 17, 16, 8, 20, 25, 9, 15]",8,1,[5],42.48463953,19673,3130,1,0,9,1.213831159678775
basic,68,16,0,0,1,5,"[0, 17, 16, 8, 20, 25, 9, 15, 5]",9,0,[],13.0567616,20548,875,1,0,9,1.5171779607523481
basic,68,16,0,1,1,5,"[0, 17, 16, 8, 20, 25, 9, 15, 5]",9,0,[],13.0567616,21966,1418,1,0,9,1.5171779607523481
undo,69,6,0,0,0,0,[0],1,29,"[1, 2, 3, 4, 5, 6, 7, 8, 9, 10, 11, 12, 13, 14, 15, 16, 17, 18, 19, 20, 21, 22, 23, 24, 25, 26, 27, 28, 29]",300,1192,-1,180,4304,10,0.0
undo,69,6,0,0,0,3,"[0, 3]",2,28,"[1, 2, 4, 5, 6, 7, 8, 9, 10, 11, 12, 13, 14, 15, 16, 17, 18, 19, 20, 21, 22, 23, 24, 25, 26, 27, 28, 29]",266.4738908,9136,7944,90,1607,10,1.0
undo,69,6,0,0,0,2,"[0, 3, 2]",3,15,"[1, 4, 6, 7, 8, 9, 10, 13, 16, 17, 18, 23, 24, 26, 29]",189.5323545,23926,14790,24,98,9,1.3926460144406603
undo,69,6,0,0,0,24,"[0, 3, 2, 24]",4,8,"[6, 7, 10, 16, 17, 18, 23, 29]",88.68593664,27296,3370,1,9,8,2.1719266342671752
undo,69,6,0,0,0,10,"[0, 3, 2, 24, 10]",5,5,"[7, 16, 17, 18, 23]",75.26952878,28216,920,1,4,8,2.664434399336388
undo,69,6,0,0,0,17,"[0, 3, 2, 24, 10, 17]",6,2,"[16, 18]",55.54644585,29933,1717,1,1,8,3.4636825772431585
undo,69,6,0,0,0,18,"[0, 3, 2, 24, 10, 17, 18]",7,1,[16],41.61805758,30699,766,1,0,8,4.242616162597814
undo,69,6,0,0,1,16,"[0, 3, 2, 24, 10, 17, 18, 16]",8,0,[],18.27282252,31474,775,1,0,8,3.9031018358046583
undo,69,6,1,0,0,18,"[0, 3, 2, 24, 10, 17, 18]",7,1,[16],41.61805758,34369,2895,1,0,8,4.242616162597814
undo,69,6,1,0,0,17,"[0, 3, 2, 24, 10, 17]",6,2,"[16, 18]",55.54644585,34530,161,1,1,8,3.4636825772431585
undo,69,6,1,0,0,10,"[0, 3, 2, 24, 10]",5,5,"[7, 16, 17, 18, 23]",75.26952878,34741,211,1,4,8,2.664434399336388
undo,69,6,1,0,0,24,"[0, 3, 2, 24]",4,8,"[6, 7, 10, 16, 17, 18, 23, 29]",88.68593664,34963,222,1,9,8,2.1719266342671752
undo,69,6,1,0,0,2,"[0, 3, 2]",3,15,"[1, 4, 6, 7, 8, 9, 10, 13, 16, 17, 18, 23, 24, 26, 29]",189.5323545,35174,211,24,98,9,1.3926460144406603
undo,69,6,1,0,0,3,"[0, 3]",2,28,"[1, 2, 4, 5, 6, 7, 8, 9, 10, 11, 12, 13, 14, 15, 16, 17, 18, 19, 20, 21, 22, 23, 24, 25, 26, 27, 28, 29]",266.4738908,35388,214,90,1607,10,1.0
