condition,trial_id,map_id,undoIndicator,submit,checkEnd,currentChoice,chosen_all,n_city_all,n_within_reach,cities_reach,currentBudget,time_all,rt_all,n_opt_paths_all,n_subopt_paths_all,mas_all,tortuosity_all
basic,0,44,0,0,0,0,[0],1,29,"[1, 2, 3, 4, 5, 6, 7, 8, 9, 10, 11, 12, 13, 14, 15, 16, 17, 18, 19, 20, 21, 22, 23, 24, 25, 26, 27, 28, 29]",300,381,-1,13,126,7,0.0
basic,0,44,0,0,0,8,"[0, 8]",2,17,"[1, 4, 5, 7, 9, 10, 11, 12, 13, 14, 15, 20, 21, 23, 24, 25, 27]",145.7923478,6838,6457,1,10,7,1.0
basic,0,44,0,0,0,20,"[0, 8, 20]",3,16,"[1, 4, 5, 7, 9, 10, 11, 12, 13, 14, 15, 21, 23, 24, 25, 27]",133.7093018,8527,1689,1,9,7,1.0890794433668698
basic,0,44,0,0,0,9,"[0, 8, 20, 9]",4,7,"[4, 7, 11, 12, 14, 23, 24]",76.43801756,11052,2525,1,6,7,1.40892325509949
basic,0,44,0,0,0,4,"[0, 8, 20, 9, 4]",5,4,"[7, 12, 23, 24]",56.74030196,13160,2108,1,3,7,1.3849770570803555
basic,0,44,0,1,0,4,"[0, 8, 20, 9, 4]",5,4,"[7, 12, 23, 24]",56.74030196,17135,3975,1,3,7,1.3849770570803555
basic,1,33,0,0,0,0,[0],1,23,"[1, 2, 5, 7, 8, 11, 12, 13, 14, 15, 16, 17, 18, 19, 20, 21, 23, 24, 25, 26, 27, 28, 29]",300,198,-1,5,108,9,0.0
basic,1,33,0,0,0,8,"[0, 8]",2,22,"[1, 2, 5, 7, 11, 12, 13, 14, 15, 16, 17, 18, 19, 20, 21, 23, 24, 25, 26, 27, 28, 29]",265.8679037,2958,2760,5,87,9,1.0
basic,1,33,0,0,0,27,"[0, 8, 27]",3,6,"[5, 16, 19, 21, 23, 25]",172.3906337,6304,3346,2,5,5,1.1120034973992803
basic,1,33,0,0,0,25,"[0, 8, 27, 25]",4,2,"[5, 23]",120.7669957,8194,1890,2,0,5,1.0777241092063088
basic,1,33,0,0,1,23,"[0, 8, 27, 25, 23]",5,0,[],53.40231653,10081,1887,1,0,5,1.0653783070933391
basic,1,33,0,1,1,23,"[0, 8, 27, 25, 23]",5,0,[],53.40231653,12353,2272,1,0,5,1.0653783070933391
basic,2,17,0,0,0,0,[0],1,28,"[1, 2, 3, 4, 5, 6, 7, 8, 9, 10, 11, 12, 13, 14, 15, 16, 17, 18, 19, 20, 22, 23, 24, 25, 26, 27, 28, 29]",300,278,-1,2,73,8,0.0
basic,2,17,0,0,0,9,"[0, 9]",2,25,"[1, 2, 3, 5, 6, 7, 8, 10, 11, 12, 14, 15, 16, 17, 18, 19, 20, 22, 23, 24, 25, 26, 27, 28, 29]",210.5293344,2602,2324,1,34,8,1.0
basic,2,17,0,0,0,16,"[0, 9, 16]",3,21,"[1, 2, 3, 5, 7, 8, 10, 11, 12, 14, 17, 18, 19, 20, 22, 23, 25, 26, 27, 28, 29]",197.1876704,4009,1407,1,26,8,1.173103464220352
basic,2,17,0,0,0,2,"[0, 9, 16, 2]",4,18,"[1, 3, 5, 7, 8, 10, 11, 12, 14, 17, 18, 19, 23, 25, 26, 27, 28, 29]",181.0631549,5649,1640,1,23,8,1.14825089247282
basic,2,17,0,0,0,8,"[0, 9, 16, 2, 8]",5,9,"[3, 7, 10, 11, 12, 14, 17, 26, 27]",145.9490551,7188,1539,1,9,8,1.1509808066472915
basic,2,17,0,0,0,7,"[0, 9, 16, 2, 8, 7]",6,3,"[10, 12, 27]",75.238377,9747,2559,3,0,7,1.2222166608088694
basic,2,17,0,1,0,7,"[0, 9, 16, 2, 8, 7]",6,3,"[10, 12, 27]",75.238377,11488,1741,3,0,7,1.2222166608088694
basic,3,29,0,0,0,0,[0],1,29,"[1, 2, 3, 4, 5, 6, 7, 8, 9, 10, 11, 12, 13, 14, 15, 16, 17, 18, 19, 20, 21, 22, 23, 24, 25, 26, 27, 28, 29]",300,394,-1,1,78,9,0.0
basic,3,29,0,0,0,6,"[0, 6]",2,28,"[1, 2, 3, 4, 5, 7, 8, 9, 10, 11, 12, 13, 14, 15, 16, 17, 18, 19, 20, 21, 22, 23, 24, 25, 26, 27, 28, 29]",228.4108947,2116,1722,1,25,9,1.0
basic,3,29,0,0,0,28,"[0, 6, 28]",3,24,"[1, 3, 4, 5, 7, 9, 10, 11, 12, 13, 14, 15, 16, 17, 18, 20, 21, 22, 23, 24, 25, 26, 27, 29]",187.1798384,5094,2978,1,22,9,1.162106788166845
basic,3,29,0,0,0,27,"[0, 6, 28, 27]",4,19,"[1, 3, 4, 5, 7, 9, 10, 11, 12, 13, 14, 15, 16, 21, 22, 23, 25, 26, 29]",166.6615539,7014,1920,1,21,9,1.2307173895439045
basic,3,29,0,0,0,22,"[0, 6, 28, 27, 22]",5,13,"[1, 3, 4, 5, 7, 9, 12, 13, 14, 15, 21, 26, 29]",133.4200136,8637,1623,1,19,9,1.4241767805149903
basic,3,29,0,0,0,12,"[0, 6, 28, 27, 22, 12]",6,8,"[4, 5, 7, 9, 13, 14, 21, 26]",95.4726817,11212,2575,1,6,9,1.3248355326460857
basic,3,29,0,0,0,7,"[0, 6, 28, 27, 22, 12, 7]",7,4,"[4, 5, 9, 21]",81.87121119,12988,1776,1,3,9,1.3264091962339806
basic,3,29,0,1,0,7,"[0, 6, 28, 27, 22, 12, 7]",7,4,"[4, 5, 9, 21]",81.87121119,15151,2163,1,3,9,1.3264091962339806
basic,4,15,0,0,0,0,[0],1,25,"[1, 2, 3, 4, 7, 8, 9, 10, 11, 12, 13, 14, 15, 16, 18, 20, 21, 22, 23, 24, 25, 26, 27, 28, 29]",300,210,-1,4,65,9,0.0
basic,4,15,0,0,0,12,"[0, 12]",2,22,"[1, 2, 3, 4, 7, 8, 9, 10, 11, 13, 14, 15, 16, 18, 21, 22, 23, 24, 26, 27, 28, 29]",213.547701,3351,3141,4,35,9,1.0
basic,4,15,0,0,0,7,"[0, 12, 7]",3,16,"[1, 3, 4, 8, 9, 10, 11, 13, 14, 15, 16, 18, 21, 22, 24, 27]",180.3061607,4858,1507,4,29,9,1.411291635294361
basic,4,15,0,0,0,11,"[0, 12, 7, 11]",4,9,"[3, 4, 13, 14, 15, 16, 21, 22, 27]",138.8212237,6485,1627,2,12,9,1.2980572092387541
basic,4,15,0,0,0,3,"[0, 12, 7, 11, 3]",5,7,"[4, 13, 14, 15, 16, 21, 22]",127.4194695,7888,1403,2,7,9,1.3036925309398455
basic,4,15,0,0,0,16,"[0, 12, 7, 11, 3, 16]",6,5,"[4, 13, 14, 15, 22]",102.3395971,9496,1608,2,2,9,1.731400260973498
basic,4,15,0,1,0,16,"[0, 12, 7, 11, 3, 16]",6,5,"[4, 13, 14, 15, 22]",102.3395971,11053,1557,2,2,9,1.731400260973498
basic,5,19,0,0,0,0,[0],1,29,"[1, 2, 3, 4, 5, 6, 7, 8, 9, 10, 11, 12, 13, 14, 15, 16, 17, 18, 19, 20, 21, 22, 23, 24, 25, 26, 27, 28, 29]",300,288,-1,12,149,8,0.0
basic,5,19,0,0,0,29,"[0, 29]",2,28,"[1, 2, 3, 4, 5, 6, 7, 8, 9, 10, 11, 12, 13, 14, 15, 16, 17, 18, 19, 20, 21, 22, 23, 24, 25, 26, 27, 28]",265.0715016,2430,2142,12,120,8,1.0
basic,5,19,0,0,0,9,"[0, 29, 9]",3,17,"[1, 4, 5, 6, 7, 10, 11, 12, 13, 14, 19, 20, 21, 22, 24, 27, 28]",181.7108394,5091,2661,11,65,8,1.0375842971861238
basic,5,19,0,0,0,6,"[0, 29, 9, 6]",4,12,"[4, 7, 10, 11, 13, 14, 20, 21, 22, 24, 27, 28]",140.2741407,6863,1772,11,34,8,1.0389786364356892
basic,5,19,0,0,0,4,"[0, 29, 9, 6, 4]",5,7,"[10, 11, 14, 20, 22, 27, 28]",99.22538921,8418,1555,2,6,8,1.2182485830176533
basic,5,19,0,0,0,28,"[0, 29, 9, 6, 4, 28]",6,3,"[11, 14, 27]",88.04504932,9823,1405,2,1,8,1.2933703503588658
basic,5,19,0,0,1,27,"[0, 29, 9, 6, 4, 28, 27]",7,0,[],35.64275929,12236,2413,1,0,7,1.697599891123485
basic,5,19,0,1,1,27,"[0, 29, 9, 6, 4, 28, 27]",7,0,[],35.64275929,13204,968,1,0,7,1.697599891123485
basic,6,13,0,0,0,0,[0],1,29,"[1, 2, 3, 4, 5, 6, 7, 8, 9, 10, 11, 12, 13, 14, 15, 16, 17, 18, 19, 20, 21, 22, 23, 24, 25, 26, 27, 28, 29]",300,178,-1,60,2676,11,0.0
basic,6,13,0,0,0,24,"[0, 24]",2,28,"[1, 2, 3, 4, 5, 6, 7, 8, 9, 10, 11, 12, 13, 14, 15, 16, 17, 18, 19, 20, 21, 22, 23, 25, 26, 27, 28, 29]",288.8196601,3560,3382,16,1444,11,1.0
basic,6,13,0,0,0,23,"[0, 24, 23]",3,27,"[1, 2, 3, 4, 5, 6, 7, 8, 9, 10, 11, 12, 13, 14, 15, 16, 17, 18, 19, 20, 21, 22, 25, 26, 27, 28, 29]",243.1140806,5467,1907,2,868,11,1.0065545717039834
basic,6,13,0,0,0,16,"[0, 24, 23, 16]",4,25,"[1, 2, 3, 4, 6, 7, 8, 9, 10, 11, 12, 13, 14, 15, 17, 18, 19, 20, 21, 22, 25, 26, 27, 28, 29]",202.8027918,9980,4513,1,145,11,1.055930143104189
basic,6,13,0,0,0,3,"[0, 24, 23, 16, 3]",5,20,"[2, 4, 6, 7, 8, 9, 10, 11, 13, 14, 15, 18, 20, 21, 22, 25, 26, 27, 28, 29]",174.3598665,11767,1787,3,44,10,1.233783650807853
basic,6,13,0,0,0,20,"[0, 24, 23, 16, 3, 20]",6,15,"[4, 6, 7, 8, 9, 11, 14, 18, 21, 22, 25, 26, 27, 28, 29]",155.3335689,13440,1673,7,15,9,1.3149320474556456
basic,6,13,0,0,0,4,"[0, 24, 23, 16, 3, 20, 4]",7,5,"[6, 8, 18, 25, 27]",133.3108534,15684,2244,2,4,9,1.2859964130018764
basic,6,13,0,0,0,27,"[0, 24, 23, 16, 3, 20, 4, 27]",8,2,"[8, 18]",111.2881379,17771,2087,2,0,9,1.3345945780156503
basic,6,13,0,1,0,27,"[0, 24, 23, 16, 3, 20, 4, 27]",8,2,"[8, 18]",111.2881379,19578,1807,2,0,9,1.3345945780156503
basic,7,6,0,0,0,0,[0],1,29,"[1, 2, 3, 4, 5, 6, 7, 8, 9, 10, 11, 12, 13, 14, 15, 16, 17, 18, 19, 20, 21, 22, 23, 24, 25, 26, 27, 28, 29]",300,211,-1,180,4304,10,0.0
basic,7,6,0,0,0,13,"[0, 13]",2,27,"[1, 2, 3, 4, 5, 6, 7, 8, 9, 10, 11, 12, 14, 15, 16, 17, 18, 19, 20, 21, 22, 23, 24, 25, 26, 27, 29]",266.8941093,12153,11942,12,596,10,1.0
basic,7,6,0,0,0,18,"[0, 13, 18]",3,24,"[1, 2, 3, 4, 5, 6, 7, 8, 9, 10, 11, 12, 14, 15, 16, 17, 20, 21, 22, 23, 24, 26, 27, 29]",182.3660074,14594,2441,9,237,9,1.9315431782938748
basic,7,6,0,0,0,17,"[0, 13, 18, 17]",4,20,"[1, 2, 3, 4, 5, 6, 7, 8, 10, 11, 14, 16, 20, 21, 22, 23, 24, 26, 27, 29]",168.4376192,16770,2176,5,98,9,1.8641182280294117
basic,7,6,0,0,0,10,"[0, 13, 18, 17, 10]",5,17,"[1, 2, 3, 4, 5, 6, 7, 8, 11, 14, 16, 22, 23, 24, 26, 27, 29]",148.7145362,19110,2340,3,41,9,1.793660608995362
basic,7,6,0,0,0,24,"[0, 13, 18, 17, 10, 24]",6,15,"[2, 3, 4, 5, 6, 7, 8, 11, 14, 16, 22, 23, 26, 27, 29]",135.2981284,22088,2978,2,25,9,1.692837551622255
basic,7,6,0,0,0,23,"[0, 13, 18, 17, 10, 24, 23]",7,6,"[6, 14, 16, 22, 27, 29]",74.10989422,24412,2324,6,0,8,1.6832179442765152
basic,7,6,0,1,0,23,"[0, 13, 18, 17, 10, 24, 23]",7,6,"[6, 14, 16, 22, 27, 29]",74.10989422,25971,1559,6,0,8,1.6832179442765152
basic,8,12,0,0,0,0,[0],1,29,"[1, 2, 3, 4, 5, 6, 7, 8, 9, 10, 11, 12, 13, 14, 15, 16, 17, 18, 19, 20, 21, 22, 23, 24, 25, 26, 27, 28, 29]",300,183,-1,2,32,9,0.0
basic,8,12,0,0,0,22,"[0, 22]",2,22,"[2, 4, 5, 6, 7, 9, 10, 12, 13, 14, 15, 16, 17, 18, 19, 21, 23, 24, 25, 27, 28, 29]",211.9943184,4423,4240,6,42,8,1.0
basic,8,12,0,0,0,16,"[0, 22, 16]",3,12,"[2, 4, 5, 6, 7, 12, 14, 19, 23, 24, 25, 27]",190.9943184,5677,1254,6,24,8,1.2017164145167045
basic,8,12,0,0,0,4,"[0, 22, 16, 4]",4,9,"[2, 6, 7, 12, 14, 19, 24, 25, 27]",156.7890556,7267,1590,6,14,8,1.146531713305579
basic,8,12,0,0,0,12,"[0, 22, 16, 4, 12]",5,4,"[14, 19, 24, 27]",114.5990094,8633,1366,4,3,8,1.1221389456954312
basic,8,12,0,0,0,27,"[0, 22, 16, 4, 12, 27]",6,3,"[14, 19, 24]",90.24741807,10028,1395,2,1,8,1.2262878338287035
basic,8,12,0,0,0,14,"[0, 22, 16, 4, 12, 27, 14]",7,1,[24],61.59432051,11502,1474,1,0,8,1.2804562106751427
basic,8,12,0,0,1,24,"[0, 22, 16, 4, 12, 27, 14, 24]",8,0,[],44.38966997,12570,1068,1,0,8,1.4322660007679802
basic,8,12,0,1,1,24,"[0, 22, 16, 4, 12, 27, 14, 24]",8,0,[],44.38966997,13627,1057,1,0,8,1.4322660007679802
basic,9,10,0,0,0,0,[0],1,29,"[1, 2, 3, 4, 5, 6, 7, 8, 9, 10, 11, 12, 13, 14, 15, 16, 17, 18, 19, 20, 21, 22, 23, 24, 25, 26, 27, 28, 29]",300,311,-1,1,100,9,0.0
basic,9,10,0,0,0,13,"[0, 13]",2,25,"[1, 2, 3, 4, 6, 7, 8, 9, 10, 11, 12, 14, 17, 18, 19, 20, 21, 22, 23, 24, 25, 26, 27, 28, 29]",249.4628849,5785,5474,1,79,9,1.0
basic,9,10,0,0,0,11,"[0, 13, 11]",3,20,"[1, 2, 3, 6, 7, 8, 9, 10, 12, 14, 18, 19, 20, 21, 22, 24, 26, 27, 28, 29]",206.4512586,8691,2906,1,54,9,1.0313137484914219
basic,9,10,0,0,0,26,"[0, 13, 11, 26]",4,11,"[2, 6, 8, 9, 10, 14, 18, 19, 20, 24, 27]",164.6900326,11234,2543,12,30,8,1.0216802423203832
basic,9,10,0,0,0,14,"[0, 13, 11, 26, 14]",5,4,"[2, 19, 20, 27]",130.0201609,13216,1982,1,6,8,1.0628307776328854
basic,9,10,0,0,0,2,"[0, 13, 11, 26, 14, 2]",6,3,"[19, 20, 27]",117.8546358,15733,2517,1,2,8,1.1157567317345238
basic,9,10,0,1,0,2,"[0, 13, 11, 26, 14, 2]",6,3,"[19, 20, 27]",117.8546358,17241,1508,1,2,8,1.1157567317345238
basic,10,25,0,0,0,0,[0],1,28,"[1, 2, 3, 4, 5, 7, 8, 9, 10, 11, 12, 13, 14, 15, 16, 17, 18, 19, 20, 21, 22, 23, 24, 25, 26, 27, 28, 29]",300,313,-1,5,94,10,0.0
basic,10,25,0,0,0,23,"[0, 23]",2,23,"[1, 2, 3, 5, 7, 8, 9, 11, 12, 13, 14, 16, 17, 19, 20, 21, 22, 24, 25, 26, 27, 28, 29]",259.7756293,6135,5822,3,33,10,1.0
basic,10,25,0,0,0,19,"[0, 23, 19]",3,21,"[1, 2, 3, 5, 7, 8, 9, 11, 12, 13, 14, 16, 17, 20, 21, 22, 24, 25, 27, 28, 29]",223.9287326,10688,4553,3,24,10,1.583101227007039
basic,10,25,0,0,0,29,"[0, 23, 19, 29]",4,19,"[1, 2, 3, 5, 7, 8, 9, 11, 12, 13, 14, 16, 17, 20, 21, 22, 24, 25, 28]",207.649912,14333,3645,3,17,10,1.474631541426484
basic,10,25,0,0,0,7,"[0, 23, 19, 29, 7]",5,8,"[3, 8, 9, 11, 13, 22, 24, 28]",122.5029802,19348,5015,3,14,9,1.514470870601519
basic,10,25,0,0,0,24,"[0, 23, 19, 29, 7, 24]",6,5,"[3, 8, 9, 13, 28]",97.74414339,21266,1918,3,7,9,1.4390787962293592
basic,10,25,0,1,0,24,"[0, 23, 19, 29, 7, 24]",6,5,"[3, 8, 9, 13, 28]",97.74414339,22975,1709,3,7,9,1.4390787962293592
basic,11,20,0,0,0,0,[0],1,21,"[1, 2, 3, 4, 5, 6, 7, 8, 9, 12, 17, 18, 20, 21, 22, 23, 25, 26, 27, 28, 29]",300,278,-1,1,9,9,0.0
basic,11,20,0,0,0,1,"[0, 1]",2,14,"[3, 4, 5, 6, 8, 9, 12, 20, 21, 23, 26, 27, 28, 29]",197.3501096,6035,5757,1,9,8,1.0
basic,11,20,0,0,0,5,"[0, 1, 5]",3,12,"[4, 6, 8, 9, 12, 20, 21, 23, 26, 27, 28, 29]",160.675868,7390,1355,1,8,8,1.1088946720668915
basic,11,20,0,0,0,21,"[0, 1, 5, 21]",4,8,"[4, 6, 8, 9, 20, 23, 27, 28]",115.675868,8660,1270,1,6,8,1.0805828994591202
basic,11,20,0,0,0,8,"[0, 1, 5, 21, 8]",5,5,"[6, 9, 23, 27, 28]",98.21161876,9825,1165,1,5,8,1.0976815296746363
basic,11,20,0,0,0,23,"[0, 1, 5, 21, 8, 23]",6,3,"[6, 9, 27]",53.52381281,11349,1524,1,2,8,1.0820667611140062
basic,11,20,0,1,0,23,"[0, 1, 5, 21, 8, 23]",6,3,"[6, 9, 27]",53.52381281,13465,2116,1,2,8,1.0820667611140062
basic,12,8,0,0,0,0,[0],1,29,"[1, 2, 3, 4, 5, 6, 7, 8, 9, 10, 11, 12, 13, 14, 15, 16, 17, 18, 19, 20, 21, 22, 23, 24, 25, 26, 27, 28, 29]",300,320,-1,10,149,9,0.0
basic,12,8,0,0,0,5,"[0, 5]",2,28,"[1, 2, 3, 4, 6, 7, 8, 9, 10, 11, 12, 13, 14, 15, 16, 17, 18, 19, 20, 21, 22, 23, 24, 25, 26, 27, 28, 29]",254.5137383,5101,4781,10,100,9,1.0
basic,12,8,0,0,0,14,"[0, 5, 14]",3,20,"[1, 2, 3, 4, 6, 7, 11, 15, 16, 17, 18, 19, 20, 21, 22, 23, 24, 25, 28, 29]",214.5512559,9160,4059,4,36,9,1.0001019035932595
basic,12,8,0,0,0,17,"[0, 5, 14, 17]",4,15,"[1, 4, 6, 7, 11, 15, 16, 18, 19, 20, 22, 23, 24, 25, 28]",177.5377449,11927,2767,4,16,9,1.121197267659591
basic,12,8,0,0,0,11,"[0, 5, 14, 17, 11]",5,11,"[1, 4, 15, 16, 18, 19, 22, 23, 24, 25, 28]",152.3583883,13697,1770,4,8,9,1.1277254166016362
basic,12,8,0,0,0,24,"[0, 5, 14, 17, 11, 24]",6,3,"[15, 16, 28]",115.1428001,15438,1741,2,2,9,1.1227411011978805
basic,12,8,0,0,0,15,"[0, 5, 14, 17, 11, 24, 15]",7,2,"[16, 28]",98.37974552,17914,2476,2,0,9,1.1956385406066814
basic,12,8,0,1,0,15,"[0, 5, 14, 17, 11, 24, 15]",7,2,"[16, 28]",98.37974552,21197,3283,2,0,9,1.1956385406066814
basic,13,26,0,0,0,0,[0],1,29,"[1, 2, 3, 4, 5, 6, 7, 8, 9, 10, 11, 12, 13, 14, 15, 16, 17, 18, 19, 20, 21, 22, 23, 24, 25, 26, 27, 28, 29]",300,423,-1,9,226,9,0.0
basic,13,26,0,0,0,4,"[0, 4]",2,13,"[5, 6, 10, 12, 13, 14, 16, 17, 19, 21, 23, 26, 29]",178.7976898,2661,2238,4,118,8,1.0
basic,13,26,0,0,0,17,"[0, 4, 17]",3,10,"[5, 6, 10, 12, 13, 14, 16, 21, 23, 29]",157.7026667,4389,1728,1,35,8,1.0014732588101924
basic,13,26,0,0,0,14,"[0, 4, 17, 14]",4,8,"[5, 6, 10, 13, 16, 21, 23, 29]",135.2304616,7774,3385,8,10,7,1.0224473419120523
basic,13,26,0,0,0,29,"[0, 4, 17, 14, 29]",5,6,"[6, 10, 13, 16, 21, 23]",93.99940537,10880,3106,4,4,7,1.6859262399439026
basic,13,26,0,0,0,16,"[0, 4, 17, 14, 29, 16]",6,3,"[13, 21, 23]",69.7919685,12181,1301,3,0,7,2.056412703801212
basic,13,26,0,1,0,16,"[0, 4, 17, 14, 29, 16]",6,3,"[13, 21, 23]",69.7919685,17129,4948,3,0,7,2.056412703801212
basic,14,21,0,0,0,0,[0],1,29,"[1, 2, 3, 4, 5, 6, 7, 8, 9, 10, 11, 12, 13, 14, 15, 16, 17, 18, 19, 20, 21, 22, 23, 24, 25, 26, 27, 28, 29]",300,272,-1,84,830,9,0.0
basic,14,21,0,0,0,29,"[0, 29]",2,26,"[1, 2, 3, 4, 6, 7, 8, 9, 10, 11, 12, 13, 14, 15, 16, 17, 18, 19, 20, 21, 22, 23, 24, 25, 26, 27]",215.2828235,6897,6625,1,45,9,1.0
basic,14,21,0,0,0,25,"[0, 29, 25]",3,19,"[1, 4, 6, 8, 9, 10, 11, 12, 14, 15, 16, 17, 18, 20, 21, 22, 23, 24, 26]",170.0611472,8215,1318,10,60,8,2.1722952874352335
basic,14,21,0,0,0,21,"[0, 29, 25, 21]",4,10,"[4, 8, 9, 14, 15, 16, 17, 18, 22, 23]",120.7255617,10389,2174,3,18,8,1.994401949733691
basic,14,21,0,0,0,14,"[0, 29, 25, 21, 14]",5,5,"[4, 8, 15, 16, 23]",95.11306476,12884,2495,2,8,8,1.7887405347374452
basic,14,21,0,0,0,23,"[0, 29, 25, 21, 14, 23]",6,2,"[4, 16]",66.04418106,14590,1706,2,0,7,2.3627080033762877
basic,14,21,0,0,1,4,"[0, 29, 25, 21, 14, 23, 4]",7,0,[],29.91939732,16226,1636,1,0,7,2.1115518219596288
basic,14,21,0,1,1,4,"[0, 29, 25, 21, 14, 23, 4]",7,0,[],29.91939732,17231,1005,1,0,7,2.1115518219596288
basic,15,42,0,0,0,0,[0],1,29,"[1, 2, 3, 4, 5, 6, 7, 8, 9, 10, 11, 12, 13, 14, 15, 16, 17, 18, 19, 20, 21, 22, 23, 24, 25, 26, 27, 28, 29]",300,360,-1,16,302,9,0.0
basic,15,42,0,0,0,3,"[0, 3]",2,25,"[1, 2, 4, 5, 6, 7, 8, 9, 10, 11, 13, 15, 17, 18, 19, 20, 21, 22, 23, 24, 25, 26, 27, 28, 29]",255.7959278,5547,5187,3,45,9,1.0
basic,15,42,0,0,0,4,"[0, 3, 4]",3,23,"[1, 2, 5, 6, 7, 8, 9, 10, 11, 13, 15, 17, 18, 19, 20, 21, 22, 23, 24, 25, 26, 27, 29]",165.3691618,7632,2085,1,16,9,1.4881105916904676
basic,15,42,0,0,0,22,"[0, 3, 4, 22]",4,19,"[1, 2, 5, 6, 7, 8, 11, 15, 17, 18, 19, 20, 21, 23, 24, 25, 26, 27, 29]",154.188822,8679,1047,1,11,9,1.645720163725504
basic,15,42,0,0,0,8,"[0, 3, 4, 22, 8]",5,13,"[1, 2, 5, 7, 11, 15, 18, 19, 24, 25, 26, 27, 29]",132.0528783,11550,2871,1,8,9,1.5620453854161471
basic,15,42,0,0,0,1,"[0, 3, 4, 22, 8, 1]",6,6,"[2, 5, 7, 19, 26, 27]",82.9611275,13633,2083,1,7,9,1.3937396431284002
basic,15,42,0,0,0,7,"[0, 3, 4, 22, 8, 1, 7]",7,4,"[2, 19, 26, 27]",52.9611275,16149,2516,1,3,9,1.4260419415276828
basic,15,42,0,1,0,7,"[0, 3, 4, 22, 8, 1, 7]",7,4,"[2, 19, 26, 27]",52.9611275,18010,1861,1,3,9,1.4260419415276828
basic,16,9,0,0,0,0,[0],1,27,"[1, 3, 4, 5, 6, 7, 8, 9, 10, 11, 13, 14, 15, 16, 17, 18, 19, 20, 21, 22, 23, 24, 25, 26, 27, 28, 29]",300,225,-1,2,182,10,0.0
basic,16,9,0,0,0,23,"[0, 23]",2,26,"[1, 3, 4, 5, 6, 7, 8, 9, 10, 11, 13, 14, 15, 16, 17, 18, 19, 20, 21, 22, 24, 25, 26, 27, 28, 29]",240.4600974,7552,7327,7,160,9,1.0
basic,16,9,0,0,0,8,"[0, 23, 8]",3,23,"[1, 3, 4, 5, 6, 7, 9, 10, 11, 13, 15, 16, 17, 18, 19, 20, 21, 22, 24, 25, 26, 27, 28]",218.9891869,8821,1269,3,53,9,1.2701427074648883
basic,16,9,0,0,0,28,"[0, 23, 8, 28]",4,22,"[1, 3, 4, 5, 6, 7, 9, 10, 11, 13, 15, 16, 17, 18, 19, 20, 21, 22, 24, 25, 26, 27]",208.172533,10194,1373,3,39,9,1.2362921532284137
basic,16,9,0,0,0,21,"[0, 23, 8, 28, 21]",5,12,"[9, 10, 15, 16, 17, 18, 19, 20, 22, 25, 26, 27]",155.172533,14761,4567,5,17,8,1.2218355946985338
basic,16,9,0,0,0,20,"[0, 23, 8, 28, 21, 20]",6,9,"[9, 10, 15, 16, 17, 18, 22, 25, 26]",143.0894871,16868,2107,4,6,8,1.238938817164562
basic,16,9,0,1,0,20,"[0, 23, 8, 28, 21, 20]",6,9,"[9, 10, 15, 16, 17, 18, 22, 25, 26]",143.0894871,18139,1271,4,6,8,1.238938817164562
basic,17,31,0,0,0,0,[0],1,27,"[1, 3, 4, 5, 6, 7, 8, 10, 11, 12, 13, 14, 15, 16, 17, 18, 19, 20, 21, 22, 23, 24, 25, 26, 27, 28, 29]",300,171,-1,2,87,10,0.0
basic,17,31,0,0,0,14,"[0, 14]",2,25,"[1, 3, 5, 6, 7, 8, 10, 11, 12, 13, 15, 16, 17, 18, 19, 20, 21, 22, 23, 24, 25, 26, 27, 28, 29]",263.861378,3943,3772,2,59,10,1.0
basic,17,31,0,0,0,27,"[0, 14, 27]",3,22,"[1, 3, 5, 6, 7, 8, 10, 11, 12, 13, 15, 16, 17, 18, 19, 20, 21, 22, 24, 25, 28, 29]",235.6833724,5299,1356,1,39,10,1.5881859159302467
basic,17,31,0,0,0,8,"[0, 14, 27, 8]",4,20,"[1, 3, 5, 6, 7, 10, 11, 12, 13, 16, 17, 18, 19, 20, 21, 22, 24, 25, 28, 29]",224.6380114,6434,1135,1,36,10,2.1665048452331277
basic,17,31,0,0,0,18,"[0, 14, 27, 8, 18]",5,15,"[1, 5, 6, 7, 11, 12, 13, 16, 17, 19, 20, 22, 25, 28, 29]",188.7911147,7940,1506,1,26,10,1.7273375741920205
basic,17,31,0,0,0,11,"[0, 14, 27, 8, 18, 11]",6,11,"[1, 5, 7, 12, 16, 17, 19, 20, 22, 25, 28]",153.9055876,10286,2346,13,17,9,2.386348208737804
basic,17,31,0,0,0,5,"[0, 14, 27, 8, 18, 11, 5]",7,5,"[16, 17, 20, 25, 28]",110.2249283,12219,1933,3,3,9,2.163249612867222
basic,17,31,0,0,0,28,"[0, 14, 27, 8, 18, 11, 5, 28]",8,2,"[16, 17]",90.00117988,13945,1726,2,0,9,1.9564635733184719
basic,17,31,0,1,0,28,"[0, 14, 27, 8, 18, 11, 5, 28]",8,2,"[16, 17]",90.00117988,15121,1176,2,0,9,1.9564635733184719
basic,18,45,0,0,0,0,[0],1,24,"[1, 2, 3, 4, 5, 6, 7, 9, 10, 11, 12, 14, 15, 16, 17, 19, 20, 21, 22, 23, 24, 25, 27, 29]",300,189,-1,6,248,10,0.0
basic,18,45,0,0,0,15,"[0, 15]",2,23,"[1, 2, 3, 4, 5, 6, 7, 9, 10, 11, 12, 14, 16, 17, 19, 20, 21, 22, 23, 24, 25, 27, 29]",253.9022777,3720,3531,5,207,10,1.0
basic,18,45,0,0,0,23,"[0, 15, 23]",3,22,"[1, 2, 3, 4, 5, 6, 7, 9, 10, 11, 12, 14, 16, 17, 19, 20, 21, 22, 24, 25, 27, 29]",230.3014303,4941,1221,5,163,10,1.0006068457769497
basic,18,45,0,0,0,20,"[0, 15, 23, 20]",4,19,"[1, 2, 3, 5, 6, 7, 9, 10, 11, 12, 14, 16, 17, 19, 21, 22, 24, 25, 29]",188.8647316,7463,2522,5,137,10,1.2062119754673604
basic,18,45,0,0,0,24,"[0, 15, 23, 20, 24]",5,14,"[1, 2, 3, 5, 6, 7, 9, 10, 12, 17, 19, 21, 22, 29]",145.0355176,8804,1341,1,23,10,1.5044386356496664
basic,18,45,0,0,0,29,"[0, 15, 23, 20, 24, 29]",6,7,"[2, 3, 6, 7, 10, 12, 22]",65.42396061,12819,4015,10,3,8,1.4564603411567132
basic,18,45,0,0,0,10,"[0, 15, 23, 20, 24, 29, 10]",7,2,"[3, 6]",43.88330138,14206,1387,2,0,8,1.740559547642145
basic,18,45,0,0,1,6,"[0, 15, 23, 20, 24, 29, 10, 6]",8,0,[],17.63449188,16698,2492,1,0,8,1.639417130493476
basic,18,45,0,1,1,6,"[0, 15, 23, 20, 24, 29, 10, 6]",8,0,[],17.63449188,18188,1490,1,0,8,1.639417130493476
basic,19,5,0,0,0,0,[0],1,29,"[1, 2, 3, 4, 5, 6, 7, 8, 9, 10, 11, 12, 13, 14, 15, 16, 17, 18, 19, 20, 21, 22, 23, 24, 25, 26, 27, 28, 29]",300,200,-1,5,139,9,0.0
basic,19,5,0,0,0,23,"[0, 23]",2,27,"[1, 2, 3, 4, 5, 6, 7, 8, 9, 10, 11, 12, 13, 14, 15, 16, 17, 18, 19, 20, 21, 22, 24, 25, 26, 27, 28]",249.8402552,8932,8732,3,75,9,1.0
basic,19,5,0,0,0,24,"[0, 23, 24]",3,24,"[1, 2, 3, 4, 5, 6, 8, 9, 10, 11, 12, 13, 14, 15, 16, 17, 18, 19, 21, 22, 25, 26, 27, 28]",226.7534624,10104,1172,20,147,8,1.0113799830159869
basic,19,5,0,0,0,17,"[0, 23, 24, 17]",4,18,"[2, 4, 5, 6, 8, 9, 10, 12, 13, 14, 15, 18, 19, 22, 25, 26, 27, 28]",191.7677511,12008,1904,6,49,8,1.0136434296829369
basic,19,5,0,0,0,5,"[0, 23, 24, 17, 5]",5,9,"[4, 6, 8, 12, 14, 15, 18, 19, 25]",148.7212646,13269,1261,6,10,8,1.0121300076484332
basic,19,5,0,0,0,4,"[0, 23, 24, 17, 5, 4]",6,3,"[6, 14, 18]",82.91852905,17796,4527,2,2,8,1.2388283428532747
basic,19,5,0,0,0,6,"[0, 23, 24, 17, 5, 4, 6]",7,2,"[14, 18]",70.87693447,18830,1034,2,0,8,1.3719944043712575
basic,19,5,0,1,0,6,"[0, 23, 24, 17, 5, 4, 6]",7,2,"[14, 18]",70.87693447,21330,2500,2,0,8,1.3719944043712575
basic,20,41,0,0,0,0,[0],1,29,"[1, 2, 3, 4, 5, 6, 7, 8, 9, 10, 11, 12, 13, 14, 15, 16, 17, 18, 19, 20, 21, 22, 23, 24, 25, 26, 27, 28, 29]",300,223,-1,1,143,10,0.0
basic,20,41,0,0,0,5,"[0, 5]",2,27,"[1, 2, 3, 6, 7, 8, 9, 10, 11, 12, 13, 14, 15, 16, 17, 18, 19, 20, 21, 22, 23, 24, 25, 26, 27, 28, 29]",268.6152903,4323,4100,38,328,9,1.0
basic,20,41,0,0,0,3,"[0, 5, 3]",3,26,"[1, 2, 6, 7, 8, 9, 10, 11, 12, 13, 14, 15, 16, 17, 18, 19, 20, 21, 22, 23, 24, 25, 26, 27, 28, 29]",233.7871408,5928,1605,3,93,9,1.6710618164948743
basic,20,41,0,0,0,21,"[0, 5, 3, 21]",4,22,"[1, 2, 6, 9, 10, 11, 12, 13, 14, 15, 16, 17, 18, 19, 20, 22, 24, 25, 26, 27, 28, 29]",201.6468235,8159,2231,2,57,9,2.012242493465285
basic,20,41,0,0,0,9,"[0, 5, 3, 21, 9]",5,15,"[1, 2, 10, 12, 13, 14, 15, 17, 19, 22, 24, 25, 26, 27, 28]",152.2808433,9573,1414,1,23,9,1.7950574187105226
basic,20,41,0,0,0,2,"[0, 5, 3, 21, 9, 2]",6,14,"[1, 10, 12, 13, 14, 15, 17, 19, 22, 24, 25, 26, 27, 28]",140.1977973,10576,1003,1,17,9,1.7662285115791392
basic,20,41,0,0,0,17,"[0, 5, 3, 21, 9, 2, 17]",7,9,"[1, 10, 12, 13, 14, 22, 24, 27, 28]",107.6401561,12029,1453,1,8,9,3.0346558739137515
basic,20,41,0,0,0,10,"[0, 5, 3, 21, 9, 2, 17, 10]",8,1,[24],58.39586709,13854,1825,1,0,9,2.855872736571743
basic,20,41,0,1,0,10,"[0, 5, 3, 21, 9, 2, 17, 10]",8,1,[24],58.39586709,15260,1406,1,0,9,2.855872736571743
basic,21,36,0,0,0,0,[0],1,24,"[2, 4, 5, 6, 7, 8, 9, 10, 12, 13, 14, 15, 16, 17, 18, 19, 20, 22, 23, 25, 26, 27, 28, 29]",300,194,-1,2,200,10,0.0
basic,21,36,0,0,0,12,"[0, 12]",2,23,"[2, 4, 5, 6, 7, 8, 9, 10, 13, 14, 15, 16, 17, 18, 19, 20, 22, 23, 25, 26, 27, 28, 29]",277.7963967,3221,3027,90,804,9,1.0
basic,21,36,0,0,0,9,"[0, 12, 9]",3,14,"[2, 4, 8, 10, 13, 16, 17, 18, 19, 23, 25, 27, 28, 29]",215.4345494,4983,1762,32,191,9,1.224429481246385
basic,21,36,0,0,0,19,"[0, 12, 9, 19]",4,13,"[2, 4, 8, 10, 13, 16, 17, 18, 23, 25, 27, 28, 29]",200.3018034,6136,1153,14,61,9,1.293473472808712
basic,21,36,0,0,0,2,"[0, 12, 9, 19, 2]",5,11,"[4, 8, 10, 13, 16, 17, 18, 23, 25, 27, 29]",163.180381,7923,1787,2,17,9,1.2115523850119965
basic,21,36,0,0,0,10,"[0, 12, 9, 19, 2, 10]",6,3,"[8, 13, 25]",83.3493094,13875,5952,3,0,7,1.2456538889898756
basic,21,36,0,0,1,8,"[0, 12, 9, 19, 2, 10, 8]",7,0,[],1.783385138,15783,1908,1,0,7,1.2053412065618068
basic,21,36,0,1,1,8,"[0, 12, 9, 19, 2, 10, 8]",7,0,[],1.783385138,17587,1804,1,0,7,1.2053412065618068
basic,22,4,0,0,0,0,[0],1,26,"[3, 4, 5, 6, 7, 8, 10, 11, 12, 13, 14, 15, 16, 17, 18, 19, 20, 21, 22, 23, 24, 25, 26, 27, 28, 29]",300,293,-1,4,489,10,0.0
basic,22,4,0,0,0,28,"[0, 28]",2,21,"[3, 4, 5, 6, 10, 11, 12, 13, 14, 15, 16, 17, 19, 20, 21, 22, 23, 24, 25, 26, 27]",225.9392142,3603,3310,2,216,10,1.0
basic,22,4,0,0,0,25,"[0, 28, 25]",3,15,"[3, 4, 5, 6, 11, 12, 13, 14, 16, 17, 20, 21, 22, 23, 24]",171.9021898,6920,3317,69,420,9,1.0101483986051152
basic,22,4,0,0,0,16,"[0, 28, 25, 16]",4,13,"[3, 4, 5, 6, 11, 12, 13, 14, 17, 20, 21, 22, 24]",150.3615306,8573,1653,11,106,9,1.0855629894539238
basic,22,4,0,0,0,11,"[0, 28, 25, 16, 11]",5,11,"[3, 4, 5, 6, 13, 14, 17, 20, 21, 22, 24]",135.3615306,10995,2422,7,37,9,1.3398976005535586
basic,22,4,0,0,0,21,"[0, 28, 25, 16, 11, 21]",6,8,"[3, 4, 5, 13, 14, 17, 20, 22]",88.489364,12759,1764,4,6,9,1.4310545427041907
basic,22,4,0,0,0,22,"[0, 28, 25, 16, 11, 21, 22]",7,4,"[3, 5, 17, 20]",77.44400298,14512,1753,4,1,9,1.4027226621055573
basic,22,4,0,1,0,22,"[0, 28, 25, 16, 11, 21, 22]",7,4,"[3, 5, 17, 20]",77.44400298,15518,1006,4,1,9,1.4027226621055573
undo,23,21,0,0,0,0,[0],1,29,"[1, 2, 3, 4, 5, 6, 7, 8, 9, 10, 11, 12, 13, 14, 15, 16, 17, 18, 19, 20, 21, 22, 23, 24, 25, 26, 27, 28, 29]",300,310,-1,84,830,9,0.0
undo,23,21,0,0,0,6,"[0, 6]",2,27,"[1, 2, 3, 4, 5, 7, 8, 9, 10, 11, 12, 14, 15, 16, 17, 18, 19, 20, 21, 22, 23, 24, 25, 26, 27, 28, 29]",256.1365756,4509,4199,7,134,8,1.0
undo,23,21,0,0,0,11,"[0, 6, 11]",3,19,"[1, 3, 4, 5, 7, 9, 10, 12, 14, 17, 18, 20, 21, 22, 23, 25, 26, 28, 29]",212.846854,6598,2089,2,27,8,1.1024097864367723
undo,23,21,0,0,0,26,"[0, 6, 11, 26]",4,12,"[1, 3, 5, 9, 10, 12, 18, 20, 22, 25, 28, 29]",185.9767963,9831,3233,4,13,7,1.0986138424677871
undo,23,21,0,0,0,10,"[0, 6, 11, 26, 10]",5,2,"[12, 20]",99.39157813,11651,1820,1,1,7,1.647600103030372
undo,23,21,0,0,0,12,"[0, 6, 11, 26, 10, 12]",6,1,[20],76.58806963,13322,1671,1,0,7,2.012393459196439
undo,23,21,0,0,1,20,"[0, 6, 11, 26, 10, 12, 20]",7,0,[],22.46783312,15832,2510,1,0,7,3.369041796264792
undo,23,21,1,0,0,12,"[0, 6, 11, 26, 10, 12]",6,1,[20],76.58806963,17978,2146,1,0,7,2.012393459196439
undo,23,21,0,1,0,12,"[0, 6, 11, 26, 10, 12]",6,1,[20],76.58806963,20720,2742,1,0,7,2.012393459196439
undo,24,38,0,0,0,0,[0],1,29,"[1, 2, 3, 4, 5, 6, 7, 8, 9, 10, 11, 12, 13, 14, 15, 16, 17, 18, 19, 20, 21, 22, 23, 24, 25, 26, 27, 28, 29]",300,558,-1,33,506,9,0.0
undo,24,38,0,0,0,17,"[0, 17]",2,26,"[1, 3, 4, 5, 6, 7, 8, 9, 10, 11, 12, 13, 14, 15, 16, 18, 19, 20, 22, 23, 24, 25, 26, 27, 28, 29]",235.1848783,3503,2945,11,115,9,1.0
undo,24,38,0,0,0,20,"[0, 17, 20]",3,24,"[1, 3, 4, 5, 6, 7, 9, 10, 11, 12, 13, 14, 15, 16, 18, 19, 22, 23, 24, 25, 26, 27, 28, 29]",211.4151497,4972,1469,7,70,9,1.6449793733822013
undo,24,38,0,0,0,4,"[0, 17, 20, 4]",4,17,"[3, 5, 7, 10, 11, 12, 13, 14, 15, 16, 18, 19, 22, 24, 26, 27, 28]",177.4740242,7010,2038,4,40,9,1.7475203137292266
undo,24,38,0,0,0,15,"[0, 17, 20, 4, 15]",5,12,"[5, 10, 11, 12, 13, 14, 16, 19, 24, 26, 27, 28]",151.4740242,9020,2010,3,20,9,2.0241835387118274
undo,24,38,0,0,0,11,"[0, 17, 20, 4, 15, 11]",6,8,"[5, 10, 12, 13, 14, 16, 26, 28]",115.0734747,11319,2299,2,7,9,2.3142952219285746
undo,24,38,0,0,0,28,"[0, 17, 20, 4, 15, 11, 28]",7,4,"[10, 12, 14, 16]",88.05496254,12887,1568,2,2,9,1.9846119749887663
undo,24,38,0,0,1,16,"[0, 17, 20, 4, 15, 11, 28, 16]",8,0,[],59.05496254,15027,2140,1,0,8,2.20208780509616
undo,24,38,1,0,0,28,"[0, 17, 20, 4, 15, 11, 28]",7,4,"[10, 12, 14, 16]",88.05496254,17090,2063,2,2,9,1.9846119749887663
undo,24,38,0,1,0,28,"[0, 17, 20, 4, 15, 11, 28]",7,4,"[10, 12, 14, 16]",88.05496254,20814,3724,2,2,9,1.9846119749887663
undo,25,31,0,0,0,0,[0],1,27,"[1, 3, 4, 5, 6, 7, 8, 10, 11, 12, 13, 14, 15, 16, 17, 18, 19, 20, 21, 22, 23, 24, 25, 26, 27, 28, 29]",300,299,-1,2,87,10,0.0
undo,25,31,0,0,0,14,"[0, 14]",2,25,"[1, 3, 5, 6, 7, 8, 10, 11, 12, 13, 15, 16, 17, 18, 19, 20, 21, 22, 23, 24, 25, 26, 27, 28, 29]",263.861378,3405,3106,2,59,10,1.0
undo,25,31,0,0,0,27,"[0, 14, 27]",3,22,"[1, 3, 5, 6, 7, 8, 10, 11, 12, 13, 15, 16, 17, 18, 19, 20, 21, 22, 24, 25, 28, 29]",235.6833724,4689,1284,1,39,10,1.5881859159302467
undo,25,31,0,0,0,8,"[0, 14, 27, 8]",4,20,"[1, 3, 5, 6, 7, 10, 11, 12, 13, 16, 17, 18, 19, 20, 21, 22, 24, 25, 28, 29]",224.6380114,5965,1276,1,36,10,2.1665048452331277
undo,25,31,0,0,0,18,"[0, 14, 27, 8, 18]",5,15,"[1, 5, 6, 7, 11, 12, 13, 16, 17, 19, 20, 22, 25, 28, 29]",188.7911147,7198,1233,1,26,10,1.7273375741920205
undo,25,31,0,0,0,11,"[0, 14, 27, 8, 18, 11]",6,11,"[1, 5, 7, 12, 16, 17, 19, 20, 22, 25, 28]",153.9055876,8853,1655,13,17,9,2.386348208737804
undo,25,31,0,0,0,5,"[0, 14, 27, 8, 18, 11, 5]",7,5,"[16, 17, 20, 25, 28]",110.2249283,10628,1775,3,3,9,2.163249612867222
undo,25,31,0,0,0,28,"[0, 14, 27, 8, 18, 11, 5, 28]",8,2,"[16, 17]",90.00117988,14692,4064,2,0,9,1.9564635733184719
undo,25,31,0,0,1,16,"[0, 14, 27, 8, 18, 11, 5, 28, 16]",9,0,[],56.38570725,16114,1422,1,0,9,1.824071502589619
undo,25,31,1,0,0,28,"[0, 14, 27, 8, 18, 11, 5, 28]",8,2,"[16, 17]",90.00117988,17504,1390,2,0,9,1.9564635733184719
undo,25,31,0,1,0,28,"[0, 14, 27, 8, 18, 11, 5, 28]",8,2,"[16, 17]",90.00117988,19629,2125,2,0,9,1.9564635733184719
undo,26,2,0,0,0,0,[0],1,23,"[1, 2, 4, 5, 6, 7, 8, 9, 12, 13, 15, 16, 17, 18, 19, 20, 22, 23, 25, 26, 27, 28, 29]",300,171,-1,70,620,10,0.0
undo,26,2,0,0,0,12,"[0, 12]",2,19,"[1, 2, 4, 5, 6, 7, 13, 15, 16, 17, 18, 19, 20, 22, 25, 26, 27, 28, 29]",186.8275652,3050,2879,3,169,10,1.0
undo,26,2,0,0,0,5,"[0, 12, 5]",3,14,"[1, 4, 6, 7, 13, 15, 16, 18, 19, 22, 25, 26, 28, 29]",157.2979191,4936,1886,2,88,10,1.0082498134695237
undo,26,2,0,0,0,22,"[0, 12, 5, 22]",4,11,"[1, 6, 7, 13, 15, 18, 19, 25, 26, 28, 29]",144.4916706,6229,1293,1,45,10,1.0077567572950326
undo,26,2,0,0,0,13,"[0, 12, 5, 22, 13]",5,9,"[1, 6, 7, 15, 18, 19, 25, 26, 29]",129.6256019,7697,1468,1,39,10,1.151783231594989
undo,26,2,0,0,0,18,"[0, 12, 5, 22, 13, 18]",6,4,"[7, 15, 26, 29]",94.45459106,9217,1520,1,14,10,1.1431544953850095
undo,26,2,0,0,0,7,"[0, 12, 5, 22, 13, 18, 7]",7,3,"[15, 26, 29]",84.15896092,10526,1309,1,4,10,1.1360054688421053
undo,26,2,0,0,0,15,"[0, 12, 5, 22, 13, 18, 7, 15]",8,2,"[26, 29]",69.39413786,12024,1498,2,0,9,1.2242392448275679
undo,26,2,0,0,1,26,"[0, 12, 5, 22, 13, 18, 7, 15, 26]",9,0,[],45.18670099,13702,1678,1,0,9,1.2055492285419085
undo,26,2,1,0,0,15,"[0, 12, 5, 22, 13, 18, 7, 15]",8,2,"[26, 29]",69.39413786,16368,2666,2,0,9,1.2242392448275679
undo,26,2,0,0,1,29,"[0, 12, 5, 22, 13, 18, 7, 15, 29]",9,0,[],40.93363892,18840,2472,1,0,9,1.4112243925575212
undo,26,2,1,0,0,15,"[0, 12, 5, 22, 13, 18, 7, 15]",8,2,"[26, 29]",69.39413786,20763,1923,2,0,9,1.2242392448275679
undo,26,2,1,0,0,7,"[0, 12, 5, 22, 13, 18, 7]",7,3,"[15, 26, 29]",84.15896092,22108,1345,1,4,10,1.1360054688421053
undo,26,2,1,0,0,18,"[0, 12, 5, 22, 13, 18]",6,4,"[7, 15, 26, 29]",94.45459106,23091,983,1,14,10,1.1431544953850095
undo,26,2,0,0,0,15,"[0, 12, 5, 22, 13, 18, 15]",7,3,"[7, 26, 29]",76.56604724,24123,1032,6,0,9,1.1861650482661095
undo,26,2,0,0,0,29,"[0, 12, 5, 22, 13, 18, 15, 29]",8,2,"[7, 26]",48.1055483,25746,1623,2,0,9,1.3721565127445083
undo,26,2,1,0,0,15,"[0, 12, 5, 22, 13, 18, 15]",7,3,"[7, 26, 29]",76.56604724,28470,2724,6,0,9,1.1861650482661095
undo,26,2,1,0,0,18,"[0, 12, 5, 22, 13, 18]",6,4,"[7, 15, 26, 29]",94.45459106,28911,441,1,14,10,1.1431544953850095
undo,26,2,0,0,0,7,"[0, 12, 5, 22, 13, 18, 7]",7,3,"[15, 26, 29]",84.15896092,30250,1339,1,4,10,1.1360054688421053
undo,26,2,0,0,0,15,"[0, 12, 5, 22, 13, 18, 7, 15]",8,2,"[26, 29]",69.39413786,31767,1517,2,0,9,1.2242392448275679
undo,26,2,0,0,1,29,"[0, 12, 5, 22, 13, 18, 7, 15, 29]",9,0,[],40.93363892,33646,1879,1,0,9,1.4112243925575212
undo,26,2,1,0,0,15,"[0, 12, 5, 22, 13, 18, 7, 15]",8,2,"[26, 29]",69.39413786,34180,534,2,0,9,1.2242392448275679
undo,26,2,0,1,0,15,"[0, 12, 5, 22, 13, 18, 7, 15]",8,2,"[26, 29]",69.39413786,36307,2127,2,0,9,1.2242392448275679
undo,27,26,0,0,0,0,[0],1,29,"[1, 2, 3, 4, 5, 6, 7, 8, 9, 10, 11, 12, 13, 14, 15, 16, 17, 18, 19, 20, 21, 22, 23, 24, 25, 26, 27, 28, 29]",300,290,-1,9,226,9,0.0
undo,27,26,0,0,0,18,"[0, 18]",2,15,"[2, 5, 7, 8, 9, 11, 12, 13, 15, 20, 21, 23, 24, 25, 27]",160.9136959,5694,5404,24,22,5,1.0
undo,27,26,0,0,0,25,"[0, 18, 25]",3,7,"[8, 9, 11, 15, 20, 24, 27]",120.7141934,7622,1928,8,3,5,1.000473223566934
undo,27,26,0,0,0,8,"[0, 18, 25, 8]",4,5,"[9, 11, 15, 20, 27]",88.15655218,8948,1326,5,0,5,1.0999994654658016
undo,27,26,0,0,1,20,"[0, 18, 25, 8, 20]",5,0,[],37.55022847,10661,1713,1,0,5,1.111078301491445
undo,27,26,1,0,0,8,"[0, 18, 25, 8]",4,5,"[9, 11, 15, 20, 27]",88.15655218,12255,1594,5,0,5,1.0999994654658016
undo,27,26,0,1,0,8,"[0, 18, 25, 8]",4,5,"[9, 11, 15, 20, 27]",88.15655218,13238,983,5,0,5,1.0999994654658016
undo,28,23,0,0,0,0,[0],1,28,"[1, 2, 3, 4, 5, 6, 7, 8, 9, 10, 11, 12, 13, 14, 15, 16, 17, 18, 19, 20, 21, 22, 23, 25, 26, 27, 28, 29]",300,188,-1,76,2626,10,0.0
undo,28,23,0,0,0,13,"[0, 13]",2,19,"[1, 2, 3, 5, 6, 7, 8, 9, 10, 12, 14, 17, 18, 19, 21, 22, 23, 27, 29]",189.3202819,4219,4031,9,168,10,1.0
undo,28,23,0,0,0,12,"[0, 13, 12]",3,16,"[1, 2, 3, 6, 7, 8, 9, 10, 14, 17, 18, 21, 22, 23, 27, 29]",177.2372359,5397,1178,9,96,10,1.0014195490503164
undo,28,23,0,0,0,2,"[0, 13, 12, 2]",4,12,"[1, 3, 6, 7, 9, 10, 14, 18, 21, 22, 27, 29]",163.3447919,6750,1353,4,30,10,1.0014394317924602
undo,28,23,0,0,0,6,"[0, 13, 12, 2, 6]",5,8,"[7, 9, 10, 14, 18, 22, 27, 29]",144.905703,7921,1171,2,11,10,1.0322887343644427
undo,28,23,0,0,0,14,"[0, 13, 12, 2, 6, 14]",6,7,"[7, 9, 10, 18, 22, 27, 29]",116.0439636,9986,2065,1,4,10,1.305671089460822
undo,28,23,0,0,0,9,"[0, 13, 12, 2, 6, 14, 9]",7,6,"[7, 10, 18, 22, 27, 29]",105.6036571,11819,1833,1,3,10,1.4879353140485658
undo,28,23,0,0,1,22,"[0, 13, 12, 2, 6, 14, 9, 22]",8,0,[],55.95489078,13692,1873,1,0,8,2.7268035489895013
undo,28,23,1,0,0,9,"[0, 13, 12, 2, 6, 14, 9]",7,6,"[7, 10, 18, 22, 27, 29]",105.6036571,14983,1291,1,3,10,1.4879353140485658
undo,28,23,0,1,0,9,"[0, 13, 12, 2, 6, 14, 9]",7,6,"[7, 10, 18, 22, 27, 29]",105.6036571,16244,1261,1,3,10,1.4879353140485658
undo,29,40,0,0,0,0,[0],1,29,"[1, 2, 3, 4, 5, 6, 7, 8, 9, 10, 11, 12, 13, 14, 15, 16, 17, 18, 19, 20, 21, 22, 23, 24, 25, 26, 27, 28, 29]",300,472,-1,8,191,9,0.0
undo,29,40,0,0,0,1,"[0, 1]",2,18,"[2, 5, 6, 7, 8, 9, 10, 11, 13, 15, 17, 18, 19, 21, 22, 23, 27, 29]",247.8463808,6248,5776,4,80,9,1.0
undo,29,40,0,0,0,6,"[0, 1, 6]",3,17,"[2, 5, 7, 8, 9, 10, 11, 13, 15, 17, 18, 19, 21, 22, 23, 27, 29]",227.7466295,7098,850,4,74,9,1.0459427008232034
undo,29,40,0,0,0,21,"[0, 1, 6, 21]",4,8,"[2, 5, 9, 17, 18, 19, 22, 23]",175.7754837,8688,1590,4,25,9,1.0308822257404064
undo,29,40,0,0,0,9,"[0, 1, 6, 21, 9]",5,6,"[2, 5, 18, 19, 22, 23]",130.0699041,10827,2139,4,12,9,1.377861912961129
undo,29,40,0,0,0,18,"[0, 1, 6, 21, 9, 18]",6,5,"[2, 5, 19, 22, 23]",113.5169588,12246,1419,4,4,9,1.5742712168661408
undo,29,40,0,0,0,5,"[0, 1, 6, 21, 9, 18, 5]",7,3,"[19, 22, 23]",81.94165198,13603,1357,2,1,9,1.7730665063055515
undo,29,40,0,0,0,23,"[0, 1, 6, 21, 9, 18, 5, 23]",8,1,[19],53.63970859,15141,1538,1,0,9,2.597442759912231
undo,29,40,0,0,1,19,"[0, 1, 6, 21, 9, 18, 5, 23, 19]",9,0,[],21.68661797,16598,1457,1,0,9,2.7128328554069565
undo,29,40,1,0,0,23,"[0, 1, 6, 21, 9, 18, 5, 23]",8,1,[19],53.63970859,18121,1523,1,0,9,2.597442759912231
undo,29,40,0,1,0,23,"[0, 1, 6, 21, 9, 18, 5, 23]",8,1,[19],53.63970859,19912,1791,1,0,9,2.597442759912231
undo,30,6,0,0,0,0,[0],1,29,"[1, 2, 3, 4, 5, 6, 7, 8, 9, 10, 11, 12, 13, 14, 15, 16, 17, 18, 19, 20, 21, 22, 23, 24, 25, 26, 27, 28, 29]",300,178,-1,180,4304,10,0.0
undo,30,6,0,0,0,3,"[0, 3]",2,28,"[1, 2, 4, 5, 6, 7, 8, 9, 10, 11, 12, 13, 14, 15, 16, 17, 18, 19, 20, 21, 22, 23, 24, 25, 26, 27, 28, 29]",266.4738908,2462,2284,90,1607,10,1.0
undo,30,6,0,0,0,18,"[0, 3, 18]",3,27,"[1, 2, 4, 5, 6, 7, 8, 9, 10, 11, 12, 13, 14, 15, 16, 17, 19, 20, 21, 22, 23, 24, 25, 26, 27, 28, 29]",237.4738908,3953,1491,34,516,10,1.0266750028725786
undo,30,6,0,0,0,16,"[0, 3, 18, 16]",4,26,"[1, 2, 4, 5, 6, 7, 8, 9, 10, 11, 12, 13, 14, 15, 17, 19, 20, 21, 22, 23, 24, 25, 26, 27, 28, 29]",214.1286557,7864,3911,9,128,10,1.1896779166934912
undo,30,6,0,0,0,29,"[0, 3, 18, 16, 29]",5,21,"[1, 2, 4, 5, 6, 7, 10, 11, 13, 14, 15, 17, 19, 20, 21, 22, 23, 24, 25, 26, 27]",177.4407831,9820,1956,26,77,9,1.150702001316601
undo,30,6,0,0,0,14,"[0, 3, 18, 16, 29, 14]",6,9,"[6, 11, 19, 20, 21, 22, 23, 25, 27]",113.8404686,11674,1854,1,6,9,1.1068969366621244
undo,30,6,0,0,0,22,"[0, 3, 18, 16, 29, 14, 22]",7,3,"[6, 23, 27]",79.43116752,13468,1794,1,2,9,1.416553723987366
undo,30,6,0,0,0,23,"[0, 3, 18, 16, 29, 14, 22, 23]",8,1,[6],38.43116752,16295,2827,1,0,9,1.9490776321234309
undo,30,6,0,1,0,23,"[0, 3, 18, 16, 29, 14, 22, 23]",8,1,[6],38.43116752,18756,2461,1,0,9,1.9490776321234309
undo,31,25,0,0,0,0,[0],1,28,"[1, 2, 3, 4, 5, 7, 8, 9, 10, 11, 12, 13, 14, 15, 16, 17, 18, 19, 20, 21, 22, 23, 24, 25, 26, 27, 28, 29]",300,218,-1,5,94,10,0.0
undo,31,25,0,0,0,23,"[0, 23]",2,23,"[1, 2, 3, 5, 7, 8, 9, 11, 12, 13, 14, 16, 17, 19, 20, 21, 22, 24, 25, 26, 27, 28, 29]",259.7756293,3849,3631,3,33,10,1.0
undo,31,25,0,0,0,7,"[0, 23, 7]",3,16,"[1, 3, 5, 8, 9, 11, 13, 17, 19, 21, 22, 24, 26, 27, 28, 29]",181.9424744,5377,1528,1,21,9,1.0073109045884563
undo,31,25,0,0,0,24,"[0, 23, 7, 24]",4,10,"[3, 5, 8, 9, 11, 13, 19, 22, 28, 29]",157.1836376,6466,1089,1,17,9,1.0161584555781231
undo,31,25,0,0,0,9,"[0, 23, 7, 24, 9]",5,8,"[3, 8, 11, 13, 19, 22, 28, 29]",139.1558812,7797,1331,1,16,9,1.0303325523073676
undo,31,25,0,0,0,8,"[0, 23, 7, 24, 9, 8]",6,3,"[3, 13, 28]",88.9065031,9947,2150,4,1,8,1.055612641218378
undo,31,25,0,0,0,3,"[0, 23, 7, 24, 9, 8, 3]",7,2,"[13, 28]",49.70191153,11768,1821,2,0,8,1.351837400410144
undo,31,25,0,0,1,13,"[0, 23, 7, 24, 9, 8, 3, 13]",8,0,[],18.46091283,13595,1827,1,0,8,1.3968078467693603
undo,31,25,1,0,0,3,"[0, 23, 7, 24, 9, 8, 3]",7,2,"[13, 28]",49.70191153,15848,2253,2,0,8,1.351837400410144
undo,31,25,1,0,0,8,"[0, 23, 7, 24, 9, 8]",6,3,"[3, 13, 28]",88.9065031,18109,2261,4,1,8,1.055612641218378
undo,31,25,1,0,0,9,"[0, 23, 7, 24, 9]",5,8,"[3, 8, 11, 13, 19, 22, 28, 29]",139.1558812,20720,2611,1,16,9,1.0303325523073676
undo,31,25,1,0,0,24,"[0, 23, 7, 24]",4,10,"[3, 5, 8, 9, 11, 13, 19, 22, 28, 29]",157.1836376,25154,4434,1,17,9,1.0161584555781231
undo,31,25,0,0,0,8,"[0, 23, 7, 24, 8]",5,4,"[3, 9, 13, 28]",96.35601228,26772,1618,6,1,7,1.0183599727242574
undo,31,25,0,0,0,28,"[0, 23, 7, 24, 8, 28]",6,2,"[3, 13]",55.74813127,28377,1605,2,0,7,1.1287411669295673
undo,31,25,0,0,1,3,"[0, 23, 7, 24, 8, 28, 3]",7,0,[],24.44317959,30633,2256,1,0,7,1.488257533428934
undo,31,25,1,0,0,28,"[0, 23, 7, 24, 8, 28]",6,2,"[3, 13]",55.74813127,31373,740,2,0,7,1.1287411669295673
undo,31,25,0,1,0,28,"[0, 23, 7, 24, 8, 28]",6,2,"[3, 13]",55.74813127,33868,2495,2,0,7,1.1287411669295673
undo,32,0,0,0,0,0,[0],1,27,"[2, 3, 4, 5, 6, 7, 8, 9, 10, 11, 12, 13, 14, 15, 16, 17, 19, 20, 21, 22, 23, 24, 25, 26, 27, 28, 29]",300,277,-1,104,1136,9,0.0
undo,32,0,0,0,0,5,"[0, 5]",2,24,"[2, 3, 4, 7, 8, 9, 11, 12, 13, 14, 15, 16, 17, 19, 20, 21, 22, 23, 24, 25, 26, 27, 28, 29]",164.5156836,4297,4020,5,112,9,1.0
undo,32,0,0,0,0,26,"[0, 5, 26]",3,19,"[3, 4, 7, 8, 9, 11, 12, 13, 14, 15, 17, 19, 20, 21, 22, 23, 24, 25, 28]",129.0755933,5578,1281,1,27,9,1.0579955168289483
undo,32,0,0,0,0,4,"[0, 5, 26, 4]",4,15,"[3, 7, 8, 9, 11, 12, 14, 15, 17, 19, 20, 21, 23, 24, 28]",117.0339987,6993,1415,1,18,9,1.168807644221424
undo,32,0,0,0,0,24,"[0, 5, 26, 4, 24]",5,12,"[3, 7, 8, 9, 11, 12, 15, 17, 19, 20, 23, 28]",105.6322444,8227,1234,1,16,9,1.1650490498282802
undo,32,0,0,0,0,15,"[0, 5, 26, 4, 24, 15]",6,8,"[3, 7, 8, 9, 11, 12, 17, 19]",82.28700938,10334,2107,1,8,9,1.151743263817517
undo,32,0,0,0,0,7,"[0, 5, 26, 4, 24, 15, 7]",7,4,"[3, 8, 17, 19]",51.22256025,12241,1907,1,3,9,1.2134907370618446
undo,32,0,0,0,0,8,"[0, 5, 26, 4, 24, 15, 7, 8]",8,1,[3],32.11758707,13730,1489,1,0,9,1.2041635451831998
undo,32,0,0,0,1,3,"[0, 5, 26, 4, 24, 15, 7, 8, 3]",9,0,[],1.703774421,16704,2974,1,0,9,1.3761575037949692
undo,32,0,1,0,0,8,"[0, 5, 26, 4, 24, 15, 7, 8]",8,1,[3],32.11758707,18632,1928,1,0,9,1.2041635451831998
undo,32,0,0,1,0,8,"[0, 5, 26, 4, 24, 15, 7, 8]",8,1,[3],32.11758707,19754,1122,1,0,9,1.2041635451831998
undo,33,11,0,0,0,0,[0],1,25,"[1, 2, 3, 4, 5, 6, 8, 9, 10, 11, 12, 13, 14, 15, 16, 17, 18, 19, 20, 22, 23, 25, 26, 27, 28]",300,242,-1,6,374,12,0.0
undo,33,11,0,0,0,18,"[0, 18]",2,21,"[1, 2, 4, 5, 6, 8, 9, 11, 12, 13, 14, 15, 16, 17, 19, 20, 22, 23, 25, 27, 28]",236.8493864,2168,1926,157,1477,11,1.0
undo,33,11,0,0,0,8,"[0, 18, 8]",3,15,"[1, 2, 4, 5, 6, 11, 12, 15, 17, 19, 22, 23, 25, 27, 28]",142.8015262,5328,3160,68,433,10,1.082583796658153
undo,33,11,0,0,0,17,"[0, 18, 8, 17]",4,14,"[1, 2, 4, 5, 6, 11, 12, 15, 19, 22, 23, 25, 27, 28]",128.4837052,6747,1419,42,137,10,1.1661570686256826
undo,33,11,0,0,0,15,"[0, 18, 8, 17, 15]",5,10,"[2, 5, 6, 11, 12, 19, 22, 25, 27, 28]",115.8345945,8139,1392,38,57,10,1.174004859404982
undo,33,11,0,0,0,11,"[0, 18, 8, 17, 15, 11]",6,8,"[2, 5, 6, 12, 19, 22, 27, 28]",97.72382425,9127,988,24,0,10,1.1667535829006488
undo,33,11,0,0,0,28,"[0, 18, 8, 17, 15, 11, 28]",7,4,"[2, 5, 19, 22]",78.30733641,9930,803,6,0,10,1.2829187357571836
undo,33,11,0,0,0,2,"[0, 18, 8, 17, 15, 11, 28, 2]",8,2,"[5, 22]",67.6771906,11498,1568,2,0,10,1.3016151559399338
undo,33,11,0,0,0,22,"[0, 18, 8, 17, 15, 11, 28, 2, 22]",9,1,[5],57.62731498,12923,1425,1,0,10,1.2855661090245432
undo,33,11,0,1,0,22,"[0, 18, 8, 17, 15, 11, 28, 2, 22]",9,1,[5],57.62731498,14500,1577,1,0,10,1.2855661090245432
undo,34,45,0,0,0,0,[0],1,24,"[1, 2, 3, 4, 5, 6, 7, 9, 10, 11, 12, 14, 15, 16, 17, 19, 20, 21, 22, 23, 24, 25, 27, 29]",300,192,-1,6,248,10,0.0
undo,34,45,0,0,0,15,"[0, 15]",2,23,"[1, 2, 3, 4, 5, 6, 7, 9, 10, 11, 12, 14, 16, 17, 19, 20, 21, 22, 23, 24, 25, 27, 29]",253.9022777,5166,4974,5,207,10,1.0
undo,34,45,0,0,0,23,"[0, 15, 23]",3,22,"[1, 2, 3, 4, 5, 6, 7, 9, 10, 11, 12, 14, 16, 17, 19, 20, 21, 22, 24, 25, 27, 29]",230.3014303,6146,980,5,163,10,1.0006068457769497
undo,34,45,0,0,0,20,"[0, 15, 23, 20]",4,19,"[1, 2, 3, 5, 6, 7, 9, 10, 11, 12, 14, 16, 17, 19, 21, 22, 24, 25, 29]",188.8647316,7305,1159,5,137,10,1.2062119754673604
undo,34,45,0,0,0,7,"[0, 15, 23, 20, 7]",5,14,"[2, 3, 5, 6, 9, 10, 12, 14, 17, 19, 21, 22, 24, 29]",137.2410936,8541,1236,3,38,10,1.2267717168083891
undo,34,45,0,0,0,2,"[0, 15, 23, 20, 7, 2]",6,8,"[3, 6, 10, 12, 19, 22, 24, 29]",99.22793795,10177,1636,3,20,10,1.1978549169009853
undo,34,45,0,0,0,29,"[0, 15, 23, 20, 7, 2, 29]",7,5,"[3, 6, 10, 12, 22]",69.54629379,11702,1525,1,10,10,1.4308651661110543
undo,34,45,0,0,0,10,"[0, 15, 23, 20, 7, 2, 29, 10]",8,3,"[3, 6, 12]",48.00563456,12888,1186,1,2,10,1.7125443248406953
undo,34,45,0,0,0,6,"[0, 15, 23, 20, 7, 2, 29, 10, 6]",9,1,[12],21.75682506,15129,2241,1,0,10,1.6154828203934566
undo,34,45,0,1,0,6,"[0, 15, 23, 20, 7, 2, 29, 10, 6]",9,1,[12],21.75682506,16906,1777,1,0,10,1.6154828203934566
undo,35,28,0,0,0,0,[0],1,27,"[1, 2, 3, 4, 5, 6, 7, 8, 9, 10, 11, 12, 13, 14, 15, 16, 17, 18, 19, 20, 22, 23, 25, 26, 27, 28, 29]",300,194,-1,2,96,9,0.0
undo,35,28,0,0,0,3,"[0, 3]",2,26,"[1, 2, 4, 5, 6, 7, 8, 9, 10, 11, 12, 13, 14, 15, 16, 17, 18, 19, 20, 22, 23, 25, 26, 27, 28, 29]",251.0817008,10228,10034,1,64,9,1.0
undo,35,28,0,0,0,20,"[0, 3, 20]",3,20,"[2, 4, 5, 6, 7, 8, 9, 10, 11, 12, 13, 14, 15, 16, 18, 19, 22, 23, 26, 28]",209.7416475,11687,1459,2,29,8,1.6703057504555512
undo,35,28,0,0,0,15,"[0, 3, 20, 15]",4,10,"[5, 6, 8, 9, 10, 16, 22, 23, 26, 28]",157.2440286,13125,1438,1,6,7,1.4376587969564578
undo,35,28,0,0,0,23,"[0, 3, 20, 15, 23]",5,2,"[16, 22]",88.73855432,15031,1906,2,0,6,1.269324093812023
undo,35,28,0,0,1,16,"[0, 3, 20, 15, 23, 16]",6,0,[],48.42726558,16370,1339,1,0,6,1.2537020201649651
undo,35,28,1,0,0,23,"[0, 3, 20, 15, 23]",5,2,"[16, 22]",88.73855432,18352,1982,2,0,6,1.269324093812023
undo,35,28,1,0,0,15,"[0, 3, 20, 15]",4,10,"[5, 6, 8, 9, 10, 16, 22, 23, 26, 28]",157.2440286,18882,530,1,6,7,1.4376587969564578
undo,35,28,1,0,0,20,"[0, 3, 20]",3,20,"[2, 4, 5, 6, 7, 8, 9, 10, 11, 12, 13, 14, 15, 16, 18, 19, 22, 23, 26, 28]",209.7416475,19465,583,2,29,8,1.6703057504555512
undo,35,28,1,0,0,3,"[0, 3]",2,26,"[1, 2, 4, 5, 6, 7, 8, 9, 10, 11, 12, 13, 14, 15, 16, 17, 18, 19, 20, 22, 23, 25, 26, 27, 28, 29]",251.0817008,20073,608,1,64,9,1.0
undo,35,28,0,0,0,5,"[0, 3, 5]",3,20,"[2, 4, 6, 7, 8, 9, 10, 11, 12, 13, 14, 15, 18, 19, 20, 23, 25, 26, 28, 29]",166.9865166,23060,2987,1,34,9,1.0203769473612083
undo,35,28,0,0,0,26,"[0, 3, 5, 26]",4,13,"[2, 4, 7, 8, 9, 12, 13, 14, 18, 19, 20, 25, 28]",134.2298379,25313,2253,1,28,9,1.0315203228799597
undo,35,28,0,0,0,19,"[0, 3, 5, 26, 19]",5,7,"[2, 7, 9, 12, 13, 14, 18]",93.22983789,27617,2304,1,17,9,1.1324645362297356
undo,35,28,0,0,0,7,"[0, 3, 5, 26, 19, 7]",6,5,"[2, 12, 13, 14, 18]",65.49898864,29111,1494,1,6,9,1.1971194919020265
undo,35,28,0,0,0,12,"[0, 3, 5, 26, 19, 7, 12]",7,2,"[13, 18]",52.3460422,30251,1140,1,1,9,1.2020762147848982
undo,35,28,0,0,0,13,"[0, 3, 5, 26, 19, 7, 12, 13]",8,1,[18],35.14139167,34603,4352,1,0,9,1.39005144078531
undo,35,28,0,0,1,18,"[0, 3, 5, 26, 19, 7, 12, 13, 18]",9,0,[],10.72828044,36542,1939,1,0,9,1.738787343626007
undo,35,28,1,0,0,13,"[0, 3, 5, 26, 19, 7, 12, 13]",8,1,[18],35.14139167,37044,502,1,0,9,1.39005144078531
undo,35,28,0,1,0,13,"[0, 3, 5, 26, 19, 7, 12, 13]",8,1,[18],35.14139167,38706,1662,1,0,9,1.39005144078531
undo,36,32,0,0,0,0,[0],1,29,"[1, 2, 3, 4, 5, 6, 7, 8, 9, 10, 11, 12, 13, 14, 15, 16, 17, 18, 19, 20, 21, 22, 23, 24, 25, 26, 27, 28, 29]",300,304,-1,17,359,10,0.0
undo,36,32,0,0,0,15,"[0, 15]",2,24,"[2, 3, 4, 5, 6, 7, 8, 9, 10, 11, 12, 13, 14, 16, 17, 19, 20, 22, 23, 24, 25, 26, 27, 28]",214.6185032,4809,4505,11,153,9,1.0
undo,36,32,0,0,0,28,"[0, 15, 28]",3,21,"[2, 3, 5, 7, 8, 9, 10, 11, 12, 13, 14, 16, 17, 19, 20, 22, 23, 24, 25, 26, 27]",203.2167489,6114,1305,11,119,9,1.000160051986942
undo,36,32,0,0,0,12,"[0, 15, 28, 12]",4,19,"[2, 3, 5, 7, 8, 9, 10, 11, 13, 16, 17, 19, 20, 22, 23, 24, 25, 26, 27]",184.243083,8170,2056,8,71,9,1.0281484763748023
undo,36,32,0,0,0,22,"[0, 15, 28, 12, 22]",5,15,"[2, 3, 5, 7, 8, 9, 10, 11, 13, 16, 17, 19, 20, 24, 27]",154.7134368,9428,1258,2,23,9,1.0288756131844103
undo,36,32,0,0,0,9,"[0, 15, 28, 12, 22, 9]",6,10,"[2, 3, 5, 8, 10, 11, 16, 17, 20, 27]",132.5098335,10929,1501,12,4,8,1.1062990353877715
undo,36,32,0,0,0,8,"[0, 15, 28, 12, 22, 9, 8]",7,3,"[2, 10, 20]",87.38777684,12302,1373,3,0,8,1.0851376424523125
undo,36,32,0,0,1,20,"[0, 15, 28, 12, 22, 9, 8, 20]",8,0,[],37.05885871,14174,1872,1,0,8,1.2999378022250176
undo,36,32,1,0,0,8,"[0, 15, 28, 12, 22, 9, 8]",7,3,"[2, 10, 20]",87.38777684,15887,1713,3,0,8,1.0851376424523125
undo,36,32,0,1,0,8,"[0, 15, 28, 12, 22, 9, 8]",7,3,"[2, 10, 20]",87.38777684,18195,2308,3,0,8,1.0851376424523125
undo,37,37,0,0,0,0,[0],1,29,"[1, 2, 3, 4, 5, 6, 7, 8, 9, 10, 11, 12, 13, 14, 15, 16, 17, 18, 19, 20, 21, 22, 23, 24, 25, 26, 27, 28, 29]",300,188,-1,6,168,10,0.0
undo,37,37,0,0,0,19,"[0, 19]",2,19,"[1, 2, 4, 5, 6, 7, 9, 10, 11, 15, 17, 18, 20, 21, 22, 25, 26, 28, 29]",185.6627795,6978,6790,25,244,9,1.0
undo,37,37,0,0,0,21,"[0, 19, 21]",3,14,"[1, 2, 4, 7, 10, 11, 15, 17, 18, 20, 22, 25, 26, 29]",144.5531699,9239,2261,10,75,9,1.001632816594558
undo,37,37,0,0,0,15,"[0, 19, 21, 15]",4,9,"[1, 2, 4, 7, 18, 20, 22, 26, 29]",129.5531699,11734,2495,5,32,9,1.0243376499143988
undo,37,37,0,0,0,20,"[0, 19, 21, 15, 20]",5,8,"[1, 2, 4, 7, 18, 22, 26, 29]",112.5531699,12766,1032,5,14,9,1.250507291508492
undo,37,37,0,0,0,1,"[0, 19, 21, 15, 20, 1]",6,6,"[2, 4, 7, 18, 22, 26]",78.31868434,14585,1819,4,4,9,1.4002166443864243
undo,37,37,0,0,0,2,"[0, 19, 21, 15, 20, 1, 2]",7,4,"[4, 7, 18, 22]",61.11403381,16320,1735,2,2,9,1.5802253600182588
undo,37,37,0,0,0,4,"[0, 19, 21, 15, 20, 1, 2, 4]",8,1,[22],49.71227956,17727,1407,1,0,9,1.5399187067712754
undo,37,37,0,0,1,22,"[0, 19, 21, 15, 20, 1, 2, 4, 22]",9,0,[],24.71227956,19693,1966,1,0,9,1.6903775033413582
undo,37,37,1,0,0,4,"[0, 19, 21, 15, 20, 1, 2, 4]",8,1,[22],49.71227956,24046,4353,1,0,9,1.5399187067712754
undo,37,37,0,1,0,4,"[0, 19, 21, 15, 20, 1, 2, 4]",8,1,[22],49.71227956,25768,1722,1,0,9,1.5399187067712754
undo,38,13,0,0,0,0,[0],1,29,"[1, 2, 3, 4, 5, 6, 7, 8, 9, 10, 11, 12, 13, 14, 15, 16, 17, 18, 19, 20, 21, 22, 23, 24, 25, 26, 27, 28, 29]",300,205,-1,60,2676,11,0.0
undo,38,13,0,0,0,23,"[0, 23]",2,28,"[1, 2, 3, 4, 5, 6, 7, 8, 9, 10, 11, 12, 13, 14, 15, 16, 17, 18, 19, 20, 21, 22, 24, 25, 26, 27, 28, 29]",243.4845154,2716,2511,7,1000,10,1.0
undo,38,13,0,0,0,16,"[0, 23, 16]",3,26,"[1, 2, 3, 4, 6, 7, 8, 9, 10, 11, 12, 13, 14, 15, 17, 18, 19, 20, 21, 22, 24, 25, 26, 27, 28, 29]",203.1732267,3984,1268,2,150,10,1.051905815819367
undo,38,13,0,0,0,3,"[0, 23, 16, 3]",4,21,"[2, 4, 6, 7, 8, 9, 10, 11, 13, 14, 15, 18, 20, 21, 22, 24, 25, 26, 27, 28, 29]",174.7303013,4717,733,3,45,9,1.2301459883253447
undo,38,13,0,0,0,20,"[0, 23, 16, 3, 20]",5,16,"[4, 6, 7, 8, 9, 11, 14, 18, 21, 22, 24, 25, 26, 27, 28, 29]",155.7040038,5641,924,7,19,8,1.3115650139441233
undo,38,13,0,0,0,4,"[0, 23, 16, 3, 20, 4]",6,6,"[6, 8, 18, 24, 25, 27]",133.6812882,7362,1721,2,5,8,1.2831385315274801
undo,38,13,0,0,0,27,"[0, 23, 16, 3, 20, 4, 27]",7,2,"[8, 18]",111.6585727,8568,1206,2,0,8,1.331974815431111
undo,38,13,0,0,1,18,"[0, 23, 16, 3, 20, 4, 27, 18]",8,0,[],16.57965807,10425,1857,1,0,8,1.1985045029201473
undo,38,13,1,0,0,27,"[0, 23, 16, 3, 20, 4, 27]",7,2,"[8, 18]",111.6585727,11777,1352,2,0,8,1.331974815431111
undo,38,13,0,1,0,27,"[0, 23, 16, 3, 20, 4, 27]",7,2,"[8, 18]",111.6585727,14563,2786,2,0,8,1.331974815431111
undo,39,22,0,0,0,0,[0],1,29,"[1, 2, 3, 4, 5, 6, 7, 8, 9, 10, 11, 12, 13, 14, 15, 16, 17, 18, 19, 20, 21, 22, 23, 24, 25, 26, 27, 28, 29]",300,275,-1,31,704,9,0.0
undo,39,22,0,0,0,16,"[0, 16]",2,21,"[1, 3, 6, 7, 8, 9, 11, 13, 14, 15, 17, 18, 19, 20, 21, 22, 24, 25, 27, 28, 29]",218.605897,2549,2274,17,147,9,1.0
undo,39,22,0,0,0,6,"[0, 16, 6]",3,16,"[1, 3, 7, 9, 13, 14, 15, 17, 19, 20, 21, 22, 24, 25, 28, 29]",184.1675463,4069,1520,5,77,9,1.3071109638102874
undo,39,22,0,0,0,9,"[0, 16, 6, 9]",4,15,"[1, 3, 7, 13, 14, 15, 17, 19, 20, 21, 22, 24, 25, 28, 29]",157.5404924,5177,1108,4,33,9,1.5907585082674378
undo,39,22,0,0,0,19,"[0, 16, 6, 9, 19]",5,12,"[3, 7, 13, 14, 15, 17, 20, 21, 24, 25, 28, 29]",137.1444143,6230,1053,3,17,9,2.0453047636701496
undo,39,22,0,0,0,29,"[0, 16, 6, 9, 19, 29]",6,10,"[3, 7, 13, 14, 15, 17, 20, 21, 24, 28]",122.111118,7266,1036,3,10,9,2.310050419546042
undo,39,22,0,0,0,7,"[0, 16, 6, 9, 19, 29, 7]",7,3,"[14, 17, 24]",71.0327468,9360,2094,1,2,9,1.8205864950786186
undo,39,22,1,0,0,29,"[0, 16, 6, 9, 19, 29]",6,10,"[3, 7, 13, 14, 15, 17, 20, 21, 24, 28]",122.111118,12959,3599,3,10,9,2.310050419546042
undo,39,22,0,0,0,14,"[0, 16, 6, 9, 19, 29, 14]",7,2,"[7, 17]",63.86165444,13787,828,1,1,9,1.8228779744230632
undo,39,22,0,0,0,7,"[0, 16, 6, 9, 19, 29, 14, 7]",8,1,[17],50.82324963,15431,1644,1,0,9,1.981278197083242
undo,39,22,0,1,0,7,"[0, 16, 6, 9, 19, 29, 14, 7]",8,1,[17],50.82324963,17059,1628,1,0,9,1.981278197083242
undo,40,36,0,0,0,0,[0],1,24,"[2, 4, 5, 6, 7, 8, 9, 10, 12, 13, 14, 15, 16, 17, 18, 19, 20, 22, 23, 25, 26, 27, 28, 29]",300,475,-1,2,200,10,0.0
undo,40,36,0,0,0,12,"[0, 12]",2,23,"[2, 4, 5, 6, 7, 8, 9, 10, 13, 14, 15, 16, 17, 18, 19, 20, 22, 23, 25, 26, 27, 28, 29]",277.7963967,4323,3848,90,804,9,1.0
undo,40,36,0,0,0,16,"[0, 12, 16]",3,10,"[2, 9, 10, 13, 17, 18, 19, 23, 25, 27]",171.6267212,8033,3710,4,38,9,1.202695220335868
undo,40,36,0,0,0,17,"[0, 12, 16, 17]",4,7,"[2, 9, 10, 13, 18, 19, 25]",143.3071167,9067,1034,4,23,9,1.6578705047868705
undo,40,36,0,0,0,9,"[0, 12, 16, 17, 9]",5,5,"[2, 13, 18, 19, 25]",117.0583072,10328,1261,3,6,9,2.6488264465469484
undo,40,36,0,0,0,19,"[0, 12, 16, 17, 9, 19]",6,4,"[2, 13, 18, 25]",101.9255612,13826,3498,3,3,9,2.5697960541572393
undo,40,36,0,0,0,13,"[0, 12, 16, 17, 9, 19, 13]",7,2,"[2, 25]",58.50897451,16348,2522,1,1,9,2.4621440589806656
undo,40,36,0,0,0,25,"[0, 12, 16, 17, 9, 19, 13, 25]",8,1,[2],37.91771423,18388,2040,1,0,9,2.2891246998687684
undo,40,36,0,0,1,2,"[0, 12, 16, 17, 9, 19, 13, 25, 2]",9,0,[],12.91771423,19978,1590,1,0,9,2.5421443983069345
undo,40,36,1,0,0,25,"[0, 12, 16, 17, 9, 19, 13, 25]",8,1,[2],37.91771423,22813,2835,1,0,9,2.2891246998687684
undo,40,36,0,1,0,25,"[0, 12, 16, 17, 9, 19, 13, 25]",8,1,[2],37.91771423,24153,1340,1,0,9,2.2891246998687684
undo,41,42,0,0,0,0,[0],1,29,"[1, 2, 3, 4, 5, 6, 7, 8, 9, 10, 11, 12, 13, 14, 15, 16, 17, 18, 19, 20, 21, 22, 23, 24, 25, 26, 27, 28, 29]",300,198,-1,16,302,9,0.0
undo,41,42,0,0,0,4,"[0, 4]",2,28,"[1, 2, 3, 5, 6, 7, 8, 9, 10, 11, 12, 13, 14, 15, 16, 17, 18, 19, 20, 21, 22, 23, 24, 25, 26, 27, 28, 29]",209.5290102,5398,5200,4,80,9,1.0
undo,41,42,0,0,0,22,"[0, 4, 22]",3,24,"[1, 2, 3, 5, 6, 7, 8, 9, 10, 11, 13, 15, 17, 18, 19, 20, 21, 23, 24, 25, 26, 27, 28, 29]",198.3486703,6338,940,3,53,9,1.1473032812120834
undo,41,42,0,0,0,8,"[0, 4, 22, 8]",4,21,"[1, 2, 3, 5, 6, 7, 10, 11, 15, 17, 18, 19, 20, 21, 23, 24, 25, 26, 27, 28, 29]",176.2127267,8050,1712,2,36,9,1.1513227322639639
undo,41,42,0,0,0,1,"[0, 4, 22, 8, 1]",5,12,"[2, 5, 6, 7, 10, 15, 18, 19, 24, 26, 27, 28]",127.1209758,9301,1251,2,24,9,1.1101621876186907
undo,41,42,0,0,0,7,"[0, 4, 22, 8, 1, 7]",6,5,"[2, 19, 26, 27, 28]",97.12097583,10595,1294,2,10,9,1.1711274205343067
undo,41,42,0,0,0,26,"[0, 4, 22, 8, 1, 7, 26]",7,3,"[2, 19, 27]",70.55031532,12111,1516,2,1,9,1.1588367913131314
undo,41,42,0,0,0,27,"[0, 4, 22, 8, 1, 7, 26, 27]",8,1,[19],52.52255894,13812,1701,1,0,9,1.160587570992885
undo,41,42,0,0,1,19,"[0, 4, 22, 8, 1, 7, 26, 27, 19]",9,0,[],11.51036563,15617,1805,1,0,9,1.3341568614108437
undo,41,42,1,0,0,27,"[0, 4, 22, 8, 1, 7, 26, 27]",8,1,[19],52.52255894,17206,1589,1,0,9,1.160587570992885
undo,41,42,1,0,0,26,"[0, 4, 22, 8, 1, 7, 26]",7,3,"[2, 19, 27]",70.55031532,18056,850,2,1,9,1.1588367913131314
undo,41,42,0,0,0,19,"[0, 4, 22, 8, 1, 7, 26, 19]",8,1,[2],35.66478824,18749,693,1,0,9,1.222451674051433
undo,41,42,0,0,1,2,"[0, 4, 22, 8, 1, 7, 26, 19, 2]",9,0,[],3.900027887,20651,1902,1,0,9,1.545376643575542
undo,41,42,1,0,0,19,"[0, 4, 22, 8, 1, 7, 26, 19]",8,1,[2],35.66478824,21228,577,1,0,9,1.222451674051433
undo,41,42,0,1,0,19,"[0, 4, 22, 8, 1, 7, 26, 19]",8,1,[2],35.66478824,23521,2293,1,0,9,1.222451674051433
undo,42,18,0,0,0,0,[0],1,28,"[1, 2, 3, 4, 5, 6, 7, 8, 9, 10, 11, 12, 13, 14, 16, 17, 18, 19, 20, 21, 22, 23, 24, 25, 26, 27, 28, 29]",300,227,-1,3,136,10,0.0
undo,42,18,0,0,0,28,"[0, 28]",2,16,"[1, 3, 5, 7, 8, 9, 12, 13, 14, 16, 20, 23, 24, 25, 26, 27]",236.4311397,4866,4639,2,19,10,1.0
undo,42,18,0,0,0,7,"[0, 28, 7]",3,15,"[1, 3, 5, 8, 9, 12, 13, 14, 16, 20, 23, 24, 25, 26, 27]",214.4084242,6086,1220,2,17,10,1.4345180696367563
undo,42,18,0,0,0,25,"[0, 28, 7, 25]",4,13,"[1, 3, 5, 8, 9, 12, 13, 14, 16, 20, 23, 26, 27]",186.6055466,7525,1439,2,15,10,1.8896451241781882
undo,42,18,0,0,0,8,"[0, 28, 7, 25, 8]",5,10,"[3, 5, 9, 12, 13, 14, 16, 23, 26, 27]",149.551532,8761,1236,2,10,10,1.590467437592877
undo,42,18,0,0,0,13,"[0, 28, 7, 25, 8, 13]",6,9,"[3, 5, 9, 12, 14, 16, 23, 26, 27]",128.4565089,10668,1907,2,5,10,1.8248274983549797
undo,42,18,0,0,0,14,"[0, 28, 7, 25, 8, 13, 14]",7,7,"[3, 5, 9, 12, 23, 26, 27]",109.4828429,11757,1089,2,3,10,1.6993534956692746
undo,42,18,0,0,0,3,"[0, 28, 7, 25, 8, 13, 14, 3]",8,3,"[5, 12, 27]",79.39962499,15285,3528,2,1,10,1.802637206541468
undo,42,18,0,1,0,3,"[0, 28, 7, 25, 8, 13, 14, 3]",8,3,"[5, 12, 27]",79.39962499,17183,1898,2,1,10,1.802637206541468
undo,43,7,0,0,0,0,[0],1,29,"[1, 2, 3, 4, 5, 6, 7, 8, 9, 10, 11, 12, 13, 14, 15, 16, 17, 18, 19, 20, 21, 22, 23, 24, 25, 26, 27, 28, 29]",300,189,-1,3,79,9,0.0
undo,43,7,0,0,0,25,"[0, 25]",2,20,"[2, 3, 4, 5, 6, 7, 10, 13, 14, 15, 16, 18, 19, 20, 21, 22, 23, 24, 27, 28]",181.5939191,4540,4351,5,33,8,1.0
undo,43,7,0,0,0,4,"[0, 25, 4]",3,11,"[2, 6, 7, 13, 15, 16, 18, 19, 20, 21, 23]",156.8552853,6443,1903,2,14,8,1.0193465608331511
undo,43,7,0,0,0,20,"[0, 25, 4, 20]",4,8,"[2, 6, 7, 13, 15, 16, 18, 19]",137.2084026,7412,969,1,9,8,1.085904909082323
undo,43,7,0,0,0,18,"[0, 25, 4, 20, 18]",5,7,"[2, 6, 7, 13, 15, 16, 19]",124.4021541,8503,1091,1,5,8,1.2264883846453758
undo,43,7,0,0,0,7,"[0, 25, 4, 20, 18, 7]",6,2,"[2, 19]",83.17109789,10218,1715,1,1,8,1.185264473968278
undo,43,7,0,0,0,19,"[0, 25, 4, 20, 18, 7, 19]",7,1,[2],53.76021555,11513,1295,1,0,8,1.3016904288278204
undo,43,7,0,0,1,2,"[0, 25, 4, 20, 18, 7, 19, 2]",8,0,[],23.61058868,13992,2479,1,0,8,1.3168868000947171
undo,43,7,1,0,0,19,"[0, 25, 4, 20, 18, 7, 19]",7,1,[2],53.76021555,15630,1638,1,0,8,1.3016904288278204
undo,43,7,0,1,0,19,"[0, 25, 4, 20, 18, 7, 19]",7,1,[2],53.76021555,19834,4204,1,0,8,1.3016904288278204
undo,44,1,0,0,0,0,[0],1,26,"[1, 2, 4, 5, 7, 8, 9, 10, 11, 12, 13, 14, 15, 16, 17, 18, 19, 20, 21, 22, 23, 24, 25, 26, 28, 29]",300,233,-1,6,74,7,0.0
undo,44,1,0,0,0,8,"[0, 8]",2,23,"[1, 4, 5, 7, 9, 10, 11, 12, 13, 14, 15, 16, 17, 18, 19, 20, 21, 23, 24, 25, 26, 28, 29]",202,5938,5705,1,16,7,1.0
undo,44,1,0,0,0,20,"[0, 8, 20]",3,12,"[1, 4, 5, 11, 13, 14, 15, 17, 18, 19, 28, 29]",125.9408125,10472,4534,1,7,7,1.02364736730791
undo,44,1,0,0,0,5,"[0, 8, 20, 5]",4,7,"[1, 4, 11, 13, 17, 18, 29]",104.469902,12208,1736,1,3,7,1.0439599203945713
undo,44,1,0,0,0,18,"[0, 8, 20, 5, 18]",5,2,"[4, 29]",81.64447755,14604,2396,1,1,7,1.0840407791793756
undo,44,1,0,0,0,4,"[0, 8, 20, 5, 18, 4]",6,1,[29],42.69579336,15947,1343,1,0,7,1.0902329133216275
undo,44,1,0,1,0,4,"[0, 8, 20, 5, 18, 4]",6,1,[29],42.69579336,20995,5048,1,0,7,1.0902329133216275
undo,45,16,0,0,0,0,[0],1,29,"[1, 2, 3, 4, 5, 6, 7, 8, 9, 10, 11, 12, 13, 14, 15, 16, 17, 18, 19, 20, 21, 22, 23, 24, 25, 26, 27, 28, 29]",300,274,-1,13,161,9,0.0
undo,45,16,0,0,0,28,"[0, 28]",2,27,"[1, 2, 3, 4, 5, 7, 8, 9, 10, 11, 12, 13, 14, 15, 16, 17, 18, 19, 20, 21, 22, 23, 24, 25, 26, 27, 29]",284.3475242,2549,2275,11,92,9,1.0
undo,45,16,1,0,0,0,[0],1,29,"[1, 2, 3, 4, 5, 6, 7, 8, 9, 10, 11, 12, 13, 14, 15, 16, 17, 18, 19, 20, 21, 22, 23, 24, 25, 26, 27, 28, 29]",300,4897,2348,13,161,9,0.0
undo,45,16,0,0,0,17,"[0, 17]",2,27,"[1, 2, 3, 4, 5, 7, 8, 9, 10, 11, 12, 13, 14, 15, 16, 18, 19, 20, 21, 22, 23, 24, 25, 26, 27, 28, 29]",241.3058776,6714,1817,2,58,9,1.0
undo,45,16,1,0,0,0,[0],1,29,"[1, 2, 3, 4, 5, 6, 7, 8, 9, 10, 11, 12, 13, 14, 15, 16, 17, 18, 19, 20, 21, 22, 23, 24, 25, 26, 27, 28, 29]",300,9580,2866,13,161,9,0.0
undo,45,16,0,0,0,17,"[0, 17]",2,27,"[1, 2, 3, 4, 5, 7, 8, 9, 10, 11, 12, 13, 14, 15, 16, 18, 19, 20, 21, 22, 23, 24, 25, 26, 27, 28, 29]",241.3058776,12254,2674,2,58,9,1.0
undo,45,16,0,0,0,16,"[0, 17, 16]",3,26,"[1, 2, 3, 4, 5, 7, 8, 9, 10, 11, 12, 13, 14, 15, 18, 19, 20, 21, 22, 23, 24, 25, 26, 27, 28, 29]",212.9862731,13836,1582,2,52,9,1.0529535521792848
undo,45,16,0,0,0,8,"[0, 17, 16, 8]",4,19,"[2, 3, 4, 5, 9, 12, 13, 14, 15, 19, 20, 21, 22, 23, 25, 26, 27, 28, 29]",164.6127266,15395,1559,2,38,9,1.0915134501573105
undo,45,16,0,0,0,20,"[0, 17, 16, 8, 20]",5,10,"[3, 4, 5, 9, 12, 13, 15, 19, 21, 25]",106.8372993,21130,5735,1,15,9,1.067523143001942
undo,45,16,0,0,0,25,"[0, 17, 16, 8, 20, 25]",6,7,"[3, 4, 5, 9, 12, 13, 15]",94.18818869,23103,1973,1,9,9,1.1170093326933646
undo,45,16,0,0,0,9,"[0, 17, 16, 8, 20, 25, 9]",7,5,"[3, 4, 5, 13, 15]",81.38194021,24597,1494,1,4,9,1.1095076562662525
undo,45,16,0,0,0,15,"[0, 17, 16, 8, 20, 25, 9, 15]",8,1,[5],42.48463953,26519,1922,1,0,9,1.213831159678775
undo,45,16,0,0,1,5,"[0, 17, 16, 8, 20, 25, 9, 15, 5]",9,0,[],13.0567616,29212,2693,1,0,9,1.5171779607523481
undo,45,16,1,0,0,15,"[0, 17, 16, 8, 20, 25, 9, 15]",8,1,[5],42.48463953,29994,782,1,0,9,1.213831159678775
undo,45,16,0,1,0,15,"[0, 17, 16, 8, 20, 25, 9, 15]",8,1,[5],42.48463953,32044,2050,1,0,9,1.213831159678775
undo,46,5,0,0,0,0,[0],1,29,"[1, 2, 3, 4, 5, 6, 7, 8, 9, 10, 11, 12, 13, 14, 15, 16, 17, 18, 19, 20, 21, 22, 23, 24, 25, 26, 27, 28, 29]",300,231,-1,5,139,9,0.0
undo,46,5,0,0,0,23,"[0, 23]",2,27,"[1, 2, 3, 4, 5, 6, 7, 8, 9, 10, 11, 12, 13, 14, 15, 16, 17, 18, 19, 20, 21, 22, 24, 25, 26, 27, 28]",249.8402552,6153,5922,3,75,9,1.0
undo,46,5,0,0,0,24,"[0, 23, 24]",3,24,"[1, 2, 3, 4, 5, 6, 8, 9, 10, 11, 12, 13, 14, 15, 16, 17, 18, 19, 21, 22, 25, 26, 27, 28]",226.7534624,9934,3781,20,147,8,1.0113799830159869
undo,46,5,0,0,0,17,"[0, 23, 24, 17]",4,18,"[2, 4, 5, 6, 8, 9, 10, 12, 13, 14, 15, 18, 19, 22, 25, 26, 27, 28]",191.7677511,11589,1655,6,49,8,1.0136434296829369
undo,46,5,0,0,0,18,"[0, 23, 24, 17, 18]",5,5,"[4, 5, 6, 14, 15]",91.76275118,13334,1745,2,3,7,1.0268838010419847
undo,46,5,0,0,0,4,"[0, 23, 24, 17, 18, 4]",6,1,[6],53.34400575,14783,1449,1,0,7,1.4076025709349211
undo,46,5,0,0,1,6,"[0, 23, 24, 17, 18, 4, 6]",7,0,[],41.30241118,16357,1574,1,0,7,1.549087358203593
undo,46,5,1,0,0,4,"[0, 23, 24, 17, 18, 4]",6,1,[6],53.34400575,18886,2529,1,0,7,1.4076025709349211
undo,46,5,0,1,0,4,"[0, 23, 24, 17, 18, 4]",6,1,[6],53.34400575,22482,3596,1,0,7,1.4076025709349211
undo,47,30,0,0,0,0,[0],1,19,"[3, 4, 5, 7, 9, 11, 16, 17, 18, 19, 20, 21, 22, 24, 25, 26, 27, 28, 29]",300,221,-1,5,41,8,0.0
undo,47,30,0,0,0,26,"[0, 26]",2,15,"[3, 5, 9, 11, 16, 17, 18, 19, 20, 21, 22, 25, 27, 28, 29]",208.2939479,10983,10762,5,27,6,1.0
undo,47,30,0,0,0,11,"[0, 26, 11]",3,7,"[9, 16, 17, 20, 21, 22, 25]",117.0744324,12716,1733,4,4,5,1.0265545436811434
undo,47,30,0,0,0,22,"[0, 26, 11, 22]",4,1,[17],41.27205777,14394,1678,1,0,5,1.2963486694299937
undo,47,30,0,0,1,17,"[0, 26, 11, 22, 17]",5,0,[],22.0366737,15787,1393,1,0,5,1.4738445247148226
undo,47,30,1,0,0,22,"[0, 26, 11, 22]",4,1,[17],41.27205777,17608,1821,1,0,5,1.2963486694299937
undo,47,30,1,0,0,11,"[0, 26, 11]",3,7,"[9, 16, 17, 20, 21, 22, 25]",117.0744324,18030,422,4,4,5,1.0265545436811434
undo,47,30,0,0,0,9,"[0, 26, 11, 9]",4,2,"[20, 25]",60.5589478,19837,1807,2,0,5,1.1792836575240968
undo,47,30,0,0,1,20,"[0, 26, 11, 9, 20]",5,0,[],10.62899686,21805,1968,1,0,5,1.4462404940481428
undo,47,30,1,0,0,9,"[0, 26, 11, 9]",4,2,"[20, 25]",60.5589478,22478,673,2,0,5,1.1792836575240968
undo,47,30,1,0,0,11,"[0, 26, 11]",3,7,"[9, 16, 17, 20, 21, 22, 25]",117.0744324,22947,469,4,4,5,1.0265545436811434
undo,47,30,1,0,0,26,"[0, 26]",2,15,"[3, 5, 9, 11, 16, 17, 18, 19, 20, 21, 22, 25, 27, 28, 29]",208.2939479,24535,1588,5,27,6,1.0
undo,47,30,1,0,0,0,[0],1,19,"[3, 4, 5, 7, 9, 11, 16, 17, 18, 19, 20, 21, 22, 24, 25, 26, 27, 28, 29]",300,27781,3246,5,41,8,0.0
undo,47,30,0,0,0,25,"[0, 25]",2,12,"[3, 5, 7, 9, 11, 16, 18, 19, 20, 24, 27, 29]",121.1005869,28862,1081,7,37,7,1.0
undo,47,30,0,0,0,27,"[0, 25, 27]",3,8,"[3, 5, 7, 18, 19, 20, 24, 29]",81.54050603,33111,4249,2,17,7,1.0432445497342653
undo,47,30,0,0,0,3,"[0, 25, 27, 3]",4,5,"[5, 7, 18, 20, 29]",62.43553286,34850,1739,2,6,7,1.0419393955972533
undo,47,30,0,0,0,18,"[0, 25, 27, 3, 18]",5,3,"[5, 7, 29]",44.18724527,36373,1523,3,0,6,1.0473579399266177
undo,47,30,0,0,1,5,"[0, 25, 27, 3, 18, 5]",6,0,[],31.14884046,37678,1305,1,0,6,1.1118098368956684
undo,47,30,1,0,0,18,"[0, 25, 27, 3, 18]",5,3,"[5, 7, 29]",44.18724527,38584,906,3,0,6,1.0473579399266177
undo,47,30,0,0,1,5,"[0, 25, 27, 3, 18, 5]",6,0,[],31.14884046,39699,1115,1,0,6,1.1118098368956684
undo,47,30,1,0,0,18,"[0, 25, 27, 3, 18]",5,3,"[5, 7, 29]",44.18724527,40843,1144,3,0,6,1.0473579399266177
undo,47,30,0,1,0,18,"[0, 25, 27, 3, 18]",5,3,"[5, 7, 29]",44.18724527,43001,2158,3,0,6,1.0473579399266177
undo,48,8,0,0,0,0,[0],1,29,"[1, 2, 3, 4, 5, 6, 7, 8, 9, 10, 11, 12, 13, 14, 15, 16, 17, 18, 19, 20, 21, 22, 23, 24, 25, 26, 27, 28, 29]",300,235,-1,10,149,9,0.0
undo,48,8,0,0,0,5,"[0, 5]",2,28,"[1, 2, 3, 4, 6, 7, 8, 9, 10, 11, 12, 13, 14, 15, 16, 17, 18, 19, 20, 21, 22, 23, 24, 25, 26, 27, 28, 29]",254.5137383,3452,3217,10,100,9,1.0
undo,48,8,0,0,0,25,"[0, 5, 25]",3,20,"[1, 2, 3, 4, 6, 11, 12, 14, 15, 16, 17, 18, 19, 20, 21, 22, 23, 24, 28, 29]",215.3091468,5169,1717,4,42,9,1.2272747879909065
undo,48,8,0,0,0,1,"[0, 5, 25, 1]",4,17,"[3, 4, 6, 11, 12, 14, 15, 16, 17, 18, 20, 21, 22, 23, 24, 28, 29]",190.3091468,6415,1246,3,24,9,1.1770245007593956
undo,48,8,0,0,0,23,"[0, 5, 25, 1, 23]",5,15,"[3, 4, 6, 11, 14, 15, 16, 17, 18, 20, 21, 22, 24, 28, 29]",167.2874179,7628,1213,1,14,9,1.141996583852372
undo,48,8,1,0,0,1,"[0, 5, 25, 1]",4,17,"[3, 4, 6, 11, 12, 14, 15, 16, 17, 18, 20, 21, 22, 23, 24, 28, 29]",190.3091468,11032,3404,3,24,9,1.1770245007593956
undo,48,8,1,0,0,25,"[0, 5, 25]",3,20,"[1, 2, 3, 4, 6, 11, 12, 14, 15, 16, 17, 18, 19, 20, 21, 22, 23, 24, 28, 29]",215.3091468,12754,1722,4,42,9,1.2272747879909065
undo,48,8,0,0,0,14,"[0, 5, 25, 14]",4,16,"[1, 3, 4, 6, 11, 15, 16, 17, 18, 19, 20, 21, 22, 23, 24, 28]",170.2092576,13583,829,1,13,9,1.5190857385933465
undo,48,8,0,0,0,17,"[0, 5, 25, 14, 17]",5,9,"[1, 4, 11, 15, 16, 18, 23, 24, 28]",133.1957466,14889,1306,1,9,9,1.5271682935559303
undo,48,8,0,0,0,11,"[0, 5, 25, 14, 17, 11]",6,5,"[15, 16, 18, 24, 28]",108.01639,17550,2661,1,6,9,1.4664212485560129
undo,48,8,0,0,0,24,"[0, 5, 25, 14, 17, 11, 24]",7,2,"[15, 16]",70.80080183,18983,1433,1,1,9,1.3920548417170795
undo,48,8,0,0,0,15,"[0, 5, 25, 14, 17, 11, 24, 15]",8,1,[16],54.03774722,20723,1740,1,0,9,1.4585932832823736
undo,48,8,0,1,0,15,"[0, 5, 25, 14, 17, 11, 24, 15]",8,1,[16],54.03774722,22085,1362,1,0,9,1.4585932832823736
undo,49,19,0,0,0,0,[0],1,29,"[1, 2, 3, 4, 5, 6, 7, 8, 9, 10, 11, 12, 13, 14, 15, 16, 17, 18, 19, 20, 21, 22, 23, 24, 25, 26, 27, 28, 29]",300,187,-1,12,149,8,0.0
undo,49,19,0,0,0,29,"[0, 29]",2,28,"[1, 2, 3, 4, 5, 6, 7, 8, 9, 10, 11, 12, 13, 14, 15, 16, 17, 18, 19, 20, 21, 22, 23, 24, 25, 26, 27, 28]",265.0715016,7114,6927,12,120,8,1.0
undo,49,19,0,0,0,9,"[0, 29, 9]",3,17,"[1, 4, 5, 6, 7, 10, 11, 12, 13, 14, 19, 20, 21, 22, 24, 27, 28]",181.7108394,8951,1837,11,65,8,1.0375842971861238
undo,49,19,0,0,0,6,"[0, 29, 9, 6]",4,12,"[4, 7, 10, 11, 13, 14, 20, 21, 22, 24, 27, 28]",140.2741407,9957,1006,11,34,8,1.0389786364356892
undo,49,19,0,0,0,22,"[0, 29, 9, 6, 22]",5,7,"[4, 7, 10, 11, 14, 20, 24]",79.27414071,14236,4279,2,4,8,1.0360889604738772
undo,49,19,0,0,0,20,"[0, 29, 9, 6, 22, 20]",6,4,"[10, 11, 14, 24]",66.12119427,15374,1138,2,2,8,1.0344974630090689
undo,49,19,0,0,1,24,"[0, 29, 9, 6, 22, 20, 24]",7,0,[],27.2882186,16829,1455,1,0,7,1.0508519843483526
undo,49,19,1,0,0,20,"[0, 29, 9, 6, 22, 20]",6,4,"[10, 11, 14, 24]",66.12119427,18225,1396,2,2,8,1.0344974630090689
undo,49,19,1,0,0,22,"[0, 29, 9, 6, 22]",5,7,"[4, 7, 10, 11, 14, 20, 24]",79.27414071,19024,799,2,4,8,1.0360889604738772
undo,49,19,0,0,0,14,"[0, 29, 9, 6, 22, 14]",6,1,[11],36.32067752,22821,3797,1,0,7,1.2608876889671676
undo,49,19,0,0,1,11,"[0, 29, 9, 6, 22, 14, 11]",7,0,[],25.50402369,23653,832,1,0,7,1.2519453463212202
undo,49,19,1,0,0,14,"[0, 29, 9, 6, 22, 14]",6,1,[11],36.32067752,24482,829,1,0,7,1.2608876889671676
undo,49,19,1,0,0,22,"[0, 29, 9, 6, 22]",5,7,"[4, 7, 10, 11, 14, 20, 24]",79.27414071,28390,3908,2,4,8,1.0360889604738772
undo,49,19,1,0,0,6,"[0, 29, 9, 6]",4,12,"[4, 7, 10, 11, 13, 14, 20, 21, 22, 24, 27, 28]",140.2741407,29179,789,11,34,8,1.0389786364356892
undo,49,19,0,0,0,4,"[0, 29, 9, 6, 4]",5,7,"[10, 11, 14, 20, 22, 27, 28]",99.22538921,33408,4229,2,6,8,1.2182485830176533
undo,49,19,0,0,0,14,"[0, 29, 9, 6, 4, 14]",6,3,"[11, 20, 22]",49.21539021,34957,1549,3,0,7,1.1992264850067285
undo,49,19,0,0,1,11,"[0, 29, 9, 6, 4, 14, 11]",7,0,[],38.39873638,36080,1123,1,0,7,1.1931340086782847
undo,49,19,1,0,0,14,"[0, 29, 9, 6, 4, 14]",6,3,"[11, 20, 22]",49.21539021,36855,775,3,0,7,1.1992264850067285
undo,49,19,0,1,0,14,"[0, 29, 9, 6, 4, 14]",6,3,"[11, 20, 22]",49.21539021,38830,1975,3,0,7,1.1992264850067285
undo,50,43,0,0,0,0,[0],1,23,"[1, 2, 3, 4, 5, 6, 7, 9, 10, 11, 12, 14, 15, 16, 17, 19, 20, 21, 22, 23, 25, 27, 29]",300,343,-1,16,556,12,0.0
undo,50,43,0,0,0,29,"[0, 29]",2,22,"[1, 2, 3, 4, 5, 6, 7, 9, 10, 11, 12, 14, 15, 16, 17, 19, 20, 21, 22, 23, 25, 27]",277.909278,2381,2038,16,520,12,1.0
undo,50,43,0,0,0,20,"[0, 29, 20]",3,20,"[1, 2, 3, 4, 6, 7, 9, 10, 11, 12, 14, 15, 16, 17, 19, 21, 22, 23, 25, 27]",254.4785289,3654,1273,15,422,12,1.082311746871282
undo,50,43,0,0,0,16,"[0, 29, 20, 16]",4,19,"[1, 2, 3, 4, 6, 7, 9, 10, 11, 12, 14, 15, 17, 19, 21, 22, 23, 25, 27]",231.8511119,4994,1340,15,389,12,1.215201926898219
undo,50,43,0,0,0,15,"[0, 29, 20, 16, 15]",5,14,"[1, 2, 3, 4, 6, 7, 9, 11, 12, 14, 19, 22, 23, 25]",188.5267539,6734,1740,3,109,12,1.3482474915350444
undo,50,43,0,0,0,25,"[0, 29, 20, 16, 15, 25]",6,12,"[1, 3, 4, 6, 7, 9, 11, 12, 14, 19, 22, 23]",165.8551858,8135,1401,2,43,12,1.691408721191545
undo,50,43,0,0,0,12,"[0, 29, 20, 16, 15, 25, 12]",7,11,"[1, 3, 4, 6, 7, 9, 11, 14, 19, 22, 23]",141.6684126,9360,1225,2,32,12,1.6015983641428178
undo,50,43,0,0,0,3,"[0, 29, 20, 16, 15, 25, 12, 3]",8,10,"[1, 4, 6, 7, 9, 11, 14, 19, 22, 23]",128.6684126,10445,1085,2,24,12,1.5379830456120627
undo,50,43,0,0,0,22,"[0, 29, 20, 16, 15, 25, 12, 3, 22]",9,6,"[1, 6, 7, 11, 14, 19]",93.95530264,11865,1420,1,11,12,1.7275686117408873
undo,50,43,0,0,0,19,"[0, 29, 20, 16, 15, 25, 12, 3, 22, 19]",10,4,"[1, 6, 7, 11]",73.33977451,13294,1429,1,3,12,1.6315360037595275
undo,50,43,0,0,0,1,"[0, 29, 20, 16, 15, 25, 12, 3, 22, 19, 1]",11,1,[7],45.1617689,14877,1583,1,0,12,1.7703076545303877
undo,50,43,0,0,1,7,"[0, 29, 20, 16, 15, 25, 12, 3, 22, 19, 1, 7]",12,0,[],6.951822553,18892,4015,1,0,12,1.6607094905815594
undo,50,43,1,0,0,1,"[0, 29, 20, 16, 15, 25, 12, 3, 22, 19, 1]",11,1,[7],45.1617689,20718,1826,1,0,12,1.7703076545303877
undo,50,43,0,1,0,1,"[0, 29, 20, 16, 15, 25, 12, 3, 22, 19, 1]",11,1,[7],45.1617689,21894,1176,1,0,12,1.7703076545303877
undo,51,29,0,0,0,0,[0],1,29,"[1, 2, 3, 4, 5, 6, 7, 8, 9, 10, 11, 12, 13, 14, 15, 16, 17, 18, 19, 20, 21, 22, 23, 24, 25, 26, 27, 28, 29]",300,287,-1,1,78,9,0.0
undo,51,29,0,0,0,14,"[0, 14]",2,22,"[1, 3, 4, 5, 6, 7, 9, 10, 11, 12, 13, 15, 16, 17, 21, 22, 23, 25, 26, 27, 28, 29]",209.490332,5548,5261,21,110,8,1.0
undo,51,29,0,0,0,13,"[0, 14, 13]",3,18,"[1, 4, 5, 6, 7, 9, 10, 12, 15, 16, 17, 21, 22, 25, 26, 27, 28, 29]",191.4625756,6779,1231,20,75,8,1.0027006502223275
undo,51,29,0,0,0,5,"[0, 14, 13, 5]",4,15,"[1, 4, 6, 7, 9, 12, 15, 17, 21, 22, 25, 26, 27, 28, 29]",165.7526554,7878,1099,19,49,8,1.0803937325657265
undo,51,29,0,0,0,22,"[0, 14, 13, 5, 22]",5,9,"[4, 6, 7, 9, 12, 26, 27, 28, 29]",111.4111427,9049,1171,7,11,8,1.6123417790752979
undo,51,29,0,0,0,27,"[0, 14, 13, 5, 22, 27]",6,5,"[6, 7, 12, 26, 28]",78.16960241,10123,1074,3,3,8,2.047500445885662
undo,51,29,0,0,0,28,"[0, 14, 13, 5, 22, 27, 28]",7,2,"[6, 26]",57.65131788,11982,1859,2,0,8,2.496318429266821
undo,51,29,0,0,1,6,"[0, 14, 13, 5, 22, 27, 28, 6]",8,0,[],16.42026163,13718,1736,1,0,8,3.961213610880374
undo,51,29,1,0,0,28,"[0, 14, 13, 5, 22, 27, 28]",7,2,"[6, 26]",57.65131788,15178,1460,2,0,8,2.496318429266821
undo,51,29,0,1,0,28,"[0, 14, 13, 5, 22, 27, 28]",7,2,"[6, 26]",57.65131788,21585,6407,2,0,8,2.496318429266821
undo,52,41,0,0,0,0,[0],1,29,"[1, 2, 3, 4, 5, 6, 7, 8, 9, 10, 11, 12, 13, 14, 15, 16, 17, 18, 19, 20, 21, 22, 23, 24, 25, 26, 27, 28, 29]",300,177,-1,1,143,10,0.0
undo,52,41,0,0,0,21,"[0, 21]",2,28,"[1, 2, 3, 4, 5, 6, 7, 8, 9, 10, 11, 12, 13, 14, 15, 16, 17, 18, 19, 20, 22, 23, 24, 25, 26, 27, 28, 29]",251.1226024,11706,11529,50,469,8,1.0
undo,52,41,0,0,0,2,"[0, 21, 2]",3,20,"[1, 3, 5, 6, 9, 10, 12, 13, 14, 15, 17, 19, 20, 22, 24, 25, 26, 27, 28, 29]",190.1226024,13825,2119,5,51,8,1.2144300212404848
undo,52,41,0,0,0,9,"[0, 21, 2, 9]",4,19,"[1, 3, 5, 6, 10, 12, 13, 14, 15, 17, 19, 20, 22, 24, 25, 26, 27, 28, 29]",178.0395564,15597,1772,5,34,8,1.4820420314070628
undo,52,41,0,0,0,17,"[0, 21, 2, 9, 17]",5,15,"[1, 3, 5, 10, 12, 13, 14, 15, 19, 22, 24, 25, 26, 27, 28]",147.0234315,17337,1740,3,16,8,2.4133479875926143
undo,52,41,0,0,0,10,"[0, 21, 2, 9, 17, 10]",6,3,"[1, 24, 27]",97.77914254,18861,1524,3,0,7,2.3903441825695317
undo,52,41,0,0,1,24,"[0, 21, 2, 9, 17, 10, 24]",7,0,[],48.53485353,20780,1919,1,0,7,1.948230333899019
undo,52,41,1,0,0,10,"[0, 21, 2, 9, 17, 10]",6,3,"[1, 24, 27]",97.77914254,22496,1716,3,0,7,2.3903441825695317
undo,52,41,0,1,0,10,"[0, 21, 2, 9, 17, 10]",6,3,"[1, 24, 27]",97.77914254,26328,3832,3,0,7,2.3903441825695317
undo,53,4,0,0,0,0,[0],1,26,"[3, 4, 5, 6, 7, 8, 10, 11, 12, 13, 14, 15, 16, 17, 18, 19, 20, 21, 22, 23, 24, 25, 26, 27, 28, 29]",300,177,-1,4,489,10,0.0
undo,53,4,0,0,0,13,"[0, 13]",2,23,"[3, 4, 5, 6, 7, 10, 11, 12, 14, 15, 16, 17, 19, 20, 21, 22, 23, 24, 25, 26, 27, 28, 29]",232.1030192,5792,5615,2,270,10,1.0
undo,53,4,0,0,0,4,"[0, 13, 4]",3,21,"[3, 5, 6, 10, 11, 12, 14, 15, 16, 17, 19, 20, 21, 22, 23, 24, 25, 26, 27, 28, 29]",196.0336416,7027,1235,5,140,9,1.1054622425974667
undo,53,4,0,0,0,21,"[0, 13, 4, 21]",4,12,"[3, 5, 11, 12, 14, 16, 17, 20, 22, 24, 25, 28]",122.3722542,10106,3079,3,41,9,1.2018071400314605
undo,53,4,0,0,0,22,"[0, 13, 4, 21, 22]",5,11,"[3, 5, 11, 12, 14, 16, 17, 20, 24, 25, 28]",111.3268932,10991,885,3,24,9,1.189166080366007
undo,53,4,0,0,0,20,"[0, 13, 4, 21, 22, 20]",6,7,"[3, 5, 11, 16, 17, 24, 25]",81.09446024,12337,1346,5,4,8,1.1979951122629293
undo,53,4,0,0,0,5,"[0, 13, 4, 21, 22, 20, 5]",7,1,[24],50.68064759,13767,1430,1,0,8,1.2628014525741733
undo,53,4,0,0,1,24,"[0, 13, 4, 21, 22, 20, 5, 24]",8,0,[],11.05742208,15389,1622,1,0,8,1.2333790817561787
undo,53,4,1,0,0,5,"[0, 13, 4, 21, 22, 20, 5]",7,1,[24],50.68064759,16652,1263,1,0,8,1.2628014525741733
undo,53,4,0,1,0,5,"[0, 13, 4, 21, 22, 20, 5]",7,1,[24],50.68064759,17793,1141,1,0,8,1.2628014525741733
undo,54,12,0,0,0,0,[0],1,29,"[1, 2, 3, 4, 5, 6, 7, 8, 9, 10, 11, 12, 13, 14, 15, 16, 17, 18, 19, 20, 21, 22, 23, 24, 25, 26, 27, 28, 29]",300,194,-1,2,32,9,0.0
undo,54,12,0,0,0,22,"[0, 22]",2,22,"[2, 4, 5, 6, 7, 9, 10, 12, 13, 14, 15, 16, 17, 18, 19, 21, 23, 24, 25, 27, 28, 29]",211.9943184,3405,3211,6,42,8,1.0
undo,54,12,0,0,0,16,"[0, 22, 16]",3,12,"[2, 4, 5, 6, 7, 12, 14, 19, 23, 24, 25, 27]",190.9943184,4576,1171,6,24,8,1.2017164145167045
undo,54,12,0,0,0,4,"[0, 22, 16, 4]",4,9,"[2, 6, 7, 12, 14, 19, 24, 25, 27]",156.7890556,6525,1949,6,14,8,1.146531713305579
undo,54,12,0,0,0,12,"[0, 22, 16, 4, 12]",5,4,"[14, 19, 24, 27]",114.5990094,8407,1882,4,3,8,1.1221389456954312
undo,54,12,0,0,0,27,"[0, 22, 16, 4, 12, 27]",6,3,"[14, 19, 24]",90.24741807,9560,1153,2,1,8,1.2262878338287035
undo,54,12,0,0,0,14,"[0, 22, 16, 4, 12, 27, 14]",7,1,[24],61.59432051,10798,1238,1,0,8,1.2804562106751427
undo,54,12,0,0,1,24,"[0, 22, 16, 4, 12, 27, 14, 24]",8,0,[],44.38966997,12424,1626,1,0,8,1.4322660007679802
undo,54,12,1,0,0,14,"[0, 22, 16, 4, 12, 27, 14]",7,1,[24],61.59432051,14584,2160,1,0,8,1.2804562106751427
undo,54,12,0,1,0,14,"[0, 22, 16, 4, 12, 27, 14]",7,1,[24],61.59432051,15789,1205,1,0,8,1.2804562106751427
undo,55,33,0,0,0,0,[0],1,23,"[1, 2, 5, 7, 8, 11, 12, 13, 14, 15, 16, 17, 18, 19, 20, 21, 23, 24, 25, 26, 27, 28, 29]",300,280,-1,5,108,9,0.0
undo,55,33,0,0,0,21,"[0, 21]",2,17,"[2, 5, 7, 8, 11, 13, 14, 16, 17, 18, 19, 20, 24, 26, 27, 28, 29]",174.4611614,3540,3260,21,129,8,1.0
undo,55,33,0,0,0,13,"[0, 21, 13]",3,15,"[2, 5, 7, 8, 11, 14, 16, 17, 18, 19, 20, 24, 26, 28, 29]",148.0604038,5916,2376,17,72,8,1.0001005298764474
undo,55,33,0,0,0,19,"[0, 21, 13, 19]",4,11,"[7, 11, 14, 16, 17, 18, 20, 24, 26, 28, 29]",122.5653063,7354,1438,10,27,8,1.0588446738393702
undo,55,33,0,0,0,24,"[0, 21, 13, 19, 24]",5,7,"[7, 14, 16, 18, 26, 28, 29]",80.51771417,8925,1571,3,5,8,1.078006777679028
undo,55,33,0,0,0,7,"[0, 21, 13, 19, 24, 7]",6,3,"[14, 26, 29]",51.31155044,10632,1707,3,1,8,1.1669985062633954
undo,55,33,0,0,0,14,"[0, 21, 13, 19, 24, 7, 14]",7,2,"[26, 29]",36.44548169,12117,1485,2,0,8,1.2148465775488593
undo,55,33,0,0,1,26,"[0, 21, 13, 19, 24, 7, 14, 26]",8,0,[],23.79637105,13441,1324,1,0,8,1.2208379656544521
undo,55,33,1,0,0,14,"[0, 21, 13, 19, 24, 7, 14]",7,2,"[26, 29]",36.44548169,15002,1561,2,0,8,1.2148465775488593
undo,55,33,0,1,0,14,"[0, 21, 13, 19, 24, 7, 14]",7,2,"[26, 29]",36.44548169,15993,991,2,0,8,1.2148465775488593
undo,56,3,0,0,0,0,[0],1,29,"[1, 2, 3, 4, 5, 6, 7, 8, 9, 10, 11, 12, 13, 14, 15, 16, 17, 18, 19, 20, 21, 22, 23, 24, 25, 26, 27, 28, 29]",300,213,-1,34,427,10,0.0
undo,56,3,0,0,0,17,"[0, 17]",2,16,"[3, 4, 7, 8, 10, 12, 14, 15, 16, 19, 20, 21, 22, 24, 26, 27]",197.6965299,8425,8212,2,27,9,1.0
undo,56,3,0,0,0,20,"[0, 17, 20]",3,13,"[3, 4, 7, 8, 10, 14, 15, 16, 19, 21, 22, 24, 27]",185.0474192,9546,1121,2,24,9,1.0153332121237257
undo,56,3,0,0,0,3,"[0, 17, 20, 3]",4,10,"[4, 7, 8, 10, 14, 15, 16, 19, 21, 24]",164.6513412,10635,1089,2,22,9,1.0819240770773468
undo,56,3,0,0,0,19,"[0, 17, 20, 3, 19]",5,6,"[4, 8, 10, 14, 21, 24]",127.3150318,12140,1505,2,11,9,1.1701070532957258
undo,56,3,0,0,0,21,"[0, 17, 20, 3, 19, 21]",6,5,"[4, 8, 10, 14, 24]",115.1084762,12840,700,2,6,9,1.202395500952127
undo,56,3,0,0,0,14,"[0, 17, 20, 3, 19, 21, 14]",7,4,"[4, 8, 10, 24]",88.20122806,16555,3715,2,2,9,1.6456130302761207
undo,56,3,0,0,1,4,"[0, 17, 20, 3, 19, 21, 14, 4]",8,0,[],27.52998281,18194,1639,1,0,8,2.377860409485948
undo,56,3,1,0,0,14,"[0, 17, 20, 3, 19, 21, 14]",7,4,"[4, 8, 10, 24]",88.20122806,19908,1714,2,2,9,1.6456130302761207
undo,56,3,0,0,1,10,"[0, 17, 20, 3, 19, 21, 14, 10]",8,0,[],42.74795535,22119,2211,1,0,8,1.6337827075255185
undo,56,3,1,0,0,14,"[0, 17, 20, 3, 19, 21, 14]",7,4,"[4, 8, 10, 24]",88.20122806,24105,1986,2,2,9,1.6456130302761207
undo,56,3,1,0,0,21,"[0, 17, 20, 3, 19, 21]",6,5,"[4, 8, 10, 14, 24]",115.1084762,26746,2641,2,6,9,1.202395500952127
undo,56,3,1,0,0,19,"[0, 17, 20, 3, 19]",5,6,"[4, 8, 10, 14, 21, 24]",127.3150318,27701,955,2,11,9,1.1701070532957258
undo,56,3,0,0,0,14,"[0, 17, 20, 3, 19, 14]",6,5,"[4, 8, 10, 21, 24]",100.3892077,30253,2552,5,1,8,1.5509160784259661
undo,56,3,0,0,0,10,"[0, 17, 20, 3, 19, 14, 10]",7,2,"[4, 21]",54.93593503,32946,2693,2,0,8,1.5563780343461544
undo,56,3,0,1,0,10,"[0, 17, 20, 3, 19, 14, 10]",7,2,"[4, 21]",54.93593503,36180,3234,2,0,8,1.5563780343461544
undo,57,20,0,0,0,0,[0],1,21,"[1, 2, 3, 4, 5, 6, 7, 8, 9, 12, 17, 18, 20, 21, 22, 23, 25, 26, 27, 28, 29]",300,185,-1,1,9,9,0.0
undo,57,20,0,0,0,12,"[0, 12]",2,20,"[1, 2, 3, 4, 5, 6, 7, 8, 9, 17, 18, 20, 21, 22, 23, 25, 26, 27, 28, 29]",271.5570747,3673,3488,1,8,9,1.0
undo,57,20,0,0,0,1,"[0, 12, 1]",3,12,"[3, 4, 5, 6, 8, 9, 20, 21, 23, 27, 28, 29]",189.5692707,5491,1818,1,6,9,1.0757997779162911
undo,57,20,0,0,0,5,"[0, 12, 1, 5]",4,10,"[4, 6, 8, 9, 20, 21, 23, 27, 28, 29]",152.8950291,7585,2094,1,5,9,1.1708231454516806
undo,57,20,0,0,0,21,"[0, 12, 1, 5, 21]",5,8,"[4, 6, 8, 9, 20, 23, 27, 28]",107.8950291,9470,1885,1,4,9,1.126197336199212
undo,57,20,0,0,0,8,"[0, 12, 1, 5, 21, 8]",6,5,"[6, 9, 23, 27, 28]",90.43077988,11385,1915,1,3,9,1.140007470699913
undo,57,20,0,0,1,28,"[0, 12, 1, 5, 21, 8, 28]",7,0,[],47.24513412,12971,1586,1,0,7,1.316913949755462
undo,57,20,1,0,0,8,"[0, 12, 1, 5, 21, 8]",6,5,"[6, 9, 23, 27, 28]",90.43077988,14647,1676,1,3,9,1.140007470699913
undo,57,20,0,1,0,8,"[0, 12, 1, 5, 21, 8]",6,5,"[6, 9, 23, 27, 28]",90.43077988,15707,1060,1,3,9,1.140007470699913
undo,58,14,0,0,0,0,[0],1,29,"[1, 2, 3, 4, 5, 6, 7, 8, 9, 10, 11, 12, 13, 14, 15, 16, 17, 18, 19, 20, 21, 22, 23, 24, 25, 26, 27, 28, 29]",300,331,-1,8,157,10,0.0
undo,58,14,0,0,0,18,"[0, 18]",2,17,"[1, 2, 3, 4, 7, 8, 9, 13, 15, 17, 19, 20, 22, 23, 25, 26, 28]",179.8958785,6100,5769,18,136,9,1.0
undo,58,14,0,0,0,8,"[0, 18, 8]",3,13,"[1, 2, 4, 7, 13, 15, 17, 19, 20, 23, 25, 26, 28]",166.294408,7134,1034,18,99,9,1.0203858410107731
undo,58,14,0,0,0,1,"[0, 18, 8, 1]",4,10,"[2, 4, 7, 15, 17, 19, 23, 25, 26, 28]",142.6935606,8046,912,11,42,9,1.0173392374431458
undo,58,14,0,0,0,19,"[0, 18, 8, 1, 19]",5,9,"[2, 4, 7, 15, 17, 23, 25, 26, 28]",127.4620143,9063,1017,11,22,9,1.1668364376922102
undo,58,14,0,0,0,25,"[0, 18, 8, 1, 19, 25]",6,5,"[2, 4, 7, 23, 26]",91.61511768,10939,1876,5,7,9,1.273103293863789
undo,58,14,0,0,0,7,"[0, 18, 8, 1, 19, 25, 7]",7,4,"[2, 4, 23, 26]",71.91740208,14917,3978,2,2,9,1.3059971565497175
undo,58,14,0,0,1,4,"[0, 18, 8, 1, 19, 25, 7, 4]",8,0,[],36.18226531,18412,3495,1,0,8,1.2576302477979833
undo,58,14,1,0,0,7,"[0, 18, 8, 1, 19, 25, 7]",7,4,"[2, 4, 23, 26]",71.91740208,20110,1698,2,2,9,1.3059971565497175
undo,58,14,1,0,0,25,"[0, 18, 8, 1, 19, 25]",6,5,"[2, 4, 7, 23, 26]",91.61511768,20614,504,5,7,9,1.273103293863789
undo,58,14,0,0,0,23,"[0, 18, 8, 1, 19, 25, 23]",7,3,"[4, 7, 26]",62.20423534,21710,1096,2,2,9,1.2650679654635444
undo,58,14,0,0,0,26,"[0, 18, 8, 1, 19, 25, 23, 26]",8,2,"[4, 7]",51.38758152,23231,1521,2,0,9,1.2530957004441798
undo,58,14,0,1,0,26,"[0, 18, 8, 1, 19, 25, 23, 26]",8,2,"[4, 7]",51.38758152,24551,1320,2,0,9,1.2530957004441798
undo,59,27,0,0,0,0,[0],1,26,"[1, 3, 5, 6, 7, 8, 9, 10, 11, 12, 13, 14, 15, 16, 17, 18, 19, 21, 22, 23, 24, 25, 26, 27, 28, 29]",300,200,-1,13,578,11,0.0
undo,59,27,0,0,0,15,"[0, 15]",2,24,"[1, 3, 5, 6, 7, 8, 9, 10, 11, 12, 13, 14, 16, 17, 18, 19, 21, 22, 23, 24, 25, 26, 27, 29]",263.7508621,6714,6514,6,219,11,1.0
undo,59,27,0,0,0,24,"[0, 15, 24]",3,20,"[1, 5, 6, 7, 8, 9, 10, 12, 13, 14, 16, 17, 18, 19, 21, 23, 25, 26, 27, 29]",246.5462115,8287,1573,6,130,11,1.130933077698322
undo,59,27,0,0,0,17,"[0, 15, 24, 17]",4,15,"[1, 6, 8, 10, 12, 13, 14, 16, 18, 19, 23, 25, 26, 27, 29]",229.9932662,9124,837,4,60,11,1.1285538435963374
undo,59,27,0,0,0,12,"[0, 15, 24, 17, 12]",5,14,"[1, 6, 8, 10, 13, 14, 16, 18, 19, 23, 25, 26, 27, 29]",218.8129263,10011,887,2,32,11,1.2561880288755216
undo,59,27,0,0,0,10,"[0, 15, 24, 17, 12, 10]",6,11,"[1, 8, 13, 14, 18, 19, 23, 25, 26, 27, 29]",207.7675653,10735,724,2,28,11,1.2228289337766665
undo,59,27,0,0,0,13,"[0, 15, 24, 17, 12, 10, 13]",7,9,"[1, 8, 14, 18, 19, 23, 26, 27, 29]",167.9178476,13740,3005,2,18,11,1.3421291994761178
undo,59,27,0,0,0,19,"[0, 15, 24, 17, 12, 10, 13, 19]",8,5,"[1, 8, 14, 23, 29]",131.6825057,15662,1922,2,6,11,1.294749956153846
undo,59,27,0,0,0,8,"[0, 15, 24, 17, 12, 10, 13, 19, 8]",9,3,"[14, 23, 29]",116.816437,17286,1624,2,1,11,1.3554286578836865
undo,59,27,0,0,0,14,"[0, 15, 24, 17, 12, 10, 13, 19, 8, 14]",10,1,[29],59.25777126,20178,2892,1,0,11,1.312380420632942
undo,59,27,0,0,1,29,"[0, 15, 24, 17, 12, 10, 13, 19, 8, 14, 29]",11,0,[],14.96330208,22696,2518,1,0,11,1.4680136813839417
undo,59,27,1,0,0,14,"[0, 15, 24, 17, 12, 10, 13, 19, 8, 14]",10,1,[29],59.25777126,24202,1506,1,0,11,1.312380420632942
undo,59,27,0,1,0,14,"[0, 15, 24, 17, 12, 10, 13, 19, 8, 14]",10,1,[29],59.25777126,25387,1185,1,0,11,1.312380420632942
undo,60,44,0,0,0,0,[0],1,29,"[1, 2, 3, 4, 5, 6, 7, 8, 9, 10, 11, 12, 13, 14, 15, 16, 17, 18, 19, 20, 21, 22, 23, 24, 25, 26, 27, 28, 29]",300,206,-1,13,126,7,0.0
undo,60,44,0,0,0,9,"[0, 9]",2,17,"[2, 4, 5, 7, 8, 10, 11, 12, 13, 14, 20, 22, 23, 24, 25, 26, 28]",141.32423,4672,4466,3,26,7,1.0
undo,60,44,0,0,0,4,"[0, 9, 4]",3,15,"[2, 5, 7, 8, 10, 11, 12, 14, 20, 22, 23, 24, 25, 26, 28]",121.6265143,6655,1983,3,21,7,1.0155532843148096
undo,60,44,0,0,0,24,"[0, 9, 4, 24]",4,5,"[7, 11, 14, 20, 23]",86.97106745,9840,3185,3,2,6,1.4176434179720834
undo,60,44,0,0,0,11,"[0, 9, 4, 24, 11]",5,1,[14],60.04524341,10994,1154,1,0,6,1.6298957555465912
undo,60,44,0,0,1,14,"[0, 9, 4, 24, 11, 14]",6,0,[],27.84275904,12901,1907,1,0,6,1.5217619331476957
undo,60,44,1,0,0,11,"[0, 9, 4, 24, 11]",5,1,[14],60.04524341,14866,1965,1,0,6,1.6298957555465912
undo,60,44,1,0,0,24,"[0, 9, 4, 24]",4,5,"[7, 11, 14, 20, 23]",86.97106745,15383,517,3,2,6,1.4176434179720834
undo,60,44,1,0,0,4,"[0, 9, 4]",3,15,"[2, 5, 7, 8, 10, 11, 12, 14, 20, 22, 23, 24, 25, 26, 28]",121.6265143,15950,567,3,21,7,1.0155532843148096
undo,60,44,0,0,0,7,"[0, 9, 4, 7]",4,10,"[2, 5, 11, 12, 14, 23, 24, 25, 26, 28]",90.61038951,19141,3191,3,9,7,1.0134022837125412
undo,60,44,0,0,0,23,"[0, 9, 4, 7, 23]",5,7,"[5, 12, 14, 24, 25, 26, 28]",71.50541634,20579,1438,3,4,7,1.043310757564056
undo,60,44,0,0,0,5,"[0, 9, 4, 7, 23, 5]",6,1,[25],24.08179353,22348,1769,1,0,7,1.0875233835918032
undo,60,44,0,0,1,25,"[0, 9, 4, 7, 23, 5, 25]",7,0,[],13.64148702,24748,2400,1,0,7,1.1344779809947538
undo,60,44,1,0,0,5,"[0, 9, 4, 7, 23, 5]",6,1,[25],24.08179353,25471,723,1,0,7,1.0875233835918032
undo,60,44,0,1,0,5,"[0, 9, 4, 7, 23, 5]",6,1,[25],24.08179353,27180,1709,1,0,7,1.0875233835918032
undo,61,10,0,0,0,0,[0],1,29,"[1, 2, 3, 4, 5, 6, 7, 8, 9, 10, 11, 12, 13, 14, 15, 16, 17, 18, 19, 20, 21, 22, 23, 24, 25, 26, 27, 28, 29]",300,298,-1,1,100,9,0.0
undo,61,10,0,0,0,28,"[0, 28]",2,12,"[3, 7, 10, 12, 15, 16, 17, 18, 21, 23, 25, 29]",152.3212947,7698,7400,1,9,6,1.0
undo,61,10,0,0,0,23,"[0, 28, 23]",3,6,"[3, 12, 15, 16, 17, 25]",105.0560855,9035,1337,1,4,6,1.0081253319685164
undo,61,10,0,0,0,25,"[0, 28, 23, 25]",4,3,"[15, 16, 17]",79.7381077,11529,2494,1,2,6,1.0072648112210758
undo,61,10,0,0,0,15,"[0, 28, 23, 25, 15]",5,1,[16],64.44104916,12825,1296,1,0,6,1.0099506696678449
undo,61,10,0,0,1,16,"[0, 28, 23, 25, 15, 16]",6,0,[],21.89695439,14255,1430,1,0,6,1.0196711742515678
undo,61,10,1,0,0,15,"[0, 28, 23, 25, 15]",5,1,[16],64.44104916,16171,1916,1,0,6,1.0099506696678449
undo,61,10,1,0,0,25,"[0, 28, 23, 25]",4,3,"[15, 16, 17]",79.7381077,18710,2539,1,2,6,1.0072648112210758
undo,61,10,1,0,0,23,"[0, 28, 23]",3,6,"[3, 12, 15, 16, 17, 25]",105.0560855,19299,589,1,4,6,1.0081253319685164
undo,61,10,1,0,0,28,"[0, 28]",2,12,"[3, 7, 10, 12, 15, 16, 17, 18, 21, 23, 25, 29]",152.3212947,19862,563,1,9,6,1.0
undo,61,10,1,0,0,0,[0],1,29,"[1, 2, 3, 4, 5, 6, 7, 8, 9, 10, 11, 12, 13, 14, 15, 16, 17, 18, 19, 20, 21, 22, 23, 24, 25, 26, 27, 28, 29]",300,21033,1171,1,100,9,0.0
undo,61,10,0,0,0,13,"[0, 13]",2,25,"[1, 2, 3, 4, 6, 7, 8, 9, 10, 11, 12, 14, 17, 18, 19, 20, 21, 22, 23, 24, 25, 26, 27, 28, 29]",249.4628849,23603,2570,1,79,9,1.0
undo,61,10,0,0,0,11,"[0, 13, 11]",3,20,"[1, 2, 3, 6, 7, 8, 9, 10, 12, 14, 18, 19, 20, 21, 22, 24, 26, 27, 28, 29]",206.4512586,24991,1388,1,54,9,1.0313137484914219
undo,61,10,0,0,0,19,"[0, 13, 11, 19]",4,11,"[2, 6, 8, 9, 10, 14, 18, 20, 24, 26, 27]",170.0919407,26529,1538,1,22,9,1.0879446220132545
undo,61,10,0,0,0,2,"[0, 13, 11, 19, 2]",5,4,"[14, 20, 26, 27]",126.1829439,29456,2927,1,4,9,1.06474052351343
undo,61,10,0,0,0,14,"[0, 13, 11, 19, 2, 14]",6,3,"[20, 26, 27]",114.0174188,32338,2882,1,3,9,1.1628909195912238
undo,61,10,0,0,0,26,"[0, 13, 11, 19, 2, 14, 26]",7,2,"[20, 27]",79.34754716,33690,1352,1,1,9,1.6660727647633602
undo,61,10,0,0,0,20,"[0, 13, 11, 19, 2, 14, 26, 20]",8,1,[27],47.56704999,34925,1235,1,0,9,2.085581809637999
undo,61,10,0,1,0,20,"[0, 13, 11, 19, 2, 14, 26, 20]",8,1,[27],47.56704999,37177,2252,1,0,9,2.085581809637999
undo,62,35,0,0,0,0,[0],1,29,"[1, 2, 3, 4, 5, 6, 7, 8, 9, 10, 11, 12, 13, 14, 15, 16, 17, 18, 19, 20, 21, 22, 23, 24, 25, 26, 27, 28, 29]",300,230,-1,5,236,11,0.0
undo,62,35,0,0,0,24,"[0, 24]",2,27,"[1, 2, 4, 5, 6, 7, 8, 9, 10, 11, 12, 13, 14, 15, 16, 17, 18, 19, 20, 21, 22, 23, 25, 26, 27, 28, 29]",268.9838752,4430,4200,49,512,10,1.0
undo,62,35,0,0,0,1,"[0, 24, 1]",3,26,"[2, 4, 5, 6, 7, 8, 9, 10, 11, 12, 13, 14, 15, 16, 17, 18, 19, 20, 21, 22, 23, 25, 26, 27, 28, 29]",251.8666324,7560,3130,9,159,10,1.0069389618412046
undo,62,35,0,0,0,23,"[0, 24, 1, 23]",4,16,"[2, 4, 5, 6, 9, 11, 15, 17, 18, 19, 20, 25, 26, 27, 28, 29]",193.3431328,8864,1304,42,94,8,1.0031658715426313
undo,62,35,0,0,0,6,"[0, 24, 1, 23, 6]",5,9,"[4, 5, 9, 15, 17, 18, 19, 25, 29]",147.692284,12328,3464,12,14,8,1.007181670982701
undo,62,35,0,0,0,25,"[0, 24, 1, 23, 6, 25]",6,5,"[5, 9, 15, 17, 18]",123.6714597,14237,1909,4,3,8,1.0888419981885376
undo,62,35,0,0,0,18,"[0, 24, 1, 23, 6, 25, 18]",7,3,"[5, 9, 17]",89.83361107,15822,1585,3,0,8,1.6338671921068153
undo,62,35,0,0,1,9,"[0, 24, 1, 23, 6, 25, 18, 9]",8,0,[],69.80862667,17675,1853,1,0,8,2.0477033991022475
undo,62,35,1,0,0,18,"[0, 24, 1, 23, 6, 25, 18]",7,3,"[5, 9, 17]",89.83361107,19707,2032,3,0,8,1.6338671921068153
undo,62,35,0,1,0,18,"[0, 24, 1, 23, 6, 25, 18]",7,3,"[5, 9, 17]",89.83361107,20881,1174,3,0,8,1.6338671921068153
undo,63,15,0,0,0,0,[0],1,25,"[1, 2, 3, 4, 7, 8, 9, 10, 11, 12, 13, 14, 15, 16, 18, 20, 21, 22, 23, 24, 25, 26, 27, 28, 29]",300,207,-1,4,65,9,0.0
undo,63,15,0,0,0,7,"[0, 7]",2,23,"[1, 3, 4, 8, 9, 10, 11, 12, 13, 14, 15, 16, 18, 20, 21, 22, 23, 24, 25, 26, 27, 28, 29]",215.1884442,3356,3149,30,107,8,1.0
undo,63,15,0,0,0,11,"[0, 7, 11]",3,18,"[3, 4, 8, 9, 10, 12, 13, 14, 15, 16, 18, 20, 21, 22, 23, 25, 27, 29]",173.7035072,4384,1028,12,34,8,1.0171318876095128
undo,63,15,0,0,0,3,"[0, 7, 11, 3]",4,13,"[4, 10, 12, 13, 14, 15, 16, 18, 20, 21, 22, 25, 27]",162.3017529,5751,1367,7,21,8,1.0401878806820521
undo,63,15,0,0,0,22,"[0, 7, 11, 3, 22]",5,8,"[4, 10, 13, 14, 15, 16, 18, 25]",112.5724859,7712,1961,2,7,8,1.08637659765556
undo,63,15,0,0,0,13,"[0, 7, 11, 3, 22, 13]",6,4,"[14, 15, 18, 25]",84.41223019,8979,1267,1,3,8,1.07611101267101
undo,63,15,0,0,0,15,"[0, 7, 11, 3, 22, 13, 15]",7,1,[14],69.14789267,10168,1189,1,0,8,1.175539361450856
undo,63,15,0,1,0,15,"[0, 7, 11, 3, 22, 13, 15]",7,1,[14],69.14789267,11864,1696,1,0,8,1.175539361450856
undo,64,9,0,0,0,0,[0],1,27,"[1, 3, 4, 5, 6, 7, 8, 9, 10, 11, 13, 14, 15, 16, 17, 18, 19, 20, 21, 22, 23, 24, 25, 26, 27, 28, 29]",300,364,-1,2,182,10,0.0
undo,64,9,0,0,0,8,"[0, 8]",2,25,"[1, 3, 4, 5, 6, 7, 9, 10, 11, 13, 14, 15, 16, 17, 18, 19, 20, 21, 22, 23, 24, 25, 26, 27, 28]",236.2191251,2679,2315,2,102,9,1.0
undo,64,9,0,0,0,28,"[0, 8, 28]",3,23,"[1, 3, 4, 5, 6, 7, 9, 10, 11, 13, 15, 16, 17, 18, 19, 20, 21, 22, 23, 24, 25, 26, 27]",225.4024713,3565,886,2,52,9,1.0043219354187498
undo,64,9,0,0,0,23,"[0, 8, 28, 23]",4,21,"[1, 3, 4, 5, 7, 9, 10, 11, 13, 15, 16, 17, 18, 19, 20, 21, 22, 24, 25, 26, 27]",200.3824793,4721,1156,19,104,8,1.6731219967216804
undo,64,9,0,0,0,9,"[0, 8, 28, 23, 9]",5,19,"[1, 3, 4, 5, 7, 10, 11, 13, 15, 16, 18, 19, 20, 21, 22, 24, 25, 26, 27]",178.0217995,5847,1126,12,35,8,1.6380661913087589
undo,64,9,0,0,0,26,"[0, 8, 28, 23, 9, 26]",6,9,"[3, 5, 10, 15, 16, 18, 19, 20, 21]",121.3737634,7428,1581,3,6,8,1.529011463409394
undo,64,9,0,0,0,21,"[0, 8, 28, 23, 9, 26, 21]",7,1,[20],67.46643547,8718,1290,1,0,8,1.9617672806835904
undo,64,9,0,0,1,20,"[0, 8, 28, 23, 9, 26, 21, 20]",8,0,[],55.3833895,9708,990,1,0,8,1.9314512996641564
undo,64,9,1,0,0,21,"[0, 8, 28, 23, 9, 26, 21]",7,1,[20],67.46643547,11266,1558,1,0,8,1.9617672806835904
undo,64,9,0,1,0,21,"[0, 8, 28, 23, 9, 26, 21]",7,1,[20],67.46643547,12369,1103,1,0,8,1.9617672806835904
undo,65,24,0,0,0,0,[0],1,29,"[1, 2, 3, 4, 5, 6, 7, 8, 9, 10, 11, 12, 13, 14, 15, 16, 17, 18, 19, 20, 21, 22, 23, 24, 25, 26, 27, 28, 29]",300,224,-1,4,76,10,0.0
undo,65,24,0,0,0,29,"[0, 29]",2,27,"[2, 3, 4, 5, 6, 7, 8, 9, 10, 11, 12, 13, 14, 15, 16, 17, 18, 19, 20, 21, 22, 23, 24, 25, 26, 27, 28]",245.594118,5859,5635,5,65,9,1.0
undo,65,24,0,0,0,17,"[0, 29, 17]",3,13,"[2, 3, 4, 5, 8, 12, 14, 15, 16, 18, 19, 22, 26]",175.1384581,7101,1242,4,19,6,1.0575412269046411
undo,65,24,0,0,0,19,"[0, 29, 17, 19]",4,4,"[4, 5, 18, 26]",149.5064469,8420,1319,1,3,6,1.0693760972159279
undo,65,24,0,0,0,18,"[0, 29, 17, 19, 18]",5,1,[5],110.3912325,10457,2037,1,0,6,1.1206904408466383
undo,65,24,1,0,0,19,"[0, 29, 17, 19]",4,4,"[4, 5, 18, 26]",149.5064469,12777,2320,1,3,6,1.0693760972159279
undo,65,24,1,0,0,17,"[0, 29, 17]",3,13,"[2, 3, 4, 5, 8, 12, 14, 15, 16, 18, 19, 22, 26]",175.1384581,13195,418,4,19,6,1.0575412269046411
undo,65,24,1,0,0,29,"[0, 29]",2,27,"[2, 3, 4, 5, 6, 7, 8, 9, 10, 11, 12, 13, 14, 15, 16, 17, 18, 19, 20, 21, 22, 23, 24, 25, 26, 27, 28]",245.594118,13648,453,5,65,9,1.0
undo,65,24,1,0,0,0,[0],1,29,"[1, 2, 3, 4, 5, 6, 7, 8, 9, 10, 11, 12, 13, 14, 15, 16, 17, 18, 19, 20, 21, 22, 23, 24, 25, 26, 27, 28, 29]",300,14198,550,4,76,10,0.0
undo,65,24,0,0,0,16,"[0, 16]",2,28,"[1, 2, 3, 4, 5, 6, 7, 8, 9, 10, 11, 12, 13, 14, 15, 17, 18, 19, 20, 21, 22, 23, 24, 25, 26, 27, 28, 29]",210.3562607,16068,1870,13,110,9,1.0
undo,65,24,0,0,0,22,"[0, 16, 22]",3,27,"[1, 2, 3, 4, 5, 6, 7, 8, 9, 10, 11, 12, 13, 14, 15, 17, 18, 19, 20, 21, 23, 24, 25, 26, 27, 28, 29]",192.3285043,17727,1659,7,54,9,1.0217425143037777
undo,65,24,0,0,0,15,"[0, 16, 22, 15]",4,24,"[2, 3, 4, 5, 6, 7, 8, 9, 10, 11, 12, 13, 14, 17, 18, 19, 21, 23, 24, 25, 26, 27, 28, 29]",171.1153009,18830,1103,3,24,9,1.077448994301009
undo,65,24,0,0,0,28,"[0, 16, 22, 15, 28]",5,12,"[3, 4, 6, 8, 9, 11, 13, 21, 23, 25, 26, 27]",125.8383752,20431,1601,2,10,9,1.0579370080485104
undo,65,24,0,0,0,23,"[0, 16, 22, 15, 28, 23]",6,7,"[3, 4, 8, 9, 11, 13, 27]",106.8120776,21851,1420,2,4,9,1.0965087965469686
undo,65,24,0,0,0,11,"[0, 16, 22, 15, 28, 23, 11]",7,2,"[9, 27]",79.88625355,23724,1873,2,0,9,1.0958394317987046
undo,65,24,0,0,0,27,"[0, 16, 22, 15, 28, 23, 11, 27]",8,1,[9],52.083376,24859,1135,1,0,9,1.085465547106356
undo,65,24,0,1,0,27,"[0, 16, 22, 15, 28, 23, 11, 27]",8,1,[9],52.083376,26395,1536,1,0,9,1.085465547106356
undo,66,39,0,0,0,0,[0],1,28,"[1, 2, 3, 4, 5, 6, 7, 9, 10, 11, 12, 13, 14, 15, 16, 17, 18, 19, 20, 21, 22, 23, 24, 25, 26, 27, 28, 29]",300,264,-1,1,30,10,0.0
undo,66,39,0,0,0,29,"[0, 29]",2,26,"[1, 2, 3, 4, 5, 6, 7, 9, 10, 12, 13, 14, 15, 16, 17, 18, 19, 20, 21, 22, 23, 24, 25, 26, 27, 28]",243.0614366,4436,4172,8,104,9,1.0
undo,66,39,0,0,0,10,"[0, 29, 10]",3,19,"[1, 2, 4, 5, 7, 9, 12, 13, 14, 15, 16, 17, 18, 19, 22, 23, 24, 26, 28]",178.4239862,5967,1531,3,48,9,1.0231293692376968
undo,66,39,0,0,0,7,"[0, 29, 10, 7]",4,14,"[1, 2, 4, 5, 9, 12, 13, 15, 16, 18, 19, 22, 24, 26]",145.0024362,7406,1439,2,20,9,1.0186411966151707
undo,66,39,0,0,0,26,"[0, 29, 10, 7, 26]",5,9,"[1, 2, 5, 12, 13, 16, 18, 19, 22]",126.3208945,8661,1255,1,9,9,1.0752526811750318
undo,66,39,0,0,0,22,"[0, 29, 10, 7, 26, 22]",6,6,"[1, 5, 12, 16, 18, 19]",108.6008494,11584,2923,1,3,9,1.2360944063790367
undo,66,39,0,0,0,16,"[0, 29, 10, 7, 26, 22, 16]",7,2,"[18, 19]",73.6008494,12859,1275,1,1,9,1.1926155792040818
undo,66,39,0,0,0,19,"[0, 29, 10, 7, 26, 22, 16, 19]",8,1,[18],56.1366002,14046,1187,1,0,9,1.2089345217410772
undo,66,39,0,1,0,19,"[0, 29, 10, 7, 26, 22, 16, 19]",8,1,[18],56.1366002,15916,1870,1,0,9,1.2089345217410772
undo,67,17,0,0,0,0,[0],1,28,"[1, 2, 3, 4, 5, 6, 7, 8, 9, 10, 11, 12, 13, 14, 15, 16, 17, 18, 19, 20, 22, 23, 24, 25, 26, 27, 28, 29]",300,296,-1,2,73,8,0.0
undo,67,17,0,0,0,9,"[0, 9]",2,25,"[1, 2, 3, 5, 6, 7, 8, 10, 11, 12, 14, 15, 16, 17, 18, 19, 20, 22, 23, 24, 25, 26, 27, 28, 29]",210.5293344,3010,2714,1,34,8,1.0
undo,67,17,0,0,0,16,"[0, 9, 16]",3,21,"[1, 2, 3, 5, 7, 8, 10, 11, 12, 14, 17, 18, 19, 20, 22, 23, 25, 26, 27, 28, 29]",197.1876704,4395,1385,1,26,8,1.173103464220352
undo,67,17,0,0,0,17,"[0, 9, 16, 17]",4,9,"[2, 7, 8, 10, 12, 14, 26, 27, 29]",155.5103384,5888,1493,2,9,7,1.3686022655428802
undo,67,17,0,0,0,2,"[0, 9, 16, 17, 2]",5,4,"[7, 8, 10, 27]",117.1828026,7924,2036,1,3,7,1.764970391617776
undo,67,17,0,0,0,8,"[0, 9, 16, 17, 2, 8]",6,1,[7],82.06870286,9162,1238,1,0,7,1.6282583682866314
undo,67,17,0,0,1,7,"[0, 9, 16, 17, 2, 8, 7]",7,0,[],11.35802474,10500,1338,1,0,7,1.5695874876804634
undo,67,17,1,0,0,8,"[0, 9, 16, 17, 2, 8]",6,1,[7],82.06870286,12162,1662,1,0,7,1.6282583682866314
undo,67,17,0,1,0,8,"[0, 9, 16, 17, 2, 8]",6,1,[7],82.06870286,13408,1246,1,0,7,1.6282583682866314
undo,68,34,0,0,0,0,[0],1,25,"[1, 3, 4, 5, 6, 7, 8, 9, 10, 11, 12, 13, 15, 18, 19, 20, 21, 22, 23, 24, 25, 26, 27, 28, 29]",300,220,-1,12,367,10,0.0
undo,68,34,0,0,0,13,"[0, 13]",2,24,"[1, 3, 4, 5, 6, 7, 8, 9, 10, 11, 12, 15, 18, 19, 20, 21, 22, 23, 24, 25, 26, 27, 28, 29]",279.9750156,5649,5429,12,331,10,1.0
undo,68,34,0,0,0,1,"[0, 13, 1]",3,16,"[3, 5, 7, 8, 9, 10, 11, 12, 19, 21, 22, 23, 24, 25, 27, 29]",211.8574701,7365,1716,3,92,10,1.0010381285747127
undo,68,34,0,0,0,8,"[0, 13, 1, 8]",4,14,"[3, 5, 7, 9, 10, 11, 12, 19, 22, 23, 24, 25, 27, 29]",201.0871405,10006,2641,2,54,10,1.1636807
undo,68,34,0,0,0,25,"[0, 13, 1, 8, 25]",5,12,"[3, 5, 7, 9, 10, 11, 12, 22, 23, 24, 27, 29]",183.999133,11676,1670,2,28,10,1.1396208815936457
undo,68,34,0,0,0,24,"[0, 13, 1, 8, 25, 24]",6,11,"[3, 5, 7, 9, 10, 11, 12, 22, 23, 27, 29]",166.5062774,12884,1208,2,23,10,1.374180768736554
undo,68,34,0,0,0,12,"[0, 13, 1, 8, 25, 24, 12]",7,7,"[7, 9, 10, 11, 22, 23, 27]",115.4670767,15111,2227,1,8,10,1.4994254760835948
undo,68,34,0,0,0,7,"[0, 13, 1, 8, 25, 24, 12, 7]",8,5,"[9, 11, 22, 23, 27]",100.4337804,16457,1346,1,4,10,1.758992610425009
undo,68,34,0,0,0,23,"[0, 13, 1, 8, 25, 24, 12, 7, 23]",9,1,[27],72.27352467,18283,1826,1,0,10,2.399781305190153
undo,68,34,0,0,1,27,"[0, 13, 1, 8, 25, 24, 12, 7, 23, 27]",10,0,[],18.60789321,20492,2209,1,0,10,4.766619878750327
undo,68,34,1,0,0,23,"[0, 13, 1, 8, 25, 24, 12, 7, 23]",9,1,[27],72.27352467,22312,1820,1,0,10,2.399781305190153
undo,68,34,0,1,0,23,"[0, 13, 1, 8, 25, 24, 12, 7, 23]",9,1,[27],72.27352467,23365,1053,1,0,10,2.399781305190153
basic,69,30,0,0,0,0,[0],1,19,"[3, 4, 5, 7, 9, 11, 16, 17, 18, 19, 20, 21, 22, 24, 25, 26, 27, 28, 29]",300,213,-1,5,41,8,0.0
basic,69,30,0,0,0,26,"[0, 26]",2,15,"[3, 5, 9, 11, 16, 17, 18, 19, 20, 21, 22, 25, 27, 28, 29]",208.2939479,6265,6052,5,27,6,1.0
basic,69,30,0,0,0,17,"[0, 26, 17]",3,2,"[11, 22]",106.3282674,10145,3880,1,1,5,1.0269053349018842
basic,69,30,0,0,0,22,"[0, 26, 17, 22]",4,1,[11],87.09288329,11351,1206,1,0,5,1.0667647841987975
basic,69,30,0,0,1,11,"[0, 26, 17, 22, 11]",5,0,[],11.29050866,14180,2829,1,0,5,1.620200194141416
basic,69,30,0,1,1,11,"[0, 26, 17, 22, 11]",5,0,[],11.29050866,16431,2251,1,0,5,1.620200194141416
basic,70,7,0,0,0,0,[0],1,29,"[1, 2, 3, 4, 5, 6, 7, 8, 9, 10, 11, 12, 13, 14, 15, 16, 17, 18, 19, 20, 21, 22, 23, 24, 25, 26, 27, 28, 29]",300,187,-1,3,79,9,0.0
basic,70,7,0,0,0,25,"[0, 25]",2,20,"[2, 3, 4, 5, 6, 7, 10, 13, 14, 15, 16, 18, 19, 20, 21, 22, 23, 24, 27, 28]",181.5939191,11701,11514,5,33,8,1.0
basic,70,7,0,0,0,4,"[0, 25, 4]",3,11,"[2, 6, 7, 13, 15, 16, 18, 19, 20, 21, 23]",156.8552853,13082,1381,2,14,8,1.0193465608331511
basic,70,7,0,0,0,20,"[0, 25, 4, 20]",4,8,"[2, 6, 7, 13, 15, 16, 18, 19]",137.2084026,15123,2041,1,9,8,1.085904909082323
basic,70,7,0,0,0,18,"[0, 25, 4, 20, 18]",5,7,"[2, 6, 7, 13, 15, 16, 19]",124.4021541,17502,2379,1,5,8,1.2264883846453758
basic,70,7,0,0,0,7,"[0, 25, 4, 20, 18, 7]",6,2,"[2, 19]",83.17109789,19535,2033,1,1,8,1.185264473968278
basic,70,7,0,0,0,19,"[0, 25, 4, 20, 18, 7, 19]",7,1,[2],53.76021555,20842,1307,1,0,8,1.3016904288278204
basic,70,7,0,0,1,2,"[0, 25, 4, 20, 18, 7, 19, 2]",8,0,[],23.61058868,24955,4113,1,0,8,1.3168868000947171
basic,70,7,0,1,1,2,"[0, 25, 4, 20, 18, 7, 19, 2]",8,0,[],23.61058868,26556,1601,1,0,8,1.3168868000947171
basic,71,38,0,0,0,0,[0],1,29,"[1, 2, 3, 4, 5, 6, 7, 8, 9, 10, 11, 12, 13, 14, 15, 16, 17, 18, 19, 20, 21, 22, 23, 24, 25, 26, 27, 28, 29]",300,302,-1,33,506,9,0.0
basic,71,38,0,0,0,20,"[0, 20]",2,28,"[1, 2, 3, 4, 5, 6, 7, 8, 9, 10, 11, 12, 13, 14, 15, 16, 17, 18, 19, 21, 22, 23, 24, 25, 26, 27, 28, 29]",246.1483519,3498,3196,14,198,9,1.0
basic,71,38,0,0,0,4,"[0, 20, 4]",3,23,"[1, 3, 5, 6, 7, 10, 11, 12, 13, 14, 15, 16, 17, 18, 19, 22, 23, 24, 25, 26, 27, 28, 29]",212.2072264,5705,2207,4,62,9,1.2521398361687723
basic,71,38,0,0,0,13,"[0, 20, 4, 13]",4,15,"[3, 5, 11, 12, 14, 15, 16, 17, 18, 19, 22, 24, 26, 27, 28]",180.8065895,8147,2442,20,54,8,1.2194377295469292
basic,71,38,0,0,0,15,"[0, 20, 4, 13, 15]",5,10,"[5, 11, 12, 14, 16, 17, 19, 24, 26, 28]",129.3284388,13137,4990,9,10,8,2.3259942434075445
basic,71,38,0,0,0,16,"[0, 20, 4, 13, 15, 16]",6,4,"[11, 14, 26, 28]",87.7111347,15085,1948,3,2,8,1.9401882120624248
basic,71,38,0,0,0,28,"[0, 20, 4, 13, 15, 16, 28]",7,2,"[11, 14]",58.7111347,16576,1491,2,0,8,2.259381853166563
basic,71,38,0,1,0,28,"[0, 20, 4, 13, 15, 16, 28]",7,2,"[11, 14]",58.7111347,19913,3337,2,0,8,2.259381853166563
basic,72,39,0,0,0,0,[0],1,28,"[1, 2, 3, 4, 5, 6, 7, 9, 10, 11, 12, 13, 14, 15, 16, 17, 18, 19, 20, 21, 22, 23, 24, 25, 26, 27, 28, 29]",300,238,-1,1,30,10,0.0
basic,72,39,0,0,0,10,"[0, 10]",2,20,"[1, 2, 4, 5, 7, 9, 12, 13, 14, 15, 16, 17, 18, 19, 22, 23, 24, 26, 28, 29]",181.1723938,6755,6517,3,58,8,1.0
basic,72,39,0,0,0,7,"[0, 10, 7]",3,16,"[1, 2, 4, 5, 9, 12, 13, 15, 16, 18, 19, 22, 23, 24, 26, 29]",147.7508438,8751,1996,2,20,8,1.0005787113875788
basic,72,39,0,0,0,26,"[0, 10, 7, 26]",4,12,"[1, 2, 5, 9, 12, 13, 16, 18, 19, 22, 24, 29]",129.0693022,10091,1340,1,9,8,1.0582372046162405
basic,72,39,0,0,0,22,"[0, 10, 7, 26, 22]",5,7,"[1, 5, 12, 16, 18, 19, 29]",111.349257,11341,1250,1,3,8,1.2183446345009497
basic,72,39,0,0,0,16,"[0, 10, 7, 26, 22, 16]",6,2,"[18, 19]",76.34925701,13153,1812,1,1,8,1.1781376373699262
basic,72,39,0,0,0,19,"[0, 10, 7, 26, 22, 16, 19]",7,1,[18],58.88500781,15107,1954,1,0,8,1.1953094970663214
basic,72,39,0,1,0,19,"[0, 10, 7, 26, 22, 16, 19]",7,1,[18],58.88500781,15904,797,1,0,8,1.1953094970663214
basic,73,0,0,0,0,0,[0],1,27,"[2, 3, 4, 5, 6, 7, 8, 9, 10, 11, 12, 13, 14, 15, 16, 17, 19, 20, 21, 22, 23, 24, 25, 26, 27, 28, 29]",300,252,-1,104,1136,9,0.0
basic,73,0,0,0,0,5,"[0, 5]",2,24,"[2, 3, 4, 7, 8, 9, 11, 12, 13, 14, 15, 16, 17, 19, 20, 21, 22, 23, 24, 25, 26, 27, 28, 29]",164.5156836,3546,3294,5,112,9,1.0
