condition,trial_id,map_id,undoIndicator,submit,checkEnd,currentChoice,chosen_all,n_city_all,n_within_reach,cities_reach,currentBudget,time_all,rt_all,n_opt_paths_all,n_subopt_paths_all,mas_all,tortuosity_all
basic,0,15,0,0,0,0,[0],1,25,"[1, 2, 3, 4, 7, 8, 9, 10, 11, 12, 13, 14, 15, 16, 18, 20, 21, 22, 23, 24, 25, 26, 27, 28, 29]",300,157,-1,4,65,9,0.0
basic,0,15,0,0,0,7,"[0, 7]",2,23,"[1, 3, 4, 8, 9, 10, 11, 12, 13, 14, 15, 16, 18, 20, 21, 22, 23, 24, 25, 26, 27, 28, 29]",215.1884442,9873,9716,30,107,8,1.0
basic,0,15,0,0,0,16,"[0, 7, 16]",3,14,"[3, 4, 9, 10, 11, 12, 13, 14, 15, 18, 21, 22, 25, 27]",171.5306843,11132,1259,11,27,8,1.1253230463291073
basic,0,15,0,0,0,11,"[0, 7, 16, 11]",4,10,"[3, 4, 12, 13, 14, 15, 18, 21, 22, 27]",145.5114606,12331,1199,6,10,8,1.2441772230587118
basic,0,15,0,0,0,3,"[0, 7, 16, 11, 3]",5,8,"[4, 12, 13, 14, 15, 18, 21, 22]",134.1097064,14149,1818,6,4,8,1.253153736954923
basic,0,15,0,0,0,22,"[0, 7, 16, 11, 3, 22]",6,5,"[4, 13, 14, 15, 18]",84.38043933,17188,3039,2,3,8,1.249784727890499
basic,0,15,0,0,0,15,"[0, 7, 16, 11, 3, 22, 15]",7,1,[13],58.76794238,18850,1662,1,0,8,1.2283958862490272
basic,0,15,0,0,1,13,"[0, 7, 16, 11, 3, 22, 15, 13]",8,0,[],43.50360486,20321,1471,1,0,8,1.2803073001953094
basic,0,15,0,1,1,13,"[0, 7, 16, 11, 3, 22, 15, 13]",8,0,[],43.50360486,21323,1002,1,0,8,1.2803073001953094
basic,1,42,0,0,0,0,[0],1,29,"[1, 2, 3, 4, 5, 6, 7, 8, 9, 10, 11, 12, 13, 14, 15, 16, 17, 18, 19, 20, 21, 22, 23, 24, 25, 26, 27, 28, 29]",300,144,-1,16,302,9,0.0
basic,1,42,0,0,0,3,"[0, 3]",2,25,"[1, 2, 4, 5, 6, 7, 8, 9, 10, 11, 13, 15, 17, 18, 19, 20, 21, 22, 23, 24, 25, 26, 27, 28, 29]",255.7959278,4584,4440,3,45,9,1.0
basic,1,42,0,0,0,23,"[0, 3, 23]",3,15,"[1, 2, 4, 5, 6, 7, 8, 9, 11, 15, 17, 22, 24, 25, 29]",202.4573864,6368,1784,1,24,8,1.2042297975308642
basic,1,42,0,0,0,11,"[0, 3, 23, 11]",4,13,"[1, 2, 4, 5, 6, 7, 8, 15, 17, 22, 24, 25, 29]",157.4462766,7825,1457,8,11,7,1.5530792255182428
basic,1,42,0,0,0,24,"[0, 3, 23, 11, 24]",5,4,"[2, 6, 8, 15]",99.43765659,9200,1375,2,3,7,1.5306089475712006
basic,1,42,0,0,0,15,"[0, 3, 23, 11, 24, 15]",6,2,"[2, 6]",85.83618608,10590,1390,2,0,7,1.4807999604486335
basic,1,42,0,0,1,6,"[0, 3, 23, 11, 24, 15, 6]",7,0,[],36.43982994,13467,2877,1,0,7,1.3692776956924249
basic,1,42,0,1,1,6,"[0, 3, 23, 11, 24, 15, 6]",7,0,[],36.43982994,14313,846,1,0,7,1.3692776956924249
basic,2,36,0,0,0,0,[0],1,24,"[2, 4, 5, 6, 7, 8, 9, 10, 12, 13, 14, 15, 16, 17, 18, 19, 20, 22, 23, 25, 26, 27, 28, 29]",300,209,-1,2,200,10,0.0
basic,2,36,0,0,0,16,"[0, 16]",2,12,"[2, 8, 9, 10, 12, 13, 17, 18, 19, 23, 25, 27]",193.262003,7335,7126,20,112,8,1.0
basic,2,36,0,0,0,17,"[0, 16, 17]",3,10,"[2, 9, 10, 12, 13, 18, 19, 23, 25, 27]",164.9423985,9425,2090,14,64,8,1.4289609665642613
basic,2,36,0,0,0,9,"[0, 16, 17, 9]",4,8,"[2, 10, 12, 13, 18, 19, 23, 25]",138.693589,11741,2316,6,21,8,2.335567583937715
basic,2,36,0,0,0,19,"[0, 16, 17, 9, 19]",5,6,"[2, 10, 12, 13, 18, 25]",123.5608431,13052,1311,6,5,8,2.2891022786553017
basic,2,36,0,0,0,2,"[0, 16, 17, 9, 19, 2]",6,3,"[10, 13, 25]",86.43942067,15556,2504,2,1,8,1.891101810711848
basic,2,36,0,0,0,25,"[0, 16, 17, 9, 19, 2, 25]",7,1,[13],61.43942067,16958,1402,1,0,8,2.0836773189568087
basic,2,36,0,0,1,13,"[0, 16, 17, 9, 19, 2, 25, 13]",8,0,[],40.84816038,18457,1499,1,0,8,2.642206520923964
basic,2,36,0,1,1,13,"[0, 16, 17, 9, 19, 2, 25, 13]",8,0,[],40.84816038,19026,569,1,0,8,2.642206520923964
basic,3,10,0,0,0,0,[0],1,29,"[1, 2, 3, 4, 5, 6, 7, 8, 9, 10, 11, 12, 13, 14, 15, 16, 17, 18, 19, 20, 21, 22, 23, 24, 25, 26, 27, 28, 29]",300,164,-1,1,100,9,0.0
basic,3,10,0,0,0,10,"[0, 10]",2,27,"[1, 2, 3, 4, 5, 6, 7, 8, 9, 11, 12, 13, 14, 15, 17, 18, 19, 20, 21, 22, 23, 24, 25, 26, 27, 28, 29]",211.2475352,11740,11576,5,73,8,1.0
basic,3,10,0,0,0,13,"[0, 10, 13]",3,12,"[2, 8, 11, 14, 18, 19, 20, 22, 24, 26, 27, 29]",133.6266618,13403,1663,2,16,7,3.29210201168929
basic,3,10,0,0,0,11,"[0, 10, 13, 11]",4,7,"[2, 14, 18, 19, 20, 26, 27]",90.61503543,15240,1837,2,11,7,2.308332420690699
basic,3,10,0,0,0,19,"[0, 10, 13, 11, 19]",5,4,"[2, 14, 20, 26]",54.2557175,17270,2030,1,3,7,2.0580414485214384
basic,3,10,0,0,1,26,"[0, 10, 13, 11, 19, 26]",6,0,[],25.93611299,18819,1549,1,0,6,2.0693646142408495
basic,3,10,0,1,1,26,"[0, 10, 13, 11, 19, 26]",6,0,[],25.93611299,21396,2577,1,0,6,2.0693646142408495
basic,4,35,0,0,0,0,[0],1,29,"[1, 2, 3, 4, 5, 6, 7, 8, 9, 10, 11, 12, 13, 14, 15, 16, 17, 18, 19, 20, 21, 22, 23, 24, 25, 26, 27, 28, 29]",300,151,-1,5,236,11,0.0
basic,4,35,0,0,0,24,"[0, 24]",2,27,"[1, 2, 4, 5, 6, 7, 8, 9, 10, 11, 12, 13, 14, 15, 16, 17, 18, 19, 20, 21, 22, 23, 25, 26, 27, 28, 29]",268.9838752,3772,3621,49,512,10,1.0
basic,4,35,0,0,0,17,"[0, 24, 17]",3,26,"[1, 2, 4, 5, 6, 7, 8, 9, 10, 11, 12, 13, 14, 15, 16, 18, 19, 20, 21, 22, 23, 25, 26, 27, 28, 29]",257.2791753,4691,919,33,238,10,1.0771477201815276
basic,4,35,0,0,0,1,"[0, 24, 17, 1]",4,25,"[2, 4, 5, 6, 7, 8, 9, 10, 11, 12, 13, 14, 15, 16, 18, 19, 20, 21, 22, 23, 25, 26, 27, 28, 29]",241.4677869,7309,2618,26,151,10,1.2244804141479215
basic,4,35,0,0,0,15,"[0, 24, 17, 1, 15]",5,23,"[2, 4, 5, 6, 7, 8, 9, 10, 11, 12, 14, 16, 18, 19, 20, 21, 22, 23, 25, 26, 27, 28, 29]",218.6204676,9030,1721,26,78,10,1.4642196672428094
basic,4,35,0,0,0,23,"[0, 24, 17, 1, 15, 23]",6,11,"[4, 5, 6, 9, 18, 19, 25, 26, 27, 28, 29]",158.1804147,10754,1724,15,12,10,1.3338903684702363
basic,4,35,0,0,0,9,"[0, 24, 17, 1, 15, 23, 9]",7,6,"[5, 6, 18, 19, 25, 27]",120.5373542,12938,2184,6,1,10,1.5964380615155294
basic,4,35,0,0,0,18,"[0, 24, 17, 1, 15, 23, 9, 18]",8,3,"[5, 6, 25]",100.5123698,14093,1155,2,1,10,1.5508488101942703
basic,4,35,0,0,0,6,"[0, 24, 17, 1, 15, 23, 9, 18, 6]",9,1,[25],66.89689722,15356,1263,1,0,10,1.541466044761729
basic,4,35,0,0,1,25,"[0, 24, 17, 1, 15, 23, 9, 18, 6, 25]",10,0,[],42.87607292,16524,1168,1,0,10,1.5877595882523792
basic,4,35,0,1,1,25,"[0, 24, 17, 1, 15, 23, 9, 18, 6, 25]",10,0,[],42.87607292,18396,1872,1,0,10,1.5877595882523792
basic,5,22,0,0,0,0,[0],1,29,"[1, 2, 3, 4, 5, 6, 7, 8, 9, 10, 11, 12, 13, 14, 15, 16, 17, 18, 19, 20, 21, 22, 23, 24, 25, 26, 27, 28, 29]",300,163,-1,31,704,9,0.0
basic,5,22,0,0,0,16,"[0, 16]",2,21,"[1, 3, 6, 7, 8, 9, 11, 13, 14, 15, 17, 18, 19, 20, 21, 22, 24, 25, 27, 28, 29]",218.605897,3588,3425,17,147,9,1.0
basic,5,22,0,0,0,28,"[0, 16, 28]",3,13,"[6, 7, 9, 13, 14, 17, 19, 20, 21, 22, 24, 25, 29]",184.1675463,5063,1475,12,61,9,1.047282311284478
basic,5,22,0,0,0,6,"[0, 16, 28, 6]",4,12,"[7, 9, 13, 14, 17, 19, 20, 21, 22, 24, 25, 29]",154.1675463,6513,1450,12,43,9,1.645645870580622
basic,5,22,0,0,0,9,"[0, 16, 28, 6, 9]",5,8,"[7, 14, 17, 19, 20, 21, 24, 29]",127.5404924,7888,1375,8,17,9,1.925750226630103
basic,5,22,0,0,0,14,"[0, 16, 28, 6, 9, 14]",6,5,"[7, 17, 19, 24, 29]",84.49400589,10513,2625,2,4,9,1.6636058370259441
basic,5,22,0,0,0,7,"[0, 16, 28, 6, 9, 14, 7]",7,4,"[17, 19, 24, 29]",71.45560108,12477,1964,2,2,9,1.8172242553661921
basic,5,22,0,0,0,19,"[0, 16, 28, 6, 9, 14, 7, 19]",8,1,[29],25.18465988,14924,2447,1,0,9,3.451408325118739
basic,5,22,0,0,1,29,"[0, 16, 28, 6, 9, 14, 7, 19, 29]",9,0,[],10.1513635,16189,1265,1,0,9,3.763950601205494
basic,5,22,0,1,1,29,"[0, 16, 28, 6, 9, 14, 7, 19, 29]",9,0,[],10.1513635,17047,858,1,0,9,3.763950601205494
basic,6,34,0,0,0,0,[0],1,25,"[1, 3, 4, 5, 6, 7, 8, 9, 10, 11, 12, 13, 15, 18, 19, 20, 21, 22, 23, 24, 25, 26, 27, 28, 29]",300,197,-1,12,367,10,0.0
basic,6,34,0,0,0,13,"[0, 13]",2,24,"[1, 3, 4, 5, 6, 7, 8, 9, 10, 11, 12, 15, 18, 19, 20, 21, 22, 23, 24, 25, 26, 27, 28, 29]",279.9750156,4026,3829,12,331,10,1.0
basic,6,34,0,0,0,1,"[0, 13, 1]",3,16,"[3, 5, 7, 8, 9, 10, 11, 12, 19, 21, 22, 23, 24, 25, 27, 29]",211.8574701,6039,2013,3,92,10,1.0010381285747127
basic,6,34,0,0,0,8,"[0, 13, 1, 8]",4,14,"[3, 5, 7, 9, 10, 11, 12, 19, 22, 23, 24, 25, 27, 29]",201.0871405,7176,1137,2,54,10,1.1636807
basic,6,34,0,0,0,25,"[0, 13, 1, 8, 25]",5,12,"[3, 5, 7, 9, 10, 11, 12, 22, 23, 24, 27, 29]",183.999133,8730,1554,2,28,10,1.1396208815936457
basic,6,34,0,0,0,24,"[0, 13, 1, 8, 25, 24]",6,11,"[3, 5, 7, 9, 10, 11, 12, 22, 23, 27, 29]",166.5062774,9897,1167,2,23,10,1.374180768736554
basic,6,34,0,0,0,12,"[0, 13, 1, 8, 25, 24, 12]",7,7,"[7, 9, 10, 11, 22, 23, 27]",115.4670767,12973,3076,1,8,10,1.4994254760835948
basic,6,34,0,0,0,7,"[0, 13, 1, 8, 25, 24, 12, 7]",8,5,"[9, 11, 22, 23, 27]",100.4337804,14444,1471,1,4,10,1.758992610425009
basic,6,34,0,0,0,23,"[0, 13, 1, 8, 25, 24, 12, 7, 23]",9,1,[27],72.27352467,16040,1596,1,0,10,2.399781305190153
basic,6,34,0,0,1,27,"[0, 13, 1, 8, 25, 24, 12, 7, 23, 27]",10,0,[],18.60789321,18146,2106,1,0,10,4.766619878750327
basic,6,34,0,1,1,27,"[0, 13, 1, 8, 25, 24, 12, 7, 23, 27]",10,0,[],18.60789321,18931,785,1,0,10,4.766619878750327
basic,7,37,0,0,0,0,[0],1,29,"[1, 2, 3, 4, 5, 6, 7, 8, 9, 10, 11, 12, 13, 14, 15, 16, 17, 18, 19, 20, 21, 22, 23, 24, 25, 26, 27, 28, 29]",300,143,-1,6,168,10,0.0
basic,7,37,0,0,0,7,"[0, 7]",2,15,"[1, 2, 4, 6, 9, 10, 15, 17, 18, 19, 20, 21, 22, 26, 29]",180.19182,5502,5359,9,88,9,1.0
basic,7,37,0,0,0,22,"[0, 7, 22]",3,9,"[1, 2, 4, 15, 18, 19, 20, 21, 26]",130.19182,7003,1501,8,38,9,1.042690632537318
basic,7,37,0,0,0,4,"[0, 7, 22, 4]",4,8,"[1, 2, 15, 18, 19, 20, 21, 26]",105.19182,8134,1131,4,22,9,1.1985756236330434
basic,7,37,0,0,0,2,"[0, 7, 22, 4, 2]",5,7,"[1, 15, 18, 19, 20, 21, 26]",93.79006573,9965,1831,4,11,9,1.3640741346939491
basic,7,37,0,0,0,1,"[0, 7, 22, 4, 2, 1]",6,6,"[15, 18, 19, 20, 21, 26]",76.58541519,13506,3541,4,4,9,1.4111645779360151
basic,7,37,0,0,0,15,"[0, 7, 22, 4, 2, 1, 15]",7,3,"[20, 21, 26]",36.62293279,15689,2183,2,1,9,1.5828223142017712
basic,7,37,0,0,0,21,"[0, 7, 22, 4, 2, 1, 15, 21]",8,1,[20],21.62293279,16918,1229,1,0,9,1.793742630361202
basic,7,37,0,0,1,20,"[0, 7, 22, 4, 2, 1, 15, 21, 20]",9,0,[],7.200727686,20238,3320,1,0,9,1.953341247657821
basic,7,37,0,1,1,20,"[0, 7, 22, 4, 2, 1, 15, 21, 20]",9,0,[],7.200727686,21415,1177,1,0,9,1.953341247657821
basic,8,13,0,0,0,0,[0],1,29,"[1, 2, 3, 4, 5, 6, 7, 8, 9, 10, 11, 12, 13, 14, 15, 16, 17, 18, 19, 20, 21, 22, 23, 24, 25, 26, 27, 28, 29]",300,179,-1,60,2676,11,0.0
basic,8,13,0,0,0,24,"[0, 24]",2,28,"[1, 2, 3, 4, 5, 6, 7, 8, 9, 10, 11, 12, 13, 14, 15, 16, 17, 18, 19, 20, 21, 22, 23, 25, 26, 27, 28, 29]",288.8196601,5188,5009,16,1444,11,1.0
basic,8,13,0,0,0,23,"[0, 24, 23]",3,27,"[1, 2, 3, 4, 5, 6, 7, 8, 9, 10, 11, 12, 13, 14, 15, 16, 17, 18, 19, 20, 21, 22, 25, 26, 27, 28, 29]",243.1140806,6937,1749,2,868,11,1.0065545717039834
basic,8,13,0,0,0,11,"[0, 24, 23, 11]",4,18,"[1, 2, 3, 4, 6, 7, 9, 13, 15, 16, 17, 19, 20, 21, 26, 27, 28, 29]",161.1262766,10220,3283,58,284,10,1.0886784139375956
basic,8,13,0,0,0,6,"[0, 24, 23, 11, 6]",5,17,"[1, 2, 3, 4, 7, 9, 13, 15, 16, 17, 19, 20, 21, 26, 27, 28, 29]",142.0213034,11693,1473,46,76,10,1.454990114067039
basic,8,13,0,0,0,26,"[0, 24, 23, 11, 6, 26]",6,10,"[1, 2, 3, 7, 13, 16, 17, 19, 28, 29]",121.9215522,13360,1667,20,16,10,1.8613568006091012
basic,8,13,0,0,0,7,"[0, 24, 23, 11, 6, 26, 7]",7,8,"[1, 2, 13, 16, 17, 19, 28, 29]",111.4812457,15512,2152,9,6,10,1.7909550303769413
basic,8,13,0,0,0,29,"[0, 24, 23, 11, 6, 26, 7, 29]",8,6,"[1, 2, 13, 17, 19, 28]",96.21690817,16860,1348,4,4,10,1.830838433413115
basic,8,13,0,0,0,2,"[0, 24, 23, 11, 6, 26, 7, 29, 2]",9,3,"[1, 19, 28]",84.51220825,18387,1527,3,0,10,1.9663062831380966
basic,8,13,0,0,1,28,"[0, 24, 23, 11, 6, 26, 7, 29, 2, 28]",10,0,[],46.8691478,20334,1947,1,0,10,3.4354620893096537
basic,8,13,0,1,1,28,"[0, 24, 23, 11, 6, 26, 7, 29, 2, 28]",10,0,[],46.8691478,22961,2627,1,0,10,3.4354620893096537
basic,9,7,0,0,0,0,[0],1,29,"[1, 2, 3, 4, 5, 6, 7, 8, 9, 10, 11, 12, 13, 14, 15, 16, 17, 18, 19, 20, 21, 22, 23, 24, 25, 26, 27, 28, 29]",300,158,-1,3,79,9,0.0
basic,9,7,0,0,0,25,"[0, 25]",2,20,"[2, 3, 4, 5, 6, 7, 10, 13, 14, 15, 16, 18, 19, 20, 21, 22, 23, 24, 27, 28]",181.5939191,7567,7409,5,33,8,1.0
basic,9,7,0,0,0,4,"[0, 25, 4]",3,11,"[2, 6, 7, 13, 15, 16, 18, 19, 20, 21, 23]",156.8552853,9068,1501,2,14,8,1.0193465608331511
basic,9,7,0,0,0,20,"[0, 25, 4, 20]",4,8,"[2, 6, 7, 13, 15, 16, 18, 19]",137.2084026,10087,1019,1,9,8,1.085904909082323
basic,9,7,0,0,0,18,"[0, 25, 4, 20, 18]",5,7,"[2, 6, 7, 13, 15, 16, 19]",124.4021541,11881,1794,1,5,8,1.2264883846453758
basic,9,7,0,0,0,7,"[0, 25, 4, 20, 18, 7]",6,2,"[2, 19]",83.17109789,15231,3350,1,1,8,1.185264473968278
basic,9,7,0,0,0,19,"[0, 25, 4, 20, 18, 7, 19]",7,1,[2],53.76021555,16639,1408,1,0,8,1.3016904288278204
basic,9,7,0,0,1,2,"[0, 25, 4, 20, 18, 7, 19, 2]",8,0,[],23.61058868,18081,1442,1,0,8,1.3168868000947171
basic,9,7,0,1,1,2,"[0, 25, 4, 20, 18, 7, 19, 2]",8,0,[],23.61058868,18707,626,1,0,8,1.3168868000947171
basic,10,12,0,0,0,0,[0],1,29,"[1, 2, 3, 4, 5, 6, 7, 8, 9, 10, 11, 12, 13, 14, 15, 16, 17, 18, 19, 20, 21, 22, 23, 24, 25, 26, 27, 28, 29]",300,163,-1,2,32,9,0.0
basic,10,12,0,0,0,16,"[0, 16]",2,16,"[2, 4, 5, 6, 7, 12, 13, 14, 18, 19, 22, 23, 24, 25, 27, 29]",209.2916762,3508,3345,3,38,8,1.0
basic,10,12,0,0,0,4,"[0, 16, 4]",3,11,"[2, 5, 6, 7, 12, 14, 19, 22, 24, 25, 27]",175.0864135,5058,1550,1,16,8,1.00004499617691
basic,10,12,0,0,0,12,"[0, 16, 4, 12]",4,6,"[14, 19, 22, 24, 25, 27]",132.8963673,6519,1461,1,8,8,1.0113942412768022
basic,10,12,0,0,0,27,"[0, 16, 4, 12, 27]",5,4,"[14, 19, 22, 24]",108.5447759,8928,2409,1,3,8,1.1193150037844588
basic,10,12,0,0,0,14,"[0, 16, 4, 12, 27, 14]",6,2,"[19, 24]",79.89167838,11521,2593,1,1,8,1.1821826897854277
basic,10,12,0,0,0,24,"[0, 16, 4, 12, 27, 14, 24]",7,1,[19],62.68702784,12896,1375,1,0,8,1.3297400833764192
basic,10,12,0,0,1,19,"[0, 16, 4, 12, 27, 14, 24, 19]",8,0,[],3.865263163,14507,1611,1,0,8,2.27325645157102
basic,10,12,0,1,1,19,"[0, 16, 4, 12, 27, 14, 24, 19]",8,0,[],3.865263163,15396,889,1,0,8,2.27325645157102
basic,11,31,0,0,0,0,[0],1,27,"[1, 3, 4, 5, 6, 7, 8, 10, 11, 12, 13, 14, 15, 16, 17, 18, 19, 20, 21, 22, 23, 24, 25, 26, 27, 28, 29]",300,159,-1,2,87,10,0.0
basic,11,31,0,0,0,14,"[0, 14]",2,25,"[1, 3, 5, 6, 7, 8, 10, 11, 12, 13, 15, 16, 17, 18, 19, 20, 21, 22, 23, 24, 25, 26, 27, 28, 29]",263.861378,3571,3412,2,59,10,1.0
basic,11,31,0,0,0,27,"[0, 14, 27]",3,22,"[1, 3, 5, 6, 7, 8, 10, 11, 12, 13, 15, 16, 17, 18, 19, 20, 21, 22, 24, 25, 28, 29]",235.6833724,5172,1601,1,39,10,1.5881859159302467
basic,11,31,0,0,0,8,"[0, 14, 27, 8]",4,20,"[1, 3, 5, 6, 7, 10, 11, 12, 13, 16, 17, 18, 19, 20, 21, 22, 24, 25, 28, 29]",224.6380114,7454,2282,1,36,10,2.1665048452331277
basic,11,31,0,0,0,18,"[0, 14, 27, 8, 18]",5,15,"[1, 5, 6, 7, 11, 12, 13, 16, 17, 19, 20, 22, 25, 28, 29]",188.7911147,8893,1439,1,26,10,1.7273375741920205
basic,11,31,0,0,0,17,"[0, 14, 27, 8, 18, 17]",6,13,"[1, 5, 6, 7, 11, 12, 13, 16, 19, 20, 22, 25, 28]",159.584951,10221,1328,1,13,10,1.551192427769927
basic,11,31,0,0,0,11,"[0, 14, 27, 8, 18, 17, 11]",7,7,"[5, 12, 16, 19, 22, 25, 28]",118.4753414,11661,1440,1,4,10,2.9650760544203494
basic,11,31,0,0,0,5,"[0, 14, 27, 8, 18, 17, 11, 5]",8,2,"[16, 28]",74.79468207,13458,1797,1,1,10,2.56711965625205
basic,11,31,0,0,0,28,"[0, 14, 27, 8, 18, 17, 11, 5, 28]",9,1,[16],54.57093365,15239,1781,1,0,10,2.2865510762058148
basic,11,31,0,0,1,16,"[0, 14, 27, 8, 18, 17, 11, 5, 28, 16]",10,0,[],20.95546102,16940,1701,1,0,10,2.089356850786318
basic,11,31,0,1,1,16,"[0, 14, 27, 8, 18, 17, 11, 5, 28, 16]",10,0,[],20.95546102,17914,974,1,0,10,2.089356850786318
basic,12,17,0,0,0,0,[0],1,28,"[1, 2, 3, 4, 5, 6, 7, 8, 9, 10, 11, 12, 13, 14, 15, 16, 17, 18, 19, 20, 22, 23, 24, 25, 26, 27, 28, 29]",300,162,-1,2,73,8,0.0
basic,12,17,0,0,0,9,"[0, 9]",2,25,"[1, 2, 3, 5, 6, 7, 8, 10, 11, 12, 14, 15, 16, 17, 18, 19, 20, 22, 23, 24, 25, 26, 27, 28, 29]",210.5293344,7624,7462,1,34,8,1.0
basic,12,17,0,0,0,16,"[0, 9, 16]",3,21,"[1, 2, 3, 5, 7, 8, 10, 11, 12, 14, 17, 18, 19, 20, 22, 23, 25, 26, 27, 28, 29]",197.1876704,9692,2068,1,26,8,1.173103464220352
basic,12,17,0,0,0,2,"[0, 9, 16, 2]",4,18,"[1, 3, 5, 7, 8, 10, 11, 12, 14, 17, 18, 19, 23, 25, 26, 27, 28, 29]",181.0631549,11555,1863,1,23,8,1.14825089247282
basic,12,17,0,0,0,17,"[0, 9, 16, 2, 17]",5,7,"[7, 8, 12, 14, 26, 27, 29]",142.7356191,12933,1378,4,5,7,1.4896040699768547
basic,12,17,0,0,0,8,"[0, 9, 16, 2, 17, 8]",6,3,"[7, 12, 27]",104.5256727,14353,1420,3,0,7,1.4604726966175894
basic,12,17,0,0,1,27,"[0, 9, 16, 2, 17, 8, 27]",7,0,[],21.88790895,18156,3803,1,0,7,1.2949460667276491
basic,12,17,0,1,1,27,"[0, 9, 16, 2, 17, 8, 27]",7,0,[],21.88790895,21946,3790,1,0,7,1.2949460667276491
basic,13,23,0,0,0,0,[0],1,28,"[1, 2, 3, 4, 5, 6, 7, 8, 9, 10, 11, 12, 13, 14, 15, 16, 17, 18, 19, 20, 21, 22, 23, 25, 26, 27, 28, 29]",300,164,-1,76,2626,10,0.0
basic,13,23,0,0,0,13,"[0, 13]",2,19,"[1, 2, 3, 5, 6, 7, 8, 9, 10, 12, 14, 17, 18, 19, 21, 22, 23, 27, 29]",189.3202819,9072,8908,9,168,10,1.0
basic,13,23,0,0,0,12,"[0, 13, 12]",3,16,"[1, 2, 3, 6, 7, 8, 9, 10, 14, 17, 18, 21, 22, 23, 27, 29]",177.2372359,10724,1652,9,96,10,1.0014195490503164
basic,13,23,0,0,0,9,"[0, 13, 12, 9]",4,13,"[1, 2, 3, 6, 7, 10, 14, 17, 18, 21, 22, 27, 29]",162.9194149,11832,1108,3,30,10,1.049232924848041
basic,13,23,0,0,0,14,"[0, 13, 12, 9, 14]",5,11,"[1, 2, 3, 6, 7, 10, 18, 21, 22, 27, 29]",152.4791083,12906,1074,1,9,10,1.047064109194793
basic,13,23,0,0,0,2,"[0, 13, 12, 9, 14, 2]",6,7,"[6, 7, 10, 18, 22, 27, 29]",137.6130396,14542,1636,4,12,9,1.1900073741388617
basic,13,23,0,0,0,6,"[0, 13, 12, 9, 14, 2, 6]",7,5,"[7, 18, 22, 27, 29]",119.1739507,17638,3096,3,3,9,1.2035561408942026
basic,13,23,0,0,0,27,"[0, 13, 12, 9, 14, 2, 6, 27]",8,2,"[18, 22]",90.87200729,19991,2353,2,0,9,1.460613258021435
basic,13,23,0,0,1,18,"[0, 13, 12, 9, 14, 2, 6, 27, 18]",9,0,[],15.55932576,22677,2686,1,0,9,2.9597139353041295
basic,13,23,0,1,1,18,"[0, 13, 12, 9, 14, 2, 6, 27, 18]",9,0,[],15.55932576,23496,819,1,0,9,2.9597139353041295
basic,14,8,0,0,0,0,[0],1,29,"[1, 2, 3, 4, 5, 6, 7, 8, 9, 10, 11, 12, 13, 14, 15, 16, 17, 18, 19, 20, 21, 22, 23, 24, 25, 26, 27, 28, 29]",300,164,-1,10,149,9,0.0
basic,14,8,0,0,0,5,"[0, 5]",2,28,"[1, 2, 3, 4, 6, 7, 8, 9, 10, 11, 12, 13, 14, 15, 16, 17, 18, 19, 20, 21, 22, 23, 24, 25, 26, 27, 28, 29]",254.5137383,3521,3357,10,100,9,1.0
basic,14,8,0,0,0,25,"[0, 5, 25]",3,20,"[1, 2, 3, 4, 6, 11, 12, 14, 15, 16, 17, 18, 19, 20, 21, 22, 23, 24, 28, 29]",215.3091468,5779,2258,4,42,9,1.2272747879909065
basic,14,8,0,0,0,1,"[0, 5, 25, 1]",4,17,"[3, 4, 6, 11, 12, 14, 15, 16, 17, 18, 20, 21, 22, 23, 24, 28, 29]",190.3091468,7173,1394,3,24,9,1.1770245007593956
basic,14,8,0,0,0,23,"[0, 5, 25, 1, 23]",5,15,"[3, 4, 6, 11, 14, 15, 16, 17, 18, 20, 21, 22, 24, 28, 29]",167.2874179,9566,2393,1,14,9,1.141996583852372
basic,14,8,0,0,0,18,"[0, 5, 25, 1, 23, 18]",6,9,"[3, 4, 11, 14, 15, 16, 17, 24, 28]",125.5261919,10957,1391,1,7,9,1.3199166330970717
basic,14,8,0,0,0,28,"[0, 5, 25, 1, 23, 18, 28]",7,1,[16],59.906073,12197,1240,1,0,8,1.425373059246715
basic,14,8,0,0,1,16,"[0, 5, 25, 1, 23, 18, 28, 16]",8,0,[],37.54539323,13326,1129,1,0,8,1.4175143337764708
basic,14,8,0,1,1,16,"[0, 5, 25, 1, 23, 18, 28, 16]",8,0,[],37.54539323,14800,1474,1,0,8,1.4175143337764708
basic,15,6,0,0,0,0,[0],1,29,"[1, 2, 3, 4, 5, 6, 7, 8, 9, 10, 11, 12, 13, 14, 15, 16, 17, 18, 19, 20, 21, 22, 23, 24, 25, 26, 27, 28, 29]",300,200,-1,180,4304,10,0.0
basic,15,6,0,0,0,3,"[0, 3]",2,28,"[1, 2, 4, 5, 6, 7, 8, 9, 10, 11, 12, 13, 14, 15, 16, 17, 18, 19, 20, 21, 22, 23, 24, 25, 26, 27, 28, 29]",266.4738908,1829,1629,90,1607,10,1.0
basic,15,6,0,0,0,10,"[0, 3, 10]",3,27,"[1, 2, 4, 5, 6, 7, 8, 9, 11, 12, 13, 14, 15, 16, 17, 18, 19, 20, 21, 22, 23, 24, 25, 26, 27, 28, 29]",215.2293789,4677,2848,8,136,10,1.0050517746249001
basic,15,6,0,0,0,24,"[0, 3, 10, 24]",4,23,"[1, 2, 4, 5, 6, 7, 8, 11, 13, 14, 16, 17, 18, 19, 20, 21, 22, 23, 25, 26, 27, 28, 29]",201.812971,8793,4116,8,85,10,1.0091851911500884
basic,15,6,0,0,0,17,"[0, 3, 10, 24, 17]",5,19,"[1, 2, 4, 5, 6, 7, 8, 11, 13, 14, 16, 18, 20, 21, 22, 23, 26, 27, 29]",172.5384087,10889,2096,8,53,10,1.8060138032707682
basic,15,6,0,0,0,18,"[0, 3, 10, 24, 17, 18]",6,15,"[1, 2, 6, 7, 8, 13, 14, 16, 20, 21, 22, 23, 26, 27, 29]",158.6100204,12168,1279,7,36,10,2.3216150751946008
basic,15,6,0,0,0,16,"[0, 3, 10, 24, 17, 18, 16]",7,13,"[1, 2, 6, 7, 13, 14, 20, 21, 22, 23, 26, 27, 29]",135.2647853,13403,1235,7,21,10,2.2822729587843544
basic,15,6,0,0,0,29,"[0, 3, 10, 24, 17, 18, 16, 29]",8,7,"[6, 14, 20, 21, 22, 23, 27]",98.57691268,14671,1268,6,4,10,1.8911507070056388
basic,15,6,0,0,0,23,"[0, 3, 10, 24, 17, 18, 16, 29, 23]",9,2,"[6, 22]",51.05849519,17573,2902,2,0,10,1.8549852217940308
basic,15,6,0,0,1,6,"[0, 3, 10, 24, 17, 18, 16, 29, 23, 6]",10,0,[],15.70315613,19742,2169,1,0,10,1.7651720921259988
basic,15,6,0,1,1,6,"[0, 3, 10, 24, 17, 18, 16, 29, 23, 6]",10,0,[],15.70315613,20602,860,1,0,10,1.7651720921259988
basic,16,2,0,0,0,0,[0],1,23,"[1, 2, 4, 5, 6, 7, 8, 9, 12, 13, 15, 16, 17, 18, 19, 20, 22, 23, 25, 26, 27, 28, 29]",300,198,-1,70,620,10,0.0
basic,16,2,0,0,0,12,"[0, 12]",2,19,"[1, 2, 4, 5, 6, 7, 13, 15, 16, 17, 18, 19, 20, 22, 25, 26, 27, 28, 29]",186.8275652,3117,2919,3,169,10,1.0
basic,16,2,0,0,0,5,"[0, 12, 5]",3,14,"[1, 4, 6, 7, 13, 15, 16, 18, 19, 22, 25, 26, 28, 29]",157.2979191,4365,1248,2,88,10,1.0082498134695237
basic,16,2,0,0,0,22,"[0, 12, 5, 22]",4,11,"[1, 6, 7, 13, 15, 18, 19, 25, 26, 28, 29]",144.4916706,5647,1282,1,45,10,1.0077567572950326
basic,16,2,0,0,0,13,"[0, 12, 5, 22, 13]",5,9,"[1, 6, 7, 15, 18, 19, 25, 26, 29]",129.6256019,6798,1151,1,39,10,1.151783231594989
basic,16,2,0,0,0,18,"[0, 12, 5, 22, 13, 18]",6,4,"[7, 15, 26, 29]",94.45459106,8315,1517,1,14,10,1.1431544953850095
basic,16,2,0,0,0,7,"[0, 12, 5, 22, 13, 18, 7]",7,3,"[15, 26, 29]",84.15896092,9571,1256,1,4,10,1.1360054688421053
basic,16,2,0,0,0,26,"[0, 12, 5, 22, 13, 18, 7, 26]",8,2,"[15, 29]",61.35545242,11483,1912,1,1,10,1.1290531198668372
basic,16,2,0,0,0,15,"[0, 12, 5, 22, 13, 18, 7, 26, 15]",9,1,[29],37.14801554,13117,1634,1,0,10,1.395427297339814
basic,16,2,0,0,1,29,"[0, 12, 5, 22, 13, 18, 7, 26, 15, 29]",10,0,[],8.687516603,15052,1935,1,0,10,1.5868802136739162
basic,16,2,0,1,1,29,"[0, 12, 5, 22, 13, 18, 7, 26, 15, 29]",10,0,[],8.687516603,16059,1007,1,0,10,1.5868802136739162
basic,17,29,0,0,0,0,[0],1,29,"[1, 2, 3, 4, 5, 6, 7, 8, 9, 10, 11, 12, 13, 14, 15, 16, 17, 18, 19, 20, 21, 22, 23, 24, 25, 26, 27, 28, 29]",300,185,-1,1,78,9,0.0
basic,17,29,0,0,0,14,"[0, 14]",2,22,"[1, 3, 4, 5, 6, 7, 9, 10, 11, 12, 13, 15, 16, 17, 21, 22, 23, 25, 26, 27, 28, 29]",209.490332,3205,3020,21,110,8,1.0
basic,17,29,0,0,0,13,"[0, 14, 13]",3,18,"[1, 4, 5, 6, 7, 9, 10, 12, 15, 16, 17, 21, 22, 25, 26, 27, 28, 29]",191.4625756,4480,1275,20,75,8,1.0027006502223275
basic,17,29,0,0,0,5,"[0, 14, 13, 5]",4,15,"[1, 4, 6, 7, 9, 12, 15, 17, 21, 22, 25, 26, 27, 28, 29]",165.7526554,5812,1332,19,49,8,1.0803937325657265
basic,17,29,0,0,0,4,"[0, 14, 13, 5, 4]",5,5,"[7, 9, 12, 21, 22]",113.8585324,7313,1501,5,5,8,1.0589046774357636
basic,17,29,0,0,0,9,"[0, 14, 13, 5, 4, 9]",6,3,"[7, 12, 21]",72.82196333,8924,1611,2,1,8,1.2033484462540056
basic,17,29,0,0,0,7,"[0, 14, 13, 5, 4, 9, 7]",7,1,[12],43.75307962,10817,1893,1,0,8,1.5581999677939193
basic,17,29,0,0,1,12,"[0, 14, 13, 5, 4, 9, 7, 12]",8,0,[],30.15160911,14497,3680,1,0,8,1.747955919287298
basic,17,29,0,1,1,12,"[0, 14, 13, 5, 4, 9, 7, 12]",8,0,[],30.15160911,15922,1425,1,0,8,1.747955919287298
basic,18,41,0,0,0,0,[0],1,29,"[1, 2, 3, 4, 5, 6, 7, 8, 9, 10, 11, 12, 13, 14, 15, 16, 17, 18, 19, 20, 21, 22, 23, 24, 25, 26, 27, 28, 29]",300,178,-1,1,143,10,0.0
basic,18,41,0,0,0,21,"[0, 21]",2,28,"[1, 2, 3, 4, 5, 6, 7, 8, 9, 10, 11, 12, 13, 14, 15, 16, 17, 18, 19, 20, 22, 23, 24, 25, 26, 27, 28, 29]",251.1226024,3233,3055,50,469,8,1.0
basic,18,41,0,0,0,3,"[0, 21, 3]",3,26,"[1, 2, 5, 6, 7, 8, 9, 10, 11, 12, 13, 14, 15, 16, 17, 18, 19, 20, 22, 23, 24, 25, 26, 27, 28, 29]",218.982285,5072,1839,16,151,8,2.044702670024013
basic,18,41,0,0,0,5,"[0, 21, 3, 5]",4,16,"[1, 2, 6, 9, 10, 12, 13, 14, 17, 18, 20, 22, 24, 25, 27, 28]",184.1541355,6418,1346,8,39,8,3.691156164291917
basic,18,41,0,0,0,28,"[0, 21, 3, 5, 28]",5,12,"[2, 6, 9, 10, 12, 13, 17, 18, 20, 22, 24, 27]",170.552665,8973,2555,7,18,8,3.22012281246428
basic,18,41,0,0,0,13,"[0, 21, 3, 5, 28, 13]",6,8,"[2, 9, 10, 17, 18, 20, 22, 27]",136.0707857,10383,1410,4,5,8,3.9287733192187955
basic,18,41,0,0,0,20,"[0, 21, 3, 5, 28, 13, 20]",7,1,[18],73.42096523,11897,1514,1,0,8,2.4066051884531143
basic,18,41,0,0,1,18,"[0, 21, 3, 5, 28, 13, 20, 18]",8,0,[],2.252151833,13998,2101,1,0,8,2.4252068260007653
basic,18,41,0,1,1,18,"[0, 21, 3, 5, 28, 13, 20, 18]",8,0,[],2.252151833,14795,797,1,0,8,2.4252068260007653
basic,19,19,0,0,0,0,[0],1,29,"[1, 2, 3, 4, 5, 6, 7, 8, 9, 10, 11, 12, 13, 14, 15, 16, 17, 18, 19, 20, 21, 22, 23, 24, 25, 26, 27, 28, 29]",300,188,-1,12,149,8,0.0
basic,19,19,0,0,0,29,"[0, 29]",2,28,"[1, 2, 3, 4, 5, 6, 7, 8, 9, 10, 11, 12, 13, 14, 15, 16, 17, 18, 19, 20, 21, 22, 23, 24, 25, 26, 27, 28]",265.0715016,4102,3914,12,120,8,1.0
basic,19,19,0,0,0,9,"[0, 29, 9]",3,17,"[1, 4, 5, 6, 7, 10, 11, 12, 13, 14, 19, 20, 21, 22, 24, 27, 28]",181.7108394,6119,2017,11,65,8,1.0375842971861238
basic,19,19,0,0,0,6,"[0, 29, 9, 6]",4,12,"[4, 7, 10, 11, 13, 14, 20, 21, 22, 24, 27, 28]",140.2741407,7365,1246,11,34,8,1.0389786364356892
basic,19,19,0,0,0,28,"[0, 29, 9, 6, 28]",5,5,"[4, 11, 14, 22, 27]",89.18598161,8735,1370,2,4,8,1.2864082671854424
basic,19,19,0,0,0,4,"[0, 29, 9, 6, 28, 4]",6,4,"[11, 14, 22, 27]",78.00564173,10155,1420,2,2,8,1.3470045407445053
basic,19,19,0,0,0,14,"[0, 29, 9, 6, 28, 4, 14]",7,1,[11],27.99564273,12752,2597,1,0,8,1.3006971582050546
basic,19,19,0,0,1,11,"[0, 29, 9, 6, 28, 4, 14, 11]",8,0,[],17.1789889,14185,1433,1,0,8,1.289914895833058
basic,19,19,0,1,1,11,"[0, 29, 9, 6, 28, 4, 14, 11]",8,0,[],17.1789889,15264,1079,1,0,8,1.289914895833058
basic,20,14,0,0,0,0,[0],1,29,"[1, 2, 3, 4, 5, 6, 7, 8, 9, 10, 11, 12, 13, 14, 15, 16, 17, 18, 19, 20, 21, 22, 23, 24, 25, 26, 27, 28, 29]",300,171,-1,8,157,10,0.0
basic,20,14,0,0,0,15,"[0, 15]",2,20,"[1, 2, 3, 4, 7, 8, 9, 13, 17, 18, 19, 20, 21, 22, 23, 25, 26, 27, 28, 29]",216.7053423,2525,2354,8,102,10,1.0
basic,20,14,0,0,0,18,"[0, 15, 18]",3,13,"[1, 2, 4, 7, 8, 13, 17, 19, 20, 23, 25, 26, 28]",153.6418822,4326,1801,26,101,9,1.2185936334127205
basic,20,14,0,0,0,8,"[0, 15, 18, 8]",4,10,"[1, 2, 4, 7, 17, 19, 23, 25, 26, 28]",140.0404117,5450,1124,26,60,9,1.2207454945880838
basic,20,14,0,0,0,19,"[0, 15, 18, 8, 19]",5,9,"[1, 2, 4, 7, 17, 23, 25, 26, 28]",119.4248836,6701,1251,13,29,9,1.2211897843897934
basic,20,14,0,0,0,1,"[0, 15, 18, 8, 19, 1]",6,7,"[4, 7, 17, 23, 25, 26, 28]",104.1933374,8025,1324,8,7,9,1.2663296021165384
basic,20,14,0,0,0,23,"[0, 15, 18, 8, 19, 1, 23]",7,4,"[4, 7, 25, 26]",56.19333736,11756,3731,3,2,9,1.297045803626642
basic,20,14,0,0,0,25,"[0, 15, 18, 8, 19, 1, 23, 25]",8,1,[7],26.78245502,13568,1812,1,0,9,1.6691909345001086
basic,20,14,0,0,1,7,"[0, 15, 18, 8, 19, 1, 23, 25, 7]",9,0,[],7.084739415,14769,1201,1,0,9,1.6772279030608364
basic,20,14,0,1,1,7,"[0, 15, 18, 8, 19, 1, 23, 25, 7]",9,0,[],7.084739415,15980,1211,1,0,9,1.6772279030608364
basic,21,27,0,0,0,0,[0],1,26,"[1, 3, 5, 6, 7, 8, 9, 10, 11, 12, 13, 14, 15, 16, 17, 18, 19, 21, 22, 23, 24, 25, 26, 27, 28, 29]",300,200,-1,13,578,11,0.0
basic,21,27,0,0,0,15,"[0, 15]",2,24,"[1, 3, 5, 6, 7, 8, 9, 10, 11, 12, 13, 14, 16, 17, 18, 19, 21, 22, 23, 24, 25, 26, 27, 29]",263.7508621,2618,2418,6,219,11,1.0
basic,21,27,0,0,0,24,"[0, 15, 24]",3,20,"[1, 5, 6, 7, 8, 9, 10, 12, 13, 14, 16, 17, 18, 19, 21, 23, 25, 26, 27, 29]",246.5462115,4574,1956,6,130,11,1.130933077698322
basic,21,27,0,0,0,17,"[0, 15, 24, 17]",4,15,"[1, 6, 8, 10, 12, 13, 14, 16, 18, 19, 23, 25, 26, 27, 29]",229.9932662,5841,1267,4,60,11,1.1285538435963374
basic,21,27,0,0,0,12,"[0, 15, 24, 17, 12]",5,14,"[1, 6, 8, 10, 13, 14, 16, 18, 19, 23, 25, 26, 27, 29]",218.8129263,7220,1379,2,32,11,1.2561880288755216
basic,21,27,0,0,0,10,"[0, 15, 24, 17, 12, 10]",6,11,"[1, 8, 13, 14, 18, 19, 23, 25, 26, 27, 29]",207.7675653,8319,1099,2,28,11,1.2228289337766665
basic,21,27,0,0,0,13,"[0, 15, 24, 17, 12, 10, 13]",7,9,"[1, 8, 14, 18, 19, 23, 26, 27, 29]",167.9178476,9687,1368,2,18,11,1.3421291994761178
basic,21,27,0,0,0,19,"[0, 15, 24, 17, 12, 10, 13, 19]",8,5,"[1, 8, 14, 23, 29]",131.6825057,10985,1298,2,6,11,1.294749956153846
basic,21,27,0,0,0,8,"[0, 15, 24, 17, 12, 10, 13, 19, 8]",9,3,"[14, 23, 29]",116.816437,12675,1690,2,1,11,1.3554286578836865
basic,21,27,0,0,1,23,"[0, 15, 24, 17, 12, 10, 13, 19, 8, 23]",10,0,[],45.97859399,14013,1338,1,0,10,3.3397859539241304
basic,21,27,0,1,1,23,"[0, 15, 24, 17, 12, 10, 13, 19, 8, 23]",10,0,[],45.97859399,17613,3600,1,0,10,3.3397859539241304
basic,22,18,0,0,0,0,[0],1,28,"[1, 2, 3, 4, 5, 6, 7, 8, 9, 10, 11, 12, 13, 14, 16, 17, 18, 19, 20, 21, 22, 23, 24, 25, 26, 27, 28, 29]",300,179,-1,3,136,10,0.0
basic,22,18,0,0,0,28,"[0, 28]",2,16,"[1, 3, 5, 7, 8, 9, 12, 13, 14, 16, 20, 23, 24, 25, 26, 27]",236.4311397,4683,4504,2,19,10,1.0
basic,22,18,0,0,0,7,"[0, 28, 7]",3,15,"[1, 3, 5, 8, 9, 12, 13, 14, 16, 20, 23, 24, 25, 26, 27]",214.4084242,92220,87537,2,17,10,1.4345180696367563
basic,22,18,0,0,0,25,"[0, 28, 7, 25]",4,13,"[1, 3, 5, 8, 9, 12, 13, 14, 16, 20, 23, 26, 27]",186.6055466,98517,6297,2,15,10,1.8896451241781882
basic,22,18,0,0,0,8,"[0, 28, 7, 25, 8]",5,10,"[3, 5, 9, 12, 13, 14, 16, 23, 26, 27]",149.551532,99788,1271,2,10,10,1.590467437592877
basic,22,18,0,0,0,13,"[0, 28, 7, 25, 8, 13]",6,9,"[3, 5, 9, 12, 14, 16, 23, 26, 27]",128.4565089,101235,1447,2,5,10,1.8248274983549797
basic,22,18,0,0,0,14,"[0, 28, 7, 25, 8, 13, 14]",7,7,"[3, 5, 9, 12, 23, 26, 27]",109.4828429,102266,1031,2,3,10,1.6993534956692746
basic,22,18,0,0,0,3,"[0, 28, 7, 25, 8, 13, 14, 3]",8,3,"[5, 12, 27]",79.39962499,103431,1165,2,1,10,1.802637206541468
basic,22,18,0,0,0,5,"[0, 28, 7, 25, 8, 13, 14, 3, 5]",9,1,[12],21.21887216,104737,1306,1,0,10,1.559774889743805
basic,22,18,0,0,1,12,"[0, 28, 7, 25, 8, 13, 14, 3, 5, 12]",10,0,[],9.817117911,105806,1069,1,0,10,1.563993037384447
basic,22,18,0,1,1,12,"[0, 28, 7, 25, 8, 13, 14, 3, 5, 12]",10,0,[],9.817117911,107346,1540,1,0,10,1.563993037384447
undo,23,13,0,0,0,0,[0],1,29,"[1, 2, 3, 4, 5, 6, 7, 8, 9, 10, 11, 12, 13, 14, 15, 16, 17, 18, 19, 20, 21, 22, 23, 24, 25, 26, 27, 28, 29]",300,166,-1,60,2676,11,0.0
undo,23,13,0,0,0,24,"[0, 24]",2,28,"[1, 2, 3, 4, 5, 6, 7, 8, 9, 10, 11, 12, 13, 14, 15, 16, 17, 18, 19, 20, 21, 22, 23, 25, 26, 27, 28, 29]",288.8196601,4171,4005,16,1444,11,1.0
undo,23,13,0,0,0,23,"[0, 24, 23]",3,27,"[1, 2, 3, 4, 5, 6, 7, 8, 9, 10, 11, 12, 13, 14, 15, 16, 17, 18, 19, 20, 21, 22, 25, 26, 27, 28, 29]",243.1140806,5764,1593,2,868,11,1.0065545717039834
undo,23,13,0,0,0,28,"[0, 24, 23, 28]",4,21,"[1, 2, 3, 4, 6, 7, 9, 10, 11, 12, 13, 15, 16, 17, 19, 20, 21, 22, 26, 27, 29]",177.7458926,7938,2174,1,253,11,1.6592183354372274
undo,23,13,0,0,0,2,"[0, 24, 23, 28, 2]",5,15,"[1, 3, 6, 7, 9, 11, 12, 13, 15, 16, 17, 19, 21, 26, 29]",140.1028322,9278,1340,1,80,11,1.459046951791535
undo,23,13,0,0,0,29,"[0, 24, 23, 28, 2, 29]",6,9,"[1, 6, 7, 11, 13, 16, 17, 19, 26]",128.3981322,10854,1576,1,31,11,1.5417142413159963
undo,23,13,0,0,0,7,"[0, 24, 23, 28, 2, 29, 7]",7,8,"[1, 6, 11, 13, 16, 17, 19, 26]",113.1337947,11857,1003,1,10,11,1.77525557938341
undo,23,13,0,0,0,26,"[0, 24, 23, 28, 2, 29, 7, 26]",8,6,"[1, 6, 11, 13, 16, 19]",102.6934882,12822,965,1,4,11,2.0623372568692724
undo,23,13,0,0,0,6,"[0, 24, 23, 28, 2, 29, 7, 26, 6]",9,3,"[11, 13, 16]",82.59373697,13869,1047,1,2,11,2.002320377701536
undo,23,13,0,0,0,11,"[0, 24, 23, 28, 2, 29, 7, 26, 6, 11]",10,1,[13],63.48876379,15119,1250,1,0,11,1.8540921292495773
undo,23,13,0,0,1,13,"[0, 24, 23, 28, 2, 29, 7, 26, 6, 11, 13]",11,0,[],7.408464223,16471,1352,1,0,11,1.6123988786574368
undo,23,13,0,1,1,13,"[0, 24, 23, 28, 2, 29, 7, 26, 6, 11, 13]",11,0,[],7.408464223,17364,893,1,0,11,1.6123988786574368
undo,24,27,0,0,0,0,[0],1,26,"[1, 3, 5, 6, 7, 8, 9, 10, 11, 12, 13, 14, 15, 16, 17, 18, 19, 21, 22, 23, 24, 25, 26, 27, 28, 29]",300,175,-1,13,578,11,0.0
undo,24,27,0,0,0,15,"[0, 15]",2,24,"[1, 3, 5, 6, 7, 8, 9, 10, 11, 12, 13, 14, 16, 17, 18, 19, 21, 22, 23, 24, 25, 26, 27, 29]",263.7508621,5372,5197,6,219,11,1.0
undo,24,27,0,0,0,24,"[0, 15, 24]",3,20,"[1, 5, 6, 7, 8, 9, 10, 12, 13, 14, 16, 17, 18, 19, 21, 23, 25, 26, 27, 29]",246.5462115,6756,1384,6,130,11,1.130933077698322
undo,24,27,0,0,0,17,"[0, 15, 24, 17]",4,15,"[1, 6, 8, 10, 12, 13, 14, 16, 18, 19, 23, 25, 26, 27, 29]",229.9932662,9494,2738,4,60,11,1.1285538435963374
undo,24,27,0,0,0,12,"[0, 15, 24, 17, 12]",5,14,"[1, 6, 8, 10, 13, 14, 16, 18, 19, 23, 25, 26, 27, 29]",218.8129263,10786,1292,2,32,11,1.2561880288755216
undo,24,27,0,0,0,10,"[0, 15, 24, 17, 12, 10]",6,11,"[1, 8, 13, 14, 18, 19, 23, 25, 26, 27, 29]",207.7675653,11652,866,2,28,11,1.2228289337766665
undo,24,27,0,0,0,13,"[0, 15, 24, 17, 12, 10, 13]",7,9,"[1, 8, 14, 18, 19, 23, 26, 27, 29]",167.9178476,13106,1454,2,18,11,1.3421291994761178
undo,24,27,0,0,0,19,"[0, 15, 24, 17, 12, 10, 13, 19]",8,5,"[1, 8, 14, 23, 29]",131.6825057,14944,1838,2,6,11,1.294749956153846
undo,24,27,0,0,0,8,"[0, 15, 24, 17, 12, 10, 13, 19, 8]",9,3,"[14, 23, 29]",116.816437,15919,975,2,1,11,1.3554286578836865
undo,24,27,0,0,0,29,"[0, 15, 24, 17, 12, 10, 13, 19, 8, 29]",10,1,[14],57.61339652,17387,1468,1,0,11,1.248354519573802
undo,24,27,0,0,1,14,"[0, 15, 24, 17, 12, 10, 13, 19, 8, 29, 14]",11,0,[],13.31892734,18803,1416,1,0,11,1.562811097555156
undo,24,27,0,1,1,14,"[0, 15, 24, 17, 12, 10, 13, 19, 8, 29, 14]",11,0,[],13.31892734,20463,1660,1,0,11,1.562811097555156
undo,25,11,0,0,0,0,[0],1,25,"[1, 2, 3, 4, 5, 6, 8, 9, 10, 11, 12, 13, 14, 15, 16, 17, 18, 19, 20, 22, 23, 25, 26, 27, 28]",300,166,-1,6,374,12,0.0
undo,25,11,0,0,0,18,"[0, 18]",2,21,"[1, 2, 4, 5, 6, 8, 9, 11, 12, 13, 14, 15, 16, 17, 19, 20, 22, 23, 25, 27, 28]",236.8493864,2643,2477,157,1477,11,1.0
undo,25,11,0,0,0,27,"[0, 18, 27]",3,19,"[1, 2, 4, 5, 6, 8, 9, 11, 12, 14, 15, 16, 17, 19, 20, 22, 23, 25, 28]",212.9956655,3803,1160,157,1315,11,1.060949579704323
undo,25,11,0,0,0,8,"[0, 18, 27, 8]",4,14,"[1, 2, 4, 5, 6, 11, 12, 15, 17, 19, 22, 23, 25, 28]",142.7817068,5089,1286,68,433,11,1.0827202875589923
undo,25,11,0,0,0,17,"[0, 18, 27, 8, 17]",5,13,"[1, 2, 4, 5, 6, 11, 12, 15, 19, 22, 23, 25, 28]",128.4638857,5973,884,42,137,11,1.1662918234607762
undo,25,11,0,0,0,15,"[0, 18, 27, 8, 17, 15]",6,9,"[2, 5, 6, 11, 12, 19, 22, 25, 28]",115.8147751,6669,696,38,57,11,1.1741312027420885
undo,25,11,0,0,0,11,"[0, 18, 27, 8, 17, 15, 11]",7,7,"[2, 5, 6, 12, 19, 22, 28]",97.70400479,7416,747,24,0,11,1.1668679039564056
undo,25,11,0,0,0,28,"[0, 18, 27, 8, 17, 15, 11, 28]",8,4,"[2, 5, 19, 22]",78.28751696,8936,1520,6,0,11,1.2830334294205898
undo,25,11,0,0,0,5,"[0, 18, 27, 8, 17, 15, 11, 28, 5]",9,2,"[2, 22]",60.39897314,11542,2606,2,0,11,1.472719061667125
undo,25,11,0,0,0,2,"[0, 18, 27, 8, 17, 15, 11, 28, 5, 2]",10,1,[22],43.39897314,12553,1011,1,0,11,1.437636650715907
undo,25,11,0,0,1,22,"[0, 18, 27, 8, 17, 15, 11, 28, 5, 2, 22]",11,0,[],33.34909751,17156,4603,1,0,11,1.414339916866727
undo,25,11,0,1,1,22,"[0, 18, 27, 8, 17, 15, 11, 28, 5, 2, 22]",11,0,[],33.34909751,19377,2221,1,0,11,1.414339916866727
undo,26,25,0,0,0,0,[0],1,28,"[1, 2, 3, 4, 5, 7, 8, 9, 10, 11, 12, 13, 14, 15, 16, 17, 18, 19, 20, 21, 22, 23, 24, 25, 26, 27, 28, 29]",300,147,-1,5,94,10,0.0
undo,26,25,0,0,0,23,"[0, 23]",2,23,"[1, 2, 3, 5, 7, 8, 9, 11, 12, 13, 14, 16, 17, 19, 20, 21, 22, 24, 25, 26, 27, 28, 29]",259.7756293,2915,2768,3,33,10,1.0
undo,26,25,0,0,0,7,"[0, 23, 7]",3,16,"[1, 3, 5, 8, 9, 11, 13, 17, 19, 21, 22, 24, 26, 27, 28, 29]",181.9424744,5738,2823,1,21,9,1.0073109045884563
undo,26,25,0,0,0,24,"[0, 23, 7, 24]",4,10,"[3, 5, 8, 9, 11, 13, 19, 22, 28, 29]",157.1836376,8209,2471,1,17,9,1.0161584555781231
undo,26,25,0,0,0,9,"[0, 23, 7, 24, 9]",5,8,"[3, 8, 11, 13, 19, 22, 28, 29]",139.1558812,9843,1634,1,16,9,1.0303325523073676
undo,26,25,0,0,0,3,"[0, 23, 7, 24, 9, 3]",6,4,"[8, 11, 13, 28]",108.8903893,10992,1149,1,5,9,1.0321657704271587
undo,26,25,0,0,0,8,"[0, 23, 7, 24, 9, 3, 8]",7,2,"[13, 28]",69.68579774,12227,1235,2,0,8,1.1517293849793737
undo,26,25,0,0,1,28,"[0, 23, 7, 24, 9, 3, 8, 28]",8,0,[],29.07791673,13543,1316,1,0,8,1.251990046205978
undo,26,25,0,1,1,28,"[0, 23, 7, 24, 9, 3, 8, 28]",8,0,[],29.07791673,15480,1937,1,0,8,1.251990046205978
undo,27,3,0,0,0,0,[0],1,29,"[1, 2, 3, 4, 5, 6, 7, 8, 9, 10, 11, 12, 13, 14, 15, 16, 17, 18, 19, 20, 21, 22, 23, 24, 25, 26, 27, 28, 29]",300,173,-1,34,427,10,0.0
undo,27,3,0,0,0,8,"[0, 8]",2,28,"[1, 2, 3, 4, 5, 6, 7, 9, 10, 11, 12, 13, 14, 15, 16, 17, 18, 19, 20, 21, 22, 23, 24, 25, 26, 27, 28, 29]",239.9666759,3118,2945,1,54,10,1.0
undo,27,3,0,0,0,24,"[0, 8, 24]",3,23,"[1, 2, 3, 4, 5, 6, 7, 10, 11, 12, 14, 15, 16, 17, 18, 19, 20, 21, 22, 25, 26, 27, 28]",227.8011509,4309,1191,1,50,10,1.2267083825981846
undo,27,3,0,0,0,17,"[0, 8, 24, 17]",4,11,"[3, 4, 7, 10, 14, 15, 16, 19, 20, 21, 27]",158.4469873,6619,2310,1,18,10,1.3836579788002414
undo,27,3,0,0,0,20,"[0, 8, 24, 17, 20]",5,9,"[3, 4, 7, 10, 14, 15, 16, 19, 21]",145.7978767,7556,937,1,14,10,1.3620097615632467
undo,27,3,0,0,0,3,"[0, 8, 24, 17, 20, 3]",6,5,"[4, 10, 14, 19, 21]",125.4017986,8335,779,1,11,10,1.3956695218398405
undo,27,3,0,0,0,19,"[0, 8, 24, 17, 20, 3, 19]",7,4,"[4, 10, 14, 21]",88.06548922,9273,938,1,4,10,1.4360605238855817
undo,27,3,0,0,0,21,"[0, 8, 24, 17, 20, 3, 19, 21]",8,2,"[10, 14]",75.85893361,10229,956,1,1,10,1.4576450248605066
undo,27,3,0,0,0,14,"[0, 8, 24, 17, 20, 3, 19, 21, 14]",9,1,[10],48.95168551,11563,1334,1,0,10,1.9505702217699148
undo,27,3,0,0,1,10,"[0, 8, 24, 17, 20, 3, 19, 21, 14, 10]",10,0,[],3.498412803,14411,2848,1,0,10,1.8830527336542522
undo,27,3,0,1,1,10,"[0, 8, 24, 17, 20, 3, 19, 21, 14, 10]",10,0,[],3.498412803,15161,750,1,0,10,1.8830527336542522
undo,28,0,0,0,0,0,[0],1,27,"[2, 3, 4, 5, 6, 7, 8, 9, 10, 11, 12, 13, 14, 15, 16, 17, 19, 20, 21, 22, 23, 24, 25, 26, 27, 28, 29]",300,153,-1,104,1136,9,0.0
undo,28,0,0,0,0,5,"[0, 5]",2,24,"[2, 3, 4, 7, 8, 9, 11, 12, 13, 14, 15, 16, 17, 19, 20, 21, 22, 23, 24, 25, 26, 27, 28, 29]",164.5156836,2322,2169,5,112,9,1.0
undo,28,0,0,0,0,26,"[0, 5, 26]",3,19,"[3, 4, 7, 8, 9, 11, 12, 13, 14, 15, 17, 19, 20, 21, 22, 23, 24, 25, 28]",129.0755933,3522,1200,1,27,9,1.0579955168289483
undo,28,0,0,0,0,24,"[0, 5, 26, 24]",4,13,"[3, 4, 7, 8, 9, 11, 12, 15, 17, 19, 20, 23, 28]",111.9583505,5226,1704,9,42,8,1.1271300859643074
undo,28,0,0,0,0,15,"[0, 5, 26, 24, 15]",5,9,"[3, 4, 7, 8, 9, 11, 12, 17, 19]",88.61311544,8338,3112,5,11,8,1.1182769556286898
undo,28,0,0,0,0,7,"[0, 5, 26, 24, 15, 7]",6,5,"[3, 4, 8, 17, 19]",57.54866631,9571,1233,4,3,8,1.1826331516103858
undo,28,0,0,0,0,3,"[0, 5, 26, 24, 15, 7, 3]",7,2,"[8, 19]",33.46547715,10797,1226,2,0,8,1.2296283096726566
undo,28,0,0,0,1,8,"[0, 5, 26, 24, 15, 7, 3, 8]",8,0,[],3.0516645,15843,5046,1,0,8,1.334818349965242
undo,28,0,0,1,1,8,"[0, 5, 26, 24, 15, 7, 3, 8]",8,0,[],3.0516645,17052,1209,1,0,8,1.334818349965242
undo,29,28,0,0,0,0,[0],1,27,"[1, 2, 3, 4, 5, 6, 7, 8, 9, 10, 11, 12, 13, 14, 15, 16, 17, 18, 19, 20, 22, 23, 25, 26, 27, 28, 29]",300,143,-1,2,96,9,0.0
undo,29,28,0,0,0,3,"[0, 3]",2,26,"[1, 2, 4, 5, 6, 7, 8, 9, 10, 11, 12, 13, 14, 15, 16, 17, 18, 19, 20, 22, 23, 25, 26, 27, 28, 29]",251.0817008,3468,3325,1,64,9,1.0
undo,29,28,0,0,0,20,"[0, 3, 20]",3,20,"[2, 4, 5, 6, 7, 8, 9, 10, 11, 12, 13, 14, 15, 16, 18, 19, 22, 23, 26, 28]",209.7416475,4836,1368,2,29,8,1.6703057504555512
undo,29,28,0,0,0,15,"[0, 3, 20, 15]",4,10,"[5, 6, 8, 9, 10, 16, 22, 23, 26, 28]",157.2440286,6468,1632,1,6,7,1.4376587969564578
undo,29,28,0,0,0,23,"[0, 3, 20, 15, 23]",5,2,"[16, 22]",88.73855432,7901,1433,2,0,6,1.269324093812023
undo,29,28,0,0,1,16,"[0, 3, 20, 15, 23, 16]",6,0,[],48.42726558,9290,1389,1,0,6,1.2537020201649651
undo,29,28,0,1,1,16,"[0, 3, 20, 15, 23, 16]",6,0,[],48.42726558,10610,1320,1,0,6,1.2537020201649651
undo,30,22,0,0,0,0,[0],1,29,"[1, 2, 3, 4, 5, 6, 7, 8, 9, 10, 11, 12, 13, 14, 15, 16, 17, 18, 19, 20, 21, 22, 23, 24, 25, 26, 27, 28, 29]",300,167,-1,31,704,9,0.0
undo,30,22,0,0,0,16,"[0, 16]",2,21,"[1, 3, 6, 7, 8, 9, 11, 13, 14, 15, 17, 18, 19, 20, 21, 22, 24, 25, 27, 28, 29]",218.605897,2344,2177,17,147,9,1.0
undo,30,22,0,0,0,28,"[0, 16, 28]",3,13,"[6, 7, 9, 13, 14, 17, 19, 20, 21, 22, 24, 25, 29]",184.1675463,3321,977,12,61,9,1.047282311284478
undo,30,22,0,0,0,6,"[0, 16, 28, 6]",4,12,"[7, 9, 13, 14, 17, 19, 20, 21, 22, 24, 25, 29]",154.1675463,4769,1448,12,43,9,1.645645870580622
undo,30,22,0,0,0,9,"[0, 16, 28, 6, 9]",5,8,"[7, 14, 17, 19, 20, 21, 24, 29]",127.5404924,6269,1500,8,17,9,1.925750226630103
undo,30,22,0,0,0,19,"[0, 16, 28, 6, 9, 19]",6,6,"[7, 14, 17, 21, 24, 29]",107.1444143,7310,1041,3,7,9,2.4220750331476455
undo,30,22,0,0,0,29,"[0, 16, 28, 6, 9, 19, 29]",7,4,"[7, 14, 17, 24]",92.11111796,7991,681,2,2,9,2.6996279574991067
undo,30,22,0,0,0,14,"[0, 16, 28, 6, 9, 19, 29, 14]",8,1,[7],33.86165444,9152,1161,1,0,9,2.0544639927929462
undo,30,22,0,0,1,7,"[0, 16, 28, 6, 9, 19, 29, 14, 7]",9,0,[],20.82324963,9935,783,1,0,9,2.219817088951114
undo,30,22,0,1,1,7,"[0, 16, 28, 6, 9, 19, 29, 14, 7]",9,0,[],20.82324963,11229,1294,1,0,9,2.219817088951114
undo,31,41,0,0,0,0,[0],1,29,"[1, 2, 3, 4, 5, 6, 7, 8, 9, 10, 11, 12, 13, 14, 15, 16, 17, 18, 19, 20, 21, 22, 23, 24, 25, 26, 27, 28, 29]",300,164,-1,1,143,10,0.0
undo,31,41,0,0,0,28,"[0, 28]",2,27,"[1, 2, 3, 5, 6, 7, 8, 9, 10, 11, 12, 13, 14, 15, 16, 17, 18, 19, 20, 21, 22, 23, 24, 25, 26, 27, 29]",259.8004975,1807,1643,37,249,9,1.0
undo,31,41,0,0,0,5,"[0, 28, 5]",3,26,"[1, 2, 3, 6, 7, 8, 9, 10, 11, 12, 13, 14, 15, 16, 17, 18, 19, 20, 21, 22, 23, 24, 25, 26, 27, 29]",246.199027,4930,3123,30,182,9,1.714241539747437
undo,31,41,0,0,0,3,"[0, 28, 5, 3]",4,25,"[1, 2, 6, 7, 8, 9, 10, 11, 12, 13, 14, 15, 16, 17, 18, 19, 20, 21, 22, 23, 24, 25, 26, 27, 29]",211.3708775,7322,2392,20,93,9,2.2367972660995847
undo,31,41,0,0,0,21,"[0, 28, 5, 3, 21]",5,19,"[1, 2, 6, 9, 10, 11, 12, 13, 14, 15, 17, 18, 19, 20, 22, 24, 25, 26, 27]",179.2305601,10473,3151,12,46,9,2.470864770481327
undo,31,41,0,0,0,9,"[0, 28, 5, 3, 21, 9]",6,13,"[1, 2, 10, 12, 13, 14, 15, 17, 19, 22, 24, 25, 26]",129.8645799,13756,3283,3,17,9,2.0674559404382
undo,31,41,0,0,0,2,"[0, 28, 5, 3, 21, 9, 2]",7,9,"[1, 10, 12, 14, 15, 17, 19, 22, 24]",117.7815339,14926,1170,2,7,9,2.0139863201149533
undo,31,41,0,0,0,17,"[0, 28, 5, 3, 21, 9, 2, 17]",8,1,[10],85.22389276,16703,1777,1,0,9,3.388293326704014
undo,31,41,0,0,1,10,"[0, 28, 5, 3, 21, 9, 2, 17, 10]",9,0,[],35.97960375,18186,1483,1,0,9,3.1208433501016275
undo,31,41,0,1,1,10,"[0, 28, 5, 3, 21, 9, 2, 17, 10]",9,0,[],35.97960375,19129,943,1,0,9,3.1208433501016275
undo,32,38,0,0,0,0,[0],1,29,"[1, 2, 3, 4, 5, 6, 7, 8, 9, 10, 11, 12, 13, 14, 15, 16, 17, 18, 19, 20, 21, 22, 23, 24, 25, 26, 27, 28, 29]",300,149,-1,33,506,9,0.0
undo,32,38,0,0,0,11,"[0, 11]",2,23,"[1, 2, 3, 4, 5, 7, 10, 12, 13, 14, 15, 16, 17, 18, 19, 20, 21, 22, 24, 25, 26, 27, 28]",220.093805,3120,2971,2,40,9,1.0
undo,32,38,0,0,0,28,"[0, 11, 28]",3,16,"[1, 4, 5, 7, 10, 12, 13, 14, 15, 16, 17, 19, 20, 21, 24, 26]",193.0752928,4352,1232,2,20,9,1.0012220945316377
undo,32,38,0,0,0,16,"[0, 11, 28, 16]",4,13,"[1, 4, 5, 10, 12, 13, 14, 15, 17, 19, 20, 24, 26]",164.0752928,6236,1884,2,16,9,1.2422672958602723
undo,32,38,0,0,0,15,"[0, 11, 28, 16, 15]",5,9,"[4, 5, 13, 14, 17, 19, 20, 24, 26]",122.4579887,7419,1183,2,14,9,2.4196280466601676
undo,32,38,0,0,0,4,"[0, 11, 28, 16, 15, 4]",6,6,"[13, 17, 19, 20, 24, 26]",96.45798873,8325,906,2,9,9,2.9030072771852855
undo,32,38,0,0,0,20,"[0, 11, 28, 16, 15, 4, 20]",7,3,"[13, 17, 19]",62.51686323,9502,1177,1,2,9,4.409951139385221
undo,32,38,0,0,0,17,"[0, 11, 28, 16, 15, 4, 20, 17]",8,1,[19],38.74713459,12019,2517,1,0,9,4.030739410625113
undo,32,38,0,0,1,19,"[0, 11, 28, 16, 15, 4, 20, 17, 19]",9,0,[],17.36957626,13403,1384,1,0,9,3.511004666623391
undo,32,38,0,1,1,19,"[0, 11, 28, 16, 15, 4, 20, 17, 19]",9,0,[],17.36957626,14112,709,1,0,9,3.511004666623391
undo,33,35,0,0,0,0,[0],1,29,"[1, 2, 3, 4, 5, 6, 7, 8, 9, 10, 11, 12, 13, 14, 15, 16, 17, 18, 19, 20, 21, 22, 23, 24, 25, 26, 27, 28, 29]",300,162,-1,5,236,11,0.0
undo,33,35,0,0,0,27,"[0, 27]",2,27,"[1, 2, 4, 5, 6, 7, 8, 9, 10, 11, 12, 13, 14, 15, 16, 17, 18, 19, 20, 21, 22, 23, 24, 25, 26, 28, 29]",278.7867966,3225,3063,5,144,11,1.0
undo,33,35,0,0,0,28,"[0, 27, 28]",3,18,"[1, 2, 5, 6, 7, 9, 10, 13, 15, 16, 17, 18, 19, 21, 23, 24, 25, 26]",240.707931,5018,1793,4,100,10,1.0168505943672008
undo,33,35,0,0,0,24,"[0, 27, 28, 24]",4,15,"[1, 2, 5, 6, 9, 10, 15, 16, 17, 18, 19, 21, 23, 25, 26]",169.9831122,6543,1525,2,41,10,4.191912705949545
undo,33,35,0,0,0,15,"[0, 27, 28, 24, 15]",5,11,"[1, 2, 5, 6, 9, 17, 18, 19, 23, 25, 26]",137.7806278,8135,1592,2,24,9,2.9187289257884887
undo,33,35,0,0,0,1,"[0, 27, 28, 24, 15, 1]",6,8,"[5, 6, 9, 17, 18, 19, 23, 26]",114.9333085,9382,1247,2,10,9,3.8715525528780255
undo,33,35,0,0,0,17,"[0, 27, 28, 24, 15, 1, 17]",7,5,"[5, 9, 18, 19, 23]",99.1219202,10409,1027,1,4,9,5.064868649200329
undo,33,35,0,0,0,9,"[0, 27, 28, 24, 15, 1, 17, 9]",8,1,[18],26.32082131,12803,2394,1,0,9,2.4345559799220666
undo,33,35,0,0,1,18,"[0, 27, 28, 24, 15, 1, 17, 9, 18]",9,0,[],6.295836913,14127,1324,1,0,9,2.2833032374785205
undo,33,35,0,1,1,18,"[0, 27, 28, 24, 15, 1, 17, 9, 18]",9,0,[],6.295836913,14945,818,1,0,9,2.2833032374785205
undo,34,14,0,0,0,0,[0],1,29,"[1, 2, 3, 4, 5, 6, 7, 8, 9, 10, 11, 12, 13, 14, 15, 16, 17, 18, 19, 20, 21, 22, 23, 24, 25, 26, 27, 28, 29]",300,161,-1,8,157,10,0.0
undo,34,14,0,0,0,18,"[0, 18]",2,17,"[1, 2, 3, 4, 7, 8, 9, 13, 15, 17, 19, 20, 22, 23, 25, 26, 28]",179.8958785,3037,2876,18,136,9,1.0
undo,34,14,0,0,0,8,"[0, 18, 8]",3,13,"[1, 2, 4, 7, 13, 15, 17, 19, 20, 23, 25, 26, 28]",166.294408,4558,1521,18,99,9,1.0203858410107731
undo,34,14,0,0,0,1,"[0, 18, 8, 1]",4,10,"[2, 4, 7, 15, 17, 19, 23, 25, 26, 28]",142.6935606,6435,1877,11,42,9,1.0173392374431458
undo,34,14,0,0,0,19,"[0, 18, 8, 1, 19]",5,9,"[2, 4, 7, 15, 17, 23, 25, 26, 28]",127.4620143,7353,918,11,22,9,1.1668364376922102
undo,34,14,0,0,0,26,"[0, 18, 8, 1, 19, 26]",6,4,"[4, 7, 23, 25]",74.23608081,9285,1932,2,4,9,1.1379310743287543
undo,34,14,0,0,0,23,"[0, 18, 8, 1, 19, 26, 23]",7,3,"[4, 7, 25]",63.41942699,10294,1009,2,1,9,1.25860317400474
undo,34,14,0,0,0,25,"[0, 18, 8, 1, 19, 26, 23, 25]",8,1,[7],34.00854465,11370,1076,1,0,9,1.6250439771619034
undo,34,14,0,0,1,7,"[0, 18, 8, 1, 19, 26, 23, 25, 7]",9,0,[],14.31082904,12469,1099,1,0,9,1.6358514342320594
undo,34,14,0,1,1,7,"[0, 18, 8, 1, 19, 26, 23, 25, 7]",9,0,[],14.31082904,13011,542,1,0,9,1.6358514342320594
undo,35,45,0,0,0,0,[0],1,24,"[1, 2, 3, 4, 5, 6, 7, 9, 10, 11, 12, 14, 15, 16, 17, 19, 20, 21, 22, 23, 24, 25, 27, 29]",300,164,-1,6,248,10,0.0
undo,35,45,0,0,0,17,"[0, 17]",2,22,"[1, 2, 3, 4, 5, 6, 7, 9, 10, 11, 12, 14, 15, 16, 19, 20, 21, 22, 23, 24, 25, 29]",235.867325,2628,2464,1,34,10,1.0
undo,35,45,0,0,0,24,"[0, 17, 24]",3,20,"[1, 2, 3, 4, 5, 6, 7, 9, 10, 11, 12, 14, 15, 16, 19, 20, 21, 22, 23, 29]",193.8078433,7288,4660,1,33,10,1.0309432256229287
undo,35,45,0,0,0,7,"[0, 17, 24, 7]",4,18,"[1, 2, 3, 4, 5, 6, 9, 10, 12, 14, 15, 16, 19, 20, 21, 22, 23, 29]",159.3985423,10189,2901,1,32,10,1.059763151913087
undo,35,45,0,0,0,2,"[0, 17, 24, 7, 2]",5,12,"[3, 4, 6, 10, 12, 14, 16, 19, 20, 22, 23, 29]",121.3853866,11371,1182,1,23,10,1.0656581932115423
undo,35,45,0,0,0,3,"[0, 17, 24, 7, 2, 3]",6,8,"[6, 10, 12, 14, 16, 20, 22, 29]",96.06740884,13251,1880,1,13,10,1.1368250049574795
undo,35,45,0,0,0,29,"[0, 17, 24, 7, 2, 3, 29]",7,5,"[6, 10, 12, 20, 22]",76.06740884,14373,1122,1,5,10,1.390376182346372
undo,35,45,0,0,0,10,"[0, 17, 24, 7, 2, 3, 29, 10]",8,2,"[6, 12]",54.52674961,15839,1466,1,1,10,1.6682270697663164
undo,35,45,0,0,0,6,"[0, 17, 24, 7, 2, 3, 29, 10, 6]",9,1,[12],28.27794012,16980,1141,1,0,10,1.5776211572942243
undo,35,45,0,0,1,12,"[0, 17, 24, 7, 2, 3, 29, 10, 6, 12]",10,0,[],8.15332832,18308,1328,1,0,10,1.536035114105263
undo,35,45,0,1,1,12,"[0, 17, 24, 7, 2, 3, 29, 10, 6, 12]",10,0,[],8.15332832,18898,590,1,0,10,1.536035114105263
undo,36,36,0,0,0,0,[0],1,24,"[2, 4, 5, 6, 7, 8, 9, 10, 12, 13, 14, 15, 16, 17, 18, 19, 20, 22, 23, 25, 26, 27, 28, 29]",300,166,-1,2,200,10,0.0
undo,36,36,0,0,0,9,"[0, 9]",2,16,"[2, 4, 8, 10, 12, 13, 16, 17, 18, 19, 23, 25, 26, 27, 28, 29]",230.9348134,2073,1907,81,367,8,1.0
undo,36,36,0,0,0,17,"[0, 9, 17]",3,13,"[2, 4, 8, 10, 12, 13, 16, 18, 19, 23, 25, 27, 29]",204.6860039,3320,1247,22,90,8,1.0084584538853834
undo,36,36,0,0,0,19,"[0, 9, 17, 19]",4,12,"[2, 4, 8, 10, 12, 13, 16, 18, 23, 25, 27, 29]",176.7933525,4436,1116,8,25,8,1.5984695375617641
undo,36,36,0,0,0,2,"[0, 9, 17, 19, 2]",5,8,"[8, 10, 12, 13, 16, 18, 25, 27]",139.6719302,5526,1090,3,6,8,1.4197222355264698
undo,36,36,0,0,0,25,"[0, 9, 17, 19, 2, 25]",6,4,"[10, 12, 13, 16]",114.6719302,6523,997,2,3,8,1.618724672336267
undo,36,36,0,0,0,13,"[0, 9, 17, 19, 2, 25, 13]",7,2,"[10, 12]",94.08066987,8519,1996,2,0,8,2.099469552875175
undo,36,36,0,0,1,12,"[0, 9, 17, 19, 2, 25, 13, 12]",8,0,[],14.90365301,10494,1975,1,0,8,12.840093699859885
undo,36,36,0,1,1,12,"[0, 9, 17, 19, 2, 25, 13, 12]",8,0,[],14.90365301,11296,802,1,0,8,12.840093699859885
undo,37,5,0,0,0,0,[0],1,29,"[1, 2, 3, 4, 5, 6, 7, 8, 9, 10, 11, 12, 13, 14, 15, 16, 17, 18, 19, 20, 21, 22, 23, 24, 25, 26, 27, 28, 29]",300,167,-1,5,139,9,0.0
undo,37,5,0,0,0,23,"[0, 23]",2,27,"[1, 2, 3, 4, 5, 6, 7, 8, 9, 10, 11, 12, 13, 14, 15, 16, 17, 18, 19, 20, 21, 22, 24, 25, 26, 27, 28]",249.8402552,4736,4569,3,75,9,1.0
undo,37,5,0,0,0,24,"[0, 23, 24]",3,24,"[1, 2, 3, 4, 5, 6, 8, 9, 10, 11, 12, 13, 14, 15, 16, 17, 18, 19, 21, 22, 25, 26, 27, 28]",226.7534624,6470,1734,20,147,8,1.0113799830159869
undo,37,5,0,0,0,17,"[0, 23, 24, 17]",4,18,"[2, 4, 5, 6, 8, 9, 10, 12, 13, 14, 15, 18, 19, 22, 25, 26, 27, 28]",191.7677511,7878,1408,6,49,8,1.0136434296829369
undo,37,5,0,0,0,5,"[0, 23, 24, 17, 5]",5,9,"[4, 6, 8, 12, 14, 15, 18, 19, 25]",148.7212646,10431,2553,6,10,8,1.0121300076484332
undo,37,5,0,0,0,18,"[0, 23, 24, 17, 5, 18]",6,2,"[4, 6]",81.65413401,13403,2972,2,0,8,1.0767325926564988
undo,37,5,0,0,0,4,"[0, 23, 24, 17, 5, 18, 4]",7,1,[6],43.23538858,14775,1372,1,0,8,1.465289859501957
undo,37,5,0,0,1,6,"[0, 23, 24, 17, 5, 18, 4, 6]",8,0,[],31.193794,15502,727,1,0,8,1.6096179999999998
undo,37,5,0,1,1,6,"[0, 23, 24, 17, 5, 18, 4, 6]",8,0,[],31.193794,16095,593,1,0,8,1.6096179999999998
undo,38,15,0,0,0,0,[0],1,25,"[1, 2, 3, 4, 7, 8, 9, 10, 11, 12, 13, 14, 15, 16, 18, 20, 21, 22, 23, 24, 25, 26, 27, 28, 29]",300,161,-1,4,65,9,0.0
undo,38,15,0,0,0,7,"[0, 7]",2,23,"[1, 3, 4, 8, 9, 10, 11, 12, 13, 14, 15, 16, 18, 20, 21, 22, 23, 24, 25, 26, 27, 28, 29]",215.1884442,3419,3258,30,107,8,1.0
undo,38,15,0,0,0,16,"[0, 7, 16]",3,14,"[3, 4, 9, 10, 11, 12, 13, 14, 15, 18, 21, 22, 25, 27]",171.5306843,4572,1153,11,27,8,1.1253230463291073
undo,38,15,0,0,0,11,"[0, 7, 16, 11]",4,10,"[3, 4, 12, 13, 14, 15, 18, 21, 22, 27]",145.5114606,5754,1182,6,10,8,1.2441772230587118
undo,38,15,0,0,0,3,"[0, 7, 16, 11, 3]",5,8,"[4, 12, 13, 14, 15, 18, 21, 22]",134.1097064,6875,1121,6,4,8,1.253153736954923
undo,38,15,0,0,0,22,"[0, 7, 16, 11, 3, 22]",6,5,"[4, 13, 14, 15, 18]",84.38043933,8424,1549,2,3,8,1.249784727890499
undo,38,15,0,0,0,13,"[0, 7, 16, 11, 3, 22, 13]",7,1,[15],56.22018365,10144,1720,1,0,8,1.2168322223118198
undo,38,15,0,0,1,15,"[0, 7, 16, 11, 3, 22, 13, 15]",8,0,[],40.95584612,11035,891,1,0,8,1.3190981999760136
undo,38,15,0,1,1,15,"[0, 7, 16, 11, 3, 22, 13, 15]",8,0,[],40.95584612,11778,743,1,0,8,1.3190981999760136
undo,39,9,0,0,0,0,[0],1,27,"[1, 3, 4, 5, 6, 7, 8, 9, 10, 11, 13, 14, 15, 16, 17, 18, 19, 20, 21, 22, 23, 24, 25, 26, 27, 28, 29]",300,164,-1,2,182,10,0.0
undo,39,9,0,0,0,25,"[0, 25]",2,24,"[1, 3, 4, 5, 6, 7, 8, 9, 10, 11, 13, 15, 16, 17, 18, 19, 20, 21, 22, 23, 24, 26, 27, 28]",275.9168108,3538,3374,2,104,10,1.0
undo,39,9,0,0,0,10,"[0, 25, 10]",3,20,"[3, 4, 5, 7, 8, 9, 11, 13, 15, 16, 17, 18, 19, 20, 21, 22, 23, 26, 27, 28]",236.0670932,4805,1267,2,76,10,1.1767014107208227
undo,39,9,0,0,0,28,"[0, 25, 10, 28]",4,19,"[3, 4, 5, 7, 8, 9, 11, 13, 15, 16, 17, 18, 19, 20, 21, 22, 23, 26, 27]",179.0670932,7104,2299,1,17,10,1.628144700364468
undo,39,9,0,0,0,8,"[0, 25, 10, 28, 8]",5,15,"[3, 4, 7, 9, 11, 16, 17, 18, 19, 20, 21, 22, 23, 26, 27]",168.2504393,8105,1001,1,10,10,2.0656593525143574
undo,39,9,0,0,0,23,"[0, 25, 10, 28, 8, 23]",6,12,"[3, 4, 7, 9, 11, 18, 19, 20, 21, 22, 26, 27]",146.7795288,9838,1733,1,7,10,2.573408160646792
undo,39,9,0,0,0,9,"[0, 25, 10, 28, 8, 23, 9]",7,9,"[3, 4, 7, 11, 18, 19, 20, 21, 26]",124.418849,11806,1968,1,5,10,2.3579094141840375
undo,39,9,0,0,0,26,"[0, 25, 10, 28, 8, 23, 9, 26]",8,3,"[18, 20, 21]",67.77081284,15041,3235,1,2,10,1.9878439811785502
undo,39,9,0,0,0,21,"[0, 25, 10, 28, 8, 23, 9, 26, 21]",9,1,[20],13.86348496,16994,1953,1,0,10,2.4139880801675853
undo,39,9,0,0,1,20,"[0, 25, 10, 28, 8, 23, 9, 26, 21, 20]",10,0,[],1.780438983,18721,1727,1,0,10,2.3546911124891037
undo,39,9,0,1,1,20,"[0, 25, 10, 28, 8, 23, 9, 26, 21, 20]",10,0,[],1.780438983,19582,861,1,0,10,2.3546911124891037
undo,40,30,0,0,0,0,[0],1,19,"[3, 4, 5, 7, 9, 11, 16, 17, 18, 19, 20, 21, 22, 24, 25, 26, 27, 28, 29]",300,216,-1,5,41,8,0.0
undo,40,30,0,0,0,27,"[0, 27]",2,10,"[3, 5, 7, 9, 18, 19, 20, 24, 25, 29]",90.59608409,3727,3511,7,22,6,1.0
undo,40,30,0,0,0,3,"[0, 27, 3]",3,8,"[5, 7, 18, 19, 20, 24, 25, 29]",71.49111091,5008,1281,5,9,6,1.0022223300201003
undo,40,30,0,0,0,18,"[0, 27, 3, 18]",4,4,"[5, 7, 24, 29]",53.24282332,7233,2225,2,2,6,1.010282260954695
undo,40,30,0,0,0,29,"[0, 27, 3, 18, 29]",5,1,[5],33.92961541,10911,3678,1,0,6,1.0928689392815363
undo,40,30,0,0,1,5,"[0, 27, 3, 18, 29, 5]",6,0,[],1.913994218,15607,4696,1,0,6,1.2327079192680896
undo,40,30,0,1,1,5,"[0, 27, 3, 18, 29, 5]",6,0,[],1.913994218,16151,544,1,0,6,1.2327079192680896
undo,41,12,0,0,0,0,[0],1,29,"[1, 2, 3, 4, 5, 6, 7, 8, 9, 10, 11, 12, 13, 14, 15, 16, 17, 18, 19, 20, 21, 22, 23, 24, 25, 26, 27, 28, 29]",300,163,-1,2,32,9,0.0
undo,41,12,0,0,0,16,"[0, 16]",2,16,"[2, 4, 5, 6, 7, 12, 13, 14, 18, 19, 22, 23, 24, 25, 27, 29]",209.2916762,3903,3740,3,38,8,1.0
undo,41,12,0,0,0,4,"[0, 16, 4]",3,11,"[2, 5, 6, 7, 12, 14, 19, 22, 24, 25, 27]",175.0864135,6772,2869,1,16,8,1.00004499617691
undo,41,12,0,0,0,12,"[0, 16, 4, 12]",4,6,"[14, 19, 22, 24, 25, 27]",132.8963673,7862,1090,1,8,8,1.0113942412768022
undo,41,12,0,0,0,27,"[0, 16, 4, 12, 27]",5,4,"[14, 19, 22, 24]",108.5447759,9175,1313,1,3,8,1.1193150037844588
undo,41,12,0,0,0,14,"[0, 16, 4, 12, 27, 14]",6,2,"[19, 24]",79.89167838,10707,1532,1,1,8,1.1821826897854277
undo,41,12,0,0,0,24,"[0, 16, 4, 12, 27, 14, 24]",7,1,[19],62.68702784,12104,1397,1,0,8,1.3297400833764192
undo,41,12,0,0,1,19,"[0, 16, 4, 12, 27, 14, 24, 19]",8,0,[],3.865263163,13887,1783,1,0,8,2.27325645157102
undo,41,12,0,1,1,19,"[0, 16, 4, 12, 27, 14, 24, 19]",8,0,[],3.865263163,14662,775,1,0,8,2.27325645157102
undo,42,18,0,0,0,0,[0],1,28,"[1, 2, 3, 4, 5, 6, 7, 8, 9, 10, 11, 12, 13, 14, 16, 17, 18, 19, 20, 21, 22, 23, 24, 25, 26, 27, 28, 29]",300,197,-1,3,136,10,0.0
undo,42,18,0,0,0,28,"[0, 28]",2,16,"[1, 3, 5, 7, 8, 9, 12, 13, 14, 16, 20, 23, 24, 25, 26, 27]",236.4311397,3197,3000,2,19,10,1.0
undo,42,18,0,0,0,7,"[0, 28, 7]",3,15,"[1, 3, 5, 8, 9, 12, 13, 14, 16, 20, 23, 24, 25, 26, 27]",214.4084242,4777,1580,2,17,10,1.4345180696367563
undo,42,18,0,0,0,25,"[0, 28, 7, 25]",4,13,"[1, 3, 5, 8, 9, 12, 13, 14, 16, 20, 23, 26, 27]",186.6055466,5828,1051,2,15,10,1.8896451241781882
undo,42,18,0,0,0,8,"[0, 28, 7, 25, 8]",5,10,"[3, 5, 9, 12, 13, 14, 16, 23, 26, 27]",149.551532,7206,1378,2,10,10,1.590467437592877
undo,42,18,0,0,0,3,"[0, 28, 7, 25, 8, 3]",6,6,"[5, 12, 13, 14, 23, 27]",121.4801943,8822,1616,1,10,9,1.4587755974793148
undo,42,18,0,0,0,5,"[0, 28, 7, 25, 8, 3, 5]",7,2,"[12, 27]",63.29944145,10014,1192,1,1,9,1.324334937860345
undo,42,18,0,0,0,12,"[0, 28, 7, 25, 8, 3, 5, 12]",8,1,[27],51.8976872,11689,1675,1,0,9,1.3371922112868397
undo,42,18,0,0,1,27,"[0, 28, 7, 25, 8, 3, 5, 12, 27]",9,0,[],11.17914106,14107,2418,1,0,9,1.4648883530615529
undo,42,18,0,1,1,27,"[0, 28, 7, 25, 8, 3, 5, 12, 27]",9,0,[],11.17914106,14747,640,1,0,9,1.4648883530615529
undo,43,34,0,0,0,0,[0],1,25,"[1, 3, 4, 5, 6, 7, 8, 9, 10, 11, 12, 13, 15, 18, 19, 20, 21, 22, 23, 24, 25, 26, 27, 28, 29]",300,196,-1,12,367,10,0.0
undo,43,34,0,0,0,13,"[0, 13]",2,24,"[1, 3, 4, 5, 6, 7, 8, 9, 10, 11, 12, 15, 18, 19, 20, 21, 22, 23, 24, 25, 26, 27, 28, 29]",279.9750156,3404,3208,12,331,10,1.0
undo,43,34,0,0,0,1,"[0, 13, 1]",3,16,"[3, 5, 7, 8, 9, 10, 11, 12, 19, 21, 22, 23, 24, 25, 27, 29]",211.8574701,5122,1718,3,92,10,1.0010381285747127
undo,43,34,0,0,0,8,"[0, 13, 1, 8]",4,14,"[3, 5, 7, 9, 10, 11, 12, 19, 22, 23, 24, 25, 27, 29]",201.0871405,5893,771,2,54,10,1.1636807
undo,43,34,0,0,0,25,"[0, 13, 1, 8, 25]",5,12,"[3, 5, 7, 9, 10, 11, 12, 22, 23, 24, 27, 29]",183.999133,8094,2201,2,28,10,1.1396208815936457
undo,43,34,0,0,0,24,"[0, 13, 1, 8, 25, 24]",6,11,"[3, 5, 7, 9, 10, 11, 12, 22, 23, 27, 29]",166.5062774,9325,1231,2,23,10,1.374180768736554
undo,43,34,0,0,0,12,"[0, 13, 1, 8, 25, 24, 12]",7,7,"[7, 9, 10, 11, 22, 23, 27]",115.4670767,11110,1785,1,8,10,1.4994254760835948
undo,43,34,0,0,0,7,"[0, 13, 1, 8, 25, 24, 12, 7]",8,5,"[9, 11, 22, 23, 27]",100.4337804,12140,1030,1,4,10,1.758992610425009
undo,43,34,0,0,0,23,"[0, 13, 1, 8, 25, 24, 12, 7, 23]",9,1,[27],72.27352467,13539,1399,1,0,10,2.399781305190153
undo,43,34,0,0,1,27,"[0, 13, 1, 8, 25, 24, 12, 7, 23, 27]",10,0,[],18.60789321,15738,2199,1,0,10,4.766619878750327
undo,43,34,0,1,1,27,"[0, 13, 1, 8, 25, 24, 12, 7, 23, 27]",10,0,[],18.60789321,16814,1076,1,0,10,4.766619878750327
undo,44,23,0,0,0,0,[0],1,28,"[1, 2, 3, 4, 5, 6, 7, 8, 9, 10, 11, 12, 13, 14, 15, 16, 17, 18, 19, 20, 21, 22, 23, 25, 26, 27, 28, 29]",300,163,-1,76,2626,10,0.0
undo,44,23,0,0,0,13,"[0, 13]",2,19,"[1, 2, 3, 5, 6, 7, 8, 9, 10, 12, 14, 17, 18, 19, 21, 22, 23, 27, 29]",189.3202819,2886,2723,9,168,10,1.0
undo,44,23,0,0,0,27,"[0, 13, 27]",3,9,"[2, 6, 7, 9, 12, 14, 18, 22, 29]",144.2203928,4255,1369,8,171,9,1.088011971315647
undo,44,23,0,0,0,6,"[0, 13, 27, 6]",4,8,"[2, 7, 9, 12, 14, 18, 22, 29]",115.9184494,6690,2435,8,49,9,1.225224360691471
undo,44,23,0,0,0,2,"[0, 13, 27, 6, 2]",5,7,"[7, 9, 12, 14, 18, 22, 29]",97.47936045,7777,1087,6,15,9,1.4841158051494536
undo,44,23,0,0,0,12,"[0, 13, 27, 6, 2, 12]",6,4,"[9, 14, 22, 29]",83.58691646,8891,1114,3,4,9,1.7653585280197779
undo,44,23,0,0,0,9,"[0, 13, 27, 6, 2, 12, 9]",7,3,"[14, 22, 29]",69.2690954,10672,1781,2,2,9,1.7660448539061004
undo,44,23,0,0,0,14,"[0, 13, 27, 6, 2, 12, 9, 14]",8,2,"[22, 29]",58.82878889,11671,999,2,0,9,1.7117692037670997
undo,44,23,0,0,1,29,"[0, 13, 27, 6, 2, 12, 9, 14, 29]",9,0,[],11.39462398,13303,1632,1,0,9,1.8715373192227016
undo,44,23,0,1,1,29,"[0, 13, 27, 6, 2, 12, 9, 14, 29]",9,0,[],11.39462398,13962,659,1,0,9,1.8715373192227016
undo,45,43,0,0,0,0,[0],1,23,"[1, 2, 3, 4, 5, 6, 7, 9, 10, 11, 12, 14, 15, 16, 17, 19, 20, 21, 22, 23, 25, 27, 29]",300,197,-1,16,556,12,0.0
undo,45,43,0,0,0,29,"[0, 29]",2,22,"[1, 2, 3, 4, 5, 6, 7, 9, 10, 11, 12, 14, 15, 16, 17, 19, 20, 21, 22, 23, 25, 27]",277.909278,2674,2477,16,520,12,1.0
undo,45,43,0,0,0,20,"[0, 29, 20]",3,20,"[1, 2, 3, 4, 6, 7, 9, 10, 11, 12, 14, 15, 16, 17, 19, 21, 22, 23, 25, 27]",254.4785289,3607,933,15,422,12,1.082311746871282
undo,45,43,0,0,0,16,"[0, 29, 20, 16]",4,19,"[1, 2, 3, 4, 6, 7, 9, 10, 11, 12, 14, 15, 17, 19, 21, 22, 23, 25, 27]",231.8511119,4770,1163,15,389,12,1.215201926898219
undo,45,43,0,0,0,11,"[0, 29, 20, 16, 11]",5,17,"[1, 2, 3, 4, 6, 7, 9, 10, 12, 14, 15, 17, 19, 21, 22, 23, 25]",196.7227758,5994,1224,12,188,12,1.1349145516483516
undo,45,43,0,0,0,6,"[0, 29, 20, 16, 11, 6]",6,15,"[1, 2, 3, 4, 7, 10, 12, 14, 15, 17, 19, 21, 22, 23, 25]",176.1072477,7089,1095,10,100,12,1.123330873754209
undo,45,43,0,0,0,1,"[0, 29, 20, 16, 11, 6, 1]",7,10,"[2, 3, 4, 7, 12, 14, 15, 19, 22, 25]",127.8371741,8404,1315,7,36,12,1.1959789832191803
undo,45,43,0,0,0,19,"[0, 29, 20, 16, 11, 6, 1, 19]",8,8,"[3, 4, 7, 12, 14, 15, 22, 25]",99.65916852,9458,1054,4,16,12,1.442084860173939
undo,45,43,0,0,0,22,"[0, 29, 20, 16, 11, 6, 1, 19, 22]",9,6,"[3, 7, 12, 14, 15, 25]",79.04364039,10255,797,3,7,12,1.852594491960324
undo,45,43,0,0,0,15,"[0, 29, 20, 16, 11, 6, 1, 19, 22, 15]",10,3,"[3, 12, 25]",36.93663385,11689,1434,1,2,12,3.181700864872386
undo,45,43,0,0,1,25,"[0, 29, 20, 16, 11, 6, 1, 19, 22, 15, 25]",11,0,[],14.26506575,12939,1250,1,0,11,3.602782281385743
undo,45,43,1,0,0,15,"[0, 29, 20, 16, 11, 6, 1, 19, 22, 15]",10,3,"[3, 12, 25]",36.93663385,16781,3842,1,2,12,3.181700864872386
undo,45,43,0,0,0,12,"[0, 29, 20, 16, 11, 6, 1, 19, 22, 15, 12]",11,1,[3],17.62342593,20612,3831,1,0,12,2.8563716598142643
undo,45,43,0,0,1,3,"[0, 29, 20, 16, 11, 6, 1, 19, 22, 15, 12, 3]",12,0,[],4.623425933,23371,2759,1,0,12,2.6514910057152816
undo,45,43,0,1,1,3,"[0, 29, 20, 16, 11, 6, 1, 19, 22, 15, 12, 3]",12,0,[],4.623425933,25931,2560,1,0,12,2.6514910057152816
undo,46,32,0,0,0,0,[0],1,29,"[1, 2, 3, 4, 5, 6, 7, 8, 9, 10, 11, 12, 13, 14, 15, 16, 17, 18, 19, 20, 21, 22, 23, 24, 25, 26, 27, 28, 29]",300,165,-1,17,359,10,0.0
undo,46,32,0,0,0,15,"[0, 15]",2,24,"[2, 3, 4, 5, 6, 7, 8, 9, 10, 11, 12, 13, 14, 16, 17, 19, 20, 22, 23, 24, 25, 26, 27, 28]",214.6185032,5364,5199,11,153,9,1.0
undo,46,32,0,0,0,28,"[0, 15, 28]",3,21,"[2, 3, 5, 7, 8, 9, 10, 11, 12, 13, 14, 16, 17, 19, 20, 22, 23, 24, 25, 26, 27]",203.2167489,7423,2059,11,119,9,1.000160051986942
undo,46,32,0,0,0,12,"[0, 15, 28, 12]",4,19,"[2, 3, 5, 7, 8, 9, 10, 11, 13, 16, 17, 19, 20, 22, 23, 24, 25, 26, 27]",184.243083,8490,1067,8,71,9,1.0281484763748023
undo,46,32,0,0,0,16,"[0, 15, 28, 12, 16]",5,17,"[2, 3, 5, 7, 8, 9, 10, 11, 13, 17, 19, 20, 22, 23, 24, 26, 27]",168.5906071,9559,1069,6,38,9,1.1190771370096
undo,46,32,0,0,0,22,"[0, 15, 28, 12, 16, 22]",6,10,"[2, 3, 5, 8, 9, 10, 11, 17, 20, 27]",134.7527585,10632,1073,4,16,9,1.1702311155319893
undo,46,32,0,0,0,9,"[0, 15, 28, 12, 16, 22, 9]",7,6,"[2, 8, 10, 17, 20, 27]",112.5491552,11610,978,2,4,9,1.2381424719932013
undo,46,32,0,0,0,8,"[0, 15, 28, 12, 16, 22, 9, 8]",8,1,[20],67.42709849,13757,2147,1,0,9,1.187013645273504
undo,46,32,0,0,1,20,"[0, 15, 28, 12, 16, 22, 9, 8, 20]",9,0,[],17.09818036,15262,1505,1,0,9,1.3986201165175596
undo,46,32,0,1,1,20,"[0, 15, 28, 12, 16, 22, 9, 8, 20]",9,0,[],17.09818036,16032,770,1,0,9,1.3986201165175596
undo,47,21,0,0,0,0,[0],1,29,"[1, 2, 3, 4, 5, 6, 7, 8, 9, 10, 11, 12, 13, 14, 15, 16, 17, 18, 19, 20, 21, 22, 23, 24, 25, 26, 27, 28, 29]",300,164,-1,84,830,9,0.0
undo,47,21,0,0,0,20,"[0, 20]",2,28,"[1, 2, 3, 4, 5, 6, 7, 8, 9, 10, 11, 12, 13, 14, 15, 16, 17, 18, 19, 21, 22, 23, 24, 25, 26, 27, 28, 29]",217.6228187,2971,2807,6,67,9,1.0
undo,47,21,0,0,0,22,"[0, 20, 22]",3,23,"[2, 4, 6, 7, 8, 9, 10, 11, 12, 13, 14, 15, 16, 17, 18, 19, 21, 23, 24, 25, 26, 27, 29]",189.3916303,4080,1109,6,47,9,1.3451865712078994
undo,47,21,0,0,0,18,"[0, 20, 22, 18]",4,20,"[2, 4, 6, 7, 8, 9, 10, 11, 12, 14, 15, 16, 17, 21, 23, 24, 25, 26, 27, 29]",162.9908727,5187,1107,4,25,9,2.3191924394507706
undo,47,21,0,0,0,29,"[0, 20, 22, 18, 29]",5,16,"[2, 4, 6, 7, 8, 10, 12, 14, 15, 16, 17, 21, 23, 24, 25, 27]",134.3377751,7088,1901,2,10,9,1.9554738681863184
undo,47,21,0,0,0,25,"[0, 20, 22, 18, 29, 25]",6,5,"[4, 14, 17, 21, 23]",89.11609892,8505,1417,2,5,9,3.5255206171255487
undo,47,21,0,0,0,21,"[0, 20, 22, 18, 29, 25, 21]",7,3,"[4, 14, 23]",39.78051339,9644,1139,1,2,9,2.8949037931733077
undo,47,21,0,0,1,23,"[0, 20, 22, 18, 29, 25, 21, 23]",8,0,[],10.1663276,11737,2093,1,0,8,2.9270156242749494
undo,47,21,0,1,1,23,"[0, 20, 22, 18, 29, 25, 21, 23]",8,0,[],10.1663276,12314,577,1,0,8,2.9270156242749494
undo,48,44,0,0,0,0,[0],1,29,"[1, 2, 3, 4, 5, 6, 7, 8, 9, 10, 11, 12, 13, 14, 15, 16, 17, 18, 19, 20, 21, 22, 23, 24, 25, 26, 27, 28, 29]",300,156,-1,13,126,7,0.0
undo,48,44,0,0,0,11,"[0, 11]",2,18,"[4, 5, 6, 7, 8, 9, 12, 14, 16, 17, 19, 20, 22, 23, 24, 25, 26, 28]",152.7790776,3936,3780,5,34,7,1.0
undo,48,44,0,0,0,24,"[0, 11, 24]",3,13,"[4, 5, 7, 8, 9, 12, 14, 17, 20, 22, 23, 25, 28]",125.8532535,5319,1383,5,23,7,1.1588941745226709
undo,48,44,0,0,0,9,"[0, 11, 24, 9]",4,7,"[4, 7, 8, 12, 14, 20, 23]",93.09657483,7320,2001,2,8,7,1.3039383713641313
undo,48,44,0,0,0,4,"[0, 11, 24, 9, 4]",5,5,"[7, 12, 14, 20, 23]",73.39885923,8145,825,2,3,7,1.2901330701441578
undo,48,44,0,0,0,7,"[0, 11, 24, 9, 4, 7]",6,1,[23],42.38273439,9788,1643,1,0,7,1.2468141312360979
undo,48,44,0,0,1,23,"[0, 11, 24, 9, 4, 7, 23]",7,0,[],23.27776121,11437,1649,1,0,7,1.2635191782769477
undo,48,44,0,1,1,23,"[0, 11, 24, 9, 4, 7, 23]",7,0,[],23.27776121,11980,543,1,0,7,1.2635191782769477
undo,49,1,0,0,0,0,[0],1,26,"[1, 2, 4, 5, 7, 8, 9, 10, 11, 12, 13, 14, 15, 16, 17, 18, 19, 20, 21, 22, 23, 24, 25, 26, 28, 29]",300,179,-1,6,74,7,0.0
undo,49,1,0,0,0,14,"[0, 14]",2,19,"[1, 4, 5, 8, 9, 13, 15, 17, 18, 19, 20, 21, 22, 23, 24, 25, 26, 28, 29]",200.1901808,1902,1723,5,42,7,1.0
undo,49,1,0,0,0,17,"[0, 14, 17]",3,15,"[1, 4, 5, 8, 9, 13, 15, 18, 19, 20, 22, 23, 25, 28, 29]",147.8356204,3188,1286,5,27,7,1.0028844724416826
undo,49,1,0,0,0,1,"[0, 14, 17, 1]",4,12,"[4, 5, 8, 9, 15, 18, 20, 22, 23, 25, 28, 29]",123.4840291,4337,1149,5,15,7,1.0264985578353567
undo,49,1,0,0,0,28,"[0, 14, 17, 1, 28]",5,5,"[9, 15, 22, 23, 29]",88.59850198,5528,1191,5,3,7,1.0339861575999345
undo,49,1,0,0,0,23,"[0, 14, 17, 1, 28, 23]",6,2,"[15, 22]",51.70676849,7687,2159,2,0,7,1.0327458250705703
undo,49,1,0,0,1,15,"[0, 14, 17, 1, 28, 23, 15]",7,0,[],20.81987807,10524,2837,1,0,7,1.1948681641401226
undo,49,1,0,1,1,15,"[0, 14, 17, 1, 28, 23, 15]",7,0,[],20.81987807,11130,606,1,0,7,1.1948681641401226
undo,50,4,0,0,0,0,[0],1,26,"[3, 4, 5, 6, 7, 8, 10, 11, 12, 13, 14, 15, 16, 17, 18, 19, 20, 21, 22, 23, 24, 25, 26, 27, 28, 29]",300,169,-1,4,489,10,0.0
undo,50,4,0,0,0,28,"[0, 28]",2,21,"[3, 4, 5, 6, 10, 11, 12, 13, 14, 15, 16, 17, 19, 20, 21, 22, 23, 24, 25, 26, 27]",225.9392142,2026,1857,2,216,10,1.0
undo,50,4,0,0,0,14,"[0, 28, 14]",3,13,"[3, 4, 5, 6, 11, 13, 16, 17, 20, 21, 22, 24, 25]",159.6972335,6243,4217,1,26,10,1.0273973946789214
undo,50,4,0,0,0,25,"[0, 28, 14, 25]",4,12,"[3, 4, 5, 6, 11, 13, 16, 17, 20, 21, 22, 24]",143.572718,7110,867,1,25,10,1.233547772313525
undo,50,4,0,0,0,11,"[0, 28, 14, 25, 11]",5,10,"[3, 4, 5, 6, 13, 16, 17, 20, 21, 22]",124.7844238,7989,879,1,15,10,1.425978575879479
undo,50,4,0,0,0,16,"[0, 28, 14, 25, 11, 16]",6,9,"[3, 4, 5, 6, 13, 17, 20, 21, 22]",109.7844238,8903,914,1,12,10,1.3799325158051412
undo,50,4,0,0,0,17,"[0, 28, 14, 25, 11, 16, 17]",7,5,"[3, 5, 20, 21, 22]",83.70761416,12492,3589,1,5,10,1.3195184878861832
undo,50,4,0,0,0,21,"[0, 28, 14, 25, 11, 16, 17, 21]",8,1,[22],34.45317274,14688,2196,1,0,9,1.7966566629354186
undo,50,4,0,0,1,22,"[0, 28, 14, 25, 11, 16, 17, 21, 22]",9,0,[],23.40781172,16454,1766,1,0,9,1.7433011729935863
undo,50,4,0,1,1,22,"[0, 28, 14, 25, 11, 16, 17, 21, 22]",9,0,[],23.40781172,17045,591,1,0,9,1.7433011729935863
undo,51,20,0,0,0,0,[0],1,21,"[1, 2, 3, 4, 5, 6, 7, 8, 9, 12, 17, 18, 20, 21, 22, 23, 25, 26, 27, 28, 29]",300,197,-1,1,9,9,0.0
undo,51,20,0,0,0,1,"[0, 1]",2,14,"[3, 4, 5, 6, 8, 9, 12, 20, 21, 23, 26, 27, 28, 29]",197.3501096,2905,2708,1,9,8,1.0
undo,51,20,0,0,0,5,"[0, 1, 5]",3,12,"[4, 6, 8, 9, 12, 20, 21, 23, 26, 27, 28, 29]",160.675868,4345,1440,1,8,8,1.1088946720668915
undo,51,20,0,0,0,21,"[0, 1, 5, 21]",4,8,"[4, 6, 8, 9, 20, 23, 27, 28]",115.675868,5424,1079,1,6,8,1.0805828994591202
undo,51,20,0,0,0,8,"[0, 1, 5, 21, 8]",5,5,"[6, 9, 23, 27, 28]",98.21161876,6958,1534,1,5,8,1.0976815296746363
undo,51,20,0,0,0,27,"[0, 1, 5, 21, 8, 27]",6,1,[23],57.98724804,8307,1349,1,0,7,1.2719907843846436
undo,51,20,0,0,1,23,"[0, 1, 5, 21, 8, 27, 23]",7,0,[],5.977633539,10242,1935,1,0,7,1.2908014903941913
undo,51,20,0,1,1,23,"[0, 1, 5, 21, 8, 27, 23]",7,0,[],5.977633539,10681,439,1,0,7,1.2908014903941913
undo,52,2,0,0,0,0,[0],1,23,"[1, 2, 4, 5, 6, 7, 8, 9, 12, 13, 15, 16, 17, 18, 19, 20, 22, 23, 25, 26, 27, 28, 29]",300,154,-1,70,620,10,0.0
undo,52,2,0,0,0,12,"[0, 12]",2,19,"[1, 2, 4, 5, 6, 7, 13, 15, 16, 17, 18, 19, 20, 22, 25, 26, 27, 28, 29]",186.8275652,3288,3134,3,169,10,1.0
undo,52,2,0,0,0,29,"[0, 12, 29]",3,9,"[5, 7, 13, 15, 18, 22, 25, 26, 28]",100.7345922,5054,1766,18,30,7,1.085467842710171
undo,52,2,0,0,0,15,"[0, 12, 29, 15]",4,6,"[5, 7, 13, 18, 22, 26]",72.27409325,6520,1466,11,9,7,1.208950152091277
undo,52,2,0,0,0,7,"[0, 12, 29, 15, 7]",5,5,"[5, 13, 18, 22, 26]",57.50927019,7671,1151,4,3,7,1.276266999
undo,52,2,0,0,0,18,"[0, 12, 29, 15, 7, 18]",6,3,"[13, 22, 26]",47.21364005,8671,1000,3,0,7,1.4058881939474934
undo,52,2,0,0,1,13,"[0, 12, 29, 15, 7, 18, 13]",7,0,[],12.04262926,9924,1253,1,0,7,1.9466802215074912
undo,52,2,0,1,1,13,"[0, 12, 29, 15, 7, 18, 13]",7,0,[],12.04262926,12196,2272,1,0,7,1.9466802215074912
undo,53,33,0,0,0,0,[0],1,23,"[1, 2, 5, 7, 8, 11, 12, 13, 14, 15, 16, 17, 18, 19, 20, 21, 23, 24, 25, 26, 27, 28, 29]",300,168,-1,5,108,9,0.0
undo,53,33,0,0,0,21,"[0, 21]",2,17,"[2, 5, 7, 8, 11, 13, 14, 16, 17, 18, 19, 20, 24, 26, 27, 28, 29]",174.4611614,3774,3606,21,129,8,1.0
undo,53,33,0,0,0,17,"[0, 21, 17]",3,12,"[2, 7, 11, 13, 14, 16, 18, 19, 20, 24, 26, 29]",135.8218032,5403,1629,3,35,8,1.0302064673538902
undo,53,33,0,0,0,13,"[0, 21, 17, 13]",4,10,"[2, 7, 11, 14, 16, 19, 20, 24, 26, 29]",113.0182947,8587,3184,3,18,8,1.2307555582916028
undo,53,33,0,0,0,19,"[0, 21, 17, 13, 19]",5,6,"[7, 14, 16, 24, 26, 29]",87.52319715,11303,2716,3,6,8,1.267959080158969
undo,53,33,0,0,0,24,"[0, 21, 17, 13, 19, 24]",6,2,"[7, 14]",45.47560506,12878,1575,1,1,8,1.2501192148258107
undo,53,33,0,0,0,7,"[0, 21, 17, 13, 19, 24, 7]",7,1,[14],16.26944133,14088,1210,1,0,8,1.3314375425758662
undo,53,33,0,0,1,14,"[0, 21, 17, 13, 19, 24, 7, 14]",8,0,[],1.403372582,15736,1648,1,0,8,1.37637211918224
undo,53,33,0,1,1,14,"[0, 21, 17, 13, 19, 24, 7, 14]",8,0,[],1.403372582,16712,976,1,0,8,1.37637211918224
undo,54,17,0,0,0,0,[0],1,28,"[1, 2, 3, 4, 5, 6, 7, 8, 9, 10, 11, 12, 13, 14, 15, 16, 17, 18, 19, 20, 22, 23, 24, 25, 26, 27, 28, 29]",300,189,-1,2,73,8,0.0
undo,54,17,0,0,0,19,"[0, 19]",2,9,"[3, 4, 5, 10, 11, 18, 20, 22, 28]",138.1049723,4539,4350,1,8,6,1.0
undo,54,17,0,0,0,5,"[0, 19, 5]",3,5,"[3, 10, 11, 22, 28]",98.81120687,8558,4019,1,5,6,1.1200340368749155
undo,54,17,0,0,0,28,"[0, 19, 5, 28]",4,2,"[3, 11]",60.32744406,9964,1406,1,1,6,1.1548774814009009
undo,54,17,0,0,0,3,"[0, 19, 5, 28, 3]",5,1,[11],26.32744406,11382,1418,1,0,6,1.444690353691831
undo,54,17,0,0,1,11,"[0, 19, 5, 28, 3, 11]",6,0,[],0.154939406,15681,4299,1,0,6,1.4783074152117983
undo,54,17,0,1,1,11,"[0, 19, 5, 28, 3, 11]",6,0,[],0.154939406,16199,518,1,0,6,1.4783074152117983
undo,55,19,0,0,0,0,[0],1,29,"[1, 2, 3, 4, 5, 6, 7, 8, 9, 10, 11, 12, 13, 14, 15, 16, 17, 18, 19, 20, 21, 22, 23, 24, 25, 26, 27, 28, 29]",300,162,-1,12,149,8,0.0
undo,55,19,0,0,0,29,"[0, 29]",2,28,"[1, 2, 3, 4, 5, 6, 7, 8, 9, 10, 11, 12, 13, 14, 15, 16, 17, 18, 19, 20, 21, 22, 23, 24, 25, 26, 27, 28]",265.0715016,5720,5558,12,120,8,1.0
undo,55,19,0,0,0,9,"[0, 29, 9]",3,17,"[1, 4, 5, 6, 7, 10, 11, 12, 13, 14, 19, 20, 21, 22, 24, 27, 28]",181.7108394,8488,2768,11,65,8,1.0375842971861238
undo,55,19,0,0,0,6,"[0, 29, 9, 6]",4,12,"[4, 7, 10, 11, 13, 14, 20, 21, 22, 24, 27, 28]",140.2741407,9957,1469,11,34,8,1.0389786364356892
undo,55,19,0,0,0,14,"[0, 29, 9, 6, 14]",5,7,"[4, 10, 11, 20, 22, 24, 28]",80.59164747,11622,1665,3,6,8,1.0491884155331486
undo,55,19,0,0,0,11,"[0, 29, 9, 6, 14, 11]",6,5,"[4, 20, 22, 24, 28]",69.77499364,13272,1650,3,2,8,1.050030420094996
undo,55,19,0,0,0,20,"[0, 29, 9, 6, 14, 11, 20]",7,1,[22],21.97332003,15104,1832,1,0,8,1.2297732331070566
undo,55,19,0,0,1,22,"[0, 29, 9, 6, 14, 11, 20, 22]",8,0,[],8.82037359,16003,899,1,0,8,1.3667995105273867
undo,55,19,0,1,1,22,"[0, 29, 9, 6, 14, 11, 20, 22]",8,0,[],8.82037359,16529,526,1,0,8,1.3667995105273867
undo,56,31,0,0,0,0,[0],1,27,"[1, 3, 4, 5, 6, 7, 8, 10, 11, 12, 13, 14, 15, 16, 17, 18, 19, 20, 21, 22, 23, 24, 25, 26, 27, 28, 29]",300,196,-1,2,87,10,0.0
undo,56,31,0,0,0,14,"[0, 14]",2,25,"[1, 3, 5, 6, 7, 8, 10, 11, 12, 13, 15, 16, 17, 18, 19, 20, 21, 22, 23, 24, 25, 26, 27, 28, 29]",263.861378,3276,3080,2,59,10,1.0
undo,56,31,0,0,0,27,"[0, 14, 27]",3,22,"[1, 3, 5, 6, 7, 8, 10, 11, 12, 13, 15, 16, 17, 18, 19, 20, 21, 22, 24, 25, 28, 29]",235.6833724,4588,1312,1,39,10,1.5881859159302467
undo,56,31,0,0,0,8,"[0, 14, 27, 8]",4,20,"[1, 3, 5, 6, 7, 10, 11, 12, 13, 16, 17, 18, 19, 20, 21, 22, 24, 25, 28, 29]",224.6380114,5370,782,1,36,10,2.1665048452331277
undo,56,31,0,0,0,18,"[0, 14, 27, 8, 18]",5,15,"[1, 5, 6, 7, 11, 12, 13, 16, 17, 19, 20, 22, 25, 28, 29]",188.7911147,6876,1506,1,26,10,1.7273375741920205
undo,56,31,0,0,0,17,"[0, 14, 27, 8, 18, 17]",6,13,"[1, 5, 6, 7, 11, 12, 13, 16, 19, 20, 22, 25, 28]",159.584951,7836,960,1,13,10,1.551192427769927
undo,56,31,0,0,0,11,"[0, 14, 27, 8, 18, 17, 11]",7,7,"[5, 12, 16, 19, 22, 25, 28]",118.4753414,9103,1267,1,4,10,2.9650760544203494
undo,56,31,0,0,0,5,"[0, 14, 27, 8, 18, 17, 11, 5]",8,2,"[16, 28]",74.79468207,10837,1734,1,1,10,2.56711965625205
undo,56,31,0,0,0,28,"[0, 14, 27, 8, 18, 17, 11, 5, 28]",9,1,[16],54.57093365,12073,1236,1,0,10,2.2865510762058148
undo,56,31,0,0,1,16,"[0, 14, 27, 8, 18, 17, 11, 5, 28, 16]",10,0,[],20.95546102,14176,2103,1,0,10,2.089356850786318
undo,56,31,0,1,1,16,"[0, 14, 27, 8, 18, 17, 11, 5, 28, 16]",10,0,[],20.95546102,14680,504,1,0,10,2.089356850786318
undo,57,7,0,0,0,0,[0],1,29,"[1, 2, 3, 4, 5, 6, 7, 8, 9, 10, 11, 12, 13, 14, 15, 16, 17, 18, 19, 20, 21, 22, 23, 24, 25, 26, 27, 28, 29]",300,164,-1,3,79,9,0.0
undo,57,7,0,0,0,15,"[0, 15]",2,19,"[2, 4, 5, 6, 7, 8, 9, 10, 13, 14, 16, 18, 19, 20, 21, 23, 25, 27, 28]",230.9348134,5554,5390,2,38,9,1.0
undo,57,7,0,0,0,6,"[0, 15, 6]",3,18,"[2, 4, 5, 7, 8, 9, 10, 13, 14, 16, 18, 19, 20, 21, 23, 25, 27, 28]",205.854941,6671,1117,2,36,9,1.366719602896943
undo,57,7,0,0,0,4,"[0, 15, 6, 4]",4,8,"[2, 7, 13, 16, 18, 19, 20, 25]",123.3625171,8037,1366,8,24,8,1.2578516160075839
undo,57,7,0,0,0,25,"[0, 15, 6, 4, 25]",5,6,"[7, 13, 16, 18, 19, 20]",98.62388334,8956,919,2,4,8,1.7007244483303274
undo,57,7,0,0,0,20,"[0, 15, 6, 4, 25, 20]",6,3,"[7, 18, 19]",66.84338618,9996,1040,1,2,8,1.5552762892917555
undo,57,7,0,0,0,18,"[0, 15, 6, 4, 25, 20, 18]",7,1,[7],54.03713771,10854,858,1,0,8,1.7179629516902586
undo,57,7,0,0,1,7,"[0, 15, 6, 4, 25, 20, 18, 7]",8,0,[],12.80608145,12540,1686,1,0,8,1.5699048673149887
undo,57,7,0,1,1,7,"[0, 15, 6, 4, 25, 20, 18, 7]",8,0,[],12.80608145,13380,840,1,0,8,1.5699048673149887
undo,58,26,0,0,0,0,[0],1,29,"[1, 2, 3, 4, 5, 6, 7, 8, 9, 10, 11, 12, 13, 14, 15, 16, 17, 18, 19, 20, 21, 22, 23, 24, 25, 26, 27, 28, 29]",300,165,-1,9,226,9,0.0
undo,58,26,0,0,0,10,"[0, 10]",2,6,"[4, 6, 14, 16, 17, 29]",138.1822012,3756,3591,9,66,7,1.0
undo,58,26,0,0,0,6,"[0, 10, 6]",3,5,"[4, 14, 16, 17, 29]",108.9076389,5056,1300,8,23,7,1.1897813099332413
undo,58,26,0,0,0,14,"[0, 10, 6, 14]",4,4,"[4, 16, 17, 29]",87.88384285,6024,968,4,6,7,1.3162481558218453
undo,58,26,0,0,0,17,"[0, 10, 6, 14, 17]",5,3,"[4, 16, 29]",65.41163779,7146,1122,3,1,7,1.6510075497064465
undo,58,26,0,0,0,4,"[0, 10, 6, 14, 17, 4]",6,1,[29],44.31661468,9304,2158,1,0,7,2.1095586782058087
undo,58,26,0,0,1,29,"[0, 10, 6, 14, 17, 4, 29]",7,0,[],20.31661468,10389,1085,1,0,7,2.288952413143475
undo,58,26,0,1,1,29,"[0, 10, 6, 14, 17, 4, 29]",7,0,[],20.31661468,12331,1942,1,0,7,2.288952413143475
undo,59,40,0,0,0,0,[0],1,29,"[1, 2, 3, 4, 5, 6, 7, 8, 9, 10, 11, 12, 13, 14, 15, 16, 17, 18, 19, 20, 21, 22, 23, 24, 25, 26, 27, 28, 29]",300,198,-1,8,191,9,0.0
undo,59,40,0,0,0,1,"[0, 1]",2,18,"[2, 5, 6, 7, 8, 9, 10, 11, 13, 15, 17, 18, 19, 21, 22, 23, 27, 29]",247.8463808,5159,4961,4,80,9,1.0
undo,59,40,0,0,0,6,"[0, 1, 6]",3,17,"[2, 5, 7, 8, 9, 10, 11, 13, 15, 17, 18, 19, 21, 22, 23, 27, 29]",227.7466295,6096,937,4,74,9,1.0459427008232034
undo,59,40,0,0,0,9,"[0, 1, 6, 9]",4,10,"[2, 5, 8, 11, 18, 19, 21, 22, 23, 27]",159.146338,7743,1647,17,39,8,1.142098432552584
undo,59,40,0,0,0,18,"[0, 1, 6, 9, 18]",5,9,"[2, 5, 8, 11, 19, 21, 22, 23, 27]",142.5933926,8805,1062,13,14,8,1.3288108654802917
undo,59,40,0,0,0,23,"[0, 1, 6, 9, 18, 23]",6,6,"[2, 5, 8, 19, 21, 22]",108.5933926,9956,1151,6,4,8,2.0180513009829646
undo,59,40,0,0,0,5,"[0, 1, 6, 9, 18, 23, 5]",7,2,"[19, 22]",80.29144922,12822,2866,2,0,8,1.786484562843798
undo,59,40,0,0,1,22,"[0, 1, 6, 9, 18, 23, 5, 22]",8,0,[],17.68154585,16413,3591,1,0,8,1.5941038894571624
undo,59,40,0,1,1,22,"[0, 1, 6, 9, 18, 23, 5, 22]",8,0,[],17.68154585,17481,1068,1,0,8,1.5941038894571624
undo,60,6,0,0,0,0,[0],1,29,"[1, 2, 3, 4, 5, 6, 7, 8, 9, 10, 11, 12, 13, 14, 15, 16, 17, 18, 19, 20, 21, 22, 23, 24, 25, 26, 27, 28, 29]",300,148,-1,180,4304,10,0.0
undo,60,6,0,0,0,3,"[0, 3]",2,28,"[1, 2, 4, 5, 6, 7, 8, 9, 10, 11, 12, 13, 14, 15, 16, 17, 18, 19, 20, 21, 22, 23, 24, 25, 26, 27, 28, 29]",266.4738908,3385,3237,90,1607,10,1.0
undo,60,6,0,0,0,18,"[0, 3, 18]",3,27,"[1, 2, 4, 5, 6, 7, 8, 9, 10, 11, 12, 13, 14, 15, 16, 17, 19, 20, 21, 22, 23, 24, 25, 26, 27, 28, 29]",237.4738908,4886,1501,34,516,10,1.0266750028725786
undo,60,6,0,0,0,17,"[0, 3, 18, 17]",4,26,"[1, 2, 4, 5, 6, 7, 8, 9, 10, 11, 12, 13, 14, 15, 16, 19, 20, 21, 22, 23, 24, 25, 26, 27, 28, 29]",223.5455025,6051,1165,17,243,10,1.0832900829093166
undo,60,6,0,0,0,10,"[0, 3, 18, 17, 10]",5,22,"[1, 2, 4, 5, 6, 7, 8, 9, 11, 13, 14, 16, 19, 20, 21, 22, 23, 24, 26, 27, 28, 29]",203.8224196,7285,1234,10,111,10,1.140294203414171
undo,60,6,0,0,0,24,"[0, 3, 18, 17, 10, 24]",6,19,"[1, 2, 4, 5, 6, 7, 8, 11, 13, 14, 16, 20, 21, 22, 23, 26, 27, 28, 29]",190.4060117,10001,2716,10,80,10,1.1264281153820843
undo,60,6,0,0,0,16,"[0, 3, 18, 17, 10, 24, 16]",7,13,"[1, 2, 6, 7, 13, 14, 20, 21, 22, 23, 26, 27, 29]",134.3703088,12834,2833,6,21,10,2.2946652061367843
undo,60,6,0,0,0,29,"[0, 3, 18, 17, 10, 24, 16, 29]",8,7,"[6, 14, 20, 21, 22, 23, 27]",97.68243615,14208,1374,5,5,10,1.8995488998077483
undo,60,6,0,0,0,23,"[0, 3, 18, 17, 10, 24, 16, 29, 23]",9,2,"[6, 22]",50.16401866,15785,1577,2,0,10,1.8616504050291767
undo,60,6,0,0,1,6,"[0, 3, 18, 17, 10, 24, 16, 29, 23, 6]",10,0,[],14.8086796,17002,1217,1,0,10,1.7707258119152334
undo,60,6,0,1,1,6,"[0, 3, 18, 17, 10, 24, 16, 29, 23, 6]",10,0,[],14.8086796,17528,526,1,0,10,1.7707258119152334
undo,61,29,0,0,0,0,[0],1,29,"[1, 2, 3, 4, 5, 6, 7, 8, 9, 10, 11, 12, 13, 14, 15, 16, 17, 18, 19, 20, 21, 22, 23, 24, 25, 26, 27, 28, 29]",300,162,-1,1,78,9,0.0
undo,61,29,0,0,0,14,"[0, 14]",2,22,"[1, 3, 4, 5, 6, 7, 9, 10, 11, 12, 13, 15, 16, 17, 21, 22, 23, 25, 26, 27, 28, 29]",209.490332,4356,4194,21,110,8,1.0
undo,61,29,0,0,0,13,"[0, 14, 13]",3,18,"[1, 4, 5, 6, 7, 9, 10, 12, 15, 16, 17, 21, 22, 25, 26, 27, 28, 29]",191.4625756,6506,2150,20,75,8,1.0027006502223275
undo,61,29,0,0,0,5,"[0, 14, 13, 5]",4,15,"[1, 4, 6, 7, 9, 12, 15, 17, 21, 22, 25, 26, 27, 28, 29]",165.7526554,7924,1418,19,49,8,1.0803937325657265
undo,61,29,0,0,0,4,"[0, 14, 13, 5, 4]",5,5,"[7, 9, 12, 21, 22]",113.8585324,9488,1564,5,5,8,1.0589046774357636
undo,61,29,0,0,0,9,"[0, 14, 13, 5, 4, 9]",6,3,"[7, 12, 21]",72.82196333,10644,1156,2,1,8,1.2033484462540056
undo,61,29,0,0,0,7,"[0, 14, 13, 5, 4, 9, 7]",7,1,[12],43.75307962,12102,1458,1,0,8,1.5581999677939193
undo,61,29,0,0,1,12,"[0, 14, 13, 5, 4, 9, 7, 12]",8,0,[],30.15160911,13156,1054,1,0,8,1.747955919287298
undo,61,29,0,1,1,12,"[0, 14, 13, 5, 4, 9, 7, 12]",8,0,[],30.15160911,13795,639,1,0,8,1.747955919287298
undo,62,37,0,0,0,0,[0],1,29,"[1, 2, 3, 4, 5, 6, 7, 8, 9, 10, 11, 12, 13, 14, 15, 16, 17, 18, 19, 20, 21, 22, 23, 24, 25, 26, 27, 28, 29]",300,167,-1,6,168,10,0.0
undo,62,37,0,0,0,18,"[0, 18]",2,19,"[1, 2, 4, 6, 7, 9, 10, 12, 14, 15, 17, 19, 20, 21, 22, 23, 26, 28, 29]",202.4090168,1938,1771,6,89,10,1.0
undo,62,37,0,0,0,22,"[0, 18, 22]",3,9,"[1, 2, 4, 7, 15, 19, 20, 21, 26]",136.9720242,4795,2857,15,58,9,1.001057447339584
undo,62,37,0,0,0,4,"[0, 18, 22, 4]",4,8,"[1, 2, 7, 15, 19, 20, 21, 26]",111.9720242,8222,3427,8,28,9,1.1568597805027683
undo,62,37,0,0,0,2,"[0, 18, 22, 4, 2]",5,7,"[1, 7, 15, 19, 20, 21, 26]",100.57027,9205,983,7,12,9,1.3192232340552885
undo,62,37,0,0,0,1,"[0, 18, 22, 4, 2, 1]",6,6,"[7, 15, 19, 20, 21, 26]",83.36561943,10422,1217,7,4,9,1.3683384389764814
undo,62,37,0,0,0,15,"[0, 18, 22, 4, 2, 1, 15]",7,3,"[20, 21, 26]",43.40313702,12189,1767,2,1,9,1.5420751881752959
undo,62,37,0,0,0,21,"[0, 18, 22, 4, 2, 1, 15, 21]",8,1,[20],28.40313702,13440,1251,1,0,9,1.7500538973351742
undo,62,37,0,0,1,20,"[0, 18, 22, 4, 2, 1, 15, 21, 20]",9,0,[],13.98093192,14348,908,1,0,9,1.9081087151684184
undo,62,37,0,1,1,20,"[0, 18, 22, 4, 2, 1, 15, 21, 20]",9,0,[],13.98093192,14898,550,1,0,9,1.9081087151684184
undo,63,16,0,0,0,0,[0],1,29,"[1, 2, 3, 4, 5, 6, 7, 8, 9, 10, 11, 12, 13, 14, 15, 16, 17, 18, 19, 20, 21, 22, 23, 24, 25, 26, 27, 28, 29]",300,168,-1,13,161,9,0.0
undo,63,16,0,0,0,17,"[0, 17]",2,27,"[1, 2, 3, 4, 5, 7, 8, 9, 10, 11, 12, 13, 14, 15, 16, 18, 19, 20, 21, 22, 23, 24, 25, 26, 27, 28, 29]",241.3058776,3588,3420,2,58,9,1.0
undo,63,16,0,0,0,16,"[0, 17, 16]",3,26,"[1, 2, 3, 4, 5, 7, 8, 9, 10, 11, 12, 13, 14, 15, 18, 19, 20, 21, 22, 23, 24, 25, 26, 27, 28, 29]",212.9862731,4824,1236,2,52,9,1.0529535521792848
undo,63,16,0,0,0,8,"[0, 17, 16, 8]",4,19,"[2, 3, 4, 5, 9, 12, 13, 14, 15, 19, 20, 21, 22, 23, 25, 26, 27, 28, 29]",164.6127266,6176,1352,2,38,9,1.0915134501573105
undo,63,16,0,0,0,9,"[0, 17, 16, 8, 9]",5,8,"[3, 4, 5, 12, 13, 15, 20, 25]",91.60587764,7956,1780,5,10,8,1.057620191586214
undo,63,16,0,0,0,25,"[0, 17, 16, 8, 9, 25]",6,3,"[5, 15, 20]",78.79962916,9255,1299,3,1,8,1.2005281769341676
undo,63,16,0,0,0,20,"[0, 17, 16, 8, 9, 25, 20]",7,2,"[5, 15]",66.15051852,10689,1434,2,0,8,1.2923806332911973
undo,63,16,0,0,1,5,"[0, 17, 16, 8, 9, 25, 20, 5]",8,0,[],3.468782744,15424,4735,1,0,8,1.567873249094374
undo,63,16,0,1,1,5,"[0, 17, 16, 8, 9, 25, 20, 5]",8,0,[],3.468782744,16098,674,1,0,8,1.567873249094374
undo,64,24,0,0,0,0,[0],1,29,"[1, 2, 3, 4, 5, 6, 7, 8, 9, 10, 11, 12, 13, 14, 15, 16, 17, 18, 19, 20, 21, 22, 23, 24, 25, 26, 27, 28, 29]",300,182,-1,4,76,10,0.0
undo,64,24,0,0,0,16,"[0, 16]",2,28,"[1, 2, 3, 4, 5, 6, 7, 8, 9, 10, 11, 12, 13, 14, 15, 17, 18, 19, 20, 21, 22, 23, 24, 25, 26, 27, 28, 29]",210.3562607,4924,4742,13,110,9,1.0
undo,64,24,0,0,0,22,"[0, 16, 22]",3,27,"[1, 2, 3, 4, 5, 6, 7, 8, 9, 10, 11, 12, 13, 14, 15, 17, 18, 19, 20, 21, 23, 24, 25, 26, 27, 28, 29]",192.3285043,6829,1905,7,54,9,1.0217425143037777
undo,64,24,0,0,0,8,"[0, 16, 22, 8]",4,21,"[1, 2, 3, 4, 6, 9, 10, 11, 13, 14, 15, 17, 20, 21, 23, 24, 25, 26, 27, 28, 29]",178.9120964,8156,1327,4,28,9,1.0996636936037951
undo,64,24,0,0,0,15,"[0, 16, 22, 8, 15]",5,16,"[3, 4, 6, 9, 10, 11, 13, 14, 17, 23, 24, 25, 26, 27, 28, 29]",148.025206,9126,970,3,17,9,1.2704773343758617
undo,64,24,0,0,0,28,"[0, 16, 22, 8, 15, 28]",6,8,"[3, 4, 9, 11, 13, 23, 26, 27]",102.7482803,10172,1046,3,5,9,1.1981967578189556
undo,64,24,0,0,0,23,"[0, 16, 22, 8, 15, 28, 23]",7,3,"[9, 11, 27]",83.72198273,11123,951,3,1,9,1.2275650852813986
undo,64,24,0,0,0,11,"[0, 16, 22, 8, 15, 28, 23, 11]",8,2,"[9, 27]",56.79615869,13306,2183,2,0,9,1.2107937989822568
undo,64,24,0,0,1,27,"[0, 16, 22, 8, 15, 28, 23, 11, 27]",9,0,[],28.99328114,15507,2201,1,0,9,1.1865620449755248
undo,64,24,0,1,1,27,"[0, 16, 22, 8, 15, 28, 23, 11, 27]",9,0,[],28.99328114,16766,1259,1,0,9,1.1865620449755248
undo,65,8,0,0,0,0,[0],1,29,"[1, 2, 3, 4, 5, 6, 7, 8, 9, 10, 11, 12, 13, 14, 15, 16, 17, 18, 19, 20, 21, 22, 23, 24, 25, 26, 27, 28, 29]",300,210,-1,10,149,9,0.0
undo,65,8,0,0,0,5,"[0, 5]",2,28,"[1, 2, 3, 4, 6, 7, 8, 9, 10, 11, 12, 13, 14, 15, 16, 17, 18, 19, 20, 21, 22, 23, 24, 25, 26, 27, 28, 29]",254.5137383,2845,2635,10,100,9,1.0
undo,65,8,0,0,0,14,"[0, 5, 14]",3,20,"[1, 2, 3, 4, 6, 7, 11, 15, 16, 17, 18, 19, 20, 21, 22, 23, 24, 25, 28, 29]",214.5512559,5639,2794,4,36,9,1.0001019035932595
undo,65,8,0,0,0,17,"[0, 5, 14, 17]",4,15,"[1, 4, 6, 7, 11, 15, 16, 18, 19, 20, 22, 23, 24, 25, 28]",177.5377449,9131,3492,4,16,9,1.121197267659591
undo,65,8,0,0,0,11,"[0, 5, 14, 17, 11]",5,11,"[1, 4, 15, 16, 18, 19, 22, 23, 24, 25, 28]",152.3583883,10202,1071,4,8,9,1.1277254166016362
undo,65,8,0,0,0,24,"[0, 5, 14, 17, 11, 24]",6,3,"[15, 16, 28]",115.1428001,12223,2021,2,2,9,1.1227411011978805
undo,65,8,0,0,0,15,"[0, 5, 14, 17, 11, 24, 15]",7,2,"[16, 28]",98.37974552,13075,852,2,0,9,1.1956385406066814
undo,65,8,0,0,0,16,"[0, 5, 14, 17, 11, 24, 15, 16]",8,1,[28],47.30137436,14506,1431,1,0,9,1.36482239111247
undo,65,8,0,0,1,28,"[0, 5, 14, 17, 11, 24, 15, 16, 28]",9,0,[],24.94069458,15641,1135,1,0,9,1.632953105226947
undo,65,8,0,1,1,28,"[0, 5, 14, 17, 11, 24, 15, 16, 28]",9,0,[],24.94069458,16182,541,1,0,9,1.632953105226947
undo,66,39,0,0,0,0,[0],1,28,"[1, 2, 3, 4, 5, 6, 7, 9, 10, 11, 12, 13, 14, 15, 16, 17, 18, 19, 20, 21, 22, 23, 24, 25, 26, 27, 28, 29]",300,165,-1,1,30,10,0.0
undo,66,39,0,0,0,29,"[0, 29]",2,26,"[1, 2, 3, 4, 5, 6, 7, 9, 10, 12, 13, 14, 15, 16, 17, 18, 19, 20, 21, 22, 23, 24, 25, 26, 27, 28]",243.0614366,2004,1839,8,104,9,1.0
undo,66,39,0,0,0,12,"[0, 29, 12]",3,18,"[1, 2, 4, 5, 7, 9, 10, 13, 14, 15, 16, 18, 19, 22, 23, 24, 26, 28]",182.5221931,3189,1185,5,54,9,1.0026200331524904
undo,66,39,0,0,0,10,"[0, 29, 12, 10]",4,16,"[1, 2, 4, 5, 7, 9, 13, 14, 15, 16, 18, 19, 22, 23, 24, 26]",147.0116313,4828,1639,5,34,9,1.2874817019928908
undo,66,39,0,0,0,7,"[0, 29, 12, 10, 7]",5,10,"[1, 2, 5, 13, 16, 18, 19, 22, 24, 26]",113.5900814,7744,2916,4,12,9,1.2250826263866774
undo,66,39,0,0,0,26,"[0, 29, 12, 10, 7, 26]",6,5,"[1, 16, 18, 19, 22]",94.90853971,9187,1443,3,4,9,1.2697275353190085
undo,66,39,0,0,0,22,"[0, 29, 12, 10, 7, 26, 22]",7,2,"[16, 19]",77.18849457,10369,1182,2,0,9,1.438961743955176
undo,66,39,0,0,0,16,"[0, 29, 12, 10, 7, 26, 22, 16]",8,1,[19],42.18849457,12138,1769,1,0,9,1.3580882130477205
undo,66,39,0,0,1,19,"[0, 29, 12, 10, 7, 26, 22, 16, 19]",9,0,[],24.72424537,13423,1285,1,0,9,1.3646589157842668
undo,66,39,0,1,1,19,"[0, 29, 12, 10, 7, 26, 22, 16, 19]",9,0,[],24.72424537,14729,1306,1,0,9,1.3646589157842668
undo,67,10,0,0,0,0,[0],1,29,"[1, 2, 3, 4, 5, 6, 7, 8, 9, 10, 11, 12, 13, 14, 15, 16, 17, 18, 19, 20, 21, 22, 23, 24, 25, 26, 27, 28, 29]",300,162,-1,1,100,9,0.0
undo,67,10,0,0,0,13,"[0, 13]",2,25,"[1, 2, 3, 4, 6, 7, 8, 9, 10, 11, 12, 14, 17, 18, 19, 20, 21, 22, 23, 24, 25, 26, 27, 28, 29]",249.4628849,4203,4041,1,79,9,1.0
undo,67,10,0,0,0,11,"[0, 13, 11]",3,20,"[1, 2, 3, 6, 7, 8, 9, 10, 12, 14, 18, 19, 20, 21, 22, 24, 26, 27, 28, 29]",206.4512586,5070,867,1,54,9,1.0313137484914219
undo,67,10,0,0,0,19,"[0, 13, 11, 19]",4,11,"[2, 6, 8, 9, 10, 14, 18, 20, 24, 26, 27]",170.0919407,6305,1235,1,22,9,1.0879446220132545
undo,67,10,0,0,0,2,"[0, 13, 11, 19, 2]",5,4,"[14, 20, 26, 27]",126.1829439,10223,3918,1,4,9,1.06474052351343
undo,67,10,0,0,0,14,"[0, 13, 11, 19, 2, 14]",6,3,"[20, 26, 27]",114.0174188,11603,1380,1,3,9,1.1628909195912238
undo,67,10,0,0,0,26,"[0, 13, 11, 19, 2, 14, 26]",7,2,"[20, 27]",79.34754716,12990,1387,1,1,9,1.6660727647633602
undo,67,10,0,0,0,20,"[0, 13, 11, 19, 2, 14, 26, 20]",8,1,[27],47.56704999,14337,1347,1,0,9,2.085581809637999
undo,67,10,0,0,1,27,"[0, 13, 11, 19, 2, 14, 26, 20, 27]",9,0,[],2.312215998,16625,2288,1,0,9,1.9116357409137932
undo,67,10,0,1,1,27,"[0, 13, 11, 19, 2, 14, 26, 20, 27]",9,0,[],2.312215998,17479,854,1,0,9,1.9116357409137932
undo,68,42,0,0,0,0,[0],1,29,"[1, 2, 3, 4, 5, 6, 7, 8, 9, 10, 11, 12, 13, 14, 15, 16, 17, 18, 19, 20, 21, 22, 23, 24, 25, 26, 27, 28, 29]",300,164,-1,16,302,9,0.0
undo,68,42,0,0,0,4,"[0, 4]",2,28,"[1, 2, 3, 5, 6, 7, 8, 9, 10, 11, 12, 13, 14, 15, 16, 17, 18, 19, 20, 21, 22, 23, 24, 25, 26, 27, 28, 29]",209.5290102,8538,8374,4,80,9,1.0
undo,68,42,0,0,0,22,"[0, 4, 22]",3,24,"[1, 2, 3, 5, 6, 7, 8, 9, 10, 11, 13, 15, 17, 18, 19, 20, 21, 23, 24, 25, 26, 27, 28, 29]",198.3486703,12240,3702,3,53,9,1.1473032812120834
undo,68,42,0,0,0,8,"[0, 4, 22, 8]",4,21,"[1, 2, 3, 5, 6, 7, 10, 11, 15, 17, 18, 19, 20, 21, 23, 24, 25, 26, 27, 28, 29]",176.2127267,13605,1365,2,36,9,1.1513227322639639
undo,68,42,0,0,0,1,"[0, 4, 22, 8, 1]",5,12,"[2, 5, 6, 7, 10, 15, 18, 19, 24, 26, 27, 28]",127.1209758,15022,1417,2,24,9,1.1101621876186907
undo,68,42,0,0,0,7,"[0, 4, 22, 8, 1, 7]",6,5,"[2, 19, 26, 27, 28]",97.12097583,16288,1266,2,10,9,1.1711274205343067
undo,68,42,0,0,0,26,"[0, 4, 22, 8, 1, 7, 26]",7,3,"[2, 19, 27]",70.55031532,17906,1618,2,1,9,1.1588367913131314
undo,68,42,0,0,0,27,"[0, 4, 22, 8, 1, 7, 26, 27]",8,1,[19],52.52255894,19054,1148,1,0,9,1.160587570992885
undo,68,42,0,0,1,19,"[0, 4, 22, 8, 1, 7, 26, 27, 19]",9,0,[],11.51036563,20571,1517,1,0,9,1.3341568614108437
undo,68,42,0,1,1,19,"[0, 4, 22, 8, 1, 7, 26, 27, 19]",9,0,[],11.51036563,21163,592,1,0,9,1.3341568614108437
basic,69,43,0,0,0,0,[0],1,23,"[1, 2, 3, 4, 5, 6, 7, 9, 10, 11, 12, 14, 15, 16, 17, 19, 20, 21, 22, 23, 25, 27, 29]",300,166,-1,16,556,12,0.0
basic,69,43,0,0,0,29,"[0, 29]",2,22,"[1, 2, 3, 4, 5, 6, 7, 9, 10, 11, 12, 14, 15, 16, 17, 19, 20, 21, 22, 23, 25, 27]",277.909278,3410,3244,16,520,12,1.0
basic,69,43,0,0,0,20,"[0, 29, 20]",3,20,"[1, 2, 3, 4, 6, 7, 9, 10, 11, 12, 14, 15, 16, 17, 19, 21, 22, 23, 25, 27]",254.4785289,6259,2849,15,422,12,1.082311746871282
basic,69,43,0,0,0,16,"[0, 29, 20, 16]",4,19,"[1, 2, 3, 4, 6, 7, 9, 10, 11, 12, 14, 15, 17, 19, 21, 22, 23, 25, 27]",231.8511119,7617,1358,15,389,12,1.215201926898219
basic,69,43,0,0,0,25,"[0, 29, 20, 16, 25]",5,14,"[1, 2, 3, 4, 6, 7, 9, 11, 12, 14, 15, 19, 22, 23]",175.7708124,9165,1548,53,282,11,1.566384303308987
basic,69,43,0,0,0,15,"[0, 29, 20, 16, 25, 15]",6,13,"[1, 2, 3, 4, 6, 7, 9, 11, 12, 14, 19, 22, 23]",153.0992443,10340,1175,27,108,11,1.776736412604812
basic,69,43,0,0,0,12,"[0, 29, 20, 16, 25, 15, 12]",7,10,"[1, 3, 6, 7, 9, 11, 14, 19, 22, 23]",133.7860364,11296,956,21,41,11,1.6813323012225032
basic,69,43,0,0,0,3,"[0, 29, 20, 16, 25, 15, 12, 3]",8,9,"[1, 6, 7, 9, 11, 14, 19, 22, 23]",120.7860364,12444,1148,20,12,11,1.608740348096123
basic,69,43,0,0,0,22,"[0, 29, 20, 16, 25, 15, 12, 3, 22]",9,6,"[1, 6, 7, 11, 14, 19]",86.07292644,13496,1052,9,2,11,1.793657891802588
basic,69,43,0,0,0,19,"[0, 29, 20, 16, 25, 15, 12, 3, 22, 19]",10,3,"[1, 6, 7]",65.45739831,14876,1380,3,0,11,1.6882745891803936
basic,69,43,0,0,1,1,"[0, 29, 20, 16, 25, 15, 12, 3, 22, 19, 1]",11,0,[],37.2793927,16093,1217,1,0,11,1.825064866046553
basic,69,43,0,1,1,1,"[0, 29, 20, 16, 25, 15, 12, 3, 22, 19, 1]",11,0,[],37.2793927,19650,3557,1,0,11,1.825064866046553
basic,70,30,0,0,0,0,[0],1,19,"[3, 4, 5, 7, 9, 11, 16, 17, 18, 19, 20, 21, 22, 24, 25, 26, 27, 28, 29]",300,180,-1,5,41,8,0.0
basic,70,30,0,0,0,27,"[0, 27]",2,10,"[3, 5, 7, 9, 18, 19, 20, 24, 25, 29]",90.59608409,4987,4807,7,22,6,1.0
basic,70,30,0,0,0,3,"[0, 27, 3]",3,8,"[5, 7, 18, 19, 20, 24, 25, 29]",71.49111091,6020,1033,5,9,6,1.0022223300201003
basic,70,30,0,0,0,29,"[0, 27, 3, 29]",4,5,"[5, 7, 18, 19, 20]",52.89003567,7304,1284,2,3,6,1.0149900937654948
basic,70,30,0,0,0,18,"[0, 27, 3, 29, 18]",5,1,[5],33.57682776,8378,1074,1,0,6,1.0907994995031296
basic,70,30,0,0,1,5,"[0, 27, 3, 29, 18, 5]",6,0,[],20.53842295,9304,926,1,0,6,1.1556882660658163
basic,70,30,0,1,1,5,"[0, 27, 3, 29, 18, 5]",6,0,[],20.53842295,9696,392,1,0,6,1.1556882660658163
basic,71,21,0,0,0,0,[0],1,29,"[1, 2, 3, 4, 5, 6, 7, 8, 9, 10, 11, 12, 13, 14, 15, 16, 17, 18, 19, 20, 21, 22, 23, 24, 25, 26, 27, 28, 29]",300,163,-1,84,830,9,0.0
basic,71,21,0,0,0,20,"[0, 20]",2,28,"[1, 2, 3, 4, 5, 6, 7, 8, 9, 10, 11, 12, 13, 14, 15, 16, 17, 18, 19, 21, 22, 23, 24, 25, 26, 27, 28, 29]",217.6228187,2942,2779,6,67,9,1.0
basic,71,21,0,0,0,18,"[0, 20, 18]",3,21,"[2, 4, 6, 7, 8, 9, 10, 11, 12, 14, 15, 16, 17, 21, 22, 23, 24, 25, 26, 27, 29]",174.4487524,4089,1147,17,56,8,2.1252416531342417
basic,71,21,0,0,0,25,"[0, 20, 18, 25]",4,12,"[4, 6, 8, 9, 14, 15, 16, 17, 21, 22, 23, 29]",132.6875264,5175,1086,9,17,8,2.7971010217385257
basic,71,21,0,0,0,21,"[0, 20, 18, 25, 21]",5,4,"[4, 14, 16, 23]",83.35194083,7045,1870,4,3,8,2.410178024887266
basic,71,21,0,0,0,23,"[0, 20, 18, 25, 21, 23]",6,2,"[4, 14]",53.73775504,8204,1159,2,0,8,2.486989978418204
basic,71,21,0,0,0,14,"[0, 20, 18, 25, 21, 23, 14]",7,1,[4],24.66887134,9212,1008,1,0,8,2.403745020307195
basic,71,21,0,0,1,4,"[0, 20, 18, 25, 21, 23, 14, 4]",8,0,[],10.52673571,10009,797,1,0,8,2.2631680785471455
basic,71,21,0,1,1,4,"[0, 20, 18, 25, 21, 23, 14, 4]",8,0,[],10.52673571,10646,637,1,0,8,2.2631680785471455
basic,72,11,0,0,0,0,[0],1,25,"[1, 2, 3, 4, 5, 6, 8, 9, 10, 11, 12, 13, 14, 15, 16, 17, 18, 19, 20, 22, 23, 25, 26, 27, 28]",300,195,-1,6,374,12,0.0
basic,72,11,0,0,0,18,"[0, 18]",2,21,"[1, 2, 4, 5, 6, 8, 9, 11, 12, 13, 14, 15, 16, 17, 19, 20, 22, 23, 25, 27, 28]",236.8493864,2286,2091,157,1477,11,1.0
basic,72,11,0,0,0,27,"[0, 18, 27]",3,19,"[1, 2, 4, 5, 6, 8, 9, 11, 12, 14, 15, 16, 17, 19, 20, 22, 23, 25, 28]",212.9956655,3221,935,157,1315,11,1.060949579704323
basic,72,11,0,0,0,17,"[0, 18, 27, 17]",4,14,"[1, 2, 4, 5, 6, 8, 11, 12, 15, 19, 22, 23, 25, 28]",135.9177828,5444,2223,46,349,11,1.1156120043677304
basic,72,11,0,0,0,8,"[0, 18, 27, 17, 8]",5,11,"[1, 2, 5, 6, 11, 12, 15, 19, 22, 25, 28]",121.5999617,6970,1526,26,143,11,1.2285932943120847
basic,72,11,0,0,0,15,"[0, 18, 27, 17, 8, 15]",6,9,"[2, 5, 6, 11, 12, 19, 22, 25, 28]",108.1463377,8009,1039,24,54,11,1.223015425852291
basic,72,11,0,0,0,11,"[0, 18, 27, 17, 8, 15, 11]",7,6,"[2, 5, 12, 19, 22, 28]",90.03556742,8841,832,22,2,11,1.2111003833550413
basic,72,11,0,0,0,28,"[0, 18, 27, 17, 8, 15, 11, 28]",8,3,"[2, 5, 22]",70.61907959,9820,979,6,0,11,1.3274100985292616
basic,72,11,0,0,0,5,"[0, 18, 27, 17, 8, 15, 11, 28, 5]",9,2,"[2, 22]",52.73053577,11793,1973,2,0,11,1.5198534752211967
basic,72,11,0,0,0,2,"[0, 18, 27, 17, 8, 15, 11, 28, 5, 2]",10,1,[22],35.73053577,13575,1782,1,0,11,1.4805999496229154
basic,72,11,0,0,1,22,"[0, 18, 27, 17, 8, 15, 11, 28, 5, 2, 22]",11,0,[],25.68066014,14720,1145,1,0,11,1.4550139853626707
basic,72,11,0,1,1,22,"[0, 18, 27, 17, 8, 15, 11, 28, 5, 2, 22]",11,0,[],25.68066014,15611,891,1,0,11,1.4550139853626707
basic,73,26,0,0,0,0,[0],1,29,"[1, 2, 3, 4, 5, 6, 7, 8, 9, 10, 11, 12, 13, 14, 15, 16, 17, 18, 19, 20, 21, 22, 23, 24, 25, 26, 27, 28, 29]",300,168,-1,9,226,9,0.0
basic,73,26,0,0,0,10,"[0, 10]",2,6,"[4, 6, 14, 16, 17, 29]",138.1822012,3339,3171,9,66,7,1.0
basic,73,26,0,0,0,6,"[0, 10, 6]",3,5,"[4, 14, 16, 17, 29]",108.9076389,5179,1840,8,23,7,1.1897813099332413
basic,73,26,0,0,0,14,"[0, 10, 6, 14]",4,4,"[4, 16, 17, 29]",87.88384285,6092,913,4,6,7,1.3162481558218453
basic,73,26,0,0,0,17,"[0, 10, 6, 14, 17]",5,3,"[4, 16, 29]",65.41163779,7159,1067,3,1,7,1.6510075497064465
basic,73,26,0,0,0,4,"[0, 10, 6, 14, 17, 4]",6,1,[29],44.31661468,8143,984,1,0,7,2.1095586782058087
basic,73,26,0,0,1,29,"[0, 10, 6, 14, 17, 4, 29]",7,0,[],20.31661468,9507,1364,1,0,7,2.288952413143475
basic,73,26,0,1,1,29,"[0, 10, 6, 14, 17, 4, 29]",7,0,[],20.31661468,10499,992,1,0,7,2.288952413143475
basic,74,4,0,0,0,0,[0],1,26,"[3, 4, 5, 6, 7, 8, 10, 11, 12, 13, 14, 15, 16, 17, 18, 19, 20, 21, 22, 23, 24, 25, 26, 27, 28, 29]",300,164,-1,4,489,10,0.0
basic,74,4,0,0,0,28,"[0, 28]",2,21,"[3, 4, 5, 6, 10, 11, 12, 13, 14, 15, 16, 17, 19, 20, 21, 22, 23, 24, 25, 26, 27]",225.9392142,2590,2426,2,216,10,1.0
basic,74,4,0,0,0,14,"[0, 28, 14]",3,13,"[3, 4, 5, 6, 11, 13, 16, 17, 20, 21, 22, 24, 25]",159.6972335,4876,2286,1,26,10,1.0273973946789214
basic,74,4,0,0,0,25,"[0, 28, 14, 25]",4,12,"[3, 4, 5, 6, 11, 13, 16, 17, 20, 21, 22, 24]",143.572718,6040,1164,1,25,10,1.233547772313525
basic,74,4,0,0,0,11,"[0, 28, 14, 25, 11]",5,10,"[3, 4, 5, 6, 13, 16, 17, 20, 21, 22]",124.7844238,7062,1022,1,15,10,1.425978575879479
basic,74,4,0,0,0,16,"[0, 28, 14, 25, 11, 16]",6,9,"[3, 4, 5, 6, 13, 17, 20, 21, 22]",109.7844238,7992,930,1,12,10,1.3799325158051412
basic,74,4,0,0,0,17,"[0, 28, 14, 25, 11, 16, 17]",7,5,"[3, 5, 20, 21, 22]",83.70761416,9314,1322,1,5,10,1.3195184878861832
basic,74,4,0,0,0,21,"[0, 28, 14, 25, 11, 16, 17, 21]",8,1,[22],34.45317274,13641,4327,1,0,9,1.7966566629354186
basic,74,4,0,0,1,22,"[0, 28, 14, 25, 11, 16, 17, 21, 22]",9,0,[],23.40781172,15910,2269,1,0,9,1.7433011729935863
basic,74,4,0,1,1,22,"[0, 28, 14, 25, 11, 16, 17, 21, 22]",9,0,[],23.40781172,16698,788,1,0,9,1.7433011729935863
basic,75,45,0,0,0,0,[0],1,24,"[1, 2, 3, 4, 5, 6, 7, 9, 10, 11, 12, 14, 15, 16, 17, 19, 20, 21, 22, 23, 24, 25, 27, 29]",300,164,-1,6,248,10,0.0
basic,75,45,0,0,0,15,"[0, 15]",2,23,"[1, 2, 3, 4, 5, 6, 7, 9, 10, 11, 12, 14, 16, 17, 19, 20, 21, 22, 23, 24, 25, 27, 29]",253.9022777,3042,2878,5,207,10,1.0
basic,75,45,0,0,0,23,"[0, 15, 23]",3,22,"[1, 2, 3, 4, 5, 6, 7, 9, 10, 11, 12, 14, 16, 17, 19, 20, 21, 22, 24, 25, 27, 29]",230.3014303,3939,897,5,163,10,1.0006068457769497
basic,75,45,0,0,0,20,"[0, 15, 23, 20]",4,19,"[1, 2, 3, 5, 6, 7, 9, 10, 11, 12, 14, 16, 17, 19, 21, 22, 24, 25, 29]",188.8647316,7439,3500,5,137,10,1.2062119754673604
basic,75,45,0,0,0,10,"[0, 15, 23, 20, 10]",5,12,"[2, 3, 6, 7, 9, 12, 14, 17, 22, 24, 25, 29]",132.784432,8722,1283,1,54,10,1.1363907740691004
basic,75,45,0,0,0,29,"[0, 15, 23, 20, 10, 29]",6,8,"[2, 3, 6, 7, 12, 14, 22, 24]",111.2437728,10705,1983,1,21,10,1.1719694806770014
basic,75,45,0,0,0,3,"[0, 15, 23, 20, 10, 29, 3]",7,5,"[2, 6, 7, 12, 22]",91.24377276,11939,1234,1,7,10,1.1637144299354454
basic,75,45,0,0,0,2,"[0, 15, 23, 20, 10, 29, 3, 2]",8,2,"[6, 7]",65.92579496,13057,1118,2,0,9,1.3965435955776868
basic,75,45,0,0,1,7,"[0, 15, 23, 20, 10, 29, 3, 2, 7]",9,0,[],27.91263934,14389,1332,1,0,9,2.050819128376323
basic,75,45,0,1,1,7,"[0, 15, 23, 20, 10, 29, 3, 2, 7]",9,0,[],27.91263934,14931,542,1,0,9,2.050819128376323
basic,76,9,0,0,0,0,[0],1,27,"[1, 3, 4, 5, 6, 7, 8, 9, 10, 11, 13, 14, 15, 16, 17, 18, 19, 20, 21, 22, 23, 24, 25, 26, 27, 28, 29]",300,171,-1,2,182,10,0.0
basic,76,9,0,0,0,10,"[0, 10]",2,22,"[3, 4, 5, 6, 7, 8, 9, 11, 13, 15, 16, 17, 18, 19, 20, 21, 22, 23, 25, 26, 27, 28]",245.6676892,4978,4807,5,195,9,1.0
basic,76,9,0,0,0,23,"[0, 10, 23]",3,20,"[3, 4, 5, 7, 8, 9, 11, 13, 15, 16, 17, 18, 19, 20, 21, 22, 25, 26, 27, 28]",182.5091585,6161,1183,26,126,8,1.9733126255870617
basic,76,9,0,0,0,8,"[0, 10, 23, 8]",4,16,"[3, 4, 7, 9, 11, 16, 17, 18, 19, 20, 21, 22, 25, 26, 27, 28]",161.0382479,7428,1267,10,45,8,2.1787370017936363
basic,76,9,0,0,0,28,"[0, 10, 23, 8, 28]",5,14,"[3, 4, 7, 9, 16, 17, 18, 19, 20, 21, 22, 25, 26, 27]",150.2215941,8222,794,8,22,8,2.0164976121712073
basic,76,9,0,0,0,21,"[0, 10, 23, 8, 28, 21]",6,6,"[9, 16, 17, 20, 22, 26]",97.22159409,9855,1633,3,5,8,1.710738158370646
basic,76,9,0,0,0,20,"[0, 10, 23, 8, 28, 21, 20]",7,3,"[17, 22, 26]",85.13854812,12973,3118,3,0,8,1.6965096100101247
basic,76,9,0,0,1,17,"[0, 10, 23, 8, 28, 21, 20, 17]",8,0,[],3.640081876,15173,2200,1,0,8,1.4354305196584247
basic,76,9,0,1,1,17,"[0, 10, 23, 8, 28, 21, 20, 17]",8,0,[],3.640081876,15832,659,1,0,8,1.4354305196584247
basic,77,5,0,0,0,0,[0],1,29,"[1, 2, 3, 4, 5, 6, 7, 8, 9, 10, 11, 12, 13, 14, 15, 16, 17, 18, 19, 20, 21, 22, 23, 24, 25, 26, 27, 28, 29]",300,184,-1,5,139,9,0.0
basic,77,5,0,0,0,12,"[0, 12]",2,22,"[2, 4, 5, 6, 8, 9, 10, 13, 14, 15, 16, 17, 18, 19, 21, 22, 23, 24, 25, 26, 27, 28]",228.3062067,4369,4185,1,27,9,1.0
basic,77,5,0,0,0,25,"[0, 12, 25]",3,21,"[2, 4, 5, 6, 8, 9, 10, 13, 14, 15, 16, 17, 18, 19, 21, 22, 23, 24, 26, 27, 28]",200.5213187,5903,1534,1,20,9,1.584023303445617
basic,77,5,0,0,0,23,"[0, 12, 25, 23]",4,19,"[2, 4, 5, 6, 8, 9, 10, 13, 14, 15, 16, 17, 18, 19, 21, 22, 24, 26, 27]",182.0822298,7238,1335,1,14,9,2.3508446989254357
basic,77,5,0,0,0,24,"[0, 12, 25, 23, 24]",5,15,"[2, 4, 5, 6, 8, 9, 13, 14, 15, 17, 18, 19, 22, 26, 27]",158.995437,8386,1148,1,12,9,1.9469752046288753
basic,77,5,0,0,0,17,"[0, 12, 25, 23, 24, 17]",6,7,"[4, 5, 6, 8, 15, 18, 19]",124.0097257,9804,1418,1,8,9,1.6482276497563642
basic,77,5,0,0,0,5,"[0, 12, 25, 23, 24, 17, 5]",7,4,"[4, 6, 15, 18]",80.96323916,11470,1666,1,3,9,1.4654649104389412
basic,77,5,0,0,1,15,"[0, 12, 25, 23, 24, 17, 5, 15]",8,0,[],40.93824697,12620,1150,1,0,8,1.4660376450939663
basic,77,5,0,1,1,15,"[0, 12, 25, 23, 24, 17, 5, 15]",8,0,[],40.93824697,13195,575,1,0,8,1.4660376450939663
basic,78,0,0,0,0,0,[0],1,27,"[2, 3, 4, 5, 6, 7, 8, 9, 10, 11, 12, 13, 14, 15, 16, 17, 19, 20, 21, 22, 23, 24, 25, 26, 27, 28, 29]",300,165,-1,104,1136,9,0.0
basic,78,0,0,0,0,20,"[0, 20]",2,25,"[2, 3, 4, 5, 6, 7, 8, 9, 11, 12, 13, 14, 15, 16, 17, 19, 21, 22, 23, 24, 25, 26, 27, 28, 29]",215.4955622,3942,3777,36,372,9,1.0
basic,78,0,0,0,0,5,"[0, 20, 5]",3,22,"[2, 3, 4, 7, 8, 9, 11, 12, 13, 14, 15, 16, 17, 19, 21, 22, 23, 24, 25, 26, 28, 29]",153.2942761,5245,1303,33,251,9,1.0828244018179105
basic,78,0,0,0,0,4,"[0, 20, 5, 4]",4,19,"[2, 3, 7, 8, 9, 11, 12, 13, 14, 15, 17, 19, 21, 22, 23, 24, 25, 26, 28]",128.2144037,6222,977,21,127,9,1.0973859443611045
