condition,trial_id,map_id,undoIndicator,submit,checkEnd,currentChoice,chosen_all,n_city_all,n_within_reach,cities_reach,currentBudget,time_all,rt_all,n_opt_paths_all,n_subopt_paths_all,mas_all,tortuosity_all
undo,0,28,0,0,0,0,[0],1,27,"[1, 2, 3, 4, 5, 6, 7, 8, 9, 10, 11, 12, 13, 14, 15, 16, 17, 18, 19, 20, 22, 23, 25, 26, 27, 28, 29]",300,163,-1,2,96,9,0.0
undo,0,28,0,0,0,3,"[0, 3]",2,26,"[1, 2, 4, 5, 6, 7, 8, 9, 10, 11, 12, 13, 14, 15, 16, 17, 18, 19, 20, 22, 23, 25, 26, 27, 28, 29]",251.0817008,26934,26771,1,64,9,1.0
undo,0,28,0,0,0,14,"[0, 3, 14]",3,13,"[1, 2, 5, 7, 10, 11, 12, 13, 17, 18, 19, 20, 26]",142.7396498,28156,1222,19,59,8,1.0338694802207566
undo,0,28,0,0,0,18,"[0, 3, 14, 18]",4,10,"[1, 2, 5, 7, 11, 12, 13, 17, 19, 26]",117.2445523,28744,588,18,18,8,1.098527225277385
undo,0,28,0,0,0,13,"[0, 3, 14, 18, 13]",5,7,"[2, 7, 11, 12, 17, 19, 26]",92.83144103,29601,857,8,6,8,1.0872780601597938
undo,0,28,0,0,0,12,"[0, 3, 14, 18, 13, 12]",6,3,"[2, 7, 19]",75.6267905,30585,984,3,1,8,1.0890748557820906
undo,0,28,0,0,0,7,"[0, 3, 14, 18, 13, 12, 7]",7,2,"[2, 19]",62.47384406,31092,507,2,0,8,1.2125627495730145
undo,0,28,0,0,1,19,"[0, 3, 14, 18, 13, 12, 7, 19]",8,0,[],34.74299481,31958,866,1,0,8,1.4527925513951803
undo,0,28,1,0,0,7,"[0, 3, 14, 18, 13, 12, 7]",7,2,"[2, 19]",62.47384406,36983,5025,2,0,8,1.2125627495730145
undo,0,28,1,0,0,12,"[0, 3, 14, 18, 13, 12]",6,3,"[2, 7, 19]",75.6267905,37333,350,3,1,8,1.0890748557820906
undo,0,28,1,0,0,13,"[0, 3, 14, 18, 13]",5,7,"[2, 7, 11, 12, 17, 19, 26]",92.83144103,37533,200,8,6,8,1.0872780601597938
undo,0,28,1,0,0,18,"[0, 3, 14, 18]",4,10,"[1, 2, 5, 7, 11, 12, 13, 17, 19, 26]",117.2445523,37768,235,18,18,8,1.098527225277385
undo,0,28,1,0,0,14,"[0, 3, 14]",3,13,"[1, 2, 5, 7, 10, 11, 12, 13, 17, 18, 19, 20, 26]",142.7396498,38002,234,19,59,8,1.0338694802207566
undo,0,28,1,0,0,3,"[0, 3]",2,26,"[1, 2, 4, 5, 6, 7, 8, 9, 10, 11, 12, 13, 14, 15, 16, 17, 18, 19, 20, 22, 23, 25, 26, 27, 28, 29]",251.0817008,38369,367,1,64,9,1.0
undo,0,28,0,0,0,5,"[0, 3, 5]",3,20,"[2, 4, 6, 7, 8, 9, 10, 11, 12, 13, 14, 15, 18, 19, 20, 23, 25, 26, 28, 29]",166.9865166,48864,10495,1,34,9,1.0203769473612083
undo,0,28,0,0,0,26,"[0, 3, 5, 26]",4,13,"[2, 4, 7, 8, 9, 12, 13, 14, 18, 19, 20, 25, 28]",134.2298379,49399,535,1,28,9,1.0315203228799597
undo,0,28,0,0,0,19,"[0, 3, 5, 26, 19]",5,7,"[2, 7, 9, 12, 13, 14, 18]",93.22983789,51983,2584,1,17,9,1.1324645362297356
undo,0,28,0,0,0,7,"[0, 3, 5, 26, 19, 7]",6,5,"[2, 12, 13, 14, 18]",65.49898864,52703,720,1,6,9,1.1971194919020265
undo,0,28,0,0,0,12,"[0, 3, 5, 26, 19, 7, 12]",7,2,"[13, 18]",52.3460422,53334,631,1,1,9,1.2020762147848982
undo,0,28,0,0,0,13,"[0, 3, 5, 26, 19, 7, 12, 13]",8,1,[18],35.14139167,54148,814,1,0,9,1.39005144078531
undo,0,28,0,0,1,18,"[0, 3, 5, 26, 19, 7, 12, 13, 18]",9,0,[],10.72828044,55822,1674,1,0,9,1.738787343626007
undo,0,28,0,1,1,18,"[0, 3, 5, 26, 19, 7, 12, 13, 18]",9,0,[],10.72828044,60627,4805,1,0,9,1.738787343626007
undo,1,8,0,0,0,0,[0],1,29,"[1, 2, 3, 4, 5, 6, 7, 8, 9, 10, 11, 12, 13, 14, 15, 16, 17, 18, 19, 20, 21, 22, 23, 24, 25, 26, 27, 28, 29]",300,157,-1,10,149,9,0.0
undo,1,8,0,0,0,25,"[0, 25]",2,22,"[1, 2, 3, 4, 5, 6, 7, 11, 12, 14, 15, 16, 17, 18, 19, 20, 21, 22, 23, 24, 28, 29]",230.992754,10653,10496,26,209,8,1.0
undo,1,8,0,0,0,1,"[0, 25, 1]",3,18,"[3, 4, 5, 6, 11, 12, 14, 15, 16, 17, 18, 20, 21, 22, 23, 24, 28, 29]",205.992754,11388,735,14,91,8,1.008733440965848
undo,1,8,0,0,0,23,"[0, 25, 1, 23]",4,16,"[3, 4, 5, 6, 11, 14, 15, 16, 17, 18, 20, 21, 22, 24, 28, 29]",182.9710251,12105,717,9,47,8,1.0070385748869022
undo,1,8,0,0,0,18,"[0, 25, 1, 23, 18]",5,11,"[3, 4, 5, 11, 14, 15, 16, 17, 21, 24, 28]",141.2097991,12952,847,4,20,8,1.2012681423254592
undo,1,8,0,0,0,14,"[0, 25, 1, 23, 18, 14]",6,4,"[5, 11, 17, 28]",83.72066969,14976,2024,1,3,8,2.5313580934293256
undo,1,8,0,0,0,17,"[0, 25, 1, 23, 18, 14, 17]",7,1,[11],46.70715865,15757,781,1,0,8,2.319010387383878
undo,1,8,0,0,1,11,"[0, 25, 1, 23, 18, 14, 17, 11]",8,0,[],21.52780202,16473,716,1,0,8,2.1270438046767053
undo,1,8,1,0,0,17,"[0, 25, 1, 23, 18, 14, 17]",7,1,[11],46.70715865,18432,1959,1,0,8,2.319010387383878
undo,1,8,1,0,0,14,"[0, 25, 1, 23, 18, 14]",6,4,"[5, 11, 17, 28]",83.72066969,18666,234,1,3,8,2.5313580934293256
undo,1,8,1,0,0,18,"[0, 25, 1, 23, 18]",5,11,"[3, 4, 5, 11, 14, 15, 16, 17, 21, 24, 28]",141.2097991,18952,286,4,20,8,1.2012681423254592
undo,1,8,1,0,0,23,"[0, 25, 1, 23]",4,16,"[3, 4, 5, 6, 11, 14, 15, 16, 17, 18, 20, 21, 22, 24, 28, 29]",182.9710251,19183,231,9,47,8,1.0070385748869022
undo,1,8,1,0,0,1,"[0, 25, 1]",3,18,"[3, 4, 5, 6, 11, 12, 14, 15, 16, 17, 18, 20, 21, 22, 23, 24, 28, 29]",205.992754,19450,267,14,91,8,1.008733440965848
undo,1,8,1,0,0,25,"[0, 25]",2,22,"[1, 2, 3, 4, 5, 6, 7, 11, 12, 14, 15, 16, 17, 18, 19, 20, 21, 22, 23, 24, 28, 29]",230.992754,19686,236,26,209,8,1.0
undo,1,8,1,0,0,0,[0],1,29,"[1, 2, 3, 4, 5, 6, 7, 8, 9, 10, 11, 12, 13, 14, 15, 16, 17, 18, 19, 20, 21, 22, 23, 24, 25, 26, 27, 28, 29]",300,19972,286,10,149,9,0.0
undo,1,8,0,0,0,5,"[0, 5]",2,28,"[1, 2, 3, 4, 6, 7, 8, 9, 10, 11, 12, 13, 14, 15, 16, 17, 18, 19, 20, 21, 22, 23, 24, 25, 26, 27, 28, 29]",254.5137383,21213,1241,10,100,9,1.0
undo,1,8,0,0,0,14,"[0, 5, 14]",3,20,"[1, 2, 3, 4, 6, 7, 11, 15, 16, 17, 18, 19, 20, 21, 22, 23, 24, 25, 28, 29]",214.5512559,22080,867,4,36,9,1.0001019035932595
undo,1,8,0,0,0,17,"[0, 5, 14, 17]",4,15,"[1, 4, 6, 7, 11, 15, 16, 18, 19, 20, 22, 23, 24, 25, 28]",177.5377449,24675,2595,4,16,9,1.121197267659591
undo,1,8,0,0,0,11,"[0, 5, 14, 17, 11]",5,11,"[1, 4, 15, 16, 18, 19, 22, 23, 24, 25, 28]",152.3583883,25166,491,4,8,9,1.1277254166016362
undo,1,8,0,0,0,24,"[0, 5, 14, 17, 11, 24]",6,3,"[15, 16, 28]",115.1428001,26430,1264,2,2,9,1.1227411011978805
undo,1,8,0,0,0,15,"[0, 5, 14, 17, 11, 24, 15]",7,2,"[16, 28]",98.37974552,27495,1065,2,0,9,1.1956385406066814
undo,1,8,0,0,0,16,"[0, 5, 14, 17, 11, 24, 15, 16]",8,1,[28],47.30137436,28480,985,1,0,9,1.36482239111247
undo,1,8,0,0,1,28,"[0, 5, 14, 17, 11, 24, 15, 16, 28]",9,0,[],24.94069458,29446,966,1,0,9,1.632953105226947
undo,1,8,1,0,0,16,"[0, 5, 14, 17, 11, 24, 15, 16]",8,1,[28],47.30137436,32190,2744,1,0,9,1.36482239111247
undo,1,8,1,0,0,15,"[0, 5, 14, 17, 11, 24, 15]",7,2,"[16, 28]",98.37974552,32392,202,2,0,9,1.1956385406066814
undo,1,8,1,0,0,24,"[0, 5, 14, 17, 11, 24]",6,3,"[15, 16, 28]",115.1428001,32592,200,2,2,9,1.1227411011978805
undo,1,8,1,0,0,11,"[0, 5, 14, 17, 11]",5,11,"[1, 4, 15, 16, 18, 19, 22, 23, 24, 25, 28]",152.3583883,32774,182,4,8,9,1.1277254166016362
undo,1,8,1,0,0,17,"[0, 5, 14, 17]",4,15,"[1, 4, 6, 7, 11, 15, 16, 18, 19, 20, 22, 23, 24, 25, 28]",177.5377449,33011,237,4,16,9,1.121197267659591
undo,1,8,1,0,0,14,"[0, 5, 14]",3,20,"[1, 2, 3, 4, 6, 7, 11, 15, 16, 17, 18, 19, 20, 21, 22, 23, 24, 25, 28, 29]",214.5512559,33226,215,4,36,9,1.0001019035932595
undo,1,8,1,0,0,5,"[0, 5]",2,28,"[1, 2, 3, 4, 6, 7, 8, 9, 10, 11, 12, 13, 14, 15, 16, 17, 18, 19, 20, 21, 22, 23, 24, 25, 26, 27, 28, 29]",254.5137383,33441,215,10,100,9,1.0
undo,1,8,1,0,0,0,[0],1,29,"[1, 2, 3, 4, 5, 6, 7, 8, 9, 10, 11, 12, 13, 14, 15, 16, 17, 18, 19, 20, 21, 22, 23, 24, 25, 26, 27, 28, 29]",300,33740,299,10,149,9,0.0
undo,1,8,0,0,0,5,"[0, 5]",2,28,"[1, 2, 3, 4, 6, 7, 8, 9, 10, 11, 12, 13, 14, 15, 16, 17, 18, 19, 20, 21, 22, 23, 24, 25, 26, 27, 28, 29]",254.5137383,37218,3478,10,100,9,1.0
undo,1,8,0,0,0,25,"[0, 5, 25]",3,20,"[1, 2, 3, 4, 6, 11, 12, 14, 15, 16, 17, 18, 19, 20, 21, 22, 23, 24, 28, 29]",215.3091468,38339,1121,4,42,9,1.2272747879909065
undo,1,8,0,0,0,14,"[0, 5, 25, 14]",4,16,"[1, 3, 4, 6, 11, 15, 16, 17, 18, 19, 20, 21, 22, 23, 24, 28]",170.2092576,41751,3412,1,13,9,1.5190857385933465
undo,1,8,0,0,0,17,"[0, 5, 25, 14, 17]",5,9,"[1, 4, 11, 15, 16, 18, 23, 24, 28]",133.1957466,42434,683,1,9,9,1.5271682935559303
undo,1,8,0,0,0,11,"[0, 5, 25, 14, 17, 11]",6,5,"[15, 16, 18, 24, 28]",108.01639,43472,1038,1,6,9,1.4664212485560129
undo,1,8,0,0,0,24,"[0, 5, 25, 14, 17, 11, 24]",7,2,"[15, 16]",70.80080183,44272,800,1,1,9,1.3920548417170795
undo,1,8,0,0,0,15,"[0, 5, 25, 14, 17, 11, 24, 15]",8,1,[16],54.03774722,46319,2047,1,0,9,1.4585932832823736
undo,1,8,1,0,0,24,"[0, 5, 25, 14, 17, 11, 24]",7,2,"[15, 16]",70.80080183,47280,961,1,1,9,1.3920548417170795
undo,1,8,1,0,0,11,"[0, 5, 25, 14, 17, 11]",6,5,"[15, 16, 18, 24, 28]",108.01639,47514,234,1,6,9,1.4664212485560129
undo,1,8,1,0,0,17,"[0, 5, 25, 14, 17]",5,9,"[1, 4, 11, 15, 16, 18, 23, 24, 28]",133.1957466,47732,218,1,9,9,1.5271682935559303
undo,1,8,1,0,0,14,"[0, 5, 25, 14]",4,16,"[1, 3, 4, 6, 11, 15, 16, 17, 18, 19, 20, 21, 22, 23, 24, 28]",170.2092576,47931,199,1,13,9,1.5190857385933465
undo,1,8,1,0,0,25,"[0, 5, 25]",3,20,"[1, 2, 3, 4, 6, 11, 12, 14, 15, 16, 17, 18, 19, 20, 21, 22, 23, 24, 28, 29]",215.3091468,48166,235,4,42,9,1.2272747879909065
undo,1,8,1,0,0,5,"[0, 5]",2,28,"[1, 2, 3, 4, 6, 7, 8, 9, 10, 11, 12, 13, 14, 15, 16, 17, 18, 19, 20, 21, 22, 23, 24, 25, 26, 27, 28, 29]",254.5137383,48498,332,10,100,9,1.0
undo,1,8,0,0,0,14,"[0, 5, 14]",3,20,"[1, 2, 3, 4, 6, 7, 11, 15, 16, 17, 18, 19, 20, 21, 22, 23, 24, 25, 28, 29]",214.5512559,49498,1000,4,36,9,1.0001019035932595
undo,1,8,0,0,0,17,"[0, 5, 14, 17]",4,15,"[1, 4, 6, 7, 11, 15, 16, 18, 19, 20, 22, 23, 24, 25, 28]",177.5377449,50010,512,4,16,9,1.121197267659591
undo,1,8,0,0,0,11,"[0, 5, 14, 17, 11]",5,11,"[1, 4, 15, 16, 18, 19, 22, 23, 24, 25, 28]",152.3583883,50573,563,4,8,9,1.1277254166016362
undo,1,8,0,0,0,24,"[0, 5, 14, 17, 11, 24]",6,3,"[15, 16, 28]",115.1428001,51276,703,2,2,9,1.1227411011978805
undo,1,8,0,0,0,15,"[0, 5, 14, 17, 11, 24, 15]",7,2,"[16, 28]",98.37974552,51960,684,2,0,9,1.1956385406066814
undo,1,8,0,0,0,16,"[0, 5, 14, 17, 11, 24, 15, 16]",8,1,[28],47.30137436,53289,1329,1,0,9,1.36482239111247
undo,1,8,0,0,1,28,"[0, 5, 14, 17, 11, 24, 15, 16, 28]",9,0,[],24.94069458,54086,797,1,0,9,1.632953105226947
undo,1,8,0,1,1,28,"[0, 5, 14, 17, 11, 24, 15, 16, 28]",9,0,[],24.94069458,56419,2333,1,0,9,1.632953105226947
undo,2,4,0,0,0,0,[0],1,26,"[3, 4, 5, 6, 7, 8, 10, 11, 12, 13, 14, 15, 16, 17, 18, 19, 20, 21, 22, 23, 24, 25, 26, 27, 28, 29]",300,220,-1,4,489,10,0.0
undo,2,4,0,0,0,13,"[0, 13]",2,23,"[3, 4, 5, 6, 7, 10, 11, 12, 14, 15, 16, 17, 19, 20, 21, 22, 23, 24, 25, 26, 27, 28, 29]",232.1030192,5393,5173,2,270,10,1.0
undo,2,4,0,0,0,28,"[0, 13, 28]",3,19,"[3, 4, 5, 6, 10, 11, 12, 14, 15, 16, 17, 19, 20, 21, 22, 23, 24, 25, 26]",200.5277124,6343,950,2,221,10,1.3431168257921573
undo,2,4,0,0,0,11,"[0, 13, 28, 11]",4,13,"[3, 4, 5, 6, 12, 14, 16, 17, 20, 21, 22, 24, 25]",151.6503148,10704,4361,1,107,10,1.2073325752283492
undo,2,4,0,0,0,25,"[0, 13, 28, 11, 25]",5,10,"[3, 4, 5, 6, 14, 16, 17, 20, 21, 22]",132.8620205,18962,8258,1,45,10,1.318009746415006
undo,2,4,0,0,0,14,"[0, 13, 28, 11, 25, 14]",6,9,"[3, 4, 5, 6, 16, 17, 20, 21, 22]",116.737505,19498,536,21,12,9,1.3419793109023184
undo,2,4,0,0,0,16,"[0, 13, 28, 11, 25, 14, 16]",7,6,"[3, 5, 17, 20, 21, 22]",84.17986385,20348,850,9,2,9,1.5656826290910115
undo,2,4,0,0,0,3,"[0, 13, 28, 11, 25, 14, 16, 3]",8,1,[17],42.55054726,21501,1153,1,0,9,1.4760884028122037
undo,2,4,0,0,1,17,"[0, 13, 28, 11, 25, 14, 16, 3, 17]",9,0,[],18.03524591,22248,747,1,0,9,1.7201609039962322
undo,2,4,1,0,0,3,"[0, 13, 28, 11, 25, 14, 16, 3]",8,1,[17],42.55054726,23073,825,1,0,9,1.4760884028122037
undo,2,4,1,0,0,16,"[0, 13, 28, 11, 25, 14, 16]",7,6,"[3, 5, 17, 20, 21, 22]",84.17986385,23288,215,9,2,9,1.5656826290910115
undo,2,4,1,0,0,14,"[0, 13, 28, 11, 25, 14]",6,9,"[3, 4, 5, 6, 16, 17, 20, 21, 22]",116.737505,23507,219,21,12,9,1.3419793109023184
undo,2,4,1,0,0,25,"[0, 13, 28, 11, 25]",5,10,"[3, 4, 5, 6, 14, 16, 17, 20, 21, 22]",132.8620205,23722,215,1,45,10,1.318009746415006
undo,2,4,1,0,0,11,"[0, 13, 28, 11]",4,13,"[3, 4, 5, 6, 12, 14, 16, 17, 20, 21, 22, 24, 25]",151.6503148,23922,200,1,107,10,1.2073325752283492
undo,2,4,1,0,0,28,"[0, 13, 28]",3,19,"[3, 4, 5, 6, 10, 11, 12, 14, 15, 16, 17, 19, 20, 21, 22, 23, 24, 25, 26]",200.5277124,24172,250,2,221,10,1.3431168257921573
undo,2,4,0,0,0,14,"[0, 13, 28, 14]",4,11,"[3, 4, 5, 6, 11, 16, 17, 20, 21, 22, 25]",134.2857318,25616,1444,28,123,9,1.2134786195381546
undo,2,4,0,0,0,25,"[0, 13, 28, 14, 25]",5,10,"[3, 4, 5, 6, 11, 16, 17, 20, 21, 22]",118.1612163,26103,487,22,51,9,1.4339367384350254
undo,2,4,0,0,0,11,"[0, 13, 28, 14, 25, 11]",6,9,"[3, 4, 5, 6, 16, 17, 20, 21, 22]",99.37292203,26683,580,11,18,9,1.632788140935394
undo,2,4,0,0,0,16,"[0, 13, 28, 14, 25, 11, 16]",7,6,"[3, 5, 17, 20, 21, 22]",84.37292203,27916,1233,9,2,9,1.5642820747024264
undo,2,4,0,0,0,17,"[0, 13, 28, 14, 25, 11, 16, 17]",8,4,"[3, 20, 21, 22]",58.29611241,29467,1551,4,0,9,1.4745445015567764
undo,2,4,1,0,0,16,"[0, 13, 28, 14, 25, 11, 16]",7,6,"[3, 5, 17, 20, 21, 22]",84.37292203,33426,3959,9,2,9,1.5642820747024264
undo,2,4,1,0,0,11,"[0, 13, 28, 14, 25, 11]",6,9,"[3, 4, 5, 6, 16, 17, 20, 21, 22]",99.37292203,33663,237,11,18,9,1.632788140935394
undo,2,4,0,0,0,16,"[0, 13, 28, 14, 25, 11, 16]",7,6,"[3, 5, 17, 20, 21, 22]",84.37292203,35353,1690,9,2,9,1.5642820747024264
undo,2,4,0,0,0,3,"[0, 13, 28, 14, 25, 11, 16, 3]",8,1,[17],42.74360544,36555,1202,1,0,9,1.474981502263249
undo,2,4,1,0,0,16,"[0, 13, 28, 14, 25, 11, 16]",7,6,"[3, 5, 17, 20, 21, 22]",84.37292203,38180,1625,9,2,9,1.5642820747024264
undo,2,4,1,0,0,11,"[0, 13, 28, 14, 25, 11]",6,9,"[3, 4, 5, 6, 16, 17, 20, 21, 22]",99.37292203,41249,3069,11,18,9,1.632788140935394
undo,2,4,1,0,0,25,"[0, 13, 28, 14, 25]",5,10,"[3, 4, 5, 6, 11, 16, 17, 20, 21, 22]",118.1612163,41516,267,22,51,9,1.4339367384350254
undo,2,4,1,0,0,14,"[0, 13, 28, 14]",4,11,"[3, 4, 5, 6, 11, 16, 17, 20, 21, 22, 25]",134.2857318,41833,317,28,123,9,1.2134786195381546
undo,2,4,1,0,0,28,"[0, 13, 28]",3,19,"[3, 4, 5, 6, 10, 11, 12, 14, 15, 16, 17, 19, 20, 21, 22, 23, 24, 25, 26]",200.5277124,42135,302,2,221,10,1.3431168257921573
undo,2,4,0,0,0,25,"[0, 13, 28, 25]",4,12,"[3, 4, 5, 6, 11, 14, 16, 17, 20, 21, 22, 24]",146.4906881,43828,1693,1,72,10,1.2105373647266156
undo,2,4,0,0,0,11,"[0, 13, 28, 25, 11]",5,10,"[3, 4, 5, 6, 14, 16, 17, 20, 21, 22]",127.7023938,44805,977,1,29,10,1.4022309000432311
undo,2,4,0,0,0,16,"[0, 13, 28, 25, 11, 16]",6,9,"[3, 4, 5, 6, 14, 17, 20, 21, 22]",112.7023938,46276,1471,1,22,10,1.3587638935314839
undo,2,4,0,0,0,17,"[0, 13, 28, 25, 11, 16, 17]",7,6,"[3, 5, 14, 20, 21, 22]",86.62558421,47741,1465,1,8,10,1.3017170502020965
undo,2,4,0,0,0,20,"[0, 13, 28, 25, 11, 16, 17, 20]",8,3,"[5, 21, 22]",46.40121349,50181,2440,1,2,10,1.3878593801137986
undo,2,4,0,0,0,22,"[0, 13, 28, 25, 11, 16, 17, 20, 22]",9,1,[21],16.16878057,51226,1045,1,0,10,1.7889272319709164
undo,2,4,0,0,1,21,"[0, 13, 28, 25, 11, 16, 17, 20, 22, 21]",10,0,[],5.123419557,52444,1218,1,0,10,1.995098109298073
undo,2,4,0,1,1,21,"[0, 13, 28, 25, 11, 16, 17, 20, 22, 21]",10,0,[],5.123419557,53971,1527,1,0,10,1.995098109298073
undo,3,27,0,0,0,0,[0],1,26,"[1, 3, 5, 6, 7, 8, 9, 10, 11, 12, 13, 14, 15, 16, 17, 18, 19, 21, 22, 23, 24, 25, 26, 27, 28, 29]",300,178,-1,13,578,11,0.0
undo,3,27,0,0,0,15,"[0, 15]",2,24,"[1, 3, 5, 6, 7, 8, 9, 10, 11, 12, 13, 14, 16, 17, 18, 19, 21, 22, 23, 24, 25, 26, 27, 29]",263.7508621,5149,4971,6,219,11,1.0
undo,3,27,0,0,0,24,"[0, 15, 24]",3,20,"[1, 5, 6, 7, 8, 9, 10, 12, 13, 14, 16, 17, 18, 19, 21, 23, 25, 26, 27, 29]",246.5462115,6853,1704,6,130,11,1.130933077698322
undo,3,27,0,0,0,17,"[0, 15, 24, 17]",4,15,"[1, 6, 8, 10, 12, 13, 14, 16, 18, 19, 23, 25, 26, 27, 29]",229.9932662,8234,1381,4,60,11,1.1285538435963374
undo,3,27,0,0,0,10,"[0, 15, 24, 17, 10]",5,12,"[1, 8, 12, 13, 14, 18, 19, 23, 25, 26, 27, 29]",213.5920467,13726,5492,2,28,11,1.1456072448628856
undo,3,27,0,0,0,12,"[0, 15, 24, 17, 10, 12]",6,11,"[1, 8, 13, 14, 18, 19, 23, 25, 26, 27, 29]",202.5466857,14505,779,2,24,11,1.5078716502366516
undo,3,27,0,0,0,13,"[0, 15, 24, 17, 10, 12, 13]",7,9,"[1, 8, 14, 18, 19, 23, 26, 27, 29]",158.9806439,15672,1167,2,14,11,1.4329429985358912
undo,3,27,0,0,0,19,"[0, 15, 24, 17, 10, 12, 13, 19]",8,5,"[1, 8, 14, 23, 29]",122.745302,17208,1536,2,4,11,1.363497676923077
undo,3,27,0,0,0,8,"[0, 15, 24, 17, 10, 12, 13, 19, 8]",9,3,"[14, 23, 29]",107.8792333,18178,970,2,1,11,1.4215576370231746
undo,3,27,0,0,0,14,"[0, 15, 24, 17, 10, 12, 13, 19, 8, 14]",10,1,[29],50.32056755,23197,5019,1,0,11,1.3611006274101225
undo,3,27,0,0,1,29,"[0, 15, 24, 17, 10, 12, 13, 19, 8, 14, 29]",11,0,[],6.026098366,25099,1902,1,0,11,1.514042622292981
undo,3,27,0,1,1,29,"[0, 15, 24, 17, 10, 12, 13, 19, 8, 14, 29]",11,0,[],6.026098366,26239,1140,1,0,11,1.514042622292981
undo,4,23,0,0,0,0,[0],1,28,"[1, 2, 3, 4, 5, 6, 7, 8, 9, 10, 11, 12, 13, 14, 15, 16, 17, 18, 19, 20, 21, 22, 23, 25, 26, 27, 28, 29]",300,168,-1,76,2626,10,0.0
undo,4,23,0,0,0,22,"[0, 22]",2,24,"[1, 2, 3, 5, 6, 7, 8, 9, 10, 11, 12, 13, 14, 15, 17, 18, 19, 20, 21, 23, 25, 26, 27, 29]",210.5013967,6720,6552,15,1362,10,1.0
undo,4,23,0,0,0,13,"[0, 22, 13]",3,14,"[1, 2, 5, 6, 7, 8, 9, 10, 12, 14, 18, 21, 27, 29]",168.3113504,7522,802,14,522,10,1.1898173563652046
undo,4,23,0,0,0,12,"[0, 22, 13, 12]",4,11,"[1, 2, 6, 7, 9, 10, 14, 18, 21, 27, 29]",156.2283045,8350,828,12,166,10,1.1727968780218219
undo,4,23,0,0,0,2,"[0, 22, 13, 12, 2]",5,9,"[1, 6, 7, 9, 10, 14, 18, 27, 29]",142.3358605,9138,788,4,38,10,1.1553975034701014
undo,4,23,0,0,0,9,"[0, 22, 13, 12, 2, 9]",6,7,"[6, 7, 10, 14, 18, 27, 29]",129.2974557,9844,706,1,12,10,1.3065798464766785
undo,4,23,1,0,0,2,"[0, 22, 13, 12, 2]",5,9,"[1, 6, 7, 9, 10, 14, 18, 27, 29]",142.3358605,24685,14841,4,38,10,1.1553975034701014
undo,4,23,1,0,0,12,"[0, 22, 13, 12]",4,11,"[1, 2, 6, 7, 9, 10, 14, 18, 21, 27, 29]",156.2283045,25141,456,12,166,10,1.1727968780218219
undo,4,23,1,0,0,13,"[0, 22, 13]",3,14,"[1, 2, 5, 6, 7, 8, 9, 10, 12, 14, 18, 21, 27, 29]",168.3113504,25438,297,14,522,10,1.1898173563652046
undo,4,23,0,0,0,27,"[0, 22, 13, 27]",4,7,"[2, 6, 9, 12, 14, 18, 29]",123.2114613,28483,3045,59,60,9,1.2347447137291254
undo,4,23,0,0,0,6,"[0, 22, 13, 27, 6]",5,5,"[2, 9, 12, 14, 29]",94.90951791,29414,931,25,4,9,1.3650572476361236
undo,4,23,0,0,0,2,"[0, 22, 13, 27, 6, 2]",6,4,"[9, 12, 14, 29]",76.47042899,31715,2301,7,2,9,1.6380738772667878
undo,4,23,0,0,0,12,"[0, 22, 13, 27, 6, 2, 12]",7,2,"[9, 14]",62.577985,32313,598,2,0,9,1.9367358574807247
undo,4,23,0,0,0,9,"[0, 22, 13, 27, 6, 2, 12, 9]",8,1,[14],48.26016394,33073,760,1,0,9,1.926849993362044
undo,4,23,0,0,1,14,"[0, 22, 13, 27, 6, 2, 12, 9, 14]",9,0,[],37.81985743,33848,775,1,0,9,1.860885019505484
undo,4,23,1,0,0,9,"[0, 22, 13, 27, 6, 2, 12, 9]",8,1,[14],48.26016394,34742,894,1,0,9,1.926849993362044
undo,4,23,1,0,0,12,"[0, 22, 13, 27, 6, 2, 12]",7,2,"[9, 14]",62.577985,34959,217,2,0,9,1.9367358574807247
undo,4,23,1,0,0,2,"[0, 22, 13, 27, 6, 2]",6,4,"[9, 12, 14, 29]",76.47042899,35177,218,7,2,9,1.6380738772667878
undo,4,23,1,0,0,6,"[0, 22, 13, 27, 6]",5,5,"[2, 9, 12, 14, 29]",94.90951791,35375,198,25,4,9,1.3650572476361236
undo,4,23,1,0,0,27,"[0, 22, 13, 27]",4,7,"[2, 6, 9, 12, 14, 18, 29]",123.2114613,35626,251,59,60,9,1.2347447137291254
undo,4,23,1,0,0,13,"[0, 22, 13]",3,14,"[1, 2, 5, 6, 7, 8, 9, 10, 12, 14, 18, 21, 27, 29]",168.3113504,35893,267,14,522,10,1.1898173563652046
undo,4,23,0,0,0,12,"[0, 22, 13, 12]",4,11,"[1, 2, 6, 7, 9, 10, 14, 18, 21, 27, 29]",156.2283045,37038,1145,12,166,10,1.1727968780218219
undo,4,23,0,0,0,2,"[0, 22, 13, 12, 2]",5,9,"[1, 6, 7, 9, 10, 14, 18, 27, 29]",142.3358605,38118,1080,4,38,10,1.1553975034701014
undo,4,23,0,0,0,9,"[0, 22, 13, 12, 2, 9]",6,7,"[6, 7, 10, 14, 18, 27, 29]",129.2974557,39073,955,1,12,10,1.3065798464766785
undo,4,23,0,0,0,14,"[0, 22, 13, 12, 2, 9, 14]",7,6,"[6, 7, 10, 18, 27, 29]",118.8571492,39657,584,1,6,10,1.2857038452263323
undo,4,23,0,0,0,29,"[0, 22, 13, 12, 2, 9, 14, 29]",8,2,"[7, 10]",71.42298425,40720,1063,1,1,10,1.4822676597092734
undo,4,23,0,0,0,7,"[0, 22, 13, 12, 2, 9, 14, 29, 7]",9,1,[10],47.3397951,41453,733,1,0,10,1.5022275496758202
undo,4,23,0,0,1,10,"[0, 22, 13, 12, 2, 9, 14, 29, 7, 10]",10,0,[],19.88073466,42524,1071,1,0,10,1.46560906518872
undo,4,23,0,1,1,10,"[0, 22, 13, 12, 2, 9, 14, 29, 7, 10]",10,0,[],19.88073466,44096,1572,1,0,10,1.46560906518872
undo,5,26,0,0,0,0,[0],1,29,"[1, 2, 3, 4, 5, 6, 7, 8, 9, 10, 11, 12, 13, 14, 15, 16, 17, 18, 19, 20, 21, 22, 23, 24, 25, 26, 27, 28, 29]",300,214,-1,9,226,9,0.0
undo,5,26,0,0,0,4,"[0, 4]",2,13,"[5, 6, 10, 12, 13, 14, 16, 17, 19, 21, 23, 26, 29]",178.7976898,11640,11426,4,118,8,1.0
undo,5,26,0,0,0,17,"[0, 4, 17]",3,10,"[5, 6, 10, 12, 13, 14, 16, 21, 23, 29]",157.7026667,12380,740,1,35,8,1.0014732588101924
undo,5,26,0,0,0,29,"[0, 4, 17, 29]",4,8,"[5, 6, 10, 13, 14, 16, 21, 23]",127.288854,13143,763,12,11,7,1.4134825848205483
undo,5,26,0,0,0,16,"[0, 4, 17, 29, 16]",5,7,"[5, 6, 10, 13, 14, 21, 23]",103.0814172,13865,722,8,2,7,1.7590432125494753
undo,5,26,0,0,0,23,"[0, 4, 17, 29, 16, 23]",6,3,"[5, 13, 21]",49.84609054,14646,781,3,0,7,1.858250385142318
undo,5,26,1,0,0,16,"[0, 4, 17, 29, 16]",5,7,"[5, 6, 10, 13, 14, 21, 23]",103.0814172,16303,1657,8,2,7,1.7590432125494753
undo,5,26,1,0,0,29,"[0, 4, 17, 29]",4,8,"[5, 6, 10, 13, 14, 16, 21, 23]",127.288854,16522,219,12,11,7,1.4134825848205483
undo,5,26,1,0,0,17,"[0, 4, 17]",3,10,"[5, 6, 10, 12, 13, 14, 16, 21, 23, 29]",157.7026667,16792,270,1,35,8,1.0014732588101924
undo,5,26,1,0,0,4,"[0, 4]",2,13,"[5, 6, 10, 12, 13, 14, 16, 17, 19, 21, 23, 26, 29]",178.7976898,17054,262,4,118,8,1.0
undo,5,26,1,0,0,0,[0],1,29,"[1, 2, 3, 4, 5, 6, 7, 8, 9, 10, 11, 12, 13, 14, 15, 16, 17, 18, 19, 20, 21, 22, 23, 24, 25, 26, 27, 28, 29]",300,17404,350,9,226,9,0.0
undo,5,26,0,0,0,21,"[0, 21]",2,25,"[2, 3, 4, 5, 6, 7, 8, 10, 11, 12, 13, 14, 15, 16, 17, 18, 19, 22, 23, 24, 25, 26, 27, 28, 29]",211.1349337,18214,810,7,90,9,1.0
undo,5,26,0,0,0,13,"[0, 21, 13]",3,21,"[3, 4, 5, 6, 7, 8, 10, 11, 12, 14, 15, 16, 17, 18, 19, 22, 23, 24, 25, 26, 29]",188.9989901,19280,1066,6,45,9,1.0103952279992225
undo,5,26,0,0,0,23,"[0, 21, 13, 23]",4,13,"[3, 4, 5, 6, 10, 11, 14, 16, 17, 18, 22, 26, 29]",150.9858345,20300,1020,3,17,9,1.1069410469330032
undo,5,26,0,0,0,16,"[0, 21, 13, 23, 16]",5,7,"[4, 5, 6, 10, 14, 17, 29]",97.75050789,21300,1000,3,13,9,1.8066634000662438
undo,5,26,0,0,0,29,"[0, 21, 13, 23, 16, 29]",6,5,"[4, 6, 10, 14, 17]",73.54307102,22185,885,3,9,9,1.853342605492142
undo,5,26,0,0,0,4,"[0, 21, 13, 23, 16, 29, 4]",7,3,"[6, 14, 17]",49.54307102,22829,644,2,2,9,2.0664369230924997
undo,5,26,0,0,0,17,"[0, 21, 13, 23, 16, 29, 4, 17]",8,2,"[6, 14]",28.44804791,23321,492,2,0,9,1.911153301956092
undo,5,26,0,0,1,14,"[0, 21, 13, 23, 16, 29, 4, 17, 14]",9,0,[],5.975842855,24037,716,1,0,9,1.8245133223656398
undo,5,26,1,0,0,17,"[0, 21, 13, 23, 16, 29, 4, 17]",8,2,"[6, 14]",28.44804791,25042,1005,2,0,9,1.911153301956092
undo,5,26,1,0,0,4,"[0, 21, 13, 23, 16, 29, 4]",7,3,"[6, 14, 17]",49.54307102,25257,215,2,2,9,2.0664369230924997
undo,5,26,1,0,0,29,"[0, 21, 13, 23, 16, 29]",6,5,"[4, 6, 10, 14, 17]",73.54307102,25474,217,3,9,9,1.853342605492142
undo,5,26,1,0,0,16,"[0, 21, 13, 23, 16]",5,7,"[4, 5, 6, 10, 14, 17, 29]",97.75050789,25691,217,3,13,9,1.8066634000662438
undo,5,26,1,0,0,23,"[0, 21, 13, 23]",4,13,"[3, 4, 5, 6, 10, 11, 14, 16, 17, 18, 22, 26, 29]",150.9858345,25928,237,3,17,9,1.1069410469330032
undo,5,26,1,0,0,13,"[0, 21, 13]",3,21,"[3, 4, 5, 6, 7, 8, 10, 11, 12, 14, 15, 16, 17, 18, 19, 22, 23, 24, 25, 26, 29]",188.9989901,26325,397,6,45,9,1.0103952279992225
undo,5,26,1,0,0,21,"[0, 21]",2,25,"[2, 3, 4, 5, 6, 7, 8, 10, 11, 12, 13, 14, 15, 16, 17, 18, 19, 22, 23, 24, 25, 26, 27, 28, 29]",211.1349337,26948,623,7,90,9,1.0
undo,5,26,0,0,0,16,"[0, 21, 16]",3,12,"[4, 5, 6, 10, 11, 12, 13, 14, 17, 23, 26, 29]",151.2266705,28069,1121,1,34,9,1.3289691188319968
undo,5,26,0,0,0,29,"[0, 21, 16, 29]",4,8,"[4, 5, 6, 10, 13, 14, 17, 23]",127.0192337,28769,700,1,28,9,1.4156891800947415
undo,5,26,0,0,0,4,"[0, 21, 16, 29, 4]",5,5,"[6, 10, 14, 17, 23]",103.0192337,29354,585,1,12,9,1.6252228687746915
undo,5,26,0,0,0,17,"[0, 21, 16, 29, 4, 17]",6,3,"[6, 10, 14]",81.92421056,30926,1572,1,4,9,1.534793846471065
undo,5,26,0,0,0,14,"[0, 21, 16, 29, 4, 17, 14]",7,2,"[6, 10]",59.45200551,32456,1530,1,1,9,1.4926767408397108
undo,5,26,0,0,0,6,"[0, 21, 16, 29, 4, 17, 14, 6]",8,1,[10],38.42820947,33235,779,1,0,9,1.6286010900012204
undo,5,26,0,0,1,10,"[0, 21, 16, 29, 4, 17, 14, 6, 10]",9,0,[],9.153647129,34077,842,1,0,9,1.797369356615424
undo,5,26,0,1,1,10,"[0, 21, 16, 29, 4, 17, 14, 6, 10]",9,0,[],9.153647129,48070,13993,1,0,9,1.797369356615424
undo,6,42,0,0,0,0,[0],1,29,"[1, 2, 3, 4, 5, 6, 7, 8, 9, 10, 11, 12, 13, 14, 15, 16, 17, 18, 19, 20, 21, 22, 23, 24, 25, 26, 27, 28, 29]",300,161,-1,16,302,9,0.0
undo,6,42,0,0,0,1,"[0, 1]",2,16,"[2, 3, 4, 5, 6, 7, 8, 10, 15, 18, 19, 22, 24, 26, 27, 28]",144.275885,9905,9744,34,51,6,1.0
undo,6,42,0,0,0,7,"[0, 1, 7]",3,13,"[2, 4, 5, 6, 8, 10, 15, 19, 22, 24, 26, 27, 28]",114.275885,10705,800,16,13,6,1.0721000094554376
undo,6,42,0,0,0,26,"[0, 1, 7, 26]",4,4,"[2, 19, 27, 28]",87.70522446,11345,640,6,1,6,1.072195836060606
undo,6,42,0,0,0,27,"[0, 1, 7, 26, 27]",5,2,"[2, 19]",69.67746809,13549,2204,2,0,6,1.0801367054282334
undo,6,42,1,0,0,26,"[0, 1, 7, 26]",4,4,"[2, 19, 27, 28]",87.70522446,14902,1353,6,1,6,1.072195836060606
undo,6,42,1,0,0,7,"[0, 1, 7]",3,13,"[2, 4, 5, 6, 8, 10, 15, 19, 22, 24, 26, 27, 28]",114.275885,15137,235,16,13,6,1.0721000094554376
undo,6,42,1,0,0,1,"[0, 1]",2,16,"[2, 3, 4, 5, 6, 7, 8, 10, 15, 18, 19, 22, 24, 26, 27, 28]",144.275885,15370,233,34,51,6,1.0
undo,6,42,1,0,0,0,[0],1,29,"[1, 2, 3, 4, 5, 6, 7, 8, 9, 10, 11, 12, 13, 14, 15, 16, 17, 18, 19, 20, 21, 22, 23, 24, 25, 26, 27, 28, 29]",300,15619,249,16,302,9,0.0
undo,6,42,0,0,0,5,"[0, 5]",2,28,"[1, 2, 3, 4, 6, 7, 8, 9, 10, 11, 12, 13, 14, 15, 16, 17, 18, 19, 20, 21, 22, 23, 24, 25, 26, 27, 28, 29]",191.2939744,19530,3911,1,22,9,1.0
undo,6,42,0,0,0,4,"[0, 5, 4]",3,23,"[1, 2, 3, 6, 7, 8, 9, 10, 11, 13, 15, 17, 18, 19, 20, 21, 22, 23, 24, 25, 26, 27, 29]",171.4445412,20299,769,1,14,9,1.420957801478707
undo,6,42,0,0,0,22,"[0, 5, 4, 22]",4,20,"[1, 2, 3, 6, 7, 8, 9, 11, 15, 17, 18, 19, 20, 21, 23, 24, 25, 26, 27, 29]",160.2642013,21027,728,1,11,9,1.5771494659680896
undo,6,42,0,0,0,8,"[0, 5, 4, 22, 8]",5,14,"[1, 2, 3, 6, 7, 11, 15, 18, 19, 24, 25, 26, 27, 29]",138.1282577,21798,771,1,10,9,1.5055393955524201
undo,6,42,0,0,0,1,"[0, 5, 4, 22, 8, 1]",6,5,"[2, 7, 19, 26, 27]",89.03650682,22677,879,1,7,9,1.3547259083637835
undo,6,42,0,0,0,7,"[0, 5, 4, 22, 8, 1, 7]",7,4,"[2, 19, 26, 27]",59.03650682,24361,1684,1,3,9,1.3909715672447451
undo,6,42,0,0,0,26,"[0, 5, 4, 22, 8, 1, 7, 26]",8,1,[27],32.46584631,25145,784,1,0,9,1.3511825943939393
undo,6,42,0,0,1,27,"[0, 5, 4, 22, 8, 1, 7, 26, 27]",9,0,[],14.43808994,26452,1307,1,0,9,1.3391911688802078
undo,6,42,1,0,0,26,"[0, 5, 4, 22, 8, 1, 7, 26]",8,1,[27],32.46584631,28910,2458,1,0,9,1.3511825943939393
undo,6,42,1,0,0,7,"[0, 5, 4, 22, 8, 1, 7]",7,4,"[2, 19, 26, 27]",59.03650682,29111,201,1,3,9,1.3909715672447451
undo,6,42,1,0,0,1,"[0, 5, 4, 22, 8, 1]",6,5,"[2, 7, 19, 26, 27]",89.03650682,29293,182,1,7,9,1.3547259083637835
undo,6,42,1,0,0,8,"[0, 5, 4, 22, 8]",5,14,"[1, 2, 3, 6, 7, 11, 15, 18, 19, 24, 25, 26, 27, 29]",138.1282577,29464,171,1,10,9,1.5055393955524201
undo,6,42,1,0,0,22,"[0, 5, 4, 22]",4,20,"[1, 2, 3, 6, 7, 8, 9, 11, 15, 17, 18, 19, 20, 21, 23, 24, 25, 26, 27, 29]",160.2642013,29658,194,1,11,9,1.5771494659680896
undo,6,42,1,0,0,4,"[0, 5, 4]",3,23,"[1, 2, 3, 6, 7, 8, 9, 10, 11, 13, 15, 17, 18, 19, 20, 21, 22, 23, 24, 25, 26, 27, 29]",171.4445412,29862,204,1,14,9,1.420957801478707
undo,6,42,1,0,0,5,"[0, 5]",2,28,"[1, 2, 3, 4, 6, 7, 8, 9, 10, 11, 12, 13, 14, 15, 16, 17, 18, 19, 20, 21, 22, 23, 24, 25, 26, 27, 28, 29]",191.2939744,30076,214,1,22,9,1.0
undo,6,42,1,0,0,0,[0],1,29,"[1, 2, 3, 4, 5, 6, 7, 8, 9, 10, 11, 12, 13, 14, 15, 16, 17, 18, 19, 20, 21, 22, 23, 24, 25, 26, 27, 28, 29]",300,30449,373,16,302,9,0.0
undo,6,42,0,0,0,3,"[0, 3]",2,25,"[1, 2, 4, 5, 6, 7, 8, 9, 10, 11, 13, 15, 17, 18, 19, 20, 21, 22, 23, 24, 25, 26, 27, 28, 29]",255.7959278,31540,1091,3,45,9,1.0
undo,6,42,0,0,0,23,"[0, 3, 23]",3,15,"[1, 2, 4, 5, 6, 7, 8, 9, 11, 15, 17, 22, 24, 25, 29]",202.4573864,32654,1114,1,24,8,1.2042297975308642
undo,6,42,0,0,0,11,"[0, 3, 23, 11]",4,13,"[1, 2, 4, 5, 6, 7, 8, 15, 17, 22, 24, 25, 29]",157.4462766,33907,1253,8,11,7,1.5530792255182428
undo,6,42,0,0,0,24,"[0, 3, 23, 11, 24]",5,4,"[2, 6, 8, 15]",99.43765659,35422,1515,2,3,7,1.5306089475712006
undo,6,42,0,0,0,15,"[0, 3, 23, 11, 24, 15]",6,2,"[2, 6]",85.83618608,36076,654,2,0,7,1.4807999604486335
undo,6,42,1,0,0,24,"[0, 3, 23, 11, 24]",5,4,"[2, 6, 8, 15]",99.43765659,37333,1257,2,3,7,1.5306089475712006
undo,6,42,1,0,0,11,"[0, 3, 23, 11]",4,13,"[1, 2, 4, 5, 6, 7, 8, 15, 17, 22, 24, 25, 29]",157.4462766,37529,196,8,11,7,1.5530792255182428
undo,6,42,1,0,0,23,"[0, 3, 23]",3,15,"[1, 2, 4, 5, 6, 7, 8, 9, 11, 15, 17, 22, 24, 25, 29]",202.4573864,37781,252,1,24,8,1.2042297975308642
undo,6,42,1,0,0,3,"[0, 3]",2,25,"[1, 2, 4, 5, 6, 7, 8, 9, 10, 11, 13, 15, 17, 18, 19, 20, 21, 22, 23, 24, 25, 26, 27, 28, 29]",255.7959278,38113,332,3,45,9,1.0
undo,6,42,1,0,0,0,[0],1,29,"[1, 2, 3, 4, 5, 6, 7, 8, 9, 10, 11, 12, 13, 14, 15, 16, 17, 18, 19, 20, 21, 22, 23, 24, 25, 26, 27, 28, 29]",300,38513,400,16,302,9,0.0
undo,6,42,0,0,0,3,"[0, 3]",2,25,"[1, 2, 4, 5, 6, 7, 8, 9, 10, 11, 13, 15, 17, 18, 19, 20, 21, 22, 23, 24, 25, 26, 27, 28, 29]",255.7959278,44828,6315,3,45,9,1.0
undo,6,42,0,0,0,4,"[0, 3, 4]",3,23,"[1, 2, 5, 6, 7, 8, 9, 10, 11, 13, 15, 17, 18, 19, 20, 21, 22, 23, 24, 25, 26, 27, 29]",165.3691618,47113,2285,1,16,9,1.4881105916904676
undo,6,42,0,0,0,22,"[0, 3, 4, 22]",4,19,"[1, 2, 5, 6, 7, 8, 11, 15, 17, 18, 19, 20, 21, 23, 24, 25, 26, 27, 29]",154.188822,48033,920,1,11,9,1.645720163725504
undo,6,42,0,0,0,8,"[0, 3, 4, 22, 8]",5,13,"[1, 2, 5, 7, 11, 15, 18, 19, 24, 25, 26, 27, 29]",132.0528783,48746,713,1,8,9,1.5620453854161471
undo,6,42,0,0,0,1,"[0, 3, 4, 22, 8, 1]",6,6,"[2, 5, 7, 19, 26, 27]",82.9611275,49479,733,1,7,9,1.3937396431284002
undo,6,42,0,0,0,7,"[0, 3, 4, 22, 8, 1, 7]",7,4,"[2, 19, 26, 27]",52.9611275,50248,769,1,3,9,1.4260419415276828
undo,6,42,0,0,0,26,"[0, 3, 4, 22, 8, 1, 7, 26]",8,1,[27],26.39046699,51198,950,1,0,9,1.3818663283333334
undo,6,42,0,0,1,27,"[0, 3, 4, 22, 8, 1, 7, 26, 27]",9,0,[],8.362710609,53396,2198,1,0,9,1.3676826940488238
undo,6,42,0,1,1,27,"[0, 3, 4, 22, 8, 1, 7, 26, 27]",9,0,[],8.362710609,54624,1228,1,0,9,1.3676826940488238
undo,7,9,0,0,0,0,[0],1,27,"[1, 3, 4, 5, 6, 7, 8, 9, 10, 11, 13, 14, 15, 16, 17, 18, 19, 20, 21, 22, 23, 24, 25, 26, 27, 28, 29]",300,164,-1,2,182,10,0.0
undo,7,9,0,0,0,25,"[0, 25]",2,24,"[1, 3, 4, 5, 6, 7, 8, 9, 10, 11, 13, 15, 16, 17, 18, 19, 20, 21, 22, 23, 24, 26, 27, 28]",275.9168108,2949,2785,2,104,10,1.0
undo,7,9,0,0,0,10,"[0, 25, 10]",3,20,"[3, 4, 5, 7, 8, 9, 11, 13, 15, 16, 17, 18, 19, 20, 21, 22, 23, 26, 27, 28]",236.0670932,3797,848,2,76,10,1.1767014107208227
undo,7,9,0,0,0,8,"[0, 25, 10, 8]",4,19,"[3, 4, 5, 7, 9, 11, 13, 15, 16, 17, 18, 19, 20, 21, 22, 23, 26, 27, 28]",187.6935467,5008,1211,1,29,10,1.7608170712242983
undo,7,9,0,0,0,28,"[0, 25, 10, 8, 28]",5,18,"[3, 4, 5, 7, 9, 11, 13, 15, 16, 17, 18, 19, 20, 21, 22, 23, 26, 27]",176.8768928,5933,925,1,15,10,1.6576318206889098
undo,7,9,0,0,0,23,"[0, 25, 10, 8, 28, 23]",6,12,"[3, 4, 7, 9, 11, 18, 19, 20, 21, 22, 26, 27]",151.8569008,6973,1040,1,7,10,2.488131366775142
undo,7,9,0,0,0,9,"[0, 25, 10, 8, 28, 23, 9]",7,10,"[3, 4, 7, 11, 18, 19, 20, 21, 26, 27]",129.4962211,7743,770,1,5,10,2.289724512754012
undo,7,9,0,0,0,26,"[0, 25, 10, 8, 28, 23, 9, 26]",8,3,"[18, 20, 21]",72.8481849,8709,966,1,2,10,1.944382504121744
undo,7,9,1,0,0,9,"[0, 25, 10, 8, 28, 23, 9]",7,10,"[3, 4, 7, 11, 18, 19, 20, 21, 26, 27]",129.4962211,12265,3556,1,5,10,2.289724512754012
undo,7,9,1,0,0,23,"[0, 25, 10, 8, 28, 23]",6,12,"[3, 4, 7, 9, 11, 18, 19, 20, 21, 22, 26, 27]",151.8569008,12483,218,1,7,10,2.488131366775142
undo,7,9,1,0,0,28,"[0, 25, 10, 8, 28]",5,18,"[3, 4, 5, 7, 9, 11, 13, 15, 16, 17, 18, 19, 20, 21, 22, 23, 26, 27]",176.8768928,12702,219,1,15,10,1.6576318206889098
undo,7,9,1,0,0,8,"[0, 25, 10, 8]",4,19,"[3, 4, 5, 7, 9, 11, 13, 15, 16, 17, 18, 19, 20, 21, 22, 23, 26, 27, 28]",187.6935467,12931,229,1,29,10,1.7608170712242983
undo,7,9,1,0,0,10,"[0, 25, 10]",3,20,"[3, 4, 5, 7, 8, 9, 11, 13, 15, 16, 17, 18, 19, 20, 21, 22, 23, 26, 27, 28]",236.0670932,13181,250,2,76,10,1.1767014107208227
undo,7,9,1,0,0,25,"[0, 25]",2,24,"[1, 3, 4, 5, 6, 7, 8, 9, 10, 11, 13, 15, 16, 17, 18, 19, 20, 21, 22, 23, 24, 26, 27, 28]",275.9168108,13449,268,2,104,10,1.0
undo,7,9,1,0,0,0,[0],1,27,"[1, 3, 4, 5, 6, 7, 8, 9, 10, 11, 13, 14, 15, 16, 17, 18, 19, 20, 21, 22, 23, 24, 25, 26, 27, 28, 29]",300,13866,417,2,182,10,0.0
undo,7,9,0,0,0,7,"[0, 7]",2,19,"[3, 4, 5, 8, 9, 10, 11, 16, 17, 18, 19, 20, 21, 22, 23, 25, 26, 27, 28]",258.4067313,16678,2812,39,322,9,1.0
undo,7,9,0,0,0,4,"[0, 7, 4]",3,15,"[3, 8, 9, 10, 11, 18, 19, 20, 21, 22, 23, 25, 26, 27, 28]",243.4067313,17176,498,32,159,9,1.002790151820037
undo,7,9,0,0,0,27,"[0, 7, 4, 27]",4,11,"[8, 9, 10, 11, 20, 21, 22, 23, 25, 26, 28]",181.165266,18064,888,19,48,9,2.2170504989781823
undo,7,9,0,0,0,25,"[0, 7, 4, 27, 25]",5,10,"[8, 9, 10, 11, 20, 21, 22, 23, 26, 28]",145.2626199,18825,761,17,30,9,6.425119990857526
undo,7,9,0,0,0,10,"[0, 7, 4, 27, 25, 10]",6,8,"[8, 9, 20, 21, 22, 23, 26, 28]",105.4129022,19509,684,10,7,9,3.581425027421569
undo,7,9,0,0,0,28,"[0, 7, 4, 27, 25, 10, 28]",7,4,"[8, 9, 23, 26]",48.4129022,20945,1436,3,2,9,3.387169057637727
undo,7,9,0,0,0,8,"[0, 7, 4, 27, 25, 10, 28, 8]",8,1,[23],37.59624838,21734,789,1,0,9,4.114144751518002
undo,7,9,0,0,1,23,"[0, 7, 4, 27, 25, 10, 28, 8, 23]",9,0,[],16.12533782,22579,845,1,0,9,4.767805284329809
undo,7,9,1,0,0,8,"[0, 7, 4, 27, 25, 10, 28, 8]",8,1,[23],37.59624838,25222,2643,1,0,9,4.114144751518002
undo,7,9,1,0,0,28,"[0, 7, 4, 27, 25, 10, 28]",7,4,"[8, 9, 23, 26]",48.4129022,25471,249,3,2,9,3.387169057637727
undo,7,9,1,0,0,10,"[0, 7, 4, 27, 25, 10]",6,8,"[8, 9, 20, 21, 22, 23, 26, 28]",105.4129022,25888,417,10,7,9,3.581425027421569
undo,7,9,0,0,0,8,"[0, 7, 4, 27, 25, 10, 8]",7,4,"[9, 23, 26, 28]",57.03935571,26826,938,5,2,9,3.8093024713254513
undo,7,9,0,0,0,23,"[0, 7, 4, 27, 25, 10, 8, 23]",8,2,"[9, 28]",35.56844516,27598,772,2,0,9,4.441249369802066
undo,7,9,1,0,0,8,"[0, 7, 4, 27, 25, 10, 8]",7,4,"[9, 23, 26, 28]",57.03935571,29546,1948,5,2,9,3.8093024713254513
undo,7,9,1,0,0,10,"[0, 7, 4, 27, 25, 10]",6,8,"[8, 9, 20, 21, 22, 23, 26, 28]",105.4129022,29839,293,10,7,9,3.581425027421569
undo,7,9,1,0,0,25,"[0, 7, 4, 27, 25]",5,10,"[8, 9, 10, 11, 20, 21, 22, 23, 26, 28]",145.2626199,65144,35305,17,30,9,6.425119990857526
undo,7,9,1,0,0,27,"[0, 7, 4, 27]",4,11,"[8, 9, 10, 11, 20, 21, 22, 23, 25, 26, 28]",181.165266,65513,369,19,48,9,2.2170504989781823
undo,7,9,1,0,0,4,"[0, 7, 4]",3,15,"[3, 8, 9, 10, 11, 18, 19, 20, 21, 22, 23, 25, 26, 27, 28]",243.4067313,65727,214,32,159,9,1.002790151820037
undo,7,9,1,0,0,7,"[0, 7]",2,19,"[3, 4, 5, 8, 9, 10, 11, 16, 17, 18, 19, 20, 21, 22, 23, 25, 26, 27, 28]",258.4067313,65941,214,39,322,9,1.0
undo,7,9,1,0,0,0,[0],1,27,"[1, 3, 4, 5, 6, 7, 8, 9, 10, 11, 13, 14, 15, 16, 17, 18, 19, 20, 21, 22, 23, 24, 25, 26, 27, 28, 29]",300,66294,353,2,182,10,0.0
undo,7,9,0,0,0,8,"[0, 8]",2,25,"[1, 3, 4, 5, 6, 7, 9, 10, 11, 13, 14, 15, 16, 17, 18, 19, 20, 21, 22, 23, 24, 25, 26, 27, 28]",236.2191251,69217,2923,2,102,9,1.0
undo,7,9,0,0,0,28,"[0, 8, 28]",3,23,"[1, 3, 4, 5, 6, 7, 9, 10, 11, 13, 15, 16, 17, 18, 19, 20, 21, 22, 23, 24, 25, 26, 27]",225.4024713,69968,751,2,52,9,1.0043219354187498
undo,7,9,1,0,0,8,"[0, 8]",2,25,"[1, 3, 4, 5, 6, 7, 9, 10, 11, 13, 14, 15, 16, 17, 18, 19, 20, 21, 22, 23, 24, 25, 26, 27, 28]",236.2191251,74253,4285,2,102,9,1.0
undo,7,9,0,0,0,23,"[0, 8, 23]",3,23,"[1, 3, 4, 5, 6, 7, 9, 10, 11, 13, 15, 16, 17, 18, 19, 20, 21, 22, 24, 25, 26, 27, 28]",214.7482146,75236,983,30,187,8,1.431842876737407
undo,7,9,0,0,0,9,"[0, 8, 23, 9]",4,21,"[1, 3, 4, 5, 7, 10, 11, 13, 15, 16, 17, 18, 19, 20, 21, 22, 24, 25, 26, 27, 28]",192.3875348,75963,727,18,69,8,1.4451462661765562
undo,7,9,0,0,0,28,"[0, 8, 23, 9, 28]",5,14,"[3, 4, 7, 10, 16, 17, 18, 19, 20, 21, 22, 25, 26, 27]",151.5708715,77054,1091,12,21,8,1.9983320118704992
undo,7,9,0,0,0,26,"[0, 8, 23, 9, 28, 26]",6,5,"[10, 18, 19, 20, 21]",106.7936452,78011,957,2,3,8,1.653814898167891
undo,7,9,0,0,0,21,"[0, 8, 23, 9, 28, 26, 21]",7,1,[20],52.88631729,80140,2129,1,0,8,2.0847723137498333
undo,7,9,1,0,0,26,"[0, 8, 23, 9, 28, 26]",6,5,"[10, 18, 19, 20, 21]",106.7936452,81648,1508,2,3,8,1.653814898167891
undo,7,9,1,0,0,28,"[0, 8, 23, 9, 28]",5,14,"[3, 4, 7, 10, 16, 17, 18, 19, 20, 21, 22, 25, 26, 27]",151.5708715,81886,238,12,21,8,1.9983320118704992
undo,7,9,1,0,0,9,"[0, 8, 23, 9]",4,21,"[1, 3, 4, 5, 7, 10, 11, 13, 15, 16, 17, 18, 19, 20, 21, 22, 24, 25, 26, 27, 28]",192.3875348,82132,246,18,69,8,1.4451462661765562
undo,7,9,1,0,0,23,"[0, 8, 23]",3,23,"[1, 3, 4, 5, 6, 7, 9, 10, 11, 13, 15, 16, 17, 18, 19, 20, 21, 22, 24, 25, 26, 27, 28]",214.7482146,82383,251,30,187,8,1.431842876737407
undo,7,9,1,0,0,8,"[0, 8]",2,25,"[1, 3, 4, 5, 6, 7, 9, 10, 11, 13, 14, 15, 16, 17, 18, 19, 20, 21, 22, 23, 24, 25, 26, 27, 28]",236.2191251,82635,252,2,102,9,1.0
undo,7,9,1,0,0,0,[0],1,27,"[1, 3, 4, 5, 6, 7, 8, 9, 10, 11, 13, 14, 15, 16, 17, 18, 19, 20, 21, 22, 23, 24, 25, 26, 27, 28, 29]",300,83116,481,2,182,10,0.0
undo,7,9,0,0,0,25,"[0, 25]",2,24,"[1, 3, 4, 5, 6, 7, 8, 9, 10, 11, 13, 15, 16, 17, 18, 19, 20, 21, 22, 23, 24, 26, 27, 28]",275.9168108,85130,2014,2,104,10,1.0
undo,7,9,0,0,0,10,"[0, 25, 10]",3,20,"[3, 4, 5, 7, 8, 9, 11, 13, 15, 16, 17, 18, 19, 20, 21, 22, 23, 26, 27, 28]",236.0670932,85849,719,2,76,10,1.1767014107208227
undo,7,9,0,0,0,28,"[0, 25, 10, 28]",4,19,"[3, 4, 5, 7, 8, 9, 11, 13, 15, 16, 17, 18, 19, 20, 21, 22, 23, 26, 27]",179.0670932,88093,2244,1,17,10,1.628144700364468
undo,7,9,0,0,0,8,"[0, 25, 10, 28, 8]",5,15,"[3, 4, 7, 9, 11, 16, 17, 18, 19, 20, 21, 22, 23, 26, 27]",168.2504393,88882,789,1,10,10,2.0656593525143574
undo,7,9,0,0,0,23,"[0, 25, 10, 28, 8, 23]",6,12,"[3, 4, 7, 9, 11, 18, 19, 20, 21, 22, 26, 27]",146.7795288,89643,761,1,7,10,2.573408160646792
undo,7,9,0,0,0,9,"[0, 25, 10, 28, 8, 23, 9]",7,9,"[3, 4, 7, 11, 18, 19, 20, 21, 26]",124.418849,90717,1074,1,5,10,2.3579094141840375
undo,7,9,0,0,0,26,"[0, 25, 10, 28, 8, 23, 9, 26]",8,3,"[18, 20, 21]",67.77081284,92613,1896,1,2,10,1.9878439811785502
undo,7,9,0,0,0,21,"[0, 25, 10, 28, 8, 23, 9, 26, 21]",9,1,[20],13.86348496,93728,1115,1,0,10,2.4139880801675853
undo,7,9,0,0,1,20,"[0, 25, 10, 28, 8, 23, 9, 26, 21, 20]",10,0,[],1.780438983,94986,1258,1,0,10,2.3546911124891037
undo,7,9,0,1,1,20,"[0, 25, 10, 28, 8, 23, 9, 26, 21, 20]",10,0,[],1.780438983,96709,1723,1,0,10,2.3546911124891037
undo,8,13,0,0,0,0,[0],1,29,"[1, 2, 3, 4, 5, 6, 7, 8, 9, 10, 11, 12, 13, 14, 15, 16, 17, 18, 19, 20, 21, 22, 23, 24, 25, 26, 27, 28, 29]",300,150,-1,60,2676,11,0.0
undo,8,13,0,0,0,24,"[0, 24]",2,28,"[1, 2, 3, 4, 5, 6, 7, 8, 9, 10, 11, 12, 13, 14, 15, 16, 17, 18, 19, 20, 21, 22, 23, 25, 26, 27, 28, 29]",288.8196601,4581,4431,16,1444,11,1.0
undo,8,13,0,0,0,28,"[0, 24, 28]",3,23,"[1, 2, 3, 4, 6, 7, 8, 9, 10, 11, 12, 13, 15, 16, 17, 19, 20, 21, 22, 23, 26, 27, 29]",222.5324064,7494,2913,8,243,11,1.0513810491680837
undo,8,13,0,0,0,2,"[0, 24, 28, 2]",4,19,"[1, 3, 4, 6, 7, 9, 11, 12, 13, 15, 16, 17, 19, 20, 21, 23, 26, 27, 29]",184.889346,8385,891,7,110,11,1.050374132001543
undo,8,13,0,0,0,29,"[0, 24, 28, 2, 29]",5,18,"[1, 3, 4, 6, 7, 9, 11, 12, 13, 15, 16, 17, 19, 20, 21, 23, 26, 27]",173.1846461,10208,1823,7,85,11,1.1393409619120594
undo,8,13,0,0,0,7,"[0, 24, 28, 2, 29, 7]",6,17,"[1, 3, 4, 6, 9, 11, 12, 13, 15, 16, 17, 19, 20, 21, 23, 26, 27]",157.9203086,10998,790,5,45,11,1.349777315111579
undo,8,13,0,0,0,26,"[0, 24, 28, 2, 29, 7, 26]",7,16,"[1, 3, 4, 6, 9, 11, 12, 13, 15, 16, 17, 19, 20, 21, 23, 27]",147.480002,11800,802,5,25,11,1.5942082773824946
undo,8,13,0,0,0,6,"[0, 24, 28, 2, 29, 7, 26, 6]",8,12,"[1, 3, 4, 11, 13, 15, 16, 17, 19, 20, 23, 27]",127.3802508,12499,699,4,12,11,1.5898347940840756
undo,8,13,0,0,0,11,"[0, 24, 28, 2, 29, 7, 26, 6, 11]",9,6,"[1, 13, 15, 16, 17, 23]",108.2752776,13536,1037,3,4,11,1.5029953945561012
undo,8,13,0,0,0,13,"[0, 24, 28, 2, 29, 7, 26, 6, 11, 13]",10,2,"[15, 17]",52.19497806,17098,3562,2,0,11,1.3655915863754327
undo,8,13,0,0,1,17,"[0, 24, 28, 2, 29, 7, 26, 6, 11, 13, 17]",11,0,[],18.81833952,25361,8263,1,0,11,1.4149038511024103
undo,8,13,0,1,1,17,"[0, 24, 28, 2, 29, 7, 26, 6, 11, 13, 17]",11,0,[],18.81833952,28830,3469,1,0,11,1.4149038511024103
undo,9,20,0,0,0,0,[0],1,21,"[1, 2, 3, 4, 5, 6, 7, 8, 9, 12, 17, 18, 20, 21, 22, 23, 25, 26, 27, 28, 29]",300,210,-1,1,9,9,0.0
undo,9,20,0,0,0,12,"[0, 12]",2,20,"[1, 2, 3, 4, 5, 6, 7, 8, 9, 17, 18, 20, 21, 22, 23, 25, 26, 27, 28, 29]",271.5570747,7620,7410,1,8,9,1.0
undo,9,20,0,0,0,1,"[0, 12, 1]",3,12,"[3, 4, 5, 6, 8, 9, 20, 21, 23, 27, 28, 29]",189.5692707,11574,3954,1,6,9,1.0757997779162911
undo,9,20,0,0,0,5,"[0, 12, 1, 5]",4,10,"[4, 6, 8, 9, 20, 21, 23, 27, 28, 29]",152.8950291,12466,892,1,5,9,1.1708231454516806
undo,9,20,0,0,0,21,"[0, 12, 1, 5, 21]",5,8,"[4, 6, 8, 9, 20, 23, 27, 28]",107.8950291,13523,1057,1,4,9,1.126197336199212
undo,9,20,0,0,0,8,"[0, 12, 1, 5, 21, 8]",6,5,"[6, 9, 23, 27, 28]",90.43077988,14478,955,1,3,9,1.140007470699913
undo,9,20,0,0,0,23,"[0, 12, 1, 5, 21, 8, 23]",7,2,"[6, 9]",45.74297394,15445,967,1,1,9,1.1162257896627588
undo,9,20,0,0,0,9,"[0, 12, 1, 5, 21, 8, 23, 9]",8,1,[6],26.53360123,16278,833,1,0,9,1.1086880559449597
undo,9,20,0,0,1,6,"[0, 12, 1, 5, 21, 8, 23, 9, 6]",9,0,[],3.511872362,17194,916,1,0,9,1.1186240265999328
undo,9,20,1,0,0,9,"[0, 12, 1, 5, 21, 8, 23, 9]",8,1,[6],26.53360123,17736,542,1,0,9,1.1086880559449597
undo,9,20,1,0,0,23,"[0, 12, 1, 5, 21, 8, 23]",7,2,"[6, 9]",45.74297394,17987,251,1,1,9,1.1162257896627588
undo,9,20,1,0,0,8,"[0, 12, 1, 5, 21, 8]",6,5,"[6, 9, 23, 27, 28]",90.43077988,18203,216,1,3,9,1.140007470699913
undo,9,20,1,0,0,21,"[0, 12, 1, 5, 21]",5,8,"[4, 6, 8, 9, 20, 23, 27, 28]",107.8950291,18453,250,1,4,9,1.126197336199212
undo,9,20,1,0,0,5,"[0, 12, 1, 5]",4,10,"[4, 6, 8, 9, 20, 21, 23, 27, 28, 29]",152.8950291,18887,434,1,5,9,1.1708231454516806
undo,9,20,1,0,0,1,"[0, 12, 1]",3,12,"[3, 4, 5, 6, 8, 9, 20, 21, 23, 27, 28, 29]",189.5692707,19143,256,1,6,9,1.0757997779162911
undo,9,20,1,0,0,12,"[0, 12]",2,20,"[1, 2, 3, 4, 5, 6, 7, 8, 9, 17, 18, 20, 21, 22, 23, 25, 26, 27, 28, 29]",271.5570747,19420,277,1,8,9,1.0
undo,9,20,0,0,0,5,"[0, 12, 5]",3,13,"[1, 3, 4, 6, 8, 9, 20, 21, 23, 26, 27, 28, 29]",171.4321527,34721,15301,2,19,8,1.0232843285905395
undo,9,20,0,0,0,21,"[0, 12, 5, 21]",4,10,"[1, 4, 6, 8, 9, 20, 23, 26, 27, 28]",126.4321527,35661,940,2,12,8,1.017525191374897
undo,9,20,0,0,0,8,"[0, 12, 5, 21, 8]",5,6,"[1, 6, 9, 23, 27, 28]",108.9679035,36477,816,2,6,8,1.0391698601004782
undo,9,20,0,0,0,23,"[0, 12, 5, 21, 8, 23]",6,3,"[6, 9, 27]",64.28009758,37823,1346,2,1,8,1.0348450868606567
undo,9,20,0,0,0,9,"[0, 12, 5, 21, 8, 23, 9]",7,1,[6],45.07072487,38625,802,1,0,8,1.0335348098288684
undo,9,20,1,0,0,23,"[0, 12, 5, 21, 8, 23]",6,3,"[6, 9, 27]",64.28009758,40197,1572,2,1,8,1.0348450868606567
undo,9,20,1,0,0,8,"[0, 12, 5, 21, 8]",5,6,"[1, 6, 9, 23, 27, 28]",108.9679035,40414,217,2,6,8,1.0391698601004782
undo,9,20,1,0,0,21,"[0, 12, 5, 21]",4,10,"[1, 4, 6, 8, 9, 20, 23, 26, 27, 28]",126.4321527,40648,234,2,12,8,1.017525191374897
undo,9,20,1,0,0,5,"[0, 12, 5]",3,13,"[1, 3, 4, 6, 8, 9, 20, 21, 23, 26, 27, 28, 29]",171.4321527,40881,233,2,19,8,1.0232843285905395
undo,9,20,1,0,0,12,"[0, 12]",2,20,"[1, 2, 3, 4, 5, 6, 7, 8, 9, 17, 18, 20, 21, 22, 23, 25, 26, 27, 28, 29]",271.5570747,41181,300,1,8,9,1.0
undo,9,20,0,0,0,29,"[0, 12, 29]",3,13,"[1, 3, 4, 5, 7, 8, 17, 18, 20, 21, 25, 27, 28]",218.4722369,42376,1195,13,25,6,1.5064191946670615
undo,9,20,0,0,0,4,"[0, 12, 29, 4]",4,6,"[1, 3, 5, 20, 21, 28]",110.2040514,46914,4538,6,0,5,1.5024890486007698
undo,9,20,1,0,0,29,"[0, 12, 29]",3,13,"[1, 3, 4, 5, 7, 8, 17, 18, 20, 21, 25, 27, 28]",218.4722369,47951,1037,13,25,6,1.5064191946670615
undo,9,20,1,0,0,12,"[0, 12]",2,20,"[1, 2, 3, 4, 5, 6, 7, 8, 9, 17, 18, 20, 21, 22, 23, 25, 26, 27, 28, 29]",271.5570747,48218,267,1,8,9,1.0
undo,9,20,0,0,0,1,"[0, 12, 1]",3,12,"[3, 4, 5, 6, 8, 9, 20, 21, 23, 27, 28, 29]",189.5692707,50295,2077,1,6,9,1.0757997779162911
undo,9,20,0,0,0,5,"[0, 12, 1, 5]",4,10,"[4, 6, 8, 9, 20, 21, 23, 27, 28, 29]",152.8950291,51160,865,1,5,9,1.1708231454516806
undo,9,20,0,0,0,28,"[0, 12, 1, 5, 28]",5,4,"[8, 9, 21, 23]",82.8593239,53010,1850,2,2,7,1.1313554119713172
undo,9,20,0,0,0,21,"[0, 12, 1, 5, 28, 21]",6,1,[8],46.61018598,54242,1232,1,0,7,1.4854739689057037
undo,9,20,0,0,1,8,"[0, 12, 1, 5, 28, 21, 8]",7,0,[],29.14593678,54926,684,1,0,7,1.473382662603891
undo,9,20,1,0,0,21,"[0, 12, 1, 5, 28, 21]",6,1,[8],46.61018598,55904,978,1,0,7,1.4854739689057037
undo,9,20,1,0,0,28,"[0, 12, 1, 5, 28]",5,4,"[8, 9, 21, 23]",82.8593239,56122,218,2,2,7,1.1313554119713172
undo,9,20,1,0,0,5,"[0, 12, 1, 5]",4,10,"[4, 6, 8, 9, 20, 21, 23, 27, 28, 29]",152.8950291,56390,268,1,5,9,1.1708231454516806
undo,9,20,0,0,0,21,"[0, 12, 1, 5, 21]",5,8,"[4, 6, 8, 9, 20, 23, 27, 28]",107.8950291,57520,1130,1,4,9,1.126197336199212
undo,9,20,0,0,0,8,"[0, 12, 1, 5, 21, 8]",6,5,"[6, 9, 23, 27, 28]",90.43077988,58298,778,1,3,9,1.140007470699913
undo,9,20,0,0,0,23,"[0, 12, 1, 5, 21, 8, 23]",7,2,"[6, 9]",45.74297394,59351,1053,1,1,9,1.1162257896627588
undo,9,20,0,0,0,9,"[0, 12, 1, 5, 21, 8, 23, 9]",8,1,[6],26.53360123,60191,840,1,0,9,1.1086880559449597
undo,9,20,0,0,1,6,"[0, 12, 1, 5, 21, 8, 23, 9, 6]",9,0,[],3.511872362,61191,1000,1,0,9,1.1186240265999328
undo,9,20,0,1,1,6,"[0, 12, 1, 5, 21, 8, 23, 9, 6]",9,0,[],3.511872362,62258,1067,1,0,9,1.1186240265999328
undo,10,44,0,0,0,0,[0],1,29,"[1, 2, 3, 4, 5, 6, 7, 8, 9, 10, 11, 12, 13, 14, 15, 16, 17, 18, 19, 20, 21, 22, 23, 24, 25, 26, 27, 28, 29]",300,167,-1,13,126,7,0.0
undo,10,44,0,0,0,11,"[0, 11]",2,18,"[4, 5, 6, 7, 8, 9, 12, 14, 16, 17, 19, 20, 22, 23, 24, 25, 26, 28]",152.7790776,10295,10128,5,34,7,1.0
undo,10,44,0,0,0,24,"[0, 11, 24]",3,13,"[4, 5, 7, 8, 9, 12, 14, 17, 20, 22, 23, 25, 28]",125.8532535,11142,847,5,23,7,1.1588941745226709
undo,10,44,0,0,0,9,"[0, 11, 24, 9]",4,7,"[4, 7, 8, 12, 14, 20, 23]",93.09657483,11893,751,2,8,7,1.3039383713641313
undo,10,44,0,0,0,4,"[0, 11, 24, 9, 4]",5,5,"[7, 12, 14, 20, 23]",73.39885923,12613,720,2,3,7,1.2901330701441578
undo,10,44,0,0,0,7,"[0, 11, 24, 9, 4, 7]",6,1,[23],42.38273439,13260,647,1,0,7,1.2468141312360979
undo,10,44,1,0,0,4,"[0, 11, 24, 9, 4]",5,5,"[7, 12, 14, 20, 23]",73.39885923,15204,1944,2,3,7,1.2901330701441578
undo,10,44,1,0,0,9,"[0, 11, 24, 9]",4,7,"[4, 7, 8, 12, 14, 20, 23]",93.09657483,15471,267,2,8,7,1.3039383713641313
undo,10,44,1,0,0,24,"[0, 11, 24]",3,13,"[4, 5, 7, 8, 9, 12, 14, 17, 20, 22, 23, 25, 28]",125.8532535,15768,297,5,23,7,1.1588941745226709
undo,10,44,1,0,0,11,"[0, 11]",2,18,"[4, 5, 6, 7, 8, 9, 12, 14, 16, 17, 19, 20, 22, 23, 24, 25, 26, 28]",152.7790776,16094,326,5,34,7,1.0
undo,10,44,1,0,0,0,[0],1,29,"[1, 2, 3, 4, 5, 6, 7, 8, 9, 10, 11, 12, 13, 14, 15, 16, 17, 18, 19, 20, 21, 22, 23, 24, 25, 26, 27, 28, 29]",300,16485,391,13,126,7,0.0
undo,10,44,0,0,0,8,"[0, 8]",2,17,"[1, 4, 5, 7, 9, 10, 11, 12, 13, 14, 15, 20, 21, 23, 24, 25, 27]",145.7923478,17795,1310,1,10,7,1.0
undo,10,44,0,0,0,20,"[0, 8, 20]",3,16,"[1, 4, 5, 7, 9, 10, 11, 12, 13, 14, 15, 21, 23, 24, 25, 27]",133.7093018,18414,619,1,9,7,1.0890794433668698
undo,10,44,0,0,0,9,"[0, 8, 20, 9]",4,7,"[4, 7, 11, 12, 14, 23, 24]",76.43801756,19667,1253,1,6,7,1.40892325509949
undo,10,44,0,0,0,4,"[0, 8, 20, 9, 4]",5,4,"[7, 12, 23, 24]",56.74030196,20178,511,1,3,7,1.3849770570803555
undo,10,44,0,0,0,7,"[0, 8, 20, 9, 4, 7]",6,1,[23],25.72417712,20953,775,1,0,7,1.3274380931474288
undo,10,44,1,0,0,4,"[0, 8, 20, 9, 4]",5,4,"[7, 12, 23, 24]",56.74030196,22722,1769,1,3,7,1.3849770570803555
undo,10,44,1,0,0,9,"[0, 8, 20, 9]",4,7,"[4, 7, 11, 12, 14, 23, 24]",76.43801756,22956,234,1,6,7,1.40892325509949
undo,10,44,1,0,0,20,"[0, 8, 20]",3,16,"[1, 4, 5, 7, 9, 10, 11, 12, 13, 14, 15, 21, 23, 24, 25, 27]",133.7093018,23223,267,1,9,7,1.0890794433668698
undo,10,44,1,0,0,8,"[0, 8]",2,17,"[1, 4, 5, 7, 9, 10, 11, 12, 13, 14, 15, 20, 21, 23, 24, 25, 27]",145.7923478,23506,283,1,10,7,1.0
undo,10,44,1,0,0,0,[0],1,29,"[1, 2, 3, 4, 5, 6, 7, 8, 9, 10, 11, 12, 13, 14, 15, 16, 17, 18, 19, 20, 21, 22, 23, 24, 25, 26, 27, 28, 29]",300,23811,305,13,126,7,0.0
undo,10,44,0,0,0,11,"[0, 11]",2,18,"[4, 5, 6, 7, 8, 9, 12, 14, 16, 17, 19, 20, 22, 23, 24, 25, 26, 28]",152.7790776,27353,3542,5,34,7,1.0
undo,10,44,0,0,0,14,"[0, 11, 14]",3,14,"[4, 5, 6, 7, 9, 12, 16, 17, 19, 22, 23, 24, 26, 28]",120.5765932,28307,954,6,17,6,1.0032424984204007
undo,10,44,0,0,0,24,"[0, 11, 14, 24]",4,4,"[4, 7, 9, 23]",74.92574436,29235,928,3,2,6,1.4978014171296756
undo,10,44,0,0,0,9,"[0, 11, 14, 24, 9]",5,1,[4],42.16906565,30050,815,1,0,6,1.6248916534242954
undo,10,44,0,0,1,4,"[0, 11, 14, 24, 9, 4]",6,0,[],22.47135004,30823,773,1,0,6,1.5800842308612977
undo,10,44,1,0,0,9,"[0, 11, 14, 24, 9]",5,1,[4],42.16906565,31944,1121,1,0,6,1.6248916534242954
undo,10,44,1,0,0,24,"[0, 11, 14, 24]",4,4,"[4, 7, 9, 23]",74.92574436,32144,200,3,2,6,1.4978014171296756
undo,10,44,1,0,0,14,"[0, 11, 14]",3,14,"[4, 5, 6, 7, 9, 12, 16, 17, 19, 22, 23, 24, 26, 28]",120.5765932,32378,234,6,17,6,1.0032424984204007
undo,10,44,1,0,0,11,"[0, 11]",2,18,"[4, 5, 6, 7, 8, 9, 12, 14, 16, 17, 19, 20, 22, 23, 24, 25, 26, 28]",152.7790776,32643,265,5,34,7,1.0
undo,10,44,1,0,0,0,[0],1,29,"[1, 2, 3, 4, 5, 6, 7, 8, 9, 10, 11, 12, 13, 14, 15, 16, 17, 18, 19, 20, 21, 22, 23, 24, 25, 26, 27, 28, 29]",300,33128,485,13,126,7,0.0
undo,10,44,0,0,0,24,"[0, 24]",2,19,"[2, 4, 5, 6, 7, 8, 9, 11, 12, 14, 16, 17, 19, 20, 22, 23, 25, 26, 28]",149.7302426,36554,3426,4,43,7,1.0
undo,10,44,0,0,0,9,"[0, 24, 9]",3,11,"[4, 5, 7, 8, 11, 12, 14, 20, 23, 25, 28]",116.9735639,37310,756,2,15,7,1.153461779613976
undo,10,44,0,0,0,4,"[0, 24, 9, 4]",4,10,"[5, 7, 8, 11, 12, 14, 20, 23, 25, 28]",97.27584825,38008,698,2,10,7,1.1541915958625368
undo,10,44,0,0,0,7,"[0, 24, 9, 4, 7]",5,4,"[5, 12, 23, 25]",66.25972341,38990,982,2,2,7,1.1312544568834735
undo,10,44,0,0,1,23,"[0, 24, 9, 4, 7, 23]",6,0,[],47.15475024,39843,853,1,0,6,1.154496377323794
undo,10,44,1,0,0,7,"[0, 24, 9, 4, 7]",5,4,"[5, 12, 23, 25]",66.25972341,46602,6759,2,2,7,1.1312544568834735
undo,10,44,1,0,0,4,"[0, 24, 9, 4]",4,10,"[5, 7, 8, 11, 12, 14, 20, 23, 25, 28]",97.27584825,46986,384,2,10,7,1.1541915958625368
undo,10,44,0,0,0,25,"[0, 24, 9, 4, 25]",5,1,[5],17.57013955,49097,2111,1,0,6,1.1189136810412348
undo,10,44,0,0,1,5,"[0, 24, 9, 4, 25, 5]",6,0,[],7.129833039,49963,866,1,0,6,1.1543390304008563
undo,10,44,1,0,0,25,"[0, 24, 9, 4, 25]",5,1,[5],17.57013955,50637,674,1,0,6,1.1189136810412348
undo,10,44,1,0,0,4,"[0, 24, 9, 4]",4,10,"[5, 7, 8, 11, 12, 14, 20, 23, 25, 28]",97.27584825,50887,250,2,10,7,1.1541915958625368
undo,10,44,1,0,0,9,"[0, 24, 9]",3,11,"[4, 5, 7, 8, 11, 12, 14, 20, 23, 25, 28]",116.9735639,51155,268,2,15,7,1.153461779613976
undo,10,44,1,0,0,24,"[0, 24]",2,19,"[2, 4, 5, 6, 7, 8, 9, 11, 12, 14, 16, 17, 19, 20, 22, 23, 25, 26, 28]",149.7302426,51454,299,4,43,7,1.0
undo,10,44,1,0,0,0,[0],1,29,"[1, 2, 3, 4, 5, 6, 7, 8, 9, 10, 11, 12, 13, 14, 15, 16, 17, 18, 19, 20, 21, 22, 23, 24, 25, 26, 27, 28, 29]",300,51805,351,13,126,7,0.0
undo,10,44,0,0,0,8,"[0, 8]",2,17,"[1, 4, 5, 7, 9, 10, 11, 12, 13, 14, 15, 20, 21, 23, 24, 25, 27]",145.7923478,56101,4296,1,10,7,1.0
undo,10,44,0,0,0,20,"[0, 8, 20]",3,16,"[1, 4, 5, 7, 9, 10, 11, 12, 13, 14, 15, 21, 23, 24, 25, 27]",133.7093018,56902,801,1,9,7,1.0890794433668698
undo,10,44,0,0,0,9,"[0, 8, 20, 9]",4,7,"[4, 7, 11, 12, 14, 23, 24]",76.43801756,57942,1040,1,6,7,1.40892325509949
undo,10,44,0,0,0,4,"[0, 8, 20, 9, 4]",5,4,"[7, 12, 23, 24]",56.74030196,58768,826,1,3,7,1.3849770570803555
undo,10,44,0,0,0,7,"[0, 8, 20, 9, 4, 7]",6,1,[23],25.72417712,59447,679,1,0,7,1.3274380931474288
undo,10,44,0,0,1,23,"[0, 8, 20, 9, 4, 7, 23]",7,0,[],6.619203947,60104,657,1,0,7,1.3395824779823196
undo,10,44,0,1,1,23,"[0, 8, 20, 9, 4, 7, 23]",7,0,[],6.619203947,62193,2089,1,0,7,1.3395824779823196
undo,11,22,0,0,0,0,[0],1,29,"[1, 2, 3, 4, 5, 6, 7, 8, 9, 10, 11, 12, 13, 14, 15, 16, 17, 18, 19, 20, 21, 22, 23, 24, 25, 26, 27, 28, 29]",300,162,-1,31,704,9,0.0
undo,11,22,0,0,0,16,"[0, 16]",2,21,"[1, 3, 6, 7, 8, 9, 11, 13, 14, 15, 17, 18, 19, 20, 21, 22, 24, 25, 27, 28, 29]",218.605897,7806,7644,17,147,9,1.0
undo,11,22,0,0,0,6,"[0, 16, 6]",3,16,"[1, 3, 7, 9, 13, 14, 15, 17, 19, 20, 21, 22, 24, 25, 28, 29]",184.1675463,8607,801,5,77,9,1.3071109638102874
undo,11,22,0,0,0,9,"[0, 16, 6, 9]",4,15,"[1, 3, 7, 13, 14, 15, 17, 19, 20, 21, 22, 24, 25, 28, 29]",157.5404924,9342,735,4,33,9,1.5907585082674378
undo,11,22,0,0,0,19,"[0, 16, 6, 9, 19]",5,12,"[3, 7, 13, 14, 15, 17, 20, 21, 24, 25, 28, 29]",137.1444143,11171,1829,3,17,9,2.0453047636701496
undo,11,22,0,0,0,29,"[0, 16, 6, 9, 19, 29]",6,10,"[3, 7, 13, 14, 15, 17, 20, 21, 24, 28]",122.111118,11924,753,3,10,9,2.310050419546042
undo,11,22,0,0,0,7,"[0, 16, 6, 9, 19, 29, 7]",7,3,"[14, 17, 24]",71.0327468,13174,1250,1,2,9,1.8205864950786186
undo,11,22,0,0,1,17,"[0, 16, 6, 9, 19, 29, 7, 17]",8,0,[],29.41544271,14214,1040,1,0,8,1.7122518671989457
undo,11,22,1,0,0,7,"[0, 16, 6, 9, 19, 29, 7]",7,3,"[14, 17, 24]",71.0327468,16421,2207,1,2,9,1.8205864950786186
undo,11,22,1,0,0,29,"[0, 16, 6, 9, 19, 29]",6,10,"[3, 7, 13, 14, 15, 17, 20, 21, 24, 28]",122.111118,16701,280,3,10,9,2.310050419546042
undo,11,22,1,0,0,19,"[0, 16, 6, 9, 19]",5,12,"[3, 7, 13, 14, 15, 17, 20, 21, 24, 25, 28, 29]",137.1444143,17018,317,3,17,9,2.0453047636701496
undo,11,22,1,0,0,9,"[0, 16, 6, 9]",4,15,"[1, 3, 7, 13, 14, 15, 17, 19, 20, 21, 22, 24, 25, 28, 29]",157.5404924,17302,284,4,33,9,1.5907585082674378
undo,11,22,1,0,0,6,"[0, 16, 6]",3,16,"[1, 3, 7, 9, 13, 14, 15, 17, 19, 20, 21, 22, 24, 25, 28, 29]",184.1675463,17586,284,5,77,9,1.3071109638102874
undo,11,22,1,0,0,16,"[0, 16]",2,21,"[1, 3, 6, 7, 8, 9, 11, 13, 14, 15, 17, 18, 19, 20, 21, 22, 24, 25, 27, 28, 29]",218.605897,17870,284,17,147,9,1.0
undo,11,22,1,0,0,0,[0],1,29,"[1, 2, 3, 4, 5, 6, 7, 8, 9, 10, 11, 12, 13, 14, 15, 16, 17, 18, 19, 20, 21, 22, 23, 24, 25, 26, 27, 28, 29]",300,18253,383,31,704,9,0.0
undo,11,22,0,0,0,13,"[0, 13]",2,22,"[1, 3, 5, 6, 7, 8, 9, 10, 12, 14, 15, 16, 17, 19, 20, 21, 23, 24, 25, 26, 28, 29]",189.3202819,22227,3974,2,52,8,1.0
undo,11,22,0,0,0,15,"[0, 13, 15]",3,17,"[1, 3, 5, 6, 7, 8, 9, 10, 14, 17, 19, 20, 21, 23, 24, 26, 29]",173.7639327,22920,693,2,40,8,1.001747361505262
undo,11,22,0,0,0,20,"[0, 13, 15, 20]",4,12,"[1, 3, 7, 8, 9, 14, 17, 19, 21, 23, 24, 29]",124.9172337,23718,798,1,19,8,1.2067501174044284
undo,11,22,0,0,0,3,"[0, 13, 15, 20, 3]",5,6,"[1, 8, 17, 21, 23, 24]",92.66820275,24574,856,6,3,7,1.2166135576612582
undo,11,22,0,0,0,21,"[0, 13, 15, 20, 3, 21]",6,3,"[1, 17, 24]",67.64821074,25133,559,3,0,7,1.4404307202938684
undo,11,22,0,0,1,24,"[0, 13, 15, 20, 3, 21, 24]",7,0,[],40.44526972,25936,803,1,0,7,1.9350367919243
undo,11,22,1,0,0,21,"[0, 13, 15, 20, 3, 21]",6,3,"[1, 17, 24]",67.64821074,27162,1226,3,0,7,1.4404307202938684
undo,11,22,1,0,0,3,"[0, 13, 15, 20, 3]",5,6,"[1, 8, 17, 21, 23, 24]",92.66820275,27392,230,6,3,7,1.2166135576612582
undo,11,22,1,0,0,20,"[0, 13, 15, 20]",4,12,"[1, 3, 7, 8, 9, 14, 17, 19, 21, 23, 24, 29]",124.9172337,27659,267,1,19,8,1.2067501174044284
undo,11,22,1,0,0,15,"[0, 13, 15]",3,17,"[1, 3, 5, 6, 7, 8, 9, 10, 14, 17, 19, 20, 21, 23, 24, 26, 29]",173.7639327,27928,269,2,40,8,1.001747361505262
undo,11,22,1,0,0,13,"[0, 13]",2,22,"[1, 3, 5, 6, 7, 8, 9, 10, 12, 14, 15, 16, 17, 19, 20, 21, 23, 24, 25, 26, 28, 29]",189.3202819,28209,281,2,52,8,1.0
undo,11,22,1,0,0,0,[0],1,29,"[1, 2, 3, 4, 5, 6, 7, 8, 9, 10, 11, 12, 13, 14, 15, 16, 17, 18, 19, 20, 21, 22, 23, 24, 25, 26, 27, 28, 29]",300,28476,267,31,704,9,0.0
undo,11,22,0,0,0,29,"[0, 29]",2,22,"[1, 3, 5, 6, 7, 8, 9, 11, 13, 14, 15, 16, 17, 19, 20, 21, 22, 23, 24, 25, 27, 28]",222.9935068,29758,1282,11,235,9,1.0
undo,11,22,0,0,0,19,"[0, 29, 19]",3,18,"[1, 3, 6, 7, 8, 9, 13, 14, 15, 16, 17, 20, 21, 22, 23, 24, 25, 28]",207.9602104,30335,577,11,172,9,1.1559285443414686
undo,11,22,0,0,0,9,"[0, 29, 19, 9]",4,16,"[1, 3, 6, 7, 8, 13, 14, 15, 16, 17, 20, 21, 22, 24, 25, 28]",187.5641323,30937,602,7,84,9,1.2555028175473422
undo,11,22,1,0,0,19,"[0, 29, 19]",3,18,"[1, 3, 6, 7, 8, 9, 13, 14, 15, 16, 17, 20, 21, 22, 23, 24, 25, 28]",207.9602104,34879,3942,11,172,9,1.1559285443414686
undo,11,22,1,0,0,29,"[0, 29]",2,22,"[1, 3, 5, 6, 7, 8, 9, 11, 13, 14, 15, 16, 17, 19, 20, 21, 22, 23, 24, 25, 27, 28]",222.9935068,35163,284,11,235,9,1.0
undo,11,22,1,0,0,0,[0],1,29,"[1, 2, 3, 4, 5, 6, 7, 8, 9, 10, 11, 12, 13, 14, 15, 16, 17, 18, 19, 20, 21, 22, 23, 24, 25, 26, 27, 28, 29]",300,35483,320,31,704,9,0.0
undo,11,22,0,0,0,16,"[0, 16]",2,21,"[1, 3, 6, 7, 8, 9, 11, 13, 14, 15, 17, 18, 19, 20, 21, 22, 24, 25, 27, 28, 29]",218.605897,36089,606,17,147,9,1.0
undo,11,22,0,0,0,28,"[0, 16, 28]",3,13,"[6, 7, 9, 13, 14, 17, 19, 20, 21, 22, 24, 25, 29]",184.1675463,37008,919,12,61,9,1.047282311284478
undo,11,22,0,0,0,6,"[0, 16, 28, 6]",4,12,"[7, 9, 13, 14, 17, 19, 20, 21, 22, 24, 25, 29]",154.1675463,37722,714,12,43,9,1.645645870580622
undo,11,22,0,0,0,9,"[0, 16, 28, 6, 9]",5,8,"[7, 14, 17, 19, 20, 21, 24, 29]",127.5404924,39427,1705,8,17,9,1.925750226630103
undo,11,22,1,0,0,6,"[0, 16, 28, 6]",4,12,"[7, 9, 13, 14, 17, 19, 20, 21, 22, 24, 25, 29]",154.1675463,42067,2640,12,43,9,1.645645870580622
undo,11,22,0,0,0,29,"[0, 16, 28, 6, 29]",5,9,"[7, 9, 13, 14, 17, 19, 20, 21, 24]",96.29700112,42994,927,2,4,9,2.64527042238385
undo,11,22,0,0,0,19,"[0, 16, 28, 6, 29, 19]",6,4,"[7, 9, 14, 24]",81.26370474,43656,662,2,2,9,2.747111096987313
undo,11,22,0,0,0,9,"[0, 16, 28, 6, 29, 19, 9]",7,2,"[7, 14]",60.86762669,44494,838,2,0,9,2.6702454883753064
undo,11,22,0,0,0,14,"[0, 16, 28, 6, 29, 19, 9, 14]",8,1,[7],17.82114019,46110,1616,1,0,9,2.1782892870517085
undo,11,22,0,0,1,7,"[0, 16, 28, 6, 29, 19, 9, 14, 7]",9,0,[],4.782735376,47141,1031,1,0,9,2.3473599721224465
undo,11,22,1,0,0,14,"[0, 16, 28, 6, 29, 19, 9, 14]",8,1,[7],17.82114019,56589,9448,1,0,9,2.1782892870517085
undo,11,22,1,0,0,9,"[0, 16, 28, 6, 29, 19, 9]",7,2,"[7, 14]",60.86762669,56873,284,2,0,9,2.6702454883753064
undo,11,22,1,0,0,19,"[0, 16, 28, 6, 29, 19]",6,4,"[7, 9, 14, 24]",81.26370474,57090,217,2,2,9,2.747111096987313
undo,11,22,1,0,0,29,"[0, 16, 28, 6, 29]",5,9,"[7, 9, 13, 14, 17, 19, 20, 21, 24]",96.29700112,57360,270,2,4,9,2.64527042238385
undo,11,22,1,0,0,6,"[0, 16, 28, 6]",4,12,"[7, 9, 13, 14, 17, 19, 20, 21, 22, 24, 25, 29]",154.1675463,57590,230,12,43,9,1.645645870580622
undo,11,22,1,0,0,28,"[0, 16, 28]",3,13,"[6, 7, 9, 13, 14, 17, 19, 20, 21, 22, 24, 25, 29]",184.1675463,57907,317,12,61,9,1.047282311284478
undo,11,22,1,0,0,16,"[0, 16]",2,21,"[1, 3, 6, 7, 8, 9, 11, 13, 14, 15, 17, 18, 19, 20, 21, 22, 24, 25, 27, 28, 29]",218.605897,58259,352,17,147,9,1.0
undo,11,22,1,0,0,0,[0],1,29,"[1, 2, 3, 4, 5, 6, 7, 8, 9, 10, 11, 12, 13, 14, 15, 16, 17, 18, 19, 20, 21, 22, 23, 24, 25, 26, 27, 28, 29]",300,58846,587,31,704,9,0.0
undo,11,22,0,0,0,28,"[0, 28]",2,15,"[3, 6, 7, 9, 13, 14, 16, 17, 19, 20, 21, 22, 24, 25, 29]",189.3971067,59512,666,22,129,8,1.0
undo,11,22,0,0,0,16,"[0, 28, 16]",3,10,"[6, 7, 9, 14, 17, 19, 22, 24, 25, 29]",154.958756,60384,872,5,33,8,1.7819625585744325
undo,11,22,0,0,0,6,"[0, 28, 16, 6]",4,7,"[7, 9, 14, 17, 19, 24, 29]",120.5204053,61284,900,5,21,8,2.025336928631399
undo,11,22,0,0,0,9,"[0, 28, 16, 6, 9]",5,6,"[7, 14, 17, 19, 24, 29]",93.89335139,62418,1134,4,9,8,2.301467346127796
undo,11,22,0,0,0,19,"[0, 28, 16, 6, 9, 19]",6,3,"[7, 14, 29]",73.49727333,63330,912,4,0,8,2.8446497788281193
undo,11,22,0,0,0,29,"[0, 28, 16, 6, 9, 19, 29]",7,2,"[7, 14]",58.46397695,64107,777,2,0,8,3.1365669687110347
undo,11,22,0,0,1,7,"[0, 28, 16, 6, 9, 19, 29, 7]",8,0,[],7.385605797,66907,2800,1,0,8,2.326663777925747
undo,11,22,1,0,0,29,"[0, 28, 16, 6, 9, 19, 29]",7,2,"[7, 14]",58.46397695,67427,520,2,0,8,3.1365669687110347
undo,11,22,1,0,0,19,"[0, 28, 16, 6, 9, 19]",6,3,"[7, 14, 29]",73.49727333,67662,235,4,0,8,2.8446497788281193
undo,11,22,1,0,0,9,"[0, 28, 16, 6, 9]",5,6,"[7, 14, 17, 19, 24, 29]",93.89335139,67878,216,4,9,8,2.301467346127796
undo,11,22,1,0,0,6,"[0, 28, 16, 6]",4,7,"[7, 9, 14, 17, 19, 24, 29]",120.5204053,68112,234,5,21,8,2.025336928631399
undo,11,22,1,0,0,16,"[0, 28, 16]",3,10,"[6, 7, 9, 14, 17, 19, 22, 24, 25, 29]",154.958756,68329,217,5,33,8,1.7819625585744325
undo,11,22,1,0,0,28,"[0, 28]",2,15,"[3, 6, 7, 9, 13, 14, 16, 17, 19, 20, 21, 22, 24, 25, 29]",189.3971067,68613,284,22,129,8,1.0
undo,11,22,1,0,0,0,[0],1,29,"[1, 2, 3, 4, 5, 6, 7, 8, 9, 10, 11, 12, 13, 14, 15, 16, 17, 18, 19, 20, 21, 22, 23, 24, 25, 26, 27, 28, 29]",300,68896,283,31,704,9,0.0
undo,11,22,0,0,0,6,"[0, 6]",2,19,"[1, 3, 7, 8, 9, 11, 13, 14, 15, 16, 17, 19, 20, 21, 22, 24, 25, 28, 29]",211.3828459,72195,3299,1,73,9,1.0
undo,11,22,0,0,0,16,"[0, 6, 16]",3,14,"[7, 9, 11, 13, 14, 17, 19, 20, 21, 22, 24, 25, 28, 29]",176.9444952,72952,757,10,52,8,1.5118479139635368
undo,11,22,0,0,0,28,"[0, 6, 16, 28]",4,8,"[7, 9, 14, 17, 19, 22, 25, 29]",142.5061445,73752,800,3,16,8,1.4239578264337813
undo,11,22,0,0,0,9,"[0, 6, 16, 28, 9]",5,5,"[7, 14, 17, 19, 29]",88.38590796,74647,895,3,5,8,2.3629656107411585
undo,11,22,0,0,0,19,"[0, 6, 16, 28, 9, 19]",6,3,"[7, 14, 29]",67.98982991,75358,711,3,0,8,2.913817810210968
undo,11,22,0,0,0,29,"[0, 6, 16, 28, 9, 19, 29]",7,1,[7],52.95653353,76069,711,1,0,8,3.2080861768816558
undo,11,22,1,0,0,19,"[0, 6, 16, 28, 9, 19]",6,3,"[7, 14, 29]",67.98982991,76983,914,3,0,8,2.913817810210968
undo,11,22,1,0,0,9,"[0, 6, 16, 28, 9]",5,5,"[7, 14, 17, 19, 29]",88.38590796,77201,218,3,5,8,2.3629656107411585
undo,11,22,1,0,0,28,"[0, 6, 16, 28]",4,8,"[7, 9, 14, 17, 19, 22, 25, 29]",142.5061445,77400,199,3,16,8,1.4239578264337813
undo,11,22,1,0,0,16,"[0, 6, 16]",3,14,"[7, 9, 11, 13, 14, 17, 19, 20, 21, 22, 24, 25, 28, 29]",176.9444952,77649,249,10,52,8,1.5118479139635368
undo,11,22,1,0,0,6,"[0, 6]",2,19,"[1, 3, 7, 8, 9, 11, 13, 14, 15, 16, 17, 19, 20, 21, 22, 24, 25, 28, 29]",211.3828459,77916,267,1,73,9,1.0
undo,11,22,1,0,0,0,[0],1,29,"[1, 2, 3, 4, 5, 6, 7, 8, 9, 10, 11, 12, 13, 14, 15, 16, 17, 18, 19, 20, 21, 22, 23, 24, 25, 26, 27, 28, 29]",300,78151,235,31,704,9,0.0
undo,11,22,0,0,0,16,"[0, 16]",2,21,"[1, 3, 6, 7, 8, 9, 11, 13, 14, 15, 17, 18, 19, 20, 21, 22, 24, 25, 27, 28, 29]",218.605897,78813,662,17,147,9,1.0
undo,11,22,0,0,0,28,"[0, 16, 28]",3,13,"[6, 7, 9, 13, 14, 17, 19, 20, 21, 22, 24, 25, 29]",184.1675463,79542,729,12,61,9,1.047282311284478
undo,11,22,0,0,0,6,"[0, 16, 28, 6]",4,12,"[7, 9, 13, 14, 17, 19, 20, 21, 22, 24, 25, 29]",154.1675463,80217,675,12,43,9,1.645645870580622
undo,11,22,0,0,0,9,"[0, 16, 28, 6, 9]",5,8,"[7, 14, 17, 19, 20, 21, 24, 29]",127.5404924,81008,791,8,17,9,1.925750226630103
undo,11,22,0,0,0,19,"[0, 16, 28, 6, 9, 19]",6,6,"[7, 14, 17, 21, 24, 29]",107.1444143,81614,606,3,7,9,2.4220750331476455
undo,11,22,0,0,0,29,"[0, 16, 28, 6, 9, 19, 29]",7,4,"[7, 14, 17, 24]",92.11111796,82130,516,2,2,9,2.6996279574991067
undo,11,22,0,0,0,7,"[0, 16, 28, 6, 9, 19, 29, 7]",8,1,[14],41.0327468,85213,3083,1,0,9,2.059125386946491
undo,11,22,0,0,1,14,"[0, 16, 28, 6, 9, 19, 29, 7, 14]",9,0,[],27.99434199,89485,4272,1,0,9,2.0997569104205307
undo,11,22,0,1,1,14,"[0, 16, 28, 6, 9, 19, 29, 7, 14]",9,0,[],27.99434199,92273,2788,1,0,9,2.0997569104205307
undo,12,3,0,0,0,0,[0],1,29,"[1, 2, 3, 4, 5, 6, 7, 8, 9, 10, 11, 12, 13, 14, 15, 16, 17, 18, 19, 20, 21, 22, 23, 24, 25, 26, 27, 28, 29]",300,177,-1,34,427,10,0.0
undo,12,3,0,0,0,17,"[0, 17]",2,16,"[3, 4, 7, 8, 10, 12, 14, 15, 16, 19, 20, 21, 22, 24, 26, 27]",197.6965299,6857,6680,2,27,9,1.0
undo,12,3,0,0,0,20,"[0, 17, 20]",3,13,"[3, 4, 7, 8, 10, 14, 15, 16, 19, 21, 22, 24, 27]",185.0474192,7470,613,2,24,9,1.0153332121237257
undo,12,3,0,0,0,3,"[0, 17, 20, 3]",4,10,"[4, 7, 8, 10, 14, 15, 16, 19, 21, 24]",164.6513412,8223,753,2,22,9,1.0819240770773468
undo,12,3,0,0,0,19,"[0, 17, 20, 3, 19]",5,6,"[4, 8, 10, 14, 21, 24]",127.3150318,9145,922,2,11,9,1.1701070532957258
undo,12,3,0,0,0,21,"[0, 17, 20, 3, 19, 21]",6,5,"[4, 8, 10, 14, 24]",115.1084762,9824,679,2,6,9,1.202395500952127
undo,12,3,0,0,0,14,"[0, 17, 20, 3, 19, 21, 14]",7,4,"[4, 8, 10, 24]",88.20122806,10554,730,2,2,9,1.6456130302761207
undo,12,3,0,0,1,10,"[0, 17, 20, 3, 19, 21, 14, 10]",8,0,[],42.74795535,11314,760,1,0,8,1.6337827075255185
undo,12,3,1,0,0,14,"[0, 17, 20, 3, 19, 21, 14]",7,4,"[4, 8, 10, 24]",88.20122806,12516,1202,2,2,9,1.6456130302761207
undo,12,3,1,0,0,21,"[0, 17, 20, 3, 19, 21]",6,5,"[4, 8, 10, 14, 24]",115.1084762,12719,203,2,6,9,1.202395500952127
undo,12,3,1,0,0,19,"[0, 17, 20, 3, 19]",5,6,"[4, 8, 10, 14, 21, 24]",127.3150318,12951,232,2,11,9,1.1701070532957258
undo,12,3,1,0,0,3,"[0, 17, 20, 3]",4,10,"[4, 7, 8, 10, 14, 15, 16, 19, 21, 24]",164.6513412,13155,204,2,22,9,1.0819240770773468
undo,12,3,1,0,0,20,"[0, 17, 20]",3,13,"[3, 4, 7, 8, 10, 14, 15, 16, 19, 21, 22, 24, 27]",185.0474192,13368,213,2,24,9,1.0153332121237257
undo,12,3,1,0,0,17,"[0, 17]",2,16,"[3, 4, 7, 8, 10, 12, 14, 15, 16, 19, 20, 21, 22, 24, 26, 27]",197.6965299,13583,215,2,27,9,1.0
undo,12,3,1,0,0,0,[0],1,29,"[1, 2, 3, 4, 5, 6, 7, 8, 9, 10, 11, 12, 13, 14, 15, 16, 17, 18, 19, 20, 21, 22, 23, 24, 25, 26, 27, 28, 29]",300,13801,218,34,427,10,0.0
undo,12,3,0,0,0,15,"[0, 15]",2,28,"[1, 2, 3, 4, 5, 6, 7, 8, 9, 10, 11, 12, 13, 14, 16, 17, 18, 19, 20, 21, 22, 23, 24, 25, 26, 27, 28, 29]",268.1723391,15329,1528,8,84,10,1.0
undo,12,3,0,0,0,7,"[0, 15, 7]",3,27,"[1, 2, 3, 4, 5, 6, 8, 9, 10, 11, 12, 13, 14, 16, 17, 18, 19, 20, 21, 22, 23, 24, 25, 26, 27, 28, 29]",238.1057463,16087,758,8,69,10,2.9209704282891646
undo,12,3,0,0,0,8,"[0, 15, 7, 8]",4,18,"[3, 4, 5, 6, 10, 11, 14, 16, 17, 18, 19, 20, 21, 22, 24, 26, 27, 28]",182.1325384,16908,821,6,40,10,1.9633672365780177
undo,12,3,0,0,0,24,"[0, 15, 7, 8, 24]",5,14,"[3, 4, 5, 10, 14, 16, 17, 18, 19, 20, 21, 22, 26, 27]",169.9670134,17464,556,6,34,10,2.209350379748608
undo,12,3,0,0,0,17,"[0, 15, 7, 8, 24, 17]",6,5,"[3, 14, 19, 20, 21]",100.6128498,18230,766,3,7,10,1.9489773900408984
undo,12,3,0,0,0,20,"[0, 15, 7, 8, 24, 17, 20]",7,4,"[3, 14, 19, 21]",87.9637392,18913,683,3,4,10,1.872837097405716
undo,12,3,0,0,0,3,"[0, 15, 7, 8, 24, 17, 20, 3]",8,3,"[14, 19, 21]",67.56766115,19645,732,3,1,10,1.8579729265349425
undo,12,3,0,0,0,19,"[0, 15, 7, 8, 24, 17, 20, 3, 19]",9,2,"[14, 21]",30.23135174,20864,1219,2,0,10,1.8279425324472436
undo,12,3,0,0,1,21,"[0, 15, 7, 8, 24, 17, 20, 3, 19, 21]",10,0,[],18.02479613,22282,1418,1,0,10,1.8337547852117746
undo,12,3,0,1,1,21,"[0, 15, 7, 8, 24, 17, 20, 3, 19, 21]",10,0,[],18.02479613,30678,8396,1,0,10,1.8337547852117746
undo,13,43,0,0,0,0,[0],1,23,"[1, 2, 3, 4, 5, 6, 7, 9, 10, 11, 12, 14, 15, 16, 17, 19, 20, 21, 22, 23, 25, 27, 29]",300,176,-1,16,556,12,0.0
undo,13,43,0,0,0,29,"[0, 29]",2,22,"[1, 2, 3, 4, 5, 6, 7, 9, 10, 11, 12, 14, 15, 16, 17, 19, 20, 21, 22, 23, 25, 27]",277.909278,3331,3155,16,520,12,1.0
undo,13,43,0,0,0,20,"[0, 29, 20]",3,20,"[1, 2, 3, 4, 6, 7, 9, 10, 11, 12, 14, 15, 16, 17, 19, 21, 22, 23, 25, 27]",254.4785289,4071,740,15,422,12,1.082311746871282
undo,13,43,0,0,0,16,"[0, 29, 20, 16]",4,19,"[1, 2, 3, 4, 6, 7, 9, 10, 11, 12, 14, 15, 17, 19, 21, 22, 23, 25, 27]",231.8511119,4944,873,15,389,12,1.215201926898219
undo,13,43,0,0,0,11,"[0, 29, 20, 16, 11]",5,17,"[1, 2, 3, 4, 6, 7, 9, 10, 12, 14, 15, 17, 19, 21, 22, 23, 25]",196.7227758,5770,826,12,188,12,1.1349145516483516
undo,13,43,0,0,0,14,"[0, 29, 20, 16, 11, 14]",6,14,"[1, 2, 3, 4, 6, 7, 10, 12, 15, 17, 19, 21, 22, 25]",151.9009061,18978,13208,2,39,11,1.1939593403497832
undo,13,43,0,0,0,22,"[0, 29, 20, 16, 11, 14, 22]",7,8,"[1, 3, 6, 7, 12, 15, 19, 25]",75.57921853,21214,2236,4,12,10,1.881641715887218
undo,13,43,0,0,0,3,"[0, 29, 20, 16, 11, 14, 22, 3]",8,3,"[12, 15, 25]",40.86610861,22316,1102,2,2,10,2.3261532654269783
undo,13,43,0,0,0,12,"[0, 29, 20, 16, 11, 14, 22, 3, 12]",9,2,"[15, 25]",27.86610861,23029,713,2,0,10,2.7527621142137506
undo,13,43,0,0,1,15,"[0, 29, 20, 16, 11, 14, 22, 3, 12, 15]",10,0,[],8.552900694,23900,871,1,0,10,3.524996663342698
undo,13,43,1,0,0,12,"[0, 29, 20, 16, 11, 14, 22, 3, 12]",9,2,"[15, 25]",27.86610861,26775,2875,2,0,10,2.7527621142137506
undo,13,43,1,0,0,3,"[0, 29, 20, 16, 11, 14, 22, 3]",8,3,"[12, 15, 25]",40.86610861,26957,182,2,2,10,2.3261532654269783
undo,13,43,1,0,0,22,"[0, 29, 20, 16, 11, 14, 22]",7,8,"[1, 3, 6, 7, 12, 15, 19, 25]",75.57921853,27175,218,4,12,10,1.881641715887218
undo,13,43,1,0,0,14,"[0, 29, 20, 16, 11, 14]",6,14,"[1, 2, 3, 4, 6, 7, 10, 12, 15, 17, 19, 21, 22, 25]",151.9009061,27375,200,2,39,11,1.1939593403497832
undo,13,43,1,0,0,11,"[0, 29, 20, 16, 11]",5,17,"[1, 2, 3, 4, 6, 7, 9, 10, 12, 14, 15, 17, 19, 21, 22, 23, 25]",196.7227758,27642,267,12,188,12,1.1349145516483516
undo,13,43,1,0,0,16,"[0, 29, 20, 16]",4,19,"[1, 2, 3, 4, 6, 7, 9, 10, 11, 12, 14, 15, 17, 19, 21, 22, 23, 25, 27]",231.8511119,27890,248,15,389,12,1.215201926898219
undo,13,43,1,0,0,20,"[0, 29, 20]",3,20,"[1, 2, 3, 4, 6, 7, 9, 10, 11, 12, 14, 15, 16, 17, 19, 21, 22, 23, 25, 27]",254.4785289,28124,234,15,422,12,1.082311746871282
undo,13,43,1,0,0,29,"[0, 29]",2,22,"[1, 2, 3, 4, 5, 6, 7, 9, 10, 11, 12, 14, 15, 16, 17, 19, 20, 21, 22, 23, 25, 27]",277.909278,28773,649,16,520,12,1.0
undo,13,43,0,0,0,20,"[0, 29, 20]",3,20,"[1, 2, 3, 4, 6, 7, 9, 10, 11, 12, 14, 15, 16, 17, 19, 21, 22, 23, 25, 27]",254.4785289,30237,1464,15,422,12,1.082311746871282
undo,13,43,0,0,0,16,"[0, 29, 20, 16]",4,19,"[1, 2, 3, 4, 6, 7, 9, 10, 11, 12, 14, 15, 17, 19, 21, 22, 23, 25, 27]",231.8511119,30860,623,15,389,12,1.215201926898219
undo,13,43,0,0,0,15,"[0, 29, 20, 16, 15]",5,14,"[1, 2, 3, 4, 6, 7, 9, 11, 12, 14, 19, 22, 23, 25]",188.5267539,31708,848,3,109,12,1.3482474915350444
undo,13,43,0,0,0,25,"[0, 29, 20, 16, 15, 25]",6,12,"[1, 3, 4, 6, 7, 9, 11, 12, 14, 19, 22, 23]",165.8551858,32514,806,2,43,12,1.691408721191545
undo,13,43,0,0,0,12,"[0, 29, 20, 16, 15, 25, 12]",7,11,"[1, 3, 4, 6, 7, 9, 11, 14, 19, 22, 23]",141.6684126,33154,640,2,32,12,1.6015983641428178
undo,13,43,0,0,0,3,"[0, 29, 20, 16, 15, 25, 12, 3]",8,10,"[1, 4, 6, 7, 9, 11, 14, 19, 22, 23]",128.6684126,33752,598,2,24,12,1.5379830456120627
undo,13,43,0,0,0,19,"[0, 29, 20, 16, 15, 25, 12, 3, 19]",9,6,"[1, 4, 6, 7, 11, 22]",87.55880297,35320,1568,1,10,12,1.529185197301008
undo,13,43,0,0,0,22,"[0, 29, 20, 16, 15, 25, 12, 3, 19, 22]",10,4,"[1, 6, 7, 11]",66.94327484,36054,734,1,3,12,1.9540492344633407
undo,13,43,0,0,1,1,"[0, 29, 20, 16, 15, 25, 12, 3, 19, 22, 1]",11,0,[],35.55856519,37353,1299,1,0,11,1.8370190932436647
undo,13,43,1,0,0,22,"[0, 29, 20, 16, 15, 25, 12, 3, 19, 22]",10,4,"[1, 6, 7, 11]",66.94327484,38668,1315,1,3,12,1.9540492344633407
undo,13,43,0,0,0,11,"[0, 29, 20, 16, 15, 25, 12, 3, 19, 22, 11]",11,1,[6],20.87810362,40158,1490,1,0,12,3.067273586593407
undo,13,43,0,0,1,6,"[0, 29, 20, 16, 15, 25, 12, 3, 19, 22, 11, 6]",12,0,[],0.262575489,41936,1778,1,0,12,2.717707829732166
undo,13,43,0,1,1,6,"[0, 29, 20, 16, 15, 25, 12, 3, 19, 22, 11, 6]",12,0,[],0.262575489,43830,1894,1,0,12,2.717707829732166
undo,14,33,0,0,0,0,[0],1,23,"[1, 2, 5, 7, 8, 11, 12, 13, 14, 15, 16, 17, 18, 19, 20, 21, 23, 24, 25, 26, 27, 28, 29]",300,174,-1,5,108,9,0.0
undo,14,33,0,0,0,21,"[0, 21]",2,17,"[2, 5, 7, 8, 11, 13, 14, 16, 17, 18, 19, 20, 24, 26, 27, 28, 29]",174.4611614,7758,7584,21,129,8,1.0
undo,14,33,0,0,0,13,"[0, 21, 13]",3,15,"[2, 5, 7, 8, 11, 14, 16, 17, 18, 19, 20, 24, 26, 28, 29]",148.0604038,10961,3203,17,72,8,1.0001005298764474
undo,14,33,0,0,0,19,"[0, 21, 13, 19]",4,11,"[7, 11, 14, 16, 17, 18, 20, 24, 26, 28, 29]",122.5653063,11640,679,10,27,8,1.0588446738393702
undo,14,33,0,0,0,7,"[0, 21, 13, 19, 7]",5,7,"[14, 16, 17, 18, 24, 26, 29]",76.94732734,13160,1520,3,5,8,1.0466997412739754
undo,14,33,0,0,0,14,"[0, 21, 13, 19, 7, 14]",6,3,"[24, 26, 29]",62.0812586,13964,804,2,1,8,1.096679239566485
undo,14,33,0,0,0,26,"[0, 21, 13, 19, 7, 14, 26]",7,1,[29],49.43214796,14778,814,1,0,8,1.1075261679429118
undo,14,33,1,0,0,14,"[0, 21, 13, 19, 7, 14]",6,3,"[24, 26, 29]",62.0812586,18424,3646,2,1,8,1.096679239566485
undo,14,33,1,0,0,7,"[0, 21, 13, 19, 7]",5,7,"[14, 16, 17, 18, 24, 26, 29]",76.94732734,18719,295,3,5,8,1.0466997412739754
undo,14,33,1,0,0,19,"[0, 21, 13, 19]",4,11,"[7, 11, 14, 16, 17, 18, 20, 24, 26, 28, 29]",122.5653063,18952,233,10,27,8,1.0588446738393702
undo,14,33,1,0,0,13,"[0, 21, 13]",3,15,"[2, 5, 7, 8, 11, 14, 16, 17, 18, 19, 20, 24, 26, 28, 29]",148.0604038,19953,1001,17,72,8,1.0001005298764474
undo,14,33,0,0,0,17,"[0, 21, 13, 17]",4,10,"[2, 7, 11, 14, 16, 19, 20, 24, 26, 29]",125.2568953,20983,1030,6,21,8,1.0965005103980894
undo,14,33,0,0,0,19,"[0, 21, 13, 17, 19]",5,6,"[7, 14, 16, 24, 26, 29]",81.32513005,21749,766,1,6,8,1.3049461552347723
undo,14,33,0,0,0,7,"[0, 21, 13, 17, 19, 7]",6,3,"[14, 24, 26]",35.70715114,22848,1099,1,2,8,1.240223904171729
undo,14,33,0,0,0,14,"[0, 21, 13, 17, 19, 7, 14]",7,1,[26],20.84108239,23537,689,1,0,8,1.286774583966162
undo,14,33,0,0,1,26,"[0, 21, 13, 17, 19, 7, 14, 26]",8,0,[],8.191971749,24147,610,1,0,8,1.2898104232949028
undo,14,33,1,0,0,14,"[0, 21, 13, 17, 19, 7, 14]",7,1,[26],20.84108239,24972,825,1,0,8,1.286774583966162
undo,14,33,1,0,0,7,"[0, 21, 13, 17, 19, 7]",6,3,"[14, 24, 26]",35.70715114,25189,217,1,2,8,1.240223904171729
undo,14,33,1,0,0,19,"[0, 21, 13, 17, 19]",5,6,"[7, 14, 16, 24, 26, 29]",81.32513005,25391,202,1,6,8,1.3049461552347723
undo,14,33,1,0,0,17,"[0, 21, 13, 17]",4,10,"[2, 7, 11, 14, 16, 19, 20, 24, 26, 29]",125.2568953,25641,250,6,21,8,1.0965005103980894
undo,14,33,1,0,0,13,"[0, 21, 13]",3,15,"[2, 5, 7, 8, 11, 14, 16, 17, 18, 19, 20, 24, 26, 28, 29]",148.0604038,25972,331,17,72,8,1.0001005298764474
undo,14,33,1,0,0,21,"[0, 21]",2,17,"[2, 5, 7, 8, 11, 13, 14, 16, 17, 18, 19, 20, 24, 26, 27, 28, 29]",174.4611614,26191,219,21,129,8,1.0
undo,14,33,1,0,0,0,[0],1,23,"[1, 2, 5, 7, 8, 11, 12, 13, 14, 15, 16, 17, 18, 19, 20, 21, 23, 24, 25, 26, 27, 28, 29]",300,26373,182,5,108,9,0.0
undo,14,33,0,0,0,8,"[0, 8]",2,22,"[1, 2, 5, 7, 11, 12, 13, 14, 15, 16, 17, 18, 19, 20, 21, 23, 24, 25, 26, 27, 28, 29]",265.8679037,27248,875,5,87,9,1.0
undo,14,33,0,0,0,21,"[0, 8, 21]",3,16,"[2, 5, 7, 11, 13, 14, 16, 17, 18, 19, 20, 24, 26, 27, 28, 29]",166.0430571,32287,5039,5,80,9,1.0670557763739492
undo,14,33,0,0,0,13,"[0, 8, 21, 13]",4,12,"[2, 7, 11, 14, 16, 17, 18, 19, 20, 24, 26, 29]",139.6422995,34654,2367,4,54,9,1.0555103820910288
undo,14,33,0,0,0,19,"[0, 8, 21, 13, 19]",5,10,"[7, 11, 14, 16, 17, 18, 20, 24, 26, 29]",114.1472019,36299,1645,3,19,9,1.1090798607799486
undo,14,33,0,0,0,7,"[0, 8, 21, 13, 19, 7]",6,5,"[14, 18, 24, 26, 29]",68.52922302,37196,897,1,4,9,1.086202642130009
undo,14,33,0,0,0,14,"[0, 8, 21, 13, 19, 7, 14]",7,3,"[24, 26, 29]",53.66315427,37962,766,1,2,9,1.1354822367616264
undo,14,33,0,0,0,26,"[0, 8, 21, 13, 19, 7, 14, 26]",8,1,[29],41.01404363,41406,3444,1,0,9,1.144734735418919
undo,14,33,0,0,1,29,"[0, 8, 21, 13, 19, 7, 14, 26, 29]",9,0,[],13.12139227,42640,1234,1,0,9,1.3638482940300902
undo,14,33,1,0,0,26,"[0, 8, 21, 13, 19, 7, 14, 26]",8,1,[29],41.01404363,43681,1041,1,0,9,1.144734735418919
undo,14,33,1,0,0,14,"[0, 8, 21, 13, 19, 7, 14]",7,3,"[24, 26, 29]",53.66315427,43916,235,1,2,9,1.1354822367616264
undo,14,33,1,0,0,7,"[0, 8, 21, 13, 19, 7]",6,5,"[14, 18, 24, 26, 29]",68.52922302,44133,217,1,4,9,1.086202642130009
undo,14,33,1,0,0,19,"[0, 8, 21, 13, 19]",5,10,"[7, 11, 14, 16, 17, 18, 20, 24, 26, 29]",114.1472019,44348,215,3,19,9,1.1090798607799486
undo,14,33,1,0,0,13,"[0, 8, 21, 13]",4,12,"[2, 7, 11, 14, 16, 17, 18, 19, 20, 24, 26, 29]",139.6422995,44549,201,4,54,9,1.0555103820910288
undo,14,33,0,0,0,17,"[0, 8, 21, 13, 17]",5,10,"[2, 7, 11, 14, 16, 19, 20, 24, 26, 29]",116.838791,46291,1742,1,21,9,1.149323514071861
undo,14,33,0,0,0,20,"[0, 8, 21, 13, 17, 20]",6,3,"[2, 11, 29]",59.56750674,47175,884,1,2,8,1.1631939223533976
undo,14,33,0,0,0,11,"[0, 8, 21, 13, 17, 20, 11]",7,1,[29],40.46253357,48475,1300,1,0,8,1.1688979612574022
undo,14,33,1,0,0,20,"[0, 8, 21, 13, 17, 20]",6,3,"[2, 11, 29]",59.56750674,49701,1226,1,2,8,1.1631939223533976
undo,14,33,1,0,0,17,"[0, 8, 21, 13, 17]",5,10,"[2, 7, 11, 14, 16, 19, 20, 24, 26, 29]",116.838791,49987,286,1,21,9,1.149323514071861
undo,14,33,1,0,0,13,"[0, 8, 21, 13]",4,12,"[2, 7, 11, 14, 16, 17, 18, 19, 20, 24, 26, 29]",139.6422995,50169,182,4,54,9,1.0555103820910288
undo,14,33,0,0,0,19,"[0, 8, 21, 13, 19]",5,10,"[7, 11, 14, 16, 17, 18, 20, 24, 26, 29]",114.1472019,51360,1191,3,19,9,1.1090798607799486
undo,14,33,0,0,0,24,"[0, 8, 21, 13, 19, 24]",6,6,"[7, 14, 16, 18, 26, 29]",72.09960985,54749,3389,2,3,9,1.1193530461391534
undo,14,33,0,0,0,7,"[0, 8, 21, 13, 19, 24, 7]",7,2,"[14, 26]",42.89344611,55669,920,2,0,9,1.2065014071663551
undo,14,33,0,0,0,14,"[0, 8, 21, 13, 19, 24, 7, 14]",8,1,[26],28.02737737,56351,682,1,0,9,1.2536495746979057
undo,14,33,0,0,1,26,"[0, 8, 21, 13, 19, 24, 7, 14, 26]",9,0,[],15.37826672,57793,1442,1,0,9,1.2580465331304596
undo,14,33,0,1,1,26,"[0, 8, 21, 13, 19, 24, 7, 14, 26]",9,0,[],15.37826672,60707,2914,1,0,9,1.2580465331304596
undo,15,32,0,0,0,0,[0],1,29,"[1, 2, 3, 4, 5, 6, 7, 8, 9, 10, 11, 12, 13, 14, 15, 16, 17, 18, 19, 20, 21, 22, 23, 24, 25, 26, 27, 28, 29]",300,184,-1,17,359,10,0.0
undo,15,32,0,0,0,19,"[0, 19]",2,28,"[1, 2, 3, 4, 5, 6, 7, 8, 9, 10, 11, 12, 13, 14, 15, 16, 17, 18, 20, 21, 22, 23, 24, 25, 26, 27, 28, 29]",283.5075775,5654,5470,16,294,10,1.0
undo,15,32,0,0,0,13,"[0, 19, 13]",3,24,"[2, 3, 4, 5, 6, 8, 9, 10, 11, 12, 14, 15, 16, 17, 18, 20, 21, 22, 23, 24, 25, 26, 27, 28]",260.3127505,6272,618,14,227,10,1.0172874229878615
undo,15,32,0,0,0,15,"[0, 19, 13, 15]",4,18,"[2, 3, 5, 8, 9, 10, 11, 12, 16, 17, 20, 22, 23, 24, 25, 26, 27, 28]",177.4393531,7445,1173,9,116,10,1.435447391509833
undo,15,32,0,0,0,28,"[0, 19, 13, 15, 28]",5,17,"[2, 3, 5, 8, 9, 10, 11, 12, 16, 17, 20, 22, 23, 24, 25, 26, 27]",166.0375988,8206,761,9,70,10,1.3843701324937985
undo,15,32,0,0,0,16,"[0, 19, 13, 15, 28, 16]",6,14,"[2, 3, 5, 8, 9, 10, 11, 12, 17, 20, 22, 24, 26, 27]",134.0219776,10377,2171,3,22,10,1.4134622039936937
undo,15,32,0,0,0,12,"[0, 19, 13, 15, 28, 16, 12]",7,10,"[2, 3, 5, 8, 9, 11, 17, 20, 22, 27]",118.3695018,11139,762,3,12,10,1.6132350863104477
undo,15,32,0,0,0,22,"[0, 19, 13, 15, 28, 16, 12, 22]",8,6,"[2, 8, 9, 17, 20, 27]",88.83985567,12007,868,3,5,10,1.4953724432077236
undo,15,32,0,0,0,9,"[0, 19, 13, 15, 28, 16, 12, 22, 9]",9,3,"[2, 8, 20]",66.63625236,12857,850,3,0,10,1.5414044555780373
undo,15,32,1,0,0,22,"[0, 19, 13, 15, 28, 16, 12, 22]",8,6,"[2, 8, 9, 17, 20, 27]",88.83985567,15485,2628,3,5,10,1.4953724432077236
undo,15,32,1,0,0,12,"[0, 19, 13, 15, 28, 16, 12]",7,10,"[2, 3, 5, 8, 9, 11, 17, 20, 22, 27]",118.3695018,15685,200,3,12,10,1.6132350863104477
undo,15,32,1,0,0,16,"[0, 19, 13, 15, 28, 16]",6,14,"[2, 3, 5, 8, 9, 10, 11, 12, 17, 20, 22, 24, 26, 27]",134.0219776,15921,236,3,22,10,1.4134622039936937
undo,15,32,1,0,0,28,"[0, 19, 13, 15, 28]",5,17,"[2, 3, 5, 8, 9, 10, 11, 12, 16, 17, 20, 22, 23, 24, 25, 26, 27]",166.0375988,16151,230,9,70,10,1.3843701324937985
undo,15,32,1,0,0,15,"[0, 19, 13, 15]",4,18,"[2, 3, 5, 8, 9, 10, 11, 12, 16, 17, 20, 22, 23, 24, 25, 26, 27, 28]",177.4393531,16406,255,9,116,10,1.435447391509833
undo,15,32,1,0,0,13,"[0, 19, 13]",3,24,"[2, 3, 4, 5, 6, 8, 9, 10, 11, 12, 14, 15, 16, 17, 18, 20, 21, 22, 23, 24, 25, 26, 27, 28]",260.3127505,20005,3599,14,227,10,1.0172874229878615
undo,15,32,1,0,0,19,"[0, 19]",2,28,"[1, 2, 3, 4, 5, 6, 7, 8, 9, 10, 11, 12, 13, 14, 15, 16, 17, 18, 20, 21, 22, 23, 24, 25, 26, 27, 28, 29]",283.5075775,20519,514,16,294,10,1.0
undo,15,32,0,0,0,15,"[0, 19, 15]",3,21,"[2, 3, 5, 7, 8, 9, 10, 11, 12, 13, 14, 16, 17, 20, 22, 23, 24, 25, 26, 27, 28]",197.7987681,21760,1241,2,52,10,1.19699508325577
undo,15,32,0,0,0,28,"[0, 19, 15, 28]",4,19,"[2, 3, 5, 7, 8, 9, 10, 11, 12, 13, 16, 17, 20, 22, 23, 24, 25, 26, 27]",186.3970139,22226,466,2,41,10,1.1739755297768444
undo,15,32,0,0,0,12,"[0, 19, 15, 28, 12]",5,17,"[2, 3, 5, 7, 8, 9, 10, 11, 13, 16, 17, 20, 22, 23, 24, 26, 27]",167.4233479,22821,595,2,25,10,1.177540715424265
undo,15,32,0,0,0,16,"[0, 19, 15, 28, 12, 16]",6,16,"[2, 3, 5, 7, 8, 9, 10, 11, 13, 17, 20, 22, 23, 24, 26, 27]",151.7708721,25097,2276,2,17,10,1.2623133279216439
undo,15,32,0,0,0,22,"[0, 19, 15, 28, 12, 16, 22]",7,10,"[2, 3, 5, 8, 9, 10, 11, 17, 20, 27]",117.9330235,25826,729,2,7,10,1.2893434049314008
undo,15,32,0,0,0,9,"[0, 19, 15, 28, 12, 16, 22, 9]",8,4,"[2, 8, 17, 20]",95.72942015,26649,823,2,2,10,1.3492394817468627
undo,15,32,0,0,0,2,"[0, 19, 15, 28, 12, 16, 22, 9, 2]",9,1,[17],44.64126105,28489,1840,1,0,10,1.760592394779365
undo,15,32,0,0,1,17,"[0, 19, 15, 28, 12, 16, 22, 9, 2, 17]",10,0,[],4.829202579,29538,1049,1,0,10,2.6120286725511583
undo,15,32,0,1,1,17,"[0, 19, 15, 28, 12, 16, 22, 9, 2, 17]",10,0,[],4.829202579,30374,836,1,0,10,2.6120286725511583
undo,16,1,0,0,0,0,[0],1,26,"[1, 2, 4, 5, 7, 8, 9, 10, 11, 12, 13, 14, 15, 16, 17, 18, 19, 20, 21, 22, 23, 24, 25, 26, 28, 29]",300,177,-1,6,74,7,0.0
undo,16,1,0,0,0,8,"[0, 8]",2,23,"[1, 4, 5, 7, 9, 10, 11, 12, 13, 14, 15, 16, 17, 18, 19, 20, 21, 23, 24, 25, 26, 28, 29]",202,6665,6488,1,16,7,1.0
undo,16,1,0,0,0,20,"[0, 8, 20]",3,12,"[1, 4, 5, 11, 13, 14, 15, 17, 18, 19, 28, 29]",125.9408125,7815,1150,1,7,7,1.02364736730791
undo,16,1,0,0,0,5,"[0, 8, 20, 5]",4,7,"[1, 4, 11, 13, 17, 18, 29]",104.469902,8629,814,1,3,7,1.0439599203945713
undo,16,1,0,0,0,18,"[0, 8, 20, 5, 18]",5,2,"[4, 29]",81.64447755,9430,801,1,1,7,1.0840407791793756
undo,16,1,0,0,0,4,"[0, 8, 20, 5, 18, 4]",6,1,[29],42.69579336,10345,915,1,0,7,1.0902329133216275
undo,16,1,1,0,0,18,"[0, 8, 20, 5, 18]",5,2,"[4, 29]",81.64447755,12040,1695,1,1,7,1.0840407791793756
undo,16,1,1,0,0,5,"[0, 8, 20, 5]",4,7,"[1, 4, 11, 13, 17, 18, 29]",104.469902,12241,201,1,3,7,1.0439599203945713
undo,16,1,1,0,0,20,"[0, 8, 20]",3,12,"[1, 4, 5, 11, 13, 14, 15, 17, 18, 19, 28, 29]",125.9408125,12441,200,1,7,7,1.02364736730791
undo,16,1,1,0,0,8,"[0, 8]",2,23,"[1, 4, 5, 7, 9, 10, 11, 12, 13, 14, 15, 16, 17, 18, 19, 20, 21, 23, 24, 25, 26, 28, 29]",202,12621,180,1,16,7,1.0
undo,16,1,1,0,0,0,[0],1,26,"[1, 2, 4, 5, 7, 8, 9, 10, 11, 12, 13, 14, 15, 16, 17, 18, 19, 20, 21, 22, 23, 24, 25, 26, 28, 29]",300,12857,236,6,74,7,0.0
undo,16,1,0,0,0,14,"[0, 14]",2,19,"[1, 4, 5, 8, 9, 13, 15, 17, 18, 19, 20, 21, 22, 23, 24, 25, 26, 28, 29]",200.1901808,14832,1975,5,42,7,1.0
undo,16,1,0,0,0,17,"[0, 14, 17]",3,15,"[1, 4, 5, 8, 9, 13, 15, 18, 19, 20, 22, 23, 25, 28, 29]",147.8356204,15649,817,5,27,7,1.0028844724416826
undo,16,1,0,0,0,1,"[0, 14, 17, 1]",4,12,"[4, 5, 8, 9, 15, 18, 20, 22, 23, 25, 28, 29]",123.4840291,16284,635,5,15,7,1.0264985578353567
undo,16,1,0,0,0,28,"[0, 14, 17, 1, 28]",5,5,"[9, 15, 22, 23, 29]",88.59850198,17067,783,5,3,7,1.0339861575999345
undo,16,1,0,0,0,23,"[0, 14, 17, 1, 28, 23]",6,2,"[15, 22]",51.70676849,18583,1516,2,0,7,1.0327458250705703
undo,16,1,0,0,1,15,"[0, 14, 17, 1, 28, 23, 15]",7,0,[],20.81987807,19499,916,1,0,7,1.1948681641401226
undo,16,1,1,0,0,23,"[0, 14, 17, 1, 28, 23]",6,2,"[15, 22]",51.70676849,20242,743,2,0,7,1.0327458250705703
undo,16,1,1,0,0,28,"[0, 14, 17, 1, 28]",5,5,"[9, 15, 22, 23, 29]",88.59850198,20445,203,5,3,7,1.0339861575999345
undo,16,1,1,0,0,1,"[0, 14, 17, 1]",4,12,"[4, 5, 8, 9, 15, 18, 20, 22, 23, 25, 28, 29]",123.4840291,20677,232,5,15,7,1.0264985578353567
undo,16,1,1,0,0,17,"[0, 14, 17]",3,15,"[1, 4, 5, 8, 9, 13, 15, 18, 19, 20, 22, 23, 25, 28, 29]",147.8356204,20892,215,5,27,7,1.0028844724416826
undo,16,1,1,0,0,14,"[0, 14]",2,19,"[1, 4, 5, 8, 9, 13, 15, 17, 18, 19, 20, 21, 22, 23, 24, 25, 26, 28, 29]",200.1901808,21154,262,5,42,7,1.0
undo,16,1,1,0,0,0,[0],1,26,"[1, 2, 4, 5, 7, 8, 9, 10, 11, 12, 13, 14, 15, 16, 17, 18, 19, 20, 21, 22, 23, 24, 25, 26, 28, 29]",300,21659,505,6,74,7,0.0
undo,16,1,0,0,0,8,"[0, 8]",2,23,"[1, 4, 5, 7, 9, 10, 11, 12, 13, 14, 15, 16, 17, 18, 19, 20, 21, 23, 24, 25, 26, 28, 29]",202,25306,3647,1,16,7,1.0
undo,16,1,0,0,0,20,"[0, 8, 20]",3,12,"[1, 4, 5, 11, 13, 14, 15, 17, 18, 19, 28, 29]",125.9408125,28102,2796,1,7,7,1.02364736730791
undo,16,1,0,0,0,5,"[0, 8, 20, 5]",4,7,"[1, 4, 11, 13, 17, 18, 29]",104.469902,28874,772,1,3,7,1.0439599203945713
undo,16,1,0,0,0,18,"[0, 8, 20, 5, 18]",5,2,"[4, 29]",81.64447755,30493,1619,1,1,7,1.0840407791793756
undo,16,1,0,0,0,4,"[0, 8, 20, 5, 18, 4]",6,1,[29],42.69579336,31229,736,1,0,7,1.0902329133216275
undo,16,1,0,0,1,29,"[0, 8, 20, 5, 18, 4, 29]",7,0,[],6.640280603,32009,780,1,0,7,1.2859729622882756
undo,16,1,1,0,0,4,"[0, 8, 20, 5, 18, 4]",6,1,[29],42.69579336,33883,1874,1,0,7,1.0902329133216275
undo,16,1,1,0,0,18,"[0, 8, 20, 5, 18]",5,2,"[4, 29]",81.64447755,34086,203,1,1,7,1.0840407791793756
undo,16,1,1,0,0,5,"[0, 8, 20, 5]",4,7,"[1, 4, 11, 13, 17, 18, 29]",104.469902,34317,231,1,3,7,1.0439599203945713
undo,16,1,1,0,0,20,"[0, 8, 20]",3,12,"[1, 4, 5, 11, 13, 14, 15, 17, 18, 19, 28, 29]",125.9408125,34536,219,1,7,7,1.02364736730791
undo,16,1,1,0,0,8,"[0, 8]",2,23,"[1, 4, 5, 7, 9, 10, 11, 12, 13, 14, 15, 16, 17, 18, 19, 20, 21, 23, 24, 25, 26, 28, 29]",202,34784,248,1,16,7,1.0
undo,16,1,1,0,0,0,[0],1,26,"[1, 2, 4, 5, 7, 8, 9, 10, 11, 12, 13, 14, 15, 16, 17, 18, 19, 20, 21, 22, 23, 24, 25, 26, 28, 29]",300,35116,332,6,74,7,0.0
undo,16,1,0,0,0,26,"[0, 26]",2,12,"[1, 5, 7, 8, 14, 16, 17, 18, 19, 20, 21, 24]",201.5876024,37915,2799,8,23,6,1.0
undo,16,1,0,0,0,19,"[0, 26, 19]",3,10,"[1, 5, 7, 8, 14, 16, 17, 18, 20, 24]",162.9611866,39196,1281,6,8,6,1.1347243455071356
undo,16,1,0,0,0,8,"[0, 26, 19, 8]",4,6,"[5, 14, 17, 18, 20, 24]",109.8104575,40050,854,2,5,6,1.940709617346939
undo,16,1,1,0,0,19,"[0, 26, 19]",3,10,"[1, 5, 7, 8, 14, 16, 17, 18, 20, 24]",162.9611866,43056,3006,6,8,6,1.1347243455071356
undo,16,1,1,0,0,26,"[0, 26]",2,12,"[1, 5, 7, 8, 14, 16, 17, 18, 19, 20, 21, 24]",201.5876024,43340,284,8,23,6,1.0
undo,16,1,0,0,0,8,"[0, 26, 8]",3,8,"[1, 5, 14, 17, 18, 19, 20, 24]",131.0114025,44432,1092,2,6,6,1.724373443877551
undo,16,1,0,0,0,20,"[0, 26, 8, 20]",4,2,"[5, 18]",54.95221497,45621,1189,2,0,6,1.4411334650783327
undo,16,1,0,0,0,5,"[0, 26, 8, 20, 5]",5,1,[18],33.48130442,46753,1132,1,0,6,1.4229770202506713
undo,16,1,0,0,1,18,"[0, 26, 8, 20, 5, 18]",6,0,[],10.65588,47779,1026,1,0,6,1.436468479369896
undo,16,1,1,0,0,5,"[0, 26, 8, 20, 5]",5,1,[18],33.48130442,48008,229,1,0,6,1.4229770202506713
undo,16,1,1,0,0,20,"[0, 26, 8, 20]",4,2,"[5, 18]",54.95221497,48257,249,2,0,6,1.4411334650783327
undo,16,1,1,0,0,8,"[0, 26, 8]",3,8,"[1, 5, 14, 17, 18, 19, 20, 24]",131.0114025,48458,201,2,6,6,1.724373443877551
undo,16,1,1,0,0,26,"[0, 26]",2,12,"[1, 5, 7, 8, 14, 16, 17, 18, 19, 20, 21, 24]",201.5876024,48825,367,8,23,6,1.0
undo,16,1,1,0,0,0,[0],1,26,"[1, 2, 4, 5, 7, 8, 9, 10, 11, 12, 13, 14, 15, 16, 17, 18, 19, 20, 21, 22, 23, 24, 25, 26, 28, 29]",300,49240,415,6,74,7,0.0
undo,16,1,0,0,0,14,"[0, 14]",2,19,"[1, 4, 5, 8, 9, 13, 15, 17, 18, 19, 20, 21, 22, 23, 24, 25, 26, 28, 29]",200.1901808,50934,1694,5,42,7,1.0
undo,16,1,0,0,0,17,"[0, 14, 17]",3,15,"[1, 4, 5, 8, 9, 13, 15, 18, 19, 20, 22, 23, 25, 28, 29]",147.8356204,51846,912,5,27,7,1.0028844724416826
undo,16,1,0,0,0,1,"[0, 14, 17, 1]",4,12,"[4, 5, 8, 9, 15, 18, 20, 22, 23, 25, 28, 29]",123.4840291,53940,2094,5,15,7,1.0264985578353567
undo,16,1,0,0,0,28,"[0, 14, 17, 1, 28]",5,5,"[9, 15, 22, 23, 29]",88.59850198,54806,866,5,3,7,1.0339861575999345
undo,16,1,0,0,0,23,"[0, 14, 17, 1, 28, 23]",6,2,"[15, 22]",51.70676849,55783,977,2,0,7,1.0327458250705703
undo,16,1,0,0,1,15,"[0, 14, 17, 1, 28, 23, 15]",7,0,[],20.81987807,57716,1933,1,0,7,1.1948681641401226
undo,16,1,1,0,0,23,"[0, 14, 17, 1, 28, 23]",6,2,"[15, 22]",51.70676849,58797,1081,2,0,7,1.0327458250705703
undo,16,1,1,0,0,28,"[0, 14, 17, 1, 28]",5,5,"[9, 15, 22, 23, 29]",88.59850198,59028,231,5,3,7,1.0339861575999345
undo,16,1,1,0,0,1,"[0, 14, 17, 1]",4,12,"[4, 5, 8, 9, 15, 18, 20, 22, 23, 25, 28, 29]",123.4840291,59262,234,5,15,7,1.0264985578353567
undo,16,1,1,0,0,17,"[0, 14, 17]",3,15,"[1, 4, 5, 8, 9, 13, 15, 18, 19, 20, 22, 23, 25, 28, 29]",147.8356204,59518,256,5,27,7,1.0028844724416826
undo,16,1,1,0,0,14,"[0, 14]",2,19,"[1, 4, 5, 8, 9, 13, 15, 17, 18, 19, 20, 21, 22, 23, 24, 25, 26, 28, 29]",200.1901808,59753,235,5,42,7,1.0
undo,16,1,1,0,0,0,[0],1,26,"[1, 2, 4, 5, 7, 8, 9, 10, 11, 12, 13, 14, 15, 16, 17, 18, 19, 20, 21, 22, 23, 24, 25, 26, 28, 29]",300,60023,270,6,74,7,0.0
undo,16,1,0,0,0,8,"[0, 8]",2,23,"[1, 4, 5, 7, 9, 10, 11, 12, 13, 14, 15, 16, 17, 18, 19, 20, 21, 23, 24, 25, 26, 28, 29]",202,62342,2319,1,16,7,1.0
undo,16,1,0,0,0,14,"[0, 8, 14]",3,12,"[1, 5, 9, 15, 17, 18, 19, 20, 25, 26, 28, 29]",138.1094686,63196,854,2,11,6,1.6219900283216735
undo,16,1,0,0,0,17,"[0, 8, 14, 17]",4,6,"[1, 15, 18, 20, 28, 29]",85.75490817,63960,764,1,5,6,1.4120458181998161
undo,16,1,0,0,0,1,"[0, 8, 14, 17, 1]",5,1,[28],61.40331685,64691,731,1,0,6,1.3875183639701723
undo,16,1,0,0,1,28,"[0, 8, 14, 17, 1, 28]",6,0,[],26.51778976,66788,2097,1,0,6,1.3376292144876023
undo,16,1,1,0,0,1,"[0, 8, 14, 17, 1]",5,1,[28],61.40331685,67499,711,1,0,6,1.3875183639701723
undo,16,1,1,0,0,17,"[0, 8, 14, 17]",4,6,"[1, 15, 18, 20, 28, 29]",85.75490817,67736,237,1,5,6,1.4120458181998161
undo,16,1,1,0,0,14,"[0, 8, 14]",3,12,"[1, 5, 9, 15, 17, 18, 19, 20, 25, 26, 28, 29]",138.1094686,67955,219,2,11,6,1.6219900283216735
undo,16,1,1,0,0,8,"[0, 8]",2,23,"[1, 4, 5, 7, 9, 10, 11, 12, 13, 14, 15, 16, 17, 18, 19, 20, 21, 23, 24, 25, 26, 28, 29]",202,68207,252,1,16,7,1.0
undo,16,1,1,0,0,0,[0],1,26,"[1, 2, 4, 5, 7, 8, 9, 10, 11, 12, 13, 14, 15, 16, 17, 18, 19, 20, 21, 22, 23, 24, 25, 26, 28, 29]",300,68472,265,6,74,7,0.0
undo,16,1,0,0,0,20,"[0, 20]",2,13,"[1, 4, 5, 8, 11, 13, 14, 15, 17, 18, 19, 28, 29]",129.961769,69647,1175,2,11,6,1.0
undo,16,1,0,0,0,5,"[0, 20, 5]",3,9,"[1, 4, 8, 11, 13, 17, 18, 19, 29]",108.4908585,70315,668,2,6,6,1.0224915251419384
undo,16,1,0,0,0,18,"[0, 20, 5, 18]",4,4,"[4, 13, 17, 29]",85.66543403,70925,610,2,3,6,1.064078468417926
undo,16,1,0,0,0,4,"[0, 20, 5, 18, 4]",5,2,"[13, 29]",46.71674984,71759,834,2,0,6,1.0731955739217967
undo,16,1,1,0,0,18,"[0, 20, 5, 18]",4,4,"[4, 13, 17, 29]",85.66543403,73352,1593,2,3,6,1.064078468417926
undo,16,1,1,0,0,5,"[0, 20, 5]",3,9,"[1, 4, 8, 11, 13, 17, 18, 19, 29]",108.4908585,73568,216,2,6,6,1.0224915251419384
undo,16,1,1,0,0,20,"[0, 20]",2,13,"[1, 4, 5, 8, 11, 13, 14, 15, 17, 18, 19, 28, 29]",129.961769,73802,234,2,11,6,1.0
undo,16,1,1,0,0,0,[0],1,26,"[1, 2, 4, 5, 7, 8, 9, 10, 11, 12, 13, 14, 15, 16, 17, 18, 19, 20, 21, 22, 23, 24, 25, 26, 28, 29]",300,74074,272,6,74,7,0.0
undo,16,1,0,0,0,14,"[0, 14]",2,19,"[1, 4, 5, 8, 9, 13, 15, 17, 18, 19, 20, 21, 22, 23, 24, 25, 26, 28, 29]",200.1901808,75248,1174,5,42,7,1.0
undo,16,1,0,0,0,17,"[0, 14, 17]",3,15,"[1, 4, 5, 8, 9, 13, 15, 18, 19, 20, 22, 23, 25, 28, 29]",147.8356204,76744,1496,5,27,7,1.0028844724416826
undo,16,1,0,0,0,20,"[0, 14, 17, 20]",4,5,"[4, 5, 8, 18, 29]",79.42509489,77731,987,3,3,6,1.2972077151057804
undo,16,1,0,0,0,5,"[0, 14, 17, 20, 5]",5,1,[18],57.95418433,78482,751,1,0,6,1.2923132195161702
undo,16,1,0,0,1,18,"[0, 14, 17, 20, 5, 18]",6,0,[],35.12875991,79302,820,1,0,6,1.3149712096478787
undo,16,1,1,0,0,5,"[0, 14, 17, 20, 5]",5,1,[18],57.95418433,80739,1437,1,0,6,1.2923132195161702
undo,16,1,1,0,0,20,"[0, 14, 17, 20]",4,5,"[4, 5, 8, 18, 29]",79.42509489,80972,233,3,3,6,1.2972077151057804
undo,16,1,1,0,0,17,"[0, 14, 17]",3,15,"[1, 4, 5, 8, 9, 13, 15, 18, 19, 20, 22, 23, 25, 28, 29]",147.8356204,81223,251,5,27,7,1.0028844724416826
undo,16,1,1,0,0,14,"[0, 14]",2,19,"[1, 4, 5, 8, 9, 13, 15, 17, 18, 19, 20, 21, 22, 23, 24, 25, 26, 28, 29]",200.1901808,81522,299,5,42,7,1.0
undo,16,1,0,0,0,17,"[0, 14, 17]",3,15,"[1, 4, 5, 8, 9, 13, 15, 18, 19, 20, 22, 23, 25, 28, 29]",147.8356204,82725,1203,5,27,7,1.0028844724416826
undo,16,1,0,0,0,1,"[0, 14, 17, 1]",4,12,"[4, 5, 8, 9, 15, 18, 20, 22, 23, 25, 28, 29]",123.4840291,83435,710,5,15,7,1.0264985578353567
undo,16,1,0,0,0,28,"[0, 14, 17, 1, 28]",5,5,"[9, 15, 22, 23, 29]",88.59850198,84139,704,5,3,7,1.0339861575999345
undo,16,1,0,0,0,15,"[0, 14, 17, 1, 28, 15]",6,3,"[22, 23, 29]",53.37067208,86224,2085,3,0,7,1.055553419196412
undo,16,1,0,0,1,22,"[0, 14, 17, 1, 28, 15, 22]",7,0,[],10.09250206,87355,1131,1,0,7,1.0469795997475408
undo,16,1,0,1,1,22,"[0, 14, 17, 1, 28, 15, 22]",7,0,[],10.09250206,88228,873,1,0,7,1.0469795997475408
undo,17,36,0,0,0,0,[0],1,24,"[2, 4, 5, 6, 7, 8, 9, 10, 12, 13, 14, 15, 16, 17, 18, 19, 20, 22, 23, 25, 26, 27, 28, 29]",300,176,-1,2,200,10,0.0
undo,17,36,0,0,0,9,"[0, 9]",2,16,"[2, 4, 8, 10, 12, 13, 16, 17, 18, 19, 23, 25, 26, 27, 28, 29]",230.9348134,3034,2858,81,367,8,1.0
undo,17,36,0,0,0,19,"[0, 9, 19]",3,14,"[2, 4, 8, 10, 12, 13, 16, 17, 18, 23, 25, 27, 28, 29]",215.8020675,8018,4984,32,122,8,1.092374745664041
undo,17,36,0,0,0,13,"[0, 9, 19, 13]",4,13,"[2, 4, 8, 10, 12, 16, 17, 18, 23, 25, 27, 28, 29]",172.3854808,8817,799,3,24,8,1.301105619351329
undo,17,36,0,0,0,25,"[0, 9, 19, 13, 25]",5,11,"[2, 4, 8, 10, 12, 16, 17, 18, 23, 27, 29]",151.7942205,9506,689,2,12,8,1.2944847055191127
undo,17,36,0,0,0,2,"[0, 9, 19, 13, 25, 2]",6,5,"[10, 12, 16, 17, 18]",126.7942205,10222,716,2,3,8,1.5337557346296
undo,17,36,1,0,0,25,"[0, 9, 19, 13, 25]",5,11,"[2, 4, 8, 10, 12, 16, 17, 18, 23, 27, 29]",151.7942205,12009,1787,2,12,8,1.2944847055191127
undo,17,36,1,0,0,13,"[0, 9, 19, 13]",4,13,"[2, 4, 8, 10, 12, 16, 17, 18, 23, 25, 27, 28, 29]",172.3854808,12244,235,3,24,8,1.301105619351329
undo,17,36,1,0,0,19,"[0, 9, 19]",3,14,"[2, 4, 8, 10, 12, 13, 16, 17, 18, 23, 25, 27, 28, 29]",215.8020675,12479,235,32,122,8,1.092374745664041
undo,17,36,1,0,0,9,"[0, 9]",2,16,"[2, 4, 8, 10, 12, 13, 16, 17, 18, 19, 23, 25, 26, 27, 28, 29]",230.9348134,12778,299,81,367,8,1.0
undo,17,36,1,0,0,0,[0],1,24,"[2, 4, 5, 6, 7, 8, 9, 10, 12, 13, 14, 15, 16, 17, 18, 19, 20, 22, 23, 25, 26, 27, 28, 29]",300,14079,1301,2,200,10,0.0
undo,17,36,0,0,0,12,"[0, 12]",2,23,"[2, 4, 5, 6, 7, 8, 9, 10, 13, 14, 15, 16, 17, 18, 19, 20, 22, 23, 25, 26, 27, 28, 29]",277.7963967,16406,2327,90,804,9,1.0
undo,17,36,0,0,0,9,"[0, 12, 9]",3,14,"[2, 4, 8, 10, 13, 16, 17, 18, 19, 23, 25, 27, 28, 29]",215.4345494,17616,1210,32,191,9,1.224429481246385
undo,17,36,0,0,0,16,"[0, 12, 9, 16]",4,8,"[2, 10, 13, 17, 18, 19, 23, 25]",168.137615,18677,1061,7,26,9,1.235383731443557
undo,17,36,0,0,0,17,"[0, 12, 9, 16, 17]",5,6,"[2, 10, 13, 18, 19, 25]",139.8180105,19408,731,7,14,9,1.6947865799475665
undo,17,36,0,0,0,19,"[0, 12, 9, 16, 17, 19]",6,5,"[2, 10, 13, 18, 25]",111.9253591,20294,886,6,1,9,2.440059772477113
undo,17,36,0,0,0,2,"[0, 12, 9, 16, 17, 19, 2]",7,2,"[13, 25]",74.80393675,21258,964,2,0,9,1.994135267441798
undo,17,36,0,0,0,25,"[0, 12, 9, 16, 17, 19, 2, 25]",8,1,[13],49.80393675,22199,941,1,0,9,2.1853059870598197
undo,17,36,0,0,1,13,"[0, 12, 9, 16, 17, 19, 2, 25, 13]",9,0,[],29.21267647,23159,960,1,0,9,2.7608371719978186
undo,17,36,1,0,0,25,"[0, 12, 9, 16, 17, 19, 2, 25]",8,1,[13],49.80393675,24449,1290,1,0,9,2.1853059870598197
undo,17,36,1,0,0,2,"[0, 12, 9, 16, 17, 19, 2]",7,2,"[13, 25]",74.80393675,24701,252,2,0,9,1.994135267441798
undo,17,36,1,0,0,19,"[0, 12, 9, 16, 17, 19]",6,5,"[2, 10, 13, 18, 25]",111.9253591,24935,234,6,1,9,2.440059772477113
undo,17,36,1,0,0,17,"[0, 12, 9, 16, 17]",5,6,"[2, 10, 13, 18, 19, 25]",139.8180105,25172,237,7,14,9,1.6947865799475665
undo,17,36,1,0,0,16,"[0, 12, 9, 16]",4,8,"[2, 10, 13, 17, 18, 19, 23, 25]",168.137615,25387,215,7,26,9,1.235383731443557
undo,17,36,1,0,0,9,"[0, 12, 9]",3,14,"[2, 4, 8, 10, 13, 16, 17, 18, 19, 23, 25, 27, 28, 29]",215.4345494,25600,213,32,191,9,1.224429481246385
undo,17,36,0,0,0,19,"[0, 12, 9, 19]",4,13,"[2, 4, 8, 10, 13, 16, 17, 18, 23, 25, 27, 28, 29]",200.3018034,26879,1279,14,61,9,1.293473472808712
undo,17,36,0,0,0,16,"[0, 12, 9, 19, 16]",5,6,"[2, 10, 13, 17, 18, 25]",145.7124272,28723,1844,3,6,9,1.4454793715511323
undo,17,36,0,0,0,17,"[0, 12, 9, 19, 16, 17]",6,4,"[2, 13, 18, 25]",117.3928227,29711,988,3,3,9,1.932053625105873
undo,17,36,0,0,0,2,"[0, 12, 9, 19, 16, 17, 2]",7,2,"[13, 25]",76.1617664,30527,816,2,0,9,1.9821115404140426
undo,17,36,0,0,0,25,"[0, 12, 9, 19, 16, 17, 2, 25]",8,1,[13],51.1617664,31462,935,1,0,9,2.1734461950830477
undo,17,36,1,0,0,2,"[0, 12, 9, 19, 16, 17, 2]",7,2,"[13, 25]",76.1617664,32737,1275,2,0,9,1.9821115404140426
undo,17,36,1,0,0,17,"[0, 12, 9, 19, 16, 17]",6,4,"[2, 13, 18, 25]",117.3928227,32974,237,3,3,9,1.932053625105873
undo,17,36,1,0,0,16,"[0, 12, 9, 19, 16]",5,6,"[2, 10, 13, 17, 18, 25]",145.7124272,33171,197,3,6,9,1.4454793715511323
undo,17,36,1,0,0,19,"[0, 12, 9, 19]",4,13,"[2, 4, 8, 10, 13, 16, 17, 18, 23, 25, 27, 28, 29]",200.3018034,33390,219,14,61,9,1.293473472808712
undo,17,36,1,0,0,9,"[0, 12, 9]",3,14,"[2, 4, 8, 10, 13, 16, 17, 18, 19, 23, 25, 27, 28, 29]",215.4345494,33621,231,32,191,9,1.224429481246385
undo,17,36,1,0,0,12,"[0, 12]",2,23,"[2, 4, 5, 6, 7, 8, 9, 10, 13, 14, 15, 16, 17, 18, 19, 20, 22, 23, 25, 26, 27, 28, 29]",277.7963967,33906,285,90,804,9,1.0
undo,17,36,1,0,0,0,[0],1,24,"[2, 4, 5, 6, 7, 8, 9, 10, 12, 13, 14, 15, 16, 17, 18, 19, 20, 22, 23, 25, 26, 27, 28, 29]",300,34458,552,2,200,10,0.0
undo,17,36,0,0,0,18,"[0, 18]",2,21,"[2, 4, 5, 6, 7, 8, 9, 10, 12, 13, 14, 16, 17, 19, 22, 23, 25, 26, 27, 28, 29]",279.6039219,35268,810,2,110,10,1.0
undo,17,36,0,0,0,23,"[0, 18, 23]",3,17,"[2, 4, 5, 6, 7, 9, 10, 12, 13, 16, 17, 19, 22, 25, 26, 28, 29]",209.5967795,36050,782,8,38,8,1.474902475021843
undo,17,36,1,0,0,18,"[0, 18]",2,21,"[2, 4, 5, 6, 7, 8, 9, 10, 12, 13, 14, 16, 17, 19, 22, 23, 25, 26, 27, 28, 29]",279.6039219,37681,1631,2,110,10,1.0
undo,17,36,1,0,0,0,[0],1,24,"[2, 4, 5, 6, 7, 8, 9, 10, 12, 13, 14, 15, 16, 17, 18, 19, 20, 22, 23, 25, 26, 27, 28, 29]",300,37924,243,2,200,10,0.0
undo,17,36,0,0,0,23,"[0, 23]",2,19,"[2, 4, 5, 6, 7, 9, 10, 12, 13, 14, 16, 17, 18, 19, 22, 25, 26, 28, 29]",238.7056283,39438,1514,8,97,8,1.0
undo,17,36,0,0,0,18,"[0, 23, 18]",3,8,"[2, 9, 12, 13, 16, 17, 19, 25]",168.6984858,40402,964,17,49,7,6.437586375673849
undo,17,36,0,0,0,12,"[0, 23, 18, 12]",4,7,"[2, 9, 13, 16, 17, 19, 25]",126.1191481,41354,952,10,16,7,7.8311997139892195
undo,17,36,1,0,0,18,"[0, 23, 18]",3,8,"[2, 9, 12, 13, 16, 17, 19, 25]",168.6984858,42443,1089,17,49,7,6.437586375673849
undo,17,36,1,0,0,23,"[0, 23]",2,19,"[2, 4, 5, 6, 7, 9, 10, 12, 13, 14, 16, 17, 18, 19, 22, 25, 26, 28, 29]",238.7056283,42676,233,8,97,8,1.0
undo,17,36,1,0,0,0,[0],1,24,"[2, 4, 5, 6, 7, 8, 9, 10, 12, 13, 14, 15, 16, 17, 18, 19, 20, 22, 23, 25, 26, 27, 28, 29]",300,43044,368,2,200,10,0.0
undo,17,36,0,0,0,12,"[0, 12]",2,23,"[2, 4, 5, 6, 7, 8, 9, 10, 13, 14, 15, 16, 17, 18, 19, 20, 22, 23, 25, 26, 27, 28, 29]",277.7963967,45788,2744,90,804,9,1.0
undo,17,36,0,0,0,9,"[0, 12, 9]",3,14,"[2, 4, 8, 10, 13, 16, 17, 18, 19, 23, 25, 27, 28, 29]",215.4345494,47555,1767,32,191,9,1.224429481246385
undo,17,36,0,0,0,16,"[0, 12, 9, 16]",4,8,"[2, 10, 13, 17, 18, 19, 23, 25]",168.137615,51510,3955,7,26,9,1.235383731443557
undo,17,36,0,0,0,17,"[0, 12, 9, 16, 17]",5,6,"[2, 10, 13, 18, 19, 25]",139.8180105,52433,923,7,14,9,1.6947865799475665
undo,17,36,0,0,0,19,"[0, 12, 9, 16, 17, 19]",6,5,"[2, 10, 13, 18, 25]",111.9253591,53236,803,6,1,9,2.440059772477113
undo,17,36,0,0,0,2,"[0, 12, 9, 16, 17, 19, 2]",7,2,"[13, 25]",74.80393675,56524,3288,2,0,9,1.994135267441798
undo,17,36,0,0,0,13,"[0, 12, 9, 16, 17, 19, 2, 13]",8,1,[25],36.47640096,57127,603,1,0,9,2.68677919794749
undo,17,36,0,0,1,25,"[0, 12, 9, 16, 17, 19, 2, 13, 25]",9,0,[],15.88514068,58015,888,1,0,9,2.4815654371997975
undo,17,36,0,1,1,25,"[0, 12, 9, 16, 17, 19, 2, 13, 25]",9,0,[],15.88514068,60519,2504,1,0,9,2.4815654371997975
undo,18,11,0,0,0,0,[0],1,25,"[1, 2, 3, 4, 5, 6, 8, 9, 10, 11, 12, 13, 14, 15, 16, 17, 18, 19, 20, 22, 23, 25, 26, 27, 28]",300,182,-1,6,374,12,0.0
undo,18,11,0,0,0,18,"[0, 18]",2,21,"[1, 2, 4, 5, 6, 8, 9, 11, 12, 13, 14, 15, 16, 17, 19, 20, 22, 23, 25, 27, 28]",236.8493864,5644,5462,157,1477,11,1.0
undo,18,11,0,0,0,27,"[0, 18, 27]",3,19,"[1, 2, 4, 5, 6, 8, 9, 11, 12, 14, 15, 16, 17, 19, 20, 22, 23, 25, 28]",212.9956655,6390,746,157,1315,11,1.060949579704323
undo,18,11,0,0,0,8,"[0, 18, 27, 8]",4,14,"[1, 2, 4, 5, 6, 11, 12, 15, 17, 19, 22, 23, 25, 28]",142.7817068,7656,1266,68,433,11,1.0827202875589923
undo,18,11,0,0,0,17,"[0, 18, 27, 8, 17]",5,13,"[1, 2, 4, 5, 6, 11, 12, 15, 19, 22, 23, 25, 28]",128.4638857,8419,763,42,137,11,1.1662918234607762
undo,18,11,0,0,0,15,"[0, 18, 27, 8, 17, 15]",6,9,"[2, 5, 6, 11, 12, 19, 22, 25, 28]",115.8147751,9004,585,38,57,11,1.1741312027420885
