condition,trial_id,map_id,undoIndicator,submit,checkEnd,currentChoice,chosen_all,n_city_all,n_within_reach,cities_reach,currentBudget,time_all,rt_all,n_opt_paths_all,n_subopt_paths_all,mas_all,tortuosity_all
undo,0,3,0,0,0,0,[0],1,29,"[1, 2, 3, 4, 5, 6, 7, 8, 9, 10, 11, 12, 13, 14, 15, 16, 17, 18, 19, 20, 21, 22, 23, 24, 25, 26, 27, 28, 29]",300,324,-1,34,427,10,0.0
undo,0,3,0,0,0,8,"[0, 8]",2,28,"[1, 2, 3, 4, 5, 6, 7, 9, 10, 11, 12, 13, 14, 15, 16, 17, 18, 19, 20, 21, 22, 23, 24, 25, 26, 27, 28, 29]",239.9666759,3495,3171,1,54,10,1.0
undo,0,3,0,0,0,24,"[0, 8, 24]",3,23,"[1, 2, 3, 4, 5, 6, 7, 10, 11, 12, 14, 15, 16, 17, 18, 19, 20, 21, 22, 25, 26, 27, 28]",227.8011509,4818,1323,1,50,10,1.2267083825981846
undo,0,3,0,0,0,17,"[0, 8, 24, 17]",4,11,"[3, 4, 7, 10, 14, 15, 16, 19, 20, 21, 27]",158.4469873,5713,895,1,18,10,1.3836579788002414
undo,0,3,0,0,0,20,"[0, 8, 24, 17, 20]",5,9,"[3, 4, 7, 10, 14, 15, 16, 19, 21]",145.7978767,6114,401,1,14,10,1.3620097615632467
undo,0,3,0,0,0,3,"[0, 8, 24, 17, 20, 3]",6,5,"[4, 10, 14, 19, 21]",125.4017986,7164,1050,1,11,10,1.3956695218398405
undo,0,3,0,0,0,19,"[0, 8, 24, 17, 20, 3, 19]",7,4,"[4, 10, 14, 21]",88.06548922,7954,790,1,4,10,1.4360605238855817
undo,0,3,0,0,0,21,"[0, 8, 24, 17, 20, 3, 19, 21]",8,2,"[10, 14]",75.85893361,8712,758,1,1,10,1.4576450248605066
undo,0,3,0,0,0,14,"[0, 8, 24, 17, 20, 3, 19, 21, 14]",9,1,[10],48.95168551,9395,683,1,0,10,1.9505702217699148
undo,0,3,0,0,1,10,"[0, 8, 24, 17, 20, 3, 19, 21, 14, 10]",10,0,[],3.498412803,10048,653,1,0,10,1.8830527336542522
undo,0,3,0,1,1,10,"[0, 8, 24, 17, 20, 3, 19, 21, 14, 10]",10,0,[],3.498412803,10942,894,1,0,10,1.8830527336542522
undo,1,21,0,0,0,0,[0],1,29,"[1, 2, 3, 4, 5, 6, 7, 8, 9, 10, 11, 12, 13, 14, 15, 16, 17, 18, 19, 20, 21, 22, 23, 24, 25, 26, 27, 28, 29]",300,363,-1,84,830,9,0.0
undo,1,21,0,0,0,18,"[0, 18]",2,28,"[1, 2, 3, 4, 5, 6, 7, 8, 9, 10, 11, 12, 13, 14, 15, 16, 17, 19, 20, 21, 22, 23, 24, 25, 26, 27, 28, 29]",240.923778,4109,3746,44,305,9,1.0
undo,1,21,0,0,0,29,"[0, 18, 29]",3,24,"[1, 2, 3, 4, 6, 7, 8, 9, 10, 11, 12, 13, 14, 15, 16, 17, 20, 21, 22, 23, 24, 25, 26, 27]",212.2706805,4942,833,11,87,9,1.035555280387994
undo,1,21,0,0,0,25,"[0, 18, 29, 25]",4,18,"[1, 4, 6, 8, 9, 10, 11, 12, 14, 15, 16, 17, 20, 21, 22, 23, 24, 26]",167.0490043,5783,841,6,45,9,2.2226517719335437
undo,1,21,0,0,0,23,"[0, 18, 29, 25, 23]",5,10,"[4, 8, 14, 15, 16, 17, 20, 21, 22, 24]",123.7246462,6757,974,3,20,9,1.7801958981326236
undo,1,21,0,0,0,21,"[0, 18, 29, 25, 23, 21]",6,3,"[4, 14, 16]",94.11046043,7311,554,1,3,9,2.290491065218303
undo,1,21,0,0,0,14,"[0, 18, 29, 25, 23, 21, 14]",7,2,"[4, 16]",68.49796348,7933,622,1,1,9,2.021100447974041
undo,1,21,0,0,0,4,"[0, 18, 29, 25, 23, 21, 14, 4]",8,1,[16],54.35582786,8429,496,1,0,9,1.9205022281831265
undo,1,21,0,0,1,16,"[0, 18, 29, 25, 23, 21, 14, 4, 16]",9,0,[],9.757621617,9585,1156,1,0,9,1.7782202964615115
undo,1,21,0,1,1,16,"[0, 18, 29, 25, 23, 21, 14, 4, 16]",9,0,[],9.757621617,10429,844,1,0,9,1.7782202964615115
undo,2,40,0,0,0,0,[0],1,29,"[1, 2, 3, 4, 5, 6, 7, 8, 9, 10, 11, 12, 13, 14, 15, 16, 17, 18, 19, 20, 21, 22, 23, 24, 25, 26, 27, 28, 29]",300,349,-1,8,191,9,0.0
undo,2,40,0,0,0,1,"[0, 1]",2,18,"[2, 5, 6, 7, 8, 9, 10, 11, 13, 15, 17, 18, 19, 21, 22, 23, 27, 29]",247.8463808,2614,2265,4,80,9,1.0
undo,2,40,0,0,0,6,"[0, 1, 6]",3,17,"[2, 5, 7, 8, 9, 10, 11, 13, 15, 17, 18, 19, 21, 22, 23, 27, 29]",227.7466295,2970,356,4,74,9,1.0459427008232034
undo,2,40,0,0,0,21,"[0, 1, 6, 21]",4,8,"[2, 5, 9, 17, 18, 19, 22, 23]",175.7754837,4206,1236,4,25,9,1.0308822257404064
undo,2,40,0,0,0,9,"[0, 1, 6, 21, 9]",5,6,"[2, 5, 18, 19, 22, 23]",130.0699041,4978,772,4,12,9,1.377861912961129
undo,2,40,0,0,0,18,"[0, 1, 6, 21, 9, 18]",6,5,"[2, 5, 19, 22, 23]",113.5169588,5390,412,4,4,9,1.5742712168661408
undo,2,40,0,0,0,23,"[0, 1, 6, 21, 9, 18, 23]",7,3,"[2, 5, 19]",79.51695879,6074,684,2,1,9,2.324611956726637
undo,2,40,0,0,0,19,"[0, 1, 6, 21, 9, 18, 23, 19]",8,1,[5],47.56386817,7862,1788,1,0,9,2.460596854255639
undo,2,40,0,0,1,5,"[0, 1, 6, 21, 9, 18, 23, 19, 5]",9,0,[],9.485002643,8569,707,1,0,9,2.3622228457215413
undo,2,40,0,1,1,5,"[0, 1, 6, 21, 9, 18, 23, 19, 5]",9,0,[],9.485002643,9366,797,1,0,9,2.3622228457215413
undo,3,30,0,0,0,0,[0],1,19,"[3, 4, 5, 7, 9, 11, 16, 17, 18, 19, 20, 21, 22, 24, 25, 26, 27, 28, 29]",300,363,-1,5,41,8,0.0
undo,3,30,0,0,0,25,"[0, 25]",2,12,"[3, 5, 7, 9, 11, 16, 18, 19, 20, 24, 27, 29]",121.1005869,3221,2858,7,37,7,1.0
undo,3,30,0,0,0,27,"[0, 25, 27]",3,8,"[3, 5, 7, 18, 19, 20, 24, 29]",81.54050603,3983,762,2,17,7,1.0432445497342653
undo,3,30,0,0,0,3,"[0, 25, 27, 3]",4,5,"[5, 7, 18, 20, 29]",62.43553286,4987,1004,2,6,7,1.0419393955972533
undo,3,30,0,0,0,29,"[0, 25, 27, 3, 29]",5,3,"[5, 7, 18]",43.83445762,5653,666,1,2,7,1.0521853644580021
undo,3,30,0,0,0,18,"[0, 25, 27, 3, 29, 18]",6,1,[5],24.5212497,6295,642,1,0,7,1.1278751785159948
undo,3,30,0,0,1,5,"[0, 25, 27, 3, 29, 18, 5]",7,0,[],11.48284489,6689,394,1,0,7,1.1931367962604076
undo,3,30,0,1,1,5,"[0, 25, 27, 3, 29, 18, 5]",7,0,[],11.48284489,7678,989,1,0,7,1.1931367962604076
undo,4,7,0,0,0,0,[0],1,29,"[1, 2, 3, 4, 5, 6, 7, 8, 9, 10, 11, 12, 13, 14, 15, 16, 17, 18, 19, 20, 21, 22, 23, 24, 25, 26, 27, 28, 29]",300,331,-1,3,79,9,0.0
undo,4,7,0,0,0,15,"[0, 15]",2,19,"[2, 4, 5, 6, 7, 8, 9, 10, 13, 14, 16, 18, 19, 20, 21, 23, 25, 27, 28]",230.9348134,2054,1723,2,38,9,1.0
undo,4,7,0,0,0,6,"[0, 15, 6]",3,18,"[2, 4, 5, 7, 8, 9, 10, 13, 14, 16, 18, 19, 20, 21, 23, 25, 27, 28]",205.854941,2686,632,2,36,9,1.366719602896943
undo,4,7,0,0,0,25,"[0, 15, 6, 25]",4,11,"[2, 4, 7, 13, 14, 16, 18, 19, 20, 21, 23]",138.6760753,3300,614,2,28,9,1.3624631728355765
undo,4,7,0,0,0,4,"[0, 15, 6, 25, 4]",5,7,"[2, 7, 13, 16, 18, 19, 20]",113.9374415,4001,701,2,12,9,1.3249684384385587
undo,4,7,0,0,0,18,"[0, 15, 6, 25, 4, 18]",6,4,"[7, 13, 19, 20]",86.47838108,4552,551,1,4,9,1.4913724262038701
undo,4,7,0,0,0,20,"[0, 15, 6, 25, 4, 18, 20]",7,3,"[7, 13, 19]",73.6721326,5035,483,1,2,9,1.509724987020694
undo,4,7,0,0,0,7,"[0, 15, 6, 25, 4, 18, 20, 7]",8,1,[19],33.17521914,5728,693,1,0,9,1.4585598619472202
undo,4,7,0,0,1,19,"[0, 15, 6, 25, 4, 18, 20, 7, 19]",9,0,[],3.764336802,6710,982,1,0,9,1.565982232820698
undo,4,7,0,1,1,19,"[0, 15, 6, 25, 4, 18, 20, 7, 19]",9,0,[],3.764336802,7746,1036,1,0,9,1.565982232820698
undo,5,16,0,0,0,0,[0],1,29,"[1, 2, 3, 4, 5, 6, 7, 8, 9, 10, 11, 12, 13, 14, 15, 16, 17, 18, 19, 20, 21, 22, 23, 24, 25, 26, 27, 28, 29]",300,347,-1,13,161,9,0.0
undo,5,16,0,0,0,17,"[0, 17]",2,27,"[1, 2, 3, 4, 5, 7, 8, 9, 10, 11, 12, 13, 14, 15, 16, 18, 19, 20, 21, 22, 23, 24, 25, 26, 27, 28, 29]",241.3058776,1556,1209,2,58,9,1.0
undo,5,16,0,0,0,16,"[0, 17, 16]",3,26,"[1, 2, 3, 4, 5, 7, 8, 9, 10, 11, 12, 13, 14, 15, 18, 19, 20, 21, 22, 23, 24, 25, 26, 27, 28, 29]",212.9862731,2040,484,2,52,9,1.0529535521792848
undo,5,16,0,0,0,21,"[0, 17, 16, 21]",4,19,"[3, 5, 7, 8, 9, 10, 12, 14, 15, 19, 20, 22, 23, 24, 25, 26, 27, 28, 29]",168.332046,3212,1172,9,18,8,1.5524765786046826
undo,5,16,0,0,0,8,"[0, 17, 16, 21, 8]",5,7,"[3, 5, 9, 12, 15, 20, 25]",119.0776046,3819,607,9,6,8,1.458624751458944
undo,5,16,0,0,0,20,"[0, 17, 16, 21, 8, 20]",6,3,"[9, 15, 25]",61.30217727,5290,1471,4,1,8,1.3191752290945782
undo,5,16,0,0,0,25,"[0, 17, 16, 21, 8, 20, 25]",7,2,"[9, 15]",48.65306663,5702,412,2,0,8,1.3641436248537882
undo,5,16,0,0,1,9,"[0, 17, 16, 21, 8, 20, 25, 9]",8,0,[],35.84681815,6219,517,1,0,8,1.3406027753205443
undo,5,16,0,1,1,9,"[0, 17, 16, 21, 8, 20, 25, 9]",8,0,[],35.84681815,8114,1895,1,0,8,1.3406027753205443
undo,6,27,0,0,0,0,[0],1,26,"[1, 3, 5, 6, 7, 8, 9, 10, 11, 12, 13, 14, 15, 16, 17, 18, 19, 21, 22, 23, 24, 25, 26, 27, 28, 29]",300,347,-1,13,578,11,0.0
undo,6,27,0,0,0,15,"[0, 15]",2,24,"[1, 3, 5, 6, 7, 8, 9, 10, 11, 12, 13, 14, 16, 17, 18, 19, 21, 22, 23, 24, 25, 26, 27, 29]",263.7508621,2046,1699,6,219,11,1.0
undo,6,27,0,0,0,24,"[0, 15, 24]",3,20,"[1, 5, 6, 7, 8, 9, 10, 12, 13, 14, 16, 17, 18, 19, 21, 23, 25, 26, 27, 29]",246.5462115,2518,472,6,130,11,1.130933077698322
undo,6,27,0,0,0,17,"[0, 15, 24, 17]",4,15,"[1, 6, 8, 10, 12, 13, 14, 16, 18, 19, 23, 25, 26, 27, 29]",229.9932662,3259,741,4,60,11,1.1285538435963374
undo,6,27,0,0,0,12,"[0, 15, 24, 17, 12]",5,14,"[1, 6, 8, 10, 13, 14, 16, 18, 19, 23, 25, 26, 27, 29]",218.8129263,3602,343,2,32,11,1.2561880288755216
undo,6,27,0,0,0,10,"[0, 15, 24, 17, 12, 10]",6,11,"[1, 8, 13, 14, 18, 19, 23, 25, 26, 27, 29]",207.7675653,4306,704,2,28,11,1.2228289337766665
undo,6,27,0,0,0,13,"[0, 15, 24, 17, 12, 10, 13]",7,9,"[1, 8, 14, 18, 19, 23, 26, 27, 29]",167.9178476,5227,921,2,18,11,1.3421291994761178
undo,6,27,0,0,0,19,"[0, 15, 24, 17, 12, 10, 13, 19]",8,5,"[1, 8, 14, 23, 29]",131.6825057,5840,613,2,6,11,1.294749956153846
undo,6,27,0,0,0,8,"[0, 15, 24, 17, 12, 10, 13, 19, 8]",9,3,"[14, 23, 29]",116.816437,6605,765,2,1,11,1.3554286578836865
undo,6,27,0,0,0,14,"[0, 15, 24, 17, 12, 10, 13, 19, 8, 14]",10,1,[29],59.25777126,7830,1225,1,0,11,1.312380420632942
undo,6,27,0,0,1,29,"[0, 15, 24, 17, 12, 10, 13, 19, 8, 14, 29]",11,0,[],14.96330208,8793,963,1,0,11,1.4680136813839417
undo,6,27,0,1,1,29,"[0, 15, 24, 17, 12, 10, 13, 19, 8, 14, 29]",11,0,[],14.96330208,10079,1286,1,0,11,1.4680136813839417
undo,7,20,0,0,0,0,[0],1,21,"[1, 2, 3, 4, 5, 6, 7, 8, 9, 12, 17, 18, 20, 21, 22, 23, 25, 26, 27, 28, 29]",300,331,-1,1,9,9,0.0
undo,7,20,0,0,0,12,"[0, 12]",2,20,"[1, 2, 3, 4, 5, 6, 7, 8, 9, 17, 18, 20, 21, 22, 23, 25, 26, 27, 28, 29]",271.5570747,1906,1575,1,8,9,1.0
undo,7,20,0,0,0,1,"[0, 12, 1]",3,12,"[3, 4, 5, 6, 8, 9, 20, 21, 23, 27, 28, 29]",189.5692707,3401,1495,1,6,9,1.0757997779162911
undo,7,20,0,0,0,5,"[0, 12, 1, 5]",4,10,"[4, 6, 8, 9, 20, 21, 23, 27, 28, 29]",152.8950291,4412,1011,1,5,9,1.1708231454516806
undo,7,20,0,0,0,21,"[0, 12, 1, 5, 21]",5,8,"[4, 6, 8, 9, 20, 23, 27, 28]",107.8950291,17194,12782,1,4,9,1.126197336199212
undo,7,20,0,0,0,8,"[0, 12, 1, 5, 21, 8]",6,5,"[6, 9, 23, 27, 28]",90.43077988,17817,623,1,3,9,1.140007470699913
undo,7,20,0,0,0,23,"[0, 12, 1, 5, 21, 8, 23]",7,2,"[6, 9]",45.74297394,18450,633,1,1,9,1.1162257896627588
undo,7,20,0,0,0,9,"[0, 12, 1, 5, 21, 8, 23, 9]",8,1,[6],26.53360123,18890,440,1,0,9,1.1086880559449597
undo,7,20,0,0,1,6,"[0, 12, 1, 5, 21, 8, 23, 9, 6]",9,0,[],3.511872362,19801,911,1,0,9,1.1186240265999328
undo,7,20,0,1,1,6,"[0, 12, 1, 5, 21, 8, 23, 9, 6]",9,0,[],3.511872362,20979,1178,1,0,9,1.1186240265999328
undo,8,9,0,0,0,0,[0],1,27,"[1, 3, 4, 5, 6, 7, 8, 9, 10, 11, 13, 14, 15, 16, 17, 18, 19, 20, 21, 22, 23, 24, 25, 26, 27, 28, 29]",300,334,-1,2,182,10,0.0
undo,8,9,0,0,0,25,"[0, 25]",2,24,"[1, 3, 4, 5, 6, 7, 8, 9, 10, 11, 13, 15, 16, 17, 18, 19, 20, 21, 22, 23, 24, 26, 27, 28]",275.9168108,2643,2309,2,104,10,1.0
undo,8,9,0,0,0,10,"[0, 25, 10]",3,20,"[3, 4, 5, 7, 8, 9, 11, 13, 15, 16, 17, 18, 19, 20, 21, 22, 23, 26, 27, 28]",236.0670932,3317,674,2,76,10,1.1767014107208227
undo,8,9,1,0,0,25,"[0, 25]",2,24,"[1, 3, 4, 5, 6, 7, 8, 9, 10, 11, 13, 15, 16, 17, 18, 19, 20, 21, 22, 23, 24, 26, 27, 28]",275.9168108,8579,5262,2,104,10,1.0
undo,8,9,1,0,0,0,[0],1,27,"[1, 3, 4, 5, 6, 7, 8, 9, 10, 11, 13, 14, 15, 16, 17, 18, 19, 20, 21, 22, 23, 24, 25, 26, 27, 28, 29]",300,8730,151,2,182,10,0.0
undo,8,9,0,0,0,9,"[0, 9]",2,26,"[1, 3, 4, 5, 6, 7, 8, 10, 11, 13, 14, 15, 16, 17, 18, 19, 20, 21, 22, 23, 24, 25, 26, 27, 28, 29]",225.5352432,10979,2249,2,101,9,1.0
undo,8,9,0,0,0,23,"[0, 9, 23]",3,22,"[1, 3, 4, 5, 7, 8, 10, 11, 13, 15, 16, 17, 18, 19, 20, 21, 22, 24, 25, 26, 27, 28]",203.1745635,11401,422,2,70,9,1.6262276606762436
undo,8,9,0,0,0,8,"[0, 9, 23, 8]",4,18,"[3, 4, 5, 7, 10, 11, 15, 16, 17, 18, 19, 20, 21, 22, 25, 26, 27, 28]",181.7036529,12550,1149,1,36,9,1.8547307061753238
undo,8,9,0,0,0,28,"[0, 9, 23, 8, 28]",5,17,"[3, 4, 5, 7, 10, 11, 15, 16, 17, 18, 19, 20, 21, 22, 25, 26, 27]",170.8869991,12934,384,1,23,9,1.7382749966569708
undo,8,9,0,0,0,26,"[0, 9, 23, 8, 28, 26]",6,10,"[3, 5, 10, 15, 16, 18, 19, 20, 21, 25]",126.1097727,14885,1951,4,7,8,1.4884719959249546
undo,8,9,0,0,0,18,"[0, 9, 23, 8, 28, 26, 18]",7,2,"[5, 19]",65.23284771,16577,1692,2,0,8,1.3471468379657168
undo,8,9,0,0,1,5,"[0, 9, 23, 8, 28, 26, 18, 5]",8,0,[],1.342316325,17461,884,1,0,8,1.3414453811098892
undo,8,9,0,1,1,5,"[0, 9, 23, 8, 28, 26, 18, 5]",8,0,[],1.342316325,18479,1018,1,0,8,1.3414453811098892
undo,9,6,0,0,0,0,[0],1,29,"[1, 2, 3, 4, 5, 6, 7, 8, 9, 10, 11, 12, 13, 14, 15, 16, 17, 18, 19, 20, 21, 22, 23, 24, 25, 26, 27, 28, 29]",300,346,-1,180,4304,10,0.0
undo,9,6,0,0,0,3,"[0, 3]",2,28,"[1, 2, 4, 5, 6, 7, 8, 9, 10, 11, 12, 13, 14, 15, 16, 17, 18, 19, 20, 21, 22, 23, 24, 25, 26, 27, 28, 29]",266.4738908,1775,1429,90,1607,10,1.0
undo,9,6,0,0,0,18,"[0, 3, 18]",3,27,"[1, 2, 4, 5, 6, 7, 8, 9, 10, 11, 12, 13, 14, 15, 16, 17, 19, 20, 21, 22, 23, 24, 25, 26, 27, 28, 29]",237.4738908,2459,684,34,516,10,1.0266750028725786
undo,9,6,0,0,0,17,"[0, 3, 18, 17]",4,26,"[1, 2, 4, 5, 6, 7, 8, 9, 10, 11, 12, 13, 14, 15, 16, 19, 20, 21, 22, 23, 24, 25, 26, 27, 28, 29]",223.5455025,3067,608,17,243,10,1.0832900829093166
undo,9,6,0,0,0,10,"[0, 3, 18, 17, 10]",5,22,"[1, 2, 4, 5, 6, 7, 8, 9, 11, 13, 14, 16, 19, 20, 21, 22, 23, 24, 26, 27, 28, 29]",203.8224196,3557,490,10,111,10,1.140294203414171
undo,9,6,0,0,0,24,"[0, 3, 18, 17, 10, 24]",6,19,"[1, 2, 4, 5, 6, 7, 8, 11, 13, 14, 16, 20, 21, 22, 23, 26, 27, 28, 29]",190.4060117,3901,344,10,80,10,1.1264281153820843
undo,9,6,0,0,0,16,"[0, 3, 18, 17, 10, 24, 16]",7,13,"[1, 2, 6, 7, 13, 14, 20, 21, 22, 23, 26, 27, 29]",134.3703088,4673,772,6,21,10,2.2946652061367843
undo,9,6,0,0,0,29,"[0, 3, 18, 17, 10, 24, 16, 29]",8,7,"[6, 14, 20, 21, 22, 23, 27]",97.68243615,5908,1235,5,5,10,1.8995488998077483
undo,9,6,0,0,0,23,"[0, 3, 18, 17, 10, 24, 16, 29, 23]",9,2,"[6, 22]",50.16401866,6580,672,2,0,10,1.8616504050291767
undo,9,6,0,0,1,6,"[0, 3, 18, 17, 10, 24, 16, 29, 23, 6]",10,0,[],14.8086796,7392,812,1,0,10,1.7707258119152334
undo,9,6,0,1,1,6,"[0, 3, 18, 17, 10, 24, 16, 29, 23, 6]",10,0,[],14.8086796,8163,771,1,0,10,1.7707258119152334
undo,10,17,0,0,0,0,[0],1,28,"[1, 2, 3, 4, 5, 6, 7, 8, 9, 10, 11, 12, 13, 14, 15, 16, 17, 18, 19, 20, 22, 23, 24, 25, 26, 27, 28, 29]",300,347,-1,2,73,8,0.0
undo,10,17,0,0,0,9,"[0, 9]",2,25,"[1, 2, 3, 5, 6, 7, 8, 10, 11, 12, 14, 15, 16, 17, 18, 19, 20, 22, 23, 24, 25, 26, 27, 28, 29]",210.5293344,2038,1691,1,34,8,1.0
undo,10,17,0,0,0,16,"[0, 9, 16]",3,21,"[1, 2, 3, 5, 7, 8, 10, 11, 12, 14, 17, 18, 19, 20, 22, 23, 25, 26, 27, 28, 29]",197.1876704,2602,564,1,26,8,1.173103464220352
undo,10,17,0,0,0,2,"[0, 9, 16, 2]",4,18,"[1, 3, 5, 7, 8, 10, 11, 12, 14, 17, 18, 19, 23, 25, 26, 27, 28, 29]",181.0631549,3006,404,1,23,8,1.14825089247282
undo,10,17,0,0,0,8,"[0, 9, 16, 2, 8]",5,9,"[3, 7, 10, 11, 12, 14, 17, 26, 27]",145.9490551,3620,614,1,9,8,1.1509808066472915
undo,10,17,0,0,0,7,"[0, 9, 16, 2, 8, 7]",6,3,"[10, 12, 27]",75.238377,4354,734,3,0,7,1.2222166608088694
undo,10,17,0,0,1,10,"[0, 9, 16, 2, 8, 7, 10]",7,0,[],1.211354911,5428,1074,1,0,7,1.6481269593422236
undo,10,17,0,1,1,10,"[0, 9, 16, 2, 8, 7, 10]",7,0,[],1.211354911,6246,818,1,0,7,1.6481269593422236
undo,11,26,0,0,0,0,[0],1,29,"[1, 2, 3, 4, 5, 6, 7, 8, 9, 10, 11, 12, 13, 14, 15, 16, 17, 18, 19, 20, 21, 22, 23, 24, 25, 26, 27, 28, 29]",300,313,-1,9,226,9,0.0
undo,11,26,0,0,0,16,"[0, 16]",2,17,"[3, 4, 5, 6, 10, 11, 12, 13, 14, 17, 18, 19, 21, 22, 23, 26, 29]",188.0535842,6376,6063,34,176,8,1.0
undo,11,26,0,0,0,29,"[0, 16, 29]",3,12,"[4, 5, 6, 10, 12, 13, 14, 17, 19, 21, 23, 26]",163.8461474,7540,1164,32,68,8,1.1142946124989752
undo,11,26,0,0,0,4,"[0, 16, 29, 4]",4,9,"[5, 6, 10, 12, 13, 14, 17, 21, 23]",139.8461474,8352,812,17,7,8,1.3213762371676339
undo,11,26,0,0,0,17,"[0, 16, 29, 4, 17]",5,5,"[6, 10, 14, 21, 23]",118.7511243,8840,488,6,0,8,1.2756100061290643
undo,11,26,0,0,0,14,"[0, 16, 29, 4, 17, 14]",6,2,"[6, 10]",96.27891921,9976,1136,2,0,8,1.264154039440982
undo,11,26,0,0,0,6,"[0, 16, 29, 4, 17, 14, 6]",7,1,[10],75.25512317,10378,402,1,0,8,1.3993089646092733
undo,11,26,0,0,1,10,"[0, 16, 29, 4, 17, 14, 6, 10]",8,0,[],45.98056083,10833,455,1,0,8,1.5697867669370302
undo,11,26,0,1,1,10,"[0, 16, 29, 4, 17, 14, 6, 10]",8,0,[],45.98056083,14113,3280,1,0,8,1.5697867669370302
undo,12,36,0,0,0,0,[0],1,24,"[2, 4, 5, 6, 7, 8, 9, 10, 12, 13, 14, 15, 16, 17, 18, 19, 20, 22, 23, 25, 26, 27, 28, 29]",300,313,-1,2,200,10,0.0
undo,12,36,0,0,0,18,"[0, 18]",2,21,"[2, 4, 5, 6, 7, 8, 9, 10, 12, 13, 14, 16, 17, 19, 22, 23, 25, 26, 27, 28, 29]",279.6039219,2154,1841,2,110,10,1.0
undo,12,36,0,0,0,16,"[0, 18, 16]",3,9,"[2, 9, 10, 12, 13, 17, 19, 23, 25]",169.581197,3136,982,4,33,9,1.2218591943452424
undo,12,36,0,0,0,17,"[0, 18, 16, 17]",4,7,"[2, 9, 10, 12, 13, 19, 25]",141.2615925,3790,654,4,21,9,1.6795129314662942
undo,12,36,0,0,0,9,"[0, 18, 16, 17, 9]",5,5,"[2, 12, 13, 19, 25]",115.012783,4967,1177,3,6,9,2.6784437443596194
undo,12,36,0,0,0,19,"[0, 18, 16, 17, 9, 19]",6,4,"[2, 12, 13, 25]",99.88003706,5501,534,3,3,9,2.5963344600994773
undo,12,36,0,0,0,2,"[0, 18, 16, 17, 9, 19, 2]",7,2,"[13, 25]",62.75861467,6044,543,2,0,9,2.100797884988348
undo,12,36,0,0,0,25,"[0, 18, 16, 17, 9, 19, 2, 25]",8,1,[13],37.75861467,6901,857,1,0,9,2.290514334927331
undo,12,36,0,0,1,13,"[0, 18, 16, 17, 9, 19, 2, 25, 13]",9,0,[],17.16735439,7835,934,1,0,9,2.883646365994176
undo,12,36,0,1,1,13,"[0, 18, 16, 17, 9, 19, 2, 25, 13]",9,0,[],17.16735439,9930,2095,1,0,9,2.883646365994176
undo,13,34,0,0,0,0,[0],1,25,"[1, 3, 4, 5, 6, 7, 8, 9, 10, 11, 12, 13, 15, 18, 19, 20, 21, 22, 23, 24, 25, 26, 27, 28, 29]",300,347,-1,12,367,10,0.0
undo,13,34,0,0,0,13,"[0, 13]",2,24,"[1, 3, 4, 5, 6, 7, 8, 9, 10, 11, 12, 15, 18, 19, 20, 21, 22, 23, 24, 25, 26, 27, 28, 29]",279.9750156,6792,6445,12,331,10,1.0
undo,13,34,0,0,0,1,"[0, 13, 1]",3,16,"[3, 5, 7, 8, 9, 10, 11, 12, 19, 21, 22, 23, 24, 25, 27, 29]",211.8574701,7546,754,3,92,10,1.0010381285747127
undo,13,34,0,0,0,8,"[0, 13, 1, 8]",4,14,"[3, 5, 7, 9, 10, 11, 12, 19, 22, 23, 24, 25, 27, 29]",201.0871405,7910,364,2,54,10,1.1636807
undo,13,34,0,0,0,25,"[0, 13, 1, 8, 25]",5,12,"[3, 5, 7, 9, 10, 11, 12, 22, 23, 24, 27, 29]",183.999133,8908,998,2,28,10,1.1396208815936457
undo,13,34,0,0,0,24,"[0, 13, 1, 8, 25, 24]",6,11,"[3, 5, 7, 9, 10, 11, 12, 22, 23, 27, 29]",166.5062774,9185,277,2,23,10,1.374180768736554
undo,13,34,0,0,0,12,"[0, 13, 1, 8, 25, 24, 12]",7,7,"[7, 9, 10, 11, 22, 23, 27]",115.4670767,10476,1291,1,8,10,1.4994254760835948
undo,13,34,0,0,0,7,"[0, 13, 1, 8, 25, 24, 12, 7]",8,5,"[9, 11, 22, 23, 27]",100.4337804,11172,696,1,4,10,1.758992610425009
undo,13,34,0,0,0,23,"[0, 13, 1, 8, 25, 24, 12, 7, 23]",9,1,[27],72.27352467,11934,762,1,0,10,2.399781305190153
undo,13,34,0,0,1,27,"[0, 13, 1, 8, 25, 24, 12, 7, 23, 27]",10,0,[],18.60789321,13252,1318,1,0,10,4.766619878750327
undo,13,34,0,1,1,27,"[0, 13, 1, 8, 25, 24, 12, 7, 23, 27]",10,0,[],18.60789321,14248,996,1,0,10,4.766619878750327
undo,14,2,0,0,0,0,[0],1,23,"[1, 2, 4, 5, 6, 7, 8, 9, 12, 13, 15, 16, 17, 18, 19, 20, 22, 23, 25, 26, 27, 28, 29]",300,313,-1,70,620,10,0.0
undo,14,2,0,0,0,19,"[0, 19]",2,22,"[1, 2, 4, 5, 6, 7, 8, 9, 12, 13, 15, 16, 17, 18, 20, 22, 23, 25, 26, 27, 28, 29]",210.306076,1869,1556,67,431,10,1.0
undo,14,2,0,0,0,12,"[0, 19, 12]",3,17,"[1, 4, 5, 6, 7, 13, 15, 16, 17, 18, 20, 22, 25, 26, 27, 28, 29]",174.2921898,2484,615,66,298,10,1.1107635036313153
undo,14,2,0,0,0,5,"[0, 19, 12, 5]",4,11,"[1, 6, 7, 13, 15, 16, 18, 22, 25, 26, 29]",144.7625437,3377,893,38,136,10,1.0968174771581647
undo,14,2,0,0,0,22,"[0, 19, 12, 5, 22]",5,8,"[1, 6, 7, 13, 15, 18, 26, 29]",131.9562952,3883,506,20,63,10,1.0889910507461968
undo,14,2,0,0,0,13,"[0, 19, 12, 5, 22, 13]",6,7,"[1, 6, 7, 15, 18, 26, 29]",117.0902265,4216,333,19,20,10,1.236526217328057
undo,14,2,0,0,0,18,"[0, 19, 12, 5, 22, 13, 18]",7,4,"[7, 15, 26, 29]",81.91921567,5089,873,10,3,10,1.2128708213409936
undo,14,2,0,0,0,7,"[0, 19, 12, 5, 22, 13, 18, 7]",8,3,"[15, 26, 29]",71.62358553,5517,428,5,0,10,1.2019811287894737
undo,14,2,0,0,0,26,"[0, 19, 12, 5, 22, 13, 18, 7, 26]",9,2,"[15, 29]",48.82007703,6057,540,2,0,10,1.1883593342191134
undo,14,2,0,0,1,15,"[0, 19, 12, 5, 22, 13, 18, 7, 26, 15]",10,0,[],24.61264015,6459,402,1,0,10,1.4619750353663825
undo,14,2,0,1,1,15,"[0, 19, 12, 5, 22, 13, 18, 7, 26, 15]",10,0,[],24.61264015,8179,1720,1,0,10,1.4619750353663825
undo,15,45,0,0,0,0,[0],1,24,"[1, 2, 3, 4, 5, 6, 7, 9, 10, 11, 12, 14, 15, 16, 17, 19, 20, 21, 22, 23, 24, 25, 27, 29]",300,331,-1,6,248,10,0.0
undo,15,45,0,0,0,15,"[0, 15]",2,23,"[1, 2, 3, 4, 5, 6, 7, 9, 10, 11, 12, 14, 16, 17, 19, 20, 21, 22, 23, 24, 25, 27, 29]",253.9022777,2279,1948,5,207,10,1.0
undo,15,45,0,0,0,23,"[0, 15, 23]",3,22,"[1, 2, 3, 4, 5, 6, 7, 9, 10, 11, 12, 14, 16, 17, 19, 20, 21, 22, 24, 25, 27, 29]",230.3014303,3125,846,5,163,10,1.0006068457769497
undo,15,45,0,0,0,20,"[0, 15, 23, 20]",4,19,"[1, 2, 3, 5, 6, 7, 9, 10, 11, 12, 14, 16, 17, 19, 21, 22, 24, 25, 29]",188.8647316,4804,1679,5,137,10,1.2062119754673604
undo,15,45,0,0,0,7,"[0, 15, 23, 20, 7]",5,14,"[2, 3, 5, 6, 9, 10, 12, 14, 17, 19, 21, 22, 24, 29]",137.2410936,5758,954,3,38,10,1.2267717168083891
undo,15,45,0,0,0,2,"[0, 15, 23, 20, 7, 2]",6,8,"[3, 6, 10, 12, 19, 22, 24, 29]",99.22793795,6492,734,3,20,10,1.1978549169009853
undo,15,45,0,0,0,3,"[0, 15, 23, 20, 7, 2, 3]",7,5,"[6, 10, 12, 22, 29]",73.90996014,7195,703,2,7,10,1.2603420042999722
undo,15,45,0,0,0,29,"[0, 15, 23, 20, 7, 2, 3, 29]",8,3,"[6, 10, 12]",53.90996014,8153,958,2,1,10,1.527949676112761
undo,15,45,0,0,0,10,"[0, 15, 23, 20, 7, 2, 3, 29, 10]",9,1,[6],32.36930092,8552,399,1,0,10,1.8188082660591487
undo,15,45,0,0,1,6,"[0, 15, 23, 20, 7, 2, 3, 29, 10, 6]",10,0,[],6.120491419,9419,867,1,0,10,1.7062675391073039
undo,15,45,0,1,1,6,"[0, 15, 23, 20, 7, 2, 3, 29, 10, 6]",10,0,[],6.120491419,10148,729,1,0,10,1.7062675391073039
undo,16,33,0,0,0,0,[0],1,23,"[1, 2, 5, 7, 8, 11, 12, 13, 14, 15, 16, 17, 18, 19, 20, 21, 23, 24, 25, 26, 27, 28, 29]",300,347,-1,5,108,9,0.0
undo,16,33,0,0,0,8,"[0, 8]",2,22,"[1, 2, 5, 7, 11, 12, 13, 14, 15, 16, 17, 18, 19, 20, 21, 23, 24, 25, 26, 27, 28, 29]",265.8679037,3506,3159,5,87,9,1.0
undo,16,33,0,0,0,21,"[0, 8, 21]",3,16,"[2, 5, 7, 11, 13, 14, 16, 17, 18, 19, 20, 24, 26, 27, 28, 29]",166.0430571,4569,1063,5,80,9,1.0670557763739492
undo,16,33,0,0,0,17,"[0, 8, 21, 17]",4,11,"[2, 7, 11, 13, 14, 16, 19, 20, 24, 26, 29]",127.4036989,5663,1094,1,18,9,1.0830294710276618
undo,16,33,0,0,0,13,"[0, 8, 21, 17, 13]",5,10,"[2, 7, 11, 14, 16, 19, 20, 24, 26, 29]",104.6001904,6075,412,1,10,9,1.2861654105061844
undo,16,33,0,0,0,19,"[0, 8, 21, 17, 13, 19]",6,6,"[7, 14, 16, 24, 26, 29]",79.10509282,6740,665,1,6,9,1.3181942666818214
undo,16,33,0,0,0,24,"[0, 8, 21, 17, 13, 19, 24]",7,1,[7],37.05750074,7484,744,1,0,8,1.2914654832859356
undo,16,33,0,0,1,7,"[0, 8, 21, 17, 13, 19, 24, 7]",8,0,[],7.851337003,8552,1068,1,0,8,1.370940443464748
undo,16,33,1,0,0,24,"[0, 8, 21, 17, 13, 19, 24]",7,1,[7],37.05750074,12480,3928,1,0,8,1.2914654832859356
undo,16,33,1,0,0,19,"[0, 8, 21, 17, 13, 19]",6,6,"[7, 14, 16, 24, 26, 29]",79.10509282,12664,184,1,6,9,1.3181942666818214
undo,16,33,1,0,0,13,"[0, 8, 21, 17, 13]",5,10,"[2, 7, 11, 14, 16, 19, 20, 24, 26, 29]",104.6001904,12863,199,1,10,9,1.2861654105061844
undo,16,33,1,0,0,17,"[0, 8, 21, 17]",4,11,"[2, 7, 11, 13, 14, 16, 19, 20, 24, 26, 29]",127.4036989,13029,166,1,18,9,1.0830294710276618
undo,16,33,1,0,0,21,"[0, 8, 21]",3,16,"[2, 5, 7, 11, 13, 14, 16, 17, 18, 19, 20, 24, 26, 27, 28, 29]",166.0430571,13229,200,5,80,9,1.0670557763739492
undo,16,33,0,0,0,13,"[0, 8, 21, 13]",4,12,"[2, 7, 11, 14, 16, 17, 18, 19, 20, 24, 26, 29]",139.6422995,14002,773,4,54,9,1.0555103820910288
undo,16,33,0,0,0,19,"[0, 8, 21, 13, 19]",5,10,"[7, 11, 14, 16, 17, 18, 20, 24, 26, 29]",114.1472019,14417,415,3,19,9,1.1090798607799486
undo,16,33,0,0,0,24,"[0, 8, 21, 13, 19, 24]",6,6,"[7, 14, 16, 18, 26, 29]",72.09960985,15169,752,2,3,9,1.1193530461391534
undo,16,33,0,0,0,7,"[0, 8, 21, 13, 19, 24, 7]",7,2,"[14, 26]",42.89344611,15751,582,2,0,9,1.2065014071663551
undo,16,33,0,0,0,14,"[0, 8, 21, 13, 19, 24, 7, 14]",8,1,[26],28.02737737,16072,321,1,0,9,1.2536495746979057
undo,16,33,0,0,1,26,"[0, 8, 21, 13, 19, 24, 7, 14, 26]",9,0,[],15.37826672,16447,375,1,0,9,1.2580465331304596
undo,16,33,0,1,1,26,"[0, 8, 21, 13, 19, 24, 7, 14, 26]",9,0,[],15.37826672,131059,114612,1,0,9,1.2580465331304596
undo,17,22,0,0,0,0,[0],1,29,"[1, 2, 3, 4, 5, 6, 7, 8, 9, 10, 11, 12, 13, 14, 15, 16, 17, 18, 19, 20, 21, 22, 23, 24, 25, 26, 27, 28, 29]",300,329,-1,31,704,9,0.0
undo,17,22,0,0,0,13,"[0, 13]",2,22,"[1, 3, 5, 6, 7, 8, 9, 10, 12, 14, 15, 16, 17, 19, 20, 21, 23, 24, 25, 26, 28, 29]",189.3202819,2349,2020,2,52,8,1.0
undo,17,22,0,0,0,15,"[0, 13, 15]",3,17,"[1, 3, 5, 6, 7, 8, 9, 10, 14, 17, 19, 20, 21, 23, 24, 26, 29]",173.7639327,3339,990,2,40,8,1.001747361505262
undo,17,22,0,0,0,8,"[0, 13, 15, 8]",4,12,"[1, 3, 5, 10, 17, 19, 20, 21, 23, 24, 26, 29]",146.5609917,4393,1054,1,14,8,1.009379786590907
undo,17,22,0,0,0,23,"[0, 13, 15, 8, 23]",5,7,"[1, 3, 5, 10, 20, 21, 24]",113.3194514,5627,1234,4,5,7,1.0105022544955353
undo,17,22,0,0,0,20,"[0, 13, 15, 8, 23, 20]",6,2,"[3, 24]",42.91348576,6411,784,2,0,7,1.7719572736852243
undo,17,22,0,0,1,3,"[0, 13, 15, 8, 23, 20, 3]",7,0,[],10.66445476,7048,637,1,0,7,1.6978078216716772
undo,17,22,1,0,0,20,"[0, 13, 15, 8, 23, 20]",6,2,"[3, 24]",42.91348576,9145,2097,2,0,7,1.7719572736852243
undo,17,22,1,0,0,23,"[0, 13, 15, 8, 23]",5,7,"[1, 3, 5, 10, 20, 21, 24]",113.3194514,9828,683,4,5,7,1.0105022544955353
undo,17,22,1,0,0,8,"[0, 13, 15, 8]",4,12,"[1, 3, 5, 10, 17, 19, 20, 21, 23, 24, 26, 29]",146.5609917,10011,183,1,14,8,1.009379786590907
undo,17,22,1,0,0,15,"[0, 13, 15]",3,17,"[1, 3, 5, 6, 7, 8, 9, 10, 14, 17, 19, 20, 21, 23, 24, 26, 29]",173.7639327,10278,267,2,40,8,1.001747361505262
undo,17,22,1,0,0,13,"[0, 13]",2,22,"[1, 3, 5, 6, 7, 8, 9, 10, 12, 14, 15, 16, 17, 19, 20, 21, 23, 24, 25, 26, 28, 29]",189.3202819,10445,167,2,52,8,1.0
undo,17,22,1,0,0,0,[0],1,29,"[1, 2, 3, 4, 5, 6, 7, 8, 9, 10, 11, 12, 13, 14, 15, 16, 17, 18, 19, 20, 21, 22, 23, 24, 25, 26, 27, 28, 29]",300,10711,266,31,704,9,0.0
undo,17,22,0,0,0,16,"[0, 16]",2,21,"[1, 3, 6, 7, 8, 9, 11, 13, 14, 15, 17, 18, 19, 20, 21, 22, 24, 25, 27, 28, 29]",218.605897,11769,1058,17,147,9,1.0
undo,17,22,0,0,0,28,"[0, 16, 28]",3,13,"[6, 7, 9, 13, 14, 17, 19, 20, 21, 22, 24, 25, 29]",184.1675463,12401,632,12,61,9,1.047282311284478
undo,17,22,0,0,0,6,"[0, 16, 28, 6]",4,12,"[7, 9, 13, 14, 17, 19, 20, 21, 22, 24, 25, 29]",154.1675463,12815,414,12,43,9,1.645645870580622
undo,17,22,0,0,0,9,"[0, 16, 28, 6, 9]",5,8,"[7, 14, 17, 19, 20, 21, 24, 29]",127.5404924,13257,442,8,17,9,1.925750226630103
undo,17,22,0,0,0,19,"[0, 16, 28, 6, 9, 19]",6,6,"[7, 14, 17, 21, 24, 29]",107.1444143,13718,461,3,7,9,2.4220750331476455
undo,17,22,0,0,0,29,"[0, 16, 28, 6, 9, 19, 29]",7,4,"[7, 14, 17, 24]",92.11111796,14053,335,2,2,9,2.6996279574991067
undo,17,22,0,0,0,7,"[0, 16, 28, 6, 9, 19, 29, 7]",8,1,[14],41.0327468,14937,884,1,0,9,2.059125386946491
undo,17,22,0,0,1,14,"[0, 16, 28, 6, 9, 19, 29, 7, 14]",9,0,[],27.99434199,15158,221,1,0,9,2.0997569104205307
undo,17,22,0,1,1,14,"[0, 16, 28, 6, 9, 19, 29, 7, 14]",9,0,[],27.99434199,16394,1236,1,0,9,2.0997569104205307
undo,18,0,0,0,0,0,[0],1,27,"[2, 3, 4, 5, 6, 7, 8, 9, 10, 11, 12, 13, 14, 15, 16, 17, 19, 20, 21, 22, 23, 24, 25, 26, 27, 28, 29]",300,346,-1,104,1136,9,0.0
undo,18,0,0,0,0,28,"[0, 28]",2,26,"[2, 3, 4, 5, 6, 7, 8, 9, 10, 11, 12, 13, 14, 15, 16, 17, 19, 20, 21, 22, 23, 24, 25, 26, 27, 29]",194.9190788,2728,2382,39,388,9,1.0
undo,18,0,0,0,0,5,"[0, 28, 5]",3,21,"[2, 3, 4, 7, 8, 9, 11, 12, 13, 14, 15, 16, 17, 19, 20, 21, 23, 24, 25, 26, 29]",151.2613189,4124,1396,27,210,9,1.0978295127671733
undo,18,0,0,0,0,4,"[0, 28, 5, 4]",4,16,"[3, 7, 8, 9, 11, 12, 13, 14, 15, 17, 19, 20, 21, 23, 24, 26]",126.1814465,6068,1944,17,114,9,1.1103727063761901
undo,18,0,0,0,0,26,"[0, 28, 5, 4, 26]",5,14,"[3, 7, 8, 9, 11, 12, 13, 14, 15, 17, 19, 20, 23, 24]",114.1398519,6488,420,7,54,9,1.1504454351688815
undo,18,0,0,0,0,24,"[0, 28, 5, 4, 26, 24]",6,11,"[3, 7, 8, 9, 11, 12, 15, 17, 19, 20, 23]",97.02260914,7072,584,7,22,9,1.2166555899566422
undo,18,0,0,0,0,15,"[0, 28, 5, 4, 26, 24, 15]",7,7,"[3, 7, 8, 9, 11, 12, 17]",73.67737408,7740,668,4,5,9,1.1972898774231708
undo,18,0,0,0,0,7,"[0, 28, 5, 4, 26, 24, 15, 7]",8,2,"[3, 8]",42.61292495,8517,777,2,0,9,1.2554869594545575
undo,18,0,0,0,1,8,"[0, 28, 5, 4, 26, 24, 15, 7, 8]",9,0,[],23.50795177,9016,499,1,0,9,1.2428648875079442
undo,18,0,0,1,1,8,"[0, 28, 5, 4, 26, 24, 15, 7, 8]",9,0,[],23.50795177,10545,1529,1,0,9,1.2428648875079442
undo,19,32,0,0,0,0,[0],1,29,"[1, 2, 3, 4, 5, 6, 7, 8, 9, 10, 11, 12, 13, 14, 15, 16, 17, 18, 19, 20, 21, 22, 23, 24, 25, 26, 27, 28, 29]",300,349,-1,17,359,10,0.0
undo,19,32,0,0,0,15,"[0, 15]",2,24,"[2, 3, 4, 5, 6, 7, 8, 9, 10, 11, 12, 13, 14, 16, 17, 19, 20, 22, 23, 24, 25, 26, 27, 28]",214.6185032,1874,1525,11,153,9,1.0
undo,19,32,0,0,0,28,"[0, 15, 28]",3,21,"[2, 3, 5, 7, 8, 9, 10, 11, 12, 13, 14, 16, 17, 19, 20, 22, 23, 24, 25, 26, 27]",203.2167489,2226,352,11,119,9,1.000160051986942
undo,19,32,0,0,0,12,"[0, 15, 28, 12]",4,19,"[2, 3, 5, 7, 8, 9, 10, 11, 13, 16, 17, 19, 20, 22, 23, 24, 25, 26, 27]",184.243083,2734,508,8,71,9,1.0281484763748023
undo,19,32,0,0,0,16,"[0, 15, 28, 12, 16]",5,17,"[2, 3, 5, 7, 8, 9, 10, 11, 13, 17, 19, 20, 22, 23, 24, 26, 27]",168.5906071,3074,340,6,38,9,1.1190771370096
undo,19,32,0,0,0,22,"[0, 15, 28, 12, 16, 22]",6,10,"[2, 3, 5, 8, 9, 10, 11, 17, 20, 27]",134.7527585,3738,664,4,16,9,1.1702311155319893
undo,19,32,0,0,0,9,"[0, 15, 28, 12, 16, 22, 9]",7,6,"[2, 8, 10, 17, 20, 27]",112.5491552,5006,1268,2,4,9,1.2381424719932013
undo,19,32,0,0,0,2,"[0, 15, 28, 12, 16, 22, 9, 2]",8,1,[17],61.46099608,6652,1646,1,0,9,1.6446273109221003
undo,19,32,0,0,1,17,"[0, 15, 28, 12, 16, 22, 9, 2, 17]",9,0,[],21.64893761,7336,684,1,0,9,2.46318728800517
undo,19,32,0,1,1,17,"[0, 15, 28, 12, 16, 22, 9, 2, 17]",9,0,[],21.64893761,8446,1110,1,0,9,2.46318728800517
undo,20,43,0,0,0,0,[0],1,23,"[1, 2, 3, 4, 5, 6, 7, 9, 10, 11, 12, 14, 15, 16, 17, 19, 20, 21, 22, 23, 25, 27, 29]",300,330,-1,16,556,12,0.0
undo,20,43,0,0,0,29,"[0, 29]",2,22,"[1, 2, 3, 4, 5, 6, 7, 9, 10, 11, 12, 14, 15, 16, 17, 19, 20, 21, 22, 23, 25, 27]",277.909278,1604,1274,16,520,12,1.0
undo,20,43,0,0,0,20,"[0, 29, 20]",3,20,"[1, 2, 3, 4, 6, 7, 9, 10, 11, 12, 14, 15, 16, 17, 19, 21, 22, 23, 25, 27]",254.4785289,2068,464,15,422,12,1.082311746871282
undo,20,43,0,0,0,16,"[0, 29, 20, 16]",4,19,"[1, 2, 3, 4, 6, 7, 9, 10, 11, 12, 14, 15, 17, 19, 21, 22, 23, 25, 27]",231.8511119,3286,1218,15,389,12,1.215201926898219
undo,20,43,0,0,0,15,"[0, 29, 20, 16, 15]",5,14,"[1, 2, 3, 4, 6, 7, 9, 11, 12, 14, 19, 22, 23, 25]",188.5267539,4301,1015,3,109,12,1.3482474915350444
undo,20,43,0,0,0,25,"[0, 29, 20, 16, 15, 25]",6,12,"[1, 3, 4, 6, 7, 9, 11, 12, 14, 19, 22, 23]",165.8551858,4886,585,2,43,12,1.691408721191545
undo,20,43,0,0,0,12,"[0, 29, 20, 16, 15, 25, 12]",7,11,"[1, 3, 4, 6, 7, 9, 11, 14, 19, 22, 23]",141.6684126,5536,650,2,32,12,1.6015983641428178
undo,20,43,0,0,0,3,"[0, 29, 20, 16, 15, 25, 12, 3]",8,10,"[1, 4, 6, 7, 9, 11, 14, 19, 22, 23]",128.6684126,6000,464,2,24,12,1.5379830456120627
undo,20,43,0,0,0,22,"[0, 29, 20, 16, 15, 25, 12, 3, 22]",9,6,"[1, 6, 7, 11, 14, 19]",93.95530264,6852,852,1,11,12,1.7275686117408873
undo,20,43,0,0,0,19,"[0, 29, 20, 16, 15, 25, 12, 3, 22, 19]",10,4,"[1, 6, 7, 11]",73.33977451,8206,1354,1,3,12,1.6315360037595275
undo,20,43,0,0,0,1,"[0, 29, 20, 16, 15, 25, 12, 3, 22, 19, 1]",11,1,[7],45.1617689,8858,652,1,0,12,1.7703076545303877
undo,20,43,0,0,1,7,"[0, 29, 20, 16, 15, 25, 12, 3, 22, 19, 1, 7]",12,0,[],6.951822553,13588,4730,1,0,12,1.6607094905815594
undo,20,43,0,1,1,7,"[0, 29, 20, 16, 15, 25, 12, 3, 22, 19, 1, 7]",12,0,[],6.951822553,16029,2441,1,0,12,1.6607094905815594
undo,21,18,0,0,0,0,[0],1,28,"[1, 2, 3, 4, 5, 6, 7, 8, 9, 10, 11, 12, 13, 14, 16, 17, 18, 19, 20, 21, 22, 23, 24, 25, 26, 27, 28, 29]",300,329,-1,3,136,10,0.0
undo,21,18,0,0,0,28,"[0, 28]",2,16,"[1, 3, 5, 7, 8, 9, 12, 13, 14, 16, 20, 23, 24, 25, 26, 27]",236.4311397,2550,2221,2,19,10,1.0
undo,21,18,0,0,0,7,"[0, 28, 7]",3,15,"[1, 3, 5, 8, 9, 12, 13, 14, 16, 20, 23, 24, 25, 26, 27]",214.4084242,3016,466,2,17,10,1.4345180696367563
undo,21,18,0,0,0,25,"[0, 28, 7, 25]",4,13,"[1, 3, 5, 8, 9, 12, 13, 14, 16, 20, 23, 26, 27]",186.6055466,3433,417,2,15,10,1.8896451241781882
undo,21,18,0,0,0,8,"[0, 28, 7, 25, 8]",5,10,"[3, 5, 9, 12, 13, 14, 16, 23, 26, 27]",149.551532,4074,641,2,10,10,1.590467437592877
undo,21,18,0,0,0,3,"[0, 28, 7, 25, 8, 3]",6,6,"[5, 12, 13, 14, 23, 27]",121.4801943,4726,652,1,10,9,1.4587755974793148
undo,21,18,0,0,0,14,"[0, 28, 7, 25, 8, 3, 14]",7,4,"[5, 12, 13, 27]",91.39697637,5340,614,4,0,8,1.8606737724243565
undo,21,18,0,0,1,13,"[0, 28, 7, 25, 8, 3, 14, 13]",8,0,[],72.42331041,6250,910,1,0,8,2.4208916262893254
undo,21,18,0,1,1,13,"[0, 28, 7, 25, 8, 3, 14, 13]",8,0,[],72.42331041,9279,3029,1,0,8,2.4208916262893254
undo,22,10,0,0,0,0,[0],1,29,"[1, 2, 3, 4, 5, 6, 7, 8, 9, 10, 11, 12, 13, 14, 15, 16, 17, 18, 19, 20, 21, 22, 23, 24, 25, 26, 27, 28, 29]",300,347,-1,1,100,9,0.0
undo,22,10,0,0,0,13,"[0, 13]",2,25,"[1, 2, 3, 4, 6, 7, 8, 9, 10, 11, 12, 14, 17, 18, 19, 20, 21, 22, 23, 24, 25, 26, 27, 28, 29]",249.4628849,1384,1037,1,79,9,1.0
undo,22,10,0,0,0,11,"[0, 13, 11]",3,20,"[1, 2, 3, 6, 7, 8, 9, 10, 12, 14, 18, 19, 20, 21, 22, 24, 26, 27, 28, 29]",206.4512586,6188,4804,1,54,9,1.0313137484914219
undo,22,10,0,0,0,19,"[0, 13, 11, 19]",4,11,"[2, 6, 8, 9, 10, 14, 18, 20, 24, 26, 27]",170.0919407,6862,674,1,22,9,1.0879446220132545
undo,22,10,0,0,0,2,"[0, 13, 11, 19, 2]",5,4,"[14, 20, 26, 27]",126.1829439,7554,692,1,4,9,1.06474052351343
undo,22,10,0,0,0,14,"[0, 13, 11, 19, 2, 14]",6,3,"[20, 26, 27]",114.0174188,8100,546,1,3,9,1.1628909195912238
undo,22,10,0,0,0,26,"[0, 13, 11, 19, 2, 14, 26]",7,2,"[20, 27]",79.34754716,8851,751,1,1,9,1.6660727647633602
undo,22,10,0,0,0,20,"[0, 13, 11, 19, 2, 14, 26, 20]",8,1,[27],47.56704999,9618,767,1,0,9,2.085581809637999
undo,22,10,0,0,1,27,"[0, 13, 11, 19, 2, 14, 26, 20, 27]",9,0,[],2.312215998,10818,1200,1,0,9,1.9116357409137932
undo,22,10,0,1,1,27,"[0, 13, 11, 19, 2, 14, 26, 20, 27]",9,0,[],2.312215998,11680,862,1,0,9,1.9116357409137932
basic,23,37,0,0,0,0,[0],1,29,"[1, 2, 3, 4, 5, 6, 7, 8, 9, 10, 11, 12, 13, 14, 15, 16, 17, 18, 19, 20, 21, 22, 23, 24, 25, 26, 27, 28, 29]",300,416,-1,6,168,10,0.0
basic,23,37,0,0,0,18,"[0, 18]",2,19,"[1, 2, 4, 6, 7, 9, 10, 12, 14, 15, 17, 19, 20, 21, 22, 23, 26, 28, 29]",202.4090168,3103,2687,6,89,10,1.0
basic,23,37,0,0,0,7,"[0, 18, 7]",3,12,"[1, 2, 4, 9, 15, 17, 19, 20, 21, 22, 26, 29]",175.2428614,3938,835,6,53,10,1.0413073512834488
basic,23,37,0,0,0,22,"[0, 18, 7, 22]",4,8,"[1, 2, 4, 15, 19, 20, 21, 26]",125.2428614,4757,819,6,29,10,1.0730792320325544
basic,23,37,0,0,0,4,"[0, 18, 7, 22, 4]",5,7,"[1, 2, 15, 19, 20, 21, 26]",100.2428614,5439,682,4,16,10,1.2290245562206235
basic,23,37,0,0,0,2,"[0, 18, 7, 22, 4, 2]",6,5,"[1, 15, 19, 20, 21]",88.84110714,5911,472,4,7,10,1.3968113858365216
basic,23,37,0,0,0,1,"[0, 18, 7, 22, 4, 2, 1]",7,4,"[15, 19, 20, 21]",71.63645661,6543,632,4,3,10,1.4424239294761476
basic,23,37,0,0,0,20,"[0, 18, 7, 22, 4, 2, 1, 20]",8,3,"[15, 19, 21]",37.40197107,7415,872,2,1,10,1.7518607796010042
basic,23,37,0,0,0,21,"[0, 18, 7, 22, 4, 2, 1, 20, 21]",9,1,[15],22.97976597,8027,612,1,0,10,1.7849997782949483
basic,23,37,0,0,1,15,"[0, 18, 7, 22, 4, 2, 1, 20, 21, 15]",10,0,[],7.979765971,9002,975,1,0,10,1.7549597142828803
basic,23,37,0,1,1,15,"[0, 18, 7, 22, 4, 2, 1, 20, 21, 15]",10,0,[],7.979765971,10132,1130,1,0,10,1.7549597142828803
basic,24,21,0,0,0,0,[0],1,29,"[1, 2, 3, 4, 5, 6, 7, 8, 9, 10, 11, 12, 13, 14, 15, 16, 17, 18, 19, 20, 21, 22, 23, 24, 25, 26, 27, 28, 29]",300,382,-1,84,830,9,0.0
basic,24,21,0,0,0,21,"[0, 21]",2,22,"[1, 3, 4, 6, 8, 9, 10, 11, 12, 14, 15, 16, 17, 18, 20, 22, 23, 24, 25, 26, 27, 29]",210.1111798,3985,3603,1,69,9,1.0
basic,24,21,0,0,0,14,"[0, 21, 14]",3,15,"[1, 4, 6, 8, 9, 15, 16, 17, 18, 20, 22, 23, 24, 25, 29]",184.4986828,4944,959,35,96,8,1.0083702391721483
basic,24,21,0,0,0,4,"[0, 21, 14, 4]",4,13,"[1, 8, 9, 15, 16, 17, 18, 20, 22, 23, 24, 25, 29]",170.3565472,5708,764,20,39,8,1.0135821167776475
basic,24,21,0,0,0,23,"[0, 21, 14, 4, 23]",5,10,"[8, 15, 16, 17, 18, 20, 22, 24, 25, 29]",134.2317635,6492,784,14,14,8,1.6740850510094318
basic,24,21,0,0,0,25,"[0, 21, 14, 4, 23, 25]",6,5,"[17, 18, 20, 22, 29]",90.90740543,7446,954,5,3,8,3.4955738644324623
basic,24,21,0,0,0,29,"[0, 21, 14, 4, 23, 25, 29]",7,2,"[18, 22]",45.68572921,8240,794,2,0,8,3.001920993979745
basic,24,21,0,0,1,18,"[0, 21, 14, 4, 23, 25, 29, 18]",8,0,[],17.03263165,8785,545,1,0,8,4.789869070924309
basic,24,21,0,1,1,18,"[0, 21, 14, 4, 23, 25, 29, 18]",8,0,[],17.03263165,9864,1079,1,0,8,4.789869070924309
basic,25,28,0,0,0,0,[0],1,27,"[1, 2, 3, 4, 5, 6, 7, 8, 9, 10, 11, 12, 13, 14, 15, 16, 17, 18, 19, 20, 22, 23, 25, 26, 27, 28, 29]",300,348,-1,2,96,9,0.0
basic,25,28,0,0,0,3,"[0, 3]",2,26,"[1, 2, 4, 5, 6, 7, 8, 9, 10, 11, 12, 13, 14, 15, 16, 17, 18, 19, 20, 22, 23, 25, 26, 27, 28, 29]",251.0817008,2121,1773,1,64,9,1.0
basic,25,28,0,0,0,5,"[0, 3, 5]",3,20,"[2, 4, 6, 7, 8, 9, 10, 11, 12, 13, 14, 15, 18, 19, 20, 23, 25, 26, 28, 29]",166.9865166,3713,1592,1,34,9,1.0203769473612083
basic,25,28,0,0,0,26,"[0, 3, 5, 26]",4,13,"[2, 4, 7, 8, 9, 12, 13, 14, 18, 19, 20, 25, 28]",134.2298379,4375,662,1,28,9,1.0315203228799597
basic,25,28,0,0,0,19,"[0, 3, 5, 26, 19]",5,7,"[2, 7, 9, 12, 13, 14, 18]",93.22983789,4977,602,1,17,9,1.1324645362297356
basic,25,28,0,0,0,7,"[0, 3, 5, 26, 19, 7]",6,5,"[2, 12, 13, 14, 18]",65.49898864,5779,802,1,6,9,1.1971194919020265
basic,25,28,0,0,0,12,"[0, 3, 5, 26, 19, 7, 12]",7,2,"[13, 18]",52.3460422,6171,392,1,1,9,1.2020762147848982
basic,25,28,0,0,0,13,"[0, 3, 5, 26, 19, 7, 12, 13]",8,1,[18],35.14139167,6553,382,1,0,9,1.39005144078531
basic,25,28,0,0,1,18,"[0, 3, 5, 26, 19, 7, 12, 13, 18]",9,0,[],10.72828044,7168,615,1,0,9,1.738787343626007
basic,25,28,0,1,1,18,"[0, 3, 5, 26, 19, 7, 12, 13, 18]",9,0,[],10.72828044,8297,1129,1,0,9,1.738787343626007
basic,26,25,0,0,0,0,[0],1,28,"[1, 2, 3, 4, 5, 7, 8, 9, 10, 11, 12, 13, 14, 15, 16, 17, 18, 19, 20, 21, 22, 23, 24, 25, 26, 27, 28, 29]",300,334,-1,5,94,10,0.0
basic,26,25,0,0,0,23,"[0, 23]",2,23,"[1, 2, 3, 5, 7, 8, 9, 11, 12, 13, 14, 16, 17, 19, 20, 21, 22, 24, 25, 26, 27, 28, 29]",259.7756293,1593,1259,3,33,10,1.0
basic,26,25,0,0,0,19,"[0, 23, 19]",3,21,"[1, 2, 3, 5, 7, 8, 9, 11, 12, 13, 14, 16, 17, 20, 21, 22, 24, 25, 27, 28, 29]",223.9287326,2225,632,3,24,10,1.583101227007039
basic,26,25,0,0,0,29,"[0, 23, 19, 29]",4,19,"[1, 2, 3, 5, 7, 8, 9, 11, 12, 13, 14, 16, 17, 20, 21, 22, 24, 25, 28]",207.649912,2808,583,3,17,10,1.474631541426484
basic,26,25,0,0,0,22,"[0, 23, 19, 29, 22]",5,18,"[1, 2, 3, 5, 7, 8, 9, 11, 12, 13, 14, 16, 17, 20, 21, 24, 25, 28]",191.5253965,3184,376,3,14,10,1.4020377754906637
basic,26,25,0,0,0,7,"[0, 23, 19, 29, 22, 7]",6,7,"[3, 8, 9, 11, 13, 24, 28]",115.8814939,3968,784,3,11,10,1.5709678649326715
basic,26,25,0,0,0,24,"[0, 23, 19, 29, 22, 7, 24]",7,5,"[3, 8, 9, 13, 28]",91.12265712,5038,1070,3,7,10,1.486191600033379
basic,26,25,0,0,0,9,"[0, 23, 19, 29, 22, 7, 24, 9]",8,4,"[3, 8, 13, 28]",73.09490075,5453,415,3,3,10,1.453504870342882
basic,26,25,0,0,0,3,"[0, 23, 19, 29, 22, 7, 24, 9, 3]",9,3,"[8, 13, 28]",42.82940885,6094,641,3,0,10,1.388955167525479
basic,26,25,0,0,1,28,"[0, 23, 19, 29, 22, 7, 24, 9, 3, 28]",10,0,[],11.52445716,7368,1274,1,0,10,1.3331084120212044
basic,26,25,0,1,1,28,"[0, 23, 19, 29, 22, 7, 24, 9, 3, 28]",10,0,[],11.52445716,8013,645,1,0,10,1.3331084120212044
basic,27,32,0,0,0,0,[0],1,29,"[1, 2, 3, 4, 5, 6, 7, 8, 9, 10, 11, 12, 13, 14, 15, 16, 17, 18, 19, 20, 21, 22, 23, 24, 25, 26, 27, 28, 29]",300,348,-1,17,359,10,0.0
basic,27,32,0,0,0,15,"[0, 15]",2,24,"[2, 3, 4, 5, 6, 7, 8, 9, 10, 11, 12, 13, 14, 16, 17, 19, 20, 22, 23, 24, 25, 26, 27, 28]",214.6185032,1725,1377,11,153,9,1.0
basic,27,32,0,0,0,28,"[0, 15, 28]",3,21,"[2, 3, 5, 7, 8, 9, 10, 11, 12, 13, 14, 16, 17, 19, 20, 22, 23, 24, 25, 26, 27]",203.2167489,2189,464,11,119,9,1.000160051986942
basic,27,32,0,0,0,12,"[0, 15, 28, 12]",4,19,"[2, 3, 5, 7, 8, 9, 10, 11, 13, 16, 17, 19, 20, 22, 23, 24, 25, 26, 27]",184.243083,3137,948,8,71,9,1.0281484763748023
basic,27,32,0,0,0,16,"[0, 15, 28, 12, 16]",5,17,"[2, 3, 5, 7, 8, 9, 10, 11, 13, 17, 19, 20, 22, 23, 24, 26, 27]",168.5906071,3461,324,6,38,9,1.1190771370096
basic,27,32,0,0,0,22,"[0, 15, 28, 12, 16, 22]",6,10,"[2, 3, 5, 8, 9, 10, 11, 17, 20, 27]",134.7527585,4156,695,4,16,9,1.1702311155319893
basic,27,32,0,0,0,9,"[0, 15, 28, 12, 16, 22, 9]",7,6,"[2, 8, 10, 17, 20, 27]",112.5491552,4539,383,2,4,9,1.2381424719932013
basic,27,32,0,0,0,8,"[0, 15, 28, 12, 16, 22, 9, 8]",8,1,[20],67.42709849,5235,696,1,0,9,1.187013645273504
basic,27,32,0,0,1,20,"[0, 15, 28, 12, 16, 22, 9, 8, 20]",9,0,[],17.09818036,6037,802,1,0,9,1.3986201165175596
basic,27,32,0,1,1,20,"[0, 15, 28, 12, 16, 22, 9, 8, 20]",9,0,[],17.09818036,6614,577,1,0,9,1.3986201165175596
basic,28,45,0,0,0,0,[0],1,24,"[1, 2, 3, 4, 5, 6, 7, 9, 10, 11, 12, 14, 15, 16, 17, 19, 20, 21, 22, 23, 24, 25, 27, 29]",300,314,-1,6,248,10,0.0
basic,28,45,0,0,0,15,"[0, 15]",2,23,"[1, 2, 3, 4, 5, 6, 7, 9, 10, 11, 12, 14, 16, 17, 19, 20, 21, 22, 23, 24, 25, 27, 29]",253.9022777,1627,1313,5,207,10,1.0
basic,28,45,0,0,0,23,"[0, 15, 23]",3,22,"[1, 2, 3, 4, 5, 6, 7, 9, 10, 11, 12, 14, 16, 17, 19, 20, 21, 22, 24, 25, 27, 29]",230.3014303,2151,524,5,163,10,1.0006068457769497
basic,28,45,0,0,0,20,"[0, 15, 23, 20]",4,19,"[1, 2, 3, 5, 6, 7, 9, 10, 11, 12, 14, 16, 17, 19, 21, 22, 24, 25, 29]",188.8647316,2825,674,5,137,10,1.2062119754673604
basic,28,45,0,0,0,24,"[0, 15, 23, 20, 24]",5,14,"[1, 2, 3, 5, 6, 7, 9, 10, 12, 17, 19, 21, 22, 29]",145.0355176,3469,644,1,23,10,1.5044386356496664
basic,28,45,0,0,0,7,"[0, 15, 23, 20, 24, 7]",6,9,"[2, 3, 6, 10, 12, 17, 19, 22, 29]",110.6262165,4085,616,1,22,10,1.4273775035809357
basic,28,45,0,0,0,29,"[0, 15, 23, 20, 24, 7, 29]",7,6,"[2, 3, 6, 10, 12, 22]",61.29063096,5900,1815,7,2,9,1.4821237922398114
basic,28,45,0,0,0,10,"[0, 15, 23, 20, 24, 7, 29, 10]",8,1,[6],39.74997173,6421,521,1,0,9,1.768649502044275
basic,28,45,0,0,1,6,"[0, 15, 23, 20, 24, 7, 29, 10, 6]",9,0,[],13.50116223,7421,1000,1,0,9,1.663415286214772
basic,28,45,0,1,1,6,"[0, 15, 23, 20, 24, 7, 29, 10, 6]",9,0,[],13.50116223,8246,825,1,0,9,1.663415286214772
basic,29,15,0,0,0,0,[0],1,25,"[1, 2, 3, 4, 7, 8, 9, 10, 11, 12, 13, 14, 15, 16, 18, 20, 21, 22, 23, 24, 25, 26, 27, 28, 29]",300,332,-1,4,65,9,0.0
basic,29,15,0,0,0,7,"[0, 7]",2,23,"[1, 3, 4, 8, 9, 10, 11, 12, 13, 14, 15, 16, 18, 20, 21, 22, 23, 24, 25, 26, 27, 28, 29]",215.1884442,1862,1530,30,107,8,1.0
basic,29,15,0,0,0,11,"[0, 7, 11]",3,18,"[3, 4, 8, 9, 10, 12, 13, 14, 15, 16, 18, 20, 21, 22, 23, 25, 27, 29]",173.7035072,2646,784,12,34,8,1.0171318876095128
basic,29,15,0,0,0,3,"[0, 7, 11, 3]",4,13,"[4, 10, 12, 13, 14, 15, 16, 18, 20, 21, 22, 25, 27]",162.3017529,2990,344,7,21,8,1.0401878806820521
basic,29,15,0,0,0,16,"[0, 7, 11, 3, 16]",5,9,"[4, 10, 12, 13, 14, 15, 18, 21, 22]",137.2218805,3914,924,5,6,8,1.4258499651326737
basic,29,15,0,0,0,22,"[0, 7, 11, 3, 16, 22]",6,4,"[4, 13, 14, 15]",78.36612462,4651,737,2,2,8,1.284645195326425
basic,29,15,0,0,0,15,"[0, 7, 11, 3, 16, 22, 15]",7,1,[13],52.75362767,5211,560,1,0,8,1.2590218300860974
basic,29,15,0,0,1,13,"[0, 7, 11, 3, 16, 22, 15, 13]",8,0,[],37.48929015,5955,744,1,0,8,1.3103278820622872
basic,29,15,0,1,1,13,"[0, 7, 11, 3, 16, 22, 15, 13]",8,0,[],37.48929015,6714,759,1,0,8,1.3103278820622872
basic,30,43,0,0,0,0,[0],1,23,"[1, 2, 3, 4, 5, 6, 7, 9, 10, 11, 12, 14, 15, 16, 17, 19, 20, 21, 22, 23, 25, 27, 29]",300,347,-1,16,556,12,0.0
basic,30,43,0,0,0,29,"[0, 29]",2,22,"[1, 2, 3, 4, 5, 6, 7, 9, 10, 11, 12, 14, 15, 16, 17, 19, 20, 21, 22, 23, 25, 27]",277.909278,1669,1322,16,520,12,1.0
basic,30,43,0,0,0,20,"[0, 29, 20]",3,20,"[1, 2, 3, 4, 6, 7, 9, 10, 11, 12, 14, 15, 16, 17, 19, 21, 22, 23, 25, 27]",254.4785289,2173,504,15,422,12,1.082311746871282
basic,30,43,0,0,0,16,"[0, 29, 20, 16]",4,19,"[1, 2, 3, 4, 6, 7, 9, 10, 11, 12, 14, 15, 17, 19, 21, 22, 23, 25, 27]",231.8511119,2907,734,15,389,12,1.215201926898219
basic,30,43,0,0,0,15,"[0, 29, 20, 16, 15]",5,14,"[1, 2, 3, 4, 6, 7, 9, 11, 12, 14, 19, 22, 23, 25]",188.5267539,3891,984,3,109,12,1.3482474915350444
basic,30,43,0,0,0,25,"[0, 29, 20, 16, 15, 25]",6,12,"[1, 3, 4, 6, 7, 9, 11, 12, 14, 19, 22, 23]",165.8551858,4423,532,2,43,12,1.691408721191545
basic,30,43,0,0,0,12,"[0, 29, 20, 16, 15, 25, 12]",7,11,"[1, 3, 4, 6, 7, 9, 11, 14, 19, 22, 23]",141.6684126,4857,434,2,32,12,1.6015983641428178
basic,30,43,0,0,0,3,"[0, 29, 20, 16, 15, 25, 12, 3]",8,10,"[1, 4, 6, 7, 9, 11, 14, 19, 22, 23]",128.6684126,5171,314,2,24,12,1.5379830456120627
basic,30,43,0,0,0,19,"[0, 29, 20, 16, 15, 25, 12, 3, 19]",9,6,"[1, 4, 6, 7, 11, 22]",87.55880297,6205,1034,1,10,12,1.529185197301008
basic,30,43,0,0,0,22,"[0, 29, 20, 16, 15, 25, 12, 3, 19, 22]",10,4,"[1, 6, 7, 11]",66.94327484,6807,602,1,3,12,1.9540492344633407
basic,30,43,0,0,1,1,"[0, 29, 20, 16, 15, 25, 12, 3, 19, 22, 1]",11,0,[],35.55856519,7941,1134,1,0,11,1.8370190932436647
basic,30,43,0,1,1,1,"[0, 29, 20, 16, 15, 25, 12, 3, 19, 22, 1]",11,0,[],35.55856519,9163,1222,1,0,11,1.8370190932436647
basic,31,17,0,0,0,0,[0],1,28,"[1, 2, 3, 4, 5, 6, 7, 8, 9, 10, 11, 12, 13, 14, 15, 16, 17, 18, 19, 20, 22, 23, 24, 25, 26, 27, 28, 29]",300,415,-1,2,73,8,0.0
basic,31,17,0,0,0,19,"[0, 19]",2,9,"[3, 4, 5, 10, 11, 18, 20, 22, 28]",138.1049723,1400,985,1,8,6,1.0
basic,31,17,0,0,0,5,"[0, 19, 5]",3,5,"[3, 10, 11, 22, 28]",98.81120687,2674,1274,1,5,6,1.1200340368749155
basic,31,17,0,0,0,28,"[0, 19, 5, 28]",4,2,"[3, 11]",60.32744406,3556,882,1,1,6,1.1548774814009009
basic,31,17,0,0,0,3,"[0, 19, 5, 28, 3]",5,1,[11],26.32744406,4740,1184,1,0,6,1.444690353691831
basic,31,17,0,0,1,11,"[0, 19, 5, 28, 3, 11]",6,0,[],0.154939406,10126,5386,1,0,6,1.4783074152117983
basic,31,17,0,1,1,11,"[0, 19, 5, 28, 3, 11]",6,0,[],0.154939406,11313,1187,1,0,6,1.4783074152117983
basic,32,26,0,0,0,0,[0],1,29,"[1, 2, 3, 4, 5, 6, 7, 8, 9, 10, 11, 12, 13, 14, 15, 16, 17, 18, 19, 20, 21, 22, 23, 24, 25, 26, 27, 28, 29]",300,330,-1,9,226,9,0.0
basic,32,26,0,0,0,21,"[0, 21]",2,25,"[2, 3, 4, 5, 6, 7, 8, 10, 11, 12, 13, 14, 15, 16, 17, 18, 19, 22, 23, 24, 25, 26, 27, 28, 29]",211.1349337,2394,2064,7,90,9,1.0
basic,32,26,0,0,0,16,"[0, 21, 16]",3,12,"[4, 5, 6, 10, 11, 12, 13, 14, 17, 23, 26, 29]",151.2266705,3057,663,1,34,9,1.3289691188319968
basic,32,26,0,0,0,29,"[0, 21, 16, 29]",4,8,"[4, 5, 6, 10, 13, 14, 17, 23]",127.0192337,3621,564,1,28,9,1.4156891800947415
basic,32,26,0,0,0,4,"[0, 21, 16, 29, 4]",5,5,"[6, 10, 14, 17, 23]",103.0192337,4024,403,1,12,9,1.6252228687746915
basic,32,26,0,0,0,17,"[0, 21, 16, 29, 4, 17]",6,3,"[6, 10, 14]",81.92421056,5083,1059,1,4,9,1.534793846471065
basic,32,26,0,0,0,14,"[0, 21, 16, 29, 4, 17, 14]",7,2,"[6, 10]",59.45200551,5735,652,1,1,9,1.4926767408397108
basic,32,26,0,0,0,6,"[0, 21, 16, 29, 4, 17, 14, 6]",8,1,[10],38.42820947,6518,783,1,0,9,1.6286010900012204
basic,32,26,0,0,1,10,"[0, 21, 16, 29, 4, 17, 14, 6, 10]",9,0,[],9.153647129,7533,1015,1,0,9,1.797369356615424
basic,32,26,0,1,1,10,"[0, 21, 16, 29, 4, 17, 14, 6, 10]",9,0,[],9.153647129,17563,10030,1,0,9,1.797369356615424
basic,33,11,0,0,0,0,[0],1,25,"[1, 2, 3, 4, 5, 6, 8, 9, 10, 11, 12, 13, 14, 15, 16, 17, 18, 19, 20, 22, 23, 25, 26, 27, 28]",300,347,-1,6,374,12,0.0
basic,33,11,0,0,0,18,"[0, 18]",2,21,"[1, 2, 4, 5, 6, 8, 9, 11, 12, 13, 14, 15, 16, 17, 19, 20, 22, 23, 25, 27, 28]",236.8493864,6967,6620,157,1477,11,1.0
basic,33,11,0,0,0,27,"[0, 18, 27]",3,19,"[1, 2, 4, 5, 6, 8, 9, 11, 12, 14, 15, 16, 17, 19, 20, 22, 23, 25, 28]",212.9956655,7661,694,157,1315,11,1.060949579704323
basic,33,11,0,0,0,8,"[0, 18, 27, 8]",4,14,"[1, 2, 4, 5, 6, 11, 12, 15, 17, 19, 22, 23, 25, 28]",142.7817068,10055,2394,68,433,11,1.0827202875589923
basic,33,11,0,0,0,17,"[0, 18, 27, 8, 17]",5,13,"[1, 2, 4, 5, 6, 11, 12, 15, 19, 22, 23, 25, 28]",128.4638857,10669,614,42,137,11,1.1662918234607762
basic,33,11,0,0,0,15,"[0, 18, 27, 8, 17, 15]",6,9,"[2, 5, 6, 11, 12, 19, 22, 25, 28]",115.8147751,11485,816,38,57,11,1.1741312027420885
basic,33,11,0,0,0,11,"[0, 18, 27, 8, 17, 15, 11]",7,7,"[2, 5, 6, 12, 19, 22, 28]",97.70400479,12237,752,24,0,11,1.1668679039564056
basic,33,11,0,0,0,28,"[0, 18, 27, 8, 17, 15, 11, 28]",8,4,"[2, 5, 19, 22]",78.28751696,13011,774,6,0,11,1.2830334294205898
basic,33,11,0,0,0,5,"[0, 18, 27, 8, 17, 15, 11, 28, 5]",9,2,"[2, 22]",60.39897314,13767,756,2,0,11,1.472719061667125
basic,33,11,0,0,0,2,"[0, 18, 27, 8, 17, 15, 11, 28, 5, 2]",10,1,[22],43.39897314,14187,420,1,0,11,1.437636650715907
basic,33,11,0,0,1,22,"[0, 18, 27, 8, 17, 15, 11, 28, 5, 2, 22]",11,0,[],33.34909751,14571,384,1,0,11,1.414339916866727
basic,33,11,0,1,1,22,"[0, 18, 27, 8, 17, 15, 11, 28, 5, 2, 22]",11,0,[],33.34909751,15679,1108,1,0,11,1.414339916866727
basic,34,1,0,0,0,0,[0],1,26,"[1, 2, 4, 5, 7, 8, 9, 10, 11, 12, 13, 14, 15, 16, 17, 18, 19, 20, 21, 22, 23, 24, 25, 26, 28, 29]",300,346,-1,6,74,7,0.0
basic,34,1,0,0,0,14,"[0, 14]",2,19,"[1, 4, 5, 8, 9, 13, 15, 17, 18, 19, 20, 21, 22, 23, 24, 25, 26, 28, 29]",200.1901808,2073,1727,5,42,7,1.0
basic,34,1,0,0,0,17,"[0, 14, 17]",3,15,"[1, 4, 5, 8, 9, 13, 15, 18, 19, 20, 22, 23, 25, 28, 29]",147.8356204,2699,626,5,27,7,1.0028844724416826
basic,34,1,0,0,0,1,"[0, 14, 17, 1]",4,12,"[4, 5, 8, 9, 15, 18, 20, 22, 23, 25, 28, 29]",123.4840291,3882,1183,5,15,7,1.0264985578353567
basic,34,1,0,0,0,28,"[0, 14, 17, 1, 28]",5,5,"[9, 15, 22, 23, 29]",88.59850198,4724,842,5,3,7,1.0339861575999345
basic,34,1,0,0,0,23,"[0, 14, 17, 1, 28, 23]",6,2,"[15, 22]",51.70676849,5438,714,2,0,7,1.0327458250705703
basic,34,1,0,0,1,15,"[0, 14, 17, 1, 28, 23, 15]",7,0,[],20.81987807,6533,1095,1,0,7,1.1948681641401226
basic,34,1,0,1,1,15,"[0, 14, 17, 1, 28, 23, 15]",7,0,[],20.81987807,7246,713,1,0,7,1.1948681641401226
basic,35,40,0,0,0,0,[0],1,29,"[1, 2, 3, 4, 5, 6, 7, 8, 9, 10, 11, 12, 13, 14, 15, 16, 17, 18, 19, 20, 21, 22, 23, 24, 25, 26, 27, 28, 29]",300,338,-1,8,191,9,0.0
basic,35,40,0,0,0,1,"[0, 1]",2,18,"[2, 5, 6, 7, 8, 9, 10, 11, 13, 15, 17, 18, 19, 21, 22, 23, 27, 29]",247.8463808,1639,1301,4,80,9,1.0
basic,35,40,0,0,0,6,"[0, 1, 6]",3,17,"[2, 5, 7, 8, 9, 10, 11, 13, 15, 17, 18, 19, 21, 22, 23, 27, 29]",227.7466295,2222,583,4,74,9,1.0459427008232034
basic,35,40,0,0,0,21,"[0, 1, 6, 21]",4,8,"[2, 5, 9, 17, 18, 19, 22, 23]",175.7754837,2874,652,4,25,9,1.0308822257404064
basic,35,40,0,0,0,9,"[0, 1, 6, 21, 9]",5,6,"[2, 5, 18, 19, 22, 23]",130.0699041,3500,626,4,12,9,1.377861912961129
basic,35,40,0,0,0,18,"[0, 1, 6, 21, 9, 18]",6,5,"[2, 5, 19, 22, 23]",113.5169588,4058,558,4,4,9,1.5742712168661408
basic,35,40,0,0,0,23,"[0, 1, 6, 21, 9, 18, 23]",7,3,"[2, 5, 19]",79.51695879,4642,584,2,1,9,2.324611956726637
basic,35,40,0,0,0,5,"[0, 1, 6, 21, 9, 18, 23, 5]",8,1,[19],51.21501539,5218,576,1,0,9,2.022909590433451
basic,35,40,0,0,1,19,"[0, 1, 6, 21, 9, 18, 23, 5, 19]",9,0,[],13.13614986,5810,592,1,0,9,2.796177718843732
basic,35,40,0,1,1,19,"[0, 1, 6, 21, 9, 18, 23, 5, 19]",9,0,[],13.13614986,6446,636,1,0,9,2.796177718843732
basic,36,5,0,0,0,0,[0],1,29,"[1, 2, 3, 4, 5, 6, 7, 8, 9, 10, 11, 12, 13, 14, 15, 16, 17, 18, 19, 20, 21, 22, 23, 24, 25, 26, 27, 28, 29]",300,331,-1,5,139,9,0.0
basic,36,5,0,0,0,23,"[0, 23]",2,27,"[1, 2, 3, 4, 5, 6, 7, 8, 9, 10, 11, 12, 13, 14, 15, 16, 17, 18, 19, 20, 21, 22, 24, 25, 26, 27, 28]",249.8402552,1627,1296,3,75,9,1.0
basic,36,5,0,0,0,25,"[0, 23, 25]",3,23,"[1, 2, 3, 4, 5, 6, 8, 9, 10, 12, 13, 14, 15, 16, 17, 18, 19, 21, 22, 24, 26, 27, 28]",231.4011663,3304,1677,3,43,9,1.0923159590575564
basic,36,5,0,0,0,24,"[0, 23, 25, 24]",4,21,"[2, 3, 4, 5, 6, 8, 9, 10, 12, 13, 14, 15, 16, 17, 18, 19, 21, 22, 26, 27, 28]",206.5616816,4292,988,3,25,9,1.2901858295679272
basic,36,5,0,0,0,17,"[0, 23, 25, 24, 17]",5,13,"[4, 5, 6, 8, 12, 13, 14, 15, 18, 19, 22, 26, 27]",171.5759702,4796,504,3,14,9,1.2027484907982513
basic,36,5,0,0,0,5,"[0, 23, 25, 24, 17, 5]",6,7,"[4, 6, 8, 12, 15, 18, 19]",128.5294837,6035,1239,3,4,9,1.1472230681682432
basic,36,5,0,0,0,4,"[0, 23, 25, 24, 17, 5, 4]",7,2,"[6, 18]",62.7267482,7451,1416,1,1,9,1.354057663440583
basic,36,5,0,0,0,6,"[0, 23, 25, 24, 17, 5, 4, 6]",8,1,[18],50.68515362,8084,633,1,0,9,1.492903271736527
basic,36,5,0,0,1,18,"[0, 23, 25, 24, 17, 5, 4, 6, 18]",9,0,[],0.237160597,11350,3266,1,0,9,1.4782254648560558
basic,36,5,0,1,1,18,"[0, 23, 25, 24, 17, 5, 4, 6, 18]",9,0,[],0.237160597,12663,1313,1,0,9,1.4782254648560558
basic,37,34,0,0,0,0,[0],1,25,"[1, 3, 4, 5, 6, 7, 8, 9, 10, 11, 12, 13, 15, 18, 19, 20, 21, 22, 23, 24, 25, 26, 27, 28, 29]",300,334,-1,12,367,10,0.0
basic,37,34,0,0,0,13,"[0, 13]",2,24,"[1, 3, 4, 5, 6, 7, 8, 9, 10, 11, 12, 15, 18, 19, 20, 21, 22, 23, 24, 25, 26, 27, 28, 29]",279.9750156,1637,1303,12,331,10,1.0
basic,37,34,0,0,0,1,"[0, 13, 1]",3,16,"[3, 5, 7, 8, 9, 10, 11, 12, 19, 21, 22, 23, 24, 25, 27, 29]",211.8574701,2269,632,3,92,10,1.0010381285747127
basic,37,34,0,0,0,8,"[0, 13, 1, 8]",4,14,"[3, 5, 7, 9, 10, 11, 12, 19, 22, 23, 24, 25, 27, 29]",201.0871405,2584,315,2,54,10,1.1636807
basic,37,34,0,0,0,25,"[0, 13, 1, 8, 25]",5,12,"[3, 5, 7, 9, 10, 11, 12, 22, 23, 24, 27, 29]",183.999133,3017,433,2,28,10,1.1396208815936457
basic,37,34,0,0,0,24,"[0, 13, 1, 8, 25, 24]",6,11,"[3, 5, 7, 9, 10, 11, 12, 22, 23, 27, 29]",166.5062774,3389,372,2,23,10,1.374180768736554
basic,37,34,0,0,0,12,"[0, 13, 1, 8, 25, 24, 12]",7,7,"[7, 9, 10, 11, 22, 23, 27]",115.4670767,4163,774,1,8,10,1.4994254760835948
basic,37,34,0,0,0,7,"[0, 13, 1, 8, 25, 24, 12, 7]",8,5,"[9, 11, 22, 23, 27]",100.4337804,5201,1038,1,4,10,1.758992610425009
basic,37,34,0,0,0,23,"[0, 13, 1, 8, 25, 24, 12, 7, 23]",9,1,[27],72.27352467,6051,850,1,0,10,2.399781305190153
basic,37,34,0,0,1,27,"[0, 13, 1, 8, 25, 24, 12, 7, 23, 27]",10,0,[],18.60789321,7145,1094,1,0,10,4.766619878750327
basic,37,34,0,1,1,27,"[0, 13, 1, 8, 25, 24, 12, 7, 23, 27]",10,0,[],18.60789321,7796,651,1,0,10,4.766619878750327
basic,38,22,0,0,0,0,[0],1,29,"[1, 2, 3, 4, 5, 6, 7, 8, 9, 10, 11, 12, 13, 14, 15, 16, 17, 18, 19, 20, 21, 22, 23, 24, 25, 26, 27, 28, 29]",300,330,-1,31,704,9,0.0
basic,38,22,0,0,0,16,"[0, 16]",2,21,"[1, 3, 6, 7, 8, 9, 11, 13, 14, 15, 17, 18, 19, 20, 21, 22, 24, 25, 27, 28, 29]",218.605897,1684,1354,17,147,9,1.0
basic,38,22,0,0,0,28,"[0, 16, 28]",3,13,"[6, 7, 9, 13, 14, 17, 19, 20, 21, 22, 24, 25, 29]",184.1675463,2435,751,12,61,9,1.047282311284478
basic,38,22,0,0,0,6,"[0, 16, 28, 6]",4,12,"[7, 9, 13, 14, 17, 19, 20, 21, 22, 24, 25, 29]",154.1675463,3089,654,12,43,9,1.645645870580622
basic,38,22,0,0,0,9,"[0, 16, 28, 6, 9]",5,8,"[7, 14, 17, 19, 20, 21, 24, 29]",127.5404924,3743,654,8,17,9,1.925750226630103
basic,38,22,0,0,0,19,"[0, 16, 28, 6, 9, 19]",6,6,"[7, 14, 17, 21, 24, 29]",107.1444143,4418,675,3,7,9,2.4220750331476455
basic,38,22,0,0,0,29,"[0, 16, 28, 6, 9, 19, 29]",7,4,"[7, 14, 17, 24]",92.11111796,5657,1239,2,2,9,2.6996279574991067
basic,38,22,0,0,0,14,"[0, 16, 28, 6, 9, 19, 29, 14]",8,1,[7],33.86165444,7950,2293,1,0,9,2.0544639927929462
basic,38,22,0,0,1,7,"[0, 16, 28, 6, 9, 19, 29, 14, 7]",9,0,[],20.82324963,8466,516,1,0,9,2.219817088951114
basic,38,22,0,1,1,7,"[0, 16, 28, 6, 9, 19, 29, 14, 7]",9,0,[],20.82324963,8963,497,1,0,9,2.219817088951114
basic,39,33,0,0,0,0,[0],1,23,"[1, 2, 5, 7, 8, 11, 12, 13, 14, 15, 16, 17, 18, 19, 20, 21, 23, 24, 25, 26, 27, 28, 29]",300,347,-1,5,108,9,0.0
basic,39,33,0,0,0,21,"[0, 21]",2,17,"[2, 5, 7, 8, 11, 13, 14, 16, 17, 18, 19, 20, 24, 26, 27, 28, 29]",174.4611614,4563,4216,21,129,8,1.0
basic,39,33,0,0,0,13,"[0, 21, 13]",3,15,"[2, 5, 7, 8, 11, 14, 16, 17, 18, 19, 20, 24, 26, 28, 29]",148.0604038,5436,873,17,72,8,1.0001005298764474
basic,39,33,0,0,0,19,"[0, 21, 13, 19]",4,11,"[7, 11, 14, 16, 17, 18, 20, 24, 26, 28, 29]",122.5653063,5910,474,10,27,8,1.0588446738393702
basic,39,33,0,0,0,24,"[0, 21, 13, 19, 24]",5,7,"[7, 14, 16, 18, 26, 28, 29]",80.51771417,6454,544,3,5,8,1.078006777679028
basic,39,33,0,0,0,7,"[0, 21, 13, 19, 24, 7]",6,3,"[14, 26, 29]",51.31155044,7150,696,3,1,8,1.1669985062633954
basic,39,33,0,0,0,14,"[0, 21, 13, 19, 24, 7, 14]",7,2,"[26, 29]",36.44548169,7518,368,2,0,8,1.2148465775488593
basic,39,33,0,0,1,26,"[0, 21, 13, 19, 24, 7, 14, 26]",8,0,[],23.79637105,7934,416,1,0,8,1.2208379656544521
basic,39,33,0,1,1,26,"[0, 21, 13, 19, 24, 7, 14, 26]",8,0,[],23.79637105,8896,962,1,0,8,1.2208379656544521
basic,40,3,0,0,0,0,[0],1,29,"[1, 2, 3, 4, 5, 6, 7, 8, 9, 10, 11, 12, 13, 14, 15, 16, 17, 18, 19, 20, 21, 22, 23, 24, 25, 26, 27, 28, 29]",300,346,-1,34,427,10,0.0
basic,40,3,0,0,0,17,"[0, 17]",2,16,"[3, 4, 7, 8, 10, 12, 14, 15, 16, 19, 20, 21, 22, 24, 26, 27]",197.6965299,2119,1773,2,27,9,1.0
basic,40,3,0,0,0,20,"[0, 17, 20]",3,13,"[3, 4, 7, 8, 10, 14, 15, 16, 19, 21, 22, 24, 27]",185.0474192,2766,647,2,24,9,1.0153332121237257
basic,40,3,0,0,0,3,"[0, 17, 20, 3]",4,10,"[4, 7, 8, 10, 14, 15, 16, 19, 21, 24]",164.6513412,3249,483,2,22,9,1.0819240770773468
basic,40,3,0,0,0,19,"[0, 17, 20, 3, 19]",5,6,"[4, 8, 10, 14, 21, 24]",127.3150318,4866,1617,2,11,9,1.1701070532957258
basic,40,3,0,0,0,21,"[0, 17, 20, 3, 19, 21]",6,5,"[4, 8, 10, 14, 24]",115.1084762,5387,521,2,6,9,1.202395500952127
basic,40,3,0,0,0,14,"[0, 17, 20, 3, 19, 21, 14]",7,4,"[4, 8, 10, 24]",88.20122806,6183,796,2,2,9,1.6456130302761207
basic,40,3,0,0,0,24,"[0, 17, 20, 3, 19, 21, 14, 24]",8,1,[8],17.08864127,7157,974,1,0,9,4.806859660680286
basic,40,3,0,0,1,8,"[0, 17, 20, 3, 19, 21, 14, 24, 8]",9,0,[],4.923116212,7719,562,1,0,9,4.915218144486606
basic,40,3,0,1,1,8,"[0, 17, 20, 3, 19, 21, 14, 24, 8]",9,0,[],4.923116212,10178,2459,1,0,9,4.915218144486606
basic,41,24,0,0,0,0,[0],1,29,"[1, 2, 3, 4, 5, 6, 7, 8, 9, 10, 11, 12, 13, 14, 15, 16, 17, 18, 19, 20, 21, 22, 23, 24, 25, 26, 27, 28, 29]",300,333,-1,4,76,10,0.0
basic,41,24,0,0,0,16,"[0, 16]",2,28,"[1, 2, 3, 4, 5, 6, 7, 8, 9, 10, 11, 12, 13, 14, 15, 17, 18, 19, 20, 21, 22, 23, 24, 25, 26, 27, 28, 29]",210.3562607,2005,1672,13,110,9,1.0
basic,41,24,0,0,0,22,"[0, 16, 22]",3,27,"[1, 2, 3, 4, 5, 6, 7, 8, 9, 10, 11, 12, 13, 14, 15, 17, 18, 19, 20, 21, 23, 24, 25, 26, 27, 28, 29]",192.3285043,2425,420,7,54,9,1.0217425143037777
basic,41,24,0,0,0,8,"[0, 16, 22, 8]",4,21,"[1, 2, 3, 4, 6, 9, 10, 11, 13, 14, 15, 17, 20, 21, 23, 24, 25, 26, 27, 28, 29]",178.9120964,2757,332,4,28,9,1.0996636936037951
basic,41,24,0,0,0,15,"[0, 16, 22, 8, 15]",5,16,"[3, 4, 6, 9, 10, 11, 13, 14, 17, 23, 24, 25, 26, 27, 28, 29]",148.025206,3773,1016,3,17,9,1.2704773343758617
basic,41,24,0,0,0,28,"[0, 16, 22, 8, 15, 28]",6,8,"[3, 4, 9, 11, 13, 23, 26, 27]",102.7482803,4809,1036,3,5,9,1.1981967578189556
basic,41,24,0,0,0,23,"[0, 16, 22, 8, 15, 28, 23]",7,3,"[9, 11, 27]",83.72198273,5391,582,3,1,9,1.2275650852813986
basic,41,24,0,0,0,11,"[0, 16, 22, 8, 15, 28, 23, 11]",8,2,"[9, 27]",56.79615869,6113,722,2,0,9,1.2107937989822568
basic,41,24,0,0,1,9,"[0, 16, 22, 8, 15, 28, 23, 11, 9]",9,0,[],24.5471277,7203,1090,1,0,9,1.2976612913524237
basic,41,24,0,1,1,9,"[0, 16, 22, 8, 15, 28, 23, 11, 9]",9,0,[],24.5471277,33414,26211,1,0,9,1.2976612913524237
basic,42,23,0,0,0,0,[0],1,28,"[1, 2, 3, 4, 5, 6, 7, 8, 9, 10, 11, 12, 13, 14, 15, 16, 17, 18, 19, 20, 21, 22, 23, 25, 26, 27, 28, 29]",300,363,-1,76,2626,10,0.0
basic,42,23,0,0,0,18,"[0, 18]",2,14,"[2, 5, 6, 7, 9, 10, 12, 13, 14, 19, 21, 22, 27, 29]",203.8958898,1852,1489,73,787,9,1.0
basic,42,23,0,0,0,27,"[0, 18, 27]",3,9,"[2, 6, 7, 9, 12, 13, 14, 22, 29]",128.5832083,2834,982,51,277,9,1.1972268052690318
basic,42,23,0,0,0,6,"[0, 18, 27, 6]",4,8,"[2, 7, 9, 12, 13, 14, 22, 29]",100.2812649,3308,474,43,68,9,1.3293035545030156
basic,42,23,0,0,0,2,"[0, 18, 27, 6, 2]",5,6,"[9, 12, 13, 14, 22, 29]",81.84217594,4402,1094,16,17,9,1.5987085337271232
basic,42,23,0,0,0,14,"[0, 18, 27, 6, 2, 14]",6,5,"[9, 12, 13, 22, 29]",66.97610719,5634,1232,5,3,9,1.653941702320971
basic,42,23,0,0,0,9,"[0, 18, 27, 6, 2, 14, 9]",7,4,"[12, 13, 22, 29]",56.53580068,6188,554,2,2,9,1.8635071754469044
basic,42,23,0,0,0,12,"[0, 18, 27, 6, 2, 14, 9, 12]",8,1,[13],42.21797962,6662,474,1,0,9,2.1028196660017944
basic,42,23,0,0,1,13,"[0, 18, 27, 6, 2, 14, 9, 12, 13]",9,0,[],30.13493365,7054,392,1,0,9,2.43825220165275
basic,42,23,0,1,1,13,"[0, 18, 27, 6, 2, 14, 9, 12, 13]",9,0,[],30.13493365,8246,1192,1,0,9,2.43825220165275
basic,43,2,0,0,0,0,[0],1,23,"[1, 2, 4, 5, 6, 7, 8, 9, 12, 13, 15, 16, 17, 18, 19, 20, 22, 23, 25, 26, 27, 28, 29]",300,330,-1,70,620,10,0.0
basic,43,2,0,0,0,19,"[0, 19]",2,22,"[1, 2, 4, 5, 6, 7, 8, 9, 12, 13, 15, 16, 17, 18, 20, 22, 23, 25, 26, 27, 28, 29]",210.306076,3422,3092,67,431,10,1.0
basic,43,2,0,0,0,12,"[0, 19, 12]",3,17,"[1, 4, 5, 6, 7, 13, 15, 16, 17, 18, 20, 22, 25, 26, 27, 28, 29]",174.2921898,3934,512,66,298,10,1.1107635036313153
basic,43,2,0,0,0,5,"[0, 19, 12, 5]",4,11,"[1, 6, 7, 13, 15, 16, 18, 22, 25, 26, 29]",144.7625437,4638,704,38,136,10,1.0968174771581647
basic,43,2,0,0,0,22,"[0, 19, 12, 5, 22]",5,8,"[1, 6, 7, 13, 15, 18, 26, 29]",131.9562952,5034,396,20,63,10,1.0889910507461968
basic,43,2,0,0,0,13,"[0, 19, 12, 5, 22, 13]",6,7,"[1, 6, 7, 15, 18, 26, 29]",117.0902265,5453,419,19,20,10,1.236526217328057
basic,43,2,0,0,0,18,"[0, 19, 12, 5, 22, 13, 18]",7,4,"[7, 15, 26, 29]",81.91921567,6268,815,10,3,10,1.2128708213409936
basic,43,2,0,0,0,7,"[0, 19, 12, 5, 22, 13, 18, 7]",8,3,"[15, 26, 29]",71.62358553,6669,401,5,0,10,1.2019811287894737
basic,43,2,0,0,0,26,"[0, 19, 12, 5, 22, 13, 18, 7, 26]",9,2,"[15, 29]",48.82007703,7284,615,2,0,10,1.1883593342191134
basic,43,2,0,0,1,15,"[0, 19, 12, 5, 22, 13, 18, 7, 26, 15]",10,0,[],24.61264015,8042,758,1,0,10,1.4619750353663825
basic,43,2,0,1,1,15,"[0, 19, 12, 5, 22, 13, 18, 7, 26, 15]",10,0,[],24.61264015,9630,1588,1,0,10,1.4619750353663825
basic,44,4,0,0,0,0,[0],1,26,"[3, 4, 5, 6, 7, 8, 10, 11, 12, 13, 14, 15, 16, 17, 18, 19, 20, 21, 22, 23, 24, 25, 26, 27, 28, 29]",300,364,-1,4,489,10,0.0
basic,44,4,0,0,0,28,"[0, 28]",2,21,"[3, 4, 5, 6, 10, 11, 12, 13, 14, 15, 16, 17, 19, 20, 21, 22, 23, 24, 25, 26, 27]",225.9392142,12457,12093,2,216,10,1.0
basic,44,4,0,0,0,14,"[0, 28, 14]",3,13,"[3, 4, 5, 6, 11, 13, 16, 17, 20, 21, 22, 24, 25]",159.6972335,13303,846,1,26,10,1.0273973946789214
basic,44,4,0,0,0,25,"[0, 28, 14, 25]",4,12,"[3, 4, 5, 6, 11, 13, 16, 17, 20, 21, 22, 24]",143.572718,13903,600,1,25,10,1.233547772313525
basic,44,4,0,0,0,11,"[0, 28, 14, 25, 11]",5,10,"[3, 4, 5, 6, 13, 16, 17, 20, 21, 22]",124.7844238,15195,1292,1,15,10,1.425978575879479
basic,44,4,0,0,0,16,"[0, 28, 14, 25, 11, 16]",6,9,"[3, 4, 5, 6, 13, 17, 20, 21, 22]",109.7844238,15757,562,1,12,10,1.3799325158051412
basic,44,4,0,0,0,21,"[0, 28, 14, 25, 11, 16, 21]",7,4,"[5, 17, 20, 22]",65.58035157,24701,8944,3,3,9,1.5860540591673642
basic,44,4,0,0,0,22,"[0, 28, 14, 25, 11, 16, 21, 22]",8,3,"[5, 17, 20]",54.53499056,25191,490,3,0,9,1.5471132483772176
basic,44,4,0,0,1,20,"[0, 28, 14, 25, 11, 16, 21, 22, 20]",9,0,[],24.30255764,25895,704,1,0,9,1.5087977616865345
basic,44,4,0,1,1,20,"[0, 28, 14, 25, 11, 16, 21, 22, 20]",9,0,[],24.30255764,37830,11935,1,0,9,1.5087977616865345
basic,45,9,0,0,0,0,[0],1,27,"[1, 3, 4, 5, 6, 7, 8, 9, 10, 11, 13, 14, 15, 16, 17, 18, 19, 20, 21, 22, 23, 24, 25, 26, 27, 28, 29]",300,329,-1,2,182,10,0.0
basic,45,9,0,0,0,8,"[0, 8]",2,25,"[1, 3, 4, 5, 6, 7, 9, 10, 11, 13, 14, 15, 16, 17, 18, 19, 20, 21, 22, 23, 24, 25, 26, 27, 28]",236.2191251,3866,3537,2,102,9,1.0
basic,45,9,0,0,0,28,"[0, 8, 28]",3,23,"[1, 3, 4, 5, 6, 7, 9, 10, 11, 13, 15, 16, 17, 18, 19, 20, 21, 22, 23, 24, 25, 26, 27]",225.4024713,4254,388,2,52,9,1.0043219354187498
basic,45,9,0,0,0,26,"[0, 8, 28, 26]",4,22,"[1, 3, 4, 5, 6, 7, 9, 10, 11, 13, 15, 16, 17, 18, 19, 20, 21, 22, 23, 24, 25, 27]",180.6252449,4868,614,2,14,9,1.0218284416881065
basic,45,9,0,0,0,18,"[0, 8, 28, 26, 18]",5,13,"[1, 3, 5, 6, 9, 13, 15, 16, 19, 20, 21, 23, 24]",119.7483199,6432,1564,2,6,9,1.0343247703783052
basic,45,9,0,0,0,5,"[0, 8, 28, 26, 18, 5]",6,3,"[1, 13, 24]",55.85778854,7542,1110,2,4,9,1.0965846847367935
basic,45,9,0,0,0,13,"[0, 8, 28, 26, 18, 5, 13]",7,2,"[1, 24]",40.59345102,7999,457,2,0,9,1.1139896497149246
basic,45,9,0,0,0,1,"[0, 8, 28, 26, 18, 5, 13, 1]",8,1,[24],21.38407831,8450,451,1,0,9,1.1383557864542861
basic,45,9,0,0,1,24,"[0, 8, 28, 26, 18, 5, 13, 1, 24]",9,0,[],0.384078307,9518,1068,1,0,9,1.199798605449175
basic,45,9,0,1,1,24,"[0, 8, 28, 26, 18, 5, 13, 1, 24]",9,0,[],0.384078307,11129,1611,1,0,9,1.199798605449175
basic,46,31,0,0,0,0,[0],1,27,"[1, 3, 4, 5, 6, 7, 8, 10, 11, 12, 13, 14, 15, 16, 17, 18, 19, 20, 21, 22, 23, 24, 25, 26, 27, 28, 29]",300,385,-1,2,87,10,0.0
basic,46,31,0,0,0,14,"[0, 14]",2,25,"[1, 3, 5, 6, 7, 8, 10, 11, 12, 13, 15, 16, 17, 18, 19, 20, 21, 22, 23, 24, 25, 26, 27, 28, 29]",263.861378,3989,3604,2,59,10,1.0
basic,46,31,0,0,0,27,"[0, 14, 27]",3,22,"[1, 3, 5, 6, 7, 8, 10, 11, 12, 13, 15, 16, 17, 18, 19, 20, 21, 22, 24, 25, 28, 29]",235.6833724,4941,952,1,39,10,1.5881859159302467
basic,46,31,0,0,0,8,"[0, 14, 27, 8]",4,20,"[1, 3, 5, 6, 7, 10, 11, 12, 13, 16, 17, 18, 19, 20, 21, 22, 24, 25, 28, 29]",224.6380114,5337,396,1,36,10,2.1665048452331277
basic,46,31,0,0,0,11,"[0, 14, 27, 8, 11]",5,13,"[1, 5, 7, 12, 13, 16, 17, 18, 19, 20, 22, 25, 28]",173.3934995,6865,1528,7,41,9,2.0680270430571026
basic,46,31,0,0,0,18,"[0, 14, 27, 8, 11, 18]",6,12,"[1, 5, 7, 12, 13, 16, 17, 19, 20, 22, 25, 28]",138.5079724,8987,2122,5,9,9,2.50835395439338
basic,46,31,0,0,0,17,"[0, 14, 27, 8, 11, 18, 17]",7,6,"[1, 5, 12, 22, 25, 28]",109.3018087,9781,794,4,2,9,2.1066801061614195
basic,46,31,0,0,0,5,"[0, 14, 27, 8, 11, 18, 17, 5]",8,1,[28],34.29514229,12437,2656,1,0,9,3.0287746721905084
basic,46,31,0,0,1,28,"[0, 14, 27, 8, 11, 18, 17, 5, 28]",9,0,[],14.07139387,13281,844,1,0,9,2.663866883363467
basic,46,31,0,1,1,28,"[0, 14, 27, 8, 11, 18, 17, 5, 28]",9,0,[],14.07139387,21765,8484,1,0,9,2.663866883363467
basic,47,36,0,0,0,0,[0],1,24,"[2, 4, 5, 6, 7, 8, 9, 10, 12, 13, 14, 15, 16, 17, 18, 19, 20, 22, 23, 25, 26, 27, 28, 29]",300,346,-1,2,200,10,0.0
basic,47,36,0,0,0,12,"[0, 12]",2,23,"[2, 4, 5, 6, 7, 8, 9, 10, 13, 14, 15, 16, 17, 18, 19, 20, 22, 23, 25, 26, 27, 28, 29]",277.7963967,4516,4170,90,804,9,1.0
basic,47,36,0,0,0,9,"[0, 12, 9]",3,14,"[2, 4, 8, 10, 13, 16, 17, 18, 19, 23, 25, 27, 28, 29]",215.4345494,5157,641,32,191,9,1.224429481246385
basic,47,36,0,0,0,16,"[0, 12, 9, 16]",4,8,"[2, 10, 13, 17, 18, 19, 23, 25]",168.137615,7041,1884,7,26,9,1.235383731443557
basic,47,36,0,0,0,17,"[0, 12, 9, 16, 17]",5,6,"[2, 10, 13, 18, 19, 25]",139.8180105,8035,994,7,14,9,1.6947865799475665
basic,47,36,0,0,0,19,"[0, 12, 9, 16, 17, 19]",6,5,"[2, 10, 13, 18, 25]",111.9253591,9521,1486,6,1,9,2.440059772477113
basic,47,36,0,0,0,13,"[0, 12, 9, 16, 17, 19, 13]",7,2,"[2, 25]",68.50877245,10225,704,2,0,9,2.3601901953162883
basic,47,36,0,0,0,25,"[0, 12, 9, 16, 17, 19, 13, 25]",8,1,[2],47.91751216,11101,876,1,0,9,2.2017827249313693
basic,47,36,0,0,1,2,"[0, 12, 9, 16, 17, 19, 13, 25, 2]",9,0,[],22.91751216,11823,722,1,0,9,2.453595116264792
basic,47,36,0,1,1,2,"[0, 12, 9, 16, 17, 19, 13, 25, 2]",9,0,[],22.91751216,12561,738,1,0,9,2.453595116264792
basic,48,18,0,0,0,0,[0],1,28,"[1, 2, 3, 4, 5, 6, 7, 8, 9, 10, 11, 12, 13, 14, 16, 17, 18, 19, 20, 21, 22, 23, 24, 25, 26, 27, 28, 29]",300,330,-1,3,136,10,0.0
basic,48,18,0,0,0,28,"[0, 28]",2,16,"[1, 3, 5, 7, 8, 9, 12, 13, 14, 16, 20, 23, 24, 25, 26, 27]",236.4311397,1455,1125,2,19,10,1.0
basic,48,18,0,0,0,7,"[0, 28, 7]",3,15,"[1, 3, 5, 8, 9, 12, 13, 14, 16, 20, 23, 24, 25, 26, 27]",214.4084242,2159,704,2,17,10,1.4345180696367563
basic,48,18,0,0,0,25,"[0, 28, 7, 25]",4,13,"[1, 3, 5, 8, 9, 12, 13, 14, 16, 20, 23, 26, 27]",186.6055466,2673,514,2,15,10,1.8896451241781882
basic,48,18,0,0,0,8,"[0, 28, 7, 25, 8]",5,10,"[3, 5, 9, 12, 13, 14, 16, 23, 26, 27]",149.551532,3357,684,2,10,10,1.590467437592877
basic,48,18,0,0,0,13,"[0, 28, 7, 25, 8, 13]",6,9,"[3, 5, 9, 12, 14, 16, 23, 26, 27]",128.4565089,3990,633,2,5,10,1.8248274983549797
basic,48,18,0,0,0,14,"[0, 28, 7, 25, 8, 13, 14]",7,7,"[3, 5, 9, 12, 23, 26, 27]",109.4828429,4484,494,2,3,10,1.6993534956692746
basic,48,18,0,0,0,3,"[0, 28, 7, 25, 8, 13, 14, 3]",8,3,"[5, 12, 27]",79.39962499,5166,682,2,1,10,1.802637206541468
basic,48,18,0,0,0,5,"[0, 28, 7, 25, 8, 13, 14, 3, 5]",9,1,[12],21.21887216,6184,1018,1,0,10,1.559774889743805
basic,48,18,0,0,1,12,"[0, 28, 7, 25, 8, 13, 14, 3, 5, 12]",10,0,[],9.817117911,6534,350,1,0,10,1.563993037384447
basic,48,18,0,1,1,12,"[0, 28, 7, 25, 8, 13, 14, 3, 5, 12]",10,0,[],9.817117911,8280,1746,1,0,10,1.563993037384447
basic,49,0,0,0,0,0,[0],1,27,"[2, 3, 4, 5, 6, 7, 8, 9, 10, 11, 12, 13, 14, 15, 16, 17, 19, 20, 21, 22, 23, 24, 25, 26, 27, 28, 29]",300,314,-1,104,1136,9,0.0
basic,49,0,0,0,0,5,"[0, 5]",2,24,"[2, 3, 4, 7, 8, 9, 11, 12, 13, 14, 15, 16, 17, 19, 20, 21, 22, 23, 24, 25, 26, 27, 28, 29]",164.5156836,7119,6805,5,112,9,1.0
basic,49,0,0,0,0,4,"[0, 5, 4]",3,20,"[2, 3, 7, 8, 9, 11, 12, 13, 14, 15, 17, 19, 20, 21, 22, 23, 24, 25, 26, 28]",139.4358112,7671,552,4,61,9,1.0257023158632692
basic,49,0,0,0,0,26,"[0, 5, 4, 26]",4,18,"[3, 7, 8, 9, 11, 12, 13, 14, 15, 17, 19, 20, 21, 22, 23, 24, 25, 28]",127.3942166,8095,424,4,26,9,1.0684029773259323
basic,49,0,0,0,0,24,"[0, 5, 4, 26, 24]",5,12,"[3, 7, 8, 9, 11, 12, 15, 17, 19, 20, 23, 28]",110.2769738,8489,394,4,16,9,1.1372083333602885
basic,49,0,0,0,0,15,"[0, 5, 4, 26, 24, 15]",6,8,"[3, 7, 8, 9, 11, 12, 17, 19]",86.93173875,9244,755,4,7,9,1.1271717591548023
basic,49,0,0,0,0,7,"[0, 5, 4, 26, 24, 15, 7]",7,4,"[3, 8, 17, 19]",55.86728962,10156,912,3,2,9,1.190834598819092
basic,49,0,0,0,0,8,"[0, 5, 4, 26, 24, 15, 7, 8]",8,2,"[3, 19]",36.76231644,11178,1022,2,0,9,1.1832849301094388
basic,49,0,0,0,1,3,"[0, 5, 4, 26, 24, 15, 7, 8, 3]",9,0,[],6.348503789,11790,612,1,0,9,1.3547295451928671
basic,49,0,0,1,1,3,"[0, 5, 4, 26, 24, 15, 7, 8, 3]",9,0,[],6.348503789,12863,1073,1,0,9,1.3547295451928671
basic,50,30,0,0,0,0,[0],1,19,"[3, 4, 5, 7, 9, 11, 16, 17, 18, 19, 20, 21, 22, 24, 25, 26, 27, 28, 29]",300,343,-1,5,41,8,0.0
basic,50,30,0,0,0,25,"[0, 25]",2,12,"[3, 5, 7, 9, 11, 16, 18, 19, 20, 24, 27, 29]",121.1005869,4125,3782,7,37,7,1.0
basic,50,30,0,0,0,27,"[0, 25, 27]",3,8,"[3, 5, 7, 18, 19, 20, 24, 29]",81.54050603,5009,884,2,17,7,1.0432445497342653
basic,50,30,0,0,0,3,"[0, 25, 27, 3]",4,5,"[5, 7, 18, 20, 29]",62.43553286,5393,384,2,6,7,1.0419393955972533
basic,50,30,0,0,0,29,"[0, 25, 27, 3, 29]",5,3,"[5, 7, 18]",43.83445762,5800,407,1,2,7,1.0521853644580021
basic,50,30,0,0,0,18,"[0, 25, 27, 3, 29, 18]",6,1,[5],24.5212497,7451,1651,1,0,7,1.1278751785159948
basic,50,30,0,0,1,5,"[0, 25, 27, 3, 29, 18, 5]",7,0,[],11.48284489,7685,234,1,0,7,1.1931367962604076
basic,50,30,0,1,1,5,"[0, 25, 27, 3, 29, 18, 5]",7,0,[],11.48284489,9495,1810,1,0,7,1.1931367962604076
basic,51,8,0,0,0,0,[0],1,29,"[1, 2, 3, 4, 5, 6, 7, 8, 9, 10, 11, 12, 13, 14, 15, 16, 17, 18, 19, 20, 21, 22, 23, 24, 25, 26, 27, 28, 29]",300,348,-1,10,149,9,0.0
basic,51,8,0,0,0,5,"[0, 5]",2,28,"[1, 2, 3, 4, 6, 7, 8, 9, 10, 11, 12, 13, 14, 15, 16, 17, 18, 19, 20, 21, 22, 23, 24, 25, 26, 27, 28, 29]",254.5137383,2134,1786,10,100,9,1.0
basic,51,8,0,0,0,14,"[0, 5, 14]",3,20,"[1, 2, 3, 4, 6, 7, 11, 15, 16, 17, 18, 19, 20, 21, 22, 23, 24, 25, 28, 29]",214.5512559,3852,1718,4,36,9,1.0001019035932595
basic,51,8,0,0,0,17,"[0, 5, 14, 17]",4,15,"[1, 4, 6, 7, 11, 15, 16, 18, 19, 20, 22, 23, 24, 25, 28]",177.5377449,4793,941,4,16,9,1.121197267659591
basic,51,8,0,0,0,11,"[0, 5, 14, 17, 11]",5,11,"[1, 4, 15, 16, 18, 19, 22, 23, 24, 25, 28]",152.3583883,5545,752,4,8,9,1.1277254166016362
basic,51,8,0,0,0,24,"[0, 5, 14, 17, 11, 24]",6,3,"[15, 16, 28]",115.1428001,6251,706,2,2,9,1.1227411011978805
basic,51,8,0,0,0,15,"[0, 5, 14, 17, 11, 24, 15]",7,2,"[16, 28]",98.37974552,6802,551,2,0,9,1.1956385406066814
basic,51,8,0,0,0,16,"[0, 5, 14, 17, 11, 24, 15, 16]",8,1,[28],47.30137436,7605,803,1,0,9,1.36482239111247
basic,51,8,0,0,1,28,"[0, 5, 14, 17, 11, 24, 15, 16, 28]",9,0,[],24.94069458,8201,596,1,0,9,1.632953105226947
basic,51,8,0,1,1,28,"[0, 5, 14, 17, 11, 24, 15, 16, 28]",9,0,[],24.94069458,8880,679,1,0,9,1.632953105226947
basic,52,14,0,0,0,0,[0],1,29,"[1, 2, 3, 4, 5, 6, 7, 8, 9, 10, 11, 12, 13, 14, 15, 16, 17, 18, 19, 20, 21, 22, 23, 24, 25, 26, 27, 28, 29]",300,363,-1,8,157,10,0.0
basic,52,14,0,0,0,18,"[0, 18]",2,17,"[1, 2, 3, 4, 7, 8, 9, 13, 15, 17, 19, 20, 22, 23, 25, 26, 28]",179.8958785,4592,4229,18,136,9,1.0
basic,52,14,0,0,0,8,"[0, 18, 8]",3,13,"[1, 2, 4, 7, 13, 15, 17, 19, 20, 23, 25, 26, 28]",166.294408,4984,392,18,99,9,1.0203858410107731
basic,52,14,0,0,0,19,"[0, 18, 8, 19]",4,10,"[1, 2, 4, 7, 15, 17, 23, 25, 26, 28]",145.6788799,5456,472,7,52,9,1.0436397834807676
basic,52,14,0,0,0,1,"[0, 18, 8, 19, 1]",5,9,"[2, 4, 7, 15, 17, 23, 25, 26, 28]",130.4473337,6549,1093,7,21,9,1.096538583531719
basic,52,14,0,0,0,26,"[0, 18, 8, 19, 1, 26]",6,4,"[4, 7, 23, 25]",75.70247088,7552,1003,2,4,9,1.1305399427709442
basic,52,14,0,0,0,23,"[0, 18, 8, 19, 1, 26, 23]",7,3,"[4, 7, 25]",64.88581706,7917,365,2,1,9,1.2508020127641972
basic,52,14,0,0,0,25,"[0, 18, 8, 19, 1, 26, 23, 25]",8,1,[7],35.47493472,8510,593,1,0,9,1.6160852369336203
basic,52,14,0,0,1,7,"[0, 18, 8, 19, 1, 26, 23, 25, 7]",9,0,[],15.77721911,9304,794,1,0,9,1.6274549091166954
basic,52,14,0,1,1,7,"[0, 18, 8, 19, 1, 26, 23, 25, 7]",9,0,[],15.77721911,10545,1241,1,0,9,1.6274549091166954
basic,53,19,0,0,0,0,[0],1,29,"[1, 2, 3, 4, 5, 6, 7, 8, 9, 10, 11, 12, 13, 14, 15, 16, 17, 18, 19, 20, 21, 22, 23, 24, 25, 26, 27, 28, 29]",300,331,-1,12,149,8,0.0
basic,53,19,0,0,0,9,"[0, 9]",2,21,"[1, 4, 5, 6, 7, 10, 11, 12, 13, 14, 15, 19, 20, 21, 22, 23, 24, 25, 27, 28, 29]",185.9956141,3591,3260,13,76,7,1.0
basic,53,19,0,0,0,6,"[0, 9, 6]",3,13,"[4, 7, 10, 11, 13, 14, 20, 21, 22, 24, 27, 28, 29]",144.5589154,4168,577,13,38,7,1.0111071984935167
basic,53,19,0,0,0,28,"[0, 9, 6, 28]",4,5,"[4, 11, 14, 22, 27]",93.47075631,4934,766,2,4,7,1.2602621425624105
basic,53,19,0,0,0,4,"[0, 9, 6, 28, 4]",5,4,"[11, 14, 22, 27]",82.29041642,5286,352,2,2,7,1.3210056324457753
basic,53,19,0,0,0,14,"[0, 9, 6, 28, 4, 14]",6,1,[11],32.28041742,6134,848,1,0,7,1.2802078016419174
basic,53,19,0,0,1,11,"[0, 9, 6, 28, 4, 14, 11]",7,0,[],21.4637636,6652,518,1,0,7,1.2703725192277202
basic,53,19,0,1,1,11,"[0, 9, 6, 28, 4, 14, 11]",7,0,[],21.4637636,7179,527,1,0,7,1.2703725192277202
basic,54,35,0,0,0,0,[0],1,29,"[1, 2, 3, 4, 5, 6, 7, 8, 9, 10, 11, 12, 13, 14, 15, 16, 17, 18, 19, 20, 21, 22, 23, 24, 25, 26, 27, 28, 29]",300,331,-1,5,236,11,0.0
basic,54,35,0,0,0,24,"[0, 24]",2,27,"[1, 2, 4, 5, 6, 7, 8, 9, 10, 11, 12, 13, 14, 15, 16, 17, 18, 19, 20, 21, 22, 23, 25, 26, 27, 28, 29]",268.9838752,2878,2547,49,512,10,1.0
basic,54,35,0,0,0,17,"[0, 24, 17]",3,26,"[1, 2, 4, 5, 6, 7, 8, 9, 10, 11, 12, 13, 14, 15, 16, 18, 19, 20, 21, 22, 23, 25, 26, 27, 28, 29]",257.2791753,3302,424,33,238,10,1.0771477201815276
basic,54,35,0,0,0,1,"[0, 24, 17, 1]",4,25,"[2, 4, 5, 6, 7, 8, 9, 10, 11, 12, 13, 14, 15, 16, 18, 19, 20, 21, 22, 23, 25, 26, 27, 28, 29]",241.4677869,4084,782,26,151,10,1.2244804141479215
basic,54,35,0,0,0,15,"[0, 24, 17, 1, 15]",5,23,"[2, 4, 5, 6, 7, 8, 9, 10, 11, 12, 14, 16, 18, 19, 20, 21, 22, 23, 25, 26, 27, 28, 29]",218.6204676,4800,716,26,78,10,1.4642196672428094
basic,54,35,0,0,0,23,"[0, 24, 17, 1, 15, 23]",6,11,"[4, 5, 6, 9, 18, 19, 25, 26, 27, 28, 29]",158.1804147,7084,2284,15,12,10,1.3338903684702363
basic,54,35,0,0,0,9,"[0, 24, 17, 1, 15, 23, 9]",7,6,"[5, 6, 18, 19, 25, 27]",120.5373542,7736,652,6,1,10,1.5964380615155294
basic,54,35,0,0,0,18,"[0, 24, 17, 1, 15, 23, 9, 18]",8,3,"[5, 6, 25]",100.5123698,8273,537,2,1,10,1.5508488101942703
basic,54,35,0,0,0,25,"[0, 24, 17, 1, 15, 23, 9, 18, 25]",9,1,[6],66.67452121,9451,1178,1,0,10,1.4408023801578587
basic,54,35,0,0,1,6,"[0, 24, 17, 1, 15, 23, 9, 18, 25, 6]",10,0,[],42.65369691,10112,661,1,0,10,1.701781671832088
basic,54,35,0,1,1,6,"[0, 24, 17, 1, 15, 23, 9, 18, 25, 6]",10,0,[],42.65369691,10713,601,1,0,10,1.701781671832088
basic,55,42,0,0,0,0,[0],1,29,"[1, 2, 3, 4, 5, 6, 7, 8, 9, 10, 11, 12, 13, 14, 15, 16, 17, 18, 19, 20, 21, 22, 23, 24, 25, 26, 27, 28, 29]",300,329,-1,16,302,9,0.0
basic,55,42,0,0,0,5,"[0, 5]",2,28,"[1, 2, 3, 4, 6, 7, 8, 9, 10, 11, 12, 13, 14, 15, 16, 17, 18, 19, 20, 21, 22, 23, 24, 25, 26, 27, 28, 29]",191.2939744,2273,1944,1,22,9,1.0
basic,55,42,0,0,0,4,"[0, 5, 4]",3,23,"[1, 2, 3, 6, 7, 8, 9, 10, 11, 13, 15, 17, 18, 19, 20, 21, 22, 23, 24, 25, 26, 27, 29]",171.4445412,2695,422,1,14,9,1.420957801478707
basic,55,42,0,0,0,22,"[0, 5, 4, 22]",4,20,"[1, 2, 3, 6, 7, 8, 9, 11, 15, 17, 18, 19, 20, 21, 23, 24, 25, 26, 27, 29]",160.2642013,3229,534,1,11,9,1.5771494659680896
basic,55,42,0,0,0,8,"[0, 5, 4, 22, 8]",5,14,"[1, 2, 3, 6, 7, 11, 15, 18, 19, 24, 25, 26, 27, 29]",138.1282577,3753,524,1,10,9,1.5055393955524201
basic,55,42,0,0,0,1,"[0, 5, 4, 22, 8, 1]",6,5,"[2, 7, 19, 26, 27]",89.03650682,4577,824,1,7,9,1.3547259083637835
basic,55,42,0,0,0,7,"[0, 5, 4, 22, 8, 1, 7]",7,4,"[2, 19, 26, 27]",59.03650682,5579,1002,1,3,9,1.3909715672447451
basic,55,42,0,0,0,26,"[0, 5, 4, 22, 8, 1, 7, 26]",8,1,[27],32.46584631,6423,844,1,0,9,1.3511825943939393
basic,55,42,0,0,1,27,"[0, 5, 4, 22, 8, 1, 7, 26, 27]",9,0,[],14.43808994,7291,868,1,0,9,1.3391911688802078
basic,55,42,0,1,1,27,"[0, 5, 4, 22, 8, 1, 7, 26, 27]",9,0,[],14.43808994,8245,954,1,0,9,1.3391911688802078
basic,56,39,0,0,0,0,[0],1,28,"[1, 2, 3, 4, 5, 6, 7, 9, 10, 11, 12, 13, 14, 15, 16, 17, 18, 19, 20, 21, 22, 23, 24, 25, 26, 27, 28, 29]",300,335,-1,1,30,10,0.0
basic,56,39,0,0,0,29,"[0, 29]",2,26,"[1, 2, 3, 4, 5, 6, 7, 9, 10, 12, 13, 14, 15, 16, 17, 18, 19, 20, 21, 22, 23, 24, 25, 26, 27, 28]",243.0614366,1630,1295,8,104,9,1.0
basic,56,39,0,0,0,12,"[0, 29, 12]",3,18,"[1, 2, 4, 5, 7, 9, 10, 13, 14, 15, 16, 18, 19, 22, 23, 24, 26, 28]",182.5221931,2485,855,5,54,9,1.0026200331524904
basic,56,39,0,0,0,10,"[0, 29, 12, 10]",4,16,"[1, 2, 4, 5, 7, 9, 13, 14, 15, 16, 18, 19, 22, 23, 24, 26]",147.0116313,3168,683,5,34,9,1.2874817019928908
basic,56,39,0,0,0,7,"[0, 29, 12, 10, 7]",5,10,"[1, 2, 5, 13, 16, 18, 19, 22, 24, 26]",113.5900814,3760,592,4,12,9,1.2250826263866774
basic,56,39,0,0,0,26,"[0, 29, 12, 10, 7, 26]",6,5,"[1, 16, 18, 19, 22]",94.90853971,4769,1009,3,4,9,1.2697275353190085
basic,56,39,0,0,0,22,"[0, 29, 12, 10, 7, 26, 22]",7,2,"[16, 19]",77.18849457,5538,769,2,0,9,1.438961743955176
basic,56,39,0,0,0,16,"[0, 29, 12, 10, 7, 26, 22, 16]",8,1,[19],42.18849457,6806,1268,1,0,9,1.3580882130477205
basic,56,39,0,0,1,19,"[0, 29, 12, 10, 7, 26, 22, 16, 19]",9,0,[],24.72424537,7339,533,1,0,9,1.3646589157842668
basic,56,39,0,1,1,19,"[0, 29, 12, 10, 7, 26, 22, 16, 19]",9,0,[],24.72424537,8631,1292,1,0,9,1.3646589157842668
basic,57,41,0,0,0,0,[0],1,29,"[1, 2, 3, 4, 5, 6, 7, 8, 9, 10, 11, 12, 13, 14, 15, 16, 17, 18, 19, 20, 21, 22, 23, 24, 25, 26, 27, 28, 29]",300,316,-1,1,143,10,0.0
basic,57,41,0,0,0,13,"[0, 13]",2,23,"[1, 2, 3, 5, 6, 7, 9, 10, 11, 12, 14, 15, 17, 18, 19, 20, 21, 22, 24, 25, 26, 27, 28]",258.2747079,2494,2178,1,55,10,1.0
basic,57,41,0,0,0,28,"[0, 13, 28]",3,22,"[1, 2, 3, 5, 6, 7, 9, 10, 11, 12, 14, 15, 17, 18, 19, 20, 21, 22, 24, 25, 26, 27]",223.7928286,3288,794,1,39,10,1.895724242592676
basic,57,41,0,0,0,5,"[0, 13, 28, 5]",4,19,"[1, 2, 3, 6, 9, 10, 11, 12, 14, 15, 17, 18, 19, 20, 21, 22, 24, 25, 27]",210.1913581,3653,365,1,34,10,2.861541269398273
basic,57,41,0,0,0,3,"[0, 13, 28, 5, 3]",5,16,"[1, 2, 6, 9, 10, 12, 14, 17, 18, 19, 20, 21, 22, 24, 25, 27]",175.3632086,4287,634,1,22,10,3.1455488489005883
basic,57,41,0,0,0,21,"[0, 13, 28, 5, 3, 21]",6,14,"[1, 2, 6, 9, 10, 12, 14, 17, 18, 19, 20, 22, 25, 27]",143.2228912,4904,617,13,11,9,3.207558429289677
basic,57,41,0,0,0,9,"[0, 13, 28, 5, 3, 21, 9]",7,6,"[1, 2, 10, 12, 14, 17]",93.85691102,5651,747,7,4,9,2.5050148501792275
basic,57,41,0,0,0,2,"[0, 13, 28, 5, 3, 21, 9, 2]",8,5,"[1, 10, 12, 14, 17]",81.77386505,6145,494,5,0,9,2.4119643847713177
basic,57,41,0,0,1,17,"[0, 13, 28, 5, 3, 21, 9, 2, 17]",9,0,[],49.21622385,6858,713,1,0,9,3.9563478735796007
basic,57,41,0,1,1,17,"[0, 13, 28, 5, 3, 21, 9, 2, 17]",9,0,[],49.21622385,9465,2607,1,0,9,3.9563478735796007
basic,58,13,0,0,0,0,[0],1,29,"[1, 2, 3, 4, 5, 6, 7, 8, 9, 10, 11, 12, 13, 14, 15, 16, 17, 18, 19, 20, 21, 22, 23, 24, 25, 26, 27, 28, 29]",300,335,-1,60,2676,11,0.0
basic,58,13,0,0,0,24,"[0, 24]",2,28,"[1, 2, 3, 4, 5, 6, 7, 8, 9, 10, 11, 12, 13, 14, 15, 16, 17, 18, 19, 20, 21, 22, 23, 25, 26, 27, 28, 29]",288.8196601,1874,1539,16,1444,11,1.0
basic,58,13,0,0,0,23,"[0, 24, 23]",3,27,"[1, 2, 3, 4, 5, 6, 7, 8, 9, 10, 11, 12, 13, 14, 15, 16, 17, 18, 19, 20, 21, 22, 25, 26, 27, 28, 29]",243.1140806,3186,1312,2,868,11,1.0065545717039834
basic,58,13,0,0,0,28,"[0, 24, 23, 28]",4,21,"[1, 2, 3, 4, 6, 7, 9, 10, 11, 12, 13, 15, 16, 17, 19, 20, 21, 22, 26, 27, 29]",177.7458926,4587,1401,1,253,11,1.6592183354372274
basic,58,13,0,0,0,2,"[0, 24, 23, 28, 2]",5,15,"[1, 3, 6, 7, 9, 11, 12, 13, 15, 16, 17, 19, 21, 26, 29]",140.1028322,5611,1024,1,80,11,1.459046951791535
basic,58,13,0,0,0,29,"[0, 24, 23, 28, 2, 29]",6,9,"[1, 6, 7, 11, 13, 16, 17, 19, 26]",128.3981322,6025,414,1,31,11,1.5417142413159963
basic,58,13,0,0,0,7,"[0, 24, 23, 28, 2, 29, 7]",7,8,"[1, 6, 11, 13, 16, 17, 19, 26]",113.1337947,6510,485,1,10,11,1.77525557938341
basic,58,13,0,0,0,26,"[0, 24, 23, 28, 2, 29, 7, 26]",8,6,"[1, 6, 11, 13, 16, 19]",102.6934882,6884,374,1,4,11,2.0623372568692724
basic,58,13,0,0,0,6,"[0, 24, 23, 28, 2, 29, 7, 26, 6]",9,3,"[11, 13, 16]",82.59373697,7779,895,1,2,11,2.002320377701536
basic,58,13,0,0,0,11,"[0, 24, 23, 28, 2, 29, 7, 26, 6, 11]",10,1,[13],63.48876379,8367,588,1,0,11,1.8540921292495773
basic,58,13,0,0,1,13,"[0, 24, 23, 28, 2, 29, 7, 26, 6, 11, 13]",11,0,[],7.408464223,10851,2484,1,0,11,1.6123988786574368
basic,58,13,0,1,1,13,"[0, 24, 23, 28, 2, 29, 7, 26, 6, 11, 13]",11,0,[],7.408464223,11864,1013,1,0,11,1.6123988786574368
basic,59,29,0,0,0,0,[0],1,29,"[1, 2, 3, 4, 5, 6, 7, 8, 9, 10, 11, 12, 13, 14, 15, 16, 17, 18, 19, 20, 21, 22, 23, 24, 25, 26, 27, 28, 29]",300,346,-1,1,78,9,0.0
basic,59,29,0,0,0,14,"[0, 14]",2,22,"[1, 3, 4, 5, 6, 7, 9, 10, 11, 12, 13, 15, 16, 17, 21, 22, 23, 25, 26, 27, 28, 29]",209.490332,1667,1321,21,110,8,1.0
basic,59,29,0,0,0,13,"[0, 14, 13]",3,18,"[1, 4, 5, 6, 7, 9, 10, 12, 15, 16, 17, 21, 22, 25, 26, 27, 28, 29]",191.4625756,2230,563,20,75,8,1.0027006502223275
basic,59,29,0,0,0,5,"[0, 14, 13, 5]",4,15,"[1, 4, 6, 7, 9, 12, 15, 17, 21, 22, 25, 26, 27, 28, 29]",165.7526554,2943,713,19,49,8,1.0803937325657265
basic,59,29,0,0,0,22,"[0, 14, 13, 5, 22]",5,9,"[4, 6, 7, 9, 12, 26, 27, 28, 29]",111.4111427,4377,1434,7,11,8,1.6123417790752979
basic,59,29,0,0,0,27,"[0, 14, 13, 5, 22, 27]",6,5,"[6, 7, 12, 26, 28]",78.16960241,5039,662,3,3,8,2.047500445885662
basic,59,29,0,0,0,28,"[0, 14, 13, 5, 22, 27, 28]",7,2,"[6, 26]",57.65131788,5711,672,2,0,8,2.496318429266821
basic,59,29,0,0,1,6,"[0, 14, 13, 5, 22, 27, 28, 6]",8,0,[],16.42026163,6503,792,1,0,8,3.961213610880374
basic,59,29,0,1,1,6,"[0, 14, 13, 5, 22, 27, 28, 6]",8,0,[],16.42026163,7279,776,1,0,8,3.961213610880374
basic,60,6,0,0,0,0,[0],1,29,"[1, 2, 3, 4, 5, 6, 7, 8, 9, 10, 11, 12, 13, 14, 15, 16, 17, 18, 19, 20, 21, 22, 23, 24, 25, 26, 27, 28, 29]",300,358,-1,180,4304,10,0.0
basic,60,6,0,0,0,3,"[0, 3]",2,28,"[1, 2, 4, 5, 6, 7, 8, 9, 10, 11, 12, 13, 14, 15, 16, 17, 18, 19, 20, 21, 22, 23, 24, 25, 26, 27, 28, 29]",266.4738908,1601,1243,90,1607,10,1.0
basic,60,6,0,0,0,18,"[0, 3, 18]",3,27,"[1, 2, 4, 5, 6, 7, 8, 9, 10, 11, 12, 13, 14, 15, 16, 17, 19, 20, 21, 22, 23, 24, 25, 26, 27, 28, 29]",237.4738908,2120,519,34,516,10,1.0266750028725786
basic,60,6,0,0,0,17,"[0, 3, 18, 17]",4,26,"[1, 2, 4, 5, 6, 7, 8, 9, 10, 11, 12, 13, 14, 15, 16, 19, 20, 21, 22, 23, 24, 25, 26, 27, 28, 29]",223.5455025,3618,1498,17,243,10,1.0832900829093166
basic,60,6,0,0,0,10,"[0, 3, 18, 17, 10]",5,22,"[1, 2, 4, 5, 6, 7, 8, 9, 11, 13, 14, 16, 19, 20, 21, 22, 23, 24, 26, 27, 28, 29]",203.8224196,4080,462,10,111,10,1.140294203414171
basic,60,6,0,0,0,24,"[0, 3, 18, 17, 10, 24]",6,19,"[1, 2, 4, 5, 6, 7, 8, 11, 13, 14, 16, 20, 21, 22, 23, 26, 27, 28, 29]",190.4060117,4442,362,10,80,10,1.1264281153820843
basic,60,6,0,0,0,16,"[0, 3, 18, 17, 10, 24, 16]",7,13,"[1, 2, 6, 7, 13, 14, 20, 21, 22, 23, 26, 27, 29]",134.3703088,5217,775,6,21,10,2.2946652061367843
basic,60,6,0,0,0,29,"[0, 3, 18, 17, 10, 24, 16, 29]",8,7,"[6, 14, 20, 21, 22, 23, 27]",97.68243615,5878,661,5,5,10,1.8995488998077483
basic,60,6,0,0,0,23,"[0, 3, 18, 17, 10, 24, 16, 29, 23]",9,2,"[6, 22]",50.16401866,6612,734,2,0,10,1.8616504050291767
basic,60,6,0,0,1,6,"[0, 3, 18, 17, 10, 24, 16, 29, 23, 6]",10,0,[],14.8086796,8149,1537,1,0,10,1.7707258119152334
basic,60,6,0,1,1,6,"[0, 3, 18, 17, 10, 24, 16, 29, 23, 6]",10,0,[],14.8086796,13280,5131,1,0,10,1.7707258119152334
basic,61,38,0,0,0,0,[0],1,29,"[1, 2, 3, 4, 5, 6, 7, 8, 9, 10, 11, 12, 13, 14, 15, 16, 17, 18, 19, 20, 21, 22, 23, 24, 25, 26, 27, 28, 29]",300,335,-1,33,506,9,0.0
basic,61,38,0,0,0,11,"[0, 11]",2,23,"[1, 2, 3, 4, 5, 7, 10, 12, 13, 14, 15, 16, 17, 18, 19, 20, 21, 22, 24, 25, 26, 27, 28]",220.093805,3171,2836,2,40,9,1.0
basic,61,38,0,0,0,28,"[0, 11, 28]",3,16,"[1, 4, 5, 7, 10, 12, 13, 14, 15, 16, 17, 19, 20, 21, 24, 26]",193.0752928,5103,1932,2,20,9,1.0012220945316377
basic,61,38,0,0,0,16,"[0, 11, 28, 16]",4,13,"[1, 4, 5, 10, 12, 13, 14, 15, 17, 19, 20, 24, 26]",164.0752928,6437,1334,2,16,9,1.2422672958602723
basic,61,38,0,0,0,15,"[0, 11, 28, 16, 15]",5,9,"[4, 5, 13, 14, 17, 19, 20, 24, 26]",122.4579887,8083,1646,2,14,9,2.4196280466601676
basic,61,38,0,0,0,4,"[0, 11, 28, 16, 15, 4]",6,6,"[13, 17, 19, 20, 24, 26]",96.45798873,9516,1433,2,9,9,2.9030072771852855
basic,61,38,0,0,0,20,"[0, 11, 28, 16, 15, 4, 20]",7,3,"[13, 17, 19]",62.51686323,10455,939,1,2,9,4.409951139385221
basic,61,38,0,0,0,17,"[0, 11, 28, 16, 15, 4, 20, 17]",8,1,[19],38.74713459,11249,794,1,0,9,4.030739410625113
basic,61,38,0,0,1,19,"[0, 11, 28, 16, 15, 4, 20, 17, 19]",9,0,[],17.36957626,11671,422,1,0,9,3.511004666623391
basic,61,38,0,1,1,19,"[0, 11, 28, 16, 15, 4, 20, 17, 19]",9,0,[],17.36957626,12728,1057,1,0,9,3.511004666623391
basic,62,44,0,0,0,0,[0],1,29,"[1, 2, 3, 4, 5, 6, 7, 8, 9, 10, 11, 12, 13, 14, 15, 16, 17, 18, 19, 20, 21, 22, 23, 24, 25, 26, 27, 28, 29]",300,330,-1,13,126,7,0.0
basic,62,44,0,0,0,11,"[0, 11]",2,18,"[4, 5, 6, 7, 8, 9, 12, 14, 16, 17, 19, 20, 22, 23, 24, 25, 26, 28]",152.7790776,3536,3206,5,34,7,1.0
basic,62,44,0,0,0,24,"[0, 11, 24]",3,13,"[4, 5, 7, 8, 9, 12, 14, 17, 20, 22, 23, 25, 28]",125.8532535,4666,1130,5,23,7,1.1588941745226709
basic,62,44,0,0,0,9,"[0, 11, 24, 9]",4,7,"[4, 7, 8, 12, 14, 20, 23]",93.09657483,5336,670,2,8,7,1.3039383713641313
basic,62,44,0,0,0,4,"[0, 11, 24, 9, 4]",5,5,"[7, 12, 14, 20, 23]",73.39885923,5883,547,2,3,7,1.2901330701441578
basic,62,44,0,0,0,7,"[0, 11, 24, 9, 4, 7]",6,1,[23],42.38273439,6417,534,1,0,7,1.2468141312360979
basic,62,44,0,0,1,23,"[0, 11, 24, 9, 4, 7, 23]",7,0,[],23.27776121,7128,711,1,0,7,1.2635191782769477
basic,62,44,0,1,1,23,"[0, 11, 24, 9, 4, 7, 23]",7,0,[],23.27776121,9295,2167,1,0,7,1.2635191782769477
basic,63,27,0,0,0,0,[0],1,26,"[1, 3, 5, 6, 7, 8, 9, 10, 11, 12, 13, 14, 15, 16, 17, 18, 19, 21, 22, 23, 24, 25, 26, 27, 28, 29]",300,350,-1,13,578,11,0.0
basic,63,27,0,0,0,15,"[0, 15]",2,24,"[1, 3, 5, 6, 7, 8, 9, 10, 11, 12, 13, 14, 16, 17, 18, 19, 21, 22, 23, 24, 25, 26, 27, 29]",263.7508621,6879,6529,6,219,11,1.0
basic,63,27,0,0,0,24,"[0, 15, 24]",3,20,"[1, 5, 6, 7, 8, 9, 10, 12, 13, 14, 16, 17, 18, 19, 21, 23, 25, 26, 27, 29]",246.5462115,7572,693,6,130,11,1.130933077698322
basic,63,27,0,0,0,17,"[0, 15, 24, 17]",4,15,"[1, 6, 8, 10, 12, 13, 14, 16, 18, 19, 23, 25, 26, 27, 29]",229.9932662,8087,515,4,60,11,1.1285538435963374
basic,63,27,0,0,0,12,"[0, 15, 24, 17, 12]",5,14,"[1, 6, 8, 10, 13, 14, 16, 18, 19, 23, 25, 26, 27, 29]",218.8129263,8510,423,2,32,11,1.2561880288755216
basic,63,27,0,0,0,10,"[0, 15, 24, 17, 12, 10]",6,11,"[1, 8, 13, 14, 18, 19, 23, 25, 26, 27, 29]",207.7675653,9004,494,2,28,11,1.2228289337766665
basic,63,27,0,0,0,13,"[0, 15, 24, 17, 12, 10, 13]",7,9,"[1, 8, 14, 18, 19, 23, 26, 27, 29]",167.9178476,9898,894,2,18,11,1.3421291994761178
basic,63,27,0,0,0,19,"[0, 15, 24, 17, 12, 10, 13, 19]",8,5,"[1, 8, 14, 23, 29]",131.6825057,10653,755,2,6,11,1.294749956153846
basic,63,27,0,0,0,8,"[0, 15, 24, 17, 12, 10, 13, 19, 8]",9,3,"[14, 23, 29]",116.816437,11530,877,2,1,11,1.3554286578836865
basic,63,27,0,0,0,29,"[0, 15, 24, 17, 12, 10, 13, 19, 8, 29]",10,1,[14],57.61339652,12483,953,1,0,11,1.248354519573802
basic,63,27,0,0,1,14,"[0, 15, 24, 17, 12, 10, 13, 19, 8, 29, 14]",11,0,[],13.31892734,13106,623,1,0,11,1.562811097555156
basic,63,27,0,1,1,14,"[0, 15, 24, 17, 12, 10, 13, 19, 8, 29, 14]",11,0,[],13.31892734,14065,959,1,0,11,1.562811097555156
basic,64,10,0,0,0,0,[0],1,29,"[1, 2, 3, 4, 5, 6, 7, 8, 9, 10, 11, 12, 13, 14, 15, 16, 17, 18, 19, 20, 21, 22, 23, 24, 25, 26, 27, 28, 29]",300,346,-1,1,100,9,0.0
basic,64,10,0,0,0,13,"[0, 13]",2,25,"[1, 2, 3, 4, 6, 7, 8, 9, 10, 11, 12, 14, 17, 18, 19, 20, 21, 22, 23, 24, 25, 26, 27, 28, 29]",249.4628849,1855,1509,1,79,9,1.0
basic,64,10,0,0,0,11,"[0, 13, 11]",3,20,"[1, 2, 3, 6, 7, 8, 9, 10, 12, 14, 18, 19, 20, 21, 22, 24, 26, 27, 28, 29]",206.4512586,3335,1480,1,54,9,1.0313137484914219
basic,64,10,0,0,0,19,"[0, 13, 11, 19]",4,11,"[2, 6, 8, 9, 10, 14, 18, 20, 24, 26, 27]",170.0919407,4005,670,1,22,9,1.0879446220132545
basic,64,10,0,0,0,2,"[0, 13, 11, 19, 2]",5,4,"[14, 20, 26, 27]",126.1829439,5201,1196,1,4,9,1.06474052351343
basic,64,10,0,0,0,14,"[0, 13, 11, 19, 2, 14]",6,3,"[20, 26, 27]",114.0174188,5505,304,1,3,9,1.1628909195912238
basic,64,10,0,0,0,26,"[0, 13, 11, 19, 2, 14, 26]",7,2,"[20, 27]",79.34754716,6319,814,1,1,9,1.6660727647633602
basic,64,10,0,0,0,20,"[0, 13, 11, 19, 2, 14, 26, 20]",8,1,[27],47.56704999,7405,1086,1,0,9,2.085581809637999
basic,64,10,0,0,1,27,"[0, 13, 11, 19, 2, 14, 26, 20, 27]",9,0,[],2.312215998,8851,1446,1,0,9,1.9116357409137932
basic,64,10,0,1,1,27,"[0, 13, 11, 19, 2, 14, 26, 20, 27]",9,0,[],2.312215998,16463,7612,1,0,9,1.9116357409137932
basic,65,16,0,0,0,0,[0],1,29,"[1, 2, 3, 4, 5, 6, 7, 8, 9, 10, 11, 12, 13, 14, 15, 16, 17, 18, 19, 20, 21, 22, 23, 24, 25, 26, 27, 28, 29]",300,380,-1,13,161,9,0.0
basic,65,16,0,0,0,17,"[0, 17]",2,27,"[1, 2, 3, 4, 5, 7, 8, 9, 10, 11, 12, 13, 14, 15, 16, 18, 19, 20, 21, 22, 23, 24, 25, 26, 27, 28, 29]",241.3058776,2810,2430,2,58,9,1.0
basic,65,16,0,0,0,16,"[0, 17, 16]",3,26,"[1, 2, 3, 4, 5, 7, 8, 9, 10, 11, 12, 13, 14, 15, 18, 19, 20, 21, 22, 23, 24, 25, 26, 27, 28, 29]",212.9862731,4218,1408,2,52,9,1.0529535521792848
basic,65,16,0,0,0,8,"[0, 17, 16, 8]",4,19,"[2, 3, 4, 5, 9, 12, 13, 14, 15, 19, 20, 21, 22, 23, 25, 26, 27, 28, 29]",164.6127266,5020,802,2,38,9,1.0915134501573105
basic,65,16,0,0,0,20,"[0, 17, 16, 8, 20]",5,10,"[3, 4, 5, 9, 12, 13, 15, 19, 21, 25]",106.8372993,5904,884,1,15,9,1.067523143001942
basic,65,16,0,0,0,25,"[0, 17, 16, 8, 20, 25]",6,7,"[3, 4, 5, 9, 12, 13, 15]",94.18818869,6236,332,1,9,9,1.1170093326933646
basic,65,16,0,0,0,9,"[0, 17, 16, 8, 20, 25, 9]",7,5,"[3, 4, 5, 13, 15]",81.38194021,6752,516,1,4,9,1.1095076562662525
basic,65,16,0,0,0,15,"[0, 17, 16, 8, 20, 25, 9, 15]",8,1,[5],42.48463953,7562,810,1,0,9,1.213831159678775
basic,65,16,0,0,1,5,"[0, 17, 16, 8, 20, 25, 9, 15, 5]",9,0,[],13.0567616,9240,1678,1,0,9,1.5171779607523481
basic,65,16,0,1,1,5,"[0, 17, 16, 8, 20, 25, 9, 15, 5]",9,0,[],13.0567616,10929,1689,1,0,9,1.5171779607523481
basic,66,20,0,0,0,0,[0],1,21,"[1, 2, 3, 4, 5, 6, 7, 8, 9, 12, 17, 18, 20, 21, 22, 23, 25, 26, 27, 28, 29]",300,347,-1,1,9,9,0.0
basic,66,20,0,0,0,1,"[0, 1]",2,14,"[3, 4, 5, 6, 8, 9, 12, 20, 21, 23, 26, 27, 28, 29]",197.3501096,3013,2666,1,9,8,1.0
basic,66,20,0,0,0,5,"[0, 1, 5]",3,12,"[4, 6, 8, 9, 12, 20, 21, 23, 26, 27, 28, 29]",160.675868,3817,804,1,8,8,1.1088946720668915
basic,66,20,0,0,0,21,"[0, 1, 5, 21]",4,8,"[4, 6, 8, 9, 20, 23, 27, 28]",115.675868,4688,871,1,6,8,1.0805828994591202
basic,66,20,0,0,0,8,"[0, 1, 5, 21, 8]",5,5,"[6, 9, 23, 27, 28]",98.21161876,5035,347,1,5,8,1.0976815296746363
basic,66,20,0,0,0,27,"[0, 1, 5, 21, 8, 27]",6,1,[23],57.98724804,6142,1107,1,0,7,1.2719907843846436
basic,66,20,0,0,1,23,"[0, 1, 5, 21, 8, 27, 23]",7,0,[],5.977633539,7197,1055,1,0,7,1.2908014903941913
basic,66,20,0,1,1,23,"[0, 1, 5, 21, 8, 27, 23]",7,0,[],5.977633539,8113,916,1,0,7,1.2908014903941913
basic,67,12,0,0,0,0,[0],1,29,"[1, 2, 3, 4, 5, 6, 7, 8, 9, 10, 11, 12, 13, 14, 15, 16, 17, 18, 19, 20, 21, 22, 23, 24, 25, 26, 27, 28, 29]",300,330,-1,2,32,9,0.0
basic,67,12,0,0,0,25,"[0, 25]",2,16,"[2, 4, 5, 6, 7, 9, 12, 14, 16, 18, 19, 22, 23, 24, 27, 28]",225.7975742,2223,1893,5,34,8,1.0
basic,67,12,0,0,0,16,"[0, 25, 16]",3,11,"[2, 4, 5, 6, 7, 12, 14, 19, 22, 24, 27]",169.0701557,3741,1518,4,22,8,1.4434159828731936
basic,67,12,0,0,0,22,"[0, 25, 16, 22]",4,10,"[2, 4, 5, 6, 7, 12, 14, 19, 24, 27]",148.0701557,4135,394,2,13,8,1.726364042386772
basic,67,12,0,0,0,4,"[0, 25, 16, 22, 4]",5,5,"[12, 14, 19, 24, 27]",103.4719495,4673,538,2,5,8,1.5733828402319396
basic,67,12,0,0,0,12,"[0, 25, 16, 22, 4, 12]",6,2,"[14, 27]",61.28190329,5907,1234,1,1,8,1.4448405722842959
basic,67,12,0,0,0,27,"[0, 25, 16, 22, 4, 12, 27]",7,1,[14],36.93031196,6653,746,1,0,8,1.537998507213724
basic,67,12,0,0,1,14,"[0, 25, 16, 22, 4, 12, 27, 14]",8,0,[],8.2772144,7295,642,1,0,8,1.5668177596106356
basic,67,12,0,1,1,14,"[0, 25, 16, 22, 4, 12, 27, 14]",8,0,[],8.2772144,8032,737,1,0,8,1.5668177596106356
basic,68,7,0,0,0,0,[0],1,29,"[1, 2, 3, 4, 5, 6, 7, 8, 9, 10, 11, 12, 13, 14, 15, 16, 17, 18, 19, 20, 21, 22, 23, 24, 25, 26, 27, 28, 29]",300,348,-1,3,79,9,0.0
basic,68,7,0,0,0,15,"[0, 15]",2,19,"[2, 4, 5, 6, 7, 8, 9, 10, 13, 14, 16, 18, 19, 20, 21, 23, 25, 27, 28]",230.9348134,1626,1278,2,38,9,1.0
basic,68,7,0,0,0,6,"[0, 15, 6]",3,18,"[2, 4, 5, 7, 8, 9, 10, 13, 14, 16, 18, 19, 20, 21, 23, 25, 27, 28]",205.854941,2119,493,2,36,9,1.366719602896943
basic,68,7,0,0,0,25,"[0, 15, 6, 25]",4,11,"[2, 4, 7, 13, 14, 16, 18, 19, 20, 21, 23]",138.6760753,3312,1193,2,28,9,1.3624631728355765
basic,68,7,0,0,0,4,"[0, 15, 6, 25, 4]",5,7,"[2, 7, 13, 16, 18, 19, 20]",113.9374415,3806,494,2,12,9,1.3249684384385587
basic,68,7,0,0,0,20,"[0, 15, 6, 25, 4, 20]",6,5,"[2, 7, 13, 18, 19]",94.29055881,4908,1102,1,6,9,1.3721893242679268
basic,68,7,0,0,0,18,"[0, 15, 6, 25, 4, 20, 18]",7,3,"[7, 13, 19]",81.48431034,5369,461,1,2,9,1.5262542308371432
basic,68,7,0,0,0,7,"[0, 15, 6, 25, 4, 20, 18, 7]",8,1,[19],40.25325408,6792,1423,1,0,9,1.41986878673423
basic,68,7,0,0,1,19,"[0, 15, 6, 25, 4, 20, 18, 7, 19]",9,0,[],10.84237174,7637,845,1,0,9,1.5285658163212987
basic,68,7,0,1,1,19,"[0, 15, 6, 25, 4, 20, 18, 7, 19]",9,0,[],10.84237174,8447,810,1,0,9,1.5285658163212987
undo,69,23,0,0,0,0,[0],1,28,"[1, 2, 3, 4, 5, 6, 7, 8, 9, 10, 11, 12, 13, 14, 15, 16, 17, 18, 19, 20, 21, 22, 23, 25, 26, 27, 28, 29]",300,299,-1,76,2626,10,0.0
undo,69,23,0,0,0,22,"[0, 22]",2,24,"[1, 2, 3, 5, 6, 7, 8, 9, 10, 11, 12, 13, 14, 15, 17, 18, 19, 20, 21, 23, 25, 26, 27, 29]",210.5013967,3307,3008,15,1362,10,1.0
undo,69,23,0,0,0,13,"[0, 22, 13]",3,14,"[1, 2, 5, 6, 7, 8, 9, 10, 12, 14, 18, 21, 27, 29]",168.3113504,4241,934,14,522,10,1.1898173563652046
undo,69,23,0,0,0,12,"[0, 22, 13, 12]",4,11,"[1, 2, 6, 7, 9, 10, 14, 18, 21, 27, 29]",156.2283045,4836,595,12,166,10,1.1727968780218219
undo,69,23,0,0,0,6,"[0, 22, 13, 12, 6]",5,8,"[2, 7, 9, 10, 14, 18, 27, 29]",126.5466603,5652,816,2,24,10,1.1544842845523764
undo,69,23,0,0,0,2,"[0, 22, 13, 12, 6, 2]",6,6,"[7, 9, 14, 18, 27, 29]",108.1075714,6687,1035,2,8,10,1.4062299368922424
undo,69,23,0,0,0,9,"[0, 22, 13, 12, 6, 2, 9]",7,4,"[7, 14, 27, 29]",95.06916658,7571,884,1,3,10,1.5685676974894474
undo,69,23,0,0,0,14,"[0, 22, 13, 12, 6, 2, 9, 14]",8,3,"[7, 27, 29]",84.62886007,8555,984,1,2,10,1.528647150775544
undo,69,23,0,0,0,29,"[0, 22, 13, 12, 6, 2, 9, 14, 29]",9,1,[7],37.19469517,9721,1166,1,0,10,1.7042299851162805
undo,69,23,0,0,1,7,"[0, 22, 13, 12, 6, 2, 9, 14, 29, 7]",10,0,[],13.11150601,10752,1031,1,0,10,1.7057367602759512
undo,69,23,0,1,1,7,"[0, 22, 13, 12, 6, 2, 9, 14, 29, 7]",10,0,[],13.11150601,13881,3129,1,0,10,1.7057367602759512
undo,70,44,0,0,0,0,[0],1,29,"[1, 2, 3, 4, 5, 6, 7, 8, 9, 10, 11, 12, 13, 14, 15, 16, 17, 18, 19, 20, 21, 22, 23, 24, 25, 26, 27, 28, 29]",300,395,-1,13,126,7,0.0
undo,70,44,0,0,0,8,"[0, 8]",2,17,"[1, 4, 5, 7, 9, 10, 11, 12, 13, 14, 15, 20, 21, 23, 24, 25, 27]",145.7923478,8402,8007,1,10,7,1.0
undo,70,44,0,0,0,20,"[0, 8, 20]",3,16,"[1, 4, 5, 7, 9, 10, 11, 12, 13, 14, 15, 21, 23, 24, 25, 27]",133.7093018,9194,792,1,9,7,1.0890794433668698
undo,70,44,0,0,0,9,"[0, 8, 20, 9]",4,7,"[4, 7, 11, 12, 14, 23, 24]",76.43801756,12020,2826,1,6,7,1.40892325509949
undo,70,44,0,0,0,4,"[0, 8, 20, 9, 4]",5,4,"[7, 12, 23, 24]",56.74030196,13684,1664,1,3,7,1.3849770570803555
undo,70,44,0,0,0,7,"[0, 8, 20, 9, 4, 7]",6,1,[23],25.72417712,14616,932,1,0,7,1.3274380931474288
undo,70,44,0,0,1,23,"[0, 8, 20, 9, 4, 7, 23]",7,0,[],6.619203947,16478,1862,1,0,7,1.3395824779823196
undo,70,44,0,1,1,23,"[0, 8, 20, 9, 4, 7, 23]",7,0,[],6.619203947,20394,3916,1,0,7,1.3395824779823196
undo,71,13,0,0,0,0,[0],1,29,"[1, 2, 3, 4, 5, 6, 7, 8, 9, 10, 11, 12, 13, 14, 15, 16, 17, 18, 19, 20, 21, 22, 23, 24, 25, 26, 27, 28, 29]",300,331,-1,60,2676,11,0.0
undo,71,13,0,0,0,24,"[0, 24]",2,28,"[1, 2, 3, 4, 5, 6, 7, 8, 9, 10, 11, 12, 13, 14, 15, 16, 17, 18, 19, 20, 21, 22, 23, 25, 26, 27, 28, 29]",288.8196601,8539,8208,16,1444,11,1.0
undo,71,13,0,0,0,28,"[0, 24, 28]",3,23,"[1, 2, 3, 4, 6, 7, 8, 9, 10, 11, 12, 13, 15, 16, 17, 19, 20, 21, 22, 23, 26, 27, 29]",222.5324064,9284,745,8,243,11,1.0513810491680837
undo,71,13,0,0,0,2,"[0, 24, 28, 2]",4,19,"[1, 3, 4, 6, 7, 9, 11, 12, 13, 15, 16, 17, 19, 20, 21, 23, 26, 27, 29]",184.889346,10104,820,7,110,11,1.050374132001543
undo,71,13,0,0,0,29,"[0, 24, 28, 2, 29]",5,18,"[1, 3, 4, 6, 7, 9, 11, 12, 13, 15, 16, 17, 19, 20, 21, 23, 26, 27]",173.1846461,10557,453,7,85,11,1.1393409619120594
undo,71,13,0,0,0,7,"[0, 24, 28, 2, 29, 7]",6,17,"[1, 3, 4, 6, 9, 11, 12, 13, 15, 16, 17, 19, 20, 21, 23, 26, 27]",157.9203086,11021,464,5,45,11,1.349777315111579
undo,71,13,0,0,0,26,"[0, 24, 28, 2, 29, 7, 26]",7,16,"[1, 3, 4, 6, 9, 11, 12, 13, 15, 16, 17, 19, 20, 21, 23, 27]",147.480002,11418,397,5,25,11,1.5942082773824946
undo,71,13,0,0,0,6,"[0, 24, 28, 2, 29, 7, 26, 6]",8,12,"[1, 3, 4, 11, 13, 15, 16, 17, 19, 20, 23, 27]",127.3802508,12093,675,4,12,11,1.5898347940840756
undo,71,13,0,0,0,11,"[0, 24, 28, 2, 29, 7, 26, 6, 11]",9,6,"[1, 13, 15, 16, 17, 23]",108.2752776,12685,592,3,4,11,1.5029953945561012
undo,71,13,0,0,0,13,"[0, 24, 28, 2, 29, 7, 26, 6, 11, 13]",10,2,"[15, 17]",52.19497806,13952,1267,2,0,11,1.3655915863754327
undo,71,13,0,0,1,15,"[0, 24, 28, 2, 29, 7, 26, 6, 11, 13, 15]",11,0,[],12.38291958,14671,719,1,0,11,1.3653085520078876
undo,71,13,0,1,1,15,"[0, 24, 28, 2, 29, 7, 26, 6, 11, 13, 15]",11,0,[],12.38291958,15731,1060,1,0,11,1.3653085520078876
undo,72,37,0,0,0,0,[0],1,29,"[1, 2, 3, 4, 5, 6, 7, 8, 9, 10, 11, 12, 13, 14, 15, 16, 17, 18, 19, 20, 21, 22, 23, 24, 25, 26, 27, 28, 29]",300,347,-1,6,168,10,0.0
undo,72,37,0,0,0,18,"[0, 18]",2,19,"[1, 2, 4, 6, 7, 9, 10, 12, 14, 15, 17, 19, 20, 21, 22, 23, 26, 28, 29]",202.4090168,3518,3171,6,89,10,1.0
undo,72,37,0,0,0,22,"[0, 18, 22]",3,9,"[1, 2, 4, 7, 15, 19, 20, 21, 26]",136.9720242,5052,1534,15,58,9,1.001057447339584
undo,72,37,0,0,0,4,"[0, 18, 22, 4]",4,8,"[1, 2, 7, 15, 19, 20, 21, 26]",111.9720242,6204,1152,8,28,9,1.1568597805027683
undo,72,37,0,0,0,2,"[0, 18, 22, 4, 2]",5,7,"[1, 7, 15, 19, 20, 21, 26]",100.57027,6608,404,7,12,9,1.3192232340552885
undo,72,37,0,0,0,1,"[0, 18, 22, 4, 2, 1]",6,6,"[7, 15, 19, 20, 21, 26]",83.36561943,7235,627,7,4,9,1.3683384389764814
undo,72,37,0,0,0,20,"[0, 18, 22, 4, 2, 1, 20]",7,4,"[15, 19, 21, 26]",49.13113389,8066,831,3,2,9,1.6736124378078914
undo,72,37,0,0,0,15,"[0, 18, 22, 4, 2, 1, 20, 15]",8,1,[21],32.13113389,8528,462,1,0,9,1.6098167659402671
undo,72,37,0,0,1,21,"[0, 18, 22, 4, 2, 1, 20, 15, 21]",9,0,[],17.13113389,8970,442,1,0,9,1.8226858592510353
undo,72,37,0,1,1,21,"[0, 18, 22, 4, 2, 1, 20, 15, 21]",9,0,[],17.13113389,10179,1209,1,0,9,1.8226858592510353
undo,73,35,0,0,0,0,[0],1,29,"[1, 2, 3, 4, 5, 6, 7, 8, 9, 10, 11, 12, 13, 14, 15, 16, 17, 18, 19, 20, 21, 22, 23, 24, 25, 26, 27, 28, 29]",300,331,-1,5,236,11,0.0
undo,73,35,0,0,0,24,"[0, 24]",2,27,"[1, 2, 4, 5, 6, 7, 8, 9, 10, 11, 12, 13, 14, 15, 16, 17, 18, 19, 20, 21, 22, 23, 25, 26, 27, 28, 29]",268.9838752,2786,2455,49,512,10,1.0
