condition,trial_id,map_id,undoIndicator,submit,checkEnd,currentChoice,chosen_all,n_city_all,n_within_reach,cities_reach,currentBudget,time_all,rt_all,n_opt_paths_all,n_subopt_paths_all,mas_all,tortuosity_all
undo,0,26,0,0,0,0,[0],1,29,"[1, 2, 3, 4, 5, 6, 7, 8, 9, 10, 11, 12, 13, 14, 15, 16, 17, 18, 19, 20, 21, 22, 23, 24, 25, 26, 27, 28, 29]",300,174,-1,9,226,9,0.0
undo,0,26,0,0,0,16,"[0, 16]",2,17,"[3, 4, 5, 6, 10, 11, 12, 13, 14, 17, 18, 19, 21, 22, 23, 26, 29]",188.0535842,4568,4394,34,176,8,1.0
undo,0,26,0,0,0,29,"[0, 16, 29]",3,12,"[4, 5, 6, 10, 12, 13, 14, 17, 19, 21, 23, 26]",163.8461474,5397,829,32,68,8,1.1142946124989752
undo,0,26,0,0,0,4,"[0, 16, 29, 4]",4,9,"[5, 6, 10, 12, 13, 14, 17, 21, 23]",139.8461474,6118,721,17,7,8,1.3213762371676339
undo,0,26,0,0,0,17,"[0, 16, 29, 4, 17]",5,5,"[6, 10, 14, 21, 23]",118.7511243,6777,659,6,0,8,1.2756100061290643
undo,0,26,0,0,0,10,"[0, 16, 29, 4, 17, 10]",6,2,"[6, 14]",78.2542108,7684,907,2,0,8,1.3703423905176408
undo,0,26,0,0,0,6,"[0, 16, 29, 4, 17, 10, 6]",7,1,[14],48.97964846,8455,771,1,0,8,1.5629056072988359
undo,0,26,0,0,1,14,"[0, 16, 29, 4, 17, 10, 6, 14]",8,0,[],27.95585242,9135,680,1,0,8,1.6881203787841719
undo,0,26,1,0,0,6,"[0, 16, 29, 4, 17, 10, 6]",7,1,[14],48.97964846,12057,2922,1,0,8,1.5629056072988359
undo,0,26,1,0,0,10,"[0, 16, 29, 4, 17, 10]",6,2,"[6, 14]",78.2542108,12258,201,2,0,8,1.3703423905176408
undo,0,26,1,0,0,17,"[0, 16, 29, 4, 17]",5,5,"[6, 10, 14, 21, 23]",118.7511243,12424,166,6,0,8,1.2756100061290643
undo,0,26,1,0,0,4,"[0, 16, 29, 4]",4,9,"[5, 6, 10, 12, 13, 14, 17, 21, 23]",139.8461474,12607,183,17,7,8,1.3213762371676339
undo,0,26,1,0,0,29,"[0, 16, 29]",3,12,"[4, 5, 6, 10, 12, 13, 14, 17, 19, 21, 23, 26]",163.8461474,12758,151,32,68,8,1.1142946124989752
undo,0,26,1,0,0,16,"[0, 16]",2,17,"[3, 4, 5, 6, 10, 11, 12, 13, 14, 17, 18, 19, 21, 22, 23, 26, 29]",188.0535842,12923,165,34,176,8,1.0
undo,0,26,1,0,0,0,[0],1,29,"[1, 2, 3, 4, 5, 6, 7, 8, 9, 10, 11, 12, 13, 14, 15, 16, 17, 18, 19, 20, 21, 22, 23, 24, 25, 26, 27, 28, 29]",300,13074,151,9,226,9,0.0
undo,0,26,0,0,0,21,"[0, 21]",2,25,"[2, 3, 4, 5, 6, 7, 8, 10, 11, 12, 13, 14, 15, 16, 17, 18, 19, 22, 23, 24, 25, 26, 27, 28, 29]",211.1349337,14454,1380,7,90,9,1.0
undo,0,26,0,0,0,13,"[0, 21, 13]",3,21,"[3, 4, 5, 6, 7, 8, 10, 11, 12, 14, 15, 16, 17, 18, 19, 22, 23, 24, 25, 26, 29]",188.9989901,15167,713,6,45,9,1.0103952279992225
undo,0,26,0,0,0,5,"[0, 21, 13, 5]",4,12,"[3, 4, 11, 14, 16, 17, 18, 22, 23, 25, 26, 29]",150.7106107,15872,705,2,10,8,1.0086890649024711
undo,0,26,0,0,0,23,"[0, 21, 13, 5, 23]",5,8,"[3, 4, 11, 14, 16, 17, 22, 29]",118.0150452,16700,828,2,7,8,1.3518621918690494
undo,0,26,0,0,0,16,"[0, 21, 13, 5, 23, 16]",6,4,"[4, 14, 17, 29]",64.77971862,17618,918,2,3,8,2.1011863559657242
undo,0,26,0,0,0,29,"[0, 21, 13, 5, 23, 16, 29]",7,2,"[4, 17]",40.57228175,18243,625,2,0,8,2.123178325538451
undo,0,26,0,0,1,4,"[0, 21, 13, 5, 23, 16, 29, 4]",8,0,[],16.57228175,19086,843,1,0,8,2.338467952972574
undo,0,26,0,1,1,4,"[0, 21, 13, 5, 23, 16, 29, 4]",8,0,[],16.57228175,23257,4171,1,0,8,2.338467952972574
undo,1,17,0,0,0,0,[0],1,28,"[1, 2, 3, 4, 5, 6, 7, 8, 9, 10, 11, 12, 13, 14, 15, 16, 17, 18, 19, 20, 22, 23, 24, 25, 26, 27, 28, 29]",300,142,-1,2,73,8,0.0
undo,1,17,0,0,0,19,"[0, 19]",2,9,"[3, 4, 5, 10, 11, 18, 20, 22, 28]",138.1049723,4072,3930,1,8,6,1.0
undo,1,17,0,0,0,5,"[0, 19, 5]",3,5,"[3, 10, 11, 22, 28]",98.81120687,5728,1656,1,5,6,1.1200340368749155
undo,1,17,0,0,0,28,"[0, 19, 5, 28]",4,2,"[3, 11]",60.32744406,6408,680,1,1,6,1.1548774814009009
undo,1,17,0,0,0,3,"[0, 19, 5, 28, 3]",5,1,[11],26.32744406,8017,1609,1,0,6,1.444690353691831
undo,1,17,0,0,1,11,"[0, 19, 5, 28, 3, 11]",6,0,[],0.154939406,12702,4685,1,0,6,1.4783074152117983
undo,1,17,1,0,0,3,"[0, 19, 5, 28, 3]",5,1,[11],26.32744406,13862,1160,1,0,6,1.444690353691831
undo,1,17,1,0,0,28,"[0, 19, 5, 28]",4,2,"[3, 11]",60.32744406,14030,168,1,1,6,1.1548774814009009
undo,1,17,1,0,0,5,"[0, 19, 5]",3,5,"[3, 10, 11, 22, 28]",98.81120687,14195,165,1,5,6,1.1200340368749155
undo,1,17,1,0,0,19,"[0, 19]",2,9,"[3, 4, 5, 10, 11, 18, 20, 22, 28]",138.1049723,14363,168,1,8,6,1.0
undo,1,17,1,0,0,0,[0],1,28,"[1, 2, 3, 4, 5, 6, 7, 8, 9, 10, 11, 12, 13, 14, 15, 16, 17, 18, 19, 20, 22, 23, 24, 25, 26, 27, 28, 29]",300,14530,167,2,73,8,0.0
undo,1,17,0,0,0,9,"[0, 9]",2,25,"[1, 2, 3, 5, 6, 7, 8, 10, 11, 12, 14, 15, 16, 17, 18, 19, 20, 22, 23, 24, 25, 26, 27, 28, 29]",210.5293344,15940,1410,1,34,8,1.0
undo,1,17,0,0,0,16,"[0, 9, 16]",3,21,"[1, 2, 3, 5, 7, 8, 10, 11, 12, 14, 17, 18, 19, 20, 22, 23, 25, 26, 27, 28, 29]",197.1876704,16490,550,1,26,8,1.173103464220352
undo,1,17,0,0,0,2,"[0, 9, 16, 2]",4,18,"[1, 3, 5, 7, 8, 10, 11, 12, 14, 17, 18, 19, 23, 25, 26, 27, 28, 29]",181.0631549,17006,516,1,23,8,1.14825089247282
undo,1,17,0,0,0,17,"[0, 9, 16, 2, 17]",5,7,"[7, 8, 12, 14, 26, 27, 29]",142.7356191,18368,1362,4,5,7,1.4896040699768547
undo,1,17,0,0,0,8,"[0, 9, 16, 2, 17, 8]",6,3,"[7, 12, 27]",104.5256727,19370,1002,3,0,7,1.4604726966175894
undo,1,17,0,0,1,7,"[0, 9, 16, 2, 17, 8, 7]",7,0,[],33.81499459,20686,1316,1,0,7,1.4474701869793896
undo,1,17,0,1,1,7,"[0, 9, 16, 2, 17, 8, 7]",7,0,[],33.81499459,22663,1977,1,0,7,1.4474701869793896
undo,2,9,0,0,0,0,[0],1,27,"[1, 3, 4, 5, 6, 7, 8, 9, 10, 11, 13, 14, 15, 16, 17, 18, 19, 20, 21, 22, 23, 24, 25, 26, 27, 28, 29]",300,130,-1,2,182,10,0.0
undo,2,9,0,0,0,9,"[0, 9]",2,26,"[1, 3, 4, 5, 6, 7, 8, 10, 11, 13, 14, 15, 16, 17, 18, 19, 20, 21, 22, 23, 24, 25, 26, 27, 28, 29]",225.5352432,2583,2453,2,101,9,1.0
undo,2,9,0,0,0,23,"[0, 9, 23]",3,22,"[1, 3, 4, 5, 7, 8, 10, 11, 13, 15, 16, 17, 18, 19, 20, 21, 22, 24, 25, 26, 27, 28]",203.1745635,3501,918,2,70,9,1.6262276606762436
undo,2,9,0,0,0,8,"[0, 9, 23, 8]",4,18,"[3, 4, 5, 7, 10, 11, 15, 16, 17, 18, 19, 20, 21, 22, 25, 26, 27, 28]",181.7036529,4820,1319,1,36,9,1.8547307061753238
undo,2,9,0,0,0,28,"[0, 9, 23, 8, 28]",5,17,"[3, 4, 5, 7, 10, 11, 15, 16, 17, 18, 19, 20, 21, 22, 25, 26, 27]",170.8869991,5755,935,1,23,9,1.7382749966569708
undo,2,9,0,0,0,26,"[0, 9, 23, 8, 28, 26]",6,10,"[3, 5, 10, 15, 16, 18, 19, 20, 21, 25]",126.1097727,6541,786,4,7,8,1.4884719959249546
undo,2,9,0,0,0,21,"[0, 9, 23, 8, 28, 26, 21]",7,1,[20],72.20244484,7734,1193,1,0,8,1.9218119811471304
undo,2,9,0,0,1,20,"[0, 9, 23, 8, 28, 26, 21, 20]",8,0,[],60.11939886,8804,1070,1,0,8,1.8940565724013747
undo,2,9,1,0,0,21,"[0, 9, 23, 8, 28, 26, 21]",7,1,[20],72.20244484,11447,2643,1,0,8,1.9218119811471304
undo,2,9,1,0,0,26,"[0, 9, 23, 8, 28, 26]",6,10,"[3, 5, 10, 15, 16, 18, 19, 20, 21, 25]",126.1097727,11629,182,4,7,8,1.4884719959249546
undo,2,9,1,0,0,28,"[0, 9, 23, 8, 28]",5,17,"[3, 4, 5, 7, 10, 11, 15, 16, 17, 18, 19, 20, 21, 22, 25, 26, 27]",170.8869991,11811,182,1,23,9,1.7382749966569708
undo,2,9,1,0,0,8,"[0, 9, 23, 8]",4,18,"[3, 4, 5, 7, 10, 11, 15, 16, 17, 18, 19, 20, 21, 22, 25, 26, 27, 28]",181.7036529,11980,169,1,36,9,1.8547307061753238
undo,2,9,1,0,0,23,"[0, 9, 23]",3,22,"[1, 3, 4, 5, 7, 8, 10, 11, 13, 15, 16, 17, 18, 19, 20, 21, 22, 24, 25, 26, 27, 28]",203.1745635,12162,182,2,70,9,1.6262276606762436
undo,2,9,1,0,0,9,"[0, 9]",2,26,"[1, 3, 4, 5, 6, 7, 8, 10, 11, 13, 14, 15, 16, 17, 18, 19, 20, 21, 22, 23, 24, 25, 26, 27, 28, 29]",225.5352432,12347,185,2,101,9,1.0
undo,2,9,1,0,0,0,[0],1,27,"[1, 3, 4, 5, 6, 7, 8, 9, 10, 11, 13, 14, 15, 16, 17, 18, 19, 20, 21, 22, 23, 24, 25, 26, 27, 28, 29]",300,12561,214,2,182,10,0.0
undo,2,9,0,0,0,7,"[0, 7]",2,19,"[3, 4, 5, 8, 9, 10, 11, 16, 17, 18, 19, 20, 21, 22, 23, 25, 26, 27, 28]",258.4067313,14269,1708,39,322,9,1.0
undo,2,9,0,0,0,4,"[0, 7, 4]",3,15,"[3, 8, 9, 10, 11, 18, 19, 20, 21, 22, 23, 25, 26, 27, 28]",243.4067313,15006,737,32,159,9,1.002790151820037
undo,2,9,0,0,0,27,"[0, 7, 4, 27]",4,11,"[8, 9, 10, 11, 20, 21, 22, 23, 25, 26, 28]",181.165266,15876,870,19,48,9,2.2170504989781823
undo,2,9,0,0,0,25,"[0, 7, 4, 27, 25]",5,10,"[8, 9, 10, 11, 20, 21, 22, 23, 26, 28]",145.2626199,16720,844,17,30,9,6.425119990857526
undo,2,9,0,0,0,9,"[0, 7, 4, 27, 25, 9]",6,3,"[8, 23, 28]",55.21263377,17484,764,1,3,9,3.2872915573211654
undo,2,9,0,0,0,23,"[0, 7, 4, 27, 25, 9, 23]",7,2,"[8, 28]",32.851954,18666,1182,1,1,9,4.486874086034299
undo,2,9,0,0,0,8,"[0, 7, 4, 27, 25, 9, 23, 8]",8,1,[28],11.38104345,19632,966,1,0,9,4.525164590628062
undo,2,9,0,0,1,28,"[0, 7, 4, 27, 25, 9, 23, 8, 28]",9,0,[],0.56438962,20506,874,1,0,9,4.031363464593383
undo,2,9,0,1,1,28,"[0, 7, 4, 27, 25, 9, 23, 8, 28]",9,0,[],0.56438962,21513,1007,1,0,9,4.031363464593383
undo,3,6,0,0,0,0,[0],1,29,"[1, 2, 3, 4, 5, 6, 7, 8, 9, 10, 11, 12, 13, 14, 15, 16, 17, 18, 19, 20, 21, 22, 23, 24, 25, 26, 27, 28, 29]",300,161,-1,180,4304,10,0.0
undo,3,6,0,0,0,26,"[0, 26]",2,25,"[1, 2, 3, 4, 5, 6, 7, 8, 9, 10, 11, 12, 13, 14, 15, 16, 17, 18, 20, 21, 22, 23, 24, 27, 29]",250.2606795,3259,3098,45,776,10,1.0
undo,3,6,0,0,0,2,"[0, 26, 2]",3,20,"[1, 3, 4, 5, 6, 7, 8, 9, 10, 13, 14, 16, 17, 18, 21, 22, 23, 24, 27, 29]",220.4278118,4751,1492,20,184,10,1.003152463832065
undo,3,6,0,0,0,7,"[0, 26, 2, 7]",4,18,"[1, 3, 4, 6, 8, 9, 10, 13, 14, 16, 17, 18, 21, 22, 23, 24, 27, 29]",179.3182022,5775,1024,20,157,10,2.5131135963314413
undo,3,6,0,0,0,3,"[0, 26, 2, 7, 3]",5,13,"[1, 6, 8, 10, 13, 16, 17, 18, 21, 22, 23, 24, 29]",143.1795802,6791,1016,18,67,10,4.677560963942129
undo,3,6,0,0,0,18,"[0, 26, 2, 7, 3, 18]",6,10,"[1, 6, 10, 13, 16, 17, 22, 23, 24, 29]",114.1795802,7586,795,9,21,10,3.0511602668529507
undo,3,6,0,0,0,17,"[0, 26, 2, 7, 3, 18, 17]",7,7,"[6, 10, 13, 16, 23, 24, 29]",100.2511919,8218,632,4,9,10,2.830257342122825
undo,3,6,0,0,0,10,"[0, 26, 2, 7, 3, 18, 17, 10]",8,4,"[16, 23, 24, 29]",80.52810898,9102,884,2,3,10,2.602087972078497
undo,3,6,0,0,0,24,"[0, 26, 2, 7, 3, 18, 17, 10, 24]",9,2,"[16, 23]",67.11170111,9823,721,2,0,10,2.393670781421888
undo,3,6,0,0,1,16,"[0, 26, 2, 7, 3, 18, 17, 10, 24, 16]",10,0,[],11.07599821,11341,1518,1,0,10,4.002808006957843
undo,3,6,0,1,1,16,"[0, 26, 2, 7, 3, 18, 17, 10, 24, 16]",10,0,[],11.07599821,13162,1821,1,0,10,4.002808006957843
undo,4,7,0,0,0,0,[0],1,29,"[1, 2, 3, 4, 5, 6, 7, 8, 9, 10, 11, 12, 13, 14, 15, 16, 17, 18, 19, 20, 21, 22, 23, 24, 25, 26, 27, 28, 29]",300,129,-1,3,79,9,0.0
undo,4,7,0,0,0,25,"[0, 25]",2,20,"[2, 3, 4, 5, 6, 7, 10, 13, 14, 15, 16, 18, 19, 20, 21, 22, 23, 24, 27, 28]",181.5939191,1722,1593,5,33,8,1.0
undo,4,7,0,0,0,4,"[0, 25, 4]",3,11,"[2, 6, 7, 13, 15, 16, 18, 19, 20, 21, 23]",156.8552853,3050,1328,2,14,8,1.0193465608331511
undo,4,7,0,0,0,20,"[0, 25, 4, 20]",4,8,"[2, 6, 7, 13, 15, 16, 18, 19]",137.2084026,3755,705,1,9,8,1.085904909082323
undo,4,7,0,0,0,18,"[0, 25, 4, 20, 18]",5,7,"[2, 6, 7, 13, 15, 16, 19]",124.4021541,4575,820,1,5,8,1.2264883846453758
undo,4,7,0,0,0,7,"[0, 25, 4, 20, 18, 7]",6,2,"[2, 19]",83.17109789,6124,1549,1,1,8,1.185264473968278
undo,4,7,0,0,0,19,"[0, 25, 4, 20, 18, 7, 19]",7,1,[2],53.76021555,6902,778,1,0,8,1.3016904288278204
undo,4,7,0,0,1,2,"[0, 25, 4, 20, 18, 7, 19, 2]",8,0,[],23.61058868,7820,918,1,0,8,1.3168868000947171
undo,4,7,0,1,1,2,"[0, 25, 4, 20, 18, 7, 19, 2]",8,0,[],23.61058868,12345,4525,1,0,8,1.3168868000947171
undo,5,38,0,0,0,0,[0],1,29,"[1, 2, 3, 4, 5, 6, 7, 8, 9, 10, 11, 12, 13, 14, 15, 16, 17, 18, 19, 20, 21, 22, 23, 24, 25, 26, 27, 28, 29]",300,145,-1,33,506,9,0.0
undo,5,38,0,0,0,11,"[0, 11]",2,23,"[1, 2, 3, 4, 5, 7, 10, 12, 13, 14, 15, 16, 17, 18, 19, 20, 21, 22, 24, 25, 26, 27, 28]",220.093805,1568,1423,2,40,9,1.0
undo,5,38,0,0,0,28,"[0, 11, 28]",3,16,"[1, 4, 5, 7, 10, 12, 13, 14, 15, 16, 17, 19, 20, 21, 24, 26]",193.0752928,2271,703,2,20,9,1.0012220945316377
undo,5,38,0,0,0,16,"[0, 11, 28, 16]",4,13,"[1, 4, 5, 10, 12, 13, 14, 15, 17, 19, 20, 24, 26]",164.0752928,3001,730,2,16,9,1.2422672958602723
undo,5,38,0,0,0,15,"[0, 11, 28, 16, 15]",5,9,"[4, 5, 13, 14, 17, 19, 20, 24, 26]",122.4579887,3672,671,2,14,9,2.4196280466601676
undo,5,38,0,0,0,4,"[0, 11, 28, 16, 15, 4]",6,6,"[13, 17, 19, 20, 24, 26]",96.45798873,4779,1107,2,9,9,2.9030072771852855
undo,5,38,0,0,0,20,"[0, 11, 28, 16, 15, 4, 20]",7,3,"[13, 17, 19]",62.51686323,6968,2189,1,2,9,4.409951139385221
undo,5,38,0,0,0,17,"[0, 11, 28, 16, 15, 4, 20, 17]",8,1,[19],38.74713459,7836,868,1,0,9,4.030739410625113
undo,5,38,0,0,1,19,"[0, 11, 28, 16, 15, 4, 20, 17, 19]",9,0,[],17.36957626,8770,934,1,0,9,3.511004666623391
undo,5,38,0,1,1,19,"[0, 11, 28, 16, 15, 4, 20, 17, 19]",9,0,[],17.36957626,12262,3492,1,0,9,3.511004666623391
undo,6,36,0,0,0,0,[0],1,24,"[2, 4, 5, 6, 7, 8, 9, 10, 12, 13, 14, 15, 16, 17, 18, 19, 20, 22, 23, 25, 26, 27, 28, 29]",300,128,-1,2,200,10,0.0
undo,6,36,0,0,0,16,"[0, 16]",2,12,"[2, 8, 9, 10, 12, 13, 17, 18, 19, 23, 25, 27]",193.262003,2175,2047,20,112,8,1.0
undo,6,36,0,0,0,9,"[0, 16, 9]",3,9,"[2, 10, 12, 13, 17, 18, 19, 23, 25]",145.9650687,2872,697,5,25,8,2.230283285754544
undo,6,36,0,0,0,17,"[0, 16, 9, 17]",4,6,"[2, 12, 13, 18, 19, 25]",119.7162592,3625,753,2,8,8,1.9074707802314166
undo,6,36,0,0,0,19,"[0, 16, 9, 17, 19]",5,5,"[2, 12, 13, 18, 25]",91.8236078,4383,758,2,4,8,2.7008576900950936
undo,6,36,0,0,0,2,"[0, 16, 9, 17, 19, 2]",6,2,"[13, 25]",54.70218541,5118,735,1,1,8,2.172138429246357
undo,6,36,0,0,0,25,"[0, 16, 9, 17, 19, 2, 25]",7,1,[13],29.70218541,6011,893,1,0,8,2.360882201101988
undo,6,36,0,0,1,13,"[0, 16, 9, 17, 19, 2, 25, 13]",8,0,[],9.110925128,6904,893,1,0,8,2.9657864347763705
undo,6,36,0,1,1,13,"[0, 16, 9, 17, 19, 2, 25, 13]",8,0,[],9.110925128,9662,2758,1,0,8,2.9657864347763705
undo,7,41,0,0,0,0,[0],1,29,"[1, 2, 3, 4, 5, 6, 7, 8, 9, 10, 11, 12, 13, 14, 15, 16, 17, 18, 19, 20, 21, 22, 23, 24, 25, 26, 27, 28, 29]",300,132,-1,1,143,10,0.0
undo,7,41,0,0,0,3,"[0, 3]",2,28,"[1, 2, 4, 5, 6, 7, 8, 9, 10, 11, 12, 13, 14, 15, 16, 17, 18, 19, 20, 21, 22, 23, 24, 25, 26, 27, 28, 29]",260.3767745,2456,2324,2,145,9,1.0
undo,7,41,0,0,0,22,"[0, 3, 22]",3,26,"[1, 2, 5, 6, 7, 8, 9, 10, 11, 12, 13, 14, 15, 16, 17, 18, 19, 20, 21, 23, 24, 25, 26, 27, 28, 29]",230.4101264,3169,713,33,160,8,1.0090788990400108
undo,7,41,0,0,0,6,"[0, 3, 22, 6]",4,7,"[7, 8, 11, 12, 16, 23, 25]",124.6084251,4029,860,5,7,7,1.0248234206735427
undo,7,41,0,0,0,11,"[0, 3, 22, 6, 11]",5,3,"[8, 16, 23]",79.48636836,5397,1368,4,0,7,1.0255449664653686
undo,7,41,0,0,0,16,"[0, 3, 22, 6, 11, 16]",6,1,[8],48.37366999,6220,823,1,0,7,1.055856395540958
undo,7,41,0,0,1,8,"[0, 3, 22, 6, 11, 16, 8]",7,0,[],6.936971277,7318,1098,1,0,7,1.203414883674518
undo,7,41,1,0,0,16,"[0, 3, 22, 6, 11, 16]",6,1,[8],48.37366999,9565,2247,1,0,7,1.055856395540958
undo,7,41,1,0,0,11,"[0, 3, 22, 6, 11]",5,3,"[8, 16, 23]",79.48636836,9731,166,4,0,7,1.0255449664653686
undo,7,41,1,0,0,6,"[0, 3, 22, 6]",4,7,"[7, 8, 11, 12, 16, 23, 25]",124.6084251,9898,167,5,7,7,1.0248234206735427
undo,7,41,1,0,0,22,"[0, 3, 22]",3,26,"[1, 2, 5, 6, 7, 8, 9, 10, 11, 12, 13, 14, 15, 16, 17, 18, 19, 20, 21, 23, 24, 25, 26, 27, 28, 29]",230.4101264,10066,168,33,160,8,1.0090788990400108
undo,7,41,1,0,0,3,"[0, 3]",2,28,"[1, 2, 4, 5, 6, 7, 8, 9, 10, 11, 12, 13, 14, 15, 16, 17, 18, 19, 20, 21, 22, 23, 24, 25, 26, 27, 28, 29]",260.3767745,10214,148,2,145,9,1.0
undo,7,41,1,0,0,0,[0],1,29,"[1, 2, 3, 4, 5, 6, 7, 8, 9, 10, 11, 12, 13, 14, 15, 16, 17, 18, 19, 20, 21, 22, 23, 24, 25, 26, 27, 28, 29]",300,10497,283,1,143,10,0.0
undo,7,41,0,0,0,13,"[0, 13]",2,23,"[1, 2, 3, 5, 6, 7, 9, 10, 11, 12, 14, 15, 17, 18, 19, 20, 21, 22, 24, 25, 26, 27, 28]",258.2747079,12374,1877,1,55,10,1.0
undo,7,41,0,0,0,28,"[0, 13, 28]",3,22,"[1, 2, 3, 5, 6, 7, 9, 10, 11, 12, 14, 15, 17, 18, 19, 20, 21, 22, 24, 25, 26, 27]",223.7928286,13138,764,1,39,10,1.895724242592676
undo,7,41,0,0,0,5,"[0, 13, 28, 5]",4,19,"[1, 2, 3, 6, 9, 10, 11, 12, 14, 15, 17, 18, 19, 20, 21, 22, 24, 25, 27]",210.1913581,13653,515,1,34,10,2.861541269398273
undo,7,41,0,0,0,22,"[0, 13, 28, 5, 22]",5,12,"[2, 3, 6, 9, 10, 11, 12, 17, 18, 20, 21, 25]",155.4464953,14441,788,11,12,9,2.096079268852861
undo,7,41,0,0,0,3,"[0, 13, 28, 5, 22, 3]",6,8,"[2, 9, 10, 12, 17, 18, 20, 21]",125.4798472,15194,753,7,5,9,4.404491319005463
undo,7,41,0,0,0,21,"[0, 13, 28, 5, 22, 3, 21]",7,4,"[2, 9, 12, 17]",93.33952984,16112,918,5,1,9,4.228139797553632
undo,7,41,0,0,0,9,"[0, 13, 28, 5, 22, 3, 21, 9]",8,2,"[2, 17]",43.97354965,17387,1275,2,0,9,3.111188754077749
undo,7,41,0,0,1,2,"[0, 13, 28, 5, 22, 3, 21, 9, 2]",9,0,[],31.89050368,18137,750,1,0,9,2.963304814480547
undo,7,41,0,1,1,2,"[0, 13, 28, 5, 22, 3, 21, 9, 2]",9,0,[],31.89050368,19815,1678,1,0,9,2.963304814480547
undo,8,10,0,0,0,0,[0],1,29,"[1, 2, 3, 4, 5, 6, 7, 8, 9, 10, 11, 12, 13, 14, 15, 16, 17, 18, 19, 20, 21, 22, 23, 24, 25, 26, 27, 28, 29]",300,136,-1,1,100,9,0.0
undo,8,10,0,0,0,13,"[0, 13]",2,25,"[1, 2, 3, 4, 6, 7, 8, 9, 10, 11, 12, 14, 17, 18, 19, 20, 21, 22, 23, 24, 25, 26, 27, 28, 29]",249.4628849,1588,1452,1,79,9,1.0
undo,8,10,0,0,0,11,"[0, 13, 11]",3,20,"[1, 2, 3, 6, 7, 8, 9, 10, 12, 14, 18, 19, 20, 21, 22, 24, 26, 27, 28, 29]",206.4512586,2326,738,1,54,9,1.0313137484914219
undo,8,10,0,0,0,19,"[0, 13, 11, 19]",4,11,"[2, 6, 8, 9, 10, 14, 18, 20, 24, 26, 27]",170.0919407,3203,877,1,22,9,1.0879446220132545
undo,8,10,0,0,0,2,"[0, 13, 11, 19, 2]",5,4,"[14, 20, 26, 27]",126.1829439,4117,914,1,4,9,1.06474052351343
undo,8,10,0,0,0,14,"[0, 13, 11, 19, 2, 14]",6,3,"[20, 26, 27]",114.0174188,4629,512,1,3,9,1.1628909195912238
undo,8,10,0,0,0,26,"[0, 13, 11, 19, 2, 14, 26]",7,2,"[20, 27]",79.34754716,5403,774,1,1,9,1.6660727647633602
undo,8,10,0,0,0,20,"[0, 13, 11, 19, 2, 14, 26, 20]",8,1,[27],47.56704999,6302,899,1,0,9,2.085581809637999
undo,8,10,0,0,1,27,"[0, 13, 11, 19, 2, 14, 26, 20, 27]",9,0,[],2.312215998,7236,934,1,0,9,1.9116357409137932
undo,8,10,1,0,0,20,"[0, 13, 11, 19, 2, 14, 26, 20]",8,1,[27],47.56704999,9563,2327,1,0,9,2.085581809637999
undo,8,10,1,0,0,26,"[0, 13, 11, 19, 2, 14, 26]",7,2,"[20, 27]",79.34754716,9731,168,1,1,9,1.6660727647633602
undo,8,10,1,0,0,14,"[0, 13, 11, 19, 2, 14]",6,3,"[20, 26, 27]",114.0174188,9882,151,1,3,9,1.1628909195912238
undo,8,10,1,0,0,2,"[0, 13, 11, 19, 2]",5,4,"[14, 20, 26, 27]",126.1829439,10032,150,1,4,9,1.06474052351343
undo,8,10,1,0,0,19,"[0, 13, 11, 19]",4,11,"[2, 6, 8, 9, 10, 14, 18, 20, 24, 26, 27]",170.0919407,10196,164,1,22,9,1.0879446220132545
undo,8,10,1,0,0,11,"[0, 13, 11]",3,20,"[1, 2, 3, 6, 7, 8, 9, 10, 12, 14, 18, 19, 20, 21, 22, 24, 26, 27, 28, 29]",206.4512586,10348,152,1,54,9,1.0313137484914219
undo,8,10,1,0,0,13,"[0, 13]",2,25,"[1, 2, 3, 4, 6, 7, 8, 9, 10, 11, 12, 14, 17, 18, 19, 20, 21, 22, 23, 24, 25, 26, 27, 28, 29]",249.4628849,10563,215,1,79,9,1.0
undo,8,10,1,0,0,0,[0],1,29,"[1, 2, 3, 4, 5, 6, 7, 8, 9, 10, 11, 12, 13, 14, 15, 16, 17, 18, 19, 20, 21, 22, 23, 24, 25, 26, 27, 28, 29]",300,10846,283,1,100,9,0.0
undo,8,10,0,0,0,29,"[0, 29]",2,22,"[3, 4, 7, 8, 10, 11, 12, 13, 15, 16, 17, 18, 19, 20, 21, 22, 23, 24, 25, 26, 27, 28]",219.9375244,11904,1058,3,19,7,1.0
undo,8,10,0,0,0,28,"[0, 29, 28]",3,9,"[3, 7, 10, 12, 15, 17, 18, 23, 25]",121.4438698,14262,2358,2,9,6,1.209085154379744
undo,8,10,0,0,0,23,"[0, 29, 28, 23]",4,4,"[3, 15, 17, 25]",74.17866058,15196,934,2,2,6,1.1678036390736501
undo,8,10,0,0,0,25,"[0, 29, 28, 23, 25]",5,1,[15],48.86068278,15918,722,1,0,6,1.1484682815911373
undo,8,10,0,0,1,15,"[0, 29, 28, 23, 25, 15]",6,0,[],33.56362424,16536,618,1,0,6,1.142336536833446
undo,8,10,1,0,0,25,"[0, 29, 28, 23, 25]",5,1,[15],48.86068278,17680,1144,1,0,6,1.1484682815911373
undo,8,10,1,0,0,23,"[0, 29, 28, 23]",4,4,"[3, 15, 17, 25]",74.17866058,17848,168,2,2,6,1.1678036390736501
undo,8,10,1,0,0,28,"[0, 29, 28]",3,9,"[3, 7, 10, 12, 15, 17, 18, 23, 25]",121.4438698,17998,150,2,9,6,1.209085154379744
undo,8,10,1,0,0,29,"[0, 29]",2,22,"[3, 4, 7, 8, 10, 11, 12, 13, 15, 16, 17, 18, 19, 20, 21, 22, 23, 24, 25, 26, 27, 28]",219.9375244,18165,167,3,19,7,1.0
undo,8,10,1,0,0,0,[0],1,29,"[1, 2, 3, 4, 5, 6, 7, 8, 9, 10, 11, 12, 13, 14, 15, 16, 17, 18, 19, 20, 21, 22, 23, 24, 25, 26, 27, 28, 29]",300,18330,165,1,100,9,0.0
undo,8,10,0,0,0,13,"[0, 13]",2,25,"[1, 2, 3, 4, 6, 7, 8, 9, 10, 11, 12, 14, 17, 18, 19, 20, 21, 22, 23, 24, 25, 26, 27, 28, 29]",249.4628849,19746,1416,1,79,9,1.0
undo,8,10,0,0,0,11,"[0, 13, 11]",3,20,"[1, 2, 3, 6, 7, 8, 9, 10, 12, 14, 18, 19, 20, 21, 22, 24, 26, 27, 28, 29]",206.4512586,20369,623,1,54,9,1.0313137484914219
undo,8,10,0,0,0,19,"[0, 13, 11, 19]",4,11,"[2, 6, 8, 9, 10, 14, 18, 20, 24, 26, 27]",170.0919407,21828,1459,1,22,9,1.0879446220132545
undo,8,10,0,0,0,2,"[0, 13, 11, 19, 2]",5,4,"[14, 20, 26, 27]",126.1829439,22827,999,1,4,9,1.06474052351343
undo,8,10,0,0,0,14,"[0, 13, 11, 19, 2, 14]",6,3,"[20, 26, 27]",114.0174188,23385,558,1,3,9,1.1628909195912238
undo,8,10,0,0,0,26,"[0, 13, 11, 19, 2, 14, 26]",7,2,"[20, 27]",79.34754716,24104,719,1,1,9,1.6660727647633602
undo,8,10,0,0,0,20,"[0, 13, 11, 19, 2, 14, 26, 20]",8,1,[27],47.56704999,25134,1030,1,0,9,2.085581809637999
undo,8,10,0,0,1,27,"[0, 13, 11, 19, 2, 14, 26, 20, 27]",9,0,[],2.312215998,25877,743,1,0,9,1.9116357409137932
undo,8,10,0,1,1,27,"[0, 13, 11, 19, 2, 14, 26, 20, 27]",9,0,[],2.312215998,26497,620,1,0,9,1.9116357409137932
undo,9,42,0,0,0,0,[0],1,29,"[1, 2, 3, 4, 5, 6, 7, 8, 9, 10, 11, 12, 13, 14, 15, 16, 17, 18, 19, 20, 21, 22, 23, 24, 25, 26, 27, 28, 29]",300,128,-1,16,302,9,0.0
undo,9,42,0,0,0,5,"[0, 5]",2,28,"[1, 2, 3, 4, 6, 7, 8, 9, 10, 11, 12, 13, 14, 15, 16, 17, 18, 19, 20, 21, 22, 23, 24, 25, 26, 27, 28, 29]",191.2939744,2538,2410,1,22,9,1.0
undo,9,42,0,0,0,4,"[0, 5, 4]",3,23,"[1, 2, 3, 6, 7, 8, 9, 10, 11, 13, 15, 17, 18, 19, 20, 21, 22, 23, 24, 25, 26, 27, 29]",171.4445412,3883,1345,1,14,9,1.420957801478707
undo,9,42,0,0,0,22,"[0, 5, 4, 22]",4,20,"[1, 2, 3, 6, 7, 8, 9, 11, 15, 17, 18, 19, 20, 21, 23, 24, 25, 26, 27, 29]",160.2642013,4440,557,1,11,9,1.5771494659680896
undo,9,42,0,0,0,8,"[0, 5, 4, 22, 8]",5,14,"[1, 2, 3, 6, 7, 11, 15, 18, 19, 24, 25, 26, 27, 29]",138.1282577,5259,819,1,10,9,1.5055393955524201
undo,9,42,0,0,0,1,"[0, 5, 4, 22, 8, 1]",6,5,"[2, 7, 19, 26, 27]",89.03650682,5916,657,1,7,9,1.3547259083637835
undo,9,42,0,0,0,7,"[0, 5, 4, 22, 8, 1, 7]",7,4,"[2, 19, 26, 27]",59.03650682,8136,2220,1,3,9,1.3909715672447451
undo,9,42,0,0,0,26,"[0, 5, 4, 22, 8, 1, 7, 26]",8,1,[27],32.46584631,9015,879,1,0,9,1.3511825943939393
undo,9,42,0,0,1,27,"[0, 5, 4, 22, 8, 1, 7, 26, 27]",9,0,[],14.43808994,9702,687,1,0,9,1.3391911688802078
undo,9,42,0,1,1,27,"[0, 5, 4, 22, 8, 1, 7, 26, 27]",9,0,[],14.43808994,10893,1191,1,0,9,1.3391911688802078
undo,10,12,0,0,0,0,[0],1,29,"[1, 2, 3, 4, 5, 6, 7, 8, 9, 10, 11, 12, 13, 14, 15, 16, 17, 18, 19, 20, 21, 22, 23, 24, 25, 26, 27, 28, 29]",300,151,-1,2,32,9,0.0
undo,10,12,0,0,0,22,"[0, 22]",2,22,"[2, 4, 5, 6, 7, 9, 10, 12, 13, 14, 15, 16, 17, 18, 19, 21, 23, 24, 25, 27, 28, 29]",211.9943184,8003,7852,6,42,8,1.0
undo,10,12,0,0,0,16,"[0, 22, 16]",3,12,"[2, 4, 5, 6, 7, 12, 14, 19, 23, 24, 25, 27]",190.9943184,8586,583,6,24,8,1.2017164145167045
undo,10,12,0,0,0,4,"[0, 22, 16, 4]",4,9,"[2, 6, 7, 12, 14, 19, 24, 25, 27]",156.7890556,10026,1440,6,14,8,1.146531713305579
undo,10,12,0,0,0,12,"[0, 22, 16, 4, 12]",5,4,"[14, 19, 24, 27]",114.5990094,10780,754,4,3,8,1.1221389456954312
undo,10,12,0,0,0,27,"[0, 22, 16, 4, 12, 27]",6,3,"[14, 19, 24]",90.24741807,11526,746,2,1,8,1.2262878338287035
undo,10,12,0,0,0,14,"[0, 22, 16, 4, 12, 27, 14]",7,1,[24],61.59432051,12248,722,1,0,8,1.2804562106751427
undo,10,12,0,0,1,24,"[0, 22, 16, 4, 12, 27, 14, 24]",8,0,[],44.38966997,12871,623,1,0,8,1.4322660007679802
undo,10,12,1,0,0,14,"[0, 22, 16, 4, 12, 27, 14]",7,1,[24],61.59432051,14632,1761,1,0,8,1.2804562106751427
undo,10,12,1,0,0,27,"[0, 22, 16, 4, 12, 27]",6,3,"[14, 19, 24]",90.24741807,14798,166,2,1,8,1.2262878338287035
undo,10,12,1,0,0,12,"[0, 22, 16, 4, 12]",5,4,"[14, 19, 24, 27]",114.5990094,14949,151,4,3,8,1.1221389456954312
undo,10,12,1,0,0,4,"[0, 22, 16, 4]",4,9,"[2, 6, 7, 12, 14, 19, 24, 25, 27]",156.7890556,15099,150,6,14,8,1.146531713305579
undo,10,12,1,0,0,16,"[0, 22, 16]",3,12,"[2, 4, 5, 6, 7, 12, 14, 19, 23, 24, 25, 27]",190.9943184,15264,165,6,24,8,1.2017164145167045
undo,10,12,1,0,0,22,"[0, 22]",2,22,"[2, 4, 5, 6, 7, 9, 10, 12, 13, 14, 15, 16, 17, 18, 19, 21, 23, 24, 25, 27, 28, 29]",211.9943184,15432,168,6,42,8,1.0
undo,10,12,1,0,0,0,[0],1,29,"[1, 2, 3, 4, 5, 6, 7, 8, 9, 10, 11, 12, 13, 14, 15, 16, 17, 18, 19, 20, 21, 22, 23, 24, 25, 26, 27, 28, 29]",300,15681,249,2,32,9,0.0
undo,10,12,0,0,0,18,"[0, 18]",2,12,"[1, 2, 3, 5, 6, 7, 9, 11, 15, 17, 20, 21]",149.9166898,17293,1612,1,6,7,1.0
undo,10,12,0,0,0,21,"[0, 18, 21]",3,7,"[1, 3, 5, 9, 11, 15, 17]",133.6378692,17924,631,1,4,7,1.0169396745301669
undo,10,12,0,0,0,15,"[0, 18, 21, 15]",4,4,"[1, 5, 11, 17]",78.56518995,18869,945,1,3,7,1.1718752316940058
undo,10,12,0,0,0,17,"[0, 18, 21, 15, 17]",5,2,"[1, 11]",62.07276745,19489,620,1,1,7,1.219114137966991
undo,10,12,0,0,0,11,"[0, 18, 21, 15, 17, 11]",6,1,[1],18.65618076,20161,672,1,0,7,1.1797449530218118
undo,10,12,0,0,1,1,"[0, 18, 21, 15, 17, 11, 1]",7,0,[],2.103235402,20973,812,1,0,7,1.2259852812575018
undo,10,12,1,0,0,11,"[0, 18, 21, 15, 17, 11]",6,1,[1],18.65618076,21748,775,1,0,7,1.1797449530218118
undo,10,12,1,0,0,17,"[0, 18, 21, 15, 17]",5,2,"[1, 11]",62.07276745,21898,150,1,1,7,1.219114137966991
undo,10,12,1,0,0,15,"[0, 18, 21, 15]",4,4,"[1, 5, 11, 17]",78.56518995,22047,149,1,3,7,1.1718752316940058
undo,10,12,1,0,0,21,"[0, 18, 21]",3,7,"[1, 3, 5, 9, 11, 15, 17]",133.6378692,22215,168,1,4,7,1.0169396745301669
undo,10,12,1,0,0,18,"[0, 18]",2,12,"[1, 2, 3, 5, 6, 7, 9, 11, 15, 17, 20, 21]",149.9166898,22381,166,1,6,7,1.0
undo,10,12,1,0,0,0,[0],1,29,"[1, 2, 3, 4, 5, 6, 7, 8, 9, 10, 11, 12, 13, 14, 15, 16, 17, 18, 19, 20, 21, 22, 23, 24, 25, 26, 27, 28, 29]",300,22566,185,2,32,9,0.0
undo,10,12,0,0,0,5,"[0, 5]",2,21,"[1, 2, 6, 7, 8, 9, 10, 11, 13, 14, 15, 16, 17, 18, 19, 20, 21, 22, 24, 26, 29]",164.9148417,24128,1562,7,27,6,1.0
undo,10,12,0,0,0,2,"[0, 5, 2]",3,10,"[7, 8, 10, 13, 15, 17, 19, 24, 26, 29]",120.8126875,25358,1230,1,10,6,1.143270168703518
undo,10,12,0,0,0,7,"[0, 5, 2, 7]",4,5,"[10, 13, 19, 24, 29]",103.3484383,26293,935,1,4,6,1.1883191550831695
undo,10,12,0,0,0,13,"[0, 5, 2, 7, 13]",5,1,[10],47.90477323,27820,1527,1,0,6,1.1425871564257684
undo,10,12,0,0,1,10,"[0, 5, 2, 7, 13, 10]",6,0,[],18.17263574,28595,775,1,0,6,1.1365115397106953
undo,10,12,1,0,0,13,"[0, 5, 2, 7, 13]",5,1,[10],47.90477323,29314,719,1,0,6,1.1425871564257684
undo,10,12,1,0,0,7,"[0, 5, 2, 7]",4,5,"[10, 13, 19, 24, 29]",103.3484383,29483,169,1,4,6,1.1883191550831695
undo,10,12,1,0,0,2,"[0, 5, 2]",3,10,"[7, 8, 10, 13, 15, 17, 19, 24, 26, 29]",120.8126875,29632,149,1,10,6,1.143270168703518
undo,10,12,1,0,0,5,"[0, 5]",2,21,"[1, 2, 6, 7, 8, 9, 10, 11, 13, 14, 15, 16, 17, 18, 19, 20, 21, 22, 24, 26, 29]",164.9148417,29814,182,7,27,6,1.0
undo,10,12,1,0,0,0,[0],1,29,"[1, 2, 3, 4, 5, 6, 7, 8, 9, 10, 11, 12, 13, 14, 15, 16, 17, 18, 19, 20, 21, 22, 23, 24, 25, 26, 27, 28, 29]",300,29966,152,2,32,9,0.0
undo,10,12,0,0,0,25,"[0, 25]",2,16,"[2, 4, 5, 6, 7, 9, 12, 14, 16, 18, 19, 22, 23, 24, 27, 28]",225.7975742,31219,1253,5,34,8,1.0
undo,10,12,0,0,0,16,"[0, 25, 16]",3,11,"[2, 4, 5, 6, 7, 12, 14, 19, 22, 24, 27]",169.0701557,32030,811,4,22,8,1.4434159828731936
undo,10,12,0,0,0,4,"[0, 25, 16, 4]",4,6,"[12, 14, 19, 22, 24, 27]",134.864893,33374,1344,2,7,8,1.3220542462647857
undo,10,12,0,0,0,12,"[0, 25, 16, 4, 12]",5,5,"[14, 19, 22, 24, 27]",92.67484678,34238,864,2,3,8,1.2548348749245275
undo,10,12,0,0,0,27,"[0, 25, 16, 4, 12, 27]",6,2,"[14, 24]",68.32325545,35371,1133,2,0,8,1.3544642483472162
undo,10,12,0,0,0,14,"[0, 25, 16, 4, 12, 27, 14]",7,1,[24],39.67015789,36226,855,1,0,8,1.3982089850666115
undo,10,12,0,0,1,24,"[0, 25, 16, 4, 12, 27, 14, 24]",8,0,[],22.46550735,37013,787,1,0,8,1.5551140590301356
undo,10,12,0,1,1,24,"[0, 25, 16, 4, 12, 27, 14, 24]",8,0,[],22.46550735,37731,718,1,0,8,1.5551140590301356
undo,11,1,0,0,0,0,[0],1,26,"[1, 2, 4, 5, 7, 8, 9, 10, 11, 12, 13, 14, 15, 16, 17, 18, 19, 20, 21, 22, 23, 24, 25, 26, 28, 29]",300,135,-1,6,74,7,0.0
undo,11,1,0,0,0,20,"[0, 20]",2,13,"[1, 4, 5, 8, 11, 13, 14, 15, 17, 18, 19, 28, 29]",129.961769,4212,4077,2,11,6,1.0
undo,11,1,0,0,0,5,"[0, 20, 5]",3,9,"[1, 4, 8, 11, 13, 17, 18, 19, 29]",108.4908585,4952,740,2,6,6,1.0224915251419384
undo,11,1,0,0,0,18,"[0, 20, 5, 18]",4,4,"[4, 13, 17, 29]",85.66543403,5637,685,2,3,6,1.064078468417926
undo,11,1,0,0,0,4,"[0, 20, 5, 18, 4]",5,2,"[13, 29]",46.71674984,6776,1139,2,0,6,1.0731955739217967
undo,11,1,0,0,1,29,"[0, 20, 5, 18, 4, 29]",6,0,[],10.66123709,7566,790,1,0,6,1.268346679663489
undo,11,1,1,0,0,4,"[0, 20, 5, 18, 4]",5,2,"[13, 29]",46.71674984,8879,1313,2,0,6,1.0731955739217967
undo,11,1,1,0,0,18,"[0, 20, 5, 18]",4,4,"[4, 13, 17, 29]",85.66543403,9029,150,2,3,6,1.064078468417926
undo,11,1,1,0,0,5,"[0, 20, 5]",3,9,"[1, 4, 8, 11, 13, 17, 18, 19, 29]",108.4908585,9178,149,2,6,6,1.0224915251419384
undo,11,1,1,0,0,20,"[0, 20]",2,13,"[1, 4, 5, 8, 11, 13, 14, 15, 17, 18, 19, 28, 29]",129.961769,9380,202,2,11,6,1.0
undo,11,1,1,0,0,0,[0],1,26,"[1, 2, 4, 5, 7, 8, 9, 10, 11, 12, 13, 14, 15, 16, 17, 18, 19, 20, 21, 22, 23, 24, 25, 26, 28, 29]",300,9496,116,6,74,7,0.0
undo,11,1,0,0,0,14,"[0, 14]",2,19,"[1, 4, 5, 8, 9, 13, 15, 17, 18, 19, 20, 21, 22, 23, 24, 25, 26, 28, 29]",200.1901808,10584,1088,5,42,7,1.0
undo,11,1,0,0,0,17,"[0, 14, 17]",3,15,"[1, 4, 5, 8, 9, 13, 15, 18, 19, 20, 22, 23, 25, 28, 29]",147.8356204,12001,1417,5,27,7,1.0028844724416826
undo,11,1,0,0,0,1,"[0, 14, 17, 1]",4,12,"[4, 5, 8, 9, 15, 18, 20, 22, 23, 25, 28, 29]",123.4840291,12940,939,5,15,7,1.0264985578353567
undo,11,1,0,0,0,28,"[0, 14, 17, 1, 28]",5,5,"[9, 15, 22, 23, 29]",88.59850198,13736,796,5,3,7,1.0339861575999345
undo,11,1,0,0,0,23,"[0, 14, 17, 1, 28, 23]",6,2,"[15, 22]",51.70676849,14534,798,2,0,7,1.0327458250705703
undo,11,1,0,0,1,15,"[0, 14, 17, 1, 28, 23, 15]",7,0,[],20.81987807,15601,1067,1,0,7,1.1948681641401226
undo,11,1,0,1,1,15,"[0, 14, 17, 1, 28, 23, 15]",7,0,[],20.81987807,17195,1594,1,0,7,1.1948681641401226
undo,12,8,0,0,0,0,[0],1,29,"[1, 2, 3, 4, 5, 6, 7, 8, 9, 10, 11, 12, 13, 14, 15, 16, 17, 18, 19, 20, 21, 22, 23, 24, 25, 26, 27, 28, 29]",300,130,-1,10,149,9,0.0
undo,12,8,0,0,0,5,"[0, 5]",2,28,"[1, 2, 3, 4, 6, 7, 8, 9, 10, 11, 12, 13, 14, 15, 16, 17, 18, 19, 20, 21, 22, 23, 24, 25, 26, 27, 28, 29]",254.5137383,1529,1399,10,100,9,1.0
undo,12,8,0,0,0,25,"[0, 5, 25]",3,20,"[1, 2, 3, 4, 6, 11, 12, 14, 15, 16, 17, 18, 19, 20, 21, 22, 23, 24, 28, 29]",215.3091468,2284,755,4,42,9,1.2272747879909065
undo,12,8,0,0,0,1,"[0, 5, 25, 1]",4,17,"[3, 4, 6, 11, 12, 14, 15, 16, 17, 18, 20, 21, 22, 23, 24, 28, 29]",190.3091468,2949,665,3,24,9,1.1770245007593956
undo,12,8,0,0,0,23,"[0, 5, 25, 1, 23]",5,15,"[3, 4, 6, 11, 14, 15, 16, 17, 18, 20, 21, 22, 24, 28, 29]",167.2874179,3723,774,1,14,9,1.141996583852372
undo,12,8,0,0,0,18,"[0, 5, 25, 1, 23, 18]",6,9,"[3, 4, 11, 14, 15, 16, 17, 24, 28]",125.5261919,5289,1566,1,7,9,1.3199166330970717
undo,12,8,0,0,0,28,"[0, 5, 25, 1, 23, 18, 28]",7,1,[16],59.906073,6043,754,1,0,8,1.425373059246715
undo,12,8,0,0,1,16,"[0, 5, 25, 1, 23, 18, 28, 16]",8,0,[],37.54539323,7519,1476,1,0,8,1.4175143337764708
undo,12,8,1,0,0,28,"[0, 5, 25, 1, 23, 18, 28]",7,1,[16],59.906073,8611,1092,1,0,8,1.425373059246715
undo,12,8,1,0,0,18,"[0, 5, 25, 1, 23, 18]",6,9,"[3, 4, 11, 14, 15, 16, 17, 24, 28]",125.5261919,8747,136,1,7,9,1.3199166330970717
undo,12,8,1,0,0,23,"[0, 5, 25, 1, 23]",5,15,"[3, 4, 6, 11, 14, 15, 16, 17, 18, 20, 21, 22, 24, 28, 29]",167.2874179,8929,182,1,14,9,1.141996583852372
undo,12,8,1,0,0,1,"[0, 5, 25, 1]",4,17,"[3, 4, 6, 11, 12, 14, 15, 16, 17, 18, 20, 21, 22, 23, 24, 28, 29]",190.3091468,9078,149,3,24,9,1.1770245007593956
undo,12,8,1,0,0,25,"[0, 5, 25]",3,20,"[1, 2, 3, 4, 6, 11, 12, 14, 15, 16, 17, 18, 19, 20, 21, 22, 23, 24, 28, 29]",215.3091468,9278,200,4,42,9,1.2272747879909065
undo,12,8,1,0,0,5,"[0, 5]",2,28,"[1, 2, 3, 4, 6, 7, 8, 9, 10, 11, 12, 13, 14, 15, 16, 17, 18, 19, 20, 21, 22, 23, 24, 25, 26, 27, 28, 29]",254.5137383,9696,418,10,100,9,1.0
undo,12,8,0,0,0,14,"[0, 5, 14]",3,20,"[1, 2, 3, 4, 6, 7, 11, 15, 16, 17, 18, 19, 20, 21, 22, 23, 24, 25, 28, 29]",214.5512559,10651,955,4,36,9,1.0001019035932595
undo,12,8,0,0,0,17,"[0, 5, 14, 17]",4,15,"[1, 4, 6, 7, 11, 15, 16, 18, 19, 20, 22, 23, 24, 25, 28]",177.5377449,11816,1165,4,16,9,1.121197267659591
undo,12,8,0,0,0,11,"[0, 5, 14, 17, 11]",5,11,"[1, 4, 15, 16, 18, 19, 22, 23, 24, 25, 28]",152.3583883,12535,719,4,8,9,1.1277254166016362
undo,12,8,0,0,0,24,"[0, 5, 14, 17, 11, 24]",6,3,"[15, 16, 28]",115.1428001,13305,770,2,2,9,1.1227411011978805
undo,12,8,0,0,0,15,"[0, 5, 14, 17, 11, 24, 15]",7,2,"[16, 28]",98.37974552,14068,763,2,0,9,1.1956385406066814
undo,12,8,0,0,0,16,"[0, 5, 14, 17, 11, 24, 15, 16]",8,1,[28],47.30137436,15069,1001,1,0,9,1.36482239111247
undo,12,8,0,0,1,28,"[0, 5, 14, 17, 11, 24, 15, 16, 28]",9,0,[],24.94069458,16042,973,1,0,9,1.632953105226947
undo,12,8,0,1,1,28,"[0, 5, 14, 17, 11, 24, 15, 16, 28]",9,0,[],24.94069458,16836,794,1,0,9,1.632953105226947
undo,13,35,0,0,0,0,[0],1,29,"[1, 2, 3, 4, 5, 6, 7, 8, 9, 10, 11, 12, 13, 14, 15, 16, 17, 18, 19, 20, 21, 22, 23, 24, 25, 26, 27, 28, 29]",300,134,-1,5,236,11,0.0
undo,13,35,0,0,0,24,"[0, 24]",2,27,"[1, 2, 4, 5, 6, 7, 8, 9, 10, 11, 12, 13, 14, 15, 16, 17, 18, 19, 20, 21, 22, 23, 25, 26, 27, 28, 29]",268.9838752,1554,1420,49,512,10,1.0
undo,13,35,0,0,0,17,"[0, 24, 17]",3,26,"[1, 2, 4, 5, 6, 7, 8, 9, 10, 11, 12, 13, 14, 15, 16, 18, 19, 20, 21, 22, 23, 25, 26, 27, 28, 29]",257.2791753,2201,647,33,238,10,1.0771477201815276
undo,13,35,0,0,0,1,"[0, 24, 17, 1]",4,25,"[2, 4, 5, 6, 7, 8, 9, 10, 11, 12, 13, 14, 15, 16, 18, 19, 20, 21, 22, 23, 25, 26, 27, 28, 29]",241.4677869,3824,1623,26,151,10,1.2244804141479215
undo,13,35,0,0,0,15,"[0, 24, 17, 1, 15]",5,23,"[2, 4, 5, 6, 7, 8, 9, 10, 11, 12, 14, 16, 18, 19, 20, 21, 22, 23, 25, 26, 27, 28, 29]",218.6204676,4636,812,26,78,10,1.4642196672428094
undo,13,35,0,0,0,5,"[0, 24, 17, 1, 15, 5]",6,13,"[4, 6, 9, 11, 18, 19, 20, 23, 25, 26, 27, 28, 29]",162.2999563,5735,1099,7,20,10,1.2337505118614283
undo,13,35,0,0,0,23,"[0, 24, 17, 1, 15, 5, 23]",7,4,"[6, 9, 18, 25]",107.8481427,6467,732,6,6,10,1.8072927740829974
undo,13,35,0,0,0,9,"[0, 24, 17, 1, 15, 5, 23, 9]",8,3,"[6, 18, 25]",70.20508226,7251,784,2,2,10,2.044176666334238
undo,13,35,0,0,0,18,"[0, 24, 17, 1, 15, 5, 23, 9, 18]",9,2,"[6, 25]",50.18009787,7867,616,2,0,10,1.942139959218181
undo,13,35,0,0,1,25,"[0, 24, 17, 1, 15, 5, 23, 9, 18, 25]",10,0,[],16.34224924,8752,885,1,0,10,1.7516079451103164
undo,13,35,0,1,1,25,"[0, 24, 17, 1, 15, 5, 23, 9, 18, 25]",10,0,[],16.34224924,10281,1529,1,0,10,1.7516079451103164
undo,14,43,0,0,0,0,[0],1,23,"[1, 2, 3, 4, 5, 6, 7, 9, 10, 11, 12, 14, 15, 16, 17, 19, 20, 21, 22, 23, 25, 27, 29]",300,129,-1,16,556,12,0.0
undo,14,43,0,0,0,29,"[0, 29]",2,22,"[1, 2, 3, 4, 5, 6, 7, 9, 10, 11, 12, 14, 15, 16, 17, 19, 20, 21, 22, 23, 25, 27]",277.909278,1720,1591,16,520,12,1.0
undo,14,43,0,0,0,20,"[0, 29, 20]",3,20,"[1, 2, 3, 4, 6, 7, 9, 10, 11, 12, 14, 15, 16, 17, 19, 21, 22, 23, 25, 27]",254.4785289,2972,1252,15,422,12,1.082311746871282
undo,14,43,0,0,0,16,"[0, 29, 20, 16]",4,19,"[1, 2, 3, 4, 6, 7, 9, 10, 11, 12, 14, 15, 17, 19, 21, 22, 23, 25, 27]",231.8511119,3587,615,15,389,12,1.215201926898219
undo,14,43,0,0,0,11,"[0, 29, 20, 16, 11]",5,17,"[1, 2, 3, 4, 6, 7, 9, 10, 12, 14, 15, 17, 19, 21, 22, 23, 25]",196.7227758,4367,780,12,188,12,1.1349145516483516
undo,14,43,0,0,0,6,"[0, 29, 20, 16, 11, 6]",6,15,"[1, 2, 3, 4, 7, 10, 12, 14, 15, 17, 19, 21, 22, 23, 25]",176.1072477,5242,875,10,100,12,1.123330873754209
undo,14,43,0,0,0,22,"[0, 29, 20, 16, 11, 6, 22]",7,10,"[1, 3, 4, 7, 12, 14, 15, 19, 23, 25]",127.0664483,6242,1000,2,36,12,1.449950324670612
undo,14,43,0,0,0,3,"[0, 29, 20, 16, 11, 6, 22, 3]",8,6,"[1, 7, 12, 15, 19, 25]",92.35333841,6956,714,7,5,11,1.8639706189015648
undo,14,43,0,0,0,12,"[0, 29, 20, 16, 11, 6, 22, 3, 12]",9,4,"[1, 15, 19, 25]",79.35333841,7840,884,3,2,11,2.23194460473222
undo,14,43,0,0,0,15,"[0, 29, 20, 16, 11, 6, 22, 3, 12, 15]",10,2,"[19, 25]",60.0401305,9243,1403,2,0,11,2.9022685123229004
undo,14,43,0,0,1,25,"[0, 29, 20, 16, 11, 6, 22, 3, 12, 15, 25]",11,0,[],37.3685624,11144,1901,1,0,11,3.3114742948871525
undo,14,43,1,0,0,15,"[0, 29, 20, 16, 11, 6, 22, 3, 12, 15]",10,2,"[19, 25]",60.0401305,11963,819,2,0,11,2.9022685123229004
undo,14,43,1,0,0,12,"[0, 29, 20, 16, 11, 6, 22, 3, 12]",9,4,"[1, 15, 19, 25]",79.35333841,12162,199,3,2,11,2.23194460473222
undo,14,43,1,0,0,3,"[0, 29, 20, 16, 11, 6, 22, 3]",8,6,"[1, 7, 12, 15, 19, 25]",92.35333841,12412,250,7,5,11,1.8639706189015648
undo,14,43,1,0,0,22,"[0, 29, 20, 16, 11, 6, 22]",7,10,"[1, 3, 4, 7, 12, 14, 15, 19, 23, 25]",127.0664483,12763,351,2,36,12,1.449950324670612
undo,14,43,0,0,0,19,"[0, 29, 20, 16, 11, 6, 22, 19]",8,9,"[1, 3, 4, 7, 12, 14, 15, 23, 25]",106.4509202,13709,946,2,14,12,1.39319676182956
undo,14,43,0,0,0,3,"[0, 29, 20, 16, 11, 6, 22, 19, 3]",9,4,"[1, 12, 15, 25]",65.34131062,14725,1016,2,4,12,2.10644803593285
undo,14,43,0,0,0,12,"[0, 29, 20, 16, 11, 6, 22, 19, 3, 12]",10,2,"[15, 25]",52.34131062,15333,608,2,0,12,2.505183951542712
undo,14,43,0,0,0,25,"[0, 29, 20, 16, 11, 6, 22, 19, 3, 12, 25]",11,1,[15],28.15453738,16151,818,1,0,12,3.427652340002407
undo,14,43,0,0,1,15,"[0, 29, 20, 16, 11, 6, 22, 19, 3, 12, 25, 15]",12,0,[],5.482969278,16921,770,1,0,12,3.5621268939192223
undo,14,43,0,1,1,15,"[0, 29, 20, 16, 11, 6, 22, 19, 3, 12, 25, 15]",12,0,[],5.482969278,19263,2342,1,0,12,3.5621268939192223
undo,15,15,0,0,0,0,[0],1,25,"[1, 2, 3, 4, 7, 8, 9, 10, 11, 12, 13, 14, 15, 16, 18, 20, 21, 22, 23, 24, 25, 26, 27, 28, 29]",300,130,-1,4,65,9,0.0
undo,15,15,0,0,0,21,"[0, 21]",2,17,"[1, 3, 4, 7, 8, 9, 11, 12, 13, 14, 15, 16, 22, 23, 24, 26, 27]",204.9158268,3603,3473,21,65,7,1.0
undo,15,15,0,0,0,12,"[0, 21, 12]",3,14,"[1, 3, 4, 7, 8, 9, 11, 13, 14, 15, 16, 22, 24, 27]",161.0866128,4356,753,20,39,7,1.6068212046294776
undo,15,15,0,0,0,7,"[0, 21, 12, 7]",4,10,"[3, 4, 9, 11, 13, 14, 15, 16, 22, 27]",127.8450725,5077,721,13,11,7,2.0298522511797907
undo,15,15,0,0,0,16,"[0, 21, 12, 7, 16]",5,5,"[3, 4, 11, 15, 22]",84.18731258,5801,724,3,3,7,1.8904046427013528
undo,15,15,0,0,0,11,"[0, 21, 12, 7, 16, 11]",6,1,[3],58.16808892,6487,686,1,0,7,1.9475991988988648
undo,15,15,0,0,1,3,"[0, 21, 12, 7, 16, 11, 3]",7,0,[],46.76633467,7069,582,1,0,7,1.912955285957019
undo,15,15,1,0,0,11,"[0, 21, 12, 7, 16, 11]",6,1,[3],58.16808892,8563,1494,1,0,7,1.9475991988988648
undo,15,15,1,0,0,16,"[0, 21, 12, 7, 16]",5,5,"[3, 4, 11, 15, 22]",84.18731258,8730,167,3,3,7,1.8904046427013528
undo,15,15,1,0,0,7,"[0, 21, 12, 7]",4,10,"[3, 4, 9, 11, 13, 14, 15, 16, 22, 27]",127.8450725,8931,201,13,11,7,2.0298522511797907
undo,15,15,1,0,0,12,"[0, 21, 12]",3,14,"[1, 3, 4, 7, 8, 9, 11, 13, 14, 15, 16, 22, 24, 27]",161.0866128,9180,249,20,39,7,1.6068212046294776
undo,15,15,1,0,0,21,"[0, 21]",2,17,"[1, 3, 4, 7, 8, 9, 11, 12, 13, 14, 15, 16, 22, 23, 24, 26, 27]",204.9158268,9431,251,21,65,7,1.0
undo,15,15,1,0,0,0,[0],1,25,"[1, 2, 3, 4, 7, 8, 9, 10, 11, 12, 13, 14, 15, 16, 18, 20, 21, 22, 23, 24, 25, 26, 27, 28, 29]",300,9814,383,4,65,9,0.0
undo,15,15,0,0,0,7,"[0, 7]",2,23,"[1, 3, 4, 8, 9, 10, 11, 12, 13, 14, 15, 16, 18, 20, 21, 22, 23, 24, 25, 26, 27, 28, 29]",215.1884442,10734,920,30,107,8,1.0
undo,15,15,0,0,0,11,"[0, 7, 11]",3,18,"[3, 4, 8, 9, 10, 12, 13, 14, 15, 16, 18, 20, 21, 22, 23, 25, 27, 29]",173.7035072,11511,777,12,34,8,1.0171318876095128
undo,15,15,0,0,0,16,"[0, 7, 11, 16]",4,10,"[3, 4, 10, 12, 13, 14, 15, 18, 21, 22]",147.6842835,12085,574,5,9,8,1.3342048656649041
undo,15,15,0,0,0,3,"[0, 7, 11, 16, 3]",5,7,"[4, 12, 13, 14, 15, 21, 22]",122.6044111,12784,699,5,3,8,1.3400660178791453
undo,15,15,0,0,0,22,"[0, 7, 11, 16, 3, 22]",6,3,"[4, 13, 15]",72.87514405,14568,1784,2,1,8,1.316472287619004
undo,15,15,0,0,0,15,"[0, 7, 11, 16, 3, 22, 15]",7,1,[13],47.2626471,15478,910,1,0,8,1.286982864826706
undo,15,15,0,0,1,13,"[0, 7, 11, 16, 3, 22, 15, 13]",8,0,[],31.99830958,16289,811,1,0,8,1.3377362302582312
undo,15,15,0,1,1,13,"[0, 7, 11, 16, 3, 22, 15, 13]",8,0,[],31.99830958,18147,1858,1,0,8,1.3377362302582312
undo,16,25,0,0,0,0,[0],1,28,"[1, 2, 3, 4, 5, 7, 8, 9, 10, 11, 12, 13, 14, 15, 16, 17, 18, 19, 20, 21, 22, 23, 24, 25, 26, 27, 28, 29]",300,130,-1,5,94,10,0.0
undo,16,25,0,0,0,23,"[0, 23]",2,23,"[1, 2, 3, 5, 7, 8, 9, 11, 12, 13, 14, 16, 17, 19, 20, 21, 22, 24, 25, 26, 27, 28, 29]",259.7756293,1720,1590,3,33,10,1.0
undo,16,25,0,0,0,7,"[0, 23, 7]",3,16,"[1, 3, 5, 8, 9, 11, 13, 17, 19, 21, 22, 24, 26, 27, 28, 29]",181.9424744,2589,869,1,21,9,1.0073109045884563
undo,16,25,0,0,0,24,"[0, 23, 7, 24]",4,10,"[3, 5, 8, 9, 11, 13, 19, 22, 28, 29]",157.1836376,3253,664,1,17,9,1.0161584555781231
undo,16,25,0,0,0,9,"[0, 23, 7, 24, 9]",5,8,"[3, 8, 11, 13, 19, 22, 28, 29]",139.1558812,3810,557,1,16,9,1.0303325523073676
undo,16,25,0,0,0,8,"[0, 23, 7, 24, 9, 8]",6,3,"[3, 13, 28]",88.9065031,4891,1081,4,1,8,1.055612641218378
undo,16,25,0,0,0,3,"[0, 23, 7, 24, 9, 8, 3]",7,2,"[13, 28]",49.70191153,5572,681,2,0,8,1.351837400410144
undo,16,25,0,0,1,28,"[0, 23, 7, 24, 9, 8, 3, 28]",8,0,[],18.39695985,6320,748,1,0,8,1.3013490779110028
undo,16,25,1,0,0,3,"[0, 23, 7, 24, 9, 8, 3]",7,2,"[13, 28]",49.70191153,8214,1894,2,0,8,1.351837400410144
undo,16,25,1,0,0,8,"[0, 23, 7, 24, 9, 8]",6,3,"[3, 13, 28]",88.9065031,8379,165,4,1,8,1.055612641218378
undo,16,25,1,0,0,9,"[0, 23, 7, 24, 9]",5,8,"[3, 8, 11, 13, 19, 22, 28, 29]",139.1558812,8531,152,1,16,9,1.0303325523073676
undo,16,25,1,0,0,24,"[0, 23, 7, 24]",4,10,"[3, 5, 8, 9, 11, 13, 19, 22, 28, 29]",157.1836376,8679,148,1,17,9,1.0161584555781231
undo,16,25,1,0,0,7,"[0, 23, 7]",3,16,"[1, 3, 5, 8, 9, 11, 13, 17, 19, 21, 22, 24, 26, 27, 28, 29]",181.9424744,8830,151,1,21,9,1.0073109045884563
undo,16,25,1,0,0,23,"[0, 23]",2,23,"[1, 2, 3, 5, 7, 8, 9, 11, 12, 13, 14, 16, 17, 19, 20, 21, 22, 24, 25, 26, 27, 28, 29]",259.7756293,9080,250,3,33,10,1.0
undo,16,25,1,0,0,0,[0],1,28,"[1, 2, 3, 4, 5, 7, 8, 9, 10, 11, 12, 13, 14, 15, 16, 17, 18, 19, 20, 21, 22, 23, 24, 25, 26, 27, 28, 29]",300,9364,284,5,94,10,0.0
undo,16,25,0,0,0,23,"[0, 23]",2,23,"[1, 2, 3, 5, 7, 8, 9, 11, 12, 13, 14, 16, 17, 19, 20, 21, 22, 24, 25, 26, 27, 28, 29]",259.7756293,11496,2132,3,33,10,1.0
undo,16,25,0,0,0,19,"[0, 23, 19]",3,21,"[1, 2, 3, 5, 7, 8, 9, 11, 12, 13, 14, 16, 17, 20, 21, 22, 24, 25, 27, 28, 29]",223.9287326,12251,755,3,24,10,1.583101227007039
undo,16,25,0,0,0,29,"[0, 23, 19, 29]",4,19,"[1, 2, 3, 5, 7, 8, 9, 11, 12, 13, 14, 16, 17, 20, 21, 22, 24, 25, 28]",207.649912,13029,778,3,17,10,1.474631541426484
undo,16,25,0,0,0,22,"[0, 23, 19, 29, 22]",5,18,"[1, 2, 3, 5, 7, 8, 9, 11, 12, 13, 14, 16, 17, 20, 21, 24, 25, 28]",191.5253965,13578,549,3,14,10,1.4020377754906637
undo,16,25,0,0,0,1,"[0, 23, 19, 29, 22, 1]",6,3,"[5, 20, 21]",107.7996538,14570,992,2,1,8,6.190356330063188
undo,16,25,0,0,0,21,"[0, 23, 19, 29, 22, 1, 21]",7,1,[20],79.35672846,15368,798,1,0,8,4.394447349021464
undo,16,25,0,0,1,20,"[0, 23, 19, 29, 22, 1, 21, 20]",8,0,[],41.87339884,16028,660,1,0,8,3.3093153994871796
undo,16,25,1,0,0,21,"[0, 23, 19, 29, 22, 1, 21]",7,1,[20],79.35672846,16813,785,1,0,8,4.394447349021464
undo,16,25,1,0,0,1,"[0, 23, 19, 29, 22, 1]",6,3,"[5, 20, 21]",107.7996538,17147,334,2,1,8,6.190356330063188
undo,16,25,1,0,0,22,"[0, 23, 19, 29, 22]",5,18,"[1, 2, 3, 5, 7, 8, 9, 11, 12, 13, 14, 16, 17, 20, 21, 24, 25, 28]",191.5253965,17298,151,3,14,10,1.4020377754906637
undo,16,25,1,0,0,29,"[0, 23, 19, 29]",4,19,"[1, 2, 3, 5, 7, 8, 9, 11, 12, 13, 14, 16, 17, 20, 21, 22, 24, 25, 28]",207.649912,17446,148,3,17,10,1.474631541426484
undo,16,25,1,0,0,19,"[0, 23, 19]",3,21,"[1, 2, 3, 5, 7, 8, 9, 11, 12, 13, 14, 16, 17, 20, 21, 22, 24, 25, 27, 28, 29]",223.9287326,17596,150,3,24,10,1.583101227007039
undo,16,25,1,0,0,23,"[0, 23]",2,23,"[1, 2, 3, 5, 7, 8, 9, 11, 12, 13, 14, 16, 17, 19, 20, 21, 22, 24, 25, 26, 27, 28, 29]",259.7756293,18063,467,3,33,10,1.0
undo,16,25,0,0,0,7,"[0, 23, 7]",3,16,"[1, 3, 5, 8, 9, 11, 13, 17, 19, 21, 22, 24, 26, 27, 28, 29]",181.9424744,19954,1891,1,21,9,1.0073109045884563
undo,16,25,0,0,0,24,"[0, 23, 7, 24]",4,10,"[3, 5, 8, 9, 11, 13, 19, 22, 28, 29]",157.1836376,20769,815,1,17,9,1.0161584555781231
undo,16,25,0,0,0,9,"[0, 23, 7, 24, 9]",5,8,"[3, 8, 11, 13, 19, 22, 28, 29]",139.1558812,21723,954,1,16,9,1.0303325523073676
undo,16,25,0,0,0,13,"[0, 23, 7, 24, 9, 13]",6,4,"[3, 8, 11, 28]",82.83536984,22637,914,4,2,8,1.077425030028217
undo,16,25,0,0,0,3,"[0, 23, 7, 24, 9, 13, 3]",7,2,"[8, 28]",51.59437114,23635,998,2,0,8,1.341616396745267
undo,16,25,0,0,1,28,"[0, 23, 7, 24, 9, 13, 3, 28]",8,0,[],20.28941946,24338,703,1,0,8,1.292603609228756
undo,16,25,0,1,1,28,"[0, 23, 7, 24, 9, 13, 3, 28]",8,0,[],20.28941946,25546,1208,1,0,8,1.292603609228756
undo,17,0,0,0,0,0,[0],1,27,"[2, 3, 4, 5, 6, 7, 8, 9, 10, 11, 12, 13, 14, 15, 16, 17, 19, 20, 21, 22, 23, 24, 25, 26, 27, 28, 29]",300,164,-1,104,1136,9,0.0
undo,17,0,0,0,0,28,"[0, 28]",2,26,"[2, 3, 4, 5, 6, 7, 8, 9, 10, 11, 12, 13, 14, 15, 16, 17, 19, 20, 21, 22, 23, 24, 25, 26, 27, 29]",194.9190788,2328,2164,39,388,9,1.0
undo,17,0,0,0,0,5,"[0, 28, 5]",3,21,"[2, 3, 4, 7, 8, 9, 11, 12, 13, 14, 15, 16, 17, 19, 20, 21, 23, 24, 25, 26, 29]",151.2613189,3705,1377,27,210,9,1.0978295127671733
undo,17,0,0,0,0,24,"[0, 28, 5, 24]",4,15,"[2, 3, 4, 7, 8, 9, 11, 12, 15, 17, 19, 20, 23, 25, 26]",118.5046402,4585,880,5,55,9,1.0878913317206194
undo,17,0,0,0,0,4,"[0, 28, 5, 24, 4]",5,12,"[3, 7, 8, 9, 11, 12, 15, 17, 19, 20, 23, 26]",107.1028859,5377,792,4,27,9,1.232248723295087
undo,17,0,0,0,0,26,"[0, 28, 5, 24, 4, 26]",6,10,"[3, 7, 8, 9, 11, 12, 15, 17, 19, 23]",95.06129136,6721,1344,4,18,9,1.26853876021577
undo,17,0,0,0,0,15,"[0, 28, 5, 24, 4, 26, 15]",7,5,"[3, 7, 8, 9, 11]",58.29173874,7518,797,3,3,9,1.278682824219474
undo,17,0,0,0,0,8,"[0, 28, 5, 24, 4, 26, 15, 8]",8,1,[7],19.1765243,8402,884,1,0,9,1.2623351729997432
undo,17,0,0,0,1,7,"[0, 28, 5, 24, 4, 26, 15, 8, 7]",9,0,[],0.07155113,9212,810,1,0,9,1.4629959808687683
undo,17,0,1,0,0,8,"[0, 28, 5, 24, 4, 26, 15, 8]",8,1,[7],19.1765243,11197,1985,1,0,9,1.2623351729997432
undo,17,0,1,0,0,15,"[0, 28, 5, 24, 4, 26, 15]",7,5,"[3, 7, 8, 9, 11]",58.29173874,11363,166,3,3,9,1.278682824219474
undo,17,0,1,0,0,26,"[0, 28, 5, 24, 4, 26]",6,10,"[3, 7, 8, 9, 11, 12, 15, 17, 19, 23]",95.06129136,11513,150,4,18,9,1.26853876021577
undo,17,0,1,0,0,4,"[0, 28, 5, 24, 4]",5,12,"[3, 7, 8, 9, 11, 12, 15, 17, 19, 20, 23, 26]",107.1028859,11696,183,4,27,9,1.232248723295087
undo,17,0,1,0,0,24,"[0, 28, 5, 24]",4,15,"[2, 3, 4, 7, 8, 9, 11, 12, 15, 17, 19, 20, 23, 25, 26]",118.5046402,11897,201,5,55,9,1.0878913317206194
undo,17,0,1,0,0,5,"[0, 28, 5]",3,21,"[2, 3, 4, 7, 8, 9, 11, 12, 13, 14, 15, 16, 17, 19, 20, 21, 23, 24, 25, 26, 29]",151.2613189,12081,184,27,210,9,1.0978295127671733
undo,17,0,1,0,0,28,"[0, 28]",2,26,"[2, 3, 4, 5, 6, 7, 8, 9, 10, 11, 12, 13, 14, 15, 16, 17, 19, 20, 21, 22, 23, 24, 25, 26, 27, 29]",194.9190788,12447,366,39,388,9,1.0
undo,17,0,1,0,0,0,[0],1,27,"[2, 3, 4, 5, 6, 7, 8, 9, 10, 11, 12, 13, 14, 15, 16, 17, 19, 20, 21, 22, 23, 24, 25, 26, 27, 28, 29]",300,12864,417,104,1136,9,0.0
undo,17,0,0,0,0,28,"[0, 28]",2,26,"[2, 3, 4, 5, 6, 7, 8, 9, 10, 11, 12, 13, 14, 15, 16, 17, 19, 20, 21, 22, 23, 24, 25, 26, 27, 29]",194.9190788,14694,1830,39,388,9,1.0
undo,17,0,0,0,0,12,"[0, 28, 12]",3,19,"[3, 4, 5, 7, 8, 9, 10, 11, 13, 14, 15, 17, 19, 20, 21, 22, 23, 24, 26]",141.7683497,16070,1376,3,43,9,1.0142012686492925
undo,17,0,0,0,0,17,"[0, 28, 12, 17]",4,15,"[3, 4, 5, 7, 8, 9, 10, 13, 14, 15, 19, 22, 23, 24, 26]",108.0340942,17725,1655,3,43,8,1.0118475378909342
undo,17,0,0,0,0,3,"[0, 28, 12, 17, 3]",5,9,"[4, 7, 8, 15, 19, 22, 23, 24, 26]",72.22906657,18676,951,11,5,7,1.0507966655550791
undo,17,0,0,0,0,7,"[0, 28, 12, 17, 3, 7]",6,5,"[8, 15, 19, 24, 26]",48.14587741,19529,853,5,0,7,1.22849823183697
undo,17,0,0,0,1,8,"[0, 28, 12, 17, 3, 7, 8]",7,0,[],29.04090424,20384,855,1,0,7,1.2179936031681755
undo,17,0,1,0,0,7,"[0, 28, 12, 17, 3, 7]",6,5,"[8, 15, 19, 24, 26]",48.14587741,21482,1098,5,0,7,1.22849823183697
undo,17,0,1,0,0,3,"[0, 28, 12, 17, 3]",5,9,"[4, 7, 8, 15, 19, 22, 23, 24, 26]",72.22906657,21664,182,11,5,7,1.0507966655550791
undo,17,0,1,0,0,17,"[0, 28, 12, 17]",4,15,"[3, 4, 5, 7, 8, 9, 10, 13, 14, 15, 19, 22, 23, 24, 26]",108.0340942,21864,200,3,43,8,1.0118475378909342
undo,17,0,1,0,0,12,"[0, 28, 12]",3,19,"[3, 4, 5, 7, 8, 9, 10, 11, 13, 14, 15, 17, 19, 20, 21, 22, 23, 24, 26]",141.7683497,22014,150,3,43,9,1.0142012686492925
undo,17,0,1,0,0,28,"[0, 28]",2,26,"[2, 3, 4, 5, 6, 7, 8, 9, 10, 11, 12, 13, 14, 15, 16, 17, 19, 20, 21, 22, 23, 24, 25, 26, 27, 29]",194.9190788,22197,183,39,388,9,1.0
undo,17,0,1,0,0,0,[0],1,27,"[2, 3, 4, 5, 6, 7, 8, 9, 10, 11, 12, 13, 14, 15, 16, 17, 19, 20, 21, 22, 23, 24, 25, 26, 27, 28, 29]",300,23281,1084,104,1136,9,0.0
undo,17,0,0,0,0,5,"[0, 5]",2,24,"[2, 3, 4, 7, 8, 9, 11, 12, 13, 14, 15, 16, 17, 19, 20, 21, 22, 23, 24, 25, 26, 27, 28, 29]",164.5156836,24487,1206,5,112,9,1.0
undo,17,0,1,0,0,0,[0],1,27,"[2, 3, 4, 5, 6, 7, 8, 9, 10, 11, 12, 13, 14, 15, 16, 17, 19, 20, 21, 22, 23, 24, 25, 26, 27, 28, 29]",300,25830,1343,104,1136,9,0.0
undo,17,0,0,0,0,28,"[0, 28]",2,26,"[2, 3, 4, 5, 6, 7, 8, 9, 10, 11, 12, 13, 14, 15, 16, 17, 19, 20, 21, 22, 23, 24, 25, 26, 27, 29]",194.9190788,26592,762,39,388,9,1.0
undo,17,0,0,0,0,5,"[0, 28, 5]",3,21,"[2, 3, 4, 7, 8, 9, 11, 12, 13, 14, 15, 16, 17, 19, 20, 21, 23, 24, 25, 26, 29]",151.2613189,28103,1511,27,210,9,1.0978295127671733
undo,17,0,0,0,0,26,"[0, 28, 5, 26]",4,15,"[3, 4, 7, 8, 9, 11, 12, 13, 14, 15, 17, 19, 20, 23, 24]",115.8212286,28937,834,5,35,9,1.1400379746718978
undo,17,0,0,0,0,4,"[0, 28, 5, 26, 4]",5,12,"[3, 7, 8, 9, 11, 12, 15, 17, 19, 20, 23, 24]",103.779634,29585,648,4,17,9,1.2534780347343448
undo,17,0,0,0,0,24,"[0, 28, 5, 26, 4, 24]",6,9,"[3, 7, 8, 9, 11, 12, 15, 17, 19]",92.37787977,30240,655,4,12,9,1.2444963062448124
undo,17,0,0,0,0,15,"[0, 28, 5, 26, 4, 24, 15]",7,6,"[3, 7, 8, 9, 11, 17]",69.03264471,31018,778,3,4,9,1.2218613820858855
undo,17,0,0,0,0,8,"[0, 28, 5, 26, 4, 24, 15, 8]",8,1,[7],29.91743028,31846,828,1,0,9,1.21405351358847
undo,17,0,0,0,1,7,"[0, 28, 5, 26, 4, 24, 15, 8, 7]",9,0,[],10.81245711,34201,2355,1,0,9,1.4106038108734493
undo,17,0,0,1,1,7,"[0, 28, 5, 26, 4, 24, 15, 8, 7]",9,0,[],10.81245711,34964,763,1,0,9,1.4106038108734493
undo,18,20,0,0,0,0,[0],1,21,"[1, 2, 3, 4, 5, 6, 7, 8, 9, 12, 17, 18, 20, 21, 22, 23, 25, 26, 27, 28, 29]",300,128,-1,1,9,9,0.0
undo,18,20,0,0,0,5,"[0, 5]",2,14,"[1, 3, 4, 6, 8, 9, 12, 20, 21, 23, 26, 27, 28, 29]",174.3576505,4835,4707,3,24,7,1.0
undo,18,20,0,0,0,21,"[0, 5, 21]",3,10,"[1, 4, 6, 8, 9, 20, 23, 26, 27, 28]",129.3576505,5687,852,3,13,7,1.000374735486217
undo,18,20,0,0,0,8,"[0, 5, 21, 8]",4,6,"[1, 6, 9, 23, 27, 28]",111.8934013,6309,622,3,7,7,1.0232558372988163
undo,18,20,0,0,0,23,"[0, 5, 21, 8, 23]",5,4,"[6, 9, 27, 28]",67.20559531,7198,889,2,2,7,1.022001720978389
undo,18,20,0,0,0,9,"[0, 5, 21, 8, 23, 9]",6,1,[6],47.9962226,7924,726,1,0,7,1.0216742507052117
undo,18,20,0,0,1,6,"[0, 5, 21, 8, 23, 9, 6]",7,0,[],24.97449373,8892,968,1,0,7,1.037647415066349
undo,18,20,1,0,0,9,"[0, 5, 21, 8, 23, 9]",6,1,[6],47.9962226,11062,2170,1,0,7,1.0216742507052117
undo,18,20,1,0,0,23,"[0, 5, 21, 8, 23]",5,4,"[6, 9, 27, 28]",67.20559531,11261,199,2,2,7,1.022001720978389
undo,18,20,1,0,0,8,"[0, 5, 21, 8]",4,6,"[1, 6, 9, 23, 27, 28]",111.8934013,11446,185,3,7,7,1.0232558372988163
undo,18,20,1,0,0,21,"[0, 5, 21]",3,10,"[1, 4, 6, 8, 9, 20, 23, 26, 27, 28]",129.3576505,11629,183,3,13,7,1.000374735486217
undo,18,20,1,0,0,5,"[0, 5]",2,14,"[1, 3, 4, 6, 8, 9, 12, 20, 21, 23, 26, 27, 28, 29]",174.3576505,11845,216,3,24,7,1.0
undo,18,20,1,0,0,0,[0],1,21,"[1, 2, 3, 4, 5, 6, 7, 8, 9, 12, 17, 18, 20, 21, 22, 23, 25, 26, 27, 28, 29]",300,12127,282,1,9,9,0.0
undo,18,20,0,0,0,12,"[0, 12]",2,20,"[1, 2, 3, 4, 5, 6, 7, 8, 9, 17, 18, 20, 21, 22, 23, 25, 26, 27, 28, 29]",271.5570747,15000,2873,1,8,9,1.0
undo,18,20,0,0,0,4,"[0, 12, 4]",3,16,"[1, 2, 3, 5, 7, 8, 17, 18, 20, 21, 22, 23, 25, 27, 28, 29]",172.5621253,16757,1757,15,27,6,1.008841403233763
undo,18,20,0,0,0,20,"[0, 12, 4, 20]",4,9,"[1, 2, 3, 5, 8, 17, 21, 22, 28]",136.5482391,17333,576,5,5,6,1.0077334792951635
undo,18,20,0,0,0,3,"[0, 12, 4, 20, 3]",5,1,[17],42.58548054,18503,1170,1,0,6,1.543065066032566
undo,18,20,0,0,1,17,"[0, 12, 4, 20, 3, 17]",6,0,[],3.470266105,19333,830,1,0,6,1.4556598298545078
undo,18,20,1,0,0,3,"[0, 12, 4, 20, 3]",5,1,[17],42.58548054,20212,879,1,0,6,1.543065066032566
undo,18,20,1,0,0,20,"[0, 12, 4, 20]",4,9,"[1, 2, 3, 5, 8, 17, 21, 22, 28]",136.5482391,20362,150,5,5,6,1.0077334792951635
undo,18,20,1,0,0,4,"[0, 12, 4]",3,16,"[1, 2, 3, 5, 7, 8, 17, 18, 20, 21, 22, 23, 25, 27, 28, 29]",172.5621253,20528,166,15,27,6,1.008841403233763
undo,18,20,1,0,0,12,"[0, 12]",2,20,"[1, 2, 3, 4, 5, 6, 7, 8, 9, 17, 18, 20, 21, 22, 23, 25, 26, 27, 28, 29]",271.5570747,20845,317,1,8,9,1.0
undo,18,20,1,0,0,0,[0],1,21,"[1, 2, 3, 4, 5, 6, 7, 8, 9, 12, 17, 18, 20, 21, 22, 23, 25, 26, 27, 28, 29]",300,21278,433,1,9,9,0.0
undo,18,20,0,0,0,1,"[0, 1]",2,14,"[3, 4, 5, 6, 8, 9, 12, 20, 21, 23, 26, 27, 28, 29]",197.3501096,22552,1274,1,9,8,1.0
undo,18,20,0,0,0,5,"[0, 1, 5]",3,12,"[4, 6, 8, 9, 12, 20, 21, 23, 26, 27, 28, 29]",160.675868,23683,1131,1,8,8,1.1088946720668915
undo,18,20,0,0,0,21,"[0, 1, 5, 21]",4,8,"[4, 6, 8, 9, 20, 23, 27, 28]",115.675868,24576,893,1,6,8,1.0805828994591202
undo,18,20,0,0,0,8,"[0, 1, 5, 21, 8]",5,5,"[6, 9, 23, 27, 28]",98.21161876,25366,790,1,5,8,1.0976815296746363
undo,18,20,0,0,0,23,"[0, 1, 5, 21, 8, 23]",6,3,"[6, 9, 27]",53.52381281,26871,1505,1,2,8,1.0820667611140062
undo,18,20,0,0,0,9,"[0, 1, 5, 21, 8, 23, 9]",7,1,[6],34.3144401,28068,1197,1,0,8,1.0771429624373048
undo,18,20,0,0,1,6,"[0, 1, 5, 21, 8, 23, 9, 6]",8,0,[],11.29271124,29018,950,1,0,8,1.0892675954154076
undo,18,20,0,1,1,6,"[0, 1, 5, 21, 8, 23, 9, 6]",8,0,[],11.29271124,30279,1261,1,0,8,1.0892675954154076
undo,19,4,0,0,0,0,[0],1,26,"[3, 4, 5, 6, 7, 8, 10, 11, 12, 13, 14, 15, 16, 17, 18, 19, 20, 21, 22, 23, 24, 25, 26, 27, 28, 29]",300,131,-1,4,489,10,0.0
undo,19,4,0,0,0,28,"[0, 28]",2,21,"[3, 4, 5, 6, 10, 11, 12, 13, 14, 15, 16, 17, 19, 20, 21, 22, 23, 24, 25, 26, 27]",225.9392142,2604,2473,2,216,10,1.0
undo,19,4,0,0,0,14,"[0, 28, 14]",3,13,"[3, 4, 5, 6, 11, 13, 16, 17, 20, 21, 22, 24, 25]",159.6972335,3391,787,1,26,10,1.0273973946789214
undo,19,4,0,0,0,25,"[0, 28, 14, 25]",4,12,"[3, 4, 5, 6, 11, 13, 16, 17, 20, 21, 22, 24]",143.572718,4069,678,1,25,10,1.233547772313525
undo,19,4,0,0,0,11,"[0, 28, 14, 25, 11]",5,10,"[3, 4, 5, 6, 13, 16, 17, 20, 21, 22]",124.7844238,5178,1109,1,15,10,1.425978575879479
undo,19,4,0,0,0,16,"[0, 28, 14, 25, 11, 16]",6,9,"[3, 4, 5, 6, 13, 17, 20, 21, 22]",109.7844238,5857,679,1,12,10,1.3799325158051412
undo,19,4,0,0,0,17,"[0, 28, 14, 25, 11, 16, 17]",7,5,"[3, 5, 20, 21, 22]",83.70761416,6775,918,1,5,10,1.3195184878861832
undo,19,4,0,0,0,21,"[0, 28, 14, 25, 11, 16, 17, 21]",8,1,[22],34.45317274,7840,1065,1,0,9,1.7966566629354186
undo,19,4,0,0,1,22,"[0, 28, 14, 25, 11, 16, 17, 21, 22]",9,0,[],23.40781172,8455,615,1,0,9,1.7433011729935863
undo,19,4,0,1,1,22,"[0, 28, 14, 25, 11, 16, 17, 21, 22]",9,0,[],23.40781172,9962,1507,1,0,9,1.7433011729935863
undo,20,13,0,0,0,0,[0],1,29,"[1, 2, 3, 4, 5, 6, 7, 8, 9, 10, 11, 12, 13, 14, 15, 16, 17, 18, 19, 20, 21, 22, 23, 24, 25, 26, 27, 28, 29]",300,129,-1,60,2676,11,0.0
undo,20,13,0,0,0,28,"[0, 28]",2,24,"[1, 2, 3, 4, 6, 7, 8, 9, 10, 11, 12, 13, 15, 16, 17, 19, 20, 21, 22, 23, 24, 26, 27, 29]",226.3182519,1594,1465,12,378,10,1.0
undo,20,13,0,0,0,2,"[0, 28, 2]",3,20,"[1, 3, 4, 6, 7, 9, 11, 12, 13, 15, 16, 17, 19, 20, 21, 23, 24, 26, 27, 29]",188.6751915,2466,872,9,174,10,1.0158286399660754
undo,20,13,0,0,0,29,"[0, 28, 2, 29]",4,19,"[1, 3, 4, 6, 7, 9, 11, 12, 13, 15, 16, 17, 19, 20, 21, 23, 24, 26, 27]",176.9704916,3142,676,9,132,10,1.1053279759370194
undo,20,13,0,0,0,7,"[0, 28, 2, 29, 7]",5,18,"[1, 3, 4, 6, 9, 11, 12, 13, 15, 16, 17, 19, 20, 21, 23, 24, 26, 27]",161.706154,3884,742,6,72,10,1.313811244316471
undo,20,13,0,0,0,26,"[0, 28, 2, 29, 7, 26]",6,17,"[1, 3, 4, 6, 9, 11, 12, 13, 15, 16, 17, 19, 20, 21, 23, 24, 27]",151.2658475,4519,635,6,39,10,1.554636901089982
undo,20,13,0,0,0,6,"[0, 28, 2, 29, 7, 26, 6]",7,13,"[1, 3, 4, 11, 13, 15, 16, 17, 19, 20, 23, 24, 27]",131.1660963,5888,1369,4,17,10,1.554967005613632
undo,20,13,0,0,0,11,"[0, 28, 2, 29, 7, 26, 6, 11]",8,6,"[1, 13, 15, 16, 17, 23]",112.0611231,6642,754,3,4,10,1.4733168623367165
undo,20,13,0,0,0,13,"[0, 28, 2, 29, 7, 26, 6, 11, 13]",9,2,"[15, 17]",55.98082354,7552,910,2,0,10,1.3447287374536006
undo,20,13,0,0,1,15,"[0, 28, 2, 29, 7, 26, 6, 11, 13, 15]",10,0,[],16.16876507,8399,847,1,0,10,1.3473372715243728
undo,20,13,0,1,1,15,"[0, 28, 2, 29, 7, 26, 6, 11, 13, 15]",10,0,[],16.16876507,9246,847,1,0,10,1.3473372715243728
undo,21,30,0,0,0,0,[0],1,19,"[3, 4, 5, 7, 9, 11, 16, 17, 18, 19, 20, 21, 22, 24, 25, 26, 27, 28, 29]",300,134,-1,5,41,8,0.0
undo,21,30,0,0,0,25,"[0, 25]",2,12,"[3, 5, 7, 9, 11, 16, 18, 19, 20, 24, 27, 29]",121.1005869,1618,1484,7,37,7,1.0
undo,21,30,0,0,0,20,"[0, 25, 20]",3,9,"[3, 5, 7, 9, 11, 18, 19, 27, 29]",99.16887472,2351,733,5,16,7,1.0037291321296267
undo,21,30,0,0,0,27,"[0, 25, 20, 27]",4,4,"[3, 5, 18, 29]",65.11010199,3302,951,4,6,7,1.1217072851053165
undo,21,30,0,0,0,3,"[0, 25, 20, 27, 3]",5,3,"[5, 18, 29]",46.00512882,4521,1219,4,0,7,1.1140018780928678
undo,21,30,0,0,0,29,"[0, 25, 20, 27, 3, 29]",6,1,[18],27.40405358,6275,1754,1,0,7,1.119672312555708
undo,21,30,0,0,1,18,"[0, 25, 20, 27, 3, 29, 18]",7,0,[],8.090845662,7385,1110,1,0,7,1.1951451398733344
undo,21,30,1,0,0,29,"[0, 25, 20, 27, 3, 29]",6,1,[18],27.40405358,8963,1578,1,0,7,1.119672312555708
undo,21,30,1,0,0,3,"[0, 25, 20, 27, 3]",5,3,"[5, 18, 29]",46.00512882,9163,200,4,0,7,1.1140018780928678
undo,21,30,1,0,0,27,"[0, 25, 20, 27]",4,4,"[3, 5, 18, 29]",65.11010199,9513,350,4,6,7,1.1217072851053165
undo,21,30,1,0,0,20,"[0, 25, 20]",3,9,"[3, 5, 7, 9, 11, 18, 19, 27, 29]",99.16887472,9747,234,5,16,7,1.0037291321296267
undo,21,30,1,0,0,25,"[0, 25]",2,12,"[3, 5, 7, 9, 11, 16, 18, 19, 20, 24, 27, 29]",121.1005869,9980,233,7,37,7,1.0
undo,21,30,0,0,0,29,"[0, 25, 29]",3,7,"[3, 5, 7, 18, 19, 20, 27]",52.83639426,11206,1226,1,5,6,1.0152104227996284
undo,21,30,0,0,1,7,"[0, 25, 29, 7]",4,0,[],13.72117983,12329,1123,1,0,4,1.0182958996232798
undo,21,30,1,0,0,29,"[0, 25, 29]",3,7,"[3, 5, 7, 18, 19, 20, 27]",52.83639426,12864,535,1,5,6,1.0152104227996284
undo,21,30,1,0,0,25,"[0, 25]",2,12,"[3, 5, 7, 9, 11, 16, 18, 19, 20, 24, 27, 29]",121.1005869,13080,216,7,37,7,1.0
undo,21,30,1,0,0,0,[0],1,19,"[3, 4, 5, 7, 9, 11, 16, 17, 18, 19, 20, 21, 22, 24, 25, 26, 27, 28, 29]",300,13313,233,5,41,8,0.0
undo,21,30,0,0,0,16,"[0, 16]",2,17,"[3, 5, 7, 9, 11, 17, 18, 19, 20, 21, 22, 24, 25, 26, 27, 28, 29]",219.3774225,14586,1273,5,34,8,1.0
undo,21,30,0,0,0,26,"[0, 16, 26]",3,8,"[9, 11, 17, 20, 22, 25, 27, 28]",176.927452,15518,932,7,3,5,1.3420329969668985
undo,21,30,0,0,0,11,"[0, 16, 26, 11]",4,2,"[9, 22]",85.70793651,16361,843,2,0,5,1.2025792475959363
undo,21,30,0,0,1,9,"[0, 16, 26, 11, 9]",5,0,[],29.1924519,17885,1524,1,0,5,1.3337684280711692
undo,21,30,1,0,0,11,"[0, 16, 26, 11]",4,2,"[9, 22]",85.70793651,18530,645,2,0,5,1.2025792475959363
undo,21,30,1,0,0,26,"[0, 16, 26]",3,8,"[9, 11, 17, 20, 22, 25, 27, 28]",176.927452,18697,167,7,3,5,1.3420329969668985
undo,21,30,1,0,0,16,"[0, 16]",2,17,"[3, 5, 7, 9, 11, 17, 18, 19, 20, 21, 22, 24, 25, 26, 27, 28, 29]",219.3774225,19030,333,5,34,8,1.0
undo,21,30,0,0,0,25,"[0, 16, 25]",3,10,"[3, 5, 7, 9, 11, 18, 19, 20, 27, 29]",115.0845656,20041,1011,5,28,8,1.0336279544884488
undo,21,30,0,0,0,20,"[0, 16, 25, 20]",4,8,"[3, 5, 7, 9, 18, 19, 27, 29]",93.15285342,20633,592,4,14,8,1.0337964627284246
undo,21,30,0,0,0,27,"[0, 16, 25, 20, 27]",5,4,"[3, 5, 18, 29]",59.09408069,21335,702,4,6,8,1.1504365534848
undo,21,30,0,0,0,3,"[0, 16, 25, 20, 27, 3]",6,3,"[5, 18, 29]",39.98910751,22519,1184,4,0,8,1.1403876826835333
undo,21,30,0,0,0,5,"[0, 16, 25, 20, 27, 3, 5]",7,1,[18],15.14962282,23352,833,1,0,8,1.1779731652786363
undo,21,30,0,0,1,18,"[0, 16, 25, 20, 27, 3, 5, 18]",8,0,[],2.111218006,24146,794,1,0,8,1.2196271502012654
undo,21,30,0,1,1,18,"[0, 16, 25, 20, 27, 3, 5, 18]",8,0,[],2.111218006,24730,584,1,0,8,1.2196271502012654
undo,22,44,0,0,0,0,[0],1,29,"[1, 2, 3, 4, 5, 6, 7, 8, 9, 10, 11, 12, 13, 14, 15, 16, 17, 18, 19, 20, 21, 22, 23, 24, 25, 26, 27, 28, 29]",300,129,-1,13,126,7,0.0
undo,22,44,0,0,0,11,"[0, 11]",2,18,"[4, 5, 6, 7, 8, 9, 12, 14, 16, 17, 19, 20, 22, 23, 24, 25, 26, 28]",152.7790776,2250,2121,5,34,7,1.0
undo,22,44,0,0,0,24,"[0, 11, 24]",3,13,"[4, 5, 7, 8, 9, 12, 14, 17, 20, 22, 23, 25, 28]",125.8532535,2962,712,5,23,7,1.1588941745226709
undo,22,44,0,0,0,9,"[0, 11, 24, 9]",4,7,"[4, 7, 8, 12, 14, 20, 23]",93.09657483,3702,740,2,8,7,1.3039383713641313
undo,22,44,0,0,0,4,"[0, 11, 24, 9, 4]",5,5,"[7, 12, 14, 20, 23]",73.39885923,4653,951,2,3,7,1.2901330701441578
undo,22,44,0,0,0,7,"[0, 11, 24, 9, 4, 7]",6,1,[23],42.38273439,6141,1488,1,0,7,1.2468141312360979
undo,22,44,0,0,1,23,"[0, 11, 24, 9, 4, 7, 23]",7,0,[],23.27776121,7009,868,1,0,7,1.2635191782769477
undo,22,44,0,1,1,23,"[0, 11, 24, 9, 4, 7, 23]",7,0,[],23.27776121,7932,923,1,0,7,1.2635191782769477
basic,23,4,0,0,0,0,[0],1,26,"[3, 4, 5, 6, 7, 8, 10, 11, 12, 13, 14, 15, 16, 17, 18, 19, 20, 21, 22, 23, 24, 25, 26, 27, 28, 29]",300,159,-1,4,489,10,0.0
basic,23,4,0,0,0,28,"[0, 28]",2,21,"[3, 4, 5, 6, 10, 11, 12, 13, 14, 15, 16, 17, 19, 20, 21, 22, 23, 24, 25, 26, 27]",225.9392142,2278,2119,2,216,10,1.0
basic,23,4,0,0,0,14,"[0, 28, 14]",3,13,"[3, 4, 5, 6, 11, 13, 16, 17, 20, 21, 22, 24, 25]",159.6972335,3508,1230,1,26,10,1.0273973946789214
basic,23,4,0,0,0,25,"[0, 28, 14, 25]",4,12,"[3, 4, 5, 6, 11, 13, 16, 17, 20, 21, 22, 24]",143.572718,4130,622,1,25,10,1.233547772313525
basic,23,4,0,0,0,11,"[0, 28, 14, 25, 11]",5,10,"[3, 4, 5, 6, 13, 16, 17, 20, 21, 22]",124.7844238,4953,823,1,15,10,1.425978575879479
basic,23,4,0,0,0,16,"[0, 28, 14, 25, 11, 16]",6,9,"[3, 4, 5, 6, 13, 17, 20, 21, 22]",109.7844238,5728,775,1,12,10,1.3799325158051412
basic,23,4,0,0,0,3,"[0, 28, 14, 25, 11, 16, 3]",7,2,"[17, 20]",68.15510719,6770,1042,1,1,9,1.3292844629725955
basic,23,4,0,0,0,17,"[0, 28, 14, 25, 11, 16, 3, 17]",8,1,[20],43.63980585,7654,884,1,0,9,1.5639571149270572
basic,23,4,0,0,1,20,"[0, 28, 14, 25, 11, 16, 3, 17, 20]",9,0,[],3.415435124,9548,1894,1,0,9,1.6231058358944275
basic,23,4,0,1,1,20,"[0, 28, 14, 25, 11, 16, 3, 17, 20]",9,0,[],3.415435124,10417,869,1,0,9,1.6231058358944275
basic,24,27,0,0,0,0,[0],1,26,"[1, 3, 5, 6, 7, 8, 9, 10, 11, 12, 13, 14, 15, 16, 17, 18, 19, 21, 22, 23, 24, 25, 26, 27, 28, 29]",300,133,-1,13,578,11,0.0
basic,24,27,0,0,0,15,"[0, 15]",2,24,"[1, 3, 5, 6, 7, 8, 9, 10, 11, 12, 13, 14, 16, 17, 18, 19, 21, 22, 23, 24, 25, 26, 27, 29]",263.7508621,1374,1241,6,219,11,1.0
basic,24,27,0,0,0,24,"[0, 15, 24]",3,20,"[1, 5, 6, 7, 8, 9, 10, 12, 13, 14, 16, 17, 18, 19, 21, 23, 25, 26, 27, 29]",246.5462115,2226,852,6,130,11,1.130933077698322
basic,24,27,0,0,0,17,"[0, 15, 24, 17]",4,15,"[1, 6, 8, 10, 12, 13, 14, 16, 18, 19, 23, 25, 26, 27, 29]",229.9932662,2856,630,4,60,11,1.1285538435963374
basic,24,27,0,0,0,12,"[0, 15, 24, 17, 12]",5,14,"[1, 6, 8, 10, 13, 14, 16, 18, 19, 23, 25, 26, 27, 29]",218.8129263,3435,579,2,32,11,1.2561880288755216
basic,24,27,0,0,0,10,"[0, 15, 24, 17, 12, 10]",6,11,"[1, 8, 13, 14, 18, 19, 23, 25, 26, 27, 29]",207.7675653,4160,725,2,28,11,1.2228289337766665
basic,24,27,0,0,0,13,"[0, 15, 24, 17, 12, 10, 13]",7,9,"[1, 8, 14, 18, 19, 23, 26, 27, 29]",167.9178476,5692,1532,2,18,11,1.3421291994761178
basic,24,27,0,0,0,19,"[0, 15, 24, 17, 12, 10, 13, 19]",8,5,"[1, 8, 14, 23, 29]",131.6825057,6528,836,2,6,11,1.294749956153846
basic,24,27,0,0,0,8,"[0, 15, 24, 17, 12, 10, 13, 19, 8]",9,3,"[14, 23, 29]",116.816437,7202,674,2,1,11,1.3554286578836865
basic,24,27,0,0,0,29,"[0, 15, 24, 17, 12, 10, 13, 19, 8, 29]",10,1,[14],57.61339652,8284,1082,1,0,11,1.248354519573802
basic,24,27,0,0,1,14,"[0, 15, 24, 17, 12, 10, 13, 19, 8, 29, 14]",11,0,[],13.31892734,9225,941,1,0,11,1.562811097555156
basic,24,27,0,1,1,14,"[0, 15, 24, 17, 12, 10, 13, 19, 8, 29, 14]",11,0,[],13.31892734,10130,905,1,0,11,1.562811097555156
basic,25,17,0,0,0,0,[0],1,28,"[1, 2, 3, 4, 5, 6, 7, 8, 9, 10, 11, 12, 13, 14, 15, 16, 17, 18, 19, 20, 22, 23, 24, 25, 26, 27, 28, 29]",300,132,-1,2,73,8,0.0
basic,25,17,0,0,0,9,"[0, 9]",2,25,"[1, 2, 3, 5, 6, 7, 8, 10, 11, 12, 14, 15, 16, 17, 18, 19, 20, 22, 23, 24, 25, 26, 27, 28, 29]",210.5293344,1887,1755,1,34,8,1.0
basic,25,17,0,0,0,16,"[0, 9, 16]",3,21,"[1, 2, 3, 5, 7, 8, 10, 11, 12, 14, 17, 18, 19, 20, 22, 23, 25, 26, 27, 28, 29]",197.1876704,3124,1237,1,26,8,1.173103464220352
basic,25,17,0,0,0,2,"[0, 9, 16, 2]",4,18,"[1, 3, 5, 7, 8, 10, 11, 12, 14, 17, 18, 19, 23, 25, 26, 27, 28, 29]",181.0631549,3813,689,1,23,8,1.14825089247282
basic,25,17,0,0,0,17,"[0, 9, 16, 2, 17]",5,7,"[7, 8, 12, 14, 26, 27, 29]",142.7356191,4526,713,4,5,7,1.4896040699768547
basic,25,17,0,0,0,8,"[0, 9, 16, 2, 17, 8]",6,3,"[7, 12, 27]",104.5256727,5239,713,3,0,7,1.4604726966175894
basic,25,17,0,0,1,7,"[0, 9, 16, 2, 17, 8, 7]",7,0,[],33.81499459,6329,1090,1,0,7,1.4474701869793896
basic,25,17,0,1,1,7,"[0, 9, 16, 2, 17, 8, 7]",7,0,[],33.81499459,7265,936,1,0,7,1.4474701869793896
basic,26,7,0,0,0,0,[0],1,29,"[1, 2, 3, 4, 5, 6, 7, 8, 9, 10, 11, 12, 13, 14, 15, 16, 17, 18, 19, 20, 21, 22, 23, 24, 25, 26, 27, 28, 29]",300,128,-1,3,79,9,0.0
basic,26,7,0,0,0,25,"[0, 25]",2,20,"[2, 3, 4, 5, 6, 7, 10, 13, 14, 15, 16, 18, 19, 20, 21, 22, 23, 24, 27, 28]",181.5939191,2970,2842,5,33,8,1.0
basic,26,7,0,0,0,4,"[0, 25, 4]",3,11,"[2, 6, 7, 13, 15, 16, 18, 19, 20, 21, 23]",156.8552853,4051,1081,2,14,8,1.0193465608331511
basic,26,7,0,0,0,20,"[0, 25, 4, 20]",4,8,"[2, 6, 7, 13, 15, 16, 18, 19]",137.2084026,4751,700,1,9,8,1.085904909082323
basic,26,7,0,0,0,18,"[0, 25, 4, 20, 18]",5,7,"[2, 6, 7, 13, 15, 16, 19]",124.4021541,5505,754,1,5,8,1.2264883846453758
basic,26,7,0,0,0,7,"[0, 25, 4, 20, 18, 7]",6,2,"[2, 19]",83.17109789,6288,783,1,1,8,1.185264473968278
basic,26,7,0,0,0,19,"[0, 25, 4, 20, 18, 7, 19]",7,1,[2],53.76021555,7184,896,1,0,8,1.3016904288278204
basic,26,7,0,0,1,2,"[0, 25, 4, 20, 18, 7, 19, 2]",8,0,[],23.61058868,7911,727,1,0,8,1.3168868000947171
basic,26,7,0,1,1,2,"[0, 25, 4, 20, 18, 7, 19, 2]",8,0,[],23.61058868,8812,901,1,0,8,1.3168868000947171
basic,27,18,0,0,0,0,[0],1,28,"[1, 2, 3, 4, 5, 6, 7, 8, 9, 10, 11, 12, 13, 14, 16, 17, 18, 19, 20, 21, 22, 23, 24, 25, 26, 27, 28, 29]",300,148,-1,3,136,10,0.0
basic,27,18,0,0,0,28,"[0, 28]",2,16,"[1, 3, 5, 7, 8, 9, 12, 13, 14, 16, 20, 23, 24, 25, 26, 27]",236.4311397,1881,1733,2,19,10,1.0
basic,27,18,0,0,0,7,"[0, 28, 7]",3,15,"[1, 3, 5, 8, 9, 12, 13, 14, 16, 20, 23, 24, 25, 26, 27]",214.4084242,2633,752,2,17,10,1.4345180696367563
basic,27,18,0,0,0,25,"[0, 28, 7, 25]",4,13,"[1, 3, 5, 8, 9, 12, 13, 14, 16, 20, 23, 26, 27]",186.6055466,3509,876,2,15,10,1.8896451241781882
basic,27,18,0,0,0,8,"[0, 28, 7, 25, 8]",5,10,"[3, 5, 9, 12, 13, 14, 16, 23, 26, 27]",149.551532,4233,724,2,10,10,1.590467437592877
basic,27,18,0,0,0,13,"[0, 28, 7, 25, 8, 13]",6,9,"[3, 5, 9, 12, 14, 16, 23, 26, 27]",128.4565089,4804,571,2,5,10,1.8248274983549797
basic,27,18,0,0,0,14,"[0, 28, 7, 25, 8, 13, 14]",7,7,"[3, 5, 9, 12, 23, 26, 27]",109.4828429,5534,730,2,3,10,1.6993534956692746
basic,27,18,0,0,0,3,"[0, 28, 7, 25, 8, 13, 14, 3]",8,3,"[5, 12, 27]",79.39962499,6316,782,2,1,10,1.802637206541468
basic,27,18,0,0,0,5,"[0, 28, 7, 25, 8, 13, 14, 3, 5]",9,1,[12],21.21887216,7413,1097,1,0,10,1.559774889743805
basic,27,18,0,0,1,12,"[0, 28, 7, 25, 8, 13, 14, 3, 5, 12]",10,0,[],9.817117911,8451,1038,1,0,10,1.563993037384447
basic,27,18,0,1,1,12,"[0, 28, 7, 25, 8, 13, 14, 3, 5, 12]",10,0,[],9.817117911,9078,627,1,0,10,1.563993037384447
basic,28,23,0,0,0,0,[0],1,28,"[1, 2, 3, 4, 5, 6, 7, 8, 9, 10, 11, 12, 13, 14, 15, 16, 17, 18, 19, 20, 21, 22, 23, 25, 26, 27, 28, 29]",300,163,-1,76,2626,10,0.0
basic,28,23,0,0,0,27,"[0, 27]",2,11,"[2, 6, 7, 9, 10, 12, 13, 14, 18, 22, 29]",156.8217894,2453,2290,6,455,9,1.0
basic,28,23,0,0,0,6,"[0, 27, 6]",3,10,"[2, 7, 9, 10, 12, 13, 14, 18, 22, 29]",128.519846,3107,654,6,168,9,1.1413510010705277
basic,28,23,0,0,0,13,"[0, 27, 6, 13]",4,7,"[2, 9, 12, 14, 18, 22, 29]",88.15897383,5010,1903,25,7,8,1.9140004130415318
basic,28,23,0,0,0,12,"[0, 27, 6, 13, 12]",5,5,"[2, 9, 14, 22, 29]",76.07592786,5739,729,7,5,8,1.826628334641329
basic,28,23,0,0,0,2,"[0, 27, 6, 13, 12, 2]",6,4,"[9, 14, 22, 29]",62.18348387,6607,868,2,2,8,1.742771754515294
basic,28,23,0,0,0,9,"[0, 27, 6, 13, 12, 2, 9]",7,1,[14],49.14507906,7386,779,1,0,8,1.9200767360191275
basic,28,23,0,0,1,14,"[0, 27, 6, 13, 12, 2, 9, 14]",8,0,[],38.70477255,8036,650,1,0,8,1.8546041270084397
basic,28,23,0,1,1,14,"[0, 27, 6, 13, 12, 2, 9, 14]",8,0,[],38.70477255,8831,795,1,0,8,1.8546041270084397
basic,29,26,0,0,0,0,[0],1,29,"[1, 2, 3, 4, 5, 6, 7, 8, 9, 10, 11, 12, 13, 14, 15, 16, 17, 18, 19, 20, 21, 22, 23, 24, 25, 26, 27, 28, 29]",300,151,-1,9,226,9,0.0
basic,29,26,0,0,0,16,"[0, 16]",2,17,"[3, 4, 5, 6, 10, 11, 12, 13, 14, 17, 18, 19, 21, 22, 23, 26, 29]",188.0535842,4259,4108,34,176,8,1.0
basic,29,26,0,0,0,29,"[0, 16, 29]",3,12,"[4, 5, 6, 10, 12, 13, 14, 17, 19, 21, 23, 26]",163.8461474,4931,672,32,68,8,1.1142946124989752
basic,29,26,0,0,0,4,"[0, 16, 29, 4]",4,9,"[5, 6, 10, 12, 13, 14, 17, 21, 23]",139.8461474,5980,1049,17,7,8,1.3213762371676339
basic,29,26,0,0,0,10,"[0, 16, 29, 4, 10]",5,3,"[6, 14, 17]",89.63658653,7399,1419,4,2,8,1.3000016998380535
basic,29,26,0,0,0,6,"[0, 16, 29, 4, 10, 6]",6,2,"[14, 17]",60.36202419,8222,823,2,0,8,1.492036537346297
basic,29,26,0,0,0,17,"[0, 16, 29, 4, 10, 6, 17]",7,1,[14],40.2374124,9571,1349,1,0,8,1.8281810283280981
basic,29,26,0,0,1,14,"[0, 16, 29, 4, 10, 6, 17, 14]",8,0,[],17.76520734,10758,1187,1,0,8,1.7513565696213436
basic,29,26,0,1,1,14,"[0, 16, 29, 4, 10, 6, 17, 14]",8,0,[],17.76520734,11450,692,1,0,8,1.7513565696213436
basic,30,31,0,0,0,0,[0],1,27,"[1, 3, 4, 5, 6, 7, 8, 10, 11, 12, 13, 14, 15, 16, 17, 18, 19, 20, 21, 22, 23, 24, 25, 26, 27, 28, 29]",300,131,-1,2,87,10,0.0
basic,30,31,0,0,0,14,"[0, 14]",2,25,"[1, 3, 5, 6, 7, 8, 10, 11, 12, 13, 15, 16, 17, 18, 19, 20, 21, 22, 23, 24, 25, 26, 27, 28, 29]",263.861378,9541,9410,2,59,10,1.0
basic,30,31,0,0,0,27,"[0, 14, 27]",3,22,"[1, 3, 5, 6, 7, 8, 10, 11, 12, 13, 15, 16, 17, 18, 19, 20, 21, 22, 24, 25, 28, 29]",235.6833724,10393,852,1,39,10,1.5881859159302467
basic,30,31,0,0,0,8,"[0, 14, 27, 8]",4,20,"[1, 3, 5, 6, 7, 10, 11, 12, 13, 16, 17, 18, 19, 20, 21, 22, 24, 25, 28, 29]",224.6380114,10937,544,1,36,10,2.1665048452331277
basic,30,31,0,0,0,18,"[0, 14, 27, 8, 18]",5,15,"[1, 5, 6, 7, 11, 12, 13, 16, 17, 19, 20, 22, 25, 28, 29]",188.7911147,11854,917,1,26,10,1.7273375741920205
basic,30,31,0,0,0,17,"[0, 14, 27, 8, 18, 17]",6,13,"[1, 5, 6, 7, 11, 12, 13, 16, 19, 20, 22, 25, 28]",159.584951,12569,715,1,13,10,1.551192427769927
basic,30,31,0,0,0,11,"[0, 14, 27, 8, 18, 17, 11]",7,7,"[5, 12, 16, 19, 22, 25, 28]",118.4753414,13337,768,1,4,10,2.9650760544203494
basic,30,31,0,0,0,5,"[0, 14, 27, 8, 18, 17, 11, 5]",8,2,"[16, 28]",74.79468207,14172,835,1,1,10,2.56711965625205
basic,30,31,0,0,0,28,"[0, 14, 27, 8, 18, 17, 11, 5, 28]",9,1,[16],54.57093365,14942,770,1,0,10,2.2865510762058148
basic,30,31,0,0,1,16,"[0, 14, 27, 8, 18, 17, 11, 5, 28, 16]",10,0,[],20.95546102,15655,713,1,0,10,2.089356850786318
basic,30,31,0,1,1,16,"[0, 14, 27, 8, 18, 17, 11, 5, 28, 16]",10,0,[],20.95546102,16298,643,1,0,10,2.089356850786318
basic,31,10,0,0,0,0,[0],1,29,"[1, 2, 3, 4, 5, 6, 7, 8, 9, 10, 11, 12, 13, 14, 15, 16, 17, 18, 19, 20, 21, 22, 23, 24, 25, 26, 27, 28, 29]",300,131,-1,1,100,9,0.0
basic,31,10,0,0,0,13,"[0, 13]",2,25,"[1, 2, 3, 4, 6, 7, 8, 9, 10, 11, 12, 14, 17, 18, 19, 20, 21, 22, 23, 24, 25, 26, 27, 28, 29]",249.4628849,1904,1773,1,79,9,1.0
basic,31,10,0,0,0,11,"[0, 13, 11]",3,20,"[1, 2, 3, 6, 7, 8, 9, 10, 12, 14, 18, 19, 20, 21, 22, 24, 26, 27, 28, 29]",206.4512586,2603,699,1,54,9,1.0313137484914219
basic,31,10,0,0,0,19,"[0, 13, 11, 19]",4,11,"[2, 6, 8, 9, 10, 14, 18, 20, 24, 26, 27]",170.0919407,3544,941,1,22,9,1.0879446220132545
basic,31,10,0,0,0,2,"[0, 13, 11, 19, 2]",5,4,"[14, 20, 26, 27]",126.1829439,4485,941,1,4,9,1.06474052351343
basic,31,10,0,0,0,14,"[0, 13, 11, 19, 2, 14]",6,3,"[20, 26, 27]",114.0174188,5092,607,1,3,9,1.1628909195912238
basic,31,10,0,0,0,26,"[0, 13, 11, 19, 2, 14, 26]",7,2,"[20, 27]",79.34754716,5920,828,1,1,9,1.6660727647633602
basic,31,10,0,0,0,20,"[0, 13, 11, 19, 2, 14, 26, 20]",8,1,[27],47.56704999,6674,754,1,0,9,2.085581809637999
basic,31,10,0,0,1,27,"[0, 13, 11, 19, 2, 14, 26, 20, 27]",9,0,[],2.312215998,7854,1180,1,0,9,1.9116357409137932
basic,31,10,0,1,1,27,"[0, 13, 11, 19, 2, 14, 26, 20, 27]",9,0,[],2.312215998,8480,626,1,0,9,1.9116357409137932
basic,32,36,0,0,0,0,[0],1,24,"[2, 4, 5, 6, 7, 8, 9, 10, 12, 13, 14, 15, 16, 17, 18, 19, 20, 22, 23, 25, 26, 27, 28, 29]",300,144,-1,2,200,10,0.0
basic,32,36,0,0,0,13,"[0, 13]",2,19,"[2, 4, 7, 8, 9, 10, 12, 16, 17, 18, 19, 20, 22, 23, 25, 26, 27, 28, 29]",201.9184013,2237,2093,21,155,8,1.0
basic,32,36,0,0,0,25,"[0, 13, 25]",3,13,"[2, 4, 8, 9, 10, 12, 16, 17, 18, 19, 23, 27, 29]",181.327141,2983,746,18,66,8,1.0365331328777645
basic,32,36,0,0,0,2,"[0, 13, 25, 2]",4,12,"[4, 8, 9, 10, 12, 16, 17, 18, 19, 23, 27, 29]",156.327141,3762,779,17,20,8,1.272238559463773
basic,32,36,0,0,0,19,"[0, 13, 25, 2, 19]",5,6,"[9, 10, 12, 16, 17, 18]",119.2057186,4704,942,6,5,8,2.3456051864674707
basic,32,36,0,0,0,9,"[0, 13, 25, 2, 19, 9]",6,4,"[12, 16, 17, 18]",104.0729727,5368,664,2,2,8,2.836842075540071
basic,32,36,0,0,0,17,"[0, 13, 25, 2, 19, 9, 17]",7,1,[16],77.8241632,6052,684,1,0,8,2.35070514339729
basic,32,36,0,0,1,16,"[0, 13, 25, 2, 19, 9, 17, 16]",8,0,[],49.50455869,8237,2185,1,0,8,2.3468253891748456
basic,32,36,0,1,1,16,"[0, 13, 25, 2, 19, 9, 17, 16]",8,0,[],49.50455869,8912,675,1,0,8,2.3468253891748456
basic,33,8,0,0,0,0,[0],1,29,"[1, 2, 3, 4, 5, 6, 7, 8, 9, 10, 11, 12, 13, 14, 15, 16, 17, 18, 19, 20, 21, 22, 23, 24, 25, 26, 27, 28, 29]",300,130,-1,10,149,9,0.0
basic,33,8,0,0,0,5,"[0, 5]",2,28,"[1, 2, 3, 4, 6, 7, 8, 9, 10, 11, 12, 13, 14, 15, 16, 17, 18, 19, 20, 21, 22, 23, 24, 25, 26, 27, 28, 29]",254.5137383,1893,1763,10,100,9,1.0
basic,33,8,0,0,0,14,"[0, 5, 14]",3,20,"[1, 2, 3, 4, 6, 7, 11, 15, 16, 17, 18, 19, 20, 21, 22, 23, 24, 25, 28, 29]",214.5512559,2749,856,4,36,9,1.0001019035932595
basic,33,8,0,0,0,17,"[0, 5, 14, 17]",4,15,"[1, 4, 6, 7, 11, 15, 16, 18, 19, 20, 22, 23, 24, 25, 28]",177.5377449,3409,660,4,16,9,1.121197267659591
basic,33,8,0,0,0,11,"[0, 5, 14, 17, 11]",5,11,"[1, 4, 15, 16, 18, 19, 22, 23, 24, 25, 28]",152.3583883,5024,1615,4,8,9,1.1277254166016362
basic,33,8,0,0,0,24,"[0, 5, 14, 17, 11, 24]",6,3,"[15, 16, 28]",115.1428001,6018,994,2,2,9,1.1227411011978805
basic,33,8,0,0,0,15,"[0, 5, 14, 17, 11, 24, 15]",7,2,"[16, 28]",98.37974552,6704,686,2,0,9,1.1956385406066814
basic,33,8,0,0,0,16,"[0, 5, 14, 17, 11, 24, 15, 16]",8,1,[28],47.30137436,7651,947,1,0,9,1.36482239111247
basic,33,8,0,0,1,28,"[0, 5, 14, 17, 11, 24, 15, 16, 28]",9,0,[],24.94069458,9818,2167,1,0,9,1.632953105226947
basic,33,8,0,1,1,28,"[0, 5, 14, 17, 11, 24, 15, 16, 28]",9,0,[],24.94069458,10395,577,1,0,9,1.632953105226947
basic,34,13,0,0,0,0,[0],1,29,"[1, 2, 3, 4, 5, 6, 7, 8, 9, 10, 11, 12, 13, 14, 15, 16, 17, 18, 19, 20, 21, 22, 23, 24, 25, 26, 27, 28, 29]",300,173,-1,60,2676,11,0.0
basic,34,13,0,0,0,24,"[0, 24]",2,28,"[1, 2, 3, 4, 5, 6, 7, 8, 9, 10, 11, 12, 13, 14, 15, 16, 17, 18, 19, 20, 21, 22, 23, 25, 26, 27, 28, 29]",288.8196601,2250,2077,16,1444,11,1.0
basic,34,13,0,0,0,28,"[0, 24, 28]",3,23,"[1, 2, 3, 4, 6, 7, 8, 9, 10, 11, 12, 13, 15, 16, 17, 19, 20, 21, 22, 23, 26, 27, 29]",222.5324064,3173,923,8,243,11,1.0513810491680837
basic,34,13,0,0,0,2,"[0, 24, 28, 2]",4,19,"[1, 3, 4, 6, 7, 9, 11, 12, 13, 15, 16, 17, 19, 20, 21, 23, 26, 27, 29]",184.889346,3894,721,7,110,11,1.050374132001543
basic,34,13,0,0,0,29,"[0, 24, 28, 2, 29]",5,18,"[1, 3, 4, 6, 7, 9, 11, 12, 13, 15, 16, 17, 19, 20, 21, 23, 26, 27]",173.1846461,4460,566,7,85,11,1.1393409619120594
basic,34,13,0,0,0,7,"[0, 24, 28, 2, 29, 7]",6,17,"[1, 3, 4, 6, 9, 11, 12, 13, 15, 16, 17, 19, 20, 21, 23, 26, 27]",157.9203086,5353,893,5,45,11,1.349777315111579
basic,34,13,0,0,0,26,"[0, 24, 28, 2, 29, 7, 26]",7,16,"[1, 3, 4, 6, 9, 11, 12, 13, 15, 16, 17, 19, 20, 21, 23, 27]",147.480002,5910,557,5,25,11,1.5942082773824946
basic,34,13,0,0,0,6,"[0, 24, 28, 2, 29, 7, 26, 6]",8,12,"[1, 3, 4, 11, 13, 15, 16, 17, 19, 20, 23, 27]",127.3802508,6519,609,4,12,11,1.5898347940840756
basic,34,13,0,0,0,11,"[0, 24, 28, 2, 29, 7, 26, 6, 11]",9,6,"[1, 13, 15, 16, 17, 23]",108.2752776,7253,734,3,4,11,1.5029953945561012
basic,34,13,0,0,0,17,"[0, 24, 28, 2, 29, 7, 26, 6, 11, 17]",10,1,[13],36.68617231,8893,1640,1,0,11,1.324993060397683
basic,34,13,0,0,1,13,"[0, 24, 28, 2, 29, 7, 26, 6, 11, 17, 13]",11,0,[],3.309533775,10089,1196,1,0,11,1.6349870606446535
basic,34,13,0,1,1,13,"[0, 24, 28, 2, 29, 7, 26, 6, 11, 17, 13]",11,0,[],3.309533775,10964,875,1,0,11,1.6349870606446535
basic,35,6,0,0,0,0,[0],1,29,"[1, 2, 3, 4, 5, 6, 7, 8, 9, 10, 11, 12, 13, 14, 15, 16, 17, 18, 19, 20, 21, 22, 23, 24, 25, 26, 27, 28, 29]",300,145,-1,180,4304,10,0.0
basic,35,6,0,0,0,3,"[0, 3]",2,28,"[1, 2, 4, 5, 6, 7, 8, 9, 10, 11, 12, 13, 14, 15, 16, 17, 18, 19, 20, 21, 22, 23, 24, 25, 26, 27, 28, 29]",266.4738908,1951,1806,90,1607,10,1.0
basic,35,6,0,0,0,24,"[0, 3, 24]",3,24,"[1, 2, 4, 5, 6, 7, 8, 10, 11, 13, 14, 16, 17, 18, 19, 20, 21, 22, 23, 25, 26, 27, 28, 29]",202.520783,3891,1940,6,84,10,1.001910163116413
basic,35,6,0,0,0,10,"[0, 3, 24, 10]",4,20,"[1, 2, 4, 5, 6, 7, 8, 11, 13, 14, 16, 17, 18, 20, 21, 22, 23, 26, 27, 29]",189.1043751,4522,631,6,66,10,1.314793299348402
basic,35,6,0,0,0,17,"[0, 3, 24, 10, 17]",5,19,"[1, 2, 4, 5, 6, 7, 8, 11, 13, 14, 16, 18, 20, 21, 22, 23, 26, 27, 29]",169.3812922,5285,763,6,45,10,1.8507472474352449
basic,35,6,0,0,0,18,"[0, 3, 24, 10, 17, 18]",6,15,"[1, 2, 6, 7, 8, 13, 14, 16, 20, 21, 22, 23, 26, 27, 29]",155.4529039,7111,1826,5,31,10,2.373454740786756
basic,35,6,0,0,0,16,"[0, 3, 24, 10, 17, 18, 16]",7,13,"[1, 2, 6, 7, 13, 14, 20, 21, 22, 23, 26, 27, 29]",132.1076688,8111,1000,5,19,10,2.3260122505247613
basic,35,6,0,0,0,29,"[0, 3, 24, 10, 17, 18, 16, 29]",8,6,"[6, 14, 21, 22, 23, 27]",95.41979617,9021,910,5,4,10,1.920792706835084
basic,35,6,0,0,0,23,"[0, 3, 24, 10, 17, 18, 16, 29, 23]",9,2,"[6, 22]",47.90137869,10807,1786,2,0,10,1.8785104449401346
basic,35,6,0,0,1,6,"[0, 3, 24, 10, 17, 18, 16, 29, 23, 6]",10,0,[],12.54603963,11758,951,1,0,10,1.7847743285121995
basic,35,6,0,1,1,6,"[0, 3, 24, 10, 17, 18, 16, 29, 23, 6]",10,0,[],12.54603963,12413,655,1,0,10,1.7847743285121995
basic,36,34,0,0,0,0,[0],1,25,"[1, 3, 4, 5, 6, 7, 8, 9, 10, 11, 12, 13, 15, 18, 19, 20, 21, 22, 23, 24, 25, 26, 27, 28, 29]",300,129,-1,12,367,10,0.0
basic,36,34,0,0,0,13,"[0, 13]",2,24,"[1, 3, 4, 5, 6, 7, 8, 9, 10, 11, 12, 15, 18, 19, 20, 21, 22, 23, 24, 25, 26, 27, 28, 29]",279.9750156,1825,1696,12,331,10,1.0
basic,36,34,0,0,0,1,"[0, 13, 1]",3,16,"[3, 5, 7, 8, 9, 10, 11, 12, 19, 21, 22, 23, 24, 25, 27, 29]",211.8574701,2644,819,3,92,10,1.0010381285747127
basic,36,34,0,0,0,8,"[0, 13, 1, 8]",4,14,"[3, 5, 7, 9, 10, 11, 12, 19, 22, 23, 24, 25, 27, 29]",201.0871405,3209,565,2,54,10,1.1636807
basic,36,34,0,0,0,25,"[0, 13, 1, 8, 25]",5,12,"[3, 5, 7, 9, 10, 11, 12, 22, 23, 24, 27, 29]",183.999133,3837,628,2,28,10,1.1396208815936457
basic,36,34,0,0,0,24,"[0, 13, 1, 8, 25, 24]",6,11,"[3, 5, 7, 9, 10, 11, 12, 22, 23, 27, 29]",166.5062774,4455,618,2,23,10,1.374180768736554
basic,36,34,0,0,0,23,"[0, 13, 1, 8, 25, 24, 23]",7,6,"[5, 7, 11, 12, 27, 29]",99.97808784,5802,1347,4,3,9,2.1078306540088096
basic,36,34,0,0,0,7,"[0, 13, 1, 8, 25, 24, 23, 7]",8,2,"[11, 12]",71.81783216,6790,988,2,0,9,2.011215865419536
basic,36,34,0,0,1,12,"[0, 13, 1, 8, 25, 24, 23, 7, 12]",9,0,[],56.78453578,8786,1996,1,0,9,1.9762514824310813
basic,36,34,0,1,1,12,"[0, 13, 1, 8, 25, 24, 23, 7, 12]",9,0,[],56.78453578,9396,610,1,0,9,1.9762514824310813
basic,37,30,0,0,0,0,[0],1,19,"[3, 4, 5, 7, 9, 11, 16, 17, 18, 19, 20, 21, 22, 24, 25, 26, 27, 28, 29]",300,129,-1,5,41,8,0.0
basic,37,30,0,0,0,16,"[0, 16]",2,17,"[3, 5, 7, 9, 11, 17, 18, 19, 20, 21, 22, 24, 25, 26, 27, 28, 29]",219.3774225,7724,7595,5,34,8,1.0
basic,37,30,0,0,0,26,"[0, 16, 26]",3,8,"[9, 11, 17, 20, 22, 25, 27, 28]",176.927452,8494,770,7,3,5,1.3420329969668985
basic,37,30,0,0,0,17,"[0, 16, 26, 17]",4,1,[22],74.96177146,9428,934,1,0,5,1.193219858893313
basic,37,30,0,0,1,22,"[0, 16, 26, 17, 22]",5,0,[],55.7263874,10076,648,1,0,5,1.223925680162388
basic,37,30,0,1,1,22,"[0, 16, 26, 17, 22]",5,0,[],55.7263874,10914,838,1,0,5,1.223925680162388
basic,38,12,0,0,0,0,[0],1,29,"[1, 2, 3, 4, 5, 6, 7, 8, 9, 10, 11, 12, 13, 14, 15, 16, 17, 18, 19, 20, 21, 22, 23, 24, 25, 26, 27, 28, 29]",300,129,-1,2,32,9,0.0
basic,38,12,0,0,0,25,"[0, 25]",2,16,"[2, 4, 5, 6, 7, 9, 12, 14, 16, 18, 19, 22, 23, 24, 27, 28]",225.7975742,3168,3039,5,34,8,1.0
basic,38,12,0,0,0,16,"[0, 25, 16]",3,11,"[2, 4, 5, 6, 7, 12, 14, 19, 22, 24, 27]",169.0701557,4019,851,4,22,8,1.4434159828731936
basic,38,12,0,0,0,22,"[0, 25, 16, 22]",4,10,"[2, 4, 5, 6, 7, 12, 14, 19, 24, 27]",148.0701557,4788,769,2,13,8,1.726364042386772
basic,38,12,0,0,0,4,"[0, 25, 16, 22, 4]",5,5,"[12, 14, 19, 24, 27]",103.4719495,5551,763,2,5,8,1.5733828402319396
basic,38,12,0,0,0,12,"[0, 25, 16, 22, 4, 12]",6,2,"[14, 27]",61.28190329,6350,799,1,1,8,1.4448405722842959
basic,38,12,0,0,0,27,"[0, 25, 16, 22, 4, 12, 27]",7,1,[14],36.93031196,7207,857,1,0,8,1.537998507213724
basic,38,12,0,0,1,14,"[0, 25, 16, 22, 4, 12, 27, 14]",8,0,[],8.2772144,8140,933,1,0,8,1.5668177596106356
basic,38,12,0,1,1,14,"[0, 25, 16, 22, 4, 12, 27, 14]",8,0,[],8.2772144,8779,639,1,0,8,1.5668177596106356
basic,39,24,0,0,0,0,[0],1,29,"[1, 2, 3, 4, 5, 6, 7, 8, 9, 10, 11, 12, 13, 14, 15, 16, 17, 18, 19, 20, 21, 22, 23, 24, 25, 26, 27, 28, 29]",300,129,-1,4,76,10,0.0
basic,39,24,0,0,0,16,"[0, 16]",2,28,"[1, 2, 3, 4, 5, 6, 7, 8, 9, 10, 11, 12, 13, 14, 15, 17, 18, 19, 20, 21, 22, 23, 24, 25, 26, 27, 28, 29]",210.3562607,1419,1290,13,110,9,1.0
basic,39,24,0,0,0,8,"[0, 16, 8]",3,22,"[1, 2, 3, 4, 6, 9, 10, 11, 13, 14, 15, 17, 20, 21, 22, 23, 24, 25, 26, 27, 28, 29]",181.3562607,2503,1084,3,31,9,1.0774669368510212
basic,39,24,0,0,0,22,"[0, 16, 8, 22]",4,18,"[2, 3, 4, 6, 9, 10, 11, 13, 14, 15, 17, 23, 24, 25, 26, 27, 28, 29]",167.9398528,3256,753,3,23,9,1.2531772310046492
basic,39,24,0,0,0,15,"[0, 16, 8, 22, 15]",5,16,"[3, 4, 6, 9, 10, 11, 13, 14, 17, 23, 24, 25, 26, 27, 28, 29]",146.7266494,4044,788,3,16,9,1.2813329946092564
basic,39,24,0,0,0,28,"[0, 16, 8, 22, 15, 28]",6,8,"[3, 4, 9, 11, 13, 23, 26, 27]",101.4497237,4750,706,3,5,9,1.2060847818642253
basic,39,24,0,0,0,23,"[0, 16, 8, 22, 15, 28, 23]",7,3,"[9, 11, 27]",82.42342609,5400,650,3,1,9,1.2349355190066822
basic,39,24,0,0,0,11,"[0, 16, 8, 22, 15, 28, 23, 11]",8,2,"[9, 27]",55.49760206,6102,702,2,0,9,1.2172586817191506
basic,39,24,0,0,1,27,"[0, 16, 8, 22, 15, 28, 23, 11, 27]",9,0,[],27.69472451,6766,664,1,0,9,1.192247579330137
basic,39,24,0,1,1,27,"[0, 16, 8, 22, 15, 28, 23, 11, 27]",9,0,[],27.69472451,7763,997,1,0,9,1.192247579330137
basic,40,41,0,0,0,0,[0],1,29,"[1, 2, 3, 4, 5, 6, 7, 8, 9, 10, 11, 12, 13, 14, 15, 16, 17, 18, 19, 20, 21, 22, 23, 24, 25, 26, 27, 28, 29]",300,156,-1,1,143,10,0.0
basic,40,41,0,0,0,13,"[0, 13]",2,23,"[1, 2, 3, 5, 6, 7, 9, 10, 11, 12, 14, 15, 17, 18, 19, 20, 21, 22, 24, 25, 26, 27, 28]",258.2747079,2283,2127,1,55,10,1.0
basic,40,41,0,0,0,28,"[0, 13, 28]",3,22,"[1, 2, 3, 5, 6, 7, 9, 10, 11, 12, 14, 15, 17, 18, 19, 20, 21, 22, 24, 25, 26, 27]",223.7928286,3334,1051,1,39,10,1.895724242592676
basic,40,41,0,0,0,5,"[0, 13, 28, 5]",4,19,"[1, 2, 3, 6, 9, 10, 11, 12, 14, 15, 17, 18, 19, 20, 21, 22, 24, 25, 27]",210.1913581,4109,775,1,34,10,2.861541269398273
basic,40,41,0,0,0,21,"[0, 13, 28, 5, 21]",5,16,"[1, 2, 3, 6, 9, 10, 12, 14, 17, 18, 19, 20, 22, 24, 25, 27]",148.4175773,5317,1208,1,17,9,3.1012785054212952
basic,40,41,0,0,0,3,"[0, 13, 28, 5, 21, 3]",6,8,"[2, 9, 10, 12, 17, 18, 20, 22]",116.2772599,7002,1685,5,5,8,4.6367436705243765
basic,40,41,0,0,1,22,"[0, 13, 28, 5, 21, 3, 22]",7,0,[],86.31061177,7887,885,1,0,7,3.0985751440086227
basic,40,41,0,1,1,22,"[0, 13, 28, 5, 21, 3, 22]",7,0,[],86.31061177,8745,858,1,0,7,3.0985751440086227
basic,41,16,0,0,0,0,[0],1,29,"[1, 2, 3, 4, 5, 6, 7, 8, 9, 10, 11, 12, 13, 14, 15, 16, 17, 18, 19, 20, 21, 22, 23, 24, 25, 26, 27, 28, 29]",300,130,-1,13,161,9,0.0
basic,41,16,0,0,0,28,"[0, 28]",2,27,"[1, 2, 3, 4, 5, 7, 8, 9, 10, 11, 12, 13, 14, 15, 16, 17, 18, 19, 20, 21, 22, 23, 24, 25, 26, 27, 29]",284.3475242,1436,1306,11,92,9,1.0
basic,41,16,0,0,0,17,"[0, 28, 17]",3,26,"[1, 2, 3, 4, 5, 7, 8, 9, 10, 11, 12, 13, 14, 15, 16, 18, 19, 20, 21, 22, 23, 24, 25, 26, 27, 29]",219.1555001,2386,950,10,46,9,1.3773866384707543
basic,41,16,0,0,0,16,"[0, 28, 17, 16]",4,25,"[1, 2, 3, 4, 5, 7, 8, 9, 10, 11, 12, 13, 14, 15, 18, 19, 20, 21, 22, 23, 24, 25, 26, 27, 29]",190.8358956,3536,1150,10,34,9,1.3209953830681203
basic,41,16,0,0,0,21,"[0, 28, 17, 16, 21]",5,13,"[3, 5, 7, 8, 9, 10, 12, 15, 20, 22, 25, 26, 29]",146.1816685,4491,955,4,7,9,1.8136482702070456
basic,41,16,0,0,0,8,"[0, 28, 17, 16, 21, 8]",6,6,"[5, 9, 12, 15, 20, 25]",96.92722704,5163,672,4,2,9,1.637204572335983
basic,41,16,0,0,0,20,"[0, 28, 17, 16, 21, 8, 20]",7,2,"[9, 25]",39.15179974,6154,991,2,0,9,1.441590377328759
basic,41,16,0,0,0,25,"[0, 28, 17, 16, 21, 8, 20, 25]",8,1,[9],26.5026891,7051,897,1,0,9,1.484361110265371
basic,41,16,0,0,1,9,"[0, 28, 17, 16, 21, 8, 20, 25, 9]",9,0,[],13.69644062,7925,874,1,0,9,1.4530180692918209
basic,41,16,0,1,1,9,"[0, 28, 17, 16, 21, 8, 20, 25, 9]",9,0,[],13.69644062,8481,556,1,0,9,1.4530180692918209
basic,42,3,0,0,0,0,[0],1,29,"[1, 2, 3, 4, 5, 6, 7, 8, 9, 10, 11, 12, 13, 14, 15, 16, 17, 18, 19, 20, 21, 22, 23, 24, 25, 26, 27, 28, 29]",300,128,-1,34,427,10,0.0
basic,42,3,0,0,0,17,"[0, 17]",2,16,"[3, 4, 7, 8, 10, 12, 14, 15, 16, 19, 20, 21, 22, 24, 26, 27]",197.6965299,3950,3822,2,27,9,1.0
basic,42,3,0,0,0,20,"[0, 17, 20]",3,13,"[3, 4, 7, 8, 10, 14, 15, 16, 19, 21, 22, 24, 27]",185.0474192,4578,628,2,24,9,1.0153332121237257
basic,42,3,0,0,0,3,"[0, 17, 20, 3]",4,10,"[4, 7, 8, 10, 14, 15, 16, 19, 21, 24]",164.6513412,5356,778,2,22,9,1.0819240770773468
basic,42,3,0,0,0,19,"[0, 17, 20, 3, 19]",5,6,"[4, 8, 10, 14, 21, 24]",127.3150318,6234,878,2,11,9,1.1701070532957258
basic,42,3,0,0,0,21,"[0, 17, 20, 3, 19, 21]",6,5,"[4, 8, 10, 14, 24]",115.1084762,6899,665,2,6,9,1.202395500952127
basic,42,3,0,0,0,14,"[0, 17, 20, 3, 19, 21, 14]",7,4,"[4, 8, 10, 24]",88.20122806,7602,703,2,2,9,1.6456130302761207
basic,42,3,0,0,1,10,"[0, 17, 20, 3, 19, 21, 14, 10]",8,0,[],42.74795535,9143,1541,1,0,8,1.6337827075255185
basic,42,3,0,1,1,10,"[0, 17, 20, 3, 19, 21, 14, 10]",8,0,[],42.74795535,10478,1335,1,0,8,1.6337827075255185
basic,43,28,0,0,0,0,[0],1,27,"[1, 2, 3, 4, 5, 6, 7, 8, 9, 10, 11, 12, 13, 14, 15, 16, 17, 18, 19, 20, 22, 23, 25, 26, 27, 28, 29]",300,133,-1,2,96,9,0.0
basic,43,28,0,0,0,14,"[0, 14]",2,14,"[1, 2, 3, 5, 7, 10, 11, 12, 13, 17, 18, 19, 20, 26]",147.8914861,1807,1674,1,26,8,1.0
basic,43,28,0,0,0,18,"[0, 14, 18]",3,11,"[1, 2, 3, 5, 7, 11, 12, 13, 17, 19, 26]",122.3963885,2676,869,1,23,8,1.0675599824559303
basic,43,28,0,0,0,13,"[0, 14, 18, 13]",4,7,"[2, 7, 11, 12, 17, 19, 26]",97.9832773,3479,803,1,9,8,1.0602397944415018
basic,43,28,0,0,0,12,"[0, 14, 18, 13, 12]",5,4,"[2, 7, 17, 19]",80.77862677,4241,762,1,3,8,1.0640685934245377
basic,43,28,0,0,0,7,"[0, 14, 18, 13, 12, 7]",6,2,"[2, 19]",67.62568033,5917,1676,1,1,8,1.186262804928269
basic,43,28,0,0,0,19,"[0, 14, 18, 13, 12, 7, 19]",7,1,[2],39.89483108,6773,856,1,0,8,1.424576333867947
basic,43,28,0,0,1,2,"[0, 14, 18, 13, 12, 7, 19, 2]",8,0,[],2.531747699,7667,894,1,0,8,1.4824387893309579
basic,43,28,0,1,1,2,"[0, 14, 18, 13, 12, 7, 19, 2]",8,0,[],2.531747699,8113,446,1,0,8,1.4824387893309579
basic,44,14,0,0,0,0,[0],1,29,"[1, 2, 3, 4, 5, 6, 7, 8, 9, 10, 11, 12, 13, 14, 15, 16, 17, 18, 19, 20, 21, 22, 23, 24, 25, 26, 27, 28, 29]",300,130,-1,8,157,10,0.0
basic,44,14,0,0,0,18,"[0, 18]",2,17,"[1, 2, 3, 4, 7, 8, 9, 13, 15, 17, 19, 20, 22, 23, 25, 26, 28]",179.8958785,3623,3493,18,136,9,1.0
basic,44,14,0,0,0,8,"[0, 18, 8]",3,13,"[1, 2, 4, 7, 13, 15, 17, 19, 20, 23, 25, 26, 28]",166.294408,4918,1295,18,99,9,1.0203858410107731
basic,44,14,0,0,0,1,"[0, 18, 8, 1]",4,10,"[2, 4, 7, 15, 17, 19, 23, 25, 26, 28]",142.6935606,6237,1319,11,42,9,1.0173392374431458
basic,44,14,0,0,0,19,"[0, 18, 8, 1, 19]",5,9,"[2, 4, 7, 15, 17, 23, 25, 26, 28]",127.4620143,7402,1165,11,22,9,1.1668364376922102
basic,44,14,0,0,0,26,"[0, 18, 8, 1, 19, 26]",6,4,"[4, 7, 23, 25]",74.23608081,8368,966,2,4,9,1.1379310743287543
basic,44,14,0,0,0,23,"[0, 18, 8, 1, 19, 26, 23]",7,3,"[4, 7, 25]",63.41942699,9072,704,2,1,9,1.25860317400474
basic,44,14,0,0,0,25,"[0, 18, 8, 1, 19, 26, 23, 25]",8,1,[7],34.00854465,9918,846,1,0,9,1.6250439771619034
basic,44,14,0,0,1,7,"[0, 18, 8, 1, 19, 26, 23, 25, 7]",9,0,[],14.31082904,10842,924,1,0,9,1.6358514342320594
basic,44,14,0,1,1,7,"[0, 18, 8, 1, 19, 26, 23, 25, 7]",9,0,[],14.31082904,11731,889,1,0,9,1.6358514342320594
basic,45,1,0,0,0,0,[0],1,26,"[1, 2, 4, 5, 7, 8, 9, 10, 11, 12, 13, 14, 15, 16, 17, 18, 19, 20, 21, 22, 23, 24, 25, 26, 28, 29]",300,129,-1,6,74,7,0.0
basic,45,1,0,0,0,14,"[0, 14]",2,19,"[1, 4, 5, 8, 9, 13, 15, 17, 18, 19, 20, 21, 22, 23, 24, 25, 26, 28, 29]",200.1901808,2837,2708,5,42,7,1.0
basic,45,1,0,0,0,17,"[0, 14, 17]",3,15,"[1, 4, 5, 8, 9, 13, 15, 18, 19, 20, 22, 23, 25, 28, 29]",147.8356204,3754,917,5,27,7,1.0028844724416826
basic,45,1,0,0,0,1,"[0, 14, 17, 1]",4,12,"[4, 5, 8, 9, 15, 18, 20, 22, 23, 25, 28, 29]",123.4840291,4672,918,5,15,7,1.0264985578353567
basic,45,1,0,0,0,28,"[0, 14, 17, 1, 28]",5,5,"[9, 15, 22, 23, 29]",88.59850198,5525,853,5,3,7,1.0339861575999345
basic,45,1,0,0,0,23,"[0, 14, 17, 1, 28, 23]",6,2,"[15, 22]",51.70676849,6811,1286,2,0,7,1.0327458250705703
basic,45,1,0,0,1,15,"[0, 14, 17, 1, 28, 23, 15]",7,0,[],20.81987807,8041,1230,1,0,7,1.1948681641401226
basic,45,1,0,1,1,15,"[0, 14, 17, 1, 28, 23, 15]",7,0,[],20.81987807,8629,588,1,0,7,1.1948681641401226
basic,46,37,0,0,0,0,[0],1,29,"[1, 2, 3, 4, 5, 6, 7, 8, 9, 10, 11, 12, 13, 14, 15, 16, 17, 18, 19, 20, 21, 22, 23, 24, 25, 26, 27, 28, 29]",300,160,-1,6,168,10,0.0
basic,46,37,0,0,0,18,"[0, 18]",2,19,"[1, 2, 4, 6, 7, 9, 10, 12, 14, 15, 17, 19, 20, 21, 22, 23, 26, 28, 29]",202.4090168,2403,2243,6,89,10,1.0
basic,46,37,0,0,0,7,"[0, 18, 7]",3,12,"[1, 2, 4, 9, 15, 17, 19, 20, 21, 22, 26, 29]",175.2428614,3333,930,6,53,10,1.0413073512834488
basic,46,37,0,0,0,22,"[0, 18, 7, 22]",4,8,"[1, 2, 4, 15, 19, 20, 21, 26]",125.2428614,4235,902,6,29,10,1.0730792320325544
basic,46,37,0,0,0,4,"[0, 18, 7, 22, 4]",5,7,"[1, 2, 15, 19, 20, 21, 26]",100.2428614,4936,701,4,16,10,1.2290245562206235
basic,46,37,0,0,0,2,"[0, 18, 7, 22, 4, 2]",6,5,"[1, 15, 19, 20, 21]",88.84110714,5551,615,4,7,10,1.3968113858365216
basic,46,37,0,0,0,1,"[0, 18, 7, 22, 4, 2, 1]",7,4,"[15, 19, 20, 21]",71.63645661,6107,556,4,3,10,1.4424239294761476
basic,46,37,0,0,0,20,"[0, 18, 7, 22, 4, 2, 1, 20]",8,3,"[15, 19, 21]",37.40197107,6886,779,2,1,10,1.7518607796010042
basic,46,37,0,0,0,21,"[0, 18, 7, 22, 4, 2, 1, 20, 21]",9,1,[15],22.97976597,7669,783,1,0,10,1.7849997782949483
basic,46,37,0,0,1,15,"[0, 18, 7, 22, 4, 2, 1, 20, 21, 15]",10,0,[],7.979765971,8419,750,1,0,10,1.7549597142828803
basic,46,37,0,1,1,15,"[0, 18, 7, 22, 4, 2, 1, 20, 21, 15]",10,0,[],7.979765971,9078,659,1,0,10,1.7549597142828803
basic,47,25,0,0,0,0,[0],1,28,"[1, 2, 3, 4, 5, 7, 8, 9, 10, 11, 12, 13, 14, 15, 16, 17, 18, 19, 20, 21, 22, 23, 24, 25, 26, 27, 28, 29]",300,135,-1,5,94,10,0.0
basic,47,25,0,0,0,23,"[0, 23]",2,23,"[1, 2, 3, 5, 7, 8, 9, 11, 12, 13, 14, 16, 17, 19, 20, 21, 22, 24, 25, 26, 27, 28, 29]",259.7756293,2019,1884,3,33,10,1.0
basic,47,25,0,0,0,19,"[0, 23, 19]",3,21,"[1, 2, 3, 5, 7, 8, 9, 11, 12, 13, 14, 16, 17, 20, 21, 22, 24, 25, 27, 28, 29]",223.9287326,2925,906,3,24,10,1.583101227007039
basic,47,25,0,0,0,29,"[0, 23, 19, 29]",4,19,"[1, 2, 3, 5, 7, 8, 9, 11, 12, 13, 14, 16, 17, 20, 21, 22, 24, 25, 28]",207.649912,3539,614,3,17,10,1.474631541426484
basic,47,25,0,0,0,22,"[0, 23, 19, 29, 22]",5,18,"[1, 2, 3, 5, 7, 8, 9, 11, 12, 13, 14, 16, 17, 20, 21, 24, 25, 28]",191.5253965,4220,681,3,14,10,1.4020377754906637
basic,47,25,0,0,0,7,"[0, 23, 19, 29, 22, 7]",6,7,"[3, 8, 9, 11, 13, 24, 28]",115.8814939,5952,1732,3,11,10,1.5709678649326715
basic,47,25,0,0,0,24,"[0, 23, 19, 29, 22, 7, 24]",7,5,"[3, 8, 9, 13, 28]",91.12265712,6819,867,3,7,10,1.486191600033379
basic,47,25,0,0,0,9,"[0, 23, 19, 29, 22, 7, 24, 9]",8,4,"[3, 8, 13, 28]",73.09490075,7468,649,3,3,10,1.453504870342882
basic,47,25,0,0,0,3,"[0, 23, 19, 29, 22, 7, 24, 9, 3]",9,3,"[8, 13, 28]",42.82940885,9128,1660,3,0,10,1.388955167525479
basic,47,25,0,0,1,28,"[0, 23, 19, 29, 22, 7, 24, 9, 3, 28]",10,0,[],11.52445716,9851,723,1,0,10,1.3331084120212044
basic,47,25,0,1,1,28,"[0, 23, 19, 29, 22, 7, 24, 9, 3, 28]",10,0,[],11.52445716,10531,680,1,0,10,1.3331084120212044
basic,48,40,0,0,0,0,[0],1,29,"[1, 2, 3, 4, 5, 6, 7, 8, 9, 10, 11, 12, 13, 14, 15, 16, 17, 18, 19, 20, 21, 22, 23, 24, 25, 26, 27, 28, 29]",300,145,-1,8,191,9,0.0
basic,48,40,0,0,0,1,"[0, 1]",2,18,"[2, 5, 6, 7, 8, 9, 10, 11, 13, 15, 17, 18, 19, 21, 22, 23, 27, 29]",247.8463808,1755,1610,4,80,9,1.0
basic,48,40,0,0,0,6,"[0, 1, 6]",3,17,"[2, 5, 7, 8, 9, 10, 11, 13, 15, 17, 18, 19, 21, 22, 23, 27, 29]",227.7466295,2403,648,4,74,9,1.0459427008232034
basic,48,40,0,0,0,21,"[0, 1, 6, 21]",4,8,"[2, 5, 9, 17, 18, 19, 22, 23]",175.7754837,3266,863,4,25,9,1.0308822257404064
basic,48,40,0,0,0,9,"[0, 1, 6, 21, 9]",5,6,"[2, 5, 18, 19, 22, 23]",130.0699041,4167,901,4,12,9,1.377861912961129
basic,48,40,0,0,0,18,"[0, 1, 6, 21, 9, 18]",6,5,"[2, 5, 19, 22, 23]",113.5169588,4782,615,4,4,9,1.5742712168661408
basic,48,40,0,0,0,5,"[0, 1, 6, 21, 9, 18, 5]",7,3,"[19, 22, 23]",81.94165198,5992,1210,2,1,9,1.7730665063055515
basic,48,40,0,0,0,23,"[0, 1, 6, 21, 9, 18, 5, 23]",8,1,[19],53.63970859,6684,692,1,0,9,2.597442759912231
basic,48,40,0,0,1,19,"[0, 1, 6, 21, 9, 18, 5, 23, 19]",9,0,[],21.68661797,7517,833,1,0,9,2.7128328554069565
basic,48,40,0,1,1,19,"[0, 1, 6, 21, 9, 18, 5, 23, 19]",9,0,[],21.68661797,8079,562,1,0,9,2.7128328554069565
basic,49,2,0,0,0,0,[0],1,23,"[1, 2, 4, 5, 6, 7, 8, 9, 12, 13, 15, 16, 17, 18, 19, 20, 22, 23, 25, 26, 27, 28, 29]",300,130,-1,70,620,10,0.0
basic,49,2,0,0,0,19,"[0, 19]",2,22,"[1, 2, 4, 5, 6, 7, 8, 9, 12, 13, 15, 16, 17, 18, 20, 22, 23, 25, 26, 27, 28, 29]",210.306076,2172,2042,67,431,10,1.0
basic,49,2,0,0,0,12,"[0, 19, 12]",3,17,"[1, 4, 5, 6, 7, 13, 15, 16, 17, 18, 20, 22, 25, 26, 27, 28, 29]",174.2921898,3085,913,66,298,10,1.1107635036313153
basic,49,2,0,0,0,5,"[0, 19, 12, 5]",4,11,"[1, 6, 7, 13, 15, 16, 18, 22, 25, 26, 29]",144.7625437,3860,775,38,136,10,1.0968174771581647
basic,49,2,0,0,0,22,"[0, 19, 12, 5, 22]",5,8,"[1, 6, 7, 13, 15, 18, 26, 29]",131.9562952,4634,774,20,63,10,1.0889910507461968
basic,49,2,0,0,0,13,"[0, 19, 12, 5, 22, 13]",6,7,"[1, 6, 7, 15, 18, 26, 29]",117.0902265,5386,752,19,20,10,1.236526217328057
basic,49,2,0,0,0,18,"[0, 19, 12, 5, 22, 13, 18]",7,4,"[7, 15, 26, 29]",81.91921567,6101,715,10,3,10,1.2128708213409936
basic,49,2,0,0,0,7,"[0, 19, 12, 5, 22, 13, 18, 7]",8,3,"[15, 26, 29]",71.62358553,6590,489,5,0,10,1.2019811287894737
basic,49,2,0,0,0,26,"[0, 19, 12, 5, 22, 13, 18, 7, 26]",9,2,"[15, 29]",48.82007703,7359,769,2,0,10,1.1883593342191134
basic,49,2,0,0,1,15,"[0, 19, 12, 5, 22, 13, 18, 7, 26, 15]",10,0,[],24.61264015,8252,893,1,0,10,1.4619750353663825
basic,49,2,0,1,1,15,"[0, 19, 12, 5, 22, 13, 18, 7, 26, 15]",10,0,[],24.61264015,9530,1278,1,0,10,1.4619750353663825
basic,50,19,0,0,0,0,[0],1,29,"[1, 2, 3, 4, 5, 6, 7, 8, 9, 10, 11, 12, 13, 14, 15, 16, 17, 18, 19, 20, 21, 22, 23, 24, 25, 26, 27, 28, 29]",300,130,-1,12,149,8,0.0
basic,50,19,0,0,0,29,"[0, 29]",2,28,"[1, 2, 3, 4, 5, 6, 7, 8, 9, 10, 11, 12, 13, 14, 15, 16, 17, 18, 19, 20, 21, 22, 23, 24, 25, 26, 27, 28]",265.0715016,4109,3979,12,120,8,1.0
basic,50,19,0,0,0,9,"[0, 29, 9]",3,17,"[1, 4, 5, 6, 7, 10, 11, 12, 13, 14, 19, 20, 21, 22, 24, 27, 28]",181.7108394,4905,796,11,65,8,1.0375842971861238
basic,50,19,0,0,0,6,"[0, 29, 9, 6]",4,12,"[4, 7, 10, 11, 13, 14, 20, 21, 22, 24, 27, 28]",140.2741407,5658,753,11,34,8,1.0389786364356892
basic,50,19,0,0,0,4,"[0, 29, 9, 6, 4]",5,7,"[10, 11, 14, 20, 22, 27, 28]",99.22538921,6609,951,2,6,8,1.2182485830176533
basic,50,19,0,0,0,28,"[0, 29, 9, 6, 4, 28]",6,3,"[11, 14, 27]",88.04504932,7351,742,2,1,8,1.2933703503588658
basic,50,19,0,0,0,14,"[0, 29, 9, 6, 4, 28, 14]",7,1,[11],30.46032912,8268,917,1,0,8,1.2889112786863766
basic,50,19,0,0,1,11,"[0, 29, 9, 6, 4, 28, 14, 11]",8,0,[],19.6436753,9101,833,1,0,8,1.2786737377290265
basic,50,19,0,1,1,11,"[0, 29, 9, 6, 4, 28, 14, 11]",8,0,[],19.6436753,10980,1879,1,0,8,1.2786737377290265
basic,51,44,0,0,0,0,[0],1,29,"[1, 2, 3, 4, 5, 6, 7, 8, 9, 10, 11, 12, 13, 14, 15, 16, 17, 18, 19, 20, 21, 22, 23, 24, 25, 26, 27, 28, 29]",300,172,-1,13,126,7,0.0
basic,51,44,0,0,0,11,"[0, 11]",2,18,"[4, 5, 6, 7, 8, 9, 12, 14, 16, 17, 19, 20, 22, 23, 24, 25, 26, 28]",152.7790776,1346,1174,5,34,7,1.0
basic,51,44,0,0,0,24,"[0, 11, 24]",3,13,"[4, 5, 7, 8, 9, 12, 14, 17, 20, 22, 23, 25, 28]",125.8532535,2722,1376,5,23,7,1.1588941745226709
basic,51,44,0,0,0,9,"[0, 11, 24, 9]",4,7,"[4, 7, 8, 12, 14, 20, 23]",93.09657483,3502,780,2,8,7,1.3039383713641313
basic,51,44,0,0,0,4,"[0, 11, 24, 9, 4]",5,5,"[7, 12, 14, 20, 23]",73.39885923,4156,654,2,3,7,1.2901330701441578
basic,51,44,0,0,0,7,"[0, 11, 24, 9, 4, 7]",6,1,[23],42.38273439,4984,828,1,0,7,1.2468141312360979
basic,51,44,0,0,1,23,"[0, 11, 24, 9, 4, 7, 23]",7,0,[],23.27776121,5828,844,1,0,7,1.2635191782769477
basic,51,44,0,1,1,23,"[0, 11, 24, 9, 4, 7, 23]",7,0,[],23.27776121,6497,669,1,0,7,1.2635191782769477
basic,52,45,0,0,0,0,[0],1,24,"[1, 2, 3, 4, 5, 6, 7, 9, 10, 11, 12, 14, 15, 16, 17, 19, 20, 21, 22, 23, 24, 25, 27, 29]",300,138,-1,6,248,10,0.0
basic,52,45,0,0,0,15,"[0, 15]",2,23,"[1, 2, 3, 4, 5, 6, 7, 9, 10, 11, 12, 14, 16, 17, 19, 20, 21, 22, 23, 24, 25, 27, 29]",253.9022777,1887,1749,5,207,10,1.0
basic,52,45,0,0,0,23,"[0, 15, 23]",3,22,"[1, 2, 3, 4, 5, 6, 7, 9, 10, 11, 12, 14, 16, 17, 19, 20, 21, 22, 24, 25, 27, 29]",230.3014303,2639,752,5,163,10,1.0006068457769497
basic,52,45,0,0,0,20,"[0, 15, 23, 20]",4,19,"[1, 2, 3, 5, 6, 7, 9, 10, 11, 12, 14, 16, 17, 19, 21, 22, 24, 25, 29]",188.8647316,4002,1363,5,137,10,1.2062119754673604
basic,52,45,0,0,0,24,"[0, 15, 23, 20, 24]",5,14,"[1, 2, 3, 5, 6, 7, 9, 10, 12, 17, 19, 21, 22, 29]",145.0355176,4860,858,1,23,10,1.5044386356496664
basic,52,45,0,0,0,7,"[0, 15, 23, 20, 24, 7]",6,9,"[2, 3, 6, 10, 12, 17, 19, 22, 29]",110.6262165,5737,877,1,22,10,1.4273775035809357
basic,52,45,0,0,0,2,"[0, 15, 23, 20, 24, 7, 2]",7,6,"[3, 6, 10, 12, 22, 29]",72.61306087,6638,901,1,7,10,1.3566457419165387
basic,52,45,0,0,0,3,"[0, 15, 23, 20, 24, 7, 2, 3]",8,4,"[6, 10, 22, 29]",47.29508307,7336,698,1,3,10,1.4087069987569252
basic,52,45,0,0,0,29,"[0, 15, 23, 20, 24, 7, 2, 3, 29]",9,1,[10],27.29508307,8007,671,1,0,10,1.6931989191216303
basic,52,45,0,0,1,10,"[0, 15, 23, 20, 24, 7, 2, 3, 29, 10]",10,0,[],5.754423843,8826,819,1,0,10,1.9996819797033594
basic,52,45,0,1,1,10,"[0, 15, 23, 20, 24, 7, 2, 3, 29, 10]",10,0,[],5.754423843,9680,854,1,0,10,1.9996819797033594
basic,53,5,0,0,0,0,[0],1,29,"[1, 2, 3, 4, 5, 6, 7, 8, 9, 10, 11, 12, 13, 14, 15, 16, 17, 18, 19, 20, 21, 22, 23, 24, 25, 26, 27, 28, 29]",300,145,-1,5,139,9,0.0
basic,53,5,0,0,0,12,"[0, 12]",2,22,"[2, 4, 5, 6, 8, 9, 10, 13, 14, 15, 16, 17, 18, 19, 21, 22, 23, 24, 25, 26, 27, 28]",228.3062067,2493,2348,1,27,9,1.0
basic,53,5,0,0,0,25,"[0, 12, 25]",3,21,"[2, 4, 5, 6, 8, 9, 10, 13, 14, 15, 16, 17, 18, 19, 21, 22, 23, 24, 26, 27, 28]",200.5213187,3255,762,1,20,9,1.584023303445617
basic,53,5,0,0,0,23,"[0, 12, 25, 23]",4,19,"[2, 4, 5, 6, 8, 9, 10, 13, 14, 15, 16, 17, 18, 19, 21, 22, 24, 26, 27]",182.0822298,4189,934,1,14,9,2.3508446989254357
basic,53,5,0,0,0,24,"[0, 12, 25, 23, 24]",5,15,"[2, 4, 5, 6, 8, 9, 13, 14, 15, 17, 18, 19, 22, 26, 27]",158.995437,4986,797,1,12,9,1.9469752046288753
basic,53,5,0,0,0,17,"[0, 12, 25, 23, 24, 17]",6,7,"[4, 5, 6, 8, 15, 18, 19]",124.0097257,5828,842,1,8,9,1.6482276497563642
basic,53,5,0,0,0,5,"[0, 12, 25, 23, 24, 17, 5]",7,4,"[4, 6, 15, 18]",80.96323916,6770,942,1,3,9,1.4654649104389412
basic,53,5,0,0,1,15,"[0, 12, 25, 23, 24, 17, 5, 15]",8,0,[],40.93824697,7519,749,1,0,8,1.4660376450939663
