condition,trial_id,map_id,undoIndicator,submit,checkEnd,currentChoice,chosen_all,n_city_all,n_within_reach,cities_reach,currentBudget,time_all,rt_all,n_opt_paths_all,n_subopt_paths_all,mas_all,tortuosity_all
basic,0,34,0,0,0,0,[0],1,25,"[1, 3, 4, 5, 6, 7, 8, 9, 10, 11, 12, 13, 15, 18, 19, 20, 21, 22, 23, 24, 25, 26, 27, 28, 29]",300,174,-1,12,367,10,0.0
basic,0,34,0,0,0,13,"[0, 13]",2,24,"[1, 3, 4, 5, 6, 7, 8, 9, 10, 11, 12, 15, 18, 19, 20, 21, 22, 23, 24, 25, 26, 27, 28, 29]",279.9750156,3550,3376,12,331,10,1.0
basic,0,34,0,0,0,1,"[0, 13, 1]",3,16,"[3, 5, 7, 8, 9, 10, 11, 12, 19, 21, 22, 23, 24, 25, 27, 29]",211.8574701,4912,1362,3,92,10,1.0010381285747127
basic,0,34,0,0,0,8,"[0, 13, 1, 8]",4,14,"[3, 5, 7, 9, 10, 11, 12, 19, 22, 23, 24, 25, 27, 29]",201.0871405,5833,921,2,54,10,1.1636807
basic,0,34,0,0,0,25,"[0, 13, 1, 8, 25]",5,12,"[3, 5, 7, 9, 10, 11, 12, 22, 23, 24, 27, 29]",183.999133,6747,914,2,28,10,1.1396208815936457
basic,0,34,0,0,0,24,"[0, 13, 1, 8, 25, 24]",6,11,"[3, 5, 7, 9, 10, 11, 12, 22, 23, 27, 29]",166.5062774,7669,922,2,23,10,1.374180768736554
basic,0,34,0,0,0,12,"[0, 13, 1, 8, 25, 24, 12]",7,7,"[7, 9, 10, 11, 22, 23, 27]",115.4670767,9332,1663,1,8,10,1.4994254760835948
basic,0,34,0,0,0,7,"[0, 13, 1, 8, 25, 24, 12, 7]",8,5,"[9, 11, 22, 23, 27]",100.4337804,10076,744,1,4,10,1.758992610425009
basic,0,34,0,0,0,23,"[0, 13, 1, 8, 25, 24, 12, 7, 23]",9,1,[27],72.27352467,11014,938,1,0,10,2.399781305190153
basic,0,34,0,0,1,27,"[0, 13, 1, 8, 25, 24, 12, 7, 23, 27]",10,0,[],18.60789321,12650,1636,1,0,10,4.766619878750327
basic,0,34,0,1,1,27,"[0, 13, 1, 8, 25, 24, 12, 7, 23, 27]",10,0,[],18.60789321,14439,1789,1,0,10,4.766619878750327
basic,1,37,0,0,0,0,[0],1,29,"[1, 2, 3, 4, 5, 6, 7, 8, 9, 10, 11, 12, 13, 14, 15, 16, 17, 18, 19, 20, 21, 22, 23, 24, 25, 26, 27, 28, 29]",300,165,-1,6,168,10,0.0
basic,1,37,0,0,0,18,"[0, 18]",2,19,"[1, 2, 4, 6, 7, 9, 10, 12, 14, 15, 17, 19, 20, 21, 22, 23, 26, 28, 29]",202.4090168,4651,4486,6,89,10,1.0
basic,1,37,0,0,0,7,"[0, 18, 7]",3,12,"[1, 2, 4, 9, 15, 17, 19, 20, 21, 22, 26, 29]",175.2428614,5626,975,6,53,10,1.0413073512834488
basic,1,37,0,0,0,22,"[0, 18, 7, 22]",4,8,"[1, 2, 4, 15, 19, 20, 21, 26]",125.2428614,6471,845,6,29,10,1.0730792320325544
basic,1,37,0,0,0,2,"[0, 18, 7, 22, 2]",5,7,"[1, 4, 15, 19, 20, 21, 26]",97.58422802,7541,1070,2,13,10,1.338975835424605
basic,1,37,0,0,0,4,"[0, 18, 7, 22, 2, 4]",6,5,"[1, 15, 19, 20, 21]",86.18247377,8591,1050,2,6,10,1.3155324116512812
basic,1,37,0,0,0,1,"[0, 18, 7, 22, 2, 4, 1]",7,4,"[15, 19, 20, 21]",68.46242863,9839,1248,2,4,10,1.4624721991921241
basic,1,37,0,0,0,15,"[0, 18, 7, 22, 2, 4, 1, 15]",8,2,"[20, 21]",28.49994622,11292,1453,2,0,9,1.631639185530609
basic,1,37,0,0,1,21,"[0, 18, 7, 22, 2, 4, 1, 15, 21]",9,0,[],13.49994622,12726,1434,1,0,9,1.8460836778565721
basic,1,37,0,1,1,21,"[0, 18, 7, 22, 2, 4, 1, 15, 21]",9,0,[],13.49994622,18130,5404,1,0,9,1.8460836778565721
basic,2,41,0,0,0,0,[0],1,29,"[1, 2, 3, 4, 5, 6, 7, 8, 9, 10, 11, 12, 13, 14, 15, 16, 17, 18, 19, 20, 21, 22, 23, 24, 25, 26, 27, 28, 29]",300,164,-1,1,143,10,0.0
basic,2,41,0,0,0,13,"[0, 13]",2,23,"[1, 2, 3, 5, 6, 7, 9, 10, 11, 12, 14, 15, 17, 18, 19, 20, 21, 22, 24, 25, 26, 27, 28]",258.2747079,6751,6587,1,55,10,1.0
basic,2,41,0,0,0,28,"[0, 13, 28]",3,22,"[1, 2, 3, 5, 6, 7, 9, 10, 11, 12, 14, 15, 17, 18, 19, 20, 21, 22, 24, 25, 26, 27]",223.7928286,7716,965,1,39,10,1.895724242592676
basic,2,41,0,0,0,5,"[0, 13, 28, 5]",4,19,"[1, 2, 3, 6, 9, 10, 11, 12, 14, 15, 17, 18, 19, 20, 21, 22, 24, 25, 27]",210.1913581,8439,723,1,34,10,2.861541269398273
basic,2,41,0,0,0,3,"[0, 13, 28, 5, 3]",5,16,"[1, 2, 6, 9, 10, 12, 14, 17, 18, 19, 20, 21, 22, 24, 25, 27]",175.3632086,10155,1716,1,22,10,3.1455488489005883
basic,2,41,0,0,0,22,"[0, 13, 28, 5, 3, 22]",6,10,"[2, 6, 9, 10, 12, 17, 18, 20, 21, 25]",145.3965604,11557,1402,1,7,10,2.241807041008432
basic,2,41,0,0,0,21,"[0, 13, 28, 5, 3, 22, 21]",7,4,"[2, 9, 12, 17]",94.39656044,12869,1312,1,5,10,4.206513633906409
basic,2,41,0,0,0,9,"[0, 13, 28, 5, 3, 22, 21, 9]",8,2,"[2, 17]",45.03058025,14028,1159,1,1,10,3.098343902653451
basic,2,41,0,0,0,2,"[0, 13, 28, 5, 3, 22, 21, 9, 2]",9,1,[17],32.94753428,14925,897,1,0,10,2.9516218867624824
basic,2,41,0,0,1,17,"[0, 13, 28, 5, 3, 22, 21, 9, 2, 17]",10,0,[],0.389893085,16008,1083,1,0,10,4.726628762010198
basic,2,41,0,1,1,17,"[0, 13, 28, 5, 3, 22, 21, 9, 2, 17]",10,0,[],0.389893085,18627,2619,1,0,10,4.726628762010198
basic,3,18,0,0,0,0,[0],1,28,"[1, 2, 3, 4, 5, 6, 7, 8, 9, 10, 11, 12, 13, 14, 16, 17, 18, 19, 20, 21, 22, 23, 24, 25, 26, 27, 28, 29]",300,131,-1,3,136,10,0.0
basic,3,18,0,0,0,28,"[0, 28]",2,16,"[1, 3, 5, 7, 8, 9, 12, 13, 14, 16, 20, 23, 24, 25, 26, 27]",236.4311397,3072,2941,2,19,10,1.0
basic,3,18,0,0,0,7,"[0, 28, 7]",3,15,"[1, 3, 5, 8, 9, 12, 13, 14, 16, 20, 23, 24, 25, 26, 27]",214.4084242,4087,1015,2,17,10,1.4345180696367563
basic,3,18,0,0,0,25,"[0, 28, 7, 25]",4,13,"[1, 3, 5, 8, 9, 12, 13, 14, 16, 20, 23, 26, 27]",186.6055466,6138,2051,2,15,10,1.8896451241781882
basic,3,18,0,0,0,8,"[0, 28, 7, 25, 8]",5,10,"[3, 5, 9, 12, 13, 14, 16, 23, 26, 27]",149.551532,7766,1628,2,10,10,1.590467437592877
basic,3,18,0,0,0,3,"[0, 28, 7, 25, 8, 3]",6,6,"[5, 12, 13, 14, 23, 27]",121.4801943,8688,922,1,10,9,1.4587755974793148
basic,3,18,0,0,0,14,"[0, 28, 7, 25, 8, 3, 14]",7,4,"[5, 12, 13, 27]",91.39697637,10551,1863,4,0,8,1.8606737724243565
basic,3,18,0,0,1,13,"[0, 28, 7, 25, 8, 3, 14, 13]",8,0,[],72.42331041,11472,921,1,0,8,2.4208916262893254
basic,3,18,0,1,1,13,"[0, 28, 7, 25, 8, 3, 14, 13]",8,0,[],72.42331041,15463,3991,1,0,8,2.4208916262893254
basic,4,35,0,0,0,0,[0],1,29,"[1, 2, 3, 4, 5, 6, 7, 8, 9, 10, 11, 12, 13, 14, 15, 16, 17, 18, 19, 20, 21, 22, 23, 24, 25, 26, 27, 28, 29]",300,163,-1,5,236,11,0.0
basic,4,35,0,0,0,27,"[0, 27]",2,27,"[1, 2, 4, 5, 6, 7, 8, 9, 10, 11, 12, 13, 14, 15, 16, 17, 18, 19, 20, 21, 22, 23, 24, 25, 26, 28, 29]",278.7867966,3291,3128,5,144,11,1.0
basic,4,35,0,0,0,28,"[0, 27, 28]",3,18,"[1, 2, 5, 6, 7, 9, 10, 13, 15, 16, 17, 18, 19, 21, 23, 24, 25, 26]",240.707931,6603,3312,4,100,10,1.0168505943672008
basic,4,35,0,0,0,19,"[0, 27, 28, 19]",4,14,"[1, 2, 5, 6, 9, 10, 15, 17, 18, 21, 23, 24, 25, 26]",191.7896318,8335,1732,11,75,9,1.3148564374305836
basic,4,35,0,0,0,24,"[0, 27, 28, 19, 24]",5,9,"[1, 2, 5, 9, 15, 17, 18, 23, 26]",117.4592881,9498,1163,3,20,9,5.8853487613374895
basic,4,35,0,0,0,17,"[0, 27, 28, 19, 24, 17]",6,6,"[1, 5, 9, 15, 18, 23]",105.7545882,10634,1136,3,8,9,4.897634910968656
basic,4,35,0,0,0,1,"[0, 27, 28, 19, 24, 17, 1]",7,5,"[5, 9, 15, 18, 23]",89.94319985,11587,953,3,3,9,4.394339868933799
basic,4,35,0,0,0,15,"[0, 27, 28, 19, 24, 17, 1, 15]",8,2,"[5, 23]",67.09588053,12440,853,2,0,9,4.190522877836577
basic,4,35,0,0,1,23,"[0, 27, 28, 19, 24, 17, 1, 15, 23]",9,0,[],6.65582759,14159,1719,1,0,9,2.7590615597757737
basic,4,35,0,1,1,23,"[0, 27, 28, 19, 24, 17, 1, 15, 23]",9,0,[],6.65582759,15495,1336,1,0,9,2.7590615597757737
basic,5,45,0,0,0,0,[0],1,24,"[1, 2, 3, 4, 5, 6, 7, 9, 10, 11, 12, 14, 15, 16, 17, 19, 20, 21, 22, 23, 24, 25, 27, 29]",300,131,-1,6,248,10,0.0
basic,5,45,0,0,0,15,"[0, 15]",2,23,"[1, 2, 3, 4, 5, 6, 7, 9, 10, 11, 12, 14, 16, 17, 19, 20, 21, 22, 23, 24, 25, 27, 29]",253.9022777,5271,5140,5,207,10,1.0
basic,5,45,0,0,0,23,"[0, 15, 23]",3,22,"[1, 2, 3, 4, 5, 6, 7, 9, 10, 11, 12, 14, 16, 17, 19, 20, 21, 22, 24, 25, 27, 29]",230.3014303,6190,919,5,163,10,1.0006068457769497
basic,5,45,0,0,0,10,"[0, 15, 23, 10]",4,15,"[2, 3, 6, 7, 9, 12, 14, 16, 17, 19, 20, 22, 24, 25, 29]",145.4014892,7202,1012,16,100,9,1.0506457231179707
basic,5,45,0,0,0,29,"[0, 15, 23, 10, 29]",5,13,"[2, 3, 6, 7, 9, 12, 14, 16, 17, 19, 20, 22, 24]",123.8608299,10275,3073,8,36,9,1.0936313719083224
basic,5,45,0,0,0,2,"[0, 15, 23, 10, 29, 2]",6,8,"[3, 6, 7, 12, 19, 20, 22, 24]",94.17918578,11439,1164,2,7,9,1.2279769993725143
basic,5,45,0,0,0,3,"[0, 15, 23, 10, 29, 2, 3]",7,4,"[6, 7, 12, 22]",68.86120797,12412,973,2,2,9,1.2884863419854884
basic,5,45,0,0,0,6,"[0, 15, 23, 10, 29, 2, 3, 6]",8,1,[12],32.62586611,13669,1257,1,0,9,1.5523770529502385
basic,5,45,0,0,1,12,"[0, 15, 23, 10, 29, 2, 3, 6, 12]",9,0,[],12.50125431,15140,1471,1,0,9,1.5131512931052633
basic,5,45,0,1,1,12,"[0, 15, 23, 10, 29, 2, 3, 6, 12]",9,0,[],12.50125431,17196,2056,1,0,9,1.5131512931052633
basic,6,33,0,0,0,0,[0],1,23,"[1, 2, 5, 7, 8, 11, 12, 13, 14, 15, 16, 17, 18, 19, 20, 21, 23, 24, 25, 26, 27, 28, 29]",300,196,-1,5,108,9,0.0
basic,6,33,0,0,0,8,"[0, 8]",2,22,"[1, 2, 5, 7, 11, 12, 13, 14, 15, 16, 17, 18, 19, 20, 21, 23, 24, 25, 26, 27, 28, 29]",265.8679037,3693,3497,5,87,9,1.0
basic,6,33,0,0,0,21,"[0, 8, 21]",3,16,"[2, 5, 7, 11, 13, 14, 16, 17, 18, 19, 20, 24, 26, 27, 28, 29]",166.0430571,4689,996,5,80,9,1.0670557763739492
basic,6,33,0,0,0,17,"[0, 8, 21, 17]",4,11,"[2, 7, 11, 13, 14, 16, 19, 20, 24, 26, 29]",127.4036989,8665,3976,1,18,9,1.0830294710276618
basic,6,33,0,0,0,13,"[0, 8, 21, 17, 13]",5,10,"[2, 7, 11, 14, 16, 19, 20, 24, 26, 29]",104.6001904,9523,858,1,10,9,1.2861654105061844
basic,6,33,0,0,0,19,"[0, 8, 21, 17, 13, 19]",6,6,"[7, 14, 16, 24, 26, 29]",79.10509282,10240,717,1,6,9,1.3181942666818214
basic,6,33,0,0,0,24,"[0, 8, 21, 17, 13, 19, 24]",7,1,[7],37.05750074,11024,784,1,0,8,1.2914654832859356
basic,6,33,0,0,1,7,"[0, 8, 21, 17, 13, 19, 24, 7]",8,0,[],7.851337003,11900,876,1,0,8,1.370940443464748
basic,6,33,0,1,1,7,"[0, 8, 21, 17, 13, 19, 24, 7]",8,0,[],7.851337003,13695,1795,1,0,8,1.370940443464748
basic,7,25,0,0,0,0,[0],1,28,"[1, 2, 3, 4, 5, 7, 8, 9, 10, 11, 12, 13, 14, 15, 16, 17, 18, 19, 20, 21, 22, 23, 24, 25, 26, 27, 28, 29]",300,149,-1,5,94,10,0.0
basic,7,25,0,0,0,23,"[0, 23]",2,23,"[1, 2, 3, 5, 7, 8, 9, 11, 12, 13, 14, 16, 17, 19, 20, 21, 22, 24, 25, 26, 27, 28, 29]",259.7756293,2370,2221,3,33,10,1.0
basic,7,25,0,0,0,7,"[0, 23, 7]",3,16,"[1, 3, 5, 8, 9, 11, 13, 17, 19, 21, 22, 24, 26, 27, 28, 29]",181.9424744,5155,2785,1,21,9,1.0073109045884563
basic,7,25,0,0,0,24,"[0, 23, 7, 24]",4,10,"[3, 5, 8, 9, 11, 13, 19, 22, 28, 29]",157.1836376,5771,616,1,17,9,1.0161584555781231
basic,7,25,0,0,0,9,"[0, 23, 7, 24, 9]",5,8,"[3, 8, 11, 13, 19, 22, 28, 29]",139.1558812,6569,798,1,16,9,1.0303325523073676
basic,7,25,0,0,0,8,"[0, 23, 7, 24, 9, 8]",6,3,"[3, 13, 28]",88.9065031,7459,890,4,1,8,1.055612641218378
basic,7,25,0,0,0,3,"[0, 23, 7, 24, 9, 8, 3]",7,2,"[13, 28]",49.70191153,8411,952,2,0,8,1.351837400410144
basic,7,25,0,0,1,28,"[0, 23, 7, 24, 9, 8, 3, 28]",8,0,[],18.39695985,9877,1466,1,0,8,1.3013490779110028
basic,7,25,0,1,1,28,"[0, 23, 7, 24, 9, 8, 3, 28]",8,0,[],18.39695985,11580,1703,1,0,8,1.3013490779110028
basic,8,17,0,0,0,0,[0],1,28,"[1, 2, 3, 4, 5, 6, 7, 8, 9, 10, 11, 12, 13, 14, 15, 16, 17, 18, 19, 20, 22, 23, 24, 25, 26, 27, 28, 29]",300,166,-1,2,73,8,0.0
basic,8,17,0,0,0,9,"[0, 9]",2,25,"[1, 2, 3, 5, 6, 7, 8, 10, 11, 12, 14, 15, 16, 17, 18, 19, 20, 22, 23, 24, 25, 26, 27, 28, 29]",210.5293344,6831,6665,1,34,8,1.0
basic,8,17,0,0,0,16,"[0, 9, 16]",3,21,"[1, 2, 3, 5, 7, 8, 10, 11, 12, 14, 17, 18, 19, 20, 22, 23, 25, 26, 27, 28, 29]",197.1876704,7497,666,1,26,8,1.173103464220352
basic,8,17,0,0,0,2,"[0, 9, 16, 2]",4,18,"[1, 3, 5, 7, 8, 10, 11, 12, 14, 17, 18, 19, 23, 25, 26, 27, 28, 29]",181.0631549,8327,830,1,23,8,1.14825089247282
basic,8,17,0,0,0,17,"[0, 9, 16, 2, 17]",5,7,"[7, 8, 12, 14, 26, 27, 29]",142.7356191,10745,2418,4,5,7,1.4896040699768547
basic,8,17,0,0,0,8,"[0, 9, 16, 2, 17, 8]",6,3,"[7, 12, 27]",104.5256727,12511,1766,3,0,7,1.4604726966175894
basic,8,17,0,0,1,7,"[0, 9, 16, 2, 17, 8, 7]",7,0,[],33.81499459,14014,1503,1,0,7,1.4474701869793896
basic,8,17,0,1,1,7,"[0, 9, 16, 2, 17, 8, 7]",7,0,[],33.81499459,16831,2817,1,0,7,1.4474701869793896
basic,9,40,0,0,0,0,[0],1,29,"[1, 2, 3, 4, 5, 6, 7, 8, 9, 10, 11, 12, 13, 14, 15, 16, 17, 18, 19, 20, 21, 22, 23, 24, 25, 26, 27, 28, 29]",300,163,-1,8,191,9,0.0
basic,9,40,0,0,0,1,"[0, 1]",2,18,"[2, 5, 6, 7, 8, 9, 10, 11, 13, 15, 17, 18, 19, 21, 22, 23, 27, 29]",247.8463808,4817,4654,4,80,9,1.0
basic,9,40,0,0,0,6,"[0, 1, 6]",3,17,"[2, 5, 7, 8, 9, 10, 11, 13, 15, 17, 18, 19, 21, 22, 23, 27, 29]",227.7466295,5453,636,4,74,9,1.0459427008232034
basic,9,40,0,0,0,21,"[0, 1, 6, 21]",4,8,"[2, 5, 9, 17, 18, 19, 22, 23]",175.7754837,6736,1283,4,25,9,1.0308822257404064
basic,9,40,0,0,0,9,"[0, 1, 6, 21, 9]",5,6,"[2, 5, 18, 19, 22, 23]",130.0699041,7968,1232,4,12,9,1.377861912961129
basic,9,40,0,0,0,18,"[0, 1, 6, 21, 9, 18]",6,5,"[2, 5, 19, 22, 23]",113.5169588,9491,1523,4,4,9,1.5742712168661408
basic,9,40,0,0,0,5,"[0, 1, 6, 21, 9, 18, 5]",7,3,"[19, 22, 23]",81.94165198,11071,1580,2,1,9,1.7730665063055515
basic,9,40,0,0,0,23,"[0, 1, 6, 21, 9, 18, 5, 23]",8,1,[19],53.63970859,11964,893,1,0,9,2.597442759912231
basic,9,40,0,0,1,19,"[0, 1, 6, 21, 9, 18, 5, 23, 19]",9,0,[],21.68661797,13052,1088,1,0,9,2.7128328554069565
basic,9,40,0,1,1,19,"[0, 1, 6, 21, 9, 18, 5, 23, 19]",9,0,[],21.68661797,15011,1959,1,0,9,2.7128328554069565
basic,10,42,0,0,0,0,[0],1,29,"[1, 2, 3, 4, 5, 6, 7, 8, 9, 10, 11, 12, 13, 14, 15, 16, 17, 18, 19, 20, 21, 22, 23, 24, 25, 26, 27, 28, 29]",300,181,-1,16,302,9,0.0
basic,10,42,0,0,0,22,"[0, 22]",2,27,"[1, 2, 3, 4, 5, 6, 7, 8, 9, 10, 11, 12, 13, 15, 16, 17, 18, 19, 20, 21, 23, 24, 25, 26, 27, 28, 29]",211.3997743,7371,7190,5,83,9,1.0
basic,10,42,0,0,0,4,"[0, 22, 4]",3,26,"[1, 2, 3, 5, 6, 7, 8, 9, 10, 11, 12, 13, 15, 16, 17, 18, 19, 20, 21, 23, 24, 25, 26, 27, 28, 29]",200.2194344,8339,968,4,51,9,1.1029012260448476
basic,10,42,0,0,0,5,"[0, 22, 4, 5]",4,24,"[1, 2, 3, 6, 7, 8, 9, 10, 11, 12, 13, 15, 17, 18, 19, 20, 21, 23, 24, 25, 26, 27, 28, 29]",180.3700011,9221,882,3,22,9,1.1004909640339868
basic,10,42,0,0,0,8,"[0, 22, 4, 5, 8]",5,16,"[1, 2, 3, 6, 7, 11, 15, 18, 19, 23, 24, 25, 26, 27, 28, 29]",145.8881218,11859,2638,3,12,9,1.4333663223483832
basic,10,42,0,0,0,1,"[0, 22, 4, 5, 8, 1]",6,6,"[2, 7, 18, 19, 26, 27]",96.796371,13307,1448,3,7,9,1.3048950637395882
basic,10,42,0,0,0,7,"[0, 22, 4, 5, 8, 1, 7]",7,4,"[2, 19, 26, 27]",66.796371,14509,1202,3,2,9,1.3461774355793397
basic,10,42,0,0,0,26,"[0, 22, 4, 5, 8, 1, 7, 26]",8,2,"[19, 27]",40.22571049,16293,1784,2,0,9,1.3119913611616163
basic,10,42,0,0,1,27,"[0, 22, 4, 5, 8, 1, 7, 26, 27]",9,0,[],22.19795412,17723,1430,1,0,9,1.3027999653776734
basic,10,42,0,1,1,27,"[0, 22, 4, 5, 8, 1, 7, 26, 27]",9,0,[],22.19795412,19529,1806,1,0,9,1.3027999653776734
basic,11,27,0,0,0,0,[0],1,26,"[1, 3, 5, 6, 7, 8, 9, 10, 11, 12, 13, 14, 15, 16, 17, 18, 19, 21, 22, 23, 24, 25, 26, 27, 28, 29]",300,163,-1,13,578,11,0.0
basic,11,27,0,0,0,15,"[0, 15]",2,24,"[1, 3, 5, 6, 7, 8, 9, 10, 11, 12, 13, 14, 16, 17, 18, 19, 21, 22, 23, 24, 25, 26, 27, 29]",263.7508621,3520,3357,6,219,11,1.0
basic,11,27,0,0,0,24,"[0, 15, 24]",3,20,"[1, 5, 6, 7, 8, 9, 10, 12, 13, 14, 16, 17, 18, 19, 21, 23, 25, 26, 27, 29]",246.5462115,4346,826,6,130,11,1.130933077698322
basic,11,27,0,0,0,17,"[0, 15, 24, 17]",4,15,"[1, 6, 8, 10, 12, 13, 14, 16, 18, 19, 23, 25, 26, 27, 29]",229.9932662,5366,1020,4,60,11,1.1285538435963374
basic,11,27,0,0,0,12,"[0, 15, 24, 17, 12]",5,14,"[1, 6, 8, 10, 13, 14, 16, 18, 19, 23, 25, 26, 27, 29]",218.8129263,6941,1575,2,32,11,1.2561880288755216
basic,11,27,0,0,0,10,"[0, 15, 24, 17, 12, 10]",6,11,"[1, 8, 13, 14, 18, 19, 23, 25, 26, 27, 29]",207.7675653,7840,899,2,28,11,1.2228289337766665
basic,11,27,0,0,0,13,"[0, 15, 24, 17, 12, 10, 13]",7,9,"[1, 8, 14, 18, 19, 23, 26, 27, 29]",167.9178476,9851,2011,2,18,11,1.3421291994761178
basic,11,27,0,0,0,19,"[0, 15, 24, 17, 12, 10, 13, 19]",8,5,"[1, 8, 14, 23, 29]",131.6825057,10509,658,2,6,11,1.294749956153846
basic,11,27,0,0,0,8,"[0, 15, 24, 17, 12, 10, 13, 19, 8]",9,3,"[14, 23, 29]",116.816437,11305,796,2,1,11,1.3554286578836865
basic,11,27,0,0,0,14,"[0, 15, 24, 17, 12, 10, 13, 19, 8, 14]",10,1,[29],59.25777126,13920,2615,1,0,11,1.312380420632942
basic,11,27,0,0,1,29,"[0, 15, 24, 17, 12, 10, 13, 19, 8, 14, 29]",11,0,[],14.96330208,15016,1096,1,0,11,1.4680136813839417
basic,11,27,0,1,1,29,"[0, 15, 24, 17, 12, 10, 13, 19, 8, 14, 29]",11,0,[],14.96330208,17478,2462,1,0,11,1.4680136813839417
basic,12,43,0,0,0,0,[0],1,23,"[1, 2, 3, 4, 5, 6, 7, 9, 10, 11, 12, 14, 15, 16, 17, 19, 20, 21, 22, 23, 25, 27, 29]",300,147,-1,16,556,12,0.0
basic,12,43,0,0,0,29,"[0, 29]",2,22,"[1, 2, 3, 4, 5, 6, 7, 9, 10, 11, 12, 14, 15, 16, 17, 19, 20, 21, 22, 23, 25, 27]",277.909278,2272,2125,16,520,12,1.0
basic,12,43,0,0,0,20,"[0, 29, 20]",3,20,"[1, 2, 3, 4, 6, 7, 9, 10, 11, 12, 14, 15, 16, 17, 19, 21, 22, 23, 25, 27]",254.4785289,3720,1448,15,422,12,1.082311746871282
basic,12,43,0,0,0,16,"[0, 29, 20, 16]",4,19,"[1, 2, 3, 4, 6, 7, 9, 10, 11, 12, 14, 15, 17, 19, 21, 22, 23, 25, 27]",231.8511119,4972,1252,15,389,12,1.215201926898219
basic,12,43,0,0,0,25,"[0, 29, 20, 16, 25]",5,14,"[1, 2, 3, 4, 6, 7, 9, 11, 12, 14, 15, 19, 22, 23]",175.7708124,6106,1134,53,282,11,1.566384303308987
basic,12,43,0,0,0,15,"[0, 29, 20, 16, 25, 15]",6,13,"[1, 2, 3, 4, 6, 7, 9, 11, 12, 14, 19, 22, 23]",153.0992443,6972,866,27,108,11,1.776736412604812
basic,12,43,0,0,0,12,"[0, 29, 20, 16, 25, 15, 12]",7,10,"[1, 3, 6, 7, 9, 11, 14, 19, 22, 23]",133.7860364,7739,767,21,41,11,1.6813323012225032
basic,12,43,0,0,0,3,"[0, 29, 20, 16, 25, 15, 12, 3]",8,9,"[1, 6, 7, 9, 11, 14, 19, 22, 23]",120.7860364,8792,1053,20,12,11,1.608740348096123
basic,12,43,0,0,0,11,"[0, 29, 20, 16, 25, 15, 12, 3, 11]",9,3,"[6, 14, 22]",53.75619226,11137,2345,1,2,11,2.7059759092307694
basic,12,43,0,0,0,6,"[0, 29, 20, 16, 25, 15, 12, 3, 11, 6]",10,1,[14],33.14066413,12201,1064,1,0,11,2.419603450300579
basic,12,43,0,0,1,14,"[0, 29, 20, 16, 25, 15, 12, 3, 11, 6, 14]",11,0,[],4.680165186,14220,2019,1,0,11,2.3808374911788053
basic,12,43,0,1,1,14,"[0, 29, 20, 16, 25, 15, 12, 3, 11, 6, 14]",11,0,[],4.680165186,16229,2009,1,0,11,2.3808374911788053
basic,13,3,0,0,0,0,[0],1,29,"[1, 2, 3, 4, 5, 6, 7, 8, 9, 10, 11, 12, 13, 14, 15, 16, 17, 18, 19, 20, 21, 22, 23, 24, 25, 26, 27, 28, 29]",300,163,-1,34,427,10,0.0
basic,13,3,0,0,0,17,"[0, 17]",2,16,"[3, 4, 7, 8, 10, 12, 14, 15, 16, 19, 20, 21, 22, 24, 26, 27]",197.6965299,3522,3359,2,27,9,1.0
basic,13,3,0,0,0,20,"[0, 17, 20]",3,13,"[3, 4, 7, 8, 10, 14, 15, 16, 19, 21, 22, 24, 27]",185.0474192,4536,1014,2,24,9,1.0153332121237257
basic,13,3,0,0,0,3,"[0, 17, 20, 3]",4,10,"[4, 7, 8, 10, 14, 15, 16, 19, 21, 24]",164.6513412,5211,675,2,22,9,1.0819240770773468
basic,13,3,0,0,0,19,"[0, 17, 20, 3, 19]",5,6,"[4, 8, 10, 14, 21, 24]",127.3150318,6095,884,2,11,9,1.1701070532957258
basic,13,3,0,0,0,21,"[0, 17, 20, 3, 19, 21]",6,5,"[4, 8, 10, 14, 24]",115.1084762,7357,1262,2,6,9,1.202395500952127
basic,13,3,0,0,0,14,"[0, 17, 20, 3, 19, 21, 14]",7,4,"[4, 8, 10, 24]",88.20122806,8735,1378,2,2,9,1.6456130302761207
basic,13,3,0,0,0,24,"[0, 17, 20, 3, 19, 21, 14, 24]",8,1,[8],17.08864127,10243,1508,1,0,9,4.806859660680286
basic,13,3,0,0,1,8,"[0, 17, 20, 3, 19, 21, 14, 24, 8]",9,0,[],4.923116212,11562,1319,1,0,9,4.915218144486606
basic,13,3,0,1,1,8,"[0, 17, 20, 3, 19, 21, 14, 24, 8]",9,0,[],4.923116212,13329,1767,1,0,9,4.915218144486606
basic,14,20,0,0,0,0,[0],1,21,"[1, 2, 3, 4, 5, 6, 7, 8, 9, 12, 17, 18, 20, 21, 22, 23, 25, 26, 27, 28, 29]",300,132,-1,1,9,9,0.0
basic,14,20,0,0,0,1,"[0, 1]",2,14,"[3, 4, 5, 6, 8, 9, 12, 20, 21, 23, 26, 27, 28, 29]",197.3501096,2978,2846,1,9,8,1.0
basic,14,20,0,0,0,5,"[0, 1, 5]",3,12,"[4, 6, 8, 9, 12, 20, 21, 23, 26, 27, 28, 29]",160.675868,4081,1103,1,8,8,1.1088946720668915
basic,14,20,0,0,0,21,"[0, 1, 5, 21]",4,8,"[4, 6, 8, 9, 20, 23, 27, 28]",115.675868,5787,1706,1,6,8,1.0805828994591202
basic,14,20,0,0,0,8,"[0, 1, 5, 21, 8]",5,5,"[6, 9, 23, 27, 28]",98.21161876,6685,898,1,5,8,1.0976815296746363
basic,14,20,0,0,0,27,"[0, 1, 5, 21, 8, 27]",6,1,[23],57.98724804,7626,941,1,0,7,1.2719907843846436
basic,14,20,0,0,1,23,"[0, 1, 5, 21, 8, 27, 23]",7,0,[],5.977633539,9051,1425,1,0,7,1.2908014903941913
basic,14,20,0,1,1,23,"[0, 1, 5, 21, 8, 27, 23]",7,0,[],5.977633539,10631,1580,1,0,7,1.2908014903941913
basic,15,11,0,0,0,0,[0],1,25,"[1, 2, 3, 4, 5, 6, 8, 9, 10, 11, 12, 13, 14, 15, 16, 17, 18, 19, 20, 22, 23, 25, 26, 27, 28]",300,146,-1,6,374,12,0.0
basic,15,11,0,0,0,27,"[0, 27]",2,21,"[1, 2, 4, 5, 6, 8, 9, 11, 12, 13, 14, 15, 16, 17, 18, 19, 20, 22, 23, 25, 28]",217.9939027,2989,2843,276,2000,10,1.0
basic,15,11,0,0,0,17,"[0, 27, 17]",3,15,"[1, 2, 4, 5, 6, 8, 11, 12, 15, 18, 19, 22, 23, 25, 28]",140.91602,4158,1169,82,451,10,1.0816284715013953
basic,15,11,0,0,0,8,"[0, 27, 17, 8]",4,13,"[1, 2, 4, 5, 6, 11, 12, 15, 18, 19, 22, 25, 28]",126.5981989,4791,633,40,179,10,1.1941717730735368
basic,15,11,0,0,0,15,"[0, 27, 17, 8, 15]",5,10,"[2, 5, 6, 11, 12, 18, 19, 22, 25, 28]",113.1445749,5353,562,33,59,10,1.1911530098609295
basic,15,11,0,0,0,11,"[0, 27, 17, 8, 15, 11]",6,7,"[2, 5, 6, 12, 19, 22, 28]",95.03380459,6998,1645,24,0,10,1.1822699434643233
basic,15,11,0,0,0,28,"[0, 27, 17, 8, 15, 11, 28]",7,3,"[2, 5, 22]",75.61731675,7967,969,6,0,10,1.298485676789349
basic,15,11,0,0,0,5,"[0, 27, 17, 8, 15, 11, 28, 5]",8,2,"[2, 22]",57.72877293,8983,1016,2,0,10,1.4891315737471853
basic,15,11,0,0,0,2,"[0, 27, 17, 8, 15, 11, 28, 5, 2]",9,1,[22],40.72877293,10274,1291,1,0,10,1.4525967533063762
basic,15,11,0,0,1,22,"[0, 27, 17, 8, 15, 11, 28, 5, 2, 22]",10,0,[],30.67889731,11157,883,1,0,10,1.4285028943538445
basic,15,11,0,1,1,22,"[0, 27, 17, 8, 15, 11, 28, 5, 2, 22]",10,0,[],30.67889731,13112,1955,1,0,10,1.4285028943538445
basic,16,16,0,0,0,0,[0],1,29,"[1, 2, 3, 4, 5, 6, 7, 8, 9, 10, 11, 12, 13, 14, 15, 16, 17, 18, 19, 20, 21, 22, 23, 24, 25, 26, 27, 28, 29]",300,179,-1,13,161,9,0.0
basic,16,16,0,0,0,17,"[0, 17]",2,27,"[1, 2, 3, 4, 5, 7, 8, 9, 10, 11, 12, 13, 14, 15, 16, 18, 19, 20, 21, 22, 23, 24, 25, 26, 27, 28, 29]",241.3058776,4586,4407,2,58,9,1.0
basic,16,16,0,0,0,16,"[0, 17, 16]",3,26,"[1, 2, 3, 4, 5, 7, 8, 9, 10, 11, 12, 13, 14, 15, 18, 19, 20, 21, 22, 23, 24, 25, 26, 27, 28, 29]",212.9862731,5535,949,2,52,9,1.0529535521792848
basic,16,16,0,0,0,8,"[0, 17, 16, 8]",4,19,"[2, 3, 4, 5, 9, 12, 13, 14, 15, 19, 20, 21, 22, 23, 25, 26, 27, 28, 29]",164.6127266,8629,3094,2,38,9,1.0915134501573105
basic,16,16,0,0,0,20,"[0, 17, 16, 8, 20]",5,10,"[3, 4, 5, 9, 12, 13, 15, 19, 21, 25]",106.8372993,9644,1015,1,15,9,1.067523143001942
basic,16,16,0,0,0,25,"[0, 17, 16, 8, 20, 25]",6,7,"[3, 4, 5, 9, 12, 13, 15]",94.18818869,10284,640,1,9,9,1.1170093326933646
basic,16,16,0,0,0,9,"[0, 17, 16, 8, 20, 25, 9]",7,5,"[3, 4, 5, 13, 15]",81.38194021,11414,1130,1,4,9,1.1095076562662525
basic,16,16,0,0,0,15,"[0, 17, 16, 8, 20, 25, 9, 15]",8,1,[5],42.48463953,12883,1469,1,0,9,1.213831159678775
basic,16,16,0,0,1,5,"[0, 17, 16, 8, 20, 25, 9, 15, 5]",9,0,[],13.0567616,14035,1152,1,0,9,1.5171779607523481
basic,16,16,0,1,1,5,"[0, 17, 16, 8, 20, 25, 9, 15, 5]",9,0,[],13.0567616,15711,1676,1,0,9,1.5171779607523481
basic,17,31,0,0,0,0,[0],1,27,"[1, 3, 4, 5, 6, 7, 8, 10, 11, 12, 13, 14, 15, 16, 17, 18, 19, 20, 21, 22, 23, 24, 25, 26, 27, 28, 29]",300,131,-1,2,87,10,0.0
basic,17,31,0,0,0,11,"[0, 11]",2,21,"[1, 3, 5, 6, 7, 8, 10, 12, 13, 14, 16, 17, 18, 19, 20, 21, 22, 25, 27, 28, 29]",238.7790885,4013,3882,24,261,8,1.0
basic,17,31,0,0,0,17,"[0, 11, 17]",3,17,"[1, 3, 5, 6, 7, 8, 12, 13, 14, 16, 18, 19, 20, 22, 25, 27, 28]",197.669479,5653,1640,6,50,8,1.1304652203265726
basic,17,31,0,0,0,18,"[0, 11, 17, 18]",4,14,"[1, 5, 7, 8, 12, 13, 14, 16, 19, 20, 22, 25, 27, 28]",168.4633152,6390,737,6,25,8,2.043076481045282
basic,17,31,0,0,0,8,"[0, 11, 17, 18, 8]",5,9,"[5, 7, 13, 14, 19, 22, 25, 27, 28]",132.6164186,7349,959,3,10,8,4.81193963763814
basic,17,31,0,0,0,27,"[0, 11, 17, 18, 8, 27]",6,5,"[5, 7, 13, 14, 19]",121.5710575,7932,583,3,4,8,4.405988685153446
basic,17,31,0,0,0,14,"[0, 11, 17, 18, 8, 27, 14]",7,3,"[7, 13, 19]",93.39305194,8773,841,3,0,8,5.717067686328982
basic,17,31,0,0,1,7,"[0, 11, 17, 18, 8, 27, 14, 7]",8,0,[],30.75121289,10276,1503,1,0,8,3.6606240026480026
basic,17,31,0,1,1,7,"[0, 11, 17, 18, 8, 27, 14, 7]",8,0,[],30.75121289,11912,1636,1,0,8,3.6606240026480026
basic,18,29,0,0,0,0,[0],1,29,"[1, 2, 3, 4, 5, 6, 7, 8, 9, 10, 11, 12, 13, 14, 15, 16, 17, 18, 19, 20, 21, 22, 23, 24, 25, 26, 27, 28, 29]",300,148,-1,1,78,9,0.0
basic,18,29,0,0,0,6,"[0, 6]",2,28,"[1, 2, 3, 4, 5, 7, 8, 9, 10, 11, 12, 13, 14, 15, 16, 17, 18, 19, 20, 21, 22, 23, 24, 25, 26, 27, 28, 29]",228.4108947,6171,6023,1,25,9,1.0
basic,18,29,0,0,0,28,"[0, 6, 28]",3,24,"[1, 3, 4, 5, 7, 9, 10, 11, 12, 13, 14, 15, 16, 17, 18, 20, 21, 22, 23, 24, 25, 26, 27, 29]",187.1798384,6926,755,1,22,9,1.162106788166845
basic,18,29,0,0,0,27,"[0, 6, 28, 27]",4,19,"[1, 3, 4, 5, 7, 9, 10, 11, 12, 13, 14, 15, 16, 21, 22, 23, 25, 26, 29]",166.6615539,7873,947,1,21,9,1.2307173895439045
basic,18,29,0,0,0,22,"[0, 6, 28, 27, 22]",5,13,"[1, 3, 4, 5, 7, 9, 12, 13, 14, 15, 21, 26, 29]",133.4200136,8738,865,1,19,9,1.4241767805149903
basic,18,29,0,0,0,12,"[0, 6, 28, 27, 22, 12]",6,8,"[4, 5, 7, 9, 13, 14, 21, 26]",95.4726817,10152,1414,1,6,9,1.3248355326460857
basic,18,29,0,0,0,7,"[0, 6, 28, 27, 22, 12, 7]",7,4,"[4, 5, 9, 21]",81.87121119,11206,1054,1,3,9,1.3264091962339806
basic,18,29,0,0,0,9,"[0, 6, 28, 27, 22, 12, 7, 9]",8,1,[4],52.80232748,12245,1039,1,0,9,1.309391257644539
basic,18,29,0,0,1,4,"[0, 6, 28, 27, 22, 12, 7, 9, 4]",9,0,[],11.76575843,13595,1350,1,0,9,1.6396807789841599
basic,18,29,0,1,1,4,"[0, 6, 28, 27, 22, 12, 7, 9, 4]",9,0,[],11.76575843,14929,1334,1,0,9,1.6396807789841599
basic,19,12,0,0,0,0,[0],1,29,"[1, 2, 3, 4, 5, 6, 7, 8, 9, 10, 11, 12, 13, 14, 15, 16, 17, 18, 19, 20, 21, 22, 23, 24, 25, 26, 27, 28, 29]",300,147,-1,2,32,9,0.0
basic,19,12,0,0,0,6,"[0, 6]",2,28,"[1, 2, 3, 4, 5, 7, 8, 9, 10, 11, 12, 13, 14, 15, 16, 17, 18, 19, 20, 21, 22, 23, 24, 25, 26, 27, 28, 29]",283.5987805,8745,8598,2,18,9,1.0
basic,19,12,0,0,0,5,"[0, 6, 5]",3,19,"[1, 2, 7, 8, 9, 10, 11, 13, 15, 16, 17, 18, 19, 20, 21, 22, 24, 26, 29]",150.9903343,10658,1913,1,19,7,1.1030794762829146
basic,19,12,0,0,0,2,"[0, 6, 5, 2]",4,6,"[7, 10, 13, 17, 19, 29]",106.8881802,12485,1827,1,3,7,1.2321128082178774
basic,19,12,0,0,0,7,"[0, 6, 5, 2, 7]",5,3,"[10, 13, 19]",89.42393101,13201,716,1,2,7,1.2724616790212453
basic,19,12,0,0,0,13,"[0, 6, 5, 2, 7, 13]",6,1,[10],33.98026591,14291,1090,1,0,7,1.2056980825120607
basic,19,12,0,0,1,10,"[0, 6, 5, 2, 7, 13, 10]",7,0,[],4.248128411,15121,830,1,0,7,1.1926642249041564
basic,19,12,0,1,1,10,"[0, 6, 5, 2, 7, 13, 10]",7,0,[],4.248128411,16479,1358,1,0,7,1.1926642249041564
basic,20,15,0,0,0,0,[0],1,25,"[1, 2, 3, 4, 7, 8, 9, 10, 11, 12, 13, 14, 15, 16, 18, 20, 21, 22, 23, 24, 25, 26, 27, 28, 29]",300,163,-1,4,65,9,0.0
basic,20,15,0,0,0,21,"[0, 21]",2,17,"[1, 3, 4, 7, 8, 9, 11, 12, 13, 14, 15, 16, 22, 23, 24, 26, 27]",204.9158268,2602,2439,21,65,7,1.0
basic,20,15,0,0,0,12,"[0, 21, 12]",3,14,"[1, 3, 4, 7, 8, 9, 11, 13, 14, 15, 16, 22, 24, 27]",161.0866128,4698,2096,20,39,7,1.6068212046294776
basic,20,15,0,0,0,7,"[0, 21, 12, 7]",4,10,"[3, 4, 9, 11, 13, 14, 15, 16, 22, 27]",127.8450725,5403,705,13,11,7,2.0298522511797907
basic,20,15,0,0,0,11,"[0, 21, 12, 7, 11]",5,6,"[3, 4, 14, 15, 16, 22]",86.36013546,6720,1317,6,4,7,1.7205538639328775
basic,20,15,0,0,0,3,"[0, 21, 12, 7, 11, 3]",6,4,"[14, 15, 16, 22]",74.95838121,7338,618,4,0,7,1.6999894293819835
basic,20,15,0,0,1,16,"[0, 21, 12, 7, 11, 3, 16]",7,0,[],49.8785088,8535,1197,1,0,7,2.1909315613297298
basic,20,15,0,1,1,16,"[0, 21, 12, 7, 11, 3, 16]",7,0,[],49.8785088,10579,2044,1,0,7,2.1909315613297298
basic,21,4,0,0,0,0,[0],1,26,"[3, 4, 5, 6, 7, 8, 10, 11, 12, 13, 14, 15, 16, 17, 18, 19, 20, 21, 22, 23, 24, 25, 26, 27, 28, 29]",300,148,-1,4,489,10,0.0
basic,21,4,0,0,0,28,"[0, 28]",2,21,"[3, 4, 5, 6, 10, 11, 12, 13, 14, 15, 16, 17, 19, 20, 21, 22, 23, 24, 25, 26, 27]",225.9392142,3219,3071,2,216,10,1.0
basic,21,4,0,0,0,14,"[0, 28, 14]",3,13,"[3, 4, 5, 6, 11, 13, 16, 17, 20, 21, 22, 24, 25]",159.6972335,4079,860,1,26,10,1.0273973946789214
basic,21,4,0,0,0,25,"[0, 28, 14, 25]",4,12,"[3, 4, 5, 6, 11, 13, 16, 17, 20, 21, 22, 24]",143.572718,4813,734,1,25,10,1.233547772313525
basic,21,4,0,0,0,11,"[0, 28, 14, 25, 11]",5,10,"[3, 4, 5, 6, 13, 16, 17, 20, 21, 22]",124.7844238,5388,575,1,15,10,1.425978575879479
basic,21,4,0,0,0,16,"[0, 28, 14, 25, 11, 16]",6,9,"[3, 4, 5, 6, 13, 17, 20, 21, 22]",109.7844238,6001,613,1,12,10,1.3799325158051412
basic,21,4,0,0,0,3,"[0, 28, 14, 25, 11, 16, 3]",7,2,"[17, 20]",68.15510719,6853,852,1,1,9,1.3292844629725955
basic,21,4,0,0,0,17,"[0, 28, 14, 25, 11, 16, 3, 17]",8,1,[20],43.63980585,7643,790,1,0,9,1.5639571149270572
basic,21,4,0,0,1,20,"[0, 28, 14, 25, 11, 16, 3, 17, 20]",9,0,[],3.415435124,9728,2085,1,0,9,1.6231058358944275
basic,21,4,0,1,1,20,"[0, 28, 14, 25, 11, 16, 3, 17, 20]",9,0,[],3.415435124,11481,1753,1,0,9,1.6231058358944275
basic,22,1,0,0,0,0,[0],1,26,"[1, 2, 4, 5, 7, 8, 9, 10, 11, 12, 13, 14, 15, 16, 17, 18, 19, 20, 21, 22, 23, 24, 25, 26, 28, 29]",300,163,-1,6,74,7,0.0
basic,22,1,0,0,0,14,"[0, 14]",2,19,"[1, 4, 5, 8, 9, 13, 15, 17, 18, 19, 20, 21, 22, 23, 24, 25, 26, 28, 29]",200.1901808,5530,5367,5,42,7,1.0
basic,22,1,0,0,0,17,"[0, 14, 17]",3,15,"[1, 4, 5, 8, 9, 13, 15, 18, 19, 20, 22, 23, 25, 28, 29]",147.8356204,6404,874,5,27,7,1.0028844724416826
basic,22,1,0,0,0,1,"[0, 14, 17, 1]",4,12,"[4, 5, 8, 9, 15, 18, 20, 22, 23, 25, 28, 29]",123.4840291,7420,1016,5,15,7,1.0264985578353567
basic,22,1,0,0,0,28,"[0, 14, 17, 1, 28]",5,5,"[9, 15, 22, 23, 29]",88.59850198,8316,896,5,3,7,1.0339861575999345
basic,22,1,0,0,0,23,"[0, 14, 17, 1, 28, 23]",6,2,"[15, 22]",51.70676849,9406,1090,2,0,7,1.0327458250705703
basic,22,1,0,0,1,15,"[0, 14, 17, 1, 28, 23, 15]",7,0,[],20.81987807,10303,897,1,0,7,1.1948681641401226
basic,22,1,0,1,1,15,"[0, 14, 17, 1, 28, 23, 15]",7,0,[],20.81987807,11679,1376,1,0,7,1.1948681641401226
undo,23,9,0,0,0,0,[0],1,27,"[1, 3, 4, 5, 6, 7, 8, 9, 10, 11, 13, 14, 15, 16, 17, 18, 19, 20, 21, 22, 23, 24, 25, 26, 27, 28, 29]",300,199,-1,2,182,10,0.0
undo,23,9,0,0,0,25,"[0, 25]",2,24,"[1, 3, 4, 5, 6, 7, 8, 9, 10, 11, 13, 15, 16, 17, 18, 19, 20, 21, 22, 23, 24, 26, 27, 28]",275.9168108,7510,7311,2,104,10,1.0
undo,23,9,0,0,0,10,"[0, 25, 10]",3,20,"[3, 4, 5, 7, 8, 9, 11, 13, 15, 16, 17, 18, 19, 20, 21, 22, 23, 26, 27, 28]",236.0670932,8604,1094,2,76,10,1.1767014107208227
undo,23,9,0,0,0,8,"[0, 25, 10, 8]",4,19,"[3, 4, 5, 7, 9, 11, 13, 15, 16, 17, 18, 19, 20, 21, 22, 23, 26, 27, 28]",187.6935467,11155,2551,1,29,10,1.7608170712242983
undo,23,9,0,0,0,28,"[0, 25, 10, 8, 28]",5,18,"[3, 4, 5, 7, 9, 11, 13, 15, 16, 17, 18, 19, 20, 21, 22, 23, 26, 27]",176.8768928,12142,987,1,15,10,1.6576318206889098
undo,23,9,0,0,0,23,"[0, 25, 10, 8, 28, 23]",6,12,"[3, 4, 7, 9, 11, 18, 19, 20, 21, 22, 26, 27]",151.8569008,13930,1788,1,7,10,2.488131366775142
undo,23,9,0,0,0,9,"[0, 25, 10, 8, 28, 23, 9]",7,10,"[3, 4, 7, 11, 18, 19, 20, 21, 26, 27]",129.4962211,15113,1183,1,5,10,2.289724512754012
undo,23,9,0,0,0,26,"[0, 25, 10, 8, 28, 23, 9, 26]",8,3,"[18, 20, 21]",72.8481849,16205,1092,1,2,10,1.944382504121744
undo,23,9,0,0,0,21,"[0, 25, 10, 8, 28, 23, 9, 26, 21]",9,1,[20],18.94085701,17589,1384,1,0,10,2.3711528775176802
undo,23,9,0,1,0,21,"[0, 25, 10, 8, 28, 23, 9, 26, 21]",9,1,[20],18.94085701,18981,1392,1,0,10,2.3711528775176802
undo,24,35,0,0,0,0,[0],1,29,"[1, 2, 3, 4, 5, 6, 7, 8, 9, 10, 11, 12, 13, 14, 15, 16, 17, 18, 19, 20, 21, 22, 23, 24, 25, 26, 27, 28, 29]",300,180,-1,5,236,11,0.0
undo,24,35,0,0,0,24,"[0, 24]",2,27,"[1, 2, 4, 5, 6, 7, 8, 9, 10, 11, 12, 13, 14, 15, 16, 17, 18, 19, 20, 21, 22, 23, 25, 26, 27, 28, 29]",268.9838752,4241,4061,49,512,10,1.0
undo,24,35,0,0,0,17,"[0, 24, 17]",3,26,"[1, 2, 4, 5, 6, 7, 8, 9, 10, 11, 12, 13, 14, 15, 16, 18, 19, 20, 21, 22, 23, 25, 26, 27, 28, 29]",257.2791753,4884,643,33,238,10,1.0771477201815276
undo,24,35,0,0,0,1,"[0, 24, 17, 1]",4,25,"[2, 4, 5, 6, 7, 8, 9, 10, 11, 12, 13, 14, 15, 16, 18, 19, 20, 21, 22, 23, 25, 26, 27, 28, 29]",241.4677869,5573,689,26,151,10,1.2244804141479215
undo,24,35,0,0,0,15,"[0, 24, 17, 1, 15]",5,23,"[2, 4, 5, 6, 7, 8, 9, 10, 11, 12, 14, 16, 18, 19, 20, 21, 22, 23, 25, 26, 27, 28, 29]",218.6204676,6571,998,26,78,10,1.4642196672428094
undo,24,35,0,0,0,23,"[0, 24, 17, 1, 15, 23]",6,11,"[4, 5, 6, 9, 18, 19, 25, 26, 27, 28, 29]",158.1804147,7920,1349,15,12,10,1.3338903684702363
undo,24,35,0,0,0,9,"[0, 24, 17, 1, 15, 23, 9]",7,6,"[5, 6, 18, 19, 25, 27]",120.5373542,9689,1769,6,1,10,1.5964380615155294
undo,24,35,0,0,0,18,"[0, 24, 17, 1, 15, 23, 9, 18]",8,3,"[5, 6, 25]",100.5123698,10340,651,2,1,10,1.5508488101942703
undo,24,35,0,0,0,25,"[0, 24, 17, 1, 15, 23, 9, 18, 25]",9,1,[6],66.67452121,11388,1048,1,0,10,1.4408023801578587
undo,24,35,0,0,1,6,"[0, 24, 17, 1, 15, 23, 9, 18, 25, 6]",10,0,[],42.65369691,12495,1107,1,0,10,1.701781671832088
undo,24,35,0,1,1,6,"[0, 24, 17, 1, 15, 23, 9, 18, 25, 6]",10,0,[],42.65369691,15763,3268,1,0,10,1.701781671832088
undo,25,24,0,0,0,0,[0],1,29,"[1, 2, 3, 4, 5, 6, 7, 8, 9, 10, 11, 12, 13, 14, 15, 16, 17, 18, 19, 20, 21, 22, 23, 24, 25, 26, 27, 28, 29]",300,163,-1,4,76,10,0.0
undo,25,24,0,0,0,16,"[0, 16]",2,28,"[1, 2, 3, 4, 5, 6, 7, 8, 9, 10, 11, 12, 13, 14, 15, 17, 18, 19, 20, 21, 22, 23, 24, 25, 26, 27, 28, 29]",210.3562607,3663,3500,13,110,9,1.0
undo,25,24,0,0,0,22,"[0, 16, 22]",3,27,"[1, 2, 3, 4, 5, 6, 7, 8, 9, 10, 11, 12, 13, 14, 15, 17, 18, 19, 20, 21, 23, 24, 25, 26, 27, 28, 29]",192.3285043,4302,639,7,54,9,1.0217425143037777
undo,25,24,0,0,0,8,"[0, 16, 22, 8]",4,21,"[1, 2, 3, 4, 6, 9, 10, 11, 13, 14, 15, 17, 20, 21, 23, 24, 25, 26, 27, 28, 29]",178.9120964,4876,574,4,28,9,1.0996636936037951
undo,25,24,0,0,0,15,"[0, 16, 22, 8, 15]",5,16,"[3, 4, 6, 9, 10, 11, 13, 14, 17, 23, 24, 25, 26, 27, 28, 29]",148.025206,5925,1049,3,17,9,1.2704773343758617
undo,25,24,0,0,0,28,"[0, 16, 22, 8, 15, 28]",6,8,"[3, 4, 9, 11, 13, 23, 26, 27]",102.7482803,6794,869,3,5,9,1.1981967578189556
undo,25,24,0,0,0,23,"[0, 16, 22, 8, 15, 28, 23]",7,3,"[9, 11, 27]",83.72198273,7349,555,3,1,9,1.2275650852813986
undo,25,24,0,0,0,11,"[0, 16, 22, 8, 15, 28, 23, 11]",8,2,"[9, 27]",56.79615869,8351,1002,2,0,9,1.2107937989822568
undo,25,24,0,0,1,9,"[0, 16, 22, 8, 15, 28, 23, 11, 9]",9,0,[],24.5471277,9769,1418,1,0,9,1.2976612913524237
undo,25,24,0,1,1,9,"[0, 16, 22, 8, 15, 28, 23, 11, 9]",9,0,[],24.5471277,10945,1176,1,0,9,1.2976612913524237
undo,26,13,0,0,0,0,[0],1,29,"[1, 2, 3, 4, 5, 6, 7, 8, 9, 10, 11, 12, 13, 14, 15, 16, 17, 18, 19, 20, 21, 22, 23, 24, 25, 26, 27, 28, 29]",300,164,-1,60,2676,11,0.0
undo,26,13,0,0,0,24,"[0, 24]",2,28,"[1, 2, 3, 4, 5, 6, 7, 8, 9, 10, 11, 12, 13, 14, 15, 16, 17, 18, 19, 20, 21, 22, 23, 25, 26, 27, 28, 29]",288.8196601,2288,2124,16,1444,11,1.0
undo,26,13,0,0,0,28,"[0, 24, 28]",3,23,"[1, 2, 3, 4, 6, 7, 8, 9, 10, 11, 12, 13, 15, 16, 17, 19, 20, 21, 22, 23, 26, 27, 29]",222.5324064,4868,2580,8,243,11,1.0513810491680837
undo,26,13,0,0,0,2,"[0, 24, 28, 2]",4,19,"[1, 3, 4, 6, 7, 9, 11, 12, 13, 15, 16, 17, 19, 20, 21, 23, 26, 27, 29]",184.889346,5768,900,7,110,11,1.050374132001543
undo,26,13,0,0,0,29,"[0, 24, 28, 2, 29]",5,18,"[1, 3, 4, 6, 7, 9, 11, 12, 13, 15, 16, 17, 19, 20, 21, 23, 26, 27]",173.1846461,6717,949,7,85,11,1.1393409619120594
undo,26,13,0,0,0,7,"[0, 24, 28, 2, 29, 7]",6,17,"[1, 3, 4, 6, 9, 11, 12, 13, 15, 16, 17, 19, 20, 21, 23, 26, 27]",157.9203086,7345,628,5,45,11,1.349777315111579
undo,26,13,0,0,0,26,"[0, 24, 28, 2, 29, 7, 26]",7,16,"[1, 3, 4, 6, 9, 11, 12, 13, 15, 16, 17, 19, 20, 21, 23, 27]",147.480002,8025,680,5,25,11,1.5942082773824946
undo,26,13,0,0,0,6,"[0, 24, 28, 2, 29, 7, 26, 6]",8,12,"[1, 3, 4, 11, 13, 15, 16, 17, 19, 20, 23, 27]",127.3802508,9018,993,4,12,11,1.5898347940840756
undo,26,13,0,0,0,11,"[0, 24, 28, 2, 29, 7, 26, 6, 11]",9,6,"[1, 13, 15, 16, 17, 23]",108.2752776,9588,570,3,4,11,1.5029953945561012
undo,26,13,0,0,0,13,"[0, 24, 28, 2, 29, 7, 26, 6, 11, 13]",10,2,"[15, 17]",52.19497806,10736,1148,2,0,11,1.3655915863754327
undo,26,13,0,0,1,15,"[0, 24, 28, 2, 29, 7, 26, 6, 11, 13, 15]",11,0,[],12.38291958,11507,771,1,0,11,1.3653085520078876
undo,26,13,0,1,1,15,"[0, 24, 28, 2, 29, 7, 26, 6, 11, 13, 15]",11,0,[],12.38291958,14545,3038,1,0,11,1.3653085520078876
undo,27,8,0,0,0,0,[0],1,29,"[1, 2, 3, 4, 5, 6, 7, 8, 9, 10, 11, 12, 13, 14, 15, 16, 17, 18, 19, 20, 21, 22, 23, 24, 25, 26, 27, 28, 29]",300,133,-1,10,149,9,0.0
undo,27,8,0,0,0,5,"[0, 5]",2,28,"[1, 2, 3, 4, 6, 7, 8, 9, 10, 11, 12, 13, 14, 15, 16, 17, 18, 19, 20, 21, 22, 23, 24, 25, 26, 27, 28, 29]",254.5137383,2811,2678,10,100,9,1.0
undo,27,8,0,0,0,14,"[0, 5, 14]",3,20,"[1, 2, 3, 4, 6, 7, 11, 15, 16, 17, 18, 19, 20, 21, 22, 23, 24, 25, 28, 29]",214.5512559,6526,3715,4,36,9,1.0001019035932595
undo,27,8,0,0,0,17,"[0, 5, 14, 17]",4,15,"[1, 4, 6, 7, 11, 15, 16, 18, 19, 20, 22, 23, 24, 25, 28]",177.5377449,7444,918,4,16,9,1.121197267659591
undo,27,8,0,0,0,11,"[0, 5, 14, 17, 11]",5,11,"[1, 4, 15, 16, 18, 19, 22, 23, 24, 25, 28]",152.3583883,8170,726,4,8,9,1.1277254166016362
undo,27,8,0,0,0,24,"[0, 5, 14, 17, 11, 24]",6,3,"[15, 16, 28]",115.1428001,9303,1133,2,2,9,1.1227411011978805
undo,27,8,0,0,0,15,"[0, 5, 14, 17, 11, 24, 15]",7,2,"[16, 28]",98.37974552,10324,1021,2,0,9,1.1956385406066814
undo,27,8,0,0,0,16,"[0, 5, 14, 17, 11, 24, 15, 16]",8,1,[28],47.30137436,11378,1054,1,0,9,1.36482239111247
undo,27,8,0,0,1,28,"[0, 5, 14, 17, 11, 24, 15, 16, 28]",9,0,[],24.94069458,12088,710,1,0,9,1.632953105226947
undo,27,8,0,1,1,28,"[0, 5, 14, 17, 11, 24, 15, 16, 28]",9,0,[],24.94069458,13648,1560,1,0,9,1.632953105226947
undo,28,11,0,0,0,0,[0],1,25,"[1, 2, 3, 4, 5, 6, 8, 9, 10, 11, 12, 13, 14, 15, 16, 17, 18, 19, 20, 22, 23, 25, 26, 27, 28]",300,165,-1,6,374,12,0.0
undo,28,11,0,0,0,8,"[0, 8]",2,19,"[1, 2, 4, 5, 6, 10, 11, 12, 14, 15, 17, 18, 19, 22, 23, 25, 26, 27, 28]",154.7932508,7838,7673,181,767,9,1.0
undo,28,11,0,0,0,17,"[0, 8, 17]",3,15,"[1, 2, 4, 5, 6, 11, 12, 15, 18, 19, 22, 23, 25, 27, 28]",140.4754298,8503,665,86,201,9,1.0846240899450907
undo,28,11,0,0,0,15,"[0, 8, 17, 15]",4,13,"[1, 2, 5, 6, 11, 12, 18, 19, 22, 23, 25, 27, 28]",127.8263191,9118,615,67,51,9,1.0975608447713743
undo,28,11,0,0,0,11,"[0, 8, 17, 15, 11]",5,9,"[2, 5, 6, 12, 19, 22, 25, 27, 28]",109.7155489,9669,551,25,3,9,1.0975838566653757
undo,28,11,0,0,0,22,"[0, 8, 17, 15, 11, 22]",6,4,"[2, 5, 19, 28]",76.29399893,10869,1200,6,0,9,1.186556370150659
undo,28,11,0,0,0,2,"[0, 8, 17, 15, 11, 22, 2]",7,2,"[5, 28]",66.24412331,11367,498,2,0,9,1.3096440796128315
undo,28,11,0,0,0,28,"[0, 8, 17, 15, 11, 22, 2, 28]",8,1,[5],55.6139775,12335,968,1,0,9,1.4142434934259551
undo,28,11,0,0,1,5,"[0, 8, 17, 15, 11, 22, 2, 28, 5]",9,0,[],37.72543368,13545,1210,1,0,9,1.6120830460198077
undo,28,11,0,1,1,5,"[0, 8, 17, 15, 11, 22, 2, 28, 5]",9,0,[],37.72543368,14979,1434,1,0,9,1.6120830460198077
undo,29,42,0,0,0,0,[0],1,29,"[1, 2, 3, 4, 5, 6, 7, 8, 9, 10, 11, 12, 13, 14, 15, 16, 17, 18, 19, 20, 21, 22, 23, 24, 25, 26, 27, 28, 29]",300,132,-1,16,302,9,0.0
undo,29,42,0,0,0,5,"[0, 5]",2,28,"[1, 2, 3, 4, 6, 7, 8, 9, 10, 11, 12, 13, 14, 15, 16, 17, 18, 19, 20, 21, 22, 23, 24, 25, 26, 27, 28, 29]",191.2939744,6514,6382,1,22,9,1.0
undo,29,42,0,0,0,4,"[0, 5, 4]",3,23,"[1, 2, 3, 6, 7, 8, 9, 10, 11, 13, 15, 17, 18, 19, 20, 21, 22, 23, 24, 25, 26, 27, 29]",171.4445412,7304,790,1,14,9,1.420957801478707
undo,29,42,0,0,0,22,"[0, 5, 4, 22]",4,20,"[1, 2, 3, 6, 7, 8, 9, 11, 15, 17, 18, 19, 20, 21, 23, 24, 25, 26, 27, 29]",160.2642013,7895,591,1,11,9,1.5771494659680896
undo,29,42,0,0,0,8,"[0, 5, 4, 22, 8]",5,14,"[1, 2, 3, 6, 7, 11, 15, 18, 19, 24, 25, 26, 27, 29]",138.1282577,9353,1458,1,10,9,1.5055393955524201
undo,29,42,0,0,0,1,"[0, 5, 4, 22, 8, 1]",6,5,"[2, 7, 19, 26, 27]",89.03650682,10076,723,1,7,9,1.3547259083637835
undo,29,42,0,0,0,7,"[0, 5, 4, 22, 8, 1, 7]",7,4,"[2, 19, 26, 27]",59.03650682,11056,980,1,3,9,1.3909715672447451
undo,29,42,0,0,0,26,"[0, 5, 4, 22, 8, 1, 7, 26]",8,1,[27],32.46584631,11970,914,1,0,9,1.3511825943939393
undo,29,42,0,0,1,27,"[0, 5, 4, 22, 8, 1, 7, 26, 27]",9,0,[],14.43808994,13271,1301,1,0,9,1.3391911688802078
undo,29,42,0,1,1,27,"[0, 5, 4, 22, 8, 1, 7, 26, 27]",9,0,[],14.43808994,14431,1160,1,0,9,1.3391911688802078
undo,30,43,0,0,0,0,[0],1,23,"[1, 2, 3, 4, 5, 6, 7, 9, 10, 11, 12, 14, 15, 16, 17, 19, 20, 21, 22, 23, 25, 27, 29]",300,160,-1,16,556,12,0.0
undo,30,43,0,0,0,25,"[0, 25]",2,19,"[1, 2, 3, 4, 5, 6, 7, 9, 11, 12, 14, 15, 16, 19, 20, 21, 22, 23, 29]",220.6904798,5551,5391,8,323,10,1.0
undo,30,43,0,0,0,12,"[0, 25, 12]",3,17,"[1, 2, 3, 4, 5, 6, 7, 9, 11, 14, 15, 16, 19, 20, 22, 23, 29]",196.5037065,6950,1399,141,752,9,1.046913613931499
undo,30,43,0,0,0,3,"[0, 25, 12, 3]",4,16,"[1, 2, 4, 5, 6, 7, 9, 11, 14, 15, 16, 19, 20, 22, 23, 29]",183.5037065,7732,782,96,343,9,1.04574601215448
undo,30,43,0,0,0,19,"[0, 25, 12, 3, 19]",5,13,"[1, 4, 6, 7, 9, 11, 14, 15, 16, 20, 22, 23, 29]",142.3940969,9698,1966,24,73,9,1.134472114623525
undo,30,43,0,0,0,1,"[0, 25, 12, 3, 19, 1]",6,9,"[4, 6, 7, 11, 14, 15, 16, 20, 22]",114.2160913,10768,1070,7,18,9,1.2906017838866746
undo,30,43,0,0,0,22,"[0, 25, 12, 3, 19, 1, 22]",7,6,"[6, 7, 11, 14, 15, 16]",82.83138168,11734,966,4,4,9,1.8208364169123359
undo,30,43,0,0,1,15,"[0, 25, 12, 3, 19, 1, 22, 15]",8,0,[],40.72437513,12567,833,1,0,8,3.135888861920911
undo,30,43,1,0,0,22,"[0, 25, 12, 3, 19, 1, 22]",7,6,"[6, 7, 11, 14, 15, 16]",82.83138168,16925,4358,4,4,9,1.8208364169123359
undo,30,43,1,0,0,1,"[0, 25, 12, 3, 19, 1]",6,9,"[4, 6, 7, 11, 14, 15, 16, 20, 22]",114.2160913,17091,166,7,18,9,1.2906017838866746
undo,30,43,1,0,0,19,"[0, 25, 12, 3, 19]",5,13,"[1, 4, 6, 7, 9, 11, 14, 15, 16, 20, 22, 23, 29]",142.3940969,17225,134,24,73,9,1.134472114623525
undo,30,43,1,0,0,3,"[0, 25, 12, 3]",4,16,"[1, 2, 4, 5, 6, 7, 9, 11, 14, 15, 16, 19, 20, 22, 23, 29]",183.5037065,17375,150,96,343,9,1.04574601215448
undo,30,43,1,0,0,12,"[0, 25, 12]",3,17,"[1, 2, 3, 4, 5, 6, 7, 9, 11, 14, 15, 16, 19, 20, 22, 23, 29]",196.5037065,17691,316,141,752,9,1.046913613931499
undo,30,43,1,0,0,25,"[0, 25]",2,19,"[1, 2, 3, 4, 5, 6, 7, 9, 11, 12, 14, 15, 16, 19, 20, 21, 22, 23, 29]",220.6904798,18008,317,8,323,10,1.0
undo,30,43,1,0,0,0,[0],1,23,"[1, 2, 3, 4, 5, 6, 7, 9, 10, 11, 12, 14, 15, 16, 17, 19, 20, 21, 22, 23, 25, 27, 29]",300,18342,334,16,556,12,0.0
undo,30,43,0,0,0,29,"[0, 29]",2,22,"[1, 2, 3, 4, 5, 6, 7, 9, 10, 11, 12, 14, 15, 16, 17, 19, 20, 21, 22, 23, 25, 27]",277.909278,20819,2477,16,520,12,1.0
undo,30,43,0,0,0,20,"[0, 29, 20]",3,20,"[1, 2, 3, 4, 6, 7, 9, 10, 11, 12, 14, 15, 16, 17, 19, 21, 22, 23, 25, 27]",254.4785289,21460,641,15,422,12,1.082311746871282
undo,30,43,0,0,0,16,"[0, 29, 20, 16]",4,19,"[1, 2, 3, 4, 6, 7, 9, 10, 11, 12, 14, 15, 17, 19, 21, 22, 23, 25, 27]",231.8511119,22130,670,15,389,12,1.215201926898219
undo,30,43,0,0,0,11,"[0, 29, 20, 16, 11]",5,17,"[1, 2, 3, 4, 6, 7, 9, 10, 12, 14, 15, 17, 19, 21, 22, 23, 25]",196.7227758,22838,708,12,188,12,1.1349145516483516
undo,30,43,0,0,0,6,"[0, 29, 20, 16, 11, 6]",6,15,"[1, 2, 3, 4, 7, 10, 12, 14, 15, 17, 19, 21, 22, 23, 25]",176.1072477,23317,479,10,100,12,1.123330873754209
undo,30,43,0,0,0,19,"[0, 29, 20, 16, 11, 6, 19]",7,10,"[1, 3, 4, 7, 12, 14, 15, 22, 23, 25]",111.5471981,24780,1463,1,15,12,1.356512950803435
undo,30,43,0,0,0,22,"[0, 29, 20, 16, 11, 6, 19, 22]",8,7,"[1, 3, 7, 12, 14, 15, 25]",90.93166998,25555,775,1,12,12,1.7529200667590386
undo,30,43,0,0,0,3,"[0, 29, 20, 16, 11, 6, 19, 22, 3]",9,3,"[12, 15, 25]",56.21856006,26269,714,1,3,12,2.188339740221279
undo,30,43,0,0,0,12,"[0, 29, 20, 16, 11, 6, 19, 22, 3, 12]",10,2,"[15, 25]",43.21856006,27048,779,1,1,12,2.5974648577933808
undo,30,43,0,0,0,15,"[0, 29, 20, 16, 11, 6, 19, 22, 3, 12, 15]",11,1,[25],23.90535215,27846,798,1,0,12,3.339311713019308
undo,30,43,0,0,1,25,"[0, 29, 20, 16, 11, 6, 19, 22, 3, 12, 15, 25]",12,0,[],1.233784048,28702,856,1,0,12,3.7670914546513212
undo,30,43,0,1,1,25,"[0, 29, 20, 16, 11, 6, 19, 22, 3, 12, 15, 25]",12,0,[],1.233784048,31107,2405,1,0,12,3.7670914546513212
undo,31,39,0,0,0,0,[0],1,28,"[1, 2, 3, 4, 5, 6, 7, 9, 10, 11, 12, 13, 14, 15, 16, 17, 18, 19, 20, 21, 22, 23, 24, 25, 26, 27, 28, 29]",300,149,-1,1,30,10,0.0
undo,31,39,0,0,0,29,"[0, 29]",2,26,"[1, 2, 3, 4, 5, 6, 7, 9, 10, 12, 13, 14, 15, 16, 17, 18, 19, 20, 21, 22, 23, 24, 25, 26, 27, 28]",243.0614366,4284,4135,8,104,9,1.0
undo,31,39,0,0,0,12,"[0, 29, 12]",3,18,"[1, 2, 4, 5, 7, 9, 10, 13, 14, 15, 16, 18, 19, 22, 23, 24, 26, 28]",182.5221931,5202,918,5,54,9,1.0026200331524904
undo,31,39,0,0,0,10,"[0, 29, 12, 10]",4,16,"[1, 2, 4, 5, 7, 9, 13, 14, 15, 16, 18, 19, 22, 23, 24, 26]",147.0116313,5929,727,5,34,9,1.2874817019928908
undo,31,39,0,0,0,7,"[0, 29, 12, 10, 7]",5,10,"[1, 2, 5, 13, 16, 18, 19, 22, 24, 26]",113.5900814,6869,940,4,12,9,1.2250826263866774
undo,31,39,0,0,0,26,"[0, 29, 12, 10, 7, 26]",6,5,"[1, 16, 18, 19, 22]",94.90853971,7371,502,3,4,9,1.2697275353190085
undo,31,39,0,0,0,22,"[0, 29, 12, 10, 7, 26, 22]",7,2,"[16, 19]",77.18849457,8550,1179,2,0,9,1.438961743955176
undo,31,39,0,0,0,16,"[0, 29, 12, 10, 7, 26, 22, 16]",8,1,[19],42.18849457,9688,1138,1,0,9,1.3580882130477205
undo,31,39,0,0,1,19,"[0, 29, 12, 10, 7, 26, 22, 16, 19]",9,0,[],24.72424537,10609,921,1,0,9,1.3646589157842668
undo,31,39,1,0,0,16,"[0, 29, 12, 10, 7, 26, 22, 16]",8,1,[19],42.18849457,13895,3286,1,0,9,1.3580882130477205
undo,31,39,1,0,0,22,"[0, 29, 12, 10, 7, 26, 22]",7,2,"[16, 19]",77.18849457,14045,150,2,0,9,1.438961743955176
undo,31,39,1,0,0,26,"[0, 29, 12, 10, 7, 26]",6,5,"[1, 16, 18, 19, 22]",94.90853971,14195,150,3,4,9,1.2697275353190085
undo,31,39,1,0,0,7,"[0, 29, 12, 10, 7]",5,10,"[1, 2, 5, 13, 16, 18, 19, 22, 24, 26]",113.5900814,14345,150,4,12,9,1.2250826263866774
undo,31,39,1,0,0,10,"[0, 29, 12, 10]",4,16,"[1, 2, 4, 5, 7, 9, 13, 14, 15, 16, 18, 19, 22, 23, 24, 26]",147.0116313,14478,133,5,34,9,1.2874817019928908
undo,31,39,1,0,0,12,"[0, 29, 12]",3,18,"[1, 2, 4, 5, 7, 9, 10, 13, 14, 15, 16, 18, 19, 22, 23, 24, 26, 28]",182.5221931,14778,300,5,54,9,1.0026200331524904
undo,31,39,1,0,0,29,"[0, 29]",2,26,"[1, 2, 3, 4, 5, 6, 7, 9, 10, 12, 13, 14, 15, 16, 17, 18, 19, 20, 21, 22, 23, 24, 25, 26, 27, 28]",243.0614366,15028,250,8,104,9,1.0
undo,31,39,0,0,0,10,"[0, 29, 10]",3,19,"[1, 2, 4, 5, 7, 9, 12, 13, 14, 15, 16, 17, 18, 19, 22, 23, 24, 26, 28]",178.4239862,20050,5022,3,48,9,1.0231293692376968
undo,31,39,0,0,0,7,"[0, 29, 10, 7]",4,14,"[1, 2, 4, 5, 9, 12, 13, 15, 16, 18, 19, 22, 24, 26]",145.0024362,20823,773,2,20,9,1.0186411966151707
undo,31,39,0,0,0,26,"[0, 29, 10, 7, 26]",5,9,"[1, 2, 5, 12, 13, 16, 18, 19, 22]",126.3208945,21889,1066,1,9,9,1.0752526811750318
undo,31,39,0,0,0,22,"[0, 29, 10, 7, 26, 22]",6,6,"[1, 5, 12, 16, 18, 19]",108.6008494,22355,466,1,3,9,1.2360944063790367
undo,31,39,0,0,0,16,"[0, 29, 10, 7, 26, 22, 16]",7,2,"[18, 19]",73.6008494,23614,1259,1,1,9,1.1926155792040818
undo,31,39,0,0,0,19,"[0, 29, 10, 7, 26, 22, 16, 19]",8,1,[18],56.1366002,24653,1039,1,0,9,1.2089345217410772
undo,31,39,0,0,1,18,"[0, 29, 10, 7, 26, 22, 16, 19, 18]",9,0,[],12.96253391,25715,1062,1,0,9,1.2243548998729528
undo,31,39,0,1,1,18,"[0, 29, 10, 7, 26, 22, 16, 19, 18]",9,0,[],12.96253391,27094,1379,1,0,9,1.2243548998729528
undo,32,5,0,0,0,0,[0],1,29,"[1, 2, 3, 4, 5, 6, 7, 8, 9, 10, 11, 12, 13, 14, 15, 16, 17, 18, 19, 20, 21, 22, 23, 24, 25, 26, 27, 28, 29]",300,180,-1,5,139,9,0.0
undo,32,5,0,0,0,12,"[0, 12]",2,22,"[2, 4, 5, 6, 8, 9, 10, 13, 14, 15, 16, 17, 18, 19, 21, 22, 23, 24, 25, 26, 27, 28]",228.3062067,4850,4670,1,27,9,1.0
undo,32,5,0,0,0,25,"[0, 12, 25]",3,21,"[2, 4, 5, 6, 8, 9, 10, 13, 14, 15, 16, 17, 18, 19, 21, 22, 23, 24, 26, 27, 28]",200.5213187,5919,1069,1,20,9,1.584023303445617
undo,32,5,0,0,0,23,"[0, 12, 25, 23]",4,19,"[2, 4, 5, 6, 8, 9, 10, 13, 14, 15, 16, 17, 18, 19, 21, 22, 24, 26, 27]",182.0822298,6771,852,1,14,9,2.3508446989254357
undo,32,5,0,0,0,24,"[0, 12, 25, 23, 24]",5,15,"[2, 4, 5, 6, 8, 9, 13, 14, 15, 17, 18, 19, 22, 26, 27]",158.995437,8194,1423,1,12,9,1.9469752046288753
undo,32,5,0,0,0,17,"[0, 12, 25, 23, 24, 17]",6,7,"[4, 5, 6, 8, 15, 18, 19]",124.0097257,8906,712,1,8,9,1.6482276497563642
undo,32,5,0,0,0,5,"[0, 12, 25, 23, 24, 17, 5]",7,4,"[4, 6, 15, 18]",80.96323916,9510,604,1,3,9,1.4654649104389412
undo,32,5,0,0,1,15,"[0, 12, 25, 23, 24, 17, 5, 15]",8,0,[],40.93824697,10287,777,1,0,8,1.4660376450939663
undo,32,5,1,0,0,5,"[0, 12, 25, 23, 24, 17, 5]",7,4,"[4, 6, 15, 18]",80.96323916,12312,2025,1,3,9,1.4654649104389412
undo,32,5,1,0,0,17,"[0, 12, 25, 23, 24, 17]",6,7,"[4, 5, 6, 8, 15, 18, 19]",124.0097257,12445,133,1,8,9,1.6482276497563642
undo,32,5,1,0,0,24,"[0, 12, 25, 23, 24]",5,15,"[2, 4, 5, 6, 8, 9, 13, 14, 15, 17, 18, 19, 22, 26, 27]",158.995437,12595,150,1,12,9,1.9469752046288753
undo,32,5,1,0,0,23,"[0, 12, 25, 23]",4,19,"[2, 4, 5, 6, 8, 9, 10, 13, 14, 15, 16, 17, 18, 19, 21, 22, 24, 26, 27]",182.0822298,12744,149,1,14,9,2.3508446989254357
undo,32,5,1,0,0,25,"[0, 12, 25]",3,21,"[2, 4, 5, 6, 8, 9, 10, 13, 14, 15, 16, 17, 18, 19, 21, 22, 23, 24, 26, 27, 28]",200.5213187,13061,317,1,20,9,1.584023303445617
undo,32,5,1,0,0,12,"[0, 12]",2,22,"[2, 4, 5, 6, 8, 9, 10, 13, 14, 15, 16, 17, 18, 19, 21, 22, 23, 24, 25, 26, 27, 28]",228.3062067,13378,317,1,27,9,1.0
undo,32,5,1,0,0,0,[0],1,29,"[1, 2, 3, 4, 5, 6, 7, 8, 9, 10, 11, 12, 13, 14, 15, 16, 17, 18, 19, 20, 21, 22, 23, 24, 25, 26, 27, 28, 29]",300,14278,900,5,139,9,0.0
undo,32,5,0,0,0,23,"[0, 23]",2,27,"[1, 2, 3, 4, 5, 6, 7, 8, 9, 10, 11, 12, 13, 14, 15, 16, 17, 18, 19, 20, 21, 22, 24, 25, 26, 27, 28]",249.8402552,15869,1591,3,75,9,1.0
undo,32,5,0,0,0,25,"[0, 23, 25]",3,23,"[1, 2, 3, 4, 5, 6, 8, 9, 10, 12, 13, 14, 15, 16, 17, 18, 19, 21, 22, 24, 26, 27, 28]",231.4011663,18554,2685,3,43,9,1.0923159590575564
undo,32,5,0,0,0,24,"[0, 23, 25, 24]",4,21,"[2, 3, 4, 5, 6, 8, 9, 10, 12, 13, 14, 15, 16, 17, 18, 19, 21, 22, 26, 27, 28]",206.5616816,19270,716,3,25,9,1.2901858295679272
undo,32,5,0,0,0,17,"[0, 23, 25, 24, 17]",5,13,"[4, 5, 6, 8, 12, 13, 14, 15, 18, 19, 22, 26, 27]",171.5759702,19898,628,3,14,9,1.2027484907982513
undo,32,5,0,0,0,5,"[0, 23, 25, 24, 17, 5]",6,7,"[4, 6, 8, 12, 15, 18, 19]",128.5294837,20886,988,3,4,9,1.1472230681682432
undo,32,5,0,0,0,15,"[0, 23, 25, 24, 17, 5, 15]",7,1,[18],88.50449151,21883,997,1,0,8,1.196858948062182
undo,32,5,0,0,1,18,"[0, 23, 25, 24, 17, 5, 15, 18]",8,0,[],6.285272347,23054,1171,1,0,8,1.4484003110079315
undo,32,5,0,1,1,18,"[0, 23, 25, 24, 17, 5, 15, 18]",8,0,[],6.285272347,24494,1440,1,0,8,1.4484003110079315
undo,33,20,0,0,0,0,[0],1,21,"[1, 2, 3, 4, 5, 6, 7, 8, 9, 12, 17, 18, 20, 21, 22, 23, 25, 26, 27, 28, 29]",300,163,-1,1,9,9,0.0
undo,33,20,0,0,0,12,"[0, 12]",2,20,"[1, 2, 3, 4, 5, 6, 7, 8, 9, 17, 18, 20, 21, 22, 23, 25, 26, 27, 28, 29]",271.5570747,9812,9649,1,8,9,1.0
undo,33,20,0,0,0,29,"[0, 12, 29]",3,13,"[1, 3, 4, 5, 7, 8, 17, 18, 20, 21, 25, 27, 28]",218.4722369,10368,556,13,25,6,1.5064191946670615
undo,33,20,0,0,0,3,"[0, 12, 29, 3]",4,6,"[4, 7, 17, 18, 20, 25]",97.6417772,12274,1906,6,3,6,1.2130314369296327
undo,33,20,0,0,0,17,"[0, 12, 29, 3, 17]",5,3,"[7, 18, 25]",58.52656277,13044,770,3,0,6,1.1853893298844387
undo,33,20,0,0,1,25,"[0, 12, 29, 3, 17, 25]",6,0,[],34.44337361,13885,841,1,0,6,1.1669578034389294
undo,33,20,1,0,0,17,"[0, 12, 29, 3, 17]",5,3,"[7, 18, 25]",58.52656277,17261,3376,3,0,6,1.1853893298844387
undo,33,20,1,0,0,3,"[0, 12, 29, 3]",4,6,"[4, 7, 17, 18, 20, 25]",97.6417772,17429,168,6,3,6,1.2130314369296327
undo,33,20,1,0,0,29,"[0, 12, 29]",3,13,"[1, 3, 4, 5, 7, 8, 17, 18, 20, 21, 25, 27, 28]",218.4722369,17562,133,13,25,6,1.5064191946670615
undo,33,20,1,0,0,12,"[0, 12]",2,20,"[1, 2, 3, 4, 5, 6, 7, 8, 9, 17, 18, 20, 21, 22, 23, 25, 26, 27, 28, 29]",271.5570747,17779,217,1,8,9,1.0
undo,33,20,1,0,0,0,[0],1,21,"[1, 2, 3, 4, 5, 6, 7, 8, 9, 12, 17, 18, 20, 21, 22, 23, 25, 26, 27, 28, 29]",300,18327,548,1,9,9,0.0
undo,33,20,0,0,0,1,"[0, 1]",2,14,"[3, 4, 5, 6, 8, 9, 12, 20, 21, 23, 26, 27, 28, 29]",197.3501096,20608,2281,1,9,8,1.0
undo,33,20,1,0,0,0,[0],1,21,"[1, 2, 3, 4, 5, 6, 7, 8, 9, 12, 17, 18, 20, 21, 22, 23, 25, 26, 27, 28, 29]",300,29193,8585,1,9,9,0.0
undo,33,20,0,0,0,29,"[0, 29]",2,16,"[1, 3, 4, 5, 7, 8, 12, 17, 18, 20, 21, 22, 23, 25, 27, 28]",245.8797635,31897,2704,1,18,7,1.0
undo,33,20,0,0,0,3,"[0, 29, 3]",3,7,"[4, 7, 17, 18, 20, 22, 25]",125.0493038,33808,1911,4,9,6,1.0487376864001872
undo,33,20,0,0,0,17,"[0, 29, 3, 17]",4,3,"[7, 18, 25]",85.93408932,35787,1979,3,1,6,1.050846210344754
undo,33,20,0,0,0,25,"[0, 29, 3, 17, 25]",5,2,"[7, 18]",61.85090016,36398,611,2,0,6,1.0465186059115783
undo,33,20,0,0,1,7,"[0, 29, 3, 17, 25, 7]",6,0,[],24.36757054,37096,698,1,0,6,1.2128166489656087
undo,33,20,0,1,1,7,"[0, 29, 3, 17, 25, 7]",6,0,[],24.36757054,38459,1363,1,0,6,1.2128166489656087
undo,34,14,0,0,0,0,[0],1,29,"[1, 2, 3, 4, 5, 6, 7, 8, 9, 10, 11, 12, 13, 14, 15, 16, 17, 18, 19, 20, 21, 22, 23, 24, 25, 26, 27, 28, 29]",300,162,-1,8,157,10,0.0
undo,34,14,0,0,0,18,"[0, 18]",2,17,"[1, 2, 3, 4, 7, 8, 9, 13, 15, 17, 19, 20, 22, 23, 25, 26, 28]",179.8958785,2223,2061,18,136,9,1.0
undo,34,14,0,0,0,8,"[0, 18, 8]",3,13,"[1, 2, 4, 7, 13, 15, 17, 19, 20, 23, 25, 26, 28]",166.294408,2860,637,18,99,9,1.0203858410107731
undo,34,14,0,0,0,1,"[0, 18, 8, 1]",4,10,"[2, 4, 7, 15, 17, 19, 23, 25, 26, 28]",142.6935606,5003,2143,11,42,9,1.0173392374431458
undo,34,14,0,0,0,19,"[0, 18, 8, 1, 19]",5,9,"[2, 4, 7, 15, 17, 23, 25, 26, 28]",127.4620143,5477,474,11,22,9,1.1668364376922102
undo,34,14,0,0,0,25,"[0, 18, 8, 1, 19, 25]",6,5,"[2, 4, 7, 23, 26]",91.61511768,6842,1365,5,7,9,1.273103293863789
undo,34,14,0,0,0,23,"[0, 18, 8, 1, 19, 25, 23]",7,3,"[4, 7, 26]",62.20423534,7641,799,2,2,9,1.2650679654635444
undo,34,14,0,0,0,26,"[0, 18, 8, 1, 19, 25, 23, 26]",8,2,"[4, 7]",51.38758152,8210,569,2,0,9,1.2530957004441798
undo,34,14,0,0,1,7,"[0, 18, 8, 1, 19, 25, 23, 26, 7]",9,0,[],6.287692383,10292,2082,1,0,9,1.6817917810897667
undo,34,14,0,1,1,7,"[0, 18, 8, 1, 19, 25, 23, 26, 7]",9,0,[],6.287692383,11744,1452,1,0,9,1.6817917810897667
undo,35,3,0,0,0,0,[0],1,29,"[1, 2, 3, 4, 5, 6, 7, 8, 9, 10, 11, 12, 13, 14, 15, 16, 17, 18, 19, 20, 21, 22, 23, 24, 25, 26, 27, 28, 29]",300,132,-1,34,427,10,0.0
undo,35,3,0,0,0,17,"[0, 17]",2,16,"[3, 4, 7, 8, 10, 12, 14, 15, 16, 19, 20, 21, 22, 24, 26, 27]",197.6965299,1970,1838,2,27,9,1.0
undo,35,3,0,0,0,20,"[0, 17, 20]",3,13,"[3, 4, 7, 8, 10, 14, 15, 16, 19, 21, 22, 24, 27]",185.0474192,2422,452,2,24,9,1.0153332121237257
undo,35,3,0,0,0,3,"[0, 17, 20, 3]",4,10,"[4, 7, 8, 10, 14, 15, 16, 19, 21, 24]",164.6513412,3430,1008,2,22,9,1.0819240770773468
undo,35,3,0,0,0,19,"[0, 17, 20, 3, 19]",5,6,"[4, 8, 10, 14, 21, 24]",127.3150318,4151,721,2,11,9,1.1701070532957258
undo,35,3,0,0,0,21,"[0, 17, 20, 3, 19, 21]",6,5,"[4, 8, 10, 14, 24]",115.1084762,4734,583,2,6,9,1.202395500952127
undo,35,3,0,0,0,14,"[0, 17, 20, 3, 19, 21, 14]",7,4,"[4, 8, 10, 24]",88.20122806,5432,698,2,2,9,1.6456130302761207
undo,35,3,0,0,1,10,"[0, 17, 20, 3, 19, 21, 14, 10]",8,0,[],42.74795535,6273,841,1,0,8,1.6337827075255185
undo,35,3,0,1,1,10,"[0, 17, 20, 3, 19, 21, 14, 10]",8,0,[],42.74795535,7898,1625,1,0,8,1.6337827075255185
undo,36,6,0,0,0,0,[0],1,29,"[1, 2, 3, 4, 5, 6, 7, 8, 9, 10, 11, 12, 13, 14, 15, 16, 17, 18, 19, 20, 21, 22, 23, 24, 25, 26, 27, 28, 29]",300,181,-1,180,4304,10,0.0
undo,36,6,0,0,0,3,"[0, 3]",2,28,"[1, 2, 4, 5, 6, 7, 8, 9, 10, 11, 12, 13, 14, 15, 16, 17, 18, 19, 20, 21, 22, 23, 24, 25, 26, 27, 28, 29]",266.4738908,2142,1961,90,1607,10,1.0
undo,36,6,0,0,0,18,"[0, 3, 18]",3,27,"[1, 2, 4, 5, 6, 7, 8, 9, 10, 11, 12, 13, 14, 15, 16, 17, 19, 20, 21, 22, 23, 24, 25, 26, 27, 28, 29]",237.4738908,3221,1079,34,516,10,1.0266750028725786
undo,36,6,0,0,0,16,"[0, 3, 18, 16]",4,26,"[1, 2, 4, 5, 6, 7, 8, 9, 10, 11, 12, 13, 14, 15, 17, 19, 20, 21, 22, 23, 24, 25, 26, 27, 28, 29]",214.1286557,4374,1153,9,128,10,1.1896779166934912
undo,36,6,0,0,0,17,"[0, 3, 18, 16, 17]",5,20,"[1, 2, 4, 5, 6, 7, 8, 9, 10, 11, 13, 14, 20, 21, 22, 23, 24, 26, 27, 29]",181.371977,5125,751,7,56,10,1.6808502452198881
undo,36,6,0,0,0,10,"[0, 3, 18, 16, 17, 10]",6,17,"[1, 2, 4, 5, 6, 7, 8, 11, 13, 14, 21, 22, 23, 24, 26, 27, 29]",161.6488941,5689,564,5,34,10,1.6403091389655098
undo,36,6,0,0,0,24,"[0, 3, 18, 16, 17, 10, 24]",7,15,"[1, 2, 4, 5, 6, 7, 8, 11, 13, 14, 22, 23, 26, 27, 29]",148.2324862,7589,1900,5,19,10,1.5598957314883892
undo,36,6,0,0,0,7,"[0, 3, 18, 16, 17, 10, 24, 7]",8,2,"[2, 26]",77.29589481,9372,1783,2,0,10,4.637656423045237
undo,36,6,0,0,0,26,"[0, 3, 18, 16, 17, 10, 24, 7, 26]",9,1,[2],53.21270565,10118,746,1,0,10,4.961613710416797
undo,36,6,0,0,1,2,"[0, 3, 18, 16, 17, 10, 24, 7, 26, 2]",10,0,[],23.37983787,10986,868,1,0,10,3.4873013230310383
undo,36,6,0,1,1,2,"[0, 3, 18, 16, 17, 10, 24, 7, 26, 2]",10,0,[],23.37983787,12613,1627,1,0,10,3.4873013230310383
undo,37,34,0,0,0,0,[0],1,25,"[1, 3, 4, 5, 6, 7, 8, 9, 10, 11, 12, 13, 15, 18, 19, 20, 21, 22, 23, 24, 25, 26, 27, 28, 29]",300,169,-1,12,367,10,0.0
undo,37,34,0,0,0,13,"[0, 13]",2,24,"[1, 3, 4, 5, 6, 7, 8, 9, 10, 11, 12, 15, 18, 19, 20, 21, 22, 23, 24, 25, 26, 27, 28, 29]",279.9750156,2607,2438,12,331,10,1.0
undo,37,34,0,0,0,1,"[0, 13, 1]",3,16,"[3, 5, 7, 8, 9, 10, 11, 12, 19, 21, 22, 23, 24, 25, 27, 29]",211.8574701,3444,837,3,92,10,1.0010381285747127
undo,37,34,0,0,0,8,"[0, 13, 1, 8]",4,14,"[3, 5, 7, 9, 10, 11, 12, 19, 22, 23, 24, 25, 27, 29]",201.0871405,3921,477,2,54,10,1.1636807
undo,37,34,0,0,0,25,"[0, 13, 1, 8, 25]",5,12,"[3, 5, 7, 9, 10, 11, 12, 22, 23, 24, 27, 29]",183.999133,5204,1283,2,28,10,1.1396208815936457
undo,37,34,0,0,0,24,"[0, 13, 1, 8, 25, 24]",6,11,"[3, 5, 7, 9, 10, 11, 12, 22, 23, 27, 29]",166.5062774,6054,850,2,23,10,1.374180768736554
undo,37,34,0,0,0,12,"[0, 13, 1, 8, 25, 24, 12]",7,7,"[7, 9, 10, 11, 22, 23, 27]",115.4670767,7093,1039,1,8,10,1.4994254760835948
undo,37,34,0,0,0,7,"[0, 13, 1, 8, 25, 24, 12, 7]",8,5,"[9, 11, 22, 23, 27]",100.4337804,8486,1393,1,4,10,1.758992610425009
undo,37,34,0,0,0,23,"[0, 13, 1, 8, 25, 24, 12, 7, 23]",9,1,[27],72.27352467,9773,1287,1,0,10,2.399781305190153
undo,37,34,0,0,1,27,"[0, 13, 1, 8, 25, 24, 12, 7, 23, 27]",10,0,[],18.60789321,10855,1082,1,0,10,4.766619878750327
undo,37,34,0,1,1,27,"[0, 13, 1, 8, 25, 24, 12, 7, 23, 27]",10,0,[],18.60789321,12113,1258,1,0,10,4.766619878750327
undo,38,18,0,0,0,0,[0],1,28,"[1, 2, 3, 4, 5, 6, 7, 8, 9, 10, 11, 12, 13, 14, 16, 17, 18, 19, 20, 21, 22, 23, 24, 25, 26, 27, 28, 29]",300,168,-1,3,136,10,0.0
undo,38,18,0,0,0,28,"[0, 28]",2,16,"[1, 3, 5, 7, 8, 9, 12, 13, 14, 16, 20, 23, 24, 25, 26, 27]",236.4311397,2938,2770,2,19,10,1.0
undo,38,18,0,0,0,7,"[0, 28, 7]",3,15,"[1, 3, 5, 8, 9, 12, 13, 14, 16, 20, 23, 24, 25, 26, 27]",214.4084242,3624,686,2,17,10,1.4345180696367563
undo,38,18,0,0,0,25,"[0, 28, 7, 25]",4,13,"[1, 3, 5, 8, 9, 12, 13, 14, 16, 20, 23, 26, 27]",186.6055466,4325,701,2,15,10,1.8896451241781882
undo,38,18,0,0,0,8,"[0, 28, 7, 25, 8]",5,10,"[3, 5, 9, 12, 13, 14, 16, 23, 26, 27]",149.551532,6220,1895,2,10,10,1.590467437592877
undo,38,18,0,0,0,3,"[0, 28, 7, 25, 8, 3]",6,6,"[5, 12, 13, 14, 23, 27]",121.4801943,10460,4240,1,10,9,1.4587755974793148
undo,38,18,0,0,0,5,"[0, 28, 7, 25, 8, 3, 5]",7,2,"[12, 27]",63.29944145,11258,798,1,1,9,1.324334937860345
undo,38,18,0,0,0,12,"[0, 28, 7, 25, 8, 3, 5, 12]",8,1,[27],51.8976872,12286,1028,1,0,9,1.3371922112868397
undo,38,18,0,0,1,27,"[0, 28, 7, 25, 8, 3, 5, 12, 27]",9,0,[],11.17914106,13207,921,1,0,9,1.4648883530615529
undo,38,18,0,1,1,27,"[0, 28, 7, 25, 8, 3, 5, 12, 27]",9,0,[],11.17914106,14680,1473,1,0,9,1.4648883530615529
undo,39,33,0,0,0,0,[0],1,23,"[1, 2, 5, 7, 8, 11, 12, 13, 14, 15, 16, 17, 18, 19, 20, 21, 23, 24, 25, 26, 27, 28, 29]",300,164,-1,5,108,9,0.0
undo,39,33,0,0,0,21,"[0, 21]",2,17,"[2, 5, 7, 8, 11, 13, 14, 16, 17, 18, 19, 20, 24, 26, 27, 28, 29]",174.4611614,2453,2289,21,129,8,1.0
undo,39,33,0,0,0,13,"[0, 21, 13]",3,15,"[2, 5, 7, 8, 11, 14, 16, 17, 18, 19, 20, 24, 26, 28, 29]",148.0604038,4183,1730,17,72,8,1.0001005298764474
undo,39,33,0,0,0,19,"[0, 21, 13, 19]",4,11,"[7, 11, 14, 16, 17, 18, 20, 24, 26, 28, 29]",122.5653063,5060,877,10,27,8,1.0588446738393702
undo,39,33,0,0,0,24,"[0, 21, 13, 19, 24]",5,7,"[7, 14, 16, 18, 26, 28, 29]",80.51771417,7495,2435,3,5,8,1.078006777679028
undo,39,33,0,0,0,7,"[0, 21, 13, 19, 24, 7]",6,3,"[14, 26, 29]",51.31155044,8220,725,3,1,8,1.1669985062633954
undo,39,33,0,0,0,14,"[0, 21, 13, 19, 24, 7, 14]",7,2,"[26, 29]",36.44548169,8918,698,2,0,8,1.2148465775488593
undo,39,33,0,0,1,26,"[0, 21, 13, 19, 24, 7, 14, 26]",8,0,[],23.79637105,9476,558,1,0,8,1.2208379656544521
undo,39,33,0,1,1,26,"[0, 21, 13, 19, 24, 7, 14, 26]",8,0,[],23.79637105,11729,2253,1,0,8,1.2208379656544521
undo,40,4,0,0,0,0,[0],1,26,"[3, 4, 5, 6, 7, 8, 10, 11, 12, 13, 14, 15, 16, 17, 18, 19, 20, 21, 22, 23, 24, 25, 26, 27, 28, 29]",300,151,-1,4,489,10,0.0
undo,40,4,0,0,0,28,"[0, 28]",2,21,"[3, 4, 5, 6, 10, 11, 12, 13, 14, 15, 16, 17, 19, 20, 21, 22, 23, 24, 25, 26, 27]",225.9392142,4239,4088,2,216,10,1.0
undo,40,4,0,0,0,14,"[0, 28, 14]",3,13,"[3, 4, 5, 6, 11, 13, 16, 17, 20, 21, 22, 24, 25]",159.6972335,5221,982,1,26,10,1.0273973946789214
undo,40,4,0,0,0,25,"[0, 28, 14, 25]",4,12,"[3, 4, 5, 6, 11, 13, 16, 17, 20, 21, 22, 24]",143.572718,7727,2506,1,25,10,1.233547772313525
undo,40,4,0,0,0,11,"[0, 28, 14, 25, 11]",5,10,"[3, 4, 5, 6, 13, 16, 17, 20, 21, 22]",124.7844238,8304,577,1,15,10,1.425978575879479
undo,40,4,0,0,0,16,"[0, 28, 14, 25, 11, 16]",6,9,"[3, 4, 5, 6, 13, 17, 20, 21, 22]",109.7844238,8893,589,1,12,10,1.3799325158051412
undo,40,4,0,0,0,3,"[0, 28, 14, 25, 11, 16, 3]",7,2,"[17, 20]",68.15510719,10546,1653,1,1,9,1.3292844629725955
undo,40,4,0,0,0,17,"[0, 28, 14, 25, 11, 16, 3, 17]",8,1,[20],43.63980585,11390,844,1,0,9,1.5639571149270572
undo,40,4,0,0,1,20,"[0, 28, 14, 25, 11, 16, 3, 17, 20]",9,0,[],3.415435124,13070,1680,1,0,9,1.6231058358944275
undo,40,4,0,1,1,20,"[0, 28, 14, 25, 11, 16, 3, 17, 20]",9,0,[],3.415435124,14266,1196,1,0,9,1.6231058358944275
undo,41,22,0,0,0,0,[0],1,29,"[1, 2, 3, 4, 5, 6, 7, 8, 9, 10, 11, 12, 13, 14, 15, 16, 17, 18, 19, 20, 21, 22, 23, 24, 25, 26, 27, 28, 29]",300,165,-1,31,704,9,0.0
undo,41,22,0,0,0,16,"[0, 16]",2,21,"[1, 3, 6, 7, 8, 9, 11, 13, 14, 15, 17, 18, 19, 20, 21, 22, 24, 25, 27, 28, 29]",218.605897,6350,6185,17,147,9,1.0
undo,41,22,0,0,0,28,"[0, 16, 28]",3,13,"[6, 7, 9, 13, 14, 17, 19, 20, 21, 22, 24, 25, 29]",184.1675463,7124,774,12,61,9,1.047282311284478
undo,41,22,0,0,0,6,"[0, 16, 28, 6]",4,12,"[7, 9, 13, 14, 17, 19, 20, 21, 22, 24, 25, 29]",154.1675463,7736,612,12,43,9,1.645645870580622
undo,41,22,0,0,0,9,"[0, 16, 28, 6, 9]",5,8,"[7, 14, 17, 19, 20, 21, 24, 29]",127.5404924,9511,1775,8,17,9,1.925750226630103
undo,41,22,0,0,0,19,"[0, 16, 28, 6, 9, 19]",6,6,"[7, 14, 17, 21, 24, 29]",107.1444143,10556,1045,3,7,9,2.4220750331476455
undo,41,22,0,0,0,29,"[0, 16, 28, 6, 9, 19, 29]",7,4,"[7, 14, 17, 24]",92.11111796,11398,842,2,2,9,2.6996279574991067
undo,41,22,0,0,0,14,"[0, 16, 28, 6, 9, 19, 29, 14]",8,1,[7],33.86165444,12889,1491,1,0,9,2.0544639927929462
undo,41,22,0,0,1,7,"[0, 16, 28, 6, 9, 19, 29, 14, 7]",9,0,[],20.82324963,13994,1105,1,0,9,2.219817088951114
undo,41,22,0,1,1,7,"[0, 16, 28, 6, 9, 19, 29, 14, 7]",9,0,[],20.82324963,15312,1318,1,0,9,2.219817088951114
undo,42,28,0,0,0,0,[0],1,27,"[1, 2, 3, 4, 5, 6, 7, 8, 9, 10, 11, 12, 13, 14, 15, 16, 17, 18, 19, 20, 22, 23, 25, 26, 27, 28, 29]",300,165,-1,2,96,9,0.0
undo,42,28,0,0,0,14,"[0, 14]",2,14,"[1, 2, 3, 5, 7, 10, 11, 12, 13, 17, 18, 19, 20, 26]",147.8914861,3208,3043,1,26,8,1.0
undo,42,28,0,0,0,18,"[0, 14, 18]",3,11,"[1, 2, 3, 5, 7, 11, 12, 13, 17, 19, 26]",122.3963885,3960,752,1,23,8,1.0675599824559303
undo,42,28,0,0,0,13,"[0, 14, 18, 13]",4,7,"[2, 7, 11, 12, 17, 19, 26]",97.9832773,4560,600,1,9,8,1.0602397944415018
undo,42,28,0,0,0,12,"[0, 14, 18, 13, 12]",5,4,"[2, 7, 17, 19]",80.77862677,5753,1193,1,3,8,1.0640685934245377
undo,42,28,0,0,0,7,"[0, 14, 18, 13, 12, 7]",6,2,"[2, 19]",67.62568033,6404,651,1,1,8,1.186262804928269
undo,42,28,0,0,0,19,"[0, 14, 18, 13, 12, 7, 19]",7,1,[2],39.89483108,7226,822,1,0,8,1.424576333867947
undo,42,28,0,0,1,2,"[0, 14, 18, 13, 12, 7, 19, 2]",8,0,[],2.531747699,11674,4448,1,0,8,1.4824387893309579
undo,42,28,0,1,1,2,"[0, 14, 18, 13, 12, 7, 19, 2]",8,0,[],2.531747699,13180,1506,1,0,8,1.4824387893309579
undo,43,37,0,0,0,0,[0],1,29,"[1, 2, 3, 4, 5, 6, 7, 8, 9, 10, 11, 12, 13, 14, 15, 16, 17, 18, 19, 20, 21, 22, 23, 24, 25, 26, 27, 28, 29]",300,147,-1,6,168,10,0.0
undo,43,37,0,0,0,18,"[0, 18]",2,19,"[1, 2, 4, 6, 7, 9, 10, 12, 14, 15, 17, 19, 20, 21, 22, 23, 26, 28, 29]",202.4090168,2664,2517,6,89,10,1.0
undo,43,37,0,0,0,7,"[0, 18, 7]",3,12,"[1, 2, 4, 9, 15, 17, 19, 20, 21, 22, 26, 29]",175.2428614,3311,647,6,53,10,1.0413073512834488
undo,43,37,0,0,0,22,"[0, 18, 7, 22]",4,8,"[1, 2, 4, 15, 19, 20, 21, 26]",125.2428614,4272,961,6,29,10,1.0730792320325544
undo,43,37,0,0,0,4,"[0, 18, 7, 22, 4]",5,7,"[1, 2, 15, 19, 20, 21, 26]",100.2428614,5077,805,4,16,10,1.2290245562206235
undo,43,37,0,0,0,2,"[0, 18, 7, 22, 4, 2]",6,5,"[1, 15, 19, 20, 21]",88.84110714,6005,928,4,7,10,1.3968113858365216
undo,43,37,0,0,0,1,"[0, 18, 7, 22, 4, 2, 1]",7,4,"[15, 19, 20, 21]",71.63645661,6621,616,4,3,10,1.4424239294761476
undo,43,37,0,0,0,15,"[0, 18, 7, 22, 4, 2, 1, 15]",8,2,"[20, 21]",31.67397421,7560,939,2,0,10,1.612564167414217
undo,43,37,0,0,0,21,"[0, 18, 7, 22, 4, 2, 1, 15, 21]",9,1,[20],16.67397421,9070,1510,1,0,10,1.8256316004901285
undo,43,37,0,0,1,20,"[0, 18, 7, 22, 4, 2, 1, 15, 21, 20]",10,0,[],2.251769103,10217,1147,1,0,10,1.9863570569415172
undo,43,37,0,1,1,20,"[0, 18, 7, 22, 4, 2, 1, 15, 21, 20]",10,0,[],2.251769103,11647,1430,1,0,10,1.9863570569415172
undo,44,44,0,0,0,0,[0],1,29,"[1, 2, 3, 4, 5, 6, 7, 8, 9, 10, 11, 12, 13, 14, 15, 16, 17, 18, 19, 20, 21, 22, 23, 24, 25, 26, 27, 28, 29]",300,164,-1,13,126,7,0.0
undo,44,44,0,0,0,8,"[0, 8]",2,17,"[1, 4, 5, 7, 9, 10, 11, 12, 13, 14, 15, 20, 21, 23, 24, 25, 27]",145.7923478,5092,4928,1,10,7,1.0
undo,44,44,0,0,0,20,"[0, 8, 20]",3,16,"[1, 4, 5, 7, 9, 10, 11, 12, 13, 14, 15, 21, 23, 24, 25, 27]",133.7093018,5720,628,1,9,7,1.0890794433668698
undo,44,44,0,0,0,9,"[0, 8, 20, 9]",4,7,"[4, 7, 11, 12, 14, 23, 24]",76.43801756,7502,1782,1,6,7,1.40892325509949
undo,44,44,0,0,0,4,"[0, 8, 20, 9, 4]",5,4,"[7, 12, 23, 24]",56.74030196,8918,1416,1,3,7,1.3849770570803555
undo,44,44,0,0,0,7,"[0, 8, 20, 9, 4, 7]",6,1,[23],25.72417712,11174,2256,1,0,7,1.3274380931474288
undo,44,44,0,0,1,23,"[0, 8, 20, 9, 4, 7, 23]",7,0,[],6.619203947,12275,1101,1,0,7,1.3395824779823196
undo,44,44,0,1,1,23,"[0, 8, 20, 9, 4, 7, 23]",7,0,[],6.619203947,14496,2221,1,0,7,1.3395824779823196
undo,45,25,0,0,0,0,[0],1,28,"[1, 2, 3, 4, 5, 7, 8, 9, 10, 11, 12, 13, 14, 15, 16, 17, 18, 19, 20, 21, 22, 23, 24, 25, 26, 27, 28, 29]",300,180,-1,5,94,10,0.0
undo,45,25,0,0,0,23,"[0, 23]",2,23,"[1, 2, 3, 5, 7, 8, 9, 11, 12, 13, 14, 16, 17, 19, 20, 21, 22, 24, 25, 26, 27, 28, 29]",259.7756293,3444,3264,3,33,10,1.0
undo,45,25,0,0,0,7,"[0, 23, 7]",3,16,"[1, 3, 5, 8, 9, 11, 13, 17, 19, 21, 22, 24, 26, 27, 28, 29]",181.9424744,4535,1091,1,21,9,1.0073109045884563
undo,45,25,0,0,0,24,"[0, 23, 7, 24]",4,10,"[3, 5, 8, 9, 11, 13, 19, 22, 28, 29]",157.1836376,5138,603,1,17,9,1.0161584555781231
undo,45,25,0,0,0,9,"[0, 23, 7, 24, 9]",5,8,"[3, 8, 11, 13, 19, 22, 28, 29]",139.1558812,5662,524,1,16,9,1.0303325523073676
undo,45,25,0,0,0,8,"[0, 23, 7, 24, 9, 8]",6,3,"[3, 13, 28]",88.9065031,8068,2406,4,1,8,1.055612641218378
undo,45,25,0,0,0,28,"[0, 23, 7, 24, 9, 8, 28]",7,2,"[3, 13]",48.29862209,8872,804,2,0,8,1.16316697389926
undo,45,25,0,0,1,13,"[0, 23, 7, 24, 9, 8, 28, 13]",8,0,[],14.06413655,12007,3135,1,0,8,1.4186216974503674
undo,45,25,0,1,1,13,"[0, 23, 7, 24, 9, 8, 28, 13]",8,0,[],14.06413655,13279,1272,1,0,8,1.4186216974503674
undo,46,36,0,0,0,0,[0],1,24,"[2, 4, 5, 6, 7, 8, 9, 10, 12, 13, 14, 15, 16, 17, 18, 19, 20, 22, 23, 25, 26, 27, 28, 29]",300,198,-1,2,200,10,0.0
undo,46,36,0,0,0,9,"[0, 9]",2,16,"[2, 4, 8, 10, 12, 13, 16, 17, 18, 19, 23, 25, 26, 27, 28, 29]",230.9348134,5041,4843,81,367,8,1.0
undo,46,36,0,0,0,19,"[0, 9, 19]",3,14,"[2, 4, 8, 10, 12, 13, 16, 17, 18, 23, 25, 27, 28, 29]",215.8020675,6007,966,32,122,8,1.092374745664041
undo,46,36,0,0,0,2,"[0, 9, 19, 2]",4,12,"[4, 8, 10, 12, 13, 16, 17, 18, 23, 25, 27, 29]",178.6806451,7589,1582,7,34,8,1.0742958857180551
undo,46,36,0,0,0,25,"[0, 9, 19, 2, 25]",5,11,"[4, 8, 10, 12, 13, 16, 17, 18, 23, 27, 29]",153.6806451,8491,902,4,13,8,1.2780079675602194
undo,46,36,0,0,0,13,"[0, 9, 19, 2, 25, 13]",6,8,"[4, 10, 12, 16, 17, 18, 23, 29]",133.0893848,12446,3955,4,4,8,1.7017525962367717
undo,46,36,0,0,1,10,"[0, 9, 19, 2, 25, 13, 10]",7,0,[],57.12886872,14780,2334,1,0,7,1.3964108231755739
undo,46,36,1,0,0,13,"[0, 9, 19, 2, 25, 13]",6,8,"[4, 10, 12, 16, 17, 18, 23, 29]",133.0893848,18897,4117,4,4,8,1.7017525962367717
undo,46,36,1,0,0,25,"[0, 9, 19, 2, 25]",5,11,"[4, 8, 10, 12, 13, 16, 17, 18, 23, 27, 29]",153.6806451,19714,817,4,13,8,1.2780079675602194
undo,46,36,0,0,0,13,"[0, 9, 19, 2, 25, 13]",6,8,"[4, 10, 12, 16, 17, 18, 23, 29]",133.0893848,26884,7170,4,4,8,1.7017525962367717
undo,46,36,0,0,0,12,"[0, 9, 19, 2, 25, 13, 12]",7,1,[18],53.91236791,27775,891,1,0,8,11.083229538970832
undo,46,36,0,0,1,18,"[0, 9, 19, 2, 25, 13, 12, 18]",8,0,[],11.3330302,28844,1069,1,0,8,14.153062614806723
undo,46,36,0,1,1,18,"[0, 9, 19, 2, 25, 13, 12, 18]",8,0,[],11.3330302,30579,1735,1,0,8,14.153062614806723
undo,47,23,0,0,0,0,[0],1,28,"[1, 2, 3, 4, 5, 6, 7, 8, 9, 10, 11, 12, 13, 14, 15, 16, 17, 18, 19, 20, 21, 22, 23, 25, 26, 27, 28, 29]",300,148,-1,76,2626,10,0.0
undo,47,23,0,0,0,13,"[0, 13]",2,19,"[1, 2, 3, 5, 6, 7, 8, 9, 10, 12, 14, 17, 18, 19, 21, 22, 23, 27, 29]",189.3202819,3030,2882,9,168,10,1.0
undo,47,23,0,0,0,12,"[0, 13, 12]",3,16,"[1, 2, 3, 6, 7, 8, 9, 10, 14, 17, 18, 21, 22, 23, 27, 29]",177.2372359,3753,723,9,96,10,1.0014195490503164
undo,47,23,0,0,0,6,"[0, 13, 12, 6]",4,9,"[2, 7, 9, 10, 14, 18, 22, 27, 29]",147.5555918,8703,4950,2,17,10,1.0146513975411646
undo,47,23,0,0,0,2,"[0, 13, 12, 6, 2]",5,8,"[7, 9, 10, 14, 18, 22, 27, 29]",129.1165028,9329,626,2,8,10,1.252271865214601
undo,47,23,0,0,0,9,"[0, 13, 12, 6, 2, 9]",6,7,"[7, 10, 14, 18, 22, 27, 29]",116.078098,9926,597,1,4,10,1.4077625583396691
undo,47,23,0,0,0,14,"[0, 13, 12, 6, 2, 9, 14]",7,5,"[7, 10, 22, 27, 29]",105.6377915,10673,747,1,3,10,1.3795313352500915
undo,47,23,0,0,0,29,"[0, 13, 12, 6, 2, 9, 14, 29]",8,2,"[7, 10]",58.20362662,11539,866,1,1,10,1.5679920543199335
undo,47,23,0,0,0,7,"[0, 13, 12, 6, 2, 9, 14, 29, 7]",9,1,[10],34.12043747,12436,897,1,0,10,1.5808251397817217
undo,47,23,0,0,1,10,"[0, 13, 12, 6, 2, 9, 14, 29, 7, 10]",10,0,[],6.661377032,13469,1033,1,0,10,1.5347739273486019
undo,47,23,0,1,1,10,"[0, 13, 12, 6, 2, 9, 14, 29, 7, 10]",10,0,[],6.661377032,14797,1328,1,0,10,1.5347739273486019
undo,48,27,0,0,0,0,[0],1,26,"[1, 3, 5, 6, 7, 8, 9, 10, 11, 12, 13, 14, 15, 16, 17, 18, 19, 21, 22, 23, 24, 25, 26, 27, 28, 29]",300,164,-1,13,578,11,0.0
undo,48,27,0,0,0,15,"[0, 15]",2,24,"[1, 3, 5, 6, 7, 8, 9, 10, 11, 12, 13, 14, 16, 17, 18, 19, 21, 22, 23, 24, 25, 26, 27, 29]",263.7508621,2676,2512,6,219,11,1.0
undo,48,27,0,0,0,24,"[0, 15, 24]",3,20,"[1, 5, 6, 7, 8, 9, 10, 12, 13, 14, 16, 17, 18, 19, 21, 23, 25, 26, 27, 29]",246.5462115,3441,765,6,130,11,1.130933077698322
undo,48,27,0,0,0,17,"[0, 15, 24, 17]",4,15,"[1, 6, 8, 10, 12, 13, 14, 16, 18, 19, 23, 25, 26, 27, 29]",229.9932662,4056,615,4,60,11,1.1285538435963374
undo,48,27,0,0,0,12,"[0, 15, 24, 17, 12]",5,14,"[1, 6, 8, 10, 13, 14, 16, 18, 19, 23, 25, 26, 27, 29]",218.8129263,4607,551,2,32,11,1.2561880288755216
undo,48,27,0,0,0,10,"[0, 15, 24, 17, 12, 10]",6,11,"[1, 8, 13, 14, 18, 19, 23, 25, 26, 27, 29]",207.7675653,5453,846,2,28,11,1.2228289337766665
undo,48,27,0,0,0,13,"[0, 15, 24, 17, 12, 10, 13]",7,9,"[1, 8, 14, 18, 19, 23, 26, 27, 29]",167.9178476,6407,954,2,18,11,1.3421291994761178
undo,48,27,0,0,0,19,"[0, 15, 24, 17, 12, 10, 13, 19]",8,5,"[1, 8, 14, 23, 29]",131.6825057,7219,812,2,6,11,1.294749956153846
undo,48,27,0,0,0,8,"[0, 15, 24, 17, 12, 10, 13, 19, 8]",9,3,"[14, 23, 29]",116.816437,8155,936,2,1,11,1.3554286578836865
undo,48,27,0,0,0,29,"[0, 15, 24, 17, 12, 10, 13, 19, 8, 29]",10,1,[14],57.61339652,9103,948,1,0,11,1.248354519573802
undo,48,27,0,0,1,14,"[0, 15, 24, 17, 12, 10, 13, 19, 8, 29, 14]",11,0,[],13.31892734,10005,902,1,0,11,1.562811097555156
undo,48,27,0,1,1,14,"[0, 15, 24, 17, 12, 10, 13, 19, 8, 29, 14]",11,0,[],13.31892734,11247,1242,1,0,11,1.562811097555156
undo,49,12,0,0,0,0,[0],1,29,"[1, 2, 3, 4, 5, 6, 7, 8, 9, 10, 11, 12, 13, 14, 15, 16, 17, 18, 19, 20, 21, 22, 23, 24, 25, 26, 27, 28, 29]",300,133,-1,2,32,9,0.0
undo,49,12,0,0,0,25,"[0, 25]",2,16,"[2, 4, 5, 6, 7, 9, 12, 14, 16, 18, 19, 22, 23, 24, 27, 28]",225.7975742,4176,4043,5,34,8,1.0
undo,49,12,1,0,0,0,[0],1,29,"[1, 2, 3, 4, 5, 6, 7, 8, 9, 10, 11, 12, 13, 14, 15, 16, 17, 18, 19, 20, 21, 22, 23, 24, 25, 26, 27, 28, 29]",300,6232,2056,2,32,9,0.0
undo,49,12,0,0,0,6,"[0, 6]",2,28,"[1, 2, 3, 4, 5, 7, 8, 9, 10, 11, 12, 13, 14, 15, 16, 17, 18, 19, 20, 21, 22, 23, 24, 25, 26, 27, 28, 29]",283.5987805,7881,1649,2,18,9,1.0
undo,49,12,0,0,0,22,"[0, 6, 22]",3,13,"[2, 4, 5, 7, 12, 13, 14, 16, 19, 23, 24, 25, 27]",182.0015365,10805,2924,2,9,9,1.3408050629015749
undo,49,12,0,0,0,16,"[0, 6, 22, 16]",4,10,"[2, 4, 5, 7, 12, 14, 19, 24, 25, 27]",161.0015365,11431,626,2,7,9,1.5323672374573825
undo,49,12,0,0,0,4,"[0, 6, 22, 16, 4]",5,6,"[12, 14, 19, 24, 25, 27]",126.7962737,12060,629,2,5,9,1.38665076120851
undo,49,12,0,0,0,12,"[0, 6, 22, 16, 4, 12]",6,3,"[14, 24, 27]",84.6062275,13207,1147,2,3,9,1.3036701691846924
undo,49,12,0,0,0,27,"[0, 6, 22, 16, 4, 12, 27]",7,2,"[14, 24]",60.25463618,14124,917,2,0,9,1.401636252408167
undo,49,12,0,0,0,14,"[0, 6, 22, 16, 4, 12, 27, 14]",8,1,[24],31.60153862,15005,881,1,0,9,1.4415448388010776
undo,49,12,0,0,1,24,"[0, 6, 22, 16, 4, 12, 27, 14, 24]",9,0,[],14.39688808,15970,965,1,0,9,1.6003250998053893
undo,49,12,0,1,1,24,"[0, 6, 22, 16, 4, 12, 27, 14, 24]",9,0,[],14.39688808,17648,1678,1,0,9,1.6003250998053893
undo,50,10,0,0,0,0,[0],1,29,"[1, 2, 3, 4, 5, 6, 7, 8, 9, 10, 11, 12, 13, 14, 15, 16, 17, 18, 19, 20, 21, 22, 23, 24, 25, 26, 27, 28, 29]",300,163,-1,1,100,9,0.0
undo,50,10,0,0,0,13,"[0, 13]",2,25,"[1, 2, 3, 4, 6, 7, 8, 9, 10, 11, 12, 14, 17, 18, 19, 20, 21, 22, 23, 24, 25, 26, 27, 28, 29]",249.4628849,2772,2609,1,79,9,1.0
undo,50,10,0,0,0,11,"[0, 13, 11]",3,20,"[1, 2, 3, 6, 7, 8, 9, 10, 12, 14, 18, 19, 20, 21, 22, 24, 26, 27, 28, 29]",206.4512586,3439,667,1,54,9,1.0313137484914219
undo,50,10,0,0,0,19,"[0, 13, 11, 19]",4,11,"[2, 6, 8, 9, 10, 14, 18, 20, 24, 26, 27]",170.0919407,4681,1242,1,22,9,1.0879446220132545
undo,50,10,0,0,0,2,"[0, 13, 11, 19, 2]",5,4,"[14, 20, 26, 27]",126.1829439,5535,854,1,4,9,1.06474052351343
undo,50,10,0,0,0,14,"[0, 13, 11, 19, 2, 14]",6,3,"[20, 26, 27]",114.0174188,6051,516,1,3,9,1.1628909195912238
undo,50,10,0,0,0,26,"[0, 13, 11, 19, 2, 14, 26]",7,2,"[20, 27]",79.34754716,6888,837,1,1,9,1.6660727647633602
undo,50,10,0,0,0,20,"[0, 13, 11, 19, 2, 14, 26, 20]",8,1,[27],47.56704999,7936,1048,1,0,9,2.085581809637999
undo,50,10,0,0,1,27,"[0, 13, 11, 19, 2, 14, 26, 20, 27]",9,0,[],2.312215998,8592,656,1,0,9,1.9116357409137932
undo,50,10,0,1,1,27,"[0, 13, 11, 19, 2, 14, 26, 20, 27]",9,0,[],2.312215998,10079,1487,1,0,9,1.9116357409137932
undo,51,45,0,0,0,0,[0],1,24,"[1, 2, 3, 4, 5, 6, 7, 9, 10, 11, 12, 14, 15, 16, 17, 19, 20, 21, 22, 23, 24, 25, 27, 29]",300,165,-1,6,248,10,0.0
undo,51,45,0,0,0,17,"[0, 17]",2,22,"[1, 2, 3, 4, 5, 6, 7, 9, 10, 11, 12, 14, 15, 16, 19, 20, 21, 22, 23, 24, 25, 29]",235.867325,4969,4804,1,34,10,1.0
undo,51,45,0,0,0,24,"[0, 17, 24]",3,20,"[1, 2, 3, 4, 5, 6, 7, 9, 10, 11, 12, 14, 15, 16, 19, 20, 21, 22, 23, 29]",193.8078433,6819,1850,1,33,10,1.0309432256229287
undo,51,45,0,0,0,7,"[0, 17, 24, 7]",4,18,"[1, 2, 3, 4, 5, 6, 9, 10, 12, 14, 15, 16, 19, 20, 21, 22, 23, 29]",159.3985423,7855,1036,1,32,10,1.059763151913087
undo,51,45,0,0,0,2,"[0, 17, 24, 7, 2]",5,12,"[3, 4, 6, 10, 12, 14, 16, 19, 20, 22, 23, 29]",121.3853866,8625,770,1,23,10,1.0656581932115423
undo,51,45,0,0,0,3,"[0, 17, 24, 7, 2, 3]",6,8,"[6, 10, 12, 14, 16, 20, 22, 29]",96.06740884,9685,1060,1,13,10,1.1368250049574795
undo,51,45,0,0,0,29,"[0, 17, 24, 7, 2, 3, 29]",7,5,"[6, 10, 12, 20, 22]",76.06740884,11021,1336,1,5,10,1.390376182346372
undo,51,45,0,0,0,10,"[0, 17, 24, 7, 2, 3, 29, 10]",8,2,"[6, 12]",54.52674961,11976,955,1,1,10,1.6682270697663164
undo,51,45,0,0,0,6,"[0, 17, 24, 7, 2, 3, 29, 10, 6]",9,1,[12],28.27794012,12853,877,1,0,10,1.5776211572942243
undo,51,45,0,0,1,12,"[0, 17, 24, 7, 2, 3, 29, 10, 6, 12]",10,0,[],8.15332832,13755,902,1,0,10,1.536035114105263
undo,51,45,0,1,1,12,"[0, 17, 24, 7, 2, 3, 29, 10, 6, 12]",10,0,[],8.15332832,14929,1174,1,0,10,1.536035114105263
undo,52,41,0,0,0,0,[0],1,29,"[1, 2, 3, 4, 5, 6, 7, 8, 9, 10, 11, 12, 13, 14, 15, 16, 17, 18, 19, 20, 21, 22, 23, 24, 25, 26, 27, 28, 29]",300,165,-1,1,143,10,0.0
undo,52,41,0,0,0,13,"[0, 13]",2,23,"[1, 2, 3, 5, 6, 7, 9, 10, 11, 12, 14, 15, 17, 18, 19, 20, 21, 22, 24, 25, 26, 27, 28]",258.2747079,3792,3627,1,55,10,1.0
undo,52,41,0,0,0,28,"[0, 13, 28]",3,22,"[1, 2, 3, 5, 6, 7, 9, 10, 11, 12, 14, 15, 17, 18, 19, 20, 21, 22, 24, 25, 26, 27]",223.7928286,5562,1770,1,39,10,1.895724242592676
undo,52,41,0,0,0,5,"[0, 13, 28, 5]",4,19,"[1, 2, 3, 6, 9, 10, 11, 12, 14, 15, 17, 18, 19, 20, 21, 22, 24, 25, 27]",210.1913581,6056,494,1,34,10,2.861541269398273
undo,52,41,0,0,0,22,"[0, 13, 28, 5, 22]",5,12,"[2, 3, 6, 9, 10, 11, 12, 17, 18, 20, 21, 25]",155.4464953,6891,835,11,12,9,2.096079268852861
undo,52,41,0,0,0,3,"[0, 13, 28, 5, 22, 3]",6,8,"[2, 9, 10, 12, 17, 18, 20, 21]",125.4798472,7553,662,7,5,9,4.404491319005463
undo,52,41,0,0,0,21,"[0, 13, 28, 5, 22, 3, 21]",7,4,"[2, 9, 12, 17]",93.33952984,9938,2385,5,1,9,4.228139797553632
undo,52,41,0,0,0,9,"[0, 13, 28, 5, 22, 3, 21, 9]",8,2,"[2, 17]",43.97354965,11628,1690,2,0,9,3.111188754077749
undo,52,41,0,0,1,2,"[0, 13, 28, 5, 22, 3, 21, 9, 2]",9,0,[],31.89050368,12352,724,1,0,9,2.963304814480547
undo,52,41,0,1,1,2,"[0, 13, 28, 5, 22, 3, 21, 9, 2]",9,0,[],31.89050368,15730,3378,1,0,9,2.963304814480547
undo,53,32,0,0,0,0,[0],1,29,"[1, 2, 3, 4, 5, 6, 7, 8, 9, 10, 11, 12, 13, 14, 15, 16, 17, 18, 19, 20, 21, 22, 23, 24, 25, 26, 27, 28, 29]",300,147,-1,17,359,10,0.0
undo,53,32,0,0,0,15,"[0, 15]",2,24,"[2, 3, 4, 5, 6, 7, 8, 9, 10, 11, 12, 13, 14, 16, 17, 19, 20, 22, 23, 24, 25, 26, 27, 28]",214.6185032,1855,1708,11,153,9,1.0
undo,53,32,0,0,0,28,"[0, 15, 28]",3,21,"[2, 3, 5, 7, 8, 9, 10, 11, 12, 13, 14, 16, 17, 19, 20, 22, 23, 24, 25, 26, 27]",203.2167489,4671,2816,11,119,9,1.000160051986942
undo,53,32,0,0,0,12,"[0, 15, 28, 12]",4,19,"[2, 3, 5, 7, 8, 9, 10, 11, 13, 16, 17, 19, 20, 22, 23, 24, 25, 26, 27]",184.243083,7646,2975,8,71,9,1.0281484763748023
undo,53,32,0,0,0,16,"[0, 15, 28, 12, 16]",5,17,"[2, 3, 5, 7, 8, 9, 10, 11, 13, 17, 19, 20, 22, 23, 24, 26, 27]",168.5906071,8908,1262,6,38,9,1.1190771370096
undo,53,32,0,0,0,22,"[0, 15, 28, 12, 16, 22]",6,10,"[2, 3, 5, 8, 9, 10, 11, 17, 20, 27]",134.7527585,9954,1046,4,16,9,1.1702311155319893
undo,53,32,0,0,0,9,"[0, 15, 28, 12, 16, 22, 9]",7,6,"[2, 8, 10, 17, 20, 27]",112.5491552,10970,1016,2,4,9,1.2381424719932013
undo,53,32,0,0,0,8,"[0, 15, 28, 12, 16, 22, 9, 8]",8,1,[20],67.42709849,11853,883,1,0,9,1.187013645273504
undo,53,32,0,0,1,20,"[0, 15, 28, 12, 16, 22, 9, 8, 20]",9,0,[],17.09818036,12969,1116,1,0,9,1.3986201165175596
undo,53,32,0,1,1,20,"[0, 15, 28, 12, 16, 22, 9, 8, 20]",9,0,[],17.09818036,14296,1327,1,0,9,1.3986201165175596
undo,54,2,0,0,0,0,[0],1,23,"[1, 2, 4, 5, 6, 7, 8, 9, 12, 13, 15, 16, 17, 18, 19, 20, 22, 23, 25, 26, 27, 28, 29]",300,147,-1,70,620,10,0.0
undo,54,2,0,0,0,19,"[0, 19]",2,22,"[1, 2, 4, 5, 6, 7, 8, 9, 12, 13, 15, 16, 17, 18, 20, 22, 23, 25, 26, 27, 28, 29]",210.306076,2308,2161,67,431,10,1.0
undo,54,2,0,0,0,12,"[0, 19, 12]",3,17,"[1, 4, 5, 6, 7, 13, 15, 16, 17, 18, 20, 22, 25, 26, 27, 28, 29]",174.2921898,3185,877,66,298,10,1.1107635036313153
undo,54,2,0,0,0,5,"[0, 19, 12, 5]",4,11,"[1, 6, 7, 13, 15, 16, 18, 22, 25, 26, 29]",144.7625437,4186,1001,38,136,10,1.0968174771581647
undo,54,2,0,0,0,22,"[0, 19, 12, 5, 22]",5,8,"[1, 6, 7, 13, 15, 18, 26, 29]",131.9562952,4989,803,20,63,10,1.0889910507461968
undo,54,2,0,0,0,13,"[0, 19, 12, 5, 22, 13]",6,7,"[1, 6, 7, 15, 18, 26, 29]",117.0902265,6168,1179,19,20,10,1.236526217328057
undo,54,2,0,0,0,18,"[0, 19, 12, 5, 22, 13, 18]",7,4,"[7, 15, 26, 29]",81.91921567,7170,1002,10,3,10,1.2128708213409936
undo,54,2,0,0,0,7,"[0, 19, 12, 5, 22, 13, 18, 7]",8,3,"[15, 26, 29]",71.62358553,8136,966,5,0,10,1.2019811287894737
undo,54,2,0,0,0,26,"[0, 19, 12, 5, 22, 13, 18, 7, 26]",9,2,"[15, 29]",48.82007703,9133,997,2,0,10,1.1883593342191134
undo,54,2,0,0,1,15,"[0, 19, 12, 5, 22, 13, 18, 7, 26, 15]",10,0,[],24.61264015,9991,858,1,0,10,1.4619750353663825
undo,54,2,0,1,1,15,"[0, 19, 12, 5, 22, 13, 18, 7, 26, 15]",10,0,[],24.61264015,12112,2121,1,0,10,1.4619750353663825
undo,55,31,0,0,0,0,[0],1,27,"[1, 3, 4, 5, 6, 7, 8, 10, 11, 12, 13, 14, 15, 16, 17, 18, 19, 20, 21, 22, 23, 24, 25, 26, 27, 28, 29]",300,147,-1,2,87,10,0.0
undo,55,31,0,0,0,14,"[0, 14]",2,25,"[1, 3, 5, 6, 7, 8, 10, 11, 12, 13, 15, 16, 17, 18, 19, 20, 21, 22, 23, 24, 25, 26, 27, 28, 29]",263.861378,2718,2571,2,59,10,1.0
undo,55,31,0,0,0,27,"[0, 14, 27]",3,22,"[1, 3, 5, 6, 7, 8, 10, 11, 12, 13, 15, 16, 17, 18, 19, 20, 21, 22, 24, 25, 28, 29]",235.6833724,3544,826,1,39,10,1.5881859159302467
undo,55,31,0,0,0,8,"[0, 14, 27, 8]",4,20,"[1, 3, 5, 6, 7, 10, 11, 12, 13, 16, 17, 18, 19, 20, 21, 22, 24, 25, 28, 29]",224.6380114,4083,539,1,36,10,2.1665048452331277
undo,55,31,0,0,0,18,"[0, 14, 27, 8, 18]",5,15,"[1, 5, 6, 7, 11, 12, 13, 16, 17, 19, 20, 22, 25, 28, 29]",188.7911147,5737,1654,1,26,10,1.7273375741920205
undo,55,31,0,0,0,17,"[0, 14, 27, 8, 18, 17]",6,13,"[1, 5, 6, 7, 11, 12, 13, 16, 19, 20, 22, 25, 28]",159.584951,6692,955,1,13,10,1.551192427769927
undo,55,31,0,0,0,11,"[0, 14, 27, 8, 18, 17, 11]",7,7,"[5, 12, 16, 19, 22, 25, 28]",118.4753414,7467,775,1,4,10,2.9650760544203494
undo,55,31,0,0,0,5,"[0, 14, 27, 8, 18, 17, 11, 5]",8,2,"[16, 28]",74.79468207,8112,645,1,1,10,2.56711965625205
undo,55,31,0,0,0,28,"[0, 14, 27, 8, 18, 17, 11, 5, 28]",9,1,[16],54.57093365,9301,1189,1,0,10,2.2865510762058148
undo,55,31,0,0,1,16,"[0, 14, 27, 8, 18, 17, 11, 5, 28, 16]",10,0,[],20.95546102,10351,1050,1,0,10,2.089356850786318
undo,55,31,0,1,1,16,"[0, 14, 27, 8, 18, 17, 11, 5, 28, 16]",10,0,[],20.95546102,11679,1328,1,0,10,2.089356850786318
undo,56,1,0,0,0,0,[0],1,26,"[1, 2, 4, 5, 7, 8, 9, 10, 11, 12, 13, 14, 15, 16, 17, 18, 19, 20, 21, 22, 23, 24, 25, 26, 28, 29]",300,164,-1,6,74,7,0.0
undo,56,1,0,0,0,14,"[0, 14]",2,19,"[1, 4, 5, 8, 9, 13, 15, 17, 18, 19, 20, 21, 22, 23, 24, 25, 26, 28, 29]",200.1901808,4078,3914,5,42,7,1.0
undo,56,1,0,0,0,17,"[0, 14, 17]",3,15,"[1, 4, 5, 8, 9, 13, 15, 18, 19, 20, 22, 23, 25, 28, 29]",147.8356204,5212,1134,5,27,7,1.0028844724416826
undo,56,1,0,0,0,1,"[0, 14, 17, 1]",4,12,"[4, 5, 8, 9, 15, 18, 20, 22, 23, 25, 28, 29]",123.4840291,7103,1891,5,15,7,1.0264985578353567
undo,56,1,0,0,0,28,"[0, 14, 17, 1, 28]",5,5,"[9, 15, 22, 23, 29]",88.59850198,7854,751,5,3,7,1.0339861575999345
undo,56,1,0,0,0,15,"[0, 14, 17, 1, 28, 15]",6,3,"[22, 23, 29]",53.37067208,9501,1647,3,0,7,1.055553419196412
undo,56,1,0,0,1,23,"[0, 14, 17, 1, 28, 15, 23]",7,0,[],22.48378165,10555,1054,1,0,7,1.1542953231038533
undo,56,1,0,1,1,23,"[0, 14, 17, 1, 28, 15, 23]",7,0,[],22.48378165,14280,3725,1,0,7,1.1542953231038533
undo,57,21,0,0,0,0,[0],1,29,"[1, 2, 3, 4, 5, 6, 7, 8, 9, 10, 11, 12, 13, 14, 15, 16, 17, 18, 19, 20, 21, 22, 23, 24, 25, 26, 27, 28, 29]",300,230,-1,84,830,9,0.0
undo,57,21,0,0,0,18,"[0, 18]",2,28,"[1, 2, 3, 4, 5, 6, 7, 8, 9, 10, 11, 12, 13, 14, 15, 16, 17, 19, 20, 21, 22, 23, 24, 25, 26, 27, 28, 29]",240.923778,6536,6306,44,305,9,1.0
undo,57,21,0,0,0,29,"[0, 18, 29]",3,24,"[1, 2, 3, 4, 6, 7, 8, 9, 10, 11, 12, 13, 14, 15, 16, 17, 20, 21, 22, 23, 24, 25, 26, 27]",212.2706805,7476,940,11,87,9,1.035555280387994
undo,57,21,0,0,0,25,"[0, 18, 29, 25]",4,18,"[1, 4, 6, 8, 9, 10, 11, 12, 14, 15, 16, 17, 20, 21, 22, 23, 24, 26]",167.0490043,8404,928,6,45,9,2.2226517719335437
undo,57,21,0,0,0,23,"[0, 18, 29, 25, 23]",5,10,"[4, 8, 14, 15, 16, 17, 20, 21, 22, 24]",123.7246462,9523,1119,3,20,9,1.7801958981326236
undo,57,21,0,0,0,21,"[0, 18, 29, 25, 23, 21]",6,3,"[4, 14, 16]",94.11046043,10345,822,1,3,9,2.290491065218303
undo,57,21,0,0,0,14,"[0, 18, 29, 25, 23, 21, 14]",7,2,"[4, 16]",68.49796348,11267,922,1,1,9,2.021100447974041
undo,57,21,0,0,0,4,"[0, 18, 29, 25, 23, 21, 14, 4]",8,1,[16],54.35582786,12884,1617,1,0,9,1.9205022281831265
undo,57,21,0,0,1,16,"[0, 18, 29, 25, 23, 21, 14, 4, 16]",9,0,[],9.757621617,14292,1408,1,0,9,1.7782202964615115
undo,57,21,0,1,1,16,"[0, 18, 29, 25, 23, 21, 14, 4, 16]",9,0,[],9.757621617,15829,1537,1,0,9,1.7782202964615115
undo,58,17,0,0,0,0,[0],1,28,"[1, 2, 3, 4, 5, 6, 7, 8, 9, 10, 11, 12, 13, 14, 15, 16, 17, 18, 19, 20, 22, 23, 24, 25, 26, 27, 28, 29]",300,165,-1,2,73,8,0.0
undo,58,17,0,0,0,9,"[0, 9]",2,25,"[1, 2, 3, 5, 6, 7, 8, 10, 11, 12, 14, 15, 16, 17, 18, 19, 20, 22, 23, 24, 25, 26, 27, 28, 29]",210.5293344,2754,2589,1,34,8,1.0
undo,58,17,0,0,0,16,"[0, 9, 16]",3,21,"[1, 2, 3, 5, 7, 8, 10, 11, 12, 14, 17, 18, 19, 20, 22, 23, 25, 26, 27, 28, 29]",197.1876704,3426,672,1,26,8,1.173103464220352
undo,58,17,0,0,0,2,"[0, 9, 16, 2]",4,18,"[1, 3, 5, 7, 8, 10, 11, 12, 14, 17, 18, 19, 23, 25, 26, 27, 28, 29]",181.0631549,4420,994,1,23,8,1.14825089247282
undo,58,17,0,0,0,17,"[0, 9, 16, 2, 17]",5,7,"[7, 8, 12, 14, 26, 27, 29]",142.7356191,5264,844,4,5,7,1.4896040699768547
undo,58,17,0,0,0,8,"[0, 9, 16, 2, 17, 8]",6,3,"[7, 12, 27]",104.5256727,6236,972,3,0,7,1.4604726966175894
undo,58,17,0,0,1,27,"[0, 9, 16, 2, 17, 8, 27]",7,0,[],21.88790895,9727,3491,1,0,7,1.2949460667276491
undo,58,17,0,1,1,27,"[0, 9, 16, 2, 17, 8, 27]",7,0,[],21.88790895,12646,2919,1,0,7,1.2949460667276491
undo,59,30,0,0,0,0,[0],1,19,"[3, 4, 5, 7, 9, 11, 16, 17, 18, 19, 20, 21, 22, 24, 25, 26, 27, 28, 29]",300,133,-1,5,41,8,0.0
undo,59,30,0,0,0,16,"[0, 16]",2,17,"[3, 5, 7, 9, 11, 17, 18, 19, 20, 21, 22, 24, 25, 26, 27, 28, 29]",219.3774225,4574,4441,5,34,8,1.0
undo,59,30,0,0,0,25,"[0, 16, 25]",3,10,"[3, 5, 7, 9, 11, 18, 19, 20, 27, 29]",115.0845656,6241,1667,5,28,8,1.0336279544884488
undo,59,30,0,0,0,20,"[0, 16, 25, 20]",4,8,"[3, 5, 7, 9, 18, 19, 27, 29]",93.15285342,6919,678,4,14,8,1.0337964627284246
undo,59,30,0,0,0,27,"[0, 16, 25, 20, 27]",5,4,"[3, 5, 18, 29]",59.09408069,7938,1019,4,6,8,1.1504365534848
undo,59,30,0,0,0,3,"[0, 16, 25, 20, 27, 3]",6,3,"[5, 18, 29]",39.98910751,8839,901,4,0,8,1.1403876826835333
undo,59,30,0,0,0,18,"[0, 16, 25, 20, 27, 3, 18]",7,2,"[5, 29]",21.74081992,9913,1074,2,0,8,1.1392589158498312
undo,59,30,0,0,1,5,"[0, 16, 25, 20, 27, 3, 18, 5]",8,0,[],8.702415112,11824,1911,1,0,8,1.2046350140224855
undo,59,30,0,1,1,5,"[0, 16, 25, 20, 27, 3, 18, 5]",8,0,[],8.702415112,13083,1259,1,0,8,1.2046350140224855
undo,60,16,0,0,0,0,[0],1,29,"[1, 2, 3, 4, 5, 6, 7, 8, 9, 10, 11, 12, 13, 14, 15, 16, 17, 18, 19, 20, 21, 22, 23, 24, 25, 26, 27, 28, 29]",300,163,-1,13,161,9,0.0
undo,60,16,0,0,0,17,"[0, 17]",2,27,"[1, 2, 3, 4, 5, 7, 8, 9, 10, 11, 12, 13, 14, 15, 16, 18, 19, 20, 21, 22, 23, 24, 25, 26, 27, 28, 29]",241.3058776,2279,2116,2,58,9,1.0
undo,60,16,0,0,0,16,"[0, 17, 16]",3,26,"[1, 2, 3, 4, 5, 7, 8, 9, 10, 11, 12, 13, 14, 15, 18, 19, 20, 21, 22, 23, 24, 25, 26, 27, 28, 29]",212.9862731,2968,689,2,52,9,1.0529535521792848
undo,60,16,0,0,0,8,"[0, 17, 16, 8]",4,19,"[2, 3, 4, 5, 9, 12, 13, 14, 15, 19, 20, 21, 22, 23, 25, 26, 27, 28, 29]",164.6127266,3953,985,2,38,9,1.0915134501573105
undo,60,16,0,0,0,20,"[0, 17, 16, 8, 20]",5,10,"[3, 4, 5, 9, 12, 13, 15, 19, 21, 25]",106.8372993,6285,2332,1,15,9,1.067523143001942
undo,60,16,0,0,0,25,"[0, 17, 16, 8, 20, 25]",6,7,"[3, 4, 5, 9, 12, 13, 15]",94.18818869,6828,543,1,9,9,1.1170093326933646
undo,60,16,0,0,0,9,"[0, 17, 16, 8, 20, 25, 9]",7,5,"[3, 4, 5, 13, 15]",81.38194021,7649,821,1,4,9,1.1095076562662525
undo,60,16,0,0,0,15,"[0, 17, 16, 8, 20, 25, 9, 15]",8,1,[5],42.48463953,10928,3279,1,0,9,1.213831159678775
undo,60,16,0,0,1,5,"[0, 17, 16, 8, 20, 25, 9, 15, 5]",9,0,[],13.0567616,12286,1358,1,0,9,1.5171779607523481
undo,60,16,0,1,1,5,"[0, 17, 16, 8, 20, 25, 9, 15, 5]",9,0,[],13.0567616,13446,1160,1,0,9,1.5171779607523481
undo,61,0,0,0,0,0,[0],1,27,"[2, 3, 4, 5, 6, 7, 8, 9, 10, 11, 12, 13, 14, 15, 16, 17, 19, 20, 21, 22, 23, 24, 25, 26, 27, 28, 29]",300,129,-1,104,1136,9,0.0
undo,61,0,0,0,0,5,"[0, 5]",2,24,"[2, 3, 4, 7, 8, 9, 11, 12, 13, 14, 15, 16, 17, 19, 20, 21, 22, 23, 24, 25, 26, 27, 28, 29]",164.5156836,2988,2859,5,112,9,1.0
undo,61,0,0,0,0,26,"[0, 5, 26]",3,19,"[3, 4, 7, 8, 9, 11, 12, 13, 14, 15, 17, 19, 20, 21, 22, 23, 24, 25, 28]",129.0755933,6466,3478,1,27,9,1.0579955168289483
undo,61,0,0,0,0,4,"[0, 5, 26, 4]",4,15,"[3, 7, 8, 9, 11, 12, 14, 15, 17, 19, 20, 21, 23, 24, 28]",117.0339987,7073,607,1,18,9,1.168807644221424
undo,61,0,0,0,0,24,"[0, 5, 26, 4, 24]",5,12,"[3, 7, 8, 9, 11, 12, 15, 17, 19, 20, 23, 28]",105.6322444,7620,547,1,16,9,1.1650490498282802
undo,61,0,0,0,0,15,"[0, 5, 26, 4, 24, 15]",6,8,"[3, 7, 8, 9, 11, 12, 17, 19]",82.28700938,8626,1006,1,8,9,1.151743263817517
undo,61,0,0,0,0,8,"[0, 5, 26, 4, 24, 15, 8]",7,3,"[3, 7, 19]",43.17179495,9385,759,3,0,8,1.154473556189965
undo,61,0,0,0,1,7,"[0, 5, 26, 4, 24, 15, 8, 7]",8,0,[],24.06682178,10118,733,1,0,8,1.345951450237984
undo,61,0,0,1,1,7,"[0, 5, 26, 4, 24, 15, 8, 7]",8,0,[],24.06682178,11862,1744,1,0,8,1.345951450237984
undo,62,7,0,0,0,0,[0],1,29,"[1, 2, 3, 4, 5, 6, 7, 8, 9, 10, 11, 12, 13, 14, 15, 16, 17, 18, 19, 20, 21, 22, 23, 24, 25, 26, 27, 28, 29]",300,163,-1,3,79,9,0.0
undo,62,7,0,0,0,6,"[0, 6]",2,22,"[2, 4, 5, 7, 8, 9, 10, 11, 13, 14, 15, 16, 18, 19, 20, 21, 22, 23, 24, 25, 27, 28]",231.1160396,2441,2278,1,24,9,1.0
undo,62,7,0,0,0,25,"[0, 6, 25]",3,14,"[2, 4, 5, 7, 13, 14, 15, 16, 18, 19, 20, 21, 23, 28]",163.9371739,3676,1235,1,15,9,1.1491202566384209
undo,62,7,0,0,0,4,"[0, 6, 25, 4]",4,10,"[2, 7, 13, 15, 16, 18, 19, 20, 21, 23]",139.1985401,5077,1401,1,9,9,1.145081852791697
undo,62,7,0,0,0,20,"[0, 6, 25, 4, 20]",5,6,"[2, 7, 13, 16, 18, 19]",119.5516574,6328,1251,1,4,9,1.2036846139155144
undo,62,7,0,0,0,18,"[0, 6, 25, 4, 20, 18]",6,5,"[2, 7, 13, 16, 19]",106.7454089,6860,532,1,3,9,1.3498144584217913
undo,62,7,0,0,0,7,"[0, 6, 25, 4, 20, 18, 7]",7,2,"[2, 19]",65.51435269,8406,1546,1,1,9,1.2817825700699357
undo,62,7,0,0,0,19,"[0, 6, 25, 4, 20, 18, 7, 19]",8,1,[2],36.10347035,10088,1682,1,0,9,1.3950287830764145
undo,62,7,0,0,1,2,"[0, 6, 25, 4, 20, 18, 7, 19, 2]",9,0,[],5.953843486,11304,1216,1,0,9,1.4010142439340676
undo,62,7,0,1,1,2,"[0, 6, 25, 4, 20, 18, 7, 19, 2]",9,0,[],5.953843486,12311,1007,1,0,9,1.4010142439340676
undo,63,29,0,0,0,0,[0],1,29,"[1, 2, 3, 4, 5, 6, 7, 8, 9, 10, 11, 12, 13, 14, 15, 16, 17, 18, 19, 20, 21, 22, 23, 24, 25, 26, 27, 28, 29]",300,131,-1,1,78,9,0.0
undo,63,29,0,0,0,14,"[0, 14]",2,22,"[1, 3, 4, 5, 6, 7, 9, 10, 11, 12, 13, 15, 16, 17, 21, 22, 23, 25, 26, 27, 28, 29]",209.490332,6340,6209,21,110,8,1.0
undo,63,29,0,0,0,13,"[0, 14, 13]",3,18,"[1, 4, 5, 6, 7, 9, 10, 12, 15, 16, 17, 21, 22, 25, 26, 27, 28, 29]",191.4625756,8163,1823,20,75,8,1.0027006502223275
undo,63,29,0,0,0,5,"[0, 14, 13, 5]",4,15,"[1, 4, 6, 7, 9, 12, 15, 17, 21, 22, 25, 26, 27, 28, 29]",165.7526554,8988,825,19,49,8,1.0803937325657265
undo,63,29,0,0,0,22,"[0, 14, 13, 5, 22]",5,9,"[4, 6, 7, 9, 12, 26, 27, 28, 29]",111.4111427,9992,1004,7,11,8,1.6123417790752979
undo,63,29,0,0,0,27,"[0, 14, 13, 5, 22, 27]",6,5,"[6, 7, 12, 26, 28]",78.16960241,10775,783,3,3,8,2.047500445885662
undo,63,29,0,0,0,28,"[0, 14, 13, 5, 22, 27, 28]",7,2,"[6, 26]",57.65131788,11395,620,2,0,8,2.496318429266821
undo,63,29,0,0,1,6,"[0, 14, 13, 5, 22, 27, 28, 6]",8,0,[],16.42026163,12298,903,1,0,8,3.961213610880374
undo,63,29,0,1,1,6,"[0, 14, 13, 5, 22, 27, 28, 6]",8,0,[],16.42026163,13780,1482,1,0,8,3.961213610880374
undo,64,40,0,0,0,0,[0],1,29,"[1, 2, 3, 4, 5, 6, 7, 8, 9, 10, 11, 12, 13, 14, 15, 16, 17, 18, 19, 20, 21, 22, 23, 24, 25, 26, 27, 28, 29]",300,147,-1,8,191,9,0.0
undo,64,40,0,0,0,1,"[0, 1]",2,18,"[2, 5, 6, 7, 8, 9, 10, 11, 13, 15, 17, 18, 19, 21, 22, 23, 27, 29]",247.8463808,5144,4997,4,80,9,1.0
undo,64,40,0,0,0,6,"[0, 1, 6]",3,17,"[2, 5, 7, 8, 9, 10, 11, 13, 15, 17, 18, 19, 21, 22, 23, 27, 29]",227.7466295,6120,976,4,74,9,1.0459427008232034
undo,64,40,0,0,0,9,"[0, 1, 6, 9]",4,10,"[2, 5, 8, 11, 18, 19, 21, 22, 23, 27]",159.146338,7335,1215,17,39,8,1.142098432552584
undo,64,40,0,0,0,18,"[0, 1, 6, 9, 18]",5,9,"[2, 5, 8, 11, 19, 21, 22, 23, 27]",142.5933926,8051,716,13,14,8,1.3288108654802917
undo,64,40,0,0,0,5,"[0, 1, 6, 9, 18, 5]",6,7,"[2, 8, 19, 21, 22, 23, 27]",111.0180858,8815,764,5,5,8,1.5366414787972102
undo,64,40,0,0,0,23,"[0, 1, 6, 9, 18, 5, 23]",7,3,"[2, 19, 21]",82.71614241,11311,2496,3,0,8,2.2908821040631264
undo,64,40,0,0,1,19,"[0, 1, 6, 9, 18, 5, 23, 19]",8,0,[],50.76305179,12346,1035,1,0,8,2.4294131203959415
undo,64,40,0,1,1,19,"[0, 1, 6, 9, 18, 5, 23, 19]",8,0,[],50.76305179,14429,2083,1,0,8,2.4294131203959415
undo,65,15,0,0,0,0,[0],1,25,"[1, 2, 3, 4, 7, 8, 9, 10, 11, 12, 13, 14, 15, 16, 18, 20, 21, 22, 23, 24, 25, 26, 27, 28, 29]",300,147,-1,4,65,9,0.0
undo,65,15,0,0,0,16,"[0, 16]",2,16,"[3, 4, 7, 9, 10, 11, 12, 13, 14, 15, 18, 20, 21, 22, 25, 27]",185.8378346,4292,4145,22,104,7,1.0
undo,65,15,0,0,0,11,"[0, 16, 11]",3,13,"[3, 4, 7, 10, 12, 13, 14, 15, 18, 21, 22, 25, 27]",159.818611,5740,1448,10,29,7,1.1289542380807378
undo,65,15,0,0,0,3,"[0, 16, 11, 3]",4,12,"[4, 7, 10, 12, 13, 14, 15, 18, 21, 22, 25, 27]",148.4168567,6976,1236,10,12,7,1.14507593159006
undo,65,15,0,0,0,22,"[0, 16, 11, 3, 22]",5,6,"[4, 10, 13, 14, 15, 18]",98.68758969,9124,2148,4,4,7,1.1668569176120651
undo,65,15,0,0,0,13,"[0, 16, 11, 3, 22, 13]",6,2,"[15, 18]",70.52733401,10524,1400,2,0,7,1.1454177720584275
undo,65,15,0,0,1,18,"[0, 16, 11, 3, 22, 13, 18]",7,0,[],8.237687998,11789,1265,1,0,7,1.236103445759195
undo,65,15,0,1,1,18,"[0, 16, 11, 3, 22, 13, 18]",7,0,[],8.237687998,13264,1475,1,0,7,1.236103445759195
undo,66,26,0,0,0,0,[0],1,29,"[1, 2, 3, 4, 5, 6, 7, 8, 9, 10, 11, 12, 13, 14, 15, 16, 17, 18, 19, 20, 21, 22, 23, 24, 25, 26, 27, 28, 29]",300,164,-1,9,226,9,0.0
undo,66,26,0,0,0,12,"[0, 12]",2,26,"[1, 2, 3, 4, 5, 6, 8, 10, 11, 13, 14, 15, 16, 17, 18, 19, 20, 21, 22, 23, 24, 25, 26, 27, 28, 29]",279.8753882,4240,4076,2,80,9,1.0
undo,66,26,0,0,0,16,"[0, 12, 16]",3,12,"[4, 5, 6, 10, 11, 13, 14, 17, 21, 23, 26, 29]",152.8281529,7017,2777,1,35,9,1.3146633244997343
undo,66,26,0,0,0,29,"[0, 12, 16, 29]",4,9,"[4, 5, 6, 10, 13, 14, 17, 21, 23]",128.620716,7704,687,1,28,9,1.4025825138871748
undo,66,26,0,0,0,4,"[0, 12, 16, 29, 4]",5,6,"[6, 10, 14, 17, 21, 23]",104.620716,8572,868,1,12,9,1.6120095703050636
undo,66,26,0,0,0,17,"[0, 12, 16, 29, 4, 17]",6,3,"[6, 10, 14]",83.52569291,9274,702,1,4,9,1.5235227867063668
undo,66,26,0,0,0,14,"[0, 12, 16, 29, 4, 17, 14]",7,2,"[6, 10]",61.05348785,9988,714,1,1,9,1.4827390340429785
undo,66,26,0,0,0,6,"[0, 12, 16, 29, 4, 17, 14, 6]",8,1,[10],40.02969181,10963,975,1,0,9,1.6186299234650392
undo,66,26,0,0,1,10,"[0, 12, 16, 29, 4, 17, 14, 6, 10]",9,0,[],10.75512948,11860,897,1,0,9,1.7874725321428664
undo,66,26,0,1,1,10,"[0, 12, 16, 29, 4, 17, 14, 6, 10]",9,0,[],10.75512948,12946,1086,1,0,9,1.7874725321428664
undo,67,38,0,0,0,0,[0],1,29,"[1, 2, 3, 4, 5, 6, 7, 8, 9, 10, 11, 12, 13, 14, 15, 16, 17, 18, 19, 20, 21, 22, 23, 24, 25, 26, 27, 28, 29]",300,132,-1,33,506,9,0.0
undo,67,38,0,0,0,15,"[0, 15]",2,24,"[1, 2, 3, 4, 5, 6, 7, 10, 11, 12, 13, 14, 16, 17, 18, 19, 20, 21, 22, 24, 25, 26, 27, 28]",226.6242547,4613,4481,26,315,8,1.0
undo,67,38,0,0,0,4,"[0, 15, 4]",3,21,"[1, 3, 5, 6, 7, 10, 11, 12, 13, 14, 16, 17, 18, 19, 20, 22, 24, 25, 26, 27, 28]",200.6242547,6967,2354,13,104,8,1.4173413634934033
undo,67,38,0,0,0,20,"[0, 15, 4, 20]",4,16,"[3, 5, 6, 7, 11, 13, 14, 16, 17, 18, 19, 22, 24, 26, 27, 28]",166.6831292,7841,874,6,33,8,2.4756321407912334
undo,67,38,0,0,0,17,"[0, 15, 4, 20, 17]",5,13,"[3, 5, 6, 11, 13, 16, 18, 19, 22, 24, 26, 27, 28]",142.9134005,8542,701,5,14,8,2.4236103458312424
undo,67,38,0,0,0,19,"[0, 15, 4, 20, 17, 19]",6,7,"[3, 6, 13, 18, 22, 26, 27]",121.5358422,10369,1827,4,4,8,2.216988824378052
undo,67,38,0,0,0,13,"[0, 15, 4, 20, 17, 19, 13]",7,1,[26],44.84164426,11610,1241,1,0,8,2.610460802264847
undo,67,38,0,0,1,26,"[0, 15, 4, 20, 17, 19, 13, 26]",8,0,[],13.79329487,12353,743,1,0,8,2.2733440683458648
undo,67,38,0,1,1,26,"[0, 15, 4, 20, 17, 19, 13, 26]",8,0,[],13.79329487,13597,1244,1,0,8,2.2733440683458648
undo,68,19,0,0,0,0,[0],1,29,"[1, 2, 3, 4, 5, 6, 7, 8, 9, 10, 11, 12, 13, 14, 15, 16, 17, 18, 19, 20, 21, 22, 23, 24, 25, 26, 27, 28, 29]",300,179,-1,12,149,8,0.0
undo,68,19,0,0,0,28,"[0, 28]",2,10,"[4, 6, 9, 10, 11, 14, 20, 22, 24, 27]",136.1219966,8081,7902,2,14,7,1.0
undo,68,19,0,0,0,4,"[0, 28, 4]",3,9,"[6, 9, 10, 11, 14, 20, 22, 24, 27]",124.9416567,8601,520,2,10,7,1.0622089009735736
undo,68,19,0,0,0,11,"[0, 28, 4, 11]",4,4,"[14, 20, 22, 24]",66.80388929,9556,955,4,1,6,1.0635812936430165
undo,68,19,0,0,0,14,"[0, 28, 4, 11, 14]",5,2,"[20, 22]",55.98723547,10190,634,2,0,6,1.1668442100538934
undo,68,19,0,0,1,20,"[0, 28, 4, 11, 14, 20]",6,0,[],10.33638662,15684,5494,1,0,6,1.2812459522885806
undo,68,19,1,0,0,14,"[0, 28, 4, 11, 14]",5,2,"[20, 22]",55.98723547,19560,3876,2,0,6,1.1668442100538934
undo,68,19,1,0,0,11,"[0, 28, 4, 11]",4,4,"[14, 20, 22, 24]",66.80388929,19728,168,4,1,6,1.0635812936430165
undo,68,19,1,0,0,4,"[0, 28, 4]",3,9,"[6, 9, 10, 11, 14, 20, 22, 24, 27]",124.9416567,19894,166,2,10,7,1.0622089009735736
undo,68,19,1,0,0,28,"[0, 28]",2,10,"[4, 6, 9, 10, 11, 14, 20, 22, 24, 27]",136.1219966,20177,283,2,14,7,1.0
undo,68,19,1,0,0,0,[0],1,29,"[1, 2, 3, 4, 5, 6, 7, 8, 9, 10, 11, 12, 13, 14, 15, 16, 17, 18, 19, 20, 21, 22, 23, 24, 25, 26, 27, 28, 29]",300,20511,334,12,149,8,0.0
undo,68,19,0,0,0,12,"[0, 12]",2,15,"[1, 2, 3, 5, 8, 9, 13, 16, 17, 18, 19, 21, 23, 25, 29]",180.3964883,22956,2445,9,58,7,1.0
undo,68,19,0,0,0,25,"[0, 12, 25]",3,11,"[1, 2, 3, 8, 13, 16, 17, 18, 19, 23, 29]",163.2792456,23697,741,3,32,7,1.002593021312995
undo,68,19,0,0,0,17,"[0, 12, 25, 17]",4,10,"[1, 2, 3, 8, 13, 16, 18, 19, 23, 29]",152.2338846,25330,1633,3,14,7,1.0661324787663027
undo,68,19,0,0,0,2,"[0, 12, 25, 17, 2]",5,3,"[3, 8, 23]",84.20447915,26279,949,3,0,6,1.0481687538232383
undo,68,19,0,0,1,8,"[0, 12, 25, 17, 2, 8]",6,0,[],18.71402183,27302,1023,1,0,6,1.2908324139249414
undo,68,19,0,1,1,8,"[0, 12, 25, 17, 2, 8]",6,0,[],18.71402183,28942,1640,1,0,6,1.2908324139249414
basic,69,14,0,0,0,0,[0],1,29,"[1, 2, 3, 4, 5, 6, 7, 8, 9, 10, 11, 12, 13, 14, 15, 16, 17, 18, 19, 20, 21, 22, 23, 24, 25, 26, 27, 28, 29]",300,165,-1,8,157,10,0.0
basic,69,14,0,0,0,18,"[0, 18]",2,17,"[1, 2, 3, 4, 7, 8, 9, 13, 15, 17, 19, 20, 22, 23, 25, 26, 28]",179.8958785,3571,3406,18,136,9,1.0
basic,69,14,0,0,0,8,"[0, 18, 8]",3,13,"[1, 2, 4, 7, 13, 15, 17, 19, 20, 23, 25, 26, 28]",166.294408,4017,446,18,99,9,1.0203858410107731
basic,69,14,0,0,0,19,"[0, 18, 8, 19]",4,10,"[1, 2, 4, 7, 15, 17, 23, 25, 26, 28]",145.6788799,5077,1060,7,52,9,1.0436397834807676
basic,69,14,0,0,0,1,"[0, 18, 8, 19, 1]",5,9,"[2, 4, 7, 15, 17, 23, 25, 26, 28]",130.4473337,5700,623,7,21,9,1.096538583531719
basic,69,14,0,0,0,26,"[0, 18, 8, 19, 1, 26]",6,4,"[4, 7, 23, 25]",75.70247088,6702,1002,2,4,9,1.1305399427709442
basic,69,14,0,0,0,23,"[0, 18, 8, 19, 1, 26, 23]",7,3,"[4, 7, 25]",64.88581706,7338,636,2,1,9,1.2508020127641972
basic,69,14,0,0,0,25,"[0, 18, 8, 19, 1, 26, 23, 25]",8,1,[7],35.47493472,8004,666,1,0,9,1.6160852369336203
basic,69,14,0,0,1,7,"[0, 18, 8, 19, 1, 26, 23, 25, 7]",9,0,[],15.77721911,8801,797,1,0,9,1.6274549091166954
basic,69,14,0,1,1,7,"[0, 18, 8, 19, 1, 26, 23, 25, 7]",9,0,[],15.77721911,10247,1446,1,0,9,1.6274549091166954
basic,70,13,0,0,0,0,[0],1,29,"[1, 2, 3, 4, 5, 6, 7, 8, 9, 10, 11, 12, 13, 14, 15, 16, 17, 18, 19, 20, 21, 22, 23, 24, 25, 26, 27, 28, 29]",300,132,-1,60,2676,11,0.0
basic,70,13,0,0,0,24,"[0, 24]",2,28,"[1, 2, 3, 4, 5, 6, 7, 8, 9, 10, 11, 12, 13, 14, 15, 16, 17, 18, 19, 20, 21, 22, 23, 25, 26, 27, 28, 29]",288.8196601,3224,3092,16,1444,11,1.0
basic,70,13,0,0,0,28,"[0, 24, 28]",3,23,"[1, 2, 3, 4, 6, 7, 8, 9, 10, 11, 12, 13, 15, 16, 17, 19, 20, 21, 22, 23, 26, 27, 29]",222.5324064,4318,1094,8,243,11,1.0513810491680837
basic,70,13,0,0,0,2,"[0, 24, 28, 2]",4,19,"[1, 3, 4, 6, 7, 9, 11, 12, 13, 15, 16, 17, 19, 20, 21, 23, 26, 27, 29]",184.889346,5097,779,7,110,11,1.050374132001543
basic,70,13,0,0,0,29,"[0, 24, 28, 2, 29]",5,18,"[1, 3, 4, 6, 7, 9, 11, 12, 13, 15, 16, 17, 19, 20, 21, 23, 26, 27]",173.1846461,5938,841,7,85,11,1.1393409619120594
basic,70,13,0,0,0,7,"[0, 24, 28, 2, 29, 7]",6,17,"[1, 3, 4, 6, 9, 11, 12, 13, 15, 16, 17, 19, 20, 21, 23, 26, 27]",157.9203086,6873,935,5,45,11,1.349777315111579
