condition,trial_id,map_id,undoIndicator,submit,checkEnd,currentChoice,chosen_all,n_city_all,n_within_reach,cities_reach,currentBudget,time_all,rt_all,n_opt_paths_all,n_subopt_paths_all,mas_all,tortuosity_all
basic,0,42,0,0,0,0,[0],1,29,"[1, 2, 3, 4, 5, 6, 7, 8, 9, 10, 11, 12, 13, 14, 15, 16, 17, 18, 19, 20, 21, 22, 23, 24, 25, 26, 27, 28, 29]",300,132,-1,16,302,9,0.0
basic,0,42,0,0,0,22,"[0, 22]",2,27,"[1, 2, 3, 4, 5, 6, 7, 8, 9, 10, 11, 12, 13, 15, 16, 17, 18, 19, 20, 21, 23, 24, 25, 26, 27, 28, 29]",211.3997743,3078,2946,5,83,9,1.0
basic,0,42,0,0,0,8,"[0, 22, 8]",3,24,"[1, 2, 3, 4, 5, 6, 7, 9, 10, 11, 13, 15, 17, 18, 19, 20, 21, 23, 24, 25, 26, 27, 28, 29]",189.2638306,4758,1680,19,88,8,1.029936807841886
basic,0,42,0,0,0,1,"[0, 22, 8, 1]",4,14,"[2, 3, 4, 5, 6, 7, 10, 15, 18, 19, 24, 26, 27, 28]",140.1720798,5801,1043,13,34,8,1.0263530486295833
basic,0,42,0,0,0,7,"[0, 22, 8, 1, 7]",5,10,"[2, 4, 5, 6, 15, 19, 24, 26, 27, 28]",110.1720798,6870,1069,12,8,8,1.0957893919232085
basic,0,42,0,0,0,2,"[0, 22, 8, 1, 7, 2]",6,5,"[6, 19, 26, 27, 28]",70.95473671,7957,1087,2,3,8,1.1954111230881679
basic,0,42,0,0,0,19,"[0, 22, 8, 1, 7, 2, 19]",7,1,[26],39.18997636,9319,1362,1,0,8,1.206148995002556
basic,0,42,0,0,1,26,"[0, 22, 8, 1, 7, 2, 19, 26]",8,0,[],4.304449275,10522,1203,1,0,8,1.4934118723484848
basic,0,42,0,1,1,26,"[0, 22, 8, 1, 7, 2, 19, 26]",8,0,[],4.304449275,11915,1393,1,0,8,1.4934118723484848
basic,1,28,0,0,0,0,[0],1,27,"[1, 2, 3, 4, 5, 6, 7, 8, 9, 10, 11, 12, 13, 14, 15, 16, 17, 18, 19, 20, 22, 23, 25, 26, 27, 28, 29]",300,165,-1,2,96,9,0.0
basic,1,28,0,0,0,5,"[0, 5]",2,21,"[2, 3, 4, 6, 7, 8, 9, 10, 11, 12, 13, 14, 15, 18, 19, 20, 23, 25, 26, 28, 29]",169.6427984,2168,2003,4,42,8,1.0
basic,1,28,0,0,0,26,"[0, 5, 26]",3,15,"[2, 3, 4, 7, 8, 9, 12, 13, 14, 15, 18, 19, 20, 25, 28]",136.8861197,2834,666,4,35,8,1.0149913611821164
basic,1,28,0,0,0,19,"[0, 5, 26, 19]",4,7,"[2, 7, 9, 12, 13, 14, 18]",95.88611973,3904,1070,3,16,8,1.1179162815331476
basic,1,28,0,0,0,7,"[0, 5, 26, 19, 7]",5,5,"[2, 12, 13, 14, 18]",68.15527048,4536,632,2,5,8,1.1835592656658687
basic,1,28,0,0,0,12,"[0, 5, 26, 19, 7, 12]",6,2,"[13, 18]",55.00232404,5641,1105,1,1,8,1.1891830098953253
basic,1,28,0,0,0,13,"[0, 5, 26, 19, 7, 12, 13]",7,1,[18],37.79767351,6376,735,1,0,8,1.3761105369117108
basic,1,28,0,0,1,18,"[0, 5, 26, 19, 7, 12, 13, 18]",8,0,[],13.38456227,7336,960,1,0,8,1.7228206627692229
basic,1,28,0,1,1,18,"[0, 5, 26, 19, 7, 12, 13, 18]",8,0,[],13.38456227,8581,1245,1,0,8,1.7228206627692229
basic,2,26,0,0,0,0,[0],1,29,"[1, 2, 3, 4, 5, 6, 7, 8, 9, 10, 11, 12, 13, 14, 15, 16, 17, 18, 19, 20, 21, 22, 23, 24, 25, 26, 27, 28, 29]",300,131,-1,9,226,9,0.0
basic,2,26,0,0,0,16,"[0, 16]",2,17,"[3, 4, 5, 6, 10, 11, 12, 13, 14, 17, 18, 19, 21, 22, 23, 26, 29]",188.0535842,2068,1937,34,176,8,1.0
basic,2,26,0,0,0,29,"[0, 16, 29]",3,12,"[4, 5, 6, 10, 12, 13, 14, 17, 19, 21, 23, 26]",163.8461474,2904,836,32,68,8,1.1142946124989752
basic,2,26,0,0,0,4,"[0, 16, 29, 4]",4,9,"[5, 6, 10, 12, 13, 14, 17, 21, 23]",139.8461474,4096,1192,17,7,8,1.3213762371676339
basic,2,26,0,0,0,17,"[0, 16, 29, 4, 17]",5,5,"[6, 10, 14, 21, 23]",118.7511243,4873,777,6,0,8,1.2756100061290643
basic,2,26,0,0,0,14,"[0, 16, 29, 4, 17, 14]",6,2,"[6, 10]",96.27891921,6618,1745,2,0,8,1.264154039440982
basic,2,26,0,0,0,6,"[0, 16, 29, 4, 17, 14, 6]",7,1,[10],75.25512317,7665,1047,1,0,8,1.3993089646092733
basic,2,26,0,0,1,10,"[0, 16, 29, 4, 17, 14, 6, 10]",8,0,[],45.98056083,8334,669,1,0,8,1.5697867669370302
basic,2,26,0,1,1,10,"[0, 16, 29, 4, 17, 14, 6, 10]",8,0,[],45.98056083,9648,1314,1,0,8,1.5697867669370302
basic,3,19,0,0,0,0,[0],1,29,"[1, 2, 3, 4, 5, 6, 7, 8, 9, 10, 11, 12, 13, 14, 15, 16, 17, 18, 19, 20, 21, 22, 23, 24, 25, 26, 27, 28, 29]",300,164,-1,12,149,8,0.0
basic,3,19,0,0,0,9,"[0, 9]",2,21,"[1, 4, 5, 6, 7, 10, 11, 12, 13, 14, 15, 19, 20, 21, 22, 23, 24, 25, 27, 28, 29]",185.9956141,2818,2654,13,76,7,1.0
basic,3,19,0,0,0,6,"[0, 9, 6]",3,13,"[4, 7, 10, 11, 13, 14, 20, 21, 22, 24, 27, 28, 29]",144.5589154,3710,892,13,38,7,1.0111071984935167
basic,3,19,0,0,0,4,"[0, 9, 6, 4]",4,7,"[10, 11, 14, 20, 22, 27, 28]",103.5101639,5353,1643,2,8,7,1.1922496747189233
basic,3,19,0,0,0,28,"[0, 9, 6, 4, 28]",5,4,"[11, 14, 22, 27]",92.32982402,7390,2037,2,2,7,1.2672242257358344
basic,3,19,0,0,1,27,"[0, 9, 6, 4, 28, 27]",6,0,[],39.92753399,8246,856,1,0,6,1.6700847262478309
basic,3,19,0,1,1,27,"[0, 9, 6, 4, 28, 27]",6,0,[],39.92753399,9581,1335,1,0,6,1.6700847262478309
basic,4,16,0,0,0,0,[0],1,29,"[1, 2, 3, 4, 5, 6, 7, 8, 9, 10, 11, 12, 13, 14, 15, 16, 17, 18, 19, 20, 21, 22, 23, 24, 25, 26, 27, 28, 29]",300,131,-1,13,161,9,0.0
basic,4,16,0,0,0,17,"[0, 17]",2,27,"[1, 2, 3, 4, 5, 7, 8, 9, 10, 11, 12, 13, 14, 15, 16, 18, 19, 20, 21, 22, 23, 24, 25, 26, 27, 28, 29]",241.3058776,4668,4537,2,58,9,1.0
basic,4,16,0,0,0,16,"[0, 17, 16]",3,26,"[1, 2, 3, 4, 5, 7, 8, 9, 10, 11, 12, 13, 14, 15, 18, 19, 20, 21, 22, 23, 24, 25, 26, 27, 28, 29]",212.9862731,5385,717,2,52,9,1.0529535521792848
basic,4,16,0,0,0,21,"[0, 17, 16, 21]",4,19,"[3, 5, 7, 8, 9, 10, 12, 14, 15, 19, 20, 22, 23, 24, 25, 26, 27, 28, 29]",168.332046,6991,1606,9,18,8,1.5524765786046826
basic,4,16,0,0,0,8,"[0, 17, 16, 21, 8]",5,7,"[3, 5, 9, 12, 15, 20, 25]",119.0776046,8159,1168,9,6,8,1.458624751458944
basic,4,16,0,0,0,20,"[0, 17, 16, 21, 8, 20]",6,3,"[9, 15, 25]",61.30217727,9622,1463,4,1,8,1.3191752290945782
basic,4,16,0,0,0,25,"[0, 17, 16, 21, 8, 20, 25]",7,2,"[9, 15]",48.65306663,10478,856,2,0,8,1.3641436248537882
basic,4,16,0,0,1,9,"[0, 17, 16, 21, 8, 20, 25, 9]",8,0,[],35.84681815,11671,1193,1,0,8,1.3406027753205443
basic,4,16,0,1,1,9,"[0, 17, 16, 21, 8, 20, 25, 9]",8,0,[],35.84681815,13232,1561,1,0,8,1.3406027753205443
basic,5,44,0,0,0,0,[0],1,29,"[1, 2, 3, 4, 5, 6, 7, 8, 9, 10, 11, 12, 13, 14, 15, 16, 17, 18, 19, 20, 21, 22, 23, 24, 25, 26, 27, 28, 29]",300,131,-1,13,126,7,0.0
basic,5,44,0,0,0,9,"[0, 9]",2,17,"[2, 4, 5, 7, 8, 10, 11, 12, 13, 14, 20, 22, 23, 24, 25, 26, 28]",141.32423,3501,3370,3,26,7,1.0
basic,5,44,0,0,0,4,"[0, 9, 4]",3,15,"[2, 5, 7, 8, 10, 11, 12, 14, 20, 22, 23, 24, 25, 26, 28]",121.6265143,4636,1135,3,21,7,1.0155532843148096
basic,5,44,0,0,0,7,"[0, 9, 4, 7]",4,10,"[2, 5, 11, 12, 14, 23, 24, 25, 26, 28]",90.61038951,5535,899,3,9,7,1.0134022837125412
basic,5,44,0,0,0,23,"[0, 9, 4, 7, 23]",5,7,"[5, 12, 14, 24, 25, 26, 28]",71.50541634,6473,938,3,4,7,1.043310757564056
basic,5,44,0,0,0,5,"[0, 9, 4, 7, 23, 5]",6,1,[25],24.08179353,7709,1236,1,0,7,1.0875233835918032
basic,5,44,0,0,1,25,"[0, 9, 4, 7, 23, 5, 25]",7,0,[],13.64148702,8744,1035,1,0,7,1.1344779809947538
basic,5,44,0,1,1,25,"[0, 9, 4, 7, 23, 5, 25]",7,0,[],13.64148702,9948,1204,1,0,7,1.1344779809947538
basic,6,9,0,0,0,0,[0],1,27,"[1, 3, 4, 5, 6, 7, 8, 9, 10, 11, 13, 14, 15, 16, 17, 18, 19, 20, 21, 22, 23, 24, 25, 26, 27, 28, 29]",300,132,-1,2,182,10,0.0
basic,6,9,0,0,0,25,"[0, 25]",2,24,"[1, 3, 4, 5, 6, 7, 8, 9, 10, 11, 13, 15, 16, 17, 18, 19, 20, 21, 22, 23, 24, 26, 27, 28]",275.9168108,3085,2953,2,104,10,1.0
basic,6,9,0,0,0,10,"[0, 25, 10]",3,20,"[3, 4, 5, 7, 8, 9, 11, 13, 15, 16, 17, 18, 19, 20, 21, 22, 23, 26, 27, 28]",236.0670932,4075,990,2,76,10,1.1767014107208227
basic,6,9,0,0,0,8,"[0, 25, 10, 8]",4,19,"[3, 4, 5, 7, 9, 11, 13, 15, 16, 17, 18, 19, 20, 21, 22, 23, 26, 27, 28]",187.6935467,6019,1944,1,29,10,1.7608170712242983
basic,6,9,0,0,0,28,"[0, 25, 10, 8, 28]",5,18,"[3, 4, 5, 7, 9, 11, 13, 15, 16, 17, 18, 19, 20, 21, 22, 23, 26, 27]",176.8768928,6671,652,1,15,10,1.6576318206889098
basic,6,9,0,0,0,23,"[0, 25, 10, 8, 28, 23]",6,12,"[3, 4, 7, 9, 11, 18, 19, 20, 21, 22, 26, 27]",151.8569008,7519,848,1,7,10,2.488131366775142
basic,6,9,0,0,0,9,"[0, 25, 10, 8, 28, 23, 9]",7,10,"[3, 4, 7, 11, 18, 19, 20, 21, 26, 27]",129.4962211,9439,1920,1,5,10,2.289724512754012
basic,6,9,0,0,0,26,"[0, 25, 10, 8, 28, 23, 9, 26]",8,3,"[18, 20, 21]",72.8481849,10523,1084,1,2,10,1.944382504121744
basic,6,9,0,1,0,26,"[0, 25, 10, 8, 28, 23, 9, 26]",8,3,"[18, 20, 21]",72.8481849,11865,1342,1,2,10,1.944382504121744
basic,7,5,0,0,0,0,[0],1,29,"[1, 2, 3, 4, 5, 6, 7, 8, 9, 10, 11, 12, 13, 14, 15, 16, 17, 18, 19, 20, 21, 22, 23, 24, 25, 26, 27, 28, 29]",300,131,-1,5,139,9,0.0
basic,7,5,0,0,0,13,"[0, 13]",2,23,"[1, 2, 3, 4, 6, 7, 8, 9, 11, 12, 16, 17, 19, 20, 21, 22, 23, 24, 25, 26, 27, 28, 29]",195.2622322,4751,4620,4,29,7,1.0
basic,7,5,0,0,0,9,"[0, 13, 9]",3,15,"[1, 3, 7, 8, 11, 19, 20, 21, 22, 23, 24, 25, 27, 28, 29]",169.6497353,7696,2945,4,16,7,1.0192950630434863
basic,7,5,0,0,0,3,"[0, 13, 9, 3]",4,6,"[1, 11, 20, 27, 28, 29]",112.0910695,8851,1155,3,3,7,1.0153680018052629
basic,7,5,0,0,0,11,"[0, 13, 9, 3, 11]",5,2,"[1, 20]",64.41507978,10196,1345,2,0,7,1.2528277363486462
basic,7,5,0,0,0,20,"[0, 13, 9, 3, 11, 20]",6,1,[1],49.11802124,10848,652,1,0,7,1.3070670520086924
basic,7,5,0,0,1,1,"[0, 13, 9, 3, 11, 20, 1]",7,0,[],20.95776556,11718,870,1,0,7,1.6788766832894417
basic,7,5,0,1,1,1,"[0, 13, 9, 3, 11, 20, 1]",7,0,[],20.95776556,12931,1213,1,0,7,1.6788766832894417
basic,8,15,0,0,0,0,[0],1,25,"[1, 2, 3, 4, 7, 8, 9, 10, 11, 12, 13, 14, 15, 16, 18, 20, 21, 22, 23, 24, 25, 26, 27, 28, 29]",300,131,-1,4,65,9,0.0
basic,8,15,0,0,0,7,"[0, 7]",2,23,"[1, 3, 4, 8, 9, 10, 11, 12, 13, 14, 15, 16, 18, 20, 21, 22, 23, 24, 25, 26, 27, 28, 29]",215.1884442,2609,2478,30,107,8,1.0
basic,8,15,0,0,0,16,"[0, 7, 16]",3,14,"[3, 4, 9, 10, 11, 12, 13, 14, 15, 18, 21, 22, 25, 27]",171.5306843,3513,904,11,27,8,1.1253230463291073
basic,8,15,0,0,0,11,"[0, 7, 16, 11]",4,10,"[3, 4, 12, 13, 14, 15, 18, 21, 22, 27]",145.5114606,4777,1264,6,10,8,1.2441772230587118
basic,8,15,0,0,0,3,"[0, 7, 16, 11, 3]",5,8,"[4, 12, 13, 14, 15, 18, 21, 22]",134.1097064,5368,591,6,4,8,1.253153736954923
basic,8,15,0,0,0,22,"[0, 7, 16, 11, 3, 22]",6,5,"[4, 13, 14, 15, 18]",84.38043933,6467,1099,2,3,8,1.249784727890499
basic,8,15,0,0,0,13,"[0, 7, 16, 11, 3, 22, 13]",7,1,[15],56.22018365,7589,1122,1,0,8,1.2168322223118198
basic,8,15,0,0,1,15,"[0, 7, 16, 11, 3, 22, 13, 15]",8,0,[],40.95584612,9202,1613,1,0,8,1.3190981999760136
basic,8,15,0,1,1,15,"[0, 7, 16, 11, 3, 22, 13, 15]",8,0,[],40.95584612,10931,1729,1,0,8,1.3190981999760136
basic,9,4,0,0,0,0,[0],1,26,"[3, 4, 5, 6, 7, 8, 10, 11, 12, 13, 14, 15, 16, 17, 18, 19, 20, 21, 22, 23, 24, 25, 26, 27, 28, 29]",300,148,-1,4,489,10,0.0
basic,9,4,0,0,0,28,"[0, 28]",2,21,"[3, 4, 5, 6, 10, 11, 12, 13, 14, 15, 16, 17, 19, 20, 21, 22, 23, 24, 25, 26, 27]",225.9392142,2020,1872,2,216,10,1.0
basic,9,4,0,0,0,14,"[0, 28, 14]",3,13,"[3, 4, 5, 6, 11, 13, 16, 17, 20, 21, 22, 24, 25]",159.6972335,3252,1232,1,26,10,1.0273973946789214
basic,9,4,0,0,0,25,"[0, 28, 14, 25]",4,12,"[3, 4, 5, 6, 11, 13, 16, 17, 20, 21, 22, 24]",143.572718,4741,1489,1,25,10,1.233547772313525
basic,9,4,0,0,0,11,"[0, 28, 14, 25, 11]",5,10,"[3, 4, 5, 6, 13, 16, 17, 20, 21, 22]",124.7844238,5361,620,1,15,10,1.425978575879479
basic,9,4,0,0,0,16,"[0, 28, 14, 25, 11, 16]",6,9,"[3, 4, 5, 6, 13, 17, 20, 21, 22]",109.7844238,6093,732,1,12,10,1.3799325158051412
basic,9,4,0,0,0,17,"[0, 28, 14, 25, 11, 16, 17]",7,5,"[3, 5, 20, 21, 22]",83.70761416,7365,1272,1,5,10,1.3195184878861832
basic,9,4,0,0,0,20,"[0, 28, 14, 25, 11, 16, 17, 20]",8,3,"[5, 21, 22]",43.48324344,8249,884,1,2,10,1.4038284317031835
basic,9,4,0,0,1,5,"[0, 28, 14, 25, 11, 16, 17, 20, 5]",9,0,[],13.06943079,9148,899,1,0,9,1.4533021046455652
basic,9,4,0,1,1,5,"[0, 28, 14, 25, 11, 16, 17, 20, 5]",9,0,[],13.06943079,10415,1267,1,0,9,1.4533021046455652
basic,10,45,0,0,0,0,[0],1,24,"[1, 2, 3, 4, 5, 6, 7, 9, 10, 11, 12, 14, 15, 16, 17, 19, 20, 21, 22, 23, 24, 25, 27, 29]",300,131,-1,6,248,10,0.0
basic,10,45,0,0,0,15,"[0, 15]",2,23,"[1, 2, 3, 4, 5, 6, 7, 9, 10, 11, 12, 14, 16, 17, 19, 20, 21, 22, 23, 24, 25, 27, 29]",253.9022777,3859,3728,5,207,10,1.0
basic,10,45,0,0,0,23,"[0, 15, 23]",3,22,"[1, 2, 3, 4, 5, 6, 7, 9, 10, 11, 12, 14, 16, 17, 19, 20, 21, 22, 24, 25, 27, 29]",230.3014303,4795,936,5,163,10,1.0006068457769497
basic,10,45,0,0,0,20,"[0, 15, 23, 20]",4,19,"[1, 2, 3, 5, 6, 7, 9, 10, 11, 12, 14, 16, 17, 19, 21, 22, 24, 25, 29]",188.8647316,6130,1335,5,137,10,1.2062119754673604
basic,10,45,0,0,0,10,"[0, 15, 23, 20, 10]",5,12,"[2, 3, 6, 7, 9, 12, 14, 17, 22, 24, 25, 29]",132.784432,7301,1171,1,54,10,1.1363907740691004
basic,10,45,0,0,0,6,"[0, 15, 23, 20, 10, 6]",6,7,"[2, 3, 7, 12, 22, 24, 29]",106.5356225,8986,1685,20,9,9,1.12325622461992
basic,10,45,0,0,0,12,"[0, 15, 23, 20, 10, 6, 12]",7,4,"[2, 3, 22, 29]",86.4110107,9571,585,6,1,9,1.1241525752631578
basic,10,45,0,0,0,22,"[0, 15, 23, 20, 10, 6, 12, 22]",8,2,"[3, 29]",54.83570389,10772,1201,2,0,9,1.1537558546242075
basic,10,45,0,0,1,3,"[0, 15, 23, 20, 10, 6, 12, 22, 3]",9,0,[],11.37307626,12051,1279,1,0,9,1.6089547146201597
basic,10,45,0,1,1,3,"[0, 15, 23, 20, 10, 6, 12, 22, 3]",9,0,[],11.37307626,13748,1697,1,0,9,1.6089547146201597
basic,11,25,0,0,0,0,[0],1,28,"[1, 2, 3, 4, 5, 7, 8, 9, 10, 11, 12, 13, 14, 15, 16, 17, 18, 19, 20, 21, 22, 23, 24, 25, 26, 27, 28, 29]",300,132,-1,5,94,10,0.0
basic,11,25,0,0,0,23,"[0, 23]",2,23,"[1, 2, 3, 5, 7, 8, 9, 11, 12, 13, 14, 16, 17, 19, 20, 21, 22, 24, 25, 26, 27, 28, 29]",259.7756293,5448,5316,3,33,10,1.0
basic,11,25,0,0,0,19,"[0, 23, 19]",3,21,"[1, 2, 3, 5, 7, 8, 9, 11, 12, 13, 14, 16, 17, 20, 21, 22, 24, 25, 27, 28, 29]",223.9287326,6208,760,3,24,10,1.583101227007039
basic,11,25,0,0,0,29,"[0, 23, 19, 29]",4,19,"[1, 2, 3, 5, 7, 8, 9, 11, 12, 13, 14, 16, 17, 20, 21, 22, 24, 25, 28]",207.649912,9636,3428,3,17,10,1.474631541426484
basic,11,25,0,0,0,22,"[0, 23, 19, 29, 22]",5,18,"[1, 2, 3, 5, 7, 8, 9, 11, 12, 13, 14, 16, 17, 20, 21, 24, 25, 28]",191.5253965,10385,749,3,14,10,1.4020377754906637
basic,11,25,0,0,0,7,"[0, 23, 19, 29, 22, 7]",6,7,"[3, 8, 9, 11, 13, 24, 28]",115.8814939,11554,1169,3,11,10,1.5709678649326715
basic,11,25,0,0,0,24,"[0, 23, 19, 29, 22, 7, 24]",7,5,"[3, 8, 9, 13, 28]",91.12265712,12545,991,3,7,10,1.486191600033379
basic,11,25,0,0,0,9,"[0, 23, 19, 29, 22, 7, 24, 9]",8,4,"[3, 8, 13, 28]",73.09490075,13570,1025,3,3,10,1.453504870342882
basic,11,25,0,0,0,3,"[0, 23, 19, 29, 22, 7, 24, 9, 3]",9,3,"[8, 13, 28]",42.82940885,14449,879,3,0,10,1.388955167525479
basic,11,25,0,0,1,28,"[0, 23, 19, 29, 22, 7, 24, 9, 3, 28]",10,0,[],11.52445716,15361,912,1,0,10,1.3331084120212044
basic,11,25,0,1,1,28,"[0, 23, 19, 29, 22, 7, 24, 9, 3, 28]",10,0,[],11.52445716,16549,1188,1,0,10,1.3331084120212044
basic,12,30,0,0,0,0,[0],1,19,"[3, 4, 5, 7, 9, 11, 16, 17, 18, 19, 20, 21, 22, 24, 25, 26, 27, 28, 29]",300,148,-1,5,41,8,0.0
basic,12,30,0,0,0,27,"[0, 27]",2,10,"[3, 5, 7, 9, 18, 19, 20, 24, 25, 29]",90.59608409,6182,6034,7,22,6,1.0
basic,12,30,0,0,0,3,"[0, 27, 3]",3,8,"[5, 7, 18, 19, 20, 24, 25, 29]",71.49111091,6881,699,5,9,6,1.0022223300201003
basic,12,30,0,0,0,29,"[0, 27, 3, 29]",4,5,"[5, 7, 18, 19, 20]",52.89003567,7621,740,2,3,6,1.0149900937654948
basic,12,30,0,0,0,18,"[0, 27, 3, 29, 18]",5,1,[5],33.57682776,9322,1701,1,0,6,1.0907994995031296
basic,12,30,0,0,1,5,"[0, 27, 3, 29, 18, 5]",6,0,[],20.53842295,9961,639,1,0,6,1.1556882660658163
basic,12,30,0,1,1,5,"[0, 27, 3, 29, 18, 5]",6,0,[],20.53842295,10798,837,1,0,6,1.1556882660658163
basic,13,33,0,0,0,0,[0],1,23,"[1, 2, 5, 7, 8, 11, 12, 13, 14, 15, 16, 17, 18, 19, 20, 21, 23, 24, 25, 26, 27, 28, 29]",300,131,-1,5,108,9,0.0
basic,13,33,0,0,0,21,"[0, 21]",2,17,"[2, 5, 7, 8, 11, 13, 14, 16, 17, 18, 19, 20, 24, 26, 27, 28, 29]",174.4611614,3081,2950,21,129,8,1.0
basic,13,33,0,0,0,13,"[0, 21, 13]",3,15,"[2, 5, 7, 8, 11, 14, 16, 17, 18, 19, 20, 24, 26, 28, 29]",148.0604038,4985,1904,17,72,8,1.0001005298764474
basic,13,33,0,0,0,19,"[0, 21, 13, 19]",4,11,"[7, 11, 14, 16, 17, 18, 20, 24, 26, 28, 29]",122.5653063,6800,1815,10,27,8,1.0588446738393702
basic,13,33,0,0,0,7,"[0, 21, 13, 19, 7]",5,7,"[14, 16, 17, 18, 24, 26, 29]",76.94732734,8304,1504,3,5,8,1.0466997412739754
basic,13,33,0,0,0,14,"[0, 21, 13, 19, 7, 14]",6,3,"[24, 26, 29]",62.0812586,9176,872,2,1,8,1.096679239566485
basic,13,33,0,0,0,26,"[0, 21, 13, 19, 7, 14, 26]",7,1,[29],49.43214796,9993,817,1,0,8,1.1075261679429118
basic,13,33,0,0,1,29,"[0, 21, 13, 19, 7, 14, 26, 29]",8,0,[],21.53949659,11105,1112,1,0,8,1.3238278222819673
basic,13,33,0,1,1,29,"[0, 21, 13, 19, 7, 14, 26, 29]",8,0,[],21.53949659,12065,960,1,0,8,1.3238278222819673
basic,14,41,0,0,0,0,[0],1,29,"[1, 2, 3, 4, 5, 6, 7, 8, 9, 10, 11, 12, 13, 14, 15, 16, 17, 18, 19, 20, 21, 22, 23, 24, 25, 26, 27, 28, 29]",300,147,-1,1,143,10,0.0
basic,14,41,0,0,0,5,"[0, 5]",2,27,"[1, 2, 3, 6, 7, 8, 9, 10, 11, 12, 13, 14, 15, 16, 17, 18, 19, 20, 21, 22, 23, 24, 25, 26, 27, 28, 29]",268.6152903,2785,2638,38,328,9,1.0
basic,14,41,0,0,0,3,"[0, 5, 3]",3,26,"[1, 2, 6, 7, 8, 9, 10, 11, 12, 13, 14, 15, 16, 17, 18, 19, 20, 21, 22, 23, 24, 25, 26, 27, 28, 29]",233.7871408,3751,966,3,93,9,1.6710618164948743
basic,14,41,0,0,0,21,"[0, 5, 3, 21]",4,22,"[1, 2, 6, 9, 10, 11, 12, 13, 14, 15, 16, 17, 18, 19, 20, 22, 24, 25, 26, 27, 28, 29]",201.6468235,4717,966,2,57,9,2.012242493465285
basic,14,41,0,0,0,9,"[0, 5, 3, 21, 9]",5,15,"[1, 2, 10, 12, 13, 14, 15, 17, 19, 22, 24, 25, 26, 27, 28]",152.2808433,5901,1184,1,23,9,1.7950574187105226
basic,14,41,0,0,0,2,"[0, 5, 3, 21, 9, 2]",6,14,"[1, 10, 12, 13, 14, 15, 17, 19, 22, 24, 25, 26, 27, 28]",140.1977973,6613,712,1,17,9,1.7662285115791392
basic,14,41,0,0,0,1,"[0, 5, 3, 21, 9, 2, 1]",7,1,[26],58.9266462,8221,1608,1,0,8,1.5783421268961026
basic,14,41,0,0,1,26,"[0, 5, 3, 21, 9, 2, 1, 26]",8,0,[],19.81143177,9853,1632,1,0,8,1.560630347773975
basic,14,41,0,1,1,26,"[0, 5, 3, 21, 9, 2, 1, 26]",8,0,[],19.81143177,10681,828,1,0,8,1.560630347773975
basic,15,36,0,0,0,0,[0],1,24,"[2, 4, 5, 6, 7, 8, 9, 10, 12, 13, 14, 15, 16, 17, 18, 19, 20, 22, 23, 25, 26, 27, 28, 29]",300,131,-1,2,200,10,0.0
basic,15,36,0,0,0,13,"[0, 13]",2,19,"[2, 4, 7, 8, 9, 10, 12, 16, 17, 18, 19, 20, 22, 23, 25, 26, 27, 28, 29]",201.9184013,2945,2814,21,155,8,1.0
basic,15,36,0,0,0,25,"[0, 13, 25]",3,13,"[2, 4, 8, 9, 10, 12, 16, 17, 18, 19, 23, 27, 29]",181.327141,3977,1032,18,66,8,1.0365331328777645
basic,15,36,0,0,0,2,"[0, 13, 25, 2]",4,12,"[4, 8, 9, 10, 12, 16, 17, 18, 19, 23, 27, 29]",156.327141,5518,1541,17,20,8,1.272238559463773
basic,15,36,0,0,0,19,"[0, 13, 25, 2, 19]",5,6,"[9, 10, 12, 16, 17, 18]",119.2057186,6485,967,6,5,8,2.3456051864674707
basic,15,36,0,0,0,9,"[0, 13, 25, 2, 19, 9]",6,4,"[12, 16, 17, 18]",104.0729727,7205,720,2,2,8,2.836842075540071
basic,15,36,0,0,0,17,"[0, 13, 25, 2, 19, 9, 17]",7,1,[16],77.8241632,8136,931,1,0,8,2.35070514339729
basic,15,36,0,0,1,16,"[0, 13, 25, 2, 19, 9, 17, 16]",8,0,[],49.50455869,9650,1514,1,0,8,2.3468253891748456
basic,15,36,0,1,1,16,"[0, 13, 25, 2, 19, 9, 17, 16]",8,0,[],49.50455869,10948,1298,1,0,8,2.3468253891748456
basic,16,22,0,0,0,0,[0],1,29,"[1, 2, 3, 4, 5, 6, 7, 8, 9, 10, 11, 12, 13, 14, 15, 16, 17, 18, 19, 20, 21, 22, 23, 24, 25, 26, 27, 28, 29]",300,148,-1,31,704,9,0.0
basic,16,22,0,0,0,29,"[0, 29]",2,22,"[1, 3, 5, 6, 7, 8, 9, 11, 13, 14, 15, 16, 17, 19, 20, 21, 22, 23, 24, 25, 27, 28]",222.9935068,2320,2172,11,235,9,1.0
basic,16,22,0,0,0,19,"[0, 29, 19]",3,18,"[1, 3, 6, 7, 8, 9, 13, 14, 15, 16, 17, 20, 21, 22, 23, 24, 25, 28]",207.9602104,2992,672,11,172,9,1.1559285443414686
basic,16,22,0,0,0,9,"[0, 29, 19, 9]",4,16,"[1, 3, 6, 7, 8, 13, 14, 15, 16, 17, 20, 21, 22, 24, 25, 28]",187.5641323,3728,736,7,84,9,1.2555028175473422
basic,16,22,0,0,0,6,"[0, 29, 19, 9, 6]",5,13,"[3, 7, 13, 14, 15, 16, 17, 20, 21, 22, 24, 25, 28]",160.9370784,5048,1320,17,16,8,1.5692551066355458
basic,16,22,0,0,0,16,"[0, 29, 19, 9, 6, 16]",6,5,"[7, 14, 22, 25, 28]",126.4987277,6152,1104,4,2,8,2.1316196867673534
basic,16,22,0,0,1,22,"[0, 29, 19, 9, 6, 16, 22]",7,0,[],38.03969764,8337,2185,1,0,7,1.8701910810231022
basic,16,22,0,1,1,22,"[0, 29, 19, 9, 6, 16, 22]",7,0,[],38.03969764,9115,778,1,0,7,1.8701910810231022
basic,17,3,0,0,0,0,[0],1,29,"[1, 2, 3, 4, 5, 6, 7, 8, 9, 10, 11, 12, 13, 14, 15, 16, 17, 18, 19, 20, 21, 22, 23, 24, 25, 26, 27, 28, 29]",300,131,-1,34,427,10,0.0
basic,17,3,0,0,0,8,"[0, 8]",2,28,"[1, 2, 3, 4, 5, 6, 7, 9, 10, 11, 12, 13, 14, 15, 16, 17, 18, 19, 20, 21, 22, 23, 24, 25, 26, 27, 28, 29]",239.9666759,2306,2175,1,54,10,1.0
basic,17,3,0,0,0,14,"[0, 8, 14]",3,13,"[3, 4, 5, 7, 10, 15, 16, 17, 19, 20, 21, 22, 24]",164.5147044,3290,984,16,44,8,1.0526801728261803
basic,17,3,0,0,0,21,"[0, 8, 14, 21]",4,7,"[3, 4, 10, 17, 19, 20, 24]",137.6074563,4458,1168,6,10,8,1.0560790452690922
basic,17,3,0,0,0,19,"[0, 8, 14, 21, 19]",5,6,"[3, 4, 10, 17, 20, 24]",125.4009007,5258,800,6,2,8,1.1830771358940484
basic,17,3,0,0,0,3,"[0, 8, 14, 21, 19, 3]",6,3,"[17, 20, 24]",88.06459133,6242,984,2,1,8,1.694128508241266
basic,17,3,0,0,0,20,"[0, 8, 14, 21, 19, 3, 20]",7,1,[17],67.66851327,7011,769,1,0,8,2.052097247903213
basic,17,3,0,0,1,17,"[0, 8, 14, 21, 19, 3, 20, 17]",8,0,[],55.01940263,8106,1095,1,0,8,2.394646018030317
basic,17,3,0,1,1,17,"[0, 8, 14, 21, 19, 3, 20, 17]",8,0,[],55.01940263,9231,1125,1,0,8,2.394646018030317
basic,18,7,0,0,0,0,[0],1,29,"[1, 2, 3, 4, 5, 6, 7, 8, 9, 10, 11, 12, 13, 14, 15, 16, 17, 18, 19, 20, 21, 22, 23, 24, 25, 26, 27, 28, 29]",300,131,-1,3,79,9,0.0
basic,18,7,0,0,0,15,"[0, 15]",2,19,"[2, 4, 5, 6, 7, 8, 9, 10, 13, 14, 16, 18, 19, 20, 21, 23, 25, 27, 28]",230.9348134,1953,1822,2,38,9,1.0
basic,18,7,0,0,0,6,"[0, 15, 6]",3,18,"[2, 4, 5, 7, 8, 9, 10, 13, 14, 16, 18, 19, 20, 21, 23, 25, 27, 28]",205.854941,4256,2303,2,36,9,1.366719602896943
basic,18,7,0,0,0,4,"[0, 15, 6, 4]",4,8,"[2, 7, 13, 16, 18, 19, 20, 25]",123.3625171,5650,1394,8,24,8,1.2578516160075839
basic,18,7,0,0,0,20,"[0, 15, 6, 4, 20]",5,7,"[2, 7, 13, 16, 18, 19, 25]",103.7156344,6418,768,5,9,8,1.309319151512604
basic,18,7,0,0,0,7,"[0, 15, 6, 4, 20, 7]",6,3,"[2, 18, 19]",63.21872093,8025,1607,1,2,8,1.2943313158504264
basic,18,7,0,0,0,19,"[0, 15, 6, 4, 20, 7, 19]",7,1,[2],33.80783859,8960,935,1,0,8,1.4071641165148334
basic,18,7,0,0,1,2,"[0, 15, 6, 4, 20, 7, 19, 2]",8,0,[],3.658211728,10289,1329,1,0,8,1.4119520260493466
basic,18,7,0,1,1,2,"[0, 15, 6, 4, 20, 7, 19, 2]",8,0,[],3.658211728,11631,1342,1,0,8,1.4119520260493466
basic,19,12,0,0,0,0,[0],1,29,"[1, 2, 3, 4, 5, 6, 7, 8, 9, 10, 11, 12, 13, 14, 15, 16, 17, 18, 19, 20, 21, 22, 23, 24, 25, 26, 27, 28, 29]",300,131,-1,2,32,9,0.0
basic,19,12,0,0,0,16,"[0, 16]",2,16,"[2, 4, 5, 6, 7, 12, 13, 14, 18, 19, 22, 23, 24, 25, 27, 29]",209.2916762,3252,3121,3,38,8,1.0
basic,19,12,0,0,0,4,"[0, 16, 4]",3,11,"[2, 5, 6, 7, 12, 14, 19, 22, 24, 25, 27]",175.0864135,4207,955,1,16,8,1.00004499617691
basic,19,12,0,0,0,12,"[0, 16, 4, 12]",4,6,"[14, 19, 22, 24, 25, 27]",132.8963673,5439,1232,1,8,8,1.0113942412768022
basic,19,12,0,0,0,27,"[0, 16, 4, 12, 27]",5,4,"[14, 19, 22, 24]",108.5447759,6801,1362,1,3,8,1.1193150037844588
basic,19,12,0,0,0,14,"[0, 16, 4, 12, 27, 14]",6,2,"[19, 24]",79.89167838,8160,1359,1,1,8,1.1821826897854277
basic,19,12,0,0,0,24,"[0, 16, 4, 12, 27, 14, 24]",7,1,[19],62.68702784,9039,879,1,0,8,1.3297400833764192
basic,19,12,0,0,1,19,"[0, 16, 4, 12, 27, 14, 24, 19]",8,0,[],3.865263163,10791,1752,1,0,8,2.27325645157102
basic,19,12,0,1,1,19,"[0, 16, 4, 12, 27, 14, 24, 19]",8,0,[],3.865263163,11848,1057,1,0,8,2.27325645157102
basic,20,40,0,0,0,0,[0],1,29,"[1, 2, 3, 4, 5, 6, 7, 8, 9, 10, 11, 12, 13, 14, 15, 16, 17, 18, 19, 20, 21, 22, 23, 24, 25, 26, 27, 28, 29]",300,132,-1,8,191,9,0.0
basic,20,40,0,0,0,1,"[0, 1]",2,18,"[2, 5, 6, 7, 8, 9, 10, 11, 13, 15, 17, 18, 19, 21, 22, 23, 27, 29]",247.8463808,2320,2188,4,80,9,1.0
basic,20,40,0,0,0,6,"[0, 1, 6]",3,17,"[2, 5, 7, 8, 9, 10, 11, 13, 15, 17, 18, 19, 21, 22, 23, 27, 29]",227.7466295,3261,941,4,74,9,1.0459427008232034
basic,20,40,0,0,0,21,"[0, 1, 6, 21]",4,8,"[2, 5, 9, 17, 18, 19, 22, 23]",175.7754837,4837,1576,4,25,9,1.0308822257404064
basic,20,40,0,0,0,9,"[0, 1, 6, 21, 9]",5,6,"[2, 5, 18, 19, 22, 23]",130.0699041,6037,1200,4,12,9,1.377861912961129
basic,20,40,0,0,0,18,"[0, 1, 6, 21, 9, 18]",6,5,"[2, 5, 19, 22, 23]",113.5169588,7093,1056,4,4,9,1.5742712168661408
basic,20,40,0,0,0,23,"[0, 1, 6, 21, 9, 18, 23]",7,3,"[2, 5, 19]",79.51695879,8518,1425,2,1,9,2.324611956726637
basic,20,40,0,0,1,2,"[0, 1, 6, 21, 9, 18, 23, 2]",8,0,[],10.05473884,9981,1463,1,0,8,8.001725559768131
basic,20,40,0,1,1,2,"[0, 1, 6, 21, 9, 18, 23, 2]",8,0,[],10.05473884,10999,1018,1,0,8,8.001725559768131
basic,21,20,0,0,0,0,[0],1,21,"[1, 2, 3, 4, 5, 6, 7, 8, 9, 12, 17, 18, 20, 21, 22, 23, 25, 26, 27, 28, 29]",300,165,-1,1,9,9,0.0
basic,21,20,0,0,0,21,"[0, 21]",2,11,"[1, 4, 5, 6, 8, 9, 20, 23, 26, 27, 28]",129.4215723,1837,1672,3,14,6,1.0
basic,21,20,0,0,0,8,"[0, 21, 8]",3,7,"[1, 5, 6, 9, 23, 27, 28]",111.9573231,3508,1671,3,8,6,1.0229081176790227
basic,21,20,0,0,0,23,"[0, 21, 8, 23]",4,4,"[6, 9, 27, 28]",67.26951715,4669,1161,2,2,6,1.0217210946868116
basic,21,20,0,0,0,9,"[0, 21, 8, 23, 9]",5,1,[6],48.06014444,5637,968,1,0,6,1.0214150986454311
basic,21,20,0,0,1,6,"[0, 21, 8, 23, 9, 6]",6,0,[],25.03841557,6724,1087,1,0,6,1.0374062435003302
basic,21,20,0,1,1,6,"[0, 21, 8, 23, 9, 6]",6,0,[],25.03841557,7465,741,1,0,6,1.0374062435003302
basic,22,1,0,0,0,0,[0],1,26,"[1, 2, 4, 5, 7, 8, 9, 10, 11, 12, 13, 14, 15, 16, 17, 18, 19, 20, 21, 22, 23, 24, 25, 26, 28, 29]",300,132,-1,6,74,7,0.0
basic,22,1,0,0,0,8,"[0, 8]",2,23,"[1, 4, 5, 7, 9, 10, 11, 12, 13, 14, 15, 16, 17, 18, 19, 20, 21, 23, 24, 25, 26, 28, 29]",202,1945,1813,1,16,7,1.0
basic,22,1,0,0,0,20,"[0, 8, 20]",3,12,"[1, 4, 5, 11, 13, 14, 15, 17, 18, 19, 28, 29]",125.9408125,4409,2464,1,7,7,1.02364736730791
basic,22,1,0,0,0,5,"[0, 8, 20, 5]",4,7,"[1, 4, 11, 13, 17, 18, 29]",104.469902,5193,784,1,3,7,1.0439599203945713
basic,22,1,0,0,0,18,"[0, 8, 20, 5, 18]",5,2,"[4, 29]",81.64447755,6025,832,1,1,7,1.0840407791793756
basic,22,1,0,0,0,4,"[0, 8, 20, 5, 18, 4]",6,1,[29],42.69579336,7466,1441,1,0,7,1.0902329133216275
basic,22,1,0,0,1,29,"[0, 8, 20, 5, 18, 4, 29]",7,0,[],6.640280603,8917,1451,1,0,7,1.2859729622882756
basic,22,1,0,1,1,29,"[0, 8, 20, 5, 18, 4, 29]",7,0,[],6.640280603,9831,914,1,0,7,1.2859729622882756
undo,23,5,0,0,0,0,[0],1,29,"[1, 2, 3, 4, 5, 6, 7, 8, 9, 10, 11, 12, 13, 14, 15, 16, 17, 18, 19, 20, 21, 22, 23, 24, 25, 26, 27, 28, 29]",300,132,-1,5,139,9,0.0
undo,23,5,0,0,0,23,"[0, 23]",2,27,"[1, 2, 3, 4, 5, 6, 7, 8, 9, 10, 11, 12, 13, 14, 15, 16, 17, 18, 19, 20, 21, 22, 24, 25, 26, 27, 28]",249.8402552,2231,2099,3,75,9,1.0
undo,23,5,0,0,0,25,"[0, 23, 25]",3,23,"[1, 2, 3, 4, 5, 6, 8, 9, 10, 12, 13, 14, 15, 16, 17, 18, 19, 21, 22, 24, 26, 27, 28]",231.4011663,2919,688,3,43,9,1.0923159590575564
undo,23,5,0,0,0,24,"[0, 23, 25, 24]",4,21,"[2, 3, 4, 5, 6, 8, 9, 10, 12, 13, 14, 15, 16, 17, 18, 19, 21, 22, 26, 27, 28]",206.5616816,3655,736,3,25,9,1.2901858295679272
undo,23,5,0,0,0,17,"[0, 23, 25, 24, 17]",5,13,"[4, 5, 6, 8, 12, 13, 14, 15, 18, 19, 22, 26, 27]",171.5759702,4563,908,3,14,9,1.2027484907982513
undo,23,5,0,0,0,5,"[0, 23, 25, 24, 17, 5]",6,7,"[4, 6, 8, 12, 15, 18, 19]",128.5294837,5527,964,3,4,9,1.1472230681682432
undo,23,5,0,0,0,15,"[0, 23, 25, 24, 17, 5, 15]",7,1,[18],88.50449151,7110,1583,1,0,8,1.196858948062182
undo,23,5,0,0,1,18,"[0, 23, 25, 24, 17, 5, 15, 18]",8,0,[],6.285272347,8695,1585,1,0,8,1.4484003110079315
undo,23,5,0,1,1,18,"[0, 23, 25, 24, 17, 5, 15, 18]",8,0,[],6.285272347,9349,654,1,0,8,1.4484003110079315
undo,24,36,0,0,0,0,[0],1,24,"[2, 4, 5, 6, 7, 8, 9, 10, 12, 13, 14, 15, 16, 17, 18, 19, 20, 22, 23, 25, 26, 27, 28, 29]",300,131,-1,2,200,10,0.0
undo,24,36,0,0,0,9,"[0, 9]",2,16,"[2, 4, 8, 10, 12, 13, 16, 17, 18, 19, 23, 25, 26, 27, 28, 29]",230.9348134,2801,2670,81,367,8,1.0
undo,24,36,0,0,0,17,"[0, 9, 17]",3,13,"[2, 4, 8, 10, 12, 13, 16, 18, 19, 23, 25, 27, 29]",204.6860039,3631,830,22,90,8,1.0084584538853834
undo,24,36,0,0,0,19,"[0, 9, 17, 19]",4,12,"[2, 4, 8, 10, 12, 13, 16, 18, 23, 25, 27, 29]",176.7933525,4351,720,8,25,8,1.5984695375617641
undo,24,36,0,0,0,2,"[0, 9, 17, 19, 2]",5,8,"[8, 10, 12, 13, 16, 18, 25, 27]",139.6719302,4975,624,3,6,8,1.4197222355264698
undo,24,36,0,0,0,25,"[0, 9, 17, 19, 2, 25]",6,4,"[10, 12, 13, 16]",114.6719302,6311,1336,2,3,8,1.618724672336267
undo,24,36,0,0,0,13,"[0, 9, 17, 19, 2, 25, 13]",7,2,"[10, 12]",94.08066987,7003,692,2,0,8,2.099469552875175
undo,24,36,0,0,1,12,"[0, 9, 17, 19, 2, 25, 13, 12]",8,0,[],14.90365301,8734,1731,1,0,8,12.840093699859885
undo,24,36,0,1,1,12,"[0, 9, 17, 19, 2, 25, 13, 12]",8,0,[],14.90365301,9431,697,1,0,8,12.840093699859885
undo,25,13,0,0,0,0,[0],1,29,"[1, 2, 3, 4, 5, 6, 7, 8, 9, 10, 11, 12, 13, 14, 15, 16, 17, 18, 19, 20, 21, 22, 23, 24, 25, 26, 27, 28, 29]",300,132,-1,60,2676,11,0.0
undo,25,13,0,0,0,24,"[0, 24]",2,28,"[1, 2, 3, 4, 5, 6, 7, 8, 9, 10, 11, 12, 13, 14, 15, 16, 17, 18, 19, 20, 21, 22, 23, 25, 26, 27, 28, 29]",288.8196601,2371,2239,16,1444,11,1.0
undo,25,13,0,0,0,23,"[0, 24, 23]",3,27,"[1, 2, 3, 4, 5, 6, 7, 8, 9, 10, 11, 12, 13, 14, 15, 16, 17, 18, 19, 20, 21, 22, 25, 26, 27, 28, 29]",243.1140806,3358,987,2,868,11,1.0065545717039834
undo,25,13,0,0,0,16,"[0, 24, 23, 16]",4,25,"[1, 2, 3, 4, 6, 7, 8, 9, 10, 11, 12, 13, 14, 15, 17, 18, 19, 20, 21, 22, 25, 26, 27, 28, 29]",202.8027918,4639,1281,1,145,11,1.055930143104189
undo,25,13,0,0,0,3,"[0, 24, 23, 16, 3]",5,20,"[2, 4, 6, 7, 8, 9, 10, 11, 13, 14, 15, 18, 20, 21, 22, 25, 26, 27, 28, 29]",174.3598665,5543,904,3,44,10,1.233783650807853
undo,25,13,0,0,0,20,"[0, 24, 23, 16, 3, 20]",6,15,"[4, 6, 7, 8, 9, 11, 14, 18, 21, 22, 25, 26, 27, 28, 29]",155.3335689,6416,873,7,15,9,1.3149320474556456
undo,25,13,0,0,0,8,"[0, 24, 23, 16, 3, 20, 8]",7,3,"[4, 25, 27]",93.81121528,7619,1203,1,2,9,1.3433990842798218
undo,25,13,0,1,0,8,"[0, 24, 23, 16, 3, 20, 8]",7,3,"[4, 25, 27]",93.81121528,10715,3096,1,2,9,1.3433990842798218
undo,26,12,0,0,0,0,[0],1,29,"[1, 2, 3, 4, 5, 6, 7, 8, 9, 10, 11, 12, 13, 14, 15, 16, 17, 18, 19, 20, 21, 22, 23, 24, 25, 26, 27, 28, 29]",300,131,-1,2,32,9,0.0
undo,26,12,0,0,0,6,"[0, 6]",2,28,"[1, 2, 3, 4, 5, 7, 8, 9, 10, 11, 12, 13, 14, 15, 16, 17, 18, 19, 20, 21, 22, 23, 24, 25, 26, 27, 28, 29]",283.5987805,1589,1458,2,18,9,1.0
undo,26,12,0,0,0,22,"[0, 6, 22]",3,13,"[2, 4, 5, 7, 12, 13, 14, 16, 19, 23, 24, 25, 27]",182.0015365,2625,1036,2,9,9,1.3408050629015749
undo,26,12,0,0,0,16,"[0, 6, 22, 16]",4,10,"[2, 4, 5, 7, 12, 14, 19, 24, 25, 27]",161.0015365,3973,1348,2,7,9,1.5323672374573825
undo,26,12,0,0,0,4,"[0, 6, 22, 16, 4]",5,6,"[12, 14, 19, 24, 25, 27]",126.7962737,4869,896,2,5,9,1.38665076120851
undo,26,12,0,0,0,12,"[0, 6, 22, 16, 4, 12]",6,3,"[14, 24, 27]",84.6062275,6037,1168,2,3,9,1.3036701691846924
undo,26,12,0,0,0,27,"[0, 6, 22, 16, 4, 12, 27]",7,2,"[14, 24]",60.25463618,6758,721,2,0,9,1.401636252408167
undo,26,12,0,0,0,14,"[0, 6, 22, 16, 4, 12, 27, 14]",8,1,[24],31.60153862,7740,982,1,0,9,1.4415448388010776
undo,26,12,0,0,1,24,"[0, 6, 22, 16, 4, 12, 27, 14, 24]",9,0,[],14.39688808,8789,1049,1,0,9,1.6003250998053893
undo,26,12,0,1,1,24,"[0, 6, 22, 16, 4, 12, 27, 14, 24]",9,0,[],14.39688808,9498,709,1,0,9,1.6003250998053893
undo,27,2,0,0,0,0,[0],1,23,"[1, 2, 4, 5, 6, 7, 8, 9, 12, 13, 15, 16, 17, 18, 19, 20, 22, 23, 25, 26, 27, 28, 29]",300,131,-1,70,620,10,0.0
undo,27,2,0,0,0,19,"[0, 19]",2,22,"[1, 2, 4, 5, 6, 7, 8, 9, 12, 13, 15, 16, 17, 18, 20, 22, 23, 25, 26, 27, 28, 29]",210.306076,1913,1782,67,431,10,1.0
undo,27,2,0,0,0,12,"[0, 19, 12]",3,17,"[1, 4, 5, 6, 7, 13, 15, 16, 17, 18, 20, 22, 25, 26, 27, 28, 29]",174.2921898,2584,671,66,298,10,1.1107635036313153
undo,27,2,0,0,0,5,"[0, 19, 12, 5]",4,11,"[1, 6, 7, 13, 15, 16, 18, 22, 25, 26, 29]",144.7625437,3456,872,38,136,10,1.0968174771581647
undo,27,2,0,0,0,22,"[0, 19, 12, 5, 22]",5,8,"[1, 6, 7, 13, 15, 18, 26, 29]",131.9562952,4329,873,20,63,10,1.0889910507461968
undo,27,2,0,0,0,13,"[0, 19, 12, 5, 22, 13]",6,7,"[1, 6, 7, 15, 18, 26, 29]",117.0902265,5545,1216,19,20,10,1.236526217328057
undo,27,2,0,0,0,18,"[0, 19, 12, 5, 22, 13, 18]",7,4,"[7, 15, 26, 29]",81.91921567,6672,1127,10,3,10,1.2128708213409936
undo,27,2,0,0,0,7,"[0, 19, 12, 5, 22, 13, 18, 7]",8,3,"[15, 26, 29]",71.62358553,8008,1336,5,0,10,1.2019811287894737
undo,27,2,0,0,0,15,"[0, 19, 12, 5, 22, 13, 18, 7, 15]",9,2,"[26, 29]",56.85876247,8792,784,2,0,10,1.2907869828541363
undo,27,2,0,0,1,29,"[0, 19, 12, 5, 22, 13, 18, 7, 15, 29]",10,0,[],28.39826353,9560,768,1,0,10,1.4795089334237532
undo,27,2,0,1,1,29,"[0, 19, 12, 5, 22, 13, 18, 7, 15, 29]",10,0,[],28.39826353,11131,1571,1,0,10,1.4795089334237532
undo,28,32,0,0,0,0,[0],1,29,"[1, 2, 3, 4, 5, 6, 7, 8, 9, 10, 11, 12, 13, 14, 15, 16, 17, 18, 19, 20, 21, 22, 23, 24, 25, 26, 27, 28, 29]",300,148,-1,17,359,10,0.0
undo,28,32,0,0,0,15,"[0, 15]",2,24,"[2, 3, 4, 5, 6, 7, 8, 9, 10, 11, 12, 13, 14, 16, 17, 19, 20, 22, 23, 24, 25, 26, 27, 28]",214.6185032,1467,1319,11,153,9,1.0
undo,28,32,0,0,0,28,"[0, 15, 28]",3,21,"[2, 3, 5, 7, 8, 9, 10, 11, 12, 13, 14, 16, 17, 19, 20, 22, 23, 24, 25, 26, 27]",203.2167489,2459,992,11,119,9,1.000160051986942
undo,28,32,0,0,0,12,"[0, 15, 28, 12]",4,19,"[2, 3, 5, 7, 8, 9, 10, 11, 13, 16, 17, 19, 20, 22, 23, 24, 25, 26, 27]",184.243083,3579,1120,8,71,9,1.0281484763748023
undo,28,32,0,0,0,16,"[0, 15, 28, 12, 16]",5,17,"[2, 3, 5, 7, 8, 9, 10, 11, 13, 17, 19, 20, 22, 23, 24, 26, 27]",168.5906071,4315,736,6,38,9,1.1190771370096
undo,28,32,0,0,0,22,"[0, 15, 28, 12, 16, 22]",6,10,"[2, 3, 5, 8, 9, 10, 11, 17, 20, 27]",134.7527585,5318,1003,4,16,9,1.1702311155319893
undo,28,32,0,0,0,9,"[0, 15, 28, 12, 16, 22, 9]",7,6,"[2, 8, 10, 17, 20, 27]",112.5491552,6211,893,2,4,9,1.2381424719932013
undo,28,32,0,0,0,2,"[0, 15, 28, 12, 16, 22, 9, 2]",8,1,[17],61.46099608,8685,2474,1,0,9,1.6446273109221003
undo,28,32,0,0,1,17,"[0, 15, 28, 12, 16, 22, 9, 2, 17]",9,0,[],21.64893761,9636,951,1,0,9,2.46318728800517
undo,28,32,0,1,1,17,"[0, 15, 28, 12, 16, 22, 9, 2, 17]",9,0,[],21.64893761,10265,629,1,0,9,2.46318728800517
undo,29,19,0,0,0,0,[0],1,29,"[1, 2, 3, 4, 5, 6, 7, 8, 9, 10, 11, 12, 13, 14, 15, 16, 17, 18, 19, 20, 21, 22, 23, 24, 25, 26, 27, 28, 29]",300,131,-1,12,149,8,0.0
undo,29,19,0,0,0,12,"[0, 12]",2,15,"[1, 2, 3, 5, 8, 9, 13, 16, 17, 18, 19, 21, 23, 25, 29]",180.3964883,3663,3532,9,58,7,1.0
undo,29,19,0,0,0,25,"[0, 12, 25]",3,11,"[1, 2, 3, 8, 13, 16, 17, 18, 19, 23, 29]",163.2792456,4743,1080,3,32,7,1.002593021312995
undo,29,19,0,0,0,23,"[0, 12, 25, 23]",4,8,"[1, 2, 3, 8, 13, 17, 18, 19]",93.63730419,6151,1408,8,4,6,1.1476998908004445
undo,29,19,0,0,0,3,"[0, 12, 25, 23, 3]",5,3,"[8, 18, 19]",71.70559199,8096,1945,3,0,6,1.1328247740909176
undo,29,19,0,0,1,8,"[0, 12, 25, 23, 3, 8]",6,0,[],48.38178441,8840,744,1,0,6,1.15468588491542
undo,29,19,0,1,1,8,"[0, 12, 25, 23, 3, 8]",6,0,[],48.38178441,9814,974,1,0,6,1.15468588491542
undo,30,31,0,0,0,0,[0],1,27,"[1, 3, 4, 5, 6, 7, 8, 10, 11, 12, 13, 14, 15, 16, 17, 18, 19, 20, 21, 22, 23, 24, 25, 26, 27, 28, 29]",300,132,-1,2,87,10,0.0
undo,30,31,0,0,0,8,"[0, 8]",2,26,"[1, 3, 4, 5, 6, 7, 10, 11, 12, 13, 14, 15, 16, 17, 18, 19, 20, 21, 22, 23, 24, 25, 26, 27, 28, 29]",265.2149457,1806,1674,14,226,9,1.0
undo,30,31,0,0,0,27,"[0, 8, 27]",3,25,"[1, 3, 4, 5, 6, 7, 10, 11, 12, 13, 14, 15, 16, 17, 18, 19, 20, 21, 22, 23, 24, 25, 26, 28, 29]",254.1695847,2438,632,9,146,9,1.1317014404638044
undo,30,31,0,0,0,18,"[0, 8, 27, 18]",4,19,"[1, 3, 5, 6, 7, 10, 11, 12, 13, 14, 16, 17, 19, 20, 21, 22, 25, 28, 29]",212.4442926,3202,764,5,65,9,1.3599476590292046
undo,30,31,0,0,0,17,"[0, 8, 27, 18, 17]",5,14,"[1, 5, 6, 7, 11, 12, 13, 14, 16, 19, 20, 22, 25, 28]",183.2381289,3838,636,4,35,9,1.2898911590492574
undo,30,31,0,0,0,11,"[0, 8, 27, 18, 17, 11]",6,11,"[1, 5, 7, 12, 14, 16, 19, 20, 22, 25, 28]",142.1285193,5079,1241,3,7,9,2.57871823425897
undo,30,31,0,0,0,5,"[0, 8, 27, 18, 17, 11, 5]",7,3,"[16, 25, 28]",98.44785998,7418,2339,2,1,9,2.2974966362287774
undo,30,31,0,0,0,28,"[0, 8, 27, 18, 17, 11, 5, 28]",8,1,[16],78.22411156,8759,1341,1,0,9,2.0661851667797895
undo,30,31,0,0,1,16,"[0, 8, 27, 18, 17, 11, 5, 28, 16]",9,0,[],44.60863894,9973,1214,1,0,9,1.9122527601251431
undo,30,31,0,1,1,16,"[0, 8, 27, 18, 17, 11, 5, 28, 16]",9,0,[],44.60863894,10482,509,1,0,9,1.9122527601251431
undo,31,18,0,0,0,0,[0],1,28,"[1, 2, 3, 4, 5, 6, 7, 8, 9, 10, 11, 12, 13, 14, 16, 17, 18, 19, 20, 21, 22, 23, 24, 25, 26, 27, 28, 29]",300,131,-1,3,136,10,0.0
undo,31,18,0,0,0,28,"[0, 28]",2,16,"[1, 3, 5, 7, 8, 9, 12, 13, 14, 16, 20, 23, 24, 25, 26, 27]",236.4311397,2218,2087,2,19,10,1.0
undo,31,18,0,0,0,7,"[0, 28, 7]",3,15,"[1, 3, 5, 8, 9, 12, 13, 14, 16, 20, 23, 24, 25, 26, 27]",214.4084242,3250,1032,2,17,10,1.4345180696367563
undo,31,18,0,0,0,25,"[0, 28, 7, 25]",4,13,"[1, 3, 5, 8, 9, 12, 13, 14, 16, 20, 23, 26, 27]",186.6055466,4084,834,2,15,10,1.8896451241781882
undo,31,18,0,0,0,8,"[0, 28, 7, 25, 8]",5,10,"[3, 5, 9, 12, 13, 14, 16, 23, 26, 27]",149.551532,4994,910,2,10,10,1.590467437592877
undo,31,18,0,0,0,13,"[0, 28, 7, 25, 8, 13]",6,9,"[3, 5, 9, 12, 14, 16, 23, 26, 27]",128.4565089,6116,1122,2,5,10,1.8248274983549797
undo,31,18,0,0,0,14,"[0, 28, 7, 25, 8, 13, 14]",7,7,"[3, 5, 9, 12, 23, 26, 27]",109.4828429,7184,1068,2,3,10,1.6993534956692746
undo,31,18,0,0,0,3,"[0, 28, 7, 25, 8, 13, 14, 3]",8,3,"[5, 12, 27]",79.39962499,8474,1290,2,1,10,1.802637206541468
undo,31,18,0,0,0,5,"[0, 28, 7, 25, 8, 13, 14, 3, 5]",9,1,[12],21.21887216,10043,1569,1,0,10,1.559774889743805
undo,31,18,0,1,0,5,"[0, 28, 7, 25, 8, 13, 14, 3, 5]",9,1,[12],21.21887216,10681,638,1,0,10,1.559774889743805
undo,32,42,0,0,0,0,[0],1,29,"[1, 2, 3, 4, 5, 6, 7, 8, 9, 10, 11, 12, 13, 14, 15, 16, 17, 18, 19, 20, 21, 22, 23, 24, 25, 26, 27, 28, 29]",300,132,-1,16,302,9,0.0
undo,32,42,0,0,0,5,"[0, 5]",2,28,"[1, 2, 3, 4, 6, 7, 8, 9, 10, 11, 12, 13, 14, 15, 16, 17, 18, 19, 20, 21, 22, 23, 24, 25, 26, 27, 28, 29]",191.2939744,1987,1855,1,22,9,1.0
undo,32,42,0,0,0,4,"[0, 5, 4]",3,23,"[1, 2, 3, 6, 7, 8, 9, 10, 11, 13, 15, 17, 18, 19, 20, 21, 22, 23, 24, 25, 26, 27, 29]",171.4445412,3011,1024,1,14,9,1.420957801478707
undo,32,42,0,0,0,22,"[0, 5, 4, 22]",4,20,"[1, 2, 3, 6, 7, 8, 9, 11, 15, 17, 18, 19, 20, 21, 23, 24, 25, 26, 27, 29]",160.2642013,3575,564,1,11,9,1.5771494659680896
undo,32,42,0,0,0,8,"[0, 5, 4, 22, 8]",5,14,"[1, 2, 3, 6, 7, 11, 15, 18, 19, 24, 25, 26, 27, 29]",138.1282577,4307,732,1,10,9,1.5055393955524201
undo,32,42,0,0,0,1,"[0, 5, 4, 22, 8, 1]",6,5,"[2, 7, 19, 26, 27]",89.03650682,5136,829,1,7,9,1.3547259083637835
undo,32,42,0,0,0,7,"[0, 5, 4, 22, 8, 1, 7]",7,4,"[2, 19, 26, 27]",59.03650682,6136,1000,1,3,9,1.3909715672447451
undo,32,42,0,0,0,26,"[0, 5, 4, 22, 8, 1, 7, 26]",8,1,[27],32.46584631,7201,1065,1,0,9,1.3511825943939393
undo,32,42,0,0,1,27,"[0, 5, 4, 22, 8, 1, 7, 26, 27]",9,0,[],14.43808994,7827,626,1,0,9,1.3391911688802078
undo,32,42,0,1,1,27,"[0, 5, 4, 22, 8, 1, 7, 26, 27]",9,0,[],14.43808994,8531,704,1,0,9,1.3391911688802078
undo,33,9,0,0,0,0,[0],1,27,"[1, 3, 4, 5, 6, 7, 8, 9, 10, 11, 13, 14, 15, 16, 17, 18, 19, 20, 21, 22, 23, 24, 25, 26, 27, 28, 29]",300,165,-1,2,182,10,0.0
undo,33,9,0,0,0,9,"[0, 9]",2,26,"[1, 3, 4, 5, 6, 7, 8, 10, 11, 13, 14, 15, 16, 17, 18, 19, 20, 21, 22, 23, 24, 25, 26, 27, 28, 29]",225.5352432,2685,2520,2,101,9,1.0
undo,33,9,0,0,0,23,"[0, 9, 23]",3,22,"[1, 3, 4, 5, 7, 8, 10, 11, 13, 15, 16, 17, 18, 19, 20, 21, 22, 24, 25, 26, 27, 28]",203.1745635,3537,852,2,70,9,1.6262276606762436
undo,33,9,0,0,0,8,"[0, 9, 23, 8]",4,18,"[3, 4, 5, 7, 10, 11, 15, 16, 17, 18, 19, 20, 21, 22, 25, 26, 27, 28]",181.7036529,4386,849,1,36,9,1.8547307061753238
undo,33,9,0,0,0,28,"[0, 9, 23, 8, 28]",5,17,"[3, 4, 5, 7, 10, 11, 15, 16, 17, 18, 19, 20, 21, 22, 25, 26, 27]",170.8869991,5194,808,1,23,9,1.7382749966569708
undo,33,9,0,0,0,26,"[0, 9, 23, 8, 28, 26]",6,10,"[3, 5, 10, 15, 16, 18, 19, 20, 21, 25]",126.1097727,6493,1299,4,7,8,1.4884719959249546
undo,33,9,0,0,0,18,"[0, 9, 23, 8, 28, 26, 18]",7,2,"[5, 19]",65.23284771,7273,780,2,0,8,1.3471468379657168
undo,33,9,0,0,1,5,"[0, 9, 23, 8, 28, 26, 18, 5]",8,0,[],1.342316325,8574,1301,1,0,8,1.3414453811098892
undo,33,9,0,1,1,5,"[0, 9, 23, 8, 28, 26, 18, 5]",8,0,[],1.342316325,9365,791,1,0,8,1.3414453811098892
undo,34,14,0,0,0,0,[0],1,29,"[1, 2, 3, 4, 5, 6, 7, 8, 9, 10, 11, 12, 13, 14, 15, 16, 17, 18, 19, 20, 21, 22, 23, 24, 25, 26, 27, 28, 29]",300,133,-1,8,157,10,0.0
undo,34,14,0,0,0,18,"[0, 18]",2,17,"[1, 2, 3, 4, 7, 8, 9, 13, 15, 17, 19, 20, 22, 23, 25, 26, 28]",179.8958785,1847,1714,18,136,9,1.0
undo,34,14,0,0,0,8,"[0, 18, 8]",3,13,"[1, 2, 4, 7, 13, 15, 17, 19, 20, 23, 25, 26, 28]",166.294408,3195,1348,18,99,9,1.0203858410107731
undo,34,14,0,0,0,19,"[0, 18, 8, 19]",4,10,"[1, 2, 4, 7, 15, 17, 23, 25, 26, 28]",145.6788799,4043,848,7,52,9,1.0436397834807676
undo,34,14,0,0,0,25,"[0, 18, 8, 19, 25]",5,6,"[1, 2, 4, 7, 23, 26]",109.8319832,5901,1858,14,11,8,1.1618094646800978
undo,34,14,0,0,0,23,"[0, 18, 8, 19, 25, 23]",6,4,"[1, 4, 7, 26]",80.42110087,6763,862,4,2,8,1.1681546623771306
undo,34,14,0,0,0,26,"[0, 18, 8, 19, 25, 23, 26]",7,3,"[1, 4, 7]",69.60444704,8753,1990,3,0,8,1.1612761686675794
undo,34,14,0,0,1,4,"[0, 18, 8, 19, 25, 23, 26, 4]",8,0,[],19.35506894,9859,1106,1,0,8,1.3378462013062467
undo,34,14,0,1,1,4,"[0, 18, 8, 19, 25, 23, 26, 4]",8,0,[],19.35506894,10499,640,1,0,8,1.3378462013062467
undo,35,0,0,0,0,0,[0],1,27,"[2, 3, 4, 5, 6, 7, 8, 9, 10, 11, 12, 13, 14, 15, 16, 17, 19, 20, 21, 22, 23, 24, 25, 26, 27, 28, 29]",300,148,-1,104,1136,9,0.0
undo,35,0,0,0,0,28,"[0, 28]",2,26,"[2, 3, 4, 5, 6, 7, 8, 9, 10, 11, 12, 13, 14, 15, 16, 17, 19, 20, 21, 22, 23, 24, 25, 26, 27, 29]",194.9190788,1338,1190,39,388,9,1.0
undo,35,0,0,0,0,12,"[0, 28, 12]",3,19,"[3, 4, 5, 7, 8, 9, 10, 11, 13, 14, 15, 17, 19, 20, 21, 22, 23, 24, 26]",141.7683497,3619,2281,3,43,9,1.0142012686492925
undo,35,0,0,0,0,26,"[0, 28, 12, 26]",4,14,"[3, 4, 5, 7, 8, 9, 11, 14, 15, 17, 19, 20, 23, 24]",106.5405198,4754,1135,3,25,9,1.1974841199765223
undo,35,0,0,0,0,4,"[0, 28, 12, 26, 4]",5,11,"[3, 5, 7, 8, 9, 11, 15, 17, 20, 23, 24]",94.49892525,5554,800,3,13,9,1.3127642586979258
undo,35,0,0,0,0,24,"[0, 28, 12, 26, 4, 24]",6,8,"[3, 5, 7, 8, 9, 11, 15, 17]",83.097171,6884,1330,3,8,9,1.300125291108295
undo,35,0,0,0,0,15,"[0, 28, 12, 26, 4, 24, 15]",7,6,"[3, 5, 7, 8, 9, 11]",59.75193594,8147,1263,3,4,9,1.2709581024003678
undo,35,0,0,0,0,7,"[0, 28, 12, 26, 4, 24, 15, 7]",8,2,"[3, 8]",28.68748681,10683,2536,2,0,9,1.3234126934334873
undo,35,0,0,0,1,3,"[0, 28, 12, 26, 4, 24, 15, 7, 3]",9,0,[],4.604297649,11418,735,1,0,9,1.3627762523312739
undo,35,0,0,1,1,3,"[0, 28, 12, 26, 4, 24, 15, 7, 3]",9,0,[],4.604297649,12165,747,1,0,9,1.3627762523312739
undo,36,25,0,0,0,0,[0],1,28,"[1, 2, 3, 4, 5, 7, 8, 9, 10, 11, 12, 13, 14, 15, 16, 17, 18, 19, 20, 21, 22, 23, 24, 25, 26, 27, 28, 29]",300,132,-1,5,94,10,0.0
undo,36,25,0,0,0,23,"[0, 23]",2,23,"[1, 2, 3, 5, 7, 8, 9, 11, 12, 13, 14, 16, 17, 19, 20, 21, 22, 24, 25, 26, 27, 28, 29]",259.7756293,1885,1753,3,33,10,1.0
undo,36,25,0,0,0,19,"[0, 23, 19]",3,21,"[1, 2, 3, 5, 7, 8, 9, 11, 12, 13, 14, 16, 17, 20, 21, 22, 24, 25, 27, 28, 29]",223.9287326,2732,847,3,24,10,1.583101227007039
undo,36,25,0,0,0,29,"[0, 23, 19, 29]",4,19,"[1, 2, 3, 5, 7, 8, 9, 11, 12, 13, 14, 16, 17, 20, 21, 22, 24, 25, 28]",207.649912,3920,1188,3,17,10,1.474631541426484
undo,36,25,0,0,0,22,"[0, 23, 19, 29, 22]",5,18,"[1, 2, 3, 5, 7, 8, 9, 11, 12, 13, 14, 16, 17, 20, 21, 24, 25, 28]",191.5253965,4870,950,3,14,10,1.4020377754906637
undo,36,25,0,0,0,7,"[0, 23, 19, 29, 22, 7]",6,7,"[3, 8, 9, 11, 13, 24, 28]",115.8814939,5948,1078,3,11,10,1.5709678649326715
undo,36,25,0,0,0,24,"[0, 23, 19, 29, 22, 7, 24]",7,5,"[3, 8, 9, 13, 28]",91.12265712,8253,2305,3,7,10,1.486191600033379
undo,36,25,0,0,0,9,"[0, 23, 19, 29, 22, 7, 24, 9]",8,4,"[3, 8, 13, 28]",73.09490075,9503,1250,3,3,10,1.453504870342882
undo,36,25,0,0,0,3,"[0, 23, 19, 29, 22, 7, 24, 9, 3]",9,3,"[8, 13, 28]",42.82940885,10180,677,3,0,10,1.388955167525479
undo,36,25,0,0,1,28,"[0, 23, 19, 29, 22, 7, 24, 9, 3, 28]",10,0,[],11.52445716,11388,1208,1,0,10,1.3331084120212044
undo,36,25,0,1,1,28,"[0, 23, 19, 29, 22, 7, 24, 9, 3, 28]",10,0,[],11.52445716,12083,695,1,0,10,1.3331084120212044
undo,37,3,0,0,0,0,[0],1,29,"[1, 2, 3, 4, 5, 6, 7, 8, 9, 10, 11, 12, 13, 14, 15, 16, 17, 18, 19, 20, 21, 22, 23, 24, 25, 26, 27, 28, 29]",300,131,-1,34,427,10,0.0
undo,37,3,0,0,0,17,"[0, 17]",2,16,"[3, 4, 7, 8, 10, 12, 14, 15, 16, 19, 20, 21, 22, 24, 26, 27]",197.6965299,2920,2789,2,27,9,1.0
undo,37,3,0,0,0,20,"[0, 17, 20]",3,13,"[3, 4, 7, 8, 10, 14, 15, 16, 19, 21, 22, 24, 27]",185.0474192,5335,2415,2,24,9,1.0153332121237257
undo,37,3,0,0,0,3,"[0, 17, 20, 3]",4,10,"[4, 7, 8, 10, 14, 15, 16, 19, 21, 24]",164.6513412,7271,1936,2,22,9,1.0819240770773468
undo,37,3,0,0,0,19,"[0, 17, 20, 3, 19]",5,6,"[4, 8, 10, 14, 21, 24]",127.3150318,8643,1372,2,11,9,1.1701070532957258
undo,37,3,0,0,0,21,"[0, 17, 20, 3, 19, 21]",6,5,"[4, 8, 10, 14, 24]",115.1084762,9328,685,2,6,9,1.202395500952127
undo,37,3,0,0,0,10,"[0, 17, 20, 3, 19, 21, 10]",7,2,"[4, 14]",65.77289062,10688,1360,2,0,8,1.4875535837212719
undo,37,3,0,0,1,14,"[0, 17, 20, 3, 19, 21, 10, 14]",8,0,[],20.31961791,11991,1303,1,0,8,2.1730328125334464
undo,37,3,0,1,1,14,"[0, 17, 20, 3, 19, 21, 10, 14]",8,0,[],20.31961791,12681,690,1,0,8,2.1730328125334464
undo,38,27,0,0,0,0,[0],1,26,"[1, 3, 5, 6, 7, 8, 9, 10, 11, 12, 13, 14, 15, 16, 17, 18, 19, 21, 22, 23, 24, 25, 26, 27, 28, 29]",300,181,-1,13,578,11,0.0
undo,38,27,0,0,0,15,"[0, 15]",2,24,"[1, 3, 5, 6, 7, 8, 9, 10, 11, 12, 13, 14, 16, 17, 18, 19, 21, 22, 23, 24, 25, 26, 27, 29]",263.7508621,2125,1944,6,219,11,1.0
undo,38,27,0,0,0,24,"[0, 15, 24]",3,20,"[1, 5, 6, 7, 8, 9, 10, 12, 13, 14, 16, 17, 18, 19, 21, 23, 25, 26, 27, 29]",246.5462115,3364,1239,6,130,11,1.130933077698322
undo,38,27,0,0,0,17,"[0, 15, 24, 17]",4,15,"[1, 6, 8, 10, 12, 13, 14, 16, 18, 19, 23, 25, 26, 27, 29]",229.9932662,4324,960,4,60,11,1.1285538435963374
undo,38,27,0,0,0,12,"[0, 15, 24, 17, 12]",5,14,"[1, 6, 8, 10, 13, 14, 16, 18, 19, 23, 25, 26, 27, 29]",218.8129263,6156,1832,2,32,11,1.2561880288755216
undo,38,27,0,0,0,10,"[0, 15, 24, 17, 12, 10]",6,11,"[1, 8, 13, 14, 18, 19, 23, 25, 26, 27, 29]",207.7675653,6939,783,2,28,11,1.2228289337766665
undo,38,27,0,0,0,13,"[0, 15, 24, 17, 12, 10, 13]",7,9,"[1, 8, 14, 18, 19, 23, 26, 27, 29]",167.9178476,8684,1745,2,18,11,1.3421291994761178
undo,38,27,0,0,0,19,"[0, 15, 24, 17, 12, 10, 13, 19]",8,5,"[1, 8, 14, 23, 29]",131.6825057,10508,1824,2,6,11,1.294749956153846
undo,38,27,0,0,0,8,"[0, 15, 24, 17, 12, 10, 13, 19, 8]",9,3,"[14, 23, 29]",116.816437,11934,1426,2,1,11,1.3554286578836865
undo,38,27,0,0,0,14,"[0, 15, 24, 17, 12, 10, 13, 19, 8, 14]",10,1,[29],59.25777126,15396,3462,1,0,11,1.312380420632942
undo,38,27,0,0,1,29,"[0, 15, 24, 17, 12, 10, 13, 19, 8, 14, 29]",11,0,[],14.96330208,16691,1295,1,0,11,1.4680136813839417
undo,38,27,0,1,1,29,"[0, 15, 24, 17, 12, 10, 13, 19, 8, 14, 29]",11,0,[],14.96330208,17531,840,1,0,11,1.4680136813839417
undo,39,29,0,0,0,0,[0],1,29,"[1, 2, 3, 4, 5, 6, 7, 8, 9, 10, 11, 12, 13, 14, 15, 16, 17, 18, 19, 20, 21, 22, 23, 24, 25, 26, 27, 28, 29]",300,131,-1,1,78,9,0.0
undo,39,29,0,0,0,6,"[0, 6]",2,28,"[1, 2, 3, 4, 5, 7, 8, 9, 10, 11, 12, 13, 14, 15, 16, 17, 18, 19, 20, 21, 22, 23, 24, 25, 26, 27, 28, 29]",228.4108947,2590,2459,1,25,9,1.0
undo,39,29,0,0,0,28,"[0, 6, 28]",3,24,"[1, 3, 4, 5, 7, 9, 10, 11, 12, 13, 14, 15, 16, 17, 18, 20, 21, 22, 23, 24, 25, 26, 27, 29]",187.1798384,3615,1025,1,22,9,1.162106788166845
undo,39,29,0,0,0,27,"[0, 6, 28, 27]",4,19,"[1, 3, 4, 5, 7, 9, 10, 11, 12, 13, 14, 15, 16, 21, 22, 23, 25, 26, 29]",166.6615539,4455,840,1,21,9,1.2307173895439045
undo,39,29,0,0,0,22,"[0, 6, 28, 27, 22]",5,13,"[1, 3, 4, 5, 7, 9, 12, 13, 14, 15, 21, 26, 29]",133.4200136,5446,991,1,19,9,1.4241767805149903
undo,39,29,0,0,0,12,"[0, 6, 28, 27, 22, 12]",6,8,"[4, 5, 7, 9, 13, 14, 21, 26]",95.4726817,6326,880,1,6,9,1.3248355326460857
undo,39,29,0,0,0,7,"[0, 6, 28, 27, 22, 12, 7]",7,4,"[4, 5, 9, 21]",81.87121119,6975,649,1,3,9,1.3264091962339806
undo,39,29,0,0,0,9,"[0, 6, 28, 27, 22, 12, 7, 9]",8,1,[4],52.80232748,7928,953,1,0,9,1.309391257644539
undo,39,29,0,0,1,4,"[0, 6, 28, 27, 22, 12, 7, 9, 4]",9,0,[],11.76575843,10631,2703,1,0,9,1.6396807789841599
undo,39,29,0,1,1,4,"[0, 6, 28, 27, 22, 12, 7, 9, 4]",9,0,[],11.76575843,11615,984,1,0,9,1.6396807789841599
undo,40,8,0,0,0,0,[0],1,29,"[1, 2, 3, 4, 5, 6, 7, 8, 9, 10, 11, 12, 13, 14, 15, 16, 17, 18, 19, 20, 21, 22, 23, 24, 25, 26, 27, 28, 29]",300,166,-1,10,149,9,0.0
undo,40,8,0,0,0,5,"[0, 5]",2,28,"[1, 2, 3, 4, 6, 7, 8, 9, 10, 11, 12, 13, 14, 15, 16, 17, 18, 19, 20, 21, 22, 23, 24, 25, 26, 27, 28, 29]",254.5137383,3470,3304,10,100,9,1.0
undo,40,8,0,0,0,25,"[0, 5, 25]",3,20,"[1, 2, 3, 4, 6, 11, 12, 14, 15, 16, 17, 18, 19, 20, 21, 22, 23, 24, 28, 29]",215.3091468,4547,1077,4,42,9,1.2272747879909065
undo,40,8,0,0,0,1,"[0, 5, 25, 1]",4,17,"[3, 4, 6, 11, 12, 14, 15, 16, 17, 18, 20, 21, 22, 23, 24, 28, 29]",190.3091468,5171,624,3,24,9,1.1770245007593956
undo,40,8,0,0,0,23,"[0, 5, 25, 1, 23]",5,15,"[3, 4, 6, 11, 14, 15, 16, 17, 18, 20, 21, 22, 24, 28, 29]",167.2874179,6019,848,1,14,9,1.141996583852372
undo,40,8,0,0,0,18,"[0, 5, 25, 1, 23, 18]",6,9,"[3, 4, 11, 14, 15, 16, 17, 24, 28]",125.5261919,7263,1244,1,7,9,1.3199166330970717
undo,40,8,0,0,0,28,"[0, 5, 25, 1, 23, 18, 28]",7,1,[16],59.906073,8386,1123,1,0,8,1.425373059246715
undo,40,8,0,0,1,16,"[0, 5, 25, 1, 23, 18, 28, 16]",8,0,[],37.54539323,9138,752,1,0,8,1.4175143337764708
undo,40,8,0,1,1,16,"[0, 5, 25, 1, 23, 18, 28, 16]",8,0,[],37.54539323,9883,745,1,0,8,1.4175143337764708
undo,41,45,0,0,0,0,[0],1,24,"[1, 2, 3, 4, 5, 6, 7, 9, 10, 11, 12, 14, 15, 16, 17, 19, 20, 21, 22, 23, 24, 25, 27, 29]",300,131,-1,6,248,10,0.0
undo,41,45,0,0,0,20,"[0, 20]",2,22,"[1, 2, 3, 4, 5, 6, 7, 9, 10, 11, 12, 14, 15, 16, 17, 19, 21, 22, 23, 24, 25, 29]",207.8642306,3428,3297,1,73,9,1.0
undo,41,45,0,0,0,10,"[0, 20, 10]",3,17,"[2, 3, 4, 6, 7, 9, 12, 14, 15, 16, 17, 19, 22, 23, 24, 25, 29]",151.783931,4093,665,28,123,8,1.0072708862872697
undo,41,45,0,0,0,6,"[0, 20, 10, 6]",4,12,"[2, 3, 7, 9, 12, 14, 16, 22, 23, 24, 25, 29]",125.5351215,4805,712,9,31,8,1.0129449322146298
undo,41,45,0,0,0,12,"[0, 20, 10, 6, 12]",5,6,"[2, 3, 7, 22, 25, 29]",105.4105098,6278,1473,6,7,8,1.0241552115789474
undo,41,45,0,0,0,22,"[0, 20, 10, 6, 12, 22]",6,3,"[2, 3, 29]",73.83520294,7885,1607,2,2,8,1.0643432296552389
undo,41,45,0,1,0,22,"[0, 20, 10, 6, 12, 22]",6,3,"[2, 3, 29]",73.83520294,15431,7546,2,2,8,1.0643432296552389
undo,42,7,0,0,0,0,[0],1,29,"[1, 2, 3, 4, 5, 6, 7, 8, 9, 10, 11, 12, 13, 14, 15, 16, 17, 18, 19, 20, 21, 22, 23, 24, 25, 26, 27, 28, 29]",300,131,-1,3,79,9,0.0
undo,42,7,0,0,0,23,"[0, 23]",2,28,"[1, 2, 3, 4, 5, 6, 7, 8, 9, 10, 11, 12, 13, 14, 15, 16, 17, 18, 19, 20, 21, 22, 24, 25, 26, 27, 28, 29]",253.7290588,1767,1636,6,103,8,1.0
undo,42,7,0,0,0,16,"[0, 23, 16]",3,20,"[1, 2, 3, 4, 5, 6, 7, 10, 11, 13, 14, 15, 18, 19, 20, 22, 24, 25, 27, 29]",164.6223812,2823,1056,12,52,7,1.0510824079114807
undo,42,7,0,0,0,14,"[0, 23, 16, 14]",4,7,"[1, 5, 10, 11, 22, 24, 29]",116.9883597,3935,1112,4,9,7,1.2073205725097695
undo,42,7,0,0,0,5,"[0, 23, 16, 14, 5]",5,6,"[1, 10, 11, 22, 24, 29]",101.9883597,4736,801,4,3,7,1.2533135392642498
undo,42,7,0,0,0,22,"[0, 23, 16, 14, 5, 22]",6,2,"[1, 24]",40.14177532,6039,1303,2,0,7,1.2480209635484918
undo,42,7,0,0,1,24,"[0, 23, 16, 14, 5, 22, 24]",7,0,[],17.938172,7128,1089,1,0,7,1.2843701026857763
undo,42,7,0,1,1,24,"[0, 23, 16, 14, 5, 22, 24]",7,0,[],17.938172,7764,636,1,0,7,1.2843701026857763
undo,43,6,0,0,0,0,[0],1,29,"[1, 2, 3, 4, 5, 6, 7, 8, 9, 10, 11, 12, 13, 14, 15, 16, 17, 18, 19, 20, 21, 22, 23, 24, 25, 26, 27, 28, 29]",300,132,-1,180,4304,10,0.0
undo,43,6,0,0,0,3,"[0, 3]",2,28,"[1, 2, 4, 5, 6, 7, 8, 9, 10, 11, 12, 13, 14, 15, 16, 17, 18, 19, 20, 21, 22, 23, 24, 25, 26, 27, 28, 29]",266.4738908,2096,1964,90,1607,10,1.0
undo,43,6,0,0,0,18,"[0, 3, 18]",3,27,"[1, 2, 4, 5, 6, 7, 8, 9, 10, 11, 12, 13, 14, 15, 16, 17, 19, 20, 21, 22, 23, 24, 25, 26, 27, 28, 29]",237.4738908,3581,1485,34,516,10,1.0266750028725786
undo,43,6,0,0,0,17,"[0, 3, 18, 17]",4,26,"[1, 2, 4, 5, 6, 7, 8, 9, 10, 11, 12, 13, 14, 15, 16, 19, 20, 21, 22, 23, 24, 25, 26, 27, 28, 29]",223.5455025,4393,812,17,243,10,1.0832900829093166
undo,43,6,0,0,0,10,"[0, 3, 18, 17, 10]",5,22,"[1, 2, 4, 5, 6, 7, 8, 9, 11, 13, 14, 16, 19, 20, 21, 22, 23, 24, 26, 27, 28, 29]",203.8224196,5593,1200,10,111,10,1.140294203414171
undo,43,6,0,0,0,24,"[0, 3, 18, 17, 10, 24]",6,19,"[1, 2, 4, 5, 6, 7, 8, 11, 13, 14, 16, 20, 21, 22, 23, 26, 27, 28, 29]",190.4060117,6185,592,10,80,10,1.1264281153820843
undo,43,6,0,0,0,23,"[0, 3, 18, 17, 10, 24, 23]",7,9,"[5, 6, 7, 11, 14, 16, 22, 27, 29]",129.2177775,7402,1217,3,18,10,1.2725820835879924
undo,43,6,0,0,0,6,"[0, 3, 18, 17, 10, 24, 23, 6]",8,5,"[5, 11, 22, 27, 29]",93.86243848,8329,927,2,4,10,1.2798885340436483
undo,43,6,0,0,0,27,"[0, 3, 18, 17, 10, 24, 23, 6, 27]",9,2,"[11, 22]",47.8515702,9593,1264,2,0,10,1.341423811891677
undo,43,6,0,0,1,11,"[0, 3, 18, 17, 10, 24, 23, 6, 27, 11]",10,0,[],4.561848558,11436,1843,1,0,10,1.344498925249562
undo,43,6,0,1,1,11,"[0, 3, 18, 17, 10, 24, 23, 6, 27, 11]",10,0,[],4.561848558,12215,779,1,0,10,1.344498925249562
undo,44,22,0,0,0,0,[0],1,29,"[1, 2, 3, 4, 5, 6, 7, 8, 9, 10, 11, 12, 13, 14, 15, 16, 17, 18, 19, 20, 21, 22, 23, 24, 25, 26, 27, 28, 29]",300,148,-1,31,704,9,0.0
undo,44,22,0,0,0,9,"[0, 9]",2,19,"[1, 3, 6, 7, 8, 13, 14, 15, 16, 17, 19, 20, 21, 22, 23, 24, 25, 28, 29]",210.4455473,2386,2238,60,492,8,1.0
undo,44,22,0,0,0,14,"[0, 9, 14]",3,14,"[1, 3, 6, 7, 13, 15, 16, 17, 19, 20, 21, 24, 28, 29]",167.3990608,3344,958,10,70,8,1.0236174513811638
undo,44,22,0,0,0,7,"[0, 9, 14, 7]",4,13,"[1, 3, 6, 13, 15, 16, 17, 19, 20, 21, 24, 28, 29]",154.360656,4272,928,10,52,8,1.158021591004129
undo,44,22,0,0,0,19,"[0, 9, 14, 7, 19]",5,9,"[6, 13, 16, 17, 20, 21, 24, 28, 29]",108.0897148,5512,1240,3,12,8,2.4102029956769053
undo,44,22,0,0,0,29,"[0, 9, 14, 7, 19, 29]",6,6,"[6, 16, 17, 21, 24, 28]",93.0564184,6872,1360,2,5,8,2.6873523635807692
undo,44,22,0,0,1,24,"[0, 9, 14, 7, 19, 29, 24]",7,0,[],25.15943761,8019,1147,1,0,7,2.0489959846391437
undo,44,22,0,1,1,24,"[0, 9, 14, 7, 19, 29, 24]",7,0,[],25.15943761,11282,3263,1,0,7,2.0489959846391437
undo,45,11,0,0,0,0,[0],1,25,"[1, 2, 3, 4, 5, 6, 8, 9, 10, 11, 12, 13, 14, 15, 16, 17, 18, 19, 20, 22, 23, 25, 26, 27, 28]",300,148,-1,6,374,12,0.0
undo,45,11,0,0,0,5,"[0, 5]",2,15,"[2, 6, 8, 11, 12, 14, 15, 16, 17, 18, 19, 22, 25, 27, 28]",137.3070376,2784,2636,55,334,9,1.0
undo,45,11,0,0,0,2,"[0, 5, 2]",3,12,"[6, 8, 11, 12, 14, 15, 17, 18, 19, 22, 27, 28]",120.3070376,3779,995,19,101,9,1.0067504085355843
undo,45,11,0,0,0,22,"[0, 5, 2, 22]",4,7,"[8, 11, 15, 17, 19, 27, 28]",110.257162,4517,738,14,36,9,1.0064127562179954
undo,45,11,0,0,0,28,"[0, 5, 2, 22, 28]",5,5,"[8, 11, 15, 17, 19]",91.87238571,5187,670,13,10,9,1.2044188178229356
undo,45,11,0,0,0,11,"[0, 5, 2, 22, 28, 11]",6,3,"[8, 15, 17]",72.45589787,6363,1176,6,0,9,1.3125020553889362
undo,45,11,0,0,0,15,"[0, 5, 2, 22, 28, 11, 15]",7,2,"[8, 17]",54.3451276,7092,729,2,0,9,1.565983650138412
undo,45,11,0,0,0,8,"[0, 5, 2, 22, 28, 11, 15, 8]",8,1,[17],40.89150355,7707,615,1,0,9,1.7844108346122292
undo,45,11,0,0,1,17,"[0, 5, 2, 22, 28, 11, 15, 8, 17]",9,0,[],26.57368249,9028,1321,1,0,9,1.8590538775594907
undo,45,11,0,1,1,17,"[0, 5, 2, 22, 28, 11, 15, 8, 17]",9,0,[],26.57368249,9831,803,1,0,9,1.8590538775594907
undo,46,30,0,0,0,0,[0],1,19,"[3, 4, 5, 7, 9, 11, 16, 17, 18, 19, 20, 21, 22, 24, 25, 26, 27, 28, 29]",300,132,-1,5,41,8,0.0
undo,46,30,0,0,0,16,"[0, 16]",2,17,"[3, 5, 7, 9, 11, 17, 18, 19, 20, 21, 22, 24, 25, 26, 27, 28, 29]",219.3774225,4436,4304,5,34,8,1.0
undo,46,30,0,0,0,11,"[0, 16, 11]",3,7,"[9, 17, 20, 21, 22, 25, 26]",117.1962109,6493,2057,4,4,5,1.0258711385446289
undo,46,30,0,0,0,9,"[0, 16, 11, 9]",4,2,"[20, 25]",60.68072633,7505,1012,2,0,5,1.1786838797126196
undo,46,30,0,0,1,20,"[0, 16, 11, 9, 20]",5,0,[],10.7507754,8519,1014,1,0,5,1.4456318599626854
undo,46,30,0,1,1,20,"[0, 16, 11, 9, 20]",5,0,[],10.7507754,9832,1313,1,0,5,1.4456318599626854
undo,47,37,0,0,0,0,[0],1,29,"[1, 2, 3, 4, 5, 6, 7, 8, 9, 10, 11, 12, 13, 14, 15, 16, 17, 18, 19, 20, 21, 22, 23, 24, 25, 26, 27, 28, 29]",300,131,-1,6,168,10,0.0
undo,47,37,0,0,0,29,"[0, 29]",2,20,"[1, 2, 3, 4, 5, 6, 7, 9, 10, 11, 15, 17, 18, 19, 20, 21, 22, 25, 26, 28]",170.2887823,2500,2369,40,58,6,1.0
undo,47,37,0,0,0,17,"[0, 29, 17]",3,8,"[3, 5, 6, 9, 10, 11, 19, 28]",116.8285167,3507,1007,5,6,6,2.0065831979671005
undo,47,37,0,0,0,10,"[0, 29, 17, 10]",4,4,"[3, 5, 6, 28]",102.2682969,4802,1295,3,3,6,1.9847739413011665
undo,47,37,0,0,0,6,"[0, 29, 17, 10, 6]",5,3,"[3, 5, 28]",87.95047583,5795,993,3,0,6,2.3678278159897923
undo,47,37,0,0,1,5,"[0, 29, 17, 10, 6, 5]",6,0,[],25.01399992,7227,1432,1,0,6,2.2356585372357722
undo,47,37,0,1,1,5,"[0, 29, 17, 10, 6, 5]",6,0,[],25.01399992,8281,1054,1,0,6,2.2356585372357722
undo,48,21,0,0,0,0,[0],1,29,"[1, 2, 3, 4, 5, 6, 7, 8, 9, 10, 11, 12, 13, 14, 15, 16, 17, 18, 19, 20, 21, 22, 23, 24, 25, 26, 27, 28, 29]",300,131,-1,84,830,9,0.0
undo,48,21,0,0,0,20,"[0, 20]",2,28,"[1, 2, 3, 4, 5, 6, 7, 8, 9, 10, 11, 12, 13, 14, 15, 16, 17, 18, 19, 21, 22, 23, 24, 25, 26, 27, 28, 29]",217.6228187,2391,2260,6,67,9,1.0
undo,48,21,0,0,0,22,"[0, 20, 22]",3,23,"[2, 4, 6, 7, 8, 9, 10, 11, 12, 13, 14, 15, 16, 17, 18, 19, 21, 23, 24, 25, 26, 27, 29]",189.3916303,3351,960,6,47,9,1.3451865712078994
undo,48,21,0,0,0,18,"[0, 20, 22, 18]",4,20,"[2, 4, 6, 7, 8, 9, 10, 11, 12, 14, 15, 16, 17, 21, 23, 24, 25, 26, 27, 29]",162.9908727,4006,655,4,25,9,2.3191924394507706
undo,48,21,0,0,0,29,"[0, 20, 22, 18, 29]",5,16,"[2, 4, 6, 7, 8, 10, 12, 14, 15, 16, 17, 21, 23, 24, 25, 27]",134.3377751,5254,1248,2,10,9,1.9554738681863184
undo,48,21,0,0,0,25,"[0, 20, 22, 18, 29, 25]",6,5,"[4, 14, 17, 21, 23]",89.11609892,6326,1072,2,5,9,3.5255206171255487
undo,48,21,0,0,0,23,"[0, 20, 22, 18, 29, 25, 23]",7,3,"[4, 14, 21]",45.79174087,7817,1491,1,2,9,2.5672363743380044
undo,48,21,0,0,1,21,"[0, 20, 22, 18, 29, 25, 23, 21]",8,0,[],16.17755508,8590,773,1,0,8,3.1574832580391976
undo,48,21,0,1,1,21,"[0, 20, 22, 18, 29, 25, 23, 21]",8,0,[],16.17755508,9948,1358,1,0,8,3.1574832580391976
undo,49,1,0,0,0,0,[0],1,26,"[1, 2, 4, 5, 7, 8, 9, 10, 11, 12, 13, 14, 15, 16, 17, 18, 19, 20, 21, 22, 23, 24, 25, 26, 28, 29]",300,164,-1,6,74,7,0.0
undo,49,1,0,0,0,14,"[0, 14]",2,19,"[1, 4, 5, 8, 9, 13, 15, 17, 18, 19, 20, 21, 22, 23, 24, 25, 26, 28, 29]",200.1901808,4828,4664,5,42,7,1.0
undo,49,1,0,0,0,17,"[0, 14, 17]",3,15,"[1, 4, 5, 8, 9, 13, 15, 18, 19, 20, 22, 23, 25, 28, 29]",147.8356204,5872,1044,5,27,7,1.0028844724416826
undo,49,1,0,0,0,1,"[0, 14, 17, 1]",4,12,"[4, 5, 8, 9, 15, 18, 20, 22, 23, 25, 28, 29]",123.4840291,7392,1520,5,15,7,1.0264985578353567
undo,49,1,0,0,0,28,"[0, 14, 17, 1, 28]",5,5,"[9, 15, 22, 23, 29]",88.59850198,8108,716,5,3,7,1.0339861575999345
undo,49,1,0,0,0,23,"[0, 14, 17, 1, 28, 23]",6,2,"[15, 22]",51.70676849,9580,1472,2,0,7,1.0327458250705703
undo,49,1,0,0,1,15,"[0, 14, 17, 1, 28, 23, 15]",7,0,[],20.81987807,11080,1500,1,0,7,1.1948681641401226
undo,49,1,0,1,1,15,"[0, 14, 17, 1, 28, 23, 15]",7,0,[],20.81987807,12215,1135,1,0,7,1.1948681641401226
undo,50,23,0,0,0,0,[0],1,28,"[1, 2, 3, 4, 5, 6, 7, 8, 9, 10, 11, 12, 13, 14, 15, 16, 17, 18, 19, 20, 21, 22, 23, 25, 26, 27, 28, 29]",300,165,-1,76,2626,10,0.0
undo,50,23,0,0,0,13,"[0, 13]",2,19,"[1, 2, 3, 5, 6, 7, 8, 9, 10, 12, 14, 17, 18, 19, 21, 22, 23, 27, 29]",189.3202819,3823,3658,9,168,10,1.0
undo,50,23,0,0,0,12,"[0, 13, 12]",3,16,"[1, 2, 3, 6, 7, 8, 9, 10, 14, 17, 18, 21, 22, 23, 27, 29]",177.2372359,4911,1088,9,96,10,1.0014195490503164
undo,50,23,0,0,0,9,"[0, 13, 12, 9]",4,13,"[1, 2, 3, 6, 7, 10, 14, 17, 18, 21, 22, 27, 29]",162.9194149,5640,729,3,30,10,1.049232924848041
undo,50,23,0,0,0,14,"[0, 13, 12, 9, 14]",5,11,"[1, 2, 3, 6, 7, 10, 18, 21, 22, 27, 29]",152.4791083,6424,784,1,9,10,1.047064109194793
undo,50,23,0,0,0,2,"[0, 13, 12, 9, 14, 2]",6,7,"[6, 7, 10, 18, 22, 27, 29]",137.6130396,7463,1039,4,12,9,1.1900073741388617
undo,50,23,0,0,0,6,"[0, 13, 12, 9, 14, 2, 6]",7,5,"[7, 18, 22, 27, 29]",119.1739507,8560,1097,3,3,9,1.2035561408942026
undo,50,23,0,0,0,27,"[0, 13, 12, 9, 14, 2, 6, 27]",8,2,"[18, 22]",90.87200729,9944,1384,2,0,9,1.460613258021435
undo,50,23,0,0,1,18,"[0, 13, 12, 9, 14, 2, 6, 27, 18]",9,0,[],15.55932576,11301,1357,1,0,9,2.9597139353041295
undo,50,23,0,1,1,18,"[0, 13, 12, 9, 14, 2, 6, 27, 18]",9,0,[],15.55932576,11998,697,1,0,9,2.9597139353041295
undo,51,10,0,0,0,0,[0],1,29,"[1, 2, 3, 4, 5, 6, 7, 8, 9, 10, 11, 12, 13, 14, 15, 16, 17, 18, 19, 20, 21, 22, 23, 24, 25, 26, 27, 28, 29]",300,147,-1,1,100,9,0.0
undo,51,10,0,0,0,13,"[0, 13]",2,25,"[1, 2, 3, 4, 6, 7, 8, 9, 10, 11, 12, 14, 17, 18, 19, 20, 21, 22, 23, 24, 25, 26, 27, 28, 29]",249.4628849,2018,1871,1,79,9,1.0
undo,51,10,0,0,0,11,"[0, 13, 11]",3,20,"[1, 2, 3, 6, 7, 8, 9, 10, 12, 14, 18, 19, 20, 21, 22, 24, 26, 27, 28, 29]",206.4512586,3334,1316,1,54,9,1.0313137484914219
undo,51,10,0,0,0,19,"[0, 13, 11, 19]",4,11,"[2, 6, 8, 9, 10, 14, 18, 20, 24, 26, 27]",170.0919407,4085,751,1,22,9,1.0879446220132545
undo,51,10,0,0,0,26,"[0, 13, 11, 19, 26]",5,8,"[2, 6, 9, 10, 14, 18, 20, 27]",141.7723361,5022,937,10,10,8,1.1947240924037068
undo,51,10,0,0,0,20,"[0, 13, 11, 19, 26, 20]",6,7,"[2, 6, 9, 10, 14, 18, 27]",109.991839,6067,1045,6,2,8,1.5698329566273737
undo,51,10,0,0,0,27,"[0, 13, 11, 19, 26, 20, 27]",7,2,"[6, 9]",64.73700499,7030,963,2,0,8,1.5107679049823484
undo,51,10,0,0,1,6,"[0, 13, 11, 19, 26, 20, 27, 6]",8,0,[],4.828741785,9189,2159,1,0,8,1.3906319685732755
undo,51,10,0,1,1,6,"[0, 13, 11, 19, 26, 20, 27, 6]",8,0,[],4.828741785,9997,808,1,0,8,1.3906319685732755
undo,52,33,0,0,0,0,[0],1,23,"[1, 2, 5, 7, 8, 11, 12, 13, 14, 15, 16, 17, 18, 19, 20, 21, 23, 24, 25, 26, 27, 28, 29]",300,131,-1,5,108,9,0.0
undo,52,33,0,0,0,21,"[0, 21]",2,17,"[2, 5, 7, 8, 11, 13, 14, 16, 17, 18, 19, 20, 24, 26, 27, 28, 29]",174.4611614,3046,2915,21,129,8,1.0
undo,52,33,0,0,0,13,"[0, 21, 13]",3,15,"[2, 5, 7, 8, 11, 14, 16, 17, 18, 19, 20, 24, 26, 28, 29]",148.0604038,3884,838,17,72,8,1.0001005298764474
undo,52,33,0,0,0,19,"[0, 21, 13, 19]",4,11,"[7, 11, 14, 16, 17, 18, 20, 24, 26, 28, 29]",122.5653063,4922,1038,10,27,8,1.0588446738393702
undo,52,33,0,0,0,24,"[0, 21, 13, 19, 24]",5,7,"[7, 14, 16, 18, 26, 28, 29]",80.51771417,6439,1517,3,5,8,1.078006777679028
undo,52,33,0,0,0,7,"[0, 21, 13, 19, 24, 7]",6,3,"[14, 26, 29]",51.31155044,7174,735,3,1,8,1.1669985062633954
undo,52,33,0,0,0,14,"[0, 21, 13, 19, 24, 7, 14]",7,2,"[26, 29]",36.44548169,7954,780,2,0,8,1.2148465775488593
undo,52,33,0,0,1,26,"[0, 21, 13, 19, 24, 7, 14, 26]",8,0,[],23.79637105,9178,1224,1,0,8,1.2208379656544521
undo,52,33,0,1,1,26,"[0, 21, 13, 19, 24, 7, 14, 26]",8,0,[],23.79637105,10815,1637,1,0,8,1.2208379656544521
undo,53,35,0,0,0,0,[0],1,29,"[1, 2, 3, 4, 5, 6, 7, 8, 9, 10, 11, 12, 13, 14, 15, 16, 17, 18, 19, 20, 21, 22, 23, 24, 25, 26, 27, 28, 29]",300,148,-1,5,236,11,0.0
undo,53,35,0,0,0,24,"[0, 24]",2,27,"[1, 2, 4, 5, 6, 7, 8, 9, 10, 11, 12, 13, 14, 15, 16, 17, 18, 19, 20, 21, 22, 23, 25, 26, 27, 28, 29]",268.9838752,1546,1398,49,512,10,1.0
undo,53,35,0,0,0,17,"[0, 24, 17]",3,26,"[1, 2, 4, 5, 6, 7, 8, 9, 10, 11, 12, 13, 14, 15, 16, 18, 19, 20, 21, 22, 23, 25, 26, 27, 28, 29]",257.2791753,2217,671,33,238,10,1.0771477201815276
undo,53,35,0,0,0,1,"[0, 24, 17, 1]",4,25,"[2, 4, 5, 6, 7, 8, 9, 10, 11, 12, 13, 14, 15, 16, 18, 19, 20, 21, 22, 23, 25, 26, 27, 28, 29]",241.4677869,4342,2125,26,151,10,1.2244804141479215
undo,53,35,0,0,0,15,"[0, 24, 17, 1, 15]",5,23,"[2, 4, 5, 6, 7, 8, 9, 10, 11, 12, 14, 16, 18, 19, 20, 21, 22, 23, 25, 26, 27, 28, 29]",218.6204676,5451,1109,26,78,10,1.4642196672428094
undo,53,35,0,0,0,23,"[0, 24, 17, 1, 15, 23]",6,11,"[4, 5, 6, 9, 18, 19, 25, 26, 27, 28, 29]",158.1804147,6394,943,15,12,10,1.3338903684702363
undo,53,35,0,0,0,9,"[0, 24, 17, 1, 15, 23, 9]",7,6,"[5, 6, 18, 19, 25, 27]",120.5373542,7890,1496,6,1,10,1.5964380615155294
undo,53,35,0,0,0,18,"[0, 24, 17, 1, 15, 23, 9, 18]",8,3,"[5, 6, 25]",100.5123698,8562,672,2,1,10,1.5508488101942703
undo,53,35,0,0,0,6,"[0, 24, 17, 1, 15, 23, 9, 18, 6]",9,1,[25],66.89689722,10418,1856,1,0,10,1.541466044761729
undo,53,35,0,0,1,25,"[0, 24, 17, 1, 15, 23, 9, 18, 6, 25]",10,0,[],42.87607292,11073,655,1,0,10,1.5877595882523792
undo,53,35,0,1,1,25,"[0, 24, 17, 1, 15, 23, 9, 18, 6, 25]",10,0,[],42.87607292,11882,809,1,0,10,1.5877595882523792
undo,54,24,0,0,0,0,[0],1,29,"[1, 2, 3, 4, 5, 6, 7, 8, 9, 10, 11, 12, 13, 14, 15, 16, 17, 18, 19, 20, 21, 22, 23, 24, 25, 26, 27, 28, 29]",300,132,-1,4,76,10,0.0
undo,54,24,0,0,0,16,"[0, 16]",2,28,"[1, 2, 3, 4, 5, 6, 7, 8, 9, 10, 11, 12, 13, 14, 15, 17, 18, 19, 20, 21, 22, 23, 24, 25, 26, 27, 28, 29]",210.3562607,1283,1151,13,110,9,1.0
undo,54,24,0,0,0,22,"[0, 16, 22]",3,27,"[1, 2, 3, 4, 5, 6, 7, 8, 9, 10, 11, 12, 13, 14, 15, 17, 18, 19, 20, 21, 23, 24, 25, 26, 27, 28, 29]",192.3285043,2277,994,7,54,9,1.0217425143037777
undo,54,24,0,0,0,15,"[0, 16, 22, 15]",4,24,"[2, 3, 4, 5, 6, 7, 8, 9, 10, 11, 12, 13, 14, 17, 18, 19, 21, 23, 24, 25, 26, 27, 28, 29]",171.1153009,3742,1465,3,24,9,1.077448994301009
undo,54,24,0,0,0,28,"[0, 16, 22, 15, 28]",5,12,"[3, 4, 6, 8, 9, 11, 13, 21, 23, 25, 26, 27]",125.8383752,5368,1626,2,10,9,1.0579370080485104
undo,54,24,0,0,0,23,"[0, 16, 22, 15, 28, 23]",6,7,"[3, 4, 8, 9, 11, 13, 27]",106.8120776,6015,647,2,4,9,1.0965087965469686
undo,54,24,0,0,0,11,"[0, 16, 22, 15, 28, 23, 11]",7,2,"[9, 27]",79.88625355,6606,591,2,0,9,1.0958394317987046
undo,54,24,0,0,0,27,"[0, 16, 22, 15, 28, 23, 11, 27]",8,1,[9],52.083376,7958,1352,1,0,9,1.085465547106356
undo,54,24,0,0,1,9,"[0, 16, 22, 15, 28, 23, 11, 27, 9]",9,0,[],12.52329511,9191,1233,1,0,9,1.3543056893413161
undo,54,24,0,1,1,9,"[0, 16, 22, 15, 28, 23, 11, 27, 9]",9,0,[],12.52329511,9865,674,1,0,9,1.3543056893413161
undo,55,20,0,0,0,0,[0],1,21,"[1, 2, 3, 4, 5, 6, 7, 8, 9, 12, 17, 18, 20, 21, 22, 23, 25, 26, 27, 28, 29]",300,131,-1,1,9,9,0.0
undo,55,20,0,0,0,1,"[0, 1]",2,14,"[3, 4, 5, 6, 8, 9, 12, 20, 21, 23, 26, 27, 28, 29]",197.3501096,4051,3920,1,9,8,1.0
undo,55,20,0,0,0,5,"[0, 1, 5]",3,12,"[4, 6, 8, 9, 12, 20, 21, 23, 26, 27, 28, 29]",160.675868,5010,959,1,8,8,1.1088946720668915
undo,55,20,0,0,0,21,"[0, 1, 5, 21]",4,8,"[4, 6, 8, 9, 20, 23, 27, 28]",115.675868,6330,1320,1,6,8,1.0805828994591202
undo,55,20,0,0,0,8,"[0, 1, 5, 21, 8]",5,5,"[6, 9, 23, 27, 28]",98.21161876,7410,1080,1,5,8,1.0976815296746363
undo,55,20,0,0,0,23,"[0, 1, 5, 21, 8, 23]",6,3,"[6, 9, 27]",53.52381281,8427,1017,1,2,8,1.0820667611140062
undo,55,20,0,0,0,9,"[0, 1, 5, 21, 8, 23, 9]",7,1,[6],34.3144401,9274,847,1,0,8,1.0771429624373048
undo,55,20,0,0,1,6,"[0, 1, 5, 21, 8, 23, 9, 6]",8,0,[],11.29271124,10602,1328,1,0,8,1.0892675954154076
undo,55,20,0,1,1,6,"[0, 1, 5, 21, 8, 23, 9, 6]",8,0,[],11.29271124,11347,745,1,0,8,1.0892675954154076
undo,56,17,0,0,0,0,[0],1,28,"[1, 2, 3, 4, 5, 6, 7, 8, 9, 10, 11, 12, 13, 14, 15, 16, 17, 18, 19, 20, 22, 23, 24, 25, 26, 27, 28, 29]",300,132,-1,2,73,8,0.0
undo,56,17,0,0,0,9,"[0, 9]",2,25,"[1, 2, 3, 5, 6, 7, 8, 10, 11, 12, 14, 15, 16, 17, 18, 19, 20, 22, 23, 24, 25, 26, 27, 28, 29]",210.5293344,1902,1770,1,34,8,1.0
undo,56,17,0,0,0,16,"[0, 9, 16]",3,21,"[1, 2, 3, 5, 7, 8, 10, 11, 12, 14, 17, 18, 19, 20, 22, 23, 25, 26, 27, 28, 29]",197.1876704,3269,1367,1,26,8,1.173103464220352
undo,56,17,0,0,0,2,"[0, 9, 16, 2]",4,18,"[1, 3, 5, 7, 8, 10, 11, 12, 14, 17, 18, 19, 23, 25, 26, 27, 28, 29]",181.0631549,4076,807,1,23,8,1.14825089247282
undo,56,17,0,0,0,8,"[0, 9, 16, 2, 8]",5,9,"[3, 7, 10, 11, 12, 14, 17, 26, 27]",145.9490551,5477,1401,1,9,8,1.1509808066472915
undo,56,17,0,0,0,27,"[0, 9, 16, 2, 8, 27]",6,3,"[7, 12, 26]",63.31129136,6573,1096,1,2,8,1.1020704318716983
undo,56,17,0,0,0,12,"[0, 9, 16, 2, 8, 27, 12]",7,1,[26],40.31129136,7645,1072,1,0,8,1.094321365620665
undo,56,17,0,0,1,26,"[0, 9, 16, 2, 8, 27, 12, 26]",8,0,[],5.197191627,8813,1168,1,0,8,1.2018360298670372
undo,56,17,0,1,1,26,"[0, 9, 16, 2, 8, 27, 12, 26]",8,0,[],5.197191627,9482,669,1,0,8,1.2018360298670372
undo,57,44,0,0,0,0,[0],1,29,"[1, 2, 3, 4, 5, 6, 7, 8, 9, 10, 11, 12, 13, 14, 15, 16, 17, 18, 19, 20, 21, 22, 23, 24, 25, 26, 27, 28, 29]",300,132,-1,13,126,7,0.0
undo,57,44,0,0,0,11,"[0, 11]",2,18,"[4, 5, 6, 7, 8, 9, 12, 14, 16, 17, 19, 20, 22, 23, 24, 25, 26, 28]",152.7790776,2913,2781,5,34,7,1.0
undo,57,44,0,0,0,24,"[0, 11, 24]",3,13,"[4, 5, 7, 8, 9, 12, 14, 17, 20, 22, 23, 25, 28]",125.8532535,3697,784,5,23,7,1.1588941745226709
undo,57,44,0,0,0,9,"[0, 11, 24, 9]",4,7,"[4, 7, 8, 12, 14, 20, 23]",93.09657483,4785,1088,2,8,7,1.3039383713641313
undo,57,44,0,0,0,4,"[0, 11, 24, 9, 4]",5,5,"[7, 12, 14, 20, 23]",73.39885923,5785,1000,2,3,7,1.2901330701441578
undo,57,44,0,0,0,7,"[0, 11, 24, 9, 4, 7]",6,1,[23],42.38273439,7177,1392,1,0,7,1.2468141312360979
undo,57,44,0,0,1,23,"[0, 11, 24, 9, 4, 7, 23]",7,0,[],23.27776121,8329,1152,1,0,7,1.2635191782769477
undo,57,44,0,1,1,23,"[0, 11, 24, 9, 4, 7, 23]",7,0,[],23.27776121,9065,736,1,0,7,1.2635191782769477
undo,58,28,0,0,0,0,[0],1,27,"[1, 2, 3, 4, 5, 6, 7, 8, 9, 10, 11, 12, 13, 14, 15, 16, 17, 18, 19, 20, 22, 23, 25, 26, 27, 28, 29]",300,131,-1,2,96,9,0.0
undo,58,28,0,0,0,5,"[0, 5]",2,21,"[2, 3, 4, 6, 7, 8, 9, 10, 11, 12, 13, 14, 15, 18, 19, 20, 23, 25, 26, 28, 29]",169.6427984,1693,1562,4,42,8,1.0
undo,58,28,0,0,0,28,"[0, 5, 28]",3,6,"[2, 4, 8, 9, 19, 26]",102.7324106,2815,1122,8,4,6,1.067950753028211
undo,58,28,0,0,0,8,"[0, 5, 28, 8]",4,4,"[2, 4, 9, 26]",84.92791679,3567,752,4,2,6,1.0664265243485462
undo,58,28,0,0,0,9,"[0, 5, 28, 8, 9]",5,3,"[2, 4, 26]",69.79517084,4551,984,3,0,6,1.1187653395352033
undo,58,28,0,0,1,2,"[0, 5, 28, 8, 9, 2]",6,0,[],14.97729054,9118,4567,1,0,6,1.420416185846167
undo,58,28,0,1,1,2,"[0, 5, 28, 8, 9, 2]",6,0,[],14.97729054,9931,813,1,0,6,1.420416185846167
undo,59,43,0,0,0,0,[0],1,23,"[1, 2, 3, 4, 5, 6, 7, 9, 10, 11, 12, 14, 15, 16, 17, 19, 20, 21, 22, 23, 25, 27, 29]",300,132,-1,16,556,12,0.0
undo,59,43,0,0,0,25,"[0, 25]",2,19,"[1, 2, 3, 4, 5, 6, 7, 9, 11, 12, 14, 15, 16, 19, 20, 21, 22, 23, 29]",220.6904798,1727,1595,8,323,10,1.0
undo,59,43,0,0,0,12,"[0, 25, 12]",3,17,"[1, 2, 3, 4, 5, 6, 7, 9, 11, 14, 15, 16, 19, 20, 22, 23, 29]",196.5037065,2495,768,141,752,9,1.046913613931499
undo,59,43,0,0,0,3,"[0, 25, 12, 3]",4,16,"[1, 2, 4, 5, 6, 7, 9, 11, 14, 15, 16, 19, 20, 22, 23, 29]",183.5037065,3080,585,96,343,9,1.04574601215448
undo,59,43,0,0,0,15,"[0, 25, 12, 3, 15]",5,14,"[1, 2, 4, 6, 7, 9, 11, 14, 16, 19, 20, 22, 23, 29]",153.6708387,3884,804,37,96,9,1.769823088171036
undo,59,43,0,0,0,22,"[0, 25, 12, 3, 15, 22]",6,10,"[1, 4, 6, 7, 11, 14, 16, 19, 20, 29]",111.5638322,5376,1492,14,19,9,1.5799310197206569
undo,59,43,0,0,0,19,"[0, 25, 12, 3, 15, 22, 19]",7,7,"[1, 4, 6, 7, 11, 14, 16]",90.94830407,6464,1088,6,3,9,1.5047870345114076
undo,59,43,0,0,0,1,"[0, 25, 12, 3, 15, 22, 19, 1]",8,3,"[6, 7, 11]",62.77029846,7360,896,3,0,9,1.6479848989119015
undo,59,43,0,0,1,7,"[0, 25, 12, 3, 15, 22, 19, 1, 7]",9,0,[],24.56035211,8719,1359,1,0,9,1.5609216249641915
undo,59,43,0,1,1,7,"[0, 25, 12, 3, 15, 22, 19, 1, 7]",9,0,[],24.56035211,9432,713,1,0,9,1.5609216249641915
undo,60,4,0,0,0,0,[0],1,26,"[3, 4, 5, 6, 7, 8, 10, 11, 12, 13, 14, 15, 16, 17, 18, 19, 20, 21, 22, 23, 24, 25, 26, 27, 28, 29]",300,131,-1,4,489,10,0.0
undo,60,4,0,0,0,28,"[0, 28]",2,21,"[3, 4, 5, 6, 10, 11, 12, 13, 14, 15, 16, 17, 19, 20, 21, 22, 23, 24, 25, 26, 27]",225.9392142,2915,2784,2,216,10,1.0
undo,60,4,0,0,0,14,"[0, 28, 14]",3,13,"[3, 4, 5, 6, 11, 13, 16, 17, 20, 21, 22, 24, 25]",159.6972335,3918,1003,1,26,10,1.0273973946789214
undo,60,4,0,0,0,25,"[0, 28, 14, 25]",4,12,"[3, 4, 5, 6, 11, 13, 16, 17, 20, 21, 22, 24]",143.572718,4613,695,1,25,10,1.233547772313525
undo,60,4,0,0,0,11,"[0, 28, 14, 25, 11]",5,10,"[3, 4, 5, 6, 13, 16, 17, 20, 21, 22]",124.7844238,5414,801,1,15,10,1.425978575879479
undo,60,4,0,0,0,16,"[0, 28, 14, 25, 11, 16]",6,9,"[3, 4, 5, 6, 13, 17, 20, 21, 22]",109.7844238,7362,1948,1,12,10,1.3799325158051412
undo,60,4,0,0,0,17,"[0, 28, 14, 25, 11, 16, 17]",7,5,"[3, 5, 20, 21, 22]",83.70761416,8217,855,1,5,10,1.3195184878861832
undo,60,4,0,0,0,21,"[0, 28, 14, 25, 11, 16, 17, 21]",8,1,[22],34.45317274,9118,901,1,0,9,1.7966566629354186
undo,60,4,0,0,1,22,"[0, 28, 14, 25, 11, 16, 17, 21, 22]",9,0,[],23.40781172,9987,869,1,0,9,1.7433011729935863
undo,60,4,0,1,1,22,"[0, 28, 14, 25, 11, 16, 17, 21, 22]",9,0,[],23.40781172,10848,861,1,0,9,1.7433011729935863
undo,61,41,0,0,0,0,[0],1,29,"[1, 2, 3, 4, 5, 6, 7, 8, 9, 10, 11, 12, 13, 14, 15, 16, 17, 18, 19, 20, 21, 22, 23, 24, 25, 26, 27, 28, 29]",300,132,-1,1,143,10,0.0
undo,61,41,0,0,0,3,"[0, 3]",2,28,"[1, 2, 4, 5, 6, 7, 8, 9, 10, 11, 12, 13, 14, 15, 16, 17, 18, 19, 20, 21, 22, 23, 24, 25, 26, 27, 28, 29]",260.3767745,2644,2512,2,145,9,1.0
undo,61,41,0,0,0,22,"[0, 3, 22]",3,26,"[1, 2, 5, 6, 7, 8, 9, 10, 11, 12, 13, 14, 15, 16, 17, 18, 19, 20, 21, 23, 24, 25, 26, 27, 28, 29]",230.4101264,3836,1192,33,160,8,1.0090788990400108
undo,61,41,0,0,0,5,"[0, 3, 22, 5]",4,14,"[2, 6, 9, 10, 12, 13, 17, 18, 20, 21, 24, 25, 27, 28]",175.6652636,4788,952,12,35,8,3.9616341133909923
undo,61,41,0,0,0,13,"[0, 3, 22, 5, 13]",5,9,"[2, 9, 10, 17, 18, 20, 21, 27, 28]",134.6530703,5969,1181,7,6,7,3.962750682323656
undo,61,41,0,0,0,28,"[0, 3, 22, 5, 13, 28]",6,3,"[18, 20, 21]",100.171191,6892,923,3,0,7,4.970927415759215
undo,61,41,0,0,1,20,"[0, 3, 22, 5, 13, 28, 20]",7,0,[],42.89990673,7920,1028,1,0,7,2.730784068541213
undo,61,41,0,1,1,20,"[0, 3, 22, 5, 13, 28, 20]",7,0,[],42.89990673,8632,712,1,0,7,2.730784068541213
undo,62,16,0,0,0,0,[0],1,29,"[1, 2, 3, 4, 5, 6, 7, 8, 9, 10, 11, 12, 13, 14, 15, 16, 17, 18, 19, 20, 21, 22, 23, 24, 25, 26, 27, 28, 29]",300,132,-1,13,161,9,0.0
undo,62,16,0,0,0,17,"[0, 17]",2,27,"[1, 2, 3, 4, 5, 7, 8, 9, 10, 11, 12, 13, 14, 15, 16, 18, 19, 20, 21, 22, 23, 24, 25, 26, 27, 28, 29]",241.3058776,1530,1398,2,58,9,1.0
undo,62,16,0,0,0,16,"[0, 17, 16]",3,26,"[1, 2, 3, 4, 5, 7, 8, 9, 10, 11, 12, 13, 14, 15, 18, 19, 20, 21, 22, 23, 24, 25, 26, 27, 28, 29]",212.9862731,2138,608,2,52,9,1.0529535521792848
undo,62,16,0,0,0,8,"[0, 17, 16, 8]",4,19,"[2, 3, 4, 5, 9, 12, 13, 14, 15, 19, 20, 21, 22, 23, 25, 26, 27, 28, 29]",164.6127266,3105,967,2,38,9,1.0915134501573105
undo,62,16,0,0,0,20,"[0, 17, 16, 8, 20]",5,10,"[3, 4, 5, 9, 12, 13, 15, 19, 21, 25]",106.8372993,4068,963,1,15,9,1.067523143001942
undo,62,16,0,0,0,25,"[0, 17, 16, 8, 20, 25]",6,7,"[3, 4, 5, 9, 12, 13, 15]",94.18818869,5021,953,1,9,9,1.1170093326933646
undo,62,16,0,0,0,9,"[0, 17, 16, 8, 20, 25, 9]",7,5,"[3, 4, 5, 13, 15]",81.38194021,5805,784,1,4,9,1.1095076562662525
undo,62,16,0,0,0,15,"[0, 17, 16, 8, 20, 25, 9, 15]",8,1,[5],42.48463953,6661,856,1,0,9,1.213831159678775
undo,62,16,0,0,1,5,"[0, 17, 16, 8, 20, 25, 9, 15, 5]",9,0,[],13.0567616,7621,960,1,0,9,1.5171779607523481
undo,62,16,0,1,1,5,"[0, 17, 16, 8, 20, 25, 9, 15, 5]",9,0,[],13.0567616,8231,610,1,0,9,1.5171779607523481
undo,63,26,0,0,0,0,[0],1,29,"[1, 2, 3, 4, 5, 6, 7, 8, 9, 10, 11, 12, 13, 14, 15, 16, 17, 18, 19, 20, 21, 22, 23, 24, 25, 26, 27, 28, 29]",300,131,-1,9,226,9,0.0
undo,63,26,0,0,0,16,"[0, 16]",2,17,"[3, 4, 5, 6, 10, 11, 12, 13, 14, 17, 18, 19, 21, 22, 23, 26, 29]",188.0535842,4013,3882,34,176,8,1.0
undo,63,26,0,0,0,29,"[0, 16, 29]",3,12,"[4, 5, 6, 10, 12, 13, 14, 17, 19, 21, 23, 26]",163.8461474,4960,947,32,68,8,1.1142946124989752
undo,63,26,0,0,0,4,"[0, 16, 29, 4]",4,9,"[5, 6, 10, 12, 13, 14, 17, 21, 23]",139.8461474,5908,948,17,7,8,1.3213762371676339
undo,63,26,0,0,0,10,"[0, 16, 29, 4, 10]",5,3,"[6, 14, 17]",89.63658653,7150,1242,4,2,8,1.3000016998380535
undo,63,26,0,0,0,6,"[0, 16, 29, 4, 10, 6]",6,2,"[14, 17]",60.36202419,7876,726,2,0,8,1.492036537346297
undo,63,26,0,0,0,17,"[0, 16, 29, 4, 10, 6, 17]",7,1,[14],40.2374124,8932,1056,1,0,8,1.8281810283280981
undo,63,26,0,0,1,14,"[0, 16, 29, 4, 10, 6, 17, 14]",8,0,[],17.76520734,9668,736,1,0,8,1.7513565696213436
undo,63,26,0,1,1,14,"[0, 16, 29, 4, 10, 6, 17, 14]",8,0,[],17.76520734,10365,697,1,0,8,1.7513565696213436
undo,64,39,0,0,0,0,[0],1,28,"[1, 2, 3, 4, 5, 6, 7, 9, 10, 11, 12, 13, 14, 15, 16, 17, 18, 19, 20, 21, 22, 23, 24, 25, 26, 27, 28, 29]",300,132,-1,1,30,10,0.0
undo,64,39,0,0,0,19,"[0, 19]",2,7,"[7, 10, 16, 17, 18, 22, 26]",98.28237558,2137,2005,1,7,6,1.0
undo,64,39,0,0,0,16,"[0, 19, 16]",3,5,"[7, 10, 18, 22, 26]",80.81812639,2757,620,1,6,6,1.1545967220003608
undo,64,39,0,0,0,22,"[0, 19, 16, 22]",4,3,"[7, 10, 26]",45.81812639,4478,1721,1,2,6,1.6415579232579116
undo,64,39,0,0,0,26,"[0, 19, 16, 22, 26]",5,1,[7],28.09808124,5493,1015,1,0,6,1.6833531375098296
undo,64,39,0,0,1,7,"[0, 19, 16, 22, 26, 7]",6,0,[],9.416539549,6237,744,1,0,6,1.9097092664780568
undo,64,39,0,1,1,7,"[0, 19, 16, 22, 26, 7]",6,0,[],9.416539549,6882,645,1,0,6,1.9097092664780568
undo,65,38,0,0,0,0,[0],1,29,"[1, 2, 3, 4, 5, 6, 7, 8, 9, 10, 11, 12, 13, 14, 15, 16, 17, 18, 19, 20, 21, 22, 23, 24, 25, 26, 27, 28, 29]",300,132,-1,33,506,9,0.0
undo,65,38,0,0,0,19,"[0, 19]",2,23,"[3, 4, 5, 6, 7, 8, 9, 11, 13, 14, 15, 16, 17, 18, 20, 22, 23, 24, 25, 26, 27, 28, 29]",219.5015528,1737,1605,6,61,9,1.0
undo,65,38,0,0,0,17,"[0, 19, 17]",3,21,"[3, 4, 5, 6, 7, 9, 11, 13, 14, 15, 16, 18, 20, 22, 23, 24, 25, 26, 27, 28, 29]",198.1239945,3170,1433,6,53,9,1.571793785769489
undo,65,38,0,0,0,20,"[0, 19, 17, 20]",4,17,"[3, 4, 5, 6, 7, 11, 13, 14, 15, 16, 18, 22, 24, 25, 26, 27, 28]",174.3542658,4034,864,6,44,9,2.333182710277297
undo,65,38,0,0,0,4,"[0, 19, 17, 20, 4]",5,10,"[5, 11, 13, 14, 15, 16, 24, 26, 27, 28]",140.4131403,4978,944,5,22,9,2.276099229646013
undo,65,38,0,0,0,15,"[0, 19, 17, 20, 4, 15]",6,8,"[5, 11, 13, 14, 16, 24, 26, 28]",114.4131403,5996,1018,5,6,9,2.5292671156176403
undo,65,38,0,0,0,11,"[0, 19, 17, 20, 4, 15, 11]",7,2,"[16, 28]",78.01259089,6874,878,2,0,9,2.778100109749787
undo,65,38,0,0,0,28,"[0, 19, 17, 20, 4, 15, 11, 28]",8,1,[16],50.99407872,7929,1055,1,0,9,2.3316428595723258
undo,65,38,0,1,0,28,"[0, 19, 17, 20, 4, 15, 11, 28]",8,1,[16],50.99407872,10450,2521,1,0,9,2.3316428595723258
undo,66,40,0,0,0,0,[0],1,29,"[1, 2, 3, 4, 5, 6, 7, 8, 9, 10, 11, 12, 13, 14, 15, 16, 17, 18, 19, 20, 21, 22, 23, 24, 25, 26, 27, 28, 29]",300,149,-1,8,191,9,0.0
undo,66,40,0,0,0,13,"[0, 13]",2,19,"[1, 2, 3, 4, 5, 6, 7, 8, 9, 10, 15, 16, 17, 18, 19, 22, 23, 27, 29]",205.189663,2974,2825,21,30,5,1.0
undo,66,40,0,0,0,3,"[0, 13, 3]",3,1,[15],99.58663275,3837,863,1,0,4,1.0085806080401356
undo,66,40,0,0,1,15,"[0, 13, 3, 15]",4,0,[],4.718302946,5854,2017,1,0,4,1.6699647793136525
undo,66,40,0,1,1,15,"[0, 13, 3, 15]",4,0,[],4.718302946,6516,662,1,0,4,1.6699647793136525
undo,67,15,0,0,0,0,[0],1,25,"[1, 2, 3, 4, 7, 8, 9, 10, 11, 12, 13, 14, 15, 16, 18, 20, 21, 22, 23, 24, 25, 26, 27, 28, 29]",300,132,-1,4,65,9,0.0
undo,67,15,0,0,0,7,"[0, 7]",2,23,"[1, 3, 4, 8, 9, 10, 11, 12, 13, 14, 15, 16, 18, 20, 21, 22, 23, 24, 25, 26, 27, 28, 29]",215.1884442,6504,6372,30,107,8,1.0
undo,67,15,0,0,0,11,"[0, 7, 11]",3,18,"[3, 4, 8, 9, 10, 12, 13, 14, 15, 16, 18, 20, 21, 22, 23, 25, 27, 29]",173.7035072,8020,1516,12,34,8,1.0171318876095128
undo,67,15,0,0,0,3,"[0, 7, 11, 3]",4,13,"[4, 10, 12, 13, 14, 15, 16, 18, 20, 21, 22, 25, 27]",162.3017529,8672,652,7,21,8,1.0401878806820521
undo,67,15,0,0,0,22,"[0, 7, 11, 3, 22]",5,8,"[4, 10, 13, 14, 15, 16, 18, 25]",112.5724859,10112,1440,2,7,8,1.08637659765556
undo,67,15,0,0,0,15,"[0, 7, 11, 3, 22, 15]",6,5,"[13, 14, 16, 18, 25]",86.95998892,12435,2323,1,4,8,1.0848370477747913
undo,67,15,0,0,0,13,"[0, 7, 11, 3, 22, 15, 13]",7,1,[18],71.6956514,13640,1205,1,0,8,1.1395860905544997
undo,67,15,0,0,1,18,"[0, 7, 11, 3, 22, 15, 13, 18]",8,0,[],9.406005389,15065,1425,1,0,8,1.2311536592605687
undo,67,15,0,1,1,18,"[0, 7, 11, 3, 22, 15, 13, 18]",8,0,[],9.406005389,15816,751,1,0,8,1.2311536592605687
undo,68,34,0,0,0,0,[0],1,25,"[1, 3, 4, 5, 6, 7, 8, 9, 10, 11, 12, 13, 15, 18, 19, 20, 21, 22, 23, 24, 25, 26, 27, 28, 29]",300,131,-1,12,367,10,0.0
undo,68,34,0,0,0,23,"[0, 23]",2,24,"[1, 3, 4, 5, 6, 7, 8, 9, 10, 11, 12, 13, 15, 18, 19, 20, 21, 22, 24, 25, 26, 27, 28, 29]",205.1053215,2227,2096,63,159,8,1.0
undo,68,34,0,0,0,7,"[0, 23, 7]",3,22,"[1, 3, 4, 5, 6, 8, 9, 10, 11, 12, 13, 15, 18, 19, 21, 22, 24, 25, 26, 27, 28, 29]",176.9450659,3007,780,34,63,8,1.0846160246562913
undo,68,34,0,0,0,12,"[0, 23, 7, 12]",4,19,"[1, 3, 4, 5, 8, 9, 10, 11, 13, 15, 18, 19, 22, 24, 25, 26, 27, 28, 29]",161.9117695,3801,794,28,19,8,1.122038317370566
undo,68,34,0,0,0,11,"[0, 23, 7, 12, 11]",5,8,"[3, 4, 9, 15, 18, 22, 26, 28]",94.84463893,5846,2045,2,6,7,1.154673865831573
undo,68,34,0,0,0,3,"[0, 23, 7, 12, 11, 3]",6,1,[26],27.99405928,7138,1292,1,0,7,1.132287244524666
undo,68,34,0,0,1,26,"[0, 23, 7, 12, 11, 3, 26]",7,0,[],2.284139015,8568,1430,1,0,7,1.128213523026785
undo,68,34,0,1,1,26,"[0, 23, 7, 12, 11, 3, 26]",7,0,[],2.284139015,9182,614,1,0,7,1.128213523026785
basic,69,34,0,0,0,0,[0],1,25,"[1, 3, 4, 5, 6, 7, 8, 9, 10, 11, 12, 13, 15, 18, 19, 20, 21, 22, 23, 24, 25, 26, 27, 28, 29]",300,132,-1,12,367,10,0.0
basic,69,34,0,0,0,1,"[0, 1]",2,17,"[3, 5, 7, 8, 9, 10, 11, 12, 13, 19, 21, 22, 23, 24, 25, 27, 29]",211.9488785,3764,3632,3,92,9,1.0
basic,69,34,0,0,0,8,"[0, 1, 8]",3,15,"[3, 5, 7, 9, 10, 11, 12, 13, 19, 22, 23, 24, 25, 27, 29]",201.1785489,5085,1321,2,54,9,1.1626053070588234
basic,69,34,0,0,0,25,"[0, 1, 8, 25]",4,13,"[3, 5, 7, 9, 10, 11, 12, 13, 22, 23, 24, 27, 29]",184.0905414,6131,1046,2,28,9,1.1387228631211366
basic,69,34,0,0,0,24,"[0, 1, 8, 25, 24]",5,12,"[3, 5, 7, 9, 10, 11, 12, 13, 22, 23, 27, 29]",166.5976857,7101,970,2,23,9,1.3732398141694295
basic,69,34,0,0,0,12,"[0, 1, 8, 25, 24, 12]",6,8,"[7, 9, 10, 11, 13, 22, 23, 27]",115.5584851,8053,952,1,8,9,1.4986827355404062
basic,69,34,0,0,0,7,"[0, 1, 8, 25, 24, 12, 7]",7,5,"[9, 11, 22, 23, 27]",100.5251887,9115,1062,1,4,9,1.7581869303627529
basic,69,34,0,0,0,23,"[0, 1, 8, 25, 24, 12, 7, 23]",8,1,[27],72.36493302,9947,832,1,0,9,2.3988180441149956
basic,69,34,0,0,1,27,"[0, 1, 8, 25, 24, 12, 7, 23, 27]",9,0,[],18.69930156,11402,1455,1,0,9,4.765071474059221
basic,69,34,0,1,1,27,"[0, 1, 8, 25, 24, 12, 7, 23, 27]",9,0,[],18.69930156,12215,813,1,0,9,4.765071474059221
basic,70,17,0,0,0,0,[0],1,28,"[1, 2, 3, 4, 5, 6, 7, 8, 9, 10, 11, 12, 13, 14, 15, 16, 17, 18, 19, 20, 22, 23, 24, 25, 26, 27, 28, 29]",300,131,-1,2,73,8,0.0
basic,70,17,0,0,0,9,"[0, 9]",2,25,"[1, 2, 3, 5, 6, 7, 8, 10, 11, 12, 14, 15, 16, 17, 18, 19, 20, 22, 23, 24, 25, 26, 27, 28, 29]",210.5293344,2825,2694,1,34,8,1.0
basic,70,17,0,0,0,16,"[0, 9, 16]",3,21,"[1, 2, 3, 5, 7, 8, 10, 11, 12, 14, 17, 18, 19, 20, 22, 23, 25, 26, 27, 28, 29]",197.1876704,3721,896,1,26,8,1.173103464220352
basic,70,17,0,0,0,2,"[0, 9, 16, 2]",4,18,"[1, 3, 5, 7, 8, 10, 11, 12, 14, 17, 18, 19, 23, 25, 26, 27, 28, 29]",181.0631549,4297,576,1,23,8,1.14825089247282
basic,70,17,0,0,0,8,"[0, 9, 16, 2, 8]",5,9,"[3, 7, 10, 11, 12, 14, 17, 26, 27]",145.9490551,5652,1355,1,9,8,1.1509808066472915
basic,70,17,0,0,0,7,"[0, 9, 16, 2, 8, 7]",6,3,"[10, 12, 27]",75.238377,6906,1254,3,0,7,1.2222166608088694
basic,70,17,0,0,1,10,"[0, 9, 16, 2, 8, 7, 10]",7,0,[],1.211354911,8438,1532,1,0,7,1.6481269593422236
basic,70,17,0,1,1,10,"[0, 9, 16, 2, 8, 7, 10]",7,0,[],1.211354911,8999,561,1,0,7,1.6481269593422236
basic,71,38,0,0,0,0,[0],1,29,"[1, 2, 3, 4, 5, 6, 7, 8, 9, 10, 11, 12, 13, 14, 15, 16, 17, 18, 19, 20, 21, 22, 23, 24, 25, 26, 27, 28, 29]",300,132,-1,33,506,9,0.0
basic,71,38,0,0,0,19,"[0, 19]",2,23,"[3, 4, 5, 6, 7, 8, 9, 11, 13, 14, 15, 16, 17, 18, 20, 22, 23, 24, 25, 26, 27, 28, 29]",219.5015528,1619,1487,6,61,9,1.0
basic,71,38,0,0,0,17,"[0, 19, 17]",3,21,"[3, 4, 5, 6, 7, 9, 11, 13, 14, 15, 16, 18, 20, 22, 23, 24, 25, 26, 27, 28, 29]",198.1239945,2185,566,6,53,9,1.571793785769489
basic,71,38,0,0,0,20,"[0, 19, 17, 20]",4,17,"[3, 4, 5, 6, 7, 11, 13, 14, 15, 16, 18, 22, 24, 25, 26, 27, 28]",174.3542658,2785,600,6,44,9,2.333182710277297
basic,71,38,0,0,0,15,"[0, 19, 17, 20, 15]",5,9,"[4, 5, 11, 13, 14, 16, 24, 26, 28]",118.8925673,3798,1013,10,14,8,2.468219326855957
basic,71,38,0,0,0,4,"[0, 19, 17, 20, 15, 4]",6,6,"[11, 13, 16, 24, 26, 28]",92.89256734,4830,1032,4,3,8,2.953858913055544
basic,71,38,0,0,0,13,"[0, 19, 17, 20, 15, 4, 13]",7,1,[26],61.4919304,5929,1099,1,0,8,2.4401159229489866
basic,71,38,0,0,1,26,"[0, 19, 17, 20, 15, 4, 13, 26]",8,0,[],30.44358101,6904,975,1,0,8,2.1410906006451786
basic,71,38,0,1,1,26,"[0, 19, 17, 20, 15, 4, 13, 26]",8,0,[],30.44358101,8749,1845,1,0,8,2.1410906006451786
basic,72,10,0,0,0,0,[0],1,29,"[1, 2, 3, 4, 5, 6, 7, 8, 9, 10, 11, 12, 13, 14, 15, 16, 17, 18, 19, 20, 21, 22, 23, 24, 25, 26, 27, 28, 29]",300,131,-1,1,100,9,0.0
basic,72,10,0,0,0,13,"[0, 13]",2,25,"[1, 2, 3, 4, 6, 7, 8, 9, 10, 11, 12, 14, 17, 18, 19, 20, 21, 22, 23, 24, 25, 26, 27, 28, 29]",249.4628849,2790,2659,1,79,9,1.0
basic,72,10,0,0,0,11,"[0, 13, 11]",3,20,"[1, 2, 3, 6, 7, 8, 9, 10, 12, 14, 18, 19, 20, 21, 22, 24, 26, 27, 28, 29]",206.4512586,3590,800,1,54,9,1.0313137484914219
basic,72,10,0,0,0,20,"[0, 13, 11, 20]",4,15,"[1, 2, 3, 6, 8, 9, 10, 12, 14, 18, 19, 21, 24, 26, 27]",168.3723931,4494,904,15,34,8,1.0874972644654597
basic,72,10,0,0,0,26,"[0, 13, 11, 20, 26]",5,8,"[2, 6, 9, 10, 14, 18, 19, 27]",136.5918959,5646,1152,6,9,8,1.2338398611867702
basic,72,10,0,0,0,19,"[0, 13, 11, 20, 26, 19]",6,4,"[2, 10, 14, 27]",108.2722914,6411,765,2,2,8,1.605667351096318
basic,72,10,0,0,1,27,"[0, 13, 11, 20, 26, 19, 27]",7,0,[],14.25101719,8710,2299,1,0,7,1.8349693800861075
basic,72,10,0,1,1,27,"[0, 13, 11, 20, 26, 19, 27]",7,0,[],14.25101719,9482,772,1,0,7,1.8349693800861075
basic,73,0,0,0,0,0,[0],1,27,"[2, 3, 4, 5, 6, 7, 8, 9, 10, 11, 12, 13, 14, 15, 16, 17, 19, 20, 21, 22, 23, 24, 25, 26, 27, 28, 29]",300,132,-1,104,1136,9,0.0
basic,73,0,0,0,0,21,"[0, 21]",2,24,"[3, 4, 5, 6, 7, 8, 9, 10, 11, 12, 13, 14, 15, 16, 17, 19, 20, 22, 23, 24, 26, 27, 28, 29]",228.2156006,3275,3143,24,249,9,1.0
basic,73,0,0,0,0,28,"[0, 21, 28]",3,21,"[3, 4, 5, 6, 7, 8, 9, 11, 12, 13, 14, 15, 16, 17, 19, 20, 23, 24, 26, 27, 29]",166.6282642,4347,1072,24,214,9,1.269228840767463
basic,73,0,0,0,0,5,"[0, 21, 28, 5]",4,16,"[3, 4, 7, 8, 9, 11, 12, 14, 15, 17, 19, 20, 23, 24, 26, 29]",122.9705043,6123,1776,17,100,9,1.3066419815776449
basic,73,0,0,0,0,4,"[0, 21, 28, 5, 4]",5,13,"[3, 7, 8, 9, 11, 12, 15, 17, 19, 20, 23, 24, 26]",97.89063191,8106,1983,12,40,9,1.2910976504592468
basic,73,0,0,0,0,26,"[0, 21, 28, 5, 4, 26]",6,10,"[3, 7, 8, 9, 11, 12, 15, 17, 23, 24]",85.84903733,9026,920,5,20,9,1.3255611811315622
basic,73,0,0,0,0,24,"[0, 21, 28, 5, 4, 26, 24]",7,8,"[3, 7, 8, 9, 11, 12, 15, 17]",68.73179456,10452,1426,5,6,9,1.3862320021735308
basic,73,0,0,0,0,15,"[0, 21, 28, 5, 4, 26, 24, 15]",8,3,"[7, 8, 9]",45.3865595,14069,3617,3,0,9,1.3469536849324695
basic,73,0,0,0,1,7,"[0, 21, 28, 5, 4, 26, 24, 15, 7]",9,0,[],14.32211036,15259,1190,1,0,9,1.3934843658246785
basic,73,0,0,1,1,7,"[0, 21, 28, 5, 4, 26, 24, 15, 7]",9,0,[],14.32211036,15965,706,1,0,9,1.3934843658246785
basic,74,43,0,0,0,0,[0],1,23,"[1, 2, 3, 4, 5, 6, 7, 9, 10, 11, 12, 14, 15, 16, 17, 19, 20, 21, 22, 23, 25, 27, 29]",300,148,-1,16,556,12,0.0
basic,74,43,0,0,0,29,"[0, 29]",2,22,"[1, 2, 3, 4, 5, 6, 7, 9, 10, 11, 12, 14, 15, 16, 17, 19, 20, 21, 22, 23, 25, 27]",277.909278,3739,3591,16,520,12,1.0
basic,74,43,0,0,0,20,"[0, 29, 20]",3,20,"[1, 2, 3, 4, 6, 7, 9, 10, 11, 12, 14, 15, 16, 17, 19, 21, 22, 23, 25, 27]",254.4785289,4611,872,15,422,12,1.082311746871282
basic,74,43,0,0,0,16,"[0, 29, 20, 16]",4,19,"[1, 2, 3, 4, 6, 7, 9, 10, 11, 12, 14, 15, 17, 19, 21, 22, 23, 25, 27]",231.8511119,5587,976,15,389,12,1.215201926898219
basic,74,43,0,0,0,15,"[0, 29, 20, 16, 15]",5,14,"[1, 2, 3, 4, 6, 7, 9, 11, 12, 14, 19, 22, 23, 25]",188.5267539,6755,1168,3,109,12,1.3482474915350444
basic,74,43,0,0,0,25,"[0, 29, 20, 16, 15, 25]",6,12,"[1, 3, 4, 6, 7, 9, 11, 12, 14, 19, 22, 23]",165.8551858,7419,664,2,43,12,1.691408721191545
basic,74,43,0,0,0,12,"[0, 29, 20, 16, 15, 25, 12]",7,11,"[1, 3, 4, 6, 7, 9, 11, 14, 19, 22, 23]",141.6684126,8363,944,2,32,12,1.6015983641428178
basic,74,43,0,0,0,3,"[0, 29, 20, 16, 15, 25, 12, 3]",8,10,"[1, 4, 6, 7, 9, 11, 14, 19, 22, 23]",128.6684126,9259,896,2,24,12,1.5379830456120627
basic,74,43,0,0,0,22,"[0, 29, 20, 16, 15, 25, 12, 3, 22]",9,6,"[1, 6, 7, 11, 14, 19]",93.95530264,10235,976,1,11,12,1.7275686117408873
basic,74,43,0,0,0,19,"[0, 29, 20, 16, 15, 25, 12, 3, 22, 19]",10,4,"[1, 6, 7, 11]",73.33977451,10995,760,1,3,12,1.6315360037595275
basic,74,43,0,0,0,1,"[0, 29, 20, 16, 15, 25, 12, 3, 22, 19, 1]",11,1,[7],45.1617689,12203,1208,1,0,12,1.7703076545303877
basic,74,43,0,0,1,7,"[0, 29, 20, 16, 15, 25, 12, 3, 22, 19, 1, 7]",12,0,[],6.951822553,13951,1748,1,0,12,1.6607094905815594
basic,74,43,0,1,1,7,"[0, 29, 20, 16, 15, 25, 12, 3, 22, 19, 1, 7]",12,0,[],6.951822553,14981,1030,1,0,12,1.6607094905815594
basic,75,39,0,0,0,0,[0],1,28,"[1, 2, 3, 4, 5, 6, 7, 9, 10, 11, 12, 13, 14, 15, 16, 17, 18, 19, 20, 21, 22, 23, 24, 25, 26, 27, 28, 29]",300,131,-1,1,30,10,0.0
basic,75,39,0,0,0,29,"[0, 29]",2,26,"[1, 2, 3, 4, 5, 6, 7, 9, 10, 12, 13, 14, 15, 16, 17, 18, 19, 20, 21, 22, 23, 24, 25, 26, 27, 28]",243.0614366,2868,2737,8,104,9,1.0
basic,75,39,0,0,0,12,"[0, 29, 12]",3,18,"[1, 2, 4, 5, 7, 9, 10, 13, 14, 15, 16, 18, 19, 22, 23, 24, 26, 28]",182.5221931,3875,1007,5,54,9,1.0026200331524904
basic,75,39,0,0,0,10,"[0, 29, 12, 10]",4,16,"[1, 2, 4, 5, 7, 9, 13, 14, 15, 16, 18, 19, 22, 23, 24, 26]",147.0116313,4827,952,5,34,9,1.2874817019928908
basic,75,39,0,0,0,7,"[0, 29, 12, 10, 7]",5,10,"[1, 2, 5, 13, 16, 18, 19, 22, 24, 26]",113.5900814,7179,2352,4,12,9,1.2250826263866774
basic,75,39,0,0,0,26,"[0, 29, 12, 10, 7, 26]",6,5,"[1, 16, 18, 19, 22]",94.90853971,8739,1560,3,4,9,1.2697275353190085
basic,75,39,0,0,0,22,"[0, 29, 12, 10, 7, 26, 22]",7,2,"[16, 19]",77.18849457,9635,896,2,0,9,1.438961743955176
basic,75,39,0,0,0,16,"[0, 29, 12, 10, 7, 26, 22, 16]",8,1,[19],42.18849457,10667,1032,1,0,9,1.3580882130477205
basic,75,39,0,0,1,19,"[0, 29, 12, 10, 7, 26, 22, 16, 19]",9,0,[],24.72424537,11987,1320,1,0,9,1.3646589157842668
basic,75,39,0,1,1,19,"[0, 29, 12, 10, 7, 26, 22, 16, 19]",9,0,[],24.72424537,12731,744,1,0,9,1.3646589157842668
basic,76,21,0,0,0,0,[0],1,29,"[1, 2, 3, 4, 5, 6, 7, 8, 9, 10, 11, 12, 13, 14, 15, 16, 17, 18, 19, 20, 21, 22, 23, 24, 25, 26, 27, 28, 29]",300,165,-1,84,830,9,0.0
basic,76,21,0,0,0,18,"[0, 18]",2,28,"[1, 2, 3, 4, 5, 6, 7, 8, 9, 10, 11, 12, 13, 14, 15, 16, 17, 19, 20, 21, 22, 23, 24, 25, 26, 27, 28, 29]",240.923778,2934,2769,44,305,9,1.0
basic,76,21,0,0,0,29,"[0, 18, 29]",3,24,"[1, 2, 3, 4, 6, 7, 8, 9, 10, 11, 12, 13, 14, 15, 16, 17, 20, 21, 22, 23, 24, 25, 26, 27]",212.2706805,4718,1784,11,87,9,1.035555280387994
basic,76,21,0,0,0,25,"[0, 18, 29, 25]",4,18,"[1, 4, 6, 8, 9, 10, 11, 12, 14, 15, 16, 17, 20, 21, 22, 23, 24, 26]",167.0490043,5718,1000,6,45,9,2.2226517719335437
basic,76,21,0,0,0,23,"[0, 18, 29, 25, 23]",5,10,"[4, 8, 14, 15, 16, 17, 20, 21, 22, 24]",123.7246462,7632,1914,3,20,9,1.7801958981326236
basic,76,21,0,0,0,21,"[0, 18, 29, 25, 23, 21]",6,3,"[4, 14, 16]",94.11046043,8654,1022,1,3,9,2.290491065218303
basic,76,21,0,0,0,14,"[0, 18, 29, 25, 23, 21, 14]",7,2,"[4, 16]",68.49796348,10169,1515,1,1,9,2.021100447974041
basic,76,21,0,0,0,4,"[0, 18, 29, 25, 23, 21, 14, 4]",8,1,[16],54.35582786,10891,722,1,0,9,1.9205022281831265
basic,76,21,0,0,1,16,"[0, 18, 29, 25, 23, 21, 14, 4, 16]",9,0,[],9.757621617,12801,1910,1,0,9,1.7782202964615115
basic,76,21,0,1,1,16,"[0, 18, 29, 25, 23, 21, 14, 4, 16]",9,0,[],9.757621617,13766,965,1,0,9,1.7782202964615115
basic,77,32,0,0,0,0,[0],1,29,"[1, 2, 3, 4, 5, 6, 7, 8, 9, 10, 11, 12, 13, 14, 15, 16, 17, 18, 19, 20, 21, 22, 23, 24, 25, 26, 27, 28, 29]",300,148,-1,17,359,10,0.0
basic,77,32,0,0,0,15,"[0, 15]",2,24,"[2, 3, 4, 5, 6, 7, 8, 9, 10, 11, 12, 13, 14, 16, 17, 19, 20, 22, 23, 24, 25, 26, 27, 28]",214.6185032,2271,2123,11,153,9,1.0
basic,77,32,0,0,0,28,"[0, 15, 28]",3,21,"[2, 3, 5, 7, 8, 9, 10, 11, 12, 13, 14, 16, 17, 19, 20, 22, 23, 24, 25, 26, 27]",203.2167489,3695,1424,11,119,9,1.000160051986942
basic,77,32,0,0,0,12,"[0, 15, 28, 12]",4,19,"[2, 3, 5, 7, 8, 9, 10, 11, 13, 16, 17, 19, 20, 22, 23, 24, 25, 26, 27]",184.243083,5227,1532,8,71,9,1.0281484763748023
basic,77,32,0,0,0,16,"[0, 15, 28, 12, 16]",5,17,"[2, 3, 5, 7, 8, 9, 10, 11, 13, 17, 19, 20, 22, 23, 24, 26, 27]",168.5906071,5831,604,6,38,9,1.1190771370096
basic,77,32,0,0,0,22,"[0, 15, 28, 12, 16, 22]",6,10,"[2, 3, 5, 8, 9, 10, 11, 17, 20, 27]",134.7527585,7531,1700,4,16,9,1.1702311155319893
basic,77,32,0,0,0,9,"[0, 15, 28, 12, 16, 22, 9]",7,6,"[2, 8, 10, 17, 20, 27]",112.5491552,8911,1380,2,4,9,1.2381424719932013
basic,77,32,0,0,0,8,"[0, 15, 28, 12, 16, 22, 9, 8]",8,1,[20],67.42709849,9934,1023,1,0,9,1.187013645273504
basic,77,32,0,0,1,20,"[0, 15, 28, 12, 16, 22, 9, 8, 20]",9,0,[],17.09818036,11434,1500,1,0,9,1.3986201165175596
basic,77,32,0,1,1,20,"[0, 15, 28, 12, 16, 22, 9, 8, 20]",9,0,[],17.09818036,12215,781,1,0,9,1.3986201165175596
basic,78,13,0,0,0,0,[0],1,29,"[1, 2, 3, 4, 5, 6, 7, 8, 9, 10, 11, 12, 13, 14, 15, 16, 17, 18, 19, 20, 21, 22, 23, 24, 25, 26, 27, 28, 29]",300,149,-1,60,2676,11,0.0
basic,78,13,0,0,0,24,"[0, 24]",2,28,"[1, 2, 3, 4, 5, 6, 7, 8, 9, 10, 11, 12, 13, 14, 15, 16, 17, 18, 19, 20, 21, 22, 23, 25, 26, 27, 28, 29]",288.8196601,1830,1681,16,1444,11,1.0
basic,78,13,0,0,0,28,"[0, 24, 28]",3,23,"[1, 2, 3, 4, 6, 7, 8, 9, 10, 11, 12, 13, 15, 16, 17, 19, 20, 21, 22, 23, 26, 27, 29]",222.5324064,3270,1440,8,243,11,1.0513810491680837
basic,78,13,0,0,0,2,"[0, 24, 28, 2]",4,19,"[1, 3, 4, 6, 7, 9, 11, 12, 13, 15, 16, 17, 19, 20, 21, 23, 26, 27, 29]",184.889346,5038,1768,7,110,11,1.050374132001543
basic,78,13,0,0,0,29,"[0, 24, 28, 2, 29]",5,18,"[1, 3, 4, 6, 7, 9, 11, 12, 13, 15, 16, 17, 19, 20, 21, 23, 26, 27]",173.1846461,5918,880,7,85,11,1.1393409619120594
basic,78,13,0,0,0,7,"[0, 24, 28, 2, 29, 7]",6,17,"[1, 3, 4, 6, 9, 11, 12, 13, 15, 16, 17, 19, 20, 21, 23, 26, 27]",157.9203086,6559,641,5,45,11,1.349777315111579
basic,78,13,0,0,0,26,"[0, 24, 28, 2, 29, 7, 26]",7,16,"[1, 3, 4, 6, 9, 11, 12, 13, 15, 16, 17, 19, 20, 21, 23, 27]",147.480002,7215,656,5,25,11,1.5942082773824946
basic,78,13,0,0,0,6,"[0, 24, 28, 2, 29, 7, 26, 6]",8,12,"[1, 3, 4, 11, 13, 15, 16, 17, 19, 20, 23, 27]",127.3802508,8170,955,4,12,11,1.5898347940840756
basic,78,13,0,0,0,11,"[0, 24, 28, 2, 29, 7, 26, 6, 11]",9,6,"[1, 13, 15, 16, 17, 23]",108.2752776,9207,1037,3,4,11,1.5029953945561012
basic,78,13,0,0,1,16,"[0, 24, 28, 2, 29, 7, 26, 6, 11, 16]",10,0,[],21.18337215,12171,2964,1,0,10,3.0290055362462343
basic,78,13,0,1,1,16,"[0, 24, 28, 2, 29, 7, 26, 6, 11, 16]",10,0,[],21.18337215,12898,727,1,0,10,3.0290055362462343
basic,79,27,0,0,0,0,[0],1,26,"[1, 3, 5, 6, 7, 8, 9, 10, 11, 12, 13, 14, 15, 16, 17, 18, 19, 21, 22, 23, 24, 25, 26, 27, 28, 29]",300,148,-1,13,578,11,0.0
basic,79,27,0,0,0,15,"[0, 15]",2,24,"[1, 3, 5, 6, 7, 8, 9, 10, 11, 12, 13, 14, 16, 17, 18, 19, 21, 22, 23, 24, 25, 26, 27, 29]",263.7508621,1754,1606,6,219,11,1.0
basic,79,27,0,0,0,24,"[0, 15, 24]",3,20,"[1, 5, 6, 7, 8, 9, 10, 12, 13, 14, 16, 17, 18, 19, 21, 23, 25, 26, 27, 29]",246.5462115,2593,839,6,130,11,1.130933077698322
basic,79,27,0,0,0,17,"[0, 15, 24, 17]",4,15,"[1, 6, 8, 10, 12, 13, 14, 16, 18, 19, 23, 25, 26, 27, 29]",229.9932662,3885,1292,4,60,11,1.1285538435963374
basic,79,27,0,0,0,12,"[0, 15, 24, 17, 12]",5,14,"[1, 6, 8, 10, 13, 14, 16, 18, 19, 23, 25, 26, 27, 29]",218.8129263,4546,661,2,32,11,1.2561880288755216
basic,79,27,0,0,0,10,"[0, 15, 24, 17, 12, 10]",6,11,"[1, 8, 13, 14, 18, 19, 23, 25, 26, 27, 29]",207.7675653,5390,844,2,28,11,1.2228289337766665
basic,79,27,0,0,0,13,"[0, 15, 24, 17, 12, 10, 13]",7,9,"[1, 8, 14, 18, 19, 23, 26, 27, 29]",167.9178476,6954,1564,2,18,11,1.3421291994761178
basic,79,27,0,0,0,23,"[0, 15, 24, 17, 12, 10, 13, 23]",8,6,"[1, 8, 18, 19, 26, 27]",108.3024133,9194,2240,6,2,10,2.5203738437563388
basic,79,27,0,0,0,1,"[0, 15, 24, 17, 12, 10, 13, 23, 1]",9,2,"[18, 27]",60.26076475,10100,906,2,0,10,3.2940040527163665
basic,79,27,0,0,1,18,"[0, 15, 24, 17, 12, 10, 13, 23, 1, 18]",10,0,[],16.24940258,11090,990,1,0,10,3.027545097729337
basic,79,27,0,1,1,18,"[0, 15, 24, 17, 12, 10, 13, 23, 1, 18]",10,0,[],16.24940258,11748,658,1,0,10,3.027545097729337
basic,80,35,0,0,0,0,[0],1,29,"[1, 2, 3, 4, 5, 6, 7, 8, 9, 10, 11, 12, 13, 14, 15, 16, 17, 18, 19, 20, 21, 22, 23, 24, 25, 26, 27, 28, 29]",300,131,-1,5,236,11,0.0
basic,80,35,0,0,0,24,"[0, 24]",2,27,"[1, 2, 4, 5, 6, 7, 8, 9, 10, 11, 12, 13, 14, 15, 16, 17, 18, 19, 20, 21, 22, 23, 25, 26, 27, 28, 29]",268.9838752,1375,1244,49,512,10,1.0
basic,80,35,0,0,0,17,"[0, 24, 17]",3,26,"[1, 2, 4, 5, 6, 7, 8, 9, 10, 11, 12, 13, 14, 15, 16, 18, 19, 20, 21, 22, 23, 25, 26, 27, 28, 29]",257.2791753,2159,784,33,238,10,1.0771477201815276
basic,80,35,0,0,0,1,"[0, 24, 17, 1]",4,25,"[2, 4, 5, 6, 7, 8, 9, 10, 11, 12, 13, 14, 15, 16, 18, 19, 20, 21, 22, 23, 25, 26, 27, 28, 29]",241.4677869,3071,912,26,151,10,1.2244804141479215
basic,80,35,0,0,0,15,"[0, 24, 17, 1, 15]",5,23,"[2, 4, 5, 6, 7, 8, 9, 10, 11, 12, 14, 16, 18, 19, 20, 21, 22, 23, 25, 26, 27, 28, 29]",218.6204676,3827,756,26,78,10,1.4642196672428094
basic,80,35,0,0,0,23,"[0, 24, 17, 1, 15, 23]",6,11,"[4, 5, 6, 9, 18, 19, 25, 26, 27, 28, 29]",158.1804147,5167,1340,15,12,10,1.3338903684702363
basic,80,35,0,0,0,9,"[0, 24, 17, 1, 15, 23, 9]",7,6,"[5, 6, 18, 19, 25, 27]",120.5373542,6097,930,6,1,10,1.5964380615155294
basic,80,35,0,0,0,18,"[0, 24, 17, 1, 15, 23, 9, 18]",8,3,"[5, 6, 25]",100.5123698,6960,863,2,1,10,1.5508488101942703
basic,80,35,0,0,0,6,"[0, 24, 17, 1, 15, 23, 9, 18, 6]",9,1,[25],66.89689722,8697,1737,1,0,10,1.541466044761729
basic,80,35,0,0,1,25,"[0, 24, 17, 1, 15, 23, 9, 18, 6, 25]",10,0,[],42.87607292,9985,1288,1,0,10,1.5877595882523792
basic,80,35,0,1,1,25,"[0, 24, 17, 1, 15, 23, 9, 18, 6, 25]",10,0,[],42.87607292,10699,714,1,0,10,1.5877595882523792
basic,81,37,0,0,0,0,[0],1,29,"[1, 2, 3, 4, 5, 6, 7, 8, 9, 10, 11, 12, 13, 14, 15, 16, 17, 18, 19, 20, 21, 22, 23, 24, 25, 26, 27, 28, 29]",300,131,-1,6,168,10,0.0
basic,81,37,0,0,0,18,"[0, 18]",2,19,"[1, 2, 4, 6, 7, 9, 10, 12, 14, 15, 17, 19, 20, 21, 22, 23, 26, 28, 29]",202.4090168,1539,1408,6,89,10,1.0
basic,81,37,0,0,0,7,"[0, 18, 7]",3,12,"[1, 2, 4, 9, 15, 17, 19, 20, 21, 22, 26, 29]",175.2428614,2379,840,6,53,10,1.0413073512834488
basic,81,37,0,0,0,22,"[0, 18, 7, 22]",4,8,"[1, 2, 4, 15, 19, 20, 21, 26]",125.2428614,3379,1000,6,29,10,1.0730792320325544
basic,81,37,0,0,0,4,"[0, 18, 7, 22, 4]",5,7,"[1, 2, 15, 19, 20, 21, 26]",100.2428614,4595,1216,4,16,10,1.2290245562206235
basic,81,37,0,0,0,2,"[0, 18, 7, 22, 4, 2]",6,5,"[1, 15, 19, 20, 21]",88.84110714,5517,922,4,7,10,1.3968113858365216
basic,81,37,0,0,0,1,"[0, 18, 7, 22, 4, 2, 1]",7,4,"[15, 19, 20, 21]",71.63645661,6219,702,4,3,10,1.4424239294761476
basic,81,37,0,0,0,20,"[0, 18, 7, 22, 4, 2, 1, 20]",8,3,"[15, 19, 21]",37.40197107,8620,2401,2,1,10,1.7518607796010042
basic,81,37,0,0,0,15,"[0, 18, 7, 22, 4, 2, 1, 20, 15]",9,1,[21],20.40197107,9595,975,1,0,10,1.680305745239285
basic,81,37,0,0,1,21,"[0, 18, 7, 22, 4, 2, 1, 20, 15, 21]",10,0,[],5.401971073,11227,1632,1,0,10,1.8982635624510946
basic,81,37,0,1,1,21,"[0, 18, 7, 22, 4, 2, 1, 20, 15, 21]",10,0,[],5.401971073,11865,638,1,0,10,1.8982635624510946
basic,82,6,0,0,0,0,[0],1,29,"[1, 2, 3, 4, 5, 6, 7, 8, 9, 10, 11, 12, 13, 14, 15, 16, 17, 18, 19, 20, 21, 22, 23, 24, 25, 26, 27, 28, 29]",300,147,-1,180,4304,10,0.0
basic,82,6,0,0,0,3,"[0, 3]",2,28,"[1, 2, 4, 5, 6, 7, 8, 9, 10, 11, 12, 13, 14, 15, 16, 17, 18, 19, 20, 21, 22, 23, 24, 25, 26, 27, 28, 29]",266.4738908,1575,1428,90,1607,10,1.0
basic,82,6,0,0,0,16,"[0, 3, 16]",3,27,"[1, 2, 4, 5, 6, 7, 8, 9, 10, 11, 12, 13, 14, 15, 17, 18, 19, 20, 21, 22, 23, 24, 25, 26, 27, 28, 29]",220.2353787,3895,2320,16,190,10,1.1050742161728249
basic,82,6,0,0,0,18,"[0, 3, 16, 18]",4,24,"[1, 2, 4, 5, 6, 7, 8, 9, 10, 11, 12, 13, 14, 15, 17, 19, 20, 21, 22, 23, 24, 26, 27, 29]",196.8901436,5919,2024,10,97,10,1.6930577237270534
basic,82,6,0,0,0,17,"[0, 3, 16, 18, 17]",5,20,"[1, 2, 4, 5, 6, 7, 8, 9, 10, 11, 13, 14, 20, 21, 22, 23, 24, 26, 27, 29]",182.9617553,6567,648,8,58,10,1.6583245453234965
basic,82,6,0,0,0,10,"[0, 3, 16, 18, 17, 10]",6,17,"[1, 2, 4, 5, 6, 7, 8, 11, 13, 14, 21, 22, 23, 24, 26, 27, 29]",163.2386724,7288,721,6,33,10,1.6214605156931816
basic,82,6,0,0,0,24,"[0, 3, 16, 18, 17, 10, 24]",7,15,"[1, 2, 4, 5, 6, 7, 8, 11, 13, 14, 22, 23, 26, 27, 29]",149.8222646,8104,816,6,18,10,1.5435556829623227
basic,82,6,0,0,0,23,"[0, 3, 16, 18, 17, 10, 24, 23]",8,6,"[6, 11, 14, 22, 27, 29]",88.6340304,9888,1784,3,4,10,1.5749914836315253
basic,82,6,0,0,0,22,"[0, 3, 16, 18, 17, 10, 24, 23, 22]",9,2,"[14, 27]",47.6340304,11064,1176,2,0,10,1.6207636864423158
basic,82,6,0,0,1,14,"[0, 3, 16, 18, 17, 10, 24, 23, 22, 14]",10,0,[],13.22472933,12319,1255,1,0,10,1.7051539946832646
