condition,trial_id,map_id,undoIndicator,submit,checkEnd,currentChoice,chosen_all,n_city_all,n_within_reach,cities_reach,currentBudget,time_all,rt_all,n_opt_paths_all,n_subopt_paths_all,mas_all,tortuosity_all
undo,0,30,0,0,0,0,[0],1,19,"[3, 4, 5, 7, 9, 11, 16, 17, 18, 19, 20, 21, 22, 24, 25, 26, 27, 28, 29]",300,195,-1,5,41,8,0.0
undo,0,30,0,0,0,27,"[0, 27]",2,10,"[3, 5, 7, 9, 18, 19, 20, 24, 25, 29]",90.59608409,4563,4368,7,22,6,1.0
undo,0,30,0,0,0,3,"[0, 27, 3]",3,8,"[5, 7, 18, 19, 20, 24, 25, 29]",71.49111091,5702,1139,5,9,6,1.0022223300201003
undo,0,30,0,0,0,5,"[0, 27, 3, 5]",4,4,"[7, 18, 24, 29]",46.65162621,9138,3436,1,3,6,1.047699458031665
undo,0,30,0,0,0,18,"[0, 27, 3, 5, 18]",5,1,[29],33.6132214,10330,1192,1,0,6,1.0906504953306948
undo,0,30,0,0,1,29,"[0, 27, 3, 5, 18, 29]",6,0,[],14.30001349,11595,1265,1,0,6,1.1734964103241567
undo,0,30,0,1,1,29,"[0, 27, 3, 5, 18, 29]",6,0,[],14.30001349,13296,1701,1,0,6,1.1734964103241567
undo,1,39,0,0,0,0,[0],1,28,"[1, 2, 3, 4, 5, 6, 7, 9, 10, 11, 12, 13, 14, 15, 16, 17, 18, 19, 20, 21, 22, 23, 24, 25, 26, 27, 28, 29]",300,131,-1,1,30,10,0.0
undo,1,39,0,0,0,14,"[0, 14]",2,26,"[1, 2, 3, 4, 5, 6, 7, 9, 10, 12, 13, 15, 16, 17, 18, 19, 20, 21, 22, 23, 24, 25, 26, 27, 28, 29]",286.9615952,3798,3667,1,22,10,1.0
undo,1,39,0,0,0,29,"[0, 14, 29]",3,23,"[1, 2, 3, 4, 5, 6, 7, 9, 10, 12, 13, 15, 16, 17, 18, 19, 21, 22, 23, 24, 25, 26, 28]",218.9321898,7948,4150,1,21,10,1.4237768813412561
undo,1,39,0,0,0,12,"[0, 14, 29, 12]",4,16,"[1, 2, 4, 5, 7, 9, 10, 13, 15, 16, 18, 19, 22, 23, 24, 26]",158.3929463,9670,1722,1,11,10,1.2085522586932163
undo,1,39,0,0,0,10,"[0, 14, 29, 12, 10]",5,11,"[1, 4, 5, 7, 15, 16, 18, 19, 22, 23, 26]",122.8823845,11061,1391,1,8,10,1.4905426536315662
undo,1,39,0,0,0,7,"[0, 14, 29, 12, 10, 7]",6,6,"[1, 16, 18, 19, 22, 26]",89.46083457,12674,1613,1,6,10,1.3836596018032035
undo,1,39,0,0,0,26,"[0, 14, 29, 12, 10, 7, 26]",7,3,"[16, 19, 22]",70.77929288,15092,2418,1,4,10,1.4191124441944845
undo,1,39,0,0,0,22,"[0, 14, 29, 12, 10, 7, 26, 22]",8,2,"[16, 19]",53.05924773,17431,2339,1,1,10,1.594793297833885
undo,1,39,0,0,0,16,"[0, 14, 29, 12, 10, 7, 26, 22, 16]",9,1,[19],18.05924773,19903,2472,1,0,10,1.48519520801471
undo,1,39,0,0,1,19,"[0, 14, 29, 12, 10, 7, 26, 22, 16, 19]",10,0,[],0.594998533,21629,1726,1,0,10,1.484277847976571
undo,1,39,0,1,1,19,"[0, 14, 29, 12, 10, 7, 26, 22, 16, 19]",10,0,[],0.594998533,23219,1590,1,0,10,1.484277847976571
undo,2,28,0,0,0,0,[0],1,27,"[1, 2, 3, 4, 5, 6, 7, 8, 9, 10, 11, 12, 13, 14, 15, 16, 17, 18, 19, 20, 22, 23, 25, 26, 27, 28, 29]",300,132,-1,2,96,9,0.0
undo,2,28,0,0,0,3,"[0, 3]",2,26,"[1, 2, 4, 5, 6, 7, 8, 9, 10, 11, 12, 13, 14, 15, 16, 17, 18, 19, 20, 22, 23, 25, 26, 27, 28, 29]",251.0817008,5855,5723,1,64,9,1.0
undo,2,28,0,0,0,26,"[0, 3, 26]",3,16,"[2, 4, 5, 7, 8, 9, 12, 13, 14, 15, 18, 19, 20, 25, 28, 29]",138.1879454,9689,3834,5,37,8,1.0068906291240314
undo,2,28,0,0,0,19,"[0, 3, 26, 19]",4,8,"[2, 5, 7, 9, 12, 13, 14, 18]",97.1879454,12495,2806,4,16,8,1.1107862808184208
undo,2,28,0,0,0,7,"[0, 3, 26, 19, 7]",5,5,"[2, 12, 13, 14, 18]",69.45709615,14856,2361,2,5,8,1.176913490982096
undo,2,28,0,0,0,12,"[0, 3, 26, 19, 7, 12]",6,2,"[13, 18]",56.30414972,16495,1639,1,1,8,1.1828641377899662
undo,2,28,0,0,0,13,"[0, 3, 26, 19, 7, 12, 13]",7,1,[18],39.09949918,18114,1619,1,0,8,1.3692781947060153
undo,2,28,0,0,1,18,"[0, 3, 26, 19, 7, 12, 13, 18]",8,0,[],14.68638795,19940,1826,1,0,8,1.7149955009475475
undo,2,28,0,1,1,18,"[0, 3, 26, 19, 7, 12, 13, 18]",8,0,[],14.68638795,21592,1652,1,0,8,1.7149955009475475
undo,3,42,0,0,0,0,[0],1,29,"[1, 2, 3, 4, 5, 6, 7, 8, 9, 10, 11, 12, 13, 14, 15, 16, 17, 18, 19, 20, 21, 22, 23, 24, 25, 26, 27, 28, 29]",300,135,-1,16,302,9,0.0
undo,3,42,0,0,0,22,"[0, 22]",2,27,"[1, 2, 3, 4, 5, 6, 7, 8, 9, 10, 11, 12, 13, 15, 16, 17, 18, 19, 20, 21, 23, 24, 25, 26, 27, 28, 29]",211.3997743,5972,5837,5,83,9,1.0
undo,3,42,0,0,0,4,"[0, 22, 4]",3,26,"[1, 2, 3, 5, 6, 7, 8, 9, 10, 11, 12, 13, 15, 16, 17, 18, 19, 20, 21, 23, 24, 25, 26, 27, 28, 29]",200.2194344,7287,1315,4,51,9,1.1029012260448476
undo,3,42,0,0,0,5,"[0, 22, 4, 5]",4,24,"[1, 2, 3, 6, 7, 8, 9, 10, 11, 12, 13, 15, 17, 18, 19, 20, 21, 23, 24, 25, 26, 27, 28, 29]",180.3700011,9474,2187,3,22,9,1.1004909640339868
undo,3,42,0,0,0,8,"[0, 22, 4, 5, 8]",5,16,"[1, 2, 3, 6, 7, 11, 15, 18, 19, 23, 24, 25, 26, 27, 28, 29]",145.8881218,10876,1402,3,12,9,1.4333663223483832
undo,3,42,0,0,0,1,"[0, 22, 4, 5, 8, 1]",6,6,"[2, 7, 18, 19, 26, 27]",96.796371,12733,1857,3,7,9,1.3048950637395882
undo,3,42,0,0,0,7,"[0, 22, 4, 5, 8, 1, 7]",7,4,"[2, 19, 26, 27]",66.796371,14543,1810,3,2,9,1.3461774355793397
undo,3,42,0,0,0,26,"[0, 22, 4, 5, 8, 1, 7, 26]",8,2,"[19, 27]",40.22571049,16736,2193,2,0,9,1.3119913611616163
undo,3,42,0,0,1,27,"[0, 22, 4, 5, 8, 1, 7, 26, 27]",9,0,[],22.19795412,19311,2575,1,0,9,1.3027999653776734
undo,3,42,0,1,1,27,"[0, 22, 4, 5, 8, 1, 7, 26, 27]",9,0,[],22.19795412,20810,1499,1,0,9,1.3027999653776734
undo,4,6,0,0,0,0,[0],1,29,"[1, 2, 3, 4, 5, 6, 7, 8, 9, 10, 11, 12, 13, 14, 15, 16, 17, 18, 19, 20, 21, 22, 23, 24, 25, 26, 27, 28, 29]",300,146,-1,180,4304,10,0.0
undo,4,6,0,0,0,3,"[0, 3]",2,28,"[1, 2, 4, 5, 6, 7, 8, 9, 10, 11, 12, 13, 14, 15, 16, 17, 18, 19, 20, 21, 22, 23, 24, 25, 26, 27, 28, 29]",266.4738908,6404,6258,90,1607,10,1.0
undo,4,6,0,0,0,18,"[0, 3, 18]",3,27,"[1, 2, 4, 5, 6, 7, 8, 9, 10, 11, 12, 13, 14, 15, 16, 17, 19, 20, 21, 22, 23, 24, 25, 26, 27, 28, 29]",237.4738908,10388,3984,34,516,10,1.0266750028725786
undo,4,6,0,0,0,17,"[0, 3, 18, 17]",4,26,"[1, 2, 4, 5, 6, 7, 8, 9, 10, 11, 12, 13, 14, 15, 16, 19, 20, 21, 22, 23, 24, 25, 26, 27, 28, 29]",223.5455025,12030,1642,17,243,10,1.0832900829093166
undo,4,6,0,0,0,10,"[0, 3, 18, 17, 10]",5,22,"[1, 2, 4, 5, 6, 7, 8, 9, 11, 13, 14, 16, 19, 20, 21, 22, 23, 24, 26, 27, 28, 29]",203.8224196,15837,3807,10,111,10,1.140294203414171
undo,4,6,0,0,0,24,"[0, 3, 18, 17, 10, 24]",6,19,"[1, 2, 4, 5, 6, 7, 8, 11, 13, 14, 16, 20, 21, 22, 23, 26, 27, 28, 29]",190.4060117,17150,1313,10,80,10,1.1264281153820843
undo,4,6,0,0,0,7,"[0, 3, 18, 17, 10, 24, 7]",7,7,"[1, 2, 8, 13, 16, 26, 29]",119.4694203,21754,4604,7,2,9,3.7594224039448885
undo,4,6,0,0,0,26,"[0, 3, 18, 17, 10, 24, 7, 26]",8,3,"[1, 2, 13]",95.38623114,23786,2032,3,0,9,4.113722643581588
undo,4,6,0,0,1,2,"[0, 3, 18, 17, 10, 24, 7, 26, 2]",9,0,[],65.55336336,25372,1586,1,0,9,2.9556271670125684
undo,4,6,0,1,1,2,"[0, 3, 18, 17, 10, 24, 7, 26, 2]",9,0,[],65.55336336,26160,788,1,0,9,2.9556271670125684
undo,5,32,0,0,0,0,[0],1,29,"[1, 2, 3, 4, 5, 6, 7, 8, 9, 10, 11, 12, 13, 14, 15, 16, 17, 18, 19, 20, 21, 22, 23, 24, 25, 26, 27, 28, 29]",300,130,-1,17,359,10,0.0
undo,5,32,0,0,0,19,"[0, 19]",2,28,"[1, 2, 3, 4, 5, 6, 7, 8, 9, 10, 11, 12, 13, 14, 15, 16, 17, 18, 20, 21, 22, 23, 24, 25, 26, 27, 28, 29]",283.5075775,3094,2964,16,294,10,1.0
undo,5,32,0,0,0,15,"[0, 19, 15]",3,21,"[2, 3, 5, 7, 8, 9, 10, 11, 12, 13, 14, 16, 17, 20, 22, 23, 24, 25, 26, 27, 28]",197.7987681,4898,1804,2,52,10,1.19699508325577
undo,5,32,0,0,0,28,"[0, 19, 15, 28]",4,19,"[2, 3, 5, 7, 8, 9, 10, 11, 12, 13, 16, 17, 20, 22, 23, 24, 25, 26, 27]",186.3970139,6007,1109,2,41,10,1.1739755297768444
undo,5,32,0,0,0,12,"[0, 19, 15, 28, 12]",5,17,"[2, 3, 5, 7, 8, 9, 10, 11, 13, 16, 17, 20, 22, 23, 24, 26, 27]",167.4233479,7559,1552,2,25,10,1.177540715424265
undo,5,32,0,0,0,16,"[0, 19, 15, 28, 12, 16]",6,16,"[2, 3, 5, 7, 8, 9, 10, 11, 13, 17, 20, 22, 23, 24, 26, 27]",151.7708721,9116,1557,2,17,10,1.2623133279216439
undo,5,32,0,0,0,22,"[0, 19, 15, 28, 12, 16, 22]",7,10,"[2, 3, 5, 8, 9, 10, 11, 17, 20, 27]",117.9330235,13339,4223,2,7,10,1.2893434049314008
undo,5,32,0,0,0,9,"[0, 19, 15, 28, 12, 16, 22, 9]",8,4,"[2, 8, 17, 20]",95.72942015,16068,2729,2,2,10,1.3492394817468627
undo,5,32,0,0,0,8,"[0, 19, 15, 28, 12, 16, 22, 9, 8]",9,1,[20],50.60736346,17866,1798,1,0,10,1.2728587925837391
undo,5,32,0,0,1,20,"[0, 19, 15, 28, 12, 16, 22, 9, 8, 20]",10,0,[],0.278445332,21141,3275,1,0,10,1.4817741230721702
undo,5,32,0,1,1,20,"[0, 19, 15, 28, 12, 16, 22, 9, 8, 20]",10,0,[],0.278445332,22434,1293,1,0,10,1.4817741230721702
undo,6,21,0,0,0,0,[0],1,29,"[1, 2, 3, 4, 5, 6, 7, 8, 9, 10, 11, 12, 13, 14, 15, 16, 17, 18, 19, 20, 21, 22, 23, 24, 25, 26, 27, 28, 29]",300,134,-1,84,830,9,0.0
undo,6,21,0,0,0,20,"[0, 20]",2,28,"[1, 2, 3, 4, 5, 6, 7, 8, 9, 10, 11, 12, 13, 14, 15, 16, 17, 18, 19, 21, 22, 23, 24, 25, 26, 27, 28, 29]",217.6228187,5889,5755,6,67,9,1.0
undo,6,21,0,0,0,22,"[0, 20, 22]",3,23,"[2, 4, 6, 7, 8, 9, 10, 11, 12, 13, 14, 15, 16, 17, 18, 19, 21, 23, 24, 25, 26, 27, 29]",189.3916303,7581,1692,6,47,9,1.3451865712078994
undo,6,21,0,0,0,18,"[0, 20, 22, 18]",4,20,"[2, 4, 6, 7, 8, 9, 10, 11, 12, 14, 15, 16, 17, 21, 23, 24, 25, 26, 27, 29]",162.9908727,9782,2201,4,25,9,2.3191924394507706
undo,6,21,1,0,0,22,"[0, 20, 22]",3,23,"[2, 4, 6, 7, 8, 9, 10, 11, 12, 13, 14, 15, 16, 17, 18, 19, 21, 23, 24, 25, 26, 27, 29]",189.3916303,14603,4821,6,47,9,1.3451865712078994
undo,6,21,1,0,0,20,"[0, 20]",2,28,"[1, 2, 3, 4, 5, 6, 7, 8, 9, 10, 11, 12, 13, 14, 15, 16, 17, 18, 19, 21, 22, 23, 24, 25, 26, 27, 28, 29]",217.6228187,14945,342,6,67,9,1.0
undo,6,21,1,0,0,0,[0],1,29,"[1, 2, 3, 4, 5, 6, 7, 8, 9, 10, 11, 12, 13, 14, 15, 16, 17, 18, 19, 20, 21, 22, 23, 24, 25, 26, 27, 28, 29]",300,16412,1467,84,830,9,0.0
undo,6,21,0,0,0,18,"[0, 18]",2,28,"[1, 2, 3, 4, 5, 6, 7, 8, 9, 10, 11, 12, 13, 14, 15, 16, 17, 19, 20, 21, 22, 23, 24, 25, 26, 27, 28, 29]",240.923778,17289,877,44,305,9,1.0
undo,6,21,0,0,0,25,"[0, 18, 25]",3,23,"[1, 2, 3, 4, 6, 7, 8, 9, 10, 11, 12, 14, 15, 16, 17, 20, 21, 22, 23, 24, 26, 27, 29]",199.162552,19038,1749,16,84,9,1.6857830307656476
undo,6,21,0,0,0,21,"[0, 18, 25, 21]",4,14,"[1, 4, 6, 8, 9, 14, 15, 16, 17, 20, 22, 23, 24, 29]",149.8269665,21197,2159,7,35,9,1.670653070509846
undo,6,21,0,0,0,23,"[0, 18, 25, 21, 23]",5,9,"[4, 8, 14, 15, 16, 17, 22, 24, 29]",120.2127807,22983,1786,2,12,9,1.815662050507996
undo,6,21,0,0,0,14,"[0, 18, 25, 21, 23, 14]",6,4,"[4, 8, 15, 16]",91.14389698,24202,1219,2,4,9,1.8233928725692512
undo,6,21,0,0,0,4,"[0, 18, 25, 21, 23, 14, 4]",7,3,"[8, 15, 16]",77.00176136,25909,1707,2,2,9,1.7434511491074556
undo,6,21,0,0,0,16,"[0, 18, 25, 21, 23, 14, 4, 16]",8,2,"[8, 15]",32.40355512,27681,1772,2,0,9,1.639476055142577
undo,6,21,0,0,1,8,"[0, 18, 25, 21, 23, 14, 4, 16, 8]",9,0,[],13.80247988,29560,1879,1,0,9,1.5796595555481283
undo,6,21,0,1,1,8,"[0, 18, 25, 21, 23, 14, 4, 16, 8]",9,0,[],13.80247988,31588,2028,1,0,9,1.5796595555481283
undo,7,2,0,0,0,0,[0],1,23,"[1, 2, 4, 5, 6, 7, 8, 9, 12, 13, 15, 16, 17, 18, 19, 20, 22, 23, 25, 26, 27, 28, 29]",300,159,-1,70,620,10,0.0
undo,7,2,0,0,0,12,"[0, 12]",2,19,"[1, 2, 4, 5, 6, 7, 13, 15, 16, 17, 18, 19, 20, 22, 25, 26, 27, 28, 29]",186.8275652,3314,3155,3,169,10,1.0
undo,7,2,0,0,0,5,"[0, 12, 5]",3,14,"[1, 4, 6, 7, 13, 15, 16, 18, 19, 22, 25, 26, 28, 29]",157.2979191,6225,2911,2,88,10,1.0082498134695237
undo,7,2,0,0,0,22,"[0, 12, 5, 22]",4,11,"[1, 6, 7, 13, 15, 18, 19, 25, 26, 28, 29]",144.4916706,7379,1154,1,45,10,1.0077567572950326
undo,7,2,0,0,0,13,"[0, 12, 5, 22, 13]",5,9,"[1, 6, 7, 15, 18, 19, 25, 26, 29]",129.6256019,8778,1399,1,39,10,1.151783231594989
undo,7,2,0,0,0,18,"[0, 12, 5, 22, 13, 18]",6,4,"[7, 15, 26, 29]",94.45459106,10353,1575,1,14,10,1.1431544953850095
undo,7,2,0,0,0,7,"[0, 12, 5, 22, 13, 18, 7]",7,3,"[15, 26, 29]",84.15896092,11768,1415,1,4,10,1.1360054688421053
undo,7,2,0,0,0,26,"[0, 12, 5, 22, 13, 18, 7, 26]",8,2,"[15, 29]",61.35545242,15101,3333,1,1,10,1.1290531198668372
undo,7,2,0,0,0,15,"[0, 12, 5, 22, 13, 18, 7, 26, 15]",9,1,[29],37.14801554,18828,3727,1,0,10,1.395427297339814
undo,7,2,0,0,1,29,"[0, 12, 5, 22, 13, 18, 7, 26, 15, 29]",10,0,[],8.687516603,20646,1818,1,0,10,1.5868802136739162
undo,7,2,0,1,1,29,"[0, 12, 5, 22, 13, 18, 7, 26, 15, 29]",10,0,[],8.687516603,22674,2028,1,0,10,1.5868802136739162
undo,8,8,0,0,0,0,[0],1,29,"[1, 2, 3, 4, 5, 6, 7, 8, 9, 10, 11, 12, 13, 14, 15, 16, 17, 18, 19, 20, 21, 22, 23, 24, 25, 26, 27, 28, 29]",300,131,-1,10,149,9,0.0
undo,8,8,0,0,0,5,"[0, 5]",2,28,"[1, 2, 3, 4, 6, 7, 8, 9, 10, 11, 12, 13, 14, 15, 16, 17, 18, 19, 20, 21, 22, 23, 24, 25, 26, 27, 28, 29]",254.5137383,3497,3366,10,100,9,1.0
undo,8,8,0,0,0,25,"[0, 5, 25]",3,20,"[1, 2, 3, 4, 6, 11, 12, 14, 15, 16, 17, 18, 19, 20, 21, 22, 23, 24, 28, 29]",215.3091468,5946,2449,4,42,9,1.2272747879909065
undo,8,8,0,0,0,1,"[0, 5, 25, 1]",4,17,"[3, 4, 6, 11, 12, 14, 15, 16, 17, 18, 20, 21, 22, 23, 24, 28, 29]",190.3091468,10262,4316,3,24,9,1.1770245007593956
undo,8,8,0,0,0,23,"[0, 5, 25, 1, 23]",5,15,"[3, 4, 6, 11, 14, 15, 16, 17, 18, 20, 21, 22, 24, 28, 29]",167.2874179,11747,1485,1,14,9,1.141996583852372
undo,8,8,0,0,0,4,"[0, 5, 25, 1, 23, 4]",6,6,"[3, 14, 16, 18, 21, 28]",117.9518324,14893,3146,3,4,8,1.115517190692443
undo,8,8,0,0,0,18,"[0, 5, 25, 1, 23, 4, 18]",7,2,"[14, 28]",74.94020603,16742,1849,2,0,8,1.702606074443807
undo,8,8,0,0,1,14,"[0, 5, 25, 1, 23, 4, 18, 14]",8,0,[],17.45107663,20451,3709,1,0,8,3.306985013025639
undo,8,8,0,1,1,14,"[0, 5, 25, 1, 23, 4, 18, 14]",8,0,[],17.45107663,20959,508,1,0,8,3.306985013025639
undo,9,0,0,0,0,0,[0],1,27,"[2, 3, 4, 5, 6, 7, 8, 9, 10, 11, 12, 13, 14, 15, 16, 17, 19, 20, 21, 22, 23, 24, 25, 26, 27, 28, 29]",300,134,-1,104,1136,9,0.0
undo,9,0,0,0,0,5,"[0, 5]",2,24,"[2, 3, 4, 7, 8, 9, 11, 12, 13, 14, 15, 16, 17, 19, 20, 21, 22, 23, 24, 25, 26, 27, 28, 29]",164.5156836,4455,4321,5,112,9,1.0
undo,9,0,0,0,0,4,"[0, 5, 4]",3,20,"[2, 3, 7, 8, 9, 11, 12, 13, 14, 15, 17, 19, 20, 21, 22, 23, 24, 25, 26, 28]",139.4358112,5819,1364,4,61,9,1.0257023158632692
undo,9,0,0,0,0,26,"[0, 5, 4, 26]",4,18,"[3, 7, 8, 9, 11, 12, 13, 14, 15, 17, 19, 20, 21, 22, 23, 24, 25, 28]",127.3942166,8149,2330,4,26,9,1.0684029773259323
undo,9,0,0,0,0,24,"[0, 5, 4, 26, 24]",5,12,"[3, 7, 8, 9, 11, 12, 15, 17, 19, 20, 23, 28]",110.2769738,9694,1545,4,16,9,1.1372083333602885
undo,9,0,0,0,0,15,"[0, 5, 4, 26, 24, 15]",6,8,"[3, 7, 8, 9, 11, 12, 17, 19]",86.93173875,10958,1264,4,7,9,1.1271717591548023
undo,9,0,0,0,0,7,"[0, 5, 4, 26, 24, 15, 7]",7,4,"[3, 8, 17, 19]",55.86728962,16636,5678,3,2,9,1.190834598819092
undo,9,0,0,0,0,3,"[0, 5, 4, 26, 24, 15, 7, 3]",8,1,[8],31.78410046,21862,5226,1,0,9,1.23738515991157
undo,9,0,0,0,1,8,"[0, 5, 4, 26, 24, 15, 7, 3, 8]",9,0,[],1.370287806,23147,1285,1,0,9,1.3423763396760653
undo,9,0,0,1,1,8,"[0, 5, 4, 26, 24, 15, 7, 3, 8]",9,0,[],1.370287806,24038,891,1,0,9,1.3423763396760653
undo,10,15,0,0,0,0,[0],1,25,"[1, 2, 3, 4, 7, 8, 9, 10, 11, 12, 13, 14, 15, 16, 18, 20, 21, 22, 23, 24, 25, 26, 27, 28, 29]",300,156,-1,4,65,9,0.0
undo,10,15,0,0,0,16,"[0, 16]",2,16,"[3, 4, 7, 9, 10, 11, 12, 13, 14, 15, 18, 20, 21, 22, 25, 27]",185.8378346,2934,2778,22,104,7,1.0
undo,10,15,0,0,0,11,"[0, 16, 11]",3,13,"[3, 4, 7, 10, 12, 13, 14, 15, 18, 21, 22, 25, 27]",159.818611,5260,2326,10,29,7,1.1289542380807378
undo,10,15,0,0,0,3,"[0, 16, 11, 3]",4,12,"[4, 7, 10, 12, 13, 14, 15, 18, 21, 22, 25, 27]",148.4168567,6406,1146,10,12,7,1.14507593159006
undo,10,15,0,0,0,22,"[0, 16, 11, 3, 22]",5,6,"[4, 10, 13, 14, 15, 18]",98.68758969,8117,1711,4,4,7,1.1668569176120651
undo,10,15,0,0,0,15,"[0, 16, 11, 3, 22, 15]",6,2,"[13, 14]",73.07509274,10706,2589,2,0,7,1.1555413708932987
undo,10,15,0,0,1,13,"[0, 16, 11, 3, 22, 15, 13]",7,0,[],57.81075522,12901,2195,1,0,7,1.2088928499419171
undo,10,15,0,1,1,13,"[0, 16, 11, 3, 22, 15, 13]",7,0,[],57.81075522,13621,720,1,0,7,1.2088928499419171
undo,11,37,0,0,0,0,[0],1,29,"[1, 2, 3, 4, 5, 6, 7, 8, 9, 10, 11, 12, 13, 14, 15, 16, 17, 18, 19, 20, 21, 22, 23, 24, 25, 26, 27, 28, 29]",300,129,-1,6,168,10,0.0
undo,11,37,0,0,0,19,"[0, 19]",2,19,"[1, 2, 4, 5, 6, 7, 9, 10, 11, 15, 17, 18, 20, 21, 22, 25, 26, 28, 29]",185.6627795,5143,5014,25,244,9,1.0
undo,11,37,0,0,0,21,"[0, 19, 21]",3,14,"[1, 2, 4, 7, 10, 11, 15, 17, 18, 20, 22, 25, 26, 29]",144.5531699,6458,1315,10,75,9,1.001632816594558
undo,11,37,0,0,0,15,"[0, 19, 21, 15]",4,9,"[1, 2, 4, 7, 18, 20, 22, 26, 29]",129.5531699,7741,1283,5,32,9,1.0243376499143988
undo,11,37,0,0,0,20,"[0, 19, 21, 15, 20]",5,8,"[1, 2, 4, 7, 18, 22, 26, 29]",112.5531699,8958,1217,5,14,9,1.250507291508492
undo,11,37,0,0,0,1,"[0, 19, 21, 15, 20, 1]",6,6,"[2, 4, 7, 18, 22, 26]",78.31868434,10207,1249,4,4,9,1.4002166443864243
undo,11,37,0,0,0,4,"[0, 19, 21, 15, 20, 1, 4]",7,2,"[2, 22]",60.5986392,11532,1325,2,0,9,1.472939356650523
undo,11,37,0,0,0,2,"[0, 19, 21, 15, 20, 1, 4, 2]",8,1,[22],49.19688495,13496,1964,1,0,9,1.6590570350137948
undo,11,37,0,0,1,22,"[0, 19, 21, 15, 20, 1, 4, 2, 22]",9,0,[],21.53825157,14882,1386,1,0,9,1.7098673138592275
undo,11,37,0,1,1,22,"[0, 19, 21, 15, 20, 1, 4, 2, 22]",9,0,[],21.53825157,15866,984,1,0,9,1.7098673138592275
undo,12,25,0,0,0,0,[0],1,28,"[1, 2, 3, 4, 5, 7, 8, 9, 10, 11, 12, 13, 14, 15, 16, 17, 18, 19, 20, 21, 22, 23, 24, 25, 26, 27, 28, 29]",300,130,-1,5,94,10,0.0
undo,12,25,0,0,0,19,"[0, 19]",2,27,"[1, 2, 3, 4, 5, 7, 8, 9, 10, 11, 12, 13, 14, 15, 16, 17, 18, 20, 21, 22, 23, 24, 25, 26, 27, 28, 29]",251.9479449,12289,12159,2,30,10,1.0
undo,12,25,0,0,0,29,"[0, 19, 29]",3,26,"[1, 2, 3, 4, 5, 7, 8, 9, 10, 11, 12, 13, 14, 15, 16, 17, 18, 20, 21, 22, 23, 24, 25, 26, 27, 28]",235.6691243,13823,1534,2,22,10,1.0272252084351727
undo,12,25,0,0,0,22,"[0, 19, 29, 22]",4,24,"[1, 2, 3, 4, 5, 7, 8, 9, 11, 12, 13, 14, 15, 16, 17, 18, 20, 21, 23, 24, 25, 26, 27, 28]",219.5446088,15374,1551,2,17,10,1.03988854593305
undo,12,25,0,0,0,11,"[0, 19, 29, 22, 11]",5,10,"[3, 7, 9, 13, 14, 15, 16, 17, 26, 27]",110.3200694,17473,2099,3,7,7,1.0207291462726102
undo,12,25,0,0,0,16,"[0, 19, 29, 22, 11, 16]",6,1,[14],35.66754101,19448,1975,1,0,7,1.0457403266390939
undo,12,25,0,0,1,14,"[0, 19, 29, 22, 11, 16, 14]",7,0,[],19.26632154,20932,1484,1,0,7,1.068781318603581
undo,12,25,0,1,1,14,"[0, 19, 29, 22, 11, 16, 14]",7,0,[],19.26632154,22132,1200,1,0,7,1.068781318603581
undo,13,34,0,0,0,0,[0],1,25,"[1, 3, 4, 5, 6, 7, 8, 9, 10, 11, 12, 13, 15, 18, 19, 20, 21, 22, 23, 24, 25, 26, 27, 28, 29]",300,126,-1,12,367,10,0.0
undo,13,34,0,0,0,13,"[0, 13]",2,24,"[1, 3, 4, 5, 6, 7, 8, 9, 10, 11, 12, 15, 18, 19, 20, 21, 22, 23, 24, 25, 26, 27, 28, 29]",279.9750156,3270,3144,12,331,10,1.0
undo,13,34,0,0,0,1,"[0, 13, 1]",3,16,"[3, 5, 7, 8, 9, 10, 11, 12, 19, 21, 22, 23, 24, 25, 27, 29]",211.8574701,4869,1599,3,92,10,1.0010381285747127
undo,13,34,0,0,0,8,"[0, 13, 1, 8]",4,14,"[3, 5, 7, 9, 10, 11, 12, 19, 22, 23, 24, 25, 27, 29]",201.0871405,6012,1143,2,54,10,1.1636807
undo,13,34,0,0,0,25,"[0, 13, 1, 8, 25]",5,12,"[3, 5, 7, 9, 10, 11, 12, 22, 23, 24, 27, 29]",183.999133,7144,1132,2,28,10,1.1396208815936457
undo,13,34,0,0,0,24,"[0, 13, 1, 8, 25, 24]",6,11,"[3, 5, 7, 9, 10, 11, 12, 22, 23, 27, 29]",166.5062774,11289,4145,2,23,10,1.374180768736554
undo,13,34,0,0,0,23,"[0, 13, 1, 8, 25, 24, 23]",7,6,"[5, 7, 11, 12, 27, 29]",99.97808784,14422,3133,4,3,9,2.1078306540088096
undo,13,34,0,0,0,7,"[0, 13, 1, 8, 25, 24, 23, 7]",8,2,"[11, 12]",71.81783216,15808,1386,2,0,9,2.011215865419536
undo,13,34,0,0,1,12,"[0, 13, 1, 8, 25, 24, 23, 7, 12]",9,0,[],56.78453578,16704,896,1,0,9,1.9762514824310813
undo,13,34,0,1,1,12,"[0, 13, 1, 8, 25, 24, 23, 7, 12]",9,0,[],56.78453578,22830,6126,1,0,9,1.9762514824310813
undo,14,16,0,0,0,0,[0],1,29,"[1, 2, 3, 4, 5, 6, 7, 8, 9, 10, 11, 12, 13, 14, 15, 16, 17, 18, 19, 20, 21, 22, 23, 24, 25, 26, 27, 28, 29]",300,154,-1,13,161,9,0.0
undo,14,16,0,0,0,28,"[0, 28]",2,27,"[1, 2, 3, 4, 5, 7, 8, 9, 10, 11, 12, 13, 14, 15, 16, 17, 18, 19, 20, 21, 22, 23, 24, 25, 26, 27, 29]",284.3475242,3064,2910,11,92,9,1.0
undo,14,16,0,0,0,17,"[0, 28, 17]",3,26,"[1, 2, 3, 4, 5, 7, 8, 9, 10, 11, 12, 13, 14, 15, 16, 18, 19, 20, 21, 22, 23, 24, 25, 26, 27, 29]",219.1555001,5001,1937,10,46,9,1.3773866384707543
undo,14,16,0,0,0,16,"[0, 28, 17, 16]",4,25,"[1, 2, 3, 4, 5, 7, 8, 9, 10, 11, 12, 13, 14, 15, 18, 19, 20, 21, 22, 23, 24, 25, 26, 27, 29]",190.8358956,6183,1182,10,34,9,1.3209953830681203
undo,14,16,0,0,0,8,"[0, 28, 17, 16, 8]",5,12,"[3, 4, 5, 9, 12, 13, 15, 19, 20, 21, 25, 29]",142.4623491,9565,3382,6,19,9,1.2700932705506198
undo,14,16,0,0,0,20,"[0, 28, 17, 16, 8, 20]",6,6,"[4, 5, 9, 12, 15, 25]",84.6869218,11988,2423,4,4,9,1.1899382910703262
undo,14,16,0,0,0,25,"[0, 28, 17, 16, 8, 20, 25]",7,3,"[5, 9, 15]",72.03781116,13390,1402,2,2,9,1.2372268181049477
undo,14,16,0,0,0,9,"[0, 28, 17, 16, 8, 20, 25, 9]",8,2,"[5, 15]",59.23156268,15524,2134,2,0,9,1.221922950237529
undo,14,16,0,0,1,15,"[0, 28, 17, 16, 8, 20, 25, 9, 15]",9,0,[],20.334262,17302,1778,1,0,9,1.318239760375411
undo,14,16,0,1,1,15,"[0, 28, 17, 16, 8, 20, 25, 9, 15]",9,0,[],20.334262,18902,1600,1,0,9,1.318239760375411
undo,15,45,0,0,0,0,[0],1,24,"[1, 2, 3, 4, 5, 6, 7, 9, 10, 11, 12, 14, 15, 16, 17, 19, 20, 21, 22, 23, 24, 25, 27, 29]",300,134,-1,6,248,10,0.0
undo,15,45,0,0,0,15,"[0, 15]",2,23,"[1, 2, 3, 4, 5, 6, 7, 9, 10, 11, 12, 14, 16, 17, 19, 20, 21, 22, 23, 24, 25, 27, 29]",253.9022777,2993,2859,5,207,10,1.0
undo,15,45,0,0,0,23,"[0, 15, 23]",3,22,"[1, 2, 3, 4, 5, 6, 7, 9, 10, 11, 12, 14, 16, 17, 19, 20, 21, 22, 24, 25, 27, 29]",230.3014303,4454,1461,5,163,10,1.0006068457769497
undo,15,45,0,0,0,10,"[0, 15, 23, 10]",4,15,"[2, 3, 6, 7, 9, 12, 14, 16, 17, 19, 20, 22, 24, 25, 29]",145.4014892,8735,4281,16,100,9,1.0506457231179707
undo,15,45,0,0,0,6,"[0, 15, 23, 10, 6]",5,12,"[2, 3, 7, 9, 12, 14, 16, 20, 22, 24, 25, 29]",119.1526797,13434,4699,4,28,9,1.0500014568977043
undo,15,45,0,0,0,12,"[0, 15, 23, 10, 6, 12]",6,5,"[2, 3, 7, 22, 29]",99.02806787,14671,1237,3,6,9,1.0577470112105263
undo,15,45,0,0,0,29,"[0, 15, 23, 10, 6, 12, 29]",7,3,"[2, 3, 7]",52.63841385,16760,2089,1,2,9,1.5358445862158807
undo,15,45,0,0,0,3,"[0, 15, 23, 10, 6, 12, 29, 3]",8,1,[2],32.63841385,19071,2311,1,0,9,1.4904108008020531
undo,15,45,0,0,1,2,"[0, 15, 23, 10, 6, 12, 29, 3, 2]",9,0,[],7.320436048,20217,1146,1,0,9,1.7461974100212698
undo,15,45,0,1,1,2,"[0, 15, 23, 10, 6, 12, 29, 3, 2]",9,0,[],7.320436048,21220,1003,1,0,9,1.7461974100212698
undo,16,3,0,0,0,0,[0],1,29,"[1, 2, 3, 4, 5, 6, 7, 8, 9, 10, 11, 12, 13, 14, 15, 16, 17, 18, 19, 20, 21, 22, 23, 24, 25, 26, 27, 28, 29]",300,133,-1,34,427,10,0.0
undo,16,3,0,0,0,17,"[0, 17]",2,16,"[3, 4, 7, 8, 10, 12, 14, 15, 16, 19, 20, 21, 22, 24, 26, 27]",197.6965299,7953,7820,2,27,9,1.0
undo,16,3,0,0,0,20,"[0, 17, 20]",3,13,"[3, 4, 7, 8, 10, 14, 15, 16, 19, 21, 22, 24, 27]",185.0474192,9212,1259,2,24,9,1.0153332121237257
undo,16,3,0,0,0,3,"[0, 17, 20, 3]",4,10,"[4, 7, 8, 10, 14, 15, 16, 19, 21, 24]",164.6513412,10285,1073,2,22,9,1.0819240770773468
undo,16,3,0,0,0,19,"[0, 17, 20, 3, 19]",5,6,"[4, 8, 10, 14, 21, 24]",127.3150318,12746,2461,2,11,9,1.1701070532957258
undo,16,3,0,0,0,21,"[0, 17, 20, 3, 19, 21]",6,5,"[4, 8, 10, 14, 24]",115.1084762,13865,1119,2,6,9,1.202395500952127
undo,16,3,0,0,0,14,"[0, 17, 20, 3, 19, 21, 14]",7,4,"[4, 8, 10, 24]",88.20122806,18751,4886,2,2,9,1.6456130302761207
undo,16,3,0,0,0,24,"[0, 17, 20, 3, 19, 21, 14, 24]",8,1,[8],17.08864127,21973,3222,1,0,9,4.806859660680286
undo,16,3,0,0,1,8,"[0, 17, 20, 3, 19, 21, 14, 24, 8]",9,0,[],4.923116212,23282,1309,1,0,9,4.915218144486606
undo,16,3,0,1,1,8,"[0, 17, 20, 3, 19, 21, 14, 24, 8]",9,0,[],4.923116212,24260,978,1,0,9,4.915218144486606
undo,17,26,0,0,0,0,[0],1,29,"[1, 2, 3, 4, 5, 6, 7, 8, 9, 10, 11, 12, 13, 14, 15, 16, 17, 18, 19, 20, 21, 22, 23, 24, 25, 26, 27, 28, 29]",300,151,-1,9,226,9,0.0
undo,17,26,0,0,0,21,"[0, 21]",2,25,"[2, 3, 4, 5, 6, 7, 8, 10, 11, 12, 13, 14, 15, 16, 17, 18, 19, 22, 23, 24, 25, 26, 27, 28, 29]",211.1349337,4618,4467,7,90,9,1.0
undo,17,26,0,0,0,16,"[0, 21, 16]",3,12,"[4, 5, 6, 10, 11, 12, 13, 14, 17, 23, 26, 29]",151.2266705,6502,1884,1,34,9,1.3289691188319968
undo,17,26,0,0,0,29,"[0, 21, 16, 29]",4,8,"[4, 5, 6, 10, 13, 14, 17, 23]",127.0192337,9180,2678,1,28,9,1.4156891800947415
undo,17,26,0,0,0,4,"[0, 21, 16, 29, 4]",5,5,"[6, 10, 14, 17, 23]",103.0192337,10417,1237,1,12,9,1.6252228687746915
undo,17,26,0,0,0,10,"[0, 21, 16, 29, 4, 10]",6,3,"[6, 14, 17]",52.80967283,12387,1970,2,2,8,1.5275842895102674
undo,17,26,1,0,0,4,"[0, 21, 16, 29, 4]",5,5,"[6, 10, 14, 17, 23]",103.0192337,15742,3355,1,12,9,1.6252228687746915
undo,17,26,0,0,0,17,"[0, 21, 16, 29, 4, 17]",6,3,"[6, 10, 14]",81.92421056,17035,1293,1,4,9,1.534793846471065
undo,17,26,0,0,0,14,"[0, 21, 16, 29, 4, 17, 14]",7,2,"[6, 10]",59.45200551,18346,1311,1,1,9,1.4926767408397108
undo,17,26,0,0,0,6,"[0, 21, 16, 29, 4, 17, 14, 6]",8,1,[10],38.42820947,20165,1819,1,0,9,1.6286010900012204
undo,17,26,0,0,1,10,"[0, 21, 16, 29, 4, 17, 14, 6, 10]",9,0,[],9.153647129,22442,2277,1,0,9,1.797369356615424
undo,17,26,0,1,1,10,"[0, 21, 16, 29, 4, 17, 14, 6, 10]",9,0,[],9.153647129,23277,835,1,0,9,1.797369356615424
undo,18,17,0,0,0,0,[0],1,28,"[1, 2, 3, 4, 5, 6, 7, 8, 9, 10, 11, 12, 13, 14, 15, 16, 17, 18, 19, 20, 22, 23, 24, 25, 26, 27, 28, 29]",300,136,-1,2,73,8,0.0
undo,18,17,0,0,0,9,"[0, 9]",2,25,"[1, 2, 3, 5, 6, 7, 8, 10, 11, 12, 14, 15, 16, 17, 18, 19, 20, 22, 23, 24, 25, 26, 27, 28, 29]",210.5293344,5418,5282,1,34,8,1.0
undo,18,17,0,0,0,16,"[0, 9, 16]",3,21,"[1, 2, 3, 5, 7, 8, 10, 11, 12, 14, 17, 18, 19, 20, 22, 23, 25, 26, 27, 28, 29]",197.1876704,6542,1124,1,26,8,1.173103464220352
undo,18,17,0,0,0,2,"[0, 9, 16, 2]",4,18,"[1, 3, 5, 7, 8, 10, 11, 12, 14, 17, 18, 19, 23, 25, 26, 27, 28, 29]",181.0631549,7827,1285,1,23,8,1.14825089247282
undo,18,17,0,0,0,10,"[0, 9, 16, 2, 10]",5,4,"[3, 11, 23, 28]",71.04042993,11293,3466,3,2,7,1.2629477265421833
undo,18,17,0,0,0,11,"[0, 9, 16, 2, 10, 11]",6,1,[3],49.08593153,13684,2391,1,0,7,1.2370659942349713
undo,18,17,0,0,1,3,"[0, 9, 16, 2, 10, 11, 3]",7,0,[],22.91342687,15145,1461,1,0,7,1.4627126127553682
undo,18,17,0,1,1,3,"[0, 9, 16, 2, 10, 11, 3]",7,0,[],22.91342687,16647,1502,1,0,7,1.4627126127553682
undo,19,7,0,0,0,0,[0],1,29,"[1, 2, 3, 4, 5, 6, 7, 8, 9, 10, 11, 12, 13, 14, 15, 16, 17, 18, 19, 20, 21, 22, 23, 24, 25, 26, 27, 28, 29]",300,135,-1,3,79,9,0.0
undo,19,7,0,0,0,25,"[0, 25]",2,20,"[2, 3, 4, 5, 6, 7, 10, 13, 14, 15, 16, 18, 19, 20, 21, 22, 23, 24, 27, 28]",181.5939191,4922,4787,5,33,8,1.0
undo,19,7,0,0,0,4,"[0, 25, 4]",3,11,"[2, 6, 7, 13, 15, 16, 18, 19, 20, 21, 23]",156.8552853,8327,3405,2,14,8,1.0193465608331511
undo,19,7,0,0,0,20,"[0, 25, 4, 20]",4,8,"[2, 6, 7, 13, 15, 16, 18, 19]",137.2084026,9171,844,1,9,8,1.085904909082323
undo,19,7,0,0,0,18,"[0, 25, 4, 20, 18]",5,7,"[2, 6, 7, 13, 15, 16, 19]",124.4021541,10746,1575,1,5,8,1.2264883846453758
undo,19,7,0,0,0,7,"[0, 25, 4, 20, 18, 7]",6,2,"[2, 19]",83.17109789,12610,1864,1,1,8,1.185264473968278
undo,19,7,0,0,0,19,"[0, 25, 4, 20, 18, 7, 19]",7,1,[2],53.76021555,13861,1251,1,0,8,1.3016904288278204
undo,19,7,0,0,1,2,"[0, 25, 4, 20, 18, 7, 19, 2]",8,0,[],23.61058868,18302,4441,1,0,8,1.3168868000947171
undo,19,7,0,1,1,2,"[0, 25, 4, 20, 18, 7, 19, 2]",8,0,[],23.61058868,18808,506,1,0,8,1.3168868000947171
undo,20,14,0,0,0,0,[0],1,29,"[1, 2, 3, 4, 5, 6, 7, 8, 9, 10, 11, 12, 13, 14, 15, 16, 17, 18, 19, 20, 21, 22, 23, 24, 25, 26, 27, 28, 29]",300,148,-1,8,157,10,0.0
undo,20,14,0,0,0,28,"[0, 28]",2,18,"[1, 2, 3, 4, 7, 8, 9, 13, 15, 17, 18, 19, 20, 22, 23, 25, 26, 27]",201.8725319,4248,4100,30,170,9,1.0
undo,20,14,0,0,0,17,"[0, 28, 17]",3,16,"[1, 2, 3, 4, 7, 8, 9, 13, 15, 18, 19, 20, 22, 23, 25, 26]",188.4189078,5918,1670,18,87,9,1.032450375957012
undo,20,14,0,0,0,15,"[0, 28, 17, 15]",4,13,"[1, 2, 3, 7, 8, 13, 18, 19, 20, 22, 23, 25, 26]",163.2395512,7406,1488,9,38,9,1.6418873981807083
undo,20,14,0,0,0,18,"[0, 28, 17, 15, 18]",5,7,"[1, 7, 8, 19, 23, 25, 26]",100.1760911,8716,1310,9,20,9,1.6637556348048597
undo,20,14,0,0,0,8,"[0, 28, 17, 15, 18, 8]",6,6,"[1, 7, 19, 23, 25, 26]",86.5746206,9992,1276,9,7,9,1.6287743242041242
undo,20,14,0,0,0,1,"[0, 28, 17, 15, 18, 8, 1]",7,4,"[19, 23, 25, 26]",62.97377315,11724,1732,3,2,9,1.5329066107995903
undo,20,14,0,0,0,19,"[0, 28, 17, 15, 18, 8, 1, 19]",8,2,"[23, 25]",47.74222694,13834,2110,2,0,9,1.7059638206817227
undo,20,14,0,0,1,25,"[0, 28, 17, 15, 18, 8, 1, 19, 25]",9,0,[],11.89533028,15182,1348,1,0,9,1.7601420981912959
undo,20,14,0,1,1,25,"[0, 28, 17, 15, 18, 8, 1, 19, 25]",9,0,[],11.89533028,16147,965,1,0,9,1.7601420981912959
undo,21,4,0,0,0,0,[0],1,26,"[3, 4, 5, 6, 7, 8, 10, 11, 12, 13, 14, 15, 16, 17, 18, 19, 20, 21, 22, 23, 24, 25, 26, 27, 28, 29]",300,133,-1,4,489,10,0.0
undo,21,4,0,0,0,28,"[0, 28]",2,21,"[3, 4, 5, 6, 10, 11, 12, 13, 14, 15, 16, 17, 19, 20, 21, 22, 23, 24, 25, 26, 27]",225.9392142,4518,4385,2,216,10,1.0
undo,21,4,0,0,0,21,"[0, 28, 21]",3,15,"[3, 4, 5, 6, 11, 12, 13, 14, 16, 17, 20, 22, 24, 25, 26]",144.9330416,6124,1606,2,61,9,1.0491636706233618
undo,21,4,0,0,0,22,"[0, 28, 21, 22]",4,13,"[3, 4, 5, 11, 12, 13, 14, 16, 17, 20, 24, 25, 26]",133.8876805,7089,965,2,46,9,1.0469702822549845
undo,21,4,0,0,0,11,"[0, 28, 21, 22, 11]",5,7,"[3, 13, 14, 16, 17, 20, 25]",77.9859811,9534,2445,8,8,8,1.8068441251760228
undo,21,4,0,0,0,25,"[0, 28, 21, 22, 11, 25]",6,4,"[3, 14, 16, 17]",59.19768687,11573,2039,4,2,8,1.8989088932035236
undo,21,4,0,0,0,14,"[0, 28, 21, 22, 11, 25, 14]",7,2,"[3, 16]",43.07317137,13348,1775,2,0,8,1.881402348239368
undo,21,4,0,0,1,16,"[0, 28, 21, 22, 11, 25, 14, 16]",8,0,[],10.51553018,14476,1128,1,0,8,2.100085811612047
undo,21,4,0,1,1,16,"[0, 28, 21, 22, 11, 25, 14, 16]",8,0,[],10.51553018,15189,713,1,0,8,2.100085811612047
undo,22,22,0,0,0,0,[0],1,29,"[1, 2, 3, 4, 5, 6, 7, 8, 9, 10, 11, 12, 13, 14, 15, 16, 17, 18, 19, 20, 21, 22, 23, 24, 25, 26, 27, 28, 29]",300,134,-1,31,704,9,0.0
undo,22,22,0,0,0,19,"[0, 19]",2,20,"[1, 3, 6, 7, 8, 9, 11, 13, 14, 15, 16, 17, 20, 21, 22, 23, 24, 25, 28, 29]",220.3758831,5187,5053,2,158,9,1.0
undo,22,22,0,0,0,29,"[0, 19, 29]",3,18,"[1, 3, 6, 7, 8, 9, 13, 14, 15, 16, 17, 20, 21, 22, 23, 24, 25, 28]",205.3425867,6749,1562,2,81,9,1.229213399108372
undo,22,22,0,0,0,14,"[0, 19, 29, 14]",4,13,"[1, 3, 6, 7, 9, 13, 15, 16, 17, 20, 21, 24, 28]",147.0931232,7995,1246,15,44,8,1.1803698259828737
undo,22,22,0,0,0,7,"[0, 19, 29, 14, 7]",5,12,"[1, 3, 6, 9, 13, 15, 16, 17, 20, 21, 24, 28]",134.0547183,9140,1145,13,19,8,1.3194801202473307
undo,22,22,0,0,0,17,"[0, 19, 29, 14, 7, 17]",6,6,"[1, 3, 9, 20, 21, 24]",92.43741425,11424,2284,5,4,8,1.3134505108884618
undo,22,22,0,0,0,21,"[0, 19, 29, 14, 7, 17, 21]",7,3,"[1, 3, 24]",41.08568595,13366,1942,3,0,8,1.605101183292839
undo,22,22,0,0,1,3,"[0, 19, 29, 14, 7, 17, 21, 3]",8,0,[],16.06569394,16090,2724,1,0,8,1.6661135957896933
undo,22,22,0,1,1,3,"[0, 19, 29, 14, 7, 17, 21, 3]",8,0,[],16.06569394,17851,1761,1,0,8,1.6661135957896933
basic,23,3,0,0,0,0,[0],1,29,"[1, 2, 3, 4, 5, 6, 7, 8, 9, 10, 11, 12, 13, 14, 15, 16, 17, 18, 19, 20, 21, 22, 23, 24, 25, 26, 27, 28, 29]",300,445,-1,34,427,10,0.0
basic,23,3,0,0,0,24,"[0, 24]",2,27,"[1, 2, 3, 4, 5, 6, 7, 8, 9, 10, 11, 12, 13, 14, 15, 16, 17, 18, 19, 20, 21, 22, 25, 26, 27, 28, 29]",241.1442441,3120,2675,1,40,10,1.0
basic,23,3,0,0,0,8,"[0, 24, 8]",3,25,"[1, 2, 3, 4, 5, 6, 7, 10, 11, 12, 13, 14, 15, 16, 17, 18, 19, 20, 21, 22, 25, 26, 27, 28, 29]",228.9787191,4660,1540,1,35,10,1.1830309580440148
basic,23,3,0,0,0,17,"[0, 24, 8, 17]",4,10,"[3, 4, 7, 10, 14, 15, 16, 19, 20, 21]",147.8245448,8442,3782,8,30,9,1.4874906492543953
basic,23,3,0,0,0,20,"[0, 24, 8, 17, 20]",5,8,"[3, 4, 7, 10, 14, 16, 19, 21]",135.1754342,10981,2539,8,16,9,1.4558338287487358
basic,23,3,0,0,0,3,"[0, 24, 8, 17, 20, 3]",6,5,"[4, 10, 14, 19, 21]",114.7793561,11906,925,8,4,9,1.4805811596795773
basic,23,3,0,0,0,19,"[0, 24, 8, 17, 20, 3, 19]",7,3,"[10, 14, 21]",77.4430467,13437,1531,4,1,9,1.5080378074062004
basic,23,3,0,0,0,21,"[0, 24, 8, 17, 20, 3, 19, 21]",8,2,"[10, 14]",65.23649108,14855,1418,2,0,9,1.5267254069390848
basic,23,3,0,0,1,14,"[0, 24, 8, 17, 20, 3, 19, 21, 14]",9,0,[],38.32924299,16534,1679,1,0,9,2.033103419031432
basic,23,3,0,1,1,14,"[0, 24, 8, 17, 20, 3, 19, 21, 14]",9,0,[],38.32924299,17524,990,1,0,9,2.033103419031432
basic,24,11,0,0,0,0,[0],1,25,"[1, 2, 3, 4, 5, 6, 8, 9, 10, 11, 12, 13, 14, 15, 16, 17, 18, 19, 20, 22, 23, 25, 26, 27, 28]",300,133,-1,6,374,12,0.0
basic,24,11,0,0,0,17,"[0, 17]",2,18,"[1, 2, 4, 5, 6, 8, 10, 11, 12, 15, 18, 19, 22, 23, 25, 26, 27, 28]",152.9217895,2780,2647,218,762,9,1.0
basic,24,11,0,0,0,8,"[0, 17, 8]",3,15,"[1, 2, 4, 5, 6, 11, 12, 15, 18, 19, 22, 23, 25, 27, 28]",138.6039684,4064,1284,95,263,9,1.1114912532636003
basic,24,11,0,0,0,15,"[0, 17, 8, 15]",4,11,"[2, 5, 6, 11, 12, 18, 19, 22, 25, 27, 28]",125.1503444,5284,1220,62,51,9,1.1146194627724886
basic,24,11,0,0,0,11,"[0, 17, 8, 15, 11]",5,9,"[2, 5, 6, 12, 19, 22, 25, 27, 28]",107.0395741,7228,1944,24,2,9,1.1130192047684102
basic,24,11,0,0,0,22,"[0, 17, 8, 15, 11, 22]",6,4,"[2, 5, 19, 28]",73.61802419,9346,2118,6,0,9,1.2007499763074991
basic,24,11,0,0,0,2,"[0, 17, 8, 15, 11, 22, 2]",7,2,"[5, 28]",63.56814857,10512,1166,2,0,9,1.32463653466919
basic,24,11,0,0,0,28,"[0, 17, 8, 15, 11, 22, 2, 28]",8,1,[5],52.93800276,11647,1135,1,0,9,1.4297291575646118
basic,24,11,0,0,1,5,"[0, 17, 8, 15, 11, 22, 2, 28, 5]",9,0,[],35.04945894,13195,1548,1,0,9,1.6285310515220563
basic,24,11,0,1,1,5,"[0, 17, 8, 15, 11, 22, 2, 28, 5]",9,0,[],35.04945894,13694,499,1,0,9,1.6285310515220563
basic,25,17,0,0,0,0,[0],1,28,"[1, 2, 3, 4, 5, 6, 7, 8, 9, 10, 11, 12, 13, 14, 15, 16, 17, 18, 19, 20, 22, 23, 24, 25, 26, 27, 28, 29]",300,200,-1,2,73,8,0.0
basic,25,17,0,0,0,9,"[0, 9]",2,25,"[1, 2, 3, 5, 6, 7, 8, 10, 11, 12, 14, 15, 16, 17, 18, 19, 20, 22, 23, 24, 25, 26, 27, 28, 29]",210.5293344,3713,3513,1,34,8,1.0
basic,25,17,0,0,0,16,"[0, 9, 16]",3,21,"[1, 2, 3, 5, 7, 8, 10, 11, 12, 14, 17, 18, 19, 20, 22, 23, 25, 26, 27, 28, 29]",197.1876704,6032,2319,1,26,8,1.173103464220352
basic,25,17,0,0,0,2,"[0, 9, 16, 2]",4,18,"[1, 3, 5, 7, 8, 10, 11, 12, 14, 17, 18, 19, 23, 25, 26, 27, 28, 29]",181.0631549,8696,2664,1,23,8,1.14825089247282
basic,25,17,0,0,0,8,"[0, 9, 16, 2, 8]",5,9,"[3, 7, 10, 11, 12, 14, 17, 26, 27]",145.9490551,11988,3292,1,9,8,1.1509808066472915
basic,25,17,0,0,0,7,"[0, 9, 16, 2, 8, 7]",6,3,"[10, 12, 27]",75.238377,13422,1434,3,0,7,1.2222166608088694
basic,25,17,0,0,1,27,"[0, 9, 16, 2, 8, 7, 27]",7,0,[],21.63800387,15333,1911,1,0,7,1.2961096752539074
basic,25,17,0,1,1,27,"[0, 9, 16, 2, 8, 7, 27]",7,0,[],21.63800387,17234,1901,1,0,7,1.2961096752539074
basic,26,26,0,0,0,0,[0],1,29,"[1, 2, 3, 4, 5, 6, 7, 8, 9, 10, 11, 12, 13, 14, 15, 16, 17, 18, 19, 20, 21, 22, 23, 24, 25, 26, 27, 28, 29]",300,131,-1,9,226,9,0.0
basic,26,26,0,0,0,10,"[0, 10]",2,6,"[4, 6, 14, 16, 17, 29]",138.1822012,4742,4611,9,66,7,1.0
basic,26,26,0,0,0,6,"[0, 10, 6]",3,5,"[4, 14, 16, 17, 29]",108.9076389,6760,2018,8,23,7,1.1897813099332413
basic,26,26,0,0,0,14,"[0, 10, 6, 14]",4,4,"[4, 16, 17, 29]",87.88384285,8045,1285,4,6,7,1.3162481558218453
basic,26,26,0,0,0,17,"[0, 10, 6, 14, 17]",5,3,"[4, 16, 29]",65.41163779,9174,1129,3,1,7,1.6510075497064465
basic,26,26,0,0,0,4,"[0, 10, 6, 14, 17, 4]",6,1,[29],44.31661468,10402,1228,1,0,7,2.1095586782058087
basic,26,26,0,0,1,29,"[0, 10, 6, 14, 17, 4, 29]",7,0,[],20.31661468,11762,1360,1,0,7,2.288952413143475
basic,26,26,0,1,1,29,"[0, 10, 6, 14, 17, 4, 29]",7,0,[],20.31661468,12513,751,1,0,7,2.288952413143475
basic,27,24,0,0,0,0,[0],1,29,"[1, 2, 3, 4, 5, 6, 7, 8, 9, 10, 11, 12, 13, 14, 15, 16, 17, 18, 19, 20, 21, 22, 23, 24, 25, 26, 27, 28, 29]",300,154,-1,4,76,10,0.0
basic,27,24,0,0,0,16,"[0, 16]",2,28,"[1, 2, 3, 4, 5, 6, 7, 8, 9, 10, 11, 12, 13, 14, 15, 17, 18, 19, 20, 21, 22, 23, 24, 25, 26, 27, 28, 29]",210.3562607,3275,3121,13,110,9,1.0
basic,27,24,0,0,0,8,"[0, 16, 8]",3,22,"[1, 2, 3, 4, 6, 9, 10, 11, 13, 14, 15, 17, 20, 21, 22, 23, 24, 25, 26, 27, 28, 29]",181.3562607,5290,2015,3,31,9,1.0774669368510212
basic,27,24,0,0,0,22,"[0, 16, 8, 22]",4,18,"[2, 3, 4, 6, 9, 10, 11, 13, 14, 15, 17, 23, 24, 25, 26, 27, 28, 29]",167.9398528,6554,1264,3,23,9,1.2531772310046492
basic,27,24,0,0,0,15,"[0, 16, 8, 22, 15]",5,16,"[3, 4, 6, 9, 10, 11, 13, 14, 17, 23, 24, 25, 26, 27, 28, 29]",146.7266494,7752,1198,3,16,9,1.2813329946092564
basic,27,24,0,0,0,28,"[0, 16, 8, 22, 15, 28]",6,8,"[3, 4, 9, 11, 13, 23, 26, 27]",101.4497237,12685,4933,3,5,9,1.2060847818642253
basic,27,24,0,0,0,23,"[0, 16, 8, 22, 15, 28, 23]",7,3,"[9, 11, 27]",82.42342609,14131,1446,3,1,9,1.2349355190066822
basic,27,24,0,0,0,11,"[0, 16, 8, 22, 15, 28, 23, 11]",8,2,"[9, 27]",55.49760206,15880,1749,2,0,9,1.2172586817191506
basic,27,24,0,0,1,9,"[0, 16, 8, 22, 15, 28, 23, 11, 9]",9,0,[],23.24857107,18807,2927,1,0,9,1.3037788048831767
basic,27,24,0,1,1,9,"[0, 16, 8, 22, 15, 28, 23, 11, 9]",9,0,[],23.24857107,19536,729,1,0,9,1.3037788048831767
basic,28,1,0,0,0,0,[0],1,26,"[1, 2, 4, 5, 7, 8, 9, 10, 11, 12, 13, 14, 15, 16, 17, 18, 19, 20, 21, 22, 23, 24, 25, 26, 28, 29]",300,135,-1,6,74,7,0.0
basic,28,1,0,0,0,14,"[0, 14]",2,19,"[1, 4, 5, 8, 9, 13, 15, 17, 18, 19, 20, 21, 22, 23, 24, 25, 26, 28, 29]",200.1901808,5832,5697,5,42,7,1.0
basic,28,1,0,0,0,17,"[0, 14, 17]",3,15,"[1, 4, 5, 8, 9, 13, 15, 18, 19, 20, 22, 23, 25, 28, 29]",147.8356204,7536,1704,5,27,7,1.0028844724416826
basic,28,1,0,0,0,1,"[0, 14, 17, 1]",4,12,"[4, 5, 8, 9, 15, 18, 20, 22, 23, 25, 28, 29]",123.4840291,9607,2071,5,15,7,1.0264985578353567
basic,28,1,0,0,0,28,"[0, 14, 17, 1, 28]",5,5,"[9, 15, 22, 23, 29]",88.59850198,11390,1783,5,3,7,1.0339861575999345
basic,28,1,0,0,0,23,"[0, 14, 17, 1, 28, 23]",6,2,"[15, 22]",51.70676849,13036,1646,2,0,7,1.0327458250705703
basic,28,1,0,0,1,15,"[0, 14, 17, 1, 28, 23, 15]",7,0,[],20.81987807,14556,1520,1,0,7,1.1948681641401226
basic,28,1,0,1,1,15,"[0, 14, 17, 1, 28, 23, 15]",7,0,[],20.81987807,15337,781,1,0,7,1.1948681641401226
basic,29,44,0,0,0,0,[0],1,29,"[1, 2, 3, 4, 5, 6, 7, 8, 9, 10, 11, 12, 13, 14, 15, 16, 17, 18, 19, 20, 21, 22, 23, 24, 25, 26, 27, 28, 29]",300,128,-1,13,126,7,0.0
basic,29,44,0,0,0,8,"[0, 8]",2,17,"[1, 4, 5, 7, 9, 10, 11, 12, 13, 14, 15, 20, 21, 23, 24, 25, 27]",145.7923478,3795,3667,1,10,7,1.0
basic,29,44,0,0,0,20,"[0, 8, 20]",3,16,"[1, 4, 5, 7, 9, 10, 11, 12, 13, 14, 15, 21, 23, 24, 25, 27]",133.7093018,5052,1257,1,9,7,1.0890794433668698
basic,29,44,0,0,0,9,"[0, 8, 20, 9]",4,7,"[4, 7, 11, 12, 14, 23, 24]",76.43801756,6662,1610,1,6,7,1.40892325509949
basic,29,44,0,0,0,4,"[0, 8, 20, 9, 4]",5,4,"[7, 12, 23, 24]",56.74030196,7762,1100,1,3,7,1.3849770570803555
basic,29,44,0,0,0,7,"[0, 8, 20, 9, 4, 7]",6,1,[23],25.72417712,9832,2070,1,0,7,1.3274380931474288
basic,29,44,0,0,1,23,"[0, 8, 20, 9, 4, 7, 23]",7,0,[],6.619203947,10910,1078,1,0,7,1.3395824779823196
basic,29,44,0,1,1,23,"[0, 8, 20, 9, 4, 7, 23]",7,0,[],6.619203947,11736,826,1,0,7,1.3395824779823196
basic,30,22,0,0,0,0,[0],1,29,"[1, 2, 3, 4, 5, 6, 7, 8, 9, 10, 11, 12, 13, 14, 15, 16, 17, 18, 19, 20, 21, 22, 23, 24, 25, 26, 27, 28, 29]",300,128,-1,31,704,9,0.0
basic,30,22,0,0,0,29,"[0, 29]",2,22,"[1, 3, 5, 6, 7, 8, 9, 11, 13, 14, 15, 16, 17, 19, 20, 21, 22, 23, 24, 25, 27, 28]",222.9935068,4069,3941,11,235,9,1.0
basic,30,22,0,0,0,19,"[0, 29, 19]",3,18,"[1, 3, 6, 7, 8, 9, 13, 14, 15, 16, 17, 20, 21, 22, 23, 24, 25, 28]",207.9602104,5610,1541,11,172,9,1.1559285443414686
basic,30,22,0,0,0,7,"[0, 29, 19, 7]",4,14,"[1, 3, 6, 8, 9, 13, 14, 15, 16, 17, 20, 21, 24, 28]",161.6892692,7139,1529,2,38,9,1.0997496152822535
basic,30,22,0,0,0,14,"[0, 29, 19, 7, 14]",5,12,"[1, 3, 6, 9, 13, 15, 16, 17, 20, 21, 24, 28]",148.6508644,8221,1082,2,24,9,1.1683447899109163
basic,30,22,0,0,0,9,"[0, 29, 19, 7, 14, 9]",6,5,"[6, 16, 17, 24, 28]",105.6043779,9694,1473,2,4,9,2.1706974496486087
basic,30,22,0,0,0,6,"[0, 29, 19, 7, 14, 9, 6]",7,2,"[16, 28]",78.97732396,14592,4898,2,0,9,2.4941297009110435
basic,30,22,0,0,0,28,"[0, 29, 19, 7, 14, 9, 6, 28]",8,1,[16],48.97732396,16940,2348,1,0,9,2.269585076984223
basic,30,22,0,0,1,16,"[0, 29, 19, 7, 14, 9, 6, 28, 16]",9,0,[],14.53897325,21139,4199,1,0,9,3.507146295578618
basic,30,22,0,1,1,16,"[0, 29, 19, 7, 14, 9, 6, 28, 16]",9,0,[],14.53897325,21927,788,1,0,9,3.507146295578618
basic,31,16,0,0,0,0,[0],1,29,"[1, 2, 3, 4, 5, 6, 7, 8, 9, 10, 11, 12, 13, 14, 15, 16, 17, 18, 19, 20, 21, 22, 23, 24, 25, 26, 27, 28, 29]",300,192,-1,13,161,9,0.0
basic,31,16,0,0,0,28,"[0, 28]",2,27,"[1, 2, 3, 4, 5, 7, 8, 9, 10, 11, 12, 13, 14, 15, 16, 17, 18, 19, 20, 21, 22, 23, 24, 25, 26, 27, 29]",284.3475242,3672,3480,11,92,9,1.0
basic,31,16,0,0,0,17,"[0, 28, 17]",3,26,"[1, 2, 3, 4, 5, 7, 8, 9, 10, 11, 12, 13, 14, 15, 16, 18, 19, 20, 21, 22, 23, 24, 25, 26, 27, 29]",219.1555001,6348,2676,10,46,9,1.3773866384707543
basic,31,16,0,0,0,16,"[0, 28, 17, 16]",4,25,"[1, 2, 3, 4, 5, 7, 8, 9, 10, 11, 12, 13, 14, 15, 18, 19, 20, 21, 22, 23, 24, 25, 26, 27, 29]",190.8358956,8255,1907,10,34,9,1.3209953830681203
basic,31,16,0,0,0,8,"[0, 28, 17, 16, 8]",5,12,"[3, 4, 5, 9, 12, 13, 15, 19, 20, 21, 25, 29]",142.4623491,10011,1756,6,19,9,1.2700932705506198
basic,31,16,0,0,0,20,"[0, 28, 17, 16, 8, 20]",6,6,"[4, 5, 9, 12, 15, 25]",84.6869218,11631,1620,4,4,9,1.1899382910703262
basic,31,16,0,0,0,25,"[0, 28, 17, 16, 8, 20, 25]",7,3,"[5, 9, 15]",72.03781116,14596,2965,2,2,9,1.2372268181049477
basic,31,16,0,0,0,9,"[0, 28, 17, 16, 8, 20, 25, 9]",8,2,"[5, 15]",59.23156268,17479,2883,2,0,9,1.221922950237529
basic,31,16,0,0,1,15,"[0, 28, 17, 16, 8, 20, 25, 9, 15]",9,0,[],20.334262,20279,2800,1,0,9,1.318239760375411
basic,31,16,0,1,1,15,"[0, 28, 17, 16, 8, 20, 25, 9, 15]",9,0,[],20.334262,21324,1045,1,0,9,1.318239760375411
basic,32,14,0,0,0,0,[0],1,29,"[1, 2, 3, 4, 5, 6, 7, 8, 9, 10, 11, 12, 13, 14, 15, 16, 17, 18, 19, 20, 21, 22, 23, 24, 25, 26, 27, 28, 29]",300,144,-1,8,157,10,0.0
basic,32,14,0,0,0,18,"[0, 18]",2,17,"[1, 2, 3, 4, 7, 8, 9, 13, 15, 17, 19, 20, 22, 23, 25, 26, 28]",179.8958785,4475,4331,18,136,9,1.0
basic,32,14,0,0,0,8,"[0, 18, 8]",3,13,"[1, 2, 4, 7, 13, 15, 17, 19, 20, 23, 25, 26, 28]",166.294408,6141,1666,18,99,9,1.0203858410107731
basic,32,14,0,0,0,1,"[0, 18, 8, 1]",4,10,"[2, 4, 7, 15, 17, 19, 23, 25, 26, 28]",142.6935606,7313,1172,11,42,9,1.0173392374431458
basic,32,14,0,0,0,19,"[0, 18, 8, 1, 19]",5,9,"[2, 4, 7, 15, 17, 23, 25, 26, 28]",127.4620143,8519,1206,11,22,9,1.1668364376922102
basic,32,14,0,0,0,26,"[0, 18, 8, 1, 19, 26]",6,4,"[4, 7, 23, 25]",74.23608081,12442,3923,2,4,9,1.1379310743287543
basic,32,14,0,0,0,23,"[0, 18, 8, 1, 19, 26, 23]",7,3,"[4, 7, 25]",63.41942699,13928,1486,2,1,9,1.25860317400474
basic,32,14,0,0,0,25,"[0, 18, 8, 1, 19, 26, 23, 25]",8,1,[7],34.00854465,15553,1625,1,0,9,1.6250439771619034
basic,32,14,0,0,1,7,"[0, 18, 8, 1, 19, 26, 23, 25, 7]",9,0,[],14.31082904,17103,1550,1,0,9,1.6358514342320594
basic,32,14,0,1,1,7,"[0, 18, 8, 1, 19, 26, 23, 25, 7]",9,0,[],14.31082904,18087,984,1,0,9,1.6358514342320594
basic,33,12,0,0,0,0,[0],1,29,"[1, 2, 3, 4, 5, 6, 7, 8, 9, 10, 11, 12, 13, 14, 15, 16, 17, 18, 19, 20, 21, 22, 23, 24, 25, 26, 27, 28, 29]",300,135,-1,2,32,9,0.0
basic,33,12,0,0,0,6,"[0, 6]",2,28,"[1, 2, 3, 4, 5, 7, 8, 9, 10, 11, 12, 13, 14, 15, 16, 17, 18, 19, 20, 21, 22, 23, 24, 25, 26, 27, 28, 29]",283.5987805,3281,3146,2,18,9,1.0
basic,33,12,0,0,0,16,"[0, 6, 16]",3,12,"[2, 4, 5, 7, 12, 14, 19, 22, 23, 24, 25, 27]",177.65068,6597,3316,6,32,8,1.3488213090441052
basic,33,12,0,0,0,4,"[0, 6, 16, 4]",4,7,"[12, 14, 19, 22, 24, 25, 27]",143.4454173,12498,5901,2,10,8,1.2533594738927718
basic,33,12,0,0,0,12,"[0, 6, 16, 4, 12]",5,5,"[14, 19, 22, 24, 27]",101.2553711,14613,2115,2,3,8,1.2029012769281058
basic,33,12,0,0,0,27,"[0, 6, 16, 4, 12, 27]",6,2,"[14, 24]",76.90377973,15867,1254,2,0,8,1.304299466414056
basic,33,12,0,0,0,14,"[0, 6, 16, 4, 12, 27, 14]",7,1,[24],48.25068217,17741,1874,1,0,8,1.3521237339573329
basic,33,12,0,0,1,24,"[0, 6, 16, 4, 12, 27, 14, 24]",8,0,[],31.04603164,20292,2551,1,0,8,1.507034651566875
basic,33,12,0,1,1,24,"[0, 6, 16, 4, 12, 27, 14, 24]",8,0,[],31.04603164,21009,717,1,0,8,1.507034651566875
basic,34,8,0,0,0,0,[0],1,29,"[1, 2, 3, 4, 5, 6, 7, 8, 9, 10, 11, 12, 13, 14, 15, 16, 17, 18, 19, 20, 21, 22, 23, 24, 25, 26, 27, 28, 29]",300,136,-1,10,149,9,0.0
basic,34,8,0,0,0,5,"[0, 5]",2,28,"[1, 2, 3, 4, 6, 7, 8, 9, 10, 11, 12, 13, 14, 15, 16, 17, 18, 19, 20, 21, 22, 23, 24, 25, 26, 27, 28, 29]",254.5137383,3387,3251,10,100,9,1.0
basic,34,8,0,0,0,14,"[0, 5, 14]",3,20,"[1, 2, 3, 4, 6, 7, 11, 15, 16, 17, 18, 19, 20, 21, 22, 23, 24, 25, 28, 29]",214.5512559,4781,1394,4,36,9,1.0001019035932595
basic,34,8,0,0,0,17,"[0, 5, 14, 17]",4,15,"[1, 4, 6, 7, 11, 15, 16, 18, 19, 20, 22, 23, 24, 25, 28]",177.5377449,8742,3961,4,16,9,1.121197267659591
basic,34,8,0,0,0,11,"[0, 5, 14, 17, 11]",5,11,"[1, 4, 15, 16, 18, 19, 22, 23, 24, 25, 28]",152.3583883,9844,1102,4,8,9,1.1277254166016362
basic,34,8,0,0,0,24,"[0, 5, 14, 17, 11, 24]",6,3,"[15, 16, 28]",115.1428001,11509,1665,2,2,9,1.1227411011978805
basic,34,8,0,0,0,15,"[0, 5, 14, 17, 11, 24, 15]",7,2,"[16, 28]",98.37974552,12732,1223,2,0,9,1.1956385406066814
basic,34,8,0,0,0,16,"[0, 5, 14, 17, 11, 24, 15, 16]",8,1,[28],47.30137436,14948,2216,1,0,9,1.36482239111247
basic,34,8,0,0,1,28,"[0, 5, 14, 17, 11, 24, 15, 16, 28]",9,0,[],24.94069458,16581,1633,1,0,9,1.632953105226947
basic,34,8,0,1,1,28,"[0, 5, 14, 17, 11, 24, 15, 16, 28]",9,0,[],24.94069458,17333,752,1,0,9,1.632953105226947
basic,35,5,0,0,0,0,[0],1,29,"[1, 2, 3, 4, 5, 6, 7, 8, 9, 10, 11, 12, 13, 14, 15, 16, 17, 18, 19, 20, 21, 22, 23, 24, 25, 26, 27, 28, 29]",300,160,-1,5,139,9,0.0
basic,35,5,0,0,0,25,"[0, 25]",2,25,"[1, 2, 3, 4, 5, 6, 8, 9, 10, 11, 12, 13, 14, 15, 16, 17, 18, 19, 21, 22, 23, 24, 26, 27, 28]",237.1987261,4808,4648,1,27,9,1.0
basic,35,5,0,0,0,23,"[0, 25, 23]",3,24,"[1, 2, 3, 4, 5, 6, 8, 9, 10, 11, 12, 13, 14, 15, 16, 17, 18, 19, 21, 22, 24, 26, 27, 28]",218.7596372,6115,1307,1,16,9,1.619632697457157
basic,35,5,0,0,0,24,"[0, 25, 23, 24]",4,19,"[2, 4, 5, 6, 8, 9, 10, 12, 13, 14, 15, 17, 18, 19, 21, 22, 26, 27, 28]",195.6728445,7522,1407,1,14,9,1.4405376720181815
basic,35,5,0,0,0,6,"[0, 25, 23, 24, 6]",5,7,"[4, 5, 8, 14, 17, 18, 19]",95.23380822,10859,3337,5,5,7,1.2261448609580838
basic,35,5,0,0,0,4,"[0, 25, 23, 24, 6, 4]",6,4,"[5, 14, 17, 18]",83.19221364,14383,3524,4,0,7,1.2372664950105712
basic,35,5,0,0,1,18,"[0, 25, 23, 24, 6, 4, 18]",7,0,[],44.77346821,16675,2292,1,0,7,1.2586028319929767
basic,35,5,0,1,1,18,"[0, 25, 23, 24, 6, 4, 18]",7,0,[],44.77346821,18128,1453,1,0,7,1.2586028319929767
basic,36,28,0,0,0,0,[0],1,27,"[1, 2, 3, 4, 5, 6, 7, 8, 9, 10, 11, 12, 13, 14, 15, 16, 17, 18, 19, 20, 22, 23, 25, 26, 27, 28, 29]",300,138,-1,2,96,9,0.0
basic,36,28,0,0,0,3,"[0, 3]",2,26,"[1, 2, 4, 5, 6, 7, 8, 9, 10, 11, 12, 13, 14, 15, 16, 17, 18, 19, 20, 22, 23, 25, 26, 27, 28, 29]",251.0817008,3579,3441,1,64,9,1.0
basic,36,28,0,0,0,14,"[0, 3, 14]",3,13,"[1, 2, 5, 7, 10, 11, 12, 13, 17, 18, 19, 20, 26]",142.7396498,5404,1825,19,59,8,1.0338694802207566
basic,36,28,0,0,0,18,"[0, 3, 14, 18]",4,10,"[1, 2, 5, 7, 11, 12, 13, 17, 19, 26]",117.2445523,7357,1953,18,18,8,1.098527225277385
basic,36,28,0,0,0,13,"[0, 3, 14, 18, 13]",5,7,"[2, 7, 11, 12, 17, 19, 26]",92.83144103,9025,1668,8,6,8,1.0872780601597938
basic,36,28,0,0,0,12,"[0, 3, 14, 18, 13, 12]",6,3,"[2, 7, 19]",75.6267905,10507,1482,3,1,8,1.0890748557820906
basic,36,28,0,0,0,7,"[0, 3, 14, 18, 13, 12, 7]",7,2,"[2, 19]",62.47384406,11726,1219,2,0,8,1.2125627495730145
basic,36,28,0,0,1,19,"[0, 3, 14, 18, 13, 12, 7, 19]",8,0,[],34.74299481,13569,1843,1,0,8,1.4527925513951803
basic,36,28,0,1,1,19,"[0, 3, 14, 18, 13, 12, 7, 19]",8,0,[],34.74299481,14190,621,1,0,8,1.4527925513951803
basic,37,41,0,0,0,0,[0],1,29,"[1, 2, 3, 4, 5, 6, 7, 8, 9, 10, 11, 12, 13, 14, 15, 16, 17, 18, 19, 20, 21, 22, 23, 24, 25, 26, 27, 28, 29]",300,135,-1,1,143,10,0.0
basic,37,41,0,0,0,13,"[0, 13]",2,23,"[1, 2, 3, 5, 6, 7, 9, 10, 11, 12, 14, 15, 17, 18, 19, 20, 21, 22, 24, 25, 26, 27, 28]",258.2747079,4071,3936,1,55,10,1.0
basic,37,41,0,0,0,28,"[0, 13, 28]",3,22,"[1, 2, 3, 5, 6, 7, 9, 10, 11, 12, 14, 15, 17, 18, 19, 20, 21, 22, 24, 25, 26, 27]",223.7928286,6090,2019,1,39,10,1.895724242592676
basic,37,41,0,0,0,5,"[0, 13, 28, 5]",4,19,"[1, 2, 3, 6, 9, 10, 11, 12, 14, 15, 17, 18, 19, 20, 21, 22, 24, 25, 27]",210.1913581,7178,1088,1,34,10,2.861541269398273
basic,37,41,0,0,0,3,"[0, 13, 28, 5, 3]",5,16,"[1, 2, 6, 9, 10, 12, 14, 17, 18, 19, 20, 21, 22, 24, 25, 27]",175.3632086,8206,1028,1,22,10,3.1455488489005883
basic,37,41,0,0,0,21,"[0, 13, 28, 5, 3, 21]",6,14,"[1, 2, 6, 9, 10, 12, 14, 17, 18, 19, 20, 22, 25, 27]",143.2228912,9607,1401,13,11,9,3.207558429289677
basic,37,41,0,0,0,9,"[0, 13, 28, 5, 3, 21, 9]",7,6,"[1, 2, 10, 12, 14, 17]",93.85691102,11197,1590,7,4,9,2.5050148501792275
basic,37,41,0,0,0,2,"[0, 13, 28, 5, 3, 21, 9, 2]",8,5,"[1, 10, 12, 14, 17]",81.77386505,12945,1748,5,0,9,2.4119643847713177
basic,37,41,0,0,1,17,"[0, 13, 28, 5, 3, 21, 9, 2, 17]",9,0,[],49.21622385,15197,2252,1,0,9,3.9563478735796007
basic,37,41,0,1,1,17,"[0, 13, 28, 5, 3, 21, 9, 2, 17]",9,0,[],49.21622385,18576,3379,1,0,9,3.9563478735796007
basic,38,13,0,0,0,0,[0],1,29,"[1, 2, 3, 4, 5, 6, 7, 8, 9, 10, 11, 12, 13, 14, 15, 16, 17, 18, 19, 20, 21, 22, 23, 24, 25, 26, 27, 28, 29]",300,133,-1,60,2676,11,0.0
basic,38,13,0,0,0,24,"[0, 24]",2,28,"[1, 2, 3, 4, 5, 6, 7, 8, 9, 10, 11, 12, 13, 14, 15, 16, 17, 18, 19, 20, 21, 22, 23, 25, 26, 27, 28, 29]",288.8196601,2694,2561,16,1444,11,1.0
basic,38,13,0,0,0,28,"[0, 24, 28]",3,23,"[1, 2, 3, 4, 6, 7, 8, 9, 10, 11, 12, 13, 15, 16, 17, 19, 20, 21, 22, 23, 26, 27, 29]",222.5324064,4060,1366,8,243,11,1.0513810491680837
basic,38,13,0,0,0,2,"[0, 24, 28, 2]",4,19,"[1, 3, 4, 6, 7, 9, 11, 12, 13, 15, 16, 17, 19, 20, 21, 23, 26, 27, 29]",184.889346,5692,1632,7,110,11,1.050374132001543
basic,38,13,0,0,0,29,"[0, 24, 28, 2, 29]",5,18,"[1, 3, 4, 6, 7, 9, 11, 12, 13, 15, 16, 17, 19, 20, 21, 23, 26, 27]",173.1846461,7438,1746,7,85,11,1.1393409619120594
basic,38,13,0,0,0,7,"[0, 24, 28, 2, 29, 7]",6,17,"[1, 3, 4, 6, 9, 11, 12, 13, 15, 16, 17, 19, 20, 21, 23, 26, 27]",157.9203086,9305,1867,5,45,11,1.349777315111579
basic,38,13,0,0,0,26,"[0, 24, 28, 2, 29, 7, 26]",7,16,"[1, 3, 4, 6, 9, 11, 12, 13, 15, 16, 17, 19, 20, 21, 23, 27]",147.480002,10554,1249,5,25,11,1.5942082773824946
basic,38,13,0,0,0,6,"[0, 24, 28, 2, 29, 7, 26, 6]",8,12,"[1, 3, 4, 11, 13, 15, 16, 17, 19, 20, 23, 27]",127.3802508,14431,3877,4,12,11,1.5898347940840756
basic,38,13,0,0,0,11,"[0, 24, 28, 2, 29, 7, 26, 6, 11]",9,6,"[1, 13, 15, 16, 17, 23]",108.2752776,16187,1756,3,4,11,1.5029953945561012
basic,38,13,0,0,0,17,"[0, 24, 28, 2, 29, 7, 26, 6, 11, 17]",10,1,[13],36.68617231,18596,2409,1,0,11,1.324993060397683
basic,38,13,0,0,1,13,"[0, 24, 28, 2, 29, 7, 26, 6, 11, 17, 13]",11,0,[],3.309533775,21777,3181,1,0,11,1.6349870606446535
basic,38,13,0,1,1,13,"[0, 24, 28, 2, 29, 7, 26, 6, 11, 17, 13]",11,0,[],3.309533775,23210,1433,1,0,11,1.6349870606446535
basic,39,36,0,0,0,0,[0],1,24,"[2, 4, 5, 6, 7, 8, 9, 10, 12, 13, 14, 15, 16, 17, 18, 19, 20, 22, 23, 25, 26, 27, 28, 29]",300,152,-1,2,200,10,0.0
basic,39,36,0,0,0,18,"[0, 18]",2,21,"[2, 4, 5, 6, 7, 8, 9, 10, 12, 13, 14, 16, 17, 19, 22, 23, 25, 26, 27, 28, 29]",279.6039219,3470,3318,2,110,10,1.0
basic,39,36,0,0,0,9,"[0, 18, 9]",3,14,"[2, 4, 8, 10, 12, 13, 16, 17, 19, 23, 25, 27, 28, 29]",200.2944017,7653,4183,15,121,9,1.443644811653489
basic,39,36,0,0,0,17,"[0, 18, 9, 17]",4,9,"[2, 10, 12, 13, 16, 19, 23, 25, 27]",174.0455922,9678,2025,2,35,9,1.3326457031218428
basic,39,36,0,0,0,19,"[0, 18, 9, 17, 19]",5,7,"[2, 10, 12, 13, 16, 23, 25]",146.1529409,11315,1637,10,13,8,1.9959948785621682
basic,39,36,0,0,0,13,"[0, 18, 9, 17, 19, 13]",6,5,"[2, 10, 12, 16, 25]",102.7363542,13421,2106,3,3,8,2.011219723688856
basic,39,36,0,0,0,2,"[0, 18, 9, 17, 19, 13, 2]",7,1,[25],64.40881837,15191,1770,1,0,8,2.0861851544230725
basic,39,36,0,0,1,25,"[0, 18, 9, 17, 19, 13, 2, 25]",8,0,[],39.40881837,17703,2512,1,0,8,2.2761008386531114
basic,39,36,0,1,1,25,"[0, 18, 9, 17, 19, 13, 2, 25]",8,0,[],39.40881837,18745,1042,1,0,8,2.2761008386531114
basic,40,39,0,0,0,0,[0],1,28,"[1, 2, 3, 4, 5, 6, 7, 9, 10, 11, 12, 13, 14, 15, 16, 17, 18, 19, 20, 21, 22, 23, 24, 25, 26, 27, 28, 29]",300,140,-1,1,30,10,0.0
basic,40,39,0,0,0,29,"[0, 29]",2,26,"[1, 2, 3, 4, 5, 6, 7, 9, 10, 12, 13, 14, 15, 16, 17, 18, 19, 20, 21, 22, 23, 24, 25, 26, 27, 28]",243.0614366,3209,3069,8,104,9,1.0
basic,40,39,0,0,0,10,"[0, 29, 10]",3,19,"[1, 2, 4, 5, 7, 9, 12, 13, 14, 15, 16, 17, 18, 19, 22, 23, 24, 26, 28]",178.4239862,8370,5161,3,48,9,1.0231293692376968
basic,40,39,0,0,0,7,"[0, 29, 10, 7]",4,14,"[1, 2, 4, 5, 9, 12, 13, 15, 16, 18, 19, 22, 24, 26]",145.0024362,9404,1034,2,20,9,1.0186411966151707
basic,40,39,0,0,0,26,"[0, 29, 10, 7, 26]",5,9,"[1, 2, 5, 12, 13, 16, 18, 19, 22]",126.3208945,12448,3044,1,9,9,1.0752526811750318
basic,40,39,0,0,0,22,"[0, 29, 10, 7, 26, 22]",6,6,"[1, 5, 12, 16, 18, 19]",108.6008494,15892,3444,1,3,9,1.2360944063790367
basic,40,39,0,0,0,16,"[0, 29, 10, 7, 26, 22, 16]",7,2,"[18, 19]",73.6008494,17441,1549,1,1,9,1.1926155792040818
basic,40,39,0,0,0,19,"[0, 29, 10, 7, 26, 22, 16, 19]",8,1,[18],56.1366002,19014,1573,1,0,9,1.2089345217410772
basic,40,39,0,0,1,18,"[0, 29, 10, 7, 26, 22, 16, 19, 18]",9,0,[],12.96253391,20874,1860,1,0,9,1.2243548998729528
basic,40,39,0,1,1,18,"[0, 29, 10, 7, 26, 22, 16, 19, 18]",9,0,[],12.96253391,21707,833,1,0,9,1.2243548998729528
basic,41,9,0,0,0,0,[0],1,27,"[1, 3, 4, 5, 6, 7, 8, 9, 10, 11, 13, 14, 15, 16, 17, 18, 19, 20, 21, 22, 23, 24, 25, 26, 27, 28, 29]",300,132,-1,2,182,10,0.0
basic,41,9,0,0,0,8,"[0, 8]",2,25,"[1, 3, 4, 5, 6, 7, 9, 10, 11, 13, 14, 15, 16, 17, 18, 19, 20, 21, 22, 23, 24, 25, 26, 27, 28]",236.2191251,3077,2945,2,102,9,1.0
basic,41,9,0,0,0,28,"[0, 8, 28]",3,23,"[1, 3, 4, 5, 6, 7, 9, 10, 11, 13, 15, 16, 17, 18, 19, 20, 21, 22, 23, 24, 25, 26, 27]",225.4024713,4632,1555,2,52,9,1.0043219354187498
basic,41,9,0,0,0,23,"[0, 8, 28, 23]",4,21,"[1, 3, 4, 5, 7, 9, 10, 11, 13, 15, 16, 17, 18, 19, 20, 21, 22, 24, 25, 26, 27]",200.3824793,7643,3011,19,104,8,1.6731219967216804
basic,41,9,0,0,0,9,"[0, 8, 28, 23, 9]",5,19,"[1, 3, 4, 5, 7, 10, 11, 13, 15, 16, 18, 19, 20, 21, 22, 24, 25, 26, 27]",178.0217995,8961,1318,12,35,8,1.6380661913087589
basic,41,9,0,0,0,26,"[0, 8, 28, 23, 9, 26]",6,9,"[3, 5, 10, 15, 16, 18, 19, 20, 21]",121.3737634,11454,2493,3,6,8,1.529011463409394
basic,41,9,0,0,0,21,"[0, 8, 28, 23, 9, 26, 21]",7,1,[20],67.46643547,13442,1988,1,0,8,1.9617672806835904
basic,41,9,0,0,1,20,"[0, 8, 28, 23, 9, 26, 21, 20]",8,0,[],55.3833895,14813,1371,1,0,8,1.9314512996641564
basic,41,9,0,1,1,20,"[0, 8, 28, 23, 9, 26, 21, 20]",8,0,[],55.3833895,15592,779,1,0,8,1.9314512996641564
basic,42,21,0,0,0,0,[0],1,29,"[1, 2, 3, 4, 5, 6, 7, 8, 9, 10, 11, 12, 13, 14, 15, 16, 17, 18, 19, 20, 21, 22, 23, 24, 25, 26, 27, 28, 29]",300,128,-1,84,830,9,0.0
basic,42,21,0,0,0,25,"[0, 25]",2,26,"[1, 2, 3, 4, 5, 6, 7, 8, 9, 10, 11, 12, 13, 14, 15, 16, 17, 18, 20, 21, 22, 23, 24, 26, 27, 29]",240.1836143,5003,4875,30,238,9,1.0
basic,42,21,0,0,0,21,"[0, 25, 21]",3,18,"[1, 3, 4, 6, 8, 9, 11, 12, 14, 15, 16, 17, 18, 20, 22, 23, 24, 29]",190.8480288,7625,2622,15,84,9,1.2142997420204755
basic,42,21,0,0,0,14,"[0, 25, 21, 14]",4,14,"[1, 4, 6, 8, 9, 15, 16, 17, 18, 20, 22, 23, 24, 29]",165.2355318,9007,1382,5,37,9,1.1765448423019491
basic,42,21,0,0,0,4,"[0, 25, 21, 14, 4]",5,10,"[8, 9, 15, 16, 17, 18, 22, 23, 24, 29]",151.0933962,9958,951,3,20,9,1.1641858298437302
basic,42,21,0,0,0,16,"[0, 25, 21, 14, 4, 16]",6,5,"[8, 15, 17, 23, 24]",106.4951899,11776,1818,1,5,9,1.1855407976594248
basic,42,21,0,0,0,8,"[0, 25, 21, 14, 4, 16, 8]",7,3,"[15, 23, 24]",87.8941147,14737,2961,1,2,9,1.1707127593616282
basic,42,21,0,0,0,15,"[0, 25, 21, 14, 4, 16, 8, 15]",8,1,[24],62.8941147,15918,1181,1,0,9,1.4084531679038648
basic,42,21,0,0,1,24,"[0, 25, 21, 14, 4, 16, 8, 15, 24]",9,0,[],17.18853517,18024,2106,1,0,9,1.4220252128555146
basic,42,21,0,1,1,24,"[0, 25, 21, 14, 4, 16, 8, 15, 24]",9,0,[],17.18853517,18958,934,1,0,9,1.4220252128555146
basic,43,38,0,0,0,0,[0],1,29,"[1, 2, 3, 4, 5, 6, 7, 8, 9, 10, 11, 12, 13, 14, 15, 16, 17, 18, 19, 20, 21, 22, 23, 24, 25, 26, 27, 28, 29]",300,156,-1,33,506,9,0.0
basic,43,38,0,0,0,19,"[0, 19]",2,23,"[3, 4, 5, 6, 7, 8, 9, 11, 13, 14, 15, 16, 17, 18, 20, 22, 23, 24, 25, 26, 27, 28, 29]",219.5015528,5471,5315,6,61,9,1.0
basic,43,38,0,0,0,17,"[0, 19, 17]",3,21,"[3, 4, 5, 6, 7, 9, 11, 13, 14, 15, 16, 18, 20, 22, 23, 24, 25, 26, 27, 28, 29]",198.1239945,7602,2131,6,53,9,1.571793785769489
basic,43,38,0,0,0,20,"[0, 19, 17, 20]",4,17,"[3, 4, 5, 6, 7, 11, 13, 14, 15, 16, 18, 22, 24, 25, 26, 27, 28]",174.3542658,10945,3343,6,44,9,2.333182710277297
basic,43,38,0,0,0,4,"[0, 19, 17, 20, 4]",5,10,"[5, 11, 13, 14, 15, 16, 24, 26, 27, 28]",140.4131403,14501,3556,5,22,9,2.276099229646013
basic,43,38,0,0,0,15,"[0, 19, 17, 20, 4, 15]",6,8,"[5, 11, 13, 14, 16, 24, 26, 28]",114.4131403,16607,2106,5,6,9,2.5292671156176403
basic,43,38,0,0,0,11,"[0, 19, 17, 20, 4, 15, 11]",7,2,"[16, 28]",78.01259089,19723,3116,2,0,9,2.778100109749787
basic,43,38,0,0,0,28,"[0, 19, 17, 20, 4, 15, 11, 28]",8,1,[16],50.99407872,21378,1655,1,0,9,2.3316428595723258
basic,43,38,0,0,1,16,"[0, 19, 17, 20, 4, 15, 11, 28, 16]",9,0,[],21.99407872,22820,1442,1,0,9,2.5408012360364265
basic,43,38,0,1,1,16,"[0, 19, 17, 20, 4, 15, 11, 28, 16]",9,0,[],21.99407872,23642,822,1,0,9,2.5408012360364265
basic,44,25,0,0,0,0,[0],1,28,"[1, 2, 3, 4, 5, 7, 8, 9, 10, 11, 12, 13, 14, 15, 16, 17, 18, 19, 20, 21, 22, 23, 24, 25, 26, 27, 28, 29]",300,132,-1,5,94,10,0.0
basic,44,25,0,0,0,23,"[0, 23]",2,23,"[1, 2, 3, 5, 7, 8, 9, 11, 12, 13, 14, 16, 17, 19, 20, 21, 22, 24, 25, 26, 27, 28, 29]",259.7756293,2277,2145,3,33,10,1.0
basic,44,25,0,0,0,19,"[0, 23, 19]",3,21,"[1, 2, 3, 5, 7, 8, 9, 11, 12, 13, 14, 16, 17, 20, 21, 22, 24, 25, 27, 28, 29]",223.9287326,3897,1620,3,24,10,1.583101227007039
basic,44,25,0,0,0,29,"[0, 23, 19, 29]",4,19,"[1, 2, 3, 5, 7, 8, 9, 11, 12, 13, 14, 16, 17, 20, 21, 22, 24, 25, 28]",207.649912,6477,2580,3,17,10,1.474631541426484
basic,44,25,0,0,0,22,"[0, 23, 19, 29, 22]",5,18,"[1, 2, 3, 5, 7, 8, 9, 11, 12, 13, 14, 16, 17, 20, 21, 24, 25, 28]",191.5253965,9107,2630,3,14,10,1.4020377754906637
basic,44,25,0,0,0,7,"[0, 23, 19, 29, 22, 7]",6,7,"[3, 8, 9, 11, 13, 24, 28]",115.8814939,10758,1651,3,11,10,1.5709678649326715
basic,44,25,0,0,0,24,"[0, 23, 19, 29, 22, 7, 24]",7,5,"[3, 8, 9, 13, 28]",91.12265712,11996,1238,3,7,10,1.486191600033379
basic,44,25,0,0,0,9,"[0, 23, 19, 29, 22, 7, 24, 9]",8,4,"[3, 8, 13, 28]",73.09490075,13221,1225,3,3,10,1.453504870342882
basic,44,25,0,0,0,3,"[0, 23, 19, 29, 22, 7, 24, 9, 3]",9,3,"[8, 13, 28]",42.82940885,15993,2772,3,0,10,1.388955167525479
basic,44,25,0,0,1,28,"[0, 23, 19, 29, 22, 7, 24, 9, 3, 28]",10,0,[],11.52445716,17689,1696,1,0,10,1.3331084120212044
basic,44,25,0,1,1,28,"[0, 23, 19, 29, 22, 7, 24, 9, 3, 28]",10,0,[],11.52445716,18258,569,1,0,10,1.3331084120212044
basic,45,31,0,0,0,0,[0],1,27,"[1, 3, 4, 5, 6, 7, 8, 10, 11, 12, 13, 14, 15, 16, 17, 18, 19, 20, 21, 22, 23, 24, 25, 26, 27, 28, 29]",300,139,-1,2,87,10,0.0
basic,45,31,0,0,0,14,"[0, 14]",2,25,"[1, 3, 5, 6, 7, 8, 10, 11, 12, 13, 15, 16, 17, 18, 19, 20, 21, 22, 23, 24, 25, 26, 27, 28, 29]",263.861378,4553,4414,2,59,10,1.0
basic,45,31,0,0,0,27,"[0, 14, 27]",3,22,"[1, 3, 5, 6, 7, 8, 10, 11, 12, 13, 15, 16, 17, 18, 19, 20, 21, 22, 24, 25, 28, 29]",235.6833724,6454,1901,1,39,10,1.5881859159302467
basic,45,31,0,0,0,8,"[0, 14, 27, 8]",4,20,"[1, 3, 5, 6, 7, 10, 11, 12, 13, 16, 17, 18, 19, 20, 21, 22, 24, 25, 28, 29]",224.6380114,8370,1916,1,36,10,2.1665048452331277
basic,45,31,0,0,0,18,"[0, 14, 27, 8, 18]",5,15,"[1, 5, 6, 7, 11, 12, 13, 16, 17, 19, 20, 22, 25, 28, 29]",188.7911147,10630,2260,1,26,10,1.7273375741920205
basic,45,31,0,0,0,11,"[0, 14, 27, 8, 18, 11]",6,11,"[1, 5, 7, 12, 16, 17, 19, 20, 22, 25, 28]",153.9055876,14431,3801,13,17,9,2.386348208737804
basic,45,31,0,0,0,5,"[0, 14, 27, 8, 18, 11, 5]",7,5,"[16, 17, 20, 25, 28]",110.2249283,15733,1302,3,3,9,2.163249612867222
basic,45,31,0,0,0,28,"[0, 14, 27, 8, 18, 11, 5, 28]",8,2,"[16, 17]",90.00117988,17273,1540,2,0,9,1.9564635733184719
basic,45,31,0,0,1,16,"[0, 14, 27, 8, 18, 11, 5, 28, 16]",9,0,[],56.38570725,20091,2818,1,0,9,1.824071502589619
basic,45,31,0,1,1,16,"[0, 14, 27, 8, 18, 11, 5, 28, 16]",9,0,[],56.38570725,20641,550,1,0,9,1.824071502589619
basic,46,6,0,0,0,0,[0],1,29,"[1, 2, 3, 4, 5, 6, 7, 8, 9, 10, 11, 12, 13, 14, 15, 16, 17, 18, 19, 20, 21, 22, 23, 24, 25, 26, 27, 28, 29]",300,411,-1,180,4304,10,0.0
basic,46,6,0,0,0,3,"[0, 3]",2,28,"[1, 2, 4, 5, 6, 7, 8, 9, 10, 11, 12, 13, 14, 15, 16, 17, 18, 19, 20, 21, 22, 23, 24, 25, 26, 27, 28, 29]",266.4738908,2676,2265,90,1607,10,1.0
basic,46,6,0,0,0,10,"[0, 3, 10]",3,27,"[1, 2, 4, 5, 6, 7, 8, 9, 11, 12, 13, 14, 15, 16, 17, 18, 19, 20, 21, 22, 23, 24, 25, 26, 27, 28, 29]",215.2293789,5436,2760,8,136,10,1.0050517746249001
basic,46,6,0,0,0,24,"[0, 3, 10, 24]",4,23,"[1, 2, 4, 5, 6, 7, 8, 11, 13, 14, 16, 17, 18, 19, 20, 21, 22, 23, 25, 26, 27, 28, 29]",201.812971,6708,1272,8,85,10,1.0091851911500884
basic,46,6,0,0,0,17,"[0, 3, 10, 24, 17]",5,19,"[1, 2, 4, 5, 6, 7, 8, 11, 13, 14, 16, 18, 20, 21, 22, 23, 26, 27, 29]",172.5384087,8217,1509,8,53,10,1.8060138032707682
basic,46,6,0,0,0,18,"[0, 3, 10, 24, 17, 18]",6,15,"[1, 2, 6, 7, 8, 13, 14, 16, 20, 21, 22, 23, 26, 27, 29]",158.6100204,11316,3099,7,36,10,2.3216150751946008
basic,46,6,0,0,0,16,"[0, 3, 10, 24, 17, 18, 16]",7,13,"[1, 2, 6, 7, 13, 14, 20, 21, 22, 23, 26, 27, 29]",135.2647853,16751,5435,7,21,10,2.2822729587843544
basic,46,6,0,0,0,29,"[0, 3, 10, 24, 17, 18, 16, 29]",8,7,"[6, 14, 20, 21, 22, 23, 27]",98.57691268,18847,2096,6,4,10,1.8911507070056388
basic,46,6,0,0,0,23,"[0, 3, 10, 24, 17, 18, 16, 29, 23]",9,2,"[6, 22]",51.05849519,20493,1646,2,0,10,1.8549852217940308
basic,46,6,0,0,1,6,"[0, 3, 10, 24, 17, 18, 16, 29, 23, 6]",10,0,[],15.70315613,22028,1535,1,0,10,1.7651720921259988
basic,46,6,0,1,1,6,"[0, 3, 10, 24, 17, 18, 16, 29, 23, 6]",10,0,[],15.70315613,23610,1582,1,0,10,1.7651720921259988
basic,47,20,0,0,0,0,[0],1,21,"[1, 2, 3, 4, 5, 6, 7, 8, 9, 12, 17, 18, 20, 21, 22, 23, 25, 26, 27, 28, 29]",300,152,-1,1,9,9,0.0
basic,47,20,0,0,0,12,"[0, 12]",2,20,"[1, 2, 3, 4, 5, 6, 7, 8, 9, 17, 18, 20, 21, 22, 23, 25, 26, 27, 28, 29]",271.5570747,3955,3803,1,8,9,1.0
basic,47,20,0,0,0,1,"[0, 12, 1]",3,12,"[3, 4, 5, 6, 8, 9, 20, 21, 23, 27, 28, 29]",189.5692707,5539,1584,1,6,9,1.0757997779162911
basic,47,20,0,0,0,5,"[0, 12, 1, 5]",4,10,"[4, 6, 8, 9, 20, 21, 23, 27, 28, 29]",152.8950291,8805,3266,1,5,9,1.1708231454516806
basic,47,20,0,0,0,21,"[0, 12, 1, 5, 21]",5,8,"[4, 6, 8, 9, 20, 23, 27, 28]",107.8950291,12066,3261,1,4,9,1.126197336199212
basic,47,20,0,0,0,8,"[0, 12, 1, 5, 21, 8]",6,5,"[6, 9, 23, 27, 28]",90.43077988,13216,1150,1,3,9,1.140007470699913
basic,47,20,0,0,0,23,"[0, 12, 1, 5, 21, 8, 23]",7,2,"[6, 9]",45.74297394,14917,1701,1,1,9,1.1162257896627588
basic,47,20,0,0,0,9,"[0, 12, 1, 5, 21, 8, 23, 9]",8,1,[6],26.53360123,16904,1987,1,0,9,1.1086880559449597
basic,47,20,0,0,1,6,"[0, 12, 1, 5, 21, 8, 23, 9, 6]",9,0,[],3.511872362,18765,1861,1,0,9,1.1186240265999328
basic,47,20,0,1,1,6,"[0, 12, 1, 5, 21, 8, 23, 9, 6]",9,0,[],3.511872362,19605,840,1,0,9,1.1186240265999328
basic,48,23,0,0,0,0,[0],1,28,"[1, 2, 3, 4, 5, 6, 7, 8, 9, 10, 11, 12, 13, 14, 15, 16, 17, 18, 19, 20, 21, 22, 23, 25, 26, 27, 28, 29]",300,142,-1,76,2626,10,0.0
basic,48,23,0,0,0,22,"[0, 22]",2,24,"[1, 2, 3, 5, 6, 7, 8, 9, 10, 11, 12, 13, 14, 15, 17, 18, 19, 20, 21, 23, 25, 26, 27, 29]",210.5013967,4715,4573,15,1362,10,1.0
basic,48,23,0,0,0,13,"[0, 22, 13]",3,14,"[1, 2, 5, 6, 7, 8, 9, 10, 12, 14, 18, 21, 27, 29]",168.3113504,6055,1340,14,522,10,1.1898173563652046
basic,48,23,0,0,0,12,"[0, 22, 13, 12]",4,11,"[1, 2, 6, 7, 9, 10, 14, 18, 21, 27, 29]",156.2283045,9892,3837,12,166,10,1.1727968780218219
basic,48,23,0,0,0,9,"[0, 22, 13, 12, 9]",5,10,"[1, 2, 6, 7, 10, 14, 18, 21, 27, 29]",141.9104834,11178,1286,5,49,10,1.2100380646101494
basic,48,23,0,0,0,14,"[0, 22, 13, 12, 9, 14]",6,8,"[1, 2, 6, 7, 10, 18, 27, 29]",131.4701769,12854,1676,2,19,10,1.1961799245073135
basic,48,23,0,0,0,2,"[0, 22, 13, 12, 9, 14, 2]",7,6,"[6, 7, 10, 18, 27, 29]",116.6041081,14794,1940,1,8,10,1.343965446549325
basic,48,23,0,0,0,6,"[0, 22, 13, 12, 9, 14, 2, 6]",8,3,"[18, 27, 29]",98.16501923,16067,1273,3,0,9,1.3433890277057379
basic,48,23,0,0,1,27,"[0, 22, 13, 12, 9, 14, 2, 6, 27]",9,0,[],69.86307584,17736,1669,1,0,9,1.607346000085698
basic,48,23,0,1,1,27,"[0, 22, 13, 12, 9, 14, 2, 6, 27]",9,0,[],69.86307584,19608,1872,1,0,9,1.607346000085698
basic,49,29,0,0,0,0,[0],1,29,"[1, 2, 3, 4, 5, 6, 7, 8, 9, 10, 11, 12, 13, 14, 15, 16, 17, 18, 19, 20, 21, 22, 23, 24, 25, 26, 27, 28, 29]",300,155,-1,1,78,9,0.0
basic,49,29,0,0,0,14,"[0, 14]",2,22,"[1, 3, 4, 5, 6, 7, 9, 10, 11, 12, 13, 15, 16, 17, 21, 22, 23, 25, 26, 27, 28, 29]",209.490332,3682,3527,21,110,8,1.0
basic,49,29,0,0,0,13,"[0, 14, 13]",3,18,"[1, 4, 5, 6, 7, 9, 10, 12, 15, 16, 17, 21, 22, 25, 26, 27, 28, 29]",191.4625756,5231,1549,20,75,8,1.0027006502223275
basic,49,29,0,0,0,5,"[0, 14, 13, 5]",4,15,"[1, 4, 6, 7, 9, 12, 15, 17, 21, 22, 25, 26, 27, 28, 29]",165.7526554,7084,1853,19,49,8,1.0803937325657265
basic,49,29,0,0,0,22,"[0, 14, 13, 5, 22]",5,9,"[4, 6, 7, 9, 12, 26, 27, 28, 29]",111.4111427,8627,1543,7,11,8,1.6123417790752979
basic,49,29,0,0,0,12,"[0, 14, 13, 5, 22, 12]",6,4,"[4, 7, 9, 27]",73.46381077,10149,1522,3,2,8,1.4673990517096682
basic,49,29,0,0,0,7,"[0, 14, 13, 5, 22, 12, 7]",7,2,"[4, 9]",59.86234026,11165,1016,2,0,8,1.4602419147831445
basic,49,29,0,0,1,9,"[0, 14, 13, 5, 22, 12, 7, 9]",8,0,[],30.79345655,13589,2424,1,0,8,1.4259709280459159
basic,49,29,0,1,1,9,"[0, 14, 13, 5, 22, 12, 7, 9]",8,0,[],30.79345655,14805,1216,1,0,8,1.4259709280459159
basic,50,2,0,0,0,0,[0],1,23,"[1, 2, 4, 5, 6, 7, 8, 9, 12, 13, 15, 16, 17, 18, 19, 20, 22, 23, 25, 26, 27, 28, 29]",300,140,-1,70,620,10,0.0
basic,50,2,0,0,0,19,"[0, 19]",2,22,"[1, 2, 4, 5, 6, 7, 8, 9, 12, 13, 15, 16, 17, 18, 20, 22, 23, 25, 26, 27, 28, 29]",210.306076,3559,3419,67,431,10,1.0
basic,50,2,0,0,0,12,"[0, 19, 12]",3,17,"[1, 4, 5, 6, 7, 13, 15, 16, 17, 18, 20, 22, 25, 26, 27, 28, 29]",174.2921898,4754,1195,66,298,10,1.1107635036313153
basic,50,2,0,0,0,5,"[0, 19, 12, 5]",4,11,"[1, 6, 7, 13, 15, 16, 18, 22, 25, 26, 29]",144.7625437,7703,2949,38,136,10,1.0968174771581647
basic,50,2,0,0,0,22,"[0, 19, 12, 5, 22]",5,8,"[1, 6, 7, 13, 15, 18, 26, 29]",131.9562952,8904,1201,20,63,10,1.0889910507461968
basic,50,2,0,0,0,13,"[0, 19, 12, 5, 22, 13]",6,7,"[1, 6, 7, 15, 18, 26, 29]",117.0902265,10636,1732,19,20,10,1.236526217328057
basic,50,2,0,0,0,18,"[0, 19, 12, 5, 22, 13, 18]",7,4,"[7, 15, 26, 29]",81.91921567,13426,2790,10,3,10,1.2128708213409936
basic,50,2,0,0,0,7,"[0, 19, 12, 5, 22, 13, 18, 7]",8,3,"[15, 26, 29]",71.62358553,15421,1995,5,0,10,1.2019811287894737
basic,50,2,0,0,0,15,"[0, 19, 12, 5, 22, 13, 18, 7, 15]",9,2,"[26, 29]",56.85876247,16979,1558,2,0,10,1.2907869828541363
basic,50,2,0,0,1,26,"[0, 19, 12, 5, 22, 13, 18, 7, 15, 26]",10,0,[],32.6513256,18478,1499,1,0,10,1.2648554428941847
basic,50,2,0,1,1,26,"[0, 19, 12, 5, 22, 13, 18, 7, 15, 26]",10,0,[],32.6513256,19666,1188,1,0,10,1.2648554428941847
basic,51,10,0,0,0,0,[0],1,29,"[1, 2, 3, 4, 5, 6, 7, 8, 9, 10, 11, 12, 13, 14, 15, 16, 17, 18, 19, 20, 21, 22, 23, 24, 25, 26, 27, 28, 29]",300,133,-1,1,100,9,0.0
basic,51,10,0,0,0,13,"[0, 13]",2,25,"[1, 2, 3, 4, 6, 7, 8, 9, 10, 11, 12, 14, 17, 18, 19, 20, 21, 22, 23, 24, 25, 26, 27, 28, 29]",249.4628849,3643,3510,1,79,9,1.0
basic,51,10,0,0,0,11,"[0, 13, 11]",3,20,"[1, 2, 3, 6, 7, 8, 9, 10, 12, 14, 18, 19, 20, 21, 22, 24, 26, 27, 28, 29]",206.4512586,4916,1273,1,54,9,1.0313137484914219
basic,51,10,0,0,0,19,"[0, 13, 11, 19]",4,11,"[2, 6, 8, 9, 10, 14, 18, 20, 24, 26, 27]",170.0919407,7396,2480,1,22,9,1.0879446220132545
basic,51,10,0,0,0,2,"[0, 13, 11, 19, 2]",5,4,"[14, 20, 26, 27]",126.1829439,9409,2013,1,4,9,1.06474052351343
basic,51,10,0,0,0,14,"[0, 13, 11, 19, 2, 14]",6,3,"[20, 26, 27]",114.0174188,10611,1202,1,3,9,1.1628909195912238
basic,51,10,0,0,0,26,"[0, 13, 11, 19, 2, 14, 26]",7,2,"[20, 27]",79.34754716,12341,1730,1,1,9,1.6660727647633602
basic,51,10,0,0,0,20,"[0, 13, 11, 19, 2, 14, 26, 20]",8,1,[27],47.56704999,14844,2503,1,0,9,2.085581809637999
basic,51,10,0,0,1,27,"[0, 13, 11, 19, 2, 14, 26, 20, 27]",9,0,[],2.312215998,16231,1387,1,0,9,1.9116357409137932
basic,51,10,0,1,1,27,"[0, 13, 11, 19, 2, 14, 26, 20, 27]",9,0,[],2.312215998,16867,636,1,0,9,1.9116357409137932
basic,52,4,0,0,0,0,[0],1,26,"[3, 4, 5, 6, 7, 8, 10, 11, 12, 13, 14, 15, 16, 17, 18, 19, 20, 21, 22, 23, 24, 25, 26, 27, 28, 29]",300,142,-1,4,489,10,0.0
basic,52,4,0,0,0,28,"[0, 28]",2,21,"[3, 4, 5, 6, 10, 11, 12, 13, 14, 15, 16, 17, 19, 20, 21, 22, 23, 24, 25, 26, 27]",225.9392142,4128,3986,2,216,10,1.0
basic,52,4,0,0,0,14,"[0, 28, 14]",3,13,"[3, 4, 5, 6, 11, 13, 16, 17, 20, 21, 22, 24, 25]",159.6972335,5647,1519,1,26,10,1.0273973946789214
basic,52,4,0,0,0,25,"[0, 28, 14, 25]",4,12,"[3, 4, 5, 6, 11, 13, 16, 17, 20, 21, 22, 24]",143.572718,6793,1146,1,25,10,1.233547772313525
basic,52,4,0,0,0,11,"[0, 28, 14, 25, 11]",5,10,"[3, 4, 5, 6, 13, 16, 17, 20, 21, 22]",124.7844238,8331,1538,1,15,10,1.425978575879479
basic,52,4,0,0,0,16,"[0, 28, 14, 25, 11, 16]",6,9,"[3, 4, 5, 6, 13, 17, 20, 21, 22]",109.7844238,9538,1207,1,12,10,1.3799325158051412
basic,52,4,0,0,0,17,"[0, 28, 14, 25, 11, 16, 17]",7,5,"[3, 5, 20, 21, 22]",83.70761416,13613,4075,1,5,10,1.3195184878861832
basic,52,4,0,0,0,21,"[0, 28, 14, 25, 11, 16, 17, 21]",8,1,[22],34.45317274,16310,2697,1,0,9,1.7966566629354186
basic,52,4,0,0,1,22,"[0, 28, 14, 25, 11, 16, 17, 21, 22]",9,0,[],23.40781172,19178,2868,1,0,9,1.7433011729935863
basic,52,4,0,1,1,22,"[0, 28, 14, 25, 11, 16, 17, 21, 22]",9,0,[],23.40781172,20984,1806,1,0,9,1.7433011729935863
basic,53,35,0,0,0,0,[0],1,29,"[1, 2, 3, 4, 5, 6, 7, 8, 9, 10, 11, 12, 13, 14, 15, 16, 17, 18, 19, 20, 21, 22, 23, 24, 25, 26, 27, 28, 29]",300,128,-1,5,236,11,0.0
basic,53,35,0,0,0,24,"[0, 24]",2,27,"[1, 2, 4, 5, 6, 7, 8, 9, 10, 11, 12, 13, 14, 15, 16, 17, 18, 19, 20, 21, 22, 23, 25, 26, 27, 28, 29]",268.9838752,3985,3857,49,512,10,1.0
basic,53,35,0,0,0,17,"[0, 24, 17]",3,26,"[1, 2, 4, 5, 6, 7, 8, 9, 10, 11, 12, 13, 14, 15, 16, 18, 19, 20, 21, 22, 23, 25, 26, 27, 28, 29]",257.2791753,5030,1045,33,238,10,1.0771477201815276
basic,53,35,0,0,0,1,"[0, 24, 17, 1]",4,25,"[2, 4, 5, 6, 7, 8, 9, 10, 11, 12, 13, 14, 15, 16, 18, 19, 20, 21, 22, 23, 25, 26, 27, 28, 29]",241.4677869,6639,1609,26,151,10,1.2244804141479215
basic,53,35,0,0,0,15,"[0, 24, 17, 1, 15]",5,23,"[2, 4, 5, 6, 7, 8, 9, 10, 11, 12, 14, 16, 18, 19, 20, 21, 22, 23, 25, 26, 27, 28, 29]",218.6204676,7969,1330,26,78,10,1.4642196672428094
basic,53,35,0,0,0,9,"[0, 24, 17, 1, 15, 9]",6,8,"[5, 6, 18, 19, 23, 25, 27, 28]",136.3283052,12179,4210,4,17,10,1.4559671847403095
basic,53,35,0,0,0,18,"[0, 24, 17, 1, 15, 9, 18]",7,5,"[5, 6, 19, 23, 25]",116.3033208,13863,1684,2,5,10,1.428087426214553
basic,53,35,0,0,0,25,"[0, 24, 17, 1, 15, 9, 18, 25]",8,2,"[6, 23]",82.46547216,16977,3114,1,1,10,1.343292070389275
basic,53,35,0,0,0,6,"[0, 24, 17, 1, 15, 9, 18, 25, 6]",9,1,[23],58.44464786,18153,1176,1,0,10,1.5973591462902639
basic,53,35,0,0,1,23,"[0, 24, 17, 1, 15, 9, 18, 25, 6, 23]",10,0,[],12.79379902,19574,1421,1,0,10,2.701330598603499
basic,53,35,0,1,1,23,"[0, 24, 17, 1, 15, 9, 18, 25, 6, 23]",10,0,[],12.79379902,20395,821,1,0,10,2.701330598603499
basic,54,37,0,0,0,0,[0],1,29,"[1, 2, 3, 4, 5, 6, 7, 8, 9, 10, 11, 12, 13, 14, 15, 16, 17, 18, 19, 20, 21, 22, 23, 24, 25, 26, 27, 28, 29]",300,150,-1,6,168,10,0.0
basic,54,37,0,0,0,2,"[0, 2]",2,11,"[1, 4, 7, 15, 18, 19, 20, 21, 22, 26, 29]",148.8279126,4050,3900,22,111,8,1.0
basic,54,37,0,0,0,4,"[0, 2, 4]",3,9,"[1, 7, 15, 18, 19, 20, 21, 22, 26]",137.4261584,5965,1915,16,48,8,1.0002508292112766
basic,54,37,0,0,0,1,"[0, 2, 4, 1]",4,8,"[7, 15, 18, 19, 20, 21, 22, 26]",119.7061132,7568,1603,13,22,8,1.1387991830834925
basic,54,37,0,0,0,15,"[0, 2, 4, 1, 15]",5,4,"[19, 20, 21, 26]",79.74363083,9103,1535,5,5,8,1.3236790114659696
basic,54,37,0,0,0,26,"[0, 2, 4, 1, 15, 26]",6,2,"[20, 21]",45.20379875,12796,3693,1,1,8,1.4551232879135338
basic,54,37,0,0,0,21,"[0, 2, 4, 1, 15, 26, 21]",7,1,[20],15.47166125,14231,1435,1,0,8,1.8333787904185317
basic,54,37,0,0,1,20,"[0, 2, 4, 1, 15, 26, 21, 20]",8,0,[],1.049456151,15377,1146,1,0,8,1.9943780040674248
basic,54,37,0,1,1,20,"[0, 2, 4, 1, 15, 26, 21, 20]",8,0,[],1.049456151,16243,866,1,0,8,1.9943780040674248
basic,55,45,0,0,0,0,[0],1,24,"[1, 2, 3, 4, 5, 6, 7, 9, 10, 11, 12, 14, 15, 16, 17, 19, 20, 21, 22, 23, 24, 25, 27, 29]",300,139,-1,6,248,10,0.0
basic,55,45,0,0,0,15,"[0, 15]",2,23,"[1, 2, 3, 4, 5, 6, 7, 9, 10, 11, 12, 14, 16, 17, 19, 20, 21, 22, 23, 24, 25, 27, 29]",253.9022777,5231,5092,5,207,10,1.0
basic,55,45,0,0,0,10,"[0, 15, 10]",3,17,"[2, 3, 4, 6, 7, 9, 12, 14, 16, 17, 19, 20, 22, 23, 24, 25, 29]",149.513581,9337,4106,23,121,8,1.0227001003536764
basic,55,45,0,0,0,29,"[0, 15, 10, 29]",4,15,"[2, 3, 4, 6, 7, 9, 12, 14, 16, 17, 19, 20, 22, 23, 24]",127.9729218,12995,3658,10,39,8,1.0680997839971442
basic,55,45,0,0,0,3,"[0, 15, 10, 29, 3]",5,10,"[2, 4, 6, 7, 12, 14, 16, 20, 22, 24]",107.9729218,14057,1062,5,10,8,1.0704575609271403
basic,55,45,0,0,0,6,"[0, 15, 10, 29, 3, 6]",6,3,"[2, 12, 22]",71.73757991,15303,1246,1,2,8,1.3252940284208115
basic,55,45,0,0,0,12,"[0, 15, 10, 29, 3, 6, 12]",7,1,[22],51.61296812,17285,1982,1,0,8,1.3073001677894736
basic,55,45,0,0,1,22,"[0, 15, 10, 29, 3, 6, 12, 22]",8,0,[],20.03766131,20702,3417,1,0,8,1.31751724236773
basic,55,45,0,1,1,22,"[0, 15, 10, 29, 3, 6, 12, 22]",8,0,[],20.03766131,21290,588,1,0,8,1.31751724236773
basic,56,42,0,0,0,0,[0],1,29,"[1, 2, 3, 4, 5, 6, 7, 8, 9, 10, 11, 12, 13, 14, 15, 16, 17, 18, 19, 20, 21, 22, 23, 24, 25, 26, 27, 28, 29]",300,132,-1,16,302,9,0.0
basic,56,42,0,0,0,5,"[0, 5]",2,28,"[1, 2, 3, 4, 6, 7, 8, 9, 10, 11, 12, 13, 14, 15, 16, 17, 18, 19, 20, 21, 22, 23, 24, 25, 26, 27, 28, 29]",191.2939744,8050,7918,1,22,9,1.0
basic,56,42,0,0,0,4,"[0, 5, 4]",3,23,"[1, 2, 3, 6, 7, 8, 9, 10, 11, 13, 15, 17, 18, 19, 20, 21, 22, 23, 24, 25, 26, 27, 29]",171.4445412,10877,2827,1,14,9,1.420957801478707
basic,56,42,0,0,0,22,"[0, 5, 4, 22]",4,20,"[1, 2, 3, 6, 7, 8, 9, 11, 15, 17, 18, 19, 20, 21, 23, 24, 25, 26, 27, 29]",160.2642013,11895,1018,1,11,9,1.5771494659680896
basic,56,42,0,0,0,8,"[0, 5, 4, 22, 8]",5,14,"[1, 2, 3, 6, 7, 11, 15, 18, 19, 24, 25, 26, 27, 29]",138.1282577,13526,1631,1,10,9,1.5055393955524201
basic,56,42,0,0,0,1,"[0, 5, 4, 22, 8, 1]",6,5,"[2, 7, 19, 26, 27]",89.03650682,15187,1661,1,7,9,1.3547259083637835
basic,56,42,0,0,0,7,"[0, 5, 4, 22, 8, 1, 7]",7,4,"[2, 19, 26, 27]",59.03650682,17599,2412,1,3,9,1.3909715672447451
basic,56,42,0,0,0,26,"[0, 5, 4, 22, 8, 1, 7, 26]",8,1,[27],32.46584631,19046,1447,1,0,9,1.3511825943939393
basic,56,42,0,0,1,27,"[0, 5, 4, 22, 8, 1, 7, 26, 27]",9,0,[],14.43808994,21064,2018,1,0,9,1.3391911688802078
basic,56,42,0,1,1,27,"[0, 5, 4, 22, 8, 1, 7, 26, 27]",9,0,[],14.43808994,21791,727,1,0,9,1.3391911688802078
basic,57,32,0,0,0,0,[0],1,29,"[1, 2, 3, 4, 5, 6, 7, 8, 9, 10, 11, 12, 13, 14, 15, 16, 17, 18, 19, 20, 21, 22, 23, 24, 25, 26, 27, 28, 29]",300,157,-1,17,359,10,0.0
basic,57,32,0,0,0,19,"[0, 19]",2,28,"[1, 2, 3, 4, 5, 6, 7, 8, 9, 10, 11, 12, 13, 14, 15, 16, 17, 18, 20, 21, 22, 23, 24, 25, 26, 27, 28, 29]",283.5075775,2963,2806,16,294,10,1.0
basic,57,32,0,0,0,13,"[0, 19, 13]",3,24,"[2, 3, 4, 5, 6, 8, 9, 10, 11, 12, 14, 15, 16, 17, 18, 20, 21, 22, 23, 24, 25, 26, 27, 28]",260.3127505,4778,1815,14,227,10,1.0172874229878615
basic,57,32,0,0,0,15,"[0, 19, 13, 15]",4,18,"[2, 3, 5, 8, 9, 10, 11, 12, 16, 17, 20, 22, 23, 24, 25, 26, 27, 28]",177.4393531,9735,4957,9,116,10,1.435447391509833
basic,57,32,0,0,0,28,"[0, 19, 13, 15, 28]",5,17,"[2, 3, 5, 8, 9, 10, 11, 12, 16, 17, 20, 22, 23, 24, 25, 26, 27]",166.0375988,12651,2916,9,70,10,1.3843701324937985
basic,57,32,0,0,0,12,"[0, 19, 13, 15, 28, 12]",6,14,"[2, 3, 5, 8, 9, 10, 11, 16, 17, 20, 22, 24, 26, 27]",147.0639329,13933,1282,6,35,10,1.358372254952329
basic,57,32,0,0,0,16,"[0, 19, 13, 15, 28, 12, 16]",7,13,"[2, 3, 5, 8, 9, 10, 11, 17, 20, 22, 24, 26, 27]",131.411457,15163,1230,5,15,10,1.4356932930709845
basic,57,32,0,0,0,27,"[0, 19, 13, 15, 28, 12, 16, 27]",8,2,"[3, 11]",55.13564171,20130,4967,2,0,10,1.3380566026775955
basic,57,32,0,0,0,3,"[0, 19, 13, 15, 28, 12, 16, 27, 3]",9,1,[11],29.64054414,21723,1593,1,0,10,1.3269345554887129
basic,57,32,0,0,1,11,"[0, 19, 13, 15, 28, 12, 16, 27, 3, 11]",10,0,[],14.02004479,25322,3599,1,0,10,1.356452519014518
basic,57,32,0,1,1,11,"[0, 19, 13, 15, 28, 12, 16, 27, 3, 11]",10,0,[],14.02004479,26011,689,1,0,10,1.356452519014518
basic,58,33,0,0,0,0,[0],1,23,"[1, 2, 5, 7, 8, 11, 12, 13, 14, 15, 16, 17, 18, 19, 20, 21, 23, 24, 25, 26, 27, 28, 29]",300,137,-1,5,108,9,0.0
basic,58,33,0,0,0,21,"[0, 21]",2,17,"[2, 5, 7, 8, 11, 13, 14, 16, 17, 18, 19, 20, 24, 26, 27, 28, 29]",174.4611614,3177,3040,21,129,8,1.0
basic,58,33,0,0,0,13,"[0, 21, 13]",3,15,"[2, 5, 7, 8, 11, 14, 16, 17, 18, 19, 20, 24, 26, 28, 29]",148.0604038,4865,1688,17,72,8,1.0001005298764474
basic,58,33,0,0,0,19,"[0, 21, 13, 19]",4,11,"[7, 11, 14, 16, 17, 18, 20, 24, 26, 28, 29]",122.5653063,6793,1928,10,27,8,1.0588446738393702
basic,58,33,0,0,0,7,"[0, 21, 13, 19, 7]",5,7,"[14, 16, 17, 18, 24, 26, 29]",76.94732734,8670,1877,3,5,8,1.0466997412739754
basic,58,33,0,0,0,14,"[0, 21, 13, 19, 7, 14]",6,3,"[24, 26, 29]",62.0812586,10774,2104,2,1,8,1.096679239566485
basic,58,33,0,0,0,26,"[0, 21, 13, 19, 7, 14, 26]",7,1,[29],49.43214796,11871,1097,1,0,8,1.1075261679429118
basic,58,33,0,0,1,29,"[0, 21, 13, 19, 7, 14, 26, 29]",8,0,[],21.53949659,13696,1825,1,0,8,1.3238278222819673
basic,58,33,0,1,1,29,"[0, 21, 13, 19, 7, 14, 26, 29]",8,0,[],21.53949659,14308,612,1,0,8,1.3238278222819673
basic,59,18,0,0,0,0,[0],1,28,"[1, 2, 3, 4, 5, 6, 7, 8, 9, 10, 11, 12, 13, 14, 16, 17, 18, 19, 20, 21, 22, 23, 24, 25, 26, 27, 28, 29]",300,139,-1,3,136,10,0.0
basic,59,18,0,0,0,28,"[0, 28]",2,16,"[1, 3, 5, 7, 8, 9, 12, 13, 14, 16, 20, 23, 24, 25, 26, 27]",236.4311397,3772,3633,2,19,10,1.0
basic,59,18,0,0,0,7,"[0, 28, 7]",3,15,"[1, 3, 5, 8, 9, 12, 13, 14, 16, 20, 23, 24, 25, 26, 27]",214.4084242,5756,1984,2,17,10,1.4345180696367563
basic,59,18,0,0,0,25,"[0, 28, 7, 25]",4,13,"[1, 3, 5, 8, 9, 12, 13, 14, 16, 20, 23, 26, 27]",186.6055466,6727,971,2,15,10,1.8896451241781882
basic,59,18,0,0,0,8,"[0, 28, 7, 25, 8]",5,10,"[3, 5, 9, 12, 13, 14, 16, 23, 26, 27]",149.551532,8107,1380,2,10,10,1.590467437592877
basic,59,18,0,0,0,13,"[0, 28, 7, 25, 8, 13]",6,9,"[3, 5, 9, 12, 14, 16, 23, 26, 27]",128.4565089,9353,1246,2,5,10,1.8248274983549797
basic,59,18,0,0,0,14,"[0, 28, 7, 25, 8, 13, 14]",7,7,"[3, 5, 9, 12, 23, 26, 27]",109.4828429,10609,1256,2,3,10,1.6993534956692746
basic,59,18,0,0,0,5,"[0, 28, 7, 25, 8, 13, 14, 5]",8,1,[12],27.4462657,14026,3417,1,0,9,1.5249327462045208
basic,59,18,0,0,1,12,"[0, 28, 7, 25, 8, 13, 14, 5, 12]",9,0,[],16.04451145,15226,1200,1,0,9,1.5304293755104785
basic,59,18,0,1,1,12,"[0, 28, 7, 25, 8, 13, 14, 5, 12]",9,0,[],16.04451145,16125,899,1,0,9,1.5304293755104785
basic,60,0,0,0,0,0,[0],1,27,"[2, 3, 4, 5, 6, 7, 8, 9, 10, 11, 12, 13, 14, 15, 16, 17, 19, 20, 21, 22, 23, 24, 25, 26, 27, 28, 29]",300,128,-1,104,1136,9,0.0
basic,60,0,0,0,0,28,"[0, 28]",2,26,"[2, 3, 4, 5, 6, 7, 8, 9, 10, 11, 12, 13, 14, 15, 16, 17, 19, 20, 21, 22, 23, 24, 25, 26, 27, 29]",194.9190788,5477,5349,39,388,9,1.0
basic,60,0,0,0,0,5,"[0, 28, 5]",3,21,"[2, 3, 4, 7, 8, 9, 11, 12, 13, 14, 15, 16, 17, 19, 20, 21, 23, 24, 25, 26, 29]",151.2613189,7248,1771,27,210,9,1.0978295127671733
basic,60,0,0,0,0,26,"[0, 28, 5, 26]",4,15,"[3, 4, 7, 8, 9, 11, 12, 13, 14, 15, 17, 19, 20, 23, 24]",115.8212286,11387,4139,5,35,9,1.1400379746718978
basic,60,0,0,0,0,4,"[0, 28, 5, 26, 4]",5,12,"[3, 7, 8, 9, 11, 12, 15, 17, 19, 20, 23, 24]",103.779634,13949,2562,4,17,9,1.2534780347343448
basic,60,0,0,0,0,24,"[0, 28, 5, 26, 4, 24]",6,9,"[3, 7, 8, 9, 11, 12, 15, 17, 19]",92.37787977,15232,1283,4,12,9,1.2444963062448124
basic,60,0,0,0,0,15,"[0, 28, 5, 26, 4, 24, 15]",7,6,"[3, 7, 8, 9, 11, 17]",69.03264471,16423,1191,3,4,9,1.2218613820858855
basic,60,0,0,0,0,7,"[0, 28, 5, 26, 4, 24, 15, 7]",8,2,"[3, 8]",37.96819558,19374,2951,2,0,9,1.2781430976973103
basic,60,0,0,0,1,8,"[0, 28, 5, 26, 4, 24, 15, 7, 8]",9,0,[],18.8632224,21748,2374,1,0,9,1.263743502581705
basic,60,0,0,1,1,8,"[0, 28, 5, 26, 4, 24, 15, 7, 8]",9,0,[],18.8632224,23097,1349,1,0,9,1.263743502581705
basic,61,27,0,0,0,0,[0],1,26,"[1, 3, 5, 6, 7, 8, 9, 10, 11, 12, 13, 14, 15, 16, 17, 18, 19, 21, 22, 23, 24, 25, 26, 27, 28, 29]",300,165,-1,13,578,11,0.0
basic,61,27,0,0,0,15,"[0, 15]",2,24,"[1, 3, 5, 6, 7, 8, 9, 10, 11, 12, 13, 14, 16, 17, 18, 19, 21, 22, 23, 24, 25, 26, 27, 29]",263.7508621,2613,2448,6,219,11,1.0
basic,61,27,0,0,0,24,"[0, 15, 24]",3,20,"[1, 5, 6, 7, 8, 9, 10, 12, 13, 14, 16, 17, 18, 19, 21, 23, 25, 26, 27, 29]",246.5462115,5535,2922,6,130,11,1.130933077698322
basic,61,27,0,0,0,17,"[0, 15, 24, 17]",4,15,"[1, 6, 8, 10, 12, 13, 14, 16, 18, 19, 23, 25, 26, 27, 29]",229.9932662,7320,1785,4,60,11,1.1285538435963374
basic,61,27,0,0,0,12,"[0, 15, 24, 17, 12]",5,14,"[1, 6, 8, 10, 13, 14, 16, 18, 19, 23, 25, 26, 27, 29]",218.8129263,8508,1188,2,32,11,1.2561880288755216
basic,61,27,0,0,0,10,"[0, 15, 24, 17, 12, 10]",6,11,"[1, 8, 13, 14, 18, 19, 23, 25, 26, 27, 29]",207.7675653,10027,1519,2,28,11,1.2228289337766665
basic,61,27,0,0,0,13,"[0, 15, 24, 17, 12, 10, 13]",7,9,"[1, 8, 14, 18, 19, 23, 26, 27, 29]",167.9178476,11459,1432,2,18,11,1.3421291994761178
basic,61,27,0,0,0,19,"[0, 15, 24, 17, 12, 10, 13, 19]",8,5,"[1, 8, 14, 23, 29]",131.6825057,13013,1554,2,6,11,1.294749956153846
basic,61,27,0,0,0,8,"[0, 15, 24, 17, 12, 10, 13, 19, 8]",9,3,"[14, 23, 29]",116.816437,14561,1548,2,1,11,1.3554286578836865
basic,61,27,0,0,0,29,"[0, 15, 24, 17, 12, 10, 13, 19, 8, 29]",10,1,[14],57.61339652,17735,3174,1,0,11,1.248354519573802
basic,61,27,0,0,1,14,"[0, 15, 24, 17, 12, 10, 13, 19, 8, 29, 14]",11,0,[],13.31892734,19628,1893,1,0,11,1.562811097555156
basic,61,27,0,1,1,14,"[0, 15, 24, 17, 12, 10, 13, 19, 8, 29, 14]",11,0,[],13.31892734,20368,740,1,0,11,1.562811097555156
basic,62,15,0,0,0,0,[0],1,25,"[1, 2, 3, 4, 7, 8, 9, 10, 11, 12, 13, 14, 15, 16, 18, 20, 21, 22, 23, 24, 25, 26, 27, 28, 29]",300,132,-1,4,65,9,0.0
basic,62,15,0,0,0,7,"[0, 7]",2,23,"[1, 3, 4, 8, 9, 10, 11, 12, 13, 14, 15, 16, 18, 20, 21, 22, 23, 24, 25, 26, 27, 28, 29]",215.1884442,3801,3669,30,107,8,1.0
basic,62,15,0,0,0,16,"[0, 7, 16]",3,14,"[3, 4, 9, 10, 11, 12, 13, 14, 15, 18, 21, 22, 25, 27]",171.5306843,6769,2968,11,27,8,1.1253230463291073
basic,62,15,0,0,0,11,"[0, 7, 16, 11]",4,10,"[3, 4, 12, 13, 14, 15, 18, 21, 22, 27]",145.5114606,7946,1177,6,10,8,1.2441772230587118
basic,62,15,0,0,0,3,"[0, 7, 16, 11, 3]",5,8,"[4, 12, 13, 14, 15, 18, 21, 22]",134.1097064,9067,1121,6,4,8,1.253153736954923
basic,62,15,0,0,0,22,"[0, 7, 16, 11, 3, 22]",6,5,"[4, 13, 14, 15, 18]",84.38043933,10559,1492,2,3,8,1.249784727890499
basic,62,15,0,0,0,15,"[0, 7, 16, 11, 3, 22, 15]",7,1,[13],58.76794238,13101,2542,1,0,8,1.2283958862490272
basic,62,15,0,0,1,13,"[0, 7, 16, 11, 3, 22, 15, 13]",8,0,[],43.50360486,14844,1743,1,0,8,1.2803073001953094
basic,62,15,0,1,1,13,"[0, 7, 16, 11, 3, 22, 15, 13]",8,0,[],43.50360486,15424,580,1,0,8,1.2803073001953094
basic,63,19,0,0,0,0,[0],1,29,"[1, 2, 3, 4, 5, 6, 7, 8, 9, 10, 11, 12, 13, 14, 15, 16, 17, 18, 19, 20, 21, 22, 23, 24, 25, 26, 27, 28, 29]",300,136,-1,12,149,8,0.0
basic,63,19,0,0,0,28,"[0, 28]",2,10,"[4, 6, 9, 10, 11, 14, 20, 22, 24, 27]",136.1219966,4529,4393,2,14,7,1.0
basic,63,19,0,0,0,4,"[0, 28, 4]",3,9,"[6, 9, 10, 11, 14, 20, 22, 24, 27]",124.9416567,5526,997,2,10,7,1.0622089009735736
basic,63,19,0,0,0,14,"[0, 28, 4, 14]",4,5,"[6, 11, 20, 22, 24]",74.93165771,7930,2404,2,3,7,1.0762539106237072
basic,63,19,0,0,0,11,"[0, 28, 4, 14, 11]",5,3,"[20, 22, 24]",64.11500388,12078,4148,2,1,7,1.0758449982739315
basic,63,19,0,0,0,20,"[0, 28, 4, 14, 11, 20]",6,1,[22],16.31333027,13631,1553,1,0,7,1.254808614269969
basic,63,19,0,0,1,22,"[0, 28, 4, 14, 11, 20, 22]",7,0,[],3.160383832,14764,1133,1,0,7,1.3933675480175218
basic,63,19,0,1,1,22,"[0, 28, 4, 14, 11, 20, 22]",7,0,[],3.160383832,15939,1175,1,0,7,1.3933675480175218
basic,64,34,0,0,0,0,[0],1,25,"[1, 3, 4, 5, 6, 7, 8, 9, 10, 11, 12, 13, 15, 18, 19, 20, 21, 22, 23, 24, 25, 26, 27, 28, 29]",300,138,-1,12,367,10,0.0
basic,64,34,0,0,0,13,"[0, 13]",2,24,"[1, 3, 4, 5, 6, 7, 8, 9, 10, 11, 12, 15, 18, 19, 20, 21, 22, 23, 24, 25, 26, 27, 28, 29]",279.9750156,3519,3381,12,331,10,1.0
basic,64,34,0,0,0,1,"[0, 13, 1]",3,16,"[3, 5, 7, 8, 9, 10, 11, 12, 19, 21, 22, 23, 24, 25, 27, 29]",211.8574701,5711,2192,3,92,10,1.0010381285747127
basic,64,34,0,0,0,8,"[0, 13, 1, 8]",4,14,"[3, 5, 7, 9, 10, 11, 12, 19, 22, 23, 24, 25, 27, 29]",201.0871405,6979,1268,2,54,10,1.1636807
basic,64,34,0,0,0,25,"[0, 13, 1, 8, 25]",5,12,"[3, 5, 7, 9, 10, 11, 12, 22, 23, 24, 27, 29]",183.999133,8584,1605,2,28,10,1.1396208815936457
basic,64,34,0,0,0,24,"[0, 13, 1, 8, 25, 24]",6,11,"[3, 5, 7, 9, 10, 11, 12, 22, 23, 27, 29]",166.5062774,10116,1532,2,23,10,1.374180768736554
basic,64,34,0,0,0,12,"[0, 13, 1, 8, 25, 24, 12]",7,7,"[7, 9, 10, 11, 22, 23, 27]",115.4670767,12263,2147,1,8,10,1.4994254760835948
basic,64,34,0,0,0,7,"[0, 13, 1, 8, 25, 24, 12, 7]",8,5,"[9, 11, 22, 23, 27]",100.4337804,13720,1457,1,4,10,1.758992610425009
basic,64,34,0,0,0,23,"[0, 13, 1, 8, 25, 24, 12, 7, 23]",9,1,[27],72.27352467,16663,2943,1,0,10,2.399781305190153
basic,64,34,0,0,1,27,"[0, 13, 1, 8, 25, 24, 12, 7, 23, 27]",10,0,[],18.60789321,18903,2240,1,0,10,4.766619878750327
basic,64,34,0,1,1,27,"[0, 13, 1, 8, 25, 24, 12, 7, 23, 27]",10,0,[],18.60789321,19753,850,1,0,10,4.766619878750327
basic,65,7,0,0,0,0,[0],1,29,"[1, 2, 3, 4, 5, 6, 7, 8, 9, 10, 11, 12, 13, 14, 15, 16, 17, 18, 19, 20, 21, 22, 23, 24, 25, 26, 27, 28, 29]",300,155,-1,3,79,9,0.0
basic,65,7,0,0,0,25,"[0, 25]",2,20,"[2, 3, 4, 5, 6, 7, 10, 13, 14, 15, 16, 18, 19, 20, 21, 22, 23, 24, 27, 28]",181.5939191,7933,7778,5,33,8,1.0
basic,65,7,0,0,0,4,"[0, 25, 4]",3,11,"[2, 6, 7, 13, 15, 16, 18, 19, 20, 21, 23]",156.8552853,9075,1142,2,14,8,1.0193465608331511
basic,65,7,0,0,0,20,"[0, 25, 4, 20]",4,8,"[2, 6, 7, 13, 15, 16, 18, 19]",137.2084026,10225,1150,1,9,8,1.085904909082323
basic,65,7,0,0,0,18,"[0, 25, 4, 20, 18]",5,7,"[2, 6, 7, 13, 15, 16, 19]",124.4021541,11310,1085,1,5,8,1.2264883846453758
basic,65,7,0,0,0,7,"[0, 25, 4, 20, 18, 7]",6,2,"[2, 19]",83.17109789,13244,1934,1,1,8,1.185264473968278
basic,65,7,0,0,0,19,"[0, 25, 4, 20, 18, 7, 19]",7,1,[2],53.76021555,14634,1390,1,0,8,1.3016904288278204
basic,65,7,0,0,1,2,"[0, 25, 4, 20, 18, 7, 19, 2]",8,0,[],23.61058868,16417,1783,1,0,8,1.3168868000947171
basic,65,7,0,1,1,2,"[0, 25, 4, 20, 18, 7, 19, 2]",8,0,[],23.61058868,17104,687,1,0,8,1.3168868000947171
basic,66,40,0,0,0,0,[0],1,29,"[1, 2, 3, 4, 5, 6, 7, 8, 9, 10, 11, 12, 13, 14, 15, 16, 17, 18, 19, 20, 21, 22, 23, 24, 25, 26, 27, 28, 29]",300,131,-1,8,191,9,0.0
basic,66,40,0,0,0,1,"[0, 1]",2,18,"[2, 5, 6, 7, 8, 9, 10, 11, 13, 15, 17, 18, 19, 21, 22, 23, 27, 29]",247.8463808,2515,2384,4,80,9,1.0
basic,66,40,0,0,0,6,"[0, 1, 6]",3,17,"[2, 5, 7, 8, 9, 10, 11, 13, 15, 17, 18, 19, 21, 22, 23, 27, 29]",227.7466295,5412,2897,4,74,9,1.0459427008232034
basic,66,40,0,0,0,9,"[0, 1, 6, 9]",4,10,"[2, 5, 8, 11, 18, 19, 21, 22, 23, 27]",159.146338,9087,3675,17,39,8,1.142098432552584
basic,66,40,0,0,0,18,"[0, 1, 6, 9, 18]",5,9,"[2, 5, 8, 11, 19, 21, 22, 23, 27]",142.5933926,11078,1991,13,14,8,1.3288108654802917
basic,66,40,0,0,0,5,"[0, 1, 6, 9, 18, 5]",6,7,"[2, 8, 19, 21, 22, 23, 27]",111.0180858,12955,1877,5,5,8,1.5366414787972102
basic,66,40,0,0,0,23,"[0, 1, 6, 9, 18, 5, 23]",7,3,"[2, 19, 21]",82.71614241,14551,1596,3,0,8,2.2908821040631264
basic,66,40,0,0,1,19,"[0, 1, 6, 9, 18, 5, 23, 19]",8,0,[],50.76305179,15802,1251,1,0,8,2.4294131203959415
basic,66,40,0,1,1,19,"[0, 1, 6, 9, 18, 5, 23, 19]",8,0,[],50.76305179,16880,1078,1,0,8,2.4294131203959415
basic,67,43,0,0,0,0,[0],1,23,"[1, 2, 3, 4, 5, 6, 7, 9, 10, 11, 12, 14, 15, 16, 17, 19, 20, 21, 22, 23, 25, 27, 29]",300,141,-1,16,556,12,0.0
basic,67,43,0,0,0,29,"[0, 29]",2,22,"[1, 2, 3, 4, 5, 6, 7, 9, 10, 11, 12, 14, 15, 16, 17, 19, 20, 21, 22, 23, 25, 27]",277.909278,3352,3211,16,520,12,1.0
basic,67,43,0,0,0,20,"[0, 29, 20]",3,20,"[1, 2, 3, 4, 6, 7, 9, 10, 11, 12, 14, 15, 16, 17, 19, 21, 22, 23, 25, 27]",254.4785289,6378,3026,15,422,12,1.082311746871282
basic,67,43,0,0,0,16,"[0, 29, 20, 16]",4,19,"[1, 2, 3, 4, 6, 7, 9, 10, 11, 12, 14, 15, 17, 19, 21, 22, 23, 25, 27]",231.8511119,8093,1715,15,389,12,1.215201926898219
basic,67,43,0,0,0,15,"[0, 29, 20, 16, 15]",5,14,"[1, 2, 3, 4, 6, 7, 9, 11, 12, 14, 19, 22, 23, 25]",188.5267539,13535,5442,3,109,12,1.3482474915350444
basic,67,43,0,0,0,12,"[0, 29, 20, 16, 15, 12]",6,13,"[1, 2, 3, 4, 6, 7, 9, 11, 14, 19, 22, 23, 25]",169.213546,15708,2173,1,49,12,1.3229664037236823
basic,67,43,0,0,0,3,"[0, 29, 20, 16, 15, 12, 3]",7,11,"[1, 4, 6, 7, 9, 11, 14, 19, 22, 23, 25]",156.213546,17023,1315,1,35,12,1.2907201281243643
basic,67,43,0,0,0,22,"[0, 29, 20, 16, 15, 12, 3, 22]",8,9,"[1, 4, 6, 7, 11, 14, 19, 23, 25]",121.5004361,18762,1739,1,18,12,1.4966181986440266
basic,67,43,0,0,0,19,"[0, 29, 20, 16, 15, 12, 3, 22, 19]",9,7,"[1, 4, 6, 7, 11, 14, 25]",100.8849079,20808,2046,1,9,12,1.4332617950535695
basic,67,43,0,0,0,1,"[0, 29, 20, 16, 15, 12, 3, 22, 19, 1]",10,5,"[4, 6, 7, 11, 14]",72.70690233,24940,4132,1,4,12,1.5789573993284716
basic,67,43,0,0,0,6,"[0, 29, 20, 16, 15, 12, 3, 22, 19, 1, 6]",11,1,[11],24.43682878,26870,1930,1,0,12,2.498520794432648
basic,67,43,0,0,1,11,"[0, 29, 20, 16, 15, 12, 3, 22, 19, 1, 6, 11]",12,0,[],3.821300656,28292,1422,1,0,12,3.2547109818021975
basic,67,43,0,1,1,11,"[0, 29, 20, 16, 15, 12, 3, 22, 19, 1, 6, 11]",12,0,[],3.821300656,28859,567,1,0,12,3.2547109818021975
basic,68,30,0,0,0,0,[0],1,19,"[3, 4, 5, 7, 9, 11, 16, 17, 18, 19, 20, 21, 22, 24, 25, 26, 27, 28, 29]",300,137,-1,5,41,8,0.0
basic,68,30,0,0,0,26,"[0, 26]",2,15,"[3, 5, 9, 11, 16, 17, 18, 19, 20, 21, 22, 25, 27, 28, 29]",208.2939479,2265,2128,5,27,6,1.0
basic,68,30,0,0,0,16,"[0, 26, 16]",3,9,"[3, 9, 11, 17, 20, 22, 25, 27, 28]",165.8439773,3682,1417,2,8,6,1.6640006669138325
basic,68,30,0,0,0,11,"[0, 26, 16, 11]",4,1,[9],63.66276572,4972,1290,1,0,5,1.3262938848531356
basic,68,30,0,0,1,9,"[0, 26, 16, 11, 9]",5,0,[],7.147281118,10220,5248,1,0,5,1.4423442524407728
basic,68,30,0,1,1,9,"[0, 26, 16, 11, 9]",5,0,[],7.147281118,10755,535,1,0,5,1.4423442524407728
undo,69,29,0,0,0,0,[0],1,29,"[1, 2, 3, 4, 5, 6, 7, 8, 9, 10, 11, 12, 13, 14, 15, 16, 17, 18, 19, 20, 21, 22, 23, 24, 25, 26, 27, 28, 29]",300,139,-1,1,78,9,0.0
undo,69,29,0,0,0,14,"[0, 14]",2,22,"[1, 3, 4, 5, 6, 7, 9, 10, 11, 12, 13, 15, 16, 17, 21, 22, 23, 25, 26, 27, 28, 29]",209.490332,3312,3173,21,110,8,1.0
undo,69,29,0,0,0,13,"[0, 14, 13]",3,18,"[1, 4, 5, 6, 7, 9, 10, 12, 15, 16, 17, 21, 22, 25, 26, 27, 28, 29]",191.4625756,5864,2552,20,75,8,1.0027006502223275
undo,69,29,0,0,0,5,"[0, 14, 13, 5]",4,15,"[1, 4, 6, 7, 9, 12, 15, 17, 21, 22, 25, 26, 27, 28, 29]",165.7526554,9492,3628,19,49,8,1.0803937325657265
undo,69,29,0,0,0,7,"[0, 14, 13, 5, 7]",5,8,"[4, 9, 12, 21, 22, 26, 27, 28]",102.2231347,11509,2017,3,12,8,1.2026521321069321
undo,69,29,0,0,0,12,"[0, 14, 13, 5, 7, 12]",6,7,"[4, 9, 21, 22, 26, 27, 28]",88.62166416,12516,1007,3,4,8,1.3692133279803023
undo,69,29,0,0,0,22,"[0, 14, 13, 5, 7, 12, 22]",7,1,[27],50.67433224,13930,1414,1,0,8,2.1316115728184912
undo,69,29,0,0,1,27,"[0, 14, 13, 5, 7, 12, 22, 27]",8,0,[],17.43279196,16375,2445,1,0,8,2.6081028152142105
undo,69,29,0,1,1,27,"[0, 14, 13, 5, 7, 12, 22, 27]",8,0,[],17.43279196,18829,2454,1,0,8,2.6081028152142105
undo,70,10,0,0,0,0,[0],1,29,"[1, 2, 3, 4, 5, 6, 7, 8, 9, 10, 11, 12, 13, 14, 15, 16, 17, 18, 19, 20, 21, 22, 23, 24, 25, 26, 27, 28, 29]",300,157,-1,1,100,9,0.0
undo,70,10,0,0,0,13,"[0, 13]",2,25,"[1, 2, 3, 4, 6, 7, 8, 9, 10, 11, 12, 14, 17, 18, 19, 20, 21, 22, 23, 24, 25, 26, 27, 28, 29]",249.4628849,3821,3664,1,79,9,1.0
undo,70,10,0,0,0,11,"[0, 13, 11]",3,20,"[1, 2, 3, 6, 7, 8, 9, 10, 12, 14, 18, 19, 20, 21, 22, 24, 26, 27, 28, 29]",206.4512586,6062,2241,1,54,9,1.0313137484914219
undo,70,10,0,0,0,19,"[0, 13, 11, 19]",4,11,"[2, 6, 8, 9, 10, 14, 18, 20, 24, 26, 27]",170.0919407,7557,1495,1,22,9,1.0879446220132545
undo,70,10,0,0,0,2,"[0, 13, 11, 19, 2]",5,4,"[14, 20, 26, 27]",126.1829439,9792,2235,1,4,9,1.06474052351343
undo,70,10,0,0,0,14,"[0, 13, 11, 19, 2, 14]",6,3,"[20, 26, 27]",114.0174188,11328,1536,1,3,9,1.1628909195912238
undo,70,10,0,0,0,26,"[0, 13, 11, 19, 2, 14, 26]",7,2,"[20, 27]",79.34754716,12585,1257,1,1,9,1.6660727647633602
undo,70,10,0,0,0,20,"[0, 13, 11, 19, 2, 14, 26, 20]",8,1,[27],47.56704999,15405,2820,1,0,9,2.085581809637999
undo,70,10,0,0,1,27,"[0, 13, 11, 19, 2, 14, 26, 20, 27]",9,0,[],2.312215998,19313,3908,1,0,9,1.9116357409137932
undo,70,10,0,1,1,27,"[0, 13, 11, 19, 2, 14, 26, 20, 27]",9,0,[],2.312215998,20004,691,1,0,9,1.9116357409137932
undo,71,9,0,0,0,0,[0],1,27,"[1, 3, 4, 5, 6, 7, 8, 9, 10, 11, 13, 14, 15, 16, 17, 18, 19, 20, 21, 22, 23, 24, 25, 26, 27, 28, 29]",300,134,-1,2,182,10,0.0
undo,71,9,0,0,0,8,"[0, 8]",2,25,"[1, 3, 4, 5, 6, 7, 9, 10, 11, 13, 14, 15, 16, 17, 18, 19, 20, 21, 22, 23, 24, 25, 26, 27, 28]",236.2191251,2438,2304,2,102,9,1.0
undo,71,9,0,0,0,28,"[0, 8, 28]",3,23,"[1, 3, 4, 5, 6, 7, 9, 10, 11, 13, 15, 16, 17, 18, 19, 20, 21, 22, 23, 24, 25, 26, 27]",225.4024713,4018,1580,2,52,9,1.0043219354187498
undo,71,9,0,0,0,21,"[0, 8, 28, 21]",4,16,"[5, 6, 7, 9, 10, 15, 16, 17, 18, 19, 20, 22, 23, 25, 26, 27]",172.4024713,5487,1469,3,23,8,1.0764753785359493
undo,71,9,0,0,0,20,"[0, 8, 28, 21, 20]",5,12,"[9, 10, 15, 16, 17, 18, 19, 22, 23, 25, 26, 27]",160.3194253,7595,2108,3,15,8,1.1028941452123966
undo,71,9,0,0,0,22,"[0, 8, 28, 21, 20, 22]",6,1,[10],84.26023784,9488,1893,1,0,7,1.8152480018156785
undo,71,9,0,0,1,10,"[0, 8, 28, 21, 20, 22, 10]",7,0,[],18.70873138,13013,3525,1,0,7,5.177237344206032
undo,71,9,0,1,1,10,"[0, 8, 28, 21, 20, 22, 10]",7,0,[],18.70873138,13677,664,1,0,7,5.177237344206032
undo,72,44,0,0,0,0,[0],1,29,"[1, 2, 3, 4, 5, 6, 7, 8, 9, 10, 11, 12, 13, 14, 15, 16, 17, 18, 19, 20, 21, 22, 23, 24, 25, 26, 27, 28, 29]",300,129,-1,13,126,7,0.0
undo,72,44,0,0,0,9,"[0, 9]",2,17,"[2, 4, 5, 7, 8, 10, 11, 12, 13, 14, 20, 22, 23, 24, 25, 26, 28]",141.32423,2575,2446,3,26,7,1.0
undo,72,44,0,0,0,4,"[0, 9, 4]",3,15,"[2, 5, 7, 8, 10, 11, 12, 14, 20, 22, 23, 24, 25, 26, 28]",121.6265143,3622,1047,3,21,7,1.0155532843148096
undo,72,44,0,0,0,7,"[0, 9, 4, 7]",4,10,"[2, 5, 11, 12, 14, 23, 24, 25, 26, 28]",90.61038951,4910,1288,3,9,7,1.0134022837125412
undo,72,44,0,0,0,23,"[0, 9, 4, 7, 23]",5,7,"[5, 12, 14, 24, 25, 26, 28]",71.50541634,6358,1448,3,4,7,1.043310757564056
undo,72,44,0,0,0,28,"[0, 9, 4, 7, 23, 28]",6,1,[26],19.5342705,7667,1309,1,0,7,1.0580072524850708
undo,72,44,0,0,1,26,"[0, 9, 4, 7, 23, 28, 26]",7,0,[],6.534270496,10762,3095,1,0,7,1.055488728885845
undo,72,44,0,1,1,26,"[0, 9, 4, 7, 23, 28, 26]",7,0,[],6.534270496,11448,686,1,0,7,1.055488728885845
undo,73,11,0,0,0,0,[0],1,25,"[1, 2, 3, 4, 5, 6, 8, 9, 10, 11, 12, 13, 14, 15, 16, 17, 18, 19, 20, 22, 23, 25, 26, 27, 28]",300,147,-1,6,374,12,0.0
undo,73,11,0,0,0,18,"[0, 18]",2,21,"[1, 2, 4, 5, 6, 8, 9, 11, 12, 13, 14, 15, 16, 17, 19, 20, 22, 23, 25, 27, 28]",236.8493864,2632,2485,157,1477,11,1.0
undo,73,11,0,0,0,27,"[0, 18, 27]",3,19,"[1, 2, 4, 5, 6, 8, 9, 11, 12, 14, 15, 16, 17, 19, 20, 22, 23, 25, 28]",212.9956655,4238,1606,157,1315,11,1.060949579704323
undo,73,11,0,0,0,17,"[0, 18, 27, 17]",4,14,"[1, 2, 4, 5, 6, 8, 11, 12, 15, 19, 22, 23, 25, 28]",135.9177828,7912,3674,46,349,11,1.1156120043677304
undo,73,11,0,0,0,8,"[0, 18, 27, 17, 8]",5,11,"[1, 2, 5, 6, 11, 12, 15, 19, 22, 25, 28]",121.5999617,10349,2437,26,143,11,1.2285932943120847
undo,73,11,0,0,0,15,"[0, 18, 27, 17, 8, 15]",6,9,"[2, 5, 6, 11, 12, 19, 22, 25, 28]",108.1463377,11501,1152,24,54,11,1.223015425852291
undo,73,11,0,0,0,11,"[0, 18, 27, 17, 8, 15, 11]",7,6,"[2, 5, 12, 19, 22, 28]",90.03556742,12583,1082,22,2,11,1.2111003833550413
undo,73,11,0,0,0,28,"[0, 18, 27, 17, 8, 15, 11, 28]",8,3,"[2, 5, 22]",70.61907959,15530,2947,6,0,11,1.3274100985292616
undo,73,11,0,0,0,2,"[0, 18, 27, 17, 8, 15, 11, 28, 2]",9,2,"[5, 22]",59.98893377,16589,1059,2,0,11,1.3446894956422268
undo,73,11,0,0,0,22,"[0, 18, 27, 17, 8, 15, 11, 28, 2, 22]",10,1,[5],49.93905815,17667,1078,1,0,11,1.3263453016852544
undo,73,11,0,0,1,5,"[0, 18, 27, 17, 8, 15, 11, 28, 2, 22, 5]",11,0,[],23.36839764,19941,2274,1,0,11,1.7003292481427408
undo,73,11,0,1,1,5,"[0, 18, 27, 17, 8, 15, 11, 28, 2, 22, 5]",11,0,[],23.36839764,20444,503,1,0,11,1.7003292481427408
undo,74,27,0,0,0,0,[0],1,26,"[1, 3, 5, 6, 7, 8, 9, 10, 11, 12, 13, 14, 15, 16, 17, 18, 19, 21, 22, 23, 24, 25, 26, 27, 28, 29]",300,152,-1,13,578,11,0.0
undo,74,27,0,0,0,15,"[0, 15]",2,24,"[1, 3, 5, 6, 7, 8, 9, 10, 11, 12, 13, 14, 16, 17, 18, 19, 21, 22, 23, 24, 25, 26, 27, 29]",263.7508621,2358,2206,6,219,11,1.0
undo,74,27,0,0,0,24,"[0, 15, 24]",3,20,"[1, 5, 6, 7, 8, 9, 10, 12, 13, 14, 16, 17, 18, 19, 21, 23, 25, 26, 27, 29]",246.5462115,4704,2346,6,130,11,1.130933077698322
undo,74,27,0,0,0,17,"[0, 15, 24, 17]",4,15,"[1, 6, 8, 10, 12, 13, 14, 16, 18, 19, 23, 25, 26, 27, 29]",229.9932662,5679,975,4,60,11,1.1285538435963374
undo,74,27,0,0,0,12,"[0, 15, 24, 17, 12]",5,14,"[1, 6, 8, 10, 13, 14, 16, 18, 19, 23, 25, 26, 27, 29]",218.8129263,6909,1230,2,32,11,1.2561880288755216
undo,74,27,0,0,0,10,"[0, 15, 24, 17, 12, 10]",6,11,"[1, 8, 13, 14, 18, 19, 23, 25, 26, 27, 29]",207.7675653,8355,1446,2,28,11,1.2228289337766665
undo,74,27,0,0,0,13,"[0, 15, 24, 17, 12, 10, 13]",7,9,"[1, 8, 14, 18, 19, 23, 26, 27, 29]",167.9178476,9945,1590,2,18,11,1.3421291994761178
undo,74,27,0,0,0,19,"[0, 15, 24, 17, 12, 10, 13, 19]",8,5,"[1, 8, 14, 23, 29]",131.6825057,11012,1067,2,6,11,1.294749956153846
undo,74,27,0,0,0,8,"[0, 15, 24, 17, 12, 10, 13, 19, 8]",9,3,"[14, 23, 29]",116.816437,12599,1587,2,1,11,1.3554286578836865
undo,74,27,0,0,0,29,"[0, 15, 24, 17, 12, 10, 13, 19, 8, 29]",10,1,[14],57.61339652,14472,1873,1,0,11,1.248354519573802
undo,74,27,0,0,1,14,"[0, 15, 24, 17, 12, 10, 13, 19, 8, 29, 14]",11,0,[],13.31892734,15550,1078,1,0,11,1.562811097555156
undo,74,27,0,1,1,14,"[0, 15, 24, 17, 12, 10, 13, 19, 8, 29, 14]",11,0,[],13.31892734,16016,466,1,0,11,1.562811097555156
undo,75,36,0,0,0,0,[0],1,24,"[2, 4, 5, 6, 7, 8, 9, 10, 12, 13, 14, 15, 16, 17, 18, 19, 20, 22, 23, 25, 26, 27, 28, 29]",300,137,-1,2,200,10,0.0
undo,75,36,0,0,0,9,"[0, 9]",2,16,"[2, 4, 8, 10, 12, 13, 16, 17, 18, 19, 23, 25, 26, 27, 28, 29]",230.9348134,4320,4183,81,367,8,1.0
undo,75,36,0,0,0,17,"[0, 9, 17]",3,13,"[2, 4, 8, 10, 12, 13, 16, 18, 19, 23, 25, 27, 29]",204.6860039,5555,1235,22,90,8,1.0084584538853834
undo,75,36,0,0,0,19,"[0, 9, 17, 19]",4,12,"[2, 4, 8, 10, 12, 13, 16, 18, 23, 25, 27, 29]",176.7933525,7390,1835,8,25,8,1.5984695375617641
undo,75,36,0,0,0,2,"[0, 9, 17, 19, 2]",5,8,"[8, 10, 12, 13, 16, 18, 25, 27]",139.6719302,9919,2529,3,6,8,1.4197222355264698
undo,75,36,0,0,0,25,"[0, 9, 17, 19, 2, 25]",6,4,"[10, 12, 13, 16]",114.6719302,12608,2689,2,3,8,1.618724672336267
undo,75,36,0,0,0,13,"[0, 9, 17, 19, 2, 25, 13]",7,2,"[10, 12]",94.08066987,13995,1387,2,0,8,2.099469552875175
undo,75,36,0,0,1,10,"[0, 9, 17, 19, 2, 25, 13, 10]",8,0,[],18.12015381,16202,2207,1,0,8,1.6206951644697016
undo,75,36,0,1,1,10,"[0, 9, 17, 19, 2, 25, 13, 10]",8,0,[],18.12015381,16670,468,1,0,8,1.6206951644697016
undo,76,41,0,0,0,0,[0],1,29,"[1, 2, 3, 4, 5, 6, 7, 8, 9, 10, 11, 12, 13, 14, 15, 16, 17, 18, 19, 20, 21, 22, 23, 24, 25, 26, 27, 28, 29]",300,139,-1,1,143,10,0.0
undo,76,41,0,0,0,5,"[0, 5]",2,27,"[1, 2, 3, 6, 7, 8, 9, 10, 11, 12, 13, 14, 15, 16, 17, 18, 19, 20, 21, 22, 23, 24, 25, 26, 27, 28, 29]",268.6152903,2272,2133,38,328,9,1.0
undo,76,41,0,0,0,28,"[0, 5, 28]",3,25,"[1, 2, 3, 6, 7, 8, 9, 10, 11, 12, 13, 14, 15, 16, 17, 18, 19, 20, 21, 22, 23, 24, 25, 26, 27]",255.0138198,3469,1197,28,163,9,1.1190730586122064
undo,76,41,0,0,0,3,"[0, 5, 28, 3]",4,24,"[1, 2, 6, 7, 8, 9, 10, 11, 12, 13, 14, 15, 16, 17, 18, 19, 20, 21, 22, 23, 24, 25, 26, 27]",206.909766,6418,2949,15,68,9,2.349385563551875
undo,76,41,0,0,0,21,"[0, 5, 28, 3, 21]",5,19,"[1, 2, 6, 9, 10, 11, 12, 13, 14, 15, 17, 18, 19, 20, 22, 24, 25, 26, 27]",174.7694486,7624,1206,9,33,9,2.562136231636287
undo,76,41,0,0,0,9,"[0, 5, 28, 3, 21, 9]",6,12,"[1, 2, 10, 12, 13, 14, 15, 17, 19, 22, 24, 25]",125.4034684,8855,1231,2,11,9,2.121666589027489
undo,76,41,0,0,0,2,"[0, 5, 28, 3, 21, 9, 2]",7,8,"[1, 10, 12, 14, 15, 17, 19, 22]",113.3204224,10067,1212,2,6,9,2.063293164398105
undo,76,41,0,0,0,17,"[0, 5, 28, 3, 21, 9, 2, 17]",8,1,[10],80.76278124,12722,2655,1,0,9,3.4586715200102542
undo,76,41,0,0,1,10,"[0, 5, 28, 3, 21, 9, 2, 17, 10]",9,0,[],31.51849223,14410,1688,1,0,9,3.173575754184798
undo,76,41,0,1,1,10,"[0, 5, 28, 3, 21, 9, 2, 17, 10]",9,0,[],31.51849223,14876,466,1,0,9,3.173575754184798
