condition,trial_id,map_id,undoIndicator,submit,checkEnd,currentChoice,chosen_all,n_city_all,n_within_reach,cities_reach,currentBudget,time_all,rt_all,n_opt_paths_all,n_subopt_paths_all,mas_all,tortuosity_all
basic,0,4,0,0,0,0,[0],1,26,"[3, 4, 5, 6, 7, 8, 10, 11, 12, 13, 14, 15, 16, 17, 18, 19, 20, 21, 22, 23, 24, 25, 26, 27, 28, 29]",300,209,-1,4,489,10,0.0
basic,0,4,0,0,0,28,"[0, 28]",2,21,"[3, 4, 5, 6, 10, 11, 12, 13, 14, 15, 16, 17, 19, 20, 21, 22, 23, 24, 25, 26, 27]",225.9392142,4680,4471,2,216,10,1.0
basic,0,4,0,0,0,14,"[0, 28, 14]",3,13,"[3, 4, 5, 6, 11, 13, 16, 17, 20, 21, 22, 24, 25]",159.6972335,6117,1437,1,26,10,1.0273973946789214
basic,0,4,0,0,0,25,"[0, 28, 14, 25]",4,12,"[3, 4, 5, 6, 11, 13, 16, 17, 20, 21, 22, 24]",143.572718,7169,1052,1,25,10,1.233547772313525
basic,0,4,0,0,0,11,"[0, 28, 14, 25, 11]",5,10,"[3, 4, 5, 6, 13, 16, 17, 20, 21, 22]",124.7844238,8106,937,1,15,10,1.425978575879479
basic,0,4,0,0,0,16,"[0, 28, 14, 25, 11, 16]",6,9,"[3, 4, 5, 6, 13, 17, 20, 21, 22]",109.7844238,9562,1456,1,12,10,1.3799325158051412
basic,0,4,0,0,0,17,"[0, 28, 14, 25, 11, 16, 17]",7,5,"[3, 5, 20, 21, 22]",83.70761416,11162,1600,1,5,10,1.3195184878861832
basic,0,4,0,0,0,21,"[0, 28, 14, 25, 11, 16, 17, 21]",8,1,[22],34.45317274,12521,1359,1,0,9,1.7966566629354186
basic,0,4,0,0,1,22,"[0, 28, 14, 25, 11, 16, 17, 21, 22]",9,0,[],23.40781172,13711,1190,1,0,9,1.7433011729935863
basic,0,4,0,1,1,22,"[0, 28, 14, 25, 11, 16, 17, 21, 22]",9,0,[],23.40781172,17246,3535,1,0,9,1.7433011729935863
basic,1,44,0,0,0,0,[0],1,29,"[1, 2, 3, 4, 5, 6, 7, 8, 9, 10, 11, 12, 13, 14, 15, 16, 17, 18, 19, 20, 21, 22, 23, 24, 25, 26, 27, 28, 29]",300,252,-1,13,126,7,0.0
basic,1,44,0,0,0,8,"[0, 8]",2,17,"[1, 4, 5, 7, 9, 10, 11, 12, 13, 14, 15, 20, 21, 23, 24, 25, 27]",145.7923478,13536,13284,1,10,7,1.0
basic,1,44,0,0,0,20,"[0, 8, 20]",3,16,"[1, 4, 5, 7, 9, 10, 11, 12, 13, 14, 15, 21, 23, 24, 25, 27]",133.7093018,14428,892,1,9,7,1.0890794433668698
basic,1,44,0,0,0,9,"[0, 8, 20, 9]",4,7,"[4, 7, 11, 12, 14, 23, 24]",76.43801756,17585,3157,1,6,7,1.40892325509949
basic,1,44,0,0,0,4,"[0, 8, 20, 9, 4]",5,4,"[7, 12, 23, 24]",56.74030196,18974,1389,1,3,7,1.3849770570803555
basic,1,44,0,0,0,7,"[0, 8, 20, 9, 4, 7]",6,1,[23],25.72417712,23401,4427,1,0,7,1.3274380931474288
basic,1,44,0,0,1,23,"[0, 8, 20, 9, 4, 7, 23]",7,0,[],6.619203947,24487,1086,1,0,7,1.3395824779823196
basic,1,44,0,1,1,23,"[0, 8, 20, 9, 4, 7, 23]",7,0,[],6.619203947,25874,1387,1,0,7,1.3395824779823196
basic,2,38,0,0,0,0,[0],1,29,"[1, 2, 3, 4, 5, 6, 7, 8, 9, 10, 11, 12, 13, 14, 15, 16, 17, 18, 19, 20, 21, 22, 23, 24, 25, 26, 27, 28, 29]",300,209,-1,33,506,9,0.0
basic,2,38,0,0,0,4,"[0, 4]",2,26,"[1, 3, 5, 6, 7, 9, 10, 11, 12, 13, 14, 15, 16, 17, 18, 19, 20, 21, 22, 23, 24, 25, 26, 27, 28, 29]",229.8858074,13007,12798,34,378,8,1.0
basic,2,38,0,0,0,15,"[0, 4, 15]",3,20,"[1, 3, 5, 7, 10, 11, 12, 13, 14, 16, 17, 18, 19, 20, 22, 24, 25, 26, 27, 28]",203.8858074,16319,3312,18,123,8,1.3098905120776736
basic,2,38,0,0,0,16,"[0, 4, 15, 16]",4,12,"[5, 10, 11, 12, 13, 14, 17, 19, 20, 24, 26, 28]",162.2685033,17682,1363,5,28,8,1.2587802282961036
basic,2,38,0,0,0,28,"[0, 4, 15, 16, 28]",5,10,"[5, 10, 11, 12, 13, 14, 17, 20, 24, 26]",133.2685033,18623,941,3,12,8,1.561241201606665
basic,2,38,0,0,0,14,"[0, 4, 15, 16, 28, 14]",6,2,"[10, 12]",77.82483823,19757,1134,1,1,8,1.4345828796800386
basic,2,38,0,0,0,12,"[0, 4, 15, 16, 28, 14, 12]",7,1,[10],63.06001517,20918,1161,1,0,8,1.3969342747509215
basic,2,38,0,0,1,10,"[0, 4, 15, 16, 28, 14, 12, 10]",8,0,[],14.55228383,22466,1548,1,0,8,1.8161132764985657
basic,2,38,0,1,1,10,"[0, 4, 15, 16, 28, 14, 12, 10]",8,0,[],14.55228383,23708,1242,1,0,8,1.8161132764985657
basic,3,0,0,0,0,0,[0],1,27,"[2, 3, 4, 5, 6, 7, 8, 9, 10, 11, 12, 13, 14, 15, 16, 17, 19, 20, 21, 22, 23, 24, 25, 26, 27, 28, 29]",300,216,-1,104,1136,9,0.0
basic,3,0,0,0,0,28,"[0, 28]",2,26,"[2, 3, 4, 5, 6, 7, 8, 9, 10, 11, 12, 13, 14, 15, 16, 17, 19, 20, 21, 22, 23, 24, 25, 26, 27, 29]",194.9190788,3735,3519,39,388,9,1.0
basic,3,0,0,0,0,5,"[0, 28, 5]",3,21,"[2, 3, 4, 7, 8, 9, 11, 12, 13, 14, 15, 16, 17, 19, 20, 21, 23, 24, 25, 26, 29]",151.2613189,5050,1315,27,210,9,1.0978295127671733
basic,3,0,0,0,0,4,"[0, 28, 5, 4]",4,16,"[3, 7, 8, 9, 11, 12, 13, 14, 15, 17, 19, 20, 21, 23, 24, 26]",126.1814465,6842,1792,17,114,9,1.1103727063761901
basic,3,0,0,0,0,24,"[0, 28, 5, 4, 24]",5,12,"[3, 7, 8, 9, 11, 12, 15, 17, 19, 20, 23, 26]",114.7796922,7840,998,10,46,9,1.1102188371994124
basic,3,0,0,0,0,15,"[0, 28, 5, 4, 24, 15]",6,9,"[3, 7, 8, 9, 11, 12, 17, 19, 26]",91.43445718,9419,1579,6,13,9,1.1033515194628531
basic,3,0,0,0,0,7,"[0, 28, 5, 4, 24, 15, 7]",7,5,"[3, 8, 17, 19, 26]",60.37000804,11389,1970,5,3,9,1.1688711639523348
basic,3,0,0,0,0,3,"[0, 28, 5, 4, 24, 15, 7, 3]",8,3,"[8, 17, 19]",36.28681888,13974,2585,3,0,9,1.216612353520435
basic,3,0,0,0,1,19,"[0, 28, 5, 4, 24, 15, 7, 3, 19]",9,0,[],4.037787892,15365,1391,1,0,9,1.1922238310060893
basic,3,0,0,1,1,19,"[0, 28, 5, 4, 24, 15, 7, 3, 19]",9,0,[],4.037787892,16635,1270,1,0,9,1.1922238310060893
basic,4,29,0,0,0,0,[0],1,29,"[1, 2, 3, 4, 5, 6, 7, 8, 9, 10, 11, 12, 13, 14, 15, 16, 17, 18, 19, 20, 21, 22, 23, 24, 25, 26, 27, 28, 29]",300,263,-1,1,78,9,0.0
basic,4,29,0,0,0,6,"[0, 6]",2,28,"[1, 2, 3, 4, 5, 7, 8, 9, 10, 11, 12, 13, 14, 15, 16, 17, 18, 19, 20, 21, 22, 23, 24, 25, 26, 27, 28, 29]",228.4108947,5279,5016,1,25,9,1.0
basic,4,29,0,0,0,28,"[0, 6, 28]",3,24,"[1, 3, 4, 5, 7, 9, 10, 11, 12, 13, 14, 15, 16, 17, 18, 20, 21, 22, 23, 24, 25, 26, 27, 29]",187.1798384,6299,1020,1,22,9,1.162106788166845
basic,4,29,0,0,0,27,"[0, 6, 28, 27]",4,19,"[1, 3, 4, 5, 7, 9, 10, 11, 12, 13, 14, 15, 16, 21, 22, 23, 25, 26, 29]",166.6615539,7490,1191,1,21,9,1.2307173895439045
basic,4,29,0,0,0,22,"[0, 6, 28, 27, 22]",5,13,"[1, 3, 4, 5, 7, 9, 12, 13, 14, 15, 21, 26, 29]",133.4200136,8736,1246,1,19,9,1.4241767805149903
basic,4,29,0,0,0,12,"[0, 6, 28, 27, 22, 12]",6,8,"[4, 5, 7, 9, 13, 14, 21, 26]",95.4726817,9986,1250,1,6,9,1.3248355326460857
basic,4,29,0,0,0,7,"[0, 6, 28, 27, 22, 12, 7]",7,4,"[4, 5, 9, 21]",81.87121119,10983,997,1,3,9,1.3264091962339806
basic,4,29,0,0,0,9,"[0, 6, 28, 27, 22, 12, 7, 9]",8,1,[4],52.80232748,14095,3112,1,0,9,1.309391257644539
basic,4,29,0,0,1,4,"[0, 6, 28, 27, 22, 12, 7, 9, 4]",9,0,[],11.76575843,15333,1238,1,0,9,1.6396807789841599
basic,4,29,0,1,1,4,"[0, 6, 28, 27, 22, 12, 7, 9, 4]",9,0,[],11.76575843,16625,1292,1,0,9,1.6396807789841599
basic,5,27,0,0,0,0,[0],1,26,"[1, 3, 5, 6, 7, 8, 9, 10, 11, 12, 13, 14, 15, 16, 17, 18, 19, 21, 22, 23, 24, 25, 26, 27, 28, 29]",300,271,-1,13,578,11,0.0
basic,5,27,0,0,0,15,"[0, 15]",2,24,"[1, 3, 5, 6, 7, 8, 9, 10, 11, 12, 13, 14, 16, 17, 18, 19, 21, 22, 23, 24, 25, 26, 27, 29]",263.7508621,2763,2492,6,219,11,1.0
basic,5,27,0,0,0,24,"[0, 15, 24]",3,20,"[1, 5, 6, 7, 8, 9, 10, 12, 13, 14, 16, 17, 18, 19, 21, 23, 25, 26, 27, 29]",246.5462115,4082,1319,6,130,11,1.130933077698322
basic,5,27,0,0,0,17,"[0, 15, 24, 17]",4,15,"[1, 6, 8, 10, 12, 13, 14, 16, 18, 19, 23, 25, 26, 27, 29]",229.9932662,4918,836,4,60,11,1.1285538435963374
basic,5,27,0,0,0,12,"[0, 15, 24, 17, 12]",5,14,"[1, 6, 8, 10, 13, 14, 16, 18, 19, 23, 25, 26, 27, 29]",218.8129263,5766,848,2,32,11,1.2561880288755216
basic,5,27,0,0,0,10,"[0, 15, 24, 17, 12, 10]",6,11,"[1, 8, 13, 14, 18, 19, 23, 25, 26, 27, 29]",207.7675653,6650,884,2,28,11,1.2228289337766665
basic,5,27,0,0,0,13,"[0, 15, 24, 17, 12, 10, 13]",7,9,"[1, 8, 14, 18, 19, 23, 26, 27, 29]",167.9178476,7793,1143,2,18,11,1.3421291994761178
basic,5,27,0,0,0,19,"[0, 15, 24, 17, 12, 10, 13, 19]",8,5,"[1, 8, 14, 23, 29]",131.6825057,8886,1093,2,6,11,1.294749956153846
basic,5,27,0,0,0,8,"[0, 15, 24, 17, 12, 10, 13, 19, 8]",9,3,"[14, 23, 29]",116.816437,10229,1343,2,1,11,1.3554286578836865
basic,5,27,0,0,0,14,"[0, 15, 24, 17, 12, 10, 13, 19, 8, 14]",10,1,[29],59.25777126,14445,4216,1,0,11,1.312380420632942
basic,5,27,0,0,1,29,"[0, 15, 24, 17, 12, 10, 13, 19, 8, 14, 29]",11,0,[],14.96330208,15628,1183,1,0,11,1.4680136813839417
basic,5,27,0,1,1,29,"[0, 15, 24, 17, 12, 10, 13, 19, 8, 14, 29]",11,0,[],14.96330208,17097,1469,1,0,11,1.4680136813839417
basic,6,17,0,0,0,0,[0],1,28,"[1, 2, 3, 4, 5, 6, 7, 8, 9, 10, 11, 12, 13, 14, 15, 16, 17, 18, 19, 20, 22, 23, 24, 25, 26, 27, 28, 29]",300,224,-1,2,73,8,0.0
basic,6,17,0,0,0,5,"[0, 5]",2,8,"[3, 4, 10, 11, 13, 19, 22, 28]",120.3726079,4705,4481,6,13,5,1.0
basic,6,17,0,0,0,28,"[0, 5, 28]",3,7,"[3, 4, 10, 11, 13, 19, 22]",81.88884507,6170,1465,4,5,5,1.0509824968615056
basic,6,17,0,0,0,3,"[0, 5, 28, 3]",4,2,"[10, 11]",47.88884507,9693,3523,2,0,5,1.3308698504110508
basic,6,17,0,0,1,11,"[0, 5, 28, 3, 11]",5,0,[],21.71634041,11068,1375,1,0,5,1.3720045835979493
basic,6,17,0,1,1,11,"[0, 5, 28, 3, 11]",5,0,[],21.71634041,12732,1664,1,0,5,1.3720045835979493
basic,7,24,0,0,0,0,[0],1,29,"[1, 2, 3, 4, 5, 6, 7, 8, 9, 10, 11, 12, 13, 14, 15, 16, 17, 18, 19, 20, 21, 22, 23, 24, 25, 26, 27, 28, 29]",300,258,-1,4,76,10,0.0
basic,7,24,0,0,0,16,"[0, 16]",2,28,"[1, 2, 3, 4, 5, 6, 7, 8, 9, 10, 11, 12, 13, 14, 15, 17, 18, 19, 20, 21, 22, 23, 24, 25, 26, 27, 28, 29]",210.3562607,5095,4837,13,110,9,1.0
basic,7,24,0,0,0,22,"[0, 16, 22]",3,27,"[1, 2, 3, 4, 5, 6, 7, 8, 9, 10, 11, 12, 13, 14, 15, 17, 18, 19, 20, 21, 23, 24, 25, 26, 27, 28, 29]",192.3285043,6300,1205,7,54,9,1.0217425143037777
basic,7,24,0,0,0,15,"[0, 16, 22, 15]",4,24,"[2, 3, 4, 5, 6, 7, 8, 9, 10, 11, 12, 13, 14, 17, 18, 19, 21, 23, 24, 25, 26, 27, 28, 29]",171.1153009,7555,1255,3,24,9,1.077448994301009
basic,7,24,0,0,0,28,"[0, 16, 22, 15, 28]",5,12,"[3, 4, 6, 8, 9, 11, 13, 21, 23, 25, 26, 27]",125.8383752,8491,936,2,10,9,1.0579370080485104
basic,7,24,0,0,0,23,"[0, 16, 22, 15, 28, 23]",6,7,"[3, 4, 8, 9, 11, 13, 27]",106.8120776,9761,1270,2,4,9,1.0965087965469686
basic,7,24,0,0,0,11,"[0, 16, 22, 15, 28, 23, 11]",7,2,"[9, 27]",79.88625355,12246,2485,2,0,9,1.0958394317987046
basic,7,24,0,0,0,27,"[0, 16, 22, 15, 28, 23, 11, 27]",8,1,[9],52.083376,14597,2351,1,0,9,1.085465547106356
basic,7,24,0,0,1,9,"[0, 16, 22, 15, 28, 23, 11, 27, 9]",9,0,[],12.52329511,16519,1922,1,0,9,1.3543056893413161
basic,7,24,0,1,1,9,"[0, 16, 22, 15, 28, 23, 11, 27, 9]",9,0,[],12.52329511,17864,1345,1,0,9,1.3543056893413161
basic,8,32,0,0,0,0,[0],1,29,"[1, 2, 3, 4, 5, 6, 7, 8, 9, 10, 11, 12, 13, 14, 15, 16, 17, 18, 19, 20, 21, 22, 23, 24, 25, 26, 27, 28, 29]",300,198,-1,17,359,10,0.0
basic,8,32,0,0,0,19,"[0, 19]",2,28,"[1, 2, 3, 4, 5, 6, 7, 8, 9, 10, 11, 12, 13, 14, 15, 16, 17, 18, 20, 21, 22, 23, 24, 25, 26, 27, 28, 29]",283.5075775,11386,11188,16,294,10,1.0
basic,8,32,0,0,0,15,"[0, 19, 15]",3,21,"[2, 3, 5, 7, 8, 9, 10, 11, 12, 13, 14, 16, 17, 20, 22, 23, 24, 25, 26, 27, 28]",197.7987681,12734,1348,2,52,10,1.19699508325577
basic,8,32,0,0,0,28,"[0, 19, 15, 28]",4,19,"[2, 3, 5, 7, 8, 9, 10, 11, 12, 13, 16, 17, 20, 22, 23, 24, 25, 26, 27]",186.3970139,14019,1285,2,41,10,1.1739755297768444
basic,8,32,0,0,0,12,"[0, 19, 15, 28, 12]",5,17,"[2, 3, 5, 7, 8, 9, 10, 11, 13, 16, 17, 20, 22, 23, 24, 26, 27]",167.4233479,16151,2132,2,25,10,1.177540715424265
basic,8,32,0,0,0,16,"[0, 19, 15, 28, 12, 16]",6,16,"[2, 3, 5, 7, 8, 9, 10, 11, 13, 17, 20, 22, 23, 24, 26, 27]",151.7708721,17976,1825,2,17,10,1.2623133279216439
basic,8,32,0,0,0,27,"[0, 19, 15, 28, 12, 16, 27]",7,4,"[3, 7, 11, 24]",75.49505679,22771,4795,4,2,9,1.2268029683606556
basic,8,32,0,0,0,3,"[0, 19, 15, 28, 12, 16, 27, 3]",8,2,"[7, 11]",49.99995922,25050,2279,2,0,9,1.2270097671610596
basic,8,32,0,0,1,11,"[0, 19, 15, 28, 12, 16, 27, 3, 11]",9,0,[],34.37945987,27519,2469,1,0,9,1.259884282787441
basic,8,32,0,1,1,11,"[0, 19, 15, 28, 12, 16, 27, 3, 11]",9,0,[],34.37945987,28932,1413,1,0,9,1.259884282787441
basic,9,13,0,0,0,0,[0],1,29,"[1, 2, 3, 4, 5, 6, 7, 8, 9, 10, 11, 12, 13, 14, 15, 16, 17, 18, 19, 20, 21, 22, 23, 24, 25, 26, 27, 28, 29]",300,243,-1,60,2676,11,0.0
basic,9,13,0,0,0,24,"[0, 24]",2,28,"[1, 2, 3, 4, 5, 6, 7, 8, 9, 10, 11, 12, 13, 14, 15, 16, 17, 18, 19, 20, 21, 22, 23, 25, 26, 27, 28, 29]",288.8196601,2965,2722,16,1444,11,1.0
basic,9,13,0,0,0,28,"[0, 24, 28]",3,23,"[1, 2, 3, 4, 6, 7, 8, 9, 10, 11, 12, 13, 15, 16, 17, 19, 20, 21, 22, 23, 26, 27, 29]",222.5324064,4315,1350,8,243,11,1.0513810491680837
basic,9,13,0,0,0,2,"[0, 24, 28, 2]",4,19,"[1, 3, 4, 6, 7, 9, 11, 12, 13, 15, 16, 17, 19, 20, 21, 23, 26, 27, 29]",184.889346,5294,979,7,110,11,1.050374132001543
basic,9,13,0,0,0,29,"[0, 24, 28, 2, 29]",5,18,"[1, 3, 4, 6, 7, 9, 11, 12, 13, 15, 16, 17, 19, 20, 21, 23, 26, 27]",173.1846461,6249,955,7,85,11,1.1393409619120594
basic,9,13,0,0,0,7,"[0, 24, 28, 2, 29, 7]",6,17,"[1, 3, 4, 6, 9, 11, 12, 13, 15, 16, 17, 19, 20, 21, 23, 26, 27]",157.9203086,7085,836,5,45,11,1.349777315111579
basic,9,13,0,0,0,26,"[0, 24, 28, 2, 29, 7, 26]",7,16,"[1, 3, 4, 6, 9, 11, 12, 13, 15, 16, 17, 19, 20, 21, 23, 27]",147.480002,8066,981,5,25,11,1.5942082773824946
basic,9,13,0,0,0,6,"[0, 24, 28, 2, 29, 7, 26, 6]",8,12,"[1, 3, 4, 11, 13, 15, 16, 17, 19, 20, 23, 27]",127.3802508,13039,4973,4,12,11,1.5898347940840756
basic,9,13,0,0,0,11,"[0, 24, 28, 2, 29, 7, 26, 6, 11]",9,6,"[1, 13, 15, 16, 17, 23]",108.2752776,14028,989,3,4,11,1.5029953945561012
basic,9,13,0,0,0,17,"[0, 24, 28, 2, 29, 7, 26, 6, 11, 17]",10,1,[13],36.68617231,15795,1767,1,0,11,1.324993060397683
basic,9,13,0,0,1,13,"[0, 24, 28, 2, 29, 7, 26, 6, 11, 17, 13]",11,0,[],3.309533775,16862,1067,1,0,11,1.6349870606446535
basic,9,13,0,1,1,13,"[0, 24, 28, 2, 29, 7, 26, 6, 11, 17, 13]",11,0,[],3.309533775,18352,1490,1,0,11,1.6349870606446535
basic,10,37,0,0,0,0,[0],1,29,"[1, 2, 3, 4, 5, 6, 7, 8, 9, 10, 11, 12, 13, 14, 15, 16, 17, 18, 19, 20, 21, 22, 23, 24, 25, 26, 27, 28, 29]",300,260,-1,6,168,10,0.0
basic,10,37,0,0,0,18,"[0, 18]",2,19,"[1, 2, 4, 6, 7, 9, 10, 12, 14, 15, 17, 19, 20, 21, 22, 23, 26, 28, 29]",202.4090168,5256,4996,6,89,10,1.0
basic,10,37,0,0,0,7,"[0, 18, 7]",3,12,"[1, 2, 4, 9, 15, 17, 19, 20, 21, 22, 26, 29]",175.2428614,6213,957,6,53,10,1.0413073512834488
basic,10,37,0,0,0,22,"[0, 18, 7, 22]",4,8,"[1, 2, 4, 15, 19, 20, 21, 26]",125.2428614,7146,933,6,29,10,1.0730792320325544
basic,10,37,0,0,0,4,"[0, 18, 7, 22, 4]",5,7,"[1, 2, 15, 19, 20, 21, 26]",100.2428614,8399,1253,4,16,10,1.2290245562206235
basic,10,37,0,0,0,2,"[0, 18, 7, 22, 4, 2]",6,5,"[1, 15, 19, 20, 21]",88.84110714,9114,715,4,7,10,1.3968113858365216
basic,10,37,0,0,0,1,"[0, 18, 7, 22, 4, 2, 1]",7,4,"[15, 19, 20, 21]",71.63645661,9894,780,4,3,10,1.4424239294761476
basic,10,37,0,0,0,15,"[0, 18, 7, 22, 4, 2, 1, 15]",8,2,"[20, 21]",31.67397421,11538,1644,2,0,10,1.612564167414217
basic,10,37,0,0,0,21,"[0, 18, 7, 22, 4, 2, 1, 15, 21]",9,1,[20],16.67397421,13163,1625,1,0,10,1.8256316004901285
basic,10,37,0,0,1,20,"[0, 18, 7, 22, 4, 2, 1, 15, 21, 20]",10,0,[],2.251769103,14175,1012,1,0,10,1.9863570569415172
basic,10,37,0,1,1,20,"[0, 18, 7, 22, 4, 2, 1, 15, 21, 20]",10,0,[],2.251769103,15350,1175,1,0,10,1.9863570569415172
basic,11,25,0,0,0,0,[0],1,28,"[1, 2, 3, 4, 5, 7, 8, 9, 10, 11, 12, 13, 14, 15, 16, 17, 18, 19, 20, 21, 22, 23, 24, 25, 26, 27, 28, 29]",300,266,-1,5,94,10,0.0
basic,11,25,0,0,0,23,"[0, 23]",2,23,"[1, 2, 3, 5, 7, 8, 9, 11, 12, 13, 14, 16, 17, 19, 20, 21, 22, 24, 25, 26, 27, 28, 29]",259.7756293,4896,4630,3,33,10,1.0
basic,11,25,0,0,0,19,"[0, 23, 19]",3,21,"[1, 2, 3, 5, 7, 8, 9, 11, 12, 13, 14, 16, 17, 20, 21, 22, 24, 25, 27, 28, 29]",223.9287326,5837,941,3,24,10,1.583101227007039
basic,11,25,0,0,0,29,"[0, 23, 19, 29]",4,19,"[1, 2, 3, 5, 7, 8, 9, 11, 12, 13, 14, 16, 17, 20, 21, 22, 24, 25, 28]",207.649912,6769,932,3,17,10,1.474631541426484
basic,11,25,0,0,0,22,"[0, 23, 19, 29, 22]",5,18,"[1, 2, 3, 5, 7, 8, 9, 11, 12, 13, 14, 16, 17, 20, 21, 24, 25, 28]",191.5253965,7677,908,3,14,10,1.4020377754906637
basic,11,25,0,0,0,7,"[0, 23, 19, 29, 22, 7]",6,7,"[3, 8, 9, 11, 13, 24, 28]",115.8814939,8863,1186,3,11,10,1.5709678649326715
basic,11,25,0,0,0,24,"[0, 23, 19, 29, 22, 7, 24]",7,5,"[3, 8, 9, 13, 28]",91.12265712,9804,941,3,7,10,1.486191600033379
basic,11,25,0,0,0,9,"[0, 23, 19, 29, 22, 7, 24, 9]",8,4,"[3, 8, 13, 28]",73.09490075,11276,1472,3,3,10,1.453504870342882
basic,11,25,0,0,0,3,"[0, 23, 19, 29, 22, 7, 24, 9, 3]",9,3,"[8, 13, 28]",42.82940885,13318,2042,3,0,10,1.388955167525479
basic,11,25,0,0,1,13,"[0, 23, 19, 29, 22, 7, 24, 9, 3, 13]",10,0,[],11.58841014,15369,2051,1,0,10,1.4309045890044414
basic,11,25,0,1,1,13,"[0, 23, 19, 29, 22, 7, 24, 9, 3, 13]",10,0,[],11.58841014,16205,836,1,0,10,1.4309045890044414
basic,12,10,0,0,0,0,[0],1,29,"[1, 2, 3, 4, 5, 6, 7, 8, 9, 10, 11, 12, 13, 14, 15, 16, 17, 18, 19, 20, 21, 22, 23, 24, 25, 26, 27, 28, 29]",300,262,-1,1,100,9,0.0
basic,12,10,0,0,0,13,"[0, 13]",2,25,"[1, 2, 3, 4, 6, 7, 8, 9, 10, 11, 12, 14, 17, 18, 19, 20, 21, 22, 23, 24, 25, 26, 27, 28, 29]",249.4628849,6827,6565,1,79,9,1.0
basic,12,10,0,0,0,11,"[0, 13, 11]",3,20,"[1, 2, 3, 6, 7, 8, 9, 10, 12, 14, 18, 19, 20, 21, 22, 24, 26, 27, 28, 29]",206.4512586,7936,1109,1,54,9,1.0313137484914219
basic,12,10,0,0,0,19,"[0, 13, 11, 19]",4,11,"[2, 6, 8, 9, 10, 14, 18, 20, 24, 26, 27]",170.0919407,8805,869,1,22,9,1.0879446220132545
basic,12,10,0,0,0,2,"[0, 13, 11, 19, 2]",5,4,"[14, 20, 26, 27]",126.1829439,9831,1026,1,4,9,1.06474052351343
basic,12,10,0,0,0,14,"[0, 13, 11, 19, 2, 14]",6,3,"[20, 26, 27]",114.0174188,10699,868,1,3,9,1.1628909195912238
basic,12,10,0,0,0,26,"[0, 13, 11, 19, 2, 14, 26]",7,2,"[20, 27]",79.34754716,11688,989,1,1,9,1.6660727647633602
basic,12,10,0,0,0,20,"[0, 13, 11, 19, 2, 14, 26, 20]",8,1,[27],47.56704999,12740,1052,1,0,9,2.085581809637999
basic,12,10,0,0,1,27,"[0, 13, 11, 19, 2, 14, 26, 20, 27]",9,0,[],2.312215998,13964,1224,1,0,9,1.9116357409137932
basic,12,10,0,1,1,27,"[0, 13, 11, 19, 2, 14, 26, 20, 27]",9,0,[],2.312215998,14803,839,1,0,9,1.9116357409137932
basic,13,36,0,0,0,0,[0],1,24,"[2, 4, 5, 6, 7, 8, 9, 10, 12, 13, 14, 15, 16, 17, 18, 19, 20, 22, 23, 25, 26, 27, 28, 29]",300,263,-1,2,200,10,0.0
basic,13,36,0,0,0,12,"[0, 12]",2,23,"[2, 4, 5, 6, 7, 8, 9, 10, 13, 14, 15, 16, 17, 18, 19, 20, 22, 23, 25, 26, 27, 28, 29]",277.7963967,4558,4295,90,804,9,1.0
basic,13,36,0,0,0,16,"[0, 12, 16]",3,10,"[2, 9, 10, 13, 17, 18, 19, 23, 25, 27]",171.6267212,7244,2686,4,38,9,1.202695220335868
basic,13,36,0,0,0,17,"[0, 12, 16, 17]",4,7,"[2, 9, 10, 13, 18, 19, 25]",143.3071167,8394,1150,4,23,9,1.6578705047868705
basic,13,36,0,0,0,9,"[0, 12, 16, 17, 9]",5,5,"[2, 13, 18, 19, 25]",117.0583072,9262,868,3,6,9,2.6488264465469484
basic,13,36,0,0,0,19,"[0, 12, 16, 17, 9, 19]",6,4,"[2, 13, 18, 25]",101.9255612,10138,876,3,3,9,2.5697960541572393
basic,13,36,0,0,0,2,"[0, 12, 16, 17, 9, 19, 2]",7,2,"[13, 25]",64.80413882,11401,1263,2,0,9,2.082684549483941
basic,13,36,0,0,0,25,"[0, 12, 16, 17, 9, 19, 2, 25]",8,1,[13],39.80413882,12724,1323,1,0,9,2.272647961997219
basic,13,36,0,0,1,13,"[0, 12, 16, 17, 9, 19, 2, 25, 13]",9,0,[],19.21287854,13946,1222,1,0,9,2.86279103556024
basic,13,36,0,1,1,13,"[0, 12, 16, 17, 9, 19, 2, 25, 13]",9,0,[],19.21287854,15209,1263,1,0,9,2.86279103556024
basic,14,19,0,0,0,0,[0],1,29,"[1, 2, 3, 4, 5, 6, 7, 8, 9, 10, 11, 12, 13, 14, 15, 16, 17, 18, 19, 20, 21, 22, 23, 24, 25, 26, 27, 28, 29]",300,216,-1,12,149,8,0.0
basic,14,19,0,0,0,28,"[0, 28]",2,10,"[4, 6, 9, 10, 11, 14, 20, 22, 24, 27]",136.1219966,7166,6950,2,14,7,1.0
basic,14,19,0,0,0,4,"[0, 28, 4]",3,9,"[6, 9, 10, 11, 14, 20, 22, 24, 27]",124.9416567,8133,967,2,10,7,1.0622089009735736
basic,14,19,0,0,0,14,"[0, 28, 4, 14]",4,5,"[6, 11, 20, 22, 24]",74.93165771,9298,1165,2,3,7,1.0762539106237072
basic,14,19,0,0,0,11,"[0, 28, 4, 14, 11]",5,3,"[20, 22, 24]",64.11500388,10287,989,2,1,7,1.0758449982739315
basic,14,19,0,0,0,20,"[0, 28, 4, 14, 11, 20]",6,1,[22],16.31333027,11373,1086,1,0,7,1.254808614269969
basic,14,19,0,0,1,22,"[0, 28, 4, 14, 11, 20, 22]",7,0,[],3.160383832,12466,1093,1,0,7,1.3933675480175218
basic,14,19,0,1,1,22,"[0, 28, 4, 14, 11, 20, 22]",7,0,[],3.160383832,13388,922,1,0,7,1.3933675480175218
basic,15,12,0,0,0,0,[0],1,29,"[1, 2, 3, 4, 5, 6, 7, 8, 9, 10, 11, 12, 13, 14, 15, 16, 17, 18, 19, 20, 21, 22, 23, 24, 25, 26, 27, 28, 29]",300,253,-1,2,32,9,0.0
basic,15,12,0,0,0,16,"[0, 16]",2,16,"[2, 4, 5, 6, 7, 12, 13, 14, 18, 19, 22, 23, 24, 25, 27, 29]",209.2916762,2700,2447,3,38,8,1.0
basic,15,12,0,0,0,22,"[0, 16, 22]",3,14,"[2, 4, 5, 6, 7, 12, 13, 14, 18, 19, 23, 24, 25, 27]",188.2916762,6617,3917,2,21,8,1.26933081733974
basic,15,12,0,0,0,4,"[0, 16, 22, 4]",4,7,"[6, 12, 14, 19, 24, 25, 27]",143.69347,7565,948,2,10,8,1.251373590144064
basic,15,12,0,0,0,12,"[0, 16, 22, 4, 12]",5,4,"[14, 19, 24, 27]",101.5034238,8831,1266,2,3,8,1.2013999386970955
basic,15,12,0,0,0,27,"[0, 16, 22, 4, 12, 27]",6,2,"[14, 24]",77.15183245,9812,981,2,0,8,1.3028492624171124
basic,15,12,0,0,0,14,"[0, 16, 22, 4, 12, 27, 14]",7,1,[24],48.49873489,11002,1190,1,0,8,1.3507914643294519
basic,15,12,0,0,1,24,"[0, 16, 22, 4, 12, 27, 14, 24]",8,0,[],31.29408435,11930,928,1,0,8,1.5056447333155683
basic,15,12,0,1,1,24,"[0, 16, 22, 4, 12, 27, 14, 24]",8,0,[],31.29408435,13163,1233,1,0,8,1.5056447333155683
basic,16,9,0,0,0,0,[0],1,27,"[1, 3, 4, 5, 6, 7, 8, 9, 10, 11, 13, 14, 15, 16, 17, 18, 19, 20, 21, 22, 23, 24, 25, 26, 27, 28, 29]",300,248,-1,2,182,10,0.0
basic,16,9,0,0,0,9,"[0, 9]",2,26,"[1, 3, 4, 5, 6, 7, 8, 10, 11, 13, 14, 15, 16, 17, 18, 19, 20, 21, 22, 23, 24, 25, 26, 27, 28, 29]",225.5352432,5099,4851,2,101,9,1.0
basic,16,9,0,0,0,23,"[0, 9, 23]",3,22,"[1, 3, 4, 5, 7, 8, 10, 11, 13, 15, 16, 17, 18, 19, 20, 21, 22, 24, 25, 26, 27, 28]",203.1745635,6110,1011,2,70,9,1.6262276606762436
basic,16,9,0,0,0,8,"[0, 9, 23, 8]",4,18,"[3, 4, 5, 7, 10, 11, 15, 16, 17, 18, 19, 20, 21, 22, 25, 26, 27, 28]",181.7036529,7566,1456,1,36,9,1.8547307061753238
basic,16,9,0,0,0,28,"[0, 9, 23, 8, 28]",5,17,"[3, 4, 5, 7, 10, 11, 15, 16, 17, 18, 19, 20, 21, 22, 25, 26, 27]",170.8869991,8313,747,1,23,9,1.7382749966569708
basic,16,9,0,0,0,21,"[0, 9, 23, 8, 28, 21]",6,8,"[10, 16, 17, 18, 20, 22, 25, 26]",117.8869991,14581,6268,7,5,8,1.5363946588735553
basic,16,9,0,0,0,20,"[0, 9, 23, 8, 28, 21, 20]",7,5,"[10, 16, 17, 22, 26]",105.8039531,15591,1010,5,0,8,1.5333390745950446
basic,16,9,0,0,1,26,"[0, 9, 23, 8, 28, 21, 20, 26]",8,0,[],40.75012924,17576,1985,1,0,8,2.2191366275442426
basic,16,9,0,1,1,26,"[0, 9, 23, 8, 28, 21, 20, 26]",8,0,[],40.75012924,18935,1359,1,0,8,2.2191366275442426
basic,17,15,0,0,0,0,[0],1,25,"[1, 2, 3, 4, 7, 8, 9, 10, 11, 12, 13, 14, 15, 16, 18, 20, 21, 22, 23, 24, 25, 26, 27, 28, 29]",300,239,-1,4,65,9,0.0
basic,17,15,0,0,0,21,"[0, 21]",2,17,"[1, 3, 4, 7, 8, 9, 11, 12, 13, 14, 15, 16, 22, 23, 24, 26, 27]",204.9158268,7771,7532,21,65,7,1.0
basic,17,15,0,0,0,12,"[0, 21, 12]",3,14,"[1, 3, 4, 7, 8, 9, 11, 13, 14, 15, 16, 22, 24, 27]",161.0866128,9077,1306,20,39,7,1.6068212046294776
basic,17,15,0,0,0,7,"[0, 21, 12, 7]",4,10,"[3, 4, 9, 11, 13, 14, 15, 16, 22, 27]",127.8450725,10123,1046,13,11,7,2.0298522511797907
basic,17,15,0,0,0,16,"[0, 21, 12, 7, 16]",5,5,"[3, 4, 11, 15, 22]",84.18731258,11546,1423,3,3,7,1.8904046427013528
basic,17,15,0,0,0,11,"[0, 21, 12, 7, 16, 11]",6,1,[3],58.16808892,12550,1004,1,0,7,1.9475991988988648
basic,17,15,0,0,1,3,"[0, 21, 12, 7, 16, 11, 3]",7,0,[],46.76633467,13203,653,1,0,7,1.912955285957019
basic,17,15,0,1,1,3,"[0, 21, 12, 7, 16, 11, 3]",7,0,[],46.76633467,14868,1665,1,0,7,1.912955285957019
basic,18,1,0,0,0,0,[0],1,26,"[1, 2, 4, 5, 7, 8, 9, 10, 11, 12, 13, 14, 15, 16, 17, 18, 19, 20, 21, 22, 23, 24, 25, 26, 28, 29]",300,260,-1,6,74,7,0.0
basic,18,1,0,0,0,14,"[0, 14]",2,19,"[1, 4, 5, 8, 9, 13, 15, 17, 18, 19, 20, 21, 22, 23, 24, 25, 26, 28, 29]",200.1901808,9124,8864,5,42,7,1.0
basic,18,1,0,0,0,17,"[0, 14, 17]",3,15,"[1, 4, 5, 8, 9, 13, 15, 18, 19, 20, 22, 23, 25, 28, 29]",147.8356204,11194,2070,5,27,7,1.0028844724416826
basic,18,1,0,0,0,1,"[0, 14, 17, 1]",4,12,"[4, 5, 8, 9, 15, 18, 20, 22, 23, 25, 28, 29]",123.4840291,12216,1022,5,15,7,1.0264985578353567
basic,18,1,0,0,0,28,"[0, 14, 17, 1, 28]",5,5,"[9, 15, 22, 23, 29]",88.59850198,13590,1374,5,3,7,1.0339861575999345
basic,18,1,0,0,0,23,"[0, 14, 17, 1, 28, 23]",6,2,"[15, 22]",51.70676849,19011,5421,2,0,7,1.0327458250705703
basic,18,1,0,0,1,15,"[0, 14, 17, 1, 28, 23, 15]",7,0,[],20.81987807,20152,1141,1,0,7,1.1948681641401226
basic,18,1,0,1,1,15,"[0, 14, 17, 1, 28, 23, 15]",7,0,[],20.81987807,21344,1192,1,0,7,1.1948681641401226
basic,19,35,0,0,0,0,[0],1,29,"[1, 2, 3, 4, 5, 6, 7, 8, 9, 10, 11, 12, 13, 14, 15, 16, 17, 18, 19, 20, 21, 22, 23, 24, 25, 26, 27, 28, 29]",300,232,-1,5,236,11,0.0
basic,19,35,0,0,0,15,"[0, 15]",2,27,"[1, 2, 4, 5, 6, 7, 8, 9, 10, 11, 12, 13, 14, 16, 17, 18, 19, 20, 21, 22, 23, 24, 25, 26, 27, 28, 29]",244.4212271,7158,6926,9,149,10,1.0
basic,19,35,0,0,0,24,"[0, 15, 24]",3,21,"[1, 2, 4, 5, 6, 7, 8, 9, 10, 16, 17, 18, 19, 20, 21, 23, 25, 26, 27, 28, 29]",212.2187427,8133,975,3,53,10,2.8301813252608574
basic,19,35,0,0,0,17,"[0, 15, 24, 17]",4,17,"[1, 2, 4, 5, 6, 9, 10, 16, 18, 19, 21, 23, 25, 26, 27, 28, 29]",200.5140428,8792,659,3,35,10,2.508403635477034
basic,19,35,0,0,0,1,"[0, 15, 24, 17, 1]",5,16,"[2, 4, 5, 6, 9, 10, 16, 18, 19, 21, 23, 25, 26, 27, 28, 29]",184.7026545,9602,810,3,30,10,2.4119939071293377
basic,19,35,0,0,0,9,"[0, 15, 24, 17, 1, 9]",6,6,"[5, 6, 18, 19, 23, 25]",115.1756813,11038,1436,10,7,9,1.64413366219499
basic,19,35,0,0,0,18,"[0, 15, 24, 17, 1, 9, 18]",7,4,"[5, 6, 23, 25]",95.15069691,11826,788,5,1,9,1.5925313145870033
basic,19,35,0,0,0,25,"[0, 15, 24, 17, 1, 9, 18, 25]",8,1,[6],61.31284828,12712,886,1,0,9,1.473911113757093
basic,19,35,0,0,1,6,"[0, 15, 24, 17, 1, 9, 18, 25, 6]",9,0,[],37.29202398,13611,899,1,0,9,1.7372373850600382
basic,19,35,0,1,1,6,"[0, 15, 24, 17, 1, 9, 18, 25, 6]",9,0,[],37.29202398,14878,1267,1,0,9,1.7372373850600382
basic,20,28,0,0,0,0,[0],1,27,"[1, 2, 3, 4, 5, 6, 7, 8, 9, 10, 11, 12, 13, 14, 15, 16, 17, 18, 19, 20, 22, 23, 25, 26, 27, 28, 29]",300,248,-1,2,96,9,0.0
basic,20,28,0,0,0,14,"[0, 14]",2,14,"[1, 2, 3, 5, 7, 10, 11, 12, 13, 17, 18, 19, 20, 26]",147.8914861,5420,5172,1,26,8,1.0
basic,20,28,0,0,0,18,"[0, 14, 18]",3,11,"[1, 2, 3, 5, 7, 11, 12, 13, 17, 19, 26]",122.3963885,6312,892,1,23,8,1.0675599824559303
basic,20,28,0,0,0,13,"[0, 14, 18, 13]",4,7,"[2, 7, 11, 12, 17, 19, 26]",97.9832773,7346,1034,1,9,8,1.0602397944415018
basic,20,28,0,0,0,12,"[0, 14, 18, 13, 12]",5,4,"[2, 7, 17, 19]",80.77862677,8415,1069,1,3,8,1.0640685934245377
basic,20,28,0,0,0,7,"[0, 14, 18, 13, 12, 7]",6,2,"[2, 19]",67.62568033,9115,700,1,1,8,1.186262804928269
basic,20,28,0,0,0,19,"[0, 14, 18, 13, 12, 7, 19]",7,1,[2],39.89483108,10023,908,1,0,8,1.424576333867947
basic,20,28,0,0,1,2,"[0, 14, 18, 13, 12, 7, 19, 2]",8,0,[],2.531747699,11191,1168,1,0,8,1.4824387893309579
basic,20,28,0,1,1,2,"[0, 14, 18, 13, 12, 7, 19, 2]",8,0,[],2.531747699,12104,913,1,0,8,1.4824387893309579
basic,21,2,0,0,0,0,[0],1,23,"[1, 2, 4, 5, 6, 7, 8, 9, 12, 13, 15, 16, 17, 18, 19, 20, 22, 23, 25, 26, 27, 28, 29]",300,257,-1,70,620,10,0.0
basic,21,2,0,0,0,19,"[0, 19]",2,22,"[1, 2, 4, 5, 6, 7, 8, 9, 12, 13, 15, 16, 17, 18, 20, 22, 23, 25, 26, 27, 28, 29]",210.306076,4402,4145,67,431,10,1.0
basic,21,2,0,0,0,12,"[0, 19, 12]",3,17,"[1, 4, 5, 6, 7, 13, 15, 16, 17, 18, 20, 22, 25, 26, 27, 28, 29]",174.2921898,5279,877,66,298,10,1.1107635036313153
basic,21,2,0,0,0,5,"[0, 19, 12, 5]",4,11,"[1, 6, 7, 13, 15, 16, 18, 22, 25, 26, 29]",144.7625437,6083,804,38,136,10,1.0968174771581647
basic,21,2,0,0,0,22,"[0, 19, 12, 5, 22]",5,8,"[1, 6, 7, 13, 15, 18, 26, 29]",131.9562952,6912,829,20,63,10,1.0889910507461968
basic,21,2,0,0,0,13,"[0, 19, 12, 5, 22, 13]",6,7,"[1, 6, 7, 15, 18, 26, 29]",117.0902265,7772,860,19,20,10,1.236526217328057
basic,21,2,0,0,0,18,"[0, 19, 12, 5, 22, 13, 18]",7,4,"[7, 15, 26, 29]",81.91921567,8837,1065,10,3,10,1.2128708213409936
basic,21,2,0,0,0,7,"[0, 19, 12, 5, 22, 13, 18, 7]",8,3,"[15, 26, 29]",71.62358553,9987,1150,5,0,10,1.2019811287894737
basic,21,2,0,0,0,26,"[0, 19, 12, 5, 22, 13, 18, 7, 26]",9,2,"[15, 29]",48.82007703,12624,2637,2,0,10,1.1883593342191134
basic,21,2,0,0,1,15,"[0, 19, 12, 5, 22, 13, 18, 7, 26, 15]",10,0,[],24.61264015,13581,957,1,0,10,1.4619750353663825
basic,21,2,0,1,1,15,"[0, 19, 12, 5, 22, 13, 18, 7, 26, 15]",10,0,[],24.61264015,14930,1349,1,0,10,1.4619750353663825
basic,22,43,0,0,0,0,[0],1,23,"[1, 2, 3, 4, 5, 6, 7, 9, 10, 11, 12, 14, 15, 16, 17, 19, 20, 21, 22, 23, 25, 27, 29]",300,273,-1,16,556,12,0.0
basic,22,43,0,0,0,29,"[0, 29]",2,22,"[1, 2, 3, 4, 5, 6, 7, 9, 10, 11, 12, 14, 15, 16, 17, 19, 20, 21, 22, 23, 25, 27]",277.909278,2245,1972,16,520,12,1.0
basic,22,43,0,0,0,20,"[0, 29, 20]",3,20,"[1, 2, 3, 4, 6, 7, 9, 10, 11, 12, 14, 15, 16, 17, 19, 21, 22, 23, 25, 27]",254.4785289,3331,1086,15,422,12,1.082311746871282
basic,22,43,0,0,0,16,"[0, 29, 20, 16]",4,19,"[1, 2, 3, 4, 6, 7, 9, 10, 11, 12, 14, 15, 17, 19, 21, 22, 23, 25, 27]",231.8511119,4602,1271,15,389,12,1.215201926898219
basic,22,43,0,0,0,25,"[0, 29, 20, 16, 25]",5,14,"[1, 2, 3, 4, 6, 7, 9, 11, 12, 14, 15, 19, 22, 23]",175.7708124,6278,1676,53,282,11,1.566384303308987
basic,22,43,0,0,0,15,"[0, 29, 20, 16, 25, 15]",6,13,"[1, 2, 3, 4, 6, 7, 9, 11, 12, 14, 19, 22, 23]",153.0992443,7348,1070,27,108,11,1.776736412604812
basic,22,43,0,0,0,12,"[0, 29, 20, 16, 25, 15, 12]",7,10,"[1, 3, 6, 7, 9, 11, 14, 19, 22, 23]",133.7860364,8099,751,21,41,11,1.6813323012225032
basic,22,43,0,0,0,3,"[0, 29, 20, 16, 25, 15, 12, 3]",8,9,"[1, 6, 7, 9, 11, 14, 19, 22, 23]",120.7860364,8851,752,20,12,11,1.608740348096123
basic,22,43,0,0,0,22,"[0, 29, 20, 16, 25, 15, 12, 3, 22]",9,6,"[1, 6, 7, 11, 14, 19]",86.07292644,9982,1131,9,2,11,1.793657891802588
basic,22,43,0,0,0,19,"[0, 29, 20, 16, 25, 15, 12, 3, 22, 19]",10,3,"[1, 6, 7]",65.45739831,10995,1013,3,0,11,1.6882745891803936
basic,22,43,0,0,1,1,"[0, 29, 20, 16, 25, 15, 12, 3, 22, 19, 1]",11,0,[],37.2793927,12161,1166,1,0,11,1.825064866046553
basic,22,43,0,1,1,1,"[0, 29, 20, 16, 25, 15, 12, 3, 22, 19, 1]",11,0,[],37.2793927,13512,1351,1,0,11,1.825064866046553
undo,23,31,0,0,0,0,[0],1,27,"[1, 3, 4, 5, 6, 7, 8, 10, 11, 12, 13, 14, 15, 16, 17, 18, 19, 20, 21, 22, 23, 24, 25, 26, 27, 28, 29]",300,193,-1,2,87,10,0.0
undo,23,31,0,0,0,14,"[0, 14]",2,25,"[1, 3, 5, 6, 7, 8, 10, 11, 12, 13, 15, 16, 17, 18, 19, 20, 21, 22, 23, 24, 25, 26, 27, 28, 29]",263.861378,3708,3515,2,59,10,1.0
undo,23,31,0,0,0,27,"[0, 14, 27]",3,22,"[1, 3, 5, 6, 7, 8, 10, 11, 12, 13, 15, 16, 17, 18, 19, 20, 21, 22, 24, 25, 28, 29]",235.6833724,4690,982,1,39,10,1.5881859159302467
undo,23,31,0,0,0,8,"[0, 14, 27, 8]",4,20,"[1, 3, 5, 6, 7, 10, 11, 12, 13, 16, 17, 18, 19, 20, 21, 22, 24, 25, 28, 29]",224.6380114,5441,751,1,36,10,2.1665048452331277
undo,23,31,0,0,0,18,"[0, 14, 27, 8, 18]",5,15,"[1, 5, 6, 7, 11, 12, 13, 16, 17, 19, 20, 22, 25, 28, 29]",188.7911147,6289,848,1,26,10,1.7273375741920205
undo,23,31,0,0,0,11,"[0, 14, 27, 8, 18, 11]",6,11,"[1, 5, 7, 12, 16, 17, 19, 20, 22, 25, 28]",153.9055876,7235,946,13,17,9,2.386348208737804
undo,23,31,0,0,0,5,"[0, 14, 27, 8, 18, 11, 5]",7,5,"[16, 17, 20, 25, 28]",110.2249283,8079,844,3,3,9,2.163249612867222
undo,23,31,0,0,0,28,"[0, 14, 27, 8, 18, 11, 5, 28]",8,2,"[16, 17]",90.00117988,8924,845,2,0,9,1.9564635733184719
undo,23,31,0,0,1,16,"[0, 14, 27, 8, 18, 11, 5, 28, 16]",9,0,[],56.38570725,10099,1175,1,0,9,1.824071502589619
undo,23,31,0,1,1,16,"[0, 14, 27, 8, 18, 11, 5, 28, 16]",9,0,[],56.38570725,11014,915,1,0,9,1.824071502589619
undo,24,39,0,0,0,0,[0],1,28,"[1, 2, 3, 4, 5, 6, 7, 9, 10, 11, 12, 13, 14, 15, 16, 17, 18, 19, 20, 21, 22, 23, 24, 25, 26, 27, 28, 29]",300,252,-1,1,30,10,0.0
undo,24,39,0,0,0,29,"[0, 29]",2,26,"[1, 2, 3, 4, 5, 6, 7, 9, 10, 12, 13, 14, 15, 16, 17, 18, 19, 20, 21, 22, 23, 24, 25, 26, 27, 28]",243.0614366,3649,3397,8,104,9,1.0
undo,24,39,0,0,0,12,"[0, 29, 12]",3,18,"[1, 2, 4, 5, 7, 9, 10, 13, 14, 15, 16, 18, 19, 22, 23, 24, 26, 28]",182.5221931,4533,884,5,54,9,1.0026200331524904
undo,24,39,0,0,0,10,"[0, 29, 12, 10]",4,16,"[1, 2, 4, 5, 7, 9, 13, 14, 15, 16, 18, 19, 22, 23, 24, 26]",147.0116313,5301,768,5,34,9,1.2874817019928908
undo,24,39,0,0,0,7,"[0, 29, 12, 10, 7]",5,10,"[1, 2, 5, 13, 16, 18, 19, 22, 24, 26]",113.5900814,6105,804,4,12,9,1.2250826263866774
undo,24,39,0,0,0,26,"[0, 29, 12, 10, 7, 26]",6,5,"[1, 16, 18, 19, 22]",94.90853971,6909,804,3,4,9,1.2697275353190085
undo,24,39,0,0,0,22,"[0, 29, 12, 10, 7, 26, 22]",7,2,"[16, 19]",77.18849457,7600,691,2,0,9,1.438961743955176
undo,24,39,0,0,0,16,"[0, 29, 12, 10, 7, 26, 22, 16]",8,1,[19],42.18849457,8332,732,1,0,9,1.3580882130477205
undo,24,39,0,0,1,19,"[0, 29, 12, 10, 7, 26, 22, 16, 19]",9,0,[],24.72424537,9749,1417,1,0,9,1.3646589157842668
undo,24,39,0,1,1,19,"[0, 29, 12, 10, 7, 26, 22, 16, 19]",9,0,[],24.72424537,10722,973,1,0,9,1.3646589157842668
undo,25,12,0,0,0,0,[0],1,29,"[1, 2, 3, 4, 5, 6, 7, 8, 9, 10, 11, 12, 13, 14, 15, 16, 17, 18, 19, 20, 21, 22, 23, 24, 25, 26, 27, 28, 29]",300,293,-1,2,32,9,0.0
undo,25,12,0,0,0,25,"[0, 25]",2,16,"[2, 4, 5, 6, 7, 9, 12, 14, 16, 18, 19, 22, 23, 24, 27, 28]",225.7975742,1660,1367,5,34,8,1.0
undo,25,12,0,0,0,16,"[0, 25, 16]",3,11,"[2, 4, 5, 6, 7, 12, 14, 19, 22, 24, 27]",169.0701557,2809,1149,4,22,8,1.4434159828731936
undo,25,12,0,0,0,4,"[0, 25, 16, 4]",4,6,"[12, 14, 19, 22, 24, 27]",134.864893,3670,861,2,7,8,1.3220542462647857
undo,25,12,0,0,0,12,"[0, 25, 16, 4, 12]",5,5,"[14, 19, 22, 24, 27]",92.67484678,4616,946,2,3,8,1.2548348749245275
undo,25,12,0,0,0,27,"[0, 25, 16, 4, 12, 27]",6,2,"[14, 24]",68.32325545,5347,731,2,0,8,1.3544642483472162
undo,25,12,0,0,0,14,"[0, 25, 16, 4, 12, 27, 14]",7,1,[24],39.67015789,6078,731,1,0,8,1.3982089850666115
undo,25,12,0,0,1,24,"[0, 25, 16, 4, 12, 27, 14, 24]",8,0,[],22.46550735,10453,4375,1,0,8,1.5551140590301356
undo,25,12,0,1,1,24,"[0, 25, 16, 4, 12, 27, 14, 24]",8,0,[],22.46550735,11635,1182,1,0,8,1.5551140590301356
undo,26,16,0,0,0,0,[0],1,29,"[1, 2, 3, 4, 5, 6, 7, 8, 9, 10, 11, 12, 13, 14, 15, 16, 17, 18, 19, 20, 21, 22, 23, 24, 25, 26, 27, 28, 29]",300,260,-1,13,161,9,0.0
undo,26,16,0,0,0,17,"[0, 17]",2,27,"[1, 2, 3, 4, 5, 7, 8, 9, 10, 11, 12, 13, 14, 15, 16, 18, 19, 20, 21, 22, 23, 24, 25, 26, 27, 28, 29]",241.3058776,4822,4562,2,58,9,1.0
undo,26,16,0,0,0,16,"[0, 17, 16]",3,26,"[1, 2, 3, 4, 5, 7, 8, 9, 10, 11, 12, 13, 14, 15, 18, 19, 20, 21, 22, 23, 24, 25, 26, 27, 28, 29]",212.9862731,5506,684,2,52,9,1.0529535521792848
undo,26,16,0,0,0,8,"[0, 17, 16, 8]",4,19,"[2, 3, 4, 5, 9, 12, 13, 14, 15, 19, 20, 21, 22, 23, 25, 26, 27, 28, 29]",164.6127266,6519,1013,2,38,9,1.0915134501573105
undo,26,16,0,0,0,20,"[0, 17, 16, 8, 20]",5,10,"[3, 4, 5, 9, 12, 13, 15, 19, 21, 25]",106.8372993,7689,1170,1,15,9,1.067523143001942
undo,26,16,0,0,0,25,"[0, 17, 16, 8, 20, 25]",6,7,"[3, 4, 5, 9, 12, 13, 15]",94.18818869,8542,853,1,9,9,1.1170093326933646
undo,26,16,0,0,0,9,"[0, 17, 16, 8, 20, 25, 9]",7,5,"[3, 4, 5, 13, 15]",81.38194021,9321,779,1,4,9,1.1095076562662525
undo,26,16,0,0,0,15,"[0, 17, 16, 8, 20, 25, 9, 15]",8,1,[5],42.48463953,11001,1680,1,0,9,1.213831159678775
undo,26,16,0,0,1,5,"[0, 17, 16, 8, 20, 25, 9, 15, 5]",9,0,[],13.0567616,11774,773,1,0,9,1.5171779607523481
undo,26,16,0,1,1,5,"[0, 17, 16, 8, 20, 25, 9, 15, 5]",9,0,[],13.0567616,13382,1608,1,0,9,1.5171779607523481
undo,27,25,0,0,0,0,[0],1,28,"[1, 2, 3, 4, 5, 7, 8, 9, 10, 11, 12, 13, 14, 15, 16, 17, 18, 19, 20, 21, 22, 23, 24, 25, 26, 27, 28, 29]",300,259,-1,5,94,10,0.0
undo,27,25,0,0,0,23,"[0, 23]",2,23,"[1, 2, 3, 5, 7, 8, 9, 11, 12, 13, 14, 16, 17, 19, 20, 21, 22, 24, 25, 26, 27, 28, 29]",259.7756293,5722,5463,3,33,10,1.0
undo,27,25,0,0,0,7,"[0, 23, 7]",3,16,"[1, 3, 5, 8, 9, 11, 13, 17, 19, 21, 22, 24, 26, 27, 28, 29]",181.9424744,8975,3253,1,21,9,1.0073109045884563
undo,27,25,0,0,0,24,"[0, 23, 7, 24]",4,10,"[3, 5, 8, 9, 11, 13, 19, 22, 28, 29]",157.1836376,9916,941,1,17,9,1.0161584555781231
undo,27,25,0,0,0,9,"[0, 23, 7, 24, 9]",5,8,"[3, 8, 11, 13, 19, 22, 28, 29]",139.1558812,10873,957,1,16,9,1.0303325523073676
undo,27,25,0,0,0,8,"[0, 23, 7, 24, 9, 8]",6,3,"[3, 13, 28]",88.9065031,11821,948,4,1,8,1.055612641218378
undo,27,25,0,0,0,28,"[0, 23, 7, 24, 9, 8, 28]",7,2,"[3, 13]",48.29862209,12891,1070,2,0,8,1.16316697389926
undo,27,25,0,0,1,3,"[0, 23, 7, 24, 9, 8, 28, 3]",8,0,[],16.99367041,13736,845,1,0,8,1.5284916606081744
undo,27,25,0,1,1,3,"[0, 23, 7, 24, 9, 8, 28, 3]",8,0,[],16.99367041,15438,1702,1,0,8,1.5284916606081744
undo,28,26,0,0,0,0,[0],1,29,"[1, 2, 3, 4, 5, 6, 7, 8, 9, 10, 11, 12, 13, 14, 15, 16, 17, 18, 19, 20, 21, 22, 23, 24, 25, 26, 27, 28, 29]",300,265,-1,9,226,9,0.0
undo,28,26,0,0,0,10,"[0, 10]",2,6,"[4, 6, 14, 16, 17, 29]",138.1822012,2165,1900,9,66,7,1.0
undo,28,26,0,0,0,6,"[0, 10, 6]",3,5,"[4, 14, 16, 17, 29]",108.9076389,3121,956,8,23,7,1.1897813099332413
undo,28,26,0,0,0,14,"[0, 10, 6, 14]",4,4,"[4, 16, 17, 29]",87.88384285,3748,627,4,6,7,1.3162481558218453
undo,28,26,0,0,0,17,"[0, 10, 6, 14, 17]",5,3,"[4, 16, 29]",65.41163779,4794,1046,3,1,7,1.6510075497064465
undo,28,26,0,0,0,4,"[0, 10, 6, 14, 17, 4]",6,1,[29],44.31661468,5518,724,1,0,7,2.1095586782058087
undo,28,26,0,0,1,29,"[0, 10, 6, 14, 17, 4, 29]",7,0,[],20.31661468,7423,1905,1,0,7,2.288952413143475
undo,28,26,0,1,1,29,"[0, 10, 6, 14, 17, 4, 29]",7,0,[],20.31661468,8339,916,1,0,7,2.288952413143475
undo,29,37,0,0,0,0,[0],1,29,"[1, 2, 3, 4, 5, 6, 7, 8, 9, 10, 11, 12, 13, 14, 15, 16, 17, 18, 19, 20, 21, 22, 23, 24, 25, 26, 27, 28, 29]",300,251,-1,6,168,10,0.0
undo,29,37,0,0,0,19,"[0, 19]",2,19,"[1, 2, 4, 5, 6, 7, 9, 10, 11, 15, 17, 18, 20, 21, 22, 25, 26, 28, 29]",185.6627795,5376,5125,25,244,9,1.0
undo,29,37,0,0,0,26,"[0, 19, 26]",3,9,"[1, 2, 4, 15, 20, 21, 22, 25, 29]",120.4094271,6617,1241,12,37,8,1.0256292033966232
undo,29,37,0,0,0,21,"[0, 19, 26, 21]",4,6,"[1, 2, 4, 15, 20, 22]",90.67728956,7670,1053,8,18,8,1.3487859218508713
undo,29,37,0,0,0,15,"[0, 19, 26, 21, 15]",5,4,"[1, 2, 4, 20]",75.67728956,8653,983,4,7,8,1.3481165821607015
undo,29,37,0,0,0,20,"[0, 19, 26, 21, 15, 20]",6,3,"[1, 2, 4]",58.67728956,9489,836,2,2,8,1.6099275130490058
undo,29,37,0,0,0,1,"[0, 19, 26, 21, 15, 20, 1]",7,2,"[2, 4]",24.44280403,10304,815,2,0,8,1.7405155284688993
undo,29,37,0,0,1,2,"[0, 19, 26, 21, 15, 20, 1, 2]",8,0,[],7.238153493,11207,903,1,0,8,1.9366131115805176
undo,29,37,0,1,1,2,"[0, 19, 26, 21, 15, 20, 1, 2]",8,0,[],7.238153493,12502,1295,1,0,8,1.9366131115805176
undo,30,41,0,0,0,0,[0],1,29,"[1, 2, 3, 4, 5, 6, 7, 8, 9, 10, 11, 12, 13, 14, 15, 16, 17, 18, 19, 20, 21, 22, 23, 24, 25, 26, 27, 28, 29]",300,221,-1,1,143,10,0.0
undo,30,41,0,0,0,13,"[0, 13]",2,23,"[1, 2, 3, 5, 6, 7, 9, 10, 11, 12, 14, 15, 17, 18, 19, 20, 21, 22, 24, 25, 26, 27, 28]",258.2747079,5409,5188,1,55,10,1.0
undo,30,41,0,0,0,28,"[0, 13, 28]",3,22,"[1, 2, 3, 5, 6, 7, 9, 10, 11, 12, 14, 15, 17, 18, 19, 20, 21, 22, 24, 25, 26, 27]",223.7928286,6382,973,1,39,10,1.895724242592676
undo,30,41,0,0,0,5,"[0, 13, 28, 5]",4,19,"[1, 2, 3, 6, 9, 10, 11, 12, 14, 15, 17, 18, 19, 20, 21, 22, 24, 25, 27]",210.1913581,7259,877,1,34,10,2.861541269398273
undo,30,41,0,0,0,3,"[0, 13, 28, 5, 3]",5,16,"[1, 2, 6, 9, 10, 12, 14, 17, 18, 19, 20, 21, 22, 24, 25, 27]",175.3632086,8324,1065,1,22,10,3.1455488489005883
undo,30,41,0,0,0,21,"[0, 13, 28, 5, 3, 21]",6,14,"[1, 2, 6, 9, 10, 12, 14, 17, 18, 19, 20, 22, 25, 27]",143.2228912,9385,1061,13,11,9,3.207558429289677
undo,30,41,0,0,0,9,"[0, 13, 28, 5, 3, 21, 9]",7,6,"[1, 2, 10, 12, 14, 17]",93.85691102,10238,853,7,4,9,2.5050148501792275
undo,30,41,0,0,0,2,"[0, 13, 28, 5, 3, 21, 9, 2]",8,5,"[1, 10, 12, 14, 17]",81.77386505,11107,869,5,0,9,2.4119643847713177
undo,30,41,0,0,1,17,"[0, 13, 28, 5, 3, 21, 9, 2, 17]",9,0,[],49.21622385,12095,988,1,0,9,3.9563478735796007
undo,30,41,0,1,1,17,"[0, 13, 28, 5, 3, 21, 9, 2, 17]",9,0,[],49.21622385,16471,4376,1,0,9,3.9563478735796007
undo,31,34,0,0,0,0,[0],1,25,"[1, 3, 4, 5, 6, 7, 8, 9, 10, 11, 12, 13, 15, 18, 19, 20, 21, 22, 23, 24, 25, 26, 27, 28, 29]",300,248,-1,12,367,10,0.0
undo,31,34,0,0,0,13,"[0, 13]",2,24,"[1, 3, 4, 5, 6, 7, 8, 9, 10, 11, 12, 15, 18, 19, 20, 21, 22, 23, 24, 25, 26, 27, 28, 29]",279.9750156,2356,2108,12,331,10,1.0
undo,31,34,0,0,0,1,"[0, 13, 1]",3,16,"[3, 5, 7, 8, 9, 10, 11, 12, 19, 21, 22, 23, 24, 25, 27, 29]",211.8574701,3587,1231,3,92,10,1.0010381285747127
undo,31,34,0,0,0,8,"[0, 13, 1, 8]",4,14,"[3, 5, 7, 9, 10, 11, 12, 19, 22, 23, 24, 25, 27, 29]",201.0871405,4238,651,2,54,10,1.1636807
undo,31,34,0,0,0,25,"[0, 13, 1, 8, 25]",5,12,"[3, 5, 7, 9, 10, 11, 12, 22, 23, 24, 27, 29]",183.999133,5637,1399,2,28,10,1.1396208815936457
undo,31,34,0,0,0,24,"[0, 13, 1, 8, 25, 24]",6,11,"[3, 5, 7, 9, 10, 11, 12, 22, 23, 27, 29]",166.5062774,6408,771,2,23,10,1.374180768736554
undo,31,34,0,0,0,12,"[0, 13, 1, 8, 25, 24, 12]",7,7,"[7, 9, 10, 11, 22, 23, 27]",115.4670767,8158,1750,1,8,10,1.4994254760835948
undo,31,34,0,0,0,7,"[0, 13, 1, 8, 25, 24, 12, 7]",8,5,"[9, 11, 22, 23, 27]",100.4337804,8881,723,1,4,10,1.758992610425009
undo,31,34,0,0,0,23,"[0, 13, 1, 8, 25, 24, 12, 7, 23]",9,1,[27],72.27352467,9895,1014,1,0,10,2.399781305190153
undo,31,34,0,0,1,27,"[0, 13, 1, 8, 25, 24, 12, 7, 23, 27]",10,0,[],18.60789321,10844,949,1,0,10,4.766619878750327
undo,31,34,0,1,1,27,"[0, 13, 1, 8, 25, 24, 12, 7, 23, 27]",10,0,[],18.60789321,12090,1246,1,0,10,4.766619878750327
undo,32,35,0,0,0,0,[0],1,29,"[1, 2, 3, 4, 5, 6, 7, 8, 9, 10, 11, 12, 13, 14, 15, 16, 17, 18, 19, 20, 21, 22, 23, 24, 25, 26, 27, 28, 29]",300,257,-1,5,236,11,0.0
undo,32,35,0,0,0,24,"[0, 24]",2,27,"[1, 2, 4, 5, 6, 7, 8, 9, 10, 11, 12, 13, 14, 15, 16, 17, 18, 19, 20, 21, 22, 23, 25, 26, 27, 28, 29]",268.9838752,2067,1810,49,512,10,1.0
undo,32,35,0,0,0,17,"[0, 24, 17]",3,26,"[1, 2, 4, 5, 6, 7, 8, 9, 10, 11, 12, 13, 14, 15, 16, 18, 19, 20, 21, 22, 23, 25, 26, 27, 28, 29]",257.2791753,2726,659,33,238,10,1.0771477201815276
undo,32,35,0,0,0,1,"[0, 24, 17, 1]",4,25,"[2, 4, 5, 6, 7, 8, 9, 10, 11, 12, 13, 14, 15, 16, 18, 19, 20, 21, 22, 23, 25, 26, 27, 28, 29]",241.4677869,3523,797,26,151,10,1.2244804141479215
undo,32,35,0,0,0,9,"[0, 24, 17, 1, 9]",5,13,"[2, 4, 5, 6, 15, 18, 19, 23, 25, 26, 27, 28, 29]",171.9408138,6027,2504,23,25,9,1.1391705391673446
undo,32,35,0,0,0,18,"[0, 24, 17, 1, 9, 18]",6,9,"[4, 5, 6, 15, 19, 23, 25, 27, 28]",151.9158294,6791,764,11,8,9,1.1512300765384265
undo,32,35,0,0,0,25,"[0, 24, 17, 1, 9, 18, 25]",7,3,"[5, 6, 23]",118.0779807,8079,1288,4,1,9,1.1233821517043756
undo,32,35,0,0,0,6,"[0, 24, 17, 1, 9, 18, 25, 6]",8,2,"[5, 23]",94.05715644,8946,867,2,0,9,1.3618604674216885
undo,32,35,0,0,1,23,"[0, 24, 17, 1, 9, 18, 25, 6, 23]",9,0,[],48.4063076,10052,1106,1,0,9,2.3663755774656274
undo,32,35,0,1,1,23,"[0, 24, 17, 1, 9, 18, 25, 6, 23]",9,0,[],48.4063076,11115,1063,1,0,9,2.3663755774656274
undo,33,21,0,0,0,0,[0],1,29,"[1, 2, 3, 4, 5, 6, 7, 8, 9, 10, 11, 12, 13, 14, 15, 16, 17, 18, 19, 20, 21, 22, 23, 24, 25, 26, 27, 28, 29]",300,275,-1,84,830,9,0.0
undo,33,21,0,0,0,18,"[0, 18]",2,28,"[1, 2, 3, 4, 5, 6, 7, 8, 9, 10, 11, 12, 13, 14, 15, 16, 17, 19, 20, 21, 22, 23, 24, 25, 26, 27, 28, 29]",240.923778,5330,5055,44,305,9,1.0
undo,33,21,0,0,0,29,"[0, 18, 29]",3,24,"[1, 2, 3, 4, 6, 7, 8, 9, 10, 11, 12, 13, 14, 15, 16, 17, 20, 21, 22, 23, 24, 25, 26, 27]",212.2706805,6811,1481,11,87,9,1.035555280387994
undo,33,21,0,0,0,22,"[0, 18, 29, 22]",4,21,"[2, 4, 6, 7, 8, 9, 10, 11, 12, 13, 14, 15, 16, 17, 20, 21, 23, 24, 25, 26, 27]",182.0051886,7495,684,1,13,9,1.4350183100790137
undo,33,21,0,0,0,20,"[0, 18, 29, 22, 20]",5,13,"[2, 6, 7, 10, 11, 12, 14, 17, 21, 23, 25, 26, 27]",153.7740002,8211,716,1,13,8,1.775078941533349
undo,33,21,0,0,0,12,"[0, 18, 29, 22, 20, 12]",6,3,"[10, 11, 26]",99.65376365,9637,1426,1,2,8,1.8046281366337575
undo,33,21,0,0,0,10,"[0, 18, 29, 22, 20, 12, 10]",7,1,[11],76.85025514,10377,740,1,0,8,1.8327323409223188
undo,33,21,0,0,1,11,"[0, 18, 29, 22, 20, 12, 10, 11]",8,0,[],0.528567532,11994,1617,1,0,8,3.788047283008719
undo,33,21,0,1,1,11,"[0, 18, 29, 22, 20, 12, 10, 11]",8,0,[],0.528567532,13159,1165,1,0,8,3.788047283008719
undo,34,36,0,0,0,0,[0],1,24,"[2, 4, 5, 6, 7, 8, 9, 10, 12, 13, 14, 15, 16, 17, 18, 19, 20, 22, 23, 25, 26, 27, 28, 29]",300,266,-1,2,200,10,0.0
undo,34,36,0,0,0,12,"[0, 12]",2,23,"[2, 4, 5, 6, 7, 8, 9, 10, 13, 14, 15, 16, 17, 18, 19, 20, 22, 23, 25, 26, 27, 28, 29]",277.7963967,2105,1839,90,804,9,1.0
undo,34,36,0,0,0,9,"[0, 12, 9]",3,14,"[2, 4, 8, 10, 13, 16, 17, 18, 19, 23, 25, 27, 28, 29]",215.4345494,3127,1022,32,191,9,1.224429481246385
undo,34,36,0,0,0,16,"[0, 12, 9, 16]",4,8,"[2, 10, 13, 17, 18, 19, 23, 25]",168.137615,3991,864,7,26,9,1.235383731443557
undo,34,36,0,0,0,17,"[0, 12, 9, 16, 17]",5,6,"[2, 10, 13, 18, 19, 25]",139.8180105,5077,1086,7,14,9,1.6947865799475665
undo,34,36,0,0,0,19,"[0, 12, 9, 16, 17, 19]",6,5,"[2, 10, 13, 18, 25]",111.9253591,5961,884,6,1,9,2.440059772477113
undo,34,36,0,0,0,2,"[0, 12, 9, 16, 17, 19, 2]",7,2,"[13, 25]",74.80393675,8117,2156,2,0,9,1.994135267441798
undo,34,36,0,0,0,25,"[0, 12, 9, 16, 17, 19, 2, 25]",8,1,[13],49.80393675,9058,941,1,0,9,2.1853059870598197
undo,34,36,0,0,1,13,"[0, 12, 9, 16, 17, 19, 2, 25, 13]",9,0,[],29.21267647,9909,851,1,0,9,2.7608371719978186
undo,34,36,0,1,1,13,"[0, 12, 9, 16, 17, 19, 2, 25, 13]",9,0,[],29.21267647,10775,866,1,0,9,2.7608371719978186
undo,35,11,0,0,0,0,[0],1,25,"[1, 2, 3, 4, 5, 6, 8, 9, 10, 11, 12, 13, 14, 15, 16, 17, 18, 19, 20, 22, 23, 25, 26, 27, 28]",300,226,-1,6,374,12,0.0
undo,35,11,0,0,0,1,"[0, 1]",2,24,"[2, 3, 4, 5, 6, 8, 9, 10, 11, 12, 13, 14, 15, 16, 17, 18, 19, 20, 22, 23, 25, 26, 27, 28]",264.6446609,8147,7921,6,217,12,1.0
undo,35,11,0,0,0,17,"[0, 1, 17]",3,17,"[2, 4, 5, 6, 8, 10, 11, 12, 15, 18, 19, 22, 23, 25, 26, 27, 28]",149.3971013,9335,1188,166,657,10,1.0239647205492373
undo,35,11,0,0,0,8,"[0, 1, 17, 8]",4,14,"[2, 4, 5, 6, 11, 12, 15, 18, 19, 22, 23, 25, 27, 28]",135.0792803,10585,1250,74,238,10,1.1357648364167585
undo,35,11,0,0,0,15,"[0, 1, 17, 8, 15]",5,11,"[2, 5, 6, 11, 12, 18, 19, 22, 25, 27, 28]",121.6256562,11537,952,46,62,10,1.1370884007549122
undo,35,11,0,0,0,5,"[0, 1, 17, 8, 15, 5]",6,5,"[2, 11, 22, 27, 28]",82.06557531,12911,1374,10,12,10,1.3395442650667677
undo,35,11,0,0,0,22,"[0, 1, 17, 8, 15, 5, 22]",7,3,"[2, 11, 28]",55.4949148,14067,1156,1,4,10,1.2968765477485258
undo,35,11,0,0,0,2,"[0, 1, 17, 8, 15, 5, 22, 2]",8,2,"[11, 28]",45.44503918,15130,1063,1,1,10,1.4261733313173683
undo,35,11,0,0,0,28,"[0, 1, 17, 8, 15, 5, 22, 2, 28]",9,1,[11],34.81489337,16118,988,1,0,10,1.5346062257097606
undo,35,11,0,0,1,11,"[0, 1, 17, 8, 15, 5, 22, 2, 28, 11]",10,0,[],15.39840553,17283,1165,1,0,10,1.6416166106359167
undo,35,11,0,1,1,11,"[0, 1, 17, 8, 15, 5, 22, 2, 28, 11]",10,0,[],15.39840553,18304,1021,1,0,10,1.6416166106359167
undo,36,27,0,0,0,0,[0],1,26,"[1, 3, 5, 6, 7, 8, 9, 10, 11, 12, 13, 14, 15, 16, 17, 18, 19, 21, 22, 23, 24, 25, 26, 27, 28, 29]",300,249,-1,13,578,11,0.0
undo,36,27,0,0,0,15,"[0, 15]",2,24,"[1, 3, 5, 6, 7, 8, 9, 10, 11, 12, 13, 14, 16, 17, 18, 19, 21, 22, 23, 24, 25, 26, 27, 29]",263.7508621,3780,3531,6,219,11,1.0
undo,36,27,0,0,0,24,"[0, 15, 24]",3,20,"[1, 5, 6, 7, 8, 9, 10, 12, 13, 14, 16, 17, 18, 19, 21, 23, 25, 26, 27, 29]",246.5462115,4589,809,6,130,11,1.130933077698322
undo,36,27,0,0,0,17,"[0, 15, 24, 17]",4,15,"[1, 6, 8, 10, 12, 13, 14, 16, 18, 19, 23, 25, 26, 27, 29]",229.9932662,5377,788,4,60,11,1.1285538435963374
undo,36,27,0,0,0,12,"[0, 15, 24, 17, 12]",5,14,"[1, 6, 8, 10, 13, 14, 16, 18, 19, 23, 25, 26, 27, 29]",218.8129263,6495,1118,2,32,11,1.2561880288755216
undo,36,27,0,0,0,10,"[0, 15, 24, 17, 12, 10]",6,11,"[1, 8, 13, 14, 18, 19, 23, 25, 26, 27, 29]",207.7675653,7218,723,2,28,11,1.2228289337766665
undo,36,27,0,0,0,13,"[0, 15, 24, 17, 12, 10, 13]",7,9,"[1, 8, 14, 18, 19, 23, 26, 27, 29]",167.9178476,8927,1709,2,18,11,1.3421291994761178
undo,36,27,0,0,0,19,"[0, 15, 24, 17, 12, 10, 13, 19]",8,5,"[1, 8, 14, 23, 29]",131.6825057,10641,1714,2,6,11,1.294749956153846
undo,36,27,0,0,0,8,"[0, 15, 24, 17, 12, 10, 13, 19, 8]",9,3,"[14, 23, 29]",116.816437,11621,980,2,1,11,1.3554286578836865
undo,36,27,0,0,0,29,"[0, 15, 24, 17, 12, 10, 13, 19, 8, 29]",10,1,[14],57.61339652,14648,3027,1,0,11,1.248354519573802
undo,36,27,0,0,1,14,"[0, 15, 24, 17, 12, 10, 13, 19, 8, 29, 14]",11,0,[],13.31892734,15847,1199,1,0,11,1.562811097555156
undo,36,27,0,1,1,14,"[0, 15, 24, 17, 12, 10, 13, 19, 8, 29, 14]",11,0,[],13.31892734,16591,744,1,0,11,1.562811097555156
undo,37,2,0,0,0,0,[0],1,23,"[1, 2, 4, 5, 6, 7, 8, 9, 12, 13, 15, 16, 17, 18, 19, 20, 22, 23, 25, 26, 27, 28, 29]",300,239,-1,70,620,10,0.0
undo,37,2,0,0,0,19,"[0, 19]",2,22,"[1, 2, 4, 5, 6, 7, 8, 9, 12, 13, 15, 16, 17, 18, 20, 22, 23, 25, 26, 27, 28, 29]",210.306076,4161,3922,67,431,10,1.0
undo,37,2,0,0,0,12,"[0, 19, 12]",3,17,"[1, 4, 5, 6, 7, 13, 15, 16, 17, 18, 20, 22, 25, 26, 27, 28, 29]",174.2921898,5031,870,66,298,10,1.1107635036313153
undo,37,2,0,0,0,5,"[0, 19, 12, 5]",4,11,"[1, 6, 7, 13, 15, 16, 18, 22, 25, 26, 29]",144.7625437,6083,1052,38,136,10,1.0968174771581647
undo,37,2,0,0,0,22,"[0, 19, 12, 5, 22]",5,8,"[1, 6, 7, 13, 15, 18, 26, 29]",131.9562952,6974,891,20,63,10,1.0889910507461968
undo,37,2,0,0,0,13,"[0, 19, 12, 5, 22, 13]",6,7,"[1, 6, 7, 15, 18, 26, 29]",117.0902265,7675,701,19,20,10,1.236526217328057
undo,37,2,0,0,0,18,"[0, 19, 12, 5, 22, 13, 18]",7,4,"[7, 15, 26, 29]",81.91921567,8510,835,10,3,10,1.2128708213409936
undo,37,2,0,0,0,7,"[0, 19, 12, 5, 22, 13, 18, 7]",8,3,"[15, 26, 29]",71.62358553,9403,893,5,0,10,1.2019811287894737
undo,37,2,0,0,0,15,"[0, 19, 12, 5, 22, 13, 18, 7, 15]",9,2,"[26, 29]",56.85876247,10216,813,2,0,10,1.2907869828541363
undo,37,2,0,0,1,29,"[0, 19, 12, 5, 22, 13, 18, 7, 15, 29]",10,0,[],28.39826353,11839,1623,1,0,10,1.4795089334237532
undo,37,2,0,1,1,29,"[0, 19, 12, 5, 22, 13, 18, 7, 15, 29]",10,0,[],28.39826353,12962,1123,1,0,10,1.4795089334237532
undo,38,23,0,0,0,0,[0],1,28,"[1, 2, 3, 4, 5, 6, 7, 8, 9, 10, 11, 12, 13, 14, 15, 16, 17, 18, 19, 20, 21, 22, 23, 25, 26, 27, 28, 29]",300,263,-1,76,2626,10,0.0
undo,38,23,0,0,0,13,"[0, 13]",2,19,"[1, 2, 3, 5, 6, 7, 8, 9, 10, 12, 14, 17, 18, 19, 21, 22, 23, 27, 29]",189.3202819,5835,5572,9,168,10,1.0
undo,38,23,0,0,0,12,"[0, 13, 12]",3,16,"[1, 2, 3, 6, 7, 8, 9, 10, 14, 17, 18, 21, 22, 23, 27, 29]",177.2372359,6776,941,9,96,10,1.0014195490503164
undo,38,23,0,0,0,6,"[0, 13, 12, 6]",4,9,"[2, 7, 9, 10, 14, 18, 22, 27, 29]",147.5555918,8192,1416,2,17,10,1.0146513975411646
undo,38,23,0,0,0,2,"[0, 13, 12, 6, 2]",5,8,"[7, 9, 10, 14, 18, 22, 27, 29]",129.1165028,9102,910,2,8,10,1.252271865214601
undo,38,23,0,0,0,9,"[0, 13, 12, 6, 2, 9]",6,7,"[7, 10, 14, 18, 22, 27, 29]",116.078098,9968,866,1,4,10,1.4077625583396691
undo,38,23,0,0,0,14,"[0, 13, 12, 6, 2, 9, 14]",7,5,"[7, 10, 22, 27, 29]",105.6377915,10813,845,1,3,10,1.3795313352500915
undo,38,23,0,0,0,29,"[0, 13, 12, 6, 2, 9, 14, 29]",8,2,"[7, 10]",58.20362662,12980,2167,1,1,10,1.5679920543199335
undo,38,23,0,0,0,7,"[0, 13, 12, 6, 2, 9, 14, 29, 7]",9,1,[10],34.12043747,13953,973,1,0,10,1.5808251397817217
undo,38,23,0,0,1,10,"[0, 13, 12, 6, 2, 9, 14, 29, 7, 10]",10,0,[],6.661377032,15119,1166,1,0,10,1.5347739273486019
undo,38,23,0,1,1,10,"[0, 13, 12, 6, 2, 9, 14, 29, 7, 10]",10,0,[],6.661377032,16208,1089,1,0,10,1.5347739273486019
undo,39,6,0,0,0,0,[0],1,29,"[1, 2, 3, 4, 5, 6, 7, 8, 9, 10, 11, 12, 13, 14, 15, 16, 17, 18, 19, 20, 21, 22, 23, 24, 25, 26, 27, 28, 29]",300,240,-1,180,4304,10,0.0
undo,39,6,0,0,0,3,"[0, 3]",2,28,"[1, 2, 4, 5, 6, 7, 8, 9, 10, 11, 12, 13, 14, 15, 16, 17, 18, 19, 20, 21, 22, 23, 24, 25, 26, 27, 28, 29]",266.4738908,8199,7959,90,1607,10,1.0
undo,39,6,0,0,0,16,"[0, 3, 16]",3,27,"[1, 2, 4, 5, 6, 7, 8, 9, 10, 11, 12, 13, 14, 15, 17, 18, 19, 20, 21, 22, 23, 24, 25, 26, 27, 28, 29]",220.2353787,9503,1304,16,190,10,1.1050742161728249
undo,39,6,0,0,0,18,"[0, 3, 16, 18]",4,24,"[1, 2, 4, 5, 6, 7, 8, 9, 10, 11, 12, 13, 14, 15, 17, 19, 20, 21, 22, 23, 24, 26, 27, 29]",196.8901436,10282,779,10,97,10,1.6930577237270534
undo,39,6,0,0,0,17,"[0, 3, 16, 18, 17]",5,20,"[1, 2, 4, 5, 6, 7, 8, 9, 10, 11, 13, 14, 20, 21, 22, 23, 24, 26, 27, 29]",182.9617553,11006,724,8,58,10,1.6583245453234965
undo,39,6,0,0,0,10,"[0, 3, 16, 18, 17, 10]",6,17,"[1, 2, 4, 5, 6, 7, 8, 11, 13, 14, 21, 22, 23, 24, 26, 27, 29]",163.2386724,11839,833,6,33,10,1.6214605156931816
undo,39,6,0,0,0,24,"[0, 3, 16, 18, 17, 10, 24]",7,15,"[1, 2, 4, 5, 6, 7, 8, 11, 13, 14, 22, 23, 26, 27, 29]",149.8222646,12555,716,6,18,10,1.5435556829623227
undo,39,6,0,0,0,23,"[0, 3, 16, 18, 17, 10, 24, 23]",8,6,"[6, 11, 14, 22, 27, 29]",88.6340304,20290,7735,3,4,10,1.5749914836315253
undo,39,6,0,0,0,6,"[0, 3, 16, 18, 17, 10, 24, 23, 6]",9,1,[27],53.27869134,23162,2872,1,0,10,1.5318691641141804
undo,39,6,0,0,1,27,"[0, 3, 16, 18, 17, 10, 24, 23, 6, 27]",10,0,[],7.267823056,24266,1104,1,0,10,1.5573284076011698
undo,39,6,0,1,1,27,"[0, 3, 16, 18, 17, 10, 24, 23, 6, 27]",10,0,[],7.267823056,25676,1410,1,0,10,1.5573284076011698
undo,40,14,0,0,0,0,[0],1,29,"[1, 2, 3, 4, 5, 6, 7, 8, 9, 10, 11, 12, 13, 14, 15, 16, 17, 18, 19, 20, 21, 22, 23, 24, 25, 26, 27, 28, 29]",300,251,-1,8,157,10,0.0
undo,40,14,0,0,0,15,"[0, 15]",2,20,"[1, 2, 3, 4, 7, 8, 9, 13, 17, 18, 19, 20, 21, 22, 23, 25, 26, 27, 28, 29]",216.7053423,5055,4804,8,102,10,1.0
undo,40,14,0,0,0,28,"[0, 15, 28]",3,17,"[1, 2, 3, 4, 7, 8, 9, 13, 17, 18, 19, 20, 22, 23, 25, 26, 27]",197.4959696,5827,772,8,48,10,1.0446007867311968
undo,40,14,0,0,0,17,"[0, 15, 28, 17]",4,14,"[1, 2, 3, 4, 7, 8, 13, 18, 19, 20, 22, 23, 25, 26]",184.0423455,6567,740,8,39,10,1.0729463354689972
undo,40,14,0,0,0,18,"[0, 15, 28, 17, 18]",5,9,"[1, 2, 4, 7, 8, 19, 23, 25, 26]",119.412631,7893,1326,8,27,10,1.5035901079219378
undo,40,14,0,0,0,8,"[0, 15, 28, 17, 18, 8]",6,8,"[1, 2, 4, 7, 19, 23, 25, 26]",105.8111605,8589,696,8,18,10,1.4819689987843856
undo,40,14,0,0,0,1,"[0, 15, 28, 17, 18, 8, 1]",7,5,"[7, 19, 23, 25, 26]",82.21031307,9603,1014,4,6,10,1.4084991998385268
undo,40,14,0,0,0,19,"[0, 15, 28, 17, 18, 8, 1, 19]",8,4,"[7, 23, 25, 26]",66.97876686,10704,1101,4,1,10,1.5758713333797987
undo,40,14,0,0,0,23,"[0, 15, 28, 17, 18, 8, 1, 19, 23]",9,1,[26],22.70687962,12682,1978,1,0,10,1.4751929839361517
undo,40,14,0,0,1,26,"[0, 15, 28, 17, 18, 8, 1, 19, 23, 26]",10,0,[],11.89022579,13534,852,1,0,10,1.4521765305442214
undo,40,14,0,1,1,26,"[0, 15, 28, 17, 18, 8, 1, 19, 23, 26]",10,0,[],11.89022579,14441,907,1,0,10,1.4521765305442214
undo,41,43,0,0,0,0,[0],1,23,"[1, 2, 3, 4, 5, 6, 7, 9, 10, 11, 12, 14, 15, 16, 17, 19, 20, 21, 22, 23, 25, 27, 29]",300,217,-1,16,556,12,0.0
undo,41,43,0,0,0,29,"[0, 29]",2,22,"[1, 2, 3, 4, 5, 6, 7, 9, 10, 11, 12, 14, 15, 16, 17, 19, 20, 21, 22, 23, 25, 27]",277.909278,3657,3440,16,520,12,1.0
undo,41,43,0,0,0,20,"[0, 29, 20]",3,20,"[1, 2, 3, 4, 6, 7, 9, 10, 11, 12, 14, 15, 16, 17, 19, 21, 22, 23, 25, 27]",254.4785289,5699,2042,15,422,12,1.082311746871282
undo,41,43,0,0,0,16,"[0, 29, 20, 16]",4,19,"[1, 2, 3, 4, 6, 7, 9, 10, 11, 12, 14, 15, 17, 19, 21, 22, 23, 25, 27]",231.8511119,6672,973,15,389,12,1.215201926898219
undo,41,43,0,0,0,25,"[0, 29, 20, 16, 25]",5,14,"[1, 2, 3, 4, 6, 7, 9, 11, 12, 14, 15, 19, 22, 23]",175.7708124,8873,2201,53,282,11,1.566384303308987
undo,41,43,0,0,0,15,"[0, 29, 20, 16, 25, 15]",6,13,"[1, 2, 3, 4, 6, 7, 9, 11, 12, 14, 19, 22, 23]",153.0992443,9884,1011,27,108,11,1.776736412604812
undo,41,43,0,0,0,12,"[0, 29, 20, 16, 25, 15, 12]",7,10,"[1, 3, 6, 7, 9, 11, 14, 19, 22, 23]",133.7860364,10858,974,21,41,11,1.6813323012225032
undo,41,43,0,0,0,3,"[0, 29, 20, 16, 25, 15, 12, 3]",8,9,"[1, 6, 7, 9, 11, 14, 19, 22, 23]",120.7860364,11670,812,20,12,11,1.608740348096123
undo,41,43,0,0,0,22,"[0, 29, 20, 16, 25, 15, 12, 3, 22]",9,6,"[1, 6, 7, 11, 14, 19]",86.07292644,12957,1287,9,2,11,1.793657891802588
undo,41,43,0,0,0,19,"[0, 29, 20, 16, 25, 15, 12, 3, 22, 19]",10,3,"[1, 6, 7]",65.45739831,14260,1303,3,0,11,1.6882745891803936
undo,41,43,0,0,1,1,"[0, 29, 20, 16, 25, 15, 12, 3, 22, 19, 1]",11,0,[],37.2793927,15103,843,1,0,11,1.825064866046553
undo,41,43,0,1,1,1,"[0, 29, 20, 16, 25, 15, 12, 3, 22, 19, 1]",11,0,[],37.2793927,17237,2134,1,0,11,1.825064866046553
undo,42,42,0,0,0,0,[0],1,29,"[1, 2, 3, 4, 5, 6, 7, 8, 9, 10, 11, 12, 13, 14, 15, 16, 17, 18, 19, 20, 21, 22, 23, 24, 25, 26, 27, 28, 29]",300,198,-1,16,302,9,0.0
undo,42,42,0,0,0,5,"[0, 5]",2,28,"[1, 2, 3, 4, 6, 7, 8, 9, 10, 11, 12, 13, 14, 15, 16, 17, 18, 19, 20, 21, 22, 23, 24, 25, 26, 27, 28, 29]",191.2939744,11378,11180,1,22,9,1.0
undo,42,42,0,0,0,4,"[0, 5, 4]",3,23,"[1, 2, 3, 6, 7, 8, 9, 10, 11, 13, 15, 17, 18, 19, 20, 21, 22, 23, 24, 25, 26, 27, 29]",171.4445412,12253,875,1,14,9,1.420957801478707
undo,42,42,0,0,0,22,"[0, 5, 4, 22]",4,20,"[1, 2, 3, 6, 7, 8, 9, 11, 15, 17, 18, 19, 20, 21, 23, 24, 25, 26, 27, 29]",160.2642013,13097,844,1,11,9,1.5771494659680896
undo,42,42,0,0,0,8,"[0, 5, 4, 22, 8]",5,14,"[1, 2, 3, 6, 7, 11, 15, 18, 19, 24, 25, 26, 27, 29]",138.1282577,13958,861,1,10,9,1.5055393955524201
undo,42,42,0,0,0,1,"[0, 5, 4, 22, 8, 1]",6,5,"[2, 7, 19, 26, 27]",89.03650682,15241,1283,1,7,9,1.3547259083637835
undo,42,42,0,0,0,7,"[0, 5, 4, 22, 8, 1, 7]",7,4,"[2, 19, 26, 27]",59.03650682,16384,1143,1,3,9,1.3909715672447451
undo,42,42,0,0,0,26,"[0, 5, 4, 22, 8, 1, 7, 26]",8,1,[27],32.46584631,17397,1013,1,0,9,1.3511825943939393
undo,42,42,0,0,1,27,"[0, 5, 4, 22, 8, 1, 7, 26, 27]",9,0,[],14.43808994,18603,1206,1,0,9,1.3391911688802078
undo,42,42,0,1,1,27,"[0, 5, 4, 22, 8, 1, 7, 26, 27]",9,0,[],14.43808994,19784,1181,1,0,9,1.3391911688802078
undo,43,3,0,0,0,0,[0],1,29,"[1, 2, 3, 4, 5, 6, 7, 8, 9, 10, 11, 12, 13, 14, 15, 16, 17, 18, 19, 20, 21, 22, 23, 24, 25, 26, 27, 28, 29]",300,246,-1,34,427,10,0.0
undo,43,3,0,0,0,17,"[0, 17]",2,16,"[3, 4, 7, 8, 10, 12, 14, 15, 16, 19, 20, 21, 22, 24, 26, 27]",197.6965299,3481,3235,2,27,9,1.0
undo,43,3,0,0,0,20,"[0, 17, 20]",3,13,"[3, 4, 7, 8, 10, 14, 15, 16, 19, 21, 22, 24, 27]",185.0474192,4355,874,2,24,9,1.0153332121237257
undo,43,3,0,0,0,3,"[0, 17, 20, 3]",4,10,"[4, 7, 8, 10, 14, 15, 16, 19, 21, 24]",164.6513412,5286,931,2,22,9,1.0819240770773468
undo,43,3,0,0,0,19,"[0, 17, 20, 3, 19]",5,6,"[4, 8, 10, 14, 21, 24]",127.3150318,6453,1167,2,11,9,1.1701070532957258
undo,43,3,0,0,0,21,"[0, 17, 20, 3, 19, 21]",6,5,"[4, 8, 10, 14, 24]",115.1084762,7427,974,2,6,9,1.202395500952127
undo,43,3,0,0,0,14,"[0, 17, 20, 3, 19, 21, 14]",7,4,"[4, 8, 10, 24]",88.20122806,8560,1133,2,2,9,1.6456130302761207
undo,43,3,0,0,0,24,"[0, 17, 20, 3, 19, 21, 14, 24]",8,1,[8],17.08864127,13829,5269,1,0,9,4.806859660680286
undo,43,3,0,0,1,8,"[0, 17, 20, 3, 19, 21, 14, 24, 8]",9,0,[],4.923116212,14882,1053,1,0,9,4.915218144486606
undo,43,3,0,1,1,8,"[0, 17, 20, 3, 19, 21, 14, 24, 8]",9,0,[],4.923116212,16055,1173,1,0,9,4.915218144486606
undo,44,29,0,0,0,0,[0],1,29,"[1, 2, 3, 4, 5, 6, 7, 8, 9, 10, 11, 12, 13, 14, 15, 16, 17, 18, 19, 20, 21, 22, 23, 24, 25, 26, 27, 28, 29]",300,265,-1,1,78,9,0.0
undo,44,29,0,0,0,1,"[0, 1]",2,17,"[4, 5, 6, 7, 9, 10, 12, 13, 14, 15, 16, 17, 22, 25, 26, 27, 28]",214.2736913,4869,4604,12,79,8,1.0
undo,44,29,0,0,0,14,"[0, 1, 14]",3,15,"[4, 5, 6, 7, 9, 10, 12, 13, 15, 17, 22, 25, 26, 27, 28]",171.3202281,6011,1142,12,45,8,1.4217240517504397
undo,44,29,0,0,0,13,"[0, 1, 14, 13]",4,12,"[4, 5, 6, 7, 9, 12, 17, 22, 25, 26, 27, 28]",153.2924718,6888,877,12,27,8,1.3553272959243952
undo,44,29,0,0,0,5,"[0, 1, 14, 13, 5]",5,10,"[4, 6, 7, 9, 12, 17, 22, 25, 27, 28]",127.5825515,7758,870,11,13,8,1.3875785126283526
undo,44,29,0,0,0,7,"[0, 1, 14, 13, 5, 7]",6,4,"[4, 9, 12, 22]",64.05303079,12426,4668,2,3,8,1.4347589398494487
undo,44,29,0,0,0,12,"[0, 1, 14, 13, 5, 7, 12]",7,2,"[9, 22]",50.45156028,13280,854,2,0,8,1.6164620100895628
undo,44,29,0,0,1,22,"[0, 1, 14, 13, 5, 7, 12, 22]",8,0,[],12.50422836,14373,1093,1,0,8,2.4579471478809536
undo,44,29,0,1,1,22,"[0, 1, 14, 13, 5, 7, 12, 22]",8,0,[],12.50422836,15342,969,1,0,8,2.4579471478809536
undo,45,28,0,0,0,0,[0],1,27,"[1, 2, 3, 4, 5, 6, 7, 8, 9, 10, 11, 12, 13, 14, 15, 16, 17, 18, 19, 20, 22, 23, 25, 26, 27, 28, 29]",300,258,-1,2,96,9,0.0
undo,45,28,0,0,0,3,"[0, 3]",2,26,"[1, 2, 4, 5, 6, 7, 8, 9, 10, 11, 12, 13, 14, 15, 16, 17, 18, 19, 20, 22, 23, 25, 26, 27, 28, 29]",251.0817008,5046,4788,1,64,9,1.0
undo,45,28,0,0,0,14,"[0, 3, 14]",3,13,"[1, 2, 5, 7, 10, 11, 12, 13, 17, 18, 19, 20, 26]",142.7396498,7197,2151,19,59,8,1.0338694802207566
undo,45,28,0,0,0,18,"[0, 3, 14, 18]",4,10,"[1, 2, 5, 7, 11, 12, 13, 17, 19, 26]",117.2445523,8162,965,18,18,8,1.098527225277385
undo,45,28,0,0,0,13,"[0, 3, 14, 18, 13]",5,7,"[2, 7, 11, 12, 17, 19, 26]",92.83144103,9236,1074,8,6,8,1.0872780601597938
undo,45,28,0,0,0,12,"[0, 3, 14, 18, 13, 12]",6,3,"[2, 7, 19]",75.6267905,9952,716,3,1,8,1.0890748557820906
undo,45,28,0,0,0,7,"[0, 3, 14, 18, 13, 12, 7]",7,2,"[2, 19]",62.47384406,11372,1420,2,0,8,1.2125627495730145
undo,45,28,0,0,1,19,"[0, 3, 14, 18, 13, 12, 7, 19]",8,0,[],34.74299481,12550,1178,1,0,8,1.4527925513951803
undo,45,28,0,1,1,19,"[0, 3, 14, 18, 13, 12, 7, 19]",8,0,[],34.74299481,13647,1097,1,0,8,1.4527925513951803
undo,46,15,0,0,0,0,[0],1,25,"[1, 2, 3, 4, 7, 8, 9, 10, 11, 12, 13, 14, 15, 16, 18, 20, 21, 22, 23, 24, 25, 26, 27, 28, 29]",300,189,-1,4,65,9,0.0
undo,46,15,0,0,0,16,"[0, 16]",2,16,"[3, 4, 7, 9, 10, 11, 12, 13, 14, 15, 18, 20, 21, 22, 25, 27]",185.8378346,3844,3655,22,104,7,1.0
undo,46,15,0,0,0,3,"[0, 16, 3]",3,14,"[4, 7, 10, 11, 12, 13, 14, 15, 18, 20, 21, 22, 25, 27]",160.7579622,5324,1480,8,31,7,1.0518498474119804
undo,46,15,0,0,0,11,"[0, 16, 3, 11]",4,11,"[4, 7, 10, 12, 13, 14, 15, 18, 21, 22, 27]",149.356208,5847,523,7,11,7,1.2132134560241312
undo,46,15,0,0,0,7,"[0, 16, 3, 11, 7]",5,4,"[4, 12, 21, 22]",107.871271,6716,869,1,3,7,2.2653602701959374
undo,46,15,0,0,0,12,"[0, 16, 3, 11, 7, 12]",6,1,[21],74.62973068,8592,1876,1,0,7,2.606874218069835
undo,46,15,0,0,1,21,"[0, 16, 3, 11, 7, 12, 21]",7,0,[],30.80051668,9627,1035,1,0,7,2.8311702584977176
undo,46,15,0,1,1,21,"[0, 16, 3, 11, 7, 12, 21]",7,0,[],30.80051668,10802,1175,1,0,7,2.8311702584977176
undo,47,30,0,0,0,0,[0],1,19,"[3, 4, 5, 7, 9, 11, 16, 17, 18, 19, 20, 21, 22, 24, 25, 26, 27, 28, 29]",300,264,-1,5,41,8,0.0
undo,47,30,0,0,0,16,"[0, 16]",2,17,"[3, 5, 7, 9, 11, 17, 18, 19, 20, 21, 22, 24, 25, 26, 27, 28, 29]",219.3774225,6534,6270,5,34,8,1.0
undo,47,30,0,0,0,25,"[0, 16, 25]",3,10,"[3, 5, 7, 9, 11, 18, 19, 20, 27, 29]",115.0845656,8070,1536,5,28,8,1.0336279544884488
undo,47,30,0,0,0,20,"[0, 16, 25, 20]",4,8,"[3, 5, 7, 9, 18, 19, 27, 29]",93.15285342,9051,981,4,14,8,1.0337964627284246
undo,47,30,0,0,0,27,"[0, 16, 25, 20, 27]",5,4,"[3, 5, 18, 29]",59.09408069,10217,1166,4,6,8,1.1504365534848
undo,47,30,0,0,0,3,"[0, 16, 25, 20, 27, 3]",6,3,"[5, 18, 29]",39.98910751,11141,924,4,0,8,1.1403876826835333
undo,47,30,0,0,0,18,"[0, 16, 25, 20, 27, 3, 18]",7,2,"[5, 29]",21.74081992,12369,1228,2,0,8,1.1392589158498312
undo,47,30,0,0,1,29,"[0, 16, 25, 20, 27, 3, 18, 29]",8,0,[],2.427612006,13728,1359,1,0,8,1.2222616227191303
undo,47,30,0,1,1,29,"[0, 16, 25, 20, 27, 3, 18, 29]",8,0,[],2.427612006,15256,1528,1,0,8,1.2222616227191303
undo,48,22,0,0,0,0,[0],1,29,"[1, 2, 3, 4, 5, 6, 7, 8, 9, 10, 11, 12, 13, 14, 15, 16, 17, 18, 19, 20, 21, 22, 23, 24, 25, 26, 27, 28, 29]",300,244,-1,31,704,9,0.0
undo,48,22,0,0,0,13,"[0, 13]",2,22,"[1, 3, 5, 6, 7, 8, 9, 10, 12, 14, 15, 16, 17, 19, 20, 21, 23, 24, 25, 26, 28, 29]",189.3202819,2390,2146,2,52,8,1.0
undo,48,22,0,0,0,15,"[0, 13, 15]",3,17,"[1, 3, 5, 6, 7, 8, 9, 10, 14, 17, 19, 20, 21, 23, 24, 26, 29]",173.7639327,3236,846,2,40,8,1.001747361505262
undo,48,22,0,0,0,20,"[0, 13, 15, 20]",4,12,"[1, 3, 7, 8, 9, 14, 17, 19, 21, 23, 24, 29]",124.9172337,4323,1087,1,19,8,1.2067501174044284
undo,48,22,0,0,0,24,"[0, 13, 15, 20, 24]",5,8,"[1, 3, 7, 14, 17, 19, 21, 29]",87.26089297,5386,1063,1,6,8,1.5860161698462862
undo,48,22,0,0,0,7,"[0, 13, 15, 20, 24, 7]",6,1,[14],20.23104887,6673,1287,1,0,7,2.2245258527195713
undo,48,22,0,0,1,14,"[0, 13, 15, 20, 24, 7, 14]",7,0,[],7.192644063,7567,894,1,0,7,2.26033632369543
undo,48,22,0,1,1,14,"[0, 13, 15, 20, 24, 7, 14]",7,0,[],7.192644063,8562,995,1,0,7,2.26033632369543
undo,49,45,0,0,0,0,[0],1,24,"[1, 2, 3, 4, 5, 6, 7, 9, 10, 11, 12, 14, 15, 16, 17, 19, 20, 21, 22, 23, 24, 25, 27, 29]",300,260,-1,6,248,10,0.0
undo,49,45,0,0,0,17,"[0, 17]",2,22,"[1, 2, 3, 4, 5, 6, 7, 9, 10, 11, 12, 14, 15, 16, 19, 20, 21, 22, 23, 24, 25, 29]",235.867325,2542,2282,1,34,10,1.0
undo,49,45,0,0,0,24,"[0, 17, 24]",3,20,"[1, 2, 3, 4, 5, 6, 7, 9, 10, 11, 12, 14, 15, 16, 19, 20, 21, 22, 23, 29]",193.8078433,3466,924,1,33,10,1.0309432256229287
undo,49,45,0,0,0,7,"[0, 17, 24, 7]",4,18,"[1, 2, 3, 4, 5, 6, 9, 10, 12, 14, 15, 16, 19, 20, 21, 22, 23, 29]",159.3985423,4207,741,1,32,10,1.059763151913087
undo,49,45,0,0,0,2,"[0, 17, 24, 7, 2]",5,12,"[3, 4, 6, 10, 12, 14, 16, 19, 20, 22, 23, 29]",121.3853866,5080,873,1,23,10,1.0656581932115423
undo,49,45,0,0,0,3,"[0, 17, 24, 7, 2, 3]",6,8,"[6, 10, 12, 14, 16, 20, 22, 29]",96.06740884,5868,788,1,13,10,1.1368250049574795
undo,49,45,0,0,0,29,"[0, 17, 24, 7, 2, 3, 29]",7,5,"[6, 10, 12, 20, 22]",76.06740884,6915,1047,1,5,10,1.390376182346372
undo,49,45,0,0,0,10,"[0, 17, 24, 7, 2, 3, 29, 10]",8,2,"[6, 12]",54.52674961,7663,748,1,1,10,1.6682270697663164
undo,49,45,0,0,0,6,"[0, 17, 24, 7, 2, 3, 29, 10, 6]",9,1,[12],28.27794012,9924,2261,1,0,10,1.5776211572942243
undo,49,45,0,0,1,12,"[0, 17, 24, 7, 2, 3, 29, 10, 6, 12]",10,0,[],8.15332832,11410,1486,1,0,10,1.536035114105263
undo,49,45,0,1,1,12,"[0, 17, 24, 7, 2, 3, 29, 10, 6, 12]",10,0,[],8.15332832,12100,690,1,0,10,1.536035114105263
undo,50,4,0,0,0,0,[0],1,26,"[3, 4, 5, 6, 7, 8, 10, 11, 12, 13, 14, 15, 16, 17, 18, 19, 20, 21, 22, 23, 24, 25, 26, 27, 28, 29]",300,274,-1,4,489,10,0.0
undo,50,4,0,0,0,14,"[0, 14]",2,15,"[3, 4, 5, 6, 11, 13, 16, 17, 20, 21, 22, 23, 24, 25, 28]",163.4386585,2535,2261,1,44,9,1.0
undo,50,4,0,0,0,25,"[0, 14, 25]",3,13,"[3, 4, 5, 6, 11, 13, 16, 17, 20, 21, 22, 24, 28]",147.314143,3146,611,1,39,9,1.2040437982303591
undo,50,4,0,0,0,11,"[0, 14, 25, 11]",4,11,"[3, 4, 5, 6, 13, 16, 17, 20, 21, 22, 28]",128.5258487,3990,844,1,23,9,1.3955292752729385
undo,50,4,0,0,0,16,"[0, 14, 25, 11, 16]",5,10,"[3, 4, 5, 6, 13, 17, 20, 21, 22, 28]",113.5258487,5373,1383,1,18,9,1.3527900810051412
undo,50,4,0,0,0,21,"[0, 14, 25, 11, 16, 21]",6,4,"[5, 17, 20, 22]",69.32177654,7287,1914,5,2,8,1.560740045173735
undo,50,4,0,0,0,22,"[0, 14, 25, 11, 16, 21, 22]",7,3,"[5, 17, 20]",58.27641552,7955,668,3,0,8,1.523531850211219
undo,50,4,0,0,1,20,"[0, 14, 25, 11, 16, 21, 22, 20]",8,0,[],28.0439826,8838,883,1,0,8,1.4883222231510882
undo,50,4,0,1,1,20,"[0, 14, 25, 11, 16, 21, 22, 20]",8,0,[],28.0439826,10460,1622,1,0,8,1.4883222231510882
undo,51,0,0,0,0,0,[0],1,27,"[2, 3, 4, 5, 6, 7, 8, 9, 10, 11, 12, 13, 14, 15, 16, 17, 19, 20, 21, 22, 23, 24, 25, 26, 27, 28, 29]",300,165,-1,104,1136,9,0.0
undo,51,0,0,0,0,28,"[0, 28]",2,26,"[2, 3, 4, 5, 6, 7, 8, 9, 10, 11, 12, 13, 14, 15, 16, 17, 19, 20, 21, 22, 23, 24, 25, 26, 27, 29]",194.9190788,5651,5486,39,388,9,1.0
undo,51,0,0,0,0,5,"[0, 28, 5]",3,21,"[2, 3, 4, 7, 8, 9, 11, 12, 13, 14, 15, 16, 17, 19, 20, 21, 23, 24, 25, 26, 29]",151.2613189,8853,3202,27,210,9,1.0978295127671733
undo,51,0,0,0,0,26,"[0, 28, 5, 26]",4,15,"[3, 4, 7, 8, 9, 11, 12, 13, 14, 15, 17, 19, 20, 23, 24]",115.8212286,10147,1294,5,35,9,1.1400379746718978
undo,51,0,0,0,0,4,"[0, 28, 5, 26, 4]",5,12,"[3, 7, 8, 9, 11, 12, 15, 17, 19, 20, 23, 24]",103.779634,11522,1375,4,17,9,1.2534780347343448
undo,51,0,0,0,0,24,"[0, 28, 5, 26, 4, 24]",6,9,"[3, 7, 8, 9, 11, 12, 15, 17, 19]",92.37787977,12463,941,4,12,9,1.2444963062448124
undo,51,0,0,0,0,15,"[0, 28, 5, 26, 4, 24, 15]",7,6,"[3, 7, 8, 9, 11, 17]",69.03264471,13401,938,3,4,9,1.2218613820858855
undo,51,0,0,0,0,8,"[0, 28, 5, 26, 4, 24, 15, 8]",8,1,[7],29.91743028,14719,1318,1,0,9,1.21405351358847
undo,51,0,0,0,1,7,"[0, 28, 5, 26, 4, 24, 15, 8, 7]",9,0,[],10.81245711,15797,1078,1,0,9,1.4106038108734493
undo,51,0,0,1,1,7,"[0, 28, 5, 26, 4, 24, 15, 8, 7]",9,0,[],10.81245711,16882,1085,1,0,9,1.4106038108734493
undo,52,10,0,0,0,0,[0],1,29,"[1, 2, 3, 4, 5, 6, 7, 8, 9, 10, 11, 12, 13, 14, 15, 16, 17, 18, 19, 20, 21, 22, 23, 24, 25, 26, 27, 28, 29]",300,262,-1,1,100,9,0.0
undo,52,10,0,0,0,13,"[0, 13]",2,25,"[1, 2, 3, 4, 6, 7, 8, 9, 10, 11, 12, 14, 17, 18, 19, 20, 21, 22, 23, 24, 25, 26, 27, 28, 29]",249.4628849,2785,2523,1,79,9,1.0
undo,52,10,0,0,0,11,"[0, 13, 11]",3,20,"[1, 2, 3, 6, 7, 8, 9, 10, 12, 14, 18, 19, 20, 21, 22, 24, 26, 27, 28, 29]",206.4512586,3701,916,1,54,9,1.0313137484914219
undo,52,10,0,0,0,19,"[0, 13, 11, 19]",4,11,"[2, 6, 8, 9, 10, 14, 18, 20, 24, 26, 27]",170.0919407,4482,781,1,22,9,1.0879446220132545
undo,52,10,0,0,0,2,"[0, 13, 11, 19, 2]",5,4,"[14, 20, 26, 27]",126.1829439,5565,1083,1,4,9,1.06474052351343
undo,52,10,0,0,0,14,"[0, 13, 11, 19, 2, 14]",6,3,"[20, 26, 27]",114.0174188,6577,1012,1,3,9,1.1628909195912238
undo,52,10,0,0,0,26,"[0, 13, 11, 19, 2, 14, 26]",7,2,"[20, 27]",79.34754716,7260,683,1,1,9,1.6660727647633602
undo,52,10,0,0,0,20,"[0, 13, 11, 19, 2, 14, 26, 20]",8,1,[27],47.56704999,8225,965,1,0,9,2.085581809637999
undo,52,10,0,0,1,27,"[0, 13, 11, 19, 2, 14, 26, 20, 27]",9,0,[],2.312215998,10726,2501,1,0,9,1.9116357409137932
undo,52,10,0,1,1,27,"[0, 13, 11, 19, 2, 14, 26, 20, 27]",9,0,[],2.312215998,11770,1044,1,0,9,1.9116357409137932
undo,53,38,0,0,0,0,[0],1,29,"[1, 2, 3, 4, 5, 6, 7, 8, 9, 10, 11, 12, 13, 14, 15, 16, 17, 18, 19, 20, 21, 22, 23, 24, 25, 26, 27, 28, 29]",300,243,-1,33,506,9,0.0
undo,53,38,0,0,0,15,"[0, 15]",2,24,"[1, 2, 3, 4, 5, 6, 7, 10, 11, 12, 13, 14, 16, 17, 18, 19, 20, 21, 22, 24, 25, 26, 27, 28]",226.6242547,4332,4089,26,315,8,1.0
undo,53,38,0,0,0,4,"[0, 15, 4]",3,21,"[1, 3, 5, 6, 7, 10, 11, 12, 13, 14, 16, 17, 18, 19, 20, 22, 24, 25, 26, 27, 28]",200.6242547,5616,1284,13,104,8,1.4173413634934033
undo,53,38,0,0,0,20,"[0, 15, 4, 20]",4,16,"[3, 5, 6, 7, 11, 13, 14, 16, 17, 18, 19, 22, 24, 26, 27, 28]",166.6831292,7558,1942,6,33,8,2.4756321407912334
undo,53,38,0,0,0,17,"[0, 15, 4, 20, 17]",5,13,"[3, 5, 6, 11, 13, 16, 18, 19, 22, 24, 26, 27, 28]",142.9134005,8169,611,5,14,8,2.4236103458312424
undo,53,38,0,0,0,19,"[0, 15, 4, 20, 17, 19]",6,7,"[3, 6, 13, 18, 22, 26, 27]",121.5358422,9167,998,4,4,8,2.216988824378052
undo,53,38,0,0,1,3,"[0, 15, 4, 20, 17, 19, 3]",7,0,[],45.43065186,10196,1029,1,0,7,1.6604860113609754
undo,53,38,0,1,1,3,"[0, 15, 4, 20, 17, 19, 3]",7,0,[],45.43065186,11526,1330,1,0,7,1.6604860113609754
undo,54,7,0,0,0,0,[0],1,29,"[1, 2, 3, 4, 5, 6, 7, 8, 9, 10, 11, 12, 13, 14, 15, 16, 17, 18, 19, 20, 21, 22, 23, 24, 25, 26, 27, 28, 29]",300,251,-1,3,79,9,0.0
undo,54,7,0,0,0,6,"[0, 6]",2,22,"[2, 4, 5, 7, 8, 9, 10, 11, 13, 14, 15, 16, 18, 19, 20, 21, 22, 23, 24, 25, 27, 28]",231.1160396,3196,2945,1,24,9,1.0
undo,54,7,0,0,0,25,"[0, 6, 25]",3,14,"[2, 4, 5, 7, 13, 14, 15, 16, 18, 19, 20, 21, 23, 28]",163.9371739,4169,973,1,15,9,1.1491202566384209
undo,54,7,0,0,0,4,"[0, 6, 25, 4]",4,10,"[2, 7, 13, 15, 16, 18, 19, 20, 21, 23]",139.1985401,5102,933,1,9,9,1.145081852791697
undo,54,7,0,0,0,20,"[0, 6, 25, 4, 20]",5,6,"[2, 7, 13, 16, 18, 19]",119.5516574,5833,731,1,4,9,1.2036846139155144
undo,54,7,0,0,0,18,"[0, 6, 25, 4, 20, 18]",6,5,"[2, 7, 13, 16, 19]",106.7454089,6734,901,1,3,9,1.3498144584217913
undo,54,7,0,0,0,7,"[0, 6, 25, 4, 20, 18, 7]",7,2,"[2, 19]",65.51435269,10505,3771,1,1,9,1.2817825700699357
undo,54,7,0,0,0,19,"[0, 6, 25, 4, 20, 18, 7, 19]",8,1,[2],36.10347035,11470,965,1,0,9,1.3950287830764145
undo,54,7,0,0,1,2,"[0, 6, 25, 4, 20, 18, 7, 19, 2]",9,0,[],5.953843486,12427,957,1,0,9,1.4010142439340676
undo,54,7,0,1,1,2,"[0, 6, 25, 4, 20, 18, 7, 19, 2]",9,0,[],5.953843486,13714,1287,1,0,9,1.4010142439340676
undo,55,13,0,0,0,0,[0],1,29,"[1, 2, 3, 4, 5, 6, 7, 8, 9, 10, 11, 12, 13, 14, 15, 16, 17, 18, 19, 20, 21, 22, 23, 24, 25, 26, 27, 28, 29]",300,252,-1,60,2676,11,0.0
undo,55,13,0,0,0,24,"[0, 24]",2,28,"[1, 2, 3, 4, 5, 6, 7, 8, 9, 10, 11, 12, 13, 14, 15, 16, 17, 18, 19, 20, 21, 22, 23, 25, 26, 27, 28, 29]",288.8196601,3502,3250,16,1444,11,1.0
undo,55,13,0,0,0,28,"[0, 24, 28]",3,23,"[1, 2, 3, 4, 6, 7, 8, 9, 10, 11, 12, 13, 15, 16, 17, 19, 20, 21, 22, 23, 26, 27, 29]",222.5324064,4632,1130,8,243,11,1.0513810491680837
undo,55,13,0,0,0,2,"[0, 24, 28, 2]",4,19,"[1, 3, 4, 6, 7, 9, 11, 12, 13, 15, 16, 17, 19, 20, 21, 23, 26, 27, 29]",184.889346,5662,1030,7,110,11,1.050374132001543
undo,55,13,0,0,0,29,"[0, 24, 28, 2, 29]",5,18,"[1, 3, 4, 6, 7, 9, 11, 12, 13, 15, 16, 17, 19, 20, 21, 23, 26, 27]",173.1846461,6273,611,7,85,11,1.1393409619120594
undo,55,13,0,0,0,7,"[0, 24, 28, 2, 29, 7]",6,17,"[1, 3, 4, 6, 9, 11, 12, 13, 15, 16, 17, 19, 20, 21, 23, 26, 27]",157.9203086,7174,901,5,45,11,1.349777315111579
undo,55,13,0,0,0,26,"[0, 24, 28, 2, 29, 7, 26]",7,16,"[1, 3, 4, 6, 9, 11, 12, 13, 15, 16, 17, 19, 20, 21, 23, 27]",147.480002,8122,948,5,25,11,1.5942082773824946
undo,55,13,0,0,0,6,"[0, 24, 28, 2, 29, 7, 26, 6]",8,12,"[1, 3, 4, 11, 13, 15, 16, 17, 19, 20, 23, 27]",127.3802508,8919,797,4,12,11,1.5898347940840756
undo,55,13,0,0,0,11,"[0, 24, 28, 2, 29, 7, 26, 6, 11]",9,6,"[1, 13, 15, 16, 17, 23]",108.2752776,9635,716,3,4,11,1.5029953945561012
undo,55,13,0,0,1,16,"[0, 24, 28, 2, 29, 7, 26, 6, 11, 16]",10,0,[],21.18337215,13805,4170,1,0,10,3.0290055362462343
undo,55,13,0,1,1,16,"[0, 24, 28, 2, 29, 7, 26, 6, 11, 16]",10,0,[],21.18337215,15511,1706,1,0,10,3.0290055362462343
undo,56,40,0,0,0,0,[0],1,29,"[1, 2, 3, 4, 5, 6, 7, 8, 9, 10, 11, 12, 13, 14, 15, 16, 17, 18, 19, 20, 21, 22, 23, 24, 25, 26, 27, 28, 29]",300,383,-1,8,191,9,0.0
undo,56,40,0,0,0,2,"[0, 2]",2,28,"[1, 3, 4, 5, 6, 7, 8, 9, 10, 11, 12, 13, 14, 15, 16, 17, 18, 19, 20, 21, 22, 23, 24, 25, 26, 27, 28, 29]",263.7646581,4247,3864,4,79,9,1.0
undo,56,40,0,0,0,19,"[0, 2, 19]",3,22,"[1, 5, 6, 7, 8, 9, 10, 11, 13, 14, 15, 17, 18, 20, 21, 22, 23, 24, 25, 26, 27, 29]",194.4249148,5059,812,19,105,8,1.02908296307533
undo,56,40,0,0,0,23,"[0, 2, 19, 23]",4,15,"[1, 5, 6, 7, 8, 9, 10, 11, 13, 17, 18, 21, 22, 27, 29]",162.4718242,8927,3868,11,38,8,1.4499965171787688
undo,56,40,0,0,0,5,"[0, 2, 19, 23, 5]",5,10,"[1, 6, 7, 8, 9, 11, 18, 21, 22, 27]",134.1698808,9817,890,4,12,8,1.3483906154476113
undo,56,40,0,0,0,22,"[0, 2, 19, 23, 5, 22]",6,2,"[11, 27]",71.55997746,11361,1544,2,0,7,1.289880711252456
undo,56,40,0,0,1,27,"[0, 2, 19, 23, 5, 22, 27]",7,0,[],20.75643428,13049,1688,1,0,7,1.497591341508945
undo,56,40,0,1,1,27,"[0, 2, 19, 23, 5, 22, 27]",7,0,[],20.75643428,14451,1402,1,0,7,1.497591341508945
undo,57,5,0,0,0,0,[0],1,29,"[1, 2, 3, 4, 5, 6, 7, 8, 9, 10, 11, 12, 13, 14, 15, 16, 17, 18, 19, 20, 21, 22, 23, 24, 25, 26, 27, 28, 29]",300,223,-1,5,139,9,0.0
undo,57,5,0,0,0,24,"[0, 24]",2,25,"[1, 2, 3, 4, 5, 6, 8, 9, 10, 11, 12, 13, 14, 15, 16, 17, 18, 19, 21, 22, 23, 25, 26, 27, 28]",227.5776278,2763,2540,8,97,8,1.0
undo,57,5,0,0,0,17,"[0, 24, 17]",3,19,"[2, 4, 5, 6, 8, 9, 10, 12, 13, 14, 15, 18, 19, 22, 23, 25, 26, 27, 28]",192.5919164,3567,804,13,72,7,1.0059247529501867
undo,57,5,0,0,0,5,"[0, 24, 17, 5]",4,10,"[4, 6, 8, 12, 14, 15, 18, 19, 23, 25]",149.5454299,4561,994,9,12,7,1.006615931732959
undo,57,5,0,0,0,18,"[0, 24, 17, 5, 18]",5,3,"[4, 6, 15]",82.47829935,6796,2235,2,1,7,1.072668372437388
undo,57,5,0,0,0,4,"[0, 24, 17, 5, 18, 4]",6,1,[6],44.05955392,7440,644,1,0,7,1.4605865590409772
undo,57,5,0,0,1,6,"[0, 24, 17, 5, 18, 4, 6]",7,0,[],32.01795935,8212,772,1,0,7,1.6046828781437126
undo,57,5,0,1,1,6,"[0, 24, 17, 5, 18, 4, 6]",7,0,[],32.01795935,9219,1007,1,0,7,1.6046828781437126
undo,58,1,0,0,0,0,[0],1,26,"[1, 2, 4, 5, 7, 8, 9, 10, 11, 12, 13, 14, 15, 16, 17, 18, 19, 20, 21, 22, 23, 24, 25, 26, 28, 29]",300,257,-1,6,74,7,0.0
undo,58,1,0,0,0,14,"[0, 14]",2,19,"[1, 4, 5, 8, 9, 13, 15, 17, 18, 19, 20, 21, 22, 23, 24, 25, 26, 28, 29]",200.1901808,1990,1733,5,42,7,1.0
undo,58,1,0,0,0,17,"[0, 14, 17]",3,15,"[1, 4, 5, 8, 9, 13, 15, 18, 19, 20, 22, 23, 25, 28, 29]",147.8356204,2891,901,5,27,7,1.0028844724416826
undo,58,1,0,0,0,1,"[0, 14, 17, 1]",4,12,"[4, 5, 8, 9, 15, 18, 20, 22, 23, 25, 28, 29]",123.4840291,3639,748,5,15,7,1.0264985578353567
undo,58,1,0,0,0,28,"[0, 14, 17, 1, 28]",5,5,"[9, 15, 22, 23, 29]",88.59850198,5334,1695,5,3,7,1.0339861575999345
undo,58,1,0,0,0,23,"[0, 14, 17, 1, 28, 23]",6,2,"[15, 22]",51.70676849,6193,859,2,0,7,1.0327458250705703
undo,58,1,0,0,1,15,"[0, 14, 17, 1, 28, 23, 15]",7,0,[],20.81987807,7182,989,1,0,7,1.1948681641401226
undo,58,1,0,1,1,15,"[0, 14, 17, 1, 28, 23, 15]",7,0,[],20.81987807,8118,936,1,0,7,1.1948681641401226
undo,59,18,0,0,0,0,[0],1,28,"[1, 2, 3, 4, 5, 6, 7, 8, 9, 10, 11, 12, 13, 14, 16, 17, 18, 19, 20, 21, 22, 23, 24, 25, 26, 27, 28, 29]",300,250,-1,3,136,10,0.0
undo,59,18,0,0,0,28,"[0, 28]",2,16,"[1, 3, 5, 7, 8, 9, 12, 13, 14, 16, 20, 23, 24, 25, 26, 27]",236.4311397,2943,2693,2,19,10,1.0
undo,59,18,0,0,0,7,"[0, 28, 7]",3,15,"[1, 3, 5, 8, 9, 12, 13, 14, 16, 20, 23, 24, 25, 26, 27]",214.4084242,3780,837,2,17,10,1.4345180696367563
undo,59,18,0,0,0,25,"[0, 28, 7, 25]",4,13,"[1, 3, 5, 8, 9, 12, 13, 14, 16, 20, 23, 26, 27]",186.6055466,4624,844,2,15,10,1.8896451241781882
undo,59,18,0,0,0,8,"[0, 28, 7, 25, 8]",5,10,"[3, 5, 9, 12, 13, 14, 16, 23, 26, 27]",149.551532,7475,2851,2,10,10,1.590467437592877
undo,59,18,0,0,0,13,"[0, 28, 7, 25, 8, 13]",6,9,"[3, 5, 9, 12, 14, 16, 23, 26, 27]",128.4565089,8198,723,2,5,10,1.8248274983549797
undo,59,18,0,0,0,14,"[0, 28, 7, 25, 8, 13, 14]",7,7,"[3, 5, 9, 12, 23, 26, 27]",109.4828429,11259,3061,2,3,10,1.6993534956692746
undo,59,18,0,0,0,3,"[0, 28, 7, 25, 8, 13, 14, 3]",8,3,"[5, 12, 27]",79.39962499,12095,836,2,1,10,1.802637206541468
undo,59,18,0,0,0,5,"[0, 28, 7, 25, 8, 13, 14, 3, 5]",9,1,[12],21.21887216,13229,1134,1,0,10,1.559774889743805
undo,59,18,0,0,1,12,"[0, 28, 7, 25, 8, 13, 14, 3, 5, 12]",10,0,[],9.817117911,14130,901,1,0,10,1.563993037384447
undo,59,18,0,1,1,12,"[0, 28, 7, 25, 8, 13, 14, 3, 5, 12]",10,0,[],9.817117911,15008,878,1,0,10,1.563993037384447
undo,60,24,0,0,0,0,[0],1,29,"[1, 2, 3, 4, 5, 6, 7, 8, 9, 10, 11, 12, 13, 14, 15, 16, 17, 18, 19, 20, 21, 22, 23, 24, 25, 26, 27, 28, 29]",300,243,-1,4,76,10,0.0
undo,60,24,0,0,0,16,"[0, 16]",2,28,"[1, 2, 3, 4, 5, 6, 7, 8, 9, 10, 11, 12, 13, 14, 15, 17, 18, 19, 20, 21, 22, 23, 24, 25, 26, 27, 28, 29]",210.3562607,8027,7784,13,110,9,1.0
undo,60,24,0,0,0,8,"[0, 16, 8]",3,22,"[1, 2, 3, 4, 6, 9, 10, 11, 13, 14, 15, 17, 20, 21, 22, 23, 24, 25, 26, 27, 28, 29]",181.3562607,8881,854,3,31,9,1.0774669368510212
undo,60,24,0,0,0,22,"[0, 16, 8, 22]",4,18,"[2, 3, 4, 6, 9, 10, 11, 13, 14, 15, 17, 23, 24, 25, 26, 27, 28, 29]",167.9398528,9672,791,3,23,9,1.2531772310046492
undo,60,24,0,0,0,15,"[0, 16, 8, 22, 15]",5,16,"[3, 4, 6, 9, 10, 11, 13, 14, 17, 23, 24, 25, 26, 27, 28, 29]",146.7266494,10862,1190,3,16,9,1.2813329946092564
undo,60,24,0,0,0,28,"[0, 16, 8, 22, 15, 28]",6,8,"[3, 4, 9, 11, 13, 23, 26, 27]",101.4497237,13918,3056,3,5,9,1.2060847818642253
undo,60,24,0,0,0,23,"[0, 16, 8, 22, 15, 28, 23]",7,3,"[9, 11, 27]",82.42342609,14504,586,3,1,9,1.2349355190066822
undo,60,24,0,0,0,11,"[0, 16, 8, 22, 15, 28, 23, 11]",8,2,"[9, 27]",55.49760206,15534,1030,2,0,9,1.2172586817191506
undo,60,24,0,0,1,9,"[0, 16, 8, 22, 15, 28, 23, 11, 9]",9,0,[],23.24857107,16429,895,1,0,9,1.3037788048831767
undo,60,24,0,1,1,9,"[0, 16, 8, 22, 15, 28, 23, 11, 9]",9,0,[],23.24857107,17298,869,1,0,9,1.3037788048831767
undo,61,19,0,0,0,0,[0],1,29,"[1, 2, 3, 4, 5, 6, 7, 8, 9, 10, 11, 12, 13, 14, 15, 16, 17, 18, 19, 20, 21, 22, 23, 24, 25, 26, 27, 28, 29]",300,272,-1,12,149,8,0.0
undo,61,19,0,0,0,29,"[0, 29]",2,28,"[1, 2, 3, 4, 5, 6, 7, 8, 9, 10, 11, 12, 13, 14, 15, 16, 17, 18, 19, 20, 21, 22, 23, 24, 25, 26, 27, 28]",265.0715016,7590,7318,12,120,8,1.0
undo,61,19,0,0,0,9,"[0, 29, 9]",3,17,"[1, 4, 5, 6, 7, 10, 11, 12, 13, 14, 19, 20, 21, 22, 24, 27, 28]",181.7108394,8856,1266,11,65,8,1.0375842971861238
undo,61,19,0,0,0,6,"[0, 29, 9, 6]",4,12,"[4, 7, 10, 11, 13, 14, 20, 21, 22, 24, 27, 28]",140.2741407,9840,984,11,34,8,1.0389786364356892
undo,61,19,0,0,0,4,"[0, 29, 9, 6, 4]",5,7,"[10, 11, 14, 20, 22, 27, 28]",99.22538921,10996,1156,2,6,8,1.2182485830176533
undo,61,19,0,0,0,28,"[0, 29, 9, 6, 4, 28]",6,3,"[11, 14, 27]",88.04504932,11930,934,2,1,8,1.2933703503588658
undo,61,19,0,0,0,11,"[0, 29, 9, 6, 4, 28, 11]",7,1,[14],23.50823812,13240,1310,1,0,8,1.2610479003557273
undo,61,19,0,0,1,14,"[0, 29, 9, 6, 4, 28, 11, 14]",8,0,[],12.69158429,14060,820,1,0,8,1.3738796083749716
undo,61,19,0,1,1,14,"[0, 29, 9, 6, 4, 28, 11, 14]",8,0,[],12.69158429,15064,1004,1,0,8,1.3738796083749716
undo,62,44,0,0,0,0,[0],1,29,"[1, 2, 3, 4, 5, 6, 7, 8, 9, 10, 11, 12, 13, 14, 15, 16, 17, 18, 19, 20, 21, 22, 23, 24, 25, 26, 27, 28, 29]",300,275,-1,13,126,7,0.0
undo,62,44,0,0,0,8,"[0, 8]",2,17,"[1, 4, 5, 7, 9, 10, 11, 12, 13, 14, 15, 20, 21, 23, 24, 25, 27]",145.7923478,2391,2116,1,10,7,1.0
undo,62,44,0,0,0,20,"[0, 8, 20]",3,16,"[1, 4, 5, 7, 9, 10, 11, 12, 13, 14, 15, 21, 23, 24, 25, 27]",133.7093018,3150,759,1,9,7,1.0890794433668698
undo,62,44,0,0,0,9,"[0, 8, 20, 9]",4,7,"[4, 7, 11, 12, 14, 23, 24]",76.43801756,4790,1640,1,6,7,1.40892325509949
undo,62,44,0,0,0,4,"[0, 8, 20, 9, 4]",5,4,"[7, 12, 23, 24]",56.74030196,5535,745,1,3,7,1.3849770570803555
undo,62,44,0,0,0,7,"[0, 8, 20, 9, 4, 7]",6,1,[23],25.72417712,6642,1107,1,0,7,1.3274380931474288
undo,62,44,0,0,1,23,"[0, 8, 20, 9, 4, 7, 23]",7,0,[],6.619203947,7534,892,1,0,7,1.3395824779823196
undo,62,44,0,1,1,23,"[0, 8, 20, 9, 4, 7, 23]",7,0,[],6.619203947,8404,870,1,0,7,1.3395824779823196
undo,63,9,0,0,0,0,[0],1,27,"[1, 3, 4, 5, 6, 7, 8, 9, 10, 11, 13, 14, 15, 16, 17, 18, 19, 20, 21, 22, 23, 24, 25, 26, 27, 28, 29]",300,300,-1,2,182,10,0.0
undo,63,9,0,0,0,25,"[0, 25]",2,24,"[1, 3, 4, 5, 6, 7, 8, 9, 10, 11, 13, 15, 16, 17, 18, 19, 20, 21, 22, 23, 24, 26, 27, 28]",275.9168108,5137,4837,2,104,10,1.0
undo,63,9,0,0,0,10,"[0, 25, 10]",3,20,"[3, 4, 5, 7, 8, 9, 11, 13, 15, 16, 17, 18, 19, 20, 21, 22, 23, 26, 27, 28]",236.0670932,6069,932,2,76,10,1.1767014107208227
undo,63,9,0,0,0,28,"[0, 25, 10, 28]",4,19,"[3, 4, 5, 7, 8, 9, 11, 13, 15, 16, 17, 18, 19, 20, 21, 22, 23, 26, 27]",179.0670932,8188,2119,1,17,10,1.628144700364468
undo,63,9,0,0,0,8,"[0, 25, 10, 28, 8]",5,15,"[3, 4, 7, 9, 11, 16, 17, 18, 19, 20, 21, 22, 23, 26, 27]",168.2504393,9034,846,1,10,10,2.0656593525143574
undo,63,9,0,0,0,23,"[0, 25, 10, 28, 8, 23]",6,12,"[3, 4, 7, 9, 11, 18, 19, 20, 21, 22, 26, 27]",146.7795288,9918,884,1,7,10,2.573408160646792
undo,63,9,0,0,0,9,"[0, 25, 10, 28, 8, 23, 9]",7,9,"[3, 4, 7, 11, 18, 19, 20, 21, 26]",124.418849,10810,892,1,5,10,2.3579094141840375
undo,63,9,0,0,0,26,"[0, 25, 10, 28, 8, 23, 9, 26]",8,3,"[18, 20, 21]",67.77081284,12157,1347,1,2,10,1.9878439811785502
undo,63,9,0,0,0,21,"[0, 25, 10, 28, 8, 23, 9, 26, 21]",9,1,[20],13.86348496,13379,1222,1,0,10,2.4139880801675853
undo,63,9,0,0,1,20,"[0, 25, 10, 28, 8, 23, 9, 26, 21, 20]",10,0,[],1.780438983,14304,925,1,0,10,2.3546911124891037
undo,63,9,0,1,1,20,"[0, 25, 10, 28, 8, 23, 9, 26, 21, 20]",10,0,[],1.780438983,15560,1256,1,0,10,2.3546911124891037
undo,64,17,0,0,0,0,[0],1,28,"[1, 2, 3, 4, 5, 6, 7, 8, 9, 10, 11, 12, 13, 14, 15, 16, 17, 18, 19, 20, 22, 23, 24, 25, 26, 27, 28, 29]",300,256,-1,2,73,8,0.0
undo,64,17,0,0,0,9,"[0, 9]",2,25,"[1, 2, 3, 5, 6, 7, 8, 10, 11, 12, 14, 15, 16, 17, 18, 19, 20, 22, 23, 24, 25, 26, 27, 28, 29]",210.5293344,2036,1780,1,34,8,1.0
undo,64,17,0,0,0,16,"[0, 9, 16]",3,21,"[1, 2, 3, 5, 7, 8, 10, 11, 12, 14, 17, 18, 19, 20, 22, 23, 25, 26, 27, 28, 29]",197.1876704,3010,974,1,26,8,1.173103464220352
undo,64,17,0,0,0,2,"[0, 9, 16, 2]",4,18,"[1, 3, 5, 7, 8, 10, 11, 12, 14, 17, 18, 19, 23, 25, 26, 27, 28, 29]",181.0631549,3847,837,1,23,8,1.14825089247282
undo,64,17,0,0,0,10,"[0, 9, 16, 2, 10]",5,4,"[3, 11, 23, 28]",71.04042993,7598,3751,3,2,7,1.2629477265421833
undo,64,17,0,0,0,3,"[0, 9, 16, 2, 10, 3]",6,2,"[11, 28]",44.41337602,8643,1045,2,0,7,1.349216507765288
undo,64,17,0,0,1,11,"[0, 9, 16, 2, 10, 3, 11]",7,0,[],18.24087136,9456,813,1,0,7,1.389139472055928
undo,64,17,0,1,1,11,"[0, 9, 16, 2, 10, 3, 11]",7,0,[],18.24087136,10511,1055,1,0,7,1.389139472055928
undo,65,33,0,0,0,0,[0],1,23,"[1, 2, 5, 7, 8, 11, 12, 13, 14, 15, 16, 17, 18, 19, 20, 21, 23, 24, 25, 26, 27, 28, 29]",300,227,-1,5,108,9,0.0
undo,65,33,0,0,0,8,"[0, 8]",2,22,"[1, 2, 5, 7, 11, 12, 13, 14, 15, 16, 17, 18, 19, 20, 21, 23, 24, 25, 26, 27, 28, 29]",265.8679037,3885,3658,5,87,9,1.0
undo,65,33,0,0,0,21,"[0, 8, 21]",3,16,"[2, 5, 7, 11, 13, 14, 16, 17, 18, 19, 20, 24, 26, 27, 28, 29]",166.0430571,4995,1110,5,80,9,1.0670557763739492
undo,65,33,0,0,0,17,"[0, 8, 21, 17]",4,11,"[2, 7, 11, 13, 14, 16, 19, 20, 24, 26, 29]",127.4036989,5968,973,1,18,9,1.0830294710276618
undo,65,33,0,0,0,13,"[0, 8, 21, 17, 13]",5,10,"[2, 7, 11, 14, 16, 19, 20, 24, 26, 29]",104.6001904,6889,921,1,10,9,1.2861654105061844
undo,65,33,0,0,0,19,"[0, 8, 21, 17, 13, 19]",6,6,"[7, 14, 16, 24, 26, 29]",79.10509282,7774,885,1,6,9,1.3181942666818214
undo,65,33,0,0,0,7,"[0, 8, 21, 17, 13, 19, 7]",7,3,"[14, 24, 26]",33.48711391,9124,1350,1,2,9,1.25064167844248
undo,65,33,0,0,0,14,"[0, 8, 21, 17, 13, 19, 7, 14]",8,1,[26],18.62104516,10148,1024,1,0,9,1.297007778404226
undo,65,33,0,0,1,26,"[0, 8, 21, 17, 13, 19, 7, 14, 26]",9,0,[],5.971934519,10977,829,1,0,9,1.2996231319325615
undo,65,33,0,1,1,26,"[0, 8, 21, 17, 13, 19, 7, 14, 26]",9,0,[],5.971934519,11977,1000,1,0,9,1.2996231319325615
undo,66,20,0,0,0,0,[0],1,21,"[1, 2, 3, 4, 5, 6, 7, 8, 9, 12, 17, 18, 20, 21, 22, 23, 25, 26, 27, 28, 29]",300,247,-1,1,9,9,0.0
undo,66,20,0,0,0,12,"[0, 12]",2,20,"[1, 2, 3, 4, 5, 6, 7, 8, 9, 17, 18, 20, 21, 22, 23, 25, 26, 27, 28, 29]",271.5570747,3390,3143,1,8,9,1.0
undo,66,20,0,0,0,1,"[0, 12, 1]",3,12,"[3, 4, 5, 6, 8, 9, 20, 21, 23, 27, 28, 29]",189.5692707,4568,1178,1,6,9,1.0757997779162911
undo,66,20,0,0,0,5,"[0, 12, 1, 5]",4,10,"[4, 6, 8, 9, 20, 21, 23, 27, 28, 29]",152.8950291,6774,2206,1,5,9,1.1708231454516806
undo,66,20,0,0,0,21,"[0, 12, 1, 5, 21]",5,8,"[4, 6, 8, 9, 20, 23, 27, 28]",107.8950291,8518,1744,1,4,9,1.126197336199212
undo,66,20,0,0,0,8,"[0, 12, 1, 5, 21, 8]",6,5,"[6, 9, 23, 27, 28]",90.43077988,9453,935,1,3,9,1.140007470699913
undo,66,20,0,0,0,23,"[0, 12, 1, 5, 21, 8, 23]",7,2,"[6, 9]",45.74297394,10475,1022,1,1,9,1.1162257896627588
undo,66,20,0,0,0,9,"[0, 12, 1, 5, 21, 8, 23, 9]",8,1,[6],26.53360123,11513,1038,1,0,9,1.1086880559449597
undo,66,20,0,0,1,6,"[0, 12, 1, 5, 21, 8, 23, 9, 6]",9,0,[],3.511872362,12719,1206,1,0,9,1.1186240265999328
undo,66,20,0,1,1,6,"[0, 12, 1, 5, 21, 8, 23, 9, 6]",9,0,[],3.511872362,13608,889,1,0,9,1.1186240265999328
undo,67,32,0,0,0,0,[0],1,29,"[1, 2, 3, 4, 5, 6, 7, 8, 9, 10, 11, 12, 13, 14, 15, 16, 17, 18, 19, 20, 21, 22, 23, 24, 25, 26, 27, 28, 29]",300,268,-1,17,359,10,0.0
undo,67,32,0,0,0,15,"[0, 15]",2,24,"[2, 3, 4, 5, 6, 7, 8, 9, 10, 11, 12, 13, 14, 16, 17, 19, 20, 22, 23, 24, 25, 26, 27, 28]",214.6185032,4089,3821,11,153,9,1.0
undo,67,32,0,0,0,28,"[0, 15, 28]",3,21,"[2, 3, 5, 7, 8, 9, 10, 11, 12, 13, 14, 16, 17, 19, 20, 22, 23, 24, 25, 26, 27]",203.2167489,5206,1117,11,119,9,1.000160051986942
undo,67,32,0,0,0,12,"[0, 15, 28, 12]",4,19,"[2, 3, 5, 7, 8, 9, 10, 11, 13, 16, 17, 19, 20, 22, 23, 24, 25, 26, 27]",184.243083,6002,796,8,71,9,1.0281484763748023
undo,67,32,0,0,0,16,"[0, 15, 28, 12, 16]",5,17,"[2, 3, 5, 7, 8, 9, 10, 11, 13, 17, 19, 20, 22, 23, 24, 26, 27]",168.5906071,6895,893,6,38,9,1.1190771370096
undo,67,32,0,0,0,22,"[0, 15, 28, 12, 16, 22]",6,10,"[2, 3, 5, 8, 9, 10, 11, 17, 20, 27]",134.7527585,8246,1351,4,16,9,1.1702311155319893
undo,67,32,0,0,0,9,"[0, 15, 28, 12, 16, 22, 9]",7,6,"[2, 8, 10, 17, 20, 27]",112.5491552,9235,989,2,4,9,1.2381424719932013
undo,67,32,0,0,0,8,"[0, 15, 28, 12, 16, 22, 9, 8]",8,1,[20],67.42709849,10155,920,1,0,9,1.187013645273504
undo,67,32,0,0,1,20,"[0, 15, 28, 12, 16, 22, 9, 8, 20]",9,0,[],17.09818036,11499,1344,1,0,9,1.3986201165175596
undo,67,32,0,1,1,20,"[0, 15, 28, 12, 16, 22, 9, 8, 20]",9,0,[],17.09818036,12671,1172,1,0,9,1.3986201165175596
undo,68,8,0,0,0,0,[0],1,29,"[1, 2, 3, 4, 5, 6, 7, 8, 9, 10, 11, 12, 13, 14, 15, 16, 17, 18, 19, 20, 21, 22, 23, 24, 25, 26, 27, 28, 29]",300,248,-1,10,149,9,0.0
undo,68,8,0,0,0,5,"[0, 5]",2,28,"[1, 2, 3, 4, 6, 7, 8, 9, 10, 11, 12, 13, 14, 15, 16, 17, 18, 19, 20, 21, 22, 23, 24, 25, 26, 27, 28, 29]",254.5137383,2792,2544,10,100,9,1.0
undo,68,8,0,0,0,25,"[0, 5, 25]",3,20,"[1, 2, 3, 4, 6, 11, 12, 14, 15, 16, 17, 18, 19, 20, 21, 22, 23, 24, 28, 29]",215.3091468,3676,884,4,42,9,1.2272747879909065
undo,68,8,0,0,0,1,"[0, 5, 25, 1]",4,17,"[3, 4, 6, 11, 12, 14, 15, 16, 17, 18, 20, 21, 22, 23, 24, 28, 29]",190.3091468,4605,929,3,24,9,1.1770245007593956
undo,68,8,0,0,0,23,"[0, 5, 25, 1, 23]",5,15,"[3, 4, 6, 11, 14, 15, 16, 17, 18, 20, 21, 22, 24, 28, 29]",167.2874179,5241,636,1,14,9,1.141996583852372
undo,68,8,0,0,0,18,"[0, 5, 25, 1, 23, 18]",6,9,"[3, 4, 11, 14, 15, 16, 17, 24, 28]",125.5261919,6149,908,1,7,9,1.3199166330970717
undo,68,8,0,0,0,14,"[0, 5, 25, 1, 23, 18, 14]",7,2,"[11, 17]",68.03706246,7911,1762,1,1,9,2.714920831666598
undo,68,8,0,0,0,17,"[0, 5, 25, 1, 23, 18, 14, 17]",8,1,[11],31.02355141,9227,1316,1,0,9,2.462600896722246
undo,68,8,0,0,1,11,"[0, 5, 25, 1, 23, 18, 14, 17, 11]",9,0,[],5.84419479,10110,883,1,0,9,2.246839316887767
undo,68,8,0,1,1,11,"[0, 5, 25, 1, 23, 18, 14, 17, 11]",9,0,[],5.84419479,10941,831,1,0,9,2.246839316887767
basic,69,14,0,0,0,0,[0],1,29,"[1, 2, 3, 4, 5, 6, 7, 8, 9, 10, 11, 12, 13, 14, 15, 16, 17, 18, 19, 20, 21, 22, 23, 24, 25, 26, 27, 28, 29]",300,226,-1,8,157,10,0.0
basic,69,14,0,0,0,20,"[0, 20]",2,21,"[1, 2, 3, 7, 8, 9, 10, 11, 13, 15, 17, 18, 19, 21, 22, 23, 25, 26, 27, 28, 29]",236.0468922,5163,4937,2,25,9,1.0
basic,69,14,0,0,0,13,"[0, 20, 13]",3,9,"[1, 3, 8, 15, 17, 18, 19, 22, 28]",178.5577628,6127,964,15,25,7,1.102881585595972
basic,69,14,0,0,0,17,"[0, 20, 13, 17]",4,6,"[1, 8, 15, 18, 19, 28]",101.0658277,7353,1226,3,8,7,1.8407210122454065
basic,69,14,0,0,0,28,"[0, 20, 13, 17, 28]",5,3,"[8, 15, 18]",87.61220366,8183,830,2,1,7,2.164407177777365
basic,69,14,0,0,0,15,"[0, 20, 13, 17, 28, 15]",6,1,[18],68.40283095,9035,852,1,0,7,2.7804564598469064
basic,69,14,0,0,1,18,"[0, 20, 13, 17, 28, 15, 18]",7,0,[],5.339370846,10186,1151,1,0,7,2.453376499383016
basic,69,14,0,1,1,18,"[0, 20, 13, 17, 28, 15, 18]",7,0,[],5.339370846,11085,899,1,0,7,2.453376499383016
basic,70,26,0,0,0,0,[0],1,29,"[1, 2, 3, 4, 5, 6, 7, 8, 9, 10, 11, 12, 13, 14, 15, 16, 17, 18, 19, 20, 21, 22, 23, 24, 25, 26, 27, 28, 29]",300,262,-1,9,226,9,0.0
basic,70,26,0,0,0,10,"[0, 10]",2,6,"[4, 6, 14, 16, 17, 29]",138.1822012,2708,2446,9,66,7,1.0
basic,70,26,0,0,0,6,"[0, 10, 6]",3,5,"[4, 14, 16, 17, 29]",108.9076389,3865,1157,8,23,7,1.1897813099332413
basic,70,26,0,0,0,17,"[0, 10, 6, 17]",4,4,"[4, 14, 16, 29]",88.78302709,4565,700,4,8,7,1.4865222367185558
basic,70,26,0,0,0,4,"[0, 10, 6, 17, 4]",5,3,"[14, 16, 29]",67.68800398,5425,860,2,2,7,1.916729108705874
basic,70,26,0,0,0,29,"[0, 10, 6, 17, 4, 29]",6,2,"[14, 16]",43.68800398,6306,881,2,0,7,2.0976789920371655
basic,70,26,0,0,1,16,"[0, 10, 6, 17, 4, 29, 16]",7,0,[],19.48056711,7087,781,1,0,7,2.5058366630362654
basic,70,26,0,1,1,16,"[0, 10, 6, 17, 4, 29, 16]",7,0,[],19.48056711,8136,1049,1,0,7,2.5058366630362654
basic,71,16,0,0,0,0,[0],1,29,"[1, 2, 3, 4, 5, 6, 7, 8, 9, 10, 11, 12, 13, 14, 15, 16, 17, 18, 19, 20, 21, 22, 23, 24, 25, 26, 27, 28, 29]",300,242,-1,13,161,9,0.0
basic,71,16,0,0,0,21,"[0, 21]",2,28,"[1, 2, 3, 4, 5, 6, 7, 8, 9, 10, 11, 12, 13, 14, 15, 16, 17, 18, 19, 20, 22, 23, 24, 25, 26, 27, 28, 29]",215.1884442,5170,4928,5,68,8,1.0
basic,71,16,0,0,0,16,"[0, 21, 16]",3,23,"[1, 2, 3, 4, 5, 8, 9, 11, 12, 14, 15, 17, 18, 19, 20, 22, 23, 24, 25, 26, 27, 28, 29]",170.5342171,6658,1488,1,10,8,1.5666660979467493
basic,71,16,0,0,0,8,"[0, 21, 16, 8]",4,8,"[3, 5, 9, 12, 15, 17, 20, 25]",122.1606706,7530,872,1,9,8,1.433768589412012
basic,71,16,0,0,0,20,"[0, 21, 16, 8, 20]",5,4,"[5, 9, 15, 25]",64.38524327,8769,1239,1,4,8,1.3021365135740595
basic,71,16,0,0,0,25,"[0, 21, 16, 8, 20, 25]",6,3,"[5, 9, 15]",51.73613263,9541,772,1,2,8,1.347410797552043
basic,71,16,0,0,0,9,"[0, 21, 16, 8, 20, 25, 9]",7,1,[15],38.92988415,10418,877,1,0,8,1.3249559191776434
basic,71,16,0,0,1,15,"[0, 21, 16, 8, 20, 25, 9, 15]",8,0,[],0.032583475,11333,915,1,0,8,1.4139342849367809
basic,71,16,0,1,1,15,"[0, 21, 16, 8, 20, 25, 9, 15]",8,0,[],0.032583475,12304,971,1,0,8,1.4139342849367809
basic,72,18,0,0,0,0,[0],1,28,"[1, 2, 3, 4, 5, 6, 7, 8, 9, 10, 11, 12, 13, 14, 16, 17, 18, 19, 20, 21, 22, 23, 24, 25, 26, 27, 28, 29]",300,256,-1,3,136,10,0.0
basic,72,18,0,0,0,28,"[0, 28]",2,16,"[1, 3, 5, 7, 8, 9, 12, 13, 14, 16, 20, 23, 24, 25, 26, 27]",236.4311397,2581,2325,2,19,10,1.0
basic,72,18,0,0,0,7,"[0, 28, 7]",3,15,"[1, 3, 5, 8, 9, 12, 13, 14, 16, 20, 23, 24, 25, 26, 27]",214.4084242,3344,763,2,17,10,1.4345180696367563
basic,72,18,0,0,0,25,"[0, 28, 7, 25]",4,13,"[1, 3, 5, 8, 9, 12, 13, 14, 16, 20, 23, 26, 27]",186.6055466,4152,808,2,15,10,1.8896451241781882
basic,72,18,0,0,0,8,"[0, 28, 7, 25, 8]",5,10,"[3, 5, 9, 12, 13, 14, 16, 23, 26, 27]",149.551532,4932,780,2,10,10,1.590467437592877
basic,72,18,0,0,0,13,"[0, 28, 7, 25, 8, 13]",6,9,"[3, 5, 9, 12, 14, 16, 23, 26, 27]",128.4565089,5794,862,2,5,10,1.8248274983549797
basic,72,18,0,0,0,14,"[0, 28, 7, 25, 8, 13, 14]",7,7,"[3, 5, 9, 12, 23, 26, 27]",109.4828429,6750,956,2,3,10,1.6993534956692746
basic,72,18,0,0,0,3,"[0, 28, 7, 25, 8, 13, 14, 3]",8,3,"[5, 12, 27]",79.39962499,8159,1409,2,1,10,1.802637206541468
basic,72,18,0,0,0,5,"[0, 28, 7, 25, 8, 13, 14, 3, 5]",9,1,[12],21.21887216,9384,1225,1,0,10,1.559774889743805
basic,72,18,0,0,1,12,"[0, 28, 7, 25, 8, 13, 14, 3, 5, 12]",10,0,[],9.817117911,10196,812,1,0,10,1.563993037384447
basic,72,18,0,1,1,12,"[0, 28, 7, 25, 8, 13, 14, 3, 5, 12]",10,0,[],9.817117911,12963,2767,1,0,10,1.563993037384447
basic,73,7,0,0,0,0,[0],1,29,"[1, 2, 3, 4, 5, 6, 7, 8, 9, 10, 11, 12, 13, 14, 15, 16, 17, 18, 19, 20, 21, 22, 23, 24, 25, 26, 27, 28, 29]",300,261,-1,3,79,9,0.0
basic,73,7,0,0,0,6,"[0, 6]",2,22,"[2, 4, 5, 7, 8, 9, 10, 11, 13, 14, 15, 16, 18, 19, 20, 21, 22, 23, 24, 25, 27, 28]",231.1160396,2965,2704,1,24,9,1.0
basic,73,7,0,0,0,25,"[0, 6, 25]",3,14,"[2, 4, 5, 7, 13, 14, 15, 16, 18, 19, 20, 21, 23, 28]",163.9371739,4042,1077,1,15,9,1.1491202566384209
basic,73,7,0,0,0,4,"[0, 6, 25, 4]",4,10,"[2, 7, 13, 15, 16, 18, 19, 20, 21, 23]",139.1985401,5111,1069,1,9,9,1.145081852791697
basic,73,7,0,0,0,20,"[0, 6, 25, 4, 20]",5,6,"[2, 7, 13, 16, 18, 19]",119.5516574,5928,817,1,4,9,1.2036846139155144
basic,73,7,0,0,0,18,"[0, 6, 25, 4, 20, 18]",6,5,"[2, 7, 13, 16, 19]",106.7454089,6845,917,1,3,9,1.3498144584217913
basic,73,7,0,0,0,7,"[0, 6, 25, 4, 20, 18, 7]",7,2,"[2, 19]",65.51435269,8309,1464,1,1,9,1.2817825700699357
basic,73,7,0,0,0,19,"[0, 6, 25, 4, 20, 18, 7, 19]",8,1,[2],36.10347035,11064,2755,1,0,9,1.3950287830764145
basic,73,7,0,0,1,2,"[0, 6, 25, 4, 20, 18, 7, 19, 2]",9,0,[],5.953843486,12285,1221,1,0,9,1.4010142439340676
basic,73,7,0,1,1,2,"[0, 6, 25, 4, 20, 18, 7, 19, 2]",9,0,[],5.953843486,13357,1072,1,0,9,1.4010142439340676
basic,74,20,0,0,0,0,[0],1,21,"[1, 2, 3, 4, 5, 6, 7, 8, 9, 12, 17, 18, 20, 21, 22, 23, 25, 26, 27, 28, 29]",300,255,-1,1,9,9,0.0
basic,74,20,0,0,0,12,"[0, 12]",2,20,"[1, 2, 3, 4, 5, 6, 7, 8, 9, 17, 18, 20, 21, 22, 23, 25, 26, 27, 28, 29]",271.5570747,3413,3158,1,8,9,1.0
basic,74,20,0,0,0,1,"[0, 12, 1]",3,12,"[3, 4, 5, 6, 8, 9, 20, 21, 23, 27, 28, 29]",189.5692707,4554,1141,1,6,9,1.0757997779162911
basic,74,20,0,0,0,5,"[0, 12, 1, 5]",4,10,"[4, 6, 8, 9, 20, 21, 23, 27, 28, 29]",152.8950291,5798,1244,1,5,9,1.1708231454516806
basic,74,20,0,0,0,21,"[0, 12, 1, 5, 21]",5,8,"[4, 6, 8, 9, 20, 23, 27, 28]",107.8950291,6962,1164,1,4,9,1.126197336199212
basic,74,20,0,0,0,8,"[0, 12, 1, 5, 21, 8]",6,5,"[6, 9, 23, 27, 28]",90.43077988,8043,1081,1,3,9,1.140007470699913
basic,74,20,0,0,0,23,"[0, 12, 1, 5, 21, 8, 23]",7,2,"[6, 9]",45.74297394,9198,1155,1,1,9,1.1162257896627588
basic,74,20,0,0,0,9,"[0, 12, 1, 5, 21, 8, 23, 9]",8,1,[6],26.53360123,9975,777,1,0,9,1.1086880559449597
basic,74,20,0,0,1,6,"[0, 12, 1, 5, 21, 8, 23, 9, 6]",9,0,[],3.511872362,10883,908,1,0,9,1.1186240265999328
basic,74,20,0,1,1,6,"[0, 12, 1, 5, 21, 8, 23, 9, 6]",9,0,[],3.511872362,11887,1004,1,0,9,1.1186240265999328
basic,75,34,0,0,0,0,[0],1,25,"[1, 3, 4, 5, 6, 7, 8, 9, 10, 11, 12, 13, 15, 18, 19, 20, 21, 22, 23, 24, 25, 26, 27, 28, 29]",300,249,-1,12,367,10,0.0
basic,75,34,0,0,0,13,"[0, 13]",2,24,"[1, 3, 4, 5, 6, 7, 8, 9, 10, 11, 12, 15, 18, 19, 20, 21, 22, 23, 24, 25, 26, 27, 28, 29]",279.9750156,1621,1372,12,331,10,1.0
basic,75,34,0,0,0,1,"[0, 13, 1]",3,16,"[3, 5, 7, 8, 9, 10, 11, 12, 19, 21, 22, 23, 24, 25, 27, 29]",211.8574701,2575,954,3,92,10,1.0010381285747127
basic,75,34,0,0,0,8,"[0, 13, 1, 8]",4,14,"[3, 5, 7, 9, 10, 11, 12, 19, 22, 23, 24, 25, 27, 29]",201.0871405,3503,928,2,54,10,1.1636807
basic,75,34,0,0,0,25,"[0, 13, 1, 8, 25]",5,12,"[3, 5, 7, 9, 10, 11, 12, 22, 23, 24, 27, 29]",183.999133,4436,933,2,28,10,1.1396208815936457
basic,75,34,0,0,0,24,"[0, 13, 1, 8, 25, 24]",6,11,"[3, 5, 7, 9, 10, 11, 12, 22, 23, 27, 29]",166.5062774,5353,917,2,23,10,1.374180768736554
basic,75,34,0,0,0,12,"[0, 13, 1, 8, 25, 24, 12]",7,7,"[7, 9, 10, 11, 22, 23, 27]",115.4670767,6929,1576,1,8,10,1.4994254760835948
basic,75,34,0,0,0,7,"[0, 13, 1, 8, 25, 24, 12, 7]",8,5,"[9, 11, 22, 23, 27]",100.4337804,8599,1670,1,4,10,1.758992610425009
basic,75,34,0,0,0,23,"[0, 13, 1, 8, 25, 24, 12, 7, 23]",9,1,[27],72.27352467,9687,1088,1,0,10,2.399781305190153
basic,75,34,0,0,1,27,"[0, 13, 1, 8, 25, 24, 12, 7, 23, 27]",10,0,[],18.60789321,10902,1215,1,0,10,4.766619878750327
basic,75,34,0,1,1,27,"[0, 13, 1, 8, 25, 24, 12, 7, 23, 27]",10,0,[],18.60789321,11942,1040,1,0,10,4.766619878750327
basic,76,33,0,0,0,0,[0],1,23,"[1, 2, 5, 7, 8, 11, 12, 13, 14, 15, 16, 17, 18, 19, 20, 21, 23, 24, 25, 26, 27, 28, 29]",300,192,-1,5,108,9,0.0
basic,76,33,0,0,0,8,"[0, 8]",2,22,"[1, 2, 5, 7, 11, 12, 13, 14, 15, 16, 17, 18, 19, 20, 21, 23, 24, 25, 26, 27, 28, 29]",265.8679037,4692,4500,5,87,9,1.0
basic,76,33,0,0,0,21,"[0, 8, 21]",3,16,"[2, 5, 7, 11, 13, 14, 16, 17, 18, 19, 20, 24, 26, 27, 28, 29]",166.0430571,5832,1140,5,80,9,1.0670557763739492
basic,76,33,0,0,0,17,"[0, 8, 21, 17]",4,11,"[2, 7, 11, 13, 14, 16, 19, 20, 24, 26, 29]",127.4036989,7424,1592,1,18,9,1.0830294710276618
basic,76,33,0,0,0,13,"[0, 8, 21, 17, 13]",5,10,"[2, 7, 11, 14, 16, 19, 20, 24, 26, 29]",104.6001904,9409,1985,1,10,9,1.2861654105061844
basic,76,33,0,0,0,19,"[0, 8, 21, 17, 13, 19]",6,6,"[7, 14, 16, 24, 26, 29]",79.10509282,10672,1263,1,6,9,1.3181942666818214
basic,76,33,0,0,0,24,"[0, 8, 21, 17, 13, 19, 24]",7,1,[7],37.05750074,11785,1113,1,0,8,1.2914654832859356
basic,76,33,0,0,1,7,"[0, 8, 21, 17, 13, 19, 24, 7]",8,0,[],7.851337003,12887,1102,1,0,8,1.370940443464748
basic,76,33,0,1,1,7,"[0, 8, 21, 17, 13, 19, 24, 7]",8,0,[],7.851337003,14005,1118,1,0,8,1.370940443464748
basic,77,45,0,0,0,0,[0],1,24,"[1, 2, 3, 4, 5, 6, 7, 9, 10, 11, 12, 14, 15, 16, 17, 19, 20, 21, 22, 23, 24, 25, 27, 29]",300,266,-1,6,248,10,0.0
basic,77,45,0,0,0,17,"[0, 17]",2,22,"[1, 2, 3, 4, 5, 6, 7, 9, 10, 11, 12, 14, 15, 16, 19, 20, 21, 22, 23, 24, 25, 29]",235.867325,3928,3662,1,34,10,1.0
basic,77,45,0,0,0,24,"[0, 17, 24]",3,20,"[1, 2, 3, 4, 5, 6, 7, 9, 10, 11, 12, 14, 15, 16, 19, 20, 21, 22, 23, 29]",193.8078433,5754,1826,1,33,10,1.0309432256229287
basic,77,45,0,0,0,20,"[0, 17, 24, 20]",4,13,"[2, 3, 6, 7, 9, 10, 11, 12, 15, 19, 22, 23, 29]",149.9786293,6831,1077,31,75,8,1.628264155201052
basic,77,45,0,0,0,7,"[0, 17, 24, 20, 7]",5,8,"[2, 3, 6, 10, 12, 19, 23, 29]",98.35499133,7780,949,8,10,8,1.5198700884852983
basic,77,45,0,0,0,2,"[0, 17, 24, 20, 7, 2]",6,4,"[3, 6, 10, 29]",60.34183572,8882,1102,4,2,8,1.4298588535030794
basic,77,45,0,0,0,3,"[0, 17, 24, 20, 7, 2, 3]",7,1,[29],35.02385791,10112,1230,1,0,8,1.4771131104235316
basic,77,45,0,0,1,29,"[0, 17, 24, 20, 7, 2, 3, 29]",8,0,[],15.02385791,11270,1158,1,0,8,1.7693897902328521
basic,77,45,0,1,1,29,"[0, 17, 24, 20, 7, 2, 3, 29]",8,0,[],15.02385791,12411,1141,1,0,8,1.7693897902328521
basic,78,3,0,0,0,0,[0],1,29,"[1, 2, 3, 4, 5, 6, 7, 8, 9, 10, 11, 12, 13, 14, 15, 16, 17, 18, 19, 20, 21, 22, 23, 24, 25, 26, 27, 28, 29]",300,246,-1,34,427,10,0.0
basic,78,3,0,0,0,7,"[0, 7]",2,28,"[1, 2, 3, 4, 5, 6, 8, 9, 10, 11, 12, 13, 14, 15, 16, 17, 18, 19, 20, 21, 22, 23, 24, 25, 26, 27, 28, 29]",278.8103799,6294,6048,24,215,10,1.0
basic,78,3,0,0,0,8,"[0, 7, 8]",3,24,"[1, 2, 3, 4, 5, 6, 10, 11, 12, 13, 14, 15, 16, 17, 18, 19, 20, 21, 22, 24, 25, 26, 27, 28]",222.837172,7757,1463,16,114,10,1.2853332575451413
basic,78,3,0,0,0,24,"[0, 7, 8, 24]",4,21,"[1, 3, 4, 5, 6, 10, 11, 12, 14, 15, 16, 17, 18, 19, 20, 21, 22, 25, 26, 27, 28]",210.671647,9968,2211,16,91,10,1.5177505014936548
basic,78,3,0,0,0,4,"[0, 7, 8, 24, 4]",5,13,"[3, 5, 6, 10, 14, 15, 16, 17, 18, 19, 20, 21, 22]",148.4944807,11272,1304,6,23,9,1.3221967682075704
basic,78,3,0,0,0,10,"[0, 7, 8, 24, 4, 10]",6,4,"[3, 14, 19, 21]",94.67069417,12274,1002,3,4,9,1.304026444841991
