condition,trial_id,map_id,undoIndicator,submit,checkEnd,currentChoice,chosen_all,n_city_all,n_within_reach,cities_reach,currentBudget,time_all,rt_all,n_opt_paths_all,n_subopt_paths_all,mas_all,tortuosity_all
basic,0,20,0,0,0,0,[0],1,21,"[1, 2, 3, 4, 5, 6, 7, 8, 9, 12, 17, 18, 20, 21, 22, 23, 25, 26, 27, 28, 29]",300,125,-1,1,9,9,0.0
basic,0,20,0,0,0,12,"[0, 12]",2,20,"[1, 2, 3, 4, 5, 6, 7, 8, 9, 17, 18, 20, 21, 22, 23, 25, 26, 27, 28, 29]",271.5570747,5933,5808,1,8,9,1.0
basic,0,20,0,0,0,1,"[0, 12, 1]",3,12,"[3, 4, 5, 6, 8, 9, 20, 21, 23, 27, 28, 29]",189.5692707,15083,9150,1,6,9,1.0757997779162911
basic,0,20,0,0,0,5,"[0, 12, 1, 5]",4,10,"[4, 6, 8, 9, 20, 21, 23, 27, 28, 29]",152.8950291,18966,3883,1,5,9,1.1708231454516806
basic,0,20,0,0,0,21,"[0, 12, 1, 5, 21]",5,8,"[4, 6, 8, 9, 20, 23, 27, 28]",107.8950291,20583,1617,1,4,9,1.126197336199212
basic,0,20,0,0,0,8,"[0, 12, 1, 5, 21, 8]",6,5,"[6, 9, 23, 27, 28]",90.43077988,21499,916,1,3,9,1.140007470699913
basic,0,20,0,0,0,23,"[0, 12, 1, 5, 21, 8, 23]",7,2,"[6, 9]",45.74297394,23950,2451,1,1,9,1.1162257896627588
basic,0,20,0,0,0,9,"[0, 12, 1, 5, 21, 8, 23, 9]",8,1,[6],26.53360123,24851,901,1,0,9,1.1086880559449597
basic,0,20,0,0,1,6,"[0, 12, 1, 5, 21, 8, 23, 9, 6]",9,0,[],3.511872362,25716,865,1,0,9,1.1186240265999328
basic,0,20,0,1,1,6,"[0, 12, 1, 5, 21, 8, 23, 9, 6]",9,0,[],3.511872362,27259,1543,1,0,9,1.1186240265999328
basic,1,31,0,0,0,0,[0],1,27,"[1, 3, 4, 5, 6, 7, 8, 10, 11, 12, 13, 14, 15, 16, 17, 18, 19, 20, 21, 22, 23, 24, 25, 26, 27, 28, 29]",300,131,-1,2,87,10,0.0
basic,1,31,0,0,0,14,"[0, 14]",2,25,"[1, 3, 5, 6, 7, 8, 10, 11, 12, 13, 15, 16, 17, 18, 19, 20, 21, 22, 23, 24, 25, 26, 27, 28, 29]",263.861378,3205,3074,2,59,10,1.0
basic,1,31,0,0,0,27,"[0, 14, 27]",3,22,"[1, 3, 5, 6, 7, 8, 10, 11, 12, 13, 15, 16, 17, 18, 19, 20, 21, 22, 24, 25, 28, 29]",235.6833724,4939,1734,1,39,10,1.5881859159302467
basic,1,31,0,0,0,8,"[0, 14, 27, 8]",4,20,"[1, 3, 5, 6, 7, 10, 11, 12, 13, 16, 17, 18, 19, 20, 21, 22, 24, 25, 28, 29]",224.6380114,5938,999,1,36,10,2.1665048452331277
basic,1,31,0,0,0,18,"[0, 14, 27, 8, 18]",5,15,"[1, 5, 6, 7, 11, 12, 13, 16, 17, 19, 20, 22, 25, 28, 29]",188.7911147,6921,983,1,26,10,1.7273375741920205
basic,1,31,0,0,0,11,"[0, 14, 27, 8, 18, 11]",6,11,"[1, 5, 7, 12, 16, 17, 19, 20, 22, 25, 28]",153.9055876,8521,1600,13,17,9,2.386348208737804
basic,1,31,0,0,0,5,"[0, 14, 27, 8, 18, 11, 5]",7,5,"[16, 17, 20, 25, 28]",110.2249283,9555,1034,3,3,9,2.163249612867222
basic,1,31,0,0,0,28,"[0, 14, 27, 8, 18, 11, 5, 28]",8,2,"[16, 17]",90.00117988,10105,550,2,0,9,1.9564635733184719
basic,1,31,0,0,1,17,"[0, 14, 27, 8, 18, 11, 5, 28, 17]",9,0,[],0.956247404,15071,4966,1,0,9,3.3035946495935673
basic,1,31,0,1,1,17,"[0, 14, 27, 8, 18, 11, 5, 28, 17]",9,0,[],0.956247404,16731,1660,1,0,9,3.3035946495935673
basic,2,22,0,0,0,0,[0],1,29,"[1, 2, 3, 4, 5, 6, 7, 8, 9, 10, 11, 12, 13, 14, 15, 16, 17, 18, 19, 20, 21, 22, 23, 24, 25, 26, 27, 28, 29]",300,131,-1,31,704,9,0.0
basic,2,22,0,0,0,16,"[0, 16]",2,21,"[1, 3, 6, 7, 8, 9, 11, 13, 14, 15, 17, 18, 19, 20, 21, 22, 24, 25, 27, 28, 29]",218.605897,11423,11292,17,147,9,1.0
basic,2,22,0,0,0,28,"[0, 16, 28]",3,13,"[6, 7, 9, 13, 14, 17, 19, 20, 21, 22, 24, 25, 29]",184.1675463,12590,1167,12,61,9,1.047282311284478
basic,2,22,0,0,0,6,"[0, 16, 28, 6]",4,12,"[7, 9, 13, 14, 17, 19, 20, 21, 22, 24, 25, 29]",154.1675463,13189,599,12,43,9,1.645645870580622
basic,2,22,0,0,0,9,"[0, 16, 28, 6, 9]",5,8,"[7, 14, 17, 19, 20, 21, 24, 29]",127.5404924,13956,767,8,17,9,1.925750226630103
basic,2,22,0,0,0,19,"[0, 16, 28, 6, 9, 19]",6,6,"[7, 14, 17, 21, 24, 29]",107.1444143,14905,949,3,7,9,2.4220750331476455
basic,2,22,0,0,0,29,"[0, 16, 28, 6, 9, 19, 29]",7,4,"[7, 14, 17, 24]",92.11111796,15872,967,2,2,9,2.6996279574991067
basic,2,22,0,0,0,14,"[0, 16, 28, 6, 9, 19, 29, 14]",8,1,[7],33.86165444,17006,1134,1,0,9,2.0544639927929462
basic,2,22,0,0,1,7,"[0, 16, 28, 6, 9, 19, 29, 14, 7]",9,0,[],20.82324963,17605,599,1,0,9,2.219817088951114
basic,2,22,0,1,1,7,"[0, 16, 28, 6, 9, 19, 29, 14, 7]",9,0,[],20.82324963,19098,1493,1,0,9,2.219817088951114
basic,3,24,0,0,0,0,[0],1,29,"[1, 2, 3, 4, 5, 6, 7, 8, 9, 10, 11, 12, 13, 14, 15, 16, 17, 18, 19, 20, 21, 22, 23, 24, 25, 26, 27, 28, 29]",300,131,-1,4,76,10,0.0
basic,3,24,0,0,0,16,"[0, 16]",2,28,"[1, 2, 3, 4, 5, 6, 7, 8, 9, 10, 11, 12, 13, 14, 15, 17, 18, 19, 20, 21, 22, 23, 24, 25, 26, 27, 28, 29]",210.3562607,4906,4775,13,110,9,1.0
basic,3,24,0,0,0,22,"[0, 16, 22]",3,27,"[1, 2, 3, 4, 5, 6, 7, 8, 9, 10, 11, 12, 13, 14, 15, 17, 18, 19, 20, 21, 23, 24, 25, 26, 27, 28, 29]",192.3285043,6189,1283,7,54,9,1.0217425143037777
basic,3,24,0,0,0,8,"[0, 16, 22, 8]",4,21,"[1, 2, 3, 4, 6, 9, 10, 11, 13, 14, 15, 17, 20, 21, 23, 24, 25, 26, 27, 28, 29]",178.9120964,6955,766,4,28,9,1.0996636936037951
basic,3,24,0,0,0,28,"[0, 16, 22, 8, 28]",5,11,"[3, 4, 6, 9, 11, 13, 15, 23, 25, 26, 27]",116.8153976,8355,1400,1,7,9,1.1127466823197207
basic,3,24,0,0,0,23,"[0, 16, 22, 8, 28, 23]",6,6,"[4, 9, 11, 13, 15, 27]",97.78910006,8938,583,1,5,9,1.1477220096751186
basic,3,24,0,0,0,11,"[0, 16, 22, 8, 28, 23, 11]",7,2,"[9, 27]",70.86327602,10406,1468,1,1,9,1.1407604543567107
basic,3,24,0,0,1,9,"[0, 16, 22, 8, 28, 23, 11, 9]",8,0,[],38.61424503,11839,1433,1,0,8,1.231390958109455
basic,3,24,0,1,1,9,"[0, 16, 22, 8, 28, 23, 11, 9]",8,0,[],38.61424503,17064,5225,1,0,8,1.231390958109455
basic,4,33,0,0,0,0,[0],1,23,"[1, 2, 5, 7, 8, 11, 12, 13, 14, 15, 16, 17, 18, 19, 20, 21, 23, 24, 25, 26, 27, 28, 29]",300,129,-1,5,108,9,0.0
basic,4,33,0,0,0,21,"[0, 21]",2,17,"[2, 5, 7, 8, 11, 13, 14, 16, 17, 18, 19, 20, 24, 26, 27, 28, 29]",174.4611614,3070,2941,21,129,8,1.0
basic,4,33,0,0,0,13,"[0, 21, 13]",3,15,"[2, 5, 7, 8, 11, 14, 16, 17, 18, 19, 20, 24, 26, 28, 29]",148.0604038,4221,1151,17,72,8,1.0001005298764474
basic,4,33,0,0,0,19,"[0, 21, 13, 19]",4,11,"[7, 11, 14, 16, 17, 18, 20, 24, 26, 28, 29]",122.5653063,5754,1533,10,27,8,1.0588446738393702
basic,4,33,0,0,0,24,"[0, 21, 13, 19, 24]",5,7,"[7, 14, 16, 18, 26, 28, 29]",80.51771417,6654,900,3,5,8,1.078006777679028
basic,4,33,0,0,0,7,"[0, 21, 13, 19, 24, 7]",6,3,"[14, 26, 29]",51.31155044,7587,933,3,1,8,1.1669985062633954
basic,4,33,0,0,0,14,"[0, 21, 13, 19, 24, 7, 14]",7,2,"[26, 29]",36.44548169,8438,851,2,0,8,1.2148465775488593
basic,4,33,0,0,1,26,"[0, 21, 13, 19, 24, 7, 14, 26]",8,0,[],23.79637105,9355,917,1,0,8,1.2208379656544521
basic,4,33,0,1,1,26,"[0, 21, 13, 19, 24, 7, 14, 26]",8,0,[],23.79637105,11946,2591,1,0,8,1.2208379656544521
basic,5,30,0,0,0,0,[0],1,19,"[3, 4, 5, 7, 9, 11, 16, 17, 18, 19, 20, 21, 22, 24, 25, 26, 27, 28, 29]",300,129,-1,5,41,8,0.0
basic,5,30,0,0,0,25,"[0, 25]",2,12,"[3, 5, 7, 9, 11, 16, 18, 19, 20, 24, 27, 29]",121.1005869,2474,2345,7,37,7,1.0
basic,5,30,0,0,0,20,"[0, 25, 20]",3,9,"[3, 5, 7, 9, 11, 18, 19, 27, 29]",99.16887472,3155,681,5,16,7,1.0037291321296267
basic,5,30,0,0,0,27,"[0, 25, 20, 27]",4,4,"[3, 5, 18, 29]",65.11010199,4221,1066,4,6,7,1.1217072851053165
basic,5,30,0,0,0,3,"[0, 25, 20, 27, 3]",5,3,"[5, 18, 29]",46.00512882,4905,684,4,0,7,1.1140018780928678
basic,5,30,0,0,0,29,"[0, 25, 20, 27, 3, 29]",6,1,[18],27.40405358,5922,1017,1,0,7,1.119672312555708
basic,5,30,0,0,1,18,"[0, 25, 20, 27, 3, 29, 18]",7,0,[],8.090845662,6989,1067,1,0,7,1.1951451398733344
basic,5,30,0,1,1,18,"[0, 25, 20, 27, 3, 29, 18]",7,0,[],8.090845662,8346,1357,1,0,7,1.1951451398733344
basic,6,43,0,0,0,0,[0],1,23,"[1, 2, 3, 4, 5, 6, 7, 9, 10, 11, 12, 14, 15, 16, 17, 19, 20, 21, 22, 23, 25, 27, 29]",300,114,-1,16,556,12,0.0
basic,6,43,0,0,0,2,"[0, 2]",2,13,"[1, 6, 10, 11, 14, 15, 16, 17, 20, 21, 22, 27, 29]",149.4277582,8606,8492,1,7,6,1.0
basic,6,43,0,0,0,14,"[0, 2, 14]",3,6,"[1, 6, 11, 16, 20, 22]",88.35403226,9606,1000,1,5,6,1.7062675629951431
basic,6,43,0,0,0,6,"[0, 2, 14, 6]",4,4,"[1, 11, 16, 22]",59.89353332,10323,717,1,3,6,2.1770362027035235
basic,6,43,0,0,0,11,"[0, 2, 14, 6, 11]",5,1,[16],39.27800519,11308,985,1,0,6,2.8650768660439563
basic,6,43,0,0,1,16,"[0, 2, 14, 6, 11, 16]",6,0,[],4.149669054,14373,3065,1,0,6,5.27547700721848
basic,6,43,0,1,1,16,"[0, 2, 14, 6, 11, 16]",6,0,[],4.149669054,15815,1442,1,0,6,5.27547700721848
basic,7,34,0,0,0,0,[0],1,25,"[1, 3, 4, 5, 6, 7, 8, 9, 10, 11, 12, 13, 15, 18, 19, 20, 21, 22, 23, 24, 25, 26, 27, 28, 29]",300,130,-1,12,367,10,0.0
basic,7,34,0,0,0,13,"[0, 13]",2,24,"[1, 3, 4, 5, 6, 7, 8, 9, 10, 11, 12, 15, 18, 19, 20, 21, 22, 23, 24, 25, 26, 27, 28, 29]",279.9750156,4022,3892,12,331,10,1.0
basic,7,34,0,0,0,1,"[0, 13, 1]",3,16,"[3, 5, 7, 8, 9, 10, 11, 12, 19, 21, 22, 23, 24, 25, 27, 29]",211.8574701,5189,1167,3,92,10,1.0010381285747127
basic,7,34,0,0,0,8,"[0, 13, 1, 8]",4,14,"[3, 5, 7, 9, 10, 11, 12, 19, 22, 23, 24, 25, 27, 29]",201.0871405,5789,600,2,54,10,1.1636807
basic,7,34,0,0,0,25,"[0, 13, 1, 8, 25]",5,12,"[3, 5, 7, 9, 10, 11, 12, 22, 23, 24, 27, 29]",183.999133,7705,1916,2,28,10,1.1396208815936457
basic,7,34,0,0,0,24,"[0, 13, 1, 8, 25, 24]",6,11,"[3, 5, 7, 9, 10, 11, 12, 22, 23, 27, 29]",166.5062774,8755,1050,2,23,10,1.374180768736554
basic,7,34,0,0,0,12,"[0, 13, 1, 8, 25, 24, 12]",7,7,"[7, 9, 10, 11, 22, 23, 27]",115.4670767,13205,4450,1,8,10,1.4994254760835948
basic,7,34,0,0,0,7,"[0, 13, 1, 8, 25, 24, 12, 7]",8,5,"[9, 11, 22, 23, 27]",100.4337804,14305,1100,1,4,10,1.758992610425009
basic,7,34,0,0,0,23,"[0, 13, 1, 8, 25, 24, 12, 7, 23]",9,1,[27],72.27352467,22639,8334,1,0,10,2.399781305190153
basic,7,34,0,0,1,27,"[0, 13, 1, 8, 25, 24, 12, 7, 23, 27]",10,0,[],18.60789321,25856,3217,1,0,10,4.766619878750327
basic,7,34,0,1,1,27,"[0, 13, 1, 8, 25, 24, 12, 7, 23, 27]",10,0,[],18.60789321,27064,1208,1,0,10,4.766619878750327
basic,8,42,0,0,0,0,[0],1,29,"[1, 2, 3, 4, 5, 6, 7, 8, 9, 10, 11, 12, 13, 14, 15, 16, 17, 18, 19, 20, 21, 22, 23, 24, 25, 26, 27, 28, 29]",300,130,-1,16,302,9,0.0
basic,8,42,0,0,0,3,"[0, 3]",2,25,"[1, 2, 4, 5, 6, 7, 8, 9, 10, 11, 13, 15, 17, 18, 19, 20, 21, 22, 23, 24, 25, 26, 27, 28, 29]",255.7959278,18771,18641,3,45,9,1.0
basic,8,42,0,0,0,4,"[0, 3, 4]",3,23,"[1, 2, 5, 6, 7, 8, 9, 10, 11, 13, 15, 17, 18, 19, 20, 21, 22, 23, 24, 25, 26, 27, 29]",165.3691618,20255,1484,1,16,9,1.4881105916904676
basic,8,42,0,0,0,5,"[0, 3, 4, 5]",4,16,"[1, 2, 7, 8, 11, 15, 18, 19, 20, 21, 22, 24, 25, 26, 27, 29]",145.5197286,21238,983,4,16,8,1.4210828752019482
basic,8,42,0,0,0,8,"[0, 3, 4, 5, 8]",5,8,"[1, 2, 7, 15, 22, 24, 26, 27]",111.0378493,22487,1249,1,5,8,1.7575023169881783
basic,8,42,0,0,0,1,"[0, 3, 4, 5, 8, 1]",6,3,"[7, 26, 27]",61.94609847,24071,1584,1,2,8,1.5286900265469519
basic,8,42,0,0,0,7,"[0, 3, 4, 5, 8, 1, 7]",7,1,[26],31.94609847,24871,800,1,0,8,1.5473520515355799
basic,8,42,0,0,1,26,"[0, 3, 4, 5, 8, 1, 7, 26]",8,0,[],5.375437954,25955,1084,1,0,8,1.4880028386161617
basic,8,42,0,1,1,26,"[0, 3, 4, 5, 8, 1, 7, 26]",8,0,[],5.375437954,27446,1491,1,0,8,1.4880028386161617
basic,9,25,0,0,0,0,[0],1,28,"[1, 2, 3, 4, 5, 7, 8, 9, 10, 11, 12, 13, 14, 15, 16, 17, 18, 19, 20, 21, 22, 23, 24, 25, 26, 27, 28, 29]",300,131,-1,5,94,10,0.0
basic,9,25,0,0,0,23,"[0, 23]",2,23,"[1, 2, 3, 5, 7, 8, 9, 11, 12, 13, 14, 16, 17, 19, 20, 21, 22, 24, 25, 26, 27, 28, 29]",259.7756293,4772,4641,3,33,10,1.0
basic,9,25,0,0,0,7,"[0, 23, 7]",3,16,"[1, 3, 5, 8, 9, 11, 13, 17, 19, 21, 22, 24, 26, 27, 28, 29]",181.9424744,5739,967,1,21,9,1.0073109045884563
basic,9,25,0,0,0,24,"[0, 23, 7, 24]",4,10,"[3, 5, 8, 9, 11, 13, 19, 22, 28, 29]",157.1836376,6572,833,1,17,9,1.0161584555781231
basic,9,25,0,0,0,9,"[0, 23, 7, 24, 9]",5,8,"[3, 8, 11, 13, 19, 22, 28, 29]",139.1558812,8006,1434,1,16,9,1.0303325523073676
basic,9,25,0,0,0,8,"[0, 23, 7, 24, 9, 8]",6,3,"[3, 13, 28]",88.9065031,12990,4984,4,1,8,1.055612641218378
basic,9,25,0,0,0,28,"[0, 23, 7, 24, 9, 8, 28]",7,2,"[3, 13]",48.29862209,14139,1149,2,0,8,1.16316697389926
basic,9,25,0,0,1,3,"[0, 23, 7, 24, 9, 8, 28, 3]",8,0,[],16.99367041,15439,1300,1,0,8,1.5284916606081744
basic,9,25,0,1,1,3,"[0, 23, 7, 24, 9, 8, 28, 3]",8,0,[],16.99367041,16681,1242,1,0,8,1.5284916606081744
basic,10,6,0,0,0,0,[0],1,29,"[1, 2, 3, 4, 5, 6, 7, 8, 9, 10, 11, 12, 13, 14, 15, 16, 17, 18, 19, 20, 21, 22, 23, 24, 25, 26, 27, 28, 29]",300,129,-1,180,4304,10,0.0
basic,10,6,0,0,0,3,"[0, 3]",2,28,"[1, 2, 4, 5, 6, 7, 8, 9, 10, 11, 12, 13, 14, 15, 16, 17, 18, 19, 20, 21, 22, 23, 24, 25, 26, 27, 28, 29]",266.4738908,2505,2376,90,1607,10,1.0
basic,10,6,0,0,0,10,"[0, 3, 10]",3,27,"[1, 2, 4, 5, 6, 7, 8, 9, 11, 12, 13, 14, 15, 16, 17, 18, 19, 20, 21, 22, 23, 24, 25, 26, 27, 28, 29]",215.2293789,11721,9216,8,136,10,1.0050517746249001
basic,10,6,0,0,0,24,"[0, 3, 10, 24]",4,23,"[1, 2, 4, 5, 6, 7, 8, 11, 13, 14, 16, 17, 18, 19, 20, 21, 22, 23, 25, 26, 27, 28, 29]",201.812971,12771,1050,8,85,10,1.0091851911500884
basic,10,6,0,0,0,17,"[0, 3, 10, 24, 17]",5,19,"[1, 2, 4, 5, 6, 7, 8, 11, 13, 14, 16, 18, 20, 21, 22, 23, 26, 27, 29]",172.5384087,13954,1183,8,53,10,1.8060138032707682
basic,10,6,0,0,0,18,"[0, 3, 10, 24, 17, 18]",6,15,"[1, 2, 6, 7, 8, 13, 14, 16, 20, 21, 22, 23, 26, 27, 29]",158.6100204,14704,750,7,36,10,2.3216150751946008
basic,10,6,0,0,0,16,"[0, 3, 10, 24, 17, 18, 16]",7,13,"[1, 2, 6, 7, 13, 14, 20, 21, 22, 23, 26, 27, 29]",135.2647853,15888,1184,7,21,10,2.2822729587843544
basic,10,6,0,0,0,29,"[0, 3, 10, 24, 17, 18, 16, 29]",8,7,"[6, 14, 20, 21, 22, 23, 27]",98.57691268,17121,1233,6,4,10,1.8911507070056388
basic,10,6,0,0,0,23,"[0, 3, 10, 24, 17, 18, 16, 29, 23]",9,2,"[6, 22]",51.05849519,18104,983,2,0,10,1.8549852217940308
basic,10,6,0,0,1,6,"[0, 3, 10, 24, 17, 18, 16, 29, 23, 6]",10,0,[],15.70315613,21521,3417,1,0,10,1.7651720921259988
basic,10,6,0,1,1,6,"[0, 3, 10, 24, 17, 18, 16, 29, 23, 6]",10,0,[],15.70315613,22779,1258,1,0,10,1.7651720921259988
basic,11,10,0,0,0,0,[0],1,29,"[1, 2, 3, 4, 5, 6, 7, 8, 9, 10, 11, 12, 13, 14, 15, 16, 17, 18, 19, 20, 21, 22, 23, 24, 25, 26, 27, 28, 29]",300,129,-1,1,100,9,0.0
basic,11,10,0,0,0,13,"[0, 13]",2,25,"[1, 2, 3, 4, 6, 7, 8, 9, 10, 11, 12, 14, 17, 18, 19, 20, 21, 22, 23, 24, 25, 26, 27, 28, 29]",249.4628849,2337,2208,1,79,9,1.0
basic,11,10,0,0,0,19,"[0, 13, 19]",3,12,"[2, 6, 8, 9, 10, 11, 14, 18, 20, 24, 26, 27]",180.5861835,3404,1067,11,79,8,1.0000581961988606
basic,11,10,0,0,0,2,"[0, 13, 19, 2]",4,5,"[11, 14, 20, 26, 27]",136.6771867,5088,1684,3,9,8,1.000456581399483
basic,11,10,0,0,0,14,"[0, 13, 19, 2, 14]",5,4,"[11, 20, 26, 27]",124.5116616,5754,666,3,6,8,1.0972737011325653
basic,11,10,0,0,0,26,"[0, 13, 19, 2, 14, 26]",6,3,"[11, 20, 27]",89.84178999,7371,1617,3,1,8,1.5868342521575007
basic,11,10,0,0,0,11,"[0, 13, 19, 2, 14, 26, 11]",7,1,[20],48.08056395,8454,1083,1,0,8,2.7772471764176028
basic,11,10,0,0,1,20,"[0, 13, 19, 2, 14, 26, 11, 20]",8,0,[],10.00169842,9671,1217,1,0,8,2.3959438836221785
basic,11,10,0,1,1,20,"[0, 13, 19, 2, 14, 26, 11, 20]",8,0,[],10.00169842,11262,1591,1,0,8,2.3959438836221785
basic,12,28,0,0,0,0,[0],1,27,"[1, 2, 3, 4, 5, 6, 7, 8, 9, 10, 11, 12, 13, 14, 15, 16, 17, 18, 19, 20, 22, 23, 25, 26, 27, 28, 29]",300,131,-1,2,96,9,0.0
basic,12,28,0,0,0,14,"[0, 14]",2,14,"[1, 2, 3, 5, 7, 10, 11, 12, 13, 17, 18, 19, 20, 26]",147.8914861,4590,4459,1,26,8,1.0
basic,12,28,0,0,0,18,"[0, 14, 18]",3,11,"[1, 2, 3, 5, 7, 11, 12, 13, 17, 19, 26]",122.3963885,5656,1066,1,23,8,1.0675599824559303
basic,12,28,0,0,0,13,"[0, 14, 18, 13]",4,7,"[2, 7, 11, 12, 17, 19, 26]",97.9832773,6856,1200,1,9,8,1.0602397944415018
basic,12,28,0,0,0,12,"[0, 14, 18, 13, 12]",5,4,"[2, 7, 17, 19]",80.77862677,7756,900,1,3,8,1.0640685934245377
basic,12,28,0,0,0,7,"[0, 14, 18, 13, 12, 7]",6,2,"[2, 19]",67.62568033,8507,751,1,1,8,1.186262804928269
basic,12,28,0,0,0,19,"[0, 14, 18, 13, 12, 7, 19]",7,1,[2],39.89483108,9556,1049,1,0,8,1.424576333867947
basic,12,28,0,0,1,2,"[0, 14, 18, 13, 12, 7, 19, 2]",8,0,[],2.531747699,10473,917,1,0,8,1.4824387893309579
basic,12,28,0,1,1,2,"[0, 14, 18, 13, 12, 7, 19, 2]",8,0,[],2.531747699,11716,1243,1,0,8,1.4824387893309579
basic,13,37,0,0,0,0,[0],1,29,"[1, 2, 3, 4, 5, 6, 7, 8, 9, 10, 11, 12, 13, 14, 15, 16, 17, 18, 19, 20, 21, 22, 23, 24, 25, 26, 27, 28, 29]",300,131,-1,6,168,10,0.0
basic,13,37,0,0,0,19,"[0, 19]",2,19,"[1, 2, 4, 5, 6, 7, 9, 10, 11, 15, 17, 18, 20, 21, 22, 25, 26, 28, 29]",185.6627795,9374,9243,25,244,9,1.0
basic,13,37,0,0,0,21,"[0, 19, 21]",3,14,"[1, 2, 4, 7, 10, 11, 15, 17, 18, 20, 22, 25, 26, 29]",144.5531699,10506,1132,10,75,9,1.001632816594558
basic,13,37,0,0,0,15,"[0, 19, 21, 15]",4,9,"[1, 2, 4, 7, 18, 20, 22, 26, 29]",129.5531699,11624,1118,5,32,9,1.0243376499143988
basic,13,37,0,0,0,20,"[0, 19, 21, 15, 20]",5,8,"[1, 2, 4, 7, 18, 22, 26, 29]",112.5531699,12440,816,5,14,9,1.250507291508492
basic,13,37,0,0,0,1,"[0, 19, 21, 15, 20, 1]",6,6,"[2, 4, 7, 18, 22, 26]",78.31868434,13558,1118,4,4,9,1.4002166443864243
basic,13,37,0,0,0,4,"[0, 19, 21, 15, 20, 1, 4]",7,2,"[2, 22]",60.5986392,15173,1615,2,0,9,1.472939356650523
basic,13,37,0,0,0,2,"[0, 19, 21, 15, 20, 1, 4, 2]",8,1,[22],49.19688495,15974,801,1,0,9,1.6590570350137948
basic,13,37,0,0,1,22,"[0, 19, 21, 15, 20, 1, 4, 2, 22]",9,0,[],21.53825157,17023,1049,1,0,9,1.7098673138592275
basic,13,37,0,1,1,22,"[0, 19, 21, 15, 20, 1, 4, 2, 22]",9,0,[],21.53825157,19098,2075,1,0,9,1.7098673138592275
basic,14,8,0,0,0,0,[0],1,29,"[1, 2, 3, 4, 5, 6, 7, 8, 9, 10, 11, 12, 13, 14, 15, 16, 17, 18, 19, 20, 21, 22, 23, 24, 25, 26, 27, 28, 29]",300,129,-1,10,149,9,0.0
basic,14,8,0,0,0,5,"[0, 5]",2,28,"[1, 2, 3, 4, 6, 7, 8, 9, 10, 11, 12, 13, 14, 15, 16, 17, 18, 19, 20, 21, 22, 23, 24, 25, 26, 27, 28, 29]",254.5137383,2854,2725,10,100,9,1.0
basic,14,8,0,0,0,25,"[0, 5, 25]",3,20,"[1, 2, 3, 4, 6, 11, 12, 14, 15, 16, 17, 18, 19, 20, 21, 22, 23, 24, 28, 29]",215.3091468,3887,1033,4,42,9,1.2272747879909065
basic,14,8,0,0,0,1,"[0, 5, 25, 1]",4,17,"[3, 4, 6, 11, 12, 14, 15, 16, 17, 18, 20, 21, 22, 23, 24, 28, 29]",190.3091468,5154,1267,3,24,9,1.1770245007593956
basic,14,8,0,0,0,23,"[0, 5, 25, 1, 23]",5,15,"[3, 4, 6, 11, 14, 15, 16, 17, 18, 20, 21, 22, 24, 28, 29]",167.2874179,5821,667,1,14,9,1.141996583852372
basic,14,8,0,0,0,4,"[0, 5, 25, 1, 23, 4]",6,6,"[3, 14, 16, 18, 21, 28]",117.9518324,6837,1016,3,4,8,1.115517190692443
basic,14,8,0,0,0,18,"[0, 5, 25, 1, 23, 4, 18]",7,2,"[14, 28]",74.94020603,8120,1283,2,0,8,1.702606074443807
basic,14,8,0,0,1,28,"[0, 5, 25, 1, 23, 4, 18, 28]",8,0,[],9.320087168,9637,1517,1,0,8,1.7256884494830071
basic,14,8,0,1,1,28,"[0, 5, 25, 1, 23, 4, 18, 28]",8,0,[],9.320087168,10829,1192,1,0,8,1.7256884494830071
basic,15,21,0,0,0,0,[0],1,29,"[1, 2, 3, 4, 5, 6, 7, 8, 9, 10, 11, 12, 13, 14, 15, 16, 17, 18, 19, 20, 21, 22, 23, 24, 25, 26, 27, 28, 29]",300,130,-1,84,830,9,0.0
basic,15,21,0,0,0,20,"[0, 20]",2,28,"[1, 2, 3, 4, 5, 6, 7, 8, 9, 10, 11, 12, 13, 14, 15, 16, 17, 18, 19, 21, 22, 23, 24, 25, 26, 27, 28, 29]",217.6228187,3372,3242,6,67,9,1.0
basic,15,21,0,0,0,22,"[0, 20, 22]",3,23,"[2, 4, 6, 7, 8, 9, 10, 11, 12, 13, 14, 15, 16, 17, 18, 19, 21, 23, 24, 25, 26, 27, 29]",189.3916303,4255,883,6,47,9,1.3451865712078994
basic,15,21,0,0,0,18,"[0, 20, 22, 18]",4,20,"[2, 4, 6, 7, 8, 9, 10, 11, 12, 14, 15, 16, 17, 21, 23, 24, 25, 26, 27, 29]",162.9908727,5123,868,4,25,9,2.3191924394507706
basic,15,21,0,0,0,29,"[0, 20, 22, 18, 29]",5,16,"[2, 4, 6, 7, 8, 10, 12, 14, 15, 16, 17, 21, 23, 24, 25, 27]",134.3377751,7105,1982,2,10,9,1.9554738681863184
basic,15,21,0,0,0,25,"[0, 20, 22, 18, 29, 25]",6,5,"[4, 14, 17, 21, 23]",89.11609892,7889,784,2,5,9,3.5255206171255487
basic,15,21,0,0,0,23,"[0, 20, 22, 18, 29, 25, 23]",7,3,"[4, 14, 21]",45.79174087,8855,966,1,2,9,2.5672363743380044
basic,15,21,0,0,0,14,"[0, 20, 22, 18, 29, 25, 23, 14]",8,1,[4],16.72285717,10055,1200,1,0,9,2.4731167331439745
basic,15,21,0,0,1,4,"[0, 20, 22, 18, 29, 25, 23, 14, 4]",9,0,[],2.580721543,10772,717,1,0,9,2.3252918316977027
basic,15,21,0,1,1,4,"[0, 20, 22, 18, 29, 25, 23, 14, 4]",9,0,[],2.580721543,12163,1391,1,0,9,2.3252918316977027
basic,16,11,0,0,0,0,[0],1,25,"[1, 2, 3, 4, 5, 6, 8, 9, 10, 11, 12, 13, 14, 15, 16, 17, 18, 19, 20, 22, 23, 25, 26, 27, 28]",300,131,-1,6,374,12,0.0
basic,16,11,0,0,0,17,"[0, 17]",2,18,"[1, 2, 4, 5, 6, 8, 10, 11, 12, 15, 18, 19, 22, 23, 25, 26, 27, 28]",152.9217895,4606,4475,218,762,9,1.0
basic,16,11,0,0,0,8,"[0, 17, 8]",3,15,"[1, 2, 4, 5, 6, 11, 12, 15, 18, 19, 22, 23, 25, 27, 28]",138.6039684,5923,1317,95,263,9,1.1114912532636003
basic,16,11,0,0,0,15,"[0, 17, 8, 15]",4,11,"[2, 5, 6, 11, 12, 18, 19, 22, 25, 27, 28]",125.1503444,6740,817,62,51,9,1.1146194627724886
basic,16,11,0,0,0,11,"[0, 17, 8, 15, 11]",5,9,"[2, 5, 6, 12, 19, 22, 25, 27, 28]",107.0395741,7456,716,24,2,9,1.1130192047684102
basic,16,11,0,0,0,28,"[0, 17, 8, 15, 11, 28]",6,4,"[2, 5, 19, 22]",87.62308629,8173,717,6,2,9,1.2290091933070886
basic,16,11,0,0,0,5,"[0, 17, 8, 15, 11, 28, 5]",7,2,"[2, 22]",69.73454247,9574,1401,2,0,9,1.4153375425476789
basic,16,11,0,0,0,2,"[0, 17, 8, 15, 11, 28, 5, 2]",8,1,[22],52.73454247,10590,1016,1,0,9,1.3853330540064914
basic,16,11,0,0,1,22,"[0, 17, 8, 15, 11, 28, 5, 2, 22]",9,0,[],42.68466685,11356,766,1,0,9,1.3648232332892756
basic,16,11,0,1,1,22,"[0, 17, 8, 15, 11, 28, 5, 2, 22]",9,0,[],42.68466685,14165,2809,1,0,9,1.3648232332892756
basic,17,0,0,0,0,0,[0],1,27,"[2, 3, 4, 5, 6, 7, 8, 9, 10, 11, 12, 13, 14, 15, 16, 17, 19, 20, 21, 22, 23, 24, 25, 26, 27, 28, 29]",300,129,-1,104,1136,9,0.0
basic,17,0,0,0,0,28,"[0, 28]",2,26,"[2, 3, 4, 5, 6, 7, 8, 9, 10, 11, 12, 13, 14, 15, 16, 17, 19, 20, 21, 22, 23, 24, 25, 26, 27, 29]",194.9190788,7406,7277,39,388,9,1.0
basic,17,0,0,0,0,5,"[0, 28, 5]",3,21,"[2, 3, 4, 7, 8, 9, 11, 12, 13, 14, 15, 16, 17, 19, 20, 21, 23, 24, 25, 26, 29]",151.2613189,8454,1048,27,210,9,1.0978295127671733
basic,17,0,0,0,0,12,"[0, 28, 5, 12]",4,11,"[3, 4, 7, 8, 13, 14, 15, 17, 23, 24, 26]",92.3631016,10354,1900,1,9,8,1.3308690478575147
basic,17,0,0,0,0,26,"[0, 28, 5, 12, 26]",5,5,"[4, 7, 15, 17, 24]",57.1352717,11588,1234,1,3,8,1.503294928431544
basic,17,0,0,0,0,4,"[0, 28, 5, 12, 26, 4]",6,2,"[15, 24]",45.09367712,12270,682,1,1,8,1.6283706077939981
basic,17,0,0,0,0,24,"[0, 28, 5, 12, 26, 4, 24]",7,1,[15],33.69192287,13387,1117,1,0,8,1.596262565589366
basic,17,0,0,0,1,15,"[0, 28, 5, 12, 26, 4, 24, 15]",8,0,[],10.34668781,14304,917,1,0,8,1.5323212923915361
basic,17,0,0,1,1,15,"[0, 28, 5, 12, 26, 4, 24, 15]",8,0,[],10.34668781,15580,1276,1,0,8,1.5323212923915361
basic,18,16,0,0,0,0,[0],1,29,"[1, 2, 3, 4, 5, 6, 7, 8, 9, 10, 11, 12, 13, 14, 15, 16, 17, 18, 19, 20, 21, 22, 23, 24, 25, 26, 27, 28, 29]",300,130,-1,13,161,9,0.0
basic,18,16,0,0,0,17,"[0, 17]",2,27,"[1, 2, 3, 4, 5, 7, 8, 9, 10, 11, 12, 13, 14, 15, 16, 18, 19, 20, 21, 22, 23, 24, 25, 26, 27, 28, 29]",241.3058776,4105,3975,2,58,9,1.0
basic,18,16,0,0,0,16,"[0, 17, 16]",3,26,"[1, 2, 3, 4, 5, 7, 8, 9, 10, 11, 12, 13, 14, 15, 18, 19, 20, 21, 22, 23, 24, 25, 26, 27, 28, 29]",212.9862731,4855,750,2,52,9,1.0529535521792848
basic,18,16,0,0,0,8,"[0, 17, 16, 8]",4,19,"[2, 3, 4, 5, 9, 12, 13, 14, 15, 19, 20, 21, 22, 23, 25, 26, 27, 28, 29]",164.6127266,5906,1051,2,38,9,1.0915134501573105
basic,18,16,0,0,0,20,"[0, 17, 16, 8, 20]",5,10,"[3, 4, 5, 9, 12, 13, 15, 19, 21, 25]",106.8372993,6971,1065,1,15,9,1.067523143001942
basic,18,16,0,0,0,25,"[0, 17, 16, 8, 20, 25]",6,7,"[3, 4, 5, 9, 12, 13, 15]",94.18818869,7539,568,1,9,9,1.1170093326933646
basic,18,16,0,0,0,9,"[0, 17, 16, 8, 20, 25, 9]",7,5,"[3, 4, 5, 13, 15]",81.38194021,8456,917,1,4,9,1.1095076562662525
basic,18,16,0,0,0,15,"[0, 17, 16, 8, 20, 25, 9, 15]",8,1,[5],42.48463953,10688,2232,1,0,9,1.213831159678775
basic,18,16,0,0,1,5,"[0, 17, 16, 8, 20, 25, 9, 15, 5]",9,0,[],13.0567616,11655,967,1,0,9,1.5171779607523481
basic,18,16,0,1,1,5,"[0, 17, 16, 8, 20, 25, 9, 15, 5]",9,0,[],13.0567616,12948,1293,1,0,9,1.5171779607523481
basic,19,5,0,0,0,0,[0],1,29,"[1, 2, 3, 4, 5, 6, 7, 8, 9, 10, 11, 12, 13, 14, 15, 16, 17, 18, 19, 20, 21, 22, 23, 24, 25, 26, 27, 28, 29]",300,130,-1,5,139,9,0.0
basic,19,5,0,0,0,12,"[0, 12]",2,22,"[2, 4, 5, 6, 8, 9, 10, 13, 14, 15, 16, 17, 18, 19, 21, 22, 23, 24, 25, 26, 27, 28]",228.3062067,9722,9592,1,27,9,1.0
basic,19,5,0,0,0,25,"[0, 12, 25]",3,21,"[2, 4, 5, 6, 8, 9, 10, 13, 14, 15, 16, 17, 18, 19, 21, 22, 23, 24, 26, 27, 28]",200.5213187,12155,2433,1,20,9,1.584023303445617
basic,19,5,0,0,0,23,"[0, 12, 25, 23]",4,19,"[2, 4, 5, 6, 8, 9, 10, 13, 14, 15, 16, 17, 18, 19, 21, 22, 24, 26, 27]",182.0822298,13356,1201,1,14,9,2.3508446989254357
basic,19,5,0,0,0,24,"[0, 12, 25, 23, 24]",5,15,"[2, 4, 5, 6, 8, 9, 13, 14, 15, 17, 18, 19, 22, 26, 27]",158.995437,13972,616,1,12,9,1.9469752046288753
basic,19,5,0,0,0,17,"[0, 12, 25, 23, 24, 17]",6,7,"[4, 5, 6, 8, 15, 18, 19]",124.0097257,14639,667,1,8,9,1.6482276497563642
basic,19,5,0,0,0,5,"[0, 12, 25, 23, 24, 17, 5]",7,4,"[4, 6, 15, 18]",80.96323916,18656,4017,1,3,9,1.4654649104389412
basic,19,5,0,0,0,4,"[0, 12, 25, 23, 24, 17, 5, 4]",8,1,[6],15.16050365,20755,2099,1,0,9,1.6255060355828674
basic,19,5,0,0,1,6,"[0, 12, 25, 23, 24, 17, 5, 4, 6]",9,0,[],3.118909076,21472,717,1,0,9,1.7777310833772453
basic,19,5,0,1,1,6,"[0, 12, 25, 23, 24, 17, 5, 4, 6]",9,0,[],3.118909076,23581,2109,1,0,9,1.7777310833772453
basic,20,4,0,0,0,0,[0],1,26,"[3, 4, 5, 6, 7, 8, 10, 11, 12, 13, 14, 15, 16, 17, 18, 19, 20, 21, 22, 23, 24, 25, 26, 27, 28, 29]",300,128,-1,4,489,10,0.0
basic,20,4,0,0,0,28,"[0, 28]",2,21,"[3, 4, 5, 6, 10, 11, 12, 13, 14, 15, 16, 17, 19, 20, 21, 22, 23, 24, 25, 26, 27]",225.9392142,4804,4676,2,216,10,1.0
basic,20,4,0,0,0,14,"[0, 28, 14]",3,13,"[3, 4, 5, 6, 11, 13, 16, 17, 20, 21, 22, 24, 25]",159.6972335,6054,1250,1,26,10,1.0273973946789214
basic,20,4,0,0,0,25,"[0, 28, 14, 25]",4,12,"[3, 4, 5, 6, 11, 13, 16, 17, 20, 21, 22, 24]",143.572718,6954,900,1,25,10,1.233547772313525
basic,20,4,0,0,0,11,"[0, 28, 14, 25, 11]",5,10,"[3, 4, 5, 6, 13, 16, 17, 20, 21, 22]",124.7844238,7705,751,1,15,10,1.425978575879479
basic,20,4,0,0,0,16,"[0, 28, 14, 25, 11, 16]",6,9,"[3, 4, 5, 6, 13, 17, 20, 21, 22]",109.7844238,8755,1050,1,12,10,1.3799325158051412
basic,20,4,0,0,0,17,"[0, 28, 14, 25, 11, 16, 17]",7,5,"[3, 5, 20, 21, 22]",83.70761416,14488,5733,1,5,10,1.3195184878861832
basic,20,4,0,0,0,20,"[0, 28, 14, 25, 11, 16, 17, 20]",8,3,"[5, 21, 22]",43.48324344,22804,8316,1,2,10,1.4038284317031835
basic,20,4,0,0,0,22,"[0, 28, 14, 25, 11, 16, 17, 20, 22]",9,1,[21],13.25081052,23887,1083,1,0,10,1.807318570651008
basic,20,4,0,0,1,21,"[0, 28, 14, 25, 11, 16, 17, 20, 22, 21]",10,0,[],2.205449508,25004,1117,1,0,10,2.0148407301566107
basic,20,4,0,1,1,21,"[0, 28, 14, 25, 11, 16, 17, 20, 22, 21]",10,0,[],2.205449508,26696,1692,1,0,10,2.0148407301566107
basic,21,44,0,0,0,0,[0],1,29,"[1, 2, 3, 4, 5, 6, 7, 8, 9, 10, 11, 12, 13, 14, 15, 16, 17, 18, 19, 20, 21, 22, 23, 24, 25, 26, 27, 28, 29]",300,129,-1,13,126,7,0.0
basic,21,44,0,0,0,8,"[0, 8]",2,17,"[1, 4, 5, 7, 9, 10, 11, 12, 13, 14, 15, 20, 21, 23, 24, 25, 27]",145.7923478,11354,11225,1,10,7,1.0
basic,21,44,0,0,0,20,"[0, 8, 20]",3,16,"[1, 4, 5, 7, 9, 10, 11, 12, 13, 14, 15, 21, 23, 24, 25, 27]",133.7093018,13137,1783,1,9,7,1.0890794433668698
basic,21,44,0,0,1,21,"[0, 8, 20, 21]",4,0,[],0.649165036,15153,2016,1,0,4,1.0509491575615
basic,21,44,0,1,1,21,"[0, 8, 20, 21]",4,0,[],0.649165036,18880,3727,1,0,4,1.0509491575615
basic,22,1,0,0,0,0,[0],1,26,"[1, 2, 4, 5, 7, 8, 9, 10, 11, 12, 13, 14, 15, 16, 17, 18, 19, 20, 21, 22, 23, 24, 25, 26, 28, 29]",300,130,-1,6,74,7,0.0
basic,22,1,0,0,0,14,"[0, 14]",2,19,"[1, 4, 5, 8, 9, 13, 15, 17, 18, 19, 20, 21, 22, 23, 24, 25, 26, 28, 29]",200.1901808,9104,8974,5,42,7,1.0
basic,22,1,0,0,0,17,"[0, 14, 17]",3,15,"[1, 4, 5, 8, 9, 13, 15, 18, 19, 20, 22, 23, 25, 28, 29]",147.8356204,10021,917,5,27,7,1.0028844724416826
basic,22,1,0,0,0,1,"[0, 14, 17, 1]",4,12,"[4, 5, 8, 9, 15, 18, 20, 22, 23, 25, 28, 29]",123.4840291,11288,1267,5,15,7,1.0264985578353567
basic,22,1,0,0,0,28,"[0, 14, 17, 1, 28]",5,5,"[9, 15, 22, 23, 29]",88.59850198,12554,1266,5,3,7,1.0339861575999345
basic,22,1,0,0,0,15,"[0, 14, 17, 1, 28, 15]",6,3,"[22, 23, 29]",53.37067208,15388,2834,3,0,7,1.055553419196412
basic,22,1,0,0,1,22,"[0, 14, 17, 1, 28, 15, 22]",7,0,[],10.09250206,18004,2616,1,0,7,1.0469795997475408
basic,22,1,0,1,1,22,"[0, 14, 17, 1, 28, 15, 22]",7,0,[],10.09250206,19363,1359,1,0,7,1.0469795997475408
undo,23,35,0,0,0,0,[0],1,29,"[1, 2, 3, 4, 5, 6, 7, 8, 9, 10, 11, 12, 13, 14, 15, 16, 17, 18, 19, 20, 21, 22, 23, 24, 25, 26, 27, 28, 29]",300,182,-1,5,236,11,0.0
undo,23,35,0,0,0,24,"[0, 24]",2,27,"[1, 2, 4, 5, 6, 7, 8, 9, 10, 11, 12, 13, 14, 15, 16, 17, 18, 19, 20, 21, 22, 23, 25, 26, 27, 28, 29]",268.9838752,2957,2775,49,512,10,1.0
undo,23,35,0,0,0,17,"[0, 24, 17]",3,26,"[1, 2, 4, 5, 6, 7, 8, 9, 10, 11, 12, 13, 14, 15, 16, 18, 19, 20, 21, 22, 23, 25, 26, 27, 28, 29]",257.2791753,3558,601,33,238,10,1.0771477201815276
undo,23,35,0,0,0,1,"[0, 24, 17, 1]",4,25,"[2, 4, 5, 6, 7, 8, 9, 10, 11, 12, 13, 14, 15, 16, 18, 19, 20, 21, 22, 23, 25, 26, 27, 28, 29]",241.4677869,4174,616,26,151,10,1.2244804141479215
undo,23,35,0,0,0,15,"[0, 24, 17, 1, 15]",5,23,"[2, 4, 5, 6, 7, 8, 9, 10, 11, 12, 14, 16, 18, 19, 20, 21, 22, 23, 25, 26, 27, 28, 29]",218.6204676,4907,733,26,78,10,1.4642196672428094
undo,23,35,0,0,0,5,"[0, 24, 17, 1, 15, 5]",6,13,"[4, 6, 9, 11, 18, 19, 20, 23, 25, 26, 27, 28, 29]",162.2999563,5973,1066,7,20,10,1.2337505118614283
undo,23,35,0,0,0,23,"[0, 24, 17, 1, 15, 5, 23]",7,4,"[6, 9, 18, 25]",107.8481427,6974,1001,6,6,10,1.8072927740829974
undo,23,35,0,0,0,9,"[0, 24, 17, 1, 15, 5, 23, 9]",8,3,"[6, 18, 25]",70.20508226,8024,1050,2,2,10,2.044176666334238
undo,23,35,0,0,0,18,"[0, 24, 17, 1, 15, 5, 23, 9, 18]",9,2,"[6, 25]",50.18009787,8757,733,2,0,10,1.942139959218181
undo,23,35,0,0,1,25,"[0, 24, 17, 1, 15, 5, 23, 9, 18, 25]",10,0,[],16.34224924,11091,2334,1,0,10,1.7516079451103164
undo,23,35,1,0,0,18,"[0, 24, 17, 1, 15, 5, 23, 9, 18]",9,2,"[6, 25]",50.18009787,16949,5858,2,0,10,1.942139959218181
undo,23,35,1,0,0,9,"[0, 24, 17, 1, 15, 5, 23, 9]",8,3,"[6, 18, 25]",70.20508226,17349,400,2,2,10,2.044176666334238
undo,23,35,1,0,0,23,"[0, 24, 17, 1, 15, 5, 23]",7,4,"[6, 9, 18, 25]",107.8481427,17632,283,6,6,10,1.8072927740829974
undo,23,35,1,0,0,5,"[0, 24, 17, 1, 15, 5]",6,13,"[4, 6, 9, 11, 18, 19, 20, 23, 25, 26, 27, 28, 29]",162.2999563,17965,333,7,20,10,1.2337505118614283
undo,23,35,1,0,0,15,"[0, 24, 17, 1, 15]",5,23,"[2, 4, 5, 6, 7, 8, 9, 10, 11, 12, 14, 16, 18, 19, 20, 21, 22, 23, 25, 26, 27, 28, 29]",218.6204676,18282,317,26,78,10,1.4642196672428094
undo,23,35,1,0,0,1,"[0, 24, 17, 1]",4,25,"[2, 4, 5, 6, 7, 8, 9, 10, 11, 12, 13, 14, 15, 16, 18, 19, 20, 21, 22, 23, 25, 26, 27, 28, 29]",241.4677869,18649,367,26,151,10,1.2244804141479215
undo,23,35,1,0,0,17,"[0, 24, 17]",3,26,"[1, 2, 4, 5, 6, 7, 8, 9, 10, 11, 12, 13, 14, 15, 16, 18, 19, 20, 21, 22, 23, 25, 26, 27, 28, 29]",257.2791753,18999,350,33,238,10,1.0771477201815276
undo,23,35,1,0,0,24,"[0, 24]",2,27,"[1, 2, 4, 5, 6, 7, 8, 9, 10, 11, 12, 13, 14, 15, 16, 17, 18, 19, 20, 21, 22, 23, 25, 26, 27, 28, 29]",268.9838752,19416,417,49,512,10,1.0
undo,23,35,1,0,0,0,[0],1,29,"[1, 2, 3, 4, 5, 6, 7, 8, 9, 10, 11, 12, 13, 14, 15, 16, 17, 18, 19, 20, 21, 22, 23, 24, 25, 26, 27, 28, 29]",300,20348,932,5,236,11,0.0
undo,23,35,0,0,0,27,"[0, 27]",2,27,"[1, 2, 4, 5, 6, 7, 8, 9, 10, 11, 12, 13, 14, 15, 16, 17, 18, 19, 20, 21, 22, 23, 24, 25, 26, 28, 29]",278.7867966,22074,1726,5,144,11,1.0
undo,23,35,0,0,0,24,"[0, 27, 24]",3,25,"[1, 2, 4, 5, 6, 7, 8, 9, 10, 11, 12, 13, 15, 16, 17, 18, 19, 20, 21, 22, 23, 25, 26, 28, 29]",234.6053525,24574,2500,3,80,11,2.1084080567904624
undo,23,35,0,0,0,17,"[0, 27, 24, 17]",4,20,"[1, 2, 4, 5, 6, 7, 8, 9, 10, 15, 16, 18, 19, 20, 21, 23, 25, 26, 28, 29]",222.9006526,25258,684,3,50,11,1.9439555968916868
undo,23,35,0,0,0,1,"[0, 27, 24, 17, 1]",5,18,"[2, 4, 5, 6, 8, 9, 10, 15, 16, 18, 19, 20, 21, 23, 25, 26, 28, 29]",207.0892643,26157,899,3,39,11,1.9436711872547336
undo,23,35,0,0,0,15,"[0, 27, 24, 17, 1, 15]",6,16,"[2, 4, 5, 6, 8, 9, 10, 16, 18, 19, 20, 23, 25, 26, 28, 29]",184.241945,26840,683,3,24,11,2.082774572108194
undo,23,35,0,0,0,5,"[0, 27, 24, 17, 1, 15, 5]",7,9,"[4, 6, 9, 18, 20, 23, 25, 26, 29]",127.9214336,27640,800,5,10,10,1.5417716194695787
undo,23,35,0,0,0,23,"[0, 27, 24, 17, 1, 15, 5, 23]",8,4,"[6, 9, 18, 25]",73.46962004,28608,968,5,1,10,2.1306414861907443
undo,23,35,0,0,0,9,"[0, 27, 24, 17, 1, 15, 5, 23, 9]",9,1,[18],35.8265596,29457,849,1,0,10,2.349996196791077
undo,23,35,0,0,1,18,"[0, 27, 24, 17, 1, 15, 5, 23, 9, 18]",10,0,[],15.8015752,30724,1267,1,0,10,2.2094041044965294
undo,23,35,0,1,1,18,"[0, 27, 24, 17, 1, 15, 5, 23, 9, 18]",10,0,[],15.8015752,34682,3958,1,0,10,2.2094041044965294
undo,24,12,0,0,0,0,[0],1,29,"[1, 2, 3, 4, 5, 6, 7, 8, 9, 10, 11, 12, 13, 14, 15, 16, 17, 18, 19, 20, 21, 22, 23, 24, 25, 26, 27, 28, 29]",300,129,-1,2,32,9,0.0
undo,24,12,0,0,0,6,"[0, 6]",2,28,"[1, 2, 3, 4, 5, 7, 8, 9, 10, 11, 12, 13, 14, 15, 16, 17, 18, 19, 20, 21, 22, 23, 24, 25, 26, 27, 28, 29]",283.5987805,4137,4008,2,18,9,1.0
undo,24,12,0,0,0,9,"[0, 6, 9]",3,8,"[3, 5, 15, 17, 18, 21, 23, 28]",165.4082564,10070,5933,2,6,7,1.0066610065144597
undo,24,12,0,0,0,21,"[0, 6, 9, 21]",4,5,"[3, 5, 15, 17, 18]",96.05409284,10904,834,1,3,7,1.2466820631095812
undo,24,12,0,0,0,18,"[0, 6, 9, 21, 18]",5,2,"[15, 17]",79.77527224,12054,1150,1,1,7,1.4673498836706853
undo,24,12,0,0,0,15,"[0, 6, 9, 21, 18, 15]",6,1,[17],26.01655202,12720,666,1,0,7,1.4499726421034995
undo,24,12,0,0,1,17,"[0, 6, 9, 21, 18, 15, 17]",7,0,[],9.524129519,13537,817,1,0,7,1.4883678368647324
undo,24,12,1,0,0,15,"[0, 6, 9, 21, 18, 15]",6,1,[17],26.01655202,14995,1458,1,0,7,1.4499726421034995
undo,24,12,1,0,0,18,"[0, 6, 9, 21, 18]",5,2,"[15, 17]",79.77527224,15645,650,1,1,7,1.4673498836706853
undo,24,12,1,0,0,21,"[0, 6, 9, 21]",4,5,"[3, 5, 15, 17, 18]",96.05409284,16045,400,1,3,7,1.2466820631095812
undo,24,12,1,0,0,9,"[0, 6, 9]",3,8,"[3, 5, 15, 17, 18, 21, 23, 28]",165.4082564,16395,350,2,6,7,1.0066610065144597
undo,24,12,1,0,0,6,"[0, 6]",2,28,"[1, 2, 3, 4, 5, 7, 8, 9, 10, 11, 12, 13, 14, 15, 16, 17, 18, 19, 20, 21, 22, 23, 24, 25, 26, 27, 28, 29]",283.5987805,17145,750,2,18,9,1.0
undo,24,12,0,0,0,22,"[0, 6, 22]",3,13,"[2, 4, 5, 7, 12, 13, 14, 16, 19, 23, 24, 25, 27]",182.0015365,20021,2876,2,9,9,1.3408050629015749
undo,24,12,0,0,0,16,"[0, 6, 22, 16]",4,10,"[2, 4, 5, 7, 12, 14, 19, 24, 25, 27]",161.0015365,20854,833,2,7,9,1.5323672374573825
undo,24,12,0,0,0,4,"[0, 6, 22, 16, 4]",5,6,"[12, 14, 19, 24, 25, 27]",126.7962737,21603,749,2,5,9,1.38665076120851
undo,24,12,0,0,0,12,"[0, 6, 22, 16, 4, 12]",6,3,"[14, 24, 27]",84.6062275,22437,834,2,3,9,1.3036701691846924
undo,24,12,0,0,0,27,"[0, 6, 22, 16, 4, 12, 27]",7,2,"[14, 24]",60.25463618,23420,983,2,0,9,1.401636252408167
undo,24,12,0,0,0,14,"[0, 6, 22, 16, 4, 12, 27, 14]",8,1,[24],31.60153862,24887,1467,1,0,9,1.4415448388010776
undo,24,12,0,0,1,24,"[0, 6, 22, 16, 4, 12, 27, 14, 24]",9,0,[],14.39688808,26804,1917,1,0,9,1.6003250998053893
undo,24,12,0,1,1,24,"[0, 6, 22, 16, 4, 12, 27, 14, 24]",9,0,[],14.39688808,27912,1108,1,0,9,1.6003250998053893
undo,25,8,0,0,0,0,[0],1,29,"[1, 2, 3, 4, 5, 6, 7, 8, 9, 10, 11, 12, 13, 14, 15, 16, 17, 18, 19, 20, 21, 22, 23, 24, 25, 26, 27, 28, 29]",300,130,-1,10,149,9,0.0
undo,25,8,0,0,0,5,"[0, 5]",2,28,"[1, 2, 3, 4, 6, 7, 8, 9, 10, 11, 12, 13, 14, 15, 16, 17, 18, 19, 20, 21, 22, 23, 24, 25, 26, 27, 28, 29]",254.5137383,4305,4175,10,100,9,1.0
undo,25,8,0,0,0,25,"[0, 5, 25]",3,20,"[1, 2, 3, 4, 6, 11, 12, 14, 15, 16, 17, 18, 19, 20, 21, 22, 23, 24, 28, 29]",215.3091468,5204,899,4,42,9,1.2272747879909065
undo,25,8,0,0,0,1,"[0, 5, 25, 1]",4,17,"[3, 4, 6, 11, 12, 14, 15, 16, 17, 18, 20, 21, 22, 23, 24, 28, 29]",190.3091468,5954,750,3,24,9,1.1770245007593956
undo,25,8,0,0,0,23,"[0, 5, 25, 1, 23]",5,15,"[3, 4, 6, 11, 14, 15, 16, 17, 18, 20, 21, 22, 24, 28, 29]",167.2874179,6538,584,1,14,9,1.141996583852372
undo,25,8,0,0,0,4,"[0, 5, 25, 1, 23, 4]",6,6,"[3, 14, 16, 18, 21, 28]",117.9518324,8005,1467,3,4,8,1.115517190692443
undo,25,8,0,0,0,18,"[0, 5, 25, 1, 23, 4, 18]",7,2,"[14, 28]",74.94020603,8907,902,2,0,8,1.702606074443807
undo,25,8,0,0,1,14,"[0, 5, 25, 1, 23, 4, 18, 14]",8,0,[],17.45107663,10022,1115,1,0,8,3.306985013025639
undo,25,8,1,0,0,18,"[0, 5, 25, 1, 23, 4, 18]",7,2,"[14, 28]",74.94020603,12130,2108,2,0,8,1.702606074443807
undo,25,8,1,0,0,4,"[0, 5, 25, 1, 23, 4]",6,6,"[3, 14, 16, 18, 21, 28]",117.9518324,12514,384,3,4,8,1.115517190692443
undo,25,8,1,0,0,23,"[0, 5, 25, 1, 23]",5,15,"[3, 4, 6, 11, 14, 15, 16, 17, 18, 20, 21, 22, 24, 28, 29]",167.2874179,12881,367,1,14,9,1.141996583852372
undo,25,8,1,0,0,1,"[0, 5, 25, 1]",4,17,"[3, 4, 6, 11, 12, 14, 15, 16, 17, 18, 20, 21, 22, 23, 24, 28, 29]",190.3091468,14713,1832,3,24,9,1.1770245007593956
undo,25,8,1,0,0,25,"[0, 5, 25]",3,20,"[1, 2, 3, 4, 6, 11, 12, 14, 15, 16, 17, 18, 19, 20, 21, 22, 23, 24, 28, 29]",215.3091468,16347,1634,4,42,9,1.2272747879909065
undo,25,8,0,0,0,14,"[0, 5, 25, 14]",4,16,"[1, 3, 4, 6, 11, 15, 16, 17, 18, 19, 20, 21, 22, 23, 24, 28]",170.2092576,17221,874,1,13,9,1.5190857385933465
undo,25,8,0,0,0,17,"[0, 5, 25, 14, 17]",5,9,"[1, 4, 11, 15, 16, 18, 23, 24, 28]",133.1957466,18055,834,1,9,9,1.5271682935559303
undo,25,8,0,0,0,11,"[0, 5, 25, 14, 17, 11]",6,5,"[15, 16, 18, 24, 28]",108.01639,19121,1066,1,6,9,1.4664212485560129
undo,25,8,0,0,0,24,"[0, 5, 25, 14, 17, 11, 24]",7,2,"[15, 16]",70.80080183,19938,817,1,1,9,1.3920548417170795
undo,25,8,0,0,0,15,"[0, 5, 25, 14, 17, 11, 24, 15]",8,1,[16],54.03774722,21087,1149,1,0,9,1.4585932832823736
undo,25,8,0,0,1,16,"[0, 5, 25, 14, 17, 11, 24, 15, 16]",9,0,[],2.959376062,24054,2967,1,0,9,1.6043130175078746
undo,25,8,0,1,1,16,"[0, 5, 25, 14, 17, 11, 24, 15, 16]",9,0,[],2.959376062,28864,4810,1,0,9,1.6043130175078746
undo,26,10,0,0,0,0,[0],1,29,"[1, 2, 3, 4, 5, 6, 7, 8, 9, 10, 11, 12, 13, 14, 15, 16, 17, 18, 19, 20, 21, 22, 23, 24, 25, 26, 27, 28, 29]",300,162,-1,1,100,9,0.0
undo,26,10,0,0,0,13,"[0, 13]",2,25,"[1, 2, 3, 4, 6, 7, 8, 9, 10, 11, 12, 14, 17, 18, 19, 20, 21, 22, 23, 24, 25, 26, 27, 28, 29]",249.4628849,2305,2143,1,79,9,1.0
undo,26,10,0,0,0,11,"[0, 13, 11]",3,20,"[1, 2, 3, 6, 7, 8, 9, 10, 12, 14, 18, 19, 20, 21, 22, 24, 26, 27, 28, 29]",206.4512586,3037,732,1,54,9,1.0313137484914219
undo,26,10,0,0,0,19,"[0, 13, 11, 19]",4,11,"[2, 6, 8, 9, 10, 14, 18, 20, 24, 26, 27]",170.0919407,3771,734,1,22,9,1.0879446220132545
undo,26,10,0,0,0,2,"[0, 13, 11, 19, 2]",5,4,"[14, 20, 26, 27]",126.1829439,5021,1250,1,4,9,1.06474052351343
undo,26,10,0,0,0,14,"[0, 13, 11, 19, 2, 14]",6,3,"[20, 26, 27]",114.0174188,5721,700,1,3,9,1.1628909195912238
undo,26,10,0,0,0,26,"[0, 13, 11, 19, 2, 14, 26]",7,2,"[20, 27]",79.34754716,6738,1017,1,1,9,1.6660727647633602
undo,26,10,0,0,0,20,"[0, 13, 11, 19, 2, 14, 26, 20]",8,1,[27],47.56704999,7487,749,1,0,9,2.085581809637999
undo,26,10,0,0,1,27,"[0, 13, 11, 19, 2, 14, 26, 20, 27]",9,0,[],2.312215998,9088,1601,1,0,9,1.9116357409137932
undo,26,10,1,0,0,20,"[0, 13, 11, 19, 2, 14, 26, 20]",8,1,[27],47.56704999,12964,3876,1,0,9,2.085581809637999
undo,26,10,1,0,0,26,"[0, 13, 11, 19, 2, 14, 26]",7,2,"[20, 27]",79.34754716,13347,383,1,1,9,1.6660727647633602
undo,26,10,1,0,0,14,"[0, 13, 11, 19, 2, 14]",6,3,"[20, 26, 27]",114.0174188,13747,400,1,3,9,1.1628909195912238
undo,26,10,1,0,0,2,"[0, 13, 11, 19, 2]",5,4,"[14, 20, 26, 27]",126.1829439,14079,332,1,4,9,1.06474052351343
undo,26,10,1,0,0,19,"[0, 13, 11, 19]",4,11,"[2, 6, 8, 9, 10, 14, 18, 20, 24, 26, 27]",170.0919407,14447,368,1,22,9,1.0879446220132545
undo,26,10,1,0,0,11,"[0, 13, 11]",3,20,"[1, 2, 3, 6, 7, 8, 9, 10, 12, 14, 18, 19, 20, 21, 22, 24, 26, 27, 28, 29]",206.4512586,14797,350,1,54,9,1.0313137484914219
undo,26,10,1,0,0,13,"[0, 13]",2,25,"[1, 2, 3, 4, 6, 7, 8, 9, 10, 11, 12, 14, 17, 18, 19, 20, 21, 22, 23, 24, 25, 26, 27, 28, 29]",249.4628849,15129,332,1,79,9,1.0
undo,26,10,1,0,0,0,[0],1,29,"[1, 2, 3, 4, 5, 6, 7, 8, 9, 10, 11, 12, 13, 14, 15, 16, 17, 18, 19, 20, 21, 22, 23, 24, 25, 26, 27, 28, 29]",300,15463,334,1,100,9,0.0
undo,26,10,0,0,0,10,"[0, 10]",2,27,"[1, 2, 3, 4, 5, 6, 7, 8, 9, 11, 12, 13, 14, 15, 17, 18, 19, 20, 21, 22, 23, 24, 25, 26, 27, 28, 29]",211.2475352,17287,1824,5,73,8,1.0
undo,26,10,0,0,0,18,"[0, 10, 18]",3,24,"[1, 2, 3, 5, 6, 7, 8, 9, 11, 12, 13, 14, 15, 17, 19, 20, 21, 23, 24, 25, 26, 27, 28, 29]",197.7939112,18154,867,5,49,8,1.0012508773359339
undo,26,10,0,0,0,20,"[0, 10, 18, 20]",4,9,"[2, 6, 9, 11, 13, 14, 19, 26, 27]",126.4496753,19204,1050,3,23,8,1.4338595664185272
undo,26,10,0,0,0,26,"[0, 10, 18, 20, 26]",5,6,"[2, 11, 13, 14, 19, 27]",94.66917811,19770,566,3,6,8,1.550384261377175
undo,26,10,0,0,0,14,"[0, 10, 18, 20, 26, 14]",6,2,"[2, 19]",59.99930646,20487,717,1,1,8,1.5006492834569933
undo,26,10,0,0,0,2,"[0, 10, 18, 20, 26, 14, 2]",7,1,[19],47.8337814,21071,584,1,0,8,1.544679202540964
undo,26,10,0,0,1,19,"[0, 10, 18, 20, 26, 14, 2, 19]",8,0,[],3.9247846,22404,1333,1,0,8,2.4795493061903198
undo,26,10,1,0,0,2,"[0, 10, 18, 20, 26, 14, 2]",7,1,[19],47.8337814,24096,1692,1,0,8,1.544679202540964
undo,26,10,1,0,0,14,"[0, 10, 18, 20, 26, 14]",6,2,"[2, 19]",59.99930646,24496,400,1,1,8,1.5006492834569933
undo,26,10,1,0,0,26,"[0, 10, 18, 20, 26]",5,6,"[2, 11, 13, 14, 19, 27]",94.66917811,24796,300,3,6,8,1.550384261377175
undo,26,10,1,0,0,20,"[0, 10, 18, 20]",4,9,"[2, 6, 9, 11, 13, 14, 19, 26, 27]",126.4496753,25096,300,3,23,8,1.4338595664185272
undo,26,10,1,0,0,18,"[0, 10, 18]",3,24,"[1, 2, 3, 5, 6, 7, 8, 9, 11, 12, 13, 14, 15, 17, 19, 20, 21, 23, 24, 25, 26, 27, 28, 29]",197.7939112,25430,334,5,49,8,1.0012508773359339
undo,26,10,1,0,0,10,"[0, 10]",2,27,"[1, 2, 3, 4, 5, 6, 7, 8, 9, 11, 12, 13, 14, 15, 17, 18, 19, 20, 21, 22, 23, 24, 25, 26, 27, 28, 29]",211.2475352,25780,350,5,73,8,1.0
undo,26,10,1,0,0,0,[0],1,29,"[1, 2, 3, 4, 5, 6, 7, 8, 9, 10, 11, 12, 13, 14, 15, 16, 17, 18, 19, 20, 21, 22, 23, 24, 25, 26, 27, 28, 29]",300,26596,816,1,100,9,0.0
undo,26,10,0,0,0,13,"[0, 13]",2,25,"[1, 2, 3, 4, 6, 7, 8, 9, 10, 11, 12, 14, 17, 18, 19, 20, 21, 22, 23, 24, 25, 26, 27, 28, 29]",249.4628849,29204,2608,1,79,9,1.0
undo,26,10,0,0,0,11,"[0, 13, 11]",3,20,"[1, 2, 3, 6, 7, 8, 9, 10, 12, 14, 18, 19, 20, 21, 22, 24, 26, 27, 28, 29]",206.4512586,30071,867,1,54,9,1.0313137484914219
undo,26,10,0,0,0,19,"[0, 13, 11, 19]",4,11,"[2, 6, 8, 9, 10, 14, 18, 20, 24, 26, 27]",170.0919407,30721,650,1,22,9,1.0879446220132545
undo,26,10,0,0,0,2,"[0, 13, 11, 19, 2]",5,4,"[14, 20, 26, 27]",126.1829439,31937,1216,1,4,9,1.06474052351343
undo,26,10,0,0,0,14,"[0, 13, 11, 19, 2, 14]",6,3,"[20, 26, 27]",114.0174188,35037,3100,1,3,9,1.1628909195912238
undo,26,10,0,0,0,26,"[0, 13, 11, 19, 2, 14, 26]",7,2,"[20, 27]",79.34754716,35870,833,1,1,9,1.6660727647633602
undo,26,10,0,0,0,20,"[0, 13, 11, 19, 2, 14, 26, 20]",8,1,[27],47.56704999,36971,1101,1,0,9,2.085581809637999
undo,26,10,0,0,1,27,"[0, 13, 11, 19, 2, 14, 26, 20, 27]",9,0,[],2.312215998,38072,1101,1,0,9,1.9116357409137932
undo,26,10,0,1,1,27,"[0, 13, 11, 19, 2, 14, 26, 20, 27]",9,0,[],2.312215998,39230,1158,1,0,9,1.9116357409137932
undo,27,22,0,0,0,0,[0],1,29,"[1, 2, 3, 4, 5, 6, 7, 8, 9, 10, 11, 12, 13, 14, 15, 16, 17, 18, 19, 20, 21, 22, 23, 24, 25, 26, 27, 28, 29]",300,129,-1,31,704,9,0.0
undo,27,22,0,0,0,16,"[0, 16]",2,21,"[1, 3, 6, 7, 8, 9, 11, 13, 14, 15, 17, 18, 19, 20, 21, 22, 24, 25, 27, 28, 29]",218.605897,4454,4325,17,147,9,1.0
undo,27,22,0,0,0,28,"[0, 16, 28]",3,13,"[6, 7, 9, 13, 14, 17, 19, 20, 21, 22, 24, 25, 29]",184.1675463,5421,967,12,61,9,1.047282311284478
undo,27,22,0,0,0,6,"[0, 16, 28, 6]",4,12,"[7, 9, 13, 14, 17, 19, 20, 21, 22, 24, 25, 29]",154.1675463,6371,950,12,43,9,1.645645870580622
undo,27,22,0,0,0,9,"[0, 16, 28, 6, 9]",5,8,"[7, 14, 17, 19, 20, 21, 24, 29]",127.5404924,7239,868,8,17,9,1.925750226630103
undo,27,22,0,0,0,19,"[0, 16, 28, 6, 9, 19]",6,6,"[7, 14, 17, 21, 24, 29]",107.1444143,8237,998,3,7,9,2.4220750331476455
undo,27,22,0,0,0,29,"[0, 16, 28, 6, 9, 19, 29]",7,4,"[7, 14, 17, 24]",92.11111796,9087,850,2,2,9,2.6996279574991067
undo,27,22,0,0,0,14,"[0, 16, 28, 6, 9, 19, 29, 14]",8,1,[7],33.86165444,15537,6450,1,0,9,2.0544639927929462
undo,27,22,0,0,1,7,"[0, 16, 28, 6, 9, 19, 29, 14, 7]",9,0,[],20.82324963,16820,1283,1,0,9,2.219817088951114
undo,27,22,1,0,0,14,"[0, 16, 28, 6, 9, 19, 29, 14]",8,1,[7],33.86165444,18779,1959,1,0,9,2.0544639927929462
undo,27,22,1,0,0,29,"[0, 16, 28, 6, 9, 19, 29]",7,4,"[7, 14, 17, 24]",92.11111796,19179,400,2,2,9,2.6996279574991067
undo,27,22,1,0,0,19,"[0, 16, 28, 6, 9, 19]",6,6,"[7, 14, 17, 21, 24, 29]",107.1444143,19528,349,3,7,9,2.4220750331476455
undo,27,22,1,0,0,9,"[0, 16, 28, 6, 9]",5,8,"[7, 14, 17, 19, 20, 21, 24, 29]",127.5404924,19845,317,8,17,9,1.925750226630103
undo,27,22,1,0,0,6,"[0, 16, 28, 6]",4,12,"[7, 9, 13, 14, 17, 19, 20, 21, 22, 24, 25, 29]",154.1675463,20129,284,12,43,9,1.645645870580622
undo,27,22,1,0,0,28,"[0, 16, 28]",3,13,"[6, 7, 9, 13, 14, 17, 19, 20, 21, 22, 24, 25, 29]",184.1675463,20462,333,12,61,9,1.047282311284478
undo,27,22,1,0,0,16,"[0, 16]",2,21,"[1, 3, 6, 7, 8, 9, 11, 13, 14, 15, 17, 18, 19, 20, 21, 22, 24, 25, 27, 28, 29]",218.605897,22729,2267,17,147,9,1.0
undo,27,22,1,0,0,0,[0],1,29,"[1, 2, 3, 4, 5, 6, 7, 8, 9, 10, 11, 12, 13, 14, 15, 16, 17, 18, 19, 20, 21, 22, 23, 24, 25, 26, 27, 28, 29]",300,23380,651,31,704,9,0.0
undo,27,22,0,0,0,9,"[0, 9]",2,19,"[1, 3, 6, 7, 8, 13, 14, 15, 16, 17, 19, 20, 21, 22, 23, 24, 25, 28, 29]",210.4455473,27470,4090,60,492,8,1.0
undo,27,22,0,0,0,19,"[0, 9, 19]",3,18,"[1, 3, 6, 7, 8, 13, 14, 15, 16, 17, 20, 21, 22, 23, 24, 25, 28, 29]",190.0494692,28454,984,33,176,8,1.3808697039569915
undo,27,22,0,0,0,29,"[0, 9, 19, 29]",4,17,"[1, 3, 6, 7, 8, 13, 14, 15, 16, 17, 20, 21, 22, 23, 24, 25, 28]",175.0161729,29187,733,25,89,8,1.6230297193549454
undo,27,22,0,0,0,14,"[0, 9, 19, 29, 14]",5,8,"[3, 6, 7, 16, 17, 21, 24, 28]",116.7667093,32220,3033,5,12,8,1.4144756075341427
undo,27,22,0,0,0,7,"[0, 9, 19, 29, 14, 7]",6,7,"[3, 6, 16, 17, 21, 24, 28]",103.7283045,32804,584,5,4,8,1.5606144249866158
undo,27,22,0,0,0,17,"[0, 9, 19, 29, 14, 7, 17]",7,2,"[21, 24]",62.11100044,37854,5050,2,0,8,1.5053552492507773
undo,27,22,0,0,1,21,"[0, 9, 19, 29, 14, 7, 17, 21]",8,0,[],10.75927213,39270,1416,1,0,8,1.7931053223691746
undo,27,22,1,0,0,17,"[0, 9, 19, 29, 14, 7, 17]",7,2,"[21, 24]",62.11100044,40196,926,2,0,8,1.5053552492507773
undo,27,22,1,0,0,7,"[0, 9, 19, 29, 14, 7]",6,7,"[3, 6, 16, 17, 21, 24, 28]",103.7283045,40478,282,5,4,8,1.5606144249866158
undo,27,22,1,0,0,14,"[0, 9, 19, 29, 14]",5,8,"[3, 6, 7, 16, 17, 21, 24, 28]",116.7667093,40761,283,5,12,8,1.4144756075341427
undo,27,22,1,0,0,29,"[0, 9, 19, 29]",4,17,"[1, 3, 6, 7, 8, 13, 14, 15, 16, 17, 20, 21, 22, 23, 24, 25, 28]",175.0161729,41045,284,25,89,8,1.6230297193549454
undo,27,22,1,0,0,19,"[0, 9, 19]",3,18,"[1, 3, 6, 7, 8, 13, 14, 15, 16, 17, 20, 21, 22, 23, 24, 25, 28, 29]",190.0494692,41711,666,33,176,8,1.3808697039569915
undo,27,22,1,0,0,9,"[0, 9]",2,19,"[1, 3, 6, 7, 8, 13, 14, 15, 16, 17, 19, 20, 21, 22, 23, 24, 25, 28, 29]",210.4455473,42129,418,60,492,8,1.0
undo,27,22,1,0,0,0,[0],1,29,"[1, 2, 3, 4, 5, 6, 7, 8, 9, 10, 11, 12, 13, 14, 15, 16, 17, 18, 19, 20, 21, 22, 23, 24, 25, 26, 27, 28, 29]",300,42712,583,31,704,9,0.0
undo,27,22,0,0,0,13,"[0, 13]",2,22,"[1, 3, 5, 6, 7, 8, 9, 10, 12, 14, 15, 16, 17, 19, 20, 21, 23, 24, 25, 26, 28, 29]",189.3202819,46437,3725,2,52,8,1.0
undo,27,22,0,0,0,15,"[0, 13, 15]",3,17,"[1, 3, 5, 6, 7, 8, 9, 10, 14, 17, 19, 20, 21, 23, 24, 26, 29]",173.7639327,47470,1033,2,40,8,1.001747361505262
undo,27,22,0,0,0,20,"[0, 13, 15, 20]",4,12,"[1, 3, 7, 8, 9, 14, 17, 19, 21, 23, 24, 29]",124.9172337,48420,950,1,19,8,1.2067501174044284
undo,27,22,0,0,0,3,"[0, 13, 15, 20, 3]",5,6,"[1, 8, 17, 21, 23, 24]",92.66820275,49254,834,6,3,7,1.2166135576612582
undo,27,22,0,0,0,21,"[0, 13, 15, 20, 3, 21]",6,3,"[1, 17, 24]",67.64821074,50420,1166,3,0,7,1.4404307202938684
undo,27,22,0,0,1,24,"[0, 13, 15, 20, 3, 21, 24]",7,0,[],40.44526972,52403,1983,1,0,7,1.9350367919243
undo,27,22,1,0,0,21,"[0, 13, 15, 20, 3, 21]",6,3,"[1, 17, 24]",67.64821074,54629,2226,3,0,7,1.4404307202938684
undo,27,22,1,0,0,3,"[0, 13, 15, 20, 3]",5,6,"[1, 8, 17, 21, 23, 24]",92.66820275,54995,366,6,3,7,1.2166135576612582
undo,27,22,1,0,0,20,"[0, 13, 15, 20]",4,12,"[1, 3, 7, 8, 9, 14, 17, 19, 21, 23, 24, 29]",124.9172337,55295,300,1,19,8,1.2067501174044284
undo,27,22,1,0,0,15,"[0, 13, 15]",3,17,"[1, 3, 5, 6, 7, 8, 9, 10, 14, 17, 19, 20, 21, 23, 24, 26, 29]",173.7639327,55629,334,2,40,8,1.001747361505262
undo,27,22,1,0,0,13,"[0, 13]",2,22,"[1, 3, 5, 6, 7, 8, 9, 10, 12, 14, 15, 16, 17, 19, 20, 21, 23, 24, 25, 26, 28, 29]",189.3202819,56012,383,2,52,8,1.0
undo,27,22,1,0,0,0,[0],1,29,"[1, 2, 3, 4, 5, 6, 7, 8, 9, 10, 11, 12, 13, 14, 15, 16, 17, 18, 19, 20, 21, 22, 23, 24, 25, 26, 27, 28, 29]",300,56479,467,31,704,9,0.0
undo,27,22,0,0,0,16,"[0, 16]",2,21,"[1, 3, 6, 7, 8, 9, 11, 13, 14, 15, 17, 18, 19, 20, 21, 22, 24, 25, 27, 28, 29]",218.605897,58853,2374,17,147,9,1.0
undo,27,22,0,0,0,28,"[0, 16, 28]",3,13,"[6, 7, 9, 13, 14, 17, 19, 20, 21, 22, 24, 25, 29]",184.1675463,60286,1433,12,61,9,1.047282311284478
undo,27,22,0,0,0,6,"[0, 16, 28, 6]",4,12,"[7, 9, 13, 14, 17, 19, 20, 21, 22, 24, 25, 29]",154.1675463,60870,584,12,43,9,1.645645870580622
undo,27,22,0,0,0,9,"[0, 16, 28, 6, 9]",5,8,"[7, 14, 17, 19, 20, 21, 24, 29]",127.5404924,61802,932,8,17,9,1.925750226630103
undo,27,22,0,0,0,19,"[0, 16, 28, 6, 9, 19]",6,6,"[7, 14, 17, 21, 24, 29]",107.1444143,62503,701,3,7,9,2.4220750331476455
undo,27,22,0,0,0,29,"[0, 16, 28, 6, 9, 19, 29]",7,4,"[7, 14, 17, 24]",92.11111796,63070,567,2,2,9,2.6996279574991067
undo,27,22,0,0,0,14,"[0, 16, 28, 6, 9, 19, 29, 14]",8,1,[7],33.86165444,64455,1385,1,0,9,2.0544639927929462
undo,27,22,0,0,1,7,"[0, 16, 28, 6, 9, 19, 29, 14, 7]",9,0,[],20.82324963,65104,649,1,0,9,2.219817088951114
undo,27,22,0,1,1,7,"[0, 16, 28, 6, 9, 19, 29, 14, 7]",9,0,[],20.82324963,66662,1558,1,0,9,2.219817088951114
undo,28,17,0,0,0,0,[0],1,28,"[1, 2, 3, 4, 5, 6, 7, 8, 9, 10, 11, 12, 13, 14, 15, 16, 17, 18, 19, 20, 22, 23, 24, 25, 26, 27, 28, 29]",300,133,-1,2,73,8,0.0
undo,28,17,0,0,0,9,"[0, 9]",2,25,"[1, 2, 3, 5, 6, 7, 8, 10, 11, 12, 14, 15, 16, 17, 18, 19, 20, 22, 23, 24, 25, 26, 27, 28, 29]",210.5293344,10074,9941,1,34,8,1.0
undo,28,17,0,0,0,16,"[0, 9, 16]",3,21,"[1, 2, 3, 5, 7, 8, 10, 11, 12, 14, 17, 18, 19, 20, 22, 23, 25, 26, 27, 28, 29]",197.1876704,10674,600,1,26,8,1.173103464220352
undo,28,17,0,0,0,2,"[0, 9, 16, 2]",4,18,"[1, 3, 5, 7, 8, 10, 11, 12, 14, 17, 18, 19, 23, 25, 26, 27, 28, 29]",181.0631549,11191,517,1,23,8,1.14825089247282
undo,28,17,0,0,0,10,"[0, 9, 16, 2, 10]",5,4,"[3, 11, 23, 28]",71.04042993,14960,3769,3,2,7,1.2629477265421833
undo,28,17,0,0,0,11,"[0, 9, 16, 2, 10, 11]",6,1,[3],49.08593153,15624,664,1,0,7,1.2370659942349713
undo,28,17,0,0,1,3,"[0, 9, 16, 2, 10, 11, 3]",7,0,[],22.91342687,16508,884,1,0,7,1.4627126127553682
undo,28,17,1,0,0,11,"[0, 9, 16, 2, 10, 11]",6,1,[3],49.08593153,17999,1491,1,0,7,1.2370659942349713
undo,28,17,1,0,0,10,"[0, 9, 16, 2, 10]",5,4,"[3, 11, 23, 28]",71.04042993,18416,417,3,2,7,1.2629477265421833
undo,28,17,1,0,0,2,"[0, 9, 16, 2]",4,18,"[1, 3, 5, 7, 8, 10, 11, 12, 14, 17, 18, 19, 23, 25, 26, 27, 28, 29]",181.0631549,18783,367,1,23,8,1.14825089247282
undo,28,17,0,0,0,8,"[0, 9, 16, 2, 8]",5,9,"[3, 7, 10, 11, 12, 14, 17, 26, 27]",145.9490551,20225,1442,1,9,8,1.1509808066472915
undo,28,17,0,0,0,27,"[0, 9, 16, 2, 8, 27]",6,3,"[7, 12, 26]",63.31129136,21192,967,1,2,8,1.1020704318716983
undo,28,17,0,0,0,12,"[0, 9, 16, 2, 8, 27, 12]",7,1,[26],40.31129136,22193,1001,1,0,8,1.094321365620665
undo,28,17,0,0,1,26,"[0, 9, 16, 2, 8, 27, 12, 26]",8,0,[],5.197191627,23793,1600,1,0,8,1.2018360298670372
undo,28,17,0,1,1,26,"[0, 9, 16, 2, 8, 27, 12, 26]",8,0,[],5.197191627,25036,1243,1,0,8,1.2018360298670372
undo,29,32,0,0,0,0,[0],1,29,"[1, 2, 3, 4, 5, 6, 7, 8, 9, 10, 11, 12, 13, 14, 15, 16, 17, 18, 19, 20, 21, 22, 23, 24, 25, 26, 27, 28, 29]",300,131,-1,17,359,10,0.0
undo,29,32,0,0,0,19,"[0, 19]",2,28,"[1, 2, 3, 4, 5, 6, 7, 8, 9, 10, 11, 12, 13, 14, 15, 16, 17, 18, 20, 21, 22, 23, 24, 25, 26, 27, 28, 29]",283.5075775,3824,3693,16,294,10,1.0
undo,29,32,0,0,0,13,"[0, 19, 13]",3,24,"[2, 3, 4, 5, 6, 8, 9, 10, 11, 12, 14, 15, 16, 17, 18, 20, 21, 22, 23, 24, 25, 26, 27, 28]",260.3127505,4857,1033,14,227,10,1.0172874229878615
undo,29,32,0,0,0,15,"[0, 19, 13, 15]",4,18,"[2, 3, 5, 8, 9, 10, 11, 12, 16, 17, 20, 22, 23, 24, 25, 26, 27, 28]",177.4393531,5842,985,9,116,10,1.435447391509833
undo,29,32,0,0,0,28,"[0, 19, 13, 15, 28]",5,17,"[2, 3, 5, 8, 9, 10, 11, 12, 16, 17, 20, 22, 23, 24, 25, 26, 27]",166.0375988,6474,632,9,70,10,1.3843701324937985
undo,29,32,0,0,0,12,"[0, 19, 13, 15, 28, 12]",6,14,"[2, 3, 5, 8, 9, 10, 11, 16, 17, 20, 22, 24, 26, 27]",147.0639329,7492,1018,6,35,10,1.358372254952329
undo,29,32,0,0,0,16,"[0, 19, 13, 15, 28, 12, 16]",7,13,"[2, 3, 5, 8, 9, 10, 11, 17, 20, 22, 24, 26, 27]",131.411457,8242,750,5,15,10,1.4356932930709845
undo,29,32,0,0,0,22,"[0, 19, 13, 15, 28, 12, 16, 22]",8,6,"[2, 8, 9, 17, 20, 27]",97.57360838,9042,800,3,5,10,1.4335226411545752
undo,29,32,0,0,0,9,"[0, 19, 13, 15, 28, 12, 16, 22, 9]",9,3,"[2, 8, 20]",75.37000507,9909,867,3,0,10,1.4837166378374758
undo,29,32,0,0,1,2,"[0, 19, 13, 15, 28, 12, 16, 22, 9, 2]",10,0,[],24.28184597,12709,2800,1,0,10,1.9009621017233784
undo,29,32,1,0,0,9,"[0, 19, 13, 15, 28, 12, 16, 22, 9]",9,3,"[2, 8, 20]",75.37000507,16819,4110,3,0,10,1.4837166378374758
undo,29,32,1,0,0,22,"[0, 19, 13, 15, 28, 12, 16, 22]",8,6,"[2, 8, 9, 17, 20, 27]",97.57360838,17285,466,3,5,10,1.4335226411545752
undo,29,32,1,0,0,16,"[0, 19, 13, 15, 28, 12, 16]",7,13,"[2, 3, 5, 8, 9, 10, 11, 17, 20, 22, 24, 26, 27]",131.411457,17702,417,5,15,10,1.4356932930709845
undo,29,32,0,0,0,27,"[0, 19, 13, 15, 28, 12, 16, 27]",8,2,"[3, 11]",55.13564171,19693,1991,2,0,10,1.3380566026775955
undo,29,32,0,0,0,3,"[0, 19, 13, 15, 28, 12, 16, 27, 3]",9,1,[11],29.64054414,20810,1117,1,0,10,1.3269345554887129
undo,29,32,0,0,1,11,"[0, 19, 13, 15, 28, 12, 16, 27, 3, 11]",10,0,[],14.02004479,22211,1401,1,0,10,1.356452519014518
undo,29,32,0,1,1,11,"[0, 19, 13, 15, 28, 12, 16, 27, 3, 11]",10,0,[],14.02004479,28336,6125,1,0,10,1.356452519014518
undo,30,14,0,0,0,0,[0],1,29,"[1, 2, 3, 4, 5, 6, 7, 8, 9, 10, 11, 12, 13, 14, 15, 16, 17, 18, 19, 20, 21, 22, 23, 24, 25, 26, 27, 28, 29]",300,131,-1,8,157,10,0.0
undo,30,14,0,0,0,15,"[0, 15]",2,20,"[1, 2, 3, 4, 7, 8, 9, 13, 17, 18, 19, 20, 21, 22, 23, 25, 26, 27, 28, 29]",216.7053423,6172,6041,8,102,10,1.0
undo,30,14,0,0,0,28,"[0, 15, 28]",3,17,"[1, 2, 3, 4, 7, 8, 9, 13, 17, 18, 19, 20, 22, 23, 25, 26, 27]",197.4959696,6839,667,8,48,10,1.0446007867311968
undo,30,14,0,0,0,17,"[0, 15, 28, 17]",4,14,"[1, 2, 3, 4, 7, 8, 13, 18, 19, 20, 22, 23, 25, 26]",184.0423455,7805,966,8,39,10,1.0729463354689972
undo,30,14,0,0,0,18,"[0, 15, 28, 17, 18]",5,9,"[1, 2, 4, 7, 8, 19, 23, 25, 26]",119.412631,8872,1067,8,27,10,1.5035901079219378
undo,30,14,0,0,0,8,"[0, 15, 28, 17, 18, 8]",6,8,"[1, 2, 4, 7, 19, 23, 25, 26]",105.8111605,9639,767,8,18,10,1.4819689987843856
undo,30,14,0,0,0,19,"[0, 15, 28, 17, 18, 8, 19]",7,5,"[1, 7, 23, 25, 26]",85.19563238,10739,1100,4,9,10,1.4526746797093781
undo,30,14,0,0,0,1,"[0, 15, 28, 17, 18, 8, 19, 1]",8,4,"[7, 23, 25, 26]",69.96408617,14606,3867,3,1,10,1.4876985459270997
undo,30,14,0,0,0,23,"[0, 15, 28, 17, 18, 8, 19, 1, 23]",9,1,[26],21.96408617,15656,1050,1,0,10,1.4791446279021185
undo,30,14,0,0,1,26,"[0, 15, 28, 17, 18, 8, 19, 1, 23, 26]",10,0,[],11.14743235,16605,949,1,0,10,1.4559204757247275
undo,30,14,1,0,0,23,"[0, 15, 28, 17, 18, 8, 19, 1, 23]",9,1,[26],21.96408617,25864,9259,1,0,10,1.4791446279021185
undo,30,14,1,0,0,1,"[0, 15, 28, 17, 18, 8, 19, 1]",8,4,"[7, 23, 25, 26]",69.96408617,27482,1618,3,1,10,1.4876985459270997
undo,30,14,1,0,0,19,"[0, 15, 28, 17, 18, 8, 19]",7,5,"[1, 7, 23, 25, 26]",85.19563238,28248,766,4,9,10,1.4526746797093781
undo,30,14,1,0,0,8,"[0, 15, 28, 17, 18, 8]",6,8,"[1, 2, 4, 7, 19, 23, 25, 26]",105.8111605,28748,500,8,18,10,1.4819689987843856
undo,30,14,1,0,0,18,"[0, 15, 28, 17, 18]",5,9,"[1, 2, 4, 7, 8, 19, 23, 25, 26]",119.412631,29248,500,8,27,10,1.5035901079219378
undo,30,14,1,0,0,17,"[0, 15, 28, 17]",4,14,"[1, 2, 3, 4, 7, 8, 13, 18, 19, 20, 22, 23, 25, 26]",184.0423455,29648,400,8,39,10,1.0729463354689972
undo,30,14,1,0,0,28,"[0, 15, 28]",3,17,"[1, 2, 3, 4, 7, 8, 9, 13, 17, 18, 19, 20, 22, 23, 25, 26, 27]",197.4959696,31615,1967,8,48,10,1.0446007867311968
undo,30,14,1,0,0,15,"[0, 15]",2,20,"[1, 2, 3, 4, 7, 8, 9, 13, 17, 18, 19, 20, 21, 22, 23, 25, 26, 27, 28, 29]",216.7053423,32248,633,8,102,10,1.0
undo,30,14,0,0,0,18,"[0, 15, 18]",3,13,"[1, 2, 4, 7, 8, 13, 17, 19, 20, 23, 25, 26, 28]",153.6418822,34139,1891,26,101,9,1.2185936334127205
undo,30,14,0,0,0,8,"[0, 15, 18, 8]",4,10,"[1, 2, 4, 7, 17, 19, 23, 25, 26, 28]",140.0404117,34705,566,26,60,9,1.2207454945880838
undo,30,14,0,0,0,1,"[0, 15, 18, 8, 1]",5,9,"[2, 4, 7, 17, 19, 23, 25, 26, 28]",116.4395643,36006,1301,13,25,9,1.1871302560279655
undo,30,14,0,0,0,19,"[0, 15, 18, 8, 1, 19]",6,7,"[2, 4, 7, 17, 23, 25, 26]",101.208018,36639,633,11,8,9,1.3443864386012363
undo,30,14,0,0,0,25,"[0, 15, 18, 8, 1, 19, 25]",7,4,"[4, 7, 23, 26]",65.36112139,38023,1384,5,1,9,1.4334990422586273
undo,30,14,0,0,0,7,"[0, 15, 18, 8, 1, 19, 25, 7]",8,3,"[4, 23, 26]",45.66340578,38772,749,3,0,9,1.456327102054342
undo,30,14,0,0,1,23,"[0, 15, 18, 8, 1, 19, 25, 7, 23]",9,0,[],8.555455152,40072,1300,1,0,9,1.5504782346458974
undo,30,14,1,0,0,7,"[0, 15, 18, 8, 1, 19, 25, 7]",8,3,"[4, 23, 26]",45.66340578,42198,2126,3,0,9,1.456327102054342
undo,30,14,1,0,0,25,"[0, 15, 18, 8, 1, 19, 25]",7,4,"[4, 7, 23, 26]",65.36112139,44230,2032,5,1,9,1.4334990422586273
undo,30,14,1,0,0,19,"[0, 15, 18, 8, 1, 19]",6,7,"[2, 4, 7, 17, 23, 25, 26]",101.208018,46130,1900,11,8,9,1.3443864386012363
undo,30,14,0,0,0,23,"[0, 15, 18, 8, 1, 19, 23]",7,4,"[4, 7, 25, 26]",56.9361308,47156,1026,4,1,9,1.293094159713875
undo,30,14,0,0,0,26,"[0, 15, 18, 8, 1, 19, 23, 26]",8,2,"[7, 25]",46.11947697,48022,866,2,0,9,1.2796488356473856
undo,30,14,0,0,1,7,"[0, 15, 18, 8, 1, 19, 23, 26, 7]",9,0,[],1.01958784,50206,2184,1,0,9,1.7119568599528978
undo,30,14,1,0,0,26,"[0, 15, 18, 8, 1, 19, 23, 26]",8,2,"[7, 25]",46.11947697,53097,2891,2,0,9,1.2796488356473856
undo,30,14,1,0,0,23,"[0, 15, 18, 8, 1, 19, 23]",7,4,"[4, 7, 25, 26]",56.9361308,53381,284,4,1,9,1.293094159713875
undo,30,14,1,0,0,19,"[0, 15, 18, 8, 1, 19]",6,7,"[2, 4, 7, 17, 23, 25, 26]",101.208018,53664,283,11,8,9,1.3443864386012363
undo,30,14,1,0,0,1,"[0, 15, 18, 8, 1]",5,9,"[2, 4, 7, 17, 19, 23, 25, 26, 28]",116.4395643,53931,267,13,25,9,1.1871302560279655
undo,30,14,1,0,0,8,"[0, 15, 18, 8]",4,10,"[1, 2, 4, 7, 17, 19, 23, 25, 26, 28]",140.0404117,54164,233,26,60,9,1.2207454945880838
undo,30,14,1,0,0,18,"[0, 15, 18]",3,13,"[1, 2, 4, 7, 8, 13, 17, 19, 20, 23, 25, 26, 28]",153.6418822,54397,233,26,101,9,1.2185936334127205
undo,30,14,1,0,0,15,"[0, 15]",2,20,"[1, 2, 3, 4, 7, 8, 9, 13, 17, 18, 19, 20, 21, 22, 23, 25, 26, 27, 28, 29]",216.7053423,54631,234,8,102,10,1.0
undo,30,14,0,0,0,28,"[0, 15, 28]",3,17,"[1, 2, 3, 4, 7, 8, 9, 13, 17, 18, 19, 20, 22, 23, 25, 26, 27]",197.4959696,56156,1525,8,48,10,1.0446007867311968
undo,30,14,0,0,0,17,"[0, 15, 28, 17]",4,14,"[1, 2, 3, 4, 7, 8, 13, 18, 19, 20, 22, 23, 25, 26]",184.0423455,56856,700,8,39,10,1.0729463354689972
undo,30,14,0,0,0,18,"[0, 15, 28, 17, 18]",5,9,"[1, 2, 4, 7, 8, 19, 23, 25, 26]",119.412631,58039,1183,8,27,10,1.5035901079219378
undo,30,14,0,0,0,8,"[0, 15, 28, 17, 18, 8]",6,8,"[1, 2, 4, 7, 19, 23, 25, 26]",105.8111605,58723,684,8,18,10,1.4819689987843856
undo,30,14,0,0,0,19,"[0, 15, 28, 17, 18, 8, 19]",7,5,"[1, 7, 23, 25, 26]",85.19563238,63555,4832,4,9,10,1.4526746797093781
undo,30,14,0,0,0,1,"[0, 15, 28, 17, 18, 8, 19, 1]",8,4,"[7, 23, 25, 26]",69.96408617,64607,1052,3,1,10,1.4876985459270997
undo,30,14,0,0,0,26,"[0, 15, 28, 17, 18, 8, 19, 1, 26]",9,1,[23],15.2192234,65872,1265,1,0,10,1.4353971893617312
undo,30,14,0,0,1,23,"[0, 15, 28, 17, 18, 8, 19, 1, 26, 23]",10,0,[],4.402569573,66556,684,1,0,10,1.5725714898295635
undo,30,14,0,1,1,23,"[0, 15, 28, 17, 18, 8, 19, 1, 26, 23]",10,0,[],4.402569573,67681,1125,1,0,10,1.5725714898295635
undo,31,42,0,0,0,0,[0],1,29,"[1, 2, 3, 4, 5, 6, 7, 8, 9, 10, 11, 12, 13, 14, 15, 16, 17, 18, 19, 20, 21, 22, 23, 24, 25, 26, 27, 28, 29]",300,128,-1,16,302,9,0.0
undo,31,42,0,0,0,5,"[0, 5]",2,28,"[1, 2, 3, 4, 6, 7, 8, 9, 10, 11, 12, 13, 14, 15, 16, 17, 18, 19, 20, 21, 22, 23, 24, 25, 26, 27, 28, 29]",191.2939744,3003,2875,1,22,9,1.0
undo,31,42,0,0,0,4,"[0, 5, 4]",3,23,"[1, 2, 3, 6, 7, 8, 9, 10, 11, 13, 15, 17, 18, 19, 20, 21, 22, 23, 24, 25, 26, 27, 29]",171.4445412,3752,749,1,14,9,1.420957801478707
undo,31,42,0,0,0,22,"[0, 5, 4, 22]",4,20,"[1, 2, 3, 6, 7, 8, 9, 11, 15, 17, 18, 19, 20, 21, 23, 24, 25, 26, 27, 29]",160.2642013,4320,568,1,11,9,1.5771494659680896
undo,31,42,0,0,0,8,"[0, 5, 4, 22, 8]",5,14,"[1, 2, 3, 6, 7, 11, 15, 18, 19, 24, 25, 26, 27, 29]",138.1282577,5837,1517,1,10,9,1.5055393955524201
undo,31,42,0,0,0,1,"[0, 5, 4, 22, 8, 1]",6,5,"[2, 7, 19, 26, 27]",89.03650682,6869,1032,1,7,9,1.3547259083637835
undo,31,42,0,0,0,7,"[0, 5, 4, 22, 8, 1, 7]",7,4,"[2, 19, 26, 27]",59.03650682,8319,1450,1,3,9,1.3909715672447451
undo,31,42,0,0,0,26,"[0, 5, 4, 22, 8, 1, 7, 26]",8,1,[27],32.46584631,9152,833,1,0,9,1.3511825943939393
undo,31,42,1,0,0,7,"[0, 5, 4, 22, 8, 1, 7]",7,4,"[2, 19, 26, 27]",59.03650682,12795,3643,1,3,9,1.3909715672447451
undo,31,42,1,0,0,1,"[0, 5, 4, 22, 8, 1]",6,5,"[2, 7, 19, 26, 27]",89.03650682,13194,399,1,7,9,1.3547259083637835
undo,31,42,1,0,0,8,"[0, 5, 4, 22, 8]",5,14,"[1, 2, 3, 6, 7, 11, 15, 18, 19, 24, 25, 26, 27, 29]",138.1282577,13644,450,1,10,9,1.5055393955524201
undo,31,42,1,0,0,22,"[0, 5, 4, 22]",4,20,"[1, 2, 3, 6, 7, 8, 9, 11, 15, 17, 18, 19, 20, 21, 23, 24, 25, 26, 27, 29]",160.2642013,14195,551,1,11,9,1.5771494659680896
undo,31,42,1,0,0,4,"[0, 5, 4]",3,23,"[1, 2, 3, 6, 7, 8, 9, 10, 11, 13, 15, 17, 18, 19, 20, 21, 22, 23, 24, 25, 26, 27, 29]",171.4445412,20912,6717,1,14,9,1.420957801478707
undo,31,42,1,0,0,5,"[0, 5]",2,28,"[1, 2, 3, 4, 6, 7, 8, 9, 10, 11, 12, 13, 14, 15, 16, 17, 18, 19, 20, 21, 22, 23, 24, 25, 26, 27, 28, 29]",191.2939744,21244,332,1,22,9,1.0
undo,31,42,1,0,0,0,[0],1,29,"[1, 2, 3, 4, 5, 6, 7, 8, 9, 10, 11, 12, 13, 14, 15, 16, 17, 18, 19, 20, 21, 22, 23, 24, 25, 26, 27, 28, 29]",300,21611,367,16,302,9,0.0
undo,31,42,0,0,0,23,"[0, 23]",2,17,"[1, 2, 3, 4, 5, 6, 7, 8, 9, 11, 15, 17, 22, 24, 25, 26, 29]",219,23602,1991,44,102,7,1.0
undo,31,42,0,0,0,17,"[0, 23, 17]",3,15,"[1, 2, 3, 4, 5, 6, 7, 8, 9, 11, 15, 22, 24, 25, 29]",207.8196601,24636,1034,27,42,7,1.0114451629284253
undo,31,42,0,0,0,11,"[0, 23, 17, 11]",4,13,"[1, 2, 3, 4, 5, 6, 7, 8, 15, 22, 24, 25, 29]",156.6239572,25469,833,13,14,7,1.5620381439275295
undo,31,42,0,0,0,24,"[0, 23, 17, 11, 24]",5,4,"[2, 3, 6, 15]",98.61533712,26604,1135,2,3,7,1.536884550045445
undo,31,42,0,0,0,15,"[0, 23, 17, 11, 24, 15]",6,2,"[2, 6]",85.01386661,27352,748,2,0,7,1.4864857512288958
undo,31,42,0,0,1,6,"[0, 23, 17, 11, 24, 15, 6]",7,0,[],35.61751047,28152,800,1,0,7,1.3735499030929144
undo,31,42,1,0,0,15,"[0, 23, 17, 11, 24, 15]",6,2,"[2, 6]",85.01386661,29611,1459,2,0,7,1.4864857512288958
undo,31,42,1,0,0,24,"[0, 23, 17, 11, 24]",5,4,"[2, 3, 6, 15]",98.61533712,29843,232,2,3,7,1.536884550045445
undo,31,42,1,0,0,11,"[0, 23, 17, 11]",4,13,"[1, 2, 3, 4, 5, 6, 7, 8, 15, 22, 24, 25, 29]",156.6239572,30078,235,13,14,7,1.5620381439275295
undo,31,42,1,0,0,17,"[0, 23, 17]",3,15,"[1, 2, 3, 4, 5, 6, 7, 8, 9, 11, 15, 22, 24, 25, 29]",207.8196601,30311,233,27,42,7,1.0114451629284253
undo,31,42,1,0,0,23,"[0, 23]",2,17,"[1, 2, 3, 4, 5, 6, 7, 8, 9, 11, 15, 17, 22, 24, 25, 26, 29]",219,30545,234,44,102,7,1.0
undo,31,42,1,0,0,0,[0],1,29,"[1, 2, 3, 4, 5, 6, 7, 8, 9, 10, 11, 12, 13, 14, 15, 16, 17, 18, 19, 20, 21, 22, 23, 24, 25, 26, 27, 28, 29]",300,31378,833,16,302,9,0.0
undo,31,42,0,0,0,25,"[0, 25]",2,27,"[1, 2, 3, 4, 5, 6, 7, 8, 9, 10, 11, 12, 13, 15, 16, 17, 18, 19, 20, 21, 22, 23, 24, 26, 27, 28, 29]",270.2678625,36602,5224,3,59,9,1.0
undo,31,42,0,0,0,5,"[0, 25, 5]",3,18,"[1, 2, 3, 4, 7, 8, 10, 11, 15, 18, 19, 20, 21, 22, 24, 26, 27, 29]",150.6977994,38136,1534,3,19,8,1.373449169785871
undo,31,42,0,0,0,4,"[0, 25, 5, 4]",4,11,"[1, 3, 7, 8, 11, 15, 18, 22, 24, 26, 29]",130.8483661,38952,816,2,9,8,1.869678161212981
undo,31,42,0,0,0,22,"[0, 25, 5, 4, 22]",5,9,"[1, 3, 7, 8, 11, 15, 24, 26, 29]",119.6680262,39452,500,2,5,8,2.0353444058114616
undo,31,42,0,0,0,8,"[0, 25, 5, 4, 22, 8]",6,4,"[1, 3, 7, 26]",97.53208261,40269,817,2,3,8,1.8831169766565115
undo,31,42,0,0,0,1,"[0, 25, 5, 4, 22, 8, 1]",7,2,"[7, 26]",48.44033178,41352,1083,2,0,8,1.6154188333725406
undo,31,42,0,0,1,7,"[0, 25, 5, 4, 22, 8, 1, 7]",8,0,[],18.44033178,42352,1000,1,0,8,1.625314639194441
undo,31,42,1,0,0,1,"[0, 25, 5, 4, 22, 8, 1]",7,2,"[7, 26]",48.44033178,44194,1842,2,0,8,1.6154188333725406
undo,31,42,1,0,0,8,"[0, 25, 5, 4, 22, 8]",6,4,"[1, 3, 7, 26]",97.53208261,44477,283,2,3,8,1.8831169766565115
undo,31,42,1,0,0,22,"[0, 25, 5, 4, 22]",5,9,"[1, 3, 7, 8, 11, 15, 24, 26, 29]",119.6680262,44760,283,2,5,8,2.0353444058114616
undo,31,42,1,0,0,4,"[0, 25, 5, 4]",4,11,"[1, 3, 7, 8, 11, 15, 18, 22, 24, 26, 29]",130.8483661,45227,467,2,9,8,1.869678161212981
undo,31,42,1,0,0,5,"[0, 25, 5]",3,18,"[1, 2, 3, 4, 7, 8, 10, 11, 15, 18, 19, 20, 21, 22, 24, 26, 27, 29]",150.6977994,45611,384,3,19,8,1.373449169785871
undo,31,42,1,0,0,25,"[0, 25]",2,27,"[1, 2, 3, 4, 5, 6, 7, 8, 9, 10, 11, 12, 13, 15, 16, 17, 18, 19, 20, 21, 22, 23, 24, 26, 27, 28, 29]",270.2678625,46678,1067,3,59,9,1.0
undo,31,42,1,0,0,0,[0],1,29,"[1, 2, 3, 4, 5, 6, 7, 8, 9, 10, 11, 12, 13, 14, 15, 16, 17, 18, 19, 20, 21, 22, 23, 24, 25, 26, 27, 28, 29]",300,49327,2649,16,302,9,0.0
undo,31,42,0,0,0,5,"[0, 5]",2,28,"[1, 2, 3, 4, 6, 7, 8, 9, 10, 11, 12, 13, 14, 15, 16, 17, 18, 19, 20, 21, 22, 23, 24, 25, 26, 27, 28, 29]",191.2939744,59119,9792,1,22,9,1.0
undo,31,42,0,0,0,4,"[0, 5, 4]",3,23,"[1, 2, 3, 6, 7, 8, 9, 10, 11, 13, 15, 17, 18, 19, 20, 21, 22, 23, 24, 25, 26, 27, 29]",171.4445412,59885,766,1,14,9,1.420957801478707
undo,31,42,0,0,0,22,"[0, 5, 4, 22]",4,20,"[1, 2, 3, 6, 7, 8, 9, 11, 15, 17, 18, 19, 20, 21, 23, 24, 25, 26, 27, 29]",160.2642013,60418,533,1,11,9,1.5771494659680896
undo,31,42,0,0,0,8,"[0, 5, 4, 22, 8]",5,14,"[1, 2, 3, 6, 7, 11, 15, 18, 19, 24, 25, 26, 27, 29]",138.1282577,61535,1117,1,10,9,1.5055393955524201
undo,31,42,0,0,0,1,"[0, 5, 4, 22, 8, 1]",6,5,"[2, 7, 19, 26, 27]",89.03650682,64118,2583,1,7,9,1.3547259083637835
undo,31,42,0,0,0,7,"[0, 5, 4, 22, 8, 1, 7]",7,4,"[2, 19, 26, 27]",59.03650682,65102,984,1,3,9,1.3909715672447451
undo,31,42,0,0,0,26,"[0, 5, 4, 22, 8, 1, 7, 26]",8,1,[27],32.46584631,65852,750,1,0,9,1.3511825943939393
undo,31,42,0,0,1,27,"[0, 5, 4, 22, 8, 1, 7, 26, 27]",9,0,[],14.43808994,66852,1000,1,0,9,1.3391911688802078
undo,31,42,0,1,1,27,"[0, 5, 4, 22, 8, 1, 7, 26, 27]",9,0,[],14.43808994,68211,1359,1,0,9,1.3391911688802078
undo,32,40,0,0,0,0,[0],1,29,"[1, 2, 3, 4, 5, 6, 7, 8, 9, 10, 11, 12, 13, 14, 15, 16, 17, 18, 19, 20, 21, 22, 23, 24, 25, 26, 27, 28, 29]",300,128,-1,8,191,9,0.0
undo,32,40,0,0,0,1,"[0, 1]",2,18,"[2, 5, 6, 7, 8, 9, 10, 11, 13, 15, 17, 18, 19, 21, 22, 23, 27, 29]",247.8463808,4286,4158,4,80,9,1.0
undo,32,40,0,0,0,6,"[0, 1, 6]",3,17,"[2, 5, 7, 8, 9, 10, 11, 13, 15, 17, 18, 19, 21, 22, 23, 27, 29]",227.7466295,4887,601,4,74,9,1.0459427008232034
undo,32,40,0,0,0,21,"[0, 1, 6, 21]",4,8,"[2, 5, 9, 17, 18, 19, 22, 23]",175.7754837,7103,2216,4,25,9,1.0308822257404064
undo,32,40,0,0,0,9,"[0, 1, 6, 21, 9]",5,6,"[2, 5, 18, 19, 22, 23]",130.0699041,8020,917,4,12,9,1.377861912961129
undo,32,40,0,0,0,18,"[0, 1, 6, 21, 9, 18]",6,5,"[2, 5, 19, 22, 23]",113.5169588,8820,800,4,4,9,1.5742712168661408
undo,32,40,0,0,0,23,"[0, 1, 6, 21, 9, 18, 23]",7,3,"[2, 5, 19]",79.51695879,9770,950,2,1,9,2.324611956726637
undo,32,40,0,0,0,19,"[0, 1, 6, 21, 9, 18, 23, 19]",8,1,[5],47.56386817,10653,883,1,0,9,2.460596854255639
undo,32,40,0,0,1,5,"[0, 1, 6, 21, 9, 18, 23, 19, 5]",9,0,[],9.485002643,11736,1083,1,0,9,2.3622228457215413
undo,32,40,1,0,0,19,"[0, 1, 6, 21, 9, 18, 23, 19]",8,1,[5],47.56386817,17178,5442,1,0,9,2.460596854255639
undo,32,40,1,0,0,23,"[0, 1, 6, 21, 9, 18, 23]",7,3,"[2, 5, 19]",79.51695879,17845,667,2,1,9,2.324611956726637
undo,32,40,1,0,0,18,"[0, 1, 6, 21, 9, 18]",6,5,"[2, 5, 19, 22, 23]",113.5169588,18062,217,4,4,9,1.5742712168661408
undo,32,40,1,0,0,9,"[0, 1, 6, 21, 9]",5,6,"[2, 5, 18, 19, 22, 23]",130.0699041,18279,217,4,12,9,1.377861912961129
undo,32,40,1,0,0,21,"[0, 1, 6, 21]",4,8,"[2, 5, 9, 17, 18, 19, 22, 23]",175.7754837,18478,199,4,25,9,1.0308822257404064
undo,32,40,1,0,0,6,"[0, 1, 6]",3,17,"[2, 5, 7, 8, 9, 10, 11, 13, 15, 17, 18, 19, 21, 22, 23, 27, 29]",227.7466295,18728,250,4,74,9,1.0459427008232034
undo,32,40,1,0,0,1,"[0, 1]",2,18,"[2, 5, 6, 7, 8, 9, 10, 11, 13, 15, 17, 18, 19, 21, 22, 23, 27, 29]",247.8463808,19011,283,4,80,9,1.0
undo,32,40,1,0,0,0,[0],1,29,"[1, 2, 3, 4, 5, 6, 7, 8, 9, 10, 11, 12, 13, 14, 15, 16, 17, 18, 19, 20, 21, 22, 23, 24, 25, 26, 27, 28, 29]",300,19461,450,8,191,9,0.0
undo,32,40,0,0,0,2,"[0, 2]",2,28,"[1, 3, 4, 5, 6, 7, 8, 9, 10, 11, 12, 13, 14, 15, 16, 17, 18, 19, 20, 21, 22, 23, 24, 25, 26, 27, 28, 29]",263.7646581,20753,1292,4,79,9,1.0
undo,32,40,0,0,0,27,"[0, 2, 27]",3,12,"[5, 7, 8, 11, 14, 19, 20, 22, 24, 25, 26, 29]",113.1625333,26453,5700,3,15,6,1.0020147525259364
undo,32,40,0,0,0,25,"[0, 2, 27, 25]",4,1,[26],12.02401444,28020,1567,1,0,5,1.0053799352375377
undo,32,40,0,0,1,26,"[0, 2, 27, 25, 26]",5,0,[],1.39386863,29019,999,1,0,5,1.03537984230813
undo,32,40,1,0,0,25,"[0, 2, 27, 25]",4,1,[26],12.02401444,30245,1226,1,0,5,1.0053799352375377
undo,32,40,1,0,0,27,"[0, 2, 27]",3,12,"[5, 7, 8, 11, 14, 19, 20, 22, 24, 25, 26, 29]",113.1625333,30461,216,3,15,6,1.0020147525259364
undo,32,40,1,0,0,2,"[0, 2]",2,28,"[1, 3, 4, 5, 6, 7, 8, 9, 10, 11, 12, 13, 14, 15, 16, 17, 18, 19, 20, 21, 22, 23, 24, 25, 26, 27, 28, 29]",263.7646581,30744,283,4,79,9,1.0
undo,32,40,1,0,0,0,[0],1,29,"[1, 2, 3, 4, 5, 6, 7, 8, 9, 10, 11, 12, 13, 14, 15, 16, 17, 18, 19, 20, 21, 22, 23, 24, 25, 26, 27, 28, 29]",300,30994,250,8,191,9,0.0
undo,32,40,0,0,0,1,"[0, 1]",2,18,"[2, 5, 6, 7, 8, 9, 10, 11, 13, 15, 17, 18, 19, 21, 22, 23, 27, 29]",247.8463808,33370,2376,4,80,9,1.0
undo,32,40,0,0,0,6,"[0, 1, 6]",3,17,"[2, 5, 7, 8, 9, 10, 11, 13, 15, 17, 18, 19, 21, 22, 23, 27, 29]",227.7466295,33853,483,4,74,9,1.0459427008232034
undo,32,40,0,0,0,21,"[0, 1, 6, 21]",4,8,"[2, 5, 9, 17, 18, 19, 22, 23]",175.7754837,36286,2433,4,25,9,1.0308822257404064
undo,32,40,0,0,0,9,"[0, 1, 6, 21, 9]",5,6,"[2, 5, 18, 19, 22, 23]",130.0699041,37286,1000,4,12,9,1.377861912961129
undo,32,40,0,0,0,18,"[0, 1, 6, 21, 9, 18]",6,5,"[2, 5, 19, 22, 23]",113.5169588,37853,567,4,4,9,1.5742712168661408
undo,32,40,0,0,0,23,"[0, 1, 6, 21, 9, 18, 23]",7,3,"[2, 5, 19]",79.51695879,38852,999,2,1,9,2.324611956726637
undo,32,40,0,0,0,5,"[0, 1, 6, 21, 9, 18, 23, 5]",8,1,[19],51.21501539,39886,1034,1,0,9,2.022909590433451
undo,32,40,0,0,1,19,"[0, 1, 6, 21, 9, 18, 23, 5, 19]",9,0,[],13.13614986,41136,1250,1,0,9,2.796177718843732
undo,32,40,0,1,1,19,"[0, 1, 6, 21, 9, 18, 23, 5, 19]",9,0,[],13.13614986,42312,1176,1,0,9,2.796177718843732
undo,33,37,0,0,0,0,[0],1,29,"[1, 2, 3, 4, 5, 6, 7, 8, 9, 10, 11, 12, 13, 14, 15, 16, 17, 18, 19, 20, 21, 22, 23, 24, 25, 26, 27, 28, 29]",300,129,-1,6,168,10,0.0
undo,33,37,0,0,0,18,"[0, 18]",2,19,"[1, 2, 4, 6, 7, 9, 10, 12, 14, 15, 17, 19, 20, 21, 22, 23, 26, 28, 29]",202.4090168,3086,2957,6,89,10,1.0
undo,33,37,0,0,0,7,"[0, 18, 7]",3,12,"[1, 2, 4, 9, 15, 17, 19, 20, 21, 22, 26, 29]",175.2428614,3937,851,6,53,10,1.0413073512834488
undo,33,37,0,0,0,22,"[0, 18, 7, 22]",4,8,"[1, 2, 4, 15, 19, 20, 21, 26]",125.2428614,5120,1183,6,29,10,1.0730792320325544
undo,33,37,0,0,0,2,"[0, 18, 7, 22, 2]",5,7,"[1, 4, 15, 19, 20, 21, 26]",97.58422802,6087,967,2,13,10,1.338975835424605
undo,33,37,0,0,0,4,"[0, 18, 7, 22, 2, 4]",6,5,"[1, 15, 19, 20, 21]",86.18247377,6637,550,2,6,10,1.3155324116512812
undo,33,37,0,0,0,1,"[0, 18, 7, 22, 2, 4, 1]",7,4,"[15, 19, 20, 21]",68.46242863,7520,883,2,4,10,1.4624721991921241
undo,33,37,0,0,0,20,"[0, 18, 7, 22, 2, 4, 1, 20]",8,2,"[15, 21]",34.22794309,8387,867,2,0,10,1.7730355582319604
undo,33,37,0,0,0,21,"[0, 18, 7, 22, 2, 4, 1, 20, 21]",9,1,[15],19.80573799,9438,1051,1,0,10,1.8054518555969565
undo,33,37,0,0,1,15,"[0, 18, 7, 22, 2, 4, 1, 20, 21, 15]",10,0,[],4.805737987,10420,982,1,0,10,1.7740347323632142
undo,33,37,0,1,1,15,"[0, 18, 7, 22, 2, 4, 1, 20, 21, 15]",10,0,[],4.805737987,19112,8692,1,0,10,1.7740347323632142
undo,34,43,0,0,0,0,[0],1,23,"[1, 2, 3, 4, 5, 6, 7, 9, 10, 11, 12, 14, 15, 16, 17, 19, 20, 21, 22, 23, 25, 27, 29]",300,131,-1,16,556,12,0.0
undo,34,43,0,0,0,29,"[0, 29]",2,22,"[1, 2, 3, 4, 5, 6, 7, 9, 10, 11, 12, 14, 15, 16, 17, 19, 20, 21, 22, 23, 25, 27]",277.909278,3273,3142,16,520,12,1.0
undo,34,43,0,0,0,20,"[0, 29, 20]",3,20,"[1, 2, 3, 4, 6, 7, 9, 10, 11, 12, 14, 15, 16, 17, 19, 21, 22, 23, 25, 27]",254.4785289,3839,566,15,422,12,1.082311746871282
undo,34,43,0,0,0,16,"[0, 29, 20, 16]",4,19,"[1, 2, 3, 4, 6, 7, 9, 10, 11, 12, 14, 15, 17, 19, 21, 22, 23, 25, 27]",231.8511119,4606,767,15,389,12,1.215201926898219
undo,34,43,0,0,0,15,"[0, 29, 20, 16, 15]",5,14,"[1, 2, 3, 4, 6, 7, 9, 11, 12, 14, 19, 22, 23, 25]",188.5267539,5972,1366,3,109,12,1.3482474915350444
undo,34,43,0,0,0,25,"[0, 29, 20, 16, 15, 25]",6,12,"[1, 3, 4, 6, 7, 9, 11, 12, 14, 19, 22, 23]",165.8551858,6539,567,2,43,12,1.691408721191545
undo,34,43,0,0,0,12,"[0, 29, 20, 16, 15, 25, 12]",7,11,"[1, 3, 4, 6, 7, 9, 11, 14, 19, 22, 23]",141.6684126,7189,650,2,32,12,1.6015983641428178
undo,34,43,0,0,0,3,"[0, 29, 20, 16, 15, 25, 12, 3]",8,10,"[1, 4, 6, 7, 9, 11, 14, 19, 22, 23]",128.6684126,7756,567,2,24,12,1.5379830456120627
undo,34,43,0,0,0,22,"[0, 29, 20, 16, 15, 25, 12, 3, 22]",9,6,"[1, 6, 7, 11, 14, 19]",93.95530264,8857,1101,1,11,12,1.7275686117408873
undo,34,43,0,0,0,19,"[0, 29, 20, 16, 15, 25, 12, 3, 22, 19]",10,4,"[1, 6, 7, 11]",73.33977451,9657,800,1,3,12,1.6315360037595275
undo,34,43,0,0,0,1,"[0, 29, 20, 16, 15, 25, 12, 3, 22, 19, 1]",11,1,[7],45.1617689,10557,900,1,0,12,1.7703076545303877
undo,34,43,0,0,1,7,"[0, 29, 20, 16, 15, 25, 12, 3, 22, 19, 1, 7]",12,0,[],6.951822553,11756,1199,1,0,12,1.6607094905815594
undo,34,43,0,1,1,7,"[0, 29, 20, 16, 15, 25, 12, 3, 22, 19, 1, 7]",12,0,[],6.951822553,16614,4858,1,0,12,1.6607094905815594
undo,35,16,0,0,0,0,[0],1,29,"[1, 2, 3, 4, 5, 6, 7, 8, 9, 10, 11, 12, 13, 14, 15, 16, 17, 18, 19, 20, 21, 22, 23, 24, 25, 26, 27, 28, 29]",300,164,-1,13,161,9,0.0
undo,35,16,0,0,0,17,"[0, 17]",2,27,"[1, 2, 3, 4, 5, 7, 8, 9, 10, 11, 12, 13, 14, 15, 16, 18, 19, 20, 21, 22, 23, 24, 25, 26, 27, 28, 29]",241.3058776,4307,4143,2,58,9,1.0
undo,35,16,0,0,0,16,"[0, 17, 16]",3,26,"[1, 2, 3, 4, 5, 7, 8, 9, 10, 11, 12, 13, 14, 15, 18, 19, 20, 21, 22, 23, 24, 25, 26, 27, 28, 29]",212.9862731,4889,582,2,52,9,1.0529535521792848
undo,35,16,0,0,0,8,"[0, 17, 16, 8]",4,19,"[2, 3, 4, 5, 9, 12, 13, 14, 15, 19, 20, 21, 22, 23, 25, 26, 27, 28, 29]",164.6127266,5972,1083,2,38,9,1.0915134501573105
undo,35,16,0,0,0,20,"[0, 17, 16, 8, 20]",5,10,"[3, 4, 5, 9, 12, 13, 15, 19, 21, 25]",106.8372993,6889,917,1,15,9,1.067523143001942
undo,35,16,0,0,0,25,"[0, 17, 16, 8, 20, 25]",6,7,"[3, 4, 5, 9, 12, 13, 15]",94.18818869,7423,534,1,9,9,1.1170093326933646
undo,35,16,0,0,0,9,"[0, 17, 16, 8, 20, 25, 9]",7,5,"[3, 4, 5, 13, 15]",81.38194021,8007,584,1,4,9,1.1095076562662525
undo,35,16,0,0,0,15,"[0, 17, 16, 8, 20, 25, 9, 15]",8,1,[5],42.48463953,9040,1033,1,0,9,1.213831159678775
undo,35,16,0,0,1,5,"[0, 17, 16, 8, 20, 25, 9, 15, 5]",9,0,[],13.0567616,10023,983,1,0,9,1.5171779607523481
undo,35,16,1,0,0,15,"[0, 17, 16, 8, 20, 25, 9, 15]",8,1,[5],42.48463953,10931,908,1,0,9,1.213831159678775
undo,35,16,1,0,0,9,"[0, 17, 16, 8, 20, 25, 9]",7,5,"[3, 4, 5, 13, 15]",81.38194021,11648,717,1,4,9,1.1095076562662525
undo,35,16,1,0,0,25,"[0, 17, 16, 8, 20, 25]",6,7,"[3, 4, 5, 9, 12, 13, 15]",94.18818869,12031,383,1,9,9,1.1170093326933646
undo,35,16,1,0,0,20,"[0, 17, 16, 8, 20]",5,10,"[3, 4, 5, 9, 12, 13, 15, 19, 21, 25]",106.8372993,12481,450,1,15,9,1.067523143001942
undo,35,16,1,0,0,8,"[0, 17, 16, 8]",4,19,"[2, 3, 4, 5, 9, 12, 13, 14, 15, 19, 20, 21, 22, 23, 25, 26, 27, 28, 29]",164.6127266,12881,400,2,38,9,1.0915134501573105
undo,35,16,1,0,0,16,"[0, 17, 16]",3,26,"[1, 2, 3, 4, 5, 7, 8, 9, 10, 11, 12, 13, 14, 15, 18, 19, 20, 21, 22, 23, 24, 25, 26, 27, 28, 29]",212.9862731,15481,2600,2,52,9,1.0529535521792848
undo,35,16,0,0,0,21,"[0, 17, 16, 21]",4,19,"[3, 5, 7, 8, 9, 10, 12, 14, 15, 19, 20, 22, 23, 24, 25, 26, 27, 28, 29]",168.332046,16972,1491,9,18,8,1.5524765786046826
undo,35,16,0,0,0,5,"[0, 17, 16, 21, 5]",5,5,"[3, 9, 15, 20, 25]",63.98167465,18556,1584,2,4,7,1.2479185902806667
undo,35,16,0,0,1,15,"[0, 17, 16, 21, 5, 15]",6,0,[],34.55379671,19423,867,1,0,6,1.2512141884808652
undo,35,16,1,0,0,5,"[0, 17, 16, 21, 5]",5,5,"[3, 9, 15, 20, 25]",63.98167465,21730,2307,2,4,7,1.2479185902806667
undo,35,16,1,0,0,21,"[0, 17, 16, 21]",4,19,"[3, 5, 7, 8, 9, 10, 12, 14, 15, 19, 20, 22, 23, 24, 25, 26, 27, 28, 29]",168.332046,22064,334,9,18,8,1.5524765786046826
undo,35,16,1,0,0,16,"[0, 17, 16]",3,26,"[1, 2, 3, 4, 5, 7, 8, 9, 10, 11, 12, 13, 14, 15, 18, 19, 20, 21, 22, 23, 24, 25, 26, 27, 28, 29]",212.9862731,22681,617,2,52,9,1.0529535521792848
undo,35,16,1,0,0,17,"[0, 17]",2,27,"[1, 2, 3, 4, 5, 7, 8, 9, 10, 11, 12, 13, 14, 15, 16, 18, 19, 20, 21, 22, 23, 24, 25, 26, 27, 28, 29]",241.3058776,24532,1851,2,58,9,1.0
undo,35,16,0,0,0,16,"[0, 17, 16]",3,26,"[1, 2, 3, 4, 5, 7, 8, 9, 10, 11, 12, 13, 14, 15, 18, 19, 20, 21, 22, 23, 24, 25, 26, 27, 28, 29]",212.9862731,26706,2174,2,52,9,1.0529535521792848
undo,35,16,0,0,0,8,"[0, 17, 16, 8]",4,19,"[2, 3, 4, 5, 9, 12, 13, 14, 15, 19, 20, 21, 22, 23, 25, 26, 27, 28, 29]",164.6127266,27739,1033,2,38,9,1.0915134501573105
undo,35,16,0,0,0,20,"[0, 17, 16, 8, 20]",5,10,"[3, 4, 5, 9, 12, 13, 15, 19, 21, 25]",106.8372993,28839,1100,1,15,9,1.067523143001942
undo,35,16,0,0,0,25,"[0, 17, 16, 8, 20, 25]",6,7,"[3, 4, 5, 9, 12, 13, 15]",94.18818869,29472,633,1,9,9,1.1170093326933646
undo,35,16,0,0,0,9,"[0, 17, 16, 8, 20, 25, 9]",7,5,"[3, 4, 5, 13, 15]",81.38194021,30872,1400,1,4,9,1.1095076562662525
undo,35,16,0,0,1,5,"[0, 17, 16, 8, 20, 25, 9, 5]",8,0,[],29.37232572,32456,1584,1,0,8,1.4309113721471163
undo,35,16,1,0,0,9,"[0, 17, 16, 8, 20, 25, 9]",7,5,"[3, 4, 5, 13, 15]",81.38194021,37081,4625,1,4,9,1.1095076562662525
undo,35,16,0,0,1,4,"[0, 17, 16, 8, 20, 25, 9, 4]",8,0,[],4.129108548,39522,2441,1,0,8,1.1941058123270312
undo,35,16,1,0,0,9,"[0, 17, 16, 8, 20, 25, 9]",7,5,"[3, 4, 5, 13, 15]",81.38194021,42780,3258,1,4,9,1.1095076562662525
undo,35,16,0,0,0,15,"[0, 17, 16, 8, 20, 25, 9, 15]",8,1,[5],42.48463953,44390,1610,1,0,9,1.213831159678775
undo,35,16,0,0,1,5,"[0, 17, 16, 8, 20, 25, 9, 15, 5]",9,0,[],13.0567616,45656,1266,1,0,9,1.5171779607523481
undo,35,16,0,1,1,5,"[0, 17, 16, 8, 20, 25, 9, 15, 5]",9,0,[],13.0567616,46849,1193,1,0,9,1.5171779607523481
undo,36,7,0,0,0,0,[0],1,29,"[1, 2, 3, 4, 5, 6, 7, 8, 9, 10, 11, 12, 13, 14, 15, 16, 17, 18, 19, 20, 21, 22, 23, 24, 25, 26, 27, 28, 29]",300,130,-1,3,79,9,0.0
undo,36,7,0,0,0,6,"[0, 6]",2,22,"[2, 4, 5, 7, 8, 9, 10, 11, 13, 14, 15, 16, 18, 19, 20, 21, 22, 23, 24, 25, 27, 28]",231.1160396,4338,4208,1,24,9,1.0
undo,36,7,0,0,0,4,"[0, 6, 4]",3,11,"[2, 7, 13, 15, 16, 18, 19, 20, 21, 23, 25]",148.6236157,5621,1283,4,34,8,1.0779650303607222
undo,36,7,0,0,0,20,"[0, 6, 4, 20]",4,8,"[2, 7, 13, 15, 16, 18, 19, 25]",128.976733,6421,800,1,13,8,1.1408144410934864
undo,36,7,0,0,0,18,"[0, 6, 4, 20, 18]",5,6,"[2, 7, 13, 16, 19, 25]",116.1704845,7038,617,1,7,8,1.2839836636955984
undo,36,7,0,0,0,7,"[0, 6, 4, 20, 18, 7]",6,3,"[2, 19, 25]",74.93942827,7872,834,1,2,8,1.2302617297173306
undo,36,7,0,0,0,19,"[0, 6, 4, 20, 18, 7, 19]",7,1,[2],45.52854593,8704,832,1,0,8,1.3452052718153575
undo,36,7,0,0,1,2,"[0, 6, 4, 20, 18, 7, 19, 2]",8,0,[],15.37891907,9871,1167,1,0,8,1.3561074670528996
undo,36,7,1,0,0,19,"[0, 6, 4, 20, 18, 7, 19]",7,1,[2],45.52854593,11496,1625,1,0,8,1.3452052718153575
undo,36,7,1,0,0,7,"[0, 6, 4, 20, 18, 7]",6,3,"[2, 19, 25]",74.93942827,11846,350,1,2,8,1.2302617297173306
undo,36,7,1,0,0,18,"[0, 6, 4, 20, 18]",5,6,"[2, 7, 13, 16, 19, 25]",116.1704845,12113,267,1,7,8,1.2839836636955984
undo,36,7,1,0,0,20,"[0, 6, 4, 20]",4,8,"[2, 7, 13, 15, 16, 18, 19, 25]",128.976733,12446,333,1,13,8,1.1408144410934864
undo,36,7,1,0,0,4,"[0, 6, 4]",3,11,"[2, 7, 13, 15, 16, 18, 19, 20, 21, 23, 25]",148.6236157,12863,417,4,34,8,1.0779650303607222
undo,36,7,0,0,0,25,"[0, 6, 4, 25]",4,9,"[2, 7, 13, 15, 16, 18, 19, 20, 23]",123.884982,14337,1474,2,11,8,1.4873815316264414
undo,36,7,0,0,0,20,"[0, 6, 4, 25, 20]",5,4,"[7, 13, 18, 19]",92.10448479,15390,1053,1,3,8,1.3867715788059323
undo,36,7,0,0,0,18,"[0, 6, 4, 25, 20, 18]",6,2,"[7, 19]",79.29823632,15921,531,1,1,8,1.5415231789256745
undo,36,7,0,0,0,7,"[0, 6, 4, 25, 20, 18, 7]",7,1,[19],38.06718006,17321,1400,1,0,8,1.431818650650695
undo,36,7,0,0,1,19,"[0, 6, 4, 25, 20, 18, 7, 19]",8,0,[],8.65629772,18371,1050,1,0,8,1.540121997768172
undo,36,7,1,0,0,7,"[0, 6, 4, 25, 20, 18, 7]",7,1,[19],38.06718006,21380,3009,1,0,8,1.431818650650695
undo,36,7,1,0,0,18,"[0, 6, 4, 25, 20, 18]",6,2,"[7, 19]",79.29823632,21729,349,1,1,8,1.5415231789256745
undo,36,7,1,0,0,20,"[0, 6, 4, 25, 20]",5,4,"[7, 13, 18, 19]",92.10448479,22013,284,1,3,8,1.3867715788059323
undo,36,7,1,0,0,25,"[0, 6, 4, 25]",4,9,"[2, 7, 13, 15, 16, 18, 19, 20, 23]",123.884982,22312,299,2,11,8,1.4873815316264414
undo,36,7,1,0,0,4,"[0, 6, 4]",3,11,"[2, 7, 13, 15, 16, 18, 19, 20, 21, 23, 25]",148.6236157,22646,334,4,34,8,1.0779650303607222
undo,36,7,1,0,0,6,"[0, 6]",2,22,"[2, 4, 5, 7, 8, 9, 10, 11, 13, 14, 15, 16, 18, 19, 20, 21, 22, 23, 24, 25, 27, 28]",231.1160396,23046,400,1,24,9,1.0
undo,36,7,1,0,0,0,[0],1,29,"[1, 2, 3, 4, 5, 6, 7, 8, 9, 10, 11, 12, 13, 14, 15, 16, 17, 18, 19, 20, 21, 22, 23, 24, 25, 26, 27, 28, 29]",300,25029,1983,3,79,9,0.0
undo,36,7,0,0,0,23,"[0, 23]",2,28,"[1, 2, 3, 4, 5, 6, 7, 8, 9, 10, 11, 12, 13, 14, 15, 16, 17, 18, 19, 20, 21, 22, 24, 25, 26, 27, 28, 29]",253.7290588,26121,1092,6,103,8,1.0
undo,36,7,0,0,0,16,"[0, 23, 16]",3,20,"[1, 2, 3, 4, 5, 6, 7, 10, 11, 13, 14, 15, 18, 19, 20, 22, 24, 25, 27, 29]",164.6223812,29154,3033,12,52,7,1.0510824079114807
undo,36,7,0,0,0,18,"[0, 23, 16, 18]",4,5,"[4, 7, 19, 20, 25]",77.41573003,30520,1366,3,6,7,1.5546718145873082
undo,36,7,0,0,0,20,"[0, 23, 16, 18, 20]",5,4,"[4, 7, 19, 25]",64.60948156,31304,784,2,2,7,1.5701775988926383
undo,36,7,0,0,0,4,"[0, 23, 16, 18, 20, 4]",6,1,[25],44.96259885,32021,717,1,0,7,1.8161445799163498
undo,36,7,0,0,1,25,"[0, 23, 16, 18, 20, 4, 25]",7,0,[],20.2239651,32872,851,1,0,7,2.3628519136393846
undo,36,7,1,0,0,4,"[0, 23, 16, 18, 20, 4]",6,1,[25],44.96259885,34013,1141,1,0,7,1.8161445799163498
undo,36,7,1,0,0,20,"[0, 23, 16, 18, 20]",5,4,"[4, 7, 19, 25]",64.60948156,34529,516,2,2,7,1.5701775988926383
undo,36,7,0,0,1,7,"[0, 23, 16, 18, 20, 7]",6,0,[],24.1125681,35938,1409,1,0,6,1.5080995598987155
undo,36,7,1,0,0,20,"[0, 23, 16, 18, 20]",5,4,"[4, 7, 19, 25]",64.60948156,37696,1758,2,2,7,1.5701775988926383
undo,36,7,1,0,0,18,"[0, 23, 16, 18]",4,5,"[4, 7, 19, 20, 25]",77.41573003,38713,1017,3,6,7,1.5546718145873082
undo,36,7,1,0,0,16,"[0, 23, 16]",3,20,"[1, 2, 3, 4, 5, 6, 7, 10, 11, 13, 14, 15, 18, 19, 20, 22, 24, 25, 27, 29]",164.6223812,42146,3433,12,52,7,1.0510824079114807
undo,36,7,1,0,0,23,"[0, 23]",2,28,"[1, 2, 3, 4, 5, 6, 7, 8, 9, 10, 11, 12, 13, 14, 15, 16, 17, 18, 19, 20, 21, 22, 24, 25, 26, 27, 28, 29]",253.7290588,43129,983,6,103,8,1.0
undo,36,7,0,0,0,25,"[0, 23, 25]",3,12,"[2, 4, 6, 7, 13, 14, 15, 16, 18, 19, 20, 21]",143.833654,45971,2842,3,39,8,1.3189047790460706
undo,36,7,0,0,0,4,"[0, 23, 25, 4]",4,9,"[2, 6, 7, 13, 15, 16, 18, 19, 20]",119.0950202,46888,917,2,16,8,1.2882408504092724
undo,36,7,0,0,0,20,"[0, 23, 25, 4, 20]",5,6,"[2, 6, 7, 13, 18, 19]",99.44813752,47687,799,1,7,8,1.33778558273816
undo,36,7,0,0,0,18,"[0, 23, 25, 4, 20, 18]",6,3,"[7, 13, 19]",86.64188904,48187,500,1,2,8,1.4902303813643722
undo,36,7,0,0,0,7,"[0, 23, 25, 4, 20, 18, 7]",7,1,[19],45.41083279,48904,717,1,0,8,1.3916756134202917
undo,36,7,0,0,1,19,"[0, 23, 25, 4, 20, 18, 7, 19]",8,0,[],15.99995045,49837,933,1,0,8,1.501301453425073
undo,36,7,0,1,1,19,"[0, 23, 25, 4, 20, 18, 7, 19]",8,0,[],15.99995045,51596,1759,1,0,8,1.501301453425073
undo,37,3,0,0,0,0,[0],1,29,"[1, 2, 3, 4, 5, 6, 7, 8, 9, 10, 11, 12, 13, 14, 15, 16, 17, 18, 19, 20, 21, 22, 23, 24, 25, 26, 27, 28, 29]",300,114,-1,34,427,10,0.0
undo,37,3,0,0,0,24,"[0, 24]",2,27,"[1, 2, 3, 4, 5, 6, 7, 8, 9, 10, 11, 12, 13, 14, 15, 16, 17, 18, 19, 20, 21, 22, 25, 26, 27, 28, 29]",241.1442441,4406,4292,1,40,10,1.0
undo,37,3,0,0,0,17,"[0, 24, 17]",3,13,"[3, 4, 7, 8, 10, 14, 15, 16, 19, 20, 21, 22, 27]",171.7900806,5373,967,4,33,9,1.2532313834613698
undo,37,3,0,0,0,20,"[0, 24, 17, 20]",4,10,"[3, 4, 7, 8, 10, 14, 15, 16, 19, 21]",159.1409699,6040,667,4,21,9,1.2441552028909786
undo,37,3,0,0,0,3,"[0, 24, 17, 20, 3]",5,8,"[4, 7, 8, 10, 14, 16, 19, 21]",138.7448919,7806,1766,4,12,9,1.2890100688984463
undo,37,3,0,0,0,19,"[0, 24, 17, 20, 3, 19]",6,5,"[4, 8, 10, 14, 21]",101.4085825,9106,1300,2,5,9,1.3456482099334586
undo,37,3,0,0,0,21,"[0, 24, 17, 20, 3, 19, 21]",7,3,"[4, 10, 14]",89.20202687,9656,550,2,2,9,1.3708715753541716
undo,37,3,0,0,0,14,"[0, 24, 17, 20, 3, 19, 21, 14]",8,2,"[4, 10]",62.29477877,10590,934,2,0,9,1.8468983830159784
undo,37,3,0,0,1,10,"[0, 24, 17, 20, 3, 19, 21, 14, 10]",9,0,[],16.84150606,16240,5650,1,0,9,1.7983120465283395
undo,37,3,1,0,0,14,"[0, 24, 17, 20, 3, 19, 21, 14]",8,2,"[4, 10]",62.29477877,17048,808,2,0,9,1.8468983830159784
undo,37,3,1,0,0,21,"[0, 24, 17, 20, 3, 19, 21]",7,3,"[4, 10, 14]",89.20202687,17315,267,2,2,9,1.3708715753541716
undo,37,3,1,0,0,19,"[0, 24, 17, 20, 3, 19]",6,5,"[4, 8, 10, 14, 21]",101.4085825,17549,234,2,5,9,1.3456482099334586
undo,37,3,1,0,0,3,"[0, 24, 17, 20, 3]",5,8,"[4, 7, 8, 10, 14, 16, 19, 21]",138.7448919,17764,215,4,12,9,1.2890100688984463
undo,37,3,1,0,0,20,"[0, 24, 17, 20]",4,10,"[3, 4, 7, 8, 10, 14, 15, 16, 19, 21]",159.1409699,18031,267,4,21,9,1.2441552028909786
undo,37,3,1,0,0,17,"[0, 24, 17]",3,13,"[3, 4, 7, 8, 10, 14, 15, 16, 19, 20, 21, 22, 27]",171.7900806,18399,368,4,33,9,1.2532313834613698
undo,37,3,1,0,0,24,"[0, 24]",2,27,"[1, 2, 3, 4, 5, 6, 7, 8, 9, 10, 11, 12, 13, 14, 15, 16, 17, 18, 19, 20, 21, 22, 25, 26, 27, 28, 29]",241.1442441,18882,483,1,40,10,1.0
undo,37,3,1,0,0,0,[0],1,29,"[1, 2, 3, 4, 5, 6, 7, 8, 9, 10, 11, 12, 13, 14, 15, 16, 17, 18, 19, 20, 21, 22, 23, 24, 25, 26, 27, 28, 29]",300,19948,1066,34,427,10,0.0
undo,37,3,0,0,0,8,"[0, 8]",2,28,"[1, 2, 3, 4, 5, 6, 7, 9, 10, 11, 12, 13, 14, 15, 16, 17, 18, 19, 20, 21, 22, 23, 24, 25, 26, 27, 28, 29]",239.9666759,21073,1125,1,54,10,1.0
undo,37,3,0,0,0,24,"[0, 8, 24]",3,23,"[1, 2, 3, 4, 5, 6, 7, 10, 11, 12, 14, 15, 16, 17, 18, 19, 20, 21, 22, 25, 26, 27, 28]",227.8011509,21673,600,1,50,10,1.2267083825981846
undo,37,3,0,0,0,17,"[0, 8, 24, 17]",4,11,"[3, 4, 7, 10, 14, 15, 16, 19, 20, 21, 27]",158.4469873,22806,1133,1,18,10,1.3836579788002414
undo,37,3,0,0,0,20,"[0, 8, 24, 17, 20]",5,9,"[3, 4, 7, 10, 14, 15, 16, 19, 21]",145.7978767,23656,850,1,14,10,1.3620097615632467
undo,37,3,0,0,0,3,"[0, 8, 24, 17, 20, 3]",6,5,"[4, 10, 14, 19, 21]",125.4017986,24422,766,1,11,10,1.3956695218398405
undo,37,3,0,0,0,19,"[0, 8, 24, 17, 20, 3, 19]",7,4,"[4, 10, 14, 21]",88.06548922,25106,684,1,4,10,1.4360605238855817
undo,37,3,0,0,0,21,"[0, 8, 24, 17, 20, 3, 19, 21]",8,2,"[10, 14]",75.85893361,25806,700,1,1,10,1.4576450248605066
undo,37,3,0,0,0,14,"[0, 8, 24, 17, 20, 3, 19, 21, 14]",9,1,[10],48.95168551,28990,3184,1,0,10,1.9505702217699148
undo,37,3,0,0,1,10,"[0, 8, 24, 17, 20, 3, 19, 21, 14, 10]",10,0,[],3.498412803,30057,1067,1,0,10,1.8830527336542522
undo,37,3,0,1,1,10,"[0, 8, 24, 17, 20, 3, 19, 21, 14, 10]",10,0,[],3.498412803,33264,3207,1,0,10,1.8830527336542522
undo,38,30,0,0,0,0,[0],1,19,"[3, 4, 5, 7, 9, 11, 16, 17, 18, 19, 20, 21, 22, 24, 25, 26, 27, 28, 29]",300,129,-1,5,41,8,0.0
undo,38,30,0,0,0,16,"[0, 16]",2,17,"[3, 5, 7, 9, 11, 17, 18, 19, 20, 21, 22, 24, 25, 26, 27, 28, 29]",219.3774225,5738,5609,5,34,8,1.0
undo,38,30,0,0,0,25,"[0, 16, 25]",3,10,"[3, 5, 7, 9, 11, 18, 19, 20, 27, 29]",115.0845656,6454,716,5,28,8,1.0336279544884488
undo,38,30,0,0,0,27,"[0, 16, 25, 27]",4,7,"[3, 5, 7, 18, 19, 20, 29]",75.52448473,7354,900,1,12,8,1.0719738181137488
undo,38,30,0,0,0,3,"[0, 16, 25, 27, 3]",5,5,"[5, 7, 18, 20, 29]",56.41951155,7921,567,1,4,8,1.0683252001879187
undo,38,30,0,0,0,29,"[0, 16, 25, 27, 3, 29]",6,2,"[5, 18]",37.81843632,8454,533,1,1,8,1.0768958290478794
undo,38,30,0,0,0,18,"[0, 16, 25, 27, 3, 29, 18]",7,1,[5],18.5052284,9004,550,1,0,8,1.1525061930327378
undo,38,30,0,0,1,5,"[0, 16, 25, 27, 3, 29, 18, 5]",8,0,[],5.466823591,9637,633,1,0,8,1.2180155123152177
undo,38,30,1,0,0,18,"[0, 16, 25, 27, 3, 29, 18]",7,1,[5],18.5052284,10780,1143,1,0,8,1.1525061930327378
undo,38,30,1,0,0,29,"[0, 16, 25, 27, 3, 29]",6,2,"[5, 18]",37.81843632,11163,383,1,1,8,1.0768958290478794
undo,38,30,1,0,0,3,"[0, 16, 25, 27, 3]",5,5,"[5, 7, 18, 20, 29]",56.41951155,11579,416,1,4,8,1.0683252001879187
undo,38,30,1,0,0,27,"[0, 16, 25, 27]",4,7,"[3, 5, 7, 18, 19, 20, 29]",75.52448473,11862,283,1,12,8,1.0719738181137488
undo,38,30,1,0,0,25,"[0, 16, 25]",3,10,"[3, 5, 7, 9, 11, 18, 19, 20, 27, 29]",115.0845656,12179,317,5,28,8,1.0336279544884488
undo,38,30,1,0,0,16,"[0, 16]",2,17,"[3, 5, 7, 9, 11, 17, 18, 19, 20, 21, 22, 24, 25, 26, 27, 28, 29]",219.3774225,12630,451,5,34,8,1.0
undo,38,30,0,0,0,27,"[0, 16, 27]",3,8,"[3, 5, 7, 18, 19, 20, 25, 29]",79.57041268,15021,2391,2,16,7,1.05265265149494
undo,38,30,0,0,0,3,"[0, 16, 27, 3]",4,6,"[5, 7, 18, 20, 25, 29]",60.4654395,15988,967,2,6,7,1.0505800728395231
undo,38,30,0,0,0,29,"[0, 16, 27, 3, 29]",5,3,"[5, 7, 18]",41.86436427,16938,950,1,2,7,1.0602774106021753
undo,38,30,0,0,0,18,"[0, 16, 27, 3, 29, 18]",6,1,[5],22.55115635,18837,1899,1,0,7,1.1359412067900618
undo,38,30,0,0,1,5,"[0, 16, 27, 3, 29, 18, 5]",7,0,[],9.51275154,19971,1134,1,0,7,1.2012839404642133
undo,38,30,1,0,0,18,"[0, 16, 27, 3, 29, 18]",6,1,[5],22.55115635,21363,1392,1,0,7,1.1359412067900618
undo,38,30,1,0,0,29,"[0, 16, 27, 3, 29]",5,3,"[5, 7, 18]",41.86436427,21695,332,1,2,7,1.0602774106021753
undo,38,30,1,0,0,3,"[0, 16, 27, 3]",4,6,"[5, 7, 18, 20, 25, 29]",60.4654395,22029,334,2,6,7,1.0505800728395231
undo,38,30,1,0,0,27,"[0, 16, 27]",3,8,"[3, 5, 7, 18, 19, 20, 25, 29]",79.57041268,22346,317,2,16,7,1.05265265149494
undo,38,30,1,0,0,16,"[0, 16]",2,17,"[3, 5, 7, 9, 11, 17, 18, 19, 20, 21, 22, 24, 25, 26, 27, 28, 29]",219.3774225,22830,484,5,34,8,1.0
undo,38,30,0,0,0,25,"[0, 16, 25]",3,10,"[3, 5, 7, 9, 11, 18, 19, 20, 27, 29]",115.0845656,24471,1641,5,28,8,1.0336279544884488
undo,38,30,1,0,0,16,"[0, 16]",2,17,"[3, 5, 7, 9, 11, 17, 18, 19, 20, 21, 22, 24, 25, 26, 27, 28, 29]",219.3774225,25445,974,5,34,8,1.0
undo,38,30,1,0,0,0,[0],1,19,"[3, 4, 5, 7, 9, 11, 16, 17, 18, 19, 20, 21, 22, 24, 25, 26, 27, 28, 29]",300,25863,418,5,41,8,0.0
undo,38,30,0,0,0,25,"[0, 25]",2,12,"[3, 5, 7, 9, 11, 16, 18, 19, 20, 24, 27, 29]",121.1005869,26922,1059,7,37,7,1.0
undo,38,30,0,0,0,20,"[0, 25, 20]",3,9,"[3, 5, 7, 9, 11, 18, 19, 27, 29]",99.16887472,27604,682,5,16,7,1.0037291321296267
undo,38,30,0,0,0,27,"[0, 25, 20, 27]",4,4,"[3, 5, 18, 29]",65.11010199,28371,767,4,6,7,1.1217072851053165
undo,38,30,0,0,0,3,"[0, 25, 20, 27, 3]",5,3,"[5, 18, 29]",46.00512882,28904,533,4,0,7,1.1140018780928678
undo,38,30,0,0,0,29,"[0, 25, 20, 27, 3, 29]",6,1,[18],27.40405358,29554,650,1,0,7,1.119672312555708
undo,38,30,0,0,1,18,"[0, 25, 20, 27, 3, 29, 18]",7,0,[],8.090845662,30404,850,1,0,7,1.1951451398733344
undo,38,30,1,0,0,29,"[0, 25, 20, 27, 3, 29]",6,1,[18],27.40405358,31929,1525,1,0,7,1.119672312555708
undo,38,30,1,0,0,3,"[0, 25, 20, 27, 3]",5,3,"[5, 18, 29]",46.00512882,32279,350,4,0,7,1.1140018780928678
undo,38,30,1,0,0,27,"[0, 25, 20, 27]",4,4,"[3, 5, 18, 29]",65.11010199,32563,284,4,6,7,1.1217072851053165
undo,38,30,1,0,0,20,"[0, 25, 20]",3,9,"[3, 5, 7, 9, 11, 18, 19, 27, 29]",99.16887472,32980,417,5,16,7,1.0037291321296267
undo,38,30,1,0,0,25,"[0, 25]",2,12,"[3, 5, 7, 9, 11, 16, 18, 19, 20, 24, 27, 29]",121.1005869,33796,816,7,37,7,1.0
undo,38,30,1,0,0,0,[0],1,19,"[3, 4, 5, 7, 9, 11, 16, 17, 18, 19, 20, 21, 22, 24, 25, 26, 27, 28, 29]",300,34246,450,5,41,8,0.0
undo,38,30,0,0,0,16,"[0, 16]",2,17,"[3, 5, 7, 9, 11, 17, 18, 19, 20, 21, 22, 24, 25, 26, 27, 28, 29]",219.3774225,35737,1491,5,34,8,1.0
undo,38,30,0,0,0,25,"[0, 16, 25]",3,10,"[3, 5, 7, 9, 11, 18, 19, 20, 27, 29]",115.0845656,36788,1051,5,28,8,1.0336279544884488
undo,38,30,0,0,0,27,"[0, 16, 25, 27]",4,7,"[3, 5, 7, 18, 19, 20, 29]",75.52448473,37837,1049,1,12,8,1.0719738181137488
undo,38,30,0,0,0,3,"[0, 16, 25, 27, 3]",5,5,"[5, 7, 18, 20, 29]",56.41951155,38522,685,1,4,8,1.0683252001879187
undo,38,30,0,0,0,18,"[0, 16, 25, 27, 3, 18]",6,2,"[5, 29]",38.17122396,39287,765,2,0,7,1.071988954484303
undo,38,30,1,0,0,3,"[0, 16, 25, 27, 3]",5,5,"[5, 7, 18, 20, 29]",56.41951155,40896,1609,1,4,8,1.0683252001879187
undo,38,30,0,0,0,29,"[0, 16, 25, 27, 3, 29]",6,2,"[5, 18]",37.81843632,41904,1008,1,1,8,1.0768958290478794
undo,38,30,0,0,0,18,"[0, 16, 25, 27, 3, 29, 18]",7,1,[5],18.5052284,42770,866,1,0,8,1.1525061930327378
undo,38,30,0,0,1,5,"[0, 16, 25, 27, 3, 29, 18, 5]",8,0,[],5.466823591,43471,701,1,0,8,1.2180155123152177
undo,38,30,0,1,1,5,"[0, 16, 25, 27, 3, 29, 18, 5]",8,0,[],5.466823591,44513,1042,1,0,8,1.2180155123152177
undo,39,45,0,0,0,0,[0],1,24,"[1, 2, 3, 4, 5, 6, 7, 9, 10, 11, 12, 14, 15, 16, 17, 19, 20, 21, 22, 23, 24, 25, 27, 29]",300,128,-1,6,248,10,0.0
undo,39,45,0,0,0,17,"[0, 17]",2,22,"[1, 2, 3, 4, 5, 6, 7, 9, 10, 11, 12, 14, 15, 16, 19, 20, 21, 22, 23, 24, 25, 29]",235.867325,7803,7675,1,34,10,1.0
undo,39,45,0,0,0,24,"[0, 17, 24]",3,20,"[1, 2, 3, 4, 5, 6, 7, 9, 10, 11, 12, 14, 15, 16, 19, 20, 21, 22, 23, 29]",193.8078433,8936,1133,1,33,10,1.0309432256229287
undo,39,45,0,0,0,7,"[0, 17, 24, 7]",4,18,"[1, 2, 3, 4, 5, 6, 9, 10, 12, 14, 15, 16, 19, 20, 21, 22, 23, 29]",159.3985423,9836,900,1,32,10,1.059763151913087
undo,39,45,0,0,0,2,"[0, 17, 24, 7, 2]",5,12,"[3, 4, 6, 10, 12, 14, 16, 19, 20, 22, 23, 29]",121.3853866,10569,733,1,23,10,1.0656581932115423
undo,39,45,0,0,0,3,"[0, 17, 24, 7, 2, 3]",6,8,"[6, 10, 12, 14, 16, 20, 22, 29]",96.06740884,11837,1268,1,13,10,1.1368250049574795
undo,39,45,0,0,0,29,"[0, 17, 24, 7, 2, 3, 29]",7,5,"[6, 10, 12, 20, 22]",76.06740884,12353,516,1,5,10,1.390376182346372
undo,39,45,0,0,0,10,"[0, 17, 24, 7, 2, 3, 29, 10]",8,2,"[6, 12]",54.52674961,13286,933,1,1,10,1.6682270697663164
undo,39,45,0,0,0,6,"[0, 17, 24, 7, 2, 3, 29, 10, 6]",9,1,[12],28.27794012,14119,833,1,0,10,1.5776211572942243
undo,39,45,0,0,1,12,"[0, 17, 24, 7, 2, 3, 29, 10, 6, 12]",10,0,[],8.15332832,15103,984,1,0,10,1.536035114105263
undo,39,45,0,1,1,12,"[0, 17, 24, 7, 2, 3, 29, 10, 6, 12]",10,0,[],8.15332832,18912,3809,1,0,10,1.536035114105263
undo,40,39,0,0,0,0,[0],1,28,"[1, 2, 3, 4, 5, 6, 7, 9, 10, 11, 12, 13, 14, 15, 16, 17, 18, 19, 20, 21, 22, 23, 24, 25, 26, 27, 28, 29]",300,131,-1,1,30,10,0.0
undo,40,39,0,0,0,29,"[0, 29]",2,26,"[1, 2, 3, 4, 5, 6, 7, 9, 10, 12, 13, 14, 15, 16, 17, 18, 19, 20, 21, 22, 23, 24, 25, 26, 27, 28]",243.0614366,6974,6843,8,104,9,1.0
undo,40,39,0,0,0,12,"[0, 29, 12]",3,18,"[1, 2, 4, 5, 7, 9, 10, 13, 14, 15, 16, 18, 19, 22, 23, 24, 26, 28]",182.5221931,7722,748,5,54,9,1.0026200331524904
undo,40,39,0,0,0,1,"[0, 29, 12, 1]",4,11,"[2, 7, 9, 10, 13, 15, 16, 18, 22, 24, 26]",126.3795178,8421,699,9,9,7,1.0185340949098056
undo,40,39,0,0,0,24,"[0, 29, 12, 1, 24]",5,2,"[2, 9]",77.6147764,9223,802,2,0,7,1.0470202297924844
undo,40,39,0,0,0,9,"[0, 29, 12, 1, 24, 9]",6,1,[2],59.01370116,10055,832,1,0,7,1.063721341619913
undo,40,39,0,0,1,2,"[0, 29, 12, 1, 24, 9, 2]",7,0,[],44.87156553,10856,801,1,0,7,1.160814490805589
undo,40,39,1,0,0,9,"[0, 29, 12, 1, 24, 9]",6,1,[2],59.01370116,11630,774,1,0,7,1.063721341619913
undo,40,39,1,0,0,24,"[0, 29, 12, 1, 24]",5,2,"[2, 9]",77.6147764,11964,334,2,0,7,1.0470202297924844
undo,40,39,1,0,0,1,"[0, 29, 12, 1]",4,11,"[2, 7, 9, 10, 13, 15, 16, 18, 22, 24, 26]",126.3795178,12281,317,9,9,7,1.0185340949098056
undo,40,39,1,0,0,12,"[0, 29, 12]",3,18,"[1, 2, 4, 5, 7, 9, 10, 13, 14, 15, 16, 18, 19, 22, 23, 24, 26, 28]",182.5221931,12630,349,5,54,9,1.0026200331524904
undo,40,39,1,0,0,29,"[0, 29]",2,26,"[1, 2, 3, 4, 5, 6, 7, 9, 10, 12, 13, 14, 15, 16, 17, 18, 19, 20, 21, 22, 23, 24, 25, 26, 27, 28]",243.0614366,13597,967,8,104,9,1.0
undo,40,39,0,0,0,12,"[0, 29, 12]",3,18,"[1, 2, 4, 5, 7, 9, 10, 13, 14, 15, 16, 18, 19, 22, 23, 24, 26, 28]",182.5221931,15308,1711,5,54,9,1.0026200331524904
undo,40,39,0,0,0,10,"[0, 29, 12, 10]",4,16,"[1, 2, 4, 5, 7, 9, 13, 14, 15, 16, 18, 19, 22, 23, 24, 26]",147.0116313,15972,664,5,34,9,1.2874817019928908
undo,40,39,0,0,0,7,"[0, 29, 12, 10, 7]",5,10,"[1, 2, 5, 13, 16, 18, 19, 22, 24, 26]",113.5900814,16672,700,4,12,9,1.2250826263866774
undo,40,39,0,0,0,26,"[0, 29, 12, 10, 7, 26]",6,5,"[1, 16, 18, 19, 22]",94.90853971,17138,466,3,4,9,1.2697275353190085
undo,40,39,0,0,0,22,"[0, 29, 12, 10, 7, 26, 22]",7,2,"[16, 19]",77.18849457,17688,550,2,0,9,1.438961743955176
undo,40,39,0,0,0,16,"[0, 29, 12, 10, 7, 26, 22, 16]",8,1,[19],42.18849457,18655,967,1,0,9,1.3580882130477205
undo,40,39,0,0,1,19,"[0, 29, 12, 10, 7, 26, 22, 16, 19]",9,0,[],24.72424537,20040,1385,1,0,9,1.3646589157842668
undo,40,39,1,0,0,16,"[0, 29, 12, 10, 7, 26, 22, 16]",8,1,[19],42.18849457,32497,12457,1,0,9,1.3580882130477205
undo,40,39,1,0,0,22,"[0, 29, 12, 10, 7, 26, 22]",7,2,"[16, 19]",77.18849457,33296,799,2,0,9,1.438961743955176
undo,40,39,1,0,0,26,"[0, 29, 12, 10, 7, 26]",6,5,"[1, 16, 18, 19, 22]",94.90853971,36464,3168,3,4,9,1.2697275353190085
undo,40,39,1,0,0,7,"[0, 29, 12, 10, 7]",5,10,"[1, 2, 5, 13, 16, 18, 19, 22, 24, 26]",113.5900814,43797,7333,4,12,9,1.2250826263866774
undo,40,39,1,0,0,10,"[0, 29, 12, 10]",4,16,"[1, 2, 4, 5, 7, 9, 13, 14, 15, 16, 18, 19, 22, 23, 24, 26]",147.0116313,46231,2434,5,34,9,1.2874817019928908
undo,40,39,1,0,0,12,"[0, 29, 12]",3,18,"[1, 2, 4, 5, 7, 9, 10, 13, 14, 15, 16, 18, 19, 22, 23, 24, 26, 28]",182.5221931,48113,1882,5,54,9,1.0026200331524904
undo,40,39,0,0,0,7,"[0, 29, 12, 7]",4,13,"[1, 2, 5, 9, 10, 13, 15, 16, 18, 19, 22, 24, 26]",131.0440424,51488,3375,16,28,8,1.110375509172526
undo,40,39,0,0,0,26,"[0, 29, 12, 7, 26]",5,8,"[1, 5, 10, 13, 16, 18, 19, 22]",112.3625008,52355,867,7,9,8,1.161669525663108
undo,40,39,0,0,0,22,"[0, 29, 12, 7, 26, 22]",6,5,"[5, 10, 16, 18, 19]",94.6424556,52938,583,4,3,8,1.3262405352627238
undo,40,39,0,0,0,16,"[0, 29, 12, 7, 26, 22, 16]",7,2,"[18, 19]",59.6424556,53806,868,2,0,8,1.2661449977660686
undo,40,39,0,0,1,19,"[0, 29, 12, 7, 26, 22, 16, 19]",8,0,[],42.17820641,55304,1498,1,0,8,1.278132212475426
undo,40,39,1,0,0,16,"[0, 29, 12, 7, 26, 22, 16]",7,2,"[18, 19]",59.6424556,60164,4860,2,0,8,1.2661449977660686
undo,40,39,1,0,0,22,"[0, 29, 12, 7, 26, 22]",6,5,"[5, 10, 16, 18, 19]",94.6424556,60680,516,4,3,8,1.3262405352627238
undo,40,39,1,0,0,26,"[0, 29, 12, 7, 26]",5,8,"[1, 5, 10, 13, 16, 18, 19, 22]",112.3625008,61046,366,7,9,8,1.161669525663108
undo,40,39,1,0,0,7,"[0, 29, 12, 7]",4,13,"[1, 2, 5, 9, 10, 13, 15, 16, 18, 19, 22, 24, 26]",131.0440424,61663,617,16,28,8,1.110375509172526
undo,40,39,0,0,0,10,"[0, 29, 12, 7, 10]",5,6,"[1, 5, 16, 19, 22, 26]",97.62249251,64606,2943,4,3,8,1.7031186096195314
undo,40,39,0,0,0,22,"[0, 29, 12, 7, 10, 22]",6,3,"[16, 19, 26]",53.44104844,65438,832,2,1,8,1.592327551666762
undo,40,39,0,0,0,26,"[0, 29, 12, 7, 10, 22, 26]",7,1,[16],35.72100329,66439,1001,1,0,8,1.6361593927640015
undo,40,39,0,0,1,16,"[0, 29, 12, 7, 10, 22, 26, 16]",8,0,[],2.479463016,67756,1317,1,0,8,1.5672657189743122
undo,40,39,1,0,0,26,"[0, 29, 12, 7, 10, 22, 26]",7,1,[16],35.72100329,70163,2407,1,0,8,1.6361593927640015
undo,40,39,1,0,0,22,"[0, 29, 12, 7, 10, 22]",6,3,"[16, 19, 26]",53.44104844,70530,367,2,1,8,1.592327551666762
undo,40,39,1,0,0,10,"[0, 29, 12, 7, 10]",5,6,"[1, 5, 16, 19, 22, 26]",97.62249251,70881,351,4,3,8,1.7031186096195314
undo,40,39,1,0,0,7,"[0, 29, 12, 7]",4,13,"[1, 2, 5, 9, 10, 13, 15, 16, 18, 19, 22, 24, 26]",131.0440424,71280,399,16,28,8,1.110375509172526
undo,40,39,1,0,0,12,"[0, 29, 12]",3,18,"[1, 2, 4, 5, 7, 9, 10, 13, 14, 15, 16, 18, 19, 22, 23, 24, 26, 28]",182.5221931,72497,1217,5,54,9,1.0026200331524904
undo,40,39,0,0,0,10,"[0, 29, 12, 10]",4,16,"[1, 2, 4, 5, 7, 9, 13, 14, 15, 16, 18, 19, 22, 23, 24, 26]",147.0116313,73955,1458,5,34,9,1.2874817019928908
