condition,trial_id,map_id,undoIndicator,submit,checkEnd,currentChoice,chosen_all,n_city_all,n_within_reach,cities_reach,currentBudget,time_all,rt_all,n_opt_paths_all,n_subopt_paths_all,mas_all,tortuosity_all
undo,0,11,0,0,0,0,[0],1,25,"[1, 2, 3, 4, 5, 6, 8, 9, 10, 11, 12, 13, 14, 15, 16, 17, 18, 19, 20, 22, 23, 25, 26, 27, 28]",300,329,-1,6,374,12,0.0
undo,0,11,0,0,0,17,"[0, 17]",2,18,"[1, 2, 4, 5, 6, 8, 10, 11, 12, 15, 18, 19, 22, 23, 25, 26, 27, 28]",152.9217895,6870,6541,218,762,9,1.0
undo,0,11,0,0,0,8,"[0, 17, 8]",3,15,"[1, 2, 4, 5, 6, 11, 12, 15, 18, 19, 22, 23, 25, 27, 28]",138.6039684,8239,1369,95,263,9,1.1114912532636003
undo,0,11,0,0,0,15,"[0, 17, 8, 15]",4,11,"[2, 5, 6, 11, 12, 18, 19, 22, 25, 27, 28]",125.1503444,9220,981,62,51,9,1.1146194627724886
undo,0,11,0,0,0,11,"[0, 17, 8, 15, 11]",5,9,"[2, 5, 6, 12, 19, 22, 25, 27, 28]",107.0395741,10485,1265,24,2,9,1.1130192047684102
undo,0,11,0,0,0,28,"[0, 17, 8, 15, 11, 28]",6,4,"[2, 5, 19, 22]",87.62308629,12152,1667,6,2,9,1.2290091933070886
undo,0,11,0,0,0,5,"[0, 17, 8, 15, 11, 28, 5]",7,2,"[2, 22]",69.73454247,13436,1284,2,0,9,1.4153375425476789
undo,0,11,0,0,0,2,"[0, 17, 8, 15, 11, 28, 5, 2]",8,1,[22],52.73454247,15232,1796,1,0,9,1.3853330540064914
undo,0,11,0,0,1,22,"[0, 17, 8, 15, 11, 28, 5, 2, 22]",9,0,[],42.68466685,17652,2420,1,0,9,1.3648232332892756
undo,0,11,0,1,1,22,"[0, 17, 8, 15, 11, 28, 5, 2, 22]",9,0,[],42.68466685,20322,2670,1,0,9,1.3648232332892756
undo,1,42,0,0,0,0,[0],1,29,"[1, 2, 3, 4, 5, 6, 7, 8, 9, 10, 11, 12, 13, 14, 15, 16, 17, 18, 19, 20, 21, 22, 23, 24, 25, 26, 27, 28, 29]",300,333,-1,16,302,9,0.0
undo,1,42,0,0,0,5,"[0, 5]",2,28,"[1, 2, 3, 4, 6, 7, 8, 9, 10, 11, 12, 13, 14, 15, 16, 17, 18, 19, 20, 21, 22, 23, 24, 25, 26, 27, 28, 29]",191.2939744,4831,4498,1,22,9,1.0
undo,1,42,0,0,0,4,"[0, 5, 4]",3,23,"[1, 2, 3, 6, 7, 8, 9, 10, 11, 13, 15, 17, 18, 19, 20, 21, 22, 23, 24, 25, 26, 27, 29]",171.4445412,6376,1545,1,14,9,1.420957801478707
undo,1,42,0,0,0,22,"[0, 5, 4, 22]",4,20,"[1, 2, 3, 6, 7, 8, 9, 11, 15, 17, 18, 19, 20, 21, 23, 24, 25, 26, 27, 29]",160.2642013,8257,1881,1,11,9,1.5771494659680896
undo,1,42,0,0,0,8,"[0, 5, 4, 22, 8]",5,14,"[1, 2, 3, 6, 7, 11, 15, 18, 19, 24, 25, 26, 27, 29]",138.1282577,9873,1616,1,10,9,1.5055393955524201
undo,1,42,0,0,0,1,"[0, 5, 4, 22, 8, 1]",6,5,"[2, 7, 19, 26, 27]",89.03650682,12605,2732,1,7,9,1.3547259083637835
undo,1,42,0,0,0,7,"[0, 5, 4, 22, 8, 1, 7]",7,4,"[2, 19, 26, 27]",59.03650682,13889,1284,1,3,9,1.3909715672447451
undo,1,42,0,0,0,26,"[0, 5, 4, 22, 8, 1, 7, 26]",8,1,[27],32.46584631,15092,1203,1,0,9,1.3511825943939393
undo,1,42,0,0,1,27,"[0, 5, 4, 22, 8, 1, 7, 26, 27]",9,0,[],14.43808994,16221,1129,1,0,9,1.3391911688802078
undo,1,42,0,1,1,27,"[0, 5, 4, 22, 8, 1, 7, 26, 27]",9,0,[],14.43808994,17259,1038,1,0,9,1.3391911688802078
undo,2,2,0,0,0,0,[0],1,23,"[1, 2, 4, 5, 6, 7, 8, 9, 12, 13, 15, 16, 17, 18, 19, 20, 22, 23, 25, 26, 27, 28, 29]",300,335,-1,70,620,10,0.0
undo,2,2,0,0,0,5,"[0, 5]",2,15,"[1, 4, 6, 7, 12, 13, 15, 16, 18, 19, 22, 25, 26, 28, 29]",158.4655519,7209,6874,2,112,9,1.0
undo,2,2,0,0,0,22,"[0, 5, 22]",3,12,"[1, 6, 7, 12, 13, 15, 18, 19, 25, 26, 28, 29]",145.6593034,9356,2147,1,52,9,1.000190025347108
undo,2,2,0,0,0,13,"[0, 5, 22, 13]",4,10,"[1, 6, 7, 12, 15, 18, 19, 25, 26, 29]",130.7932347,10591,1235,1,42,9,1.1438896754345678
undo,2,2,0,0,0,18,"[0, 5, 22, 13, 18]",5,5,"[7, 12, 15, 26, 29]",95.62222388,11958,1367,1,14,9,1.1366606276113354
undo,2,2,0,0,0,7,"[0, 5, 22, 13, 18, 7]",6,4,"[12, 15, 26, 29]",85.32659374,13823,1865,1,4,9,1.1298600329473683
undo,2,2,0,0,0,26,"[0, 5, 22, 13, 18, 7, 26]",7,2,"[15, 29]",62.52308524,15161,1338,1,1,9,1.1235289229319043
undo,2,2,0,0,0,15,"[0, 5, 22, 13, 18, 7, 26, 15]",8,1,[29],38.31564837,16911,1750,1,0,9,1.3892285740256285
undo,2,2,0,0,1,29,"[0, 5, 22, 13, 18, 7, 26, 15, 29]",9,0,[],9.855149426,18089,1178,1,0,9,1.5805197123934758
undo,2,2,0,1,1,29,"[0, 5, 22, 13, 18, 7, 26, 15, 29]",9,0,[],9.855149426,19227,1138,1,0,9,1.5805197123934758
undo,3,45,0,0,0,0,[0],1,24,"[1, 2, 3, 4, 5, 6, 7, 9, 10, 11, 12, 14, 15, 16, 17, 19, 20, 21, 22, 23, 24, 25, 27, 29]",300,329,-1,6,248,10,0.0
undo,3,45,0,0,0,2,"[0, 2]",2,16,"[3, 4, 6, 7, 10, 12, 14, 15, 16, 17, 19, 20, 22, 23, 24, 29]",132.3903344,9063,8734,3,48,7,1.0
undo,3,45,0,0,0,3,"[0, 2, 3]",3,11,"[4, 6, 7, 10, 12, 14, 16, 20, 22, 24, 29]",107.0723566,10079,1016,2,23,7,1.0754777738912922
undo,3,45,0,0,0,29,"[0, 2, 3, 29]",4,7,"[6, 7, 10, 12, 20, 22, 24]",87.07235661,11229,1150,2,10,7,1.3220475072387758
undo,3,45,0,0,0,10,"[0, 2, 3, 29, 10]",5,5,"[6, 7, 12, 20, 22]",65.53169738,12062,833,1,4,7,1.5934378544766232
undo,3,45,0,0,0,6,"[0, 2, 3, 29, 10, 6]",6,1,[12],39.28288788,13512,1450,1,0,7,1.513726314053447
undo,3,45,0,0,1,12,"[0, 2, 3, 29, 10, 6, 12]",7,0,[],19.15827608,14528,1016,1,0,7,1.4781143364210525
undo,3,45,0,1,1,12,"[0, 2, 3, 29, 10, 6, 12]",7,0,[],19.15827608,16482,1954,1,0,7,1.4781143364210525
undo,4,24,0,0,0,0,[0],1,29,"[1, 2, 3, 4, 5, 6, 7, 8, 9, 10, 11, 12, 13, 14, 15, 16, 17, 18, 19, 20, 21, 22, 23, 24, 25, 26, 27, 28, 29]",300,332,-1,4,76,10,0.0
undo,4,24,0,0,0,14,"[0, 14]",2,27,"[1, 2, 3, 4, 5, 6, 8, 9, 10, 11, 12, 13, 15, 16, 17, 18, 19, 20, 21, 22, 23, 24, 25, 26, 27, 28, 29]",278.0455016,2843,2511,4,54,10,1.0
undo,4,24,0,0,0,16,"[0, 14, 16]",3,25,"[2, 3, 4, 5, 6, 8, 9, 10, 11, 12, 13, 15, 17, 18, 19, 20, 21, 22, 23, 24, 25, 26, 27, 28, 29]",188.9949542,8428,5585,4,31,10,1.238291113657358
undo,4,24,0,0,0,22,"[0, 14, 16, 22]",4,20,"[2, 3, 4, 6, 8, 9, 10, 11, 13, 15, 17, 20, 21, 23, 24, 25, 26, 27, 28, 29]",170.9671978,9256,828,2,14,10,1.2244494133788653
undo,4,24,0,0,0,28,"[0, 14, 16, 22, 28]",5,10,"[3, 4, 8, 9, 11, 13, 15, 23, 26, 27]",110.1395725,11904,2648,5,13,8,1.1532986836039274
undo,4,24,0,0,0,23,"[0, 14, 16, 22, 28, 23]",6,6,"[4, 8, 9, 11, 15, 27]",91.11327489,12958,1054,5,2,8,1.1856131000299195
undo,4,24,0,0,0,11,"[0, 14, 16, 22, 28, 23, 11]",7,2,"[9, 27]",64.18745085,14154,1196,2,0,8,1.1739961453531478
undo,4,24,0,0,1,27,"[0, 14, 16, 22, 28, 23, 11, 27]",8,0,[],36.3845733,15253,1099,1,0,8,1.1542003870163662
undo,4,24,0,1,1,27,"[0, 14, 16, 22, 28, 23, 11, 27]",8,0,[],36.3845733,20708,5455,1,0,8,1.1542003870163662
undo,5,35,0,0,0,0,[0],1,29,"[1, 2, 3, 4, 5, 6, 7, 8, 9, 10, 11, 12, 13, 14, 15, 16, 17, 18, 19, 20, 21, 22, 23, 24, 25, 26, 27, 28, 29]",300,395,-1,5,236,11,0.0
undo,5,35,0,0,0,24,"[0, 24]",2,27,"[1, 2, 4, 5, 6, 7, 8, 9, 10, 11, 12, 13, 14, 15, 16, 17, 18, 19, 20, 21, 22, 23, 25, 26, 27, 28, 29]",268.9838752,1944,1549,49,512,10,1.0
undo,5,35,0,0,0,17,"[0, 24, 17]",3,26,"[1, 2, 4, 5, 6, 7, 8, 9, 10, 11, 12, 13, 14, 15, 16, 18, 19, 20, 21, 22, 23, 25, 26, 27, 28, 29]",257.2791753,3122,1178,33,238,10,1.0771477201815276
undo,5,35,0,0,0,1,"[0, 24, 17, 1]",4,25,"[2, 4, 5, 6, 7, 8, 9, 10, 11, 12, 13, 14, 15, 16, 18, 19, 20, 21, 22, 23, 25, 26, 27, 28, 29]",241.4677869,3905,783,26,151,10,1.2244804141479215
undo,5,35,0,0,0,15,"[0, 24, 17, 1, 15]",5,23,"[2, 4, 5, 6, 7, 8, 9, 10, 11, 12, 14, 16, 18, 19, 20, 21, 22, 23, 25, 26, 27, 28, 29]",218.6204676,5887,1982,26,78,10,1.4642196672428094
undo,5,35,0,0,0,9,"[0, 24, 17, 1, 15, 9]",6,8,"[5, 6, 18, 19, 23, 25, 27, 28]",136.3283052,8336,2449,4,17,10,1.4559671847403095
undo,5,35,0,0,0,18,"[0, 24, 17, 1, 15, 9, 18]",7,5,"[5, 6, 19, 23, 25]",116.3033208,9486,1150,2,5,10,1.428087426214553
undo,5,35,0,0,0,6,"[0, 24, 17, 1, 15, 9, 18, 6]",8,2,"[23, 25]",82.68784816,10702,1216,2,0,9,1.4370435192860334
undo,5,35,0,0,1,23,"[0, 24, 17, 1, 15, 9, 18, 6, 23]",9,0,[],37.03699932,19615,8913,1,0,9,2.473310108255437
undo,5,35,0,1,1,23,"[0, 24, 17, 1, 15, 9, 18, 6, 23]",9,0,[],37.03699932,26435,6820,1,0,9,2.473310108255437
undo,6,4,0,0,0,0,[0],1,26,"[3, 4, 5, 6, 7, 8, 10, 11, 12, 13, 14, 15, 16, 17, 18, 19, 20, 21, 22, 23, 24, 25, 26, 27, 28, 29]",300,350,-1,4,489,10,0.0
undo,6,4,0,0,0,28,"[0, 28]",2,21,"[3, 4, 5, 6, 10, 11, 12, 13, 14, 15, 16, 17, 19, 20, 21, 22, 23, 24, 25, 26, 27]",225.9392142,3597,3247,2,216,10,1.0
undo,6,4,0,0,0,11,"[0, 28, 11]",3,16,"[3, 4, 5, 6, 12, 13, 14, 16, 17, 20, 21, 22, 23, 24, 25, 26]",177.0618165,5044,1447,1,99,10,1.0005230107421244
undo,6,4,0,0,0,25,"[0, 28, 11, 25]",4,14,"[3, 4, 5, 6, 12, 13, 14, 16, 17, 20, 21, 22, 23, 24]",158.2735223,5919,875,1,47,10,1.11762077950493
undo,6,4,0,0,0,14,"[0, 28, 11, 25, 14]",5,10,"[3, 4, 5, 6, 13, 16, 17, 20, 21, 22]",142.1490068,6695,776,1,23,10,1.1558980853108136
undo,6,4,0,0,0,16,"[0, 28, 11, 25, 14, 16]",6,9,"[3, 4, 5, 6, 13, 17, 20, 21, 22]",109.5913656,7763,1068,1,12,10,1.3813330703388178
undo,6,4,0,0,0,21,"[0, 28, 11, 25, 14, 16, 21]",7,4,"[5, 17, 20, 22]",65.38729339,9260,1497,3,3,9,1.5873602666977278
undo,6,4,0,0,0,22,"[0, 28, 11, 25, 14, 16, 21, 22]",8,3,"[5, 17, 20]",54.34193237,10209,949,3,0,9,1.5483300526954302
undo,6,4,0,0,1,20,"[0, 28, 11, 25, 14, 16, 21, 22, 20]",9,0,[],24.10949946,11143,934,1,0,9,1.5098543030434866
undo,6,4,0,1,1,20,"[0, 28, 11, 25, 14, 16, 21, 22, 20]",9,0,[],24.10949946,14896,3753,1,0,9,1.5098543030434866
undo,7,14,0,0,0,0,[0],1,29,"[1, 2, 3, 4, 5, 6, 7, 8, 9, 10, 11, 12, 13, 14, 15, 16, 17, 18, 19, 20, 21, 22, 23, 24, 25, 26, 27, 28, 29]",300,336,-1,8,157,10,0.0
undo,7,14,0,0,0,18,"[0, 18]",2,17,"[1, 2, 3, 4, 7, 8, 9, 13, 15, 17, 19, 20, 22, 23, 25, 26, 28]",179.8958785,2249,1913,18,136,9,1.0
undo,7,14,0,0,0,8,"[0, 18, 8]",3,13,"[1, 2, 4, 7, 13, 15, 17, 19, 20, 23, 25, 26, 28]",166.294408,3911,1662,18,99,9,1.0203858410107731
undo,7,14,0,0,0,1,"[0, 18, 8, 1]",4,10,"[2, 4, 7, 15, 17, 19, 23, 25, 26, 28]",142.6935606,5001,1090,11,42,9,1.0173392374431458
undo,7,14,0,0,0,19,"[0, 18, 8, 1, 19]",5,9,"[2, 4, 7, 15, 17, 23, 25, 26, 28]",127.4620143,6095,1094,11,22,9,1.1668364376922102
undo,7,14,0,0,0,25,"[0, 18, 8, 1, 19, 25]",6,5,"[2, 4, 7, 23, 26]",91.61511768,7193,1098,5,7,9,1.273103293863789
undo,7,14,0,0,0,23,"[0, 18, 8, 1, 19, 25, 23]",7,3,"[4, 7, 26]",62.20423534,8361,1168,2,2,9,1.2650679654635444
undo,7,14,0,0,0,26,"[0, 18, 8, 1, 19, 25, 23, 26]",8,2,"[4, 7]",51.38758152,9513,1152,2,0,9,1.2530957004441798
undo,7,14,0,0,1,7,"[0, 18, 8, 1, 19, 25, 23, 26, 7]",9,0,[],6.287692383,11429,1916,1,0,9,1.6817917810897667
undo,7,14,0,1,1,7,"[0, 18, 8, 1, 19, 25, 23, 26, 7]",9,0,[],6.287692383,12781,1352,1,0,9,1.6817917810897667
undo,8,25,0,0,0,0,[0],1,28,"[1, 2, 3, 4, 5, 7, 8, 9, 10, 11, 12, 13, 14, 15, 16, 17, 18, 19, 20, 21, 22, 23, 24, 25, 26, 27, 28, 29]",300,390,-1,5,94,10,0.0
undo,8,25,0,0,0,23,"[0, 23]",2,23,"[1, 2, 3, 5, 7, 8, 9, 11, 12, 13, 14, 16, 17, 19, 20, 21, 22, 24, 25, 26, 27, 28, 29]",259.7756293,3847,3457,3,33,10,1.0
undo,8,25,0,0,0,19,"[0, 23, 19]",3,21,"[1, 2, 3, 5, 7, 8, 9, 11, 12, 13, 14, 16, 17, 20, 21, 22, 24, 25, 27, 28, 29]",223.9287326,6029,2182,3,24,10,1.583101227007039
undo,8,25,0,0,0,1,"[0, 23, 19, 1]",4,8,"[5, 7, 12, 20, 21, 22, 24, 29]",165.4052331,7815,1786,4,11,7,4.33500554887551
undo,8,25,0,0,0,21,"[0, 23, 19, 1, 21]",5,5,"[5, 12, 20, 22, 29]",136.9623078,8877,1062,3,2,7,3.2471443578508654
undo,8,25,0,0,0,20,"[0, 23, 19, 1, 21, 20]",6,1,[12],99.47897813,10994,2117,1,0,7,2.5707823316666665
undo,8,25,0,0,1,12,"[0, 23, 19, 1, 21, 20, 12]",7,0,[],8.572432713,14416,3422,1,0,7,2.013535766488905
undo,8,25,0,1,1,12,"[0, 23, 19, 1, 21, 20, 12]",7,0,[],8.572432713,16863,2447,1,0,7,2.013535766488905
undo,9,40,0,0,0,0,[0],1,29,"[1, 2, 3, 4, 5, 6, 7, 8, 9, 10, 11, 12, 13, 14, 15, 16, 17, 18, 19, 20, 21, 22, 23, 24, 25, 26, 27, 28, 29]",300,386,-1,8,191,9,0.0
undo,9,40,0,0,0,2,"[0, 2]",2,28,"[1, 3, 4, 5, 6, 7, 8, 9, 10, 11, 12, 13, 14, 15, 16, 17, 18, 19, 20, 21, 22, 23, 24, 25, 26, 27, 28, 29]",263.7646581,3810,3424,4,79,9,1.0
undo,9,40,0,0,0,1,"[0, 2, 1]",3,13,"[5, 6, 8, 9, 10, 13, 17, 18, 19, 21, 22, 23, 27]",197.9695215,5176,1366,3,32,9,1.9563451201211088
undo,9,40,0,0,0,6,"[0, 2, 1, 6]",4,10,"[5, 8, 9, 13, 17, 18, 19, 21, 22, 23]",177.8697703,5860,684,3,29,9,1.767962123020631
undo,9,40,0,0,0,23,"[0, 2, 1, 6, 23]",5,7,"[5, 8, 9, 18, 19, 21, 22]",108.2996618,7341,1481,7,9,8,2.021148183745429
undo,9,40,0,0,0,5,"[0, 2, 1, 6, 23, 5]",6,4,"[9, 18, 19, 22]",79.99771838,8480,1139,2,2,8,1.7888729342086278
undo,9,40,0,0,0,18,"[0, 2, 1, 6, 23, 5, 18]",7,1,[9],48.42241157,9790,1310,1,0,8,2.1237928860736814
undo,9,40,0,0,1,9,"[0, 2, 1, 6, 23, 5, 18, 9]",8,0,[],31.86946621,14522,4732,1,0,8,2.174110761572153
undo,9,40,0,1,1,9,"[0, 2, 1, 6, 23, 5, 18, 9]",8,0,[],31.86946621,19395,4873,1,0,8,2.174110761572153
undo,10,18,0,0,0,0,[0],1,28,"[1, 2, 3, 4, 5, 6, 7, 8, 9, 10, 11, 12, 13, 14, 16, 17, 18, 19, 20, 21, 22, 23, 24, 25, 26, 27, 28, 29]",300,309,-1,3,136,10,0.0
undo,10,18,0,0,0,28,"[0, 28]",2,16,"[1, 3, 5, 7, 8, 9, 12, 13, 14, 16, 20, 23, 24, 25, 26, 27]",236.4311397,3120,2811,2,19,10,1.0
undo,10,18,0,0,0,7,"[0, 28, 7]",3,15,"[1, 3, 5, 8, 9, 12, 13, 14, 16, 20, 23, 24, 25, 26, 27]",214.4084242,5168,2048,2,17,10,1.4345180696367563
undo,10,18,0,0,0,25,"[0, 28, 7, 25]",4,13,"[1, 3, 5, 8, 9, 12, 13, 14, 16, 20, 23, 26, 27]",186.6055466,6834,1666,2,15,10,1.8896451241781882
undo,10,18,0,0,0,8,"[0, 28, 7, 25, 8]",5,10,"[3, 5, 9, 12, 13, 14, 16, 23, 26, 27]",149.551532,8017,1183,2,10,10,1.590467437592877
undo,10,18,0,0,0,3,"[0, 28, 7, 25, 8, 3]",6,6,"[5, 12, 13, 14, 23, 27]",121.4801943,8886,869,1,10,9,1.4587755974793148
undo,10,18,0,0,0,5,"[0, 28, 7, 25, 8, 3, 5]",7,2,"[12, 27]",63.29944145,11170,2284,1,1,9,1.324334937860345
undo,10,18,0,0,0,12,"[0, 28, 7, 25, 8, 3, 5, 12]",8,1,[27],51.8976872,12132,962,1,0,9,1.3371922112868397
undo,10,18,0,0,1,27,"[0, 28, 7, 25, 8, 3, 5, 12, 27]",9,0,[],11.17914106,13115,983,1,0,9,1.4648883530615529
undo,10,18,0,1,1,27,"[0, 28, 7, 25, 8, 3, 5, 12, 27]",9,0,[],11.17914106,14204,1089,1,0,9,1.4648883530615529
undo,11,10,0,0,0,0,[0],1,29,"[1, 2, 3, 4, 5, 6, 7, 8, 9, 10, 11, 12, 13, 14, 15, 16, 17, 18, 19, 20, 21, 22, 23, 24, 25, 26, 27, 28, 29]",300,303,-1,1,100,9,0.0
undo,11,10,0,0,0,13,"[0, 13]",2,25,"[1, 2, 3, 4, 6, 7, 8, 9, 10, 11, 12, 14, 17, 18, 19, 20, 21, 22, 23, 24, 25, 26, 27, 28, 29]",249.4628849,2213,1910,1,79,9,1.0
undo,11,10,0,0,0,11,"[0, 13, 11]",3,20,"[1, 2, 3, 6, 7, 8, 9, 10, 12, 14, 18, 19, 20, 21, 22, 24, 26, 27, 28, 29]",206.4512586,3655,1442,1,54,9,1.0313137484914219
undo,11,10,0,0,0,19,"[0, 13, 11, 19]",4,11,"[2, 6, 8, 9, 10, 14, 18, 20, 24, 26, 27]",170.0919407,5025,1370,1,22,9,1.0879446220132545
undo,11,10,0,0,0,2,"[0, 13, 11, 19, 2]",5,4,"[14, 20, 26, 27]",126.1829439,6558,1533,1,4,9,1.06474052351343
undo,11,10,0,0,0,14,"[0, 13, 11, 19, 2, 14]",6,3,"[20, 26, 27]",114.0174188,7376,818,1,3,9,1.1628909195912238
undo,11,10,0,0,0,26,"[0, 13, 11, 19, 2, 14, 26]",7,2,"[20, 27]",79.34754716,8375,999,1,1,9,1.6660727647633602
undo,11,10,0,0,0,20,"[0, 13, 11, 19, 2, 14, 26, 20]",8,1,[27],47.56704999,10145,1770,1,0,9,2.085581809637999
undo,11,10,0,0,1,27,"[0, 13, 11, 19, 2, 14, 26, 20, 27]",9,0,[],2.312215998,11644,1499,1,0,9,1.9116357409137932
undo,11,10,0,1,1,27,"[0, 13, 11, 19, 2, 14, 26, 20, 27]",9,0,[],2.312215998,13046,1402,1,0,9,1.9116357409137932
undo,12,23,0,0,0,0,[0],1,28,"[1, 2, 3, 4, 5, 6, 7, 8, 9, 10, 11, 12, 13, 14, 15, 16, 17, 18, 19, 20, 21, 22, 23, 25, 26, 27, 28, 29]",300,322,-1,76,2626,10,0.0
undo,12,23,0,0,0,13,"[0, 13]",2,19,"[1, 2, 3, 5, 6, 7, 8, 9, 10, 12, 14, 17, 18, 19, 21, 22, 23, 27, 29]",189.3202819,3583,3261,9,168,10,1.0
undo,12,23,0,0,0,12,"[0, 13, 12]",3,16,"[1, 2, 3, 6, 7, 8, 9, 10, 14, 17, 18, 21, 22, 23, 27, 29]",177.2372359,4883,1300,9,96,10,1.0014195490503164
undo,12,23,0,0,0,2,"[0, 13, 12, 2]",4,12,"[1, 3, 6, 7, 9, 10, 14, 18, 21, 22, 27, 29]",163.3447919,6170,1287,4,30,10,1.0014394317924602
undo,12,23,0,0,0,6,"[0, 13, 12, 2, 6]",5,8,"[7, 9, 10, 14, 18, 22, 27, 29]",144.905703,7232,1062,2,11,10,1.0322887343644427
undo,12,23,0,0,0,14,"[0, 13, 12, 2, 6, 14]",6,7,"[7, 9, 10, 18, 22, 27, 29]",116.0439636,8347,1115,1,4,10,1.305671089460822
undo,12,23,0,0,0,9,"[0, 13, 12, 2, 6, 14, 9]",7,6,"[7, 10, 18, 22, 27, 29]",105.6036571,9196,849,1,3,10,1.4879353140485658
undo,12,23,0,0,0,29,"[0, 13, 12, 2, 6, 14, 9, 29]",8,2,"[7, 10]",53.98001913,11545,2349,1,1,10,1.5953811457786307
undo,12,23,0,0,0,7,"[0, 13, 12, 2, 6, 14, 9, 29, 7]",9,1,[10],29.89682997,13812,2267,1,0,10,1.6059372050079357
undo,12,23,0,0,1,10,"[0, 13, 12, 2, 6, 14, 9, 29, 7, 10]",10,0,[],2.437769539,15100,1288,1,0,10,1.5568722197385467
undo,12,23,0,1,1,10,"[0, 13, 12, 2, 6, 14, 9, 29, 7, 10]",10,0,[],2.437769539,16299,1199,1,0,10,1.5568722197385467
undo,13,37,0,0,0,0,[0],1,29,"[1, 2, 3, 4, 5, 6, 7, 8, 9, 10, 11, 12, 13, 14, 15, 16, 17, 18, 19, 20, 21, 22, 23, 24, 25, 26, 27, 28, 29]",300,400,-1,6,168,10,0.0
undo,13,37,0,0,0,18,"[0, 18]",2,19,"[1, 2, 4, 6, 7, 9, 10, 12, 14, 15, 17, 19, 20, 21, 22, 23, 26, 28, 29]",202.4090168,4044,3644,6,89,10,1.0
undo,13,37,0,0,0,7,"[0, 18, 7]",3,12,"[1, 2, 4, 9, 15, 17, 19, 20, 21, 22, 26, 29]",175.2428614,4981,937,6,53,10,1.0413073512834488
undo,13,37,0,0,0,22,"[0, 18, 7, 22]",4,8,"[1, 2, 4, 15, 19, 20, 21, 26]",125.2428614,6242,1261,6,29,10,1.0730792320325544
undo,13,37,0,0,0,4,"[0, 18, 7, 22, 4]",5,7,"[1, 2, 15, 19, 20, 21, 26]",100.2428614,7414,1172,4,16,10,1.2290245562206235
undo,13,37,0,0,0,2,"[0, 18, 7, 22, 4, 2]",6,5,"[1, 15, 19, 20, 21]",88.84110714,9056,1642,4,7,10,1.3968113858365216
undo,13,37,0,0,0,1,"[0, 18, 7, 22, 4, 2, 1]",7,4,"[15, 19, 20, 21]",71.63645661,11045,1989,4,3,10,1.4424239294761476
undo,13,37,0,0,0,20,"[0, 18, 7, 22, 4, 2, 1, 20]",8,3,"[15, 19, 21]",37.40197107,12707,1662,2,1,10,1.7518607796010042
undo,13,37,0,0,0,15,"[0, 18, 7, 22, 4, 2, 1, 20, 15]",9,1,[21],20.40197107,13743,1036,1,0,10,1.680305745239285
undo,13,37,0,0,1,21,"[0, 18, 7, 22, 4, 2, 1, 20, 15, 21]",10,0,[],5.401971073,14626,883,1,0,10,1.8982635624510946
undo,13,37,0,1,1,21,"[0, 18, 7, 22, 4, 2, 1, 20, 15, 21]",10,0,[],5.401971073,16094,1468,1,0,10,1.8982635624510946
undo,14,33,0,0,0,0,[0],1,23,"[1, 2, 5, 7, 8, 11, 12, 13, 14, 15, 16, 17, 18, 19, 20, 21, 23, 24, 25, 26, 27, 28, 29]",300,386,-1,5,108,9,0.0
undo,14,33,0,0,0,8,"[0, 8]",2,22,"[1, 2, 5, 7, 11, 12, 13, 14, 15, 16, 17, 18, 19, 20, 21, 23, 24, 25, 26, 27, 28, 29]",265.8679037,3081,2695,5,87,9,1.0
undo,14,33,0,0,0,21,"[0, 8, 21]",3,16,"[2, 5, 7, 11, 13, 14, 16, 17, 18, 19, 20, 24, 26, 27, 28, 29]",166.0430571,4778,1697,5,80,9,1.0670557763739492
undo,14,33,0,0,0,13,"[0, 8, 21, 13]",4,12,"[2, 7, 11, 14, 16, 17, 18, 19, 20, 24, 26, 29]",139.6422995,6062,1284,4,54,9,1.0555103820910288
undo,14,33,0,0,0,19,"[0, 8, 21, 13, 19]",5,10,"[7, 11, 14, 16, 17, 18, 20, 24, 26, 29]",114.1472019,6979,917,3,19,9,1.1090798607799486
undo,14,33,0,0,0,24,"[0, 8, 21, 13, 19, 24]",6,6,"[7, 14, 16, 18, 26, 29]",72.09960985,9114,2135,2,3,9,1.1193530461391534
undo,14,33,0,0,0,7,"[0, 8, 21, 13, 19, 24, 7]",7,2,"[14, 26]",42.89344611,10946,1832,2,0,9,1.2065014071663551
undo,14,33,0,0,0,14,"[0, 8, 21, 13, 19, 24, 7, 14]",8,1,[26],28.02737737,12396,1450,1,0,9,1.2536495746979057
undo,14,33,0,0,1,26,"[0, 8, 21, 13, 19, 24, 7, 14, 26]",9,0,[],15.37826672,13476,1080,1,0,9,1.2580465331304596
undo,14,33,0,1,1,26,"[0, 8, 21, 13, 19, 24, 7, 14, 26]",9,0,[],15.37826672,14963,1487,1,0,9,1.2580465331304596
undo,15,1,0,0,0,0,[0],1,26,"[1, 2, 4, 5, 7, 8, 9, 10, 11, 12, 13, 14, 15, 16, 17, 18, 19, 20, 21, 22, 23, 24, 25, 26, 28, 29]",300,349,-1,6,74,7,0.0
undo,15,1,0,0,0,8,"[0, 8]",2,23,"[1, 4, 5, 7, 9, 10, 11, 12, 13, 14, 15, 16, 17, 18, 19, 20, 21, 23, 24, 25, 26, 28, 29]",202,3212,2863,1,16,7,1.0
undo,15,1,0,0,0,20,"[0, 8, 20]",3,12,"[1, 4, 5, 11, 13, 14, 15, 17, 18, 19, 28, 29]",125.9408125,4458,1246,1,7,7,1.02364736730791
undo,15,1,0,0,0,5,"[0, 8, 20, 5]",4,7,"[1, 4, 11, 13, 17, 18, 29]",104.469902,5508,1050,1,3,7,1.0439599203945713
undo,15,1,0,0,0,18,"[0, 8, 20, 5, 18]",5,2,"[4, 29]",81.64447755,6708,1200,1,1,7,1.0840407791793756
undo,15,1,0,0,0,4,"[0, 8, 20, 5, 18, 4]",6,1,[29],42.69579336,8257,1549,1,0,7,1.0902329133216275
undo,15,1,0,0,1,29,"[0, 8, 20, 5, 18, 4, 29]",7,0,[],6.640280603,10855,2598,1,0,7,1.2859729622882756
undo,15,1,0,1,1,29,"[0, 8, 20, 5, 18, 4, 29]",7,0,[],6.640280603,12161,1306,1,0,7,1.2859729622882756
undo,16,43,0,0,0,0,[0],1,23,"[1, 2, 3, 4, 5, 6, 7, 9, 10, 11, 12, 14, 15, 16, 17, 19, 20, 21, 22, 23, 25, 27, 29]",300,334,-1,16,556,12,0.0
undo,16,43,0,0,0,29,"[0, 29]",2,22,"[1, 2, 3, 4, 5, 6, 7, 9, 10, 11, 12, 14, 15, 16, 17, 19, 20, 21, 22, 23, 25, 27]",277.909278,2362,2028,16,520,12,1.0
undo,16,43,0,0,0,20,"[0, 29, 20]",3,20,"[1, 2, 3, 4, 6, 7, 9, 10, 11, 12, 14, 15, 16, 17, 19, 21, 22, 23, 25, 27]",254.4785289,3097,735,15,422,12,1.082311746871282
undo,16,43,0,0,0,16,"[0, 29, 20, 16]",4,19,"[1, 2, 3, 4, 6, 7, 9, 10, 11, 12, 14, 15, 17, 19, 21, 22, 23, 25, 27]",231.8511119,4276,1179,15,389,12,1.215201926898219
undo,16,43,0,0,0,15,"[0, 29, 20, 16, 15]",5,14,"[1, 2, 3, 4, 6, 7, 9, 11, 12, 14, 19, 22, 23, 25]",188.5267539,6092,1816,3,109,12,1.3482474915350444
undo,16,43,0,0,0,25,"[0, 29, 20, 16, 15, 25]",6,12,"[1, 3, 4, 6, 7, 9, 11, 12, 14, 19, 22, 23]",165.8551858,7192,1100,2,43,12,1.691408721191545
undo,16,43,0,0,0,12,"[0, 29, 20, 16, 15, 25, 12]",7,11,"[1, 3, 4, 6, 7, 9, 11, 14, 19, 22, 23]",141.6684126,8558,1366,2,32,12,1.6015983641428178
undo,16,43,0,0,0,3,"[0, 29, 20, 16, 15, 25, 12, 3]",8,10,"[1, 4, 6, 7, 9, 11, 14, 19, 22, 23]",128.6684126,9592,1034,2,24,12,1.5379830456120627
undo,16,43,0,0,0,22,"[0, 29, 20, 16, 15, 25, 12, 3, 22]",9,6,"[1, 6, 7, 11, 14, 19]",93.95530264,11391,1799,1,11,12,1.7275686117408873
undo,16,43,0,0,0,19,"[0, 29, 20, 16, 15, 25, 12, 3, 22, 19]",10,4,"[1, 6, 7, 11]",73.33977451,12713,1322,1,3,12,1.6315360037595275
undo,16,43,0,0,0,1,"[0, 29, 20, 16, 15, 25, 12, 3, 22, 19, 1]",11,1,[7],45.1617689,13751,1038,1,0,12,1.7703076545303877
undo,16,43,0,0,1,7,"[0, 29, 20, 16, 15, 25, 12, 3, 22, 19, 1, 7]",12,0,[],6.951822553,15405,1654,1,0,12,1.6607094905815594
undo,16,43,0,1,1,7,"[0, 29, 20, 16, 15, 25, 12, 3, 22, 19, 1, 7]",12,0,[],6.951822553,16811,1406,1,0,12,1.6607094905815594
undo,17,6,0,0,0,0,[0],1,29,"[1, 2, 3, 4, 5, 6, 7, 8, 9, 10, 11, 12, 13, 14, 15, 16, 17, 18, 19, 20, 21, 22, 23, 24, 25, 26, 27, 28, 29]",300,360,-1,180,4304,10,0.0
undo,17,6,0,0,0,3,"[0, 3]",2,28,"[1, 2, 4, 5, 6, 7, 8, 9, 10, 11, 12, 13, 14, 15, 16, 17, 18, 19, 20, 21, 22, 23, 24, 25, 26, 27, 28, 29]",266.4738908,1962,1602,90,1607,10,1.0
undo,17,6,0,0,0,18,"[0, 3, 18]",3,27,"[1, 2, 4, 5, 6, 7, 8, 9, 10, 11, 12, 13, 14, 15, 16, 17, 19, 20, 21, 22, 23, 24, 25, 26, 27, 28, 29]",237.4738908,3031,1069,34,516,10,1.0266750028725786
undo,17,6,0,0,0,17,"[0, 3, 18, 17]",4,26,"[1, 2, 4, 5, 6, 7, 8, 9, 10, 11, 12, 13, 14, 15, 16, 19, 20, 21, 22, 23, 24, 25, 26, 27, 28, 29]",223.5455025,4200,1169,17,243,10,1.0832900829093166
undo,17,6,0,0,0,10,"[0, 3, 18, 17, 10]",5,22,"[1, 2, 4, 5, 6, 7, 8, 9, 11, 13, 14, 16, 19, 20, 21, 22, 23, 24, 26, 27, 28, 29]",203.8224196,5447,1247,10,111,10,1.140294203414171
undo,17,6,0,0,0,24,"[0, 3, 18, 17, 10, 24]",6,19,"[1, 2, 4, 5, 6, 7, 8, 11, 13, 14, 16, 20, 21, 22, 23, 26, 27, 28, 29]",190.4060117,6445,998,10,80,10,1.1264281153820843
undo,17,6,0,0,0,16,"[0, 3, 18, 17, 10, 24, 16]",7,13,"[1, 2, 6, 7, 13, 14, 20, 21, 22, 23, 26, 27, 29]",134.3703088,7500,1055,6,21,10,2.2946652061367843
undo,17,6,0,0,0,29,"[0, 3, 18, 17, 10, 24, 16, 29]",8,7,"[6, 14, 20, 21, 22, 23, 27]",97.68243615,8494,994,5,5,10,1.8995488998077483
undo,17,6,0,0,0,23,"[0, 3, 18, 17, 10, 24, 16, 29, 23]",9,2,"[6, 22]",50.16401866,9710,1216,2,0,10,1.8616504050291767
undo,17,6,0,0,1,22,"[0, 3, 18, 17, 10, 24, 16, 29, 23, 22]",10,0,[],9.164018664,12995,3285,1,0,10,1.8678286854893127
undo,17,6,0,1,1,22,"[0, 3, 18, 17, 10, 24, 16, 29, 23, 22]",10,0,[],9.164018664,15314,2319,1,0,10,1.8678286854893127
undo,18,17,0,0,0,0,[0],1,28,"[1, 2, 3, 4, 5, 6, 7, 8, 9, 10, 11, 12, 13, 14, 15, 16, 17, 18, 19, 20, 22, 23, 24, 25, 26, 27, 28, 29]",300,412,-1,2,73,8,0.0
undo,18,17,0,0,0,9,"[0, 9]",2,25,"[1, 2, 3, 5, 6, 7, 8, 10, 11, 12, 14, 15, 16, 17, 18, 19, 20, 22, 23, 24, 25, 26, 27, 28, 29]",210.5293344,1675,1263,1,34,8,1.0
undo,18,17,0,0,0,16,"[0, 9, 16]",3,21,"[1, 2, 3, 5, 7, 8, 10, 11, 12, 14, 17, 18, 19, 20, 22, 23, 25, 26, 27, 28, 29]",197.1876704,2697,1022,1,26,8,1.173103464220352
undo,18,17,0,0,0,2,"[0, 9, 16, 2]",4,18,"[1, 3, 5, 7, 8, 10, 11, 12, 14, 17, 18, 19, 23, 25, 26, 27, 28, 29]",181.0631549,4095,1398,1,23,8,1.14825089247282
undo,18,17,0,0,0,17,"[0, 9, 16, 2, 17]",5,7,"[7, 8, 12, 14, 26, 27, 29]",142.7356191,4940,845,4,5,7,1.4896040699768547
undo,18,17,0,0,0,8,"[0, 9, 16, 2, 17, 8]",6,3,"[7, 12, 27]",104.5256727,5889,949,3,0,7,1.4604726966175894
undo,18,17,0,0,1,27,"[0, 9, 16, 2, 17, 8, 27]",7,0,[],21.88790895,7957,2068,1,0,7,1.2949460667276491
undo,18,17,1,0,0,8,"[0, 9, 16, 2, 17, 8]",6,3,"[7, 12, 27]",104.5256727,11764,3807,3,0,7,1.4604726966175894
undo,18,17,0,0,1,27,"[0, 9, 16, 2, 17, 8, 27]",7,0,[],21.88790895,16570,4806,1,0,7,1.2949460667276491
undo,18,17,0,1,1,27,"[0, 9, 16, 2, 17, 8, 27]",7,0,[],21.88790895,20640,4070,1,0,7,1.2949460667276491
undo,19,22,0,0,0,0,[0],1,29,"[1, 2, 3, 4, 5, 6, 7, 8, 9, 10, 11, 12, 13, 14, 15, 16, 17, 18, 19, 20, 21, 22, 23, 24, 25, 26, 27, 28, 29]",300,396,-1,31,704,9,0.0
undo,19,22,0,0,0,16,"[0, 16]",2,21,"[1, 3, 6, 7, 8, 9, 11, 13, 14, 15, 17, 18, 19, 20, 21, 22, 24, 25, 27, 28, 29]",218.605897,5989,5593,17,147,9,1.0
undo,19,22,0,0,0,6,"[0, 16, 6]",3,16,"[1, 3, 7, 9, 13, 14, 15, 17, 19, 20, 21, 22, 24, 25, 28, 29]",184.1675463,7756,1767,5,77,9,1.3071109638102874
undo,19,22,0,0,0,9,"[0, 16, 6, 9]",4,15,"[1, 3, 7, 13, 14, 15, 17, 19, 20, 21, 22, 24, 25, 28, 29]",157.5404924,8687,931,4,33,9,1.5907585082674378
undo,19,22,0,0,0,19,"[0, 16, 6, 9, 19]",5,12,"[3, 7, 13, 14, 15, 17, 20, 21, 24, 25, 28, 29]",137.1444143,9724,1037,3,17,9,2.0453047636701496
undo,19,22,0,0,0,29,"[0, 16, 6, 9, 19, 29]",6,10,"[3, 7, 13, 14, 15, 17, 20, 21, 24, 28]",122.111118,10536,812,3,10,9,2.310050419546042
undo,19,22,0,0,0,14,"[0, 16, 6, 9, 19, 29, 14]",7,2,"[7, 17]",63.86165444,11752,1216,1,1,9,1.8228779744230632
undo,19,22,0,0,0,7,"[0, 16, 6, 9, 19, 29, 14, 7]",8,1,[17],50.82324963,13352,1600,1,0,9,1.981278197083242
undo,19,22,0,0,1,17,"[0, 16, 6, 9, 19, 29, 14, 7, 17]",9,0,[],9.205945539,14385,1033,1,0,9,1.840137026694984
undo,19,22,0,1,1,17,"[0, 16, 6, 9, 19, 29, 14, 7, 17]",9,0,[],9.205945539,16573,2188,1,0,9,1.840137026694984
undo,20,15,0,0,0,0,[0],1,25,"[1, 2, 3, 4, 7, 8, 9, 10, 11, 12, 13, 14, 15, 16, 18, 20, 21, 22, 23, 24, 25, 26, 27, 28, 29]",300,369,-1,4,65,9,0.0
undo,20,15,0,0,0,7,"[0, 7]",2,23,"[1, 3, 4, 8, 9, 10, 11, 12, 13, 14, 15, 16, 18, 20, 21, 22, 23, 24, 25, 26, 27, 28, 29]",215.1884442,3929,3560,30,107,8,1.0
undo,20,15,0,0,0,11,"[0, 7, 11]",3,18,"[3, 4, 8, 9, 10, 12, 13, 14, 15, 16, 18, 20, 21, 22, 23, 25, 27, 29]",173.7035072,5608,1679,12,34,8,1.0171318876095128
undo,20,15,0,0,0,3,"[0, 7, 11, 3]",4,13,"[4, 10, 12, 13, 14, 15, 16, 18, 20, 21, 22, 25, 27]",162.3017529,6895,1287,7,21,8,1.0401878806820521
undo,20,15,0,0,0,16,"[0, 7, 11, 3, 16]",5,9,"[4, 10, 12, 13, 14, 15, 18, 21, 22]",137.2218805,9593,2698,5,6,8,1.4258499651326737
undo,20,15,0,0,0,22,"[0, 7, 11, 3, 16, 22]",6,4,"[4, 13, 14, 15]",78.36612462,10681,1088,2,2,8,1.284645195326425
undo,20,15,0,0,0,13,"[0, 7, 11, 3, 16, 22, 13]",7,1,[15],50.20586894,12025,1344,1,0,8,1.2468528041787974
undo,20,15,0,0,1,15,"[0, 7, 11, 3, 16, 22, 13, 15]",8,0,[],34.94153142,13813,1788,1,0,8,1.349724143762162
undo,20,15,0,1,1,15,"[0, 7, 11, 3, 16, 22, 13, 15]",8,0,[],34.94153142,15180,1367,1,0,8,1.349724143762162
undo,21,26,0,0,0,0,[0],1,29,"[1, 2, 3, 4, 5, 6, 7, 8, 9, 10, 11, 12, 13, 14, 15, 16, 17, 18, 19, 20, 21, 22, 23, 24, 25, 26, 27, 28, 29]",300,451,-1,9,226,9,0.0
undo,21,26,0,0,0,21,"[0, 21]",2,25,"[2, 3, 4, 5, 6, 7, 8, 10, 11, 12, 13, 14, 15, 16, 17, 18, 19, 22, 23, 24, 25, 26, 27, 28, 29]",211.1349337,2431,1980,7,90,9,1.0
undo,21,26,0,0,0,16,"[0, 21, 16]",3,12,"[4, 5, 6, 10, 11, 12, 13, 14, 17, 23, 26, 29]",151.2266705,4061,1630,1,34,9,1.3289691188319968
undo,21,26,0,0,0,29,"[0, 21, 16, 29]",4,8,"[4, 5, 6, 10, 13, 14, 17, 23]",127.0192337,5177,1116,1,28,9,1.4156891800947415
undo,21,26,0,0,0,4,"[0, 21, 16, 29, 4]",5,5,"[6, 10, 14, 17, 23]",103.0192337,6460,1283,1,12,9,1.6252228687746915
undo,21,26,0,0,0,17,"[0, 21, 16, 29, 4, 17]",6,3,"[6, 10, 14]",81.92421056,7277,817,1,4,9,1.534793846471065
undo,21,26,0,0,0,14,"[0, 21, 16, 29, 4, 17, 14]",7,2,"[6, 10]",59.45200551,9109,1832,1,1,9,1.4926767408397108
undo,21,26,0,0,0,6,"[0, 21, 16, 29, 4, 17, 14, 6]",8,1,[10],38.42820947,10525,1416,1,0,9,1.6286010900012204
undo,21,26,0,0,1,10,"[0, 21, 16, 29, 4, 17, 14, 6, 10]",9,0,[],9.153647129,13075,2550,1,0,9,1.797369356615424
undo,21,26,0,1,1,10,"[0, 21, 16, 29, 4, 17, 14, 6, 10]",9,0,[],9.153647129,13963,888,1,0,9,1.797369356615424
undo,22,31,0,0,0,0,[0],1,27,"[1, 3, 4, 5, 6, 7, 8, 10, 11, 12, 13, 14, 15, 16, 17, 18, 19, 20, 21, 22, 23, 24, 25, 26, 27, 28, 29]",300,301,-1,2,87,10,0.0
undo,22,31,0,0,0,14,"[0, 14]",2,25,"[1, 3, 5, 6, 7, 8, 10, 11, 12, 13, 15, 16, 17, 18, 19, 20, 21, 22, 23, 24, 25, 26, 27, 28, 29]",263.861378,2444,2143,2,59,10,1.0
undo,22,31,0,0,0,27,"[0, 14, 27]",3,22,"[1, 3, 5, 6, 7, 8, 10, 11, 12, 13, 15, 16, 17, 18, 19, 20, 21, 22, 24, 25, 28, 29]",235.6833724,3631,1187,1,39,10,1.5881859159302467
undo,22,31,0,0,0,8,"[0, 14, 27, 8]",4,20,"[1, 3, 5, 6, 7, 10, 11, 12, 13, 16, 17, 18, 19, 20, 21, 22, 24, 25, 28, 29]",224.6380114,4441,810,1,36,10,2.1665048452331277
undo,22,31,0,0,0,18,"[0, 14, 27, 8, 18]",5,15,"[1, 5, 6, 7, 11, 12, 13, 16, 17, 19, 20, 22, 25, 28, 29]",188.7911147,5815,1374,1,26,10,1.7273375741920205
undo,22,31,0,0,0,17,"[0, 14, 27, 8, 18, 17]",6,13,"[1, 5, 6, 7, 11, 12, 13, 16, 19, 20, 22, 25, 28]",159.584951,6826,1011,1,13,10,1.551192427769927
undo,22,31,0,0,0,11,"[0, 14, 27, 8, 18, 17, 11]",7,7,"[5, 12, 16, 19, 22, 25, 28]",118.4753414,9115,2289,1,4,10,2.9650760544203494
undo,22,31,0,0,0,5,"[0, 14, 27, 8, 18, 17, 11, 5]",8,2,"[16, 28]",74.79468207,10758,1643,1,1,10,2.56711965625205
undo,22,31,0,0,0,28,"[0, 14, 27, 8, 18, 17, 11, 5, 28]",9,1,[16],54.57093365,11543,785,1,0,10,2.2865510762058148
undo,22,31,0,0,1,16,"[0, 14, 27, 8, 18, 17, 11, 5, 28, 16]",10,0,[],20.95546102,12990,1447,1,0,10,2.089356850786318
undo,22,31,0,1,1,16,"[0, 14, 27, 8, 18, 17, 11, 5, 28, 16]",10,0,[],20.95546102,14096,1106,1,0,10,2.089356850786318
basic,23,40,0,0,0,0,[0],1,29,"[1, 2, 3, 4, 5, 6, 7, 8, 9, 10, 11, 12, 13, 14, 15, 16, 17, 18, 19, 20, 21, 22, 23, 24, 25, 26, 27, 28, 29]",300,381,-1,8,191,9,0.0
basic,23,40,0,0,0,17,"[0, 17]",2,21,"[1, 2, 3, 4, 5, 6, 7, 8, 9, 10, 11, 13, 15, 16, 18, 19, 21, 22, 23, 27, 29]",263,6175,5794,16,133,8,1.0
basic,23,40,0,0,0,2,"[0, 17, 2]",3,18,"[1, 3, 5, 6, 7, 8, 9, 10, 11, 13, 15, 18, 19, 21, 22, 23, 27, 29]",200.2305807,7472,1297,9,72,8,2.753373203280237
basic,23,40,0,0,0,1,"[0, 17, 2, 1]",4,7,"[5, 6, 9, 18, 19, 21, 23]",134.4354441,12171,4699,1,11,8,3.174555444234083
basic,23,40,0,0,0,6,"[0, 17, 2, 1, 6]",5,6,"[5, 9, 18, 19, 21, 23]",114.3356929,13991,1820,1,9,8,2.687683985823785
basic,23,40,0,0,0,21,"[0, 17, 2, 1, 6, 21]",6,2,"[9, 18]",62.36454701,16953,2962,1,1,8,1.9720275191215288
basic,23,40,0,0,0,9,"[0, 17, 2, 1, 6, 21, 9]",7,1,[18],16.65896748,18187,1234,1,0,8,2.2974436342231748
basic,23,40,0,0,1,18,"[0, 17, 2, 1, 6, 21, 9, 18]",8,0,[],0.106022127,19235,1048,1,0,8,2.531675022237653
basic,23,40,0,1,1,18,"[0, 17, 2, 1, 6, 21, 9, 18]",8,0,[],0.106022127,20408,1173,1,0,8,2.531675022237653
basic,24,19,0,0,0,0,[0],1,29,"[1, 2, 3, 4, 5, 6, 7, 8, 9, 10, 11, 12, 13, 14, 15, 16, 17, 18, 19, 20, 21, 22, 23, 24, 25, 26, 27, 28, 29]",300,294,-1,12,149,8,0.0
basic,24,19,0,0,0,29,"[0, 29]",2,28,"[1, 2, 3, 4, 5, 6, 7, 8, 9, 10, 11, 12, 13, 14, 15, 16, 17, 18, 19, 20, 21, 22, 23, 24, 25, 26, 27, 28]",265.0715016,2139,1845,12,120,8,1.0
basic,24,19,0,0,0,5,"[0, 29, 5]",3,10,"[1, 4, 6, 9, 12, 13, 15, 16, 27, 28]",187.5473118,4370,2231,4,6,5,2.1034816587423926
basic,24,19,0,0,1,15,"[0, 29, 5, 15]",4,0,[],136.1177484,6358,1988,1,0,4,1.76873093798424
basic,24,19,0,1,1,15,"[0, 29, 5, 15]",4,0,[],136.1177484,10923,4565,1,0,4,1.76873093798424
basic,25,25,0,0,0,0,[0],1,28,"[1, 2, 3, 4, 5, 7, 8, 9, 10, 11, 12, 13, 14, 15, 16, 17, 18, 19, 20, 21, 22, 23, 24, 25, 26, 27, 28, 29]",300,317,-1,5,94,10,0.0
basic,25,25,0,0,0,23,"[0, 23]",2,23,"[1, 2, 3, 5, 7, 8, 9, 11, 12, 13, 14, 16, 17, 19, 20, 21, 22, 24, 25, 26, 27, 28, 29]",259.7756293,4095,3778,3,33,10,1.0
basic,25,25,0,0,0,19,"[0, 23, 19]",3,21,"[1, 2, 3, 5, 7, 8, 9, 11, 12, 13, 14, 16, 17, 20, 21, 22, 24, 25, 27, 28, 29]",223.9287326,5144,1049,3,24,10,1.583101227007039
basic,25,25,0,0,0,29,"[0, 23, 19, 29]",4,19,"[1, 2, 3, 5, 7, 8, 9, 11, 12, 13, 14, 16, 17, 20, 21, 22, 24, 25, 28]",207.649912,7526,2382,3,17,10,1.474631541426484
basic,25,25,0,0,0,22,"[0, 23, 19, 29, 22]",5,18,"[1, 2, 3, 5, 7, 8, 9, 11, 12, 13, 14, 16, 17, 20, 21, 24, 25, 28]",191.5253965,8390,864,3,14,10,1.4020377754906637
basic,25,25,0,0,0,7,"[0, 23, 19, 29, 22, 7]",6,7,"[3, 8, 9, 11, 13, 24, 28]",115.8814939,10459,2069,3,11,10,1.5709678649326715
basic,25,25,0,0,0,24,"[0, 23, 19, 29, 22, 7, 24]",7,5,"[3, 8, 9, 13, 28]",91.12265712,11891,1432,3,7,10,1.486191600033379
basic,25,25,0,0,0,9,"[0, 23, 19, 29, 22, 7, 24, 9]",8,4,"[3, 8, 13, 28]",73.09490075,13290,1399,3,3,10,1.453504870342882
basic,25,25,0,0,0,3,"[0, 23, 19, 29, 22, 7, 24, 9, 3]",9,3,"[8, 13, 28]",42.82940885,14823,1533,3,0,10,1.388955167525479
basic,25,25,0,0,1,8,"[0, 23, 19, 29, 22, 7, 24, 9, 3, 8]",10,0,[],3.624817279,19026,4203,1,0,10,1.4820797135778283
basic,25,25,0,1,1,8,"[0, 23, 19, 29, 22, 7, 24, 9, 3, 8]",10,0,[],3.624817279,20226,1200,1,0,10,1.4820797135778283
basic,26,4,0,0,0,0,[0],1,26,"[3, 4, 5, 6, 7, 8, 10, 11, 12, 13, 14, 15, 16, 17, 18, 19, 20, 21, 22, 23, 24, 25, 26, 27, 28, 29]",300,376,-1,4,489,10,0.0
basic,26,4,0,0,0,28,"[0, 28]",2,21,"[3, 4, 5, 6, 10, 11, 12, 13, 14, 15, 16, 17, 19, 20, 21, 22, 23, 24, 25, 26, 27]",225.9392142,2570,2194,2,216,10,1.0
basic,26,4,0,0,0,11,"[0, 28, 11]",3,16,"[3, 4, 5, 6, 12, 13, 14, 16, 17, 20, 21, 22, 23, 24, 25, 26]",177.0618165,4951,2381,1,99,10,1.0005230107421244
basic,26,4,0,0,0,16,"[0, 28, 11, 16]",4,13,"[3, 4, 5, 6, 12, 13, 14, 17, 20, 21, 22, 24, 25]",162.0618165,6136,1185,38,165,9,1.0006824277240565
basic,26,4,0,0,0,25,"[0, 28, 11, 16, 25]",5,10,"[3, 4, 5, 6, 13, 14, 17, 20, 21, 22]",140.5211573,8737,2601,15,40,9,1.2576116431130224
basic,26,4,0,0,0,14,"[0, 28, 11, 16, 25, 14]",6,9,"[3, 4, 5, 6, 13, 17, 20, 21, 22]",124.3966418,10889,2152,9,13,9,1.2858936228570335
basic,26,4,0,0,0,3,"[0, 28, 11, 16, 25, 14, 3]",7,4,"[17, 20, 21, 22]",82.95994308,12183,1294,3,3,9,1.2444008233680606
basic,26,4,0,0,0,17,"[0, 28, 11, 16, 25, 14, 3, 17]",8,3,"[20, 21, 22]",58.44464174,13515,1332,3,0,9,1.4736383799835773
basic,26,4,0,0,1,21,"[0, 28, 11, 16, 25, 14, 3, 17, 21]",9,0,[],9.190200312,16868,3353,1,0,9,1.9675827787043683
basic,26,4,0,1,1,21,"[0, 28, 11, 16, 25, 14, 3, 17, 21]",9,0,[],9.190200312,19469,2601,1,0,9,1.9675827787043683
basic,27,14,0,0,0,0,[0],1,29,"[1, 2, 3, 4, 5, 6, 7, 8, 9, 10, 11, 12, 13, 14, 15, 16, 17, 18, 19, 20, 21, 22, 23, 24, 25, 26, 27, 28, 29]",300,305,-1,8,157,10,0.0
basic,27,14,0,0,0,18,"[0, 18]",2,17,"[1, 2, 3, 4, 7, 8, 9, 13, 15, 17, 19, 20, 22, 23, 25, 26, 28]",179.8958785,2455,2150,18,136,9,1.0
basic,27,14,0,0,0,8,"[0, 18, 8]",3,13,"[1, 2, 4, 7, 13, 15, 17, 19, 20, 23, 25, 26, 28]",166.294408,3682,1227,18,99,9,1.0203858410107731
basic,27,14,0,0,0,19,"[0, 18, 8, 19]",4,10,"[1, 2, 4, 7, 15, 17, 23, 25, 26, 28]",145.6788799,5232,1550,7,52,9,1.0436397834807676
basic,27,14,0,0,0,1,"[0, 18, 8, 19, 1]",5,9,"[2, 4, 7, 15, 17, 23, 25, 26, 28]",130.4473337,6132,900,7,21,9,1.096538583531719
basic,27,14,0,0,0,25,"[0, 18, 8, 19, 1, 25]",6,5,"[2, 4, 7, 23, 26]",82.43691812,8801,2669,2,5,9,1.3291764406366522
basic,27,14,0,0,0,23,"[0, 18, 8, 19, 1, 25, 23]",7,3,"[4, 7, 26]",53.02603578,10413,1612,3,0,8,1.313895774741767
basic,27,14,0,0,1,26,"[0, 18, 8, 19, 1, 25, 23, 26]",8,0,[],42.20938195,11252,839,1,0,8,1.2993571160617219
basic,27,14,0,1,1,26,"[0, 18, 8, 19, 1, 25, 23, 26]",8,0,[],42.20938195,15649,4397,1,0,8,1.2993571160617219
basic,28,29,0,0,0,0,[0],1,29,"[1, 2, 3, 4, 5, 6, 7, 8, 9, 10, 11, 12, 13, 14, 15, 16, 17, 18, 19, 20, 21, 22, 23, 24, 25, 26, 27, 28, 29]",300,358,-1,1,78,9,0.0
basic,28,29,0,0,0,25,"[0, 25]",2,18,"[1, 2, 4, 5, 6, 7, 9, 10, 12, 13, 14, 15, 16, 17, 22, 26, 27, 28]",223.3449284,3618,3260,13,101,8,1.0
basic,28,29,0,0,0,17,"[0, 25, 17]",3,13,"[1, 4, 5, 6, 7, 9, 10, 12, 13, 14, 22, 27, 28]",188.41643,4535,917,2,22,8,1.014228463693056
basic,28,29,0,0,0,1,"[0, 25, 17, 1]",4,11,"[4, 5, 6, 7, 10, 12, 13, 14, 22, 27, 28]",149.5191293,5601,1066,2,18,8,1.7553639368828857
basic,28,29,0,0,0,14,"[0, 25, 17, 1, 14]",5,8,"[4, 5, 7, 12, 13, 22, 27, 28]",106.5656662,6636,1035,2,9,8,2.137167642879409
basic,28,29,0,0,0,13,"[0, 25, 17, 1, 14, 13]",6,4,"[4, 5, 12, 22]",88.53790978,8136,1500,2,3,8,1.9535489858276616
basic,28,29,0,0,0,5,"[0, 25, 17, 1, 14, 13, 5]",7,2,"[4, 22]",62.82798951,8904,768,2,0,8,1.9087092890879327
basic,28,29,0,0,1,4,"[0, 25, 17, 1, 14, 13, 5, 4]",8,0,[],10.93386653,10399,1495,1,0,8,1.6444131700810427
basic,28,29,0,1,1,4,"[0, 25, 17, 1, 14, 13, 5, 4]",8,0,[],10.93386653,11770,1371,1,0,8,1.6444131700810427
basic,29,10,0,0,0,0,[0],1,29,"[1, 2, 3, 4, 5, 6, 7, 8, 9, 10, 11, 12, 13, 14, 15, 16, 17, 18, 19, 20, 21, 22, 23, 24, 25, 26, 27, 28, 29]",300,309,-1,1,100,9,0.0
basic,29,10,0,0,0,13,"[0, 13]",2,25,"[1, 2, 3, 4, 6, 7, 8, 9, 10, 11, 12, 14, 17, 18, 19, 20, 21, 22, 23, 24, 25, 26, 27, 28, 29]",249.4628849,3753,3444,1,79,9,1.0
basic,29,10,0,0,0,11,"[0, 13, 11]",3,20,"[1, 2, 3, 6, 7, 8, 9, 10, 12, 14, 18, 19, 20, 21, 22, 24, 26, 27, 28, 29]",206.4512586,4836,1083,1,54,9,1.0313137484914219
basic,29,10,0,0,0,19,"[0, 13, 11, 19]",4,11,"[2, 6, 8, 9, 10, 14, 18, 20, 24, 26, 27]",170.0919407,5819,983,1,22,9,1.0879446220132545
basic,29,10,0,0,0,2,"[0, 13, 11, 19, 2]",5,4,"[14, 20, 26, 27]",126.1829439,7802,1983,1,4,9,1.06474052351343
basic,29,10,0,0,0,14,"[0, 13, 11, 19, 2, 14]",6,3,"[20, 26, 27]",114.0174188,8834,1032,1,3,9,1.1628909195912238
basic,29,10,0,0,0,26,"[0, 13, 11, 19, 2, 14, 26]",7,2,"[20, 27]",79.34754716,10101,1267,1,1,9,1.6660727647633602
basic,29,10,0,0,0,20,"[0, 13, 11, 19, 2, 14, 26, 20]",8,1,[27],47.56704999,11255,1154,1,0,9,2.085581809637999
basic,29,10,0,0,1,27,"[0, 13, 11, 19, 2, 14, 26, 20, 27]",9,0,[],2.312215998,12730,1475,1,0,9,1.9116357409137932
basic,29,10,0,1,1,27,"[0, 13, 11, 19, 2, 14, 26, 20, 27]",9,0,[],2.312215998,13637,907,1,0,9,1.9116357409137932
basic,30,45,0,0,0,0,[0],1,24,"[1, 2, 3, 4, 5, 6, 7, 9, 10, 11, 12, 14, 15, 16, 17, 19, 20, 21, 22, 23, 24, 25, 27, 29]",300,310,-1,6,248,10,0.0
basic,30,45,0,0,0,15,"[0, 15]",2,23,"[1, 2, 3, 4, 5, 6, 7, 9, 10, 11, 12, 14, 16, 17, 19, 20, 21, 22, 23, 24, 25, 27, 29]",253.9022777,3288,2978,5,207,10,1.0
basic,30,45,0,0,0,23,"[0, 15, 23]",3,22,"[1, 2, 3, 4, 5, 6, 7, 9, 10, 11, 12, 14, 16, 17, 19, 20, 21, 22, 24, 25, 27, 29]",230.3014303,4455,1167,5,163,10,1.0006068457769497
basic,30,45,0,0,0,20,"[0, 15, 23, 20]",4,19,"[1, 2, 3, 5, 6, 7, 9, 10, 11, 12, 14, 16, 17, 19, 21, 22, 24, 25, 29]",188.8647316,5289,834,5,137,10,1.2062119754673604
basic,30,45,0,0,0,7,"[0, 15, 23, 20, 7]",5,14,"[2, 3, 5, 6, 9, 10, 12, 14, 17, 19, 21, 22, 24, 29]",137.2410936,8717,3428,3,38,10,1.2267717168083891
basic,30,45,0,0,0,2,"[0, 15, 23, 20, 7, 2]",6,8,"[3, 6, 10, 12, 19, 22, 24, 29]",99.22793795,10221,1504,3,20,10,1.1978549169009853
basic,30,45,0,0,0,3,"[0, 15, 23, 20, 7, 2, 3]",7,5,"[6, 10, 12, 22, 29]",73.90996014,11218,997,2,7,10,1.2603420042999722
basic,30,45,0,0,0,29,"[0, 15, 23, 20, 7, 2, 3, 29]",8,3,"[6, 10, 12]",53.90996014,12285,1067,2,1,10,1.527949676112761
basic,30,45,0,0,0,10,"[0, 15, 23, 20, 7, 2, 3, 29, 10]",9,1,[6],32.36930092,13901,1616,1,0,10,1.8188082660591487
basic,30,45,0,0,1,6,"[0, 15, 23, 20, 7, 2, 3, 29, 10, 6]",10,0,[],6.120491419,15178,1277,1,0,10,1.7062675391073039
basic,30,45,0,1,1,6,"[0, 15, 23, 20, 7, 2, 3, 29, 10, 6]",10,0,[],6.120491419,16454,1276,1,0,10,1.7062675391073039
basic,31,23,0,0,0,0,[0],1,28,"[1, 2, 3, 4, 5, 6, 7, 8, 9, 10, 11, 12, 13, 14, 15, 16, 17, 18, 19, 20, 21, 22, 23, 25, 26, 27, 28, 29]",300,410,-1,76,2626,10,0.0
basic,31,23,0,0,0,13,"[0, 13]",2,19,"[1, 2, 3, 5, 6, 7, 8, 9, 10, 12, 14, 17, 18, 19, 21, 22, 23, 27, 29]",189.3202819,4308,3898,9,168,10,1.0
basic,31,23,0,0,0,12,"[0, 13, 12]",3,16,"[1, 2, 3, 6, 7, 8, 9, 10, 14, 17, 18, 21, 22, 23, 27, 29]",177.2372359,5640,1332,9,96,10,1.0014195490503164
basic,31,23,0,0,0,2,"[0, 13, 12, 2]",4,12,"[1, 3, 6, 7, 9, 10, 14, 18, 21, 22, 27, 29]",163.3447919,6639,999,4,30,10,1.0014394317924602
basic,31,23,0,0,0,14,"[0, 13, 12, 2, 14]",5,10,"[1, 3, 6, 7, 9, 10, 18, 22, 27, 29]",148.4787232,7473,834,1,8,10,1.0754577801718215
basic,31,23,0,0,0,9,"[0, 13, 12, 2, 14, 9]",6,8,"[1, 6, 7, 10, 18, 22, 27, 29]",138.0384167,8720,1247,1,6,10,1.2396753751445624
basic,31,23,0,0,0,6,"[0, 13, 12, 2, 14, 9, 6]",7,5,"[7, 18, 22, 27, 29]",106.8935937,9977,1257,2,3,9,1.285292700073252
basic,31,23,0,0,0,27,"[0, 13, 12, 2, 14, 9, 6, 27]",8,1,[18],78.59165027,11203,1226,1,0,9,1.5463829918777812
basic,31,23,0,0,1,18,"[0, 13, 12, 2, 14, 9, 6, 27, 18]",9,0,[],3.278968739,12287,1084,1,0,9,3.0874957439455195
basic,31,23,0,1,1,18,"[0, 13, 12, 2, 14, 9, 6, 27, 18]",9,0,[],3.278968739,13459,1172,1,0,9,3.0874957439455195
basic,32,1,0,0,0,0,[0],1,26,"[1, 2, 4, 5, 7, 8, 9, 10, 11, 12, 13, 14, 15, 16, 17, 18, 19, 20, 21, 22, 23, 24, 25, 26, 28, 29]",300,415,-1,6,74,7,0.0
basic,32,1,0,0,0,14,"[0, 14]",2,19,"[1, 4, 5, 8, 9, 13, 15, 17, 18, 19, 20, 21, 22, 23, 24, 25, 26, 28, 29]",200.1901808,2528,2113,5,42,7,1.0
basic,32,1,0,0,0,17,"[0, 14, 17]",3,15,"[1, 4, 5, 8, 9, 13, 15, 18, 19, 20, 22, 23, 25, 28, 29]",147.8356204,4211,1683,5,27,7,1.0028844724416826
basic,32,1,0,0,0,1,"[0, 14, 17, 1]",4,12,"[4, 5, 8, 9, 15, 18, 20, 22, 23, 25, 28, 29]",123.4840291,5278,1067,5,15,7,1.0264985578353567
basic,32,1,0,0,0,28,"[0, 14, 17, 1, 28]",5,5,"[9, 15, 22, 23, 29]",88.59850198,6399,1121,5,3,7,1.0339861575999345
basic,32,1,0,0,0,23,"[0, 14, 17, 1, 28, 23]",6,2,"[15, 22]",51.70676849,7209,810,2,0,7,1.0327458250705703
basic,32,1,0,0,1,22,"[0, 14, 17, 1, 28, 23, 22]",7,0,[],3.696352956,9460,2251,1,0,7,1.0700788216594126
basic,32,1,0,1,1,22,"[0, 14, 17, 1, 28, 23, 22]",7,0,[],3.696352956,10747,1287,1,0,7,1.0700788216594126
basic,33,27,0,0,0,0,[0],1,26,"[1, 3, 5, 6, 7, 8, 9, 10, 11, 12, 13, 14, 15, 16, 17, 18, 19, 21, 22, 23, 24, 25, 26, 27, 28, 29]",300,318,-1,13,578,11,0.0
basic,33,27,0,0,0,15,"[0, 15]",2,24,"[1, 3, 5, 6, 7, 8, 9, 10, 11, 12, 13, 14, 16, 17, 18, 19, 21, 22, 23, 24, 25, 26, 27, 29]",263.7508621,2097,1779,6,219,11,1.0
basic,33,27,0,0,0,24,"[0, 15, 24]",3,20,"[1, 5, 6, 7, 8, 9, 10, 12, 13, 14, 16, 17, 18, 19, 21, 23, 25, 26, 27, 29]",246.5462115,3330,1233,6,130,11,1.130933077698322
basic,33,27,0,0,0,17,"[0, 15, 24, 17]",4,15,"[1, 6, 8, 10, 12, 13, 14, 16, 18, 19, 23, 25, 26, 27, 29]",229.9932662,4396,1066,4,60,11,1.1285538435963374
basic,33,27,0,0,0,12,"[0, 15, 24, 17, 12]",5,14,"[1, 6, 8, 10, 13, 14, 16, 18, 19, 23, 25, 26, 27, 29]",218.8129263,7409,3013,2,32,11,1.2561880288755216
basic,33,27,0,0,0,10,"[0, 15, 24, 17, 12, 10]",6,11,"[1, 8, 13, 14, 18, 19, 23, 25, 26, 27, 29]",207.7675653,8943,1534,2,28,11,1.2228289337766665
basic,33,27,0,0,0,13,"[0, 15, 24, 17, 12, 10, 13]",7,9,"[1, 8, 14, 18, 19, 23, 26, 27, 29]",167.9178476,10358,1415,2,18,11,1.3421291994761178
basic,33,27,0,0,0,19,"[0, 15, 24, 17, 12, 10, 13, 19]",8,5,"[1, 8, 14, 23, 29]",131.6825057,12776,2418,2,6,11,1.294749956153846
basic,33,27,0,0,0,8,"[0, 15, 24, 17, 12, 10, 13, 19, 8]",9,3,"[14, 23, 29]",116.816437,15572,2796,2,1,11,1.3554286578836865
basic,33,27,0,0,0,29,"[0, 15, 24, 17, 12, 10, 13, 19, 8, 29]",10,1,[14],57.61339652,17070,1498,1,0,11,1.248354519573802
basic,33,27,0,0,1,14,"[0, 15, 24, 17, 12, 10, 13, 19, 8, 29, 14]",11,0,[],13.31892734,18541,1471,1,0,11,1.562811097555156
basic,33,27,0,1,1,14,"[0, 15, 24, 17, 12, 10, 13, 19, 8, 29, 14]",11,0,[],13.31892734,19711,1170,1,0,11,1.562811097555156
basic,34,37,0,0,0,0,[0],1,29,"[1, 2, 3, 4, 5, 6, 7, 8, 9, 10, 11, 12, 13, 14, 15, 16, 17, 18, 19, 20, 21, 22, 23, 24, 25, 26, 27, 28, 29]",300,302,-1,6,168,10,0.0
basic,34,37,0,0,0,18,"[0, 18]",2,19,"[1, 2, 4, 6, 7, 9, 10, 12, 14, 15, 17, 19, 20, 21, 22, 23, 26, 28, 29]",202.4090168,3463,3161,6,89,10,1.0
basic,34,37,0,0,0,7,"[0, 18, 7]",3,12,"[1, 2, 4, 9, 15, 17, 19, 20, 21, 22, 26, 29]",175.2428614,4533,1070,6,53,10,1.0413073512834488
basic,34,37,0,0,0,22,"[0, 18, 7, 22]",4,8,"[1, 2, 4, 15, 19, 20, 21, 26]",125.2428614,5679,1146,6,29,10,1.0730792320325544
basic,34,37,0,0,0,4,"[0, 18, 7, 22, 4]",5,7,"[1, 2, 15, 19, 20, 21, 26]",100.2428614,6660,981,4,16,10,1.2290245562206235
basic,34,37,0,0,0,2,"[0, 18, 7, 22, 4, 2]",6,5,"[1, 15, 19, 20, 21]",88.84110714,7494,834,4,7,10,1.3968113858365216
basic,34,37,0,0,0,1,"[0, 18, 7, 22, 4, 2, 1]",7,4,"[15, 19, 20, 21]",71.63645661,9232,1738,4,3,10,1.4424239294761476
basic,34,37,0,0,0,20,"[0, 18, 7, 22, 4, 2, 1, 20]",8,3,"[15, 19, 21]",37.40197107,10708,1476,2,1,10,1.7518607796010042
basic,34,37,0,0,0,21,"[0, 18, 7, 22, 4, 2, 1, 20, 21]",9,1,[15],22.97976597,11876,1168,1,0,10,1.7849997782949483
basic,34,37,0,0,1,15,"[0, 18, 7, 22, 4, 2, 1, 20, 21, 15]",10,0,[],7.979765971,13356,1480,1,0,10,1.7549597142828803
basic,34,37,0,1,1,15,"[0, 18, 7, 22, 4, 2, 1, 20, 21, 15]",10,0,[],7.979765971,14929,1573,1,0,10,1.7549597142828803
basic,35,5,0,0,0,0,[0],1,29,"[1, 2, 3, 4, 5, 6, 7, 8, 9, 10, 11, 12, 13, 14, 15, 16, 17, 18, 19, 20, 21, 22, 23, 24, 25, 26, 27, 28, 29]",300,319,-1,5,139,9,0.0
basic,35,5,0,0,0,23,"[0, 23]",2,27,"[1, 2, 3, 4, 5, 6, 7, 8, 9, 10, 11, 12, 13, 14, 15, 16, 17, 18, 19, 20, 21, 22, 24, 25, 26, 27, 28]",249.8402552,4411,4092,3,75,9,1.0
basic,35,5,0,0,0,25,"[0, 23, 25]",3,23,"[1, 2, 3, 4, 5, 6, 8, 9, 10, 12, 13, 14, 15, 16, 17, 18, 19, 21, 22, 24, 26, 27, 28]",231.4011663,6360,1949,3,43,9,1.0923159590575564
basic,35,5,0,0,0,12,"[0, 23, 25, 12]",4,19,"[2, 4, 5, 6, 8, 9, 10, 13, 14, 15, 16, 17, 18, 19, 21, 22, 24, 26, 27]",203.6162783,8059,1699,13,38,8,1.344380276762952
basic,35,5,0,0,0,24,"[0, 23, 25, 12, 24]",5,13,"[4, 5, 6, 8, 9, 13, 15, 17, 18, 19, 22, 26, 27]",151.7607096,9109,1050,9,16,8,2.0468715098289354
basic,35,5,0,0,0,17,"[0, 23, 25, 12, 24, 17]",6,7,"[4, 5, 6, 8, 15, 18, 19]",116.7749983,10081,972,8,2,8,1.715984108382044
basic,35,5,0,0,0,5,"[0, 23, 25, 12, 24, 17, 5]",7,4,"[4, 6, 15, 18]",73.72851177,11125,1044,4,0,8,1.5138688362730213
basic,35,5,0,0,1,15,"[0, 23, 25, 12, 24, 17, 5, 15]",8,0,[],33.70351958,12207,1082,1,0,8,1.5069791680385138
basic,35,5,0,1,1,15,"[0, 23, 25, 12, 24, 17, 5, 15]",8,0,[],33.70351958,15028,2821,1,0,8,1.5069791680385138
basic,36,20,0,0,0,0,[0],1,21,"[1, 2, 3, 4, 5, 6, 7, 8, 9, 12, 17, 18, 20, 21, 22, 23, 25, 26, 27, 28, 29]",300,367,-1,1,9,9,0.0
basic,36,20,0,0,0,5,"[0, 5]",2,14,"[1, 3, 4, 6, 8, 9, 12, 20, 21, 23, 26, 27, 28, 29]",174.3576505,2327,1960,3,24,7,1.0
basic,36,20,0,0,0,21,"[0, 5, 21]",3,10,"[1, 4, 6, 8, 9, 20, 23, 26, 27, 28]",129.3576505,4360,2033,3,13,7,1.000374735486217
basic,36,20,0,0,0,8,"[0, 5, 21, 8]",4,6,"[1, 6, 9, 23, 27, 28]",111.8934013,7676,3316,3,7,7,1.0232558372988163
basic,36,20,0,0,0,23,"[0, 5, 21, 8, 23]",5,4,"[6, 9, 27, 28]",67.20559531,8841,1165,2,2,7,1.022001720978389
basic,36,20,0,0,0,9,"[0, 5, 21, 8, 23, 9]",6,1,[6],47.9962226,12124,3283,1,0,7,1.0216742507052117
basic,36,20,0,0,1,6,"[0, 5, 21, 8, 23, 9, 6]",7,0,[],24.97449373,14268,2144,1,0,7,1.037647415066349
basic,36,20,0,1,1,6,"[0, 5, 21, 8, 23, 9, 6]",7,0,[],24.97449373,16427,2159,1,0,7,1.037647415066349
basic,37,21,0,0,0,0,[0],1,29,"[1, 2, 3, 4, 5, 6, 7, 8, 9, 10, 11, 12, 13, 14, 15, 16, 17, 18, 19, 20, 21, 22, 23, 24, 25, 26, 27, 28, 29]",300,336,-1,84,830,9,0.0
basic,37,21,0,0,0,25,"[0, 25]",2,26,"[1, 2, 3, 4, 5, 6, 7, 8, 9, 10, 11, 12, 13, 14, 15, 16, 17, 18, 20, 21, 22, 23, 24, 26, 27, 29]",240.1836143,3128,2792,30,238,9,1.0
basic,37,21,0,0,0,23,"[0, 25, 23]",3,21,"[1, 2, 4, 6, 7, 8, 9, 10, 11, 12, 14, 15, 16, 17, 18, 20, 21, 22, 24, 27, 29]",196.8592562,4128,1000,14,80,9,1.0416131642057598
basic,37,21,0,0,0,21,"[0, 25, 23, 21]",4,14,"[1, 4, 6, 8, 9, 14, 15, 16, 17, 18, 20, 22, 24, 29]",167.2450705,5134,1006,10,25,9,1.4768792067751173
basic,37,21,0,0,0,14,"[0, 25, 23, 21, 14]",5,10,"[4, 8, 9, 15, 16, 17, 18, 22, 24, 29]",141.6325735,6317,1183,8,13,9,1.3826076066332742
basic,37,21,0,0,0,4,"[0, 25, 23, 21, 14, 4]",6,7,"[8, 15, 16, 17, 18, 24, 29]",127.4904379,8339,2022,8,3,9,1.3487191473328533
basic,37,21,0,0,0,16,"[0, 25, 23, 21, 14, 4, 16]",7,3,"[8, 15, 24]",82.89223163,9726,1387,4,1,9,1.3301484172843694
basic,37,21,0,0,0,8,"[0, 25, 23, 21, 14, 4, 16, 8]",8,2,"[15, 24]",64.2911564,10758,1032,2,0,9,1.3009886562393016
basic,37,21,0,0,1,15,"[0, 25, 23, 21, 14, 4, 16, 8, 15]",9,0,[],39.2911564,11908,1150,1,0,9,1.5486591410600183
basic,37,21,0,1,1,15,"[0, 25, 23, 21, 14, 4, 16, 8, 15]",9,0,[],39.2911564,14047,2139,1,0,9,1.5486591410600183
basic,38,38,0,0,0,0,[0],1,29,"[1, 2, 3, 4, 5, 6, 7, 8, 9, 10, 11, 12, 13, 14, 15, 16, 17, 18, 19, 20, 21, 22, 23, 24, 25, 26, 27, 28, 29]",300,312,-1,33,506,9,0.0
basic,38,38,0,0,0,19,"[0, 19]",2,23,"[3, 4, 5, 6, 7, 8, 9, 11, 13, 14, 15, 16, 17, 18, 20, 22, 23, 24, 25, 26, 27, 28, 29]",219.5015528,2340,2028,6,61,9,1.0
basic,38,38,0,0,0,17,"[0, 19, 17]",3,21,"[3, 4, 5, 6, 7, 9, 11, 13, 14, 15, 16, 18, 20, 22, 23, 24, 25, 26, 27, 28, 29]",198.1239945,4133,1793,6,53,9,1.571793785769489
basic,38,38,0,0,0,20,"[0, 19, 17, 20]",4,17,"[3, 4, 5, 6, 7, 11, 13, 14, 15, 16, 18, 22, 24, 25, 26, 27, 28]",174.3542658,5036,903,6,44,9,2.333182710277297
basic,38,38,0,0,0,4,"[0, 19, 17, 20, 4]",5,10,"[5, 11, 13, 14, 15, 16, 24, 26, 27, 28]",140.4131403,8232,3196,5,22,9,2.276099229646013
basic,38,38,0,0,0,15,"[0, 19, 17, 20, 4, 15]",6,8,"[5, 11, 13, 14, 16, 24, 26, 28]",114.4131403,9415,1183,5,6,9,2.5292671156176403
basic,38,38,0,0,0,11,"[0, 19, 17, 20, 4, 15, 11]",7,2,"[16, 28]",78.01259089,10615,1200,2,0,9,2.778100109749787
basic,38,38,0,0,0,28,"[0, 19, 17, 20, 4, 15, 11, 28]",8,1,[16],50.99407872,15232,4617,1,0,9,2.3316428595723258
basic,38,38,0,0,1,16,"[0, 19, 17, 20, 4, 15, 11, 28, 16]",9,0,[],21.99407872,17913,2681,1,0,9,2.5408012360364265
basic,38,38,0,1,1,16,"[0, 19, 17, 20, 4, 15, 11, 28, 16]",9,0,[],21.99407872,19116,1203,1,0,9,2.5408012360364265
basic,39,2,0,0,0,0,[0],1,23,"[1, 2, 4, 5, 6, 7, 8, 9, 12, 13, 15, 16, 17, 18, 19, 20, 22, 23, 25, 26, 27, 28, 29]",300,353,-1,70,620,10,0.0
basic,39,2,0,0,0,19,"[0, 19]",2,22,"[1, 2, 4, 5, 6, 7, 8, 9, 12, 13, 15, 16, 17, 18, 20, 22, 23, 25, 26, 27, 28, 29]",210.306076,1964,1611,67,431,10,1.0
basic,39,2,0,0,0,12,"[0, 19, 12]",3,17,"[1, 4, 5, 6, 7, 13, 15, 16, 17, 18, 20, 22, 25, 26, 27, 28, 29]",174.2921898,3063,1099,66,298,10,1.1107635036313153
basic,39,2,0,0,0,5,"[0, 19, 12, 5]",4,11,"[1, 6, 7, 13, 15, 16, 18, 22, 25, 26, 29]",144.7625437,3912,849,38,136,10,1.0968174771581647
basic,39,2,0,0,0,22,"[0, 19, 12, 5, 22]",5,8,"[1, 6, 7, 13, 15, 18, 26, 29]",131.9562952,5314,1402,20,63,10,1.0889910507461968
basic,39,2,0,0,0,13,"[0, 19, 12, 5, 22, 13]",6,7,"[1, 6, 7, 15, 18, 26, 29]",117.0902265,6328,1014,19,20,10,1.236526217328057
basic,39,2,0,0,0,18,"[0, 19, 12, 5, 22, 13, 18]",7,4,"[7, 15, 26, 29]",81.91921567,7816,1488,10,3,10,1.2128708213409936
basic,39,2,0,0,0,7,"[0, 19, 12, 5, 22, 13, 18, 7]",8,3,"[15, 26, 29]",71.62358553,8771,955,5,0,10,1.2019811287894737
basic,39,2,0,0,0,15,"[0, 19, 12, 5, 22, 13, 18, 7, 15]",9,2,"[26, 29]",56.85876247,10127,1356,2,0,10,1.2907869828541363
basic,39,2,0,0,1,26,"[0, 19, 12, 5, 22, 13, 18, 7, 15, 26]",10,0,[],32.6513256,12275,2148,1,0,10,1.2648554428941847
basic,39,2,0,1,1,26,"[0, 19, 12, 5, 22, 13, 18, 7, 15, 26]",10,0,[],32.6513256,14597,2322,1,0,10,1.2648554428941847
basic,40,39,0,0,0,0,[0],1,28,"[1, 2, 3, 4, 5, 6, 7, 9, 10, 11, 12, 13, 14, 15, 16, 17, 18, 19, 20, 21, 22, 23, 24, 25, 26, 27, 28, 29]",300,302,-1,1,30,10,0.0
basic,40,39,0,0,0,14,"[0, 14]",2,26,"[1, 2, 3, 4, 5, 6, 7, 9, 10, 12, 13, 15, 16, 17, 18, 19, 20, 21, 22, 23, 24, 25, 26, 27, 28, 29]",286.9615952,5286,4984,1,22,10,1.0
basic,40,39,0,0,0,29,"[0, 14, 29]",3,23,"[1, 2, 3, 4, 5, 6, 7, 9, 10, 12, 13, 15, 16, 17, 18, 19, 21, 22, 23, 24, 25, 26, 28]",218.9321898,6411,1125,1,21,10,1.4237768813412561
basic,40,39,0,0,0,12,"[0, 14, 29, 12]",4,16,"[1, 2, 4, 5, 7, 9, 10, 13, 15, 16, 18, 19, 22, 23, 24, 26]",158.3929463,7494,1083,1,11,10,1.2085522586932163
basic,40,39,0,0,0,10,"[0, 14, 29, 12, 10]",5,11,"[1, 4, 5, 7, 15, 16, 18, 19, 22, 23, 26]",122.8823845,8943,1449,1,8,10,1.4905426536315662
basic,40,39,0,0,0,7,"[0, 14, 29, 12, 10, 7]",6,6,"[1, 16, 18, 19, 22, 26]",89.46083457,10110,1167,1,6,10,1.3836596018032035
basic,40,39,0,0,0,26,"[0, 14, 29, 12, 10, 7, 26]",7,3,"[16, 19, 22]",70.77929288,10910,800,1,4,10,1.4191124441944845
basic,40,39,0,0,0,22,"[0, 14, 29, 12, 10, 7, 26, 22]",8,2,"[16, 19]",53.05924773,12044,1134,1,1,10,1.594793297833885
basic,40,39,0,0,0,16,"[0, 14, 29, 12, 10, 7, 26, 22, 16]",9,1,[19],18.05924773,13027,983,1,0,10,1.48519520801471
basic,40,39,0,0,1,19,"[0, 14, 29, 12, 10, 7, 26, 22, 16, 19]",10,0,[],0.594998533,14493,1466,1,0,10,1.484277847976571
basic,40,39,0,1,1,19,"[0, 14, 29, 12, 10, 7, 26, 22, 16, 19]",10,0,[],0.594998533,15879,1386,1,0,10,1.484277847976571
basic,41,7,0,0,0,0,[0],1,29,"[1, 2, 3, 4, 5, 6, 7, 8, 9, 10, 11, 12, 13, 14, 15, 16, 17, 18, 19, 20, 21, 22, 23, 24, 25, 26, 27, 28, 29]",300,446,-1,3,79,9,0.0
basic,41,7,0,0,0,6,"[0, 6]",2,22,"[2, 4, 5, 7, 8, 9, 10, 11, 13, 14, 15, 16, 18, 19, 20, 21, 22, 23, 24, 25, 27, 28]",231.1160396,4549,4103,1,24,9,1.0
basic,41,7,0,0,0,25,"[0, 6, 25]",3,14,"[2, 4, 5, 7, 13, 14, 15, 16, 18, 19, 20, 21, 23, 28]",163.9371739,5480,931,1,15,9,1.1491202566384209
basic,41,7,0,0,0,4,"[0, 6, 25, 4]",4,10,"[2, 7, 13, 15, 16, 18, 19, 20, 21, 23]",139.1985401,6345,865,1,9,9,1.145081852791697
basic,41,7,0,0,0,20,"[0, 6, 25, 4, 20]",5,6,"[2, 7, 13, 16, 18, 19]",119.5516574,8308,1963,1,4,9,1.2036846139155144
basic,41,7,0,0,0,18,"[0, 6, 25, 4, 20, 18]",6,5,"[2, 7, 13, 16, 19]",106.7454089,11995,3687,1,3,9,1.3498144584217913
basic,41,7,0,0,0,7,"[0, 6, 25, 4, 20, 18, 7]",7,2,"[2, 19]",65.51435269,14879,2884,1,1,9,1.2817825700699357
basic,41,7,0,0,0,19,"[0, 6, 25, 4, 20, 18, 7, 19]",8,1,[2],36.10347035,16274,1395,1,0,9,1.3950287830764145
basic,41,7,0,0,1,2,"[0, 6, 25, 4, 20, 18, 7, 19, 2]",9,0,[],5.953843486,17506,1232,1,0,9,1.4010142439340676
basic,41,7,0,1,1,2,"[0, 6, 25, 4, 20, 18, 7, 19, 2]",9,0,[],5.953843486,18928,1422,1,0,9,1.4010142439340676
basic,42,6,0,0,0,0,[0],1,29,"[1, 2, 3, 4, 5, 6, 7, 8, 9, 10, 11, 12, 13, 14, 15, 16, 17, 18, 19, 20, 21, 22, 23, 24, 25, 26, 27, 28, 29]",300,338,-1,180,4304,10,0.0
basic,42,6,0,0,0,3,"[0, 3]",2,28,"[1, 2, 4, 5, 6, 7, 8, 9, 10, 11, 12, 13, 14, 15, 16, 17, 18, 19, 20, 21, 22, 23, 24, 25, 26, 27, 28, 29]",266.4738908,2848,2510,90,1607,10,1.0
basic,42,6,0,0,0,18,"[0, 3, 18]",3,27,"[1, 2, 4, 5, 6, 7, 8, 9, 10, 11, 12, 13, 14, 15, 16, 17, 19, 20, 21, 22, 23, 24, 25, 26, 27, 28, 29]",237.4738908,3979,1131,34,516,10,1.0266750028725786
basic,42,6,0,0,0,17,"[0, 3, 18, 17]",4,26,"[1, 2, 4, 5, 6, 7, 8, 9, 10, 11, 12, 13, 14, 15, 16, 19, 20, 21, 22, 23, 24, 25, 26, 27, 28, 29]",223.5455025,4878,899,17,243,10,1.0832900829093166
basic,42,6,0,0,0,10,"[0, 3, 18, 17, 10]",5,22,"[1, 2, 4, 5, 6, 7, 8, 9, 11, 13, 14, 16, 19, 20, 21, 22, 23, 24, 26, 27, 28, 29]",203.8224196,6065,1187,10,111,10,1.140294203414171
basic,42,6,0,0,0,24,"[0, 3, 18, 17, 10, 24]",6,19,"[1, 2, 4, 5, 6, 7, 8, 11, 13, 14, 16, 20, 21, 22, 23, 26, 27, 28, 29]",190.4060117,7327,1262,10,80,10,1.1264281153820843
basic,42,6,0,0,0,16,"[0, 3, 18, 17, 10, 24, 16]",7,13,"[1, 2, 6, 7, 13, 14, 20, 21, 22, 23, 26, 27, 29]",134.3703088,8745,1418,6,21,10,2.2946652061367843
basic,42,6,0,0,0,29,"[0, 3, 18, 17, 10, 24, 16, 29]",8,7,"[6, 14, 20, 21, 22, 23, 27]",97.68243615,9592,847,5,5,10,1.8995488998077483
basic,42,6,0,0,0,23,"[0, 3, 18, 17, 10, 24, 16, 29, 23]",9,2,"[6, 22]",50.16401866,10826,1234,2,0,10,1.8616504050291767
basic,42,6,0,0,1,6,"[0, 3, 18, 17, 10, 24, 16, 29, 23, 6]",10,0,[],14.8086796,12091,1265,1,0,10,1.7707258119152334
basic,42,6,0,1,1,6,"[0, 3, 18, 17, 10, 24, 16, 29, 23, 6]",10,0,[],14.8086796,13713,1622,1,0,10,1.7707258119152334
basic,43,15,0,0,0,0,[0],1,25,"[1, 2, 3, 4, 7, 8, 9, 10, 11, 12, 13, 14, 15, 16, 18, 20, 21, 22, 23, 24, 25, 26, 27, 28, 29]",300,367,-1,4,65,9,0.0
basic,43,15,0,0,0,16,"[0, 16]",2,16,"[3, 4, 7, 9, 10, 11, 12, 13, 14, 15, 18, 20, 21, 22, 25, 27]",185.8378346,47076,46709,22,104,7,1.0
basic,43,15,0,0,0,11,"[0, 16, 11]",3,13,"[3, 4, 7, 10, 12, 13, 14, 15, 18, 21, 22, 25, 27]",159.818611,50142,3066,10,29,7,1.1289542380807378
basic,43,15,0,0,0,3,"[0, 16, 11, 3]",4,12,"[4, 7, 10, 12, 13, 14, 15, 18, 21, 22, 25, 27]",148.4168567,51157,1015,10,12,7,1.14507593159006
basic,43,15,0,0,0,22,"[0, 16, 11, 3, 22]",5,6,"[4, 10, 13, 14, 15, 18]",98.68758969,52572,1415,4,4,7,1.1668569176120651
basic,43,15,0,0,0,15,"[0, 16, 11, 3, 22, 15]",6,2,"[13, 14]",73.07509274,53640,1068,2,0,7,1.1555413708932987
basic,43,15,0,0,1,13,"[0, 16, 11, 3, 22, 15, 13]",7,0,[],57.81075522,86113,32473,1,0,7,1.2088928499419171
basic,43,15,0,1,1,13,"[0, 16, 11, 3, 22, 15, 13]",7,0,[],57.81075522,88214,2101,1,0,7,1.2088928499419171
basic,44,42,0,0,0,0,[0],1,29,"[1, 2, 3, 4, 5, 6, 7, 8, 9, 10, 11, 12, 13, 14, 15, 16, 17, 18, 19, 20, 21, 22, 23, 24, 25, 26, 27, 28, 29]",300,333,-1,16,302,9,0.0
basic,44,42,0,0,0,4,"[0, 4]",2,28,"[1, 2, 3, 5, 6, 7, 8, 9, 10, 11, 12, 13, 14, 15, 16, 17, 18, 19, 20, 21, 22, 23, 24, 25, 26, 27, 28, 29]",209.5290102,7975,7642,4,80,9,1.0
basic,44,42,0,0,0,5,"[0, 4, 5]",3,26,"[1, 2, 3, 6, 7, 8, 9, 10, 11, 12, 13, 15, 16, 17, 18, 19, 20, 21, 22, 23, 24, 25, 26, 27, 28, 29]",189.6795769,9841,1866,1,20,9,1.0148510397583586
basic,44,42,0,0,0,22,"[0, 4, 5, 22]",4,20,"[1, 2, 3, 6, 7, 8, 9, 11, 15, 17, 18, 19, 20, 21, 23, 24, 25, 26, 27, 29]",161.4483885,11107,1266,1,11,9,1.5637839560024156
basic,44,42,0,0,0,8,"[0, 4, 5, 22, 8]",5,14,"[1, 2, 3, 6, 7, 11, 15, 18, 19, 24, 25, 26, 27, 29]",139.3124449,11958,851,1,10,9,1.4945254875288396
basic,44,42,0,0,0,1,"[0, 4, 5, 22, 8, 1]",6,5,"[2, 7, 19, 26, 27]",90.22069405,21468,9510,1,7,9,1.3471215162642187
basic,44,42,0,0,0,7,"[0, 4, 5, 22, 8, 1, 7]",7,4,"[2, 19, 26, 27]",60.22069405,24254,2786,1,3,9,1.3841357982845324
basic,44,42,0,0,0,26,"[0, 4, 5, 22, 8, 1, 7, 26]",8,1,[27],33.65003354,25305,1051,1,0,9,1.345201850808081
basic,44,42,0,0,1,27,"[0, 4, 5, 22, 8, 1, 7, 26, 27]",9,0,[],15.62227716,26136,831,1,0,9,1.333637721408899
basic,44,42,0,1,1,27,"[0, 4, 5, 22, 8, 1, 7, 26, 27]",9,0,[],15.62227716,27673,1537,1,0,9,1.333637721408899
basic,45,3,0,0,0,0,[0],1,29,"[1, 2, 3, 4, 5, 6, 7, 8, 9, 10, 11, 12, 13, 14, 15, 16, 17, 18, 19, 20, 21, 22, 23, 24, 25, 26, 27, 28, 29]",300,345,-1,34,427,10,0.0
basic,45,3,0,0,0,17,"[0, 17]",2,16,"[3, 4, 7, 8, 10, 12, 14, 15, 16, 19, 20, 21, 22, 24, 26, 27]",197.6965299,4262,3917,2,27,9,1.0
basic,45,3,0,0,0,20,"[0, 17, 20]",3,13,"[3, 4, 7, 8, 10, 14, 15, 16, 19, 21, 22, 24, 27]",185.0474192,5910,1648,2,24,9,1.0153332121237257
basic,45,3,0,0,0,3,"[0, 17, 20, 3]",4,10,"[4, 7, 8, 10, 14, 15, 16, 19, 21, 24]",164.6513412,7161,1251,2,22,9,1.0819240770773468
basic,45,3,0,0,0,19,"[0, 17, 20, 3, 19]",5,6,"[4, 8, 10, 14, 21, 24]",127.3150318,10175,3014,2,11,9,1.1701070532957258
basic,45,3,0,0,0,21,"[0, 17, 20, 3, 19, 21]",6,5,"[4, 8, 10, 14, 24]",115.1084762,11841,1666,2,6,9,1.202395500952127
basic,45,3,0,0,0,14,"[0, 17, 20, 3, 19, 21, 14]",7,4,"[4, 8, 10, 24]",88.20122806,13193,1352,2,2,9,1.6456130302761207
basic,45,3,0,0,0,24,"[0, 17, 20, 3, 19, 21, 14, 24]",8,1,[8],17.08864127,14924,1731,1,0,9,4.806859660680286
basic,45,3,0,0,1,8,"[0, 17, 20, 3, 19, 21, 14, 24, 8]",9,0,[],4.923116212,16022,1098,1,0,9,4.915218144486606
basic,45,3,0,1,1,8,"[0, 17, 20, 3, 19, 21, 14, 24, 8]",9,0,[],4.923116212,17128,1106,1,0,9,4.915218144486606
basic,46,30,0,0,0,0,[0],1,19,"[3, 4, 5, 7, 9, 11, 16, 17, 18, 19, 20, 21, 22, 24, 25, 26, 27, 28, 29]",300,481,-1,5,41,8,0.0
basic,46,30,0,0,0,16,"[0, 16]",2,17,"[3, 5, 7, 9, 11, 17, 18, 19, 20, 21, 22, 24, 25, 26, 27, 28, 29]",219.3774225,5442,4961,5,34,8,1.0
basic,46,30,0,0,0,25,"[0, 16, 25]",3,10,"[3, 5, 7, 9, 11, 18, 19, 20, 27, 29]",115.0845656,6924,1482,5,28,8,1.0336279544884488
basic,46,30,0,0,0,20,"[0, 16, 25, 20]",4,8,"[3, 5, 7, 9, 18, 19, 27, 29]",93.15285342,10504,3580,4,14,8,1.0337964627284246
basic,46,30,0,0,0,27,"[0, 16, 25, 20, 27]",5,4,"[3, 5, 18, 29]",59.09408069,11760,1256,4,6,8,1.1504365534848
basic,46,30,0,0,0,3,"[0, 16, 25, 20, 27, 3]",6,3,"[5, 18, 29]",39.98910751,12704,944,4,0,8,1.1403876826835333
basic,46,30,0,0,0,18,"[0, 16, 25, 20, 27, 3, 18]",7,2,"[5, 29]",21.74081992,15053,2349,2,0,8,1.1392589158498312
basic,46,30,0,0,1,5,"[0, 16, 25, 20, 27, 3, 18, 5]",8,0,[],8.702415112,15904,851,1,0,8,1.2046350140224855
basic,46,30,0,1,1,5,"[0, 16, 25, 20, 27, 3, 18, 5]",8,0,[],8.702415112,16992,1088,1,0,8,1.2046350140224855
basic,47,28,0,0,0,0,[0],1,27,"[1, 2, 3, 4, 5, 6, 7, 8, 9, 10, 11, 12, 13, 14, 15, 16, 17, 18, 19, 20, 22, 23, 25, 26, 27, 28, 29]",300,326,-1,2,96,9,0.0
basic,47,28,0,0,0,5,"[0, 5]",2,21,"[2, 3, 4, 6, 7, 8, 9, 10, 11, 12, 13, 14, 15, 18, 19, 20, 23, 25, 26, 28, 29]",169.6427984,5500,5174,4,42,8,1.0
basic,47,28,0,0,0,28,"[0, 5, 28]",3,6,"[2, 4, 8, 9, 19, 26]",102.7324106,7423,1923,8,4,6,1.067950753028211
basic,47,28,0,0,0,8,"[0, 5, 28, 8]",4,4,"[2, 4, 9, 26]",84.92791679,8532,1109,4,2,6,1.0664265243485462
basic,47,28,0,0,0,9,"[0, 5, 28, 8, 9]",5,3,"[2, 4, 26]",69.79517084,9400,868,3,0,6,1.1187653395352033
basic,47,28,0,0,1,26,"[0, 5, 28, 8, 9, 26]",6,0,[],7.425306318,12099,2699,1,0,6,1.8205733689957095
basic,47,28,0,1,1,26,"[0, 5, 28, 8, 9, 26]",6,0,[],7.425306318,13970,1871,1,0,6,1.8205733689957095
basic,48,36,0,0,0,0,[0],1,24,"[2, 4, 5, 6, 7, 8, 9, 10, 12, 13, 14, 15, 16, 17, 18, 19, 20, 22, 23, 25, 26, 27, 28, 29]",300,309,-1,2,200,10,0.0
basic,48,36,0,0,0,13,"[0, 13]",2,19,"[2, 4, 7, 8, 9, 10, 12, 16, 17, 18, 19, 20, 22, 23, 25, 26, 27, 28, 29]",201.9184013,2741,2432,21,155,8,1.0
basic,48,36,0,0,0,25,"[0, 13, 25]",3,13,"[2, 4, 8, 9, 10, 12, 16, 17, 18, 19, 23, 27, 29]",181.327141,3636,895,18,66,8,1.0365331328777645
basic,48,36,0,0,0,2,"[0, 13, 25, 2]",4,12,"[4, 8, 9, 10, 12, 16, 17, 18, 19, 23, 27, 29]",156.327141,4469,833,17,20,8,1.272238559463773
basic,48,36,0,0,0,19,"[0, 13, 25, 2, 19]",5,6,"[9, 10, 12, 16, 17, 18]",119.2057186,5571,1102,6,5,8,2.3456051864674707
basic,48,36,0,0,0,9,"[0, 13, 25, 2, 19, 9]",6,4,"[12, 16, 17, 18]",104.0729727,6336,765,2,2,8,2.836842075540071
basic,48,36,0,0,0,17,"[0, 13, 25, 2, 19, 9, 17]",7,1,[16],77.8241632,7155,819,1,0,8,2.35070514339729
basic,48,36,0,0,1,16,"[0, 13, 25, 2, 19, 9, 17, 16]",8,0,[],49.50455869,8250,1095,1,0,8,2.3468253891748456
basic,48,36,0,1,1,16,"[0, 13, 25, 2, 19, 9, 17, 16]",8,0,[],49.50455869,10089,1839,1,0,8,2.3468253891748456
basic,49,9,0,0,0,0,[0],1,27,"[1, 3, 4, 5, 6, 7, 8, 9, 10, 11, 13, 14, 15, 16, 17, 18, 19, 20, 21, 22, 23, 24, 25, 26, 27, 28, 29]",300,343,-1,2,182,10,0.0
basic,49,9,0,0,0,25,"[0, 25]",2,24,"[1, 3, 4, 5, 6, 7, 8, 9, 10, 11, 13, 15, 16, 17, 18, 19, 20, 21, 22, 23, 24, 26, 27, 28]",275.9168108,3254,2911,2,104,10,1.0
basic,49,9,0,0,0,10,"[0, 25, 10]",3,20,"[3, 4, 5, 7, 8, 9, 11, 13, 15, 16, 17, 18, 19, 20, 21, 22, 23, 26, 27, 28]",236.0670932,4091,837,2,76,10,1.1767014107208227
basic,49,9,0,0,0,8,"[0, 25, 10, 8]",4,19,"[3, 4, 5, 7, 9, 11, 13, 15, 16, 17, 18, 19, 20, 21, 22, 23, 26, 27, 28]",187.6935467,5453,1362,1,29,10,1.7608170712242983
basic,49,9,0,0,0,28,"[0, 25, 10, 8, 28]",5,18,"[3, 4, 5, 7, 9, 11, 13, 15, 16, 17, 18, 19, 20, 21, 22, 23, 26, 27]",176.8768928,6241,788,1,15,10,1.6576318206889098
basic,49,9,0,0,0,23,"[0, 25, 10, 8, 28, 23]",6,12,"[3, 4, 7, 9, 11, 18, 19, 20, 21, 22, 26, 27]",151.8569008,8484,2243,1,7,10,2.488131366775142
basic,49,9,0,0,0,9,"[0, 25, 10, 8, 28, 23, 9]",7,10,"[3, 4, 7, 11, 18, 19, 20, 21, 26, 27]",129.4962211,9257,773,1,5,10,2.289724512754012
basic,49,9,0,0,0,26,"[0, 25, 10, 8, 28, 23, 9, 26]",8,3,"[18, 20, 21]",72.8481849,10434,1177,1,2,10,1.944382504121744
basic,49,9,0,0,0,21,"[0, 25, 10, 8, 28, 23, 9, 26, 21]",9,1,[20],18.94085701,11949,1515,1,0,10,2.3711528775176802
basic,49,9,0,0,1,20,"[0, 25, 10, 8, 28, 23, 9, 26, 21, 20]",10,0,[],6.85781104,13645,1696,1,0,10,2.3146010432238726
basic,49,9,0,1,1,20,"[0, 25, 10, 8, 28, 23, 9, 26, 21, 20]",10,0,[],6.85781104,14854,1209,1,0,10,2.3146010432238726
basic,50,41,0,0,0,0,[0],1,29,"[1, 2, 3, 4, 5, 6, 7, 8, 9, 10, 11, 12, 13, 14, 15, 16, 17, 18, 19, 20, 21, 22, 23, 24, 25, 26, 27, 28, 29]",300,310,-1,1,143,10,0.0
basic,50,41,0,0,0,13,"[0, 13]",2,23,"[1, 2, 3, 5, 6, 7, 9, 10, 11, 12, 14, 15, 17, 18, 19, 20, 21, 22, 24, 25, 26, 27, 28]",258.2747079,4557,4247,1,55,10,1.0
basic,50,41,0,0,0,28,"[0, 13, 28]",3,22,"[1, 2, 3, 5, 6, 7, 9, 10, 11, 12, 14, 15, 17, 18, 19, 20, 21, 22, 24, 25, 26, 27]",223.7928286,6535,1978,1,39,10,1.895724242592676
basic,50,41,0,0,0,5,"[0, 13, 28, 5]",4,19,"[1, 2, 3, 6, 9, 10, 11, 12, 14, 15, 17, 18, 19, 20, 21, 22, 24, 25, 27]",210.1913581,7974,1439,1,34,10,2.861541269398273
basic,50,41,0,0,0,3,"[0, 13, 28, 5, 3]",5,16,"[1, 2, 6, 9, 10, 12, 14, 17, 18, 19, 20, 21, 22, 24, 25, 27]",175.3632086,9635,1661,1,22,10,3.1455488489005883
basic,50,41,0,0,0,21,"[0, 13, 28, 5, 3, 21]",6,14,"[1, 2, 6, 9, 10, 12, 14, 17, 18, 19, 20, 22, 25, 27]",143.2228912,10635,1000,13,11,9,3.207558429289677
basic,50,41,0,0,0,9,"[0, 13, 28, 5, 3, 21, 9]",7,6,"[1, 2, 10, 12, 14, 17]",93.85691102,12500,1865,7,4,9,2.5050148501792275
basic,50,41,0,0,0,2,"[0, 13, 28, 5, 3, 21, 9, 2]",8,5,"[1, 10, 12, 14, 17]",81.77386505,13234,734,5,0,9,2.4119643847713177
basic,50,41,0,0,1,17,"[0, 13, 28, 5, 3, 21, 9, 2, 17]",9,0,[],49.21622385,16416,3182,1,0,9,3.9563478735796007
basic,50,41,0,1,1,17,"[0, 13, 28, 5, 3, 21, 9, 2, 17]",9,0,[],49.21622385,19021,2605,1,0,9,3.9563478735796007
basic,51,11,0,0,0,0,[0],1,25,"[1, 2, 3, 4, 5, 6, 8, 9, 10, 11, 12, 13, 14, 15, 16, 17, 18, 19, 20, 22, 23, 25, 26, 27, 28]",300,358,-1,6,374,12,0.0
basic,51,11,0,0,0,1,"[0, 1]",2,24,"[2, 3, 4, 5, 6, 8, 9, 10, 11, 12, 13, 14, 15, 16, 17, 18, 19, 20, 22, 23, 25, 26, 27, 28]",264.6446609,2789,2431,6,217,12,1.0
basic,51,11,0,0,0,18,"[0, 1, 18]",3,19,"[2, 4, 5, 6, 8, 9, 11, 12, 14, 15, 16, 17, 19, 20, 22, 23, 25, 27, 28]",212.3187591,4300,1511,6,161,12,1.3884463804898786
basic,51,11,0,0,0,27,"[0, 1, 18, 27]",4,18,"[2, 4, 5, 6, 8, 9, 11, 12, 14, 15, 16, 17, 19, 20, 22, 23, 25, 28]",188.4650382,5118,818,6,155,12,1.3600813284083875
basic,51,11,0,0,0,17,"[0, 1, 18, 27, 17]",5,11,"[2, 5, 6, 8, 11, 12, 15, 19, 22, 25, 28]",111.3871556,8232,3114,2,45,12,1.282398281674261
basic,51,11,0,0,0,8,"[0, 1, 18, 27, 17, 8]",6,7,"[2, 5, 11, 12, 15, 22, 28]",97.0693345,9637,1405,2,21,12,1.3975291553712
basic,51,11,0,0,0,15,"[0, 1, 18, 27, 17, 8, 15]",7,6,"[2, 5, 11, 12, 22, 28]",83.61571045,10582,945,2,18,12,1.3793915678186077
basic,51,11,0,0,0,11,"[0, 1, 18, 27, 17, 8, 15, 11]",8,4,"[2, 5, 22, 28]",65.50494017,12181,1599,2,14,12,1.3525960247899067
basic,51,11,0,0,0,28,"[0, 1, 18, 27, 17, 8, 15, 11, 28]",9,3,"[2, 5, 22]",46.08845233,13665,1484,2,4,12,1.4693669896690256
basic,51,11,0,0,0,22,"[0, 1, 18, 27, 17, 8, 15, 11, 28, 22]",10,2,"[2, 5]",27.70367602,15263,1598,1,1,12,1.4442837306182805
basic,51,11,0,0,0,2,"[0, 1, 18, 27, 17, 8, 15, 11, 28, 22, 2]",11,1,[5],17.6538004,16212,949,1,0,12,1.5818769305111617
basic,51,11,0,0,1,5,"[0, 1, 18, 27, 17, 8, 15, 11, 28, 22, 2, 5]",12,0,[],0.653800401,17729,1517,1,0,12,1.8399455960789832
basic,51,11,0,1,1,5,"[0, 1, 18, 27, 17, 8, 15, 11, 28, 22, 2, 5]",12,0,[],0.653800401,19189,1460,1,0,12,1.8399455960789832
basic,52,22,0,0,0,0,[0],1,29,"[1, 2, 3, 4, 5, 6, 7, 8, 9, 10, 11, 12, 13, 14, 15, 16, 17, 18, 19, 20, 21, 22, 23, 24, 25, 26, 27, 28, 29]",300,295,-1,31,704,9,0.0
basic,52,22,0,0,0,9,"[0, 9]",2,19,"[1, 3, 6, 7, 8, 13, 14, 15, 16, 17, 19, 20, 21, 22, 23, 24, 25, 28, 29]",210.4455473,4091,3796,60,492,8,1.0
basic,52,22,0,0,0,19,"[0, 9, 19]",3,18,"[1, 3, 6, 7, 8, 13, 14, 15, 16, 17, 20, 21, 22, 23, 24, 25, 28, 29]",190.0494692,5352,1261,33,176,8,1.3808697039569915
basic,52,22,0,0,0,29,"[0, 9, 19, 29]",4,17,"[1, 3, 6, 7, 8, 13, 14, 15, 16, 17, 20, 21, 22, 23, 24, 25, 28]",175.0161729,6334,982,25,89,8,1.6230297193549454
basic,52,22,0,0,0,14,"[0, 9, 19, 29, 14]",5,8,"[3, 6, 7, 16, 17, 21, 24, 28]",116.7667093,8605,2271,5,12,8,1.4144756075341427
basic,52,22,0,0,0,7,"[0, 9, 19, 29, 14, 7]",6,7,"[3, 6, 16, 17, 21, 24, 28]",103.7283045,10203,1598,5,4,8,1.5606144249866158
basic,52,22,0,0,0,17,"[0, 9, 19, 29, 14, 7, 17]",7,2,"[21, 24]",62.11100044,11152,949,2,0,8,1.5053552492507773
basic,52,22,0,0,1,24,"[0, 9, 19, 29, 14, 7, 17, 24]",8,0,[],8.510627305,12117,965,1,0,8,2.173116475324055
basic,52,22,0,1,1,24,"[0, 9, 19, 29, 14, 7, 17, 24]",8,0,[],8.510627305,13606,1489,1,0,8,2.173116475324055
basic,53,43,0,0,0,0,[0],1,23,"[1, 2, 3, 4, 5, 6, 7, 9, 10, 11, 12, 14, 15, 16, 17, 19, 20, 21, 22, 23, 25, 27, 29]",300,356,-1,16,556,12,0.0
basic,53,43,0,0,0,29,"[0, 29]",2,22,"[1, 2, 3, 4, 5, 6, 7, 9, 10, 11, 12, 14, 15, 16, 17, 19, 20, 21, 22, 23, 25, 27]",277.909278,2401,2045,16,520,12,1.0
basic,53,43,0,0,0,20,"[0, 29, 20]",3,20,"[1, 2, 3, 4, 6, 7, 9, 10, 11, 12, 14, 15, 16, 17, 19, 21, 22, 23, 25, 27]",254.4785289,3566,1165,15,422,12,1.082311746871282
basic,53,43,0,0,0,16,"[0, 29, 20, 16]",4,19,"[1, 2, 3, 4, 6, 7, 9, 10, 11, 12, 14, 15, 17, 19, 21, 22, 23, 25, 27]",231.8511119,4916,1350,15,389,12,1.215201926898219
basic,53,43,0,0,0,11,"[0, 29, 20, 16, 11]",5,17,"[1, 2, 3, 4, 6, 7, 9, 10, 12, 14, 15, 17, 19, 21, 22, 23, 25]",196.7227758,5948,1032,12,188,12,1.1349145516483516
basic,53,43,0,0,0,6,"[0, 29, 20, 16, 11, 6]",6,15,"[1, 2, 3, 4, 7, 10, 12, 14, 15, 17, 19, 21, 22, 23, 25]",176.1072477,7781,1833,10,100,12,1.123330873754209
basic,53,43,0,0,0,15,"[0, 29, 20, 16, 11, 6, 15]",7,8,"[1, 3, 7, 12, 14, 19, 22, 25]",110.5023698,10031,2250,9,30,11,2.2919374245170157
basic,53,43,0,0,0,25,"[0, 29, 20, 16, 11, 6, 15, 25]",8,4,"[3, 12, 19, 22]",87.83080171,10979,948,3,5,11,2.675204662186071
basic,53,43,0,0,0,12,"[0, 29, 20, 16, 11, 6, 15, 25, 12]",9,3,"[3, 19, 22]",63.64402846,12518,1539,3,1,11,2.3908516524722874
basic,53,43,0,0,0,3,"[0, 29, 20, 16, 11, 6, 15, 25, 12, 3]",10,2,"[19, 22]",50.64402846,14677,2159,2,0,11,2.238380338211026
basic,53,43,0,0,1,22,"[0, 29, 20, 16, 11, 6, 15, 25, 12, 3, 22]",11,0,[],15.93091855,16312,1635,1,0,11,2.381759079301382
basic,53,43,0,1,1,22,"[0, 29, 20, 16, 11, 6, 15, 25, 12, 3, 22]",11,0,[],15.93091855,18033,1721,1,0,11,2.381759079301382
basic,54,13,0,0,0,0,[0],1,29,"[1, 2, 3, 4, 5, 6, 7, 8, 9, 10, 11, 12, 13, 14, 15, 16, 17, 18, 19, 20, 21, 22, 23, 24, 25, 26, 27, 28, 29]",300,429,-1,60,2676,11,0.0
basic,54,13,0,0,0,24,"[0, 24]",2,28,"[1, 2, 3, 4, 5, 6, 7, 8, 9, 10, 11, 12, 13, 14, 15, 16, 17, 18, 19, 20, 21, 22, 23, 25, 26, 27, 28, 29]",288.8196601,3423,2994,16,1444,11,1.0
basic,54,13,0,0,0,23,"[0, 24, 23]",3,27,"[1, 2, 3, 4, 5, 6, 7, 8, 9, 10, 11, 12, 13, 14, 15, 16, 17, 18, 19, 20, 21, 22, 25, 26, 27, 28, 29]",243.1140806,4646,1223,2,868,11,1.0065545717039834
basic,54,13,0,0,0,16,"[0, 24, 23, 16]",4,25,"[1, 2, 3, 4, 6, 7, 8, 9, 10, 11, 12, 13, 14, 15, 17, 18, 19, 20, 21, 22, 25, 26, 27, 28, 29]",202.8027918,6909,2263,1,145,11,1.055930143104189
basic,54,13,0,0,0,3,"[0, 24, 23, 16, 3]",5,20,"[2, 4, 6, 7, 8, 9, 10, 11, 13, 14, 15, 18, 20, 21, 22, 25, 26, 27, 28, 29]",174.3598665,8010,1101,3,44,10,1.233783650807853
basic,54,13,0,0,0,20,"[0, 24, 23, 16, 3, 20]",6,15,"[4, 6, 7, 8, 9, 11, 14, 18, 21, 22, 25, 26, 27, 28, 29]",155.3335689,8822,812,7,15,9,1.3149320474556456
basic,54,13,0,0,0,4,"[0, 24, 23, 16, 3, 20, 4]",7,5,"[6, 8, 18, 25, 27]",133.3108534,10055,1233,2,4,9,1.2859964130018764
basic,54,13,0,0,0,27,"[0, 24, 23, 16, 3, 20, 4, 27]",8,2,"[8, 18]",111.2881379,10808,753,2,0,9,1.3345945780156503
basic,54,13,0,0,1,18,"[0, 24, 23, 16, 3, 20, 4, 27, 18]",9,0,[],16.20922326,12392,1584,1,0,9,1.2000709670094927
basic,54,13,0,1,1,18,"[0, 24, 23, 16, 3, 20, 4, 27, 18]",9,0,[],16.20922326,13675,1283,1,0,9,1.2000709670094927
basic,55,35,0,0,0,0,[0],1,29,"[1, 2, 3, 4, 5, 6, 7, 8, 9, 10, 11, 12, 13, 14, 15, 16, 17, 18, 19, 20, 21, 22, 23, 24, 25, 26, 27, 28, 29]",300,366,-1,5,236,11,0.0
basic,55,35,0,0,0,24,"[0, 24]",2,27,"[1, 2, 4, 5, 6, 7, 8, 9, 10, 11, 12, 13, 14, 15, 16, 17, 18, 19, 20, 21, 22, 23, 25, 26, 27, 28, 29]",268.9838752,4792,4426,49,512,10,1.0
basic,55,35,0,0,0,17,"[0, 24, 17]",3,26,"[1, 2, 4, 5, 6, 7, 8, 9, 10, 11, 12, 13, 14, 15, 16, 18, 19, 20, 21, 22, 23, 25, 26, 27, 28, 29]",257.2791753,5940,1148,33,238,10,1.0771477201815276
basic,55,35,0,0,0,1,"[0, 24, 17, 1]",4,25,"[2, 4, 5, 6, 7, 8, 9, 10, 11, 12, 13, 14, 15, 16, 18, 19, 20, 21, 22, 23, 25, 26, 27, 28, 29]",241.4677869,6757,817,26,151,10,1.2244804141479215
basic,55,35,0,0,0,23,"[0, 24, 17, 1, 23]",5,14,"[2, 4, 5, 6, 9, 15, 18, 19, 20, 25, 26, 27, 28, 29]",182.9442874,8307,1550,25,33,9,1.1009726708851126
basic,55,35,0,0,0,9,"[0, 24, 17, 1, 23, 9]",6,8,"[5, 6, 15, 18, 19, 25, 27, 28]",145.3012269,9155,848,7,6,9,1.376147155000847
basic,55,35,0,0,0,18,"[0, 24, 17, 1, 23, 9, 18]",7,5,"[5, 6, 15, 19, 25]",125.2762426,9938,783,3,3,9,1.3583304940000351
basic,55,35,0,0,0,25,"[0, 24, 17, 1, 23, 9, 18, 25]",8,1,[6],91.43839392,11488,1550,1,0,9,1.2878836036593553
basic,55,35,0,0,1,6,"[0, 24, 17, 1, 23, 9, 18, 25, 6]",9,0,[],67.41756962,12973,1485,1,0,9,1.5380229381901187
basic,55,35,0,1,1,6,"[0, 24, 17, 1, 23, 9, 18, 25, 6]",9,0,[],67.41756962,14542,1569,1,0,9,1.5380229381901187
basic,56,12,0,0,0,0,[0],1,29,"[1, 2, 3, 4, 5, 6, 7, 8, 9, 10, 11, 12, 13, 14, 15, 16, 17, 18, 19, 20, 21, 22, 23, 24, 25, 26, 27, 28, 29]",300,395,-1,2,32,9,0.0
basic,56,12,0,0,0,16,"[0, 16]",2,16,"[2, 4, 5, 6, 7, 12, 13, 14, 18, 19, 22, 23, 24, 25, 27, 29]",209.2916762,2113,1718,3,38,8,1.0
basic,56,12,0,0,0,4,"[0, 16, 4]",3,11,"[2, 5, 6, 7, 12, 14, 19, 22, 24, 25, 27]",175.0864135,3093,980,1,16,8,1.00004499617691
basic,56,12,0,0,0,12,"[0, 16, 4, 12]",4,6,"[14, 19, 22, 24, 25, 27]",132.8963673,4144,1051,1,8,8,1.0113942412768022
basic,56,12,0,0,0,27,"[0, 16, 4, 12, 27]",5,4,"[14, 19, 22, 24]",108.5447759,4947,803,1,3,8,1.1193150037844588
basic,56,12,0,0,0,14,"[0, 16, 4, 12, 27, 14]",6,2,"[19, 24]",79.89167838,6177,1230,1,1,8,1.1821826897854277
basic,56,12,0,0,0,24,"[0, 16, 4, 12, 27, 14, 24]",7,1,[19],62.68702784,6910,733,1,0,8,1.3297400833764192
basic,56,12,0,0,1,19,"[0, 16, 4, 12, 27, 14, 24, 19]",8,0,[],3.865263163,8113,1203,1,0,8,2.27325645157102
basic,56,12,0,1,1,19,"[0, 16, 4, 12, 27, 14, 24, 19]",8,0,[],3.865263163,9014,901,1,0,8,2.27325645157102
basic,57,26,0,0,0,0,[0],1,29,"[1, 2, 3, 4, 5, 6, 7, 8, 9, 10, 11, 12, 13, 14, 15, 16, 17, 18, 19, 20, 21, 22, 23, 24, 25, 26, 27, 28, 29]",300,374,-1,9,226,9,0.0
basic,57,26,0,0,0,21,"[0, 21]",2,25,"[2, 3, 4, 5, 6, 7, 8, 10, 11, 12, 13, 14, 15, 16, 17, 18, 19, 22, 23, 24, 25, 26, 27, 28, 29]",211.1349337,4495,4121,7,90,9,1.0
basic,57,26,0,0,0,13,"[0, 21, 13]",3,21,"[3, 4, 5, 6, 7, 8, 10, 11, 12, 14, 15, 16, 17, 18, 19, 22, 23, 24, 25, 26, 29]",188.9989901,5729,1234,6,45,9,1.0103952279992225
basic,57,26,0,0,0,5,"[0, 21, 13, 5]",4,12,"[3, 4, 11, 14, 16, 17, 18, 22, 23, 25, 26, 29]",150.7106107,7348,1619,2,10,8,1.0086890649024711
basic,57,26,0,0,0,23,"[0, 21, 13, 5, 23]",5,8,"[3, 4, 11, 14, 16, 17, 22, 29]",118.0150452,8430,1082,2,7,8,1.3518621918690494
basic,57,26,0,0,0,16,"[0, 21, 13, 5, 23, 16]",6,4,"[4, 14, 17, 29]",64.77971862,9594,1164,2,3,8,2.1011863559657242
basic,57,26,0,0,0,29,"[0, 21, 13, 5, 23, 16, 29]",7,2,"[4, 17]",40.57228175,10615,1021,2,0,8,2.123178325538451
basic,57,26,0,0,1,4,"[0, 21, 13, 5, 23, 16, 29, 4]",8,0,[],16.57228175,11412,797,1,0,8,2.338467952972574
basic,57,26,0,1,1,4,"[0, 21, 13, 5, 23, 16, 29, 4]",8,0,[],16.57228175,12981,1569,1,0,8,2.338467952972574
basic,58,16,0,0,0,0,[0],1,29,"[1, 2, 3, 4, 5, 6, 7, 8, 9, 10, 11, 12, 13, 14, 15, 16, 17, 18, 19, 20, 21, 22, 23, 24, 25, 26, 27, 28, 29]",300,302,-1,13,161,9,0.0
basic,58,16,0,0,0,28,"[0, 28]",2,27,"[1, 2, 3, 4, 5, 7, 8, 9, 10, 11, 12, 13, 14, 15, 16, 17, 18, 19, 20, 21, 22, 23, 24, 25, 26, 27, 29]",284.3475242,9732,9430,11,92,9,1.0
basic,58,16,0,0,0,21,"[0, 28, 21]",3,26,"[1, 2, 3, 4, 5, 7, 8, 9, 10, 11, 12, 13, 14, 15, 16, 17, 18, 19, 20, 22, 23, 24, 25, 26, 27, 29]",205.0380039,11510,1778,1,25,9,1.1196822789757879
basic,58,16,0,0,0,8,"[0, 28, 21, 8]",4,17,"[2, 3, 4, 5, 9, 12, 13, 14, 15, 16, 17, 19, 20, 22, 25, 27, 29]",155.7835625,12377,867,1,16,9,1.1626955570627597
basic,58,16,0,0,0,20,"[0, 28, 21, 8, 20]",5,8,"[3, 4, 5, 9, 12, 13, 15, 25]",98.0081352,14178,1801,1,7,9,1.1163179516060644
basic,58,16,0,0,0,25,"[0, 28, 21, 8, 20, 25]",6,6,"[3, 4, 5, 9, 12, 15]",85.35902455,15311,1133,1,4,9,1.1649281507703637
basic,58,16,0,0,0,9,"[0, 28, 21, 8, 20, 25, 9]",7,2,"[5, 15]",72.55277608,16175,864,1,1,9,1.1543165124516757
basic,58,16,0,0,1,5,"[0, 28, 21, 8, 20, 25, 9, 5]",8,0,[],20.54316158,17924,1749,1,0,8,1.4775945186807862
basic,58,16,0,1,1,5,"[0, 28, 21, 8, 20, 25, 9, 5]",8,0,[],20.54316158,19429,1505,1,0,8,1.4775945186807862
basic,59,8,0,0,0,0,[0],1,29,"[1, 2, 3, 4, 5, 6, 7, 8, 9, 10, 11, 12, 13, 14, 15, 16, 17, 18, 19, 20, 21, 22, 23, 24, 25, 26, 27, 28, 29]",300,369,-1,10,149,9,0.0
basic,59,8,0,0,0,5,"[0, 5]",2,28,"[1, 2, 3, 4, 6, 7, 8, 9, 10, 11, 12, 13, 14, 15, 16, 17, 18, 19, 20, 21, 22, 23, 24, 25, 26, 27, 28, 29]",254.5137383,10575,10206,10,100,9,1.0
basic,59,8,0,0,0,14,"[0, 5, 14]",3,20,"[1, 2, 3, 4, 6, 7, 11, 15, 16, 17, 18, 19, 20, 21, 22, 23, 24, 25, 28, 29]",214.5512559,11872,1297,4,36,9,1.0001019035932595
basic,59,8,0,0,0,17,"[0, 5, 14, 17]",4,15,"[1, 4, 6, 7, 11, 15, 16, 18, 19, 20, 22, 23, 24, 25, 28]",177.5377449,13259,1387,4,16,9,1.121197267659591
basic,59,8,0,0,0,11,"[0, 5, 14, 17, 11]",5,11,"[1, 4, 15, 16, 18, 19, 22, 23, 24, 25, 28]",152.3583883,14993,1734,4,8,9,1.1277254166016362
basic,59,8,0,0,0,24,"[0, 5, 14, 17, 11, 24]",6,3,"[15, 16, 28]",115.1428001,16507,1514,2,2,9,1.1227411011978805
basic,59,8,0,0,0,15,"[0, 5, 14, 17, 11, 24, 15]",7,2,"[16, 28]",98.37974552,17641,1134,2,0,9,1.1956385406066814
basic,59,8,0,0,0,16,"[0, 5, 14, 17, 11, 24, 15, 16]",8,1,[28],47.30137436,18908,1267,1,0,9,1.36482239111247
basic,59,8,0,0,1,28,"[0, 5, 14, 17, 11, 24, 15, 16, 28]",9,0,[],24.94069458,20186,1278,1,0,9,1.632953105226947
basic,59,8,0,1,1,28,"[0, 5, 14, 17, 11, 24, 15, 16, 28]",9,0,[],24.94069458,21445,1259,1,0,9,1.632953105226947
basic,60,17,0,0,0,0,[0],1,28,"[1, 2, 3, 4, 5, 6, 7, 8, 9, 10, 11, 12, 13, 14, 15, 16, 17, 18, 19, 20, 22, 23, 24, 25, 26, 27, 28, 29]",300,322,-1,2,73,8,0.0
basic,60,17,0,0,0,9,"[0, 9]",2,25,"[1, 2, 3, 5, 6, 7, 8, 10, 11, 12, 14, 15, 16, 17, 18, 19, 20, 22, 23, 24, 25, 26, 27, 28, 29]",210.5293344,10276,9954,1,34,8,1.0
basic,60,17,0,0,0,16,"[0, 9, 16]",3,21,"[1, 2, 3, 5, 7, 8, 10, 11, 12, 14, 17, 18, 19, 20, 22, 23, 25, 26, 27, 28, 29]",197.1876704,11080,804,1,26,8,1.173103464220352
basic,60,17,0,0,0,2,"[0, 9, 16, 2]",4,18,"[1, 3, 5, 7, 8, 10, 11, 12, 14, 17, 18, 19, 23, 25, 26, 27, 28, 29]",181.0631549,11825,745,1,23,8,1.14825089247282
basic,60,17,0,0,0,17,"[0, 9, 16, 2, 17]",5,7,"[7, 8, 12, 14, 26, 27, 29]",142.7356191,14411,2586,4,5,7,1.4896040699768547
basic,60,17,0,0,0,8,"[0, 9, 16, 2, 17, 8]",6,3,"[7, 12, 27]",104.5256727,15441,1030,3,0,7,1.4604726966175894
basic,60,17,0,0,1,7,"[0, 9, 16, 2, 17, 8, 7]",7,0,[],33.81499459,16357,916,1,0,7,1.4474701869793896
basic,60,17,0,1,1,7,"[0, 9, 16, 2, 17, 8, 7]",7,0,[],33.81499459,18279,1922,1,0,7,1.4474701869793896
basic,61,32,0,0,0,0,[0],1,29,"[1, 2, 3, 4, 5, 6, 7, 8, 9, 10, 11, 12, 13, 14, 15, 16, 17, 18, 19, 20, 21, 22, 23, 24, 25, 26, 27, 28, 29]",300,293,-1,17,359,10,0.0
basic,61,32,0,0,0,19,"[0, 19]",2,28,"[1, 2, 3, 4, 5, 6, 7, 8, 9, 10, 11, 12, 13, 14, 15, 16, 17, 18, 20, 21, 22, 23, 24, 25, 26, 27, 28, 29]",283.5075775,3453,3160,16,294,10,1.0
basic,61,32,0,0,0,15,"[0, 19, 15]",3,21,"[2, 3, 5, 7, 8, 9, 10, 11, 12, 13, 14, 16, 17, 20, 22, 23, 24, 25, 26, 27, 28]",197.7987681,4654,1201,2,52,10,1.19699508325577
basic,61,32,0,0,0,28,"[0, 19, 15, 28]",4,19,"[2, 3, 5, 7, 8, 9, 10, 11, 12, 13, 16, 17, 20, 22, 23, 24, 25, 26, 27]",186.3970139,5618,964,2,41,10,1.1739755297768444
basic,61,32,0,0,0,12,"[0, 19, 15, 28, 12]",5,17,"[2, 3, 5, 7, 8, 9, 10, 11, 13, 16, 17, 20, 22, 23, 24, 26, 27]",167.4233479,9567,3949,2,25,10,1.177540715424265
basic,61,32,0,0,0,16,"[0, 19, 15, 28, 12, 16]",6,16,"[2, 3, 5, 7, 8, 9, 10, 11, 13, 17, 20, 22, 23, 24, 26, 27]",151.7708721,10488,921,2,17,10,1.2623133279216439
basic,61,32,0,0,0,22,"[0, 19, 15, 28, 12, 16, 22]",7,10,"[2, 3, 5, 8, 9, 10, 11, 17, 20, 27]",117.9330235,11699,1211,2,7,10,1.2893434049314008
basic,61,32,0,0,0,9,"[0, 19, 15, 28, 12, 16, 22, 9]",8,4,"[2, 8, 17, 20]",95.72942015,12448,749,2,2,10,1.3492394817468627
basic,61,32,0,0,0,8,"[0, 19, 15, 28, 12, 16, 22, 9, 8]",9,1,[20],50.60736346,14797,2349,1,0,10,1.2728587925837391
basic,61,32,0,0,1,20,"[0, 19, 15, 28, 12, 16, 22, 9, 8, 20]",10,0,[],0.278445332,15994,1197,1,0,10,1.4817741230721702
basic,61,32,0,1,1,20,"[0, 19, 15, 28, 12, 16, 22, 9, 8, 20]",10,0,[],0.278445332,16952,958,1,0,10,1.4817741230721702
basic,62,34,0,0,0,0,[0],1,25,"[1, 3, 4, 5, 6, 7, 8, 9, 10, 11, 12, 13, 15, 18, 19, 20, 21, 22, 23, 24, 25, 26, 27, 28, 29]",300,339,-1,12,367,10,0.0
basic,62,34,0,0,0,13,"[0, 13]",2,24,"[1, 3, 4, 5, 6, 7, 8, 9, 10, 11, 12, 15, 18, 19, 20, 21, 22, 23, 24, 25, 26, 27, 28, 29]",279.9750156,6228,5889,12,331,10,1.0
basic,62,34,0,0,0,1,"[0, 13, 1]",3,16,"[3, 5, 7, 8, 9, 10, 11, 12, 19, 21, 22, 23, 24, 25, 27, 29]",211.8574701,7297,1069,3,92,10,1.0010381285747127
basic,62,34,0,0,0,8,"[0, 13, 1, 8]",4,14,"[3, 5, 7, 9, 10, 11, 12, 19, 22, 23, 24, 25, 27, 29]",201.0871405,8938,1641,2,54,10,1.1636807
basic,62,34,0,0,0,25,"[0, 13, 1, 8, 25]",5,12,"[3, 5, 7, 9, 10, 11, 12, 22, 23, 24, 27, 29]",183.999133,10404,1466,2,28,10,1.1396208815936457
basic,62,34,0,0,0,24,"[0, 13, 1, 8, 25, 24]",6,11,"[3, 5, 7, 9, 10, 11, 12, 22, 23, 27, 29]",166.5062774,11625,1221,2,23,10,1.374180768736554
basic,62,34,0,0,0,12,"[0, 13, 1, 8, 25, 24, 12]",7,7,"[7, 9, 10, 11, 22, 23, 27]",115.4670767,13640,2015,1,8,10,1.4994254760835948
basic,62,34,0,0,0,7,"[0, 13, 1, 8, 25, 24, 12, 7]",8,5,"[9, 11, 22, 23, 27]",100.4337804,14613,973,1,4,10,1.758992610425009
basic,62,34,0,0,0,23,"[0, 13, 1, 8, 25, 24, 12, 7, 23]",9,1,[27],72.27352467,15872,1259,1,0,10,2.399781305190153
basic,62,34,0,0,1,27,"[0, 13, 1, 8, 25, 24, 12, 7, 23, 27]",10,0,[],18.60789321,17289,1417,1,0,10,4.766619878750327
basic,62,34,0,1,1,27,"[0, 13, 1, 8, 25, 24, 12, 7, 23, 27]",10,0,[],18.60789321,18561,1272,1,0,10,4.766619878750327
basic,63,18,0,0,0,0,[0],1,28,"[1, 2, 3, 4, 5, 6, 7, 8, 9, 10, 11, 12, 13, 14, 16, 17, 18, 19, 20, 21, 22, 23, 24, 25, 26, 27, 28, 29]",300,334,-1,3,136,10,0.0
basic,63,18,0,0,0,28,"[0, 28]",2,16,"[1, 3, 5, 7, 8, 9, 12, 13, 14, 16, 20, 23, 24, 25, 26, 27]",236.4311397,4511,4177,2,19,10,1.0
basic,63,18,0,0,0,7,"[0, 28, 7]",3,15,"[1, 3, 5, 8, 9, 12, 13, 14, 16, 20, 23, 24, 25, 26, 27]",214.4084242,5609,1098,2,17,10,1.4345180696367563
basic,63,18,0,0,0,25,"[0, 28, 7, 25]",4,13,"[1, 3, 5, 8, 9, 12, 13, 14, 16, 20, 23, 26, 27]",186.6055466,6510,901,2,15,10,1.8896451241781882
basic,63,18,0,0,0,13,"[0, 28, 7, 25, 13]",5,10,"[3, 5, 8, 9, 12, 14, 16, 23, 26, 27]",141.3286209,8642,2132,5,21,9,1.6878978848273398
basic,63,18,0,0,0,14,"[0, 28, 7, 25, 13, 14]",6,8,"[3, 5, 8, 9, 12, 23, 26, 27]",122.354955,9640,998,3,7,9,1.584538278883837
basic,63,18,0,0,0,8,"[0, 28, 7, 25, 13, 14, 8]",7,3,"[3, 5, 23]",88.75435972,11874,2234,1,2,9,2.2331853335907565
basic,63,18,0,0,0,3,"[0, 28, 7, 25, 13, 14, 8, 3]",8,1,[5],60.68302202,13296,1422,1,0,9,1.9555800330994786
basic,63,18,0,0,1,5,"[0, 28, 7, 25, 13, 14, 8, 3, 5]",9,0,[],2.502269193,15103,1807,1,0,9,1.6644939127114788
basic,63,18,0,1,1,5,"[0, 28, 7, 25, 13, 14, 8, 3, 5]",9,0,[],2.502269193,16177,1074,1,0,9,1.6644939127114788
basic,64,0,0,0,0,0,[0],1,27,"[2, 3, 4, 5, 6, 7, 8, 9, 10, 11, 12, 13, 14, 15, 16, 17, 19, 20, 21, 22, 23, 24, 25, 26, 27, 28, 29]",300,383,-1,104,1136,9,0.0
basic,64,0,0,0,0,20,"[0, 20]",2,25,"[2, 3, 4, 5, 6, 7, 8, 9, 11, 12, 13, 14, 15, 16, 17, 19, 21, 22, 23, 24, 25, 26, 27, 28, 29]",215.4955622,5060,4677,36,372,9,1.0
basic,64,0,0,0,0,5,"[0, 20, 5]",3,22,"[2, 3, 4, 7, 8, 9, 11, 12, 13, 14, 15, 16, 17, 19, 21, 22, 23, 24, 25, 26, 28, 29]",153.2942761,6078,1018,33,251,9,1.0828244018179105
basic,64,0,0,0,0,4,"[0, 20, 5, 4]",4,19,"[2, 3, 7, 8, 9, 11, 12, 13, 14, 15, 17, 19, 21, 22, 23, 24, 25, 26, 28]",128.2144037,6890,812,21,127,9,1.0973859443611045
basic,64,0,0,0,0,24,"[0, 20, 5, 4, 24]",5,13,"[2, 3, 7, 8, 9, 11, 12, 15, 17, 19, 23, 26, 28]",116.8126494,7807,917,12,49,9,1.098033200508336
basic,64,0,0,0,0,15,"[0, 20, 5, 4, 24, 15]",6,10,"[3, 7, 8, 9, 11, 12, 17, 19, 26, 28]",93.46741437,9776,1969,6,13,9,1.092596788004046
basic,64,0,0,0,0,7,"[0, 20, 5, 4, 24, 15, 7]",7,5,"[3, 8, 17, 19, 26]",62.40296523,11024,1248,5,3,9,1.1589547715278956
basic,64,0,0,0,0,8,"[0, 20, 5, 4, 24, 15, 7, 8]",8,2,"[3, 19]",43.29799206,13058,2034,2,0,9,1.1539062850589215
basic,64,0,0,0,1,19,"[0, 20, 5, 4, 24, 15, 7, 8, 19]",9,0,[],7.451095401,14273,1215,1,0,9,1.1784740129945357
basic,64,0,0,1,1,19,"[0, 20, 5, 4, 24, 15, 7, 8, 19]",9,0,[],7.451095401,15745,1472,1,0,9,1.1784740129945357
basic,65,44,0,0,0,0,[0],1,29,"[1, 2, 3, 4, 5, 6, 7, 8, 9, 10, 11, 12, 13, 14, 15, 16, 17, 18, 19, 20, 21, 22, 23, 24, 25, 26, 27, 28, 29]",300,337,-1,13,126,7,0.0
basic,65,44,0,0,0,11,"[0, 11]",2,18,"[4, 5, 6, 7, 8, 9, 12, 14, 16, 17, 19, 20, 22, 23, 24, 25, 26, 28]",152.7790776,3729,3392,5,34,7,1.0
basic,65,44,0,0,0,24,"[0, 11, 24]",3,13,"[4, 5, 7, 8, 9, 12, 14, 17, 20, 22, 23, 25, 28]",125.8532535,4815,1086,5,23,7,1.1588941745226709
basic,65,44,0,0,0,9,"[0, 11, 24, 9]",4,7,"[4, 7, 8, 12, 14, 20, 23]",93.09657483,5745,930,2,8,7,1.3039383713641313
basic,65,44,0,0,0,4,"[0, 11, 24, 9, 4]",5,5,"[7, 12, 14, 20, 23]",73.39885923,6610,865,2,3,7,1.2901330701441578
basic,65,44,0,0,0,7,"[0, 11, 24, 9, 4, 7]",6,1,[23],42.38273439,7396,786,1,0,7,1.2468141312360979
basic,65,44,0,0,1,23,"[0, 11, 24, 9, 4, 7, 23]",7,0,[],23.27776121,11192,3796,1,0,7,1.2635191782769477
basic,65,44,0,1,1,23,"[0, 11, 24, 9, 4, 7, 23]",7,0,[],23.27776121,12797,1605,1,0,7,1.2635191782769477
basic,66,31,0,0,0,0,[0],1,27,"[1, 3, 4, 5, 6, 7, 8, 10, 11, 12, 13, 14, 15, 16, 17, 18, 19, 20, 21, 22, 23, 24, 25, 26, 27, 28, 29]",300,340,-1,2,87,10,0.0
basic,66,31,0,0,0,14,"[0, 14]",2,25,"[1, 3, 5, 6, 7, 8, 10, 11, 12, 13, 15, 16, 17, 18, 19, 20, 21, 22, 23, 24, 25, 26, 27, 28, 29]",263.861378,2229,1889,2,59,10,1.0
basic,66,31,0,0,0,27,"[0, 14, 27]",3,22,"[1, 3, 5, 6, 7, 8, 10, 11, 12, 13, 15, 16, 17, 18, 19, 20, 21, 22, 24, 25, 28, 29]",235.6833724,5222,2993,1,39,10,1.5881859159302467
basic,66,31,0,0,0,8,"[0, 14, 27, 8]",4,20,"[1, 3, 5, 6, 7, 10, 11, 12, 13, 16, 17, 18, 19, 20, 21, 22, 24, 25, 28, 29]",224.6380114,8306,3084,1,36,10,2.1665048452331277
basic,66,31,0,0,0,18,"[0, 14, 27, 8, 18]",5,15,"[1, 5, 6, 7, 11, 12, 13, 16, 17, 19, 20, 22, 25, 28, 29]",188.7911147,9242,936,1,26,10,1.7273375741920205
basic,66,31,0,0,0,11,"[0, 14, 27, 8, 18, 11]",6,11,"[1, 5, 7, 12, 16, 17, 19, 20, 22, 25, 28]",153.9055876,10329,1087,13,17,9,2.386348208737804
basic,66,31,0,0,0,5,"[0, 14, 27, 8, 18, 11, 5]",7,5,"[16, 17, 20, 25, 28]",110.2249283,11577,1248,3,3,9,2.163249612867222
basic,66,31,0,0,0,28,"[0, 14, 27, 8, 18, 11, 5, 28]",8,2,"[16, 17]",90.00117988,12841,1264,2,0,9,1.9564635733184719
basic,66,31,0,0,1,16,"[0, 14, 27, 8, 18, 11, 5, 28, 16]",9,0,[],56.38570725,13658,817,1,0,9,1.824071502589619
basic,66,31,0,1,1,16,"[0, 14, 27, 8, 18, 11, 5, 28, 16]",9,0,[],56.38570725,17012,3354,1,0,9,1.824071502589619
basic,67,24,0,0,0,0,[0],1,29,"[1, 2, 3, 4, 5, 6, 7, 8, 9, 10, 11, 12, 13, 14, 15, 16, 17, 18, 19, 20, 21, 22, 23, 24, 25, 26, 27, 28, 29]",300,375,-1,4,76,10,0.0
basic,67,24,0,0,0,16,"[0, 16]",2,28,"[1, 2, 3, 4, 5, 6, 7, 8, 9, 10, 11, 12, 13, 14, 15, 17, 18, 19, 20, 21, 22, 23, 24, 25, 26, 27, 28, 29]",210.3562607,3147,2772,13,110,9,1.0
basic,67,24,0,0,0,22,"[0, 16, 22]",3,27,"[1, 2, 3, 4, 5, 6, 7, 8, 9, 10, 11, 12, 13, 14, 15, 17, 18, 19, 20, 21, 23, 24, 25, 26, 27, 28, 29]",192.3285043,4730,1583,7,54,9,1.0217425143037777
basic,67,24,0,0,0,8,"[0, 16, 22, 8]",4,21,"[1, 2, 3, 4, 6, 9, 10, 11, 13, 14, 15, 17, 20, 21, 23, 24, 25, 26, 27, 28, 29]",178.9120964,5979,1249,4,28,9,1.0996636936037951
basic,67,24,0,0,0,15,"[0, 16, 22, 8, 15]",5,16,"[3, 4, 6, 9, 10, 11, 13, 14, 17, 23, 24, 25, 26, 27, 28, 29]",148.025206,6992,1013,3,17,9,1.2704773343758617
basic,67,24,0,0,0,28,"[0, 16, 22, 8, 15, 28]",6,8,"[3, 4, 9, 11, 13, 23, 26, 27]",102.7482803,9527,2535,3,5,9,1.1981967578189556
basic,67,24,0,0,0,23,"[0, 16, 22, 8, 15, 28, 23]",7,3,"[9, 11, 27]",83.72198273,10344,817,3,1,9,1.2275650852813986
basic,67,24,0,0,0,11,"[0, 16, 22, 8, 15, 28, 23, 11]",8,2,"[9, 27]",56.79615869,11373,1029,2,0,9,1.2107937989822568
basic,67,24,0,0,1,27,"[0, 16, 22, 8, 15, 28, 23, 11, 27]",9,0,[],28.99328114,13630,2257,1,0,9,1.1865620449755248
basic,67,24,0,1,1,27,"[0, 16, 22, 8, 15, 28, 23, 11, 27]",9,0,[],28.99328114,15330,1700,1,0,9,1.1865620449755248
basic,68,33,0,0,0,0,[0],1,23,"[1, 2, 5, 7, 8, 11, 12, 13, 14, 15, 16, 17, 18, 19, 20, 21, 23, 24, 25, 26, 27, 28, 29]",300,347,-1,5,108,9,0.0
basic,68,33,0,0,0,8,"[0, 8]",2,22,"[1, 2, 5, 7, 11, 12, 13, 14, 15, 16, 17, 18, 19, 20, 21, 23, 24, 25, 26, 27, 28, 29]",265.8679037,3645,3298,5,87,9,1.0
basic,68,33,0,0,0,21,"[0, 8, 21]",3,16,"[2, 5, 7, 11, 13, 14, 16, 17, 18, 19, 20, 24, 26, 27, 28, 29]",166.0430571,5057,1412,5,80,9,1.0670557763739492
basic,68,33,0,0,0,13,"[0, 8, 21, 13]",4,12,"[2, 7, 11, 14, 16, 17, 18, 19, 20, 24, 26, 29]",139.6422995,5926,869,4,54,9,1.0555103820910288
basic,68,33,0,0,0,19,"[0, 8, 21, 13, 19]",5,10,"[7, 11, 14, 16, 17, 18, 20, 24, 26, 29]",114.1472019,6756,830,3,19,9,1.1090798607799486
basic,68,33,0,0,0,24,"[0, 8, 21, 13, 19, 24]",6,6,"[7, 14, 16, 18, 26, 29]",72.09960985,9422,2666,2,3,9,1.1193530461391534
basic,68,33,0,0,0,7,"[0, 8, 21, 13, 19, 24, 7]",7,2,"[14, 26]",42.89344611,12107,2685,2,0,9,1.2065014071663551
basic,68,33,0,0,0,14,"[0, 8, 21, 13, 19, 24, 7, 14]",8,1,[26],28.02737737,13355,1248,1,0,9,1.2536495746979057
basic,68,33,0,0,1,26,"[0, 8, 21, 13, 19, 24, 7, 14, 26]",9,0,[],15.37826672,14189,834,1,0,9,1.2580465331304596
basic,68,33,0,1,1,26,"[0, 8, 21, 13, 19, 24, 7, 14, 26]",9,0,[],15.37826672,15576,1387,1,0,9,1.2580465331304596
undo,69,0,0,0,0,0,[0],1,27,"[2, 3, 4, 5, 6, 7, 8, 9, 10, 11, 12, 13, 14, 15, 16, 17, 19, 20, 21, 22, 23, 24, 25, 26, 27, 28, 29]",300,431,-1,104,1136,9,0.0
undo,69,0,0,0,0,20,"[0, 20]",2,25,"[2, 3, 4, 5, 6, 7, 8, 9, 11, 12, 13, 14, 15, 16, 17, 19, 21, 22, 23, 24, 25, 26, 27, 28, 29]",215.4955622,5130,4699,36,372,9,1.0
undo,69,0,0,0,0,5,"[0, 20, 5]",3,22,"[2, 3, 4, 7, 8, 9, 11, 12, 13, 14, 15, 16, 17, 19, 21, 22, 23, 24, 25, 26, 28, 29]",153.2942761,6408,1278,33,251,9,1.0828244018179105
undo,69,0,0,0,0,4,"[0, 20, 5, 4]",4,19,"[2, 3, 7, 8, 9, 11, 12, 13, 14, 15, 17, 19, 21, 22, 23, 24, 25, 26, 28]",128.2144037,8067,1659,21,127,9,1.0973859443611045
undo,69,0,0,0,0,24,"[0, 20, 5, 4, 24]",5,13,"[2, 3, 7, 8, 9, 11, 12, 15, 17, 19, 23, 26, 28]",116.8126494,8905,838,12,49,9,1.098033200508336
undo,69,0,0,0,0,26,"[0, 20, 5, 4, 24, 26]",6,11,"[3, 7, 8, 9, 11, 12, 15, 17, 19, 23, 28]",99.69540666,10009,1104,6,21,9,1.2398543066229384
undo,69,0,0,0,0,12,"[0, 20, 5, 4, 24, 26, 12]",7,4,"[7, 17, 23, 28]",64.46757675,11472,1463,4,0,8,1.5096681480303822
undo,69,0,0,0,1,17,"[0, 20, 5, 4, 24, 26, 12, 17]",8,0,[],30.73332116,12925,1453,1,0,8,1.4192979992196244
undo,69,0,0,1,1,17,"[0, 20, 5, 4, 24, 26, 12, 17]",8,0,[],30.73332116,14608,1683,1,0,8,1.4192979992196244
undo,70,30,0,0,0,0,[0],1,19,"[3, 4, 5, 7, 9, 11, 16, 17, 18, 19, 20, 21, 22, 24, 25, 26, 27, 28, 29]",300,367,-1,5,41,8,0.0
undo,70,30,0,0,0,25,"[0, 25]",2,12,"[3, 5, 7, 9, 11, 16, 18, 19, 20, 24, 27, 29]",121.1005869,4610,4243,7,37,7,1.0
undo,70,30,0,0,0,27,"[0, 25, 27]",3,8,"[3, 5, 7, 18, 19, 20, 24, 29]",81.54050603,6128,1518,2,17,7,1.0432445497342653
undo,70,30,0,0,0,3,"[0, 25, 27, 3]",4,5,"[5, 7, 18, 20, 29]",62.43553286,6943,815,2,6,7,1.0419393955972533
undo,70,30,0,0,0,18,"[0, 25, 27, 3, 18]",5,3,"[5, 7, 29]",44.18724527,8259,1316,3,0,6,1.0473579399266177
undo,70,30,0,0,1,5,"[0, 25, 27, 3, 18, 5]",6,0,[],31.14884046,9523,1264,1,0,6,1.1118098368956684
undo,70,30,0,1,1,5,"[0, 25, 27, 3, 18, 5]",6,0,[],31.14884046,11496,1973,1,0,6,1.1118098368956684
undo,71,21,0,0,0,0,[0],1,29,"[1, 2, 3, 4, 5, 6, 7, 8, 9, 10, 11, 12, 13, 14, 15, 16, 17, 18, 19, 20, 21, 22, 23, 24, 25, 26, 27, 28, 29]",300,351,-1,84,830,9,0.0
undo,71,21,0,0,0,18,"[0, 18]",2,28,"[1, 2, 3, 4, 5, 6, 7, 8, 9, 10, 11, 12, 13, 14, 15, 16, 17, 19, 20, 21, 22, 23, 24, 25, 26, 27, 28, 29]",240.923778,2874,2523,44,305,9,1.0
undo,71,21,0,0,0,29,"[0, 18, 29]",3,24,"[1, 2, 3, 4, 6, 7, 8, 9, 10, 11, 12, 13, 14, 15, 16, 17, 20, 21, 22, 23, 24, 25, 26, 27]",212.2706805,5194,2320,11,87,9,1.035555280387994
undo,71,21,0,0,0,25,"[0, 18, 29, 25]",4,18,"[1, 4, 6, 8, 9, 10, 11, 12, 14, 15, 16, 17, 20, 21, 22, 23, 24, 26]",167.0490043,6993,1799,6,45,9,2.2226517719335437
undo,71,21,0,0,0,23,"[0, 18, 29, 25, 23]",5,10,"[4, 8, 14, 15, 16, 17, 20, 21, 22, 24]",123.7246462,8775,1782,3,20,9,1.7801958981326236
undo,71,21,0,0,0,21,"[0, 18, 29, 25, 23, 21]",6,3,"[4, 14, 16]",94.11046043,9612,837,1,3,9,2.290491065218303
undo,71,21,0,0,0,14,"[0, 18, 29, 25, 23, 21, 14]",7,2,"[4, 16]",68.49796348,10525,913,1,1,9,2.021100447974041
undo,71,21,0,0,0,4,"[0, 18, 29, 25, 23, 21, 14, 4]",8,1,[16],54.35582786,12775,2250,1,0,9,1.9205022281831265
undo,71,21,0,0,1,16,"[0, 18, 29, 25, 23, 21, 14, 4, 16]",9,0,[],9.757621617,13942,1167,1,0,9,1.7782202964615115
undo,71,21,0,1,1,16,"[0, 18, 29, 25, 23, 21, 14, 4, 16]",9,0,[],9.757621617,15215,1273,1,0,9,1.7782202964615115
undo,72,38,0,0,0,0,[0],1,29,"[1, 2, 3, 4, 5, 6, 7, 8, 9, 10, 11, 12, 13, 14, 15, 16, 17, 18, 19, 20, 21, 22, 23, 24, 25, 26, 27, 28, 29]",300,293,-1,33,506,9,0.0
undo,72,38,0,0,0,19,"[0, 19]",2,23,"[3, 4, 5, 6, 7, 8, 9, 11, 13, 14, 15, 16, 17, 18, 20, 22, 23, 24, 25, 26, 27, 28, 29]",219.5015528,2887,2594,6,61,9,1.0
undo,72,38,0,0,0,17,"[0, 19, 17]",3,21,"[3, 4, 5, 6, 7, 9, 11, 13, 14, 15, 16, 18, 20, 22, 23, 24, 25, 26, 27, 28, 29]",198.1239945,4016,1129,6,53,9,1.571793785769489
undo,72,38,0,0,0,20,"[0, 19, 17, 20]",4,17,"[3, 4, 5, 6, 7, 11, 13, 14, 15, 16, 18, 22, 24, 25, 26, 27, 28]",174.3542658,4899,883,6,44,9,2.333182710277297
undo,72,38,0,0,0,4,"[0, 19, 17, 20, 4]",5,10,"[5, 11, 13, 14, 15, 16, 24, 26, 27, 28]",140.4131403,6583,1684,5,22,9,2.276099229646013
undo,72,38,0,0,0,15,"[0, 19, 17, 20, 4, 15]",6,8,"[5, 11, 13, 14, 16, 24, 26, 28]",114.4131403,7448,865,5,6,9,2.5292671156176403
undo,72,38,0,0,0,11,"[0, 19, 17, 20, 4, 15, 11]",7,2,"[16, 28]",78.01259089,8338,890,2,0,9,2.778100109749787
undo,72,38,0,0,0,28,"[0, 19, 17, 20, 4, 15, 11, 28]",8,1,[16],50.99407872,9146,808,1,0,9,2.3316428595723258
undo,72,38,0,0,1,16,"[0, 19, 17, 20, 4, 15, 11, 28, 16]",9,0,[],21.99407872,14397,5251,1,0,9,2.5408012360364265
undo,72,38,0,1,1,16,"[0, 19, 17, 20, 4, 15, 11, 28, 16]",9,0,[],21.99407872,15254,857,1,0,9,2.5408012360364265
undo,73,27,0,0,0,0,[0],1,26,"[1, 3, 5, 6, 7, 8, 9, 10, 11, 12, 13, 14, 15, 16, 17, 18, 19, 21, 22, 23, 24, 25, 26, 27, 28, 29]",300,388,-1,13,578,11,0.0
undo,73,27,0,0,0,26,"[0, 26]",2,23,"[1, 5, 6, 7, 8, 9, 10, 11, 12, 13, 14, 15, 16, 17, 18, 19, 21, 22, 23, 24, 25, 27, 29]",275.8132268,6322,5934,7,249,11,1.0
undo,73,27,0,0,0,15,"[0, 26, 15]",3,18,"[1, 6, 7, 8, 10, 12, 13, 14, 16, 17, 18, 19, 21, 23, 24, 25, 27, 29]",216.0386502,7862,1540,6,105,11,2.316230250316108
undo,73,27,0,0,0,24,"[0, 26, 15, 24]",4,14,"[1, 8, 10, 12, 13, 14, 16, 17, 18, 19, 23, 25, 27, 29]",198.8339997,9039,1177,6,63,11,2.140390406148825
undo,73,27,0,0,0,17,"[0, 26, 15, 24, 17]",5,11,"[1, 8, 10, 12, 13, 14, 18, 19, 23, 27, 29]",182.2810543,10542,1503,4,33,11,1.897705569486853
undo,73,27,0,0,0,12,"[0, 26, 15, 24, 17, 12]",6,10,"[1, 8, 10, 13, 14, 18, 19, 23, 27, 29]",171.1007144,12322,1780,2,17,11,1.994427587076918
undo,73,27,0,0,0,10,"[0, 26, 15, 24, 17, 12, 10]",7,9,"[1, 8, 13, 14, 18, 19, 23, 27, 29]",160.0553534,13969,1647,2,14,11,1.8554032921959762
undo,73,27,0,0,0,13,"[0, 26, 15, 24, 17, 12, 10, 13]",8,7,"[1, 8, 14, 19, 23, 27, 29]",120.2056357,15119,1150,2,8,11,1.8269483184790714
undo,73,27,0,0,0,19,"[0, 26, 15, 24, 17, 12, 10, 13, 19]",9,4,"[8, 14, 23, 29]",83.97029387,17405,2286,2,3,11,1.6617669702307691
undo,73,27,0,0,0,8,"[0, 26, 15, 24, 17, 12, 10, 13, 19, 8]",10,2,"[14, 29]",69.10422512,18607,1202,2,0,11,1.708465241811091
undo,73,27,0,0,1,14,"[0, 26, 15, 24, 17, 12, 10, 13, 19, 8, 14]",11,0,[],11.5455594,20740,2133,1,0,11,1.572478422540951
undo,73,27,0,1,1,14,"[0, 26, 15, 24, 17, 12, 10, 13, 19, 8, 14]",11,0,[],11.5455594,21756,1016,1,0,11,1.572478422540951
undo,74,29,0,0,0,0,[0],1,29,"[1, 2, 3, 4, 5, 6, 7, 8, 9, 10, 11, 12, 13, 14, 15, 16, 17, 18, 19, 20, 21, 22, 23, 24, 25, 26, 27, 28, 29]",300,303,-1,1,78,9,0.0
undo,74,29,0,0,0,25,"[0, 25]",2,18,"[1, 2, 4, 5, 6, 7, 9, 10, 12, 13, 14, 15, 16, 17, 22, 26, 27, 28]",223.3449284,4328,4025,13,101,8,1.0
undo,74,29,0,0,0,17,"[0, 25, 17]",3,13,"[1, 4, 5, 6, 7, 9, 10, 12, 13, 14, 22, 27, 28]",188.41643,5342,1014,2,22,8,1.014228463693056
undo,74,29,0,0,0,1,"[0, 25, 17, 1]",4,11,"[4, 5, 6, 7, 10, 12, 13, 14, 22, 27, 28]",149.5191293,6563,1221,2,18,8,1.7553639368828857
undo,74,29,0,0,0,14,"[0, 25, 17, 1, 14]",5,8,"[4, 5, 7, 12, 13, 22, 27, 28]",106.5656662,8440,1877,2,9,8,2.137167642879409
undo,74,29,0,0,0,13,"[0, 25, 17, 1, 14, 13]",6,4,"[4, 5, 12, 22]",88.53790978,9461,1021,2,3,8,1.9535489858276616
undo,74,29,0,0,0,5,"[0, 25, 17, 1, 14, 13, 5]",7,2,"[4, 22]",62.82798951,10809,1348,2,0,8,1.9087092890879327
undo,74,29,0,0,1,4,"[0, 25, 17, 1, 14, 13, 5, 4]",8,0,[],10.93386653,12478,1669,1,0,8,1.6444131700810427
undo,74,29,0,1,1,4,"[0, 25, 17, 1, 14, 13, 5, 4]",8,0,[],10.93386653,13297,819,1,0,8,1.6444131700810427
undo,75,5,0,0,0,0,[0],1,29,"[1, 2, 3, 4, 5, 6, 7, 8, 9, 10, 11, 12, 13, 14, 15, 16, 17, 18, 19, 20, 21, 22, 23, 24, 25, 26, 27, 28, 29]",300,313,-1,5,139,9,0.0
undo,75,5,0,0,0,23,"[0, 23]",2,27,"[1, 2, 3, 4, 5, 6, 7, 8, 9, 10, 11, 12, 13, 14, 15, 16, 17, 18, 19, 20, 21, 22, 24, 25, 26, 27, 28]",249.8402552,2616,2303,3,75,9,1.0
undo,75,5,0,0,0,24,"[0, 23, 24]",3,24,"[1, 2, 3, 4, 5, 6, 8, 9, 10, 11, 12, 13, 14, 15, 16, 17, 18, 19, 21, 22, 25, 26, 27, 28]",226.7534624,5768,3152,20,147,8,1.0113799830159869
undo,75,5,0,0,0,17,"[0, 23, 24, 17]",4,18,"[2, 4, 5, 6, 8, 9, 10, 12, 13, 14, 15, 18, 19, 22, 25, 26, 27, 28]",191.7677511,6599,831,6,49,8,1.0136434296829369
undo,75,5,0,0,0,5,"[0, 23, 24, 17, 5]",5,9,"[4, 6, 8, 12, 14, 15, 18, 19, 25]",148.7212646,7678,1079,6,10,8,1.0121300076484332
undo,75,5,0,0,0,18,"[0, 23, 24, 17, 5, 18]",6,2,"[4, 6]",81.65413401,8660,982,2,0,8,1.0767325926564988
undo,75,5,0,0,0,4,"[0, 23, 24, 17, 5, 18, 4]",7,1,[6],43.23538858,9563,903,1,0,8,1.465289859501957
undo,75,5,0,0,1,6,"[0, 23, 24, 17, 5, 18, 4, 6]",8,0,[],31.193794,10360,797,1,0,8,1.6096179999999998
undo,75,5,0,1,1,6,"[0, 23, 24, 17, 5, 18, 4, 6]",8,0,[],31.193794,11849,1489,1,0,8,1.6096179999999998
undo,76,19,0,0,0,0,[0],1,29,"[1, 2, 3, 4, 5, 6, 7, 8, 9, 10, 11, 12, 13, 14, 15, 16, 17, 18, 19, 20, 21, 22, 23, 24, 25, 26, 27, 28, 29]",300,383,-1,12,149,8,0.0
undo,76,19,0,0,0,29,"[0, 29]",2,28,"[1, 2, 3, 4, 5, 6, 7, 8, 9, 10, 11, 12, 13, 14, 15, 16, 17, 18, 19, 20, 21, 22, 23, 24, 25, 26, 27, 28]",265.0715016,4113,3730,12,120,8,1.0
undo,76,19,0,0,0,9,"[0, 29, 9]",3,17,"[1, 4, 5, 6, 7, 10, 11, 12, 13, 14, 19, 20, 21, 22, 24, 27, 28]",181.7108394,5961,1848,11,65,8,1.0375842971861238
undo,76,19,0,0,0,6,"[0, 29, 9, 6]",4,12,"[4, 7, 10, 11, 13, 14, 20, 21, 22, 24, 27, 28]",140.2741407,8706,2745,11,34,8,1.0389786364356892
undo,76,19,0,0,0,28,"[0, 29, 9, 6, 28]",5,5,"[4, 11, 14, 22, 27]",89.18598161,10429,1723,2,4,8,1.2864082671854424
undo,76,19,0,0,0,4,"[0, 29, 9, 6, 28, 4]",6,4,"[11, 14, 22, 27]",78.00564173,11394,965,2,2,8,1.3470045407445053
undo,76,19,0,0,0,11,"[0, 29, 9, 6, 28, 4, 11]",7,1,[14],19.86787431,13945,2551,1,0,8,1.2776511912021429
undo,76,19,0,0,1,14,"[0, 29, 9, 6, 28, 4, 11, 14]",8,0,[],9.051220485,15375,1430,1,0,8,1.39128745765915
undo,76,19,0,1,1,14,"[0, 29, 9, 6, 28, 4, 11, 14]",8,0,[],9.051220485,16395,1020,1,0,8,1.39128745765915
undo,77,3,0,0,0,0,[0],1,29,"[1, 2, 3, 4, 5, 6, 7, 8, 9, 10, 11, 12, 13, 14, 15, 16, 17, 18, 19, 20, 21, 22, 23, 24, 25, 26, 27, 28, 29]",300,318,-1,34,427,10,0.0
undo,77,3,0,0,0,16,"[0, 16]",2,28,"[1, 2, 3, 4, 5, 6, 7, 8, 9, 10, 11, 12, 13, 14, 15, 17, 18, 19, 20, 21, 22, 23, 24, 25, 26, 27, 28, 29]",268.9355509,6444,6126,32,260,9,1.0
