condition,trial_id,map_id,undoIndicator,submit,checkEnd,currentChoice,chosen_all,n_city_all,n_within_reach,cities_reach,currentBudget,time_all,rt_all,n_opt_paths_all,n_subopt_paths_all,mas_all,tortuosity_all
undo,0,36,0,0,0,0,[0],1,24,"[2, 4, 5, 6, 7, 8, 9, 10, 12, 13, 14, 15, 16, 17, 18, 19, 20, 22, 23, 25, 26, 27, 28, 29]",300,125,-1,2,200,10,0.0
undo,0,36,0,0,0,12,"[0, 12]",2,23,"[2, 4, 5, 6, 7, 8, 9, 10, 13, 14, 15, 16, 17, 18, 19, 20, 22, 23, 25, 26, 27, 28, 29]",277.7963967,8442,8317,90,804,9,1.0
undo,0,36,0,0,0,16,"[0, 12, 16]",3,10,"[2, 9, 10, 13, 17, 18, 19, 23, 25, 27]",171.6267212,9455,1013,4,38,9,1.202695220335868
undo,0,36,0,0,0,17,"[0, 12, 16, 17]",4,7,"[2, 9, 10, 13, 18, 19, 25]",143.3071167,11614,2159,4,23,9,1.6578705047868705
undo,0,36,0,0,0,9,"[0, 12, 16, 17, 9]",5,5,"[2, 13, 18, 19, 25]",117.0583072,12186,572,3,6,9,2.6488264465469484
undo,0,36,0,0,0,19,"[0, 12, 16, 17, 9, 19]",6,4,"[2, 13, 18, 25]",101.9255612,12794,608,3,3,9,2.5697960541572393
undo,0,36,0,0,0,2,"[0, 12, 16, 17, 9, 19, 2]",7,2,"[13, 25]",64.80413882,13695,901,2,0,9,2.082684549483941
undo,0,36,0,0,0,25,"[0, 12, 16, 17, 9, 19, 2, 25]",8,1,[13],39.80413882,14594,899,1,0,9,2.272647961997219
undo,0,36,0,0,1,13,"[0, 12, 16, 17, 9, 19, 2, 25, 13]",9,0,[],19.21287854,15367,773,1,0,9,2.86279103556024
undo,0,36,0,1,1,13,"[0, 12, 16, 17, 9, 19, 2, 25, 13]",9,0,[],19.21287854,22542,7175,1,0,9,2.86279103556024
undo,1,28,0,0,0,0,[0],1,27,"[1, 2, 3, 4, 5, 6, 7, 8, 9, 10, 11, 12, 13, 14, 15, 16, 17, 18, 19, 20, 22, 23, 25, 26, 27, 28, 29]",300,130,-1,2,96,9,0.0
undo,1,28,0,0,0,3,"[0, 3]",2,26,"[1, 2, 4, 5, 6, 7, 8, 9, 10, 11, 12, 13, 14, 15, 16, 17, 18, 19, 20, 22, 23, 25, 26, 27, 28, 29]",251.0817008,6446,6316,1,64,9,1.0
undo,1,28,0,0,0,14,"[0, 3, 14]",3,13,"[1, 2, 5, 7, 10, 11, 12, 13, 17, 18, 19, 20, 26]",142.7396498,7649,1203,19,59,8,1.0338694802207566
undo,1,28,0,0,0,18,"[0, 3, 14, 18]",4,10,"[1, 2, 5, 7, 11, 12, 13, 17, 19, 26]",117.2445523,8578,929,18,18,8,1.098527225277385
undo,1,28,0,0,0,13,"[0, 3, 14, 18, 13]",5,7,"[2, 7, 11, 12, 17, 19, 26]",92.83144103,10786,2208,8,6,8,1.0872780601597938
undo,1,28,0,0,0,12,"[0, 3, 14, 18, 13, 12]",6,3,"[2, 7, 19]",75.6267905,11599,813,3,1,8,1.0890748557820906
undo,1,28,0,0,0,7,"[0, 3, 14, 18, 13, 12, 7]",7,2,"[2, 19]",62.47384406,12512,913,2,0,8,1.2125627495730145
undo,1,28,0,0,1,19,"[0, 3, 14, 18, 13, 12, 7, 19]",8,0,[],34.74299481,13542,1030,1,0,8,1.4527925513951803
undo,1,28,1,0,0,7,"[0, 3, 14, 18, 13, 12, 7]",7,2,"[2, 19]",62.47384406,18196,4654,2,0,8,1.2125627495730145
undo,1,28,1,0,0,12,"[0, 3, 14, 18, 13, 12]",6,3,"[2, 7, 19]",75.6267905,19563,1367,3,1,8,1.0890748557820906
undo,1,28,1,0,0,13,"[0, 3, 14, 18, 13]",5,7,"[2, 7, 11, 12, 17, 19, 26]",92.83144103,19712,149,8,6,8,1.0872780601597938
undo,1,28,1,0,0,18,"[0, 3, 14, 18]",4,10,"[1, 2, 5, 7, 11, 12, 13, 17, 19, 26]",117.2445523,19863,151,18,18,8,1.098527225277385
undo,1,28,1,0,0,14,"[0, 3, 14]",3,13,"[1, 2, 5, 7, 10, 11, 12, 13, 17, 18, 19, 20, 26]",142.7396498,20013,150,19,59,8,1.0338694802207566
undo,1,28,1,0,0,3,"[0, 3]",2,26,"[1, 2, 4, 5, 6, 7, 8, 9, 10, 11, 12, 13, 14, 15, 16, 17, 18, 19, 20, 22, 23, 25, 26, 27, 28, 29]",251.0817008,20163,150,1,64,9,1.0
undo,1,28,1,0,0,0,[0],1,27,"[1, 2, 3, 4, 5, 6, 7, 8, 9, 10, 11, 12, 13, 14, 15, 16, 17, 18, 19, 20, 22, 23, 25, 26, 27, 28, 29]",300,20313,150,2,96,9,0.0
undo,1,28,0,0,0,20,"[0, 20]",2,22,"[2, 3, 4, 5, 6, 7, 8, 9, 10, 11, 12, 13, 14, 15, 16, 18, 19, 22, 23, 26, 28, 29]",245.9629757,25384,5071,1,24,9,1.0
undo,1,28,0,0,0,28,"[0, 20, 28]",3,8,"[2, 4, 5, 8, 9, 19, 26, 29]",111.798897,27333,1949,11,15,6,1.0188673683341003
undo,1,28,0,0,0,8,"[0, 20, 28, 8]",4,6,"[2, 4, 5, 9, 26, 29]",93.99440319,28205,872,6,4,6,1.021470705651404
undo,1,28,0,0,0,9,"[0, 20, 28, 8, 9]",5,3,"[2, 4, 26]",78.86165724,28745,540,3,0,6,1.0747034022913178
undo,1,28,0,0,1,2,"[0, 20, 28, 8, 9, 2]",6,0,[],24.04377695,29966,1221,1,0,6,1.375233175447041
undo,1,28,1,0,0,9,"[0, 20, 28, 8, 9]",5,3,"[2, 4, 26]",78.86165724,32613,2647,3,0,6,1.0747034022913178
undo,1,28,1,0,0,8,"[0, 20, 28, 8]",4,6,"[2, 4, 5, 9, 26, 29]",93.99440319,32795,182,6,4,6,1.021470705651404
undo,1,28,1,0,0,28,"[0, 20, 28]",3,8,"[2, 4, 5, 8, 9, 19, 26, 29]",111.798897,32946,151,11,15,6,1.0188673683341003
undo,1,28,1,0,0,20,"[0, 20]",2,22,"[2, 3, 4, 5, 6, 7, 8, 9, 10, 11, 12, 13, 14, 15, 16, 18, 19, 22, 23, 26, 28, 29]",245.9629757,33096,150,1,24,9,1.0
undo,1,28,1,0,0,0,[0],1,27,"[1, 2, 3, 4, 5, 6, 7, 8, 9, 10, 11, 12, 13, 14, 15, 16, 17, 18, 19, 20, 22, 23, 25, 26, 27, 28, 29]",300,33229,133,2,96,9,0.0
undo,1,28,0,0,0,14,"[0, 14]",2,14,"[1, 2, 3, 5, 7, 10, 11, 12, 13, 17, 18, 19, 20, 26]",147.8914861,35633,2404,1,26,8,1.0
undo,1,28,0,0,0,18,"[0, 14, 18]",3,11,"[1, 2, 3, 5, 7, 11, 12, 13, 17, 19, 26]",122.3963885,36399,766,1,23,8,1.0675599824559303
undo,1,28,0,0,0,13,"[0, 14, 18, 13]",4,7,"[2, 7, 11, 12, 17, 19, 26]",97.9832773,38435,2036,1,9,8,1.0602397944415018
undo,1,28,0,0,0,12,"[0, 14, 18, 13, 12]",5,4,"[2, 7, 17, 19]",80.77862677,39016,581,1,3,8,1.0640685934245377
undo,1,28,0,0,0,7,"[0, 14, 18, 13, 12, 7]",6,2,"[2, 19]",67.62568033,39550,534,1,1,8,1.186262804928269
undo,1,28,0,0,0,19,"[0, 14, 18, 13, 12, 7, 19]",7,1,[2],39.89483108,40692,1142,1,0,8,1.424576333867947
undo,1,28,0,0,1,2,"[0, 14, 18, 13, 12, 7, 19, 2]",8,0,[],2.531747699,41993,1301,1,0,8,1.4824387893309579
undo,1,28,0,1,1,2,"[0, 14, 18, 13, 12, 7, 19, 2]",8,0,[],2.531747699,43762,1769,1,0,8,1.4824387893309579
undo,2,30,0,0,0,0,[0],1,19,"[3, 4, 5, 7, 9, 11, 16, 17, 18, 19, 20, 21, 22, 24, 25, 26, 27, 28, 29]",300,128,-1,5,41,8,0.0
undo,2,30,0,0,0,25,"[0, 25]",2,12,"[3, 5, 7, 9, 11, 16, 18, 19, 20, 24, 27, 29]",121.1005869,4064,3936,7,37,7,1.0
undo,2,30,0,0,0,20,"[0, 25, 20]",3,9,"[3, 5, 7, 9, 11, 18, 19, 27, 29]",99.16887472,4766,702,5,16,7,1.0037291321296267
undo,2,30,0,0,0,27,"[0, 25, 20, 27]",4,4,"[3, 5, 18, 29]",65.11010199,5365,599,4,6,7,1.1217072851053165
undo,2,30,0,0,0,3,"[0, 25, 20, 27, 3]",5,3,"[5, 18, 29]",46.00512882,6066,701,4,0,7,1.1140018780928678
undo,2,30,0,0,0,29,"[0, 25, 20, 27, 3, 29]",6,1,[18],27.40405358,10165,4099,1,0,7,1.119672312555708
undo,2,30,0,0,1,18,"[0, 25, 20, 27, 3, 29, 18]",7,0,[],8.090845662,11064,899,1,0,7,1.1951451398733344
undo,2,30,0,1,1,18,"[0, 25, 20, 27, 3, 29, 18]",7,0,[],8.090845662,15212,4148,1,0,7,1.1951451398733344
undo,3,3,0,0,0,0,[0],1,29,"[1, 2, 3, 4, 5, 6, 7, 8, 9, 10, 11, 12, 13, 14, 15, 16, 17, 18, 19, 20, 21, 22, 23, 24, 25, 26, 27, 28, 29]",300,163,-1,34,427,10,0.0
undo,3,3,0,0,0,17,"[0, 17]",2,16,"[3, 4, 7, 8, 10, 12, 14, 15, 16, 19, 20, 21, 22, 24, 26, 27]",197.6965299,7120,6957,2,27,9,1.0
undo,3,3,0,0,0,20,"[0, 17, 20]",3,13,"[3, 4, 7, 8, 10, 14, 15, 16, 19, 21, 22, 24, 27]",185.0474192,8011,891,2,24,9,1.0153332121237257
undo,3,3,0,0,0,3,"[0, 17, 20, 3]",4,10,"[4, 7, 8, 10, 14, 15, 16, 19, 21, 24]",164.6513412,9477,1466,2,22,9,1.0819240770773468
undo,3,3,0,0,0,19,"[0, 17, 20, 3, 19]",5,6,"[4, 8, 10, 14, 21, 24]",127.3150318,10326,849,2,11,9,1.1701070532957258
undo,3,3,0,0,0,21,"[0, 17, 20, 3, 19, 21]",6,5,"[4, 8, 10, 14, 24]",115.1084762,10967,641,2,6,9,1.202395500952127
undo,3,3,0,0,0,14,"[0, 17, 20, 3, 19, 21, 14]",7,4,"[4, 8, 10, 24]",88.20122806,11783,816,2,2,9,1.6456130302761207
undo,3,3,0,0,0,24,"[0, 17, 20, 3, 19, 21, 14, 24]",8,1,[8],17.08864127,14545,2762,1,0,9,4.806859660680286
undo,3,3,0,0,1,8,"[0, 17, 20, 3, 19, 21, 14, 24, 8]",9,0,[],4.923116212,15684,1139,1,0,9,4.915218144486606
undo,3,3,0,1,1,8,"[0, 17, 20, 3, 19, 21, 14, 24, 8]",9,0,[],4.923116212,17514,1830,1,0,9,4.915218144486606
undo,4,15,0,0,0,0,[0],1,25,"[1, 2, 3, 4, 7, 8, 9, 10, 11, 12, 13, 14, 15, 16, 18, 20, 21, 22, 23, 24, 25, 26, 27, 28, 29]",300,129,-1,4,65,9,0.0
undo,4,15,0,0,0,12,"[0, 12]",2,22,"[1, 2, 3, 4, 7, 8, 9, 10, 11, 13, 14, 15, 16, 18, 21, 22, 23, 24, 26, 27, 28, 29]",213.547701,3542,3413,4,35,9,1.0
undo,4,15,0,0,0,7,"[0, 12, 7]",3,16,"[1, 3, 4, 8, 9, 10, 11, 13, 14, 15, 16, 18, 21, 22, 24, 27]",180.3061607,4476,934,4,29,9,1.411291635294361
undo,4,15,0,0,0,11,"[0, 12, 7, 11]",4,9,"[3, 4, 13, 14, 15, 16, 21, 22, 27]",138.8212237,5629,1153,2,12,9,1.2980572092387541
undo,4,15,0,0,0,3,"[0, 12, 7, 11, 3]",5,7,"[4, 13, 14, 15, 16, 21, 22]",127.4194695,6119,490,2,7,9,1.3036925309398455
undo,4,15,0,0,0,16,"[0, 12, 7, 11, 3, 16]",6,5,"[4, 13, 14, 15, 22]",102.3395971,6912,793,2,2,9,1.731400260973498
undo,4,15,0,0,0,22,"[0, 12, 7, 11, 3, 16, 22]",7,2,"[13, 15]",43.48384117,7738,826,2,0,9,1.4868316064029183
undo,4,15,0,0,0,15,"[0, 12, 7, 11, 3, 16, 22, 15]",8,1,[13],17.87134422,9922,2184,1,0,9,1.4366485266193194
undo,4,15,0,0,1,13,"[0, 12, 7, 11, 3, 16, 22, 15, 13]",9,0,[],2.607006702,11063,1141,1,0,9,1.4844435538306184
undo,4,15,0,1,1,13,"[0, 12, 7, 11, 3, 16, 22, 15, 13]",9,0,[],2.607006702,14707,3644,1,0,9,1.4844435538306184
undo,5,32,0,0,0,0,[0],1,29,"[1, 2, 3, 4, 5, 6, 7, 8, 9, 10, 11, 12, 13, 14, 15, 16, 17, 18, 19, 20, 21, 22, 23, 24, 25, 26, 27, 28, 29]",300,164,-1,17,359,10,0.0
undo,5,32,0,0,0,19,"[0, 19]",2,28,"[1, 2, 3, 4, 5, 6, 7, 8, 9, 10, 11, 12, 13, 14, 15, 16, 17, 18, 20, 21, 22, 23, 24, 25, 26, 27, 28, 29]",283.5075775,7874,7710,16,294,10,1.0
undo,5,32,0,0,0,13,"[0, 19, 13]",3,24,"[2, 3, 4, 5, 6, 8, 9, 10, 11, 12, 14, 15, 16, 17, 18, 20, 21, 22, 23, 24, 25, 26, 27, 28]",260.3127505,8854,980,14,227,10,1.0172874229878615
undo,5,32,0,0,0,15,"[0, 19, 13, 15]",4,18,"[2, 3, 5, 8, 9, 10, 11, 12, 16, 17, 20, 22, 23, 24, 25, 26, 27, 28]",177.4393531,9868,1014,9,116,10,1.435447391509833
undo,5,32,0,0,0,28,"[0, 19, 13, 15, 28]",5,17,"[2, 3, 5, 8, 9, 10, 11, 12, 16, 17, 20, 22, 23, 24, 25, 26, 27]",166.0375988,10719,851,9,70,10,1.3843701324937985
undo,5,32,0,0,0,12,"[0, 19, 13, 15, 28, 12]",6,14,"[2, 3, 5, 8, 9, 10, 11, 16, 17, 20, 22, 24, 26, 27]",147.0639329,11619,900,6,35,10,1.358372254952329
undo,5,32,0,0,0,16,"[0, 19, 13, 15, 28, 12, 16]",7,13,"[2, 3, 5, 8, 9, 10, 11, 17, 20, 22, 24, 26, 27]",131.411457,12510,891,5,15,10,1.4356932930709845
undo,5,32,0,0,0,22,"[0, 19, 13, 15, 28, 12, 16, 22]",8,6,"[2, 8, 9, 17, 20, 27]",97.57360838,14268,1758,3,5,10,1.4335226411545752
undo,5,32,0,0,0,9,"[0, 19, 13, 15, 28, 12, 16, 22, 9]",9,3,"[2, 8, 20]",75.37000507,15004,736,3,0,10,1.4837166378374758
undo,5,32,0,0,1,2,"[0, 19, 13, 15, 28, 12, 16, 22, 9, 2]",10,0,[],24.28184597,17955,2951,1,0,10,1.9009621017233784
undo,5,32,0,1,1,2,"[0, 19, 13, 15, 28, 12, 16, 22, 9, 2]",10,0,[],24.28184597,26213,8258,1,0,10,1.9009621017233784
undo,6,14,0,0,0,0,[0],1,29,"[1, 2, 3, 4, 5, 6, 7, 8, 9, 10, 11, 12, 13, 14, 15, 16, 17, 18, 19, 20, 21, 22, 23, 24, 25, 26, 27, 28, 29]",300,129,-1,8,157,10,0.0
undo,6,14,0,0,0,18,"[0, 18]",2,17,"[1, 2, 3, 4, 7, 8, 9, 13, 15, 17, 19, 20, 22, 23, 25, 26, 28]",179.8958785,3158,3029,18,136,9,1.0
undo,6,14,0,0,0,8,"[0, 18, 8]",3,13,"[1, 2, 4, 7, 13, 15, 17, 19, 20, 23, 25, 26, 28]",166.294408,4032,874,18,99,9,1.0203858410107731
undo,6,14,0,0,0,1,"[0, 18, 8, 1]",4,10,"[2, 4, 7, 15, 17, 19, 23, 25, 26, 28]",142.6935606,4736,704,11,42,9,1.0173392374431458
undo,6,14,0,0,0,19,"[0, 18, 8, 1, 19]",5,9,"[2, 4, 7, 15, 17, 23, 25, 26, 28]",127.4620143,5503,767,11,22,9,1.1668364376922102
undo,6,14,0,0,0,26,"[0, 18, 8, 1, 19, 26]",6,4,"[4, 7, 23, 25]",74.23608081,7335,1832,2,4,9,1.1379310743287543
undo,6,14,0,0,0,23,"[0, 18, 8, 1, 19, 26, 23]",7,3,"[4, 7, 25]",63.41942699,8260,925,2,1,9,1.25860317400474
undo,6,14,0,0,0,25,"[0, 18, 8, 1, 19, 26, 23, 25]",8,1,[7],34.00854465,8982,722,1,0,9,1.6250439771619034
undo,6,14,0,0,1,7,"[0, 18, 8, 1, 19, 26, 23, 25, 7]",9,0,[],14.31082904,10776,1794,1,0,9,1.6358514342320594
undo,6,14,0,1,1,7,"[0, 18, 8, 1, 19, 26, 23, 25, 7]",9,0,[],14.31082904,17730,6954,1,0,9,1.6358514342320594
undo,7,31,0,0,0,0,[0],1,27,"[1, 3, 4, 5, 6, 7, 8, 10, 11, 12, 13, 14, 15, 16, 17, 18, 19, 20, 21, 22, 23, 24, 25, 26, 27, 28, 29]",300,131,-1,2,87,10,0.0
undo,7,31,0,0,0,14,"[0, 14]",2,25,"[1, 3, 5, 6, 7, 8, 10, 11, 12, 13, 15, 16, 17, 18, 19, 20, 21, 22, 23, 24, 25, 26, 27, 28, 29]",263.861378,2841,2710,2,59,10,1.0
undo,7,31,0,0,0,27,"[0, 14, 27]",3,22,"[1, 3, 5, 6, 7, 8, 10, 11, 12, 13, 15, 16, 17, 18, 19, 20, 21, 22, 24, 25, 28, 29]",235.6833724,3743,902,1,39,10,1.5881859159302467
undo,7,31,0,0,0,8,"[0, 14, 27, 8]",4,20,"[1, 3, 5, 6, 7, 10, 11, 12, 13, 16, 17, 18, 19, 20, 21, 22, 24, 25, 28, 29]",224.6380114,4201,458,1,36,10,2.1665048452331277
undo,7,31,0,0,0,18,"[0, 14, 27, 8, 18]",5,15,"[1, 5, 6, 7, 11, 12, 13, 16, 17, 19, 20, 22, 25, 28, 29]",188.7911147,5363,1162,1,26,10,1.7273375741920205
undo,7,31,0,0,0,17,"[0, 14, 27, 8, 18, 17]",6,13,"[1, 5, 6, 7, 11, 12, 13, 16, 19, 20, 22, 25, 28]",159.584951,7979,2616,1,13,10,1.551192427769927
undo,7,31,0,0,0,11,"[0, 14, 27, 8, 18, 17, 11]",7,7,"[5, 12, 16, 19, 22, 25, 28]",118.4753414,8864,885,1,4,10,2.9650760544203494
undo,7,31,0,0,0,5,"[0, 14, 27, 8, 18, 17, 11, 5]",8,2,"[16, 28]",74.79468207,10851,1987,1,1,10,2.56711965625205
undo,7,31,0,0,0,28,"[0, 14, 27, 8, 18, 17, 11, 5, 28]",9,1,[16],54.57093365,11618,767,1,0,10,2.2865510762058148
undo,7,31,0,0,1,16,"[0, 14, 27, 8, 18, 17, 11, 5, 28, 16]",10,0,[],20.95546102,13385,1767,1,0,10,2.089356850786318
undo,7,31,0,1,1,16,"[0, 14, 27, 8, 18, 17, 11, 5, 28, 16]",10,0,[],20.95546102,14780,1395,1,0,10,2.089356850786318
undo,8,42,0,0,0,0,[0],1,29,"[1, 2, 3, 4, 5, 6, 7, 8, 9, 10, 11, 12, 13, 14, 15, 16, 17, 18, 19, 20, 21, 22, 23, 24, 25, 26, 27, 28, 29]",300,131,-1,16,302,9,0.0
undo,8,42,0,0,0,5,"[0, 5]",2,28,"[1, 2, 3, 4, 6, 7, 8, 9, 10, 11, 12, 13, 14, 15, 16, 17, 18, 19, 20, 21, 22, 23, 24, 25, 26, 27, 28, 29]",191.2939744,4307,4176,1,22,9,1.0
undo,8,42,0,0,0,4,"[0, 5, 4]",3,23,"[1, 2, 3, 6, 7, 8, 9, 10, 11, 13, 15, 17, 18, 19, 20, 21, 22, 23, 24, 25, 26, 27, 29]",171.4445412,5069,762,1,14,9,1.420957801478707
undo,8,42,0,0,0,22,"[0, 5, 4, 22]",4,20,"[1, 2, 3, 6, 7, 8, 9, 11, 15, 17, 18, 19, 20, 21, 23, 24, 25, 26, 27, 29]",160.2642013,5942,873,1,11,9,1.5771494659680896
undo,8,42,0,0,0,8,"[0, 5, 4, 22, 8]",5,14,"[1, 2, 3, 6, 7, 11, 15, 18, 19, 24, 25, 26, 27, 29]",138.1282577,6793,851,1,10,9,1.5055393955524201
undo,8,42,0,0,0,1,"[0, 5, 4, 22, 8, 1]",6,5,"[2, 7, 19, 26, 27]",89.03650682,7414,621,1,7,9,1.3547259083637835
undo,8,42,0,0,0,7,"[0, 5, 4, 22, 8, 1, 7]",7,4,"[2, 19, 26, 27]",59.03650682,9940,2526,1,3,9,1.3909715672447451
undo,8,42,0,0,0,26,"[0, 5, 4, 22, 8, 1, 7, 26]",8,1,[27],32.46584631,10741,801,1,0,9,1.3511825943939393
undo,8,42,0,0,1,27,"[0, 5, 4, 22, 8, 1, 7, 26, 27]",9,0,[],14.43808994,11706,965,1,0,9,1.3391911688802078
undo,8,42,0,1,1,27,"[0, 5, 4, 22, 8, 1, 7, 26, 27]",9,0,[],14.43808994,15899,4193,1,0,9,1.3391911688802078
undo,9,41,0,0,0,0,[0],1,29,"[1, 2, 3, 4, 5, 6, 7, 8, 9, 10, 11, 12, 13, 14, 15, 16, 17, 18, 19, 20, 21, 22, 23, 24, 25, 26, 27, 28, 29]",300,163,-1,1,143,10,0.0
undo,9,41,0,0,0,3,"[0, 3]",2,28,"[1, 2, 4, 5, 6, 7, 8, 9, 10, 11, 12, 13, 14, 15, 16, 17, 18, 19, 20, 21, 22, 23, 24, 25, 26, 27, 28, 29]",260.3767745,2183,2020,2,145,9,1.0
undo,9,41,0,0,0,21,"[0, 3, 21]",3,27,"[1, 2, 4, 5, 6, 7, 8, 9, 10, 11, 12, 13, 14, 15, 16, 17, 18, 19, 20, 22, 23, 24, 25, 26, 27, 28, 29]",228.2364571,2904,721,36,222,8,1.468235756523827
undo,9,41,0,0,0,9,"[0, 3, 21, 9]",4,19,"[1, 2, 5, 6, 10, 12, 13, 14, 15, 17, 19, 20, 22, 24, 25, 26, 27, 28, 29]",178.8704769,4155,1251,14,60,8,1.4719448304670872
undo,9,41,0,0,0,2,"[0, 3, 21, 9, 2]",5,15,"[1, 5, 10, 12, 13, 14, 15, 17, 19, 22, 24, 25, 26, 27, 28]",166.787431,4826,671,11,30,8,1.4723441447813246
undo,9,41,0,0,0,17,"[0, 3, 21, 9, 2, 17]",6,12,"[1, 5, 10, 12, 13, 14, 15, 22, 24, 26, 27, 28]",134.2297898,5570,744,9,6,8,2.615179612876299
undo,9,41,0,0,0,10,"[0, 3, 21, 9, 2, 17, 10]",7,3,"[1, 24, 27]",84.98550076,6501,931,3,0,8,2.541570953075886
undo,9,41,0,0,1,27,"[0, 3, 21, 9, 2, 17, 10, 27]",8,0,[],19.77047182,9655,3154,1,0,8,2.7839812437821654
undo,9,41,0,1,1,27,"[0, 3, 21, 9, 2, 17, 10, 27]",8,0,[],19.77047182,10713,1058,1,0,8,2.7839812437821654
undo,10,29,0,0,0,0,[0],1,29,"[1, 2, 3, 4, 5, 6, 7, 8, 9, 10, 11, 12, 13, 14, 15, 16, 17, 18, 19, 20, 21, 22, 23, 24, 25, 26, 27, 28, 29]",300,130,-1,1,78,9,0.0
undo,10,29,0,0,0,6,"[0, 6]",2,28,"[1, 2, 3, 4, 5, 7, 8, 9, 10, 11, 12, 13, 14, 15, 16, 17, 18, 19, 20, 21, 22, 23, 24, 25, 26, 27, 28, 29]",228.4108947,3992,3862,1,25,9,1.0
undo,10,29,0,0,0,28,"[0, 6, 28]",3,24,"[1, 3, 4, 5, 7, 9, 10, 11, 12, 13, 14, 15, 16, 17, 18, 20, 21, 22, 23, 24, 25, 26, 27, 29]",187.1798384,4619,627,1,22,9,1.162106788166845
undo,10,29,0,0,0,27,"[0, 6, 28, 27]",4,19,"[1, 3, 4, 5, 7, 9, 10, 11, 12, 13, 14, 15, 16, 21, 22, 23, 25, 26, 29]",166.6615539,5477,858,1,21,9,1.2307173895439045
undo,10,29,0,0,0,22,"[0, 6, 28, 27, 22]",5,13,"[1, 3, 4, 5, 7, 9, 12, 13, 14, 15, 21, 26, 29]",133.4200136,6091,614,1,19,9,1.4241767805149903
undo,10,29,0,0,0,12,"[0, 6, 28, 27, 22, 12]",6,8,"[4, 5, 7, 9, 13, 14, 21, 26]",95.4726817,7268,1177,1,6,9,1.3248355326460857
undo,10,29,0,0,0,7,"[0, 6, 28, 27, 22, 12, 7]",7,4,"[4, 5, 9, 21]",81.87121119,7889,621,1,3,9,1.3264091962339806
undo,10,29,0,0,0,9,"[0, 6, 28, 27, 22, 12, 7, 9]",8,1,[4],52.80232748,8750,861,1,0,9,1.309391257644539
undo,10,29,0,0,1,4,"[0, 6, 28, 27, 22, 12, 7, 9, 4]",9,0,[],11.76575843,11044,2294,1,0,9,1.6396807789841599
undo,10,29,0,1,1,4,"[0, 6, 28, 27, 22, 12, 7, 9, 4]",9,0,[],11.76575843,12046,1002,1,0,9,1.6396807789841599
undo,11,4,0,0,0,0,[0],1,26,"[3, 4, 5, 6, 7, 8, 10, 11, 12, 13, 14, 15, 16, 17, 18, 19, 20, 21, 22, 23, 24, 25, 26, 27, 28, 29]",300,131,-1,4,489,10,0.0
undo,11,4,0,0,0,6,"[0, 6]",2,17,"[3, 4, 5, 10, 11, 13, 14, 15, 16, 17, 19, 20, 21, 22, 23, 25, 28]",207.2368608,4205,4074,37,365,8,1.0
undo,11,4,0,0,0,14,"[0, 6, 14]",3,12,"[3, 4, 5, 11, 13, 16, 17, 20, 21, 22, 25, 28]",131.6987909,5195,990,20,118,8,1.2324220545619278
undo,11,4,0,0,0,25,"[0, 6, 14, 25]",4,11,"[3, 4, 5, 11, 13, 16, 17, 20, 21, 22, 28]",115.5742754,5917,722,16,48,8,1.4543367296865626
undo,11,4,0,0,0,11,"[0, 6, 14, 25, 11]",5,10,"[3, 4, 5, 13, 16, 17, 20, 21, 22, 28]",96.78598117,6625,708,9,16,8,1.6538417614149823
undo,11,4,0,0,0,16,"[0, 6, 14, 25, 11, 16]",6,7,"[3, 13, 17, 20, 21, 22, 28]",81.78598117,7304,679,8,3,8,1.5830492223803088
undo,11,4,0,0,0,17,"[0, 6, 14, 25, 11, 16, 17]",7,4,"[3, 20, 21, 22]",55.70917155,9602,2298,4,0,8,1.490326454668909
undo,11,4,0,0,1,21,"[0, 6, 14, 25, 11, 16, 17, 21]",8,0,[],6.454730127,10634,1032,1,0,8,1.9860906282797253
undo,11,4,1,0,0,17,"[0, 6, 14, 25, 11, 16, 17]",7,4,"[3, 20, 21, 22]",55.70917155,15347,4713,4,0,8,1.490326454668909
undo,11,4,1,0,0,16,"[0, 6, 14, 25, 11, 16]",6,7,"[3, 13, 17, 20, 21, 22, 28]",81.78598117,15996,649,8,3,8,1.5830492223803088
undo,11,4,0,0,1,20,"[0, 6, 14, 25, 11, 16, 20]",7,0,[],26.054482,18440,2444,1,0,7,1.499210079151705
undo,11,4,1,0,0,16,"[0, 6, 14, 25, 11, 16]",6,7,"[3, 13, 17, 20, 21, 22, 28]",81.78598117,19647,1207,8,3,8,1.5830492223803088
undo,11,4,0,0,0,21,"[0, 6, 14, 25, 11, 16, 21]",7,1,[22],37.58190896,20901,1254,1,0,8,1.775488024491373
undo,11,4,0,0,1,22,"[0, 6, 14, 25, 11, 16, 21, 22]",8,0,[],26.53654794,21517,616,1,0,8,1.7235814203995905
undo,11,4,1,0,0,21,"[0, 6, 14, 25, 11, 16, 21]",7,1,[22],37.58190896,28863,7346,1,0,8,1.775488024491373
undo,11,4,1,0,0,16,"[0, 6, 14, 25, 11, 16]",6,7,"[3, 13, 17, 20, 21, 22, 28]",81.78598117,29247,384,8,3,8,1.5830492223803088
undo,11,4,1,0,0,11,"[0, 6, 14, 25, 11]",5,10,"[3, 4, 5, 13, 16, 17, 20, 21, 22, 28]",96.78598117,29530,283,9,16,8,1.6538417614149823
undo,11,4,1,0,0,25,"[0, 6, 14, 25]",4,11,"[3, 4, 5, 11, 13, 16, 17, 20, 21, 22, 28]",115.5742754,29747,217,16,48,8,1.4543367296865626
undo,11,4,1,0,0,14,"[0, 6, 14]",3,12,"[3, 4, 5, 11, 13, 16, 17, 20, 21, 22, 25, 28]",131.6987909,30063,316,20,118,8,1.2324220545619278
undo,11,4,1,0,0,6,"[0, 6]",2,17,"[3, 4, 5, 10, 11, 13, 14, 15, 16, 17, 19, 20, 21, 22, 23, 25, 28]",207.2368608,30363,300,37,365,8,1.0
undo,11,4,1,0,0,0,[0],1,26,"[3, 4, 5, 6, 7, 8, 10, 11, 12, 13, 14, 15, 16, 17, 18, 19, 20, 21, 22, 23, 24, 25, 26, 27, 28, 29]",300,30630,267,4,489,10,0.0
undo,11,4,0,0,0,28,"[0, 28]",2,21,"[3, 4, 5, 6, 10, 11, 12, 13, 14, 15, 16, 17, 19, 20, 21, 22, 23, 24, 25, 26, 27]",225.9392142,31400,770,2,216,10,1.0
undo,11,4,0,0,0,14,"[0, 28, 14]",3,13,"[3, 4, 5, 6, 11, 13, 16, 17, 20, 21, 22, 24, 25]",159.6972335,32209,809,1,26,10,1.0273973946789214
undo,11,4,0,0,0,25,"[0, 28, 14, 25]",4,12,"[3, 4, 5, 6, 11, 13, 16, 17, 20, 21, 22, 24]",143.572718,32994,785,1,25,10,1.233547772313525
undo,11,4,0,0,0,11,"[0, 28, 14, 25, 11]",5,10,"[3, 4, 5, 6, 13, 16, 17, 20, 21, 22]",124.7844238,36337,3343,1,15,10,1.425978575879479
undo,11,4,0,0,0,16,"[0, 28, 14, 25, 11, 16]",6,9,"[3, 4, 5, 6, 13, 17, 20, 21, 22]",109.7844238,37327,990,1,12,10,1.3799325158051412
undo,11,4,0,0,0,17,"[0, 28, 14, 25, 11, 16, 17]",7,5,"[3, 5, 20, 21, 22]",83.70761416,39420,2093,1,5,10,1.3195184878861832
undo,11,4,0,0,0,21,"[0, 28, 14, 25, 11, 16, 17, 21]",8,1,[22],34.45317274,40573,1153,1,0,9,1.7966566629354186
undo,11,4,0,0,1,22,"[0, 28, 14, 25, 11, 16, 17, 21, 22]",9,0,[],23.40781172,41695,1122,1,0,9,1.7433011729935863
undo,11,4,0,1,1,22,"[0, 28, 14, 25, 11, 16, 17, 21, 22]",9,0,[],23.40781172,43229,1534,1,0,9,1.7433011729935863
undo,12,0,0,0,0,0,[0],1,27,"[2, 3, 4, 5, 6, 7, 8, 9, 10, 11, 12, 13, 14, 15, 16, 17, 19, 20, 21, 22, 23, 24, 25, 26, 27, 28, 29]",300,128,-1,104,1136,9,0.0
undo,12,0,0,0,0,28,"[0, 28]",2,26,"[2, 3, 4, 5, 6, 7, 8, 9, 10, 11, 12, 13, 14, 15, 16, 17, 19, 20, 21, 22, 23, 24, 25, 26, 27, 29]",194.9190788,3676,3548,39,388,9,1.0
undo,12,0,0,0,0,5,"[0, 28, 5]",3,21,"[2, 3, 4, 7, 8, 9, 11, 12, 13, 14, 15, 16, 17, 19, 20, 21, 23, 24, 25, 26, 29]",151.2613189,8842,5166,27,210,9,1.0978295127671733
undo,12,0,0,0,0,24,"[0, 28, 5, 24]",4,15,"[2, 3, 4, 7, 8, 9, 11, 12, 15, 17, 19, 20, 23, 25, 26]",118.5046402,10052,1210,5,55,9,1.0878913317206194
undo,12,0,0,0,0,4,"[0, 28, 5, 24, 4]",5,12,"[3, 7, 8, 9, 11, 12, 15, 17, 19, 20, 23, 26]",107.1028859,10673,621,4,27,9,1.232248723295087
undo,12,0,0,0,0,26,"[0, 28, 5, 24, 4, 26]",6,10,"[3, 7, 8, 9, 11, 12, 15, 17, 19, 23]",95.06129136,11281,608,4,18,9,1.26853876021577
undo,12,0,0,0,0,3,"[0, 28, 5, 24, 4, 26, 3]",7,4,"[7, 8, 17, 19]",37.05267131,12914,1633,4,0,8,1.2130791758333945
undo,12,0,0,0,1,7,"[0, 28, 5, 24, 4, 26, 3, 7]",8,0,[],12.96948215,13771,857,1,0,8,1.4000822382248972
undo,12,0,1,0,0,3,"[0, 28, 5, 24, 4, 26, 3]",7,4,"[7, 8, 17, 19]",37.05267131,20344,6573,4,0,8,1.2130791758333945
undo,12,0,1,0,0,26,"[0, 28, 5, 24, 4, 26]",6,10,"[3, 7, 8, 9, 11, 12, 15, 17, 19, 23]",95.06129136,20528,184,4,18,9,1.26853876021577
undo,12,0,1,0,0,4,"[0, 28, 5, 24, 4]",5,12,"[3, 7, 8, 9, 11, 12, 15, 17, 19, 20, 23, 26]",107.1028859,20694,166,4,27,9,1.232248723295087
undo,12,0,1,0,0,24,"[0, 28, 5, 24]",4,15,"[2, 3, 4, 7, 8, 9, 11, 12, 15, 17, 19, 20, 23, 25, 26]",118.5046402,21911,1217,5,55,9,1.0878913317206194
undo,12,0,1,0,0,5,"[0, 28, 5]",3,21,"[2, 3, 4, 7, 8, 9, 11, 12, 13, 14, 15, 16, 17, 19, 20, 21, 23, 24, 25, 26, 29]",151.2613189,22194,283,27,210,9,1.0978295127671733
undo,12,0,1,0,0,28,"[0, 28]",2,26,"[2, 3, 4, 5, 6, 7, 8, 9, 10, 11, 12, 13, 14, 15, 16, 17, 19, 20, 21, 22, 23, 24, 25, 26, 27, 29]",194.9190788,22378,184,39,388,9,1.0
undo,12,0,1,0,0,0,[0],1,27,"[2, 3, 4, 5, 6, 7, 8, 9, 10, 11, 12, 13, 14, 15, 16, 17, 19, 20, 21, 22, 23, 24, 25, 26, 27, 28, 29]",300,22578,200,104,1136,9,0.0
undo,12,0,0,0,0,20,"[0, 20]",2,25,"[2, 3, 4, 5, 6, 7, 8, 9, 11, 12, 13, 14, 15, 16, 17, 19, 21, 22, 23, 24, 25, 26, 27, 28, 29]",215.4955622,23509,931,36,372,9,1.0
undo,12,0,0,0,0,26,"[0, 20, 26]",3,18,"[3, 4, 5, 7, 8, 9, 11, 12, 13, 14, 15, 17, 19, 21, 22, 23, 24, 28]",119.3654421,25700,2191,7,86,8,1.1180998438567586
undo,12,0,0,0,0,4,"[0, 20, 26, 4]",4,13,"[3, 5, 7, 8, 9, 11, 12, 15, 17, 19, 23, 24, 28]",107.3238475,26403,703,5,42,8,1.2308371954411446
undo,12,0,0,0,0,24,"[0, 20, 26, 4, 24]",5,12,"[3, 5, 7, 8, 9, 11, 12, 15, 17, 19, 23, 28]",95.92209327,27099,696,5,28,8,1.223252131469953
undo,12,0,0,0,0,15,"[0, 20, 26, 4, 24, 15]",6,8,"[3, 5, 7, 8, 9, 11, 12, 17]",72.57685821,29788,2689,4,6,8,1.203111816373103
undo,12,0,0,0,0,8,"[0, 20, 26, 4, 24, 15, 8]",7,2,"[3, 7]",33.46164378,30615,827,2,0,8,1.1981218492198897
undo,12,0,0,0,1,7,"[0, 20, 26, 4, 24, 15, 8, 7]",8,0,[],14.3566706,31796,1181,1,0,8,1.3933157873106754
undo,12,0,0,1,1,7,"[0, 20, 26, 4, 24, 15, 8, 7]",8,0,[],14.3566706,33078,1282,1,0,8,1.3933157873106754
undo,13,44,0,0,0,0,[0],1,29,"[1, 2, 3, 4, 5, 6, 7, 8, 9, 10, 11, 12, 13, 14, 15, 16, 17, 18, 19, 20, 21, 22, 23, 24, 25, 26, 27, 28, 29]",300,128,-1,13,126,7,0.0
undo,13,44,0,0,0,8,"[0, 8]",2,17,"[1, 4, 5, 7, 9, 10, 11, 12, 13, 14, 15, 20, 21, 23, 24, 25, 27]",145.7923478,6787,6659,1,10,7,1.0
undo,13,44,0,0,0,20,"[0, 8, 20]",3,16,"[1, 4, 5, 7, 9, 10, 11, 12, 13, 14, 15, 21, 23, 24, 25, 27]",133.7093018,7917,1130,1,9,7,1.0890794433668698
undo,13,44,0,0,0,9,"[0, 8, 20, 9]",4,7,"[4, 7, 11, 12, 14, 23, 24]",76.43801756,9216,1299,1,6,7,1.40892325509949
undo,13,44,0,0,0,4,"[0, 8, 20, 9, 4]",5,4,"[7, 12, 23, 24]",56.74030196,10818,1602,1,3,7,1.3849770570803555
undo,13,44,0,0,0,7,"[0, 8, 20, 9, 4, 7]",6,1,[23],25.72417712,12306,1488,1,0,7,1.3274380931474288
undo,13,44,0,0,1,23,"[0, 8, 20, 9, 4, 7, 23]",7,0,[],6.619203947,13393,1087,1,0,7,1.3395824779823196
undo,13,44,1,0,0,7,"[0, 8, 20, 9, 4, 7]",6,1,[23],25.72417712,17544,4151,1,0,7,1.3274380931474288
undo,13,44,1,0,0,4,"[0, 8, 20, 9, 4]",5,4,"[7, 12, 23, 24]",56.74030196,18194,650,1,3,7,1.3849770570803555
undo,13,44,1,0,0,9,"[0, 8, 20, 9]",4,7,"[4, 7, 11, 12, 14, 23, 24]",76.43801756,18577,383,1,6,7,1.40892325509949
undo,13,44,1,0,0,20,"[0, 8, 20]",3,16,"[1, 4, 5, 7, 9, 10, 11, 12, 13, 14, 15, 21, 23, 24, 25, 27]",133.7093018,18994,417,1,9,7,1.0890794433668698
undo,13,44,1,0,0,8,"[0, 8]",2,17,"[1, 4, 5, 7, 9, 10, 11, 12, 13, 14, 15, 20, 21, 23, 24, 25, 27]",145.7923478,19378,384,1,10,7,1.0
undo,13,44,1,0,0,0,[0],1,29,"[1, 2, 3, 4, 5, 6, 7, 8, 9, 10, 11, 12, 13, 14, 15, 16, 17, 18, 19, 20, 21, 22, 23, 24, 25, 26, 27, 28, 29]",300,19711,333,13,126,7,0.0
undo,13,44,0,0,0,9,"[0, 9]",2,17,"[2, 4, 5, 7, 8, 10, 11, 12, 13, 14, 20, 22, 23, 24, 25, 26, 28]",141.32423,23360,3649,3,26,7,1.0
undo,13,44,0,0,0,4,"[0, 9, 4]",3,15,"[2, 5, 7, 8, 10, 11, 12, 14, 20, 22, 23, 24, 25, 26, 28]",121.6265143,24015,655,3,21,7,1.0155532843148096
undo,13,44,0,0,0,7,"[0, 9, 4, 7]",4,10,"[2, 5, 11, 12, 14, 23, 24, 25, 26, 28]",90.61038951,24857,842,3,9,7,1.0134022837125412
undo,13,44,0,0,0,23,"[0, 9, 4, 7, 23]",5,7,"[5, 12, 14, 24, 25, 26, 28]",71.50541634,25707,850,3,4,7,1.043310757564056
undo,13,44,0,0,0,28,"[0, 9, 4, 7, 23, 28]",6,1,[26],19.5342705,29141,3434,1,0,7,1.0580072524850708
undo,13,44,0,0,1,26,"[0, 9, 4, 7, 23, 28, 26]",7,0,[],6.534270496,29689,548,1,0,7,1.055488728885845
undo,13,44,0,1,1,26,"[0, 9, 4, 7, 23, 28, 26]",7,0,[],6.534270496,33211,3522,1,0,7,1.055488728885845
undo,14,22,0,0,0,0,[0],1,29,"[1, 2, 3, 4, 5, 6, 7, 8, 9, 10, 11, 12, 13, 14, 15, 16, 17, 18, 19, 20, 21, 22, 23, 24, 25, 26, 27, 28, 29]",300,130,-1,31,704,9,0.0
undo,14,22,0,0,0,16,"[0, 16]",2,21,"[1, 3, 6, 7, 8, 9, 11, 13, 14, 15, 17, 18, 19, 20, 21, 22, 24, 25, 27, 28, 29]",218.605897,4077,3947,17,147,9,1.0
undo,14,22,0,0,0,6,"[0, 16, 6]",3,16,"[1, 3, 7, 9, 13, 14, 15, 17, 19, 20, 21, 22, 24, 25, 28, 29]",184.1675463,4787,710,5,77,9,1.3071109638102874
undo,14,22,0,0,0,9,"[0, 16, 6, 9]",4,15,"[1, 3, 7, 13, 14, 15, 17, 19, 20, 21, 22, 24, 25, 28, 29]",157.5404924,5752,965,4,33,9,1.5907585082674378
undo,14,22,0,0,0,19,"[0, 16, 6, 9, 19]",5,12,"[3, 7, 13, 14, 15, 17, 20, 21, 24, 25, 28, 29]",137.1444143,6499,747,3,17,9,2.0453047636701496
undo,14,22,0,0,0,29,"[0, 16, 6, 9, 19, 29]",6,10,"[3, 7, 13, 14, 15, 17, 20, 21, 24, 28]",122.111118,7070,571,3,10,9,2.310050419546042
undo,14,22,0,0,0,14,"[0, 16, 6, 9, 19, 29, 14]",7,2,"[7, 17]",63.86165444,8518,1448,1,1,9,1.8228779744230632
undo,14,22,0,0,0,7,"[0, 16, 6, 9, 19, 29, 14, 7]",8,1,[17],50.82324963,9129,611,1,0,9,1.981278197083242
undo,14,22,0,0,1,17,"[0, 16, 6, 9, 19, 29, 14, 7, 17]",9,0,[],9.205945539,10251,1122,1,0,9,1.840137026694984
undo,14,22,1,0,0,7,"[0, 16, 6, 9, 19, 29, 14, 7]",8,1,[17],50.82324963,12597,2346,1,0,9,1.981278197083242
undo,14,22,1,0,0,14,"[0, 16, 6, 9, 19, 29, 14]",7,2,"[7, 17]",63.86165444,13131,534,1,1,9,1.8228779744230632
undo,14,22,1,0,0,29,"[0, 16, 6, 9, 19, 29]",6,10,"[3, 7, 13, 14, 15, 17, 20, 21, 24, 28]",122.111118,13297,166,3,10,9,2.310050419546042
undo,14,22,1,0,0,19,"[0, 16, 6, 9, 19]",5,12,"[3, 7, 13, 14, 15, 17, 20, 21, 24, 25, 28, 29]",137.1444143,13448,151,3,17,9,2.0453047636701496
undo,14,22,1,0,0,9,"[0, 16, 6, 9]",4,15,"[1, 3, 7, 13, 14, 15, 17, 19, 20, 21, 22, 24, 25, 28, 29]",157.5404924,13597,149,4,33,9,1.5907585082674378
undo,14,22,1,0,0,6,"[0, 16, 6]",3,16,"[1, 3, 7, 9, 13, 14, 15, 17, 19, 20, 21, 22, 24, 25, 28, 29]",184.1675463,13747,150,5,77,9,1.3071109638102874
undo,14,22,1,0,0,16,"[0, 16]",2,21,"[1, 3, 6, 7, 8, 9, 11, 13, 14, 15, 17, 18, 19, 20, 21, 22, 24, 25, 27, 28, 29]",218.605897,13898,151,17,147,9,1.0
undo,14,22,1,0,0,0,[0],1,29,"[1, 2, 3, 4, 5, 6, 7, 8, 9, 10, 11, 12, 13, 14, 15, 16, 17, 18, 19, 20, 21, 22, 23, 24, 25, 26, 27, 28, 29]",300,14047,149,31,704,9,0.0
undo,14,22,0,0,0,13,"[0, 13]",2,22,"[1, 3, 5, 6, 7, 8, 9, 10, 12, 14, 15, 16, 17, 19, 20, 21, 23, 24, 25, 26, 28, 29]",189.3202819,14959,912,2,52,8,1.0
undo,14,22,1,0,0,0,[0],1,29,"[1, 2, 3, 4, 5, 6, 7, 8, 9, 10, 11, 12, 13, 14, 15, 16, 17, 18, 19, 20, 21, 22, 23, 24, 25, 26, 27, 28, 29]",300,19513,4554,31,704,9,0.0
undo,14,22,0,0,0,16,"[0, 16]",2,21,"[1, 3, 6, 7, 8, 9, 11, 13, 14, 15, 17, 18, 19, 20, 21, 22, 24, 25, 27, 28, 29]",218.605897,21217,1704,17,147,9,1.0
undo,14,22,0,0,0,28,"[0, 16, 28]",3,13,"[6, 7, 9, 13, 14, 17, 19, 20, 21, 22, 24, 25, 29]",184.1675463,25809,4592,12,61,9,1.047282311284478
undo,14,22,0,0,0,6,"[0, 16, 28, 6]",4,12,"[7, 9, 13, 14, 17, 19, 20, 21, 22, 24, 25, 29]",154.1675463,26773,964,12,43,9,1.645645870580622
undo,14,22,0,0,0,9,"[0, 16, 28, 6, 9]",5,8,"[7, 14, 17, 19, 20, 21, 24, 29]",127.5404924,28584,1811,8,17,9,1.925750226630103
undo,14,22,0,0,0,19,"[0, 16, 28, 6, 9, 19]",6,6,"[7, 14, 17, 21, 24, 29]",107.1444143,29400,816,3,7,9,2.4220750331476455
undo,14,22,0,0,0,29,"[0, 16, 28, 6, 9, 19, 29]",7,4,"[7, 14, 17, 24]",92.11111796,30085,685,2,2,9,2.6996279574991067
undo,14,22,0,0,0,14,"[0, 16, 28, 6, 9, 19, 29, 14]",8,1,[7],33.86165444,32187,2102,1,0,9,2.0544639927929462
undo,14,22,0,0,1,7,"[0, 16, 28, 6, 9, 19, 29, 14, 7]",9,0,[],20.82324963,32660,473,1,0,9,2.219817088951114
undo,14,22,0,1,1,7,"[0, 16, 28, 6, 9, 19, 29, 14, 7]",9,0,[],20.82324963,34646,1986,1,0,9,2.219817088951114
undo,15,13,0,0,0,0,[0],1,29,"[1, 2, 3, 4, 5, 6, 7, 8, 9, 10, 11, 12, 13, 14, 15, 16, 17, 18, 19, 20, 21, 22, 23, 24, 25, 26, 27, 28, 29]",300,161,-1,60,2676,11,0.0
undo,15,13,0,0,0,24,"[0, 24]",2,28,"[1, 2, 3, 4, 5, 6, 7, 8, 9, 10, 11, 12, 13, 14, 15, 16, 17, 18, 19, 20, 21, 22, 23, 25, 26, 27, 28, 29]",288.8196601,3951,3790,16,1444,11,1.0
undo,15,13,0,0,0,28,"[0, 24, 28]",3,23,"[1, 2, 3, 4, 6, 7, 8, 9, 10, 11, 12, 13, 15, 16, 17, 19, 20, 21, 22, 23, 26, 27, 29]",222.5324064,5986,2035,8,243,11,1.0513810491680837
undo,15,13,0,0,0,2,"[0, 24, 28, 2]",4,19,"[1, 3, 4, 6, 7, 9, 11, 12, 13, 15, 16, 17, 19, 20, 21, 23, 26, 27, 29]",184.889346,6978,992,7,110,11,1.050374132001543
undo,15,13,0,0,0,29,"[0, 24, 28, 2, 29]",5,18,"[1, 3, 4, 6, 7, 9, 11, 12, 13, 15, 16, 17, 19, 20, 21, 23, 26, 27]",173.1846461,8099,1121,7,85,11,1.1393409619120594
undo,15,13,0,0,0,7,"[0, 24, 28, 2, 29, 7]",6,17,"[1, 3, 4, 6, 9, 11, 12, 13, 15, 16, 17, 19, 20, 21, 23, 26, 27]",157.9203086,16551,8452,5,45,11,1.349777315111579
undo,15,13,0,0,0,11,"[0, 24, 28, 2, 29, 7, 11]",7,11,"[1, 3, 6, 13, 15, 16, 17, 19, 23, 26, 27]",127.8537158,17418,867,6,14,10,1.3495133496802794
undo,15,13,0,0,0,6,"[0, 24, 28, 2, 29, 7, 11, 6]",8,8,"[1, 3, 13, 15, 16, 17, 23, 26]",108.7487426,18164,746,5,4,10,1.7614317297759663
undo,15,13,0,0,0,26,"[0, 24, 28, 2, 29, 7, 11, 6, 26]",9,2,"[16, 23]",88.64899138,18842,678,2,0,10,2.2091367151417285
undo,15,13,0,0,1,23,"[0, 24, 28, 2, 29, 7, 11, 6, 26, 23]",10,0,[],29.10908879,21064,2222,1,0,10,4.7932157551009595
undo,15,13,0,1,1,23,"[0, 24, 28, 2, 29, 7, 11, 6, 26, 23]",10,0,[],29.10908879,22194,1130,1,0,10,4.7932157551009595
undo,16,24,0,0,0,0,[0],1,29,"[1, 2, 3, 4, 5, 6, 7, 8, 9, 10, 11, 12, 13, 14, 15, 16, 17, 18, 19, 20, 21, 22, 23, 24, 25, 26, 27, 28, 29]",300,132,-1,4,76,10,0.0
undo,16,24,0,0,0,16,"[0, 16]",2,28,"[1, 2, 3, 4, 5, 6, 7, 8, 9, 10, 11, 12, 13, 14, 15, 17, 18, 19, 20, 21, 22, 23, 24, 25, 26, 27, 28, 29]",210.3562607,5225,5093,13,110,9,1.0
undo,16,24,0,0,0,8,"[0, 16, 8]",3,22,"[1, 2, 3, 4, 6, 9, 10, 11, 13, 14, 15, 17, 20, 21, 22, 23, 24, 25, 26, 27, 28, 29]",181.3562607,7278,2053,3,31,9,1.0774669368510212
undo,16,24,0,0,0,22,"[0, 16, 8, 22]",4,18,"[2, 3, 4, 6, 9, 10, 11, 13, 14, 15, 17, 23, 24, 25, 26, 27, 28, 29]",167.9398528,7853,575,3,23,9,1.2531772310046492
undo,16,24,0,0,0,15,"[0, 16, 8, 22, 15]",5,16,"[3, 4, 6, 9, 10, 11, 13, 14, 17, 23, 24, 25, 26, 27, 28, 29]",146.7266494,8652,799,3,16,9,1.2813329946092564
undo,16,24,0,0,0,28,"[0, 16, 8, 22, 15, 28]",6,8,"[3, 4, 9, 11, 13, 23, 26, 27]",101.4497237,9552,900,3,5,9,1.2060847818642253
undo,16,24,0,0,0,23,"[0, 16, 8, 22, 15, 28, 23]",7,3,"[9, 11, 27]",82.42342609,10286,734,3,1,9,1.2349355190066822
undo,16,24,0,0,0,11,"[0, 16, 8, 22, 15, 28, 23, 11]",8,2,"[9, 27]",55.49760206,11228,942,2,0,9,1.2172586817191506
undo,16,24,0,0,1,27,"[0, 16, 8, 22, 15, 28, 23, 11, 27]",9,0,[],27.69472451,13475,2247,1,0,9,1.192247579330137
undo,16,24,0,1,1,27,"[0, 16, 8, 22, 15, 28, 23, 11, 27]",9,0,[],27.69472451,14715,1240,1,0,9,1.192247579330137
undo,17,37,0,0,0,0,[0],1,29,"[1, 2, 3, 4, 5, 6, 7, 8, 9, 10, 11, 12, 13, 14, 15, 16, 17, 18, 19, 20, 21, 22, 23, 24, 25, 26, 27, 28, 29]",300,132,-1,6,168,10,0.0
undo,17,37,0,0,0,19,"[0, 19]",2,19,"[1, 2, 4, 5, 6, 7, 9, 10, 11, 15, 17, 18, 20, 21, 22, 25, 26, 28, 29]",185.6627795,2787,2655,25,244,9,1.0
undo,17,37,0,0,0,21,"[0, 19, 21]",3,14,"[1, 2, 4, 7, 10, 11, 15, 17, 18, 20, 22, 25, 26, 29]",144.5531699,3557,770,10,75,9,1.001632816594558
undo,17,37,0,0,0,15,"[0, 19, 21, 15]",4,9,"[1, 2, 4, 7, 18, 20, 22, 26, 29]",129.5531699,4261,704,5,32,9,1.0243376499143988
undo,17,37,0,0,0,20,"[0, 19, 21, 15, 20]",5,8,"[1, 2, 4, 7, 18, 22, 26, 29]",112.5531699,4758,497,5,14,9,1.250507291508492
undo,17,37,0,0,0,1,"[0, 19, 21, 15, 20, 1]",6,6,"[2, 4, 7, 18, 22, 26]",78.31868434,5870,1112,4,4,9,1.4002166443864243
undo,17,37,0,0,0,2,"[0, 19, 21, 15, 20, 1, 2]",7,4,"[4, 7, 18, 22]",61.11403381,6485,615,2,2,9,1.5802253600182588
undo,17,37,0,0,0,4,"[0, 19, 21, 15, 20, 1, 2, 4]",8,1,[22],49.71227956,7203,718,1,0,9,1.5399187067712754
undo,17,37,0,0,1,22,"[0, 19, 21, 15, 20, 1, 2, 4, 22]",9,0,[],24.71227956,8252,1049,1,0,9,1.6903775033413582
undo,17,37,0,1,1,22,"[0, 19, 21, 15, 20, 1, 2, 4, 22]",9,0,[],24.71227956,9665,1413,1,0,9,1.6903775033413582
undo,18,17,0,0,0,0,[0],1,28,"[1, 2, 3, 4, 5, 6, 7, 8, 9, 10, 11, 12, 13, 14, 15, 16, 17, 18, 19, 20, 22, 23, 24, 25, 26, 27, 28, 29]",300,129,-1,2,73,8,0.0
undo,18,17,0,0,0,9,"[0, 9]",2,25,"[1, 2, 3, 5, 6, 7, 8, 10, 11, 12, 14, 15, 16, 17, 18, 19, 20, 22, 23, 24, 25, 26, 27, 28, 29]",210.5293344,2709,2580,1,34,8,1.0
undo,18,17,0,0,0,16,"[0, 9, 16]",3,21,"[1, 2, 3, 5, 7, 8, 10, 11, 12, 14, 17, 18, 19, 20, 22, 23, 25, 26, 27, 28, 29]",197.1876704,3216,507,1,26,8,1.173103464220352
undo,18,17,0,0,0,2,"[0, 9, 16, 2]",4,18,"[1, 3, 5, 7, 8, 10, 11, 12, 14, 17, 18, 19, 23, 25, 26, 27, 28, 29]",181.0631549,4737,1521,1,23,8,1.14825089247282
undo,18,17,0,0,0,17,"[0, 9, 16, 2, 17]",5,7,"[7, 8, 12, 14, 26, 27, 29]",142.7356191,5742,1005,4,5,7,1.4896040699768547
undo,18,17,0,0,0,8,"[0, 9, 16, 2, 17, 8]",6,3,"[7, 12, 27]",104.5256727,6470,728,3,0,7,1.4604726966175894
undo,18,17,0,0,1,27,"[0, 9, 16, 2, 17, 8, 27]",7,0,[],21.88790895,8301,1831,1,0,7,1.2949460667276491
undo,18,17,0,1,1,27,"[0, 9, 16, 2, 17, 8, 27]",7,0,[],21.88790895,12496,4195,1,0,7,1.2949460667276491
undo,19,21,0,0,0,0,[0],1,29,"[1, 2, 3, 4, 5, 6, 7, 8, 9, 10, 11, 12, 13, 14, 15, 16, 17, 18, 19, 20, 21, 22, 23, 24, 25, 26, 27, 28, 29]",300,130,-1,84,830,9,0.0
undo,19,21,0,0,0,25,"[0, 25]",2,26,"[1, 2, 3, 4, 5, 6, 7, 8, 9, 10, 11, 12, 13, 14, 15, 16, 17, 18, 20, 21, 22, 23, 24, 26, 27, 29]",240.1836143,5185,5055,30,238,9,1.0
undo,19,21,0,0,0,23,"[0, 25, 23]",3,21,"[1, 2, 4, 6, 7, 8, 9, 10, 11, 12, 14, 15, 16, 17, 18, 20, 21, 22, 24, 27, 29]",196.8592562,5982,797,14,80,9,1.0416131642057598
undo,19,21,0,0,0,21,"[0, 25, 23, 21]",4,14,"[1, 4, 6, 8, 9, 14, 15, 16, 17, 18, 20, 22, 24, 29]",167.2450705,7360,1378,10,25,9,1.4768792067751173
undo,19,21,0,0,0,14,"[0, 25, 23, 21, 14]",5,10,"[4, 8, 9, 15, 16, 17, 18, 22, 24, 29]",141.6325735,8071,711,8,13,9,1.3826076066332742
undo,19,21,0,0,0,4,"[0, 25, 23, 21, 14, 4]",6,7,"[8, 15, 16, 17, 18, 24, 29]",127.4904379,8669,598,8,3,9,1.3487191473328533
undo,19,21,0,0,0,16,"[0, 25, 23, 21, 14, 4, 16]",7,3,"[8, 15, 24]",82.89223163,9634,965,4,1,9,1.3301484172843694
undo,19,21,0,0,0,8,"[0, 25, 23, 21, 14, 4, 16, 8]",8,2,"[15, 24]",64.2911564,10286,652,2,0,9,1.3009886562393016
undo,19,21,0,0,1,15,"[0, 25, 23, 21, 14, 4, 16, 8, 15]",9,0,[],39.2911564,11953,1667,1,0,9,1.5486591410600183
undo,19,21,0,1,1,15,"[0, 25, 23, 21, 14, 4, 16, 8, 15]",9,0,[],39.2911564,13379,1426,1,0,9,1.5486591410600183
undo,20,38,0,0,0,0,[0],1,29,"[1, 2, 3, 4, 5, 6, 7, 8, 9, 10, 11, 12, 13, 14, 15, 16, 17, 18, 19, 20, 21, 22, 23, 24, 25, 26, 27, 28, 29]",300,130,-1,33,506,9,0.0
undo,20,38,0,0,0,15,"[0, 15]",2,24,"[1, 2, 3, 4, 5, 6, 7, 10, 11, 12, 13, 14, 16, 17, 18, 19, 20, 21, 22, 24, 25, 26, 27, 28]",226.6242547,7023,6893,26,315,8,1.0
undo,20,38,0,0,0,24,"[0, 15, 24]",3,11,"[4, 11, 13, 16, 17, 18, 19, 20, 26, 27, 28]",136.4854728,7999,976,2,6,7,1.0535301217137132
undo,20,38,0,0,0,26,"[0, 15, 24, 26]",4,7,"[4, 11, 13, 16, 17, 20, 28]",105.6796292,8593,594,2,4,7,1.5434895633080832
undo,20,38,0,0,0,13,"[0, 15, 24, 26, 13]",5,3,"[4, 17, 20]",74.63127981,9623,1030,2,1,7,2.305690552074527
undo,20,38,0,0,0,4,"[0, 15, 24, 26, 13, 4]",6,1,[20],43.23064287,10473,850,1,0,7,3.662159510243782
undo,20,38,0,0,1,20,"[0, 15, 24, 26, 13, 4, 20]",7,0,[],9.289517375,11136,663,1,0,7,5.3983581382663335
undo,20,38,1,0,0,4,"[0, 15, 24, 26, 13, 4]",6,1,[20],43.23064287,12930,1794,1,0,7,3.662159510243782
undo,20,38,1,0,0,13,"[0, 15, 24, 26, 13]",5,3,"[4, 17, 20]",74.63127981,13080,150,2,1,7,2.305690552074527
undo,20,38,1,0,0,26,"[0, 15, 24, 26]",4,7,"[4, 11, 13, 16, 17, 20, 28]",105.6796292,13230,150,2,4,7,1.5434895633080832
undo,20,38,1,0,0,24,"[0, 15, 24]",3,11,"[4, 11, 13, 16, 17, 18, 19, 20, 26, 27, 28]",136.4854728,13363,133,2,6,7,1.0535301217137132
undo,20,38,1,0,0,15,"[0, 15]",2,24,"[1, 2, 3, 4, 5, 6, 7, 10, 11, 12, 13, 14, 16, 17, 18, 19, 20, 21, 22, 24, 25, 26, 27, 28]",226.6242547,13513,150,26,315,8,1.0
undo,20,38,1,0,0,0,[0],1,29,"[1, 2, 3, 4, 5, 6, 7, 8, 9, 10, 11, 12, 13, 14, 15, 16, 17, 18, 19, 20, 21, 22, 23, 24, 25, 26, 27, 28, 29]",300,13663,150,33,506,9,0.0
undo,20,38,0,0,0,11,"[0, 11]",2,23,"[1, 2, 3, 4, 5, 7, 10, 12, 13, 14, 15, 16, 17, 18, 19, 20, 21, 22, 24, 25, 26, 27, 28]",220.093805,15150,1487,2,40,9,1.0
undo,20,38,0,0,0,28,"[0, 11, 28]",3,16,"[1, 4, 5, 7, 10, 12, 13, 14, 15, 16, 17, 19, 20, 21, 24, 26]",193.0752928,15960,810,2,20,9,1.0012220945316377
undo,20,38,0,0,0,16,"[0, 11, 28, 16]",4,13,"[1, 4, 5, 10, 12, 13, 14, 15, 17, 19, 20, 24, 26]",164.0752928,16615,655,2,16,9,1.2422672958602723
undo,20,38,0,0,0,15,"[0, 11, 28, 16, 15]",5,9,"[4, 5, 13, 14, 17, 19, 20, 24, 26]",122.4579887,17260,645,2,14,9,2.4196280466601676
undo,20,38,0,0,0,4,"[0, 11, 28, 16, 15, 4]",6,6,"[13, 17, 19, 20, 24, 26]",96.45798873,17916,656,2,9,9,2.9030072771852855
undo,20,38,0,0,0,20,"[0, 11, 28, 16, 15, 4, 20]",7,3,"[13, 17, 19]",62.51686323,18798,882,1,2,9,4.409951139385221
undo,20,38,0,0,0,17,"[0, 11, 28, 16, 15, 4, 20, 17]",8,1,[19],38.74713459,20424,1626,1,0,9,4.030739410625113
undo,20,38,0,0,1,19,"[0, 11, 28, 16, 15, 4, 20, 17, 19]",9,0,[],17.36957626,22435,2011,1,0,9,3.511004666623391
undo,20,38,0,1,1,19,"[0, 11, 28, 16, 15, 4, 20, 17, 19]",9,0,[],17.36957626,26912,4477,1,0,9,3.511004666623391
undo,21,12,0,0,0,0,[0],1,29,"[1, 2, 3, 4, 5, 6, 7, 8, 9, 10, 11, 12, 13, 14, 15, 16, 17, 18, 19, 20, 21, 22, 23, 24, 25, 26, 27, 28, 29]",300,130,-1,2,32,9,0.0
undo,21,12,0,0,0,16,"[0, 16]",2,16,"[2, 4, 5, 6, 7, 12, 13, 14, 18, 19, 22, 23, 24, 25, 27, 29]",209.2916762,5916,5786,3,38,8,1.0
undo,21,12,0,0,0,4,"[0, 16, 4]",3,11,"[2, 5, 6, 7, 12, 14, 19, 22, 24, 25, 27]",175.0864135,6993,1077,1,16,8,1.00004499617691
undo,21,12,0,0,0,12,"[0, 16, 4, 12]",4,6,"[14, 19, 22, 24, 25, 27]",132.8963673,7934,941,1,8,8,1.0113942412768022
undo,21,12,0,0,0,27,"[0, 16, 4, 12, 27]",5,4,"[14, 19, 22, 24]",108.5447759,9016,1082,1,3,8,1.1193150037844588
undo,21,12,0,0,0,14,"[0, 16, 4, 12, 27, 14]",6,2,"[19, 24]",79.89167838,9724,708,1,1,8,1.1821826897854277
undo,21,12,0,0,0,24,"[0, 16, 4, 12, 27, 14, 24]",7,1,[19],62.68702784,10387,663,1,0,8,1.3297400833764192
undo,21,12,1,0,0,14,"[0, 16, 4, 12, 27, 14]",6,2,"[19, 24]",79.89167838,11563,1176,1,1,8,1.1821826897854277
undo,21,12,1,0,0,27,"[0, 16, 4, 12, 27]",5,4,"[14, 19, 22, 24]",108.5447759,11697,134,1,3,8,1.1193150037844588
undo,21,12,1,0,0,12,"[0, 16, 4, 12]",4,6,"[14, 19, 22, 24, 25, 27]",132.8963673,11830,133,1,8,8,1.0113942412768022
undo,21,12,1,0,0,4,"[0, 16, 4]",3,11,"[2, 5, 6, 7, 12, 14, 19, 22, 24, 25, 27]",175.0864135,11980,150,1,16,8,1.00004499617691
undo,21,12,1,0,0,16,"[0, 16]",2,16,"[2, 4, 5, 6, 7, 12, 13, 14, 18, 19, 22, 23, 24, 25, 27, 29]",209.2916762,12113,133,3,38,8,1.0
undo,21,12,1,0,0,0,[0],1,29,"[1, 2, 3, 4, 5, 6, 7, 8, 9, 10, 11, 12, 13, 14, 15, 16, 17, 18, 19, 20, 21, 22, 23, 24, 25, 26, 27, 28, 29]",300,12264,151,2,32,9,0.0
undo,21,12,0,0,0,18,"[0, 18]",2,12,"[1, 2, 3, 5, 6, 7, 9, 11, 15, 17, 20, 21]",149.9166898,16029,3765,1,6,7,1.0
undo,21,12,1,0,0,0,[0],1,29,"[1, 2, 3, 4, 5, 6, 7, 8, 9, 10, 11, 12, 13, 14, 15, 16, 17, 18, 19, 20, 21, 22, 23, 24, 25, 26, 27, 28, 29]",300,18213,2184,2,32,9,0.0
undo,21,12,0,0,0,6,"[0, 6]",2,28,"[1, 2, 3, 4, 5, 7, 8, 9, 10, 11, 12, 13, 14, 15, 16, 17, 18, 19, 20, 21, 22, 23, 24, 25, 26, 27, 28, 29]",283.5987805,22724,4511,2,18,9,1.0
undo,21,12,0,0,0,25,"[0, 6, 25]",3,13,"[2, 4, 5, 7, 12, 14, 16, 19, 22, 23, 24, 27, 28]",193.4599986,23885,1161,3,21,8,1.4358021344876182
undo,21,12,0,0,0,22,"[0, 6, 25, 22]",4,9,"[2, 4, 7, 12, 14, 16, 19, 24, 27]",121.2588906,24866,981,4,10,7,2.031017839754873
undo,21,12,0,0,0,16,"[0, 6, 25, 22, 16]",5,4,"[4, 12, 19, 27]",100.2588906,25440,574,3,2,7,2.2020152188081616
undo,21,12,0,0,0,4,"[0, 6, 25, 22, 16, 4]",6,2,"[12, 27]",66.05362787,26044,604,2,0,7,1.8729499758807084
undo,21,12,0,0,1,12,"[0, 6, 25, 22, 16, 4, 12]",7,0,[],23.86358165,26591,547,1,0,7,1.6713148530252862
undo,21,12,1,0,0,4,"[0, 6, 25, 22, 16, 4]",6,2,"[12, 27]",66.05362787,32145,5554,2,0,7,1.8729499758807084
undo,21,12,1,0,0,16,"[0, 6, 25, 22, 16]",5,4,"[4, 12, 19, 27]",100.2588906,32313,168,3,2,7,2.2020152188081616
undo,21,12,1,0,0,22,"[0, 6, 25, 22]",4,9,"[2, 4, 7, 12, 14, 16, 19, 24, 27]",121.2588906,32496,183,4,10,7,2.031017839754873
undo,21,12,1,0,0,25,"[0, 6, 25]",3,13,"[2, 4, 5, 7, 12, 14, 16, 19, 22, 23, 24, 27, 28]",193.4599986,32696,200,3,21,8,1.4358021344876182
undo,21,12,1,0,0,6,"[0, 6]",2,28,"[1, 2, 3, 4, 5, 7, 8, 9, 10, 11, 12, 13, 14, 15, 16, 17, 18, 19, 20, 21, 22, 23, 24, 25, 26, 27, 28, 29]",283.5987805,35279,2583,2,18,9,1.0
undo,21,12,1,0,0,0,[0],1,29,"[1, 2, 3, 4, 5, 6, 7, 8, 9, 10, 11, 12, 13, 14, 15, 16, 17, 18, 19, 20, 21, 22, 23, 24, 25, 26, 27, 28, 29]",300,36412,1133,2,32,9,0.0
undo,21,12,0,0,0,16,"[0, 16]",2,16,"[2, 4, 5, 6, 7, 12, 13, 14, 18, 19, 22, 23, 24, 25, 27, 29]",209.2916762,38170,1758,3,38,8,1.0
undo,21,12,0,0,0,4,"[0, 16, 4]",3,11,"[2, 5, 6, 7, 12, 14, 19, 22, 24, 25, 27]",175.0864135,38850,680,1,16,8,1.00004499617691
undo,21,12,0,0,0,12,"[0, 16, 4, 12]",4,6,"[14, 19, 22, 24, 25, 27]",132.8963673,39512,662,1,8,8,1.0113942412768022
undo,21,12,0,0,0,27,"[0, 16, 4, 12, 27]",5,4,"[14, 19, 22, 24]",108.5447759,40199,687,1,3,8,1.1193150037844588
undo,21,12,0,0,0,14,"[0, 16, 4, 12, 27, 14]",6,2,"[19, 24]",79.89167838,40885,686,1,1,8,1.1821826897854277
undo,21,12,0,0,0,24,"[0, 16, 4, 12, 27, 14, 24]",7,1,[19],62.68702784,42054,1169,1,0,8,1.3297400833764192
undo,21,12,0,0,1,19,"[0, 16, 4, 12, 27, 14, 24, 19]",8,0,[],3.865263163,43567,1513,1,0,8,2.27325645157102
undo,21,12,0,1,1,19,"[0, 16, 4, 12, 27, 14, 24, 19]",8,0,[],3.865263163,44579,1012,1,0,8,2.27325645157102
undo,22,20,0,0,0,0,[0],1,21,"[1, 2, 3, 4, 5, 6, 7, 8, 9, 12, 17, 18, 20, 21, 22, 23, 25, 26, 27, 28, 29]",300,163,-1,1,9,9,0.0
undo,22,20,0,0,0,12,"[0, 12]",2,20,"[1, 2, 3, 4, 5, 6, 7, 8, 9, 17, 18, 20, 21, 22, 23, 25, 26, 27, 28, 29]",271.5570747,6400,6237,1,8,9,1.0
undo,22,20,0,0,0,29,"[0, 12, 29]",3,13,"[1, 3, 4, 5, 7, 8, 17, 18, 20, 21, 25, 27, 28]",218.4722369,11717,5317,13,25,6,1.5064191946670615
undo,22,20,0,0,0,3,"[0, 12, 29, 3]",4,6,"[4, 7, 17, 18, 20, 25]",97.6417772,13488,1771,6,3,6,1.2130314369296327
undo,22,20,0,0,0,18,"[0, 12, 29, 3, 18]",5,2,"[7, 17]",47.48203238,14725,1237,2,0,6,1.370257066303058
undo,22,20,0,0,1,7,"[0, 12, 29, 3, 18, 7]",6,0,[],4.342723161,15902,1177,1,0,6,1.3009284445980271
undo,22,20,1,0,0,18,"[0, 12, 29, 3, 18]",5,2,"[7, 17]",47.48203238,17379,1477,2,0,6,1.370257066303058
undo,22,20,1,0,0,3,"[0, 12, 29, 3]",4,6,"[4, 7, 17, 18, 20, 25]",97.6417772,17513,134,6,3,6,1.2130314369296327
undo,22,20,1,0,0,29,"[0, 12, 29]",3,13,"[1, 3, 4, 5, 7, 8, 17, 18, 20, 21, 25, 27, 28]",218.4722369,17662,149,13,25,6,1.5064191946670615
undo,22,20,1,0,0,12,"[0, 12]",2,20,"[1, 2, 3, 4, 5, 6, 7, 8, 9, 17, 18, 20, 21, 22, 23, 25, 26, 27, 28, 29]",271.5570747,17829,167,1,8,9,1.0
undo,22,20,1,0,0,0,[0],1,21,"[1, 2, 3, 4, 5, 6, 7, 8, 9, 12, 17, 18, 20, 21, 22, 23, 25, 26, 27, 28, 29]",300,18213,384,1,9,9,0.0
undo,22,20,0,0,0,1,"[0, 1]",2,14,"[3, 4, 5, 6, 8, 9, 12, 20, 21, 23, 26, 27, 28, 29]",197.3501096,20049,1836,1,9,8,1.0
undo,22,20,0,0,0,5,"[0, 1, 5]",3,12,"[4, 6, 8, 9, 12, 20, 21, 23, 26, 27, 28, 29]",160.675868,20954,905,1,8,8,1.1088946720668915
undo,22,20,0,0,0,21,"[0, 1, 5, 21]",4,8,"[4, 6, 8, 9, 20, 23, 27, 28]",115.675868,23049,2095,1,6,8,1.0805828994591202
undo,22,20,0,0,0,8,"[0, 1, 5, 21, 8]",5,5,"[6, 9, 23, 27, 28]",98.21161876,23481,432,1,5,8,1.0976815296746363
undo,22,20,0,0,0,23,"[0, 1, 5, 21, 8, 23]",6,3,"[6, 9, 27]",53.52381281,24411,930,1,2,8,1.0820667611140062
undo,22,20,0,0,0,9,"[0, 1, 5, 21, 8, 23, 9]",7,1,[6],34.3144401,24902,491,1,0,8,1.0771429624373048
undo,22,20,0,0,1,6,"[0, 1, 5, 21, 8, 23, 9, 6]",8,0,[],11.29271124,28076,3174,1,0,8,1.0892675954154076
undo,22,20,0,1,1,6,"[0, 1, 5, 21, 8, 23, 9, 6]",8,0,[],11.29271124,29712,1636,1,0,8,1.0892675954154076
basic,23,41,0,0,0,0,[0],1,29,"[1, 2, 3, 4, 5, 6, 7, 8, 9, 10, 11, 12, 13, 14, 15, 16, 17, 18, 19, 20, 21, 22, 23, 24, 25, 26, 27, 28, 29]",300,131,-1,1,143,10,0.0
basic,23,41,0,0,0,28,"[0, 28]",2,27,"[1, 2, 3, 5, 6, 7, 8, 9, 10, 11, 12, 13, 14, 15, 16, 17, 18, 19, 20, 21, 22, 23, 24, 25, 26, 27, 29]",259.8004975,10546,10415,37,249,9,1.0
basic,23,41,0,0,0,5,"[0, 28, 5]",3,26,"[1, 2, 3, 6, 7, 8, 9, 10, 11, 12, 13, 14, 15, 16, 17, 18, 19, 20, 21, 22, 23, 24, 25, 26, 27, 29]",246.199027,11346,800,30,182,9,1.714241539747437
basic,23,41,0,0,0,3,"[0, 28, 5, 3]",4,25,"[1, 2, 6, 7, 8, 9, 10, 11, 12, 13, 14, 15, 16, 17, 18, 19, 20, 21, 22, 23, 24, 25, 26, 27, 29]",211.3708775,12015,669,20,93,9,2.2367972660995847
basic,23,41,0,0,0,21,"[0, 28, 5, 3, 21]",5,19,"[1, 2, 6, 9, 10, 11, 12, 13, 14, 15, 17, 18, 19, 20, 22, 24, 25, 26, 27]",179.2305601,13644,1629,12,46,9,2.470864770481327
basic,23,41,0,0,0,17,"[0, 28, 5, 3, 21, 17]",6,12,"[1, 2, 9, 10, 12, 13, 14, 15, 22, 24, 26, 27]",127.5681947,14737,1093,7,14,9,2.7202724861599736
basic,23,41,0,0,0,9,"[0, 28, 5, 3, 21, 17, 9]",7,5,"[1, 2, 10, 12, 14]",96.55206986,15555,818,4,4,9,2.472263750197181
basic,23,41,0,0,0,2,"[0, 28, 5, 3, 21, 17, 9, 2]",8,4,"[1, 10, 12, 14]",84.46902389,16438,883,4,0,9,2.382175894337433
basic,23,41,0,0,1,10,"[0, 28, 5, 3, 21, 17, 9, 2, 10]",9,0,[],11.63359295,17965,1527,1,0,9,3.4086244722643912
basic,23,41,0,1,1,10,"[0, 28, 5, 3, 21, 17, 9, 2, 10]",9,0,[],11.63359295,19658,1693,1,0,9,3.4086244722643912
basic,24,19,0,0,0,0,[0],1,29,"[1, 2, 3, 4, 5, 6, 7, 8, 9, 10, 11, 12, 13, 14, 15, 16, 17, 18, 19, 20, 21, 22, 23, 24, 25, 26, 27, 28, 29]",300,130,-1,12,149,8,0.0
basic,24,19,0,0,0,28,"[0, 28]",2,10,"[4, 6, 9, 10, 11, 14, 20, 22, 24, 27]",136.1219966,24624,24494,2,14,7,1.0
basic,24,19,0,0,0,4,"[0, 28, 4]",3,9,"[6, 9, 10, 11, 14, 20, 22, 24, 27]",124.9416567,25383,759,2,10,7,1.0622089009735736
basic,24,19,0,0,0,14,"[0, 28, 4, 14]",4,5,"[6, 11, 20, 22, 24]",74.93165771,27092,1709,2,3,7,1.0762539106237072
basic,24,19,0,0,0,11,"[0, 28, 4, 14, 11]",5,3,"[20, 22, 24]",64.11500388,29326,2234,2,1,7,1.0758449982739315
basic,24,19,0,0,0,20,"[0, 28, 4, 14, 11, 20]",6,1,[22],16.31333027,30371,1045,1,0,7,1.254808614269969
basic,24,19,0,0,1,22,"[0, 28, 4, 14, 11, 20, 22]",7,0,[],3.160383832,31286,915,1,0,7,1.3933675480175218
basic,24,19,0,1,1,22,"[0, 28, 4, 14, 11, 20, 22]",7,0,[],3.160383832,32177,891,1,0,7,1.3933675480175218
basic,25,33,0,0,0,0,[0],1,23,"[1, 2, 5, 7, 8, 11, 12, 13, 14, 15, 16, 17, 18, 19, 20, 21, 23, 24, 25, 26, 27, 28, 29]",300,129,-1,5,108,9,0.0
basic,25,33,0,0,0,8,"[0, 8]",2,22,"[1, 2, 5, 7, 11, 12, 13, 14, 15, 16, 17, 18, 19, 20, 21, 23, 24, 25, 26, 27, 28, 29]",265.8679037,3865,3736,5,87,9,1.0
basic,25,33,0,0,0,17,"[0, 8, 17]",3,12,"[2, 7, 11, 13, 14, 16, 19, 20, 21, 24, 26, 29]",129.3395183,10044,6179,1,23,8,1.0708823424540757
basic,25,33,0,0,0,29,"[0, 8, 17, 29]",4,8,"[7, 11, 13, 14, 19, 20, 24, 26]",77.86136764,10784,740,6,5,7,1.0560682693618684
basic,25,33,0,0,0,26,"[0, 8, 17, 29, 26]",5,2,"[7, 14]",49.96871627,11649,865,2,0,7,1.1051545011892732
basic,25,33,0,0,0,14,"[0, 8, 17, 29, 26, 14]",6,1,[7],37.31960563,12333,684,1,0,7,1.2108173296965667
basic,25,33,0,0,1,7,"[0, 8, 17, 29, 26, 14, 7]",7,0,[],22.45353689,12965,632,1,0,7,1.30241797896574
basic,25,33,0,1,1,7,"[0, 8, 17, 29, 26, 14, 7]",7,0,[],22.45353689,16178,3213,1,0,7,1.30241797896574
basic,26,40,0,0,0,0,[0],1,29,"[1, 2, 3, 4, 5, 6, 7, 8, 9, 10, 11, 12, 13, 14, 15, 16, 17, 18, 19, 20, 21, 22, 23, 24, 25, 26, 27, 28, 29]",300,129,-1,8,191,9,0.0
basic,26,40,0,0,0,1,"[0, 1]",2,18,"[2, 5, 6, 7, 8, 9, 10, 11, 13, 15, 17, 18, 19, 21, 22, 23, 27, 29]",247.8463808,7115,6986,4,80,9,1.0
basic,26,40,0,0,0,6,"[0, 1, 6]",3,17,"[2, 5, 7, 8, 9, 10, 11, 13, 15, 17, 18, 19, 21, 22, 23, 27, 29]",227.7466295,7766,651,4,74,9,1.0459427008232034
basic,26,40,0,0,0,9,"[0, 1, 6, 9]",4,10,"[2, 5, 8, 11, 18, 19, 21, 22, 23, 27]",159.146338,8887,1121,17,39,8,1.142098432552584
basic,26,40,0,0,0,18,"[0, 1, 6, 9, 18]",5,9,"[2, 5, 8, 11, 19, 21, 22, 23, 27]",142.5933926,10198,1311,13,14,8,1.3288108654802917
basic,26,40,0,0,0,5,"[0, 1, 6, 9, 18, 5]",6,7,"[2, 8, 19, 21, 22, 23, 27]",111.0180858,11086,888,5,5,8,1.5366414787972102
basic,26,40,0,0,0,23,"[0, 1, 6, 9, 18, 5, 23]",7,3,"[2, 19, 21]",82.71614241,19427,8341,3,0,8,2.2908821040631264
basic,26,40,0,0,1,19,"[0, 1, 6, 9, 18, 5, 23, 19]",8,0,[],50.76305179,21756,2329,1,0,8,2.4294131203959415
basic,26,40,0,1,1,19,"[0, 1, 6, 9, 18, 5, 23, 19]",8,0,[],50.76305179,22446,690,1,0,8,2.4294131203959415
basic,27,14,0,0,0,0,[0],1,29,"[1, 2, 3, 4, 5, 6, 7, 8, 9, 10, 11, 12, 13, 14, 15, 16, 17, 18, 19, 20, 21, 22, 23, 24, 25, 26, 27, 28, 29]",300,130,-1,8,157,10,0.0
basic,27,14,0,0,0,18,"[0, 18]",2,17,"[1, 2, 3, 4, 7, 8, 9, 13, 15, 17, 19, 20, 22, 23, 25, 26, 28]",179.8958785,3025,2895,18,136,9,1.0
basic,27,14,0,0,0,8,"[0, 18, 8]",3,13,"[1, 2, 4, 7, 13, 15, 17, 19, 20, 23, 25, 26, 28]",166.294408,3787,762,18,99,9,1.0203858410107731
basic,27,14,0,0,0,19,"[0, 18, 8, 19]",4,10,"[1, 2, 4, 7, 15, 17, 23, 25, 26, 28]",145.6788799,4600,813,7,52,9,1.0436397834807676
basic,27,14,0,0,0,1,"[0, 18, 8, 19, 1]",5,9,"[2, 4, 7, 15, 17, 23, 25, 26, 28]",130.4473337,6606,2006,7,21,9,1.096538583531719
basic,27,14,0,0,0,26,"[0, 18, 8, 19, 1, 26]",6,4,"[4, 7, 23, 25]",75.70247088,7443,837,2,4,9,1.1305399427709442
basic,27,14,0,0,0,23,"[0, 18, 8, 19, 1, 26, 23]",7,3,"[4, 7, 25]",64.88581706,8949,1506,2,1,9,1.2508020127641972
basic,27,14,0,0,0,25,"[0, 18, 8, 19, 1, 26, 23, 25]",8,1,[7],35.47493472,9870,921,1,0,9,1.6160852369336203
basic,27,14,0,0,1,7,"[0, 18, 8, 19, 1, 26, 23, 25, 7]",9,0,[],15.77721911,10912,1042,1,0,9,1.6274549091166954
basic,27,14,0,1,1,7,"[0, 18, 8, 19, 1, 26, 23, 25, 7]",9,0,[],15.77721911,11663,751,1,0,9,1.6274549091166954
basic,28,6,0,0,0,0,[0],1,29,"[1, 2, 3, 4, 5, 6, 7, 8, 9, 10, 11, 12, 13, 14, 15, 16, 17, 18, 19, 20, 21, 22, 23, 24, 25, 26, 27, 28, 29]",300,164,-1,180,4304,10,0.0
basic,28,6,0,0,0,3,"[0, 3]",2,28,"[1, 2, 4, 5, 6, 7, 8, 9, 10, 11, 12, 13, 14, 15, 16, 17, 18, 19, 20, 21, 22, 23, 24, 25, 26, 27, 28, 29]",266.4738908,8170,8006,90,1607,10,1.0
basic,28,6,0,0,0,24,"[0, 3, 24]",3,24,"[1, 2, 4, 5, 6, 7, 8, 10, 11, 13, 14, 16, 17, 18, 19, 20, 21, 22, 23, 25, 26, 27, 28, 29]",202.520783,11255,3085,6,84,10,1.001910163116413
basic,28,6,0,0,0,10,"[0, 3, 24, 10]",4,20,"[1, 2, 4, 5, 6, 7, 8, 11, 13, 14, 16, 17, 18, 20, 21, 22, 23, 26, 27, 29]",189.1043751,12628,1373,6,66,10,1.314793299348402
basic,28,6,0,0,0,17,"[0, 3, 24, 10, 17]",5,19,"[1, 2, 4, 5, 6, 7, 8, 11, 13, 14, 16, 18, 20, 21, 22, 23, 26, 27, 29]",169.3812922,13559,931,6,45,10,1.8507472474352449
basic,28,6,0,0,0,18,"[0, 3, 24, 10, 17, 18]",6,15,"[1, 2, 6, 7, 8, 13, 14, 16, 20, 21, 22, 23, 26, 27, 29]",155.4529039,14588,1029,5,31,10,2.373454740786756
basic,28,6,0,0,0,16,"[0, 3, 24, 10, 17, 18, 16]",7,13,"[1, 2, 6, 7, 13, 14, 20, 21, 22, 23, 26, 27, 29]",132.1076688,15490,902,5,19,10,2.3260122505247613
basic,28,6,0,0,0,29,"[0, 3, 24, 10, 17, 18, 16, 29]",8,6,"[6, 14, 21, 22, 23, 27]",95.41979617,16453,963,5,4,10,1.920792706835084
basic,28,6,0,0,0,23,"[0, 3, 24, 10, 17, 18, 16, 29, 23]",9,2,"[6, 22]",47.90137869,22775,6322,2,0,10,1.8785104449401346
basic,28,6,0,0,1,6,"[0, 3, 24, 10, 17, 18, 16, 29, 23, 6]",10,0,[],12.54603963,23632,857,1,0,10,1.7847743285121995
basic,28,6,0,1,1,6,"[0, 3, 24, 10, 17, 18, 16, 29, 23, 6]",10,0,[],12.54603963,24346,714,1,0,10,1.7847743285121995
basic,29,39,0,0,0,0,[0],1,28,"[1, 2, 3, 4, 5, 6, 7, 9, 10, 11, 12, 13, 14, 15, 16, 17, 18, 19, 20, 21, 22, 23, 24, 25, 26, 27, 28, 29]",300,129,-1,1,30,10,0.0
basic,29,39,0,0,0,29,"[0, 29]",2,26,"[1, 2, 3, 4, 5, 6, 7, 9, 10, 12, 13, 14, 15, 16, 17, 18, 19, 20, 21, 22, 23, 24, 25, 26, 27, 28]",243.0614366,3878,3749,8,104,9,1.0
basic,29,39,0,0,0,12,"[0, 29, 12]",3,18,"[1, 2, 4, 5, 7, 9, 10, 13, 14, 15, 16, 18, 19, 22, 23, 24, 26, 28]",182.5221931,4776,898,5,54,9,1.0026200331524904
basic,29,39,0,0,0,10,"[0, 29, 12, 10]",4,16,"[1, 2, 4, 5, 7, 9, 13, 14, 15, 16, 18, 19, 22, 23, 24, 26]",147.0116313,5578,802,5,34,9,1.2874817019928908
basic,29,39,0,0,0,7,"[0, 29, 12, 10, 7]",5,10,"[1, 2, 5, 13, 16, 18, 19, 22, 24, 26]",113.5900814,6419,841,4,12,9,1.2250826263866774
basic,29,39,0,0,0,26,"[0, 29, 12, 10, 7, 26]",6,5,"[1, 16, 18, 19, 22]",94.90853971,7066,647,3,4,9,1.2697275353190085
basic,29,39,0,0,0,22,"[0, 29, 12, 10, 7, 26, 22]",7,2,"[16, 19]",77.18849457,7712,646,2,0,9,1.438961743955176
basic,29,39,0,0,0,16,"[0, 29, 12, 10, 7, 26, 22, 16]",8,1,[19],42.18849457,8569,857,1,0,9,1.3580882130477205
basic,29,39,0,0,1,19,"[0, 29, 12, 10, 7, 26, 22, 16, 19]",9,0,[],24.72424537,9158,589,1,0,9,1.3646589157842668
basic,29,39,0,1,1,19,"[0, 29, 12, 10, 7, 26, 22, 16, 19]",9,0,[],24.72424537,10128,970,1,0,9,1.3646589157842668
basic,30,8,0,0,0,0,[0],1,29,"[1, 2, 3, 4, 5, 6, 7, 8, 9, 10, 11, 12, 13, 14, 15, 16, 17, 18, 19, 20, 21, 22, 23, 24, 25, 26, 27, 28, 29]",300,130,-1,10,149,9,0.0
basic,30,8,0,0,0,5,"[0, 5]",2,28,"[1, 2, 3, 4, 6, 7, 8, 9, 10, 11, 12, 13, 14, 15, 16, 17, 18, 19, 20, 21, 22, 23, 24, 25, 26, 27, 28, 29]",254.5137383,3826,3696,10,100,9,1.0
basic,30,8,0,0,0,25,"[0, 5, 25]",3,20,"[1, 2, 3, 4, 6, 11, 12, 14, 15, 16, 17, 18, 19, 20, 21, 22, 23, 24, 28, 29]",215.3091468,4422,596,4,42,9,1.2272747879909065
basic,30,8,0,0,0,1,"[0, 5, 25, 1]",4,17,"[3, 4, 6, 11, 12, 14, 15, 16, 17, 18, 20, 21, 22, 23, 24, 28, 29]",190.3091468,5835,1413,3,24,9,1.1770245007593956
basic,30,8,0,0,0,23,"[0, 5, 25, 1, 23]",5,15,"[3, 4, 6, 11, 14, 15, 16, 17, 18, 20, 21, 22, 24, 28, 29]",167.2874179,6883,1048,1,14,9,1.141996583852372
basic,30,8,0,0,0,18,"[0, 5, 25, 1, 23, 18]",6,9,"[3, 4, 11, 14, 15, 16, 17, 24, 28]",125.5261919,7807,924,1,7,9,1.3199166330970717
basic,30,8,0,0,0,14,"[0, 5, 25, 1, 23, 18, 14]",7,2,"[11, 17]",68.03706246,10016,2209,1,1,9,2.714920831666598
basic,30,8,0,0,0,17,"[0, 5, 25, 1, 23, 18, 14, 17]",8,1,[11],31.02355141,10718,702,1,0,9,2.462600896722246
basic,30,8,0,0,1,11,"[0, 5, 25, 1, 23, 18, 14, 17, 11]",9,0,[],5.84419479,11404,686,1,0,9,2.246839316887767
basic,30,8,0,1,1,11,"[0, 5, 25, 1, 23, 18, 14, 17, 11]",9,0,[],5.84419479,11796,392,1,0,9,2.246839316887767
basic,31,21,0,0,0,0,[0],1,29,"[1, 2, 3, 4, 5, 6, 7, 8, 9, 10, 11, 12, 13, 14, 15, 16, 17, 18, 19, 20, 21, 22, 23, 24, 25, 26, 27, 28, 29]",300,130,-1,84,830,9,0.0
basic,31,21,0,0,0,25,"[0, 25]",2,26,"[1, 2, 3, 4, 5, 6, 7, 8, 9, 10, 11, 12, 13, 14, 15, 16, 17, 18, 20, 21, 22, 23, 24, 26, 27, 29]",240.1836143,2540,2410,30,238,9,1.0
basic,31,21,0,0,0,23,"[0, 25, 23]",3,21,"[1, 2, 4, 6, 7, 8, 9, 10, 11, 12, 14, 15, 16, 17, 18, 20, 21, 22, 24, 27, 29]",196.8592562,4273,1733,14,80,9,1.0416131642057598
basic,31,21,0,0,0,21,"[0, 25, 23, 21]",4,14,"[1, 4, 6, 8, 9, 14, 15, 16, 17, 18, 20, 22, 24, 29]",167.2450705,5028,755,10,25,9,1.4768792067751173
basic,31,21,0,0,0,14,"[0, 25, 23, 21, 14]",5,10,"[4, 8, 9, 15, 16, 17, 18, 22, 24, 29]",141.6325735,5737,709,8,13,9,1.3826076066332742
basic,31,21,0,0,0,4,"[0, 25, 23, 21, 14, 4]",6,7,"[8, 15, 16, 17, 18, 24, 29]",127.4904379,6342,605,8,3,9,1.3487191473328533
basic,31,21,0,0,0,16,"[0, 25, 23, 21, 14, 4, 16]",7,3,"[8, 15, 24]",82.89223163,7390,1048,4,1,9,1.3301484172843694
basic,31,21,0,0,0,8,"[0, 25, 23, 21, 14, 4, 16, 8]",8,2,"[15, 24]",64.2911564,8066,676,2,0,9,1.3009886562393016
basic,31,21,0,0,1,15,"[0, 25, 23, 21, 14, 4, 16, 8, 15]",9,0,[],39.2911564,8754,688,1,0,9,1.5486591410600183
basic,31,21,0,1,1,15,"[0, 25, 23, 21, 14, 4, 16, 8, 15]",9,0,[],39.2911564,9780,1026,1,0,9,1.5486591410600183
basic,32,24,0,0,0,0,[0],1,29,"[1, 2, 3, 4, 5, 6, 7, 8, 9, 10, 11, 12, 13, 14, 15, 16, 17, 18, 19, 20, 21, 22, 23, 24, 25, 26, 27, 28, 29]",300,130,-1,4,76,10,0.0
basic,32,24,0,0,0,16,"[0, 16]",2,28,"[1, 2, 3, 4, 5, 6, 7, 8, 9, 10, 11, 12, 13, 14, 15, 17, 18, 19, 20, 21, 22, 23, 24, 25, 26, 27, 28, 29]",210.3562607,3434,3304,13,110,9,1.0
basic,32,24,0,0,0,8,"[0, 16, 8]",3,22,"[1, 2, 3, 4, 6, 9, 10, 11, 13, 14, 15, 17, 20, 21, 22, 23, 24, 25, 26, 27, 28, 29]",181.3562607,5112,1678,3,31,9,1.0774669368510212
basic,32,24,0,0,0,22,"[0, 16, 8, 22]",4,18,"[2, 3, 4, 6, 9, 10, 11, 13, 14, 15, 17, 23, 24, 25, 26, 27, 28, 29]",167.9398528,5758,646,3,23,9,1.2531772310046492
basic,32,24,0,0,0,15,"[0, 16, 8, 22, 15]",5,16,"[3, 4, 6, 9, 10, 11, 13, 14, 17, 23, 24, 25, 26, 27, 28, 29]",146.7266494,6606,848,3,16,9,1.2813329946092564
basic,32,24,0,0,0,28,"[0, 16, 8, 22, 15, 28]",6,8,"[3, 4, 9, 11, 13, 23, 26, 27]",101.4497237,7409,803,3,5,9,1.2060847818642253
basic,32,24,0,0,0,23,"[0, 16, 8, 22, 15, 28, 23]",7,3,"[9, 11, 27]",82.42342609,8227,818,3,1,9,1.2349355190066822
basic,32,24,0,0,0,11,"[0, 16, 8, 22, 15, 28, 23, 11]",8,2,"[9, 27]",55.49760206,8840,613,2,0,9,1.2172586817191506
basic,32,24,0,0,1,27,"[0, 16, 8, 22, 15, 28, 23, 11, 27]",9,0,[],27.69472451,9383,543,1,0,9,1.192247579330137
basic,32,24,0,1,1,27,"[0, 16, 8, 22, 15, 28, 23, 11, 27]",9,0,[],27.69472451,10495,1112,1,0,9,1.192247579330137
basic,33,29,0,0,0,0,[0],1,29,"[1, 2, 3, 4, 5, 6, 7, 8, 9, 10, 11, 12, 13, 14, 15, 16, 17, 18, 19, 20, 21, 22, 23, 24, 25, 26, 27, 28, 29]",300,131,-1,1,78,9,0.0
basic,33,29,0,0,0,1,"[0, 1]",2,17,"[4, 5, 6, 7, 9, 10, 12, 13, 14, 15, 16, 17, 22, 25, 26, 27, 28]",214.2736913,2559,2428,12,79,8,1.0
basic,33,29,0,0,0,14,"[0, 1, 14]",3,15,"[4, 5, 6, 7, 9, 10, 12, 13, 15, 17, 22, 25, 26, 27, 28]",171.3202281,3221,662,12,45,8,1.4217240517504397
basic,33,29,0,0,0,13,"[0, 1, 14, 13]",4,12,"[4, 5, 6, 7, 9, 12, 17, 22, 25, 26, 27, 28]",153.2924718,4636,1415,12,27,8,1.3553272959243952
basic,33,29,0,0,0,5,"[0, 1, 14, 13, 5]",5,10,"[4, 6, 7, 9, 12, 17, 22, 25, 27, 28]",127.5825515,5535,899,11,13,8,1.3875785126283526
basic,33,29,0,0,0,22,"[0, 1, 14, 13, 5, 22]",6,4,"[7, 12, 27, 28]",73.24103881,7967,2432,4,0,8,1.938677354223255
basic,33,29,0,0,0,12,"[0, 1, 14, 13, 5, 22, 12]",7,1,[7],35.29370689,8626,659,1,0,8,1.7146477338189288
basic,33,29,0,0,1,7,"[0, 1, 14, 13, 5, 22, 12, 7]",8,0,[],21.69223638,11802,3176,1,0,8,1.6923487223432352
basic,33,29,0,1,1,7,"[0, 1, 14, 13, 5, 22, 12, 7]",8,0,[],21.69223638,12248,446,1,0,8,1.6923487223432352
basic,34,7,0,0,0,0,[0],1,29,"[1, 2, 3, 4, 5, 6, 7, 8, 9, 10, 11, 12, 13, 14, 15, 16, 17, 18, 19, 20, 21, 22, 23, 24, 25, 26, 27, 28, 29]",300,130,-1,3,79,9,0.0
basic,34,7,0,0,0,23,"[0, 23]",2,28,"[1, 2, 3, 4, 5, 6, 7, 8, 9, 10, 11, 12, 13, 14, 15, 16, 17, 18, 19, 20, 21, 22, 24, 25, 26, 27, 28, 29]",253.7290588,4667,4537,6,103,8,1.0
basic,34,7,0,0,0,14,"[0, 23, 14]",3,16,"[1, 2, 3, 5, 7, 10, 11, 16, 18, 19, 20, 22, 24, 25, 26, 29]",147.7809583,5779,1112,4,16,7,1.0041830141016033
basic,34,7,0,0,0,5,"[0, 23, 14, 5]",4,9,"[1, 3, 10, 11, 16, 22, 24, 26, 29]",132.7809583,6554,775,4,8,7,1.0584119633970992
basic,34,7,0,0,0,10,"[0, 23, 14, 5, 10]",5,2,"[11, 29]",73.3166833,7267,713,1,1,7,1.6251057199528316
basic,34,7,0,0,0,11,"[0, 23, 14, 5, 10, 11]",6,1,[29],31.53151847,7929,662,1,0,7,1.4837042356587036
basic,34,7,0,0,1,29,"[0, 23, 14, 5, 10, 11, 29]",7,0,[],4.236830344,8468,539,1,0,7,1.4212814401553782
basic,34,7,0,1,1,29,"[0, 23, 14, 5, 10, 11, 29]",7,0,[],4.236830344,9148,680,1,0,7,1.4212814401553782
basic,35,13,0,0,0,0,[0],1,29,"[1, 2, 3, 4, 5, 6, 7, 8, 9, 10, 11, 12, 13, 14, 15, 16, 17, 18, 19, 20, 21, 22, 23, 24, 25, 26, 27, 28, 29]",300,131,-1,60,2676,11,0.0
basic,35,13,0,0,0,24,"[0, 24]",2,28,"[1, 2, 3, 4, 5, 6, 7, 8, 9, 10, 11, 12, 13, 14, 15, 16, 17, 18, 19, 20, 21, 22, 23, 25, 26, 27, 28, 29]",288.8196601,31891,31760,16,1444,11,1.0
basic,35,13,0,0,0,28,"[0, 24, 28]",3,23,"[1, 2, 3, 4, 6, 7, 8, 9, 10, 11, 12, 13, 15, 16, 17, 19, 20, 21, 22, 23, 26, 27, 29]",222.5324064,32871,980,8,243,11,1.0513810491680837
basic,35,13,0,0,0,2,"[0, 24, 28, 2]",4,19,"[1, 3, 4, 6, 7, 9, 11, 12, 13, 15, 16, 17, 19, 20, 21, 23, 26, 27, 29]",184.889346,33624,753,7,110,11,1.050374132001543
basic,35,13,0,0,0,29,"[0, 24, 28, 2, 29]",5,18,"[1, 3, 4, 6, 7, 9, 11, 12, 13, 15, 16, 17, 19, 20, 21, 23, 26, 27]",173.1846461,35032,1408,7,85,11,1.1393409619120594
basic,35,13,0,0,0,7,"[0, 24, 28, 2, 29, 7]",6,17,"[1, 3, 4, 6, 9, 11, 12, 13, 15, 16, 17, 19, 20, 21, 23, 26, 27]",157.9203086,35675,643,5,45,11,1.349777315111579
basic,35,13,0,0,0,26,"[0, 24, 28, 2, 29, 7, 26]",7,16,"[1, 3, 4, 6, 9, 11, 12, 13, 15, 16, 17, 19, 20, 21, 23, 27]",147.480002,36207,532,5,25,11,1.5942082773824946
basic,35,13,0,0,0,6,"[0, 24, 28, 2, 29, 7, 26, 6]",8,12,"[1, 3, 4, 11, 13, 15, 16, 17, 19, 20, 23, 27]",127.3802508,40033,3826,4,12,11,1.5898347940840756
basic,35,13,0,0,0,16,"[0, 24, 28, 2, 29, 7, 26, 6, 16]",9,3,"[3, 20, 23]",53.82754861,41186,1153,1,2,11,2.6743660300373904
basic,35,13,0,0,0,3,"[0, 24, 28, 2, 29, 7, 26, 6, 16, 3]",10,1,[20],25.3846233,42016,830,1,0,11,2.696717621944423
basic,35,13,0,0,1,20,"[0, 24, 28, 2, 29, 7, 26, 6, 16, 3, 20]",11,0,[],6.358325711,42969,953,1,0,11,2.6690286409584245
basic,35,13,0,1,1,20,"[0, 24, 28, 2, 29, 7, 26, 6, 16, 3, 20]",11,0,[],6.358325711,46112,3143,1,0,11,2.6690286409584245
basic,36,23,0,0,0,0,[0],1,28,"[1, 2, 3, 4, 5, 6, 7, 8, 9, 10, 11, 12, 13, 14, 15, 16, 17, 18, 19, 20, 21, 22, 23, 25, 26, 27, 28, 29]",300,130,-1,76,2626,10,0.0
basic,36,23,0,0,0,18,"[0, 18]",2,14,"[2, 5, 6, 7, 9, 10, 12, 13, 14, 19, 21, 22, 27, 29]",203.8958898,8067,7937,73,787,9,1.0
basic,36,23,0,0,0,27,"[0, 18, 27]",3,9,"[2, 6, 7, 9, 12, 13, 14, 22, 29]",128.5832083,8973,906,51,277,9,1.1972268052690318
basic,36,23,0,0,0,6,"[0, 18, 27, 6]",4,8,"[2, 7, 9, 12, 13, 14, 22, 29]",100.2812649,9767,794,43,68,9,1.3293035545030156
basic,36,23,0,0,0,14,"[0, 18, 27, 6, 14]",5,7,"[2, 7, 9, 12, 13, 22, 29]",71.41952548,10568,801,10,11,9,1.6224034994265621
basic,36,23,0,0,0,9,"[0, 18, 27, 6, 14, 9]",6,5,"[2, 12, 13, 22, 29]",60.97921897,11370,802,5,1,9,1.8294966642914483
basic,36,23,0,0,0,2,"[0, 18, 27, 6, 14, 9, 2]",7,2,"[12, 13]",47.94081416,12203,833,2,0,9,1.8471451718178584
basic,36,23,0,0,0,12,"[0, 18, 27, 6, 14, 9, 2, 12]",8,1,[13],34.04837017,13311,1108,1,0,9,2.169462077251772
basic,36,23,0,0,1,13,"[0, 18, 27, 6, 14, 9, 2, 12, 13]",9,0,[],21.96532419,14283,972,1,0,9,2.512065268760345
basic,36,23,0,1,1,13,"[0, 18, 27, 6, 14, 9, 2, 12, 13]",9,0,[],21.96532419,14897,614,1,0,9,2.512065268760345
basic,37,15,0,0,0,0,[0],1,25,"[1, 2, 3, 4, 7, 8, 9, 10, 11, 12, 13, 14, 15, 16, 18, 20, 21, 22, 23, 24, 25, 26, 27, 28, 29]",300,130,-1,4,65,9,0.0
basic,37,15,0,0,0,12,"[0, 12]",2,22,"[1, 2, 3, 4, 7, 8, 9, 10, 11, 13, 14, 15, 16, 18, 21, 22, 23, 24, 26, 27, 28, 29]",213.547701,2508,2378,4,35,9,1.0
basic,37,15,0,0,0,7,"[0, 12, 7]",3,16,"[1, 3, 4, 8, 9, 10, 11, 13, 14, 15, 16, 18, 21, 22, 24, 27]",180.3061607,3309,801,4,29,9,1.411291635294361
basic,37,15,0,0,0,11,"[0, 12, 7, 11]",4,9,"[3, 4, 13, 14, 15, 16, 21, 22, 27]",138.8212237,4134,825,2,12,9,1.2980572092387541
basic,37,15,0,0,0,3,"[0, 12, 7, 11, 3]",5,7,"[4, 13, 14, 15, 16, 21, 22]",127.4194695,4676,542,2,7,9,1.3036925309398455
basic,37,15,0,0,0,22,"[0, 12, 7, 11, 3, 22]",6,5,"[4, 13, 14, 15, 16]",77.69020242,5387,711,2,3,8,1.2885630089059408
basic,37,15,0,0,0,15,"[0, 12, 7, 11, 3, 22, 15]",7,1,[13],52.07770547,6025,638,1,0,8,1.2624637443080136
basic,37,15,0,0,1,13,"[0, 12, 7, 11, 3, 22, 15, 13]",8,0,[],36.81336795,6718,693,1,0,8,1.313701762332814
basic,37,15,0,1,1,13,"[0, 12, 7, 11, 3, 22, 15, 13]",8,0,[],36.81336795,7314,596,1,0,8,1.313701762332814
basic,38,4,0,0,0,0,[0],1,26,"[3, 4, 5, 6, 7, 8, 10, 11, 12, 13, 14, 15, 16, 17, 18, 19, 20, 21, 22, 23, 24, 25, 26, 27, 28, 29]",300,130,-1,4,489,10,0.0
basic,38,4,0,0,0,28,"[0, 28]",2,21,"[3, 4, 5, 6, 10, 11, 12, 13, 14, 15, 16, 17, 19, 20, 21, 22, 23, 24, 25, 26, 27]",225.9392142,6752,6622,2,216,10,1.0
basic,38,4,0,0,0,14,"[0, 28, 14]",3,13,"[3, 4, 5, 6, 11, 13, 16, 17, 20, 21, 22, 24, 25]",159.6972335,7636,884,1,26,10,1.0273973946789214
basic,38,4,0,0,0,25,"[0, 28, 14, 25]",4,12,"[3, 4, 5, 6, 11, 13, 16, 17, 20, 21, 22, 24]",143.572718,10758,3122,1,25,10,1.233547772313525
basic,38,4,0,0,0,11,"[0, 28, 14, 25, 11]",5,10,"[3, 4, 5, 6, 13, 16, 17, 20, 21, 22]",124.7844238,12402,1644,1,15,10,1.425978575879479
basic,38,4,0,0,0,16,"[0, 28, 14, 25, 11, 16]",6,9,"[3, 4, 5, 6, 13, 17, 20, 21, 22]",109.7844238,13203,801,1,12,10,1.3799325158051412
basic,38,4,0,0,0,17,"[0, 28, 14, 25, 11, 16, 17]",7,5,"[3, 5, 20, 21, 22]",83.70761416,14617,1414,1,5,10,1.3195184878861832
basic,38,4,0,0,0,21,"[0, 28, 14, 25, 11, 16, 17, 21]",8,1,[22],34.45317274,15558,941,1,0,9,1.7966566629354186
basic,38,4,0,0,1,22,"[0, 28, 14, 25, 11, 16, 17, 21, 22]",9,0,[],23.40781172,16058,500,1,0,9,1.7433011729935863
basic,38,4,0,1,1,22,"[0, 28, 14, 25, 11, 16, 17, 21, 22]",9,0,[],23.40781172,16980,922,1,0,9,1.7433011729935863
basic,39,31,0,0,0,0,[0],1,27,"[1, 3, 4, 5, 6, 7, 8, 10, 11, 12, 13, 14, 15, 16, 17, 18, 19, 20, 21, 22, 23, 24, 25, 26, 27, 28, 29]",300,130,-1,2,87,10,0.0
basic,39,31,0,0,0,14,"[0, 14]",2,25,"[1, 3, 5, 6, 7, 8, 10, 11, 12, 13, 15, 16, 17, 18, 19, 20, 21, 22, 23, 24, 25, 26, 27, 28, 29]",263.861378,3634,3504,2,59,10,1.0
basic,39,31,0,0,0,27,"[0, 14, 27]",3,22,"[1, 3, 5, 6, 7, 8, 10, 11, 12, 13, 15, 16, 17, 18, 19, 20, 21, 22, 24, 25, 28, 29]",235.6833724,4642,1008,1,39,10,1.5881859159302467
basic,39,31,0,0,0,8,"[0, 14, 27, 8]",4,20,"[1, 3, 5, 6, 7, 10, 11, 12, 13, 16, 17, 18, 19, 20, 21, 22, 24, 25, 28, 29]",224.6380114,5184,542,1,36,10,2.1665048452331277
basic,39,31,0,0,0,18,"[0, 14, 27, 8, 18]",5,15,"[1, 5, 6, 7, 11, 12, 13, 16, 17, 19, 20, 22, 25, 28, 29]",188.7911147,6900,1716,1,26,10,1.7273375741920205
basic,39,31,0,0,0,17,"[0, 14, 27, 8, 18, 17]",6,13,"[1, 5, 6, 7, 11, 12, 13, 16, 19, 20, 22, 25, 28]",159.584951,8616,1716,1,13,10,1.551192427769927
basic,39,31,0,0,0,11,"[0, 14, 27, 8, 18, 17, 11]",7,7,"[5, 12, 16, 19, 22, 25, 28]",118.4753414,9358,742,1,4,10,2.9650760544203494
basic,39,31,0,0,0,5,"[0, 14, 27, 8, 18, 17, 11, 5]",8,2,"[16, 28]",74.79468207,10994,1636,1,1,10,2.56711965625205
basic,39,31,0,0,0,28,"[0, 14, 27, 8, 18, 17, 11, 5, 28]",9,1,[16],54.57093365,11796,802,1,0,10,2.2865510762058148
basic,39,31,0,0,1,16,"[0, 14, 27, 8, 18, 17, 11, 5, 28, 16]",10,0,[],20.95546102,12523,727,1,0,10,2.089356850786318
basic,39,31,0,1,1,16,"[0, 14, 27, 8, 18, 17, 11, 5, 28, 16]",10,0,[],20.95546102,13113,590,1,0,10,2.089356850786318
basic,40,36,0,0,0,0,[0],1,24,"[2, 4, 5, 6, 7, 8, 9, 10, 12, 13, 14, 15, 16, 17, 18, 19, 20, 22, 23, 25, 26, 27, 28, 29]",300,130,-1,2,200,10,0.0
basic,40,36,0,0,0,12,"[0, 12]",2,23,"[2, 4, 5, 6, 7, 8, 9, 10, 13, 14, 15, 16, 17, 18, 19, 20, 22, 23, 25, 26, 27, 28, 29]",277.7963967,3705,3575,90,804,9,1.0
basic,40,36,0,0,0,13,"[0, 12, 13]",3,18,"[2, 4, 7, 8, 9, 10, 16, 17, 18, 19, 20, 22, 23, 25, 26, 27, 28, 29]",198.6193798,4967,1262,15,125,9,1.033635478646562
basic,40,36,0,0,0,25,"[0, 12, 13, 25]",4,12,"[2, 4, 8, 9, 10, 16, 17, 18, 19, 23, 27, 29]",178.0281195,5759,792,13,50,9,1.0653480204572918
basic,40,36,0,0,0,2,"[0, 12, 13, 25, 2]",5,9,"[4, 8, 9, 10, 16, 17, 18, 19, 27]",153.0281195,6479,720,13,13,9,1.3014517483013393
basic,40,36,0,0,0,19,"[0, 12, 13, 25, 2, 19]",6,5,"[9, 10, 16, 17, 18]",115.9066972,8023,1544,5,2,9,2.3884063284404666
basic,40,36,0,0,0,9,"[0, 12, 13, 25, 2, 19, 9]",7,3,"[16, 17, 18]",100.7739512,8583,560,2,1,9,2.8846088544693567
basic,40,36,0,0,0,17,"[0, 12, 13, 25, 2, 19, 9, 17]",8,1,[16],74.52514171,9274,691,1,0,9,2.3856100497832267
basic,40,36,0,0,1,16,"[0, 12, 13, 25, 2, 19, 9, 17, 16]",9,0,[],46.20553719,10861,1587,1,0,9,2.3777330471152243
basic,40,36,0,1,1,16,"[0, 12, 13, 25, 2, 19, 9, 17, 16]",9,0,[],46.20553719,11463,602,1,0,9,2.3777330471152243
basic,41,22,0,0,0,0,[0],1,29,"[1, 2, 3, 4, 5, 6, 7, 8, 9, 10, 11, 12, 13, 14, 15, 16, 17, 18, 19, 20, 21, 22, 23, 24, 25, 26, 27, 28, 29]",300,130,-1,31,704,9,0.0
basic,41,22,0,0,0,16,"[0, 16]",2,21,"[1, 3, 6, 7, 8, 9, 11, 13, 14, 15, 17, 18, 19, 20, 21, 22, 24, 25, 27, 28, 29]",218.605897,12692,12562,17,147,9,1.0
basic,41,22,0,0,0,28,"[0, 16, 28]",3,13,"[6, 7, 9, 13, 14, 17, 19, 20, 21, 22, 24, 25, 29]",184.1675463,13429,737,12,61,9,1.047282311284478
basic,41,22,0,0,0,6,"[0, 16, 28, 6]",4,12,"[7, 9, 13, 14, 17, 19, 20, 21, 22, 24, 25, 29]",154.1675463,14050,621,12,43,9,1.645645870580622
basic,41,22,0,0,0,14,"[0, 16, 28, 6, 14]",5,6,"[7, 9, 17, 19, 24, 29]",91.398127,14892,842,5,8,8,1.6103092397523322
basic,41,22,0,0,0,7,"[0, 16, 28, 6, 14, 7]",6,5,"[9, 17, 19, 24, 29]",78.35972219,15334,442,4,2,8,1.7623275420694926
basic,41,22,0,0,0,9,"[0, 16, 28, 6, 14, 7, 9]",7,1,[19],33.76151595,16175,841,1,0,8,2.972922908872683
basic,41,22,0,0,1,19,"[0, 16, 28, 6, 14, 7, 9, 19]",8,0,[],13.36543789,17009,834,1,0,8,3.5998460402582944
basic,41,22,0,1,1,19,"[0, 16, 28, 6, 14, 7, 9, 19]",8,0,[],13.36543789,18213,1204,1,0,8,3.5998460402582944
basic,42,10,0,0,0,0,[0],1,29,"[1, 2, 3, 4, 5, 6, 7, 8, 9, 10, 11, 12, 13, 14, 15, 16, 17, 18, 19, 20, 21, 22, 23, 24, 25, 26, 27, 28, 29]",300,132,-1,1,100,9,0.0
basic,42,10,0,0,0,13,"[0, 13]",2,25,"[1, 2, 3, 4, 6, 7, 8, 9, 10, 11, 12, 14, 17, 18, 19, 20, 21, 22, 23, 24, 25, 26, 27, 28, 29]",249.4628849,8696,8564,1,79,9,1.0
basic,42,10,0,0,0,19,"[0, 13, 19]",3,12,"[2, 6, 8, 9, 10, 11, 14, 18, 20, 24, 26, 27]",180.5861835,9488,792,11,79,8,1.0000581961988606
basic,42,10,0,0,0,2,"[0, 13, 19, 2]",4,5,"[11, 14, 20, 26, 27]",136.6771867,10126,638,3,9,8,1.000456581399483
basic,42,10,0,0,0,14,"[0, 13, 19, 2, 14]",5,4,"[11, 20, 26, 27]",124.5116616,10668,542,3,6,8,1.0972737011325653
basic,42,10,0,0,0,26,"[0, 13, 19, 2, 14, 26]",6,3,"[11, 20, 27]",89.84178999,12292,1624,3,1,8,1.5868342521575007
basic,42,10,0,0,0,11,"[0, 13, 19, 2, 14, 26, 11]",7,1,[20],48.08056395,13372,1080,1,0,8,2.7772471764176028
basic,42,10,0,0,1,20,"[0, 13, 19, 2, 14, 26, 11, 20]",8,0,[],10.00169842,14140,768,1,0,8,2.3959438836221785
basic,42,10,0,1,1,20,"[0, 13, 19, 2, 14, 26, 11, 20]",8,0,[],10.00169842,14565,425,1,0,8,2.3959438836221785
basic,43,44,0,0,0,0,[0],1,29,"[1, 2, 3, 4, 5, 6, 7, 8, 9, 10, 11, 12, 13, 14, 15, 16, 17, 18, 19, 20, 21, 22, 23, 24, 25, 26, 27, 28, 29]",300,128,-1,13,126,7,0.0
basic,43,44,0,0,0,9,"[0, 9]",2,17,"[2, 4, 5, 7, 8, 10, 11, 12, 13, 14, 20, 22, 23, 24, 25, 26, 28]",141.32423,14771,14643,3,26,7,1.0
basic,43,44,0,0,0,4,"[0, 9, 4]",3,15,"[2, 5, 7, 8, 10, 11, 12, 14, 20, 22, 23, 24, 25, 26, 28]",121.6265143,15384,613,3,21,7,1.0155532843148096
basic,43,44,0,0,0,7,"[0, 9, 4, 7]",4,10,"[2, 5, 11, 12, 14, 23, 24, 25, 26, 28]",90.61038951,19565,4181,3,9,7,1.0134022837125412
basic,43,44,0,0,0,23,"[0, 9, 4, 7, 23]",5,7,"[5, 12, 14, 24, 25, 26, 28]",71.50541634,20281,716,3,4,7,1.043310757564056
basic,43,44,0,0,0,5,"[0, 9, 4, 7, 23, 5]",6,1,[25],24.08179353,21598,1317,1,0,7,1.0875233835918032
basic,43,44,0,0,1,25,"[0, 9, 4, 7, 23, 5, 25]",7,0,[],13.64148702,22940,1342,1,0,7,1.1344779809947538
basic,43,44,0,1,1,25,"[0, 9, 4, 7, 23, 5, 25]",7,0,[],13.64148702,23396,456,1,0,7,1.1344779809947538
basic,44,16,0,0,0,0,[0],1,29,"[1, 2, 3, 4, 5, 6, 7, 8, 9, 10, 11, 12, 13, 14, 15, 16, 17, 18, 19, 20, 21, 22, 23, 24, 25, 26, 27, 28, 29]",300,131,-1,13,161,9,0.0
basic,44,16,0,0,0,17,"[0, 17]",2,27,"[1, 2, 3, 4, 5, 7, 8, 9, 10, 11, 12, 13, 14, 15, 16, 18, 19, 20, 21, 22, 23, 24, 25, 26, 27, 28, 29]",241.3058776,1578,1447,2,58,9,1.0
basic,44,16,0,0,0,16,"[0, 17, 16]",3,26,"[1, 2, 3, 4, 5, 7, 8, 9, 10, 11, 12, 13, 14, 15, 18, 19, 20, 21, 22, 23, 24, 25, 26, 27, 28, 29]",212.9862731,2297,719,2,52,9,1.0529535521792848
basic,44,16,0,0,0,8,"[0, 17, 16, 8]",4,19,"[2, 3, 4, 5, 9, 12, 13, 14, 15, 19, 20, 21, 22, 23, 25, 26, 27, 28, 29]",164.6127266,3067,770,2,38,9,1.0915134501573105
basic,44,16,0,0,0,20,"[0, 17, 16, 8, 20]",5,10,"[3, 4, 5, 9, 12, 13, 15, 19, 21, 25]",106.8372993,4038,971,1,15,9,1.067523143001942
basic,44,16,0,0,0,25,"[0, 17, 16, 8, 20, 25]",6,7,"[3, 4, 5, 9, 12, 13, 15]",94.18818869,4889,851,1,9,9,1.1170093326933646
basic,44,16,0,0,0,9,"[0, 17, 16, 8, 20, 25, 9]",7,5,"[3, 4, 5, 13, 15]",81.38194021,5617,728,1,4,9,1.1095076562662525
basic,44,16,0,0,0,15,"[0, 17, 16, 8, 20, 25, 9, 15]",8,1,[5],42.48463953,6803,1186,1,0,9,1.213831159678775
basic,44,16,0,0,1,5,"[0, 17, 16, 8, 20, 25, 9, 15, 5]",9,0,[],13.0567616,7800,997,1,0,9,1.5171779607523481
basic,44,16,0,1,1,5,"[0, 17, 16, 8, 20, 25, 9, 15, 5]",9,0,[],13.0567616,8231,431,1,0,9,1.5171779607523481
basic,45,20,0,0,0,0,[0],1,21,"[1, 2, 3, 4, 5, 6, 7, 8, 9, 12, 17, 18, 20, 21, 22, 23, 25, 26, 27, 28, 29]",300,129,-1,1,9,9,0.0
basic,45,20,0,0,0,1,"[0, 1]",2,14,"[3, 4, 5, 6, 8, 9, 12, 20, 21, 23, 26, 27, 28, 29]",197.3501096,3884,3755,1,9,8,1.0
basic,45,20,0,0,0,5,"[0, 1, 5]",3,12,"[4, 6, 8, 9, 12, 20, 21, 23, 26, 27, 28, 29]",160.675868,4610,726,1,8,8,1.1088946720668915
basic,45,20,0,0,0,21,"[0, 1, 5, 21]",4,8,"[4, 6, 8, 9, 20, 23, 27, 28]",115.675868,5353,743,1,6,8,1.0805828994591202
basic,45,20,0,0,0,8,"[0, 1, 5, 21, 8]",5,5,"[6, 9, 23, 27, 28]",98.21161876,6016,663,1,5,8,1.0976815296746363
basic,45,20,0,0,0,23,"[0, 1, 5, 21, 8, 23]",6,3,"[6, 9, 27]",53.52381281,7128,1112,1,2,8,1.0820667611140062
basic,45,20,0,0,0,9,"[0, 1, 5, 21, 8, 23, 9]",7,1,[6],34.3144401,7849,721,1,0,8,1.0771429624373048
basic,45,20,0,0,1,6,"[0, 1, 5, 21, 8, 23, 9, 6]",8,0,[],11.29271124,8656,807,1,0,8,1.0892675954154076
basic,45,20,0,1,1,6,"[0, 1, 5, 21, 8, 23, 9, 6]",8,0,[],11.29271124,9063,407,1,0,8,1.0892675954154076
basic,46,5,0,0,0,0,[0],1,29,"[1, 2, 3, 4, 5, 6, 7, 8, 9, 10, 11, 12, 13, 14, 15, 16, 17, 18, 19, 20, 21, 22, 23, 24, 25, 26, 27, 28, 29]",300,148,-1,5,139,9,0.0
basic,46,5,0,0,0,12,"[0, 12]",2,22,"[2, 4, 5, 6, 8, 9, 10, 13, 14, 15, 16, 17, 18, 19, 21, 22, 23, 24, 25, 26, 27, 28]",228.3062067,10209,10061,1,27,9,1.0
basic,46,5,0,0,0,25,"[0, 12, 25]",3,21,"[2, 4, 5, 6, 8, 9, 10, 13, 14, 15, 16, 17, 18, 19, 21, 22, 23, 24, 26, 27, 28]",200.5213187,12090,1881,1,20,9,1.584023303445617
basic,46,5,0,0,0,23,"[0, 12, 25, 23]",4,19,"[2, 4, 5, 6, 8, 9, 10, 13, 14, 15, 16, 17, 18, 19, 21, 22, 24, 26, 27]",182.0822298,16535,4445,1,14,9,2.3508446989254357
basic,46,5,0,0,0,24,"[0, 12, 25, 23, 24]",5,15,"[2, 4, 5, 6, 8, 9, 13, 14, 15, 17, 18, 19, 22, 26, 27]",158.995437,17242,707,1,12,9,1.9469752046288753
basic,46,5,0,0,0,17,"[0, 12, 25, 23, 24, 17]",6,7,"[4, 5, 6, 8, 15, 18, 19]",124.0097257,23948,6706,1,8,9,1.6482276497563642
basic,46,5,0,0,0,5,"[0, 12, 25, 23, 24, 17, 5]",7,4,"[4, 6, 15, 18]",80.96323916,24723,775,1,3,9,1.4654649104389412
basic,46,5,0,0,0,4,"[0, 12, 25, 23, 24, 17, 5, 4]",8,1,[6],15.16050365,25584,861,1,0,9,1.6255060355828674
basic,46,5,0,0,1,6,"[0, 12, 25, 23, 24, 17, 5, 4, 6]",9,0,[],3.118909076,26171,587,1,0,9,1.7777310833772453
basic,46,5,0,1,1,6,"[0, 12, 25, 23, 24, 17, 5, 4, 6]",9,0,[],3.118909076,26831,660,1,0,9,1.7777310833772453
basic,47,30,0,0,0,0,[0],1,19,"[3, 4, 5, 7, 9, 11, 16, 17, 18, 19, 20, 21, 22, 24, 25, 26, 27, 28, 29]",300,130,-1,5,41,8,0.0
basic,47,30,0,0,0,16,"[0, 16]",2,17,"[3, 5, 7, 9, 11, 17, 18, 19, 20, 21, 22, 24, 25, 26, 27, 28, 29]",219.3774225,3511,3381,5,34,8,1.0
basic,47,30,0,0,0,25,"[0, 16, 25]",3,10,"[3, 5, 7, 9, 11, 18, 19, 20, 27, 29]",115.0845656,5231,1720,5,28,8,1.0336279544884488
basic,47,30,0,0,0,27,"[0, 16, 25, 27]",4,7,"[3, 5, 7, 18, 19, 20, 29]",75.52448473,19449,14218,1,12,8,1.0719738181137488
basic,47,30,0,0,0,3,"[0, 16, 25, 27, 3]",5,5,"[5, 7, 18, 20, 29]",56.41951155,20788,1339,1,4,8,1.0683252001879187
basic,47,30,0,0,0,29,"[0, 16, 25, 27, 3, 29]",6,2,"[5, 18]",37.81843632,22041,1253,1,1,8,1.0768958290478794
basic,47,30,0,0,0,18,"[0, 16, 25, 27, 3, 29, 18]",7,1,[5],18.5052284,23415,1374,1,0,8,1.1525061930327378
basic,47,30,0,0,1,5,"[0, 16, 25, 27, 3, 29, 18, 5]",8,0,[],5.466823591,23948,533,1,0,8,1.2180155123152177
basic,47,30,0,1,1,5,"[0, 16, 25, 27, 3, 29, 18, 5]",8,0,[],5.466823591,24399,451,1,0,8,1.2180155123152177
basic,48,45,0,0,0,0,[0],1,24,"[1, 2, 3, 4, 5, 6, 7, 9, 10, 11, 12, 14, 15, 16, 17, 19, 20, 21, 22, 23, 24, 25, 27, 29]",300,131,-1,6,248,10,0.0
basic,48,45,0,0,0,15,"[0, 15]",2,23,"[1, 2, 3, 4, 5, 6, 7, 9, 10, 11, 12, 14, 16, 17, 19, 20, 21, 22, 23, 24, 25, 27, 29]",253.9022777,7440,7309,5,207,10,1.0
basic,48,45,0,0,0,20,"[0, 15, 20]",3,21,"[1, 2, 3, 4, 5, 6, 7, 9, 10, 11, 12, 14, 16, 17, 19, 21, 22, 23, 24, 25, 29]",200.6669511,9082,1642,32,328,9,1.0781160190446337
basic,48,45,0,0,0,10,"[0, 15, 20, 10]",4,15,"[2, 3, 6, 7, 9, 12, 14, 16, 17, 19, 22, 23, 24, 25, 29]",144.5866515,9981,899,14,96,9,1.0561833297877257
basic,48,45,0,0,0,6,"[0, 15, 20, 10, 6]",5,12,"[2, 3, 7, 9, 12, 14, 16, 22, 23, 24, 25, 29]",118.337842,10782,801,4,28,9,1.0547324132133185
basic,48,45,0,0,0,12,"[0, 15, 20, 10, 6, 12]",6,5,"[2, 3, 7, 22, 29]",98.21323023,11992,1210,3,6,9,1.062035630368421
basic,48,45,0,0,0,22,"[0, 15, 20, 10, 6, 12, 22]",7,2,"[3, 29]",66.63792342,13266,1274,1,1,9,1.0982139992384294
basic,48,45,0,0,0,3,"[0, 15, 20, 10, 6, 12, 22, 3]",8,1,[29],23.1752958,15695,2429,1,0,9,1.5431630811654409
basic,48,45,0,0,1,29,"[0, 15, 20, 10, 6, 12, 22, 3, 29]",9,0,[],3.175295799,23294,7599,1,0,9,1.8429563866306735
basic,48,45,0,1,1,29,"[0, 15, 20, 10, 6, 12, 22, 3, 29]",9,0,[],3.175295799,23890,596,1,0,9,1.8429563866306735
basic,49,27,0,0,0,0,[0],1,26,"[1, 3, 5, 6, 7, 8, 9, 10, 11, 12, 13, 14, 15, 16, 17, 18, 19, 21, 22, 23, 24, 25, 26, 27, 28, 29]",300,128,-1,13,578,11,0.0
basic,49,27,0,0,0,15,"[0, 15]",2,24,"[1, 3, 5, 6, 7, 8, 9, 10, 11, 12, 13, 14, 16, 17, 18, 19, 21, 22, 23, 24, 25, 26, 27, 29]",263.7508621,2288,2160,6,219,11,1.0
basic,49,27,0,0,0,24,"[0, 15, 24]",3,20,"[1, 5, 6, 7, 8, 9, 10, 12, 13, 14, 16, 17, 18, 19, 21, 23, 25, 26, 27, 29]",246.5462115,3154,866,6,130,11,1.130933077698322
basic,49,27,0,0,0,17,"[0, 15, 24, 17]",4,15,"[1, 6, 8, 10, 12, 13, 14, 16, 18, 19, 23, 25, 26, 27, 29]",229.9932662,3989,835,4,60,11,1.1285538435963374
basic,49,27,0,0,0,12,"[0, 15, 24, 17, 12]",5,14,"[1, 6, 8, 10, 13, 14, 16, 18, 19, 23, 25, 26, 27, 29]",218.8129263,4916,927,2,32,11,1.2561880288755216
basic,49,27,0,0,0,10,"[0, 15, 24, 17, 12, 10]",6,11,"[1, 8, 13, 14, 18, 19, 23, 25, 26, 27, 29]",207.7675653,5495,579,2,28,11,1.2228289337766665
basic,49,27,0,0,0,13,"[0, 15, 24, 17, 12, 10, 13]",7,9,"[1, 8, 14, 18, 19, 23, 26, 27, 29]",167.9178476,11568,6073,2,18,11,1.3421291994761178
basic,49,27,0,0,0,19,"[0, 15, 24, 17, 12, 10, 13, 19]",8,5,"[1, 8, 14, 23, 29]",131.6825057,12573,1005,2,6,11,1.294749956153846
basic,49,27,0,0,0,8,"[0, 15, 24, 17, 12, 10, 13, 19, 8]",9,3,"[14, 23, 29]",116.816437,15036,2463,2,1,11,1.3554286578836865
basic,49,27,0,0,0,29,"[0, 15, 24, 17, 12, 10, 13, 19, 8, 29]",10,1,[14],57.61339652,16956,1920,1,0,11,1.248354519573802
basic,49,27,0,0,1,14,"[0, 15, 24, 17, 12, 10, 13, 19, 8, 29, 14]",11,0,[],13.31892734,18166,1210,1,0,11,1.562811097555156
basic,49,27,0,1,1,14,"[0, 15, 24, 17, 12, 10, 13, 19, 8, 29, 14]",11,0,[],13.31892734,21044,2878,1,0,11,1.562811097555156
basic,50,11,0,0,0,0,[0],1,25,"[1, 2, 3, 4, 5, 6, 8, 9, 10, 11, 12, 13, 14, 15, 16, 17, 18, 19, 20, 22, 23, 25, 26, 27, 28]",300,129,-1,6,374,12,0.0
basic,50,11,0,0,0,8,"[0, 8]",2,19,"[1, 2, 4, 5, 6, 10, 11, 12, 14, 15, 17, 18, 19, 22, 23, 25, 26, 27, 28]",154.7932508,3556,3427,181,767,9,1.0
basic,50,11,0,0,0,17,"[0, 8, 17]",3,15,"[1, 2, 4, 5, 6, 11, 12, 15, 18, 19, 22, 23, 25, 27, 28]",140.4754298,4237,681,86,201,9,1.0846240899450907
basic,50,11,0,0,0,15,"[0, 8, 17, 15]",4,13,"[1, 2, 5, 6, 11, 12, 18, 19, 22, 23, 25, 27, 28]",127.8263191,5032,795,67,51,9,1.0975608447713743
basic,50,11,0,0,0,11,"[0, 8, 17, 15, 11]",5,9,"[2, 5, 6, 12, 19, 22, 25, 27, 28]",109.7155489,5659,627,25,3,9,1.0975838566653757
basic,50,11,0,0,0,5,"[0, 8, 17, 15, 11, 5]",6,3,"[2, 22, 28]",74.48771896,6518,859,6,0,9,1.3861219180905215
basic,50,11,0,0,0,28,"[0, 8, 17, 15, 11, 5, 28]",7,2,"[2, 22]",56.59917514,7376,858,2,0,9,1.4085422289352307
basic,50,11,0,0,0,2,"[0, 8, 17, 15, 11, 5, 28, 2]",8,1,[22],45.96902932,8072,696,1,0,9,1.4232376165266059
basic,50,11,0,0,1,22,"[0, 8, 17, 15, 11, 5, 28, 2, 22]",9,0,[],35.9191537,8750,678,1,0,9,1.400708112045651
basic,50,11,0,1,1,22,"[0, 8, 17, 15, 11, 5, 28, 2, 22]",9,0,[],35.9191537,11380,2630,1,0,9,1.400708112045651
basic,51,2,0,0,0,0,[0],1,23,"[1, 2, 4, 5, 6, 7, 8, 9, 12, 13, 15, 16, 17, 18, 19, 20, 22, 23, 25, 26, 27, 28, 29]",300,133,-1,70,620,10,0.0
basic,51,2,0,0,0,12,"[0, 12]",2,19,"[1, 2, 4, 5, 6, 7, 13, 15, 16, 17, 18, 19, 20, 22, 25, 26, 27, 28, 29]",186.8275652,4429,4296,3,169,10,1.0
basic,51,2,0,0,0,5,"[0, 12, 5]",3,14,"[1, 4, 6, 7, 13, 15, 16, 18, 19, 22, 25, 26, 28, 29]",157.2979191,5395,966,2,88,10,1.0082498134695237
basic,51,2,0,0,0,22,"[0, 12, 5, 22]",4,11,"[1, 6, 7, 13, 15, 18, 19, 25, 26, 28, 29]",144.4916706,6163,768,1,45,10,1.0077567572950326
basic,51,2,0,0,0,13,"[0, 12, 5, 22, 13]",5,9,"[1, 6, 7, 15, 18, 19, 25, 26, 29]",129.6256019,7064,901,1,39,10,1.151783231594989
basic,51,2,0,0,0,18,"[0, 12, 5, 22, 13, 18]",6,4,"[7, 15, 26, 29]",94.45459106,7987,923,1,14,10,1.1431544953850095
basic,51,2,0,0,0,7,"[0, 12, 5, 22, 13, 18, 7]",7,3,"[15, 26, 29]",84.15896092,8788,801,1,4,10,1.1360054688421053
basic,51,2,0,0,0,26,"[0, 12, 5, 22, 13, 18, 7, 26]",8,2,"[15, 29]",61.35545242,10071,1283,1,1,10,1.1290531198668372
basic,51,2,0,0,0,15,"[0, 12, 5, 22, 13, 18, 7, 26, 15]",9,1,[29],37.14801554,10963,892,1,0,10,1.395427297339814
basic,51,2,0,0,1,29,"[0, 12, 5, 22, 13, 18, 7, 26, 15, 29]",10,0,[],8.687516603,12091,1128,1,0,10,1.5868802136739162
basic,51,2,0,1,1,29,"[0, 12, 5, 22, 13, 18, 7, 26, 15, 29]",10,0,[],8.687516603,12915,824,1,0,10,1.5868802136739162
basic,52,38,0,0,0,0,[0],1,29,"[1, 2, 3, 4, 5, 6, 7, 8, 9, 10, 11, 12, 13, 14, 15, 16, 17, 18, 19, 20, 21, 22, 23, 24, 25, 26, 27, 28, 29]",300,129,-1,33,506,9,0.0
basic,52,38,0,0,0,19,"[0, 19]",2,23,"[3, 4, 5, 6, 7, 8, 9, 11, 13, 14, 15, 16, 17, 18, 20, 22, 23, 24, 25, 26, 27, 28, 29]",219.5015528,5983,5854,6,61,9,1.0
basic,52,38,0,0,0,17,"[0, 19, 17]",3,21,"[3, 4, 5, 6, 7, 9, 11, 13, 14, 15, 16, 18, 20, 22, 23, 24, 25, 26, 27, 28, 29]",198.1239945,6506,523,6,53,9,1.571793785769489
basic,52,38,0,0,0,20,"[0, 19, 17, 20]",4,17,"[3, 4, 5, 6, 7, 11, 13, 14, 15, 16, 18, 22, 24, 25, 26, 27, 28]",174.3542658,7002,496,6,44,9,2.333182710277297
basic,52,38,0,0,0,4,"[0, 19, 17, 20, 4]",5,10,"[5, 11, 13, 14, 15, 16, 24, 26, 27, 28]",140.4131403,8051,1049,5,22,9,2.276099229646013
basic,52,38,0,0,0,15,"[0, 19, 17, 20, 4, 15]",6,8,"[5, 11, 13, 14, 16, 24, 26, 28]",114.4131403,13898,5847,5,6,9,2.5292671156176403
basic,52,38,0,0,0,11,"[0, 19, 17, 20, 4, 15, 11]",7,2,"[16, 28]",78.01259089,16268,2370,2,0,9,2.778100109749787
basic,52,38,0,0,0,28,"[0, 19, 17, 20, 4, 15, 11, 28]",8,1,[16],50.99407872,17036,768,1,0,9,2.3316428595723258
basic,52,38,0,0,1,16,"[0, 19, 17, 20, 4, 15, 11, 28, 16]",9,0,[],21.99407872,18107,1071,1,0,9,2.5408012360364265
basic,52,38,0,1,1,16,"[0, 19, 17, 20, 4, 15, 11, 28, 16]",9,0,[],21.99407872,18612,505,1,0,9,2.5408012360364265
basic,53,12,0,0,0,0,[0],1,29,"[1, 2, 3, 4, 5, 6, 7, 8, 9, 10, 11, 12, 13, 14, 15, 16, 17, 18, 19, 20, 21, 22, 23, 24, 25, 26, 27, 28, 29]",300,130,-1,2,32,9,0.0
basic,53,12,0,0,0,22,"[0, 22]",2,22,"[2, 4, 5, 6, 7, 9, 10, 12, 13, 14, 15, 16, 17, 18, 19, 21, 23, 24, 25, 27, 28, 29]",211.9943184,3375,3245,6,42,8,1.0
basic,53,12,0,0,0,16,"[0, 22, 16]",3,12,"[2, 4, 5, 6, 7, 12, 14, 19, 23, 24, 25, 27]",190.9943184,4016,641,6,24,8,1.2017164145167045
basic,53,12,0,0,0,4,"[0, 22, 16, 4]",4,9,"[2, 6, 7, 12, 14, 19, 24, 25, 27]",156.7890556,5518,1502,6,14,8,1.146531713305579
basic,53,12,0,0,0,12,"[0, 22, 16, 4, 12]",5,4,"[14, 19, 24, 27]",114.5990094,6018,500,4,3,8,1.1221389456954312
basic,53,12,0,0,0,27,"[0, 22, 16, 4, 12, 27]",6,3,"[14, 19, 24]",90.24741807,7901,1883,2,1,8,1.2262878338287035
basic,53,12,0,0,0,14,"[0, 22, 16, 4, 12, 27, 14]",7,1,[24],61.59432051,8800,899,1,0,8,1.2804562106751427
basic,53,12,0,0,1,24,"[0, 22, 16, 4, 12, 27, 14, 24]",8,0,[],44.38966997,9585,785,1,0,8,1.4322660007679802
basic,53,12,0,1,1,24,"[0, 22, 16, 4, 12, 27, 14, 24]",8,0,[],44.38966997,10398,813,1,0,8,1.4322660007679802
basic,54,3,0,0,0,0,[0],1,29,"[1, 2, 3, 4, 5, 6, 7, 8, 9, 10, 11, 12, 13, 14, 15, 16, 17, 18, 19, 20, 21, 22, 23, 24, 25, 26, 27, 28, 29]",300,132,-1,34,427,10,0.0
basic,54,3,0,0,0,17,"[0, 17]",2,16,"[3, 4, 7, 8, 10, 12, 14, 15, 16, 19, 20, 21, 22, 24, 26, 27]",197.6965299,2652,2520,2,27,9,1.0
basic,54,3,0,0,0,20,"[0, 17, 20]",3,13,"[3, 4, 7, 8, 10, 14, 15, 16, 19, 21, 22, 24, 27]",185.0474192,3172,520,2,24,9,1.0153332121237257
basic,54,3,0,0,0,3,"[0, 17, 20, 3]",4,10,"[4, 7, 8, 10, 14, 15, 16, 19, 21, 24]",164.6513412,3713,541,2,22,9,1.0819240770773468
basic,54,3,0,0,0,19,"[0, 17, 20, 3, 19]",5,6,"[4, 8, 10, 14, 21, 24]",127.3150318,4434,721,2,11,9,1.1701070532957258
basic,54,3,0,0,0,21,"[0, 17, 20, 3, 19, 21]",6,5,"[4, 8, 10, 14, 24]",115.1084762,5936,1502,2,6,9,1.202395500952127
basic,54,3,0,0,0,14,"[0, 17, 20, 3, 19, 21, 14]",7,4,"[4, 8, 10, 24]",88.20122806,6688,752,2,2,9,1.6456130302761207
basic,54,3,0,0,0,24,"[0, 17, 20, 3, 19, 21, 14, 24]",8,1,[8],17.08864127,7694,1006,1,0,9,4.806859660680286
basic,54,3,0,0,1,8,"[0, 17, 20, 3, 19, 21, 14, 24, 8]",9,0,[],4.923116212,8471,777,1,0,9,4.915218144486606
basic,54,3,0,1,1,8,"[0, 17, 20, 3, 19, 21, 14, 24, 8]",9,0,[],4.923116212,8898,427,1,0,9,4.915218144486606
basic,55,37,0,0,0,0,[0],1,29,"[1, 2, 3, 4, 5, 6, 7, 8, 9, 10, 11, 12, 13, 14, 15, 16, 17, 18, 19, 20, 21, 22, 23, 24, 25, 26, 27, 28, 29]",300,130,-1,6,168,10,0.0
basic,55,37,0,0,0,18,"[0, 18]",2,19,"[1, 2, 4, 6, 7, 9, 10, 12, 14, 15, 17, 19, 20, 21, 22, 23, 26, 28, 29]",202.4090168,2054,1924,6,89,10,1.0
basic,55,37,0,0,0,7,"[0, 18, 7]",3,12,"[1, 2, 4, 9, 15, 17, 19, 20, 21, 22, 26, 29]",175.2428614,2807,753,6,53,10,1.0413073512834488
basic,55,37,0,0,0,22,"[0, 18, 7, 22]",4,8,"[1, 2, 4, 15, 19, 20, 21, 26]",125.2428614,3501,694,6,29,10,1.0730792320325544
basic,55,37,0,0,0,4,"[0, 18, 7, 22, 4]",5,7,"[1, 2, 15, 19, 20, 21, 26]",100.2428614,4329,828,4,16,10,1.2290245562206235
basic,55,37,0,0,0,2,"[0, 18, 7, 22, 4, 2]",6,5,"[1, 15, 19, 20, 21]",88.84110714,5006,677,4,7,10,1.3968113858365216
basic,55,37,0,0,0,1,"[0, 18, 7, 22, 4, 2, 1]",7,4,"[15, 19, 20, 21]",71.63645661,5530,524,4,3,10,1.4424239294761476
basic,55,37,0,0,0,20,"[0, 18, 7, 22, 4, 2, 1, 20]",8,3,"[15, 19, 21]",37.40197107,6717,1187,2,1,10,1.7518607796010042
basic,55,37,0,0,0,15,"[0, 18, 7, 22, 4, 2, 1, 20, 15]",9,1,[21],20.40197107,7271,554,1,0,10,1.680305745239285
basic,55,37,0,0,1,21,"[0, 18, 7, 22, 4, 2, 1, 20, 15, 21]",10,0,[],5.401971073,7959,688,1,0,10,1.8982635624510946
basic,55,37,0,1,1,21,"[0, 18, 7, 22, 4, 2, 1, 20, 15, 21]",10,0,[],5.401971073,8414,455,1,0,10,1.8982635624510946
basic,56,34,0,0,0,0,[0],1,25,"[1, 3, 4, 5, 6, 7, 8, 9, 10, 11, 12, 13, 15, 18, 19, 20, 21, 22, 23, 24, 25, 26, 27, 28, 29]",300,131,-1,12,367,10,0.0
basic,56,34,0,0,0,13,"[0, 13]",2,24,"[1, 3, 4, 5, 6, 7, 8, 9, 10, 11, 12, 15, 18, 19, 20, 21, 22, 23, 24, 25, 26, 27, 28, 29]",279.9750156,1741,1610,12,331,10,1.0
basic,56,34,0,0,0,1,"[0, 13, 1]",3,16,"[3, 5, 7, 8, 9, 10, 11, 12, 19, 21, 22, 23, 24, 25, 27, 29]",211.8574701,2347,606,3,92,10,1.0010381285747127
basic,56,34,0,0,0,8,"[0, 13, 1, 8]",4,14,"[3, 5, 7, 9, 10, 11, 12, 19, 22, 23, 24, 25, 27, 29]",201.0871405,2885,538,2,54,10,1.1636807
basic,56,34,0,0,0,25,"[0, 13, 1, 8, 25]",5,12,"[3, 5, 7, 9, 10, 11, 12, 22, 23, 24, 27, 29]",183.999133,3556,671,2,28,10,1.1396208815936457
basic,56,34,0,0,0,24,"[0, 13, 1, 8, 25, 24]",6,11,"[3, 5, 7, 9, 10, 11, 12, 22, 23, 27, 29]",166.5062774,4358,802,2,23,10,1.374180768736554
basic,56,34,0,0,0,12,"[0, 13, 1, 8, 25, 24, 12]",7,7,"[7, 9, 10, 11, 22, 23, 27]",115.4670767,9376,5018,1,8,10,1.4994254760835948
basic,56,34,0,0,0,7,"[0, 13, 1, 8, 25, 24, 12, 7]",8,5,"[9, 11, 22, 23, 27]",100.4337804,10163,787,1,4,10,1.758992610425009
basic,56,34,0,0,0,23,"[0, 13, 1, 8, 25, 24, 12, 7, 23]",9,1,[27],72.27352467,10792,629,1,0,10,2.399781305190153
basic,56,34,0,0,1,27,"[0, 13, 1, 8, 25, 24, 12, 7, 23, 27]",10,0,[],18.60789321,11751,959,1,0,10,4.766619878750327
basic,56,34,0,1,1,27,"[0, 13, 1, 8, 25, 24, 12, 7, 23, 27]",10,0,[],18.60789321,12514,763,1,0,10,4.766619878750327
basic,57,35,0,0,0,0,[0],1,29,"[1, 2, 3, 4, 5, 6, 7, 8, 9, 10, 11, 12, 13, 14, 15, 16, 17, 18, 19, 20, 21, 22, 23, 24, 25, 26, 27, 28, 29]",300,130,-1,5,236,11,0.0
basic,57,35,0,0,0,24,"[0, 24]",2,27,"[1, 2, 4, 5, 6, 7, 8, 9, 10, 11, 12, 13, 14, 15, 16, 17, 18, 19, 20, 21, 22, 23, 25, 26, 27, 28, 29]",268.9838752,1800,1670,49,512,10,1.0
basic,57,35,0,0,0,17,"[0, 24, 17]",3,26,"[1, 2, 4, 5, 6, 7, 8, 9, 10, 11, 12, 13, 14, 15, 16, 18, 19, 20, 21, 22, 23, 25, 26, 27, 28, 29]",257.2791753,2509,709,33,238,10,1.0771477201815276
basic,57,35,0,0,0,1,"[0, 24, 17, 1]",4,25,"[2, 4, 5, 6, 7, 8, 9, 10, 11, 12, 13, 14, 15, 16, 18, 19, 20, 21, 22, 23, 25, 26, 27, 28, 29]",241.4677869,3213,704,26,151,10,1.2244804141479215
basic,57,35,0,0,0,15,"[0, 24, 17, 1, 15]",5,23,"[2, 4, 5, 6, 7, 8, 9, 10, 11, 12, 14, 16, 18, 19, 20, 21, 22, 23, 25, 26, 27, 28, 29]",218.6204676,3983,770,26,78,10,1.4642196672428094
basic,57,35,0,0,0,5,"[0, 24, 17, 1, 15, 5]",6,13,"[4, 6, 9, 11, 18, 19, 20, 23, 25, 26, 27, 28, 29]",162.2999563,7516,3533,7,20,10,1.2337505118614283
basic,57,35,0,0,0,23,"[0, 24, 17, 1, 15, 5, 23]",7,4,"[6, 9, 18, 25]",107.8481427,8446,930,6,6,10,1.8072927740829974
basic,57,35,0,0,0,9,"[0, 24, 17, 1, 15, 5, 23, 9]",8,3,"[6, 18, 25]",70.20508226,9166,720,2,2,10,2.044176666334238
basic,57,35,0,0,0,18,"[0, 24, 17, 1, 15, 5, 23, 9, 18]",9,2,"[6, 25]",50.18009787,10686,1520,2,0,10,1.942139959218181
basic,57,35,0,0,1,6,"[0, 24, 17, 1, 15, 5, 23, 9, 18, 6]",10,0,[],16.56462524,13017,2331,1,0,10,1.8743036916552862
basic,57,35,0,1,1,6,"[0, 24, 17, 1, 15, 5, 23, 9, 18, 6]",10,0,[],16.56462524,14246,1229,1,0,10,1.8743036916552862
basic,58,28,0,0,0,0,[0],1,27,"[1, 2, 3, 4, 5, 6, 7, 8, 9, 10, 11, 12, 13, 14, 15, 16, 17, 18, 19, 20, 22, 23, 25, 26, 27, 28, 29]",300,130,-1,2,96,9,0.0
basic,58,28,0,0,0,3,"[0, 3]",2,26,"[1, 2, 4, 5, 6, 7, 8, 9, 10, 11, 12, 13, 14, 15, 16, 17, 18, 19, 20, 22, 23, 25, 26, 27, 28, 29]",251.0817008,30525,30395,1,64,9,1.0
basic,58,28,0,0,0,14,"[0, 3, 14]",3,13,"[1, 2, 5, 7, 10, 11, 12, 13, 17, 18, 19, 20, 26]",142.7396498,31384,859,19,59,8,1.0338694802207566
basic,58,28,0,0,0,18,"[0, 3, 14, 18]",4,10,"[1, 2, 5, 7, 11, 12, 13, 17, 19, 26]",117.2445523,32127,743,18,18,8,1.098527225277385
basic,58,28,0,0,0,13,"[0, 3, 14, 18, 13]",5,7,"[2, 7, 11, 12, 17, 19, 26]",92.83144103,32994,867,8,6,8,1.0872780601597938
basic,58,28,0,0,0,12,"[0, 3, 14, 18, 13, 12]",6,3,"[2, 7, 19]",75.6267905,33475,481,3,1,8,1.0890748557820906
basic,58,28,0,0,0,7,"[0, 3, 14, 18, 13, 12, 7]",7,2,"[2, 19]",62.47384406,34033,558,2,0,8,1.2125627495730145
basic,58,28,0,0,1,19,"[0, 3, 14, 18, 13, 12, 7, 19]",8,0,[],34.74299481,34908,875,1,0,8,1.4527925513951803
basic,58,28,0,1,1,19,"[0, 3, 14, 18, 13, 12, 7, 19]",8,0,[],34.74299481,35913,1005,1,0,8,1.4527925513951803
basic,59,0,0,0,0,0,[0],1,27,"[2, 3, 4, 5, 6, 7, 8, 9, 10, 11, 12, 13, 14, 15, 16, 17, 19, 20, 21, 22, 23, 24, 25, 26, 27, 28, 29]",300,130,-1,104,1136,9,0.0
basic,59,0,0,0,0,5,"[0, 5]",2,24,"[2, 3, 4, 7, 8, 9, 11, 12, 13, 14, 15, 16, 17, 19, 20, 21, 22, 23, 24, 25, 26, 27, 28, 29]",164.5156836,6489,6359,5,112,9,1.0
basic,59,0,0,0,0,4,"[0, 5, 4]",3,20,"[2, 3, 7, 8, 9, 11, 12, 13, 14, 15, 17, 19, 20, 21, 22, 23, 24, 25, 26, 28]",139.4358112,7433,944,4,61,9,1.0257023158632692
basic,59,0,0,0,0,26,"[0, 5, 4, 26]",4,18,"[3, 7, 8, 9, 11, 12, 13, 14, 15, 17, 19, 20, 21, 22, 23, 24, 25, 28]",127.3942166,8141,708,4,26,9,1.0684029773259323
basic,59,0,0,0,0,24,"[0, 5, 4, 26, 24]",5,12,"[3, 7, 8, 9, 11, 12, 15, 17, 19, 20, 23, 28]",110.2769738,8992,851,4,16,9,1.1372083333602885
basic,59,0,0,0,0,15,"[0, 5, 4, 26, 24, 15]",6,8,"[3, 7, 8, 9, 11, 12, 17, 19]",86.93173875,9841,849,4,7,9,1.1271717591548023
basic,59,0,0,0,0,7,"[0, 5, 4, 26, 24, 15, 7]",7,4,"[3, 8, 17, 19]",55.86728962,10692,851,3,2,9,1.190834598819092
basic,59,0,0,0,0,8,"[0, 5, 4, 26, 24, 15, 7, 8]",8,2,"[3, 19]",36.76231644,11386,694,2,0,9,1.1832849301094388
basic,59,0,0,0,1,3,"[0, 5, 4, 26, 24, 15, 7, 8, 3]",9,0,[],6.348503789,12233,847,1,0,9,1.3547295451928671
basic,59,0,0,1,1,3,"[0, 5, 4, 26, 24, 15, 7, 8, 3]",9,0,[],6.348503789,12647,414,1,0,9,1.3547295451928671
basic,60,43,0,0,0,0,[0],1,23,"[1, 2, 3, 4, 5, 6, 7, 9, 10, 11, 12, 14, 15, 16, 17, 19, 20, 21, 22, 23, 25, 27, 29]",300,129,-1,16,556,12,0.0
basic,60,43,0,0,0,29,"[0, 29]",2,22,"[1, 2, 3, 4, 5, 6, 7, 9, 10, 11, 12, 14, 15, 16, 17, 19, 20, 21, 22, 23, 25, 27]",277.909278,1803,1674,16,520,12,1.0
basic,60,43,0,0,0,20,"[0, 29, 20]",3,20,"[1, 2, 3, 4, 6, 7, 9, 10, 11, 12, 14, 15, 16, 17, 19, 21, 22, 23, 25, 27]",254.4785289,3576,1773,15,422,12,1.082311746871282
basic,60,43,0,0,0,16,"[0, 29, 20, 16]",4,19,"[1, 2, 3, 4, 6, 7, 9, 10, 11, 12, 14, 15, 17, 19, 21, 22, 23, 25, 27]",231.8511119,4509,933,15,389,12,1.215201926898219
basic,60,43,0,0,0,25,"[0, 29, 20, 16, 25]",5,14,"[1, 2, 3, 4, 6, 7, 9, 11, 12, 14, 15, 19, 22, 23]",175.7708124,5473,964,53,282,11,1.566384303308987
basic,60,43,0,0,0,15,"[0, 29, 20, 16, 25, 15]",6,13,"[1, 2, 3, 4, 6, 7, 9, 11, 12, 14, 19, 22, 23]",153.0992443,6390,917,27,108,11,1.776736412604812
basic,60,43,0,0,0,12,"[0, 29, 20, 16, 25, 15, 12]",7,10,"[1, 3, 6, 7, 9, 11, 14, 19, 22, 23]",133.7860364,6955,565,21,41,11,1.6813323012225032
basic,60,43,0,0,0,3,"[0, 29, 20, 16, 25, 15, 12, 3]",8,9,"[1, 6, 7, 9, 11, 14, 19, 22, 23]",120.7860364,7733,778,20,12,11,1.608740348096123
basic,60,43,0,0,0,22,"[0, 29, 20, 16, 25, 15, 12, 3, 22]",9,6,"[1, 6, 7, 11, 14, 19]",86.07292644,9054,1321,9,2,11,1.793657891802588
basic,60,43,0,0,0,19,"[0, 29, 20, 16, 25, 15, 12, 3, 22, 19]",10,3,"[1, 6, 7]",65.45739831,16717,7663,3,0,11,1.6882745891803936
basic,60,43,0,0,1,1,"[0, 29, 20, 16, 25, 15, 12, 3, 22, 19, 1]",11,0,[],37.2793927,18065,1348,1,0,11,1.825064866046553
basic,60,43,0,1,1,1,"[0, 29, 20, 16, 25, 15, 12, 3, 22, 19, 1]",11,0,[],37.2793927,24015,5950,1,0,11,1.825064866046553
basic,61,9,0,0,0,0,[0],1,27,"[1, 3, 4, 5, 6, 7, 8, 9, 10, 11, 13, 14, 15, 16, 17, 18, 19, 20, 21, 22, 23, 24, 25, 26, 27, 28, 29]",300,132,-1,2,182,10,0.0
basic,61,9,0,0,0,20,"[0, 20]",2,17,"[6, 7, 8, 9, 10, 15, 16, 17, 18, 19, 21, 22, 23, 25, 26, 27, 28]",173.3508784,6985,6853,1,42,8,1.0
basic,61,9,0,0,0,21,"[0, 20, 21]",3,15,"[7, 8, 9, 10, 15, 16, 17, 18, 19, 22, 23, 25, 26, 27, 28]",161.2678324,7643,658,1,41,8,1.1704126573128746
basic,61,9,0,0,0,28,"[0, 20, 21, 28]",4,8,"[8, 9, 10, 18, 22, 23, 25, 26]",108.2678324,8526,883,13,12,7,2.5813297705941847
basic,61,9,0,0,0,8,"[0, 20, 21, 28, 8]",5,5,"[9, 10, 23, 25, 26]",97.45117861,9181,655,6,2,7,3.175698385801249
basic,61,9,0,0,0,23,"[0, 20, 21, 28, 8, 23]",6,4,"[9, 10, 25, 26]",75.98026805,9875,694,4,0,7,3.762514250419802
basic,61,9,0,0,1,9,"[0, 20, 21, 28, 8, 23, 9]",7,0,[],53.61958828,10434,559,1,0,7,3.3086848386426575
basic,61,9,0,1,1,9,"[0, 20, 21, 28, 8, 23, 9]",7,0,[],53.61958828,11682,1248,1,0,7,3.3086848386426575
basic,62,1,0,0,0,0,[0],1,26,"[1, 2, 4, 5, 7, 8, 9, 10, 11, 12, 13, 14, 15, 16, 17, 18, 19, 20, 21, 22, 23, 24, 25, 26, 28, 29]",300,130,-1,6,74,7,0.0
basic,62,1,0,0,0,14,"[0, 14]",2,19,"[1, 4, 5, 8, 9, 13, 15, 17, 18, 19, 20, 21, 22, 23, 24, 25, 26, 28, 29]",200.1901808,5369,5239,5,42,7,1.0
basic,62,1,0,0,0,17,"[0, 14, 17]",3,15,"[1, 4, 5, 8, 9, 13, 15, 18, 19, 20, 22, 23, 25, 28, 29]",147.8356204,6966,1597,5,27,7,1.0028844724416826
basic,62,1,0,0,0,1,"[0, 14, 17, 1]",4,12,"[4, 5, 8, 9, 15, 18, 20, 22, 23, 25, 28, 29]",123.4840291,13030,6064,5,15,7,1.0264985578353567
basic,62,1,0,0,0,28,"[0, 14, 17, 1, 28]",5,5,"[9, 15, 22, 23, 29]",88.59850198,16087,3057,5,3,7,1.0339861575999345
basic,62,1,0,0,0,23,"[0, 14, 17, 1, 28, 23]",6,2,"[15, 22]",51.70676849,19866,3779,2,0,7,1.0327458250705703
basic,62,1,0,0,1,15,"[0, 14, 17, 1, 28, 23, 15]",7,0,[],20.81987807,20749,883,1,0,7,1.1948681641401226
basic,62,1,0,1,1,15,"[0, 14, 17, 1, 28, 23, 15]",7,0,[],20.81987807,21380,631,1,0,7,1.1948681641401226
basic,63,42,0,0,0,0,[0],1,29,"[1, 2, 3, 4, 5, 6, 7, 8, 9, 10, 11, 12, 13, 14, 15, 16, 17, 18, 19, 20, 21, 22, 23, 24, 25, 26, 27, 28, 29]",300,162,-1,16,302,9,0.0
basic,63,42,0,0,0,4,"[0, 4]",2,28,"[1, 2, 3, 5, 6, 7, 8, 9, 10, 11, 12, 13, 14, 15, 16, 17, 18, 19, 20, 21, 22, 23, 24, 25, 26, 27, 28, 29]",209.5290102,6617,6455,4,80,9,1.0
basic,63,42,0,0,0,22,"[0, 4, 22]",3,24,"[1, 2, 3, 5, 6, 7, 8, 9, 10, 11, 13, 15, 17, 18, 19, 20, 21, 23, 24, 25, 26, 27, 28, 29]",198.3486703,8251,1634,3,53,9,1.1473032812120834
basic,63,42,0,0,0,8,"[0, 4, 22, 8]",4,21,"[1, 2, 3, 5, 6, 7, 10, 11, 15, 17, 18, 19, 20, 21, 23, 24, 25, 26, 27, 28, 29]",176.2127267,8987,736,2,36,9,1.1513227322639639
basic,63,42,0,0,0,1,"[0, 4, 22, 8, 1]",5,12,"[2, 5, 6, 7, 10, 15, 18, 19, 24, 26, 27, 28]",127.1209758,9820,833,2,24,9,1.1101621876186907
basic,63,42,0,0,0,7,"[0, 4, 22, 8, 1, 7]",6,5,"[2, 19, 26, 27, 28]",97.12097583,10516,696,2,10,9,1.1711274205343067
basic,63,42,0,0,0,26,"[0, 4, 22, 8, 1, 7, 26]",7,3,"[2, 19, 27]",70.55031532,11153,637,2,1,9,1.1588367913131314
basic,63,42,0,0,0,27,"[0, 4, 22, 8, 1, 7, 26, 27]",8,1,[19],52.52255894,11800,647,1,0,9,1.160587570992885
basic,63,42,0,0,1,19,"[0, 4, 22, 8, 1, 7, 26, 27, 19]",9,0,[],11.51036563,12432,632,1,0,9,1.3341568614108437
basic,63,42,0,1,1,19,"[0, 4, 22, 8, 1, 7, 26, 27, 19]",9,0,[],11.51036563,13129,697,1,0,9,1.3341568614108437
basic,64,26,0,0,0,0,[0],1,29,"[1, 2, 3, 4, 5, 6, 7, 8, 9, 10, 11, 12, 13, 14, 15, 16, 17, 18, 19, 20, 21, 22, 23, 24, 25, 26, 27, 28, 29]",300,130,-1,9,226,9,0.0
basic,64,26,0,0,0,12,"[0, 12]",2,26,"[1, 2, 3, 4, 5, 6, 8, 10, 11, 13, 14, 15, 16, 17, 18, 19, 20, 21, 22, 23, 24, 25, 26, 27, 28, 29]",279.8753882,4389,4259,2,80,9,1.0
basic,64,26,0,0,0,10,"[0, 12, 10]",3,6,"[4, 6, 14, 16, 17, 29]",112.9921955,5337,948,10,32,7,1.1556689432007743
basic,64,26,0,0,0,6,"[0, 12, 10, 6]",4,5,"[4, 14, 16, 17, 29]",83.71763318,5910,573,7,10,7,1.346619593945461
basic,64,26,0,0,0,14,"[0, 12, 10, 6, 14]",5,4,"[4, 16, 17, 29]",62.69383714,6451,541,2,3,7,1.472560145471377
basic,64,26,0,0,0,17,"[0, 12, 10, 6, 14, 17]",6,2,"[4, 29]",40.22163209,7038,587,2,0,7,1.8282920884450673
basic,64,26,0,0,1,4,"[0, 12, 10, 6, 14, 17, 4]",7,0,[],19.12660898,13400,6362,1,0,7,2.3173930475058775
