condition,trial_id,map_id,undoIndicator,submit,checkEnd,currentChoice,chosen_all,n_city_all,n_within_reach,cities_reach,currentBudget,time_all,rt_all,n_opt_paths_all,n_subopt_paths_all,mas_all,tortuosity_all
undo,0,18,0,0,0,0,[0],1,28,"[1, 2, 3, 4, 5, 6, 7, 8, 9, 10, 11, 12, 13, 14, 16, 17, 18, 19, 20, 21, 22, 23, 24, 25, 26, 27, 28, 29]",300,127,-1,3,136,10,0.0
undo,0,18,0,0,0,28,"[0, 28]",2,16,"[1, 3, 5, 7, 8, 9, 12, 13, 14, 16, 20, 23, 24, 25, 26, 27]",236.4311397,2463,2336,2,19,10,1.0
undo,0,18,0,0,0,7,"[0, 28, 7]",3,15,"[1, 3, 5, 8, 9, 12, 13, 14, 16, 20, 23, 24, 25, 26, 27]",214.4084242,3106,643,2,17,10,1.4345180696367563
undo,0,18,0,0,0,25,"[0, 28, 7, 25]",4,13,"[1, 3, 5, 8, 9, 12, 13, 14, 16, 20, 23, 26, 27]",186.6055466,4098,992,2,15,10,1.8896451241781882
undo,0,18,0,0,0,8,"[0, 28, 7, 25, 8]",5,10,"[3, 5, 9, 12, 13, 14, 16, 23, 26, 27]",149.551532,5091,993,2,10,10,1.590467437592877
undo,0,18,0,0,0,3,"[0, 28, 7, 25, 8, 3]",6,6,"[5, 12, 13, 14, 23, 27]",121.4801943,5896,805,1,10,9,1.4587755974793148
undo,0,18,0,0,0,14,"[0, 28, 7, 25, 8, 3, 14]",7,4,"[5, 12, 13, 27]",91.39697637,7249,1353,4,0,8,1.8606737724243565
undo,0,18,0,0,1,13,"[0, 28, 7, 25, 8, 3, 14, 13]",8,0,[],72.42331041,8226,977,1,0,8,2.4208916262893254
undo,0,18,1,0,0,14,"[0, 28, 7, 25, 8, 3, 14]",7,4,"[5, 12, 13, 27]",91.39697637,10677,2451,4,0,8,1.8606737724243565
undo,0,18,1,0,0,3,"[0, 28, 7, 25, 8, 3]",6,6,"[5, 12, 13, 14, 23, 27]",121.4801943,10894,217,1,10,9,1.4587755974793148
undo,0,18,0,0,0,5,"[0, 28, 7, 25, 8, 3, 5]",7,2,"[12, 27]",63.29944145,12509,1615,1,1,9,1.324334937860345
undo,0,18,0,0,0,12,"[0, 28, 7, 25, 8, 3, 5, 12]",8,1,[27],51.8976872,14030,1521,1,0,9,1.3371922112868397
undo,0,18,0,0,1,27,"[0, 28, 7, 25, 8, 3, 5, 12, 27]",9,0,[],11.17914106,15779,1749,1,0,9,1.4648883530615529
undo,0,18,0,1,1,27,"[0, 28, 7, 25, 8, 3, 5, 12, 27]",9,0,[],11.17914106,17727,1948,1,0,9,1.4648883530615529
undo,1,37,0,0,0,0,[0],1,29,"[1, 2, 3, 4, 5, 6, 7, 8, 9, 10, 11, 12, 13, 14, 15, 16, 17, 18, 19, 20, 21, 22, 23, 24, 25, 26, 27, 28, 29]",300,131,-1,6,168,10,0.0
undo,1,37,0,0,0,19,"[0, 19]",2,19,"[1, 2, 4, 5, 6, 7, 9, 10, 11, 15, 17, 18, 20, 21, 22, 25, 26, 28, 29]",185.6627795,3734,3603,25,244,9,1.0
undo,1,37,0,0,0,21,"[0, 19, 21]",3,14,"[1, 2, 4, 7, 10, 11, 15, 17, 18, 20, 22, 25, 26, 29]",144.5531699,4629,895,10,75,9,1.001632816594558
undo,1,37,0,0,0,15,"[0, 19, 21, 15]",4,9,"[1, 2, 4, 7, 18, 20, 22, 26, 29]",129.5531699,5440,811,5,32,9,1.0243376499143988
undo,1,37,0,0,0,20,"[0, 19, 21, 15, 20]",5,8,"[1, 2, 4, 7, 18, 22, 26, 29]",112.5531699,6188,748,5,14,9,1.250507291508492
undo,1,37,0,0,0,1,"[0, 19, 21, 15, 20, 1]",6,6,"[2, 4, 7, 18, 22, 26]",78.31868434,6953,765,4,4,9,1.4002166443864243
undo,1,37,0,0,0,4,"[0, 19, 21, 15, 20, 1, 4]",7,2,"[2, 22]",60.5986392,7605,652,2,0,9,1.472939356650523
undo,1,37,0,0,0,2,"[0, 19, 21, 15, 20, 1, 4, 2]",8,1,[22],49.19688495,8393,788,1,0,9,1.6590570350137948
undo,1,37,0,0,1,22,"[0, 19, 21, 15, 20, 1, 4, 2, 22]",9,0,[],21.53825157,9228,835,1,0,9,1.7098673138592275
undo,1,37,0,1,1,22,"[0, 19, 21, 15, 20, 1, 4, 2, 22]",9,0,[],21.53825157,10231,1003,1,0,9,1.7098673138592275
undo,2,41,0,0,0,0,[0],1,29,"[1, 2, 3, 4, 5, 6, 7, 8, 9, 10, 11, 12, 13, 14, 15, 16, 17, 18, 19, 20, 21, 22, 23, 24, 25, 26, 27, 28, 29]",300,130,-1,1,143,10,0.0
undo,2,41,0,0,0,13,"[0, 13]",2,23,"[1, 2, 3, 5, 6, 7, 9, 10, 11, 12, 14, 15, 17, 18, 19, 20, 21, 22, 24, 25, 26, 27, 28]",258.2747079,4034,3904,1,55,10,1.0
undo,2,41,0,0,0,28,"[0, 13, 28]",3,22,"[1, 2, 3, 5, 6, 7, 9, 10, 11, 12, 14, 15, 17, 18, 19, 20, 21, 22, 24, 25, 26, 27]",223.7928286,4892,858,1,39,10,1.895724242592676
undo,2,41,0,0,0,5,"[0, 13, 28, 5]",4,19,"[1, 2, 3, 6, 9, 10, 11, 12, 14, 15, 17, 18, 19, 20, 21, 22, 24, 25, 27]",210.1913581,7151,2259,1,34,10,2.861541269398273
undo,2,41,0,0,0,3,"[0, 13, 28, 5, 3]",5,16,"[1, 2, 6, 9, 10, 12, 14, 17, 18, 19, 20, 21, 22, 24, 25, 27]",175.3632086,8113,962,1,22,10,3.1455488489005883
undo,2,41,0,0,0,21,"[0, 13, 28, 5, 3, 21]",6,14,"[1, 2, 6, 9, 10, 12, 14, 17, 18, 19, 20, 22, 25, 27]",143.2228912,10325,2212,13,11,9,3.207558429289677
undo,2,41,0,0,0,9,"[0, 13, 28, 5, 3, 21, 9]",7,6,"[1, 2, 10, 12, 14, 17]",93.85691102,11199,874,7,4,9,2.5050148501792275
undo,2,41,0,0,0,2,"[0, 13, 28, 5, 3, 21, 9, 2]",8,5,"[1, 10, 12, 14, 17]",81.77386505,12011,812,5,0,9,2.4119643847713177
undo,2,41,0,0,1,17,"[0, 13, 28, 5, 3, 21, 9, 2, 17]",9,0,[],49.21622385,13168,1157,1,0,9,3.9563478735796007
undo,2,41,0,1,1,17,"[0, 13, 28, 5, 3, 21, 9, 2, 17]",9,0,[],49.21622385,17046,3878,1,0,9,3.9563478735796007
undo,3,28,0,0,0,0,[0],1,27,"[1, 2, 3, 4, 5, 6, 7, 8, 9, 10, 11, 12, 13, 14, 15, 16, 17, 18, 19, 20, 22, 23, 25, 26, 27, 28, 29]",300,130,-1,2,96,9,0.0
undo,3,28,0,0,0,3,"[0, 3]",2,26,"[1, 2, 4, 5, 6, 7, 8, 9, 10, 11, 12, 13, 14, 15, 16, 17, 18, 19, 20, 22, 23, 25, 26, 27, 28, 29]",251.0817008,2866,2736,1,64,9,1.0
undo,3,28,0,0,0,5,"[0, 3, 5]",3,20,"[2, 4, 6, 7, 8, 9, 10, 11, 12, 13, 14, 15, 18, 19, 20, 23, 25, 26, 28, 29]",166.9865166,4070,1204,1,34,9,1.0203769473612083
undo,3,28,0,0,0,26,"[0, 3, 5, 26]",4,13,"[2, 4, 7, 8, 9, 12, 13, 14, 18, 19, 20, 25, 28]",134.2298379,4802,732,1,28,9,1.0315203228799597
undo,3,28,0,0,0,19,"[0, 3, 5, 26, 19]",5,7,"[2, 7, 9, 12, 13, 14, 18]",93.22983789,5899,1097,1,17,9,1.1324645362297356
undo,3,28,0,0,0,7,"[0, 3, 5, 26, 19, 7]",6,5,"[2, 12, 13, 14, 18]",65.49898864,6751,852,1,6,9,1.1971194919020265
undo,3,28,0,0,0,12,"[0, 3, 5, 26, 19, 7, 12]",7,2,"[13, 18]",52.3460422,7417,666,1,1,9,1.2020762147848982
undo,3,28,0,0,0,13,"[0, 3, 5, 26, 19, 7, 12, 13]",8,1,[18],35.14139167,8291,874,1,0,9,1.39005144078531
undo,3,28,0,0,1,18,"[0, 3, 5, 26, 19, 7, 12, 13, 18]",9,0,[],10.72828044,9536,1245,1,0,9,1.738787343626007
undo,3,28,0,1,1,18,"[0, 3, 5, 26, 19, 7, 12, 13, 18]",9,0,[],10.72828044,10264,728,1,0,9,1.738787343626007
undo,4,44,0,0,0,0,[0],1,29,"[1, 2, 3, 4, 5, 6, 7, 8, 9, 10, 11, 12, 13, 14, 15, 16, 17, 18, 19, 20, 21, 22, 23, 24, 25, 26, 27, 28, 29]",300,131,-1,13,126,7,0.0
undo,4,44,0,0,0,8,"[0, 8]",2,17,"[1, 4, 5, 7, 9, 10, 11, 12, 13, 14, 15, 20, 21, 23, 24, 25, 27]",145.7923478,3277,3146,1,10,7,1.0
undo,4,44,0,0,0,20,"[0, 8, 20]",3,16,"[1, 4, 5, 7, 9, 10, 11, 12, 13, 14, 15, 21, 23, 24, 25, 27]",133.7093018,3867,590,1,9,7,1.0890794433668698
undo,4,44,0,0,0,9,"[0, 8, 20, 9]",4,7,"[4, 7, 11, 12, 14, 23, 24]",76.43801756,7489,3622,1,6,7,1.40892325509949
undo,4,44,0,0,0,4,"[0, 8, 20, 9, 4]",5,4,"[7, 12, 23, 24]",56.74030196,11569,4080,1,3,7,1.3849770570803555
undo,4,44,0,0,0,7,"[0, 8, 20, 9, 4, 7]",6,1,[23],25.72417712,13232,1663,1,0,7,1.3274380931474288
undo,4,44,0,0,1,23,"[0, 8, 20, 9, 4, 7, 23]",7,0,[],6.619203947,13954,722,1,0,7,1.3395824779823196
undo,4,44,0,1,1,23,"[0, 8, 20, 9, 4, 7, 23]",7,0,[],6.619203947,15097,1143,1,0,7,1.3395824779823196
undo,5,31,0,0,0,0,[0],1,27,"[1, 3, 4, 5, 6, 7, 8, 10, 11, 12, 13, 14, 15, 16, 17, 18, 19, 20, 21, 22, 23, 24, 25, 26, 27, 28, 29]",300,133,-1,2,87,10,0.0
undo,5,31,0,0,0,14,"[0, 14]",2,25,"[1, 3, 5, 6, 7, 8, 10, 11, 12, 13, 15, 16, 17, 18, 19, 20, 21, 22, 23, 24, 25, 26, 27, 28, 29]",263.861378,4780,4647,2,59,10,1.0
undo,5,31,0,0,0,27,"[0, 14, 27]",3,22,"[1, 3, 5, 6, 7, 8, 10, 11, 12, 13, 15, 16, 17, 18, 19, 20, 21, 22, 24, 25, 28, 29]",235.6833724,5488,708,1,39,10,1.5881859159302467
undo,5,31,0,0,0,8,"[0, 14, 27, 8]",4,20,"[1, 3, 5, 6, 7, 10, 11, 12, 13, 16, 17, 18, 19, 20, 21, 22, 24, 25, 28, 29]",224.6380114,5977,489,1,36,10,2.1665048452331277
undo,5,31,0,0,0,18,"[0, 14, 27, 8, 18]",5,15,"[1, 5, 6, 7, 11, 12, 13, 16, 17, 19, 20, 22, 25, 28, 29]",188.7911147,6661,684,1,26,10,1.7273375741920205
undo,5,31,0,0,0,17,"[0, 14, 27, 8, 18, 17]",6,13,"[1, 5, 6, 7, 11, 12, 13, 16, 19, 20, 22, 25, 28]",159.584951,7465,804,1,13,10,1.551192427769927
undo,5,31,0,0,0,11,"[0, 14, 27, 8, 18, 17, 11]",7,7,"[5, 12, 16, 19, 22, 25, 28]",118.4753414,8173,708,1,4,10,2.9650760544203494
undo,5,31,0,0,0,5,"[0, 14, 27, 8, 18, 17, 11, 5]",8,2,"[16, 28]",74.79468207,9135,962,1,1,10,2.56711965625205
undo,5,31,0,0,0,28,"[0, 14, 27, 8, 18, 17, 11, 5, 28]",9,1,[16],54.57093365,9781,646,1,0,10,2.2865510762058148
undo,5,31,0,0,1,16,"[0, 14, 27, 8, 18, 17, 11, 5, 28, 16]",10,0,[],20.95546102,11064,1283,1,0,10,2.089356850786318
undo,5,31,0,1,1,16,"[0, 14, 27, 8, 18, 17, 11, 5, 28, 16]",10,0,[],20.95546102,12048,984,1,0,10,2.089356850786318
undo,6,2,0,0,0,0,[0],1,23,"[1, 2, 4, 5, 6, 7, 8, 9, 12, 13, 15, 16, 17, 18, 19, 20, 22, 23, 25, 26, 27, 28, 29]",300,129,-1,70,620,10,0.0
undo,6,2,0,0,0,19,"[0, 19]",2,22,"[1, 2, 4, 5, 6, 7, 8, 9, 12, 13, 15, 16, 17, 18, 20, 22, 23, 25, 26, 27, 28, 29]",210.306076,4035,3906,67,431,10,1.0
undo,6,2,0,0,0,12,"[0, 19, 12]",3,17,"[1, 4, 5, 6, 7, 13, 15, 16, 17, 18, 20, 22, 25, 26, 27, 28, 29]",174.2921898,4699,664,66,298,10,1.1107635036313153
undo,6,2,0,0,0,5,"[0, 19, 12, 5]",4,11,"[1, 6, 7, 13, 15, 16, 18, 22, 25, 26, 29]",144.7625437,5618,919,38,136,10,1.0968174771581647
undo,6,2,0,0,0,22,"[0, 19, 12, 5, 22]",5,8,"[1, 6, 7, 13, 15, 18, 26, 29]",131.9562952,6389,771,20,63,10,1.0889910507461968
undo,6,2,0,0,0,13,"[0, 19, 12, 5, 22, 13]",6,7,"[1, 6, 7, 15, 18, 26, 29]",117.0902265,7879,1490,19,20,10,1.236526217328057
undo,6,2,0,0,0,18,"[0, 19, 12, 5, 22, 13, 18]",7,4,"[7, 15, 26, 29]",81.91921567,9004,1125,10,3,10,1.2128708213409936
undo,6,2,0,0,0,7,"[0, 19, 12, 5, 22, 13, 18, 7]",8,3,"[15, 26, 29]",71.62358553,9854,850,5,0,10,1.2019811287894737
undo,6,2,0,0,0,26,"[0, 19, 12, 5, 22, 13, 18, 7, 26]",9,2,"[15, 29]",48.82007703,10878,1024,2,0,10,1.1883593342191134
undo,6,2,0,0,1,15,"[0, 19, 12, 5, 22, 13, 18, 7, 26, 15]",10,0,[],24.61264015,12028,1150,1,0,10,1.4619750353663825
undo,6,2,0,1,1,15,"[0, 19, 12, 5, 22, 13, 18, 7, 26, 15]",10,0,[],24.61264015,13530,1502,1,0,10,1.4619750353663825
undo,7,38,0,0,0,0,[0],1,29,"[1, 2, 3, 4, 5, 6, 7, 8, 9, 10, 11, 12, 13, 14, 15, 16, 17, 18, 19, 20, 21, 22, 23, 24, 25, 26, 27, 28, 29]",300,131,-1,33,506,9,0.0
undo,7,38,0,0,0,15,"[0, 15]",2,24,"[1, 2, 3, 4, 5, 6, 7, 10, 11, 12, 13, 14, 16, 17, 18, 19, 20, 21, 22, 24, 25, 26, 27, 28]",226.6242547,3244,3113,26,315,8,1.0
undo,7,38,0,0,0,4,"[0, 15, 4]",3,21,"[1, 3, 5, 6, 7, 10, 11, 12, 13, 14, 16, 17, 18, 19, 20, 22, 24, 25, 26, 27, 28]",200.6242547,3888,644,13,104,8,1.4173413634934033
undo,7,38,0,0,0,20,"[0, 15, 4, 20]",4,16,"[3, 5, 6, 7, 11, 13, 14, 16, 17, 18, 19, 22, 24, 26, 27, 28]",166.6831292,4605,717,6,33,8,2.4756321407912334
undo,7,38,0,0,0,17,"[0, 15, 4, 20, 17]",5,13,"[3, 5, 6, 11, 13, 16, 18, 19, 22, 24, 26, 27, 28]",142.9134005,5440,835,5,14,8,2.4236103458312424
undo,7,38,0,0,0,19,"[0, 15, 4, 20, 17, 19]",6,7,"[3, 6, 13, 18, 22, 26, 27]",121.5358422,7567,2127,4,4,8,2.216988824378052
undo,7,38,1,0,0,17,"[0, 15, 4, 20, 17]",5,13,"[3, 5, 6, 11, 13, 16, 18, 19, 22, 24, 26, 27, 28]",142.9134005,9965,2398,5,14,8,2.4236103458312424
undo,7,38,0,0,0,13,"[0, 15, 4, 20, 17, 13]",6,4,"[16, 19, 24, 26]",81.19630405,11616,1651,1,3,8,2.2385254443721503
undo,7,38,0,0,0,26,"[0, 15, 4, 20, 17, 13, 26]",7,1,[24],50.14795465,12441,825,1,0,8,1.9845784710127925
undo,7,38,0,0,1,24,"[0, 15, 4, 20, 17, 13, 26, 24]",8,0,[],19.34211105,13338,897,1,0,8,1.8082891163777117
undo,7,38,0,1,1,24,"[0, 15, 4, 20, 17, 13, 26, 24]",8,0,[],19.34211105,16065,2727,1,0,8,1.8082891163777117
undo,8,22,0,0,0,0,[0],1,29,"[1, 2, 3, 4, 5, 6, 7, 8, 9, 10, 11, 12, 13, 14, 15, 16, 17, 18, 19, 20, 21, 22, 23, 24, 25, 26, 27, 28, 29]",300,131,-1,31,704,9,0.0
undo,8,22,0,0,0,16,"[0, 16]",2,21,"[1, 3, 6, 7, 8, 9, 11, 13, 14, 15, 17, 18, 19, 20, 21, 22, 24, 25, 27, 28, 29]",218.605897,2343,2212,17,147,9,1.0
undo,8,22,0,0,0,28,"[0, 16, 28]",3,13,"[6, 7, 9, 13, 14, 17, 19, 20, 21, 22, 24, 25, 29]",184.1675463,3004,661,12,61,9,1.047282311284478
undo,8,22,0,0,0,6,"[0, 16, 28, 6]",4,12,"[7, 9, 13, 14, 17, 19, 20, 21, 22, 24, 25, 29]",154.1675463,3595,591,12,43,9,1.645645870580622
undo,8,22,0,0,0,9,"[0, 16, 28, 6, 9]",5,8,"[7, 14, 17, 19, 20, 21, 24, 29]",127.5404924,4453,858,8,17,9,1.925750226630103
undo,8,22,0,0,0,19,"[0, 16, 28, 6, 9, 19]",6,6,"[7, 14, 17, 21, 24, 29]",107.1444143,5052,599,3,7,9,2.4220750331476455
undo,8,22,0,0,0,29,"[0, 16, 28, 6, 9, 19, 29]",7,4,"[7, 14, 17, 24]",92.11111796,5721,669,2,2,9,2.6996279574991067
undo,8,22,0,0,0,14,"[0, 16, 28, 6, 9, 19, 29, 14]",8,1,[7],33.86165444,6818,1097,1,0,9,2.0544639927929462
undo,8,22,0,0,1,7,"[0, 16, 28, 6, 9, 19, 29, 14, 7]",9,0,[],20.82324963,7422,604,1,0,9,2.219817088951114
undo,8,22,0,1,1,7,"[0, 16, 28, 6, 9, 19, 29, 14, 7]",9,0,[],20.82324963,8248,826,1,0,9,2.219817088951114
undo,9,43,0,0,0,0,[0],1,23,"[1, 2, 3, 4, 5, 6, 7, 9, 10, 11, 12, 14, 15, 16, 17, 19, 20, 21, 22, 23, 25, 27, 29]",300,129,-1,16,556,12,0.0
undo,9,43,0,0,0,29,"[0, 29]",2,22,"[1, 2, 3, 4, 5, 6, 7, 9, 10, 11, 12, 14, 15, 16, 17, 19, 20, 21, 22, 23, 25, 27]",277.909278,2542,2413,16,520,12,1.0
undo,9,43,0,0,0,20,"[0, 29, 20]",3,20,"[1, 2, 3, 4, 6, 7, 9, 10, 11, 12, 14, 15, 16, 17, 19, 21, 22, 23, 25, 27]",254.4785289,3390,848,15,422,12,1.082311746871282
undo,9,43,0,0,0,16,"[0, 29, 20, 16]",4,19,"[1, 2, 3, 4, 6, 7, 9, 10, 11, 12, 14, 15, 17, 19, 21, 22, 23, 25, 27]",231.8511119,4162,772,15,389,12,1.215201926898219
undo,9,43,0,0,0,15,"[0, 29, 20, 16, 15]",5,14,"[1, 2, 3, 4, 6, 7, 9, 11, 12, 14, 19, 22, 23, 25]",188.5267539,4903,741,3,109,12,1.3482474915350444
undo,9,43,0,0,0,25,"[0, 29, 20, 16, 15, 25]",6,12,"[1, 3, 4, 6, 7, 9, 11, 12, 14, 19, 22, 23]",165.8551858,5495,592,2,43,12,1.691408721191545
undo,9,43,0,0,0,12,"[0, 29, 20, 16, 15, 25, 12]",7,11,"[1, 3, 4, 6, 7, 9, 11, 14, 19, 22, 23]",141.6684126,6203,708,2,32,12,1.6015983641428178
undo,9,43,0,0,0,3,"[0, 29, 20, 16, 15, 25, 12, 3]",8,10,"[1, 4, 6, 7, 9, 11, 14, 19, 22, 23]",128.6684126,6810,607,2,24,12,1.5379830456120627
undo,9,43,0,0,0,19,"[0, 29, 20, 16, 15, 25, 12, 3, 19]",9,6,"[1, 4, 6, 7, 11, 22]",87.55880297,8203,1393,1,10,12,1.529185197301008
undo,9,43,0,0,0,22,"[0, 29, 20, 16, 15, 25, 12, 3, 19, 22]",10,4,"[1, 6, 7, 11]",66.94327484,9252,1049,1,3,12,1.9540492344633407
undo,9,43,0,0,0,11,"[0, 29, 20, 16, 15, 25, 12, 3, 19, 22, 11]",11,1,[6],20.87810362,12046,2794,1,0,12,3.067273586593407
undo,9,43,0,0,1,6,"[0, 29, 20, 16, 15, 25, 12, 3, 19, 22, 11, 6]",12,0,[],0.262575489,14750,2704,1,0,12,2.717707829732166
undo,9,43,0,1,1,6,"[0, 29, 20, 16, 15, 25, 12, 3, 19, 22, 11, 6]",12,0,[],0.262575489,22864,8114,1,0,12,2.717707829732166
undo,10,5,0,0,0,0,[0],1,29,"[1, 2, 3, 4, 5, 6, 7, 8, 9, 10, 11, 12, 13, 14, 15, 16, 17, 18, 19, 20, 21, 22, 23, 24, 25, 26, 27, 28, 29]",300,129,-1,5,139,9,0.0
undo,10,5,0,0,0,12,"[0, 12]",2,22,"[2, 4, 5, 6, 8, 9, 10, 13, 14, 15, 16, 17, 18, 19, 21, 22, 23, 24, 25, 26, 27, 28]",228.3062067,3421,3292,1,27,9,1.0
undo,10,5,0,0,0,25,"[0, 12, 25]",3,21,"[2, 4, 5, 6, 8, 9, 10, 13, 14, 15, 16, 17, 18, 19, 21, 22, 23, 24, 26, 27, 28]",200.5213187,4415,994,1,20,9,1.584023303445617
undo,10,5,0,0,0,23,"[0, 12, 25, 23]",4,19,"[2, 4, 5, 6, 8, 9, 10, 13, 14, 15, 16, 17, 18, 19, 21, 22, 24, 26, 27]",182.0822298,4895,480,1,14,9,2.3508446989254357
undo,10,5,0,0,0,24,"[0, 12, 25, 23, 24]",5,15,"[2, 4, 5, 6, 8, 9, 13, 14, 15, 17, 18, 19, 22, 26, 27]",158.995437,5895,1000,1,12,9,1.9469752046288753
undo,10,5,0,0,0,17,"[0, 12, 25, 23, 24, 17]",6,7,"[4, 5, 6, 8, 15, 18, 19]",124.0097257,6745,850,1,8,9,1.6482276497563642
undo,10,5,0,0,0,5,"[0, 12, 25, 23, 24, 17, 5]",7,4,"[4, 6, 15, 18]",80.96323916,7516,771,1,3,9,1.4654649104389412
undo,10,5,0,0,0,4,"[0, 12, 25, 23, 24, 17, 5, 4]",8,1,[6],15.16050365,10598,3082,1,0,9,1.6255060355828674
undo,10,5,0,0,1,6,"[0, 12, 25, 23, 24, 17, 5, 4, 6]",9,0,[],3.118909076,11249,651,1,0,9,1.7777310833772453
undo,10,5,0,1,1,6,"[0, 12, 25, 23, 24, 17, 5, 4, 6]",9,0,[],3.118909076,12429,1180,1,0,9,1.7777310833772453
undo,11,21,0,0,0,0,[0],1,29,"[1, 2, 3, 4, 5, 6, 7, 8, 9, 10, 11, 12, 13, 14, 15, 16, 17, 18, 19, 20, 21, 22, 23, 24, 25, 26, 27, 28, 29]",300,130,-1,84,830,9,0.0
undo,11,21,0,0,0,18,"[0, 18]",2,28,"[1, 2, 3, 4, 5, 6, 7, 8, 9, 10, 11, 12, 13, 14, 15, 16, 17, 19, 20, 21, 22, 23, 24, 25, 26, 27, 28, 29]",240.923778,4517,4387,44,305,9,1.0
undo,11,21,0,0,0,29,"[0, 18, 29]",3,24,"[1, 2, 3, 4, 6, 7, 8, 9, 10, 11, 12, 13, 14, 15, 16, 17, 20, 21, 22, 23, 24, 25, 26, 27]",212.2706805,5299,782,11,87,9,1.035555280387994
undo,11,21,0,0,0,25,"[0, 18, 29, 25]",4,18,"[1, 4, 6, 8, 9, 10, 11, 12, 14, 15, 16, 17, 20, 21, 22, 23, 24, 26]",167.0490043,5999,700,6,45,9,2.2226517719335437
undo,11,21,0,0,0,23,"[0, 18, 29, 25, 23]",5,10,"[4, 8, 14, 15, 16, 17, 20, 21, 22, 24]",123.7246462,7793,1794,3,20,9,1.7801958981326236
undo,11,21,0,0,0,21,"[0, 18, 29, 25, 23, 21]",6,3,"[4, 14, 16]",94.11046043,8494,701,1,3,9,2.290491065218303
undo,11,21,0,0,0,14,"[0, 18, 29, 25, 23, 21, 14]",7,2,"[4, 16]",68.49796348,9619,1125,1,1,9,2.021100447974041
undo,11,21,0,0,0,4,"[0, 18, 29, 25, 23, 21, 14, 4]",8,1,[16],54.35582786,10462,843,1,0,9,1.9205022281831265
undo,11,21,0,0,1,16,"[0, 18, 29, 25, 23, 21, 14, 4, 16]",9,0,[],9.757621617,11850,1388,1,0,9,1.7782202964615115
undo,11,21,0,1,1,16,"[0, 18, 29, 25, 23, 21, 14, 4, 16]",9,0,[],9.757621617,12847,997,1,0,9,1.7782202964615115
undo,12,32,0,0,0,0,[0],1,29,"[1, 2, 3, 4, 5, 6, 7, 8, 9, 10, 11, 12, 13, 14, 15, 16, 17, 18, 19, 20, 21, 22, 23, 24, 25, 26, 27, 28, 29]",300,130,-1,17,359,10,0.0
undo,12,32,0,0,0,19,"[0, 19]",2,28,"[1, 2, 3, 4, 5, 6, 7, 8, 9, 10, 11, 12, 13, 14, 15, 16, 17, 18, 20, 21, 22, 23, 24, 25, 26, 27, 28, 29]",283.5075775,2116,1986,16,294,10,1.0
undo,12,32,0,0,0,13,"[0, 19, 13]",3,24,"[2, 3, 4, 5, 6, 8, 9, 10, 11, 12, 14, 15, 16, 17, 18, 20, 21, 22, 23, 24, 25, 26, 27, 28]",260.3127505,2784,668,14,227,10,1.0172874229878615
undo,12,32,0,0,0,15,"[0, 19, 13, 15]",4,18,"[2, 3, 5, 8, 9, 10, 11, 12, 16, 17, 20, 22, 23, 24, 25, 26, 27, 28]",177.4393531,4391,1607,9,116,10,1.435447391509833
undo,12,32,0,0,0,28,"[0, 19, 13, 15, 28]",5,17,"[2, 3, 5, 8, 9, 10, 11, 12, 16, 17, 20, 22, 23, 24, 25, 26, 27]",166.0375988,5045,654,9,70,10,1.3843701324937985
undo,12,32,0,0,0,12,"[0, 19, 13, 15, 28, 12]",6,14,"[2, 3, 5, 8, 9, 10, 11, 16, 17, 20, 22, 24, 26, 27]",147.0639329,5733,688,6,35,10,1.358372254952329
undo,12,32,0,0,0,16,"[0, 19, 13, 15, 28, 12, 16]",7,13,"[2, 3, 5, 8, 9, 10, 11, 17, 20, 22, 24, 26, 27]",131.411457,6351,618,5,15,10,1.4356932930709845
undo,12,32,0,0,0,22,"[0, 19, 13, 15, 28, 12, 16, 22]",8,6,"[2, 8, 9, 17, 20, 27]",97.57360838,7123,772,3,5,10,1.4335226411545752
undo,12,32,0,0,0,9,"[0, 19, 13, 15, 28, 12, 16, 22, 9]",9,3,"[2, 8, 20]",75.37000507,7706,583,3,0,10,1.4837166378374758
undo,12,32,0,0,1,8,"[0, 19, 13, 15, 28, 12, 16, 22, 9, 8]",10,0,[],30.24794838,8453,747,1,0,10,1.3767698817641267
undo,12,32,0,1,1,8,"[0, 19, 13, 15, 28, 12, 16, 22, 9, 8]",10,0,[],30.24794838,9747,1294,1,0,10,1.3767698817641267
undo,13,20,0,0,0,0,[0],1,21,"[1, 2, 3, 4, 5, 6, 7, 8, 9, 12, 17, 18, 20, 21, 22, 23, 25, 26, 27, 28, 29]",300,131,-1,1,9,9,0.0
undo,13,20,0,0,0,12,"[0, 12]",2,20,"[1, 2, 3, 4, 5, 6, 7, 8, 9, 17, 18, 20, 21, 22, 23, 25, 26, 27, 28, 29]",271.5570747,2878,2747,1,8,9,1.0
undo,13,20,0,0,0,1,"[0, 12, 1]",3,12,"[3, 4, 5, 6, 8, 9, 20, 21, 23, 27, 28, 29]",189.5692707,6281,3403,1,6,9,1.0757997779162911
undo,13,20,0,0,0,5,"[0, 12, 1, 5]",4,10,"[4, 6, 8, 9, 20, 21, 23, 27, 28, 29]",152.8950291,7312,1031,1,5,9,1.1708231454516806
undo,13,20,0,0,0,21,"[0, 12, 1, 5, 21]",5,8,"[4, 6, 8, 9, 20, 23, 27, 28]",107.8950291,8169,857,1,4,9,1.126197336199212
undo,13,20,0,0,0,8,"[0, 12, 1, 5, 21, 8]",6,5,"[6, 9, 23, 27, 28]",90.43077988,9012,843,1,3,9,1.140007470699913
undo,13,20,0,0,0,23,"[0, 12, 1, 5, 21, 8, 23]",7,2,"[6, 9]",45.74297394,10068,1056,1,1,9,1.1162257896627588
undo,13,20,0,0,0,9,"[0, 12, 1, 5, 21, 8, 23, 9]",8,1,[6],26.53360123,11445,1377,1,0,9,1.1086880559449597
undo,13,20,0,0,1,6,"[0, 12, 1, 5, 21, 8, 23, 9, 6]",9,0,[],3.511872362,12374,929,1,0,9,1.1186240265999328
undo,13,20,0,1,1,6,"[0, 12, 1, 5, 21, 8, 23, 9, 6]",9,0,[],3.511872362,13664,1290,1,0,9,1.1186240265999328
undo,14,24,0,0,0,0,[0],1,29,"[1, 2, 3, 4, 5, 6, 7, 8, 9, 10, 11, 12, 13, 14, 15, 16, 17, 18, 19, 20, 21, 22, 23, 24, 25, 26, 27, 28, 29]",300,129,-1,4,76,10,0.0
undo,14,24,0,0,0,14,"[0, 14]",2,27,"[1, 2, 3, 4, 5, 6, 8, 9, 10, 11, 12, 13, 15, 16, 17, 18, 19, 20, 21, 22, 23, 24, 25, 26, 27, 28, 29]",278.0455016,1783,1654,4,54,10,1.0
undo,14,24,0,0,0,10,"[0, 14, 10]",3,20,"[1, 2, 3, 4, 6, 8, 9, 11, 15, 16, 17, 19, 20, 22, 23, 24, 26, 27, 28, 29]",229.342319,2839,1056,10,99,9,1.0038790212375874
undo,14,24,0,0,0,24,"[0, 14, 10, 24]",4,14,"[1, 2, 4, 6, 8, 9, 11, 15, 16, 20, 22, 23, 28, 29]",176.0037775,4004,1165,4,26,9,1.0345598967195753
undo,14,24,0,0,0,6,"[0, 14, 10, 24, 6]",5,11,"[1, 8, 9, 11, 15, 16, 20, 22, 23, 28, 29]",138.6674681,4817,813,4,19,9,1.4136213103786264
undo,14,24,0,0,0,8,"[0, 14, 10, 24, 6, 8]",6,5,"[15, 16, 22, 23, 28]",77.83984283,5833,1016,4,4,9,2.0175546172818692
undo,14,24,0,0,0,22,"[0, 14, 10, 24, 6, 8, 22]",7,3,"[15, 16, 28]",64.42343497,6469,636,2,1,9,2.235490370965466
undo,14,24,0,0,0,16,"[0, 14, 10, 24, 6, 8, 22, 16]",8,1,[15],46.39567859,7163,694,1,0,9,2.829024350414776
undo,14,24,0,0,1,15,"[0, 14, 10, 24, 6, 8, 22, 16, 15]",9,0,[],15.98186594,7949,786,1,0,9,2.374331903190176
undo,14,24,0,1,1,15,"[0, 14, 10, 24, 6, 8, 22, 16, 15]",9,0,[],15.98186594,9413,1464,1,0,9,2.374331903190176
undo,15,12,0,0,0,0,[0],1,29,"[1, 2, 3, 4, 5, 6, 7, 8, 9, 10, 11, 12, 13, 14, 15, 16, 17, 18, 19, 20, 21, 22, 23, 24, 25, 26, 27, 28, 29]",300,132,-1,2,32,9,0.0
undo,15,12,0,0,0,6,"[0, 6]",2,28,"[1, 2, 3, 4, 5, 7, 8, 9, 10, 11, 12, 13, 14, 15, 16, 17, 18, 19, 20, 21, 22, 23, 24, 25, 26, 27, 28, 29]",283.5987805,2519,2387,2,18,9,1.0
undo,15,12,0,0,0,22,"[0, 6, 22]",3,13,"[2, 4, 5, 7, 12, 13, 14, 16, 19, 23, 24, 25, 27]",182.0015365,5662,3143,2,9,9,1.3408050629015749
undo,15,12,0,0,0,16,"[0, 6, 22, 16]",4,10,"[2, 4, 5, 7, 12, 14, 19, 24, 25, 27]",161.0015365,6409,747,2,7,9,1.5323672374573825
undo,15,12,0,0,0,4,"[0, 6, 22, 16, 4]",5,6,"[12, 14, 19, 24, 25, 27]",126.7962737,7093,684,2,5,9,1.38665076120851
undo,15,12,0,0,0,12,"[0, 6, 22, 16, 4, 12]",6,3,"[14, 24, 27]",84.6062275,7826,733,2,3,9,1.3036701691846924
undo,15,12,0,0,0,27,"[0, 6, 22, 16, 4, 12, 27]",7,2,"[14, 24]",60.25463618,8496,670,2,0,9,1.401636252408167
undo,15,12,0,0,0,14,"[0, 6, 22, 16, 4, 12, 27, 14]",8,1,[24],31.60153862,10912,2416,1,0,9,1.4415448388010776
undo,15,12,0,0,1,24,"[0, 6, 22, 16, 4, 12, 27, 14, 24]",9,0,[],14.39688808,12872,1960,1,0,9,1.6003250998053893
undo,15,12,0,1,1,24,"[0, 6, 22, 16, 4, 12, 27, 14, 24]",9,0,[],14.39688808,14547,1675,1,0,9,1.6003250998053893
undo,16,7,0,0,0,0,[0],1,29,"[1, 2, 3, 4, 5, 6, 7, 8, 9, 10, 11, 12, 13, 14, 15, 16, 17, 18, 19, 20, 21, 22, 23, 24, 25, 26, 27, 28, 29]",300,163,-1,3,79,9,0.0
undo,16,7,0,0,0,15,"[0, 15]",2,19,"[2, 4, 5, 6, 7, 8, 9, 10, 13, 14, 16, 18, 19, 20, 21, 23, 25, 27, 28]",230.9348134,4032,3869,2,38,9,1.0
undo,16,7,0,0,0,6,"[0, 15, 6]",3,18,"[2, 4, 5, 7, 8, 9, 10, 13, 14, 16, 18, 19, 20, 21, 23, 25, 27, 28]",205.854941,4825,793,2,36,9,1.366719602896943
undo,16,7,0,0,0,4,"[0, 15, 6, 4]",4,8,"[2, 7, 13, 16, 18, 19, 20, 25]",123.3625171,5765,940,8,24,8,1.2578516160075839
undo,16,7,0,0,0,25,"[0, 15, 6, 4, 25]",5,6,"[7, 13, 16, 18, 19, 20]",98.62388334,6599,834,2,4,8,1.7007244483303274
undo,16,7,0,0,0,18,"[0, 15, 6, 4, 25, 18]",6,3,"[7, 19, 20]",70.30427883,7566,967,1,2,8,1.604342767269379
undo,16,7,0,0,0,20,"[0, 15, 6, 4, 25, 18, 20]",7,1,[7],57.49803035,8865,1299,1,0,8,1.6176146896453236
undo,16,7,0,0,1,7,"[0, 15, 6, 4, 25, 18, 20, 7]",8,0,[],17.00111689,9698,833,1,0,8,1.5469733004173831
undo,16,7,0,1,1,7,"[0, 15, 6, 4, 25, 18, 20, 7]",8,0,[],17.00111689,10663,965,1,0,8,1.5469733004173831
undo,17,27,0,0,0,0,[0],1,26,"[1, 3, 5, 6, 7, 8, 9, 10, 11, 12, 13, 14, 15, 16, 17, 18, 19, 21, 22, 23, 24, 25, 26, 27, 28, 29]",300,131,-1,13,578,11,0.0
undo,17,27,0,0,0,15,"[0, 15]",2,24,"[1, 3, 5, 6, 7, 8, 9, 10, 11, 12, 13, 14, 16, 17, 18, 19, 21, 22, 23, 24, 25, 26, 27, 29]",263.7508621,1704,1573,6,219,11,1.0
undo,17,27,0,0,0,24,"[0, 15, 24]",3,20,"[1, 5, 6, 7, 8, 9, 10, 12, 13, 14, 16, 17, 18, 19, 21, 23, 25, 26, 27, 29]",246.5462115,2664,960,6,130,11,1.130933077698322
undo,17,27,0,0,0,17,"[0, 15, 24, 17]",4,15,"[1, 6, 8, 10, 12, 13, 14, 16, 18, 19, 23, 25, 26, 27, 29]",229.9932662,3785,1121,4,60,11,1.1285538435963374
undo,17,27,0,0,0,12,"[0, 15, 24, 17, 12]",5,14,"[1, 6, 8, 10, 13, 14, 16, 18, 19, 23, 25, 26, 27, 29]",218.8129263,4428,643,2,32,11,1.2561880288755216
undo,17,27,0,0,0,10,"[0, 15, 24, 17, 12, 10]",6,11,"[1, 8, 13, 14, 18, 19, 23, 25, 26, 27, 29]",207.7675653,5170,742,2,28,11,1.2228289337766665
undo,17,27,0,0,0,13,"[0, 15, 24, 17, 12, 10, 13]",7,9,"[1, 8, 14, 18, 19, 23, 26, 27, 29]",167.9178476,5955,785,2,18,11,1.3421291994761178
undo,17,27,0,0,0,19,"[0, 15, 24, 17, 12, 10, 13, 19]",8,5,"[1, 8, 14, 23, 29]",131.6825057,7088,1133,2,6,11,1.294749956153846
undo,17,27,0,0,0,8,"[0, 15, 24, 17, 12, 10, 13, 19, 8]",9,3,"[14, 23, 29]",116.816437,7785,697,2,1,11,1.3554286578836865
undo,17,27,0,0,1,23,"[0, 15, 24, 17, 12, 10, 13, 19, 8, 23]",10,0,[],45.97859399,13357,5572,1,0,10,3.3397859539241304
undo,17,27,1,0,0,8,"[0, 15, 24, 17, 12, 10, 13, 19, 8]",9,3,"[14, 23, 29]",116.816437,15849,2492,2,1,11,1.3554286578836865
undo,17,27,0,0,0,29,"[0, 15, 24, 17, 12, 10, 13, 19, 8, 29]",10,1,[14],57.61339652,17785,1936,1,0,11,1.248354519573802
undo,17,27,0,0,1,14,"[0, 15, 24, 17, 12, 10, 13, 19, 8, 29, 14]",11,0,[],13.31892734,18918,1133,1,0,11,1.562811097555156
undo,17,27,0,1,1,14,"[0, 15, 24, 17, 12, 10, 13, 19, 8, 29, 14]",11,0,[],13.31892734,20782,1864,1,0,11,1.562811097555156
undo,18,14,0,0,0,0,[0],1,29,"[1, 2, 3, 4, 5, 6, 7, 8, 9, 10, 11, 12, 13, 14, 15, 16, 17, 18, 19, 20, 21, 22, 23, 24, 25, 26, 27, 28, 29]",300,162,-1,8,157,10,0.0
undo,18,14,0,0,0,22,"[0, 22]",2,24,"[1, 2, 3, 4, 6, 7, 8, 9, 10, 11, 13, 15, 17, 18, 19, 20, 21, 23, 24, 25, 26, 27, 28, 29]",254.745166,3469,3307,1,39,8,1.0
undo,18,14,0,0,0,20,"[0, 22, 20]",3,14,"[1, 3, 8, 9, 10, 13, 15, 17, 18, 19, 21, 27, 28, 29]",188.8209671,4305,836,14,24,7,1.7384461316672633
undo,18,14,0,0,0,13,"[0, 22, 20, 13]",4,3,"[15, 17, 28]",131.3318377,5171,866,6,0,7,1.5317653442980443
undo,18,14,0,0,0,28,"[0, 22, 20, 13, 28]",5,2,"[15, 17]",65.04458402,6155,984,2,0,7,2.3943898734684645
undo,18,14,0,0,0,17,"[0, 22, 20, 13, 28, 17]",6,1,[15],51.59095998,6809,654,1,0,7,2.298507764201375
undo,18,14,0,0,1,15,"[0, 22, 20, 13, 28, 17, 15]",7,0,[],26.41160335,7769,960,1,0,7,3.28458516105791
undo,18,14,0,1,1,15,"[0, 22, 20, 13, 28, 17, 15]",7,0,[],26.41160335,9813,2044,1,0,7,3.28458516105791
undo,19,11,0,0,0,0,[0],1,25,"[1, 2, 3, 4, 5, 6, 8, 9, 10, 11, 12, 13, 14, 15, 16, 17, 18, 19, 20, 22, 23, 25, 26, 27, 28]",300,130,-1,6,374,12,0.0
undo,19,11,0,0,0,1,"[0, 1]",2,24,"[2, 3, 4, 5, 6, 8, 9, 10, 11, 12, 13, 14, 15, 16, 17, 18, 19, 20, 22, 23, 25, 26, 27, 28]",264.6446609,2567,2437,6,217,12,1.0
undo,19,11,0,0,0,4,"[0, 1, 4]",3,17,"[2, 5, 6, 8, 9, 11, 12, 13, 15, 17, 18, 20, 22, 23, 25, 27, 28]",218.9390814,3316,749,10,120,10,1.1253035413524424
undo,19,11,1,0,0,1,"[0, 1]",2,24,"[2, 3, 4, 5, 6, 8, 9, 10, 11, 12, 13, 14, 15, 16, 17, 18, 19, 20, 22, 23, 25, 26, 27, 28]",264.6446609,6212,2896,6,217,12,1.0
undo,19,11,0,0,0,18,"[0, 1, 18]",3,19,"[2, 4, 5, 6, 8, 9, 11, 12, 14, 15, 16, 17, 19, 20, 22, 23, 25, 27, 28]",212.3187591,8650,2438,6,161,12,1.3884463804898786
undo,19,11,0,0,0,27,"[0, 1, 18, 27]",4,18,"[2, 4, 5, 6, 8, 9, 11, 12, 14, 15, 16, 17, 19, 20, 22, 23, 25, 28]",188.4650382,9232,582,6,155,12,1.3600813284083875
undo,19,11,0,0,0,8,"[0, 1, 18, 27, 8]",5,11,"[2, 5, 6, 11, 12, 15, 17, 19, 22, 25, 28]",118.2510795,10308,1076,4,75,12,1.2516561493067806
undo,19,11,0,0,0,17,"[0, 1, 18, 27, 8, 17]",6,10,"[2, 5, 6, 11, 12, 15, 19, 22, 25, 28]",103.9332585,11119,811,4,40,12,1.3330781007673067
undo,19,11,0,0,0,15,"[0, 1, 18, 27, 8, 17, 15]",7,7,"[2, 5, 11, 12, 19, 22, 28]",91.28414782,11734,615,4,35,12,1.3305073448996472
undo,19,11,0,0,0,11,"[0, 1, 18, 27, 8, 17, 15, 11]",8,5,"[2, 5, 19, 22, 28]",73.17337754,12367,633,4,17,12,1.308363545391271
undo,19,11,0,0,0,28,"[0, 1, 18, 27, 8, 17, 15, 11, 28]",9,3,"[2, 5, 22]",53.7568897,13505,1138,3,3,12,1.4249903205603536
undo,19,11,0,0,0,22,"[0, 1, 18, 27, 8, 17, 15, 11, 28, 22]",10,2,"[2, 5]",35.37211339,14332,827,1,1,12,1.4036096621223366
undo,19,11,0,0,0,2,"[0, 1, 18, 27, 8, 17, 15, 11, 28, 22, 2]",11,1,[5],25.32223777,15057,725,1,0,12,1.5389136316041532
undo,19,11,0,0,1,5,"[0, 1, 18, 27, 8, 17, 15, 11, 28, 22, 2, 5]",12,0,[],8.322237772,16067,1010,1,0,12,1.792811182518765
undo,19,11,0,1,1,5,"[0, 1, 18, 27, 8, 17, 15, 11, 28, 22, 2, 5]",12,0,[],8.322237772,18780,2713,1,0,12,1.792811182518765
undo,20,19,0,0,0,0,[0],1,29,"[1, 2, 3, 4, 5, 6, 7, 8, 9, 10, 11, 12, 13, 14, 15, 16, 17, 18, 19, 20, 21, 22, 23, 24, 25, 26, 27, 28, 29]",300,131,-1,12,149,8,0.0
undo,20,19,0,0,0,29,"[0, 29]",2,28,"[1, 2, 3, 4, 5, 6, 7, 8, 9, 10, 11, 12, 13, 14, 15, 16, 17, 18, 19, 20, 21, 22, 23, 24, 25, 26, 27, 28]",265.0715016,3857,3726,12,120,8,1.0
undo,20,19,0,0,0,9,"[0, 29, 9]",3,17,"[1, 4, 5, 6, 7, 10, 11, 12, 13, 14, 19, 20, 21, 22, 24, 27, 28]",181.7108394,4764,907,11,65,8,1.0375842971861238
undo,20,19,0,0,0,6,"[0, 29, 9, 6]",4,12,"[4, 7, 10, 11, 13, 14, 20, 21, 22, 24, 27, 28]",140.2741407,5724,960,11,34,8,1.0389786364356892
undo,20,19,0,0,0,28,"[0, 29, 9, 6, 28]",5,5,"[4, 11, 14, 22, 27]",89.18598161,6425,701,2,4,8,1.2864082671854424
undo,20,19,0,0,0,4,"[0, 29, 9, 6, 28, 4]",6,4,"[11, 14, 22, 27]",78.00564173,7054,629,2,2,8,1.3470045407445053
undo,20,19,0,0,0,14,"[0, 29, 9, 6, 28, 4, 14]",7,1,[11],27.99564273,7920,866,1,0,8,1.3006971582050546
undo,20,19,0,0,1,11,"[0, 29, 9, 6, 28, 4, 14, 11]",8,0,[],17.1789889,8645,725,1,0,8,1.289914895833058
undo,20,19,0,1,1,11,"[0, 29, 9, 6, 28, 4, 14, 11]",8,0,[],17.1789889,9665,1020,1,0,8,1.289914895833058
undo,21,16,0,0,0,0,[0],1,29,"[1, 2, 3, 4, 5, 6, 7, 8, 9, 10, 11, 12, 13, 14, 15, 16, 17, 18, 19, 20, 21, 22, 23, 24, 25, 26, 27, 28, 29]",300,130,-1,13,161,9,0.0
undo,21,16,0,0,0,28,"[0, 28]",2,27,"[1, 2, 3, 4, 5, 7, 8, 9, 10, 11, 12, 13, 14, 15, 16, 17, 18, 19, 20, 21, 22, 23, 24, 25, 26, 27, 29]",284.3475242,1749,1619,11,92,9,1.0
undo,21,16,0,0,0,17,"[0, 28, 17]",3,26,"[1, 2, 3, 4, 5, 7, 8, 9, 10, 11, 12, 13, 14, 15, 16, 18, 19, 20, 21, 22, 23, 24, 25, 26, 27, 29]",219.1555001,5087,3338,10,46,9,1.3773866384707543
undo,21,16,0,0,0,16,"[0, 28, 17, 16]",4,25,"[1, 2, 3, 4, 5, 7, 8, 9, 10, 11, 12, 13, 14, 15, 18, 19, 20, 21, 22, 23, 24, 25, 26, 27, 29]",190.8358956,5803,716,10,34,9,1.3209953830681203
undo,21,16,0,0,0,8,"[0, 28, 17, 16, 8]",5,12,"[3, 4, 5, 9, 12, 13, 15, 19, 20, 21, 25, 29]",142.4623491,7054,1251,6,19,9,1.2700932705506198
undo,21,16,0,0,0,20,"[0, 28, 17, 16, 8, 20]",6,6,"[4, 5, 9, 12, 15, 25]",84.6869218,8008,954,4,4,9,1.1899382910703262
undo,21,16,0,0,0,25,"[0, 28, 17, 16, 8, 20, 25]",7,3,"[5, 9, 15]",72.03781116,8472,464,2,2,9,1.2372268181049477
undo,21,16,0,0,0,9,"[0, 28, 17, 16, 8, 20, 25, 9]",8,2,"[5, 15]",59.23156268,9038,566,2,0,9,1.221922950237529
undo,21,16,0,0,1,15,"[0, 28, 17, 16, 8, 20, 25, 9, 15]",9,0,[],20.334262,10685,1647,1,0,9,1.318239760375411
undo,21,16,0,1,1,15,"[0, 28, 17, 16, 8, 20, 25, 9, 15]",9,0,[],20.334262,11563,878,1,0,9,1.318239760375411
undo,22,3,0,0,0,0,[0],1,29,"[1, 2, 3, 4, 5, 6, 7, 8, 9, 10, 11, 12, 13, 14, 15, 16, 17, 18, 19, 20, 21, 22, 23, 24, 25, 26, 27, 28, 29]",300,130,-1,34,427,10,0.0
undo,22,3,0,0,0,8,"[0, 8]",2,28,"[1, 2, 3, 4, 5, 6, 7, 9, 10, 11, 12, 13, 14, 15, 16, 17, 18, 19, 20, 21, 22, 23, 24, 25, 26, 27, 28, 29]",239.9666759,2435,2305,1,54,10,1.0
undo,22,3,0,0,0,24,"[0, 8, 24]",3,23,"[1, 2, 3, 4, 5, 6, 7, 10, 11, 12, 14, 15, 16, 17, 18, 19, 20, 21, 22, 25, 26, 27, 28]",227.8011509,2976,541,1,50,10,1.2267083825981846
undo,22,3,0,0,0,17,"[0, 8, 24, 17]",4,11,"[3, 4, 7, 10, 14, 15, 16, 19, 20, 21, 27]",158.4469873,4197,1221,1,18,10,1.3836579788002414
undo,22,3,0,0,0,20,"[0, 8, 24, 17, 20]",5,9,"[3, 4, 7, 10, 14, 15, 16, 19, 21]",145.7978767,4802,605,1,14,10,1.3620097615632467
undo,22,3,0,0,0,3,"[0, 8, 24, 17, 20, 3]",6,5,"[4, 10, 14, 19, 21]",125.4017986,5534,732,1,11,10,1.3956695218398405
undo,22,3,0,0,0,19,"[0, 8, 24, 17, 20, 3, 19]",7,4,"[4, 10, 14, 21]",88.06548922,6346,812,1,4,10,1.4360605238855817
undo,22,3,0,0,0,14,"[0, 8, 24, 17, 20, 3, 19, 14]",8,3,"[4, 10, 21]",61.13966519,7227,881,3,0,9,1.8558732696089721
undo,22,3,0,0,1,21,"[0, 8, 24, 17, 20, 3, 19, 14, 21]",9,0,[],34.23241709,8101,874,1,0,9,1.7283526006069152
undo,22,3,0,1,1,21,"[0, 8, 24, 17, 20, 3, 19, 14, 21]",9,0,[],34.23241709,14581,6480,1,0,9,1.7283526006069152
basic,23,40,0,0,0,0,[0],1,29,"[1, 2, 3, 4, 5, 6, 7, 8, 9, 10, 11, 12, 13, 14, 15, 16, 17, 18, 19, 20, 21, 22, 23, 24, 25, 26, 27, 28, 29]",300,181,-1,8,191,9,0.0
basic,23,40,0,0,0,1,"[0, 1]",2,18,"[2, 5, 6, 7, 8, 9, 10, 11, 13, 15, 17, 18, 19, 21, 22, 23, 27, 29]",247.8463808,2187,2006,4,80,9,1.0
basic,23,40,0,0,0,6,"[0, 1, 6]",3,17,"[2, 5, 7, 8, 9, 10, 11, 13, 15, 17, 18, 19, 21, 22, 23, 27, 29]",227.7466295,4821,2634,4,74,9,1.0459427008232034
basic,23,40,0,0,0,21,"[0, 1, 6, 21]",4,8,"[2, 5, 9, 17, 18, 19, 22, 23]",175.7754837,6318,1497,4,25,9,1.0308822257404064
basic,23,40,0,0,0,9,"[0, 1, 6, 21, 9]",5,6,"[2, 5, 18, 19, 22, 23]",130.0699041,7206,888,4,12,9,1.377861912961129
basic,23,40,0,0,0,18,"[0, 1, 6, 21, 9, 18]",6,5,"[2, 5, 19, 22, 23]",113.5169588,8264,1058,4,4,9,1.5742712168661408
basic,23,40,0,0,0,5,"[0, 1, 6, 21, 9, 18, 5]",7,3,"[19, 22, 23]",81.94165198,9104,840,2,1,9,1.7730665063055515
basic,23,40,0,0,0,23,"[0, 1, 6, 21, 9, 18, 5, 23]",8,1,[19],53.63970859,9853,749,1,0,9,2.597442759912231
basic,23,40,0,0,1,19,"[0, 1, 6, 21, 9, 18, 5, 23, 19]",9,0,[],21.68661797,10634,781,1,0,9,2.7128328554069565
basic,23,40,0,1,1,19,"[0, 1, 6, 21, 9, 18, 5, 23, 19]",9,0,[],21.68661797,11748,1114,1,0,9,2.7128328554069565
basic,24,20,0,0,0,0,[0],1,21,"[1, 2, 3, 4, 5, 6, 7, 8, 9, 12, 17, 18, 20, 21, 22, 23, 25, 26, 27, 28, 29]",300,130,-1,1,9,9,0.0
basic,24,20,0,0,0,12,"[0, 12]",2,20,"[1, 2, 3, 4, 5, 6, 7, 8, 9, 17, 18, 20, 21, 22, 23, 25, 26, 27, 28, 29]",271.5570747,3851,3721,1,8,9,1.0
basic,24,20,0,0,0,1,"[0, 12, 1]",3,12,"[3, 4, 5, 6, 8, 9, 20, 21, 23, 27, 28, 29]",189.5692707,4801,950,1,6,9,1.0757997779162911
basic,24,20,0,0,0,5,"[0, 12, 1, 5]",4,10,"[4, 6, 8, 9, 20, 21, 23, 27, 28, 29]",152.8950291,5612,811,1,5,9,1.1708231454516806
basic,24,20,0,0,0,28,"[0, 12, 1, 5, 28]",5,4,"[8, 9, 21, 23]",82.8593239,6935,1323,2,2,7,1.1313554119713172
basic,24,20,0,0,0,21,"[0, 12, 1, 5, 28, 21]",6,1,[8],46.61018598,7716,781,1,0,7,1.4854739689057037
basic,24,20,0,0,1,8,"[0, 12, 1, 5, 28, 21, 8]",7,0,[],29.14593678,9021,1305,1,0,7,1.473382662603891
basic,24,20,0,1,1,8,"[0, 12, 1, 5, 28, 21, 8]",7,0,[],29.14593678,9930,909,1,0,7,1.473382662603891
basic,25,23,0,0,0,0,[0],1,28,"[1, 2, 3, 4, 5, 6, 7, 8, 9, 10, 11, 12, 13, 14, 15, 16, 17, 18, 19, 20, 21, 22, 23, 25, 26, 27, 28, 29]",300,129,-1,76,2626,10,0.0
basic,25,23,0,0,0,22,"[0, 22]",2,24,"[1, 2, 3, 5, 6, 7, 8, 9, 10, 11, 12, 13, 14, 15, 17, 18, 19, 20, 21, 23, 25, 26, 27, 29]",210.5013967,2693,2564,15,1362,10,1.0
basic,25,23,0,0,0,13,"[0, 22, 13]",3,14,"[1, 2, 5, 6, 7, 8, 9, 10, 12, 14, 18, 21, 27, 29]",168.3113504,4233,1540,14,522,10,1.1898173563652046
basic,25,23,0,0,0,12,"[0, 22, 13, 12]",4,11,"[1, 2, 6, 7, 9, 10, 14, 18, 21, 27, 29]",156.2283045,5126,893,12,166,10,1.1727968780218219
basic,25,23,0,0,0,9,"[0, 22, 13, 12, 9]",5,10,"[1, 2, 6, 7, 10, 14, 18, 21, 27, 29]",141.9104834,6049,923,5,49,10,1.2100380646101494
basic,25,23,0,0,0,14,"[0, 22, 13, 12, 9, 14]",6,8,"[1, 2, 6, 7, 10, 18, 27, 29]",131.4701769,6899,850,2,19,10,1.1961799245073135
basic,25,23,0,0,0,2,"[0, 22, 13, 12, 9, 14, 2]",7,6,"[6, 7, 10, 18, 27, 29]",116.6041081,7884,985,1,8,10,1.343965446549325
basic,25,23,0,0,0,6,"[0, 22, 13, 12, 9, 14, 2, 6]",8,3,"[18, 27, 29]",98.16501923,8622,738,3,0,9,1.3433890277057379
basic,25,23,0,0,1,27,"[0, 22, 13, 12, 9, 14, 2, 6, 27]",9,0,[],69.86307584,9482,860,1,0,9,1.607346000085698
basic,25,23,0,1,1,27,"[0, 22, 13, 12, 9, 14, 2, 6, 27]",9,0,[],69.86307584,11213,1731,1,0,9,1.607346000085698
basic,26,39,0,0,0,0,[0],1,28,"[1, 2, 3, 4, 5, 6, 7, 9, 10, 11, 12, 13, 14, 15, 16, 17, 18, 19, 20, 21, 22, 23, 24, 25, 26, 27, 28, 29]",300,131,-1,1,30,10,0.0
basic,26,39,0,0,0,14,"[0, 14]",2,26,"[1, 2, 3, 4, 5, 6, 7, 9, 10, 12, 13, 15, 16, 17, 18, 19, 20, 21, 22, 23, 24, 25, 26, 27, 28, 29]",286.9615952,3085,2954,1,22,10,1.0
basic,26,39,0,0,0,29,"[0, 14, 29]",3,23,"[1, 2, 3, 4, 5, 6, 7, 9, 10, 12, 13, 15, 16, 17, 18, 19, 21, 22, 23, 24, 25, 26, 28]",218.9321898,4754,1669,1,21,10,1.4237768813412561
basic,26,39,0,0,0,12,"[0, 14, 29, 12]",4,16,"[1, 2, 4, 5, 7, 9, 10, 13, 15, 16, 18, 19, 22, 23, 24, 26]",158.3929463,5588,834,1,11,10,1.2085522586932163
basic,26,39,0,0,0,10,"[0, 14, 29, 12, 10]",5,11,"[1, 4, 5, 7, 15, 16, 18, 19, 22, 23, 26]",122.8823845,6502,914,1,8,10,1.4905426536315662
basic,26,39,0,0,0,7,"[0, 14, 29, 12, 10, 7]",6,6,"[1, 16, 18, 19, 22, 26]",89.46083457,7297,795,1,6,10,1.3836596018032035
basic,26,39,0,0,0,26,"[0, 14, 29, 12, 10, 7, 26]",7,3,"[16, 19, 22]",70.77929288,7984,687,1,4,10,1.4191124441944845
basic,26,39,0,0,0,22,"[0, 14, 29, 12, 10, 7, 26, 22]",8,2,"[16, 19]",53.05924773,8840,856,1,1,10,1.594793297833885
basic,26,39,0,0,0,16,"[0, 14, 29, 12, 10, 7, 26, 22, 16]",9,1,[19],18.05924773,9840,1000,1,0,10,1.48519520801471
basic,26,39,0,0,1,19,"[0, 14, 29, 12, 10, 7, 26, 22, 16, 19]",10,0,[],0.594998533,11257,1417,1,0,10,1.484277847976571
basic,26,39,0,1,1,19,"[0, 14, 29, 12, 10, 7, 26, 22, 16, 19]",10,0,[],0.594998533,12116,859,1,0,10,1.484277847976571
basic,27,15,0,0,0,0,[0],1,25,"[1, 2, 3, 4, 7, 8, 9, 10, 11, 12, 13, 14, 15, 16, 18, 20, 21, 22, 23, 24, 25, 26, 27, 28, 29]",300,129,-1,4,65,9,0.0
basic,27,15,0,0,0,21,"[0, 21]",2,17,"[1, 3, 4, 7, 8, 9, 11, 12, 13, 14, 15, 16, 22, 23, 24, 26, 27]",204.9158268,3461,3332,21,65,7,1.0
basic,27,15,0,0,0,12,"[0, 21, 12]",3,14,"[1, 3, 4, 7, 8, 9, 11, 13, 14, 15, 16, 22, 24, 27]",161.0866128,4295,834,20,39,7,1.6068212046294776
basic,27,15,0,0,0,7,"[0, 21, 12, 7]",4,10,"[3, 4, 9, 11, 13, 14, 15, 16, 22, 27]",127.8450725,5066,771,13,11,7,2.0298522511797907
basic,27,15,0,0,0,16,"[0, 21, 12, 7, 16]",5,5,"[3, 4, 11, 15, 22]",84.18731258,8533,3467,3,3,7,1.8904046427013528
basic,27,15,0,0,0,11,"[0, 21, 12, 7, 16, 11]",6,1,[3],58.16808892,9342,809,1,0,7,1.9475991988988648
basic,27,15,0,0,1,3,"[0, 21, 12, 7, 16, 11, 3]",7,0,[],46.76633467,10003,661,1,0,7,1.912955285957019
basic,27,15,0,1,1,3,"[0, 21, 12, 7, 16, 11, 3]",7,0,[],46.76633467,11646,1643,1,0,7,1.912955285957019
basic,28,44,0,0,0,0,[0],1,29,"[1, 2, 3, 4, 5, 6, 7, 8, 9, 10, 11, 12, 13, 14, 15, 16, 17, 18, 19, 20, 21, 22, 23, 24, 25, 26, 27, 28, 29]",300,130,-1,13,126,7,0.0
basic,28,44,0,0,0,11,"[0, 11]",2,18,"[4, 5, 6, 7, 8, 9, 12, 14, 16, 17, 19, 20, 22, 23, 24, 25, 26, 28]",152.7790776,5567,5437,5,34,7,1.0
basic,28,44,0,0,0,24,"[0, 11, 24]",3,13,"[4, 5, 7, 8, 9, 12, 14, 17, 20, 22, 23, 25, 28]",125.8532535,6394,827,5,23,7,1.1588941745226709
basic,28,44,0,0,0,9,"[0, 11, 24, 9]",4,7,"[4, 7, 8, 12, 14, 20, 23]",93.09657483,7200,806,2,8,7,1.3039383713641313
basic,28,44,0,0,0,4,"[0, 11, 24, 9, 4]",5,5,"[7, 12, 14, 20, 23]",73.39885923,7843,643,2,3,7,1.2901330701441578
basic,28,44,0,0,0,7,"[0, 11, 24, 9, 4, 7]",6,1,[23],42.38273439,8677,834,1,0,7,1.2468141312360979
basic,28,44,0,0,1,23,"[0, 11, 24, 9, 4, 7, 23]",7,0,[],23.27776121,10291,1614,1,0,7,1.2635191782769477
basic,28,44,0,1,1,23,"[0, 11, 24, 9, 4, 7, 23]",7,0,[],23.27776121,10815,524,1,0,7,1.2635191782769477
basic,29,32,0,0,0,0,[0],1,29,"[1, 2, 3, 4, 5, 6, 7, 8, 9, 10, 11, 12, 13, 14, 15, 16, 17, 18, 19, 20, 21, 22, 23, 24, 25, 26, 27, 28, 29]",300,131,-1,17,359,10,0.0
basic,29,32,0,0,0,15,"[0, 15]",2,24,"[2, 3, 4, 5, 6, 7, 8, 9, 10, 11, 12, 13, 14, 16, 17, 19, 20, 22, 23, 24, 25, 26, 27, 28]",214.6185032,3907,3776,11,153,9,1.0
basic,29,32,0,0,0,28,"[0, 15, 28]",3,21,"[2, 3, 5, 7, 8, 9, 10, 11, 12, 13, 14, 16, 17, 19, 20, 22, 23, 24, 25, 26, 27]",203.2167489,4694,787,11,119,9,1.000160051986942
basic,29,32,0,0,0,12,"[0, 15, 28, 12]",4,19,"[2, 3, 5, 7, 8, 9, 10, 11, 13, 16, 17, 19, 20, 22, 23, 24, 25, 26, 27]",184.243083,5521,827,8,71,9,1.0281484763748023
basic,29,32,0,0,0,16,"[0, 15, 28, 12, 16]",5,17,"[2, 3, 5, 7, 8, 9, 10, 11, 13, 17, 19, 20, 22, 23, 24, 26, 27]",168.5906071,6352,831,6,38,9,1.1190771370096
basic,29,32,0,0,0,22,"[0, 15, 28, 12, 16, 22]",6,10,"[2, 3, 5, 8, 9, 10, 11, 17, 20, 27]",134.7527585,7222,870,4,16,9,1.1702311155319893
basic,29,32,0,0,0,9,"[0, 15, 28, 12, 16, 22, 9]",7,6,"[2, 8, 10, 17, 20, 27]",112.5491552,8001,779,2,4,9,1.2381424719932013
basic,29,32,0,0,0,8,"[0, 15, 28, 12, 16, 22, 9, 8]",8,1,[20],67.42709849,8843,842,1,0,9,1.187013645273504
basic,29,32,0,0,1,20,"[0, 15, 28, 12, 16, 22, 9, 8, 20]",9,0,[],17.09818036,9785,942,1,0,9,1.3986201165175596
basic,29,32,0,1,1,20,"[0, 15, 28, 12, 16, 22, 9, 8, 20]",9,0,[],17.09818036,10747,962,1,0,9,1.3986201165175596
basic,30,41,0,0,0,0,[0],1,29,"[1, 2, 3, 4, 5, 6, 7, 8, 9, 10, 11, 12, 13, 14, 15, 16, 17, 18, 19, 20, 21, 22, 23, 24, 25, 26, 27, 28, 29]",300,130,-1,1,143,10,0.0
basic,30,41,0,0,0,13,"[0, 13]",2,23,"[1, 2, 3, 5, 6, 7, 9, 10, 11, 12, 14, 15, 17, 18, 19, 20, 21, 22, 24, 25, 26, 27, 28]",258.2747079,1541,1411,1,55,10,1.0
basic,30,41,0,0,0,28,"[0, 13, 28]",3,22,"[1, 2, 3, 5, 6, 7, 9, 10, 11, 12, 14, 15, 17, 18, 19, 20, 21, 22, 24, 25, 26, 27]",223.7928286,2375,834,1,39,10,1.895724242592676
basic,30,41,0,0,0,5,"[0, 13, 28, 5]",4,19,"[1, 2, 3, 6, 9, 10, 11, 12, 14, 15, 17, 18, 19, 20, 21, 22, 24, 25, 27]",210.1913581,2958,583,1,34,10,2.861541269398273
basic,30,41,0,0,0,3,"[0, 13, 28, 5, 3]",5,16,"[1, 2, 6, 9, 10, 12, 14, 17, 18, 19, 20, 21, 22, 24, 25, 27]",175.3632086,3850,892,1,22,10,3.1455488489005883
basic,30,41,0,0,0,21,"[0, 13, 28, 5, 3, 21]",6,14,"[1, 2, 6, 9, 10, 12, 14, 17, 18, 19, 20, 22, 25, 27]",143.2228912,4636,786,13,11,9,3.207558429289677
basic,30,41,0,0,0,9,"[0, 13, 28, 5, 3, 21, 9]",7,6,"[1, 2, 10, 12, 14, 17]",93.85691102,5730,1094,7,4,9,2.5050148501792275
basic,30,41,0,0,0,2,"[0, 13, 28, 5, 3, 21, 9, 2]",8,5,"[1, 10, 12, 14, 17]",81.77386505,6619,889,5,0,9,2.4119643847713177
basic,30,41,0,0,1,17,"[0, 13, 28, 5, 3, 21, 9, 2, 17]",9,0,[],49.21622385,7596,977,1,0,9,3.9563478735796007
basic,30,41,0,1,1,17,"[0, 13, 28, 5, 3, 21, 9, 2, 17]",9,0,[],49.21622385,9547,1951,1,0,9,3.9563478735796007
basic,31,43,0,0,0,0,[0],1,23,"[1, 2, 3, 4, 5, 6, 7, 9, 10, 11, 12, 14, 15, 16, 17, 19, 20, 21, 22, 23, 25, 27, 29]",300,131,-1,16,556,12,0.0
basic,31,43,0,0,0,29,"[0, 29]",2,22,"[1, 2, 3, 4, 5, 6, 7, 9, 10, 11, 12, 14, 15, 16, 17, 19, 20, 21, 22, 23, 25, 27]",277.909278,1911,1780,16,520,12,1.0
basic,31,43,0,0,0,20,"[0, 29, 20]",3,20,"[1, 2, 3, 4, 6, 7, 9, 10, 11, 12, 14, 15, 16, 17, 19, 21, 22, 23, 25, 27]",254.4785289,2644,733,15,422,12,1.082311746871282
basic,31,43,0,0,0,16,"[0, 29, 20, 16]",4,19,"[1, 2, 3, 4, 6, 7, 9, 10, 11, 12, 14, 15, 17, 19, 21, 22, 23, 25, 27]",231.8511119,3401,757,15,389,12,1.215201926898219
basic,31,43,0,0,0,11,"[0, 29, 20, 16, 11]",5,17,"[1, 2, 3, 4, 6, 7, 9, 10, 12, 14, 15, 17, 19, 21, 22, 23, 25]",196.7227758,7480,4079,12,188,12,1.1349145516483516
basic,31,43,0,0,0,6,"[0, 29, 20, 16, 11, 6]",6,15,"[1, 2, 3, 4, 7, 10, 12, 14, 15, 17, 19, 21, 22, 23, 25]",176.1072477,8312,832,10,100,12,1.123330873754209
basic,31,43,0,0,0,22,"[0, 29, 20, 16, 11, 6, 22]",7,10,"[1, 3, 4, 7, 12, 14, 15, 19, 23, 25]",127.0664483,9194,882,2,36,12,1.449950324670612
basic,31,43,0,0,0,3,"[0, 29, 20, 16, 11, 6, 22, 3]",8,6,"[1, 7, 12, 15, 19, 25]",92.35333841,10084,890,7,5,11,1.8639706189015648
basic,31,43,0,0,0,12,"[0, 29, 20, 16, 11, 6, 22, 3, 12]",9,4,"[1, 15, 19, 25]",79.35333841,10793,709,3,2,11,2.23194460473222
basic,31,43,0,0,0,15,"[0, 29, 20, 16, 11, 6, 22, 3, 12, 15]",10,2,"[19, 25]",60.0401305,11612,819,2,0,11,2.9022685123229004
basic,31,43,0,0,1,25,"[0, 29, 20, 16, 11, 6, 22, 3, 12, 15, 25]",11,0,[],37.3685624,12400,788,1,0,11,3.3114742948871525
basic,31,43,0,1,1,25,"[0, 29, 20, 16, 11, 6, 22, 3, 12, 15, 25]",11,0,[],37.3685624,21664,9264,1,0,11,3.3114742948871525
basic,32,28,0,0,0,0,[0],1,27,"[1, 2, 3, 4, 5, 6, 7, 8, 9, 10, 11, 12, 13, 14, 15, 16, 17, 18, 19, 20, 22, 23, 25, 26, 27, 28, 29]",300,130,-1,2,96,9,0.0
basic,32,28,0,0,0,3,"[0, 3]",2,26,"[1, 2, 4, 5, 6, 7, 8, 9, 10, 11, 12, 13, 14, 15, 16, 17, 18, 19, 20, 22, 23, 25, 26, 27, 28, 29]",251.0817008,2277,2147,1,64,9,1.0
basic,32,28,0,0,0,5,"[0, 3, 5]",3,20,"[2, 4, 6, 7, 8, 9, 10, 11, 12, 13, 14, 15, 18, 19, 20, 23, 25, 26, 28, 29]",166.9865166,5277,3000,1,34,9,1.0203769473612083
basic,32,28,0,0,0,26,"[0, 3, 5, 26]",4,13,"[2, 4, 7, 8, 9, 12, 13, 14, 18, 19, 20, 25, 28]",134.2298379,6750,1473,1,28,9,1.0315203228799597
basic,32,28,0,0,0,19,"[0, 3, 5, 26, 19]",5,7,"[2, 7, 9, 12, 13, 14, 18]",93.22983789,7537,787,1,17,9,1.1324645362297356
basic,32,28,0,0,0,7,"[0, 3, 5, 26, 19, 7]",6,5,"[2, 12, 13, 14, 18]",65.49898864,8907,1370,1,6,9,1.1971194919020265
basic,32,28,0,0,0,12,"[0, 3, 5, 26, 19, 7, 12]",7,2,"[13, 18]",52.3460422,9484,577,1,1,9,1.2020762147848982
basic,32,28,0,0,0,13,"[0, 3, 5, 26, 19, 7, 12, 13]",8,1,[18],35.14139167,10263,779,1,0,9,1.39005144078531
basic,32,28,0,0,1,18,"[0, 3, 5, 26, 19, 7, 12, 13, 18]",9,0,[],10.72828044,10938,675,1,0,9,1.738787343626007
basic,32,28,0,1,1,18,"[0, 3, 5, 26, 19, 7, 12, 13, 18]",9,0,[],10.72828044,11814,876,1,0,9,1.738787343626007
basic,33,3,0,0,0,0,[0],1,29,"[1, 2, 3, 4, 5, 6, 7, 8, 9, 10, 11, 12, 13, 14, 15, 16, 17, 18, 19, 20, 21, 22, 23, 24, 25, 26, 27, 28, 29]",300,129,-1,34,427,10,0.0
basic,33,3,0,0,0,7,"[0, 7]",2,28,"[1, 2, 3, 4, 5, 6, 8, 9, 10, 11, 12, 13, 14, 15, 16, 17, 18, 19, 20, 21, 22, 23, 24, 25, 26, 27, 28, 29]",278.8103799,3168,3039,24,215,10,1.0
basic,33,3,0,0,0,8,"[0, 7, 8]",3,24,"[1, 2, 3, 4, 5, 6, 10, 11, 12, 13, 14, 15, 16, 17, 18, 19, 20, 21, 22, 24, 25, 26, 27, 28]",222.837172,4049,881,16,114,10,1.2853332575451413
basic,33,3,0,0,0,24,"[0, 7, 8, 24]",4,21,"[1, 3, 4, 5, 6, 10, 11, 12, 14, 15, 16, 17, 18, 19, 20, 21, 22, 25, 26, 27, 28]",210.671647,4601,552,16,91,10,1.5177505014936548
basic,33,3,0,0,0,17,"[0, 7, 8, 24, 17]",5,9,"[3, 4, 10, 14, 15, 16, 19, 20, 21]",141.3174834,5908,1307,7,26,10,1.5510961300062232
basic,33,3,0,0,0,20,"[0, 7, 8, 24, 17, 20]",6,7,"[3, 4, 10, 14, 16, 19, 21]",128.6683728,6728,820,7,14,10,1.5133082717474817
basic,33,3,0,0,0,3,"[0, 7, 8, 24, 17, 20, 3]",7,5,"[4, 10, 14, 19, 21]",108.2722947,7459,731,7,4,10,1.5325960555943097
basic,33,3,0,0,0,19,"[0, 7, 8, 24, 17, 20, 3, 19]",8,3,"[10, 14, 21]",70.93598532,8838,1379,3,1,10,1.5521294182529992
basic,33,3,0,0,0,21,"[0, 7, 8, 24, 17, 20, 3, 19, 21]",9,2,"[10, 14]",58.72942971,9593,755,2,0,10,1.5690424431931145
basic,33,3,0,0,1,14,"[0, 7, 8, 24, 17, 20, 3, 19, 21, 14]",10,0,[],31.82218161,10334,741,1,0,10,2.0836613372745463
basic,33,3,0,1,1,14,"[0, 7, 8, 24, 17, 20, 3, 19, 21, 14]",10,0,[],31.82218161,11263,929,1,0,10,2.0836613372745463
basic,34,6,0,0,0,0,[0],1,29,"[1, 2, 3, 4, 5, 6, 7, 8, 9, 10, 11, 12, 13, 14, 15, 16, 17, 18, 19, 20, 21, 22, 23, 24, 25, 26, 27, 28, 29]",300,132,-1,180,4304,10,0.0
basic,34,6,0,0,0,3,"[0, 3]",2,28,"[1, 2, 4, 5, 6, 7, 8, 9, 10, 11, 12, 13, 14, 15, 16, 17, 18, 19, 20, 21, 22, 23, 24, 25, 26, 27, 28, 29]",266.4738908,1706,1574,90,1607,10,1.0
basic,34,6,0,0,0,16,"[0, 3, 16]",3,27,"[1, 2, 4, 5, 6, 7, 8, 9, 10, 11, 12, 13, 14, 15, 17, 18, 19, 20, 21, 22, 23, 24, 25, 26, 27, 28, 29]",220.2353787,7134,5428,16,190,10,1.1050742161728249
basic,34,6,0,0,0,18,"[0, 3, 16, 18]",4,24,"[1, 2, 4, 5, 6, 7, 8, 9, 10, 11, 12, 13, 14, 15, 17, 19, 20, 21, 22, 23, 24, 26, 27, 29]",196.8901436,8572,1438,10,97,10,1.6930577237270534
basic,34,6,0,0,0,17,"[0, 3, 16, 18, 17]",5,20,"[1, 2, 4, 5, 6, 7, 8, 9, 10, 11, 13, 14, 20, 21, 22, 23, 24, 26, 27, 29]",182.9617553,9552,980,8,58,10,1.6583245453234965
basic,34,6,0,0,0,10,"[0, 3, 16, 18, 17, 10]",6,17,"[1, 2, 4, 5, 6, 7, 8, 11, 13, 14, 21, 22, 23, 24, 26, 27, 29]",163.2386724,10502,950,6,33,10,1.6214605156931816
basic,34,6,0,0,0,24,"[0, 3, 16, 18, 17, 10, 24]",7,15,"[1, 2, 4, 5, 6, 7, 8, 11, 13, 14, 22, 23, 26, 27, 29]",149.8222646,11171,669,6,18,10,1.5435556829623227
basic,34,6,0,0,0,7,"[0, 3, 16, 18, 17, 10, 24, 7]",8,2,"[2, 26]",78.88567316,12535,1364,2,0,10,4.604550406567428
basic,34,6,0,0,0,26,"[0, 3, 16, 18, 17, 10, 24, 7, 26]",9,1,[2],54.802484,14581,2046,1,0,10,4.929651505560752
basic,34,6,0,0,1,2,"[0, 3, 16, 18, 17, 10, 24, 7, 26, 2]",10,0,[],24.96961622,15628,1047,1,0,10,3.4672592693333204
basic,34,6,0,1,1,2,"[0, 3, 16, 18, 17, 10, 24, 7, 26, 2]",10,0,[],24.96961622,16399,771,1,0,10,3.4672592693333204
basic,35,17,0,0,0,0,[0],1,28,"[1, 2, 3, 4, 5, 6, 7, 8, 9, 10, 11, 12, 13, 14, 15, 16, 17, 18, 19, 20, 22, 23, 24, 25, 26, 27, 28, 29]",300,164,-1,2,73,8,0.0
basic,35,17,0,0,0,17,"[0, 17]",2,19,"[1, 2, 3, 5, 7, 8, 9, 10, 11, 12, 14, 16, 18, 19, 23, 25, 26, 27, 29]",194.4253818,5040,4876,3,56,7,1.0
basic,35,17,0,0,0,8,"[0, 17, 8]",3,14,"[2, 3, 7, 9, 10, 11, 12, 14, 16, 23, 25, 26, 27, 29]",156.2154355,6339,1299,11,17,6,1.0742762671080475
basic,35,17,0,0,0,2,"[0, 17, 8, 2]",4,5,"[7, 9, 10, 16, 27]",121.1013358,7305,966,4,3,6,1.72713973249527
basic,35,17,0,0,0,16,"[0, 17, 8, 2, 16]",5,2,"[7, 9]",104.9768203,7907,602,2,0,6,2.225242522948709
basic,35,17,0,0,1,9,"[0, 17, 8, 2, 16, 9]",6,0,[],91.6351562,8648,741,1,0,6,2.328862118556028
basic,35,17,0,1,1,9,"[0, 17, 8, 2, 16, 9]",6,0,[],91.6351562,10401,1753,1,0,6,2.328862118556028
basic,36,7,0,0,0,0,[0],1,29,"[1, 2, 3, 4, 5, 6, 7, 8, 9, 10, 11, 12, 13, 14, 15, 16, 17, 18, 19, 20, 21, 22, 23, 24, 25, 26, 27, 28, 29]",300,147,-1,3,79,9,0.0
basic,36,7,0,0,0,15,"[0, 15]",2,19,"[2, 4, 5, 6, 7, 8, 9, 10, 13, 14, 16, 18, 19, 20, 21, 23, 25, 27, 28]",230.9348134,2070,1923,2,38,9,1.0
basic,36,7,0,0,0,6,"[0, 15, 6]",3,18,"[2, 4, 5, 7, 8, 9, 10, 13, 14, 16, 18, 19, 20, 21, 23, 25, 27, 28]",205.854941,2701,631,2,36,9,1.366719602896943
basic,36,7,0,0,0,25,"[0, 15, 6, 25]",4,11,"[2, 4, 7, 13, 14, 16, 18, 19, 20, 21, 23]",138.6760753,3630,929,2,28,9,1.3624631728355765
basic,36,7,0,0,0,4,"[0, 15, 6, 25, 4]",5,7,"[2, 7, 13, 16, 18, 19, 20]",113.9374415,4424,794,2,12,9,1.3249684384385587
basic,36,7,0,0,0,20,"[0, 15, 6, 25, 4, 20]",6,5,"[2, 7, 13, 18, 19]",94.29055881,5184,760,1,6,9,1.3721893242679268
basic,36,7,0,0,0,18,"[0, 15, 6, 25, 4, 20, 18]",7,3,"[7, 13, 19]",81.48431034,5795,611,1,2,9,1.5262542308371432
basic,36,7,0,0,0,7,"[0, 15, 6, 25, 4, 20, 18, 7]",8,1,[19],40.25325408,6558,763,1,0,9,1.41986878673423
basic,36,7,0,0,1,19,"[0, 15, 6, 25, 4, 20, 18, 7, 19]",9,0,[],10.84237174,7168,610,1,0,9,1.5285658163212987
basic,36,7,0,1,1,19,"[0, 15, 6, 25, 4, 20, 18, 7, 19]",9,0,[],10.84237174,8282,1114,1,0,9,1.5285658163212987
basic,37,5,0,0,0,0,[0],1,29,"[1, 2, 3, 4, 5, 6, 7, 8, 9, 10, 11, 12, 13, 14, 15, 16, 17, 18, 19, 20, 21, 22, 23, 24, 25, 26, 27, 28, 29]",300,130,-1,5,139,9,0.0
basic,37,5,0,0,0,12,"[0, 12]",2,22,"[2, 4, 5, 6, 8, 9, 10, 13, 14, 15, 16, 17, 18, 19, 21, 22, 23, 24, 25, 26, 27, 28]",228.3062067,2284,2154,1,27,9,1.0
basic,37,5,0,0,0,25,"[0, 12, 25]",3,21,"[2, 4, 5, 6, 8, 9, 10, 13, 14, 15, 16, 17, 18, 19, 21, 22, 23, 24, 26, 27, 28]",200.5213187,3046,762,1,20,9,1.584023303445617
basic,37,5,0,0,0,23,"[0, 12, 25, 23]",4,19,"[2, 4, 5, 6, 8, 9, 10, 13, 14, 15, 16, 17, 18, 19, 21, 22, 24, 26, 27]",182.0822298,3738,692,1,14,9,2.3508446989254357
basic,37,5,0,0,0,24,"[0, 12, 25, 23, 24]",5,15,"[2, 4, 5, 6, 8, 9, 13, 14, 15, 17, 18, 19, 22, 26, 27]",158.995437,4771,1033,1,12,9,1.9469752046288753
basic,37,5,0,0,0,17,"[0, 12, 25, 23, 24, 17]",6,7,"[4, 5, 6, 8, 15, 18, 19]",124.0097257,5585,814,1,8,9,1.6482276497563642
basic,37,5,0,0,0,5,"[0, 12, 25, 23, 24, 17, 5]",7,4,"[4, 6, 15, 18]",80.96323916,7755,2170,1,3,9,1.4654649104389412
basic,37,5,0,0,0,4,"[0, 12, 25, 23, 24, 17, 5, 4]",8,1,[6],15.16050365,9169,1414,1,0,9,1.6255060355828674
basic,37,5,0,0,1,6,"[0, 12, 25, 23, 24, 17, 5, 4, 6]",9,0,[],3.118909076,9929,760,1,0,9,1.7777310833772453
basic,37,5,0,1,1,6,"[0, 12, 25, 23, 24, 17, 5, 4, 6]",9,0,[],3.118909076,10815,886,1,0,9,1.7777310833772453
basic,38,2,0,0,0,0,[0],1,23,"[1, 2, 4, 5, 6, 7, 8, 9, 12, 13, 15, 16, 17, 18, 19, 20, 22, 23, 25, 26, 27, 28, 29]",300,163,-1,70,620,10,0.0
basic,38,2,0,0,0,19,"[0, 19]",2,22,"[1, 2, 4, 5, 6, 7, 8, 9, 12, 13, 15, 16, 17, 18, 20, 22, 23, 25, 26, 27, 28, 29]",210.306076,2803,2640,67,431,10,1.0
basic,38,2,0,0,0,12,"[0, 19, 12]",3,17,"[1, 4, 5, 6, 7, 13, 15, 16, 17, 18, 20, 22, 25, 26, 27, 28, 29]",174.2921898,4050,1247,66,298,10,1.1107635036313153
basic,38,2,0,0,0,5,"[0, 19, 12, 5]",4,11,"[1, 6, 7, 13, 15, 16, 18, 22, 25, 26, 29]",144.7625437,5126,1076,38,136,10,1.0968174771581647
basic,38,2,0,0,0,22,"[0, 19, 12, 5, 22]",5,8,"[1, 6, 7, 13, 15, 18, 26, 29]",131.9562952,5905,779,20,63,10,1.0889910507461968
basic,38,2,0,0,0,13,"[0, 19, 12, 5, 22, 13]",6,7,"[1, 6, 7, 15, 18, 26, 29]",117.0902265,7386,1481,19,20,10,1.236526217328057
basic,38,2,0,0,0,18,"[0, 19, 12, 5, 22, 13, 18]",7,4,"[7, 15, 26, 29]",81.91921567,8410,1024,10,3,10,1.2128708213409936
basic,38,2,0,0,0,7,"[0, 19, 12, 5, 22, 13, 18, 7]",8,3,"[15, 26, 29]",71.62358553,9409,999,5,0,10,1.2019811287894737
basic,38,2,0,0,0,26,"[0, 19, 12, 5, 22, 13, 18, 7, 26]",9,2,"[15, 29]",48.82007703,10252,843,2,0,10,1.1883593342191134
basic,38,2,0,0,1,15,"[0, 19, 12, 5, 22, 13, 18, 7, 26, 15]",10,0,[],24.61264015,11151,899,1,0,10,1.4619750353663825
basic,38,2,0,1,1,15,"[0, 19, 12, 5, 22, 13, 18, 7, 26, 15]",10,0,[],24.61264015,12631,1480,1,0,10,1.4619750353663825
basic,39,4,0,0,0,0,[0],1,26,"[3, 4, 5, 6, 7, 8, 10, 11, 12, 13, 14, 15, 16, 17, 18, 19, 20, 21, 22, 23, 24, 25, 26, 27, 28, 29]",300,132,-1,4,489,10,0.0
basic,39,4,0,0,0,6,"[0, 6]",2,17,"[3, 4, 5, 10, 11, 13, 14, 15, 16, 17, 19, 20, 21, 22, 23, 25, 28]",207.2368608,2793,2661,37,365,8,1.0
basic,39,4,0,0,0,28,"[0, 6, 28]",3,14,"[3, 4, 5, 11, 13, 14, 15, 16, 17, 20, 21, 22, 23, 25]",142.0448367,5006,2213,2,74,8,2.132777305796855
basic,39,4,0,0,0,14,"[0, 6, 28, 14]",4,5,"[3, 11, 16, 17, 25]",75.80285607,6070,1064,8,8,7,1.641732143379633
basic,39,4,0,0,0,25,"[0, 6, 28, 14, 25]",5,4,"[3, 11, 16, 17]",59.67834057,6986,916,3,2,7,1.8951185741919763
basic,39,4,0,0,0,11,"[0, 6, 28, 14, 25, 11]",6,1,[16],40.89004635,7659,673,1,0,7,2.1087465550452866
basic,39,4,0,0,1,16,"[0, 6, 28, 14, 25, 11, 16]",7,0,[],25.89004635,9187,1528,1,0,7,1.9885502833362352
basic,39,4,0,1,1,16,"[0, 6, 28, 14, 25, 11, 16]",7,0,[],25.89004635,12900,3713,1,0,7,1.9885502833362352
basic,40,31,0,0,0,0,[0],1,27,"[1, 3, 4, 5, 6, 7, 8, 10, 11, 12, 13, 14, 15, 16, 17, 18, 19, 20, 21, 22, 23, 24, 25, 26, 27, 28, 29]",300,131,-1,2,87,10,0.0
basic,40,31,0,0,0,14,"[0, 14]",2,25,"[1, 3, 5, 6, 7, 8, 10, 11, 12, 13, 15, 16, 17, 18, 19, 20, 21, 22, 23, 24, 25, 26, 27, 28, 29]",263.861378,2286,2155,2,59,10,1.0
basic,40,31,0,0,0,27,"[0, 14, 27]",3,22,"[1, 3, 5, 6, 7, 8, 10, 11, 12, 13, 15, 16, 17, 18, 19, 20, 21, 22, 24, 25, 28, 29]",235.6833724,3126,840,1,39,10,1.5881859159302467
basic,40,31,0,0,0,8,"[0, 14, 27, 8]",4,20,"[1, 3, 5, 6, 7, 10, 11, 12, 13, 16, 17, 18, 19, 20, 21, 22, 24, 25, 28, 29]",224.6380114,3607,481,1,36,10,2.1665048452331277
basic,40,31,0,0,0,18,"[0, 14, 27, 8, 18]",5,15,"[1, 5, 6, 7, 11, 12, 13, 16, 17, 19, 20, 22, 25, 28, 29]",188.7911147,4891,1284,1,26,10,1.7273375741920205
basic,40,31,0,0,0,11,"[0, 14, 27, 8, 18, 11]",6,11,"[1, 5, 7, 12, 16, 17, 19, 20, 22, 25, 28]",153.9055876,5651,760,13,17,9,2.386348208737804
basic,40,31,0,0,0,5,"[0, 14, 27, 8, 18, 11, 5]",7,5,"[16, 17, 20, 25, 28]",110.2249283,6719,1068,3,3,9,2.163249612867222
basic,40,31,0,0,0,28,"[0, 14, 27, 8, 18, 11, 5, 28]",8,2,"[16, 17]",90.00117988,14025,7306,2,0,9,1.9564635733184719
basic,40,31,0,0,1,16,"[0, 14, 27, 8, 18, 11, 5, 28, 16]",9,0,[],56.38570725,14788,763,1,0,9,1.824071502589619
basic,40,31,0,1,1,16,"[0, 14, 27, 8, 18, 11, 5, 28, 16]",9,0,[],56.38570725,16182,1394,1,0,9,1.824071502589619
basic,41,1,0,0,0,0,[0],1,26,"[1, 2, 4, 5, 7, 8, 9, 10, 11, 12, 13, 14, 15, 16, 17, 18, 19, 20, 21, 22, 23, 24, 25, 26, 28, 29]",300,131,-1,6,74,7,0.0
basic,41,1,0,0,0,24,"[0, 24]",2,8,"[5, 7, 8, 14, 16, 19, 20, 26]",185.4137879,7723,7592,9,13,5,1.0
basic,41,1,0,0,0,26,"[0, 24, 26]",3,6,"[5, 8, 14, 16, 19, 20]",152.1722476,8968,1245,7,4,5,1.502125301442057
basic,41,1,0,0,0,19,"[0, 24, 26, 19]",4,4,"[5, 8, 16, 20]",113.5458318,9839,871,4,0,5,1.5438989781695114
basic,41,1,0,0,1,8,"[0, 24, 26, 19, 8]",5,0,[],60.39510274,10737,898,1,0,5,2.44494793122449
basic,41,1,0,1,1,8,"[0, 24, 26, 19, 8]",5,0,[],60.39510274,15330,4593,1,0,5,2.44494793122449
basic,42,42,0,0,0,0,[0],1,29,"[1, 2, 3, 4, 5, 6, 7, 8, 9, 10, 11, 12, 13, 14, 15, 16, 17, 18, 19, 20, 21, 22, 23, 24, 25, 26, 27, 28, 29]",300,164,-1,16,302,9,0.0
basic,42,42,0,0,0,3,"[0, 3]",2,25,"[1, 2, 4, 5, 6, 7, 8, 9, 10, 11, 13, 15, 17, 18, 19, 20, 21, 22, 23, 24, 25, 26, 27, 28, 29]",255.7959278,6601,6437,3,45,9,1.0
basic,42,42,0,0,0,11,"[0, 3, 11]",3,19,"[1, 2, 4, 5, 6, 7, 8, 9, 15, 17, 19, 22, 23, 24, 25, 26, 27, 28, 29]",207.3294445,7500,899,49,82,7,1.0096173648192857
basic,42,42,0,0,0,24,"[0, 3, 11, 24]",4,15,"[1, 2, 4, 5, 6, 7, 8, 15, 17, 19, 22, 23, 26, 27, 28]",149.3208245,8383,883,18,27,7,1.149921218069753
basic,42,42,0,0,0,15,"[0, 3, 11, 24, 15]",5,12,"[1, 2, 4, 6, 7, 8, 17, 19, 22, 23, 26, 28]",135.719354,8979,596,12,5,7,1.135891118329389
basic,42,42,0,0,0,6,"[0, 3, 11, 24, 15, 6]",6,2,"[2, 28]",86.32299783,9917,938,2,0,7,1.1101190027582533
basic,42,42,0,0,1,2,"[0, 3, 11, 24, 15, 6, 2]",7,0,[],20.01311923,10892,975,1,0,7,1.4612807389404392
basic,42,42,0,1,1,2,"[0, 3, 11, 24, 15, 6, 2]",7,0,[],20.01311923,11981,1089,1,0,7,1.4612807389404392
basic,43,10,0,0,0,0,[0],1,29,"[1, 2, 3, 4, 5, 6, 7, 8, 9, 10, 11, 12, 13, 14, 15, 16, 17, 18, 19, 20, 21, 22, 23, 24, 25, 26, 27, 28, 29]",300,131,-1,1,100,9,0.0
basic,43,10,0,0,0,13,"[0, 13]",2,25,"[1, 2, 3, 4, 6, 7, 8, 9, 10, 11, 12, 14, 17, 18, 19, 20, 21, 22, 23, 24, 25, 26, 27, 28, 29]",249.4628849,1696,1565,1,79,9,1.0
basic,43,10,0,0,0,11,"[0, 13, 11]",3,20,"[1, 2, 3, 6, 7, 8, 9, 10, 12, 14, 18, 19, 20, 21, 22, 24, 26, 27, 28, 29]",206.4512586,2474,778,1,54,9,1.0313137484914219
basic,43,10,0,0,0,19,"[0, 13, 11, 19]",4,11,"[2, 6, 8, 9, 10, 14, 18, 20, 24, 26, 27]",170.0919407,3334,860,1,22,9,1.0879446220132545
basic,43,10,0,0,0,2,"[0, 13, 11, 19, 2]",5,4,"[14, 20, 26, 27]",126.1829439,4246,912,1,4,9,1.06474052351343
basic,43,10,0,0,0,14,"[0, 13, 11, 19, 2, 14]",6,3,"[20, 26, 27]",114.0174188,5026,780,1,3,9,1.1628909195912238
basic,43,10,0,0,0,26,"[0, 13, 11, 19, 2, 14, 26]",7,2,"[20, 27]",79.34754716,5885,859,1,1,9,1.6660727647633602
basic,43,10,0,0,0,20,"[0, 13, 11, 19, 2, 14, 26, 20]",8,1,[27],47.56704999,6664,779,1,0,9,2.085581809637999
basic,43,10,0,0,1,27,"[0, 13, 11, 19, 2, 14, 26, 20, 27]",9,0,[],2.312215998,7703,1039,1,0,9,1.9116357409137932
basic,43,10,0,1,1,27,"[0, 13, 11, 19, 2, 14, 26, 20, 27]",9,0,[],2.312215998,8615,912,1,0,9,1.9116357409137932
basic,44,27,0,0,0,0,[0],1,26,"[1, 3, 5, 6, 7, 8, 9, 10, 11, 12, 13, 14, 15, 16, 17, 18, 19, 21, 22, 23, 24, 25, 26, 27, 28, 29]",300,132,-1,13,578,11,0.0
basic,44,27,0,0,0,15,"[0, 15]",2,24,"[1, 3, 5, 6, 7, 8, 9, 10, 11, 12, 13, 14, 16, 17, 18, 19, 21, 22, 23, 24, 25, 26, 27, 29]",263.7508621,1810,1678,6,219,11,1.0
basic,44,27,0,0,0,24,"[0, 15, 24]",3,20,"[1, 5, 6, 7, 8, 9, 10, 12, 13, 14, 16, 17, 18, 19, 21, 23, 25, 26, 27, 29]",246.5462115,2692,882,6,130,11,1.130933077698322
basic,44,27,0,0,0,17,"[0, 15, 24, 17]",4,15,"[1, 6, 8, 10, 12, 13, 14, 16, 18, 19, 23, 25, 26, 27, 29]",229.9932662,3409,717,4,60,11,1.1285538435963374
basic,44,27,0,0,0,12,"[0, 15, 24, 17, 12]",5,14,"[1, 6, 8, 10, 13, 14, 16, 18, 19, 23, 25, 26, 27, 29]",218.8129263,4018,609,2,32,11,1.2561880288755216
basic,44,27,0,0,0,10,"[0, 15, 24, 17, 12, 10]",6,11,"[1, 8, 13, 14, 18, 19, 23, 25, 26, 27, 29]",207.7675653,4794,776,2,28,11,1.2228289337766665
basic,44,27,0,0,0,13,"[0, 15, 24, 17, 12, 10, 13]",7,9,"[1, 8, 14, 18, 19, 23, 26, 27, 29]",167.9178476,5605,811,2,18,11,1.3421291994761178
basic,44,27,0,0,0,19,"[0, 15, 24, 17, 12, 10, 13, 19]",8,5,"[1, 8, 14, 23, 29]",131.6825057,6456,851,2,6,11,1.294749956153846
basic,44,27,0,0,0,8,"[0, 15, 24, 17, 12, 10, 13, 19, 8]",9,3,"[14, 23, 29]",116.816437,7118,662,2,1,11,1.3554286578836865
basic,44,27,0,0,1,23,"[0, 15, 24, 17, 12, 10, 13, 19, 8, 23]",10,0,[],45.97859399,11919,4801,1,0,10,3.3397859539241304
basic,44,27,0,1,1,23,"[0, 15, 24, 17, 12, 10, 13, 19, 8, 23]",10,0,[],45.97859399,13799,1880,1,0,10,3.3397859539241304
basic,45,12,0,0,0,0,[0],1,29,"[1, 2, 3, 4, 5, 6, 7, 8, 9, 10, 11, 12, 13, 14, 15, 16, 17, 18, 19, 20, 21, 22, 23, 24, 25, 26, 27, 28, 29]",300,131,-1,2,32,9,0.0
basic,45,12,0,0,0,25,"[0, 25]",2,16,"[2, 4, 5, 6, 7, 9, 12, 14, 16, 18, 19, 22, 23, 24, 27, 28]",225.7975742,2810,2679,5,34,8,1.0
basic,45,12,0,0,0,22,"[0, 25, 22]",3,11,"[2, 4, 5, 6, 7, 12, 14, 16, 19, 24, 27]",153.5964661,4651,1841,1,10,8,1.6635691148622656
basic,45,12,0,0,0,16,"[0, 25, 22, 16]",4,7,"[4, 6, 12, 14, 19, 24, 27]",132.5964661,5329,678,1,6,8,1.8455145785330662
basic,45,12,0,0,0,4,"[0, 25, 22, 16, 4]",5,5,"[12, 14, 19, 24, 27]",98.39120339,6062,733,1,4,8,1.6140587576122385
basic,45,12,0,0,0,12,"[0, 25, 22, 16, 4, 12]",6,2,"[14, 27]",56.20115717,6912,850,1,1,8,1.4755917731057815
basic,45,12,0,0,0,27,"[0, 25, 22, 16, 4, 12, 27]",7,1,[14],31.84956584,7778,866,1,0,8,1.5677023473114235
basic,45,12,0,0,1,14,"[0, 25, 22, 16, 4, 12, 27, 14]",8,0,[],3.196468279,8550,772,1,0,8,1.5941060060123788
basic,45,12,0,1,1,14,"[0, 25, 22, 16, 4, 12, 27, 14]",8,0,[],3.196468279,9448,898,1,0,8,1.5941060060123788
basic,46,13,0,0,0,0,[0],1,29,"[1, 2, 3, 4, 5, 6, 7, 8, 9, 10, 11, 12, 13, 14, 15, 16, 17, 18, 19, 20, 21, 22, 23, 24, 25, 26, 27, 28, 29]",300,147,-1,60,2676,11,0.0
basic,46,13,0,0,0,24,"[0, 24]",2,28,"[1, 2, 3, 4, 5, 6, 7, 8, 9, 10, 11, 12, 13, 14, 15, 16, 17, 18, 19, 20, 21, 22, 23, 25, 26, 27, 28, 29]",288.8196601,2893,2746,16,1444,11,1.0
basic,46,13,0,0,0,28,"[0, 24, 28]",3,23,"[1, 2, 3, 4, 6, 7, 8, 9, 10, 11, 12, 13, 15, 16, 17, 19, 20, 21, 22, 23, 26, 27, 29]",222.5324064,5822,2929,8,243,11,1.0513810491680837
basic,46,13,0,0,0,2,"[0, 24, 28, 2]",4,19,"[1, 3, 4, 6, 7, 9, 11, 12, 13, 15, 16, 17, 19, 20, 21, 23, 26, 27, 29]",184.889346,6831,1009,7,110,11,1.050374132001543
basic,46,13,0,0,0,29,"[0, 24, 28, 2, 29]",5,18,"[1, 3, 4, 6, 7, 9, 11, 12, 13, 15, 16, 17, 19, 20, 21, 23, 26, 27]",173.1846461,8186,1355,7,85,11,1.1393409619120594
basic,46,13,0,0,0,7,"[0, 24, 28, 2, 29, 7]",6,17,"[1, 3, 4, 6, 9, 11, 12, 13, 15, 16, 17, 19, 20, 21, 23, 26, 27]",157.9203086,8917,731,5,45,11,1.349777315111579
basic,46,13,0,0,0,26,"[0, 24, 28, 2, 29, 7, 26]",7,16,"[1, 3, 4, 6, 9, 11, 12, 13, 15, 16, 17, 19, 20, 21, 23, 27]",147.480002,9636,719,5,25,11,1.5942082773824946
basic,46,13,0,0,0,6,"[0, 24, 28, 2, 29, 7, 26, 6]",8,12,"[1, 3, 4, 11, 13, 15, 16, 17, 19, 20, 23, 27]",127.3802508,10372,736,4,12,11,1.5898347940840756
basic,46,13,0,0,0,23,"[0, 24, 28, 2, 29, 7, 26, 6, 23]",9,2,"[3, 16]",63.87434556,13939,3567,2,0,10,4.178070065141234
basic,46,13,0,0,1,16,"[0, 24, 28, 2, 29, 7, 26, 6, 23, 16]",10,0,[],23.56305682,14751,812,1,0,10,3.003153139653058
basic,46,13,0,1,1,16,"[0, 24, 28, 2, 29, 7, 26, 6, 23, 16]",10,0,[],23.56305682,16831,2080,1,0,10,3.003153139653058
basic,47,38,0,0,0,0,[0],1,29,"[1, 2, 3, 4, 5, 6, 7, 8, 9, 10, 11, 12, 13, 14, 15, 16, 17, 18, 19, 20, 21, 22, 23, 24, 25, 26, 27, 28, 29]",300,130,-1,33,506,9,0.0
basic,47,38,0,0,0,19,"[0, 19]",2,23,"[3, 4, 5, 6, 7, 8, 9, 11, 13, 14, 15, 16, 17, 18, 20, 22, 23, 24, 25, 26, 27, 28, 29]",219.5015528,1908,1778,6,61,9,1.0
basic,47,38,0,0,0,17,"[0, 19, 17]",3,21,"[3, 4, 5, 6, 7, 9, 11, 13, 14, 15, 16, 18, 20, 22, 23, 24, 25, 26, 27, 28, 29]",198.1239945,2624,716,6,53,9,1.571793785769489
basic,47,38,0,0,0,20,"[0, 19, 17, 20]",4,17,"[3, 4, 5, 6, 7, 11, 13, 14, 15, 16, 18, 22, 24, 25, 26, 27, 28]",174.3542658,3339,715,6,44,9,2.333182710277297
basic,47,38,0,0,0,13,"[0, 19, 17, 20, 13]",5,9,"[4, 11, 15, 16, 18, 24, 26, 27, 28]",125.0998244,4655,1316,1,11,9,1.7893595974504246
basic,47,38,0,0,0,4,"[0, 19, 17, 20, 13, 4]",6,6,"[11, 15, 16, 24, 26, 28]",93.69918748,5442,787,1,6,9,2.942354535547757
basic,47,38,0,0,0,15,"[0, 19, 17, 20, 13, 4, 15]",7,4,"[11, 16, 26, 28]",67.69918748,6324,882,1,3,9,3.165907365359093
basic,47,38,0,0,1,16,"[0, 19, 17, 20, 13, 4, 15, 16]",8,0,[],26.08188338,7175,851,1,0,8,2.5034412435406455
basic,47,38,0,1,1,16,"[0, 19, 17, 20, 13, 4, 15, 16]",8,0,[],26.08188338,8614,1439,1,0,8,2.5034412435406455
basic,48,29,0,0,0,0,[0],1,29,"[1, 2, 3, 4, 5, 6, 7, 8, 9, 10, 11, 12, 13, 14, 15, 16, 17, 18, 19, 20, 21, 22, 23, 24, 25, 26, 27, 28, 29]",300,130,-1,1,78,9,0.0
basic,48,29,0,0,0,25,"[0, 25]",2,18,"[1, 2, 4, 5, 6, 7, 9, 10, 12, 13, 14, 15, 16, 17, 22, 26, 27, 28]",223.3449284,1600,1470,13,101,8,1.0
basic,48,29,0,0,0,17,"[0, 25, 17]",3,13,"[1, 4, 5, 6, 7, 9, 10, 12, 13, 14, 22, 27, 28]",188.41643,2196,596,2,22,8,1.014228463693056
basic,48,29,0,0,0,1,"[0, 25, 17, 1]",4,11,"[4, 5, 6, 7, 10, 12, 13, 14, 22, 27, 28]",149.5191293,4321,2125,2,18,8,1.7553639368828857
basic,48,29,0,0,0,14,"[0, 25, 17, 1, 14]",5,8,"[4, 5, 7, 12, 13, 22, 27, 28]",106.5656662,5166,845,2,9,8,2.137167642879409
basic,48,29,0,0,0,13,"[0, 25, 17, 1, 14, 13]",6,4,"[4, 5, 12, 22]",88.53790978,5927,761,2,3,8,1.9535489858276616
basic,48,29,0,0,0,5,"[0, 25, 17, 1, 14, 13, 5]",7,2,"[4, 22]",62.82798951,6722,795,2,0,8,1.9087092890879327
basic,48,29,0,0,1,4,"[0, 25, 17, 1, 14, 13, 5, 4]",8,0,[],10.93386653,7604,882,1,0,8,1.6444131700810427
basic,48,29,0,1,1,4,"[0, 25, 17, 1, 14, 13, 5, 4]",8,0,[],10.93386653,8147,543,1,0,8,1.6444131700810427
basic,49,9,0,0,0,0,[0],1,27,"[1, 3, 4, 5, 6, 7, 8, 9, 10, 11, 13, 14, 15, 16, 17, 18, 19, 20, 21, 22, 23, 24, 25, 26, 27, 28, 29]",300,133,-1,2,182,10,0.0
basic,49,9,0,0,0,7,"[0, 7]",2,19,"[3, 4, 5, 8, 9, 10, 11, 16, 17, 18, 19, 20, 21, 22, 23, 25, 26, 27, 28]",258.4067313,5794,5661,39,322,9,1.0
basic,49,9,0,0,0,4,"[0, 7, 4]",3,15,"[3, 8, 9, 10, 11, 18, 19, 20, 21, 22, 23, 25, 26, 27, 28]",243.4067313,6510,716,32,159,9,1.002790151820037
basic,49,9,0,0,0,27,"[0, 7, 4, 27]",4,11,"[8, 9, 10, 11, 20, 21, 22, 23, 25, 26, 28]",181.165266,7212,702,19,48,9,2.2170504989781823
basic,49,9,0,0,0,25,"[0, 7, 4, 27, 25]",5,10,"[8, 9, 10, 11, 20, 21, 22, 23, 26, 28]",145.2626199,7912,700,17,30,9,6.425119990857526
basic,49,9,0,0,0,10,"[0, 7, 4, 27, 25, 10]",6,8,"[8, 9, 20, 21, 22, 23, 26, 28]",105.4129022,8568,656,10,7,9,3.581425027421569
basic,49,9,0,0,0,8,"[0, 7, 4, 27, 25, 10, 8]",7,4,"[9, 23, 26, 28]",57.03935571,12260,3692,5,2,9,3.8093024713254513
basic,49,9,0,0,0,28,"[0, 7, 4, 27, 25, 10, 8, 28]",8,3,"[9, 23, 26]",46.22270189,12945,685,3,0,9,3.4166561767504806
basic,49,9,0,0,1,23,"[0, 7, 4, 27, 25, 10, 8, 28, 23]",9,0,[],21.20270988,13599,654,1,0,9,4.682528489450431
basic,49,9,0,1,1,23,"[0, 7, 4, 27, 25, 10, 8, 28, 23]",9,0,[],21.20270988,14950,1351,1,0,9,4.682528489450431
basic,50,36,0,0,0,0,[0],1,24,"[2, 4, 5, 6, 7, 8, 9, 10, 12, 13, 14, 15, 16, 17, 18, 19, 20, 22, 23, 25, 26, 27, 28, 29]",300,129,-1,2,200,10,0.0
basic,50,36,0,0,0,12,"[0, 12]",2,23,"[2, 4, 5, 6, 7, 8, 9, 10, 13, 14, 15, 16, 17, 18, 19, 20, 22, 23, 25, 26, 27, 28, 29]",277.7963967,2784,2655,90,804,9,1.0
basic,50,36,0,0,0,9,"[0, 12, 9]",3,14,"[2, 4, 8, 10, 13, 16, 17, 18, 19, 23, 25, 27, 28, 29]",215.4345494,5977,3193,32,191,9,1.224429481246385
basic,50,36,0,0,0,19,"[0, 12, 9, 19]",4,13,"[2, 4, 8, 10, 13, 16, 17, 18, 23, 25, 27, 28, 29]",200.3018034,6694,717,14,61,9,1.293473472808712
basic,50,36,0,0,0,2,"[0, 12, 9, 19, 2]",5,11,"[4, 8, 10, 13, 16, 17, 18, 23, 25, 27, 29]",163.180381,7484,790,2,17,9,1.2115523850119965
basic,50,36,0,0,0,25,"[0, 12, 9, 19, 2, 25]",6,9,"[4, 8, 10, 13, 16, 17, 18, 27, 29]",138.180381,8284,800,1,8,9,1.413393071141534
basic,50,36,0,0,0,13,"[0, 12, 9, 19, 2, 25, 13]",7,5,"[4, 10, 16, 17, 18]",117.5891208,9071,787,1,4,9,1.8597869697411082
basic,50,36,0,0,1,10,"[0, 12, 9, 19, 2, 25, 13, 10]",8,0,[],41.6286047,10349,1278,1,0,8,1.4855310752431334
basic,50,36,0,1,1,10,"[0, 12, 9, 19, 2, 25, 13, 10]",8,0,[],41.6286047,11148,799,1,0,8,1.4855310752431334
basic,51,30,0,0,0,0,[0],1,19,"[3, 4, 5, 7, 9, 11, 16, 17, 18, 19, 20, 21, 22, 24, 25, 26, 27, 28, 29]",300,164,-1,5,41,8,0.0
basic,51,30,0,0,0,26,"[0, 26]",2,15,"[3, 5, 9, 11, 16, 17, 18, 19, 20, 21, 22, 25, 27, 28, 29]",208.2939479,3232,3068,5,27,6,1.0
basic,51,30,0,0,0,17,"[0, 26, 17]",3,2,"[11, 22]",106.3282674,4412,1180,1,1,5,1.0269053349018842
basic,51,30,0,0,0,22,"[0, 26, 17, 22]",4,1,[11],87.09288329,5169,757,1,0,5,1.0667647841987975
basic,51,30,0,0,1,11,"[0, 26, 17, 22, 11]",5,0,[],11.29050866,6239,1070,1,0,5,1.620200194141416
basic,51,30,0,1,1,11,"[0, 26, 17, 22, 11]",5,0,[],11.29050866,9115,2876,1,0,5,1.620200194141416
basic,52,33,0,0,0,0,[0],1,23,"[1, 2, 5, 7, 8, 11, 12, 13, 14, 15, 16, 17, 18, 19, 20, 21, 23, 24, 25, 26, 27, 28, 29]",300,130,-1,5,108,9,0.0
basic,52,33,0,0,0,8,"[0, 8]",2,22,"[1, 2, 5, 7, 11, 12, 13, 14, 15, 16, 17, 18, 19, 20, 21, 23, 24, 25, 26, 27, 28, 29]",265.8679037,3230,3100,5,87,9,1.0
basic,52,33,0,0,0,21,"[0, 8, 21]",3,16,"[2, 5, 7, 11, 13, 14, 16, 17, 18, 19, 20, 24, 26, 27, 28, 29]",166.0430571,5066,1836,5,80,9,1.0670557763739492
basic,52,33,0,0,0,13,"[0, 8, 21, 13]",4,12,"[2, 7, 11, 14, 16, 17, 18, 19, 20, 24, 26, 29]",139.6422995,6041,975,4,54,9,1.0555103820910288
basic,52,33,0,0,0,19,"[0, 8, 21, 13, 19]",5,10,"[7, 11, 14, 16, 17, 18, 20, 24, 26, 29]",114.1472019,6949,908,3,19,9,1.1090798607799486
basic,52,33,0,0,0,24,"[0, 8, 21, 13, 19, 24]",6,6,"[7, 14, 16, 18, 26, 29]",72.09960985,7773,824,2,3,9,1.1193530461391534
basic,52,33,0,0,0,7,"[0, 8, 21, 13, 19, 24, 7]",7,2,"[14, 26]",42.89344611,8774,1001,2,0,9,1.2065014071663551
basic,52,33,0,0,0,14,"[0, 8, 21, 13, 19, 24, 7, 14]",8,1,[26],28.02737737,9671,897,1,0,9,1.2536495746979057
basic,52,33,0,0,1,26,"[0, 8, 21, 13, 19, 24, 7, 14, 26]",9,0,[],15.37826672,10383,712,1,0,9,1.2580465331304596
basic,52,33,0,1,1,26,"[0, 8, 21, 13, 19, 24, 7, 14, 26]",9,0,[],15.37826672,11580,1197,1,0,9,1.2580465331304596
basic,53,22,0,0,0,0,[0],1,29,"[1, 2, 3, 4, 5, 6, 7, 8, 9, 10, 11, 12, 13, 14, 15, 16, 17, 18, 19, 20, 21, 22, 23, 24, 25, 26, 27, 28, 29]",300,130,-1,31,704,9,0.0
basic,53,22,0,0,0,16,"[0, 16]",2,21,"[1, 3, 6, 7, 8, 9, 11, 13, 14, 15, 17, 18, 19, 20, 21, 22, 24, 25, 27, 28, 29]",218.605897,2316,2186,17,147,9,1.0
basic,53,22,0,0,0,28,"[0, 16, 28]",3,13,"[6, 7, 9, 13, 14, 17, 19, 20, 21, 22, 24, 25, 29]",184.1675463,3237,921,12,61,9,1.047282311284478
basic,53,22,0,0,0,6,"[0, 16, 28, 6]",4,12,"[7, 9, 13, 14, 17, 19, 20, 21, 22, 24, 25, 29]",154.1675463,3851,614,12,43,9,1.645645870580622
basic,53,22,0,0,0,9,"[0, 16, 28, 6, 9]",5,8,"[7, 14, 17, 19, 20, 21, 24, 29]",127.5404924,5349,1498,8,17,9,1.925750226630103
basic,53,22,0,0,0,19,"[0, 16, 28, 6, 9, 19]",6,6,"[7, 14, 17, 21, 24, 29]",107.1444143,8207,2858,3,7,9,2.4220750331476455
basic,53,22,0,0,0,29,"[0, 16, 28, 6, 9, 19, 29]",7,4,"[7, 14, 17, 24]",92.11111796,8790,583,2,2,9,2.6996279574991067
basic,53,22,0,0,0,7,"[0, 16, 28, 6, 9, 19, 29, 7]",8,1,[14],41.0327468,9900,1110,1,0,9,2.059125386946491
basic,53,22,0,0,1,14,"[0, 16, 28, 6, 9, 19, 29, 7, 14]",9,0,[],27.99434199,10640,740,1,0,9,2.0997569104205307
basic,53,22,0,1,1,14,"[0, 16, 28, 6, 9, 19, 29, 7, 14]",9,0,[],27.99434199,12480,1840,1,0,9,2.0997569104205307
basic,54,16,0,0,0,0,[0],1,29,"[1, 2, 3, 4, 5, 6, 7, 8, 9, 10, 11, 12, 13, 14, 15, 16, 17, 18, 19, 20, 21, 22, 23, 24, 25, 26, 27, 28, 29]",300,130,-1,13,161,9,0.0
basic,54,16,0,0,0,28,"[0, 28]",2,27,"[1, 2, 3, 4, 5, 7, 8, 9, 10, 11, 12, 13, 14, 15, 16, 17, 18, 19, 20, 21, 22, 23, 24, 25, 26, 27, 29]",284.3475242,3772,3642,11,92,9,1.0
basic,54,16,0,0,0,17,"[0, 28, 17]",3,26,"[1, 2, 3, 4, 5, 7, 8, 9, 10, 11, 12, 13, 14, 15, 16, 18, 19, 20, 21, 22, 23, 24, 25, 26, 27, 29]",219.1555001,4576,804,10,46,9,1.3773866384707543
basic,54,16,0,0,0,16,"[0, 28, 17, 16]",4,25,"[1, 2, 3, 4, 5, 7, 8, 9, 10, 11, 12, 13, 14, 15, 18, 19, 20, 21, 22, 23, 24, 25, 26, 27, 29]",190.8358956,5339,763,10,34,9,1.3209953830681203
basic,54,16,0,0,0,21,"[0, 28, 17, 16, 21]",5,13,"[3, 5, 7, 8, 9, 10, 12, 15, 20, 22, 25, 26, 29]",146.1816685,6051,712,4,7,9,1.8136482702070456
basic,54,16,0,0,0,8,"[0, 28, 17, 16, 21, 8]",6,6,"[5, 9, 12, 15, 20, 25]",96.92722704,6891,840,4,2,9,1.637204572335983
basic,54,16,0,0,0,20,"[0, 28, 17, 16, 21, 8, 20]",7,2,"[9, 25]",39.15179974,8057,1166,2,0,9,1.441590377328759
basic,54,16,0,0,0,25,"[0, 28, 17, 16, 21, 8, 20, 25]",8,1,[9],26.5026891,8751,694,1,0,9,1.484361110265371
basic,54,16,0,0,1,9,"[0, 28, 17, 16, 21, 8, 20, 25, 9]",9,0,[],13.69644062,9468,717,1,0,9,1.4530180692918209
basic,54,16,0,1,1,9,"[0, 28, 17, 16, 21, 8, 20, 25, 9]",9,0,[],13.69644062,10214,746,1,0,9,1.4530180692918209
basic,55,11,0,0,0,0,[0],1,25,"[1, 2, 3, 4, 5, 6, 8, 9, 10, 11, 12, 13, 14, 15, 16, 17, 18, 19, 20, 22, 23, 25, 26, 27, 28]",300,129,-1,6,374,12,0.0
basic,55,11,0,0,0,1,"[0, 1]",2,24,"[2, 3, 4, 5, 6, 8, 9, 10, 11, 12, 13, 14, 15, 16, 17, 18, 19, 20, 22, 23, 25, 26, 27, 28]",264.6446609,3132,3003,6,217,12,1.0
basic,55,11,0,0,0,18,"[0, 1, 18]",3,19,"[2, 4, 5, 6, 8, 9, 11, 12, 14, 15, 16, 17, 19, 20, 22, 23, 25, 27, 28]",212.3187591,4705,1573,6,161,12,1.3884463804898786
basic,55,11,0,0,0,27,"[0, 1, 18, 27]",4,18,"[2, 4, 5, 6, 8, 9, 11, 12, 14, 15, 16, 17, 19, 20, 22, 23, 25, 28]",188.4650382,5736,1031,6,155,12,1.3600813284083875
basic,55,11,0,0,0,17,"[0, 1, 18, 27, 17]",5,11,"[2, 5, 6, 8, 11, 12, 15, 19, 22, 25, 28]",111.3871556,6832,1096,2,45,12,1.282398281674261
basic,55,11,0,0,0,8,"[0, 1, 18, 27, 17, 8]",6,7,"[2, 5, 11, 12, 15, 22, 28]",97.0693345,7675,843,2,21,12,1.3975291553712
basic,55,11,0,0,0,15,"[0, 1, 18, 27, 17, 8, 15]",7,6,"[2, 5, 11, 12, 22, 28]",83.61571045,8336,661,2,18,12,1.3793915678186077
basic,55,11,0,0,0,11,"[0, 1, 18, 27, 17, 8, 15, 11]",8,4,"[2, 5, 22, 28]",65.50494017,9061,725,2,14,12,1.3525960247899067
basic,55,11,0,0,0,28,"[0, 1, 18, 27, 17, 8, 15, 11, 28]",9,3,"[2, 5, 22]",46.08845233,9982,921,2,4,12,1.4693669896690256
basic,55,11,0,0,0,2,"[0, 1, 18, 27, 17, 8, 15, 11, 28, 2]",10,2,"[5, 22]",35.45830652,10882,900,2,0,11,1.482125145184235
basic,55,11,0,0,1,22,"[0, 1, 18, 27, 17, 8, 15, 11, 28, 2, 22]",11,0,[],25.4084309,11800,918,1,0,11,1.4564579132739395
basic,55,11,0,1,1,22,"[0, 1, 18, 27, 17, 8, 15, 11, 28, 2, 22]",11,0,[],25.4084309,26912,15112,1,0,11,1.4564579132739395
basic,56,19,0,0,0,0,[0],1,29,"[1, 2, 3, 4, 5, 6, 7, 8, 9, 10, 11, 12, 13, 14, 15, 16, 17, 18, 19, 20, 21, 22, 23, 24, 25, 26, 27, 28, 29]",300,128,-1,12,149,8,0.0
basic,56,19,0,0,0,16,"[0, 16]",2,13,"[1, 2, 3, 5, 8, 12, 13, 15, 17, 19, 23, 25, 29]",194.2408396,4848,4720,1,26,7,1.0
basic,56,19,0,0,0,17,"[0, 16, 17]",3,9,"[1, 2, 3, 8, 12, 13, 19, 23, 25]",121.1313327,5784,936,10,14,6,1.2905373814961512
basic,56,19,0,0,0,25,"[0, 16, 17, 25]",4,8,"[1, 2, 3, 8, 12, 13, 19, 23]",110.0859717,6298,514,7,5,6,1.3926669748029024
basic,56,19,0,0,0,12,"[0, 16, 17, 25, 12]",5,3,"[1, 2, 23]",92.96872895,7748,1450,3,0,6,1.7309798699614372
basic,56,19,0,0,1,1,"[0, 16, 17, 25, 12, 1]",6,0,[],17.96206258,11102,3354,1,0,6,2.1084628287325495
basic,56,19,0,1,1,1,"[0, 16, 17, 25, 12, 1]",6,0,[],17.96206258,12079,977,1,0,6,2.1084628287325495
basic,57,21,0,0,0,0,[0],1,29,"[1, 2, 3, 4, 5, 6, 7, 8, 9, 10, 11, 12, 13, 14, 15, 16, 17, 18, 19, 20, 21, 22, 23, 24, 25, 26, 27, 28, 29]",300,130,-1,84,830,9,0.0
basic,57,21,0,0,0,20,"[0, 20]",2,28,"[1, 2, 3, 4, 5, 6, 7, 8, 9, 10, 11, 12, 13, 14, 15, 16, 17, 18, 19, 21, 22, 23, 24, 25, 26, 27, 28, 29]",217.6228187,2405,2275,6,67,9,1.0
basic,57,21,0,0,0,22,"[0, 20, 22]",3,23,"[2, 4, 6, 7, 8, 9, 10, 11, 12, 13, 14, 15, 16, 17, 18, 19, 21, 23, 24, 25, 26, 27, 29]",189.3916303,3051,646,6,47,9,1.3451865712078994
basic,57,21,0,0,0,18,"[0, 20, 22, 18]",4,20,"[2, 4, 6, 7, 8, 9, 10, 11, 12, 14, 15, 16, 17, 21, 23, 24, 25, 26, 27, 29]",162.9908727,3683,632,4,25,9,2.3191924394507706
basic,57,21,0,0,0,29,"[0, 20, 22, 18, 29]",5,16,"[2, 4, 6, 7, 8, 10, 12, 14, 15, 16, 17, 21, 23, 24, 25, 27]",134.3377751,4383,700,2,10,9,1.9554738681863184
basic,57,21,0,0,0,25,"[0, 20, 22, 18, 29, 25]",6,5,"[4, 14, 17, 21, 23]",89.11609892,5328,945,2,5,9,3.5255206171255487
basic,57,21,0,0,0,21,"[0, 20, 22, 18, 29, 25, 21]",7,3,"[4, 14, 23]",39.78051339,6784,1456,1,2,9,2.8949037931733077
basic,57,21,0,0,0,14,"[0, 20, 22, 18, 29, 25, 21, 14]",8,1,[4],14.16801644,8101,1317,1,0,9,2.4954214602277003
basic,57,21,0,0,1,4,"[0, 20, 22, 18, 29, 25, 21, 14, 4]",9,0,[],0.025880812,9005,904,1,0,9,2.345266159905017
basic,57,21,0,1,1,4,"[0, 20, 22, 18, 29, 25, 21, 14, 4]",9,0,[],0.025880812,9797,792,1,0,9,2.345266159905017
basic,58,26,0,0,0,0,[0],1,29,"[1, 2, 3, 4, 5, 6, 7, 8, 9, 10, 11, 12, 13, 14, 15, 16, 17, 18, 19, 20, 21, 22, 23, 24, 25, 26, 27, 28, 29]",300,163,-1,9,226,9,0.0
basic,58,26,0,0,0,12,"[0, 12]",2,26,"[1, 2, 3, 4, 5, 6, 8, 10, 11, 13, 14, 15, 16, 17, 18, 19, 20, 21, 22, 23, 24, 25, 26, 27, 28, 29]",279.8753882,3426,3263,2,80,9,1.0
basic,58,26,0,0,0,4,"[0, 12, 4]",3,11,"[5, 6, 10, 13, 14, 16, 17, 19, 21, 23, 29]",149.4108336,4685,1259,16,95,8,1.242461188572386
basic,58,26,0,0,0,29,"[0, 12, 4, 29]",4,9,"[5, 6, 10, 13, 14, 16, 17, 21, 23]",125.4108336,5451,766,7,26,8,1.4288524621609358
basic,58,26,0,0,0,16,"[0, 12, 4, 29, 16]",5,8,"[5, 6, 10, 13, 14, 17, 21, 23]",101.2033968,6354,903,2,9,8,1.7758192780211868
basic,58,26,0,0,0,21,"[0, 12, 4, 29, 16, 21]",6,1,[13],41.29513355,10232,3878,1,0,7,2.9112099654089287
basic,58,26,0,0,1,13,"[0, 12, 4, 29, 16, 21, 13]",7,0,[],19.15918993,11891,1659,1,0,7,2.5563750688196576
basic,58,26,0,1,1,13,"[0, 12, 4, 29, 16, 21, 13]",7,0,[],19.15918993,12563,672,1,0,7,2.5563750688196576
basic,59,25,0,0,0,0,[0],1,28,"[1, 2, 3, 4, 5, 7, 8, 9, 10, 11, 12, 13, 14, 15, 16, 17, 18, 19, 20, 21, 22, 23, 24, 25, 26, 27, 28, 29]",300,130,-1,5,94,10,0.0
basic,59,25,0,0,0,23,"[0, 23]",2,23,"[1, 2, 3, 5, 7, 8, 9, 11, 12, 13, 14, 16, 17, 19, 20, 21, 22, 24, 25, 26, 27, 28, 29]",259.7756293,2399,2269,3,33,10,1.0
basic,59,25,0,0,0,19,"[0, 23, 19]",3,21,"[1, 2, 3, 5, 7, 8, 9, 11, 12, 13, 14, 16, 17, 20, 21, 22, 24, 25, 27, 28, 29]",223.9287326,3309,910,3,24,10,1.583101227007039
basic,59,25,0,0,0,29,"[0, 23, 19, 29]",4,19,"[1, 2, 3, 5, 7, 8, 9, 11, 12, 13, 14, 16, 17, 20, 21, 22, 24, 25, 28]",207.649912,3996,687,3,17,10,1.474631541426484
basic,59,25,0,0,0,22,"[0, 23, 19, 29, 22]",5,18,"[1, 2, 3, 5, 7, 8, 9, 11, 12, 13, 14, 16, 17, 20, 21, 24, 25, 28]",191.5253965,4713,717,3,14,10,1.4020377754906637
basic,59,25,0,0,0,7,"[0, 23, 19, 29, 22, 7]",6,7,"[3, 8, 9, 11, 13, 24, 28]",115.8814939,6460,1747,3,11,10,1.5709678649326715
basic,59,25,0,0,0,24,"[0, 23, 19, 29, 22, 7, 24]",7,5,"[3, 8, 9, 13, 28]",91.12265712,7468,1008,3,7,10,1.486191600033379
basic,59,25,0,0,0,9,"[0, 23, 19, 29, 22, 7, 24, 9]",8,4,"[3, 8, 13, 28]",73.09490075,8550,1082,3,3,10,1.453504870342882
basic,59,25,0,0,0,3,"[0, 23, 19, 29, 22, 7, 24, 9, 3]",9,3,"[8, 13, 28]",42.82940885,9539,989,3,0,10,1.388955167525479
basic,59,25,0,0,1,28,"[0, 23, 19, 29, 22, 7, 24, 9, 3, 28]",10,0,[],11.52445716,11169,1630,1,0,10,1.3331084120212044
basic,59,25,0,1,1,28,"[0, 23, 19, 29, 22, 7, 24, 9, 3, 28]",10,0,[],11.52445716,11863,694,1,0,10,1.3331084120212044
basic,60,8,0,0,0,0,[0],1,29,"[1, 2, 3, 4, 5, 6, 7, 8, 9, 10, 11, 12, 13, 14, 15, 16, 17, 18, 19, 20, 21, 22, 23, 24, 25, 26, 27, 28, 29]",300,131,-1,10,149,9,0.0
basic,60,8,0,0,0,5,"[0, 5]",2,28,"[1, 2, 3, 4, 6, 7, 8, 9, 10, 11, 12, 13, 14, 15, 16, 17, 18, 19, 20, 21, 22, 23, 24, 25, 26, 27, 28, 29]",254.5137383,2106,1975,10,100,9,1.0
basic,60,8,0,0,0,14,"[0, 5, 14]",3,20,"[1, 2, 3, 4, 6, 7, 11, 15, 16, 17, 18, 19, 20, 21, 22, 23, 24, 25, 28, 29]",214.5512559,3477,1371,4,36,9,1.0001019035932595
basic,60,8,0,0,0,17,"[0, 5, 14, 17]",4,15,"[1, 4, 6, 7, 11, 15, 16, 18, 19, 20, 22, 23, 24, 25, 28]",177.5377449,4267,790,4,16,9,1.121197267659591
basic,60,8,0,0,0,11,"[0, 5, 14, 17, 11]",5,11,"[1, 4, 15, 16, 18, 19, 22, 23, 24, 25, 28]",152.3583883,4989,722,4,8,9,1.1277254166016362
basic,60,8,0,0,0,24,"[0, 5, 14, 17, 11, 24]",6,3,"[15, 16, 28]",115.1428001,6045,1056,2,2,9,1.1227411011978805
basic,60,8,0,0,0,15,"[0, 5, 14, 17, 11, 24, 15]",7,2,"[16, 28]",98.37974552,7423,1378,2,0,9,1.1956385406066814
basic,60,8,0,0,0,16,"[0, 5, 14, 17, 11, 24, 15, 16]",8,1,[28],47.30137436,8304,881,1,0,9,1.36482239111247
basic,60,8,0,0,1,28,"[0, 5, 14, 17, 11, 24, 15, 16, 28]",9,0,[],24.94069458,9116,812,1,0,9,1.632953105226947
basic,60,8,0,1,1,28,"[0, 5, 14, 17, 11, 24, 15, 16, 28]",9,0,[],24.94069458,9697,581,1,0,9,1.632953105226947
basic,61,35,0,0,0,0,[0],1,29,"[1, 2, 3, 4, 5, 6, 7, 8, 9, 10, 11, 12, 13, 14, 15, 16, 17, 18, 19, 20, 21, 22, 23, 24, 25, 26, 27, 28, 29]",300,131,-1,5,236,11,0.0
basic,61,35,0,0,0,24,"[0, 24]",2,27,"[1, 2, 4, 5, 6, 7, 8, 9, 10, 11, 12, 13, 14, 15, 16, 17, 18, 19, 20, 21, 22, 23, 25, 26, 27, 28, 29]",268.9838752,2802,2671,49,512,10,1.0
basic,61,35,0,0,0,17,"[0, 24, 17]",3,26,"[1, 2, 4, 5, 6, 7, 8, 9, 10, 11, 12, 13, 14, 15, 16, 18, 19, 20, 21, 22, 23, 25, 26, 27, 28, 29]",257.2791753,3385,583,33,238,10,1.0771477201815276
basic,61,35,0,0,0,1,"[0, 24, 17, 1]",4,25,"[2, 4, 5, 6, 7, 8, 9, 10, 11, 12, 13, 14, 15, 16, 18, 19, 20, 21, 22, 23, 25, 26, 27, 28, 29]",241.4677869,4118,733,26,151,10,1.2244804141479215
basic,61,35,0,0,0,15,"[0, 24, 17, 1, 15]",5,23,"[2, 4, 5, 6, 7, 8, 9, 10, 11, 12, 14, 16, 18, 19, 20, 21, 22, 23, 25, 26, 27, 28, 29]",218.6204676,4795,677,26,78,10,1.4642196672428094
basic,61,35,0,0,0,23,"[0, 24, 17, 1, 15, 23]",6,11,"[4, 5, 6, 9, 18, 19, 25, 26, 27, 28, 29]",158.1804147,5780,985,15,12,10,1.3338903684702363
basic,61,35,0,0,0,9,"[0, 24, 17, 1, 15, 23, 9]",7,6,"[5, 6, 18, 19, 25, 27]",120.5373542,6503,723,6,1,10,1.5964380615155294
basic,61,35,0,0,0,18,"[0, 24, 17, 1, 15, 23, 9, 18]",8,3,"[5, 6, 25]",100.5123698,7152,649,2,1,10,1.5508488101942703
basic,61,35,0,0,0,6,"[0, 24, 17, 1, 15, 23, 9, 18, 6]",9,1,[25],66.89689722,7937,785,1,0,10,1.541466044761729
basic,61,35,0,0,1,25,"[0, 24, 17, 1, 15, 23, 9, 18, 6, 25]",10,0,[],42.87607292,8874,937,1,0,10,1.5877595882523792
basic,61,35,0,1,1,25,"[0, 24, 17, 1, 15, 23, 9, 18, 6, 25]",10,0,[],42.87607292,9814,940,1,0,10,1.5877595882523792
basic,62,0,0,0,0,0,[0],1,27,"[2, 3, 4, 5, 6, 7, 8, 9, 10, 11, 12, 13, 14, 15, 16, 17, 19, 20, 21, 22, 23, 24, 25, 26, 27, 28, 29]",300,130,-1,104,1136,9,0.0
basic,62,0,0,0,0,20,"[0, 20]",2,25,"[2, 3, 4, 5, 6, 7, 8, 9, 11, 12, 13, 14, 15, 16, 17, 19, 21, 22, 23, 24, 25, 26, 27, 28, 29]",215.4955622,2671,2541,36,372,9,1.0
basic,62,0,0,0,0,5,"[0, 20, 5]",3,22,"[2, 3, 4, 7, 8, 9, 11, 12, 13, 14, 15, 16, 17, 19, 21, 22, 23, 24, 25, 26, 28, 29]",153.2942761,4341,1670,33,251,9,1.0828244018179105
basic,62,0,0,0,0,4,"[0, 20, 5, 4]",4,19,"[2, 3, 7, 8, 9, 11, 12, 13, 14, 15, 17, 19, 21, 22, 23, 24, 25, 26, 28]",128.2144037,5325,984,21,127,9,1.0973859443611045
basic,62,0,0,0,0,24,"[0, 20, 5, 4, 24]",5,13,"[2, 3, 7, 8, 9, 11, 12, 15, 17, 19, 23, 26, 28]",116.8126494,6537,1212,12,49,9,1.098033200508336
basic,62,0,0,0,0,15,"[0, 20, 5, 4, 24, 15]",6,10,"[3, 7, 8, 9, 11, 12, 17, 19, 26, 28]",93.46741437,7341,804,6,13,9,1.092596788004046
basic,62,0,0,0,0,8,"[0, 20, 5, 4, 24, 15, 8]",7,3,"[3, 7, 19]",54.35219994,9263,1922,1,2,9,1.1042162960656867
basic,62,0,0,0,0,7,"[0, 20, 5, 4, 24, 15, 8, 7]",8,1,[3],35.24722676,10074,811,1,0,9,1.2914154847040349
basic,62,0,0,0,1,3,"[0, 20, 5, 4, 24, 15, 8, 7, 3]",9,0,[],11.1640376,11035,961,1,0,9,1.3325135986922938
basic,62,0,0,1,1,3,"[0, 20, 5, 4, 24, 15, 8, 7, 3]",9,0,[],11.1640376,11681,646,1,0,9,1.3325135986922938
basic,63,18,0,0,0,0,[0],1,28,"[1, 2, 3, 4, 5, 6, 7, 8, 9, 10, 11, 12, 13, 14, 16, 17, 18, 19, 20, 21, 22, 23, 24, 25, 26, 27, 28, 29]",300,131,-1,3,136,10,0.0
basic,63,18,0,0,0,28,"[0, 28]",2,16,"[1, 3, 5, 7, 8, 9, 12, 13, 14, 16, 20, 23, 24, 25, 26, 27]",236.4311397,1667,1536,2,19,10,1.0
basic,63,18,0,0,0,7,"[0, 28, 7]",3,15,"[1, 3, 5, 8, 9, 12, 13, 14, 16, 20, 23, 24, 25, 26, 27]",214.4084242,2469,802,2,17,10,1.4345180696367563
basic,63,18,0,0,0,25,"[0, 28, 7, 25]",4,13,"[1, 3, 5, 8, 9, 12, 13, 14, 16, 20, 23, 26, 27]",186.6055466,3525,1056,2,15,10,1.8896451241781882
basic,63,18,0,0,0,8,"[0, 28, 7, 25, 8]",5,10,"[3, 5, 9, 12, 13, 14, 16, 23, 26, 27]",149.551532,4273,748,2,10,10,1.590467437592877
basic,63,18,0,0,0,13,"[0, 28, 7, 25, 8, 13]",6,9,"[3, 5, 9, 12, 14, 16, 23, 26, 27]",128.4565089,5400,1127,2,5,10,1.8248274983549797
basic,63,18,0,0,0,14,"[0, 28, 7, 25, 8, 13, 14]",7,7,"[3, 5, 9, 12, 23, 26, 27]",109.4828429,6053,653,2,3,10,1.6993534956692746
basic,63,18,0,0,0,3,"[0, 28, 7, 25, 8, 13, 14, 3]",8,3,"[5, 12, 27]",79.39962499,7604,1551,2,1,10,1.802637206541468
basic,63,18,0,0,0,5,"[0, 28, 7, 25, 8, 13, 14, 3, 5]",9,1,[12],21.21887216,8668,1064,1,0,10,1.559774889743805
basic,63,18,0,0,1,12,"[0, 28, 7, 25, 8, 13, 14, 3, 5, 12]",10,0,[],9.817117911,9684,1016,1,0,10,1.563993037384447
basic,63,18,0,1,1,12,"[0, 28, 7, 25, 8, 13, 14, 3, 5, 12]",10,0,[],9.817117911,10147,463,1,0,10,1.563993037384447
basic,64,34,0,0,0,0,[0],1,25,"[1, 3, 4, 5, 6, 7, 8, 9, 10, 11, 12, 13, 15, 18, 19, 20, 21, 22, 23, 24, 25, 26, 27, 28, 29]",300,129,-1,12,367,10,0.0
basic,64,34,0,0,0,13,"[0, 13]",2,24,"[1, 3, 4, 5, 6, 7, 8, 9, 10, 11, 12, 15, 18, 19, 20, 21, 22, 23, 24, 25, 26, 27, 28, 29]",279.9750156,1603,1474,12,331,10,1.0
basic,64,34,0,0,0,8,"[0, 13, 8]",3,20,"[1, 3, 4, 5, 7, 9, 10, 11, 12, 18, 19, 21, 22, 23, 24, 25, 26, 27, 28, 29]",214.4616582,2534,931,1,79,10,1.0063334329411766
basic,64,34,0,0,0,1,"[0, 13, 8, 1]",4,13,"[3, 5, 7, 9, 10, 11, 12, 22, 23, 24, 25, 27, 29]",203.6913286,4794,2260,1,44,10,1.0937813141187471
basic,64,34,0,0,0,25,"[0, 13, 8, 1, 25]",5,12,"[3, 5, 7, 9, 10, 11, 12, 22, 23, 24, 27, 29]",183.6913286,6046,1252,1,29,10,1.1426448272826586
basic,64,34,0,0,0,24,"[0, 13, 8, 1, 25, 24]",6,11,"[3, 5, 7, 9, 10, 11, 12, 22, 23, 27, 29]",166.1984729,6826,780,1,24,10,1.377349299931822
basic,64,34,0,0,0,12,"[0, 13, 8, 1, 25, 24, 12]",7,7,"[7, 9, 10, 11, 22, 23, 27]",115.1592723,8109,1283,1,8,10,1.5019265460864815
basic,64,34,0,0,0,7,"[0, 13, 8, 1, 25, 24, 12, 7]",8,5,"[9, 11, 22, 23, 27]",100.1259759,9377,1268,1,4,10,1.7617056238901172
basic,64,34,0,0,0,23,"[0, 13, 8, 1, 25, 24, 12, 7, 23]",9,1,[27],71.96572021,10183,806,1,0,10,2.4030249481951738
basic,64,34,0,0,1,27,"[0, 13, 8, 1, 25, 24, 12, 7, 23, 27]",10,0,[],18.30008875,11183,1000,1,0,10,4.771833908648113
basic,64,34,0,1,1,27,"[0, 13, 8, 1, 25, 24, 12, 7, 23, 27]",10,0,[],18.30008875,11997,814,1,0,10,4.771833908648113
basic,65,45,0,0,0,0,[0],1,24,"[1, 2, 3, 4, 5, 6, 7, 9, 10, 11, 12, 14, 15, 16, 17, 19, 20, 21, 22, 23, 24, 25, 27, 29]",300,130,-1,6,248,10,0.0
basic,65,45,0,0,0,17,"[0, 17]",2,22,"[1, 2, 3, 4, 5, 6, 7, 9, 10, 11, 12, 14, 15, 16, 19, 20, 21, 22, 23, 24, 25, 29]",235.867325,3810,3680,1,34,10,1.0
basic,65,45,0,0,0,24,"[0, 17, 24]",3,20,"[1, 2, 3, 4, 5, 6, 7, 9, 10, 11, 12, 14, 15, 16, 19, 20, 21, 22, 23, 29]",193.8078433,5023,1213,1,33,10,1.0309432256229287
basic,65,45,0,0,0,7,"[0, 17, 24, 7]",4,18,"[1, 2, 3, 4, 5, 6, 9, 10, 12, 14, 15, 16, 19, 20, 21, 22, 23, 29]",159.3985423,5961,938,1,32,10,1.059763151913087
basic,65,45,0,0,0,2,"[0, 17, 24, 7, 2]",5,12,"[3, 4, 6, 10, 12, 14, 16, 19, 20, 22, 23, 29]",121.3853866,7055,1094,1,23,10,1.0656581932115423
basic,65,45,0,0,0,3,"[0, 17, 24, 7, 2, 3]",6,8,"[6, 10, 12, 14, 16, 20, 22, 29]",96.06740884,7977,922,1,13,10,1.1368250049574795
basic,65,45,0,0,0,29,"[0, 17, 24, 7, 2, 3, 29]",7,5,"[6, 10, 12, 20, 22]",76.06740884,8693,716,1,5,10,1.390376182346372
basic,65,45,0,0,0,10,"[0, 17, 24, 7, 2, 3, 29, 10]",8,2,"[6, 12]",54.52674961,9622,929,1,1,10,1.6682270697663164
basic,65,45,0,0,0,6,"[0, 17, 24, 7, 2, 3, 29, 10, 6]",9,1,[12],28.27794012,10583,961,1,0,10,1.5776211572942243
basic,65,45,0,0,1,12,"[0, 17, 24, 7, 2, 3, 29, 10, 6, 12]",10,0,[],8.15332832,11386,803,1,0,10,1.536035114105263
basic,65,45,0,1,1,12,"[0, 17, 24, 7, 2, 3, 29, 10, 6, 12]",10,0,[],8.15332832,11946,560,1,0,10,1.536035114105263
basic,66,37,0,0,0,0,[0],1,29,"[1, 2, 3, 4, 5, 6, 7, 8, 9, 10, 11, 12, 13, 14, 15, 16, 17, 18, 19, 20, 21, 22, 23, 24, 25, 26, 27, 28, 29]",300,130,-1,6,168,10,0.0
basic,66,37,0,0,0,9,"[0, 9]",2,28,"[1, 2, 3, 4, 5, 6, 7, 8, 10, 11, 12, 13, 14, 15, 16, 17, 18, 19, 20, 21, 22, 23, 24, 25, 26, 27, 28, 29]",275.7925631,2043,1913,45,289,9,1.0
basic,66,37,0,0,0,18,"[0, 9, 18]",3,15,"[1, 2, 4, 6, 7, 10, 15, 17, 19, 20, 21, 22, 26, 28, 29]",172.2068498,3715,1672,33,160,9,1.3094770236215172
basic,66,37,0,0,0,22,"[0, 9, 18, 22]",4,8,"[1, 2, 4, 7, 15, 19, 20, 21]",106.7698572,5626,1911,4,19,9,1.186510919682481
basic,66,37,0,0,0,4,"[0, 9, 18, 22, 4]",5,7,"[1, 2, 7, 15, 19, 20, 21]",81.76985723,6437,811,3,10,9,1.3426814493420187
basic,66,37,0,0,0,2,"[0, 9, 18, 22, 4, 2]",6,6,"[1, 7, 15, 19, 20, 21]",70.36810298,7250,813,2,4,9,1.5190098980175892
basic,66,37,0,0,0,1,"[0, 9, 18, 22, 4, 2, 1]",7,3,"[15, 20, 21]",53.16345244,8485,1235,2,2,9,1.5591058782170404
basic,66,37,0,0,0,20,"[0, 9, 18, 22, 4, 2, 1, 20]",8,2,"[15, 21]",18.92896691,9454,969,2,0,9,1.8750990674174632
basic,66,37,0,0,1,15,"[0, 9, 18, 22, 4, 2, 1, 20, 15]",9,0,[],1.928966907,11502,2048,1,0,9,1.7913233198112766
basic,66,37,0,1,1,15,"[0, 9, 18, 22, 4, 2, 1, 20, 15]",9,0,[],1.928966907,13597,2095,1,0,9,1.7913233198112766
basic,67,24,0,0,0,0,[0],1,29,"[1, 2, 3, 4, 5, 6, 7, 8, 9, 10, 11, 12, 13, 14, 15, 16, 17, 18, 19, 20, 21, 22, 23, 24, 25, 26, 27, 28, 29]",300,129,-1,4,76,10,0.0
basic,67,24,0,0,0,14,"[0, 14]",2,27,"[1, 2, 3, 4, 5, 6, 8, 9, 10, 11, 12, 13, 15, 16, 17, 18, 19, 20, 21, 22, 23, 24, 25, 26, 27, 28, 29]",278.0455016,1870,1741,4,54,10,1.0
basic,67,24,0,0,0,10,"[0, 14, 10]",3,20,"[1, 2, 3, 4, 6, 8, 9, 11, 15, 16, 17, 19, 20, 22, 23, 24, 26, 27, 28, 29]",229.342319,2759,889,10,99,9,1.0038790212375874
basic,67,24,0,0,0,24,"[0, 14, 10, 24]",4,14,"[1, 2, 4, 6, 8, 9, 11, 15, 16, 20, 22, 23, 28, 29]",176.0037775,3799,1040,4,26,9,1.0345598967195753
basic,67,24,0,0,0,6,"[0, 14, 10, 24, 6]",5,11,"[1, 8, 9, 11, 15, 16, 20, 22, 23, 28, 29]",138.6674681,5122,1323,4,19,9,1.4136213103786264
basic,67,24,0,0,0,8,"[0, 14, 10, 24, 6, 8]",6,5,"[15, 16, 22, 23, 28]",77.83984283,6287,1165,4,4,9,2.0175546172818692
basic,67,24,0,0,0,22,"[0, 14, 10, 24, 6, 8, 22]",7,3,"[15, 16, 28]",64.42343497,7453,1166,2,1,9,2.235490370965466
basic,67,24,0,0,0,16,"[0, 14, 10, 24, 6, 8, 22, 16]",8,1,[15],46.39567859,8107,654,1,0,9,2.829024350414776
basic,67,24,0,0,1,15,"[0, 14, 10, 24, 6, 8, 22, 16, 15]",9,0,[],15.98186594,8879,772,1,0,9,2.374331903190176
basic,67,24,0,1,1,15,"[0, 14, 10, 24, 6, 8, 22, 16, 15]",9,0,[],15.98186594,9446,567,1,0,9,2.374331903190176
basic,68,14,0,0,0,0,[0],1,29,"[1, 2, 3, 4, 5, 6, 7, 8, 9, 10, 11, 12, 13, 14, 15, 16, 17, 18, 19, 20, 21, 22, 23, 24, 25, 26, 27, 28, 29]",300,130,-1,8,157,10,0.0
basic,68,14,0,0,0,20,"[0, 20]",2,21,"[1, 2, 3, 7, 8, 9, 10, 11, 13, 15, 17, 18, 19, 21, 22, 23, 25, 26, 27, 28, 29]",236.0468922,1838,1708,2,25,9,1.0
basic,68,14,0,0,0,13,"[0, 20, 13]",3,9,"[1, 3, 8, 15, 17, 18, 19, 22, 28]",178.5577628,3767,1929,15,25,7,1.102881585595972
basic,68,14,0,0,0,17,"[0, 20, 13, 17]",4,6,"[1, 8, 15, 18, 19, 28]",101.0658277,6234,2467,3,8,7,1.8407210122454065
basic,68,14,0,0,0,28,"[0, 20, 13, 17, 28]",5,3,"[8, 15, 18]",87.61220366,7052,818,2,1,7,2.164407177777365
basic,68,14,0,0,0,15,"[0, 20, 13, 17, 28, 15]",6,1,[18],68.40283095,8566,1514,1,0,7,2.7804564598469064
basic,68,14,0,0,1,18,"[0, 20, 13, 17, 28, 15, 18]",7,0,[],5.339370846,9551,985,1,0,7,2.453376499383016
basic,68,14,0,1,1,18,"[0, 20, 13, 17, 28, 15, 18]",7,0,[],5.339370846,10331,780,1,0,7,2.453376499383016
undo,69,1,0,0,0,0,[0],1,26,"[1, 2, 4, 5, 7, 8, 9, 10, 11, 12, 13, 14, 15, 16, 17, 18, 19, 20, 21, 22, 23, 24, 25, 26, 28, 29]",300,132,-1,6,74,7,0.0
undo,69,1,0,0,0,24,"[0, 24]",2,8,"[5, 7, 8, 14, 16, 19, 20, 26]",185.4137879,4148,4016,9,13,5,1.0
undo,69,1,0,0,0,26,"[0, 24, 26]",3,6,"[5, 8, 14, 16, 19, 20]",152.1722476,4855,707,7,4,5,1.502125301442057
undo,69,1,0,0,0,19,"[0, 24, 26, 19]",4,4,"[5, 8, 16, 20]",113.5458318,5603,748,4,0,5,1.5438989781695114
undo,69,1,0,0,1,8,"[0, 24, 26, 19, 8]",5,0,[],60.39510274,7344,1741,1,0,5,2.44494793122449
undo,69,1,0,1,1,8,"[0, 24, 26, 19, 8]",5,0,[],60.39510274,10700,3356,1,0,5,2.44494793122449
undo,70,23,0,0,0,0,[0],1,28,"[1, 2, 3, 4, 5, 6, 7, 8, 9, 10, 11, 12, 13, 14, 15, 16, 17, 18, 19, 20, 21, 22, 23, 25, 26, 27, 28, 29]",300,131,-1,76,2626,10,0.0
undo,70,23,0,0,0,22,"[0, 22]",2,24,"[1, 2, 3, 5, 6, 7, 8, 9, 10, 11, 12, 13, 14, 15, 17, 18, 19, 20, 21, 23, 25, 26, 27, 29]",210.5013967,2185,2054,15,1362,10,1.0
undo,70,23,0,0,0,13,"[0, 22, 13]",3,14,"[1, 2, 5, 6, 7, 8, 9, 10, 12, 14, 18, 21, 27, 29]",168.3113504,2933,748,14,522,10,1.1898173563652046
undo,70,23,0,0,0,27,"[0, 22, 13, 27]",4,7,"[2, 6, 9, 12, 14, 18, 29]",123.2114613,3983,1050,59,60,9,1.2347447137291254
undo,70,23,0,0,0,6,"[0, 22, 13, 27, 6]",5,5,"[2, 9, 12, 14, 29]",94.90951791,4887,904,25,4,9,1.3650572476361236
undo,70,23,0,0,0,2,"[0, 22, 13, 27, 6, 2]",6,4,"[9, 12, 14, 29]",76.47042899,6037,1150,7,2,9,1.6380738772667878
undo,70,23,0,0,0,12,"[0, 22, 13, 27, 6, 2, 12]",7,2,"[9, 14]",62.577985,6784,747,2,0,9,1.9367358574807247
undo,70,23,0,0,0,9,"[0, 22, 13, 27, 6, 2, 12, 9]",8,1,[14],48.26016394,7643,859,1,0,9,1.926849993362044
undo,70,23,0,0,1,14,"[0, 22, 13, 27, 6, 2, 12, 9, 14]",9,0,[],37.81985743,8479,836,1,0,9,1.860885019505484
undo,70,23,0,1,1,14,"[0, 22, 13, 27, 6, 2, 12, 9, 14]",9,0,[],37.81985743,9980,1501,1,0,9,1.860885019505484
undo,71,17,0,0,0,0,[0],1,28,"[1, 2, 3, 4, 5, 6, 7, 8, 9, 10, 11, 12, 13, 14, 15, 16, 17, 18, 19, 20, 22, 23, 24, 25, 26, 27, 28, 29]",300,131,-1,2,73,8,0.0
undo,71,17,0,0,0,9,"[0, 9]",2,25,"[1, 2, 3, 5, 6, 7, 8, 10, 11, 12, 14, 15, 16, 17, 18, 19, 20, 22, 23, 24, 25, 26, 27, 28, 29]",210.5293344,1835,1704,1,34,8,1.0
undo,71,17,0,0,0,16,"[0, 9, 16]",3,21,"[1, 2, 3, 5, 7, 8, 10, 11, 12, 14, 17, 18, 19, 20, 22, 23, 25, 26, 27, 28, 29]",197.1876704,2418,583,1,26,8,1.173103464220352
undo,71,17,0,0,0,2,"[0, 9, 16, 2]",4,18,"[1, 3, 5, 7, 8, 10, 11, 12, 14, 17, 18, 19, 23, 25, 26, 27, 28, 29]",181.0631549,2960,542,1,23,8,1.14825089247282
undo,71,17,0,0,0,17,"[0, 9, 16, 2, 17]",5,7,"[7, 8, 12, 14, 26, 27, 29]",142.7356191,4394,1434,4,5,7,1.4896040699768547
undo,71,17,0,0,0,8,"[0, 9, 16, 2, 17, 8]",6,3,"[7, 12, 27]",104.5256727,5260,866,3,0,7,1.4604726966175894
undo,71,17,0,0,1,27,"[0, 9, 16, 2, 17, 8, 27]",7,0,[],21.88790895,7040,1780,1,0,7,1.2949460667276491
undo,71,17,0,1,1,27,"[0, 9, 16, 2, 17, 8, 27]",7,0,[],21.88790895,8265,1225,1,0,7,1.2949460667276491
undo,72,42,0,0,0,0,[0],1,29,"[1, 2, 3, 4, 5, 6, 7, 8, 9, 10, 11, 12, 13, 14, 15, 16, 17, 18, 19, 20, 21, 22, 23, 24, 25, 26, 27, 28, 29]",300,130,-1,16,302,9,0.0
undo,72,42,0,0,0,5,"[0, 5]",2,28,"[1, 2, 3, 4, 6, 7, 8, 9, 10, 11, 12, 13, 14, 15, 16, 17, 18, 19, 20, 21, 22, 23, 24, 25, 26, 27, 28, 29]",191.2939744,2515,2385,1,22,9,1.0
undo,72,42,0,0,0,4,"[0, 5, 4]",3,23,"[1, 2, 3, 6, 7, 8, 9, 10, 11, 13, 15, 17, 18, 19, 20, 21, 22, 23, 24, 25, 26, 27, 29]",171.4445412,3232,717,1,14,9,1.420957801478707
undo,72,42,0,0,0,22,"[0, 5, 4, 22]",4,20,"[1, 2, 3, 6, 7, 8, 9, 11, 15, 17, 18, 19, 20, 21, 23, 24, 25, 26, 27, 29]",160.2642013,3937,705,1,11,9,1.5771494659680896
undo,72,42,0,0,0,8,"[0, 5, 4, 22, 8]",5,14,"[1, 2, 3, 6, 7, 11, 15, 18, 19, 24, 25, 26, 27, 29]",138.1282577,4891,954,1,10,9,1.5055393955524201
undo,72,42,0,0,0,1,"[0, 5, 4, 22, 8, 1]",6,5,"[2, 7, 19, 26, 27]",89.03650682,6025,1134,1,7,9,1.3547259083637835
undo,72,42,0,0,0,7,"[0, 5, 4, 22, 8, 1, 7]",7,4,"[2, 19, 26, 27]",59.03650682,7907,1882,1,3,9,1.3909715672447451
undo,72,42,0,0,0,26,"[0, 5, 4, 22, 8, 1, 7, 26]",8,1,[27],32.46584631,9042,1135,1,0,9,1.3511825943939393
undo,72,42,0,0,1,27,"[0, 5, 4, 22, 8, 1, 7, 26, 27]",9,0,[],14.43808994,9783,741,1,0,9,1.3391911688802078
undo,72,42,0,1,1,27,"[0, 5, 4, 22, 8, 1, 7, 26, 27]",9,0,[],14.43808994,10448,665,1,0,9,1.3391911688802078
undo,73,40,0,0,0,0,[0],1,29,"[1, 2, 3, 4, 5, 6, 7, 8, 9, 10, 11, 12, 13, 14, 15, 16, 17, 18, 19, 20, 21, 22, 23, 24, 25, 26, 27, 28, 29]",300,130,-1,8,191,9,0.0
undo,73,40,0,0,0,2,"[0, 2]",2,28,"[1, 3, 4, 5, 6, 7, 8, 9, 10, 11, 12, 13, 14, 15, 16, 17, 18, 19, 20, 21, 22, 23, 24, 25, 26, 27, 28, 29]",263.7646581,2111,1981,4,79,9,1.0
undo,73,40,0,0,0,1,"[0, 2, 1]",3,13,"[5, 6, 8, 9, 10, 13, 17, 18, 19, 21, 22, 23, 27]",197.9695215,2859,748,3,32,9,1.9563451201211088
undo,73,40,0,0,0,6,"[0, 2, 1, 6]",4,10,"[5, 8, 9, 13, 17, 18, 19, 21, 22, 23]",177.8697703,3520,661,3,29,9,1.767962123020631
undo,73,40,0,0,0,9,"[0, 2, 1, 6, 9]",5,6,"[5, 18, 19, 21, 22, 23]",109.2694788,4933,1413,1,5,9,1.5465201700077729
undo,73,40,0,0,0,18,"[0, 2, 1, 6, 9, 18]",6,5,"[5, 19, 21, 22, 23]",92.71653339,5584,651,1,3,9,1.7498663316327165
undo,73,40,0,0,0,5,"[0, 2, 1, 6, 9, 18, 5]",7,2,"[19, 23]",61.14122659,6316,732,1,1,9,1.9421980158799246
undo,73,40,0,0,0,23,"[0, 2, 1, 6, 9, 18, 5, 23]",8,1,[19],32.83928319,7073,757,1,0,9,2.816747234870858
undo,73,40,0,0,1,19,"[0, 2, 1, 6, 9, 18, 5, 23, 19]",9,0,[],0.886192572,7852,779,1,0,9,2.915582996325632
undo,73,40,0,1,1,19,"[0, 2, 1, 6, 9, 18, 5, 23, 19]",9,0,[],0.886192572,8530,678,1,0,9,2.915582996325632
undo,74,39,0,0,0,0,[0],1,28,"[1, 2, 3, 4, 5, 6, 7, 9, 10, 11, 12, 13, 14, 15, 16, 17, 18, 19, 20, 21, 22, 23, 24, 25, 26, 27, 28, 29]",300,131,-1,1,30,10,0.0
undo,74,39,0,0,0,29,"[0, 29]",2,26,"[1, 2, 3, 4, 5, 6, 7, 9, 10, 12, 13, 14, 15, 16, 17, 18, 19, 20, 21, 22, 23, 24, 25, 26, 27, 28]",243.0614366,3084,2953,8,104,9,1.0
undo,74,39,0,0,0,12,"[0, 29, 12]",3,18,"[1, 2, 4, 5, 7, 9, 10, 13, 14, 15, 16, 18, 19, 22, 23, 24, 26, 28]",182.5221931,4052,968,5,54,9,1.0026200331524904
undo,74,39,0,0,0,10,"[0, 29, 12, 10]",4,16,"[1, 2, 4, 5, 7, 9, 13, 14, 15, 16, 18, 19, 22, 23, 24, 26]",147.0116313,4706,654,5,34,9,1.2874817019928908
undo,74,39,0,0,0,7,"[0, 29, 12, 10, 7]",5,10,"[1, 2, 5, 13, 16, 18, 19, 22, 24, 26]",113.5900814,5289,583,4,12,9,1.2250826263866774
undo,74,39,0,0,0,26,"[0, 29, 12, 10, 7, 26]",6,5,"[1, 16, 18, 19, 22]",94.90853971,5935,646,3,4,9,1.2697275353190085
undo,74,39,0,0,0,22,"[0, 29, 12, 10, 7, 26, 22]",7,2,"[16, 19]",77.18849457,6557,622,2,0,9,1.438961743955176
undo,74,39,0,0,0,16,"[0, 29, 12, 10, 7, 26, 22, 16]",8,1,[19],42.18849457,8250,1693,1,0,9,1.3580882130477205
undo,74,39,0,0,1,19,"[0, 29, 12, 10, 7, 26, 22, 16, 19]",9,0,[],24.72424537,9085,835,1,0,9,1.3646589157842668
undo,74,39,0,1,1,19,"[0, 29, 12, 10, 7, 26, 22, 16, 19]",9,0,[],24.72424537,9914,829,1,0,9,1.3646589157842668
undo,75,25,0,0,0,0,[0],1,28,"[1, 2, 3, 4, 5, 7, 8, 9, 10, 11, 12, 13, 14, 15, 16, 17, 18, 19, 20, 21, 22, 23, 24, 25, 26, 27, 28, 29]",300,130,-1,5,94,10,0.0
undo,75,25,0,0,0,23,"[0, 23]",2,23,"[1, 2, 3, 5, 7, 8, 9, 11, 12, 13, 14, 16, 17, 19, 20, 21, 22, 24, 25, 26, 27, 28, 29]",259.7756293,6272,6142,3,33,10,1.0
undo,75,25,0,0,0,19,"[0, 23, 19]",3,21,"[1, 2, 3, 5, 7, 8, 9, 11, 12, 13, 14, 16, 17, 20, 21, 22, 24, 25, 27, 28, 29]",223.9287326,7076,804,3,24,10,1.583101227007039
undo,75,25,0,0,0,29,"[0, 23, 19, 29]",4,19,"[1, 2, 3, 5, 7, 8, 9, 11, 12, 13, 14, 16, 17, 20, 21, 22, 24, 25, 28]",207.649912,8193,1117,3,17,10,1.474631541426484
undo,75,25,0,0,0,22,"[0, 23, 19, 29, 22]",5,18,"[1, 2, 3, 5, 7, 8, 9, 11, 12, 13, 14, 16, 17, 20, 21, 24, 25, 28]",191.5253965,8850,657,3,14,10,1.4020377754906637
undo,75,25,0,0,0,1,"[0, 23, 19, 29, 22, 1]",6,3,"[5, 20, 21]",107.7996538,10178,1328,2,1,8,6.190356330063188
undo,75,25,0,0,0,21,"[0, 23, 19, 29, 22, 1, 21]",7,1,[20],79.35672846,11134,956,1,0,8,4.394447349021464
undo,75,25,0,0,1,20,"[0, 23, 19, 29, 22, 1, 21, 20]",8,0,[],41.87339884,12494,1360,1,0,8,3.3093153994871796
undo,75,25,0,1,1,20,"[0, 23, 19, 29, 22, 1, 21, 20]",8,0,[],41.87339884,13313,819,1,0,8,3.3093153994871796
undo,76,30,0,0,0,0,[0],1,19,"[3, 4, 5, 7, 9, 11, 16, 17, 18, 19, 20, 21, 22, 24, 25, 26, 27, 28, 29]",300,128,-1,5,41,8,0.0
undo,76,30,0,0,0,16,"[0, 16]",2,17,"[3, 5, 7, 9, 11, 17, 18, 19, 20, 21, 22, 24, 25, 26, 27, 28, 29]",219.3774225,5296,5168,5,34,8,1.0
undo,76,30,0,0,0,26,"[0, 16, 26]",3,8,"[9, 11, 17, 20, 22, 25, 27, 28]",176.927452,6586,1290,7,3,5,1.3420329969668985
undo,76,30,0,0,0,17,"[0, 16, 26, 17]",4,1,[22],74.96177146,7783,1197,1,0,5,1.193219858893313
undo,76,30,0,0,1,22,"[0, 16, 26, 17, 22]",5,0,[],55.7263874,9949,2166,1,0,5,1.223925680162388
undo,76,30,0,1,1,22,"[0, 16, 26, 17, 22]",5,0,[],55.7263874,11063,1114,1,0,5,1.223925680162388
undo,77,45,0,0,0,0,[0],1,24,"[1, 2, 3, 4, 5, 6, 7, 9, 10, 11, 12, 14, 15, 16, 17, 19, 20, 21, 22, 23, 24, 25, 27, 29]",300,132,-1,6,248,10,0.0
undo,77,45,0,0,0,15,"[0, 15]",2,23,"[1, 2, 3, 4, 5, 6, 7, 9, 10, 11, 12, 14, 16, 17, 19, 20, 21, 22, 23, 24, 25, 27, 29]",253.9022777,2420,2288,5,207,10,1.0
