condition,trial_id,map_id,undoIndicator,submit,checkEnd,currentChoice,chosen_all,n_city_all,n_within_reach,cities_reach,currentBudget,time_all,rt_all,n_opt_paths_all,n_subopt_paths_all,mas_all,tortuosity_all
basic,0,28,0,0,0,0,[0],1,27,"[1, 2, 3, 4, 5, 6, 7, 8, 9, 10, 11, 12, 13, 14, 15, 16, 17, 18, 19, 20, 22, 23, 25, 26, 27, 28, 29]",300,192,-1,2,96,9,0.0
basic,0,28,0,0,0,3,"[0, 3]",2,26,"[1, 2, 4, 5, 6, 7, 8, 9, 10, 11, 12, 13, 14, 15, 16, 17, 18, 19, 20, 22, 23, 25, 26, 27, 28, 29]",251.0817008,5166,4974,1,64,9,1.0
basic,0,28,0,0,0,20,"[0, 3, 20]",3,20,"[2, 4, 5, 6, 7, 8, 9, 10, 11, 12, 13, 14, 15, 16, 18, 19, 22, 23, 26, 28]",209.7416475,6726,1560,2,29,8,1.6703057504555512
basic,0,28,0,0,0,15,"[0, 3, 20, 15]",4,10,"[5, 6, 8, 9, 10, 16, 22, 23, 26, 28]",157.2440286,13375,6649,1,6,7,1.4376587969564578
basic,0,28,0,0,0,23,"[0, 3, 20, 15, 23]",5,2,"[16, 22]",88.73855432,14206,831,2,0,6,1.269324093812023
basic,0,28,0,0,1,16,"[0, 3, 20, 15, 23, 16]",6,0,[],48.42726558,15926,1720,1,0,6,1.2537020201649651
basic,0,28,0,1,1,16,"[0, 3, 20, 15, 23, 16]",6,0,[],48.42726558,17492,1566,1,0,6,1.2537020201649651
basic,1,18,0,0,0,0,[0],1,28,"[1, 2, 3, 4, 5, 6, 7, 8, 9, 10, 11, 12, 13, 14, 16, 17, 18, 19, 20, 21, 22, 23, 24, 25, 26, 27, 28, 29]",300,150,-1,3,136,10,0.0
basic,1,18,0,0,0,28,"[0, 28]",2,16,"[1, 3, 5, 7, 8, 9, 12, 13, 14, 16, 20, 23, 24, 25, 26, 27]",236.4311397,3113,2963,2,19,10,1.0
basic,1,18,0,0,0,7,"[0, 28, 7]",3,15,"[1, 3, 5, 8, 9, 12, 13, 14, 16, 20, 23, 24, 25, 26, 27]",214.4084242,4028,915,2,17,10,1.4345180696367563
basic,1,18,0,0,0,25,"[0, 28, 7, 25]",4,13,"[1, 3, 5, 8, 9, 12, 13, 14, 16, 20, 23, 26, 27]",186.6055466,5099,1071,2,15,10,1.8896451241781882
basic,1,18,0,0,0,8,"[0, 28, 7, 25, 8]",5,10,"[3, 5, 9, 12, 13, 14, 16, 23, 26, 27]",149.551532,6385,1286,2,10,10,1.590467437592877
basic,1,18,0,0,0,13,"[0, 28, 7, 25, 8, 13]",6,9,"[3, 5, 9, 12, 14, 16, 23, 26, 27]",128.4565089,7494,1109,2,5,10,1.8248274983549797
basic,1,18,0,0,0,14,"[0, 28, 7, 25, 8, 13, 14]",7,7,"[3, 5, 9, 12, 23, 26, 27]",109.4828429,10106,2612,2,3,10,1.6993534956692746
basic,1,18,0,0,0,3,"[0, 28, 7, 25, 8, 13, 14, 3]",8,3,"[5, 12, 27]",79.39962499,11588,1482,2,1,10,1.802637206541468
basic,1,18,0,0,0,5,"[0, 28, 7, 25, 8, 13, 14, 3, 5]",9,1,[12],21.21887216,13037,1449,1,0,10,1.559774889743805
basic,1,18,0,0,1,12,"[0, 28, 7, 25, 8, 13, 14, 3, 5, 12]",10,0,[],9.817117911,14590,1553,1,0,10,1.563993037384447
basic,1,18,0,1,1,12,"[0, 28, 7, 25, 8, 13, 14, 3, 5, 12]",10,0,[],9.817117911,15843,1253,1,0,10,1.563993037384447
basic,2,39,0,0,0,0,[0],1,28,"[1, 2, 3, 4, 5, 6, 7, 9, 10, 11, 12, 13, 14, 15, 16, 17, 18, 19, 20, 21, 22, 23, 24, 25, 26, 27, 28, 29]",300,156,-1,1,30,10,0.0
basic,2,39,0,0,0,29,"[0, 29]",2,26,"[1, 2, 3, 4, 5, 6, 7, 9, 10, 12, 13, 14, 15, 16, 17, 18, 19, 20, 21, 22, 23, 24, 25, 26, 27, 28]",243.0614366,3150,2994,8,104,9,1.0
basic,2,39,0,0,0,10,"[0, 29, 10]",3,19,"[1, 2, 4, 5, 7, 9, 12, 13, 14, 15, 16, 17, 18, 19, 22, 23, 24, 26, 28]",178.4239862,4689,1539,3,48,9,1.0231293692376968
basic,2,39,0,0,0,7,"[0, 29, 10, 7]",4,14,"[1, 2, 4, 5, 9, 12, 13, 15, 16, 18, 19, 22, 24, 26]",145.0024362,5880,1191,2,20,9,1.0186411966151707
basic,2,39,0,0,0,26,"[0, 29, 10, 7, 26]",5,9,"[1, 2, 5, 12, 13, 16, 18, 19, 22]",126.3208945,6829,949,1,9,9,1.0752526811750318
basic,2,39,0,0,0,22,"[0, 29, 10, 7, 26, 22]",6,6,"[1, 5, 12, 16, 18, 19]",108.6008494,7880,1051,1,3,9,1.2360944063790367
basic,2,39,0,0,0,16,"[0, 29, 10, 7, 26, 22, 16]",7,2,"[18, 19]",73.6008494,9463,1583,1,1,9,1.1926155792040818
basic,2,39,0,0,0,19,"[0, 29, 10, 7, 26, 22, 16, 19]",8,1,[18],56.1366002,10631,1168,1,0,9,1.2089345217410772
basic,2,39,0,0,1,18,"[0, 29, 10, 7, 26, 22, 16, 19, 18]",9,0,[],12.96253391,11958,1327,1,0,9,1.2243548998729528
basic,2,39,0,1,1,18,"[0, 29, 10, 7, 26, 22, 16, 19, 18]",9,0,[],12.96253391,13280,1322,1,0,9,1.2243548998729528
basic,3,9,0,0,0,0,[0],1,27,"[1, 3, 4, 5, 6, 7, 8, 9, 10, 11, 13, 14, 15, 16, 17, 18, 19, 20, 21, 22, 23, 24, 25, 26, 27, 28, 29]",300,159,-1,2,182,10,0.0
basic,3,9,0,0,0,25,"[0, 25]",2,24,"[1, 3, 4, 5, 6, 7, 8, 9, 10, 11, 13, 15, 16, 17, 18, 19, 20, 21, 22, 23, 24, 26, 27, 28]",275.9168108,2886,2727,2,104,10,1.0
basic,3,9,0,0,0,10,"[0, 25, 10]",3,20,"[3, 4, 5, 7, 8, 9, 11, 13, 15, 16, 17, 18, 19, 20, 21, 22, 23, 26, 27, 28]",236.0670932,3821,935,2,76,10,1.1767014107208227
basic,3,9,0,0,0,20,"[0, 25, 10, 20]",4,13,"[8, 9, 15, 16, 17, 18, 19, 21, 22, 23, 26, 27, 28]",153.6049806,7480,3659,7,31,9,1.1559102626209
basic,3,9,0,0,0,21,"[0, 25, 10, 20, 21]",5,11,"[8, 9, 15, 16, 17, 18, 19, 22, 23, 26, 28]",141.5219347,8117,637,7,23,9,1.3369987418374067
basic,3,9,0,0,0,28,"[0, 25, 10, 20, 21, 28]",6,4,"[8, 9, 23, 26]",88.52193467,9584,1467,4,4,9,2.8471728698277694
basic,3,9,0,0,0,8,"[0, 25, 10, 20, 21, 28, 8]",7,3,"[9, 23, 26]",77.70528084,10692,1108,2,1,9,3.4852880207547177
basic,3,9,0,0,0,23,"[0, 25, 10, 20, 21, 28, 8, 23]",8,1,[9],56.23437029,11361,669,1,0,9,4.094155669069095
basic,3,9,0,0,1,9,"[0, 25, 10, 20, 21, 28, 8, 23, 9]",9,0,[],33.87369051,12774,1413,1,0,9,3.573855889055686
basic,3,9,0,1,1,9,"[0, 25, 10, 20, 21, 28, 8, 23, 9]",9,0,[],33.87369051,14129,1355,1,0,9,3.573855889055686
basic,4,37,0,0,0,0,[0],1,29,"[1, 2, 3, 4, 5, 6, 7, 8, 9, 10, 11, 12, 13, 14, 15, 16, 17, 18, 19, 20, 21, 22, 23, 24, 25, 26, 27, 28, 29]",300,142,-1,6,168,10,0.0
basic,4,37,0,0,0,18,"[0, 18]",2,19,"[1, 2, 4, 6, 7, 9, 10, 12, 14, 15, 17, 19, 20, 21, 22, 23, 26, 28, 29]",202.4090168,5913,5771,6,89,10,1.0
basic,4,37,0,0,0,7,"[0, 18, 7]",3,12,"[1, 2, 4, 9, 15, 17, 19, 20, 21, 22, 26, 29]",175.2428614,7895,1982,6,53,10,1.0413073512834488
basic,4,37,0,0,0,22,"[0, 18, 7, 22]",4,8,"[1, 2, 4, 15, 19, 20, 21, 26]",125.2428614,9210,1315,6,29,10,1.0730792320325544
basic,4,37,0,0,0,2,"[0, 18, 7, 22, 2]",5,7,"[1, 4, 15, 19, 20, 21, 26]",97.58422802,11675,2465,2,13,10,1.338975835424605
basic,4,37,0,0,0,4,"[0, 18, 7, 22, 2, 4]",6,5,"[1, 15, 19, 20, 21]",86.18247377,12714,1039,2,6,10,1.3155324116512812
basic,4,37,0,0,0,1,"[0, 18, 7, 22, 2, 4, 1]",7,4,"[15, 19, 20, 21]",68.46242863,13839,1125,2,4,10,1.4624721991921241
basic,4,37,0,0,0,20,"[0, 18, 7, 22, 2, 4, 1, 20]",8,2,"[15, 21]",34.22794309,14860,1021,2,0,10,1.7730355582319604
basic,4,37,0,0,0,21,"[0, 18, 7, 22, 2, 4, 1, 20, 21]",9,1,[15],19.80573799,16188,1328,1,0,10,1.8054518555969565
basic,4,37,0,0,1,15,"[0, 18, 7, 22, 2, 4, 1, 20, 21, 15]",10,0,[],4.805737987,17241,1053,1,0,10,1.7740347323632142
basic,4,37,0,1,1,15,"[0, 18, 7, 22, 2, 4, 1, 20, 21, 15]",10,0,[],4.805737987,18658,1417,1,0,10,1.7740347323632142
basic,5,32,0,0,0,0,[0],1,29,"[1, 2, 3, 4, 5, 6, 7, 8, 9, 10, 11, 12, 13, 14, 15, 16, 17, 18, 19, 20, 21, 22, 23, 24, 25, 26, 27, 28, 29]",300,210,-1,17,359,10,0.0
basic,5,32,0,0,0,15,"[0, 15]",2,24,"[2, 3, 4, 5, 6, 7, 8, 9, 10, 11, 12, 13, 14, 16, 17, 19, 20, 22, 23, 24, 25, 26, 27, 28]",214.6185032,5432,5222,11,153,9,1.0
basic,5,32,0,0,0,28,"[0, 15, 28]",3,21,"[2, 3, 5, 7, 8, 9, 10, 11, 12, 13, 14, 16, 17, 19, 20, 22, 23, 24, 25, 26, 27]",203.2167489,6414,982,11,119,9,1.000160051986942
basic,5,32,0,0,0,12,"[0, 15, 28, 12]",4,19,"[2, 3, 5, 7, 8, 9, 10, 11, 13, 16, 17, 19, 20, 22, 23, 24, 25, 26, 27]",184.243083,7414,1000,8,71,9,1.0281484763748023
basic,5,32,0,0,0,16,"[0, 15, 28, 12, 16]",5,17,"[2, 3, 5, 7, 8, 9, 10, 11, 13, 17, 19, 20, 22, 23, 24, 26, 27]",168.5906071,8878,1464,6,38,9,1.1190771370096
basic,5,32,0,0,0,22,"[0, 15, 28, 12, 16, 22]",6,10,"[2, 3, 5, 8, 9, 10, 11, 17, 20, 27]",134.7527585,9879,1001,4,16,9,1.1702311155319893
basic,5,32,0,0,0,9,"[0, 15, 28, 12, 16, 22, 9]",7,6,"[2, 8, 10, 17, 20, 27]",112.5491552,10941,1062,2,4,9,1.2381424719932013
basic,5,32,0,0,0,8,"[0, 15, 28, 12, 16, 22, 9, 8]",8,1,[20],67.42709849,11961,1020,1,0,9,1.187013645273504
basic,5,32,0,0,1,20,"[0, 15, 28, 12, 16, 22, 9, 8, 20]",9,0,[],17.09818036,13522,1561,1,0,9,1.3986201165175596
basic,5,32,0,1,1,20,"[0, 15, 28, 12, 16, 22, 9, 8, 20]",9,0,[],17.09818036,14629,1107,1,0,9,1.3986201165175596
basic,6,17,0,0,0,0,[0],1,28,"[1, 2, 3, 4, 5, 6, 7, 8, 9, 10, 11, 12, 13, 14, 15, 16, 17, 18, 19, 20, 22, 23, 24, 25, 26, 27, 28, 29]",300,299,-1,2,73,8,0.0
basic,6,17,0,0,0,16,"[0, 16]",2,23,"[1, 2, 3, 5, 7, 8, 9, 10, 11, 12, 14, 17, 18, 19, 20, 22, 23, 24, 25, 26, 27, 28, 29]",212.3586855,4222,3923,1,29,8,1.0
basic,6,17,0,0,0,9,"[0, 16, 9]",3,22,"[1, 2, 3, 5, 7, 8, 10, 11, 12, 14, 17, 18, 19, 20, 22, 23, 24, 25, 26, 27, 28, 29]",199.0170215,5137,915,1,16,8,1.1286713677732607
basic,6,17,0,0,0,2,"[0, 16, 9, 2]",4,18,"[1, 3, 5, 7, 8, 10, 11, 12, 14, 17, 18, 19, 23, 25, 26, 27, 28, 29]",177.0625231,5970,833,1,12,8,1.1868741553560993
basic,6,17,0,0,0,17,"[0, 16, 9, 2, 17]",5,5,"[7, 8, 14, 27, 29]",138.7349873,9084,3114,2,4,7,1.527497948919145
basic,6,17,0,0,0,8,"[0, 16, 9, 2, 17, 8]",6,2,"[7, 27]",100.5250409,10332,1248,2,0,7,1.4903631359086424
basic,6,17,0,0,1,7,"[0, 16, 9, 2, 17, 8, 7]",7,0,[],29.81436282,11782,1450,1,0,7,1.4692249631631122
basic,6,17,0,1,1,7,"[0, 16, 9, 2, 17, 8, 7]",7,0,[],29.81436282,13402,1620,1,0,7,1.4692249631631122
basic,7,16,0,0,0,0,[0],1,29,"[1, 2, 3, 4, 5, 6, 7, 8, 9, 10, 11, 12, 13, 14, 15, 16, 17, 18, 19, 20, 21, 22, 23, 24, 25, 26, 27, 28, 29]",300,161,-1,13,161,9,0.0
basic,7,16,0,0,0,28,"[0, 28]",2,27,"[1, 2, 3, 4, 5, 7, 8, 9, 10, 11, 12, 13, 14, 15, 16, 17, 18, 19, 20, 21, 22, 23, 24, 25, 26, 27, 29]",284.3475242,3005,2844,11,92,9,1.0
basic,7,16,0,0,0,17,"[0, 28, 17]",3,26,"[1, 2, 3, 4, 5, 7, 8, 9, 10, 11, 12, 13, 14, 15, 16, 18, 19, 20, 21, 22, 23, 24, 25, 26, 27, 29]",219.1555001,5186,2181,10,46,9,1.3773866384707543
basic,7,16,0,0,0,16,"[0, 28, 17, 16]",4,25,"[1, 2, 3, 4, 5, 7, 8, 9, 10, 11, 12, 13, 14, 15, 18, 19, 20, 21, 22, 23, 24, 25, 26, 27, 29]",190.8358956,6116,930,10,34,9,1.3209953830681203
basic,7,16,0,0,0,8,"[0, 28, 17, 16, 8]",5,12,"[3, 4, 5, 9, 12, 13, 15, 19, 20, 21, 25, 29]",142.4623491,7138,1022,6,19,9,1.2700932705506198
basic,7,16,0,0,0,20,"[0, 28, 17, 16, 8, 20]",6,6,"[4, 5, 9, 12, 15, 25]",84.6869218,8997,1859,4,4,9,1.1899382910703262
basic,7,16,0,0,0,25,"[0, 28, 17, 16, 8, 20, 25]",7,3,"[5, 9, 15]",72.03781116,10015,1018,2,2,9,1.2372268181049477
basic,7,16,0,0,0,9,"[0, 28, 17, 16, 8, 20, 25, 9]",8,2,"[5, 15]",59.23156268,10782,767,2,0,9,1.221922950237529
basic,7,16,0,0,1,15,"[0, 28, 17, 16, 8, 20, 25, 9, 15]",9,0,[],20.334262,12530,1748,1,0,9,1.318239760375411
basic,7,16,0,1,1,15,"[0, 28, 17, 16, 8, 20, 25, 9, 15]",9,0,[],20.334262,13381,851,1,0,9,1.318239760375411
basic,8,21,0,0,0,0,[0],1,29,"[1, 2, 3, 4, 5, 6, 7, 8, 9, 10, 11, 12, 13, 14, 15, 16, 17, 18, 19, 20, 21, 22, 23, 24, 25, 26, 27, 28, 29]",300,152,-1,84,830,9,0.0
basic,8,21,0,0,0,25,"[0, 25]",2,26,"[1, 2, 3, 4, 5, 6, 7, 8, 9, 10, 11, 12, 13, 14, 15, 16, 17, 18, 20, 21, 22, 23, 24, 26, 27, 29]",240.1836143,4618,4466,30,238,9,1.0
basic,8,21,0,0,0,21,"[0, 25, 21]",3,18,"[1, 3, 4, 6, 8, 9, 11, 12, 14, 15, 16, 17, 18, 20, 22, 23, 24, 29]",190.8480288,5784,1166,15,84,9,1.2142997420204755
basic,8,21,0,0,0,23,"[0, 25, 21, 23]",4,14,"[1, 4, 6, 8, 9, 14, 15, 16, 17, 18, 20, 22, 24, 29]",161.233843,8147,2363,9,27,9,1.4013924134357778
basic,8,21,0,0,0,14,"[0, 25, 21, 23, 14]",5,9,"[4, 8, 15, 16, 17, 18, 22, 24, 29]",132.1649593,9427,1280,7,9,9,1.4652634639575024
basic,8,21,0,0,0,4,"[0, 25, 21, 23, 14, 4]",6,7,"[8, 15, 16, 17, 18, 24, 29]",118.0228236,10360,933,7,2,9,1.422739117765393
basic,8,21,0,0,0,16,"[0, 25, 21, 23, 14, 4, 16]",7,3,"[8, 15, 24]",73.42461739,12009,1649,3,1,9,1.3881533988257628
basic,8,21,0,0,0,8,"[0, 25, 21, 23, 14, 4, 16, 8]",8,1,[15],54.82354215,13425,1416,1,0,9,1.353244899801389
basic,8,21,0,0,1,15,"[0, 25, 21, 23, 14, 4, 16, 8, 15]",9,0,[],29.82354215,14340,915,1,0,9,1.604898534974819
basic,8,21,0,1,1,15,"[0, 25, 21, 23, 14, 4, 16, 8, 15]",9,0,[],29.82354215,15644,1304,1,0,9,1.604898534974819
basic,9,42,0,0,0,0,[0],1,29,"[1, 2, 3, 4, 5, 6, 7, 8, 9, 10, 11, 12, 13, 14, 15, 16, 17, 18, 19, 20, 21, 22, 23, 24, 25, 26, 27, 28, 29]",300,152,-1,16,302,9,0.0
basic,9,42,0,0,0,3,"[0, 3]",2,25,"[1, 2, 4, 5, 6, 7, 8, 9, 10, 11, 13, 15, 17, 18, 19, 20, 21, 22, 23, 24, 25, 26, 27, 28, 29]",255.7959278,4152,4000,3,45,9,1.0
basic,9,42,0,0,0,22,"[0, 3, 22]",3,24,"[1, 2, 4, 5, 6, 7, 8, 9, 10, 11, 13, 15, 17, 18, 19, 20, 21, 23, 24, 25, 26, 27, 28, 29]",172.3453436,5696,1544,2,25,9,1.4407938054716964
basic,9,42,0,0,0,4,"[0, 3, 22, 4]",4,20,"[1, 2, 5, 7, 8, 9, 11, 13, 15, 17, 18, 19, 20, 21, 23, 24, 25, 26, 27, 29]",161.1650037,6593,897,2,16,9,1.534580273387445
basic,9,42,0,0,0,5,"[0, 3, 22, 4, 5]",5,14,"[1, 2, 7, 8, 11, 15, 18, 20, 21, 24, 25, 26, 27, 29]",141.3155705,7416,823,1,7,9,1.4597574387977212
basic,9,42,0,0,0,8,"[0, 3, 22, 4, 5, 8]",6,5,"[1, 2, 7, 24, 26]",106.8336912,9099,1683,1,3,9,1.7966044206336076
basic,9,42,0,0,0,1,"[0, 3, 22, 4, 5, 8, 1]",7,2,"[7, 26]",57.74194035,11296,2197,1,1,9,1.5556875029452142
basic,9,42,0,0,0,7,"[0, 3, 22, 4, 5, 8, 1, 7]",8,1,[26],27.74194035,12321,1025,1,0,9,1.5716207253166026
basic,9,42,0,0,1,26,"[0, 3, 22, 4, 5, 8, 1, 7, 26]",9,0,[],1.171279836,13971,1650,1,0,9,1.5092359604242425
basic,9,42,0,1,1,26,"[0, 3, 22, 4, 5, 8, 1, 7, 26]",9,0,[],1.171279836,15127,1156,1,0,9,1.5092359604242425
basic,10,13,0,0,0,0,[0],1,29,"[1, 2, 3, 4, 5, 6, 7, 8, 9, 10, 11, 12, 13, 14, 15, 16, 17, 18, 19, 20, 21, 22, 23, 24, 25, 26, 27, 28, 29]",300,142,-1,60,2676,11,0.0
basic,10,13,0,0,0,9,"[0, 9]",2,28,"[1, 2, 3, 4, 5, 6, 7, 8, 10, 11, 12, 13, 14, 15, 16, 17, 18, 19, 20, 21, 22, 23, 24, 25, 26, 27, 28, 29]",268.9516506,2501,2359,24,557,11,1.0
basic,10,13,0,0,0,21,"[0, 9, 21]",3,27,"[1, 2, 3, 4, 5, 6, 7, 8, 10, 11, 12, 13, 14, 15, 16, 17, 18, 19, 20, 22, 23, 24, 25, 26, 27, 28, 29]",245.6064155,3554,1053,23,375,11,1.8983491882127779
basic,10,13,0,0,0,24,"[0, 9, 21, 24]",4,24,"[1, 2, 3, 4, 5, 6, 7, 8, 10, 11, 12, 13, 14, 15, 16, 17, 19, 20, 22, 23, 26, 27, 28, 29]",207.1876701,4818,1264,23,335,11,8.301387152261452
basic,10,13,0,0,0,23,"[0, 9, 21, 24, 23]",5,21,"[1, 2, 3, 4, 6, 7, 8, 10, 11, 12, 13, 15, 16, 17, 19, 20, 22, 26, 27, 28, 29]",161.4820906,6497,1679,9,132,11,2.4509726913097616
basic,10,13,0,0,0,16,"[0, 9, 21, 24, 23, 16]",6,12,"[2, 3, 4, 6, 7, 8, 11, 20, 26, 27, 28, 29]",121.1708019,8750,2253,7,30,10,1.9427630097398245
basic,10,13,0,0,0,3,"[0, 9, 21, 24, 23, 16, 3]",7,4,"[4, 8, 20, 27]",92.72787655,9829,1079,3,4,10,2.035408193679108
basic,10,13,0,0,0,20,"[0, 9, 21, 24, 23, 16, 3, 20]",8,3,"[4, 8, 27]",73.70157896,10778,949,2,1,10,2.056918414669503
basic,10,13,0,0,0,4,"[0, 9, 21, 24, 23, 16, 3, 20, 4]",9,1,[27],51.67886341,12506,1728,1,0,10,1.9157821456342439
basic,10,13,0,0,1,27,"[0, 9, 21, 24, 23, 16, 3, 20, 4, 27]",10,0,[],29.65614787,13688,1182,1,0,10,1.9119065184221016
basic,10,13,0,1,1,27,"[0, 9, 21, 24, 23, 16, 3, 20, 4, 27]",10,0,[],29.65614787,14994,1306,1,0,10,1.9119065184221016
basic,11,19,0,0,0,0,[0],1,29,"[1, 2, 3, 4, 5, 6, 7, 8, 9, 10, 11, 12, 13, 14, 15, 16, 17, 18, 19, 20, 21, 22, 23, 24, 25, 26, 27, 28, 29]",300,152,-1,12,149,8,0.0
basic,11,19,0,0,0,5,"[0, 5]",2,22,"[1, 4, 6, 7, 9, 10, 11, 12, 13, 14, 15, 16, 17, 19, 20, 21, 22, 23, 25, 27, 28, 29]",246.5397344,3468,3316,18,50,6,1.0
basic,11,19,0,0,0,29,"[0, 5, 29]",3,16,"[1, 4, 6, 9, 10, 12, 13, 15, 16, 17, 19, 21, 23, 25, 27, 28]",169.0155446,4782,1314,8,11,6,3.7500740491524587
basic,11,19,0,0,0,9,"[0, 5, 29, 9]",4,4,"[4, 6, 10, 28]",85.65488242,9547,4765,3,1,6,1.8801479953990083
basic,11,19,0,0,0,6,"[0, 5, 29, 9, 6]",5,1,[4],44.21818371,11074,1527,1,0,6,1.6637997371163815
basic,11,19,0,0,1,4,"[0, 5, 29, 9, 6, 4]",6,0,[],3.169432209,13692,2618,1,0,6,1.8010913689975492
basic,11,19,0,1,1,4,"[0, 5, 29, 9, 6, 4]",6,0,[],3.169432209,14695,1003,1,0,6,1.8010913689975492
basic,12,22,0,0,0,0,[0],1,29,"[1, 2, 3, 4, 5, 6, 7, 8, 9, 10, 11, 12, 13, 14, 15, 16, 17, 18, 19, 20, 21, 22, 23, 24, 25, 26, 27, 28, 29]",300,193,-1,31,704,9,0.0
basic,12,22,0,0,0,29,"[0, 29]",2,22,"[1, 3, 5, 6, 7, 8, 9, 11, 13, 14, 15, 16, 17, 19, 20, 21, 22, 23, 24, 25, 27, 28]",222.9935068,3635,3442,11,235,9,1.0
basic,12,22,0,0,0,19,"[0, 29, 19]",3,18,"[1, 3, 6, 7, 8, 9, 13, 14, 15, 16, 17, 20, 21, 22, 23, 24, 25, 28]",207.9602104,4519,884,11,172,9,1.1559285443414686
basic,12,22,0,0,0,9,"[0, 29, 19, 9]",4,16,"[1, 3, 6, 7, 8, 13, 14, 15, 16, 17, 20, 21, 22, 24, 25, 28]",187.5641323,6265,1746,7,84,9,1.2555028175473422
basic,12,22,0,0,0,6,"[0, 29, 19, 9, 6]",5,13,"[3, 7, 13, 14, 15, 16, 17, 20, 21, 22, 24, 25, 28]",160.9370784,7626,1361,17,16,8,1.5692551066355458
basic,12,22,0,0,0,16,"[0, 29, 19, 9, 6, 16]",6,5,"[7, 14, 22, 25, 28]",126.4987277,9542,1916,4,2,8,2.1316196867673534
basic,12,22,0,0,0,28,"[0, 29, 19, 9, 6, 16, 28]",7,2,"[7, 14]",92.06037699,10765,1223,2,0,8,1.8800559086622874
basic,12,22,0,0,1,14,"[0, 29, 19, 9, 6, 16, 28, 14]",8,0,[],12.81392597,12610,1845,1,0,8,2.2169426471962033
basic,12,22,0,1,1,14,"[0, 29, 19, 9, 6, 16, 28, 14]",8,0,[],12.81392597,16244,3634,1,0,8,2.2169426471962033
basic,13,36,0,0,0,0,[0],1,24,"[2, 4, 5, 6, 7, 8, 9, 10, 12, 13, 14, 15, 16, 17, 18, 19, 20, 22, 23, 25, 26, 27, 28, 29]",300,146,-1,2,200,10,0.0
basic,13,36,0,0,0,18,"[0, 18]",2,21,"[2, 4, 5, 6, 7, 8, 9, 10, 12, 13, 14, 16, 17, 19, 22, 23, 25, 26, 27, 28, 29]",279.6039219,4035,3889,2,110,10,1.0
basic,13,36,0,0,0,12,"[0, 18, 12]",3,19,"[2, 4, 5, 6, 7, 8, 9, 10, 13, 16, 17, 19, 22, 23, 25, 26, 27, 28, 29]",237.0245842,5266,1231,2,86,10,2.836270082716982
basic,13,36,0,0,0,13,"[0, 18, 12, 13]",4,12,"[2, 4, 8, 9, 10, 16, 17, 19, 23, 25, 27, 29]",157.8475674,8876,3610,1,14,10,1.4493282584127862
basic,13,36,0,0,0,25,"[0, 18, 12, 13, 25]",5,10,"[2, 4, 8, 9, 10, 16, 17, 19, 27, 29]",137.2563071,10532,1656,1,11,10,1.421464278177825
basic,13,36,0,0,0,2,"[0, 18, 12, 13, 25, 2]",6,5,"[9, 10, 16, 17, 19]",112.2563071,11579,1047,1,8,10,1.662490515369399
basic,13,36,0,0,0,19,"[0, 18, 12, 13, 25, 2, 19]",7,3,"[9, 16, 17]",75.1348847,12860,1281,1,3,10,2.9173753540154053
basic,13,36,0,0,0,9,"[0, 18, 12, 13, 25, 2, 19, 9]",8,2,"[16, 17]",60.00213875,13777,917,1,1,10,3.4749469749834145
basic,13,36,0,0,0,17,"[0, 18, 12, 13, 25, 2, 19, 9, 17]",9,1,[16],33.75332925,14892,1115,1,0,10,2.8169913855566038
basic,13,36,0,0,1,16,"[0, 18, 12, 13, 25, 2, 19, 9, 17, 16]",10,0,[],5.433724734,15957,1065,1,0,10,2.759713350365542
basic,13,36,0,1,1,16,"[0, 18, 12, 13, 25, 2, 19, 9, 17, 16]",10,0,[],5.433724734,16730,773,1,0,10,2.759713350365542
basic,14,2,0,0,0,0,[0],1,23,"[1, 2, 4, 5, 6, 7, 8, 9, 12, 13, 15, 16, 17, 18, 19, 20, 22, 23, 25, 26, 27, 28, 29]",300,149,-1,70,620,10,0.0
basic,14,2,0,0,0,20,"[0, 20]",2,19,"[1, 4, 5, 6, 7, 8, 12, 13, 15, 16, 17, 18, 19, 22, 25, 26, 27, 28, 29]",254.6458381,3483,3334,2,35,9,1.0
basic,14,2,0,0,0,16,"[0, 20, 16]",3,17,"[1, 4, 5, 6, 7, 12, 13, 15, 17, 18, 19, 22, 25, 26, 27, 28, 29]",216.5669726,4656,1173,2,23,9,1.534307260428795
basic,14,2,0,0,0,4,"[0, 20, 16, 4]",4,9,"[5, 12, 13, 15, 18, 19, 22, 25, 29]",169.7481729,6688,2032,2,9,7,1.2944530648406636
basic,14,2,0,0,0,12,"[0, 20, 16, 4, 12]",5,4,"[5, 13, 19, 22]",46.4882849,8163,1475,2,3,7,2.2400482549815335
basic,14,2,0,0,1,13,"[0, 20, 16, 4, 12, 13]",6,0,[],11.66013537,10601,2438,1,0,6,1.9492659976194104
basic,14,2,0,1,1,13,"[0, 20, 16, 4, 12, 13]",6,0,[],11.66013537,12499,1898,1,0,6,1.9492659976194104
basic,15,30,0,0,0,0,[0],1,19,"[3, 4, 5, 7, 9, 11, 16, 17, 18, 19, 20, 21, 22, 24, 25, 26, 27, 28, 29]",300,142,-1,5,41,8,0.0
basic,15,30,0,0,0,16,"[0, 16]",2,17,"[3, 5, 7, 9, 11, 17, 18, 19, 20, 21, 22, 24, 25, 26, 27, 28, 29]",219.3774225,4683,4541,5,34,8,1.0
basic,15,30,0,0,0,25,"[0, 16, 25]",3,10,"[3, 5, 7, 9, 11, 18, 19, 20, 27, 29]",115.0845656,6114,1431,5,28,8,1.0336279544884488
basic,15,30,0,0,0,27,"[0, 16, 25, 27]",4,7,"[3, 5, 7, 18, 19, 20, 29]",75.52448473,7412,1298,1,12,8,1.0719738181137488
basic,15,30,0,0,0,3,"[0, 16, 25, 27, 3]",5,5,"[5, 7, 18, 20, 29]",56.41951155,8631,1219,1,4,8,1.0683252001879187
basic,15,30,0,0,0,29,"[0, 16, 25, 27, 3, 29]",6,2,"[5, 18]",37.81843632,10022,1391,1,1,8,1.0768958290478794
basic,15,30,0,0,0,18,"[0, 16, 25, 27, 3, 29, 18]",7,1,[5],18.5052284,12127,2105,1,0,8,1.1525061930327378
basic,15,30,0,0,1,5,"[0, 16, 25, 27, 3, 29, 18, 5]",8,0,[],5.466823591,13892,1765,1,0,8,1.2180155123152177
basic,15,30,0,1,1,5,"[0, 16, 25, 27, 3, 29, 18, 5]",8,0,[],5.466823591,15161,1269,1,0,8,1.2180155123152177
basic,16,31,0,0,0,0,[0],1,27,"[1, 3, 4, 5, 6, 7, 8, 10, 11, 12, 13, 14, 15, 16, 17, 18, 19, 20, 21, 22, 23, 24, 25, 26, 27, 28, 29]",300,143,-1,2,87,10,0.0
basic,16,31,0,0,0,14,"[0, 14]",2,25,"[1, 3, 5, 6, 7, 8, 10, 11, 12, 13, 15, 16, 17, 18, 19, 20, 21, 22, 23, 24, 25, 26, 27, 28, 29]",263.861378,4602,4459,2,59,10,1.0
basic,16,31,0,0,0,27,"[0, 14, 27]",3,22,"[1, 3, 5, 6, 7, 8, 10, 11, 12, 13, 15, 16, 17, 18, 19, 20, 21, 22, 24, 25, 28, 29]",235.6833724,6095,1493,1,39,10,1.5881859159302467
basic,16,31,0,0,0,8,"[0, 14, 27, 8]",4,20,"[1, 3, 5, 6, 7, 10, 11, 12, 13, 16, 17, 18, 19, 20, 21, 22, 24, 25, 28, 29]",224.6380114,7085,990,1,36,10,2.1665048452331277
basic,16,31,0,0,0,18,"[0, 14, 27, 8, 18]",5,15,"[1, 5, 6, 7, 11, 12, 13, 16, 17, 19, 20, 22, 25, 28, 29]",188.7911147,8533,1448,1,26,10,1.7273375741920205
basic,16,31,0,0,0,17,"[0, 14, 27, 8, 18, 17]",6,13,"[1, 5, 6, 7, 11, 12, 13, 16, 19, 20, 22, 25, 28]",159.584951,9725,1192,1,13,10,1.551192427769927
basic,16,31,0,0,0,11,"[0, 14, 27, 8, 18, 17, 11]",7,7,"[5, 12, 16, 19, 22, 25, 28]",118.4753414,11059,1334,1,4,10,2.9650760544203494
basic,16,31,0,0,0,5,"[0, 14, 27, 8, 18, 17, 11, 5]",8,2,"[16, 28]",74.79468207,12438,1379,1,1,10,2.56711965625205
basic,16,31,0,0,0,28,"[0, 14, 27, 8, 18, 17, 11, 5, 28]",9,1,[16],54.57093365,13812,1374,1,0,10,2.2865510762058148
basic,16,31,0,0,1,16,"[0, 14, 27, 8, 18, 17, 11, 5, 28, 16]",10,0,[],20.95546102,14879,1067,1,0,10,2.089356850786318
basic,16,31,0,1,1,16,"[0, 14, 27, 8, 18, 17, 11, 5, 28, 16]",10,0,[],20.95546102,15577,698,1,0,10,2.089356850786318
basic,17,43,0,0,0,0,[0],1,23,"[1, 2, 3, 4, 5, 6, 7, 9, 10, 11, 12, 14, 15, 16, 17, 19, 20, 21, 22, 23, 25, 27, 29]",300,149,-1,16,556,12,0.0
basic,17,43,0,0,0,29,"[0, 29]",2,22,"[1, 2, 3, 4, 5, 6, 7, 9, 10, 11, 12, 14, 15, 16, 17, 19, 20, 21, 22, 23, 25, 27]",277.909278,1405,1256,16,520,12,1.0
basic,17,43,0,0,0,20,"[0, 29, 20]",3,20,"[1, 2, 3, 4, 6, 7, 9, 10, 11, 12, 14, 15, 16, 17, 19, 21, 22, 23, 25, 27]",254.4785289,2439,1034,15,422,12,1.082311746871282
basic,17,43,0,0,0,16,"[0, 29, 20, 16]",4,19,"[1, 2, 3, 4, 6, 7, 9, 10, 11, 12, 14, 15, 17, 19, 21, 22, 23, 25, 27]",231.8511119,4087,1648,15,389,12,1.215201926898219
basic,17,43,0,0,0,25,"[0, 29, 20, 16, 25]",5,14,"[1, 2, 3, 4, 6, 7, 9, 11, 12, 14, 15, 19, 22, 23]",175.7708124,8068,3981,53,282,11,1.566384303308987
basic,17,43,0,0,0,15,"[0, 29, 20, 16, 25, 15]",6,13,"[1, 2, 3, 4, 6, 7, 9, 11, 12, 14, 19, 22, 23]",153.0992443,9363,1295,27,108,11,1.776736412604812
basic,17,43,0,0,0,12,"[0, 29, 20, 16, 25, 15, 12]",7,10,"[1, 3, 6, 7, 9, 11, 14, 19, 22, 23]",133.7860364,10447,1084,21,41,11,1.6813323012225032
basic,17,43,0,0,0,3,"[0, 29, 20, 16, 25, 15, 12, 3]",8,9,"[1, 6, 7, 9, 11, 14, 19, 22, 23]",120.7860364,11395,948,20,12,11,1.608740348096123
basic,17,43,0,0,0,22,"[0, 29, 20, 16, 25, 15, 12, 3, 22]",9,6,"[1, 6, 7, 11, 14, 19]",86.07292644,13042,1647,9,2,11,1.793657891802588
basic,17,43,0,0,0,19,"[0, 29, 20, 16, 25, 15, 12, 3, 22, 19]",10,3,"[1, 6, 7]",65.45739831,14241,1199,3,0,11,1.6882745891803936
basic,17,43,0,0,1,1,"[0, 29, 20, 16, 25, 15, 12, 3, 22, 19, 1]",11,0,[],37.2793927,15508,1267,1,0,11,1.825064866046553
basic,17,43,0,1,1,1,"[0, 29, 20, 16, 25, 15, 12, 3, 22, 19, 1]",11,0,[],37.2793927,17645,2137,1,0,11,1.825064866046553
basic,18,44,0,0,0,0,[0],1,29,"[1, 2, 3, 4, 5, 6, 7, 8, 9, 10, 11, 12, 13, 14, 15, 16, 17, 18, 19, 20, 21, 22, 23, 24, 25, 26, 27, 28, 29]",300,158,-1,13,126,7,0.0
basic,18,44,0,0,0,11,"[0, 11]",2,18,"[4, 5, 6, 7, 8, 9, 12, 14, 16, 17, 19, 20, 22, 23, 24, 25, 26, 28]",152.7790776,5331,5173,5,34,7,1.0
basic,18,44,0,0,0,24,"[0, 11, 24]",3,13,"[4, 5, 7, 8, 9, 12, 14, 17, 20, 22, 23, 25, 28]",125.8532535,6579,1248,5,23,7,1.1588941745226709
basic,18,44,0,0,0,9,"[0, 11, 24, 9]",4,7,"[4, 7, 8, 12, 14, 20, 23]",93.09657483,8096,1517,2,8,7,1.3039383713641313
basic,18,44,0,0,0,4,"[0, 11, 24, 9, 4]",5,5,"[7, 12, 14, 20, 23]",73.39885923,9143,1047,2,3,7,1.2901330701441578
basic,18,44,0,0,0,7,"[0, 11, 24, 9, 4, 7]",6,1,[23],42.38273439,10484,1341,1,0,7,1.2468141312360979
basic,18,44,0,0,1,23,"[0, 11, 24, 9, 4, 7, 23]",7,0,[],23.27776121,11956,1472,1,0,7,1.2635191782769477
basic,18,44,0,1,1,23,"[0, 11, 24, 9, 4, 7, 23]",7,0,[],23.27776121,13263,1307,1,0,7,1.2635191782769477
basic,19,6,0,0,0,0,[0],1,29,"[1, 2, 3, 4, 5, 6, 7, 8, 9, 10, 11, 12, 13, 14, 15, 16, 17, 18, 19, 20, 21, 22, 23, 24, 25, 26, 27, 28, 29]",300,211,-1,180,4304,10,0.0
basic,19,6,0,0,0,3,"[0, 3]",2,28,"[1, 2, 4, 5, 6, 7, 8, 9, 10, 11, 12, 13, 14, 15, 16, 17, 18, 19, 20, 21, 22, 23, 24, 25, 26, 27, 28, 29]",266.4738908,6067,5856,90,1607,10,1.0
basic,19,6,0,0,0,18,"[0, 3, 18]",3,27,"[1, 2, 4, 5, 6, 7, 8, 9, 10, 11, 12, 13, 14, 15, 16, 17, 19, 20, 21, 22, 23, 24, 25, 26, 27, 28, 29]",237.4738908,12942,6875,34,516,10,1.0266750028725786
basic,19,6,0,0,0,17,"[0, 3, 18, 17]",4,26,"[1, 2, 4, 5, 6, 7, 8, 9, 10, 11, 12, 13, 14, 15, 16, 19, 20, 21, 22, 23, 24, 25, 26, 27, 28, 29]",223.5455025,13892,950,17,243,10,1.0832900829093166
basic,19,6,0,0,0,10,"[0, 3, 18, 17, 10]",5,22,"[1, 2, 4, 5, 6, 7, 8, 9, 11, 13, 14, 16, 19, 20, 21, 22, 23, 24, 26, 27, 28, 29]",203.8224196,16292,2400,10,111,10,1.140294203414171
basic,19,6,0,0,0,24,"[0, 3, 18, 17, 10, 24]",6,19,"[1, 2, 4, 5, 6, 7, 8, 11, 13, 14, 16, 20, 21, 22, 23, 26, 27, 28, 29]",190.4060117,17587,1295,10,80,10,1.1264281153820843
basic,19,6,0,0,0,16,"[0, 3, 18, 17, 10, 24, 16]",7,13,"[1, 2, 6, 7, 13, 14, 20, 21, 22, 23, 26, 27, 29]",134.3703088,19275,1688,6,21,10,2.2946652061367843
basic,19,6,0,0,0,29,"[0, 3, 18, 17, 10, 24, 16, 29]",8,7,"[6, 14, 20, 21, 22, 23, 27]",97.68243615,20633,1358,5,5,10,1.8995488998077483
basic,19,6,0,0,0,23,"[0, 3, 18, 17, 10, 24, 16, 29, 23]",9,2,"[6, 22]",50.16401866,22667,2034,2,0,10,1.8616504050291767
basic,19,6,0,0,1,6,"[0, 3, 18, 17, 10, 24, 16, 29, 23, 6]",10,0,[],14.8086796,24728,2061,1,0,10,1.7707258119152334
basic,19,6,0,1,1,6,"[0, 3, 18, 17, 10, 24, 16, 29, 23, 6]",10,0,[],14.8086796,25686,958,1,0,10,1.7707258119152334
basic,20,4,0,0,0,0,[0],1,26,"[3, 4, 5, 6, 7, 8, 10, 11, 12, 13, 14, 15, 16, 17, 18, 19, 20, 21, 22, 23, 24, 25, 26, 27, 28, 29]",300,192,-1,4,489,10,0.0
basic,20,4,0,0,0,28,"[0, 28]",2,21,"[3, 4, 5, 6, 10, 11, 12, 13, 14, 15, 16, 17, 19, 20, 21, 22, 23, 24, 25, 26, 27]",225.9392142,3237,3045,2,216,10,1.0
basic,20,4,0,0,0,13,"[0, 28, 13]",3,20,"[3, 4, 5, 6, 10, 11, 12, 14, 15, 16, 17, 19, 20, 21, 22, 23, 24, 25, 26, 27]",194.3639073,6048,2811,13,217,9,1.5558290144193574
basic,20,4,0,0,0,14,"[0, 28, 13, 14]",4,9,"[3, 6, 11, 16, 17, 20, 21, 22, 25]",101.6438987,7610,1562,1,13,9,1.4525055120298591
basic,20,4,0,0,0,25,"[0, 28, 13, 14, 25]",5,8,"[3, 6, 11, 16, 17, 20, 21, 22]",85.51938322,8698,1088,1,11,9,1.6913423518628923
basic,20,4,0,0,0,11,"[0, 28, 13, 14, 25, 11]",6,5,"[3, 16, 17, 21, 22]",66.73108899,9913,1215,1,5,9,1.8984412044469638
basic,20,4,0,0,0,16,"[0, 28, 13, 14, 25, 11, 16]",7,4,"[3, 17, 21, 22]",51.73108899,10963,1050,1,3,9,1.8010845894450576
basic,20,4,0,0,0,17,"[0, 28, 13, 14, 25, 11, 16, 17]",8,1,[3],25.65427937,13024,2061,1,0,9,1.6736800467471455
basic,20,4,0,0,1,3,"[0, 28, 13, 14, 25, 11, 16, 17, 3]",9,0,[],1.138978029,14122,1098,1,0,9,1.7135219511595237
basic,20,4,0,1,1,3,"[0, 28, 13, 14, 25, 11, 16, 17, 3]",9,0,[],1.138978029,15011,889,1,0,9,1.7135219511595237
basic,21,29,0,0,0,0,[0],1,29,"[1, 2, 3, 4, 5, 6, 7, 8, 9, 10, 11, 12, 13, 14, 15, 16, 17, 18, 19, 20, 21, 22, 23, 24, 25, 26, 27, 28, 29]",300,142,-1,1,78,9,0.0
basic,21,29,0,0,0,25,"[0, 25]",2,18,"[1, 2, 4, 5, 6, 7, 9, 10, 12, 13, 14, 15, 16, 17, 22, 26, 27, 28]",223.3449284,2752,2610,13,101,8,1.0
basic,21,29,0,0,0,17,"[0, 25, 17]",3,13,"[1, 4, 5, 6, 7, 9, 10, 12, 13, 14, 22, 27, 28]",188.41643,4166,1414,2,22,8,1.014228463693056
basic,21,29,0,0,0,1,"[0, 25, 17, 1]",4,11,"[4, 5, 6, 7, 10, 12, 13, 14, 22, 27, 28]",149.5191293,5282,1116,2,18,8,1.7553639368828857
basic,21,29,0,0,0,14,"[0, 25, 17, 1, 14]",5,8,"[4, 5, 7, 12, 13, 22, 27, 28]",106.5656662,6552,1270,2,9,8,2.137167642879409
basic,21,29,0,0,0,13,"[0, 25, 17, 1, 14, 13]",6,4,"[4, 5, 12, 22]",88.53790978,7519,967,2,3,8,1.9535489858276616
basic,21,29,0,0,0,5,"[0, 25, 17, 1, 14, 13, 5]",7,2,"[4, 22]",62.82798951,8577,1058,2,0,8,1.9087092890879327
basic,21,29,0,0,1,22,"[0, 25, 17, 1, 14, 13, 5, 22]",8,0,[],8.486476834,10524,1947,1,0,8,2.492296943176698
basic,21,29,0,1,1,22,"[0, 25, 17, 1, 14, 13, 5, 22]",8,0,[],8.486476834,11198,674,1,0,8,2.492296943176698
basic,22,38,0,0,0,0,[0],1,29,"[1, 2, 3, 4, 5, 6, 7, 8, 9, 10, 11, 12, 13, 14, 15, 16, 17, 18, 19, 20, 21, 22, 23, 24, 25, 26, 27, 28, 29]",300,144,-1,33,506,9,0.0
basic,22,38,0,0,0,19,"[0, 19]",2,23,"[3, 4, 5, 6, 7, 8, 9, 11, 13, 14, 15, 16, 17, 18, 20, 22, 23, 24, 25, 26, 27, 28, 29]",219.5015528,3137,2993,6,61,9,1.0
basic,22,38,0,0,0,17,"[0, 19, 17]",3,21,"[3, 4, 5, 6, 7, 9, 11, 13, 14, 15, 16, 18, 20, 22, 23, 24, 25, 26, 27, 28, 29]",198.1239945,4648,1511,6,53,9,1.571793785769489
basic,22,38,0,0,0,20,"[0, 19, 17, 20]",4,17,"[3, 4, 5, 6, 7, 11, 13, 14, 15, 16, 18, 22, 24, 25, 26, 27, 28]",174.3542658,6452,1804,6,44,9,2.333182710277297
basic,22,38,0,0,0,4,"[0, 19, 17, 20, 4]",5,10,"[5, 11, 13, 14, 15, 16, 24, 26, 27, 28]",140.4131403,8286,1834,5,22,9,2.276099229646013
basic,22,38,0,0,0,13,"[0, 19, 17, 20, 4, 13]",6,7,"[11, 15, 16, 24, 26, 27, 28]",109.0125034,9630,1344,8,3,8,1.9539449223642764
basic,22,38,0,0,0,26,"[0, 19, 17, 20, 4, 13, 26]",7,3,"[15, 16, 24]",77.96415401,11460,1830,3,0,8,1.7636339903785625
basic,22,38,0,0,1,24,"[0, 19, 17, 20, 4, 13, 26, 24]",8,0,[],47.15831041,12759,1299,1,0,8,1.6290683193074331
basic,22,38,0,1,1,24,"[0, 19, 17, 20, 4, 13, 26, 24]",8,0,[],47.15831041,14346,1587,1,0,8,1.6290683193074331
undo,23,35,0,0,0,0,[0],1,29,"[1, 2, 3, 4, 5, 6, 7, 8, 9, 10, 11, 12, 13, 14, 15, 16, 17, 18, 19, 20, 21, 22, 23, 24, 25, 26, 27, 28, 29]",300,148,-1,5,236,11,0.0
undo,23,35,0,0,0,27,"[0, 27]",2,27,"[1, 2, 4, 5, 6, 7, 8, 9, 10, 11, 12, 13, 14, 15, 16, 17, 18, 19, 20, 21, 22, 23, 24, 25, 26, 28, 29]",278.7867966,3555,3407,5,144,11,1.0
undo,23,35,0,0,0,24,"[0, 27, 24]",3,25,"[1, 2, 4, 5, 6, 7, 8, 9, 10, 11, 12, 13, 15, 16, 17, 18, 19, 20, 21, 22, 23, 25, 26, 28, 29]",234.6053525,5025,1470,3,80,11,2.1084080567904624
undo,23,35,0,0,0,17,"[0, 27, 24, 17]",4,20,"[1, 2, 4, 5, 6, 7, 8, 9, 10, 15, 16, 18, 19, 20, 21, 23, 25, 26, 28, 29]",222.9006526,6767,1742,3,50,11,1.9439555968916868
undo,23,35,0,0,0,1,"[0, 27, 24, 17, 1]",5,18,"[2, 4, 5, 6, 8, 9, 10, 15, 16, 18, 19, 20, 21, 23, 25, 26, 28, 29]",207.0892643,7664,897,3,39,11,1.9436711872547336
undo,23,35,0,0,0,15,"[0, 27, 24, 17, 1, 15]",6,16,"[2, 4, 5, 6, 8, 9, 10, 16, 18, 19, 20, 23, 25, 26, 28, 29]",184.241945,8731,1067,3,24,11,2.082774572108194
undo,23,35,0,0,0,23,"[0, 27, 24, 17, 1, 15, 23]",7,7,"[5, 6, 9, 18, 19, 25, 26]",123.801892,10261,1530,3,14,11,1.657239080954205
undo,23,35,0,0,0,9,"[0, 27, 24, 17, 1, 15, 23, 9]",8,4,"[6, 18, 19, 25]",86.15883157,11913,1652,2,2,11,1.9022575917054987
undo,23,35,0,0,0,18,"[0, 27, 24, 17, 1, 15, 23, 9, 18]",9,2,"[6, 25]",66.13384718,13133,1220,2,0,11,1.8181129550839106
undo,23,35,0,0,0,25,"[0, 27, 24, 17, 1, 15, 23, 9, 18, 25]",10,1,[6],32.29599855,14758,1625,1,0,11,1.6530923432245144
undo,23,35,0,0,1,6,"[0, 27, 24, 17, 1, 15, 23, 9, 18, 25, 6]",11,0,[],8.275174247,15843,1085,1,0,11,1.9291202388527962
undo,23,35,0,1,1,6,"[0, 27, 24, 17, 1, 15, 23, 9, 18, 25, 6]",11,0,[],8.275174247,16765,922,1,0,11,1.9291202388527962
undo,24,11,0,0,0,0,[0],1,25,"[1, 2, 3, 4, 5, 6, 8, 9, 10, 11, 12, 13, 14, 15, 16, 17, 18, 19, 20, 22, 23, 25, 26, 27, 28]",300,159,-1,6,374,12,0.0
undo,24,11,0,0,0,4,"[0, 4]",2,20,"[1, 2, 5, 6, 8, 9, 10, 11, 12, 13, 15, 17, 18, 19, 20, 22, 23, 25, 27, 28]",227.9652861,2851,2692,46,281,9,1.0
undo,24,11,0,0,0,1,"[0, 4, 1]",3,15,"[2, 5, 8, 9, 11, 12, 15, 17, 18, 20, 22, 23, 25, 27, 28]",182.2597066,4348,1497,13,88,8,3.3301983952813483
undo,24,11,0,0,0,18,"[0, 4, 1, 18]",4,10,"[2, 5, 8, 9, 11, 15, 17, 20, 27, 28]",129.9338048,5615,1267,5,14,8,2.6930252211921553
undo,24,11,0,0,0,27,"[0, 4, 1, 18, 27]",5,8,"[2, 5, 8, 9, 11, 15, 17, 28]",106.0800839,6880,1265,5,9,8,2.3647011917847904
undo,24,11,0,0,0,8,"[0, 4, 1, 18, 27, 8]",6,5,"[5, 11, 15, 17, 28]",35.8661252,8945,2065,3,3,8,1.8190192696833505
undo,24,11,0,0,0,17,"[0, 4, 1, 18, 27, 8, 17]",7,1,[15],21.54830414,10549,1604,1,0,8,1.8932219459182702
undo,24,11,0,0,1,15,"[0, 4, 1, 18, 27, 8, 17, 15]",8,0,[],8.899193496,11458,909,1,0,8,1.8556892402487901
undo,24,11,1,0,0,17,"[0, 4, 1, 18, 27, 8, 17]",7,1,[15],21.54830414,13114,1656,1,0,8,1.8932219459182702
undo,24,11,1,0,0,8,"[0, 4, 1, 18, 27, 8]",6,5,"[5, 11, 15, 17, 28]",35.8661252,13346,232,3,3,8,1.8190192696833505
undo,24,11,1,0,0,27,"[0, 4, 1, 18, 27]",5,8,"[2, 5, 8, 9, 11, 15, 17, 28]",106.0800839,13546,200,5,9,8,2.3647011917847904
undo,24,11,1,0,0,18,"[0, 4, 1, 18]",4,10,"[2, 5, 8, 9, 11, 15, 17, 20, 27, 28]",129.9338048,13763,217,5,14,8,2.6930252211921553
undo,24,11,1,0,0,1,"[0, 4, 1]",3,15,"[2, 5, 8, 9, 11, 12, 15, 17, 18, 20, 22, 23, 25, 27, 28]",182.2597066,13996,233,13,88,8,3.3301983952813483
undo,24,11,1,0,0,4,"[0, 4]",2,20,"[1, 2, 5, 6, 8, 9, 10, 11, 12, 13, 15, 17, 18, 19, 20, 22, 23, 25, 27, 28]",227.9652861,14229,233,46,281,9,1.0
undo,24,11,1,0,0,0,[0],1,25,"[1, 2, 3, 4, 5, 6, 8, 9, 10, 11, 12, 13, 14, 15, 16, 17, 18, 19, 20, 22, 23, 25, 26, 27, 28]",300,15644,1415,6,374,12,0.0
undo,24,11,0,0,0,8,"[0, 8]",2,19,"[1, 2, 4, 5, 6, 10, 11, 12, 14, 15, 17, 18, 19, 22, 23, 25, 26, 27, 28]",154.7932508,18117,2473,181,767,9,1.0
undo,24,11,0,0,0,17,"[0, 8, 17]",3,15,"[1, 2, 4, 5, 6, 11, 12, 15, 18, 19, 22, 23, 25, 27, 28]",140.4754298,19385,1268,86,201,9,1.0846240899450907
undo,24,11,0,0,0,15,"[0, 8, 17, 15]",4,13,"[1, 2, 5, 6, 11, 12, 18, 19, 22, 23, 25, 27, 28]",127.8263191,20332,947,67,51,9,1.0975608447713743
undo,24,11,0,0,0,11,"[0, 8, 17, 15, 11]",5,9,"[2, 5, 6, 12, 19, 22, 25, 27, 28]",109.7155489,21165,833,25,3,9,1.0975838566653757
undo,24,11,0,0,0,28,"[0, 8, 17, 15, 11, 28]",6,4,"[2, 5, 19, 22]",90.29906103,22450,1285,7,2,9,1.2135235291684319
undo,24,11,0,0,0,5,"[0, 8, 17, 15, 11, 28, 5]",7,2,"[2, 22]",72.41051721,23562,1112,2,0,9,1.3988895370454302
undo,24,11,0,0,0,2,"[0, 8, 17, 15, 11, 28, 5, 2]",8,1,[22],55.41051721,25658,2096,1,0,9,1.3703405989501332
undo,24,11,0,0,1,22,"[0, 8, 17, 15, 11, 28, 5, 2, 22]",9,0,[],45.36064159,26924,1266,1,0,9,1.3506296271324352
undo,24,11,0,1,1,22,"[0, 8, 17, 15, 11, 28, 5, 2, 22]",9,0,[],45.36064159,29497,2573,1,0,9,1.3506296271324352
undo,25,16,0,0,0,0,[0],1,29,"[1, 2, 3, 4, 5, 6, 7, 8, 9, 10, 11, 12, 13, 14, 15, 16, 17, 18, 19, 20, 21, 22, 23, 24, 25, 26, 27, 28, 29]",300,146,-1,13,161,9,0.0
undo,25,16,0,0,0,28,"[0, 28]",2,27,"[1, 2, 3, 4, 5, 7, 8, 9, 10, 11, 12, 13, 14, 15, 16, 17, 18, 19, 20, 21, 22, 23, 24, 25, 26, 27, 29]",284.3475242,3068,2922,11,92,9,1.0
undo,25,16,0,0,0,17,"[0, 28, 17]",3,26,"[1, 2, 3, 4, 5, 7, 8, 9, 10, 11, 12, 13, 14, 15, 16, 18, 19, 20, 21, 22, 23, 24, 25, 26, 27, 29]",219.1555001,5954,2886,10,46,9,1.3773866384707543
undo,25,16,0,0,0,16,"[0, 28, 17, 16]",4,25,"[1, 2, 3, 4, 5, 7, 8, 9, 10, 11, 12, 13, 14, 15, 18, 19, 20, 21, 22, 23, 24, 25, 26, 27, 29]",190.8358956,9250,3296,10,34,9,1.3209953830681203
undo,25,16,0,0,0,8,"[0, 28, 17, 16, 8]",5,12,"[3, 4, 5, 9, 12, 13, 15, 19, 20, 21, 25, 29]",142.4623491,10696,1446,6,19,9,1.2700932705506198
undo,25,16,0,0,0,20,"[0, 28, 17, 16, 8, 20]",6,6,"[4, 5, 9, 12, 15, 25]",84.6869218,12428,1732,4,4,9,1.1899382910703262
undo,25,16,0,0,0,25,"[0, 28, 17, 16, 8, 20, 25]",7,3,"[5, 9, 15]",72.03781116,13431,1003,2,2,9,1.2372268181049477
undo,25,16,0,0,0,9,"[0, 28, 17, 16, 8, 20, 25, 9]",8,2,"[5, 15]",59.23156268,14425,994,2,0,9,1.221922950237529
undo,25,16,0,0,1,15,"[0, 28, 17, 16, 8, 20, 25, 9, 15]",9,0,[],20.334262,15811,1386,1,0,9,1.318239760375411
undo,25,16,0,1,1,15,"[0, 28, 17, 16, 8, 20, 25, 9, 15]",9,0,[],20.334262,16980,1169,1,0,9,1.318239760375411
undo,26,26,0,0,0,0,[0],1,29,"[1, 2, 3, 4, 5, 6, 7, 8, 9, 10, 11, 12, 13, 14, 15, 16, 17, 18, 19, 20, 21, 22, 23, 24, 25, 26, 27, 28, 29]",300,142,-1,9,226,9,0.0
undo,26,26,0,0,0,21,"[0, 21]",2,25,"[2, 3, 4, 5, 6, 7, 8, 10, 11, 12, 13, 14, 15, 16, 17, 18, 19, 22, 23, 24, 25, 26, 27, 28, 29]",211.1349337,3416,3274,7,90,9,1.0
undo,26,26,0,0,0,16,"[0, 21, 16]",3,12,"[4, 5, 6, 10, 11, 12, 13, 14, 17, 23, 26, 29]",151.2266705,4901,1485,1,34,9,1.3289691188319968
undo,26,26,0,0,0,29,"[0, 21, 16, 29]",4,8,"[4, 5, 6, 10, 13, 14, 17, 23]",127.0192337,6681,1780,1,28,9,1.4156891800947415
undo,26,26,0,0,0,4,"[0, 21, 16, 29, 4]",5,5,"[6, 10, 14, 17, 23]",103.0192337,7712,1031,1,12,9,1.6252228687746915
undo,26,26,0,0,0,17,"[0, 21, 16, 29, 4, 17]",6,3,"[6, 10, 14]",81.92421056,8916,1204,1,4,9,1.534793846471065
undo,26,26,0,0,0,14,"[0, 21, 16, 29, 4, 17, 14]",7,2,"[6, 10]",59.45200551,9977,1061,1,1,9,1.4926767408397108
undo,26,26,0,0,0,6,"[0, 21, 16, 29, 4, 17, 14, 6]",8,1,[10],38.42820947,10908,931,1,0,9,1.6286010900012204
undo,26,26,0,0,1,10,"[0, 21, 16, 29, 4, 17, 14, 6, 10]",9,0,[],9.153647129,12121,1213,1,0,9,1.797369356615424
undo,26,26,0,1,1,10,"[0, 21, 16, 29, 4, 17, 14, 6, 10]",9,0,[],9.153647129,18990,6869,1,0,9,1.797369356615424
undo,27,42,0,0,0,0,[0],1,29,"[1, 2, 3, 4, 5, 6, 7, 8, 9, 10, 11, 12, 13, 14, 15, 16, 17, 18, 19, 20, 21, 22, 23, 24, 25, 26, 27, 28, 29]",300,213,-1,16,302,9,0.0
undo,27,42,0,0,0,5,"[0, 5]",2,28,"[1, 2, 3, 4, 6, 7, 8, 9, 10, 11, 12, 13, 14, 15, 16, 17, 18, 19, 20, 21, 22, 23, 24, 25, 26, 27, 28, 29]",191.2939744,5508,5295,1,22,9,1.0
undo,27,42,0,0,0,4,"[0, 5, 4]",3,23,"[1, 2, 3, 6, 7, 8, 9, 10, 11, 13, 15, 17, 18, 19, 20, 21, 22, 23, 24, 25, 26, 27, 29]",171.4445412,6684,1176,1,14,9,1.420957801478707
undo,27,42,0,0,0,22,"[0, 5, 4, 22]",4,20,"[1, 2, 3, 6, 7, 8, 9, 11, 15, 17, 18, 19, 20, 21, 23, 24, 25, 26, 27, 29]",160.2642013,7634,950,1,11,9,1.5771494659680896
undo,27,42,0,0,0,8,"[0, 5, 4, 22, 8]",5,14,"[1, 2, 3, 6, 7, 11, 15, 18, 19, 24, 25, 26, 27, 29]",138.1282577,10097,2463,1,10,9,1.5055393955524201
undo,27,42,0,0,0,1,"[0, 5, 4, 22, 8, 1]",6,5,"[2, 7, 19, 26, 27]",89.03650682,11443,1346,1,7,9,1.3547259083637835
undo,27,42,0,0,0,7,"[0, 5, 4, 22, 8, 1, 7]",7,4,"[2, 19, 26, 27]",59.03650682,12947,1504,1,3,9,1.3909715672447451
undo,27,42,0,0,0,26,"[0, 5, 4, 22, 8, 1, 7, 26]",8,1,[27],32.46584631,14380,1433,1,0,9,1.3511825943939393
undo,27,42,0,0,1,27,"[0, 5, 4, 22, 8, 1, 7, 26, 27]",9,0,[],14.43808994,18141,3761,1,0,9,1.3391911688802078
undo,27,42,0,1,1,27,"[0, 5, 4, 22, 8, 1, 7, 26, 27]",9,0,[],14.43808994,19028,887,1,0,9,1.3391911688802078
undo,28,41,0,0,0,0,[0],1,29,"[1, 2, 3, 4, 5, 6, 7, 8, 9, 10, 11, 12, 13, 14, 15, 16, 17, 18, 19, 20, 21, 22, 23, 24, 25, 26, 27, 28, 29]",300,150,-1,1,143,10,0.0
undo,28,41,0,0,0,13,"[0, 13]",2,23,"[1, 2, 3, 5, 6, 7, 9, 10, 11, 12, 14, 15, 17, 18, 19, 20, 21, 22, 24, 25, 26, 27, 28]",258.2747079,3687,3537,1,55,10,1.0
undo,28,41,0,0,0,28,"[0, 13, 28]",3,22,"[1, 2, 3, 5, 6, 7, 9, 10, 11, 12, 14, 15, 17, 18, 19, 20, 21, 22, 24, 25, 26, 27]",223.7928286,4732,1045,1,39,10,1.895724242592676
undo,28,41,0,0,0,5,"[0, 13, 28, 5]",4,19,"[1, 2, 3, 6, 9, 10, 11, 12, 14, 15, 17, 18, 19, 20, 21, 22, 24, 25, 27]",210.1913581,5665,933,1,34,10,2.861541269398273
undo,28,41,0,0,0,22,"[0, 13, 28, 5, 22]",5,12,"[2, 3, 6, 9, 10, 11, 12, 17, 18, 20, 21, 25]",155.4464953,8446,2781,11,12,9,2.096079268852861
undo,28,41,0,0,0,3,"[0, 13, 28, 5, 22, 3]",6,8,"[2, 9, 10, 12, 17, 18, 20, 21]",125.4798472,10414,1968,7,5,9,4.404491319005463
undo,28,41,0,0,0,21,"[0, 13, 28, 5, 22, 3, 21]",7,4,"[2, 9, 12, 17]",93.33952984,11815,1401,5,1,9,4.228139797553632
undo,28,41,0,0,0,9,"[0, 13, 28, 5, 22, 3, 21, 9]",8,2,"[2, 17]",43.97354965,13106,1291,2,0,9,3.111188754077749
undo,28,41,0,0,1,2,"[0, 13, 28, 5, 22, 3, 21, 9, 2]",9,0,[],31.89050368,14021,915,1,0,9,2.963304814480547
undo,28,41,0,1,1,2,"[0, 13, 28, 5, 22, 3, 21, 9, 2]",9,0,[],31.89050368,23504,9483,1,0,9,2.963304814480547
undo,29,8,0,0,0,0,[0],1,29,"[1, 2, 3, 4, 5, 6, 7, 8, 9, 10, 11, 12, 13, 14, 15, 16, 17, 18, 19, 20, 21, 22, 23, 24, 25, 26, 27, 28, 29]",300,166,-1,10,149,9,0.0
undo,29,8,0,0,0,5,"[0, 5]",2,28,"[1, 2, 3, 4, 6, 7, 8, 9, 10, 11, 12, 13, 14, 15, 16, 17, 18, 19, 20, 21, 22, 23, 24, 25, 26, 27, 28, 29]",254.5137383,3735,3569,10,100,9,1.0
undo,29,8,0,0,0,25,"[0, 5, 25]",3,20,"[1, 2, 3, 4, 6, 11, 12, 14, 15, 16, 17, 18, 19, 20, 21, 22, 23, 24, 28, 29]",215.3091468,5818,2083,4,42,9,1.2272747879909065
undo,29,8,1,0,0,5,"[0, 5]",2,28,"[1, 2, 3, 4, 6, 7, 8, 9, 10, 11, 12, 13, 14, 15, 16, 17, 18, 19, 20, 21, 22, 23, 24, 25, 26, 27, 28, 29]",254.5137383,7803,1985,10,100,9,1.0
undo,29,8,0,0,0,14,"[0, 5, 14]",3,20,"[1, 2, 3, 4, 6, 7, 11, 15, 16, 17, 18, 19, 20, 21, 22, 23, 24, 25, 28, 29]",214.5512559,10225,2422,4,36,9,1.0001019035932595
undo,29,8,0,0,0,17,"[0, 5, 14, 17]",4,15,"[1, 4, 6, 7, 11, 15, 16, 18, 19, 20, 22, 23, 24, 25, 28]",177.5377449,11612,1387,4,16,9,1.121197267659591
undo,29,8,0,0,0,11,"[0, 5, 14, 17, 11]",5,11,"[1, 4, 15, 16, 18, 19, 22, 23, 24, 25, 28]",152.3583883,13227,1615,4,8,9,1.1277254166016362
undo,29,8,0,0,0,24,"[0, 5, 14, 17, 11, 24]",6,3,"[15, 16, 28]",115.1428001,14942,1715,2,2,9,1.1227411011978805
undo,29,8,0,0,0,15,"[0, 5, 14, 17, 11, 24, 15]",7,2,"[16, 28]",98.37974552,16354,1412,2,0,9,1.1956385406066814
undo,29,8,0,0,0,16,"[0, 5, 14, 17, 11, 24, 15, 16]",8,1,[28],47.30137436,17953,1599,1,0,9,1.36482239111247
undo,29,8,0,0,1,28,"[0, 5, 14, 17, 11, 24, 15, 16, 28]",9,0,[],24.94069458,19071,1118,1,0,9,1.632953105226947
undo,29,8,0,1,1,28,"[0, 5, 14, 17, 11, 24, 15, 16, 28]",9,0,[],24.94069458,20989,1918,1,0,9,1.632953105226947
undo,30,23,0,0,0,0,[0],1,28,"[1, 2, 3, 4, 5, 6, 7, 8, 9, 10, 11, 12, 13, 14, 15, 16, 17, 18, 19, 20, 21, 22, 23, 25, 26, 27, 28, 29]",300,152,-1,76,2626,10,0.0
undo,30,23,0,0,0,21,"[0, 21]",2,27,"[1, 2, 3, 4, 5, 6, 7, 8, 9, 10, 11, 12, 13, 14, 15, 16, 17, 18, 19, 20, 22, 23, 25, 26, 27, 28, 29]",267.1062316,2236,2084,52,986,10,1.0
undo,30,23,0,0,0,19,"[0, 21, 19]",3,19,"[2, 4, 5, 6, 7, 8, 9, 11, 12, 13, 14, 16, 18, 20, 22, 23, 26, 27, 29]",217.6087569,6317,4081,11,48,7,1.173193157854804
undo,30,23,0,0,0,5,"[0, 21, 19, 5]",4,8,"[4, 8, 11, 13, 20, 22, 23, 26]",172.4313289,7879,1562,10,4,6,1.442121522320478
undo,30,23,0,0,0,20,"[0, 21, 19, 5, 20]",5,3,"[4, 8, 26]",118.6726087,9699,1820,3,0,6,1.4377937016237776
undo,30,23,1,0,0,5,"[0, 21, 19, 5]",4,8,"[4, 8, 11, 13, 20, 22, 23, 26]",172.4313289,10851,1152,10,4,6,1.442121522320478
undo,30,23,1,0,0,19,"[0, 21, 19]",3,19,"[2, 4, 5, 6, 7, 8, 9, 11, 12, 13, 14, 16, 18, 20, 22, 23, 26, 27, 29]",217.6087569,11050,199,11,48,7,1.173193157854804
undo,30,23,1,0,0,21,"[0, 21]",2,27,"[1, 2, 3, 4, 5, 6, 7, 8, 9, 10, 11, 12, 13, 14, 15, 16, 17, 18, 19, 20, 22, 23, 25, 26, 27, 28, 29]",267.1062316,11217,167,52,986,10,1.0
undo,30,23,1,0,0,0,[0],1,28,"[1, 2, 3, 4, 5, 6, 7, 8, 9, 10, 11, 12, 13, 14, 15, 16, 17, 18, 19, 20, 21, 22, 23, 25, 26, 27, 28, 29]",300,11550,333,76,2626,10,0.0
undo,30,23,0,0,0,22,"[0, 22]",2,24,"[1, 2, 3, 5, 6, 7, 8, 9, 10, 11, 12, 13, 14, 15, 17, 18, 19, 20, 21, 23, 25, 26, 27, 29]",210.5013967,13491,1941,15,1362,10,1.0
undo,30,23,0,0,0,13,"[0, 22, 13]",3,14,"[1, 2, 5, 6, 7, 8, 9, 10, 12, 14, 18, 21, 27, 29]",168.3113504,15057,1566,14,522,10,1.1898173563652046
undo,30,23,0,0,0,12,"[0, 22, 13, 12]",4,11,"[1, 2, 6, 7, 9, 10, 14, 18, 21, 27, 29]",156.2283045,16239,1182,12,166,10,1.1727968780218219
undo,30,23,0,0,0,9,"[0, 22, 13, 12, 9]",5,10,"[1, 2, 6, 7, 10, 14, 18, 21, 27, 29]",141.9104834,17687,1448,5,49,10,1.2100380646101494
undo,30,23,0,0,0,14,"[0, 22, 13, 12, 9, 14]",6,8,"[1, 2, 6, 7, 10, 18, 27, 29]",131.4701769,18655,968,2,19,10,1.1961799245073135
undo,30,23,0,0,0,2,"[0, 22, 13, 12, 9, 14, 2]",7,6,"[6, 7, 10, 18, 27, 29]",116.6041081,19669,1014,1,8,10,1.343965446549325
undo,30,23,0,0,0,6,"[0, 22, 13, 12, 9, 14, 2, 6]",8,3,"[18, 27, 29]",98.16501923,20856,1187,3,0,9,1.3433890277057379
undo,30,23,0,0,1,27,"[0, 22, 13, 12, 9, 14, 2, 6, 27]",9,0,[],69.86307584,21833,977,1,0,9,1.607346000085698
undo,30,23,0,1,1,27,"[0, 22, 13, 12, 9, 14, 2, 6, 27]",9,0,[],69.86307584,26868,5035,1,0,9,1.607346000085698
undo,31,37,0,0,0,0,[0],1,29,"[1, 2, 3, 4, 5, 6, 7, 8, 9, 10, 11, 12, 13, 14, 15, 16, 17, 18, 19, 20, 21, 22, 23, 24, 25, 26, 27, 28, 29]",300,178,-1,6,168,10,0.0
undo,31,37,0,0,0,19,"[0, 19]",2,19,"[1, 2, 4, 5, 6, 7, 9, 10, 11, 15, 17, 18, 20, 21, 22, 25, 26, 28, 29]",185.6627795,4351,4173,25,244,9,1.0
undo,31,37,0,0,0,26,"[0, 19, 26]",3,9,"[1, 2, 4, 15, 20, 21, 22, 25, 29]",120.4094271,7679,3328,12,37,8,1.0256292033966232
undo,31,37,0,0,0,21,"[0, 19, 26, 21]",4,6,"[1, 2, 4, 15, 20, 22]",90.67728956,9216,1537,8,18,8,1.3487859218508713
undo,31,37,0,0,0,15,"[0, 19, 26, 21, 15]",5,4,"[1, 2, 4, 20]",75.67728956,10329,1113,4,7,8,1.3481165821607015
undo,31,37,0,0,0,20,"[0, 19, 26, 21, 15, 20]",6,3,"[1, 2, 4]",58.67728956,11425,1096,2,2,8,1.6099275130490058
undo,31,37,0,0,0,1,"[0, 19, 26, 21, 15, 20, 1]",7,2,"[2, 4]",24.44280403,13266,1841,2,0,8,1.7405155284688993
undo,31,37,0,0,1,4,"[0, 19, 26, 21, 15, 20, 1, 4]",8,0,[],6.722758881,14595,1329,1,0,8,1.8044157702802002
undo,31,37,1,0,0,1,"[0, 19, 26, 21, 15, 20, 1]",7,2,"[2, 4]",24.44280403,16296,1701,2,0,8,1.7405155284688993
undo,31,37,1,0,0,20,"[0, 19, 26, 21, 15, 20]",6,3,"[1, 2, 4]",58.67728956,16480,184,2,2,8,1.6099275130490058
undo,31,37,1,0,0,15,"[0, 19, 26, 21, 15]",5,4,"[1, 2, 4, 20]",75.67728956,16646,166,4,7,8,1.3481165821607015
undo,31,37,1,0,0,21,"[0, 19, 26, 21]",4,6,"[1, 2, 4, 15, 20, 22]",90.67728956,16846,200,8,18,8,1.3487859218508713
undo,31,37,1,0,0,26,"[0, 19, 26]",3,9,"[1, 2, 4, 15, 20, 21, 22, 25, 29]",120.4094271,17080,234,12,37,8,1.0256292033966232
undo,31,37,1,0,0,19,"[0, 19]",2,19,"[1, 2, 4, 5, 6, 7, 9, 10, 11, 15, 17, 18, 20, 21, 22, 25, 26, 28, 29]",185.6627795,17345,265,25,244,9,1.0
undo,31,37,1,0,0,0,[0],1,29,"[1, 2, 3, 4, 5, 6, 7, 8, 9, 10, 11, 12, 13, 14, 15, 16, 17, 18, 19, 20, 21, 22, 23, 24, 25, 26, 27, 28, 29]",300,17712,367,6,168,10,0.0
undo,31,37,0,0,0,18,"[0, 18]",2,19,"[1, 2, 4, 6, 7, 9, 10, 12, 14, 15, 17, 19, 20, 21, 22, 23, 26, 28, 29]",202.4090168,20072,2360,6,89,10,1.0
undo,31,37,0,0,0,7,"[0, 18, 7]",3,12,"[1, 2, 4, 9, 15, 17, 19, 20, 21, 22, 26, 29]",175.2428614,21136,1064,6,53,10,1.0413073512834488
undo,31,37,0,0,0,22,"[0, 18, 7, 22]",4,8,"[1, 2, 4, 15, 19, 20, 21, 26]",125.2428614,22417,1281,6,29,10,1.0730792320325544
undo,31,37,0,0,0,4,"[0, 18, 7, 22, 4]",5,7,"[1, 2, 15, 19, 20, 21, 26]",100.2428614,24700,2283,4,16,10,1.2290245562206235
undo,31,37,0,0,0,2,"[0, 18, 7, 22, 4, 2]",6,5,"[1, 15, 19, 20, 21]",88.84110714,25669,969,4,7,10,1.3968113858365216
undo,31,37,0,0,0,1,"[0, 18, 7, 22, 4, 2, 1]",7,4,"[15, 19, 20, 21]",71.63645661,26663,994,4,3,10,1.4424239294761476
undo,31,37,0,0,0,20,"[0, 18, 7, 22, 4, 2, 1, 20]",8,3,"[15, 19, 21]",37.40197107,28042,1379,2,1,10,1.7518607796010042
undo,31,37,0,0,0,15,"[0, 18, 7, 22, 4, 2, 1, 20, 15]",9,1,[21],20.40197107,33173,5131,1,0,10,1.680305745239285
undo,31,37,0,0,1,21,"[0, 18, 7, 22, 4, 2, 1, 20, 15, 21]",10,0,[],5.401971073,34360,1187,1,0,10,1.8982635624510946
undo,31,37,0,1,1,21,"[0, 18, 7, 22, 4, 2, 1, 20, 15, 21]",10,0,[],5.401971073,35493,1133,1,0,10,1.8982635624510946
undo,32,5,0,0,0,0,[0],1,29,"[1, 2, 3, 4, 5, 6, 7, 8, 9, 10, 11, 12, 13, 14, 15, 16, 17, 18, 19, 20, 21, 22, 23, 24, 25, 26, 27, 28, 29]",300,160,-1,5,139,9,0.0
undo,32,5,0,0,0,23,"[0, 23]",2,27,"[1, 2, 3, 4, 5, 6, 7, 8, 9, 10, 11, 12, 13, 14, 15, 16, 17, 18, 19, 20, 21, 22, 24, 25, 26, 27, 28]",249.8402552,2418,2258,3,75,9,1.0
undo,32,5,0,0,0,25,"[0, 23, 25]",3,23,"[1, 2, 3, 4, 5, 6, 8, 9, 10, 12, 13, 14, 15, 16, 17, 18, 19, 21, 22, 24, 26, 27, 28]",231.4011663,3532,1114,3,43,9,1.0923159590575564
undo,32,5,0,0,0,12,"[0, 23, 25, 12]",4,19,"[2, 4, 5, 6, 8, 9, 10, 13, 14, 15, 16, 17, 18, 19, 21, 22, 24, 26, 27]",203.6162783,7863,4331,13,38,8,1.344380276762952
undo,32,5,0,0,0,24,"[0, 23, 25, 12, 24]",5,13,"[4, 5, 6, 8, 9, 13, 15, 17, 18, 19, 22, 26, 27]",151.7607096,9181,1318,9,16,8,2.0468715098289354
undo,32,5,0,0,0,17,"[0, 23, 25, 12, 24, 17]",6,7,"[4, 5, 6, 8, 15, 18, 19]",116.7749983,10677,1496,8,2,8,1.715984108382044
undo,32,5,0,0,0,5,"[0, 23, 25, 12, 24, 17, 5]",7,4,"[4, 6, 15, 18]",73.72851177,12192,1515,4,0,8,1.5138688362730213
undo,32,5,0,0,1,15,"[0, 23, 25, 12, 24, 17, 5, 15]",8,0,[],33.70351958,13507,1315,1,0,8,1.5069791680385138
undo,32,5,0,1,1,15,"[0, 23, 25, 12, 24, 17, 5, 15]",8,0,[],33.70351958,14979,1472,1,0,8,1.5069791680385138
undo,33,27,0,0,0,0,[0],1,26,"[1, 3, 5, 6, 7, 8, 9, 10, 11, 12, 13, 14, 15, 16, 17, 18, 19, 21, 22, 23, 24, 25, 26, 27, 28, 29]",300,179,-1,13,578,11,0.0
undo,33,27,0,0,0,26,"[0, 26]",2,23,"[1, 5, 6, 7, 8, 9, 10, 11, 12, 13, 14, 15, 16, 17, 18, 19, 21, 22, 23, 24, 25, 27, 29]",275.8132268,2502,2323,7,249,11,1.0
undo,33,27,0,0,0,15,"[0, 26, 15]",3,18,"[1, 6, 7, 8, 10, 12, 13, 14, 16, 17, 18, 19, 21, 23, 24, 25, 27, 29]",216.0386502,3915,1413,6,105,11,2.316230250316108
undo,33,27,0,0,0,24,"[0, 26, 15, 24]",4,14,"[1, 8, 10, 12, 13, 14, 16, 17, 18, 19, 23, 25, 27, 29]",198.8339997,5547,1632,6,63,11,2.140390406148825
undo,33,27,0,0,0,17,"[0, 26, 15, 24, 17]",5,11,"[1, 8, 10, 12, 13, 14, 18, 19, 23, 27, 29]",182.2810543,7735,2188,4,33,11,1.897705569486853
undo,33,27,0,0,0,12,"[0, 26, 15, 24, 17, 12]",6,10,"[1, 8, 10, 13, 14, 18, 19, 23, 27, 29]",171.1007144,8628,893,2,17,11,1.994427587076918
undo,33,27,0,0,0,10,"[0, 26, 15, 24, 17, 12, 10]",7,9,"[1, 8, 13, 14, 18, 19, 23, 27, 29]",160.0553534,9578,950,2,14,11,1.8554032921959762
undo,33,27,0,0,0,13,"[0, 26, 15, 24, 17, 12, 10, 13]",8,7,"[1, 8, 14, 19, 23, 27, 29]",120.2056357,10941,1363,2,8,11,1.8269483184790714
undo,33,27,0,0,0,19,"[0, 26, 15, 24, 17, 12, 10, 13, 19]",9,4,"[8, 14, 23, 29]",83.97029387,12207,1266,2,3,11,1.6617669702307691
undo,33,27,0,0,0,8,"[0, 26, 15, 24, 17, 12, 10, 13, 19, 8]",10,2,"[14, 29]",69.10422512,13192,985,2,0,11,1.708465241811091
undo,33,27,0,0,1,29,"[0, 26, 15, 24, 17, 12, 10, 13, 19, 8, 29]",11,0,[],9.901184659,15006,1814,1,0,11,1.4940849125097164
undo,33,27,0,1,1,29,"[0, 26, 15, 24, 17, 12, 10, 13, 19, 8, 29]",11,0,[],9.901184659,15845,839,1,0,11,1.4940849125097164
undo,34,34,0,0,0,0,[0],1,25,"[1, 3, 4, 5, 6, 7, 8, 9, 10, 11, 12, 13, 15, 18, 19, 20, 21, 22, 23, 24, 25, 26, 27, 28, 29]",300,160,-1,12,367,10,0.0
undo,34,34,0,0,0,13,"[0, 13]",2,24,"[1, 3, 4, 5, 6, 7, 8, 9, 10, 11, 12, 15, 18, 19, 20, 21, 22, 23, 24, 25, 26, 27, 28, 29]",279.9750156,1919,1759,12,331,10,1.0
undo,34,34,0,0,0,1,"[0, 13, 1]",3,16,"[3, 5, 7, 8, 9, 10, 11, 12, 19, 21, 22, 23, 24, 25, 27, 29]",211.8574701,3804,1885,3,92,10,1.0010381285747127
undo,34,34,0,0,0,8,"[0, 13, 1, 8]",4,14,"[3, 5, 7, 9, 10, 11, 12, 19, 22, 23, 24, 25, 27, 29]",201.0871405,4704,900,2,54,10,1.1636807
undo,34,34,0,0,0,25,"[0, 13, 1, 8, 25]",5,12,"[3, 5, 7, 9, 10, 11, 12, 22, 23, 24, 27, 29]",183.999133,6752,2048,2,28,10,1.1396208815936457
undo,34,34,0,0,0,24,"[0, 13, 1, 8, 25, 24]",6,11,"[3, 5, 7, 9, 10, 11, 12, 22, 23, 27, 29]",166.5062774,7781,1029,2,23,10,1.374180768736554
undo,34,34,0,0,0,12,"[0, 13, 1, 8, 25, 24, 12]",7,7,"[7, 9, 10, 11, 22, 23, 27]",115.4670767,9475,1694,1,8,10,1.4994254760835948
undo,34,34,0,0,0,7,"[0, 13, 1, 8, 25, 24, 12, 7]",8,5,"[9, 11, 22, 23, 27]",100.4337804,10375,900,1,4,10,1.758992610425009
undo,34,34,0,0,0,23,"[0, 13, 1, 8, 25, 24, 12, 7, 23]",9,1,[27],72.27352467,11932,1557,1,0,10,2.399781305190153
undo,34,34,0,0,1,27,"[0, 13, 1, 8, 25, 24, 12, 7, 23, 27]",10,0,[],18.60789321,13479,1547,1,0,10,4.766619878750327
undo,34,34,0,1,1,27,"[0, 13, 1, 8, 25, 24, 12, 7, 23, 27]",10,0,[],18.60789321,14463,984,1,0,10,4.766619878750327
undo,35,36,0,0,0,0,[0],1,24,"[2, 4, 5, 6, 7, 8, 9, 10, 12, 13, 14, 15, 16, 17, 18, 19, 20, 22, 23, 25, 26, 27, 28, 29]",300,149,-1,2,200,10,0.0
undo,35,36,0,0,0,18,"[0, 18]",2,21,"[2, 4, 5, 6, 7, 8, 9, 10, 12, 13, 14, 16, 17, 19, 22, 23, 25, 26, 27, 28, 29]",279.6039219,2776,2627,2,110,10,1.0
undo,35,36,0,0,0,12,"[0, 18, 12]",3,19,"[2, 4, 5, 6, 7, 8, 9, 10, 13, 16, 17, 19, 22, 23, 25, 26, 27, 28, 29]",237.0245842,4905,2129,2,86,10,2.836270082716982
undo,35,36,0,0,0,9,"[0, 18, 12, 9]",4,9,"[2, 4, 10, 13, 16, 17, 19, 23, 25]",174.6627369,6252,1347,1,40,10,1.8147676024843966
undo,35,36,0,0,0,16,"[0, 18, 12, 9, 16]",5,5,"[2, 13, 17, 19, 25]",127.3658026,7459,1207,4,11,9,1.6173640341692257
undo,35,36,0,0,0,17,"[0, 18, 12, 9, 16, 17]",6,4,"[2, 13, 19, 25]",99.04619804,8687,1228,4,5,9,2.126167915720943
undo,35,36,0,0,0,19,"[0, 18, 12, 9, 16, 17, 19]",7,3,"[2, 13, 25]",71.15354668,9965,1278,3,0,9,2.9690287970141402
undo,35,36,0,0,0,2,"[0, 18, 12, 9, 16, 17, 19, 2]",8,1,[25],34.0321243,11814,1849,1,0,9,2.355174034952613
undo,35,36,0,0,1,25,"[0, 18, 12, 9, 16, 17, 19, 2, 25]",9,0,[],9.032124296,13094,1280,1,0,9,2.541422245252009
undo,35,36,0,1,1,25,"[0, 18, 12, 9, 16, 17, 19, 2, 25]",9,0,[],9.032124296,14951,1857,1,0,9,2.541422245252009
undo,36,24,0,0,0,0,[0],1,29,"[1, 2, 3, 4, 5, 6, 7, 8, 9, 10, 11, 12, 13, 14, 15, 16, 17, 18, 19, 20, 21, 22, 23, 24, 25, 26, 27, 28, 29]",300,153,-1,4,76,10,0.0
undo,36,24,0,0,0,14,"[0, 14]",2,27,"[1, 2, 3, 4, 5, 6, 8, 9, 10, 11, 12, 13, 15, 16, 17, 18, 19, 20, 21, 22, 23, 24, 25, 26, 27, 28, 29]",278.0455016,3640,3487,4,54,10,1.0
undo,36,24,0,0,0,10,"[0, 14, 10]",3,20,"[1, 2, 3, 4, 6, 8, 9, 11, 15, 16, 17, 19, 20, 22, 23, 24, 26, 27, 28, 29]",229.342319,6770,3130,10,99,9,1.0038790212375874
undo,36,24,0,0,0,24,"[0, 14, 10, 24]",4,14,"[1, 2, 4, 6, 8, 9, 11, 15, 16, 20, 22, 23, 28, 29]",176.0037775,9685,2915,4,26,9,1.0345598967195753
undo,36,24,0,0,0,6,"[0, 14, 10, 24, 6]",5,11,"[1, 8, 9, 11, 15, 16, 20, 22, 23, 28, 29]",138.6674681,11113,1428,4,19,9,1.4136213103786264
undo,36,24,0,0,0,8,"[0, 14, 10, 24, 6, 8]",6,5,"[15, 16, 22, 23, 28]",77.83984283,12827,1714,4,4,9,2.0175546172818692
undo,36,24,0,0,0,16,"[0, 14, 10, 24, 6, 8, 16]",7,2,"[15, 22]",48.83984283,14729,1902,1,1,9,2.8017590415551754
undo,36,24,0,0,0,22,"[0, 14, 10, 24, 6, 8, 16, 22]",8,1,[15],30.81208645,16826,2097,1,0,9,2.554443344755774
undo,36,24,0,0,1,15,"[0, 14, 10, 24, 6, 8, 16, 22, 15]",9,0,[],9.598883019,18339,1513,1,0,9,2.427692298775504
undo,36,24,1,0,0,22,"[0, 14, 10, 24, 6, 8, 16, 22]",8,1,[15],30.81208645,20260,1921,1,0,9,2.554443344755774
undo,36,24,1,0,0,16,"[0, 14, 10, 24, 6, 8, 16]",7,2,"[15, 22]",48.83984283,20577,317,1,1,9,2.8017590415551754
undo,36,24,1,0,0,8,"[0, 14, 10, 24, 6, 8]",6,5,"[15, 16, 22, 23, 28]",77.83984283,21509,932,4,4,9,2.0175546172818692
undo,36,24,1,0,0,6,"[0, 14, 10, 24, 6]",5,11,"[1, 8, 9, 11, 15, 16, 20, 22, 23, 28, 29]",138.6674681,21692,183,4,19,9,1.4136213103786264
undo,36,24,1,0,0,24,"[0, 14, 10, 24]",4,14,"[1, 2, 4, 6, 8, 9, 11, 15, 16, 20, 22, 23, 28, 29]",176.0037775,21875,183,4,26,9,1.0345598967195753
undo,36,24,1,0,0,10,"[0, 14, 10]",3,20,"[1, 2, 3, 4, 6, 8, 9, 11, 15, 16, 17, 19, 20, 22, 23, 24, 26, 27, 28, 29]",229.342319,22075,200,10,99,9,1.0038790212375874
undo,36,24,1,0,0,14,"[0, 14]",2,27,"[1, 2, 3, 4, 5, 6, 8, 9, 10, 11, 12, 13, 15, 16, 17, 18, 19, 20, 21, 22, 23, 24, 25, 26, 27, 28, 29]",278.0455016,22275,200,4,54,10,1.0
undo,36,24,1,0,0,0,[0],1,29,"[1, 2, 3, 4, 5, 6, 7, 8, 9, 10, 11, 12, 13, 14, 15, 16, 17, 18, 19, 20, 21, 22, 23, 24, 25, 26, 27, 28, 29]",300,22559,284,4,76,10,0.0
undo,36,24,0,0,0,29,"[0, 29]",2,27,"[2, 3, 4, 5, 6, 7, 8, 9, 10, 11, 12, 13, 14, 15, 16, 17, 18, 19, 20, 21, 22, 23, 24, 25, 26, 27, 28]",245.594118,24765,2206,5,65,9,1.0
undo,36,24,0,0,0,16,"[0, 29, 16]",3,21,"[2, 3, 4, 6, 8, 9, 10, 11, 13, 14, 15, 17, 18, 19, 22, 23, 24, 25, 26, 27, 28]",171.3782167,25996,1231,5,51,9,1.4348105541987206
undo,36,24,0,0,0,22,"[0, 29, 16, 22]",4,16,"[2, 3, 4, 6, 8, 9, 10, 11, 14, 15, 17, 23, 24, 26, 27, 28]",153.3504603,27182,1186,4,31,9,1.3916224386076739
undo,36,24,0,0,0,8,"[0, 29, 16, 22, 8]",5,13,"[3, 4, 6, 9, 10, 11, 14, 15, 23, 24, 26, 27, 28]",139.9340525,28132,950,2,13,9,1.4536440537404858
undo,36,24,0,0,0,15,"[0, 29, 16, 22, 8, 15]",6,8,"[3, 4, 6, 9, 11, 23, 26, 28]",109.047162,29116,984,1,3,9,1.5963255894510096
undo,36,24,0,0,0,28,"[0, 29, 16, 22, 8, 15, 28]",7,2,"[11, 23]",63.77023635,30209,1093,1,1,9,1.4349671441965541
undo,36,24,0,0,0,23,"[0, 29, 16, 22, 8, 15, 28, 23]",8,1,[11],44.74393876,31576,1367,1,0,9,1.4487992470982323
undo,36,24,0,0,1,11,"[0, 29, 16, 22, 8, 15, 28, 23, 11]",9,0,[],17.81811472,32573,997,1,0,9,1.4048465478250574
undo,36,24,0,1,1,11,"[0, 29, 16, 22, 8, 15, 28, 23, 11]",9,0,[],17.81811472,33947,1374,1,0,9,1.4048465478250574
undo,37,20,0,0,0,0,[0],1,21,"[1, 2, 3, 4, 5, 6, 7, 8, 9, 12, 17, 18, 20, 21, 22, 23, 25, 26, 27, 28, 29]",300,153,-1,1,9,9,0.0
undo,37,20,0,0,0,12,"[0, 12]",2,20,"[1, 2, 3, 4, 5, 6, 7, 8, 9, 17, 18, 20, 21, 22, 23, 25, 26, 27, 28, 29]",271.5570747,2471,2318,1,8,9,1.0
undo,37,20,0,0,0,1,"[0, 12, 1]",3,12,"[3, 4, 5, 6, 8, 9, 20, 21, 23, 27, 28, 29]",189.5692707,17091,14620,1,6,9,1.0757997779162911
undo,37,20,0,0,0,5,"[0, 12, 1, 5]",4,10,"[4, 6, 8, 9, 20, 21, 23, 27, 28, 29]",152.8950291,19154,2063,1,5,9,1.1708231454516806
undo,37,20,0,0,0,21,"[0, 12, 1, 5, 21]",5,8,"[4, 6, 8, 9, 20, 23, 27, 28]",107.8950291,22034,2880,1,4,9,1.126197336199212
undo,37,20,0,0,0,8,"[0, 12, 1, 5, 21, 8]",6,5,"[6, 9, 23, 27, 28]",90.43077988,23199,1165,1,3,9,1.140007470699913
undo,37,20,0,0,0,23,"[0, 12, 1, 5, 21, 8, 23]",7,2,"[6, 9]",45.74297394,24466,1267,1,1,9,1.1162257896627588
undo,37,20,0,0,0,9,"[0, 12, 1, 5, 21, 8, 23, 9]",8,1,[6],26.53360123,25597,1131,1,0,9,1.1086880559449597
undo,37,20,0,0,1,6,"[0, 12, 1, 5, 21, 8, 23, 9, 6]",9,0,[],3.511872362,27561,1964,1,0,9,1.1186240265999328
undo,37,20,0,1,1,6,"[0, 12, 1, 5, 21, 8, 23, 9, 6]",9,0,[],3.511872362,29115,1554,1,0,9,1.1186240265999328
undo,38,21,0,0,0,0,[0],1,29,"[1, 2, 3, 4, 5, 6, 7, 8, 9, 10, 11, 12, 13, 14, 15, 16, 17, 18, 19, 20, 21, 22, 23, 24, 25, 26, 27, 28, 29]",300,143,-1,84,830,9,0.0
undo,38,21,0,0,0,18,"[0, 18]",2,28,"[1, 2, 3, 4, 5, 6, 7, 8, 9, 10, 11, 12, 13, 14, 15, 16, 17, 19, 20, 21, 22, 23, 24, 25, 26, 27, 28, 29]",240.923778,8562,8419,44,305,9,1.0
undo,38,21,0,0,0,22,"[0, 18, 22]",3,27,"[1, 2, 3, 4, 5, 6, 7, 8, 9, 10, 11, 12, 13, 14, 15, 16, 17, 19, 20, 21, 23, 24, 25, 26, 27, 28, 29]",214.5230205,9676,1114,13,86,9,1.0395459700082075
undo,38,21,0,0,0,29,"[0, 18, 22, 29]",4,20,"[2, 4, 6, 7, 8, 9, 10, 11, 12, 14, 15, 16, 17, 20, 21, 23, 24, 25, 26, 27]",184.2575286,11739,2063,13,48,9,1.3662220122820667
undo,38,21,0,0,0,20,"[0, 18, 22, 29, 20]",5,9,"[6, 7, 10, 11, 12, 17, 23, 25, 26]",126.2833964,14172,2433,3,6,7,2.108795188727144
undo,38,21,0,0,1,25,"[0, 18, 22, 29, 20, 25]",6,0,[],41.38345531,15754,1582,1,0,6,4.323506704708035
undo,38,21,1,0,0,20,"[0, 18, 22, 29, 20]",5,9,"[6, 7, 10, 11, 12, 17, 23, 25, 26]",126.2833964,18808,3054,3,6,7,2.108795188727144
undo,38,21,1,0,0,29,"[0, 18, 22, 29]",4,20,"[2, 4, 6, 7, 8, 9, 10, 11, 12, 14, 15, 16, 17, 20, 21, 23, 24, 25, 26, 27]",184.2575286,18975,167,13,48,9,1.3662220122820667
undo,38,21,1,0,0,22,"[0, 18, 22]",3,27,"[1, 2, 3, 4, 5, 6, 7, 8, 9, 10, 11, 12, 13, 14, 15, 16, 17, 19, 20, 21, 23, 24, 25, 26, 27, 28, 29]",214.5230205,19141,166,13,86,9,1.0395459700082075
undo,38,21,1,0,0,18,"[0, 18]",2,28,"[1, 2, 3, 4, 5, 6, 7, 8, 9, 10, 11, 12, 13, 14, 15, 16, 17, 19, 20, 21, 22, 23, 24, 25, 26, 27, 28, 29]",240.923778,19291,150,44,305,9,1.0
undo,38,21,1,0,0,0,[0],1,29,"[1, 2, 3, 4, 5, 6, 7, 8, 9, 10, 11, 12, 13, 14, 15, 16, 17, 18, 19, 20, 21, 22, 23, 24, 25, 26, 27, 28, 29]",300,19507,216,84,830,9,0.0
undo,38,21,0,0,0,25,"[0, 25]",2,26,"[1, 2, 3, 4, 5, 6, 7, 8, 9, 10, 11, 12, 13, 14, 15, 16, 17, 18, 20, 21, 22, 23, 24, 26, 27, 29]",240.1836143,21770,2263,30,238,9,1.0
undo,38,21,0,0,0,23,"[0, 25, 23]",3,21,"[1, 2, 4, 6, 7, 8, 9, 10, 11, 12, 14, 15, 16, 17, 18, 20, 21, 22, 24, 27, 29]",196.8592562,23527,1757,14,80,9,1.0416131642057598
undo,38,21,0,0,0,21,"[0, 25, 23, 21]",4,14,"[1, 4, 6, 8, 9, 14, 15, 16, 17, 18, 20, 22, 24, 29]",167.2450705,24726,1199,10,25,9,1.4768792067751173
undo,38,21,0,0,0,14,"[0, 25, 23, 21, 14]",5,10,"[4, 8, 9, 15, 16, 17, 18, 22, 24, 29]",141.6325735,25795,1069,8,13,9,1.3826076066332742
undo,38,21,0,0,0,4,"[0, 25, 23, 21, 14, 4]",6,7,"[8, 15, 16, 17, 18, 24, 29]",127.4904379,26980,1185,8,3,9,1.3487191473328533
undo,38,21,0,0,0,16,"[0, 25, 23, 21, 14, 4, 16]",7,3,"[8, 15, 24]",82.89223163,30158,3178,4,1,9,1.3301484172843694
undo,38,21,0,0,0,8,"[0, 25, 23, 21, 14, 4, 16, 8]",8,2,"[15, 24]",64.2911564,32924,2766,2,0,9,1.3009886562393016
undo,38,21,0,0,1,15,"[0, 25, 23, 21, 14, 4, 16, 8, 15]",9,0,[],39.2911564,34105,1181,1,0,9,1.5486591410600183
undo,38,21,0,1,1,15,"[0, 25, 23, 21, 14, 4, 16, 8, 15]",9,0,[],39.2911564,35708,1603,1,0,9,1.5486591410600183
undo,39,45,0,0,0,0,[0],1,24,"[1, 2, 3, 4, 5, 6, 7, 9, 10, 11, 12, 14, 15, 16, 17, 19, 20, 21, 22, 23, 24, 25, 27, 29]",300,158,-1,6,248,10,0.0
undo,39,45,0,0,0,15,"[0, 15]",2,23,"[1, 2, 3, 4, 5, 6, 7, 9, 10, 11, 12, 14, 16, 17, 19, 20, 21, 22, 23, 24, 25, 27, 29]",253.9022777,3167,3009,5,207,10,1.0
undo,39,45,1,0,0,0,[0],1,24,"[1, 2, 3, 4, 5, 6, 7, 9, 10, 11, 12, 14, 15, 16, 17, 19, 20, 21, 22, 23, 24, 25, 27, 29]",300,6669,3502,6,248,10,0.0
undo,39,45,0,0,0,17,"[0, 17]",2,22,"[1, 2, 3, 4, 5, 6, 7, 9, 10, 11, 12, 14, 15, 16, 19, 20, 21, 22, 23, 24, 25, 29]",235.867325,8157,1488,1,34,10,1.0
undo,39,45,0,0,0,24,"[0, 17, 24]",3,20,"[1, 2, 3, 4, 5, 6, 7, 9, 10, 11, 12, 14, 15, 16, 19, 20, 21, 22, 23, 29]",193.8078433,9310,1153,1,33,10,1.0309432256229287
undo,39,45,0,0,0,7,"[0, 17, 24, 7]",4,18,"[1, 2, 3, 4, 5, 6, 9, 10, 12, 14, 15, 16, 19, 20, 21, 22, 23, 29]",159.3985423,11790,2480,1,32,10,1.059763151913087
undo,39,45,0,0,0,2,"[0, 17, 24, 7, 2]",5,12,"[3, 4, 6, 10, 12, 14, 16, 19, 20, 22, 23, 29]",121.3853866,14126,2336,1,23,10,1.0656581932115423
undo,39,45,0,0,0,3,"[0, 17, 24, 7, 2, 3]",6,8,"[6, 10, 12, 14, 16, 20, 22, 29]",96.06740884,15339,1213,1,13,10,1.1368250049574795
undo,39,45,0,0,0,29,"[0, 17, 24, 7, 2, 3, 29]",7,5,"[6, 10, 12, 20, 22]",76.06740884,16637,1298,1,5,10,1.390376182346372
undo,39,45,0,0,0,10,"[0, 17, 24, 7, 2, 3, 29, 10]",8,2,"[6, 12]",54.52674961,17583,946,1,1,10,1.6682270697663164
undo,39,45,0,0,0,6,"[0, 17, 24, 7, 2, 3, 29, 10, 6]",9,1,[12],28.27794012,18834,1251,1,0,10,1.5776211572942243
undo,39,45,0,0,1,12,"[0, 17, 24, 7, 2, 3, 29, 10, 6, 12]",10,0,[],8.15332832,20468,1634,1,0,10,1.536035114105263
undo,39,45,0,1,1,12,"[0, 17, 24, 7, 2, 3, 29, 10, 6, 12]",10,0,[],8.15332832,21820,1352,1,0,10,1.536035114105263
undo,40,10,0,0,0,0,[0],1,29,"[1, 2, 3, 4, 5, 6, 7, 8, 9, 10, 11, 12, 13, 14, 15, 16, 17, 18, 19, 20, 21, 22, 23, 24, 25, 26, 27, 28, 29]",300,151,-1,1,100,9,0.0
undo,40,10,0,0,0,13,"[0, 13]",2,25,"[1, 2, 3, 4, 6, 7, 8, 9, 10, 11, 12, 14, 17, 18, 19, 20, 21, 22, 23, 24, 25, 26, 27, 28, 29]",249.4628849,5618,5467,1,79,9,1.0
undo,40,10,0,0,0,11,"[0, 13, 11]",3,20,"[1, 2, 3, 6, 7, 8, 9, 10, 12, 14, 18, 19, 20, 21, 22, 24, 26, 27, 28, 29]",206.4512586,6888,1270,1,54,9,1.0313137484914219
undo,40,10,0,0,0,19,"[0, 13, 11, 19]",4,11,"[2, 6, 8, 9, 10, 14, 18, 20, 24, 26, 27]",170.0919407,8713,1825,1,22,9,1.0879446220132545
undo,40,10,0,0,0,2,"[0, 13, 11, 19, 2]",5,4,"[14, 20, 26, 27]",126.1829439,10045,1332,1,4,9,1.06474052351343
undo,40,10,0,0,0,14,"[0, 13, 11, 19, 2, 14]",6,3,"[20, 26, 27]",114.0174188,10944,899,1,3,9,1.1628909195912238
undo,40,10,0,0,0,26,"[0, 13, 11, 19, 2, 14, 26]",7,2,"[20, 27]",79.34754716,12893,1949,1,1,9,1.6660727647633602
undo,40,10,0,0,0,20,"[0, 13, 11, 19, 2, 14, 26, 20]",8,1,[27],47.56704999,13941,1048,1,0,9,2.085581809637999
undo,40,10,0,0,1,27,"[0, 13, 11, 19, 2, 14, 26, 20, 27]",9,0,[],2.312215998,15540,1599,1,0,9,1.9116357409137932
undo,40,10,0,1,1,27,"[0, 13, 11, 19, 2, 14, 26, 20, 27]",9,0,[],2.312215998,16396,856,1,0,9,1.9116357409137932
undo,41,0,0,0,0,0,[0],1,27,"[2, 3, 4, 5, 6, 7, 8, 9, 10, 11, 12, 13, 14, 15, 16, 17, 19, 20, 21, 22, 23, 24, 25, 26, 27, 28, 29]",300,167,-1,104,1136,9,0.0
undo,41,0,0,0,0,20,"[0, 20]",2,25,"[2, 3, 4, 5, 6, 7, 8, 9, 11, 12, 13, 14, 15, 16, 17, 19, 21, 22, 23, 24, 25, 26, 27, 28, 29]",215.4955622,17367,17200,36,372,9,1.0
undo,41,0,0,0,0,5,"[0, 20, 5]",3,22,"[2, 3, 4, 7, 8, 9, 11, 12, 13, 14, 15, 16, 17, 19, 21, 22, 23, 24, 25, 26, 28, 29]",153.2942761,20500,3133,33,251,9,1.0828244018179105
undo,41,0,0,0,0,26,"[0, 20, 5, 26]",4,16,"[3, 4, 7, 8, 9, 11, 12, 13, 14, 15, 17, 19, 21, 23, 24, 28]",117.8541858,22118,1618,6,51,9,1.1274542855134486
undo,41,0,0,0,0,4,"[0, 20, 5, 26, 4]",5,12,"[3, 7, 8, 9, 11, 12, 15, 17, 19, 23, 24, 28]",105.8125912,23149,1031,5,27,9,1.240491272719259
undo,41,0,0,0,0,24,"[0, 20, 5, 26, 4, 24]",6,11,"[3, 7, 8, 9, 11, 12, 15, 17, 19, 23, 28]",94.41083696,24094,945,5,18,9,1.2323106696136763
undo,41,0,0,0,0,15,"[0, 20, 5, 26, 4, 24, 15]",7,7,"[3, 7, 8, 9, 11, 12, 17]",71.0656019,25141,1047,4,5,9,1.2111066506270785
undo,41,0,0,0,0,7,"[0, 20, 5, 26, 4, 24, 15, 7]",8,2,"[3, 8]",40.00115277,26231,1090,2,0,9,1.268226705272871
undo,41,0,0,0,1,8,"[0, 20, 5, 26, 4, 24, 15, 7, 8]",9,0,[],20.89617959,27293,1062,1,0,9,1.2546051164131595
undo,41,0,0,1,1,8,"[0, 20, 5, 26, 4, 24, 15, 7, 8]",9,0,[],20.89617959,29413,2120,1,0,9,1.2546051164131595
undo,42,6,0,0,0,0,[0],1,29,"[1, 2, 3, 4, 5, 6, 7, 8, 9, 10, 11, 12, 13, 14, 15, 16, 17, 18, 19, 20, 21, 22, 23, 24, 25, 26, 27, 28, 29]",300,143,-1,180,4304,10,0.0
undo,42,6,0,0,0,26,"[0, 26]",2,25,"[1, 2, 3, 4, 5, 6, 7, 8, 9, 10, 11, 12, 13, 14, 15, 16, 17, 18, 20, 21, 22, 23, 24, 27, 29]",250.2606795,1707,1564,45,776,10,1.0
undo,42,6,0,0,0,7,"[0, 26, 7]",3,24,"[1, 2, 3, 4, 5, 6, 8, 9, 10, 11, 12, 13, 14, 15, 16, 17, 18, 20, 21, 22, 23, 24, 27, 29]",226.1774904,3566,1859,25,520,10,1.5373018630243536
undo,42,6,0,0,0,3,"[0, 26, 7, 3]",4,22,"[1, 2, 4, 6, 8, 9, 10, 11, 12, 13, 14, 15, 16, 17, 18, 20, 21, 22, 23, 24, 27, 29]",190.0388684,4716,1150,20,235,10,3.2798655773210936
undo,42,6,0,0,0,16,"[0, 26, 7, 3, 16]",5,15,"[1, 2, 6, 10, 13, 14, 17, 18, 20, 21, 22, 23, 24, 27, 29]",143.8003563,6280,1564,3,39,10,2.164019536669599
undo,42,6,0,0,0,18,"[0, 26, 7, 3, 16, 18]",6,10,"[1, 2, 6, 10, 13, 17, 22, 23, 24, 29]",120.4551212,10574,4294,2,15,10,2.9481162560127245
undo,42,6,0,0,0,17,"[0, 26, 7, 3, 16, 18, 17]",7,8,"[2, 6, 10, 13, 22, 23, 24, 29]",106.526733,12193,1619,2,8,10,2.7413386825172235
undo,42,6,1,0,0,18,"[0, 26, 7, 3, 16, 18]",6,10,"[1, 2, 6, 10, 13, 17, 22, 23, 24, 29]",120.4551212,13613,1420,2,15,10,2.9481162560127245
undo,42,6,1,0,0,16,"[0, 26, 7, 3, 16]",5,15,"[1, 2, 6, 10, 13, 14, 17, 18, 20, 21, 22, 23, 24, 27, 29]",143.8003563,13813,200,3,39,10,2.164019536669599
undo,42,6,1,0,0,3,"[0, 26, 7, 3]",4,22,"[1, 2, 4, 6, 8, 9, 10, 11, 12, 13, 14, 15, 16, 17, 18, 20, 21, 22, 23, 24, 27, 29]",190.0388684,13996,183,20,235,10,3.2798655773210936
undo,42,6,1,0,0,7,"[0, 26, 7]",3,24,"[1, 2, 3, 4, 5, 6, 8, 9, 10, 11, 12, 13, 14, 15, 16, 17, 18, 20, 21, 22, 23, 24, 27, 29]",226.1774904,14229,233,25,520,10,1.5373018630243536
undo,42,6,0,0,0,3,"[0, 26, 7, 3]",4,22,"[1, 2, 4, 6, 8, 9, 10, 11, 12, 13, 14, 15, 16, 17, 18, 20, 21, 22, 23, 24, 27, 29]",190.0388684,17273,3044,20,235,10,3.2798655773210936
undo,42,6,0,0,0,10,"[0, 26, 7, 3, 10]",5,15,"[1, 2, 4, 6, 8, 13, 14, 16, 17, 18, 22, 23, 24, 27, 29]",138.7943565,19816,2543,1,29,10,1.9112755808182227
undo,42,6,0,0,0,24,"[0, 26, 7, 3, 10, 24]",6,12,"[2, 4, 6, 8, 13, 16, 17, 18, 22, 23, 27, 29]",125.3779486,21104,1288,1,10,10,1.7947990698560559
undo,42,6,0,0,0,17,"[0, 26, 7, 3, 10, 24, 17]",7,6,"[2, 6, 16, 18, 23, 29]",96.10338628,22515,1411,1,4,10,2.889027942164785
undo,42,6,0,0,0,18,"[0, 26, 7, 3, 10, 24, 17, 18]",8,3,"[16, 23, 29]",82.174998,23469,954,1,2,10,3.576673607480272
undo,42,6,0,0,0,16,"[0, 26, 7, 3, 10, 24, 17, 18, 16]",9,1,[29],58.82976294,25380,1911,1,0,10,3.341218278726961
undo,42,6,0,0,1,29,"[0, 26, 7, 3, 10, 24, 17, 18, 16, 29]",10,0,[],22.14189029,27196,1816,1,0,10,2.608795087082061
undo,42,6,0,1,1,29,"[0, 26, 7, 3, 10, 24, 17, 18, 16, 29]",10,0,[],22.14189029,28449,1253,1,0,10,2.608795087082061
undo,43,3,0,0,0,0,[0],1,29,"[1, 2, 3, 4, 5, 6, 7, 8, 9, 10, 11, 12, 13, 14, 15, 16, 17, 18, 19, 20, 21, 22, 23, 24, 25, 26, 27, 28, 29]",300,153,-1,34,427,10,0.0
undo,43,3,0,0,0,16,"[0, 16]",2,28,"[1, 2, 3, 4, 5, 6, 7, 8, 9, 10, 11, 12, 13, 14, 15, 17, 18, 19, 20, 21, 22, 23, 24, 25, 26, 27, 28, 29]",268.9355509,5563,5410,32,260,9,1.0
undo,43,3,0,0,0,15,"[0, 16, 15]",3,27,"[1, 2, 3, 4, 5, 6, 7, 8, 9, 10, 11, 12, 13, 14, 17, 18, 19, 20, 21, 22, 23, 24, 25, 26, 27, 28, 29]",229.8203364,7035,1472,15,76,9,2.204989671213251
undo,43,3,0,0,0,7,"[0, 16, 15, 7]",4,25,"[1, 2, 3, 4, 5, 6, 8, 9, 10, 11, 12, 13, 14, 17, 18, 19, 20, 21, 22, 24, 25, 26, 27, 28, 29]",199.7537437,10094,3059,15,59,9,4.730913335158226
undo,43,3,0,0,0,8,"[0, 16, 15, 7, 8]",5,13,"[3, 4, 5, 10, 14, 17, 18, 19, 20, 21, 22, 24, 26]",143.7805358,12310,2216,9,26,9,2.6022124644283724
undo,43,3,0,0,0,24,"[0, 16, 15, 7, 8, 24]",6,9,"[3, 4, 10, 14, 17, 19, 20, 21, 22]",131.6150107,13239,929,9,11,9,2.8609774318136
undo,43,3,0,0,0,17,"[0, 16, 15, 7, 8, 24, 17]",7,2,"[3, 20]",62.2608472,14688,1449,2,0,9,2.323862059665861
undo,43,3,0,0,0,20,"[0, 16, 15, 7, 8, 24, 17, 20]",8,1,[3],49.61173656,15638,950,1,0,9,2.2115860124874804
undo,43,3,0,0,1,3,"[0, 16, 15, 7, 8, 24, 17, 20, 3]",9,0,[],29.21565851,17054,1416,1,0,9,2.164543788989251
undo,43,3,0,1,1,3,"[0, 16, 15, 7, 8, 24, 17, 20, 3]",9,0,[],29.21565851,18408,1354,1,0,9,2.164543788989251
undo,44,4,0,0,0,0,[0],1,26,"[3, 4, 5, 6, 7, 8, 10, 11, 12, 13, 14, 15, 16, 17, 18, 19, 20, 21, 22, 23, 24, 25, 26, 27, 28, 29]",300,151,-1,4,489,10,0.0
undo,44,4,0,0,0,4,"[0, 4]",2,23,"[3, 5, 6, 7, 10, 11, 12, 13, 14, 15, 16, 17, 19, 20, 21, 22, 23, 24, 25, 26, 27, 28, 29]",205.9521398,4638,4487,96,515,8,1.0
undo,44,4,0,0,0,13,"[0, 4, 13]",3,19,"[3, 5, 6, 10, 11, 12, 14, 15, 16, 17, 19, 20, 21, 22, 23, 24, 25, 26, 28]",169.8827622,7181,2543,68,178,8,1.9163921030311182
undo,44,4,0,0,0,28,"[0, 4, 13, 28]",4,13,"[3, 5, 6, 11, 14, 15, 16, 17, 20, 21, 22, 23, 25]",138.3074554,8280,1099,51,55,8,2.183241006085084
undo,44,4,0,0,0,11,"[0, 4, 13, 28, 11]",5,9,"[3, 6, 14, 16, 17, 20, 21, 22, 25]",89.4300578,10262,1982,25,13,8,1.713707381577987
undo,44,4,0,0,0,25,"[0, 4, 13, 28, 11, 25]",6,5,"[3, 14, 16, 17, 21]",70.64176357,11378,1116,9,2,8,1.8086636678248065
undo,44,4,0,0,0,14,"[0, 4, 13, 28, 11, 25, 14]",7,3,"[3, 16, 17]",54.51724808,12375,997,3,0,8,1.7976006179551707
undo,44,4,0,0,1,16,"[0, 4, 13, 28, 11, 25, 14, 16]",8,0,[],21.95960689,15170,2795,1,0,8,2.0170639377940325
undo,44,4,0,1,1,16,"[0, 4, 13, 28, 11, 25, 14, 16]",8,0,[],21.95960689,16894,1724,1,0,8,2.0170639377940325
undo,45,2,0,0,0,0,[0],1,23,"[1, 2, 4, 5, 6, 7, 8, 9, 12, 13, 15, 16, 17, 18, 19, 20, 22, 23, 25, 26, 27, 28, 29]",300,255,-1,70,620,10,0.0
undo,45,2,0,0,0,19,"[0, 19]",2,22,"[1, 2, 4, 5, 6, 7, 8, 9, 12, 13, 15, 16, 17, 18, 20, 22, 23, 25, 26, 27, 28, 29]",210.306076,3336,3081,67,431,10,1.0
undo,45,2,0,0,0,12,"[0, 19, 12]",3,17,"[1, 4, 5, 6, 7, 13, 15, 16, 17, 18, 20, 22, 25, 26, 27, 28, 29]",174.2921898,4830,1494,66,298,10,1.1107635036313153
undo,45,2,0,0,0,5,"[0, 19, 12, 5]",4,11,"[1, 6, 7, 13, 15, 16, 18, 22, 25, 26, 29]",144.7625437,6231,1401,38,136,10,1.0968174771581647
undo,45,2,0,0,0,22,"[0, 19, 12, 5, 22]",5,8,"[1, 6, 7, 13, 15, 18, 26, 29]",131.9562952,7312,1081,20,63,10,1.0889910507461968
undo,45,2,0,0,0,13,"[0, 19, 12, 5, 22, 13]",6,7,"[1, 6, 7, 15, 18, 26, 29]",117.0902265,8228,916,19,20,10,1.236526217328057
undo,45,2,0,0,0,18,"[0, 19, 12, 5, 22, 13, 18]",7,4,"[7, 15, 26, 29]",81.91921567,9625,1397,10,3,10,1.2128708213409936
undo,45,2,0,0,0,7,"[0, 19, 12, 5, 22, 13, 18, 7]",8,3,"[15, 26, 29]",71.62358553,10577,952,5,0,10,1.2019811287894737
undo,45,2,0,0,0,26,"[0, 19, 12, 5, 22, 13, 18, 7, 26]",9,2,"[15, 29]",48.82007703,11457,880,2,0,10,1.1883593342191134
undo,45,2,0,0,1,15,"[0, 19, 12, 5, 22, 13, 18, 7, 26, 15]",10,0,[],24.61264015,12558,1101,1,0,10,1.4619750353663825
undo,45,2,0,1,1,15,"[0, 19, 12, 5, 22, 13, 18, 7, 26, 15]",10,0,[],24.61264015,19473,6915,1,0,10,1.4619750353663825
undo,46,17,0,0,0,0,[0],1,28,"[1, 2, 3, 4, 5, 6, 7, 8, 9, 10, 11, 12, 13, 14, 15, 16, 17, 18, 19, 20, 22, 23, 24, 25, 26, 27, 28, 29]",300,152,-1,2,73,8,0.0
undo,46,17,0,0,0,9,"[0, 9]",2,25,"[1, 2, 3, 5, 6, 7, 8, 10, 11, 12, 14, 15, 16, 17, 18, 19, 20, 22, 23, 24, 25, 26, 27, 28, 29]",210.5293344,8249,8097,1,34,8,1.0
undo,46,17,0,0,0,16,"[0, 9, 16]",3,21,"[1, 2, 3, 5, 7, 8, 10, 11, 12, 14, 17, 18, 19, 20, 22, 23, 25, 26, 27, 28, 29]",197.1876704,9096,847,1,26,8,1.173103464220352
undo,46,17,0,0,0,2,"[0, 9, 16, 2]",4,18,"[1, 3, 5, 7, 8, 10, 11, 12, 14, 17, 18, 19, 23, 25, 26, 27, 28, 29]",181.0631549,9996,900,1,23,8,1.14825089247282
undo,46,17,0,0,0,8,"[0, 9, 16, 2, 8]",5,9,"[3, 7, 10, 11, 12, 14, 17, 26, 27]",145.9490551,10996,1000,1,9,8,1.1509808066472915
undo,46,17,1,0,0,2,"[0, 9, 16, 2]",4,18,"[1, 3, 5, 7, 8, 10, 11, 12, 14, 17, 18, 19, 23, 25, 26, 27, 28, 29]",181.0631549,14292,3296,1,23,8,1.14825089247282
undo,46,17,1,0,0,16,"[0, 9, 16]",3,21,"[1, 2, 3, 5, 7, 8, 10, 11, 12, 14, 17, 18, 19, 20, 22, 23, 25, 26, 27, 28, 29]",197.1876704,14449,157,1,26,8,1.173103464220352
undo,46,17,1,0,0,9,"[0, 9]",2,25,"[1, 2, 3, 5, 6, 7, 8, 10, 11, 12, 14, 15, 16, 17, 18, 19, 20, 22, 23, 24, 25, 26, 27, 28, 29]",210.5293344,14682,233,1,34,8,1.0
undo,46,17,1,0,0,0,[0],1,28,"[1, 2, 3, 4, 5, 6, 7, 8, 9, 10, 11, 12, 13, 14, 15, 16, 17, 18, 19, 20, 22, 23, 24, 25, 26, 27, 28, 29]",300,15048,366,2,73,8,0.0
undo,46,17,0,0,0,9,"[0, 9]",2,25,"[1, 2, 3, 5, 6, 7, 8, 10, 11, 12, 14, 15, 16, 17, 18, 19, 20, 22, 23, 24, 25, 26, 27, 28, 29]",210.5293344,20770,5722,1,34,8,1.0
undo,46,17,0,0,0,16,"[0, 9, 16]",3,21,"[1, 2, 3, 5, 7, 8, 10, 11, 12, 14, 17, 18, 19, 20, 22, 23, 25, 26, 27, 28, 29]",197.1876704,22998,2228,1,26,8,1.173103464220352
undo,46,17,0,0,0,2,"[0, 9, 16, 2]",4,18,"[1, 3, 5, 7, 8, 10, 11, 12, 14, 17, 18, 19, 23, 25, 26, 27, 28, 29]",181.0631549,23916,918,1,23,8,1.14825089247282
undo,46,17,0,0,0,8,"[0, 9, 16, 2, 8]",5,9,"[3, 7, 10, 11, 12, 14, 17, 26, 27]",145.9490551,25215,1299,1,9,8,1.1509808066472915
undo,46,17,0,0,0,7,"[0, 9, 16, 2, 8, 7]",6,3,"[10, 12, 27]",75.238377,26498,1283,3,0,7,1.2222166608088694
undo,46,17,0,0,1,10,"[0, 9, 16, 2, 8, 7, 10]",7,0,[],1.211354911,33297,6799,1,0,7,1.6481269593422236
undo,46,17,0,1,1,10,"[0, 9, 16, 2, 8, 7, 10]",7,0,[],1.211354911,34845,1548,1,0,7,1.6481269593422236
undo,47,38,0,0,0,0,[0],1,29,"[1, 2, 3, 4, 5, 6, 7, 8, 9, 10, 11, 12, 13, 14, 15, 16, 17, 18, 19, 20, 21, 22, 23, 24, 25, 26, 27, 28, 29]",300,142,-1,33,506,9,0.0
undo,47,38,0,0,0,11,"[0, 11]",2,23,"[1, 2, 3, 4, 5, 7, 10, 12, 13, 14, 15, 16, 17, 18, 19, 20, 21, 22, 24, 25, 26, 27, 28]",220.093805,3715,3573,2,40,9,1.0
undo,47,38,0,0,0,28,"[0, 11, 28]",3,16,"[1, 4, 5, 7, 10, 12, 13, 14, 15, 16, 17, 19, 20, 21, 24, 26]",193.0752928,5529,1814,2,20,9,1.0012220945316377
undo,47,38,0,0,0,16,"[0, 11, 28, 16]",4,13,"[1, 4, 5, 10, 12, 13, 14, 15, 17, 19, 20, 24, 26]",164.0752928,6812,1283,2,16,9,1.2422672958602723
undo,47,38,0,0,0,15,"[0, 11, 28, 16, 15]",5,9,"[4, 5, 13, 14, 17, 19, 20, 24, 26]",122.4579887,8144,1332,2,14,9,2.4196280466601676
undo,47,38,0,0,0,4,"[0, 11, 28, 16, 15, 4]",6,6,"[13, 17, 19, 20, 24, 26]",96.45798873,10592,2448,2,9,9,2.9030072771852855
undo,47,38,0,0,0,20,"[0, 11, 28, 16, 15, 4, 20]",7,3,"[13, 17, 19]",62.51686323,11958,1366,1,2,9,4.409951139385221
undo,47,38,0,0,0,17,"[0, 11, 28, 16, 15, 4, 20, 17]",8,1,[19],38.74713459,15337,3379,1,0,9,4.030739410625113
undo,47,38,0,0,1,19,"[0, 11, 28, 16, 15, 4, 20, 17, 19]",9,0,[],17.36957626,16134,797,1,0,9,3.511004666623391
undo,47,38,1,0,0,17,"[0, 11, 28, 16, 15, 4, 20, 17]",8,1,[19],38.74713459,22620,6486,1,0,9,4.030739410625113
undo,47,38,1,0,0,20,"[0, 11, 28, 16, 15, 4, 20]",7,3,"[13, 17, 19]",62.51686323,22787,167,1,2,9,4.409951139385221
undo,47,38,1,0,0,4,"[0, 11, 28, 16, 15, 4]",6,6,"[13, 17, 19, 20, 24, 26]",96.45798873,22953,166,2,9,9,2.9030072771852855
undo,47,38,1,0,0,15,"[0, 11, 28, 16, 15]",5,9,"[4, 5, 13, 14, 17, 19, 20, 24, 26]",122.4579887,23120,167,2,14,9,2.4196280466601676
undo,47,38,1,0,0,16,"[0, 11, 28, 16]",4,13,"[1, 4, 5, 10, 12, 13, 14, 15, 17, 19, 20, 24, 26]",164.0752928,23286,166,2,16,9,1.2422672958602723
undo,47,38,1,0,0,28,"[0, 11, 28]",3,16,"[1, 4, 5, 7, 10, 12, 13, 14, 15, 16, 17, 19, 20, 21, 24, 26]",193.0752928,23469,183,2,20,9,1.0012220945316377
undo,47,38,1,0,0,11,"[0, 11]",2,23,"[1, 2, 3, 4, 5, 7, 10, 12, 13, 14, 15, 16, 17, 18, 19, 20, 21, 22, 24, 25, 26, 27, 28]",220.093805,23786,317,2,40,9,1.0
undo,47,38,1,0,0,0,[0],1,29,"[1, 2, 3, 4, 5, 6, 7, 8, 9, 10, 11, 12, 13, 14, 15, 16, 17, 18, 19, 20, 21, 22, 23, 24, 25, 26, 27, 28, 29]",300,24135,349,33,506,9,0.0
undo,47,38,0,0,0,19,"[0, 19]",2,23,"[3, 4, 5, 6, 7, 8, 9, 11, 13, 14, 15, 16, 17, 18, 20, 22, 23, 24, 25, 26, 27, 28, 29]",219.5015528,26057,1922,6,61,9,1.0
undo,47,38,0,0,0,17,"[0, 19, 17]",3,21,"[3, 4, 5, 6, 7, 9, 11, 13, 14, 15, 16, 18, 20, 22, 23, 24, 25, 26, 27, 28, 29]",198.1239945,27293,1236,6,53,9,1.571793785769489
undo,47,38,0,0,0,20,"[0, 19, 17, 20]",4,17,"[3, 4, 5, 6, 7, 11, 13, 14, 15, 16, 18, 22, 24, 25, 26, 27, 28]",174.3542658,28279,986,6,44,9,2.333182710277297
undo,47,38,0,0,0,4,"[0, 19, 17, 20, 4]",5,10,"[5, 11, 13, 14, 15, 16, 24, 26, 27, 28]",140.4131403,29970,1691,5,22,9,2.276099229646013
undo,47,38,0,0,0,15,"[0, 19, 17, 20, 4, 15]",6,8,"[5, 11, 13, 14, 16, 24, 26, 28]",114.4131403,33302,3332,5,6,9,2.5292671156176403
undo,47,38,0,0,0,11,"[0, 19, 17, 20, 4, 15, 11]",7,2,"[16, 28]",78.01259089,34606,1304,2,0,9,2.778100109749787
undo,47,38,0,0,0,28,"[0, 19, 17, 20, 4, 15, 11, 28]",8,1,[16],50.99407872,36448,1842,1,0,9,2.3316428595723258
undo,47,38,0,0,1,16,"[0, 19, 17, 20, 4, 15, 11, 28, 16]",9,0,[],21.99407872,37598,1150,1,0,9,2.5408012360364265
undo,47,38,0,1,1,16,"[0, 19, 17, 20, 4, 15, 11, 28, 16]",9,0,[],21.99407872,39353,1755,1,0,9,2.5408012360364265
undo,48,7,0,0,0,0,[0],1,29,"[1, 2, 3, 4, 5, 6, 7, 8, 9, 10, 11, 12, 13, 14, 15, 16, 17, 18, 19, 20, 21, 22, 23, 24, 25, 26, 27, 28, 29]",300,158,-1,3,79,9,0.0
undo,48,7,0,0,0,15,"[0, 15]",2,19,"[2, 4, 5, 6, 7, 8, 9, 10, 13, 14, 16, 18, 19, 20, 21, 23, 25, 27, 28]",230.9348134,2000,1842,2,38,9,1.0
undo,48,7,0,0,0,6,"[0, 15, 6]",3,18,"[2, 4, 5, 7, 8, 9, 10, 13, 14, 16, 18, 19, 20, 21, 23, 25, 27, 28]",205.854941,3914,1914,2,36,9,1.366719602896943
undo,48,7,0,0,0,25,"[0, 15, 6, 25]",4,11,"[2, 4, 7, 13, 14, 16, 18, 19, 20, 21, 23]",138.6760753,5280,1366,2,28,9,1.3624631728355765
undo,48,7,0,0,0,4,"[0, 15, 6, 25, 4]",5,7,"[2, 7, 13, 16, 18, 19, 20]",113.9374415,6529,1249,2,12,9,1.3249684384385587
undo,48,7,0,0,0,20,"[0, 15, 6, 25, 4, 20]",6,5,"[2, 7, 13, 18, 19]",94.29055881,7433,904,1,6,9,1.3721893242679268
undo,48,7,0,0,0,18,"[0, 15, 6, 25, 4, 20, 18]",7,3,"[7, 13, 19]",81.48431034,8473,1040,1,2,9,1.5262542308371432
undo,48,7,0,0,0,7,"[0, 15, 6, 25, 4, 20, 18, 7]",8,1,[19],40.25325408,9740,1267,1,0,9,1.41986878673423
undo,48,7,0,0,1,19,"[0, 15, 6, 25, 4, 20, 18, 7, 19]",9,0,[],10.84237174,10992,1252,1,0,9,1.5285658163212987
undo,48,7,0,1,1,19,"[0, 15, 6, 25, 4, 20, 18, 7, 19]",9,0,[],10.84237174,11879,887,1,0,9,1.5285658163212987
undo,49,1,0,0,0,0,[0],1,26,"[1, 2, 4, 5, 7, 8, 9, 10, 11, 12, 13, 14, 15, 16, 17, 18, 19, 20, 21, 22, 23, 24, 25, 26, 28, 29]",300,144,-1,6,74,7,0.0
undo,49,1,0,0,0,14,"[0, 14]",2,19,"[1, 4, 5, 8, 9, 13, 15, 17, 18, 19, 20, 21, 22, 23, 24, 25, 26, 28, 29]",200.1901808,3620,3476,5,42,7,1.0
undo,49,1,0,0,0,17,"[0, 14, 17]",3,15,"[1, 4, 5, 8, 9, 13, 15, 18, 19, 20, 22, 23, 25, 28, 29]",147.8356204,4765,1145,5,27,7,1.0028844724416826
undo,49,1,0,0,0,1,"[0, 14, 17, 1]",4,12,"[4, 5, 8, 9, 15, 18, 20, 22, 23, 25, 28, 29]",123.4840291,6048,1283,5,15,7,1.0264985578353567
undo,49,1,0,0,0,28,"[0, 14, 17, 1, 28]",5,5,"[9, 15, 22, 23, 29]",88.59850198,7216,1168,5,3,7,1.0339861575999345
undo,49,1,0,0,0,23,"[0, 14, 17, 1, 28, 23]",6,2,"[15, 22]",51.70676849,8565,1349,2,0,7,1.0327458250705703
undo,49,1,0,0,1,15,"[0, 14, 17, 1, 28, 23, 15]",7,0,[],20.81987807,10861,2296,1,0,7,1.1948681641401226
undo,49,1,1,0,0,23,"[0, 14, 17, 1, 28, 23]",6,2,"[15, 22]",51.70676849,13132,2271,2,0,7,1.0327458250705703
undo,49,1,1,0,0,28,"[0, 14, 17, 1, 28]",5,5,"[9, 15, 22, 23, 29]",88.59850198,13298,166,5,3,7,1.0339861575999345
undo,49,1,1,0,0,1,"[0, 14, 17, 1]",4,12,"[4, 5, 8, 9, 15, 18, 20, 22, 23, 25, 28, 29]",123.4840291,13465,167,5,15,7,1.0264985578353567
undo,49,1,1,0,0,17,"[0, 14, 17]",3,15,"[1, 4, 5, 8, 9, 13, 15, 18, 19, 20, 22, 23, 25, 28, 29]",147.8356204,13614,149,5,27,7,1.0028844724416826
undo,49,1,1,0,0,14,"[0, 14]",2,19,"[1, 4, 5, 8, 9, 13, 15, 17, 18, 19, 20, 21, 22, 23, 24, 25, 26, 28, 29]",200.1901808,13764,150,5,42,7,1.0
undo,49,1,1,0,0,0,[0],1,26,"[1, 2, 4, 5, 7, 8, 9, 10, 11, 12, 13, 14, 15, 16, 17, 18, 19, 20, 21, 22, 23, 24, 25, 26, 28, 29]",300,13931,167,6,74,7,0.0
undo,49,1,0,0,0,24,"[0, 24]",2,8,"[5, 7, 8, 14, 16, 19, 20, 26]",185.4137879,16091,2160,9,13,5,1.0
undo,49,1,0,0,0,26,"[0, 24, 26]",3,6,"[5, 8, 14, 16, 19, 20]",152.1722476,17135,1044,7,4,5,1.502125301442057
undo,49,1,0,0,0,19,"[0, 24, 26, 19]",4,4,"[5, 8, 16, 20]",113.5458318,18187,1052,4,0,5,1.5438989781695114
undo,49,1,0,0,1,8,"[0, 24, 26, 19, 8]",5,0,[],60.39510274,19507,1320,1,0,5,2.44494793122449
undo,49,1,1,0,0,19,"[0, 24, 26, 19]",4,4,"[5, 8, 16, 20]",113.5458318,22006,2499,4,0,5,1.5438989781695114
undo,49,1,1,0,0,26,"[0, 24, 26]",3,6,"[5, 8, 14, 16, 19, 20]",152.1722476,22206,200,7,4,5,1.502125301442057
undo,49,1,1,0,0,24,"[0, 24]",2,8,"[5, 7, 8, 14, 16, 19, 20, 26]",185.4137879,22373,167,9,13,5,1.0
undo,49,1,1,0,0,0,[0],1,26,"[1, 2, 4, 5, 7, 8, 9, 10, 11, 12, 13, 14, 15, 16, 17, 18, 19, 20, 21, 22, 23, 24, 25, 26, 28, 29]",300,22572,199,6,74,7,0.0
undo,49,1,0,0,0,8,"[0, 8]",2,23,"[1, 4, 5, 7, 9, 10, 11, 12, 13, 14, 15, 16, 17, 18, 19, 20, 21, 23, 24, 25, 26, 28, 29]",202,29208,6636,1,16,7,1.0
undo,49,1,0,0,0,20,"[0, 8, 20]",3,12,"[1, 4, 5, 11, 13, 14, 15, 17, 18, 19, 28, 29]",125.9408125,30575,1367,1,7,7,1.02364736730791
undo,49,1,0,0,0,5,"[0, 8, 20, 5]",4,7,"[1, 4, 11, 13, 17, 18, 29]",104.469902,31580,1005,1,3,7,1.0439599203945713
undo,49,1,0,0,0,18,"[0, 8, 20, 5, 18]",5,2,"[4, 29]",81.64447755,32559,979,1,1,7,1.0840407791793756
undo,49,1,0,0,0,4,"[0, 8, 20, 5, 18, 4]",6,1,[29],42.69579336,33640,1081,1,0,7,1.0902329133216275
undo,49,1,1,0,0,18,"[0, 8, 20, 5, 18]",5,2,"[4, 29]",81.64447755,38524,4884,1,1,7,1.0840407791793756
undo,49,1,1,0,0,5,"[0, 8, 20, 5]",4,7,"[1, 4, 11, 13, 17, 18, 29]",104.469902,38707,183,1,3,7,1.0439599203945713
undo,49,1,1,0,0,20,"[0, 8, 20]",3,12,"[1, 4, 5, 11, 13, 14, 15, 17, 18, 19, 28, 29]",125.9408125,38873,166,1,7,7,1.02364736730791
undo,49,1,1,0,0,8,"[0, 8]",2,23,"[1, 4, 5, 7, 9, 10, 11, 12, 13, 14, 15, 16, 17, 18, 19, 20, 21, 23, 24, 25, 26, 28, 29]",202,39023,150,1,16,7,1.0
undo,49,1,1,0,0,0,[0],1,26,"[1, 2, 4, 5, 7, 8, 9, 10, 11, 12, 13, 14, 15, 16, 17, 18, 19, 20, 21, 22, 23, 24, 25, 26, 28, 29]",300,39173,150,6,74,7,0.0
undo,49,1,0,0,0,14,"[0, 14]",2,19,"[1, 4, 5, 8, 9, 13, 15, 17, 18, 19, 20, 21, 22, 23, 24, 25, 26, 28, 29]",200.1901808,45894,6721,5,42,7,1.0
undo,49,1,0,0,0,17,"[0, 14, 17]",3,15,"[1, 4, 5, 8, 9, 13, 15, 18, 19, 20, 22, 23, 25, 28, 29]",147.8356204,48540,2646,5,27,7,1.0028844724416826
undo,49,1,0,0,0,1,"[0, 14, 17, 1]",4,12,"[4, 5, 8, 9, 15, 18, 20, 22, 23, 25, 28, 29]",123.4840291,49955,1415,5,15,7,1.0264985578353567
undo,49,1,0,0,0,28,"[0, 14, 17, 1, 28]",5,5,"[9, 15, 22, 23, 29]",88.59850198,51193,1238,5,3,7,1.0339861575999345
undo,49,1,0,0,0,23,"[0, 14, 17, 1, 28, 23]",6,2,"[15, 22]",51.70676849,52274,1081,2,0,7,1.0327458250705703
undo,49,1,0,0,1,15,"[0, 14, 17, 1, 28, 23, 15]",7,0,[],20.81987807,53916,1642,1,0,7,1.1948681641401226
undo,49,1,0,1,1,15,"[0, 14, 17, 1, 28, 23, 15]",7,0,[],20.81987807,54807,891,1,0,7,1.1948681641401226
undo,50,12,0,0,0,0,[0],1,29,"[1, 2, 3, 4, 5, 6, 7, 8, 9, 10, 11, 12, 13, 14, 15, 16, 17, 18, 19, 20, 21, 22, 23, 24, 25, 26, 27, 28, 29]",300,153,-1,2,32,9,0.0
undo,50,12,0,0,0,16,"[0, 16]",2,16,"[2, 4, 5, 6, 7, 12, 13, 14, 18, 19, 22, 23, 24, 25, 27, 29]",209.2916762,5264,5111,3,38,8,1.0
undo,50,12,0,0,0,22,"[0, 16, 22]",3,14,"[2, 4, 5, 6, 7, 12, 13, 14, 18, 19, 23, 24, 25, 27]",188.2916762,8685,3421,2,21,8,1.26933081733974
undo,50,12,0,0,0,4,"[0, 16, 22, 4]",4,7,"[6, 12, 14, 19, 24, 25, 27]",143.69347,9962,1277,2,10,8,1.251373590144064
undo,50,12,1,0,0,22,"[0, 16, 22]",3,14,"[2, 4, 5, 6, 7, 12, 13, 14, 18, 19, 23, 24, 25, 27]",188.2916762,11315,1353,2,21,8,1.26933081733974
undo,50,12,1,0,0,16,"[0, 16]",2,16,"[2, 4, 5, 6, 7, 12, 13, 14, 18, 19, 22, 23, 24, 25, 27, 29]",209.2916762,11467,152,3,38,8,1.0
undo,50,12,1,0,0,0,[0],1,29,"[1, 2, 3, 4, 5, 6, 7, 8, 9, 10, 11, 12, 13, 14, 15, 16, 17, 18, 19, 20, 21, 22, 23, 24, 25, 26, 27, 28, 29]",300,13181,1714,2,32,9,0.0
undo,50,12,0,0,0,22,"[0, 22]",2,22,"[2, 4, 5, 6, 7, 9, 10, 12, 13, 14, 15, 16, 17, 18, 19, 21, 23, 24, 25, 27, 28, 29]",211.9943184,14555,1374,6,42,8,1.0
undo,50,12,0,0,0,16,"[0, 22, 16]",3,12,"[2, 4, 5, 6, 7, 12, 14, 19, 23, 24, 25, 27]",190.9943184,15839,1284,6,24,8,1.2017164145167045
undo,50,12,0,0,0,4,"[0, 22, 16, 4]",4,9,"[2, 6, 7, 12, 14, 19, 24, 25, 27]",156.7890556,16946,1107,6,14,8,1.146531713305579
undo,50,12,0,0,0,12,"[0, 22, 16, 4, 12]",5,4,"[14, 19, 24, 27]",114.5990094,18115,1169,4,3,8,1.1221389456954312
undo,50,12,0,0,0,27,"[0, 22, 16, 4, 12, 27]",6,3,"[14, 19, 24]",90.24741807,19145,1030,2,1,8,1.2262878338287035
undo,50,12,0,0,0,14,"[0, 22, 16, 4, 12, 27, 14]",7,1,[24],61.59432051,21133,1988,1,0,8,1.2804562106751427
undo,50,12,0,0,1,24,"[0, 22, 16, 4, 12, 27, 14, 24]",8,0,[],44.38966997,23169,2036,1,0,8,1.4322660007679802
undo,50,12,0,1,1,24,"[0, 22, 16, 4, 12, 27, 14, 24]",8,0,[],44.38966997,24719,1550,1,0,8,1.4322660007679802
undo,51,22,0,0,0,0,[0],1,29,"[1, 2, 3, 4, 5, 6, 7, 8, 9, 10, 11, 12, 13, 14, 15, 16, 17, 18, 19, 20, 21, 22, 23, 24, 25, 26, 27, 28, 29]",300,220,-1,31,704,9,0.0
undo,51,22,0,0,0,16,"[0, 16]",2,21,"[1, 3, 6, 7, 8, 9, 11, 13, 14, 15, 17, 18, 19, 20, 21, 22, 24, 25, 27, 28, 29]",218.605897,3285,3065,17,147,9,1.0
undo,51,22,0,0,0,28,"[0, 16, 28]",3,13,"[6, 7, 9, 13, 14, 17, 19, 20, 21, 22, 24, 25, 29]",184.1675463,5256,1971,12,61,9,1.047282311284478
undo,51,22,0,0,0,6,"[0, 16, 28, 6]",4,12,"[7, 9, 13, 14, 17, 19, 20, 21, 22, 24, 25, 29]",154.1675463,6480,1224,12,43,9,1.645645870580622
undo,51,22,0,0,0,9,"[0, 16, 28, 6, 9]",5,8,"[7, 14, 17, 19, 20, 21, 24, 29]",127.5404924,8597,2117,8,17,9,1.925750226630103
undo,51,22,0,0,0,19,"[0, 16, 28, 6, 9, 19]",6,6,"[7, 14, 17, 21, 24, 29]",107.1444143,9946,1349,3,7,9,2.4220750331476455
undo,51,22,0,0,0,29,"[0, 16, 28, 6, 9, 19, 29]",7,4,"[7, 14, 17, 24]",92.11111796,11198,1252,2,2,9,2.6996279574991067
undo,51,22,0,0,0,14,"[0, 16, 28, 6, 9, 19, 29, 14]",8,1,[7],33.86165444,12663,1465,1,0,9,2.0544639927929462
undo,51,22,0,0,1,7,"[0, 16, 28, 6, 9, 19, 29, 14, 7]",9,0,[],20.82324963,13622,959,1,0,9,2.219817088951114
undo,51,22,0,1,1,7,"[0, 16, 28, 6, 9, 19, 29, 14, 7]",9,0,[],20.82324963,15228,1606,1,0,9,2.219817088951114
undo,52,15,0,0,0,0,[0],1,25,"[1, 2, 3, 4, 7, 8, 9, 10, 11, 12, 13, 14, 15, 16, 18, 20, 21, 22, 23, 24, 25, 26, 27, 28, 29]",300,147,-1,4,65,9,0.0
undo,52,15,0,0,0,21,"[0, 21]",2,17,"[1, 3, 4, 7, 8, 9, 11, 12, 13, 14, 15, 16, 22, 23, 24, 26, 27]",204.9158268,6950,6803,21,65,7,1.0
undo,52,15,0,0,0,12,"[0, 21, 12]",3,14,"[1, 3, 4, 7, 8, 9, 11, 13, 14, 15, 16, 22, 24, 27]",161.0866128,8153,1203,20,39,7,1.6068212046294776
undo,52,15,0,0,0,7,"[0, 21, 12, 7]",4,10,"[3, 4, 9, 11, 13, 14, 15, 16, 22, 27]",127.8450725,9046,893,13,11,7,2.0298522511797907
undo,52,15,0,0,0,16,"[0, 21, 12, 7, 16]",5,5,"[3, 4, 11, 15, 22]",84.18731258,10382,1336,3,3,7,1.8904046427013528
undo,52,15,0,0,0,11,"[0, 21, 12, 7, 16, 11]",6,1,[3],58.16808892,12595,2213,1,0,7,1.9475991988988648
undo,52,15,0,0,1,3,"[0, 21, 12, 7, 16, 11, 3]",7,0,[],46.76633467,13430,835,1,0,7,1.912955285957019
undo,52,15,1,0,0,11,"[0, 21, 12, 7, 16, 11]",6,1,[3],58.16808892,17528,4098,1,0,7,1.9475991988988648
undo,52,15,1,0,0,16,"[0, 21, 12, 7, 16]",5,5,"[3, 4, 11, 15, 22]",84.18731258,17695,167,3,3,7,1.8904046427013528
undo,52,15,1,0,0,7,"[0, 21, 12, 7]",4,10,"[3, 4, 9, 11, 13, 14, 15, 16, 22, 27]",127.8450725,17861,166,13,11,7,2.0298522511797907
undo,52,15,1,0,0,12,"[0, 21, 12]",3,14,"[1, 3, 4, 7, 8, 9, 11, 13, 14, 15, 16, 22, 24, 27]",161.0866128,18011,150,20,39,7,1.6068212046294776
undo,52,15,1,0,0,21,"[0, 21]",2,17,"[1, 3, 4, 7, 8, 9, 11, 12, 13, 14, 15, 16, 22, 23, 24, 26, 27]",204.9158268,18178,167,21,65,7,1.0
undo,52,15,1,0,0,0,[0],1,25,"[1, 2, 3, 4, 7, 8, 9, 10, 11, 12, 13, 14, 15, 16, 18, 20, 21, 22, 23, 24, 25, 26, 27, 28, 29]",300,18328,150,4,65,9,0.0
undo,52,15,0,0,0,12,"[0, 12]",2,22,"[1, 2, 3, 4, 7, 8, 9, 10, 11, 13, 14, 15, 16, 18, 21, 22, 23, 24, 26, 27, 28, 29]",213.547701,20302,1974,4,35,9,1.0
undo,52,15,0,0,0,7,"[0, 12, 7]",3,16,"[1, 3, 4, 8, 9, 10, 11, 13, 14, 15, 16, 18, 21, 22, 24, 27]",180.3061607,21323,1021,4,29,9,1.411291635294361
undo,52,15,0,0,0,16,"[0, 12, 7, 16]",4,10,"[3, 4, 10, 11, 13, 14, 15, 18, 21, 22]",136.6484008,22965,1642,2,11,9,1.4308733430458784
undo,52,15,0,0,0,11,"[0, 12, 7, 16, 11]",5,7,"[3, 4, 13, 14, 15, 21, 22]",110.6291772,23883,918,2,5,9,1.5251025438826007
undo,52,15,0,0,0,3,"[0, 12, 7, 16, 11, 3]",6,5,"[4, 13, 14, 15, 22]",99.22742292,25396,1513,2,3,9,1.5166583878170454
undo,52,15,0,0,0,22,"[0, 12, 7, 16, 11, 3, 22]",7,2,"[13, 15]",49.49815588,26933,1537,2,0,9,1.4519711389669923
undo,52,15,0,0,0,13,"[0, 12, 7, 16, 11, 3, 22, 13]",8,1,[15],21.3379002,28116,1183,1,0,9,1.390947894090134
undo,52,15,0,1,0,13,"[0, 12, 7, 16, 11, 3, 22, 13]",8,1,[15],21.3379002,31548,3432,1,0,9,1.390947894090134
undo,53,14,0,0,0,0,[0],1,29,"[1, 2, 3, 4, 5, 6, 7, 8, 9, 10, 11, 12, 13, 14, 15, 16, 17, 18, 19, 20, 21, 22, 23, 24, 25, 26, 27, 28, 29]",300,142,-1,8,157,10,0.0
undo,53,14,0,0,0,3,"[0, 3]",2,27,"[1, 2, 4, 5, 6, 7, 8, 9, 10, 11, 12, 13, 15, 16, 17, 18, 19, 20, 21, 22, 23, 24, 25, 26, 27, 28, 29]",252.3240102,4931,4789,13,119,7,1.0
undo,53,14,1,0,0,0,[0],1,29,"[1, 2, 3, 4, 5, 6, 7, 8, 9, 10, 11, 12, 13, 14, 15, 16, 17, 18, 19, 20, 21, 22, 23, 24, 25, 26, 27, 28, 29]",300,7070,2139,8,157,10,0.0
undo,53,14,0,0,0,15,"[0, 15]",2,20,"[1, 2, 3, 4, 7, 8, 9, 13, 17, 18, 19, 20, 21, 22, 23, 25, 26, 27, 28, 29]",216.7053423,9076,2006,8,102,10,1.0
undo,53,14,0,0,0,28,"[0, 15, 28]",3,17,"[1, 2, 3, 4, 7, 8, 9, 13, 17, 18, 19, 20, 22, 23, 25, 26, 27]",197.4959696,9998,922,8,48,10,1.0446007867311968
undo,53,14,0,0,0,17,"[0, 15, 28, 17]",4,14,"[1, 2, 3, 4, 7, 8, 13, 18, 19, 20, 22, 23, 25, 26]",184.0423455,11011,1013,8,39,10,1.0729463354689972
undo,53,14,0,0,0,18,"[0, 15, 28, 17, 18]",5,9,"[1, 2, 4, 7, 8, 19, 23, 25, 26]",119.412631,13810,2799,8,27,10,1.5035901079219378
undo,53,14,0,0,0,8,"[0, 15, 28, 17, 18, 8]",6,8,"[1, 2, 4, 7, 19, 23, 25, 26]",105.8111605,14956,1146,8,18,10,1.4819689987843856
undo,53,14,0,0,0,19,"[0, 15, 28, 17, 18, 8, 19]",7,5,"[1, 7, 23, 25, 26]",85.19563238,16483,1527,4,9,10,1.4526746797093781
undo,53,14,0,0,0,1,"[0, 15, 28, 17, 18, 8, 19, 1]",8,4,"[7, 23, 25, 26]",69.96408617,17570,1087,3,1,10,1.4876985459270997
undo,53,14,0,0,0,23,"[0, 15, 28, 17, 18, 8, 19, 1, 23]",9,1,[26],21.96408617,20620,3050,1,0,10,1.4791446279021185
undo,53,14,0,0,1,26,"[0, 15, 28, 17, 18, 8, 19, 1, 23, 26]",10,0,[],11.14743235,21868,1248,1,0,10,1.4559204757247275
undo,53,14,0,1,1,26,"[0, 15, 28, 17, 18, 8, 19, 1, 23, 26]",10,0,[],11.14743235,22770,902,1,0,10,1.4559204757247275
undo,54,19,0,0,0,0,[0],1,29,"[1, 2, 3, 4, 5, 6, 7, 8, 9, 10, 11, 12, 13, 14, 15, 16, 17, 18, 19, 20, 21, 22, 23, 24, 25, 26, 27, 28, 29]",300,145,-1,12,149,8,0.0
undo,54,19,0,0,0,29,"[0, 29]",2,28,"[1, 2, 3, 4, 5, 6, 7, 8, 9, 10, 11, 12, 13, 14, 15, 16, 17, 18, 19, 20, 21, 22, 23, 24, 25, 26, 27, 28]",265.0715016,6904,6759,12,120,8,1.0
undo,54,19,0,0,0,9,"[0, 29, 9]",3,17,"[1, 4, 5, 6, 7, 10, 11, 12, 13, 14, 19, 20, 21, 22, 24, 27, 28]",181.7108394,8243,1339,11,65,8,1.0375842971861238
undo,54,19,0,0,0,6,"[0, 29, 9, 6]",4,12,"[4, 7, 10, 11, 13, 14, 20, 21, 22, 24, 27, 28]",140.2741407,9397,1154,11,34,8,1.0389786364356892
undo,54,19,0,0,0,28,"[0, 29, 9, 6, 28]",5,5,"[4, 11, 14, 22, 27]",89.18598161,13008,3611,2,4,8,1.2864082671854424
undo,54,19,0,0,0,4,"[0, 29, 9, 6, 28, 4]",6,4,"[11, 14, 22, 27]",78.00564173,14774,1766,2,2,8,1.3470045407445053
undo,54,19,0,0,0,11,"[0, 29, 9, 6, 28, 4, 11]",7,1,[14],19.86787431,16106,1332,1,0,8,1.2776511912021429
undo,54,19,0,0,1,14,"[0, 29, 9, 6, 28, 4, 11, 14]",8,0,[],9.051220485,17404,1298,1,0,8,1.39128745765915
undo,54,19,1,0,0,11,"[0, 29, 9, 6, 28, 4, 11]",7,1,[14],19.86787431,23620,6216,1,0,8,1.2776511912021429
undo,54,19,1,0,0,4,"[0, 29, 9, 6, 28, 4]",6,4,"[11, 14, 22, 27]",78.00564173,23804,184,2,2,8,1.3470045407445053
undo,54,19,1,0,0,28,"[0, 29, 9, 6, 28]",5,5,"[4, 11, 14, 22, 27]",89.18598161,23953,149,2,4,8,1.2864082671854424
undo,54,19,1,0,0,6,"[0, 29, 9, 6]",4,12,"[4, 7, 10, 11, 13, 14, 20, 21, 22, 24, 27, 28]",140.2741407,24120,167,11,34,8,1.0389786364356892
undo,54,19,1,0,0,9,"[0, 29, 9]",3,17,"[1, 4, 5, 6, 7, 10, 11, 12, 13, 14, 19, 20, 21, 22, 24, 27, 28]",181.7108394,24270,150,11,65,8,1.0375842971861238
undo,54,19,1,0,0,29,"[0, 29]",2,28,"[1, 2, 3, 4, 5, 6, 7, 8, 9, 10, 11, 12, 13, 14, 15, 16, 17, 18, 19, 20, 21, 22, 23, 24, 25, 26, 27, 28]",265.0715016,24436,166,12,120,8,1.0
undo,54,19,1,0,0,0,[0],1,29,"[1, 2, 3, 4, 5, 6, 7, 8, 9, 10, 11, 12, 13, 14, 15, 16, 17, 18, 19, 20, 21, 22, 23, 24, 25, 26, 27, 28, 29]",300,24603,167,12,149,8,0.0
undo,54,19,0,0,0,9,"[0, 9]",2,21,"[1, 4, 5, 6, 7, 10, 11, 12, 13, 14, 15, 19, 20, 21, 22, 23, 24, 25, 27, 28, 29]",185.9956141,26545,1942,13,76,7,1.0
undo,54,19,0,0,0,6,"[0, 9, 6]",3,13,"[4, 7, 10, 11, 13, 14, 20, 21, 22, 24, 27, 28, 29]",144.5589154,27612,1067,13,38,7,1.0111071984935167
undo,54,19,0,0,0,28,"[0, 9, 6, 28]",4,5,"[4, 11, 14, 22, 27]",93.47075631,29093,1481,2,4,7,1.2602621425624105
undo,54,19,0,0,0,4,"[0, 9, 6, 28, 4]",5,4,"[11, 14, 22, 27]",82.29041642,30188,1095,2,2,7,1.3210056324457753
undo,54,19,0,0,0,11,"[0, 9, 6, 28, 4, 11]",6,1,[14],24.15264901,31404,1216,1,0,7,1.258108814596805
undo,54,19,1,0,0,4,"[0, 9, 6, 28, 4]",5,4,"[11, 14, 22, 27]",82.29041642,35176,3772,2,2,7,1.3210056324457753
undo,54,19,1,0,0,28,"[0, 9, 6, 28]",4,5,"[4, 11, 14, 22, 27]",93.47075631,35342,166,2,4,7,1.2602621425624105
undo,54,19,1,0,0,6,"[0, 9, 6]",3,13,"[4, 7, 10, 11, 13, 14, 20, 21, 22, 24, 27, 28, 29]",144.5589154,35525,183,13,38,7,1.0111071984935167
undo,54,19,1,0,0,9,"[0, 9]",2,21,"[1, 4, 5, 6, 7, 10, 11, 12, 13, 14, 15, 19, 20, 21, 22, 23, 24, 25, 27, 28, 29]",185.9956141,35709,184,13,76,7,1.0
undo,54,19,1,0,0,0,[0],1,29,"[1, 2, 3, 4, 5, 6, 7, 8, 9, 10, 11, 12, 13, 14, 15, 16, 17, 18, 19, 20, 21, 22, 23, 24, 25, 26, 27, 28, 29]",300,35875,166,12,149,8,0.0
undo,54,19,0,0,0,29,"[0, 29]",2,28,"[1, 2, 3, 4, 5, 6, 7, 8, 9, 10, 11, 12, 13, 14, 15, 16, 17, 18, 19, 20, 21, 22, 23, 24, 25, 26, 27, 28]",265.0715016,38348,2473,12,120,8,1.0
undo,54,19,0,0,0,9,"[0, 29, 9]",3,17,"[1, 4, 5, 6, 7, 10, 11, 12, 13, 14, 19, 20, 21, 22, 24, 27, 28]",181.7108394,40446,2098,11,65,8,1.0375842971861238
undo,54,19,0,0,0,6,"[0, 29, 9, 6]",4,12,"[4, 7, 10, 11, 13, 14, 20, 21, 22, 24, 27, 28]",140.2741407,44208,3762,11,34,8,1.0389786364356892
undo,54,19,0,0,0,4,"[0, 29, 9, 6, 4]",5,7,"[10, 11, 14, 20, 22, 27, 28]",99.22538921,45490,1282,2,6,8,1.2182485830176533
undo,54,19,0,0,0,28,"[0, 29, 9, 6, 4, 28]",6,3,"[11, 14, 27]",88.04504932,46377,887,2,1,8,1.2933703503588658
undo,54,19,0,0,0,11,"[0, 29, 9, 6, 4, 28, 11]",7,1,[14],23.50823812,47626,1249,1,0,8,1.2610479003557273
undo,54,19,0,0,1,14,"[0, 29, 9, 6, 4, 28, 11, 14]",8,0,[],12.69158429,48627,1001,1,0,8,1.3738796083749716
undo,54,19,0,1,1,14,"[0, 29, 9, 6, 4, 28, 11, 14]",8,0,[],12.69158429,49345,718,1,0,8,1.3738796083749716
undo,55,30,0,0,0,0,[0],1,19,"[3, 4, 5, 7, 9, 11, 16, 17, 18, 19, 20, 21, 22, 24, 25, 26, 27, 28, 29]",300,159,-1,5,41,8,0.0
undo,55,30,0,0,0,16,"[0, 16]",2,17,"[3, 5, 7, 9, 11, 17, 18, 19, 20, 21, 22, 24, 25, 26, 27, 28, 29]",219.3774225,6411,6252,5,34,8,1.0
undo,55,30,0,0,0,25,"[0, 16, 25]",3,10,"[3, 5, 7, 9, 11, 18, 19, 20, 27, 29]",115.0845656,8441,2030,5,28,8,1.0336279544884488
undo,55,30,0,0,0,20,"[0, 16, 25, 20]",4,8,"[3, 5, 7, 9, 18, 19, 27, 29]",93.15285342,10773,2332,4,14,8,1.0337964627284246
undo,55,30,0,0,0,27,"[0, 16, 25, 20, 27]",5,4,"[3, 5, 18, 29]",59.09408069,12013,1240,4,6,8,1.1504365534848
undo,55,30,0,0,0,3,"[0, 16, 25, 20, 27, 3]",6,3,"[5, 18, 29]",39.98910751,13337,1324,4,0,8,1.1403876826835333
undo,55,30,0,0,0,18,"[0, 16, 25, 20, 27, 3, 18]",7,2,"[5, 29]",21.74081992,15085,1748,2,0,8,1.1392589158498312
undo,55,30,0,0,1,5,"[0, 16, 25, 20, 27, 3, 18, 5]",8,0,[],8.702415112,16222,1137,1,0,8,1.2046350140224855
undo,55,30,1,0,0,18,"[0, 16, 25, 20, 27, 3, 18]",7,2,"[5, 29]",21.74081992,17275,1053,2,0,8,1.1392589158498312
undo,55,30,1,0,0,3,"[0, 16, 25, 20, 27, 3]",6,3,"[5, 18, 29]",39.98910751,17441,166,4,0,8,1.1403876826835333
undo,55,30,1,0,0,27,"[0, 16, 25, 20, 27]",5,4,"[3, 5, 18, 29]",59.09408069,17591,150,4,6,8,1.1504365534848
undo,55,30,1,0,0,20,"[0, 16, 25, 20]",4,8,"[3, 5, 7, 9, 18, 19, 27, 29]",93.15285342,17741,150,4,14,8,1.0337964627284246
undo,55,30,1,0,0,25,"[0, 16, 25]",3,10,"[3, 5, 7, 9, 11, 18, 19, 20, 27, 29]",115.0845656,17907,166,5,28,8,1.0336279544884488
undo,55,30,1,0,0,16,"[0, 16]",2,17,"[3, 5, 7, 9, 11, 17, 18, 19, 20, 21, 22, 24, 25, 26, 27, 28, 29]",219.3774225,18074,167,5,34,8,1.0
undo,55,30,1,0,0,0,[0],1,19,"[3, 4, 5, 7, 9, 11, 16, 17, 18, 19, 20, 21, 22, 24, 25, 26, 27, 28, 29]",300,18274,200,5,41,8,0.0
undo,55,30,0,0,0,16,"[0, 16]",2,17,"[3, 5, 7, 9, 11, 17, 18, 19, 20, 21, 22, 24, 25, 26, 27, 28, 29]",219.3774225,27142,8868,5,34,8,1.0
undo,55,30,0,0,0,25,"[0, 16, 25]",3,10,"[3, 5, 7, 9, 11, 18, 19, 20, 27, 29]",115.0845656,28887,1745,5,28,8,1.0336279544884488
undo,55,30,0,0,0,27,"[0, 16, 25, 27]",4,7,"[3, 5, 7, 18, 19, 20, 29]",75.52448473,31452,2565,1,12,8,1.0719738181137488
undo,55,30,0,0,0,3,"[0, 16, 25, 27, 3]",5,5,"[5, 7, 18, 20, 29]",56.41951155,32434,982,1,4,8,1.0683252001879187
undo,55,30,0,0,0,29,"[0, 16, 25, 27, 3, 29]",6,2,"[5, 18]",37.81843632,34152,1718,1,1,8,1.0768958290478794
undo,55,30,0,0,0,18,"[0, 16, 25, 27, 3, 29, 18]",7,1,[5],18.5052284,35537,1385,1,0,8,1.1525061930327378
undo,55,30,0,0,1,5,"[0, 16, 25, 27, 3, 29, 18, 5]",8,0,[],5.466823591,36437,900,1,0,8,1.2180155123152177
undo,55,30,0,1,1,5,"[0, 16, 25, 27, 3, 29, 18, 5]",8,0,[],5.466823591,37787,1350,1,0,8,1.2180155123152177
undo,56,32,0,0,0,0,[0],1,29,"[1, 2, 3, 4, 5, 6, 7, 8, 9, 10, 11, 12, 13, 14, 15, 16, 17, 18, 19, 20, 21, 22, 23, 24, 25, 26, 27, 28, 29]",300,201,-1,17,359,10,0.0
undo,56,32,0,0,0,19,"[0, 19]",2,28,"[1, 2, 3, 4, 5, 6, 7, 8, 9, 10, 11, 12, 13, 14, 15, 16, 17, 18, 20, 21, 22, 23, 24, 25, 26, 27, 28, 29]",283.5075775,3100,2899,16,294,10,1.0
undo,56,32,0,0,0,13,"[0, 19, 13]",3,24,"[2, 3, 4, 5, 6, 8, 9, 10, 11, 12, 14, 15, 16, 17, 18, 20, 21, 22, 23, 24, 25, 26, 27, 28]",260.3127505,4382,1282,14,227,10,1.0172874229878615
undo,56,32,0,0,0,15,"[0, 19, 13, 15]",4,18,"[2, 3, 5, 8, 9, 10, 11, 12, 16, 17, 20, 22, 23, 24, 25, 26, 27, 28]",177.4393531,6113,1731,9,116,10,1.435447391509833
undo,56,32,0,0,0,28,"[0, 19, 13, 15, 28]",5,17,"[2, 3, 5, 8, 9, 10, 11, 12, 16, 17, 20, 22, 23, 24, 25, 26, 27]",166.0375988,6962,849,9,70,10,1.3843701324937985
undo,56,32,0,0,0,12,"[0, 19, 13, 15, 28, 12]",6,14,"[2, 3, 5, 8, 9, 10, 11, 16, 17, 20, 22, 24, 26, 27]",147.0639329,8211,1249,6,35,10,1.358372254952329
undo,56,32,0,0,0,16,"[0, 19, 13, 15, 28, 12, 16]",7,13,"[2, 3, 5, 8, 9, 10, 11, 17, 20, 22, 24, 26, 27]",131.411457,10042,1831,5,15,10,1.4356932930709845
undo,56,32,0,0,0,22,"[0, 19, 13, 15, 28, 12, 16, 22]",8,6,"[2, 8, 9, 17, 20, 27]",97.57360838,11324,1282,3,5,10,1.4335226411545752
undo,56,32,0,0,0,9,"[0, 19, 13, 15, 28, 12, 16, 22, 9]",9,3,"[2, 8, 20]",75.37000507,12661,1337,3,0,10,1.4837166378374758
undo,56,32,0,0,1,8,"[0, 19, 13, 15, 28, 12, 16, 22, 9, 8]",10,0,[],30.24794838,13946,1285,1,0,10,1.3767698817641267
undo,56,32,0,1,1,8,"[0, 19, 13, 15, 28, 12, 16, 22, 9, 8]",10,0,[],30.24794838,15063,1117,1,0,10,1.3767698817641267
undo,57,43,0,0,0,0,[0],1,23,"[1, 2, 3, 4, 5, 6, 7, 9, 10, 11, 12, 14, 15, 16, 17, 19, 20, 21, 22, 23, 25, 27, 29]",300,165,-1,16,556,12,0.0
undo,57,43,0,0,0,29,"[0, 29]",2,22,"[1, 2, 3, 4, 5, 6, 7, 9, 10, 11, 12, 14, 15, 16, 17, 19, 20, 21, 22, 23, 25, 27]",277.909278,2683,2518,16,520,12,1.0
