condition,trial_id,map_id,undoIndicator,submit,checkEnd,currentChoice,chosen_all,n_city_all,n_within_reach,cities_reach,currentBudget,time_all,rt_all,n_opt_paths_all,n_subopt_paths_all,mas_all,tortuosity_all
basic,0,16,0,0,0,0,[0],1,29,"[1, 2, 3, 4, 5, 6, 7, 8, 9, 10, 11, 12, 13, 14, 15, 16, 17, 18, 19, 20, 21, 22, 23, 24, 25, 26, 27, 28, 29]",300,293,-1,13,161,9,0.0
basic,0,16,0,0,0,17,"[0, 17]",2,27,"[1, 2, 3, 4, 5, 7, 8, 9, 10, 11, 12, 13, 14, 15, 16, 18, 19, 20, 21, 22, 23, 24, 25, 26, 27, 28, 29]",241.3058776,8104,7811,2,58,9,1.0
basic,0,16,0,0,0,16,"[0, 17, 16]",3,26,"[1, 2, 3, 4, 5, 7, 8, 9, 10, 11, 12, 13, 14, 15, 18, 19, 20, 21, 22, 23, 24, 25, 26, 27, 28, 29]",212.9862731,10906,2802,2,52,9,1.0529535521792848
basic,0,16,0,0,0,8,"[0, 17, 16, 8]",4,19,"[2, 3, 4, 5, 9, 12, 13, 14, 15, 19, 20, 21, 22, 23, 25, 26, 27, 28, 29]",164.6127266,12372,1466,2,38,9,1.0915134501573105
basic,0,16,0,0,0,20,"[0, 17, 16, 8, 20]",5,10,"[3, 4, 5, 9, 12, 13, 15, 19, 21, 25]",106.8372993,13417,1045,1,15,9,1.067523143001942
basic,0,16,0,0,0,25,"[0, 17, 16, 8, 20, 25]",6,7,"[3, 4, 5, 9, 12, 13, 15]",94.18818869,14796,1379,1,9,9,1.1170093326933646
basic,0,16,0,0,0,9,"[0, 17, 16, 8, 20, 25, 9]",7,5,"[3, 4, 5, 13, 15]",81.38194021,16029,1233,1,4,9,1.1095076562662525
basic,0,16,0,0,0,15,"[0, 17, 16, 8, 20, 25, 9, 15]",8,1,[5],42.48463953,17755,1726,1,0,9,1.213831159678775
basic,0,16,0,0,1,5,"[0, 17, 16, 8, 20, 25, 9, 15, 5]",9,0,[],13.0567616,20478,2723,1,0,9,1.5171779607523481
basic,0,16,0,1,1,5,"[0, 17, 16, 8, 20, 25, 9, 15, 5]",9,0,[],13.0567616,22907,2429,1,0,9,1.5171779607523481
basic,1,9,0,0,0,0,[0],1,27,"[1, 3, 4, 5, 6, 7, 8, 9, 10, 11, 13, 14, 15, 16, 17, 18, 19, 20, 21, 22, 23, 24, 25, 26, 27, 28, 29]",300,181,-1,2,182,10,0.0
basic,1,9,0,0,0,9,"[0, 9]",2,26,"[1, 3, 4, 5, 6, 7, 8, 10, 11, 13, 14, 15, 16, 17, 18, 19, 20, 21, 22, 23, 24, 25, 26, 27, 28, 29]",225.5352432,6345,6164,2,101,9,1.0
basic,1,9,0,0,0,23,"[0, 9, 23]",3,22,"[1, 3, 4, 5, 7, 8, 10, 11, 13, 15, 16, 17, 18, 19, 20, 21, 22, 24, 25, 26, 27, 28]",203.1745635,7480,1135,2,70,9,1.6262276606762436
basic,1,9,0,0,0,8,"[0, 9, 23, 8]",4,18,"[3, 4, 5, 7, 10, 11, 15, 16, 17, 18, 19, 20, 21, 22, 25, 26, 27, 28]",181.7036529,8838,1358,1,36,9,1.8547307061753238
basic,1,9,0,0,0,28,"[0, 9, 23, 8, 28]",5,17,"[3, 4, 5, 7, 10, 11, 15, 16, 17, 18, 19, 20, 21, 22, 25, 26, 27]",170.8869991,9668,830,1,23,9,1.7382749966569708
basic,1,9,0,0,0,26,"[0, 9, 23, 8, 28, 26]",6,10,"[3, 5, 10, 15, 16, 18, 19, 20, 21, 25]",126.1097727,11255,1587,4,7,8,1.4884719959249546
basic,1,9,0,0,0,21,"[0, 9, 23, 8, 28, 26, 21]",7,1,[20],72.20244484,12240,985,1,0,8,1.9218119811471304
basic,1,9,0,0,1,20,"[0, 9, 23, 8, 28, 26, 21, 20]",8,0,[],60.11939886,13170,930,1,0,8,1.8940565724013747
basic,1,9,0,1,1,20,"[0, 9, 23, 8, 28, 26, 21, 20]",8,0,[],60.11939886,16106,2936,1,0,8,1.8940565724013747
basic,2,10,0,0,0,0,[0],1,29,"[1, 2, 3, 4, 5, 6, 7, 8, 9, 10, 11, 12, 13, 14, 15, 16, 17, 18, 19, 20, 21, 22, 23, 24, 25, 26, 27, 28, 29]",300,191,-1,1,100,9,0.0
basic,2,10,0,0,0,13,"[0, 13]",2,25,"[1, 2, 3, 4, 6, 7, 8, 9, 10, 11, 12, 14, 17, 18, 19, 20, 21, 22, 23, 24, 25, 26, 27, 28, 29]",249.4628849,3638,3447,1,79,9,1.0
basic,2,10,0,0,0,11,"[0, 13, 11]",3,20,"[1, 2, 3, 6, 7, 8, 9, 10, 12, 14, 18, 19, 20, 21, 22, 24, 26, 27, 28, 29]",206.4512586,5267,1629,1,54,9,1.0313137484914219
basic,2,10,0,0,0,19,"[0, 13, 11, 19]",4,11,"[2, 6, 8, 9, 10, 14, 18, 20, 24, 26, 27]",170.0919407,6470,1203,1,22,9,1.0879446220132545
basic,2,10,0,0,0,2,"[0, 13, 11, 19, 2]",5,4,"[14, 20, 26, 27]",126.1829439,7320,850,1,4,9,1.06474052351343
basic,2,10,0,0,0,14,"[0, 13, 11, 19, 2, 14]",6,3,"[20, 26, 27]",114.0174188,7884,564,1,3,9,1.1628909195912238
basic,2,10,0,0,0,26,"[0, 13, 11, 19, 2, 14, 26]",7,2,"[20, 27]",79.34754716,9724,1840,1,1,9,1.6660727647633602
basic,2,10,0,0,0,20,"[0, 13, 11, 19, 2, 14, 26, 20]",8,1,[27],47.56704999,10768,1044,1,0,9,2.085581809637999
basic,2,10,0,0,1,27,"[0, 13, 11, 19, 2, 14, 26, 20, 27]",9,0,[],2.312215998,12020,1252,1,0,9,1.9116357409137932
basic,2,10,0,1,1,27,"[0, 13, 11, 19, 2, 14, 26, 20, 27]",9,0,[],2.312215998,21178,9158,1,0,9,1.9116357409137932
basic,3,12,0,0,0,0,[0],1,29,"[1, 2, 3, 4, 5, 6, 7, 8, 9, 10, 11, 12, 13, 14, 15, 16, 17, 18, 19, 20, 21, 22, 23, 24, 25, 26, 27, 28, 29]",300,232,-1,2,32,9,0.0
basic,3,12,0,0,0,22,"[0, 22]",2,22,"[2, 4, 5, 6, 7, 9, 10, 12, 13, 14, 15, 16, 17, 18, 19, 21, 23, 24, 25, 27, 28, 29]",211.9943184,5137,4905,6,42,8,1.0
basic,3,12,0,0,0,16,"[0, 22, 16]",3,12,"[2, 4, 5, 6, 7, 12, 14, 19, 23, 24, 25, 27]",190.9943184,5967,830,6,24,8,1.2017164145167045
basic,3,12,0,0,0,4,"[0, 22, 16, 4]",4,9,"[2, 6, 7, 12, 14, 19, 24, 25, 27]",156.7890556,6973,1006,6,14,8,1.146531713305579
basic,3,12,0,0,0,12,"[0, 22, 16, 4, 12]",5,4,"[14, 19, 24, 27]",114.5990094,7873,900,4,3,8,1.1221389456954312
basic,3,12,0,0,0,27,"[0, 22, 16, 4, 12, 27]",6,3,"[14, 19, 24]",90.24741807,10135,2262,2,1,8,1.2262878338287035
basic,3,12,0,0,0,14,"[0, 22, 16, 4, 12, 27, 14]",7,1,[24],61.59432051,11407,1272,1,0,8,1.2804562106751427
basic,3,12,0,0,1,24,"[0, 22, 16, 4, 12, 27, 14, 24]",8,0,[],44.38966997,12401,994,1,0,8,1.4322660007679802
basic,3,12,0,1,1,24,"[0, 22, 16, 4, 12, 27, 14, 24]",8,0,[],44.38966997,15012,2611,1,0,8,1.4322660007679802
basic,4,11,0,0,0,0,[0],1,25,"[1, 2, 3, 4, 5, 6, 8, 9, 10, 11, 12, 13, 14, 15, 16, 17, 18, 19, 20, 22, 23, 25, 26, 27, 28]",300,224,-1,6,374,12,0.0
basic,4,11,0,0,0,8,"[0, 8]",2,19,"[1, 2, 4, 5, 6, 10, 11, 12, 14, 15, 17, 18, 19, 22, 23, 25, 26, 27, 28]",154.7932508,9520,9296,181,767,9,1.0
basic,4,11,0,0,0,17,"[0, 8, 17]",3,15,"[1, 2, 4, 5, 6, 11, 12, 15, 18, 19, 22, 23, 25, 27, 28]",140.4754298,10554,1034,86,201,9,1.0846240899450907
basic,4,11,0,0,0,15,"[0, 8, 17, 15]",4,13,"[1, 2, 5, 6, 11, 12, 18, 19, 22, 23, 25, 27, 28]",127.8263191,11350,796,67,51,9,1.0975608447713743
basic,4,11,0,0,0,11,"[0, 8, 17, 15, 11]",5,9,"[2, 5, 6, 12, 19, 22, 25, 27, 28]",109.7155489,12009,659,25,3,9,1.0975838566653757
basic,4,11,0,0,0,28,"[0, 8, 17, 15, 11, 28]",6,4,"[2, 5, 19, 22]",90.29906103,13028,1019,7,2,9,1.2135235291684319
basic,4,11,0,0,0,5,"[0, 8, 17, 15, 11, 28, 5]",7,2,"[2, 22]",72.41051721,14671,1643,2,0,9,1.3988895370454302
basic,4,11,0,0,0,2,"[0, 8, 17, 15, 11, 28, 5, 2]",8,1,[22],55.41051721,16050,1379,1,0,9,1.3703405989501332
basic,4,11,0,0,1,22,"[0, 8, 17, 15, 11, 28, 5, 2, 22]",9,0,[],45.36064159,18514,2464,1,0,9,1.3506296271324352
basic,4,11,0,1,1,22,"[0, 8, 17, 15, 11, 28, 5, 2, 22]",9,0,[],45.36064159,23770,5256,1,0,9,1.3506296271324352
basic,5,15,0,0,0,0,[0],1,25,"[1, 2, 3, 4, 7, 8, 9, 10, 11, 12, 13, 14, 15, 16, 18, 20, 21, 22, 23, 24, 25, 26, 27, 28, 29]",300,278,-1,4,65,9,0.0
basic,5,15,0,0,0,7,"[0, 7]",2,23,"[1, 3, 4, 8, 9, 10, 11, 12, 13, 14, 15, 16, 18, 20, 21, 22, 23, 24, 25, 26, 27, 28, 29]",215.1884442,5883,5605,30,107,8,1.0
basic,5,15,0,0,0,11,"[0, 7, 11]",3,18,"[3, 4, 8, 9, 10, 12, 13, 14, 15, 16, 18, 20, 21, 22, 23, 25, 27, 29]",173.7035072,8483,2600,12,34,8,1.0171318876095128
basic,5,15,0,0,0,16,"[0, 7, 11, 16]",4,10,"[3, 4, 10, 12, 13, 14, 15, 18, 21, 22]",147.6842835,10690,2207,5,9,8,1.3342048656649041
basic,5,15,0,0,0,3,"[0, 7, 11, 16, 3]",5,7,"[4, 12, 13, 14, 15, 21, 22]",122.6044111,11902,1212,5,3,8,1.3400660178791453
basic,5,15,0,0,0,22,"[0, 7, 11, 16, 3, 22]",6,3,"[4, 13, 15]",72.87514405,13540,1638,2,1,8,1.316472287619004
basic,5,15,0,0,0,15,"[0, 7, 11, 16, 3, 22, 15]",7,1,[13],47.2626471,14767,1227,1,0,8,1.286982864826706
basic,5,15,0,0,1,13,"[0, 7, 11, 16, 3, 22, 15, 13]",8,0,[],31.99830958,16005,1238,1,0,8,1.3377362302582312
basic,5,15,0,1,1,13,"[0, 7, 11, 16, 3, 22, 15, 13]",8,0,[],31.99830958,17693,1688,1,0,8,1.3377362302582312
basic,6,3,0,0,0,0,[0],1,29,"[1, 2, 3, 4, 5, 6, 7, 8, 9, 10, 11, 12, 13, 14, 15, 16, 17, 18, 19, 20, 21, 22, 23, 24, 25, 26, 27, 28, 29]",300,280,-1,34,427,10,0.0
basic,6,3,0,0,0,24,"[0, 24]",2,27,"[1, 2, 3, 4, 5, 6, 7, 8, 9, 10, 11, 12, 13, 14, 15, 16, 17, 18, 19, 20, 21, 22, 25, 26, 27, 28, 29]",241.1442441,7350,7070,1,40,10,1.0
basic,6,3,0,0,0,14,"[0, 24, 14]",3,13,"[3, 4, 5, 7, 8, 10, 15, 16, 17, 19, 20, 21, 22]",170.0316573,9252,1902,18,48,8,1.0098151009633862
basic,6,3,0,0,0,21,"[0, 24, 14, 21]",4,7,"[3, 4, 8, 10, 17, 19, 20]",143.1244092,10286,1034,6,11,8,1.0202009303096395
basic,6,3,0,0,0,19,"[0, 24, 14, 21, 19]",5,6,"[3, 4, 8, 10, 17, 20]",130.9178536,11220,934,6,3,8,1.1456944640362767
basic,6,3,0,0,0,3,"[0, 24, 14, 21, 19, 3]",6,4,"[8, 10, 17, 20]",93.58154422,12705,1485,2,2,8,1.6500281513059782
basic,6,3,0,0,0,20,"[0, 24, 14, 21, 19, 3, 20]",7,1,[17],73.18546616,14800,2095,1,0,8,2.0033680635738516
basic,6,3,0,0,1,17,"[0, 24, 14, 21, 19, 3, 20, 17]",8,0,[],60.53635552,16583,1783,1,0,8,2.3407186890437437
basic,6,3,0,1,1,17,"[0, 24, 14, 21, 19, 3, 20, 17]",8,0,[],60.53635552,19744,3161,1,0,8,2.3407186890437437
basic,7,0,0,0,0,0,[0],1,27,"[2, 3, 4, 5, 6, 7, 8, 9, 10, 11, 12, 13, 14, 15, 16, 17, 19, 20, 21, 22, 23, 24, 25, 26, 27, 28, 29]",300,230,-1,104,1136,9,0.0
basic,7,0,0,0,0,28,"[0, 28]",2,26,"[2, 3, 4, 5, 6, 7, 8, 9, 10, 11, 12, 13, 14, 15, 16, 17, 19, 20, 21, 22, 23, 24, 25, 26, 27, 29]",194.9190788,7418,7188,39,388,9,1.0
basic,7,0,0,0,0,12,"[0, 28, 12]",3,19,"[3, 4, 5, 7, 8, 9, 10, 11, 13, 14, 15, 17, 19, 20, 21, 22, 23, 24, 26]",141.7683497,10687,3269,3,43,9,1.0142012686492925
basic,7,0,0,0,0,26,"[0, 28, 12, 26]",4,14,"[3, 4, 5, 7, 8, 9, 11, 14, 15, 17, 19, 20, 23, 24]",106.5405198,11779,1092,3,25,9,1.1974841199765223
basic,7,0,0,0,0,4,"[0, 28, 12, 26, 4]",5,11,"[3, 5, 7, 8, 9, 11, 15, 17, 20, 23, 24]",94.49892525,12849,1070,3,13,9,1.3127642586979258
basic,7,0,0,0,0,5,"[0, 28, 12, 26, 4, 5]",6,4,"[11, 15, 20, 24]",69.41905284,14557,1708,1,3,8,1.7019013951311428
basic,7,0,0,0,0,24,"[0, 28, 12, 26, 4, 5, 24]",7,1,[15],36.66237413,17967,3410,1,0,8,1.5784575474301492
basic,7,0,0,0,1,15,"[0, 28, 12, 26, 4, 5, 24, 15]",8,0,[],13.31713907,19933,1966,1,0,8,1.516607038412201
basic,7,0,0,1,1,15,"[0, 28, 12, 26, 4, 5, 24, 15]",8,0,[],13.31713907,23659,3726,1,0,8,1.516607038412201
basic,8,20,0,0,0,0,[0],1,21,"[1, 2, 3, 4, 5, 6, 7, 8, 9, 12, 17, 18, 20, 21, 22, 23, 25, 26, 27, 28, 29]",300,277,-1,1,9,9,0.0
basic,8,20,0,0,0,12,"[0, 12]",2,20,"[1, 2, 3, 4, 5, 6, 7, 8, 9, 17, 18, 20, 21, 22, 23, 25, 26, 27, 28, 29]",271.5570747,3335,3058,1,8,9,1.0
basic,8,20,0,0,0,1,"[0, 12, 1]",3,12,"[3, 4, 5, 6, 8, 9, 20, 21, 23, 27, 28, 29]",189.5692707,4782,1447,1,6,9,1.0757997779162911
basic,8,20,0,0,0,5,"[0, 12, 1, 5]",4,10,"[4, 6, 8, 9, 20, 21, 23, 27, 28, 29]",152.8950291,5934,1152,1,5,9,1.1708231454516806
basic,8,20,0,0,0,21,"[0, 12, 1, 5, 21]",5,8,"[4, 6, 8, 9, 20, 23, 27, 28]",107.8950291,9007,3073,1,4,9,1.126197336199212
basic,8,20,0,0,0,8,"[0, 12, 1, 5, 21, 8]",6,5,"[6, 9, 23, 27, 28]",90.43077988,10097,1090,1,3,9,1.140007470699913
basic,8,20,0,0,0,23,"[0, 12, 1, 5, 21, 8, 23]",7,2,"[6, 9]",45.74297394,11476,1379,1,1,9,1.1162257896627588
basic,8,20,0,0,0,9,"[0, 12, 1, 5, 21, 8, 23, 9]",8,1,[6],26.53360123,12485,1009,1,0,9,1.1086880559449597
basic,8,20,0,0,1,6,"[0, 12, 1, 5, 21, 8, 23, 9, 6]",9,0,[],3.511872362,13782,1297,1,0,9,1.1186240265999328
basic,8,20,0,1,1,6,"[0, 12, 1, 5, 21, 8, 23, 9, 6]",9,0,[],3.511872362,16727,2945,1,0,9,1.1186240265999328
basic,9,42,0,0,0,0,[0],1,29,"[1, 2, 3, 4, 5, 6, 7, 8, 9, 10, 11, 12, 13, 14, 15, 16, 17, 18, 19, 20, 21, 22, 23, 24, 25, 26, 27, 28, 29]",300,279,-1,16,302,9,0.0
basic,9,42,0,0,0,4,"[0, 4]",2,28,"[1, 2, 3, 5, 6, 7, 8, 9, 10, 11, 12, 13, 14, 15, 16, 17, 18, 19, 20, 21, 22, 23, 24, 25, 26, 27, 28, 29]",209.5290102,11000,10721,4,80,9,1.0
basic,9,42,0,0,0,22,"[0, 4, 22]",3,24,"[1, 2, 3, 5, 6, 7, 8, 9, 10, 11, 13, 15, 17, 18, 19, 20, 21, 23, 24, 25, 26, 27, 28, 29]",198.3486703,13459,2459,3,53,9,1.1473032812120834
basic,9,42,0,0,0,8,"[0, 4, 22, 8]",4,21,"[1, 2, 3, 5, 6, 7, 10, 11, 15, 17, 18, 19, 20, 21, 23, 24, 25, 26, 27, 28, 29]",176.2127267,14516,1057,2,36,9,1.1513227322639639
basic,9,42,0,0,0,1,"[0, 4, 22, 8, 1]",5,12,"[2, 5, 6, 7, 10, 15, 18, 19, 24, 26, 27, 28]",127.1209758,15672,1156,2,24,9,1.1101621876186907
basic,9,42,0,0,0,7,"[0, 4, 22, 8, 1, 7]",6,5,"[2, 19, 26, 27, 28]",97.12097583,16520,848,2,10,9,1.1711274205343067
basic,9,42,0,0,0,26,"[0, 4, 22, 8, 1, 7, 26]",7,3,"[2, 19, 27]",70.55031532,21150,4630,2,1,9,1.1588367913131314
basic,9,42,0,0,0,27,"[0, 4, 22, 8, 1, 7, 26, 27]",8,1,[19],52.52255894,23274,2124,1,0,9,1.160587570992885
basic,9,42,0,0,1,19,"[0, 4, 22, 8, 1, 7, 26, 27, 19]",9,0,[],11.51036563,24616,1342,1,0,9,1.3341568614108437
basic,9,42,0,1,1,19,"[0, 4, 22, 8, 1, 7, 26, 27, 19]",9,0,[],11.51036563,26260,1644,1,0,9,1.3341568614108437
basic,10,14,0,0,0,0,[0],1,29,"[1, 2, 3, 4, 5, 6, 7, 8, 9, 10, 11, 12, 13, 14, 15, 16, 17, 18, 19, 20, 21, 22, 23, 24, 25, 26, 27, 28, 29]",300,180,-1,8,157,10,0.0
basic,10,14,0,0,0,18,"[0, 18]",2,17,"[1, 2, 3, 4, 7, 8, 9, 13, 15, 17, 19, 20, 22, 23, 25, 26, 28]",179.8958785,7010,6830,18,136,9,1.0
basic,10,14,0,0,0,8,"[0, 18, 8]",3,13,"[1, 2, 4, 7, 13, 15, 17, 19, 20, 23, 25, 26, 28]",166.294408,7702,692,18,99,9,1.0203858410107731
basic,10,14,0,0,0,1,"[0, 18, 8, 1]",4,10,"[2, 4, 7, 15, 17, 19, 23, 25, 26, 28]",142.6935606,9426,1724,11,42,9,1.0173392374431458
basic,10,14,0,0,0,19,"[0, 18, 8, 1, 19]",5,9,"[2, 4, 7, 15, 17, 23, 25, 26, 28]",127.4620143,11010,1584,11,22,9,1.1668364376922102
basic,10,14,0,0,0,25,"[0, 18, 8, 1, 19, 25]",6,5,"[2, 4, 7, 23, 26]",91.61511768,12966,1956,5,7,9,1.273103293863789
basic,10,14,0,0,0,23,"[0, 18, 8, 1, 19, 25, 23]",7,3,"[4, 7, 26]",62.20423534,16101,3135,2,2,9,1.2650679654635444
basic,10,14,0,0,0,26,"[0, 18, 8, 1, 19, 25, 23, 26]",8,2,"[4, 7]",51.38758152,17142,1041,2,0,9,1.2530957004441798
basic,10,14,0,0,1,7,"[0, 18, 8, 1, 19, 25, 23, 26, 7]",9,0,[],6.287692383,18599,1457,1,0,9,1.6817917810897667
basic,10,14,0,1,1,7,"[0, 18, 8, 1, 19, 25, 23, 26, 7]",9,0,[],6.287692383,22745,4146,1,0,9,1.6817917810897667
basic,11,28,0,0,0,0,[0],1,27,"[1, 2, 3, 4, 5, 6, 7, 8, 9, 10, 11, 12, 13, 14, 15, 16, 17, 18, 19, 20, 22, 23, 25, 26, 27, 28, 29]",300,279,-1,2,96,9,0.0
basic,11,28,0,0,0,3,"[0, 3]",2,26,"[1, 2, 4, 5, 6, 7, 8, 9, 10, 11, 12, 13, 14, 15, 16, 17, 18, 19, 20, 22, 23, 25, 26, 27, 28, 29]",251.0817008,9690,9411,1,64,9,1.0
basic,11,28,0,0,0,19,"[0, 3, 19]",3,16,"[2, 4, 5, 7, 8, 9, 11, 12, 13, 14, 17, 18, 25, 26, 27, 28]",117.395501,11466,1776,1,25,8,1.0001110274483707
basic,11,28,0,0,0,7,"[0, 3, 19, 7]",4,8,"[2, 11, 12, 13, 14, 17, 18, 26]",89.66465178,13834,2368,1,8,8,1.073754623614866
basic,11,28,0,0,0,12,"[0, 3, 19, 7, 12]",5,5,"[2, 13, 14, 17, 18]",76.51170534,14860,1026,1,3,8,1.08477960812797
basic,11,28,0,0,0,13,"[0, 3, 19, 7, 12, 13]",6,2,"[14, 18]",59.30705481,15956,1096,1,1,8,1.2632233377567077
basic,11,28,0,0,0,18,"[0, 3, 19, 7, 12, 13, 18]",7,1,[14],34.89394358,19258,3302,1,0,8,1.5935296278628661
basic,11,28,0,0,1,14,"[0, 3, 19, 7, 12, 13, 18, 14]",8,0,[],9.39884601,20408,1150,1,0,8,1.910485787708702
basic,11,28,0,1,1,14,"[0, 3, 19, 7, 12, 13, 18, 14]",8,0,[],9.39884601,22961,2553,1,0,8,1.910485787708702
basic,12,18,0,0,0,0,[0],1,28,"[1, 2, 3, 4, 5, 6, 7, 8, 9, 10, 11, 12, 13, 14, 16, 17, 18, 19, 20, 21, 22, 23, 24, 25, 26, 27, 28, 29]",300,278,-1,3,136,10,0.0
basic,12,18,0,0,0,28,"[0, 28]",2,16,"[1, 3, 5, 7, 8, 9, 12, 13, 14, 16, 20, 23, 24, 25, 26, 27]",236.4311397,3566,3288,2,19,10,1.0
basic,12,18,0,0,0,7,"[0, 28, 7]",3,15,"[1, 3, 5, 8, 9, 12, 13, 14, 16, 20, 23, 24, 25, 26, 27]",214.4084242,5493,1927,2,17,10,1.4345180696367563
basic,12,18,0,0,0,25,"[0, 28, 7, 25]",4,13,"[1, 3, 5, 8, 9, 12, 13, 14, 16, 20, 23, 26, 27]",186.6055466,6625,1132,2,15,10,1.8896451241781882
basic,12,18,0,0,0,8,"[0, 28, 7, 25, 8]",5,10,"[3, 5, 9, 12, 13, 14, 16, 23, 26, 27]",149.551532,8171,1546,2,10,10,1.590467437592877
basic,12,18,0,0,0,13,"[0, 28, 7, 25, 8, 13]",6,9,"[3, 5, 9, 12, 14, 16, 23, 26, 27]",128.4565089,14401,6230,2,5,10,1.8248274983549797
basic,12,18,0,0,0,14,"[0, 28, 7, 25, 8, 13, 14]",7,7,"[3, 5, 9, 12, 23, 26, 27]",109.4828429,15266,865,2,3,10,1.6993534956692746
basic,12,18,0,0,0,5,"[0, 28, 7, 25, 8, 13, 14, 5]",8,1,[12],27.4462657,18351,3085,1,0,9,1.5249327462045208
basic,12,18,0,0,1,12,"[0, 28, 7, 25, 8, 13, 14, 5, 12]",9,0,[],16.04451145,19639,1288,1,0,9,1.5304293755104785
basic,12,18,0,1,1,12,"[0, 28, 7, 25, 8, 13, 14, 5, 12]",9,0,[],16.04451145,23179,3540,1,0,9,1.5304293755104785
basic,13,34,0,0,0,0,[0],1,25,"[1, 3, 4, 5, 6, 7, 8, 9, 10, 11, 12, 13, 15, 18, 19, 20, 21, 22, 23, 24, 25, 26, 27, 28, 29]",300,313,-1,12,367,10,0.0
basic,13,34,0,0,0,13,"[0, 13]",2,24,"[1, 3, 4, 5, 6, 7, 8, 9, 10, 11, 12, 15, 18, 19, 20, 21, 22, 23, 24, 25, 26, 27, 28, 29]",279.9750156,5859,5546,12,331,10,1.0
basic,13,34,0,0,0,1,"[0, 13, 1]",3,16,"[3, 5, 7, 8, 9, 10, 11, 12, 19, 21, 22, 23, 24, 25, 27, 29]",211.8574701,7355,1496,3,92,10,1.0010381285747127
basic,13,34,0,0,0,25,"[0, 13, 1, 25]",4,13,"[3, 5, 7, 8, 9, 10, 11, 12, 22, 23, 24, 27, 29]",191.8574701,8168,813,1,28,10,1.0624186564261213
basic,13,34,0,0,0,8,"[0, 13, 1, 25, 8]",5,11,"[5, 7, 9, 10, 11, 12, 22, 23, 24, 27, 29]",174.7694627,10134,1966,1,16,10,1.4733004388235296
basic,13,34,0,0,0,24,"[0, 13, 1, 25, 8, 24]",6,10,"[5, 7, 9, 10, 11, 12, 22, 23, 27, 29]",152.633519,11884,1750,1,14,10,1.5169865683750192
basic,13,34,0,0,0,12,"[0, 13, 1, 25, 8, 24, 12]",7,7,"[7, 9, 10, 11, 22, 23, 27]",101.5943184,13241,1357,1,6,10,1.6121488148059382
basic,13,34,0,0,0,7,"[0, 13, 1, 25, 8, 24, 12, 7]",8,4,"[11, 22, 23, 27]",86.56102203,14064,823,1,3,10,1.8812682115159747
basic,13,34,0,0,0,23,"[0, 13, 1, 25, 8, 24, 12, 7, 23]",9,1,[27],58.40076635,18550,4486,1,0,10,2.5459724145880136
basic,13,34,0,0,1,27,"[0, 13, 1, 25, 8, 24, 12, 7, 23, 27]",10,0,[],4.73513489,20465,1915,1,0,10,5.001616397791141
basic,13,34,0,1,1,27,"[0, 13, 1, 25, 8, 24, 12, 7, 23, 27]",10,0,[],4.73513489,23862,3397,1,0,10,5.001616397791141
basic,14,7,0,0,0,0,[0],1,29,"[1, 2, 3, 4, 5, 6, 7, 8, 9, 10, 11, 12, 13, 14, 15, 16, 17, 18, 19, 20, 21, 22, 23, 24, 25, 26, 27, 28, 29]",300,280,-1,3,79,9,0.0
basic,14,7,0,0,0,6,"[0, 6]",2,22,"[2, 4, 5, 7, 8, 9, 10, 11, 13, 14, 15, 16, 18, 19, 20, 21, 22, 23, 24, 25, 27, 28]",231.1160396,5999,5719,1,24,9,1.0
basic,14,7,0,0,0,25,"[0, 6, 25]",3,14,"[2, 4, 5, 7, 13, 14, 15, 16, 18, 19, 20, 21, 23, 28]",163.9371739,9443,3444,1,15,9,1.1491202566384209
basic,14,7,0,0,0,4,"[0, 6, 25, 4]",4,10,"[2, 7, 13, 15, 16, 18, 19, 20, 21, 23]",139.1985401,16510,7067,1,9,9,1.145081852791697
basic,14,7,0,0,0,20,"[0, 6, 25, 4, 20]",5,6,"[2, 7, 13, 16, 18, 19]",119.5516574,17275,765,1,4,9,1.2036846139155144
basic,14,7,0,0,0,18,"[0, 6, 25, 4, 20, 18]",6,5,"[2, 7, 13, 16, 19]",106.7454089,18587,1312,1,3,9,1.3498144584217913
basic,14,7,0,0,0,7,"[0, 6, 25, 4, 20, 18, 7]",7,2,"[2, 19]",65.51435269,20566,1979,1,1,9,1.2817825700699357
basic,14,7,0,0,0,19,"[0, 6, 25, 4, 20, 18, 7, 19]",8,1,[2],36.10347035,21669,1103,1,0,9,1.3950287830764145
basic,14,7,0,0,1,2,"[0, 6, 25, 4, 20, 18, 7, 19, 2]",9,0,[],5.953843486,23117,1448,1,0,9,1.4010142439340676
basic,14,7,0,1,1,2,"[0, 6, 25, 4, 20, 18, 7, 19, 2]",9,0,[],5.953843486,26143,3026,1,0,9,1.4010142439340676
basic,15,39,0,0,0,0,[0],1,28,"[1, 2, 3, 4, 5, 6, 7, 9, 10, 11, 12, 13, 14, 15, 16, 17, 18, 19, 20, 21, 22, 23, 24, 25, 26, 27, 28, 29]",300,177,-1,1,30,10,0.0
basic,15,39,0,0,0,29,"[0, 29]",2,26,"[1, 2, 3, 4, 5, 6, 7, 9, 10, 12, 13, 14, 15, 16, 17, 18, 19, 20, 21, 22, 23, 24, 25, 26, 27, 28]",243.0614366,7768,7591,8,104,9,1.0
basic,15,39,0,0,0,12,"[0, 29, 12]",3,18,"[1, 2, 4, 5, 7, 9, 10, 13, 14, 15, 16, 18, 19, 22, 23, 24, 26, 28]",182.5221931,8856,1088,5,54,9,1.0026200331524904
basic,15,39,0,0,0,10,"[0, 29, 12, 10]",4,16,"[1, 2, 4, 5, 7, 9, 13, 14, 15, 16, 18, 19, 22, 23, 24, 26]",147.0116313,10052,1196,5,34,9,1.2874817019928908
basic,15,39,0,0,0,7,"[0, 29, 12, 10, 7]",5,10,"[1, 2, 5, 13, 16, 18, 19, 22, 24, 26]",113.5900814,11819,1767,4,12,9,1.2250826263866774
basic,15,39,0,0,0,22,"[0, 29, 12, 10, 7, 22]",6,4,"[16, 18, 19, 26]",81.76242048,14553,2734,1,5,9,1.4094224057981384
basic,15,39,0,0,0,26,"[0, 29, 12, 10, 7, 22, 26]",7,2,"[16, 19]",64.04237533,15851,1298,1,1,9,1.4608209078443772
basic,15,39,0,0,0,16,"[0, 29, 12, 10, 7, 22, 26, 16]",8,1,[19],30.80083505,17364,1513,1,0,9,1.4180756296004382
basic,15,39,0,0,1,19,"[0, 29, 12, 10, 7, 22, 26, 16, 19]",9,0,[],13.33658586,18314,950,1,0,9,1.4211123840569257
basic,15,39,0,1,1,19,"[0, 29, 12, 10, 7, 22, 26, 16, 19]",9,0,[],13.33658586,20625,2311,1,0,9,1.4211123840569257
basic,16,22,0,0,0,0,[0],1,29,"[1, 2, 3, 4, 5, 6, 7, 8, 9, 10, 11, 12, 13, 14, 15, 16, 17, 18, 19, 20, 21, 22, 23, 24, 25, 26, 27, 28, 29]",300,278,-1,31,704,9,0.0
basic,16,22,0,0,0,16,"[0, 16]",2,21,"[1, 3, 6, 7, 8, 9, 11, 13, 14, 15, 17, 18, 19, 20, 21, 22, 24, 25, 27, 28, 29]",218.605897,13533,13255,17,147,9,1.0
basic,16,22,0,0,0,28,"[0, 16, 28]",3,13,"[6, 7, 9, 13, 14, 17, 19, 20, 21, 22, 24, 25, 29]",184.1675463,15600,2067,12,61,9,1.047282311284478
basic,16,22,0,0,0,6,"[0, 16, 28, 6]",4,12,"[7, 9, 13, 14, 17, 19, 20, 21, 22, 24, 25, 29]",154.1675463,16483,883,12,43,9,1.645645870580622
basic,16,22,0,0,0,9,"[0, 16, 28, 6, 9]",5,8,"[7, 14, 17, 19, 20, 21, 24, 29]",127.5404924,18593,2110,8,17,9,1.925750226630103
basic,16,22,0,0,0,19,"[0, 16, 28, 6, 9, 19]",6,6,"[7, 14, 17, 21, 24, 29]",107.1444143,21528,2935,3,7,9,2.4220750331476455
basic,16,22,0,0,0,29,"[0, 16, 28, 6, 9, 19, 29]",7,4,"[7, 14, 17, 24]",92.11111796,22365,837,2,2,9,2.6996279574991067
basic,16,22,0,0,0,14,"[0, 16, 28, 6, 9, 19, 29, 14]",8,1,[7],33.86165444,25649,3284,1,0,9,2.0544639927929462
basic,16,22,0,0,1,7,"[0, 16, 28, 6, 9, 19, 29, 14, 7]",9,0,[],20.82324963,27449,1800,1,0,9,2.219817088951114
basic,16,22,0,1,1,7,"[0, 16, 28, 6, 9, 19, 29, 14, 7]",9,0,[],20.82324963,28877,1428,1,0,9,2.219817088951114
basic,17,32,0,0,0,0,[0],1,29,"[1, 2, 3, 4, 5, 6, 7, 8, 9, 10, 11, 12, 13, 14, 15, 16, 17, 18, 19, 20, 21, 22, 23, 24, 25, 26, 27, 28, 29]",300,279,-1,17,359,10,0.0
basic,17,32,0,0,0,15,"[0, 15]",2,24,"[2, 3, 4, 5, 6, 7, 8, 9, 10, 11, 12, 13, 14, 16, 17, 19, 20, 22, 23, 24, 25, 26, 27, 28]",214.6185032,9750,9471,11,153,9,1.0
basic,17,32,0,0,0,28,"[0, 15, 28]",3,21,"[2, 3, 5, 7, 8, 9, 10, 11, 12, 13, 14, 16, 17, 19, 20, 22, 23, 24, 25, 26, 27]",203.2167489,12040,2290,11,119,9,1.000160051986942
basic,17,32,0,0,0,12,"[0, 15, 28, 12]",4,19,"[2, 3, 5, 7, 8, 9, 10, 11, 13, 16, 17, 19, 20, 22, 23, 24, 25, 26, 27]",184.243083,13051,1011,8,71,9,1.0281484763748023
basic,17,32,0,0,0,16,"[0, 15, 28, 12, 16]",5,17,"[2, 3, 5, 7, 8, 9, 10, 11, 13, 17, 19, 20, 22, 23, 24, 26, 27]",168.5906071,14084,1033,6,38,9,1.1190771370096
basic,17,32,0,0,0,22,"[0, 15, 28, 12, 16, 22]",6,10,"[2, 3, 5, 8, 9, 10, 11, 17, 20, 27]",134.7527585,15504,1420,4,16,9,1.1702311155319893
basic,17,32,0,0,0,9,"[0, 15, 28, 12, 16, 22, 9]",7,6,"[2, 8, 10, 17, 20, 27]",112.5491552,20005,4501,2,4,9,1.2381424719932013
basic,17,32,0,0,0,2,"[0, 15, 28, 12, 16, 22, 9, 2]",8,1,[17],61.46099608,22263,2258,1,0,9,1.6446273109221003
basic,17,32,0,0,1,17,"[0, 15, 28, 12, 16, 22, 9, 2, 17]",9,0,[],21.64893761,25544,3281,1,0,9,2.46318728800517
basic,17,32,0,1,1,17,"[0, 15, 28, 12, 16, 22, 9, 2, 17]",9,0,[],21.64893761,27782,2238,1,0,9,2.46318728800517
basic,18,31,0,0,0,0,[0],1,27,"[1, 3, 4, 5, 6, 7, 8, 10, 11, 12, 13, 14, 15, 16, 17, 18, 19, 20, 21, 22, 23, 24, 25, 26, 27, 28, 29]",300,278,-1,2,87,10,0.0
basic,18,31,0,0,0,14,"[0, 14]",2,25,"[1, 3, 5, 6, 7, 8, 10, 11, 12, 13, 15, 16, 17, 18, 19, 20, 21, 22, 23, 24, 25, 26, 27, 28, 29]",263.861378,3587,3309,2,59,10,1.0
basic,18,31,0,0,0,27,"[0, 14, 27]",3,22,"[1, 3, 5, 6, 7, 8, 10, 11, 12, 13, 15, 16, 17, 18, 19, 20, 21, 22, 24, 25, 28, 29]",235.6833724,5088,1501,1,39,10,1.5881859159302467
basic,18,31,0,0,0,8,"[0, 14, 27, 8]",4,20,"[1, 3, 5, 6, 7, 10, 11, 12, 13, 16, 17, 18, 19, 20, 21, 22, 24, 25, 28, 29]",224.6380114,6120,1032,1,36,10,2.1665048452331277
basic,18,31,0,0,0,18,"[0, 14, 27, 8, 18]",5,15,"[1, 5, 6, 7, 11, 12, 13, 16, 17, 19, 20, 22, 25, 28, 29]",188.7911147,7926,1806,1,26,10,1.7273375741920205
basic,18,31,0,0,0,17,"[0, 14, 27, 8, 18, 17]",6,13,"[1, 5, 6, 7, 11, 12, 13, 16, 19, 20, 22, 25, 28]",159.584951,11466,3540,1,13,10,1.551192427769927
basic,18,31,0,0,0,11,"[0, 14, 27, 8, 18, 17, 11]",7,7,"[5, 12, 16, 19, 22, 25, 28]",118.4753414,13052,1586,1,4,10,2.9650760544203494
basic,18,31,0,0,0,5,"[0, 14, 27, 8, 18, 17, 11, 5]",8,2,"[16, 28]",74.79468207,14897,1845,1,1,10,2.56711965625205
basic,18,31,0,0,0,28,"[0, 14, 27, 8, 18, 17, 11, 5, 28]",9,1,[16],54.57093365,16031,1134,1,0,10,2.2865510762058148
basic,18,31,0,0,1,16,"[0, 14, 27, 8, 18, 17, 11, 5, 28, 16]",10,0,[],20.95546102,18486,2455,1,0,10,2.089356850786318
basic,18,31,0,1,1,16,"[0, 14, 27, 8, 18, 17, 11, 5, 28, 16]",10,0,[],20.95546102,23575,5089,1,0,10,2.089356850786318
basic,19,40,0,0,0,0,[0],1,29,"[1, 2, 3, 4, 5, 6, 7, 8, 9, 10, 11, 12, 13, 14, 15, 16, 17, 18, 19, 20, 21, 22, 23, 24, 25, 26, 27, 28, 29]",300,248,-1,8,191,9,0.0
basic,19,40,0,0,0,1,"[0, 1]",2,18,"[2, 5, 6, 7, 8, 9, 10, 11, 13, 15, 17, 18, 19, 21, 22, 23, 27, 29]",247.8463808,10002,9754,4,80,9,1.0
basic,19,40,0,0,0,6,"[0, 1, 6]",3,17,"[2, 5, 7, 8, 9, 10, 11, 13, 15, 17, 18, 19, 21, 22, 23, 27, 29]",227.7466295,10763,761,4,74,9,1.0459427008232034
basic,19,40,0,0,0,9,"[0, 1, 6, 9]",4,10,"[2, 5, 8, 11, 18, 19, 21, 22, 23, 27]",159.146338,13374,2611,17,39,8,1.142098432552584
basic,19,40,0,0,0,18,"[0, 1, 6, 9, 18]",5,9,"[2, 5, 8, 11, 19, 21, 22, 23, 27]",142.5933926,19075,5701,13,14,8,1.3288108654802917
basic,19,40,0,0,0,5,"[0, 1, 6, 9, 18, 5]",6,7,"[2, 8, 19, 21, 22, 23, 27]",111.0180858,24617,5542,5,5,8,1.5366414787972102
basic,19,40,0,0,0,23,"[0, 1, 6, 9, 18, 5, 23]",7,3,"[2, 19, 21]",82.71614241,25666,1049,3,0,8,2.2908821040631264
basic,19,40,0,0,1,19,"[0, 1, 6, 9, 18, 5, 23, 19]",8,0,[],50.76305179,27000,1334,1,0,8,2.4294131203959415
basic,19,40,0,1,1,19,"[0, 1, 6, 9, 18, 5, 23, 19]",8,0,[],50.76305179,29194,2194,1,0,8,2.4294131203959415
basic,20,21,0,0,0,0,[0],1,29,"[1, 2, 3, 4, 5, 6, 7, 8, 9, 10, 11, 12, 13, 14, 15, 16, 17, 18, 19, 20, 21, 22, 23, 24, 25, 26, 27, 28, 29]",300,199,-1,84,830,9,0.0
basic,20,21,0,0,0,20,"[0, 20]",2,28,"[1, 2, 3, 4, 5, 6, 7, 8, 9, 10, 11, 12, 13, 14, 15, 16, 17, 18, 19, 21, 22, 23, 24, 25, 26, 27, 28, 29]",217.6228187,9655,9456,6,67,9,1.0
basic,20,21,0,0,0,25,"[0, 20, 25]",3,13,"[4, 6, 8, 9, 14, 15, 16, 17, 18, 21, 22, 23, 29]",132.7228776,11905,2250,9,24,7,2.7965100264856786
basic,20,21,0,0,0,21,"[0, 20, 25, 21]",4,4,"[4, 14, 16, 23]",83.38729205,14954,3049,4,3,7,2.409784747726495
basic,20,21,0,0,0,14,"[0, 20, 25, 21, 14]",5,3,"[4, 16, 23]",57.7747951,16755,1801,1,2,7,2.1147177687644207
basic,20,21,0,0,0,4,"[0, 20, 25, 21, 14, 4]",6,1,[23],43.63265948,17750,995,1,0,7,2.0043384071063364
basic,20,21,0,0,1,23,"[0, 20, 25, 21, 14, 4, 23]",7,0,[],7.507875742,19707,1957,1,0,7,2.9538631953674126
basic,20,21,0,1,1,23,"[0, 20, 25, 21, 14, 4, 23]",7,0,[],7.507875742,22065,2358,1,0,7,2.9538631953674126
basic,21,36,0,0,0,0,[0],1,24,"[2, 4, 5, 6, 7, 8, 9, 10, 12, 13, 14, 15, 16, 17, 18, 19, 20, 22, 23, 25, 26, 27, 28, 29]",300,279,-1,2,200,10,0.0
basic,21,36,0,0,0,12,"[0, 12]",2,23,"[2, 4, 5, 6, 7, 8, 9, 10, 13, 14, 15, 16, 17, 18, 19, 20, 22, 23, 25, 26, 27, 28, 29]",277.7963967,6302,6023,90,804,9,1.0
basic,21,36,0,0,0,9,"[0, 12, 9]",3,14,"[2, 4, 8, 10, 13, 16, 17, 18, 19, 23, 25, 27, 28, 29]",215.4345494,10886,4584,32,191,9,1.224429481246385
basic,21,36,0,0,0,17,"[0, 12, 9, 17]",4,11,"[2, 4, 8, 10, 13, 16, 18, 19, 23, 25, 27]",189.1857399,13095,2209,8,54,9,1.1724571624470872
basic,21,36,0,0,0,19,"[0, 12, 9, 17, 19]",5,8,"[2, 4, 10, 13, 16, 18, 23, 25]",161.2930885,14919,1824,3,14,9,1.7995682634090462
basic,21,36,0,0,0,2,"[0, 12, 9, 17, 19, 2]",6,4,"[10, 13, 16, 25]",124.1716661,16363,1444,2,3,9,1.5569787348204112
basic,21,36,0,0,0,13,"[0, 12, 9, 17, 19, 2, 13]",7,2,"[10, 25]",85.84413034,18169,1806,1,1,9,2.183445952533094
basic,21,36,0,0,0,25,"[0, 12, 9, 17, 19, 2, 13, 25]",8,1,[10],65.25287006,19402,1233,1,0,9,2.050369225795528
basic,21,36,0,0,1,10,"[0, 12, 9, 17, 19, 2, 13, 25, 10]",9,0,[],2.181481932,20789,1387,1,0,9,1.712336084492526
basic,21,36,0,1,1,10,"[0, 12, 9, 17, 19, 2, 13, 25, 10]",9,0,[],2.181481932,23297,2508,1,0,9,1.712336084492526
basic,22,30,0,0,0,0,[0],1,19,"[3, 4, 5, 7, 9, 11, 16, 17, 18, 19, 20, 21, 22, 24, 25, 26, 27, 28, 29]",300,296,-1,5,41,8,0.0
basic,22,30,0,0,0,25,"[0, 25]",2,12,"[3, 5, 7, 9, 11, 16, 18, 19, 20, 24, 27, 29]",121.1005869,10483,10187,7,37,7,1.0
basic,22,30,0,0,0,20,"[0, 25, 20]",3,9,"[3, 5, 7, 9, 11, 18, 19, 27, 29]",99.16887472,12344,1861,5,16,7,1.0037291321296267
basic,22,30,0,0,0,27,"[0, 25, 20, 27]",4,4,"[3, 5, 18, 29]",65.11010199,13318,974,4,6,7,1.1217072851053165
basic,22,30,0,0,0,3,"[0, 25, 20, 27, 3]",5,3,"[5, 18, 29]",46.00512882,14188,870,4,0,7,1.1140018780928678
basic,22,30,0,0,0,18,"[0, 25, 20, 27, 3, 18]",6,2,"[5, 29]",27.75684122,19542,5354,2,0,7,1.1146279013330882
basic,22,30,0,0,1,5,"[0, 25, 20, 27, 3, 18, 5]",7,0,[],14.71843641,20815,1273,1,0,7,1.179756297971811
basic,22,30,0,1,1,5,"[0, 25, 20, 27, 3, 18, 5]",7,0,[],14.71843641,22759,1944,1,0,7,1.179756297971811
undo,23,41,0,0,0,0,[0],1,29,"[1, 2, 3, 4, 5, 6, 7, 8, 9, 10, 11, 12, 13, 14, 15, 16, 17, 18, 19, 20, 21, 22, 23, 24, 25, 26, 27, 28, 29]",300,298,-1,1,143,10,0.0
undo,23,41,0,0,0,13,"[0, 13]",2,23,"[1, 2, 3, 5, 6, 7, 9, 10, 11, 12, 14, 15, 17, 18, 19, 20, 21, 22, 24, 25, 26, 27, 28]",258.2747079,6862,6564,1,55,10,1.0
undo,23,41,0,0,0,28,"[0, 13, 28]",3,22,"[1, 2, 3, 5, 6, 7, 9, 10, 11, 12, 14, 15, 17, 18, 19, 20, 21, 22, 24, 25, 26, 27]",223.7928286,8042,1180,1,39,10,1.895724242592676
undo,23,41,0,0,0,5,"[0, 13, 28, 5]",4,19,"[1, 2, 3, 6, 9, 10, 11, 12, 14, 15, 17, 18, 19, 20, 21, 22, 24, 25, 27]",210.1913581,9205,1163,1,34,10,2.861541269398273
undo,23,41,0,0,0,3,"[0, 13, 28, 5, 3]",5,16,"[1, 2, 6, 9, 10, 12, 14, 17, 18, 19, 20, 21, 22, 24, 25, 27]",175.3632086,13725,4520,1,22,10,3.1455488489005883
undo,23,41,0,0,0,21,"[0, 13, 28, 5, 3, 21]",6,14,"[1, 2, 6, 9, 10, 12, 14, 17, 18, 19, 20, 22, 25, 27]",143.2228912,17241,3516,13,11,9,3.207558429289677
undo,23,41,0,0,0,17,"[0, 13, 28, 5, 3, 21, 17]",7,3,"[2, 9, 10]",91.5605258,19791,2550,2,1,9,3.2883270328778007
undo,23,41,0,0,0,9,"[0, 13, 28, 5, 3, 21, 17, 9]",8,1,[2],60.54440096,21213,1422,1,0,9,2.9098226601812454
undo,23,41,0,0,1,2,"[0, 13, 28, 5, 3, 21, 17, 9, 2]",9,0,[],48.46135498,24855,3642,1,0,9,2.780153959656953
undo,23,41,1,0,0,9,"[0, 13, 28, 5, 3, 21, 17, 9]",8,1,[2],60.54440096,31881,7026,1,0,9,2.9098226601812454
undo,23,41,1,0,0,17,"[0, 13, 28, 5, 3, 21, 17]",7,3,"[2, 9, 10]",91.5605258,32231,350,2,1,9,3.2883270328778007
undo,23,41,1,0,0,21,"[0, 13, 28, 5, 3, 21]",6,14,"[1, 2, 6, 9, 10, 12, 14, 17, 18, 19, 20, 22, 25, 27]",143.2228912,32481,250,13,11,9,3.207558429289677
undo,23,41,1,0,0,3,"[0, 13, 28, 5, 3]",5,16,"[1, 2, 6, 9, 10, 12, 14, 17, 18, 19, 20, 21, 22, 24, 25, 27]",175.3632086,32714,233,1,22,10,3.1455488489005883
undo,23,41,1,0,0,5,"[0, 13, 28, 5]",4,19,"[1, 2, 3, 6, 9, 10, 11, 12, 14, 15, 17, 18, 19, 20, 21, 22, 24, 25, 27]",210.1913581,32997,283,1,34,10,2.861541269398273
undo,23,41,0,0,0,22,"[0, 13, 28, 5, 22]",5,12,"[2, 3, 6, 9, 10, 11, 12, 17, 18, 20, 21, 25]",155.4464953,36061,3064,11,12,9,2.096079268852861
undo,23,41,0,0,0,3,"[0, 13, 28, 5, 22, 3]",6,8,"[2, 9, 10, 12, 17, 18, 20, 21]",125.4798472,37239,1178,7,5,9,4.404491319005463
undo,23,41,0,0,0,21,"[0, 13, 28, 5, 22, 3, 21]",7,4,"[2, 9, 12, 17]",93.33952984,38019,780,5,1,9,4.228139797553632
undo,23,41,0,0,0,17,"[0, 13, 28, 5, 22, 3, 21, 17]",8,2,"[2, 9]",41.67716443,39470,1451,2,0,9,4.075283564568108
undo,23,41,0,0,1,9,"[0, 13, 28, 5, 22, 3, 21, 17, 9]",9,0,[],10.66103959,41123,1653,1,0,9,3.515996564079767
undo,23,41,0,1,1,9,"[0, 13, 28, 5, 22, 3, 21, 17, 9]",9,0,[],10.66103959,47662,6539,1,0,9,3.515996564079767
undo,24,29,0,0,0,0,[0],1,29,"[1, 2, 3, 4, 5, 6, 7, 8, 9, 10, 11, 12, 13, 14, 15, 16, 17, 18, 19, 20, 21, 22, 23, 24, 25, 26, 27, 28, 29]",300,291,-1,1,78,9,0.0
undo,24,29,0,0,0,25,"[0, 25]",2,18,"[1, 2, 4, 5, 6, 7, 9, 10, 12, 13, 14, 15, 16, 17, 22, 26, 27, 28]",223.3449284,7367,7076,13,101,8,1.0
undo,24,29,0,0,0,1,"[0, 25, 1]",3,15,"[4, 5, 6, 7, 9, 10, 12, 13, 14, 15, 17, 22, 26, 27, 28]",187.8343666,10626,3259,11,61,8,1.308415527582314
undo,24,29,0,0,0,14,"[0, 25, 1, 14]",4,12,"[4, 5, 6, 7, 9, 12, 13, 17, 22, 26, 27, 28]",144.8809034,11794,1168,9,32,8,1.7138400796467363
undo,24,29,0,0,0,13,"[0, 25, 1, 14, 13]",5,10,"[4, 5, 6, 7, 9, 12, 17, 22, 27, 28]",126.853147,15213,3419,9,15,8,1.5995815549042065
undo,24,29,0,0,0,5,"[0, 25, 1, 14, 13, 5]",6,7,"[4, 7, 9, 12, 22, 27, 28]",101.1432268,16200,987,7,3,8,1.6003565067425858
undo,24,29,0,0,0,12,"[0, 25, 1, 14, 13, 5, 12]",7,2,"[7, 22]",38.01637036,22797,6597,2,0,8,1.6970115503571057
undo,24,29,0,0,1,7,"[0, 25, 1, 14, 13, 5, 12, 7]",8,0,[],24.41489986,23610,813,1,0,8,1.6757926047494769
undo,24,29,0,1,1,7,"[0, 25, 1, 14, 13, 5, 12, 7]",8,0,[],24.41489986,30045,6435,1,0,8,1.6757926047494769
undo,25,44,0,0,0,0,[0],1,29,"[1, 2, 3, 4, 5, 6, 7, 8, 9, 10, 11, 12, 13, 14, 15, 16, 17, 18, 19, 20, 21, 22, 23, 24, 25, 26, 27, 28, 29]",300,279,-1,13,126,7,0.0
undo,25,44,0,0,0,11,"[0, 11]",2,18,"[4, 5, 6, 7, 8, 9, 12, 14, 16, 17, 19, 20, 22, 23, 24, 25, 26, 28]",152.7790776,9737,9458,5,34,7,1.0
undo,25,44,0,0,0,24,"[0, 11, 24]",3,13,"[4, 5, 7, 8, 9, 12, 14, 17, 20, 22, 23, 25, 28]",125.8532535,11884,2147,5,23,7,1.1588941745226709
undo,25,44,0,0,0,9,"[0, 11, 24, 9]",4,7,"[4, 7, 8, 12, 14, 20, 23]",93.09657483,12894,1010,2,8,7,1.3039383713641313
undo,25,44,0,0,0,4,"[0, 11, 24, 9, 4]",5,5,"[7, 12, 14, 20, 23]",73.39885923,13915,1021,2,3,7,1.2901330701441578
undo,25,44,0,0,0,7,"[0, 11, 24, 9, 4, 7]",6,1,[23],42.38273439,15286,1371,1,0,7,1.2468141312360979
undo,25,44,0,0,1,23,"[0, 11, 24, 9, 4, 7, 23]",7,0,[],23.27776121,22491,7205,1,0,7,1.2635191782769477
undo,25,44,0,1,1,23,"[0, 11, 24, 9, 4, 7, 23]",7,0,[],23.27776121,28011,5520,1,0,7,1.2635191782769477
undo,26,7,0,0,0,0,[0],1,29,"[1, 2, 3, 4, 5, 6, 7, 8, 9, 10, 11, 12, 13, 14, 15, 16, 17, 18, 19, 20, 21, 22, 23, 24, 25, 26, 27, 28, 29]",300,294,-1,3,79,9,0.0
undo,26,7,0,0,0,25,"[0, 25]",2,20,"[2, 3, 4, 5, 6, 7, 10, 13, 14, 15, 16, 18, 19, 20, 21, 22, 23, 24, 27, 28]",181.5939191,11349,11055,5,33,8,1.0
undo,26,7,0,0,0,4,"[0, 25, 4]",3,11,"[2, 6, 7, 13, 15, 16, 18, 19, 20, 21, 23]",156.8552853,12090,741,2,14,8,1.0193465608331511
undo,26,7,0,0,0,20,"[0, 25, 4, 20]",4,8,"[2, 6, 7, 13, 15, 16, 18, 19]",137.2084026,13240,1150,1,9,8,1.085904909082323
undo,26,7,0,0,0,18,"[0, 25, 4, 20, 18]",5,7,"[2, 6, 7, 13, 15, 16, 19]",124.4021541,14276,1036,1,5,8,1.2264883846453758
undo,26,7,0,0,0,7,"[0, 25, 4, 20, 18, 7]",6,2,"[2, 19]",83.17109789,15458,1182,1,1,8,1.185264473968278
undo,26,7,0,0,0,19,"[0, 25, 4, 20, 18, 7, 19]",7,1,[2],53.76021555,16268,810,1,0,8,1.3016904288278204
undo,26,7,0,0,1,2,"[0, 25, 4, 20, 18, 7, 19, 2]",8,0,[],23.61058868,21850,5582,1,0,8,1.3168868000947171
undo,26,7,0,1,1,2,"[0, 25, 4, 20, 18, 7, 19, 2]",8,0,[],23.61058868,25443,3593,1,0,8,1.3168868000947171
undo,27,11,0,0,0,0,[0],1,25,"[1, 2, 3, 4, 5, 6, 8, 9, 10, 11, 12, 13, 14, 15, 16, 17, 18, 19, 20, 22, 23, 25, 26, 27, 28]",300,213,-1,6,374,12,0.0
undo,27,11,0,0,0,27,"[0, 27]",2,21,"[1, 2, 4, 5, 6, 8, 9, 11, 12, 13, 14, 15, 16, 17, 18, 19, 20, 22, 23, 25, 28]",217.9939027,7625,7412,276,2000,10,1.0
undo,27,11,0,0,0,5,"[0, 27, 5]",3,14,"[2, 6, 8, 11, 12, 14, 15, 16, 17, 18, 19, 22, 25, 28]",136.7781406,9101,1476,52,322,10,1.0032508907384046
undo,27,11,0,0,0,22,"[0, 27, 5, 22]",4,7,"[2, 8, 11, 15, 17, 19, 28]",110.2074801,10468,1367,12,54,10,1.0066762733996724
undo,27,11,0,0,0,2,"[0, 27, 5, 22, 2]",5,6,"[8, 11, 15, 17, 19, 28]",100.1576045,11441,973,10,29,10,1.119639915916678
undo,27,11,0,0,0,28,"[0, 27, 5, 22, 2, 28]",6,5,"[8, 11, 15, 17, 19]",89.5274587,12855,1414,10,11,10,1.2179887336983464
undo,27,11,0,0,0,11,"[0, 27, 5, 22, 2, 28, 11]",7,3,"[8, 15, 17]",70.11097086,14945,2090,6,0,10,1.3260278795766518
undo,27,11,0,0,0,15,"[0, 27, 5, 22, 2, 28, 11, 15]",8,2,"[8, 17]",52.00020059,16336,1391,2,0,10,1.580931928275752
undo,27,11,0,0,0,17,"[0, 27, 5, 22, 2, 28, 11, 15, 17]",9,1,[8],39.35108995,19605,3269,1,0,10,1.7721789596657447
undo,27,11,0,0,1,8,"[0, 27, 5, 22, 2, 28, 11, 15, 17, 8]",10,0,[],25.03326888,21935,2330,1,0,10,1.893622250488867
undo,27,11,0,1,1,8,"[0, 27, 5, 22, 2, 28, 11, 15, 17, 8]",10,0,[],25.03326888,26545,4610,1,0,10,1.893622250488867
undo,28,39,0,0,0,0,[0],1,28,"[1, 2, 3, 4, 5, 6, 7, 9, 10, 11, 12, 13, 14, 15, 16, 17, 18, 19, 20, 21, 22, 23, 24, 25, 26, 27, 28, 29]",300,211,-1,1,30,10,0.0
undo,28,39,0,0,0,29,"[0, 29]",2,26,"[1, 2, 3, 4, 5, 6, 7, 9, 10, 12, 13, 14, 15, 16, 17, 18, 19, 20, 21, 22, 23, 24, 25, 26, 27, 28]",243.0614366,7492,7281,8,104,9,1.0
undo,28,39,0,0,0,12,"[0, 29, 12]",3,18,"[1, 2, 4, 5, 7, 9, 10, 13, 14, 15, 16, 18, 19, 22, 23, 24, 26, 28]",182.5221931,9384,1892,5,54,9,1.0026200331524904
undo,28,39,0,0,0,10,"[0, 29, 12, 10]",4,16,"[1, 2, 4, 5, 7, 9, 13, 14, 15, 16, 18, 19, 22, 23, 24, 26]",147.0116313,10977,1593,5,34,9,1.2874817019928908
undo,28,39,0,0,0,26,"[0, 29, 12, 10, 26]",5,6,"[1, 7, 16, 18, 19, 22]",102.7171622,14189,3212,11,7,8,1.2213841134405712
undo,28,39,1,0,0,10,"[0, 29, 12, 10]",4,16,"[1, 2, 4, 5, 7, 9, 13, 14, 15, 16, 18, 19, 22, 23, 24, 26]",147.0116313,16096,1907,5,34,9,1.2874817019928908
undo,28,39,0,0,0,7,"[0, 29, 12, 10, 7]",5,10,"[1, 2, 5, 13, 16, 18, 19, 22, 24, 26]",113.5900814,16891,795,4,12,9,1.2250826263866774
undo,28,39,0,0,0,26,"[0, 29, 12, 10, 7, 26]",6,5,"[1, 16, 18, 19, 22]",94.90853971,18537,1646,3,4,9,1.2697275353190085
undo,28,39,0,0,0,22,"[0, 29, 12, 10, 7, 26, 22]",7,2,"[16, 19]",77.18849457,19965,1428,2,0,9,1.438961743955176
undo,28,39,0,0,0,16,"[0, 29, 12, 10, 7, 26, 22, 16]",8,1,[19],42.18849457,24452,4487,1,0,9,1.3580882130477205
undo,28,39,0,0,1,19,"[0, 29, 12, 10, 7, 26, 22, 16, 19]",9,0,[],24.72424537,27835,3383,1,0,9,1.3646589157842668
undo,28,39,0,1,1,19,"[0, 29, 12, 10, 7, 26, 22, 16, 19]",9,0,[],24.72424537,35651,7816,1,0,9,1.3646589157842668
undo,29,36,0,0,0,0,[0],1,24,"[2, 4, 5, 6, 7, 8, 9, 10, 12, 13, 14, 15, 16, 17, 18, 19, 20, 22, 23, 25, 26, 27, 28, 29]",300,205,-1,2,200,10,0.0
undo,29,36,0,0,0,9,"[0, 9]",2,16,"[2, 4, 8, 10, 12, 13, 16, 17, 18, 19, 23, 25, 26, 27, 28, 29]",230.9348134,5252,5047,81,367,8,1.0
undo,29,36,0,0,0,17,"[0, 9, 17]",3,13,"[2, 4, 8, 10, 12, 13, 16, 18, 19, 23, 25, 27, 29]",204.6860039,7342,2090,22,90,8,1.0084584538853834
undo,29,36,0,0,0,19,"[0, 9, 17, 19]",4,12,"[2, 4, 8, 10, 12, 13, 16, 18, 23, 25, 27, 29]",176.7933525,8702,1360,8,25,8,1.5984695375617641
undo,29,36,1,0,0,17,"[0, 9, 17]",3,13,"[2, 4, 8, 10, 12, 13, 16, 18, 19, 23, 25, 27, 29]",204.6860039,12146,3444,22,90,8,1.0084584538853834
undo,29,36,1,0,0,9,"[0, 9]",2,16,"[2, 4, 8, 10, 12, 13, 16, 17, 18, 19, 23, 25, 26, 27, 28, 29]",230.9348134,12545,399,81,367,8,1.0
undo,29,36,1,0,0,0,[0],1,24,"[2, 4, 5, 6, 7, 8, 9, 10, 12, 13, 14, 15, 16, 17, 18, 19, 20, 22, 23, 25, 26, 27, 28, 29]",300,13079,534,2,200,10,0.0
undo,29,36,0,0,0,12,"[0, 12]",2,23,"[2, 4, 5, 6, 7, 8, 9, 10, 13, 14, 15, 16, 17, 18, 19, 20, 22, 23, 25, 26, 27, 28, 29]",277.7963967,15700,2621,90,804,9,1.0
undo,29,36,0,0,0,16,"[0, 12, 16]",3,10,"[2, 9, 10, 13, 17, 18, 19, 23, 25, 27]",171.6267212,17768,2068,4,38,9,1.202695220335868
undo,29,36,0,0,0,17,"[0, 12, 16, 17]",4,7,"[2, 9, 10, 13, 18, 19, 25]",143.3071167,20316,2548,4,23,9,1.6578705047868705
undo,29,36,0,0,0,9,"[0, 12, 16, 17, 9]",5,5,"[2, 13, 18, 19, 25]",117.0583072,21600,1284,3,6,9,2.6488264465469484
undo,29,36,0,0,0,19,"[0, 12, 16, 17, 9, 19]",6,4,"[2, 13, 18, 25]",101.9255612,22592,992,3,3,9,2.5697960541572393
undo,29,36,0,0,0,13,"[0, 12, 16, 17, 9, 19, 13]",7,2,"[2, 25]",58.50897451,24742,2150,1,1,9,2.4621440589806656
undo,29,36,0,0,0,25,"[0, 12, 16, 17, 9, 19, 13, 25]",8,1,[2],37.91771423,26238,1496,1,0,9,2.2891246998687684
undo,29,36,0,0,1,2,"[0, 12, 16, 17, 9, 19, 13, 25, 2]",9,0,[],12.91771423,27798,1560,1,0,9,2.5421443983069345
undo,29,36,0,1,1,2,"[0, 12, 16, 17, 9, 19, 13, 25, 2]",9,0,[],12.91771423,30259,2461,1,0,9,2.5421443983069345
undo,30,4,0,0,0,0,[0],1,26,"[3, 4, 5, 6, 7, 8, 10, 11, 12, 13, 14, 15, 16, 17, 18, 19, 20, 21, 22, 23, 24, 25, 26, 27, 28, 29]",300,179,-1,4,489,10,0.0
undo,30,4,0,0,0,28,"[0, 28]",2,21,"[3, 4, 5, 6, 10, 11, 12, 13, 14, 15, 16, 17, 19, 20, 21, 22, 23, 24, 25, 26, 27]",225.9392142,5318,5139,2,216,10,1.0
undo,30,4,0,0,0,11,"[0, 28, 11]",3,16,"[3, 4, 5, 6, 12, 13, 14, 16, 17, 20, 21, 22, 23, 24, 25, 26]",177.0618165,13171,7853,1,99,10,1.0005230107421244
undo,30,4,0,0,0,25,"[0, 28, 11, 25]",4,14,"[3, 4, 5, 6, 12, 13, 14, 16, 17, 20, 21, 22, 23, 24]",158.2735223,14266,1095,1,47,10,1.11762077950493
undo,30,4,0,0,0,14,"[0, 28, 11, 25, 14]",5,10,"[3, 4, 5, 6, 13, 16, 17, 20, 21, 22]",142.1490068,15634,1368,1,23,10,1.1558980853108136
undo,30,4,0,0,0,3,"[0, 28, 11, 25, 14, 3]",6,6,"[5, 16, 17, 20, 21, 22]",100.7123081,18223,2589,6,10,9,1.1426175029934211
undo,30,4,0,0,0,17,"[0, 28, 11, 25, 14, 3, 17]",7,5,"[5, 16, 20, 21, 22]",76.19700674,19382,1159,5,1,9,1.3653378786495558
undo,30,4,0,0,0,16,"[0, 28, 11, 25, 14, 3, 17, 16]",8,1,[21],50.12019712,20835,1453,1,0,9,1.8127709198458963
undo,30,4,0,0,1,21,"[0, 28, 11, 25, 14, 3, 17, 16, 21]",9,0,[],5.916124905,22468,1633,1,0,9,1.989734763932872
undo,30,4,0,1,1,21,"[0, 28, 11, 25, 14, 3, 17, 16, 21]",9,0,[],5.916124905,26283,3815,1,0,9,1.989734763932872
undo,31,23,0,0,0,0,[0],1,28,"[1, 2, 3, 4, 5, 6, 7, 8, 9, 10, 11, 12, 13, 14, 15, 16, 17, 18, 19, 20, 21, 22, 23, 25, 26, 27, 28, 29]",300,278,-1,76,2626,10,0.0
undo,31,23,0,0,0,13,"[0, 13]",2,19,"[1, 2, 3, 5, 6, 7, 8, 9, 10, 12, 14, 17, 18, 19, 21, 22, 23, 27, 29]",189.3202819,10059,9781,9,168,10,1.0
undo,31,23,0,0,0,12,"[0, 13, 12]",3,16,"[1, 2, 3, 6, 7, 8, 9, 10, 14, 17, 18, 21, 22, 23, 27, 29]",177.2372359,11586,1527,9,96,10,1.0014195490503164
undo,31,23,0,0,0,6,"[0, 13, 12, 6]",4,9,"[2, 7, 9, 10, 14, 18, 22, 27, 29]",147.5555918,17387,5801,2,17,10,1.0146513975411646
undo,31,23,0,0,0,2,"[0, 13, 12, 6, 2]",5,8,"[7, 9, 10, 14, 18, 22, 27, 29]",129.1165028,18784,1397,2,8,10,1.252271865214601
undo,31,23,0,0,0,9,"[0, 13, 12, 6, 2, 9]",6,7,"[7, 10, 14, 18, 22, 27, 29]",116.078098,20909,2125,1,4,10,1.4077625583396691
undo,31,23,0,0,0,14,"[0, 13, 12, 6, 2, 9, 14]",7,5,"[7, 10, 22, 27, 29]",105.6377915,21782,873,1,3,10,1.3795313352500915
undo,31,23,0,0,0,29,"[0, 13, 12, 6, 2, 9, 14, 29]",8,2,"[7, 10]",58.20362662,23520,1738,1,1,10,1.5679920543199335
undo,31,23,0,0,0,7,"[0, 13, 12, 6, 2, 9, 14, 29, 7]",9,1,[10],34.12043747,24895,1375,1,0,10,1.5808251397817217
undo,31,23,0,0,1,10,"[0, 13, 12, 6, 2, 9, 14, 29, 7, 10]",10,0,[],6.661377032,26586,1691,1,0,10,1.5347739273486019
undo,31,23,0,1,1,10,"[0, 13, 12, 6, 2, 9, 14, 29, 7, 10]",10,0,[],6.661377032,29577,2991,1,0,10,1.5347739273486019
undo,32,17,0,0,0,0,[0],1,28,"[1, 2, 3, 4, 5, 6, 7, 8, 9, 10, 11, 12, 13, 14, 15, 16, 17, 18, 19, 20, 22, 23, 24, 25, 26, 27, 28, 29]",300,279,-1,2,73,8,0.0
undo,32,17,0,0,0,9,"[0, 9]",2,25,"[1, 2, 3, 5, 6, 7, 8, 10, 11, 12, 14, 15, 16, 17, 18, 19, 20, 22, 23, 24, 25, 26, 27, 28, 29]",210.5293344,29761,29482,1,34,8,1.0
undo,32,17,0,0,0,16,"[0, 9, 16]",3,21,"[1, 2, 3, 5, 7, 8, 10, 11, 12, 14, 17, 18, 19, 20, 22, 23, 25, 26, 27, 28, 29]",197.1876704,31598,1837,1,26,8,1.173103464220352
undo,32,17,0,0,0,2,"[0, 9, 16, 2]",4,18,"[1, 3, 5, 7, 8, 10, 11, 12, 14, 17, 18, 19, 23, 25, 26, 27, 28, 29]",181.0631549,37610,6012,1,23,8,1.14825089247282
undo,32,17,0,0,0,17,"[0, 9, 16, 2, 17]",5,7,"[7, 8, 12, 14, 26, 27, 29]",142.7356191,38928,1318,4,5,7,1.4896040699768547
undo,32,17,0,0,0,8,"[0, 9, 16, 2, 17, 8]",6,3,"[7, 12, 27]",104.5256727,40184,1256,3,0,7,1.4604726966175894
undo,32,17,0,0,1,7,"[0, 9, 16, 2, 17, 8, 7]",7,0,[],33.81499459,42110,1926,1,0,7,1.4474701869793896
undo,32,17,0,1,1,7,"[0, 9, 16, 2, 17, 8, 7]",7,0,[],33.81499459,44387,2277,1,0,7,1.4474701869793896
undo,33,16,0,0,0,0,[0],1,29,"[1, 2, 3, 4, 5, 6, 7, 8, 9, 10, 11, 12, 13, 14, 15, 16, 17, 18, 19, 20, 21, 22, 23, 24, 25, 26, 27, 28, 29]",300,312,-1,13,161,9,0.0
undo,33,16,0,0,0,28,"[0, 28]",2,27,"[1, 2, 3, 4, 5, 7, 8, 9, 10, 11, 12, 13, 14, 15, 16, 17, 18, 19, 20, 21, 22, 23, 24, 25, 26, 27, 29]",284.3475242,6709,6397,11,92,9,1.0
undo,33,16,0,0,0,16,"[0, 28, 16]",3,26,"[1, 2, 3, 4, 5, 7, 8, 9, 10, 11, 12, 13, 14, 15, 17, 18, 19, 20, 21, 22, 23, 24, 25, 26, 27, 29]",198.8372909,8967,2258,20,64,8,1.2241704578099695
undo,33,16,0,0,0,8,"[0, 28, 16, 8]",4,15,"[2, 3, 4, 5, 9, 12, 13, 14, 15, 17, 19, 20, 21, 25, 29]",150.4637444,9803,836,10,28,8,1.205584765647267
undo,33,16,0,0,0,20,"[0, 28, 16, 8, 20]",5,6,"[4, 5, 9, 12, 15, 25]",92.68831706,11696,1893,7,4,8,1.1457181875751794
undo,33,16,0,0,0,25,"[0, 28, 16, 8, 20, 25]",6,4,"[5, 9, 12, 15]",80.03920642,14229,2533,4,1,8,1.1938005777784082
undo,33,16,0,0,0,9,"[0, 28, 16, 8, 20, 25, 9]",7,2,"[5, 15]",67.23295794,15749,1520,2,0,8,1.1813151005918494
undo,33,16,0,0,1,15,"[0, 28, 16, 8, 20, 25, 9, 15]",8,0,[],28.33565727,17762,2013,1,0,8,1.2805241736938786
undo,33,16,0,1,1,15,"[0, 28, 16, 8, 20, 25, 9, 15]",8,0,[],28.33565727,35425,17663,1,0,8,1.2805241736938786
undo,34,32,0,0,0,0,[0],1,29,"[1, 2, 3, 4, 5, 6, 7, 8, 9, 10, 11, 12, 13, 14, 15, 16, 17, 18, 19, 20, 21, 22, 23, 24, 25, 26, 27, 28, 29]",300,277,-1,17,359,10,0.0
undo,34,32,0,0,0,19,"[0, 19]",2,28,"[1, 2, 3, 4, 5, 6, 7, 8, 9, 10, 11, 12, 13, 14, 15, 16, 17, 18, 20, 21, 22, 23, 24, 25, 26, 27, 28, 29]",283.5075775,6866,6589,16,294,10,1.0
undo,34,32,0,0,0,13,"[0, 19, 13]",3,24,"[2, 3, 4, 5, 6, 8, 9, 10, 11, 12, 14, 15, 16, 17, 18, 20, 21, 22, 23, 24, 25, 26, 27, 28]",260.3127505,7977,1111,14,227,10,1.0172874229878615
undo,34,32,0,0,0,15,"[0, 19, 13, 15]",4,18,"[2, 3, 5, 8, 9, 10, 11, 12, 16, 17, 20, 22, 23, 24, 25, 26, 27, 28]",177.4393531,9366,1389,9,116,10,1.435447391509833
undo,34,32,0,0,0,28,"[0, 19, 13, 15, 28]",5,17,"[2, 3, 5, 8, 9, 10, 11, 12, 16, 17, 20, 22, 23, 24, 25, 26, 27]",166.0375988,10105,739,9,70,10,1.3843701324937985
undo,34,32,0,0,0,12,"[0, 19, 13, 15, 28, 12]",6,14,"[2, 3, 5, 8, 9, 10, 11, 16, 17, 20, 22, 24, 26, 27]",147.0639329,12032,1927,6,35,10,1.358372254952329
undo,34,32,0,0,0,16,"[0, 19, 13, 15, 28, 12, 16]",7,13,"[2, 3, 5, 8, 9, 10, 11, 17, 20, 22, 24, 26, 27]",131.411457,13304,1272,5,15,10,1.4356932930709845
undo,34,32,0,0,0,22,"[0, 19, 13, 15, 28, 12, 16, 22]",8,6,"[2, 8, 9, 17, 20, 27]",97.57360838,15464,2160,3,5,10,1.4335226411545752
undo,34,32,0,0,0,9,"[0, 19, 13, 15, 28, 12, 16, 22, 9]",9,3,"[2, 8, 20]",75.37000507,16600,1136,3,0,10,1.4837166378374758
undo,34,32,0,0,1,8,"[0, 19, 13, 15, 28, 12, 16, 22, 9, 8]",10,0,[],30.24794838,19024,2424,1,0,10,1.3767698817641267
undo,34,32,0,1,1,8,"[0, 19, 13, 15, 28, 12, 16, 22, 9, 8]",10,0,[],30.24794838,24392,5368,1,0,10,1.3767698817641267
undo,35,42,0,0,0,0,[0],1,29,"[1, 2, 3, 4, 5, 6, 7, 8, 9, 10, 11, 12, 13, 14, 15, 16, 17, 18, 19, 20, 21, 22, 23, 24, 25, 26, 27, 28, 29]",300,278,-1,16,302,9,0.0
undo,35,42,0,0,0,5,"[0, 5]",2,28,"[1, 2, 3, 4, 6, 7, 8, 9, 10, 11, 12, 13, 14, 15, 16, 17, 18, 19, 20, 21, 22, 23, 24, 25, 26, 27, 28, 29]",191.2939744,6900,6622,1,22,9,1.0
undo,35,42,0,0,0,4,"[0, 5, 4]",3,23,"[1, 2, 3, 6, 7, 8, 9, 10, 11, 13, 15, 17, 18, 19, 20, 21, 22, 23, 24, 25, 26, 27, 29]",171.4445412,7817,917,1,14,9,1.420957801478707
undo,35,42,0,0,0,22,"[0, 5, 4, 22]",4,20,"[1, 2, 3, 6, 7, 8, 9, 11, 15, 17, 18, 19, 20, 21, 23, 24, 25, 26, 27, 29]",160.2642013,8658,841,1,11,9,1.5771494659680896
undo,35,42,0,0,0,8,"[0, 5, 4, 22, 8]",5,14,"[1, 2, 3, 6, 7, 11, 15, 18, 19, 24, 25, 26, 27, 29]",138.1282577,9549,891,1,10,9,1.5055393955524201
undo,35,42,0,0,0,1,"[0, 5, 4, 22, 8, 1]",6,5,"[2, 7, 19, 26, 27]",89.03650682,10865,1316,1,7,9,1.3547259083637835
undo,35,42,0,0,0,7,"[0, 5, 4, 22, 8, 1, 7]",7,4,"[2, 19, 26, 27]",59.03650682,12017,1152,1,3,9,1.3909715672447451
undo,35,42,0,0,0,26,"[0, 5, 4, 22, 8, 1, 7, 26]",8,1,[27],32.46584631,15489,3472,1,0,9,1.3511825943939393
undo,35,42,0,0,1,27,"[0, 5, 4, 22, 8, 1, 7, 26, 27]",9,0,[],14.43808994,17920,2431,1,0,9,1.3391911688802078
undo,35,42,0,1,1,27,"[0, 5, 4, 22, 8, 1, 7, 26, 27]",9,0,[],14.43808994,21842,3922,1,0,9,1.3391911688802078
undo,36,19,0,0,0,0,[0],1,29,"[1, 2, 3, 4, 5, 6, 7, 8, 9, 10, 11, 12, 13, 14, 15, 16, 17, 18, 19, 20, 21, 22, 23, 24, 25, 26, 27, 28, 29]",300,203,-1,12,149,8,0.0
undo,36,19,0,0,0,29,"[0, 29]",2,28,"[1, 2, 3, 4, 5, 6, 7, 8, 9, 10, 11, 12, 13, 14, 15, 16, 17, 18, 19, 20, 21, 22, 23, 24, 25, 26, 27, 28]",265.0715016,5059,4856,12,120,8,1.0
undo,36,19,0,0,0,9,"[0, 29, 9]",3,17,"[1, 4, 5, 6, 7, 10, 11, 12, 13, 14, 19, 20, 21, 22, 24, 27, 28]",181.7108394,6175,1116,11,65,8,1.0375842971861238
undo,36,19,0,0,0,6,"[0, 29, 9, 6]",4,12,"[4, 7, 10, 11, 13, 14, 20, 21, 22, 24, 27, 28]",140.2741407,7542,1367,11,34,8,1.0389786364356892
undo,36,19,0,0,0,28,"[0, 29, 9, 6, 28]",5,5,"[4, 11, 14, 22, 27]",89.18598161,9081,1539,2,4,8,1.2864082671854424
undo,36,19,0,0,0,4,"[0, 29, 9, 6, 28, 4]",6,4,"[11, 14, 22, 27]",78.00564173,9827,746,2,2,8,1.3470045407445053
undo,36,19,0,0,0,14,"[0, 29, 9, 6, 28, 4, 14]",7,1,[11],27.99564273,11263,1436,1,0,8,1.3006971582050546
undo,36,19,0,0,1,11,"[0, 29, 9, 6, 28, 4, 14, 11]",8,0,[],17.1789889,12613,1350,1,0,8,1.289914895833058
undo,36,19,0,1,1,11,"[0, 29, 9, 6, 28, 4, 14, 11]",8,0,[],17.1789889,20783,8170,1,0,8,1.289914895833058
undo,37,15,0,0,0,0,[0],1,25,"[1, 2, 3, 4, 7, 8, 9, 10, 11, 12, 13, 14, 15, 16, 18, 20, 21, 22, 23, 24, 25, 26, 27, 28, 29]",300,213,-1,4,65,9,0.0
undo,37,15,0,0,0,7,"[0, 7]",2,23,"[1, 3, 4, 8, 9, 10, 11, 12, 13, 14, 15, 16, 18, 20, 21, 22, 23, 24, 25, 26, 27, 28, 29]",215.1884442,7197,6984,30,107,8,1.0
undo,37,15,0,0,0,16,"[0, 7, 16]",3,14,"[3, 4, 9, 10, 11, 12, 13, 14, 15, 18, 21, 22, 25, 27]",171.5306843,13288,6091,11,27,8,1.1253230463291073
undo,37,15,0,0,0,11,"[0, 7, 16, 11]",4,10,"[3, 4, 12, 13, 14, 15, 18, 21, 22, 27]",145.5114606,15700,2412,6,10,8,1.2441772230587118
undo,37,15,0,0,0,3,"[0, 7, 16, 11, 3]",5,8,"[4, 12, 13, 14, 15, 18, 21, 22]",134.1097064,17726,2026,6,4,8,1.253153736954923
undo,37,15,0,0,0,22,"[0, 7, 16, 11, 3, 22]",6,5,"[4, 13, 14, 15, 18]",84.38043933,18858,1132,2,3,8,1.249784727890499
undo,37,15,0,0,0,15,"[0, 7, 16, 11, 3, 22, 15]",7,1,[13],58.76794238,21759,2901,1,0,8,1.2283958862490272
undo,37,15,0,0,1,13,"[0, 7, 16, 11, 3, 22, 15, 13]",8,0,[],43.50360486,22902,1143,1,0,8,1.2803073001953094
undo,37,15,0,1,1,13,"[0, 7, 16, 11, 3, 22, 15, 13]",8,0,[],43.50360486,34577,11675,1,0,8,1.2803073001953094
undo,38,1,0,0,0,0,[0],1,26,"[1, 2, 4, 5, 7, 8, 9, 10, 11, 12, 13, 14, 15, 16, 17, 18, 19, 20, 21, 22, 23, 24, 25, 26, 28, 29]",300,278,-1,6,74,7,0.0
undo,38,1,0,0,0,14,"[0, 14]",2,19,"[1, 4, 5, 8, 9, 13, 15, 17, 18, 19, 20, 21, 22, 23, 24, 25, 26, 28, 29]",200.1901808,12428,12150,5,42,7,1.0
undo,38,1,0,0,0,17,"[0, 14, 17]",3,15,"[1, 4, 5, 8, 9, 13, 15, 18, 19, 20, 22, 23, 25, 28, 29]",147.8356204,14309,1881,5,27,7,1.0028844724416826
undo,38,1,0,0,0,1,"[0, 14, 17, 1]",4,12,"[4, 5, 8, 9, 15, 18, 20, 22, 23, 25, 28, 29]",123.4840291,15175,866,5,15,7,1.0264985578353567
undo,38,1,0,0,0,28,"[0, 14, 17, 1, 28]",5,5,"[9, 15, 22, 23, 29]",88.59850198,16189,1014,5,3,7,1.0339861575999345
undo,38,1,0,0,0,23,"[0, 14, 17, 1, 28, 23]",6,2,"[15, 22]",51.70676849,17253,1064,2,0,7,1.0327458250705703
undo,38,1,0,0,1,15,"[0, 14, 17, 1, 28, 23, 15]",7,0,[],20.81987807,18651,1398,1,0,7,1.1948681641401226
undo,38,1,0,1,1,15,"[0, 14, 17, 1, 28, 23, 15]",7,0,[],20.81987807,23626,4975,1,0,7,1.1948681641401226
undo,39,0,0,0,0,0,[0],1,27,"[2, 3, 4, 5, 6, 7, 8, 9, 10, 11, 12, 13, 14, 15, 16, 17, 19, 20, 21, 22, 23, 24, 25, 26, 27, 28, 29]",300,296,-1,104,1136,9,0.0
undo,39,0,0,0,0,5,"[0, 5]",2,24,"[2, 3, 4, 7, 8, 9, 11, 12, 13, 14, 15, 16, 17, 19, 20, 21, 22, 23, 24, 25, 26, 27, 28, 29]",164.5156836,8251,7955,5,112,9,1.0
undo,39,0,0,0,0,26,"[0, 5, 26]",3,19,"[3, 4, 7, 8, 9, 11, 12, 13, 14, 15, 17, 19, 20, 21, 22, 23, 24, 25, 28]",129.0755933,11736,3485,1,27,9,1.0579955168289483
undo,39,0,0,0,0,4,"[0, 5, 26, 4]",4,15,"[3, 7, 8, 9, 11, 12, 14, 15, 17, 19, 20, 21, 23, 24, 28]",117.0339987,12833,1097,1,18,9,1.168807644221424
undo,39,0,0,0,0,24,"[0, 5, 26, 4, 24]",5,12,"[3, 7, 8, 9, 11, 12, 15, 17, 19, 20, 23, 28]",105.6322444,13999,1166,1,16,9,1.1650490498282802
undo,39,0,0,0,0,15,"[0, 5, 26, 4, 24, 15]",6,8,"[3, 7, 8, 9, 11, 12, 17, 19]",82.28700938,15136,1137,1,8,9,1.151743263817517
undo,39,0,0,0,0,7,"[0, 5, 26, 4, 24, 15, 7]",7,4,"[3, 8, 17, 19]",51.22256025,16270,1134,1,3,9,1.2134907370618446
undo,39,0,0,0,0,8,"[0, 5, 26, 4, 24, 15, 7, 8]",8,1,[3],32.11758707,20856,4586,1,0,9,1.2041635451831998
undo,39,0,0,0,1,3,"[0, 5, 26, 4, 24, 15, 7, 8, 3]",9,0,[],1.703774421,21982,1126,1,0,9,1.3761575037949692
undo,39,0,0,1,1,3,"[0, 5, 26, 4, 24, 15, 7, 8, 3]",9,0,[],1.703774421,24276,2294,1,0,9,1.3761575037949692
undo,40,38,0,0,0,0,[0],1,29,"[1, 2, 3, 4, 5, 6, 7, 8, 9, 10, 11, 12, 13, 14, 15, 16, 17, 18, 19, 20, 21, 22, 23, 24, 25, 26, 27, 28, 29]",300,236,-1,33,506,9,0.0
undo,40,38,0,0,0,15,"[0, 15]",2,24,"[1, 2, 3, 4, 5, 6, 7, 10, 11, 12, 13, 14, 16, 17, 18, 19, 20, 21, 22, 24, 25, 26, 27, 28]",226.6242547,10775,10539,26,315,8,1.0
undo,40,38,0,0,0,4,"[0, 15, 4]",3,21,"[1, 3, 5, 6, 7, 10, 11, 12, 13, 14, 16, 17, 18, 19, 20, 22, 24, 25, 26, 27, 28]",200.6242547,11706,931,13,104,8,1.4173413634934033
undo,40,38,0,0,0,20,"[0, 15, 4, 20]",4,16,"[3, 5, 6, 7, 11, 13, 14, 16, 17, 18, 19, 22, 24, 26, 27, 28]",166.6831292,12744,1038,6,33,8,2.4756321407912334
undo,40,38,0,0,0,17,"[0, 15, 4, 20, 17]",5,13,"[3, 5, 6, 11, 13, 16, 18, 19, 22, 24, 26, 27, 28]",142.9134005,13486,742,5,14,8,2.4236103458312424
undo,40,38,0,0,0,19,"[0, 15, 4, 20, 17, 19]",6,7,"[3, 6, 13, 18, 22, 26, 27]",121.5358422,14285,799,4,4,8,2.216988824378052
undo,40,38,0,0,0,13,"[0, 15, 4, 20, 17, 19, 13]",7,1,[26],44.84164426,15563,1278,1,0,8,2.610460802264847
undo,40,38,0,0,1,26,"[0, 15, 4, 20, 17, 19, 13, 26]",8,0,[],13.79329487,16369,806,1,0,8,2.2733440683458648
undo,40,38,1,0,0,13,"[0, 15, 4, 20, 17, 19, 13]",7,1,[26],44.84164426,22978,6609,1,0,8,2.610460802264847
undo,40,38,1,0,0,19,"[0, 15, 4, 20, 17, 19]",6,7,"[3, 6, 13, 18, 22, 26, 27]",121.5358422,23312,334,4,4,8,2.216988824378052
undo,40,38,1,0,0,17,"[0, 15, 4, 20, 17]",5,13,"[3, 5, 6, 11, 13, 16, 18, 19, 22, 24, 26, 27, 28]",142.9134005,23778,466,5,14,8,2.4236103458312424
undo,40,38,1,0,0,20,"[0, 15, 4, 20]",4,16,"[3, 5, 6, 7, 11, 13, 14, 16, 17, 18, 19, 22, 24, 26, 27, 28]",166.6831292,24012,234,6,33,8,2.4756321407912334
undo,40,38,1,0,0,4,"[0, 15, 4]",3,21,"[1, 3, 5, 6, 7, 10, 11, 12, 13, 14, 16, 17, 18, 19, 20, 22, 24, 25, 26, 27, 28]",200.6242547,24228,216,13,104,8,1.4173413634934033
undo,40,38,1,0,0,15,"[0, 15]",2,24,"[1, 2, 3, 4, 5, 6, 7, 10, 11, 12, 13, 14, 16, 17, 18, 19, 20, 21, 22, 24, 25, 26, 27, 28]",226.6242547,24845,617,26,315,8,1.0
undo,40,38,0,0,0,11,"[0, 15, 11]",3,18,"[1, 4, 5, 7, 10, 12, 13, 14, 16, 17, 19, 20, 21, 24, 25, 26, 27, 28]",190.2237052,26274,1429,6,64,8,1.373814568377999
undo,40,38,0,0,0,28,"[0, 15, 11, 28]",4,13,"[1, 4, 5, 10, 12, 13, 14, 16, 17, 19, 20, 24, 26]",163.2051931,27444,1170,3,27,8,1.2809198797176495
undo,40,38,1,0,0,11,"[0, 15, 11]",3,18,"[1, 4, 5, 7, 10, 12, 13, 14, 16, 17, 19, 20, 21, 24, 25, 26, 27, 28]",190.2237052,29794,2350,6,64,8,1.373814568377999
undo,40,38,1,0,0,15,"[0, 15]",2,24,"[1, 2, 3, 4, 5, 6, 7, 10, 11, 12, 13, 14, 16, 17, 18, 19, 20, 21, 22, 24, 25, 26, 27, 28]",226.6242547,30078,284,26,315,8,1.0
undo,40,38,1,0,0,0,[0],1,29,"[1, 2, 3, 4, 5, 6, 7, 8, 9, 10, 11, 12, 13, 14, 15, 16, 17, 18, 19, 20, 21, 22, 23, 24, 25, 26, 27, 28, 29]",300,30694,616,33,506,9,0.0
undo,40,38,0,0,0,11,"[0, 11]",2,23,"[1, 2, 3, 4, 5, 7, 10, 12, 13, 14, 15, 16, 17, 18, 19, 20, 21, 22, 24, 25, 26, 27, 28]",220.093805,31538,844,2,40,9,1.0
undo,40,38,0,0,0,28,"[0, 11, 28]",3,16,"[1, 4, 5, 7, 10, 12, 13, 14, 15, 16, 17, 19, 20, 21, 24, 26]",193.0752928,32294,756,2,20,9,1.0012220945316377
undo,40,38,0,0,0,16,"[0, 11, 28, 16]",4,13,"[1, 4, 5, 10, 12, 13, 14, 15, 17, 19, 20, 24, 26]",164.0752928,33294,1000,2,16,9,1.2422672958602723
undo,40,38,0,0,0,15,"[0, 11, 28, 16, 15]",5,9,"[4, 5, 13, 14, 17, 19, 20, 24, 26]",122.4579887,34399,1105,2,14,9,2.4196280466601676
undo,40,38,0,0,0,4,"[0, 11, 28, 16, 15, 4]",6,6,"[13, 17, 19, 20, 24, 26]",96.45798873,35133,734,2,9,9,2.9030072771852855
undo,40,38,0,0,0,20,"[0, 11, 28, 16, 15, 4, 20]",7,3,"[13, 17, 19]",62.51686323,36341,1208,1,2,9,4.409951139385221
undo,40,38,0,0,0,17,"[0, 11, 28, 16, 15, 4, 20, 17]",8,1,[19],38.74713459,37333,992,1,0,9,4.030739410625113
undo,40,38,0,0,1,19,"[0, 11, 28, 16, 15, 4, 20, 17, 19]",9,0,[],17.36957626,39897,2564,1,0,9,3.511004666623391
undo,40,38,0,1,1,19,"[0, 11, 28, 16, 15, 4, 20, 17, 19]",9,0,[],17.36957626,41476,1579,1,0,9,3.511004666623391
undo,41,13,0,0,0,0,[0],1,29,"[1, 2, 3, 4, 5, 6, 7, 8, 9, 10, 11, 12, 13, 14, 15, 16, 17, 18, 19, 20, 21, 22, 23, 24, 25, 26, 27, 28, 29]",300,279,-1,60,2676,11,0.0
undo,41,13,0,0,0,28,"[0, 28]",2,24,"[1, 2, 3, 4, 6, 7, 8, 9, 10, 11, 12, 13, 15, 16, 17, 19, 20, 21, 22, 23, 24, 26, 27, 29]",226.3182519,6578,6299,12,378,10,1.0
undo,41,13,0,0,0,2,"[0, 28, 2]",3,20,"[1, 3, 4, 6, 7, 9, 11, 12, 13, 15, 16, 17, 19, 20, 21, 23, 24, 26, 27, 29]",188.6751915,7818,1240,9,174,10,1.0158286399660754
undo,41,13,0,0,0,29,"[0, 28, 2, 29]",4,19,"[1, 3, 4, 6, 7, 9, 11, 12, 13, 15, 16, 17, 19, 20, 21, 23, 24, 26, 27]",176.9704916,8608,790,9,132,10,1.1053279759370194
undo,41,13,0,0,0,7,"[0, 28, 2, 29, 7]",5,18,"[1, 3, 4, 6, 9, 11, 12, 13, 15, 16, 17, 19, 20, 21, 23, 24, 26, 27]",161.706154,9666,1058,6,72,10,1.313811244316471
undo,41,13,0,0,0,26,"[0, 28, 2, 29, 7, 26]",6,17,"[1, 3, 4, 6, 9, 11, 12, 13, 15, 16, 17, 19, 20, 21, 23, 24, 27]",151.2658475,10833,1167,6,39,10,1.554636901089982
undo,41,13,0,0,0,6,"[0, 28, 2, 29, 7, 26, 6]",7,13,"[1, 3, 4, 11, 13, 15, 16, 17, 19, 20, 23, 24, 27]",131.1660963,12133,1300,4,17,10,1.554967005613632
undo,41,13,0,0,0,11,"[0, 28, 2, 29, 7, 26, 6, 11]",8,6,"[1, 13, 15, 16, 17, 23]",112.0611231,13388,1255,3,4,10,1.4733168623367165
undo,41,13,0,0,0,13,"[0, 28, 2, 29, 7, 26, 6, 11, 13]",9,2,"[15, 17]",55.98082354,15138,1750,2,0,10,1.3447287374536006
undo,41,13,0,0,1,15,"[0, 28, 2, 29, 7, 26, 6, 11, 13, 15]",10,0,[],16.16876507,16934,1796,1,0,10,1.3473372715243728
undo,41,13,0,1,1,15,"[0, 28, 2, 29, 7, 26, 6, 11, 13, 15]",10,0,[],16.16876507,20859,3925,1,0,10,1.3473372715243728
undo,42,35,0,0,0,0,[0],1,29,"[1, 2, 3, 4, 5, 6, 7, 8, 9, 10, 11, 12, 13, 14, 15, 16, 17, 18, 19, 20, 21, 22, 23, 24, 25, 26, 27, 28, 29]",300,233,-1,5,236,11,0.0
undo,42,35,0,0,0,24,"[0, 24]",2,27,"[1, 2, 4, 5, 6, 7, 8, 9, 10, 11, 12, 13, 14, 15, 16, 17, 18, 19, 20, 21, 22, 23, 25, 26, 27, 28, 29]",268.9838752,43349,43116,49,512,10,1.0
undo,42,35,0,0,0,17,"[0, 24, 17]",3,26,"[1, 2, 4, 5, 6, 7, 8, 9, 10, 11, 12, 13, 14, 15, 16, 18, 19, 20, 21, 22, 23, 25, 26, 27, 28, 29]",257.2791753,44975,1626,33,238,10,1.0771477201815276
undo,42,35,0,0,0,1,"[0, 24, 17, 1]",4,25,"[2, 4, 5, 6, 7, 8, 9, 10, 11, 12, 13, 14, 15, 16, 18, 19, 20, 21, 22, 23, 25, 26, 27, 28, 29]",241.4677869,45889,914,26,151,10,1.2244804141479215
undo,42,35,0,0,0,23,"[0, 24, 17, 1, 23]",5,14,"[2, 4, 5, 6, 9, 15, 18, 19, 20, 25, 26, 27, 28, 29]",182.9442874,48059,2170,25,33,9,1.1009726708851126
undo,42,35,0,0,0,6,"[0, 24, 17, 1, 23, 6]",6,7,"[4, 5, 9, 15, 18, 25, 29]",137.2934386,49099,1040,6,5,9,1.0759472382259443
undo,42,35,0,0,0,25,"[0, 24, 17, 1, 23, 6, 25]",7,3,"[5, 9, 18]",113.2726143,50017,918,2,1,9,1.153055650640521
undo,42,35,0,0,0,18,"[0, 24, 17, 1, 23, 6, 25, 18]",8,1,[9],79.43476562,51135,1118,1,0,9,1.7147094833173437
undo,42,35,0,0,1,9,"[0, 24, 17, 1, 23, 6, 25, 18, 9]",9,0,[],59.40978123,52237,1102,1,0,9,2.1402079567065866
undo,42,35,1,0,0,18,"[0, 24, 17, 1, 23, 6, 25, 18]",8,1,[9],79.43476562,54494,2257,1,0,9,1.7147094833173437
undo,42,35,1,0,0,25,"[0, 24, 17, 1, 23, 6, 25]",7,3,"[5, 9, 18]",113.2726143,54894,400,2,1,9,1.153055650640521
undo,42,35,1,0,0,6,"[0, 24, 17, 1, 23, 6]",6,7,"[4, 5, 9, 15, 18, 25, 29]",137.2934386,55161,267,6,5,9,1.0759472382259443
undo,42,35,1,0,0,23,"[0, 24, 17, 1, 23]",5,14,"[2, 4, 5, 6, 9, 15, 18, 19, 20, 25, 26, 27, 28, 29]",182.9442874,55411,250,25,33,9,1.1009726708851126
undo,42,35,1,0,0,1,"[0, 24, 17, 1]",4,25,"[2, 4, 5, 6, 7, 8, 9, 10, 11, 12, 13, 14, 15, 16, 18, 19, 20, 21, 22, 23, 25, 26, 27, 28, 29]",241.4677869,55711,300,26,151,10,1.2244804141479215
undo,42,35,0,0,0,15,"[0, 24, 17, 1, 15]",5,23,"[2, 4, 5, 6, 7, 8, 9, 10, 11, 12, 14, 16, 18, 19, 20, 21, 22, 23, 25, 26, 27, 28, 29]",218.6204676,57280,1569,26,78,10,1.4642196672428094
undo,42,35,0,0,0,23,"[0, 24, 17, 1, 15, 23]",6,11,"[4, 5, 6, 9, 18, 19, 25, 26, 27, 28, 29]",158.1804147,58813,1533,15,12,10,1.3338903684702363
undo,42,35,0,0,0,6,"[0, 24, 17, 1, 15, 23, 6]",7,4,"[5, 9, 18, 25]",112.5295658,59829,1016,4,2,10,1.2397059724630664
undo,42,35,0,0,0,25,"[0, 24, 17, 1, 15, 23, 6, 25]",8,2,"[9, 18]",88.50874155,61475,1646,2,0,10,1.305974427386027
undo,42,35,0,0,0,18,"[0, 24, 17, 1, 15, 23, 6, 25, 18]",9,1,[9],54.67089291,62915,1440,1,0,10,1.9072277988119046
undo,42,35,0,0,1,9,"[0, 24, 17, 1, 15, 23, 6, 25, 18, 9]",10,0,[],34.64590852,64314,1399,1,0,10,2.3604988633102257
undo,42,35,0,1,1,9,"[0, 24, 17, 1, 15, 23, 6, 25, 18, 9]",10,0,[],34.64590852,67292,2978,1,0,10,2.3604988633102257
undo,43,40,0,0,0,0,[0],1,29,"[1, 2, 3, 4, 5, 6, 7, 8, 9, 10, 11, 12, 13, 14, 15, 16, 17, 18, 19, 20, 21, 22, 23, 24, 25, 26, 27, 28, 29]",300,210,-1,8,191,9,0.0
undo,43,40,0,0,0,1,"[0, 1]",2,18,"[2, 5, 6, 7, 8, 9, 10, 11, 13, 15, 17, 18, 19, 21, 22, 23, 27, 29]",247.8463808,9364,9154,4,80,9,1.0
undo,43,40,0,0,0,6,"[0, 1, 6]",3,17,"[2, 5, 7, 8, 9, 10, 11, 13, 15, 17, 18, 19, 21, 22, 23, 27, 29]",227.7466295,10204,840,4,74,9,1.0459427008232034
undo,43,40,0,0,0,21,"[0, 1, 6, 21]",4,8,"[2, 5, 9, 17, 18, 19, 22, 23]",175.7754837,11754,1550,4,25,9,1.0308822257404064
undo,43,40,0,0,0,9,"[0, 1, 6, 21, 9]",5,6,"[2, 5, 18, 19, 22, 23]",130.0699041,12730,976,4,12,9,1.377861912961129
undo,43,40,0,0,0,18,"[0, 1, 6, 21, 9, 18]",6,5,"[2, 5, 19, 22, 23]",113.5169588,14923,2193,4,4,9,1.5742712168661408
undo,43,40,0,0,0,5,"[0, 1, 6, 21, 9, 18, 5]",7,3,"[19, 22, 23]",81.94165198,16579,1656,2,1,9,1.7730665063055515
undo,43,40,0,0,0,23,"[0, 1, 6, 21, 9, 18, 5, 23]",8,1,[19],53.63970859,17541,962,1,0,9,2.597442759912231
undo,43,40,0,0,1,19,"[0, 1, 6, 21, 9, 18, 5, 23, 19]",9,0,[],21.68661797,19289,1748,1,0,9,2.7128328554069565
undo,43,40,0,1,1,19,"[0, 1, 6, 21, 9, 18, 5, 23, 19]",9,0,[],21.68661797,22429,3140,1,0,9,2.7128328554069565
undo,44,8,0,0,0,0,[0],1,29,"[1, 2, 3, 4, 5, 6, 7, 8, 9, 10, 11, 12, 13, 14, 15, 16, 17, 18, 19, 20, 21, 22, 23, 24, 25, 26, 27, 28, 29]",300,296,-1,10,149,9,0.0
undo,44,8,0,0,0,5,"[0, 5]",2,28,"[1, 2, 3, 4, 6, 7, 8, 9, 10, 11, 12, 13, 14, 15, 16, 17, 18, 19, 20, 21, 22, 23, 24, 25, 26, 27, 28, 29]",254.5137383,6234,5938,10,100,9,1.0
undo,44,8,0,0,0,14,"[0, 5, 14]",3,20,"[1, 2, 3, 4, 6, 7, 11, 15, 16, 17, 18, 19, 20, 21, 22, 23, 24, 25, 28, 29]",214.5512559,9949,3715,4,36,9,1.0001019035932595
undo,44,8,0,0,0,17,"[0, 5, 14, 17]",4,15,"[1, 4, 6, 7, 11, 15, 16, 18, 19, 20, 22, 23, 24, 25, 28]",177.5377449,11440,1491,4,16,9,1.121197267659591
undo,44,8,0,0,0,11,"[0, 5, 14, 17, 11]",5,11,"[1, 4, 15, 16, 18, 19, 22, 23, 24, 25, 28]",152.3583883,12601,1161,4,8,9,1.1277254166016362
undo,44,8,0,0,0,24,"[0, 5, 14, 17, 11, 24]",6,3,"[15, 16, 28]",115.1428001,13759,1158,2,2,9,1.1227411011978805
undo,44,8,0,0,0,15,"[0, 5, 14, 17, 11, 24, 15]",7,2,"[16, 28]",98.37974552,14671,912,2,0,9,1.1956385406066814
undo,44,8,0,0,0,16,"[0, 5, 14, 17, 11, 24, 15, 16]",8,1,[28],47.30137436,15719,1048,1,0,9,1.36482239111247
undo,44,8,0,0,1,28,"[0, 5, 14, 17, 11, 24, 15, 16, 28]",9,0,[],24.94069458,17941,2222,1,0,9,1.632953105226947
undo,44,8,0,1,1,28,"[0, 5, 14, 17, 11, 24, 15, 16, 28]",9,0,[],24.94069458,29278,11337,1,0,9,1.632953105226947
undo,45,31,0,0,0,0,[0],1,27,"[1, 3, 4, 5, 6, 7, 8, 10, 11, 12, 13, 14, 15, 16, 17, 18, 19, 20, 21, 22, 23, 24, 25, 26, 27, 28, 29]",300,295,-1,2,87,10,0.0
undo,45,31,0,0,0,14,"[0, 14]",2,25,"[1, 3, 5, 6, 7, 8, 10, 11, 12, 13, 15, 16, 17, 18, 19, 20, 21, 22, 23, 24, 25, 26, 27, 28, 29]",263.861378,8486,8191,2,59,10,1.0
undo,45,31,0,0,0,27,"[0, 14, 27]",3,22,"[1, 3, 5, 6, 7, 8, 10, 11, 12, 13, 15, 16, 17, 18, 19, 20, 21, 22, 24, 25, 28, 29]",235.6833724,13702,5216,1,39,10,1.5881859159302467
undo,45,31,0,0,0,8,"[0, 14, 27, 8]",4,20,"[1, 3, 5, 6, 7, 10, 11, 12, 13, 16, 17, 18, 19, 20, 21, 22, 24, 25, 28, 29]",224.6380114,15598,1896,1,36,10,2.1665048452331277
undo,45,31,0,0,0,18,"[0, 14, 27, 8, 18]",5,15,"[1, 5, 6, 7, 11, 12, 13, 16, 17, 19, 20, 22, 25, 28, 29]",188.7911147,22712,7114,1,26,10,1.7273375741920205
undo,45,31,0,0,0,11,"[0, 14, 27, 8, 18, 11]",6,11,"[1, 5, 7, 12, 16, 17, 19, 20, 22, 25, 28]",153.9055876,25746,3034,13,17,9,2.386348208737804
undo,45,31,0,0,0,5,"[0, 14, 27, 8, 18, 11, 5]",7,5,"[16, 17, 20, 25, 28]",110.2249283,27552,1806,3,3,9,2.163249612867222
undo,45,31,0,0,0,28,"[0, 14, 27, 8, 18, 11, 5, 28]",8,2,"[16, 17]",90.00117988,31507,3955,2,0,9,1.9564635733184719
undo,45,31,0,0,1,16,"[0, 14, 27, 8, 18, 11, 5, 28, 16]",9,0,[],56.38570725,32826,1319,1,0,9,1.824071502589619
undo,45,31,1,0,0,28,"[0, 14, 27, 8, 18, 11, 5, 28]",8,2,"[16, 17]",90.00117988,36101,3275,2,0,9,1.9564635733184719
undo,45,31,1,0,0,5,"[0, 14, 27, 8, 18, 11, 5]",7,5,"[16, 17, 20, 25, 28]",110.2249283,36485,384,3,3,9,2.163249612867222
undo,45,31,1,0,0,11,"[0, 14, 27, 8, 18, 11]",6,11,"[1, 5, 7, 12, 16, 17, 19, 20, 22, 25, 28]",153.9055876,36785,300,13,17,9,2.386348208737804
undo,45,31,1,0,0,18,"[0, 14, 27, 8, 18]",5,15,"[1, 5, 6, 7, 11, 12, 13, 16, 17, 19, 20, 22, 25, 28, 29]",188.7911147,37051,266,1,26,10,1.7273375741920205
undo,45,31,0,0,0,17,"[0, 14, 27, 8, 18, 17]",6,13,"[1, 5, 6, 7, 11, 12, 13, 16, 19, 20, 22, 25, 28]",159.584951,53161,16110,1,13,10,1.551192427769927
undo,45,31,0,0,0,25,"[0, 14, 27, 8, 18, 17, 25]",7,7,"[1, 5, 11, 12, 20, 22, 28]",99.14489804,54296,1135,4,5,9,1.3923783527528582
undo,45,31,0,0,0,12,"[0, 14, 27, 8, 18, 17, 25, 12]",8,3,"[1, 20, 22]",68.55078096,57214,2918,3,0,9,1.3338517222537312
undo,45,31,0,0,1,22,"[0, 14, 27, 8, 18, 17, 25, 12, 22]",9,0,[],18.06315871,58771,1557,1,0,9,1.8717753474146654
undo,45,31,0,1,1,22,"[0, 14, 27, 8, 18, 17, 25, 12, 22]",9,0,[],18.06315871,60548,1777,1,0,9,1.8717753474146654
undo,46,10,0,0,0,0,[0],1,29,"[1, 2, 3, 4, 5, 6, 7, 8, 9, 10, 11, 12, 13, 14, 15, 16, 17, 18, 19, 20, 21, 22, 23, 24, 25, 26, 27, 28, 29]",300,249,-1,1,100,9,0.0
undo,46,10,0,0,0,13,"[0, 13]",2,25,"[1, 2, 3, 4, 6, 7, 8, 9, 10, 11, 12, 14, 17, 18, 19, 20, 21, 22, 23, 24, 25, 26, 27, 28, 29]",249.4628849,6040,5791,1,79,9,1.0
undo,46,10,0,0,0,11,"[0, 13, 11]",3,20,"[1, 2, 3, 6, 7, 8, 9, 10, 12, 14, 18, 19, 20, 21, 22, 24, 26, 27, 28, 29]",206.4512586,8707,2667,1,54,9,1.0313137484914219
undo,46,10,0,0,0,19,"[0, 13, 11, 19]",4,11,"[2, 6, 8, 9, 10, 14, 18, 20, 24, 26, 27]",170.0919407,10375,1668,1,22,9,1.0879446220132545
undo,46,10,0,0,0,2,"[0, 13, 11, 19, 2]",5,4,"[14, 20, 26, 27]",126.1829439,11424,1049,1,4,9,1.06474052351343
undo,46,10,0,0,0,14,"[0, 13, 11, 19, 2, 14]",6,3,"[20, 26, 27]",114.0174188,12445,1021,1,3,9,1.1628909195912238
undo,46,10,0,0,0,26,"[0, 13, 11, 19, 2, 14, 26]",7,2,"[20, 27]",79.34754716,14154,1709,1,1,9,1.6660727647633602
undo,46,10,0,0,0,20,"[0, 13, 11, 19, 2, 14, 26, 20]",8,1,[27],47.56704999,15777,1623,1,0,9,2.085581809637999
undo,46,10,0,0,1,27,"[0, 13, 11, 19, 2, 14, 26, 20, 27]",9,0,[],2.312215998,17304,1527,1,0,9,1.9116357409137932
undo,46,10,0,1,1,27,"[0, 13, 11, 19, 2, 14, 26, 20, 27]",9,0,[],2.312215998,19297,1993,1,0,9,1.9116357409137932
undo,47,27,0,0,0,0,[0],1,26,"[1, 3, 5, 6, 7, 8, 9, 10, 11, 12, 13, 14, 15, 16, 17, 18, 19, 21, 22, 23, 24, 25, 26, 27, 28, 29]",300,280,-1,13,578,11,0.0
undo,47,27,0,0,0,15,"[0, 15]",2,24,"[1, 3, 5, 6, 7, 8, 9, 10, 11, 12, 13, 14, 16, 17, 18, 19, 21, 22, 23, 24, 25, 26, 27, 29]",263.7508621,6447,6167,6,219,11,1.0
undo,47,27,0,0,0,24,"[0, 15, 24]",3,20,"[1, 5, 6, 7, 8, 9, 10, 12, 13, 14, 16, 17, 18, 19, 21, 23, 25, 26, 27, 29]",246.5462115,8777,2330,6,130,11,1.130933077698322
undo,47,27,0,0,0,17,"[0, 15, 24, 17]",4,15,"[1, 6, 8, 10, 12, 13, 14, 16, 18, 19, 23, 25, 26, 27, 29]",229.9932662,11525,2748,4,60,11,1.1285538435963374
undo,47,27,0,0,0,12,"[0, 15, 24, 17, 12]",5,14,"[1, 6, 8, 10, 13, 14, 16, 18, 19, 23, 25, 26, 27, 29]",218.8129263,13219,1694,2,32,11,1.2561880288755216
undo,47,27,0,0,0,10,"[0, 15, 24, 17, 12, 10]",6,11,"[1, 8, 13, 14, 18, 19, 23, 25, 26, 27, 29]",207.7675653,14635,1416,2,28,11,1.2228289337766665
undo,47,27,0,0,0,13,"[0, 15, 24, 17, 12, 10, 13]",7,9,"[1, 8, 14, 18, 19, 23, 26, 27, 29]",167.9178476,17210,2575,2,18,11,1.3421291994761178
undo,47,27,0,0,0,19,"[0, 15, 24, 17, 12, 10, 13, 19]",8,5,"[1, 8, 14, 23, 29]",131.6825057,18183,973,2,6,11,1.294749956153846
undo,47,27,0,0,0,8,"[0, 15, 24, 17, 12, 10, 13, 19, 8]",9,3,"[14, 23, 29]",116.816437,19842,1659,2,1,11,1.3554286578836865
undo,47,27,0,0,0,29,"[0, 15, 24, 17, 12, 10, 13, 19, 8, 29]",10,1,[14],57.61339652,21566,1724,1,0,11,1.248354519573802
undo,47,27,0,0,1,14,"[0, 15, 24, 17, 12, 10, 13, 19, 8, 29, 14]",11,0,[],13.31892734,23401,1835,1,0,11,1.562811097555156
undo,47,27,0,1,1,14,"[0, 15, 24, 17, 12, 10, 13, 19, 8, 29, 14]",11,0,[],13.31892734,26392,2991,1,0,11,1.562811097555156
undo,48,45,0,0,0,0,[0],1,24,"[1, 2, 3, 4, 5, 6, 7, 9, 10, 11, 12, 14, 15, 16, 17, 19, 20, 21, 22, 23, 24, 25, 27, 29]",300,229,-1,6,248,10,0.0
undo,48,45,0,0,0,17,"[0, 17]",2,22,"[1, 2, 3, 4, 5, 6, 7, 9, 10, 11, 12, 14, 15, 16, 19, 20, 21, 22, 23, 24, 25, 29]",235.867325,3693,3464,1,34,10,1.0
undo,48,45,0,0,0,24,"[0, 17, 24]",3,20,"[1, 2, 3, 4, 5, 6, 7, 9, 10, 11, 12, 14, 15, 16, 19, 20, 21, 22, 23, 29]",193.8078433,4769,1076,1,33,10,1.0309432256229287
undo,48,45,0,0,0,7,"[0, 17, 24, 7]",4,18,"[1, 2, 3, 4, 5, 6, 9, 10, 12, 14, 15, 16, 19, 20, 21, 22, 23, 29]",159.3985423,5840,1071,1,32,10,1.059763151913087
undo,48,45,0,0,0,2,"[0, 17, 24, 7, 2]",5,12,"[3, 4, 6, 10, 12, 14, 16, 19, 20, 22, 23, 29]",121.3853866,10236,4396,1,23,10,1.0656581932115423
undo,48,45,0,0,0,3,"[0, 17, 24, 7, 2, 3]",6,8,"[6, 10, 12, 14, 16, 20, 22, 29]",96.06740884,11683,1447,1,13,10,1.1368250049574795
undo,48,45,0,0,0,29,"[0, 17, 24, 7, 2, 3, 29]",7,5,"[6, 10, 12, 20, 22]",76.06740884,12666,983,1,5,10,1.390376182346372
undo,48,45,0,0,0,10,"[0, 17, 24, 7, 2, 3, 29, 10]",8,2,"[6, 12]",54.52674961,13800,1134,1,1,10,1.6682270697663164
undo,48,45,0,0,0,6,"[0, 17, 24, 7, 2, 3, 29, 10, 6]",9,1,[12],28.27794012,14717,917,1,0,10,1.5776211572942243
undo,48,45,0,0,1,12,"[0, 17, 24, 7, 2, 3, 29, 10, 6, 12]",10,0,[],8.15332832,16142,1425,1,0,10,1.536035114105263
undo,48,45,0,1,1,12,"[0, 17, 24, 7, 2, 3, 29, 10, 6, 12]",10,0,[],8.15332832,18495,2353,1,0,10,1.536035114105263
undo,49,37,0,0,0,0,[0],1,29,"[1, 2, 3, 4, 5, 6, 7, 8, 9, 10, 11, 12, 13, 14, 15, 16, 17, 18, 19, 20, 21, 22, 23, 24, 25, 26, 27, 28, 29]",300,289,-1,6,168,10,0.0
undo,49,37,0,0,0,18,"[0, 18]",2,19,"[1, 2, 4, 6, 7, 9, 10, 12, 14, 15, 17, 19, 20, 21, 22, 23, 26, 28, 29]",202.4090168,10418,10129,6,89,10,1.0
undo,49,37,0,0,0,22,"[0, 18, 22]",3,9,"[1, 2, 4, 7, 15, 19, 20, 21, 26]",136.9720242,11544,1126,15,58,9,1.001057447339584
undo,49,37,0,0,0,4,"[0, 18, 22, 4]",4,8,"[1, 2, 7, 15, 19, 20, 21, 26]",111.9720242,13836,2292,8,28,9,1.1568597805027683
undo,49,37,0,0,0,2,"[0, 18, 22, 4, 2]",5,7,"[1, 7, 15, 19, 20, 21, 26]",100.57027,14620,784,7,12,9,1.3192232340552885
undo,49,37,0,0,0,1,"[0, 18, 22, 4, 2, 1]",6,6,"[7, 15, 19, 20, 21, 26]",83.36561943,15817,1197,7,4,9,1.3683384389764814
undo,49,37,0,0,0,20,"[0, 18, 22, 4, 2, 1, 20]",7,4,"[15, 19, 21, 26]",49.13113389,17201,1384,3,2,9,1.6736124378078914
undo,49,37,0,0,0,21,"[0, 18, 22, 4, 2, 1, 20, 21]",8,2,"[15, 26]",34.70892879,18450,1249,2,0,9,1.7094220750755582
undo,49,37,0,0,1,15,"[0, 18, 22, 4, 2, 1, 20, 21, 15]",9,0,[],19.70892879,20572,2122,1,0,9,1.684470734989872
undo,49,37,1,0,0,21,"[0, 18, 22, 4, 2, 1, 20, 21]",8,2,"[15, 26]",34.70892879,22462,1890,2,0,9,1.7094220750755582
undo,49,37,1,0,0,20,"[0, 18, 22, 4, 2, 1, 20]",7,4,"[15, 19, 21, 26]",49.13113389,23495,1033,3,2,9,1.6736124378078914
undo,49,37,0,0,0,15,"[0, 18, 22, 4, 2, 1, 20, 15]",8,1,[21],32.13113389,24805,1310,1,0,9,1.6098167659402671
undo,49,37,0,0,1,21,"[0, 18, 22, 4, 2, 1, 20, 15, 21]",9,0,[],17.13113389,25618,813,1,0,9,1.8226858592510353
undo,49,37,0,1,1,21,"[0, 18, 22, 4, 2, 1, 20, 15, 21]",9,0,[],17.13113389,32547,6929,1,0,9,1.8226858592510353
undo,50,21,0,0,0,0,[0],1,29,"[1, 2, 3, 4, 5, 6, 7, 8, 9, 10, 11, 12, 13, 14, 15, 16, 17, 18, 19, 20, 21, 22, 23, 24, 25, 26, 27, 28, 29]",300,236,-1,84,830,9,0.0
undo,50,21,0,0,0,25,"[0, 25]",2,26,"[1, 2, 3, 4, 5, 6, 7, 8, 9, 10, 11, 12, 13, 14, 15, 16, 17, 18, 20, 21, 22, 23, 24, 26, 27, 29]",240.1836143,4727,4491,30,238,9,1.0
undo,50,21,0,0,0,23,"[0, 25, 23]",3,21,"[1, 2, 4, 6, 7, 8, 9, 10, 11, 12, 14, 15, 16, 17, 18, 20, 21, 22, 24, 27, 29]",196.8592562,7237,2510,14,80,9,1.0416131642057598
undo,50,21,0,0,0,21,"[0, 25, 23, 21]",4,14,"[1, 4, 6, 8, 9, 14, 15, 16, 17, 18, 20, 22, 24, 29]",167.2450705,8311,1074,10,25,9,1.4768792067751173
undo,50,21,0,0,0,14,"[0, 25, 23, 21, 14]",5,10,"[4, 8, 9, 15, 16, 17, 18, 22, 24, 29]",141.6325735,9087,776,8,13,9,1.3826076066332742
undo,50,21,0,0,0,4,"[0, 25, 23, 21, 14, 4]",6,7,"[8, 15, 16, 17, 18, 24, 29]",127.4904379,10125,1038,8,3,9,1.3487191473328533
undo,50,21,0,0,0,16,"[0, 25, 23, 21, 14, 4, 16]",7,3,"[8, 15, 24]",82.89223163,10916,791,4,1,9,1.3301484172843694
undo,50,21,0,0,0,8,"[0, 25, 23, 21, 14, 4, 16, 8]",8,2,"[15, 24]",64.2911564,11651,735,2,0,9,1.3009886562393016
undo,50,21,0,0,1,15,"[0, 25, 23, 21, 14, 4, 16, 8, 15]",9,0,[],39.2911564,12727,1076,1,0,9,1.5486591410600183
undo,50,21,0,1,1,15,"[0, 25, 23, 21, 14, 4, 16, 8, 15]",9,0,[],39.2911564,17626,4899,1,0,9,1.5486591410600183
undo,51,5,0,0,0,0,[0],1,29,"[1, 2, 3, 4, 5, 6, 7, 8, 9, 10, 11, 12, 13, 14, 15, 16, 17, 18, 19, 20, 21, 22, 23, 24, 25, 26, 27, 28, 29]",300,280,-1,5,139,9,0.0
undo,51,5,0,0,0,12,"[0, 12]",2,22,"[2, 4, 5, 6, 8, 9, 10, 13, 14, 15, 16, 17, 18, 19, 21, 22, 23, 24, 25, 26, 27, 28]",228.3062067,12092,11812,1,27,9,1.0
undo,51,5,0,0,0,25,"[0, 12, 25]",3,21,"[2, 4, 5, 6, 8, 9, 10, 13, 14, 15, 16, 17, 18, 19, 21, 22, 23, 24, 26, 27, 28]",200.5213187,13500,1408,1,20,9,1.584023303445617
undo,51,5,0,0,0,23,"[0, 12, 25, 23]",4,19,"[2, 4, 5, 6, 8, 9, 10, 13, 14, 15, 16, 17, 18, 19, 21, 22, 24, 26, 27]",182.0822298,14419,919,1,14,9,2.3508446989254357
undo,51,5,0,0,0,24,"[0, 12, 25, 23, 24]",5,15,"[2, 4, 5, 6, 8, 9, 13, 14, 15, 17, 18, 19, 22, 26, 27]",158.995437,15139,720,1,12,9,1.9469752046288753
undo,51,5,0,0,0,17,"[0, 12, 25, 23, 24, 17]",6,7,"[4, 5, 6, 8, 15, 18, 19]",124.0097257,16810,1671,1,8,9,1.6482276497563642
undo,51,5,0,0,0,6,"[0, 12, 25, 23, 24, 17, 6]",7,1,[4],45.11739397,22898,6088,1,0,8,1.5262431498802396
undo,51,5,0,0,1,4,"[0, 12, 25, 23, 24, 17, 6, 4]",8,0,[],33.07579939,23803,905,1,0,8,1.5232680323291379
undo,51,5,1,0,0,6,"[0, 12, 25, 23, 24, 17, 6]",7,1,[4],45.11739397,25894,2091,1,0,8,1.5262431498802396
undo,51,5,1,0,0,17,"[0, 12, 25, 23, 24, 17]",6,7,"[4, 5, 6, 8, 15, 18, 19]",124.0097257,26444,550,1,8,9,1.6482276497563642
undo,51,5,0,0,0,5,"[0, 12, 25, 23, 24, 17, 5]",7,4,"[4, 6, 15, 18]",80.96323916,29235,2791,1,3,9,1.4654649104389412
undo,51,5,1,0,0,17,"[0, 12, 25, 23, 24, 17]",6,7,"[4, 5, 6, 8, 15, 18, 19]",124.0097257,32328,3093,1,8,9,1.6482276497563642
undo,51,5,0,0,0,6,"[0, 12, 25, 23, 24, 17, 6]",7,1,[4],45.11739397,42768,10440,1,0,8,1.5262431498802396
undo,51,5,0,0,1,4,"[0, 12, 25, 23, 24, 17, 6, 4]",8,0,[],33.07579939,44239,1471,1,0,8,1.5232680323291379
undo,51,5,1,0,0,6,"[0, 12, 25, 23, 24, 17, 6]",7,1,[4],45.11739397,49595,5356,1,0,8,1.5262431498802396
undo,51,5,0,0,1,4,"[0, 12, 25, 23, 24, 17, 6, 4]",8,0,[],33.07579939,51250,1655,1,0,8,1.5232680323291379
undo,51,5,0,1,1,4,"[0, 12, 25, 23, 24, 17, 6, 4]",8,0,[],33.07579939,52311,1061,1,0,8,1.5232680323291379
undo,52,14,0,0,0,0,[0],1,29,"[1, 2, 3, 4, 5, 6, 7, 8, 9, 10, 11, 12, 13, 14, 15, 16, 17, 18, 19, 20, 21, 22, 23, 24, 25, 26, 27, 28, 29]",300,284,-1,8,157,10,0.0
undo,52,14,0,0,0,18,"[0, 18]",2,17,"[1, 2, 3, 4, 7, 8, 9, 13, 15, 17, 19, 20, 22, 23, 25, 26, 28]",179.8958785,7719,7435,18,136,9,1.0
undo,52,14,0,0,0,8,"[0, 18, 8]",3,13,"[1, 2, 4, 7, 13, 15, 17, 19, 20, 23, 25, 26, 28]",166.294408,10288,2569,18,99,9,1.0203858410107731
undo,52,14,0,0,0,1,"[0, 18, 8, 1]",4,10,"[2, 4, 7, 15, 17, 19, 23, 25, 26, 28]",142.6935606,11648,1360,11,42,9,1.0173392374431458
undo,52,14,0,0,0,19,"[0, 18, 8, 1, 19]",5,9,"[2, 4, 7, 15, 17, 23, 25, 26, 28]",127.4620143,14003,2355,11,22,9,1.1668364376922102
undo,52,14,0,0,0,26,"[0, 18, 8, 1, 19, 26]",6,4,"[4, 7, 23, 25]",74.23608081,17499,3496,2,4,9,1.1379310743287543
undo,52,14,0,0,0,23,"[0, 18, 8, 1, 19, 26, 23]",7,3,"[4, 7, 25]",63.41942699,18723,1224,2,1,9,1.25860317400474
undo,52,14,0,0,0,25,"[0, 18, 8, 1, 19, 26, 23, 25]",8,1,[7],34.00854465,20098,1375,1,0,9,1.6250439771619034
undo,52,14,0,0,1,7,"[0, 18, 8, 1, 19, 26, 23, 25, 7]",9,0,[],14.31082904,21286,1188,1,0,9,1.6358514342320594
undo,52,14,0,1,1,7,"[0, 18, 8, 1, 19, 26, 23, 25, 7]",9,0,[],14.31082904,23859,2573,1,0,9,1.6358514342320594
undo,53,25,0,0,0,0,[0],1,28,"[1, 2, 3, 4, 5, 7, 8, 9, 10, 11, 12, 13, 14, 15, 16, 17, 18, 19, 20, 21, 22, 23, 24, 25, 26, 27, 28, 29]",300,220,-1,5,94,10,0.0
undo,53,25,0,0,0,23,"[0, 23]",2,23,"[1, 2, 3, 5, 7, 8, 9, 11, 12, 13, 14, 16, 17, 19, 20, 21, 22, 24, 25, 26, 27, 28, 29]",259.7756293,3701,3481,3,33,10,1.0
undo,53,25,0,0,0,7,"[0, 23, 7]",3,16,"[1, 3, 5, 8, 9, 11, 13, 17, 19, 21, 22, 24, 26, 27, 28, 29]",181.9424744,5923,2222,1,21,9,1.0073109045884563
undo,53,25,0,0,0,24,"[0, 23, 7, 24]",4,10,"[3, 5, 8, 9, 11, 13, 19, 22, 28, 29]",157.1836376,7268,1345,1,17,9,1.0161584555781231
undo,53,25,0,0,0,9,"[0, 23, 7, 24, 9]",5,8,"[3, 8, 11, 13, 19, 22, 28, 29]",139.1558812,8392,1124,1,16,9,1.0303325523073676
undo,53,25,0,0,0,8,"[0, 23, 7, 24, 9, 8]",6,3,"[3, 13, 28]",88.9065031,13056,4664,4,1,8,1.055612641218378
undo,53,25,0,0,0,3,"[0, 23, 7, 24, 9, 8, 3]",7,2,"[13, 28]",49.70191153,14762,1706,2,0,8,1.351837400410144
undo,53,25,0,0,1,13,"[0, 23, 7, 24, 9, 8, 3, 13]",8,0,[],18.46091283,16302,1540,1,0,8,1.3968078467693603
undo,53,25,1,0,0,3,"[0, 23, 7, 24, 9, 8, 3]",7,2,"[13, 28]",49.70191153,18574,2272,2,0,8,1.351837400410144
undo,53,25,1,0,0,8,"[0, 23, 7, 24, 9, 8]",6,3,"[3, 13, 28]",88.9065031,18958,384,4,1,8,1.055612641218378
undo,53,25,0,0,0,28,"[0, 23, 7, 24, 9, 8, 28]",7,2,"[3, 13]",48.29862209,20729,1771,2,0,8,1.16316697389926
undo,53,25,0,0,1,13,"[0, 23, 7, 24, 9, 8, 28, 13]",8,0,[],14.06413655,23628,2899,1,0,8,1.4186216974503674
undo,53,25,0,1,1,13,"[0, 23, 7, 24, 9, 8, 28, 13]",8,0,[],14.06413655,25306,1678,1,0,8,1.4186216974503674
undo,54,33,0,0,0,0,[0],1,23,"[1, 2, 5, 7, 8, 11, 12, 13, 14, 15, 16, 17, 18, 19, 20, 21, 23, 24, 25, 26, 27, 28, 29]",300,278,-1,5,108,9,0.0
undo,54,33,0,0,0,21,"[0, 21]",2,17,"[2, 5, 7, 8, 11, 13, 14, 16, 17, 18, 19, 20, 24, 26, 27, 28, 29]",174.4611614,10091,9813,21,129,8,1.0
undo,54,33,0,0,0,13,"[0, 21, 13]",3,15,"[2, 5, 7, 8, 11, 14, 16, 17, 18, 19, 20, 24, 26, 28, 29]",148.0604038,11320,1229,17,72,8,1.0001005298764474
undo,54,33,0,0,0,19,"[0, 21, 13, 19]",4,11,"[7, 11, 14, 16, 17, 18, 20, 24, 26, 28, 29]",122.5653063,12216,896,10,27,8,1.0588446738393702
undo,54,33,0,0,0,24,"[0, 21, 13, 19, 24]",5,7,"[7, 14, 16, 18, 26, 28, 29]",80.51771417,13691,1475,3,5,8,1.078006777679028
undo,54,33,0,0,0,7,"[0, 21, 13, 19, 24, 7]",6,3,"[14, 26, 29]",51.31155044,15000,1309,3,1,8,1.1669985062633954
undo,54,33,0,0,0,14,"[0, 21, 13, 19, 24, 7, 14]",7,2,"[26, 29]",36.44548169,15973,973,2,0,8,1.2148465775488593
undo,54,33,0,0,1,26,"[0, 21, 13, 19, 24, 7, 14, 26]",8,0,[],23.79637105,16992,1019,1,0,8,1.2208379656544521
undo,54,33,1,0,0,14,"[0, 21, 13, 19, 24, 7, 14]",7,2,"[26, 29]",36.44548169,24508,7516,2,0,8,1.2148465775488593
undo,54,33,1,0,0,7,"[0, 21, 13, 19, 24, 7]",6,3,"[14, 26, 29]",51.31155044,24775,267,3,1,8,1.1669985062633954
undo,54,33,1,0,0,24,"[0, 21, 13, 19, 24]",5,7,"[7, 14, 16, 18, 26, 28, 29]",80.51771417,24975,200,3,5,8,1.078006777679028
undo,54,33,1,0,0,19,"[0, 21, 13, 19]",4,11,"[7, 11, 14, 16, 17, 18, 20, 24, 26, 28, 29]",122.5653063,25158,183,10,27,8,1.0588446738393702
undo,54,33,1,0,0,13,"[0, 21, 13]",3,15,"[2, 5, 7, 8, 11, 14, 16, 17, 18, 19, 20, 24, 26, 28, 29]",148.0604038,25408,250,17,72,8,1.0001005298764474
undo,54,33,1,0,0,21,"[0, 21]",2,17,"[2, 5, 7, 8, 11, 13, 14, 16, 17, 18, 19, 20, 24, 26, 27, 28, 29]",174.4611614,25958,550,21,129,8,1.0
undo,54,33,0,0,0,17,"[0, 21, 17]",3,12,"[2, 7, 11, 13, 14, 16, 18, 19, 20, 24, 26, 29]",135.8218032,26480,522,3,35,8,1.0302064673538902
undo,54,33,0,0,0,13,"[0, 21, 17, 13]",4,10,"[2, 7, 11, 14, 16, 19, 20, 24, 26, 29]",113.0182947,27170,690,3,18,8,1.2307555582916028
undo,54,33,0,0,0,19,"[0, 21, 17, 13, 19]",5,6,"[7, 14, 16, 24, 26, 29]",87.52319715,27940,770,3,6,8,1.267959080158969
undo,54,33,0,0,0,7,"[0, 21, 17, 13, 19, 7]",6,3,"[14, 24, 26]",41.90521823,29950,2010,2,1,8,1.2111387775864462
undo,54,33,0,0,0,14,"[0, 21, 17, 13, 19, 7, 14]",7,1,[26],27.03914949,30928,978,1,0,8,1.2582047812090849
undo,54,33,0,0,1,26,"[0, 21, 17, 13, 19, 7, 14, 26]",8,0,[],14.39003885,31596,668,1,0,8,1.2624145644521343
undo,54,33,1,0,0,14,"[0, 21, 17, 13, 19, 7, 14]",7,1,[26],27.03914949,33907,2311,1,0,8,1.2582047812090849
undo,54,33,1,0,0,7,"[0, 21, 17, 13, 19, 7]",6,3,"[14, 24, 26]",41.90521823,34174,267,2,1,8,1.2111387775864462
undo,54,33,1,0,0,19,"[0, 21, 17, 13, 19]",5,6,"[7, 14, 16, 24, 26, 29]",87.52319715,34457,283,3,6,8,1.267959080158969
undo,54,33,0,0,0,24,"[0, 21, 17, 13, 19, 24]",6,2,"[7, 14]",45.47560506,35472,1015,1,1,8,1.2501192148258107
undo,54,33,0,0,0,7,"[0, 21, 17, 13, 19, 24, 7]",7,1,[14],16.26944133,37246,1774,1,0,8,1.3314375425758662
undo,54,33,0,0,1,14,"[0, 21, 17, 13, 19, 24, 7, 14]",8,0,[],1.403372582,38764,1518,1,0,8,1.37637211918224
undo,54,33,1,0,0,7,"[0, 21, 17, 13, 19, 24, 7]",7,1,[14],16.26944133,43306,4542,1,0,8,1.3314375425758662
undo,54,33,1,0,0,24,"[0, 21, 17, 13, 19, 24]",6,2,"[7, 14]",45.47560506,43507,201,1,1,8,1.2501192148258107
undo,54,33,1,0,0,19,"[0, 21, 17, 13, 19]",5,6,"[7, 14, 16, 24, 26, 29]",87.52319715,43706,199,3,6,8,1.267959080158969
undo,54,33,1,0,0,13,"[0, 21, 17, 13]",4,10,"[2, 7, 11, 14, 16, 19, 20, 24, 26, 29]",113.0182947,43989,283,3,18,8,1.2307555582916028
undo,54,33,1,0,0,17,"[0, 21, 17]",3,12,"[2, 7, 11, 13, 14, 16, 18, 19, 20, 24, 26, 29]",135.8218032,44439,450,3,35,8,1.0302064673538902
undo,54,33,1,0,0,21,"[0, 21]",2,17,"[2, 5, 7, 8, 11, 13, 14, 16, 17, 18, 19, 20, 24, 26, 27, 28, 29]",174.4611614,45239,800,21,129,8,1.0
undo,54,33,0,0,0,13,"[0, 21, 13]",3,15,"[2, 5, 7, 8, 11, 14, 16, 17, 18, 19, 20, 24, 26, 28, 29]",148.0604038,45771,532,17,72,8,1.0001005298764474
undo,54,33,0,0,0,19,"[0, 21, 13, 19]",4,11,"[7, 11, 14, 16, 17, 18, 20, 24, 26, 28, 29]",122.5653063,46512,741,10,27,8,1.0588446738393702
undo,54,33,0,0,0,7,"[0, 21, 13, 19, 7]",5,7,"[14, 16, 17, 18, 24, 26, 29]",76.94732734,49320,2808,3,5,8,1.0466997412739754
undo,54,33,0,0,0,14,"[0, 21, 13, 19, 7, 14]",6,3,"[24, 26, 29]",62.0812586,49952,632,2,1,8,1.096679239566485
undo,54,33,0,0,0,26,"[0, 21, 13, 19, 7, 14, 26]",7,1,[29],49.43214796,50511,559,1,0,8,1.1075261679429118
undo,54,33,0,0,1,29,"[0, 21, 13, 19, 7, 14, 26, 29]",8,0,[],21.53949659,51739,1228,1,0,8,1.3238278222819673
undo,54,33,0,1,1,29,"[0, 21, 13, 19, 7, 14, 26, 29]",8,0,[],21.53949659,53440,1701,1,0,8,1.3238278222819673
undo,55,34,0,0,0,0,[0],1,25,"[1, 3, 4, 5, 6, 7, 8, 9, 10, 11, 12, 13, 15, 18, 19, 20, 21, 22, 23, 24, 25, 26, 27, 28, 29]",300,280,-1,12,367,10,0.0
undo,55,34,0,0,0,13,"[0, 13]",2,24,"[1, 3, 4, 5, 6, 7, 8, 9, 10, 11, 12, 15, 18, 19, 20, 21, 22, 23, 24, 25, 26, 27, 28, 29]",279.9750156,4737,4457,12,331,10,1.0
undo,55,34,0,0,0,1,"[0, 13, 1]",3,16,"[3, 5, 7, 8, 9, 10, 11, 12, 19, 21, 22, 23, 24, 25, 27, 29]",211.8574701,6042,1305,3,92,10,1.0010381285747127
undo,55,34,0,0,0,8,"[0, 13, 1, 8]",4,14,"[3, 5, 7, 9, 10, 11, 12, 19, 22, 23, 24, 25, 27, 29]",201.0871405,8060,2018,2,54,10,1.1636807
undo,55,34,0,0,0,25,"[0, 13, 1, 8, 25]",5,12,"[3, 5, 7, 9, 10, 11, 12, 22, 23, 24, 27, 29]",183.999133,8908,848,2,28,10,1.1396208815936457
undo,55,34,0,0,0,24,"[0, 13, 1, 8, 25, 24]",6,11,"[3, 5, 7, 9, 10, 11, 12, 22, 23, 27, 29]",166.5062774,9918,1010,2,23,10,1.374180768736554
undo,55,34,0,0,0,12,"[0, 13, 1, 8, 25, 24, 12]",7,7,"[7, 9, 10, 11, 22, 23, 27]",115.4670767,14306,4388,1,8,10,1.4994254760835948
undo,55,34,0,0,0,7,"[0, 13, 1, 8, 25, 24, 12, 7]",8,5,"[9, 11, 22, 23, 27]",100.4337804,15160,854,1,4,10,1.758992610425009
undo,55,34,0,0,0,23,"[0, 13, 1, 8, 25, 24, 12, 7, 23]",9,1,[27],72.27352467,15897,737,1,0,10,2.399781305190153
undo,55,34,0,0,1,27,"[0, 13, 1, 8, 25, 24, 12, 7, 23, 27]",10,0,[],18.60789321,17326,1429,1,0,10,4.766619878750327
undo,55,34,0,1,1,27,"[0, 13, 1, 8, 25, 24, 12, 7, 23, 27]",10,0,[],18.60789321,19913,2587,1,0,10,4.766619878750327
undo,56,12,0,0,0,0,[0],1,29,"[1, 2, 3, 4, 5, 6, 7, 8, 9, 10, 11, 12, 13, 14, 15, 16, 17, 18, 19, 20, 21, 22, 23, 24, 25, 26, 27, 28, 29]",300,262,-1,2,32,9,0.0
undo,56,12,0,0,0,22,"[0, 22]",2,22,"[2, 4, 5, 6, 7, 9, 10, 12, 13, 14, 15, 16, 17, 18, 19, 21, 23, 24, 25, 27, 28, 29]",211.9943184,21602,21340,6,42,8,1.0
undo,56,12,0,0,0,16,"[0, 22, 16]",3,12,"[2, 4, 5, 6, 7, 12, 14, 19, 23, 24, 25, 27]",190.9943184,22278,676,6,24,8,1.2017164145167045
undo,56,12,0,0,0,4,"[0, 22, 16, 4]",4,9,"[2, 6, 7, 12, 14, 19, 24, 25, 27]",156.7890556,24502,2224,6,14,8,1.146531713305579
undo,56,12,0,0,0,12,"[0, 22, 16, 4, 12]",5,4,"[14, 19, 24, 27]",114.5990094,26209,1707,4,3,8,1.1221389456954312
undo,56,12,0,0,0,27,"[0, 22, 16, 4, 12, 27]",6,3,"[14, 19, 24]",90.24741807,27215,1006,2,1,8,1.2262878338287035
undo,56,12,0,0,0,14,"[0, 22, 16, 4, 12, 27, 14]",7,1,[24],61.59432051,27966,751,1,0,8,1.2804562106751427
undo,56,12,0,0,1,24,"[0, 22, 16, 4, 12, 27, 14, 24]",8,0,[],44.38966997,28798,832,1,0,8,1.4322660007679802
undo,56,12,1,0,0,14,"[0, 22, 16, 4, 12, 27, 14]",7,1,[24],61.59432051,37960,9162,1,0,8,1.2804562106751427
undo,56,12,1,0,0,27,"[0, 22, 16, 4, 12, 27]",6,3,"[14, 19, 24]",90.24741807,38193,233,2,1,8,1.2262878338287035
undo,56,12,1,0,0,12,"[0, 22, 16, 4, 12]",5,4,"[14, 19, 24, 27]",114.5990094,38376,183,4,3,8,1.1221389456954312
undo,56,12,1,0,0,4,"[0, 22, 16, 4]",4,9,"[2, 6, 7, 12, 14, 19, 24, 25, 27]",156.7890556,38559,183,6,14,8,1.146531713305579
undo,56,12,1,0,0,16,"[0, 22, 16]",3,12,"[2, 4, 5, 6, 7, 12, 14, 19, 23, 24, 25, 27]",190.9943184,38743,184,6,24,8,1.2017164145167045
undo,56,12,1,0,0,22,"[0, 22]",2,22,"[2, 4, 5, 6, 7, 9, 10, 12, 13, 14, 15, 16, 17, 18, 19, 21, 23, 24, 25, 27, 28, 29]",211.9943184,38926,183,6,42,8,1.0
undo,56,12,0,0,0,19,"[0, 22, 19]",3,14,"[2, 4, 5, 6, 7, 10, 12, 13, 14, 16, 24, 25, 27, 29]",149.7287581,40543,1617,1,16,7,1.153546097912831
undo,56,12,0,0,0,2,"[0, 22, 19, 2]",4,3,"[5, 7, 13]",81.57452122,43186,2643,2,2,6,1.3936217385589578
undo,56,12,0,0,0,7,"[0, 22, 19, 2, 7]",5,2,"[5, 13]",64.11027202,45316,2130,2,0,6,1.4254261691225223
undo,56,12,0,0,1,13,"[0, 22, 19, 2, 7, 13]",6,0,[],8.666606916,47044,1728,1,0,6,1.3204287817770417
undo,56,12,1,0,0,7,"[0, 22, 19, 2, 7]",5,2,"[5, 13]",64.11027202,48527,1483,2,0,6,1.4254261691225223
undo,56,12,1,0,0,2,"[0, 22, 19, 2]",4,3,"[5, 7, 13]",81.57452122,48744,217,2,2,6,1.3936217385589578
undo,56,12,1,0,0,19,"[0, 22, 19]",3,14,"[2, 4, 5, 6, 7, 10, 12, 13, 14, 16, 24, 25, 27, 29]",149.7287581,48927,183,1,16,7,1.153546097912831
undo,56,12,1,0,0,22,"[0, 22]",2,22,"[2, 4, 5, 6, 7, 9, 10, 12, 13, 14, 15, 16, 17, 18, 19, 21, 23, 24, 25, 27, 28, 29]",211.9943184,49095,168,6,42,8,1.0
undo,56,12,1,0,0,0,[0],1,29,"[1, 2, 3, 4, 5, 6, 7, 8, 9, 10, 11, 12, 13, 14, 15, 16, 17, 18, 19, 20, 21, 22, 23, 24, 25, 26, 27, 28, 29]",300,49327,232,2,32,9,0.0
undo,56,12,0,0,0,22,"[0, 22]",2,22,"[2, 4, 5, 6, 7, 9, 10, 12, 13, 14, 15, 16, 17, 18, 19, 21, 23, 24, 25, 27, 28, 29]",211.9943184,50352,1025,6,42,8,1.0
undo,56,12,0,0,0,16,"[0, 22, 16]",3,12,"[2, 4, 5, 6, 7, 12, 14, 19, 23, 24, 25, 27]",190.9943184,58306,7954,6,24,8,1.2017164145167045
undo,56,12,0,0,0,4,"[0, 22, 16, 4]",4,9,"[2, 6, 7, 12, 14, 19, 24, 25, 27]",156.7890556,60103,1797,6,14,8,1.146531713305579
undo,56,12,0,0,0,12,"[0, 22, 16, 4, 12]",5,4,"[14, 19, 24, 27]",114.5990094,61514,1411,4,3,8,1.1221389456954312
undo,56,12,0,0,0,27,"[0, 22, 16, 4, 12, 27]",6,3,"[14, 19, 24]",90.24741807,62299,785,2,1,8,1.2262878338287035
undo,56,12,0,0,0,14,"[0, 22, 16, 4, 12, 27, 14]",7,1,[24],61.59432051,63446,1147,1,0,8,1.2804562106751427
undo,56,12,0,0,1,24,"[0, 22, 16, 4, 12, 27, 14, 24]",8,0,[],44.38966997,65314,1868,1,0,8,1.4322660007679802
undo,56,12,1,0,0,14,"[0, 22, 16, 4, 12, 27, 14]",7,1,[24],61.59432051,71291,5977,1,0,8,1.2804562106751427
undo,56,12,1,0,0,27,"[0, 22, 16, 4, 12, 27]",6,3,"[14, 19, 24]",90.24741807,71557,266,2,1,8,1.2262878338287035
undo,56,12,1,0,0,12,"[0, 22, 16, 4, 12]",5,4,"[14, 19, 24, 27]",114.5990094,71774,217,4,3,8,1.1221389456954312
undo,56,12,1,0,0,4,"[0, 22, 16, 4]",4,9,"[2, 6, 7, 12, 14, 19, 24, 25, 27]",156.7890556,71974,200,6,14,8,1.146531713305579
undo,56,12,1,0,0,16,"[0, 22, 16]",3,12,"[2, 4, 5, 6, 7, 12, 14, 19, 23, 24, 25, 27]",190.9943184,72207,233,6,24,8,1.2017164145167045
undo,56,12,1,0,0,22,"[0, 22]",2,22,"[2, 4, 5, 6, 7, 9, 10, 12, 13, 14, 15, 16, 17, 18, 19, 21, 23, 24, 25, 27, 28, 29]",211.9943184,72491,284,6,42,8,1.0
undo,56,12,1,0,0,0,[0],1,29,"[1, 2, 3, 4, 5, 6, 7, 8, 9, 10, 11, 12, 13, 14, 15, 16, 17, 18, 19, 20, 21, 22, 23, 24, 25, 26, 27, 28, 29]",300,73023,532,2,32,9,0.0
undo,56,12,0,0,0,25,"[0, 25]",2,16,"[2, 4, 5, 6, 7, 9, 12, 14, 16, 18, 19, 22, 23, 24, 27, 28]",225.7975742,74055,1032,5,34,8,1.0
undo,56,12,0,0,0,22,"[0, 25, 22]",3,11,"[2, 4, 5, 6, 7, 12, 14, 16, 19, 24, 27]",153.5964661,74861,806,1,10,8,1.6635691148622656
undo,56,12,0,0,0,16,"[0, 25, 22, 16]",4,7,"[4, 6, 12, 14, 19, 24, 27]",132.5964661,76535,1674,1,6,8,1.8455145785330662
undo,56,12,0,0,0,4,"[0, 25, 22, 16, 4]",5,5,"[12, 14, 19, 24, 27]",98.39120339,77862,1327,1,4,8,1.6140587576122385
undo,56,12,0,0,0,12,"[0, 25, 22, 16, 4, 12]",6,2,"[14, 27]",56.20115717,81631,3769,1,1,8,1.4755917731057815
undo,56,12,0,0,0,27,"[0, 25, 22, 16, 4, 12, 27]",7,1,[14],31.84956584,83502,1871,1,0,8,1.5677023473114235
undo,56,12,0,0,1,14,"[0, 25, 22, 16, 4, 12, 27, 14]",8,0,[],3.196468279,87513,4011,1,0,8,1.5941060060123788
undo,56,12,0,1,1,14,"[0, 25, 22, 16, 4, 12, 27, 14]",8,0,[],3.196468279,89088,1575,1,0,8,1.5941060060123788
undo,57,24,0,0,0,0,[0],1,29,"[1, 2, 3, 4, 5, 6, 7, 8, 9, 10, 11, 12, 13, 14, 15, 16, 17, 18, 19, 20, 21, 22, 23, 24, 25, 26, 27, 28, 29]",300,277,-1,4,76,10,0.0
undo,57,24,0,0,0,16,"[0, 16]",2,28,"[1, 2, 3, 4, 5, 6, 7, 8, 9, 10, 11, 12, 13, 14, 15, 17, 18, 19, 20, 21, 22, 23, 24, 25, 26, 27, 28, 29]",210.3562607,10215,9938,13,110,9,1.0
undo,57,24,0,0,0,22,"[0, 16, 22]",3,27,"[1, 2, 3, 4, 5, 6, 7, 8, 9, 10, 11, 12, 13, 14, 15, 17, 18, 19, 20, 21, 23, 24, 25, 26, 27, 28, 29]",192.3285043,11168,953,7,54,9,1.0217425143037777
undo,57,24,0,0,0,8,"[0, 16, 22, 8]",4,21,"[1, 2, 3, 4, 6, 9, 10, 11, 13, 14, 15, 17, 20, 21, 23, 24, 25, 26, 27, 28, 29]",178.9120964,13445,2277,4,28,9,1.0996636936037951
undo,57,24,0,0,0,28,"[0, 16, 22, 8, 28]",5,11,"[3, 4, 6, 9, 11, 13, 15, 23, 25, 26, 27]",116.8153976,16060,2615,1,7,9,1.1127466823197207
undo,57,24,0,0,0,23,"[0, 16, 22, 8, 28, 23]",6,6,"[4, 9, 11, 13, 15, 27]",97.78910006,17212,1152,1,5,9,1.1477220096751186
undo,57,24,0,0,0,11,"[0, 16, 22, 8, 28, 23, 11]",7,2,"[9, 27]",70.86327602,18400,1188,1,1,9,1.1407604543567107
undo,57,24,0,0,1,9,"[0, 16, 22, 8, 28, 23, 11, 9]",8,0,[],38.61424503,19498,1098,1,0,8,1.231390958109455
undo,57,24,1,0,0,11,"[0, 16, 22, 8, 28, 23, 11]",7,2,"[9, 27]",70.86327602,24186,4688,1,1,9,1.1407604543567107
undo,57,24,1,0,0,23,"[0, 16, 22, 8, 28, 23]",6,6,"[4, 9, 11, 13, 15, 27]",97.78910006,25835,1649,1,5,9,1.1477220096751186
undo,57,24,0,0,0,9,"[0, 16, 22, 8, 28, 23, 9]",7,2,"[11, 27]",44.45055865,26694,859,2,0,8,1.2038960251082902
undo,57,24,0,0,1,27,"[0, 16, 22, 8, 28, 23, 9, 27]",8,0,[],4.890477756,29117,2423,1,0,8,1.2920925343791336
undo,57,24,1,0,0,9,"[0, 16, 22, 8, 28, 23, 9]",7,2,"[11, 27]",44.45055865,35884,6767,2,0,8,1.2038960251082902
undo,57,24,1,0,0,23,"[0, 16, 22, 8, 28, 23]",6,6,"[4, 9, 11, 13, 15, 27]",97.78910006,36288,404,1,5,9,1.1477220096751186
undo,57,24,1,0,0,28,"[0, 16, 22, 8, 28]",5,11,"[3, 4, 6, 9, 11, 13, 15, 23, 25, 26, 27]",116.8153976,36537,249,1,7,9,1.1127466823197207
undo,57,24,1,0,0,8,"[0, 16, 22, 8]",4,21,"[1, 2, 3, 4, 6, 9, 10, 11, 13, 14, 15, 17, 20, 21, 23, 24, 25, 26, 27, 28, 29]",178.9120964,36737,200,4,28,9,1.0996636936037951
undo,57,24,1,0,0,22,"[0, 16, 22]",3,27,"[1, 2, 3, 4, 5, 6, 7, 8, 9, 10, 11, 12, 13, 14, 15, 17, 18, 19, 20, 21, 23, 24, 25, 26, 27, 28, 29]",192.3285043,36953,216,7,54,9,1.0217425143037777
undo,57,24,1,0,0,16,"[0, 16]",2,28,"[1, 2, 3, 4, 5, 6, 7, 8, 9, 10, 11, 12, 13, 14, 15, 17, 18, 19, 20, 21, 22, 23, 24, 25, 26, 27, 28, 29]",210.3562607,39469,2516,13,110,9,1.0
undo,57,24,0,0,0,8,"[0, 16, 8]",3,22,"[1, 2, 3, 4, 6, 9, 10, 11, 13, 14, 15, 17, 20, 21, 22, 23, 24, 25, 26, 27, 28, 29]",181.3562607,41257,1788,3,31,9,1.0774669368510212
undo,57,24,0,0,0,22,"[0, 16, 8, 22]",4,18,"[2, 3, 4, 6, 9, 10, 11, 13, 14, 15, 17, 23, 24, 25, 26, 27, 28, 29]",167.9398528,42882,1625,3,23,9,1.2531772310046492
undo,57,24,0,0,0,15,"[0, 16, 8, 22, 15]",5,16,"[3, 4, 6, 9, 10, 11, 13, 14, 17, 23, 24, 25, 26, 27, 28, 29]",146.7266494,43717,835,3,16,9,1.2813329946092564
undo,57,24,0,0,0,28,"[0, 16, 8, 22, 15, 28]",6,8,"[3, 4, 9, 11, 13, 23, 26, 27]",101.4497237,44942,1225,3,5,9,1.2060847818642253
undo,57,24,0,0,0,23,"[0, 16, 8, 22, 15, 28, 23]",7,3,"[9, 11, 27]",82.42342609,45873,931,3,1,9,1.2349355190066822
undo,57,24,0,0,0,11,"[0, 16, 8, 22, 15, 28, 23, 11]",8,2,"[9, 27]",55.49760206,46895,1022,2,0,9,1.2172586817191506
undo,57,24,0,0,1,27,"[0, 16, 8, 22, 15, 28, 23, 11, 27]",9,0,[],27.69472451,50696,3801,1,0,9,1.192247579330137
undo,57,24,1,0,0,11,"[0, 16, 8, 22, 15, 28, 23, 11]",8,2,"[9, 27]",55.49760206,52451,1755,2,0,9,1.2172586817191506
undo,57,24,0,0,1,9,"[0, 16, 8, 22, 15, 28, 23, 11, 9]",9,0,[],23.24857107,53746,1295,1,0,9,1.3037788048831767
undo,57,24,0,1,1,9,"[0, 16, 8, 22, 15, 28, 23, 11, 9]",9,0,[],23.24857107,55584,1838,1,0,9,1.3037788048831767
undo,58,6,0,0,0,0,[0],1,29,"[1, 2, 3, 4, 5, 6, 7, 8, 9, 10, 11, 12, 13, 14, 15, 16, 17, 18, 19, 20, 21, 22, 23, 24, 25, 26, 27, 28, 29]",300,277,-1,180,4304,10,0.0
undo,58,6,0,0,0,26,"[0, 26]",2,25,"[1, 2, 3, 4, 5, 6, 7, 8, 9, 10, 11, 12, 13, 14, 15, 16, 17, 18, 20, 21, 22, 23, 24, 27, 29]",250.2606795,8616,8339,45,776,10,1.0
undo,58,6,0,0,0,2,"[0, 26, 2]",3,20,"[1, 3, 4, 5, 6, 7, 8, 9, 10, 13, 14, 16, 17, 18, 21, 22, 23, 24, 27, 29]",220.4278118,11607,2991,20,184,10,1.003152463832065
undo,58,6,0,0,0,7,"[0, 26, 2, 7]",4,18,"[1, 3, 4, 6, 8, 9, 10, 13, 14, 16, 17, 18, 21, 22, 23, 24, 27, 29]",179.3182022,13374,1767,20,157,10,2.5131135963314413
undo,58,6,0,0,0,3,"[0, 26, 2, 7, 3]",5,13,"[1, 6, 8, 10, 13, 16, 17, 18, 21, 22, 23, 24, 29]",143.1795802,14535,1161,18,67,10,4.677560963942129
undo,58,6,0,0,0,18,"[0, 26, 2, 7, 3, 18]",6,10,"[1, 6, 10, 13, 16, 17, 22, 23, 24, 29]",114.1795802,15793,1258,9,21,10,3.0511602668529507
undo,58,6,0,0,0,17,"[0, 26, 2, 7, 3, 18, 17]",7,7,"[6, 10, 13, 16, 23, 24, 29]",100.2511919,16653,860,4,9,10,2.830257342122825
undo,58,6,0,0,0,10,"[0, 26, 2, 7, 3, 18, 17, 10]",8,4,"[16, 23, 24, 29]",80.52810898,17555,902,2,3,10,2.602087972078497
undo,58,6,0,0,0,24,"[0, 26, 2, 7, 3, 18, 17, 10, 24]",9,2,"[16, 23]",67.11170111,19045,1490,2,0,10,2.393670781421888
undo,58,6,1,0,0,10,"[0, 26, 2, 7, 3, 18, 17, 10]",8,4,"[16, 23, 24, 29]",80.52810898,21081,2036,2,3,10,2.602087972078497
undo,58,6,1,0,0,17,"[0, 26, 2, 7, 3, 18, 17]",7,7,"[6, 10, 13, 16, 23, 24, 29]",100.2511919,21349,268,4,9,10,2.830257342122825
undo,58,6,1,0,0,18,"[0, 26, 2, 7, 3, 18]",6,10,"[1, 6, 10, 13, 16, 17, 22, 23, 24, 29]",114.1795802,21564,215,9,21,10,3.0511602668529507
undo,58,6,1,0,0,3,"[0, 26, 2, 7, 3]",5,13,"[1, 6, 8, 10, 13, 16, 17, 18, 21, 22, 23, 24, 29]",143.1795802,21831,267,18,67,10,4.677560963942129
undo,58,6,0,0,0,18,"[0, 26, 2, 7, 3, 18]",6,10,"[1, 6, 10, 13, 16, 17, 22, 23, 24, 29]",114.1795802,23045,1214,9,21,10,3.0511602668529507
undo,58,6,1,0,0,3,"[0, 26, 2, 7, 3]",5,13,"[1, 6, 8, 10, 13, 16, 17, 18, 21, 22, 23, 24, 29]",143.1795802,24681,1636,18,67,10,4.677560963942129
undo,58,6,0,0,0,16,"[0, 26, 2, 7, 3, 16]",6,9,"[6, 10, 13, 17, 18, 22, 23, 24, 29]",96.94106809,25323,642,3,11,10,2.8132170172709676
undo,58,6,0,0,0,18,"[0, 26, 2, 7, 3, 16, 18]",7,4,"[10, 17, 24, 29]",73.59583303,26388,1065,2,4,10,3.7175429872148276
undo,58,6,0,0,0,17,"[0, 26, 2, 7, 3, 16, 18, 17]",8,2,"[10, 24]",59.66744475,27193,805,2,0,10,3.4052918038285505
undo,58,6,0,0,0,10,"[0, 26, 2, 7, 3, 16, 18, 17, 10]",9,1,[24],39.94436183,28107,914,1,0,10,3.0832542837647017
undo,58,6,0,0,1,24,"[0, 26, 2, 7, 3, 16, 18, 17, 10, 24]",10,0,[],26.52795396,28809,702,1,0,10,2.8107983495160362
undo,58,6,0,1,1,24,"[0, 26, 2, 7, 3, 16, 18, 17, 10, 24]",10,0,[],26.52795396,32263,3454,1,0,10,2.8107983495160362
undo,59,28,0,0,0,0,[0],1,27,"[1, 2, 3, 4, 5, 6, 7, 8, 9, 10, 11, 12, 13, 14, 15, 16, 17, 18, 19, 20, 22, 23, 25, 26, 27, 28, 29]",300,211,-1,2,96,9,0.0
undo,59,28,0,0,0,3,"[0, 3]",2,26,"[1, 2, 4, 5, 6, 7, 8, 9, 10, 11, 12, 13, 14, 15, 16, 17, 18, 19, 20, 22, 23, 25, 26, 27, 28, 29]",251.0817008,5984,5773,1,64,9,1.0
undo,59,28,0,0,0,5,"[0, 3, 5]",3,20,"[2, 4, 6, 7, 8, 9, 10, 11, 12, 13, 14, 15, 18, 19, 20, 23, 25, 26, 28, 29]",166.9865166,7182,1198,1,34,9,1.0203769473612083
undo,59,28,0,0,0,26,"[0, 3, 5, 26]",4,13,"[2, 4, 7, 8, 9, 12, 13, 14, 18, 19, 20, 25, 28]",134.2298379,8215,1033,1,28,9,1.0315203228799597
undo,59,28,0,0,0,19,"[0, 3, 5, 26, 19]",5,7,"[2, 7, 9, 12, 13, 14, 18]",93.22983789,10032,1817,1,17,9,1.1324645362297356
undo,59,28,0,0,0,7,"[0, 3, 5, 26, 19, 7]",6,5,"[2, 12, 13, 14, 18]",65.49898864,11288,1256,1,6,9,1.1971194919020265
undo,59,28,0,0,0,12,"[0, 3, 5, 26, 19, 7, 12]",7,2,"[13, 18]",52.3460422,12031,743,1,1,9,1.2020762147848982
undo,59,28,0,0,0,13,"[0, 3, 5, 26, 19, 7, 12, 13]",8,1,[18],35.14139167,12866,835,1,0,9,1.39005144078531
undo,59,28,0,0,1,18,"[0, 3, 5, 26, 19, 7, 12, 13, 18]",9,0,[],10.72828044,13797,931,1,0,9,1.738787343626007
undo,59,28,0,1,1,18,"[0, 3, 5, 26, 19, 7, 12, 13, 18]",9,0,[],10.72828044,18609,4812,1,0,9,1.738787343626007
undo,60,26,0,0,0,0,[0],1,29,"[1, 2, 3, 4, 5, 6, 7, 8, 9, 10, 11, 12, 13, 14, 15, 16, 17, 18, 19, 20, 21, 22, 23, 24, 25, 26, 27, 28, 29]",300,219,-1,9,226,9,0.0
undo,60,26,0,0,0,21,"[0, 21]",2,25,"[2, 3, 4, 5, 6, 7, 8, 10, 11, 12, 13, 14, 15, 16, 17, 18, 19, 22, 23, 24, 25, 26, 27, 28, 29]",211.1349337,13187,12968,7,90,9,1.0
undo,60,26,0,0,0,13,"[0, 21, 13]",3,21,"[3, 4, 5, 6, 7, 8, 10, 11, 12, 14, 15, 16, 17, 18, 19, 22, 23, 24, 25, 26, 29]",188.9989901,15111,1924,6,45,9,1.0103952279992225
undo,60,26,0,0,0,5,"[0, 21, 13, 5]",4,12,"[3, 4, 11, 14, 16, 17, 18, 22, 23, 25, 26, 29]",150.7106107,16373,1262,2,10,8,1.0086890649024711
undo,60,26,0,0,0,23,"[0, 21, 13, 5, 23]",5,8,"[3, 4, 11, 14, 16, 17, 22, 29]",118.0150452,17419,1046,2,7,8,1.3518621918690494
undo,60,26,0,0,0,16,"[0, 21, 13, 5, 23, 16]",6,4,"[4, 14, 17, 29]",64.77971862,18918,1499,2,3,8,2.1011863559657242
undo,60,26,0,0,0,29,"[0, 21, 13, 5, 23, 16, 29]",7,2,"[4, 17]",40.57228175,20207,1289,2,0,8,2.123178325538451
undo,60,26,0,0,1,4,"[0, 21, 13, 5, 23, 16, 29, 4]",8,0,[],16.57228175,22101,1894,1,0,8,2.338467952972574
undo,60,26,1,0,0,29,"[0, 21, 13, 5, 23, 16, 29]",7,2,"[4, 17]",40.57228175,24244,2143,2,0,8,2.123178325538451
undo,60,26,1,0,0,16,"[0, 21, 13, 5, 23, 16]",6,4,"[4, 14, 17, 29]",64.77971862,24478,234,2,3,8,2.1011863559657242
undo,60,26,1,0,0,23,"[0, 21, 13, 5, 23]",5,8,"[3, 4, 11, 14, 16, 17, 22, 29]",118.0150452,24677,199,2,7,8,1.3518621918690494
undo,60,26,1,0,0,5,"[0, 21, 13, 5]",4,12,"[3, 4, 11, 14, 16, 17, 18, 22, 23, 25, 26, 29]",150.7106107,24878,201,2,10,8,1.0086890649024711
undo,60,26,1,0,0,13,"[0, 21, 13]",3,21,"[3, 4, 5, 6, 7, 8, 10, 11, 12, 14, 15, 16, 17, 18, 19, 22, 23, 24, 25, 26, 29]",188.9989901,25344,466,6,45,9,1.0103952279992225
undo,60,26,0,0,0,23,"[0, 21, 13, 23]",4,13,"[3, 4, 5, 6, 10, 11, 14, 16, 17, 18, 22, 26, 29]",150.9858345,26515,1171,3,17,9,1.1069410469330032
undo,60,26,0,0,0,16,"[0, 21, 13, 23, 16]",5,7,"[4, 5, 6, 10, 14, 17, 29]",97.75050789,28133,1618,3,13,9,1.8066634000662438
undo,60,26,0,0,0,29,"[0, 21, 13, 23, 16, 29]",6,5,"[4, 6, 10, 14, 17]",73.54307102,30353,2220,3,9,9,1.853342605492142
