condition,trial_id,map_id,undoIndicator,submit,checkEnd,currentChoice,chosen_all,n_city_all,n_within_reach,cities_reach,currentBudget,time_all,rt_all,n_opt_paths_all,n_subopt_paths_all,mas_all,tortuosity_all
basic,0,25,0,0,0,0,[0],1,28,"[1, 2, 3, 4, 5, 7, 8, 9, 10, 11, 12, 13, 14, 15, 16, 17, 18, 19, 20, 21, 22, 23, 24, 25, 26, 27, 28, 29]",300,196,-1,5,94,10,0.0
basic,0,25,0,0,0,19,"[0, 19]",2,27,"[1, 2, 3, 4, 5, 7, 8, 9, 10, 11, 12, 13, 14, 15, 16, 17, 18, 20, 21, 22, 23, 24, 25, 26, 27, 28, 29]",251.9479449,12070,11874,2,30,10,1.0
basic,0,25,0,0,0,29,"[0, 19, 29]",3,26,"[1, 2, 3, 4, 5, 7, 8, 9, 10, 11, 12, 13, 14, 15, 16, 17, 18, 20, 21, 22, 23, 24, 25, 26, 27, 28]",235.6691243,13289,1219,2,22,10,1.0272252084351727
basic,0,25,0,0,0,22,"[0, 19, 29, 22]",4,24,"[1, 2, 3, 4, 5, 7, 8, 9, 11, 12, 13, 14, 15, 16, 17, 18, 20, 21, 23, 24, 25, 26, 27, 28]",219.5446088,14400,1111,2,17,10,1.03988854593305
basic,0,25,0,0,0,7,"[0, 19, 29, 22, 7]",5,10,"[1, 3, 5, 8, 9, 11, 13, 23, 24, 28]",143.9007062,16501,2101,2,14,10,1.3318974800137366
basic,0,25,0,0,0,24,"[0, 19, 29, 22, 7, 24]",6,7,"[3, 8, 9, 11, 13, 23, 28]",119.1418694,17684,1183,2,9,10,1.2868309735722725
basic,0,25,0,0,0,9,"[0, 19, 29, 22, 7, 24, 9]",7,4,"[3, 8, 13, 28]",101.114113,19199,1515,2,7,10,1.2740198715343065
basic,0,25,0,0,0,3,"[0, 19, 29, 22, 7, 24, 9, 3]",8,3,"[8, 13, 28]",70.84862112,24500,5301,2,1,10,1.2376259292234586
basic,0,25,0,0,0,28,"[0, 19, 29, 22, 7, 24, 9, 3, 28]",9,1,[13],39.54366943,25468,968,1,0,10,1.203625519961748
basic,0,25,0,0,1,13,"[0, 19, 29, 22, 7, 24, 9, 3, 28, 13]",10,0,[],5.309183897,28168,2700,1,0,10,1.4620578920005771
basic,0,25,0,1,1,13,"[0, 19, 29, 22, 7, 24, 9, 3, 28, 13]",10,0,[],5.309183897,30609,2441,1,0,10,1.4620578920005771
basic,1,13,0,0,0,0,[0],1,29,"[1, 2, 3, 4, 5, 6, 7, 8, 9, 10, 11, 12, 13, 14, 15, 16, 17, 18, 19, 20, 21, 22, 23, 24, 25, 26, 27, 28, 29]",300,159,-1,60,2676,11,0.0
basic,1,13,0,0,0,24,"[0, 24]",2,28,"[1, 2, 3, 4, 5, 6, 7, 8, 9, 10, 11, 12, 13, 14, 15, 16, 17, 18, 19, 20, 21, 22, 23, 25, 26, 27, 28, 29]",288.8196601,4288,4129,16,1444,11,1.0
basic,1,13,0,0,0,28,"[0, 24, 28]",3,23,"[1, 2, 3, 4, 6, 7, 8, 9, 10, 11, 12, 13, 15, 16, 17, 19, 20, 21, 22, 23, 26, 27, 29]",222.5324064,5618,1330,8,243,11,1.0513810491680837
basic,1,13,0,0,0,2,"[0, 24, 28, 2]",4,19,"[1, 3, 4, 6, 7, 9, 11, 12, 13, 15, 16, 17, 19, 20, 21, 23, 26, 27, 29]",184.889346,6903,1285,7,110,11,1.050374132001543
basic,1,13,0,0,0,29,"[0, 24, 28, 2, 29]",5,18,"[1, 3, 4, 6, 7, 9, 11, 12, 13, 15, 16, 17, 19, 20, 21, 23, 26, 27]",173.1846461,7887,984,7,85,11,1.1393409619120594
basic,1,13,0,0,0,7,"[0, 24, 28, 2, 29, 7]",6,17,"[1, 3, 4, 6, 9, 11, 12, 13, 15, 16, 17, 19, 20, 21, 23, 26, 27]",157.9203086,8837,950,5,45,11,1.349777315111579
basic,1,13,0,0,0,26,"[0, 24, 28, 2, 29, 7, 26]",7,16,"[1, 3, 4, 6, 9, 11, 12, 13, 15, 16, 17, 19, 20, 21, 23, 27]",147.480002,9841,1004,5,25,11,1.5942082773824946
basic,1,13,0,0,0,6,"[0, 24, 28, 2, 29, 7, 26, 6]",8,12,"[1, 3, 4, 11, 13, 15, 16, 17, 19, 20, 23, 27]",127.3802508,12971,3130,4,12,11,1.5898347940840756
basic,1,13,0,0,0,11,"[0, 24, 28, 2, 29, 7, 26, 6, 11]",9,6,"[1, 13, 15, 16, 17, 23]",108.2752776,14006,1035,3,4,11,1.5029953945561012
basic,1,13,0,0,0,13,"[0, 24, 28, 2, 29, 7, 26, 6, 11, 13]",10,2,"[15, 17]",52.19497806,15394,1388,2,0,11,1.3655915863754327
basic,1,13,0,0,1,15,"[0, 24, 28, 2, 29, 7, 26, 6, 11, 13, 15]",11,0,[],12.38291958,16307,913,1,0,11,1.3653085520078876
basic,1,13,0,1,1,15,"[0, 24, 28, 2, 29, 7, 26, 6, 11, 13, 15]",11,0,[],12.38291958,18310,2003,1,0,11,1.3653085520078876
basic,2,10,0,0,0,0,[0],1,29,"[1, 2, 3, 4, 5, 6, 7, 8, 9, 10, 11, 12, 13, 14, 15, 16, 17, 18, 19, 20, 21, 22, 23, 24, 25, 26, 27, 28, 29]",300,172,-1,1,100,9,0.0
basic,2,10,0,0,0,13,"[0, 13]",2,25,"[1, 2, 3, 4, 6, 7, 8, 9, 10, 11, 12, 14, 17, 18, 19, 20, 21, 22, 23, 24, 25, 26, 27, 28, 29]",249.4628849,4118,3946,1,79,9,1.0
basic,2,10,0,0,0,11,"[0, 13, 11]",3,20,"[1, 2, 3, 6, 7, 8, 9, 10, 12, 14, 18, 19, 20, 21, 22, 24, 26, 27, 28, 29]",206.4512586,5286,1168,1,54,9,1.0313137484914219
basic,2,10,0,0,0,19,"[0, 13, 11, 19]",4,11,"[2, 6, 8, 9, 10, 14, 18, 20, 24, 26, 27]",170.0919407,6553,1267,1,22,9,1.0879446220132545
basic,2,10,0,0,0,2,"[0, 13, 11, 19, 2]",5,4,"[14, 20, 26, 27]",126.1829439,7837,1284,1,4,9,1.06474052351343
basic,2,10,0,0,0,14,"[0, 13, 11, 19, 2, 14]",6,3,"[20, 26, 27]",114.0174188,8822,985,1,3,9,1.1628909195912238
basic,2,10,0,0,0,26,"[0, 13, 11, 19, 2, 14, 26]",7,2,"[20, 27]",79.34754716,10053,1231,1,1,9,1.6660727647633602
basic,2,10,0,0,0,20,"[0, 13, 11, 19, 2, 14, 26, 20]",8,1,[27],47.56704999,11266,1213,1,0,9,2.085581809637999
basic,2,10,0,0,1,27,"[0, 13, 11, 19, 2, 14, 26, 20, 27]",9,0,[],2.312215998,12301,1035,1,0,9,1.9116357409137932
basic,2,10,0,1,1,27,"[0, 13, 11, 19, 2, 14, 26, 20, 27]",9,0,[],2.312215998,14309,2008,1,0,9,1.9116357409137932
basic,3,24,0,0,0,0,[0],1,29,"[1, 2, 3, 4, 5, 6, 7, 8, 9, 10, 11, 12, 13, 14, 15, 16, 17, 18, 19, 20, 21, 22, 23, 24, 25, 26, 27, 28, 29]",300,184,-1,4,76,10,0.0
basic,3,24,0,0,0,14,"[0, 14]",2,27,"[1, 2, 3, 4, 5, 6, 8, 9, 10, 11, 12, 13, 15, 16, 17, 18, 19, 20, 21, 22, 23, 24, 25, 26, 27, 28, 29]",278.0455016,6550,6366,4,54,10,1.0
basic,3,24,0,0,0,16,"[0, 14, 16]",3,25,"[2, 3, 4, 5, 6, 8, 9, 10, 11, 12, 13, 15, 17, 18, 19, 20, 21, 22, 23, 24, 25, 26, 27, 28, 29]",188.9949542,8639,2089,4,31,10,1.238291113657358
basic,3,24,0,0,0,8,"[0, 14, 16, 8]",4,17,"[2, 3, 4, 6, 9, 10, 11, 13, 15, 20, 22, 23, 24, 26, 27, 28, 29]",159.9949542,9783,1144,2,13,10,1.2714603293172921
basic,3,24,0,0,0,22,"[0, 14, 16, 8, 22]",5,13,"[3, 4, 6, 9, 10, 11, 15, 23, 24, 26, 27, 28, 29]",146.5785463,10834,1051,2,10,10,1.4558841300797367
basic,3,24,0,0,0,15,"[0, 14, 16, 8, 22, 15]",6,11,"[3, 4, 6, 9, 10, 11, 23, 26, 27, 28, 29]",125.3653429,11967,1133,2,8,10,1.459909027032803
basic,3,24,0,0,0,28,"[0, 14, 16, 8, 22, 15, 28]",7,5,"[4, 9, 11, 23, 27]",80.08841717,13334,1367,2,5,10,1.3358430839259279
basic,3,24,0,0,0,23,"[0, 14, 16, 8, 22, 15, 28, 23]",8,3,"[9, 11, 27]",61.06211957,14505,1171,2,2,10,1.3561794364003306
basic,3,24,0,0,0,11,"[0, 14, 16, 8, 22, 15, 28, 23, 11]",9,2,"[9, 27]",34.13629554,16335,1830,2,0,10,1.323606251450204
basic,3,24,0,0,1,9,"[0, 14, 16, 8, 22, 15, 28, 23, 11, 9]",10,0,[],1.887264546,17637,1302,1,0,10,1.4044121378284902
basic,3,24,0,1,1,9,"[0, 14, 16, 8, 22, 15, 28, 23, 11, 9]",10,0,[],1.887264546,19408,1771,1,0,10,1.4044121378284902
basic,4,9,0,0,0,0,[0],1,27,"[1, 3, 4, 5, 6, 7, 8, 9, 10, 11, 13, 14, 15, 16, 17, 18, 19, 20, 21, 22, 23, 24, 25, 26, 27, 28, 29]",300,156,-1,2,182,10,0.0
basic,4,9,0,0,0,25,"[0, 25]",2,24,"[1, 3, 4, 5, 6, 7, 8, 9, 10, 11, 13, 15, 16, 17, 18, 19, 20, 21, 22, 23, 24, 26, 27, 28]",275.9168108,5440,5284,2,104,10,1.0
basic,4,9,0,0,0,10,"[0, 25, 10]",3,20,"[3, 4, 5, 7, 8, 9, 11, 13, 15, 16, 17, 18, 19, 20, 21, 22, 23, 26, 27, 28]",236.0670932,7633,2193,2,76,10,1.1767014107208227
basic,4,9,0,0,0,23,"[0, 25, 10, 23]",4,17,"[3, 4, 5, 7, 8, 9, 11, 16, 17, 18, 19, 20, 21, 22, 26, 27, 28]",172.9085625,11192,3559,13,69,9,2.1345590432489923
basic,4,9,0,0,0,8,"[0, 25, 10, 23, 8]",5,14,"[3, 4, 7, 9, 11, 16, 18, 19, 20, 21, 22, 26, 27, 28]",151.4376519,13251,2059,5,23,9,2.329261685228971
basic,4,9,0,0,0,28,"[0, 25, 10, 23, 8, 28]",6,11,"[4, 7, 9, 16, 18, 19, 20, 21, 22, 26, 27]",140.6209981,15288,2037,4,11,9,2.145752418917821
basic,4,9,0,0,0,26,"[0, 25, 10, 23, 8, 28, 26]",7,5,"[9, 18, 19, 20, 21]",95.84377172,18540,3252,2,3,9,1.7475440299711555
basic,4,9,0,0,0,21,"[0, 25, 10, 23, 8, 28, 26, 21]",8,1,[20],41.93644383,19839,1299,1,0,9,2.1771508205897874
basic,4,9,0,0,1,20,"[0, 25, 10, 23, 8, 28, 26, 21, 20]",9,0,[],29.85339786,20749,910,1,0,9,2.133031786911947
basic,4,9,0,1,1,20,"[0, 25, 10, 23, 8, 28, 26, 21, 20]",9,0,[],29.85339786,22691,1942,1,0,9,2.133031786911947
basic,5,20,0,0,0,0,[0],1,21,"[1, 2, 3, 4, 5, 6, 7, 8, 9, 12, 17, 18, 20, 21, 22, 23, 25, 26, 27, 28, 29]",300,224,-1,1,9,9,0.0
basic,5,20,0,0,0,12,"[0, 12]",2,20,"[1, 2, 3, 4, 5, 6, 7, 8, 9, 17, 18, 20, 21, 22, 23, 25, 26, 27, 28, 29]",271.5570747,5419,5195,1,8,9,1.0
basic,5,20,0,0,0,5,"[0, 12, 5]",3,13,"[1, 3, 4, 6, 8, 9, 20, 21, 23, 26, 27, 28, 29]",171.4321527,9850,4431,2,19,8,1.0232843285905395
basic,5,20,0,0,0,21,"[0, 12, 5, 21]",4,10,"[1, 4, 6, 8, 9, 20, 23, 26, 27, 28]",126.4321527,11336,1486,2,12,8,1.017525191374897
basic,5,20,0,0,0,8,"[0, 12, 5, 21, 8]",5,6,"[1, 6, 9, 23, 27, 28]",108.9679035,12506,1170,2,6,8,1.0391698601004782
basic,5,20,0,0,0,23,"[0, 12, 5, 21, 8, 23]",6,3,"[6, 9, 27]",64.28009758,13570,1064,2,1,8,1.0348450868606567
basic,5,20,0,0,0,9,"[0, 12, 5, 21, 8, 23, 9]",7,1,[6],45.07072487,14814,1244,1,0,8,1.0335348098288684
basic,5,20,0,0,1,6,"[0, 12, 5, 21, 8, 23, 9, 6]",8,0,[],22.048996,15959,1145,1,0,8,1.0486850646228845
basic,5,20,0,1,1,6,"[0, 12, 5, 21, 8, 23, 9, 6]",8,0,[],22.048996,17529,1570,1,0,8,1.0486850646228845
basic,6,15,0,0,0,0,[0],1,25,"[1, 2, 3, 4, 7, 8, 9, 10, 11, 12, 13, 14, 15, 16, 18, 20, 21, 22, 23, 24, 25, 26, 27, 28, 29]",300,210,-1,4,65,9,0.0
basic,6,15,0,0,0,12,"[0, 12]",2,22,"[1, 2, 3, 4, 7, 8, 9, 10, 11, 13, 14, 15, 16, 18, 21, 22, 23, 24, 26, 27, 28, 29]",213.547701,6804,6594,4,35,9,1.0
basic,6,15,0,0,0,7,"[0, 12, 7]",3,16,"[1, 3, 4, 8, 9, 10, 11, 13, 14, 15, 16, 18, 21, 22, 24, 27]",180.3061607,8521,1717,4,29,9,1.411291635294361
basic,6,15,0,0,0,16,"[0, 12, 7, 16]",4,10,"[3, 4, 10, 11, 13, 14, 15, 18, 21, 22]",136.6484008,10788,2267,2,11,9,1.4308733430458784
basic,6,15,0,0,0,11,"[0, 12, 7, 16, 11]",5,7,"[3, 4, 13, 14, 15, 21, 22]",110.6291772,11708,920,2,5,9,1.5251025438826007
basic,6,15,0,0,0,3,"[0, 12, 7, 16, 11, 3]",6,5,"[4, 13, 14, 15, 22]",99.22742292,12675,967,2,3,9,1.5166583878170454
basic,6,15,0,0,0,22,"[0, 12, 7, 16, 11, 3, 22]",7,2,"[13, 15]",49.49815588,14304,1629,2,0,9,1.4519711389669923
basic,6,15,0,0,0,13,"[0, 12, 7, 16, 11, 3, 22, 13]",8,1,[15],21.3379002,15355,1051,1,0,9,1.390947894090134
basic,6,15,0,0,1,15,"[0, 12, 7, 16, 11, 3, 22, 13, 15]",9,0,[],6.073562677,16205,850,1,0,9,1.4967248964735906
basic,6,15,0,1,1,15,"[0, 12, 7, 16, 11, 3, 22, 13, 15]",9,0,[],6.073562677,17994,1789,1,0,9,1.4967248964735906
basic,7,19,0,0,0,0,[0],1,29,"[1, 2, 3, 4, 5, 6, 7, 8, 9, 10, 11, 12, 13, 14, 15, 16, 17, 18, 19, 20, 21, 22, 23, 24, 25, 26, 27, 28, 29]",300,173,-1,12,149,8,0.0
basic,7,19,0,0,0,29,"[0, 29]",2,28,"[1, 2, 3, 4, 5, 6, 7, 8, 9, 10, 11, 12, 13, 14, 15, 16, 17, 18, 19, 20, 21, 22, 23, 24, 25, 26, 27, 28]",265.0715016,3566,3393,12,120,8,1.0
basic,7,19,0,0,0,9,"[0, 29, 9]",3,17,"[1, 4, 5, 6, 7, 10, 11, 12, 13, 14, 19, 20, 21, 22, 24, 27, 28]",181.7108394,7100,3534,11,65,8,1.0375842971861238
basic,7,19,0,0,0,28,"[0, 29, 9, 28]",4,8,"[4, 6, 10, 11, 14, 20, 22, 27]",107.4074075,8871,1771,6,10,7,1.1752193003234799
basic,7,19,0,0,0,4,"[0, 29, 9, 28, 4]",5,7,"[6, 10, 11, 14, 20, 22, 27]",96.22706758,10284,1413,6,3,7,1.236441625767462
basic,7,19,0,0,0,14,"[0, 29, 9, 28, 4, 14]",6,3,"[11, 20, 22]",46.21706858,16296,6012,3,0,7,1.2135641539421367
basic,7,19,0,0,1,11,"[0, 29, 9, 28, 4, 14, 11]",7,0,[],35.40041475,16903,607,1,0,7,1.206809017186291
basic,7,19,0,1,1,11,"[0, 29, 9, 28, 4, 14, 11]",7,0,[],35.40041475,18710,1807,1,0,7,1.206809017186291
basic,8,8,0,0,0,0,[0],1,29,"[1, 2, 3, 4, 5, 6, 7, 8, 9, 10, 11, 12, 13, 14, 15, 16, 17, 18, 19, 20, 21, 22, 23, 24, 25, 26, 27, 28, 29]",300,226,-1,10,149,9,0.0
basic,8,8,0,0,0,5,"[0, 5]",2,28,"[1, 2, 3, 4, 6, 7, 8, 9, 10, 11, 12, 13, 14, 15, 16, 17, 18, 19, 20, 21, 22, 23, 24, 25, 26, 27, 28, 29]",254.5137383,4129,3903,10,100,9,1.0
basic,8,8,0,0,0,25,"[0, 5, 25]",3,20,"[1, 2, 3, 4, 6, 11, 12, 14, 15, 16, 17, 18, 19, 20, 21, 22, 23, 24, 28, 29]",215.3091468,12808,8679,4,42,9,1.2272747879909065
basic,8,8,0,0,0,1,"[0, 5, 25, 1]",4,17,"[3, 4, 6, 11, 12, 14, 15, 16, 17, 18, 20, 21, 22, 23, 24, 28, 29]",190.3091468,13841,1033,3,24,9,1.1770245007593956
basic,8,8,0,0,0,23,"[0, 5, 25, 1, 23]",5,15,"[3, 4, 6, 11, 14, 15, 16, 17, 18, 20, 21, 22, 24, 28, 29]",167.2874179,15168,1327,1,14,9,1.141996583852372
basic,8,8,0,0,0,4,"[0, 5, 25, 1, 23, 4]",6,6,"[3, 14, 16, 18, 21, 28]",117.9518324,16737,1569,3,4,8,1.115517190692443
basic,8,8,0,0,0,18,"[0, 5, 25, 1, 23, 4, 18]",7,2,"[14, 28]",74.94020603,19021,2284,2,0,8,1.702606074443807
basic,8,8,0,0,1,14,"[0, 5, 25, 1, 23, 4, 18, 14]",8,0,[],17.45107663,20037,1016,1,0,8,3.306985013025639
basic,8,8,0,1,1,14,"[0, 5, 25, 1, 23, 4, 18, 14]",8,0,[],17.45107663,21445,1408,1,0,8,3.306985013025639
basic,9,4,0,0,0,0,[0],1,26,"[3, 4, 5, 6, 7, 8, 10, 11, 12, 13, 14, 15, 16, 17, 18, 19, 20, 21, 22, 23, 24, 25, 26, 27, 28, 29]",300,179,-1,4,489,10,0.0
basic,9,4,0,0,0,28,"[0, 28]",2,21,"[3, 4, 5, 6, 10, 11, 12, 13, 14, 15, 16, 17, 19, 20, 21, 22, 23, 24, 25, 26, 27]",225.9392142,6539,6360,2,216,10,1.0
basic,9,4,0,0,0,25,"[0, 28, 25]",3,15,"[3, 4, 5, 6, 11, 12, 13, 14, 16, 17, 20, 21, 22, 23, 24]",171.9021898,8102,1563,69,420,9,1.0101483986051152
basic,9,4,0,0,0,11,"[0, 28, 25, 11]",4,13,"[3, 4, 5, 6, 12, 13, 14, 16, 17, 20, 21, 22, 24]",153.1138956,9450,1348,28,131,9,1.1954213347431635
basic,9,4,0,0,0,16,"[0, 28, 25, 11, 16]",5,12,"[3, 4, 5, 6, 12, 13, 14, 17, 20, 21, 22, 24]",138.1138956,10601,1151,25,53,9,1.1744143344165616
basic,9,4,0,0,0,21,"[0, 28, 25, 11, 16, 21]",6,10,"[3, 4, 5, 12, 13, 14, 17, 20, 22, 24]",93.90982337,11912,1311,5,11,9,1.394380391693733
basic,9,4,0,0,0,22,"[0, 28, 25, 11, 16, 21, 22]",7,6,"[3, 4, 5, 17, 20, 24]",82.86446235,14154,2242,5,3,9,1.368558670574751
basic,9,4,0,0,0,5,"[0, 28, 25, 11, 16, 21, 22, 5]",8,2,"[20, 24]",43.65987079,16598,2444,2,0,9,1.2983616570089231
basic,9,4,0,0,1,24,"[0, 28, 25, 11, 16, 21, 22, 5, 24]",9,0,[],4.036645274,17651,1053,1,0,9,1.2633479403180927
basic,9,4,0,1,1,24,"[0, 28, 25, 11, 16, 21, 22, 5, 24]",9,0,[],4.036645274,20009,2358,1,0,9,1.2633479403180927
basic,10,45,0,0,0,0,[0],1,24,"[1, 2, 3, 4, 5, 6, 7, 9, 10, 11, 12, 14, 15, 16, 17, 19, 20, 21, 22, 23, 24, 25, 27, 29]",300,195,-1,6,248,10,0.0
basic,10,45,0,0,0,15,"[0, 15]",2,23,"[1, 2, 3, 4, 5, 6, 7, 9, 10, 11, 12, 14, 16, 17, 19, 20, 21, 22, 23, 24, 25, 27, 29]",253.9022777,3434,3239,5,207,10,1.0
basic,10,45,0,0,0,23,"[0, 15, 23]",3,22,"[1, 2, 3, 4, 5, 6, 7, 9, 10, 11, 12, 14, 16, 17, 19, 20, 21, 22, 24, 25, 27, 29]",230.3014303,4520,1086,5,163,10,1.0006068457769497
basic,10,45,0,0,0,20,"[0, 15, 23, 20]",4,19,"[1, 2, 3, 5, 6, 7, 9, 10, 11, 12, 14, 16, 17, 19, 21, 22, 24, 25, 29]",188.8647316,5668,1148,5,137,10,1.2062119754673604
basic,10,45,0,0,0,10,"[0, 15, 23, 20, 10]",5,12,"[2, 3, 6, 7, 9, 12, 14, 17, 22, 24, 25, 29]",132.784432,8470,2802,1,54,10,1.1363907740691004
basic,10,45,0,0,0,29,"[0, 15, 23, 20, 10, 29]",6,8,"[2, 3, 6, 7, 12, 14, 22, 24]",111.2437728,13721,5251,1,21,10,1.1719694806770014
basic,10,45,0,0,0,3,"[0, 15, 23, 20, 10, 29, 3]",7,5,"[2, 6, 7, 12, 22]",91.24377276,15719,1998,1,7,10,1.1637144299354454
basic,10,45,0,0,0,6,"[0, 15, 23, 20, 10, 29, 3, 6]",8,2,"[12, 22]",55.0084309,17436,1717,1,1,10,1.422423644740367
basic,10,45,0,0,0,12,"[0, 15, 23, 20, 10, 29, 3, 6, 12]",9,1,[22],34.8838191,18422,986,1,0,10,1.395348320526316
basic,10,45,0,0,1,22,"[0, 15, 23, 20, 10, 29, 3, 6, 12, 22]",10,0,[],3.308512292,19186,764,1,0,10,1.3962454826892252
basic,10,45,0,1,1,22,"[0, 15, 23, 20, 10, 29, 3, 6, 12, 22]",10,0,[],3.308512292,20544,1358,1,0,10,1.3962454826892252
basic,11,30,0,0,0,0,[0],1,19,"[3, 4, 5, 7, 9, 11, 16, 17, 18, 19, 20, 21, 22, 24, 25, 26, 27, 28, 29]",300,169,-1,5,41,8,0.0
basic,11,30,0,0,0,16,"[0, 16]",2,17,"[3, 5, 7, 9, 11, 17, 18, 19, 20, 21, 22, 24, 25, 26, 27, 28, 29]",219.3774225,6289,6120,5,34,8,1.0
basic,11,30,0,0,0,25,"[0, 16, 25]",3,10,"[3, 5, 7, 9, 11, 18, 19, 20, 27, 29]",115.0845656,7790,1501,5,28,8,1.0336279544884488
basic,11,30,0,0,0,27,"[0, 16, 25, 27]",4,7,"[3, 5, 7, 18, 19, 20, 29]",75.52448473,12277,4487,1,12,8,1.0719738181137488
basic,11,30,0,0,0,3,"[0, 16, 25, 27, 3]",5,5,"[5, 7, 18, 20, 29]",56.41951155,14971,2694,1,4,8,1.0683252001879187
basic,11,30,0,0,0,29,"[0, 16, 25, 27, 3, 29]",6,2,"[5, 18]",37.81843632,16217,1246,1,1,8,1.0768958290478794
basic,11,30,0,0,0,18,"[0, 16, 25, 27, 3, 29, 18]",7,1,[5],18.5052284,17487,1270,1,0,8,1.1525061930327378
basic,11,30,0,0,1,5,"[0, 16, 25, 27, 3, 29, 18, 5]",8,0,[],5.466823591,18255,768,1,0,8,1.2180155123152177
basic,11,30,0,1,1,5,"[0, 16, 25, 27, 3, 29, 18, 5]",8,0,[],5.466823591,19544,1289,1,0,8,1.2180155123152177
basic,12,0,0,0,0,0,[0],1,27,"[2, 3, 4, 5, 6, 7, 8, 9, 10, 11, 12, 13, 14, 15, 16, 17, 19, 20, 21, 22, 23, 24, 25, 26, 27, 28, 29]",300,172,-1,104,1136,9,0.0
basic,12,0,0,0,0,28,"[0, 28]",2,26,"[2, 3, 4, 5, 6, 7, 8, 9, 10, 11, 12, 13, 14, 15, 16, 17, 19, 20, 21, 22, 23, 24, 25, 26, 27, 29]",194.9190788,5852,5680,39,388,9,1.0
basic,12,0,0,0,0,5,"[0, 28, 5]",3,21,"[2, 3, 4, 7, 8, 9, 11, 12, 13, 14, 15, 16, 17, 19, 20, 21, 23, 24, 25, 26, 29]",151.2613189,7552,1700,27,210,9,1.0978295127671733
basic,12,0,0,0,0,4,"[0, 28, 5, 4]",4,16,"[3, 7, 8, 9, 11, 12, 13, 14, 15, 17, 19, 20, 21, 23, 24, 26]",126.1814465,12203,4651,17,114,9,1.1103727063761901
basic,12,0,0,0,0,24,"[0, 28, 5, 4, 24]",5,12,"[3, 7, 8, 9, 11, 12, 15, 17, 19, 20, 23, 26]",114.7796922,13430,1227,10,46,9,1.1102188371994124
basic,12,0,0,0,0,15,"[0, 28, 5, 4, 24, 15]",6,9,"[3, 7, 8, 9, 11, 12, 17, 19, 26]",91.43445718,14436,1006,6,13,9,1.1033515194628531
basic,12,0,0,0,0,7,"[0, 28, 5, 4, 24, 15, 7]",7,5,"[3, 8, 17, 19, 26]",60.37000804,15735,1299,5,3,9,1.1688711639523348
basic,12,0,0,0,0,8,"[0, 28, 5, 4, 24, 15, 7, 8]",8,2,"[3, 19]",41.26503487,16733,998,2,0,9,1.1630446712274667
basic,12,0,0,0,1,19,"[0, 28, 5, 4, 24, 15, 7, 8, 19]",9,0,[],5.41813821,17824,1091,1,0,9,1.186663369308851
basic,12,0,0,1,1,19,"[0, 28, 5, 4, 24, 15, 7, 8, 19]",9,0,[],5.41813821,20375,2551,1,0,9,1.186663369308851
basic,13,1,0,0,0,0,[0],1,26,"[1, 2, 4, 5, 7, 8, 9, 10, 11, 12, 13, 14, 15, 16, 17, 18, 19, 20, 21, 22, 23, 24, 25, 26, 28, 29]",300,167,-1,6,74,7,0.0
basic,13,1,0,0,0,8,"[0, 8]",2,23,"[1, 4, 5, 7, 9, 10, 11, 12, 13, 14, 15, 16, 17, 18, 19, 20, 21, 23, 24, 25, 26, 28, 29]",202,5960,5793,1,16,7,1.0
basic,13,1,0,0,0,20,"[0, 8, 20]",3,12,"[1, 4, 5, 11, 13, 14, 15, 17, 18, 19, 28, 29]",125.9408125,8811,2851,1,7,7,1.02364736730791
basic,13,1,0,0,0,5,"[0, 8, 20, 5]",4,7,"[1, 4, 11, 13, 17, 18, 29]",104.469902,10028,1217,1,3,7,1.0439599203945713
basic,13,1,0,0,0,18,"[0, 8, 20, 5, 18]",5,2,"[4, 29]",81.64447755,12396,2368,1,1,7,1.0840407791793756
basic,13,1,0,0,0,4,"[0, 8, 20, 5, 18, 4]",6,1,[29],42.69579336,13583,1187,1,0,7,1.0902329133216275
basic,13,1,0,0,1,29,"[0, 8, 20, 5, 18, 4, 29]",7,0,[],6.640280603,16495,2912,1,0,7,1.2859729622882756
basic,13,1,0,1,1,29,"[0, 8, 20, 5, 18, 4, 29]",7,0,[],6.640280603,17836,1341,1,0,7,1.2859729622882756
basic,14,33,0,0,0,0,[0],1,23,"[1, 2, 5, 7, 8, 11, 12, 13, 14, 15, 16, 17, 18, 19, 20, 21, 23, 24, 25, 26, 27, 28, 29]",300,185,-1,5,108,9,0.0
basic,14,33,0,0,0,8,"[0, 8]",2,22,"[1, 2, 5, 7, 11, 12, 13, 14, 15, 16, 17, 18, 19, 20, 21, 23, 24, 25, 26, 27, 28, 29]",265.8679037,2683,2498,5,87,9,1.0
basic,14,33,0,0,0,21,"[0, 8, 21]",3,16,"[2, 5, 7, 11, 13, 14, 16, 17, 18, 19, 20, 24, 26, 27, 28, 29]",166.0430571,5082,2399,5,80,9,1.0670557763739492
basic,14,33,0,0,0,13,"[0, 8, 21, 13]",4,12,"[2, 7, 11, 14, 16, 17, 18, 19, 20, 24, 26, 29]",139.6422995,6816,1734,4,54,9,1.0555103820910288
basic,14,33,0,0,0,19,"[0, 8, 21, 13, 19]",5,10,"[7, 11, 14, 16, 17, 18, 20, 24, 26, 29]",114.1472019,8185,1369,3,19,9,1.1090798607799486
basic,14,33,0,0,0,7,"[0, 8, 21, 13, 19, 7]",6,5,"[14, 18, 24, 26, 29]",68.52922302,9455,1270,1,4,9,1.086202642130009
basic,14,33,0,0,0,14,"[0, 8, 21, 13, 19, 7, 14]",7,3,"[24, 26, 29]",53.66315427,10501,1046,1,2,9,1.1354822367616264
basic,14,33,0,0,0,26,"[0, 8, 21, 13, 19, 7, 14, 26]",8,1,[29],41.01404363,11435,934,1,0,9,1.144734735418919
basic,14,33,0,0,1,29,"[0, 8, 21, 13, 19, 7, 14, 26, 29]",9,0,[],13.12139227,12432,997,1,0,9,1.3638482940300902
basic,14,33,0,1,1,29,"[0, 8, 21, 13, 19, 7, 14, 26, 29]",9,0,[],13.12139227,13774,1342,1,0,9,1.3638482940300902
basic,15,39,0,0,0,0,[0],1,28,"[1, 2, 3, 4, 5, 6, 7, 9, 10, 11, 12, 13, 14, 15, 16, 17, 18, 19, 20, 21, 22, 23, 24, 25, 26, 27, 28, 29]",300,158,-1,1,30,10,0.0
basic,15,39,0,0,0,29,"[0, 29]",2,26,"[1, 2, 3, 4, 5, 6, 7, 9, 10, 12, 13, 14, 15, 16, 17, 18, 19, 20, 21, 22, 23, 24, 25, 26, 27, 28]",243.0614366,7385,7227,8,104,9,1.0
basic,15,39,0,0,0,12,"[0, 29, 12]",3,18,"[1, 2, 4, 5, 7, 9, 10, 13, 14, 15, 16, 18, 19, 22, 23, 24, 26, 28]",182.5221931,9252,1867,5,54,9,1.0026200331524904
basic,15,39,0,0,0,10,"[0, 29, 12, 10]",4,16,"[1, 2, 4, 5, 7, 9, 13, 14, 15, 16, 18, 19, 22, 23, 24, 26]",147.0116313,10603,1351,5,34,9,1.2874817019928908
basic,15,39,0,0,0,7,"[0, 29, 12, 10, 7]",5,10,"[1, 2, 5, 13, 16, 18, 19, 22, 24, 26]",113.5900814,11526,923,4,12,9,1.2250826263866774
basic,15,39,0,0,0,26,"[0, 29, 12, 10, 7, 26]",6,5,"[1, 16, 18, 19, 22]",94.90853971,12537,1011,3,4,9,1.2697275353190085
basic,15,39,0,0,0,22,"[0, 29, 12, 10, 7, 26, 22]",7,2,"[16, 19]",77.18849457,17855,5318,2,0,9,1.438961743955176
basic,15,39,0,0,0,16,"[0, 29, 12, 10, 7, 26, 22, 16]",8,1,[19],42.18849457,18952,1097,1,0,9,1.3580882130477205
basic,15,39,0,0,1,19,"[0, 29, 12, 10, 7, 26, 22, 16, 19]",9,0,[],24.72424537,19774,822,1,0,9,1.3646589157842668
basic,15,39,0,1,1,19,"[0, 29, 12, 10, 7, 26, 22, 16, 19]",9,0,[],24.72424537,21012,1238,1,0,9,1.3646589157842668
basic,16,31,0,0,0,0,[0],1,27,"[1, 3, 4, 5, 6, 7, 8, 10, 11, 12, 13, 14, 15, 16, 17, 18, 19, 20, 21, 22, 23, 24, 25, 26, 27, 28, 29]",300,202,-1,2,87,10,0.0
basic,16,31,0,0,0,14,"[0, 14]",2,25,"[1, 3, 5, 6, 7, 8, 10, 11, 12, 13, 15, 16, 17, 18, 19, 20, 21, 22, 23, 24, 25, 26, 27, 28, 29]",263.861378,3383,3181,2,59,10,1.0
basic,16,31,0,0,0,27,"[0, 14, 27]",3,22,"[1, 3, 5, 6, 7, 8, 10, 11, 12, 13, 15, 16, 17, 18, 19, 20, 21, 22, 24, 25, 28, 29]",235.6833724,4450,1067,1,39,10,1.5881859159302467
basic,16,31,0,0,0,8,"[0, 14, 27, 8]",4,20,"[1, 3, 5, 6, 7, 10, 11, 12, 13, 16, 17, 18, 19, 20, 21, 22, 24, 25, 28, 29]",224.6380114,5501,1051,1,36,10,2.1665048452331277
basic,16,31,0,0,0,18,"[0, 14, 27, 8, 18]",5,15,"[1, 5, 6, 7, 11, 12, 13, 16, 17, 19, 20, 22, 25, 28, 29]",188.7911147,6630,1129,1,26,10,1.7273375741920205
basic,16,31,0,0,0,11,"[0, 14, 27, 8, 18, 11]",6,11,"[1, 5, 7, 12, 16, 17, 19, 20, 22, 25, 28]",153.9055876,7598,968,13,17,9,2.386348208737804
basic,16,31,0,0,0,5,"[0, 14, 27, 8, 18, 11, 5]",7,5,"[16, 17, 20, 25, 28]",110.2249283,8600,1002,3,3,9,2.163249612867222
basic,16,31,0,0,0,28,"[0, 14, 27, 8, 18, 11, 5, 28]",8,2,"[16, 17]",90.00117988,9567,967,2,0,9,1.9564635733184719
basic,16,31,0,0,1,16,"[0, 14, 27, 8, 18, 11, 5, 28, 16]",9,0,[],56.38570725,10524,957,1,0,9,1.824071502589619
basic,16,31,0,1,1,16,"[0, 14, 27, 8, 18, 11, 5, 28, 16]",9,0,[],56.38570725,13059,2535,1,0,9,1.824071502589619
basic,17,17,0,0,0,0,[0],1,28,"[1, 2, 3, 4, 5, 6, 7, 8, 9, 10, 11, 12, 13, 14, 15, 16, 17, 18, 19, 20, 22, 23, 24, 25, 26, 27, 28, 29]",300,182,-1,2,73,8,0.0
basic,17,17,0,0,0,9,"[0, 9]",2,25,"[1, 2, 3, 5, 6, 7, 8, 10, 11, 12, 14, 15, 16, 17, 18, 19, 20, 22, 23, 24, 25, 26, 27, 28, 29]",210.5293344,10740,10558,1,34,8,1.0
basic,17,17,0,0,0,16,"[0, 9, 16]",3,21,"[1, 2, 3, 5, 7, 8, 10, 11, 12, 14, 17, 18, 19, 20, 22, 23, 25, 26, 27, 28, 29]",197.1876704,11656,916,1,26,8,1.173103464220352
basic,17,17,0,0,0,2,"[0, 9, 16, 2]",4,18,"[1, 3, 5, 7, 8, 10, 11, 12, 14, 17, 18, 19, 23, 25, 26, 27, 28, 29]",181.0631549,12443,787,1,23,8,1.14825089247282
basic,17,17,0,0,0,8,"[0, 9, 16, 2, 8]",5,9,"[3, 7, 10, 11, 12, 14, 17, 26, 27]",145.9490551,13555,1112,1,9,8,1.1509808066472915
basic,17,17,0,0,0,27,"[0, 9, 16, 2, 8, 27]",6,3,"[7, 12, 26]",63.31129136,15389,1834,1,2,8,1.1020704318716983
basic,17,17,0,0,0,12,"[0, 9, 16, 2, 8, 27, 12]",7,1,[26],40.31129136,16343,954,1,0,8,1.094321365620665
basic,17,17,0,0,1,26,"[0, 9, 16, 2, 8, 27, 12, 26]",8,0,[],5.197191627,17251,908,1,0,8,1.2018360298670372
basic,17,17,0,1,1,26,"[0, 9, 16, 2, 8, 27, 12, 26]",8,0,[],5.197191627,18497,1246,1,0,8,1.2018360298670372
basic,18,38,0,0,0,0,[0],1,29,"[1, 2, 3, 4, 5, 6, 7, 8, 9, 10, 11, 12, 13, 14, 15, 16, 17, 18, 19, 20, 21, 22, 23, 24, 25, 26, 27, 28, 29]",300,173,-1,33,506,9,0.0
basic,18,38,0,0,0,17,"[0, 17]",2,26,"[1, 3, 4, 5, 6, 7, 8, 9, 10, 11, 12, 13, 14, 15, 16, 18, 19, 20, 22, 23, 24, 25, 26, 27, 28, 29]",235.1848783,7757,7584,11,115,9,1.0
basic,18,38,0,0,0,20,"[0, 17, 20]",3,24,"[1, 3, 4, 5, 6, 7, 9, 10, 11, 12, 13, 14, 15, 16, 18, 19, 22, 23, 24, 25, 26, 27, 28, 29]",211.4151497,9389,1632,7,70,9,1.6449793733822013
basic,18,38,0,0,0,4,"[0, 17, 20, 4]",4,17,"[3, 5, 7, 10, 11, 12, 13, 14, 15, 16, 18, 19, 22, 24, 26, 27, 28]",177.4740242,11139,1750,4,40,9,1.7475203137292266
basic,18,38,0,0,0,15,"[0, 17, 20, 4, 15]",5,12,"[5, 10, 11, 12, 13, 14, 16, 19, 24, 26, 27, 28]",151.4740242,12853,1714,3,20,9,2.0241835387118274
basic,18,38,0,0,0,11,"[0, 17, 20, 4, 15, 11]",6,8,"[5, 10, 12, 13, 14, 16, 26, 28]",115.0734747,14404,1551,2,7,9,2.3142952219285746
basic,18,38,0,0,0,28,"[0, 17, 20, 4, 15, 11, 28]",7,4,"[10, 12, 14, 16]",88.05496254,15888,1484,2,2,9,1.9846119749887663
basic,18,38,0,0,0,14,"[0, 17, 20, 4, 15, 11, 28, 14]",8,1,[12],32.61129744,17002,1114,1,0,9,1.7265262770891336
basic,18,38,0,0,1,12,"[0, 17, 20, 4, 15, 11, 28, 14, 12]",9,0,[],17.84647438,17720,718,1,0,9,1.6635011222913068
basic,18,38,0,1,1,12,"[0, 17, 20, 4, 15, 11, 28, 14, 12]",9,0,[],17.84647438,19125,1405,1,0,9,1.6635011222913068
basic,19,26,0,0,0,0,[0],1,29,"[1, 2, 3, 4, 5, 6, 7, 8, 9, 10, 11, 12, 13, 14, 15, 16, 17, 18, 19, 20, 21, 22, 23, 24, 25, 26, 27, 28, 29]",300,187,-1,9,226,9,0.0
basic,19,26,0,0,0,21,"[0, 21]",2,25,"[2, 3, 4, 5, 6, 7, 8, 10, 11, 12, 13, 14, 15, 16, 17, 18, 19, 22, 23, 24, 25, 26, 27, 28, 29]",211.1349337,9137,8950,7,90,9,1.0
basic,19,26,0,0,0,13,"[0, 21, 13]",3,21,"[3, 4, 5, 6, 7, 8, 10, 11, 12, 14, 15, 16, 17, 18, 19, 22, 23, 24, 25, 26, 29]",188.9989901,10765,1628,6,45,9,1.0103952279992225
basic,19,26,0,0,0,23,"[0, 21, 13, 23]",4,13,"[3, 4, 5, 6, 10, 11, 14, 16, 17, 18, 22, 26, 29]",150.9858345,11936,1171,3,17,9,1.1069410469330032
basic,19,26,0,0,0,16,"[0, 21, 13, 23, 16]",5,7,"[4, 5, 6, 10, 14, 17, 29]",97.75050789,13751,1815,3,13,9,1.8066634000662438
basic,19,26,0,0,0,29,"[0, 21, 13, 23, 16, 29]",6,5,"[4, 6, 10, 14, 17]",73.54307102,14892,1141,3,9,9,1.853342605492142
basic,19,26,0,0,0,4,"[0, 21, 13, 23, 16, 29, 4]",7,3,"[6, 14, 17]",49.54307102,15920,1028,2,2,9,2.0664369230924997
basic,19,26,0,0,0,17,"[0, 21, 13, 23, 16, 29, 4, 17]",8,2,"[6, 14]",28.44804791,19049,3129,2,0,9,1.911153301956092
basic,19,26,0,0,1,14,"[0, 21, 13, 23, 16, 29, 4, 17, 14]",9,0,[],5.975842855,20201,1152,1,0,9,1.8245133223656398
basic,19,26,0,1,1,14,"[0, 21, 13, 23, 16, 29, 4, 17, 14]",9,0,[],5.975842855,21310,1109,1,0,9,1.8245133223656398
basic,20,22,0,0,0,0,[0],1,29,"[1, 2, 3, 4, 5, 6, 7, 8, 9, 10, 11, 12, 13, 14, 15, 16, 17, 18, 19, 20, 21, 22, 23, 24, 25, 26, 27, 28, 29]",300,194,-1,31,704,9,0.0
basic,20,22,0,0,0,29,"[0, 29]",2,22,"[1, 3, 5, 6, 7, 8, 9, 11, 13, 14, 15, 16, 17, 19, 20, 21, 22, 23, 24, 25, 27, 28]",222.9935068,6120,5926,11,235,9,1.0
basic,20,22,0,0,0,19,"[0, 29, 19]",3,18,"[1, 3, 6, 7, 8, 9, 13, 14, 15, 16, 17, 20, 21, 22, 23, 24, 25, 28]",207.9602104,7026,906,11,172,9,1.1559285443414686
basic,20,22,0,0,0,9,"[0, 29, 19, 9]",4,16,"[1, 3, 6, 7, 8, 13, 14, 15, 16, 17, 20, 21, 22, 24, 25, 28]",187.5641323,7939,913,7,84,9,1.2555028175473422
basic,20,22,0,0,0,14,"[0, 29, 19, 9, 14]",5,11,"[1, 3, 6, 7, 13, 16, 17, 20, 21, 24, 28]",144.5176458,8878,939,4,28,9,1.200251311198461
basic,20,22,0,0,0,7,"[0, 29, 19, 9, 14, 7]",6,10,"[1, 3, 6, 13, 16, 17, 20, 21, 24, 28]",131.479241,9775,897,4,18,9,1.3399585036197592
basic,20,22,0,0,0,17,"[0, 29, 19, 9, 14, 7, 17]",7,5,"[1, 3, 20, 21, 24]",89.86193693,10704,929,3,3,9,1.3297480627305363
basic,20,22,0,0,0,21,"[0, 29, 19, 9, 14, 7, 17, 21]",8,2,"[3, 24]",38.51020862,11873,1169,2,0,9,1.621067475944888
basic,20,22,0,0,1,3,"[0, 29, 19, 9, 14, 7, 17, 21, 3]",9,0,[],13.49021662,12738,865,1,0,9,1.6812263795812836
basic,20,22,0,1,1,3,"[0, 29, 19, 9, 14, 7, 17, 21, 3]",9,0,[],13.49021662,14146,1408,1,0,9,1.6812263795812836
basic,21,12,0,0,0,0,[0],1,29,"[1, 2, 3, 4, 5, 6, 7, 8, 9, 10, 11, 12, 13, 14, 15, 16, 17, 18, 19, 20, 21, 22, 23, 24, 25, 26, 27, 28, 29]",300,169,-1,2,32,9,0.0
basic,21,12,0,0,0,16,"[0, 16]",2,16,"[2, 4, 5, 6, 7, 12, 13, 14, 18, 19, 22, 23, 24, 25, 27, 29]",209.2916762,5085,4916,3,38,8,1.0
basic,21,12,0,0,0,22,"[0, 16, 22]",3,14,"[2, 4, 5, 6, 7, 12, 13, 14, 18, 19, 23, 24, 25, 27]",188.2916762,7700,2615,2,21,8,1.26933081733974
basic,21,12,0,0,0,4,"[0, 16, 22, 4]",4,7,"[6, 12, 14, 19, 24, 25, 27]",143.69347,9053,1353,2,10,8,1.251373590144064
basic,21,12,0,0,0,12,"[0, 16, 22, 4, 12]",5,4,"[14, 19, 24, 27]",101.5034238,10167,1114,2,3,8,1.2013999386970955
basic,21,12,0,0,0,27,"[0, 16, 22, 4, 12, 27]",6,2,"[14, 24]",77.15183245,11157,990,2,0,8,1.3028492624171124
basic,21,12,0,0,0,14,"[0, 16, 22, 4, 12, 27, 14]",7,1,[24],48.49873489,12252,1095,1,0,8,1.3507914643294519
basic,21,12,0,0,1,24,"[0, 16, 22, 4, 12, 27, 14, 24]",8,0,[],31.29408435,14018,1766,1,0,8,1.5056447333155683
basic,21,12,0,1,1,24,"[0, 16, 22, 4, 12, 27, 14, 24]",8,0,[],31.29408435,19110,5092,1,0,8,1.5056447333155683
basic,22,41,0,0,0,0,[0],1,29,"[1, 2, 3, 4, 5, 6, 7, 8, 9, 10, 11, 12, 13, 14, 15, 16, 17, 18, 19, 20, 21, 22, 23, 24, 25, 26, 27, 28, 29]",300,195,-1,1,143,10,0.0
basic,22,41,0,0,0,13,"[0, 13]",2,23,"[1, 2, 3, 5, 6, 7, 9, 10, 11, 12, 14, 15, 17, 18, 19, 20, 21, 22, 24, 25, 26, 27, 28]",258.2747079,4585,4390,1,55,10,1.0
basic,22,41,0,0,0,28,"[0, 13, 28]",3,22,"[1, 2, 3, 5, 6, 7, 9, 10, 11, 12, 14, 15, 17, 18, 19, 20, 21, 22, 24, 25, 26, 27]",223.7928286,5572,987,1,39,10,1.895724242592676
basic,22,41,0,0,0,5,"[0, 13, 28, 5]",4,19,"[1, 2, 3, 6, 9, 10, 11, 12, 14, 15, 17, 18, 19, 20, 21, 22, 24, 25, 27]",210.1913581,6602,1030,1,34,10,2.861541269398273
basic,22,41,0,0,0,3,"[0, 13, 28, 5, 3]",5,16,"[1, 2, 6, 9, 10, 12, 14, 17, 18, 19, 20, 21, 22, 24, 25, 27]",175.3632086,7905,1303,1,22,10,3.1455488489005883
basic,22,41,0,0,0,21,"[0, 13, 28, 5, 3, 21]",6,14,"[1, 2, 6, 9, 10, 12, 14, 17, 18, 19, 20, 22, 25, 27]",143.2228912,9188,1283,13,11,9,3.207558429289677
basic,22,41,0,0,0,9,"[0, 13, 28, 5, 3, 21, 9]",7,6,"[1, 2, 10, 12, 14, 17]",93.85691102,10235,1047,7,4,9,2.5050148501792275
basic,22,41,0,0,0,2,"[0, 13, 28, 5, 3, 21, 9, 2]",8,5,"[1, 10, 12, 14, 17]",81.77386505,11253,1018,5,0,9,2.4119643847713177
basic,22,41,0,0,1,17,"[0, 13, 28, 5, 3, 21, 9, 2, 17]",9,0,[],49.21622385,12824,1571,1,0,9,3.9563478735796007
basic,22,41,0,1,1,17,"[0, 13, 28, 5, 3, 21, 9, 2, 17]",9,0,[],49.21622385,15643,2819,1,0,9,3.9563478735796007
undo,23,23,0,0,0,0,[0],1,28,"[1, 2, 3, 4, 5, 6, 7, 8, 9, 10, 11, 12, 13, 14, 15, 16, 17, 18, 19, 20, 21, 22, 23, 25, 26, 27, 28, 29]",300,207,-1,76,2626,10,0.0
undo,23,23,0,0,0,22,"[0, 22]",2,24,"[1, 2, 3, 5, 6, 7, 8, 9, 10, 11, 12, 13, 14, 15, 17, 18, 19, 20, 21, 23, 25, 26, 27, 29]",210.5013967,8196,7989,15,1362,10,1.0
undo,23,23,0,0,0,13,"[0, 22, 13]",3,14,"[1, 2, 5, 6, 7, 8, 9, 10, 12, 14, 18, 21, 27, 29]",168.3113504,9947,1751,14,522,10,1.1898173563652046
undo,23,23,0,0,0,12,"[0, 22, 13, 12]",4,11,"[1, 2, 6, 7, 9, 10, 14, 18, 21, 27, 29]",156.2283045,11558,1611,12,166,10,1.1727968780218219
undo,23,23,0,0,0,2,"[0, 22, 13, 12, 2]",5,9,"[1, 6, 7, 9, 10, 14, 18, 27, 29]",142.3358605,12743,1185,4,38,10,1.1553975034701014
undo,23,23,0,0,0,9,"[0, 22, 13, 12, 2, 9]",6,7,"[6, 7, 10, 14, 18, 27, 29]",129.2974557,14145,1402,1,12,10,1.3065798464766785
undo,23,23,0,0,0,14,"[0, 22, 13, 12, 2, 9, 14]",7,6,"[6, 7, 10, 18, 27, 29]",118.8571492,15260,1115,1,6,10,1.2857038452263323
undo,23,23,0,0,0,29,"[0, 22, 13, 12, 2, 9, 14, 29]",8,2,"[7, 10]",71.42298425,17796,2536,1,1,10,1.4822676597092734
undo,23,23,0,0,0,7,"[0, 22, 13, 12, 2, 9, 14, 29, 7]",9,1,[10],47.3397951,20327,2531,1,0,10,1.5022275496758202
undo,23,23,0,0,1,10,"[0, 22, 13, 12, 2, 9, 14, 29, 7, 10]",10,0,[],19.88073466,21243,916,1,0,10,1.46560906518872
undo,23,23,0,1,1,10,"[0, 22, 13, 12, 2, 9, 14, 29, 7, 10]",10,0,[],19.88073466,28685,7442,1,0,10,1.46560906518872
undo,24,1,0,0,0,0,[0],1,26,"[1, 2, 4, 5, 7, 8, 9, 10, 11, 12, 13, 14, 15, 16, 17, 18, 19, 20, 21, 22, 23, 24, 25, 26, 28, 29]",300,168,-1,6,74,7,0.0
undo,24,1,0,0,0,14,"[0, 14]",2,19,"[1, 4, 5, 8, 9, 13, 15, 17, 18, 19, 20, 21, 22, 23, 24, 25, 26, 28, 29]",200.1901808,13275,13107,5,42,7,1.0
undo,24,1,0,0,0,17,"[0, 14, 17]",3,15,"[1, 4, 5, 8, 9, 13, 15, 18, 19, 20, 22, 23, 25, 28, 29]",147.8356204,14723,1448,5,27,7,1.0028844724416826
undo,24,1,0,0,0,1,"[0, 14, 17, 1]",4,12,"[4, 5, 8, 9, 15, 18, 20, 22, 23, 25, 28, 29]",123.4840291,16044,1321,5,15,7,1.0264985578353567
undo,24,1,0,0,0,28,"[0, 14, 17, 1, 28]",5,5,"[9, 15, 22, 23, 29]",88.59850198,17221,1177,5,3,7,1.0339861575999345
undo,24,1,0,0,0,23,"[0, 14, 17, 1, 28, 23]",6,2,"[15, 22]",51.70676849,18524,1303,2,0,7,1.0327458250705703
undo,24,1,1,0,0,28,"[0, 14, 17, 1, 28]",5,5,"[9, 15, 22, 23, 29]",88.59850198,20715,2191,5,3,7,1.0339861575999345
undo,24,1,1,0,0,1,"[0, 14, 17, 1]",4,12,"[4, 5, 8, 9, 15, 18, 20, 22, 23, 25, 28, 29]",123.4840291,21047,332,5,15,7,1.0264985578353567
undo,24,1,1,0,0,17,"[0, 14, 17]",3,15,"[1, 4, 5, 8, 9, 13, 15, 18, 19, 20, 22, 23, 25, 28, 29]",147.8356204,21348,301,5,27,7,1.0028844724416826
undo,24,1,1,0,0,14,"[0, 14]",2,19,"[1, 4, 5, 8, 9, 13, 15, 17, 18, 19, 20, 21, 22, 23, 24, 25, 26, 28, 29]",200.1901808,21682,334,5,42,7,1.0
undo,24,1,1,0,0,0,[0],1,26,"[1, 2, 4, 5, 7, 8, 9, 10, 11, 12, 13, 14, 15, 16, 17, 18, 19, 20, 21, 22, 23, 24, 25, 26, 28, 29]",300,22382,700,6,74,7,0.0
undo,24,1,0,0,0,8,"[0, 8]",2,23,"[1, 4, 5, 7, 9, 10, 11, 12, 13, 14, 15, 16, 17, 18, 19, 20, 21, 23, 24, 25, 26, 28, 29]",202,27966,5584,1,16,7,1.0
undo,24,1,0,0,0,20,"[0, 8, 20]",3,12,"[1, 4, 5, 11, 13, 14, 15, 17, 18, 19, 28, 29]",125.9408125,29295,1329,1,7,7,1.02364736730791
undo,24,1,0,0,0,5,"[0, 8, 20, 5]",4,7,"[1, 4, 11, 13, 17, 18, 29]",104.469902,30409,1114,1,3,7,1.0439599203945713
undo,24,1,0,0,0,18,"[0, 8, 20, 5, 18]",5,2,"[4, 29]",81.64447755,31430,1021,1,1,7,1.0840407791793756
undo,24,1,1,0,0,5,"[0, 8, 20, 5]",4,7,"[1, 4, 11, 13, 17, 18, 29]",104.469902,33300,1870,1,3,7,1.0439599203945713
undo,24,1,1,0,0,20,"[0, 8, 20]",3,12,"[1, 4, 5, 11, 13, 14, 15, 17, 18, 19, 28, 29]",125.9408125,33531,231,1,7,7,1.02364736730791
undo,24,1,1,0,0,8,"[0, 8]",2,23,"[1, 4, 5, 7, 9, 10, 11, 12, 13, 14, 15, 16, 17, 18, 19, 20, 21, 23, 24, 25, 26, 28, 29]",202,33815,284,1,16,7,1.0
undo,24,1,1,0,0,0,[0],1,26,"[1, 2, 4, 5, 7, 8, 9, 10, 11, 12, 13, 14, 15, 16, 17, 18, 19, 20, 21, 22, 23, 24, 25, 26, 28, 29]",300,34365,550,6,74,7,0.0
undo,24,1,0,0,0,14,"[0, 14]",2,19,"[1, 4, 5, 8, 9, 13, 15, 17, 18, 19, 20, 21, 22, 23, 24, 25, 26, 28, 29]",200.1901808,41109,6744,5,42,7,1.0
undo,24,1,0,0,0,17,"[0, 14, 17]",3,15,"[1, 4, 5, 8, 9, 13, 15, 18, 19, 20, 22, 23, 25, 28, 29]",147.8356204,42609,1500,5,27,7,1.0028844724416826
undo,24,1,0,0,0,1,"[0, 14, 17, 1]",4,12,"[4, 5, 8, 9, 15, 18, 20, 22, 23, 25, 28, 29]",123.4840291,46350,3741,5,15,7,1.0264985578353567
undo,24,1,0,0,0,28,"[0, 14, 17, 1, 28]",5,5,"[9, 15, 22, 23, 29]",88.59850198,49992,3642,5,3,7,1.0339861575999345
undo,24,1,0,0,0,15,"[0, 14, 17, 1, 28, 15]",6,3,"[22, 23, 29]",53.37067208,53689,3697,3,0,7,1.055553419196412
undo,24,1,0,0,1,22,"[0, 14, 17, 1, 28, 15, 22]",7,0,[],10.09250206,54577,888,1,0,7,1.0469795997475408
undo,24,1,0,1,1,22,"[0, 14, 17, 1, 28, 15, 22]",7,0,[],10.09250206,55701,1124,1,0,7,1.0469795997475408
undo,25,42,0,0,0,0,[0],1,29,"[1, 2, 3, 4, 5, 6, 7, 8, 9, 10, 11, 12, 13, 14, 15, 16, 17, 18, 19, 20, 21, 22, 23, 24, 25, 26, 27, 28, 29]",300,156,-1,16,302,9,0.0
undo,25,42,0,0,0,22,"[0, 22]",2,27,"[1, 2, 3, 4, 5, 6, 7, 8, 9, 10, 11, 12, 13, 15, 16, 17, 18, 19, 20, 21, 23, 24, 25, 26, 27, 28, 29]",211.3997743,12117,11961,5,83,9,1.0
undo,25,42,0,0,0,4,"[0, 22, 4]",3,26,"[1, 2, 3, 5, 6, 7, 8, 9, 10, 11, 12, 13, 15, 16, 17, 18, 19, 20, 21, 23, 24, 25, 26, 27, 28, 29]",200.2194344,13036,919,4,51,9,1.1029012260448476
undo,25,42,0,0,0,5,"[0, 22, 4, 5]",4,24,"[1, 2, 3, 6, 7, 8, 9, 10, 11, 12, 13, 15, 17, 18, 19, 20, 21, 23, 24, 25, 26, 27, 28, 29]",180.3700011,13884,848,3,22,9,1.1004909640339868
undo,25,42,0,0,0,8,"[0, 22, 4, 5, 8]",5,16,"[1, 2, 3, 6, 7, 11, 15, 18, 19, 23, 24, 25, 26, 27, 28, 29]",145.8881218,14923,1039,3,12,9,1.4333663223483832
undo,25,42,0,0,0,1,"[0, 22, 4, 5, 8, 1]",6,6,"[2, 7, 18, 19, 26, 27]",96.796371,15850,927,3,7,9,1.3048950637395882
undo,25,42,0,0,0,7,"[0, 22, 4, 5, 8, 1, 7]",7,4,"[2, 19, 26, 27]",66.796371,16904,1054,3,2,9,1.3461774355793397
undo,25,42,0,0,0,26,"[0, 22, 4, 5, 8, 1, 7, 26]",8,2,"[19, 27]",40.22571049,17770,866,2,0,9,1.3119913611616163
undo,25,42,0,0,1,27,"[0, 22, 4, 5, 8, 1, 7, 26, 27]",9,0,[],22.19795412,18972,1202,1,0,9,1.3027999653776734
undo,25,42,0,1,1,27,"[0, 22, 4, 5, 8, 1, 7, 26, 27]",9,0,[],22.19795412,20676,1704,1,0,9,1.3027999653776734
undo,26,36,0,0,0,0,[0],1,24,"[2, 4, 5, 6, 7, 8, 9, 10, 12, 13, 14, 15, 16, 17, 18, 19, 20, 22, 23, 25, 26, 27, 28, 29]",300,176,-1,2,200,10,0.0
undo,26,36,0,0,0,12,"[0, 12]",2,23,"[2, 4, 5, 6, 7, 8, 9, 10, 13, 14, 15, 16, 17, 18, 19, 20, 22, 23, 25, 26, 27, 28, 29]",277.7963967,3438,3262,90,804,9,1.0
undo,26,36,1,0,0,0,[0],1,24,"[2, 4, 5, 6, 7, 8, 9, 10, 12, 13, 14, 15, 16, 17, 18, 19, 20, 22, 23, 25, 26, 27, 28, 29]",300,10060,6622,2,200,10,0.0
undo,26,36,0,0,0,18,"[0, 18]",2,21,"[2, 4, 5, 6, 7, 8, 9, 10, 12, 13, 14, 16, 17, 19, 22, 23, 25, 26, 27, 28, 29]",279.6039219,12973,2913,2,110,10,1.0
undo,26,36,0,0,0,12,"[0, 18, 12]",3,19,"[2, 4, 5, 6, 7, 8, 9, 10, 13, 16, 17, 19, 22, 23, 25, 26, 27, 28, 29]",237.0245842,14238,1265,2,86,10,2.836270082716982
undo,26,36,0,0,0,9,"[0, 18, 12, 9]",4,9,"[2, 4, 10, 13, 16, 17, 19, 23, 25]",174.6627369,15843,1605,1,40,10,1.8147676024843966
undo,26,36,0,0,0,17,"[0, 18, 12, 9, 17]",5,6,"[2, 10, 13, 16, 19, 25]",148.4139274,18680,2837,13,24,9,1.603838498643679
undo,26,36,0,0,0,19,"[0, 18, 12, 9, 17, 19]",6,5,"[2, 10, 13, 16, 25]",120.5212761,19639,959,6,4,9,2.328537287686596
undo,26,36,0,0,0,2,"[0, 18, 12, 9, 17, 19, 2]",7,4,"[10, 13, 16, 25]",83.39985368,20554,915,2,2,9,1.918017502065573
undo,26,36,0,0,0,25,"[0, 18, 12, 9, 17, 19, 2, 25]",8,1,[13],58.39985368,21427,873,1,0,9,2.1102260338128023
undo,26,36,0,0,1,13,"[0, 18, 12, 9, 17, 19, 2, 25, 13]",9,0,[],37.8085934,22509,1082,1,0,9,2.6731967068594273
undo,26,36,1,0,0,25,"[0, 18, 12, 9, 17, 19, 2, 25]",8,1,[13],58.39985368,23928,1419,1,0,9,2.1102260338128023
undo,26,36,1,0,0,2,"[0, 18, 12, 9, 17, 19, 2]",7,4,"[10, 13, 16, 25]",83.39985368,24162,234,2,2,9,1.918017502065573
undo,26,36,1,0,0,19,"[0, 18, 12, 9, 17, 19]",6,5,"[2, 10, 13, 16, 25]",120.5212761,24378,216,6,4,9,2.328537287686596
undo,26,36,1,0,0,17,"[0, 18, 12, 9, 17]",5,6,"[2, 10, 13, 16, 19, 25]",148.4139274,24629,251,13,24,9,1.603838498643679
undo,26,36,1,0,0,9,"[0, 18, 12, 9]",4,9,"[2, 4, 10, 13, 16, 17, 19, 23, 25]",174.6627369,27995,3366,1,40,10,1.8147676024843966
undo,26,36,0,0,0,16,"[0, 18, 12, 9, 16]",5,5,"[2, 13, 17, 19, 25]",127.3658026,29555,1560,4,11,9,1.6173640341692257
undo,26,36,0,0,0,17,"[0, 18, 12, 9, 16, 17]",6,4,"[2, 13, 19, 25]",99.04619804,30724,1169,4,5,9,2.126167915720943
undo,26,36,0,0,0,19,"[0, 18, 12, 9, 16, 17, 19]",7,3,"[2, 13, 25]",71.15354668,34088,3364,3,0,9,2.9690287970141402
undo,26,36,0,0,0,2,"[0, 18, 12, 9, 16, 17, 19, 2]",8,1,[25],34.0321243,36496,2408,1,0,9,2.355174034952613
undo,26,36,0,0,1,25,"[0, 18, 12, 9, 16, 17, 19, 2, 25]",9,0,[],9.032124296,37275,779,1,0,9,2.541422245252009
undo,26,36,0,1,1,25,"[0, 18, 12, 9, 16, 17, 19, 2, 25]",9,0,[],9.032124296,38280,1005,1,0,9,2.541422245252009
undo,27,40,0,0,0,0,[0],1,29,"[1, 2, 3, 4, 5, 6, 7, 8, 9, 10, 11, 12, 13, 14, 15, 16, 17, 18, 19, 20, 21, 22, 23, 24, 25, 26, 27, 28, 29]",300,208,-1,8,191,9,0.0
undo,27,40,0,0,0,1,"[0, 1]",2,18,"[2, 5, 6, 7, 8, 9, 10, 11, 13, 15, 17, 18, 19, 21, 22, 23, 27, 29]",247.8463808,5076,4868,4,80,9,1.0
undo,27,40,0,0,0,6,"[0, 1, 6]",3,17,"[2, 5, 7, 8, 9, 10, 11, 13, 15, 17, 18, 19, 21, 22, 23, 27, 29]",227.7466295,6420,1344,4,74,9,1.0459427008232034
undo,27,40,0,0,0,9,"[0, 1, 6, 9]",4,10,"[2, 5, 8, 11, 18, 19, 21, 22, 23, 27]",159.146338,7955,1535,17,39,8,1.142098432552584
undo,27,40,0,0,0,18,"[0, 1, 6, 9, 18]",5,9,"[2, 5, 8, 11, 19, 21, 22, 23, 27]",142.5933926,9339,1384,13,14,8,1.3288108654802917
undo,27,40,0,0,0,23,"[0, 1, 6, 9, 18, 23]",6,6,"[2, 5, 8, 19, 21, 22]",108.5933926,17175,7836,6,4,8,2.0180513009829646
undo,27,40,0,0,0,19,"[0, 1, 6, 9, 18, 23, 19]",7,4,"[2, 5, 8, 22]",76.640302,18858,1683,4,0,8,2.1771771191471494
undo,27,40,0,0,1,8,"[0, 1, 6, 9, 18, 23, 19, 8]",8,0,[],2.579516152,19862,1004,1,0,8,1.8473678327361283
undo,27,40,0,1,1,8,"[0, 1, 6, 9, 18, 23, 19, 8]",8,0,[],2.579516152,20964,1102,1,0,8,1.8473678327361283
undo,28,17,0,0,0,0,[0],1,28,"[1, 2, 3, 4, 5, 6, 7, 8, 9, 10, 11, 12, 13, 14, 15, 16, 17, 18, 19, 20, 22, 23, 24, 25, 26, 27, 28, 29]",300,174,-1,2,73,8,0.0
undo,28,17,0,0,0,9,"[0, 9]",2,25,"[1, 2, 3, 5, 6, 7, 8, 10, 11, 12, 14, 15, 16, 17, 18, 19, 20, 22, 23, 24, 25, 26, 27, 28, 29]",210.5293344,4785,4611,1,34,8,1.0
undo,28,17,0,0,0,16,"[0, 9, 16]",3,21,"[1, 2, 3, 5, 7, 8, 10, 11, 12, 14, 17, 18, 19, 20, 22, 23, 25, 26, 27, 28, 29]",197.1876704,6141,1356,1,26,8,1.173103464220352
undo,28,17,0,0,0,2,"[0, 9, 16, 2]",4,18,"[1, 3, 5, 7, 8, 10, 11, 12, 14, 17, 18, 19, 23, 25, 26, 27, 28, 29]",181.0631549,7456,1315,1,23,8,1.14825089247282
undo,28,17,0,0,0,8,"[0, 9, 16, 2, 8]",5,9,"[3, 7, 10, 11, 12, 14, 17, 26, 27]",145.9490551,9040,1584,1,9,8,1.1509808066472915
undo,28,17,0,0,0,7,"[0, 9, 16, 2, 8, 7]",6,3,"[10, 12, 27]",75.238377,10387,1347,3,0,7,1.2222166608088694
undo,28,17,0,0,1,27,"[0, 9, 16, 2, 8, 7, 27]",7,0,[],21.63800387,11371,984,1,0,7,1.2961096752539074
undo,28,17,1,0,0,7,"[0, 9, 16, 2, 8, 7]",6,3,"[10, 12, 27]",75.238377,21114,9743,3,0,7,1.2222166608088694
undo,28,17,1,0,0,8,"[0, 9, 16, 2, 8]",5,9,"[3, 7, 10, 11, 12, 14, 17, 26, 27]",145.9490551,21779,665,1,9,8,1.1509808066472915
undo,28,17,1,0,0,2,"[0, 9, 16, 2]",4,18,"[1, 3, 5, 7, 8, 10, 11, 12, 14, 17, 18, 19, 23, 25, 26, 27, 28, 29]",181.0631549,22063,284,1,23,8,1.14825089247282
undo,28,17,1,0,0,16,"[0, 9, 16]",3,21,"[1, 2, 3, 5, 7, 8, 10, 11, 12, 14, 17, 18, 19, 20, 22, 23, 25, 26, 27, 28, 29]",197.1876704,22362,299,1,26,8,1.173103464220352
undo,28,17,1,0,0,9,"[0, 9]",2,25,"[1, 2, 3, 5, 6, 7, 8, 10, 11, 12, 14, 15, 16, 17, 18, 19, 20, 22, 23, 24, 25, 26, 27, 28, 29]",210.5293344,23296,934,1,34,8,1.0
undo,28,17,0,0,0,2,"[0, 9, 2]",3,20,"[1, 3, 5, 7, 8, 10, 11, 12, 14, 16, 17, 18, 19, 20, 23, 25, 26, 27, 28, 29]",188.574836,25538,2242,8,56,7,1.0757309385443783
undo,28,17,0,0,0,8,"[0, 9, 2, 8]",4,13,"[3, 7, 10, 11, 12, 14, 16, 17, 23, 25, 26, 27, 29]",153.4607363,27990,2452,2,15,7,1.0948578085542542
undo,28,17,0,0,0,27,"[0, 9, 2, 8, 27]",5,3,"[7, 12, 26]",70.82297252,29856,1866,1,2,7,1.0670945272429944
undo,28,17,0,0,0,12,"[0, 9, 2, 8, 27, 12]",6,1,[26],47.82297252,30710,854,1,0,7,1.0626673394284298
undo,28,17,0,0,1,26,"[0, 9, 2, 8, 27, 12, 26]",7,0,[],12.70887279,31672,962,1,0,7,1.1712128172986398
undo,28,17,0,1,1,26,"[0, 9, 2, 8, 27, 12, 26]",7,0,[],12.70887279,33014,1342,1,0,7,1.1712128172986398
undo,29,26,0,0,0,0,[0],1,29,"[1, 2, 3, 4, 5, 6, 7, 8, 9, 10, 11, 12, 13, 14, 15, 16, 17, 18, 19, 20, 21, 22, 23, 24, 25, 26, 27, 28, 29]",300,166,-1,9,226,9,0.0
undo,29,26,0,0,0,12,"[0, 12]",2,26,"[1, 2, 3, 4, 5, 6, 8, 10, 11, 13, 14, 15, 16, 17, 18, 19, 20, 21, 22, 23, 24, 25, 26, 27, 28, 29]",279.8753882,9258,9092,2,80,9,1.0
undo,29,26,0,0,0,16,"[0, 12, 16]",3,12,"[4, 5, 6, 10, 11, 13, 14, 17, 21, 23, 26, 29]",152.8281529,10564,1306,1,35,9,1.3146633244997343
undo,29,26,0,0,0,29,"[0, 12, 16, 29]",4,9,"[4, 5, 6, 10, 13, 14, 17, 21, 23]",128.620716,11977,1413,1,28,9,1.4025825138871748
undo,29,26,0,0,0,14,"[0, 12, 16, 29, 14]",5,4,"[4, 6, 10, 17]",87.38965976,13247,1270,7,4,8,1.3193147189238292
undo,29,26,0,0,0,6,"[0, 12, 16, 29, 14, 6]",6,3,"[4, 10, 17]",66.36586372,15196,1949,3,1,8,1.454655367217292
undo,29,26,1,0,0,14,"[0, 12, 16, 29, 14]",5,4,"[4, 6, 10, 17]",87.38965976,18034,2838,7,4,8,1.3193147189238292
undo,29,26,1,0,0,29,"[0, 12, 16, 29]",4,9,"[4, 5, 6, 10, 13, 14, 17, 21, 23]",128.620716,18435,401,1,28,9,1.4025825138871748
undo,29,26,1,0,0,16,"[0, 12, 16]",3,12,"[4, 5, 6, 10, 11, 13, 14, 17, 21, 23, 26, 29]",152.8281529,18717,282,1,35,9,1.3146633244997343
undo,29,26,1,0,0,12,"[0, 12]",2,26,"[1, 2, 3, 4, 5, 6, 8, 10, 11, 13, 14, 15, 16, 17, 18, 19, 20, 21, 22, 23, 24, 25, 26, 27, 28, 29]",279.8753882,19034,317,2,80,9,1.0
undo,29,26,1,0,0,0,[0],1,29,"[1, 2, 3, 4, 5, 6, 7, 8, 9, 10, 11, 12, 13, 14, 15, 16, 17, 18, 19, 20, 21, 22, 23, 24, 25, 26, 27, 28, 29]",300,19635,601,9,226,9,0.0
undo,29,26,0,0,0,4,"[0, 4]",2,13,"[5, 6, 10, 12, 13, 14, 16, 17, 19, 21, 23, 26, 29]",178.7976898,21258,1623,4,118,8,1.0
undo,29,26,0,0,0,6,"[0, 4, 6]",3,7,"[10, 14, 16, 17, 21, 23, 29]",139.1744643,26431,5173,12,32,7,1.0013336767330427
undo,29,26,0,0,0,14,"[0, 4, 6, 14]",4,5,"[10, 16, 17, 23, 29]",118.1506682,27362,931,4,7,7,1.1284328871275937
undo,29,26,0,0,0,17,"[0, 4, 6, 14, 17]",5,3,"[10, 16, 29]",95.67846318,28332,970,2,1,7,1.4379929024589257
undo,29,26,0,0,0,29,"[0, 4, 6, 14, 17, 29]",6,1,[16],65.26465053,29196,864,1,0,7,1.9210938969602482
undo,29,26,0,0,1,16,"[0, 4, 6, 14, 17, 29, 16]",7,0,[],41.05721366,29959,763,1,0,7,2.3130958199747207
undo,29,26,1,0,0,29,"[0, 4, 6, 14, 17, 29]",6,1,[16],65.26465053,30986,1027,1,0,7,1.9210938969602482
undo,29,26,1,0,0,17,"[0, 4, 6, 14, 17]",5,3,"[10, 16, 29]",95.67846318,31220,234,2,1,7,1.4379929024589257
undo,29,26,1,0,0,14,"[0, 4, 6, 14]",4,5,"[10, 16, 17, 23, 29]",118.1506682,31402,182,4,7,7,1.1284328871275937
undo,29,26,1,0,0,6,"[0, 4, 6]",3,7,"[10, 14, 16, 17, 21, 23, 29]",139.1744643,31752,350,12,32,7,1.0013336767330427
undo,29,26,1,0,0,4,"[0, 4]",2,13,"[5, 6, 10, 12, 13, 14, 16, 17, 19, 21, 23, 26, 29]",178.7976898,32070,318,4,118,8,1.0
undo,29,26,1,0,0,0,[0],1,29,"[1, 2, 3, 4, 5, 6, 7, 8, 9, 10, 11, 12, 13, 14, 15, 16, 17, 18, 19, 20, 21, 22, 23, 24, 25, 26, 27, 28, 29]",300,32419,349,9,226,9,0.0
undo,29,26,0,0,0,12,"[0, 12]",2,26,"[1, 2, 3, 4, 5, 6, 8, 10, 11, 13, 14, 15, 16, 17, 18, 19, 20, 21, 22, 23, 24, 25, 26, 27, 28, 29]",279.8753882,36961,4542,2,80,9,1.0
undo,29,26,0,0,0,10,"[0, 12, 10]",3,6,"[4, 6, 14, 16, 17, 29]",112.9921955,38181,1220,10,32,7,1.1556689432007743
undo,29,26,0,0,0,6,"[0, 12, 10, 6]",4,5,"[4, 14, 16, 17, 29]",83.71763318,39319,1138,7,10,7,1.346619593945461
undo,29,26,0,0,0,14,"[0, 12, 10, 6, 14]",5,4,"[4, 16, 17, 29]",62.69383714,40110,791,2,3,7,1.472560145471377
undo,29,26,0,0,0,17,"[0, 12, 10, 6, 14, 17]",6,2,"[4, 29]",40.22163209,41000,890,2,0,7,1.8282920884450673
undo,29,26,0,0,1,4,"[0, 12, 10, 6, 14, 17, 4]",7,0,[],19.12660898,41649,649,1,0,7,2.3173930475058775
undo,29,26,1,0,0,17,"[0, 12, 10, 6, 14, 17]",6,2,"[4, 29]",40.22163209,42636,987,2,0,7,1.8282920884450673
undo,29,26,1,0,0,14,"[0, 12, 10, 6, 14]",5,4,"[4, 16, 17, 29]",62.69383714,42836,200,2,3,7,1.472560145471377
undo,29,26,1,0,0,6,"[0, 12, 10, 6]",4,5,"[4, 14, 16, 17, 29]",83.71763318,43086,250,7,10,7,1.346619593945461
undo,29,26,1,0,0,10,"[0, 12, 10]",3,6,"[4, 6, 14, 16, 17, 29]",112.9921955,43570,484,10,32,7,1.1556689432007743
undo,29,26,1,0,0,12,"[0, 12]",2,26,"[1, 2, 3, 4, 5, 6, 8, 10, 11, 13, 14, 15, 16, 17, 18, 19, 20, 21, 22, 23, 24, 25, 26, 27, 28, 29]",279.8753882,45338,1768,2,80,9,1.0
undo,29,26,0,0,0,4,"[0, 12, 4]",3,11,"[5, 6, 10, 13, 14, 16, 17, 19, 21, 23, 29]",149.4108336,47248,1910,16,95,8,1.242461188572386
undo,29,26,0,0,0,6,"[0, 12, 4, 6]",4,5,"[10, 14, 16, 17, 29]",109.7876081,48431,1183,2,14,8,1.1843024362543033
undo,29,26,0,0,0,14,"[0, 12, 4, 6, 14]",5,4,"[10, 16, 17, 29]",88.76381208,49333,902,1,5,8,1.3107876671361656
undo,29,26,0,0,0,17,"[0, 12, 4, 6, 14, 17]",6,3,"[10, 16, 29]",66.29160702,50184,851,1,2,8,1.6448144213323337
undo,29,26,0,0,0,29,"[0, 12, 4, 6, 14, 17, 29]",7,1,[16],35.87779437,50965,781,1,0,8,2.161598406175805
undo,29,26,0,0,1,16,"[0, 12, 4, 6, 14, 17, 29, 16]",8,0,[],11.6703575,53013,2048,1,0,8,2.5756040562792517
undo,29,26,0,1,1,16,"[0, 12, 4, 6, 14, 17, 29, 16]",8,0,[],11.6703575,54071,1058,1,0,8,2.5756040562792517
undo,30,41,0,0,0,0,[0],1,29,"[1, 2, 3, 4, 5, 6, 7, 8, 9, 10, 11, 12, 13, 14, 15, 16, 17, 18, 19, 20, 21, 22, 23, 24, 25, 26, 27, 28, 29]",300,155,-1,1,143,10,0.0
undo,30,41,0,0,0,28,"[0, 28]",2,27,"[1, 2, 3, 5, 6, 7, 8, 9, 10, 11, 12, 13, 14, 15, 16, 17, 18, 19, 20, 21, 22, 23, 24, 25, 26, 27, 29]",259.8004975,4471,4316,37,249,9,1.0
undo,30,41,0,0,0,5,"[0, 28, 5]",3,26,"[1, 2, 3, 6, 7, 8, 9, 10, 11, 12, 13, 14, 15, 16, 17, 18, 19, 20, 21, 22, 23, 24, 25, 26, 27, 29]",246.199027,5549,1078,30,182,9,1.714241539747437
undo,30,41,0,0,0,3,"[0, 28, 5, 3]",4,25,"[1, 2, 6, 7, 8, 9, 10, 11, 12, 13, 14, 15, 16, 17, 18, 19, 20, 21, 22, 23, 24, 25, 26, 27, 29]",211.3708775,6865,1316,20,93,9,2.2367972660995847
undo,30,41,0,0,0,21,"[0, 28, 5, 3, 21]",5,19,"[1, 2, 6, 9, 10, 11, 12, 13, 14, 15, 17, 18, 19, 20, 22, 24, 25, 26, 27]",179.2305601,7968,1103,12,46,9,2.470864770481327
undo,30,41,0,0,0,9,"[0, 28, 5, 3, 21, 9]",6,13,"[1, 2, 10, 12, 13, 14, 15, 17, 19, 22, 24, 25, 26]",129.8645799,9148,1180,3,17,9,2.0674559404382
undo,30,41,0,0,0,2,"[0, 28, 5, 3, 21, 9, 2]",7,9,"[1, 10, 12, 14, 15, 17, 19, 22, 24]",117.7815339,10168,1020,2,7,9,2.0139863201149533
undo,30,41,0,0,0,17,"[0, 28, 5, 3, 21, 9, 2, 17]",8,1,[10],85.22389276,18549,8381,1,0,9,3.388293326704014
undo,30,41,0,0,1,10,"[0, 28, 5, 3, 21, 9, 2, 17, 10]",9,0,[],35.97960375,19497,948,1,0,9,3.1208433501016275
undo,30,41,0,1,1,10,"[0, 28, 5, 3, 21, 9, 2, 17, 10]",9,0,[],35.97960375,23223,3726,1,0,9,3.1208433501016275
undo,31,43,0,0,0,0,[0],1,23,"[1, 2, 3, 4, 5, 6, 7, 9, 10, 11, 12, 14, 15, 16, 17, 19, 20, 21, 22, 23, 25, 27, 29]",300,185,-1,16,556,12,0.0
undo,31,43,0,0,0,29,"[0, 29]",2,22,"[1, 2, 3, 4, 5, 6, 7, 9, 10, 11, 12, 14, 15, 16, 17, 19, 20, 21, 22, 23, 25, 27]",277.909278,2053,1868,16,520,12,1.0
undo,31,43,0,0,0,20,"[0, 29, 20]",3,20,"[1, 2, 3, 4, 6, 7, 9, 10, 11, 12, 14, 15, 16, 17, 19, 21, 22, 23, 25, 27]",254.4785289,3436,1383,15,422,12,1.082311746871282
undo,31,43,0,0,0,16,"[0, 29, 20, 16]",4,19,"[1, 2, 3, 4, 6, 7, 9, 10, 11, 12, 14, 15, 17, 19, 21, 22, 23, 25, 27]",231.8511119,4807,1371,15,389,12,1.215201926898219
undo,31,43,0,0,0,15,"[0, 29, 20, 16, 15]",5,14,"[1, 2, 3, 4, 6, 7, 9, 11, 12, 14, 19, 22, 23, 25]",188.5267539,6154,1347,3,109,12,1.3482474915350444
undo,31,43,0,0,0,12,"[0, 29, 20, 16, 15, 12]",6,13,"[1, 2, 3, 4, 6, 7, 9, 11, 14, 19, 22, 23, 25]",169.213546,7136,982,1,49,12,1.3229664037236823
undo,31,43,0,0,0,3,"[0, 29, 20, 16, 15, 12, 3]",7,11,"[1, 4, 6, 7, 9, 11, 14, 19, 22, 23, 25]",156.213546,8192,1056,1,35,12,1.2907201281243643
undo,31,43,0,0,0,22,"[0, 29, 20, 16, 15, 12, 3, 22]",8,9,"[1, 4, 6, 7, 11, 14, 19, 23, 25]",121.5004361,9216,1024,1,18,12,1.4966181986440266
undo,31,43,0,0,0,11,"[0, 29, 20, 16, 15, 12, 3, 22, 11]",9,5,"[1, 6, 14, 19, 25]",75.43526484,15909,6693,3,3,11,2.4677443424175824
undo,31,43,0,0,0,6,"[0, 29, 20, 16, 15, 12, 3, 22, 11, 6]",10,2,"[1, 14]",54.81973671,17092,1183,2,0,11,2.2230401236218453
undo,31,43,0,0,1,1,"[0, 29, 20, 16, 15, 12, 3, 22, 11, 6, 1]",11,0,[],6.549663166,18143,1051,1,0,11,2.0385378413566877
undo,31,43,0,1,1,1,"[0, 29, 20, 16, 15, 12, 3, 22, 11, 6, 1]",11,0,[],6.549663166,19362,1219,1,0,11,2.0385378413566877
undo,32,4,0,0,0,0,[0],1,26,"[3, 4, 5, 6, 7, 8, 10, 11, 12, 13, 14, 15, 16, 17, 18, 19, 20, 21, 22, 23, 24, 25, 26, 27, 28, 29]",300,188,-1,4,489,10,0.0
undo,32,4,0,0,0,28,"[0, 28]",2,21,"[3, 4, 5, 6, 10, 11, 12, 13, 14, 15, 16, 17, 19, 20, 21, 22, 23, 24, 25, 26, 27]",225.9392142,4440,4252,2,216,10,1.0
undo,32,4,0,0,0,14,"[0, 28, 14]",3,13,"[3, 4, 5, 6, 11, 13, 16, 17, 20, 21, 22, 24, 25]",159.6972335,6672,2232,1,26,10,1.0273973946789214
undo,32,4,0,0,0,25,"[0, 28, 14, 25]",4,12,"[3, 4, 5, 6, 11, 13, 16, 17, 20, 21, 22, 24]",143.572718,8260,1588,1,25,10,1.233547772313525
undo,32,4,0,0,0,11,"[0, 28, 14, 25, 11]",5,10,"[3, 4, 5, 6, 13, 16, 17, 20, 21, 22]",124.7844238,9495,1235,1,15,10,1.425978575879479
undo,32,4,0,0,0,16,"[0, 28, 14, 25, 11, 16]",6,9,"[3, 4, 5, 6, 13, 17, 20, 21, 22]",109.7844238,10457,962,1,12,10,1.3799325158051412
undo,32,4,0,0,0,17,"[0, 28, 14, 25, 11, 16, 17]",7,5,"[3, 5, 20, 21, 22]",83.70761416,11543,1086,1,5,10,1.3195184878861832
undo,32,4,0,0,0,20,"[0, 28, 14, 25, 11, 16, 17, 20]",8,3,"[5, 21, 22]",43.48324344,16005,4462,1,2,10,1.4038284317031835
undo,32,4,0,0,0,22,"[0, 28, 14, 25, 11, 16, 17, 20, 22]",9,1,[21],13.25081052,17336,1331,1,0,10,1.807318570651008
undo,32,4,0,0,1,21,"[0, 28, 14, 25, 11, 16, 17, 20, 22, 21]",10,0,[],2.205449508,18107,771,1,0,10,2.0148407301566107
undo,32,4,0,1,1,21,"[0, 28, 14, 25, 11, 16, 17, 20, 22, 21]",10,0,[],2.205449508,19514,1407,1,0,10,2.0148407301566107
undo,33,35,0,0,0,0,[0],1,29,"[1, 2, 3, 4, 5, 6, 7, 8, 9, 10, 11, 12, 13, 14, 15, 16, 17, 18, 19, 20, 21, 22, 23, 24, 25, 26, 27, 28, 29]",300,174,-1,5,236,11,0.0
undo,33,35,0,0,0,27,"[0, 27]",2,27,"[1, 2, 4, 5, 6, 7, 8, 9, 10, 11, 12, 13, 14, 15, 16, 17, 18, 19, 20, 21, 22, 23, 24, 25, 26, 28, 29]",278.7867966,4153,3979,5,144,11,1.0
undo,33,35,0,0,0,28,"[0, 27, 28]",3,18,"[1, 2, 5, 6, 7, 9, 10, 13, 15, 16, 17, 18, 19, 21, 23, 24, 25, 26]",240.707931,5240,1087,4,100,10,1.0168505943672008
undo,33,35,0,0,0,19,"[0, 27, 28, 19]",4,14,"[1, 2, 5, 6, 9, 10, 15, 17, 18, 21, 23, 24, 25, 26]",191.7896318,6334,1094,11,75,9,1.3148564374305836
undo,33,35,0,0,0,17,"[0, 27, 28, 19, 17]",5,11,"[1, 2, 5, 6, 9, 15, 18, 23, 24, 25, 26]",126.3985009,7405,1071,8,27,9,4.3771266188983615
undo,33,35,0,0,0,24,"[0, 27, 28, 19, 17, 24]",6,8,"[1, 2, 5, 9, 15, 18, 23, 26]",114.693801,8321,916,6,9,9,5.9745116440121
undo,33,35,0,0,0,1,"[0, 27, 28, 19, 17, 24, 1]",7,5,"[5, 9, 15, 18, 23]",97.57655822,10520,2199,5,2,9,4.234651770309059
undo,33,35,0,0,0,15,"[0, 27, 28, 19, 17, 24, 1, 15]",8,2,"[5, 23]",74.72923891,14974,4454,2,0,9,4.053179824399363
undo,33,35,0,0,1,23,"[0, 27, 28, 19, 17, 24, 1, 15, 23]",9,0,[],14.28918596,17035,2061,1,0,9,2.6872656707433396
undo,33,35,0,1,1,23,"[0, 27, 28, 19, 17, 24, 1, 15, 23]",9,0,[],14.28918596,28713,11678,1,0,9,2.6872656707433396
undo,34,22,0,0,0,0,[0],1,29,"[1, 2, 3, 4, 5, 6, 7, 8, 9, 10, 11, 12, 13, 14, 15, 16, 17, 18, 19, 20, 21, 22, 23, 24, 25, 26, 27, 28, 29]",300,162,-1,31,704,9,0.0
undo,34,22,0,0,0,29,"[0, 29]",2,22,"[1, 3, 5, 6, 7, 8, 9, 11, 13, 14, 15, 16, 17, 19, 20, 21, 22, 23, 24, 25, 27, 28]",222.9935068,5165,5003,11,235,9,1.0
undo,34,22,0,0,0,19,"[0, 29, 19]",3,18,"[1, 3, 6, 7, 8, 9, 13, 14, 15, 16, 17, 20, 21, 22, 23, 24, 25, 28]",207.9602104,6512,1347,11,172,9,1.1559285443414686
undo,34,22,0,0,0,9,"[0, 29, 19, 9]",4,16,"[1, 3, 6, 7, 8, 13, 14, 15, 16, 17, 20, 21, 22, 24, 25, 28]",187.5641323,7497,985,7,84,9,1.2555028175473422
undo,34,22,0,0,0,14,"[0, 29, 19, 9, 14]",5,11,"[1, 3, 6, 7, 13, 16, 17, 20, 21, 24, 28]",144.5176458,8662,1165,4,28,9,1.200251311198461
undo,34,22,0,0,0,7,"[0, 29, 19, 9, 14, 7]",6,10,"[1, 3, 6, 13, 16, 17, 20, 21, 24, 28]",131.479241,9715,1053,4,18,9,1.3399585036197592
undo,34,22,0,0,0,17,"[0, 29, 19, 9, 14, 7, 17]",7,5,"[1, 3, 20, 21, 24]",89.86193693,10931,1216,3,3,9,1.3297480627305363
undo,34,22,0,0,0,21,"[0, 29, 19, 9, 14, 7, 17, 21]",8,2,"[3, 24]",38.51020862,12805,1874,2,0,9,1.621067475944888
undo,34,22,0,0,1,3,"[0, 29, 19, 9, 14, 7, 17, 21, 3]",9,0,[],13.49021662,13579,774,1,0,9,1.6812263795812836
undo,34,22,0,1,1,3,"[0, 29, 19, 9, 14, 7, 17, 21, 3]",9,0,[],13.49021662,14972,1393,1,0,9,1.6812263795812836
undo,35,19,0,0,0,0,[0],1,29,"[1, 2, 3, 4, 5, 6, 7, 8, 9, 10, 11, 12, 13, 14, 15, 16, 17, 18, 19, 20, 21, 22, 23, 24, 25, 26, 27, 28, 29]",300,157,-1,12,149,8,0.0
undo,35,19,0,0,0,29,"[0, 29]",2,28,"[1, 2, 3, 4, 5, 6, 7, 8, 9, 10, 11, 12, 13, 14, 15, 16, 17, 18, 19, 20, 21, 22, 23, 24, 25, 26, 27, 28]",265.0715016,4601,4444,12,120,8,1.0
undo,35,19,0,0,0,9,"[0, 29, 9]",3,17,"[1, 4, 5, 6, 7, 10, 11, 12, 13, 14, 19, 20, 21, 22, 24, 27, 28]",181.7108394,6041,1440,11,65,8,1.0375842971861238
undo,35,19,0,0,0,6,"[0, 29, 9, 6]",4,12,"[4, 7, 10, 11, 13, 14, 20, 21, 22, 24, 27, 28]",140.2741407,8702,2661,11,34,8,1.0389786364356892
undo,35,19,0,0,0,28,"[0, 29, 9, 6, 28]",5,5,"[4, 11, 14, 22, 27]",89.18598161,10100,1398,2,4,8,1.2864082671854424
undo,35,19,0,0,0,4,"[0, 29, 9, 6, 28, 4]",6,4,"[11, 14, 22, 27]",78.00564173,11585,1485,2,2,8,1.3470045407445053
undo,35,19,0,0,0,14,"[0, 29, 9, 6, 28, 4, 14]",7,1,[11],27.99564273,12803,1218,1,0,8,1.3006971582050546
undo,35,19,0,0,1,11,"[0, 29, 9, 6, 28, 4, 14, 11]",8,0,[],17.1789889,13700,897,1,0,8,1.289914895833058
undo,35,19,0,1,1,11,"[0, 29, 9, 6, 28, 4, 14, 11]",8,0,[],17.1789889,17075,3375,1,0,8,1.289914895833058
undo,36,28,0,0,0,0,[0],1,27,"[1, 2, 3, 4, 5, 6, 7, 8, 9, 10, 11, 12, 13, 14, 15, 16, 17, 18, 19, 20, 22, 23, 25, 26, 27, 28, 29]",300,166,-1,2,96,9,0.0
undo,36,28,0,0,0,3,"[0, 3]",2,26,"[1, 2, 4, 5, 6, 7, 8, 9, 10, 11, 12, 13, 14, 15, 16, 17, 18, 19, 20, 22, 23, 25, 26, 27, 28, 29]",251.0817008,6189,6023,1,64,9,1.0
undo,36,28,0,0,0,14,"[0, 3, 14]",3,13,"[1, 2, 5, 7, 10, 11, 12, 13, 17, 18, 19, 20, 26]",142.7396498,7488,1299,19,59,8,1.0338694802207566
undo,36,28,0,0,0,18,"[0, 3, 14, 18]",4,10,"[1, 2, 5, 7, 11, 12, 13, 17, 19, 26]",117.2445523,8604,1116,18,18,8,1.098527225277385
undo,36,28,0,0,0,13,"[0, 3, 14, 18, 13]",5,7,"[2, 7, 11, 12, 17, 19, 26]",92.83144103,10055,1451,8,6,8,1.0872780601597938
undo,36,28,0,0,0,12,"[0, 3, 14, 18, 13, 12]",6,3,"[2, 7, 19]",75.6267905,11085,1030,3,1,8,1.0890748557820906
undo,36,28,0,0,0,7,"[0, 3, 14, 18, 13, 12, 7]",7,2,"[2, 19]",62.47384406,12872,1787,2,0,8,1.2125627495730145
undo,36,28,0,0,1,19,"[0, 3, 14, 18, 13, 12, 7, 19]",8,0,[],34.74299481,14222,1350,1,0,8,1.4527925513951803
undo,36,28,1,0,0,7,"[0, 3, 14, 18, 13, 12, 7]",7,2,"[2, 19]",62.47384406,17695,3473,2,0,8,1.2125627495730145
undo,36,28,1,0,0,12,"[0, 3, 14, 18, 13, 12]",6,3,"[2, 7, 19]",75.6267905,17860,165,3,1,8,1.0890748557820906
undo,36,28,1,0,0,13,"[0, 3, 14, 18, 13]",5,7,"[2, 7, 11, 12, 17, 19, 26]",92.83144103,18044,184,8,6,8,1.0872780601597938
undo,36,28,1,0,0,18,"[0, 3, 14, 18]",4,10,"[1, 2, 5, 7, 11, 12, 13, 17, 19, 26]",117.2445523,18228,184,18,18,8,1.098527225277385
undo,36,28,1,0,0,14,"[0, 3, 14]",3,13,"[1, 2, 5, 7, 10, 11, 12, 13, 17, 18, 19, 20, 26]",142.7396498,18478,250,19,59,8,1.0338694802207566
undo,36,28,1,0,0,3,"[0, 3]",2,26,"[1, 2, 4, 5, 6, 7, 8, 9, 10, 11, 12, 13, 14, 15, 16, 17, 18, 19, 20, 22, 23, 25, 26, 27, 28, 29]",251.0817008,18845,367,1,64,9,1.0
undo,36,28,1,0,0,0,[0],1,27,"[1, 2, 3, 4, 5, 6, 7, 8, 9, 10, 11, 12, 13, 14, 15, 16, 17, 18, 19, 20, 22, 23, 25, 26, 27, 28, 29]",300,19495,650,2,96,9,0.0
undo,36,28,0,0,0,20,"[0, 20]",2,22,"[2, 3, 4, 5, 6, 7, 8, 9, 10, 11, 12, 13, 14, 15, 16, 18, 19, 22, 23, 26, 28, 29]",245.9629757,21543,2048,1,24,9,1.0
undo,36,28,0,0,0,3,"[0, 20, 3]",3,19,"[2, 4, 5, 6, 7, 8, 9, 10, 11, 12, 13, 14, 15, 16, 18, 19, 23, 26, 28]",204.6229224,23056,1513,9,50,8,1.9497218646689283
undo,36,28,0,0,0,14,"[0, 20, 3, 14]",4,8,"[5, 7, 11, 12, 13, 18, 19, 26]",96.28087151,25491,2435,6,10,8,1.3393012874200112
undo,36,28,0,0,0,18,"[0, 20, 3, 14, 18]",5,5,"[7, 12, 13, 19, 26]",70.78577394,26558,1067,6,4,8,1.3777869328477208
undo,36,28,0,0,0,13,"[0, 20, 3, 14, 18, 13]",6,3,"[7, 12, 19]",46.37266271,27468,910,3,1,8,1.3311066151311992
undo,36,28,0,0,0,12,"[0, 20, 3, 14, 18, 13, 12]",7,1,[7],29.16801217,28478,1010,1,0,8,1.3145789942766504
undo,36,28,0,0,1,7,"[0, 20, 3, 14, 18, 13, 12, 7]",8,0,[],16.01506574,29371,893,1,0,8,1.4497331940596947
undo,36,28,0,1,1,7,"[0, 20, 3, 14, 18, 13, 12, 7]",8,0,[],16.01506574,30247,876,1,0,8,1.4497331940596947
undo,37,5,0,0,0,0,[0],1,29,"[1, 2, 3, 4, 5, 6, 7, 8, 9, 10, 11, 12, 13, 14, 15, 16, 17, 18, 19, 20, 21, 22, 23, 24, 25, 26, 27, 28, 29]",300,174,-1,5,139,9,0.0
undo,37,5,0,0,0,23,"[0, 23]",2,27,"[1, 2, 3, 4, 5, 6, 7, 8, 9, 10, 11, 12, 13, 14, 15, 16, 17, 18, 19, 20, 21, 22, 24, 25, 26, 27, 28]",249.8402552,4700,4526,3,75,9,1.0
undo,37,5,0,0,0,25,"[0, 23, 25]",3,23,"[1, 2, 3, 4, 5, 6, 8, 9, 10, 12, 13, 14, 15, 16, 17, 18, 19, 21, 22, 24, 26, 27, 28]",231.4011663,5681,981,3,43,9,1.0923159590575564
undo,37,5,0,0,0,24,"[0, 23, 25, 24]",4,21,"[2, 3, 4, 5, 6, 8, 9, 10, 12, 13, 14, 15, 16, 17, 18, 19, 21, 22, 26, 27, 28]",206.5616816,6649,968,3,25,9,1.2901858295679272
undo,37,5,0,0,0,17,"[0, 23, 25, 24, 17]",5,13,"[4, 5, 6, 8, 12, 13, 14, 15, 18, 19, 22, 26, 27]",171.5759702,7900,1251,3,14,9,1.2027484907982513
undo,37,5,0,0,0,5,"[0, 23, 25, 24, 17, 5]",6,7,"[4, 6, 8, 12, 15, 18, 19]",128.5294837,8953,1053,3,4,9,1.1472230681682432
undo,37,5,0,0,0,18,"[0, 23, 25, 24, 17, 5, 18]",7,2,"[4, 6]",61.46235316,10083,1130,1,1,9,1.1763046566678599
undo,37,5,0,0,0,4,"[0, 23, 25, 24, 17, 5, 18, 4]",8,1,[6],23.04360773,11106,1023,1,0,9,1.580519180089265
undo,37,5,0,0,1,6,"[0, 23, 25, 24, 17, 5, 18, 4, 6]",9,0,[],11.00201315,11853,747,1,0,9,1.7305268673652696
undo,37,5,0,1,1,6,"[0, 23, 25, 24, 17, 5, 18, 4, 6]",9,0,[],11.00201315,13124,1271,1,0,9,1.7305268673652696
undo,38,25,0,0,0,0,[0],1,28,"[1, 2, 3, 4, 5, 7, 8, 9, 10, 11, 12, 13, 14, 15, 16, 17, 18, 19, 20, 21, 22, 23, 24, 25, 26, 27, 28, 29]",300,158,-1,5,94,10,0.0
undo,38,25,0,0,0,23,"[0, 23]",2,23,"[1, 2, 3, 5, 7, 8, 9, 11, 12, 13, 14, 16, 17, 19, 20, 21, 22, 24, 25, 26, 27, 28, 29]",259.7756293,4946,4788,3,33,10,1.0
undo,38,25,0,0,0,19,"[0, 23, 19]",3,21,"[1, 2, 3, 5, 7, 8, 9, 11, 12, 13, 14, 16, 17, 20, 21, 22, 24, 25, 27, 28, 29]",223.9287326,6020,1074,3,24,10,1.583101227007039
undo,38,25,0,0,0,29,"[0, 23, 19, 29]",4,19,"[1, 2, 3, 5, 7, 8, 9, 11, 12, 13, 14, 16, 17, 20, 21, 22, 24, 25, 28]",207.649912,7019,999,3,17,10,1.474631541426484
undo,38,25,0,0,0,22,"[0, 23, 19, 29, 22]",5,18,"[1, 2, 3, 5, 7, 8, 9, 11, 12, 13, 14, 16, 17, 20, 21, 24, 25, 28]",191.5253965,7935,916,3,14,10,1.4020377754906637
undo,38,25,0,0,0,7,"[0, 23, 19, 29, 22, 7]",6,7,"[3, 8, 9, 11, 13, 24, 28]",115.8814939,9168,1233,3,11,10,1.5709678649326715
undo,38,25,0,0,0,24,"[0, 23, 19, 29, 22, 7, 24]",7,5,"[3, 8, 9, 13, 28]",91.12265712,10082,914,3,7,10,1.486191600033379
undo,38,25,0,0,0,9,"[0, 23, 19, 29, 22, 7, 24, 9]",8,4,"[3, 8, 13, 28]",73.09490075,11235,1153,3,3,10,1.453504870342882
undo,38,25,0,0,0,3,"[0, 23, 19, 29, 22, 7, 24, 9, 3]",9,3,"[8, 13, 28]",42.82940885,12202,967,3,0,10,1.388955167525479
undo,38,25,0,0,1,28,"[0, 23, 19, 29, 22, 7, 24, 9, 3, 28]",10,0,[],11.52445716,13153,951,1,0,10,1.3331084120212044
undo,38,25,0,1,1,28,"[0, 23, 19, 29, 22, 7, 24, 9, 3, 28]",10,0,[],11.52445716,14325,1172,1,0,10,1.3331084120212044
undo,39,3,0,0,0,0,[0],1,29,"[1, 2, 3, 4, 5, 6, 7, 8, 9, 10, 11, 12, 13, 14, 15, 16, 17, 18, 19, 20, 21, 22, 23, 24, 25, 26, 27, 28, 29]",300,160,-1,34,427,10,0.0
undo,39,3,0,0,0,7,"[0, 7]",2,28,"[1, 2, 3, 4, 5, 6, 8, 9, 10, 11, 12, 13, 14, 15, 16, 17, 18, 19, 20, 21, 22, 23, 24, 25, 26, 27, 28, 29]",278.8103799,4219,4059,24,215,10,1.0
undo,39,3,0,0,0,8,"[0, 7, 8]",3,24,"[1, 2, 3, 4, 5, 6, 10, 11, 12, 13, 14, 15, 16, 17, 18, 19, 20, 21, 22, 24, 25, 26, 27, 28]",222.837172,5226,1007,16,114,10,1.2853332575451413
undo,39,3,0,0,0,24,"[0, 7, 8, 24]",4,21,"[1, 3, 4, 5, 6, 10, 11, 12, 14, 15, 16, 17, 18, 19, 20, 21, 22, 25, 26, 27, 28]",210.671647,6403,1177,16,91,10,1.5177505014936548
undo,39,3,0,0,0,17,"[0, 7, 8, 24, 17]",5,9,"[3, 4, 10, 14, 15, 16, 19, 20, 21]",141.3174834,7353,950,7,26,10,1.5510961300062232
undo,39,3,0,0,0,20,"[0, 7, 8, 24, 17, 20]",6,7,"[3, 4, 10, 14, 16, 19, 21]",128.6683728,9150,1797,7,14,10,1.5133082717474817
undo,39,3,0,0,0,3,"[0, 7, 8, 24, 17, 20, 3]",7,5,"[4, 10, 14, 19, 21]",108.2722947,10302,1152,7,4,10,1.5325960555943097
undo,39,3,0,0,0,19,"[0, 7, 8, 24, 17, 20, 3, 19]",8,3,"[10, 14, 21]",70.93598532,11227,925,3,1,10,1.5521294182529992
undo,39,3,0,0,0,21,"[0, 7, 8, 24, 17, 20, 3, 19, 21]",9,2,"[10, 14]",58.72942971,12084,857,2,0,10,1.5690424431931145
undo,39,3,0,0,1,14,"[0, 7, 8, 24, 17, 20, 3, 19, 21, 14]",10,0,[],31.82218161,13444,1360,1,0,10,2.0836613372745463
undo,39,3,1,0,0,21,"[0, 7, 8, 24, 17, 20, 3, 19, 21]",9,2,"[10, 14]",58.72942971,21146,7702,2,0,10,1.5690424431931145
undo,39,3,1,0,0,19,"[0, 7, 8, 24, 17, 20, 3, 19]",8,3,"[10, 14, 21]",70.93598532,21346,200,3,1,10,1.5521294182529992
undo,39,3,1,0,0,3,"[0, 7, 8, 24, 17, 20, 3]",7,5,"[4, 10, 14, 19, 21]",108.2722947,21495,149,7,4,10,1.5325960555943097
undo,39,3,1,0,0,20,"[0, 7, 8, 24, 17, 20]",6,7,"[3, 4, 10, 14, 16, 19, 21]",128.6683728,21628,133,7,14,10,1.5133082717474817
undo,39,3,1,0,0,17,"[0, 7, 8, 24, 17]",5,9,"[3, 4, 10, 14, 15, 16, 19, 20, 21]",141.3174834,21762,134,7,26,10,1.5510961300062232
undo,39,3,1,0,0,24,"[0, 7, 8, 24]",4,21,"[1, 3, 4, 5, 6, 10, 11, 12, 14, 15, 16, 17, 18, 19, 20, 21, 22, 25, 26, 27, 28]",210.671647,21894,132,16,91,10,1.5177505014936548
undo,39,3,1,0,0,8,"[0, 7, 8]",3,24,"[1, 2, 3, 4, 5, 6, 10, 11, 12, 13, 14, 15, 16, 17, 18, 19, 20, 21, 22, 24, 25, 26, 27, 28]",222.837172,22095,201,16,114,10,1.2853332575451413
undo,39,3,1,0,0,7,"[0, 7]",2,28,"[1, 2, 3, 4, 5, 6, 8, 9, 10, 11, 12, 13, 14, 15, 16, 17, 18, 19, 20, 21, 22, 23, 24, 25, 26, 27, 28, 29]",278.8103799,22312,217,24,215,10,1.0
undo,39,3,1,0,0,0,[0],1,29,"[1, 2, 3, 4, 5, 6, 7, 8, 9, 10, 11, 12, 13, 14, 15, 16, 17, 18, 19, 20, 21, 22, 23, 24, 25, 26, 27, 28, 29]",300,23145,833,34,427,10,0.0
undo,39,3,0,0,0,15,"[0, 15]",2,28,"[1, 2, 3, 4, 5, 6, 7, 8, 9, 10, 11, 12, 13, 14, 16, 17, 18, 19, 20, 21, 22, 23, 24, 25, 26, 27, 28, 29]",268.1723391,25339,2194,8,84,10,1.0
undo,39,3,0,0,0,7,"[0, 15, 7]",3,27,"[1, 2, 3, 4, 5, 6, 8, 9, 10, 11, 12, 13, 14, 16, 17, 18, 19, 20, 21, 22, 23, 24, 25, 26, 27, 28, 29]",238.1057463,26246,907,8,69,10,2.9209704282891646
undo,39,3,0,0,0,8,"[0, 15, 7, 8]",4,18,"[3, 4, 5, 6, 10, 11, 14, 16, 17, 18, 19, 20, 21, 22, 24, 26, 27, 28]",182.1325384,27253,1007,6,40,10,1.9633672365780177
undo,39,3,0,0,0,24,"[0, 15, 7, 8, 24]",5,14,"[3, 4, 5, 10, 14, 16, 17, 18, 19, 20, 21, 22, 26, 27]",169.9670134,28272,1019,6,34,10,2.209350379748608
undo,39,3,0,0,0,17,"[0, 15, 7, 8, 24, 17]",6,5,"[3, 14, 19, 20, 21]",100.6128498,29405,1133,3,7,10,1.9489773900408984
undo,39,3,0,0,0,20,"[0, 15, 7, 8, 24, 17, 20]",7,4,"[3, 14, 19, 21]",87.9637392,31072,1667,3,4,10,1.872837097405716
undo,39,3,0,0,0,3,"[0, 15, 7, 8, 24, 17, 20, 3]",8,3,"[14, 19, 21]",67.56766115,31919,847,3,1,10,1.8579729265349425
undo,39,3,0,0,0,19,"[0, 15, 7, 8, 24, 17, 20, 3, 19]",9,2,"[14, 21]",30.23135174,32920,1001,2,0,10,1.8279425324472436
undo,39,3,0,0,1,21,"[0, 15, 7, 8, 24, 17, 20, 3, 19, 21]",10,0,[],18.02479613,33774,854,1,0,10,1.8337547852117746
undo,39,3,0,1,1,21,"[0, 15, 7, 8, 24, 17, 20, 3, 19, 21]",10,0,[],18.02479613,34846,1072,1,0,10,1.8337547852117746
undo,40,20,0,0,0,0,[0],1,21,"[1, 2, 3, 4, 5, 6, 7, 8, 9, 12, 17, 18, 20, 21, 22, 23, 25, 26, 27, 28, 29]",300,164,-1,1,9,9,0.0
undo,40,20,0,0,0,12,"[0, 12]",2,20,"[1, 2, 3, 4, 5, 6, 7, 8, 9, 17, 18, 20, 21, 22, 23, 25, 26, 27, 28, 29]",271.5570747,3755,3591,1,8,9,1.0
undo,40,20,0,0,0,1,"[0, 12, 1]",3,12,"[3, 4, 5, 6, 8, 9, 20, 21, 23, 27, 28, 29]",189.5692707,5190,1435,1,6,9,1.0757997779162911
undo,40,20,0,0,0,5,"[0, 12, 1, 5]",4,10,"[4, 6, 8, 9, 20, 21, 23, 27, 28, 29]",152.8950291,6201,1011,1,5,9,1.1708231454516806
undo,40,20,0,0,0,21,"[0, 12, 1, 5, 21]",5,8,"[4, 6, 8, 9, 20, 23, 27, 28]",107.8950291,7220,1019,1,4,9,1.126197336199212
undo,40,20,0,0,0,8,"[0, 12, 1, 5, 21, 8]",6,5,"[6, 9, 23, 27, 28]",90.43077988,8286,1066,1,3,9,1.140007470699913
undo,40,20,0,0,0,23,"[0, 12, 1, 5, 21, 8, 23]",7,2,"[6, 9]",45.74297394,9838,1552,1,1,9,1.1162257896627588
undo,40,20,0,0,0,9,"[0, 12, 1, 5, 21, 8, 23, 9]",8,1,[6],26.53360123,11421,1583,1,0,9,1.1086880559449597
undo,40,20,0,0,1,6,"[0, 12, 1, 5, 21, 8, 23, 9, 6]",9,0,[],3.511872362,12202,781,1,0,9,1.1186240265999328
undo,40,20,0,1,1,6,"[0, 12, 1, 5, 21, 8, 23, 9, 6]",9,0,[],3.511872362,13510,1308,1,0,9,1.1186240265999328
undo,41,31,0,0,0,0,[0],1,27,"[1, 3, 4, 5, 6, 7, 8, 10, 11, 12, 13, 14, 15, 16, 17, 18, 19, 20, 21, 22, 23, 24, 25, 26, 27, 28, 29]",300,167,-1,2,87,10,0.0
undo,41,31,0,0,0,27,"[0, 27]",2,26,"[1, 3, 4, 5, 6, 7, 8, 10, 11, 12, 13, 14, 15, 16, 17, 18, 19, 20, 21, 22, 23, 24, 25, 26, 28, 29]",259.5030865,4689,4522,14,191,9,1.0
undo,41,31,0,0,0,8,"[0, 27, 8]",3,23,"[1, 3, 5, 6, 7, 10, 11, 12, 13, 14, 15, 16, 17, 18, 19, 20, 21, 22, 24, 25, 26, 28, 29]",248.4577255,5593,904,9,131,9,1.481736210960148
undo,41,31,0,0,0,18,"[0, 27, 8, 18]",4,19,"[1, 3, 5, 6, 7, 10, 11, 12, 13, 14, 16, 17, 19, 20, 21, 22, 25, 28, 29]",212.6108289,7441,1848,5,65,9,1.3573609555685873
undo,41,31,0,0,0,17,"[0, 27, 8, 18, 17]",5,14,"[1, 5, 6, 7, 11, 12, 13, 14, 16, 19, 20, 22, 25, 28]",183.4046651,8359,918,4,35,9,1.288051401172667
undo,41,31,0,0,0,11,"[0, 27, 8, 18, 17, 11]",6,11,"[1, 5, 7, 12, 14, 16, 19, 20, 22, 25, 28]",142.2950555,9239,880,3,7,9,2.5759979840041423
undo,41,31,0,0,0,5,"[0, 27, 8, 18, 17, 11, 5]",7,3,"[16, 25, 28]",98.61439621,10041,802,2,1,9,2.29559828660968
undo,41,31,1,0,0,11,"[0, 27, 8, 18, 17, 11]",6,11,"[1, 5, 7, 12, 14, 16, 19, 20, 22, 25, 28]",142.2950555,11929,1888,3,7,9,2.5759979840041423
undo,41,31,1,0,0,17,"[0, 27, 8, 18, 17]",5,14,"[1, 5, 6, 7, 11, 12, 13, 14, 16, 19, 20, 22, 25, 28]",183.4046651,12114,185,4,35,9,1.288051401172667
undo,41,31,1,0,0,18,"[0, 27, 8, 18]",4,19,"[1, 3, 5, 6, 7, 10, 11, 12, 13, 14, 16, 17, 19, 20, 21, 22, 25, 28, 29]",212.6108289,12330,216,5,65,9,1.3573609555685873
undo,41,31,1,0,0,8,"[0, 27, 8]",3,23,"[1, 3, 5, 6, 7, 10, 11, 12, 13, 14, 15, 16, 17, 18, 19, 20, 21, 22, 24, 25, 26, 28, 29]",248.4577255,12564,234,9,131,9,1.481736210960148
undo,41,31,1,0,0,27,"[0, 27]",2,26,"[1, 3, 4, 5, 6, 7, 8, 10, 11, 12, 13, 14, 15, 16, 17, 18, 19, 20, 21, 22, 23, 24, 25, 26, 28, 29]",259.5030865,12847,283,14,191,9,1.0
undo,41,31,1,0,0,0,[0],1,27,"[1, 3, 4, 5, 6, 7, 8, 10, 11, 12, 13, 14, 15, 16, 17, 18, 19, 20, 21, 22, 23, 24, 25, 26, 27, 28, 29]",300,13363,516,2,87,10,0.0
undo,41,31,0,0,0,14,"[0, 14]",2,25,"[1, 3, 5, 6, 7, 8, 10, 11, 12, 13, 15, 16, 17, 18, 19, 20, 21, 22, 23, 24, 25, 26, 27, 28, 29]",263.861378,15639,2276,2,59,10,1.0
undo,41,31,0,0,0,27,"[0, 14, 27]",3,22,"[1, 3, 5, 6, 7, 8, 10, 11, 12, 13, 15, 16, 17, 18, 19, 20, 21, 22, 24, 25, 28, 29]",235.6833724,16475,836,1,39,10,1.5881859159302467
undo,41,31,0,0,0,8,"[0, 14, 27, 8]",4,20,"[1, 3, 5, 6, 7, 10, 11, 12, 13, 16, 17, 18, 19, 20, 21, 22, 24, 25, 28, 29]",224.6380114,17308,833,1,36,10,2.1665048452331277
undo,41,31,0,0,0,18,"[0, 14, 27, 8, 18]",5,15,"[1, 5, 6, 7, 11, 12, 13, 16, 17, 19, 20, 22, 25, 28, 29]",188.7911147,18118,810,1,26,10,1.7273375741920205
undo,41,31,0,0,0,17,"[0, 14, 27, 8, 18, 17]",6,13,"[1, 5, 6, 7, 11, 12, 13, 16, 19, 20, 22, 25, 28]",159.584951,19123,1005,1,13,10,1.551192427769927
undo,41,31,0,0,0,11,"[0, 14, 27, 8, 18, 17, 11]",7,7,"[5, 12, 16, 19, 22, 25, 28]",118.4753414,20209,1086,1,4,10,2.9650760544203494
undo,41,31,0,0,0,5,"[0, 14, 27, 8, 18, 17, 11, 5]",8,2,"[16, 28]",74.79468207,21275,1066,1,1,10,2.56711965625205
undo,41,31,0,0,0,28,"[0, 14, 27, 8, 18, 17, 11, 5, 28]",9,1,[16],54.57093365,21924,649,1,0,10,2.2865510762058148
undo,41,31,0,0,1,16,"[0, 14, 27, 8, 18, 17, 11, 5, 28, 16]",10,0,[],20.95546102,22859,935,1,0,10,2.089356850786318
undo,41,31,0,1,1,16,"[0, 14, 27, 8, 18, 17, 11, 5, 28, 16]",10,0,[],20.95546102,23965,1106,1,0,10,2.089356850786318
undo,42,38,0,0,0,0,[0],1,29,"[1, 2, 3, 4, 5, 6, 7, 8, 9, 10, 11, 12, 13, 14, 15, 16, 17, 18, 19, 20, 21, 22, 23, 24, 25, 26, 27, 28, 29]",300,179,-1,33,506,9,0.0
undo,42,38,0,0,0,19,"[0, 19]",2,23,"[3, 4, 5, 6, 7, 8, 9, 11, 13, 14, 15, 16, 17, 18, 20, 22, 23, 24, 25, 26, 27, 28, 29]",219.5015528,4218,4039,6,61,9,1.0
undo,42,38,0,0,0,17,"[0, 19, 17]",3,21,"[3, 4, 5, 6, 7, 9, 11, 13, 14, 15, 16, 18, 20, 22, 23, 24, 25, 26, 27, 28, 29]",198.1239945,5184,966,6,53,9,1.571793785769489
undo,42,38,0,0,0,20,"[0, 19, 17, 20]",4,17,"[3, 4, 5, 6, 7, 11, 13, 14, 15, 16, 18, 22, 24, 25, 26, 27, 28]",174.3542658,6490,1306,6,44,9,2.333182710277297
undo,42,38,1,0,0,17,"[0, 19, 17]",3,21,"[3, 4, 5, 6, 7, 9, 11, 13, 14, 15, 16, 18, 20, 22, 23, 24, 25, 26, 27, 28, 29]",198.1239945,11706,5216,6,53,9,1.571793785769489
undo,42,38,1,0,0,19,"[0, 19]",2,23,"[3, 4, 5, 6, 7, 8, 9, 11, 13, 14, 15, 16, 17, 18, 20, 22, 23, 24, 25, 26, 27, 28, 29]",219.5015528,11990,284,6,61,9,1.0
undo,42,38,1,0,0,0,[0],1,29,"[1, 2, 3, 4, 5, 6, 7, 8, 9, 10, 11, 12, 13, 14, 15, 16, 17, 18, 19, 20, 21, 22, 23, 24, 25, 26, 27, 28, 29]",300,12407,417,33,506,9,0.0
undo,42,38,0,0,0,17,"[0, 17]",2,26,"[1, 3, 4, 5, 6, 7, 8, 9, 10, 11, 12, 13, 14, 15, 16, 18, 19, 20, 22, 23, 24, 25, 26, 27, 28, 29]",235.1848783,15637,3230,11,115,9,1.0
undo,42,38,0,0,0,20,"[0, 17, 20]",3,24,"[1, 3, 4, 5, 6, 7, 9, 10, 11, 12, 13, 14, 15, 16, 18, 19, 22, 23, 24, 25, 26, 27, 28, 29]",211.4151497,17684,2047,7,70,9,1.6449793733822013
undo,42,38,0,0,0,4,"[0, 17, 20, 4]",4,17,"[3, 5, 7, 10, 11, 12, 13, 14, 15, 16, 18, 19, 22, 24, 26, 27, 28]",177.4740242,18716,1032,4,40,9,1.7475203137292266
undo,42,38,0,0,0,15,"[0, 17, 20, 4, 15]",5,12,"[5, 10, 11, 12, 13, 14, 16, 19, 24, 26, 27, 28]",151.4740242,19807,1091,3,20,9,2.0241835387118274
undo,42,38,0,0,0,11,"[0, 17, 20, 4, 15, 11]",6,8,"[5, 10, 12, 13, 14, 16, 26, 28]",115.0734747,20786,979,2,7,9,2.3142952219285746
undo,42,38,0,0,0,28,"[0, 17, 20, 4, 15, 11, 28]",7,4,"[10, 12, 14, 16]",88.05496254,21737,951,2,2,9,1.9846119749887663
undo,42,38,0,0,0,14,"[0, 17, 20, 4, 15, 11, 28, 14]",8,1,[12],32.61129744,22834,1097,1,0,9,1.7265262770891336
undo,42,38,0,0,1,12,"[0, 17, 20, 4, 15, 11, 28, 14, 12]",9,0,[],17.84647438,24141,1307,1,0,9,1.6635011222913068
undo,42,38,0,1,1,12,"[0, 17, 20, 4, 15, 11, 28, 14, 12]",9,0,[],17.84647438,25476,1335,1,0,9,1.6635011222913068
undo,43,21,0,0,0,0,[0],1,29,"[1, 2, 3, 4, 5, 6, 7, 8, 9, 10, 11, 12, 13, 14, 15, 16, 17, 18, 19, 20, 21, 22, 23, 24, 25, 26, 27, 28, 29]",300,185,-1,84,830,9,0.0
undo,43,21,0,0,0,25,"[0, 25]",2,26,"[1, 2, 3, 4, 5, 6, 7, 8, 9, 10, 11, 12, 13, 14, 15, 16, 17, 18, 20, 21, 22, 23, 24, 26, 27, 29]",240.1836143,4499,4314,30,238,9,1.0
undo,43,21,0,0,0,23,"[0, 25, 23]",3,21,"[1, 2, 4, 6, 7, 8, 9, 10, 11, 12, 14, 15, 16, 17, 18, 20, 21, 22, 24, 27, 29]",196.8592562,5686,1187,14,80,9,1.0416131642057598
undo,43,21,0,0,0,21,"[0, 25, 23, 21]",4,14,"[1, 4, 6, 8, 9, 14, 15, 16, 17, 18, 20, 22, 24, 29]",167.2450705,6769,1083,10,25,9,1.4768792067751173
undo,43,21,0,0,0,14,"[0, 25, 23, 21, 14]",5,10,"[4, 8, 9, 15, 16, 17, 18, 22, 24, 29]",141.6325735,8032,1263,8,13,9,1.3826076066332742
undo,43,21,0,0,0,4,"[0, 25, 23, 21, 14, 4]",6,7,"[8, 15, 16, 17, 18, 24, 29]",127.4904379,9022,990,8,3,9,1.3487191473328533
undo,43,21,0,0,0,16,"[0, 25, 23, 21, 14, 4, 16]",7,3,"[8, 15, 24]",82.89223163,10121,1099,4,1,9,1.3301484172843694
undo,43,21,0,0,0,8,"[0, 25, 23, 21, 14, 4, 16, 8]",8,2,"[15, 24]",64.2911564,11049,928,2,0,9,1.3009886562393016
undo,43,21,0,0,1,15,"[0, 25, 23, 21, 14, 4, 16, 8, 15]",9,0,[],39.2911564,11967,918,1,0,9,1.5486591410600183
undo,43,21,1,0,0,8,"[0, 25, 23, 21, 14, 4, 16, 8]",8,2,"[15, 24]",64.2911564,21490,9523,2,0,9,1.3009886562393016
undo,43,21,1,0,0,16,"[0, 25, 23, 21, 14, 4, 16]",7,3,"[8, 15, 24]",82.89223163,21624,134,4,1,9,1.3301484172843694
undo,43,21,1,0,0,4,"[0, 25, 23, 21, 14, 4]",6,7,"[8, 15, 16, 17, 18, 24, 29]",127.4904379,21740,116,8,3,9,1.3487191473328533
undo,43,21,1,0,0,14,"[0, 25, 23, 21, 14]",5,10,"[4, 8, 9, 15, 16, 17, 18, 22, 24, 29]",141.6325735,21892,152,8,13,9,1.3826076066332742
undo,43,21,1,0,0,21,"[0, 25, 23, 21]",4,14,"[1, 4, 6, 8, 9, 14, 15, 16, 17, 18, 20, 22, 24, 29]",167.2450705,22024,132,10,25,9,1.4768792067751173
undo,43,21,1,0,0,23,"[0, 25, 23]",3,21,"[1, 2, 4, 6, 7, 8, 9, 10, 11, 12, 14, 15, 16, 17, 18, 20, 21, 22, 24, 27, 29]",196.8592562,22192,168,14,80,9,1.0416131642057598
undo,43,21,1,0,0,25,"[0, 25]",2,26,"[1, 2, 3, 4, 5, 6, 7, 8, 9, 10, 11, 12, 13, 14, 15, 16, 17, 18, 20, 21, 22, 23, 24, 26, 27, 29]",240.1836143,22440,248,30,238,9,1.0
undo,43,21,1,0,0,0,[0],1,29,"[1, 2, 3, 4, 5, 6, 7, 8, 9, 10, 11, 12, 13, 14, 15, 16, 17, 18, 19, 20, 21, 22, 23, 24, 25, 26, 27, 28, 29]",300,22774,334,84,830,9,0.0
undo,43,21,0,0,0,18,"[0, 18]",2,28,"[1, 2, 3, 4, 5, 6, 7, 8, 9, 10, 11, 12, 13, 14, 15, 16, 17, 19, 20, 21, 22, 23, 24, 25, 26, 27, 28, 29]",240.923778,24638,1864,44,305,9,1.0
undo,43,21,0,0,0,25,"[0, 18, 25]",3,23,"[1, 2, 3, 4, 6, 7, 8, 9, 10, 11, 12, 14, 15, 16, 17, 20, 21, 22, 23, 24, 26, 27, 29]",199.162552,25617,979,16,84,9,1.6857830307656476
undo,43,21,0,0,0,23,"[0, 18, 25, 23]",4,13,"[4, 6, 8, 9, 14, 15, 16, 17, 20, 21, 22, 24, 29]",155.838194,27565,1948,9,35,9,1.4558828002680828
undo,43,21,0,0,0,21,"[0, 18, 25, 23, 21]",5,9,"[4, 8, 9, 14, 15, 16, 17, 22, 29]",126.2240082,28701,1136,3,11,9,1.9332325352644872
undo,43,21,0,0,0,14,"[0, 18, 25, 23, 21, 14]",6,5,"[4, 8, 15, 16, 29]",100.6115112,29686,985,3,6,9,1.7407370150704153
undo,43,21,0,0,0,16,"[0, 18, 25, 23, 21, 14, 16]",7,2,"[8, 15]",42.91402428,31394,1708,2,0,8,1.5750818419688493
undo,43,21,0,0,1,8,"[0, 18, 25, 23, 21, 14, 16, 8]",8,0,[],24.31294904,32103,709,1,0,8,1.5216473022102015
undo,43,21,1,0,0,16,"[0, 18, 25, 23, 21, 14, 16]",7,2,"[8, 15]",42.91402428,35841,3738,2,0,8,1.5750818419688493
undo,43,21,1,0,0,14,"[0, 18, 25, 23, 21, 14]",6,5,"[4, 8, 15, 16, 29]",100.6115112,36242,401,3,6,9,1.7407370150704153
undo,43,21,1,0,0,21,"[0, 18, 25, 23, 21]",5,9,"[4, 8, 9, 14, 15, 16, 17, 22, 29]",126.2240082,37325,1083,3,11,9,1.9332325352644872
undo,43,21,1,0,0,23,"[0, 18, 25, 23]",4,13,"[4, 6, 8, 9, 14, 15, 16, 17, 20, 21, 22, 24, 29]",155.838194,39058,1733,9,35,9,1.4558828002680828
undo,43,21,0,0,0,14,"[0, 18, 25, 23, 14]",5,8,"[4, 8, 15, 16, 17, 21, 24, 29]",126.7693103,41547,2489,5,10,9,1.5123695230442378
undo,43,21,0,0,0,4,"[0, 18, 25, 23, 14, 4]",6,6,"[8, 15, 16, 21, 24, 29]",112.6271746,43703,2156,5,2,9,1.4649235336899369
undo,43,21,0,0,0,16,"[0, 18, 25, 23, 14, 4, 16]",7,2,"[8, 15]",68.0289684,44774,1071,2,0,9,1.421210778661381
undo,43,21,0,0,0,8,"[0, 18, 25, 23, 14, 4, 16, 8]",8,1,[15],49.42789316,45470,696,1,0,9,1.383026040049786
undo,43,21,0,0,1,15,"[0, 18, 25, 23, 14, 4, 16, 8, 15]",9,0,[],24.42789316,46720,1250,1,0,9,1.6369496960130507
undo,43,21,0,1,1,15,"[0, 18, 25, 23, 14, 4, 16, 8, 15]",9,0,[],24.42789316,47895,1175,1,0,9,1.6369496960130507
undo,44,15,0,0,0,0,[0],1,25,"[1, 2, 3, 4, 7, 8, 9, 10, 11, 12, 13, 14, 15, 16, 18, 20, 21, 22, 23, 24, 25, 26, 27, 28, 29]",300,167,-1,4,65,9,0.0
undo,44,15,0,0,0,7,"[0, 7]",2,23,"[1, 3, 4, 8, 9, 10, 11, 12, 13, 14, 15, 16, 18, 20, 21, 22, 23, 24, 25, 26, 27, 28, 29]",215.1884442,3985,3818,30,107,8,1.0
undo,44,15,0,0,0,16,"[0, 7, 16]",3,14,"[3, 4, 9, 10, 11, 12, 13, 14, 15, 18, 21, 22, 25, 27]",171.5306843,5284,1299,11,27,8,1.1253230463291073
undo,44,15,0,0,0,11,"[0, 7, 16, 11]",4,10,"[3, 4, 12, 13, 14, 15, 18, 21, 22, 27]",145.5114606,6254,970,6,10,8,1.2441772230587118
undo,44,15,0,0,0,14,"[0, 7, 16, 11, 14]",5,2,"[3, 15]",72.71036172,10171,3917,2,0,6,1.1746273751135945
undo,44,15,1,0,0,11,"[0, 7, 16, 11]",4,10,"[3, 4, 12, 13, 14, 15, 18, 21, 22, 27]",145.5114606,12176,2005,6,10,8,1.2441772230587118
undo,44,15,0,0,0,3,"[0, 7, 16, 11, 3]",5,8,"[4, 12, 13, 14, 15, 18, 21, 22]",134.1097064,16208,4032,6,4,8,1.253153736954923
undo,44,15,0,0,0,22,"[0, 7, 16, 11, 3, 22]",6,5,"[4, 13, 14, 15, 18]",84.38043933,17211,1003,2,3,8,1.249784727890499
undo,44,15,0,0,0,15,"[0, 7, 16, 11, 3, 22, 15]",7,1,[13],58.76794238,18452,1241,1,0,8,1.2283958862490272
undo,44,15,0,0,1,13,"[0, 7, 16, 11, 3, 22, 15, 13]",8,0,[],43.50360486,19104,652,1,0,8,1.2803073001953094
undo,44,15,0,1,1,13,"[0, 7, 16, 11, 3, 22, 15, 13]",8,0,[],43.50360486,20712,1608,1,0,8,1.2803073001953094
undo,45,34,0,0,0,0,[0],1,25,"[1, 3, 4, 5, 6, 7, 8, 9, 10, 11, 12, 13, 15, 18, 19, 20, 21, 22, 23, 24, 25, 26, 27, 28, 29]",300,158,-1,12,367,10,0.0
undo,45,34,0,0,0,13,"[0, 13]",2,24,"[1, 3, 4, 5, 6, 7, 8, 9, 10, 11, 12, 15, 18, 19, 20, 21, 22, 23, 24, 25, 26, 27, 28, 29]",279.9750156,1919,1761,12,331,10,1.0
undo,45,34,0,0,0,1,"[0, 13, 1]",3,16,"[3, 5, 7, 8, 9, 10, 11, 12, 19, 21, 22, 23, 24, 25, 27, 29]",211.8574701,2968,1049,3,92,10,1.0010381285747127
undo,45,34,0,0,0,8,"[0, 13, 1, 8]",4,14,"[3, 5, 7, 9, 10, 11, 12, 19, 22, 23, 24, 25, 27, 29]",201.0871405,3837,869,2,54,10,1.1636807
undo,45,34,0,0,0,25,"[0, 13, 1, 8, 25]",5,12,"[3, 5, 7, 9, 10, 11, 12, 22, 23, 24, 27, 29]",183.999133,4787,950,2,28,10,1.1396208815936457
undo,45,34,0,0,0,24,"[0, 13, 1, 8, 25, 24]",6,11,"[3, 5, 7, 9, 10, 11, 12, 22, 23, 27, 29]",166.5062774,5706,919,2,23,10,1.374180768736554
undo,45,34,0,0,0,12,"[0, 13, 1, 8, 25, 24, 12]",7,7,"[7, 9, 10, 11, 22, 23, 27]",115.4670767,10835,5129,1,8,10,1.4994254760835948
undo,45,34,0,0,0,7,"[0, 13, 1, 8, 25, 24, 12, 7]",8,5,"[9, 11, 22, 23, 27]",100.4337804,11635,800,1,4,10,1.758992610425009
undo,45,34,0,0,0,23,"[0, 13, 1, 8, 25, 24, 12, 7, 23]",9,1,[27],72.27352467,13052,1417,1,0,10,2.399781305190153
undo,45,34,0,0,1,27,"[0, 13, 1, 8, 25, 24, 12, 7, 23, 27]",10,0,[],18.60789321,14137,1085,1,0,10,4.766619878750327
undo,45,34,0,1,1,27,"[0, 13, 1, 8, 25, 24, 12, 7, 23, 27]",10,0,[],18.60789321,15427,1290,1,0,10,4.766619878750327
undo,46,8,0,0,0,0,[0],1,29,"[1, 2, 3, 4, 5, 6, 7, 8, 9, 10, 11, 12, 13, 14, 15, 16, 17, 18, 19, 20, 21, 22, 23, 24, 25, 26, 27, 28, 29]",300,226,-1,10,149,9,0.0
undo,46,8,0,0,0,5,"[0, 5]",2,28,"[1, 2, 3, 4, 6, 7, 8, 9, 10, 11, 12, 13, 14, 15, 16, 17, 18, 19, 20, 21, 22, 23, 24, 25, 26, 27, 28, 29]",254.5137383,7796,7570,10,100,9,1.0
undo,46,8,0,0,0,25,"[0, 5, 25]",3,20,"[1, 2, 3, 4, 6, 11, 12, 14, 15, 16, 17, 18, 19, 20, 21, 22, 23, 24, 28, 29]",215.3091468,13739,5943,4,42,9,1.2272747879909065
undo,46,8,0,0,0,1,"[0, 5, 25, 1]",4,17,"[3, 4, 6, 11, 12, 14, 15, 16, 17, 18, 20, 21, 22, 23, 24, 28, 29]",190.3091468,15066,1327,3,24,9,1.1770245007593956
undo,46,8,0,0,0,23,"[0, 5, 25, 1, 23]",5,15,"[3, 4, 6, 11, 14, 15, 16, 17, 18, 20, 21, 22, 24, 28, 29]",167.2874179,16110,1044,1,14,9,1.141996583852372
undo,46,8,0,0,0,18,"[0, 5, 25, 1, 23, 18]",6,9,"[3, 4, 11, 14, 15, 16, 17, 24, 28]",125.5261919,17327,1217,1,7,9,1.3199166330970717
undo,46,8,0,0,0,28,"[0, 5, 25, 1, 23, 18, 28]",7,1,[16],59.906073,19144,1817,1,0,8,1.425373059246715
undo,46,8,0,0,1,16,"[0, 5, 25, 1, 23, 18, 28, 16]",8,0,[],37.54539323,19929,785,1,0,8,1.4175143337764708
undo,46,8,1,0,0,28,"[0, 5, 25, 1, 23, 18, 28]",7,1,[16],59.906073,21617,1688,1,0,8,1.425373059246715
undo,46,8,1,0,0,18,"[0, 5, 25, 1, 23, 18]",6,9,"[3, 4, 11, 14, 15, 16, 17, 24, 28]",125.5261919,21834,217,1,7,9,1.3199166330970717
undo,46,8,1,0,0,23,"[0, 5, 25, 1, 23]",5,15,"[3, 4, 6, 11, 14, 15, 16, 17, 18, 20, 21, 22, 24, 28, 29]",167.2874179,22000,166,1,14,9,1.141996583852372
undo,46,8,1,0,0,1,"[0, 5, 25, 1]",4,17,"[3, 4, 6, 11, 12, 14, 15, 16, 17, 18, 20, 21, 22, 23, 24, 28, 29]",190.3091468,22134,134,3,24,9,1.1770245007593956
undo,46,8,1,0,0,25,"[0, 5, 25]",3,20,"[1, 2, 3, 4, 6, 11, 12, 14, 15, 16, 17, 18, 19, 20, 21, 22, 23, 24, 28, 29]",215.3091468,22416,282,4,42,9,1.2272747879909065
undo,46,8,1,0,0,5,"[0, 5]",2,28,"[1, 2, 3, 4, 6, 7, 8, 9, 10, 11, 12, 13, 14, 15, 16, 17, 18, 19, 20, 21, 22, 23, 24, 25, 26, 27, 28, 29]",254.5137383,22768,352,10,100,9,1.0
undo,46,8,0,0,0,14,"[0, 5, 14]",3,20,"[1, 2, 3, 4, 6, 7, 11, 15, 16, 17, 18, 19, 20, 21, 22, 23, 24, 25, 28, 29]",214.5512559,24877,2109,4,36,9,1.0001019035932595
undo,46,8,0,0,0,17,"[0, 5, 14, 17]",4,15,"[1, 4, 6, 7, 11, 15, 16, 18, 19, 20, 22, 23, 24, 25, 28]",177.5377449,26023,1146,4,16,9,1.121197267659591
undo,46,8,0,0,0,11,"[0, 5, 14, 17, 11]",5,11,"[1, 4, 15, 16, 18, 19, 22, 23, 24, 25, 28]",152.3583883,28196,2173,4,8,9,1.1277254166016362
undo,46,8,0,0,0,24,"[0, 5, 14, 17, 11, 24]",6,3,"[15, 16, 28]",115.1428001,29145,949,2,2,9,1.1227411011978805
undo,46,8,0,0,0,15,"[0, 5, 14, 17, 11, 24, 15]",7,2,"[16, 28]",98.37974552,30895,1750,2,0,9,1.1956385406066814
undo,46,8,0,0,0,16,"[0, 5, 14, 17, 11, 24, 15, 16]",8,1,[28],47.30137436,31828,933,1,0,9,1.36482239111247
undo,46,8,0,0,1,28,"[0, 5, 14, 17, 11, 24, 15, 16, 28]",9,0,[],24.94069458,32644,816,1,0,9,1.632953105226947
undo,46,8,0,1,1,28,"[0, 5, 14, 17, 11, 24, 15, 16, 28]",9,0,[],24.94069458,33851,1207,1,0,9,1.632953105226947
undo,47,11,0,0,0,0,[0],1,25,"[1, 2, 3, 4, 5, 6, 8, 9, 10, 11, 12, 13, 14, 15, 16, 17, 18, 19, 20, 22, 23, 25, 26, 27, 28]",300,177,-1,6,374,12,0.0
undo,47,11,0,0,0,1,"[0, 1]",2,24,"[2, 3, 4, 5, 6, 8, 9, 10, 11, 12, 13, 14, 15, 16, 17, 18, 19, 20, 22, 23, 25, 26, 27, 28]",264.6446609,4226,4049,6,217,12,1.0
undo,47,11,0,0,0,18,"[0, 1, 18]",3,19,"[2, 4, 5, 6, 8, 9, 11, 12, 14, 15, 16, 17, 19, 20, 22, 23, 25, 27, 28]",212.3187591,5322,1096,6,161,12,1.3884463804898786
undo,47,11,0,0,0,27,"[0, 1, 18, 27]",4,18,"[2, 4, 5, 6, 8, 9, 11, 12, 14, 15, 16, 17, 19, 20, 22, 23, 25, 28]",188.4650382,6371,1049,6,155,12,1.3600813284083875
undo,47,11,0,0,0,8,"[0, 1, 18, 27, 8]",5,11,"[2, 5, 6, 11, 12, 15, 17, 19, 22, 25, 28]",118.2510795,9628,3257,4,75,12,1.2516561493067806
undo,47,11,0,0,0,17,"[0, 1, 18, 27, 8, 17]",6,10,"[2, 5, 6, 11, 12, 15, 19, 22, 25, 28]",103.9332585,10425,797,4,40,12,1.3330781007673067
undo,47,11,0,0,0,15,"[0, 1, 18, 27, 8, 17, 15]",7,7,"[2, 5, 11, 12, 19, 22, 28]",91.28414782,11250,825,4,35,12,1.3305073448996472
undo,47,11,0,0,0,11,"[0, 1, 18, 27, 8, 17, 15, 11]",8,5,"[2, 5, 19, 22, 28]",73.17337754,12123,873,4,17,12,1.308363545391271
undo,47,11,0,0,0,28,"[0, 1, 18, 27, 8, 17, 15, 11, 28]",9,3,"[2, 5, 22]",53.7568897,13920,1797,3,3,12,1.4249903205603536
undo,47,11,0,0,0,5,"[0, 1, 18, 27, 8, 17, 15, 11, 28, 5]",10,2,"[2, 22]",35.86834588,14859,939,1,1,12,1.623497724154086
undo,47,11,0,0,0,2,"[0, 1, 18, 27, 8, 17, 15, 11, 28, 5, 2]",11,1,[22],18.86834588,15973,1114,1,0,12,1.5750723003139413
undo,47,11,0,0,1,22,"[0, 1, 18, 27, 8, 17, 15, 11, 28, 5, 2, 22]",12,0,[],8.818470263,16741,768,1,0,12,1.5444525284394994
undo,47,11,0,1,1,22,"[0, 1, 18, 27, 8, 17, 15, 11, 28, 5, 2, 22]",12,0,[],8.818470263,18146,1405,1,0,12,1.5444525284394994
undo,48,0,0,0,0,0,[0],1,27,"[2, 3, 4, 5, 6, 7, 8, 9, 10, 11, 12, 13, 14, 15, 16, 17, 19, 20, 21, 22, 23, 24, 25, 26, 27, 28, 29]",300,195,-1,104,1136,9,0.0
undo,48,0,0,0,0,20,"[0, 20]",2,25,"[2, 3, 4, 5, 6, 7, 8, 9, 11, 12, 13, 14, 15, 16, 17, 19, 21, 22, 23, 24, 25, 26, 27, 28, 29]",215.4955622,4568,4373,36,372,9,1.0
undo,48,0,0,0,0,11,"[0, 20, 11]",3,16,"[2, 3, 4, 5, 7, 8, 9, 12, 15, 17, 19, 24, 25, 26, 28, 29]",130.5367487,16955,12387,2,49,8,1.0025305457833222
undo,48,0,0,0,0,9,"[0, 20, 11, 9]",4,10,"[2, 3, 4, 5, 7, 8, 15, 24, 25, 26]",89.5367487,17919,964,1,7,8,1.0292862980588096
undo,48,0,0,0,0,15,"[0, 20, 11, 9, 15]",5,5,"[4, 7, 8, 24, 26]",51.88040793,19203,1284,1,5,8,1.3125999875981709
undo,48,0,0,0,0,24,"[0, 20, 11, 9, 15, 24]",6,2,"[4, 26]",28.53517287,20117,914,1,1,8,1.6271723565120224
undo,48,0,0,0,0,4,"[0, 20, 11, 9, 15, 24, 4]",7,1,[26],17.13341862,20866,749,1,0,8,1.8069839219453143
undo,48,0,0,0,1,26,"[0, 20, 11, 9, 15, 24, 4, 26]",8,0,[],5.091824039,21467,601,1,0,8,1.8254357822085137
undo,48,0,1,0,0,4,"[0, 20, 11, 9, 15, 24, 4]",7,1,[26],17.13341862,22342,875,1,0,8,1.8069839219453143
undo,48,0,1,0,0,24,"[0, 20, 11, 9, 15, 24]",6,2,"[4, 26]",28.53517287,22508,166,1,1,8,1.6271723565120224
undo,48,0,1,0,0,15,"[0, 20, 11, 9, 15]",5,5,"[4, 7, 8, 24, 26]",51.88040793,22676,168,1,5,8,1.3125999875981709
undo,48,0,1,0,0,9,"[0, 20, 11, 9]",4,10,"[2, 3, 4, 5, 7, 8, 15, 24, 25, 26]",89.5367487,22842,166,1,7,8,1.0292862980588096
undo,48,0,1,0,0,11,"[0, 20, 11]",3,16,"[2, 3, 4, 5, 7, 8, 9, 12, 15, 17, 19, 24, 25, 26, 28, 29]",130.5367487,23108,266,2,49,8,1.0025305457833222
undo,48,0,1,0,0,20,"[0, 20]",2,25,"[2, 3, 4, 5, 6, 7, 8, 9, 11, 12, 13, 14, 15, 16, 17, 19, 21, 22, 23, 24, 25, 26, 27, 28, 29]",215.4955622,23442,334,36,372,9,1.0
undo,48,0,0,0,0,5,"[0, 20, 5]",3,22,"[2, 3, 4, 7, 8, 9, 11, 12, 13, 14, 15, 16, 17, 19, 21, 22, 23, 24, 25, 26, 28, 29]",153.2942761,27435,3993,33,251,9,1.0828244018179105
undo,48,0,0,0,0,4,"[0, 20, 5, 4]",4,19,"[2, 3, 7, 8, 9, 11, 12, 13, 14, 15, 17, 19, 21, 22, 23, 24, 25, 26, 28]",128.2144037,29253,1818,21,127,9,1.0973859443611045
undo,48,0,0,0,0,26,"[0, 20, 5, 4, 26]",5,14,"[3, 7, 8, 9, 11, 12, 13, 14, 15, 17, 19, 23, 24, 28]",116.1728091,30149,896,9,63,9,1.1378617460104323
undo,48,0,0,0,0,24,"[0, 20, 5, 4, 26, 24]",6,11,"[3, 7, 8, 9, 11, 12, 15, 17, 19, 23, 28]",99.05556633,31252,1103,9,24,9,1.204469953325506
undo,48,0,0,0,0,15,"[0, 20, 5, 4, 26, 24, 15]",7,8,"[3, 7, 8, 9, 11, 12, 17, 19]",75.71033127,32218,966,5,6,9,1.1865351459643638
undo,48,0,0,0,0,7,"[0, 20, 5, 4, 26, 24, 15, 7]",8,2,"[3, 8]",44.64588214,33184,966,2,0,9,1.2455705670301183
undo,48,0,0,0,1,8,"[0, 20, 5, 4, 26, 24, 15, 7, 8]",9,0,[],25.54090896,34443,1259,1,0,9,1.2337265013393985
undo,48,0,0,1,1,8,"[0, 20, 5, 4, 26, 24, 15, 7, 8]",9,0,[],25.54090896,35530,1087,1,0,9,1.2337265013393985
undo,49,12,0,0,0,0,[0],1,29,"[1, 2, 3, 4, 5, 6, 7, 8, 9, 10, 11, 12, 13, 14, 15, 16, 17, 18, 19, 20, 21, 22, 23, 24, 25, 26, 27, 28, 29]",300,177,-1,2,32,9,0.0
undo,49,12,0,0,0,25,"[0, 25]",2,16,"[2, 4, 5, 6, 7, 9, 12, 14, 16, 18, 19, 22, 23, 24, 27, 28]",225.7975742,11169,10992,5,34,8,1.0
undo,49,12,0,0,0,22,"[0, 25, 22]",3,11,"[2, 4, 5, 6, 7, 12, 14, 16, 19, 24, 27]",153.5964661,12636,1467,1,10,8,1.6635691148622656
undo,49,12,0,0,0,16,"[0, 25, 22, 16]",4,7,"[4, 6, 12, 14, 19, 24, 27]",132.5964661,13635,999,1,6,8,1.8455145785330662
undo,49,12,0,0,0,4,"[0, 25, 22, 16, 4]",5,5,"[12, 14, 19, 24, 27]",98.39120339,14509,874,1,4,8,1.6140587576122385
undo,49,12,0,0,0,12,"[0, 25, 22, 16, 4, 12]",6,2,"[14, 27]",56.20115717,15434,925,1,1,8,1.4755917731057815
undo,49,12,0,0,0,27,"[0, 25, 22, 16, 4, 12, 27]",7,1,[14],31.84956584,16603,1169,1,0,8,1.5677023473114235
undo,49,12,0,0,1,14,"[0, 25, 22, 16, 4, 12, 27, 14]",8,0,[],3.196468279,19468,2865,1,0,8,1.5941060060123788
undo,49,12,1,0,0,27,"[0, 25, 22, 16, 4, 12, 27]",7,1,[14],31.84956584,24726,5258,1,0,8,1.5677023473114235
undo,49,12,1,0,0,12,"[0, 25, 22, 16, 4, 12]",6,2,"[14, 27]",56.20115717,24859,133,1,1,8,1.4755917731057815
undo,49,12,1,0,0,4,"[0, 25, 22, 16, 4]",5,5,"[12, 14, 19, 24, 27]",98.39120339,24992,133,1,4,8,1.6140587576122385
undo,49,12,1,0,0,16,"[0, 25, 22, 16]",4,7,"[4, 6, 12, 14, 19, 24, 27]",132.5964661,25142,150,1,6,8,1.8455145785330662
undo,49,12,1,0,0,22,"[0, 25, 22]",3,11,"[2, 4, 5, 6, 7, 12, 14, 16, 19, 24, 27]",153.5964661,25376,234,1,10,8,1.6635691148622656
undo,49,12,1,0,0,25,"[0, 25]",2,16,"[2, 4, 5, 6, 7, 9, 12, 14, 16, 18, 19, 22, 23, 24, 27, 28]",225.7975742,25692,316,5,34,8,1.0
undo,49,12,1,0,0,0,[0],1,29,"[1, 2, 3, 4, 5, 6, 7, 8, 9, 10, 11, 12, 13, 14, 15, 16, 17, 18, 19, 20, 21, 22, 23, 24, 25, 26, 27, 28, 29]",300,26277,585,2,32,9,0.0
undo,49,12,0,0,0,22,"[0, 22]",2,22,"[2, 4, 5, 6, 7, 9, 10, 12, 13, 14, 15, 16, 17, 18, 19, 21, 23, 24, 25, 27, 28, 29]",211.9943184,28571,2294,6,42,8,1.0
undo,49,12,0,0,0,16,"[0, 22, 16]",3,12,"[2, 4, 5, 6, 7, 12, 14, 19, 23, 24, 25, 27]",190.9943184,29402,831,6,24,8,1.2017164145167045
undo,49,12,0,0,0,4,"[0, 22, 16, 4]",4,9,"[2, 6, 7, 12, 14, 19, 24, 25, 27]",156.7890556,30671,1269,6,14,8,1.146531713305579
undo,49,12,0,0,0,12,"[0, 22, 16, 4, 12]",5,4,"[14, 19, 24, 27]",114.5990094,31527,856,4,3,8,1.1221389456954312
undo,49,12,0,0,0,27,"[0, 22, 16, 4, 12, 27]",6,3,"[14, 19, 24]",90.24741807,32386,859,2,1,8,1.2262878338287035
undo,49,12,0,0,0,14,"[0, 22, 16, 4, 12, 27, 14]",7,1,[24],61.59432051,33104,718,1,0,8,1.2804562106751427
undo,49,12,0,0,1,24,"[0, 22, 16, 4, 12, 27, 14, 24]",8,0,[],44.38966997,33756,652,1,0,8,1.4322660007679802
undo,49,12,0,1,1,24,"[0, 22, 16, 4, 12, 27, 14, 24]",8,0,[],44.38966997,36661,2905,1,0,8,1.4322660007679802
undo,50,18,0,0,0,0,[0],1,28,"[1, 2, 3, 4, 5, 6, 7, 8, 9, 10, 11, 12, 13, 14, 16, 17, 18, 19, 20, 21, 22, 23, 24, 25, 26, 27, 28, 29]",300,224,-1,3,136,10,0.0
undo,50,18,0,0,0,26,"[0, 26]",2,27,"[1, 2, 3, 4, 5, 6, 7, 8, 9, 10, 11, 12, 13, 14, 16, 17, 18, 19, 20, 21, 22, 23, 24, 25, 27, 28, 29]",258.0238163,4031,3807,1,61,10,1.0
undo,50,18,0,0,0,23,"[0, 26, 23]",3,24,"[1, 2, 3, 4, 5, 6, 7, 8, 9, 10, 12, 13, 14, 16, 17, 18, 19, 20, 21, 24, 25, 27, 28, 29]",239.422741,5283,1252,1,60,10,1.576763070488403
undo,50,18,0,0,0,7,"[0, 26, 23, 7]",4,11,"[1, 3, 5, 8, 9, 12, 13, 14, 16, 25, 28]",162.1440247,6284,1001,13,43,9,2.310471395424974
undo,50,18,0,0,0,25,"[0, 26, 23, 7, 25]",5,10,"[1, 3, 5, 8, 9, 12, 13, 14, 16, 28]",134.3411471,7165,881,11,16,9,2.760597491970773
undo,50,18,0,0,0,8,"[0, 26, 23, 7, 25, 8]",6,6,"[3, 5, 12, 13, 14, 28]",97.28713252,8216,1051,5,4,9,2.1429810432368117
undo,50,18,0,0,0,3,"[0, 26, 23, 7, 25, 8, 3]",7,4,"[5, 12, 13, 14]",69.21579482,8900,684,2,2,9,1.885854432118303
undo,50,18,0,0,0,14,"[0, 26, 23, 7, 25, 8, 3, 14]",8,1,[13],39.13257691,9916,1016,1,0,9,2.3268558804997364
undo,50,18,0,0,1,13,"[0, 26, 23, 7, 25, 8, 3, 14, 13]",9,0,[],20.15891095,10867,951,1,0,9,2.976864416093515
undo,50,18,0,1,1,13,"[0, 26, 23, 7, 25, 8, 3, 14, 13]",9,0,[],20.15891095,14840,3973,1,0,9,2.976864416093515
undo,51,10,0,0,0,0,[0],1,29,"[1, 2, 3, 4, 5, 6, 7, 8, 9, 10, 11, 12, 13, 14, 15, 16, 17, 18, 19, 20, 21, 22, 23, 24, 25, 26, 27, 28, 29]",300,159,-1,1,100,9,0.0
undo,51,10,0,0,0,13,"[0, 13]",2,25,"[1, 2, 3, 4, 6, 7, 8, 9, 10, 11, 12, 14, 17, 18, 19, 20, 21, 22, 23, 24, 25, 26, 27, 28, 29]",249.4628849,2320,2161,1,79,9,1.0
undo,51,10,0,0,0,11,"[0, 13, 11]",3,20,"[1, 2, 3, 6, 7, 8, 9, 10, 12, 14, 18, 19, 20, 21, 22, 24, 26, 27, 28, 29]",206.4512586,3903,1583,1,54,9,1.0313137484914219
undo,51,10,0,0,0,19,"[0, 13, 11, 19]",4,11,"[2, 6, 8, 9, 10, 14, 18, 20, 24, 26, 27]",170.0919407,4935,1032,1,22,9,1.0879446220132545
undo,51,10,0,0,0,2,"[0, 13, 11, 19, 2]",5,4,"[14, 20, 26, 27]",126.1829439,5939,1004,1,4,9,1.06474052351343
undo,51,10,0,0,0,14,"[0, 13, 11, 19, 2, 14]",6,3,"[20, 26, 27]",114.0174188,6806,867,1,3,9,1.1628909195912238
undo,51,10,0,0,0,26,"[0, 13, 11, 19, 2, 14, 26]",7,2,"[20, 27]",79.34754716,7621,815,1,1,9,1.6660727647633602
undo,51,10,0,0,0,20,"[0, 13, 11, 19, 2, 14, 26, 20]",8,1,[27],47.56704999,8671,1050,1,0,9,2.085581809637999
undo,51,10,0,0,1,27,"[0, 13, 11, 19, 2, 14, 26, 20, 27]",9,0,[],2.312215998,9504,833,1,0,9,1.9116357409137932
undo,51,10,0,1,1,27,"[0, 13, 11, 19, 2, 14, 26, 20, 27]",9,0,[],2.312215998,10576,1072,1,0,9,1.9116357409137932
undo,52,39,0,0,0,0,[0],1,28,"[1, 2, 3, 4, 5, 6, 7, 9, 10, 11, 12, 13, 14, 15, 16, 17, 18, 19, 20, 21, 22, 23, 24, 25, 26, 27, 28, 29]",300,168,-1,1,30,10,0.0
undo,52,39,0,0,0,14,"[0, 14]",2,26,"[1, 2, 3, 4, 5, 6, 7, 9, 10, 12, 13, 15, 16, 17, 18, 19, 20, 21, 22, 23, 24, 25, 26, 27, 28, 29]",286.9615952,4891,4723,1,22,10,1.0
undo,52,39,0,0,0,29,"[0, 14, 29]",3,23,"[1, 2, 3, 4, 5, 6, 7, 9, 10, 12, 13, 15, 16, 17, 18, 19, 21, 22, 23, 24, 25, 26, 28]",218.9321898,6306,1415,1,21,10,1.4237768813412561
undo,52,39,0,0,0,12,"[0, 14, 29, 12]",4,16,"[1, 2, 4, 5, 7, 9, 10, 13, 15, 16, 18, 19, 22, 23, 24, 26]",158.3929463,7753,1447,1,11,10,1.2085522586932163
undo,52,39,0,0,0,10,"[0, 14, 29, 12, 10]",5,11,"[1, 4, 5, 7, 15, 16, 18, 19, 22, 23, 26]",122.8823845,9020,1267,1,8,10,1.4905426536315662
undo,52,39,0,0,0,7,"[0, 14, 29, 12, 10, 7]",6,6,"[1, 16, 18, 19, 22, 26]",89.46083457,9972,952,1,6,10,1.3836596018032035
undo,52,39,0,0,0,26,"[0, 14, 29, 12, 10, 7, 26]",7,3,"[16, 19, 22]",70.77929288,11840,1868,1,4,10,1.4191124441944845
undo,52,39,0,0,0,22,"[0, 14, 29, 12, 10, 7, 26, 22]",8,2,"[16, 19]",53.05924773,15604,3764,1,1,10,1.594793297833885
undo,52,39,0,0,0,16,"[0, 14, 29, 12, 10, 7, 26, 22, 16]",9,1,[19],18.05924773,18091,2487,1,0,10,1.48519520801471
undo,52,39,0,0,1,19,"[0, 14, 29, 12, 10, 7, 26, 22, 16, 19]",10,0,[],0.594998533,18871,780,1,0,10,1.484277847976571
undo,52,39,0,1,1,19,"[0, 14, 29, 12, 10, 7, 26, 22, 16, 19]",10,0,[],0.594998533,19944,1073,1,0,10,1.484277847976571
undo,53,32,0,0,0,0,[0],1,29,"[1, 2, 3, 4, 5, 6, 7, 8, 9, 10, 11, 12, 13, 14, 15, 16, 17, 18, 19, 20, 21, 22, 23, 24, 25, 26, 27, 28, 29]",300,169,-1,17,359,10,0.0
undo,53,32,0,0,0,19,"[0, 19]",2,28,"[1, 2, 3, 4, 5, 6, 7, 8, 9, 10, 11, 12, 13, 14, 15, 16, 17, 18, 20, 21, 22, 23, 24, 25, 26, 27, 28, 29]",283.5075775,4099,3930,16,294,10,1.0
undo,53,32,0,0,0,13,"[0, 19, 13]",3,24,"[2, 3, 4, 5, 6, 8, 9, 10, 11, 12, 14, 15, 16, 17, 18, 20, 21, 22, 23, 24, 25, 26, 27, 28]",260.3127505,5050,951,14,227,10,1.0172874229878615
undo,53,32,0,0,0,15,"[0, 19, 13, 15]",4,18,"[2, 3, 5, 8, 9, 10, 11, 12, 16, 17, 20, 22, 23, 24, 25, 26, 27, 28]",177.4393531,6151,1101,9,116,10,1.435447391509833
undo,53,32,0,0,0,28,"[0, 19, 13, 15, 28]",5,17,"[2, 3, 5, 8, 9, 10, 11, 12, 16, 17, 20, 22, 23, 24, 25, 26, 27]",166.0375988,6966,815,9,70,10,1.3843701324937985
undo,53,32,0,0,0,12,"[0, 19, 13, 15, 28, 12]",6,14,"[2, 3, 5, 8, 9, 10, 11, 16, 17, 20, 22, 24, 26, 27]",147.0639329,7865,899,6,35,10,1.358372254952329
undo,53,32,0,0,0,16,"[0, 19, 13, 15, 28, 12, 16]",7,13,"[2, 3, 5, 8, 9, 10, 11, 17, 20, 22, 24, 26, 27]",131.411457,9050,1185,5,15,10,1.4356932930709845
undo,53,32,0,0,0,22,"[0, 19, 13, 15, 28, 12, 16, 22]",8,6,"[2, 8, 9, 17, 20, 27]",97.57360838,9867,817,3,5,10,1.4335226411545752
undo,53,32,0,0,0,9,"[0, 19, 13, 15, 28, 12, 16, 22, 9]",9,3,"[2, 8, 20]",75.37000507,10683,816,3,0,10,1.4837166378374758
undo,53,32,1,0,0,22,"[0, 19, 13, 15, 28, 12, 16, 22]",8,6,"[2, 8, 9, 17, 20, 27]",97.57360838,18023,7340,3,5,10,1.4335226411545752
undo,53,32,1,0,0,16,"[0, 19, 13, 15, 28, 12, 16]",7,13,"[2, 3, 5, 8, 9, 10, 11, 17, 20, 22, 24, 26, 27]",131.411457,21057,3034,5,15,10,1.4356932930709845
undo,53,32,0,0,0,27,"[0, 19, 13, 15, 28, 12, 16, 27]",8,2,"[3, 11]",55.13564171,23355,2298,2,0,10,1.3380566026775955
undo,53,32,0,0,0,3,"[0, 19, 13, 15, 28, 12, 16, 27, 3]",9,1,[11],29.64054414,24367,1012,1,0,10,1.3269345554887129
undo,53,32,0,0,1,11,"[0, 19, 13, 15, 28, 12, 16, 27, 3, 11]",10,0,[],14.02004479,25169,802,1,0,10,1.356452519014518
undo,53,32,0,1,1,11,"[0, 19, 13, 15, 28, 12, 16, 27, 3, 11]",10,0,[],14.02004479,26292,1123,1,0,10,1.356452519014518
undo,54,27,0,0,0,0,[0],1,26,"[1, 3, 5, 6, 7, 8, 9, 10, 11, 12, 13, 14, 15, 16, 17, 18, 19, 21, 22, 23, 24, 25, 26, 27, 28, 29]",300,159,-1,13,578,11,0.0
undo,54,27,0,0,0,15,"[0, 15]",2,24,"[1, 3, 5, 6, 7, 8, 9, 10, 11, 12, 13, 14, 16, 17, 18, 19, 21, 22, 23, 24, 25, 26, 27, 29]",263.7508621,2353,2194,6,219,11,1.0
undo,54,27,0,0,0,24,"[0, 15, 24]",3,20,"[1, 5, 6, 7, 8, 9, 10, 12, 13, 14, 16, 17, 18, 19, 21, 23, 25, 26, 27, 29]",246.5462115,3115,762,6,130,11,1.130933077698322
undo,54,27,0,0,0,17,"[0, 15, 24, 17]",4,15,"[1, 6, 8, 10, 12, 13, 14, 16, 18, 19, 23, 25, 26, 27, 29]",229.9932662,3917,802,4,60,11,1.1285538435963374
undo,54,27,0,0,0,12,"[0, 15, 24, 17, 12]",5,14,"[1, 6, 8, 10, 13, 14, 16, 18, 19, 23, 25, 26, 27, 29]",218.8129263,4679,762,2,32,11,1.2561880288755216
undo,54,27,0,0,0,10,"[0, 15, 24, 17, 12, 10]",6,11,"[1, 8, 13, 14, 18, 19, 23, 25, 26, 27, 29]",207.7675653,5452,773,2,28,11,1.2228289337766665
undo,54,27,0,0,0,13,"[0, 15, 24, 17, 12, 10, 13]",7,9,"[1, 8, 14, 18, 19, 23, 26, 27, 29]",167.9178476,6270,818,2,18,11,1.3421291994761178
undo,54,27,0,0,0,19,"[0, 15, 24, 17, 12, 10, 13, 19]",8,5,"[1, 8, 14, 23, 29]",131.6825057,7201,931,2,6,11,1.294749956153846
undo,54,27,0,0,0,8,"[0, 15, 24, 17, 12, 10, 13, 19, 8]",9,3,"[14, 23, 29]",116.816437,8103,902,2,1,11,1.3554286578836865
undo,54,27,0,0,0,29,"[0, 15, 24, 17, 12, 10, 13, 19, 8, 29]",10,1,[14],57.61339652,9679,1576,1,0,11,1.248354519573802
undo,54,27,0,0,1,14,"[0, 15, 24, 17, 12, 10, 13, 19, 8, 29, 14]",11,0,[],13.31892734,12133,2454,1,0,11,1.562811097555156
undo,54,27,0,1,1,14,"[0, 15, 24, 17, 12, 10, 13, 19, 8, 29, 14]",11,0,[],13.31892734,13424,1291,1,0,11,1.562811097555156
undo,55,30,0,0,0,0,[0],1,19,"[3, 4, 5, 7, 9, 11, 16, 17, 18, 19, 20, 21, 22, 24, 25, 26, 27, 28, 29]",300,186,-1,5,41,8,0.0
undo,55,30,0,0,0,16,"[0, 16]",2,17,"[3, 5, 7, 9, 11, 17, 18, 19, 20, 21, 22, 24, 25, 26, 27, 28, 29]",219.3774225,4420,4234,5,34,8,1.0
undo,55,30,0,0,0,25,"[0, 16, 25]",3,10,"[3, 5, 7, 9, 11, 18, 19, 20, 27, 29]",115.0845656,6437,2017,5,28,8,1.0336279544884488
undo,55,30,0,0,0,20,"[0, 16, 25, 20]",4,8,"[3, 5, 7, 9, 18, 19, 27, 29]",93.15285342,7810,1373,4,14,8,1.0337964627284246
undo,55,30,0,0,0,27,"[0, 16, 25, 20, 27]",5,4,"[3, 5, 18, 29]",59.09408069,8803,993,4,6,8,1.1504365534848
undo,55,30,0,0,0,3,"[0, 16, 25, 20, 27, 3]",6,3,"[5, 18, 29]",39.98910751,11089,2286,4,0,8,1.1403876826835333
undo,55,30,0,0,0,29,"[0, 16, 25, 20, 27, 3, 29]",7,1,[18],21.38803228,12670,1581,1,0,8,1.1443827771455848
undo,55,30,0,0,1,18,"[0, 16, 25, 20, 27, 3, 29, 18]",8,0,[],2.074824359,13454,784,1,0,8,1.2197761544023602
undo,55,30,0,1,1,18,"[0, 16, 25, 20, 27, 3, 29, 18]",8,0,[],2.074824359,23663,10209,1,0,8,1.2197761544023602
