condition,trial_id,map_id,undoIndicator,submit,checkEnd,currentChoice,chosen_all,n_city_all,n_within_reach,cities_reach,currentBudget,time_all,rt_all,n_opt_paths_all,n_subopt_paths_all,mas_all,tortuosity_all
undo,0,27,0,0,0,0,[0],1,26,"[1, 3, 5, 6, 7, 8, 9, 10, 11, 12, 13, 14, 15, 16, 17, 18, 19, 21, 22, 23, 24, 25, 26, 27, 28, 29]",300,180,-1,13,578,11,0.0
undo,0,27,0,0,0,15,"[0, 15]",2,24,"[1, 3, 5, 6, 7, 8, 9, 10, 11, 12, 13, 14, 16, 17, 18, 19, 21, 22, 23, 24, 25, 26, 27, 29]",263.7508621,10238,10058,6,219,11,1.0
undo,0,27,0,0,0,24,"[0, 15, 24]",3,20,"[1, 5, 6, 7, 8, 9, 10, 12, 13, 14, 16, 17, 18, 19, 21, 23, 25, 26, 27, 29]",246.5462115,11071,833,6,130,11,1.130933077698322
undo,0,27,0,0,0,17,"[0, 15, 24, 17]",4,15,"[1, 6, 8, 10, 12, 13, 14, 16, 18, 19, 23, 25, 26, 27, 29]",229.9932662,11880,809,4,60,11,1.1285538435963374
undo,0,27,0,0,0,12,"[0, 15, 24, 17, 12]",5,14,"[1, 6, 8, 10, 13, 14, 16, 18, 19, 23, 25, 26, 27, 29]",218.8129263,12599,719,2,32,11,1.2561880288755216
undo,0,27,0,0,0,10,"[0, 15, 24, 17, 12, 10]",6,11,"[1, 8, 13, 14, 18, 19, 23, 25, 26, 27, 29]",207.7675653,13226,627,2,28,11,1.2228289337766665
undo,0,27,0,0,0,13,"[0, 15, 24, 17, 12, 10, 13]",7,9,"[1, 8, 14, 18, 19, 23, 26, 27, 29]",167.9178476,14325,1099,2,18,11,1.3421291994761178
undo,0,27,0,0,0,19,"[0, 15, 24, 17, 12, 10, 13, 19]",8,5,"[1, 8, 14, 23, 29]",131.6825057,15277,952,2,6,11,1.294749956153846
undo,0,27,0,0,0,8,"[0, 15, 24, 17, 12, 10, 13, 19, 8]",9,3,"[14, 23, 29]",116.816437,15926,649,2,1,11,1.3554286578836865
undo,0,27,0,0,0,29,"[0, 15, 24, 17, 12, 10, 13, 19, 8, 29]",10,1,[14],57.61339652,18361,2435,1,0,11,1.248354519573802
undo,0,27,0,0,1,14,"[0, 15, 24, 17, 12, 10, 13, 19, 8, 29, 14]",11,0,[],13.31892734,19623,1262,1,0,11,1.562811097555156
undo,0,27,0,1,1,14,"[0, 15, 24, 17, 12, 10, 13, 19, 8, 29, 14]",11,0,[],13.31892734,21214,1591,1,0,11,1.562811097555156
undo,1,4,0,0,0,0,[0],1,26,"[3, 4, 5, 6, 7, 8, 10, 11, 12, 13, 14, 15, 16, 17, 18, 19, 20, 21, 22, 23, 24, 25, 26, 27, 28, 29]",300,180,-1,4,489,10,0.0
undo,1,4,0,0,0,28,"[0, 28]",2,21,"[3, 4, 5, 6, 10, 11, 12, 13, 14, 15, 16, 17, 19, 20, 21, 22, 23, 24, 25, 26, 27]",225.9392142,10756,10576,2,216,10,1.0
undo,1,4,0,0,0,25,"[0, 28, 25]",3,15,"[3, 4, 5, 6, 11, 12, 13, 14, 16, 17, 20, 21, 22, 23, 24]",171.9021898,12273,1517,69,420,9,1.0101483986051152
undo,1,4,1,0,0,28,"[0, 28]",2,21,"[3, 4, 5, 6, 10, 11, 12, 13, 14, 15, 16, 17, 19, 20, 21, 22, 23, 24, 25, 26, 27]",225.9392142,14380,2107,2,216,10,1.0
undo,1,4,0,0,0,11,"[0, 28, 11]",3,16,"[3, 4, 5, 6, 12, 13, 14, 16, 17, 20, 21, 22, 23, 24, 25, 26]",177.0618165,15229,849,1,99,10,1.0005230107421244
undo,1,4,0,0,0,16,"[0, 28, 11, 16]",4,13,"[3, 4, 5, 6, 12, 13, 14, 17, 20, 21, 22, 24, 25]",162.0618165,16188,959,38,165,9,1.0006824277240565
undo,1,4,0,0,0,17,"[0, 28, 11, 16, 17]",5,12,"[3, 4, 5, 6, 12, 13, 14, 20, 21, 22, 24, 25]",135.9850069,17124,936,9,39,9,1.000593778858539
undo,1,4,0,0,0,3,"[0, 28, 11, 16, 17, 3]",6,6,"[5, 14, 20, 21, 22, 25]",111.4697056,17957,833,2,7,9,1.0809398822985845
undo,1,4,0,0,0,14,"[0, 28, 11, 16, 17, 3, 14]",7,1,[25],70.03300684,18974,1017,1,0,8,1.6839831140088701
undo,1,4,0,0,1,25,"[0, 28, 11, 16, 17, 3, 14, 25]",8,0,[],53.90849134,20469,1495,1,0,8,1.9406182119358029
undo,1,4,1,0,0,14,"[0, 28, 11, 16, 17, 3, 14]",7,1,[25],70.03300684,22378,1909,1,0,8,1.6839831140088701
undo,1,4,1,0,0,3,"[0, 28, 11, 16, 17, 3]",6,6,"[5, 14, 20, 21, 22, 25]",111.4697056,22880,502,2,7,9,1.0809398822985845
undo,1,4,1,0,0,17,"[0, 28, 11, 16, 17]",5,12,"[3, 4, 5, 6, 12, 13, 14, 20, 21, 22, 24, 25]",135.9850069,23345,465,9,39,9,1.000593778858539
undo,1,4,1,0,0,16,"[0, 28, 11, 16]",4,13,"[3, 4, 5, 6, 12, 13, 14, 17, 20, 21, 22, 24, 25]",162.0618165,23830,485,38,165,9,1.0006824277240565
undo,1,4,1,0,0,11,"[0, 28, 11]",3,16,"[3, 4, 5, 6, 12, 13, 14, 16, 17, 20, 21, 22, 23, 24, 25, 26]",177.0618165,24261,431,1,99,10,1.0005230107421244
undo,1,4,1,0,0,28,"[0, 28]",2,21,"[3, 4, 5, 6, 10, 11, 12, 13, 14, 15, 16, 17, 19, 20, 21, 22, 23, 24, 25, 26, 27]",225.9392142,24696,435,2,216,10,1.0
undo,1,4,1,0,0,0,[0],1,26,"[3, 4, 5, 6, 7, 8, 10, 11, 12, 13, 14, 15, 16, 17, 18, 19, 20, 21, 22, 23, 24, 25, 26, 27, 28, 29]",300,25331,635,4,489,10,0.0
undo,1,4,0,0,0,6,"[0, 6]",2,17,"[3, 4, 5, 10, 11, 13, 14, 15, 16, 17, 19, 20, 21, 22, 23, 25, 28]",207.2368608,26891,1560,37,365,8,1.0
undo,1,4,0,0,0,14,"[0, 6, 14]",3,12,"[3, 4, 5, 11, 13, 16, 17, 20, 21, 22, 25, 28]",131.6987909,28125,1234,20,118,8,1.2324220545619278
undo,1,4,0,0,0,3,"[0, 6, 14, 3]",4,7,"[11, 16, 17, 20, 21, 22, 25]",90.26209219,29006,881,1,11,8,1.2025338956967797
undo,1,4,0,0,0,17,"[0, 6, 14, 3, 17]",5,6,"[11, 16, 20, 21, 22, 25]",65.74679084,30025,1019,1,7,8,1.4290907150191754
undo,1,4,0,0,0,16,"[0, 6, 14, 3, 17, 16]",6,2,"[11, 25]",39.66998122,31020,995,1,1,8,1.8885827592634608
undo,1,4,0,0,0,11,"[0, 6, 14, 3, 17, 16, 11]",7,1,[25],24.66998122,31888,868,1,0,8,2.240752315471224
undo,1,4,0,0,1,25,"[0, 6, 14, 3, 17, 16, 11, 25]",8,0,[],5.881686994,32674,786,1,0,8,2.319345993655783
undo,1,4,1,0,0,11,"[0, 6, 14, 3, 17, 16, 11]",7,1,[25],24.66998122,34045,1371,1,0,8,2.240752315471224
undo,1,4,1,0,0,16,"[0, 6, 14, 3, 17, 16]",6,2,"[11, 25]",39.66998122,34486,441,1,1,8,1.8885827592634608
undo,1,4,1,0,0,17,"[0, 6, 14, 3, 17]",5,6,"[11, 16, 20, 21, 22, 25]",65.74679084,34845,359,1,7,8,1.4290907150191754
undo,1,4,1,0,0,3,"[0, 6, 14, 3]",4,7,"[11, 16, 17, 20, 21, 22, 25]",90.26209219,35200,355,1,11,8,1.2025338956967797
undo,1,4,1,0,0,14,"[0, 6, 14]",3,12,"[3, 4, 5, 11, 13, 16, 17, 20, 21, 22, 25, 28]",131.6987909,35623,423,20,118,8,1.2324220545619278
undo,1,4,1,0,0,6,"[0, 6]",2,17,"[3, 4, 5, 10, 11, 13, 14, 15, 16, 17, 19, 20, 21, 22, 23, 25, 28]",207.2368608,35948,325,37,365,8,1.0
undo,1,4,1,0,0,0,[0],1,26,"[3, 4, 5, 6, 7, 8, 10, 11, 12, 13, 14, 15, 16, 17, 18, 19, 20, 21, 22, 23, 24, 25, 26, 27, 28, 29]",300,36312,364,4,489,10,0.0
undo,1,4,0,0,0,13,"[0, 13]",2,23,"[3, 4, 5, 6, 7, 10, 11, 12, 14, 15, 16, 17, 19, 20, 21, 22, 23, 24, 25, 26, 27, 28, 29]",232.1030192,42037,5725,2,270,10,1.0
undo,1,4,0,0,0,28,"[0, 13, 28]",3,19,"[3, 4, 5, 6, 10, 11, 12, 14, 15, 16, 17, 19, 20, 21, 22, 23, 24, 25, 26]",200.5277124,42804,767,2,221,10,1.3431168257921573
undo,1,4,0,0,0,11,"[0, 13, 28, 11]",4,13,"[3, 4, 5, 6, 12, 14, 16, 17, 20, 21, 22, 24, 25]",151.6503148,44345,1541,1,107,10,1.2073325752283492
undo,1,4,0,0,0,16,"[0, 13, 28, 11, 16]",5,11,"[3, 4, 5, 6, 14, 17, 20, 21, 22, 24, 25]",136.6503148,45171,826,47,79,9,1.1850319861135215
undo,1,4,0,0,0,17,"[0, 13, 28, 11, 16, 17]",6,8,"[3, 5, 14, 20, 21, 22, 24, 25]",110.5735051,46088,917,14,13,9,1.1556197928341636
undo,1,4,0,0,0,3,"[0, 13, 28, 11, 16, 17, 3]",7,5,"[14, 20, 21, 22, 25]",86.0582038,46961,873,4,1,9,1.2266369218759134
undo,1,4,0,0,0,14,"[0, 13, 28, 11, 16, 17, 3, 14]",8,1,[25],44.62150509,47955,994,1,0,9,1.870064339234239
undo,1,4,0,0,1,25,"[0, 13, 28, 11, 16, 17, 3, 14, 25]",9,0,[],28.49698959,48688,733,1,0,9,2.141007178451591
undo,1,4,0,1,1,25,"[0, 13, 28, 11, 16, 17, 3, 14, 25]",9,0,[],28.49698959,50479,1791,1,0,9,2.141007178451591
undo,2,10,0,0,0,0,[0],1,29,"[1, 2, 3, 4, 5, 6, 7, 8, 9, 10, 11, 12, 13, 14, 15, 16, 17, 18, 19, 20, 21, 22, 23, 24, 25, 26, 27, 28, 29]",300,215,-1,1,100,9,0.0
undo,2,10,0,0,0,13,"[0, 13]",2,25,"[1, 2, 3, 4, 6, 7, 8, 9, 10, 11, 12, 14, 17, 18, 19, 20, 21, 22, 23, 24, 25, 26, 27, 28, 29]",249.4628849,6988,6773,1,79,9,1.0
undo,2,10,0,0,0,11,"[0, 13, 11]",3,20,"[1, 2, 3, 6, 7, 8, 9, 10, 12, 14, 18, 19, 20, 21, 22, 24, 26, 27, 28, 29]",206.4512586,8162,1174,1,54,9,1.0313137484914219
undo,2,10,0,0,0,19,"[0, 13, 11, 19]",4,11,"[2, 6, 8, 9, 10, 14, 18, 20, 24, 26, 27]",170.0919407,9072,910,1,22,9,1.0879446220132545
undo,2,10,0,0,0,2,"[0, 13, 11, 19, 2]",5,4,"[14, 20, 26, 27]",126.1829439,10025,953,1,4,9,1.06474052351343
undo,2,10,0,0,0,14,"[0, 13, 11, 19, 2, 14]",6,3,"[20, 26, 27]",114.0174188,10815,790,1,3,9,1.1628909195912238
undo,2,10,0,0,0,26,"[0, 13, 11, 19, 2, 14, 26]",7,2,"[20, 27]",79.34754716,11831,1016,1,1,9,1.6660727647633602
undo,2,10,0,0,0,20,"[0, 13, 11, 19, 2, 14, 26, 20]",8,1,[27],47.56704999,12815,984,1,0,9,2.085581809637999
undo,2,10,0,0,1,27,"[0, 13, 11, 19, 2, 14, 26, 20, 27]",9,0,[],2.312215998,13912,1097,1,0,9,1.9116357409137932
undo,2,10,0,1,1,27,"[0, 13, 11, 19, 2, 14, 26, 20, 27]",9,0,[],2.312215998,15841,1929,1,0,9,1.9116357409137932
undo,3,41,0,0,0,0,[0],1,29,"[1, 2, 3, 4, 5, 6, 7, 8, 9, 10, 11, 12, 13, 14, 15, 16, 17, 18, 19, 20, 21, 22, 23, 24, 25, 26, 27, 28, 29]",300,193,-1,1,143,10,0.0
undo,3,41,0,0,0,13,"[0, 13]",2,23,"[1, 2, 3, 5, 6, 7, 9, 10, 11, 12, 14, 15, 17, 18, 19, 20, 21, 22, 24, 25, 26, 27, 28]",258.2747079,7453,7260,1,55,10,1.0
undo,3,41,0,0,0,28,"[0, 13, 28]",3,22,"[1, 2, 3, 5, 6, 7, 9, 10, 11, 12, 14, 15, 17, 18, 19, 20, 21, 22, 24, 25, 26, 27]",223.7928286,8987,1534,1,39,10,1.895724242592676
undo,3,41,0,0,0,5,"[0, 13, 28, 5]",4,19,"[1, 2, 3, 6, 9, 10, 11, 12, 14, 15, 17, 18, 19, 20, 21, 22, 24, 25, 27]",210.1913581,9901,914,1,34,10,2.861541269398273
undo,3,41,0,0,0,3,"[0, 13, 28, 5, 3]",5,16,"[1, 2, 6, 9, 10, 12, 14, 17, 18, 19, 20, 21, 22, 24, 25, 27]",175.3632086,10987,1086,1,22,10,3.1455488489005883
undo,3,41,0,0,0,21,"[0, 13, 28, 5, 3, 21]",6,14,"[1, 2, 6, 9, 10, 12, 14, 17, 18, 19, 20, 22, 25, 27]",143.2228912,11912,925,13,11,9,3.207558429289677
undo,3,41,0,0,0,9,"[0, 13, 28, 5, 3, 21, 9]",7,6,"[1, 2, 10, 12, 14, 17]",93.85691102,14199,2287,7,4,9,2.5050148501792275
undo,3,41,0,0,0,2,"[0, 13, 28, 5, 3, 21, 9, 2]",8,5,"[1, 10, 12, 14, 17]",81.77386505,15150,951,5,0,9,2.4119643847713177
undo,3,41,0,0,1,17,"[0, 13, 28, 5, 3, 21, 9, 2, 17]",9,0,[],49.21622385,16400,1250,1,0,9,3.9563478735796007
undo,3,41,1,0,0,2,"[0, 13, 28, 5, 3, 21, 9, 2]",8,5,"[1, 10, 12, 14, 17]",81.77386505,20690,4290,5,0,9,2.4119643847713177
undo,3,41,0,0,1,1,"[0, 13, 28, 5, 3, 21, 9, 2, 1]",9,0,[],0.502713952,22971,2281,1,0,9,1.9608520643587226
undo,3,41,0,1,1,1,"[0, 13, 28, 5, 3, 21, 9, 2, 1]",9,0,[],0.502713952,31526,8555,1,0,9,1.9608520643587226
undo,4,29,0,0,0,0,[0],1,29,"[1, 2, 3, 4, 5, 6, 7, 8, 9, 10, 11, 12, 13, 14, 15, 16, 17, 18, 19, 20, 21, 22, 23, 24, 25, 26, 27, 28, 29]",300,164,-1,1,78,9,0.0
undo,4,29,0,0,0,14,"[0, 14]",2,22,"[1, 3, 4, 5, 6, 7, 9, 10, 11, 12, 13, 15, 16, 17, 21, 22, 23, 25, 26, 27, 28, 29]",209.490332,7239,7075,21,110,8,1.0
undo,4,29,0,0,0,13,"[0, 14, 13]",3,18,"[1, 4, 5, 6, 7, 9, 10, 12, 15, 16, 17, 21, 22, 25, 26, 27, 28, 29]",191.4625756,7992,753,20,75,8,1.0027006502223275
undo,4,29,0,0,0,5,"[0, 14, 13, 5]",4,15,"[1, 4, 6, 7, 9, 12, 15, 17, 21, 22, 25, 26, 27, 28, 29]",165.7526554,9150,1158,19,49,8,1.0803937325657265
undo,4,29,0,0,0,4,"[0, 14, 13, 5, 4]",5,5,"[7, 9, 12, 21, 22]",113.8585324,11376,2226,5,5,8,1.0589046774357636
undo,4,29,0,0,0,9,"[0, 14, 13, 5, 4, 9]",6,3,"[7, 12, 21]",72.82196333,12474,1098,2,1,8,1.2033484462540056
undo,4,29,0,0,0,7,"[0, 14, 13, 5, 4, 9, 7]",7,1,[12],43.75307962,13437,963,1,0,8,1.5581999677939193
undo,4,29,0,0,1,12,"[0, 14, 13, 5, 4, 9, 7, 12]",8,0,[],30.15160911,14090,653,1,0,8,1.747955919287298
undo,4,29,1,0,0,7,"[0, 14, 13, 5, 4, 9, 7]",7,1,[12],43.75307962,16367,2277,1,0,8,1.5581999677939193
undo,4,29,1,0,0,9,"[0, 14, 13, 5, 4, 9]",6,3,"[7, 12, 21]",72.82196333,16769,402,2,1,8,1.2033484462540056
undo,4,29,1,0,0,4,"[0, 14, 13, 5, 4]",5,5,"[7, 9, 12, 21, 22]",113.8585324,17132,363,5,5,8,1.0589046774357636
undo,4,29,1,0,0,5,"[0, 14, 13, 5]",4,15,"[1, 4, 6, 7, 9, 12, 15, 17, 21, 22, 25, 26, 27, 28, 29]",165.7526554,17468,336,19,49,8,1.0803937325657265
undo,4,29,1,0,0,13,"[0, 14, 13]",3,18,"[1, 4, 5, 6, 7, 9, 10, 12, 15, 16, 17, 21, 22, 25, 26, 27, 28, 29]",191.4625756,17817,349,20,75,8,1.0027006502223275
undo,4,29,1,0,0,14,"[0, 14]",2,22,"[1, 3, 4, 5, 6, 7, 9, 10, 11, 12, 13, 15, 16, 17, 21, 22, 23, 25, 26, 27, 28, 29]",209.490332,18284,467,21,110,8,1.0
undo,4,29,1,0,0,0,[0],1,29,"[1, 2, 3, 4, 5, 6, 7, 8, 9, 10, 11, 12, 13, 14, 15, 16, 17, 18, 19, 20, 21, 22, 23, 24, 25, 26, 27, 28, 29]",300,18686,402,1,78,9,0.0
undo,4,29,0,0,0,6,"[0, 6]",2,28,"[1, 2, 3, 4, 5, 7, 8, 9, 10, 11, 12, 13, 14, 15, 16, 17, 18, 19, 20, 21, 22, 23, 24, 25, 26, 27, 28, 29]",228.4108947,19973,1287,1,25,9,1.0
undo,4,29,0,0,0,28,"[0, 6, 28]",3,24,"[1, 3, 4, 5, 7, 9, 10, 11, 12, 13, 14, 15, 16, 17, 18, 20, 21, 22, 23, 24, 25, 26, 27, 29]",187.1798384,20779,806,1,22,9,1.162106788166845
undo,4,29,0,0,0,27,"[0, 6, 28, 27]",4,19,"[1, 3, 4, 5, 7, 9, 10, 11, 12, 13, 14, 15, 16, 21, 22, 23, 25, 26, 29]",166.6615539,21791,1012,1,21,9,1.2307173895439045
undo,4,29,0,0,0,22,"[0, 6, 28, 27, 22]",5,13,"[1, 3, 4, 5, 7, 9, 12, 13, 14, 15, 21, 26, 29]",133.4200136,22692,901,1,19,9,1.4241767805149903
undo,4,29,0,0,0,12,"[0, 6, 28, 27, 22, 12]",6,8,"[4, 5, 7, 9, 13, 14, 21, 26]",95.4726817,23576,884,1,6,9,1.3248355326460857
undo,4,29,0,0,0,7,"[0, 6, 28, 27, 22, 12, 7]",7,4,"[4, 5, 9, 21]",81.87121119,24227,651,1,3,9,1.3264091962339806
undo,4,29,0,0,0,9,"[0, 6, 28, 27, 22, 12, 7, 9]",8,1,[4],52.80232748,25027,800,1,0,9,1.309391257644539
undo,4,29,0,0,1,4,"[0, 6, 28, 27, 22, 12, 7, 9, 4]",9,0,[],11.76575843,26310,1283,1,0,9,1.6396807789841599
undo,4,29,0,1,1,4,"[0, 6, 28, 27, 22, 12, 7, 9, 4]",9,0,[],11.76575843,27897,1587,1,0,9,1.6396807789841599
undo,5,14,0,0,0,0,[0],1,29,"[1, 2, 3, 4, 5, 6, 7, 8, 9, 10, 11, 12, 13, 14, 15, 16, 17, 18, 19, 20, 21, 22, 23, 24, 25, 26, 27, 28, 29]",300,193,-1,8,157,10,0.0
undo,5,14,0,0,0,15,"[0, 15]",2,20,"[1, 2, 3, 4, 7, 8, 9, 13, 17, 18, 19, 20, 21, 22, 23, 25, 26, 27, 28, 29]",216.7053423,3199,3006,8,102,10,1.0
undo,5,14,0,0,0,28,"[0, 15, 28]",3,17,"[1, 2, 3, 4, 7, 8, 9, 13, 17, 18, 19, 20, 22, 23, 25, 26, 27]",197.4959696,4880,1681,8,48,10,1.0446007867311968
undo,5,14,0,0,0,17,"[0, 15, 28, 17]",4,14,"[1, 2, 3, 4, 7, 8, 13, 18, 19, 20, 22, 23, 25, 26]",184.0423455,5886,1006,8,39,10,1.0729463354689972
undo,5,14,0,0,0,18,"[0, 15, 28, 17, 18]",5,9,"[1, 2, 4, 7, 8, 19, 23, 25, 26]",119.412631,7615,1729,8,27,10,1.5035901079219378
undo,5,14,0,0,0,8,"[0, 15, 28, 17, 18, 8]",6,8,"[1, 2, 4, 7, 19, 23, 25, 26]",105.8111605,8649,1034,8,18,10,1.4819689987843856
undo,5,14,0,0,0,1,"[0, 15, 28, 17, 18, 8, 1]",7,5,"[7, 19, 23, 25, 26]",82.21031307,9616,967,4,6,10,1.4084991998385268
undo,5,14,0,0,0,19,"[0, 15, 28, 17, 18, 8, 1, 19]",8,4,"[7, 23, 25, 26]",66.97876686,10815,1199,4,1,10,1.5758713333797987
undo,5,14,0,0,0,23,"[0, 15, 28, 17, 18, 8, 1, 19, 23]",9,1,[26],22.70687962,12195,1380,1,0,10,1.4751929839361517
undo,5,14,0,0,1,26,"[0, 15, 28, 17, 18, 8, 1, 19, 23, 26]",10,0,[],11.89022579,13290,1095,1,0,10,1.4521765305442214
undo,5,14,0,1,1,26,"[0, 15, 28, 17, 18, 8, 1, 19, 23, 26]",10,0,[],11.89022579,15174,1884,1,0,10,1.4521765305442214
undo,6,6,0,0,0,0,[0],1,29,"[1, 2, 3, 4, 5, 6, 7, 8, 9, 10, 11, 12, 13, 14, 15, 16, 17, 18, 19, 20, 21, 22, 23, 24, 25, 26, 27, 28, 29]",300,178,-1,180,4304,10,0.0
undo,6,6,0,0,0,3,"[0, 3]",2,28,"[1, 2, 4, 5, 6, 7, 8, 9, 10, 11, 12, 13, 14, 15, 16, 17, 18, 19, 20, 21, 22, 23, 24, 25, 26, 27, 28, 29]",266.4738908,2591,2413,90,1607,10,1.0
undo,6,6,1,0,0,0,[0],1,29,"[1, 2, 3, 4, 5, 6, 7, 8, 9, 10, 11, 12, 13, 14, 15, 16, 17, 18, 19, 20, 21, 22, 23, 24, 25, 26, 27, 28, 29]",300,7981,5390,180,4304,10,0.0
undo,6,6,0,0,0,26,"[0, 26]",2,25,"[1, 2, 3, 4, 5, 6, 7, 8, 9, 10, 11, 12, 13, 14, 15, 16, 17, 18, 20, 21, 22, 23, 24, 27, 29]",250.2606795,10671,2690,45,776,10,1.0
undo,6,6,0,0,0,2,"[0, 26, 2]",3,20,"[1, 3, 4, 5, 6, 7, 8, 9, 10, 13, 14, 16, 17, 18, 21, 22, 23, 24, 27, 29]",220.4278118,11593,922,20,184,10,1.003152463832065
undo,6,6,0,0,0,7,"[0, 26, 2, 7]",4,18,"[1, 3, 4, 6, 8, 9, 10, 13, 14, 16, 17, 18, 21, 22, 23, 24, 27, 29]",179.3182022,12533,940,20,157,10,2.5131135963314413
undo,6,6,0,0,0,3,"[0, 26, 2, 7, 3]",5,13,"[1, 6, 8, 10, 13, 16, 17, 18, 21, 22, 23, 24, 29]",143.1795802,13557,1024,18,67,10,4.677560963942129
undo,6,6,0,0,0,24,"[0, 26, 2, 7, 3, 24]",6,7,"[6, 10, 16, 17, 18, 23, 29]",79.22647236,18640,5083,1,6,10,2.269152829670126
undo,6,6,0,0,0,10,"[0, 26, 2, 7, 3, 24, 10]",7,3,"[16, 17, 18]",65.81006449,19422,782,1,3,10,2.776587067894167
undo,6,6,0,0,0,17,"[0, 26, 2, 7, 3, 24, 10, 17]",8,2,"[16, 18]",46.08698157,20289,867,1,1,10,3.5977145070738255
undo,6,6,0,0,0,18,"[0, 26, 2, 7, 3, 24, 10, 17, 18]",9,1,[16],32.15859329,21065,776,1,0,10,4.3979400049313275
undo,6,6,0,0,1,16,"[0, 26, 2, 7, 3, 24, 10, 17, 18, 16]",10,0,[],8.81335823,21898,833,1,0,10,4.034155051068736
undo,6,6,0,1,1,16,"[0, 26, 2, 7, 3, 24, 10, 17, 18, 16]",10,0,[],8.81335823,23229,1331,1,0,10,4.034155051068736
undo,7,15,0,0,0,0,[0],1,25,"[1, 2, 3, 4, 7, 8, 9, 10, 11, 12, 13, 14, 15, 16, 18, 20, 21, 22, 23, 24, 25, 26, 27, 28, 29]",300,177,-1,4,65,9,0.0
undo,7,15,0,0,0,7,"[0, 7]",2,23,"[1, 3, 4, 8, 9, 10, 11, 12, 13, 14, 15, 16, 18, 20, 21, 22, 23, 24, 25, 26, 27, 28, 29]",215.1884442,4336,4159,30,107,8,1.0
undo,7,15,0,0,0,16,"[0, 7, 16]",3,14,"[3, 4, 9, 10, 11, 12, 13, 14, 15, 18, 21, 22, 25, 27]",171.5306843,7637,3301,11,27,8,1.1253230463291073
undo,7,15,0,0,0,11,"[0, 7, 16, 11]",4,10,"[3, 4, 12, 13, 14, 15, 18, 21, 22, 27]",145.5114606,8573,936,6,10,8,1.2441772230587118
undo,7,15,0,0,0,3,"[0, 7, 16, 11, 3]",5,8,"[4, 12, 13, 14, 15, 18, 21, 22]",134.1097064,9508,935,6,4,8,1.253153736954923
undo,7,15,0,0,0,22,"[0, 7, 16, 11, 3, 22]",6,5,"[4, 13, 14, 15, 18]",84.38043933,10589,1081,2,3,8,1.249784727890499
undo,7,15,0,0,0,15,"[0, 7, 16, 11, 3, 22, 15]",7,1,[13],58.76794238,11423,834,1,0,8,1.2283958862490272
undo,7,15,0,0,1,13,"[0, 7, 16, 11, 3, 22, 15, 13]",8,0,[],43.50360486,12137,714,1,0,8,1.2803073001953094
undo,7,15,1,0,0,15,"[0, 7, 16, 11, 3, 22, 15]",7,1,[13],58.76794238,13664,1527,1,0,8,1.2283958862490272
undo,7,15,1,0,0,22,"[0, 7, 16, 11, 3, 22]",6,5,"[4, 13, 14, 15, 18]",84.38043933,14044,380,2,3,8,1.249784727890499
undo,7,15,1,0,0,3,"[0, 7, 16, 11, 3]",5,8,"[4, 12, 13, 14, 15, 18, 21, 22]",134.1097064,14311,267,6,4,8,1.253153736954923
undo,7,15,1,0,0,11,"[0, 7, 16, 11]",4,10,"[3, 4, 12, 13, 14, 15, 18, 21, 22, 27]",145.5114606,14678,367,6,10,8,1.2441772230587118
undo,7,15,1,0,0,16,"[0, 7, 16]",3,14,"[3, 4, 9, 10, 11, 12, 13, 14, 15, 18, 21, 22, 25, 27]",171.5306843,15027,349,11,27,8,1.1253230463291073
undo,7,15,1,0,0,7,"[0, 7]",2,23,"[1, 3, 4, 8, 9, 10, 11, 12, 13, 14, 15, 16, 18, 20, 21, 22, 23, 24, 25, 26, 27, 28, 29]",215.1884442,15379,352,30,107,8,1.0
undo,7,15,1,0,0,0,[0],1,25,"[1, 2, 3, 4, 7, 8, 9, 10, 11, 12, 13, 14, 15, 16, 18, 20, 21, 22, 23, 24, 25, 26, 27, 28, 29]",300,15745,366,4,65,9,0.0
undo,7,15,0,0,0,12,"[0, 12]",2,22,"[1, 2, 3, 4, 7, 8, 9, 10, 11, 13, 14, 15, 16, 18, 21, 22, 23, 24, 26, 27, 28, 29]",213.547701,19293,3548,4,35,9,1.0
undo,7,15,0,0,0,7,"[0, 12, 7]",3,16,"[1, 3, 4, 8, 9, 10, 11, 13, 14, 15, 16, 18, 21, 22, 24, 27]",180.3061607,20236,943,4,29,9,1.411291635294361
undo,7,15,0,0,0,16,"[0, 12, 7, 16]",4,10,"[3, 4, 10, 11, 13, 14, 15, 18, 21, 22]",136.6484008,21223,987,2,11,9,1.4308733430458784
undo,7,15,0,0,0,11,"[0, 12, 7, 16, 11]",5,7,"[3, 4, 13, 14, 15, 21, 22]",110.6291772,22205,982,2,5,9,1.5251025438826007
undo,7,15,0,0,0,3,"[0, 12, 7, 16, 11, 3]",6,5,"[4, 13, 14, 15, 22]",99.22742292,23005,800,2,3,9,1.5166583878170454
undo,7,15,0,0,0,22,"[0, 12, 7, 16, 11, 3, 22]",7,2,"[13, 15]",49.49815588,24054,1049,2,0,9,1.4519711389669923
undo,7,15,0,0,0,15,"[0, 12, 7, 16, 11, 3, 22, 15]",8,1,[13],23.88565893,25058,1004,1,0,9,1.4060225827822495
undo,7,15,0,0,1,13,"[0, 12, 7, 16, 11, 3, 22, 15, 13]",9,0,[],8.621321408,25820,762,1,0,9,1.4544229719836068
undo,7,15,0,1,1,13,"[0, 12, 7, 16, 11, 3, 22, 15, 13]",9,0,[],8.621321408,28789,2969,1,0,9,1.4544229719836068
undo,8,36,0,0,0,0,[0],1,24,"[2, 4, 5, 6, 7, 8, 9, 10, 12, 13, 14, 15, 16, 17, 18, 19, 20, 22, 23, 25, 26, 27, 28, 29]",300,207,-1,2,200,10,0.0
undo,8,36,0,0,0,12,"[0, 12]",2,23,"[2, 4, 5, 6, 7, 8, 9, 10, 13, 14, 15, 16, 17, 18, 19, 20, 22, 23, 25, 26, 27, 28, 29]",277.7963967,3303,3096,90,804,9,1.0
undo,8,36,0,0,0,9,"[0, 12, 9]",3,14,"[2, 4, 8, 10, 13, 16, 17, 18, 19, 23, 25, 27, 28, 29]",215.4345494,4540,1237,32,191,9,1.224429481246385
undo,8,36,0,0,0,16,"[0, 12, 9, 16]",4,8,"[2, 10, 13, 17, 18, 19, 23, 25]",168.137615,5663,1123,7,26,9,1.235383731443557
undo,8,36,0,0,0,17,"[0, 12, 9, 16, 17]",5,6,"[2, 10, 13, 18, 19, 25]",139.8180105,6561,898,7,14,9,1.6947865799475665
undo,8,36,0,0,0,19,"[0, 12, 9, 16, 17, 19]",6,5,"[2, 10, 13, 18, 25]",111.9253591,7698,1137,6,1,9,2.440059772477113
undo,8,36,0,0,0,2,"[0, 12, 9, 16, 17, 19, 2]",7,2,"[13, 25]",74.80393675,8690,992,2,0,9,1.994135267441798
undo,8,36,0,0,0,25,"[0, 12, 9, 16, 17, 19, 2, 25]",8,1,[13],49.80393675,9746,1056,1,0,9,2.1853059870598197
undo,8,36,0,0,1,13,"[0, 12, 9, 16, 17, 19, 2, 25, 13]",9,0,[],29.21267647,10613,867,1,0,9,2.7608371719978186
undo,8,36,1,0,0,25,"[0, 12, 9, 16, 17, 19, 2, 25]",8,1,[13],49.80393675,12973,2360,1,0,9,2.1853059870598197
undo,8,36,1,0,0,2,"[0, 12, 9, 16, 17, 19, 2]",7,2,"[13, 25]",74.80393675,13324,351,2,0,9,1.994135267441798
undo,8,36,1,0,0,19,"[0, 12, 9, 16, 17, 19]",6,5,"[2, 10, 13, 18, 25]",111.9253591,13575,251,6,1,9,2.440059772477113
undo,8,36,1,0,0,17,"[0, 12, 9, 16, 17]",5,6,"[2, 10, 13, 18, 19, 25]",139.8180105,13839,264,7,14,9,1.6947865799475665
undo,8,36,1,0,0,16,"[0, 12, 9, 16]",4,8,"[2, 10, 13, 17, 18, 19, 23, 25]",168.137615,14135,296,7,26,9,1.235383731443557
undo,8,36,1,0,0,9,"[0, 12, 9]",3,14,"[2, 4, 8, 10, 13, 16, 17, 18, 19, 23, 25, 27, 28, 29]",215.4345494,14504,369,32,191,9,1.224429481246385
undo,8,36,1,0,0,12,"[0, 12]",2,23,"[2, 4, 5, 6, 7, 8, 9, 10, 13, 14, 15, 16, 17, 18, 19, 20, 22, 23, 25, 26, 27, 28, 29]",277.7963967,14825,321,90,804,9,1.0
undo,8,36,1,0,0,0,[0],1,24,"[2, 4, 5, 6, 7, 8, 9, 10, 12, 13, 14, 15, 16, 17, 18, 19, 20, 22, 23, 25, 26, 27, 28, 29]",300,15227,402,2,200,10,0.0
undo,8,36,0,0,0,18,"[0, 18]",2,21,"[2, 4, 5, 6, 7, 8, 9, 10, 12, 13, 14, 16, 17, 19, 22, 23, 25, 26, 27, 28, 29]",279.6039219,16781,1554,2,110,10,1.0
undo,8,36,0,0,0,12,"[0, 18, 12]",3,19,"[2, 4, 5, 6, 7, 8, 9, 10, 13, 16, 17, 19, 22, 23, 25, 26, 27, 28, 29]",237.0245842,17897,1116,2,86,10,2.836270082716982
undo,8,36,0,0,0,16,"[0, 18, 12, 16]",4,6,"[2, 9, 13, 17, 19, 25]",130.8549087,20603,2706,15,25,8,1.5846755239984103
undo,8,36,0,0,0,17,"[0, 18, 12, 16, 17]",5,5,"[2, 9, 13, 19, 25]",102.5353042,21466,863,13,6,8,2.0892518409834624
undo,8,36,0,0,0,9,"[0, 18, 12, 16, 17, 9]",6,4,"[2, 13, 19, 25]",76.2864947,22419,953,4,2,8,3.23916456778496
undo,8,36,0,0,0,19,"[0, 18, 12, 16, 17, 9, 19]",7,3,"[2, 13, 25]",61.15374875,23117,698,3,0,8,3.0987650790834835
undo,8,36,0,0,1,2,"[0, 18, 12, 16, 17, 9, 19, 2]",8,0,[],24.03232636,24189,1072,1,0,8,2.443723317083307
undo,8,36,1,0,0,19,"[0, 18, 12, 16, 17, 9, 19]",7,3,"[2, 13, 25]",61.15374875,25773,1584,3,0,8,3.0987650790834835
undo,8,36,1,0,0,9,"[0, 18, 12, 16, 17, 9]",6,4,"[2, 13, 19, 25]",76.2864947,26075,302,4,2,8,3.23916456778496
undo,8,36,1,0,0,17,"[0, 18, 12, 16, 17]",5,5,"[2, 9, 13, 19, 25]",102.5353042,26374,299,13,6,8,2.0892518409834624
undo,8,36,1,0,0,16,"[0, 18, 12, 16]",4,6,"[2, 9, 13, 17, 19, 25]",130.8549087,26673,299,15,25,8,1.5846755239984103
undo,8,36,1,0,0,12,"[0, 18, 12]",3,19,"[2, 4, 5, 6, 7, 8, 9, 10, 13, 16, 17, 19, 22, 23, 25, 26, 27, 28, 29]",237.0245842,27056,383,2,86,10,2.836270082716982
undo,8,36,1,0,0,18,"[0, 18]",2,21,"[2, 4, 5, 6, 7, 8, 9, 10, 12, 13, 14, 16, 17, 19, 22, 23, 25, 26, 27, 28, 29]",279.6039219,27408,352,2,110,10,1.0
undo,8,36,1,0,0,0,[0],1,24,"[2, 4, 5, 6, 7, 8, 9, 10, 12, 13, 14, 15, 16, 17, 18, 19, 20, 22, 23, 25, 26, 27, 28, 29]",300,27791,383,2,200,10,0.0
undo,8,36,0,0,0,12,"[0, 12]",2,23,"[2, 4, 5, 6, 7, 8, 9, 10, 13, 14, 15, 16, 17, 18, 19, 20, 22, 23, 25, 26, 27, 28, 29]",277.7963967,34463,6672,90,804,9,1.0
undo,8,36,0,0,0,19,"[0, 12, 19]",3,14,"[2, 4, 8, 9, 10, 13, 16, 17, 18, 23, 25, 27, 28, 29]",211.554416,35934,1471,19,154,9,1.1474833105564386
undo,8,36,0,0,0,9,"[0, 12, 19, 9]",4,13,"[2, 4, 8, 10, 13, 16, 17, 18, 23, 25, 27, 28, 29]",196.4216701,38317,2383,11,46,9,1.4997183820105362
undo,8,36,0,0,0,16,"[0, 12, 19, 9, 16]",5,6,"[2, 10, 13, 17, 18, 25]",149.1247357,40447,2130,3,7,9,1.4135103577374766
undo,8,36,0,0,0,17,"[0, 12, 19, 9, 16, 17]",6,4,"[2, 13, 18, 25]",120.8051312,41439,992,3,3,9,1.8959500989198594
undo,8,36,0,0,0,2,"[0, 12, 19, 9, 16, 17, 2]",7,2,"[13, 25]",79.57407496,42386,947,2,0,9,1.9518951825226727
undo,8,36,0,0,0,25,"[0, 12, 19, 9, 16, 17, 2, 25]",8,1,[13],54.57407496,43319,933,1,0,9,2.1436418159533392
undo,8,36,0,0,1,13,"[0, 12, 19, 9, 16, 17, 2, 25, 13]",9,0,[],33.98281467,44277,958,1,0,9,2.7122027873211385
undo,8,36,0,1,1,13,"[0, 12, 19, 9, 16, 17, 2, 25, 13]",9,0,[],33.98281467,45306,1029,1,0,9,2.7122027873211385
undo,9,1,0,0,0,0,[0],1,26,"[1, 2, 4, 5, 7, 8, 9, 10, 11, 12, 13, 14, 15, 16, 17, 18, 19, 20, 21, 22, 23, 24, 25, 26, 28, 29]",300,207,-1,6,74,7,0.0
undo,9,1,0,0,0,14,"[0, 14]",2,19,"[1, 4, 5, 8, 9, 13, 15, 17, 18, 19, 20, 21, 22, 23, 24, 25, 26, 28, 29]",200.1901808,6964,6757,5,42,7,1.0
undo,9,1,0,0,0,17,"[0, 14, 17]",3,15,"[1, 4, 5, 8, 9, 13, 15, 18, 19, 20, 22, 23, 25, 28, 29]",147.8356204,7889,925,5,27,7,1.0028844724416826
undo,9,1,0,0,0,1,"[0, 14, 17, 1]",4,12,"[4, 5, 8, 9, 15, 18, 20, 22, 23, 25, 28, 29]",123.4840291,8762,873,5,15,7,1.0264985578353567
undo,9,1,0,0,0,28,"[0, 14, 17, 1, 28]",5,5,"[9, 15, 22, 23, 29]",88.59850198,9986,1224,5,3,7,1.0339861575999345
undo,9,1,0,0,0,23,"[0, 14, 17, 1, 28, 23]",6,2,"[15, 22]",51.70676849,10937,951,2,0,7,1.0327458250705703
undo,9,1,0,0,1,15,"[0, 14, 17, 1, 28, 23, 15]",7,0,[],20.81987807,14054,3117,1,0,7,1.1948681641401226
undo,9,1,1,0,0,23,"[0, 14, 17, 1, 28, 23]",6,2,"[15, 22]",51.70676849,15378,1324,2,0,7,1.0327458250705703
undo,9,1,1,0,0,28,"[0, 14, 17, 1, 28]",5,5,"[9, 15, 22, 23, 29]",88.59850198,15711,333,5,3,7,1.0339861575999345
undo,9,1,1,0,0,1,"[0, 14, 17, 1]",4,12,"[4, 5, 8, 9, 15, 18, 20, 22, 23, 25, 28, 29]",123.4840291,16011,300,5,15,7,1.0264985578353567
undo,9,1,1,0,0,17,"[0, 14, 17]",3,15,"[1, 4, 5, 8, 9, 13, 15, 18, 19, 20, 22, 23, 25, 28, 29]",147.8356204,16378,367,5,27,7,1.0028844724416826
undo,9,1,1,0,0,14,"[0, 14]",2,19,"[1, 4, 5, 8, 9, 13, 15, 17, 18, 19, 20, 21, 22, 23, 24, 25, 26, 28, 29]",200.1901808,16827,449,5,42,7,1.0
undo,9,1,0,0,0,20,"[0, 14, 20]",3,8,"[1, 4, 5, 8, 17, 18, 19, 29]",107.5349058,21088,4261,3,6,6,1.1318930635390845
undo,9,1,0,0,0,5,"[0, 14, 20, 5]",4,3,"[4, 18, 29]",86.06399521,21957,869,2,2,6,1.1422313843984317
undo,9,1,0,0,0,18,"[0, 14, 20, 5, 18]",5,2,"[4, 29]",63.23857079,22671,714,2,0,6,1.1754181498166683
undo,9,1,0,0,1,4,"[0, 14, 20, 5, 18, 4]",6,0,[],24.2898866,23468,797,1,0,6,1.1682212432106793
undo,9,1,1,0,0,18,"[0, 14, 20, 5, 18]",5,2,"[4, 29]",63.23857079,24328,860,2,0,6,1.1754181498166683
undo,9,1,1,0,0,5,"[0, 14, 20, 5]",4,3,"[4, 18, 29]",86.06399521,24629,301,2,2,6,1.1422313843984317
undo,9,1,1,0,0,20,"[0, 14, 20]",3,8,"[1, 4, 5, 8, 17, 18, 19, 29]",107.5349058,24979,350,3,6,6,1.1318930635390845
undo,9,1,1,0,0,14,"[0, 14]",2,19,"[1, 4, 5, 8, 9, 13, 15, 17, 18, 19, 20, 21, 22, 23, 24, 25, 26, 28, 29]",200.1901808,25378,399,5,42,7,1.0
undo,9,1,0,0,0,17,"[0, 14, 17]",3,15,"[1, 4, 5, 8, 9, 13, 15, 18, 19, 20, 22, 23, 25, 28, 29]",147.8356204,26890,1512,5,27,7,1.0028844724416826
undo,9,1,0,0,0,1,"[0, 14, 17, 1]",4,12,"[4, 5, 8, 9, 15, 18, 20, 22, 23, 25, 28, 29]",123.4840291,27700,810,5,15,7,1.0264985578353567
undo,9,1,0,0,0,28,"[0, 14, 17, 1, 28]",5,5,"[9, 15, 22, 23, 29]",88.59850198,32407,4707,5,3,7,1.0339861575999345
undo,9,1,0,0,0,23,"[0, 14, 17, 1, 28, 23]",6,2,"[15, 22]",51.70676849,33353,946,2,0,7,1.0327458250705703
undo,9,1,0,0,1,15,"[0, 14, 17, 1, 28, 23, 15]",7,0,[],20.81987807,34184,831,1,0,7,1.1948681641401226
undo,9,1,0,1,1,15,"[0, 14, 17, 1, 28, 23, 15]",7,0,[],20.81987807,35245,1061,1,0,7,1.1948681641401226
undo,10,20,0,0,0,0,[0],1,21,"[1, 2, 3, 4, 5, 6, 7, 8, 9, 12, 17, 18, 20, 21, 22, 23, 25, 26, 27, 28, 29]",300,227,-1,1,9,9,0.0
undo,10,20,0,0,0,1,"[0, 1]",2,14,"[3, 4, 5, 6, 8, 9, 12, 20, 21, 23, 26, 27, 28, 29]",197.3501096,4738,4511,1,9,8,1.0
undo,10,20,0,0,0,5,"[0, 1, 5]",3,12,"[4, 6, 8, 9, 12, 20, 21, 23, 26, 27, 28, 29]",160.675868,5479,741,1,8,8,1.1088946720668915
undo,10,20,0,0,0,21,"[0, 1, 5, 21]",4,8,"[4, 6, 8, 9, 20, 23, 27, 28]",115.675868,6434,955,1,6,8,1.0805828994591202
undo,10,20,0,0,0,8,"[0, 1, 5, 21, 8]",5,5,"[6, 9, 23, 27, 28]",98.21161876,7118,684,1,5,8,1.0976815296746363
undo,10,20,0,0,0,27,"[0, 1, 5, 21, 8, 27]",6,1,[23],57.98724804,8066,948,1,0,7,1.2719907843846436
undo,10,20,0,0,1,23,"[0, 1, 5, 21, 8, 27, 23]",7,0,[],5.977633539,8806,740,1,0,7,1.2908014903941913
undo,10,20,1,0,0,27,"[0, 1, 5, 21, 8, 27]",6,1,[23],57.98724804,11607,2801,1,0,7,1.2719907843846436
undo,10,20,1,0,0,8,"[0, 1, 5, 21, 8]",5,5,"[6, 9, 23, 27, 28]",98.21161876,12008,401,1,5,8,1.0976815296746363
undo,10,20,1,0,0,21,"[0, 1, 5, 21]",4,8,"[4, 6, 8, 9, 20, 23, 27, 28]",115.675868,12294,286,1,6,8,1.0805828994591202
undo,10,20,1,0,0,5,"[0, 1, 5]",3,12,"[4, 6, 8, 9, 12, 20, 21, 23, 26, 27, 28, 29]",160.675868,12561,267,1,8,8,1.1088946720668915
undo,10,20,1,0,0,1,"[0, 1]",2,14,"[3, 4, 5, 6, 8, 9, 12, 20, 21, 23, 26, 27, 28, 29]",197.3501096,12908,347,1,9,8,1.0
undo,10,20,1,0,0,0,[0],1,21,"[1, 2, 3, 4, 5, 6, 7, 8, 9, 12, 17, 18, 20, 21, 22, 23, 25, 26, 27, 28, 29]",300,13357,449,1,9,9,0.0
undo,10,20,0,0,0,12,"[0, 12]",2,20,"[1, 2, 3, 4, 5, 6, 7, 8, 9, 17, 18, 20, 21, 22, 23, 25, 26, 27, 28, 29]",271.5570747,21503,8146,1,8,9,1.0
undo,10,20,0,0,0,1,"[0, 12, 1]",3,12,"[3, 4, 5, 6, 8, 9, 20, 21, 23, 27, 28, 29]",189.5692707,22627,1124,1,6,9,1.0757997779162911
undo,10,20,0,0,0,5,"[0, 12, 1, 5]",4,10,"[4, 6, 8, 9, 20, 21, 23, 27, 28, 29]",152.8950291,23569,942,1,5,9,1.1708231454516806
undo,10,20,0,0,0,21,"[0, 12, 1, 5, 21]",5,8,"[4, 6, 8, 9, 20, 23, 27, 28]",107.8950291,24517,948,1,4,9,1.126197336199212
undo,10,20,0,0,0,8,"[0, 12, 1, 5, 21, 8]",6,5,"[6, 9, 23, 27, 28]",90.43077988,25184,667,1,3,9,1.140007470699913
undo,10,20,0,0,0,23,"[0, 12, 1, 5, 21, 8, 23]",7,2,"[6, 9]",45.74297394,26242,1058,1,1,9,1.1162257896627588
undo,10,20,0,0,0,9,"[0, 12, 1, 5, 21, 8, 23, 9]",8,1,[6],26.53360123,27051,809,1,0,9,1.1086880559449597
undo,10,20,0,0,1,6,"[0, 12, 1, 5, 21, 8, 23, 9, 6]",9,0,[],3.511872362,27810,759,1,0,9,1.1186240265999328
undo,10,20,0,1,1,6,"[0, 12, 1, 5, 21, 8, 23, 9, 6]",9,0,[],3.511872362,29558,1748,1,0,9,1.1186240265999328
undo,11,22,0,0,0,0,[0],1,29,"[1, 2, 3, 4, 5, 6, 7, 8, 9, 10, 11, 12, 13, 14, 15, 16, 17, 18, 19, 20, 21, 22, 23, 24, 25, 26, 27, 28, 29]",300,190,-1,31,704,9,0.0
undo,11,22,0,0,0,16,"[0, 16]",2,21,"[1, 3, 6, 7, 8, 9, 11, 13, 14, 15, 17, 18, 19, 20, 21, 22, 24, 25, 27, 28, 29]",218.605897,3555,3365,17,147,9,1.0
undo,11,22,0,0,0,6,"[0, 16, 6]",3,16,"[1, 3, 7, 9, 13, 14, 15, 17, 19, 20, 21, 22, 24, 25, 28, 29]",184.1675463,4539,984,5,77,9,1.3071109638102874
undo,11,22,0,0,0,9,"[0, 16, 6, 9]",4,15,"[1, 3, 7, 13, 14, 15, 17, 19, 20, 21, 22, 24, 25, 28, 29]",157.5404924,5600,1061,4,33,9,1.5907585082674378
undo,11,22,0,0,0,19,"[0, 16, 6, 9, 19]",5,12,"[3, 7, 13, 14, 15, 17, 20, 21, 24, 25, 28, 29]",137.1444143,6573,973,3,17,9,2.0453047636701496
undo,11,22,0,0,0,29,"[0, 16, 6, 9, 19, 29]",6,10,"[3, 7, 13, 14, 15, 17, 20, 21, 24, 28]",122.111118,7236,663,3,10,9,2.310050419546042
undo,11,22,0,0,0,14,"[0, 16, 6, 9, 19, 29, 14]",7,2,"[7, 17]",63.86165444,10257,3021,1,1,9,1.8228779744230632
undo,11,22,0,0,0,7,"[0, 16, 6, 9, 19, 29, 14, 7]",8,1,[17],50.82324963,11197,940,1,0,9,1.981278197083242
undo,11,22,0,0,1,17,"[0, 16, 6, 9, 19, 29, 14, 7, 17]",9,0,[],9.205945539,12452,1255,1,0,9,1.840137026694984
undo,11,22,0,1,1,17,"[0, 16, 6, 9, 19, 29, 14, 7, 17]",9,0,[],9.205945539,13360,908,1,0,9,1.840137026694984
undo,12,28,0,0,0,0,[0],1,27,"[1, 2, 3, 4, 5, 6, 7, 8, 9, 10, 11, 12, 13, 14, 15, 16, 17, 18, 19, 20, 22, 23, 25, 26, 27, 28, 29]",300,198,-1,2,96,9,0.0
undo,12,28,0,0,0,3,"[0, 3]",2,26,"[1, 2, 4, 5, 6, 7, 8, 9, 10, 11, 12, 13, 14, 15, 16, 17, 18, 19, 20, 22, 23, 25, 26, 27, 28, 29]",251.0817008,3690,3492,1,64,9,1.0
undo,12,28,0,0,0,14,"[0, 3, 14]",3,13,"[1, 2, 5, 7, 10, 11, 12, 13, 17, 18, 19, 20, 26]",142.7396498,5123,1433,19,59,8,1.0338694802207566
undo,12,28,0,0,0,18,"[0, 3, 14, 18]",4,10,"[1, 2, 5, 7, 11, 12, 13, 17, 19, 26]",117.2445523,5942,819,18,18,8,1.098527225277385
undo,12,28,0,0,0,13,"[0, 3, 14, 18, 13]",5,7,"[2, 7, 11, 12, 17, 19, 26]",92.83144103,7337,1395,8,6,8,1.0872780601597938
undo,12,28,0,0,0,12,"[0, 3, 14, 18, 13, 12]",6,3,"[2, 7, 19]",75.6267905,8120,783,3,1,8,1.0890748557820906
undo,12,28,0,0,0,7,"[0, 3, 14, 18, 13, 12, 7]",7,2,"[2, 19]",62.47384406,8897,777,2,0,8,1.2125627495730145
undo,12,28,0,0,1,19,"[0, 3, 14, 18, 13, 12, 7, 19]",8,0,[],34.74299481,9656,759,1,0,8,1.4527925513951803
undo,12,28,1,0,0,7,"[0, 3, 14, 18, 13, 12, 7]",7,2,"[2, 19]",62.47384406,14231,4575,2,0,8,1.2125627495730145
undo,12,28,1,0,0,12,"[0, 3, 14, 18, 13, 12]",6,3,"[2, 7, 19]",75.6267905,14546,315,3,1,8,1.0890748557820906
undo,12,28,1,0,0,13,"[0, 3, 14, 18, 13]",5,7,"[2, 7, 11, 12, 17, 19, 26]",92.83144103,14863,317,8,6,8,1.0872780601597938
undo,12,28,1,0,0,18,"[0, 3, 14, 18]",4,10,"[1, 2, 5, 7, 11, 12, 13, 17, 19, 26]",117.2445523,15229,366,18,18,8,1.098527225277385
undo,12,28,1,0,0,14,"[0, 3, 14]",3,13,"[1, 2, 5, 7, 10, 11, 12, 13, 17, 18, 19, 20, 26]",142.7396498,15546,317,19,59,8,1.0338694802207566
undo,12,28,1,0,0,3,"[0, 3]",2,26,"[1, 2, 4, 5, 6, 7, 8, 9, 10, 11, 12, 13, 14, 15, 16, 17, 18, 19, 20, 22, 23, 25, 26, 27, 28, 29]",251.0817008,15979,433,1,64,9,1.0
undo,12,28,0,0,0,5,"[0, 3, 5]",3,20,"[2, 4, 6, 7, 8, 9, 10, 11, 12, 13, 14, 15, 18, 19, 20, 23, 25, 26, 28, 29]",166.9865166,17107,1128,1,34,9,1.0203769473612083
undo,12,28,0,0,0,26,"[0, 3, 5, 26]",4,13,"[2, 4, 7, 8, 9, 12, 13, 14, 18, 19, 20, 25, 28]",134.2298379,17976,869,1,28,9,1.0315203228799597
undo,12,28,0,0,0,19,"[0, 3, 5, 26, 19]",5,7,"[2, 7, 9, 12, 13, 14, 18]",93.22983789,19006,1030,1,17,9,1.1324645362297356
undo,12,28,0,0,0,7,"[0, 3, 5, 26, 19, 7]",6,5,"[2, 12, 13, 14, 18]",65.49898864,19794,788,1,6,9,1.1971194919020265
undo,12,28,0,0,0,12,"[0, 3, 5, 26, 19, 7, 12]",7,2,"[13, 18]",52.3460422,20387,593,1,1,9,1.2020762147848982
undo,12,28,0,0,0,13,"[0, 3, 5, 26, 19, 7, 12, 13]",8,1,[18],35.14139167,21192,805,1,0,9,1.39005144078531
undo,12,28,0,0,1,18,"[0, 3, 5, 26, 19, 7, 12, 13, 18]",9,0,[],10.72828044,22038,846,1,0,9,1.738787343626007
undo,12,28,0,1,1,18,"[0, 3, 5, 26, 19, 7, 12, 13, 18]",9,0,[],10.72828044,24895,2857,1,0,9,1.738787343626007
undo,13,26,0,0,0,0,[0],1,29,"[1, 2, 3, 4, 5, 6, 7, 8, 9, 10, 11, 12, 13, 14, 15, 16, 17, 18, 19, 20, 21, 22, 23, 24, 25, 26, 27, 28, 29]",300,235,-1,9,226,9,0.0
undo,13,26,0,0,0,10,"[0, 10]",2,6,"[4, 6, 14, 16, 17, 29]",138.1822012,23035,22800,9,66,7,1.0
undo,13,26,0,0,0,6,"[0, 10, 6]",3,5,"[4, 14, 16, 17, 29]",108.9076389,26311,3276,8,23,7,1.1897813099332413
undo,13,26,0,0,0,14,"[0, 10, 6, 14]",4,4,"[4, 16, 17, 29]",87.88384285,27988,1677,4,6,7,1.3162481558218453
undo,13,26,0,0,0,17,"[0, 10, 6, 14, 17]",5,3,"[4, 16, 29]",65.41163779,30985,2997,3,1,7,1.6510075497064465
undo,13,26,0,0,0,4,"[0, 10, 6, 14, 17, 4]",6,1,[29],44.31661468,32488,1503,1,0,7,2.1095586782058087
undo,13,26,0,0,1,29,"[0, 10, 6, 14, 17, 4, 29]",7,0,[],20.31661468,35175,2687,1,0,7,2.288952413143475
undo,13,26,1,0,0,4,"[0, 10, 6, 14, 17, 4]",6,1,[29],44.31661468,41210,6035,1,0,7,2.1095586782058087
undo,13,26,1,0,0,17,"[0, 10, 6, 14, 17]",5,3,"[4, 16, 29]",65.41163779,41728,518,3,1,7,1.6510075497064465
undo,13,26,1,0,0,14,"[0, 10, 6, 14]",4,4,"[4, 16, 17, 29]",87.88384285,42195,467,4,6,7,1.3162481558218453
undo,13,26,1,0,0,6,"[0, 10, 6]",3,5,"[4, 14, 16, 17, 29]",108.9076389,42712,517,8,23,7,1.1897813099332413
undo,13,26,1,0,0,10,"[0, 10]",2,6,"[4, 6, 14, 16, 17, 29]",138.1822012,43213,501,9,66,7,1.0
undo,13,26,1,0,0,0,[0],1,29,"[1, 2, 3, 4, 5, 6, 7, 8, 9, 10, 11, 12, 13, 14, 15, 16, 17, 18, 19, 20, 21, 22, 23, 24, 25, 26, 27, 28, 29]",300,43745,532,9,226,9,0.0
undo,13,26,0,0,0,21,"[0, 21]",2,25,"[2, 3, 4, 5, 6, 7, 8, 10, 11, 12, 13, 14, 15, 16, 17, 18, 19, 22, 23, 24, 25, 26, 27, 28, 29]",211.1349337,45679,1934,7,90,9,1.0
undo,13,26,0,0,0,13,"[0, 21, 13]",3,21,"[3, 4, 5, 6, 7, 8, 10, 11, 12, 14, 15, 16, 17, 18, 19, 22, 23, 24, 25, 26, 29]",188.9989901,46576,897,6,45,9,1.0103952279992225
undo,13,26,0,0,0,23,"[0, 21, 13, 23]",4,13,"[3, 4, 5, 6, 10, 11, 14, 16, 17, 18, 22, 26, 29]",150.9858345,47807,1231,3,17,9,1.1069410469330032
undo,13,26,0,0,0,16,"[0, 21, 13, 23, 16]",5,7,"[4, 5, 6, 10, 14, 17, 29]",97.75050789,48653,846,3,13,9,1.8066634000662438
undo,13,26,0,0,0,29,"[0, 21, 13, 23, 16, 29]",6,5,"[4, 6, 10, 14, 17]",73.54307102,49317,664,3,9,9,1.853342605492142
undo,13,26,0,0,0,4,"[0, 21, 13, 23, 16, 29, 4]",7,3,"[6, 14, 17]",49.54307102,50109,792,2,2,9,2.0664369230924997
undo,13,26,0,0,0,17,"[0, 21, 13, 23, 16, 29, 4, 17]",8,2,"[6, 14]",28.44804791,50943,834,2,0,9,1.911153301956092
undo,13,26,0,0,1,14,"[0, 21, 13, 23, 16, 29, 4, 17, 14]",9,0,[],5.975842855,52036,1093,1,0,9,1.8245133223656398
undo,13,26,0,1,1,14,"[0, 21, 13, 23, 16, 29, 4, 17, 14]",9,0,[],5.975842855,54262,2226,1,0,9,1.8245133223656398
undo,14,32,0,0,0,0,[0],1,29,"[1, 2, 3, 4, 5, 6, 7, 8, 9, 10, 11, 12, 13, 14, 15, 16, 17, 18, 19, 20, 21, 22, 23, 24, 25, 26, 27, 28, 29]",300,198,-1,17,359,10,0.0
undo,14,32,0,0,0,15,"[0, 15]",2,24,"[2, 3, 4, 5, 6, 7, 8, 9, 10, 11, 12, 13, 14, 16, 17, 19, 20, 22, 23, 24, 25, 26, 27, 28]",214.6185032,9721,9523,11,153,9,1.0
undo,14,32,0,0,0,28,"[0, 15, 28]",3,21,"[2, 3, 5, 7, 8, 9, 10, 11, 12, 13, 14, 16, 17, 19, 20, 22, 23, 24, 25, 26, 27]",203.2167489,12506,2785,11,119,9,1.000160051986942
undo,14,32,0,0,0,12,"[0, 15, 28, 12]",4,19,"[2, 3, 5, 7, 8, 9, 10, 11, 13, 16, 17, 19, 20, 22, 23, 24, 25, 26, 27]",184.243083,14300,1794,8,71,9,1.0281484763748023
undo,14,32,0,0,0,16,"[0, 15, 28, 12, 16]",5,17,"[2, 3, 5, 7, 8, 9, 10, 11, 13, 17, 19, 20, 22, 23, 24, 26, 27]",168.5906071,17358,3058,6,38,9,1.1190771370096
undo,14,32,0,0,0,27,"[0, 15, 28, 12, 16, 27]",6,6,"[3, 7, 10, 11, 22, 24]",92.31479182,35904,18546,2,3,9,1.1348918479781422
undo,14,32,0,0,0,3,"[0, 15, 28, 12, 16, 27, 3]",7,3,"[7, 11, 24]",66.81969425,38775,2871,1,2,9,1.144457863975442
undo,14,32,0,0,0,11,"[0, 15, 28, 12, 16, 27, 3, 11]",8,1,[7],51.1991949,40553,1778,1,0,9,1.18010536284934
undo,14,32,0,0,1,7,"[0, 15, 28, 12, 16, 27, 3, 11, 7]",9,0,[],6.995122688,42704,2151,1,0,9,1.1924074998895657
undo,14,32,0,1,1,7,"[0, 15, 28, 12, 16, 27, 3, 11, 7]",9,0,[],6.995122688,44427,1723,1,0,9,1.1924074998895657
undo,15,23,0,0,0,0,[0],1,28,"[1, 2, 3, 4, 5, 6, 7, 8, 9, 10, 11, 12, 13, 14, 15, 16, 17, 18, 19, 20, 21, 22, 23, 25, 26, 27, 28, 29]",300,210,-1,76,2626,10,0.0
undo,15,23,0,0,0,13,"[0, 13]",2,19,"[1, 2, 3, 5, 6, 7, 8, 9, 10, 12, 14, 17, 18, 19, 21, 22, 23, 27, 29]",189.3202819,4536,4326,9,168,10,1.0
undo,15,23,0,0,0,12,"[0, 13, 12]",3,16,"[1, 2, 3, 6, 7, 8, 9, 10, 14, 17, 18, 21, 22, 23, 27, 29]",177.2372359,5407,871,9,96,10,1.0014195490503164
undo,15,23,0,0,0,6,"[0, 13, 12, 6]",4,9,"[2, 7, 9, 10, 14, 18, 22, 27, 29]",147.5555918,7104,1697,2,17,10,1.0146513975411646
undo,15,23,0,0,0,2,"[0, 13, 12, 6, 2]",5,8,"[7, 9, 10, 14, 18, 22, 27, 29]",129.1165028,8069,965,2,8,10,1.252271865214601
undo,15,23,0,0,0,9,"[0, 13, 12, 6, 2, 9]",6,7,"[7, 10, 14, 18, 22, 27, 29]",116.078098,9234,1165,1,4,10,1.4077625583396691
undo,15,23,0,0,0,14,"[0, 13, 12, 6, 2, 9, 14]",7,5,"[7, 10, 22, 27, 29]",105.6377915,10164,930,1,3,10,1.3795313352500915
undo,15,23,0,0,0,29,"[0, 13, 12, 6, 2, 9, 14, 29]",8,2,"[7, 10]",58.20362662,11562,1398,1,1,10,1.5679920543199335
undo,15,23,0,0,0,7,"[0, 13, 12, 6, 2, 9, 14, 29, 7]",9,1,[10],34.12043747,13108,1546,1,0,10,1.5808251397817217
undo,15,23,0,0,1,10,"[0, 13, 12, 6, 2, 9, 14, 29, 7, 10]",10,0,[],6.661377032,14338,1230,1,0,10,1.5347739273486019
undo,15,23,0,1,1,10,"[0, 13, 12, 6, 2, 9, 14, 29, 7, 10]",10,0,[],6.661377032,15976,1638,1,0,10,1.5347739273486019
undo,16,17,0,0,0,0,[0],1,28,"[1, 2, 3, 4, 5, 6, 7, 8, 9, 10, 11, 12, 13, 14, 15, 16, 17, 18, 19, 20, 22, 23, 24, 25, 26, 27, 28, 29]",300,208,-1,2,73,8,0.0
undo,16,17,0,0,0,9,"[0, 9]",2,25,"[1, 2, 3, 5, 6, 7, 8, 10, 11, 12, 14, 15, 16, 17, 18, 19, 20, 22, 23, 24, 25, 26, 27, 28, 29]",210.5293344,4172,3964,1,34,8,1.0
undo,16,17,0,0,0,16,"[0, 9, 16]",3,21,"[1, 2, 3, 5, 7, 8, 10, 11, 12, 14, 17, 18, 19, 20, 22, 23, 25, 26, 27, 28, 29]",197.1876704,5006,834,1,26,8,1.173103464220352
undo,16,17,0,0,0,2,"[0, 9, 16, 2]",4,18,"[1, 3, 5, 7, 8, 10, 11, 12, 14, 17, 18, 19, 23, 25, 26, 27, 28, 29]",181.0631549,5885,879,1,23,8,1.14825089247282
undo,16,17,0,0,0,17,"[0, 9, 16, 2, 17]",5,7,"[7, 8, 12, 14, 26, 27, 29]",142.7356191,6702,817,4,5,7,1.4896040699768547
undo,16,17,0,0,0,8,"[0, 9, 16, 2, 17, 8]",6,3,"[7, 12, 27]",104.5256727,7697,995,3,0,7,1.4604726966175894
undo,16,17,1,0,0,17,"[0, 9, 16, 2, 17]",5,7,"[7, 8, 12, 14, 26, 27, 29]",142.7356191,12116,4419,4,5,7,1.4896040699768547
undo,16,17,1,0,0,2,"[0, 9, 16, 2]",4,18,"[1, 3, 5, 7, 8, 10, 11, 12, 14, 17, 18, 19, 23, 25, 26, 27, 28, 29]",181.0631549,12495,379,1,23,8,1.14825089247282
undo,16,17,1,0,0,16,"[0, 9, 16]",3,21,"[1, 2, 3, 5, 7, 8, 10, 11, 12, 14, 17, 18, 19, 20, 22, 23, 25, 26, 27, 28, 29]",197.1876704,15312,2817,1,26,8,1.173103464220352
undo,16,17,1,0,0,9,"[0, 9]",2,25,"[1, 2, 3, 5, 6, 7, 8, 10, 11, 12, 14, 15, 16, 17, 18, 19, 20, 22, 23, 24, 25, 26, 27, 28, 29]",210.5293344,16944,1632,1,34,8,1.0
undo,16,17,1,0,0,0,[0],1,28,"[1, 2, 3, 4, 5, 6, 7, 8, 9, 10, 11, 12, 13, 14, 15, 16, 17, 18, 19, 20, 22, 23, 24, 25, 26, 27, 28, 29]",300,17461,517,2,73,8,0.0
undo,16,17,0,0,0,9,"[0, 9]",2,25,"[1, 2, 3, 5, 6, 7, 8, 10, 11, 12, 14, 15, 16, 17, 18, 19, 20, 22, 23, 24, 25, 26, 27, 28, 29]",210.5293344,26754,9293,1,34,8,1.0
undo,16,17,0,0,0,16,"[0, 9, 16]",3,21,"[1, 2, 3, 5, 7, 8, 10, 11, 12, 14, 17, 18, 19, 20, 22, 23, 25, 26, 27, 28, 29]",197.1876704,27306,552,1,26,8,1.173103464220352
undo,16,17,0,0,0,2,"[0, 9, 16, 2]",4,18,"[1, 3, 5, 7, 8, 10, 11, 12, 14, 17, 18, 19, 23, 25, 26, 27, 28, 29]",181.0631549,27928,622,1,23,8,1.14825089247282
undo,16,17,0,0,0,17,"[0, 9, 16, 2, 17]",5,7,"[7, 8, 12, 14, 26, 27, 29]",142.7356191,28791,863,4,5,7,1.4896040699768547
undo,16,17,0,0,0,8,"[0, 9, 16, 2, 17, 8]",6,3,"[7, 12, 27]",104.5256727,29940,1149,3,0,7,1.4604726966175894
undo,16,17,0,0,1,27,"[0, 9, 16, 2, 17, 8, 27]",7,0,[],21.88790895,32455,2515,1,0,7,1.2949460667276491
undo,16,17,0,1,1,27,"[0, 9, 16, 2, 17, 8, 27]",7,0,[],21.88790895,34227,1772,1,0,7,1.2949460667276491
undo,17,35,0,0,0,0,[0],1,29,"[1, 2, 3, 4, 5, 6, 7, 8, 9, 10, 11, 12, 13, 14, 15, 16, 17, 18, 19, 20, 21, 22, 23, 24, 25, 26, 27, 28, 29]",300,173,-1,5,236,11,0.0
undo,17,35,0,0,0,27,"[0, 27]",2,27,"[1, 2, 4, 5, 6, 7, 8, 9, 10, 11, 12, 13, 14, 15, 16, 17, 18, 19, 20, 21, 22, 23, 24, 25, 26, 28, 29]",278.7867966,3295,3122,5,144,11,1.0
undo,17,35,0,0,0,24,"[0, 27, 24]",3,25,"[1, 2, 4, 5, 6, 7, 8, 9, 10, 11, 12, 13, 15, 16, 17, 18, 19, 20, 21, 22, 23, 25, 26, 28, 29]",234.6053525,4284,989,3,80,11,2.1084080567904624
undo,17,35,0,0,0,17,"[0, 27, 24, 17]",4,20,"[1, 2, 4, 5, 6, 7, 8, 9, 10, 15, 16, 18, 19, 20, 21, 23, 25, 26, 28, 29]",222.9006526,4887,603,3,50,11,1.9439555968916868
undo,17,35,0,0,0,1,"[0, 27, 24, 17, 1]",5,18,"[2, 4, 5, 6, 8, 9, 10, 15, 16, 18, 19, 20, 21, 23, 25, 26, 28, 29]",207.0892643,5682,795,3,39,11,1.9436711872547336
undo,17,35,0,0,0,15,"[0, 27, 24, 17, 1, 15]",6,16,"[2, 4, 5, 6, 8, 9, 10, 16, 18, 19, 20, 23, 25, 26, 28, 29]",184.241945,6503,821,3,24,11,2.082774572108194
undo,17,35,0,0,0,23,"[0, 27, 24, 17, 1, 15, 23]",7,7,"[5, 6, 9, 18, 19, 25, 26]",123.801892,7979,1476,3,14,11,1.657239080954205
undo,17,35,0,0,0,9,"[0, 27, 24, 17, 1, 15, 23, 9]",8,4,"[6, 18, 19, 25]",86.15883157,8900,921,2,2,11,1.9022575917054987
undo,17,35,0,0,0,18,"[0, 27, 24, 17, 1, 15, 23, 9, 18]",9,2,"[6, 25]",66.13384718,9838,938,2,0,11,1.8181129550839106
undo,17,35,0,0,0,25,"[0, 27, 24, 17, 1, 15, 23, 9, 18, 25]",10,1,[6],32.29599855,11051,1213,1,0,11,1.6530923432245144
undo,17,35,0,0,1,6,"[0, 27, 24, 17, 1, 15, 23, 9, 18, 25, 6]",11,0,[],8.275174247,12250,1199,1,0,11,1.9291202388527962
undo,17,35,0,1,1,6,"[0, 27, 24, 17, 1, 15, 23, 9, 18, 25, 6]",11,0,[],8.275174247,15530,3280,1,0,11,1.9291202388527962
undo,18,42,0,0,0,0,[0],1,29,"[1, 2, 3, 4, 5, 6, 7, 8, 9, 10, 11, 12, 13, 14, 15, 16, 17, 18, 19, 20, 21, 22, 23, 24, 25, 26, 27, 28, 29]",300,209,-1,16,302,9,0.0
undo,18,42,0,0,0,3,"[0, 3]",2,25,"[1, 2, 4, 5, 6, 7, 8, 9, 10, 11, 13, 15, 17, 18, 19, 20, 21, 22, 23, 24, 25, 26, 27, 28, 29]",255.7959278,2718,2509,3,45,9,1.0
undo,18,42,0,0,0,23,"[0, 3, 23]",3,15,"[1, 2, 4, 5, 6, 7, 8, 9, 11, 15, 17, 22, 24, 25, 29]",202.4573864,3507,789,1,24,8,1.2042297975308642
undo,18,42,0,0,0,17,"[0, 3, 23, 17]",4,11,"[4, 5, 6, 8, 9, 11, 15, 22, 24, 25, 29]",191.2770465,4945,1438,1,14,8,1.192958341617778
undo,18,42,0,0,0,11,"[0, 3, 23, 17, 11]",5,7,"[4, 6, 8, 15, 22, 24, 25]",140.0813435,5962,1017,1,7,8,1.7422648616902974
undo,18,42,0,0,0,24,"[0, 3, 23, 17, 11, 24]",6,2,"[6, 15]",82.0727235,7038,1076,1,1,8,1.6631309430247303
undo,18,42,0,0,0,15,"[0, 3, 23, 17, 11, 24, 15]",7,1,[6],68.47125299,7674,636,1,0,8,1.6008668931493675
undo,18,42,0,0,1,6,"[0, 3, 23, 17, 11, 24, 15, 6]",8,0,[],19.07489685,8569,895,1,0,8,1.4594939660868298
undo,18,42,0,1,1,6,"[0, 3, 23, 17, 11, 24, 15, 6]",8,0,[],19.07489685,9080,511,1,0,8,1.4594939660868298
undo,19,18,0,0,0,0,[0],1,28,"[1, 2, 3, 4, 5, 6, 7, 8, 9, 10, 11, 12, 13, 14, 16, 17, 18, 19, 20, 21, 22, 23, 24, 25, 26, 27, 28, 29]",300,196,-1,3,136,10,0.0
undo,19,18,0,0,0,26,"[0, 26]",2,27,"[1, 2, 3, 4, 5, 6, 7, 8, 9, 10, 11, 12, 13, 14, 16, 17, 18, 19, 20, 21, 22, 23, 24, 25, 27, 28, 29]",258.0238163,3802,3606,1,61,10,1.0
undo,19,18,0,0,0,23,"[0, 26, 23]",3,24,"[1, 2, 3, 4, 5, 6, 7, 8, 9, 10, 12, 13, 14, 16, 17, 18, 19, 20, 21, 24, 25, 27, 28, 29]",239.422741,4710,908,1,60,10,1.576763070488403
undo,19,18,0,0,0,28,"[0, 26, 23, 28]",4,8,"[1, 3, 7, 8, 9, 13, 14, 25]",149.3727549,6987,2277,7,25,9,2.3695130664004544
undo,19,18,0,0,0,7,"[0, 26, 23, 28, 7]",5,6,"[1, 3, 8, 13, 14, 25]",127.3500394,7924,937,7,17,9,2.8936199139679126
undo,19,18,0,0,0,25,"[0, 26, 23, 28, 7, 25]",6,4,"[3, 8, 13, 14]",99.54716183,8758,834,7,6,9,3.3404167216138276
undo,19,18,0,0,0,8,"[0, 26, 23, 28, 7, 25, 8]",7,3,"[3, 13, 14]",62.4931472,9547,789,4,0,9,2.510805996266872
undo,19,18,0,0,0,3,"[0, 26, 23, 28, 7, 25, 8, 3]",8,1,[14],34.4218095,10425,878,1,0,9,2.1701736790771826
undo,19,18,0,0,1,14,"[0, 26, 23, 28, 7, 25, 8, 3, 14]",9,0,[],4.33859159,12993,2568,1,0,9,2.6372073547807235
undo,19,18,0,1,1,14,"[0, 26, 23, 28, 7, 25, 8, 3, 14]",9,0,[],4.33859159,14648,1655,1,0,9,2.6372073547807235
undo,20,34,0,0,0,0,[0],1,25,"[1, 3, 4, 5, 6, 7, 8, 9, 10, 11, 12, 13, 15, 18, 19, 20, 21, 22, 23, 24, 25, 26, 27, 28, 29]",300,223,-1,12,367,10,0.0
undo,20,34,0,0,0,13,"[0, 13]",2,24,"[1, 3, 4, 5, 6, 7, 8, 9, 10, 11, 12, 15, 18, 19, 20, 21, 22, 23, 24, 25, 26, 27, 28, 29]",279.9750156,2173,1950,12,331,10,1.0
undo,20,34,0,0,0,1,"[0, 13, 1]",3,16,"[3, 5, 7, 8, 9, 10, 11, 12, 19, 21, 22, 23, 24, 25, 27, 29]",211.8574701,3325,1152,3,92,10,1.0010381285747127
undo,20,34,0,0,0,8,"[0, 13, 1, 8]",4,14,"[3, 5, 7, 9, 10, 11, 12, 19, 22, 23, 24, 25, 27, 29]",201.0871405,4098,773,2,54,10,1.1636807
undo,20,34,0,0,0,25,"[0, 13, 1, 8, 25]",5,12,"[3, 5, 7, 9, 10, 11, 12, 22, 23, 24, 27, 29]",183.999133,5105,1007,2,28,10,1.1396208815936457
undo,20,34,0,0,0,24,"[0, 13, 1, 8, 25, 24]",6,11,"[3, 5, 7, 9, 10, 11, 12, 22, 23, 27, 29]",166.5062774,5837,732,2,23,10,1.374180768736554
undo,20,34,0,0,0,10,"[0, 13, 1, 8, 25, 24, 10]",7,2,"[9, 22]",83.94115154,7091,1254,1,1,9,1.206223549925811
undo,20,34,0,0,0,22,"[0, 13, 1, 8, 25, 24, 10, 22]",8,1,[9],48.94115154,8061,970,1,0,9,1.4772001618468413
undo,20,34,0,0,1,9,"[0, 13, 1, 8, 25, 24, 10, 22, 9]",9,0,[],2.76756602,9019,958,1,0,9,1.4484674289889272
undo,20,34,0,1,1,9,"[0, 13, 1, 8, 25, 24, 10, 22, 9]",9,0,[],2.76756602,10129,1110,1,0,9,1.4484674289889272
undo,21,8,0,0,0,0,[0],1,29,"[1, 2, 3, 4, 5, 6, 7, 8, 9, 10, 11, 12, 13, 14, 15, 16, 17, 18, 19, 20, 21, 22, 23, 24, 25, 26, 27, 28, 29]",300,216,-1,10,149,9,0.0
undo,21,8,0,0,0,5,"[0, 5]",2,28,"[1, 2, 3, 4, 6, 7, 8, 9, 10, 11, 12, 13, 14, 15, 16, 17, 18, 19, 20, 21, 22, 23, 24, 25, 26, 27, 28, 29]",254.5137383,2022,1806,10,100,9,1.0
undo,21,8,0,0,0,25,"[0, 5, 25]",3,20,"[1, 2, 3, 4, 6, 11, 12, 14, 15, 16, 17, 18, 19, 20, 21, 22, 23, 24, 28, 29]",215.3091468,3283,1261,4,42,9,1.2272747879909065
undo,21,8,0,0,0,1,"[0, 5, 25, 1]",4,17,"[3, 4, 6, 11, 12, 14, 15, 16, 17, 18, 20, 21, 22, 23, 24, 28, 29]",190.3091468,4169,886,3,24,9,1.1770245007593956
undo,21,8,0,0,0,23,"[0, 5, 25, 1, 23]",5,15,"[3, 4, 6, 11, 14, 15, 16, 17, 18, 20, 21, 22, 24, 28, 29]",167.2874179,4887,718,1,14,9,1.141996583852372
undo,21,8,0,0,0,18,"[0, 5, 25, 1, 23, 18]",6,9,"[3, 4, 11, 14, 15, 16, 17, 24, 28]",125.5261919,6075,1188,1,7,9,1.3199166330970717
undo,21,8,0,0,0,14,"[0, 5, 25, 1, 23, 18, 14]",7,2,"[11, 17]",68.03706246,8789,2714,1,1,9,2.714920831666598
undo,21,8,1,0,0,18,"[0, 5, 25, 1, 23, 18]",6,9,"[3, 4, 11, 14, 15, 16, 17, 24, 28]",125.5261919,10946,2157,1,7,9,1.3199166330970717
undo,21,8,0,0,0,17,"[0, 5, 25, 1, 23, 18, 17]",7,2,"[11, 14]",49.70403152,11959,1013,2,0,8,2.2915726624242696
undo,21,8,0,0,1,11,"[0, 5, 25, 1, 23, 18, 17, 11]",8,0,[],24.52467489,12990,1031,1,0,8,2.1041529023971353
undo,21,8,1,0,0,17,"[0, 5, 25, 1, 23, 18, 17]",7,2,"[11, 14]",49.70403152,14249,1259,2,0,8,2.2915726624242696
undo,21,8,1,0,0,18,"[0, 5, 25, 1, 23, 18]",6,9,"[3, 4, 11, 14, 15, 16, 17, 24, 28]",125.5261919,14680,431,1,7,9,1.3199166330970717
undo,21,8,1,0,0,23,"[0, 5, 25, 1, 23]",5,15,"[3, 4, 6, 11, 14, 15, 16, 17, 18, 20, 21, 22, 24, 28, 29]",167.2874179,15049,369,1,14,9,1.141996583852372
undo,21,8,1,0,0,1,"[0, 5, 25, 1]",4,17,"[3, 4, 6, 11, 12, 14, 15, 16, 17, 18, 20, 21, 22, 23, 24, 28, 29]",190.3091468,15430,381,3,24,9,1.1770245007593956
undo,21,8,1,0,0,25,"[0, 5, 25]",3,20,"[1, 2, 3, 4, 6, 11, 12, 14, 15, 16, 17, 18, 19, 20, 21, 22, 23, 24, 28, 29]",215.3091468,15763,333,4,42,9,1.2272747879909065
undo,21,8,1,0,0,5,"[0, 5]",2,28,"[1, 2, 3, 4, 6, 7, 8, 9, 10, 11, 12, 13, 14, 15, 16, 17, 18, 19, 20, 21, 22, 23, 24, 25, 26, 27, 28, 29]",254.5137383,16180,417,10,100,9,1.0
undo,21,8,1,0,0,0,[0],1,29,"[1, 2, 3, 4, 5, 6, 7, 8, 9, 10, 11, 12, 13, 14, 15, 16, 17, 18, 19, 20, 21, 22, 23, 24, 25, 26, 27, 28, 29]",300,16597,417,10,149,9,0.0
undo,21,8,0,0,0,5,"[0, 5]",2,28,"[1, 2, 3, 4, 6, 7, 8, 9, 10, 11, 12, 13, 14, 15, 16, 17, 18, 19, 20, 21, 22, 23, 24, 25, 26, 27, 28, 29]",254.5137383,21244,4647,10,100,9,1.0
undo,21,8,0,0,0,25,"[0, 5, 25]",3,20,"[1, 2, 3, 4, 6, 11, 12, 14, 15, 16, 17, 18, 19, 20, 21, 22, 23, 24, 28, 29]",215.3091468,22900,1656,4,42,9,1.2272747879909065
undo,21,8,0,0,0,1,"[0, 5, 25, 1]",4,17,"[3, 4, 6, 11, 12, 14, 15, 16, 17, 18, 20, 21, 22, 23, 24, 28, 29]",190.3091468,23942,1042,3,24,9,1.1770245007593956
undo,21,8,0,0,0,23,"[0, 5, 25, 1, 23]",5,15,"[3, 4, 6, 11, 14, 15, 16, 17, 18, 20, 21, 22, 24, 28, 29]",167.2874179,24745,803,1,14,9,1.141996583852372
undo,21,8,0,0,0,18,"[0, 5, 25, 1, 23, 18]",6,9,"[3, 4, 11, 14, 15, 16, 17, 24, 28]",125.5261919,27810,3065,1,7,9,1.3199166330970717
undo,21,8,0,0,0,14,"[0, 5, 25, 1, 23, 18, 14]",7,2,"[11, 17]",68.03706246,30026,2216,1,1,9,2.714920831666598
undo,21,8,0,0,0,17,"[0, 5, 25, 1, 23, 18, 14, 17]",8,1,[11],31.02355141,30939,913,1,0,9,2.462600896722246
undo,21,8,0,0,1,11,"[0, 5, 25, 1, 23, 18, 14, 17, 11]",9,0,[],5.84419479,31886,947,1,0,9,2.246839316887767
undo,21,8,0,1,1,11,"[0, 5, 25, 1, 23, 18, 14, 17, 11]",9,0,[],5.84419479,33097,1211,1,0,9,2.246839316887767
undo,22,5,0,0,0,0,[0],1,29,"[1, 2, 3, 4, 5, 6, 7, 8, 9, 10, 11, 12, 13, 14, 15, 16, 17, 18, 19, 20, 21, 22, 23, 24, 25, 26, 27, 28, 29]",300,208,-1,5,139,9,0.0
undo,22,5,0,0,0,23,"[0, 23]",2,27,"[1, 2, 3, 4, 5, 6, 7, 8, 9, 10, 11, 12, 13, 14, 15, 16, 17, 18, 19, 20, 21, 22, 24, 25, 26, 27, 28]",249.8402552,2042,1834,3,75,9,1.0
undo,22,5,0,0,0,12,"[0, 23, 12]",3,20,"[2, 4, 5, 6, 8, 9, 10, 13, 14, 15, 16, 17, 18, 19, 21, 22, 24, 25, 26, 27]",206.6661889,3304,1262,12,56,8,1.3018394868431302
undo,22,5,0,0,0,25,"[0, 23, 12, 25]",4,18,"[2, 4, 5, 6, 8, 9, 10, 13, 14, 15, 17, 18, 19, 21, 22, 24, 26, 27]",178.8813009,4111,807,12,34,8,1.9286025844958365
undo,22,5,0,0,0,24,"[0, 23, 12, 25, 24]",5,14,"[4, 5, 6, 8, 9, 13, 14, 15, 17, 18, 19, 22, 26, 27]",154.0418162,5187,1076,9,16,8,2.0153742455218557
undo,22,5,0,0,0,17,"[0, 23, 12, 25, 24, 17]",6,7,"[4, 5, 6, 8, 15, 18, 19]",119.0561048,6176,989,8,2,8,1.6946205255346762
undo,22,5,0,0,0,5,"[0, 23, 12, 25, 24, 17, 5]",7,4,"[4, 6, 15, 18]",76.00961835,7059,883,4,0,8,1.498607098302
undo,22,5,0,0,1,4,"[0, 23, 12, 25, 24, 17, 5, 4]",8,0,[],10.20688284,8213,1154,1,0,8,1.6537750805286209
undo,22,5,0,1,1,4,"[0, 23, 12, 25, 24, 17, 5, 4]",8,0,[],10.20688284,11279,3066,1,0,8,1.6537750805286209
basic,23,16,0,0,0,0,[0],1,29,"[1, 2, 3, 4, 5, 6, 7, 8, 9, 10, 11, 12, 13, 14, 15, 16, 17, 18, 19, 20, 21, 22, 23, 24, 25, 26, 27, 28, 29]",300,315,-1,13,161,9,0.0
basic,23,16,0,0,0,17,"[0, 17]",2,27,"[1, 2, 3, 4, 5, 7, 8, 9, 10, 11, 12, 13, 14, 15, 16, 18, 19, 20, 21, 22, 23, 24, 25, 26, 27, 28, 29]",241.3058776,11716,11401,2,58,9,1.0
basic,23,16,0,0,0,16,"[0, 17, 16]",3,26,"[1, 2, 3, 4, 5, 7, 8, 9, 10, 11, 12, 13, 14, 15, 18, 19, 20, 21, 22, 23, 24, 25, 26, 27, 28, 29]",212.9862731,13249,1533,2,52,9,1.0529535521792848
basic,23,16,0,0,0,8,"[0, 17, 16, 8]",4,19,"[2, 3, 4, 5, 9, 12, 13, 14, 15, 19, 20, 21, 22, 23, 25, 26, 27, 28, 29]",164.6127266,14235,986,2,38,9,1.0915134501573105
basic,23,16,0,0,0,20,"[0, 17, 16, 8, 20]",5,10,"[3, 4, 5, 9, 12, 13, 15, 19, 21, 25]",106.8372993,14974,739,1,15,9,1.067523143001942
basic,23,16,0,0,0,25,"[0, 17, 16, 8, 20, 25]",6,7,"[3, 4, 5, 9, 12, 13, 15]",94.18818869,15831,857,1,9,9,1.1170093326933646
basic,23,16,0,0,0,9,"[0, 17, 16, 8, 20, 25, 9]",7,5,"[3, 4, 5, 13, 15]",81.38194021,16597,766,1,4,9,1.1095076562662525
basic,23,16,0,0,0,15,"[0, 17, 16, 8, 20, 25, 9, 15]",8,1,[5],42.48463953,17677,1080,1,0,9,1.213831159678775
basic,23,16,0,0,1,5,"[0, 17, 16, 8, 20, 25, 9, 15, 5]",9,0,[],13.0567616,18659,982,1,0,9,1.5171779607523481
basic,23,16,0,1,1,5,"[0, 17, 16, 8, 20, 25, 9, 15, 5]",9,0,[],13.0567616,19681,1022,1,0,9,1.5171779607523481
basic,24,2,0,0,0,0,[0],1,23,"[1, 2, 4, 5, 6, 7, 8, 9, 12, 13, 15, 16, 17, 18, 19, 20, 22, 23, 25, 26, 27, 28, 29]",300,180,-1,70,620,10,0.0
basic,24,2,0,0,0,19,"[0, 19]",2,22,"[1, 2, 4, 5, 6, 7, 8, 9, 12, 13, 15, 16, 17, 18, 20, 22, 23, 25, 26, 27, 28, 29]",210.306076,3468,3288,67,431,10,1.0
basic,24,2,0,0,0,12,"[0, 19, 12]",3,17,"[1, 4, 5, 6, 7, 13, 15, 16, 17, 18, 20, 22, 25, 26, 27, 28, 29]",174.2921898,4395,927,66,298,10,1.1107635036313153
basic,24,2,0,0,0,5,"[0, 19, 12, 5]",4,11,"[1, 6, 7, 13, 15, 16, 18, 22, 25, 26, 29]",144.7625437,5802,1407,38,136,10,1.0968174771581647
basic,24,2,0,0,0,22,"[0, 19, 12, 5, 22]",5,8,"[1, 6, 7, 13, 15, 18, 26, 29]",131.9562952,6720,918,20,63,10,1.0889910507461968
basic,24,2,0,0,0,13,"[0, 19, 12, 5, 22, 13]",6,7,"[1, 6, 7, 15, 18, 26, 29]",117.0902265,7557,837,19,20,10,1.236526217328057
basic,24,2,0,0,0,18,"[0, 19, 12, 5, 22, 13, 18]",7,4,"[7, 15, 26, 29]",81.91921567,8455,898,10,3,10,1.2128708213409936
basic,24,2,0,0,0,7,"[0, 19, 12, 5, 22, 13, 18, 7]",8,3,"[15, 26, 29]",71.62358553,9219,764,5,0,10,1.2019811287894737
basic,24,2,0,0,0,26,"[0, 19, 12, 5, 22, 13, 18, 7, 26]",9,2,"[15, 29]",48.82007703,10067,848,2,0,10,1.1883593342191134
basic,24,2,0,0,1,15,"[0, 19, 12, 5, 22, 13, 18, 7, 26, 15]",10,0,[],24.61264015,11299,1232,1,0,10,1.4619750353663825
basic,24,2,0,1,1,15,"[0, 19, 12, 5, 22, 13, 18, 7, 26, 15]",10,0,[],24.61264015,14926,3627,1,0,10,1.4619750353663825
basic,25,11,0,0,0,0,[0],1,25,"[1, 2, 3, 4, 5, 6, 8, 9, 10, 11, 12, 13, 14, 15, 16, 17, 18, 19, 20, 22, 23, 25, 26, 27, 28]",300,222,-1,6,374,12,0.0
basic,25,11,0,0,0,17,"[0, 17]",2,18,"[1, 2, 4, 5, 6, 8, 10, 11, 12, 15, 18, 19, 22, 23, 25, 26, 27, 28]",152.9217895,4173,3951,218,762,9,1.0
basic,25,11,0,0,0,8,"[0, 17, 8]",3,15,"[1, 2, 4, 5, 6, 11, 12, 15, 18, 19, 22, 23, 25, 27, 28]",138.6039684,4908,735,95,263,9,1.1114912532636003
basic,25,11,0,0,0,15,"[0, 17, 8, 15]",4,11,"[2, 5, 6, 11, 12, 18, 19, 22, 25, 27, 28]",125.1503444,5674,766,62,51,9,1.1146194627724886
basic,25,11,0,0,0,11,"[0, 17, 8, 15, 11]",5,9,"[2, 5, 6, 12, 19, 22, 25, 27, 28]",107.0395741,6474,800,24,2,9,1.1130192047684102
basic,25,11,0,0,0,28,"[0, 17, 8, 15, 11, 28]",6,4,"[2, 5, 19, 22]",87.62308629,7426,952,6,2,9,1.2290091933070886
basic,25,11,0,0,0,5,"[0, 17, 8, 15, 11, 28, 5]",7,2,"[2, 22]",69.73454247,8224,798,2,0,9,1.4153375425476789
basic,25,11,0,0,0,2,"[0, 17, 8, 15, 11, 28, 5, 2]",8,1,[22],52.73454247,9161,937,1,0,9,1.3853330540064914
basic,25,11,0,0,1,22,"[0, 17, 8, 15, 11, 28, 5, 2, 22]",9,0,[],42.68466685,9881,720,1,0,9,1.3648232332892756
basic,25,11,0,1,1,22,"[0, 17, 8, 15, 11, 28, 5, 2, 22]",9,0,[],42.68466685,12373,2492,1,0,9,1.3648232332892756
basic,26,34,0,0,0,0,[0],1,25,"[1, 3, 4, 5, 6, 7, 8, 9, 10, 11, 12, 13, 15, 18, 19, 20, 21, 22, 23, 24, 25, 26, 27, 28, 29]",300,217,-1,12,367,10,0.0
basic,26,34,0,0,0,13,"[0, 13]",2,24,"[1, 3, 4, 5, 6, 7, 8, 9, 10, 11, 12, 15, 18, 19, 20, 21, 22, 23, 24, 25, 26, 27, 28, 29]",279.9750156,2621,2404,12,331,10,1.0
basic,26,34,0,0,0,1,"[0, 13, 1]",3,16,"[3, 5, 7, 8, 9, 10, 11, 12, 19, 21, 22, 23, 24, 25, 27, 29]",211.8574701,3622,1001,3,92,10,1.0010381285747127
basic,26,34,0,0,0,8,"[0, 13, 1, 8]",4,14,"[3, 5, 7, 9, 10, 11, 12, 19, 22, 23, 24, 25, 27, 29]",201.0871405,4438,816,2,54,10,1.1636807
basic,26,34,0,0,0,25,"[0, 13, 1, 8, 25]",5,12,"[3, 5, 7, 9, 10, 11, 12, 22, 23, 24, 27, 29]",183.999133,5118,680,2,28,10,1.1396208815936457
basic,26,34,0,0,0,24,"[0, 13, 1, 8, 25, 24]",6,11,"[3, 5, 7, 9, 10, 11, 12, 22, 23, 27, 29]",166.5062774,5917,799,2,23,10,1.374180768736554
basic,26,34,0,0,0,12,"[0, 13, 1, 8, 25, 24, 12]",7,7,"[7, 9, 10, 11, 22, 23, 27]",115.4670767,6921,1004,1,8,10,1.4994254760835948
basic,26,34,0,0,0,7,"[0, 13, 1, 8, 25, 24, 12, 7]",8,5,"[9, 11, 22, 23, 27]",100.4337804,7803,882,1,4,10,1.758992610425009
basic,26,34,0,0,0,23,"[0, 13, 1, 8, 25, 24, 12, 7, 23]",9,1,[27],72.27352467,8686,883,1,0,10,2.399781305190153
basic,26,34,0,0,1,27,"[0, 13, 1, 8, 25, 24, 12, 7, 23, 27]",10,0,[],18.60789321,9857,1171,1,0,10,4.766619878750327
basic,26,34,0,1,1,27,"[0, 13, 1, 8, 25, 24, 12, 7, 23, 27]",10,0,[],18.60789321,11111,1254,1,0,10,4.766619878750327
basic,27,42,0,0,0,0,[0],1,29,"[1, 2, 3, 4, 5, 6, 7, 8, 9, 10, 11, 12, 13, 14, 15, 16, 17, 18, 19, 20, 21, 22, 23, 24, 25, 26, 27, 28, 29]",300,215,-1,16,302,9,0.0
basic,27,42,0,0,0,5,"[0, 5]",2,28,"[1, 2, 3, 4, 6, 7, 8, 9, 10, 11, 12, 13, 14, 15, 16, 17, 18, 19, 20, 21, 22, 23, 24, 25, 26, 27, 28, 29]",191.2939744,3053,2838,1,22,9,1.0
basic,27,42,0,0,0,4,"[0, 5, 4]",3,23,"[1, 2, 3, 6, 7, 8, 9, 10, 11, 13, 15, 17, 18, 19, 20, 21, 22, 23, 24, 25, 26, 27, 29]",171.4445412,4206,1153,1,14,9,1.420957801478707
basic,27,42,0,0,0,22,"[0, 5, 4, 22]",4,20,"[1, 2, 3, 6, 7, 8, 9, 11, 15, 17, 18, 19, 20, 21, 23, 24, 25, 26, 27, 29]",160.2642013,4996,790,1,11,9,1.5771494659680896
basic,27,42,0,0,0,8,"[0, 5, 4, 22, 8]",5,14,"[1, 2, 3, 6, 7, 11, 15, 18, 19, 24, 25, 26, 27, 29]",138.1282577,5820,824,1,10,9,1.5055393955524201
basic,27,42,0,0,0,1,"[0, 5, 4, 22, 8, 1]",6,5,"[2, 7, 19, 26, 27]",89.03650682,6990,1170,1,7,9,1.3547259083637835
basic,27,42,0,0,0,7,"[0, 5, 4, 22, 8, 1, 7]",7,4,"[2, 19, 26, 27]",59.03650682,7838,848,1,3,9,1.3909715672447451
basic,27,42,0,0,0,26,"[0, 5, 4, 22, 8, 1, 7, 26]",8,1,[27],32.46584631,8790,952,1,0,9,1.3511825943939393
basic,27,42,0,0,1,27,"[0, 5, 4, 22, 8, 1, 7, 26, 27]",9,0,[],14.43808994,9662,872,1,0,9,1.3391911688802078
basic,27,42,0,1,1,27,"[0, 5, 4, 22, 8, 1, 7, 26, 27]",9,0,[],14.43808994,10563,901,1,0,9,1.3391911688802078
basic,28,21,0,0,0,0,[0],1,29,"[1, 2, 3, 4, 5, 6, 7, 8, 9, 10, 11, 12, 13, 14, 15, 16, 17, 18, 19, 20, 21, 22, 23, 24, 25, 26, 27, 28, 29]",300,210,-1,84,830,9,0.0
basic,28,21,0,0,0,21,"[0, 21]",2,22,"[1, 3, 4, 6, 8, 9, 10, 11, 12, 14, 15, 16, 17, 18, 20, 22, 23, 24, 25, 26, 27, 29]",210.1111798,3034,2824,1,69,9,1.0
basic,28,21,0,0,0,14,"[0, 21, 14]",3,15,"[1, 4, 6, 8, 9, 15, 16, 17, 18, 20, 22, 23, 24, 25, 29]",184.4986828,3792,758,35,96,8,1.0083702391721483
basic,28,21,0,0,0,4,"[0, 21, 14, 4]",4,13,"[1, 8, 9, 15, 16, 17, 18, 20, 22, 23, 24, 25, 29]",170.3565472,4445,653,20,39,8,1.0135821167776475
basic,28,21,0,0,0,16,"[0, 21, 14, 4, 16]",5,7,"[8, 15, 17, 23, 24, 25, 29]",125.758341,5417,972,4,6,8,1.0675217597413178
basic,28,21,0,0,0,8,"[0, 21, 14, 4, 16, 8]",6,3,"[15, 23, 24]",107.1572657,6188,771,3,1,8,1.0643903127717425
basic,28,21,0,0,0,15,"[0, 21, 14, 4, 16, 8, 15]",7,2,"[23, 24]",82.15726573,9388,3200,2,0,8,1.29402645910376
basic,28,21,0,0,1,24,"[0, 21, 14, 4, 16, 8, 15, 24]",8,0,[],36.4516862,10336,948,1,0,8,1.3251667405154008
basic,28,21,0,1,1,24,"[0, 21, 14, 4, 16, 8, 15, 24]",8,0,[],36.4516862,11978,1642,1,0,8,1.3251667405154008
basic,29,30,0,0,0,0,[0],1,19,"[3, 4, 5, 7, 9, 11, 16, 17, 18, 19, 20, 21, 22, 24, 25, 26, 27, 28, 29]",300,196,-1,5,41,8,0.0
basic,29,30,0,0,0,25,"[0, 25]",2,12,"[3, 5, 7, 9, 11, 16, 18, 19, 20, 24, 27, 29]",121.1005869,16712,16516,7,37,7,1.0
basic,29,30,0,0,0,20,"[0, 25, 20]",3,9,"[3, 5, 7, 9, 11, 18, 19, 27, 29]",99.16887472,17556,844,5,16,7,1.0037291321296267
basic,29,30,0,0,0,27,"[0, 25, 20, 27]",4,4,"[3, 5, 18, 29]",65.11010199,18470,914,4,6,7,1.1217072851053165
basic,29,30,0,0,0,3,"[0, 25, 20, 27, 3]",5,3,"[5, 18, 29]",46.00512882,19461,991,4,0,7,1.1140018780928678
basic,29,30,0,0,0,29,"[0, 25, 20, 27, 3, 29]",6,1,[18],27.40405358,20756,1295,1,0,7,1.119672312555708
basic,29,30,0,0,1,18,"[0, 25, 20, 27, 3, 29, 18]",7,0,[],8.090845662,21843,1087,1,0,7,1.1951451398733344
basic,29,30,0,1,1,18,"[0, 25, 20, 27, 3, 29, 18]",7,0,[],8.090845662,23497,1654,1,0,7,1.1951451398733344
basic,30,10,0,0,0,0,[0],1,29,"[1, 2, 3, 4, 5, 6, 7, 8, 9, 10, 11, 12, 13, 14, 15, 16, 17, 18, 19, 20, 21, 22, 23, 24, 25, 26, 27, 28, 29]",300,258,-1,1,100,9,0.0
basic,30,10,0,0,0,13,"[0, 13]",2,25,"[1, 2, 3, 4, 6, 7, 8, 9, 10, 11, 12, 14, 17, 18, 19, 20, 21, 22, 23, 24, 25, 26, 27, 28, 29]",249.4628849,5404,5146,1,79,9,1.0
basic,30,10,0,0,0,11,"[0, 13, 11]",3,20,"[1, 2, 3, 6, 7, 8, 9, 10, 12, 14, 18, 19, 20, 21, 22, 24, 26, 27, 28, 29]",206.4512586,6325,921,1,54,9,1.0313137484914219
basic,30,10,0,0,0,19,"[0, 13, 11, 19]",4,11,"[2, 6, 8, 9, 10, 14, 18, 20, 24, 26, 27]",170.0919407,7205,880,1,22,9,1.0879446220132545
basic,30,10,0,0,0,2,"[0, 13, 11, 19, 2]",5,4,"[14, 20, 26, 27]",126.1829439,8458,1253,1,4,9,1.06474052351343
basic,30,10,0,0,0,14,"[0, 13, 11, 19, 2, 14]",6,3,"[20, 26, 27]",114.0174188,9288,830,1,3,9,1.1628909195912238
basic,30,10,0,0,0,26,"[0, 13, 11, 19, 2, 14, 26]",7,2,"[20, 27]",79.34754716,10695,1407,1,1,9,1.6660727647633602
basic,30,10,0,0,0,20,"[0, 13, 11, 19, 2, 14, 26, 20]",8,1,[27],47.56704999,11672,977,1,0,9,2.085581809637999
basic,30,10,0,0,1,27,"[0, 13, 11, 19, 2, 14, 26, 20, 27]",9,0,[],2.312215998,12706,1034,1,0,9,1.9116357409137932
basic,30,10,0,1,1,27,"[0, 13, 11, 19, 2, 14, 26, 20, 27]",9,0,[],2.312215998,13578,872,1,0,9,1.9116357409137932
basic,31,0,0,0,0,0,[0],1,27,"[2, 3, 4, 5, 6, 7, 8, 9, 10, 11, 12, 13, 14, 15, 16, 17, 19, 20, 21, 22, 23, 24, 25, 26, 27, 28, 29]",300,179,-1,104,1136,9,0.0
basic,31,0,0,0,0,28,"[0, 28]",2,26,"[2, 3, 4, 5, 6, 7, 8, 9, 10, 11, 12, 13, 14, 15, 16, 17, 19, 20, 21, 22, 23, 24, 25, 26, 27, 29]",194.9190788,13105,12926,39,388,9,1.0
basic,31,0,0,0,0,5,"[0, 28, 5]",3,21,"[2, 3, 4, 7, 8, 9, 11, 12, 13, 14, 15, 16, 17, 19, 20, 21, 23, 24, 25, 26, 29]",151.2613189,14260,1155,27,210,9,1.0978295127671733
basic,31,0,0,0,0,4,"[0, 28, 5, 4]",4,16,"[3, 7, 8, 9, 11, 12, 13, 14, 15, 17, 19, 20, 21, 23, 24, 26]",126.1814465,15672,1412,17,114,9,1.1103727063761901
basic,31,0,0,0,0,24,"[0, 28, 5, 4, 24]",5,12,"[3, 7, 8, 9, 11, 12, 15, 17, 19, 20, 23, 26]",114.7796922,16570,898,10,46,9,1.1102188371994124
basic,31,0,0,0,0,26,"[0, 28, 5, 4, 24, 26]",6,11,"[3, 7, 8, 9, 11, 12, 15, 17, 19, 20, 23]",97.66244947,17539,969,4,19,9,1.2524379957194889
basic,31,0,0,0,0,15,"[0, 28, 5, 4, 24, 26, 15]",7,5,"[3, 7, 8, 9, 11]",60.89289685,19806,2267,3,3,9,1.2649222014712165
basic,31,0,0,0,0,7,"[0, 28, 5, 4, 24, 26, 15, 7]",8,2,"[3, 8]",29.82844771,20753,947,2,0,9,1.3178472953616562
basic,31,0,0,0,1,8,"[0, 28, 5, 4, 24, 26, 15, 7, 8]",9,0,[],10.72347454,22262,1509,1,0,9,1.3003326445592942
basic,31,0,0,1,1,8,"[0, 28, 5, 4, 24, 26, 15, 7, 8]",9,0,[],10.72347454,23113,851,1,0,9,1.3003326445592942
basic,32,6,0,0,0,0,[0],1,29,"[1, 2, 3, 4, 5, 6, 7, 8, 9, 10, 11, 12, 13, 14, 15, 16, 17, 18, 19, 20, 21, 22, 23, 24, 25, 26, 27, 28, 29]",300,179,-1,180,4304,10,0.0
basic,32,6,0,0,0,26,"[0, 26]",2,25,"[1, 2, 3, 4, 5, 6, 7, 8, 9, 10, 11, 12, 13, 14, 15, 16, 17, 18, 20, 21, 22, 23, 24, 27, 29]",250.2606795,6330,6151,45,776,10,1.0
basic,32,6,0,0,0,2,"[0, 26, 2]",3,20,"[1, 3, 4, 5, 6, 7, 8, 9, 10, 13, 14, 16, 17, 18, 21, 22, 23, 24, 27, 29]",220.4278118,7340,1010,20,184,10,1.003152463832065
basic,32,6,0,0,0,7,"[0, 26, 2, 7]",4,18,"[1, 3, 4, 6, 8, 9, 10, 13, 14, 16, 17, 18, 21, 22, 23, 24, 27, 29]",179.3182022,8355,1015,20,157,10,2.5131135963314413
basic,32,6,0,0,0,3,"[0, 26, 2, 7, 3]",5,13,"[1, 6, 8, 10, 13, 16, 17, 18, 21, 22, 23, 24, 29]",143.1795802,9290,935,18,67,10,4.677560963942129
basic,32,6,0,0,0,16,"[0, 26, 2, 7, 3, 16]",6,9,"[6, 10, 13, 17, 18, 22, 23, 24, 29]",96.94106809,11677,2387,3,11,10,2.8132170172709676
basic,32,6,0,0,0,18,"[0, 26, 2, 7, 3, 16, 18]",7,4,"[10, 17, 24, 29]",73.59583303,12799,1122,2,4,10,3.7175429872148276
basic,32,6,0,0,0,17,"[0, 26, 2, 7, 3, 16, 18, 17]",8,2,"[10, 24]",59.66744475,13633,834,2,0,10,3.4052918038285505
basic,32,6,0,0,0,10,"[0, 26, 2, 7, 3, 16, 18, 17, 10]",9,1,[24],39.94436183,14475,842,1,0,10,3.0832542837647017
basic,32,6,0,0,1,24,"[0, 26, 2, 7, 3, 16, 18, 17, 10, 24]",10,0,[],26.52795396,15191,716,1,0,10,2.8107983495160362
basic,32,6,0,1,1,24,"[0, 26, 2, 7, 3, 16, 18, 17, 10, 24]",10,0,[],26.52795396,17262,2071,1,0,10,2.8107983495160362
basic,33,20,0,0,0,0,[0],1,21,"[1, 2, 3, 4, 5, 6, 7, 8, 9, 12, 17, 18, 20, 21, 22, 23, 25, 26, 27, 28, 29]",300,216,-1,1,9,9,0.0
basic,33,20,0,0,0,12,"[0, 12]",2,20,"[1, 2, 3, 4, 5, 6, 7, 8, 9, 17, 18, 20, 21, 22, 23, 25, 26, 27, 28, 29]",271.5570747,5438,5222,1,8,9,1.0
basic,33,20,0,0,0,1,"[0, 12, 1]",3,12,"[3, 4, 5, 6, 8, 9, 20, 21, 23, 27, 28, 29]",189.5692707,6455,1017,1,6,9,1.0757997779162911
basic,33,20,0,0,0,5,"[0, 12, 1, 5]",4,10,"[4, 6, 8, 9, 20, 21, 23, 27, 28, 29]",152.8950291,7471,1016,1,5,9,1.1708231454516806
basic,33,20,0,0,0,21,"[0, 12, 1, 5, 21]",5,8,"[4, 6, 8, 9, 20, 23, 27, 28]",107.8950291,8841,1370,1,4,9,1.126197336199212
basic,33,20,0,0,0,8,"[0, 12, 1, 5, 21, 8]",6,5,"[6, 9, 23, 27, 28]",90.43077988,9489,648,1,3,9,1.140007470699913
basic,33,20,0,0,0,23,"[0, 12, 1, 5, 21, 8, 23]",7,2,"[6, 9]",45.74297394,10392,903,1,1,9,1.1162257896627588
basic,33,20,0,0,0,9,"[0, 12, 1, 5, 21, 8, 23, 9]",8,1,[6],26.53360123,11112,720,1,0,9,1.1086880559449597
basic,33,20,0,0,1,6,"[0, 12, 1, 5, 21, 8, 23, 9, 6]",9,0,[],3.511872362,11911,799,1,0,9,1.1186240265999328
basic,33,20,0,1,1,6,"[0, 12, 1, 5, 21, 8, 23, 9, 6]",9,0,[],3.511872362,13033,1122,1,0,9,1.1186240265999328
basic,34,3,0,0,0,0,[0],1,29,"[1, 2, 3, 4, 5, 6, 7, 8, 9, 10, 11, 12, 13, 14, 15, 16, 17, 18, 19, 20, 21, 22, 23, 24, 25, 26, 27, 28, 29]",300,208,-1,34,427,10,0.0
basic,34,3,0,0,0,17,"[0, 17]",2,16,"[3, 4, 7, 8, 10, 12, 14, 15, 16, 19, 20, 21, 22, 24, 26, 27]",197.6965299,4075,3867,2,27,9,1.0
basic,34,3,0,0,0,20,"[0, 17, 20]",3,13,"[3, 4, 7, 8, 10, 14, 15, 16, 19, 21, 22, 24, 27]",185.0474192,4860,785,2,24,9,1.0153332121237257
basic,34,3,0,0,0,3,"[0, 17, 20, 3]",4,10,"[4, 7, 8, 10, 14, 15, 16, 19, 21, 24]",164.6513412,5725,865,2,22,9,1.0819240770773468
basic,34,3,0,0,0,21,"[0, 17, 20, 3, 21]",5,6,"[4, 8, 10, 14, 19, 24]",115.4070522,7363,1638,7,11,8,1.2004537870665264
basic,34,3,0,0,0,14,"[0, 17, 20, 3, 21, 14]",6,5,"[4, 8, 10, 19, 24]",88.49980407,8944,1581,3,2,8,1.6432931840934288
basic,34,3,0,0,0,24,"[0, 17, 20, 3, 21, 14, 24]",7,1,[8],17.38721728,10158,1214,1,0,8,4.80178664776006
basic,34,3,0,0,1,8,"[0, 17, 20, 3, 21, 14, 24, 8]",8,0,[],5.221692224,10807,649,1,0,8,4.910244639910948
basic,34,3,0,1,1,8,"[0, 17, 20, 3, 21, 14, 24, 8]",8,0,[],5.221692224,11916,1109,1,0,8,4.910244639910948
basic,35,12,0,0,0,0,[0],1,29,"[1, 2, 3, 4, 5, 6, 7, 8, 9, 10, 11, 12, 13, 14, 15, 16, 17, 18, 19, 20, 21, 22, 23, 24, 25, 26, 27, 28, 29]",300,178,-1,2,32,9,0.0
basic,35,12,0,0,0,22,"[0, 22]",2,22,"[2, 4, 5, 6, 7, 9, 10, 12, 13, 14, 15, 16, 17, 18, 19, 21, 23, 24, 25, 27, 28, 29]",211.9943184,10763,10585,6,42,8,1.0
basic,35,12,0,0,0,16,"[0, 22, 16]",3,12,"[2, 4, 5, 6, 7, 12, 14, 19, 23, 24, 25, 27]",190.9943184,11398,635,6,24,8,1.2017164145167045
basic,35,12,0,0,0,4,"[0, 22, 16, 4]",4,9,"[2, 6, 7, 12, 14, 19, 24, 25, 27]",156.7890556,12173,775,6,14,8,1.146531713305579
basic,35,12,0,0,0,12,"[0, 22, 16, 4, 12]",5,4,"[14, 19, 24, 27]",114.5990094,13105,932,4,3,8,1.1221389456954312
basic,35,12,0,0,0,27,"[0, 22, 16, 4, 12, 27]",6,3,"[14, 19, 24]",90.24741807,13778,673,2,1,8,1.2262878338287035
basic,35,12,0,0,0,14,"[0, 22, 16, 4, 12, 27, 14]",7,1,[24],61.59432051,14653,875,1,0,8,1.2804562106751427
basic,35,12,0,0,1,24,"[0, 22, 16, 4, 12, 27, 14, 24]",8,0,[],44.38966997,15336,683,1,0,8,1.4322660007679802
basic,35,12,0,1,1,24,"[0, 22, 16, 4, 12, 27, 14, 24]",8,0,[],44.38966997,17015,1679,1,0,8,1.4322660007679802
basic,36,28,0,0,0,0,[0],1,27,"[1, 2, 3, 4, 5, 6, 7, 8, 9, 10, 11, 12, 13, 14, 15, 16, 17, 18, 19, 20, 22, 23, 25, 26, 27, 28, 29]",300,196,-1,2,96,9,0.0
basic,36,28,0,0,0,14,"[0, 14]",2,14,"[1, 2, 3, 5, 7, 10, 11, 12, 13, 17, 18, 19, 20, 26]",147.8914861,7987,7791,1,26,8,1.0
basic,36,28,0,0,0,18,"[0, 14, 18]",3,11,"[1, 2, 3, 5, 7, 11, 12, 13, 17, 19, 26]",122.3963885,8834,847,1,23,8,1.0675599824559303
basic,36,28,0,0,0,13,"[0, 14, 18, 13]",4,7,"[2, 7, 11, 12, 17, 19, 26]",97.9832773,9633,799,1,9,8,1.0602397944415018
basic,36,28,0,0,0,12,"[0, 14, 18, 13, 12]",5,4,"[2, 7, 17, 19]",80.77862677,10469,836,1,3,8,1.0640685934245377
basic,36,28,0,0,0,7,"[0, 14, 18, 13, 12, 7]",6,2,"[2, 19]",67.62568033,11204,735,1,1,8,1.186262804928269
basic,36,28,0,0,0,19,"[0, 14, 18, 13, 12, 7, 19]",7,1,[2],39.89483108,12053,849,1,0,8,1.424576333867947
basic,36,28,0,0,1,2,"[0, 14, 18, 13, 12, 7, 19, 2]",8,0,[],2.531747699,13269,1216,1,0,8,1.4824387893309579
basic,36,28,0,1,1,2,"[0, 14, 18, 13, 12, 7, 19, 2]",8,0,[],2.531747699,14226,957,1,0,8,1.4824387893309579
basic,37,5,0,0,0,0,[0],1,29,"[1, 2, 3, 4, 5, 6, 7, 8, 9, 10, 11, 12, 13, 14, 15, 16, 17, 18, 19, 20, 21, 22, 23, 24, 25, 26, 27, 28, 29]",300,178,-1,5,139,9,0.0
basic,37,5,0,0,0,12,"[0, 12]",2,22,"[2, 4, 5, 6, 8, 9, 10, 13, 14, 15, 16, 17, 18, 19, 21, 22, 23, 24, 25, 26, 27, 28]",228.3062067,4035,3857,1,27,9,1.0
basic,37,5,0,0,0,25,"[0, 12, 25]",3,21,"[2, 4, 5, 6, 8, 9, 10, 13, 14, 15, 16, 17, 18, 19, 21, 22, 23, 24, 26, 27, 28]",200.5213187,4890,855,1,20,9,1.584023303445617
basic,37,5,0,0,0,23,"[0, 12, 25, 23]",4,19,"[2, 4, 5, 6, 8, 9, 10, 13, 14, 15, 16, 17, 18, 19, 21, 22, 24, 26, 27]",182.0822298,6087,1197,1,14,9,2.3508446989254357
basic,37,5,0,0,0,24,"[0, 12, 25, 23, 24]",5,15,"[2, 4, 5, 6, 8, 9, 13, 14, 15, 17, 18, 19, 22, 26, 27]",158.995437,6924,837,1,12,9,1.9469752046288753
basic,37,5,0,0,0,17,"[0, 12, 25, 23, 24, 17]",6,7,"[4, 5, 6, 8, 15, 18, 19]",124.0097257,7836,912,1,8,9,1.6482276497563642
basic,37,5,0,0,0,5,"[0, 12, 25, 23, 24, 17, 5]",7,4,"[4, 6, 15, 18]",80.96323916,8725,889,1,3,9,1.4654649104389412
basic,37,5,0,0,1,15,"[0, 12, 25, 23, 24, 17, 5, 15]",8,0,[],40.93824697,9710,985,1,0,8,1.4660376450939663
basic,37,5,0,1,1,15,"[0, 12, 25, 23, 24, 17, 5, 15]",8,0,[],40.93824697,11095,1385,1,0,8,1.4660376450939663
basic,38,38,0,0,0,0,[0],1,29,"[1, 2, 3, 4, 5, 6, 7, 8, 9, 10, 11, 12, 13, 14, 15, 16, 17, 18, 19, 20, 21, 22, 23, 24, 25, 26, 27, 28, 29]",300,205,-1,33,506,9,0.0
basic,38,38,0,0,0,11,"[0, 11]",2,23,"[1, 2, 3, 4, 5, 7, 10, 12, 13, 14, 15, 16, 17, 18, 19, 20, 21, 22, 24, 25, 26, 27, 28]",220.093805,3406,3201,2,40,9,1.0
basic,38,38,0,0,0,15,"[0, 11, 15]",3,19,"[1, 3, 4, 5, 7, 10, 12, 13, 14, 16, 17, 18, 19, 20, 22, 24, 26, 27, 28]",183.6932555,4419,1013,11,93,8,1.5850843355177096
basic,38,38,0,0,0,4,"[0, 11, 15, 4]",4,15,"[3, 5, 12, 13, 14, 16, 17, 18, 19, 20, 22, 24, 26, 27, 28]",157.6932555,6088,1669,8,37,8,2.02964249148567
basic,38,38,0,0,0,13,"[0, 11, 15, 4, 13]",5,9,"[16, 17, 18, 19, 20, 24, 26, 27, 28]",126.2926186,7020,932,3,9,8,1.7771564207398736
basic,38,38,0,0,0,20,"[0, 11, 15, 4, 13, 20]",6,2,"[17, 19]",77.03817719,7975,955,2,0,8,4.140297108727487
basic,38,38,0,0,0,17,"[0, 11, 15, 4, 13, 20, 17]",7,1,[19],53.26844854,8908,933,1,0,8,3.8066973418789267
basic,38,38,0,0,1,19,"[0, 11, 15, 4, 13, 20, 17, 19]",8,0,[],31.89089021,9724,816,1,0,8,3.3306121937633018
basic,38,38,0,1,1,19,"[0, 11, 15, 4, 13, 20, 17, 19]",8,0,[],31.89089021,11045,1321,1,0,8,3.3306121937633018
basic,39,29,0,0,0,0,[0],1,29,"[1, 2, 3, 4, 5, 6, 7, 8, 9, 10, 11, 12, 13, 14, 15, 16, 17, 18, 19, 20, 21, 22, 23, 24, 25, 26, 27, 28, 29]",300,235,-1,1,78,9,0.0
basic,39,29,0,0,0,25,"[0, 25]",2,18,"[1, 2, 4, 5, 6, 7, 9, 10, 12, 13, 14, 15, 16, 17, 22, 26, 27, 28]",223.3449284,2172,1937,13,101,8,1.0
basic,39,29,0,0,0,17,"[0, 25, 17]",3,13,"[1, 4, 5, 6, 7, 9, 10, 12, 13, 14, 22, 27, 28]",188.41643,2991,819,2,22,8,1.014228463693056
basic,39,29,0,0,0,1,"[0, 25, 17, 1]",4,11,"[4, 5, 6, 7, 10, 12, 13, 14, 22, 27, 28]",149.5191293,3959,968,2,18,8,1.7553639368828857
basic,39,29,0,0,0,14,"[0, 25, 17, 1, 14]",5,8,"[4, 5, 7, 12, 13, 22, 27, 28]",106.5656662,4825,866,2,9,8,2.137167642879409
basic,39,29,0,0,0,13,"[0, 25, 17, 1, 14, 13]",6,4,"[4, 5, 12, 22]",88.53790978,5557,732,2,3,8,1.9535489858276616
basic,39,29,0,0,0,5,"[0, 25, 17, 1, 14, 13, 5]",7,2,"[4, 22]",62.82798951,6325,768,2,0,8,1.9087092890879327
basic,39,29,0,0,1,4,"[0, 25, 17, 1, 14, 13, 5, 4]",8,0,[],10.93386653,7450,1125,1,0,8,1.6444131700810427
basic,39,29,0,1,1,4,"[0, 25, 17, 1, 14, 13, 5, 4]",8,0,[],10.93386653,8267,817,1,0,8,1.6444131700810427
basic,40,14,0,0,0,0,[0],1,29,"[1, 2, 3, 4, 5, 6, 7, 8, 9, 10, 11, 12, 13, 14, 15, 16, 17, 18, 19, 20, 21, 22, 23, 24, 25, 26, 27, 28, 29]",300,190,-1,8,157,10,0.0
basic,40,14,0,0,0,15,"[0, 15]",2,20,"[1, 2, 3, 4, 7, 8, 9, 13, 17, 18, 19, 20, 21, 22, 23, 25, 26, 27, 28, 29]",216.7053423,3275,3085,8,102,10,1.0
basic,40,14,0,0,0,28,"[0, 15, 28]",3,17,"[1, 2, 3, 4, 7, 8, 9, 13, 17, 18, 19, 20, 22, 23, 25, 26, 27]",197.4959696,4021,746,8,48,10,1.0446007867311968
basic,40,14,0,0,0,17,"[0, 15, 28, 17]",4,14,"[1, 2, 3, 4, 7, 8, 13, 18, 19, 20, 22, 23, 25, 26]",184.0423455,4793,772,8,39,10,1.0729463354689972
basic,40,14,0,0,0,18,"[0, 15, 28, 17, 18]",5,9,"[1, 2, 4, 7, 8, 19, 23, 25, 26]",119.412631,5875,1082,8,27,10,1.5035901079219378
basic,40,14,0,0,0,8,"[0, 15, 28, 17, 18, 8]",6,8,"[1, 2, 4, 7, 19, 23, 25, 26]",105.8111605,6609,734,8,18,10,1.4819689987843856
basic,40,14,0,0,0,1,"[0, 15, 28, 17, 18, 8, 1]",7,5,"[7, 19, 23, 25, 26]",82.21031307,7377,768,4,6,10,1.4084991998385268
basic,40,14,0,0,0,19,"[0, 15, 28, 17, 18, 8, 1, 19]",8,4,"[7, 23, 25, 26]",66.97876686,8128,751,4,1,10,1.5758713333797987
basic,40,14,0,0,0,25,"[0, 15, 28, 17, 18, 8, 1, 19, 25]",9,2,"[7, 23]",31.1318702,10075,1947,2,0,10,1.6426186864061416
basic,40,14,0,0,1,7,"[0, 15, 28, 17, 18, 8, 1, 19, 25, 7]",10,0,[],11.4341546,10978,903,1,0,10,1.652323224159132
basic,40,14,0,1,1,7,"[0, 15, 28, 17, 18, 8, 1, 19, 25, 7]",10,0,[],11.4341546,12250,1272,1,0,10,1.652323224159132
basic,41,19,0,0,0,0,[0],1,29,"[1, 2, 3, 4, 5, 6, 7, 8, 9, 10, 11, 12, 13, 14, 15, 16, 17, 18, 19, 20, 21, 22, 23, 24, 25, 26, 27, 28, 29]",300,209,-1,12,149,8,0.0
basic,41,19,0,0,0,12,"[0, 12]",2,15,"[1, 2, 3, 5, 8, 9, 13, 16, 17, 18, 19, 21, 23, 25, 29]",180.3964883,2719,2510,9,58,7,1.0
basic,41,19,0,0,0,25,"[0, 12, 25]",3,11,"[1, 2, 3, 8, 13, 16, 17, 18, 19, 23, 29]",163.2792456,3484,765,3,32,7,1.002593021312995
basic,41,19,0,0,0,17,"[0, 12, 25, 17]",4,10,"[1, 2, 3, 8, 13, 16, 18, 19, 23, 29]",152.2338846,3970,486,3,14,7,1.0661324787663027
basic,41,19,0,0,0,2,"[0, 12, 25, 17, 2]",5,3,"[3, 8, 23]",84.20447915,4955,985,3,0,6,1.0481687538232383
basic,41,19,0,0,1,8,"[0, 12, 25, 17, 2, 8]",6,0,[],18.71402183,5936,981,1,0,6,1.2908324139249414
basic,41,19,0,1,1,8,"[0, 12, 25, 17, 2, 8]",6,0,[],18.71402183,6893,957,1,0,6,1.2908324139249414
basic,42,15,0,0,0,0,[0],1,25,"[1, 2, 3, 4, 7, 8, 9, 10, 11, 12, 13, 14, 15, 16, 18, 20, 21, 22, 23, 24, 25, 26, 27, 28, 29]",300,200,-1,4,65,9,0.0
basic,42,15,0,0,0,21,"[0, 21]",2,17,"[1, 3, 4, 7, 8, 9, 11, 12, 13, 14, 15, 16, 22, 23, 24, 26, 27]",204.9158268,6721,6521,21,65,7,1.0
basic,42,15,0,0,0,12,"[0, 21, 12]",3,14,"[1, 3, 4, 7, 8, 9, 11, 13, 14, 15, 16, 22, 24, 27]",161.0866128,7721,1000,20,39,7,1.6068212046294776
basic,42,15,0,0,0,7,"[0, 21, 12, 7]",4,10,"[3, 4, 9, 11, 13, 14, 15, 16, 22, 27]",127.8450725,8599,878,13,11,7,2.0298522511797907
basic,42,15,0,0,0,16,"[0, 21, 12, 7, 16]",5,5,"[3, 4, 11, 15, 22]",84.18731258,9523,924,3,3,7,1.8904046427013528
basic,42,15,0,0,0,11,"[0, 21, 12, 7, 16, 11]",6,1,[3],58.16808892,10345,822,1,0,7,1.9475991988988648
basic,42,15,0,0,1,3,"[0, 21, 12, 7, 16, 11, 3]",7,0,[],46.76633467,11018,673,1,0,7,1.912955285957019
basic,42,15,0,1,1,3,"[0, 21, 12, 7, 16, 11, 3]",7,0,[],46.76633467,13848,2830,1,0,7,1.912955285957019
basic,43,31,0,0,0,0,[0],1,27,"[1, 3, 4, 5, 6, 7, 8, 10, 11, 12, 13, 14, 15, 16, 17, 18, 19, 20, 21, 22, 23, 24, 25, 26, 27, 28, 29]",300,213,-1,2,87,10,0.0
basic,43,31,0,0,0,14,"[0, 14]",2,25,"[1, 3, 5, 6, 7, 8, 10, 11, 12, 13, 15, 16, 17, 18, 19, 20, 21, 22, 23, 24, 25, 26, 27, 28, 29]",263.861378,1857,1644,2,59,10,1.0
basic,43,31,0,0,0,27,"[0, 14, 27]",3,22,"[1, 3, 5, 6, 7, 8, 10, 11, 12, 13, 15, 16, 17, 18, 19, 20, 21, 22, 24, 25, 28, 29]",235.6833724,2794,937,1,39,10,1.5881859159302467
basic,43,31,0,0,0,8,"[0, 14, 27, 8]",4,20,"[1, 3, 5, 6, 7, 10, 11, 12, 13, 16, 17, 18, 19, 20, 21, 22, 24, 25, 28, 29]",224.6380114,3424,630,1,36,10,2.1665048452331277
basic,43,31,0,0,0,18,"[0, 14, 27, 8, 18]",5,15,"[1, 5, 6, 7, 11, 12, 13, 16, 17, 19, 20, 22, 25, 28, 29]",188.7911147,4605,1181,1,26,10,1.7273375741920205
basic,43,31,0,0,0,17,"[0, 14, 27, 8, 18, 17]",6,13,"[1, 5, 6, 7, 11, 12, 13, 16, 19, 20, 22, 25, 28]",159.584951,5838,1233,1,13,10,1.551192427769927
basic,43,31,0,0,0,11,"[0, 14, 27, 8, 18, 17, 11]",7,7,"[5, 12, 16, 19, 22, 25, 28]",118.4753414,6777,939,1,4,10,2.9650760544203494
basic,43,31,0,0,0,5,"[0, 14, 27, 8, 18, 17, 11, 5]",8,2,"[16, 28]",74.79468207,7840,1063,1,1,10,2.56711965625205
basic,43,31,0,0,0,28,"[0, 14, 27, 8, 18, 17, 11, 5, 28]",9,1,[16],54.57093365,8823,983,1,0,10,2.2865510762058148
basic,43,31,0,0,1,16,"[0, 14, 27, 8, 18, 17, 11, 5, 28, 16]",10,0,[],20.95546102,9736,913,1,0,10,2.089356850786318
basic,43,31,0,1,1,16,"[0, 14, 27, 8, 18, 17, 11, 5, 28, 16]",10,0,[],20.95546102,10697,961,1,0,10,2.089356850786318
basic,44,18,0,0,0,0,[0],1,28,"[1, 2, 3, 4, 5, 6, 7, 8, 9, 10, 11, 12, 13, 14, 16, 17, 18, 19, 20, 21, 22, 23, 24, 25, 26, 27, 28, 29]",300,163,-1,3,136,10,0.0
basic,44,18,0,0,0,28,"[0, 28]",2,16,"[1, 3, 5, 7, 8, 9, 12, 13, 14, 16, 20, 23, 24, 25, 26, 27]",236.4311397,2708,2545,2,19,10,1.0
basic,44,18,0,0,0,7,"[0, 28, 7]",3,15,"[1, 3, 5, 8, 9, 12, 13, 14, 16, 20, 23, 24, 25, 26, 27]",214.4084242,3524,816,2,17,10,1.4345180696367563
basic,44,18,0,0,0,25,"[0, 28, 7, 25]",4,13,"[1, 3, 5, 8, 9, 12, 13, 14, 16, 20, 23, 26, 27]",186.6055466,4307,783,2,15,10,1.8896451241781882
basic,44,18,0,0,0,8,"[0, 28, 7, 25, 8]",5,10,"[3, 5, 9, 12, 13, 14, 16, 23, 26, 27]",149.551532,5107,800,2,10,10,1.590467437592877
basic,44,18,0,0,0,13,"[0, 28, 7, 25, 8, 13]",6,9,"[3, 5, 9, 12, 14, 16, 23, 26, 27]",128.4565089,5773,666,2,5,10,1.8248274983549797
basic,44,18,0,0,0,14,"[0, 28, 7, 25, 8, 13, 14]",7,7,"[3, 5, 9, 12, 23, 26, 27]",109.4828429,6522,749,2,3,10,1.6993534956692746
basic,44,18,0,0,0,3,"[0, 28, 7, 25, 8, 13, 14, 3]",8,3,"[5, 12, 27]",79.39962499,7390,868,2,1,10,1.802637206541468
basic,44,18,0,0,0,5,"[0, 28, 7, 25, 8, 13, 14, 3, 5]",9,1,[12],21.21887216,8404,1014,1,0,10,1.559774889743805
basic,44,18,0,0,1,12,"[0, 28, 7, 25, 8, 13, 14, 3, 5, 12]",10,0,[],9.817117911,9307,903,1,0,10,1.563993037384447
basic,44,18,0,1,1,12,"[0, 28, 7, 25, 8, 13, 14, 3, 5, 12]",10,0,[],9.817117911,10531,1224,1,0,10,1.563993037384447
basic,45,35,0,0,0,0,[0],1,29,"[1, 2, 3, 4, 5, 6, 7, 8, 9, 10, 11, 12, 13, 14, 15, 16, 17, 18, 19, 20, 21, 22, 23, 24, 25, 26, 27, 28, 29]",300,181,-1,5,236,11,0.0
basic,45,35,0,0,0,24,"[0, 24]",2,27,"[1, 2, 4, 5, 6, 7, 8, 9, 10, 11, 12, 13, 14, 15, 16, 17, 18, 19, 20, 21, 22, 23, 25, 26, 27, 28, 29]",268.9838752,1846,1665,49,512,10,1.0
basic,45,35,0,0,0,17,"[0, 24, 17]",3,26,"[1, 2, 4, 5, 6, 7, 8, 9, 10, 11, 12, 13, 14, 15, 16, 18, 19, 20, 21, 22, 23, 25, 26, 27, 28, 29]",257.2791753,2493,647,33,238,10,1.0771477201815276
basic,45,35,0,0,0,1,"[0, 24, 17, 1]",4,25,"[2, 4, 5, 6, 7, 8, 9, 10, 11, 12, 13, 14, 15, 16, 18, 19, 20, 21, 22, 23, 25, 26, 27, 28, 29]",241.4677869,3243,750,26,151,10,1.2244804141479215
basic,45,35,0,0,0,15,"[0, 24, 17, 1, 15]",5,23,"[2, 4, 5, 6, 7, 8, 9, 10, 11, 12, 14, 16, 18, 19, 20, 21, 22, 23, 25, 26, 27, 28, 29]",218.6204676,4158,915,26,78,10,1.4642196672428094
basic,45,35,0,0,0,5,"[0, 24, 17, 1, 15, 5]",6,13,"[4, 6, 9, 11, 18, 19, 20, 23, 25, 26, 27, 28, 29]",162.2999563,5794,1636,7,20,10,1.2337505118614283
basic,45,35,0,0,0,23,"[0, 24, 17, 1, 15, 5, 23]",7,4,"[6, 9, 18, 25]",107.8481427,6820,1026,6,6,10,1.8072927740829974
basic,45,35,0,0,0,9,"[0, 24, 17, 1, 15, 5, 23, 9]",8,3,"[6, 18, 25]",70.20508226,7756,936,2,2,10,2.044176666334238
basic,45,35,0,0,0,18,"[0, 24, 17, 1, 15, 5, 23, 9, 18]",9,2,"[6, 25]",50.18009787,8677,921,2,0,10,1.942139959218181
basic,45,35,0,0,1,6,"[0, 24, 17, 1, 15, 5, 23, 9, 18, 6]",10,0,[],16.56462524,9557,880,1,0,10,1.8743036916552862
basic,45,35,0,1,1,6,"[0, 24, 17, 1, 15, 5, 23, 9, 18, 6]",10,0,[],16.56462524,11496,1939,1,0,10,1.8743036916552862
basic,46,9,0,0,0,0,[0],1,27,"[1, 3, 4, 5, 6, 7, 8, 9, 10, 11, 13, 14, 15, 16, 17, 18, 19, 20, 21, 22, 23, 24, 25, 26, 27, 28, 29]",300,166,-1,2,182,10,0.0
basic,46,9,0,0,0,8,"[0, 8]",2,25,"[1, 3, 4, 5, 6, 7, 9, 10, 11, 13, 14, 15, 16, 17, 18, 19, 20, 21, 22, 23, 24, 25, 26, 27, 28]",236.2191251,3038,2872,2,102,9,1.0
basic,46,9,0,0,0,28,"[0, 8, 28]",3,23,"[1, 3, 4, 5, 6, 7, 9, 10, 11, 13, 15, 16, 17, 18, 19, 20, 21, 22, 23, 24, 25, 26, 27]",225.4024713,3676,638,2,52,9,1.0043219354187498
basic,46,9,0,0,0,23,"[0, 8, 28, 23]",4,21,"[1, 3, 4, 5, 7, 9, 10, 11, 13, 15, 16, 17, 18, 19, 20, 21, 22, 24, 25, 26, 27]",200.3824793,4350,674,19,104,8,1.6731219967216804
basic,46,9,0,0,0,9,"[0, 8, 28, 23, 9]",5,19,"[1, 3, 4, 5, 7, 10, 11, 13, 15, 16, 18, 19, 20, 21, 22, 24, 25, 26, 27]",178.0217995,5059,709,12,35,8,1.6380661913087589
basic,46,9,0,0,0,26,"[0, 8, 28, 23, 9, 26]",6,9,"[3, 5, 10, 15, 16, 18, 19, 20, 21]",121.3737634,5908,849,3,6,8,1.529011463409394
basic,46,9,0,0,0,18,"[0, 8, 28, 23, 9, 26, 18]",7,1,[19],60.49683834,6825,917,1,0,8,1.3743231272597587
basic,46,9,0,0,1,19,"[0, 8, 28, 23, 9, 26, 18, 19]",8,0,[],4.176326981,7764,939,1,0,8,1.7377957110303042
basic,46,9,0,1,1,19,"[0, 8, 28, 23, 9, 26, 18, 19]",8,0,[],4.176326981,8486,722,1,0,8,1.7377957110303042
basic,47,44,0,0,0,0,[0],1,29,"[1, 2, 3, 4, 5, 6, 7, 8, 9, 10, 11, 12, 13, 14, 15, 16, 17, 18, 19, 20, 21, 22, 23, 24, 25, 26, 27, 28, 29]",300,195,-1,13,126,7,0.0
basic,47,44,0,0,0,8,"[0, 8]",2,17,"[1, 4, 5, 7, 9, 10, 11, 12, 13, 14, 15, 20, 21, 23, 24, 25, 27]",145.7923478,4843,4648,1,10,7,1.0
basic,47,44,0,0,0,20,"[0, 8, 20]",3,16,"[1, 4, 5, 7, 9, 10, 11, 12, 13, 14, 15, 21, 23, 24, 25, 27]",133.7093018,5471,628,1,9,7,1.0890794433668698
basic,47,44,0,0,0,9,"[0, 8, 20, 9]",4,7,"[4, 7, 11, 12, 14, 23, 24]",76.43801756,18363,12892,1,6,7,1.40892325509949
basic,47,44,0,0,0,4,"[0, 8, 20, 9, 4]",5,4,"[7, 12, 23, 24]",56.74030196,19173,810,1,3,7,1.3849770570803555
basic,47,44,0,0,0,7,"[0, 8, 20, 9, 4, 7]",6,1,[23],25.72417712,20052,879,1,0,7,1.3274380931474288
basic,47,44,0,0,1,23,"[0, 8, 20, 9, 4, 7, 23]",7,0,[],6.619203947,20773,721,1,0,7,1.3395824779823196
basic,47,44,0,1,1,23,"[0, 8, 20, 9, 4, 7, 23]",7,0,[],6.619203947,21466,693,1,0,7,1.3395824779823196
basic,48,39,0,0,0,0,[0],1,28,"[1, 2, 3, 4, 5, 6, 7, 9, 10, 11, 12, 13, 14, 15, 16, 17, 18, 19, 20, 21, 22, 23, 24, 25, 26, 27, 28, 29]",300,180,-1,1,30,10,0.0
basic,48,39,0,0,0,29,"[0, 29]",2,26,"[1, 2, 3, 4, 5, 6, 7, 9, 10, 12, 13, 14, 15, 16, 17, 18, 19, 20, 21, 22, 23, 24, 25, 26, 27, 28]",243.0614366,3007,2827,8,104,9,1.0
basic,48,39,0,0,0,12,"[0, 29, 12]",3,18,"[1, 2, 4, 5, 7, 9, 10, 13, 14, 15, 16, 18, 19, 22, 23, 24, 26, 28]",182.5221931,4156,1149,5,54,9,1.0026200331524904
basic,48,39,0,0,0,10,"[0, 29, 12, 10]",4,16,"[1, 2, 4, 5, 7, 9, 13, 14, 15, 16, 18, 19, 22, 23, 24, 26]",147.0116313,5058,902,5,34,9,1.2874817019928908
basic,48,39,0,0,0,7,"[0, 29, 12, 10, 7]",5,10,"[1, 2, 5, 13, 16, 18, 19, 22, 24, 26]",113.5900814,6090,1032,4,12,9,1.2250826263866774
basic,48,39,0,0,0,26,"[0, 29, 12, 10, 7, 26]",6,5,"[1, 16, 18, 19, 22]",94.90853971,6873,783,3,4,9,1.2697275353190085
basic,48,39,0,0,0,22,"[0, 29, 12, 10, 7, 26, 22]",7,2,"[16, 19]",77.18849457,8327,1454,2,0,9,1.438961743955176
basic,48,39,0,0,0,16,"[0, 29, 12, 10, 7, 26, 22, 16]",8,1,[19],42.18849457,9322,995,1,0,9,1.3580882130477205
basic,48,39,0,0,1,19,"[0, 29, 12, 10, 7, 26, 22, 16, 19]",9,0,[],24.72424537,10142,820,1,0,9,1.3646589157842668
basic,48,39,0,1,1,19,"[0, 29, 12, 10, 7, 26, 22, 16, 19]",9,0,[],24.72424537,11229,1087,1,0,9,1.3646589157842668
basic,49,36,0,0,0,0,[0],1,24,"[2, 4, 5, 6, 7, 8, 9, 10, 12, 13, 14, 15, 16, 17, 18, 19, 20, 22, 23, 25, 26, 27, 28, 29]",300,180,-1,2,200,10,0.0
basic,49,36,0,0,0,12,"[0, 12]",2,23,"[2, 4, 5, 6, 7, 8, 9, 10, 13, 14, 15, 16, 17, 18, 19, 20, 22, 23, 25, 26, 27, 28, 29]",277.7963967,3155,2975,90,804,9,1.0
basic,49,36,0,0,0,13,"[0, 12, 13]",3,18,"[2, 4, 7, 8, 9, 10, 16, 17, 18, 19, 20, 22, 23, 25, 26, 27, 28, 29]",198.6193798,5406,2251,15,125,9,1.033635478646562
basic,49,36,0,0,0,25,"[0, 12, 13, 25]",4,12,"[2, 4, 8, 9, 10, 16, 17, 18, 19, 23, 27, 29]",178.0281195,6188,782,13,50,9,1.0653480204572918
basic,49,36,0,0,0,2,"[0, 12, 13, 25, 2]",5,9,"[4, 8, 9, 10, 16, 17, 18, 19, 27]",153.0281195,7143,955,13,13,9,1.3014517483013393
basic,49,36,0,0,0,19,"[0, 12, 13, 25, 2, 19]",6,5,"[9, 10, 16, 17, 18]",115.9066972,8024,881,5,2,9,2.3884063284404666
basic,49,36,0,0,0,9,"[0, 12, 13, 25, 2, 19, 9]",7,3,"[16, 17, 18]",100.7739512,8806,782,2,1,9,2.8846088544693567
basic,49,36,0,0,0,17,"[0, 12, 13, 25, 2, 19, 9, 17]",8,1,[16],74.52514171,9607,801,1,0,9,2.3856100497832267
basic,49,36,0,0,1,16,"[0, 12, 13, 25, 2, 19, 9, 17, 16]",9,0,[],46.20553719,10356,749,1,0,9,2.3777330471152243
basic,49,36,0,1,1,16,"[0, 12, 13, 25, 2, 19, 9, 17, 16]",9,0,[],46.20553719,11479,1123,1,0,9,2.3777330471152243
basic,50,32,0,0,0,0,[0],1,29,"[1, 2, 3, 4, 5, 6, 7, 8, 9, 10, 11, 12, 13, 14, 15, 16, 17, 18, 19, 20, 21, 22, 23, 24, 25, 26, 27, 28, 29]",300,179,-1,17,359,10,0.0
basic,50,32,0,0,0,19,"[0, 19]",2,28,"[1, 2, 3, 4, 5, 6, 7, 8, 9, 10, 11, 12, 13, 14, 15, 16, 17, 18, 20, 21, 22, 23, 24, 25, 26, 27, 28, 29]",283.5075775,3720,3541,16,294,10,1.0
basic,50,32,0,0,0,13,"[0, 19, 13]",3,24,"[2, 3, 4, 5, 6, 8, 9, 10, 11, 12, 14, 15, 16, 17, 18, 20, 21, 22, 23, 24, 25, 26, 27, 28]",260.3127505,4643,923,14,227,10,1.0172874229878615
basic,50,32,0,0,0,17,"[0, 19, 13, 17]",4,12,"[2, 5, 8, 9, 12, 15, 16, 20, 22, 25, 27, 28]",174.7090123,5823,1180,2,32,10,1.1087263887351317
basic,50,32,0,0,0,15,"[0, 19, 13, 17, 15]",5,7,"[2, 5, 9, 12, 16, 22, 28]",109.1956548,6903,1080,1,12,10,2.2347271047741324
basic,50,32,0,0,0,28,"[0, 19, 13, 17, 15, 28]",6,6,"[2, 5, 9, 12, 16, 22]",97.79390058,7655,752,1,10,10,2.0896018743886144
basic,50,32,0,0,0,12,"[0, 19, 13, 17, 15, 28, 12]",7,4,"[2, 9, 16, 22]",78.82023462,8551,896,1,4,10,1.9645101534656741
basic,50,32,0,0,0,16,"[0, 19, 13, 17, 15, 28, 12, 16]",8,2,"[9, 22]",63.16775878,9409,858,1,1,10,2.0168538991556715
basic,50,32,0,0,0,22,"[0, 19, 13, 17, 15, 28, 12, 16, 22]",9,1,[9],29.32991015,10586,1177,1,0,10,1.9168039255064313
basic,50,32,0,0,1,9,"[0, 19, 13, 17, 15, 28, 12, 16, 22, 9]",10,0,[],7.126306838,11395,809,1,0,10,1.9344770562131763
basic,50,32,0,1,1,9,"[0, 19, 13, 17, 15, 28, 12, 16, 22, 9]",10,0,[],7.126306838,12111,716,1,0,10,1.9344770562131763
basic,51,13,0,0,0,0,[0],1,29,"[1, 2, 3, 4, 5, 6, 7, 8, 9, 10, 11, 12, 13, 14, 15, 16, 17, 18, 19, 20, 21, 22, 23, 24, 25, 26, 27, 28, 29]",300,180,-1,60,2676,11,0.0
basic,51,13,0,0,0,28,"[0, 28]",2,24,"[1, 2, 3, 4, 6, 7, 8, 9, 10, 11, 12, 13, 15, 16, 17, 19, 20, 21, 22, 23, 24, 26, 27, 29]",226.3182519,2656,2476,12,378,10,1.0
basic,51,13,0,0,0,2,"[0, 28, 2]",3,20,"[1, 3, 4, 6, 7, 9, 11, 12, 13, 15, 16, 17, 19, 20, 21, 23, 24, 26, 27, 29]",188.6751915,3525,869,9,174,10,1.0158286399660754
basic,51,13,0,0,0,29,"[0, 28, 2, 29]",4,19,"[1, 3, 4, 6, 7, 9, 11, 12, 13, 15, 16, 17, 19, 20, 21, 23, 24, 26, 27]",176.9704916,4256,731,9,132,10,1.1053279759370194
basic,51,13,0,0,0,7,"[0, 28, 2, 29, 7]",5,18,"[1, 3, 4, 6, 9, 11, 12, 13, 15, 16, 17, 19, 20, 21, 23, 24, 26, 27]",161.706154,4991,735,6,72,10,1.313811244316471
basic,51,13,0,0,0,26,"[0, 28, 2, 29, 7, 26]",6,17,"[1, 3, 4, 6, 9, 11, 12, 13, 15, 16, 17, 19, 20, 21, 23, 24, 27]",151.2658475,5622,631,6,39,10,1.554636901089982
basic,51,13,0,0,0,6,"[0, 28, 2, 29, 7, 26, 6]",7,13,"[1, 3, 4, 11, 13, 15, 16, 17, 19, 20, 23, 24, 27]",131.1660963,6493,871,4,17,10,1.554967005613632
basic,51,13,0,0,0,11,"[0, 28, 2, 29, 7, 26, 6, 11]",8,6,"[1, 13, 15, 16, 17, 23]",112.0611231,7439,946,3,4,10,1.4733168623367165
basic,51,13,0,0,0,17,"[0, 28, 2, 29, 7, 26, 6, 11, 17]",9,1,[13],40.4720178,10845,3406,1,0,10,1.305942716380454
basic,51,13,0,0,1,13,"[0, 28, 2, 29, 7, 26, 6, 11, 17, 13]",10,0,[],7.09537926,11583,738,1,0,10,1.6141242116952677
basic,51,13,0,1,1,13,"[0, 28, 2, 29, 7, 26, 6, 11, 17, 13]",10,0,[],7.09537926,12666,1083,1,0,10,1.6141242116952677
basic,52,8,0,0,0,0,[0],1,29,"[1, 2, 3, 4, 5, 6, 7, 8, 9, 10, 11, 12, 13, 14, 15, 16, 17, 18, 19, 20, 21, 22, 23, 24, 25, 26, 27, 28, 29]",300,175,-1,10,149,9,0.0
basic,52,8,0,0,0,25,"[0, 25]",2,22,"[1, 2, 3, 4, 5, 6, 7, 11, 12, 14, 15, 16, 17, 18, 19, 20, 21, 22, 23, 24, 28, 29]",230.992754,4353,4178,26,209,8,1.0
basic,52,8,0,0,0,1,"[0, 25, 1]",3,18,"[3, 4, 5, 6, 11, 12, 14, 15, 16, 17, 18, 20, 21, 22, 23, 24, 28, 29]",205.992754,6101,1748,14,91,8,1.008733440965848
basic,52,8,0,0,0,23,"[0, 25, 1, 23]",4,16,"[3, 4, 5, 6, 11, 14, 15, 16, 17, 18, 20, 21, 22, 24, 28, 29]",182.9710251,6991,890,9,47,8,1.0070385748869022
basic,52,8,0,0,0,14,"[0, 25, 1, 23, 14]",5,10,"[4, 5, 6, 11, 15, 16, 17, 18, 24, 28]",114.0870647,10024,3033,2,12,8,2.1759463226112
basic,52,8,0,0,0,17,"[0, 25, 1, 23, 14, 17]",6,6,"[5, 11, 15, 18, 24, 28]",77.07355369,10920,896,2,5,8,2.0409923227996685
basic,52,8,0,0,0,11,"[0, 25, 1, 23, 14, 17, 11]",7,2,"[15, 24]",51.89419707,11602,682,2,0,8,1.8950973018301025
basic,52,8,0,0,1,24,"[0, 25, 1, 23, 14, 17, 11, 24]",8,0,[],14.67860894,12420,818,1,0,8,1.7329162887207374
basic,52,8,0,1,1,24,"[0, 25, 1, 23, 14, 17, 11, 24]",8,0,[],14.67860894,16529,4109,1,0,8,1.7329162887207374
basic,53,26,0,0,0,0,[0],1,29,"[1, 2, 3, 4, 5, 6, 7, 8, 9, 10, 11, 12, 13, 14, 15, 16, 17, 18, 19, 20, 21, 22, 23, 24, 25, 26, 27, 28, 29]",300,194,-1,9,226,9,0.0
basic,53,26,0,0,0,10,"[0, 10]",2,6,"[4, 6, 14, 16, 17, 29]",138.1822012,1725,1531,9,66,7,1.0
basic,53,26,0,0,0,6,"[0, 10, 6]",3,5,"[4, 14, 16, 17, 29]",108.9076389,2523,798,8,23,7,1.1897813099332413
basic,53,26,0,0,0,14,"[0, 10, 6, 14]",4,4,"[4, 16, 17, 29]",87.88384285,3363,840,4,6,7,1.3162481558218453
basic,53,26,0,0,0,17,"[0, 10, 6, 14, 17]",5,3,"[4, 16, 29]",65.41163779,4205,842,3,1,7,1.6510075497064465
basic,53,26,0,0,0,4,"[0, 10, 6, 14, 17, 4]",6,1,[29],44.31661468,4986,781,1,0,7,2.1095586782058087
basic,53,26,0,0,1,29,"[0, 10, 6, 14, 17, 4, 29]",7,0,[],20.31661468,5726,740,1,0,7,2.288952413143475
basic,53,26,0,1,1,29,"[0, 10, 6, 14, 17, 4, 29]",7,0,[],20.31661468,7334,1608,1,0,7,2.288952413143475
basic,54,23,0,0,0,0,[0],1,28,"[1, 2, 3, 4, 5, 6, 7, 8, 9, 10, 11, 12, 13, 14, 15, 16, 17, 18, 19, 20, 21, 22, 23, 25, 26, 27, 28, 29]",300,182,-1,76,2626,10,0.0
basic,54,23,0,0,0,13,"[0, 13]",2,19,"[1, 2, 3, 5, 6, 7, 8, 9, 10, 12, 14, 17, 18, 19, 21, 22, 23, 27, 29]",189.3202819,2293,2111,9,168,10,1.0
basic,54,23,0,0,0,12,"[0, 13, 12]",3,16,"[1, 2, 3, 6, 7, 8, 9, 10, 14, 17, 18, 21, 22, 23, 27, 29]",177.2372359,3199,906,9,96,10,1.0014195490503164
basic,54,23,0,0,0,2,"[0, 13, 12, 2]",4,12,"[1, 3, 6, 7, 9, 10, 14, 18, 21, 22, 27, 29]",163.3447919,3917,718,4,30,10,1.0014394317924602
basic,54,23,0,0,0,6,"[0, 13, 12, 2, 6]",5,8,"[7, 9, 10, 14, 18, 22, 27, 29]",144.905703,4604,687,2,11,10,1.0322887343644427
basic,54,23,0,0,0,14,"[0, 13, 12, 2, 6, 14]",6,7,"[7, 9, 10, 18, 22, 27, 29]",116.0439636,5393,789,1,4,10,1.305671089460822
basic,54,23,0,0,0,9,"[0, 13, 12, 2, 6, 14, 9]",7,6,"[7, 10, 18, 22, 27, 29]",105.6036571,6024,631,1,3,10,1.4879353140485658
basic,54,23,0,0,1,22,"[0, 13, 12, 2, 6, 14, 9, 22]",8,0,[],55.95489078,7858,1834,1,0,8,2.7268035489895013
basic,54,23,0,1,1,22,"[0, 13, 12, 2, 6, 14, 9, 22]",8,0,[],55.95489078,9714,1856,1,0,8,2.7268035489895013
basic,55,43,0,0,0,0,[0],1,23,"[1, 2, 3, 4, 5, 6, 7, 9, 10, 11, 12, 14, 15, 16, 17, 19, 20, 21, 22, 23, 25, 27, 29]",300,180,-1,16,556,12,0.0
basic,55,43,0,0,0,29,"[0, 29]",2,22,"[1, 2, 3, 4, 5, 6, 7, 9, 10, 11, 12, 14, 15, 16, 17, 19, 20, 21, 22, 23, 25, 27]",277.909278,1841,1661,16,520,12,1.0
basic,55,43,0,0,0,20,"[0, 29, 20]",3,20,"[1, 2, 3, 4, 6, 7, 9, 10, 11, 12, 14, 15, 16, 17, 19, 21, 22, 23, 25, 27]",254.4785289,2757,916,15,422,12,1.082311746871282
basic,55,43,0,0,0,16,"[0, 29, 20, 16]",4,19,"[1, 2, 3, 4, 6, 7, 9, 10, 11, 12, 14, 15, 17, 19, 21, 22, 23, 25, 27]",231.8511119,3509,752,15,389,12,1.215201926898219
basic,55,43,0,0,0,25,"[0, 29, 20, 16, 25]",5,14,"[1, 2, 3, 4, 6, 7, 9, 11, 12, 14, 15, 19, 22, 23]",175.7708124,4462,953,53,282,11,1.566384303308987
basic,55,43,0,0,0,15,"[0, 29, 20, 16, 25, 15]",6,13,"[1, 2, 3, 4, 6, 7, 9, 11, 12, 14, 19, 22, 23]",153.0992443,5341,879,27,108,11,1.776736412604812
basic,55,43,0,0,0,12,"[0, 29, 20, 16, 25, 15, 12]",7,10,"[1, 3, 6, 7, 9, 11, 14, 19, 22, 23]",133.7860364,6122,781,21,41,11,1.6813323012225032
basic,55,43,0,0,0,3,"[0, 29, 20, 16, 25, 15, 12, 3]",8,9,"[1, 6, 7, 9, 11, 14, 19, 22, 23]",120.7860364,6861,739,20,12,11,1.608740348096123
basic,55,43,0,0,0,19,"[0, 29, 20, 16, 25, 15, 12, 3, 19]",9,5,"[1, 6, 7, 11, 22]",79.67642677,11290,4429,8,2,11,1.5859237827218742
basic,55,43,0,0,0,22,"[0, 29, 20, 16, 25, 15, 12, 3, 19, 22]",10,4,"[1, 6, 7, 11]",59.06089865,11977,687,4,0,11,2.020138514441197
basic,55,43,0,0,1,1,"[0, 29, 20, 16, 25, 15, 12, 3, 19, 22, 1]",11,0,[],27.67618899,16407,4430,1,0,11,1.8917763047598302
basic,55,43,0,1,1,1,"[0, 29, 20, 16, 25, 15, 12, 3, 19, 22, 1]",11,0,[],27.67618899,18313,1906,1,0,11,1.8917763047598302
basic,56,27,0,0,0,0,[0],1,26,"[1, 3, 5, 6, 7, 8, 9, 10, 11, 12, 13, 14, 15, 16, 17, 18, 19, 21, 22, 23, 24, 25, 26, 27, 28, 29]",300,229,-1,13,578,11,0.0
basic,56,27,0,0,0,15,"[0, 15]",2,24,"[1, 3, 5, 6, 7, 8, 9, 10, 11, 12, 13, 14, 16, 17, 18, 19, 21, 22, 23, 24, 25, 26, 27, 29]",263.7508621,1491,1262,6,219,11,1.0
basic,56,27,0,0,0,24,"[0, 15, 24]",3,20,"[1, 5, 6, 7, 8, 9, 10, 12, 13, 14, 16, 17, 18, 19, 21, 23, 25, 26, 27, 29]",246.5462115,2420,929,6,130,11,1.130933077698322
basic,56,27,0,0,0,17,"[0, 15, 24, 17]",4,15,"[1, 6, 8, 10, 12, 13, 14, 16, 18, 19, 23, 25, 26, 27, 29]",229.9932662,3058,638,4,60,11,1.1285538435963374
basic,56,27,0,0,0,12,"[0, 15, 24, 17, 12]",5,14,"[1, 6, 8, 10, 13, 14, 16, 18, 19, 23, 25, 26, 27, 29]",218.8129263,3629,571,2,32,11,1.2561880288755216
basic,56,27,0,0,0,10,"[0, 15, 24, 17, 12, 10]",6,11,"[1, 8, 13, 14, 18, 19, 23, 25, 26, 27, 29]",207.7675653,4290,661,2,28,11,1.2228289337766665
basic,56,27,0,0,0,13,"[0, 15, 24, 17, 12, 10, 13]",7,9,"[1, 8, 14, 18, 19, 23, 26, 27, 29]",167.9178476,5092,802,2,18,11,1.3421291994761178
basic,56,27,0,0,0,23,"[0, 15, 24, 17, 12, 10, 13, 23]",8,6,"[1, 8, 18, 19, 26, 27]",108.3024133,7205,2113,6,2,10,2.5203738437563388
basic,56,27,0,0,0,1,"[0, 15, 24, 17, 12, 10, 13, 23, 1]",9,2,"[18, 27]",60.26076475,8190,985,2,0,10,3.2940040527163665
basic,56,27,0,0,1,27,"[0, 15, 24, 17, 12, 10, 13, 23, 1, 27]",10,0,[],30.02833184,11121,2931,1,0,10,4.768745803615311
basic,56,27,0,1,1,27,"[0, 15, 24, 17, 12, 10, 13, 23, 1, 27]",10,0,[],30.02833184,12733,1612,1,0,10,4.768745803615311
basic,57,41,0,0,0,0,[0],1,29,"[1, 2, 3, 4, 5, 6, 7, 8, 9, 10, 11, 12, 13, 14, 15, 16, 17, 18, 19, 20, 21, 22, 23, 24, 25, 26, 27, 28, 29]",300,223,-1,1,143,10,0.0
basic,57,41,0,0,0,28,"[0, 28]",2,27,"[1, 2, 3, 5, 6, 7, 8, 9, 10, 11, 12, 13, 14, 15, 16, 17, 18, 19, 20, 21, 22, 23, 24, 25, 26, 27, 29]",259.8004975,2126,1903,37,249,9,1.0
basic,57,41,0,0,0,5,"[0, 28, 5]",3,26,"[1, 2, 3, 6, 7, 8, 9, 10, 11, 12, 13, 14, 15, 16, 17, 18, 19, 20, 21, 22, 23, 24, 25, 26, 27, 29]",246.199027,2856,730,30,182,9,1.714241539747437
basic,57,41,0,0,0,3,"[0, 28, 5, 3]",4,25,"[1, 2, 6, 7, 8, 9, 10, 11, 12, 13, 14, 15, 16, 17, 18, 19, 20, 21, 22, 23, 24, 25, 26, 27, 29]",211.3708775,7261,4405,20,93,9,2.2367972660995847
basic,57,41,0,0,0,9,"[0, 28, 5, 3, 9]",5,14,"[1, 2, 10, 12, 13, 14, 15, 17, 19, 21, 22, 24, 25, 26]",130.315341,9013,1752,7,21,8,2.0619783701981778
basic,57,41,0,0,0,2,"[0, 28, 5, 3, 9, 2]",6,10,"[1, 10, 12, 14, 15, 17, 19, 21, 22, 24]",118.232295,9639,626,5,7,8,2.0090042416875025
basic,57,41,0,0,0,14,"[0, 28, 5, 3, 9, 2, 14]",7,1,[15],50.45324217,11975,2336,1,0,8,1.5770111702106095
basic,57,41,0,0,1,15,"[0, 28, 5, 3, 9, 2, 14, 15]",8,0,[],21.59150279,12839,864,1,0,8,1.5239083079720277
basic,57,41,0,1,1,15,"[0, 28, 5, 3, 9, 2, 14, 15]",8,0,[],21.59150279,13747,908,1,0,8,1.5239083079720277
basic,58,25,0,0,0,0,[0],1,28,"[1, 2, 3, 4, 5, 7, 8, 9, 10, 11, 12, 13, 14, 15, 16, 17, 18, 19, 20, 21, 22, 23, 24, 25, 26, 27, 28, 29]",300,178,-1,5,94,10,0.0
basic,58,25,0,0,0,23,"[0, 23]",2,23,"[1, 2, 3, 5, 7, 8, 9, 11, 12, 13, 14, 16, 17, 19, 20, 21, 22, 24, 25, 26, 27, 28, 29]",259.7756293,1742,1564,3,33,10,1.0
basic,58,25,0,0,0,19,"[0, 23, 19]",3,21,"[1, 2, 3, 5, 7, 8, 9, 11, 12, 13, 14, 16, 17, 20, 21, 22, 24, 25, 27, 28, 29]",223.9287326,2792,1050,3,24,10,1.583101227007039
basic,58,25,0,0,0,29,"[0, 23, 19, 29]",4,19,"[1, 2, 3, 5, 7, 8, 9, 11, 12, 13, 14, 16, 17, 20, 21, 22, 24, 25, 28]",207.649912,3352,560,3,17,10,1.474631541426484
basic,58,25,0,0,0,22,"[0, 23, 19, 29, 22]",5,18,"[1, 2, 3, 5, 7, 8, 9, 11, 12, 13, 14, 16, 17, 20, 21, 24, 25, 28]",191.5253965,4188,836,3,14,10,1.4020377754906637
basic,58,25,0,0,0,7,"[0, 23, 19, 29, 22, 7]",6,7,"[3, 8, 9, 11, 13, 24, 28]",115.8814939,5240,1052,3,11,10,1.5709678649326715
basic,58,25,0,0,0,24,"[0, 23, 19, 29, 22, 7, 24]",7,5,"[3, 8, 9, 13, 28]",91.12265712,5991,751,3,7,10,1.486191600033379
basic,58,25,0,0,0,9,"[0, 23, 19, 29, 22, 7, 24, 9]",8,4,"[3, 8, 13, 28]",73.09490075,6659,668,3,3,10,1.453504870342882
basic,58,25,0,0,0,3,"[0, 23, 19, 29, 22, 7, 24, 9, 3]",9,3,"[8, 13, 28]",42.82940885,9051,2392,3,0,10,1.388955167525479
basic,58,25,0,0,1,13,"[0, 23, 19, 29, 22, 7, 24, 9, 3, 13]",10,0,[],11.58841014,9947,896,1,0,10,1.4309045890044414
basic,58,25,0,1,1,13,"[0, 23, 19, 29, 22, 7, 24, 9, 3, 13]",10,0,[],11.58841014,10995,1048,1,0,10,1.4309045890044414
basic,59,33,0,0,0,0,[0],1,23,"[1, 2, 5, 7, 8, 11, 12, 13, 14, 15, 16, 17, 18, 19, 20, 21, 23, 24, 25, 26, 27, 28, 29]",300,207,-1,5,108,9,0.0
basic,59,33,0,0,0,21,"[0, 21]",2,17,"[2, 5, 7, 8, 11, 13, 14, 16, 17, 18, 19, 20, 24, 26, 27, 28, 29]",174.4611614,5817,5610,21,129,8,1.0
basic,59,33,0,0,0,17,"[0, 21, 17]",3,12,"[2, 7, 11, 13, 14, 16, 18, 19, 20, 24, 26, 29]",135.8218032,6827,1010,3,35,8,1.0302064673538902
basic,59,33,0,0,0,13,"[0, 21, 17, 13]",4,10,"[2, 7, 11, 14, 16, 19, 20, 24, 26, 29]",113.0182947,7787,960,3,18,8,1.2307555582916028
basic,59,33,0,0,0,19,"[0, 21, 17, 13, 19]",5,6,"[7, 14, 16, 24, 26, 29]",87.52319715,8608,821,3,6,8,1.267959080158969
basic,59,33,0,0,0,24,"[0, 21, 17, 13, 19, 24]",6,2,"[7, 14]",45.47560506,9288,680,1,1,8,1.2501192148258107
basic,59,33,0,0,0,7,"[0, 21, 17, 13, 19, 24, 7]",7,1,[14],16.26944133,10340,1052,1,0,8,1.3314375425758662
basic,59,33,0,1,0,7,"[0, 21, 17, 13, 19, 24, 7]",7,1,[14],16.26944133,11046,706,1,0,8,1.3314375425758662
basic,60,4,0,0,0,0,[0],1,26,"[3, 4, 5, 6, 7, 8, 10, 11, 12, 13, 14, 15, 16, 17, 18, 19, 20, 21, 22, 23, 24, 25, 26, 27, 28, 29]",300,193,-1,4,489,10,0.0
basic,60,4,0,0,0,6,"[0, 6]",2,17,"[3, 4, 5, 10, 11, 13, 14, 15, 16, 17, 19, 20, 21, 22, 23, 25, 28]",207.2368608,3263,3070,37,365,8,1.0
