condition,trial_id,map_id,undoIndicator,submit,checkEnd,currentChoice,chosen_all,n_city_all,n_within_reach,cities_reach,currentBudget,time_all,rt_all,n_opt_paths_all,n_subopt_paths_all,mas_all,tortuosity_all
basic,0,14,0,0,0,0,[0],1,29,"[1, 2, 3, 4, 5, 6, 7, 8, 9, 10, 11, 12, 13, 14, 15, 16, 17, 18, 19, 20, 21, 22, 23, 24, 25, 26, 27, 28, 29]",300,114,-1,8,157,10,0.0
basic,0,14,0,0,0,15,"[0, 15]",2,20,"[1, 2, 3, 4, 7, 8, 9, 13, 17, 18, 19, 20, 21, 22, 23, 25, 26, 27, 28, 29]",216.7053423,15572,15458,8,102,10,1.0
basic,0,14,0,0,0,28,"[0, 15, 28]",3,17,"[1, 2, 3, 4, 7, 8, 9, 13, 17, 18, 19, 20, 22, 23, 25, 26, 27]",197.4959696,16675,1103,8,48,10,1.0446007867311968
basic,0,14,0,0,0,17,"[0, 15, 28, 17]",4,14,"[1, 2, 3, 4, 7, 8, 13, 18, 19, 20, 22, 23, 25, 26]",184.0423455,17739,1064,8,39,10,1.0729463354689972
basic,0,14,0,0,0,18,"[0, 15, 28, 17, 18]",5,9,"[1, 2, 4, 7, 8, 19, 23, 25, 26]",119.412631,20109,2370,8,27,10,1.5035901079219378
basic,0,14,0,0,0,8,"[0, 15, 28, 17, 18, 8]",6,8,"[1, 2, 4, 7, 19, 23, 25, 26]",105.8111605,21420,1311,8,18,10,1.4819689987843856
basic,0,14,0,0,0,1,"[0, 15, 28, 17, 18, 8, 1]",7,5,"[7, 19, 23, 25, 26]",82.21031307,25071,3651,4,6,10,1.4084991998385268
basic,0,14,0,0,0,19,"[0, 15, 28, 17, 18, 8, 1, 19]",8,4,"[7, 23, 25, 26]",66.97876686,26396,1325,4,1,10,1.5758713333797987
basic,0,14,0,0,0,25,"[0, 15, 28, 17, 18, 8, 1, 19, 25]",9,2,"[7, 23]",31.1318702,32071,5675,2,0,10,1.6426186864061416
basic,0,14,0,0,1,7,"[0, 15, 28, 17, 18, 8, 1, 19, 25, 7]",10,0,[],11.4341546,33021,950,1,0,10,1.652323224159132
basic,0,14,0,1,1,7,"[0, 15, 28, 17, 18, 8, 1, 19, 25, 7]",10,0,[],11.4341546,35681,2660,1,0,10,1.652323224159132
basic,1,24,0,0,0,0,[0],1,29,"[1, 2, 3, 4, 5, 6, 7, 8, 9, 10, 11, 12, 13, 14, 15, 16, 17, 18, 19, 20, 21, 22, 23, 24, 25, 26, 27, 28, 29]",300,95,-1,4,76,10,0.0
basic,1,24,0,0,0,16,"[0, 16]",2,28,"[1, 2, 3, 4, 5, 6, 7, 8, 9, 10, 11, 12, 13, 14, 15, 17, 18, 19, 20, 21, 22, 23, 24, 25, 26, 27, 28, 29]",210.3562607,23407,23312,13,110,9,1.0
basic,1,24,0,0,0,22,"[0, 16, 22]",3,27,"[1, 2, 3, 4, 5, 6, 7, 8, 9, 10, 11, 12, 13, 14, 15, 17, 18, 19, 20, 21, 23, 24, 25, 26, 27, 28, 29]",192.3285043,24607,1200,7,54,9,1.0217425143037777
basic,1,24,0,0,0,15,"[0, 16, 22, 15]",4,24,"[2, 3, 4, 5, 6, 7, 8, 9, 10, 11, 12, 13, 14, 17, 18, 19, 21, 23, 24, 25, 26, 27, 28, 29]",171.1153009,25769,1162,3,24,9,1.077448994301009
basic,1,24,0,0,0,28,"[0, 16, 22, 15, 28]",5,12,"[3, 4, 6, 8, 9, 11, 13, 21, 23, 25, 26, 27]",125.8383752,26807,1038,2,10,9,1.0579370080485104
basic,1,24,0,0,0,23,"[0, 16, 22, 15, 28, 23]",6,7,"[3, 4, 8, 9, 11, 13, 27]",106.8120776,27585,778,2,4,9,1.0965087965469686
basic,1,24,0,0,0,11,"[0, 16, 22, 15, 28, 23, 11]",7,2,"[9, 27]",79.88625355,28786,1201,2,0,9,1.0958394317987046
basic,1,24,0,0,0,27,"[0, 16, 22, 15, 28, 23, 11, 27]",8,1,[9],52.083376,29573,787,1,0,9,1.085465547106356
basic,1,24,0,0,1,9,"[0, 16, 22, 15, 28, 23, 11, 27, 9]",9,0,[],12.52329511,31300,1727,1,0,9,1.3543056893413161
basic,1,24,0,1,1,9,"[0, 16, 22, 15, 28, 23, 11, 27, 9]",9,0,[],12.52329511,34629,3329,1,0,9,1.3543056893413161
basic,2,41,0,0,0,0,[0],1,29,"[1, 2, 3, 4, 5, 6, 7, 8, 9, 10, 11, 12, 13, 14, 15, 16, 17, 18, 19, 20, 21, 22, 23, 24, 25, 26, 27, 28, 29]",300,111,-1,1,143,10,0.0
basic,2,41,0,0,0,13,"[0, 13]",2,23,"[1, 2, 3, 5, 6, 7, 9, 10, 11, 12, 14, 15, 17, 18, 19, 20, 21, 22, 24, 25, 26, 27, 28]",258.2747079,3901,3790,1,55,10,1.0
basic,2,41,0,0,0,28,"[0, 13, 28]",3,22,"[1, 2, 3, 5, 6, 7, 9, 10, 11, 12, 14, 15, 17, 18, 19, 20, 21, 22, 24, 25, 26, 27]",223.7928286,4867,966,1,39,10,1.895724242592676
basic,2,41,0,0,0,5,"[0, 13, 28, 5]",4,19,"[1, 2, 3, 6, 9, 10, 11, 12, 14, 15, 17, 18, 19, 20, 21, 22, 24, 25, 27]",210.1913581,5722,855,1,34,10,2.861541269398273
basic,2,41,0,0,0,3,"[0, 13, 28, 5, 3]",5,16,"[1, 2, 6, 9, 10, 12, 14, 17, 18, 19, 20, 21, 22, 24, 25, 27]",175.3632086,7386,1664,1,22,10,3.1455488489005883
basic,2,41,0,0,0,21,"[0, 13, 28, 5, 3, 21]",6,14,"[1, 2, 6, 9, 10, 12, 14, 17, 18, 19, 20, 22, 25, 27]",143.2228912,8306,920,13,11,9,3.207558429289677
basic,2,41,0,0,0,9,"[0, 13, 28, 5, 3, 21, 9]",7,6,"[1, 2, 10, 12, 14, 17]",93.85691102,9183,877,7,4,9,2.5050148501792275
basic,2,41,0,0,0,2,"[0, 13, 28, 5, 3, 21, 9, 2]",8,5,"[1, 10, 12, 14, 17]",81.77386505,10201,1018,5,0,9,2.4119643847713177
basic,2,41,0,0,1,17,"[0, 13, 28, 5, 3, 21, 9, 2, 17]",9,0,[],49.21622385,11211,1010,1,0,9,3.9563478735796007
basic,2,41,0,1,1,17,"[0, 13, 28, 5, 3, 21, 9, 2, 17]",9,0,[],49.21622385,20877,9666,1,0,9,3.9563478735796007
basic,3,13,0,0,0,0,[0],1,29,"[1, 2, 3, 4, 5, 6, 7, 8, 9, 10, 11, 12, 13, 14, 15, 16, 17, 18, 19, 20, 21, 22, 23, 24, 25, 26, 27, 28, 29]",300,96,-1,60,2676,11,0.0
basic,3,13,0,0,0,24,"[0, 24]",2,28,"[1, 2, 3, 4, 5, 6, 7, 8, 9, 10, 11, 12, 13, 14, 15, 16, 17, 18, 19, 20, 21, 22, 23, 25, 26, 27, 28, 29]",288.8196601,3869,3773,16,1444,11,1.0
basic,3,13,0,0,0,28,"[0, 24, 28]",3,23,"[1, 2, 3, 4, 6, 7, 8, 9, 10, 11, 12, 13, 15, 16, 17, 19, 20, 21, 22, 23, 26, 27, 29]",222.5324064,9042,5173,8,243,11,1.0513810491680837
basic,3,13,0,0,0,2,"[0, 24, 28, 2]",4,19,"[1, 3, 4, 6, 7, 9, 11, 12, 13, 15, 16, 17, 19, 20, 21, 23, 26, 27, 29]",184.889346,9886,844,7,110,11,1.050374132001543
basic,3,13,0,0,0,29,"[0, 24, 28, 2, 29]",5,18,"[1, 3, 4, 6, 7, 9, 11, 12, 13, 15, 16, 17, 19, 20, 21, 23, 26, 27]",173.1846461,10576,690,7,85,11,1.1393409619120594
basic,3,13,0,0,0,7,"[0, 24, 28, 2, 29, 7]",6,17,"[1, 3, 4, 6, 9, 11, 12, 13, 15, 16, 17, 19, 20, 21, 23, 26, 27]",157.9203086,12702,2126,5,45,11,1.349777315111579
basic,3,13,0,0,0,26,"[0, 24, 28, 2, 29, 7, 26]",7,16,"[1, 3, 4, 6, 9, 11, 12, 13, 15, 16, 17, 19, 20, 21, 23, 27]",147.480002,13488,786,5,25,11,1.5942082773824946
basic,3,13,0,0,0,16,"[0, 24, 28, 2, 29, 7, 26, 16]",8,5,"[3, 4, 20, 23, 27]",67.06856007,21057,7569,3,3,10,2.5305184506189318
basic,3,13,0,0,0,3,"[0, 24, 28, 2, 29, 7, 26, 16, 3]",9,2,"[4, 20]",38.62563477,23058,2001,2,0,10,2.5666911485815525
basic,3,13,0,0,1,20,"[0, 24, 28, 2, 29, 7, 26, 16, 3, 20]",10,0,[],19.59933718,24236,1178,1,0,10,2.5486757008262346
basic,3,13,0,1,1,20,"[0, 24, 28, 2, 29, 7, 26, 16, 3, 20]",10,0,[],19.59933718,28963,4727,1,0,10,2.5486757008262346
basic,4,12,0,0,0,0,[0],1,29,"[1, 2, 3, 4, 5, 6, 7, 8, 9, 10, 11, 12, 13, 14, 15, 16, 17, 18, 19, 20, 21, 22, 23, 24, 25, 26, 27, 28, 29]",300,94,-1,2,32,9,0.0
basic,4,12,0,0,0,22,"[0, 22]",2,22,"[2, 4, 5, 6, 7, 9, 10, 12, 13, 14, 15, 16, 17, 18, 19, 21, 23, 24, 25, 27, 28, 29]",211.9943184,12559,12465,6,42,8,1.0
basic,4,12,0,0,0,16,"[0, 22, 16]",3,12,"[2, 4, 5, 6, 7, 12, 14, 19, 23, 24, 25, 27]",190.9943184,13318,759,6,24,8,1.2017164145167045
basic,4,12,0,0,0,4,"[0, 22, 16, 4]",4,9,"[2, 6, 7, 12, 14, 19, 24, 25, 27]",156.7890556,14303,985,6,14,8,1.146531713305579
basic,4,12,0,0,0,12,"[0, 22, 16, 4, 12]",5,4,"[14, 19, 24, 27]",114.5990094,16200,1897,4,3,8,1.1221389456954312
basic,4,12,0,0,0,27,"[0, 22, 16, 4, 12, 27]",6,3,"[14, 19, 24]",90.24741807,17942,1742,2,1,8,1.2262878338287035
basic,4,12,0,0,0,14,"[0, 22, 16, 4, 12, 27, 14]",7,1,[24],61.59432051,18869,927,1,0,8,1.2804562106751427
basic,4,12,0,0,1,24,"[0, 22, 16, 4, 12, 27, 14, 24]",8,0,[],44.38966997,19775,906,1,0,8,1.4322660007679802
basic,4,12,0,1,1,24,"[0, 22, 16, 4, 12, 27, 14, 24]",8,0,[],44.38966997,25578,5803,1,0,8,1.4322660007679802
basic,5,0,0,0,0,0,[0],1,27,"[2, 3, 4, 5, 6, 7, 8, 9, 10, 11, 12, 13, 14, 15, 16, 17, 19, 20, 21, 22, 23, 24, 25, 26, 27, 28, 29]",300,95,-1,104,1136,9,0.0
basic,5,0,0,0,0,28,"[0, 28]",2,26,"[2, 3, 4, 5, 6, 7, 8, 9, 10, 11, 12, 13, 14, 15, 16, 17, 19, 20, 21, 22, 23, 24, 25, 26, 27, 29]",194.9190788,7024,6929,39,388,9,1.0
basic,5,0,0,0,0,12,"[0, 28, 12]",3,19,"[3, 4, 5, 7, 8, 9, 10, 11, 13, 14, 15, 17, 19, 20, 21, 22, 23, 24, 26]",141.7683497,7902,878,3,43,9,1.0142012686492925
basic,5,0,0,0,0,26,"[0, 28, 12, 26]",4,14,"[3, 4, 5, 7, 8, 9, 11, 14, 15, 17, 19, 20, 23, 24]",106.5405198,8712,810,3,25,9,1.1974841199765223
basic,5,0,0,0,0,4,"[0, 28, 12, 26, 4]",5,11,"[3, 5, 7, 8, 9, 11, 15, 17, 20, 23, 24]",94.49892525,9769,1057,3,13,9,1.3127642586979258
basic,5,0,0,0,0,24,"[0, 28, 12, 26, 4, 24]",6,8,"[3, 5, 7, 8, 9, 11, 15, 17]",83.097171,10512,743,3,8,9,1.300125291108295
basic,5,0,0,0,0,15,"[0, 28, 12, 26, 4, 24, 15]",7,6,"[3, 5, 7, 8, 9, 11]",59.75193594,12901,2389,3,4,9,1.2709581024003678
basic,5,0,0,0,0,7,"[0, 28, 12, 26, 4, 24, 15, 7]",8,2,"[3, 8]",28.68748681,14286,1385,2,0,9,1.3234126934334873
basic,5,0,0,0,1,3,"[0, 28, 12, 26, 4, 24, 15, 7, 3]",9,0,[],4.604297649,15285,999,1,0,9,1.3627762523312739
basic,5,0,0,1,1,3,"[0, 28, 12, 26, 4, 24, 15, 7, 3]",9,0,[],4.604297649,20179,4894,1,0,9,1.3627762523312739
basic,6,27,0,0,0,0,[0],1,26,"[1, 3, 5, 6, 7, 8, 9, 10, 11, 12, 13, 14, 15, 16, 17, 18, 19, 21, 22, 23, 24, 25, 26, 27, 28, 29]",300,95,-1,13,578,11,0.0
basic,6,27,0,0,0,15,"[0, 15]",2,24,"[1, 3, 5, 6, 7, 8, 9, 10, 11, 12, 13, 14, 16, 17, 18, 19, 21, 22, 23, 24, 25, 26, 27, 29]",263.7508621,4485,4390,6,219,11,1.0
basic,6,27,0,0,0,24,"[0, 15, 24]",3,20,"[1, 5, 6, 7, 8, 9, 10, 12, 13, 14, 16, 17, 18, 19, 21, 23, 25, 26, 27, 29]",246.5462115,5402,917,6,130,11,1.130933077698322
basic,6,27,0,0,0,17,"[0, 15, 24, 17]",4,15,"[1, 6, 8, 10, 12, 13, 14, 16, 18, 19, 23, 25, 26, 27, 29]",229.9932662,6128,726,4,60,11,1.1285538435963374
basic,6,27,0,0,0,12,"[0, 15, 24, 17, 12]",5,14,"[1, 6, 8, 10, 13, 14, 16, 18, 19, 23, 25, 26, 27, 29]",218.8129263,6728,600,2,32,11,1.2561880288755216
basic,6,27,0,0,0,10,"[0, 15, 24, 17, 12, 10]",6,11,"[1, 8, 13, 14, 18, 19, 23, 25, 26, 27, 29]",207.7675653,8858,2130,2,28,11,1.2228289337766665
basic,6,27,0,0,0,23,"[0, 15, 24, 17, 12, 10, 23]",7,10,"[1, 8, 13, 14, 18, 19, 25, 26, 27, 29]",133.1351327,14424,5566,6,10,10,2.1938818021895963
basic,6,27,0,0,0,13,"[0, 15, 24, 17, 12, 10, 23, 13]",8,2,"[8, 19]",73.51969841,15985,1561,2,0,10,2.3013391313427474
basic,6,27,0,0,0,19,"[0, 15, 24, 17, 12, 10, 23, 13, 19]",9,1,[8],37.28435655,17144,1159,1,0,10,2.020889565
basic,6,27,0,0,1,8,"[0, 15, 24, 17, 12, 10, 23, 13, 19, 8]",10,0,[],22.4182878,17985,841,1,0,10,2.0539081206772996
basic,6,27,0,1,1,8,"[0, 15, 24, 17, 12, 10, 23, 13, 19, 8]",10,0,[],22.4182878,22145,4160,1,0,10,2.0539081206772996
basic,7,6,0,0,0,0,[0],1,29,"[1, 2, 3, 4, 5, 6, 7, 8, 9, 10, 11, 12, 13, 14, 15, 16, 17, 18, 19, 20, 21, 22, 23, 24, 25, 26, 27, 28, 29]",300,96,-1,180,4304,10,0.0
basic,7,6,0,0,0,26,"[0, 26]",2,25,"[1, 2, 3, 4, 5, 6, 7, 8, 9, 10, 11, 12, 13, 14, 15, 16, 17, 18, 20, 21, 22, 23, 24, 27, 29]",250.2606795,16625,16529,45,776,10,1.0
basic,7,6,0,0,0,2,"[0, 26, 2]",3,20,"[1, 3, 4, 5, 6, 7, 8, 9, 10, 13, 14, 16, 17, 18, 21, 22, 23, 24, 27, 29]",220.4278118,17451,826,20,184,10,1.003152463832065
basic,7,6,0,0,0,7,"[0, 26, 2, 7]",4,18,"[1, 3, 4, 6, 8, 9, 10, 13, 14, 16, 17, 18, 21, 22, 23, 24, 27, 29]",179.3182022,18435,984,20,157,10,2.5131135963314413
basic,7,6,0,0,0,3,"[0, 26, 2, 7, 3]",5,13,"[1, 6, 8, 10, 13, 16, 17, 18, 21, 22, 23, 24, 29]",143.1795802,19625,1190,18,67,10,4.677560963942129
basic,7,6,0,0,0,18,"[0, 26, 2, 7, 3, 18]",6,10,"[1, 6, 10, 13, 16, 17, 22, 23, 24, 29]",114.1795802,21267,1642,9,21,10,3.0511602668529507
basic,7,6,0,0,0,17,"[0, 26, 2, 7, 3, 18, 17]",7,7,"[6, 10, 13, 16, 23, 24, 29]",100.2511919,23211,1944,4,9,10,2.830257342122825
basic,7,6,0,0,0,10,"[0, 26, 2, 7, 3, 18, 17, 10]",8,4,"[16, 23, 24, 29]",80.52810898,23962,751,2,3,10,2.602087972078497
basic,7,6,0,0,0,24,"[0, 26, 2, 7, 3, 18, 17, 10, 24]",9,2,"[16, 23]",67.11170111,24569,607,2,0,10,2.393670781421888
basic,7,6,0,0,1,16,"[0, 26, 2, 7, 3, 18, 17, 10, 24, 16]",10,0,[],11.07599821,25657,1088,1,0,10,4.002808006957843
basic,7,6,0,1,1,16,"[0, 26, 2, 7, 3, 18, 17, 10, 24, 16]",10,0,[],11.07599821,28446,2789,1,0,10,4.002808006957843
basic,8,35,0,0,0,0,[0],1,29,"[1, 2, 3, 4, 5, 6, 7, 8, 9, 10, 11, 12, 13, 14, 15, 16, 17, 18, 19, 20, 21, 22, 23, 24, 25, 26, 27, 28, 29]",300,94,-1,5,236,11,0.0
basic,8,35,0,0,0,27,"[0, 27]",2,27,"[1, 2, 4, 5, 6, 7, 8, 9, 10, 11, 12, 13, 14, 15, 16, 17, 18, 19, 20, 21, 22, 23, 24, 25, 26, 28, 29]",278.7867966,13251,13157,5,144,11,1.0
basic,8,35,0,0,0,28,"[0, 27, 28]",3,18,"[1, 2, 5, 6, 7, 9, 10, 13, 15, 16, 17, 18, 19, 21, 23, 24, 25, 26]",240.707931,14601,1350,4,100,10,1.0168505943672008
basic,8,35,0,0,0,24,"[0, 27, 28, 24]",4,15,"[1, 2, 5, 6, 9, 10, 15, 16, 17, 18, 19, 21, 23, 25, 26]",169.9831122,15918,1317,2,41,10,4.191912705949545
basic,8,35,0,0,0,17,"[0, 27, 28, 24, 17]",5,12,"[1, 2, 5, 6, 9, 10, 15, 18, 19, 23, 25, 26]",158.2784123,17434,1516,2,24,10,3.5733178412064097
basic,8,35,0,0,0,1,"[0, 27, 28, 24, 17, 1]",6,10,"[2, 5, 6, 9, 15, 18, 19, 23, 25, 26]",142.467024,18742,1308,2,17,10,3.295553567483929
basic,8,35,0,0,0,9,"[0, 27, 28, 24, 17, 1, 9]",7,4,"[6, 18, 23, 25]",72.9400508,20256,1514,3,3,9,2.0198473255132545
basic,8,35,0,0,0,18,"[0, 27, 28, 24, 17, 1, 9, 18]",8,3,"[6, 23, 25]",52.91506641,21078,822,3,0,9,1.9208778754392248
basic,8,35,0,0,1,25,"[0, 27, 28, 24, 17, 1, 9, 18, 25]",9,0,[],19.07721777,22541,1463,1,0,9,1.7347193087380004
basic,8,35,0,1,1,25,"[0, 27, 28, 24, 17, 1, 9, 18, 25]",9,0,[],19.07721777,26095,3554,1,0,9,1.7347193087380004
basic,9,43,0,0,0,0,[0],1,23,"[1, 2, 3, 4, 5, 6, 7, 9, 10, 11, 12, 14, 15, 16, 17, 19, 20, 21, 22, 23, 25, 27, 29]",300,95,-1,16,556,12,0.0
basic,9,43,0,0,0,29,"[0, 29]",2,22,"[1, 2, 3, 4, 5, 6, 7, 9, 10, 11, 12, 14, 15, 16, 17, 19, 20, 21, 22, 23, 25, 27]",277.909278,4484,4389,16,520,12,1.0
basic,9,43,0,0,0,20,"[0, 29, 20]",3,20,"[1, 2, 3, 4, 6, 7, 9, 10, 11, 12, 14, 15, 16, 17, 19, 21, 22, 23, 25, 27]",254.4785289,5241,757,15,422,12,1.082311746871282
basic,9,43,0,0,0,16,"[0, 29, 20, 16]",4,19,"[1, 2, 3, 4, 6, 7, 9, 10, 11, 12, 14, 15, 17, 19, 21, 22, 23, 25, 27]",231.8511119,6169,928,15,389,12,1.215201926898219
basic,9,43,0,0,0,25,"[0, 29, 20, 16, 25]",5,14,"[1, 2, 3, 4, 6, 7, 9, 11, 12, 14, 15, 19, 22, 23]",175.7708124,7754,1585,53,282,11,1.566384303308987
basic,9,43,0,0,0,15,"[0, 29, 20, 16, 25, 15]",6,13,"[1, 2, 3, 4, 6, 7, 9, 11, 12, 14, 19, 22, 23]",153.0992443,9185,1431,27,108,11,1.776736412604812
basic,9,43,0,0,0,12,"[0, 29, 20, 16, 25, 15, 12]",7,10,"[1, 3, 6, 7, 9, 11, 14, 19, 22, 23]",133.7860364,10068,883,21,41,11,1.6813323012225032
basic,9,43,0,0,0,3,"[0, 29, 20, 16, 25, 15, 12, 3]",8,9,"[1, 6, 7, 9, 11, 14, 19, 22, 23]",120.7860364,11118,1050,20,12,11,1.608740348096123
basic,9,43,0,0,0,22,"[0, 29, 20, 16, 25, 15, 12, 3, 22]",9,6,"[1, 6, 7, 11, 14, 19]",86.07292644,12034,916,9,2,11,1.793657891802588
basic,9,43,0,0,0,19,"[0, 29, 20, 16, 25, 15, 12, 3, 22, 19]",10,3,"[1, 6, 7]",65.45739831,12969,935,3,0,11,1.6882745891803936
basic,9,43,0,0,1,1,"[0, 29, 20, 16, 25, 15, 12, 3, 22, 19, 1]",11,0,[],37.2793927,14793,1824,1,0,11,1.825064866046553
basic,9,43,0,1,1,1,"[0, 29, 20, 16, 25, 15, 12, 3, 22, 19, 1]",11,0,[],37.2793927,25512,10719,1,0,11,1.825064866046553
basic,10,29,0,0,0,0,[0],1,29,"[1, 2, 3, 4, 5, 6, 7, 8, 9, 10, 11, 12, 13, 14, 15, 16, 17, 18, 19, 20, 21, 22, 23, 24, 25, 26, 27, 28, 29]",300,114,-1,1,78,9,0.0
basic,10,29,0,0,0,6,"[0, 6]",2,28,"[1, 2, 3, 4, 5, 7, 8, 9, 10, 11, 12, 13, 14, 15, 16, 17, 18, 19, 20, 21, 22, 23, 24, 25, 26, 27, 28, 29]",228.4108947,7489,7375,1,25,9,1.0
basic,10,29,0,0,0,28,"[0, 6, 28]",3,24,"[1, 3, 4, 5, 7, 9, 10, 11, 12, 13, 14, 15, 16, 17, 18, 20, 21, 22, 23, 24, 25, 26, 27, 29]",187.1798384,8489,1000,1,22,9,1.162106788166845
basic,10,29,0,0,0,27,"[0, 6, 28, 27]",4,19,"[1, 3, 4, 5, 7, 9, 10, 11, 12, 13, 14, 15, 16, 21, 22, 23, 25, 26, 29]",166.6615539,9145,656,1,21,9,1.2307173895439045
basic,10,29,0,0,0,22,"[0, 6, 28, 27, 22]",5,13,"[1, 3, 4, 5, 7, 9, 12, 13, 14, 15, 21, 26, 29]",133.4200136,10121,976,1,19,9,1.4241767805149903
basic,10,29,0,0,0,12,"[0, 6, 28, 27, 22, 12]",6,8,"[4, 5, 7, 9, 13, 14, 21, 26]",95.4726817,11242,1121,1,6,9,1.3248355326460857
basic,10,29,0,0,0,7,"[0, 6, 28, 27, 22, 12, 7]",7,4,"[4, 5, 9, 21]",81.87121119,12003,761,1,3,9,1.3264091962339806
basic,10,29,0,0,0,9,"[0, 6, 28, 27, 22, 12, 7, 9]",8,1,[4],52.80232748,15275,3272,1,0,9,1.309391257644539
basic,10,29,0,0,1,4,"[0, 6, 28, 27, 22, 12, 7, 9, 4]",9,0,[],11.76575843,16220,945,1,0,9,1.6396807789841599
basic,10,29,0,1,1,4,"[0, 6, 28, 27, 22, 12, 7, 9, 4]",9,0,[],11.76575843,19747,3527,1,0,9,1.6396807789841599
basic,11,36,0,0,0,0,[0],1,24,"[2, 4, 5, 6, 7, 8, 9, 10, 12, 13, 14, 15, 16, 17, 18, 19, 20, 22, 23, 25, 26, 27, 28, 29]",300,97,-1,2,200,10,0.0
basic,11,36,0,0,0,12,"[0, 12]",2,23,"[2, 4, 5, 6, 7, 8, 9, 10, 13, 14, 15, 16, 17, 18, 19, 20, 22, 23, 25, 26, 27, 28, 29]",277.7963967,4179,4082,90,804,9,1.0
basic,11,36,0,0,0,9,"[0, 12, 9]",3,14,"[2, 4, 8, 10, 13, 16, 17, 18, 19, 23, 25, 27, 28, 29]",215.4345494,6675,2496,32,191,9,1.224429481246385
basic,11,36,0,0,0,16,"[0, 12, 9, 16]",4,8,"[2, 10, 13, 17, 18, 19, 23, 25]",168.137615,7514,839,7,26,9,1.235383731443557
basic,11,36,0,0,0,17,"[0, 12, 9, 16, 17]",5,6,"[2, 10, 13, 18, 19, 25]",139.8180105,8410,896,7,14,9,1.6947865799475665
basic,11,36,0,0,0,19,"[0, 12, 9, 16, 17, 19]",6,5,"[2, 10, 13, 18, 25]",111.9253591,9154,744,6,1,9,2.440059772477113
basic,11,36,0,0,0,2,"[0, 12, 9, 16, 17, 19, 2]",7,2,"[13, 25]",74.80393675,10378,1224,2,0,9,1.994135267441798
basic,11,36,0,0,0,25,"[0, 12, 9, 16, 17, 19, 2, 25]",8,1,[13],49.80393675,11487,1109,1,0,9,2.1853059870598197
basic,11,36,0,0,1,13,"[0, 12, 9, 16, 17, 19, 2, 25, 13]",9,0,[],29.21267647,12170,683,1,0,9,2.7608371719978186
basic,11,36,0,1,1,13,"[0, 12, 9, 16, 17, 19, 2, 25, 13]",9,0,[],29.21267647,15563,3393,1,0,9,2.7608371719978186
basic,12,2,0,0,0,0,[0],1,23,"[1, 2, 4, 5, 6, 7, 8, 9, 12, 13, 15, 16, 17, 18, 19, 20, 22, 23, 25, 26, 27, 28, 29]",300,96,-1,70,620,10,0.0
basic,12,2,0,0,0,19,"[0, 19]",2,22,"[1, 2, 4, 5, 6, 7, 8, 9, 12, 13, 15, 16, 17, 18, 20, 22, 23, 25, 26, 27, 28, 29]",210.306076,4538,4442,67,431,10,1.0
basic,12,2,0,0,0,12,"[0, 19, 12]",3,17,"[1, 4, 5, 6, 7, 13, 15, 16, 17, 18, 20, 22, 25, 26, 27, 28, 29]",174.2921898,5503,965,66,298,10,1.1107635036313153
basic,12,2,0,0,0,5,"[0, 19, 12, 5]",4,11,"[1, 6, 7, 13, 15, 16, 18, 22, 25, 26, 29]",144.7625437,6303,800,38,136,10,1.0968174771581647
basic,12,2,0,0,0,22,"[0, 19, 12, 5, 22]",5,8,"[1, 6, 7, 13, 15, 18, 26, 29]",131.9562952,6969,666,20,63,10,1.0889910507461968
basic,12,2,0,0,0,13,"[0, 19, 12, 5, 22, 13]",6,7,"[1, 6, 7, 15, 18, 26, 29]",117.0902265,7736,767,19,20,10,1.236526217328057
basic,12,2,0,0,0,18,"[0, 19, 12, 5, 22, 13, 18]",7,4,"[7, 15, 26, 29]",81.91921567,8535,799,10,3,10,1.2128708213409936
basic,12,2,0,0,0,7,"[0, 19, 12, 5, 22, 13, 18, 7]",8,3,"[15, 26, 29]",71.62358553,9453,918,5,0,10,1.2019811287894737
basic,12,2,0,0,0,26,"[0, 19, 12, 5, 22, 13, 18, 7, 26]",9,2,"[15, 29]",48.82007703,10554,1101,2,0,10,1.1883593342191134
basic,12,2,0,0,1,15,"[0, 19, 12, 5, 22, 13, 18, 7, 26, 15]",10,0,[],24.61264015,11785,1231,1,0,10,1.4619750353663825
basic,12,2,0,1,1,15,"[0, 19, 12, 5, 22, 13, 18, 7, 26, 15]",10,0,[],24.61264015,20180,8395,1,0,10,1.4619750353663825
basic,13,10,0,0,0,0,[0],1,29,"[1, 2, 3, 4, 5, 6, 7, 8, 9, 10, 11, 12, 13, 14, 15, 16, 17, 18, 19, 20, 21, 22, 23, 24, 25, 26, 27, 28, 29]",300,97,-1,1,100,9,0.0
basic,13,10,0,0,0,13,"[0, 13]",2,25,"[1, 2, 3, 4, 6, 7, 8, 9, 10, 11, 12, 14, 17, 18, 19, 20, 21, 22, 23, 24, 25, 26, 27, 28, 29]",249.4628849,8252,8155,1,79,9,1.0
basic,13,10,0,0,0,11,"[0, 13, 11]",3,20,"[1, 2, 3, 6, 7, 8, 9, 10, 12, 14, 18, 19, 20, 21, 22, 24, 26, 27, 28, 29]",206.4512586,9354,1102,1,54,9,1.0313137484914219
basic,13,10,0,0,0,19,"[0, 13, 11, 19]",4,11,"[2, 6, 8, 9, 10, 14, 18, 20, 24, 26, 27]",170.0919407,12219,2865,1,22,9,1.0879446220132545
basic,13,10,0,0,0,2,"[0, 13, 11, 19, 2]",5,4,"[14, 20, 26, 27]",126.1829439,13702,1483,1,4,9,1.06474052351343
basic,13,10,0,0,0,14,"[0, 13, 11, 19, 2, 14]",6,3,"[20, 26, 27]",114.0174188,14619,917,1,3,9,1.1628909195912238
basic,13,10,0,0,0,26,"[0, 13, 11, 19, 2, 14, 26]",7,2,"[20, 27]",79.34754716,15635,1016,1,1,9,1.6660727647633602
basic,13,10,0,0,0,20,"[0, 13, 11, 19, 2, 14, 26, 20]",8,1,[27],47.56704999,16485,850,1,0,9,2.085581809637999
basic,13,10,0,0,1,27,"[0, 13, 11, 19, 2, 14, 26, 20, 27]",9,0,[],2.312215998,17635,1150,1,0,9,1.9116357409137932
basic,13,10,0,1,1,27,"[0, 13, 11, 19, 2, 14, 26, 20, 27]",9,0,[],2.312215998,20412,2777,1,0,9,1.9116357409137932
basic,14,32,0,0,0,0,[0],1,29,"[1, 2, 3, 4, 5, 6, 7, 8, 9, 10, 11, 12, 13, 14, 15, 16, 17, 18, 19, 20, 21, 22, 23, 24, 25, 26, 27, 28, 29]",300,95,-1,17,359,10,0.0
basic,14,32,0,0,0,15,"[0, 15]",2,24,"[2, 3, 4, 5, 6, 7, 8, 9, 10, 11, 12, 13, 14, 16, 17, 19, 20, 22, 23, 24, 25, 26, 27, 28]",214.6185032,3802,3707,11,153,9,1.0
basic,14,32,0,0,0,28,"[0, 15, 28]",3,21,"[2, 3, 5, 7, 8, 9, 10, 11, 12, 13, 14, 16, 17, 19, 20, 22, 23, 24, 25, 26, 27]",203.2167489,4712,910,11,119,9,1.000160051986942
basic,14,32,0,0,0,12,"[0, 15, 28, 12]",4,19,"[2, 3, 5, 7, 8, 9, 10, 11, 13, 16, 17, 19, 20, 22, 23, 24, 25, 26, 27]",184.243083,5503,791,8,71,9,1.0281484763748023
basic,14,32,0,0,0,16,"[0, 15, 28, 12, 16]",5,17,"[2, 3, 5, 7, 8, 9, 10, 11, 13, 17, 19, 20, 22, 23, 24, 26, 27]",168.5906071,6802,1299,6,38,9,1.1190771370096
basic,14,32,0,0,0,22,"[0, 15, 28, 12, 16, 22]",6,10,"[2, 3, 5, 8, 9, 10, 11, 17, 20, 27]",134.7527585,8103,1301,4,16,9,1.1702311155319893
basic,14,32,0,0,0,9,"[0, 15, 28, 12, 16, 22, 9]",7,6,"[2, 8, 10, 17, 20, 27]",112.5491552,9361,1258,2,4,9,1.2381424719932013
basic,14,32,0,0,0,2,"[0, 15, 28, 12, 16, 22, 9, 2]",8,1,[17],61.46099608,10527,1166,1,0,9,1.6446273109221003
basic,14,32,0,0,1,17,"[0, 15, 28, 12, 16, 22, 9, 2, 17]",9,0,[],21.64893761,11367,840,1,0,9,2.46318728800517
basic,14,32,0,1,1,17,"[0, 15, 28, 12, 16, 22, 9, 2, 17]",9,0,[],21.64893761,13995,2628,1,0,9,2.46318728800517
basic,15,42,0,0,0,0,[0],1,29,"[1, 2, 3, 4, 5, 6, 7, 8, 9, 10, 11, 12, 13, 14, 15, 16, 17, 18, 19, 20, 21, 22, 23, 24, 25, 26, 27, 28, 29]",300,97,-1,16,302,9,0.0
basic,15,42,0,0,0,4,"[0, 4]",2,28,"[1, 2, 3, 5, 6, 7, 8, 9, 10, 11, 12, 13, 14, 15, 16, 17, 18, 19, 20, 21, 22, 23, 24, 25, 26, 27, 28, 29]",209.5290102,6129,6032,4,80,9,1.0
basic,15,42,0,0,0,22,"[0, 4, 22]",3,24,"[1, 2, 3, 5, 6, 7, 8, 9, 10, 11, 13, 15, 17, 18, 19, 20, 21, 23, 24, 25, 26, 27, 28, 29]",198.3486703,6787,658,3,53,9,1.1473032812120834
basic,15,42,0,0,0,8,"[0, 4, 22, 8]",4,21,"[1, 2, 3, 5, 6, 7, 10, 11, 15, 17, 18, 19, 20, 21, 23, 24, 25, 26, 27, 28, 29]",176.2127267,7930,1143,2,36,9,1.1513227322639639
basic,15,42,0,0,0,1,"[0, 4, 22, 8, 1]",5,12,"[2, 5, 6, 7, 10, 15, 18, 19, 24, 26, 27, 28]",127.1209758,9486,1556,2,24,9,1.1101621876186907
basic,15,42,0,0,0,7,"[0, 4, 22, 8, 1, 7]",6,5,"[2, 19, 26, 27, 28]",97.12097583,11105,1619,2,10,9,1.1711274205343067
basic,15,42,0,0,0,19,"[0, 4, 22, 8, 1, 7, 19]",7,4,"[2, 26, 27, 28]",50.59141533,12152,1047,4,0,8,1.153421596096177
basic,15,42,0,0,1,26,"[0, 4, 22, 8, 1, 7, 19, 26]",8,0,[],15.70588825,13841,1689,1,0,8,1.4358288472222223
basic,15,42,0,1,1,26,"[0, 4, 22, 8, 1, 7, 19, 26]",8,0,[],15.70588825,19647,5806,1,0,8,1.4358288472222223
basic,16,20,0,0,0,0,[0],1,21,"[1, 2, 3, 4, 5, 6, 7, 8, 9, 12, 17, 18, 20, 21, 22, 23, 25, 26, 27, 28, 29]",300,96,-1,1,9,9,0.0
basic,16,20,0,0,0,12,"[0, 12]",2,20,"[1, 2, 3, 4, 5, 6, 7, 8, 9, 17, 18, 20, 21, 22, 23, 25, 26, 27, 28, 29]",271.5570747,6736,6640,1,8,9,1.0
basic,16,20,0,0,0,5,"[0, 12, 5]",3,13,"[1, 3, 4, 6, 8, 9, 20, 21, 23, 26, 27, 28, 29]",171.4321527,8120,1384,2,19,8,1.0232843285905395
basic,16,20,0,0,0,21,"[0, 12, 5, 21]",4,10,"[1, 4, 6, 8, 9, 20, 23, 26, 27, 28]",126.4321527,9007,887,2,12,8,1.017525191374897
basic,16,20,0,0,0,8,"[0, 12, 5, 21, 8]",5,6,"[1, 6, 9, 23, 27, 28]",108.9679035,9746,739,2,6,8,1.0391698601004782
basic,16,20,0,0,0,23,"[0, 12, 5, 21, 8, 23]",6,3,"[6, 9, 27]",64.28009758,10525,779,2,1,8,1.0348450868606567
basic,16,20,0,0,0,9,"[0, 12, 5, 21, 8, 23, 9]",7,1,[6],45.07072487,11387,862,1,0,8,1.0335348098288684
basic,16,20,0,0,1,6,"[0, 12, 5, 21, 8, 23, 9, 6]",8,0,[],22.048996,12607,1220,1,0,8,1.0486850646228845
basic,16,20,0,1,1,6,"[0, 12, 5, 21, 8, 23, 9, 6]",8,0,[],22.048996,14997,2390,1,0,8,1.0486850646228845
basic,17,17,0,0,0,0,[0],1,28,"[1, 2, 3, 4, 5, 6, 7, 8, 9, 10, 11, 12, 13, 14, 15, 16, 17, 18, 19, 20, 22, 23, 24, 25, 26, 27, 28, 29]",300,95,-1,2,73,8,0.0
basic,17,17,0,0,0,9,"[0, 9]",2,25,"[1, 2, 3, 5, 6, 7, 8, 10, 11, 12, 14, 15, 16, 17, 18, 19, 20, 22, 23, 24, 25, 26, 27, 28, 29]",210.5293344,3140,3045,1,34,8,1.0
basic,17,17,0,0,0,16,"[0, 9, 16]",3,21,"[1, 2, 3, 5, 7, 8, 10, 11, 12, 14, 17, 18, 19, 20, 22, 23, 25, 26, 27, 28, 29]",197.1876704,4133,993,1,26,8,1.173103464220352
basic,17,17,0,0,0,2,"[0, 9, 16, 2]",4,18,"[1, 3, 5, 7, 8, 10, 11, 12, 14, 17, 18, 19, 23, 25, 26, 27, 28, 29]",181.0631549,5151,1018,1,23,8,1.14825089247282
basic,17,17,0,0,0,8,"[0, 9, 16, 2, 8]",5,9,"[3, 7, 10, 11, 12, 14, 17, 26, 27]",145.9490551,8468,3317,1,9,8,1.1509808066472915
basic,17,17,0,0,0,27,"[0, 9, 16, 2, 8, 27]",6,3,"[7, 12, 26]",63.31129136,9740,1272,1,2,8,1.1020704318716983
basic,17,17,0,0,0,12,"[0, 9, 16, 2, 8, 27, 12]",7,1,[26],40.31129136,10468,728,1,0,8,1.094321365620665
basic,17,17,0,0,1,26,"[0, 9, 16, 2, 8, 27, 12, 26]",8,0,[],5.197191627,11567,1099,1,0,8,1.2018360298670372
basic,17,17,0,1,1,26,"[0, 9, 16, 2, 8, 27, 12, 26]",8,0,[],5.197191627,14596,3029,1,0,8,1.2018360298670372
basic,18,37,0,0,0,0,[0],1,29,"[1, 2, 3, 4, 5, 6, 7, 8, 9, 10, 11, 12, 13, 14, 15, 16, 17, 18, 19, 20, 21, 22, 23, 24, 25, 26, 27, 28, 29]",300,113,-1,6,168,10,0.0
basic,18,37,0,0,0,18,"[0, 18]",2,19,"[1, 2, 4, 6, 7, 9, 10, 12, 14, 15, 17, 19, 20, 21, 22, 23, 26, 28, 29]",202.4090168,6167,6054,6,89,10,1.0
basic,18,37,0,0,0,22,"[0, 18, 22]",3,9,"[1, 2, 4, 7, 15, 19, 20, 21, 26]",136.9720242,7341,1174,15,58,9,1.001057447339584
basic,18,37,0,0,0,4,"[0, 18, 22, 4]",4,8,"[1, 2, 7, 15, 19, 20, 21, 26]",111.9720242,7974,633,8,28,9,1.1568597805027683
basic,18,37,0,0,0,2,"[0, 18, 22, 4, 2]",5,7,"[1, 7, 15, 19, 20, 21, 26]",100.57027,8860,886,7,12,9,1.3192232340552885
basic,18,37,0,0,0,1,"[0, 18, 22, 4, 2, 1]",6,6,"[7, 15, 19, 20, 21, 26]",83.36561943,10291,1431,7,4,9,1.3683384389764814
basic,18,37,0,0,0,15,"[0, 18, 22, 4, 2, 1, 15]",7,3,"[20, 21, 26]",43.40313702,11844,1553,2,1,9,1.5420751881752959
basic,18,37,0,0,0,20,"[0, 18, 22, 4, 2, 1, 15, 20]",8,1,[21],26.40313702,13325,1481,1,0,9,1.8252369053550608
basic,18,37,0,0,1,21,"[0, 18, 22, 4, 2, 1, 15, 20, 21]",9,0,[],11.98093192,14318,993,1,0,9,1.8558715556201628
basic,18,37,0,1,1,21,"[0, 18, 22, 4, 2, 1, 15, 20, 21]",9,0,[],11.98093192,19429,5111,1,0,9,1.8558715556201628
basic,19,40,0,0,0,0,[0],1,29,"[1, 2, 3, 4, 5, 6, 7, 8, 9, 10, 11, 12, 13, 14, 15, 16, 17, 18, 19, 20, 21, 22, 23, 24, 25, 26, 27, 28, 29]",300,112,-1,8,191,9,0.0
basic,19,40,0,0,0,1,"[0, 1]",2,18,"[2, 5, 6, 7, 8, 9, 10, 11, 13, 15, 17, 18, 19, 21, 22, 23, 27, 29]",247.8463808,9153,9041,4,80,9,1.0
basic,19,40,0,0,0,6,"[0, 1, 6]",3,17,"[2, 5, 7, 8, 9, 10, 11, 13, 15, 17, 18, 19, 21, 22, 23, 27, 29]",227.7466295,10075,922,4,74,9,1.0459427008232034
basic,19,40,0,0,0,21,"[0, 1, 6, 21]",4,8,"[2, 5, 9, 17, 18, 19, 22, 23]",175.7754837,11961,1886,4,25,9,1.0308822257404064
basic,19,40,0,0,0,9,"[0, 1, 6, 21, 9]",5,6,"[2, 5, 18, 19, 22, 23]",130.0699041,13068,1107,4,12,9,1.377861912961129
basic,19,40,0,0,0,18,"[0, 1, 6, 21, 9, 18]",6,5,"[2, 5, 19, 22, 23]",113.5169588,14386,1318,4,4,9,1.5742712168661408
basic,19,40,0,0,0,5,"[0, 1, 6, 21, 9, 18, 5]",7,3,"[19, 22, 23]",81.94165198,19651,5265,2,1,9,1.7730665063055515
basic,19,40,0,0,0,23,"[0, 1, 6, 21, 9, 18, 5, 23]",8,1,[19],53.63970859,20507,856,1,0,9,2.597442759912231
basic,19,40,0,0,1,19,"[0, 1, 6, 21, 9, 18, 5, 23, 19]",9,0,[],21.68661797,21684,1177,1,0,9,2.7128328554069565
basic,19,40,0,1,1,19,"[0, 1, 6, 21, 9, 18, 5, 23, 19]",9,0,[],21.68661797,24146,2462,1,0,9,2.7128328554069565
basic,20,38,0,0,0,0,[0],1,29,"[1, 2, 3, 4, 5, 6, 7, 8, 9, 10, 11, 12, 13, 14, 15, 16, 17, 18, 19, 20, 21, 22, 23, 24, 25, 26, 27, 28, 29]",300,95,-1,33,506,9,0.0
basic,20,38,0,0,0,19,"[0, 19]",2,23,"[3, 4, 5, 6, 7, 8, 9, 11, 13, 14, 15, 16, 17, 18, 20, 22, 23, 24, 25, 26, 27, 28, 29]",219.5015528,11074,10979,6,61,9,1.0
basic,20,38,0,0,0,17,"[0, 19, 17]",3,21,"[3, 4, 5, 6, 7, 9, 11, 13, 14, 15, 16, 18, 20, 22, 23, 24, 25, 26, 27, 28, 29]",198.1239945,12351,1277,6,53,9,1.571793785769489
basic,20,38,0,0,0,20,"[0, 19, 17, 20]",4,17,"[3, 4, 5, 6, 7, 11, 13, 14, 15, 16, 18, 22, 24, 25, 26, 27, 28]",174.3542658,13723,1372,6,44,9,2.333182710277297
basic,20,38,0,0,0,13,"[0, 19, 17, 20, 13]",5,9,"[4, 11, 15, 16, 18, 24, 26, 27, 28]",125.0998244,14717,994,1,11,9,1.7893595974504246
basic,20,38,0,0,0,4,"[0, 19, 17, 20, 13, 4]",6,6,"[11, 15, 16, 24, 26, 28]",93.69918748,15610,893,1,6,9,2.942354535547757
basic,20,38,0,0,0,15,"[0, 19, 17, 20, 13, 4, 15]",7,4,"[11, 16, 26, 28]",67.69918748,16986,1376,1,3,9,3.165907365359093
basic,20,38,0,0,0,11,"[0, 19, 17, 20, 13, 4, 15, 11]",8,1,[28],31.29863803,18468,1482,1,0,9,3.362710012119994
basic,20,38,0,0,1,28,"[0, 19, 17, 20, 13, 4, 15, 11, 28]",9,0,[],4.280125857,19168,700,1,0,9,2.7690631991189285
basic,20,38,0,1,1,28,"[0, 19, 17, 20, 13, 4, 15, 11, 28]",9,0,[],4.280125857,21595,2427,1,0,9,2.7690631991189285
basic,21,19,0,0,0,0,[0],1,29,"[1, 2, 3, 4, 5, 6, 7, 8, 9, 10, 11, 12, 13, 14, 15, 16, 17, 18, 19, 20, 21, 22, 23, 24, 25, 26, 27, 28, 29]",300,81,-1,12,149,8,0.0
basic,21,19,0,0,0,12,"[0, 12]",2,15,"[1, 2, 3, 5, 8, 9, 13, 16, 17, 18, 19, 21, 23, 25, 29]",180.3964883,9220,9139,9,58,7,1.0
basic,21,19,0,0,0,17,"[0, 12, 17]",3,11,"[1, 2, 3, 8, 13, 16, 18, 19, 23, 25, 29]",160.2718765,9970,750,6,25,7,1.0081383695928103
basic,21,19,0,0,0,25,"[0, 12, 17, 25]",4,10,"[1, 2, 3, 8, 13, 16, 18, 19, 23, 29]",149.2265155,10872,902,6,16,7,1.1056437189959143
basic,21,19,0,0,0,23,"[0, 12, 17, 25, 23]",5,6,"[1, 2, 3, 8, 18, 19]",79.58457415,14138,3266,3,4,7,1.2258550858033517
basic,21,19,0,0,0,3,"[0, 12, 17, 25, 23, 3]",6,2,"[8, 18]",57.65286195,14853,715,2,0,7,1.2025561392684052
basic,21,19,0,0,1,8,"[0, 12, 17, 25, 23, 3, 8]",7,0,[],34.32905437,15686,833,1,0,7,1.2191744156192352
basic,21,19,0,1,1,8,"[0, 12, 17, 25, 23, 3, 8]",7,0,[],34.32905437,29214,13528,1,0,7,1.2191744156192352
basic,22,23,0,0,0,0,[0],1,28,"[1, 2, 3, 4, 5, 6, 7, 8, 9, 10, 11, 12, 13, 14, 15, 16, 17, 18, 19, 20, 21, 22, 23, 25, 26, 27, 28, 29]",300,95,-1,76,2626,10,0.0
basic,22,23,0,0,0,27,"[0, 27]",2,11,"[2, 6, 7, 9, 10, 12, 13, 14, 18, 22, 29]",156.8217894,3218,3123,6,455,9,1.0
basic,22,23,0,0,0,6,"[0, 27, 6]",3,10,"[2, 7, 9, 10, 12, 13, 14, 18, 22, 29]",128.519846,4432,1214,6,168,9,1.1413510010705277
basic,22,23,0,0,0,2,"[0, 27, 6, 2]",4,8,"[7, 9, 12, 13, 14, 18, 22, 29]",110.0807571,6927,2495,3,50,9,1.3917699979429488
basic,22,23,0,0,0,12,"[0, 27, 6, 2, 12]",5,7,"[7, 9, 13, 14, 18, 22, 29]",96.18831307,8473,1546,1,16,9,1.6625644519568523
basic,22,23,0,0,0,13,"[0, 27, 6, 2, 12, 13]",6,5,"[9, 14, 18, 22, 29]",84.10526709,9234,761,1,4,9,1.9506259737980345
basic,22,23,0,0,0,9,"[0, 27, 6, 2, 12, 13, 9]",7,3,"[14, 22, 29]",60.08444279,10344,1110,1,2,9,1.8363453994915562
basic,22,23,0,0,0,14,"[0, 27, 6, 2, 12, 13, 9, 14]",8,1,[29],49.64413629,10867,523,1,0,9,1.7769594285688837
basic,22,23,0,0,1,29,"[0, 27, 6, 2, 12, 13, 9, 14, 29]",9,0,[],2.209971383,12673,1806,1,0,9,1.931097609943655
basic,22,23,0,1,1,29,"[0, 27, 6, 2, 12, 13, 9, 14, 29]",9,0,[],2.209971383,19045,6372,1,0,9,1.931097609943655
undo,23,5,0,0,0,0,[0],1,29,"[1, 2, 3, 4, 5, 6, 7, 8, 9, 10, 11, 12, 13, 14, 15, 16, 17, 18, 19, 20, 21, 22, 23, 24, 25, 26, 27, 28, 29]",300,115,-1,5,139,9,0.0
undo,23,5,0,0,0,12,"[0, 12]",2,22,"[2, 4, 5, 6, 8, 9, 10, 13, 14, 15, 16, 17, 18, 19, 21, 22, 23, 24, 25, 26, 27, 28]",228.3062067,6356,6241,1,27,9,1.0
undo,23,5,0,0,0,25,"[0, 12, 25]",3,21,"[2, 4, 5, 6, 8, 9, 10, 13, 14, 15, 16, 17, 18, 19, 21, 22, 23, 24, 26, 27, 28]",200.5213187,7171,815,1,20,9,1.584023303445617
undo,23,5,0,0,0,23,"[0, 12, 25, 23]",4,19,"[2, 4, 5, 6, 8, 9, 10, 13, 14, 15, 16, 17, 18, 19, 21, 22, 24, 26, 27]",182.0822298,7780,609,1,14,9,2.3508446989254357
undo,23,5,0,0,0,24,"[0, 12, 25, 23, 24]",5,15,"[2, 4, 5, 6, 8, 9, 13, 14, 15, 17, 18, 19, 22, 26, 27]",158.995437,8571,791,1,12,9,1.9469752046288753
undo,23,5,0,0,0,17,"[0, 12, 25, 23, 24, 17]",6,7,"[4, 5, 6, 8, 15, 18, 19]",124.0097257,22687,14116,1,8,9,1.6482276497563642
undo,23,5,0,0,0,5,"[0, 12, 25, 23, 24, 17, 5]",7,4,"[4, 6, 15, 18]",80.96323916,24020,1333,1,3,9,1.4654649104389412
undo,23,5,0,0,0,4,"[0, 12, 25, 23, 24, 17, 5, 4]",8,1,[6],15.16050365,25243,1223,1,0,9,1.6255060355828674
undo,23,5,0,0,1,6,"[0, 12, 25, 23, 24, 17, 5, 4, 6]",9,0,[],3.118909076,25996,753,1,0,9,1.7777310833772453
undo,23,5,0,1,1,6,"[0, 12, 25, 23, 24, 17, 5, 4, 6]",9,0,[],3.118909076,34848,8852,1,0,9,1.7777310833772453
undo,24,22,0,0,0,0,[0],1,29,"[1, 2, 3, 4, 5, 6, 7, 8, 9, 10, 11, 12, 13, 14, 15, 16, 17, 18, 19, 20, 21, 22, 23, 24, 25, 26, 27, 28, 29]",300,110,-1,31,704,9,0.0
undo,24,22,0,0,0,16,"[0, 16]",2,21,"[1, 3, 6, 7, 8, 9, 11, 13, 14, 15, 17, 18, 19, 20, 21, 22, 24, 25, 27, 28, 29]",218.605897,18284,18174,17,147,9,1.0
undo,24,22,0,0,0,28,"[0, 16, 28]",3,13,"[6, 7, 9, 13, 14, 17, 19, 20, 21, 22, 24, 25, 29]",184.1675463,19255,971,12,61,9,1.047282311284478
undo,24,22,0,0,0,6,"[0, 16, 28, 6]",4,12,"[7, 9, 13, 14, 17, 19, 20, 21, 22, 24, 25, 29]",154.1675463,19966,711,12,43,9,1.645645870580622
undo,24,22,0,0,0,9,"[0, 16, 28, 6, 9]",5,8,"[7, 14, 17, 19, 20, 21, 24, 29]",127.5404924,20821,855,8,17,9,1.925750226630103
undo,24,22,0,0,0,19,"[0, 16, 28, 6, 9, 19]",6,6,"[7, 14, 17, 21, 24, 29]",107.1444143,21682,861,3,7,9,2.4220750331476455
undo,24,22,0,0,0,29,"[0, 16, 28, 6, 9, 19, 29]",7,4,"[7, 14, 17, 24]",92.11111796,22588,906,2,2,9,2.6996279574991067
undo,24,22,0,0,0,7,"[0, 16, 28, 6, 9, 19, 29, 7]",8,1,[14],41.0327468,27421,4833,1,0,9,2.059125386946491
undo,24,22,0,0,1,14,"[0, 16, 28, 6, 9, 19, 29, 7, 14]",9,0,[],27.99434199,32066,4645,1,0,9,2.0997569104205307
undo,24,22,0,1,1,14,"[0, 16, 28, 6, 9, 19, 29, 7, 14]",9,0,[],27.99434199,35161,3095,1,0,9,2.0997569104205307
undo,25,25,0,0,0,0,[0],1,28,"[1, 2, 3, 4, 5, 7, 8, 9, 10, 11, 12, 13, 14, 15, 16, 17, 18, 19, 20, 21, 22, 23, 24, 25, 26, 27, 28, 29]",300,110,-1,5,94,10,0.0
undo,25,25,0,0,0,19,"[0, 19]",2,27,"[1, 2, 3, 4, 5, 7, 8, 9, 10, 11, 12, 13, 14, 15, 16, 17, 18, 20, 21, 22, 23, 24, 25, 26, 27, 28, 29]",251.9479449,4421,4311,2,30,10,1.0
undo,25,25,0,0,0,29,"[0, 19, 29]",3,26,"[1, 2, 3, 4, 5, 7, 8, 9, 10, 11, 12, 13, 14, 15, 16, 17, 18, 20, 21, 22, 23, 24, 25, 26, 27, 28]",235.6691243,5365,944,2,22,10,1.0272252084351727
undo,25,25,0,0,0,22,"[0, 19, 29, 22]",4,24,"[1, 2, 3, 4, 5, 7, 8, 9, 11, 12, 13, 14, 15, 16, 17, 18, 20, 21, 23, 24, 25, 26, 27, 28]",219.5446088,7066,1701,2,17,10,1.03988854593305
undo,25,25,0,0,0,7,"[0, 19, 29, 22, 7]",5,10,"[1, 3, 5, 8, 9, 11, 13, 23, 24, 28]",143.9007062,8248,1182,2,14,10,1.3318974800137366
undo,25,25,0,0,0,24,"[0, 19, 29, 22, 7, 24]",6,7,"[3, 8, 9, 11, 13, 23, 28]",119.1418694,9016,768,2,9,10,1.2868309735722725
undo,25,25,0,0,0,9,"[0, 19, 29, 22, 7, 24, 9]",7,4,"[3, 8, 13, 28]",101.114113,10005,989,2,7,10,1.2740198715343065
undo,25,25,0,0,0,3,"[0, 19, 29, 22, 7, 24, 9, 3]",8,3,"[8, 13, 28]",70.84862112,11200,1195,2,1,10,1.2376259292234586
undo,25,25,0,0,0,13,"[0, 19, 29, 22, 7, 24, 9, 3, 13]",9,1,[28],39.60762242,12301,1101,1,0,10,1.291892077575191
undo,25,25,0,0,1,28,"[0, 19, 29, 22, 7, 24, 9, 3, 13, 28]",10,0,[],5.373136879,13333,1032,1,0,10,1.3615350048994297
undo,25,25,0,1,1,28,"[0, 19, 29, 22, 7, 24, 9, 3, 13, 28]",10,0,[],5.373136879,15994,2661,1,0,10,1.3615350048994297
undo,26,26,0,0,0,0,[0],1,29,"[1, 2, 3, 4, 5, 6, 7, 8, 9, 10, 11, 12, 13, 14, 15, 16, 17, 18, 19, 20, 21, 22, 23, 24, 25, 26, 27, 28, 29]",300,96,-1,9,226,9,0.0
undo,26,26,0,0,0,21,"[0, 21]",2,25,"[2, 3, 4, 5, 6, 7, 8, 10, 11, 12, 13, 14, 15, 16, 17, 18, 19, 22, 23, 24, 25, 26, 27, 28, 29]",211.1349337,3635,3539,7,90,9,1.0
undo,26,26,0,0,0,13,"[0, 21, 13]",3,21,"[3, 4, 5, 6, 7, 8, 10, 11, 12, 14, 15, 16, 17, 18, 19, 22, 23, 24, 25, 26, 29]",188.9989901,4735,1100,6,45,9,1.0103952279992225
undo,26,26,0,0,0,5,"[0, 21, 13, 5]",4,12,"[3, 4, 11, 14, 16, 17, 18, 22, 23, 25, 26, 29]",150.7106107,6152,1417,2,10,8,1.0086890649024711
undo,26,26,0,0,0,23,"[0, 21, 13, 5, 23]",5,8,"[3, 4, 11, 14, 16, 17, 22, 29]",118.0150452,7208,1056,2,7,8,1.3518621918690494
undo,26,26,0,0,0,16,"[0, 21, 13, 5, 23, 16]",6,4,"[4, 14, 17, 29]",64.77971862,8335,1127,2,3,8,2.1011863559657242
undo,26,26,0,0,0,29,"[0, 21, 13, 5, 23, 16, 29]",7,2,"[4, 17]",40.57228175,9018,683,2,0,8,2.123178325538451
undo,26,26,0,0,1,17,"[0, 21, 13, 5, 23, 16, 29, 17]",8,0,[],10.1584691,9935,917,1,0,8,2.0398733817238592
undo,26,26,1,0,0,29,"[0, 21, 13, 5, 23, 16, 29]",7,2,"[4, 17]",40.57228175,11813,1878,2,0,8,2.123178325538451
undo,26,26,1,0,0,16,"[0, 21, 13, 5, 23, 16]",6,4,"[4, 14, 17, 29]",64.77971862,11997,184,2,3,8,2.1011863559657242
undo,26,26,1,0,0,23,"[0, 21, 13, 5, 23]",5,8,"[3, 4, 11, 14, 16, 17, 22, 29]",118.0150452,12213,216,2,7,8,1.3518621918690494
undo,26,26,1,0,0,5,"[0, 21, 13, 5]",4,12,"[3, 4, 11, 14, 16, 17, 18, 22, 23, 25, 26, 29]",150.7106107,12380,167,2,10,8,1.0086890649024711
undo,26,26,1,0,0,13,"[0, 21, 13]",3,21,"[3, 4, 5, 6, 7, 8, 10, 11, 12, 14, 15, 16, 17, 18, 19, 22, 23, 24, 25, 26, 29]",188.9989901,12562,182,6,45,9,1.0103952279992225
undo,26,26,0,0,0,23,"[0, 21, 13, 23]",4,13,"[3, 4, 5, 6, 10, 11, 14, 16, 17, 18, 22, 26, 29]",150.9858345,13769,1207,3,17,9,1.1069410469330032
undo,26,26,1,0,0,13,"[0, 21, 13]",3,21,"[3, 4, 5, 6, 7, 8, 10, 11, 12, 14, 15, 16, 17, 18, 19, 22, 23, 24, 25, 26, 29]",188.9989901,15879,2110,6,45,9,1.0103952279992225
undo,26,26,1,0,0,21,"[0, 21]",2,25,"[2, 3, 4, 5, 6, 7, 8, 10, 11, 12, 13, 14, 15, 16, 17, 18, 19, 22, 23, 24, 25, 26, 27, 28, 29]",211.1349337,16580,701,7,90,9,1.0
undo,26,26,0,0,0,16,"[0, 21, 16]",3,12,"[4, 5, 6, 10, 11, 12, 13, 14, 17, 23, 26, 29]",151.2266705,17480,900,1,34,9,1.3289691188319968
undo,26,26,0,0,0,29,"[0, 21, 16, 29]",4,8,"[4, 5, 6, 10, 13, 14, 17, 23]",127.0192337,18871,1391,1,28,9,1.4156891800947415
undo,26,26,0,0,0,4,"[0, 21, 16, 29, 4]",5,5,"[6, 10, 14, 17, 23]",103.0192337,19640,769,1,12,9,1.6252228687746915
undo,26,26,0,0,0,17,"[0, 21, 16, 29, 4, 17]",6,3,"[6, 10, 14]",81.92421056,20369,729,1,4,9,1.534793846471065
undo,26,26,0,0,0,14,"[0, 21, 16, 29, 4, 17, 14]",7,2,"[6, 10]",59.45200551,21602,1233,1,1,9,1.4926767408397108
undo,26,26,0,0,0,6,"[0, 21, 16, 29, 4, 17, 14, 6]",8,1,[10],38.42820947,22590,988,1,0,9,1.6286010900012204
undo,26,26,0,0,1,10,"[0, 21, 16, 29, 4, 17, 14, 6, 10]",9,0,[],9.153647129,23602,1012,1,0,9,1.797369356615424
undo,26,26,0,1,1,10,"[0, 21, 16, 29, 4, 17, 14, 6, 10]",9,0,[],9.153647129,28997,5395,1,0,9,1.797369356615424
undo,27,13,0,0,0,0,[0],1,29,"[1, 2, 3, 4, 5, 6, 7, 8, 9, 10, 11, 12, 13, 14, 15, 16, 17, 18, 19, 20, 21, 22, 23, 24, 25, 26, 27, 28, 29]",300,108,-1,60,2676,11,0.0
undo,27,13,0,0,0,24,"[0, 24]",2,28,"[1, 2, 3, 4, 5, 6, 7, 8, 9, 10, 11, 12, 13, 14, 15, 16, 17, 18, 19, 20, 21, 22, 23, 25, 26, 27, 28, 29]",288.8196601,8883,8775,16,1444,11,1.0
undo,27,13,0,0,0,28,"[0, 24, 28]",3,23,"[1, 2, 3, 4, 6, 7, 8, 9, 10, 11, 12, 13, 15, 16, 17, 19, 20, 21, 22, 23, 26, 27, 29]",222.5324064,10306,1423,8,243,11,1.0513810491680837
undo,27,13,0,0,0,2,"[0, 24, 28, 2]",4,19,"[1, 3, 4, 6, 7, 9, 11, 12, 13, 15, 16, 17, 19, 20, 21, 23, 26, 27, 29]",184.889346,11138,832,7,110,11,1.050374132001543
undo,27,13,0,0,0,29,"[0, 24, 28, 2, 29]",5,18,"[1, 3, 4, 6, 7, 9, 11, 12, 13, 15, 16, 17, 19, 20, 21, 23, 26, 27]",173.1846461,11847,709,7,85,11,1.1393409619120594
undo,27,13,0,0,0,7,"[0, 24, 28, 2, 29, 7]",6,17,"[1, 3, 4, 6, 9, 11, 12, 13, 15, 16, 17, 19, 20, 21, 23, 26, 27]",157.9203086,12866,1019,5,45,11,1.349777315111579
undo,27,13,0,0,0,26,"[0, 24, 28, 2, 29, 7, 26]",7,16,"[1, 3, 4, 6, 9, 11, 12, 13, 15, 16, 17, 19, 20, 21, 23, 27]",147.480002,15731,2865,5,25,11,1.5942082773824946
undo,27,13,0,0,0,6,"[0, 24, 28, 2, 29, 7, 26, 6]",8,12,"[1, 3, 4, 11, 13, 15, 16, 17, 19, 20, 23, 27]",127.3802508,19153,3422,4,12,11,1.5898347940840756
undo,27,13,0,0,0,16,"[0, 24, 28, 2, 29, 7, 26, 6, 16]",9,3,"[3, 20, 23]",53.82754861,21315,2162,1,2,11,2.6743660300373904
undo,27,13,0,0,0,3,"[0, 24, 28, 2, 29, 7, 26, 6, 16, 3]",10,1,[20],25.3846233,22415,1100,1,0,11,2.696717621944423
undo,27,13,0,0,1,20,"[0, 24, 28, 2, 29, 7, 26, 6, 16, 3, 20]",11,0,[],6.358325711,23338,923,1,0,11,2.6690286409584245
undo,27,13,0,1,1,20,"[0, 24, 28, 2, 29, 7, 26, 6, 16, 3, 20]",11,0,[],6.358325711,34291,10953,1,0,11,2.6690286409584245
undo,28,0,0,0,0,0,[0],1,27,"[2, 3, 4, 5, 6, 7, 8, 9, 10, 11, 12, 13, 14, 15, 16, 17, 19, 20, 21, 22, 23, 24, 25, 26, 27, 28, 29]",300,95,-1,104,1136,9,0.0
undo,28,0,0,0,0,28,"[0, 28]",2,26,"[2, 3, 4, 5, 6, 7, 8, 9, 10, 11, 12, 13, 14, 15, 16, 17, 19, 20, 21, 22, 23, 24, 25, 26, 27, 29]",194.9190788,8584,8489,39,388,9,1.0
undo,28,0,0,0,0,26,"[0, 28, 26]",3,21,"[2, 3, 4, 5, 7, 8, 9, 10, 11, 12, 13, 14, 15, 17, 19, 20, 21, 22, 23, 24, 25]",136.9363227,13952,5368,5,55,9,1.0093388233539051
undo,28,0,0,0,0,4,"[0, 28, 26, 4]",4,16,"[3, 5, 7, 8, 9, 11, 12, 13, 14, 15, 17, 19, 20, 21, 23, 24]",124.8947282,14874,922,5,33,9,1.1185924093500432
undo,28,0,0,0,0,24,"[0, 28, 26, 4, 24]",5,12,"[3, 5, 7, 8, 9, 11, 12, 15, 17, 19, 20, 23]",113.4929739,15609,735,5,21,9,1.1179314844344648
undo,28,0,0,0,0,15,"[0, 28, 26, 4, 24, 15]",6,9,"[3, 5, 7, 8, 9, 11, 12, 17, 19]",90.14773885,17425,1816,5,8,9,1.1101585049568639
undo,28,0,0,0,0,7,"[0, 28, 26, 4, 24, 15, 7]",7,4,"[3, 8, 17, 19]",59.08328972,19234,1809,4,2,9,1.1751475399938958
undo,28,0,0,0,0,8,"[0, 28, 26, 4, 24, 15, 7, 8]",8,2,"[3, 19]",39.97831655,20352,1118,2,0,9,1.1688286242571428
undo,28,0,0,0,1,3,"[0, 28, 26, 4, 24, 15, 7, 8, 3]",9,0,[],9.564503894,21307,955,1,0,9,1.3398928751407715
undo,28,0,0,1,1,3,"[0, 28, 26, 4, 24, 15, 7, 8, 3]",9,0,[],9.564503894,31395,10088,1,0,9,1.3398928751407715
undo,29,6,0,0,0,0,[0],1,29,"[1, 2, 3, 4, 5, 6, 7, 8, 9, 10, 11, 12, 13, 14, 15, 16, 17, 18, 19, 20, 21, 22, 23, 24, 25, 26, 27, 28, 29]",300,96,-1,180,4304,10,0.0
undo,29,6,0,0,0,3,"[0, 3]",2,28,"[1, 2, 4, 5, 6, 7, 8, 9, 10, 11, 12, 13, 14, 15, 16, 17, 18, 19, 20, 21, 22, 23, 24, 25, 26, 27, 28, 29]",266.4738908,11145,11049,90,1607,10,1.0
undo,29,6,0,0,0,10,"[0, 3, 10]",3,27,"[1, 2, 4, 5, 6, 7, 8, 9, 11, 12, 13, 14, 15, 16, 17, 18, 19, 20, 21, 22, 23, 24, 25, 26, 27, 28, 29]",215.2293789,12745,1600,8,136,10,1.0050517746249001
undo,29,6,0,0,0,24,"[0, 3, 10, 24]",4,23,"[1, 2, 4, 5, 6, 7, 8, 11, 13, 14, 16, 17, 18, 19, 20, 21, 22, 23, 25, 26, 27, 28, 29]",201.812971,13361,616,8,85,10,1.0091851911500884
undo,29,6,0,0,0,17,"[0, 3, 10, 24, 17]",5,19,"[1, 2, 4, 5, 6, 7, 8, 11, 13, 14, 16, 18, 20, 21, 22, 23, 26, 27, 29]",172.5384087,14785,1424,8,53,10,1.8060138032707682
undo,29,6,0,0,0,18,"[0, 3, 10, 24, 17, 18]",6,15,"[1, 2, 6, 7, 8, 13, 14, 16, 20, 21, 22, 23, 26, 27, 29]",158.6100204,15418,633,7,36,10,2.3216150751946008
undo,29,6,0,0,0,16,"[0, 3, 10, 24, 17, 18, 16]",7,13,"[1, 2, 6, 7, 13, 14, 20, 21, 22, 23, 26, 27, 29]",135.2647853,16486,1068,7,21,10,2.2822729587843544
undo,29,6,0,0,0,29,"[0, 3, 10, 24, 17, 18, 16, 29]",8,7,"[6, 14, 20, 21, 22, 23, 27]",98.57691268,17937,1451,6,4,10,1.8911507070056388
undo,29,6,0,0,0,22,"[0, 3, 10, 24, 17, 18, 16, 29, 22]",9,3,"[14, 23, 27]",48.24799455,20867,2930,3,0,10,1.6168206397602507
undo,29,6,0,0,1,14,"[0, 3, 10, 24, 17, 18, 16, 29, 22, 14]",10,0,[],13.83869348,21818,951,1,0,10,1.7015033890347406
undo,29,6,0,1,1,14,"[0, 3, 10, 24, 17, 18, 16, 29, 22, 14]",10,0,[],13.83869348,24595,2777,1,0,10,1.7015033890347406
undo,30,21,0,0,0,0,[0],1,29,"[1, 2, 3, 4, 5, 6, 7, 8, 9, 10, 11, 12, 13, 14, 15, 16, 17, 18, 19, 20, 21, 22, 23, 24, 25, 26, 27, 28, 29]",300,97,-1,84,830,9,0.0
undo,30,21,0,0,0,25,"[0, 25]",2,26,"[1, 2, 3, 4, 5, 6, 7, 8, 9, 10, 11, 12, 13, 14, 15, 16, 17, 18, 20, 21, 22, 23, 24, 26, 27, 29]",240.1836143,7604,7507,30,238,9,1.0
undo,30,21,0,0,0,23,"[0, 25, 23]",3,21,"[1, 2, 4, 6, 7, 8, 9, 10, 11, 12, 14, 15, 16, 17, 18, 20, 21, 22, 24, 27, 29]",196.8592562,8636,1032,14,80,9,1.0416131642057598
undo,30,21,0,0,0,21,"[0, 25, 23, 21]",4,14,"[1, 4, 6, 8, 9, 14, 15, 16, 17, 18, 20, 22, 24, 29]",167.2450705,9561,925,10,25,9,1.4768792067751173
undo,30,21,0,0,0,14,"[0, 25, 23, 21, 14]",5,10,"[4, 8, 9, 15, 16, 17, 18, 22, 24, 29]",141.6325735,10546,985,8,13,9,1.3826076066332742
undo,30,21,0,0,0,4,"[0, 25, 23, 21, 14, 4]",6,7,"[8, 15, 16, 17, 18, 24, 29]",127.4904379,12145,1599,8,3,9,1.3487191473328533
undo,30,21,0,0,0,16,"[0, 25, 23, 21, 14, 4, 16]",7,3,"[8, 15, 24]",82.89223163,13328,1183,4,1,9,1.3301484172843694
undo,30,21,0,0,0,8,"[0, 25, 23, 21, 14, 4, 16, 8]",8,2,"[15, 24]",64.2911564,14704,1376,2,0,9,1.3009886562393016
undo,30,21,0,0,1,15,"[0, 25, 23, 21, 14, 4, 16, 8, 15]",9,0,[],39.2911564,15785,1081,1,0,9,1.5486591410600183
undo,30,21,0,1,1,15,"[0, 25, 23, 21, 14, 4, 16, 8, 15]",9,0,[],39.2911564,33430,17645,1,0,9,1.5486591410600183
undo,31,42,0,0,0,0,[0],1,29,"[1, 2, 3, 4, 5, 6, 7, 8, 9, 10, 11, 12, 13, 14, 15, 16, 17, 18, 19, 20, 21, 22, 23, 24, 25, 26, 27, 28, 29]",300,95,-1,16,302,9,0.0
undo,31,42,0,0,0,4,"[0, 4]",2,28,"[1, 2, 3, 5, 6, 7, 8, 9, 10, 11, 12, 13, 14, 15, 16, 17, 18, 19, 20, 21, 22, 23, 24, 25, 26, 27, 28, 29]",209.5290102,9984,9889,4,80,9,1.0
undo,31,42,0,0,0,22,"[0, 4, 22]",3,24,"[1, 2, 3, 5, 6, 7, 8, 9, 10, 11, 13, 15, 17, 18, 19, 20, 21, 23, 24, 25, 26, 27, 28, 29]",198.3486703,10852,868,3,53,9,1.1473032812120834
undo,31,42,0,0,0,8,"[0, 4, 22, 8]",4,21,"[1, 2, 3, 5, 6, 7, 10, 11, 15, 17, 18, 19, 20, 21, 23, 24, 25, 26, 27, 28, 29]",176.2127267,12535,1683,2,36,9,1.1513227322639639
undo,31,42,0,0,0,1,"[0, 4, 22, 8, 1]",5,12,"[2, 5, 6, 7, 10, 15, 18, 19, 24, 26, 27, 28]",127.1209758,14007,1472,2,24,9,1.1101621876186907
undo,31,42,0,0,0,7,"[0, 4, 22, 8, 1, 7]",6,5,"[2, 19, 26, 27, 28]",97.12097583,16918,2911,2,10,9,1.1711274205343067
undo,31,42,0,0,0,19,"[0, 4, 22, 8, 1, 7, 19]",7,4,"[2, 26, 27, 28]",50.59141533,17784,866,4,0,8,1.153421596096177
undo,31,42,0,0,1,26,"[0, 4, 22, 8, 1, 7, 19, 26]",8,0,[],15.70588825,18823,1039,1,0,8,1.4358288472222223
undo,31,42,0,1,1,26,"[0, 4, 22, 8, 1, 7, 19, 26]",8,0,[],15.70588825,21862,3039,1,0,8,1.4358288472222223
undo,32,36,0,0,0,0,[0],1,24,"[2, 4, 5, 6, 7, 8, 9, 10, 12, 13, 14, 15, 16, 17, 18, 19, 20, 22, 23, 25, 26, 27, 28, 29]",300,95,-1,2,200,10,0.0
undo,32,36,0,0,0,16,"[0, 16]",2,12,"[2, 8, 9, 10, 12, 13, 17, 18, 19, 23, 25, 27]",193.262003,3586,3491,20,112,8,1.0
undo,32,36,0,0,0,17,"[0, 16, 17]",3,10,"[2, 9, 10, 12, 13, 18, 19, 23, 25, 27]",164.9423985,4570,984,14,64,8,1.4289609665642613
undo,32,36,0,0,0,9,"[0, 16, 17, 9]",4,8,"[2, 10, 12, 13, 18, 19, 23, 25]",138.693589,5467,897,6,21,8,2.335567583937715
undo,32,36,0,0,0,19,"[0, 16, 17, 9, 19]",5,6,"[2, 10, 12, 13, 18, 25]",123.5608431,6043,576,6,5,8,2.2891022786553017
undo,32,36,0,0,0,2,"[0, 16, 17, 9, 19, 2]",6,3,"[10, 13, 25]",86.43942067,7569,1526,2,1,8,1.891101810711848
undo,32,36,0,0,0,25,"[0, 16, 17, 9, 19, 2, 25]",7,1,[13],61.43942067,8485,916,1,0,8,2.0836773189568087
undo,32,36,1,0,0,2,"[0, 16, 17, 9, 19, 2]",6,3,"[10, 13, 25]",86.43942067,11011,2526,2,1,8,1.891101810711848
undo,32,36,1,0,0,19,"[0, 16, 17, 9, 19]",5,6,"[2, 10, 12, 13, 18, 25]",123.5608431,11196,185,6,5,8,2.2891022786553017
undo,32,36,1,0,0,9,"[0, 16, 17, 9]",4,8,"[2, 10, 12, 13, 18, 19, 23, 25]",138.693589,11395,199,6,21,8,2.335567583937715
undo,32,36,1,0,0,17,"[0, 16, 17]",3,10,"[2, 9, 10, 12, 13, 18, 19, 23, 25, 27]",164.9423985,11596,201,14,64,8,1.4289609665642613
undo,32,36,1,0,0,16,"[0, 16]",2,12,"[2, 8, 9, 10, 12, 13, 17, 18, 19, 23, 25, 27]",193.262003,11779,183,20,112,8,1.0
undo,32,36,1,0,0,0,[0],1,24,"[2, 4, 5, 6, 7, 8, 9, 10, 12, 13, 14, 15, 16, 17, 18, 19, 20, 22, 23, 25, 26, 27, 28, 29]",300,12012,233,2,200,10,0.0
undo,32,36,0,0,0,18,"[0, 18]",2,21,"[2, 4, 5, 6, 7, 8, 9, 10, 12, 13, 14, 16, 17, 19, 22, 23, 25, 26, 27, 28, 29]",279.6039219,13868,1856,2,110,10,1.0
undo,32,36,0,0,0,16,"[0, 18, 16]",3,9,"[2, 9, 10, 12, 13, 17, 19, 23, 25]",169.581197,15123,1255,4,33,9,1.2218591943452424
undo,32,36,0,0,0,17,"[0, 18, 16, 17]",4,7,"[2, 9, 10, 12, 13, 19, 25]",141.2615925,17034,1911,4,21,9,1.6795129314662942
undo,32,36,0,0,0,9,"[0, 18, 16, 17, 9]",5,5,"[2, 12, 13, 19, 25]",115.012783,18411,1377,3,6,9,2.6784437443596194
undo,32,36,0,0,0,19,"[0, 18, 16, 17, 9, 19]",6,4,"[2, 12, 13, 25]",99.88003706,19218,807,3,3,9,2.5963344600994773
undo,32,36,0,0,0,2,"[0, 18, 16, 17, 9, 19, 2]",7,2,"[13, 25]",62.75861467,20179,961,2,0,9,2.100797884988348
undo,32,36,0,0,0,25,"[0, 18, 16, 17, 9, 19, 2, 25]",8,1,[13],37.75861467,21135,956,1,0,9,2.290514334927331
undo,32,36,0,0,1,13,"[0, 18, 16, 17, 9, 19, 2, 25, 13]",9,0,[],17.16735439,22818,1683,1,0,9,2.883646365994176
undo,32,36,0,1,1,13,"[0, 18, 16, 17, 9, 19, 2, 25, 13]",9,0,[],17.16735439,26862,4044,1,0,9,2.883646365994176
undo,33,38,0,0,0,0,[0],1,29,"[1, 2, 3, 4, 5, 6, 7, 8, 9, 10, 11, 12, 13, 14, 15, 16, 17, 18, 19, 20, 21, 22, 23, 24, 25, 26, 27, 28, 29]",300,93,-1,33,506,9,0.0
undo,33,38,0,0,0,19,"[0, 19]",2,23,"[3, 4, 5, 6, 7, 8, 9, 11, 13, 14, 15, 16, 17, 18, 20, 22, 23, 24, 25, 26, 27, 28, 29]",219.5015528,2908,2815,6,61,9,1.0
undo,33,38,0,0,0,17,"[0, 19, 17]",3,21,"[3, 4, 5, 6, 7, 9, 11, 13, 14, 15, 16, 18, 20, 22, 23, 24, 25, 26, 27, 28, 29]",198.1239945,3653,745,6,53,9,1.571793785769489
undo,33,38,0,0,0,20,"[0, 19, 17, 20]",4,17,"[3, 4, 5, 6, 7, 11, 13, 14, 15, 16, 18, 22, 24, 25, 26, 27, 28]",174.3542658,4766,1113,6,44,9,2.333182710277297
undo,33,38,0,0,0,13,"[0, 19, 17, 20, 13]",5,9,"[4, 11, 15, 16, 18, 24, 26, 27, 28]",125.0998244,6708,1942,1,11,9,1.7893595974504246
undo,33,38,0,0,0,4,"[0, 19, 17, 20, 13, 4]",6,6,"[11, 15, 16, 24, 26, 28]",93.69918748,7864,1156,1,6,9,2.942354535547757
undo,33,38,0,0,0,15,"[0, 19, 17, 20, 13, 4, 15]",7,4,"[11, 16, 26, 28]",67.69918748,8782,918,1,3,9,3.165907365359093
undo,33,38,0,0,0,11,"[0, 19, 17, 20, 13, 4, 15, 11]",8,1,[28],31.29863803,9621,839,1,0,9,3.362710012119994
undo,33,38,0,0,1,28,"[0, 19, 17, 20, 13, 4, 15, 11, 28]",9,0,[],4.280125857,10916,1295,1,0,9,2.7690631991189285
undo,33,38,0,1,1,28,"[0, 19, 17, 20, 13, 4, 15, 11, 28]",9,0,[],4.280125857,15543,4627,1,0,9,2.7690631991189285
undo,34,23,0,0,0,0,[0],1,28,"[1, 2, 3, 4, 5, 6, 7, 8, 9, 10, 11, 12, 13, 14, 15, 16, 17, 18, 19, 20, 21, 22, 23, 25, 26, 27, 28, 29]",300,98,-1,76,2626,10,0.0
undo,34,23,0,0,0,13,"[0, 13]",2,19,"[1, 2, 3, 5, 6, 7, 8, 9, 10, 12, 14, 17, 18, 19, 21, 22, 23, 27, 29]",189.3202819,5621,5523,9,168,10,1.0
undo,34,23,0,0,0,12,"[0, 13, 12]",3,16,"[1, 2, 3, 6, 7, 8, 9, 10, 14, 17, 18, 21, 22, 23, 27, 29]",177.2372359,6364,743,9,96,10,1.0014195490503164
undo,34,23,0,0,0,2,"[0, 13, 12, 2]",4,12,"[1, 3, 6, 7, 9, 10, 14, 18, 21, 22, 27, 29]",163.3447919,7102,738,4,30,10,1.0014394317924602
undo,34,23,0,0,0,9,"[0, 13, 12, 2, 9]",5,10,"[1, 6, 7, 10, 14, 18, 21, 22, 27, 29]",150.3063871,8204,1102,1,8,10,1.1457747074799831
undo,34,23,0,0,0,14,"[0, 13, 12, 2, 9, 14]",6,8,"[1, 6, 7, 10, 18, 22, 27, 29]",139.8660806,8868,664,1,6,10,1.1365880299138118
undo,34,23,0,0,0,29,"[0, 13, 12, 2, 9, 14, 29]",7,5,"[1, 6, 7, 10, 22]",92.43191571,10747,1879,1,3,10,1.3460297288480787
undo,34,23,0,0,0,7,"[0, 13, 12, 2, 9, 14, 29, 7]",8,2,"[1, 10]",68.34872655,11620,873,1,1,10,1.3773159292410473
undo,34,23,0,0,0,10,"[0, 13, 12, 2, 9, 14, 29, 7, 10]",9,1,[1],40.88966612,12804,1184,1,0,10,1.3556884556214648
undo,34,23,0,0,1,1,"[0, 13, 12, 2, 9, 14, 29, 7, 10, 1]",10,0,[],12.23656855,13870,1066,1,0,10,1.3259861306330887
undo,34,23,0,1,1,1,"[0, 13, 12, 2, 9, 14, 29, 7, 10, 1]",10,0,[],12.23656855,21815,7945,1,0,10,1.3259861306330887
undo,35,15,0,0,0,0,[0],1,25,"[1, 2, 3, 4, 7, 8, 9, 10, 11, 12, 13, 14, 15, 16, 18, 20, 21, 22, 23, 24, 25, 26, 27, 28, 29]",300,96,-1,4,65,9,0.0
undo,35,15,0,0,0,21,"[0, 21]",2,17,"[1, 3, 4, 7, 8, 9, 11, 12, 13, 14, 15, 16, 22, 23, 24, 26, 27]",204.9158268,10636,10540,21,65,7,1.0
undo,35,15,1,0,0,0,[0],1,25,"[1, 2, 3, 4, 7, 8, 9, 10, 11, 12, 13, 14, 15, 16, 18, 20, 21, 22, 23, 24, 25, 26, 27, 28, 29]",300,12979,2343,4,65,9,0.0
undo,35,15,0,0,0,12,"[0, 12]",2,22,"[1, 2, 3, 4, 7, 8, 9, 10, 11, 13, 14, 15, 16, 18, 21, 22, 23, 24, 26, 27, 28, 29]",213.547701,13528,549,4,35,9,1.0
undo,35,15,0,0,0,7,"[0, 12, 7]",3,16,"[1, 3, 4, 8, 9, 10, 11, 13, 14, 15, 16, 18, 21, 22, 24, 27]",180.3061607,14328,800,4,29,9,1.411291635294361
undo,35,15,0,0,0,16,"[0, 12, 7, 16]",4,10,"[3, 4, 10, 11, 13, 14, 15, 18, 21, 22]",136.6484008,15419,1091,2,11,9,1.4308733430458784
undo,35,15,0,0,0,11,"[0, 12, 7, 16, 11]",5,7,"[3, 4, 13, 14, 15, 21, 22]",110.6291772,16402,983,2,5,9,1.5251025438826007
undo,35,15,0,0,0,3,"[0, 12, 7, 16, 11, 3]",6,5,"[4, 13, 14, 15, 22]",99.22742292,17274,872,2,3,9,1.5166583878170454
undo,35,15,0,0,0,22,"[0, 12, 7, 16, 11, 3, 22]",7,2,"[13, 15]",49.49815588,18544,1270,2,0,9,1.4519711389669923
undo,35,15,0,0,0,15,"[0, 12, 7, 16, 11, 3, 22, 15]",8,1,[13],23.88565893,19286,742,1,0,9,1.4060225827822495
undo,35,15,0,0,1,13,"[0, 12, 7, 16, 11, 3, 22, 15, 13]",9,0,[],8.621321408,19968,682,1,0,9,1.4544229719836068
undo,35,15,0,1,1,13,"[0, 12, 7, 16, 11, 3, 22, 15, 13]",9,0,[],8.621321408,22913,2945,1,0,9,1.4544229719836068
undo,36,9,0,0,0,0,[0],1,27,"[1, 3, 4, 5, 6, 7, 8, 9, 10, 11, 13, 14, 15, 16, 17, 18, 19, 20, 21, 22, 23, 24, 25, 26, 27, 28, 29]",300,112,-1,2,182,10,0.0
undo,36,9,0,0,0,27,"[0, 27]",2,18,"[3, 4, 7, 8, 9, 10, 11, 16, 17, 18, 19, 20, 21, 22, 23, 25, 26, 28]",246.3996269,10902,10790,6,149,9,1.0
undo,36,9,0,0,0,25,"[0, 27, 25]",3,16,"[3, 4, 7, 8, 9, 10, 11, 17, 18, 19, 20, 21, 22, 23, 26, 28]",210.4969807,11717,815,6,109,9,3.7164105930635247
undo,36,9,0,0,0,9,"[0, 27, 25, 9]",4,11,"[3, 7, 8, 10, 18, 19, 20, 21, 23, 26, 28]",120.4469946,13034,1317,1,9,9,2.4112481286655725
undo,36,9,0,0,0,23,"[0, 27, 25, 9, 23]",5,7,"[7, 8, 10, 20, 21, 26, 28]",98.08631483,13820,786,1,8,9,3.391233045383985
undo,36,9,0,0,0,8,"[0, 27, 25, 9, 23, 8]",6,5,"[10, 20, 21, 26, 28]",76.61540428,14842,1022,1,4,9,3.5023758478206197
undo,36,9,0,0,0,28,"[0, 27, 25, 9, 23, 8, 28]",7,4,"[10, 20, 21, 26]",65.79875045,15553,711,1,3,9,3.153099791971334
undo,36,9,0,0,0,21,"[0, 27, 25, 9, 23, 8, 28, 21]",8,1,[20],12.79875045,16352,799,1,0,9,2.422970703078624
undo,36,9,0,0,1,20,"[0, 27, 25, 9, 23, 8, 28, 21, 20]",9,0,[],0.715704478,16919,567,1,0,9,2.363098075692772
undo,36,9,0,1,1,20,"[0, 27, 25, 9, 23, 8, 28, 21, 20]",9,0,[],0.715704478,20712,3793,1,0,9,2.363098075692772
undo,37,12,0,0,0,0,[0],1,29,"[1, 2, 3, 4, 5, 6, 7, 8, 9, 10, 11, 12, 13, 14, 15, 16, 17, 18, 19, 20, 21, 22, 23, 24, 25, 26, 27, 28, 29]",300,95,-1,2,32,9,0.0
undo,37,12,0,0,0,22,"[0, 22]",2,22,"[2, 4, 5, 6, 7, 9, 10, 12, 13, 14, 15, 16, 17, 18, 19, 21, 23, 24, 25, 27, 28, 29]",211.9943184,34829,34734,6,42,8,1.0
undo,37,12,0,0,0,16,"[0, 22, 16]",3,12,"[2, 4, 5, 6, 7, 12, 14, 19, 23, 24, 25, 27]",190.9943184,35652,823,6,24,8,1.2017164145167045
undo,37,12,0,0,0,4,"[0, 22, 16, 4]",4,9,"[2, 6, 7, 12, 14, 19, 24, 25, 27]",156.7890556,36708,1056,6,14,8,1.146531713305579
undo,37,12,0,0,0,12,"[0, 22, 16, 4, 12]",5,4,"[14, 19, 24, 27]",114.5990094,37468,760,4,3,8,1.1221389456954312
undo,37,12,0,0,0,27,"[0, 22, 16, 4, 12, 27]",6,3,"[14, 19, 24]",90.24741807,38252,784,2,1,8,1.2262878338287035
undo,37,12,0,0,0,14,"[0, 22, 16, 4, 12, 27, 14]",7,1,[24],61.59432051,39918,1666,1,0,8,1.2804562106751427
undo,37,12,0,0,1,24,"[0, 22, 16, 4, 12, 27, 14, 24]",8,0,[],44.38966997,40801,883,1,0,8,1.4322660007679802
undo,37,12,1,0,0,14,"[0, 22, 16, 4, 12, 27, 14]",7,1,[24],61.59432051,47928,7127,1,0,8,1.2804562106751427
undo,37,12,1,0,0,27,"[0, 22, 16, 4, 12, 27]",6,3,"[14, 19, 24]",90.24741807,48162,234,2,1,8,1.2262878338287035
undo,37,12,1,0,0,12,"[0, 22, 16, 4, 12]",5,4,"[14, 19, 24, 27]",114.5990094,48363,201,4,3,8,1.1221389456954312
undo,37,12,1,0,0,4,"[0, 22, 16, 4]",4,9,"[2, 6, 7, 12, 14, 19, 24, 25, 27]",156.7890556,48529,166,6,14,8,1.146531713305579
undo,37,12,1,0,0,16,"[0, 22, 16]",3,12,"[2, 4, 5, 6, 7, 12, 14, 19, 23, 24, 25, 27]",190.9943184,48845,316,6,24,8,1.2017164145167045
undo,37,12,1,0,0,22,"[0, 22]",2,22,"[2, 4, 5, 6, 7, 9, 10, 12, 13, 14, 15, 16, 17, 18, 19, 21, 23, 24, 25, 27, 28, 29]",211.9943184,48996,151,6,42,8,1.0
undo,37,12,1,0,0,0,[0],1,29,"[1, 2, 3, 4, 5, 6, 7, 8, 9, 10, 11, 12, 13, 14, 15, 16, 17, 18, 19, 20, 21, 22, 23, 24, 25, 26, 27, 28, 29]",300,49329,333,2,32,9,0.0
undo,37,12,0,0,0,6,"[0, 6]",2,28,"[1, 2, 3, 4, 5, 7, 8, 9, 10, 11, 12, 13, 14, 15, 16, 17, 18, 19, 20, 21, 22, 23, 24, 25, 26, 27, 28, 29]",283.5987805,50573,1244,2,18,9,1.0
undo,37,12,0,0,0,22,"[0, 6, 22]",3,13,"[2, 4, 5, 7, 12, 13, 14, 16, 19, 23, 24, 25, 27]",182.0015365,52085,1512,2,9,9,1.3408050629015749
undo,37,12,1,0,0,6,"[0, 6]",2,28,"[1, 2, 3, 4, 5, 7, 8, 9, 10, 11, 12, 13, 14, 15, 16, 17, 18, 19, 20, 21, 22, 23, 24, 25, 26, 27, 28, 29]",283.5987805,53662,1577,2,18,9,1.0
undo,37,12,0,0,0,25,"[0, 6, 25]",3,13,"[2, 4, 5, 7, 12, 14, 16, 19, 22, 23, 24, 27, 28]",193.4599986,55585,1923,3,21,8,1.4358021344876182
undo,37,12,0,0,0,16,"[0, 6, 25, 16]",4,7,"[4, 12, 14, 19, 22, 24, 27]",136.7325802,59508,3923,2,13,8,1.7999166231482893
undo,37,12,0,0,0,4,"[0, 6, 25, 16, 4]",5,6,"[12, 14, 19, 22, 24, 27]",102.5273175,61245,1737,1,6,8,1.5809454643731382
undo,37,12,0,0,0,12,"[0, 6, 25, 16, 4, 12]",6,2,"[14, 27]",60.33727126,62300,1055,1,1,8,1.4505579548440326
undo,37,12,1,0,0,4,"[0, 6, 25, 16, 4]",5,6,"[12, 14, 19, 22, 24, 27]",102.5273175,65762,3462,1,6,8,1.5809454643731382
undo,37,12,1,0,0,16,"[0, 6, 25, 16]",4,7,"[4, 12, 14, 19, 22, 24, 27]",136.7325802,66212,450,2,13,8,1.7999166231482893
undo,37,12,1,0,0,25,"[0, 6, 25]",3,13,"[2, 4, 5, 7, 12, 14, 16, 19, 22, 23, 24, 27, 28]",193.4599986,66645,433,3,21,8,1.4358021344876182
undo,37,12,1,0,0,6,"[0, 6]",2,28,"[1, 2, 3, 4, 5, 7, 8, 9, 10, 11, 12, 13, 14, 15, 16, 17, 18, 19, 20, 21, 22, 23, 24, 25, 26, 27, 28, 29]",283.5987805,67228,583,2,18,9,1.0
undo,37,12,0,0,0,16,"[0, 6, 16]",3,12,"[2, 4, 5, 7, 12, 14, 19, 22, 23, 24, 25, 27]",177.65068,67901,673,6,32,8,1.3488213090441052
undo,37,12,1,0,0,6,"[0, 6]",2,28,"[1, 2, 3, 4, 5, 7, 8, 9, 10, 11, 12, 13, 14, 15, 16, 17, 18, 19, 20, 21, 22, 23, 24, 25, 26, 27, 28, 29]",283.5987805,68412,511,2,18,9,1.0
undo,37,12,0,0,0,22,"[0, 6, 22]",3,13,"[2, 4, 5, 7, 12, 13, 14, 16, 19, 23, 24, 25, 27]",182.0015365,69636,1224,2,9,9,1.3408050629015749
undo,37,12,0,0,0,16,"[0, 6, 22, 16]",4,10,"[2, 4, 5, 7, 12, 14, 19, 24, 25, 27]",161.0015365,70861,1225,2,7,9,1.5323672374573825
undo,37,12,0,0,0,4,"[0, 6, 22, 16, 4]",5,6,"[12, 14, 19, 24, 25, 27]",126.7962737,71774,913,2,5,9,1.38665076120851
undo,37,12,0,0,0,12,"[0, 6, 22, 16, 4, 12]",6,3,"[14, 24, 27]",84.6062275,72574,800,2,3,9,1.3036701691846924
undo,37,12,0,0,0,27,"[0, 6, 22, 16, 4, 12, 27]",7,2,"[14, 24]",60.25463618,73324,750,2,0,9,1.401636252408167
undo,37,12,0,0,0,14,"[0, 6, 22, 16, 4, 12, 27, 14]",8,1,[24],31.60153862,74352,1028,1,0,9,1.4415448388010776
undo,37,12,0,0,1,24,"[0, 6, 22, 16, 4, 12, 27, 14, 24]",9,0,[],14.39688808,75135,783,1,0,9,1.6003250998053893
undo,37,12,0,1,1,24,"[0, 6, 22, 16, 4, 12, 27, 14, 24]",9,0,[],14.39688808,77562,2427,1,0,9,1.6003250998053893
undo,38,16,0,0,0,0,[0],1,29,"[1, 2, 3, 4, 5, 6, 7, 8, 9, 10, 11, 12, 13, 14, 15, 16, 17, 18, 19, 20, 21, 22, 23, 24, 25, 26, 27, 28, 29]",300,94,-1,13,161,9,0.0
undo,38,16,0,0,0,17,"[0, 17]",2,27,"[1, 2, 3, 4, 5, 7, 8, 9, 10, 11, 12, 13, 14, 15, 16, 18, 19, 20, 21, 22, 23, 24, 25, 26, 27, 28, 29]",241.3058776,7628,7534,2,58,9,1.0
undo,38,16,0,0,0,16,"[0, 17, 16]",3,26,"[1, 2, 3, 4, 5, 7, 8, 9, 10, 11, 12, 13, 14, 15, 18, 19, 20, 21, 22, 23, 24, 25, 26, 27, 28, 29]",212.9862731,8384,756,2,52,9,1.0529535521792848
undo,38,16,0,0,0,8,"[0, 17, 16, 8]",4,19,"[2, 3, 4, 5, 9, 12, 13, 14, 15, 19, 20, 21, 22, 23, 25, 26, 27, 28, 29]",164.6127266,9583,1199,2,38,9,1.0915134501573105
undo,38,16,0,0,0,20,"[0, 17, 16, 8, 20]",5,10,"[3, 4, 5, 9, 12, 13, 15, 19, 21, 25]",106.8372993,10723,1140,1,15,9,1.067523143001942
undo,38,16,0,0,0,25,"[0, 17, 16, 8, 20, 25]",6,7,"[3, 4, 5, 9, 12, 13, 15]",94.18818869,12417,1694,1,9,9,1.1170093326933646
undo,38,16,0,0,0,9,"[0, 17, 16, 8, 20, 25, 9]",7,5,"[3, 4, 5, 13, 15]",81.38194021,13189,772,1,4,9,1.1095076562662525
undo,38,16,0,0,0,15,"[0, 17, 16, 8, 20, 25, 9, 15]",8,1,[5],42.48463953,13772,583,1,0,9,1.213831159678775
undo,38,16,0,0,1,5,"[0, 17, 16, 8, 20, 25, 9, 15, 5]",9,0,[],13.0567616,14766,994,1,0,9,1.5171779607523481
undo,38,16,0,1,1,5,"[0, 17, 16, 8, 20, 25, 9, 15, 5]",9,0,[],13.0567616,16977,2211,1,0,9,1.5171779607523481
undo,39,3,0,0,0,0,[0],1,29,"[1, 2, 3, 4, 5, 6, 7, 8, 9, 10, 11, 12, 13, 14, 15, 16, 17, 18, 19, 20, 21, 22, 23, 24, 25, 26, 27, 28, 29]",300,97,-1,34,427,10,0.0
undo,39,3,0,0,0,17,"[0, 17]",2,16,"[3, 4, 7, 8, 10, 12, 14, 15, 16, 19, 20, 21, 22, 24, 26, 27]",197.6965299,6303,6206,2,27,9,1.0
undo,39,3,0,0,0,20,"[0, 17, 20]",3,13,"[3, 4, 7, 8, 10, 14, 15, 16, 19, 21, 22, 24, 27]",185.0474192,6919,616,2,24,9,1.0153332121237257
undo,39,3,0,0,0,3,"[0, 17, 20, 3]",4,10,"[4, 7, 8, 10, 14, 15, 16, 19, 21, 24]",164.6513412,7770,851,2,22,9,1.0819240770773468
undo,39,3,0,0,0,19,"[0, 17, 20, 3, 19]",5,6,"[4, 8, 10, 14, 21, 24]",127.3150318,8742,972,2,11,9,1.1701070532957258
undo,39,3,0,0,0,21,"[0, 17, 20, 3, 19, 21]",6,5,"[4, 8, 10, 14, 24]",115.1084762,9587,845,2,6,9,1.202395500952127
undo,39,3,0,0,0,14,"[0, 17, 20, 3, 19, 21, 14]",7,4,"[4, 8, 10, 24]",88.20122806,10454,867,2,2,9,1.6456130302761207
undo,39,3,0,0,0,24,"[0, 17, 20, 3, 19, 21, 14, 24]",8,1,[8],17.08864127,11422,968,1,0,9,4.806859660680286
undo,39,3,0,0,1,8,"[0, 17, 20, 3, 19, 21, 14, 24, 8]",9,0,[],4.923116212,12126,704,1,0,9,4.915218144486606
undo,39,3,0,1,1,8,"[0, 17, 20, 3, 19, 21, 14, 24, 8]",9,0,[],4.923116212,14897,2771,1,0,9,4.915218144486606
undo,40,24,0,0,0,0,[0],1,29,"[1, 2, 3, 4, 5, 6, 7, 8, 9, 10, 11, 12, 13, 14, 15, 16, 17, 18, 19, 20, 21, 22, 23, 24, 25, 26, 27, 28, 29]",300,97,-1,4,76,10,0.0
undo,40,24,0,0,0,14,"[0, 14]",2,27,"[1, 2, 3, 4, 5, 6, 8, 9, 10, 11, 12, 13, 15, 16, 17, 18, 19, 20, 21, 22, 23, 24, 25, 26, 27, 28, 29]",278.0455016,3537,3440,4,54,10,1.0
undo,40,24,0,0,0,16,"[0, 14, 16]",3,25,"[2, 3, 4, 5, 6, 8, 9, 10, 11, 12, 13, 15, 17, 18, 19, 20, 21, 22, 23, 24, 25, 26, 27, 28, 29]",188.9949542,5746,2209,4,31,10,1.238291113657358
undo,40,24,0,0,0,22,"[0, 14, 16, 22]",4,20,"[2, 3, 4, 6, 8, 9, 10, 11, 13, 15, 17, 20, 21, 23, 24, 25, 26, 27, 28, 29]",170.9671978,7393,1647,2,14,10,1.2244494133788653
undo,40,24,0,0,0,15,"[0, 14, 16, 22, 15]",5,17,"[3, 4, 6, 8, 9, 10, 11, 13, 17, 21, 23, 24, 25, 26, 27, 28, 29]",149.7539943,8793,1400,4,24,9,1.2560250275605345
undo,40,24,0,0,0,28,"[0, 14, 16, 22, 15, 28]",6,9,"[3, 4, 8, 9, 11, 13, 23, 26, 27]",104.4770687,9977,1184,3,6,9,1.1876953099279792
undo,40,24,0,0,0,23,"[0, 14, 16, 22, 15, 28, 23]",7,4,"[8, 9, 11, 27]",85.45077106,10776,799,3,2,9,1.2177527140541342
undo,40,24,0,0,0,11,"[0, 14, 16, 22, 15, 28, 23, 11]",8,2,"[9, 27]",58.52494703,11686,910,2,0,9,1.202187001529758
undo,40,24,0,0,1,27,"[0, 14, 16, 22, 15, 28, 23, 11, 27]",9,0,[],30.72206948,13777,2091,1,0,9,1.1789928059667312
undo,40,24,1,0,0,11,"[0, 14, 16, 22, 15, 28, 23, 11]",8,2,"[9, 27]",58.52494703,16647,2870,2,0,9,1.202187001529758
undo,40,24,1,0,0,23,"[0, 14, 16, 22, 15, 28, 23]",7,4,"[8, 9, 11, 27]",85.45077106,16830,183,3,2,9,1.2177527140541342
undo,40,24,1,0,0,28,"[0, 14, 16, 22, 15, 28]",6,9,"[3, 4, 8, 9, 11, 13, 23, 26, 27]",104.4770687,17030,200,3,6,9,1.1876953099279792
undo,40,24,1,0,0,15,"[0, 14, 16, 22, 15]",5,17,"[3, 4, 6, 8, 9, 10, 11, 13, 17, 21, 23, 24, 25, 26, 27, 28, 29]",149.7539943,17230,200,4,24,9,1.2560250275605345
undo,40,24,1,0,0,22,"[0, 14, 16, 22]",4,20,"[2, 3, 4, 6, 8, 9, 10, 11, 13, 15, 17, 20, 21, 23, 24, 25, 26, 27, 28, 29]",170.9671978,17447,217,2,14,10,1.2244494133788653
undo,40,24,1,0,0,16,"[0, 14, 16]",3,25,"[2, 3, 4, 5, 6, 8, 9, 10, 11, 12, 13, 15, 17, 18, 19, 20, 21, 22, 23, 24, 25, 26, 27, 28, 29]",188.9949542,17713,266,4,31,10,1.238291113657358
undo,40,24,0,0,0,8,"[0, 14, 16, 8]",4,17,"[2, 3, 4, 6, 9, 10, 11, 13, 15, 20, 22, 23, 24, 26, 27, 28, 29]",159.9949542,20520,2807,2,13,10,1.2714603293172921
undo,40,24,0,0,0,22,"[0, 14, 16, 8, 22]",5,13,"[3, 4, 6, 9, 10, 11, 15, 23, 24, 26, 27, 28, 29]",146.5785463,21505,985,2,10,10,1.4558841300797367
undo,40,24,0,0,0,15,"[0, 14, 16, 8, 22, 15]",6,11,"[3, 4, 6, 9, 10, 11, 23, 26, 27, 28, 29]",125.3653429,22153,648,2,8,10,1.459909027032803
undo,40,24,0,0,0,28,"[0, 14, 16, 8, 22, 15, 28]",7,5,"[4, 9, 11, 23, 27]",80.08841717,23152,999,2,5,10,1.3358430839259279
undo,40,24,0,0,0,23,"[0, 14, 16, 8, 22, 15, 28, 23]",8,3,"[9, 11, 27]",61.06211957,24690,1538,2,2,10,1.3561794364003306
undo,40,24,0,0,0,11,"[0, 14, 16, 8, 22, 15, 28, 23, 11]",9,2,"[9, 27]",34.13629554,25313,623,2,0,10,1.323606251450204
undo,40,24,0,0,1,27,"[0, 14, 16, 8, 22, 15, 28, 23, 11, 27]",10,0,[],6.33341799,26009,696,1,0,10,1.2857748381905127
undo,40,24,0,1,1,27,"[0, 14, 16, 8, 22, 15, 28, 23, 11, 27]",10,0,[],6.33341799,28763,2754,1,0,10,1.2857748381905127
undo,41,19,0,0,0,0,[0],1,29,"[1, 2, 3, 4, 5, 6, 7, 8, 9, 10, 11, 12, 13, 14, 15, 16, 17, 18, 19, 20, 21, 22, 23, 24, 25, 26, 27, 28, 29]",300,94,-1,12,149,8,0.0
undo,41,19,0,0,0,29,"[0, 29]",2,28,"[1, 2, 3, 4, 5, 6, 7, 8, 9, 10, 11, 12, 13, 14, 15, 16, 17, 18, 19, 20, 21, 22, 23, 24, 25, 26, 27, 28]",265.0715016,3191,3097,12,120,8,1.0
undo,41,19,0,0,0,9,"[0, 29, 9]",3,17,"[1, 4, 5, 6, 7, 10, 11, 12, 13, 14, 19, 20, 21, 22, 24, 27, 28]",181.7108394,4343,1152,11,65,8,1.0375842971861238
undo,41,19,0,0,0,6,"[0, 29, 9, 6]",4,12,"[4, 7, 10, 11, 13, 14, 20, 21, 22, 24, 27, 28]",140.2741407,7817,3474,11,34,8,1.0389786364356892
undo,41,19,0,0,0,10,"[0, 29, 9, 6, 10]",5,6,"[7, 11, 14, 20, 21, 22]",88.12052147,8705,888,2,4,7,1.155862919557741
undo,41,19,1,0,0,6,"[0, 29, 9, 6]",4,12,"[4, 7, 10, 11, 13, 14, 20, 21, 22, 24, 27, 28]",140.2741407,15744,7039,11,34,8,1.0389786364356892
undo,41,19,1,0,0,9,"[0, 29, 9]",3,17,"[1, 4, 5, 6, 7, 10, 11, 12, 13, 14, 19, 20, 21, 22, 24, 27, 28]",181.7108394,16027,283,11,65,8,1.0375842971861238
undo,41,19,0,0,0,6,"[0, 29, 9, 6]",4,12,"[4, 7, 10, 11, 13, 14, 20, 21, 22, 24, 27, 28]",140.2741407,19735,3708,11,34,8,1.0389786364356892
undo,41,19,0,0,0,14,"[0, 29, 9, 6, 14]",5,7,"[4, 10, 11, 20, 22, 24, 28]",80.59164747,20751,1016,3,6,8,1.0491884155331486
undo,41,19,0,0,0,11,"[0, 29, 9, 6, 14, 11]",6,5,"[4, 20, 22, 24, 28]",69.77499364,21784,1033,3,2,8,1.050030420094996
undo,41,19,0,0,0,22,"[0, 29, 9, 6, 14, 11, 22]",7,1,[20],21.77499364,26367,4583,1,0,8,1.30599041972075
undo,41,19,0,0,1,20,"[0, 29, 9, 6, 14, 11, 22, 20]",8,0,[],8.622047201,27433,1066,1,0,8,1.2888288530741239
undo,41,19,0,1,1,20,"[0, 29, 9, 6, 14, 11, 22, 20]",8,0,[],8.622047201,31944,4511,1,0,8,1.2888288530741239
undo,42,20,0,0,0,0,[0],1,21,"[1, 2, 3, 4, 5, 6, 7, 8, 9, 12, 17, 18, 20, 21, 22, 23, 25, 26, 27, 28, 29]",300,98,-1,1,9,9,0.0
undo,42,20,0,0,0,12,"[0, 12]",2,20,"[1, 2, 3, 4, 5, 6, 7, 8, 9, 17, 18, 20, 21, 22, 23, 25, 26, 27, 28, 29]",271.5570747,10639,10541,1,8,9,1.0
undo,42,20,0,0,0,5,"[0, 12, 5]",3,13,"[1, 3, 4, 6, 8, 9, 20, 21, 23, 26, 27, 28, 29]",171.4321527,12890,2251,2,19,8,1.0232843285905395
undo,42,20,0,0,0,21,"[0, 12, 5, 21]",4,10,"[1, 4, 6, 8, 9, 20, 23, 26, 27, 28]",126.4321527,14839,1949,2,12,8,1.017525191374897
undo,42,20,0,0,0,8,"[0, 12, 5, 21, 8]",5,6,"[1, 6, 9, 23, 27, 28]",108.9679035,16228,1389,2,6,8,1.0391698601004782
undo,42,20,0,0,0,23,"[0, 12, 5, 21, 8, 23]",6,3,"[6, 9, 27]",64.28009758,17450,1222,2,1,8,1.0348450868606567
undo,42,20,0,0,0,9,"[0, 12, 5, 21, 8, 23, 9]",7,1,[6],45.07072487,18065,615,1,0,8,1.0335348098288684
undo,42,20,0,0,1,6,"[0, 12, 5, 21, 8, 23, 9, 6]",8,0,[],22.048996,19545,1480,1,0,8,1.0486850646228845
undo,42,20,0,1,1,6,"[0, 12, 5, 21, 8, 23, 9, 6]",8,0,[],22.048996,30949,11404,1,0,8,1.0486850646228845
undo,43,35,0,0,0,0,[0],1,29,"[1, 2, 3, 4, 5, 6, 7, 8, 9, 10, 11, 12, 13, 14, 15, 16, 17, 18, 19, 20, 21, 22, 23, 24, 25, 26, 27, 28, 29]",300,111,-1,5,236,11,0.0
undo,43,35,0,0,0,27,"[0, 27]",2,27,"[1, 2, 4, 5, 6, 7, 8, 9, 10, 11, 12, 13, 14, 15, 16, 17, 18, 19, 20, 21, 22, 23, 24, 25, 26, 28, 29]",278.7867966,7928,7817,5,144,11,1.0
undo,43,35,0,0,0,24,"[0, 27, 24]",3,25,"[1, 2, 4, 5, 6, 7, 8, 9, 10, 11, 12, 13, 15, 16, 17, 18, 19, 20, 21, 22, 23, 25, 26, 28, 29]",234.6053525,8903,975,3,80,11,2.1084080567904624
undo,43,35,0,0,0,17,"[0, 27, 24, 17]",4,20,"[1, 2, 4, 5, 6, 7, 8, 9, 10, 15, 16, 18, 19, 20, 21, 23, 25, 26, 28, 29]",222.9006526,9569,666,3,50,11,1.9439555968916868
undo,43,35,0,0,0,1,"[0, 27, 24, 17, 1]",5,18,"[2, 4, 5, 6, 8, 9, 10, 15, 16, 18, 19, 20, 21, 23, 25, 26, 28, 29]",207.0892643,10351,782,3,39,11,1.9436711872547336
undo,43,35,0,0,0,15,"[0, 27, 24, 17, 1, 15]",6,16,"[2, 4, 5, 6, 8, 9, 10, 16, 18, 19, 20, 23, 25, 26, 28, 29]",184.241945,12007,1656,3,24,11,2.082774572108194
undo,43,35,0,0,0,23,"[0, 27, 24, 17, 1, 15, 23]",7,7,"[5, 6, 9, 18, 19, 25, 26]",123.801892,14312,2305,3,14,11,1.657239080954205
undo,43,35,0,0,0,9,"[0, 27, 24, 17, 1, 15, 23, 9]",8,4,"[6, 18, 19, 25]",86.15883157,15127,815,2,2,11,1.9022575917054987
undo,43,35,0,0,0,18,"[0, 27, 24, 17, 1, 15, 23, 9, 18]",9,2,"[6, 25]",66.13384718,15896,769,2,0,11,1.8181129550839106
undo,43,35,0,0,0,25,"[0, 27, 24, 17, 1, 15, 23, 9, 18, 25]",10,1,[6],32.29599855,16519,623,1,0,11,1.6530923432245144
undo,43,35,0,0,1,6,"[0, 27, 24, 17, 1, 15, 23, 9, 18, 25, 6]",11,0,[],8.275174247,17485,966,1,0,11,1.9291202388527962
undo,43,35,0,1,1,6,"[0, 27, 24, 17, 1, 15, 23, 9, 18, 25, 6]",11,0,[],8.275174247,20212,2727,1,0,11,1.9291202388527962
undo,44,34,0,0,0,0,[0],1,25,"[1, 3, 4, 5, 6, 7, 8, 9, 10, 11, 12, 13, 15, 18, 19, 20, 21, 22, 23, 24, 25, 26, 27, 28, 29]",300,95,-1,12,367,10,0.0
undo,44,34,0,0,0,13,"[0, 13]",2,24,"[1, 3, 4, 5, 6, 7, 8, 9, 10, 11, 12, 15, 18, 19, 20, 21, 22, 23, 24, 25, 26, 27, 28, 29]",279.9750156,5635,5540,12,331,10,1.0
undo,44,34,0,0,0,1,"[0, 13, 1]",3,16,"[3, 5, 7, 8, 9, 10, 11, 12, 19, 21, 22, 23, 24, 25, 27, 29]",211.8574701,6653,1018,3,92,10,1.0010381285747127
undo,44,34,0,0,0,8,"[0, 13, 1, 8]",4,14,"[3, 5, 7, 9, 10, 11, 12, 19, 22, 23, 24, 25, 27, 29]",201.0871405,7334,681,2,54,10,1.1636807
undo,44,34,0,0,0,25,"[0, 13, 1, 8, 25]",5,12,"[3, 5, 7, 9, 10, 11, 12, 22, 23, 24, 27, 29]",183.999133,8023,689,2,28,10,1.1396208815936457
undo,44,34,0,0,0,24,"[0, 13, 1, 8, 25, 24]",6,11,"[3, 5, 7, 9, 10, 11, 12, 22, 23, 27, 29]",166.5062774,8926,903,2,23,10,1.374180768736554
undo,44,34,0,0,0,12,"[0, 13, 1, 8, 25, 24, 12]",7,7,"[7, 9, 10, 11, 22, 23, 27]",115.4670767,16018,7092,1,8,10,1.4994254760835948
undo,44,34,0,0,0,7,"[0, 13, 1, 8, 25, 24, 12, 7]",8,5,"[9, 11, 22, 23, 27]",100.4337804,16877,859,1,4,10,1.758992610425009
undo,44,34,0,0,0,23,"[0, 13, 1, 8, 25, 24, 12, 7, 23]",9,1,[27],72.27352467,18078,1201,1,0,10,2.399781305190153
undo,44,34,0,0,1,27,"[0, 13, 1, 8, 25, 24, 12, 7, 23, 27]",10,0,[],18.60789321,19127,1049,1,0,10,4.766619878750327
undo,44,34,0,1,1,27,"[0, 13, 1, 8, 25, 24, 12, 7, 23, 27]",10,0,[],18.60789321,21779,2652,1,0,10,4.766619878750327
undo,45,4,0,0,0,0,[0],1,26,"[3, 4, 5, 6, 7, 8, 10, 11, 12, 13, 14, 15, 16, 17, 18, 19, 20, 21, 22, 23, 24, 25, 26, 27, 28, 29]",300,96,-1,4,489,10,0.0
undo,45,4,0,0,0,13,"[0, 13]",2,23,"[3, 4, 5, 6, 7, 10, 11, 12, 14, 15, 16, 17, 19, 20, 21, 22, 23, 24, 25, 26, 27, 28, 29]",232.1030192,5502,5406,2,270,10,1.0
undo,45,4,0,0,0,21,"[0, 13, 21]",3,15,"[3, 4, 5, 6, 11, 12, 14, 16, 17, 20, 22, 24, 25, 26, 28]",151.3255471,6326,824,5,109,9,1.0059127769187233
undo,45,4,0,0,0,22,"[0, 13, 21, 22]",4,13,"[3, 4, 5, 11, 12, 14, 16, 17, 20, 24, 25, 26, 28]",140.2801861,6990,664,5,77,9,1.0066796920537646
undo,45,4,0,0,0,20,"[0, 13, 21, 22, 20]",5,9,"[3, 5, 11, 12, 14, 16, 17, 24, 25]",110.0477532,8652,1662,4,19,9,1.0395436473615611
undo,45,4,0,0,0,16,"[0, 13, 21, 22, 20, 16]",6,5,"[3, 11, 14, 17, 25]",54.316254,12502,3850,1,5,9,1.78233032479814
undo,45,4,0,0,0,11,"[0, 13, 21, 22, 20, 16, 11]",7,2,"[14, 25]",39.316254,13270,768,1,1,9,2.1215547438071196
undo,45,4,0,0,0,25,"[0, 13, 21, 22, 20, 16, 11, 25]",8,1,[14],20.52795977,14240,970,1,0,9,2.2038490232773618
undo,45,4,0,0,1,14,"[0, 13, 21, 22, 20, 16, 11, 25, 14]",9,0,[],4.403444276,15007,767,1,0,9,2.1645698000324196
undo,45,4,0,1,1,14,"[0, 13, 21, 22, 20, 16, 11, 25, 14]",9,0,[],4.403444276,23278,8271,1,0,9,2.1645698000324196
undo,46,31,0,0,0,0,[0],1,27,"[1, 3, 4, 5, 6, 7, 8, 10, 11, 12, 13, 14, 15, 16, 17, 18, 19, 20, 21, 22, 23, 24, 25, 26, 27, 28, 29]",300,115,-1,2,87,10,0.0
undo,46,31,0,0,0,14,"[0, 14]",2,25,"[1, 3, 5, 6, 7, 8, 10, 11, 12, 13, 15, 16, 17, 18, 19, 20, 21, 22, 23, 24, 25, 26, 27, 28, 29]",263.861378,6970,6855,2,59,10,1.0
undo,46,31,0,0,0,27,"[0, 14, 27]",3,22,"[1, 3, 5, 6, 7, 8, 10, 11, 12, 13, 15, 16, 17, 18, 19, 20, 21, 22, 24, 25, 28, 29]",235.6833724,7913,943,1,39,10,1.5881859159302467
undo,46,31,0,0,0,8,"[0, 14, 27, 8]",4,20,"[1, 3, 5, 6, 7, 10, 11, 12, 13, 16, 17, 18, 19, 20, 21, 22, 24, 25, 28, 29]",224.6380114,8638,725,1,36,10,2.1665048452331277
undo,46,31,0,0,0,18,"[0, 14, 27, 8, 18]",5,15,"[1, 5, 6, 7, 11, 12, 13, 16, 17, 19, 20, 22, 25, 28, 29]",188.7911147,9905,1267,1,26,10,1.7273375741920205
undo,46,31,0,0,0,17,"[0, 14, 27, 8, 18, 17]",6,13,"[1, 5, 6, 7, 11, 12, 13, 16, 19, 20, 22, 25, 28]",159.584951,12296,2391,1,13,10,1.551192427769927
undo,46,31,0,0,0,11,"[0, 14, 27, 8, 18, 17, 11]",7,7,"[5, 12, 16, 19, 22, 25, 28]",118.4753414,13210,914,1,4,10,2.9650760544203494
undo,46,31,0,0,0,5,"[0, 14, 27, 8, 18, 17, 11, 5]",8,2,"[16, 28]",74.79468207,13825,615,1,1,10,2.56711965625205
undo,46,31,0,0,0,28,"[0, 14, 27, 8, 18, 17, 11, 5, 28]",9,1,[16],54.57093365,14713,888,1,0,10,2.2865510762058148
undo,46,31,0,0,1,16,"[0, 14, 27, 8, 18, 17, 11, 5, 28, 16]",10,0,[],20.95546102,15961,1248,1,0,10,2.089356850786318
undo,46,31,0,1,1,16,"[0, 14, 27, 8, 18, 17, 11, 5, 28, 16]",10,0,[],20.95546102,20548,4587,1,0,10,2.089356850786318
undo,47,45,0,0,0,0,[0],1,24,"[1, 2, 3, 4, 5, 6, 7, 9, 10, 11, 12, 14, 15, 16, 17, 19, 20, 21, 22, 23, 24, 25, 27, 29]",300,97,-1,6,248,10,0.0
undo,47,45,0,0,0,20,"[0, 20]",2,22,"[1, 2, 3, 4, 5, 6, 7, 9, 10, 11, 12, 14, 15, 16, 17, 19, 21, 22, 23, 24, 25, 29]",207.8642306,9820,9723,1,73,9,1.0
undo,47,45,0,0,0,2,"[0, 20, 2]",3,14,"[3, 4, 6, 7, 10, 12, 14, 16, 17, 19, 22, 23, 24, 29]",128.8072891,10870,1050,2,38,8,1.021377319111785
undo,47,45,0,0,0,3,"[0, 20, 2, 3]",4,9,"[6, 7, 10, 12, 14, 16, 22, 24, 29]",103.4893113,11594,724,2,17,8,1.0954515086816259
undo,47,45,0,0,0,29,"[0, 20, 2, 3, 29]",5,6,"[6, 7, 10, 12, 22, 24]",83.48931131,12177,583,2,6,8,1.3442942950760524
undo,47,45,0,0,0,10,"[0, 20, 2, 3, 29, 10]",6,3,"[6, 7, 12]",61.94865208,13145,968,1,2,8,1.617788096925291
undo,47,45,0,0,0,6,"[0, 20, 2, 3, 29, 10, 6]",7,1,[12],35.69984258,14037,892,1,0,8,1.5345295130109404
undo,47,45,0,0,1,12,"[0, 20, 2, 3, 29, 10, 6, 12]",8,0,[],15.57523079,14688,651,1,0,8,1.4969724695263158
undo,47,45,1,0,0,6,"[0, 20, 2, 3, 29, 10, 6]",7,1,[12],35.69984258,16980,2292,1,0,8,1.5345295130109404
undo,47,45,1,0,0,10,"[0, 20, 2, 3, 29, 10]",6,3,"[6, 7, 12]",61.94865208,17197,217,1,2,8,1.617788096925291
undo,47,45,1,0,0,29,"[0, 20, 2, 3, 29]",5,6,"[6, 7, 10, 12, 22, 24]",83.48931131,17380,183,2,6,8,1.3442942950760524
undo,47,45,1,0,0,3,"[0, 20, 2, 3]",4,9,"[6, 7, 10, 12, 14, 16, 22, 24, 29]",103.4893113,17580,200,2,17,8,1.0954515086816259
undo,47,45,1,0,0,2,"[0, 20, 2]",3,14,"[3, 4, 6, 7, 10, 12, 14, 16, 17, 19, 22, 23, 24, 29]",128.8072891,17847,267,2,38,8,1.021377319111785
undo,47,45,1,0,0,20,"[0, 20]",2,22,"[1, 2, 3, 4, 5, 6, 7, 9, 10, 11, 12, 14, 15, 16, 17, 19, 21, 22, 23, 24, 25, 29]",207.8642306,18130,283,1,73,9,1.0
undo,47,45,1,0,0,0,[0],1,24,"[1, 2, 3, 4, 5, 6, 7, 9, 10, 11, 12, 14, 15, 16, 17, 19, 20, 21, 22, 23, 24, 25, 27, 29]",300,18798,668,6,248,10,0.0
undo,47,45,0,0,0,17,"[0, 17]",2,22,"[1, 2, 3, 4, 5, 6, 7, 9, 10, 11, 12, 14, 15, 16, 19, 20, 21, 22, 23, 24, 25, 29]",235.867325,19713,915,1,34,10,1.0
undo,47,45,0,0,0,24,"[0, 17, 24]",3,20,"[1, 2, 3, 4, 5, 6, 7, 9, 10, 11, 12, 14, 15, 16, 19, 20, 21, 22, 23, 29]",193.8078433,20529,816,1,33,10,1.0309432256229287
undo,47,45,0,0,0,7,"[0, 17, 24, 7]",4,18,"[1, 2, 3, 4, 5, 6, 9, 10, 12, 14, 15, 16, 19, 20, 21, 22, 23, 29]",159.3985423,21688,1159,1,32,10,1.059763151913087
undo,47,45,0,0,0,2,"[0, 17, 24, 7, 2]",5,12,"[3, 4, 6, 10, 12, 14, 16, 19, 20, 22, 23, 29]",121.3853866,22585,897,1,23,10,1.0656581932115423
undo,47,45,0,0,0,3,"[0, 17, 24, 7, 2, 3]",6,8,"[6, 10, 12, 14, 16, 20, 22, 29]",96.06740884,24587,2002,1,13,10,1.1368250049574795
undo,47,45,0,0,0,29,"[0, 17, 24, 7, 2, 3, 29]",7,5,"[6, 10, 12, 20, 22]",76.06740884,25537,950,1,5,10,1.390376182346372
undo,47,45,0,0,0,10,"[0, 17, 24, 7, 2, 3, 29, 10]",8,2,"[6, 12]",54.52674961,26651,1114,1,1,10,1.6682270697663164
undo,47,45,0,0,0,6,"[0, 17, 24, 7, 2, 3, 29, 10, 6]",9,1,[12],28.27794012,27642,991,1,0,10,1.5776211572942243
undo,47,45,0,0,1,12,"[0, 17, 24, 7, 2, 3, 29, 10, 6, 12]",10,0,[],8.15332832,28769,1127,1,0,10,1.536035114105263
undo,47,45,0,1,1,12,"[0, 17, 24, 7, 2, 3, 29, 10, 6, 12]",10,0,[],8.15332832,35096,6327,1,0,10,1.536035114105263
undo,48,17,0,0,0,0,[0],1,28,"[1, 2, 3, 4, 5, 6, 7, 8, 9, 10, 11, 12, 13, 14, 15, 16, 17, 18, 19, 20, 22, 23, 24, 25, 26, 27, 28, 29]",300,92,-1,2,73,8,0.0
undo,48,17,0,0,0,9,"[0, 9]",2,25,"[1, 2, 3, 5, 6, 7, 8, 10, 11, 12, 14, 15, 16, 17, 18, 19, 20, 22, 23, 24, 25, 26, 27, 28, 29]",210.5293344,5414,5322,1,34,8,1.0
undo,48,17,0,0,0,16,"[0, 9, 16]",3,21,"[1, 2, 3, 5, 7, 8, 10, 11, 12, 14, 17, 18, 19, 20, 22, 23, 25, 26, 27, 28, 29]",197.1876704,6503,1089,1,26,8,1.173103464220352
undo,48,17,0,0,0,2,"[0, 9, 16, 2]",4,18,"[1, 3, 5, 7, 8, 10, 11, 12, 14, 17, 18, 19, 23, 25, 26, 27, 28, 29]",181.0631549,7831,1328,1,23,8,1.14825089247282
undo,48,17,0,0,0,17,"[0, 9, 16, 2, 17]",5,7,"[7, 8, 12, 14, 26, 27, 29]",142.7356191,11897,4066,4,5,7,1.4896040699768547
undo,48,17,0,0,0,8,"[0, 9, 16, 2, 17, 8]",6,3,"[7, 12, 27]",104.5256727,13086,1189,3,0,7,1.4604726966175894
undo,48,17,0,0,1,27,"[0, 9, 16, 2, 17, 8, 27]",7,0,[],21.88790895,15721,2635,1,0,7,1.2949460667276491
undo,48,17,1,0,0,8,"[0, 9, 16, 2, 17, 8]",6,3,"[7, 12, 27]",104.5256727,19508,3787,3,0,7,1.4604726966175894
undo,48,17,1,0,0,17,"[0, 9, 16, 2, 17]",5,7,"[7, 8, 12, 14, 26, 27, 29]",142.7356191,19692,184,4,5,7,1.4896040699768547
undo,48,17,1,0,0,2,"[0, 9, 16, 2]",4,18,"[1, 3, 5, 7, 8, 10, 11, 12, 14, 17, 18, 19, 23, 25, 26, 27, 28, 29]",181.0631549,19841,149,1,23,8,1.14825089247282
undo,48,17,1,0,0,16,"[0, 9, 16]",3,21,"[1, 2, 3, 5, 7, 8, 10, 11, 12, 14, 17, 18, 19, 20, 22, 23, 25, 26, 27, 28, 29]",197.1876704,20008,167,1,26,8,1.173103464220352
undo,48,17,1,0,0,9,"[0, 9]",2,25,"[1, 2, 3, 5, 6, 7, 8, 10, 11, 12, 14, 15, 16, 17, 18, 19, 20, 22, 23, 24, 25, 26, 27, 28, 29]",210.5293344,20124,116,1,34,8,1.0
undo,48,17,1,0,0,0,[0],1,28,"[1, 2, 3, 4, 5, 6, 7, 8, 9, 10, 11, 12, 13, 14, 15, 16, 17, 18, 19, 20, 22, 23, 24, 25, 26, 27, 28, 29]",300,21625,1501,2,73,8,0.0
undo,48,17,0,0,0,9,"[0, 9]",2,25,"[1, 2, 3, 5, 6, 7, 8, 10, 11, 12, 14, 15, 16, 17, 18, 19, 20, 22, 23, 24, 25, 26, 27, 28, 29]",210.5293344,31547,9922,1,34,8,1.0
undo,48,17,0,0,0,16,"[0, 9, 16]",3,21,"[1, 2, 3, 5, 7, 8, 10, 11, 12, 14, 17, 18, 19, 20, 22, 23, 25, 26, 27, 28, 29]",197.1876704,32434,887,1,26,8,1.173103464220352
undo,48,17,0,0,0,2,"[0, 9, 16, 2]",4,18,"[1, 3, 5, 7, 8, 10, 11, 12, 14, 17, 18, 19, 23, 25, 26, 27, 28, 29]",181.0631549,34904,2470,1,23,8,1.14825089247282
undo,48,17,0,0,0,8,"[0, 9, 16, 2, 8]",5,9,"[3, 7, 10, 11, 12, 14, 17, 26, 27]",145.9490551,37499,2595,1,9,8,1.1509808066472915
undo,48,17,0,0,0,27,"[0, 9, 16, 2, 8, 27]",6,3,"[7, 12, 26]",63.31129136,38553,1054,1,2,8,1.1020704318716983
undo,48,17,0,0,0,12,"[0, 9, 16, 2, 8, 27, 12]",7,1,[26],40.31129136,39207,654,1,0,8,1.094321365620665
undo,48,17,0,0,1,26,"[0, 9, 16, 2, 8, 27, 12, 26]",8,0,[],5.197191627,40136,929,1,0,8,1.2018360298670372
undo,48,17,0,1,1,26,"[0, 9, 16, 2, 8, 27, 12, 26]",8,0,[],5.197191627,46408,6272,1,0,8,1.2018360298670372
undo,49,27,0,0,0,0,[0],1,26,"[1, 3, 5, 6, 7, 8, 9, 10, 11, 12, 13, 14, 15, 16, 17, 18, 19, 21, 22, 23, 24, 25, 26, 27, 28, 29]",300,108,-1,13,578,11,0.0
undo,49,27,0,0,0,15,"[0, 15]",2,24,"[1, 3, 5, 6, 7, 8, 9, 10, 11, 12, 13, 14, 16, 17, 18, 19, 21, 22, 23, 24, 25, 26, 27, 29]",263.7508621,4682,4574,6,219,11,1.0
undo,49,27,0,0,0,24,"[0, 15, 24]",3,20,"[1, 5, 6, 7, 8, 9, 10, 12, 13, 14, 16, 17, 18, 19, 21, 23, 25, 26, 27, 29]",246.5462115,5630,948,6,130,11,1.130933077698322
undo,49,27,0,0,0,17,"[0, 15, 24, 17]",4,15,"[1, 6, 8, 10, 12, 13, 14, 16, 18, 19, 23, 25, 26, 27, 29]",229.9932662,6666,1036,4,60,11,1.1285538435963374
undo,49,27,0,0,0,12,"[0, 15, 24, 17, 12]",5,14,"[1, 6, 8, 10, 13, 14, 16, 18, 19, 23, 25, 26, 27, 29]",218.8129263,8097,1431,2,32,11,1.2561880288755216
undo,49,27,0,0,0,10,"[0, 15, 24, 17, 12, 10]",6,11,"[1, 8, 13, 14, 18, 19, 23, 25, 26, 27, 29]",207.7675653,9087,990,2,28,11,1.2228289337766665
undo,49,27,0,0,0,13,"[0, 15, 24, 17, 12, 10, 13]",7,9,"[1, 8, 14, 18, 19, 23, 26, 27, 29]",167.9178476,11237,2150,2,18,11,1.3421291994761178
undo,49,27,0,0,0,19,"[0, 15, 24, 17, 12, 10, 13, 19]",8,5,"[1, 8, 14, 23, 29]",131.6825057,12974,1737,2,6,11,1.294749956153846
undo,49,27,0,0,0,8,"[0, 15, 24, 17, 12, 10, 13, 19, 8]",9,3,"[14, 23, 29]",116.816437,14432,1458,2,1,11,1.3554286578836865
undo,49,27,0,0,0,29,"[0, 15, 24, 17, 12, 10, 13, 19, 8, 29]",10,1,[14],57.61339652,16365,1933,1,0,11,1.248354519573802
undo,49,27,0,0,1,14,"[0, 15, 24, 17, 12, 10, 13, 19, 8, 29, 14]",11,0,[],13.31892734,18814,2449,1,0,11,1.562811097555156
undo,49,27,0,1,1,14,"[0, 15, 24, 17, 12, 10, 13, 19, 8, 29, 14]",11,0,[],13.31892734,21008,2194,1,0,11,1.562811097555156
undo,50,18,0,0,0,0,[0],1,28,"[1, 2, 3, 4, 5, 6, 7, 8, 9, 10, 11, 12, 13, 14, 16, 17, 18, 19, 20, 21, 22, 23, 24, 25, 26, 27, 28, 29]",300,94,-1,3,136,10,0.0
undo,50,18,0,0,0,26,"[0, 26]",2,27,"[1, 2, 3, 4, 5, 6, 7, 8, 9, 10, 11, 12, 13, 14, 16, 17, 18, 19, 20, 21, 22, 23, 24, 25, 27, 28, 29]",258.0238163,8088,7994,1,61,10,1.0
undo,50,18,0,0,0,23,"[0, 26, 23]",3,24,"[1, 2, 3, 4, 5, 6, 7, 8, 9, 10, 12, 13, 14, 16, 17, 18, 19, 20, 21, 24, 25, 27, 28, 29]",239.422741,9317,1229,1,60,10,1.576763070488403
undo,50,18,0,0,0,7,"[0, 26, 23, 7]",4,11,"[1, 3, 5, 8, 9, 12, 13, 14, 16, 25, 28]",162.1440247,13558,4241,13,43,9,2.310471395424974
undo,50,18,0,0,0,25,"[0, 26, 23, 7, 25]",5,10,"[1, 3, 5, 8, 9, 12, 13, 14, 16, 28]",134.3411471,14265,707,11,16,9,2.760597491970773
undo,50,18,0,0,0,8,"[0, 26, 23, 7, 25, 8]",6,6,"[3, 5, 12, 13, 14, 28]",97.28713252,14974,709,5,4,9,2.1429810432368117
undo,50,18,0,0,0,13,"[0, 26, 23, 7, 25, 8, 13]",7,2,"[3, 14]",76.19210941,15558,584,2,0,9,2.3808002884783
undo,50,18,0,0,0,14,"[0, 26, 23, 7, 25, 8, 13, 14]",8,1,[3],57.21844345,16271,713,1,0,9,2.165535603655458
undo,50,18,0,0,1,3,"[0, 26, 23, 7, 25, 8, 13, 14, 3]",9,0,[],27.13522553,16990,719,1,0,9,2.229716041017026
undo,50,18,1,0,0,14,"[0, 26, 23, 7, 25, 8, 13, 14]",8,1,[3],57.21844345,18694,1704,1,0,9,2.165535603655458
undo,50,18,1,0,0,13,"[0, 26, 23, 7, 25, 8, 13]",7,2,"[3, 14]",76.19210941,18877,183,2,0,9,2.3808002884783
undo,50,18,1,0,0,8,"[0, 26, 23, 7, 25, 8]",6,6,"[3, 5, 12, 13, 14, 28]",97.28713252,19044,167,5,4,9,2.1429810432368117
undo,50,18,1,0,0,25,"[0, 26, 23, 7, 25]",5,10,"[1, 3, 5, 8, 9, 12, 13, 14, 16, 28]",134.3411471,19210,166,11,16,9,2.760597491970773
undo,50,18,1,0,0,7,"[0, 26, 23, 7]",4,11,"[1, 3, 5, 8, 9, 12, 13, 14, 16, 25, 28]",162.1440247,19377,167,13,43,9,2.310471395424974
undo,50,18,1,0,0,23,"[0, 26, 23]",3,24,"[1, 2, 3, 4, 5, 6, 7, 8, 9, 10, 12, 13, 14, 16, 17, 18, 19, 20, 21, 24, 25, 27, 28, 29]",239.422741,19543,166,1,60,10,1.576763070488403
undo,50,18,1,0,0,26,"[0, 26]",2,27,"[1, 2, 3, 4, 5, 6, 7, 8, 9, 10, 11, 12, 13, 14, 16, 17, 18, 19, 20, 21, 22, 23, 24, 25, 27, 28, 29]",258.0238163,19827,284,1,61,10,1.0
undo,50,18,1,0,0,0,[0],1,28,"[1, 2, 3, 4, 5, 6, 7, 8, 9, 10, 11, 12, 13, 14, 16, 17, 18, 19, 20, 21, 22, 23, 24, 25, 26, 27, 28, 29]",300,20595,768,3,136,10,0.0
undo,50,18,0,0,0,28,"[0, 28]",2,16,"[1, 3, 5, 7, 8, 9, 12, 13, 14, 16, 20, 23, 24, 25, 26, 27]",236.4311397,22766,2171,2,19,10,1.0
undo,50,18,0,0,0,7,"[0, 28, 7]",3,15,"[1, 3, 5, 8, 9, 12, 13, 14, 16, 20, 23, 24, 25, 26, 27]",214.4084242,23655,889,2,17,10,1.4345180696367563
undo,50,18,0,0,0,25,"[0, 28, 7, 25]",4,13,"[1, 3, 5, 8, 9, 12, 13, 14, 16, 20, 23, 26, 27]",186.6055466,24701,1046,2,15,10,1.8896451241781882
undo,50,18,0,0,0,8,"[0, 28, 7, 25, 8]",5,10,"[3, 5, 9, 12, 13, 14, 16, 23, 26, 27]",149.551532,25983,1282,2,10,10,1.590467437592877
undo,50,18,0,0,0,13,"[0, 28, 7, 25, 8, 13]",6,9,"[3, 5, 9, 12, 14, 16, 23, 26, 27]",128.4565089,26718,735,2,5,10,1.8248274983549797
undo,50,18,0,0,0,14,"[0, 28, 7, 25, 8, 13, 14]",7,7,"[3, 5, 9, 12, 23, 26, 27]",109.4828429,27437,719,2,3,10,1.6993534956692746
undo,50,18,0,0,0,3,"[0, 28, 7, 25, 8, 13, 14, 3]",8,3,"[5, 12, 27]",79.39962499,28502,1065,2,1,10,1.802637206541468
undo,50,18,0,0,0,5,"[0, 28, 7, 25, 8, 13, 14, 3, 5]",9,1,[12],21.21887216,29950,1448,1,0,10,1.559774889743805
undo,50,18,0,0,1,12,"[0, 28, 7, 25, 8, 13, 14, 3, 5, 12]",10,0,[],9.817117911,30558,608,1,0,10,1.563993037384447
undo,50,18,0,1,1,12,"[0, 28, 7, 25, 8, 13, 14, 3, 5, 12]",10,0,[],9.817117911,36244,5686,1,0,10,1.563993037384447
undo,51,7,0,0,0,0,[0],1,29,"[1, 2, 3, 4, 5, 6, 7, 8, 9, 10, 11, 12, 13, 14, 15, 16, 17, 18, 19, 20, 21, 22, 23, 24, 25, 26, 27, 28, 29]",300,92,-1,3,79,9,0.0
undo,51,7,0,0,0,15,"[0, 15]",2,19,"[2, 4, 5, 6, 7, 8, 9, 10, 13, 14, 16, 18, 19, 20, 21, 23, 25, 27, 28]",230.9348134,3598,3506,2,38,9,1.0
undo,51,7,0,0,0,6,"[0, 15, 6]",3,18,"[2, 4, 5, 7, 8, 9, 10, 13, 14, 16, 18, 19, 20, 21, 23, 25, 27, 28]",205.854941,4403,805,2,36,9,1.366719602896943
undo,51,7,0,0,0,25,"[0, 15, 6, 25]",4,11,"[2, 4, 7, 13, 14, 16, 18, 19, 20, 21, 23]",138.6760753,5471,1068,2,28,9,1.3624631728355765
undo,51,7,0,0,0,4,"[0, 15, 6, 25, 4]",5,7,"[2, 7, 13, 16, 18, 19, 20]",113.9374415,6538,1067,2,12,9,1.3249684384385587
undo,51,7,0,0,0,20,"[0, 15, 6, 25, 4, 20]",6,5,"[2, 7, 13, 18, 19]",94.29055881,7331,793,1,6,9,1.3721893242679268
undo,51,7,0,0,0,18,"[0, 15, 6, 25, 4, 20, 18]",7,3,"[7, 13, 19]",81.48431034,7954,623,1,2,9,1.5262542308371432
undo,51,7,0,0,0,7,"[0, 15, 6, 25, 4, 20, 18, 7]",8,1,[19],40.25325408,9032,1078,1,0,9,1.41986878673423
undo,51,7,0,0,1,19,"[0, 15, 6, 25, 4, 20, 18, 7, 19]",9,0,[],10.84237174,10914,1882,1,0,9,1.5285658163212987
undo,51,7,0,1,1,19,"[0, 15, 6, 25, 4, 20, 18, 7, 19]",9,0,[],10.84237174,19426,8512,1,0,9,1.5285658163212987
undo,52,37,0,0,0,0,[0],1,29,"[1, 2, 3, 4, 5, 6, 7, 8, 9, 10, 11, 12, 13, 14, 15, 16, 17, 18, 19, 20, 21, 22, 23, 24, 25, 26, 27, 28, 29]",300,113,-1,6,168,10,0.0
undo,52,37,0,0,0,26,"[0, 26]",2,11,"[1, 2, 4, 15, 18, 19, 20, 21, 22, 25, 29]",124.8971731,9236,9123,1,17,8,1.0
undo,52,37,1,0,0,0,[0],1,29,"[1, 2, 3, 4, 5, 6, 7, 8, 9, 10, 11, 12, 13, 14, 15, 16, 17, 18, 19, 20, 21, 22, 23, 24, 25, 26, 27, 28, 29]",300,11546,2310,6,168,10,0.0
undo,52,37,0,0,0,19,"[0, 19]",2,19,"[1, 2, 4, 5, 6, 7, 9, 10, 11, 15, 17, 18, 20, 21, 22, 25, 26, 28, 29]",185.6627795,13574,2028,25,244,9,1.0
undo,52,37,0,0,0,21,"[0, 19, 21]",3,14,"[1, 2, 4, 7, 10, 11, 15, 17, 18, 20, 22, 25, 26, 29]",144.5531699,16535,2961,10,75,9,1.001632816594558
undo,52,37,0,0,0,15,"[0, 19, 21, 15]",4,9,"[1, 2, 4, 7, 18, 20, 22, 26, 29]",129.5531699,17136,601,5,32,9,1.0243376499143988
undo,52,37,0,0,0,20,"[0, 19, 21, 15, 20]",5,8,"[1, 2, 4, 7, 18, 22, 26, 29]",112.5531699,18085,949,5,14,9,1.250507291508492
undo,52,37,0,0,0,1,"[0, 19, 21, 15, 20, 1]",6,6,"[2, 4, 7, 18, 22, 26]",78.31868434,19286,1201,4,4,9,1.4002166443864243
undo,52,37,0,0,0,2,"[0, 19, 21, 15, 20, 1, 2]",7,4,"[4, 7, 18, 22]",61.11403381,20851,1565,2,2,9,1.5802253600182588
undo,52,37,0,0,0,4,"[0, 19, 21, 15, 20, 1, 2, 4]",8,1,[22],49.71227956,21444,593,1,0,9,1.5399187067712754
undo,52,37,0,0,1,22,"[0, 19, 21, 15, 20, 1, 2, 4, 22]",9,0,[],24.71227956,22519,1075,1,0,9,1.6903775033413582
undo,52,37,0,1,1,22,"[0, 19, 21, 15, 20, 1, 2, 4, 22]",9,0,[],24.71227956,447728,425209,1,0,9,1.6903775033413582
undo,53,1,0,0,0,0,[0],1,26,"[1, 2, 4, 5, 7, 8, 9, 10, 11, 12, 13, 14, 15, 16, 17, 18, 19, 20, 21, 22, 23, 24, 25, 26, 28, 29]",300,95,-1,6,74,7,0.0
undo,53,1,0,0,0,8,"[0, 8]",2,23,"[1, 4, 5, 7, 9, 10, 11, 12, 13, 14, 15, 16, 17, 18, 19, 20, 21, 23, 24, 25, 26, 28, 29]",202,9353,9258,1,16,7,1.0
undo,53,1,0,0,0,20,"[0, 8, 20]",3,12,"[1, 4, 5, 11, 13, 14, 15, 17, 18, 19, 28, 29]",125.9408125,10901,1548,1,7,7,1.02364736730791
undo,53,1,0,0,0,5,"[0, 8, 20, 5]",4,7,"[1, 4, 11, 13, 17, 18, 29]",104.469902,12036,1135,1,3,7,1.0439599203945713
undo,53,1,0,0,0,18,"[0, 8, 20, 5, 18]",5,2,"[4, 29]",81.64447755,13222,1186,1,1,7,1.0840407791793756
undo,53,1,0,0,0,4,"[0, 8, 20, 5, 18, 4]",6,1,[29],42.69579336,13941,719,1,0,7,1.0902329133216275
undo,53,1,0,0,1,29,"[0, 8, 20, 5, 18, 4, 29]",7,0,[],6.640280603,14950,1009,1,0,7,1.2859729622882756
undo,53,1,1,0,0,4,"[0, 8, 20, 5, 18, 4]",6,1,[29],42.69579336,16928,1978,1,0,7,1.0902329133216275
undo,53,1,1,0,0,18,"[0, 8, 20, 5, 18]",5,2,"[4, 29]",81.64447755,17061,133,1,1,7,1.0840407791793756
undo,53,1,1,0,0,5,"[0, 8, 20, 5]",4,7,"[1, 4, 11, 13, 17, 18, 29]",104.469902,17194,133,1,3,7,1.0439599203945713
undo,53,1,1,0,0,20,"[0, 8, 20]",3,12,"[1, 4, 5, 11, 13, 14, 15, 17, 18, 19, 28, 29]",125.9408125,17328,134,1,7,7,1.02364736730791
undo,53,1,1,0,0,8,"[0, 8]",2,23,"[1, 4, 5, 7, 9, 10, 11, 12, 13, 14, 15, 16, 17, 18, 19, 20, 21, 23, 24, 25, 26, 28, 29]",202,17461,133,1,16,7,1.0
undo,53,1,1,0,0,0,[0],1,26,"[1, 2, 4, 5, 7, 8, 9, 10, 11, 12, 13, 14, 15, 16, 17, 18, 19, 20, 21, 22, 23, 24, 25, 26, 28, 29]",300,17594,133,6,74,7,0.0
undo,53,1,0,0,0,14,"[0, 14]",2,19,"[1, 4, 5, 8, 9, 13, 15, 17, 18, 19, 20, 21, 22, 23, 24, 25, 26, 28, 29]",200.1901808,20268,2674,5,42,7,1.0
undo,53,1,0,0,0,17,"[0, 14, 17]",3,15,"[1, 4, 5, 8, 9, 13, 15, 18, 19, 20, 22, 23, 25, 28, 29]",147.8356204,21772,1504,5,27,7,1.0028844724416826
undo,53,1,0,0,0,1,"[0, 14, 17, 1]",4,12,"[4, 5, 8, 9, 15, 18, 20, 22, 23, 25, 28, 29]",123.4840291,22716,944,5,15,7,1.0264985578353567
undo,53,1,0,0,0,28,"[0, 14, 17, 1, 28]",5,5,"[9, 15, 22, 23, 29]",88.59850198,23767,1051,5,3,7,1.0339861575999345
undo,53,1,0,0,0,23,"[0, 14, 17, 1, 28, 23]",6,2,"[15, 22]",51.70676849,25001,1234,2,0,7,1.0327458250705703
undo,53,1,0,0,1,15,"[0, 14, 17, 1, 28, 23, 15]",7,0,[],20.81987807,26467,1466,1,0,7,1.1948681641401226
undo,53,1,0,1,1,15,"[0, 14, 17, 1, 28, 23, 15]",7,0,[],20.81987807,31861,5394,1,0,7,1.1948681641401226
undo,54,40,0,0,0,0,[0],1,29,"[1, 2, 3, 4, 5, 6, 7, 8, 9, 10, 11, 12, 13, 14, 15, 16, 17, 18, 19, 20, 21, 22, 23, 24, 25, 26, 27, 28, 29]",300,93,-1,8,191,9,0.0
undo,54,40,0,0,0,1,"[0, 1]",2,18,"[2, 5, 6, 7, 8, 9, 10, 11, 13, 15, 17, 18, 19, 21, 22, 23, 27, 29]",247.8463808,3151,3058,4,80,9,1.0
undo,54,40,0,0,0,6,"[0, 1, 6]",3,17,"[2, 5, 7, 8, 9, 10, 11, 13, 15, 17, 18, 19, 21, 22, 23, 27, 29]",227.7466295,3998,847,4,74,9,1.0459427008232034
undo,54,40,0,0,0,9,"[0, 1, 6, 9]",4,10,"[2, 5, 8, 11, 18, 19, 21, 22, 23, 27]",159.146338,5415,1417,17,39,8,1.142098432552584
undo,54,40,0,0,0,18,"[0, 1, 6, 9, 18]",5,9,"[2, 5, 8, 11, 19, 21, 22, 23, 27]",142.5933926,6208,793,13,14,8,1.3288108654802917
undo,54,40,0,0,0,5,"[0, 1, 6, 9, 18, 5]",6,7,"[2, 8, 19, 21, 22, 23, 27]",111.0180858,7131,923,5,5,8,1.5366414787972102
undo,54,40,0,0,0,23,"[0, 1, 6, 9, 18, 5, 23]",7,3,"[2, 19, 21]",82.71614241,8023,892,3,0,8,2.2908821040631264
undo,54,40,1,0,0,5,"[0, 1, 6, 9, 18, 5]",6,7,"[2, 8, 19, 21, 22, 23, 27]",111.0180858,9776,1753,5,5,8,1.5366414787972102
undo,54,40,1,0,0,18,"[0, 1, 6, 9, 18]",5,9,"[2, 5, 8, 11, 19, 21, 22, 23, 27]",142.5933926,9943,167,13,14,8,1.3288108654802917
undo,54,40,1,0,0,9,"[0, 1, 6, 9]",4,10,"[2, 5, 8, 11, 18, 19, 21, 22, 23, 27]",159.146338,10092,149,17,39,8,1.142098432552584
undo,54,40,1,0,0,6,"[0, 1, 6]",3,17,"[2, 5, 7, 8, 9, 10, 11, 13, 15, 17, 18, 19, 21, 22, 23, 27, 29]",227.7466295,10210,118,4,74,9,1.0459427008232034
undo,54,40,1,0,0,1,"[0, 1]",2,18,"[2, 5, 6, 7, 8, 9, 10, 11, 13, 15, 17, 18, 19, 21, 22, 23, 27, 29]",247.8463808,10342,132,4,80,9,1.0
undo,54,40,1,0,0,0,[0],1,29,"[1, 2, 3, 4, 5, 6, 7, 8, 9, 10, 11, 12, 13, 14, 15, 16, 17, 18, 19, 20, 21, 22, 23, 24, 25, 26, 27, 28, 29]",300,10442,100,8,191,9,0.0
undo,54,40,0,0,0,2,"[0, 2]",2,28,"[1, 3, 4, 5, 6, 7, 8, 9, 10, 11, 12, 13, 14, 15, 16, 17, 18, 19, 20, 21, 22, 23, 24, 25, 26, 27, 28, 29]",263.7646581,12699,2257,4,79,9,1.0
undo,54,40,0,0,0,19,"[0, 2, 19]",3,22,"[1, 5, 6, 7, 8, 9, 10, 11, 13, 14, 15, 17, 18, 20, 21, 22, 23, 24, 25, 26, 27, 29]",194.4249148,13423,724,19,105,8,1.02908296307533
undo,54,40,0,0,0,23,"[0, 2, 19, 23]",4,15,"[1, 5, 6, 7, 8, 9, 10, 11, 13, 17, 18, 21, 22, 27, 29]",162.4718242,14788,1365,11,38,8,1.4499965171787688
undo,54,40,0,0,0,5,"[0, 2, 19, 23, 5]",5,10,"[1, 6, 7, 8, 9, 11, 18, 21, 22, 27]",134.1698808,15391,603,4,12,8,1.3483906154476113
undo,54,40,0,0,0,18,"[0, 2, 19, 23, 5, 18]",6,5,"[1, 6, 9, 21, 22]",102.594574,16348,957,3,3,8,1.6664768989460201
undo,54,40,0,0,0,9,"[0, 2, 19, 23, 5, 18, 9]",7,2,"[6, 21]",86.04162866,16975,627,2,0,8,1.7348609689602368
undo,54,40,0,0,1,21,"[0, 2, 19, 23, 5, 18, 9, 21]",8,0,[],40.33604914,17791,816,1,0,8,2.1548319090303782
undo,54,40,1,0,0,9,"[0, 2, 19, 23, 5, 18, 9]",7,2,"[6, 21]",86.04162866,21092,3301,2,0,8,1.7348609689602368
undo,54,40,1,0,0,18,"[0, 2, 19, 23, 5, 18]",6,5,"[1, 6, 9, 21, 22]",102.594574,21276,184,3,3,8,1.6664768989460201
undo,54,40,1,0,0,5,"[0, 2, 19, 23, 5]",5,10,"[1, 6, 7, 8, 9, 11, 18, 21, 22, 27]",134.1698808,21510,234,4,12,8,1.3483906154476113
undo,54,40,1,0,0,23,"[0, 2, 19, 23]",4,15,"[1, 5, 6, 7, 8, 9, 10, 11, 13, 17, 18, 21, 22, 27, 29]",162.4718242,21976,466,11,38,8,1.4499965171787688
undo,54,40,1,0,0,19,"[0, 2, 19]",3,22,"[1, 5, 6, 7, 8, 9, 10, 11, 13, 14, 15, 17, 18, 20, 21, 22, 23, 24, 25, 26, 27, 29]",194.4249148,22409,433,19,105,8,1.02908296307533
undo,54,40,0,0,0,5,"[0, 2, 19, 5]",4,13,"[1, 6, 7, 8, 9, 10, 11, 18, 21, 22, 23, 27, 29]",156.3460493,23132,723,8,34,8,1.1680727236421946
undo,54,40,0,0,0,18,"[0, 2, 19, 5, 18]",5,6,"[1, 6, 9, 21, 22, 23]",124.7707425,24159,1027,4,11,8,1.4792678983566219
undo,54,40,0,0,0,9,"[0, 2, 19, 5, 18, 9]",6,5,"[1, 6, 21, 22, 23]",108.2177971,24904,745,3,2,8,1.555047630380896
undo,54,40,0,0,0,21,"[0, 2, 19, 5, 18, 9, 21]",7,1,[6],62.51221762,26248,1344,1,0,8,1.9708020685289451
undo,54,40,0,0,1,6,"[0, 2, 19, 5, 18, 9, 21, 6]",8,0,[],10.54107178,27287,1039,1,0,8,4.190219100710556
undo,54,40,1,0,0,21,"[0, 2, 19, 5, 18, 9, 21]",7,1,[6],62.51221762,47876,20589,1,0,8,1.9708020685289451
undo,54,40,1,0,0,9,"[0, 2, 19, 5, 18, 9]",6,5,"[1, 6, 21, 22, 23]",108.2177971,48376,500,3,2,8,1.555047630380896
undo,54,40,1,0,0,18,"[0, 2, 19, 5, 18]",5,6,"[1, 6, 9, 21, 22, 23]",124.7707425,48592,216,4,11,8,1.4792678983566219
undo,54,40,1,0,0,5,"[0, 2, 19, 5]",4,13,"[1, 6, 7, 8, 9, 10, 11, 18, 21, 22, 23, 27, 29]",156.3460493,49143,551,8,34,8,1.1680727236421946
undo,54,40,1,0,0,19,"[0, 2, 19]",3,22,"[1, 5, 6, 7, 8, 9, 10, 11, 13, 14, 15, 17, 18, 20, 21, 22, 23, 24, 25, 26, 27, 29]",194.4249148,49543,400,19,105,8,1.02908296307533
undo,54,40,1,0,0,2,"[0, 2]",2,28,"[1, 3, 4, 5, 6, 7, 8, 9, 10, 11, 12, 13, 14, 15, 16, 17, 18, 19, 20, 21, 22, 23, 24, 25, 26, 27, 28, 29]",263.7646581,51226,1683,4,79,9,1.0
undo,54,40,1,0,0,0,[0],1,29,"[1, 2, 3, 4, 5, 6, 7, 8, 9, 10, 11, 12, 13, 14, 15, 16, 17, 18, 19, 20, 21, 22, 23, 24, 25, 26, 27, 28, 29]",300,53160,1934,8,191,9,0.0
undo,54,40,0,0,0,19,"[0, 19]",2,23,"[1, 2, 5, 6, 7, 8, 9, 10, 11, 13, 14, 15, 17, 18, 20, 21, 22, 23, 24, 25, 26, 27, 29]",197.4085774,54099,939,1,23,8,1.0
undo,54,40,0,0,0,23,"[0, 19, 23]",3,16,"[1, 2, 5, 6, 7, 8, 9, 10, 11, 13, 17, 18, 21, 22, 27, 29]",165.4554867,55238,1139,1,13,8,1.4185389616031867
undo,54,40,0,0,0,5,"[0, 19, 23, 5]",4,11,"[1, 2, 6, 7, 8, 9, 11, 18, 21, 22, 27]",137.1535433,56104,866,1,6,8,1.324129989367913
undo,54,40,0,0,0,18,"[0, 19, 23, 5, 18]",5,6,"[1, 2, 6, 9, 21, 22]",105.5782365,57206,1102,1,3,8,1.6412891179855233
undo,54,40,0,0,0,9,"[0, 19, 23, 5, 18, 9]",6,3,"[1, 6, 21]",89.02529118,58121,915,1,2,8,1.710668227082089
undo,54,40,0,0,1,21,"[0, 19, 23, 5, 18, 9, 21]",7,0,[],43.31971165,58839,718,1,0,7,2.1300718637448
undo,54,40,1,0,0,9,"[0, 19, 23, 5, 18, 9]",6,3,"[1, 6, 21]",89.02529118,59926,1087,1,2,8,1.710668227082089
undo,54,40,1,0,0,18,"[0, 19, 23, 5, 18]",5,6,"[1, 2, 6, 9, 21, 22]",105.5782365,60076,150,1,3,8,1.6412891179855233
undo,54,40,1,0,0,5,"[0, 19, 23, 5]",4,11,"[1, 2, 6, 7, 8, 9, 11, 18, 21, 22, 27]",137.1535433,60259,183,1,6,8,1.324129989367913
undo,54,40,1,0,0,23,"[0, 19, 23]",3,16,"[1, 2, 5, 6, 7, 8, 9, 10, 11, 13, 17, 18, 21, 22, 27, 29]",165.4554867,60376,117,1,13,8,1.4185389616031867
undo,54,40,1,0,0,19,"[0, 19]",2,23,"[1, 2, 5, 6, 7, 8, 9, 10, 11, 13, 14, 15, 17, 18, 20, 21, 22, 23, 24, 25, 26, 27, 29]",197.4085774,60509,133,1,23,8,1.0
undo,54,40,1,0,0,0,[0],1,29,"[1, 2, 3, 4, 5, 6, 7, 8, 9, 10, 11, 12, 13, 14, 15, 16, 17, 18, 19, 20, 21, 22, 23, 24, 25, 26, 27, 28, 29]",300,60893,384,8,191,9,0.0
undo,54,40,0,0,0,1,"[0, 1]",2,18,"[2, 5, 6, 7, 8, 9, 10, 11, 13, 15, 17, 18, 19, 21, 22, 23, 27, 29]",247.8463808,64814,3921,4,80,9,1.0
undo,54,40,0,0,0,6,"[0, 1, 6]",3,17,"[2, 5, 7, 8, 9, 10, 11, 13, 15, 17, 18, 19, 21, 22, 23, 27, 29]",227.7466295,65699,885,4,74,9,1.0459427008232034
undo,54,40,0,0,0,21,"[0, 1, 6, 21]",4,8,"[2, 5, 9, 17, 18, 19, 22, 23]",175.7754837,67498,1799,4,25,9,1.0308822257404064
undo,54,40,0,0,0,9,"[0, 1, 6, 21, 9]",5,6,"[2, 5, 18, 19, 22, 23]",130.0699041,68575,1077,4,12,9,1.377861912961129
undo,54,40,0,0,0,18,"[0, 1, 6, 21, 9, 18]",6,5,"[2, 5, 19, 22, 23]",113.5169588,69487,912,4,4,9,1.5742712168661408
undo,54,40,0,0,0,5,"[0, 1, 6, 21, 9, 18, 5]",7,3,"[19, 22, 23]",81.94165198,70520,1033,2,1,9,1.7730665063055515
undo,54,40,0,0,0,23,"[0, 1, 6, 21, 9, 18, 5, 23]",8,1,[19],53.63970859,71654,1134,1,0,9,2.597442759912231
undo,54,40,0,0,1,19,"[0, 1, 6, 21, 9, 18, 5, 23, 19]",9,0,[],21.68661797,72665,1011,1,0,9,2.7128328554069565
undo,54,40,0,1,1,19,"[0, 1, 6, 21, 9, 18, 5, 23, 19]",9,0,[],21.68661797,75892,3227,1,0,9,2.7128328554069565
undo,55,10,0,0,0,0,[0],1,29,"[1, 2, 3, 4, 5, 6, 7, 8, 9, 10, 11, 12, 13, 14, 15, 16, 17, 18, 19, 20, 21, 22, 23, 24, 25, 26, 27, 28, 29]",300,101,-1,1,100,9,0.0
undo,55,10,0,0,0,13,"[0, 13]",2,25,"[1, 2, 3, 4, 6, 7, 8, 9, 10, 11, 12, 14, 17, 18, 19, 20, 21, 22, 23, 24, 25, 26, 27, 28, 29]",249.4628849,2666,2565,1,79,9,1.0
undo,55,10,0,0,0,11,"[0, 13, 11]",3,20,"[1, 2, 3, 6, 7, 8, 9, 10, 12, 14, 18, 19, 20, 21, 22, 24, 26, 27, 28, 29]",206.4512586,3858,1192,1,54,9,1.0313137484914219
undo,55,10,0,0,0,19,"[0, 13, 11, 19]",4,11,"[2, 6, 8, 9, 10, 14, 18, 20, 24, 26, 27]",170.0919407,4824,966,1,22,9,1.0879446220132545
undo,55,10,0,0,0,2,"[0, 13, 11, 19, 2]",5,4,"[14, 20, 26, 27]",126.1829439,5866,1042,1,4,9,1.06474052351343
undo,55,10,0,0,0,14,"[0, 13, 11, 19, 2, 14]",6,3,"[20, 26, 27]",114.0174188,6562,696,1,3,9,1.1628909195912238
undo,55,10,0,0,0,26,"[0, 13, 11, 19, 2, 14, 26]",7,2,"[20, 27]",79.34754716,7273,711,1,1,9,1.6660727647633602
undo,55,10,0,0,0,20,"[0, 13, 11, 19, 2, 14, 26, 20]",8,1,[27],47.56704999,8212,939,1,0,9,2.085581809637999
undo,55,10,0,0,1,27,"[0, 13, 11, 19, 2, 14, 26, 20, 27]",9,0,[],2.312215998,9449,1237,1,0,9,1.9116357409137932
undo,55,10,0,1,1,27,"[0, 13, 11, 19, 2, 14, 26, 20, 27]",9,0,[],2.312215998,14467,5018,1,0,9,1.9116357409137932
undo,56,11,0,0,0,0,[0],1,25,"[1, 2, 3, 4, 5, 6, 8, 9, 10, 11, 12, 13, 14, 15, 16, 17, 18, 19, 20, 22, 23, 25, 26, 27, 28]",300,96,-1,6,374,12,0.0
undo,56,11,0,0,0,27,"[0, 27]",2,21,"[1, 2, 4, 5, 6, 8, 9, 11, 12, 13, 14, 15, 16, 17, 18, 19, 20, 22, 23, 25, 28]",217.9939027,4075,3979,276,2000,10,1.0
undo,56,11,0,0,0,5,"[0, 27, 5]",3,14,"[2, 6, 8, 11, 12, 14, 15, 16, 17, 18, 19, 22, 25, 28]",136.7781406,5363,1288,52,322,10,1.0032508907384046
undo,56,11,0,0,0,2,"[0, 27, 5, 2]",4,10,"[6, 8, 11, 12, 14, 15, 17, 19, 22, 28]",119.7781406,7487,2124,17,98,10,1.0097136145716556
undo,56,11,0,0,0,22,"[0, 27, 5, 2, 22]",5,6,"[8, 11, 15, 17, 19, 28]",109.728265,8470,983,12,36,10,1.009218072577422
undo,56,11,0,0,0,28,"[0, 27, 5, 2, 22, 28]",6,5,"[8, 11, 15, 17, 19]",91.34348872,9395,925,12,10,10,1.2074795048423828
undo,56,11,0,0,0,11,"[0, 27, 5, 2, 22, 28, 11]",7,3,"[8, 15, 17]",71.92700088,10243,848,6,0,10,1.3155527975526133
undo,56,11,0,0,0,15,"[0, 27, 5, 2, 22, 28, 11, 15]",8,2,"[8, 17]",53.8162306,10936,693,2,0,10,1.569355226067338
undo,56,11,0,0,0,17,"[0, 27, 5, 2, 22, 28, 11, 15, 17]",9,1,[8],41.16711996,11636,700,1,0,10,1.7598315833685405
undo,56,11,1,0,0,15,"[0, 27, 5, 2, 22, 28, 11, 15]",8,2,"[8, 17]",53.8162306,13797,2161,2,0,10,1.569355226067338
undo,56,11,1,0,0,11,"[0, 27, 5, 2, 22, 28, 11]",7,3,"[8, 15, 17]",71.92700088,13980,183,6,0,10,1.3155527975526133
