condition,trial_id,map_id,undoIndicator,submit,checkEnd,currentChoice,chosen_all,n_city_all,n_within_reach,cities_reach,currentBudget,time_all,rt_all,n_opt_paths_all,n_subopt_paths_all,mas_all,tortuosity_all
undo,0,33,0,0,0,0,[0],1,23,"[1, 2, 5, 7, 8, 11, 12, 13, 14, 15, 16, 17, 18, 19, 20, 21, 23, 24, 25, 26, 27, 28, 29]",300,251,-1,5,108,9,0.0
undo,0,33,0,0,0,21,"[0, 21]",2,17,"[2, 5, 7, 8, 11, 13, 14, 16, 17, 18, 19, 20, 24, 26, 27, 28, 29]",174.4611614,12637,12386,21,129,8,1.0
undo,0,33,0,0,0,13,"[0, 21, 13]",3,15,"[2, 5, 7, 8, 11, 14, 16, 17, 18, 19, 20, 24, 26, 28, 29]",148.0604038,14951,2314,17,72,8,1.0001005298764474
undo,0,33,0,0,0,19,"[0, 21, 13, 19]",4,11,"[7, 11, 14, 16, 17, 18, 20, 24, 26, 28, 29]",122.5653063,16600,1649,10,27,8,1.0588446738393702
undo,0,33,0,0,0,24,"[0, 21, 13, 19, 24]",5,7,"[7, 14, 16, 18, 26, 28, 29]",80.51771417,17688,1088,3,5,8,1.078006777679028
undo,0,33,0,0,0,7,"[0, 21, 13, 19, 24, 7]",6,3,"[14, 26, 29]",51.31155044,19121,1433,3,1,8,1.1669985062633954
undo,0,33,0,0,0,14,"[0, 21, 13, 19, 24, 7, 14]",7,2,"[26, 29]",36.44548169,20499,1378,2,0,8,1.2148465775488593
undo,0,33,1,0,0,7,"[0, 21, 13, 19, 24, 7]",6,3,"[14, 26, 29]",51.31155044,28304,7805,3,1,8,1.1669985062633954
undo,0,33,1,0,0,24,"[0, 21, 13, 19, 24]",5,7,"[7, 14, 16, 18, 26, 28, 29]",80.51771417,28804,500,3,5,8,1.078006777679028
undo,0,33,1,0,0,19,"[0, 21, 13, 19]",4,11,"[7, 11, 14, 16, 17, 18, 20, 24, 26, 28, 29]",122.5653063,29287,483,10,27,8,1.0588446738393702
undo,0,33,1,0,0,13,"[0, 21, 13]",3,15,"[2, 5, 7, 8, 11, 14, 16, 17, 18, 19, 20, 24, 26, 28, 29]",148.0604038,29954,667,17,72,8,1.0001005298764474
undo,0,33,0,0,0,17,"[0, 21, 13, 17]",4,10,"[2, 7, 11, 14, 16, 19, 20, 24, 26, 29]",125.2568953,40045,10091,6,21,8,1.0965005103980894
undo,0,33,0,0,0,19,"[0, 21, 13, 17, 19]",5,6,"[7, 14, 16, 24, 26, 29]",81.32513005,41399,1354,1,6,8,1.3049461552347723
undo,0,33,0,0,0,24,"[0, 21, 13, 17, 19, 24]",6,1,[7],39.27753797,42329,930,1,0,7,1.2805615728788176
undo,0,33,1,0,0,19,"[0, 21, 13, 17, 19]",5,6,"[7, 14, 16, 24, 26, 29]",81.32513005,49817,7488,1,6,8,1.3049461552347723
undo,0,33,1,0,0,17,"[0, 21, 13, 17]",4,10,"[2, 7, 11, 14, 16, 19, 20, 24, 26, 29]",125.2568953,50150,333,6,21,8,1.0965005103980894
undo,0,33,1,0,0,13,"[0, 21, 13]",3,15,"[2, 5, 7, 8, 11, 14, 16, 17, 18, 19, 20, 24, 26, 28, 29]",148.0604038,50783,633,17,72,8,1.0001005298764474
undo,0,33,1,0,0,21,"[0, 21]",2,17,"[2, 5, 7, 8, 11, 13, 14, 16, 17, 18, 19, 20, 24, 26, 27, 28, 29]",174.4611614,52700,1917,21,129,8,1.0
undo,0,33,0,0,0,17,"[0, 21, 17]",3,12,"[2, 7, 11, 13, 14, 16, 18, 19, 20, 24, 26, 29]",135.8218032,53780,1080,3,35,8,1.0302064673538902
undo,0,33,0,0,0,13,"[0, 21, 17, 13]",4,10,"[2, 7, 11, 14, 16, 19, 20, 24, 26, 29]",113.0182947,54475,695,3,18,8,1.2307555582916028
undo,0,33,0,0,0,19,"[0, 21, 17, 13, 19]",5,6,"[7, 14, 16, 24, 26, 29]",87.52319715,55710,1235,3,6,8,1.267959080158969
undo,0,33,0,0,0,24,"[0, 21, 17, 13, 19, 24]",6,2,"[7, 14]",45.47560506,57045,1335,1,1,8,1.2501192148258107
undo,0,33,0,0,0,7,"[0, 21, 17, 13, 19, 24, 7]",7,1,[14],16.26944133,58376,1331,1,0,8,1.3314375425758662
undo,0,33,0,0,1,14,"[0, 21, 17, 13, 19, 24, 7, 14]",8,0,[],1.403372582,60108,1732,1,0,8,1.37637211918224
undo,0,33,0,1,1,14,"[0, 21, 17, 13, 19, 24, 7, 14]",8,0,[],1.403372582,62381,2273,1,0,8,1.37637211918224
undo,1,0,0,0,0,0,[0],1,27,"[2, 3, 4, 5, 6, 7, 8, 9, 10, 11, 12, 13, 14, 15, 16, 17, 19, 20, 21, 22, 23, 24, 25, 26, 27, 28, 29]",300,315,-1,104,1136,9,0.0
undo,1,0,0,0,0,5,"[0, 5]",2,24,"[2, 3, 4, 7, 8, 9, 11, 12, 13, 14, 15, 16, 17, 19, 20, 21, 22, 23, 24, 25, 26, 27, 28, 29]",164.5156836,8555,8240,5,112,9,1.0
undo,1,0,0,0,0,24,"[0, 5, 24]",3,20,"[2, 3, 4, 7, 8, 9, 11, 12, 13, 14, 15, 17, 19, 20, 21, 22, 23, 25, 26, 28]",131.7590049,11878,3323,23,142,8,1.0084440748845038
undo,1,0,0,0,0,4,"[0, 5, 24, 4]",4,15,"[3, 7, 8, 9, 11, 12, 14, 15, 17, 19, 20, 21, 23, 26, 28]",120.3572506,13038,1160,19,54,8,1.147578332782166
undo,1,0,0,0,0,26,"[0, 5, 24, 4, 26]",5,13,"[3, 7, 8, 9, 11, 12, 14, 15, 17, 19, 20, 23, 28]",108.315656,14378,1340,16,26,8,1.1864963027442115
undo,1,0,0,0,0,15,"[0, 5, 24, 4, 26, 15]",6,7,"[3, 7, 8, 9, 11, 12, 17]",71.5461034,20269,5891,4,5,8,1.2085647060040074
undo,1,0,0,0,0,7,"[0, 5, 24, 4, 26, 15, 7]",7,2,"[3, 8]",40.48165427,23421,3152,2,0,8,1.2658829070571638
undo,1,0,0,0,1,8,"[0, 5, 24, 4, 26, 15, 7, 8]",8,0,[],21.3766811,25189,1768,1,0,8,1.2524452045495216
undo,1,0,0,1,1,8,"[0, 5, 24, 4, 26, 15, 7, 8]",8,0,[],21.3766811,26907,1718,1,0,8,1.2524452045495216
undo,2,10,0,0,0,0,[0],1,29,"[1, 2, 3, 4, 5, 6, 7, 8, 9, 10, 11, 12, 13, 14, 15, 16, 17, 18, 19, 20, 21, 22, 23, 24, 25, 26, 27, 28, 29]",300,252,-1,1,100,9,0.0
undo,2,10,0,0,0,13,"[0, 13]",2,25,"[1, 2, 3, 4, 6, 7, 8, 9, 10, 11, 12, 14, 17, 18, 19, 20, 21, 22, 23, 24, 25, 26, 27, 28, 29]",249.4628849,6440,6188,1,79,9,1.0
undo,2,10,0,0,0,11,"[0, 13, 11]",3,20,"[1, 2, 3, 6, 7, 8, 9, 10, 12, 14, 18, 19, 20, 21, 22, 24, 26, 27, 28, 29]",206.4512586,7687,1247,1,54,9,1.0313137484914219
undo,2,10,0,0,0,19,"[0, 13, 11, 19]",4,11,"[2, 6, 8, 9, 10, 14, 18, 20, 24, 26, 27]",170.0919407,9342,1655,1,22,9,1.0879446220132545
undo,2,10,0,0,0,2,"[0, 13, 11, 19, 2]",5,4,"[14, 20, 26, 27]",126.1829439,10436,1094,1,4,9,1.06474052351343
undo,2,10,0,0,0,14,"[0, 13, 11, 19, 2, 14]",6,3,"[20, 26, 27]",114.0174188,11491,1055,1,3,9,1.1628909195912238
undo,2,10,0,0,0,26,"[0, 13, 11, 19, 2, 14, 26]",7,2,"[20, 27]",79.34754716,12770,1279,1,1,9,1.6660727647633602
undo,2,10,0,0,0,20,"[0, 13, 11, 19, 2, 14, 26, 20]",8,1,[27],47.56704999,15924,3154,1,0,9,2.085581809637999
undo,2,10,0,0,1,27,"[0, 13, 11, 19, 2, 14, 26, 20, 27]",9,0,[],2.312215998,17354,1430,1,0,9,1.9116357409137932
undo,2,10,0,1,1,27,"[0, 13, 11, 19, 2, 14, 26, 20, 27]",9,0,[],2.312215998,19058,1704,1,0,9,1.9116357409137932
undo,3,2,0,0,0,0,[0],1,23,"[1, 2, 4, 5, 6, 7, 8, 9, 12, 13, 15, 16, 17, 18, 19, 20, 22, 23, 25, 26, 27, 28, 29]",300,231,-1,70,620,10,0.0
undo,3,2,0,0,0,19,"[0, 19]",2,22,"[1, 2, 4, 5, 6, 7, 8, 9, 12, 13, 15, 16, 17, 18, 20, 22, 23, 25, 26, 27, 28, 29]",210.306076,2689,2458,67,431,10,1.0
undo,3,2,0,0,0,12,"[0, 19, 12]",3,17,"[1, 4, 5, 6, 7, 13, 15, 16, 17, 18, 20, 22, 25, 26, 27, 28, 29]",174.2921898,3623,934,66,298,10,1.1107635036313153
undo,3,2,0,0,0,5,"[0, 19, 12, 5]",4,11,"[1, 6, 7, 13, 15, 16, 18, 22, 25, 26, 29]",144.7625437,4268,645,38,136,10,1.0968174771581647
undo,3,2,0,0,0,22,"[0, 19, 12, 5, 22]",5,8,"[1, 6, 7, 13, 15, 18, 26, 29]",131.9562952,5336,1068,20,63,10,1.0889910507461968
undo,3,2,0,0,0,13,"[0, 19, 12, 5, 22, 13]",6,7,"[1, 6, 7, 15, 18, 26, 29]",117.0902265,10170,4834,19,20,10,1.236526217328057
undo,3,2,0,0,0,18,"[0, 19, 12, 5, 22, 13, 18]",7,4,"[7, 15, 26, 29]",81.91921567,11403,1233,10,3,10,1.2128708213409936
undo,3,2,0,0,0,7,"[0, 19, 12, 5, 22, 13, 18, 7]",8,3,"[15, 26, 29]",71.62358553,12554,1151,5,0,10,1.2019811287894737
undo,3,2,0,0,0,26,"[0, 19, 12, 5, 22, 13, 18, 7, 26]",9,2,"[15, 29]",48.82007703,13521,967,2,0,10,1.1883593342191134
undo,3,2,0,0,1,15,"[0, 19, 12, 5, 22, 13, 18, 7, 26, 15]",10,0,[],24.61264015,15119,1598,1,0,10,1.4619750353663825
undo,3,2,1,0,0,26,"[0, 19, 12, 5, 22, 13, 18, 7, 26]",9,2,"[15, 29]",48.82007703,20476,5357,2,0,10,1.1883593342191134
undo,3,2,1,0,0,7,"[0, 19, 12, 5, 22, 13, 18, 7]",8,3,"[15, 26, 29]",71.62358553,20741,265,5,0,10,1.2019811287894737
undo,3,2,1,0,0,18,"[0, 19, 12, 5, 22, 13, 18]",7,4,"[7, 15, 26, 29]",81.91921567,20975,234,10,3,10,1.2128708213409936
undo,3,2,1,0,0,13,"[0, 19, 12, 5, 22, 13]",6,7,"[1, 6, 7, 15, 18, 26, 29]",117.0902265,21275,300,19,20,10,1.236526217328057
undo,3,2,1,0,0,22,"[0, 19, 12, 5, 22]",5,8,"[1, 6, 7, 13, 15, 18, 26, 29]",131.9562952,21609,334,20,63,10,1.0889910507461968
undo,3,2,1,0,0,5,"[0, 19, 12, 5]",4,11,"[1, 6, 7, 13, 15, 16, 18, 22, 25, 26, 29]",144.7625437,22224,615,38,136,10,1.0968174771581647
undo,3,2,0,0,0,13,"[0, 19, 12, 5, 13]",5,9,"[1, 6, 7, 15, 18, 22, 25, 26, 29]",131.1610732,23070,846,18,63,10,1.1414029742578664
undo,3,2,0,0,0,22,"[0, 19, 12, 5, 13, 22]",6,7,"[1, 6, 7, 15, 18, 26, 29]",116.2950044,24021,951,16,16,10,1.1904825380032296
undo,3,2,0,0,0,18,"[0, 19, 12, 5, 13, 22, 18]",7,4,"[7, 15, 26, 29]",76.97579792,25255,1234,8,3,10,1.2403639687317394
undo,3,2,0,0,0,7,"[0, 19, 12, 5, 13, 22, 18, 7]",8,3,"[15, 26, 29]",66.68016778,25815,560,3,1,10,1.2279991169473683
undo,3,2,0,0,0,26,"[0, 19, 12, 5, 13, 22, 18, 7, 26]",9,1,[15],43.87665928,26418,603,1,0,10,1.2117471773106117
undo,3,2,0,0,1,15,"[0, 19, 12, 5, 13, 22, 18, 7, 26, 15]",10,0,[],19.66922241,27187,769,1,0,10,1.4882186266815536
undo,3,2,0,1,1,15,"[0, 19, 12, 5, 13, 22, 18, 7, 26, 15]",10,0,[],19.66922241,29989,2802,1,0,10,1.4882186266815536
undo,4,31,0,0,0,0,[0],1,27,"[1, 3, 4, 5, 6, 7, 8, 10, 11, 12, 13, 14, 15, 16, 17, 18, 19, 20, 21, 22, 23, 24, 25, 26, 27, 28, 29]",300,279,-1,2,87,10,0.0
undo,4,31,0,0,0,14,"[0, 14]",2,25,"[1, 3, 5, 6, 7, 8, 10, 11, 12, 13, 15, 16, 17, 18, 19, 20, 21, 22, 23, 24, 25, 26, 27, 28, 29]",263.861378,5927,5648,2,59,10,1.0
undo,4,31,0,0,0,27,"[0, 14, 27]",3,22,"[1, 3, 5, 6, 7, 8, 10, 11, 12, 13, 15, 16, 17, 18, 19, 20, 21, 22, 24, 25, 28, 29]",235.6833724,6937,1010,1,39,10,1.5881859159302467
undo,4,31,0,0,0,8,"[0, 14, 27, 8]",4,20,"[1, 3, 5, 6, 7, 10, 11, 12, 13, 16, 17, 18, 19, 20, 21, 22, 24, 25, 28, 29]",224.6380114,7906,969,1,36,10,2.1665048452331277
undo,4,31,0,0,0,18,"[0, 14, 27, 8, 18]",5,15,"[1, 5, 6, 7, 11, 12, 13, 16, 17, 19, 20, 22, 25, 28, 29]",188.7911147,8839,933,1,26,10,1.7273375741920205
undo,4,31,0,0,0,17,"[0, 14, 27, 8, 18, 17]",6,13,"[1, 5, 6, 7, 11, 12, 13, 16, 19, 20, 22, 25, 28]",159.584951,9637,798,1,13,10,1.551192427769927
undo,4,31,0,0,0,11,"[0, 14, 27, 8, 18, 17, 11]",7,7,"[5, 12, 16, 19, 22, 25, 28]",118.4753414,10970,1333,1,4,10,2.9650760544203494
undo,4,31,0,0,0,5,"[0, 14, 27, 8, 18, 17, 11, 5]",8,2,"[16, 28]",74.79468207,12275,1305,1,1,10,2.56711965625205
undo,4,31,0,0,0,28,"[0, 14, 27, 8, 18, 17, 11, 5, 28]",9,1,[16],54.57093365,12919,644,1,0,10,2.2865510762058148
undo,4,31,0,0,1,16,"[0, 14, 27, 8, 18, 17, 11, 5, 28, 16]",10,0,[],20.95546102,14738,1819,1,0,10,2.089356850786318
undo,4,31,0,1,1,16,"[0, 14, 27, 8, 18, 17, 11, 5, 28, 16]",10,0,[],20.95546102,20342,5604,1,0,10,2.089356850786318
undo,5,18,0,0,0,0,[0],1,28,"[1, 2, 3, 4, 5, 6, 7, 8, 9, 10, 11, 12, 13, 14, 16, 17, 18, 19, 20, 21, 22, 23, 24, 25, 26, 27, 28, 29]",300,162,-1,3,136,10,0.0
undo,5,18,0,0,0,28,"[0, 28]",2,16,"[1, 3, 5, 7, 8, 9, 12, 13, 14, 16, 20, 23, 24, 25, 26, 27]",236.4311397,5991,5829,2,19,10,1.0
undo,5,18,0,0,0,7,"[0, 28, 7]",3,15,"[1, 3, 5, 8, 9, 12, 13, 14, 16, 20, 23, 24, 25, 26, 27]",214.4084242,6954,963,2,17,10,1.4345180696367563
undo,5,18,0,0,0,25,"[0, 28, 7, 25]",4,13,"[1, 3, 5, 8, 9, 12, 13, 14, 16, 20, 23, 26, 27]",186.6055466,7937,983,2,15,10,1.8896451241781882
undo,5,18,0,0,0,8,"[0, 28, 7, 25, 8]",5,10,"[3, 5, 9, 12, 13, 14, 16, 23, 26, 27]",149.551532,12636,4699,2,10,10,1.590467437592877
undo,5,18,0,0,0,13,"[0, 28, 7, 25, 8, 13]",6,9,"[3, 5, 9, 12, 14, 16, 23, 26, 27]",128.4565089,13237,601,2,5,10,1.8248274983549797
undo,5,18,0,0,0,14,"[0, 28, 7, 25, 8, 13, 14]",7,7,"[3, 5, 9, 12, 23, 26, 27]",109.4828429,13892,655,2,3,10,1.6993534956692746
undo,5,18,0,0,0,3,"[0, 28, 7, 25, 8, 13, 14, 3]",8,3,"[5, 12, 27]",79.39962499,14527,635,2,1,10,1.802637206541468
undo,5,18,0,0,0,5,"[0, 28, 7, 25, 8, 13, 14, 3, 5]",9,1,[12],21.21887216,15354,827,1,0,10,1.559774889743805
undo,5,18,0,0,1,12,"[0, 28, 7, 25, 8, 13, 14, 3, 5, 12]",10,0,[],9.817117911,16588,1234,1,0,10,1.563993037384447
undo,5,18,0,1,1,12,"[0, 28, 7, 25, 8, 13, 14, 3, 5, 12]",10,0,[],9.817117911,17725,1137,1,0,10,1.563993037384447
undo,6,14,0,0,0,0,[0],1,29,"[1, 2, 3, 4, 5, 6, 7, 8, 9, 10, 11, 12, 13, 14, 15, 16, 17, 18, 19, 20, 21, 22, 23, 24, 25, 26, 27, 28, 29]",300,337,-1,8,157,10,0.0
undo,6,14,0,0,0,15,"[0, 15]",2,20,"[1, 2, 3, 4, 7, 8, 9, 13, 17, 18, 19, 20, 21, 22, 23, 25, 26, 27, 28, 29]",216.7053423,5012,4675,8,102,10,1.0
undo,6,14,0,0,0,28,"[0, 15, 28]",3,17,"[1, 2, 3, 4, 7, 8, 9, 13, 17, 18, 19, 20, 22, 23, 25, 26, 27]",197.4959696,7507,2495,8,48,10,1.0446007867311968
undo,6,14,0,0,0,17,"[0, 15, 28, 17]",4,14,"[1, 2, 3, 4, 7, 8, 13, 18, 19, 20, 22, 23, 25, 26]",184.0423455,8214,707,8,39,10,1.0729463354689972
undo,6,14,0,0,0,18,"[0, 15, 28, 17, 18]",5,9,"[1, 2, 4, 7, 8, 19, 23, 25, 26]",119.412631,9621,1407,8,27,10,1.5035901079219378
undo,6,14,0,0,0,8,"[0, 15, 28, 17, 18, 8]",6,8,"[1, 2, 4, 7, 19, 23, 25, 26]",105.8111605,10506,885,8,18,10,1.4819689987843856
undo,6,14,0,0,0,1,"[0, 15, 28, 17, 18, 8, 1]",7,5,"[7, 19, 23, 25, 26]",82.21031307,12123,1617,4,6,10,1.4084991998385268
undo,6,14,0,0,0,19,"[0, 15, 28, 17, 18, 8, 1, 19]",8,4,"[7, 23, 25, 26]",66.97876686,13013,890,4,1,10,1.5758713333797987
undo,6,14,0,0,0,25,"[0, 15, 28, 17, 18, 8, 1, 19, 25]",9,2,"[7, 23]",31.1318702,14379,1366,2,0,10,1.6426186864061416
undo,6,14,0,0,1,23,"[0, 15, 28, 17, 18, 8, 1, 19, 25, 23]",10,0,[],1.72098786,15687,1308,1,0,10,1.586837442491671
undo,6,14,0,1,1,23,"[0, 15, 28, 17, 18, 8, 1, 19, 25, 23]",10,0,[],1.72098786,17809,2122,1,0,10,1.586837442491671
undo,7,11,0,0,0,0,[0],1,25,"[1, 2, 3, 4, 5, 6, 8, 9, 10, 11, 12, 13, 14, 15, 16, 17, 18, 19, 20, 22, 23, 25, 26, 27, 28]",300,281,-1,6,374,12,0.0
undo,7,11,0,0,0,27,"[0, 27]",2,21,"[1, 2, 4, 5, 6, 8, 9, 11, 12, 13, 14, 15, 16, 17, 18, 19, 20, 22, 23, 25, 28]",217.9939027,4490,4209,276,2000,10,1.0
undo,7,11,0,0,0,5,"[0, 27, 5]",3,14,"[2, 6, 8, 11, 12, 14, 15, 16, 17, 18, 19, 22, 25, 28]",136.7781406,5934,1444,52,322,10,1.0032508907384046
undo,7,11,0,0,0,22,"[0, 27, 5, 22]",4,7,"[2, 8, 11, 15, 17, 19, 28]",110.2074801,7026,1092,12,54,10,1.0066762733996724
undo,7,11,0,0,0,2,"[0, 27, 5, 22, 2]",5,6,"[8, 11, 15, 17, 19, 28]",100.1576045,7485,459,10,29,10,1.119639915916678
undo,7,11,0,0,0,28,"[0, 27, 5, 22, 2, 28]",6,5,"[8, 11, 15, 17, 19]",89.5274587,8372,887,10,11,10,1.2179887336983464
undo,7,11,0,0,0,11,"[0, 27, 5, 22, 2, 28, 11]",7,3,"[8, 15, 17]",70.11097086,8921,549,6,0,10,1.3260278795766518
undo,7,11,0,0,0,15,"[0, 27, 5, 22, 2, 28, 11, 15]",8,2,"[8, 17]",52.00020059,11488,2567,2,0,10,1.580931928275752
undo,7,11,1,0,0,11,"[0, 27, 5, 22, 2, 28, 11]",7,3,"[8, 15, 17]",70.11097086,14825,3337,6,0,10,1.3260278795766518
undo,7,11,1,0,0,28,"[0, 27, 5, 22, 2, 28]",6,5,"[8, 11, 15, 17, 19]",89.5274587,15108,283,10,11,10,1.2179887336983464
undo,7,11,1,0,0,2,"[0, 27, 5, 22, 2]",5,6,"[8, 11, 15, 17, 19, 28]",100.1576045,15291,183,10,29,10,1.119639915916678
undo,7,11,1,0,0,22,"[0, 27, 5, 22]",4,7,"[2, 8, 11, 15, 17, 19, 28]",110.2074801,15458,167,12,54,10,1.0066762733996724
undo,7,11,1,0,0,5,"[0, 27, 5]",3,14,"[2, 6, 8, 11, 12, 14, 15, 16, 17, 18, 19, 22, 25, 28]",136.7781406,15658,200,52,322,10,1.0032508907384046
undo,7,11,1,0,0,27,"[0, 27]",2,21,"[1, 2, 4, 5, 6, 8, 9, 11, 12, 13, 14, 15, 16, 17, 18, 19, 20, 22, 23, 25, 28]",217.9939027,15841,183,276,2000,10,1.0
undo,7,11,1,0,0,0,[0],1,25,"[1, 2, 3, 4, 5, 6, 8, 9, 10, 11, 12, 13, 14, 15, 16, 17, 18, 19, 20, 22, 23, 25, 26, 27, 28]",300,16158,317,6,374,12,0.0
undo,7,11,0,0,0,18,"[0, 18]",2,21,"[1, 2, 4, 5, 6, 8, 9, 11, 12, 13, 14, 15, 16, 17, 19, 20, 22, 23, 25, 27, 28]",236.8493864,17153,995,157,1477,11,1.0
undo,7,11,0,0,0,27,"[0, 18, 27]",3,19,"[1, 2, 4, 5, 6, 8, 9, 11, 12, 14, 15, 16, 17, 19, 20, 22, 23, 25, 28]",212.9956655,20156,3003,157,1315,11,1.060949579704323
undo,7,11,0,0,0,5,"[0, 18, 27, 5]",4,12,"[2, 6, 8, 11, 12, 14, 15, 16, 17, 19, 22, 28]",131.7799035,21367,1211,31,207,11,1.0339727918436237
undo,7,11,0,0,0,2,"[0, 18, 27, 5, 2]",5,8,"[8, 11, 12, 15, 17, 19, 22, 28]",114.7799035,22722,1355,10,68,11,1.0377168105520382
undo,7,11,0,0,0,22,"[0, 18, 27, 5, 2, 22]",6,6,"[8, 11, 15, 17, 19, 28]",104.7300279,23672,950,8,27,11,1.035729163214962
undo,7,11,0,0,0,28,"[0, 18, 27, 5, 2, 22, 28]",7,5,"[8, 11, 15, 17, 19]",86.34525155,24684,1012,8,13,11,1.2364039266401647
undo,7,11,0,0,0,11,"[0, 18, 27, 5, 2, 22, 28, 11]",8,3,"[8, 15, 17]",66.92876371,25283,599,6,0,11,1.344383237443331
undo,7,11,0,0,0,15,"[0, 18, 27, 5, 2, 22, 28, 11, 15]",9,2,"[8, 17]",48.81799344,25938,655,2,0,11,1.60121764180371
undo,7,11,0,0,0,17,"[0, 18, 27, 5, 2, 22, 28, 11, 15, 17]",10,1,[8],36.1688828,26384,446,1,0,11,1.7938151159629114
undo,7,11,0,0,1,8,"[0, 18, 27, 5, 2, 22, 28, 11, 15, 17, 8]",11,0,[],21.85106173,27897,1513,1,0,11,1.9155372590441198
undo,7,11,0,1,1,8,"[0, 18, 27, 5, 2, 22, 28, 11, 15, 17, 8]",11,0,[],21.85106173,30855,2958,1,0,11,1.9155372590441198
undo,8,40,0,0,0,0,[0],1,29,"[1, 2, 3, 4, 5, 6, 7, 8, 9, 10, 11, 12, 13, 14, 15, 16, 17, 18, 19, 20, 21, 22, 23, 24, 25, 26, 27, 28, 29]",300,231,-1,8,191,9,0.0
undo,8,40,0,0,0,1,"[0, 1]",2,18,"[2, 5, 6, 7, 8, 9, 10, 11, 13, 15, 17, 18, 19, 21, 22, 23, 27, 29]",247.8463808,3997,3766,4,80,9,1.0
undo,8,40,0,0,0,6,"[0, 1, 6]",3,17,"[2, 5, 7, 8, 9, 10, 11, 13, 15, 17, 18, 19, 21, 22, 23, 27, 29]",227.7466295,4972,975,4,74,9,1.0459427008232034
undo,8,40,0,0,0,21,"[0, 1, 6, 21]",4,8,"[2, 5, 9, 17, 18, 19, 22, 23]",175.7754837,5811,839,4,25,9,1.0308822257404064
undo,8,40,0,0,0,9,"[0, 1, 6, 21, 9]",5,6,"[2, 5, 18, 19, 22, 23]",130.0699041,7693,1882,4,12,9,1.377861912961129
undo,8,40,0,0,0,18,"[0, 1, 6, 21, 9, 18]",6,5,"[2, 5, 19, 22, 23]",113.5169588,8404,711,4,4,9,1.5742712168661408
undo,8,40,0,0,0,5,"[0, 1, 6, 21, 9, 18, 5]",7,3,"[19, 22, 23]",81.94165198,11428,3024,2,1,9,1.7730665063055515
undo,8,40,0,0,0,23,"[0, 1, 6, 21, 9, 18, 5, 23]",8,1,[19],53.63970859,18307,6879,1,0,9,2.597442759912231
undo,8,40,0,0,1,19,"[0, 1, 6, 21, 9, 18, 5, 23, 19]",9,0,[],21.68661797,20522,2215,1,0,9,2.7128328554069565
undo,8,40,0,1,1,19,"[0, 1, 6, 21, 9, 18, 5, 23, 19]",9,0,[],21.68661797,21976,1454,1,0,9,2.7128328554069565
undo,9,43,0,0,0,0,[0],1,23,"[1, 2, 3, 4, 5, 6, 7, 9, 10, 11, 12, 14, 15, 16, 17, 19, 20, 21, 22, 23, 25, 27, 29]",300,202,-1,16,556,12,0.0
undo,9,43,0,0,0,29,"[0, 29]",2,22,"[1, 2, 3, 4, 5, 6, 7, 9, 10, 11, 12, 14, 15, 16, 17, 19, 20, 21, 22, 23, 25, 27]",277.909278,6973,6771,16,520,12,1.0
undo,9,43,0,0,0,20,"[0, 29, 20]",3,20,"[1, 2, 3, 4, 6, 7, 9, 10, 11, 12, 14, 15, 16, 17, 19, 21, 22, 23, 25, 27]",254.4785289,12357,5384,15,422,12,1.082311746871282
undo,9,43,0,0,0,16,"[0, 29, 20, 16]",4,19,"[1, 2, 3, 4, 6, 7, 9, 10, 11, 12, 14, 15, 17, 19, 21, 22, 23, 25, 27]",231.8511119,13270,913,15,389,12,1.215201926898219
undo,9,43,0,0,0,25,"[0, 29, 20, 16, 25]",5,14,"[1, 2, 3, 4, 6, 7, 9, 11, 12, 14, 15, 19, 22, 23]",175.7708124,14521,1251,53,282,11,1.566384303308987
undo,9,43,0,0,0,15,"[0, 29, 20, 16, 25, 15]",6,13,"[1, 2, 3, 4, 6, 7, 9, 11, 12, 14, 19, 22, 23]",153.0992443,15493,972,27,108,11,1.776736412604812
undo,9,43,0,0,0,12,"[0, 29, 20, 16, 25, 15, 12]",7,10,"[1, 3, 6, 7, 9, 11, 14, 19, 22, 23]",133.7860364,16538,1045,21,41,11,1.6813323012225032
undo,9,43,0,0,0,3,"[0, 29, 20, 16, 25, 15, 12, 3]",8,9,"[1, 6, 7, 9, 11, 14, 19, 22, 23]",120.7860364,17453,915,20,12,11,1.608740348096123
undo,9,43,0,0,0,22,"[0, 29, 20, 16, 25, 15, 12, 3, 22]",9,6,"[1, 6, 7, 11, 14, 19]",86.07292644,18404,951,9,2,11,1.793657891802588
undo,9,43,0,0,0,1,"[0, 29, 20, 16, 25, 15, 12, 3, 22, 1]",10,3,"[6, 7, 19]",54.68821679,22871,4467,3,0,11,1.7041294223736354
undo,9,43,0,0,1,19,"[0, 29, 20, 16, 25, 15, 12, 3, 22, 1, 19]",11,0,[],26.51021118,24037,1166,1,0,11,1.9686225766157022
undo,9,43,0,1,1,19,"[0, 29, 20, 16, 25, 15, 12, 3, 22, 1, 19]",11,0,[],26.51021118,25957,1920,1,0,11,1.9686225766157022
undo,10,42,0,0,0,0,[0],1,29,"[1, 2, 3, 4, 5, 6, 7, 8, 9, 10, 11, 12, 13, 14, 15, 16, 17, 18, 19, 20, 21, 22, 23, 24, 25, 26, 27, 28, 29]",300,194,-1,16,302,9,0.0
undo,10,42,0,0,0,5,"[0, 5]",2,28,"[1, 2, 3, 4, 6, 7, 8, 9, 10, 11, 12, 13, 14, 15, 16, 17, 18, 19, 20, 21, 22, 23, 24, 25, 26, 27, 28, 29]",191.2939744,5063,4869,1,22,9,1.0
undo,10,42,0,0,0,4,"[0, 5, 4]",3,23,"[1, 2, 3, 6, 7, 8, 9, 10, 11, 13, 15, 17, 18, 19, 20, 21, 22, 23, 24, 25, 26, 27, 29]",171.4445412,6357,1294,1,14,9,1.420957801478707
undo,10,42,0,0,0,22,"[0, 5, 4, 22]",4,20,"[1, 2, 3, 6, 7, 8, 9, 11, 15, 17, 18, 19, 20, 21, 23, 24, 25, 26, 27, 29]",160.2642013,7234,877,1,11,9,1.5771494659680896
undo,10,42,0,0,0,8,"[0, 5, 4, 22, 8]",5,14,"[1, 2, 3, 6, 7, 11, 15, 18, 19, 24, 25, 26, 27, 29]",138.1282577,8011,777,1,10,9,1.5055393955524201
undo,10,42,0,0,0,1,"[0, 5, 4, 22, 8, 1]",6,5,"[2, 7, 19, 26, 27]",89.03650682,9475,1464,1,7,9,1.3547259083637835
undo,10,42,0,0,0,7,"[0, 5, 4, 22, 8, 1, 7]",7,4,"[2, 19, 26, 27]",59.03650682,10738,1263,1,3,9,1.3909715672447451
undo,10,42,0,0,0,26,"[0, 5, 4, 22, 8, 1, 7, 26]",8,1,[27],32.46584631,12604,1866,1,0,9,1.3511825943939393
undo,10,42,0,0,1,27,"[0, 5, 4, 22, 8, 1, 7, 26, 27]",9,0,[],14.43808994,13772,1168,1,0,9,1.3391911688802078
undo,10,42,0,1,1,27,"[0, 5, 4, 22, 8, 1, 7, 26, 27]",9,0,[],14.43808994,16493,2721,1,0,9,1.3391911688802078
undo,11,27,0,0,0,0,[0],1,26,"[1, 3, 5, 6, 7, 8, 9, 10, 11, 12, 13, 14, 15, 16, 17, 18, 19, 21, 22, 23, 24, 25, 26, 27, 28, 29]",300,321,-1,13,578,11,0.0
undo,11,27,0,0,0,15,"[0, 15]",2,24,"[1, 3, 5, 6, 7, 8, 9, 10, 11, 12, 13, 14, 16, 17, 18, 19, 21, 22, 23, 24, 25, 26, 27, 29]",263.7508621,3524,3203,6,219,11,1.0
undo,11,27,0,0,0,24,"[0, 15, 24]",3,20,"[1, 5, 6, 7, 8, 9, 10, 12, 13, 14, 16, 17, 18, 19, 21, 23, 25, 26, 27, 29]",246.5462115,4139,615,6,130,11,1.130933077698322
undo,11,27,0,0,0,17,"[0, 15, 24, 17]",4,15,"[1, 6, 8, 10, 12, 13, 14, 16, 18, 19, 23, 25, 26, 27, 29]",229.9932662,4639,500,4,60,11,1.1285538435963374
undo,11,27,0,0,0,12,"[0, 15, 24, 17, 12]",5,14,"[1, 6, 8, 10, 13, 14, 16, 18, 19, 23, 25, 26, 27, 29]",218.8129263,5123,484,2,32,11,1.2561880288755216
undo,11,27,0,0,0,10,"[0, 15, 24, 17, 12, 10]",6,11,"[1, 8, 13, 14, 18, 19, 23, 25, 26, 27, 29]",207.7675653,5595,472,2,28,11,1.2228289337766665
undo,11,27,0,0,0,13,"[0, 15, 24, 17, 12, 10, 13]",7,9,"[1, 8, 14, 18, 19, 23, 26, 27, 29]",167.9178476,6493,898,2,18,11,1.3421291994761178
undo,11,27,0,0,0,19,"[0, 15, 24, 17, 12, 10, 13, 19]",8,5,"[1, 8, 14, 23, 29]",131.6825057,8453,1960,2,6,11,1.294749956153846
undo,11,27,0,0,0,8,"[0, 15, 24, 17, 12, 10, 13, 19, 8]",9,3,"[14, 23, 29]",116.816437,9188,735,2,1,11,1.3554286578836865
undo,11,27,0,0,0,29,"[0, 15, 24, 17, 12, 10, 13, 19, 8, 29]",10,1,[14],57.61339652,10270,1082,1,0,11,1.248354519573802
undo,11,27,0,0,1,14,"[0, 15, 24, 17, 12, 10, 13, 19, 8, 29, 14]",11,0,[],13.31892734,11437,1167,1,0,11,1.562811097555156
undo,11,27,0,1,1,14,"[0, 15, 24, 17, 12, 10, 13, 19, 8, 29, 14]",11,0,[],13.31892734,13177,1740,1,0,11,1.562811097555156
undo,12,4,0,0,0,0,[0],1,26,"[3, 4, 5, 6, 7, 8, 10, 11, 12, 13, 14, 15, 16, 17, 18, 19, 20, 21, 22, 23, 24, 25, 26, 27, 28, 29]",300,212,-1,4,489,10,0.0
undo,12,4,0,0,0,28,"[0, 28]",2,21,"[3, 4, 5, 6, 10, 11, 12, 13, 14, 15, 16, 17, 19, 20, 21, 22, 23, 24, 25, 26, 27]",225.9392142,4627,4415,2,216,10,1.0
undo,12,4,0,0,0,11,"[0, 28, 11]",3,16,"[3, 4, 5, 6, 12, 13, 14, 16, 17, 20, 21, 22, 23, 24, 25, 26]",177.0618165,6608,1981,1,99,10,1.0005230107421244
undo,12,4,0,0,0,16,"[0, 28, 11, 16]",4,13,"[3, 4, 5, 6, 12, 13, 14, 17, 20, 21, 22, 24, 25]",162.0618165,8486,1878,38,165,9,1.0006824277240565
undo,12,4,0,0,0,25,"[0, 28, 11, 16, 25]",5,10,"[3, 4, 5, 6, 13, 14, 17, 20, 21, 22]",140.5211573,9706,1220,15,40,9,1.2576116431130224
undo,12,4,0,0,0,14,"[0, 28, 11, 16, 25, 14]",6,9,"[3, 4, 5, 6, 13, 17, 20, 21, 22]",124.3966418,10341,635,9,13,9,1.2858936228570335
undo,12,4,0,0,0,3,"[0, 28, 11, 16, 25, 14, 3]",7,4,"[17, 20, 21, 22]",82.95994308,11506,1165,3,3,9,1.2444008233680606
undo,12,4,0,0,0,17,"[0, 28, 11, 16, 25, 14, 3, 17]",8,3,"[20, 21, 22]",58.44464174,12417,911,3,0,9,1.4736383799835773
undo,12,4,0,0,1,21,"[0, 28, 11, 16, 25, 14, 3, 17, 21]",9,0,[],9.190200312,16091,3674,1,0,9,1.9675827787043683
undo,12,4,1,0,0,17,"[0, 28, 11, 16, 25, 14, 3, 17]",8,3,"[20, 21, 22]",58.44464174,23958,7867,3,0,9,1.4736383799835773
undo,12,4,0,0,1,22,"[0, 28, 11, 16, 25, 14, 3, 17, 22]",9,0,[],7.848199173,28872,4914,1,0,9,1.8413700699251638
undo,12,4,0,1,1,22,"[0, 28, 11, 16, 25, 14, 3, 17, 22]",9,0,[],7.848199173,29856,984,1,0,9,1.8413700699251638
undo,13,13,0,0,0,0,[0],1,29,"[1, 2, 3, 4, 5, 6, 7, 8, 9, 10, 11, 12, 13, 14, 15, 16, 17, 18, 19, 20, 21, 22, 23, 24, 25, 26, 27, 28, 29]",300,212,-1,60,2676,11,0.0
undo,13,13,0,0,0,24,"[0, 24]",2,28,"[1, 2, 3, 4, 5, 6, 7, 8, 9, 10, 11, 12, 13, 14, 15, 16, 17, 18, 19, 20, 21, 22, 23, 25, 26, 27, 28, 29]",288.8196601,4708,4496,16,1444,11,1.0
undo,13,13,0,0,0,28,"[0, 24, 28]",3,23,"[1, 2, 3, 4, 6, 7, 8, 9, 10, 11, 12, 13, 15, 16, 17, 19, 20, 21, 22, 23, 26, 27, 29]",222.5324064,13989,9281,8,243,11,1.0513810491680837
undo,13,13,0,0,0,2,"[0, 24, 28, 2]",4,19,"[1, 3, 4, 6, 7, 9, 11, 12, 13, 15, 16, 17, 19, 20, 21, 23, 26, 27, 29]",184.889346,15005,1016,7,110,11,1.050374132001543
undo,13,13,0,0,0,29,"[0, 24, 28, 2, 29]",5,18,"[1, 3, 4, 6, 7, 9, 11, 12, 13, 15, 16, 17, 19, 20, 21, 23, 26, 27]",173.1846461,15520,515,7,85,11,1.1393409619120594
undo,13,13,0,0,0,7,"[0, 24, 28, 2, 29, 7]",6,17,"[1, 3, 4, 6, 9, 11, 12, 13, 15, 16, 17, 19, 20, 21, 23, 26, 27]",157.9203086,16403,883,5,45,11,1.349777315111579
undo,13,13,0,0,0,26,"[0, 24, 28, 2, 29, 7, 26]",7,16,"[1, 3, 4, 6, 9, 11, 12, 13, 15, 16, 17, 19, 20, 21, 23, 27]",147.480002,16856,453,5,25,11,1.5942082773824946
undo,13,13,0,0,0,6,"[0, 24, 28, 2, 29, 7, 26, 6]",8,12,"[1, 3, 4, 11, 13, 15, 16, 17, 19, 20, 23, 27]",127.3802508,17551,695,4,12,11,1.5898347940840756
undo,13,13,0,0,0,11,"[0, 24, 28, 2, 29, 7, 26, 6, 11]",9,6,"[1, 13, 15, 16, 17, 23]",108.2752776,18440,889,3,4,11,1.5029953945561012
undo,13,13,0,0,0,13,"[0, 24, 28, 2, 29, 7, 26, 6, 11, 13]",10,2,"[15, 17]",52.19497806,21235,2795,2,0,11,1.3655915863754327
undo,13,13,0,0,1,15,"[0, 24, 28, 2, 29, 7, 26, 6, 11, 13, 15]",11,0,[],12.38291958,22470,1235,1,0,11,1.3653085520078876
undo,13,13,0,1,1,15,"[0, 24, 28, 2, 29, 7, 26, 6, 11, 13, 15]",11,0,[],12.38291958,23940,1470,1,0,11,1.3653085520078876
undo,14,25,0,0,0,0,[0],1,28,"[1, 2, 3, 4, 5, 7, 8, 9, 10, 11, 12, 13, 14, 15, 16, 17, 18, 19, 20, 21, 22, 23, 24, 25, 26, 27, 28, 29]",300,345,-1,5,94,10,0.0
undo,14,25,0,0,0,29,"[0, 29]",2,27,"[1, 2, 3, 4, 5, 7, 8, 9, 10, 11, 12, 13, 14, 15, 16, 17, 18, 19, 20, 21, 22, 23, 24, 25, 26, 27, 28]",237.3741268,12693,12348,11,84,9,1.0
undo,14,25,0,0,0,19,"[0, 29, 19]",3,20,"[1, 2, 3, 5, 7, 8, 9, 11, 12, 13, 14, 16, 17, 20, 21, 22, 23, 24, 25, 28]",221.0953062,13530,837,5,39,9,1.6420669963938932
undo,14,25,0,0,0,23,"[0, 29, 19, 23]",4,14,"[1, 3, 5, 7, 8, 9, 11, 12, 13, 20, 21, 22, 24, 28]",185.2484095,14644,1114,2,12,9,2.852787711519401
undo,14,25,0,0,0,7,"[0, 29, 19, 23, 7]",5,7,"[3, 8, 9, 13, 22, 24, 28]",107.4152546,15810,1166,2,9,9,1.6432049809013747
undo,14,25,0,0,0,24,"[0, 29, 19, 23, 7, 24]",6,5,"[3, 8, 9, 13, 28]",82.6564178,16591,781,2,6,9,1.5464300806065683
undo,14,25,0,0,0,9,"[0, 29, 19, 23, 7, 24, 9]",7,4,"[3, 8, 13, 28]",64.62866143,17368,777,2,3,9,1.5077377638555578
undo,14,25,0,0,0,3,"[0, 29, 19, 23, 7, 24, 9, 3]",8,2,"[13, 28]",34.36316953,19540,2172,2,0,9,1.434680562487777
undo,14,25,0,0,1,28,"[0, 29, 19, 23, 7, 24, 9, 3, 28]",9,0,[],3.05821784,20574,1034,1,0,9,1.3722327507591214
undo,14,25,0,1,1,28,"[0, 29, 19, 23, 7, 24, 9, 3, 28]",9,0,[],3.05821784,23795,3221,1,0,9,1.3722327507591214
undo,15,45,0,0,0,0,[0],1,24,"[1, 2, 3, 4, 5, 6, 7, 9, 10, 11, 12, 14, 15, 16, 17, 19, 20, 21, 22, 23, 24, 25, 27, 29]",300,211,-1,6,248,10,0.0
undo,15,45,0,0,0,15,"[0, 15]",2,23,"[1, 2, 3, 4, 5, 6, 7, 9, 10, 11, 12, 14, 16, 17, 19, 20, 21, 22, 23, 24, 25, 27, 29]",253.9022777,8892,8681,5,207,10,1.0
undo,15,45,0,0,0,23,"[0, 15, 23]",3,22,"[1, 2, 3, 4, 5, 6, 7, 9, 10, 11, 12, 14, 16, 17, 19, 20, 21, 22, 24, 25, 27, 29]",230.3014303,9685,793,5,163,10,1.0006068457769497
undo,15,45,0,0,0,20,"[0, 15, 23, 20]",4,19,"[1, 2, 3, 5, 6, 7, 9, 10, 11, 12, 14, 16, 17, 19, 21, 22, 24, 25, 29]",188.8647316,10260,575,5,137,10,1.2062119754673604
undo,15,45,0,0,0,7,"[0, 15, 23, 20, 7]",5,14,"[2, 3, 5, 6, 9, 10, 12, 14, 17, 19, 21, 22, 24, 29]",137.2410936,11319,1059,3,38,10,1.2267717168083891
undo,15,45,0,0,0,2,"[0, 15, 23, 20, 7, 2]",6,8,"[3, 6, 10, 12, 19, 22, 24, 29]",99.22793795,12102,783,3,20,10,1.1978549169009853
undo,15,45,0,0,0,3,"[0, 15, 23, 20, 7, 2, 3]",7,5,"[6, 10, 12, 22, 29]",73.90996014,12918,816,2,7,10,1.2603420042999722
undo,15,45,0,0,0,29,"[0, 15, 23, 20, 7, 2, 3, 29]",8,3,"[6, 10, 12]",53.90996014,13635,717,2,1,10,1.527949676112761
undo,15,45,0,0,0,10,"[0, 15, 23, 20, 7, 2, 3, 29, 10]",9,1,[6],32.36930092,14768,1133,1,0,10,1.8188082660591487
undo,15,45,0,0,1,6,"[0, 15, 23, 20, 7, 2, 3, 29, 10, 6]",10,0,[],6.120491419,16067,1299,1,0,10,1.7062675391073039
undo,15,45,1,0,0,10,"[0, 15, 23, 20, 7, 2, 3, 29, 10]",9,1,[6],32.36930092,23907,7840,1,0,10,1.8188082660591487
undo,15,45,1,0,0,29,"[0, 15, 23, 20, 7, 2, 3, 29]",8,3,"[6, 10, 12]",53.90996014,24191,284,2,1,10,1.527949676112761
undo,15,45,1,0,0,3,"[0, 15, 23, 20, 7, 2, 3]",7,5,"[6, 10, 12, 22, 29]",73.90996014,24374,183,2,7,10,1.2603420042999722
undo,15,45,1,0,0,2,"[0, 15, 23, 20, 7, 2]",6,8,"[3, 6, 10, 12, 19, 22, 24, 29]",99.22793795,24574,200,3,20,10,1.1978549169009853
undo,15,45,1,0,0,7,"[0, 15, 23, 20, 7]",5,14,"[2, 3, 5, 6, 9, 10, 12, 14, 17, 19, 21, 22, 24, 29]",137.2410936,24740,166,3,38,10,1.2267717168083891
undo,15,45,1,0,0,20,"[0, 15, 23, 20]",4,19,"[1, 2, 3, 5, 6, 7, 9, 10, 11, 12, 14, 16, 17, 19, 21, 22, 24, 25, 29]",188.8647316,24940,200,5,137,10,1.2062119754673604
undo,15,45,1,0,0,23,"[0, 15, 23]",3,22,"[1, 2, 3, 4, 5, 6, 7, 9, 10, 11, 12, 14, 16, 17, 19, 20, 21, 22, 24, 25, 27, 29]",230.3014303,25107,167,5,163,10,1.0006068457769497
undo,15,45,1,0,0,15,"[0, 15]",2,23,"[1, 2, 3, 4, 5, 6, 7, 9, 10, 11, 12, 14, 16, 17, 19, 20, 21, 22, 23, 24, 25, 27, 29]",253.9022777,25440,333,5,207,10,1.0
undo,15,45,1,0,0,0,[0],1,24,"[1, 2, 3, 4, 5, 6, 7, 9, 10, 11, 12, 14, 15, 16, 17, 19, 20, 21, 22, 23, 24, 25, 27, 29]",300,25794,354,6,248,10,0.0
undo,15,45,0,0,0,17,"[0, 17]",2,22,"[1, 2, 3, 4, 5, 6, 7, 9, 10, 11, 12, 14, 15, 16, 19, 20, 21, 22, 23, 24, 25, 29]",235.867325,27169,1375,1,34,10,1.0
undo,15,45,0,0,0,24,"[0, 17, 24]",3,20,"[1, 2, 3, 4, 5, 6, 7, 9, 10, 11, 12, 14, 15, 16, 19, 20, 21, 22, 23, 29]",193.8078433,28019,850,1,33,10,1.0309432256229287
undo,15,45,0,0,0,7,"[0, 17, 24, 7]",4,18,"[1, 2, 3, 4, 5, 6, 9, 10, 12, 14, 15, 16, 19, 20, 21, 22, 23, 29]",159.3985423,28700,681,1,32,10,1.059763151913087
undo,15,45,0,0,0,2,"[0, 17, 24, 7, 2]",5,12,"[3, 4, 6, 10, 12, 14, 16, 19, 20, 22, 23, 29]",121.3853866,29849,1149,1,23,10,1.0656581932115423
undo,15,45,0,0,0,3,"[0, 17, 24, 7, 2, 3]",6,8,"[6, 10, 12, 14, 16, 20, 22, 29]",96.06740884,31165,1316,1,13,10,1.1368250049574795
undo,15,45,0,0,0,29,"[0, 17, 24, 7, 2, 3, 29]",7,5,"[6, 10, 12, 20, 22]",76.06740884,32083,918,1,5,10,1.390376182346372
undo,15,45,0,0,0,10,"[0, 17, 24, 7, 2, 3, 29, 10]",8,2,"[6, 12]",54.52674961,32680,597,1,1,10,1.6682270697663164
undo,15,45,0,0,0,6,"[0, 17, 24, 7, 2, 3, 29, 10, 6]",9,1,[12],28.27794012,33446,766,1,0,10,1.5776211572942243
undo,15,45,0,0,1,12,"[0, 17, 24, 7, 2, 3, 29, 10, 6, 12]",10,0,[],8.15332832,34232,786,1,0,10,1.536035114105263
undo,15,45,0,1,1,12,"[0, 17, 24, 7, 2, 3, 29, 10, 6, 12]",10,0,[],8.15332832,35471,1239,1,0,10,1.536035114105263
undo,16,23,0,0,0,0,[0],1,28,"[1, 2, 3, 4, 5, 6, 7, 8, 9, 10, 11, 12, 13, 14, 15, 16, 17, 18, 19, 20, 21, 22, 23, 25, 26, 27, 28, 29]",300,176,-1,76,2626,10,0.0
undo,16,23,0,0,0,13,"[0, 13]",2,19,"[1, 2, 3, 5, 6, 7, 8, 9, 10, 12, 14, 17, 18, 19, 21, 22, 23, 27, 29]",189.3202819,4072,3896,9,168,10,1.0
undo,16,23,0,0,0,12,"[0, 13, 12]",3,16,"[1, 2, 3, 6, 7, 8, 9, 10, 14, 17, 18, 21, 22, 23, 27, 29]",177.2372359,4754,682,9,96,10,1.0014195490503164
undo,16,23,0,0,0,2,"[0, 13, 12, 2]",4,12,"[1, 3, 6, 7, 9, 10, 14, 18, 21, 22, 27, 29]",163.3447919,5722,968,4,30,10,1.0014394317924602
undo,16,23,0,0,0,9,"[0, 13, 12, 2, 9]",5,10,"[1, 6, 7, 10, 14, 18, 21, 22, 27, 29]",150.3063871,6483,761,1,8,10,1.1457747074799831
undo,16,23,0,0,0,14,"[0, 13, 12, 2, 9, 14]",6,8,"[1, 6, 7, 10, 18, 22, 27, 29]",139.8660806,7306,823,1,6,10,1.1365880299138118
undo,16,23,0,0,0,29,"[0, 13, 12, 2, 9, 14, 29]",7,5,"[1, 6, 7, 10, 22]",92.43191571,8493,1187,1,3,10,1.3460297288480787
undo,16,23,0,0,0,7,"[0, 13, 12, 2, 9, 14, 29, 7]",8,2,"[1, 10]",68.34872655,9103,610,1,1,10,1.3773159292410473
undo,16,23,0,0,0,10,"[0, 13, 12, 2, 9, 14, 29, 7, 10]",9,1,[1],40.88966612,9869,766,1,0,10,1.3556884556214648
undo,16,23,0,0,1,1,"[0, 13, 12, 2, 9, 14, 29, 7, 10, 1]",10,0,[],12.23656855,10617,748,1,0,10,1.3259861306330887
undo,16,23,0,1,1,1,"[0, 13, 12, 2, 9, 14, 29, 7, 10, 1]",10,0,[],12.23656855,11424,807,1,0,10,1.3259861306330887
undo,17,29,0,0,0,0,[0],1,29,"[1, 2, 3, 4, 5, 6, 7, 8, 9, 10, 11, 12, 13, 14, 15, 16, 17, 18, 19, 20, 21, 22, 23, 24, 25, 26, 27, 28, 29]",300,253,-1,1,78,9,0.0
undo,17,29,0,0,0,6,"[0, 6]",2,28,"[1, 2, 3, 4, 5, 7, 8, 9, 10, 11, 12, 13, 14, 15, 16, 17, 18, 19, 20, 21, 22, 23, 24, 25, 26, 27, 28, 29]",228.4108947,5591,5338,1,25,9,1.0
undo,17,29,0,0,0,28,"[0, 6, 28]",3,24,"[1, 3, 4, 5, 7, 9, 10, 11, 12, 13, 14, 15, 16, 17, 18, 20, 21, 22, 23, 24, 25, 26, 27, 29]",187.1798384,6424,833,1,22,9,1.162106788166845
undo,17,29,0,0,0,27,"[0, 6, 28, 27]",4,19,"[1, 3, 4, 5, 7, 9, 10, 11, 12, 13, 14, 15, 16, 21, 22, 23, 25, 26, 29]",166.6615539,8219,1795,1,21,9,1.2307173895439045
undo,17,29,0,0,0,22,"[0, 6, 28, 27, 22]",5,13,"[1, 3, 4, 5, 7, 9, 12, 13, 14, 15, 21, 26, 29]",133.4200136,9170,951,1,19,9,1.4241767805149903
undo,17,29,0,0,0,12,"[0, 6, 28, 27, 22, 12]",6,8,"[4, 5, 7, 9, 13, 14, 21, 26]",95.4726817,9937,767,1,6,9,1.3248355326460857
undo,17,29,0,0,0,7,"[0, 6, 28, 27, 22, 12, 7]",7,4,"[4, 5, 9, 21]",81.87121119,10436,499,1,3,9,1.3264091962339806
undo,17,29,0,0,0,9,"[0, 6, 28, 27, 22, 12, 7, 9]",8,1,[4],52.80232748,11508,1072,1,0,9,1.309391257644539
undo,17,29,0,0,1,4,"[0, 6, 28, 27, 22, 12, 7, 9, 4]",9,0,[],11.76575843,13244,1736,1,0,9,1.6396807789841599
undo,17,29,0,1,1,4,"[0, 6, 28, 27, 22, 12, 7, 9, 4]",9,0,[],11.76575843,14792,1548,1,0,9,1.6396807789841599
undo,18,39,0,0,0,0,[0],1,28,"[1, 2, 3, 4, 5, 6, 7, 9, 10, 11, 12, 13, 14, 15, 16, 17, 18, 19, 20, 21, 22, 23, 24, 25, 26, 27, 28, 29]",300,333,-1,1,30,10,0.0
undo,18,39,0,0,0,29,"[0, 29]",2,26,"[1, 2, 3, 4, 5, 6, 7, 9, 10, 12, 13, 14, 15, 16, 17, 18, 19, 20, 21, 22, 23, 24, 25, 26, 27, 28]",243.0614366,4259,3926,8,104,9,1.0
undo,18,39,0,0,0,12,"[0, 29, 12]",3,18,"[1, 2, 4, 5, 7, 9, 10, 13, 14, 15, 16, 18, 19, 22, 23, 24, 26, 28]",182.5221931,5639,1380,5,54,9,1.0026200331524904
undo,18,39,0,0,0,10,"[0, 29, 12, 10]",4,16,"[1, 2, 4, 5, 7, 9, 13, 14, 15, 16, 18, 19, 22, 23, 24, 26]",147.0116313,6992,1353,5,34,9,1.2874817019928908
undo,18,39,0,0,0,7,"[0, 29, 12, 10, 7]",5,10,"[1, 2, 5, 13, 16, 18, 19, 22, 24, 26]",113.5900814,7770,778,4,12,9,1.2250826263866774
undo,18,39,0,0,0,26,"[0, 29, 12, 10, 7, 26]",6,5,"[1, 16, 18, 19, 22]",94.90853971,8937,1167,3,4,9,1.2697275353190085
undo,18,39,0,0,0,22,"[0, 29, 12, 10, 7, 26, 22]",7,2,"[16, 19]",77.18849457,9585,648,2,0,9,1.438961743955176
undo,18,39,0,0,0,16,"[0, 29, 12, 10, 7, 26, 22, 16]",8,1,[19],42.18849457,10804,1219,1,0,9,1.3580882130477205
undo,18,39,0,0,1,19,"[0, 29, 12, 10, 7, 26, 22, 16, 19]",9,0,[],24.72424537,11586,782,1,0,9,1.3646589157842668
undo,18,39,1,0,0,16,"[0, 29, 12, 10, 7, 26, 22, 16]",8,1,[19],42.18849457,15510,3924,1,0,9,1.3580882130477205
undo,18,39,1,0,0,22,"[0, 29, 12, 10, 7, 26, 22]",7,2,"[16, 19]",77.18849457,15760,250,2,0,9,1.438961743955176
undo,18,39,1,0,0,26,"[0, 29, 12, 10, 7, 26]",6,5,"[1, 16, 18, 19, 22]",94.90853971,15993,233,3,4,9,1.2697275353190085
undo,18,39,1,0,0,7,"[0, 29, 12, 10, 7]",5,10,"[1, 2, 5, 13, 16, 18, 19, 22, 24, 26]",113.5900814,16260,267,4,12,9,1.2250826263866774
undo,18,39,1,0,0,10,"[0, 29, 12, 10]",4,16,"[1, 2, 4, 5, 7, 9, 13, 14, 15, 16, 18, 19, 22, 23, 24, 26]",147.0116313,16476,216,5,34,9,1.2874817019928908
undo,18,39,1,0,0,12,"[0, 29, 12]",3,18,"[1, 2, 4, 5, 7, 9, 10, 13, 14, 15, 16, 18, 19, 22, 23, 24, 26, 28]",182.5221931,16743,267,5,54,9,1.0026200331524904
undo,18,39,1,0,0,29,"[0, 29]",2,26,"[1, 2, 3, 4, 5, 6, 7, 9, 10, 12, 13, 14, 15, 16, 17, 18, 19, 20, 21, 22, 23, 24, 25, 26, 27, 28]",243.0614366,17061,318,8,104,9,1.0
undo,18,39,1,0,0,0,[0],1,28,"[1, 2, 3, 4, 5, 6, 7, 9, 10, 11, 12, 13, 14, 15, 16, 17, 18, 19, 20, 21, 22, 23, 24, 25, 26, 27, 28, 29]",300,17327,266,1,30,10,0.0
undo,18,39,0,0,0,14,"[0, 14]",2,26,"[1, 2, 3, 4, 5, 6, 7, 9, 10, 12, 13, 15, 16, 17, 18, 19, 20, 21, 22, 23, 24, 25, 26, 27, 28, 29]",286.9615952,18926,1599,1,22,10,1.0
undo,18,39,0,0,0,29,"[0, 14, 29]",3,23,"[1, 2, 3, 4, 5, 6, 7, 9, 10, 12, 13, 15, 16, 17, 18, 19, 21, 22, 23, 24, 25, 26, 28]",218.9321898,20386,1460,1,21,10,1.4237768813412561
undo,18,39,0,0,0,12,"[0, 14, 29, 12]",4,16,"[1, 2, 4, 5, 7, 9, 10, 13, 15, 16, 18, 19, 22, 23, 24, 26]",158.3929463,21253,867,1,11,10,1.2085522586932163
undo,18,39,0,0,0,10,"[0, 14, 29, 12, 10]",5,11,"[1, 4, 5, 7, 15, 16, 18, 19, 22, 23, 26]",122.8823845,22040,787,1,8,10,1.4905426536315662
undo,18,39,0,0,0,7,"[0, 14, 29, 12, 10, 7]",6,6,"[1, 16, 18, 19, 22, 26]",89.46083457,23539,1499,1,6,10,1.3836596018032035
undo,18,39,0,0,0,26,"[0, 14, 29, 12, 10, 7, 26]",7,3,"[16, 19, 22]",70.77929288,24232,693,1,4,10,1.4191124441944845
undo,18,39,0,0,0,22,"[0, 14, 29, 12, 10, 7, 26, 22]",8,2,"[16, 19]",53.05924773,24839,607,1,1,10,1.594793297833885
undo,18,39,0,0,0,16,"[0, 14, 29, 12, 10, 7, 26, 22, 16]",9,1,[19],18.05924773,25638,799,1,0,10,1.48519520801471
undo,18,39,0,0,1,19,"[0, 14, 29, 12, 10, 7, 26, 22, 16, 19]",10,0,[],0.594998533,26302,664,1,0,10,1.484277847976571
undo,18,39,0,1,1,19,"[0, 14, 29, 12, 10, 7, 26, 22, 16, 19]",10,0,[],0.594998533,28190,1888,1,0,10,1.484277847976571
undo,19,44,0,0,0,0,[0],1,29,"[1, 2, 3, 4, 5, 6, 7, 8, 9, 10, 11, 12, 13, 14, 15, 16, 17, 18, 19, 20, 21, 22, 23, 24, 25, 26, 27, 28, 29]",300,334,-1,13,126,7,0.0
undo,19,44,0,0,0,14,"[0, 14]",2,15,"[4, 5, 6, 7, 9, 11, 12, 16, 17, 19, 22, 23, 24, 26, 28]",121.156493,10604,10270,2,9,6,1.0
undo,19,44,0,0,0,11,"[0, 14, 11]",3,5,"[4, 7, 9, 23, 24]",88.95400861,11442,838,2,3,6,1.4335325978948263
undo,19,44,0,0,0,24,"[0, 14, 11, 24]",4,3,"[4, 7, 9]",62.02818458,12208,766,2,1,6,1.5836307949102126
undo,19,44,0,0,0,9,"[0, 14, 11, 24, 9]",5,1,[4],29.27150587,13138,930,1,0,6,1.7061741313740282
undo,19,44,0,0,1,4,"[0, 14, 11, 24, 9, 4]",6,0,[],9.573790265,13669,531,1,0,6,1.653515319219223
undo,19,44,1,0,0,9,"[0, 14, 11, 24, 9]",5,1,[4],29.27150587,15425,1756,1,0,6,1.7061741313740282
undo,19,44,1,0,0,24,"[0, 14, 11, 24]",4,3,"[4, 7, 9]",62.02818458,15775,350,2,1,6,1.5836307949102126
undo,19,44,1,0,0,11,"[0, 14, 11]",3,5,"[4, 7, 9, 23, 24]",88.95400861,15992,217,2,3,6,1.4335325978948263
undo,19,44,1,0,0,14,"[0, 14]",2,15,"[4, 5, 6, 7, 9, 11, 12, 16, 17, 19, 22, 23, 24, 26, 28]",121.156493,16242,250,2,9,6,1.0
undo,19,44,1,0,0,0,[0],1,29,"[1, 2, 3, 4, 5, 6, 7, 8, 9, 10, 11, 12, 13, 14, 15, 16, 17, 18, 19, 20, 21, 22, 23, 24, 25, 26, 27, 28, 29]",300,16925,683,13,126,7,0.0
undo,19,44,0,0,0,8,"[0, 8]",2,17,"[1, 4, 5, 7, 9, 10, 11, 12, 13, 14, 15, 20, 21, 23, 24, 25, 27]",145.7923478,26601,9676,1,10,7,1.0
undo,19,44,0,0,0,20,"[0, 8, 20]",3,16,"[1, 4, 5, 7, 9, 10, 11, 12, 13, 14, 15, 21, 23, 24, 25, 27]",133.7093018,27265,664,1,9,7,1.0890794433668698
undo,19,44,0,0,0,9,"[0, 8, 20, 9]",4,7,"[4, 7, 11, 12, 14, 23, 24]",76.43801756,28701,1436,1,6,7,1.40892325509949
undo,19,44,0,0,0,4,"[0, 8, 20, 9, 4]",5,4,"[7, 12, 23, 24]",56.74030196,29723,1022,1,3,7,1.3849770570803555
undo,19,44,0,0,0,7,"[0, 8, 20, 9, 4, 7]",6,1,[23],25.72417712,31172,1449,1,0,7,1.3274380931474288
undo,19,44,0,0,1,23,"[0, 8, 20, 9, 4, 7, 23]",7,0,[],6.619203947,32383,1211,1,0,7,1.3395824779823196
undo,19,44,0,1,1,23,"[0, 8, 20, 9, 4, 7, 23]",7,0,[],6.619203947,34171,1788,1,0,7,1.3395824779823196
undo,20,21,0,0,0,0,[0],1,29,"[1, 2, 3, 4, 5, 6, 7, 8, 9, 10, 11, 12, 13, 14, 15, 16, 17, 18, 19, 20, 21, 22, 23, 24, 25, 26, 27, 28, 29]",300,202,-1,84,830,9,0.0
undo,20,21,0,0,0,20,"[0, 20]",2,28,"[1, 2, 3, 4, 5, 6, 7, 8, 9, 10, 11, 12, 13, 14, 15, 16, 17, 18, 19, 21, 22, 23, 24, 25, 26, 27, 28, 29]",217.6228187,2060,1858,6,67,9,1.0
undo,20,21,0,0,0,22,"[0, 20, 22]",3,23,"[2, 4, 6, 7, 8, 9, 10, 11, 12, 13, 14, 15, 16, 17, 18, 19, 21, 23, 24, 25, 26, 27, 29]",189.3916303,2804,744,6,47,9,1.3451865712078994
undo,20,21,0,0,0,18,"[0, 20, 22, 18]",4,20,"[2, 4, 6, 7, 8, 9, 10, 11, 12, 14, 15, 16, 17, 21, 23, 24, 25, 26, 27, 29]",162.9908727,3505,701,4,25,9,2.3191924394507706
undo,20,21,0,0,0,29,"[0, 20, 22, 18, 29]",5,16,"[2, 4, 6, 7, 8, 10, 12, 14, 15, 16, 17, 21, 23, 24, 25, 27]",134.3377751,4190,685,2,10,9,1.9554738681863184
undo,20,21,0,0,0,25,"[0, 20, 22, 18, 29, 25]",6,5,"[4, 14, 17, 21, 23]",89.11609892,5472,1282,2,5,9,3.5255206171255487
undo,20,21,0,0,0,21,"[0, 20, 22, 18, 29, 25, 21]",7,3,"[4, 14, 23]",39.78051339,6573,1101,1,2,9,2.8949037931733077
undo,20,21,0,0,0,14,"[0, 20, 22, 18, 29, 25, 21, 14]",8,1,[4],14.16801644,8204,1631,1,0,9,2.4954214602277003
undo,20,21,0,0,1,4,"[0, 20, 22, 18, 29, 25, 21, 14, 4]",9,0,[],0.025880812,8973,769,1,0,9,2.345266159905017
undo,20,21,0,1,1,4,"[0, 20, 22, 18, 29, 25, 21, 14, 4]",9,0,[],0.025880812,10878,1905,1,0,9,2.345266159905017
undo,21,34,0,0,0,0,[0],1,25,"[1, 3, 4, 5, 6, 7, 8, 9, 10, 11, 12, 13, 15, 18, 19, 20, 21, 22, 23, 24, 25, 26, 27, 28, 29]",300,208,-1,12,367,10,0.0
undo,21,34,0,0,0,13,"[0, 13]",2,24,"[1, 3, 4, 5, 6, 7, 8, 9, 10, 11, 12, 15, 18, 19, 20, 21, 22, 23, 24, 25, 26, 27, 28, 29]",279.9750156,6507,6299,12,331,10,1.0
undo,21,34,0,0,0,1,"[0, 13, 1]",3,16,"[3, 5, 7, 8, 9, 10, 11, 12, 19, 21, 22, 23, 24, 25, 27, 29]",211.8574701,7690,1183,3,92,10,1.0010381285747127
undo,21,34,0,0,0,8,"[0, 13, 1, 8]",4,14,"[3, 5, 7, 9, 10, 11, 12, 19, 22, 23, 24, 25, 27, 29]",201.0871405,8274,584,2,54,10,1.1636807
undo,21,34,0,0,0,25,"[0, 13, 1, 8, 25]",5,12,"[3, 5, 7, 9, 10, 11, 12, 22, 23, 24, 27, 29]",183.999133,8891,617,2,28,10,1.1396208815936457
undo,21,34,0,0,0,24,"[0, 13, 1, 8, 25, 24]",6,11,"[3, 5, 7, 9, 10, 11, 12, 22, 23, 27, 29]",166.5062774,9893,1002,2,23,10,1.374180768736554
undo,21,34,0,0,0,12,"[0, 13, 1, 8, 25, 24, 12]",7,7,"[7, 9, 10, 11, 22, 23, 27]",115.4670767,10939,1046,1,8,10,1.4994254760835948
undo,21,34,0,0,0,7,"[0, 13, 1, 8, 25, 24, 12, 7]",8,5,"[9, 11, 22, 23, 27]",100.4337804,14006,3067,1,4,10,1.758992610425009
undo,21,34,0,0,0,23,"[0, 13, 1, 8, 25, 24, 12, 7, 23]",9,1,[27],72.27352467,14772,766,1,0,10,2.399781305190153
undo,21,34,0,0,1,27,"[0, 13, 1, 8, 25, 24, 12, 7, 23, 27]",10,0,[],18.60789321,16554,1782,1,0,10,4.766619878750327
undo,21,34,0,1,1,27,"[0, 13, 1, 8, 25, 24, 12, 7, 23, 27]",10,0,[],18.60789321,17927,1373,1,0,10,4.766619878750327
undo,22,26,0,0,0,0,[0],1,29,"[1, 2, 3, 4, 5, 6, 7, 8, 9, 10, 11, 12, 13, 14, 15, 16, 17, 18, 19, 20, 21, 22, 23, 24, 25, 26, 27, 28, 29]",300,310,-1,9,226,9,0.0
undo,22,26,0,0,0,10,"[0, 10]",2,6,"[4, 6, 14, 16, 17, 29]",138.1822012,3123,2813,9,66,7,1.0
undo,22,26,0,0,0,6,"[0, 10, 6]",3,5,"[4, 14, 16, 17, 29]",108.9076389,4722,1599,8,23,7,1.1897813099332413
undo,22,26,0,0,0,17,"[0, 10, 6, 17]",4,4,"[4, 14, 16, 29]",88.78302709,5662,940,4,8,7,1.4865222367185558
undo,22,26,0,0,0,4,"[0, 10, 6, 17, 4]",5,3,"[14, 16, 29]",67.68800398,7824,2162,2,2,7,1.916729108705874
undo,22,26,0,0,0,29,"[0, 10, 6, 17, 4, 29]",6,2,"[14, 16]",43.68800398,8626,802,2,0,7,2.0976789920371655
undo,22,26,0,0,1,16,"[0, 10, 6, 17, 4, 29, 16]",7,0,[],19.48056711,9507,881,1,0,7,2.5058366630362654
undo,22,26,1,0,0,29,"[0, 10, 6, 17, 4, 29]",6,2,"[14, 16]",43.68800398,11611,2104,2,0,7,2.0976789920371655
undo,22,26,1,0,0,4,"[0, 10, 6, 17, 4]",5,3,"[14, 16, 29]",67.68800398,11877,266,2,2,7,1.916729108705874
undo,22,26,1,0,0,17,"[0, 10, 6, 17]",4,4,"[4, 14, 16, 29]",88.78302709,12128,251,4,8,7,1.4865222367185558
undo,22,26,1,0,0,6,"[0, 10, 6]",3,5,"[4, 14, 16, 17, 29]",108.9076389,12377,249,8,23,7,1.1897813099332413
undo,22,26,1,0,0,10,"[0, 10]",2,6,"[4, 6, 14, 16, 17, 29]",138.1822012,12661,284,9,66,7,1.0
undo,22,26,1,0,0,0,[0],1,29,"[1, 2, 3, 4, 5, 6, 7, 8, 9, 10, 11, 12, 13, 14, 15, 16, 17, 18, 19, 20, 21, 22, 23, 24, 25, 26, 27, 28, 29]",300,12977,316,9,226,9,0.0
undo,22,26,0,0,0,21,"[0, 21]",2,25,"[2, 3, 4, 5, 6, 7, 8, 10, 11, 12, 13, 14, 15, 16, 17, 18, 19, 22, 23, 24, 25, 26, 27, 28, 29]",211.1349337,14604,1627,7,90,9,1.0
undo,22,26,0,0,0,13,"[0, 21, 13]",3,21,"[3, 4, 5, 6, 7, 8, 10, 11, 12, 14, 15, 16, 17, 18, 19, 22, 23, 24, 25, 26, 29]",188.9989901,16340,1736,6,45,9,1.0103952279992225
undo,22,26,0,0,0,23,"[0, 21, 13, 23]",4,13,"[3, 4, 5, 6, 10, 11, 14, 16, 17, 18, 22, 26, 29]",150.9858345,18874,2534,3,17,9,1.1069410469330032
undo,22,26,0,0,0,16,"[0, 21, 13, 23, 16]",5,7,"[4, 5, 6, 10, 14, 17, 29]",97.75050789,19891,1017,3,13,9,1.8066634000662438
undo,22,26,0,0,0,29,"[0, 21, 13, 23, 16, 29]",6,5,"[4, 6, 10, 14, 17]",73.54307102,20535,644,3,9,9,1.853342605492142
undo,22,26,0,0,0,4,"[0, 21, 13, 23, 16, 29, 4]",7,3,"[6, 14, 17]",49.54307102,21216,681,2,2,9,2.0664369230924997
undo,22,26,0,0,0,17,"[0, 21, 13, 23, 16, 29, 4, 17]",8,2,"[6, 14]",28.44804791,22086,870,2,0,9,1.911153301956092
undo,22,26,0,0,1,14,"[0, 21, 13, 23, 16, 29, 4, 17, 14]",9,0,[],5.975842855,25067,2981,1,0,9,1.8245133223656398
undo,22,26,0,1,1,14,"[0, 21, 13, 23, 16, 29, 4, 17, 14]",9,0,[],5.975842855,28557,3490,1,0,9,1.8245133223656398
basic,23,34,0,0,0,0,[0],1,25,"[1, 3, 4, 5, 6, 7, 8, 9, 10, 11, 12, 13, 15, 18, 19, 20, 21, 22, 23, 24, 25, 26, 27, 28, 29]",300,319,-1,12,367,10,0.0
basic,23,34,0,0,0,13,"[0, 13]",2,24,"[1, 3, 4, 5, 6, 7, 8, 9, 10, 11, 12, 15, 18, 19, 20, 21, 22, 23, 24, 25, 26, 27, 28, 29]",279.9750156,8054,7735,12,331,10,1.0
basic,23,34,0,0,0,1,"[0, 13, 1]",3,16,"[3, 5, 7, 8, 9, 10, 11, 12, 19, 21, 22, 23, 24, 25, 27, 29]",211.8574701,9607,1553,3,92,10,1.0010381285747127
basic,23,34,0,0,0,8,"[0, 13, 1, 8]",4,14,"[3, 5, 7, 9, 10, 11, 12, 19, 22, 23, 24, 25, 27, 29]",201.0871405,10692,1085,2,54,10,1.1636807
basic,23,34,0,0,0,25,"[0, 13, 1, 8, 25]",5,12,"[3, 5, 7, 9, 10, 11, 12, 22, 23, 24, 27, 29]",183.999133,12741,2049,2,28,10,1.1396208815936457
basic,23,34,0,0,0,24,"[0, 13, 1, 8, 25, 24]",6,11,"[3, 5, 7, 9, 10, 11, 12, 22, 23, 27, 29]",166.5062774,13673,932,2,23,10,1.374180768736554
basic,23,34,0,0,0,12,"[0, 13, 1, 8, 25, 24, 12]",7,7,"[7, 9, 10, 11, 22, 23, 27]",115.4670767,21657,7984,1,8,10,1.4994254760835948
basic,23,34,0,0,0,7,"[0, 13, 1, 8, 25, 24, 12, 7]",8,5,"[9, 11, 22, 23, 27]",100.4337804,22905,1248,1,4,10,1.758992610425009
basic,23,34,0,0,0,23,"[0, 13, 1, 8, 25, 24, 12, 7, 23]",9,1,[27],72.27352467,25136,2231,1,0,10,2.399781305190153
basic,23,34,0,0,1,27,"[0, 13, 1, 8, 25, 24, 12, 7, 23, 27]",10,0,[],18.60789321,26522,1386,1,0,10,4.766619878750327
basic,23,34,0,1,1,27,"[0, 13, 1, 8, 25, 24, 12, 7, 23, 27]",10,0,[],18.60789321,28292,1770,1,0,10,4.766619878750327
basic,24,2,0,0,0,0,[0],1,23,"[1, 2, 4, 5, 6, 7, 8, 9, 12, 13, 15, 16, 17, 18, 19, 20, 22, 23, 25, 26, 27, 28, 29]",300,208,-1,70,620,10,0.0
basic,24,2,0,0,0,19,"[0, 19]",2,22,"[1, 2, 4, 5, 6, 7, 8, 9, 12, 13, 15, 16, 17, 18, 20, 22, 23, 25, 26, 27, 28, 29]",210.306076,5533,5325,67,431,10,1.0
basic,24,2,0,0,0,12,"[0, 19, 12]",3,17,"[1, 4, 5, 6, 7, 13, 15, 16, 17, 18, 20, 22, 25, 26, 27, 28, 29]",174.2921898,6486,953,66,298,10,1.1107635036313153
basic,24,2,0,0,0,5,"[0, 19, 12, 5]",4,11,"[1, 6, 7, 13, 15, 16, 18, 22, 25, 26, 29]",144.7625437,7485,999,38,136,10,1.0968174771581647
basic,24,2,0,0,0,22,"[0, 19, 12, 5, 22]",5,8,"[1, 6, 7, 13, 15, 18, 26, 29]",131.9562952,8587,1102,20,63,10,1.0889910507461968
basic,24,2,0,0,0,13,"[0, 19, 12, 5, 22, 13]",6,7,"[1, 6, 7, 15, 18, 26, 29]",117.0902265,9798,1211,19,20,10,1.236526217328057
basic,24,2,0,0,0,18,"[0, 19, 12, 5, 22, 13, 18]",7,4,"[7, 15, 26, 29]",81.91921567,10835,1037,10,3,10,1.2128708213409936
basic,24,2,0,0,0,7,"[0, 19, 12, 5, 22, 13, 18, 7]",8,3,"[15, 26, 29]",71.62358553,17434,6599,5,0,10,1.2019811287894737
basic,24,2,0,0,0,26,"[0, 19, 12, 5, 22, 13, 18, 7, 26]",9,2,"[15, 29]",48.82007703,18367,933,2,0,10,1.1883593342191134
basic,24,2,0,0,1,15,"[0, 19, 12, 5, 22, 13, 18, 7, 26, 15]",10,0,[],24.61264015,19566,1199,1,0,10,1.4619750353663825
basic,24,2,0,1,1,15,"[0, 19, 12, 5, 22, 13, 18, 7, 26, 15]",10,0,[],24.61264015,22704,3138,1,0,10,1.4619750353663825
basic,25,21,0,0,0,0,[0],1,29,"[1, 2, 3, 4, 5, 6, 7, 8, 9, 10, 11, 12, 13, 14, 15, 16, 17, 18, 19, 20, 21, 22, 23, 24, 25, 26, 27, 28, 29]",300,164,-1,84,830,9,0.0
basic,25,21,0,0,0,20,"[0, 20]",2,28,"[1, 2, 3, 4, 5, 6, 7, 8, 9, 10, 11, 12, 13, 14, 15, 16, 17, 18, 19, 21, 22, 23, 24, 25, 26, 27, 28, 29]",217.6228187,11642,11478,6,67,9,1.0
basic,25,21,0,0,0,22,"[0, 20, 22]",3,23,"[2, 4, 6, 7, 8, 9, 10, 11, 12, 13, 14, 15, 16, 17, 18, 19, 21, 23, 24, 25, 26, 27, 29]",189.3916303,12657,1015,6,47,9,1.3451865712078994
basic,25,21,0,0,0,29,"[0, 20, 22, 29]",4,18,"[2, 4, 6, 7, 8, 10, 11, 12, 14, 15, 16, 17, 18, 21, 23, 24, 25, 27]",159.1261384,28757,16100,2,19,9,1.6628724818562788
basic,25,21,0,0,0,18,"[0, 20, 22, 29, 18]",5,10,"[4, 6, 10, 11, 12, 14, 17, 21, 23, 25]",130.4730408,30018,1261,1,6,9,2.869631022456117
basic,25,21,0,0,0,25,"[0, 20, 22, 29, 18, 25]",6,5,"[4, 14, 17, 21, 23]",88.71181477,31073,1055,1,5,9,3.532279369684197
basic,25,21,0,0,0,23,"[0, 20, 22, 29, 18, 25, 23]",7,3,"[4, 14, 21]",45.38745672,33418,2345,1,2,9,2.5713192195571195
basic,25,21,0,0,0,14,"[0, 20, 22, 29, 18, 25, 23, 14]",8,1,[4],16.31857301,34757,1339,1,0,9,2.476646286962021
basic,25,21,0,0,1,4,"[0, 20, 22, 29, 18, 25, 23, 14, 4]",9,0,[],2.17643739,35586,829,1,0,9,2.328452617520104
basic,25,21,0,1,1,4,"[0, 20, 22, 29, 18, 25, 23, 14, 4]",9,0,[],2.17643739,42673,7087,1,0,9,2.328452617520104
basic,26,16,0,0,0,0,[0],1,29,"[1, 2, 3, 4, 5, 6, 7, 8, 9, 10, 11, 12, 13, 14, 15, 16, 17, 18, 19, 20, 21, 22, 23, 24, 25, 26, 27, 28, 29]",300,206,-1,13,161,9,0.0
basic,26,16,0,0,0,28,"[0, 28]",2,27,"[1, 2, 3, 4, 5, 7, 8, 9, 10, 11, 12, 13, 14, 15, 16, 17, 18, 19, 20, 21, 22, 23, 24, 25, 26, 27, 29]",284.3475242,11221,11015,11,92,9,1.0
basic,26,16,0,0,0,17,"[0, 28, 17]",3,26,"[1, 2, 3, 4, 5, 7, 8, 9, 10, 11, 12, 13, 14, 15, 16, 18, 19, 20, 21, 22, 23, 24, 25, 26, 27, 29]",219.1555001,13021,1800,10,46,9,1.3773866384707543
basic,26,16,0,0,0,16,"[0, 28, 17, 16]",4,25,"[1, 2, 3, 4, 5, 7, 8, 9, 10, 11, 12, 13, 14, 15, 18, 19, 20, 21, 22, 23, 24, 25, 26, 27, 29]",190.8358956,14289,1268,10,34,9,1.3209953830681203
basic,26,16,0,0,0,8,"[0, 28, 17, 16, 8]",5,12,"[3, 4, 5, 9, 12, 13, 15, 19, 20, 21, 25, 29]",142.4623491,15526,1237,6,19,9,1.2700932705506198
basic,26,16,0,0,0,20,"[0, 28, 17, 16, 8, 20]",6,6,"[4, 5, 9, 12, 15, 25]",84.6869218,18140,2614,4,4,9,1.1899382910703262
basic,26,16,0,0,0,25,"[0, 28, 17, 16, 8, 20, 25]",7,3,"[5, 9, 15]",72.03781116,18956,816,2,2,9,1.2372268181049477
basic,26,16,0,0,0,9,"[0, 28, 17, 16, 8, 20, 25, 9]",8,2,"[5, 15]",59.23156268,19786,830,2,0,9,1.221922950237529
basic,26,16,0,0,1,15,"[0, 28, 17, 16, 8, 20, 25, 9, 15]",9,0,[],20.334262,22300,2514,1,0,9,1.318239760375411
basic,26,16,0,1,1,15,"[0, 28, 17, 16, 8, 20, 25, 9, 15]",9,0,[],20.334262,23523,1223,1,0,9,1.318239760375411
basic,27,13,0,0,0,0,[0],1,29,"[1, 2, 3, 4, 5, 6, 7, 8, 9, 10, 11, 12, 13, 14, 15, 16, 17, 18, 19, 20, 21, 22, 23, 24, 25, 26, 27, 28, 29]",300,290,-1,60,2676,11,0.0
basic,27,13,0,0,0,24,"[0, 24]",2,28,"[1, 2, 3, 4, 5, 6, 7, 8, 9, 10, 11, 12, 13, 14, 15, 16, 17, 18, 19, 20, 21, 22, 23, 25, 26, 27, 28, 29]",288.8196601,3285,2995,16,1444,11,1.0
basic,27,13,0,0,0,28,"[0, 24, 28]",3,23,"[1, 2, 3, 4, 6, 7, 8, 9, 10, 11, 12, 13, 15, 16, 17, 19, 20, 21, 22, 23, 26, 27, 29]",222.5324064,7520,4235,8,243,11,1.0513810491680837
basic,27,13,0,0,0,2,"[0, 24, 28, 2]",4,19,"[1, 3, 4, 6, 7, 9, 11, 12, 13, 15, 16, 17, 19, 20, 21, 23, 26, 27, 29]",184.889346,9218,1698,7,110,11,1.050374132001543
basic,27,13,0,0,0,29,"[0, 24, 28, 2, 29]",5,18,"[1, 3, 4, 6, 7, 9, 11, 12, 13, 15, 16, 17, 19, 20, 21, 23, 26, 27]",173.1846461,10317,1099,7,85,11,1.1393409619120594
basic,27,13,0,0,0,7,"[0, 24, 28, 2, 29, 7]",6,17,"[1, 3, 4, 6, 9, 11, 12, 13, 15, 16, 17, 19, 20, 21, 23, 26, 27]",157.9203086,11606,1289,5,45,11,1.349777315111579
basic,27,13,0,0,0,26,"[0, 24, 28, 2, 29, 7, 26]",7,16,"[1, 3, 4, 6, 9, 11, 12, 13, 15, 16, 17, 19, 20, 21, 23, 27]",147.480002,12638,1032,5,25,11,1.5942082773824946
basic,27,13,0,0,0,23,"[0, 24, 28, 2, 29, 7, 26, 23]",8,7,"[3, 6, 9, 11, 16, 20, 21]",87.94009946,18719,6081,1,3,11,3.752244221680436
basic,27,13,0,0,0,16,"[0, 24, 28, 2, 29, 7, 26, 23, 16]",9,2,"[3, 20]",47.62881072,19700,981,1,1,11,2.741707822136858
basic,27,13,0,0,0,3,"[0, 24, 28, 2, 29, 7, 26, 23, 16, 3]",10,1,[20],19.18588541,20734,1034,1,0,11,2.7575891066466034
basic,27,13,0,0,1,20,"[0, 24, 28, 2, 29, 7, 26, 23, 16, 3, 20]",11,0,[],0.159587819,21817,1083,1,0,11,2.7253714915146405
basic,27,13,0,1,1,20,"[0, 24, 28, 2, 29, 7, 26, 23, 16, 3, 20]",11,0,[],0.159587819,23839,2022,1,0,11,2.7253714915146405
basic,28,20,0,0,0,0,[0],1,21,"[1, 2, 3, 4, 5, 6, 7, 8, 9, 12, 17, 18, 20, 21, 22, 23, 25, 26, 27, 28, 29]",300,214,-1,1,9,9,0.0
basic,28,20,0,0,0,12,"[0, 12]",2,20,"[1, 2, 3, 4, 5, 6, 7, 8, 9, 17, 18, 20, 21, 22, 23, 25, 26, 27, 28, 29]",271.5570747,13720,13506,1,8,9,1.0
basic,28,20,0,0,0,5,"[0, 12, 5]",3,13,"[1, 3, 4, 6, 8, 9, 20, 21, 23, 26, 27, 28, 29]",171.4321527,32401,18681,2,19,8,1.0232843285905395
basic,28,20,0,0,0,21,"[0, 12, 5, 21]",4,10,"[1, 4, 6, 8, 9, 20, 23, 26, 27, 28]",126.4321527,34184,1783,2,12,8,1.017525191374897
basic,28,20,0,0,0,8,"[0, 12, 5, 21, 8]",5,6,"[1, 6, 9, 23, 27, 28]",108.9679035,34749,565,2,6,8,1.0391698601004782
basic,28,20,0,0,0,23,"[0, 12, 5, 21, 8, 23]",6,3,"[6, 9, 27]",64.28009758,35566,817,2,1,8,1.0348450868606567
basic,28,20,0,0,0,9,"[0, 12, 5, 21, 8, 23, 9]",7,1,[6],45.07072487,36399,833,1,0,8,1.0335348098288684
basic,28,20,0,0,1,6,"[0, 12, 5, 21, 8, 23, 9, 6]",8,0,[],22.048996,39491,3092,1,0,8,1.0486850646228845
basic,28,20,0,1,1,6,"[0, 12, 5, 21, 8, 23, 9, 6]",8,0,[],22.048996,41404,1913,1,0,8,1.0486850646228845
basic,29,26,0,0,0,0,[0],1,29,"[1, 2, 3, 4, 5, 6, 7, 8, 9, 10, 11, 12, 13, 14, 15, 16, 17, 18, 19, 20, 21, 22, 23, 24, 25, 26, 27, 28, 29]",300,198,-1,9,226,9,0.0
basic,29,26,0,0,0,4,"[0, 4]",2,13,"[5, 6, 10, 12, 13, 14, 16, 17, 19, 21, 23, 26, 29]",178.7976898,16325,16127,4,118,8,1.0
basic,29,26,0,0,0,17,"[0, 4, 17]",3,10,"[5, 6, 10, 12, 13, 14, 16, 21, 23, 29]",157.7026667,17536,1211,1,35,8,1.0014732588101924
basic,29,26,0,0,0,29,"[0, 4, 17, 29]",4,8,"[5, 6, 10, 13, 14, 16, 21, 23]",127.288854,29335,11799,12,11,7,1.4134825848205483
basic,29,26,0,0,0,16,"[0, 4, 17, 29, 16]",5,7,"[5, 6, 10, 13, 14, 21, 23]",103.0814172,30419,1084,8,2,7,1.7590432125494753
basic,29,26,0,0,0,21,"[0, 4, 17, 29, 16, 21]",6,1,[13],43.17315395,31818,1399,1,0,7,2.890076572060961
basic,29,26,0,0,1,13,"[0, 4, 17, 29, 16, 21, 13]",7,0,[],21.03721033,32965,1147,1,0,7,2.5392802437189252
basic,29,26,0,1,1,13,"[0, 4, 17, 29, 16, 21, 13]",7,0,[],21.03721033,34040,1075,1,0,7,2.5392802437189252
basic,30,1,0,0,0,0,[0],1,26,"[1, 2, 4, 5, 7, 8, 9, 10, 11, 12, 13, 14, 15, 16, 17, 18, 19, 20, 21, 22, 23, 24, 25, 26, 28, 29]",300,175,-1,6,74,7,0.0
basic,30,1,0,0,0,14,"[0, 14]",2,19,"[1, 4, 5, 8, 9, 13, 15, 17, 18, 19, 20, 21, 22, 23, 24, 25, 26, 28, 29]",200.1901808,27635,27460,5,42,7,1.0
basic,30,1,0,0,0,17,"[0, 14, 17]",3,15,"[1, 4, 5, 8, 9, 13, 15, 18, 19, 20, 22, 23, 25, 28, 29]",147.8356204,30096,2461,5,27,7,1.0028844724416826
basic,30,1,0,0,0,1,"[0, 14, 17, 1]",4,12,"[4, 5, 8, 9, 15, 18, 20, 22, 23, 25, 28, 29]",123.4840291,31053,957,5,15,7,1.0264985578353567
basic,30,1,0,0,0,28,"[0, 14, 17, 1, 28]",5,5,"[9, 15, 22, 23, 29]",88.59850198,32198,1145,5,3,7,1.0339861575999345
basic,30,1,0,0,0,23,"[0, 14, 17, 1, 28, 23]",6,2,"[15, 22]",51.70676849,33180,982,2,0,7,1.0327458250705703
basic,30,1,0,0,1,22,"[0, 14, 17, 1, 28, 23, 22]",7,0,[],3.696352956,38219,5039,1,0,7,1.0700788216594126
basic,30,1,0,1,1,22,"[0, 14, 17, 1, 28, 23, 22]",7,0,[],3.696352956,39418,1199,1,0,7,1.0700788216594126
basic,31,38,0,0,0,0,[0],1,29,"[1, 2, 3, 4, 5, 6, 7, 8, 9, 10, 11, 12, 13, 14, 15, 16, 17, 18, 19, 20, 21, 22, 23, 24, 25, 26, 27, 28, 29]",300,349,-1,33,506,9,0.0
basic,31,38,0,0,0,19,"[0, 19]",2,23,"[3, 4, 5, 6, 7, 8, 9, 11, 13, 14, 15, 16, 17, 18, 20, 22, 23, 24, 25, 26, 27, 28, 29]",219.5015528,6474,6125,6,61,9,1.0
basic,31,38,0,0,0,17,"[0, 19, 17]",3,21,"[3, 4, 5, 6, 7, 9, 11, 13, 14, 15, 16, 18, 20, 22, 23, 24, 25, 26, 27, 28, 29]",198.1239945,7152,678,6,53,9,1.571793785769489
basic,31,38,0,0,0,20,"[0, 19, 17, 20]",4,17,"[3, 4, 5, 6, 7, 11, 13, 14, 15, 16, 18, 22, 24, 25, 26, 27, 28]",174.3542658,8137,985,6,44,9,2.333182710277297
basic,31,38,0,0,0,15,"[0, 19, 17, 20, 15]",5,9,"[4, 5, 11, 13, 14, 16, 24, 26, 28]",118.8925673,12586,4449,10,14,8,2.468219326855957
basic,31,38,0,0,0,4,"[0, 19, 17, 20, 15, 4]",6,6,"[11, 13, 16, 24, 26, 28]",92.89256734,13887,1301,4,3,8,2.953858913055544
basic,31,38,0,0,0,13,"[0, 19, 17, 20, 15, 4, 13]",7,1,[26],61.4919304,16046,2159,1,0,8,2.4401159229489866
basic,31,38,0,0,1,26,"[0, 19, 17, 20, 15, 4, 13, 26]",8,0,[],30.44358101,16800,754,1,0,8,2.1410906006451786
basic,31,38,0,1,1,26,"[0, 19, 17, 20, 15, 4, 13, 26]",8,0,[],30.44358101,18808,2008,1,0,8,2.1410906006451786
basic,32,10,0,0,0,0,[0],1,29,"[1, 2, 3, 4, 5, 6, 7, 8, 9, 10, 11, 12, 13, 14, 15, 16, 17, 18, 19, 20, 21, 22, 23, 24, 25, 26, 27, 28, 29]",300,279,-1,1,100,9,0.0
basic,32,10,0,0,0,13,"[0, 13]",2,25,"[1, 2, 3, 4, 6, 7, 8, 9, 10, 11, 12, 14, 17, 18, 19, 20, 21, 22, 23, 24, 25, 26, 27, 28, 29]",249.4628849,46665,46386,1,79,9,1.0
basic,32,10,0,0,0,19,"[0, 13, 19]",3,12,"[2, 6, 8, 9, 10, 11, 14, 18, 20, 24, 26, 27]",180.5861835,48168,1503,11,79,8,1.0000581961988606
basic,32,10,0,0,0,2,"[0, 13, 19, 2]",4,5,"[11, 14, 20, 26, 27]",136.6771867,49144,976,3,9,8,1.000456581399483
basic,32,10,0,0,0,14,"[0, 13, 19, 2, 14]",5,4,"[11, 20, 26, 27]",124.5116616,50194,1050,3,6,8,1.0972737011325653
basic,32,10,0,0,0,26,"[0, 13, 19, 2, 14, 26]",6,3,"[11, 20, 27]",89.84178999,51528,1334,3,1,8,1.5868342521575007
basic,32,10,0,0,0,11,"[0, 13, 19, 2, 14, 26, 11]",7,1,[20],48.08056395,52580,1052,1,0,8,2.7772471764176028
basic,32,10,0,0,1,20,"[0, 13, 19, 2, 14, 26, 11, 20]",8,0,[],10.00169842,53615,1035,1,0,8,2.3959438836221785
basic,32,10,0,1,1,20,"[0, 13, 19, 2, 14, 26, 11, 20]",8,0,[],10.00169842,54817,1202,1,0,8,2.3959438836221785
basic,33,43,0,0,0,0,[0],1,23,"[1, 2, 3, 4, 5, 6, 7, 9, 10, 11, 12, 14, 15, 16, 17, 19, 20, 21, 22, 23, 25, 27, 29]",300,334,-1,16,556,12,0.0
basic,33,43,0,0,0,29,"[0, 29]",2,22,"[1, 2, 3, 4, 5, 6, 7, 9, 10, 11, 12, 14, 15, 16, 17, 19, 20, 21, 22, 23, 25, 27]",277.909278,12124,11790,16,520,12,1.0
basic,33,43,0,0,0,20,"[0, 29, 20]",3,20,"[1, 2, 3, 4, 6, 7, 9, 10, 11, 12, 14, 15, 16, 17, 19, 21, 22, 23, 25, 27]",254.4785289,13059,935,15,422,12,1.082311746871282
basic,33,43,0,0,0,16,"[0, 29, 20, 16]",4,19,"[1, 2, 3, 4, 6, 7, 9, 10, 11, 12, 14, 15, 17, 19, 21, 22, 23, 25, 27]",231.8511119,14789,1730,15,389,12,1.215201926898219
basic,33,43,0,0,0,15,"[0, 29, 20, 16, 15]",5,14,"[1, 2, 3, 4, 6, 7, 9, 11, 12, 14, 19, 22, 23, 25]",188.5267539,16305,1516,3,109,12,1.3482474915350444
basic,33,43,0,0,0,25,"[0, 29, 20, 16, 15, 25]",6,12,"[1, 3, 4, 6, 7, 9, 11, 12, 14, 19, 22, 23]",165.8551858,20622,4317,2,43,12,1.691408721191545
basic,33,43,0,0,0,12,"[0, 29, 20, 16, 15, 25, 12]",7,11,"[1, 3, 4, 6, 7, 9, 11, 14, 19, 22, 23]",141.6684126,22420,1798,2,32,12,1.6015983641428178
basic,33,43,0,0,0,3,"[0, 29, 20, 16, 15, 25, 12, 3]",8,10,"[1, 4, 6, 7, 9, 11, 14, 19, 22, 23]",128.6684126,23336,916,2,24,12,1.5379830456120627
basic,33,43,0,0,0,22,"[0, 29, 20, 16, 15, 25, 12, 3, 22]",9,6,"[1, 6, 7, 11, 14, 19]",93.95530264,24888,1552,1,11,12,1.7275686117408873
basic,33,43,0,0,0,19,"[0, 29, 20, 16, 15, 25, 12, 3, 22, 19]",10,4,"[1, 6, 7, 11]",73.33977451,25668,780,1,3,12,1.6315360037595275
basic,33,43,0,0,0,1,"[0, 29, 20, 16, 15, 25, 12, 3, 22, 19, 1]",11,1,[7],45.1617689,26836,1168,1,0,12,1.7703076545303877
basic,33,43,0,0,1,7,"[0, 29, 20, 16, 15, 25, 12, 3, 22, 19, 1, 7]",12,0,[],6.951822553,28099,1263,1,0,12,1.6607094905815594
basic,33,43,0,1,1,7,"[0, 29, 20, 16, 15, 25, 12, 3, 22, 19, 1, 7]",12,0,[],6.951822553,29790,1691,1,0,12,1.6607094905815594
basic,34,15,0,0,0,0,[0],1,25,"[1, 2, 3, 4, 7, 8, 9, 10, 11, 12, 13, 14, 15, 16, 18, 20, 21, 22, 23, 24, 25, 26, 27, 28, 29]",300,245,-1,4,65,9,0.0
basic,34,15,0,0,0,12,"[0, 12]",2,22,"[1, 2, 3, 4, 7, 8, 9, 10, 11, 13, 14, 15, 16, 18, 21, 22, 23, 24, 26, 27, 28, 29]",213.547701,24571,24326,4,35,9,1.0
basic,34,15,0,0,0,7,"[0, 12, 7]",3,16,"[1, 3, 4, 8, 9, 10, 11, 13, 14, 15, 16, 18, 21, 22, 24, 27]",180.3061607,25419,848,4,29,9,1.411291635294361
basic,34,15,0,0,0,11,"[0, 12, 7, 11]",4,9,"[3, 4, 13, 14, 15, 16, 21, 22, 27]",138.8212237,30821,5402,2,12,9,1.2980572092387541
basic,34,15,0,0,0,16,"[0, 12, 7, 11, 16]",5,6,"[3, 4, 13, 14, 15, 22]",112.802,31875,1054,5,7,8,1.639755162381675
basic,34,15,0,0,0,3,"[0, 12, 7, 11, 16, 3]",6,5,"[4, 13, 14, 15, 22]",87.72212764,32736,861,3,3,8,1.6035706685901854
basic,34,15,0,0,0,22,"[0, 12, 7, 11, 16, 3, 22]",7,2,"[13, 15]",37.9928606,33884,1148,2,0,8,1.5186586986954977
basic,34,15,0,0,1,15,"[0, 12, 7, 11, 16, 3, 22, 15]",8,0,[],12.38036365,37100,3216,1,0,8,1.4646095613599284
basic,34,15,0,1,1,15,"[0, 12, 7, 11, 16, 3, 22, 15]",8,0,[],12.38036365,38706,1606,1,0,8,1.4646095613599284
basic,35,8,0,0,0,0,[0],1,29,"[1, 2, 3, 4, 5, 6, 7, 8, 9, 10, 11, 12, 13, 14, 15, 16, 17, 18, 19, 20, 21, 22, 23, 24, 25, 26, 27, 28, 29]",300,206,-1,10,149,9,0.0
basic,35,8,0,0,0,5,"[0, 5]",2,28,"[1, 2, 3, 4, 6, 7, 8, 9, 10, 11, 12, 13, 14, 15, 16, 17, 18, 19, 20, 21, 22, 23, 24, 25, 26, 27, 28, 29]",254.5137383,7987,7781,10,100,9,1.0
basic,35,8,0,0,0,14,"[0, 5, 14]",3,20,"[1, 2, 3, 4, 6, 7, 11, 15, 16, 17, 18, 19, 20, 21, 22, 23, 24, 25, 28, 29]",214.5512559,14873,6886,4,36,9,1.0001019035932595
basic,35,8,0,0,0,17,"[0, 5, 14, 17]",4,15,"[1, 4, 6, 7, 11, 15, 16, 18, 19, 20, 22, 23, 24, 25, 28]",177.5377449,16050,1177,4,16,9,1.121197267659591
basic,35,8,0,0,0,11,"[0, 5, 14, 17, 11]",5,11,"[1, 4, 15, 16, 18, 19, 22, 23, 24, 25, 28]",152.3583883,17016,966,4,8,9,1.1277254166016362
basic,35,8,0,0,0,24,"[0, 5, 14, 17, 11, 24]",6,3,"[15, 16, 28]",115.1428001,17919,903,2,2,9,1.1227411011978805
basic,35,8,0,0,0,15,"[0, 5, 14, 17, 11, 24, 15]",7,2,"[16, 28]",98.37974552,18529,610,2,0,9,1.1956385406066814
basic,35,8,0,0,0,16,"[0, 5, 14, 17, 11, 24, 15, 16]",8,1,[28],47.30137436,19405,876,1,0,9,1.36482239111247
basic,35,8,0,0,1,28,"[0, 5, 14, 17, 11, 24, 15, 16, 28]",9,0,[],24.94069458,21433,2028,1,0,9,1.632953105226947
basic,35,8,0,1,1,28,"[0, 5, 14, 17, 11, 24, 15, 16, 28]",9,0,[],24.94069458,22423,990,1,0,9,1.632953105226947
basic,36,31,0,0,0,0,[0],1,27,"[1, 3, 4, 5, 6, 7, 8, 10, 11, 12, 13, 14, 15, 16, 17, 18, 19, 20, 21, 22, 23, 24, 25, 26, 27, 28, 29]",300,154,-1,2,87,10,0.0
basic,36,31,0,0,0,14,"[0, 14]",2,25,"[1, 3, 5, 6, 7, 8, 10, 11, 12, 13, 15, 16, 17, 18, 19, 20, 21, 22, 23, 24, 25, 26, 27, 28, 29]",263.861378,3756,3602,2,59,10,1.0
basic,36,31,0,0,0,27,"[0, 14, 27]",3,22,"[1, 3, 5, 6, 7, 8, 10, 11, 12, 13, 15, 16, 17, 18, 19, 20, 21, 22, 24, 25, 28, 29]",235.6833724,4910,1154,1,39,10,1.5881859159302467
basic,36,31,0,0,0,8,"[0, 14, 27, 8]",4,20,"[1, 3, 5, 6, 7, 10, 11, 12, 13, 16, 17, 18, 19, 20, 21, 22, 24, 25, 28, 29]",224.6380114,5686,776,1,36,10,2.1665048452331277
basic,36,31,0,0,0,18,"[0, 14, 27, 8, 18]",5,15,"[1, 5, 6, 7, 11, 12, 13, 16, 17, 19, 20, 22, 25, 28, 29]",188.7911147,7256,1570,1,26,10,1.7273375741920205
basic,36,31,0,0,0,17,"[0, 14, 27, 8, 18, 17]",6,13,"[1, 5, 6, 7, 11, 12, 13, 16, 19, 20, 22, 25, 28]",159.584951,10572,3316,1,13,10,1.551192427769927
basic,36,31,0,0,0,11,"[0, 14, 27, 8, 18, 17, 11]",7,7,"[5, 12, 16, 19, 22, 25, 28]",118.4753414,11504,932,1,4,10,2.9650760544203494
basic,36,31,0,0,0,5,"[0, 14, 27, 8, 18, 17, 11, 5]",8,2,"[16, 28]",74.79468207,12772,1268,1,1,10,2.56711965625205
basic,36,31,0,0,0,28,"[0, 14, 27, 8, 18, 17, 11, 5, 28]",9,1,[16],54.57093365,13453,681,1,0,10,2.2865510762058148
basic,36,31,0,0,1,16,"[0, 14, 27, 8, 18, 17, 11, 5, 28, 16]",10,0,[],20.95546102,14156,703,1,0,10,2.089356850786318
basic,36,31,0,1,1,16,"[0, 14, 27, 8, 18, 17, 11, 5, 28, 16]",10,0,[],20.95546102,15009,853,1,0,10,2.089356850786318
basic,37,45,0,0,0,0,[0],1,24,"[1, 2, 3, 4, 5, 6, 7, 9, 10, 11, 12, 14, 15, 16, 17, 19, 20, 21, 22, 23, 24, 25, 27, 29]",300,241,-1,6,248,10,0.0
basic,37,45,0,0,0,15,"[0, 15]",2,23,"[1, 2, 3, 4, 5, 6, 7, 9, 10, 11, 12, 14, 16, 17, 19, 20, 21, 22, 23, 24, 25, 27, 29]",253.9022777,4571,4330,5,207,10,1.0
basic,37,45,0,0,0,23,"[0, 15, 23]",3,22,"[1, 2, 3, 4, 5, 6, 7, 9, 10, 11, 12, 14, 16, 17, 19, 20, 21, 22, 24, 25, 27, 29]",230.3014303,5493,922,5,163,10,1.0006068457769497
basic,37,45,0,0,0,20,"[0, 15, 23, 20]",4,19,"[1, 2, 3, 5, 6, 7, 9, 10, 11, 12, 14, 16, 17, 19, 21, 22, 24, 25, 29]",188.8647316,6420,927,5,137,10,1.2062119754673604
basic,37,45,0,0,0,7,"[0, 15, 23, 20, 7]",5,14,"[2, 3, 5, 6, 9, 10, 12, 14, 17, 19, 21, 22, 24, 29]",137.2410936,7521,1101,3,38,10,1.2267717168083891
basic,37,45,0,0,0,2,"[0, 15, 23, 20, 7, 2]",6,8,"[3, 6, 10, 12, 19, 22, 24, 29]",99.22793795,8624,1103,3,20,10,1.1978549169009853
basic,37,45,0,0,0,3,"[0, 15, 23, 20, 7, 2, 3]",7,5,"[6, 10, 12, 22, 29]",73.90996014,9437,813,2,7,10,1.2603420042999722
basic,37,45,0,0,0,29,"[0, 15, 23, 20, 7, 2, 3, 29]",8,3,"[6, 10, 12]",53.90996014,10502,1065,2,1,10,1.527949676112761
basic,37,45,0,0,0,6,"[0, 15, 23, 20, 7, 2, 3, 29, 6]",9,1,[12],25.74970446,13073,2571,1,0,10,1.5923001203110776
basic,37,45,0,0,1,12,"[0, 15, 23, 20, 7, 2, 3, 29, 6, 12]",10,0,[],5.625092666,14405,1332,1,0,10,1.5493416175473684
basic,37,45,0,1,1,12,"[0, 15, 23, 20, 7, 2, 3, 29, 6, 12]",10,0,[],5.625092666,15925,1520,1,0,10,1.5493416175473684
basic,38,32,0,0,0,0,[0],1,29,"[1, 2, 3, 4, 5, 6, 7, 8, 9, 10, 11, 12, 13, 14, 15, 16, 17, 18, 19, 20, 21, 22, 23, 24, 25, 26, 27, 28, 29]",300,269,-1,17,359,10,0.0
basic,38,32,0,0,0,19,"[0, 19]",2,28,"[1, 2, 3, 4, 5, 6, 7, 8, 9, 10, 11, 12, 13, 14, 15, 16, 17, 18, 20, 21, 22, 23, 24, 25, 26, 27, 28, 29]",283.5075775,14927,14658,16,294,10,1.0
basic,38,32,0,0,0,13,"[0, 19, 13]",3,24,"[2, 3, 4, 5, 6, 8, 9, 10, 11, 12, 14, 15, 16, 17, 18, 20, 21, 22, 23, 24, 25, 26, 27, 28]",260.3127505,16042,1115,14,227,10,1.0172874229878615
basic,38,32,0,0,0,15,"[0, 19, 13, 15]",4,18,"[2, 3, 5, 8, 9, 10, 11, 12, 16, 17, 20, 22, 23, 24, 25, 26, 27, 28]",177.4393531,18656,2614,9,116,10,1.435447391509833
basic,38,32,0,0,0,28,"[0, 19, 13, 15, 28]",5,17,"[2, 3, 5, 8, 9, 10, 11, 12, 16, 17, 20, 22, 23, 24, 25, 26, 27]",166.0375988,19478,822,9,70,10,1.3843701324937985
basic,38,32,0,0,0,12,"[0, 19, 13, 15, 28, 12]",6,14,"[2, 3, 5, 8, 9, 10, 11, 16, 17, 20, 22, 24, 26, 27]",147.0639329,20256,778,6,35,10,1.358372254952329
basic,38,32,0,0,0,16,"[0, 19, 13, 15, 28, 12, 16]",7,13,"[2, 3, 5, 8, 9, 10, 11, 17, 20, 22, 24, 26, 27]",131.411457,22109,1853,5,15,10,1.4356932930709845
basic,38,32,0,0,0,22,"[0, 19, 13, 15, 28, 12, 16, 22]",8,6,"[2, 8, 9, 17, 20, 27]",97.57360838,23675,1566,3,5,10,1.4335226411545752
basic,38,32,0,0,0,9,"[0, 19, 13, 15, 28, 12, 16, 22, 9]",9,3,"[2, 8, 20]",75.37000507,25592,1917,3,0,10,1.4837166378374758
basic,38,32,0,0,1,8,"[0, 19, 13, 15, 28, 12, 16, 22, 9, 8]",10,0,[],30.24794838,30887,5295,1,0,10,1.3767698817641267
basic,38,32,0,1,1,8,"[0, 19, 13, 15, 28, 12, 16, 22, 9, 8]",10,0,[],30.24794838,32826,1939,1,0,10,1.3767698817641267
basic,39,33,0,0,0,0,[0],1,23,"[1, 2, 5, 7, 8, 11, 12, 13, 14, 15, 16, 17, 18, 19, 20, 21, 23, 24, 25, 26, 27, 28, 29]",300,212,-1,5,108,9,0.0
basic,39,33,0,0,0,8,"[0, 8]",2,22,"[1, 2, 5, 7, 11, 12, 13, 14, 15, 16, 17, 18, 19, 20, 21, 23, 24, 25, 26, 27, 28, 29]",265.8679037,2907,2695,5,87,9,1.0
basic,39,33,0,0,0,21,"[0, 8, 21]",3,16,"[2, 5, 7, 11, 13, 14, 16, 17, 18, 19, 20, 24, 26, 27, 28, 29]",166.0430571,5638,2731,5,80,9,1.0670557763739492
basic,39,33,0,0,0,13,"[0, 8, 21, 13]",4,12,"[2, 7, 11, 14, 16, 17, 18, 19, 20, 24, 26, 29]",139.6422995,7775,2137,4,54,9,1.0555103820910288
basic,39,33,0,0,0,19,"[0, 8, 21, 13, 19]",5,10,"[7, 11, 14, 16, 17, 18, 20, 24, 26, 29]",114.1472019,9007,1232,3,19,9,1.1090798607799486
basic,39,33,0,0,0,7,"[0, 8, 21, 13, 19, 7]",6,5,"[14, 18, 24, 26, 29]",68.52922302,10121,1114,1,4,9,1.086202642130009
basic,39,33,0,0,0,14,"[0, 8, 21, 13, 19, 7, 14]",7,3,"[24, 26, 29]",53.66315427,10904,783,1,2,9,1.1354822367616264
basic,39,33,0,0,0,26,"[0, 8, 21, 13, 19, 7, 14, 26]",8,1,[29],41.01404363,11664,760,1,0,9,1.144734735418919
basic,39,33,0,0,1,29,"[0, 8, 21, 13, 19, 7, 14, 26, 29]",9,0,[],13.12139227,12886,1222,1,0,9,1.3638482940300902
basic,39,33,0,1,1,29,"[0, 8, 21, 13, 19, 7, 14, 26, 29]",9,0,[],13.12139227,14092,1206,1,0,9,1.3638482940300902
basic,40,14,0,0,0,0,[0],1,29,"[1, 2, 3, 4, 5, 6, 7, 8, 9, 10, 11, 12, 13, 14, 15, 16, 17, 18, 19, 20, 21, 22, 23, 24, 25, 26, 27, 28, 29]",300,349,-1,8,157,10,0.0
basic,40,14,0,0,0,15,"[0, 15]",2,20,"[1, 2, 3, 4, 7, 8, 9, 13, 17, 18, 19, 20, 21, 22, 23, 25, 26, 27, 28, 29]",216.7053423,8390,8041,8,102,10,1.0
basic,40,14,0,0,0,28,"[0, 15, 28]",3,17,"[1, 2, 3, 4, 7, 8, 9, 13, 17, 18, 19, 20, 22, 23, 25, 26, 27]",197.4959696,9203,813,8,48,10,1.0446007867311968
basic,40,14,0,0,0,17,"[0, 15, 28, 17]",4,14,"[1, 2, 3, 4, 7, 8, 13, 18, 19, 20, 22, 23, 25, 26]",184.0423455,9806,603,8,39,10,1.0729463354689972
basic,40,14,0,0,0,18,"[0, 15, 28, 17, 18]",5,9,"[1, 2, 4, 7, 8, 19, 23, 25, 26]",119.412631,11434,1628,8,27,10,1.5035901079219378
basic,40,14,0,0,0,8,"[0, 15, 28, 17, 18, 8]",6,8,"[1, 2, 4, 7, 19, 23, 25, 26]",105.8111605,12522,1088,8,18,10,1.4819689987843856
basic,40,14,0,0,0,1,"[0, 15, 28, 17, 18, 8, 1]",7,5,"[7, 19, 23, 25, 26]",82.21031307,13645,1123,4,6,10,1.4084991998385268
basic,40,14,0,0,0,19,"[0, 15, 28, 17, 18, 8, 1, 19]",8,4,"[7, 23, 25, 26]",66.97876686,14562,917,4,1,10,1.5758713333797987
basic,40,14,0,0,0,23,"[0, 15, 28, 17, 18, 8, 1, 19, 23]",9,1,[26],22.70687962,18776,4214,1,0,10,1.4751929839361517
basic,40,14,0,0,1,26,"[0, 15, 28, 17, 18, 8, 1, 19, 23, 26]",10,0,[],11.89022579,19635,859,1,0,10,1.4521765305442214
basic,40,14,0,1,1,26,"[0, 15, 28, 17, 18, 8, 1, 19, 23, 26]",10,0,[],11.89022579,20992,1357,1,0,10,1.4521765305442214
basic,41,18,0,0,0,0,[0],1,28,"[1, 2, 3, 4, 5, 6, 7, 8, 9, 10, 11, 12, 13, 14, 16, 17, 18, 19, 20, 21, 22, 23, 24, 25, 26, 27, 28, 29]",300,213,-1,3,136,10,0.0
basic,41,18,0,0,0,28,"[0, 28]",2,16,"[1, 3, 5, 7, 8, 9, 12, 13, 14, 16, 20, 23, 24, 25, 26, 27]",236.4311397,5291,5078,2,19,10,1.0
basic,41,18,0,0,0,7,"[0, 28, 7]",3,15,"[1, 3, 5, 8, 9, 12, 13, 14, 16, 20, 23, 24, 25, 26, 27]",214.4084242,7889,2598,2,17,10,1.4345180696367563
basic,41,18,0,0,0,25,"[0, 28, 7, 25]",4,13,"[1, 3, 5, 8, 9, 12, 13, 14, 16, 20, 23, 26, 27]",186.6055466,9774,1885,2,15,10,1.8896451241781882
basic,41,18,0,0,0,8,"[0, 28, 7, 25, 8]",5,10,"[3, 5, 9, 12, 13, 14, 16, 23, 26, 27]",149.551532,11477,1703,2,10,10,1.590467437592877
basic,41,18,0,0,0,13,"[0, 28, 7, 25, 8, 13]",6,9,"[3, 5, 9, 12, 14, 16, 23, 26, 27]",128.4565089,12477,1000,2,5,10,1.8248274983549797
basic,41,18,0,0,0,14,"[0, 28, 7, 25, 8, 13, 14]",7,7,"[3, 5, 9, 12, 23, 26, 27]",109.4828429,13470,993,2,3,10,1.6993534956692746
basic,41,18,0,0,0,3,"[0, 28, 7, 25, 8, 13, 14, 3]",8,3,"[5, 12, 27]",79.39962499,14323,853,2,1,10,1.802637206541468
basic,41,18,0,0,0,5,"[0, 28, 7, 25, 8, 13, 14, 3, 5]",9,1,[12],21.21887216,15304,981,1,0,10,1.559774889743805
basic,41,18,0,0,1,12,"[0, 28, 7, 25, 8, 13, 14, 3, 5, 12]",10,0,[],9.817117911,16400,1096,1,0,10,1.563993037384447
basic,41,18,0,1,1,12,"[0, 28, 7, 25, 8, 13, 14, 3, 5, 12]",10,0,[],9.817117911,17492,1092,1,0,10,1.563993037384447
basic,42,3,0,0,0,0,[0],1,29,"[1, 2, 3, 4, 5, 6, 7, 8, 9, 10, 11, 12, 13, 14, 15, 16, 17, 18, 19, 20, 21, 22, 23, 24, 25, 26, 27, 28, 29]",300,262,-1,34,427,10,0.0
basic,42,3,0,0,0,8,"[0, 8]",2,28,"[1, 2, 3, 4, 5, 6, 7, 9, 10, 11, 12, 13, 14, 15, 16, 17, 18, 19, 20, 21, 22, 23, 24, 25, 26, 27, 28, 29]",239.9666759,6024,5762,1,54,10,1.0
basic,42,3,0,0,0,24,"[0, 8, 24]",3,23,"[1, 2, 3, 4, 5, 6, 7, 10, 11, 12, 14, 15, 16, 17, 18, 19, 20, 21, 22, 25, 26, 27, 28]",227.8011509,6745,721,1,50,10,1.2267083825981846
basic,42,3,0,0,0,17,"[0, 8, 24, 17]",4,11,"[3, 4, 7, 10, 14, 15, 16, 19, 20, 21, 27]",158.4469873,7525,780,1,18,10,1.3836579788002414
basic,42,3,0,0,0,20,"[0, 8, 24, 17, 20]",5,9,"[3, 4, 7, 10, 14, 15, 16, 19, 21]",145.7978767,8392,867,1,14,10,1.3620097615632467
basic,42,3,0,0,0,3,"[0, 8, 24, 17, 20, 3]",6,5,"[4, 10, 14, 19, 21]",125.4017986,9173,781,1,11,10,1.3956695218398405
basic,42,3,0,0,0,19,"[0, 8, 24, 17, 20, 3, 19]",7,4,"[4, 10, 14, 21]",88.06548922,11076,1903,1,4,10,1.4360605238855817
basic,42,3,0,0,0,21,"[0, 8, 24, 17, 20, 3, 19, 21]",8,2,"[10, 14]",75.85893361,12841,1765,1,1,10,1.4576450248605066
basic,42,3,0,0,0,14,"[0, 8, 24, 17, 20, 3, 19, 21, 14]",9,1,[10],48.95168551,15541,2700,1,0,10,1.9505702217699148
basic,42,3,0,0,1,10,"[0, 8, 24, 17, 20, 3, 19, 21, 14, 10]",10,0,[],3.498412803,18122,2581,1,0,10,1.8830527336542522
basic,42,3,0,1,1,10,"[0, 8, 24, 17, 20, 3, 19, 21, 14, 10]",10,0,[],3.498412803,19977,1855,1,0,10,1.8830527336542522
basic,43,17,0,0,0,0,[0],1,28,"[1, 2, 3, 4, 5, 6, 7, 8, 9, 10, 11, 12, 13, 14, 15, 16, 17, 18, 19, 20, 22, 23, 24, 25, 26, 27, 28, 29]",300,239,-1,2,73,8,0.0
basic,43,17,0,0,0,19,"[0, 19]",2,9,"[3, 4, 5, 10, 11, 18, 20, 22, 28]",138.1049723,14006,13767,1,8,6,1.0
basic,43,17,0,0,0,5,"[0, 19, 5]",3,5,"[3, 10, 11, 22, 28]",98.81120687,14846,840,1,5,6,1.1200340368749155
basic,43,17,0,0,0,28,"[0, 19, 5, 28]",4,2,"[3, 11]",60.32744406,15670,824,1,1,6,1.1548774814009009
basic,43,17,0,0,0,3,"[0, 19, 5, 28, 3]",5,1,[11],26.32744406,16602,932,1,0,6,1.444690353691831
basic,43,17,0,0,1,11,"[0, 19, 5, 28, 3, 11]",6,0,[],0.154939406,23796,7194,1,0,6,1.4783074152117983
basic,43,17,0,1,1,11,"[0, 19, 5, 28, 3, 11]",6,0,[],0.154939406,24908,1112,1,0,6,1.4783074152117983
basic,44,28,0,0,0,0,[0],1,27,"[1, 2, 3, 4, 5, 6, 7, 8, 9, 10, 11, 12, 13, 14, 15, 16, 17, 18, 19, 20, 22, 23, 25, 26, 27, 28, 29]",300,345,-1,2,96,9,0.0
basic,44,28,0,0,0,3,"[0, 3]",2,26,"[1, 2, 4, 5, 6, 7, 8, 9, 10, 11, 12, 13, 14, 15, 16, 17, 18, 19, 20, 22, 23, 25, 26, 27, 28, 29]",251.0817008,4157,3812,1,64,9,1.0
basic,44,28,0,0,0,5,"[0, 3, 5]",3,20,"[2, 4, 6, 7, 8, 9, 10, 11, 12, 13, 14, 15, 18, 19, 20, 23, 25, 26, 28, 29]",166.9865166,5738,1581,1,34,9,1.0203769473612083
basic,44,28,0,0,0,26,"[0, 3, 5, 26]",4,13,"[2, 4, 7, 8, 9, 12, 13, 14, 18, 19, 20, 25, 28]",134.2298379,6974,1236,1,28,9,1.0315203228799597
basic,44,28,0,0,0,19,"[0, 3, 5, 26, 19]",5,7,"[2, 7, 9, 12, 13, 14, 18]",93.22983789,17063,10089,1,17,9,1.1324645362297356
basic,44,28,0,0,0,7,"[0, 3, 5, 26, 19, 7]",6,5,"[2, 12, 13, 14, 18]",65.49898864,18274,1211,1,6,9,1.1971194919020265
basic,44,28,0,0,0,12,"[0, 3, 5, 26, 19, 7, 12]",7,2,"[13, 18]",52.3460422,19469,1195,1,1,9,1.2020762147848982
basic,44,28,0,0,0,13,"[0, 3, 5, 26, 19, 7, 12, 13]",8,1,[18],35.14139167,20775,1306,1,0,9,1.39005144078531
basic,44,28,0,0,1,18,"[0, 3, 5, 26, 19, 7, 12, 13, 18]",9,0,[],10.72828044,22723,1948,1,0,9,1.738787343626007
basic,44,28,0,1,1,18,"[0, 3, 5, 26, 19, 7, 12, 13, 18]",9,0,[],10.72828044,24292,1569,1,0,9,1.738787343626007
basic,45,44,0,0,0,0,[0],1,29,"[1, 2, 3, 4, 5, 6, 7, 8, 9, 10, 11, 12, 13, 14, 15, 16, 17, 18, 19, 20, 21, 22, 23, 24, 25, 26, 27, 28, 29]",300,329,-1,13,126,7,0.0
basic,45,44,0,0,0,8,"[0, 8]",2,17,"[1, 4, 5, 7, 9, 10, 11, 12, 13, 14, 15, 20, 21, 23, 24, 25, 27]",145.7923478,11859,11530,1,10,7,1.0
basic,45,44,0,0,0,20,"[0, 8, 20]",3,16,"[1, 4, 5, 7, 9, 10, 11, 12, 13, 14, 15, 21, 23, 24, 25, 27]",133.7093018,12574,715,1,9,7,1.0890794433668698
basic,45,44,0,0,0,9,"[0, 8, 20, 9]",4,7,"[4, 7, 11, 12, 14, 23, 24]",76.43801756,13808,1234,1,6,7,1.40892325509949
basic,45,44,0,0,0,4,"[0, 8, 20, 9, 4]",5,4,"[7, 12, 23, 24]",56.74030196,14594,786,1,3,7,1.3849770570803555
basic,45,44,0,0,0,7,"[0, 8, 20, 9, 4, 7]",6,1,[23],25.72417712,16205,1611,1,0,7,1.3274380931474288
basic,45,44,0,0,1,23,"[0, 8, 20, 9, 4, 7, 23]",7,0,[],6.619203947,16803,598,1,0,7,1.3395824779823196
basic,45,44,0,1,1,23,"[0, 8, 20, 9, 4, 7, 23]",7,0,[],6.619203947,17609,806,1,0,7,1.3395824779823196
basic,46,35,0,0,0,0,[0],1,29,"[1, 2, 3, 4, 5, 6, 7, 8, 9, 10, 11, 12, 13, 14, 15, 16, 17, 18, 19, 20, 21, 22, 23, 24, 25, 26, 27, 28, 29]",300,283,-1,5,236,11,0.0
basic,46,35,0,0,0,24,"[0, 24]",2,27,"[1, 2, 4, 5, 6, 7, 8, 9, 10, 11, 12, 13, 14, 15, 16, 17, 18, 19, 20, 21, 22, 23, 25, 26, 27, 28, 29]",268.9838752,7338,7055,49,512,10,1.0
basic,46,35,0,0,0,17,"[0, 24, 17]",3,26,"[1, 2, 4, 5, 6, 7, 8, 9, 10, 11, 12, 13, 14, 15, 16, 18, 19, 20, 21, 22, 23, 25, 26, 27, 28, 29]",257.2791753,8359,1021,33,238,10,1.0771477201815276
basic,46,35,0,0,0,1,"[0, 24, 17, 1]",4,25,"[2, 4, 5, 6, 7, 8, 9, 10, 11, 12, 13, 14, 15, 16, 18, 19, 20, 21, 22, 23, 25, 26, 27, 28, 29]",241.4677869,9624,1265,26,151,10,1.2244804141479215
basic,46,35,0,0,0,15,"[0, 24, 17, 1, 15]",5,23,"[2, 4, 5, 6, 7, 8, 9, 10, 11, 12, 14, 16, 18, 19, 20, 21, 22, 23, 25, 26, 27, 28, 29]",218.6204676,15041,5417,26,78,10,1.4642196672428094
basic,46,35,0,0,0,23,"[0, 24, 17, 1, 15, 23]",6,11,"[4, 5, 6, 9, 18, 19, 25, 26, 27, 28, 29]",158.1804147,16056,1015,15,12,10,1.3338903684702363
basic,46,35,0,0,0,9,"[0, 24, 17, 1, 15, 23, 9]",7,6,"[5, 6, 18, 19, 25, 27]",120.5373542,17270,1214,6,1,10,1.5964380615155294
basic,46,35,0,0,0,18,"[0, 24, 17, 1, 15, 23, 9, 18]",8,3,"[5, 6, 25]",100.5123698,18005,735,2,1,10,1.5508488101942703
basic,46,35,0,0,0,25,"[0, 24, 17, 1, 15, 23, 9, 18, 25]",9,1,[6],66.67452121,19573,1568,1,0,10,1.4408023801578587
basic,46,35,0,0,1,6,"[0, 24, 17, 1, 15, 23, 9, 18, 25, 6]",10,0,[],42.65369691,21486,1913,1,0,10,1.701781671832088
basic,46,35,0,1,1,6,"[0, 24, 17, 1, 15, 23, 9, 18, 25, 6]",10,0,[],42.65369691,27559,6073,1,0,10,1.701781671832088
basic,47,39,0,0,0,0,[0],1,28,"[1, 2, 3, 4, 5, 6, 7, 9, 10, 11, 12, 13, 14, 15, 16, 17, 18, 19, 20, 21, 22, 23, 24, 25, 26, 27, 28, 29]",300,192,-1,1,30,10,0.0
basic,47,39,0,0,0,29,"[0, 29]",2,26,"[1, 2, 3, 4, 5, 6, 7, 9, 10, 12, 13, 14, 15, 16, 17, 18, 19, 20, 21, 22, 23, 24, 25, 26, 27, 28]",243.0614366,4371,4179,8,104,9,1.0
basic,47,39,0,0,0,12,"[0, 29, 12]",3,18,"[1, 2, 4, 5, 7, 9, 10, 13, 14, 15, 16, 18, 19, 22, 23, 24, 26, 28]",182.5221931,5634,1263,5,54,9,1.0026200331524904
basic,47,39,0,0,0,10,"[0, 29, 12, 10]",4,16,"[1, 2, 4, 5, 7, 9, 13, 14, 15, 16, 18, 19, 22, 23, 24, 26]",147.0116313,6437,803,5,34,9,1.2874817019928908
basic,47,39,0,0,0,7,"[0, 29, 12, 10, 7]",5,10,"[1, 2, 5, 13, 16, 18, 19, 22, 24, 26]",113.5900814,7328,891,4,12,9,1.2250826263866774
basic,47,39,0,0,0,26,"[0, 29, 12, 10, 7, 26]",6,5,"[1, 16, 18, 19, 22]",94.90853971,7937,609,3,4,9,1.2697275353190085
basic,47,39,0,0,0,22,"[0, 29, 12, 10, 7, 26, 22]",7,2,"[16, 19]",77.18849457,8700,763,2,0,9,1.438961743955176
basic,47,39,0,0,0,16,"[0, 29, 12, 10, 7, 26, 22, 16]",8,1,[19],42.18849457,10651,1951,1,0,9,1.3580882130477205
basic,47,39,0,0,1,19,"[0, 29, 12, 10, 7, 26, 22, 16, 19]",9,0,[],24.72424537,12114,1463,1,0,9,1.3646589157842668
basic,47,39,0,1,1,19,"[0, 29, 12, 10, 7, 26, 22, 16, 19]",9,0,[],24.72424537,34402,22288,1,0,9,1.3646589157842668
basic,48,25,0,0,0,0,[0],1,28,"[1, 2, 3, 4, 5, 7, 8, 9, 10, 11, 12, 13, 14, 15, 16, 17, 18, 19, 20, 21, 22, 23, 24, 25, 26, 27, 28, 29]",300,195,-1,5,94,10,0.0
basic,48,25,0,0,0,23,"[0, 23]",2,23,"[1, 2, 3, 5, 7, 8, 9, 11, 12, 13, 14, 16, 17, 19, 20, 21, 22, 24, 25, 26, 27, 28, 29]",259.7756293,10741,10546,3,33,10,1.0
basic,48,25,0,0,0,19,"[0, 23, 19]",3,21,"[1, 2, 3, 5, 7, 8, 9, 11, 12, 13, 14, 16, 17, 20, 21, 22, 24, 25, 27, 28, 29]",223.9287326,12054,1313,3,24,10,1.583101227007039
basic,48,25,0,0,0,29,"[0, 23, 19, 29]",4,19,"[1, 2, 3, 5, 7, 8, 9, 11, 12, 13, 14, 16, 17, 20, 21, 22, 24, 25, 28]",207.649912,13111,1057,3,17,10,1.474631541426484
basic,48,25,0,0,0,22,"[0, 23, 19, 29, 22]",5,18,"[1, 2, 3, 5, 7, 8, 9, 11, 12, 13, 14, 16, 17, 20, 21, 24, 25, 28]",191.5253965,14508,1397,3,14,10,1.4020377754906637
basic,48,25,0,0,0,7,"[0, 23, 19, 29, 22, 7]",6,7,"[3, 8, 9, 11, 13, 24, 28]",115.8814939,17270,2762,3,11,10,1.5709678649326715
basic,48,25,0,0,0,24,"[0, 23, 19, 29, 22, 7, 24]",7,5,"[3, 8, 9, 13, 28]",91.12265712,18937,1667,3,7,10,1.486191600033379
basic,48,25,0,0,0,9,"[0, 23, 19, 29, 22, 7, 24, 9]",8,4,"[3, 8, 13, 28]",73.09490075,20537,1600,3,3,10,1.453504870342882
basic,48,25,0,0,0,3,"[0, 23, 19, 29, 22, 7, 24, 9, 3]",9,3,"[8, 13, 28]",42.82940885,22159,1622,3,0,10,1.388955167525479
basic,48,25,0,0,1,28,"[0, 23, 19, 29, 22, 7, 24, 9, 3, 28]",10,0,[],11.52445716,25721,3562,1,0,10,1.3331084120212044
basic,48,25,0,1,1,28,"[0, 23, 19, 29, 22, 7, 24, 9, 3, 28]",10,0,[],11.52445716,42438,16717,1,0,10,1.3331084120212044
basic,49,29,0,0,0,0,[0],1,29,"[1, 2, 3, 4, 5, 6, 7, 8, 9, 10, 11, 12, 13, 14, 15, 16, 17, 18, 19, 20, 21, 22, 23, 24, 25, 26, 27, 28, 29]",300,232,-1,1,78,9,0.0
basic,49,29,0,0,0,14,"[0, 14]",2,22,"[1, 3, 4, 5, 6, 7, 9, 10, 11, 12, 13, 15, 16, 17, 21, 22, 23, 25, 26, 27, 28, 29]",209.490332,8522,8290,21,110,8,1.0
basic,49,29,0,0,0,13,"[0, 14, 13]",3,18,"[1, 4, 5, 6, 7, 9, 10, 12, 15, 16, 17, 21, 22, 25, 26, 27, 28, 29]",191.4625756,9340,818,20,75,8,1.0027006502223275
basic,49,29,0,0,0,5,"[0, 14, 13, 5]",4,15,"[1, 4, 6, 7, 9, 12, 15, 17, 21, 22, 25, 26, 27, 28, 29]",165.7526554,10279,939,19,49,8,1.0803937325657265
basic,49,29,0,0,0,4,"[0, 14, 13, 5, 4]",5,5,"[7, 9, 12, 21, 22]",113.8585324,11573,1294,5,5,8,1.0589046774357636
basic,49,29,0,0,0,9,"[0, 14, 13, 5, 4, 9]",6,3,"[7, 12, 21]",72.82196333,12542,969,2,1,8,1.2033484462540056
basic,49,29,0,0,0,7,"[0, 14, 13, 5, 4, 9, 7]",7,1,[12],43.75307962,13236,694,1,0,8,1.5581999677939193
basic,49,29,0,0,1,12,"[0, 14, 13, 5, 4, 9, 7, 12]",8,0,[],30.15160911,13757,521,1,0,8,1.747955919287298
basic,49,29,0,1,1,12,"[0, 14, 13, 5, 4, 9, 7, 12]",8,0,[],30.15160911,15027,1270,1,0,8,1.747955919287298
basic,50,41,0,0,0,0,[0],1,29,"[1, 2, 3, 4, 5, 6, 7, 8, 9, 10, 11, 12, 13, 14, 15, 16, 17, 18, 19, 20, 21, 22, 23, 24, 25, 26, 27, 28, 29]",300,355,-1,1,143,10,0.0
basic,50,41,0,0,0,13,"[0, 13]",2,23,"[1, 2, 3, 5, 6, 7, 9, 10, 11, 12, 14, 15, 17, 18, 19, 20, 21, 22, 24, 25, 26, 27, 28]",258.2747079,4006,3651,1,55,10,1.0
basic,50,41,0,0,0,28,"[0, 13, 28]",3,22,"[1, 2, 3, 5, 6, 7, 9, 10, 11, 12, 14, 15, 17, 18, 19, 20, 21, 22, 24, 25, 26, 27]",223.7928286,5022,1016,1,39,10,1.895724242592676
basic,50,41,0,0,0,5,"[0, 13, 28, 5]",4,19,"[1, 2, 3, 6, 9, 10, 11, 12, 14, 15, 17, 18, 19, 20, 21, 22, 24, 25, 27]",210.1913581,5537,515,1,34,10,2.861541269398273
basic,50,41,0,0,0,22,"[0, 13, 28, 5, 22]",5,12,"[2, 3, 6, 9, 10, 11, 12, 17, 18, 20, 21, 25]",155.4464953,6675,1138,11,12,9,2.096079268852861
basic,50,41,0,0,0,3,"[0, 13, 28, 5, 22, 3]",6,8,"[2, 9, 10, 12, 17, 18, 20, 21]",125.4798472,7611,936,7,5,9,4.404491319005463
basic,50,41,0,0,0,21,"[0, 13, 28, 5, 22, 3, 21]",7,4,"[2, 9, 12, 17]",93.33952984,8489,878,5,1,9,4.228139797553632
basic,50,41,0,0,0,9,"[0, 13, 28, 5, 22, 3, 21, 9]",8,2,"[2, 17]",43.97354965,9488,999,2,0,9,3.111188754077749
basic,50,41,0,0,1,2,"[0, 13, 28, 5, 22, 3, 21, 9, 2]",9,0,[],31.89050368,10111,623,1,0,9,2.963304814480547
basic,50,41,0,1,1,2,"[0, 13, 28, 5, 22, 3, 21, 9, 2]",9,0,[],31.89050368,13710,3599,1,0,9,2.963304814480547
basic,51,19,0,0,0,0,[0],1,29,"[1, 2, 3, 4, 5, 6, 7, 8, 9, 10, 11, 12, 13, 14, 15, 16, 17, 18, 19, 20, 21, 22, 23, 24, 25, 26, 27, 28, 29]",300,281,-1,12,149,8,0.0
basic,51,19,0,0,0,29,"[0, 29]",2,28,"[1, 2, 3, 4, 5, 6, 7, 8, 9, 10, 11, 12, 13, 14, 15, 16, 17, 18, 19, 20, 21, 22, 23, 24, 25, 26, 27, 28]",265.0715016,8210,7929,12,120,8,1.0
basic,51,19,0,0,0,9,"[0, 29, 9]",3,17,"[1, 4, 5, 6, 7, 10, 11, 12, 13, 14, 19, 20, 21, 22, 24, 27, 28]",181.7108394,9173,963,11,65,8,1.0375842971861238
basic,51,19,0,0,0,6,"[0, 29, 9, 6]",4,12,"[4, 7, 10, 11, 13, 14, 20, 21, 22, 24, 27, 28]",140.2741407,10824,1651,11,34,8,1.0389786364356892
basic,51,19,0,0,0,14,"[0, 29, 9, 6, 14]",5,7,"[4, 10, 11, 20, 22, 24, 28]",80.59164747,11926,1102,3,6,8,1.0491884155331486
basic,51,19,0,0,0,11,"[0, 29, 9, 6, 14, 11]",6,5,"[4, 20, 22, 24, 28]",69.77499364,14224,2298,3,2,8,1.050030420094996
basic,51,19,0,0,0,20,"[0, 29, 9, 6, 14, 11, 20]",7,1,[22],21.97332003,16108,1884,1,0,8,1.2297732331070566
basic,51,19,0,0,1,22,"[0, 29, 9, 6, 14, 11, 20, 22]",8,0,[],8.82037359,16672,564,1,0,8,1.3667995105273867
basic,51,19,0,1,1,22,"[0, 29, 9, 6, 14, 11, 20, 22]",8,0,[],8.82037359,18611,1939,1,0,8,1.3667995105273867
basic,52,23,0,0,0,0,[0],1,28,"[1, 2, 3, 4, 5, 6, 7, 8, 9, 10, 11, 12, 13, 14, 15, 16, 17, 18, 19, 20, 21, 22, 23, 25, 26, 27, 28, 29]",300,306,-1,76,2626,10,0.0
basic,52,23,0,0,0,13,"[0, 13]",2,19,"[1, 2, 3, 5, 6, 7, 8, 9, 10, 12, 14, 17, 18, 19, 21, 22, 23, 27, 29]",189.3202819,3644,3338,9,168,10,1.0
basic,52,23,0,0,0,12,"[0, 13, 12]",3,16,"[1, 2, 3, 6, 7, 8, 9, 10, 14, 17, 18, 21, 22, 23, 27, 29]",177.2372359,5009,1365,9,96,10,1.0014195490503164
basic,52,23,0,0,0,2,"[0, 13, 12, 2]",4,12,"[1, 3, 6, 7, 9, 10, 14, 18, 21, 22, 27, 29]",163.3447919,5907,898,4,30,10,1.0014394317924602
basic,52,23,0,0,0,9,"[0, 13, 12, 2, 9]",5,10,"[1, 6, 7, 10, 14, 18, 21, 22, 27, 29]",150.3063871,6604,697,1,8,10,1.1457747074799831
basic,52,23,0,0,0,14,"[0, 13, 12, 2, 9, 14]",6,8,"[1, 6, 7, 10, 18, 22, 27, 29]",139.8660806,7386,782,1,6,10,1.1365880299138118
basic,52,23,0,0,0,29,"[0, 13, 12, 2, 9, 14, 29]",7,5,"[1, 6, 7, 10, 22]",92.43191571,8457,1071,1,3,10,1.3460297288480787
basic,52,23,0,0,0,7,"[0, 13, 12, 2, 9, 14, 29, 7]",8,2,"[1, 10]",68.34872655,9142,685,1,1,10,1.3773159292410473
basic,52,23,0,0,0,10,"[0, 13, 12, 2, 9, 14, 29, 7, 10]",9,1,[1],40.88966612,10274,1132,1,0,10,1.3556884556214648
basic,52,23,0,0,1,1,"[0, 13, 12, 2, 9, 14, 29, 7, 10, 1]",10,0,[],12.23656855,11172,898,1,0,10,1.3259861306330887
basic,52,23,0,1,1,1,"[0, 13, 12, 2, 9, 14, 29, 7, 10, 1]",10,0,[],12.23656855,12326,1154,1,0,10,1.3259861306330887
basic,53,37,0,0,0,0,[0],1,29,"[1, 2, 3, 4, 5, 6, 7, 8, 9, 10, 11, 12, 13, 14, 15, 16, 17, 18, 19, 20, 21, 22, 23, 24, 25, 26, 27, 28, 29]",300,347,-1,6,168,10,0.0
basic,53,37,0,0,0,19,"[0, 19]",2,19,"[1, 2, 4, 5, 6, 7, 9, 10, 11, 15, 17, 18, 20, 21, 22, 25, 26, 28, 29]",185.6627795,3329,2982,25,244,9,1.0
basic,53,37,0,0,0,21,"[0, 19, 21]",3,14,"[1, 2, 4, 7, 10, 11, 15, 17, 18, 20, 22, 25, 26, 29]",144.5531699,4377,1048,10,75,9,1.001632816594558
basic,53,37,0,0,0,15,"[0, 19, 21, 15]",4,9,"[1, 2, 4, 7, 18, 20, 22, 26, 29]",129.5531699,5124,747,5,32,9,1.0243376499143988
basic,53,37,0,0,0,20,"[0, 19, 21, 15, 20]",5,8,"[1, 2, 4, 7, 18, 22, 26, 29]",112.5531699,6327,1203,5,14,9,1.250507291508492
basic,53,37,0,0,0,1,"[0, 19, 21, 15, 20, 1]",6,6,"[2, 4, 7, 18, 22, 26]",78.31868434,7694,1367,4,4,9,1.4002166443864243
basic,53,37,0,0,0,2,"[0, 19, 21, 15, 20, 1, 2]",7,4,"[4, 7, 18, 22]",61.11403381,10775,3081,2,2,9,1.5802253600182588
basic,53,37,0,0,0,4,"[0, 19, 21, 15, 20, 1, 2, 4]",8,1,[22],49.71227956,11568,793,1,0,9,1.5399187067712754
basic,53,37,0,0,1,22,"[0, 19, 21, 15, 20, 1, 2, 4, 22]",9,0,[],24.71227956,12339,771,1,0,9,1.6903775033413582
basic,53,37,0,1,1,22,"[0, 19, 21, 15, 20, 1, 2, 4, 22]",9,0,[],24.71227956,13060,721,1,0,9,1.6903775033413582
basic,54,4,0,0,0,0,[0],1,26,"[3, 4, 5, 6, 7, 8, 10, 11, 12, 13, 14, 15, 16, 17, 18, 19, 20, 21, 22, 23, 24, 25, 26, 27, 28, 29]",300,192,-1,4,489,10,0.0
basic,54,4,0,0,0,13,"[0, 13]",2,23,"[3, 4, 5, 6, 7, 10, 11, 12, 14, 15, 16, 17, 19, 20, 21, 22, 23, 24, 25, 26, 27, 28, 29]",232.1030192,5325,5133,2,270,10,1.0
basic,54,4,0,0,0,28,"[0, 13, 28]",3,19,"[3, 4, 5, 6, 10, 11, 12, 14, 15, 16, 17, 19, 20, 21, 22, 23, 24, 25, 26]",200.5277124,6357,1032,2,221,10,1.3431168257921573
basic,54,4,0,0,0,25,"[0, 13, 28, 25]",4,12,"[3, 4, 5, 6, 11, 14, 16, 17, 20, 21, 22, 24]",146.4906881,10205,3848,1,72,10,1.2105373647266156
basic,54,4,0,0,0,11,"[0, 13, 28, 25, 11]",5,10,"[3, 4, 5, 6, 14, 16, 17, 20, 21, 22]",127.7023938,11456,1251,1,29,10,1.4022309000432311
basic,54,4,0,0,0,16,"[0, 13, 28, 25, 11, 16]",6,9,"[3, 4, 5, 6, 14, 17, 20, 21, 22]",112.7023938,12307,851,1,22,10,1.3587638935314839
basic,54,4,0,0,0,17,"[0, 13, 28, 25, 11, 16, 17]",7,6,"[3, 5, 14, 20, 21, 22]",86.62558421,13677,1370,1,8,10,1.3017170502020965
basic,54,4,0,0,0,21,"[0, 13, 28, 25, 11, 16, 17, 21]",8,1,[22],37.37114279,14637,960,1,0,9,1.7769140420701148
basic,54,4,0,0,1,22,"[0, 13, 28, 25, 11, 16, 17, 21, 22]",9,0,[],26.32578177,15269,632,1,0,9,1.7249098343134948
basic,54,4,0,1,1,22,"[0, 13, 28, 25, 11, 16, 17, 21, 22]",9,0,[],26.32578177,16127,858,1,0,9,1.7249098343134948
basic,55,22,0,0,0,0,[0],1,29,"[1, 2, 3, 4, 5, 6, 7, 8, 9, 10, 11, 12, 13, 14, 15, 16, 17, 18, 19, 20, 21, 22, 23, 24, 25, 26, 27, 28, 29]",300,254,-1,31,704,9,0.0
basic,55,22,0,0,0,6,"[0, 6]",2,19,"[1, 3, 7, 8, 9, 11, 13, 14, 15, 16, 17, 19, 20, 21, 22, 24, 25, 28, 29]",211.3828459,4540,4286,1,73,9,1.0
basic,55,22,0,0,0,9,"[0, 6, 9]",3,17,"[1, 3, 7, 8, 13, 14, 15, 16, 17, 19, 20, 21, 22, 24, 25, 28, 29]",184.755792,5692,1152,1,39,9,1.2868618423088127
basic,55,22,0,0,0,19,"[0, 6, 9, 19]",4,16,"[1, 3, 7, 8, 13, 14, 15, 16, 17, 20, 21, 22, 24, 25, 28, 29]",164.3597139,9272,3580,1,29,9,1.7035075715300563
basic,55,22,0,0,0,29,"[0, 6, 9, 19, 29]",5,14,"[1, 3, 7, 8, 13, 14, 15, 16, 17, 20, 21, 24, 25, 28]",149.3264176,10470,1198,1,21,9,1.9566347729231615
basic,55,22,0,0,0,24,"[0, 6, 9, 19, 29, 24]",6,9,"[1, 3, 7, 13, 14, 15, 17, 20, 21]",81.42943677,11907,1437,1,8,9,1.629490940216767
basic,55,22,0,0,0,21,"[0, 6, 9, 19, 29, 24, 21]",7,4,"[1, 3, 17, 20]",54.22649576,12741,834,1,3,9,1.5236366669224386
basic,55,22,0,0,0,3,"[0, 6, 9, 19, 29, 24, 21, 3]",8,1,[1],29.20650375,14054,1313,1,0,9,1.5890039214148717
basic,55,22,0,0,1,1,"[0, 6, 9, 19, 29, 24, 21, 3, 1]",9,0,[],2.523175621,14920,866,1,0,9,1.515020171244341
basic,55,22,0,1,1,1,"[0, 6, 9, 19, 29, 24, 21, 3, 1]",9,0,[],2.523175621,15976,1056,1,0,9,1.515020171244341
basic,56,12,0,0,0,0,[0],1,29,"[1, 2, 3, 4, 5, 6, 7, 8, 9, 10, 11, 12, 13, 14, 15, 16, 17, 18, 19, 20, 21, 22, 23, 24, 25, 26, 27, 28, 29]",300,244,-1,2,32,9,0.0
basic,56,12,0,0,0,22,"[0, 22]",2,22,"[2, 4, 5, 6, 7, 9, 10, 12, 13, 14, 15, 16, 17, 18, 19, 21, 23, 24, 25, 27, 28, 29]",211.9943184,2374,2130,6,42,8,1.0
basic,56,12,0,0,0,16,"[0, 22, 16]",3,12,"[2, 4, 5, 6, 7, 12, 14, 19, 23, 24, 25, 27]",190.9943184,2959,585,6,24,8,1.2017164145167045
basic,56,12,0,0,0,4,"[0, 22, 16, 4]",4,9,"[2, 6, 7, 12, 14, 19, 24, 25, 27]",156.7890556,3773,814,6,14,8,1.146531713305579
basic,56,12,0,0,0,12,"[0, 22, 16, 4, 12]",5,4,"[14, 19, 24, 27]",114.5990094,4876,1103,4,3,8,1.1221389456954312
basic,56,12,0,0,0,27,"[0, 22, 16, 4, 12, 27]",6,3,"[14, 19, 24]",90.24741807,5853,977,2,1,8,1.2262878338287035
basic,56,12,0,0,0,14,"[0, 22, 16, 4, 12, 27, 14]",7,1,[24],61.59432051,6906,1053,1,0,8,1.2804562106751427
basic,56,12,0,0,1,24,"[0, 22, 16, 4, 12, 27, 14, 24]",8,0,[],44.38966997,7857,951,1,0,8,1.4322660007679802
basic,56,12,0,1,1,24,"[0, 22, 16, 4, 12, 27, 14, 24]",8,0,[],44.38966997,8678,821,1,0,8,1.4322660007679802
basic,57,9,0,0,0,0,[0],1,27,"[1, 3, 4, 5, 6, 7, 8, 9, 10, 11, 13, 14, 15, 16, 17, 18, 19, 20, 21, 22, 23, 24, 25, 26, 27, 28, 29]",300,286,-1,2,182,10,0.0
basic,57,9,0,0,0,7,"[0, 7]",2,19,"[3, 4, 5, 8, 9, 10, 11, 16, 17, 18, 19, 20, 21, 22, 23, 25, 26, 27, 28]",258.4067313,4958,4672,39,322,9,1.0
basic,57,9,0,0,0,4,"[0, 7, 4]",3,15,"[3, 8, 9, 10, 11, 18, 19, 20, 21, 22, 23, 25, 26, 27, 28]",243.4067313,5689,731,32,159,9,1.002790151820037
basic,57,9,0,0,0,27,"[0, 7, 4, 27]",4,11,"[8, 9, 10, 11, 20, 21, 22, 23, 25, 26, 28]",181.165266,7104,1415,19,48,9,2.2170504989781823
basic,57,9,0,0,0,25,"[0, 7, 4, 27, 25]",5,10,"[8, 9, 10, 11, 20, 21, 22, 23, 26, 28]",145.2626199,8187,1083,17,30,9,6.425119990857526
basic,57,9,0,0,0,10,"[0, 7, 4, 27, 25, 10]",6,8,"[8, 9, 20, 21, 22, 23, 26, 28]",105.4129022,11557,3370,10,7,9,3.581425027421569
basic,57,9,0,0,0,28,"[0, 7, 4, 27, 25, 10, 28]",7,4,"[8, 9, 23, 26]",48.4129022,12706,1149,3,2,9,3.387169057637727
basic,57,9,0,0,0,8,"[0, 7, 4, 27, 25, 10, 28, 8]",8,1,[23],37.59624838,13475,769,1,0,9,4.114144751518002
basic,57,9,0,0,1,23,"[0, 7, 4, 27, 25, 10, 28, 8, 23]",9,0,[],16.12533782,14630,1155,1,0,9,4.767805284329809
basic,57,9,0,1,1,23,"[0, 7, 4, 27, 25, 10, 28, 8, 23]",9,0,[],16.12533782,15576,946,1,0,9,4.767805284329809
basic,58,27,0,0,0,0,[0],1,26,"[1, 3, 5, 6, 7, 8, 9, 10, 11, 12, 13, 14, 15, 16, 17, 18, 19, 21, 22, 23, 24, 25, 26, 27, 28, 29]",300,295,-1,13,578,11,0.0
basic,58,27,0,0,0,26,"[0, 26]",2,23,"[1, 5, 6, 7, 8, 9, 10, 11, 12, 13, 14, 15, 16, 17, 18, 19, 21, 22, 23, 24, 25, 27, 29]",275.8132268,6387,6092,7,249,11,1.0
basic,58,27,0,0,0,15,"[0, 26, 15]",3,18,"[1, 6, 7, 8, 10, 12, 13, 14, 16, 17, 18, 19, 21, 23, 24, 25, 27, 29]",216.0386502,7452,1065,6,105,11,2.316230250316108
basic,58,27,0,0,0,24,"[0, 26, 15, 24]",4,14,"[1, 8, 10, 12, 13, 14, 16, 17, 18, 19, 23, 25, 27, 29]",198.8339997,8337,885,6,63,11,2.140390406148825
basic,58,27,0,0,0,17,"[0, 26, 15, 24, 17]",5,11,"[1, 8, 10, 12, 13, 14, 18, 19, 23, 27, 29]",182.2810543,9352,1015,4,33,11,1.897705569486853
basic,58,27,0,0,0,12,"[0, 26, 15, 24, 17, 12]",6,10,"[1, 8, 10, 13, 14, 18, 19, 23, 27, 29]",171.1007144,10151,799,2,17,11,1.994427587076918
basic,58,27,0,0,0,10,"[0, 26, 15, 24, 17, 12, 10]",7,9,"[1, 8, 13, 14, 18, 19, 23, 27, 29]",160.0553534,11275,1124,2,14,11,1.8554032921959762
basic,58,27,0,0,0,13,"[0, 26, 15, 24, 17, 12, 10, 13]",8,7,"[1, 8, 14, 19, 23, 27, 29]",120.2056357,13518,2243,2,8,11,1.8269483184790714
basic,58,27,0,0,0,19,"[0, 26, 15, 24, 17, 12, 10, 13, 19]",9,4,"[8, 14, 23, 29]",83.97029387,14972,1454,2,3,11,1.6617669702307691
basic,58,27,0,0,0,8,"[0, 26, 15, 24, 17, 12, 10, 13, 19, 8]",10,2,"[14, 29]",69.10422512,15770,798,2,0,11,1.708465241811091
basic,58,27,0,0,1,29,"[0, 26, 15, 24, 17, 12, 10, 13, 19, 8, 29]",11,0,[],9.901184659,19469,3699,1,0,11,1.4940849125097164
basic,58,27,0,1,1,29,"[0, 26, 15, 24, 17, 12, 10, 13, 19, 8, 29]",11,0,[],9.901184659,20808,1339,1,0,11,1.4940849125097164
basic,59,0,0,0,0,0,[0],1,27,"[2, 3, 4, 5, 6, 7, 8, 9, 10, 11, 12, 13, 14, 15, 16, 17, 19, 20, 21, 22, 23, 24, 25, 26, 27, 28, 29]",300,281,-1,104,1136,9,0.0
basic,59,0,0,0,0,20,"[0, 20]",2,25,"[2, 3, 4, 5, 6, 7, 8, 9, 11, 12, 13, 14, 15, 16, 17, 19, 21, 22, 23, 24, 25, 26, 27, 28, 29]",215.4955622,3386,3105,36,372,9,1.0
basic,59,0,0,0,0,5,"[0, 20, 5]",3,22,"[2, 3, 4, 7, 8, 9, 11, 12, 13, 14, 15, 16, 17, 19, 21, 22, 23, 24, 25, 26, 28, 29]",153.2942761,5070,1684,33,251,9,1.0828244018179105
basic,59,0,0,0,0,26,"[0, 20, 5, 26]",4,16,"[3, 4, 7, 8, 9, 11, 12, 13, 14, 15, 17, 19, 21, 23, 24, 28]",117.8541858,6761,1691,6,51,9,1.1274542855134486
basic,59,0,0,0,0,4,"[0, 20, 5, 26, 4]",5,12,"[3, 7, 8, 9, 11, 12, 15, 17, 19, 23, 24, 28]",105.8125912,7635,874,5,27,9,1.240491272719259
basic,59,0,0,0,0,24,"[0, 20, 5, 26, 4, 24]",6,11,"[3, 7, 8, 9, 11, 12, 15, 17, 19, 23, 28]",94.41083696,8221,586,5,18,9,1.2323106696136763
basic,59,0,0,0,0,15,"[0, 20, 5, 26, 4, 24, 15]",7,7,"[3, 7, 8, 9, 11, 12, 17]",71.0656019,9190,969,4,5,9,1.2111066506270785
basic,59,0,0,0,0,7,"[0, 20, 5, 26, 4, 24, 15, 7]",8,2,"[3, 8]",40.00115277,10452,1262,2,0,9,1.268226705272871
basic,59,0,0,0,1,8,"[0, 20, 5, 26, 4, 24, 15, 7, 8]",9,0,[],20.89617959,12071,1619,1,0,9,1.2546051164131595
basic,59,0,0,1,1,8,"[0, 20, 5, 26, 4, 24, 15, 7, 8]",9,0,[],20.89617959,13259,1188,1,0,9,1.2546051164131595
basic,60,5,0,0,0,0,[0],1,29,"[1, 2, 3, 4, 5, 6, 7, 8, 9, 10, 11, 12, 13, 14, 15, 16, 17, 18, 19, 20, 21, 22, 23, 24, 25, 26, 27, 28, 29]",300,166,-1,5,139,9,0.0
basic,60,5,0,0,0,12,"[0, 12]",2,22,"[2, 4, 5, 6, 8, 9, 10, 13, 14, 15, 16, 17, 18, 19, 21, 22, 23, 24, 25, 26, 27, 28]",228.3062067,3807,3641,1,27,9,1.0
basic,60,5,0,0,0,25,"[0, 12, 25]",3,21,"[2, 4, 5, 6, 8, 9, 10, 13, 14, 15, 16, 17, 18, 19, 21, 22, 23, 24, 26, 27, 28]",200.5213187,5226,1419,1,20,9,1.584023303445617
basic,60,5,0,0,0,23,"[0, 12, 25, 23]",4,19,"[2, 4, 5, 6, 8, 9, 10, 13, 14, 15, 16, 17, 18, 19, 21, 22, 24, 26, 27]",182.0822298,6175,949,1,14,9,2.3508446989254357
basic,60,5,0,0,0,24,"[0, 12, 25, 23, 24]",5,15,"[2, 4, 5, 6, 8, 9, 13, 14, 15, 17, 18, 19, 22, 26, 27]",158.995437,7025,850,1,12,9,1.9469752046288753
basic,60,5,0,0,0,17,"[0, 12, 25, 23, 24, 17]",6,7,"[4, 5, 6, 8, 15, 18, 19]",124.0097257,8123,1098,1,8,9,1.6482276497563642
basic,60,5,0,0,0,4,"[0, 12, 25, 23, 24, 17, 4]",7,2,"[6, 18]",41.93049564,11255,3132,2,0,8,1.4727365492235016
basic,60,5,0,0,1,6,"[0, 12, 25, 23, 24, 17, 4, 6]",8,0,[],29.88890107,11958,703,1,0,8,1.6174317301197607
basic,60,5,0,1,1,6,"[0, 12, 25, 23, 24, 17, 4, 6]",8,0,[],29.88890107,12960,1002,1,0,8,1.6174317301197607
basic,61,11,0,0,0,0,[0],1,25,"[1, 2, 3, 4, 5, 6, 8, 9, 10, 11, 12, 13, 14, 15, 16, 17, 18, 19, 20, 22, 23, 25, 26, 27, 28]",300,307,-1,6,374,12,0.0
basic,61,11,0,0,0,18,"[0, 18]",2,21,"[1, 2, 4, 5, 6, 8, 9, 11, 12, 13, 14, 15, 16, 17, 19, 20, 22, 23, 25, 27, 28]",236.8493864,3741,3434,157,1477,11,1.0
basic,61,11,0,0,0,27,"[0, 18, 27]",3,19,"[1, 2, 4, 5, 6, 8, 9, 11, 12, 14, 15, 16, 17, 19, 20, 22, 23, 25, 28]",212.9956655,5508,1767,157,1315,11,1.060949579704323
basic,61,11,0,0,0,17,"[0, 18, 27, 17]",4,14,"[1, 2, 4, 5, 6, 8, 11, 12, 15, 19, 22, 23, 25, 28]",135.9177828,7152,1644,46,349,11,1.1156120043677304
basic,61,11,0,0,0,8,"[0, 18, 27, 17, 8]",5,11,"[1, 2, 5, 6, 11, 12, 15, 19, 22, 25, 28]",121.5999617,7792,640,26,143,11,1.2285932943120847
basic,61,11,0,0,0,15,"[0, 18, 27, 17, 8, 15]",6,9,"[2, 5, 6, 11, 12, 19, 22, 25, 28]",108.1463377,8690,898,24,54,11,1.223015425852291
basic,61,11,0,0,0,11,"[0, 18, 27, 17, 8, 15, 11]",7,6,"[2, 5, 12, 19, 22, 28]",90.03556742,10321,1631,22,2,11,1.2111003833550413
basic,61,11,0,0,0,5,"[0, 18, 27, 17, 8, 15, 11, 5]",8,3,"[2, 22, 28]",54.80773752,11486,1165,5,1,11,1.5070858562662883
basic,61,11,0,0,0,28,"[0, 18, 27, 17, 8, 15, 11, 5, 28]",9,2,"[2, 22]",36.9191937,12190,704,2,0,11,1.5224287982960607
basic,61,11,0,0,0,2,"[0, 18, 27, 17, 8, 15, 11, 5, 28, 2]",10,1,[22],26.28904788,12874,684,1,0,11,1.5334969671993883
basic,61,11,0,0,1,22,"[0, 18, 27, 17, 8, 15, 11, 5, 28, 2, 22]",11,0,[],16.23917226,13487,613,1,0,11,1.5050924702228456
basic,61,11,0,1,1,22,"[0, 18, 27, 17, 8, 15, 11, 5, 28, 2, 22]",11,0,[],16.23917226,14725,1238,1,0,11,1.5050924702228456
basic,62,7,0,0,0,0,[0],1,29,"[1, 2, 3, 4, 5, 6, 7, 8, 9, 10, 11, 12, 13, 14, 15, 16, 17, 18, 19, 20, 21, 22, 23, 24, 25, 26, 27, 28, 29]",300,232,-1,3,79,9,0.0
basic,62,7,0,0,0,15,"[0, 15]",2,19,"[2, 4, 5, 6, 7, 8, 9, 10, 13, 14, 16, 18, 19, 20, 21, 23, 25, 27, 28]",230.9348134,4324,4092,2,38,9,1.0
basic,62,7,0,0,0,6,"[0, 15, 6]",3,18,"[2, 4, 5, 7, 8, 9, 10, 13, 14, 16, 18, 19, 20, 21, 23, 25, 27, 28]",205.854941,5426,1102,2,36,9,1.366719602896943
basic,62,7,0,0,0,25,"[0, 15, 6, 25]",4,11,"[2, 4, 7, 13, 14, 16, 18, 19, 20, 21, 23]",138.6760753,6623,1197,2,28,9,1.3624631728355765
basic,62,7,0,0,0,4,"[0, 15, 6, 25, 4]",5,7,"[2, 7, 13, 16, 18, 19, 20]",113.9374415,7653,1030,2,12,9,1.3249684384385587
basic,62,7,0,0,0,20,"[0, 15, 6, 25, 4, 20]",6,5,"[2, 7, 13, 18, 19]",94.29055881,9707,2054,1,6,9,1.3721893242679268
basic,62,7,0,0,0,18,"[0, 15, 6, 25, 4, 20, 18]",7,3,"[7, 13, 19]",81.48431034,10271,564,1,2,9,1.5262542308371432
basic,62,7,0,0,0,7,"[0, 15, 6, 25, 4, 20, 18, 7]",8,1,[19],40.25325408,10956,685,1,0,9,1.41986878673423
basic,62,7,0,0,1,19,"[0, 15, 6, 25, 4, 20, 18, 7, 19]",9,0,[],10.84237174,11975,1019,1,0,9,1.5285658163212987
basic,62,7,0,1,1,19,"[0, 15, 6, 25, 4, 20, 18, 7, 19]",9,0,[],10.84237174,12627,652,1,0,9,1.5285658163212987
basic,63,42,0,0,0,0,[0],1,29,"[1, 2, 3, 4, 5, 6, 7, 8, 9, 10, 11, 12, 13, 14, 15, 16, 17, 18, 19, 20, 21, 22, 23, 24, 25, 26, 27, 28, 29]",300,276,-1,16,302,9,0.0
basic,63,42,0,0,0,4,"[0, 4]",2,28,"[1, 2, 3, 5, 6, 7, 8, 9, 10, 11, 12, 13, 14, 15, 16, 17, 18, 19, 20, 21, 22, 23, 24, 25, 26, 27, 28, 29]",209.5290102,3291,3015,4,80,9,1.0
basic,63,42,0,0,0,22,"[0, 4, 22]",3,24,"[1, 2, 3, 5, 6, 7, 8, 9, 10, 11, 13, 15, 17, 18, 19, 20, 21, 23, 24, 25, 26, 27, 28, 29]",198.3486703,4276,985,3,53,9,1.1473032812120834
basic,63,42,0,0,0,8,"[0, 4, 22, 8]",4,21,"[1, 2, 3, 5, 6, 7, 10, 11, 15, 17, 18, 19, 20, 21, 23, 24, 25, 26, 27, 28, 29]",176.2127267,5674,1398,2,36,9,1.1513227322639639
basic,63,42,0,0,0,1,"[0, 4, 22, 8, 1]",5,12,"[2, 5, 6, 7, 10, 15, 18, 19, 24, 26, 27, 28]",127.1209758,7904,2230,2,24,9,1.1101621876186907
basic,63,42,0,0,0,7,"[0, 4, 22, 8, 1, 7]",6,5,"[2, 19, 26, 27, 28]",97.12097583,9024,1120,2,10,9,1.1711274205343067
basic,63,42,0,0,0,26,"[0, 4, 22, 8, 1, 7, 26]",7,3,"[2, 19, 27]",70.55031532,9827,803,2,1,9,1.1588367913131314
basic,63,42,0,0,0,27,"[0, 4, 22, 8, 1, 7, 26, 27]",8,1,[19],52.52255894,10820,993,1,0,9,1.160587570992885
basic,63,42,0,0,1,19,"[0, 4, 22, 8, 1, 7, 26, 27, 19]",9,0,[],11.51036563,11541,721,1,0,9,1.3341568614108437
