condition,trial_id,map_id,undoIndicator,submit,checkEnd,currentChoice,chosen_all,n_city_all,n_within_reach,cities_reach,currentBudget,time_all,rt_all,n_opt_paths_all,n_subopt_paths_all,mas_all,tortuosity_all
basic,0,4,0,0,0,0,[0],1,26,"[3, 4, 5, 6, 7, 8, 10, 11, 12, 13, 14, 15, 16, 17, 18, 19, 20, 21, 22, 23, 24, 25, 26, 27, 28, 29]",300,143,-1,4,489,10,0.0
basic,0,4,0,0,0,28,"[0, 28]",2,21,"[3, 4, 5, 6, 10, 11, 12, 13, 14, 15, 16, 17, 19, 20, 21, 22, 23, 24, 25, 26, 27]",225.9392142,3214,3071,2,216,10,1.0
basic,0,4,0,0,0,14,"[0, 28, 14]",3,13,"[3, 4, 5, 6, 11, 13, 16, 17, 20, 21, 22, 24, 25]",159.6972335,4765,1551,1,26,10,1.0273973946789214
basic,0,4,0,0,0,25,"[0, 28, 14, 25]",4,12,"[3, 4, 5, 6, 11, 13, 16, 17, 20, 21, 22, 24]",143.572718,6128,1363,1,25,10,1.233547772313525
basic,0,4,0,0,0,11,"[0, 28, 14, 25, 11]",5,10,"[3, 4, 5, 6, 13, 16, 17, 20, 21, 22]",124.7844238,6795,667,1,15,10,1.425978575879479
basic,0,4,0,0,0,16,"[0, 28, 14, 25, 11, 16]",6,9,"[3, 4, 5, 6, 13, 17, 20, 21, 22]",109.7844238,7699,904,1,12,10,1.3799325158051412
basic,0,4,0,0,0,21,"[0, 28, 14, 25, 11, 16, 21]",7,4,"[5, 17, 20, 22]",65.58035157,8630,931,3,3,9,1.5860540591673642
basic,0,4,0,0,0,22,"[0, 28, 14, 25, 11, 16, 21, 22]",8,3,"[5, 17, 20]",54.53499056,9451,821,3,0,9,1.5471132483772176
basic,0,4,0,0,1,20,"[0, 28, 14, 25, 11, 16, 21, 22, 20]",9,0,[],24.30255764,11725,2274,1,0,9,1.5087977616865345
basic,0,4,0,1,1,20,"[0, 28, 14, 25, 11, 16, 21, 22, 20]",9,0,[],24.30255764,13515,1790,1,0,9,1.5087977616865345
basic,1,41,0,0,0,0,[0],1,29,"[1, 2, 3, 4, 5, 6, 7, 8, 9, 10, 11, 12, 13, 14, 15, 16, 17, 18, 19, 20, 21, 22, 23, 24, 25, 26, 27, 28, 29]",300,131,-1,1,143,10,0.0
basic,1,41,0,0,0,28,"[0, 28]",2,27,"[1, 2, 3, 5, 6, 7, 8, 9, 10, 11, 12, 13, 14, 15, 16, 17, 18, 19, 20, 21, 22, 23, 24, 25, 26, 27, 29]",259.8004975,10696,10565,37,249,9,1.0
basic,1,41,0,0,0,5,"[0, 28, 5]",3,26,"[1, 2, 3, 6, 7, 8, 9, 10, 11, 12, 13, 14, 15, 16, 17, 18, 19, 20, 21, 22, 23, 24, 25, 26, 27, 29]",246.199027,11199,503,30,182,9,1.714241539747437
basic,1,41,0,0,0,3,"[0, 28, 5, 3]",4,25,"[1, 2, 6, 7, 8, 9, 10, 11, 12, 13, 14, 15, 16, 17, 18, 19, 20, 21, 22, 23, 24, 25, 26, 27, 29]",211.3708775,13283,2084,20,93,9,2.2367972660995847
basic,1,41,0,0,0,22,"[0, 28, 5, 3, 22]",5,19,"[2, 6, 7, 8, 9, 10, 11, 12, 13, 14, 16, 17, 18, 19, 20, 21, 23, 25, 27]",181.4042293,14400,1117,8,18,9,1.7196825276135803
basic,1,41,0,0,0,21,"[0, 28, 5, 3, 22, 21]",6,8,"[2, 9, 10, 12, 13, 14, 17, 25]",130.4042293,15334,934,8,6,9,3.469819975916434
basic,1,41,0,0,0,9,"[0, 28, 5, 3, 22, 21, 9]",7,5,"[2, 10, 12, 14, 17]",81.03824916,16243,909,4,3,9,2.6607849925478684
basic,1,41,0,0,0,2,"[0, 28, 5, 3, 22, 21, 9, 2]",8,2,"[14, 17]",68.95520318,16744,501,2,0,9,2.5536438215534885
basic,1,41,0,0,1,17,"[0, 28, 5, 3, 22, 21, 9, 2, 17]",9,0,[],36.39756199,17510,766,1,0,9,4.158574215213491
basic,1,41,0,1,1,17,"[0, 28, 5, 3, 22, 21, 9, 2, 17]",9,0,[],36.39756199,18799,1289,1,0,9,4.158574215213491
basic,2,42,0,0,0,0,[0],1,29,"[1, 2, 3, 4, 5, 6, 7, 8, 9, 10, 11, 12, 13, 14, 15, 16, 17, 18, 19, 20, 21, 22, 23, 24, 25, 26, 27, 28, 29]",300,130,-1,16,302,9,0.0
basic,2,42,0,0,0,22,"[0, 22]",2,27,"[1, 2, 3, 4, 5, 6, 7, 8, 9, 10, 11, 12, 13, 15, 16, 17, 18, 19, 20, 21, 23, 24, 25, 26, 27, 28, 29]",211.3997743,5782,5652,5,83,9,1.0
basic,2,42,0,0,0,4,"[0, 22, 4]",3,26,"[1, 2, 3, 5, 6, 7, 8, 9, 10, 11, 12, 13, 15, 16, 17, 18, 19, 20, 21, 23, 24, 25, 26, 27, 28, 29]",200.2194344,6398,616,4,51,9,1.1029012260448476
basic,2,42,0,0,0,5,"[0, 22, 4, 5]",4,24,"[1, 2, 3, 6, 7, 8, 9, 10, 11, 12, 13, 15, 17, 18, 19, 20, 21, 23, 24, 25, 26, 27, 28, 29]",180.3700011,7072,674,3,22,9,1.1004909640339868
basic,2,42,0,0,0,8,"[0, 22, 4, 5, 8]",5,16,"[1, 2, 3, 6, 7, 11, 15, 18, 19, 23, 24, 25, 26, 27, 28, 29]",145.8881218,7736,664,3,12,9,1.4333663223483832
basic,2,42,0,0,0,1,"[0, 22, 4, 5, 8, 1]",6,6,"[2, 7, 18, 19, 26, 27]",96.796371,8813,1077,3,7,9,1.3048950637395882
basic,2,42,0,0,0,7,"[0, 22, 4, 5, 8, 1, 7]",7,4,"[2, 19, 26, 27]",66.796371,9818,1005,3,2,9,1.3461774355793397
basic,2,42,0,0,0,26,"[0, 22, 4, 5, 8, 1, 7, 26]",8,2,"[19, 27]",40.22571049,10995,1177,2,0,9,1.3119913611616163
basic,2,42,0,0,1,27,"[0, 22, 4, 5, 8, 1, 7, 26, 27]",9,0,[],22.19795412,11596,601,1,0,9,1.3027999653776734
basic,2,42,0,1,1,27,"[0, 22, 4, 5, 8, 1, 7, 26, 27]",9,0,[],22.19795412,13086,1490,1,0,9,1.3027999653776734
basic,3,3,0,0,0,0,[0],1,29,"[1, 2, 3, 4, 5, 6, 7, 8, 9, 10, 11, 12, 13, 14, 15, 16, 17, 18, 19, 20, 21, 22, 23, 24, 25, 26, 27, 28, 29]",300,132,-1,34,427,10,0.0
basic,3,3,0,0,0,8,"[0, 8]",2,28,"[1, 2, 3, 4, 5, 6, 7, 9, 10, 11, 12, 13, 14, 15, 16, 17, 18, 19, 20, 21, 22, 23, 24, 25, 26, 27, 28, 29]",239.9666759,3012,2880,1,54,10,1.0
basic,3,3,0,0,0,24,"[0, 8, 24]",3,23,"[1, 2, 3, 4, 5, 6, 7, 10, 11, 12, 14, 15, 16, 17, 18, 19, 20, 21, 22, 25, 26, 27, 28]",227.8011509,4395,1383,1,50,10,1.2267083825981846
basic,3,3,0,0,0,17,"[0, 8, 24, 17]",4,11,"[3, 4, 7, 10, 14, 15, 16, 19, 20, 21, 27]",158.4469873,5589,1194,1,18,10,1.3836579788002414
basic,3,3,0,0,0,20,"[0, 8, 24, 17, 20]",5,9,"[3, 4, 7, 10, 14, 15, 16, 19, 21]",145.7978767,6217,628,1,14,10,1.3620097615632467
basic,3,3,0,0,0,3,"[0, 8, 24, 17, 20, 3]",6,5,"[4, 10, 14, 19, 21]",125.4017986,6817,600,1,11,10,1.3956695218398405
basic,3,3,0,0,0,19,"[0, 8, 24, 17, 20, 3, 19]",7,4,"[4, 10, 14, 21]",88.06548922,8517,1700,1,4,10,1.4360605238855817
basic,3,3,0,0,0,21,"[0, 8, 24, 17, 20, 3, 19, 21]",8,2,"[10, 14]",75.85893361,9057,540,1,1,10,1.4576450248605066
basic,3,3,0,0,0,14,"[0, 8, 24, 17, 20, 3, 19, 21, 14]",9,1,[10],48.95168551,10014,957,1,0,10,1.9505702217699148
basic,3,3,0,0,1,10,"[0, 8, 24, 17, 20, 3, 19, 21, 14, 10]",10,0,[],3.498412803,11662,1648,1,0,10,1.8830527336542522
basic,3,3,0,1,1,10,"[0, 8, 24, 17, 20, 3, 19, 21, 14, 10]",10,0,[],3.498412803,12871,1209,1,0,10,1.8830527336542522
basic,4,13,0,0,0,0,[0],1,29,"[1, 2, 3, 4, 5, 6, 7, 8, 9, 10, 11, 12, 13, 14, 15, 16, 17, 18, 19, 20, 21, 22, 23, 24, 25, 26, 27, 28, 29]",300,130,-1,60,2676,11,0.0
basic,4,13,0,0,0,24,"[0, 24]",2,28,"[1, 2, 3, 4, 5, 6, 7, 8, 9, 10, 11, 12, 13, 14, 15, 16, 17, 18, 19, 20, 21, 22, 23, 25, 26, 27, 28, 29]",288.8196601,2108,1978,16,1444,11,1.0
basic,4,13,0,0,0,28,"[0, 24, 28]",3,23,"[1, 2, 3, 4, 6, 7, 8, 9, 10, 11, 12, 13, 15, 16, 17, 19, 20, 21, 22, 23, 26, 27, 29]",222.5324064,2737,629,8,243,11,1.0513810491680837
basic,4,13,0,0,0,2,"[0, 24, 28, 2]",4,19,"[1, 3, 4, 6, 7, 9, 11, 12, 13, 15, 16, 17, 19, 20, 21, 23, 26, 27, 29]",184.889346,3572,835,7,110,11,1.050374132001543
basic,4,13,0,0,0,29,"[0, 24, 28, 2, 29]",5,18,"[1, 3, 4, 6, 7, 9, 11, 12, 13, 15, 16, 17, 19, 20, 21, 23, 26, 27]",173.1846461,4267,695,7,85,11,1.1393409619120594
basic,4,13,0,0,0,7,"[0, 24, 28, 2, 29, 7]",6,17,"[1, 3, 4, 6, 9, 11, 12, 13, 15, 16, 17, 19, 20, 21, 23, 26, 27]",157.9203086,6016,1749,5,45,11,1.349777315111579
basic,4,13,0,0,0,26,"[0, 24, 28, 2, 29, 7, 26]",7,16,"[1, 3, 4, 6, 9, 11, 12, 13, 15, 16, 17, 19, 20, 21, 23, 27]",147.480002,6695,679,5,25,11,1.5942082773824946
basic,4,13,0,0,0,6,"[0, 24, 28, 2, 29, 7, 26, 6]",8,12,"[1, 3, 4, 11, 13, 15, 16, 17, 19, 20, 23, 27]",127.3802508,7773,1078,4,12,11,1.5898347940840756
basic,4,13,0,0,0,11,"[0, 24, 28, 2, 29, 7, 26, 6, 11]",9,6,"[1, 13, 15, 16, 17, 23]",108.2752776,8937,1164,3,4,11,1.5029953945561012
basic,4,13,0,0,0,13,"[0, 24, 28, 2, 29, 7, 26, 6, 11, 13]",10,2,"[15, 17]",52.19497806,17781,8844,2,0,11,1.3655915863754327
basic,4,13,0,0,1,15,"[0, 24, 28, 2, 29, 7, 26, 6, 11, 13, 15]",11,0,[],12.38291958,19291,1510,1,0,11,1.3653085520078876
basic,4,13,0,1,1,15,"[0, 24, 28, 2, 29, 7, 26, 6, 11, 13, 15]",11,0,[],12.38291958,20529,1238,1,0,11,1.3653085520078876
basic,5,38,0,0,0,0,[0],1,29,"[1, 2, 3, 4, 5, 6, 7, 8, 9, 10, 11, 12, 13, 14, 15, 16, 17, 18, 19, 20, 21, 22, 23, 24, 25, 26, 27, 28, 29]",300,129,-1,33,506,9,0.0
basic,5,38,0,0,0,19,"[0, 19]",2,23,"[3, 4, 5, 6, 7, 8, 9, 11, 13, 14, 15, 16, 17, 18, 20, 22, 23, 24, 25, 26, 27, 28, 29]",219.5015528,2585,2456,6,61,9,1.0
basic,5,38,0,0,0,17,"[0, 19, 17]",3,21,"[3, 4, 5, 6, 7, 9, 11, 13, 14, 15, 16, 18, 20, 22, 23, 24, 25, 26, 27, 28, 29]",198.1239945,3336,751,6,53,9,1.571793785769489
basic,5,38,0,0,0,20,"[0, 19, 17, 20]",4,17,"[3, 4, 5, 6, 7, 11, 13, 14, 15, 16, 18, 22, 24, 25, 26, 27, 28]",174.3542658,4068,732,6,44,9,2.333182710277297
basic,5,38,0,0,0,4,"[0, 19, 17, 20, 4]",5,10,"[5, 11, 13, 14, 15, 16, 24, 26, 27, 28]",140.4131403,6419,2351,5,22,9,2.276099229646013
basic,5,38,0,0,0,15,"[0, 19, 17, 20, 4, 15]",6,8,"[5, 11, 13, 14, 16, 24, 26, 28]",114.4131403,7184,765,5,6,9,2.5292671156176403
basic,5,38,0,0,0,11,"[0, 19, 17, 20, 4, 15, 11]",7,2,"[16, 28]",78.01259089,7921,737,2,0,9,2.778100109749787
basic,5,38,0,0,0,28,"[0, 19, 17, 20, 4, 15, 11, 28]",8,1,[16],50.99407872,8644,723,1,0,9,2.3316428595723258
basic,5,38,0,0,1,16,"[0, 19, 17, 20, 4, 15, 11, 28, 16]",9,0,[],21.99407872,10960,2316,1,0,9,2.5408012360364265
basic,5,38,0,1,1,16,"[0, 19, 17, 20, 4, 15, 11, 28, 16]",9,0,[],21.99407872,12152,1192,1,0,9,2.5408012360364265
basic,6,20,0,0,0,0,[0],1,21,"[1, 2, 3, 4, 5, 6, 7, 8, 9, 12, 17, 18, 20, 21, 22, 23, 25, 26, 27, 28, 29]",300,148,-1,1,9,9,0.0
basic,6,20,0,0,0,12,"[0, 12]",2,20,"[1, 2, 3, 4, 5, 6, 7, 8, 9, 17, 18, 20, 21, 22, 23, 25, 26, 27, 28, 29]",271.5570747,5114,4966,1,8,9,1.0
basic,6,20,0,0,0,5,"[0, 12, 5]",3,13,"[1, 3, 4, 6, 8, 9, 20, 21, 23, 26, 27, 28, 29]",171.4321527,6430,1316,2,19,8,1.0232843285905395
basic,6,20,0,0,0,28,"[0, 12, 5, 28]",4,8,"[6, 8, 9, 20, 21, 23, 26, 27]",101.3964475,7829,1399,2,7,7,1.0347725170300537
basic,6,20,0,0,0,21,"[0, 12, 5, 28, 21]",5,3,"[8, 23, 27]",65.14730962,8636,807,2,2,7,1.3768018238468929
basic,6,20,0,0,0,8,"[0, 12, 5, 28, 21, 8]",6,2,"[23, 27]",47.68306042,9413,777,2,0,7,1.3725450518956608
basic,6,20,0,0,1,23,"[0, 12, 5, 28, 21, 8, 23]",7,0,[],2.995254481,10486,1073,1,0,7,1.3038945736834773
basic,6,20,0,1,1,23,"[0, 12, 5, 28, 21, 8, 23]",7,0,[],2.995254481,11871,1385,1,0,7,1.3038945736834773
basic,7,5,0,0,0,0,[0],1,29,"[1, 2, 3, 4, 5, 6, 7, 8, 9, 10, 11, 12, 13, 14, 15, 16, 17, 18, 19, 20, 21, 22, 23, 24, 25, 26, 27, 28, 29]",300,131,-1,5,139,9,0.0
basic,7,5,0,0,0,23,"[0, 23]",2,27,"[1, 2, 3, 4, 5, 6, 7, 8, 9, 10, 11, 12, 13, 14, 15, 16, 17, 18, 19, 20, 21, 22, 24, 25, 26, 27, 28]",249.8402552,2635,2504,3,75,9,1.0
basic,7,5,0,0,0,24,"[0, 23, 24]",3,24,"[1, 2, 3, 4, 5, 6, 8, 9, 10, 11, 12, 13, 14, 15, 16, 17, 18, 19, 21, 22, 25, 26, 27, 28]",226.7534624,3703,1068,20,147,8,1.0113799830159869
basic,7,5,0,0,0,17,"[0, 23, 24, 17]",4,18,"[2, 4, 5, 6, 8, 9, 10, 12, 13, 14, 15, 18, 19, 22, 25, 26, 27, 28]",191.7677511,4548,845,6,49,8,1.0136434296829369
basic,7,5,0,0,0,5,"[0, 23, 24, 17, 5]",5,9,"[4, 6, 8, 12, 14, 15, 18, 19, 25]",148.7212646,5684,1136,6,10,8,1.0121300076484332
basic,7,5,0,0,0,18,"[0, 23, 24, 17, 5, 18]",6,2,"[4, 6]",81.65413401,6952,1268,2,0,8,1.0767325926564988
basic,7,5,0,0,0,4,"[0, 23, 24, 17, 5, 18, 4]",7,1,[6],43.23538858,8156,1204,1,0,8,1.465289859501957
basic,7,5,0,0,1,6,"[0, 23, 24, 17, 5, 18, 4, 6]",8,0,[],31.193794,8717,561,1,0,8,1.6096179999999998
basic,7,5,0,1,1,6,"[0, 23, 24, 17, 5, 18, 4, 6]",8,0,[],31.193794,9856,1139,1,0,8,1.6096179999999998
basic,8,15,0,0,0,0,[0],1,25,"[1, 2, 3, 4, 7, 8, 9, 10, 11, 12, 13, 14, 15, 16, 18, 20, 21, 22, 23, 24, 25, 26, 27, 28, 29]",300,148,-1,4,65,9,0.0
basic,8,15,0,0,0,16,"[0, 16]",2,16,"[3, 4, 7, 9, 10, 11, 12, 13, 14, 15, 18, 20, 21, 22, 25, 27]",185.8378346,3505,3357,22,104,7,1.0
basic,8,15,0,0,0,11,"[0, 16, 11]",3,13,"[3, 4, 7, 10, 12, 13, 14, 15, 18, 21, 22, 25, 27]",159.818611,5635,2130,10,29,7,1.1289542380807378
basic,8,15,0,0,0,3,"[0, 16, 11, 3]",4,12,"[4, 7, 10, 12, 13, 14, 15, 18, 21, 22, 25, 27]",148.4168567,7847,2212,10,12,7,1.14507593159006
basic,8,15,0,0,0,22,"[0, 16, 11, 3, 22]",5,6,"[4, 10, 13, 14, 15, 18]",98.68758969,8950,1103,4,4,7,1.1668569176120651
basic,8,15,0,0,0,15,"[0, 16, 11, 3, 22, 15]",6,2,"[13, 14]",73.07509274,10077,1127,2,0,7,1.1555413708932987
basic,8,15,0,0,1,13,"[0, 16, 11, 3, 22, 15, 13]",7,0,[],57.81075522,11012,935,1,0,7,1.2088928499419171
basic,8,15,0,1,1,13,"[0, 16, 11, 3, 22, 15, 13]",7,0,[],57.81075522,12504,1492,1,0,7,1.2088928499419171
basic,9,37,0,0,0,0,[0],1,29,"[1, 2, 3, 4, 5, 6, 7, 8, 9, 10, 11, 12, 13, 14, 15, 16, 17, 18, 19, 20, 21, 22, 23, 24, 25, 26, 27, 28, 29]",300,131,-1,6,168,10,0.0
basic,9,37,0,0,0,22,"[0, 22]",2,10,"[1, 2, 4, 7, 15, 18, 19, 20, 21, 26]",137.1442356,4182,4051,15,58,8,1.0
basic,9,37,0,0,0,4,"[0, 22, 4]",3,9,"[1, 2, 7, 15, 18, 19, 20, 21, 26]",112.1442356,7820,3638,8,28,8,1.1558002336903517
basic,9,37,0,0,0,2,"[0, 22, 4, 2]",4,8,"[1, 7, 15, 18, 19, 20, 21, 26]",100.7424813,8635,815,7,12,8,1.3180840601310855
basic,9,37,0,0,0,1,"[0, 22, 4, 2, 1]",5,7,"[7, 15, 18, 19, 20, 21, 26]",83.53783081,10400,1765,7,4,8,1.3672506917303464
basic,9,37,0,0,0,15,"[0, 22, 4, 2, 1, 15]",6,3,"[20, 21, 26]",43.5753484,12010,1610,2,1,8,1.5410402460753214
basic,9,37,0,0,0,21,"[0, 22, 4, 2, 1, 15, 21]",7,1,[20],28.5753484,13174,1164,1,0,8,1.7489442409369826
basic,9,37,0,0,1,20,"[0, 22, 4, 2, 1, 15, 21, 20]",8,0,[],14.1531433,13866,692,1,0,8,1.9069598475868441
basic,9,37,0,1,1,20,"[0, 22, 4, 2, 1, 15, 21, 20]",8,0,[],14.1531433,15084,1218,1,0,8,1.9069598475868441
basic,10,2,0,0,0,0,[0],1,23,"[1, 2, 4, 5, 6, 7, 8, 9, 12, 13, 15, 16, 17, 18, 19, 20, 22, 23, 25, 26, 27, 28, 29]",300,148,-1,70,620,10,0.0
basic,10,2,0,0,0,19,"[0, 19]",2,22,"[1, 2, 4, 5, 6, 7, 8, 9, 12, 13, 15, 16, 17, 18, 20, 22, 23, 25, 26, 27, 28, 29]",210.306076,3203,3055,67,431,10,1.0
basic,10,2,0,0,0,12,"[0, 19, 12]",3,17,"[1, 4, 5, 6, 7, 13, 15, 16, 17, 18, 20, 22, 25, 26, 27, 28, 29]",174.2921898,4192,989,66,298,10,1.1107635036313153
basic,10,2,0,0,0,5,"[0, 19, 12, 5]",4,11,"[1, 6, 7, 13, 15, 16, 18, 22, 25, 26, 29]",144.7625437,4906,714,38,136,10,1.0968174771581647
basic,10,2,0,0,0,22,"[0, 19, 12, 5, 22]",5,8,"[1, 6, 7, 13, 15, 18, 26, 29]",131.9562952,5682,776,20,63,10,1.0889910507461968
basic,10,2,0,0,0,13,"[0, 19, 12, 5, 22, 13]",6,7,"[1, 6, 7, 15, 18, 26, 29]",117.0902265,6548,866,19,20,10,1.236526217328057
basic,10,2,0,0,0,18,"[0, 19, 12, 5, 22, 13, 18]",7,4,"[7, 15, 26, 29]",81.91921567,7761,1213,10,3,10,1.2128708213409936
basic,10,2,0,0,0,7,"[0, 19, 12, 5, 22, 13, 18, 7]",8,3,"[15, 26, 29]",71.62358553,9708,1947,5,0,10,1.2019811287894737
basic,10,2,0,0,0,26,"[0, 19, 12, 5, 22, 13, 18, 7, 26]",9,2,"[15, 29]",48.82007703,11709,2001,2,0,10,1.1883593342191134
basic,10,2,0,0,1,15,"[0, 19, 12, 5, 22, 13, 18, 7, 26, 15]",10,0,[],24.61264015,12703,994,1,0,10,1.4619750353663825
basic,10,2,0,1,1,15,"[0, 19, 12, 5, 22, 13, 18, 7, 26, 15]",10,0,[],24.61264015,15651,2948,1,0,10,1.4619750353663825
basic,11,25,0,0,0,0,[0],1,28,"[1, 2, 3, 4, 5, 7, 8, 9, 10, 11, 12, 13, 14, 15, 16, 17, 18, 19, 20, 21, 22, 23, 24, 25, 26, 27, 28, 29]",300,150,-1,5,94,10,0.0
basic,11,25,0,0,0,23,"[0, 23]",2,23,"[1, 2, 3, 5, 7, 8, 9, 11, 12, 13, 14, 16, 17, 19, 20, 21, 22, 24, 25, 26, 27, 28, 29]",259.7756293,2028,1878,3,33,10,1.0
basic,11,25,0,0,0,19,"[0, 23, 19]",3,21,"[1, 2, 3, 5, 7, 8, 9, 11, 12, 13, 14, 16, 17, 20, 21, 22, 24, 25, 27, 28, 29]",223.9287326,2694,666,3,24,10,1.583101227007039
basic,11,25,0,0,0,29,"[0, 23, 19, 29]",4,19,"[1, 2, 3, 5, 7, 8, 9, 11, 12, 13, 14, 16, 17, 20, 21, 22, 24, 25, 28]",207.649912,3460,766,3,17,10,1.474631541426484
basic,11,25,0,0,0,22,"[0, 23, 19, 29, 22]",5,18,"[1, 2, 3, 5, 7, 8, 9, 11, 12, 13, 14, 16, 17, 20, 21, 24, 25, 28]",191.5253965,4298,838,3,14,10,1.4020377754906637
basic,11,25,0,0,0,7,"[0, 23, 19, 29, 22, 7]",6,7,"[3, 8, 9, 11, 13, 24, 28]",115.8814939,5416,1118,3,11,10,1.5709678649326715
basic,11,25,0,0,0,24,"[0, 23, 19, 29, 22, 7, 24]",7,5,"[3, 8, 9, 13, 28]",91.12265712,6453,1037,3,7,10,1.486191600033379
basic,11,25,0,0,0,9,"[0, 23, 19, 29, 22, 7, 24, 9]",8,4,"[3, 8, 13, 28]",73.09490075,7315,862,3,3,10,1.453504870342882
basic,11,25,0,0,0,3,"[0, 23, 19, 29, 22, 7, 24, 9, 3]",9,3,"[8, 13, 28]",42.82940885,8606,1291,3,0,10,1.388955167525479
basic,11,25,0,0,1,28,"[0, 23, 19, 29, 22, 7, 24, 9, 3, 28]",10,0,[],11.52445716,10130,1524,1,0,10,1.3331084120212044
basic,11,25,0,1,1,28,"[0, 23, 19, 29, 22, 7, 24, 9, 3, 28]",10,0,[],11.52445716,11404,1274,1,0,10,1.3331084120212044
basic,12,30,0,0,0,0,[0],1,19,"[3, 4, 5, 7, 9, 11, 16, 17, 18, 19, 20, 21, 22, 24, 25, 26, 27, 28, 29]",300,132,-1,5,41,8,0.0
basic,12,30,0,0,0,25,"[0, 25]",2,12,"[3, 5, 7, 9, 11, 16, 18, 19, 20, 24, 27, 29]",121.1005869,4486,4354,7,37,7,1.0
basic,12,30,0,0,0,27,"[0, 25, 27]",3,8,"[3, 5, 7, 18, 19, 20, 24, 29]",81.54050603,5499,1013,2,17,7,1.0432445497342653
basic,12,30,0,0,0,3,"[0, 25, 27, 3]",4,5,"[5, 7, 18, 20, 29]",62.43553286,6323,824,2,6,7,1.0419393955972533
basic,12,30,0,0,0,29,"[0, 25, 27, 3, 29]",5,3,"[5, 7, 18]",43.83445762,7074,751,1,2,7,1.0521853644580021
basic,12,30,0,0,0,18,"[0, 25, 27, 3, 29, 18]",6,1,[5],24.5212497,8045,971,1,0,7,1.1278751785159948
basic,12,30,0,0,1,5,"[0, 25, 27, 3, 29, 18, 5]",7,0,[],11.48284489,8622,577,1,0,7,1.1931367962604076
basic,12,30,0,1,1,5,"[0, 25, 27, 3, 29, 18, 5]",7,0,[],11.48284489,10356,1734,1,0,7,1.1931367962604076
basic,13,28,0,0,0,0,[0],1,27,"[1, 2, 3, 4, 5, 6, 7, 8, 9, 10, 11, 12, 13, 14, 15, 16, 17, 18, 19, 20, 22, 23, 25, 26, 27, 28, 29]",300,131,-1,2,96,9,0.0
basic,13,28,0,0,0,3,"[0, 3]",2,26,"[1, 2, 4, 5, 6, 7, 8, 9, 10, 11, 12, 13, 14, 15, 16, 17, 18, 19, 20, 22, 23, 25, 26, 27, 28, 29]",251.0817008,6874,6743,1,64,9,1.0
basic,13,28,0,0,0,19,"[0, 3, 19]",3,16,"[2, 4, 5, 7, 8, 9, 11, 12, 13, 14, 17, 18, 25, 26, 27, 28]",117.395501,8503,1629,1,25,8,1.0001110274483707
basic,13,28,0,0,0,7,"[0, 3, 19, 7]",4,8,"[2, 11, 12, 13, 14, 17, 18, 26]",89.66465178,10270,1767,1,8,8,1.073754623614866
basic,13,28,0,0,0,12,"[0, 3, 19, 7, 12]",5,5,"[2, 13, 14, 17, 18]",76.51170534,10946,676,1,3,8,1.08477960812797
basic,13,28,0,0,0,13,"[0, 3, 19, 7, 12, 13]",6,2,"[14, 18]",59.30705481,12148,1202,1,1,8,1.2632233377567077
basic,13,28,0,0,0,18,"[0, 3, 19, 7, 12, 13, 18]",7,1,[14],34.89394358,13542,1394,1,0,8,1.5935296278628661
basic,13,28,0,0,1,14,"[0, 3, 19, 7, 12, 13, 18, 14]",8,0,[],9.39884601,14848,1306,1,0,8,1.910485787708702
basic,13,28,0,1,1,14,"[0, 3, 19, 7, 12, 13, 18, 14]",8,0,[],9.39884601,16017,1169,1,0,8,1.910485787708702
basic,14,12,0,0,0,0,[0],1,29,"[1, 2, 3, 4, 5, 6, 7, 8, 9, 10, 11, 12, 13, 14, 15, 16, 17, 18, 19, 20, 21, 22, 23, 24, 25, 26, 27, 28, 29]",300,130,-1,2,32,9,0.0
basic,14,12,0,0,0,22,"[0, 22]",2,22,"[2, 4, 5, 6, 7, 9, 10, 12, 13, 14, 15, 16, 17, 18, 19, 21, 23, 24, 25, 27, 28, 29]",211.9943184,5201,5071,6,42,8,1.0
basic,14,12,0,0,0,16,"[0, 22, 16]",3,12,"[2, 4, 5, 6, 7, 12, 14, 19, 23, 24, 25, 27]",190.9943184,6105,904,6,24,8,1.2017164145167045
basic,14,12,0,0,0,4,"[0, 22, 16, 4]",4,9,"[2, 6, 7, 12, 14, 19, 24, 25, 27]",156.7890556,6872,767,6,14,8,1.146531713305579
basic,14,12,0,0,0,12,"[0, 22, 16, 4, 12]",5,4,"[14, 19, 24, 27]",114.5990094,7549,677,4,3,8,1.1221389456954312
basic,14,12,0,0,0,27,"[0, 22, 16, 4, 12, 27]",6,3,"[14, 19, 24]",90.24741807,9731,2182,2,1,8,1.2262878338287035
basic,14,12,0,0,0,14,"[0, 22, 16, 4, 12, 27, 14]",7,1,[24],61.59432051,10467,736,1,0,8,1.2804562106751427
basic,14,12,0,0,1,24,"[0, 22, 16, 4, 12, 27, 14, 24]",8,0,[],44.38966997,11135,668,1,0,8,1.4322660007679802
basic,14,12,0,1,1,24,"[0, 22, 16, 4, 12, 27, 14, 24]",8,0,[],44.38966997,12902,1767,1,0,8,1.4322660007679802
basic,15,1,0,0,0,0,[0],1,26,"[1, 2, 4, 5, 7, 8, 9, 10, 11, 12, 13, 14, 15, 16, 17, 18, 19, 20, 21, 22, 23, 24, 25, 26, 28, 29]",300,147,-1,6,74,7,0.0
basic,15,1,0,0,0,14,"[0, 14]",2,19,"[1, 4, 5, 8, 9, 13, 15, 17, 18, 19, 20, 21, 22, 23, 24, 25, 26, 28, 29]",200.1901808,4427,4280,5,42,7,1.0
basic,15,1,0,0,0,17,"[0, 14, 17]",3,15,"[1, 4, 5, 8, 9, 13, 15, 18, 19, 20, 22, 23, 25, 28, 29]",147.8356204,5603,1176,5,27,7,1.0028844724416826
basic,15,1,0,0,0,1,"[0, 14, 17, 1]",4,12,"[4, 5, 8, 9, 15, 18, 20, 22, 23, 25, 28, 29]",123.4840291,6453,850,5,15,7,1.0264985578353567
basic,15,1,0,0,0,28,"[0, 14, 17, 1, 28]",5,5,"[9, 15, 22, 23, 29]",88.59850198,7136,683,5,3,7,1.0339861575999345
basic,15,1,0,0,0,23,"[0, 14, 17, 1, 28, 23]",6,2,"[15, 22]",51.70676849,8869,1733,2,0,7,1.0327458250705703
basic,15,1,0,0,1,15,"[0, 14, 17, 1, 28, 23, 15]",7,0,[],20.81987807,10296,1427,1,0,7,1.1948681641401226
basic,15,1,0,1,1,15,"[0, 14, 17, 1, 28, 23, 15]",7,0,[],20.81987807,11937,1641,1,0,7,1.1948681641401226
basic,16,0,0,0,0,0,[0],1,27,"[2, 3, 4, 5, 6, 7, 8, 9, 10, 11, 12, 13, 14, 15, 16, 17, 19, 20, 21, 22, 23, 24, 25, 26, 27, 28, 29]",300,130,-1,104,1136,9,0.0
basic,16,0,0,0,0,4,"[0, 4]",2,21,"[2, 3, 5, 7, 8, 9, 11, 12, 13, 14, 15, 17, 19, 20, 21, 22, 23, 24, 25, 26, 28]",143.4592705,1749,1619,6,104,8,1.0
basic,16,0,0,0,0,24,"[0, 4, 24]",3,20,"[2, 3, 5, 7, 8, 9, 11, 12, 13, 14, 15, 17, 19, 20, 21, 22, 23, 25, 26, 28]",132.0575162,2288,539,50,161,7,1.0066547847558276
basic,16,0,0,0,0,15,"[0, 4, 24, 15]",4,14,"[2, 3, 5, 7, 8, 9, 11, 12, 17, 19, 23, 25, 26, 28]",108.7122812,3418,1130,19,36,7,1.0119485334867309
basic,16,0,0,0,0,7,"[0, 4, 24, 15, 7]",5,9,"[3, 5, 8, 9, 12, 17, 19, 23, 26]",77.64783203,5883,2465,6,7,7,1.084593106466417
basic,16,0,0,0,0,3,"[0, 4, 24, 15, 7, 3]",6,4,"[8, 17, 19, 23]",53.56464287,7169,1286,4,0,7,1.1369029737355065
basic,16,0,0,0,1,8,"[0, 4, 24, 15, 7, 3, 8]",7,0,[],23.15083022,7996,827,1,0,7,1.2444701916673542
basic,16,0,0,1,1,8,"[0, 4, 24, 15, 7, 3, 8]",7,0,[],23.15083022,9372,1376,1,0,7,1.2444701916673542
basic,17,26,0,0,0,0,[0],1,29,"[1, 2, 3, 4, 5, 6, 7, 8, 9, 10, 11, 12, 13, 14, 15, 16, 17, 18, 19, 20, 21, 22, 23, 24, 25, 26, 27, 28, 29]",300,131,-1,9,226,9,0.0
basic,17,26,0,0,0,16,"[0, 16]",2,17,"[3, 4, 5, 6, 10, 11, 12, 13, 14, 17, 18, 19, 21, 22, 23, 26, 29]",188.0535842,4293,4162,34,176,8,1.0
basic,17,26,0,0,0,29,"[0, 16, 29]",3,12,"[4, 5, 6, 10, 12, 13, 14, 17, 19, 21, 23, 26]",163.8461474,4983,690,32,68,8,1.1142946124989752
basic,17,26,0,0,0,4,"[0, 16, 29, 4]",4,9,"[5, 6, 10, 12, 13, 14, 17, 21, 23]",139.8461474,5649,666,17,7,8,1.3213762371676339
basic,17,26,0,0,0,17,"[0, 16, 29, 4, 17]",5,5,"[6, 10, 14, 21, 23]",118.7511243,6555,906,6,0,8,1.2756100061290643
basic,17,26,0,0,0,14,"[0, 16, 29, 4, 17, 14]",6,2,"[6, 10]",96.27891921,7508,953,2,0,8,1.264154039440982
basic,17,26,0,0,0,6,"[0, 16, 29, 4, 17, 14, 6]",7,1,[10],75.25512317,8385,877,1,0,8,1.3993089646092733
basic,17,26,0,0,1,10,"[0, 16, 29, 4, 17, 14, 6, 10]",8,0,[],45.98056083,9063,678,1,0,8,1.5697867669370302
basic,17,26,0,1,1,10,"[0, 16, 29, 4, 17, 14, 6, 10]",8,0,[],45.98056083,10405,1342,1,0,8,1.5697867669370302
basic,18,24,0,0,0,0,[0],1,29,"[1, 2, 3, 4, 5, 6, 7, 8, 9, 10, 11, 12, 13, 14, 15, 16, 17, 18, 19, 20, 21, 22, 23, 24, 25, 26, 27, 28, 29]",300,166,-1,4,76,10,0.0
basic,18,24,0,0,0,16,"[0, 16]",2,28,"[1, 2, 3, 4, 5, 6, 7, 8, 9, 10, 11, 12, 13, 14, 15, 17, 18, 19, 20, 21, 22, 23, 24, 25, 26, 27, 28, 29]",210.3562607,5452,5286,13,110,9,1.0
basic,18,24,0,0,0,22,"[0, 16, 22]",3,27,"[1, 2, 3, 4, 5, 6, 7, 8, 9, 10, 11, 12, 13, 14, 15, 17, 18, 19, 20, 21, 23, 24, 25, 26, 27, 28, 29]",192.3285043,10966,5514,7,54,9,1.0217425143037777
basic,18,24,0,0,0,8,"[0, 16, 22, 8]",4,21,"[1, 2, 3, 4, 6, 9, 10, 11, 13, 14, 15, 17, 20, 21, 23, 24, 25, 26, 27, 28, 29]",178.9120964,11906,940,4,28,9,1.0996636936037951
basic,18,24,0,0,0,15,"[0, 16, 22, 8, 15]",5,16,"[3, 4, 6, 9, 10, 11, 13, 14, 17, 23, 24, 25, 26, 27, 28, 29]",148.025206,12713,807,3,17,9,1.2704773343758617
basic,18,24,0,0,0,28,"[0, 16, 22, 8, 15, 28]",6,8,"[3, 4, 9, 11, 13, 23, 26, 27]",102.7482803,13650,937,3,5,9,1.1981967578189556
basic,18,24,0,0,0,23,"[0, 16, 22, 8, 15, 28, 23]",7,3,"[9, 11, 27]",83.72198273,14345,695,3,1,9,1.2275650852813986
basic,18,24,0,0,0,11,"[0, 16, 22, 8, 15, 28, 23, 11]",8,2,"[9, 27]",56.79615869,15320,975,2,0,9,1.2107937989822568
basic,18,24,0,0,1,27,"[0, 16, 22, 8, 15, 28, 23, 11, 27]",9,0,[],28.99328114,16377,1057,1,0,9,1.1865620449755248
basic,18,24,0,1,1,27,"[0, 16, 22, 8, 15, 28, 23, 11, 27]",9,0,[],28.99328114,18084,1707,1,0,9,1.1865620449755248
basic,19,31,0,0,0,0,[0],1,27,"[1, 3, 4, 5, 6, 7, 8, 10, 11, 12, 13, 14, 15, 16, 17, 18, 19, 20, 21, 22, 23, 24, 25, 26, 27, 28, 29]",300,129,-1,2,87,10,0.0
basic,19,31,0,0,0,27,"[0, 27]",2,26,"[1, 3, 4, 5, 6, 7, 8, 10, 11, 12, 13, 14, 15, 16, 17, 18, 19, 20, 21, 22, 23, 24, 25, 26, 28, 29]",259.5030865,2318,2189,14,191,9,1.0
basic,19,31,0,0,0,8,"[0, 27, 8]",3,23,"[1, 3, 5, 6, 7, 10, 11, 12, 13, 14, 15, 16, 17, 18, 19, 20, 21, 22, 24, 25, 26, 28, 29]",248.4577255,3125,807,9,131,9,1.481736210960148
basic,19,31,0,0,0,18,"[0, 27, 8, 18]",4,19,"[1, 3, 5, 6, 7, 10, 11, 12, 13, 14, 16, 17, 19, 20, 21, 22, 25, 28, 29]",212.6108289,3741,616,5,65,9,1.3573609555685873
basic,19,31,0,0,0,17,"[0, 27, 8, 18, 17]",5,14,"[1, 5, 6, 7, 11, 12, 13, 14, 16, 19, 20, 22, 25, 28]",183.4046651,4582,841,4,35,9,1.288051401172667
basic,19,31,0,0,0,11,"[0, 27, 8, 18, 17, 11]",6,11,"[1, 5, 7, 12, 14, 16, 19, 20, 22, 25, 28]",142.2950555,5239,657,3,7,9,2.5759979840041423
basic,19,31,0,0,0,5,"[0, 27, 8, 18, 17, 11, 5]",7,3,"[16, 25, 28]",98.61439621,6227,988,2,1,9,2.29559828660968
basic,19,31,0,0,0,28,"[0, 27, 8, 18, 17, 11, 5, 28]",8,1,[16],78.3906478,6998,771,1,0,9,2.0646336243139256
basic,19,31,0,0,1,16,"[0, 27, 8, 18, 17, 11, 5, 28, 16]",9,0,[],44.77517517,8030,1032,1,0,9,1.911005813618587
basic,19,31,0,1,1,16,"[0, 27, 8, 18, 17, 11, 5, 28, 16]",9,0,[],44.77517517,9388,1358,1,0,9,1.911005813618587
basic,20,19,0,0,0,0,[0],1,29,"[1, 2, 3, 4, 5, 6, 7, 8, 9, 10, 11, 12, 13, 14, 15, 16, 17, 18, 19, 20, 21, 22, 23, 24, 25, 26, 27, 28, 29]",300,148,-1,12,149,8,0.0
basic,20,19,0,0,0,29,"[0, 29]",2,28,"[1, 2, 3, 4, 5, 6, 7, 8, 9, 10, 11, 12, 13, 14, 15, 16, 17, 18, 19, 20, 21, 22, 23, 24, 25, 26, 27, 28]",265.0715016,15463,15315,12,120,8,1.0
basic,20,19,0,0,0,9,"[0, 29, 9]",3,17,"[1, 4, 5, 6, 7, 10, 11, 12, 13, 14, 19, 20, 21, 22, 24, 27, 28]",181.7108394,16647,1184,11,65,8,1.0375842971861238
basic,20,19,0,0,0,6,"[0, 29, 9, 6]",4,12,"[4, 7, 10, 11, 13, 14, 20, 21, 22, 24, 27, 28]",140.2741407,17371,724,11,34,8,1.0389786364356892
basic,20,19,0,0,0,22,"[0, 29, 9, 6, 22]",5,7,"[4, 7, 10, 11, 14, 20, 24]",79.27414071,28919,11548,2,4,8,1.0360889604738772
basic,20,19,0,0,0,20,"[0, 29, 9, 6, 22, 20]",6,4,"[10, 11, 14, 24]",66.12119427,29576,657,2,2,8,1.0344974630090689
basic,20,19,0,0,1,24,"[0, 29, 9, 6, 22, 20, 24]",7,0,[],27.2882186,30262,686,1,0,7,1.0508519843483526
basic,20,19,0,1,1,24,"[0, 29, 9, 6, 22, 20, 24]",7,0,[],27.2882186,31771,1509,1,0,7,1.0508519843483526
basic,21,10,0,0,0,0,[0],1,29,"[1, 2, 3, 4, 5, 6, 7, 8, 9, 10, 11, 12, 13, 14, 15, 16, 17, 18, 19, 20, 21, 22, 23, 24, 25, 26, 27, 28, 29]",300,146,-1,1,100,9,0.0
basic,21,10,0,0,0,13,"[0, 13]",2,25,"[1, 2, 3, 4, 6, 7, 8, 9, 10, 11, 12, 14, 17, 18, 19, 20, 21, 22, 23, 24, 25, 26, 27, 28, 29]",249.4628849,6981,6835,1,79,9,1.0
basic,21,10,0,0,0,11,"[0, 13, 11]",3,20,"[1, 2, 3, 6, 7, 8, 9, 10, 12, 14, 18, 19, 20, 21, 22, 24, 26, 27, 28, 29]",206.4512586,7761,780,1,54,9,1.0313137484914219
basic,21,10,0,0,0,19,"[0, 13, 11, 19]",4,11,"[2, 6, 8, 9, 10, 14, 18, 20, 24, 26, 27]",170.0919407,8444,683,1,22,9,1.0879446220132545
basic,21,10,0,0,0,2,"[0, 13, 11, 19, 2]",5,4,"[14, 20, 26, 27]",126.1829439,9129,685,1,4,9,1.06474052351343
basic,21,10,0,0,0,14,"[0, 13, 11, 19, 2, 14]",6,3,"[20, 26, 27]",114.0174188,10029,900,1,3,9,1.1628909195912238
basic,21,10,0,0,0,26,"[0, 13, 11, 19, 2, 14, 26]",7,2,"[20, 27]",79.34754716,10799,770,1,1,9,1.6660727647633602
basic,21,10,0,0,0,20,"[0, 13, 11, 19, 2, 14, 26, 20]",8,1,[27],47.56704999,11409,610,1,0,9,2.085581809637999
basic,21,10,0,0,1,27,"[0, 13, 11, 19, 2, 14, 26, 20, 27]",9,0,[],2.312215998,13008,1599,1,0,9,1.9116357409137932
basic,21,10,0,1,1,27,"[0, 13, 11, 19, 2, 14, 26, 20, 27]",9,0,[],2.312215998,14167,1159,1,0,9,1.9116357409137932
basic,22,21,0,0,0,0,[0],1,29,"[1, 2, 3, 4, 5, 6, 7, 8, 9, 10, 11, 12, 13, 14, 15, 16, 17, 18, 19, 20, 21, 22, 23, 24, 25, 26, 27, 28, 29]",300,130,-1,84,830,9,0.0
basic,22,21,0,0,0,25,"[0, 25]",2,26,"[1, 2, 3, 4, 5, 6, 7, 8, 9, 10, 11, 12, 13, 14, 15, 16, 17, 18, 20, 21, 22, 23, 24, 26, 27, 29]",240.1836143,5049,4919,30,238,9,1.0
basic,22,21,0,0,0,23,"[0, 25, 23]",3,21,"[1, 2, 4, 6, 7, 8, 9, 10, 11, 12, 14, 15, 16, 17, 18, 20, 21, 22, 24, 27, 29]",196.8592562,5802,753,14,80,9,1.0416131642057598
basic,22,21,0,0,0,21,"[0, 25, 23, 21]",4,14,"[1, 4, 6, 8, 9, 14, 15, 16, 17, 18, 20, 22, 24, 29]",167.2450705,6733,931,10,25,9,1.4768792067751173
basic,22,21,0,0,0,14,"[0, 25, 23, 21, 14]",5,10,"[4, 8, 9, 15, 16, 17, 18, 22, 24, 29]",141.6325735,7248,515,8,13,9,1.3826076066332742
basic,22,21,0,0,0,4,"[0, 25, 23, 21, 14, 4]",6,7,"[8, 15, 16, 17, 18, 24, 29]",127.4904379,7833,585,8,3,9,1.3487191473328533
basic,22,21,0,0,0,16,"[0, 25, 23, 21, 14, 4, 16]",7,3,"[8, 15, 24]",82.89223163,8979,1146,4,1,9,1.3301484172843694
basic,22,21,0,0,0,8,"[0, 25, 23, 21, 14, 4, 16, 8]",8,2,"[15, 24]",64.2911564,9644,665,2,0,9,1.3009886562393016
basic,22,21,0,0,1,15,"[0, 25, 23, 21, 14, 4, 16, 8, 15]",9,0,[],39.2911564,11665,2021,1,0,9,1.5486591410600183
basic,22,21,0,1,1,15,"[0, 25, 23, 21, 14, 4, 16, 8, 15]",9,0,[],39.2911564,13352,1687,1,0,9,1.5486591410600183
undo,23,31,0,0,0,0,[0],1,27,"[1, 3, 4, 5, 6, 7, 8, 10, 11, 12, 13, 14, 15, 16, 17, 18, 19, 20, 21, 22, 23, 24, 25, 26, 27, 28, 29]",300,150,-1,2,87,10,0.0
undo,23,31,0,0,0,14,"[0, 14]",2,25,"[1, 3, 5, 6, 7, 8, 10, 11, 12, 13, 15, 16, 17, 18, 19, 20, 21, 22, 23, 24, 25, 26, 27, 28, 29]",263.861378,4088,3938,2,59,10,1.0
undo,23,31,0,0,0,27,"[0, 14, 27]",3,22,"[1, 3, 5, 6, 7, 8, 10, 11, 12, 13, 15, 16, 17, 18, 19, 20, 21, 22, 24, 25, 28, 29]",235.6833724,5237,1149,1,39,10,1.5881859159302467
undo,23,31,0,0,0,8,"[0, 14, 27, 8]",4,20,"[1, 3, 5, 6, 7, 10, 11, 12, 13, 16, 17, 18, 19, 20, 21, 22, 24, 25, 28, 29]",224.6380114,6899,1662,1,36,10,2.1665048452331277
undo,23,31,0,0,0,18,"[0, 14, 27, 8, 18]",5,15,"[1, 5, 6, 7, 11, 12, 13, 16, 17, 19, 20, 22, 25, 28, 29]",188.7911147,7570,671,1,26,10,1.7273375741920205
undo,23,31,0,0,0,17,"[0, 14, 27, 8, 18, 17]",6,13,"[1, 5, 6, 7, 11, 12, 13, 16, 19, 20, 22, 25, 28]",159.584951,8202,632,1,13,10,1.551192427769927
undo,23,31,0,0,0,11,"[0, 14, 27, 8, 18, 17, 11]",7,7,"[5, 12, 16, 19, 22, 25, 28]",118.4753414,8904,702,1,4,10,2.9650760544203494
undo,23,31,0,0,0,5,"[0, 14, 27, 8, 18, 17, 11, 5]",8,2,"[16, 28]",74.79468207,10015,1111,1,1,10,2.56711965625205
undo,23,31,0,0,0,28,"[0, 14, 27, 8, 18, 17, 11, 5, 28]",9,1,[16],54.57093365,10888,873,1,0,10,2.2865510762058148
undo,23,31,0,0,1,16,"[0, 14, 27, 8, 18, 17, 11, 5, 28, 16]",10,0,[],20.95546102,11733,845,1,0,10,2.089356850786318
undo,23,31,0,1,1,16,"[0, 14, 27, 8, 18, 17, 11, 5, 28, 16]",10,0,[],20.95546102,12905,1172,1,0,10,2.089356850786318
undo,24,19,0,0,0,0,[0],1,29,"[1, 2, 3, 4, 5, 6, 7, 8, 9, 10, 11, 12, 13, 14, 15, 16, 17, 18, 19, 20, 21, 22, 23, 24, 25, 26, 27, 28, 29]",300,169,-1,12,149,8,0.0
undo,24,19,0,0,0,29,"[0, 29]",2,28,"[1, 2, 3, 4, 5, 6, 7, 8, 9, 10, 11, 12, 13, 14, 15, 16, 17, 18, 19, 20, 21, 22, 23, 24, 25, 26, 27, 28]",265.0715016,5085,4916,12,120,8,1.0
undo,24,19,0,0,0,9,"[0, 29, 9]",3,17,"[1, 4, 5, 6, 7, 10, 11, 12, 13, 14, 19, 20, 21, 22, 24, 27, 28]",181.7108394,6049,964,11,65,8,1.0375842971861238
undo,24,19,0,0,0,6,"[0, 29, 9, 6]",4,12,"[4, 7, 10, 11, 13, 14, 20, 21, 22, 24, 27, 28]",140.2741407,6982,933,11,34,8,1.0389786364356892
undo,24,19,0,0,0,14,"[0, 29, 9, 6, 14]",5,7,"[4, 10, 11, 20, 22, 24, 28]",80.59164747,12645,5663,3,6,8,1.0491884155331486
undo,24,19,0,0,0,11,"[0, 29, 9, 6, 14, 11]",6,5,"[4, 20, 22, 24, 28]",69.77499364,13668,1023,3,2,8,1.050030420094996
undo,24,19,0,0,0,20,"[0, 29, 9, 6, 14, 11, 20]",7,1,[22],21.97332003,14960,1292,1,0,8,1.2297732331070566
undo,24,19,0,0,1,22,"[0, 29, 9, 6, 14, 11, 20, 22]",8,0,[],8.82037359,15932,972,1,0,8,1.3667995105273867
undo,24,19,0,1,1,22,"[0, 29, 9, 6, 14, 11, 20, 22]",8,0,[],8.82037359,17266,1334,1,0,8,1.3667995105273867
undo,25,38,0,0,0,0,[0],1,29,"[1, 2, 3, 4, 5, 6, 7, 8, 9, 10, 11, 12, 13, 14, 15, 16, 17, 18, 19, 20, 21, 22, 23, 24, 25, 26, 27, 28, 29]",300,188,-1,33,506,9,0.0
undo,25,38,0,0,0,15,"[0, 15]",2,24,"[1, 2, 3, 4, 5, 6, 7, 10, 11, 12, 13, 14, 16, 17, 18, 19, 20, 21, 22, 24, 25, 26, 27, 28]",226.6242547,7165,6977,26,315,8,1.0
undo,25,38,0,0,0,4,"[0, 15, 4]",3,21,"[1, 3, 5, 6, 7, 10, 11, 12, 13, 14, 16, 17, 18, 19, 20, 22, 24, 25, 26, 27, 28]",200.6242547,8570,1405,13,104,8,1.4173413634934033
undo,25,38,0,0,0,20,"[0, 15, 4, 20]",4,16,"[3, 5, 6, 7, 11, 13, 14, 16, 17, 18, 19, 22, 24, 26, 27, 28]",166.6831292,9301,731,6,33,8,2.4756321407912334
undo,25,38,0,0,0,17,"[0, 15, 4, 20, 17]",5,13,"[3, 5, 6, 11, 13, 16, 18, 19, 22, 24, 26, 27, 28]",142.9134005,9805,504,5,14,8,2.4236103458312424
undo,25,38,0,0,0,19,"[0, 15, 4, 20, 17, 19]",6,7,"[3, 6, 13, 18, 22, 26, 27]",121.5358422,10382,577,4,4,8,2.216988824378052
undo,25,38,0,0,0,13,"[0, 15, 4, 20, 17, 19, 13]",7,1,[26],44.84164426,15193,4811,1,0,8,2.610460802264847
undo,25,38,0,0,1,26,"[0, 15, 4, 20, 17, 19, 13, 26]",8,0,[],13.79329487,16027,834,1,0,8,2.2733440683458648
undo,25,38,0,1,1,26,"[0, 15, 4, 20, 17, 19, 13, 26]",8,0,[],13.79329487,17149,1122,1,0,8,2.2733440683458648
undo,26,16,0,0,0,0,[0],1,29,"[1, 2, 3, 4, 5, 6, 7, 8, 9, 10, 11, 12, 13, 14, 15, 16, 17, 18, 19, 20, 21, 22, 23, 24, 25, 26, 27, 28, 29]",300,147,-1,13,161,9,0.0
undo,26,16,0,0,0,17,"[0, 17]",2,27,"[1, 2, 3, 4, 5, 7, 8, 9, 10, 11, 12, 13, 14, 15, 16, 18, 19, 20, 21, 22, 23, 24, 25, 26, 27, 28, 29]",241.3058776,3288,3141,2,58,9,1.0
undo,26,16,0,0,0,16,"[0, 17, 16]",3,26,"[1, 2, 3, 4, 5, 7, 8, 9, 10, 11, 12, 13, 14, 15, 18, 19, 20, 21, 22, 23, 24, 25, 26, 27, 28, 29]",212.9862731,4076,788,2,52,9,1.0529535521792848
undo,26,16,0,0,0,21,"[0, 17, 16, 21]",4,19,"[3, 5, 7, 8, 9, 10, 12, 14, 15, 19, 20, 22, 23, 24, 25, 26, 27, 28, 29]",168.332046,5766,1690,9,18,8,1.5524765786046826
undo,26,16,0,0,0,8,"[0, 17, 16, 21, 8]",5,7,"[3, 5, 9, 12, 15, 20, 25]",119.0776046,6785,1019,9,6,8,1.458624751458944
undo,26,16,0,0,0,20,"[0, 17, 16, 21, 8, 20]",6,3,"[9, 15, 25]",61.30217727,8416,1631,4,1,8,1.3191752290945782
undo,26,16,0,0,0,25,"[0, 17, 16, 21, 8, 20, 25]",7,2,"[9, 15]",48.65306663,9096,680,2,0,8,1.3641436248537882
undo,26,16,0,0,1,9,"[0, 17, 16, 21, 8, 20, 25, 9]",8,0,[],35.84681815,9878,782,1,0,8,1.3406027753205443
undo,26,16,0,1,1,9,"[0, 17, 16, 21, 8, 20, 25, 9]",8,0,[],35.84681815,12153,2275,1,0,8,1.3406027753205443
undo,27,20,0,0,0,0,[0],1,21,"[1, 2, 3, 4, 5, 6, 7, 8, 9, 12, 17, 18, 20, 21, 22, 23, 25, 26, 27, 28, 29]",300,131,-1,1,9,9,0.0
undo,27,20,0,0,0,12,"[0, 12]",2,20,"[1, 2, 3, 4, 5, 6, 7, 8, 9, 17, 18, 20, 21, 22, 23, 25, 26, 27, 28, 29]",271.5570747,4257,4126,1,8,9,1.0
undo,27,20,0,0,0,1,"[0, 12, 1]",3,12,"[3, 4, 5, 6, 8, 9, 20, 21, 23, 27, 28, 29]",189.5692707,5136,879,1,6,9,1.0757997779162911
undo,27,20,0,0,0,5,"[0, 12, 1, 5]",4,10,"[4, 6, 8, 9, 20, 21, 23, 27, 28, 29]",152.8950291,6084,948,1,5,9,1.1708231454516806
undo,27,20,0,0,0,21,"[0, 12, 1, 5, 21]",5,8,"[4, 6, 8, 9, 20, 23, 27, 28]",107.8950291,6769,685,1,4,9,1.126197336199212
undo,27,20,0,0,0,8,"[0, 12, 1, 5, 21, 8]",6,5,"[6, 9, 23, 27, 28]",90.43077988,7498,729,1,3,9,1.140007470699913
undo,27,20,0,0,0,23,"[0, 12, 1, 5, 21, 8, 23]",7,2,"[6, 9]",45.74297394,12127,4629,1,1,9,1.1162257896627588
undo,27,20,0,0,0,9,"[0, 12, 1, 5, 21, 8, 23, 9]",8,1,[6],26.53360123,12810,683,1,0,9,1.1086880559449597
undo,27,20,0,0,1,6,"[0, 12, 1, 5, 21, 8, 23, 9, 6]",9,0,[],3.511872362,13461,651,1,0,9,1.1186240265999328
undo,27,20,0,1,1,6,"[0, 12, 1, 5, 21, 8, 23, 9, 6]",9,0,[],3.511872362,14801,1340,1,0,9,1.1186240265999328
undo,28,34,0,0,0,0,[0],1,25,"[1, 3, 4, 5, 6, 7, 8, 9, 10, 11, 12, 13, 15, 18, 19, 20, 21, 22, 23, 24, 25, 26, 27, 28, 29]",300,131,-1,12,367,10,0.0
undo,28,34,0,0,0,13,"[0, 13]",2,24,"[1, 3, 4, 5, 6, 7, 8, 9, 10, 11, 12, 15, 18, 19, 20, 21, 22, 23, 24, 25, 26, 27, 28, 29]",279.9750156,4884,4753,12,331,10,1.0
undo,28,34,0,0,0,1,"[0, 13, 1]",3,16,"[3, 5, 7, 8, 9, 10, 11, 12, 19, 21, 22, 23, 24, 25, 27, 29]",211.8574701,5956,1072,3,92,10,1.0010381285747127
undo,28,34,0,0,0,8,"[0, 13, 1, 8]",4,14,"[3, 5, 7, 9, 10, 11, 12, 19, 22, 23, 24, 25, 27, 29]",201.0871405,6715,759,2,54,10,1.1636807
undo,28,34,0,0,0,25,"[0, 13, 1, 8, 25]",5,12,"[3, 5, 7, 9, 10, 11, 12, 22, 23, 24, 27, 29]",183.999133,7269,554,2,28,10,1.1396208815936457
undo,28,34,0,0,0,24,"[0, 13, 1, 8, 25, 24]",6,11,"[3, 5, 7, 9, 10, 11, 12, 22, 23, 27, 29]",166.5062774,8212,943,2,23,10,1.374180768736554
undo,28,34,0,0,0,12,"[0, 13, 1, 8, 25, 24, 12]",7,7,"[7, 9, 10, 11, 22, 23, 27]",115.4670767,10513,2301,1,8,10,1.4994254760835948
undo,28,34,0,0,0,7,"[0, 13, 1, 8, 25, 24, 12, 7]",8,5,"[9, 11, 22, 23, 27]",100.4337804,11445,932,1,4,10,1.758992610425009
undo,28,34,0,0,0,23,"[0, 13, 1, 8, 25, 24, 12, 7, 23]",9,1,[27],72.27352467,12616,1171,1,0,10,2.399781305190153
undo,28,34,0,0,1,27,"[0, 13, 1, 8, 25, 24, 12, 7, 23, 27]",10,0,[],18.60789321,13963,1347,1,0,10,4.766619878750327
undo,28,34,0,1,1,27,"[0, 13, 1, 8, 25, 24, 12, 7, 23, 27]",10,0,[],18.60789321,16300,2337,1,0,10,4.766619878750327
undo,29,39,0,0,0,0,[0],1,28,"[1, 2, 3, 4, 5, 6, 7, 9, 10, 11, 12, 13, 14, 15, 16, 17, 18, 19, 20, 21, 22, 23, 24, 25, 26, 27, 28, 29]",300,131,-1,1,30,10,0.0
undo,29,39,0,0,0,10,"[0, 10]",2,20,"[1, 2, 4, 5, 7, 9, 12, 13, 14, 15, 16, 17, 18, 19, 22, 23, 24, 26, 28, 29]",181.1723938,7108,6977,3,58,8,1.0
undo,29,39,0,0,0,7,"[0, 10, 7]",3,16,"[1, 2, 4, 5, 9, 12, 13, 15, 16, 18, 19, 22, 23, 24, 26, 29]",147.7508438,7906,798,2,20,8,1.0005787113875788
undo,29,39,0,0,0,26,"[0, 10, 7, 26]",4,12,"[1, 2, 5, 9, 12, 13, 16, 18, 19, 22, 24, 29]",129.0693022,8589,683,1,9,8,1.0582372046162405
undo,29,39,0,0,0,22,"[0, 10, 7, 26, 22]",5,7,"[1, 5, 12, 16, 18, 19, 29]",111.349257,9113,524,1,3,8,1.2183446345009497
undo,29,39,0,0,0,16,"[0, 10, 7, 26, 22, 16]",6,2,"[18, 19]",76.34925701,9929,816,1,1,8,1.1781376373699262
undo,29,39,0,0,0,19,"[0, 10, 7, 26, 22, 16, 19]",7,1,[18],58.88500781,10787,858,1,0,8,1.1953094970663214
undo,29,39,0,0,1,18,"[0, 10, 7, 26, 22, 16, 19, 18]",8,0,[],15.71094152,12980,2193,1,0,8,1.2126315998801338
undo,29,39,0,1,1,18,"[0, 10, 7, 26, 22, 16, 19, 18]",8,0,[],15.71094152,14169,1189,1,0,8,1.2126315998801338
undo,30,12,0,0,0,0,[0],1,29,"[1, 2, 3, 4, 5, 6, 7, 8, 9, 10, 11, 12, 13, 14, 15, 16, 17, 18, 19, 20, 21, 22, 23, 24, 25, 26, 27, 28, 29]",300,131,-1,2,32,9,0.0
undo,30,12,0,0,0,15,"[0, 15]",2,8,"[1, 2, 5, 11, 17, 18, 20, 21]",111.0423328,7080,6949,5,10,5,1.0
undo,30,12,0,0,0,17,"[0, 15, 17]",3,6,"[1, 5, 11, 18, 20, 21]",94.54991028,7807,727,5,2,5,1.0527046708350358
undo,30,12,0,0,0,11,"[0, 15, 17, 11]",4,2,"[1, 20]",51.13332359,8747,940,2,0,5,1.0435601758130517
undo,30,12,0,0,1,1,"[0, 15, 17, 11, 1]",5,0,[],34.58037823,9435,688,1,0,5,1.0923265651645073
undo,30,12,0,1,1,1,"[0, 15, 17, 11, 1]",5,0,[],34.58037823,10921,1486,1,0,5,1.0923265651645073
undo,31,13,0,0,0,0,[0],1,29,"[1, 2, 3, 4, 5, 6, 7, 8, 9, 10, 11, 12, 13, 14, 15, 16, 17, 18, 19, 20, 21, 22, 23, 24, 25, 26, 27, 28, 29]",300,148,-1,60,2676,11,0.0
undo,31,13,0,0,0,24,"[0, 24]",2,28,"[1, 2, 3, 4, 5, 6, 7, 8, 9, 10, 11, 12, 13, 14, 15, 16, 17, 18, 19, 20, 21, 22, 23, 25, 26, 27, 28, 29]",288.8196601,3695,3547,16,1444,11,1.0
undo,31,13,0,0,0,28,"[0, 24, 28]",3,23,"[1, 2, 3, 4, 6, 7, 8, 9, 10, 11, 12, 13, 15, 16, 17, 19, 20, 21, 22, 23, 26, 27, 29]",222.5324064,4759,1064,8,243,11,1.0513810491680837
undo,31,13,0,0,0,2,"[0, 24, 28, 2]",4,19,"[1, 3, 4, 6, 7, 9, 11, 12, 13, 15, 16, 17, 19, 20, 21, 23, 26, 27, 29]",184.889346,5418,659,7,110,11,1.050374132001543
undo,31,13,0,0,0,29,"[0, 24, 28, 2, 29]",5,18,"[1, 3, 4, 6, 7, 9, 11, 12, 13, 15, 16, 17, 19, 20, 21, 23, 26, 27]",173.1846461,6049,631,7,85,11,1.1393409619120594
undo,31,13,0,0,0,7,"[0, 24, 28, 2, 29, 7]",6,17,"[1, 3, 4, 6, 9, 11, 12, 13, 15, 16, 17, 19, 20, 21, 23, 26, 27]",157.9203086,7091,1042,5,45,11,1.349777315111579
undo,31,13,0,0,0,26,"[0, 24, 28, 2, 29, 7, 26]",7,16,"[1, 3, 4, 6, 9, 11, 12, 13, 15, 16, 17, 19, 20, 21, 23, 27]",147.480002,7684,593,5,25,11,1.5942082773824946
undo,31,13,0,0,0,6,"[0, 24, 28, 2, 29, 7, 26, 6]",8,12,"[1, 3, 4, 11, 13, 15, 16, 17, 19, 20, 23, 27]",127.3802508,8603,919,4,12,11,1.5898347940840756
undo,31,13,0,0,0,11,"[0, 24, 28, 2, 29, 7, 26, 6, 11]",9,6,"[1, 13, 15, 16, 17, 23]",108.2752776,9236,633,3,4,11,1.5029953945561012
undo,31,13,0,0,0,13,"[0, 24, 28, 2, 29, 7, 26, 6, 11, 13]",10,2,"[15, 17]",52.19497806,11797,2561,2,0,11,1.3655915863754327
undo,31,13,0,0,1,15,"[0, 24, 28, 2, 29, 7, 26, 6, 11, 13, 15]",11,0,[],12.38291958,12985,1188,1,0,11,1.3653085520078876
undo,31,13,0,1,1,15,"[0, 24, 28, 2, 29, 7, 26, 6, 11, 13, 15]",11,0,[],12.38291958,14669,1684,1,0,11,1.3653085520078876
undo,32,32,0,0,0,0,[0],1,29,"[1, 2, 3, 4, 5, 6, 7, 8, 9, 10, 11, 12, 13, 14, 15, 16, 17, 18, 19, 20, 21, 22, 23, 24, 25, 26, 27, 28, 29]",300,130,-1,17,359,10,0.0
undo,32,32,0,0,0,15,"[0, 15]",2,24,"[2, 3, 4, 5, 6, 7, 8, 9, 10, 11, 12, 13, 14, 16, 17, 19, 20, 22, 23, 24, 25, 26, 27, 28]",214.6185032,4318,4188,11,153,9,1.0
undo,32,32,0,0,0,28,"[0, 15, 28]",3,21,"[2, 3, 5, 7, 8, 9, 10, 11, 12, 13, 14, 16, 17, 19, 20, 22, 23, 24, 25, 26, 27]",203.2167489,4866,548,11,119,9,1.000160051986942
undo,32,32,0,0,0,12,"[0, 15, 28, 12]",4,19,"[2, 3, 5, 7, 8, 9, 10, 11, 13, 16, 17, 19, 20, 22, 23, 24, 25, 26, 27]",184.243083,5684,818,8,71,9,1.0281484763748023
undo,32,32,0,0,0,16,"[0, 15, 28, 12, 16]",5,17,"[2, 3, 5, 7, 8, 9, 10, 11, 13, 17, 19, 20, 22, 23, 24, 26, 27]",168.5906071,6267,583,6,38,9,1.1190771370096
undo,32,32,0,0,0,22,"[0, 15, 28, 12, 16, 22]",6,10,"[2, 3, 5, 8, 9, 10, 11, 17, 20, 27]",134.7527585,7964,1697,4,16,9,1.1702311155319893
undo,32,32,0,0,0,9,"[0, 15, 28, 12, 16, 22, 9]",7,6,"[2, 8, 10, 17, 20, 27]",112.5491552,9252,1288,2,4,9,1.2381424719932013
undo,32,32,0,0,0,8,"[0, 15, 28, 12, 16, 22, 9, 8]",8,1,[20],67.42709849,10146,894,1,0,9,1.187013645273504
undo,32,32,0,0,1,20,"[0, 15, 28, 12, 16, 22, 9, 8, 20]",9,0,[],17.09818036,11254,1108,1,0,9,1.3986201165175596
undo,32,32,0,1,1,20,"[0, 15, 28, 12, 16, 22, 9, 8, 20]",9,0,[],17.09818036,12303,1049,1,0,9,1.3986201165175596
undo,33,7,0,0,0,0,[0],1,29,"[1, 2, 3, 4, 5, 6, 7, 8, 9, 10, 11, 12, 13, 14, 15, 16, 17, 18, 19, 20, 21, 22, 23, 24, 25, 26, 27, 28, 29]",300,130,-1,3,79,9,0.0
undo,33,7,0,0,0,25,"[0, 25]",2,20,"[2, 3, 4, 5, 6, 7, 10, 13, 14, 15, 16, 18, 19, 20, 21, 22, 23, 24, 27, 28]",181.5939191,7065,6935,5,33,8,1.0
undo,33,7,0,0,0,4,"[0, 25, 4]",3,11,"[2, 6, 7, 13, 15, 16, 18, 19, 20, 21, 23]",156.8552853,7830,765,2,14,8,1.0193465608331511
undo,33,7,0,0,0,20,"[0, 25, 4, 20]",4,8,"[2, 6, 7, 13, 15, 16, 18, 19]",137.2084026,8760,930,1,9,8,1.085904909082323
undo,33,7,0,0,0,18,"[0, 25, 4, 20, 18]",5,7,"[2, 6, 7, 13, 15, 16, 19]",124.4021541,9993,1233,1,5,8,1.2264883846453758
undo,33,7,0,0,0,7,"[0, 25, 4, 20, 18, 7]",6,2,"[2, 19]",83.17109789,10928,935,1,1,8,1.185264473968278
undo,33,7,0,0,0,19,"[0, 25, 4, 20, 18, 7, 19]",7,1,[2],53.76021555,11825,897,1,0,8,1.3016904288278204
undo,33,7,0,0,1,2,"[0, 25, 4, 20, 18, 7, 19, 2]",8,0,[],23.61058868,12798,973,1,0,8,1.3168868000947171
undo,33,7,0,1,1,2,"[0, 25, 4, 20, 18, 7, 19, 2]",8,0,[],23.61058868,13802,1004,1,0,8,1.3168868000947171
undo,34,24,0,0,0,0,[0],1,29,"[1, 2, 3, 4, 5, 6, 7, 8, 9, 10, 11, 12, 13, 14, 15, 16, 17, 18, 19, 20, 21, 22, 23, 24, 25, 26, 27, 28, 29]",300,132,-1,4,76,10,0.0
undo,34,24,0,0,0,16,"[0, 16]",2,28,"[1, 2, 3, 4, 5, 6, 7, 8, 9, 10, 11, 12, 13, 14, 15, 17, 18, 19, 20, 21, 22, 23, 24, 25, 26, 27, 28, 29]",210.3562607,7418,7286,13,110,9,1.0
undo,34,24,0,0,0,8,"[0, 16, 8]",3,22,"[1, 2, 3, 4, 6, 9, 10, 11, 13, 14, 15, 17, 20, 21, 22, 23, 24, 25, 26, 27, 28, 29]",181.3562607,8398,980,3,31,9,1.0774669368510212
undo,34,24,0,0,0,22,"[0, 16, 8, 22]",4,18,"[2, 3, 4, 6, 9, 10, 11, 13, 14, 15, 17, 23, 24, 25, 26, 27, 28, 29]",167.9398528,8997,599,3,23,9,1.2531772310046492
undo,34,24,0,0,0,15,"[0, 16, 8, 22, 15]",5,16,"[3, 4, 6, 9, 10, 11, 13, 14, 17, 23, 24, 25, 26, 27, 28, 29]",146.7266494,9948,951,3,16,9,1.2813329946092564
undo,34,24,0,0,0,28,"[0, 16, 8, 22, 15, 28]",6,8,"[3, 4, 9, 11, 13, 23, 26, 27]",101.4497237,10917,969,3,5,9,1.2060847818642253
undo,34,24,0,0,0,23,"[0, 16, 8, 22, 15, 28, 23]",7,3,"[9, 11, 27]",82.42342609,11511,594,3,1,9,1.2349355190066822
undo,34,24,0,0,0,11,"[0, 16, 8, 22, 15, 28, 23, 11]",8,2,"[9, 27]",55.49760206,12477,966,2,0,9,1.2172586817191506
undo,34,24,0,0,1,27,"[0, 16, 8, 22, 15, 28, 23, 11, 27]",9,0,[],27.69472451,14322,1845,1,0,9,1.192247579330137
undo,34,24,0,1,1,27,"[0, 16, 8, 22, 15, 28, 23, 11, 27]",9,0,[],27.69472451,15468,1146,1,0,9,1.192247579330137
undo,35,2,0,0,0,0,[0],1,23,"[1, 2, 4, 5, 6, 7, 8, 9, 12, 13, 15, 16, 17, 18, 19, 20, 22, 23, 25, 26, 27, 28, 29]",300,129,-1,70,620,10,0.0
undo,35,2,0,0,0,19,"[0, 19]",2,22,"[1, 2, 4, 5, 6, 7, 8, 9, 12, 13, 15, 16, 17, 18, 20, 22, 23, 25, 26, 27, 28, 29]",210.306076,3820,3691,67,431,10,1.0
undo,35,2,0,0,0,12,"[0, 19, 12]",3,17,"[1, 4, 5, 6, 7, 13, 15, 16, 17, 18, 20, 22, 25, 26, 27, 28, 29]",174.2921898,4705,885,66,298,10,1.1107635036313153
undo,35,2,0,0,0,5,"[0, 19, 12, 5]",4,11,"[1, 6, 7, 13, 15, 16, 18, 22, 25, 26, 29]",144.7625437,5564,859,38,136,10,1.0968174771581647
undo,35,2,0,0,0,22,"[0, 19, 12, 5, 22]",5,8,"[1, 6, 7, 13, 15, 18, 26, 29]",131.9562952,7263,1699,20,63,10,1.0889910507461968
undo,35,2,0,0,0,13,"[0, 19, 12, 5, 22, 13]",6,7,"[1, 6, 7, 15, 18, 26, 29]",117.0902265,9381,2118,19,20,10,1.236526217328057
undo,35,2,0,0,0,18,"[0, 19, 12, 5, 22, 13, 18]",7,4,"[7, 15, 26, 29]",81.91921567,11005,1624,10,3,10,1.2128708213409936
undo,35,2,0,0,0,7,"[0, 19, 12, 5, 22, 13, 18, 7]",8,3,"[15, 26, 29]",71.62358553,11841,836,5,0,10,1.2019811287894737
undo,35,2,0,0,0,26,"[0, 19, 12, 5, 22, 13, 18, 7, 26]",9,2,"[15, 29]",48.82007703,13043,1202,2,0,10,1.1883593342191134
undo,35,2,0,0,1,15,"[0, 19, 12, 5, 22, 13, 18, 7, 26, 15]",10,0,[],24.61264015,14095,1052,1,0,10,1.4619750353663825
undo,35,2,0,1,1,15,"[0, 19, 12, 5, 22, 13, 18, 7, 26, 15]",10,0,[],24.61264015,16714,2619,1,0,10,1.4619750353663825
undo,36,45,0,0,0,0,[0],1,24,"[1, 2, 3, 4, 5, 6, 7, 9, 10, 11, 12, 14, 15, 16, 17, 19, 20, 21, 22, 23, 24, 25, 27, 29]",300,130,-1,6,248,10,0.0
undo,36,45,0,0,0,17,"[0, 17]",2,22,"[1, 2, 3, 4, 5, 6, 7, 9, 10, 11, 12, 14, 15, 16, 19, 20, 21, 22, 23, 24, 25, 29]",235.867325,2952,2822,1,34,10,1.0
undo,36,45,0,0,0,24,"[0, 17, 24]",3,20,"[1, 2, 3, 4, 5, 6, 7, 9, 10, 11, 12, 14, 15, 16, 19, 20, 21, 22, 23, 29]",193.8078433,3602,650,1,33,10,1.0309432256229287
undo,36,45,0,0,0,7,"[0, 17, 24, 7]",4,18,"[1, 2, 3, 4, 5, 6, 9, 10, 12, 14, 15, 16, 19, 20, 21, 22, 23, 29]",159.3985423,4386,784,1,32,10,1.059763151913087
undo,36,45,0,0,0,2,"[0, 17, 24, 7, 2]",5,12,"[3, 4, 6, 10, 12, 14, 16, 19, 20, 22, 23, 29]",121.3853866,5963,1577,1,23,10,1.0656581932115423
undo,36,45,0,0,0,3,"[0, 17, 24, 7, 2, 3]",6,8,"[6, 10, 12, 14, 16, 20, 22, 29]",96.06740884,6847,884,1,13,10,1.1368250049574795
undo,36,45,0,0,0,29,"[0, 17, 24, 7, 2, 3, 29]",7,5,"[6, 10, 12, 20, 22]",76.06740884,7656,809,1,5,10,1.390376182346372
undo,36,45,0,0,0,10,"[0, 17, 24, 7, 2, 3, 29, 10]",8,2,"[6, 12]",54.52674961,8596,940,1,1,10,1.6682270697663164
undo,36,45,0,0,0,6,"[0, 17, 24, 7, 2, 3, 29, 10, 6]",9,1,[12],28.27794012,9912,1316,1,0,10,1.5776211572942243
undo,36,45,0,0,1,12,"[0, 17, 24, 7, 2, 3, 29, 10, 6, 12]",10,0,[],8.15332832,11053,1141,1,0,10,1.536035114105263
undo,36,45,0,1,1,12,"[0, 17, 24, 7, 2, 3, 29, 10, 6, 12]",10,0,[],8.15332832,12153,1100,1,0,10,1.536035114105263
undo,37,40,0,0,0,0,[0],1,29,"[1, 2, 3, 4, 5, 6, 7, 8, 9, 10, 11, 12, 13, 14, 15, 16, 17, 18, 19, 20, 21, 22, 23, 24, 25, 26, 27, 28, 29]",300,136,-1,8,191,9,0.0
undo,37,40,0,0,0,1,"[0, 1]",2,18,"[2, 5, 6, 7, 8, 9, 10, 11, 13, 15, 17, 18, 19, 21, 22, 23, 27, 29]",247.8463808,9139,9003,4,80,9,1.0
undo,37,40,0,0,0,6,"[0, 1, 6]",3,17,"[2, 5, 7, 8, 9, 10, 11, 13, 15, 17, 18, 19, 21, 22, 23, 27, 29]",227.7466295,10515,1376,4,74,9,1.0459427008232034
undo,37,40,0,0,0,21,"[0, 1, 6, 21]",4,8,"[2, 5, 9, 17, 18, 19, 22, 23]",175.7754837,11478,963,4,25,9,1.0308822257404064
undo,37,40,0,0,0,9,"[0, 1, 6, 21, 9]",5,6,"[2, 5, 18, 19, 22, 23]",130.0699041,12269,791,4,12,9,1.377861912961129
undo,37,40,0,0,0,18,"[0, 1, 6, 21, 9, 18]",6,5,"[2, 5, 19, 22, 23]",113.5169588,12909,640,4,4,9,1.5742712168661408
undo,37,40,0,0,0,5,"[0, 1, 6, 21, 9, 18, 5]",7,3,"[19, 22, 23]",81.94165198,13734,825,2,1,9,1.7730665063055515
undo,37,40,0,0,0,23,"[0, 1, 6, 21, 9, 18, 5, 23]",8,1,[19],53.63970859,14538,804,1,0,9,2.597442759912231
undo,37,40,0,0,1,19,"[0, 1, 6, 21, 9, 18, 5, 23, 19]",9,0,[],21.68661797,15774,1236,1,0,9,2.7128328554069565
undo,37,40,0,1,1,19,"[0, 1, 6, 21, 9, 18, 5, 23, 19]",9,0,[],21.68661797,16933,1159,1,0,9,2.7128328554069565
undo,38,30,0,0,0,0,[0],1,19,"[3, 4, 5, 7, 9, 11, 16, 17, 18, 19, 20, 21, 22, 24, 25, 26, 27, 28, 29]",300,164,-1,5,41,8,0.0
undo,38,30,0,0,0,27,"[0, 27]",2,10,"[3, 5, 7, 9, 18, 19, 20, 24, 25, 29]",90.59608409,7748,7584,7,22,6,1.0
undo,38,30,0,0,0,3,"[0, 27, 3]",3,8,"[5, 7, 18, 19, 20, 24, 25, 29]",71.49111091,8370,622,5,9,6,1.0022223300201003
undo,38,30,0,0,0,18,"[0, 27, 3, 18]",4,4,"[5, 7, 24, 29]",53.24282332,11212,2842,2,2,6,1.010282260954695
undo,38,30,1,0,0,3,"[0, 27, 3]",3,8,"[5, 7, 18, 19, 20, 24, 25, 29]",71.49111091,15468,4256,5,9,6,1.0022223300201003
undo,38,30,0,0,0,29,"[0, 27, 3, 29]",4,5,"[5, 7, 18, 19, 20]",52.89003567,19230,3762,2,3,6,1.0149900937654948
undo,38,30,0,0,1,20,"[0, 27, 3, 29, 20]",5,0,[],0.116936466,20235,1005,1,0,5,1.4987784721202828
undo,38,30,0,1,1,20,"[0, 27, 3, 29, 20]",5,0,[],0.116936466,21512,1277,1,0,5,1.4987784721202828
undo,39,14,0,0,0,0,[0],1,29,"[1, 2, 3, 4, 5, 6, 7, 8, 9, 10, 11, 12, 13, 14, 15, 16, 17, 18, 19, 20, 21, 22, 23, 24, 25, 26, 27, 28, 29]",300,146,-1,8,157,10,0.0
undo,39,14,0,0,0,18,"[0, 18]",2,17,"[1, 2, 3, 4, 7, 8, 9, 13, 15, 17, 19, 20, 22, 23, 25, 26, 28]",179.8958785,3943,3797,18,136,9,1.0
undo,39,14,0,0,0,8,"[0, 18, 8]",3,13,"[1, 2, 4, 7, 13, 15, 17, 19, 20, 23, 25, 26, 28]",166.294408,4816,873,18,99,9,1.0203858410107731
undo,39,14,0,0,0,1,"[0, 18, 8, 1]",4,10,"[2, 4, 7, 15, 17, 19, 23, 25, 26, 28]",142.6935606,6490,1674,11,42,9,1.0173392374431458
undo,39,14,0,0,0,19,"[0, 18, 8, 1, 19]",5,9,"[2, 4, 7, 15, 17, 23, 25, 26, 28]",127.4620143,7361,871,11,22,9,1.1668364376922102
undo,39,14,0,0,0,25,"[0, 18, 8, 1, 19, 25]",6,5,"[2, 4, 7, 23, 26]",91.61511768,9198,1837,5,7,9,1.273103293863789
undo,39,14,0,0,0,23,"[0, 18, 8, 1, 19, 25, 23]",7,3,"[4, 7, 26]",62.20423534,11229,2031,2,2,9,1.2650679654635444
undo,39,14,0,0,0,26,"[0, 18, 8, 1, 19, 25, 23, 26]",8,2,"[4, 7]",51.38758152,12178,949,2,0,9,1.2530957004441798
undo,39,14,0,0,1,7,"[0, 18, 8, 1, 19, 25, 23, 26, 7]",9,0,[],6.287692383,13329,1151,1,0,9,1.6817917810897667
undo,39,14,0,1,1,7,"[0, 18, 8, 1, 19, 25, 23, 26, 7]",9,0,[],6.287692383,14485,1156,1,0,9,1.6817917810897667
undo,40,26,0,0,0,0,[0],1,29,"[1, 2, 3, 4, 5, 6, 7, 8, 9, 10, 11, 12, 13, 14, 15, 16, 17, 18, 19, 20, 21, 22, 23, 24, 25, 26, 27, 28, 29]",300,132,-1,9,226,9,0.0
undo,40,26,0,0,0,16,"[0, 16]",2,17,"[3, 4, 5, 6, 10, 11, 12, 13, 14, 17, 18, 19, 21, 22, 23, 26, 29]",188.0535842,5303,5171,34,176,8,1.0
undo,40,26,0,0,0,29,"[0, 16, 29]",3,12,"[4, 5, 6, 10, 12, 13, 14, 17, 19, 21, 23, 26]",163.8461474,6070,767,32,68,8,1.1142946124989752
undo,40,26,0,0,0,4,"[0, 16, 29, 4]",4,9,"[5, 6, 10, 12, 13, 14, 17, 21, 23]",139.8461474,7005,935,17,7,8,1.3213762371676339
undo,40,26,0,0,0,17,"[0, 16, 29, 4, 17]",5,5,"[6, 10, 14, 21, 23]",118.7511243,7891,886,6,0,8,1.2756100061290643
undo,40,26,0,0,0,14,"[0, 16, 29, 4, 17, 14]",6,2,"[6, 10]",96.27891921,8899,1008,2,0,8,1.264154039440982
undo,40,26,0,0,0,6,"[0, 16, 29, 4, 17, 14, 6]",7,1,[10],75.25512317,9751,852,1,0,8,1.3993089646092733
undo,40,26,0,0,1,10,"[0, 16, 29, 4, 17, 14, 6, 10]",8,0,[],45.98056083,10473,722,1,0,8,1.5697867669370302
undo,40,26,0,1,1,10,"[0, 16, 29, 4, 17, 14, 6, 10]",8,0,[],45.98056083,11572,1099,1,0,8,1.5697867669370302
undo,41,23,0,0,0,0,[0],1,28,"[1, 2, 3, 4, 5, 6, 7, 8, 9, 10, 11, 12, 13, 14, 15, 16, 17, 18, 19, 20, 21, 22, 23, 25, 26, 27, 28, 29]",300,131,-1,76,2626,10,0.0
undo,41,23,0,0,0,13,"[0, 13]",2,19,"[1, 2, 3, 5, 6, 7, 8, 9, 10, 12, 14, 17, 18, 19, 21, 22, 23, 27, 29]",189.3202819,6271,6140,9,168,10,1.0
undo,41,23,0,0,0,12,"[0, 13, 12]",3,16,"[1, 2, 3, 6, 7, 8, 9, 10, 14, 17, 18, 21, 22, 23, 27, 29]",177.2372359,7183,912,9,96,10,1.0014195490503164
undo,41,23,0,0,0,2,"[0, 13, 12, 2]",4,12,"[1, 3, 6, 7, 9, 10, 14, 18, 21, 22, 27, 29]",163.3447919,7675,492,4,30,10,1.0014394317924602
undo,41,23,0,0,0,6,"[0, 13, 12, 2, 6]",5,8,"[7, 9, 10, 14, 18, 22, 27, 29]",144.905703,8335,660,2,11,10,1.0322887343644427
undo,41,23,0,0,0,14,"[0, 13, 12, 2, 6, 14]",6,7,"[7, 9, 10, 18, 22, 27, 29]",116.0439636,9238,903,1,4,10,1.305671089460822
undo,41,23,0,0,0,9,"[0, 13, 12, 2, 6, 14, 9]",7,6,"[7, 10, 18, 22, 27, 29]",105.6036571,9760,522,1,3,10,1.4879353140485658
undo,41,23,0,0,0,29,"[0, 13, 12, 2, 6, 14, 9, 29]",8,2,"[7, 10]",53.98001913,11921,2161,1,1,10,1.5953811457786307
undo,41,23,0,0,0,7,"[0, 13, 12, 2, 6, 14, 9, 29, 7]",9,1,[10],29.89682997,12862,941,1,0,10,1.6059372050079357
undo,41,23,0,0,1,10,"[0, 13, 12, 2, 6, 14, 9, 29, 7, 10]",10,0,[],2.437769539,13969,1107,1,0,10,1.5568722197385467
undo,41,23,0,1,1,10,"[0, 13, 12, 2, 6, 14, 9, 29, 7, 10]",10,0,[],2.437769539,15118,1149,1,0,10,1.5568722197385467
undo,42,15,0,0,0,0,[0],1,25,"[1, 2, 3, 4, 7, 8, 9, 10, 11, 12, 13, 14, 15, 16, 18, 20, 21, 22, 23, 24, 25, 26, 27, 28, 29]",300,164,-1,4,65,9,0.0
undo,42,15,0,0,0,7,"[0, 7]",2,23,"[1, 3, 4, 8, 9, 10, 11, 12, 13, 14, 15, 16, 18, 20, 21, 22, 23, 24, 25, 26, 27, 28, 29]",215.1884442,5459,5295,30,107,8,1.0
undo,42,15,0,0,0,11,"[0, 7, 11]",3,18,"[3, 4, 8, 9, 10, 12, 13, 14, 15, 16, 18, 20, 21, 22, 23, 25, 27, 29]",173.7035072,6318,859,12,34,8,1.0171318876095128
undo,42,15,0,0,0,3,"[0, 7, 11, 3]",4,13,"[4, 10, 12, 13, 14, 15, 16, 18, 20, 21, 22, 25, 27]",162.3017529,7210,892,7,21,8,1.0401878806820521
undo,42,15,0,0,0,16,"[0, 7, 11, 3, 16]",5,9,"[4, 10, 12, 13, 14, 15, 18, 21, 22]",137.2218805,8298,1088,5,6,8,1.4258499651326737
undo,42,15,0,0,0,22,"[0, 7, 11, 3, 16, 22]",6,4,"[4, 13, 14, 15]",78.36612462,9320,1022,2,2,8,1.284645195326425
undo,42,15,0,0,0,13,"[0, 7, 11, 3, 16, 22, 13]",7,1,[15],50.20586894,10081,761,1,0,8,1.2468528041787974
undo,42,15,0,0,1,15,"[0, 7, 11, 3, 16, 22, 13, 15]",8,0,[],34.94153142,10829,748,1,0,8,1.349724143762162
undo,42,15,0,1,1,15,"[0, 7, 11, 3, 16, 22, 13, 15]",8,0,[],34.94153142,12137,1308,1,0,8,1.349724143762162
undo,43,21,0,0,0,0,[0],1,29,"[1, 2, 3, 4, 5, 6, 7, 8, 9, 10, 11, 12, 13, 14, 15, 16, 17, 18, 19, 20, 21, 22, 23, 24, 25, 26, 27, 28, 29]",300,132,-1,84,830,9,0.0
undo,43,21,0,0,0,25,"[0, 25]",2,26,"[1, 2, 3, 4, 5, 6, 7, 8, 9, 10, 11, 12, 13, 14, 15, 16, 17, 18, 20, 21, 22, 23, 24, 26, 27, 29]",240.1836143,2925,2793,30,238,9,1.0
undo,43,21,0,0,0,23,"[0, 25, 23]",3,21,"[1, 2, 4, 6, 7, 8, 9, 10, 11, 12, 14, 15, 16, 17, 18, 20, 21, 22, 24, 27, 29]",196.8592562,4395,1470,14,80,9,1.0416131642057598
undo,43,21,0,0,0,21,"[0, 25, 23, 21]",4,14,"[1, 4, 6, 8, 9, 14, 15, 16, 17, 18, 20, 22, 24, 29]",167.2450705,5268,873,10,25,9,1.4768792067751173
undo,43,21,0,0,0,14,"[0, 25, 23, 21, 14]",5,10,"[4, 8, 9, 15, 16, 17, 18, 22, 24, 29]",141.6325735,6006,738,8,13,9,1.3826076066332742
undo,43,21,0,0,0,4,"[0, 25, 23, 21, 14, 4]",6,7,"[8, 15, 16, 17, 18, 24, 29]",127.4904379,6666,660,8,3,9,1.3487191473328533
undo,43,21,0,0,0,16,"[0, 25, 23, 21, 14, 4, 16]",7,3,"[8, 15, 24]",82.89223163,7699,1033,4,1,9,1.3301484172843694
undo,43,21,0,0,0,8,"[0, 25, 23, 21, 14, 4, 16, 8]",8,2,"[15, 24]",64.2911564,8420,721,2,0,9,1.3009886562393016
undo,43,21,0,0,1,15,"[0, 25, 23, 21, 14, 4, 16, 8, 15]",9,0,[],39.2911564,9380,960,1,0,9,1.5486591410600183
undo,43,21,0,1,1,15,"[0, 25, 23, 21, 14, 4, 16, 8, 15]",9,0,[],39.2911564,13187,3807,1,0,9,1.5486591410600183
undo,44,37,0,0,0,0,[0],1,29,"[1, 2, 3, 4, 5, 6, 7, 8, 9, 10, 11, 12, 13, 14, 15, 16, 17, 18, 19, 20, 21, 22, 23, 24, 25, 26, 27, 28, 29]",300,148,-1,6,168,10,0.0
undo,44,37,0,0,0,18,"[0, 18]",2,19,"[1, 2, 4, 6, 7, 9, 10, 12, 14, 15, 17, 19, 20, 21, 22, 23, 26, 28, 29]",202.4090168,2527,2379,6,89,10,1.0
undo,44,37,0,0,0,22,"[0, 18, 22]",3,9,"[1, 2, 4, 7, 15, 19, 20, 21, 26]",136.9720242,5669,3142,15,58,9,1.001057447339584
undo,44,37,0,0,0,4,"[0, 18, 22, 4]",4,8,"[1, 2, 7, 15, 19, 20, 21, 26]",111.9720242,7669,2000,8,28,9,1.1568597805027683
undo,44,37,0,0,0,2,"[0, 18, 22, 4, 2]",5,7,"[1, 7, 15, 19, 20, 21, 26]",100.57027,8203,534,7,12,9,1.3192232340552885
undo,44,37,0,0,0,1,"[0, 18, 22, 4, 2, 1]",6,6,"[7, 15, 19, 20, 21, 26]",83.36561943,8738,535,7,4,9,1.3683384389764814
undo,44,37,0,0,0,20,"[0, 18, 22, 4, 2, 1, 20]",7,4,"[15, 19, 21, 26]",49.13113389,9597,859,3,2,9,1.6736124378078914
undo,44,37,0,0,0,15,"[0, 18, 22, 4, 2, 1, 20, 15]",8,1,[21],32.13113389,11127,1530,1,0,9,1.6098167659402671
undo,44,37,0,0,1,21,"[0, 18, 22, 4, 2, 1, 20, 15, 21]",9,0,[],17.13113389,11699,572,1,0,9,1.8226858592510353
undo,44,37,0,1,1,21,"[0, 18, 22, 4, 2, 1, 20, 15, 21]",9,0,[],17.13113389,13503,1804,1,0,9,1.8226858592510353
undo,45,28,0,0,0,0,[0],1,27,"[1, 2, 3, 4, 5, 6, 7, 8, 9, 10, 11, 12, 13, 14, 15, 16, 17, 18, 19, 20, 22, 23, 25, 26, 27, 28, 29]",300,131,-1,2,96,9,0.0
undo,45,28,0,0,0,3,"[0, 3]",2,26,"[1, 2, 4, 5, 6, 7, 8, 9, 10, 11, 12, 13, 14, 15, 16, 17, 18, 19, 20, 22, 23, 25, 26, 27, 28, 29]",251.0817008,7201,7070,1,64,9,1.0
undo,45,28,0,0,0,5,"[0, 3, 5]",3,20,"[2, 4, 6, 7, 8, 9, 10, 11, 12, 13, 14, 15, 18, 19, 20, 23, 25, 26, 28, 29]",166.9865166,8384,1183,1,34,9,1.0203769473612083
undo,45,28,0,0,0,26,"[0, 3, 5, 26]",4,13,"[2, 4, 7, 8, 9, 12, 13, 14, 18, 19, 20, 25, 28]",134.2298379,9405,1021,1,28,9,1.0315203228799597
undo,45,28,0,0,0,19,"[0, 3, 5, 26, 19]",5,7,"[2, 7, 9, 12, 13, 14, 18]",93.22983789,11179,1774,1,17,9,1.1324645362297356
undo,45,28,0,0,0,7,"[0, 3, 5, 26, 19, 7]",6,5,"[2, 12, 13, 14, 18]",65.49898864,13214,2035,1,6,9,1.1971194919020265
undo,45,28,0,0,0,12,"[0, 3, 5, 26, 19, 7, 12]",7,2,"[13, 18]",52.3460422,13815,601,1,1,9,1.2020762147848982
undo,45,28,0,0,0,13,"[0, 3, 5, 26, 19, 7, 12, 13]",8,1,[18],35.14139167,14489,674,1,0,9,1.39005144078531
undo,45,28,0,0,1,18,"[0, 3, 5, 26, 19, 7, 12, 13, 18]",9,0,[],10.72828044,15175,686,1,0,9,1.738787343626007
undo,45,28,0,1,1,18,"[0, 3, 5, 26, 19, 7, 12, 13, 18]",9,0,[],10.72828044,16250,1075,1,0,9,1.738787343626007
undo,46,18,0,0,0,0,[0],1,28,"[1, 2, 3, 4, 5, 6, 7, 8, 9, 10, 11, 12, 13, 14, 16, 17, 18, 19, 20, 21, 22, 23, 24, 25, 26, 27, 28, 29]",300,150,-1,3,136,10,0.0
undo,46,18,0,0,0,25,"[0, 25]",2,22,"[1, 2, 3, 4, 5, 7, 8, 9, 10, 12, 13, 14, 16, 18, 19, 20, 21, 23, 24, 26, 27, 28]",239.9916672,5402,5252,7,151,9,1.0
undo,46,18,0,0,0,8,"[0, 25, 8]",3,18,"[1, 2, 3, 5, 7, 9, 10, 12, 13, 14, 16, 18, 20, 21, 23, 26, 27, 28]",202.9376526,7190,1788,4,45,9,1.0260955462572583
undo,46,18,0,0,0,13,"[0, 25, 8, 13]",4,16,"[1, 3, 5, 7, 9, 10, 12, 14, 16, 18, 20, 21, 23, 26, 27, 28]",181.8426295,8040,850,3,20,9,1.2569221801369617
undo,46,18,0,0,0,14,"[0, 25, 8, 13, 14]",5,13,"[3, 5, 7, 9, 10, 12, 16, 18, 21, 23, 26, 27, 28]",162.8689635,8717,677,3,12,9,1.2231659856162418
undo,46,18,0,0,0,3,"[0, 25, 8, 13, 14, 3]",6,8,"[5, 7, 9, 12, 23, 26, 27, 28]",132.7857456,9482,765,3,6,9,1.366392221372545
undo,46,18,0,0,0,5,"[0, 25, 8, 13, 14, 3, 5]",7,2,"[12, 27]",74.6049928,10365,883,1,1,9,1.2610806019335608
undo,46,18,0,0,0,12,"[0, 25, 8, 13, 14, 3, 5, 12]",8,1,[27],63.20323855,10861,496,1,0,9,1.2762589009967817
undo,46,18,0,0,1,27,"[0, 25, 8, 13, 14, 3, 5, 12, 27]",9,0,[],22.48469241,11607,746,1,0,9,1.4075470288984155
undo,46,18,0,1,1,27,"[0, 25, 8, 13, 14, 3, 5, 12, 27]",9,0,[],22.48469241,12672,1065,1,0,9,1.4075470288984155
undo,47,6,0,0,0,0,[0],1,29,"[1, 2, 3, 4, 5, 6, 7, 8, 9, 10, 11, 12, 13, 14, 15, 16, 17, 18, 19, 20, 21, 22, 23, 24, 25, 26, 27, 28, 29]",300,130,-1,180,4304,10,0.0
undo,47,6,0,0,0,3,"[0, 3]",2,28,"[1, 2, 4, 5, 6, 7, 8, 9, 10, 11, 12, 13, 14, 15, 16, 17, 18, 19, 20, 21, 22, 23, 24, 25, 26, 27, 28, 29]",266.4738908,1622,1492,90,1607,10,1.0
undo,47,6,0,0,0,18,"[0, 3, 18]",3,27,"[1, 2, 4, 5, 6, 7, 8, 9, 10, 11, 12, 13, 14, 15, 16, 17, 19, 20, 21, 22, 23, 24, 25, 26, 27, 28, 29]",237.4738908,8046,6424,34,516,10,1.0266750028725786
undo,47,6,0,0,0,17,"[0, 3, 18, 17]",4,26,"[1, 2, 4, 5, 6, 7, 8, 9, 10, 11, 12, 13, 14, 15, 16, 19, 20, 21, 22, 23, 24, 25, 26, 27, 28, 29]",223.5455025,8895,849,17,243,10,1.0832900829093166
undo,47,6,0,0,0,10,"[0, 3, 18, 17, 10]",5,22,"[1, 2, 4, 5, 6, 7, 8, 9, 11, 13, 14, 16, 19, 20, 21, 22, 23, 24, 26, 27, 28, 29]",203.8224196,9551,656,10,111,10,1.140294203414171
undo,47,6,0,0,0,24,"[0, 3, 18, 17, 10, 24]",6,19,"[1, 2, 4, 5, 6, 7, 8, 11, 13, 14, 16, 20, 21, 22, 23, 26, 27, 28, 29]",190.4060117,10262,711,10,80,10,1.1264281153820843
undo,47,6,0,0,0,23,"[0, 3, 18, 17, 10, 24, 23]",7,9,"[5, 6, 7, 11, 14, 16, 22, 27, 29]",129.2177775,11867,1605,3,18,10,1.2725820835879924
undo,47,6,0,0,0,22,"[0, 3, 18, 17, 10, 24, 23, 22]",8,6,"[6, 11, 14, 16, 27, 29]",88.21777754,12775,908,1,5,10,1.3601236971104531
undo,47,6,0,0,0,29,"[0, 3, 18, 17, 10, 24, 23, 22, 29]",9,1,[16],37.88885941,13675,900,1,0,10,2.460947627385582
undo,47,6,0,0,1,16,"[0, 3, 18, 17, 10, 24, 23, 22, 29, 16]",10,0,[],1.200986759,14482,807,1,0,10,4.139618291530855
undo,47,6,0,1,1,16,"[0, 3, 18, 17, 10, 24, 23, 22, 29, 16]",10,0,[],1.200986759,16049,1567,1,0,10,4.139618291530855
undo,48,44,0,0,0,0,[0],1,29,"[1, 2, 3, 4, 5, 6, 7, 8, 9, 10, 11, 12, 13, 14, 15, 16, 17, 18, 19, 20, 21, 22, 23, 24, 25, 26, 27, 28, 29]",300,130,-1,13,126,7,0.0
undo,48,44,0,0,0,11,"[0, 11]",2,18,"[4, 5, 6, 7, 8, 9, 12, 14, 16, 17, 19, 20, 22, 23, 24, 25, 26, 28]",152.7790776,3835,3705,5,34,7,1.0
undo,48,44,0,0,0,24,"[0, 11, 24]",3,13,"[4, 5, 7, 8, 9, 12, 14, 17, 20, 22, 23, 25, 28]",125.8532535,4770,935,5,23,7,1.1588941745226709
undo,48,44,0,0,0,9,"[0, 11, 24, 9]",4,7,"[4, 7, 8, 12, 14, 20, 23]",93.09657483,5625,855,2,8,7,1.3039383713641313
undo,48,44,0,0,0,4,"[0, 11, 24, 9, 4]",5,5,"[7, 12, 14, 20, 23]",73.39885923,6199,574,2,3,7,1.2901330701441578
undo,48,44,0,0,0,7,"[0, 11, 24, 9, 4, 7]",6,1,[23],42.38273439,7420,1221,1,0,7,1.2468141312360979
undo,48,44,0,0,1,23,"[0, 11, 24, 9, 4, 7, 23]",7,0,[],23.27776121,8428,1008,1,0,7,1.2635191782769477
undo,48,44,0,1,1,23,"[0, 11, 24, 9, 4, 7, 23]",7,0,[],23.27776121,9639,1211,1,0,7,1.2635191782769477
undo,49,0,0,0,0,0,[0],1,27,"[2, 3, 4, 5, 6, 7, 8, 9, 10, 11, 12, 13, 14, 15, 16, 17, 19, 20, 21, 22, 23, 24, 25, 26, 27, 28, 29]",300,130,-1,104,1136,9,0.0
undo,49,0,0,0,0,28,"[0, 28]",2,26,"[2, 3, 4, 5, 6, 7, 8, 9, 10, 11, 12, 13, 14, 15, 16, 17, 19, 20, 21, 22, 23, 24, 25, 26, 27, 29]",194.9190788,6703,6573,39,388,9,1.0
undo,49,0,0,0,0,26,"[0, 28, 26]",3,21,"[2, 3, 4, 5, 7, 8, 9, 10, 11, 12, 13, 14, 15, 17, 19, 20, 21, 22, 23, 24, 25]",136.9363227,7763,1060,5,55,9,1.0093388233539051
undo,49,0,0,0,0,4,"[0, 28, 26, 4]",4,16,"[3, 5, 7, 8, 9, 11, 12, 13, 14, 15, 17, 19, 20, 21, 23, 24]",124.8947282,8261,498,5,33,9,1.1185924093500432
undo,49,0,0,0,0,15,"[0, 28, 26, 4, 15]",5,10,"[3, 5, 7, 8, 9, 11, 12, 17, 19, 24]",90.18161825,9494,1233,7,17,8,1.1099792764660832
undo,49,0,0,0,0,8,"[0, 28, 26, 4, 15, 8]",6,3,"[3, 7, 19]",51.06640382,11313,1819,1,2,8,1.1189863433462535
undo,49,0,0,0,0,7,"[0, 28, 26, 4, 15, 8, 7]",7,1,[3],31.96143064,12126,813,1,0,8,1.3074429957174958
undo,49,0,0,0,1,3,"[0, 28, 26, 4, 15, 8, 7, 3]",8,0,[],7.878241486,13275,1149,1,0,8,1.3476722651133812
undo,49,0,0,1,1,3,"[0, 28, 26, 4, 15, 8, 7, 3]",8,0,[],7.878241486,14334,1059,1,0,8,1.3476722651133812
undo,50,5,0,0,0,0,[0],1,29,"[1, 2, 3, 4, 5, 6, 7, 8, 9, 10, 11, 12, 13, 14, 15, 16, 17, 18, 19, 20, 21, 22, 23, 24, 25, 26, 27, 28, 29]",300,131,-1,5,139,9,0.0
undo,50,5,0,0,0,23,"[0, 23]",2,27,"[1, 2, 3, 4, 5, 6, 7, 8, 9, 10, 11, 12, 13, 14, 15, 16, 17, 18, 19, 20, 21, 22, 24, 25, 26, 27, 28]",249.8402552,4366,4235,3,75,9,1.0
undo,50,5,0,0,0,25,"[0, 23, 25]",3,23,"[1, 2, 3, 4, 5, 6, 8, 9, 10, 12, 13, 14, 15, 16, 17, 18, 19, 21, 22, 24, 26, 27, 28]",231.4011663,6020,1654,3,43,9,1.0923159590575564
undo,50,5,0,0,0,24,"[0, 23, 25, 24]",4,21,"[2, 3, 4, 5, 6, 8, 9, 10, 12, 13, 14, 15, 16, 17, 18, 19, 21, 22, 26, 27, 28]",206.5616816,7663,1643,3,25,9,1.2901858295679272
undo,50,5,0,0,0,17,"[0, 23, 25, 24, 17]",5,13,"[4, 5, 6, 8, 12, 13, 14, 15, 18, 19, 22, 26, 27]",171.5759702,8421,758,3,14,9,1.2027484907982513
undo,50,5,0,0,0,5,"[0, 23, 25, 24, 17, 5]",6,7,"[4, 6, 8, 12, 15, 18, 19]",128.5294837,9195,774,3,4,9,1.1472230681682432
undo,50,5,0,0,0,18,"[0, 23, 25, 24, 17, 5, 18]",7,2,"[4, 6]",61.46235316,10635,1440,1,1,9,1.1763046566678599
undo,50,5,0,0,0,4,"[0, 23, 25, 24, 17, 5, 18, 4]",8,1,[6],23.04360773,11693,1058,1,0,9,1.580519180089265
undo,50,5,0,0,1,6,"[0, 23, 25, 24, 17, 5, 18, 4, 6]",9,0,[],11.00201315,12465,772,1,0,9,1.7305268673652696
undo,50,5,0,1,1,6,"[0, 23, 25, 24, 17, 5, 18, 4, 6]",9,0,[],11.00201315,13768,1303,1,0,9,1.7305268673652696
undo,51,35,0,0,0,0,[0],1,29,"[1, 2, 3, 4, 5, 6, 7, 8, 9, 10, 11, 12, 13, 14, 15, 16, 17, 18, 19, 20, 21, 22, 23, 24, 25, 26, 27, 28, 29]",300,131,-1,5,236,11,0.0
undo,51,35,0,0,0,24,"[0, 24]",2,27,"[1, 2, 4, 5, 6, 7, 8, 9, 10, 11, 12, 13, 14, 15, 16, 17, 18, 19, 20, 21, 22, 23, 25, 26, 27, 28, 29]",268.9838752,3705,3574,49,512,10,1.0
undo,51,35,0,0,0,17,"[0, 24, 17]",3,26,"[1, 2, 4, 5, 6, 7, 8, 9, 10, 11, 12, 13, 14, 15, 16, 18, 19, 20, 21, 22, 23, 25, 26, 27, 28, 29]",257.2791753,4301,596,33,238,10,1.0771477201815276
undo,51,35,0,0,0,1,"[0, 24, 17, 1]",4,25,"[2, 4, 5, 6, 7, 8, 9, 10, 11, 12, 13, 14, 15, 16, 18, 19, 20, 21, 22, 23, 25, 26, 27, 28, 29]",241.4677869,5687,1386,26,151,10,1.2244804141479215
undo,51,35,0,0,0,23,"[0, 24, 17, 1, 23]",5,14,"[2, 4, 5, 6, 9, 15, 18, 19, 20, 25, 26, 27, 28, 29]",182.9442874,6716,1029,25,33,9,1.1009726708851126
undo,51,35,0,0,0,6,"[0, 24, 17, 1, 23, 6]",6,7,"[4, 5, 9, 15, 18, 25, 29]",137.2934386,7771,1055,6,5,9,1.0759472382259443
undo,51,35,0,0,0,25,"[0, 24, 17, 1, 23, 6, 25]",7,3,"[5, 9, 18]",113.2726143,10130,2359,2,1,9,1.153055650640521
undo,51,35,0,0,0,18,"[0, 24, 17, 1, 23, 6, 25, 18]",8,1,[9],79.43476562,11012,882,1,0,9,1.7147094833173437
undo,51,35,0,0,1,9,"[0, 24, 17, 1, 23, 6, 25, 18, 9]",9,0,[],59.40978123,11609,597,1,0,9,2.1402079567065866
undo,51,35,0,1,1,9,"[0, 24, 17, 1, 23, 6, 25, 18, 9]",9,0,[],59.40978123,13336,1727,1,0,9,2.1402079567065866
undo,52,29,0,0,0,0,[0],1,29,"[1, 2, 3, 4, 5, 6, 7, 8, 9, 10, 11, 12, 13, 14, 15, 16, 17, 18, 19, 20, 21, 22, 23, 24, 25, 26, 27, 28, 29]",300,182,-1,1,78,9,0.0
undo,52,29,0,0,0,6,"[0, 6]",2,28,"[1, 2, 3, 4, 5, 7, 8, 9, 10, 11, 12, 13, 14, 15, 16, 17, 18, 19, 20, 21, 22, 23, 24, 25, 26, 27, 28, 29]",228.4108947,3504,3322,1,25,9,1.0
undo,52,29,0,0,0,28,"[0, 6, 28]",3,24,"[1, 3, 4, 5, 7, 9, 10, 11, 12, 13, 14, 15, 16, 17, 18, 20, 21, 22, 23, 24, 25, 26, 27, 29]",187.1798384,4240,736,1,22,9,1.162106788166845
undo,52,29,0,0,0,27,"[0, 6, 28, 27]",4,19,"[1, 3, 4, 5, 7, 9, 10, 11, 12, 13, 14, 15, 16, 21, 22, 23, 25, 26, 29]",166.6615539,4724,484,1,21,9,1.2307173895439045
undo,52,29,0,0,0,22,"[0, 6, 28, 27, 22]",5,13,"[1, 3, 4, 5, 7, 9, 12, 13, 14, 15, 21, 26, 29]",133.4200136,5373,649,1,19,9,1.4241767805149903
undo,52,29,0,0,0,12,"[0, 6, 28, 27, 22, 12]",6,8,"[4, 5, 7, 9, 13, 14, 21, 26]",95.4726817,6353,980,1,6,9,1.3248355326460857
undo,52,29,0,0,0,7,"[0, 6, 28, 27, 22, 12, 7]",7,4,"[4, 5, 9, 21]",81.87121119,7464,1111,1,3,9,1.3264091962339806
undo,52,29,0,0,0,9,"[0, 6, 28, 27, 22, 12, 7, 9]",8,1,[4],52.80232748,8237,773,1,0,9,1.309391257644539
undo,52,29,0,0,1,4,"[0, 6, 28, 27, 22, 12, 7, 9, 4]",9,0,[],11.76575843,9681,1444,1,0,9,1.6396807789841599
undo,52,29,0,1,1,4,"[0, 6, 28, 27, 22, 12, 7, 9, 4]",9,0,[],11.76575843,10805,1124,1,0,9,1.6396807789841599
undo,53,11,0,0,0,0,[0],1,25,"[1, 2, 3, 4, 5, 6, 8, 9, 10, 11, 12, 13, 14, 15, 16, 17, 18, 19, 20, 22, 23, 25, 26, 27, 28]",300,131,-1,6,374,12,0.0
undo,53,11,0,0,0,18,"[0, 18]",2,21,"[1, 2, 4, 5, 6, 8, 9, 11, 12, 13, 14, 15, 16, 17, 19, 20, 22, 23, 25, 27, 28]",236.8493864,4435,4304,157,1477,11,1.0
undo,53,11,0,0,0,27,"[0, 18, 27]",3,19,"[1, 2, 4, 5, 6, 8, 9, 11, 12, 14, 15, 16, 17, 19, 20, 22, 23, 25, 28]",212.9956655,5087,652,157,1315,11,1.060949579704323
undo,53,11,0,0,0,17,"[0, 18, 27, 17]",4,14,"[1, 2, 4, 5, 6, 8, 11, 12, 15, 19, 22, 23, 25, 28]",135.9177828,6128,1041,46,349,11,1.1156120043677304
undo,53,11,0,0,0,8,"[0, 18, 27, 17, 8]",5,11,"[1, 2, 5, 6, 11, 12, 15, 19, 22, 25, 28]",121.5999617,7313,1185,26,143,11,1.2285932943120847
undo,53,11,0,0,0,15,"[0, 18, 27, 17, 8, 15]",6,9,"[2, 5, 6, 11, 12, 19, 22, 25, 28]",108.1463377,7920,607,24,54,11,1.223015425852291
undo,53,11,0,0,0,11,"[0, 18, 27, 17, 8, 15, 11]",7,6,"[2, 5, 12, 19, 22, 28]",90.03556742,9201,1281,22,2,11,1.2111003833550413
undo,53,11,0,0,0,28,"[0, 18, 27, 17, 8, 15, 11, 28]",8,3,"[2, 5, 22]",70.61907959,10297,1096,6,0,11,1.3274100985292616
undo,53,11,0,0,0,5,"[0, 18, 27, 17, 8, 15, 11, 28, 5]",9,2,"[2, 22]",52.73053577,11186,889,2,0,11,1.5198534752211967
undo,53,11,0,0,0,2,"[0, 18, 27, 17, 8, 15, 11, 28, 5, 2]",10,1,[22],35.73053577,12431,1245,1,0,11,1.4805999496229154
undo,53,11,0,0,1,22,"[0, 18, 27, 17, 8, 15, 11, 28, 5, 2, 22]",11,0,[],25.68066014,13146,715,1,0,11,1.4550139853626707
undo,53,11,0,1,1,22,"[0, 18, 27, 17, 8, 15, 11, 28, 5, 2, 22]",11,0,[],25.68066014,14901,1755,1,0,11,1.4550139853626707
undo,54,8,0,0,0,0,[0],1,29,"[1, 2, 3, 4, 5, 6, 7, 8, 9, 10, 11, 12, 13, 14, 15, 16, 17, 18, 19, 20, 21, 22, 23, 24, 25, 26, 27, 28, 29]",300,130,-1,10,149,9,0.0
undo,54,8,0,0,0,5,"[0, 5]",2,28,"[1, 2, 3, 4, 6, 7, 8, 9, 10, 11, 12, 13, 14, 15, 16, 17, 18, 19, 20, 21, 22, 23, 24, 25, 26, 27, 28, 29]",254.5137383,3955,3825,10,100,9,1.0
undo,54,8,0,0,0,14,"[0, 5, 14]",3,20,"[1, 2, 3, 4, 6, 7, 11, 15, 16, 17, 18, 19, 20, 21, 22, 23, 24, 25, 28, 29]",214.5512559,4982,1027,4,36,9,1.0001019035932595
undo,54,8,0,0,0,17,"[0, 5, 14, 17]",4,15,"[1, 4, 6, 7, 11, 15, 16, 18, 19, 20, 22, 23, 24, 25, 28]",177.5377449,6032,1050,4,16,9,1.121197267659591
undo,54,8,0,0,0,11,"[0, 5, 14, 17, 11]",5,11,"[1, 4, 15, 16, 18, 19, 22, 23, 24, 25, 28]",152.3583883,6666,634,4,8,9,1.1277254166016362
undo,54,8,0,0,0,24,"[0, 5, 14, 17, 11, 24]",6,3,"[15, 16, 28]",115.1428001,7611,945,2,2,9,1.1227411011978805
undo,54,8,0,0,0,15,"[0, 5, 14, 17, 11, 24, 15]",7,2,"[16, 28]",98.37974552,10246,2635,2,0,9,1.1956385406066814
undo,54,8,0,0,0,16,"[0, 5, 14, 17, 11, 24, 15, 16]",8,1,[28],47.30137436,11436,1190,1,0,9,1.36482239111247
undo,54,8,0,0,1,28,"[0, 5, 14, 17, 11, 24, 15, 16, 28]",9,0,[],24.94069458,12210,774,1,0,9,1.632953105226947
undo,54,8,0,1,1,28,"[0, 5, 14, 17, 11, 24, 15, 16, 28]",9,0,[],24.94069458,13519,1309,1,0,9,1.632953105226947
undo,55,25,0,0,0,0,[0],1,28,"[1, 2, 3, 4, 5, 7, 8, 9, 10, 11, 12, 13, 14, 15, 16, 17, 18, 19, 20, 21, 22, 23, 24, 25, 26, 27, 28, 29]",300,131,-1,5,94,10,0.0
undo,55,25,0,0,0,23,"[0, 23]",2,23,"[1, 2, 3, 5, 7, 8, 9, 11, 12, 13, 14, 16, 17, 19, 20, 21, 22, 24, 25, 26, 27, 28, 29]",259.7756293,7479,7348,3,33,10,1.0
undo,55,25,0,0,0,7,"[0, 23, 7]",3,16,"[1, 3, 5, 8, 9, 11, 13, 17, 19, 21, 22, 24, 26, 27, 28, 29]",181.9424744,8372,893,1,21,9,1.0073109045884563
undo,55,25,0,0,0,24,"[0, 23, 7, 24]",4,10,"[3, 5, 8, 9, 11, 13, 19, 22, 28, 29]",157.1836376,9863,1491,1,17,9,1.0161584555781231
undo,55,25,0,0,0,9,"[0, 23, 7, 24, 9]",5,8,"[3, 8, 11, 13, 19, 22, 28, 29]",139.1558812,10370,507,1,16,9,1.0303325523073676
undo,55,25,0,0,0,3,"[0, 23, 7, 24, 9, 3]",6,4,"[8, 11, 13, 28]",108.8903893,11227,857,1,5,9,1.0321657704271587
undo,55,25,0,0,0,13,"[0, 23, 7, 24, 9, 3, 13]",7,2,"[8, 28]",77.6493906,12194,967,1,1,9,1.1031543757060376
undo,55,25,0,0,0,28,"[0, 23, 7, 24, 9, 3, 13, 28]",8,1,[8],43.41490506,13101,907,1,0,9,1.1857356956374323
undo,55,25,0,0,1,8,"[0, 23, 7, 24, 9, 3, 13, 28, 8]",9,0,[],2.807024055,13944,843,1,0,9,1.486169242046657
undo,55,25,0,1,1,8,"[0, 23, 7, 24, 9, 3, 13, 28, 8]",9,0,[],2.807024055,15317,1373,1,0,9,1.486169242046657
undo,56,36,0,0,0,0,[0],1,24,"[2, 4, 5, 6, 7, 8, 9, 10, 12, 13, 14, 15, 16, 17, 18, 19, 20, 22, 23, 25, 26, 27, 28, 29]",300,131,-1,2,200,10,0.0
undo,56,36,0,0,0,12,"[0, 12]",2,23,"[2, 4, 5, 6, 7, 8, 9, 10, 13, 14, 15, 16, 17, 18, 19, 20, 22, 23, 25, 26, 27, 28, 29]",277.7963967,4028,3897,90,804,9,1.0
undo,56,36,0,0,0,9,"[0, 12, 9]",3,14,"[2, 4, 8, 10, 13, 16, 17, 18, 19, 23, 25, 27, 28, 29]",215.4345494,4966,938,32,191,9,1.224429481246385
undo,56,36,0,0,0,19,"[0, 12, 9, 19]",4,13,"[2, 4, 8, 10, 13, 16, 17, 18, 23, 25, 27, 28, 29]",200.3018034,6153,1187,14,61,9,1.293473472808712
undo,56,36,0,0,0,13,"[0, 12, 9, 19, 13]",5,11,"[2, 4, 8, 10, 16, 17, 18, 23, 25, 27, 29]",156.8852167,6899,746,3,11,9,1.4591399938752248
undo,56,36,0,0,0,25,"[0, 12, 9, 19, 13, 25]",6,9,"[2, 4, 8, 10, 16, 17, 18, 27, 29]",136.2939565,7700,801,2,4,9,1.4298698082269896
undo,56,36,0,0,0,2,"[0, 12, 9, 19, 13, 25, 2]",7,3,"[10, 16, 17]",111.2939565,8703,1003,2,1,9,1.6710122330380308
undo,56,36,0,0,0,17,"[0, 12, 9, 19, 13, 25, 2, 17]",8,1,[16],70.0629002,9382,679,1,0,9,2.43282226790612
undo,56,36,0,0,1,16,"[0, 12, 9, 19, 13, 25, 2, 17, 16]",9,0,[],41.74329568,10786,1404,1,0,9,2.4195386049869865
undo,56,36,0,1,1,16,"[0, 12, 9, 19, 13, 25, 2, 17, 16]",9,0,[],41.74329568,13103,2317,1,0,9,2.4195386049869865
undo,57,22,0,0,0,0,[0],1,29,"[1, 2, 3, 4, 5, 6, 7, 8, 9, 10, 11, 12, 13, 14, 15, 16, 17, 18, 19, 20, 21, 22, 23, 24, 25, 26, 27, 28, 29]",300,148,-1,31,704,9,0.0
undo,57,22,0,0,0,16,"[0, 16]",2,21,"[1, 3, 6, 7, 8, 9, 11, 13, 14, 15, 17, 18, 19, 20, 21, 22, 24, 25, 27, 28, 29]",218.605897,2587,2439,17,147,9,1.0
undo,57,22,0,0,0,6,"[0, 16, 6]",3,16,"[1, 3, 7, 9, 13, 14, 15, 17, 19, 20, 21, 22, 24, 25, 28, 29]",184.1675463,4485,1898,5,77,9,1.3071109638102874
undo,57,22,0,0,0,9,"[0, 16, 6, 9]",4,15,"[1, 3, 7, 13, 14, 15, 17, 19, 20, 21, 22, 24, 25, 28, 29]",157.5404924,5188,703,4,33,9,1.5907585082674378
undo,57,22,0,0,0,19,"[0, 16, 6, 9, 19]",5,12,"[3, 7, 13, 14, 15, 17, 20, 21, 24, 25, 28, 29]",137.1444143,5870,682,3,17,9,2.0453047636701496
undo,57,22,0,0,0,29,"[0, 16, 6, 9, 19, 29]",6,10,"[3, 7, 13, 14, 15, 17, 20, 21, 24, 28]",122.111118,6565,695,3,10,9,2.310050419546042
undo,57,22,0,0,0,24,"[0, 16, 6, 9, 19, 29, 24]",7,4,"[3, 17, 20, 21]",54.21413717,13689,7124,1,3,9,1.8323868996640549
undo,57,22,1,0,0,29,"[0, 16, 6, 9, 19, 29]",6,10,"[3, 7, 13, 14, 15, 17, 20, 21, 24, 28]",122.111118,18132,4443,3,10,9,2.310050419546042
undo,57,22,0,0,0,14,"[0, 16, 6, 9, 19, 29, 14]",7,2,"[7, 17]",63.86165444,20705,2573,1,1,9,1.8228779744230632
undo,57,22,0,0,0,7,"[0, 16, 6, 9, 19, 29, 14, 7]",8,1,[17],50.82324963,21541,836,1,0,9,1.981278197083242
undo,57,22,0,0,1,17,"[0, 16, 6, 9, 19, 29, 14, 7, 17]",9,0,[],9.205945539,23145,1604,1,0,9,1.840137026694984
undo,57,22,0,1,1,17,"[0, 16, 6, 9, 19, 29, 14, 7, 17]",9,0,[],9.205945539,24160,1015,1,0,9,1.840137026694984
undo,58,4,0,0,0,0,[0],1,26,"[3, 4, 5, 6, 7, 8, 10, 11, 12, 13, 14, 15, 16, 17, 18, 19, 20, 21, 22, 23, 24, 25, 26, 27, 28, 29]",300,131,-1,4,489,10,0.0
undo,58,4,0,0,0,28,"[0, 28]",2,21,"[3, 4, 5, 6, 10, 11, 12, 13, 14, 15, 16, 17, 19, 20, 21, 22, 23, 24, 25, 26, 27]",225.9392142,8662,8531,2,216,10,1.0
undo,58,4,0,0,0,11,"[0, 28, 11]",3,16,"[3, 4, 5, 6, 12, 13, 14, 16, 17, 20, 21, 22, 23, 24, 25, 26]",177.0618165,9818,1156,1,99,10,1.0005230107421244
undo,58,4,0,0,0,16,"[0, 28, 11, 16]",4,13,"[3, 4, 5, 6, 12, 13, 14, 17, 20, 21, 22, 24, 25]",162.0618165,12147,2329,38,165,9,1.0006824277240565
undo,58,4,0,0,0,25,"[0, 28, 11, 16, 25]",5,10,"[3, 4, 5, 6, 13, 14, 17, 20, 21, 22]",140.5211573,12962,815,15,40,9,1.2576116431130224
undo,58,4,0,0,0,14,"[0, 28, 11, 16, 25, 14]",6,9,"[3, 4, 5, 6, 13, 17, 20, 21, 22]",124.3966418,13530,568,9,13,9,1.2858936228570335
undo,58,4,0,0,0,3,"[0, 28, 11, 16, 25, 14, 3]",7,4,"[17, 20, 21, 22]",82.95994308,14875,1345,3,3,9,1.2444008233680606
undo,58,4,0,0,0,17,"[0, 28, 11, 16, 25, 14, 3, 17]",8,3,"[20, 21, 22]",58.44464174,15907,1032,3,0,9,1.4736383799835773
undo,58,4,0,0,1,21,"[0, 28, 11, 16, 25, 14, 3, 17, 21]",9,0,[],9.190200312,17395,1488,1,0,9,1.9675827787043683
undo,58,4,0,1,1,21,"[0, 28, 11, 16, 25, 14, 3, 17, 21]",9,0,[],9.190200312,23761,6366,1,0,9,1.9675827787043683
undo,59,1,0,0,0,0,[0],1,26,"[1, 2, 4, 5, 7, 8, 9, 10, 11, 12, 13, 14, 15, 16, 17, 18, 19, 20, 21, 22, 23, 24, 25, 26, 28, 29]",300,131,-1,6,74,7,0.0
undo,59,1,0,0,0,8,"[0, 8]",2,23,"[1, 4, 5, 7, 9, 10, 11, 12, 13, 14, 15, 16, 17, 18, 19, 20, 21, 23, 24, 25, 26, 28, 29]",202,4217,4086,1,16,7,1.0
undo,59,1,0,0,0,20,"[0, 8, 20]",3,12,"[1, 4, 5, 11, 13, 14, 15, 17, 18, 19, 28, 29]",125.9408125,5356,1139,1,7,7,1.02364736730791
undo,59,1,0,0,0,5,"[0, 8, 20, 5]",4,7,"[1, 4, 11, 13, 17, 18, 29]",104.469902,6906,1550,1,3,7,1.0439599203945713
undo,59,1,0,0,0,18,"[0, 8, 20, 5, 18]",5,2,"[4, 29]",81.64447755,8363,1457,1,1,7,1.0840407791793756
undo,59,1,0,0,0,4,"[0, 8, 20, 5, 18, 4]",6,1,[29],42.69579336,9469,1106,1,0,7,1.0902329133216275
undo,59,1,0,0,1,29,"[0, 8, 20, 5, 18, 4, 29]",7,0,[],6.640280603,10714,1245,1,0,7,1.2859729622882756
undo,59,1,0,1,1,29,"[0, 8, 20, 5, 18, 4, 29]",7,0,[],6.640280603,11887,1173,1,0,7,1.2859729622882756
undo,60,42,0,0,0,0,[0],1,29,"[1, 2, 3, 4, 5, 6, 7, 8, 9, 10, 11, 12, 13, 14, 15, 16, 17, 18, 19, 20, 21, 22, 23, 24, 25, 26, 27, 28, 29]",300,131,-1,16,302,9,0.0
undo,60,42,0,0,0,5,"[0, 5]",2,28,"[1, 2, 3, 4, 6, 7, 8, 9, 10, 11, 12, 13, 14, 15, 16, 17, 18, 19, 20, 21, 22, 23, 24, 25, 26, 27, 28, 29]",191.2939744,3844,3713,1,22,9,1.0
undo,60,42,0,0,0,4,"[0, 5, 4]",3,23,"[1, 2, 3, 6, 7, 8, 9, 10, 11, 13, 15, 17, 18, 19, 20, 21, 22, 23, 24, 25, 26, 27, 29]",171.4445412,4952,1108,1,14,9,1.420957801478707
undo,60,42,0,0,0,22,"[0, 5, 4, 22]",4,20,"[1, 2, 3, 6, 7, 8, 9, 11, 15, 17, 18, 19, 20, 21, 23, 24, 25, 26, 27, 29]",160.2642013,6401,1449,1,11,9,1.5771494659680896
undo,60,42,0,0,0,8,"[0, 5, 4, 22, 8]",5,14,"[1, 2, 3, 6, 7, 11, 15, 18, 19, 24, 25, 26, 27, 29]",138.1282577,7235,834,1,10,9,1.5055393955524201
undo,60,42,0,0,0,1,"[0, 5, 4, 22, 8, 1]",6,5,"[2, 7, 19, 26, 27]",89.03650682,8983,1748,1,7,9,1.3547259083637835
undo,60,42,0,0,0,7,"[0, 5, 4, 22, 8, 1, 7]",7,4,"[2, 19, 26, 27]",59.03650682,10262,1279,1,3,9,1.3909715672447451
undo,60,42,0,0,0,26,"[0, 5, 4, 22, 8, 1, 7, 26]",8,1,[27],32.46584631,11162,900,1,0,9,1.3511825943939393
undo,60,42,0,0,1,27,"[0, 5, 4, 22, 8, 1, 7, 26, 27]",9,0,[],14.43808994,12442,1280,1,0,9,1.3391911688802078
undo,60,42,0,1,1,27,"[0, 5, 4, 22, 8, 1, 7, 26, 27]",9,0,[],14.43808994,13619,1177,1,0,9,1.3391911688802078
undo,61,3,0,0,0,0,[0],1,29,"[1, 2, 3, 4, 5, 6, 7, 8, 9, 10, 11, 12, 13, 14, 15, 16, 17, 18, 19, 20, 21, 22, 23, 24, 25, 26, 27, 28, 29]",300,129,-1,34,427,10,0.0
undo,61,3,0,0,0,17,"[0, 17]",2,16,"[3, 4, 7, 8, 10, 12, 14, 15, 16, 19, 20, 21, 22, 24, 26, 27]",197.6965299,7001,6872,2,27,9,1.0
undo,61,3,0,0,0,20,"[0, 17, 20]",3,13,"[3, 4, 7, 8, 10, 14, 15, 16, 19, 21, 22, 24, 27]",185.0474192,8446,1445,2,24,9,1.0153332121237257
undo,61,3,0,0,0,3,"[0, 17, 20, 3]",4,10,"[4, 7, 8, 10, 14, 15, 16, 19, 21, 24]",164.6513412,9950,1504,2,22,9,1.0819240770773468
undo,61,3,0,0,0,14,"[0, 17, 20, 3, 14]",5,6,"[4, 8, 10, 19, 21, 24]",119.1650795,13708,3758,4,9,8,1.4050331773786129
undo,61,3,0,0,0,19,"[0, 17, 20, 3, 14, 19]",6,3,"[4, 10, 21]",92.23925548,14523,815,1,2,8,1.407779235765718
undo,61,3,0,0,0,21,"[0, 17, 20, 3, 14, 19, 21]",7,1,[10],80.03269986,15057,534,1,0,8,1.430501986294529
undo,61,3,0,0,1,10,"[0, 17, 20, 3, 14, 19, 21, 10]",8,0,[],30.69711433,16323,1266,1,0,8,1.7103164264174402
undo,61,3,0,1,1,10,"[0, 17, 20, 3, 14, 19, 21, 10]",8,0,[],30.69711433,17414,1091,1,0,8,1.7103164264174402
undo,62,27,0,0,0,0,[0],1,26,"[1, 3, 5, 6, 7, 8, 9, 10, 11, 12, 13, 14, 15, 16, 17, 18, 19, 21, 22, 23, 24, 25, 26, 27, 28, 29]",300,131,-1,13,578,11,0.0
undo,62,27,0,0,0,15,"[0, 15]",2,24,"[1, 3, 5, 6, 7, 8, 9, 10, 11, 12, 13, 14, 16, 17, 18, 19, 21, 22, 23, 24, 25, 26, 27, 29]",263.7508621,3227,3096,6,219,11,1.0
undo,62,27,0,0,0,24,"[0, 15, 24]",3,20,"[1, 5, 6, 7, 8, 9, 10, 12, 13, 14, 16, 17, 18, 19, 21, 23, 25, 26, 27, 29]",246.5462115,3901,674,6,130,11,1.130933077698322
undo,62,27,0,0,0,17,"[0, 15, 24, 17]",4,15,"[1, 6, 8, 10, 12, 13, 14, 16, 18, 19, 23, 25, 26, 27, 29]",229.9932662,4586,685,4,60,11,1.1285538435963374
undo,62,27,0,0,0,12,"[0, 15, 24, 17, 12]",5,14,"[1, 6, 8, 10, 13, 14, 16, 18, 19, 23, 25, 26, 27, 29]",218.8129263,5450,864,2,32,11,1.2561880288755216
undo,62,27,0,0,0,10,"[0, 15, 24, 17, 12, 10]",6,11,"[1, 8, 13, 14, 18, 19, 23, 25, 26, 27, 29]",207.7675653,6049,599,2,28,11,1.2228289337766665
undo,62,27,0,0,0,13,"[0, 15, 24, 17, 12, 10, 13]",7,9,"[1, 8, 14, 18, 19, 23, 26, 27, 29]",167.9178476,8178,2129,2,18,11,1.3421291994761178
undo,62,27,0,0,0,19,"[0, 15, 24, 17, 12, 10, 13, 19]",8,5,"[1, 8, 14, 23, 29]",131.6825057,9367,1189,2,6,11,1.294749956153846
undo,62,27,0,0,0,8,"[0, 15, 24, 17, 12, 10, 13, 19, 8]",9,3,"[14, 23, 29]",116.816437,10347,980,2,1,11,1.3554286578836865
undo,62,27,0,0,0,29,"[0, 15, 24, 17, 12, 10, 13, 19, 8, 29]",10,1,[14],57.61339652,12083,1736,1,0,11,1.248354519573802
undo,62,27,0,0,1,14,"[0, 15, 24, 17, 12, 10, 13, 19, 8, 29, 14]",11,0,[],13.31892734,13211,1128,1,0,11,1.562811097555156
undo,62,27,0,1,1,14,"[0, 15, 24, 17, 12, 10, 13, 19, 8, 29, 14]",11,0,[],13.31892734,14585,1374,1,0,11,1.562811097555156
undo,63,41,0,0,0,0,[0],1,29,"[1, 2, 3, 4, 5, 6, 7, 8, 9, 10, 11, 12, 13, 14, 15, 16, 17, 18, 19, 20, 21, 22, 23, 24, 25, 26, 27, 28, 29]",300,131,-1,1,143,10,0.0
undo,63,41,0,0,0,13,"[0, 13]",2,23,"[1, 2, 3, 5, 6, 7, 9, 10, 11, 12, 14, 15, 17, 18, 19, 20, 21, 22, 24, 25, 26, 27, 28]",258.2747079,9800,9669,1,55,10,1.0
undo,63,41,0,0,0,28,"[0, 13, 28]",3,22,"[1, 2, 3, 5, 6, 7, 9, 10, 11, 12, 14, 15, 17, 18, 19, 20, 21, 22, 24, 25, 26, 27]",223.7928286,10746,946,1,39,10,1.895724242592676
undo,63,41,0,0,0,5,"[0, 13, 28, 5]",4,19,"[1, 2, 3, 6, 9, 10, 11, 12, 14, 15, 17, 18, 19, 20, 21, 22, 24, 25, 27]",210.1913581,11364,618,1,34,10,2.861541269398273
undo,63,41,0,0,0,3,"[0, 13, 28, 5, 3]",5,16,"[1, 2, 6, 9, 10, 12, 14, 17, 18, 19, 20, 21, 22, 24, 25, 27]",175.3632086,13867,2503,1,22,10,3.1455488489005883
undo,63,41,0,0,0,21,"[0, 13, 28, 5, 3, 21]",6,14,"[1, 2, 6, 9, 10, 12, 14, 17, 18, 19, 20, 22, 25, 27]",143.2228912,14749,882,13,11,9,3.207558429289677
undo,63,41,0,0,0,9,"[0, 13, 28, 5, 3, 21, 9]",7,6,"[1, 2, 10, 12, 14, 17]",93.85691102,16000,1251,7,4,9,2.5050148501792275
undo,63,41,0,0,0,2,"[0, 13, 28, 5, 3, 21, 9, 2]",8,5,"[1, 10, 12, 14, 17]",81.77386505,16709,709,5,0,9,2.4119643847713177
undo,63,41,0,0,1,17,"[0, 13, 28, 5, 3, 21, 9, 2, 17]",9,0,[],49.21622385,18197,1488,1,0,9,3.9563478735796007
undo,63,41,0,1,1,17,"[0, 13, 28, 5, 3, 21, 9, 2, 17]",9,0,[],49.21622385,20997,2800,1,0,9,3.9563478735796007
undo,64,9,0,0,0,0,[0],1,27,"[1, 3, 4, 5, 6, 7, 8, 9, 10, 11, 13, 14, 15, 16, 17, 18, 19, 20, 21, 22, 23, 24, 25, 26, 27, 28, 29]",300,132,-1,2,182,10,0.0
undo,64,9,0,0,0,23,"[0, 23]",2,26,"[1, 3, 4, 5, 6, 7, 8, 9, 10, 11, 13, 14, 15, 16, 17, 18, 19, 20, 21, 22, 24, 25, 26, 27, 28, 29]",240.4600974,7062,6930,7,160,9,1.0
undo,64,9,0,0,0,8,"[0, 23, 8]",3,23,"[1, 3, 4, 5, 6, 7, 9, 10, 11, 13, 15, 16, 17, 18, 19, 20, 21, 22, 24, 25, 26, 27, 28]",218.9891869,7873,811,3,53,9,1.2701427074648883
undo,64,9,0,0,0,28,"[0, 23, 8, 28]",4,22,"[1, 3, 4, 5, 6, 7, 9, 10, 11, 13, 15, 16, 17, 18, 19, 20, 21, 22, 24, 25, 26, 27]",208.172533,8433,560,3,39,9,1.2362921532284137
undo,64,9,0,0,0,26,"[0, 23, 8, 28, 26]",5,19,"[1, 3, 5, 6, 7, 9, 10, 13, 15, 16, 17, 18, 19, 20, 21, 22, 24, 25, 27]",163.3953067,9545,1112,2,15,9,1.169313903639755
undo,64,9,0,0,0,21,"[0, 23, 8, 28, 26, 21]",6,7,"[9, 10, 16, 17, 18, 20, 22]",109.4879788,12489,2944,4,6,8,1.607252916465919
undo,64,9,0,0,0,20,"[0, 23, 8, 28, 26, 21, 20]",7,4,"[10, 16, 17, 22]",97.40493282,12999,510,4,0,8,1.5996563152867251
undo,64,9,0,0,1,22,"[0, 23, 8, 28, 26, 21, 20, 22]",8,0,[],21.34574534,14344,1345,1,0,8,2.344614520312041
undo,64,9,0,1,1,22,"[0, 23, 8, 28, 26, 21, 20, 22]",8,0,[],21.34574534,15536,1192,1,0,8,2.344614520312041
undo,65,43,0,0,0,0,[0],1,23,"[1, 2, 3, 4, 5, 6, 7, 9, 10, 11, 12, 14, 15, 16, 17, 19, 20, 21, 22, 23, 25, 27, 29]",300,131,-1,16,556,12,0.0
undo,65,43,0,0,0,29,"[0, 29]",2,22,"[1, 2, 3, 4, 5, 6, 7, 9, 10, 11, 12, 14, 15, 16, 17, 19, 20, 21, 22, 23, 25, 27]",277.909278,2494,2363,16,520,12,1.0
undo,65,43,0,0,0,20,"[0, 29, 20]",3,20,"[1, 2, 3, 4, 6, 7, 9, 10, 11, 12, 14, 15, 16, 17, 19, 21, 22, 23, 25, 27]",254.4785289,3562,1068,15,422,12,1.082311746871282
undo,65,43,0,0,0,16,"[0, 29, 20, 16]",4,19,"[1, 2, 3, 4, 6, 7, 9, 10, 11, 12, 14, 15, 17, 19, 21, 22, 23, 25, 27]",231.8511119,4769,1207,15,389,12,1.215201926898219
undo,65,43,0,0,0,15,"[0, 29, 20, 16, 15]",5,14,"[1, 2, 3, 4, 6, 7, 9, 11, 12, 14, 19, 22, 23, 25]",188.5267539,7478,2709,3,109,12,1.3482474915350444
undo,65,43,0,0,0,25,"[0, 29, 20, 16, 15, 25]",6,12,"[1, 3, 4, 6, 7, 9, 11, 12, 14, 19, 22, 23]",165.8551858,8404,926,2,43,12,1.691408721191545
undo,65,43,0,0,0,12,"[0, 29, 20, 16, 15, 25, 12]",7,11,"[1, 3, 4, 6, 7, 9, 11, 14, 19, 22, 23]",141.6684126,9198,794,2,32,12,1.6015983641428178
undo,65,43,0,0,0,3,"[0, 29, 20, 16, 15, 25, 12, 3]",8,10,"[1, 4, 6, 7, 9, 11, 14, 19, 22, 23]",128.6684126,10242,1044,2,24,12,1.5379830456120627
undo,65,43,0,0,0,22,"[0, 29, 20, 16, 15, 25, 12, 3, 22]",9,6,"[1, 6, 7, 11, 14, 19]",93.95530264,12614,2372,1,11,12,1.7275686117408873
undo,65,43,0,0,0,19,"[0, 29, 20, 16, 15, 25, 12, 3, 22, 19]",10,4,"[1, 6, 7, 11]",73.33977451,14472,1858,1,3,12,1.6315360037595275
undo,65,43,0,0,0,1,"[0, 29, 20, 16, 15, 25, 12, 3, 22, 19, 1]",11,1,[7],45.1617689,15339,867,1,0,12,1.7703076545303877
undo,65,43,0,1,0,1,"[0, 29, 20, 16, 15, 25, 12, 3, 22, 19, 1]",11,1,[7],45.1617689,16583,1244,1,0,12,1.7703076545303877
undo,66,10,0,0,0,0,[0],1,29,"[1, 2, 3, 4, 5, 6, 7, 8, 9, 10, 11, 12, 13, 14, 15, 16, 17, 18, 19, 20, 21, 22, 23, 24, 25, 26, 27, 28, 29]",300,130,-1,1,100,9,0.0
undo,66,10,0,0,0,13,"[0, 13]",2,25,"[1, 2, 3, 4, 6, 7, 8, 9, 10, 11, 12, 14, 17, 18, 19, 20, 21, 22, 23, 24, 25, 26, 27, 28, 29]",249.4628849,5414,5284,1,79,9,1.0
undo,66,10,0,0,0,11,"[0, 13, 11]",3,20,"[1, 2, 3, 6, 7, 8, 9, 10, 12, 14, 18, 19, 20, 21, 22, 24, 26, 27, 28, 29]",206.4512586,6386,972,1,54,9,1.0313137484914219
undo,66,10,0,0,0,20,"[0, 13, 11, 20]",4,15,"[1, 2, 3, 6, 8, 9, 10, 12, 14, 18, 19, 21, 24, 26, 27]",168.3723931,7200,814,15,34,8,1.0874972644654597
undo,66,10,0,0,0,26,"[0, 13, 11, 20, 26]",5,8,"[2, 6, 9, 10, 14, 18, 19, 27]",136.5918959,7973,773,6,9,8,1.2338398611867702
undo,66,10,0,0,0,19,"[0, 13, 11, 20, 26, 19]",6,4,"[2, 10, 14, 27]",108.2722914,9149,1176,2,2,8,1.605667351096318
undo,66,10,0,0,0,14,"[0, 13, 11, 20, 26, 19, 14]",7,1,[2],67.04123512,10165,1016,1,0,8,1.4566183057047435
undo,66,10,0,0,1,2,"[0, 13, 11, 20, 26, 19, 14, 2]",8,0,[],54.87571006,10914,749,1,0,8,1.5015428902812569
undo,66,10,0,1,1,2,"[0, 13, 11, 20, 26, 19, 14, 2]",8,0,[],54.87571006,12053,1139,1,0,8,1.5015428902812569
undo,67,33,0,0,0,0,[0],1,23,"[1, 2, 5, 7, 8, 11, 12, 13, 14, 15, 16, 17, 18, 19, 20, 21, 23, 24, 25, 26, 27, 28, 29]",300,164,-1,5,108,9,0.0
undo,67,33,0,0,0,21,"[0, 21]",2,17,"[2, 5, 7, 8, 11, 13, 14, 16, 17, 18, 19, 20, 24, 26, 27, 28, 29]",174.4611614,3801,3637,21,129,8,1.0
undo,67,33,0,0,0,13,"[0, 21, 13]",3,15,"[2, 5, 7, 8, 11, 14, 16, 17, 18, 19, 20, 24, 26, 28, 29]",148.0604038,4517,716,17,72,8,1.0001005298764474
undo,67,33,0,0,0,19,"[0, 21, 13, 19]",4,11,"[7, 11, 14, 16, 17, 18, 20, 24, 26, 28, 29]",122.5653063,6532,2015,10,27,8,1.0588446738393702
undo,67,33,0,0,0,7,"[0, 21, 13, 19, 7]",5,7,"[14, 16, 17, 18, 24, 26, 29]",76.94732734,7647,1115,3,5,8,1.0466997412739754
undo,67,33,0,0,0,14,"[0, 21, 13, 19, 7, 14]",6,3,"[24, 26, 29]",62.0812586,8693,1046,2,1,8,1.096679239566485
undo,67,33,0,0,0,26,"[0, 21, 13, 19, 7, 14, 26]",7,1,[29],49.43214796,9379,686,1,0,8,1.1075261679429118
undo,67,33,0,0,1,29,"[0, 21, 13, 19, 7, 14, 26, 29]",8,0,[],21.53949659,10616,1237,1,0,8,1.3238278222819673
undo,67,33,0,1,1,29,"[0, 21, 13, 19, 7, 14, 26, 29]",8,0,[],21.53949659,11570,954,1,0,8,1.3238278222819673
undo,68,17,0,0,0,0,[0],1,28,"[1, 2, 3, 4, 5, 6, 7, 8, 9, 10, 11, 12, 13, 14, 15, 16, 17, 18, 19, 20, 22, 23, 24, 25, 26, 27, 28, 29]",300,130,-1,2,73,8,0.0
undo,68,17,0,0,0,9,"[0, 9]",2,25,"[1, 2, 3, 5, 6, 7, 8, 10, 11, 12, 14, 15, 16, 17, 18, 19, 20, 22, 23, 24, 25, 26, 27, 28, 29]",210.5293344,6065,5935,1,34,8,1.0
undo,68,17,0,0,0,16,"[0, 9, 16]",3,21,"[1, 2, 3, 5, 7, 8, 10, 11, 12, 14, 17, 18, 19, 20, 22, 23, 25, 26, 27, 28, 29]",197.1876704,7011,946,1,26,8,1.173103464220352
undo,68,17,0,0,0,2,"[0, 9, 16, 2]",4,18,"[1, 3, 5, 7, 8, 10, 11, 12, 14, 17, 18, 19, 23, 25, 26, 27, 28, 29]",181.0631549,7672,661,1,23,8,1.14825089247282
undo,68,17,0,0,0,17,"[0, 9, 16, 2, 17]",5,7,"[7, 8, 12, 14, 26, 27, 29]",142.7356191,10265,2593,4,5,7,1.4896040699768547
undo,68,17,0,0,0,8,"[0, 9, 16, 2, 17, 8]",6,3,"[7, 12, 27]",104.5256727,11148,883,3,0,7,1.4604726966175894
undo,68,17,0,0,1,27,"[0, 9, 16, 2, 17, 8, 27]",7,0,[],21.88790895,12492,1344,1,0,7,1.2949460667276491
undo,68,17,0,1,1,27,"[0, 9, 16, 2, 17, 8, 27]",7,0,[],21.88790895,14001,1509,1,0,7,1.2949460667276491
basic,69,34,0,0,0,0,[0],1,25,"[1, 3, 4, 5, 6, 7, 8, 9, 10, 11, 12, 13, 15, 18, 19, 20, 21, 22, 23, 24, 25, 26, 27, 28, 29]",300,133,-1,12,367,10,0.0
basic,69,34,0,0,0,13,"[0, 13]",2,24,"[1, 3, 4, 5, 6, 7, 8, 9, 10, 11, 12, 15, 18, 19, 20, 21, 22, 23, 24, 25, 26, 27, 28, 29]",279.9750156,2772,2639,12,331,10,1.0
basic,69,34,0,0,0,1,"[0, 13, 1]",3,16,"[3, 5, 7, 8, 9, 10, 11, 12, 19, 21, 22, 23, 24, 25, 27, 29]",211.8574701,4037,1265,3,92,10,1.0010381285747127
basic,69,34,0,0,0,8,"[0, 13, 1, 8]",4,14,"[3, 5, 7, 9, 10, 11, 12, 19, 22, 23, 24, 25, 27, 29]",201.0871405,4627,590,2,54,10,1.1636807
basic,69,34,0,0,0,25,"[0, 13, 1, 8, 25]",5,12,"[3, 5, 7, 9, 10, 11, 12, 22, 23, 24, 27, 29]",183.999133,5353,726,2,28,10,1.1396208815936457
basic,69,34,0,0,0,24,"[0, 13, 1, 8, 25, 24]",6,11,"[3, 5, 7, 9, 10, 11, 12, 22, 23, 27, 29]",166.5062774,6124,771,2,23,10,1.374180768736554
basic,69,34,0,0,0,12,"[0, 13, 1, 8, 25, 24, 12]",7,7,"[7, 9, 10, 11, 22, 23, 27]",115.4670767,7103,979,1,8,10,1.4994254760835948
basic,69,34,0,0,0,7,"[0, 13, 1, 8, 25, 24, 12, 7]",8,5,"[9, 11, 22, 23, 27]",100.4337804,8438,1335,1,4,10,1.758992610425009
basic,69,34,0,0,0,23,"[0, 13, 1, 8, 25, 24, 12, 7, 23]",9,1,[27],72.27352467,9180,742,1,0,10,2.399781305190153
basic,69,34,0,0,1,27,"[0, 13, 1, 8, 25, 24, 12, 7, 23, 27]",10,0,[],18.60789321,10108,928,1,0,10,4.766619878750327
basic,69,34,0,1,1,27,"[0, 13, 1, 8, 25, 24, 12, 7, 23, 27]",10,0,[],18.60789321,11190,1082,1,0,10,4.766619878750327
basic,70,33,0,0,0,0,[0],1,23,"[1, 2, 5, 7, 8, 11, 12, 13, 14, 15, 16, 17, 18, 19, 20, 21, 23, 24, 25, 26, 27, 28, 29]",300,165,-1,5,108,9,0.0
basic,70,33,0,0,0,8,"[0, 8]",2,22,"[1, 2, 5, 7, 11, 12, 13, 14, 15, 16, 17, 18, 19, 20, 21, 23, 24, 25, 26, 27, 28, 29]",265.8679037,3485,3320,5,87,9,1.0
basic,70,33,0,0,0,21,"[0, 8, 21]",3,16,"[2, 5, 7, 11, 13, 14, 16, 17, 18, 19, 20, 24, 26, 27, 28, 29]",166.0430571,4433,948,5,80,9,1.0670557763739492
basic,70,33,0,0,0,13,"[0, 8, 21, 13]",4,12,"[2, 7, 11, 14, 16, 17, 18, 19, 20, 24, 26, 29]",139.6422995,5123,690,4,54,9,1.0555103820910288
basic,70,33,0,0,0,19,"[0, 8, 21, 13, 19]",5,10,"[7, 11, 14, 16, 17, 18, 20, 24, 26, 29]",114.1472019,6931,1808,3,19,9,1.1090798607799486
basic,70,33,0,0,0,24,"[0, 8, 21, 13, 19, 24]",6,6,"[7, 14, 16, 18, 26, 29]",72.09960985,7958,1027,2,3,9,1.1193530461391534
basic,70,33,0,0,0,7,"[0, 8, 21, 13, 19, 24, 7]",7,2,"[14, 26]",42.89344611,9037,1079,2,0,9,1.2065014071663551
basic,70,33,0,0,0,14,"[0, 8, 21, 13, 19, 24, 7, 14]",8,1,[26],28.02737737,9972,935,1,0,9,1.2536495746979057
basic,70,33,0,0,1,26,"[0, 8, 21, 13, 19, 24, 7, 14, 26]",9,0,[],15.37826672,10583,611,1,0,9,1.2580465331304596
basic,70,33,0,1,1,26,"[0, 8, 21, 13, 19, 24, 7, 14, 26]",9,0,[],15.37826672,11871,1288,1,0,9,1.2580465331304596
basic,71,14,0,0,0,0,[0],1,29,"[1, 2, 3, 4, 5, 6, 7, 8, 9, 10, 11, 12, 13, 14, 15, 16, 17, 18, 19, 20, 21, 22, 23, 24, 25, 26, 27, 28, 29]",300,182,-1,8,157,10,0.0
basic,71,14,0,0,0,18,"[0, 18]",2,17,"[1, 2, 3, 4, 7, 8, 9, 13, 15, 17, 19, 20, 22, 23, 25, 26, 28]",179.8958785,3740,3558,18,136,9,1.0
basic,71,14,0,0,0,8,"[0, 18, 8]",3,13,"[1, 2, 4, 7, 13, 15, 17, 19, 20, 23, 25, 26, 28]",166.294408,5269,1529,18,99,9,1.0203858410107731
basic,71,14,0,0,0,19,"[0, 18, 8, 19]",4,10,"[1, 2, 4, 7, 15, 17, 23, 25, 26, 28]",145.6788799,6332,1063,7,52,9,1.0436397834807676
basic,71,14,0,0,0,1,"[0, 18, 8, 19, 1]",5,9,"[2, 4, 7, 15, 17, 23, 25, 26, 28]",130.4473337,7896,1564,7,21,9,1.096538583531719
basic,71,14,0,0,0,26,"[0, 18, 8, 19, 1, 26]",6,4,"[4, 7, 23, 25]",75.70247088,9219,1323,2,4,9,1.1305399427709442
basic,71,14,0,0,0,23,"[0, 18, 8, 19, 1, 26, 23]",7,3,"[4, 7, 25]",64.88581706,10190,971,2,1,9,1.2508020127641972
basic,71,14,0,0,0,25,"[0, 18, 8, 19, 1, 26, 23, 25]",8,1,[7],35.47493472,11480,1290,1,0,9,1.6160852369336203
basic,71,14,0,0,1,7,"[0, 18, 8, 19, 1, 26, 23, 25, 7]",9,0,[],15.77721911,12250,770,1,0,9,1.6274549091166954
basic,71,14,0,1,1,7,"[0, 18, 8, 19, 1, 26, 23, 25, 7]",9,0,[],15.77721911,13587,1337,1,0,9,1.6274549091166954
basic,72,29,0,0,0,0,[0],1,29,"[1, 2, 3, 4, 5, 6, 7, 8, 9, 10, 11, 12, 13, 14, 15, 16, 17, 18, 19, 20, 21, 22, 23, 24, 25, 26, 27, 28, 29]",300,148,-1,1,78,9,0.0
basic,72,29,0,0,0,6,"[0, 6]",2,28,"[1, 2, 3, 4, 5, 7, 8, 9, 10, 11, 12, 13, 14, 15, 16, 17, 18, 19, 20, 21, 22, 23, 24, 25, 26, 27, 28, 29]",228.4108947,6539,6391,1,25,9,1.0
basic,72,29,0,0,0,28,"[0, 6, 28]",3,24,"[1, 3, 4, 5, 7, 9, 10, 11, 12, 13, 14, 15, 16, 17, 18, 20, 21, 22, 23, 24, 25, 26, 27, 29]",187.1798384,8030,1491,1,22,9,1.162106788166845
basic,72,29,0,0,0,27,"[0, 6, 28, 27]",4,19,"[1, 3, 4, 5, 7, 9, 10, 11, 12, 13, 14, 15, 16, 21, 22, 23, 25, 26, 29]",166.6615539,8614,584,1,21,9,1.2307173895439045
basic,72,29,0,0,0,22,"[0, 6, 28, 27, 22]",5,13,"[1, 3, 4, 5, 7, 9, 12, 13, 14, 15, 21, 26, 29]",133.4200136,9238,624,1,19,9,1.4241767805149903
basic,72,29,0,0,0,12,"[0, 6, 28, 27, 22, 12]",6,8,"[4, 5, 7, 9, 13, 14, 21, 26]",95.4726817,10235,997,1,6,9,1.3248355326460857
basic,72,29,0,0,0,7,"[0, 6, 28, 27, 22, 12, 7]",7,4,"[4, 5, 9, 21]",81.87121119,11446,1211,1,3,9,1.3264091962339806
basic,72,29,0,0,0,9,"[0, 6, 28, 27, 22, 12, 7, 9]",8,1,[4],52.80232748,12078,632,1,0,9,1.309391257644539
basic,72,29,0,0,1,4,"[0, 6, 28, 27, 22, 12, 7, 9, 4]",9,0,[],11.76575843,13450,1372,1,0,9,1.6396807789841599
basic,72,29,0,1,1,4,"[0, 6, 28, 27, 22, 12, 7, 9, 4]",9,0,[],11.76575843,14618,1168,1,0,9,1.6396807789841599
basic,73,22,0,0,0,0,[0],1,29,"[1, 2, 3, 4, 5, 6, 7, 8, 9, 10, 11, 12, 13, 14, 15, 16, 17, 18, 19, 20, 21, 22, 23, 24, 25, 26, 27, 28, 29]",300,131,-1,31,704,9,0.0
basic,73,22,0,0,0,16,"[0, 16]",2,21,"[1, 3, 6, 7, 8, 9, 11, 13, 14, 15, 17, 18, 19, 20, 21, 22, 24, 25, 27, 28, 29]",218.605897,5019,4888,17,147,9,1.0
basic,73,22,0,0,0,28,"[0, 16, 28]",3,13,"[6, 7, 9, 13, 14, 17, 19, 20, 21, 22, 24, 25, 29]",184.1675463,6867,1848,12,61,9,1.047282311284478
basic,73,22,0,0,0,6,"[0, 16, 28, 6]",4,12,"[7, 9, 13, 14, 17, 19, 20, 21, 22, 24, 25, 29]",154.1675463,7765,898,12,43,9,1.645645870580622
basic,73,22,0,0,0,9,"[0, 16, 28, 6, 9]",5,8,"[7, 14, 17, 19, 20, 21, 24, 29]",127.5404924,8715,950,8,17,9,1.925750226630103
basic,73,22,0,0,0,19,"[0, 16, 28, 6, 9, 19]",6,6,"[7, 14, 17, 21, 24, 29]",107.1444143,9801,1086,3,7,9,2.4220750331476455
basic,73,22,0,0,0,29,"[0, 16, 28, 6, 9, 19, 29]",7,4,"[7, 14, 17, 24]",92.11111796,11312,1511,2,2,9,2.6996279574991067
basic,73,22,0,0,0,7,"[0, 16, 28, 6, 9, 19, 29, 7]",8,1,[14],41.0327468,12413,1101,1,0,9,2.059125386946491
basic,73,22,0,0,1,14,"[0, 16, 28, 6, 9, 19, 29, 7, 14]",9,0,[],27.99434199,13202,789,1,0,9,2.0997569104205307
basic,73,22,0,1,1,14,"[0, 16, 28, 6, 9, 19, 29, 7, 14]",9,0,[],27.99434199,14585,1383,1,0,9,2.0997569104205307
basic,74,43,0,0,0,0,[0],1,23,"[1, 2, 3, 4, 5, 6, 7, 9, 10, 11, 12, 14, 15, 16, 17, 19, 20, 21, 22, 23, 25, 27, 29]",300,131,-1,16,556,12,0.0
basic,74,43,0,0,0,29,"[0, 29]",2,22,"[1, 2, 3, 4, 5, 6, 7, 9, 10, 11, 12, 14, 15, 16, 17, 19, 20, 21, 22, 23, 25, 27]",277.909278,5974,5843,16,520,12,1.0
basic,74,43,0,0,0,20,"[0, 29, 20]",3,20,"[1, 2, 3, 4, 6, 7, 9, 10, 11, 12, 14, 15, 16, 17, 19, 21, 22, 23, 25, 27]",254.4785289,6671,697,15,422,12,1.082311746871282
basic,74,43,0,0,0,16,"[0, 29, 20, 16]",4,19,"[1, 2, 3, 4, 6, 7, 9, 10, 11, 12, 14, 15, 17, 19, 21, 22, 23, 25, 27]",231.8511119,8323,1652,15,389,12,1.215201926898219
basic,74,43,0,0,0,15,"[0, 29, 20, 16, 15]",5,14,"[1, 2, 3, 4, 6, 7, 9, 11, 12, 14, 19, 22, 23, 25]",188.5267539,9338,1015,3,109,12,1.3482474915350444
basic,74,43,0,0,0,12,"[0, 29, 20, 16, 15, 12]",6,13,"[1, 2, 3, 4, 6, 7, 9, 11, 14, 19, 22, 23, 25]",169.213546,10149,811,1,49,12,1.3229664037236823
basic,74,43,0,0,0,3,"[0, 29, 20, 16, 15, 12, 3]",7,11,"[1, 4, 6, 7, 9, 11, 14, 19, 22, 23, 25]",156.213546,10667,518,1,35,12,1.2907201281243643
basic,74,43,0,0,0,22,"[0, 29, 20, 16, 15, 12, 3, 22]",8,9,"[1, 4, 6, 7, 11, 14, 19, 23, 25]",121.5004361,11613,946,1,18,12,1.4966181986440266
basic,74,43,0,0,0,19,"[0, 29, 20, 16, 15, 12, 3, 22, 19]",9,7,"[1, 4, 6, 7, 11, 14, 25]",100.8849079,12361,748,1,9,12,1.4332617950535695
basic,74,43,0,0,0,1,"[0, 29, 20, 16, 15, 12, 3, 22, 19, 1]",10,5,"[4, 6, 7, 11, 14]",72.70690233,13150,789,1,4,12,1.5789573993284716
basic,74,43,0,0,1,7,"[0, 29, 20, 16, 15, 12, 3, 22, 19, 1, 7]",11,0,[],34.49695598,13958,808,1,0,11,1.5046107053917848
basic,74,43,0,1,1,7,"[0, 29, 20, 16, 15, 12, 3, 22, 19, 1, 7]",11,0,[],34.49695598,15501,1543,1,0,11,1.5046107053917848
basic,75,40,0,0,0,0,[0],1,29,"[1, 2, 3, 4, 5, 6, 7, 8, 9, 10, 11, 12, 13, 14, 15, 16, 17, 18, 19, 20, 21, 22, 23, 24, 25, 26, 27, 28, 29]",300,164,-1,8,191,9,0.0
basic,75,40,0,0,0,1,"[0, 1]",2,18,"[2, 5, 6, 7, 8, 9, 10, 11, 13, 15, 17, 18, 19, 21, 22, 23, 27, 29]",247.8463808,8746,8582,4,80,9,1.0
basic,75,40,0,0,0,6,"[0, 1, 6]",3,17,"[2, 5, 7, 8, 9, 10, 11, 13, 15, 17, 18, 19, 21, 22, 23, 27, 29]",227.7466295,9480,734,4,74,9,1.0459427008232034
basic,75,40,0,0,0,21,"[0, 1, 6, 21]",4,8,"[2, 5, 9, 17, 18, 19, 22, 23]",175.7754837,11388,1908,4,25,9,1.0308822257404064
basic,75,40,0,0,0,9,"[0, 1, 6, 21, 9]",5,6,"[2, 5, 18, 19, 22, 23]",130.0699041,12462,1074,4,12,9,1.377861912961129
basic,75,40,0,0,0,18,"[0, 1, 6, 21, 9, 18]",6,5,"[2, 5, 19, 22, 23]",113.5169588,13713,1251,4,4,9,1.5742712168661408
basic,75,40,0,0,0,5,"[0, 1, 6, 21, 9, 18, 5]",7,3,"[19, 22, 23]",81.94165198,14662,949,2,1,9,1.7730665063055515
basic,75,40,0,0,0,23,"[0, 1, 6, 21, 9, 18, 5, 23]",8,1,[19],53.63970859,16191,1529,1,0,9,2.597442759912231
basic,75,40,0,0,1,19,"[0, 1, 6, 21, 9, 18, 5, 23, 19]",9,0,[],21.68661797,16923,732,1,0,9,2.7128328554069565
basic,75,40,0,1,1,19,"[0, 1, 6, 21, 9, 18, 5, 23, 19]",9,0,[],21.68661797,18082,1159,1,0,9,2.7128328554069565
basic,76,11,0,0,0,0,[0],1,25,"[1, 2, 3, 4, 5, 6, 8, 9, 10, 11, 12, 13, 14, 15, 16, 17, 18, 19, 20, 22, 23, 25, 26, 27, 28]",300,131,-1,6,374,12,0.0
basic,76,11,0,0,0,1,"[0, 1]",2,24,"[2, 3, 4, 5, 6, 8, 9, 10, 11, 12, 13, 14, 15, 16, 17, 18, 19, 20, 22, 23, 25, 26, 27, 28]",264.6446609,4774,4643,6,217,12,1.0
basic,76,11,0,0,0,17,"[0, 1, 17]",3,17,"[2, 4, 5, 6, 8, 10, 11, 12, 15, 18, 19, 22, 23, 25, 26, 27, 28]",149.3971013,7907,3133,166,657,10,1.0239647205492373
basic,76,11,0,0,0,8,"[0, 1, 17, 8]",4,14,"[2, 4, 5, 6, 11, 12, 15, 18, 19, 22, 23, 25, 27, 28]",135.0792803,8513,606,74,238,10,1.1357648364167585
basic,76,11,0,0,0,15,"[0, 1, 17, 8, 15]",5,11,"[2, 5, 6, 11, 12, 18, 19, 22, 25, 27, 28]",121.6256562,9151,638,46,62,10,1.1370884007549122
basic,76,11,0,0,0,11,"[0, 1, 17, 8, 15, 11]",6,8,"[2, 5, 6, 12, 19, 22, 27, 28]",103.5148859,9855,704,24,0,10,1.1333500349846208
basic,76,11,0,0,0,5,"[0, 1, 17, 8, 15, 11, 5]",7,3,"[2, 22, 28]",68.28705602,14111,4256,6,0,10,1.4242345865810733
basic,76,11,0,0,0,28,"[0, 1, 17, 8, 15, 11, 5, 28]",8,2,"[2, 22]",50.3985122,15741,1630,2,0,10,1.44442499804009
basic,76,11,0,0,0,2,"[0, 1, 17, 8, 15, 11, 5, 28, 2]",9,1,[22],39.76836639,16491,750,1,0,10,1.4579775409765852
basic,76,11,0,0,1,22,"[0, 1, 17, 8, 15, 11, 5, 28, 2, 22]",10,0,[],29.71849077,17208,717,1,0,10,1.433596975391102
basic,76,11,0,1,1,22,"[0, 1, 17, 8, 15, 11, 5, 28, 2, 22]",10,0,[],29.71849077,18465,1257,1,0,10,1.433596975391102
basic,77,16,0,0,0,0,[0],1,29,"[1, 2, 3, 4, 5, 6, 7, 8, 9, 10, 11, 12, 13, 14, 15, 16, 17, 18, 19, 20, 21, 22, 23, 24, 25, 26, 27, 28, 29]",300,130,-1,13,161,9,0.0
basic,77,16,0,0,0,17,"[0, 17]",2,27,"[1, 2, 3, 4, 5, 7, 8, 9, 10, 11, 12, 13, 14, 15, 16, 18, 19, 20, 21, 22, 23, 24, 25, 26, 27, 28, 29]",241.3058776,2601,2471,2,58,9,1.0
