condition,trial_id,map_id,undoIndicator,submit,checkEnd,currentChoice,chosen_all,n_city_all,n_within_reach,cities_reach,currentBudget,time_all,rt_all,n_opt_paths_all,n_subopt_paths_all,mas_all,tortuosity_all
undo,0,40,0,0,0,0,[0],1,29,"[1, 2, 3, 4, 5, 6, 7, 8, 9, 10, 11, 12, 13, 14, 15, 16, 17, 18, 19, 20, 21, 22, 23, 24, 25, 26, 27, 28, 29]",300,162,-1,8,191,9,0.0
undo,0,40,0,0,0,1,"[0, 1]",2,18,"[2, 5, 6, 7, 8, 9, 10, 11, 13, 15, 17, 18, 19, 21, 22, 23, 27, 29]",247.8463808,4053,3891,4,80,9,1.0
undo,0,40,0,0,0,6,"[0, 1, 6]",3,17,"[2, 5, 7, 8, 9, 10, 11, 13, 15, 17, 18, 19, 21, 22, 23, 27, 29]",227.7466295,4657,604,4,74,9,1.0459427008232034
undo,0,40,0,0,0,9,"[0, 1, 6, 9]",4,10,"[2, 5, 8, 11, 18, 19, 21, 22, 23, 27]",159.146338,7022,2365,17,39,8,1.142098432552584
undo,0,40,0,0,0,18,"[0, 1, 6, 9, 18]",5,9,"[2, 5, 8, 11, 19, 21, 22, 23, 27]",142.5933926,7917,895,13,14,8,1.3288108654802917
undo,0,40,0,0,0,5,"[0, 1, 6, 9, 18, 5]",6,7,"[2, 8, 19, 21, 22, 23, 27]",111.0180858,9453,1536,5,5,8,1.5366414787972102
undo,0,40,0,0,0,23,"[0, 1, 6, 9, 18, 5, 23]",7,3,"[2, 19, 21]",82.71614241,12909,3456,3,0,8,2.2908821040631264
undo,0,40,0,0,1,19,"[0, 1, 6, 9, 18, 5, 23, 19]",8,0,[],50.76305179,14037,1128,1,0,8,2.4294131203959415
undo,0,40,0,1,1,19,"[0, 1, 6, 9, 18, 5, 23, 19]",8,0,[],50.76305179,14829,792,1,0,8,2.4294131203959415
undo,1,33,0,0,0,0,[0],1,23,"[1, 2, 5, 7, 8, 11, 12, 13, 14, 15, 16, 17, 18, 19, 20, 21, 23, 24, 25, 26, 27, 28, 29]",300,153,-1,5,108,9,0.0
undo,1,33,0,0,0,21,"[0, 21]",2,17,"[2, 5, 7, 8, 11, 13, 14, 16, 17, 18, 19, 20, 24, 26, 27, 28, 29]",174.4611614,3075,2922,21,129,8,1.0
undo,1,33,0,0,0,13,"[0, 21, 13]",3,15,"[2, 5, 7, 8, 11, 14, 16, 17, 18, 19, 20, 24, 26, 28, 29]",148.0604038,3811,736,17,72,8,1.0001005298764474
undo,1,33,0,0,0,19,"[0, 21, 13, 19]",4,11,"[7, 11, 14, 16, 17, 18, 20, 24, 26, 28, 29]",122.5653063,4835,1024,10,27,8,1.0588446738393702
undo,1,33,0,0,0,24,"[0, 21, 13, 19, 24]",5,7,"[7, 14, 16, 18, 26, 28, 29]",80.51771417,5877,1042,3,5,8,1.078006777679028
undo,1,33,0,0,0,7,"[0, 21, 13, 19, 24, 7]",6,3,"[14, 26, 29]",51.31155044,7909,2032,3,1,8,1.1669985062633954
undo,1,33,0,0,0,14,"[0, 21, 13, 19, 24, 7, 14]",7,2,"[26, 29]",36.44548169,8495,586,2,0,8,1.2148465775488593
undo,1,33,0,0,1,26,"[0, 21, 13, 19, 24, 7, 14, 26]",8,0,[],23.79637105,9127,632,1,0,8,1.2208379656544521
undo,1,33,0,1,1,26,"[0, 21, 13, 19, 24, 7, 14, 26]",8,0,[],23.79637105,10836,1709,1,0,8,1.2208379656544521
undo,2,0,0,0,0,0,[0],1,27,"[2, 3, 4, 5, 6, 7, 8, 9, 10, 11, 12, 13, 14, 15, 16, 17, 19, 20, 21, 22, 23, 24, 25, 26, 27, 28, 29]",300,146,-1,104,1136,9,0.0
undo,2,0,0,0,0,28,"[0, 28]",2,26,"[2, 3, 4, 5, 6, 7, 8, 9, 10, 11, 12, 13, 14, 15, 16, 17, 19, 20, 21, 22, 23, 24, 25, 26, 27, 29]",194.9190788,3294,3148,39,388,9,1.0
undo,2,0,0,0,0,5,"[0, 28, 5]",3,21,"[2, 3, 4, 7, 8, 9, 11, 12, 13, 14, 15, 16, 17, 19, 20, 21, 23, 24, 25, 26, 29]",151.2613189,4471,1177,27,210,9,1.0978295127671733
undo,2,0,0,0,0,4,"[0, 28, 5, 4]",4,16,"[3, 7, 8, 9, 11, 12, 13, 14, 15, 17, 19, 20, 21, 23, 24, 26]",126.1814465,5624,1153,17,114,9,1.1103727063761901
undo,2,0,0,0,0,26,"[0, 28, 5, 4, 26]",5,14,"[3, 7, 8, 9, 11, 12, 13, 14, 15, 17, 19, 20, 23, 24]",114.1398519,8756,3132,7,54,9,1.1504454351688815
undo,2,0,0,0,0,24,"[0, 28, 5, 4, 26, 24]",6,11,"[3, 7, 8, 9, 11, 12, 15, 17, 19, 20, 23]",97.02260914,9674,918,7,22,9,1.2166555899566422
undo,2,0,0,0,0,15,"[0, 28, 5, 4, 26, 24, 15]",7,7,"[3, 7, 8, 9, 11, 12, 17]",73.67737408,11588,1914,4,5,9,1.1972898774231708
undo,2,0,0,0,0,7,"[0, 28, 5, 4, 26, 24, 15, 7]",8,2,"[3, 8]",42.61292495,13919,2331,2,0,9,1.2554869594545575
undo,2,0,0,0,1,3,"[0, 28, 5, 4, 26, 24, 15, 7, 3]",9,0,[],18.52973579,15266,1347,1,0,9,1.2985327435367093
undo,2,0,0,1,1,3,"[0, 28, 5, 4, 26, 24, 15, 7, 3]",9,0,[],18.52973579,15896,630,1,0,9,1.2985327435367093
undo,3,44,0,0,0,0,[0],1,29,"[1, 2, 3, 4, 5, 6, 7, 8, 9, 10, 11, 12, 13, 14, 15, 16, 17, 18, 19, 20, 21, 22, 23, 24, 25, 26, 27, 28, 29]",300,162,-1,13,126,7,0.0
undo,3,44,0,0,0,11,"[0, 11]",2,18,"[4, 5, 6, 7, 8, 9, 12, 14, 16, 17, 19, 20, 22, 23, 24, 25, 26, 28]",152.7790776,6244,6082,5,34,7,1.0
undo,3,44,0,0,0,24,"[0, 11, 24]",3,13,"[4, 5, 7, 8, 9, 12, 14, 17, 20, 22, 23, 25, 28]",125.8532535,7168,924,5,23,7,1.1588941745226709
undo,3,44,0,0,0,9,"[0, 11, 24, 9]",4,7,"[4, 7, 8, 12, 14, 20, 23]",93.09657483,7987,819,2,8,7,1.3039383713641313
undo,3,44,0,0,0,4,"[0, 11, 24, 9, 4]",5,5,"[7, 12, 14, 20, 23]",73.39885923,8988,1001,2,3,7,1.2901330701441578
undo,3,44,0,0,0,7,"[0, 11, 24, 9, 4, 7]",6,1,[23],42.38273439,9750,762,1,0,7,1.2468141312360979
undo,3,44,0,0,1,23,"[0, 11, 24, 9, 4, 7, 23]",7,0,[],23.27776121,12775,3025,1,0,7,1.2635191782769477
undo,3,44,0,1,1,23,"[0, 11, 24, 9, 4, 7, 23]",7,0,[],23.27776121,13312,537,1,0,7,1.2635191782769477
undo,4,19,0,0,0,0,[0],1,29,"[1, 2, 3, 4, 5, 6, 7, 8, 9, 10, 11, 12, 13, 14, 15, 16, 17, 18, 19, 20, 21, 22, 23, 24, 25, 26, 27, 28, 29]",300,145,-1,12,149,8,0.0
undo,4,19,0,0,0,12,"[0, 12]",2,15,"[1, 2, 3, 5, 8, 9, 13, 16, 17, 18, 19, 21, 23, 25, 29]",180.3964883,6403,6258,9,58,7,1.0
undo,4,19,0,0,0,25,"[0, 12, 25]",3,11,"[1, 2, 3, 8, 13, 16, 17, 18, 19, 23, 29]",163.2792456,7084,681,3,32,7,1.002593021312995
undo,4,19,0,0,0,17,"[0, 12, 25, 17]",4,10,"[1, 2, 3, 8, 13, 16, 18, 19, 23, 29]",152.2338846,7977,893,3,14,7,1.0661324787663027
undo,4,19,0,0,0,23,"[0, 12, 25, 17, 23]",5,4,"[1, 3, 8, 19]",73.51920994,9128,1151,2,2,7,1.2595880132307544
undo,4,19,0,0,0,3,"[0, 12, 25, 17, 23, 3]",6,1,[8],51.58749774,9846,718,1,0,7,1.2326532183027346
undo,4,19,0,0,1,8,"[0, 12, 25, 17, 23, 3, 8]",7,0,[],28.26369016,10971,1125,1,0,7,1.2470086104677123
undo,4,19,0,1,1,8,"[0, 12, 25, 17, 23, 3, 8]",7,0,[],28.26369016,11480,509,1,0,7,1.2470086104677123
undo,5,15,0,0,0,0,[0],1,25,"[1, 2, 3, 4, 7, 8, 9, 10, 11, 12, 13, 14, 15, 16, 18, 20, 21, 22, 23, 24, 25, 26, 27, 28, 29]",300,211,-1,4,65,9,0.0
undo,5,15,0,0,0,7,"[0, 7]",2,23,"[1, 3, 4, 8, 9, 10, 11, 12, 13, 14, 15, 16, 18, 20, 21, 22, 23, 24, 25, 26, 27, 28, 29]",215.1884442,2767,2556,30,107,8,1.0
undo,5,15,0,0,0,16,"[0, 7, 16]",3,14,"[3, 4, 9, 10, 11, 12, 13, 14, 15, 18, 21, 22, 25, 27]",171.5306843,4473,1706,11,27,8,1.1253230463291073
undo,5,15,0,0,0,11,"[0, 7, 16, 11]",4,10,"[3, 4, 12, 13, 14, 15, 18, 21, 22, 27]",145.5114606,5493,1020,6,10,8,1.2441772230587118
undo,5,15,0,0,0,3,"[0, 7, 16, 11, 3]",5,8,"[4, 12, 13, 14, 15, 18, 21, 22]",134.1097064,6109,616,6,4,8,1.253153736954923
undo,5,15,0,0,0,22,"[0, 7, 16, 11, 3, 22]",6,5,"[4, 13, 14, 15, 18]",84.38043933,7951,1842,2,3,8,1.249784727890499
undo,5,15,0,0,0,13,"[0, 7, 16, 11, 3, 22, 13]",7,1,[15],56.22018365,9533,1582,1,0,8,1.2168322223118198
undo,5,15,0,0,1,15,"[0, 7, 16, 11, 3, 22, 13, 15]",8,0,[],40.95584612,10918,1385,1,0,8,1.3190981999760136
undo,5,15,0,1,1,15,"[0, 7, 16, 11, 3, 22, 13, 15]",8,0,[],40.95584612,12077,1159,1,0,8,1.3190981999760136
undo,6,24,0,0,0,0,[0],1,29,"[1, 2, 3, 4, 5, 6, 7, 8, 9, 10, 11, 12, 13, 14, 15, 16, 17, 18, 19, 20, 21, 22, 23, 24, 25, 26, 27, 28, 29]",300,167,-1,4,76,10,0.0
undo,6,24,0,0,0,16,"[0, 16]",2,28,"[1, 2, 3, 4, 5, 6, 7, 8, 9, 10, 11, 12, 13, 14, 15, 17, 18, 19, 20, 21, 22, 23, 24, 25, 26, 27, 28, 29]",210.3562607,4756,4589,13,110,9,1.0
undo,6,24,0,0,0,22,"[0, 16, 22]",3,27,"[1, 2, 3, 4, 5, 6, 7, 8, 9, 10, 11, 12, 13, 14, 15, 17, 18, 19, 20, 21, 23, 24, 25, 26, 27, 28, 29]",192.3285043,5416,660,7,54,9,1.0217425143037777
undo,6,24,0,0,0,8,"[0, 16, 22, 8]",4,21,"[1, 2, 3, 4, 6, 9, 10, 11, 13, 14, 15, 17, 20, 21, 23, 24, 25, 26, 27, 28, 29]",178.9120964,6949,1533,4,28,9,1.0996636936037951
undo,6,24,0,0,0,15,"[0, 16, 22, 8, 15]",5,16,"[3, 4, 6, 9, 10, 11, 13, 14, 17, 23, 24, 25, 26, 27, 28, 29]",148.025206,8824,1875,3,17,9,1.2704773343758617
undo,6,24,0,0,0,28,"[0, 16, 22, 8, 15, 28]",6,8,"[3, 4, 9, 11, 13, 23, 26, 27]",102.7482803,10836,2012,3,5,9,1.1981967578189556
undo,6,24,0,0,0,23,"[0, 16, 22, 8, 15, 28, 23]",7,3,"[9, 11, 27]",83.72198273,11930,1094,3,1,9,1.2275650852813986
undo,6,24,0,0,0,11,"[0, 16, 22, 8, 15, 28, 23, 11]",8,2,"[9, 27]",56.79615869,13009,1079,2,0,9,1.2107937989822568
undo,6,24,0,0,1,9,"[0, 16, 22, 8, 15, 28, 23, 11, 9]",9,0,[],24.5471277,15575,2566,1,0,9,1.2976612913524237
undo,6,24,0,1,1,9,"[0, 16, 22, 8, 15, 28, 23, 11, 9]",9,0,[],24.5471277,16316,741,1,0,9,1.2976612913524237
undo,7,29,0,0,0,0,[0],1,29,"[1, 2, 3, 4, 5, 6, 7, 8, 9, 10, 11, 12, 13, 14, 15, 16, 17, 18, 19, 20, 21, 22, 23, 24, 25, 26, 27, 28, 29]",300,147,-1,1,78,9,0.0
undo,7,29,0,0,0,6,"[0, 6]",2,28,"[1, 2, 3, 4, 5, 7, 8, 9, 10, 11, 12, 13, 14, 15, 16, 17, 18, 19, 20, 21, 22, 23, 24, 25, 26, 27, 28, 29]",228.4108947,1756,1609,1,25,9,1.0
undo,7,29,0,0,0,28,"[0, 6, 28]",3,24,"[1, 3, 4, 5, 7, 9, 10, 11, 12, 13, 14, 15, 16, 17, 18, 20, 21, 22, 23, 24, 25, 26, 27, 29]",187.1798384,3223,1467,1,22,9,1.162106788166845
undo,7,29,0,0,0,27,"[0, 6, 28, 27]",4,19,"[1, 3, 4, 5, 7, 9, 10, 11, 12, 13, 14, 15, 16, 21, 22, 23, 25, 26, 29]",166.6615539,4567,1344,1,21,9,1.2307173895439045
undo,7,29,0,0,0,22,"[0, 6, 28, 27, 22]",5,13,"[1, 3, 4, 5, 7, 9, 12, 13, 14, 15, 21, 26, 29]",133.4200136,5705,1138,1,19,9,1.4241767805149903
undo,7,29,0,0,0,12,"[0, 6, 28, 27, 22, 12]",6,8,"[4, 5, 7, 9, 13, 14, 21, 26]",95.4726817,6453,748,1,6,9,1.3248355326460857
undo,7,29,0,0,0,7,"[0, 6, 28, 27, 22, 12, 7]",7,4,"[4, 5, 9, 21]",81.87121119,7095,642,1,3,9,1.3264091962339806
undo,7,29,0,0,0,9,"[0, 6, 28, 27, 22, 12, 7, 9]",8,1,[4],52.80232748,9322,2227,1,0,9,1.309391257644539
undo,7,29,0,0,1,4,"[0, 6, 28, 27, 22, 12, 7, 9, 4]",9,0,[],11.76575843,10528,1206,1,0,9,1.6396807789841599
undo,7,29,0,1,1,4,"[0, 6, 28, 27, 22, 12, 7, 9, 4]",9,0,[],11.76575843,10913,385,1,0,9,1.6396807789841599
undo,8,17,0,0,0,0,[0],1,28,"[1, 2, 3, 4, 5, 6, 7, 8, 9, 10, 11, 12, 13, 14, 15, 16, 17, 18, 19, 20, 22, 23, 24, 25, 26, 27, 28, 29]",300,147,-1,2,73,8,0.0
undo,8,17,0,0,0,9,"[0, 9]",2,25,"[1, 2, 3, 5, 6, 7, 8, 10, 11, 12, 14, 15, 16, 17, 18, 19, 20, 22, 23, 24, 25, 26, 27, 28, 29]",210.5293344,2070,1923,1,34,8,1.0
undo,8,17,0,0,0,16,"[0, 9, 16]",3,21,"[1, 2, 3, 5, 7, 8, 10, 11, 12, 14, 17, 18, 19, 20, 22, 23, 25, 26, 27, 28, 29]",197.1876704,3689,1619,1,26,8,1.173103464220352
undo,8,17,0,0,0,2,"[0, 9, 16, 2]",4,18,"[1, 3, 5, 7, 8, 10, 11, 12, 14, 17, 18, 19, 23, 25, 26, 27, 28, 29]",181.0631549,4304,615,1,23,8,1.14825089247282
undo,8,17,0,0,0,17,"[0, 9, 16, 2, 17]",5,7,"[7, 8, 12, 14, 26, 27, 29]",142.7356191,5344,1040,4,5,7,1.4896040699768547
undo,8,17,0,0,0,8,"[0, 9, 16, 2, 17, 8]",6,3,"[7, 12, 27]",104.5256727,6329,985,3,0,7,1.4604726966175894
undo,8,17,0,0,1,7,"[0, 9, 16, 2, 17, 8, 7]",7,0,[],33.81499459,7905,1576,1,0,7,1.4474701869793896
undo,8,17,0,1,1,7,"[0, 9, 16, 2, 17, 8, 7]",7,0,[],33.81499459,8396,491,1,0,7,1.4474701869793896
undo,9,32,0,0,0,0,[0],1,29,"[1, 2, 3, 4, 5, 6, 7, 8, 9, 10, 11, 12, 13, 14, 15, 16, 17, 18, 19, 20, 21, 22, 23, 24, 25, 26, 27, 28, 29]",300,146,-1,17,359,10,0.0
undo,9,32,0,0,0,15,"[0, 15]",2,24,"[2, 3, 4, 5, 6, 7, 8, 9, 10, 11, 12, 13, 14, 16, 17, 19, 20, 22, 23, 24, 25, 26, 27, 28]",214.6185032,1835,1689,11,153,9,1.0
undo,9,32,0,0,0,28,"[0, 15, 28]",3,21,"[2, 3, 5, 7, 8, 9, 10, 11, 12, 13, 14, 16, 17, 19, 20, 22, 23, 24, 25, 26, 27]",203.2167489,2424,589,11,119,9,1.000160051986942
undo,9,32,0,0,0,12,"[0, 15, 28, 12]",4,19,"[2, 3, 5, 7, 8, 9, 10, 11, 13, 16, 17, 19, 20, 22, 23, 24, 25, 26, 27]",184.243083,3172,748,8,71,9,1.0281484763748023
undo,9,32,0,0,0,16,"[0, 15, 28, 12, 16]",5,17,"[2, 3, 5, 7, 8, 9, 10, 11, 13, 17, 19, 20, 22, 23, 24, 26, 27]",168.5906071,4090,918,6,38,9,1.1190771370096
undo,9,32,0,0,0,22,"[0, 15, 28, 12, 16, 22]",6,10,"[2, 3, 5, 8, 9, 10, 11, 17, 20, 27]",134.7527585,5910,1820,4,16,9,1.1702311155319893
undo,9,32,0,0,0,9,"[0, 15, 28, 12, 16, 22, 9]",7,6,"[2, 8, 10, 17, 20, 27]",112.5491552,7819,1909,2,4,9,1.2381424719932013
undo,9,32,0,0,0,2,"[0, 15, 28, 12, 16, 22, 9, 2]",8,1,[17],61.46099608,9886,2067,1,0,9,1.6446273109221003
undo,9,32,0,0,1,17,"[0, 15, 28, 12, 16, 22, 9, 2, 17]",9,0,[],21.64893761,11253,1367,1,0,9,2.46318728800517
undo,9,32,0,1,1,17,"[0, 15, 28, 12, 16, 22, 9, 2, 17]",9,0,[],21.64893761,11746,493,1,0,9,2.46318728800517
undo,10,42,0,0,0,0,[0],1,29,"[1, 2, 3, 4, 5, 6, 7, 8, 9, 10, 11, 12, 13, 14, 15, 16, 17, 18, 19, 20, 21, 22, 23, 24, 25, 26, 27, 28, 29]",300,180,-1,16,302,9,0.0
undo,10,42,0,0,0,5,"[0, 5]",2,28,"[1, 2, 3, 4, 6, 7, 8, 9, 10, 11, 12, 13, 14, 15, 16, 17, 18, 19, 20, 21, 22, 23, 24, 25, 26, 27, 28, 29]",191.2939744,1985,1805,1,22,9,1.0
undo,10,42,0,0,0,4,"[0, 5, 4]",3,23,"[1, 2, 3, 6, 7, 8, 9, 10, 11, 13, 15, 17, 18, 19, 20, 21, 22, 23, 24, 25, 26, 27, 29]",171.4445412,3519,1534,1,14,9,1.420957801478707
undo,10,42,0,0,0,22,"[0, 5, 4, 22]",4,20,"[1, 2, 3, 6, 7, 8, 9, 11, 15, 17, 18, 19, 20, 21, 23, 24, 25, 26, 27, 29]",160.2642013,4079,560,1,11,9,1.5771494659680896
undo,10,42,0,0,0,8,"[0, 5, 4, 22, 8]",5,14,"[1, 2, 3, 6, 7, 11, 15, 18, 19, 24, 25, 26, 27, 29]",138.1282577,4954,875,1,10,9,1.5055393955524201
undo,10,42,0,0,0,1,"[0, 5, 4, 22, 8, 1]",6,5,"[2, 7, 19, 26, 27]",89.03650682,5853,899,1,7,9,1.3547259083637835
undo,10,42,0,0,0,7,"[0, 5, 4, 22, 8, 1, 7]",7,4,"[2, 19, 26, 27]",59.03650682,6587,734,1,3,9,1.3909715672447451
undo,10,42,0,0,0,26,"[0, 5, 4, 22, 8, 1, 7, 26]",8,1,[27],32.46584631,7571,984,1,0,9,1.3511825943939393
undo,10,42,0,0,1,27,"[0, 5, 4, 22, 8, 1, 7, 26, 27]",9,0,[],14.43808994,8223,652,1,0,9,1.3391911688802078
undo,10,42,0,1,1,27,"[0, 5, 4, 22, 8, 1, 7, 26, 27]",9,0,[],14.43808994,8746,523,1,0,9,1.3391911688802078
undo,11,7,0,0,0,0,[0],1,29,"[1, 2, 3, 4, 5, 6, 7, 8, 9, 10, 11, 12, 13, 14, 15, 16, 17, 18, 19, 20, 21, 22, 23, 24, 25, 26, 27, 28, 29]",300,163,-1,3,79,9,0.0
undo,11,7,0,0,0,25,"[0, 25]",2,20,"[2, 3, 4, 5, 6, 7, 10, 13, 14, 15, 16, 18, 19, 20, 21, 22, 23, 24, 27, 28]",181.5939191,3939,3776,5,33,8,1.0
undo,11,7,0,0,0,4,"[0, 25, 4]",3,11,"[2, 6, 7, 13, 15, 16, 18, 19, 20, 21, 23]",156.8552853,4936,997,2,14,8,1.0193465608331511
undo,11,7,0,0,0,20,"[0, 25, 4, 20]",4,8,"[2, 6, 7, 13, 15, 16, 18, 19]",137.2084026,7105,2169,1,9,8,1.085904909082323
undo,11,7,0,0,0,18,"[0, 25, 4, 20, 18]",5,7,"[2, 6, 7, 13, 15, 16, 19]",124.4021541,7944,839,1,5,8,1.2264883846453758
undo,11,7,0,0,0,7,"[0, 25, 4, 20, 18, 7]",6,2,"[2, 19]",83.17109789,8935,991,1,1,8,1.185264473968278
undo,11,7,0,0,0,19,"[0, 25, 4, 20, 18, 7, 19]",7,1,[2],53.76021555,9920,985,1,0,8,1.3016904288278204
undo,11,7,0,0,1,2,"[0, 25, 4, 20, 18, 7, 19, 2]",8,0,[],23.61058868,11922,2002,1,0,8,1.3168868000947171
undo,11,7,0,1,1,2,"[0, 25, 4, 20, 18, 7, 19, 2]",8,0,[],23.61058868,12346,424,1,0,8,1.3168868000947171
undo,12,14,0,0,0,0,[0],1,29,"[1, 2, 3, 4, 5, 6, 7, 8, 9, 10, 11, 12, 13, 14, 15, 16, 17, 18, 19, 20, 21, 22, 23, 24, 25, 26, 27, 28, 29]",300,160,-1,8,157,10,0.0
undo,12,14,0,0,0,18,"[0, 18]",2,17,"[1, 2, 3, 4, 7, 8, 9, 13, 15, 17, 19, 20, 22, 23, 25, 26, 28]",179.8958785,1684,1524,18,136,9,1.0
undo,12,14,0,0,0,1,"[0, 18, 1]",3,11,"[2, 4, 7, 8, 15, 17, 19, 23, 25, 26, 28]",144.4275828,3610,1926,22,87,8,1.0061248915499574
undo,12,14,1,0,0,18,"[0, 18]",2,17,"[1, 2, 3, 4, 7, 8, 9, 13, 15, 17, 19, 20, 22, 23, 25, 26, 28]",179.8958785,7627,4017,18,136,9,1.0
undo,12,14,0,0,0,8,"[0, 18, 8]",3,13,"[1, 2, 4, 7, 13, 15, 17, 19, 20, 23, 25, 26, 28]",166.294408,10219,2592,18,99,9,1.0203858410107731
undo,12,14,0,0,0,1,"[0, 18, 8, 1]",4,10,"[2, 4, 7, 15, 17, 19, 23, 25, 26, 28]",142.6935606,11018,799,11,42,9,1.0173392374431458
undo,12,14,0,0,0,19,"[0, 18, 8, 1, 19]",5,9,"[2, 4, 7, 15, 17, 23, 25, 26, 28]",127.4620143,12540,1522,11,22,9,1.1668364376922102
undo,12,14,0,0,0,26,"[0, 18, 8, 1, 19, 26]",6,4,"[4, 7, 23, 25]",74.23608081,13701,1161,2,4,9,1.1379310743287543
undo,12,14,0,0,0,23,"[0, 18, 8, 1, 19, 26, 23]",7,3,"[4, 7, 25]",63.41942699,14804,1103,2,1,9,1.25860317400474
undo,12,14,0,0,0,25,"[0, 18, 8, 1, 19, 26, 23, 25]",8,1,[7],34.00854465,15655,851,1,0,9,1.6250439771619034
undo,12,14,0,0,1,7,"[0, 18, 8, 1, 19, 26, 23, 25, 7]",9,0,[],14.31082904,16800,1145,1,0,9,1.6358514342320594
undo,12,14,0,1,1,7,"[0, 18, 8, 1, 19, 26, 23, 25, 7]",9,0,[],14.31082904,17844,1044,1,0,9,1.6358514342320594
undo,13,13,0,0,0,0,[0],1,29,"[1, 2, 3, 4, 5, 6, 7, 8, 9, 10, 11, 12, 13, 14, 15, 16, 17, 18, 19, 20, 21, 22, 23, 24, 25, 26, 27, 28, 29]",300,153,-1,60,2676,11,0.0
undo,13,13,0,0,0,24,"[0, 24]",2,28,"[1, 2, 3, 4, 5, 6, 7, 8, 9, 10, 11, 12, 13, 14, 15, 16, 17, 18, 19, 20, 21, 22, 23, 25, 26, 27, 28, 29]",288.8196601,1958,1805,16,1444,11,1.0
undo,13,13,0,0,0,23,"[0, 24, 23]",3,27,"[1, 2, 3, 4, 5, 6, 7, 8, 9, 10, 11, 12, 13, 14, 15, 16, 17, 18, 19, 20, 21, 22, 25, 26, 27, 28, 29]",243.1140806,3921,1963,2,868,11,1.0065545717039834
undo,13,13,0,0,0,6,"[0, 24, 23, 6]",4,19,"[1, 2, 3, 4, 7, 9, 11, 12, 13, 15, 16, 17, 19, 20, 21, 26, 27, 28, 29]",179.6081753,6441,2520,140,528,10,1.1088135205756087
undo,13,13,0,0,0,11,"[0, 24, 23, 6, 11]",5,17,"[1, 2, 3, 4, 7, 9, 13, 15, 16, 17, 19, 20, 21, 26, 27, 28, 29]",160.5032022,8186,1745,71,88,10,1.0935629063595589
undo,13,13,0,0,0,26,"[0, 24, 23, 6, 11, 26]",6,12,"[1, 2, 3, 7, 9, 13, 16, 17, 19, 21, 28, 29]",125.3891024,9689,1503,22,17,10,1.8251123913279041
undo,13,13,0,0,0,7,"[0, 24, 23, 6, 11, 26, 7]",7,8,"[1, 2, 13, 16, 17, 19, 28, 29]",114.9487959,11069,1380,9,6,10,1.7580128093399197
undo,13,13,0,0,0,29,"[0, 24, 23, 6, 11, 26, 7, 29]",8,6,"[1, 2, 13, 17, 19, 28]",99.68445841,12755,1686,4,4,10,1.7996850919254956
undo,13,13,0,0,0,2,"[0, 24, 23, 6, 11, 26, 7, 29, 2]",9,3,"[1, 19, 28]",87.9797585,13523,768,3,0,10,1.9346652059879705
undo,13,13,0,0,1,1,"[0, 24, 23, 6, 11, 26, 7, 29, 2, 1]",10,0,[],27.97142574,16894,3371,1,0,10,1.7470423430468927
undo,13,13,0,1,1,1,"[0, 24, 23, 6, 11, 26, 7, 29, 2, 1]",10,0,[],27.97142574,17496,602,1,0,10,1.7470423430468927
undo,14,34,0,0,0,0,[0],1,25,"[1, 3, 4, 5, 6, 7, 8, 9, 10, 11, 12, 13, 15, 18, 19, 20, 21, 22, 23, 24, 25, 26, 27, 28, 29]",300,147,-1,12,367,10,0.0
undo,14,34,0,0,0,13,"[0, 13]",2,24,"[1, 3, 4, 5, 6, 7, 8, 9, 10, 11, 12, 15, 18, 19, 20, 21, 22, 23, 24, 25, 26, 27, 28, 29]",279.9750156,1957,1810,12,331,10,1.0
undo,14,34,0,0,0,1,"[0, 13, 1]",3,16,"[3, 5, 7, 8, 9, 10, 11, 12, 19, 21, 22, 23, 24, 25, 27, 29]",211.8574701,4024,2067,3,92,10,1.0010381285747127
undo,14,34,0,0,0,8,"[0, 13, 1, 8]",4,14,"[3, 5, 7, 9, 10, 11, 12, 19, 22, 23, 24, 25, 27, 29]",201.0871405,4685,661,2,54,10,1.1636807
undo,14,34,0,0,0,25,"[0, 13, 1, 8, 25]",5,12,"[3, 5, 7, 9, 10, 11, 12, 22, 23, 24, 27, 29]",183.999133,6603,1918,2,28,10,1.1396208815936457
undo,14,34,0,0,0,24,"[0, 13, 1, 8, 25, 24]",6,11,"[3, 5, 7, 9, 10, 11, 12, 22, 23, 27, 29]",166.5062774,7820,1217,2,23,10,1.374180768736554
undo,14,34,0,0,0,12,"[0, 13, 1, 8, 25, 24, 12]",7,7,"[7, 9, 10, 11, 22, 23, 27]",115.4670767,9003,1183,1,8,10,1.4994254760835948
undo,14,34,0,0,0,7,"[0, 13, 1, 8, 25, 24, 12, 7]",8,5,"[9, 11, 22, 23, 27]",100.4337804,10721,1718,1,4,10,1.758992610425009
undo,14,34,0,0,0,23,"[0, 13, 1, 8, 25, 24, 12, 7, 23]",9,1,[27],72.27352467,11735,1014,1,0,10,2.399781305190153
undo,14,34,0,0,1,27,"[0, 13, 1, 8, 25, 24, 12, 7, 23, 27]",10,0,[],18.60789321,12976,1241,1,0,10,4.766619878750327
undo,14,34,0,1,1,27,"[0, 13, 1, 8, 25, 24, 12, 7, 23, 27]",10,0,[],18.60789321,13613,637,1,0,10,4.766619878750327
undo,15,22,0,0,0,0,[0],1,29,"[1, 2, 3, 4, 5, 6, 7, 8, 9, 10, 11, 12, 13, 14, 15, 16, 17, 18, 19, 20, 21, 22, 23, 24, 25, 26, 27, 28, 29]",300,142,-1,31,704,9,0.0
undo,15,22,0,0,0,29,"[0, 29]",2,22,"[1, 3, 5, 6, 7, 8, 9, 11, 13, 14, 15, 16, 17, 19, 20, 21, 22, 23, 24, 25, 27, 28]",222.9935068,2073,1931,11,235,9,1.0
undo,15,22,0,0,0,19,"[0, 29, 19]",3,18,"[1, 3, 6, 7, 8, 9, 13, 14, 15, 16, 17, 20, 21, 22, 23, 24, 25, 28]",207.9602104,2783,710,11,172,9,1.1559285443414686
undo,15,22,0,0,0,9,"[0, 29, 19, 9]",4,16,"[1, 3, 6, 7, 8, 13, 14, 15, 16, 17, 20, 21, 22, 24, 25, 28]",187.5641323,3399,616,7,84,9,1.2555028175473422
undo,15,22,0,0,0,14,"[0, 29, 19, 9, 14]",5,11,"[1, 3, 6, 7, 13, 16, 17, 20, 21, 24, 28]",144.5176458,4526,1127,4,28,9,1.200251311198461
undo,15,22,0,0,0,7,"[0, 29, 19, 9, 14, 7]",6,10,"[1, 3, 6, 13, 16, 17, 20, 21, 24, 28]",131.479241,5166,640,4,18,9,1.3399585036197592
undo,15,22,0,0,0,17,"[0, 29, 19, 9, 14, 7, 17]",7,5,"[1, 3, 20, 21, 24]",89.86193693,6218,1052,3,3,9,1.3297480627305363
undo,15,22,0,0,0,21,"[0, 29, 19, 9, 14, 7, 17, 21]",8,2,"[3, 24]",38.51020862,7400,1182,2,0,9,1.621067475944888
undo,15,22,0,0,1,3,"[0, 29, 19, 9, 14, 7, 17, 21, 3]",9,0,[],13.49021662,8183,783,1,0,9,1.6812263795812836
undo,15,22,0,1,1,3,"[0, 29, 19, 9, 14, 7, 17, 21, 3]",9,0,[],13.49021662,11426,3243,1,0,9,1.6812263795812836
undo,16,43,0,0,0,0,[0],1,23,"[1, 2, 3, 4, 5, 6, 7, 9, 10, 11, 12, 14, 15, 16, 17, 19, 20, 21, 22, 23, 25, 27, 29]",300,146,-1,16,556,12,0.0
undo,16,43,0,0,0,29,"[0, 29]",2,22,"[1, 2, 3, 4, 5, 6, 7, 9, 10, 11, 12, 14, 15, 16, 17, 19, 20, 21, 22, 23, 25, 27]",277.909278,2125,1979,16,520,12,1.0
undo,16,43,0,0,0,20,"[0, 29, 20]",3,20,"[1, 2, 3, 4, 6, 7, 9, 10, 11, 12, 14, 15, 16, 17, 19, 21, 22, 23, 25, 27]",254.4785289,2785,660,15,422,12,1.082311746871282
undo,16,43,0,0,0,16,"[0, 29, 20, 16]",4,19,"[1, 2, 3, 4, 6, 7, 9, 10, 11, 12, 14, 15, 17, 19, 21, 22, 23, 25, 27]",231.8511119,3471,686,15,389,12,1.215201926898219
undo,16,43,0,0,0,11,"[0, 29, 20, 16, 11]",5,17,"[1, 2, 3, 4, 6, 7, 9, 10, 12, 14, 15, 17, 19, 21, 22, 23, 25]",196.7227758,4512,1041,12,188,12,1.1349145516483516
undo,16,43,0,0,0,6,"[0, 29, 20, 16, 11, 6]",6,15,"[1, 2, 3, 4, 7, 10, 12, 14, 15, 17, 19, 21, 22, 23, 25]",176.1072477,5288,776,10,100,12,1.123330873754209
undo,16,43,0,0,0,1,"[0, 29, 20, 16, 11, 6, 1]",7,10,"[2, 3, 4, 7, 12, 14, 15, 19, 22, 25]",127.8371741,6305,1017,7,36,12,1.1959789832191803
undo,16,43,0,0,0,19,"[0, 29, 20, 16, 11, 6, 1, 19]",8,8,"[3, 4, 7, 12, 14, 15, 22, 25]",99.65916852,7556,1251,4,16,12,1.442084860173939
undo,16,43,0,0,0,22,"[0, 29, 20, 16, 11, 6, 1, 19, 22]",9,6,"[3, 7, 12, 14, 15, 25]",79.04364039,8229,673,3,7,12,1.852594491960324
undo,16,43,0,0,0,15,"[0, 29, 20, 16, 11, 6, 1, 19, 22, 15]",10,3,"[3, 12, 25]",36.93663385,9169,940,1,2,12,3.181700864872386
undo,16,43,0,0,0,12,"[0, 29, 20, 16, 11, 6, 1, 19, 22, 15, 12]",11,1,[3],17.62342593,10441,1272,1,0,12,2.8563716598142643
undo,16,43,0,0,1,3,"[0, 29, 20, 16, 11, 6, 1, 19, 22, 15, 12, 3]",12,0,[],4.623425933,11222,781,1,0,12,2.6514910057152816
undo,16,43,0,1,1,3,"[0, 29, 20, 16, 11, 6, 1, 19, 22, 15, 12, 3]",12,0,[],4.623425933,12080,858,1,0,12,2.6514910057152816
undo,17,37,0,0,0,0,[0],1,29,"[1, 2, 3, 4, 5, 6, 7, 8, 9, 10, 11, 12, 13, 14, 15, 16, 17, 18, 19, 20, 21, 22, 23, 24, 25, 26, 27, 28, 29]",300,163,-1,6,168,10,0.0
undo,17,37,0,0,0,18,"[0, 18]",2,19,"[1, 2, 4, 6, 7, 9, 10, 12, 14, 15, 17, 19, 20, 21, 22, 23, 26, 28, 29]",202.4090168,1953,1790,6,89,10,1.0
undo,17,37,0,0,0,7,"[0, 18, 7]",3,12,"[1, 2, 4, 9, 15, 17, 19, 20, 21, 22, 26, 29]",175.2428614,3223,1270,6,53,10,1.0413073512834488
undo,17,37,0,0,0,22,"[0, 18, 7, 22]",4,8,"[1, 2, 4, 15, 19, 20, 21, 26]",125.2428614,4206,983,6,29,10,1.0730792320325544
undo,17,37,0,0,0,4,"[0, 18, 7, 22, 4]",5,7,"[1, 2, 15, 19, 20, 21, 26]",100.2428614,5084,878,4,16,10,1.2290245562206235
undo,17,37,0,0,0,2,"[0, 18, 7, 22, 4, 2]",6,5,"[1, 15, 19, 20, 21]",88.84110714,6601,1517,4,7,10,1.3968113858365216
undo,17,37,0,0,0,1,"[0, 18, 7, 22, 4, 2, 1]",7,4,"[15, 19, 20, 21]",71.63645661,8201,1600,4,3,10,1.4424239294761476
undo,17,37,0,0,0,15,"[0, 18, 7, 22, 4, 2, 1, 15]",8,2,"[20, 21]",31.67397421,9038,837,2,0,10,1.612564167414217
undo,17,37,0,0,0,20,"[0, 18, 7, 22, 4, 2, 1, 15, 20]",9,1,[21],14.67397421,10222,1184,1,0,10,1.9034852470814607
undo,17,37,0,0,1,21,"[0, 18, 7, 22, 4, 2, 1, 15, 20, 21]",10,0,[],0.251769103,11019,797,1,0,10,1.9314492588202221
undo,17,37,0,1,1,21,"[0, 18, 7, 22, 4, 2, 1, 15, 20, 21]",10,0,[],0.251769103,11729,710,1,0,10,1.9314492588202221
undo,18,39,0,0,0,0,[0],1,28,"[1, 2, 3, 4, 5, 6, 7, 9, 10, 11, 12, 13, 14, 15, 16, 17, 18, 19, 20, 21, 22, 23, 24, 25, 26, 27, 28, 29]",300,128,-1,1,30,10,0.0
undo,18,39,0,0,0,29,"[0, 29]",2,26,"[1, 2, 3, 4, 5, 6, 7, 9, 10, 12, 13, 14, 15, 16, 17, 18, 19, 20, 21, 22, 23, 24, 25, 26, 27, 28]",243.0614366,1937,1809,8,104,9,1.0
undo,18,39,0,0,0,12,"[0, 29, 12]",3,18,"[1, 2, 4, 5, 7, 9, 10, 13, 14, 15, 16, 18, 19, 22, 23, 24, 26, 28]",182.5221931,2852,915,5,54,9,1.0026200331524904
undo,18,39,0,0,0,1,"[0, 29, 12, 1]",4,11,"[2, 7, 9, 10, 13, 15, 16, 18, 22, 24, 26]",126.3795178,4534,1682,9,9,7,1.0185340949098056
undo,18,39,0,0,0,24,"[0, 29, 12, 1, 24]",5,2,"[2, 9]",77.6147764,6032,1498,2,0,7,1.0470202297924844
undo,18,39,0,0,0,9,"[0, 29, 12, 1, 24, 9]",6,1,[2],59.01370116,6707,675,1,0,7,1.063721341619913
undo,18,39,0,0,1,2,"[0, 29, 12, 1, 24, 9, 2]",7,0,[],44.87156553,7785,1078,1,0,7,1.160814490805589
undo,18,39,0,1,1,2,"[0, 29, 12, 1, 24, 9, 2]",7,0,[],44.87156553,9612,1827,1,0,7,1.160814490805589
undo,19,3,0,0,0,0,[0],1,29,"[1, 2, 3, 4, 5, 6, 7, 8, 9, 10, 11, 12, 13, 14, 15, 16, 17, 18, 19, 20, 21, 22, 23, 24, 25, 26, 27, 28, 29]",300,162,-1,34,427,10,0.0
undo,19,3,0,0,0,24,"[0, 24]",2,27,"[1, 2, 3, 4, 5, 6, 7, 8, 9, 10, 11, 12, 13, 14, 15, 16, 17, 18, 19, 20, 21, 22, 25, 26, 27, 28, 29]",241.1442441,1993,1831,1,40,10,1.0
undo,19,3,0,0,0,17,"[0, 24, 17]",3,13,"[3, 4, 7, 8, 10, 14, 15, 16, 19, 20, 21, 22, 27]",171.7900806,3920,1927,4,33,9,1.2532313834613698
undo,19,3,0,0,0,20,"[0, 24, 17, 20]",4,10,"[3, 4, 7, 8, 10, 14, 15, 16, 19, 21]",159.1409699,4768,848,4,21,9,1.2441552028909786
undo,19,3,0,0,0,3,"[0, 24, 17, 20, 3]",5,8,"[4, 7, 8, 10, 14, 16, 19, 21]",138.7448919,5473,705,4,12,9,1.2890100688984463
undo,19,3,0,0,0,19,"[0, 24, 17, 20, 3, 19]",6,5,"[4, 8, 10, 14, 21]",101.4085825,6860,1387,2,5,9,1.3456482099334586
undo,19,3,0,0,0,21,"[0, 24, 17, 20, 3, 19, 21]",7,3,"[4, 10, 14]",89.20202687,7484,624,2,2,9,1.3708715753541716
undo,19,3,0,0,0,14,"[0, 24, 17, 20, 3, 19, 21, 14]",8,2,"[4, 10]",62.29477877,10172,2688,2,0,9,1.8468983830159784
undo,19,3,0,0,1,10,"[0, 24, 17, 20, 3, 19, 21, 14, 10]",9,0,[],16.84150606,11323,1151,1,0,9,1.7983120465283395
undo,19,3,0,1,1,10,"[0, 24, 17, 20, 3, 19, 21, 14, 10]",9,0,[],16.84150606,11829,506,1,0,9,1.7983120465283395
undo,20,10,0,0,0,0,[0],1,29,"[1, 2, 3, 4, 5, 6, 7, 8, 9, 10, 11, 12, 13, 14, 15, 16, 17, 18, 19, 20, 21, 22, 23, 24, 25, 26, 27, 28, 29]",300,177,-1,1,100,9,0.0
undo,20,10,0,0,0,13,"[0, 13]",2,25,"[1, 2, 3, 4, 6, 7, 8, 9, 10, 11, 12, 14, 17, 18, 19, 20, 21, 22, 23, 24, 25, 26, 27, 28, 29]",249.4628849,3084,2907,1,79,9,1.0
undo,20,10,0,0,0,11,"[0, 13, 11]",3,20,"[1, 2, 3, 6, 7, 8, 9, 10, 12, 14, 18, 19, 20, 21, 22, 24, 26, 27, 28, 29]",206.4512586,5025,1941,1,54,9,1.0313137484914219
undo,20,10,0,0,0,20,"[0, 13, 11, 20]",4,15,"[1, 2, 3, 6, 8, 9, 10, 12, 14, 18, 19, 21, 24, 26, 27]",168.3723931,6223,1198,15,34,8,1.0874972644654597
undo,20,10,0,0,0,27,"[0, 13, 11, 20, 27]",5,11,"[1, 2, 6, 9, 10, 12, 14, 18, 19, 21, 26]",123.1175591,7335,1112,1,10,8,1.1358705803065132
undo,20,10,0,0,0,18,"[0, 13, 11, 20, 27, 18]",6,1,[10],48.27104946,9384,2049,1,0,7,2.466035395134198
undo,20,10,0,0,1,10,"[0, 13, 11, 20, 27, 18, 10]",7,0,[],34.81742541,10143,759,1,0,7,2.987889692117353
undo,20,10,0,1,1,10,"[0, 13, 11, 20, 27, 18, 10]",7,0,[],34.81742541,10893,750,1,0,7,2.987889692117353
undo,21,31,0,0,0,0,[0],1,27,"[1, 3, 4, 5, 6, 7, 8, 10, 11, 12, 13, 14, 15, 16, 17, 18, 19, 20, 21, 22, 23, 24, 25, 26, 27, 28, 29]",300,163,-1,2,87,10,0.0
undo,21,31,0,0,0,8,"[0, 8]",2,26,"[1, 3, 4, 5, 6, 7, 10, 11, 12, 13, 14, 15, 16, 17, 18, 19, 20, 21, 22, 23, 24, 25, 26, 27, 28, 29]",265.2149457,1723,1560,14,226,9,1.0
undo,21,31,0,0,0,27,"[0, 8, 27]",3,25,"[1, 3, 4, 5, 6, 7, 10, 11, 12, 13, 14, 15, 16, 17, 18, 19, 20, 21, 22, 23, 24, 25, 26, 28, 29]",254.1695847,2336,613,9,146,9,1.1317014404638044
undo,21,31,0,0,0,18,"[0, 8, 27, 18]",4,19,"[1, 3, 5, 6, 7, 10, 11, 12, 13, 14, 16, 17, 19, 20, 21, 22, 25, 28, 29]",212.4442926,3156,820,5,65,9,1.3599476590292046
undo,21,31,0,0,0,17,"[0, 8, 27, 18, 17]",5,14,"[1, 5, 6, 7, 11, 12, 13, 14, 16, 19, 20, 22, 25, 28]",183.2381289,3945,789,4,35,9,1.2898911590492574
undo,21,31,0,0,0,11,"[0, 8, 27, 18, 17, 11]",6,11,"[1, 5, 7, 12, 14, 16, 19, 20, 22, 25, 28]",142.1285193,5734,1789,3,7,9,2.57871823425897
undo,21,31,0,0,0,5,"[0, 8, 27, 18, 17, 11, 5]",7,3,"[16, 25, 28]",98.44785998,6692,958,2,1,9,2.2974966362287774
undo,21,31,0,0,0,28,"[0, 8, 27, 18, 17, 11, 5, 28]",8,1,[16],78.22411156,7569,877,1,0,9,2.0661851667797895
undo,21,31,0,0,1,16,"[0, 8, 27, 18, 17, 11, 5, 28, 16]",9,0,[],44.60863894,8652,1083,1,0,9,1.9122527601251431
undo,21,31,0,1,1,16,"[0, 8, 27, 18, 17, 11, 5, 28, 16]",9,0,[],44.60863894,12379,3727,1,0,9,1.9122527601251431
undo,22,20,0,0,0,0,[0],1,21,"[1, 2, 3, 4, 5, 6, 7, 8, 9, 12, 17, 18, 20, 21, 22, 23, 25, 26, 27, 28, 29]",300,146,-1,1,9,9,0.0
undo,22,20,0,0,0,12,"[0, 12]",2,20,"[1, 2, 3, 4, 5, 6, 7, 8, 9, 17, 18, 20, 21, 22, 23, 25, 26, 27, 28, 29]",271.5570747,2810,2664,1,8,9,1.0
undo,22,20,0,0,0,1,"[0, 12, 1]",3,12,"[3, 4, 5, 6, 8, 9, 20, 21, 23, 27, 28, 29]",189.5692707,4735,1925,1,6,9,1.0757997779162911
undo,22,20,0,0,0,5,"[0, 12, 1, 5]",4,10,"[4, 6, 8, 9, 20, 21, 23, 27, 28, 29]",152.8950291,5653,918,1,5,9,1.1708231454516806
undo,22,20,0,0,0,21,"[0, 12, 1, 5, 21]",5,8,"[4, 6, 8, 9, 20, 23, 27, 28]",107.8950291,6476,823,1,4,9,1.126197336199212
undo,22,20,0,0,0,8,"[0, 12, 1, 5, 21, 8]",6,5,"[6, 9, 23, 27, 28]",90.43077988,7143,667,1,3,9,1.140007470699913
undo,22,20,0,0,0,23,"[0, 12, 1, 5, 21, 8, 23]",7,2,"[6, 9]",45.74297394,8037,894,1,1,9,1.1162257896627588
undo,22,20,0,0,0,9,"[0, 12, 1, 5, 21, 8, 23, 9]",8,1,[6],26.53360123,8670,633,1,0,9,1.1086880559449597
undo,22,20,0,0,1,6,"[0, 12, 1, 5, 21, 8, 23, 9, 6]",9,0,[],3.511872362,9355,685,1,0,9,1.1186240265999328
undo,22,20,0,1,1,6,"[0, 12, 1, 5, 21, 8, 23, 9, 6]",9,0,[],3.511872362,10013,658,1,0,9,1.1186240265999328
basic,23,12,0,0,0,0,[0],1,29,"[1, 2, 3, 4, 5, 6, 7, 8, 9, 10, 11, 12, 13, 14, 15, 16, 17, 18, 19, 20, 21, 22, 23, 24, 25, 26, 27, 28, 29]",300,231,-1,2,32,9,0.0
basic,23,12,0,0,0,16,"[0, 16]",2,16,"[2, 4, 5, 6, 7, 12, 13, 14, 18, 19, 22, 23, 24, 25, 27, 29]",209.2916762,3122,2891,3,38,8,1.0
basic,23,12,0,0,0,4,"[0, 16, 4]",3,11,"[2, 5, 6, 7, 12, 14, 19, 22, 24, 25, 27]",175.0864135,3889,767,1,16,8,1.00004499617691
basic,23,12,0,0,0,12,"[0, 16, 4, 12]",4,6,"[14, 19, 22, 24, 25, 27]",132.8963673,4880,991,1,8,8,1.0113942412768022
basic,23,12,0,0,0,27,"[0, 16, 4, 12, 27]",5,4,"[14, 19, 22, 24]",108.5447759,5988,1108,1,3,8,1.1193150037844588
basic,23,12,0,0,0,14,"[0, 16, 4, 12, 27, 14]",6,2,"[19, 24]",79.89167838,6746,758,1,1,8,1.1821826897854277
basic,23,12,0,0,0,24,"[0, 16, 4, 12, 27, 14, 24]",7,1,[19],62.68702784,7406,660,1,0,8,1.3297400833764192
basic,23,12,0,0,1,19,"[0, 16, 4, 12, 27, 14, 24, 19]",8,0,[],3.865263163,8442,1036,1,0,8,2.27325645157102
basic,23,12,0,1,1,19,"[0, 16, 4, 12, 27, 14, 24, 19]",8,0,[],3.865263163,8915,473,1,0,8,2.27325645157102
basic,24,39,0,0,0,0,[0],1,28,"[1, 2, 3, 4, 5, 6, 7, 9, 10, 11, 12, 13, 14, 15, 16, 17, 18, 19, 20, 21, 22, 23, 24, 25, 26, 27, 28, 29]",300,239,-1,1,30,10,0.0
basic,24,39,0,0,0,29,"[0, 29]",2,26,"[1, 2, 3, 4, 5, 6, 7, 9, 10, 12, 13, 14, 15, 16, 17, 18, 19, 20, 21, 22, 23, 24, 25, 26, 27, 28]",243.0614366,1849,1610,8,104,9,1.0
basic,24,39,0,0,0,12,"[0, 29, 12]",3,18,"[1, 2, 4, 5, 7, 9, 10, 13, 14, 15, 16, 18, 19, 22, 23, 24, 26, 28]",182.5221931,2818,969,5,54,9,1.0026200331524904
basic,24,39,0,0,0,10,"[0, 29, 12, 10]",4,16,"[1, 2, 4, 5, 7, 9, 13, 14, 15, 16, 18, 19, 22, 23, 24, 26]",147.0116313,3764,946,5,34,9,1.2874817019928908
basic,24,39,0,0,0,7,"[0, 29, 12, 10, 7]",5,10,"[1, 2, 5, 13, 16, 18, 19, 22, 24, 26]",113.5900814,6778,3014,4,12,9,1.2250826263866774
basic,24,39,0,0,0,26,"[0, 29, 12, 10, 7, 26]",6,5,"[1, 16, 18, 19, 22]",94.90853971,8618,1840,3,4,9,1.2697275353190085
basic,24,39,0,0,0,22,"[0, 29, 12, 10, 7, 26, 22]",7,2,"[16, 19]",77.18849457,9300,682,2,0,9,1.438961743955176
basic,24,39,0,0,0,16,"[0, 29, 12, 10, 7, 26, 22, 16]",8,1,[19],42.18849457,10394,1094,1,0,9,1.3580882130477205
basic,24,39,0,0,1,19,"[0, 29, 12, 10, 7, 26, 22, 16, 19]",9,0,[],24.72424537,10998,604,1,0,9,1.3646589157842668
basic,24,39,0,1,1,19,"[0, 29, 12, 10, 7, 26, 22, 16, 19]",9,0,[],24.72424537,11839,841,1,0,9,1.3646589157842668
basic,25,31,0,0,0,0,[0],1,27,"[1, 3, 4, 5, 6, 7, 8, 10, 11, 12, 13, 14, 15, 16, 17, 18, 19, 20, 21, 22, 23, 24, 25, 26, 27, 28, 29]",300,143,-1,2,87,10,0.0
basic,25,31,0,0,0,14,"[0, 14]",2,25,"[1, 3, 5, 6, 7, 8, 10, 11, 12, 13, 15, 16, 17, 18, 19, 20, 21, 22, 23, 24, 25, 26, 27, 28, 29]",263.861378,2635,2492,2,59,10,1.0
basic,25,31,0,0,0,27,"[0, 14, 27]",3,22,"[1, 3, 5, 6, 7, 8, 10, 11, 12, 13, 15, 16, 17, 18, 19, 20, 21, 22, 24, 25, 28, 29]",235.6833724,4206,1571,1,39,10,1.5881859159302467
basic,25,31,0,0,0,8,"[0, 14, 27, 8]",4,20,"[1, 3, 5, 6, 7, 10, 11, 12, 13, 16, 17, 18, 19, 20, 21, 22, 24, 25, 28, 29]",224.6380114,4766,560,1,36,10,2.1665048452331277
basic,25,31,0,0,0,18,"[0, 14, 27, 8, 18]",5,15,"[1, 5, 6, 7, 11, 12, 13, 16, 17, 19, 20, 22, 25, 28, 29]",188.7911147,5805,1039,1,26,10,1.7273375741920205
basic,25,31,0,0,0,11,"[0, 14, 27, 8, 18, 11]",6,11,"[1, 5, 7, 12, 16, 17, 19, 20, 22, 25, 28]",153.9055876,6815,1010,13,17,9,2.386348208737804
basic,25,31,0,0,0,5,"[0, 14, 27, 8, 18, 11, 5]",7,5,"[16, 17, 20, 25, 28]",110.2249283,7721,906,3,3,9,2.163249612867222
basic,25,31,0,0,0,28,"[0, 14, 27, 8, 18, 11, 5, 28]",8,2,"[16, 17]",90.00117988,9099,1378,2,0,9,1.9564635733184719
basic,25,31,0,0,1,16,"[0, 14, 27, 8, 18, 11, 5, 28, 16]",9,0,[],56.38570725,9855,756,1,0,9,1.824071502589619
basic,25,31,0,1,1,16,"[0, 14, 27, 8, 18, 11, 5, 28, 16]",9,0,[],56.38570725,13959,4104,1,0,9,1.824071502589619
basic,26,0,0,0,0,0,[0],1,27,"[2, 3, 4, 5, 6, 7, 8, 9, 10, 11, 12, 13, 14, 15, 16, 17, 19, 20, 21, 22, 23, 24, 25, 26, 27, 28, 29]",300,162,-1,104,1136,9,0.0
basic,26,0,0,0,0,28,"[0, 28]",2,26,"[2, 3, 4, 5, 6, 7, 8, 9, 10, 11, 12, 13, 14, 15, 16, 17, 19, 20, 21, 22, 23, 24, 25, 26, 27, 29]",194.9190788,1907,1745,39,388,9,1.0
basic,26,0,0,0,0,26,"[0, 28, 26]",3,21,"[2, 3, 4, 5, 7, 8, 9, 10, 11, 12, 13, 14, 15, 17, 19, 20, 21, 22, 23, 24, 25]",136.9363227,2804,897,5,55,9,1.0093388233539051
basic,26,0,0,0,0,4,"[0, 28, 26, 4]",4,16,"[3, 5, 7, 8, 9, 11, 12, 13, 14, 15, 17, 19, 20, 21, 23, 24]",124.8947282,3440,636,5,33,9,1.1185924093500432
basic,26,0,0,0,0,24,"[0, 28, 26, 4, 24]",5,12,"[3, 5, 7, 8, 9, 11, 12, 15, 17, 19, 20, 23]",113.4929739,4178,738,5,21,9,1.1179314844344648
basic,26,0,0,0,0,15,"[0, 28, 26, 4, 24, 15]",6,9,"[3, 5, 7, 8, 9, 11, 12, 17, 19]",90.14773885,5024,846,5,8,9,1.1101585049568639
basic,26,0,0,0,0,7,"[0, 28, 26, 4, 24, 15, 7]",7,4,"[3, 8, 17, 19]",59.08328972,5936,912,4,2,9,1.1751475399938958
basic,26,0,0,0,0,3,"[0, 28, 26, 4, 24, 15, 7, 3]",8,2,"[8, 19]",35.00010056,6911,975,2,0,9,1.222548489882541
basic,26,0,0,0,1,19,"[0, 28, 26, 4, 24, 15, 7, 3, 19]",9,0,[],2.751069569,10301,3390,1,0,9,1.197407115174519
basic,26,0,0,1,1,19,"[0, 28, 26, 4, 24, 15, 7, 3, 19]",9,0,[],2.751069569,11028,727,1,0,9,1.197407115174519
basic,27,43,0,0,0,0,[0],1,23,"[1, 2, 3, 4, 5, 6, 7, 9, 10, 11, 12, 14, 15, 16, 17, 19, 20, 21, 22, 23, 25, 27, 29]",300,145,-1,16,556,12,0.0
basic,27,43,0,0,0,29,"[0, 29]",2,22,"[1, 2, 3, 4, 5, 6, 7, 9, 10, 11, 12, 14, 15, 16, 17, 19, 20, 21, 22, 23, 25, 27]",277.909278,4368,4223,16,520,12,1.0
basic,27,43,0,0,0,20,"[0, 29, 20]",3,20,"[1, 2, 3, 4, 6, 7, 9, 10, 11, 12, 14, 15, 16, 17, 19, 21, 22, 23, 25, 27]",254.4785289,6153,1785,15,422,12,1.082311746871282
basic,27,43,0,0,0,16,"[0, 29, 20, 16]",4,19,"[1, 2, 3, 4, 6, 7, 9, 10, 11, 12, 14, 15, 17, 19, 21, 22, 23, 25, 27]",231.8511119,7852,1699,15,389,12,1.215201926898219
basic,27,43,0,0,0,25,"[0, 29, 20, 16, 25]",5,14,"[1, 2, 3, 4, 6, 7, 9, 11, 12, 14, 15, 19, 22, 23]",175.7708124,8817,965,53,282,11,1.566384303308987
basic,27,43,0,0,0,15,"[0, 29, 20, 16, 25, 15]",6,13,"[1, 2, 3, 4, 6, 7, 9, 11, 12, 14, 19, 22, 23]",153.0992443,9624,807,27,108,11,1.776736412604812
basic,27,43,0,0,0,12,"[0, 29, 20, 16, 25, 15, 12]",7,10,"[1, 3, 6, 7, 9, 11, 14, 19, 22, 23]",133.7860364,10775,1151,21,41,11,1.6813323012225032
basic,27,43,0,0,0,3,"[0, 29, 20, 16, 25, 15, 12, 3]",8,9,"[1, 6, 7, 9, 11, 14, 19, 22, 23]",120.7860364,11766,991,20,12,11,1.608740348096123
basic,27,43,0,0,0,22,"[0, 29, 20, 16, 25, 15, 12, 3, 22]",9,6,"[1, 6, 7, 11, 14, 19]",86.07292644,12973,1207,9,2,11,1.793657891802588
basic,27,43,0,0,0,19,"[0, 29, 20, 16, 25, 15, 12, 3, 22, 19]",10,3,"[1, 6, 7]",65.45739831,13817,844,3,0,11,1.6882745891803936
basic,27,43,0,0,1,1,"[0, 29, 20, 16, 25, 15, 12, 3, 22, 19, 1]",11,0,[],37.2793927,16204,2387,1,0,11,1.825064866046553
basic,27,43,0,1,1,1,"[0, 29, 20, 16, 25, 15, 12, 3, 22, 19, 1]",11,0,[],37.2793927,24429,8225,1,0,11,1.825064866046553
basic,28,38,0,0,0,0,[0],1,29,"[1, 2, 3, 4, 5, 6, 7, 8, 9, 10, 11, 12, 13, 14, 15, 16, 17, 18, 19, 20, 21, 22, 23, 24, 25, 26, 27, 28, 29]",300,145,-1,33,506,9,0.0
basic,28,38,0,0,0,19,"[0, 19]",2,23,"[3, 4, 5, 6, 7, 8, 9, 11, 13, 14, 15, 16, 17, 18, 20, 22, 23, 24, 25, 26, 27, 28, 29]",219.5015528,2470,2325,6,61,9,1.0
basic,28,38,0,0,0,17,"[0, 19, 17]",3,21,"[3, 4, 5, 6, 7, 9, 11, 13, 14, 15, 16, 18, 20, 22, 23, 24, 25, 26, 27, 28, 29]",198.1239945,3315,845,6,53,9,1.571793785769489
basic,28,38,0,0,0,20,"[0, 19, 17, 20]",4,17,"[3, 4, 5, 6, 7, 11, 13, 14, 15, 16, 18, 22, 24, 25, 26, 27, 28]",174.3542658,4159,844,6,44,9,2.333182710277297
basic,28,38,0,0,0,4,"[0, 19, 17, 20, 4]",5,10,"[5, 11, 13, 14, 15, 16, 24, 26, 27, 28]",140.4131403,6026,1867,5,22,9,2.276099229646013
basic,28,38,0,0,0,15,"[0, 19, 17, 20, 4, 15]",6,8,"[5, 11, 13, 14, 16, 24, 26, 28]",114.4131403,6753,727,5,6,9,2.5292671156176403
basic,28,38,0,0,0,11,"[0, 19, 17, 20, 4, 15, 11]",7,2,"[16, 28]",78.01259089,8261,1508,2,0,9,2.778100109749787
basic,28,38,0,0,0,28,"[0, 19, 17, 20, 4, 15, 11, 28]",8,1,[16],50.99407872,8991,730,1,0,9,2.3316428595723258
basic,28,38,0,0,1,16,"[0, 19, 17, 20, 4, 15, 11, 28, 16]",9,0,[],21.99407872,10035,1044,1,0,9,2.5408012360364265
basic,28,38,0,1,1,16,"[0, 19, 17, 20, 4, 15, 11, 28, 16]",9,0,[],21.99407872,10711,676,1,0,9,2.5408012360364265
basic,29,34,0,0,0,0,[0],1,25,"[1, 3, 4, 5, 6, 7, 8, 9, 10, 11, 12, 13, 15, 18, 19, 20, 21, 22, 23, 24, 25, 26, 27, 28, 29]",300,163,-1,12,367,10,0.0
basic,29,34,0,0,0,13,"[0, 13]",2,24,"[1, 3, 4, 5, 6, 7, 8, 9, 10, 11, 12, 15, 18, 19, 20, 21, 22, 23, 24, 25, 26, 27, 28, 29]",279.9750156,1887,1724,12,331,10,1.0
basic,29,34,0,0,0,1,"[0, 13, 1]",3,16,"[3, 5, 7, 8, 9, 10, 11, 12, 19, 21, 22, 23, 24, 25, 27, 29]",211.8574701,2788,901,3,92,10,1.0010381285747127
basic,29,34,0,0,0,8,"[0, 13, 1, 8]",4,14,"[3, 5, 7, 9, 10, 11, 12, 19, 22, 23, 24, 25, 27, 29]",201.0871405,3469,681,2,54,10,1.1636807
basic,29,34,0,0,0,25,"[0, 13, 1, 8, 25]",5,12,"[3, 5, 7, 9, 10, 11, 12, 22, 23, 24, 27, 29]",183.999133,4102,633,2,28,10,1.1396208815936457
basic,29,34,0,0,0,24,"[0, 13, 1, 8, 25, 24]",6,11,"[3, 5, 7, 9, 10, 11, 12, 22, 23, 27, 29]",166.5062774,4996,894,2,23,10,1.374180768736554
basic,29,34,0,0,0,12,"[0, 13, 1, 8, 25, 24, 12]",7,7,"[7, 9, 10, 11, 22, 23, 27]",115.4670767,6812,1816,1,8,10,1.4994254760835948
basic,29,34,0,0,0,7,"[0, 13, 1, 8, 25, 24, 12, 7]",8,5,"[9, 11, 22, 23, 27]",100.4337804,7593,781,1,4,10,1.758992610425009
basic,29,34,0,0,0,23,"[0, 13, 1, 8, 25, 24, 12, 7, 23]",9,1,[27],72.27352467,8440,847,1,0,10,2.399781305190153
basic,29,34,0,0,1,27,"[0, 13, 1, 8, 25, 24, 12, 7, 23, 27]",10,0,[],18.60789321,9857,1417,1,0,10,4.766619878750327
basic,29,34,0,1,1,27,"[0, 13, 1, 8, 25, 24, 12, 7, 23, 27]",10,0,[],18.60789321,11179,1322,1,0,10,4.766619878750327
basic,30,23,0,0,0,0,[0],1,28,"[1, 2, 3, 4, 5, 6, 7, 8, 9, 10, 11, 12, 13, 14, 15, 16, 17, 18, 19, 20, 21, 22, 23, 25, 26, 27, 28, 29]",300,196,-1,76,2626,10,0.0
basic,30,23,0,0,0,18,"[0, 18]",2,14,"[2, 5, 6, 7, 9, 10, 12, 13, 14, 19, 21, 22, 27, 29]",203.8958898,2070,1874,73,787,9,1.0
basic,30,23,0,0,0,27,"[0, 18, 27]",3,9,"[2, 6, 7, 9, 12, 13, 14, 22, 29]",128.5832083,3102,1032,51,277,9,1.1972268052690318
basic,30,23,0,0,0,6,"[0, 18, 27, 6]",4,8,"[2, 7, 9, 12, 13, 14, 22, 29]",100.2812649,4005,903,43,68,9,1.3293035545030156
basic,30,23,0,0,0,2,"[0, 18, 27, 6, 2]",5,6,"[9, 12, 13, 14, 22, 29]",81.84217594,4743,738,16,17,9,1.5987085337271232
basic,30,23,0,0,0,12,"[0, 18, 27, 6, 2, 12]",6,5,"[9, 13, 14, 22, 29]",67.94973195,5605,862,4,5,9,1.8929166061978238
basic,30,23,0,0,0,9,"[0, 18, 27, 6, 2, 12, 9]",7,4,"[13, 14, 22, 29]",53.63191089,7252,1647,1,3,9,1.8857339318878357
basic,30,23,0,0,0,14,"[0, 18, 27, 6, 2, 12, 9, 14]",8,1,[13],43.19160438,8452,1200,1,0,9,1.8227577863373186
basic,30,23,0,0,1,13,"[0, 18, 27, 6, 2, 12, 9, 14, 13]",9,0,[],9.132831647,9869,1417,1,0,9,2.628007853026077
basic,30,23,0,1,1,13,"[0, 18, 27, 6, 2, 12, 9, 14, 13]",9,0,[],9.132831647,10710,841,1,0,9,2.628007853026077
basic,31,17,0,0,0,0,[0],1,28,"[1, 2, 3, 4, 5, 6, 7, 8, 9, 10, 11, 12, 13, 14, 15, 16, 17, 18, 19, 20, 22, 23, 24, 25, 26, 27, 28, 29]",300,182,-1,2,73,8,0.0
basic,31,17,0,0,0,16,"[0, 16]",2,23,"[1, 2, 3, 5, 7, 8, 9, 10, 11, 12, 14, 17, 18, 19, 20, 22, 23, 24, 25, 26, 27, 28, 29]",212.3586855,21112,20930,1,29,8,1.0
basic,31,17,0,0,0,9,"[0, 16, 9]",3,22,"[1, 2, 3, 5, 7, 8, 10, 11, 12, 14, 17, 18, 19, 20, 22, 23, 24, 25, 26, 27, 28, 29]",199.0170215,21991,879,1,16,8,1.1286713677732607
basic,31,17,0,0,0,2,"[0, 16, 9, 2]",4,18,"[1, 3, 5, 7, 8, 10, 11, 12, 14, 17, 18, 19, 23, 25, 26, 27, 28, 29]",177.0625231,22975,984,1,12,8,1.1868741553560993
basic,31,17,0,0,0,17,"[0, 16, 9, 2, 17]",5,5,"[7, 8, 14, 27, 29]",138.7349873,24408,1433,2,4,7,1.527497948919145
basic,31,17,0,0,0,8,"[0, 16, 9, 2, 17, 8]",6,2,"[7, 27]",100.5250409,25558,1150,2,0,7,1.4903631359086424
basic,31,17,0,0,1,7,"[0, 16, 9, 2, 17, 8, 7]",7,0,[],29.81436282,28575,3017,1,0,7,1.4692249631631122
basic,31,17,0,1,1,7,"[0, 16, 9, 2, 17, 8, 7]",7,0,[],29.81436282,30767,2192,1,0,7,1.4692249631631122
basic,32,4,0,0,0,0,[0],1,26,"[3, 4, 5, 6, 7, 8, 10, 11, 12, 13, 14, 15, 16, 17, 18, 19, 20, 21, 22, 23, 24, 25, 26, 27, 28, 29]",300,162,-1,4,489,10,0.0
basic,32,4,0,0,0,28,"[0, 28]",2,21,"[3, 4, 5, 6, 10, 11, 12, 13, 14, 15, 16, 17, 19, 20, 21, 22, 23, 24, 25, 26, 27]",225.9392142,1896,1734,2,216,10,1.0
basic,32,4,0,0,0,14,"[0, 28, 14]",3,13,"[3, 4, 5, 6, 11, 13, 16, 17, 20, 21, 22, 24, 25]",159.6972335,2739,843,1,26,10,1.0273973946789214
basic,32,4,0,0,0,25,"[0, 28, 14, 25]",4,12,"[3, 4, 5, 6, 11, 13, 16, 17, 20, 21, 22, 24]",143.572718,3428,689,1,25,10,1.233547772313525
basic,32,4,0,0,0,11,"[0, 28, 14, 25, 11]",5,10,"[3, 4, 5, 6, 13, 16, 17, 20, 21, 22]",124.7844238,4108,680,1,15,10,1.425978575879479
basic,32,4,0,0,0,16,"[0, 28, 14, 25, 11, 16]",6,9,"[3, 4, 5, 6, 13, 17, 20, 21, 22]",109.7844238,6804,2696,1,12,10,1.3799325158051412
basic,32,4,0,0,0,21,"[0, 28, 14, 25, 11, 16, 21]",7,4,"[5, 17, 20, 22]",65.58035157,10068,3264,3,3,9,1.5860540591673642
basic,32,4,0,0,0,22,"[0, 28, 14, 25, 11, 16, 21, 22]",8,3,"[5, 17, 20]",54.53499056,10820,752,3,0,9,1.5471132483772176
basic,32,4,0,0,1,20,"[0, 28, 14, 25, 11, 16, 21, 22, 20]",9,0,[],24.30255764,11906,1086,1,0,9,1.5087977616865345
basic,32,4,0,1,1,20,"[0, 28, 14, 25, 11, 16, 21, 22, 20]",9,0,[],24.30255764,13479,1573,1,0,9,1.5087977616865345
basic,33,37,0,0,0,0,[0],1,29,"[1, 2, 3, 4, 5, 6, 7, 8, 9, 10, 11, 12, 13, 14, 15, 16, 17, 18, 19, 20, 21, 22, 23, 24, 25, 26, 27, 28, 29]",300,147,-1,6,168,10,0.0
basic,33,37,0,0,0,18,"[0, 18]",2,19,"[1, 2, 4, 6, 7, 9, 10, 12, 14, 15, 17, 19, 20, 21, 22, 23, 26, 28, 29]",202.4090168,3711,3564,6,89,10,1.0
basic,33,37,0,0,0,22,"[0, 18, 22]",3,9,"[1, 2, 4, 7, 15, 19, 20, 21, 26]",136.9720242,4979,1268,15,58,9,1.001057447339584
basic,33,37,0,0,0,4,"[0, 18, 22, 4]",4,8,"[1, 2, 7, 15, 19, 20, 21, 26]",111.9720242,6020,1041,8,28,9,1.1568597805027683
basic,33,37,0,0,0,2,"[0, 18, 22, 4, 2]",5,7,"[1, 7, 15, 19, 20, 21, 26]",100.57027,6722,702,7,12,9,1.3192232340552885
basic,33,37,0,0,0,1,"[0, 18, 22, 4, 2, 1]",6,6,"[7, 15, 19, 20, 21, 26]",83.36561943,10827,4105,7,4,9,1.3683384389764814
basic,33,37,0,0,0,15,"[0, 18, 22, 4, 2, 1, 15]",7,3,"[20, 21, 26]",43.40313702,11788,961,2,1,9,1.5420751881752959
basic,33,37,0,0,0,21,"[0, 18, 22, 4, 2, 1, 15, 21]",8,1,[20],28.40313702,14221,2433,1,0,9,1.7500538973351742
basic,33,37,0,0,1,20,"[0, 18, 22, 4, 2, 1, 15, 21, 20]",9,0,[],13.98093192,15722,1501,1,0,9,1.9081087151684184
basic,33,37,0,1,1,20,"[0, 18, 22, 4, 2, 1, 15, 21, 20]",9,0,[],13.98093192,17180,1458,1,0,9,1.9081087151684184
basic,34,42,0,0,0,0,[0],1,29,"[1, 2, 3, 4, 5, 6, 7, 8, 9, 10, 11, 12, 13, 14, 15, 16, 17, 18, 19, 20, 21, 22, 23, 24, 25, 26, 27, 28, 29]",300,147,-1,16,302,9,0.0
basic,34,42,0,0,0,3,"[0, 3]",2,25,"[1, 2, 4, 5, 6, 7, 8, 9, 10, 11, 13, 15, 17, 18, 19, 20, 21, 22, 23, 24, 25, 26, 27, 28, 29]",255.7959278,2654,2507,3,45,9,1.0
basic,34,42,0,0,0,23,"[0, 3, 23]",3,15,"[1, 2, 4, 5, 6, 7, 8, 9, 11, 15, 17, 22, 24, 25, 29]",202.4573864,3974,1320,1,24,8,1.2042297975308642
basic,34,42,0,0,0,17,"[0, 3, 23, 17]",4,11,"[4, 5, 6, 8, 9, 11, 15, 22, 24, 25, 29]",191.2770465,4558,584,1,14,8,1.192958341617778
basic,34,42,0,0,0,11,"[0, 3, 23, 17, 11]",5,7,"[4, 6, 8, 15, 22, 24, 25]",140.0813435,6054,1496,1,7,8,1.7422648616902974
basic,34,42,0,0,0,24,"[0, 3, 23, 17, 11, 24]",6,2,"[6, 15]",82.0727235,7455,1401,1,1,8,1.6631309430247303
basic,34,42,0,0,0,15,"[0, 3, 23, 17, 11, 24, 15]",7,1,[6],68.47125299,8153,698,1,0,8,1.6008668931493675
basic,34,42,0,0,1,6,"[0, 3, 23, 17, 11, 24, 15, 6]",8,0,[],19.07489685,9258,1105,1,0,8,1.4594939660868298
basic,34,42,0,1,1,6,"[0, 3, 23, 17, 11, 24, 15, 6]",8,0,[],19.07489685,9847,589,1,0,8,1.4594939660868298
basic,35,26,0,0,0,0,[0],1,29,"[1, 2, 3, 4, 5, 6, 7, 8, 9, 10, 11, 12, 13, 14, 15, 16, 17, 18, 19, 20, 21, 22, 23, 24, 25, 26, 27, 28, 29]",300,172,-1,9,226,9,0.0
basic,35,26,0,0,0,4,"[0, 4]",2,13,"[5, 6, 10, 12, 13, 14, 16, 17, 19, 21, 23, 26, 29]",178.7976898,5079,4907,4,118,8,1.0
basic,35,26,0,0,0,17,"[0, 4, 17]",3,10,"[5, 6, 10, 12, 13, 14, 16, 21, 23, 29]",157.7026667,6056,977,1,35,8,1.0014732588101924
basic,35,26,0,0,0,6,"[0, 4, 17, 6]",4,6,"[10, 14, 16, 21, 23, 29]",137.5780549,6805,749,10,11,7,1.011273258075741
basic,35,26,0,0,0,14,"[0, 4, 17, 6, 14]",5,4,"[10, 16, 23, 29]",116.5542588,7739,934,5,2,7,1.1383391147196797
basic,35,26,0,0,0,29,"[0, 4, 17, 6, 14, 29]",6,3,"[10, 16, 23]",75.32320259,8839,1100,3,0,7,1.8387738585921345
basic,35,26,0,0,1,16,"[0, 4, 17, 6, 14, 29, 16]",7,0,[],51.11576571,9844,1005,1,0,7,2.2232443318112174
basic,35,26,0,1,1,16,"[0, 4, 17, 6, 14, 29, 16]",7,0,[],51.11576571,14816,4972,1,0,7,2.2232443318112174
basic,36,2,0,0,0,0,[0],1,23,"[1, 2, 4, 5, 6, 7, 8, 9, 12, 13, 15, 16, 17, 18, 19, 20, 22, 23, 25, 26, 27, 28, 29]",300,179,-1,70,620,10,0.0
basic,36,2,0,0,0,19,"[0, 19]",2,22,"[1, 2, 4, 5, 6, 7, 8, 9, 12, 13, 15, 16, 17, 18, 20, 22, 23, 25, 26, 27, 28, 29]",210.306076,2617,2438,67,431,10,1.0
basic,36,2,0,0,0,12,"[0, 19, 12]",3,17,"[1, 4, 5, 6, 7, 13, 15, 16, 17, 18, 20, 22, 25, 26, 27, 28, 29]",174.2921898,3458,841,66,298,10,1.1107635036313153
basic,36,2,0,0,0,5,"[0, 19, 12, 5]",4,11,"[1, 6, 7, 13, 15, 16, 18, 22, 25, 26, 29]",144.7625437,5536,2078,38,136,10,1.0968174771581647
basic,36,2,0,0,0,22,"[0, 19, 12, 5, 22]",5,8,"[1, 6, 7, 13, 15, 18, 26, 29]",131.9562952,6899,1363,20,63,10,1.0889910507461968
basic,36,2,0,0,0,13,"[0, 19, 12, 5, 22, 13]",6,7,"[1, 6, 7, 15, 18, 26, 29]",117.0902265,7566,667,19,20,10,1.236526217328057
basic,36,2,0,0,0,18,"[0, 19, 12, 5, 22, 13, 18]",7,4,"[7, 15, 26, 29]",81.91921567,8367,801,10,3,10,1.2128708213409936
basic,36,2,0,0,0,7,"[0, 19, 12, 5, 22, 13, 18, 7]",8,3,"[15, 26, 29]",71.62358553,9641,1274,5,0,10,1.2019811287894737
basic,36,2,0,0,0,26,"[0, 19, 12, 5, 22, 13, 18, 7, 26]",9,2,"[15, 29]",48.82007703,10867,1226,2,0,10,1.1883593342191134
basic,36,2,0,0,1,15,"[0, 19, 12, 5, 22, 13, 18, 7, 26, 15]",10,0,[],24.61264015,11901,1034,1,0,10,1.4619750353663825
basic,36,2,0,1,1,15,"[0, 19, 12, 5, 22, 13, 18, 7, 26, 15]",10,0,[],24.61264015,12710,809,1,0,10,1.4619750353663825
basic,37,40,0,0,0,0,[0],1,29,"[1, 2, 3, 4, 5, 6, 7, 8, 9, 10, 11, 12, 13, 14, 15, 16, 17, 18, 19, 20, 21, 22, 23, 24, 25, 26, 27, 28, 29]",300,164,-1,8,191,9,0.0
basic,37,40,0,0,0,1,"[0, 1]",2,18,"[2, 5, 6, 7, 8, 9, 10, 11, 13, 15, 17, 18, 19, 21, 22, 23, 27, 29]",247.8463808,3304,3140,4,80,9,1.0
basic,37,40,0,0,0,6,"[0, 1, 6]",3,17,"[2, 5, 7, 8, 9, 10, 11, 13, 15, 17, 18, 19, 21, 22, 23, 27, 29]",227.7466295,4571,1267,4,74,9,1.0459427008232034
basic,37,40,0,0,0,21,"[0, 1, 6, 21]",4,8,"[2, 5, 9, 17, 18, 19, 22, 23]",175.7754837,5771,1200,4,25,9,1.0308822257404064
basic,37,40,0,0,0,9,"[0, 1, 6, 21, 9]",5,6,"[2, 5, 18, 19, 22, 23]",130.0699041,7071,1300,4,12,9,1.377861912961129
basic,37,40,0,0,0,18,"[0, 1, 6, 21, 9, 18]",6,5,"[2, 5, 19, 22, 23]",113.5169588,7988,917,4,4,9,1.5742712168661408
basic,37,40,0,0,0,5,"[0, 1, 6, 21, 9, 18, 5]",7,3,"[19, 22, 23]",81.94165198,8837,849,2,1,9,1.7730665063055515
basic,37,40,0,0,0,19,"[0, 1, 6, 21, 9, 18, 5, 19]",8,1,[23],43.86278645,11162,2325,1,0,9,2.4966727914503504
basic,37,40,0,0,1,23,"[0, 1, 6, 21, 9, 18, 5, 19, 23]",9,0,[],11.90969584,12019,857,1,0,9,3.0374134989796913
basic,37,40,0,1,1,23,"[0, 1, 6, 21, 9, 18, 5, 19, 23]",9,0,[],11.90969584,12914,895,1,0,9,3.0374134989796913
basic,38,29,0,0,0,0,[0],1,29,"[1, 2, 3, 4, 5, 6, 7, 8, 9, 10, 11, 12, 13, 14, 15, 16, 17, 18, 19, 20, 21, 22, 23, 24, 25, 26, 27, 28, 29]",300,148,-1,1,78,9,0.0
basic,38,29,0,0,0,14,"[0, 14]",2,22,"[1, 3, 4, 5, 6, 7, 9, 10, 11, 12, 13, 15, 16, 17, 21, 22, 23, 25, 26, 27, 28, 29]",209.490332,3489,3341,21,110,8,1.0
basic,38,29,0,0,0,13,"[0, 14, 13]",3,18,"[1, 4, 5, 6, 7, 9, 10, 12, 15, 16, 17, 21, 22, 25, 26, 27, 28, 29]",191.4625756,5485,1996,20,75,8,1.0027006502223275
basic,38,29,0,0,0,5,"[0, 14, 13, 5]",4,15,"[1, 4, 6, 7, 9, 12, 15, 17, 21, 22, 25, 26, 27, 28, 29]",165.7526554,6378,893,19,49,8,1.0803937325657265
basic,38,29,0,0,0,4,"[0, 14, 13, 5, 4]",5,5,"[7, 9, 12, 21, 22]",113.8585324,7422,1044,5,5,8,1.0589046774357636
basic,38,29,0,0,0,9,"[0, 14, 13, 5, 4, 9]",6,3,"[7, 12, 21]",72.82196333,8296,874,2,1,8,1.2033484462540056
basic,38,29,0,0,0,7,"[0, 14, 13, 5, 4, 9, 7]",7,1,[12],43.75307962,9162,866,1,0,8,1.5581999677939193
basic,38,29,0,0,1,12,"[0, 14, 13, 5, 4, 9, 7, 12]",8,0,[],30.15160911,10221,1059,1,0,8,1.747955919287298
basic,38,29,0,1,1,12,"[0, 14, 13, 5, 4, 9, 7, 12]",8,0,[],30.15160911,11815,1594,1,0,8,1.747955919287298
basic,39,16,0,0,0,0,[0],1,29,"[1, 2, 3, 4, 5, 6, 7, 8, 9, 10, 11, 12, 13, 14, 15, 16, 17, 18, 19, 20, 21, 22, 23, 24, 25, 26, 27, 28, 29]",300,146,-1,13,161,9,0.0
basic,39,16,0,0,0,17,"[0, 17]",2,27,"[1, 2, 3, 4, 5, 7, 8, 9, 10, 11, 12, 13, 14, 15, 16, 18, 19, 20, 21, 22, 23, 24, 25, 26, 27, 28, 29]",241.3058776,2419,2273,2,58,9,1.0
basic,39,16,0,0,0,16,"[0, 17, 16]",3,26,"[1, 2, 3, 4, 5, 7, 8, 9, 10, 11, 12, 13, 14, 15, 18, 19, 20, 21, 22, 23, 24, 25, 26, 27, 28, 29]",212.9862731,3153,734,2,52,9,1.0529535521792848
basic,39,16,0,0,0,8,"[0, 17, 16, 8]",4,19,"[2, 3, 4, 5, 9, 12, 13, 14, 15, 19, 20, 21, 22, 23, 25, 26, 27, 28, 29]",164.6127266,4139,986,2,38,9,1.0915134501573105
basic,39,16,0,0,0,20,"[0, 17, 16, 8, 20]",5,10,"[3, 4, 5, 9, 12, 13, 15, 19, 21, 25]",106.8372993,6880,2741,1,15,9,1.067523143001942
basic,39,16,0,0,0,25,"[0, 17, 16, 8, 20, 25]",6,7,"[3, 4, 5, 9, 12, 13, 15]",94.18818869,7556,676,1,9,9,1.1170093326933646
basic,39,16,0,0,0,9,"[0, 17, 16, 8, 20, 25, 9]",7,5,"[3, 4, 5, 13, 15]",81.38194021,8239,683,1,4,9,1.1095076562662525
basic,39,16,0,0,0,15,"[0, 17, 16, 8, 20, 25, 9, 15]",8,1,[5],42.48463953,8942,703,1,0,9,1.213831159678775
basic,39,16,0,0,1,5,"[0, 17, 16, 8, 20, 25, 9, 15, 5]",9,0,[],13.0567616,9955,1013,1,0,9,1.5171779607523481
basic,39,16,0,1,1,5,"[0, 17, 16, 8, 20, 25, 9, 15, 5]",9,0,[],13.0567616,10631,676,1,0,9,1.5171779607523481
basic,40,24,0,0,0,0,[0],1,29,"[1, 2, 3, 4, 5, 6, 7, 8, 9, 10, 11, 12, 13, 14, 15, 16, 17, 18, 19, 20, 21, 22, 23, 24, 25, 26, 27, 28, 29]",300,171,-1,4,76,10,0.0
basic,40,24,0,0,0,16,"[0, 16]",2,28,"[1, 2, 3, 4, 5, 6, 7, 8, 9, 10, 11, 12, 13, 14, 15, 17, 18, 19, 20, 21, 22, 23, 24, 25, 26, 27, 28, 29]",210.3562607,3025,2854,13,110,9,1.0
basic,40,24,0,0,0,22,"[0, 16, 22]",3,27,"[1, 2, 3, 4, 5, 6, 7, 8, 9, 10, 11, 12, 13, 14, 15, 17, 18, 19, 20, 21, 23, 24, 25, 26, 27, 28, 29]",192.3285043,4487,1462,7,54,9,1.0217425143037777
basic,40,24,0,0,0,8,"[0, 16, 22, 8]",4,21,"[1, 2, 3, 4, 6, 9, 10, 11, 13, 14, 15, 17, 20, 21, 23, 24, 25, 26, 27, 28, 29]",178.9120964,5129,642,4,28,9,1.0996636936037951
basic,40,24,0,0,0,15,"[0, 16, 22, 8, 15]",5,16,"[3, 4, 6, 9, 10, 11, 13, 14, 17, 23, 24, 25, 26, 27, 28, 29]",148.025206,6188,1059,3,17,9,1.2704773343758617
basic,40,24,0,0,0,28,"[0, 16, 22, 8, 15, 28]",6,8,"[3, 4, 9, 11, 13, 23, 26, 27]",102.7482803,8021,1833,3,5,9,1.1981967578189556
basic,40,24,0,0,0,23,"[0, 16, 22, 8, 15, 28, 23]",7,3,"[9, 11, 27]",83.72198273,9372,1351,3,1,9,1.2275650852813986
basic,40,24,0,0,0,11,"[0, 16, 22, 8, 15, 28, 23, 11]",8,2,"[9, 27]",56.79615869,10379,1007,2,0,9,1.2107937989822568
basic,40,24,0,0,1,9,"[0, 16, 22, 8, 15, 28, 23, 11, 9]",9,0,[],24.5471277,11108,729,1,0,9,1.2976612913524237
basic,40,24,0,1,1,9,"[0, 16, 22, 8, 15, 28, 23, 11, 9]",9,0,[],24.5471277,12347,1239,1,0,9,1.2976612913524237
basic,41,1,0,0,0,0,[0],1,26,"[1, 2, 4, 5, 7, 8, 9, 10, 11, 12, 13, 14, 15, 16, 17, 18, 19, 20, 21, 22, 23, 24, 25, 26, 28, 29]",300,146,-1,6,74,7,0.0
basic,41,1,0,0,0,14,"[0, 14]",2,19,"[1, 4, 5, 8, 9, 13, 15, 17, 18, 19, 20, 21, 22, 23, 24, 25, 26, 28, 29]",200.1901808,2036,1890,5,42,7,1.0
basic,41,1,0,0,0,17,"[0, 14, 17]",3,15,"[1, 4, 5, 8, 9, 13, 15, 18, 19, 20, 22, 23, 25, 28, 29]",147.8356204,3071,1035,5,27,7,1.0028844724416826
basic,41,1,0,0,0,1,"[0, 14, 17, 1]",4,12,"[4, 5, 8, 9, 15, 18, 20, 22, 23, 25, 28, 29]",123.4840291,4473,1402,5,15,7,1.0264985578353567
basic,41,1,0,0,0,28,"[0, 14, 17, 1, 28]",5,5,"[9, 15, 22, 23, 29]",88.59850198,5222,749,5,3,7,1.0339861575999345
basic,41,1,0,0,0,23,"[0, 14, 17, 1, 28, 23]",6,2,"[15, 22]",51.70676849,6526,1304,2,0,7,1.0327458250705703
basic,41,1,0,0,1,15,"[0, 14, 17, 1, 28, 23, 15]",7,0,[],20.81987807,7293,767,1,0,7,1.1948681641401226
basic,41,1,0,1,1,15,"[0, 14, 17, 1, 28, 23, 15]",7,0,[],20.81987807,7829,536,1,0,7,1.1948681641401226
basic,42,15,0,0,0,0,[0],1,25,"[1, 2, 3, 4, 7, 8, 9, 10, 11, 12, 13, 14, 15, 16, 18, 20, 21, 22, 23, 24, 25, 26, 27, 28, 29]",300,162,-1,4,65,9,0.0
basic,42,15,0,0,0,7,"[0, 7]",2,23,"[1, 3, 4, 8, 9, 10, 11, 12, 13, 14, 15, 16, 18, 20, 21, 22, 23, 24, 25, 26, 27, 28, 29]",215.1884442,2269,2107,30,107,8,1.0
basic,42,15,0,0,0,16,"[0, 7, 16]",3,14,"[3, 4, 9, 10, 11, 12, 13, 14, 15, 18, 21, 22, 25, 27]",171.5306843,3657,1388,11,27,8,1.1253230463291073
basic,42,15,0,0,0,11,"[0, 7, 16, 11]",4,10,"[3, 4, 12, 13, 14, 15, 18, 21, 22, 27]",145.5114606,5342,1685,6,10,8,1.2441772230587118
basic,42,15,0,0,0,22,"[0, 7, 16, 11, 22]",5,6,"[3, 4, 13, 14, 15, 18]",84.38045375,6961,1619,2,4,7,1.249784644308584
basic,42,15,0,0,0,15,"[0, 7, 16, 11, 22, 15]",6,1,[13],58.7679568,8075,1114,1,0,7,1.2283958128198615
basic,42,15,0,0,1,13,"[0, 7, 16, 11, 22, 15, 13]",7,0,[],43.50361928,9102,1027,1,0,7,1.2803072282175676
basic,42,15,0,1,1,13,"[0, 7, 16, 11, 22, 15, 13]",7,0,[],43.50361928,11462,2360,1,0,7,1.2803072282175676
basic,43,44,0,0,0,0,[0],1,29,"[1, 2, 3, 4, 5, 6, 7, 8, 9, 10, 11, 12, 13, 14, 15, 16, 17, 18, 19, 20, 21, 22, 23, 24, 25, 26, 27, 28, 29]",300,132,-1,13,126,7,0.0
basic,43,44,0,0,0,8,"[0, 8]",2,17,"[1, 4, 5, 7, 9, 10, 11, 12, 13, 14, 15, 20, 21, 23, 24, 25, 27]",145.7923478,2364,2232,1,10,7,1.0
basic,43,44,0,0,0,9,"[0, 8, 9]",3,8,"[4, 7, 11, 12, 14, 20, 23, 24]",76.43818425,4338,1974,1,6,6,1.408922204592535
basic,43,44,0,0,0,4,"[0, 8, 9, 4]",4,4,"[7, 12, 23, 24]",56.74046865,5039,701,1,3,6,1.3849761080459388
basic,43,44,0,0,0,7,"[0, 8, 9, 4, 7]",5,1,[23],25.72434381,6071,1032,1,0,6,1.327437286402403
basic,43,44,0,0,1,23,"[0, 8, 9, 4, 7, 23]",6,0,[],6.619370636,6990,919,1,0,6,1.3395817168770712
basic,43,44,0,1,1,23,"[0, 8, 9, 4, 7, 23]",6,0,[],6.619370636,7632,642,1,0,6,1.3395817168770712
basic,44,36,0,0,0,0,[0],1,24,"[2, 4, 5, 6, 7, 8, 9, 10, 12, 13, 14, 15, 16, 17, 18, 19, 20, 22, 23, 25, 26, 27, 28, 29]",300,180,-1,2,200,10,0.0
basic,44,36,0,0,0,12,"[0, 12]",2,23,"[2, 4, 5, 6, 7, 8, 9, 10, 13, 14, 15, 16, 17, 18, 19, 20, 22, 23, 25, 26, 27, 28, 29]",277.7963967,3396,3216,90,804,9,1.0
basic,44,36,0,0,0,9,"[0, 12, 9]",3,14,"[2, 4, 8, 10, 13, 16, 17, 18, 19, 23, 25, 27, 28, 29]",215.4345494,4418,1022,32,191,9,1.224429481246385
basic,44,36,0,0,0,17,"[0, 12, 9, 17]",4,11,"[2, 4, 8, 10, 13, 16, 18, 19, 23, 25, 27]",189.1857399,5143,725,8,54,9,1.1724571624470872
basic,44,36,0,0,0,19,"[0, 12, 9, 17, 19]",5,8,"[2, 4, 10, 13, 16, 18, 23, 25]",161.2930885,5846,703,3,14,9,1.7995682634090462
basic,44,36,0,0,0,13,"[0, 12, 9, 17, 19, 13]",6,6,"[2, 4, 10, 16, 18, 25]",117.8765018,7387,1541,1,4,9,1.8568569502077603
basic,44,36,0,0,0,25,"[0, 12, 9, 17, 19, 13, 25]",7,3,"[2, 10, 16]",97.28524155,8036,649,1,2,9,1.7705865134397563
basic,44,36,0,0,0,2,"[0, 12, 9, 17, 19, 13, 25, 2]",8,1,[16],72.28524155,8936,900,1,0,9,2.0164385832892004
basic,44,36,0,0,1,16,"[0, 12, 9, 17, 19, 13, 25, 2, 16]",9,0,[],5.636910733,12641,3705,1,0,9,2.757809754600748
basic,44,36,0,1,1,16,"[0, 12, 9, 17, 19, 13, 25, 2, 16]",9,0,[],5.636910733,13229,588,1,0,9,2.757809754600748
basic,45,45,0,0,0,0,[0],1,24,"[1, 2, 3, 4, 5, 6, 7, 9, 10, 11, 12, 14, 15, 16, 17, 19, 20, 21, 22, 23, 24, 25, 27, 29]",300,178,-1,6,248,10,0.0
basic,45,45,0,0,0,15,"[0, 15]",2,23,"[1, 2, 3, 4, 5, 6, 7, 9, 10, 11, 12, 14, 16, 17, 19, 20, 21, 22, 23, 24, 25, 27, 29]",253.9022777,2135,1957,5,207,10,1.0
basic,45,45,0,0,0,23,"[0, 15, 23]",3,22,"[1, 2, 3, 4, 5, 6, 7, 9, 10, 11, 12, 14, 16, 17, 19, 20, 21, 22, 24, 25, 27, 29]",230.3014303,3383,1248,5,163,10,1.0006068457769497
basic,45,45,0,0,0,20,"[0, 15, 23, 20]",4,19,"[1, 2, 3, 5, 6, 7, 9, 10, 11, 12, 14, 16, 17, 19, 21, 22, 24, 25, 29]",188.8647316,4777,1394,5,137,10,1.2062119754673604
basic,45,45,0,0,0,10,"[0, 15, 23, 20, 10]",5,12,"[2, 3, 6, 7, 9, 12, 14, 17, 22, 24, 25, 29]",132.784432,5737,960,1,54,10,1.1363907740691004
basic,45,45,0,0,0,6,"[0, 15, 23, 20, 10, 6]",6,7,"[2, 3, 7, 12, 22, 24, 29]",106.5356225,6755,1018,20,9,9,1.12325622461992
basic,45,45,0,0,0,29,"[0, 15, 23, 20, 10, 6, 29]",7,5,"[2, 3, 7, 12, 22]",78.37536681,9483,2728,6,2,9,1.3760462905931359
basic,45,45,0,0,0,2,"[0, 15, 23, 20, 10, 6, 29, 2]",8,2,"[3, 7]",48.69372265,10851,1368,2,0,9,1.4993543269820706
basic,45,45,0,0,1,3,"[0, 15, 23, 20, 10, 6, 29, 2, 3]",9,0,[],23.37574485,11837,986,1,0,9,1.542045675208091
basic,45,45,0,1,1,3,"[0, 15, 23, 20, 10, 6, 29, 2, 3]",9,0,[],23.37574485,12344,507,1,0,9,1.542045675208091
basic,46,5,0,0,0,0,[0],1,29,"[1, 2, 3, 4, 5, 6, 7, 8, 9, 10, 11, 12, 13, 14, 15, 16, 17, 18, 19, 20, 21, 22, 23, 24, 25, 26, 27, 28, 29]",300,217,-1,5,139,9,0.0
basic,46,5,0,0,0,12,"[0, 12]",2,22,"[2, 4, 5, 6, 8, 9, 10, 13, 14, 15, 16, 17, 18, 19, 21, 22, 23, 24, 25, 26, 27, 28]",228.3062067,4397,4180,1,27,9,1.0
basic,46,5,0,0,0,25,"[0, 12, 25]",3,21,"[2, 4, 5, 6, 8, 9, 10, 13, 14, 15, 16, 17, 18, 19, 21, 22, 23, 24, 26, 27, 28]",200.5213187,5178,781,1,20,9,1.584023303445617
basic,46,5,0,0,0,23,"[0, 12, 25, 23]",4,19,"[2, 4, 5, 6, 8, 9, 10, 13, 14, 15, 16, 17, 18, 19, 21, 22, 24, 26, 27]",182.0822298,7090,1912,1,14,9,2.3508446989254357
basic,46,5,0,0,0,24,"[0, 12, 25, 23, 24]",5,15,"[2, 4, 5, 6, 8, 9, 13, 14, 15, 17, 18, 19, 22, 26, 27]",158.995437,8005,915,1,12,9,1.9469752046288753
basic,46,5,0,0,0,17,"[0, 12, 25, 23, 24, 17]",6,7,"[4, 5, 6, 8, 15, 18, 19]",124.0097257,9199,1194,1,8,9,1.6482276497563642
basic,46,5,0,0,0,5,"[0, 12, 25, 23, 24, 17, 5]",7,4,"[4, 6, 15, 18]",80.96323916,15495,6296,1,3,9,1.4654649104389412
basic,46,5,0,0,1,15,"[0, 12, 25, 23, 24, 17, 5, 15]",8,0,[],40.93824697,16298,803,1,0,8,1.4660376450939663
basic,46,5,0,1,1,15,"[0, 12, 25, 23, 24, 17, 5, 15]",8,0,[],40.93824697,18565,2267,1,0,8,1.4660376450939663
basic,47,33,0,0,0,0,[0],1,23,"[1, 2, 5, 7, 8, 11, 12, 13, 14, 15, 16, 17, 18, 19, 20, 21, 23, 24, 25, 26, 27, 28, 29]",300,173,-1,5,108,9,0.0
basic,47,33,0,0,0,21,"[0, 21]",2,17,"[2, 5, 7, 8, 11, 13, 14, 16, 17, 18, 19, 20, 24, 26, 27, 28, 29]",174.4611614,3454,3281,21,129,8,1.0
basic,47,33,0,0,0,13,"[0, 21, 13]",3,15,"[2, 5, 7, 8, 11, 14, 16, 17, 18, 19, 20, 24, 26, 28, 29]",148.0604038,4206,752,17,72,8,1.0001005298764474
basic,47,33,0,0,0,19,"[0, 21, 13, 19]",4,11,"[7, 11, 14, 16, 17, 18, 20, 24, 26, 28, 29]",122.5653063,5013,807,10,27,8,1.0588446738393702
basic,47,33,0,0,0,24,"[0, 21, 13, 19, 24]",5,7,"[7, 14, 16, 18, 26, 28, 29]",80.51771417,5868,855,3,5,8,1.078006777679028
basic,47,33,0,0,0,7,"[0, 21, 13, 19, 24, 7]",6,3,"[14, 26, 29]",51.31155044,6581,713,3,1,8,1.1669985062633954
basic,47,33,0,0,0,14,"[0, 21, 13, 19, 24, 7, 14]",7,2,"[26, 29]",36.44548169,7221,640,2,0,8,1.2148465775488593
basic,47,33,0,0,1,26,"[0, 21, 13, 19, 24, 7, 14, 26]",8,0,[],23.79637105,7849,628,1,0,8,1.2208379656544521
basic,47,33,0,1,1,26,"[0, 21, 13, 19, 24, 7, 14, 26]",8,0,[],23.79637105,8756,907,1,0,8,1.2208379656544521
basic,48,32,0,0,0,0,[0],1,29,"[1, 2, 3, 4, 5, 6, 7, 8, 9, 10, 11, 12, 13, 14, 15, 16, 17, 18, 19, 20, 21, 22, 23, 24, 25, 26, 27, 28, 29]",300,146,-1,17,359,10,0.0
basic,48,32,0,0,0,19,"[0, 19]",2,28,"[1, 2, 3, 4, 5, 6, 7, 8, 9, 10, 11, 12, 13, 14, 15, 16, 17, 18, 20, 21, 22, 23, 24, 25, 26, 27, 28, 29]",283.5075775,2123,1977,16,294,10,1.0
basic,48,32,0,0,0,13,"[0, 19, 13]",3,24,"[2, 3, 4, 5, 6, 8, 9, 10, 11, 12, 14, 15, 16, 17, 18, 20, 21, 22, 23, 24, 25, 26, 27, 28]",260.3127505,2991,868,14,227,10,1.0172874229878615
basic,48,32,0,0,0,15,"[0, 19, 13, 15]",4,18,"[2, 3, 5, 8, 9, 10, 11, 12, 16, 17, 20, 22, 23, 24, 25, 26, 27, 28]",177.4393531,4089,1098,9,116,10,1.435447391509833
basic,48,32,0,0,0,28,"[0, 19, 13, 15, 28]",5,17,"[2, 3, 5, 8, 9, 10, 11, 12, 16, 17, 20, 22, 23, 24, 25, 26, 27]",166.0375988,4828,739,9,70,10,1.3843701324937985
basic,48,32,0,0,0,12,"[0, 19, 13, 15, 28, 12]",6,14,"[2, 3, 5, 8, 9, 10, 11, 16, 17, 20, 22, 24, 26, 27]",147.0639329,5674,846,6,35,10,1.358372254952329
basic,48,32,0,0,0,16,"[0, 19, 13, 15, 28, 12, 16]",7,13,"[2, 3, 5, 8, 9, 10, 11, 17, 20, 22, 24, 26, 27]",131.411457,6310,636,5,15,10,1.4356932930709845
basic,48,32,0,0,0,22,"[0, 19, 13, 15, 28, 12, 16, 22]",8,6,"[2, 8, 9, 17, 20, 27]",97.57360838,13054,6744,3,5,10,1.4335226411545752
basic,48,32,0,0,0,9,"[0, 19, 13, 15, 28, 12, 16, 22, 9]",9,3,"[2, 8, 20]",75.37000507,13870,816,3,0,10,1.4837166378374758
basic,48,32,0,0,1,20,"[0, 19, 13, 15, 28, 12, 16, 22, 9, 20]",10,0,[],12.72018464,15908,2038,1,0,10,1.420264208067807
basic,48,32,0,1,1,20,"[0, 19, 13, 15, 28, 12, 16, 22, 9, 20]",10,0,[],12.72018464,16846,938,1,0,10,1.420264208067807
basic,49,25,0,0,0,0,[0],1,28,"[1, 2, 3, 4, 5, 7, 8, 9, 10, 11, 12, 13, 14, 15, 16, 17, 18, 19, 20, 21, 22, 23, 24, 25, 26, 27, 28, 29]",300,195,-1,5,94,10,0.0
basic,49,25,0,0,0,1,"[0, 1]",2,22,"[2, 3, 5, 7, 8, 9, 11, 12, 13, 14, 16, 17, 18, 19, 20, 21, 22, 23, 24, 25, 28, 29]",268.9516506,4071,3876,16,145,9,1.0
basic,49,25,0,0,0,23,"[0, 1, 23]",3,16,"[3, 5, 7, 8, 9, 11, 12, 13, 17, 19, 20, 21, 22, 24, 28, 29]",201.9441883,4941,870,2,17,9,2.4377214593885763
basic,49,25,0,0,0,19,"[0, 1, 23, 19]",4,13,"[3, 5, 7, 9, 11, 12, 13, 17, 20, 21, 22, 24, 29]",166.0972917,6504,1563,2,9,9,2.7866177211778074
basic,49,25,0,0,0,7,"[0, 1, 23, 19, 7]",5,4,"[3, 9, 22, 24]",81.94861373,10335,3831,1,3,8,1.860495872957722
basic,49,25,0,0,0,24,"[0, 1, 23, 19, 7, 24]",6,2,"[3, 9]",57.18977693,11606,1271,1,1,8,1.7276288033603548
basic,49,25,0,0,0,9,"[0, 1, 23, 19, 7, 24, 9]",7,1,[3],39.16202055,12359,753,1,0,8,1.6708715438926898
basic,49,25,0,0,1,3,"[0, 1, 23, 19, 7, 24, 9, 3]",8,0,[],8.896528649,13201,842,1,0,8,1.5722235929447437
basic,49,25,0,1,1,3,"[0, 1, 23, 19, 7, 24, 9, 3]",8,0,[],8.896528649,13594,393,1,0,8,1.5722235929447437
basic,50,28,0,0,0,0,[0],1,27,"[1, 2, 3, 4, 5, 6, 7, 8, 9, 10, 11, 12, 13, 14, 15, 16, 17, 18, 19, 20, 22, 23, 25, 26, 27, 28, 29]",300,161,-1,2,96,9,0.0
basic,50,28,0,0,0,3,"[0, 3]",2,26,"[1, 2, 4, 5, 6, 7, 8, 9, 10, 11, 12, 13, 14, 15, 16, 17, 18, 19, 20, 22, 23, 25, 26, 27, 28, 29]",251.0817008,2000,1839,1,64,9,1.0
basic,50,28,0,0,0,5,"[0, 3, 5]",3,20,"[2, 4, 6, 7, 8, 9, 10, 11, 12, 13, 14, 15, 18, 19, 20, 23, 25, 26, 28, 29]",166.9865166,3435,1435,1,34,9,1.0203769473612083
basic,50,28,0,0,0,26,"[0, 3, 5, 26]",4,13,"[2, 4, 7, 8, 9, 12, 13, 14, 18, 19, 20, 25, 28]",134.2298379,6383,2948,1,28,9,1.0315203228799597
basic,50,28,0,0,0,28,"[0, 3, 5, 26, 28]",5,3,"[4, 8, 9]",71.60396464,7266,883,1,3,8,1.2364713265531995
basic,50,28,0,0,0,8,"[0, 3, 5, 26, 28, 8]",6,2,"[4, 9]",53.79947083,8168,902,1,1,8,1.220775707831746
basic,50,28,0,0,0,9,"[0, 3, 5, 26, 28, 8, 9]",7,1,[4],38.66672488,9768,1600,1,0,8,1.2700455126780428
basic,50,28,0,0,1,4,"[0, 3, 5, 26, 28, 8, 9, 4]",8,0,[],15.64499601,10575,807,1,0,8,1.2442782021881458
basic,50,28,0,1,1,4,"[0, 3, 5, 26, 28, 8, 9, 4]",8,0,[],15.64499601,11310,735,1,0,8,1.2442782021881458
basic,51,10,0,0,0,0,[0],1,29,"[1, 2, 3, 4, 5, 6, 7, 8, 9, 10, 11, 12, 13, 14, 15, 16, 17, 18, 19, 20, 21, 22, 23, 24, 25, 26, 27, 28, 29]",300,146,-1,1,100,9,0.0
basic,51,10,0,0,0,10,"[0, 10]",2,27,"[1, 2, 3, 4, 5, 6, 7, 8, 9, 11, 12, 13, 14, 15, 17, 18, 19, 20, 21, 22, 23, 24, 25, 26, 27, 28, 29]",211.2475352,2284,2138,5,73,8,1.0
basic,51,10,0,0,0,18,"[0, 10, 18]",3,24,"[1, 2, 3, 5, 6, 7, 8, 9, 11, 12, 13, 14, 15, 17, 19, 20, 21, 23, 24, 25, 26, 27, 28, 29]",197.7939112,3475,1191,5,49,8,1.0012508773359339
basic,51,10,0,0,0,27,"[0, 10, 18, 27]",4,12,"[1, 2, 6, 9, 11, 12, 13, 14, 19, 20, 21, 26]",122.9474016,5078,1603,7,14,7,1.1369632659189748
basic,51,10,0,0,0,20,"[0, 10, 18, 27, 20]",5,5,"[2, 11, 14, 19, 26]",77.6925676,5957,879,6,2,7,1.8366870772710229
basic,51,10,0,0,0,26,"[0, 10, 18, 27, 20, 26]",6,4,"[2, 11, 14, 19]",45.91207043,7329,1372,4,0,7,1.918532850476188
basic,51,10,0,0,1,14,"[0, 10, 18, 27, 20, 26, 14]",7,0,[],11.24219879,8237,908,1,0,7,1.8055122303477134
basic,51,10,0,1,1,14,"[0, 10, 18, 27, 20, 26, 14]",7,0,[],11.24219879,10163,1926,1,0,7,1.8055122303477134
basic,52,35,0,0,0,0,[0],1,29,"[1, 2, 3, 4, 5, 6, 7, 8, 9, 10, 11, 12, 13, 14, 15, 16, 17, 18, 19, 20, 21, 22, 23, 24, 25, 26, 27, 28, 29]",300,148,-1,5,236,11,0.0
basic,52,35,0,0,0,24,"[0, 24]",2,27,"[1, 2, 4, 5, 6, 7, 8, 9, 10, 11, 12, 13, 14, 15, 16, 17, 18, 19, 20, 21, 22, 23, 25, 26, 27, 28, 29]",268.9838752,2376,2228,49,512,10,1.0
basic,52,35,0,0,0,17,"[0, 24, 17]",3,26,"[1, 2, 4, 5, 6, 7, 8, 9, 10, 11, 12, 13, 14, 15, 16, 18, 19, 20, 21, 22, 23, 25, 26, 27, 28, 29]",257.2791753,3422,1046,33,238,10,1.0771477201815276
basic,52,35,0,0,0,1,"[0, 24, 17, 1]",4,25,"[2, 4, 5, 6, 7, 8, 9, 10, 11, 12, 13, 14, 15, 16, 18, 19, 20, 21, 22, 23, 25, 26, 27, 28, 29]",241.4677869,6418,2996,26,151,10,1.2244804141479215
basic,52,35,0,0,0,9,"[0, 24, 17, 1, 9]",5,13,"[2, 4, 5, 6, 15, 18, 19, 23, 25, 26, 27, 28, 29]",171.9408138,7526,1108,23,25,9,1.1391705391673446
basic,52,35,0,0,0,18,"[0, 24, 17, 1, 9, 18]",6,9,"[4, 5, 6, 15, 19, 23, 25, 27, 28]",151.9158294,8142,616,11,8,9,1.1512300765384265
basic,52,35,0,0,0,25,"[0, 24, 17, 1, 9, 18, 25]",7,3,"[5, 6, 23]",118.0779807,9088,946,4,1,9,1.1233821517043756
basic,52,35,0,0,0,6,"[0, 24, 17, 1, 9, 18, 25, 6]",8,2,"[5, 23]",94.05715644,9978,890,2,0,9,1.3618604674216885
basic,52,35,0,0,1,5,"[0, 24, 17, 1, 9, 18, 25, 6, 5]",9,0,[],11.2018609,13471,3493,1,0,9,2.587543492110402
basic,52,35,0,1,1,5,"[0, 24, 17, 1, 9, 18, 25, 6, 5]",9,0,[],11.2018609,14364,893,1,0,9,2.587543492110402
basic,53,22,0,0,0,0,[0],1,29,"[1, 2, 3, 4, 5, 6, 7, 8, 9, 10, 11, 12, 13, 14, 15, 16, 17, 18, 19, 20, 21, 22, 23, 24, 25, 26, 27, 28, 29]",300,145,-1,31,704,9,0.0
basic,53,22,0,0,0,16,"[0, 16]",2,21,"[1, 3, 6, 7, 8, 9, 11, 13, 14, 15, 17, 18, 19, 20, 21, 22, 24, 25, 27, 28, 29]",218.605897,2143,1998,17,147,9,1.0
basic,53,22,0,0,0,28,"[0, 16, 28]",3,13,"[6, 7, 9, 13, 14, 17, 19, 20, 21, 22, 24, 25, 29]",184.1675463,3012,869,12,61,9,1.047282311284478
basic,53,22,0,0,0,6,"[0, 16, 28, 6]",4,12,"[7, 9, 13, 14, 17, 19, 20, 21, 22, 24, 25, 29]",154.1675463,3770,758,12,43,9,1.645645870580622
basic,53,22,0,0,0,9,"[0, 16, 28, 6, 9]",5,8,"[7, 14, 17, 19, 20, 21, 24, 29]",127.5404924,4434,664,8,17,9,1.925750226630103
basic,53,22,0,0,0,19,"[0, 16, 28, 6, 9, 19]",6,6,"[7, 14, 17, 21, 24, 29]",107.1444143,6462,2028,3,7,9,2.4220750331476455
basic,53,22,0,0,0,29,"[0, 16, 28, 6, 9, 19, 29]",7,4,"[7, 14, 17, 24]",92.11111796,7070,608,2,2,9,2.6996279574991067
basic,53,22,0,0,0,14,"[0, 16, 28, 6, 9, 19, 29, 14]",8,1,[7],33.86165444,7757,687,1,0,9,2.0544639927929462
basic,53,22,0,0,1,7,"[0, 16, 28, 6, 9, 19, 29, 14, 7]",9,0,[],20.82324963,8355,598,1,0,9,2.219817088951114
basic,53,22,0,1,1,7,"[0, 16, 28, 6, 9, 19, 29, 14, 7]",9,0,[],20.82324963,8895,540,1,0,9,2.219817088951114
basic,54,7,0,0,0,0,[0],1,29,"[1, 2, 3, 4, 5, 6, 7, 8, 9, 10, 11, 12, 13, 14, 15, 16, 17, 18, 19, 20, 21, 22, 23, 24, 25, 26, 27, 28, 29]",300,158,-1,3,79,9,0.0
basic,54,7,0,0,0,6,"[0, 6]",2,22,"[2, 4, 5, 7, 8, 9, 10, 11, 13, 14, 15, 16, 18, 19, 20, 21, 22, 23, 24, 25, 27, 28]",231.1160396,4683,4525,1,24,9,1.0
basic,54,7,0,0,0,25,"[0, 6, 25]",3,14,"[2, 4, 5, 7, 13, 14, 15, 16, 18, 19, 20, 21, 23, 28]",163.9371739,5738,1055,1,15,9,1.1491202566384209
basic,54,7,0,0,0,4,"[0, 6, 25, 4]",4,10,"[2, 7, 13, 15, 16, 18, 19, 20, 21, 23]",139.1985401,6682,944,1,9,9,1.145081852791697
basic,54,7,0,0,0,20,"[0, 6, 25, 4, 20]",5,6,"[2, 7, 13, 16, 18, 19]",119.5516574,7248,566,1,4,9,1.2036846139155144
basic,54,7,0,0,0,18,"[0, 6, 25, 4, 20, 18]",6,5,"[2, 7, 13, 16, 19]",106.7454089,7849,601,1,3,9,1.3498144584217913
basic,54,7,0,0,0,7,"[0, 6, 25, 4, 20, 18, 7]",7,2,"[2, 19]",65.51435269,8614,765,1,1,9,1.2817825700699357
basic,54,7,0,0,0,19,"[0, 6, 25, 4, 20, 18, 7, 19]",8,1,[2],36.10347035,9862,1248,1,0,9,1.3950287830764145
basic,54,7,0,0,1,2,"[0, 6, 25, 4, 20, 18, 7, 19, 2]",9,0,[],5.953843486,12000,2138,1,0,9,1.4010142439340676
basic,54,7,0,1,1,2,"[0, 6, 25, 4, 20, 18, 7, 19, 2]",9,0,[],5.953843486,12659,659,1,0,9,1.4010142439340676
basic,55,18,0,0,0,0,[0],1,28,"[1, 2, 3, 4, 5, 6, 7, 8, 9, 10, 11, 12, 13, 14, 16, 17, 18, 19, 20, 21, 22, 23, 24, 25, 26, 27, 28, 29]",300,145,-1,3,136,10,0.0
basic,55,18,0,0,0,28,"[0, 28]",2,16,"[1, 3, 5, 7, 8, 9, 12, 13, 14, 16, 20, 23, 24, 25, 26, 27]",236.4311397,2219,2074,2,19,10,1.0
basic,55,18,0,0,0,7,"[0, 28, 7]",3,15,"[1, 3, 5, 8, 9, 12, 13, 14, 16, 20, 23, 24, 25, 26, 27]",214.4084242,3071,852,2,17,10,1.4345180696367563
basic,55,18,0,0,0,25,"[0, 28, 7, 25]",4,13,"[1, 3, 5, 8, 9, 12, 13, 14, 16, 20, 23, 26, 27]",186.6055466,3985,914,2,15,10,1.8896451241781882
basic,55,18,0,0,0,8,"[0, 28, 7, 25, 8]",5,10,"[3, 5, 9, 12, 13, 14, 16, 23, 26, 27]",149.551532,4778,793,2,10,10,1.590467437592877
basic,55,18,0,0,0,13,"[0, 28, 7, 25, 8, 13]",6,9,"[3, 5, 9, 12, 14, 16, 23, 26, 27]",128.4565089,5486,708,2,5,10,1.8248274983549797
basic,55,18,0,0,0,14,"[0, 28, 7, 25, 8, 13, 14]",7,7,"[3, 5, 9, 12, 23, 26, 27]",109.4828429,6301,815,2,3,10,1.6993534956692746
basic,55,18,0,0,0,3,"[0, 28, 7, 25, 8, 13, 14, 3]",8,3,"[5, 12, 27]",79.39962499,7337,1036,2,1,10,1.802637206541468
basic,55,18,0,0,0,5,"[0, 28, 7, 25, 8, 13, 14, 3, 5]",9,1,[12],21.21887216,8718,1381,1,0,10,1.559774889743805
basic,55,18,0,0,1,12,"[0, 28, 7, 25, 8, 13, 14, 3, 5, 12]",10,0,[],9.817117911,9773,1055,1,0,10,1.563993037384447
basic,55,18,0,1,1,12,"[0, 28, 7, 25, 8, 13, 14, 3, 5, 12]",10,0,[],9.817117911,10429,656,1,0,10,1.563993037384447
basic,56,30,0,0,0,0,[0],1,19,"[3, 4, 5, 7, 9, 11, 16, 17, 18, 19, 20, 21, 22, 24, 25, 26, 27, 28, 29]",300,145,-1,5,41,8,0.0
basic,56,30,0,0,0,16,"[0, 16]",2,17,"[3, 5, 7, 9, 11, 17, 18, 19, 20, 21, 22, 24, 25, 26, 27, 28, 29]",219.3774225,2770,2625,5,34,8,1.0
basic,56,30,0,0,0,25,"[0, 16, 25]",3,10,"[3, 5, 7, 9, 11, 18, 19, 20, 27, 29]",115.0845656,5503,2733,5,28,8,1.0336279544884488
basic,56,30,0,0,0,20,"[0, 16, 25, 20]",4,8,"[3, 5, 7, 9, 18, 19, 27, 29]",93.15285342,6154,651,4,14,8,1.0337964627284246
basic,56,30,0,0,0,27,"[0, 16, 25, 20, 27]",5,4,"[3, 5, 18, 29]",59.09408069,8120,1966,4,6,8,1.1504365534848
basic,56,30,0,0,0,3,"[0, 16, 25, 20, 27, 3]",6,3,"[5, 18, 29]",39.98910751,8844,724,4,0,8,1.1403876826835333
basic,56,30,0,0,0,29,"[0, 16, 25, 20, 27, 3, 29]",7,1,[18],21.38803228,9741,897,1,0,8,1.1443827771455848
basic,56,30,0,0,1,18,"[0, 16, 25, 20, 27, 3, 29, 18]",8,0,[],2.074824359,11368,1627,1,0,8,1.2197761544023602
basic,56,30,0,1,1,18,"[0, 16, 25, 20, 27, 3, 29, 18]",8,0,[],2.074824359,11912,544,1,0,8,1.2197761544023602
basic,57,14,0,0,0,0,[0],1,29,"[1, 2, 3, 4, 5, 6, 7, 8, 9, 10, 11, 12, 13, 14, 15, 16, 17, 18, 19, 20, 21, 22, 23, 24, 25, 26, 27, 28, 29]",300,169,-1,8,157,10,0.0
basic,57,14,0,0,0,15,"[0, 15]",2,20,"[1, 2, 3, 4, 7, 8, 9, 13, 17, 18, 19, 20, 21, 22, 23, 25, 26, 27, 28, 29]",216.7053423,7170,7001,8,102,10,1.0
basic,57,14,0,0,0,18,"[0, 15, 18]",3,13,"[1, 2, 4, 7, 8, 13, 17, 19, 20, 23, 25, 26, 28]",153.6418822,8672,1502,26,101,9,1.2185936334127205
basic,57,14,0,0,0,8,"[0, 15, 18, 8]",4,10,"[1, 2, 4, 7, 17, 19, 23, 25, 26, 28]",140.0404117,9475,803,26,60,9,1.2207454945880838
basic,57,14,0,0,0,1,"[0, 15, 18, 8, 1]",5,9,"[2, 4, 7, 17, 19, 23, 25, 26, 28]",116.4395643,10378,903,13,25,9,1.1871302560279655
basic,57,14,0,0,0,19,"[0, 15, 18, 8, 1, 19]",6,7,"[2, 4, 7, 17, 23, 25, 26]",101.208018,11170,792,11,8,9,1.3443864386012363
basic,57,14,0,0,0,26,"[0, 15, 18, 8, 1, 19, 26]",7,3,"[7, 23, 25]",47.98208451,12454,1284,2,2,9,1.2702606260227056
basic,57,14,0,0,0,23,"[0, 15, 18, 8, 1, 19, 26, 23]",8,2,"[7, 25]",37.16543069,13206,752,2,0,9,1.3982738268105899
basic,57,14,0,0,1,25,"[0, 15, 18, 8, 1, 19, 26, 23, 25]",9,0,[],7.754548349,13971,765,1,0,9,1.7854397256239447
basic,57,14,0,1,1,25,"[0, 15, 18, 8, 1, 19, 26, 23, 25]",9,0,[],7.754548349,14812,841,1,0,9,1.7854397256239447
basic,58,21,0,0,0,0,[0],1,29,"[1, 2, 3, 4, 5, 6, 7, 8, 9, 10, 11, 12, 13, 14, 15, 16, 17, 18, 19, 20, 21, 22, 23, 24, 25, 26, 27, 28, 29]",300,146,-1,84,830,9,0.0
basic,58,21,0,0,0,20,"[0, 20]",2,28,"[1, 2, 3, 4, 5, 6, 7, 8, 9, 10, 11, 12, 13, 14, 15, 16, 17, 18, 19, 21, 22, 23, 24, 25, 26, 27, 28, 29]",217.6228187,3287,3141,6,67,9,1.0
basic,58,21,0,0,0,22,"[0, 20, 22]",3,23,"[2, 4, 6, 7, 8, 9, 10, 11, 12, 13, 14, 15, 16, 17, 18, 19, 21, 23, 24, 25, 26, 27, 29]",189.3916303,4013,726,6,47,9,1.3451865712078994
basic,58,21,0,0,0,29,"[0, 20, 22, 29]",4,18,"[2, 4, 6, 7, 8, 10, 11, 12, 14, 15, 16, 17, 18, 21, 23, 24, 25, 27]",159.1261384,5409,1396,2,19,9,1.6628724818562788
basic,58,21,0,0,0,18,"[0, 20, 22, 29, 18]",5,10,"[4, 6, 10, 11, 12, 14, 17, 21, 23, 25]",130.4730408,6321,912,1,6,9,2.869631022456117
basic,58,21,0,0,0,25,"[0, 20, 22, 29, 18, 25]",6,5,"[4, 14, 17, 21, 23]",88.71181477,7808,1487,1,5,9,3.532279369684197
basic,58,21,0,0,0,23,"[0, 20, 22, 29, 18, 25, 23]",7,3,"[4, 14, 21]",45.38745672,8590,782,1,2,9,2.5713192195571195
basic,58,21,0,0,1,21,"[0, 20, 22, 29, 18, 25, 23, 21]",8,0,[],15.77327093,9669,1079,1,0,8,3.161980860177307
basic,58,21,0,1,1,21,"[0, 20, 22, 29, 18, 25, 23, 21]",8,0,[],15.77327093,10113,444,1,0,8,3.161980860177307
basic,59,9,0,0,0,0,[0],1,27,"[1, 3, 4, 5, 6, 7, 8, 9, 10, 11, 13, 14, 15, 16, 17, 18, 19, 20, 21, 22, 23, 24, 25, 26, 27, 28, 29]",300,145,-1,2,182,10,0.0
basic,59,9,0,0,0,7,"[0, 7]",2,19,"[3, 4, 5, 8, 9, 10, 11, 16, 17, 18, 19, 20, 21, 22, 23, 25, 26, 27, 28]",258.4067313,2294,2149,39,322,9,1.0
basic,59,9,0,0,0,4,"[0, 7, 4]",3,15,"[3, 8, 9, 10, 11, 18, 19, 20, 21, 22, 23, 25, 26, 27, 28]",243.4067313,3702,1408,32,159,9,1.002790151820037
basic,59,9,0,0,0,27,"[0, 7, 4, 27]",4,11,"[8, 9, 10, 11, 20, 21, 22, 23, 25, 26, 28]",181.165266,4385,683,19,48,9,2.2170504989781823
basic,59,9,0,0,0,25,"[0, 7, 4, 27, 25]",5,10,"[8, 9, 10, 11, 20, 21, 22, 23, 26, 28]",145.2626199,5273,888,17,30,9,6.425119990857526
basic,59,9,0,0,0,10,"[0, 7, 4, 27, 25, 10]",6,8,"[8, 9, 20, 21, 22, 23, 26, 28]",105.4129022,6155,882,10,7,9,3.581425027421569
basic,59,9,0,0,0,8,"[0, 7, 4, 27, 25, 10, 8]",7,4,"[9, 23, 26, 28]",57.03935571,7825,1670,5,2,9,3.8093024713254513
basic,59,9,0,0,0,23,"[0, 7, 4, 27, 25, 10, 8, 23]",8,2,"[9, 28]",35.56844516,10017,2192,2,0,9,4.441249369802066
basic,59,9,0,0,1,9,"[0, 7, 4, 27, 25, 10, 8, 23, 9]",9,0,[],13.20776538,10658,641,1,0,9,3.8513821448030896
basic,59,9,0,1,1,9,"[0, 7, 4, 27, 25, 10, 8, 23, 9]",9,0,[],13.20776538,11194,536,1,0,9,3.8513821448030896
basic,60,41,0,0,0,0,[0],1,29,"[1, 2, 3, 4, 5, 6, 7, 8, 9, 10, 11, 12, 13, 14, 15, 16, 17, 18, 19, 20, 21, 22, 23, 24, 25, 26, 27, 28, 29]",300,129,-1,1,143,10,0.0
basic,60,41,0,0,0,13,"[0, 13]",2,23,"[1, 2, 3, 5, 6, 7, 9, 10, 11, 12, 14, 15, 17, 18, 19, 20, 21, 22, 24, 25, 26, 27, 28]",258.2747079,2568,2439,1,55,10,1.0
basic,60,41,0,0,0,28,"[0, 13, 28]",3,22,"[1, 2, 3, 5, 6, 7, 9, 10, 11, 12, 14, 15, 17, 18, 19, 20, 21, 22, 24, 25, 26, 27]",223.7928286,4360,1792,1,39,10,1.895724242592676
basic,60,41,0,0,0,5,"[0, 13, 28, 5]",4,19,"[1, 2, 3, 6, 9, 10, 11, 12, 14, 15, 17, 18, 19, 20, 21, 22, 24, 25, 27]",210.1913581,5061,701,1,34,10,2.861541269398273
basic,60,41,0,0,0,22,"[0, 13, 28, 5, 22]",5,12,"[2, 3, 6, 9, 10, 11, 12, 17, 18, 20, 21, 25]",155.4464953,5944,883,11,12,9,2.096079268852861
basic,60,41,0,0,0,3,"[0, 13, 28, 5, 22, 3]",6,8,"[2, 9, 10, 12, 17, 18, 20, 21]",125.4798472,6837,893,7,5,9,4.404491319005463
basic,60,41,0,0,0,21,"[0, 13, 28, 5, 22, 3, 21]",7,4,"[2, 9, 12, 17]",93.33952984,8712,1875,5,1,9,4.228139797553632
basic,60,41,0,0,0,9,"[0, 13, 28, 5, 22, 3, 21, 9]",8,2,"[2, 17]",43.97354965,9774,1062,2,0,9,3.111188754077749
basic,60,41,0,0,1,2,"[0, 13, 28, 5, 22, 3, 21, 9, 2]",9,0,[],31.89050368,10391,617,1,0,9,2.963304814480547
basic,60,41,0,1,1,2,"[0, 13, 28, 5, 22, 3, 21, 9, 2]",9,0,[],31.89050368,12746,2355,1,0,9,2.963304814480547
basic,61,8,0,0,0,0,[0],1,29,"[1, 2, 3, 4, 5, 6, 7, 8, 9, 10, 11, 12, 13, 14, 15, 16, 17, 18, 19, 20, 21, 22, 23, 24, 25, 26, 27, 28, 29]",300,170,-1,10,149,9,0.0
basic,61,8,0,0,0,5,"[0, 5]",2,28,"[1, 2, 3, 4, 6, 7, 8, 9, 10, 11, 12, 13, 14, 15, 16, 17, 18, 19, 20, 21, 22, 23, 24, 25, 26, 27, 28, 29]",254.5137383,4738,4568,10,100,9,1.0
basic,61,8,0,0,0,25,"[0, 5, 25]",3,20,"[1, 2, 3, 4, 6, 11, 12, 14, 15, 16, 17, 18, 19, 20, 21, 22, 23, 24, 28, 29]",215.3091468,5903,1165,4,42,9,1.2272747879909065
basic,61,8,0,0,0,1,"[0, 5, 25, 1]",4,17,"[3, 4, 6, 11, 12, 14, 15, 16, 17, 18, 20, 21, 22, 23, 24, 28, 29]",190.3091468,6489,586,3,24,9,1.1770245007593956
basic,61,8,0,0,0,23,"[0, 5, 25, 1, 23]",5,15,"[3, 4, 6, 11, 14, 15, 16, 17, 18, 20, 21, 22, 24, 28, 29]",167.2874179,7073,584,1,14,9,1.141996583852372
basic,61,8,0,0,0,4,"[0, 5, 25, 1, 23, 4]",6,6,"[3, 14, 16, 18, 21, 28]",117.9518324,7987,914,3,4,8,1.115517190692443
basic,61,8,0,0,0,18,"[0, 5, 25, 1, 23, 4, 18]",7,2,"[14, 28]",74.94020603,8974,987,2,0,8,1.702606074443807
basic,61,8,0,0,1,14,"[0, 5, 25, 1, 23, 4, 18, 14]",8,0,[],17.45107663,10118,1144,1,0,8,3.306985013025639
basic,61,8,0,1,1,14,"[0, 5, 25, 1, 23, 4, 18, 14]",8,0,[],17.45107663,10513,395,1,0,8,3.306985013025639
basic,62,20,0,0,0,0,[0],1,21,"[1, 2, 3, 4, 5, 6, 7, 8, 9, 12, 17, 18, 20, 21, 22, 23, 25, 26, 27, 28, 29]",300,169,-1,1,9,9,0.0
basic,62,20,0,0,0,1,"[0, 1]",2,14,"[3, 4, 5, 6, 8, 9, 12, 20, 21, 23, 26, 27, 28, 29]",197.3501096,2120,1951,1,9,8,1.0
basic,62,20,0,0,0,27,"[0, 1, 27]",3,7,"[5, 6, 8, 9, 21, 23, 28]",109.5491984,3351,1231,4,10,6,1.0009871899390972
basic,62,20,0,0,0,8,"[0, 1, 27, 8]",4,5,"[5, 9, 21, 23, 28]",69.32482772,5604,2253,3,3,6,1.254818906868152
basic,62,20,0,0,0,21,"[0, 1, 27, 8, 21]",5,2,"[5, 28]",51.86057852,6292,688,2,0,6,1.454694036117675
basic,62,20,0,0,1,5,"[0, 1, 27, 8, 21, 5]",6,0,[],6.86057852,7304,1012,1,0,6,2.3331259128314037
basic,62,20,0,1,1,5,"[0, 1, 27, 8, 21, 5]",6,0,[],6.86057852,7696,392,1,0,6,2.3331259128314037
basic,63,13,0,0,0,0,[0],1,29,"[1, 2, 3, 4, 5, 6, 7, 8, 9, 10, 11, 12, 13, 14, 15, 16, 17, 18, 19, 20, 21, 22, 23, 24, 25, 26, 27, 28, 29]",300,163,-1,60,2676,11,0.0
basic,63,13,0,0,0,24,"[0, 24]",2,28,"[1, 2, 3, 4, 5, 6, 7, 8, 9, 10, 11, 12, 13, 14, 15, 16, 17, 18, 19, 20, 21, 22, 23, 25, 26, 27, 28, 29]",288.8196601,1852,1689,16,1444,11,1.0
basic,63,13,0,0,0,28,"[0, 24, 28]",3,23,"[1, 2, 3, 4, 6, 7, 8, 9, 10, 11, 12, 13, 15, 16, 17, 19, 20, 21, 22, 23, 26, 27, 29]",222.5324064,2677,825,8,243,11,1.0513810491680837
basic,63,13,0,0,0,2,"[0, 24, 28, 2]",4,19,"[1, 3, 4, 6, 7, 9, 11, 12, 13, 15, 16, 17, 19, 20, 21, 23, 26, 27, 29]",184.889346,4322,1645,7,110,11,1.050374132001543
basic,63,13,0,0,0,29,"[0, 24, 28, 2, 29]",5,18,"[1, 3, 4, 6, 7, 9, 11, 12, 13, 15, 16, 17, 19, 20, 21, 23, 26, 27]",173.1846461,5059,737,7,85,11,1.1393409619120594
basic,63,13,0,0,0,7,"[0, 24, 28, 2, 29, 7]",6,17,"[1, 3, 4, 6, 9, 11, 12, 13, 15, 16, 17, 19, 20, 21, 23, 26, 27]",157.9203086,6371,1312,5,45,11,1.349777315111579
basic,63,13,0,0,0,26,"[0, 24, 28, 2, 29, 7, 26]",7,16,"[1, 3, 4, 6, 9, 11, 12, 13, 15, 16, 17, 19, 20, 21, 23, 27]",147.480002,6961,590,5,25,11,1.5942082773824946
basic,63,13,0,0,0,6,"[0, 24, 28, 2, 29, 7, 26, 6]",8,12,"[1, 3, 4, 11, 13, 15, 16, 17, 19, 20, 23, 27]",127.3802508,7576,615,4,12,11,1.5898347940840756
basic,63,13,0,0,0,16,"[0, 24, 28, 2, 29, 7, 26, 6, 16]",9,3,"[3, 20, 23]",53.82754861,10372,2796,1,2,11,2.6743660300373904
basic,63,13,0,0,0,3,"[0, 24, 28, 2, 29, 7, 26, 6, 16, 3]",10,1,[20],25.3846233,11139,767,1,0,11,2.696717621944423
basic,63,13,0,0,1,20,"[0, 24, 28, 2, 29, 7, 26, 6, 16, 3, 20]",11,0,[],6.358325711,11719,580,1,0,11,2.6690286409584245
basic,63,13,0,1,1,20,"[0, 24, 28, 2, 29, 7, 26, 6, 16, 3, 20]",11,0,[],6.358325711,12380,661,1,0,11,2.6690286409584245
basic,64,11,0,0,0,0,[0],1,25,"[1, 2, 3, 4, 5, 6, 8, 9, 10, 11, 12, 13, 14, 15, 16, 17, 18, 19, 20, 22, 23, 25, 26, 27, 28]",300,162,-1,6,374,12,0.0
basic,64,11,0,0,0,18,"[0, 18]",2,21,"[1, 2, 4, 5, 6, 8, 9, 11, 12, 13, 14, 15, 16, 17, 19, 20, 22, 23, 25, 27, 28]",236.8493864,2592,2430,157,1477,11,1.0
basic,64,11,0,0,0,27,"[0, 18, 27]",3,19,"[1, 2, 4, 5, 6, 8, 9, 11, 12, 14, 15, 16, 17, 19, 20, 22, 23, 25, 28]",212.9956655,3257,665,157,1315,11,1.060949579704323
basic,64,11,0,0,0,17,"[0, 18, 27, 17]",4,14,"[1, 2, 4, 5, 6, 8, 11, 12, 15, 19, 22, 23, 25, 28]",135.9177828,4955,1698,46,349,11,1.1156120043677304
basic,64,11,0,0,0,8,"[0, 18, 27, 17, 8]",5,11,"[1, 2, 5, 6, 11, 12, 15, 19, 22, 25, 28]",121.5999617,6235,1280,26,143,11,1.2285932943120847
basic,64,11,0,0,0,15,"[0, 18, 27, 17, 8, 15]",6,9,"[2, 5, 6, 11, 12, 19, 22, 25, 28]",108.1463377,7074,839,24,54,11,1.223015425852291
basic,64,11,0,0,0,11,"[0, 18, 27, 17, 8, 15, 11]",7,6,"[2, 5, 12, 19, 22, 28]",90.03556742,7704,630,22,2,11,1.2111003833550413
basic,64,11,0,0,0,28,"[0, 18, 27, 17, 8, 15, 11, 28]",8,3,"[2, 5, 22]",70.61907959,9518,1814,6,0,11,1.3274100985292616
basic,64,11,0,0,0,5,"[0, 18, 27, 17, 8, 15, 11, 28, 5]",9,2,"[2, 22]",52.73053577,10316,798,2,0,11,1.5198534752211967
basic,64,11,0,0,0,2,"[0, 18, 27, 17, 8, 15, 11, 28, 5, 2]",10,1,[22],35.73053577,11073,757,1,0,11,1.4805999496229154
basic,64,11,0,0,1,22,"[0, 18, 27, 17, 8, 15, 11, 28, 5, 2, 22]",11,0,[],25.68066014,11735,662,1,0,11,1.4550139853626707
basic,64,11,0,1,1,22,"[0, 18, 27, 17, 8, 15, 11, 28, 5, 2, 22]",11,0,[],25.68066014,12928,1193,1,0,11,1.4550139853626707
basic,65,6,0,0,0,0,[0],1,29,"[1, 2, 3, 4, 5, 6, 7, 8, 9, 10, 11, 12, 13, 14, 15, 16, 17, 18, 19, 20, 21, 22, 23, 24, 25, 26, 27, 28, 29]",300,128,-1,180,4304,10,0.0
basic,65,6,0,0,0,26,"[0, 26]",2,25,"[1, 2, 3, 4, 5, 6, 7, 8, 9, 10, 11, 12, 13, 14, 15, 16, 17, 18, 20, 21, 22, 23, 24, 27, 29]",250.2606795,1734,1606,45,776,10,1.0
basic,65,6,0,0,0,7,"[0, 26, 7]",3,24,"[1, 2, 3, 4, 5, 6, 8, 9, 10, 11, 12, 13, 14, 15, 16, 17, 18, 20, 21, 22, 23, 24, 27, 29]",226.1774904,3152,1418,25,520,10,1.5373018630243536
basic,65,6,0,0,0,3,"[0, 26, 7, 3]",4,22,"[1, 2, 4, 6, 8, 9, 10, 11, 12, 13, 14, 15, 16, 17, 18, 20, 21, 22, 23, 24, 27, 29]",190.0388684,3841,689,20,235,10,3.2798655773210936
basic,65,6,0,0,0,18,"[0, 26, 7, 3, 18]",5,17,"[1, 2, 6, 8, 10, 11, 13, 14, 16, 17, 20, 21, 22, 23, 24, 27, 29]",161.0388684,6139,2298,12,95,10,2.2817335351582497
basic,65,6,0,0,0,17,"[0, 26, 7, 3, 18, 17]",6,14,"[1, 2, 6, 8, 10, 13, 14, 16, 21, 22, 23, 24, 27, 29]",147.1104801,7419,1280,7,40,10,2.166304221519952
basic,65,6,0,0,0,10,"[0, 26, 7, 3, 18, 17, 10]",7,10,"[2, 6, 8, 13, 16, 22, 23, 24, 27, 29]",127.3873972,8158,739,6,14,10,2.0465180096074933
basic,65,6,0,0,0,24,"[0, 26, 7, 3, 18, 17, 10, 24]",8,7,"[2, 6, 16, 22, 23, 27, 29]",113.9709893,11256,3098,6,3,10,1.9120419940880518
basic,65,6,0,0,0,23,"[0, 26, 7, 3, 18, 17, 10, 24, 23]",9,3,"[6, 22, 29]",52.78275515,12937,1681,3,0,10,1.8421369153343572
basic,65,6,0,0,1,22,"[0, 26, 7, 3, 18, 17, 10, 24, 23, 22]",10,0,[],11.78275515,13955,1018,1,0,10,1.8510104393224558
basic,65,6,0,1,1,22,"[0, 26, 7, 3, 18, 17, 10, 24, 23, 22]",10,0,[],11.78275515,14995,1040,1,0,10,1.8510104393224558
basic,66,19,0,0,0,0,[0],1,29,"[1, 2, 3, 4, 5, 6, 7, 8, 9, 10, 11, 12, 13, 14, 15, 16, 17, 18, 19, 20, 21, 22, 23, 24, 25, 26, 27, 28, 29]",300,166,-1,12,149,8,0.0
basic,66,19,0,0,0,12,"[0, 12]",2,15,"[1, 2, 3, 5, 8, 9, 13, 16, 17, 18, 19, 21, 23, 25, 29]",180.3964883,2054,1888,9,58,7,1.0
basic,66,19,0,0,0,17,"[0, 12, 17]",3,11,"[1, 2, 3, 8, 13, 16, 18, 19, 23, 25, 29]",160.2718765,5079,3025,6,25,7,1.0081383695928103
basic,66,19,0,0,0,25,"[0, 12, 17, 25]",4,10,"[1, 2, 3, 8, 13, 16, 18, 19, 23, 29]",149.2265155,5739,660,6,16,7,1.1056437189959143
basic,66,19,0,0,0,23,"[0, 12, 17, 25, 23]",5,6,"[1, 2, 3, 8, 18, 19]",79.58457415,6772,1033,3,4,7,1.2258550858033517
basic,66,19,0,0,0,3,"[0, 12, 17, 25, 23, 3]",6,2,"[8, 18]",57.65286195,7457,685,2,0,7,1.2025561392684052
basic,66,19,0,0,1,8,"[0, 12, 17, 25, 23, 3, 8]",7,0,[],34.32905437,8522,1065,1,0,7,1.2191744156192352
basic,66,19,0,1,1,8,"[0, 12, 17, 25, 23, 3, 8]",7,0,[],34.32905437,9733,1211,1,0,7,1.2191744156192352
basic,67,27,0,0,0,0,[0],1,26,"[1, 3, 5, 6, 7, 8, 9, 10, 11, 12, 13, 14, 15, 16, 17, 18, 19, 21, 22, 23, 24, 25, 26, 27, 28, 29]",300,145,-1,13,578,11,0.0
basic,67,27,0,0,0,15,"[0, 15]",2,24,"[1, 3, 5, 6, 7, 8, 9, 10, 11, 12, 13, 14, 16, 17, 18, 19, 21, 22, 23, 24, 25, 26, 27, 29]",263.7508621,2018,1873,6,219,11,1.0
basic,67,27,0,0,0,24,"[0, 15, 24]",3,20,"[1, 5, 6, 7, 8, 9, 10, 12, 13, 14, 16, 17, 18, 19, 21, 23, 25, 26, 27, 29]",246.5462115,3061,1043,6,130,11,1.130933077698322
basic,67,27,0,0,0,17,"[0, 15, 24, 17]",4,15,"[1, 6, 8, 10, 12, 13, 14, 16, 18, 19, 23, 25, 26, 27, 29]",229.9932662,4586,1525,4,60,11,1.1285538435963374
basic,67,27,0,0,0,12,"[0, 15, 24, 17, 12]",5,14,"[1, 6, 8, 10, 13, 14, 16, 18, 19, 23, 25, 26, 27, 29]",218.8129263,5183,597,2,32,11,1.2561880288755216
basic,67,27,0,0,0,10,"[0, 15, 24, 17, 12, 10]",6,11,"[1, 8, 13, 14, 18, 19, 23, 25, 26, 27, 29]",207.7675653,6170,987,2,28,11,1.2228289337766665
basic,67,27,0,0,0,13,"[0, 15, 24, 17, 12, 10, 13]",7,9,"[1, 8, 14, 18, 19, 23, 26, 27, 29]",167.9178476,7103,933,2,18,11,1.3421291994761178
basic,67,27,0,0,0,19,"[0, 15, 24, 17, 12, 10, 13, 19]",8,5,"[1, 8, 14, 23, 29]",131.6825057,8294,1191,2,6,11,1.294749956153846
basic,67,27,0,0,0,8,"[0, 15, 24, 17, 12, 10, 13, 19, 8]",9,3,"[14, 23, 29]",116.816437,10826,2532,2,1,11,1.3554286578836865
basic,67,27,0,0,0,29,"[0, 15, 24, 17, 12, 10, 13, 19, 8, 29]",10,1,[14],57.61339652,12588,1762,1,0,11,1.248354519573802
basic,67,27,0,0,1,14,"[0, 15, 24, 17, 12, 10, 13, 19, 8, 29, 14]",11,0,[],13.31892734,14874,2286,1,0,11,1.562811097555156
basic,67,27,0,1,1,14,"[0, 15, 24, 17, 12, 10, 13, 19, 8, 29, 14]",11,0,[],13.31892734,15528,654,1,0,11,1.562811097555156
basic,68,3,0,0,0,0,[0],1,29,"[1, 2, 3, 4, 5, 6, 7, 8, 9, 10, 11, 12, 13, 14, 15, 16, 17, 18, 19, 20, 21, 22, 23, 24, 25, 26, 27, 28, 29]",300,147,-1,34,427,10,0.0
basic,68,3,0,0,0,8,"[0, 8]",2,28,"[1, 2, 3, 4, 5, 6, 7, 9, 10, 11, 12, 13, 14, 15, 16, 17, 18, 19, 20, 21, 22, 23, 24, 25, 26, 27, 28, 29]",239.9666759,2658,2511,1,54,10,1.0
basic,68,3,0,0,0,4,"[0, 8, 4]",3,17,"[3, 5, 6, 7, 10, 11, 14, 15, 16, 17, 18, 19, 20, 21, 22, 24, 28]",184.3069957,3974,1316,3,17,9,1.0096590348420695
basic,68,3,0,0,0,10,"[0, 8, 4, 10]",4,8,"[3, 5, 14, 17, 19, 20, 21, 24]",130.4832092,4864,890,5,20,8,1.076584646085381
basic,68,3,0,0,0,14,"[0, 8, 4, 10, 14]",5,6,"[3, 17, 19, 20, 21, 24]",85.02993645,5723,859,3,8,8,1.6702530163743392
basic,68,3,0,0,0,21,"[0, 8, 4, 10, 14, 21]",6,2,"[3, 19]",58.12268835,6520,797,1,1,8,1.5729882329541136
basic,68,3,0,0,0,19,"[0, 8, 4, 10, 14, 21, 19]",7,1,[3],45.91613274,7805,1285,1,0,8,1.7216630278163432
basic,68,3,0,0,1,3,"[0, 8, 4, 10, 14, 21, 19, 3]",8,0,[],8.579823333,8846,1041,1,0,8,2.3294985593323174
basic,68,3,0,1,1,3,"[0, 8, 4, 10, 14, 21, 19, 3]",8,0,[],8.579823333,9414,568,1,0,8,2.3294985593323174
undo,69,38,0,0,0,0,[0],1,29,"[1, 2, 3, 4, 5, 6, 7, 8, 9, 10, 11, 12, 13, 14, 15, 16, 17, 18, 19, 20, 21, 22, 23, 24, 25, 26, 27, 28, 29]",300,175,-1,33,506,9,0.0
undo,69,38,0,0,0,19,"[0, 19]",2,23,"[3, 4, 5, 6, 7, 8, 9, 11, 13, 14, 15, 16, 17, 18, 20, 22, 23, 24, 25, 26, 27, 28, 29]",219.5015528,2026,1851,6,61,9,1.0
undo,69,38,0,0,0,17,"[0, 19, 17]",3,21,"[3, 4, 5, 6, 7, 9, 11, 13, 14, 15, 16, 18, 20, 22, 23, 24, 25, 26, 27, 28, 29]",198.1239945,4238,2212,6,53,9,1.571793785769489
undo,69,38,0,0,0,20,"[0, 19, 17, 20]",4,17,"[3, 4, 5, 6, 7, 11, 13, 14, 15, 16, 18, 22, 24, 25, 26, 27, 28]",174.3542658,5214,976,6,44,9,2.333182710277297
undo,69,38,0,0,0,15,"[0, 19, 17, 20, 15]",5,9,"[4, 5, 11, 13, 14, 16, 24, 26, 28]",118.8925673,8127,2913,10,14,8,2.468219326855957
undo,69,38,0,0,0,4,"[0, 19, 17, 20, 15, 4]",6,6,"[11, 13, 16, 24, 26, 28]",92.89256734,8763,636,4,3,8,2.953858913055544
undo,69,38,0,0,0,13,"[0, 19, 17, 20, 15, 4, 13]",7,1,[26],61.4919304,9537,774,1,0,8,2.4401159229489866
undo,69,38,0,0,1,26,"[0, 19, 17, 20, 15, 4, 13, 26]",8,0,[],30.44358101,12605,3068,1,0,8,2.1410906006451786
undo,69,38,0,1,1,26,"[0, 19, 17, 20, 15, 4, 13, 26]",8,0,[],30.44358101,16114,3509,1,0,8,2.1410906006451786
undo,70,16,0,0,0,0,[0],1,29,"[1, 2, 3, 4, 5, 6, 7, 8, 9, 10, 11, 12, 13, 14, 15, 16, 17, 18, 19, 20, 21, 22, 23, 24, 25, 26, 27, 28, 29]",300,157,-1,13,161,9,0.0
undo,70,16,0,0,0,17,"[0, 17]",2,27,"[1, 2, 3, 4, 5, 7, 8, 9, 10, 11, 12, 13, 14, 15, 16, 18, 19, 20, 21, 22, 23, 24, 25, 26, 27, 28, 29]",241.3058776,2565,2408,2,58,9,1.0
undo,70,16,0,0,0,16,"[0, 17, 16]",3,26,"[1, 2, 3, 4, 5, 7, 8, 9, 10, 11, 12, 13, 14, 15, 18, 19, 20, 21, 22, 23, 24, 25, 26, 27, 28, 29]",212.9862731,3464,899,2,52,9,1.0529535521792848
undo,70,16,0,0,0,8,"[0, 17, 16, 8]",4,19,"[2, 3, 4, 5, 9, 12, 13, 14, 15, 19, 20, 21, 22, 23, 25, 26, 27, 28, 29]",164.6127266,5554,2090,2,38,9,1.0915134501573105
undo,70,16,0,0,0,20,"[0, 17, 16, 8, 20]",5,10,"[3, 4, 5, 9, 12, 13, 15, 19, 21, 25]",106.8372993,6528,974,1,15,9,1.067523143001942
undo,70,16,0,0,0,25,"[0, 17, 16, 8, 20, 25]",6,7,"[3, 4, 5, 9, 12, 13, 15]",94.18818869,7813,1285,1,9,9,1.1170093326933646
undo,70,16,0,0,0,9,"[0, 17, 16, 8, 20, 25, 9]",7,5,"[3, 4, 5, 13, 15]",81.38194021,8989,1176,1,4,9,1.1095076562662525
undo,70,16,0,0,0,15,"[0, 17, 16, 8, 20, 25, 9, 15]",8,1,[5],42.48463953,10406,1417,1,0,9,1.213831159678775
undo,70,16,0,0,1,5,"[0, 17, 16, 8, 20, 25, 9, 15, 5]",9,0,[],13.0567616,11496,1090,1,0,9,1.5171779607523481
undo,70,16,0,1,1,5,"[0, 17, 16, 8, 20, 25, 9, 15, 5]",9,0,[],13.0567616,12323,827,1,0,9,1.5171779607523481
undo,71,9,0,0,0,0,[0],1,27,"[1, 3, 4, 5, 6, 7, 8, 9, 10, 11, 13, 14, 15, 16, 17, 18, 19, 20, 21, 22, 23, 24, 25, 26, 27, 28, 29]",300,177,-1,2,182,10,0.0
undo,71,9,0,0,0,8,"[0, 8]",2,25,"[1, 3, 4, 5, 6, 7, 9, 10, 11, 13, 14, 15, 16, 17, 18, 19, 20, 21, 22, 23, 24, 25, 26, 27, 28]",236.2191251,2188,2011,2,102,9,1.0
undo,71,9,0,0,0,28,"[0, 8, 28]",3,23,"[1, 3, 4, 5, 6, 7, 9, 10, 11, 13, 15, 16, 17, 18, 19, 20, 21, 22, 23, 24, 25, 26, 27]",225.4024713,3222,1034,2,52,9,1.0043219354187498
undo,71,9,0,0,0,26,"[0, 8, 28, 26]",4,22,"[1, 3, 4, 5, 6, 7, 9, 10, 11, 13, 15, 16, 17, 18, 19, 20, 21, 22, 23, 24, 25, 27]",180.6252449,7741,4519,2,14,9,1.0218284416881065
undo,71,9,0,0,0,18,"[0, 8, 28, 26, 18]",5,13,"[1, 3, 5, 6, 9, 13, 15, 16, 19, 20, 21, 23, 24]",119.7483199,8901,1160,2,6,9,1.0343247703783052
undo,71,9,0,0,0,5,"[0, 8, 28, 26, 18, 5]",6,3,"[1, 13, 24]",55.85778854,10100,1199,2,4,9,1.0965846847367935
undo,71,9,0,0,0,24,"[0, 8, 28, 26, 18, 5, 24]",7,2,"[1, 13]",27.83993709,11067,967,2,0,8,1.0898528425767793
undo,71,9,0,0,1,13,"[0, 8, 28, 26, 18, 5, 24, 13]",8,0,[],10.34708141,12120,1053,1,0,8,1.2438789791072593
undo,71,9,0,1,1,13,"[0, 8, 28, 26, 18, 5, 24, 13]",8,0,[],10.34708141,13044,924,1,0,8,1.2438789791072593
undo,72,26,0,0,0,0,[0],1,29,"[1, 2, 3, 4, 5, 6, 7, 8, 9, 10, 11, 12, 13, 14, 15, 16, 17, 18, 19, 20, 21, 22, 23, 24, 25, 26, 27, 28, 29]",300,146,-1,9,226,9,0.0
undo,72,26,0,0,0,4,"[0, 4]",2,13,"[5, 6, 10, 12, 13, 14, 16, 17, 19, 21, 23, 26, 29]",178.7976898,2170,2024,4,118,8,1.0
undo,72,26,0,0,0,10,"[0, 4, 10]",3,5,"[6, 14, 16, 17, 29]",128.5881289,3012,842,1,11,8,1.0592893513500627
undo,72,26,0,0,0,6,"[0, 4, 10, 6]",4,4,"[14, 16, 17, 29]",99.31356661,3820,808,1,7,8,1.249516025811376
undo,72,26,0,0,0,14,"[0, 4, 10, 6, 14]",5,3,"[16, 17, 29]",78.28977057,4654,834,1,3,8,1.3757824228717679
undo,72,26,0,0,0,17,"[0, 4, 10, 6, 14, 17]",6,2,"[16, 29]",55.81756552,5592,938,1,1,8,1.7185295938563587
undo,72,26,0,0,0,29,"[0, 4, 10, 6, 14, 17, 29]",7,1,[16],25.40375286,6670,1078,1,0,8,2.2473188452438926
undo,72,26,0,0,1,16,"[0, 4, 10, 6, 14, 17, 29, 16]",8,0,[],1.196315991,7775,1105,1,0,8,2.669167047452515
undo,72,26,0,1,1,16,"[0, 4, 10, 6, 14, 17, 29, 16]",8,0,[],1.196315991,8213,438,1,0,8,2.669167047452515
undo,73,21,0,0,0,0,[0],1,29,"[1, 2, 3, 4, 5, 6, 7, 8, 9, 10, 11, 12, 13, 14, 15, 16, 17, 18, 19, 20, 21, 22, 23, 24, 25, 26, 27, 28, 29]",300,129,-1,84,830,9,0.0
undo,73,21,0,0,0,21,"[0, 21]",2,22,"[1, 3, 4, 6, 8, 9, 10, 11, 12, 14, 15, 16, 17, 18, 20, 22, 23, 24, 25, 26, 27, 29]",210.1111798,2070,1941,1,69,9,1.0
undo,73,21,0,0,0,14,"[0, 21, 14]",3,15,"[1, 4, 6, 8, 9, 15, 16, 17, 18, 20, 22, 23, 24, 25, 29]",184.4986828,2909,839,35,96,8,1.0083702391721483
undo,73,21,0,0,0,16,"[0, 21, 14, 16]",4,8,"[4, 8, 15, 17, 23, 24, 25, 29]",126.8011959,4537,1628,9,10,7,1.0611325282315165
undo,73,21,0,0,0,8,"[0, 21, 14, 16, 8]",5,4,"[4, 15, 23, 24]",108.2001206,5526,989,5,1,7,1.0586343030510974
undo,73,21,0,0,0,15,"[0, 21, 14, 16, 8, 15]",6,3,"[4, 23, 24]",83.20012065,6302,776,3,0,7,1.2878317064350118
undo,73,21,0,0,1,23,"[0, 21, 14, 16, 8, 15, 23]",7,0,[],11.33218621,8149,1847,1,0,7,2.9152416770351137
undo,73,21,0,1,1,23,"[0, 21, 14, 16, 8, 15, 23]",7,0,[],11.33218621,8565,416,1,0,7,2.9152416770351137
undo,74,36,0,0,0,0,[0],1,24,"[2, 4, 5, 6, 7, 8, 9, 10, 12, 13, 14, 15, 16, 17, 18, 19, 20, 22, 23, 25, 26, 27, 28, 29]",300,145,-1,2,200,10,0.0
undo,74,36,0,0,0,18,"[0, 18]",2,21,"[2, 4, 5, 6, 7, 8, 9, 10, 12, 13, 14, 16, 17, 19, 22, 23, 25, 26, 27, 28, 29]",279.6039219,6478,6333,2,110,10,1.0
undo,74,36,0,0,0,16,"[0, 18, 16]",3,9,"[2, 9, 10, 12, 13, 17, 19, 23, 25]",169.581197,7871,1393,4,33,9,1.2218591943452424
undo,74,36,0,0,0,17,"[0, 18, 16, 17]",4,7,"[2, 9, 10, 12, 13, 19, 25]",141.2615925,8668,797,4,21,9,1.6795129314662942
undo,74,36,0,0,0,9,"[0, 18, 16, 17, 9]",5,5,"[2, 12, 13, 19, 25]",115.012783,9504,836,3,6,9,2.6784437443596194
undo,74,36,0,0,0,19,"[0, 18, 16, 17, 9, 19]",6,4,"[2, 12, 13, 25]",99.88003706,10186,682,3,3,9,2.5963344600994773
undo,74,36,0,0,0,2,"[0, 18, 16, 17, 9, 19, 2]",7,2,"[13, 25]",62.75861467,11761,1575,2,0,9,2.100797884988348
undo,74,36,0,0,0,25,"[0, 18, 16, 17, 9, 19, 2, 25]",8,1,[13],37.75861467,13574,1813,1,0,9,2.290514334927331
undo,74,36,0,0,1,13,"[0, 18, 16, 17, 9, 19, 2, 25, 13]",9,0,[],17.16735439,14418,844,1,0,9,2.883646365994176
undo,74,36,0,1,1,13,"[0, 18, 16, 17, 9, 19, 2, 25, 13]",9,0,[],17.16735439,14912,494,1,0,9,2.883646365994176
undo,75,6,0,0,0,0,[0],1,29,"[1, 2, 3, 4, 5, 6, 7, 8, 9, 10, 11, 12, 13, 14, 15, 16, 17, 18, 19, 20, 21, 22, 23, 24, 25, 26, 27, 28, 29]",300,147,-1,180,4304,10,0.0
undo,75,6,0,0,0,26,"[0, 26]",2,25,"[1, 2, 3, 4, 5, 6, 7, 8, 9, 10, 11, 12, 13, 14, 15, 16, 17, 18, 20, 21, 22, 23, 24, 27, 29]",250.2606795,2026,1879,45,776,10,1.0
undo,75,6,0,0,0,2,"[0, 26, 2]",3,20,"[1, 3, 4, 5, 6, 7, 8, 9, 10, 13, 14, 16, 17, 18, 21, 22, 23, 24, 27, 29]",220.4278118,2924,898,20,184,10,1.003152463832065
undo,75,6,0,0,0,3,"[0, 26, 2, 3]",4,14,"[1, 6, 7, 8, 10, 13, 16, 17, 18, 21, 22, 23, 24, 29]",143.4862755,5072,2148,19,91,9,4.668413010091896
undo,75,6,0,0,0,16,"[0, 26, 2, 3, 16]",5,10,"[6, 7, 10, 13, 17, 18, 22, 23, 24, 29]",97.24776342,6237,1165,3,12,9,2.808968001907014
undo,75,6,0,0,0,18,"[0, 26, 2, 3, 16, 18]",6,5,"[7, 10, 17, 24, 29]",73.90252836,6971,734,2,5,9,3.712507068094999
undo,75,6,0,0,0,17,"[0, 26, 2, 3, 16, 18, 17]",7,3,"[7, 10, 24]",59.97414009,7973,1002,2,1,9,3.400946212252378
undo,75,6,0,0,0,10,"[0, 26, 2, 3, 16, 18, 17, 10]",8,1,[24],40.25105716,8836,863,1,0,9,3.0796180630825143
undo,75,6,0,0,1,24,"[0, 26, 2, 3, 16, 18, 17, 10, 24]",9,0,[],26.8346493,9520,684,1,0,9,2.807646075753656
undo,75,6,0,1,1,24,"[0, 26, 2, 3, 16, 18, 17, 10, 24]",9,0,[],26.8346493,10397,877,1,0,9,2.807646075753656
undo,76,8,0,0,0,0,[0],1,29,"[1, 2, 3, 4, 5, 6, 7, 8, 9, 10, 11, 12, 13, 14, 15, 16, 17, 18, 19, 20, 21, 22, 23, 24, 25, 26, 27, 28, 29]",300,146,-1,10,149,9,0.0
undo,76,8,0,0,0,5,"[0, 5]",2,28,"[1, 2, 3, 4, 6, 7, 8, 9, 10, 11, 12, 13, 14, 15, 16, 17, 18, 19, 20, 21, 22, 23, 24, 25, 26, 27, 28, 29]",254.5137383,1653,1507,10,100,9,1.0
undo,76,8,0,0,0,25,"[0, 5, 25]",3,20,"[1, 2, 3, 4, 6, 11, 12, 14, 15, 16, 17, 18, 19, 20, 21, 22, 23, 24, 28, 29]",215.3091468,3602,1949,4,42,9,1.2272747879909065
undo,76,8,0,0,0,1,"[0, 5, 25, 1]",4,17,"[3, 4, 6, 11, 12, 14, 15, 16, 17, 18, 20, 21, 22, 23, 24, 28, 29]",190.3091468,4853,1251,3,24,9,1.1770245007593956
undo,76,8,0,0,0,23,"[0, 5, 25, 1, 23]",5,15,"[3, 4, 6, 11, 14, 15, 16, 17, 18, 20, 21, 22, 24, 28, 29]",167.2874179,5489,636,1,14,9,1.141996583852372
undo,76,8,0,0,0,18,"[0, 5, 25, 1, 23, 18]",6,9,"[3, 4, 11, 14, 15, 16, 17, 24, 28]",125.5261919,6454,965,1,7,9,1.3199166330970717
undo,76,8,0,0,0,28,"[0, 5, 25, 1, 23, 18, 28]",7,1,[16],59.906073,7870,1416,1,0,8,1.425373059246715
undo,76,8,0,0,1,16,"[0, 5, 25, 1, 23, 18, 28, 16]",8,0,[],37.54539323,10788,2918,1,0,8,1.4175143337764708
undo,76,8,0,1,1,16,"[0, 5, 25, 1, 23, 18, 28, 16]",8,0,[],37.54539323,11679,891,1,0,8,1.4175143337764708
undo,77,23,0,0,0,0,[0],1,28,"[1, 2, 3, 4, 5, 6, 7, 8, 9, 10, 11, 12, 13, 14, 15, 16, 17, 18, 19, 20, 21, 22, 23, 25, 26, 27, 28, 29]",300,163,-1,76,2626,10,0.0
undo,77,23,0,0,0,13,"[0, 13]",2,19,"[1, 2, 3, 5, 6, 7, 8, 9, 10, 12, 14, 17, 18, 19, 21, 22, 23, 27, 29]",189.3202819,4938,4775,9,168,10,1.0
undo,77,23,0,0,0,12,"[0, 13, 12]",3,16,"[1, 2, 3, 6, 7, 8, 9, 10, 14, 17, 18, 21, 22, 23, 27, 29]",177.2372359,5609,671,9,96,10,1.0014195490503164
undo,77,23,0,0,0,27,"[0, 13, 12, 27]",4,8,"[2, 6, 7, 9, 14, 18, 22, 29]",136.4450798,6693,1084,9,47,9,1.1423171128985576
undo,77,23,0,0,0,6,"[0, 13, 12, 27, 6]",5,7,"[2, 7, 9, 14, 18, 22, 29]",108.1431364,8987,2294,8,17,9,1.2769758961851159
undo,77,23,0,0,0,2,"[0, 13, 12, 27, 6, 2]",6,5,"[7, 9, 14, 22, 29]",89.7040475,9737,750,6,5,9,1.5410950091689495
undo,77,23,0,0,0,9,"[0, 13, 12, 27, 6, 2, 9]",7,4,"[7, 14, 22, 29]",76.66564269,10725,988,3,2,9,1.709430702885355
undo,77,23,0,0,0,14,"[0, 13, 12, 27, 6, 2, 9, 14]",8,2,"[22, 29]",66.22533618,11593,868,2,0,9,1.659270475552586
undo,77,23,0,0,1,29,"[0, 13, 12, 27, 6, 2, 9, 14, 29]",9,0,[],18.79117128,13453,1860,1,0,9,1.8235724666747484
undo,77,23,0,1,1,29,"[0, 13, 12, 27, 6, 2, 9, 14, 29]",9,0,[],18.79117128,14747,1294,1,0,9,1.8235724666747484
undo,78,30,0,0,0,0,[0],1,19,"[3, 4, 5, 7, 9, 11, 16, 17, 18, 19, 20, 21, 22, 24, 25, 26, 27, 28, 29]",300,163,-1,5,41,8,0.0
undo,78,30,0,0,0,16,"[0, 16]",2,17,"[3, 5, 7, 9, 11, 17, 18, 19, 20, 21, 22, 24, 25, 26, 27, 28, 29]",219.3774225,2104,1941,5,34,8,1.0
undo,78,30,0,0,0,25,"[0, 16, 25]",3,10,"[3, 5, 7, 9, 11, 18, 19, 20, 27, 29]",115.0845656,4202,2098,5,28,8,1.0336279544884488
undo,78,30,0,0,0,27,"[0, 16, 25, 27]",4,7,"[3, 5, 7, 18, 19, 20, 29]",75.52448473,5786,1584,1,12,8,1.0719738181137488
undo,78,30,0,0,0,3,"[0, 16, 25, 27, 3]",5,5,"[5, 7, 18, 20, 29]",56.41951155,7174,1388,1,4,8,1.0683252001879187
undo,78,30,0,0,0,18,"[0, 16, 25, 27, 3, 18]",6,2,"[5, 29]",38.17122396,7947,773,2,0,7,1.071988954484303
undo,78,30,0,0,1,29,"[0, 16, 25, 27, 3, 18, 29]",7,0,[],18.85801605,9855,1908,1,0,7,1.1547746746049952
undo,78,30,0,1,1,29,"[0, 16, 25, 27, 3, 18, 29]",7,0,[],18.85801605,10616,761,1,0,7,1.1547746746049952
undo,79,5,0,0,0,0,[0],1,29,"[1, 2, 3, 4, 5, 6, 7, 8, 9, 10, 11, 12, 13, 14, 15, 16, 17, 18, 19, 20, 21, 22, 23, 24, 25, 26, 27, 28, 29]",300,169,-1,5,139,9,0.0
