condition,trial_id,map_id,undoIndicator,submit,checkEnd,currentChoice,chosen_all,n_city_all,n_within_reach,cities_reach,currentBudget,time_all,rt_all,n_opt_paths_all,n_subopt_paths_all,mas_all,tortuosity_all
undo,0,26,0,0,0,0,[0],1,29,"[1, 2, 3, 4, 5, 6, 7, 8, 9, 10, 11, 12, 13, 14, 15, 16, 17, 18, 19, 20, 21, 22, 23, 24, 25, 26, 27, 28, 29]",300,158,-1,9,226,9,0.0
undo,0,26,0,0,0,12,"[0, 12]",2,26,"[1, 2, 3, 4, 5, 6, 8, 10, 11, 13, 14, 15, 16, 17, 18, 19, 20, 21, 22, 23, 24, 25, 26, 27, 28, 29]",279.8753882,15585,15427,2,80,9,1.0
undo,0,26,0,0,0,4,"[0, 12, 4]",3,11,"[5, 6, 10, 13, 14, 16, 17, 19, 21, 23, 29]",149.4108336,17616,2031,16,95,8,1.242461188572386
undo,0,26,0,0,0,17,"[0, 12, 4, 17]",4,8,"[6, 10, 13, 14, 16, 21, 23, 29]",128.3158105,18965,1349,4,24,8,1.2082947779651163
undo,0,26,0,0,0,6,"[0, 12, 4, 17, 6]",5,4,"[10, 14, 16, 29]",108.1911987,20308,1343,2,6,8,1.1942420175970017
undo,0,26,0,0,0,14,"[0, 12, 4, 17, 6, 14]",6,3,"[10, 16, 29]",87.16740268,20955,647,2,1,8,1.3206938947282516
undo,0,26,0,0,0,29,"[0, 12, 4, 17, 6, 14, 29]",7,1,[16],45.93634642,21993,1038,1,0,8,2.0792783678895326
undo,0,26,0,0,1,16,"[0, 12, 4, 17, 6, 14, 29, 16]",8,0,[],21.72890955,22866,873,1,0,8,2.485752568115748
undo,0,26,1,0,0,29,"[0, 12, 4, 17, 6, 14, 29]",7,1,[16],45.93634642,25875,3009,1,0,8,2.0792783678895326
undo,0,26,1,0,0,14,"[0, 12, 4, 17, 6, 14]",6,3,"[10, 16, 29]",87.16740268,26058,183,2,1,8,1.3206938947282516
undo,0,26,1,0,0,6,"[0, 12, 4, 17, 6]",5,4,"[10, 14, 16, 29]",108.1911987,26242,184,2,6,8,1.1942420175970017
undo,0,26,1,0,0,17,"[0, 12, 4, 17]",4,8,"[6, 10, 13, 14, 16, 21, 23, 29]",128.3158105,26408,166,4,24,8,1.2082947779651163
undo,0,26,1,0,0,4,"[0, 12, 4]",3,11,"[5, 6, 10, 13, 14, 16, 17, 19, 21, 23, 29]",149.4108336,26592,184,16,95,8,1.242461188572386
undo,0,26,1,0,0,12,"[0, 12]",2,26,"[1, 2, 3, 4, 5, 6, 8, 10, 11, 13, 14, 15, 16, 17, 18, 19, 20, 21, 22, 23, 24, 25, 26, 27, 28, 29]",279.8753882,26875,283,2,80,9,1.0
undo,0,26,1,0,0,0,[0],1,29,"[1, 2, 3, 4, 5, 6, 7, 8, 9, 10, 11, 12, 13, 14, 15, 16, 17, 18, 19, 20, 21, 22, 23, 24, 25, 26, 27, 28, 29]",300,31708,4833,9,226,9,0.0
undo,0,26,0,0,0,10,"[0, 10]",2,6,"[4, 6, 14, 16, 17, 29]",138.1822012,35674,3966,9,66,7,1.0
undo,0,26,0,0,0,6,"[0, 10, 6]",3,5,"[4, 14, 16, 17, 29]",108.9076389,36749,1075,8,23,7,1.1897813099332413
undo,0,26,0,0,0,14,"[0, 10, 6, 14]",4,4,"[4, 16, 17, 29]",87.88384285,37672,923,4,6,7,1.3162481558218453
undo,0,26,0,0,0,17,"[0, 10, 6, 14, 17]",5,3,"[4, 16, 29]",65.41163779,38555,883,3,1,7,1.6510075497064465
undo,0,26,0,0,0,4,"[0, 10, 6, 14, 17, 4]",6,1,[29],44.31661468,39623,1068,1,0,7,2.1095586782058087
undo,0,26,0,0,1,29,"[0, 10, 6, 14, 17, 4, 29]",7,0,[],20.31661468,40383,760,1,0,7,2.288952413143475
undo,0,26,1,0,0,4,"[0, 10, 6, 14, 17, 4]",6,1,[29],44.31661468,43808,3425,1,0,7,2.1095586782058087
undo,0,26,1,0,0,17,"[0, 10, 6, 14, 17]",5,3,"[4, 16, 29]",65.41163779,44242,434,3,1,7,1.6510075497064465
undo,0,26,1,0,0,14,"[0, 10, 6, 14]",4,4,"[4, 16, 17, 29]",87.88384285,44558,316,4,6,7,1.3162481558218453
undo,0,26,1,0,0,6,"[0, 10, 6]",3,5,"[4, 14, 16, 17, 29]",108.9076389,44792,234,8,23,7,1.1897813099332413
undo,0,26,1,0,0,10,"[0, 10]",2,6,"[4, 6, 14, 16, 17, 29]",138.1822012,45108,316,9,66,7,1.0
undo,0,26,1,0,0,0,[0],1,29,"[1, 2, 3, 4, 5, 6, 7, 8, 9, 10, 11, 12, 13, 14, 15, 16, 17, 18, 19, 20, 21, 22, 23, 24, 25, 26, 27, 28, 29]",300,45475,367,9,226,9,0.0
undo,0,26,0,0,0,4,"[0, 4]",2,13,"[5, 6, 10, 12, 13, 14, 16, 17, 19, 21, 23, 26, 29]",178.7976898,47434,1959,4,118,8,1.0
undo,0,26,0,0,0,17,"[0, 4, 17]",3,10,"[5, 6, 10, 12, 13, 14, 16, 21, 23, 29]",157.7026667,48633,1199,1,35,8,1.0014732588101924
undo,0,26,0,0,0,6,"[0, 4, 17, 6]",4,6,"[10, 14, 16, 21, 23, 29]",137.5780549,51016,2383,10,11,7,1.011273258075741
undo,0,26,0,0,0,14,"[0, 4, 17, 6, 14]",5,4,"[10, 16, 23, 29]",116.5542588,51749,733,5,2,7,1.1383391147196797
undo,0,26,0,0,0,29,"[0, 4, 17, 6, 14, 29]",6,3,"[10, 16, 23]",75.32320259,52569,820,3,0,7,1.8387738585921345
undo,0,26,0,0,1,16,"[0, 4, 17, 6, 14, 29, 16]",7,0,[],51.11576571,53433,864,1,0,7,2.2232443318112174
undo,0,26,1,0,0,29,"[0, 4, 17, 6, 14, 29]",6,3,"[10, 16, 23]",75.32320259,55825,2392,3,0,7,1.8387738585921345
undo,0,26,1,0,0,14,"[0, 4, 17, 6, 14]",5,4,"[10, 16, 23, 29]",116.5542588,56092,267,5,2,7,1.1383391147196797
undo,0,26,1,0,0,6,"[0, 4, 17, 6]",4,6,"[10, 14, 16, 21, 23, 29]",137.5780549,56308,216,10,11,7,1.011273258075741
undo,0,26,1,0,0,17,"[0, 4, 17]",3,10,"[5, 6, 10, 12, 13, 14, 16, 21, 23, 29]",157.7026667,56525,217,1,35,8,1.0014732588101924
undo,0,26,1,0,0,4,"[0, 4]",2,13,"[5, 6, 10, 12, 13, 14, 16, 17, 19, 21, 23, 26, 29]",178.7976898,56725,200,4,118,8,1.0
undo,0,26,1,0,0,0,[0],1,29,"[1, 2, 3, 4, 5, 6, 7, 8, 9, 10, 11, 12, 13, 14, 15, 16, 17, 18, 19, 20, 21, 22, 23, 24, 25, 26, 27, 28, 29]",300,56992,267,9,226,9,0.0
undo,0,26,0,0,0,12,"[0, 12]",2,26,"[1, 2, 3, 4, 5, 6, 8, 10, 11, 13, 14, 15, 16, 17, 18, 19, 20, 21, 22, 23, 24, 25, 26, 27, 28, 29]",279.8753882,59416,2424,2,80,9,1.0
undo,0,26,0,0,0,4,"[0, 12, 4]",3,11,"[5, 6, 10, 13, 14, 16, 17, 19, 21, 23, 29]",149.4108336,62005,2589,16,95,8,1.242461188572386
undo,0,26,0,0,0,17,"[0, 12, 4, 17]",4,8,"[6, 10, 13, 14, 16, 21, 23, 29]",128.3158105,63333,1328,4,24,8,1.2082947779651163
undo,0,26,0,0,0,6,"[0, 12, 4, 17, 6]",5,4,"[10, 14, 16, 29]",108.1911987,64666,1333,2,6,8,1.1942420175970017
undo,0,26,0,0,0,14,"[0, 12, 4, 17, 6, 14]",6,3,"[10, 16, 29]",87.16740268,66190,1524,2,1,8,1.3206938947282516
undo,0,26,0,0,0,29,"[0, 12, 4, 17, 6, 14, 29]",7,1,[16],45.93634642,67151,961,1,0,8,2.0792783678895326
undo,0,26,0,0,1,16,"[0, 12, 4, 17, 6, 14, 29, 16]",8,0,[],21.72890955,68367,1216,1,0,8,2.485752568115748
undo,0,26,0,1,1,16,"[0, 12, 4, 17, 6, 14, 29, 16]",8,0,[],21.72890955,70442,2075,1,0,8,2.485752568115748
undo,1,41,0,0,0,0,[0],1,29,"[1, 2, 3, 4, 5, 6, 7, 8, 9, 10, 11, 12, 13, 14, 15, 16, 17, 18, 19, 20, 21, 22, 23, 24, 25, 26, 27, 28, 29]",300,144,-1,1,143,10,0.0
undo,1,41,0,0,0,13,"[0, 13]",2,23,"[1, 2, 3, 5, 6, 7, 9, 10, 11, 12, 14, 15, 17, 18, 19, 20, 21, 22, 24, 25, 26, 27, 28]",258.2747079,12278,12134,1,55,10,1.0
undo,1,41,0,0,0,28,"[0, 13, 28]",3,22,"[1, 2, 3, 5, 6, 7, 9, 10, 11, 12, 14, 15, 17, 18, 19, 20, 21, 22, 24, 25, 26, 27]",223.7928286,14035,1757,1,39,10,1.895724242592676
undo,1,41,0,0,0,5,"[0, 13, 28, 5]",4,19,"[1, 2, 3, 6, 9, 10, 11, 12, 14, 15, 17, 18, 19, 20, 21, 22, 24, 25, 27]",210.1913581,14785,750,1,34,10,2.861541269398273
undo,1,41,0,0,0,3,"[0, 13, 28, 5, 3]",5,16,"[1, 2, 6, 9, 10, 12, 14, 17, 18, 19, 20, 21, 22, 24, 25, 27]",175.3632086,16169,1384,1,22,10,3.1455488489005883
undo,1,41,0,0,0,21,"[0, 13, 28, 5, 3, 21]",6,14,"[1, 2, 6, 9, 10, 12, 14, 17, 18, 19, 20, 22, 25, 27]",143.2228912,17078,909,13,11,9,3.207558429289677
undo,1,41,0,0,0,9,"[0, 13, 28, 5, 3, 21, 9]",7,6,"[1, 2, 10, 12, 14, 17]",93.85691102,17970,892,7,4,9,2.5050148501792275
undo,1,41,0,0,0,2,"[0, 13, 28, 5, 3, 21, 9, 2]",8,5,"[1, 10, 12, 14, 17]",81.77386505,18435,465,5,0,9,2.4119643847713177
undo,1,41,0,0,1,17,"[0, 13, 28, 5, 3, 21, 9, 2, 17]",9,0,[],49.21622385,19254,819,1,0,9,3.9563478735796007
undo,1,41,1,0,0,2,"[0, 13, 28, 5, 3, 21, 9, 2]",8,5,"[1, 10, 12, 14, 17]",81.77386505,26944,7690,5,0,9,2.4119643847713177
undo,1,41,0,0,1,17,"[0, 13, 28, 5, 3, 21, 9, 2, 17]",9,0,[],49.21622385,29004,2060,1,0,9,3.9563478735796007
undo,1,41,1,0,0,2,"[0, 13, 28, 5, 3, 21, 9, 2]",8,5,"[1, 10, 12, 14, 17]",81.77386505,30779,1775,5,0,9,2.4119643847713177
undo,1,41,1,0,0,9,"[0, 13, 28, 5, 3, 21, 9]",7,6,"[1, 2, 10, 12, 14, 17]",93.85691102,36794,6015,7,4,9,2.5050148501792275
undo,1,41,1,0,0,21,"[0, 13, 28, 5, 3, 21]",6,14,"[1, 2, 6, 9, 10, 12, 14, 17, 18, 19, 20, 22, 25, 27]",143.2228912,38595,1801,13,11,9,3.207558429289677
undo,1,41,0,0,0,17,"[0, 13, 28, 5, 3, 21, 17]",7,3,"[2, 9, 10]",91.5605258,42175,3580,2,1,9,3.2883270328778007
undo,1,41,0,0,0,9,"[0, 13, 28, 5, 3, 21, 17, 9]",8,1,[2],60.54440096,45986,3811,1,0,9,2.9098226601812454
undo,1,41,0,0,1,2,"[0, 13, 28, 5, 3, 21, 17, 9, 2]",9,0,[],48.46135498,46760,774,1,0,9,2.780153959656953
undo,1,41,1,0,0,9,"[0, 13, 28, 5, 3, 21, 17, 9]",8,1,[2],60.54440096,48396,1636,1,0,9,2.9098226601812454
undo,1,41,1,0,0,17,"[0, 13, 28, 5, 3, 21, 17]",7,3,"[2, 9, 10]",91.5605258,48644,248,2,1,9,3.2883270328778007
undo,1,41,1,0,0,21,"[0, 13, 28, 5, 3, 21]",6,14,"[1, 2, 6, 9, 10, 12, 14, 17, 18, 19, 20, 22, 25, 27]",143.2228912,48911,267,13,11,9,3.207558429289677
undo,1,41,0,0,0,17,"[0, 13, 28, 5, 3, 21, 17]",7,3,"[2, 9, 10]",91.5605258,62205,13294,2,1,9,3.2883270328778007
undo,1,41,0,0,1,10,"[0, 13, 28, 5, 3, 21, 17, 10]",8,0,[],42.31623679,63669,1464,1,0,8,3.0459414131081206
undo,1,41,1,0,0,17,"[0, 13, 28, 5, 3, 21, 17]",7,3,"[2, 9, 10]",91.5605258,64745,1076,2,1,9,3.2883270328778007
undo,1,41,1,0,0,21,"[0, 13, 28, 5, 3, 21]",6,14,"[1, 2, 6, 9, 10, 12, 14, 17, 18, 19, 20, 22, 25, 27]",143.2228912,65012,267,13,11,9,3.207558429289677
undo,1,41,1,0,0,3,"[0, 13, 28, 5, 3]",5,16,"[1, 2, 6, 9, 10, 12, 14, 17, 18, 19, 20, 21, 22, 24, 25, 27]",175.3632086,65212,200,1,22,10,3.1455488489005883
undo,1,41,1,0,0,5,"[0, 13, 28, 5]",4,19,"[1, 2, 3, 6, 9, 10, 11, 12, 14, 15, 17, 18, 19, 20, 21, 22, 24, 25, 27]",210.1913581,65562,350,1,34,10,2.861541269398273
undo,1,41,1,0,0,28,"[0, 13, 28]",3,22,"[1, 2, 3, 5, 6, 7, 9, 10, 11, 12, 14, 15, 17, 18, 19, 20, 21, 22, 24, 25, 26, 27]",223.7928286,65928,366,1,39,10,1.895724242592676
undo,1,41,1,0,0,13,"[0, 13]",2,23,"[1, 2, 3, 5, 6, 7, 9, 10, 11, 12, 14, 15, 17, 18, 19, 20, 21, 22, 24, 25, 26, 27, 28]",258.2747079,66261,333,1,55,10,1.0
undo,1,41,1,0,0,0,[0],1,29,"[1, 2, 3, 4, 5, 6, 7, 8, 9, 10, 11, 12, 13, 14, 15, 16, 17, 18, 19, 20, 21, 22, 23, 24, 25, 26, 27, 28, 29]",300,68295,2034,1,143,10,0.0
undo,1,41,0,0,0,13,"[0, 13]",2,23,"[1, 2, 3, 5, 6, 7, 9, 10, 11, 12, 14, 15, 17, 18, 19, 20, 21, 22, 24, 25, 26, 27, 28]",258.2747079,70703,2408,1,55,10,1.0
undo,1,41,0,0,0,28,"[0, 13, 28]",3,22,"[1, 2, 3, 5, 6, 7, 9, 10, 11, 12, 14, 15, 17, 18, 19, 20, 21, 22, 24, 25, 26, 27]",223.7928286,71974,1271,1,39,10,1.895724242592676
undo,1,41,0,0,0,5,"[0, 13, 28, 5]",4,19,"[1, 2, 3, 6, 9, 10, 11, 12, 14, 15, 17, 18, 19, 20, 21, 22, 24, 25, 27]",210.1913581,72803,829,1,34,10,2.861541269398273
undo,1,41,0,0,0,22,"[0, 13, 28, 5, 22]",5,12,"[2, 3, 6, 9, 10, 11, 12, 17, 18, 20, 21, 25]",155.4464953,74709,1906,11,12,9,2.096079268852861
undo,1,41,0,0,0,3,"[0, 13, 28, 5, 22, 3]",6,8,"[2, 9, 10, 12, 17, 18, 20, 21]",125.4798472,75707,998,7,5,9,4.404491319005463
undo,1,41,0,0,0,21,"[0, 13, 28, 5, 22, 3, 21]",7,4,"[2, 9, 12, 17]",93.33952984,76802,1095,5,1,9,4.228139797553632
undo,1,41,0,0,0,9,"[0, 13, 28, 5, 22, 3, 21, 9]",8,2,"[2, 17]",43.97354965,78419,1617,2,0,9,3.111188754077749
undo,1,41,0,0,1,2,"[0, 13, 28, 5, 22, 3, 21, 9, 2]",9,0,[],31.89050368,79205,786,1,0,9,2.963304814480547
undo,1,41,0,1,1,2,"[0, 13, 28, 5, 22, 3, 21, 9, 2]",9,0,[],31.89050368,83178,3973,1,0,9,2.963304814480547
undo,2,15,0,0,0,0,[0],1,25,"[1, 2, 3, 4, 7, 8, 9, 10, 11, 12, 13, 14, 15, 16, 18, 20, 21, 22, 23, 24, 25, 26, 27, 28, 29]",300,191,-1,4,65,9,0.0
undo,2,15,0,0,0,7,"[0, 7]",2,23,"[1, 3, 4, 8, 9, 10, 11, 12, 13, 14, 15, 16, 18, 20, 21, 22, 23, 24, 25, 26, 27, 28, 29]",215.1884442,6273,6082,30,107,8,1.0
undo,2,15,0,0,0,11,"[0, 7, 11]",3,18,"[3, 4, 8, 9, 10, 12, 13, 14, 15, 16, 18, 20, 21, 22, 23, 25, 27, 29]",173.7035072,7498,1225,12,34,8,1.0171318876095128
undo,2,15,0,0,0,3,"[0, 7, 11, 3]",4,13,"[4, 10, 12, 13, 14, 15, 16, 18, 20, 21, 22, 25, 27]",162.3017529,8056,558,7,21,8,1.0401878806820521
undo,2,15,0,0,0,16,"[0, 7, 11, 3, 16]",5,9,"[4, 10, 12, 13, 14, 15, 18, 21, 22]",137.2218805,8870,814,5,6,8,1.4258499651326737
undo,2,15,0,0,0,22,"[0, 7, 11, 3, 16, 22]",6,4,"[4, 13, 14, 15]",78.36612462,11005,2135,2,2,8,1.284645195326425
undo,2,15,0,0,0,15,"[0, 7, 11, 3, 16, 22, 15]",7,1,[13],52.75362767,11916,911,1,0,8,1.2590218300860974
undo,2,15,0,0,1,13,"[0, 7, 11, 3, 16, 22, 15, 13]",8,0,[],37.48929015,12814,898,1,0,8,1.3103278820622872
undo,2,15,1,0,0,15,"[0, 7, 11, 3, 16, 22, 15]",7,1,[13],52.75362767,16858,4044,1,0,8,1.2590218300860974
undo,2,15,1,0,0,22,"[0, 7, 11, 3, 16, 22]",6,4,"[4, 13, 14, 15]",78.36612462,23341,6483,2,2,8,1.284645195326425
undo,2,15,1,0,0,16,"[0, 7, 11, 3, 16]",5,9,"[4, 10, 12, 13, 14, 15, 18, 21, 22]",137.2218805,23641,300,5,6,8,1.4258499651326737
undo,2,15,0,0,0,22,"[0, 7, 11, 3, 16, 22]",6,4,"[4, 13, 14, 15]",78.36612462,28316,4675,2,2,8,1.284645195326425
undo,2,15,0,0,0,15,"[0, 7, 11, 3, 16, 22, 15]",7,1,[13],52.75362767,28948,632,1,0,8,1.2590218300860974
undo,2,15,0,0,1,13,"[0, 7, 11, 3, 16, 22, 15, 13]",8,0,[],37.48929015,29771,823,1,0,8,1.3103278820622872
undo,2,15,0,1,1,13,"[0, 7, 11, 3, 16, 22, 15, 13]",8,0,[],37.48929015,32074,2303,1,0,8,1.3103278820622872
undo,3,31,0,0,0,0,[0],1,27,"[1, 3, 4, 5, 6, 7, 8, 10, 11, 12, 13, 14, 15, 16, 17, 18, 19, 20, 21, 22, 23, 24, 25, 26, 27, 28, 29]",300,153,-1,2,87,10,0.0
undo,3,31,0,0,0,14,"[0, 14]",2,25,"[1, 3, 5, 6, 7, 8, 10, 11, 12, 13, 15, 16, 17, 18, 19, 20, 21, 22, 23, 24, 25, 26, 27, 28, 29]",263.861378,5934,5781,2,59,10,1.0
undo,3,31,0,0,0,27,"[0, 14, 27]",3,22,"[1, 3, 5, 6, 7, 8, 10, 11, 12, 13, 15, 16, 17, 18, 19, 20, 21, 22, 24, 25, 28, 29]",235.6833724,7668,1734,1,39,10,1.5881859159302467
undo,3,31,0,0,0,8,"[0, 14, 27, 8]",4,20,"[1, 3, 5, 6, 7, 10, 11, 12, 13, 16, 17, 18, 19, 20, 21, 22, 24, 25, 28, 29]",224.6380114,8442,774,1,36,10,2.1665048452331277
undo,3,31,0,0,0,18,"[0, 14, 27, 8, 18]",5,15,"[1, 5, 6, 7, 11, 12, 13, 16, 17, 19, 20, 22, 25, 28, 29]",188.7911147,9984,1542,1,26,10,1.7273375741920205
undo,3,31,0,0,0,17,"[0, 14, 27, 8, 18, 17]",6,13,"[1, 5, 6, 7, 11, 12, 13, 16, 19, 20, 22, 25, 28]",159.584951,11039,1055,1,13,10,1.551192427769927
undo,3,31,0,0,0,11,"[0, 14, 27, 8, 18, 17, 11]",7,7,"[5, 12, 16, 19, 22, 25, 28]",118.4753414,11883,844,1,4,10,2.9650760544203494
undo,3,31,0,0,0,5,"[0, 14, 27, 8, 18, 17, 11, 5]",8,2,"[16, 28]",74.79468207,13234,1351,1,1,10,2.56711965625205
undo,3,31,0,0,0,28,"[0, 14, 27, 8, 18, 17, 11, 5, 28]",9,1,[16],54.57093365,14468,1234,1,0,10,2.2865510762058148
undo,3,31,0,0,1,16,"[0, 14, 27, 8, 18, 17, 11, 5, 28, 16]",10,0,[],20.95546102,15867,1399,1,0,10,2.089356850786318
undo,3,31,0,1,1,16,"[0, 14, 27, 8, 18, 17, 11, 5, 28, 16]",10,0,[],20.95546102,18210,2343,1,0,10,2.089356850786318
undo,4,37,0,0,0,0,[0],1,29,"[1, 2, 3, 4, 5, 6, 7, 8, 9, 10, 11, 12, 13, 14, 15, 16, 17, 18, 19, 20, 21, 22, 23, 24, 25, 26, 27, 28, 29]",300,167,-1,6,168,10,0.0
undo,4,37,0,0,0,9,"[0, 9]",2,28,"[1, 2, 3, 4, 5, 6, 7, 8, 10, 11, 12, 13, 14, 15, 16, 17, 18, 19, 20, 21, 22, 23, 24, 25, 26, 27, 28, 29]",275.7925631,10337,10170,45,289,9,1.0
undo,4,37,0,0,0,18,"[0, 9, 18]",3,15,"[1, 2, 4, 6, 7, 10, 15, 17, 19, 20, 21, 22, 26, 28, 29]",172.2068498,12434,2097,33,160,9,1.3094770236215172
undo,4,37,0,0,0,2,"[0, 9, 18, 2]",4,9,"[1, 4, 7, 15, 19, 20, 21, 22, 26]",113.5127275,13923,1489,8,33,9,1.2336091651811387
undo,4,37,0,0,0,4,"[0, 9, 18, 2, 4]",5,8,"[1, 7, 15, 19, 20, 21, 22, 26]",102.1109732,14847,924,7,13,9,1.2175308229199928
undo,4,37,0,0,0,1,"[0, 9, 18, 2, 4, 1]",6,7,"[7, 15, 19, 20, 21, 22, 26]",84.39092806,15784,937,7,4,9,1.3618622314301452
undo,4,37,0,0,0,20,"[0, 9, 18, 2, 4, 1, 20]",7,4,"[15, 19, 21, 26]",50.15644253,17034,1250,3,2,9,1.666772333178314
undo,4,37,0,0,0,21,"[0, 9, 18, 2, 4, 1, 20, 21]",8,2,"[15, 26]",35.73423743,17754,720,2,0,9,1.702815425198547
undo,4,37,0,0,1,15,"[0, 9, 18, 2, 4, 1, 20, 21, 15]",9,0,[],20.73423743,19334,1580,1,0,9,1.6783089175942751
undo,4,37,1,0,0,21,"[0, 9, 18, 2, 4, 1, 20, 21]",8,2,"[15, 26]",35.73423743,23643,4309,2,0,9,1.702815425198547
undo,4,37,1,0,0,20,"[0, 9, 18, 2, 4, 1, 20]",7,4,"[15, 19, 21, 26]",50.15644253,26960,3317,3,2,9,1.666772333178314
undo,4,37,0,0,0,15,"[0, 9, 18, 2, 4, 1, 20, 15]",8,1,[21],33.15644253,28603,1643,1,0,9,1.6036549485446703
undo,4,37,0,0,1,21,"[0, 9, 18, 2, 4, 1, 20, 15, 21]",9,0,[],18.15644253,29684,1081,1,0,9,1.8160792093740243
undo,4,37,0,1,1,21,"[0, 9, 18, 2, 4, 1, 20, 15, 21]",9,0,[],18.15644253,32726,3042,1,0,9,1.8160792093740243
undo,5,32,0,0,0,0,[0],1,29,"[1, 2, 3, 4, 5, 6, 7, 8, 9, 10, 11, 12, 13, 14, 15, 16, 17, 18, 19, 20, 21, 22, 23, 24, 25, 26, 27, 28, 29]",300,146,-1,17,359,10,0.0
undo,5,32,0,0,0,19,"[0, 19]",2,28,"[1, 2, 3, 4, 5, 6, 7, 8, 9, 10, 11, 12, 13, 14, 15, 16, 17, 18, 20, 21, 22, 23, 24, 25, 26, 27, 28, 29]",283.5075775,6170,6024,16,294,10,1.0
undo,5,32,0,0,0,13,"[0, 19, 13]",3,24,"[2, 3, 4, 5, 6, 8, 9, 10, 11, 12, 14, 15, 16, 17, 18, 20, 21, 22, 23, 24, 25, 26, 27, 28]",260.3127505,7687,1517,14,227,10,1.0172874229878615
undo,5,32,0,0,0,15,"[0, 19, 13, 15]",4,18,"[2, 3, 5, 8, 9, 10, 11, 12, 16, 17, 20, 22, 23, 24, 25, 26, 27, 28]",177.4393531,9786,2099,9,116,10,1.435447391509833
undo,5,32,0,0,0,28,"[0, 19, 13, 15, 28]",5,17,"[2, 3, 5, 8, 9, 10, 11, 12, 16, 17, 20, 22, 23, 24, 25, 26, 27]",166.0375988,10569,783,9,70,10,1.3843701324937985
undo,5,32,0,0,0,12,"[0, 19, 13, 15, 28, 12]",6,14,"[2, 3, 5, 8, 9, 10, 11, 16, 17, 20, 22, 24, 26, 27]",147.0639329,11437,868,6,35,10,1.358372254952329
undo,5,32,0,0,0,16,"[0, 19, 13, 15, 28, 12, 16]",7,13,"[2, 3, 5, 8, 9, 10, 11, 17, 20, 22, 24, 26, 27]",131.411457,12122,685,5,15,10,1.4356932930709845
undo,5,32,0,0,0,22,"[0, 19, 13, 15, 28, 12, 16, 22]",8,6,"[2, 8, 9, 17, 20, 27]",97.57360838,13087,965,3,5,10,1.4335226411545752
undo,5,32,0,0,0,9,"[0, 19, 13, 15, 28, 12, 16, 22, 9]",9,3,"[2, 8, 20]",75.37000507,13637,550,3,0,10,1.4837166378374758
undo,5,32,0,0,1,8,"[0, 19, 13, 15, 28, 12, 16, 22, 9, 8]",10,0,[],30.24794838,14837,1200,1,0,10,1.3767698817641267
undo,5,32,0,1,1,8,"[0, 19, 13, 15, 28, 12, 16, 22, 9, 8]",10,0,[],30.24794838,16597,1760,1,0,10,1.3767698817641267
undo,6,40,0,0,0,0,[0],1,29,"[1, 2, 3, 4, 5, 6, 7, 8, 9, 10, 11, 12, 13, 14, 15, 16, 17, 18, 19, 20, 21, 22, 23, 24, 25, 26, 27, 28, 29]",300,166,-1,8,191,9,0.0
undo,6,40,0,0,0,1,"[0, 1]",2,18,"[2, 5, 6, 7, 8, 9, 10, 11, 13, 15, 17, 18, 19, 21, 22, 23, 27, 29]",247.8463808,5055,4889,4,80,9,1.0
undo,6,40,0,0,0,6,"[0, 1, 6]",3,17,"[2, 5, 7, 8, 9, 10, 11, 13, 15, 17, 18, 19, 21, 22, 23, 27, 29]",227.7466295,5733,678,4,74,9,1.0459427008232034
undo,6,40,0,0,0,21,"[0, 1, 6, 21]",4,8,"[2, 5, 9, 17, 18, 19, 22, 23]",175.7754837,10216,4483,4,25,9,1.0308822257404064
undo,6,40,1,0,0,6,"[0, 1, 6]",3,17,"[2, 5, 7, 8, 9, 10, 11, 13, 15, 17, 18, 19, 21, 22, 23, 27, 29]",227.7466295,11092,876,4,74,9,1.0459427008232034
undo,6,40,0,0,0,9,"[0, 1, 6, 9]",4,10,"[2, 5, 8, 11, 18, 19, 21, 22, 23, 27]",159.146338,12718,1626,17,39,8,1.142098432552584
undo,6,40,0,0,0,18,"[0, 1, 6, 9, 18]",5,9,"[2, 5, 8, 11, 19, 21, 22, 23, 27]",142.5933926,13403,685,13,14,8,1.3288108654802917
undo,6,40,0,0,0,23,"[0, 1, 6, 9, 18, 23]",6,6,"[2, 5, 8, 19, 21, 22]",108.5933926,14331,928,6,4,8,2.0180513009829646
undo,6,40,0,0,0,5,"[0, 1, 6, 9, 18, 23, 5]",7,2,"[19, 22]",80.29144922,15565,1234,2,0,8,1.786484562843798
undo,6,40,0,0,1,19,"[0, 1, 6, 9, 18, 23, 5, 19]",8,0,[],42.21258369,16617,1052,1,0,8,2.512757983735243
undo,6,40,1,0,0,5,"[0, 1, 6, 9, 18, 23, 5]",7,2,"[19, 22]",80.29144922,18260,1643,2,0,8,1.786484562843798
undo,6,40,1,0,0,23,"[0, 1, 6, 9, 18, 23]",6,6,"[2, 5, 8, 19, 21, 22]",108.5933926,18542,282,6,4,8,2.0180513009829646
undo,6,40,0,0,0,19,"[0, 1, 6, 9, 18, 23, 19]",7,4,"[2, 5, 8, 22]",76.640302,20383,1841,4,0,8,2.1771771191471494
undo,6,40,0,0,1,5,"[0, 1, 6, 9, 18, 23, 19, 5]",8,0,[],38.56143647,22383,2000,1,0,8,2.1257978181562813
undo,6,40,0,1,1,5,"[0, 1, 6, 9, 18, 23, 19, 5]",8,0,[],38.56143647,23976,1593,1,0,8,2.1257978181562813
undo,7,25,0,0,0,0,[0],1,28,"[1, 2, 3, 4, 5, 7, 8, 9, 10, 11, 12, 13, 14, 15, 16, 17, 18, 19, 20, 21, 22, 23, 24, 25, 26, 27, 28, 29]",300,168,-1,5,94,10,0.0
undo,7,25,0,0,0,23,"[0, 23]",2,23,"[1, 2, 3, 5, 7, 8, 9, 11, 12, 13, 14, 16, 17, 19, 20, 21, 22, 24, 25, 26, 27, 28, 29]",259.7756293,6652,6484,3,33,10,1.0
undo,7,25,0,0,0,19,"[0, 23, 19]",3,21,"[1, 2, 3, 5, 7, 8, 9, 11, 12, 13, 14, 16, 17, 20, 21, 22, 24, 25, 27, 28, 29]",223.9287326,9116,2464,3,24,10,1.583101227007039
undo,7,25,0,0,0,29,"[0, 23, 19, 29]",4,19,"[1, 2, 3, 5, 7, 8, 9, 11, 12, 13, 14, 16, 17, 20, 21, 22, 24, 25, 28]",207.649912,9633,517,3,17,10,1.474631541426484
undo,7,25,0,0,0,22,"[0, 23, 19, 29, 22]",5,18,"[1, 2, 3, 5, 7, 8, 9, 11, 12, 13, 14, 16, 17, 20, 21, 24, 25, 28]",191.5253965,10218,585,3,14,10,1.4020377754906637
undo,7,25,0,0,0,7,"[0, 23, 19, 29, 22, 7]",6,7,"[3, 8, 9, 11, 13, 24, 28]",115.8814939,11868,1650,3,11,10,1.5709678649326715
undo,7,25,0,0,0,24,"[0, 23, 19, 29, 22, 7, 24]",7,5,"[3, 8, 9, 13, 28]",91.12265712,12934,1066,3,7,10,1.486191600033379
undo,7,25,0,0,0,9,"[0, 23, 19, 29, 22, 7, 24, 9]",8,4,"[3, 8, 13, 28]",73.09490075,14468,1534,3,3,10,1.453504870342882
undo,7,25,1,0,0,24,"[0, 23, 19, 29, 22, 7, 24]",7,5,"[3, 8, 9, 13, 28]",91.12265712,15660,1192,3,7,10,1.486191600033379
undo,7,25,0,0,0,9,"[0, 23, 19, 29, 22, 7, 24, 9]",8,4,"[3, 8, 13, 28]",73.09490075,17440,1780,3,3,10,1.453504870342882
undo,7,25,0,0,0,3,"[0, 23, 19, 29, 22, 7, 24, 9, 3]",9,3,"[8, 13, 28]",42.82940885,19983,2543,3,0,10,1.388955167525479
undo,7,25,0,0,1,28,"[0, 23, 19, 29, 22, 7, 24, 9, 3, 28]",10,0,[],11.52445716,21134,1151,1,0,10,1.3331084120212044
undo,7,25,0,1,1,28,"[0, 23, 19, 29, 22, 7, 24, 9, 3, 28]",10,0,[],11.52445716,22560,1426,1,0,10,1.3331084120212044
undo,8,22,0,0,0,0,[0],1,29,"[1, 2, 3, 4, 5, 6, 7, 8, 9, 10, 11, 12, 13, 14, 15, 16, 17, 18, 19, 20, 21, 22, 23, 24, 25, 26, 27, 28, 29]",300,149,-1,31,704,9,0.0
undo,8,22,0,0,0,25,"[0, 25]",2,22,"[2, 4, 6, 7, 8, 9, 11, 12, 13, 14, 15, 16, 17, 18, 19, 20, 21, 22, 24, 27, 28, 29]",232.8807032,117324,117175,1,18,8,1.0
undo,8,22,1,0,0,0,[0],1,29,"[1, 2, 3, 4, 5, 6, 7, 8, 9, 10, 11, 12, 13, 14, 15, 16, 17, 18, 19, 20, 21, 22, 23, 24, 25, 26, 27, 28, 29]",300,126733,9409,31,704,9,0.0
undo,8,22,0,0,0,29,"[0, 29]",2,22,"[1, 3, 5, 6, 7, 8, 9, 11, 13, 14, 15, 16, 17, 19, 20, 21, 22, 23, 24, 25, 27, 28]",222.9935068,129609,2876,11,235,9,1.0
undo,8,22,0,0,0,19,"[0, 29, 19]",3,18,"[1, 3, 6, 7, 8, 9, 13, 14, 15, 16, 17, 20, 21, 22, 23, 24, 25, 28]",207.9602104,130680,1071,11,172,9,1.1559285443414686
undo,8,22,0,0,0,9,"[0, 29, 19, 9]",4,16,"[1, 3, 6, 7, 8, 13, 14, 15, 16, 17, 20, 21, 22, 24, 25, 28]",187.5641323,134131,3451,7,84,9,1.2555028175473422
undo,8,22,0,0,0,6,"[0, 29, 19, 9, 6]",5,13,"[3, 7, 13, 14, 15, 16, 17, 20, 21, 22, 24, 25, 28]",160.9370784,135915,1784,17,16,8,1.5692551066355458
undo,8,22,0,0,0,28,"[0, 29, 19, 9, 6, 28]",6,5,"[7, 14, 16, 17, 22]",130.9370784,137191,1276,5,2,8,1.5285578577513508
undo,8,22,0,0,0,16,"[0, 29, 19, 9, 6, 28, 16]",7,1,[22],96.49872771,138012,821,1,0,8,2.5001967567448653
undo,8,22,0,0,1,22,"[0, 29, 19, 9, 6, 28, 16, 22]",8,0,[],8.039697643,139191,1179,1,0,8,2.084367549440744
undo,8,22,1,0,0,16,"[0, 29, 19, 9, 6, 28, 16]",7,1,[22],96.49872771,141866,2675,1,0,8,2.5001967567448653
undo,8,22,1,0,0,28,"[0, 29, 19, 9, 6, 28]",6,5,"[7, 14, 16, 17, 22]",130.9370784,142117,251,5,2,8,1.5285578577513508
undo,8,22,1,0,0,6,"[0, 29, 19, 9, 6]",5,13,"[3, 7, 13, 14, 15, 16, 17, 20, 21, 22, 24, 25, 28]",160.9370784,142500,383,17,16,8,1.5692551066355458
undo,8,22,1,0,0,9,"[0, 29, 19, 9]",4,16,"[1, 3, 6, 7, 8, 13, 14, 15, 16, 17, 20, 21, 22, 24, 25, 28]",187.5641323,142766,266,7,84,9,1.2555028175473422
undo,8,22,1,0,0,19,"[0, 29, 19]",3,18,"[1, 3, 6, 7, 8, 9, 13, 14, 15, 16, 17, 20, 21, 22, 23, 24, 25, 28]",207.9602104,142983,217,11,172,9,1.1559285443414686
undo,8,22,1,0,0,29,"[0, 29]",2,22,"[1, 3, 5, 6, 7, 8, 9, 11, 13, 14, 15, 16, 17, 19, 20, 21, 22, 23, 24, 25, 27, 28]",222.9935068,143250,267,11,235,9,1.0
undo,8,22,0,0,0,19,"[0, 29, 19]",3,18,"[1, 3, 6, 7, 8, 9, 13, 14, 15, 16, 17, 20, 21, 22, 23, 24, 25, 28]",207.9602104,145981,2731,11,172,9,1.1559285443414686
undo,8,22,0,0,0,9,"[0, 29, 19, 9]",4,16,"[1, 3, 6, 7, 8, 13, 14, 15, 16, 17, 20, 21, 22, 24, 25, 28]",187.5641323,146725,744,7,84,9,1.2555028175473422
undo,8,22,0,0,0,6,"[0, 29, 19, 9, 6]",5,13,"[3, 7, 13, 14, 15, 16, 17, 20, 21, 22, 24, 25, 28]",160.9370784,148500,1775,17,16,8,1.5692551066355458
undo,8,22,0,0,0,14,"[0, 29, 19, 9, 6, 14]",6,6,"[7, 16, 17, 21, 24, 28]",98.16765912,149460,960,4,4,8,1.5580516067557377
undo,8,22,0,0,0,7,"[0, 29, 19, 9, 6, 14, 7]",7,3,"[17, 21, 24]",85.12925431,150428,968,3,0,8,1.708500985723867
undo,8,22,0,0,1,17,"[0, 29, 19, 9, 6, 14, 7, 17]",8,0,[],43.51195021,152459,2031,1,0,8,1.6230495434240886
undo,8,22,1,0,0,7,"[0, 29, 19, 9, 6, 14, 7]",7,3,"[17, 21, 24]",85.12925431,154734,2275,3,0,8,1.708500985723867
undo,8,22,0,0,1,24,"[0, 29, 19, 9, 6, 14, 7, 24]",8,0,[],18.09941021,158743,4009,1,0,8,2.101630019689309
undo,8,22,0,1,1,24,"[0, 29, 19, 9, 6, 14, 7, 24]",8,0,[],18.09941021,161484,2741,1,0,8,2.101630019689309
undo,9,18,0,0,0,0,[0],1,28,"[1, 2, 3, 4, 5, 6, 7, 8, 9, 10, 11, 12, 13, 14, 16, 17, 18, 19, 20, 21, 22, 23, 24, 25, 26, 27, 28, 29]",300,176,-1,3,136,10,0.0
undo,9,18,0,0,0,26,"[0, 26]",2,27,"[1, 2, 3, 4, 5, 6, 7, 8, 9, 10, 11, 12, 13, 14, 16, 17, 18, 19, 20, 21, 22, 23, 24, 25, 27, 28, 29]",258.0238163,6056,5880,1,61,10,1.0
undo,9,18,0,0,0,23,"[0, 26, 23]",3,24,"[1, 2, 3, 4, 5, 6, 7, 8, 9, 10, 12, 13, 14, 16, 17, 18, 19, 20, 21, 24, 25, 27, 28, 29]",239.422741,6859,803,1,60,10,1.576763070488403
undo,9,18,0,0,0,28,"[0, 26, 23, 28]",4,8,"[1, 3, 7, 8, 9, 13, 14, 25]",149.3727549,8938,2079,7,25,9,2.3695130664004544
undo,9,18,0,0,0,7,"[0, 26, 23, 28, 7]",5,6,"[1, 3, 8, 13, 14, 25]",127.3500394,9723,785,7,17,9,2.8936199139679126
undo,9,18,0,0,0,25,"[0, 26, 23, 28, 7, 25]",6,4,"[3, 8, 13, 14]",99.54716183,10505,782,7,6,9,3.3404167216138276
undo,9,18,0,0,0,8,"[0, 26, 23, 28, 7, 25, 8]",7,3,"[3, 13, 14]",62.4931472,12284,1779,4,0,9,2.510805996266872
undo,9,18,0,0,0,13,"[0, 26, 23, 28, 7, 25, 8, 13]",8,2,"[3, 14]",41.39812409,14852,2568,2,0,9,2.750928124761419
undo,9,18,0,0,1,14,"[0, 26, 23, 28, 7, 25, 8, 13, 14]",9,0,[],22.42445813,15805,953,1,0,9,2.4758870779364446
undo,9,18,0,1,1,14,"[0, 26, 23, 28, 7, 25, 8, 13, 14]",9,0,[],22.42445813,18327,2522,1,0,9,2.4758870779364446
undo,10,28,0,0,0,0,[0],1,27,"[1, 2, 3, 4, 5, 6, 7, 8, 9, 10, 11, 12, 13, 14, 15, 16, 17, 18, 19, 20, 22, 23, 25, 26, 27, 28, 29]",300,143,-1,2,96,9,0.0
undo,10,28,0,0,0,20,"[0, 20]",2,22,"[2, 3, 4, 5, 6, 7, 8, 9, 10, 11, 12, 13, 14, 15, 16, 18, 19, 22, 23, 26, 28, 29]",245.9629757,8542,8399,1,24,9,1.0
undo,10,28,0,0,0,3,"[0, 20, 3]",3,19,"[2, 4, 5, 6, 7, 8, 9, 10, 11, 12, 13, 14, 15, 16, 18, 19, 23, 26, 28]",204.6229224,10539,1997,9,50,8,1.9497218646689283
undo,10,28,0,0,0,5,"[0, 20, 3, 5]",4,13,"[2, 4, 7, 8, 9, 12, 13, 14, 15, 18, 19, 26, 28]",120.5277383,16401,5862,2,20,8,1.3767728943595041
undo,10,28,1,0,0,3,"[0, 20, 3]",3,19,"[2, 4, 5, 6, 7, 8, 9, 10, 11, 12, 13, 14, 15, 16, 18, 19, 23, 26, 28]",204.6229224,17427,1026,9,50,8,1.9497218646689283
undo,10,28,0,0,0,5,"[0, 20, 3, 5]",4,13,"[2, 4, 7, 8, 9, 12, 13, 14, 15, 18, 19, 26, 28]",120.5277383,18750,1323,2,20,8,1.3767728943595041
undo,10,28,0,0,0,28,"[0, 20, 3, 5, 28]",5,3,"[4, 8, 9]",53.61735044,22755,4005,4,1,7,1.3338457520112414
undo,10,28,0,0,0,8,"[0, 20, 3, 5, 28, 8]",6,2,"[4, 9]",35.81285662,23452,697,2,0,7,1.3099616318739633
undo,10,28,0,0,1,9,"[0, 20, 3, 5, 28, 8, 9]",7,0,[],20.68011067,24986,1534,1,0,7,1.3574581035744457
undo,10,28,1,0,0,8,"[0, 20, 3, 5, 28, 8]",6,2,"[4, 9]",35.81285662,26794,1808,2,0,7,1.3099616318739633
undo,10,28,1,0,0,28,"[0, 20, 3, 5, 28]",5,3,"[4, 8, 9]",53.61735044,27027,233,4,1,7,1.3338457520112414
undo,10,28,1,0,0,5,"[0, 20, 3, 5]",4,13,"[2, 4, 7, 8, 9, 12, 13, 14, 15, 18, 19, 26, 28]",120.5277383,27228,201,2,20,8,1.3767728943595041
undo,10,28,1,0,0,3,"[0, 20, 3]",3,19,"[2, 4, 5, 6, 7, 8, 9, 10, 11, 12, 13, 14, 15, 16, 18, 19, 23, 26, 28]",204.6229224,29327,2099,9,50,8,1.9497218646689283
undo,10,28,1,0,0,20,"[0, 20]",2,22,"[2, 3, 4, 5, 6, 7, 8, 9, 10, 11, 12, 13, 14, 15, 16, 18, 19, 22, 23, 26, 28, 29]",245.9629757,29610,283,1,24,9,1.0
undo,10,28,1,0,0,0,[0],1,27,"[1, 2, 3, 4, 5, 6, 7, 8, 9, 10, 11, 12, 13, 14, 15, 16, 17, 18, 19, 20, 22, 23, 25, 26, 27, 28, 29]",300,30911,1301,2,96,9,0.0
undo,10,28,0,0,0,3,"[0, 3]",2,26,"[1, 2, 4, 5, 6, 7, 8, 9, 10, 11, 12, 13, 14, 15, 16, 17, 18, 19, 20, 22, 23, 25, 26, 27, 28, 29]",251.0817008,32542,1631,1,64,9,1.0
undo,10,28,0,0,0,14,"[0, 3, 14]",3,13,"[1, 2, 5, 7, 10, 11, 12, 13, 17, 18, 19, 20, 26]",142.7396498,34279,1737,19,59,8,1.0338694802207566
undo,10,28,0,0,0,18,"[0, 3, 14, 18]",4,10,"[1, 2, 5, 7, 11, 12, 13, 17, 19, 26]",117.2445523,35257,978,18,18,8,1.098527225277385
undo,10,28,0,0,0,13,"[0, 3, 14, 18, 13]",5,7,"[2, 7, 11, 12, 17, 19, 26]",92.83144103,37062,1805,8,6,8,1.0872780601597938
undo,10,28,0,0,0,12,"[0, 3, 14, 18, 13, 12]",6,3,"[2, 7, 19]",75.6267905,37834,772,3,1,8,1.0890748557820906
undo,10,28,0,0,0,7,"[0, 3, 14, 18, 13, 12, 7]",7,2,"[2, 19]",62.47384406,38559,725,2,0,8,1.2125627495730145
undo,10,28,0,0,1,19,"[0, 3, 14, 18, 13, 12, 7, 19]",8,0,[],34.74299481,40935,2376,1,0,8,1.4527925513951803
undo,10,28,0,1,1,19,"[0, 3, 14, 18, 13, 12, 7, 19]",8,0,[],34.74299481,44477,3542,1,0,8,1.4527925513951803
undo,11,23,0,0,0,0,[0],1,28,"[1, 2, 3, 4, 5, 6, 7, 8, 9, 10, 11, 12, 13, 14, 15, 16, 17, 18, 19, 20, 21, 22, 23, 25, 26, 27, 28, 29]",300,166,-1,76,2626,10,0.0
undo,11,23,0,0,0,18,"[0, 18]",2,14,"[2, 5, 6, 7, 9, 10, 12, 13, 14, 19, 21, 22, 27, 29]",203.8958898,5216,5050,73,787,9,1.0
undo,11,23,0,0,0,27,"[0, 18, 27]",3,9,"[2, 6, 7, 9, 12, 13, 14, 22, 29]",128.5832083,6454,1238,51,277,9,1.1972268052690318
undo,11,23,0,0,0,6,"[0, 18, 27, 6]",4,8,"[2, 7, 9, 12, 13, 14, 22, 29]",100.2812649,7905,1451,43,68,9,1.3293035545030156
undo,11,23,0,0,0,2,"[0, 18, 27, 6, 2]",5,6,"[9, 12, 13, 14, 22, 29]",81.84217594,8720,815,16,17,9,1.5987085337271232
undo,11,23,0,0,0,14,"[0, 18, 27, 6, 2, 14]",6,5,"[9, 12, 13, 22, 29]",66.97610719,9591,871,5,3,9,1.653941702320971
undo,11,23,0,0,0,9,"[0, 18, 27, 6, 2, 14, 9]",7,4,"[12, 13, 22, 29]",56.53580068,10042,451,2,2,9,1.8635071754469044
undo,11,23,0,0,0,12,"[0, 18, 27, 6, 2, 14, 9, 12]",8,1,[13],42.21797962,10818,776,1,0,9,2.1028196660017944
undo,11,23,0,0,1,13,"[0, 18, 27, 6, 2, 14, 9, 12, 13]",9,0,[],30.13493365,11300,482,1,0,9,2.43825220165275
undo,11,23,1,0,0,12,"[0, 18, 27, 6, 2, 14, 9, 12]",8,1,[13],42.21797962,12376,1076,1,0,9,2.1028196660017944
undo,11,23,1,0,0,9,"[0, 18, 27, 6, 2, 14, 9]",7,4,"[12, 13, 22, 29]",56.53580068,13259,883,2,2,9,1.8635071754469044
undo,11,23,1,0,0,14,"[0, 18, 27, 6, 2, 14]",6,5,"[9, 12, 13, 22, 29]",66.97610719,13459,200,5,3,9,1.653941702320971
undo,11,23,1,0,0,2,"[0, 18, 27, 6, 2]",5,6,"[9, 12, 13, 14, 22, 29]",81.84217594,13676,217,16,17,9,1.5987085337271232
undo,11,23,1,0,0,6,"[0, 18, 27, 6]",4,8,"[2, 7, 9, 12, 13, 14, 22, 29]",100.2812649,13892,216,43,68,9,1.3293035545030156
undo,11,23,1,0,0,27,"[0, 18, 27]",3,9,"[2, 6, 7, 9, 12, 13, 14, 22, 29]",128.5832083,14242,350,51,277,9,1.1972268052690318
undo,11,23,0,0,0,13,"[0, 18, 27, 13]",4,7,"[2, 6, 9, 12, 14, 22, 29]",83.48331912,16403,2161,5,41,9,1.9562453228589431
undo,11,23,0,0,0,12,"[0, 18, 27, 13, 12]",5,6,"[2, 6, 9, 14, 22, 29]",71.40027314,17167,764,5,15,9,1.8647693139158203
undo,11,23,0,0,0,2,"[0, 18, 27, 13, 12, 2]",6,3,"[6, 9, 14]",57.50782915,18054,887,2,4,9,1.7770359810395266
undo,11,23,1,0,0,12,"[0, 18, 27, 13, 12]",5,6,"[2, 6, 9, 14, 22, 29]",71.40027314,20959,2905,5,15,9,1.8647693139158203
undo,11,23,0,0,0,6,"[0, 18, 27, 13, 12, 6]",6,3,"[2, 9, 14]",41.71862898,23199,2240,4,0,8,1.7190893202227084
undo,11,23,0,0,0,2,"[0, 18, 27, 13, 12, 6, 2]",7,2,"[9, 14]",23.27954007,24006,807,2,0,8,2.0278684143151033
undo,11,23,0,0,1,9,"[0, 18, 27, 13, 12, 6, 2, 9]",8,0,[],10.24113526,24733,727,1,0,8,2.2178526662255837
undo,11,23,1,0,0,2,"[0, 18, 27, 13, 12, 6, 2]",7,2,"[9, 14]",23.27954007,26742,2009,2,0,8,2.0278684143151033
undo,11,23,1,0,0,6,"[0, 18, 27, 13, 12, 6]",6,3,"[2, 9, 14]",41.71862898,27042,300,4,0,8,1.7190893202227084
undo,11,23,1,0,0,12,"[0, 18, 27, 13, 12]",5,6,"[2, 6, 9, 14, 22, 29]",71.40027314,27292,250,5,15,9,1.8647693139158203
undo,11,23,1,0,0,13,"[0, 18, 27, 13]",4,7,"[2, 6, 9, 12, 14, 22, 29]",83.48331912,27475,183,5,41,9,1.9562453228589431
undo,11,23,1,0,0,27,"[0, 18, 27]",3,9,"[2, 6, 7, 9, 12, 13, 14, 22, 29]",128.5832083,27658,183,51,277,9,1.1972268052690318
undo,11,23,1,0,0,18,"[0, 18]",2,14,"[2, 5, 6, 7, 9, 10, 12, 13, 14, 19, 21, 22, 27, 29]",203.8958898,27858,200,73,787,9,1.0
undo,11,23,1,0,0,0,[0],1,28,"[1, 2, 3, 4, 5, 6, 7, 8, 9, 10, 11, 12, 13, 14, 15, 16, 17, 18, 19, 20, 21, 22, 23, 25, 26, 27, 28, 29]",300,28758,900,76,2626,10,0.0
undo,11,23,0,0,0,22,"[0, 22]",2,24,"[1, 2, 3, 5, 6, 7, 8, 9, 10, 11, 12, 13, 14, 15, 17, 18, 19, 20, 21, 23, 25, 26, 27, 29]",210.5013967,34834,6076,15,1362,10,1.0
undo,11,23,0,0,0,13,"[0, 22, 13]",3,14,"[1, 2, 5, 6, 7, 8, 9, 10, 12, 14, 18, 21, 27, 29]",168.3113504,36069,1235,14,522,10,1.1898173563652046
undo,11,23,0,0,0,12,"[0, 22, 13, 12]",4,11,"[1, 2, 6, 7, 9, 10, 14, 18, 21, 27, 29]",156.2283045,37082,1013,12,166,10,1.1727968780218219
undo,11,23,0,0,0,9,"[0, 22, 13, 12, 9]",5,10,"[1, 2, 6, 7, 10, 14, 18, 21, 27, 29]",141.9104834,38116,1034,5,49,10,1.2100380646101494
undo,11,23,0,0,0,14,"[0, 22, 13, 12, 9, 14]",6,8,"[1, 2, 6, 7, 10, 18, 27, 29]",131.4701769,40037,1921,2,19,10,1.1961799245073135
undo,11,23,0,0,0,2,"[0, 22, 13, 12, 9, 14, 2]",7,6,"[6, 7, 10, 18, 27, 29]",116.6041081,42400,2363,1,8,10,1.343965446549325
undo,11,23,0,0,0,6,"[0, 22, 13, 12, 9, 14, 2, 6]",8,3,"[18, 27, 29]",98.16501923,43968,1568,3,0,9,1.3433890277057379
undo,11,23,0,0,1,27,"[0, 22, 13, 12, 9, 14, 2, 6, 27]",9,0,[],69.86307584,45350,1382,1,0,9,1.607346000085698
undo,11,23,0,1,1,27,"[0, 22, 13, 12, 9, 14, 2, 6, 27]",9,0,[],69.86307584,48059,2709,1,0,9,1.607346000085698
undo,12,14,0,0,0,0,[0],1,29,"[1, 2, 3, 4, 5, 6, 7, 8, 9, 10, 11, 12, 13, 14, 15, 16, 17, 18, 19, 20, 21, 22, 23, 24, 25, 26, 27, 28, 29]",300,152,-1,8,157,10,0.0
undo,12,14,0,0,0,15,"[0, 15]",2,20,"[1, 2, 3, 4, 7, 8, 9, 13, 17, 18, 19, 20, 21, 22, 23, 25, 26, 27, 28, 29]",216.7053423,4483,4331,8,102,10,1.0
undo,12,14,0,0,0,28,"[0, 15, 28]",3,17,"[1, 2, 3, 4, 7, 8, 9, 13, 17, 18, 19, 20, 22, 23, 25, 26, 27]",197.4959696,5200,717,8,48,10,1.0446007867311968
undo,12,14,0,0,0,17,"[0, 15, 28, 17]",4,14,"[1, 2, 3, 4, 7, 8, 13, 18, 19, 20, 22, 23, 25, 26]",184.0423455,5850,650,8,39,10,1.0729463354689972
undo,12,14,0,0,0,18,"[0, 15, 28, 17, 18]",5,9,"[1, 2, 4, 7, 8, 19, 23, 25, 26]",119.412631,6750,900,8,27,10,1.5035901079219378
undo,12,14,0,0,0,8,"[0, 15, 28, 17, 18, 8]",6,8,"[1, 2, 4, 7, 19, 23, 25, 26]",105.8111605,7888,1138,8,18,10,1.4819689987843856
undo,12,14,0,0,0,19,"[0, 15, 28, 17, 18, 8, 19]",7,5,"[1, 7, 23, 25, 26]",85.19563238,8967,1079,4,9,10,1.4526746797093781
undo,12,14,1,0,0,8,"[0, 15, 28, 17, 18, 8]",6,8,"[1, 2, 4, 7, 19, 23, 25, 26]",105.8111605,10177,1210,8,18,10,1.4819689987843856
undo,12,14,0,0,0,1,"[0, 15, 28, 17, 18, 8, 1]",7,5,"[7, 19, 23, 25, 26]",82.21031307,11766,1589,4,6,10,1.4084991998385268
undo,12,14,0,0,0,19,"[0, 15, 28, 17, 18, 8, 1, 19]",8,4,"[7, 23, 25, 26]",66.97876686,12621,855,4,1,10,1.5758713333797987
undo,12,14,0,0,0,25,"[0, 15, 28, 17, 18, 8, 1, 19, 25]",9,2,"[7, 23]",31.1318702,14592,1971,2,0,10,1.6426186864061416
undo,12,14,0,0,1,23,"[0, 15, 28, 17, 18, 8, 1, 19, 25, 23]",10,0,[],1.72098786,15684,1092,1,0,10,1.586837442491671
undo,12,14,0,1,1,23,"[0, 15, 28, 17, 18, 8, 1, 19, 25, 23]",10,0,[],1.72098786,16960,1276,1,0,10,1.586837442491671
undo,13,4,0,0,0,0,[0],1,26,"[3, 4, 5, 6, 7, 8, 10, 11, 12, 13, 14, 15, 16, 17, 18, 19, 20, 21, 22, 23, 24, 25, 26, 27, 28, 29]",300,165,-1,4,489,10,0.0
undo,13,4,0,0,0,13,"[0, 13]",2,23,"[3, 4, 5, 6, 7, 10, 11, 12, 14, 15, 16, 17, 19, 20, 21, 22, 23, 24, 25, 26, 27, 28, 29]",232.1030192,5722,5557,2,270,10,1.0
undo,13,4,0,0,0,28,"[0, 13, 28]",3,19,"[3, 4, 5, 6, 10, 11, 12, 14, 15, 16, 17, 19, 20, 21, 22, 23, 24, 25, 26]",200.5277124,6569,847,2,221,10,1.3431168257921573
undo,13,4,0,0,0,14,"[0, 13, 28, 14]",4,11,"[3, 4, 5, 6, 11, 16, 17, 20, 21, 22, 25]",134.2857318,9535,2966,28,123,9,1.2134786195381546
undo,13,4,0,0,0,25,"[0, 13, 28, 14, 25]",5,10,"[3, 4, 5, 6, 11, 16, 17, 20, 21, 22]",118.1612163,10358,823,22,51,9,1.4339367384350254
undo,13,4,0,0,0,11,"[0, 13, 28, 14, 25, 11]",6,9,"[3, 4, 5, 6, 16, 17, 20, 21, 22]",99.37292203,11255,897,11,18,9,1.632788140935394
undo,13,4,0,0,0,16,"[0, 13, 28, 14, 25, 11, 16]",7,6,"[3, 5, 17, 20, 21, 22]",84.37292203,11886,631,9,2,9,1.5642820747024264
undo,13,4,0,0,0,21,"[0, 13, 28, 14, 25, 11, 16, 21]",8,2,"[20, 22]",40.16884982,13785,1899,2,0,9,1.7579851057756917
undo,13,4,0,0,1,22,"[0, 13, 28, 14, 25, 11, 16, 21, 22]",9,0,[],29.12348881,14787,1002,1,0,9,1.7072764875626198
undo,13,4,1,0,0,21,"[0, 13, 28, 14, 25, 11, 16, 21]",8,2,"[20, 22]",40.16884982,17060,2273,2,0,9,1.7579851057756917
undo,13,4,1,0,0,16,"[0, 13, 28, 14, 25, 11, 16]",7,6,"[3, 5, 17, 20, 21, 22]",84.37292203,17360,300,9,2,9,1.5642820747024264
undo,13,4,1,0,0,11,"[0, 13, 28, 14, 25, 11]",6,9,"[3, 4, 5, 6, 16, 17, 20, 21, 22]",99.37292203,17561,201,11,18,9,1.632788140935394
undo,13,4,1,0,0,25,"[0, 13, 28, 14, 25]",5,10,"[3, 4, 5, 6, 11, 16, 17, 20, 21, 22]",118.1612163,17744,183,22,51,9,1.4339367384350254
undo,13,4,1,0,0,14,"[0, 13, 28, 14]",4,11,"[3, 4, 5, 6, 11, 16, 17, 20, 21, 22, 25]",134.2857318,18127,383,28,123,9,1.2134786195381546
undo,13,4,0,0,0,25,"[0, 13, 28, 14, 25]",5,10,"[3, 4, 5, 6, 11, 16, 17, 20, 21, 22]",118.1612163,20304,2177,22,51,9,1.4339367384350254
undo,13,4,0,0,0,11,"[0, 13, 28, 14, 25, 11]",6,9,"[3, 4, 5, 6, 16, 17, 20, 21, 22]",99.37292203,21030,726,11,18,9,1.632788140935394
undo,13,4,0,0,0,16,"[0, 13, 28, 14, 25, 11, 16]",7,6,"[3, 5, 17, 20, 21, 22]",84.37292203,21701,671,9,2,9,1.5642820747024264
undo,13,4,0,0,0,17,"[0, 13, 28, 14, 25, 11, 16, 17]",8,4,"[3, 20, 21, 22]",58.29611241,22999,1298,4,0,9,1.4745445015567764
undo,13,4,0,0,1,20,"[0, 13, 28, 14, 25, 11, 16, 17, 20]",9,0,[],18.07174169,24654,1655,1,0,9,1.5428968852705867
undo,13,4,1,0,0,17,"[0, 13, 28, 14, 25, 11, 16, 17]",8,4,"[3, 20, 21, 22]",58.29611241,27094,2440,4,0,9,1.4745445015567764
undo,13,4,0,0,1,21,"[0, 13, 28, 14, 25, 11, 16, 17, 21]",9,0,[],9.041670989,28606,1512,1,0,9,1.968587709550512
undo,13,4,1,0,0,17,"[0, 13, 28, 14, 25, 11, 16, 17]",8,4,"[3, 20, 21, 22]",58.29611241,30011,1405,4,0,9,1.4745445015567764
undo,13,4,0,0,1,21,"[0, 13, 28, 14, 25, 11, 16, 17, 21]",9,0,[],9.041670989,32268,2257,1,0,9,1.968587709550512
undo,13,4,0,1,1,21,"[0, 13, 28, 14, 25, 11, 16, 17, 21]",9,0,[],9.041670989,34827,2559,1,0,9,1.968587709550512
undo,14,13,0,0,0,0,[0],1,29,"[1, 2, 3, 4, 5, 6, 7, 8, 9, 10, 11, 12, 13, 14, 15, 16, 17, 18, 19, 20, 21, 22, 23, 24, 25, 26, 27, 28, 29]",300,146,-1,60,2676,11,0.0
undo,14,13,0,0,0,24,"[0, 24]",2,28,"[1, 2, 3, 4, 5, 6, 7, 8, 9, 10, 11, 12, 13, 14, 15, 16, 17, 18, 19, 20, 21, 22, 23, 25, 26, 27, 28, 29]",288.8196601,6088,5942,16,1444,11,1.0
undo,14,13,0,0,0,23,"[0, 24, 23]",3,27,"[1, 2, 3, 4, 5, 6, 7, 8, 9, 10, 11, 12, 13, 14, 15, 16, 17, 18, 19, 20, 21, 22, 25, 26, 27, 28, 29]",243.1140806,10321,4233,2,868,11,1.0065545717039834
undo,14,13,1,0,0,24,"[0, 24]",2,28,"[1, 2, 3, 4, 5, 6, 7, 8, 9, 10, 11, 12, 13, 14, 15, 16, 17, 18, 19, 20, 21, 22, 23, 25, 26, 27, 28, 29]",288.8196601,10646,325,16,1444,11,1.0
undo,14,13,0,0,0,28,"[0, 24, 28]",3,23,"[1, 2, 3, 4, 6, 7, 8, 9, 10, 11, 12, 13, 15, 16, 17, 19, 20, 21, 22, 23, 26, 27, 29]",222.5324064,13245,2599,8,243,11,1.0513810491680837
undo,14,13,0,0,0,2,"[0, 24, 28, 2]",4,19,"[1, 3, 4, 6, 7, 9, 11, 12, 13, 15, 16, 17, 19, 20, 21, 23, 26, 27, 29]",184.889346,14244,999,7,110,11,1.050374132001543
undo,14,13,0,0,0,29,"[0, 24, 28, 2, 29]",5,18,"[1, 3, 4, 6, 7, 9, 11, 12, 13, 15, 16, 17, 19, 20, 21, 23, 26, 27]",173.1846461,14979,735,7,85,11,1.1393409619120594
undo,14,13,0,0,0,7,"[0, 24, 28, 2, 29, 7]",6,17,"[1, 3, 4, 6, 9, 11, 12, 13, 15, 16, 17, 19, 20, 21, 23, 26, 27]",157.9203086,15670,691,5,45,11,1.349777315111579
undo,14,13,0,0,0,26,"[0, 24, 28, 2, 29, 7, 26]",7,16,"[1, 3, 4, 6, 9, 11, 12, 13, 15, 16, 17, 19, 20, 21, 23, 27]",147.480002,16573,903,5,25,11,1.5942082773824946
undo,14,13,0,0,0,6,"[0, 24, 28, 2, 29, 7, 26, 6]",8,12,"[1, 3, 4, 11, 13, 15, 16, 17, 19, 20, 23, 27]",127.3802508,17624,1051,4,12,11,1.5898347940840756
undo,14,13,0,0,0,11,"[0, 24, 28, 2, 29, 7, 26, 6, 11]",9,6,"[1, 13, 15, 16, 17, 23]",108.2752776,18469,845,3,4,11,1.5029953945561012
undo,14,13,0,0,0,13,"[0, 24, 28, 2, 29, 7, 26, 6, 11, 13]",10,2,"[15, 17]",52.19497806,20470,2001,2,0,11,1.3655915863754327
undo,14,13,0,0,1,15,"[0, 24, 28, 2, 29, 7, 26, 6, 11, 13, 15]",11,0,[],12.38291958,21691,1221,1,0,11,1.3653085520078876
undo,14,13,0,1,1,15,"[0, 24, 28, 2, 29, 7, 26, 6, 11, 13, 15]",11,0,[],12.38291958,22712,1021,1,0,11,1.3653085520078876
undo,15,21,0,0,0,0,[0],1,29,"[1, 2, 3, 4, 5, 6, 7, 8, 9, 10, 11, 12, 13, 14, 15, 16, 17, 18, 19, 20, 21, 22, 23, 24, 25, 26, 27, 28, 29]",300,154,-1,84,830,9,0.0
undo,15,21,0,0,0,25,"[0, 25]",2,26,"[1, 2, 3, 4, 5, 6, 7, 8, 9, 10, 11, 12, 13, 14, 15, 16, 17, 18, 20, 21, 22, 23, 24, 26, 27, 29]",240.1836143,12167,12013,30,238,9,1.0
undo,15,21,1,0,0,0,[0],1,29,"[1, 2, 3, 4, 5, 6, 7, 8, 9, 10, 11, 12, 13, 14, 15, 16, 17, 18, 19, 20, 21, 22, 23, 24, 25, 26, 27, 28, 29]",300,15676,3509,84,830,9,0.0
undo,15,21,0,0,0,21,"[0, 21]",2,22,"[1, 3, 4, 6, 8, 9, 10, 11, 12, 14, 15, 16, 17, 18, 20, 22, 23, 24, 25, 26, 27, 29]",210.1111798,17150,1474,1,69,9,1.0
undo,15,21,0,0,0,14,"[0, 21, 14]",3,15,"[1, 4, 6, 8, 9, 15, 16, 17, 18, 20, 22, 23, 24, 25, 29]",184.4986828,18783,1633,35,96,8,1.0083702391721483
undo,15,21,0,0,0,4,"[0, 21, 14, 4]",4,13,"[1, 8, 9, 15, 16, 17, 18, 20, 22, 23, 24, 25, 29]",170.3565472,19417,634,20,39,8,1.0135821167776475
undo,15,21,0,0,0,16,"[0, 21, 14, 4, 16]",5,7,"[8, 15, 17, 23, 24, 25, 29]",125.758341,21965,2548,4,6,8,1.0675217597413178
undo,15,21,0,0,0,8,"[0, 21, 14, 4, 16, 8]",6,3,"[15, 23, 24]",107.1572657,22824,859,3,1,8,1.0643903127717425
undo,15,21,0,0,0,15,"[0, 21, 14, 4, 16, 8, 15]",7,2,"[23, 24]",82.15726573,23790,966,2,0,8,1.29402645910376
undo,15,21,0,0,1,24,"[0, 21, 14, 4, 16, 8, 15, 24]",8,0,[],36.4516862,24718,928,1,0,8,1.3251667405154008
undo,15,21,1,0,0,15,"[0, 21, 14, 4, 16, 8, 15]",7,2,"[23, 24]",82.15726573,26459,1741,2,0,8,1.29402645910376
undo,15,21,1,0,0,8,"[0, 21, 14, 4, 16, 8]",6,3,"[15, 23, 24]",107.1572657,26843,384,3,1,8,1.0643903127717425
undo,15,21,1,0,0,16,"[0, 21, 14, 4, 16]",5,7,"[8, 15, 17, 23, 24, 25, 29]",125.758341,27077,234,4,6,8,1.0675217597413178
undo,15,21,1,0,0,4,"[0, 21, 14, 4]",4,13,"[1, 8, 9, 15, 16, 17, 18, 20, 22, 23, 24, 25, 29]",170.3565472,27378,301,20,39,8,1.0135821167776475
undo,15,21,1,0,0,14,"[0, 21, 14]",3,15,"[1, 4, 6, 8, 9, 15, 16, 17, 18, 20, 22, 23, 24, 25, 29]",184.4986828,27593,215,35,96,8,1.0083702391721483
undo,15,21,1,0,0,21,"[0, 21]",2,22,"[1, 3, 4, 6, 8, 9, 10, 11, 12, 14, 15, 16, 17, 18, 20, 22, 23, 24, 25, 26, 27, 29]",210.1111798,28677,1084,1,69,9,1.0
undo,15,21,1,0,0,0,[0],1,29,"[1, 2, 3, 4, 5, 6, 7, 8, 9, 10, 11, 12, 13, 14, 15, 16, 17, 18, 19, 20, 21, 22, 23, 24, 25, 26, 27, 28, 29]",300,28926,249,84,830,9,0.0
undo,15,21,0,0,0,25,"[0, 25]",2,26,"[1, 2, 3, 4, 5, 6, 7, 8, 9, 10, 11, 12, 13, 14, 15, 16, 17, 18, 20, 21, 22, 23, 24, 26, 27, 29]",240.1836143,30809,1883,30,238,9,1.0
undo,15,21,0,0,0,18,"[0, 25, 18]",3,23,"[1, 2, 3, 4, 6, 7, 8, 9, 10, 11, 12, 14, 15, 16, 17, 20, 21, 22, 23, 24, 26, 27, 29]",198.4223882,33235,2426,1,22,9,1.7194331060017298
undo,15,21,0,0,0,29,"[0, 25, 18, 29]",4,19,"[2, 4, 6, 7, 8, 10, 11, 12, 14, 15, 16, 17, 20, 21, 22, 23, 24, 26, 27]",169.7692907,33906,671,11,44,8,1.5372409070640154
undo,15,21,0,0,0,22,"[0, 25, 18, 29, 22]",5,13,"[2, 4, 6, 7, 10, 11, 12, 14, 17, 20, 21, 23, 27]",139.5037988,34638,732,2,11,8,1.9519077549890076
undo,15,21,0,0,0,20,"[0, 25, 18, 29, 22, 20]",6,6,"[6, 7, 10, 11, 12, 17]",111.2726104,35836,1198,2,4,8,2.2910153832268065
undo,15,21,0,0,0,12,"[0, 25, 18, 29, 22, 20, 12]",7,1,[10],57.15237385,36777,941,1,0,8,2.1874614020669414
undo,15,21,0,0,1,10,"[0, 25, 18, 29, 22, 20, 12, 10]",8,0,[],34.34886534,37551,774,1,0,8,2.181796919371535
undo,15,21,0,1,1,10,"[0, 25, 18, 29, 22, 20, 12, 10]",8,0,[],34.34886534,40043,2492,1,0,8,2.181796919371535
undo,16,17,0,0,0,0,[0],1,28,"[1, 2, 3, 4, 5, 6, 7, 8, 9, 10, 11, 12, 13, 14, 15, 16, 17, 18, 19, 20, 22, 23, 24, 25, 26, 27, 28, 29]",300,183,-1,2,73,8,0.0
undo,16,17,0,0,0,9,"[0, 9]",2,25,"[1, 2, 3, 5, 6, 7, 8, 10, 11, 12, 14, 15, 16, 17, 18, 19, 20, 22, 23, 24, 25, 26, 27, 28, 29]",210.5293344,12869,12686,1,34,8,1.0
undo,16,17,0,0,0,16,"[0, 9, 16]",3,21,"[1, 2, 3, 5, 7, 8, 10, 11, 12, 14, 17, 18, 19, 20, 22, 23, 25, 26, 27, 28, 29]",197.1876704,13801,932,1,26,8,1.173103464220352
undo,16,17,0,0,0,2,"[0, 9, 16, 2]",4,18,"[1, 3, 5, 7, 8, 10, 11, 12, 14, 17, 18, 19, 23, 25, 26, 27, 28, 29]",181.0631549,14267,466,1,23,8,1.14825089247282
undo,16,17,0,0,0,17,"[0, 9, 16, 2, 17]",5,7,"[7, 8, 12, 14, 26, 27, 29]",142.7356191,15407,1140,4,5,7,1.4896040699768547
undo,16,17,0,0,0,8,"[0, 9, 16, 2, 17, 8]",6,3,"[7, 12, 27]",104.5256727,16171,764,3,0,7,1.4604726966175894
undo,16,17,0,0,1,7,"[0, 9, 16, 2, 17, 8, 7]",7,0,[],33.81499459,17386,1215,1,0,7,1.4474701869793896
undo,16,17,1,0,0,8,"[0, 9, 16, 2, 17, 8]",6,3,"[7, 12, 27]",104.5256727,18294,908,3,0,7,1.4604726966175894
undo,16,17,1,0,0,17,"[0, 9, 16, 2, 17]",5,7,"[7, 8, 12, 14, 26, 27, 29]",142.7356191,18512,218,4,5,7,1.4896040699768547
undo,16,17,1,0,0,2,"[0, 9, 16, 2]",4,18,"[1, 3, 5, 7, 8, 10, 11, 12, 14, 17, 18, 19, 23, 25, 26, 27, 28, 29]",181.0631549,18711,199,1,23,8,1.14825089247282
undo,16,17,1,0,0,16,"[0, 9, 16]",3,21,"[1, 2, 3, 5, 7, 8, 10, 11, 12, 14, 17, 18, 19, 20, 22, 23, 25, 26, 27, 28, 29]",197.1876704,18961,250,1,26,8,1.173103464220352
undo,16,17,1,0,0,9,"[0, 9]",2,25,"[1, 2, 3, 5, 6, 7, 8, 10, 11, 12, 14, 15, 16, 17, 18, 19, 20, 22, 23, 24, 25, 26, 27, 28, 29]",210.5293344,19179,218,1,34,8,1.0
undo,16,17,1,0,0,0,[0],1,28,"[1, 2, 3, 4, 5, 6, 7, 8, 9, 10, 11, 12, 13, 14, 15, 16, 17, 18, 19, 20, 22, 23, 24, 25, 26, 27, 28, 29]",300,19361,182,2,73,8,0.0
undo,16,17,0,0,0,10,"[0, 10]",2,13,"[2, 3, 4, 5, 6, 7, 9, 11, 16, 19, 23, 24, 28]",118.7101768,25639,6278,10,14,5,1.0
undo,16,17,0,0,0,11,"[0, 10, 11]",3,7,"[3, 5, 6, 7, 23, 24, 28]",96.75567839,26656,1017,5,4,5,1.002042812179534
undo,16,17,0,0,0,3,"[0, 10, 11, 3]",4,2,"[5, 28]",70.58317373,27470,814,2,0,5,1.2110687341244686
undo,16,17,0,0,1,28,"[0, 10, 11, 3, 28]",5,0,[],36.58317373,29488,2018,1,0,5,1.2692907608390245
undo,16,17,1,0,0,3,"[0, 10, 11, 3]",4,2,"[5, 28]",70.58317373,30427,939,2,0,5,1.2110687341244686
undo,16,17,1,0,0,11,"[0, 10, 11]",3,7,"[3, 5, 6, 7, 23, 24, 28]",96.75567839,30878,451,5,4,5,1.002042812179534
undo,16,17,1,0,0,10,"[0, 10]",2,13,"[2, 3, 4, 5, 6, 7, 9, 11, 16, 19, 23, 24, 28]",118.7101768,31260,382,10,14,5,1.0
undo,16,17,1,0,0,0,[0],1,28,"[1, 2, 3, 4, 5, 6, 7, 8, 9, 10, 11, 12, 13, 14, 15, 16, 17, 18, 19, 20, 22, 23, 24, 25, 26, 27, 28, 29]",300,31594,334,2,73,8,0.0
undo,16,17,0,0,0,19,"[0, 19]",2,9,"[3, 4, 5, 10, 11, 18, 20, 22, 28]",138.1049723,46286,14692,1,8,6,1.0
undo,16,17,1,0,0,0,[0],1,28,"[1, 2, 3, 4, 5, 6, 7, 8, 9, 10, 11, 12, 13, 14, 15, 16, 17, 18, 19, 20, 22, 23, 24, 25, 26, 27, 28, 29]",300,47894,1608,2,73,8,0.0
undo,16,17,0,0,0,17,"[0, 17]",2,19,"[1, 2, 3, 5, 7, 8, 9, 10, 11, 12, 14, 16, 18, 19, 23, 25, 26, 27, 29]",194.4253818,56122,8228,3,56,7,1.0
undo,16,17,0,0,0,8,"[0, 17, 8]",3,14,"[2, 3, 7, 9, 10, 11, 12, 14, 16, 23, 25, 26, 27, 29]",156.2154355,57117,995,11,17,6,1.0742762671080475
undo,16,17,0,0,0,2,"[0, 17, 8, 2]",4,5,"[7, 9, 10, 16, 27]",121.1013358,59586,2469,4,3,6,1.72713973249527
undo,16,17,0,0,0,16,"[0, 17, 8, 2, 16]",5,2,"[7, 9]",104.9768203,60468,882,2,0,6,2.225242522948709
undo,16,17,0,0,1,9,"[0, 17, 8, 2, 16, 9]",6,0,[],91.6351562,61041,573,1,0,6,2.328862118556028
undo,16,17,1,0,0,16,"[0, 17, 8, 2, 16]",5,2,"[7, 9]",104.9768203,62677,1636,2,0,6,2.225242522948709
undo,16,17,0,0,1,9,"[0, 17, 8, 2, 16, 9]",6,0,[],91.6351562,64921,2244,1,0,6,2.328862118556028
undo,16,17,1,0,0,16,"[0, 17, 8, 2, 16]",5,2,"[7, 9]",104.9768203,66628,1707,2,0,6,2.225242522948709
undo,16,17,0,0,1,7,"[0, 17, 8, 2, 16, 7]",6,0,[],7.032958789,68085,1457,1,0,6,1.5931064834674327
undo,16,17,1,0,0,16,"[0, 17, 8, 2, 16]",5,2,"[7, 9]",104.9768203,69427,1342,2,0,6,2.225242522948709
undo,16,17,1,0,0,2,"[0, 17, 8, 2]",4,5,"[7, 9, 10, 16, 27]",121.1013358,70111,684,4,3,6,1.72713973249527
undo,16,17,1,0,0,8,"[0, 17, 8]",3,14,"[2, 3, 7, 9, 10, 11, 12, 14, 16, 23, 25, 26, 27, 29]",156.2154355,70378,267,11,17,6,1.0742762671080475
undo,16,17,1,0,0,17,"[0, 17]",2,19,"[1, 2, 3, 5, 7, 8, 9, 10, 11, 12, 14, 16, 18, 19, 23, 25, 26, 27, 29]",194.4253818,70578,200,3,56,7,1.0
undo,16,17,1,0,0,0,[0],1,28,"[1, 2, 3, 4, 5, 6, 7, 8, 9, 10, 11, 12, 13, 14, 15, 16, 17, 18, 19, 20, 22, 23, 24, 25, 26, 27, 28, 29]",300,70794,216,2,73,8,0.0
undo,16,17,0,0,0,9,"[0, 9]",2,25,"[1, 2, 3, 5, 6, 7, 8, 10, 11, 12, 14, 15, 16, 17, 18, 19, 20, 22, 23, 24, 25, 26, 27, 28, 29]",210.5293344,73385,2591,1,34,8,1.0
undo,16,17,0,0,0,16,"[0, 9, 16]",3,21,"[1, 2, 3, 5, 7, 8, 10, 11, 12, 14, 17, 18, 19, 20, 22, 23, 25, 26, 27, 28, 29]",197.1876704,74055,670,1,26,8,1.173103464220352
undo,16,17,0,0,0,2,"[0, 9, 16, 2]",4,18,"[1, 3, 5, 7, 8, 10, 11, 12, 14, 17, 18, 19, 23, 25, 26, 27, 28, 29]",181.0631549,75789,1734,1,23,8,1.14825089247282
undo,16,17,0,0,0,17,"[0, 9, 16, 2, 17]",5,7,"[7, 8, 12, 14, 26, 27, 29]",142.7356191,76975,1186,4,5,7,1.4896040699768547
undo,16,17,0,0,0,8,"[0, 9, 16, 2, 17, 8]",6,3,"[7, 12, 27]",104.5256727,78474,1499,3,0,7,1.4604726966175894
undo,16,17,0,0,1,27,"[0, 9, 16, 2, 17, 8, 27]",7,0,[],21.88790895,81335,2861,1,0,7,1.2949460667276491
undo,16,17,0,1,1,27,"[0, 9, 16, 2, 17, 8, 27]",7,0,[],21.88790895,82661,1326,1,0,7,1.2949460667276491
undo,17,20,0,0,0,0,[0],1,21,"[1, 2, 3, 4, 5, 6, 7, 8, 9, 12, 17, 18, 20, 21, 22, 23, 25, 26, 27, 28, 29]",300,155,-1,1,9,9,0.0
undo,17,20,0,0,0,29,"[0, 29]",2,16,"[1, 3, 4, 5, 7, 8, 12, 17, 18, 20, 21, 22, 23, 25, 27, 28]",245.8797635,6385,6230,1,18,7,1.0
undo,17,20,1,0,0,0,[0],1,21,"[1, 2, 3, 4, 5, 6, 7, 8, 9, 12, 17, 18, 20, 21, 22, 23, 25, 26, 27, 28, 29]",300,7291,906,1,9,9,0.0
undo,17,20,0,0,0,12,"[0, 12]",2,20,"[1, 2, 3, 4, 5, 6, 7, 8, 9, 17, 18, 20, 21, 22, 23, 25, 26, 27, 28, 29]",271.5570747,9018,1727,1,8,9,1.0
undo,17,20,0,0,0,1,"[0, 12, 1]",3,12,"[3, 4, 5, 6, 8, 9, 20, 21, 23, 27, 28, 29]",189.5692707,10163,1145,1,6,9,1.0757997779162911
undo,17,20,0,0,0,5,"[0, 12, 1, 5]",4,10,"[4, 6, 8, 9, 20, 21, 23, 27, 28, 29]",152.8950291,11643,1480,1,5,9,1.1708231454516806
undo,17,20,0,0,0,21,"[0, 12, 1, 5, 21]",5,8,"[4, 6, 8, 9, 20, 23, 27, 28]",107.8950291,13456,1813,1,4,9,1.126197336199212
undo,17,20,0,0,0,8,"[0, 12, 1, 5, 21, 8]",6,5,"[6, 9, 23, 27, 28]",90.43077988,14984,1528,1,3,9,1.140007470699913
undo,17,20,0,0,0,23,"[0, 12, 1, 5, 21, 8, 23]",7,2,"[6, 9]",45.74297394,16098,1114,1,1,9,1.1162257896627588
undo,17,20,0,0,0,9,"[0, 12, 1, 5, 21, 8, 23, 9]",8,1,[6],26.53360123,16719,621,1,0,9,1.1086880559449597
undo,17,20,0,0,1,6,"[0, 12, 1, 5, 21, 8, 23, 9, 6]",9,0,[],3.511872362,18503,1784,1,0,9,1.1186240265999328
undo,17,20,0,1,1,6,"[0, 12, 1, 5, 21, 8, 23, 9, 6]",9,0,[],3.511872362,19724,1221,1,0,9,1.1186240265999328
undo,18,10,0,0,0,0,[0],1,29,"[1, 2, 3, 4, 5, 6, 7, 8, 9, 10, 11, 12, 13, 14, 15, 16, 17, 18, 19, 20, 21, 22, 23, 24, 25, 26, 27, 28, 29]",300,152,-1,1,100,9,0.0
undo,18,10,0,0,0,8,"[0, 8]",2,23,"[2, 3, 4, 6, 7, 9, 10, 11, 12, 13, 14, 17, 18, 19, 20, 21, 22, 23, 24, 26, 27, 28, 29]",256.9883737,15155,15003,13,64,8,1.0
undo,18,10,1,0,0,0,[0],1,29,"[1, 2, 3, 4, 5, 6, 7, 8, 9, 10, 11, 12, 13, 14, 15, 16, 17, 18, 19, 20, 21, 22, 23, 24, 25, 26, 27, 28, 29]",300,18409,3254,1,100,9,0.0
undo,18,10,0,0,0,13,"[0, 13]",2,25,"[1, 2, 3, 4, 6, 7, 8, 9, 10, 11, 12, 14, 17, 18, 19, 20, 21, 22, 23, 24, 25, 26, 27, 28, 29]",249.4628849,20135,1726,1,79,9,1.0
undo,18,10,0,0,0,11,"[0, 13, 11]",3,20,"[1, 2, 3, 6, 7, 8, 9, 10, 12, 14, 18, 19, 20, 21, 22, 24, 26, 27, 28, 29]",206.4512586,22298,2163,1,54,9,1.0313137484914219
undo,18,10,0,0,0,19,"[0, 13, 11, 19]",4,11,"[2, 6, 8, 9, 10, 14, 18, 20, 24, 26, 27]",170.0919407,23160,862,1,22,9,1.0879446220132545
undo,18,10,0,0,0,2,"[0, 13, 11, 19, 2]",5,4,"[14, 20, 26, 27]",126.1829439,23992,832,1,4,9,1.06474052351343
undo,18,10,0,0,0,14,"[0, 13, 11, 19, 2, 14]",6,3,"[20, 26, 27]",114.0174188,24667,675,1,3,9,1.1628909195912238
undo,18,10,0,0,0,26,"[0, 13, 11, 19, 2, 14, 26]",7,2,"[20, 27]",79.34754716,26275,1608,1,1,9,1.6660727647633602
undo,18,10,0,0,0,20,"[0, 13, 11, 19, 2, 14, 26, 20]",8,1,[27],47.56704999,27422,1147,1,0,9,2.085581809637999
undo,18,10,0,0,1,27,"[0, 13, 11, 19, 2, 14, 26, 20, 27]",9,0,[],2.312215998,28550,1128,1,0,9,1.9116357409137932
undo,18,10,0,1,1,27,"[0, 13, 11, 19, 2, 14, 26, 20, 27]",9,0,[],2.312215998,30328,1778,1,0,9,1.9116357409137932
undo,19,3,0,0,0,0,[0],1,29,"[1, 2, 3, 4, 5, 6, 7, 8, 9, 10, 11, 12, 13, 14, 15, 16, 17, 18, 19, 20, 21, 22, 23, 24, 25, 26, 27, 28, 29]",300,144,-1,34,427,10,0.0
undo,19,3,0,0,0,15,"[0, 15]",2,28,"[1, 2, 3, 4, 5, 6, 7, 8, 9, 10, 11, 12, 13, 14, 16, 17, 18, 19, 20, 21, 22, 23, 24, 25, 26, 27, 28, 29]",268.1723391,5868,5724,8,84,10,1.0
undo,19,3,1,0,0,0,[0],1,29,"[1, 2, 3, 4, 5, 6, 7, 8, 9, 10, 11, 12, 13, 14, 15, 16, 17, 18, 19, 20, 21, 22, 23, 24, 25, 26, 27, 28, 29]",300,7411,1543,34,427,10,0.0
undo,19,3,0,0,0,16,"[0, 16]",2,28,"[1, 2, 3, 4, 5, 6, 7, 8, 9, 10, 11, 12, 13, 14, 15, 17, 18, 19, 20, 21, 22, 23, 24, 25, 26, 27, 28, 29]",268.9355509,10718,3307,32,260,9,1.0
undo,19,3,0,0,0,15,"[0, 16, 15]",3,27,"[1, 2, 3, 4, 5, 6, 7, 8, 9, 10, 11, 12, 13, 14, 17, 18, 19, 20, 21, 22, 23, 24, 25, 26, 27, 28, 29]",229.8203364,11737,1019,15,76,9,2.204989671213251
undo,19,3,0,0,0,7,"[0, 16, 15, 7]",4,25,"[1, 2, 3, 4, 5, 6, 8, 9, 10, 11, 12, 13, 14, 17, 18, 19, 20, 21, 22, 24, 25, 26, 27, 28, 29]",199.7537437,12609,872,15,59,9,4.730913335158226
undo,19,3,0,0,0,8,"[0, 16, 15, 7, 8]",5,13,"[3, 4, 5, 10, 14, 17, 18, 19, 20, 21, 22, 24, 26]",143.7805358,14052,1443,9,26,9,2.6022124644283724
undo,19,3,0,0,0,24,"[0, 16, 15, 7, 8, 24]",6,9,"[3, 4, 10, 14, 17, 19, 20, 21, 22]",131.6150107,14686,634,9,11,9,2.8609774318136
undo,19,3,0,0,0,17,"[0, 16, 15, 7, 8, 24, 17]",7,2,"[3, 20]",62.2608472,16469,1783,2,0,9,2.323862059665861
undo,19,3,0,0,0,20,"[0, 16, 15, 7, 8, 24, 17, 20]",8,1,[3],49.61173656,17052,583,1,0,9,2.2115860124874804
undo,19,3,0,0,1,3,"[0, 16, 15, 7, 8, 24, 17, 20, 3]",9,0,[],29.21565851,17823,771,1,0,9,2.164543788989251
undo,19,3,0,1,1,3,"[0, 16, 15, 7, 8, 24, 17, 20, 3]",9,0,[],29.21565851,19244,1421,1,0,9,2.164543788989251
undo,20,8,0,0,0,0,[0],1,29,"[1, 2, 3, 4, 5, 6, 7, 8, 9, 10, 11, 12, 13, 14, 15, 16, 17, 18, 19, 20, 21, 22, 23, 24, 25, 26, 27, 28, 29]",300,160,-1,10,149,9,0.0
undo,20,8,0,0,0,5,"[0, 5]",2,28,"[1, 2, 3, 4, 6, 7, 8, 9, 10, 11, 12, 13, 14, 15, 16, 17, 18, 19, 20, 21, 22, 23, 24, 25, 26, 27, 28, 29]",254.5137383,5290,5130,10,100,9,1.0
undo,20,8,0,0,0,14,"[0, 5, 14]",3,20,"[1, 2, 3, 4, 6, 7, 11, 15, 16, 17, 18, 19, 20, 21, 22, 23, 24, 25, 28, 29]",214.5512559,15786,10496,4,36,9,1.0001019035932595
undo,20,8,0,0,0,17,"[0, 5, 14, 17]",4,15,"[1, 4, 6, 7, 11, 15, 16, 18, 19, 20, 22, 23, 24, 25, 28]",177.5377449,16765,979,4,16,9,1.121197267659591
undo,20,8,0,0,0,11,"[0, 5, 14, 17, 11]",5,11,"[1, 4, 15, 16, 18, 19, 22, 23, 24, 25, 28]",152.3583883,18300,1535,4,8,9,1.1277254166016362
undo,20,8,0,0,0,24,"[0, 5, 14, 17, 11, 24]",6,3,"[15, 16, 28]",115.1428001,19183,883,2,2,9,1.1227411011978805
undo,20,8,0,0,0,15,"[0, 5, 14, 17, 11, 24, 15]",7,2,"[16, 28]",98.37974552,20060,877,2,0,9,1.1956385406066814
undo,20,8,0,0,0,16,"[0, 5, 14, 17, 11, 24, 15, 16]",8,1,[28],47.30137436,21083,1023,1,0,9,1.36482239111247
undo,20,8,0,0,1,28,"[0, 5, 14, 17, 11, 24, 15, 16, 28]",9,0,[],24.94069458,21939,856,1,0,9,1.632953105226947
undo,20,8,0,1,1,28,"[0, 5, 14, 17, 11, 24, 15, 16, 28]",9,0,[],24.94069458,23093,1154,1,0,9,1.632953105226947
undo,21,33,0,0,0,0,[0],1,23,"[1, 2, 5, 7, 8, 11, 12, 13, 14, 15, 16, 17, 18, 19, 20, 21, 23, 24, 25, 26, 27, 28, 29]",300,178,-1,5,108,9,0.0
undo,21,33,0,0,0,8,"[0, 8]",2,22,"[1, 2, 5, 7, 11, 12, 13, 14, 15, 16, 17, 18, 19, 20, 21, 23, 24, 25, 26, 27, 28, 29]",265.8679037,4075,3897,5,87,9,1.0
undo,21,33,0,0,0,27,"[0, 8, 27]",3,6,"[5, 16, 19, 21, 23, 25]",172.3906337,6287,2212,2,5,5,1.1120034973992803
undo,21,33,1,0,0,8,"[0, 8]",2,22,"[1, 2, 5, 7, 11, 12, 13, 14, 15, 16, 17, 18, 19, 20, 21, 23, 24, 25, 26, 27, 28, 29]",265.8679037,7546,1259,5,87,9,1.0
undo,21,33,0,0,0,21,"[0, 8, 21]",3,16,"[2, 5, 7, 11, 13, 14, 16, 17, 18, 19, 20, 24, 26, 27, 28, 29]",166.0430571,9540,1994,5,80,9,1.0670557763739492
undo,21,33,0,0,0,13,"[0, 8, 21, 13]",4,12,"[2, 7, 11, 14, 16, 17, 18, 19, 20, 24, 26, 29]",139.6422995,10491,951,4,54,9,1.0555103820910288
undo,21,33,0,0,0,19,"[0, 8, 21, 13, 19]",5,10,"[7, 11, 14, 16, 17, 18, 20, 24, 26, 29]",114.1472019,12902,2411,3,19,9,1.1090798607799486
undo,21,33,0,0,0,24,"[0, 8, 21, 13, 19, 24]",6,6,"[7, 14, 16, 18, 26, 29]",72.09960985,13771,869,2,3,9,1.1193530461391534
undo,21,33,0,0,0,7,"[0, 8, 21, 13, 19, 24, 7]",7,2,"[14, 26]",42.89344611,15646,1875,2,0,9,1.2065014071663551
undo,21,33,0,0,0,14,"[0, 8, 21, 13, 19, 24, 7, 14]",8,1,[26],28.02737737,16384,738,1,0,9,1.2536495746979057
undo,21,33,0,0,1,26,"[0, 8, 21, 13, 19, 24, 7, 14, 26]",9,0,[],15.37826672,17018,634,1,0,9,1.2580465331304596
undo,21,33,0,1,1,26,"[0, 8, 21, 13, 19, 24, 7, 14, 26]",9,0,[],15.37826672,19160,2142,1,0,9,1.2580465331304596
undo,22,11,0,0,0,0,[0],1,25,"[1, 2, 3, 4, 5, 6, 8, 9, 10, 11, 12, 13, 14, 15, 16, 17, 18, 19, 20, 22, 23, 25, 26, 27, 28]",300,165,-1,6,374,12,0.0
undo,22,11,0,0,0,4,"[0, 4]",2,20,"[1, 2, 5, 6, 8, 9, 10, 11, 12, 13, 15, 17, 18, 19, 20, 22, 23, 25, 27, 28]",227.9652861,10759,10594,46,281,9,1.0
undo,22,11,0,0,0,1,"[0, 4, 1]",3,15,"[2, 5, 8, 9, 11, 12, 15, 17, 18, 20, 22, 23, 25, 27, 28]",182.2597066,11875,1116,13,88,8,3.3301983952813483
undo,22,11,1,0,0,4,"[0, 4]",2,20,"[1, 2, 5, 6, 8, 9, 10, 11, 12, 13, 15, 17, 18, 19, 20, 22, 23, 25, 27, 28]",227.9652861,14328,2453,46,281,9,1.0
undo,22,11,1,0,0,0,[0],1,25,"[1, 2, 3, 4, 5, 6, 8, 9, 10, 11, 12, 13, 14, 15, 16, 17, 18, 19, 20, 22, 23, 25, 26, 27, 28]",300,14979,651,6,374,12,0.0
undo,22,11,0,0,0,1,"[0, 1]",2,24,"[2, 3, 4, 5, 6, 8, 9, 10, 11, 12, 13, 14, 15, 16, 17, 18, 19, 20, 22, 23, 25, 26, 27, 28]",264.6446609,16413,1434,6,217,12,1.0
undo,22,11,0,0,0,18,"[0, 1, 18]",3,19,"[2, 4, 5, 6, 8, 9, 11, 12, 14, 15, 16, 17, 19, 20, 22, 23, 25, 27, 28]",212.3187591,17587,1174,6,161,12,1.3884463804898786
undo,22,11,0,0,0,27,"[0, 1, 18, 27]",4,18,"[2, 4, 5, 6, 8, 9, 11, 12, 14, 15, 16, 17, 19, 20, 22, 23, 25, 28]",188.4650382,18367,780,6,155,12,1.3600813284083875
undo,22,11,0,0,0,17,"[0, 1, 18, 27, 17]",5,11,"[2, 5, 6, 8, 11, 12, 15, 19, 22, 25, 28]",111.3871556,20101,1734,2,45,12,1.282398281674261
undo,22,11,0,0,0,15,"[0, 1, 18, 27, 17, 15]",6,9,"[2, 5, 8, 11, 12, 19, 22, 25, 28]",98.73804492,20736,635,24,78,11,1.2829907584205178
undo,22,11,0,0,0,8,"[0, 1, 18, 27, 17, 15, 8]",7,6,"[2, 5, 11, 12, 22, 28]",85.28442087,21604,868,14,24,11,1.4786886999421334
undo,22,11,1,0,0,15,"[0, 1, 18, 27, 17, 15]",6,9,"[2, 5, 8, 11, 12, 19, 22, 25, 28]",98.73804492,23544,1940,24,78,11,1.2829907584205178
undo,22,11,1,0,0,17,"[0, 1, 18, 27, 17]",5,11,"[2, 5, 6, 8, 11, 12, 15, 19, 22, 25, 28]",111.3871556,24912,1368,2,45,12,1.282398281674261
undo,22,11,0,0,0,8,"[0, 1, 18, 27, 17, 8]",6,7,"[2, 5, 11, 12, 15, 22, 28]",97.0693345,27070,2158,2,21,12,1.3975291553712
undo,22,11,0,0,0,15,"[0, 1, 18, 27, 17, 8, 15]",7,6,"[2, 5, 11, 12, 22, 28]",83.61571045,27869,799,2,18,12,1.3793915678186077
undo,22,11,0,0,0,11,"[0, 1, 18, 27, 17, 8, 15, 11]",8,4,"[2, 5, 22, 28]",65.50494017,28941,1072,2,14,12,1.3525960247899067
undo,22,11,0,0,0,28,"[0, 1, 18, 27, 17, 8, 15, 11, 28]",9,3,"[2, 5, 22]",46.08845233,29768,827,2,4,12,1.4693669896690256
undo,22,11,0,0,0,5,"[0, 1, 18, 27, 17, 8, 15, 11, 28, 5]",10,2,"[2, 22]",28.19990851,30636,868,1,1,12,1.6706321377081579
undo,22,11,0,0,0,2,"[0, 1, 18, 27, 17, 8, 15, 11, 28, 5, 2]",11,1,[22],11.19990851,31702,1066,1,0,12,1.6180355992209499
undo,22,11,0,0,1,22,"[0, 1, 18, 27, 17, 8, 15, 11, 28, 5, 2, 22]",12,0,[],1.150032892,32508,806,1,0,12,1.5851265969407473
undo,22,11,0,1,1,22,"[0, 1, 18, 27, 17, 8, 15, 11, 28, 5, 2, 22]",12,0,[],1.150032892,34361,1853,1,0,12,1.5851265969407473
basic,23,28,0,0,0,0,[0],1,27,"[1, 2, 3, 4, 5, 6, 7, 8, 9, 10, 11, 12, 13, 14, 15, 16, 17, 18, 19, 20, 22, 23, 25, 26, 27, 28, 29]",300,189,-1,2,96,9,0.0
basic,23,28,0,0,0,14,"[0, 14]",2,14,"[1, 2, 3, 5, 7, 10, 11, 12, 13, 17, 18, 19, 20, 26]",147.8914861,8363,8174,1,26,8,1.0
basic,23,28,0,0,0,18,"[0, 14, 18]",3,11,"[1, 2, 3, 5, 7, 11, 12, 13, 17, 19, 26]",122.3963885,9945,1582,1,23,8,1.0675599824559303
basic,23,28,0,0,0,13,"[0, 14, 18, 13]",4,7,"[2, 7, 11, 12, 17, 19, 26]",97.9832773,10958,1013,1,9,8,1.0602397944415018
basic,23,28,0,0,0,12,"[0, 14, 18, 13, 12]",5,4,"[2, 7, 17, 19]",80.77862677,11730,772,1,3,8,1.0640685934245377
basic,23,28,0,0,0,7,"[0, 14, 18, 13, 12, 7]",6,2,"[2, 19]",67.62568033,12947,1217,1,1,8,1.186262804928269
basic,23,28,0,0,0,19,"[0, 14, 18, 13, 12, 7, 19]",7,1,[2],39.89483108,15859,2912,1,0,8,1.424576333867947
basic,23,28,0,0,1,2,"[0, 14, 18, 13, 12, 7, 19, 2]",8,0,[],2.531747699,19608,3749,1,0,8,1.4824387893309579
basic,23,28,0,1,1,2,"[0, 14, 18, 13, 12, 7, 19, 2]",8,0,[],2.531747699,25033,5425,1,0,8,1.4824387893309579
basic,24,17,0,0,0,0,[0],1,28,"[1, 2, 3, 4, 5, 6, 7, 8, 9, 10, 11, 12, 13, 14, 15, 16, 17, 18, 19, 20, 22, 23, 24, 25, 26, 27, 28, 29]",300,148,-1,2,73,8,0.0
basic,24,17,0,0,0,9,"[0, 9]",2,25,"[1, 2, 3, 5, 6, 7, 8, 10, 11, 12, 14, 15, 16, 17, 18, 19, 20, 22, 23, 24, 25, 26, 27, 28, 29]",210.5293344,13641,13493,1,34,8,1.0
basic,24,17,0,0,0,16,"[0, 9, 16]",3,21,"[1, 2, 3, 5, 7, 8, 10, 11, 12, 14, 17, 18, 19, 20, 22, 23, 25, 26, 27, 28, 29]",197.1876704,14325,684,1,26,8,1.173103464220352
basic,24,17,0,0,0,2,"[0, 9, 16, 2]",4,18,"[1, 3, 5, 7, 8, 10, 11, 12, 14, 17, 18, 19, 23, 25, 26, 27, 28, 29]",181.0631549,14972,647,1,23,8,1.14825089247282
basic,24,17,0,0,0,17,"[0, 9, 16, 2, 17]",5,7,"[7, 8, 12, 14, 26, 27, 29]",142.7356191,15973,1001,4,5,7,1.4896040699768547
basic,24,17,0,0,0,8,"[0, 9, 16, 2, 17, 8]",6,3,"[7, 12, 27]",104.5256727,16896,923,3,0,7,1.4604726966175894
basic,24,17,0,0,1,27,"[0, 9, 16, 2, 17, 8, 27]",7,0,[],21.88790895,20591,3695,1,0,7,1.2949460667276491
basic,24,17,0,1,1,27,"[0, 9, 16, 2, 17, 8, 27]",7,0,[],21.88790895,23044,2453,1,0,7,1.2949460667276491
basic,25,6,0,0,0,0,[0],1,29,"[1, 2, 3, 4, 5, 6, 7, 8, 9, 10, 11, 12, 13, 14, 15, 16, 17, 18, 19, 20, 21, 22, 23, 24, 25, 26, 27, 28, 29]",300,159,-1,180,4304,10,0.0
basic,25,6,0,0,0,3,"[0, 3]",2,28,"[1, 2, 4, 5, 6, 7, 8, 9, 10, 11, 12, 13, 14, 15, 16, 17, 18, 19, 20, 21, 22, 23, 24, 25, 26, 27, 28, 29]",266.4738908,5090,4931,90,1607,10,1.0
basic,25,6,0,0,0,16,"[0, 3, 16]",3,27,"[1, 2, 4, 5, 6, 7, 8, 9, 10, 11, 12, 13, 14, 15, 17, 18, 19, 20, 21, 22, 23, 24, 25, 26, 27, 28, 29]",220.2353787,16005,10915,16,190,10,1.1050742161728249
basic,25,6,0,0,0,18,"[0, 3, 16, 18]",4,24,"[1, 2, 4, 5, 6, 7, 8, 9, 10, 11, 12, 13, 14, 15, 17, 19, 20, 21, 22, 23, 24, 26, 27, 29]",196.8901436,16734,729,10,97,10,1.6930577237270534
basic,25,6,0,0,0,17,"[0, 3, 16, 18, 17]",5,20,"[1, 2, 4, 5, 6, 7, 8, 9, 10, 11, 13, 14, 20, 21, 22, 23, 24, 26, 27, 29]",182.9617553,17411,677,8,58,10,1.6583245453234965
basic,25,6,0,0,0,24,"[0, 3, 16, 18, 17, 24]",6,16,"[1, 2, 4, 5, 6, 7, 8, 10, 11, 13, 14, 22, 23, 26, 27, 29]",153.687193,19743,2332,2,22,10,1.5038312046288822
basic,25,6,0,0,0,10,"[0, 3, 16, 18, 17, 24, 10]",7,14,"[1, 2, 4, 5, 6, 7, 8, 13, 14, 22, 23, 26, 27, 29]",140.2707851,20529,786,2,15,10,1.8937708466864944
basic,25,6,0,0,0,7,"[0, 3, 16, 18, 17, 24, 10, 7]",8,3,"[2, 13, 26]",82.27078515,22420,1891,2,1,10,4.534057829208976
basic,25,6,0,0,0,26,"[0, 3, 16, 18, 17, 24, 10, 7, 26]",9,1,[2],58.18759599,23321,901,1,0,10,4.861594444093639
basic,25,6,0,0,1,2,"[0, 3, 16, 18, 17, 24, 10, 7, 26, 2]",10,0,[],28.35472821,24151,830,1,0,10,3.424583762853834
basic,25,6,0,1,1,2,"[0, 3, 16, 18, 17, 24, 10, 7, 26, 2]",10,0,[],28.35472821,25861,1710,1,0,10,3.424583762853834
basic,26,34,0,0,0,0,[0],1,25,"[1, 3, 4, 5, 6, 7, 8, 9, 10, 11, 12, 13, 15, 18, 19, 20, 21, 22, 23, 24, 25, 26, 27, 28, 29]",300,177,-1,12,367,10,0.0
basic,26,34,0,0,0,13,"[0, 13]",2,24,"[1, 3, 4, 5, 6, 7, 8, 9, 10, 11, 12, 15, 18, 19, 20, 21, 22, 23, 24, 25, 26, 27, 28, 29]",279.9750156,4324,4147,12,331,10,1.0
basic,26,34,0,0,0,1,"[0, 13, 1]",3,16,"[3, 5, 7, 8, 9, 10, 11, 12, 19, 21, 22, 23, 24, 25, 27, 29]",211.8574701,5818,1494,3,92,10,1.0010381285747127
basic,26,34,0,0,0,8,"[0, 13, 1, 8]",4,14,"[3, 5, 7, 9, 10, 11, 12, 19, 22, 23, 24, 25, 27, 29]",201.0871405,6490,672,2,54,10,1.1636807
basic,26,34,0,0,0,25,"[0, 13, 1, 8, 25]",5,12,"[3, 5, 7, 9, 10, 11, 12, 22, 23, 24, 27, 29]",183.999133,7201,711,2,28,10,1.1396208815936457
basic,26,34,0,0,0,24,"[0, 13, 1, 8, 25, 24]",6,11,"[3, 5, 7, 9, 10, 11, 12, 22, 23, 27, 29]",166.5062774,8518,1317,2,23,10,1.374180768736554
basic,26,34,0,0,0,12,"[0, 13, 1, 8, 25, 24, 12]",7,7,"[7, 9, 10, 11, 22, 23, 27]",115.4670767,11152,2634,1,8,10,1.4994254760835948
basic,26,34,0,0,0,7,"[0, 13, 1, 8, 25, 24, 12, 7]",8,5,"[9, 11, 22, 23, 27]",100.4337804,11868,716,1,4,10,1.758992610425009
basic,26,34,0,0,0,23,"[0, 13, 1, 8, 25, 24, 12, 7, 23]",9,1,[27],72.27352467,12568,700,1,0,10,2.399781305190153
basic,26,34,0,0,1,27,"[0, 13, 1, 8, 25, 24, 12, 7, 23, 27]",10,0,[],18.60789321,13489,921,1,0,10,4.766619878750327
basic,26,34,0,1,1,27,"[0, 13, 1, 8, 25, 24, 12, 7, 23, 27]",10,0,[],18.60789321,15678,2189,1,0,10,4.766619878750327
basic,27,29,0,0,0,0,[0],1,29,"[1, 2, 3, 4, 5, 6, 7, 8, 9, 10, 11, 12, 13, 14, 15, 16, 17, 18, 19, 20, 21, 22, 23, 24, 25, 26, 27, 28, 29]",300,163,-1,1,78,9,0.0
basic,27,29,0,0,0,25,"[0, 25]",2,18,"[1, 2, 4, 5, 6, 7, 9, 10, 12, 13, 14, 15, 16, 17, 22, 26, 27, 28]",223.3449284,7321,7158,13,101,8,1.0
basic,27,29,0,0,0,1,"[0, 25, 1]",3,15,"[4, 5, 6, 7, 9, 10, 12, 13, 14, 15, 17, 22, 26, 27, 28]",187.8343666,8257,936,11,61,8,1.308415527582314
basic,27,29,0,0,0,14,"[0, 25, 1, 14]",4,12,"[4, 5, 6, 7, 9, 12, 13, 17, 22, 26, 27, 28]",144.8809034,10002,1745,9,32,8,1.7138400796467363
basic,27,29,0,0,0,13,"[0, 25, 1, 14, 13]",5,10,"[4, 5, 6, 7, 9, 12, 17, 22, 27, 28]",126.853147,11036,1034,9,15,8,1.5995815549042065
basic,27,29,0,0,0,5,"[0, 25, 1, 14, 13, 5]",6,7,"[4, 7, 9, 12, 22, 27, 28]",101.1432268,12146,1110,7,3,8,1.6003565067425858
basic,27,29,0,0,1,9,"[0, 25, 1, 14, 13, 5, 9]",7,0,[],25.71776688,18138,5992,1,0,7,1.4528565520595356
basic,27,29,0,1,1,9,"[0, 25, 1, 14, 13, 5, 9]",7,0,[],25.71776688,21311,3173,1,0,7,1.4528565520595356
basic,28,25,0,0,0,0,[0],1,28,"[1, 2, 3, 4, 5, 7, 8, 9, 10, 11, 12, 13, 14, 15, 16, 17, 18, 19, 20, 21, 22, 23, 24, 25, 26, 27, 28, 29]",300,145,-1,5,94,10,0.0
basic,28,25,0,0,0,1,"[0, 1]",2,22,"[2, 3, 5, 7, 8, 9, 11, 12, 13, 14, 16, 17, 18, 19, 20, 21, 22, 23, 24, 25, 28, 29]",268.9516506,9824,9679,16,145,9,1.0
basic,28,25,0,0,0,19,"[0, 1, 19]",3,19,"[2, 3, 5, 7, 8, 9, 11, 12, 13, 16, 17, 20, 21, 22, 23, 24, 25, 28, 29]",210.4281511,10704,880,10,62,9,1.8640586484941235
basic,28,25,0,0,0,29,"[0, 1, 19, 29]",4,18,"[2, 3, 5, 7, 8, 9, 11, 12, 13, 16, 17, 20, 21, 22, 23, 24, 25, 28]",194.1493305,11835,1131,7,38,9,1.6902066831361364
basic,28,25,0,0,0,22,"[0, 1, 19, 29, 22]",5,16,"[3, 5, 7, 8, 9, 11, 12, 13, 16, 17, 20, 21, 23, 24, 25, 28]",178.024815,12439,604,5,24,9,1.5765332301257242
basic,28,25,0,0,0,7,"[0, 1, 19, 29, 22, 7]",6,7,"[3, 8, 9, 13, 23, 24, 28]",102.3809124,13768,1329,5,10,9,1.6861598689503736
basic,28,25,0,0,0,24,"[0, 1, 19, 29, 22, 7, 24]",7,4,"[3, 8, 9, 13]",77.62207556,14536,768,3,3,9,1.582250131961203
basic,28,25,0,0,0,9,"[0, 1, 19, 29, 22, 7, 24, 9]",8,3,"[3, 8, 13]",59.59431918,15536,1000,3,0,9,1.5399866688098078
basic,28,25,0,0,1,3,"[0, 1, 19, 29, 22, 7, 24, 9, 3]",9,0,[],29.32882728,17668,2132,1,0,9,1.461870590911948
basic,28,25,0,1,1,3,"[0, 1, 19, 29, 22, 7, 24, 9, 3]",9,0,[],29.32882728,19844,2176,1,0,9,1.461870590911948
basic,29,30,0,0,0,0,[0],1,19,"[3, 4, 5, 7, 9, 11, 16, 17, 18, 19, 20, 21, 22, 24, 25, 26, 27, 28, 29]",300,176,-1,5,41,8,0.0
basic,29,30,0,0,0,27,"[0, 27]",2,10,"[3, 5, 7, 9, 18, 19, 20, 24, 25, 29]",90.59608409,6301,6125,7,22,6,1.0
basic,29,30,0,0,0,3,"[0, 27, 3]",3,8,"[5, 7, 18, 19, 20, 24, 25, 29]",71.49111091,7318,1017,5,9,6,1.0022223300201003
basic,29,30,0,0,0,29,"[0, 27, 3, 29]",4,5,"[5, 7, 18, 19, 20]",52.89003567,11491,4173,2,3,6,1.0149900937654948
basic,29,30,0,0,0,18,"[0, 27, 3, 29, 18]",5,1,[5],33.57682776,13206,1715,1,0,6,1.0907994995031296
basic,29,30,0,0,1,5,"[0, 27, 3, 29, 18, 5]",6,0,[],20.53842295,14951,1745,1,0,6,1.1556882660658163
basic,29,30,0,1,1,5,"[0, 27, 3, 29, 18, 5]",6,0,[],20.53842295,16860,1909,1,0,6,1.1556882660658163
basic,30,27,0,0,0,0,[0],1,26,"[1, 3, 5, 6, 7, 8, 9, 10, 11, 12, 13, 14, 15, 16, 17, 18, 19, 21, 22, 23, 24, 25, 26, 27, 28, 29]",300,143,-1,13,578,11,0.0
basic,30,27,0,0,0,15,"[0, 15]",2,24,"[1, 3, 5, 6, 7, 8, 9, 10, 11, 12, 13, 14, 16, 17, 18, 19, 21, 22, 23, 24, 25, 26, 27, 29]",263.7508621,2452,2309,6,219,11,1.0
basic,30,27,0,0,0,24,"[0, 15, 24]",3,20,"[1, 5, 6, 7, 8, 9, 10, 12, 13, 14, 16, 17, 18, 19, 21, 23, 25, 26, 27, 29]",246.5462115,3335,883,6,130,11,1.130933077698322
basic,30,27,0,0,0,17,"[0, 15, 24, 17]",4,15,"[1, 6, 8, 10, 12, 13, 14, 16, 18, 19, 23, 25, 26, 27, 29]",229.9932662,4318,983,4,60,11,1.1285538435963374
basic,30,27,0,0,0,12,"[0, 15, 24, 17, 12]",5,14,"[1, 6, 8, 10, 13, 14, 16, 18, 19, 23, 25, 26, 27, 29]",218.8129263,5871,1553,2,32,11,1.2561880288755216
basic,30,27,0,0,0,10,"[0, 15, 24, 17, 12, 10]",6,11,"[1, 8, 13, 14, 18, 19, 23, 25, 26, 27, 29]",207.7675653,6802,931,2,28,11,1.2228289337766665
basic,30,27,0,0,0,13,"[0, 15, 24, 17, 12, 10, 13]",7,9,"[1, 8, 14, 18, 19, 23, 26, 27, 29]",167.9178476,10011,3209,2,18,11,1.3421291994761178
basic,30,27,0,0,0,19,"[0, 15, 24, 17, 12, 10, 13, 19]",8,5,"[1, 8, 14, 23, 29]",131.6825057,11742,1731,2,6,11,1.294749956153846
basic,30,27,0,0,0,8,"[0, 15, 24, 17, 12, 10, 13, 19, 8]",9,3,"[14, 23, 29]",116.816437,12700,958,2,1,11,1.3554286578836865
basic,30,27,0,0,0,14,"[0, 15, 24, 17, 12, 10, 13, 19, 8, 14]",10,1,[29],59.25777126,17969,5269,1,0,11,1.312380420632942
basic,30,27,0,0,1,29,"[0, 15, 24, 17, 12, 10, 13, 19, 8, 14, 29]",11,0,[],14.96330208,19272,1303,1,0,11,1.4680136813839417
basic,30,27,0,1,1,29,"[0, 15, 24, 17, 12, 10, 13, 19, 8, 14, 29]",11,0,[],14.96330208,20777,1505,1,0,11,1.4680136813839417
basic,31,42,0,0,0,0,[0],1,29,"[1, 2, 3, 4, 5, 6, 7, 8, 9, 10, 11, 12, 13, 14, 15, 16, 17, 18, 19, 20, 21, 22, 23, 24, 25, 26, 27, 28, 29]",300,155,-1,16,302,9,0.0
basic,31,42,0,0,0,5,"[0, 5]",2,28,"[1, 2, 3, 4, 6, 7, 8, 9, 10, 11, 12, 13, 14, 15, 16, 17, 18, 19, 20, 21, 22, 23, 24, 25, 26, 27, 28, 29]",191.2939744,10943,10788,1,22,9,1.0
basic,31,42,0,0,0,4,"[0, 5, 4]",3,23,"[1, 2, 3, 6, 7, 8, 9, 10, 11, 13, 15, 17, 18, 19, 20, 21, 22, 23, 24, 25, 26, 27, 29]",171.4445412,11728,785,1,14,9,1.420957801478707
basic,31,42,0,0,0,22,"[0, 5, 4, 22]",4,20,"[1, 2, 3, 6, 7, 8, 9, 11, 15, 17, 18, 19, 20, 21, 23, 24, 25, 26, 27, 29]",160.2642013,12442,714,1,11,9,1.5771494659680896
basic,31,42,0,0,0,8,"[0, 5, 4, 22, 8]",5,14,"[1, 2, 3, 6, 7, 11, 15, 18, 19, 24, 25, 26, 27, 29]",138.1282577,13204,762,1,10,9,1.5055393955524201
basic,31,42,0,0,0,1,"[0, 5, 4, 22, 8, 1]",6,5,"[2, 7, 19, 26, 27]",89.03650682,14507,1303,1,7,9,1.3547259083637835
basic,31,42,0,0,0,7,"[0, 5, 4, 22, 8, 1, 7]",7,4,"[2, 19, 26, 27]",59.03650682,15403,896,1,3,9,1.3909715672447451
basic,31,42,0,0,0,26,"[0, 5, 4, 22, 8, 1, 7, 26]",8,1,[27],32.46584631,16776,1373,1,0,9,1.3511825943939393
basic,31,42,0,0,1,27,"[0, 5, 4, 22, 8, 1, 7, 26, 27]",9,0,[],14.43808994,17437,661,1,0,9,1.3391911688802078
basic,31,42,0,1,1,27,"[0, 5, 4, 22, 8, 1, 7, 26, 27]",9,0,[],14.43808994,18612,1175,1,0,9,1.3391911688802078
basic,32,13,0,0,0,0,[0],1,29,"[1, 2, 3, 4, 5, 6, 7, 8, 9, 10, 11, 12, 13, 14, 15, 16, 17, 18, 19, 20, 21, 22, 23, 24, 25, 26, 27, 28, 29]",300,157,-1,60,2676,11,0.0
basic,32,13,0,0,0,28,"[0, 28]",2,24,"[1, 2, 3, 4, 6, 7, 8, 9, 10, 11, 12, 13, 15, 16, 17, 19, 20, 21, 22, 23, 24, 26, 27, 29]",226.3182519,3906,3749,12,378,10,1.0
basic,32,13,0,0,0,2,"[0, 28, 2]",3,20,"[1, 3, 4, 6, 7, 9, 11, 12, 13, 15, 16, 17, 19, 20, 21, 23, 24, 26, 27, 29]",188.6751915,5270,1364,9,174,10,1.0158286399660754
basic,32,13,0,0,0,29,"[0, 28, 2, 29]",4,19,"[1, 3, 4, 6, 7, 9, 11, 12, 13, 15, 16, 17, 19, 20, 21, 23, 24, 26, 27]",176.9704916,6237,967,9,132,10,1.1053279759370194
basic,32,13,0,0,0,7,"[0, 28, 2, 29, 7]",5,18,"[1, 3, 4, 6, 9, 11, 12, 13, 15, 16, 17, 19, 20, 21, 23, 24, 26, 27]",161.706154,9337,3100,6,72,10,1.313811244316471
basic,32,13,0,0,0,26,"[0, 28, 2, 29, 7, 26]",6,17,"[1, 3, 4, 6, 9, 11, 12, 13, 15, 16, 17, 19, 20, 21, 23, 24, 27]",151.2658475,9788,451,6,39,10,1.554636901089982
basic,32,13,0,0,0,6,"[0, 28, 2, 29, 7, 26, 6]",7,13,"[1, 3, 4, 11, 13, 15, 16, 17, 19, 20, 23, 24, 27]",131.1660963,10803,1015,4,17,10,1.554967005613632
basic,32,13,0,0,0,11,"[0, 28, 2, 29, 7, 26, 6, 11]",8,6,"[1, 13, 15, 16, 17, 23]",112.0611231,11827,1024,3,4,10,1.4733168623367165
basic,32,13,0,0,0,13,"[0, 28, 2, 29, 7, 26, 6, 11, 13]",9,2,"[15, 17]",55.98082354,15307,3480,2,0,10,1.3447287374536006
basic,32,13,0,0,1,15,"[0, 28, 2, 29, 7, 26, 6, 11, 13, 15]",10,0,[],16.16876507,16590,1283,1,0,10,1.3473372715243728
basic,32,13,0,1,1,15,"[0, 28, 2, 29, 7, 26, 6, 11, 13, 15]",10,0,[],16.16876507,19463,2873,1,0,10,1.3473372715243728
basic,33,7,0,0,0,0,[0],1,29,"[1, 2, 3, 4, 5, 6, 7, 8, 9, 10, 11, 12, 13, 14, 15, 16, 17, 18, 19, 20, 21, 22, 23, 24, 25, 26, 27, 28, 29]",300,159,-1,3,79,9,0.0
basic,33,7,0,0,0,15,"[0, 15]",2,19,"[2, 4, 5, 6, 7, 8, 9, 10, 13, 14, 16, 18, 19, 20, 21, 23, 25, 27, 28]",230.9348134,9882,9723,2,38,9,1.0
basic,33,7,0,0,0,6,"[0, 15, 6]",3,18,"[2, 4, 5, 7, 8, 9, 10, 13, 14, 16, 18, 19, 20, 21, 23, 25, 27, 28]",205.854941,10806,924,2,36,9,1.366719602896943
basic,33,7,0,0,0,25,"[0, 15, 6, 25]",4,11,"[2, 4, 7, 13, 14, 16, 18, 19, 20, 21, 23]",138.6760753,11666,860,2,28,9,1.3624631728355765
basic,33,7,0,0,0,4,"[0, 15, 6, 25, 4]",5,7,"[2, 7, 13, 16, 18, 19, 20]",113.9374415,12434,768,2,12,9,1.3249684384385587
basic,33,7,0,0,0,20,"[0, 15, 6, 25, 4, 20]",6,5,"[2, 7, 13, 18, 19]",94.29055881,13169,735,1,6,9,1.3721893242679268
basic,33,7,0,0,0,18,"[0, 15, 6, 25, 4, 20, 18]",7,3,"[7, 13, 19]",81.48431034,13738,569,1,2,9,1.5262542308371432
basic,33,7,0,0,0,7,"[0, 15, 6, 25, 4, 20, 18, 7]",8,1,[19],40.25325408,14719,981,1,0,9,1.41986878673423
basic,33,7,0,0,1,19,"[0, 15, 6, 25, 4, 20, 18, 7, 19]",9,0,[],10.84237174,15786,1067,1,0,9,1.5285658163212987
basic,33,7,0,1,1,19,"[0, 15, 6, 25, 4, 20, 18, 7, 19]",9,0,[],10.84237174,16911,1125,1,0,9,1.5285658163212987
basic,34,40,0,0,0,0,[0],1,29,"[1, 2, 3, 4, 5, 6, 7, 8, 9, 10, 11, 12, 13, 14, 15, 16, 17, 18, 19, 20, 21, 22, 23, 24, 25, 26, 27, 28, 29]",300,169,-1,8,191,9,0.0
basic,34,40,0,0,0,2,"[0, 2]",2,28,"[1, 3, 4, 5, 6, 7, 8, 9, 10, 11, 12, 13, 14, 15, 16, 17, 18, 19, 20, 21, 22, 23, 24, 25, 26, 27, 28, 29]",263.7646581,5455,5286,4,79,9,1.0
basic,34,40,0,0,0,19,"[0, 2, 19]",3,22,"[1, 5, 6, 7, 8, 9, 10, 11, 13, 14, 15, 17, 18, 20, 21, 22, 23, 24, 25, 26, 27, 29]",194.4249148,14852,9397,19,105,8,1.02908296307533
basic,34,40,0,0,0,23,"[0, 2, 19, 23]",4,15,"[1, 5, 6, 7, 8, 9, 10, 11, 13, 17, 18, 21, 22, 27, 29]",162.4718242,15859,1007,11,38,8,1.4499965171787688
basic,34,40,0,0,0,5,"[0, 2, 19, 23, 5]",5,10,"[1, 6, 7, 8, 9, 11, 18, 21, 22, 27]",134.1698808,17291,1432,4,12,8,1.3483906154476113
basic,34,40,0,0,0,18,"[0, 2, 19, 23, 5, 18]",6,5,"[1, 6, 9, 21, 22]",102.594574,18068,777,3,3,8,1.6664768989460201
basic,34,40,0,0,0,9,"[0, 2, 19, 23, 5, 18, 9]",7,2,"[6, 21]",86.04162866,18840,772,2,0,8,1.7348609689602368
basic,34,40,0,0,1,21,"[0, 2, 19, 23, 5, 18, 9, 21]",8,0,[],40.33604914,19717,877,1,0,8,2.1548319090303782
basic,34,40,0,1,1,21,"[0, 2, 19, 23, 5, 18, 9, 21]",8,0,[],40.33604914,21926,2209,1,0,8,2.1548319090303782
basic,35,21,0,0,0,0,[0],1,29,"[1, 2, 3, 4, 5, 6, 7, 8, 9, 10, 11, 12, 13, 14, 15, 16, 17, 18, 19, 20, 21, 22, 23, 24, 25, 26, 27, 28, 29]",300,155,-1,84,830,9,0.0
basic,35,21,0,0,0,21,"[0, 21]",2,22,"[1, 3, 4, 6, 8, 9, 10, 11, 12, 14, 15, 16, 17, 18, 20, 22, 23, 24, 25, 26, 27, 29]",210.1111798,6336,6181,1,69,9,1.0
basic,35,21,0,0,0,14,"[0, 21, 14]",3,15,"[1, 4, 6, 8, 9, 15, 16, 17, 18, 20, 22, 23, 24, 25, 29]",184.4986828,7167,831,35,96,8,1.0083702391721483
basic,35,21,0,0,0,4,"[0, 21, 14, 4]",4,13,"[1, 8, 9, 15, 16, 17, 18, 20, 22, 23, 24, 25, 29]",170.3565472,7752,585,20,39,8,1.0135821167776475
basic,35,21,0,0,0,23,"[0, 21, 14, 4, 23]",5,10,"[8, 15, 16, 17, 18, 20, 22, 24, 25, 29]",134.2317635,15855,8103,14,14,8,1.6740850510094318
basic,35,21,0,0,0,25,"[0, 21, 14, 4, 23, 25]",6,5,"[17, 18, 20, 22, 29]",90.90740543,16669,814,5,3,8,3.4955738644324623
basic,35,21,0,0,0,29,"[0, 21, 14, 4, 23, 25, 29]",7,2,"[18, 22]",45.68572921,18752,2083,2,0,8,3.001920993979745
basic,35,21,0,0,1,22,"[0, 21, 14, 4, 23, 25, 29, 22]",8,0,[],15.42023731,20035,1283,1,0,8,3.4609756589524965
basic,35,21,0,1,1,22,"[0, 21, 14, 4, 23, 25, 29, 22]",8,0,[],15.42023731,22410,2375,1,0,8,3.4609756589524965
basic,36,24,0,0,0,0,[0],1,29,"[1, 2, 3, 4, 5, 6, 7, 8, 9, 10, 11, 12, 13, 14, 15, 16, 17, 18, 19, 20, 21, 22, 23, 24, 25, 26, 27, 28, 29]",300,175,-1,4,76,10,0.0
basic,36,24,0,0,0,14,"[0, 14]",2,27,"[1, 2, 3, 4, 5, 6, 8, 9, 10, 11, 12, 13, 15, 16, 17, 18, 19, 20, 21, 22, 23, 24, 25, 26, 27, 28, 29]",278.0455016,9572,9397,4,54,10,1.0
basic,36,24,0,0,0,16,"[0, 14, 16]",3,25,"[2, 3, 4, 5, 6, 8, 9, 10, 11, 12, 13, 15, 17, 18, 19, 20, 21, 22, 23, 24, 25, 26, 27, 28, 29]",188.9949542,11690,2118,4,31,10,1.238291113657358
basic,36,24,0,0,0,8,"[0, 14, 16, 8]",4,17,"[2, 3, 4, 6, 9, 10, 11, 13, 15, 20, 22, 23, 24, 26, 27, 28, 29]",159.9949542,14594,2904,2,13,10,1.2714603293172921
basic,36,24,0,0,0,22,"[0, 14, 16, 8, 22]",5,13,"[3, 4, 6, 9, 10, 11, 15, 23, 24, 26, 27, 28, 29]",146.5785463,15133,539,2,10,10,1.4558841300797367
basic,36,24,0,0,0,15,"[0, 14, 16, 8, 22, 15]",6,11,"[3, 4, 6, 9, 10, 11, 23, 26, 27, 28, 29]",125.3653429,16006,873,2,8,10,1.459909027032803
basic,36,24,0,0,0,28,"[0, 14, 16, 8, 22, 15, 28]",7,5,"[4, 9, 11, 23, 27]",80.08841717,17092,1086,2,5,10,1.3358430839259279
basic,36,24,0,0,0,23,"[0, 14, 16, 8, 22, 15, 28, 23]",8,3,"[9, 11, 27]",61.06211957,18465,1373,2,2,10,1.3561794364003306
basic,36,24,0,0,0,11,"[0, 14, 16, 8, 22, 15, 28, 23, 11]",9,2,"[9, 27]",34.13629554,19592,1127,2,0,10,1.323606251450204
basic,36,24,0,0,1,27,"[0, 14, 16, 8, 22, 15, 28, 23, 11, 27]",10,0,[],6.33341799,20346,754,1,0,10,1.2857748381905127
basic,36,24,0,1,1,27,"[0, 14, 16, 8, 22, 15, 28, 23, 11, 27]",10,0,[],6.33341799,21567,1221,1,0,10,1.2857748381905127
basic,37,35,0,0,0,0,[0],1,29,"[1, 2, 3, 4, 5, 6, 7, 8, 9, 10, 11, 12, 13, 14, 15, 16, 17, 18, 19, 20, 21, 22, 23, 24, 25, 26, 27, 28, 29]",300,159,-1,5,236,11,0.0
basic,37,35,0,0,0,27,"[0, 27]",2,27,"[1, 2, 4, 5, 6, 7, 8, 9, 10, 11, 12, 13, 14, 15, 16, 17, 18, 19, 20, 21, 22, 23, 24, 25, 26, 28, 29]",278.7867966,2780,2621,5,144,11,1.0
basic,37,35,0,0,0,24,"[0, 27, 24]",3,25,"[1, 2, 4, 5, 6, 7, 8, 9, 10, 11, 12, 13, 15, 16, 17, 18, 19, 20, 21, 22, 23, 25, 26, 28, 29]",234.6053525,7675,4895,3,80,11,2.1084080567904624
basic,37,35,0,0,0,17,"[0, 27, 24, 17]",4,20,"[1, 2, 4, 5, 6, 7, 8, 9, 10, 15, 16, 18, 19, 20, 21, 23, 25, 26, 28, 29]",222.9006526,9674,1999,3,50,11,1.9439555968916868
basic,37,35,0,0,0,1,"[0, 27, 24, 17, 1]",5,18,"[2, 4, 5, 6, 8, 9, 10, 15, 16, 18, 19, 20, 21, 23, 25, 26, 28, 29]",207.0892643,10400,726,3,39,11,1.9436711872547336
basic,37,35,0,0,0,15,"[0, 27, 24, 17, 1, 15]",6,16,"[2, 4, 5, 6, 8, 9, 10, 16, 18, 19, 20, 23, 25, 26, 28, 29]",184.241945,11488,1088,3,24,11,2.082774572108194
basic,37,35,0,0,0,23,"[0, 27, 24, 17, 1, 15, 23]",7,7,"[5, 6, 9, 18, 19, 25, 26]",123.801892,15320,3832,3,14,11,1.657239080954205
basic,37,35,0,0,0,9,"[0, 27, 24, 17, 1, 15, 23, 9]",8,4,"[6, 18, 19, 25]",86.15883157,16956,1636,2,2,11,1.9022575917054987
basic,37,35,0,0,0,18,"[0, 27, 24, 17, 1, 15, 23, 9, 18]",9,2,"[6, 25]",66.13384718,17689,733,2,0,11,1.8181129550839106
basic,37,35,0,0,0,25,"[0, 27, 24, 17, 1, 15, 23, 9, 18, 25]",10,1,[6],32.29599855,18837,1148,1,0,11,1.6530923432245144
basic,37,35,0,0,1,6,"[0, 27, 24, 17, 1, 15, 23, 9, 18, 25, 6]",11,0,[],8.275174247,20757,1920,1,0,11,1.9291202388527962
basic,37,35,0,1,1,6,"[0, 27, 24, 17, 1, 15, 23, 9, 18, 25, 6]",11,0,[],8.275174247,22160,1403,1,0,11,1.9291202388527962
basic,38,26,0,0,0,0,[0],1,29,"[1, 2, 3, 4, 5, 6, 7, 8, 9, 10, 11, 12, 13, 14, 15, 16, 17, 18, 19, 20, 21, 22, 23, 24, 25, 26, 27, 28, 29]",300,168,-1,9,226,9,0.0
basic,38,26,0,0,0,12,"[0, 12]",2,26,"[1, 2, 3, 4, 5, 6, 8, 10, 11, 13, 14, 15, 16, 17, 18, 19, 20, 21, 22, 23, 24, 25, 26, 27, 28, 29]",279.8753882,4206,4038,2,80,9,1.0
basic,38,26,0,0,0,4,"[0, 12, 4]",3,11,"[5, 6, 10, 13, 14, 16, 17, 19, 21, 23, 29]",149.4108336,6567,2361,16,95,8,1.242461188572386
basic,38,26,0,0,0,17,"[0, 12, 4, 17]",4,8,"[6, 10, 13, 14, 16, 21, 23, 29]",128.3158105,7404,837,4,24,8,1.2082947779651163
basic,38,26,0,0,0,6,"[0, 12, 4, 17, 6]",5,4,"[10, 14, 16, 29]",108.1911987,8207,803,2,6,8,1.1942420175970017
basic,38,26,0,0,0,14,"[0, 12, 4, 17, 6, 14]",6,3,"[10, 16, 29]",87.16740268,9138,931,2,1,8,1.3206938947282516
basic,38,26,0,0,0,29,"[0, 12, 4, 17, 6, 14, 29]",7,1,[16],45.93634642,10084,946,1,0,8,2.0792783678895326
basic,38,26,0,0,1,16,"[0, 12, 4, 17, 6, 14, 29, 16]",8,0,[],21.72890955,12201,2117,1,0,8,2.485752568115748
basic,38,26,0,1,1,16,"[0, 12, 4, 17, 6, 14, 29, 16]",8,0,[],21.72890955,13660,1459,1,0,8,2.485752568115748
basic,39,37,0,0,0,0,[0],1,29,"[1, 2, 3, 4, 5, 6, 7, 8, 9, 10, 11, 12, 13, 14, 15, 16, 17, 18, 19, 20, 21, 22, 23, 24, 25, 26, 27, 28, 29]",300,154,-1,6,168,10,0.0
basic,39,37,0,0,0,9,"[0, 9]",2,28,"[1, 2, 3, 4, 5, 6, 7, 8, 10, 11, 12, 13, 14, 15, 16, 17, 18, 19, 20, 21, 22, 23, 24, 25, 26, 27, 28, 29]",275.7925631,4393,4239,45,289,9,1.0
basic,39,37,0,0,0,18,"[0, 9, 18]",3,15,"[1, 2, 4, 6, 7, 10, 15, 17, 19, 20, 21, 22, 26, 28, 29]",172.2068498,5627,1234,33,160,9,1.3094770236215172
basic,39,37,0,0,0,7,"[0, 9, 18, 7]",4,9,"[1, 2, 4, 15, 19, 20, 21, 22, 26]",145.0406944,6271,644,17,59,9,1.293395038406712
basic,39,37,0,0,0,22,"[0, 9, 18, 7, 22]",5,7,"[1, 2, 4, 15, 19, 20, 21]",95.04069441,7817,1546,6,17,9,1.2585327043140475
basic,39,37,0,0,0,4,"[0, 9, 18, 7, 22, 4]",6,5,"[1, 2, 15, 20, 21]",70.04069441,8717,900,4,7,9,1.4148462251829255
basic,39,37,0,0,0,2,"[0, 9, 18, 7, 22, 4, 2]",7,3,"[1, 15, 20]",58.63894016,9485,768,2,2,9,1.5965980495342236
basic,39,37,0,0,0,1,"[0, 9, 18, 7, 22, 4, 2, 1]",8,2,"[15, 20]",41.43428963,10235,750,2,0,9,1.6331913686535429
basic,39,37,0,0,1,20,"[0, 9, 18, 7, 22, 4, 2, 1, 20]",9,0,[],7.199804089,13358,3123,1,0,9,1.9533474092172471
basic,39,37,0,1,1,20,"[0, 9, 18, 7, 22, 4, 2, 1, 20]",9,0,[],7.199804089,15877,2519,1,0,9,1.9533474092172471
basic,40,3,0,0,0,0,[0],1,29,"[1, 2, 3, 4, 5, 6, 7, 8, 9, 10, 11, 12, 13, 14, 15, 16, 17, 18, 19, 20, 21, 22, 23, 24, 25, 26, 27, 28, 29]",300,158,-1,34,427,10,0.0
basic,40,3,0,0,0,7,"[0, 7]",2,28,"[1, 2, 3, 4, 5, 6, 8, 9, 10, 11, 12, 13, 14, 15, 16, 17, 18, 19, 20, 21, 22, 23, 24, 25, 26, 27, 28, 29]",278.8103799,13150,12992,24,215,10,1.0
basic,40,3,0,0,0,8,"[0, 7, 8]",3,24,"[1, 2, 3, 4, 5, 6, 10, 11, 12, 13, 14, 15, 16, 17, 18, 19, 20, 21, 22, 24, 25, 26, 27, 28]",222.837172,14290,1140,16,114,10,1.2853332575451413
basic,40,3,0,0,0,24,"[0, 7, 8, 24]",4,21,"[1, 3, 4, 5, 6, 10, 11, 12, 14, 15, 16, 17, 18, 19, 20, 21, 22, 25, 26, 27, 28]",210.671647,14785,495,16,91,10,1.5177505014936548
basic,40,3,0,0,0,17,"[0, 7, 8, 24, 17]",5,9,"[3, 4, 10, 14, 15, 16, 19, 20, 21]",141.3174834,16535,1750,7,26,10,1.5510961300062232
basic,40,3,0,0,0,20,"[0, 7, 8, 24, 17, 20]",6,7,"[3, 4, 10, 14, 16, 19, 21]",128.6683728,17351,816,7,14,10,1.5133082717474817
basic,40,3,0,0,0,3,"[0, 7, 8, 24, 17, 20, 3]",7,5,"[4, 10, 14, 19, 21]",108.2722947,18259,908,7,4,10,1.5325960555943097
basic,40,3,0,0,0,19,"[0, 7, 8, 24, 17, 20, 3, 19]",8,3,"[10, 14, 21]",70.93598532,19418,1159,3,1,10,1.5521294182529992
basic,40,3,0,0,0,21,"[0, 7, 8, 24, 17, 20, 3, 19, 21]",9,2,"[10, 14]",58.72942971,20101,683,2,0,10,1.5690424431931145
basic,40,3,0,0,1,14,"[0, 7, 8, 24, 17, 20, 3, 19, 21, 14]",10,0,[],31.82218161,21445,1344,1,0,10,2.0836613372745463
basic,40,3,0,1,1,14,"[0, 7, 8, 24, 17, 20, 3, 19, 21, 14]",10,0,[],31.82218161,25460,4015,1,0,10,2.0836613372745463
basic,41,41,0,0,0,0,[0],1,29,"[1, 2, 3, 4, 5, 6, 7, 8, 9, 10, 11, 12, 13, 14, 15, 16, 17, 18, 19, 20, 21, 22, 23, 24, 25, 26, 27, 28, 29]",300,193,-1,1,143,10,0.0
basic,41,41,0,0,0,13,"[0, 13]",2,23,"[1, 2, 3, 5, 6, 7, 9, 10, 11, 12, 14, 15, 17, 18, 19, 20, 21, 22, 24, 25, 26, 27, 28]",258.2747079,5356,5163,1,55,10,1.0
basic,41,41,0,0,0,28,"[0, 13, 28]",3,22,"[1, 2, 3, 5, 6, 7, 9, 10, 11, 12, 14, 15, 17, 18, 19, 20, 21, 22, 24, 25, 26, 27]",223.7928286,6335,979,1,39,10,1.895724242592676
basic,41,41,0,0,0,5,"[0, 13, 28, 5]",4,19,"[1, 2, 3, 6, 9, 10, 11, 12, 14, 15, 17, 18, 19, 20, 21, 22, 24, 25, 27]",210.1913581,7521,1186,1,34,10,2.861541269398273
basic,41,41,0,0,0,22,"[0, 13, 28, 5, 22]",5,12,"[2, 3, 6, 9, 10, 11, 12, 17, 18, 20, 21, 25]",155.4464953,9834,2313,11,12,9,2.096079268852861
basic,41,41,0,0,0,3,"[0, 13, 28, 5, 22, 3]",6,8,"[2, 9, 10, 12, 17, 18, 20, 21]",125.4798472,10633,799,7,5,9,4.404491319005463
basic,41,41,0,0,0,21,"[0, 13, 28, 5, 22, 3, 21]",7,4,"[2, 9, 12, 17]",93.33952984,11534,901,5,1,9,4.228139797553632
basic,41,41,0,0,0,9,"[0, 13, 28, 5, 22, 3, 21, 9]",8,2,"[2, 17]",43.97354965,12718,1184,2,0,9,3.111188754077749
basic,41,41,0,0,1,2,"[0, 13, 28, 5, 22, 3, 21, 9, 2]",9,0,[],31.89050368,13352,634,1,0,9,2.963304814480547
basic,41,41,0,1,1,2,"[0, 13, 28, 5, 22, 3, 21, 9, 2]",9,0,[],31.89050368,16709,3357,1,0,9,2.963304814480547
basic,42,1,0,0,0,0,[0],1,26,"[1, 2, 4, 5, 7, 8, 9, 10, 11, 12, 13, 14, 15, 16, 17, 18, 19, 20, 21, 22, 23, 24, 25, 26, 28, 29]",300,155,-1,6,74,7,0.0
basic,42,1,0,0,0,8,"[0, 8]",2,23,"[1, 4, 5, 7, 9, 10, 11, 12, 13, 14, 15, 16, 17, 18, 19, 20, 21, 23, 24, 25, 26, 28, 29]",202,48756,48601,1,16,7,1.0
basic,42,1,0,0,0,14,"[0, 8, 14]",3,12,"[1, 5, 9, 15, 17, 18, 19, 20, 25, 26, 28, 29]",138.1094686,49711,955,2,11,6,1.6219900283216735
basic,42,1,0,0,0,17,"[0, 8, 14, 17]",4,6,"[1, 15, 18, 20, 28, 29]",85.75490817,50970,1259,1,5,6,1.4120458181998161
basic,42,1,0,0,0,1,"[0, 8, 14, 17, 1]",5,1,[28],61.40331685,52140,1170,1,0,6,1.3875183639701723
basic,42,1,0,0,1,28,"[0, 8, 14, 17, 1, 28]",6,0,[],26.51778976,57299,5159,1,0,6,1.3376292144876023
basic,42,1,0,1,1,28,"[0, 8, 14, 17, 1, 28]",6,0,[],26.51778976,59613,2314,1,0,6,1.3376292144876023
basic,43,4,0,0,0,0,[0],1,26,"[3, 4, 5, 6, 7, 8, 10, 11, 12, 13, 14, 15, 16, 17, 18, 19, 20, 21, 22, 23, 24, 25, 26, 27, 28, 29]",300,144,-1,4,489,10,0.0
basic,43,4,0,0,0,13,"[0, 13]",2,23,"[3, 4, 5, 6, 7, 10, 11, 12, 14, 15, 16, 17, 19, 20, 21, 22, 23, 24, 25, 26, 27, 28, 29]",232.1030192,6025,5881,2,270,10,1.0
basic,43,4,0,0,0,28,"[0, 13, 28]",3,19,"[3, 4, 5, 6, 10, 11, 12, 14, 15, 16, 17, 19, 20, 21, 22, 23, 24, 25, 26]",200.5277124,6750,725,2,221,10,1.3431168257921573
basic,43,4,0,0,0,14,"[0, 13, 28, 14]",4,11,"[3, 4, 5, 6, 11, 16, 17, 20, 21, 22, 25]",134.2857318,8318,1568,28,123,9,1.2134786195381546
basic,43,4,0,0,0,25,"[0, 13, 28, 14, 25]",5,10,"[3, 4, 5, 6, 11, 16, 17, 20, 21, 22]",118.1612163,9093,775,22,51,9,1.4339367384350254
basic,43,4,0,0,0,11,"[0, 13, 28, 14, 25, 11]",6,9,"[3, 4, 5, 6, 16, 17, 20, 21, 22]",99.37292203,9801,708,11,18,9,1.632788140935394
basic,43,4,0,0,0,16,"[0, 13, 28, 14, 25, 11, 16]",7,6,"[3, 5, 17, 20, 21, 22]",84.37292203,10376,575,9,2,9,1.5642820747024264
basic,43,4,0,0,0,3,"[0, 13, 28, 14, 25, 11, 16, 3]",8,1,[17],42.74360544,11355,979,1,0,9,1.474981502263249
basic,43,4,0,0,1,17,"[0, 13, 28, 14, 25, 11, 16, 3, 17]",9,0,[],18.2283041,12827,1472,1,0,9,1.718983128597651
basic,43,4,0,1,1,17,"[0, 13, 28, 14, 25, 11, 16, 3, 17]",9,0,[],18.2283041,13993,1166,1,0,9,1.718983128597651
basic,44,8,0,0,0,0,[0],1,29,"[1, 2, 3, 4, 5, 6, 7, 8, 9, 10, 11, 12, 13, 14, 15, 16, 17, 18, 19, 20, 21, 22, 23, 24, 25, 26, 27, 28, 29]",300,149,-1,10,149,9,0.0
basic,44,8,0,0,0,5,"[0, 5]",2,28,"[1, 2, 3, 4, 6, 7, 8, 9, 10, 11, 12, 13, 14, 15, 16, 17, 18, 19, 20, 21, 22, 23, 24, 25, 26, 27, 28, 29]",254.5137383,6389,6240,10,100,9,1.0
basic,44,8,0,0,0,14,"[0, 5, 14]",3,20,"[1, 2, 3, 4, 6, 7, 11, 15, 16, 17, 18, 19, 20, 21, 22, 23, 24, 25, 28, 29]",214.5512559,10735,4346,4,36,9,1.0001019035932595
basic,44,8,0,0,0,17,"[0, 5, 14, 17]",4,15,"[1, 4, 6, 7, 11, 15, 16, 18, 19, 20, 22, 23, 24, 25, 28]",177.5377449,11601,866,4,16,9,1.121197267659591
basic,44,8,0,0,0,11,"[0, 5, 14, 17, 11]",5,11,"[1, 4, 15, 16, 18, 19, 22, 23, 24, 25, 28]",152.3583883,12173,572,4,8,9,1.1277254166016362
basic,44,8,0,0,0,24,"[0, 5, 14, 17, 11, 24]",6,3,"[15, 16, 28]",115.1428001,13309,1136,2,2,9,1.1227411011978805
basic,44,8,0,0,0,15,"[0, 5, 14, 17, 11, 24, 15]",7,2,"[16, 28]",98.37974552,13832,523,2,0,9,1.1956385406066814
basic,44,8,0,0,0,16,"[0, 5, 14, 17, 11, 24, 15, 16]",8,1,[28],47.30137436,15141,1309,1,0,9,1.36482239111247
basic,44,8,0,0,1,28,"[0, 5, 14, 17, 11, 24, 15, 16, 28]",9,0,[],24.94069458,15876,735,1,0,9,1.632953105226947
basic,44,8,0,1,1,28,"[0, 5, 14, 17, 11, 24, 15, 16, 28]",9,0,[],24.94069458,17310,1434,1,0,9,1.632953105226947
basic,45,36,0,0,0,0,[0],1,24,"[2, 4, 5, 6, 7, 8, 9, 10, 12, 13, 14, 15, 16, 17, 18, 19, 20, 22, 23, 25, 26, 27, 28, 29]",300,157,-1,2,200,10,0.0
basic,45,36,0,0,0,12,"[0, 12]",2,23,"[2, 4, 5, 6, 7, 8, 9, 10, 13, 14, 15, 16, 17, 18, 19, 20, 22, 23, 25, 26, 27, 28, 29]",277.7963967,9791,9634,90,804,9,1.0
basic,45,36,0,0,0,9,"[0, 12, 9]",3,14,"[2, 4, 8, 10, 13, 16, 17, 18, 19, 23, 25, 27, 28, 29]",215.4345494,12358,2567,32,191,9,1.224429481246385
basic,45,36,0,0,0,16,"[0, 12, 9, 16]",4,8,"[2, 10, 13, 17, 18, 19, 23, 25]",168.137615,18764,6406,7,26,9,1.235383731443557
basic,45,36,0,0,0,17,"[0, 12, 9, 16, 17]",5,6,"[2, 10, 13, 18, 19, 25]",139.8180105,19617,853,7,14,9,1.6947865799475665
basic,45,36,0,0,0,19,"[0, 12, 9, 16, 17, 19]",6,5,"[2, 10, 13, 18, 25]",111.9253591,20321,704,6,1,9,2.440059772477113
basic,45,36,0,0,0,2,"[0, 12, 9, 16, 17, 19, 2]",7,2,"[13, 25]",74.80393675,22488,2167,2,0,9,1.994135267441798
basic,45,36,0,0,0,25,"[0, 12, 9, 16, 17, 19, 2, 25]",8,1,[13],49.80393675,24200,1712,1,0,9,2.1853059870598197
basic,45,36,0,0,1,13,"[0, 12, 9, 16, 17, 19, 2, 25, 13]",9,0,[],29.21267647,25102,902,1,0,9,2.7608371719978186
basic,45,36,0,1,1,13,"[0, 12, 9, 16, 17, 19, 2, 25, 13]",9,0,[],29.21267647,26042,940,1,0,9,2.7608371719978186
basic,46,43,0,0,0,0,[0],1,23,"[1, 2, 3, 4, 5, 6, 7, 9, 10, 11, 12, 14, 15, 16, 17, 19, 20, 21, 22, 23, 25, 27, 29]",300,216,-1,16,556,12,0.0
basic,46,43,0,0,0,29,"[0, 29]",2,22,"[1, 2, 3, 4, 5, 6, 7, 9, 10, 11, 12, 14, 15, 16, 17, 19, 20, 21, 22, 23, 25, 27]",277.909278,2474,2258,16,520,12,1.0
basic,46,43,0,0,0,20,"[0, 29, 20]",3,20,"[1, 2, 3, 4, 6, 7, 9, 10, 11, 12, 14, 15, 16, 17, 19, 21, 22, 23, 25, 27]",254.4785289,3606,1132,15,422,12,1.082311746871282
basic,46,43,0,0,0,16,"[0, 29, 20, 16]",4,19,"[1, 2, 3, 4, 6, 7, 9, 10, 11, 12, 14, 15, 17, 19, 21, 22, 23, 25, 27]",231.8511119,4457,851,15,389,12,1.215201926898219
basic,46,43,0,0,0,25,"[0, 29, 20, 16, 25]",5,14,"[1, 2, 3, 4, 6, 7, 9, 11, 12, 14, 15, 19, 22, 23]",175.7708124,8760,4303,53,282,11,1.566384303308987
basic,46,43,0,0,0,15,"[0, 29, 20, 16, 25, 15]",6,13,"[1, 2, 3, 4, 6, 7, 9, 11, 12, 14, 19, 22, 23]",153.0992443,9507,747,27,108,11,1.776736412604812
basic,46,43,0,0,0,12,"[0, 29, 20, 16, 25, 15, 12]",7,10,"[1, 3, 6, 7, 9, 11, 14, 19, 22, 23]",133.7860364,10056,549,21,41,11,1.6813323012225032
basic,46,43,0,0,0,3,"[0, 29, 20, 16, 25, 15, 12, 3]",8,9,"[1, 6, 7, 9, 11, 14, 19, 22, 23]",120.7860364,10593,537,20,12,11,1.608740348096123
basic,46,43,0,0,0,22,"[0, 29, 20, 16, 25, 15, 12, 3, 22]",9,6,"[1, 6, 7, 11, 14, 19]",86.07292644,11841,1248,9,2,11,1.793657891802588
basic,46,43,0,0,0,19,"[0, 29, 20, 16, 25, 15, 12, 3, 22, 19]",10,3,"[1, 6, 7]",65.45739831,13544,1703,3,0,11,1.6882745891803936
basic,46,43,0,0,1,1,"[0, 29, 20, 16, 25, 15, 12, 3, 22, 19, 1]",11,0,[],37.2793927,19174,5630,1,0,11,1.825064866046553
basic,46,43,0,1,1,1,"[0, 29, 20, 16, 25, 15, 12, 3, 22, 19, 1]",11,0,[],37.2793927,22832,3658,1,0,11,1.825064866046553
basic,47,9,0,0,0,0,[0],1,27,"[1, 3, 4, 5, 6, 7, 8, 9, 10, 11, 13, 14, 15, 16, 17, 18, 19, 20, 21, 22, 23, 24, 25, 26, 27, 28, 29]",300,147,-1,2,182,10,0.0
basic,47,9,0,0,0,25,"[0, 25]",2,24,"[1, 3, 4, 5, 6, 7, 8, 9, 10, 11, 13, 15, 16, 17, 18, 19, 20, 21, 22, 23, 24, 26, 27, 28]",275.9168108,5280,5133,2,104,10,1.0
basic,47,9,0,0,0,10,"[0, 25, 10]",3,20,"[3, 4, 5, 7, 8, 9, 11, 13, 15, 16, 17, 18, 19, 20, 21, 22, 23, 26, 27, 28]",236.0670932,6111,831,2,76,10,1.1767014107208227
basic,47,9,0,0,0,9,"[0, 25, 10, 9]",4,15,"[3, 4, 5, 7, 8, 11, 18, 19, 20, 21, 22, 23, 26, 27, 28]",150.5744034,11223,5112,4,26,9,2.006661984709317
basic,47,9,0,0,0,23,"[0, 25, 10, 9, 23]",5,12,"[4, 7, 8, 11, 18, 19, 20, 21, 22, 26, 27, 28]",128.2137236,12208,985,4,12,9,2.8852293829447864
basic,47,9,0,0,0,8,"[0, 25, 10, 9, 23, 8]",6,7,"[7, 20, 21, 22, 26, 27, 28]",106.7428131,13012,804,2,4,9,3.0300178113656524
basic,47,9,0,0,0,21,"[0, 25, 10, 9, 23, 8, 21]",7,1,[20],47.06031983,15570,2558,1,0,8,2.133923287792977
basic,47,9,0,0,1,20,"[0, 25, 10, 9, 23, 8, 21, 20]",8,0,[],34.97727386,16253,683,1,0,8,2.092574530394128
basic,47,9,0,1,1,20,"[0, 25, 10, 9, 23, 8, 21, 20]",8,0,[],34.97727386,32413,16160,1,0,8,2.092574530394128
basic,48,33,0,0,0,0,[0],1,23,"[1, 2, 5, 7, 8, 11, 12, 13, 14, 15, 16, 17, 18, 19, 20, 21, 23, 24, 25, 26, 27, 28, 29]",300,154,-1,5,108,9,0.0
basic,48,33,0,0,0,21,"[0, 21]",2,17,"[2, 5, 7, 8, 11, 13, 14, 16, 17, 18, 19, 20, 24, 26, 27, 28, 29]",174.4611614,5867,5713,21,129,8,1.0
basic,48,33,0,0,0,17,"[0, 21, 17]",3,12,"[2, 7, 11, 13, 14, 16, 18, 19, 20, 24, 26, 29]",135.8218032,7990,2123,3,35,8,1.0302064673538902
basic,48,33,0,0,0,13,"[0, 21, 17, 13]",4,10,"[2, 7, 11, 14, 16, 19, 20, 24, 26, 29]",113.0182947,9242,1252,3,18,8,1.2307555582916028
basic,48,33,0,0,0,19,"[0, 21, 17, 13, 19]",5,6,"[7, 14, 16, 24, 26, 29]",87.52319715,10934,1692,3,6,8,1.267959080158969
basic,48,33,0,0,0,7,"[0, 21, 17, 13, 19, 7]",6,3,"[14, 24, 26]",41.90521823,11952,1018,2,1,8,1.2111387775864462
basic,48,33,0,0,0,14,"[0, 21, 17, 13, 19, 7, 14]",7,1,[26],27.03914949,12868,916,1,0,8,1.2582047812090849
basic,48,33,0,0,1,26,"[0, 21, 17, 13, 19, 7, 14, 26]",8,0,[],14.39003885,14934,2066,1,0,8,1.2624145644521343
basic,48,33,0,1,1,26,"[0, 21, 17, 13, 19, 7, 14, 26]",8,0,[],14.39003885,18044,3110,1,0,8,1.2624145644521343
basic,49,19,0,0,0,0,[0],1,29,"[1, 2, 3, 4, 5, 6, 7, 8, 9, 10, 11, 12, 13, 14, 15, 16, 17, 18, 19, 20, 21, 22, 23, 24, 25, 26, 27, 28, 29]",300,143,-1,12,149,8,0.0
basic,49,19,0,0,0,29,"[0, 29]",2,28,"[1, 2, 3, 4, 5, 6, 7, 8, 9, 10, 11, 12, 13, 14, 15, 16, 17, 18, 19, 20, 21, 22, 23, 24, 25, 26, 27, 28]",265.0715016,10091,9948,12,120,8,1.0
basic,49,19,0,0,0,9,"[0, 29, 9]",3,17,"[1, 4, 5, 6, 7, 10, 11, 12, 13, 14, 19, 20, 21, 22, 24, 27, 28]",181.7108394,12034,1943,11,65,8,1.0375842971861238
basic,49,19,0,0,0,6,"[0, 29, 9, 6]",4,12,"[4, 7, 10, 11, 13, 14, 20, 21, 22, 24, 27, 28]",140.2741407,13270,1236,11,34,8,1.0389786364356892
basic,49,19,0,0,0,28,"[0, 29, 9, 6, 28]",5,5,"[4, 11, 14, 22, 27]",89.18598161,14283,1013,2,4,8,1.2864082671854424
basic,49,19,0,0,0,4,"[0, 29, 9, 6, 28, 4]",6,4,"[11, 14, 22, 27]",78.00564173,14902,619,2,2,8,1.3470045407445053
basic,49,19,0,0,0,14,"[0, 29, 9, 6, 28, 4, 14]",7,1,[11],27.99564273,16034,1132,1,0,8,1.3006971582050546
basic,49,19,0,0,1,11,"[0, 29, 9, 6, 28, 4, 14, 11]",8,0,[],17.1789889,17001,967,1,0,8,1.289914895833058
basic,49,19,0,1,1,11,"[0, 29, 9, 6, 28, 4, 14, 11]",8,0,[],17.1789889,29109,12108,1,0,8,1.289914895833058
basic,50,14,0,0,0,0,[0],1,29,"[1, 2, 3, 4, 5, 6, 7, 8, 9, 10, 11, 12, 13, 14, 15, 16, 17, 18, 19, 20, 21, 22, 23, 24, 25, 26, 27, 28, 29]",300,144,-1,8,157,10,0.0
basic,50,14,0,0,0,15,"[0, 15]",2,20,"[1, 2, 3, 4, 7, 8, 9, 13, 17, 18, 19, 20, 21, 22, 23, 25, 26, 27, 28, 29]",216.7053423,5408,5264,8,102,10,1.0
basic,50,14,0,0,0,28,"[0, 15, 28]",3,17,"[1, 2, 3, 4, 7, 8, 9, 13, 17, 18, 19, 20, 22, 23, 25, 26, 27]",197.4959696,6535,1127,8,48,10,1.0446007867311968
basic,50,14,0,0,0,17,"[0, 15, 28, 17]",4,14,"[1, 2, 3, 4, 7, 8, 13, 18, 19, 20, 22, 23, 25, 26]",184.0423455,7267,732,8,39,10,1.0729463354689972
basic,50,14,0,0,0,18,"[0, 15, 28, 17, 18]",5,9,"[1, 2, 4, 7, 8, 19, 23, 25, 26]",119.412631,8285,1018,8,27,10,1.5035901079219378
basic,50,14,0,0,0,8,"[0, 15, 28, 17, 18, 8]",6,8,"[1, 2, 4, 7, 19, 23, 25, 26]",105.8111605,9001,716,8,18,10,1.4819689987843856
basic,50,14,0,0,0,1,"[0, 15, 28, 17, 18, 8, 1]",7,5,"[7, 19, 23, 25, 26]",82.21031307,11405,2404,4,6,10,1.4084991998385268
basic,50,14,0,0,0,19,"[0, 15, 28, 17, 18, 8, 1, 19]",8,4,"[7, 23, 25, 26]",66.97876686,12523,1118,4,1,10,1.5758713333797987
basic,50,14,0,0,0,26,"[0, 15, 28, 17, 18, 8, 1, 19, 26]",9,1,[23],13.75283333,14685,2162,1,0,10,1.4427883209195413
basic,50,14,0,0,1,23,"[0, 15, 28, 17, 18, 8, 1, 19, 26, 23]",10,0,[],2.936179503,15586,901,1,0,10,1.5803726510701064
basic,50,14,0,1,1,23,"[0, 15, 28, 17, 18, 8, 1, 19, 26, 23]",10,0,[],2.936179503,23393,7807,1,0,10,1.5803726510701064
basic,51,45,0,0,0,0,[0],1,24,"[1, 2, 3, 4, 5, 6, 7, 9, 10, 11, 12, 14, 15, 16, 17, 19, 20, 21, 22, 23, 24, 25, 27, 29]",300,148,-1,6,248,10,0.0
basic,51,45,0,0,0,15,"[0, 15]",2,23,"[1, 2, 3, 4, 5, 6, 7, 9, 10, 11, 12, 14, 16, 17, 19, 20, 21, 22, 23, 24, 25, 27, 29]",253.9022777,23569,23421,5,207,10,1.0
basic,51,45,0,0,0,23,"[0, 15, 23]",3,22,"[1, 2, 3, 4, 5, 6, 7, 9, 10, 11, 12, 14, 16, 17, 19, 20, 21, 22, 24, 25, 27, 29]",230.3014303,24156,587,5,163,10,1.0006068457769497
basic,51,45,0,0,0,20,"[0, 15, 23, 20]",4,19,"[1, 2, 3, 5, 6, 7, 9, 10, 11, 12, 14, 16, 17, 19, 21, 22, 24, 25, 29]",188.8647316,24921,765,5,137,10,1.2062119754673604
basic,51,45,0,0,0,7,"[0, 15, 23, 20, 7]",5,14,"[2, 3, 5, 6, 9, 10, 12, 14, 17, 19, 21, 22, 24, 29]",137.2410936,25834,913,3,38,10,1.2267717168083891
basic,51,45,0,0,0,2,"[0, 15, 23, 20, 7, 2]",6,8,"[3, 6, 10, 12, 19, 22, 24, 29]",99.22793795,26968,1134,3,20,10,1.1978549169009853
basic,51,45,0,0,0,3,"[0, 15, 23, 20, 7, 2, 3]",7,5,"[6, 10, 12, 22, 29]",73.90996014,27717,749,2,7,10,1.2603420042999722
basic,51,45,0,0,0,29,"[0, 15, 23, 20, 7, 2, 3, 29]",8,3,"[6, 10, 12]",53.90996014,28703,986,2,1,10,1.527949676112761
basic,51,45,0,0,0,10,"[0, 15, 23, 20, 7, 2, 3, 29, 10]",9,1,[6],32.36930092,29647,944,1,0,10,1.8188082660591487
basic,51,45,0,0,1,6,"[0, 15, 23, 20, 7, 2, 3, 29, 10, 6]",10,0,[],6.120491419,30724,1077,1,0,10,1.7062675391073039
basic,51,45,0,1,1,6,"[0, 15, 23, 20, 7, 2, 3, 29, 10, 6]",10,0,[],6.120491419,32193,1469,1,0,10,1.7062675391073039
basic,52,0,0,0,0,0,[0],1,27,"[2, 3, 4, 5, 6, 7, 8, 9, 10, 11, 12, 13, 14, 15, 16, 17, 19, 20, 21, 22, 23, 24, 25, 26, 27, 28, 29]",300,143,-1,104,1136,9,0.0
basic,52,0,0,0,0,20,"[0, 20]",2,25,"[2, 3, 4, 5, 6, 7, 8, 9, 11, 12, 13, 14, 15, 16, 17, 19, 21, 22, 23, 24, 25, 26, 27, 28, 29]",215.4955622,7401,7258,36,372,9,1.0
basic,52,0,0,0,0,5,"[0, 20, 5]",3,22,"[2, 3, 4, 7, 8, 9, 11, 12, 13, 14, 15, 16, 17, 19, 21, 22, 23, 24, 25, 26, 28, 29]",153.2942761,8757,1356,33,251,9,1.0828244018179105
basic,52,0,0,0,0,26,"[0, 20, 5, 26]",4,16,"[3, 4, 7, 8, 9, 11, 12, 13, 14, 15, 17, 19, 21, 23, 24, 28]",117.8541858,13275,4518,6,51,9,1.1274542855134486
basic,52,0,0,0,0,4,"[0, 20, 5, 26, 4]",5,12,"[3, 7, 8, 9, 11, 12, 15, 17, 19, 23, 24, 28]",105.8125912,14059,784,5,27,9,1.240491272719259
basic,52,0,0,0,0,24,"[0, 20, 5, 26, 4, 24]",6,11,"[3, 7, 8, 9, 11, 12, 15, 17, 19, 23, 28]",94.41083696,14872,813,5,18,9,1.2323106696136763
basic,52,0,0,0,0,15,"[0, 20, 5, 26, 4, 24, 15]",7,7,"[3, 7, 8, 9, 11, 12, 17]",71.0656019,16805,1933,4,5,9,1.2111066506270785
basic,52,0,0,0,0,7,"[0, 20, 5, 26, 4, 24, 15, 7]",8,2,"[3, 8]",40.00115277,19371,2566,2,0,9,1.268226705272871
basic,52,0,0,0,1,3,"[0, 20, 5, 26, 4, 24, 15, 7, 3]",9,0,[],15.91796361,22252,2881,1,0,9,1.3105818731451497
basic,52,0,0,1,1,3,"[0, 20, 5, 26, 4, 24, 15, 7, 3]",9,0,[],15.91796361,23727,1475,1,0,9,1.3105818731451497
basic,53,23,0,0,0,0,[0],1,28,"[1, 2, 3, 4, 5, 6, 7, 8, 9, 10, 11, 12, 13, 14, 15, 16, 17, 18, 19, 20, 21, 22, 23, 25, 26, 27, 28, 29]",300,144,-1,76,2626,10,0.0
basic,53,23,0,0,0,22,"[0, 22]",2,24,"[1, 2, 3, 5, 6, 7, 8, 9, 10, 11, 12, 13, 14, 15, 17, 18, 19, 20, 21, 23, 25, 26, 27, 29]",210.5013967,4391,4247,15,1362,10,1.0
