condition,trial_id,map_id,undoIndicator,submit,checkEnd,currentChoice,chosen_all,n_city_all,n_within_reach,cities_reach,currentBudget,time_all,rt_all,n_opt_paths_all,n_subopt_paths_all,mas_all,tortuosity_all
undo,0,13,0,0,0,0,[0],1,29,"[1, 2, 3, 4, 5, 6, 7, 8, 9, 10, 11, 12, 13, 14, 15, 16, 17, 18, 19, 20, 21, 22, 23, 24, 25, 26, 27, 28, 29]",300,154,-1,60,2676,11,0.0
undo,0,13,0,0,0,28,"[0, 28]",2,24,"[1, 2, 3, 4, 6, 7, 8, 9, 10, 11, 12, 13, 15, 16, 17, 19, 20, 21, 22, 23, 24, 26, 27, 29]",226.3182519,8045,7891,12,378,10,1.0
undo,0,13,0,0,0,2,"[0, 28, 2]",3,20,"[1, 3, 4, 6, 7, 9, 11, 12, 13, 15, 16, 17, 19, 20, 21, 23, 24, 26, 27, 29]",188.6751915,10147,2102,9,174,10,1.0158286399660754
undo,0,13,0,0,0,29,"[0, 28, 2, 29]",4,19,"[1, 3, 4, 6, 7, 9, 11, 12, 13, 15, 16, 17, 19, 20, 21, 23, 24, 26, 27]",176.9704916,10882,735,9,132,10,1.1053279759370194
undo,0,13,0,0,0,7,"[0, 28, 2, 29, 7]",5,18,"[1, 3, 4, 6, 9, 11, 12, 13, 15, 16, 17, 19, 20, 21, 23, 24, 26, 27]",161.706154,11845,963,6,72,10,1.313811244316471
undo,0,13,0,0,0,26,"[0, 28, 2, 29, 7, 26]",6,17,"[1, 3, 4, 6, 9, 11, 12, 13, 15, 16, 17, 19, 20, 21, 23, 24, 27]",151.2658475,12613,768,6,39,10,1.554636901089982
undo,0,13,0,0,0,6,"[0, 28, 2, 29, 7, 26, 6]",7,13,"[1, 3, 4, 11, 13, 15, 16, 17, 19, 20, 23, 24, 27]",131.1660963,13647,1034,4,17,10,1.554967005613632
undo,0,13,0,0,0,11,"[0, 28, 2, 29, 7, 26, 6, 11]",8,6,"[1, 13, 15, 16, 17, 23]",112.0611231,14547,900,3,4,10,1.4733168623367165
undo,0,13,0,0,0,13,"[0, 28, 2, 29, 7, 26, 6, 11, 13]",9,2,"[15, 17]",55.98082354,16759,2212,2,0,10,1.3447287374536006
undo,0,13,0,0,1,15,"[0, 28, 2, 29, 7, 26, 6, 11, 13, 15]",10,0,[],16.16876507,18081,1322,1,0,10,1.3473372715243728
undo,0,13,1,0,0,13,"[0, 28, 2, 29, 7, 26, 6, 11, 13]",9,2,"[15, 17]",55.98082354,20455,2374,2,0,10,1.3447287374536006
undo,0,13,1,0,0,11,"[0, 28, 2, 29, 7, 26, 6, 11]",8,6,"[1, 13, 15, 16, 17, 23]",112.0611231,20622,167,3,4,10,1.4733168623367165
undo,0,13,1,0,0,6,"[0, 28, 2, 29, 7, 26, 6]",7,13,"[1, 3, 4, 11, 13, 15, 16, 17, 19, 20, 23, 24, 27]",131.1660963,20772,150,4,17,10,1.554967005613632
undo,0,13,1,0,0,26,"[0, 28, 2, 29, 7, 26]",6,17,"[1, 3, 4, 6, 9, 11, 12, 13, 15, 16, 17, 19, 20, 21, 23, 24, 27]",151.2658475,20955,183,6,39,10,1.554636901089982
undo,0,13,1,0,0,7,"[0, 28, 2, 29, 7]",5,18,"[1, 3, 4, 6, 9, 11, 12, 13, 15, 16, 17, 19, 20, 21, 23, 24, 26, 27]",161.706154,21137,182,6,72,10,1.313811244316471
undo,0,13,1,0,0,29,"[0, 28, 2, 29]",4,19,"[1, 3, 4, 6, 7, 9, 11, 12, 13, 15, 16, 17, 19, 20, 21, 23, 24, 26, 27]",176.9704916,21470,333,9,132,10,1.1053279759370194
undo,0,13,1,0,0,2,"[0, 28, 2]",3,20,"[1, 3, 4, 6, 7, 9, 11, 12, 13, 15, 16, 17, 19, 20, 21, 23, 24, 26, 27, 29]",188.6751915,21805,335,9,174,10,1.0158286399660754
undo,0,13,1,0,0,28,"[0, 28]",2,24,"[1, 2, 3, 4, 6, 7, 8, 9, 10, 11, 12, 13, 15, 16, 17, 19, 20, 21, 22, 23, 24, 26, 27, 29]",226.3182519,22187,382,12,378,10,1.0
undo,0,13,1,0,0,0,[0],1,29,"[1, 2, 3, 4, 5, 6, 7, 8, 9, 10, 11, 12, 13, 14, 15, 16, 17, 18, 19, 20, 21, 22, 23, 24, 25, 26, 27, 28, 29]",300,22604,417,60,2676,11,0.0
undo,0,13,0,0,0,24,"[0, 24]",2,28,"[1, 2, 3, 4, 5, 6, 7, 8, 9, 10, 11, 12, 13, 14, 15, 16, 17, 18, 19, 20, 21, 22, 23, 25, 26, 27, 28, 29]",288.8196601,24379,1775,16,1444,11,1.0
undo,0,13,0,0,0,23,"[0, 24, 23]",3,27,"[1, 2, 3, 4, 5, 6, 7, 8, 9, 10, 11, 12, 13, 14, 15, 16, 17, 18, 19, 20, 21, 22, 25, 26, 27, 28, 29]",243.1140806,25265,886,2,868,11,1.0065545717039834
undo,0,13,0,0,0,16,"[0, 24, 23, 16]",4,25,"[1, 2, 3, 4, 6, 7, 8, 9, 10, 11, 12, 13, 14, 15, 17, 18, 19, 20, 21, 22, 25, 26, 27, 28, 29]",202.8027918,26381,1116,1,145,11,1.055930143104189
undo,0,13,0,0,0,3,"[0, 24, 23, 16, 3]",5,20,"[2, 4, 6, 7, 8, 9, 10, 11, 13, 14, 15, 18, 20, 21, 22, 25, 26, 27, 28, 29]",174.3598665,27369,988,3,44,10,1.233783650807853
undo,0,13,0,0,0,20,"[0, 24, 23, 16, 3, 20]",6,15,"[4, 6, 7, 8, 9, 11, 14, 18, 21, 22, 25, 26, 27, 28, 29]",155.3335689,28177,808,7,15,9,1.3149320474556456
undo,0,13,0,0,0,4,"[0, 24, 23, 16, 3, 20, 4]",7,5,"[6, 8, 18, 25, 27]",133.3108534,29166,989,2,4,9,1.2859964130018764
undo,0,13,0,0,0,27,"[0, 24, 23, 16, 3, 20, 4, 27]",8,2,"[8, 18]",111.2881379,32064,2898,2,0,9,1.3345945780156503
undo,0,13,0,0,1,18,"[0, 24, 23, 16, 3, 20, 4, 27, 18]",9,0,[],16.20922326,33716,1652,1,0,9,1.2000709670094927
undo,0,13,1,0,0,27,"[0, 24, 23, 16, 3, 20, 4, 27]",8,2,"[8, 18]",111.2881379,35106,1390,2,0,9,1.3345945780156503
undo,0,13,1,0,0,4,"[0, 24, 23, 16, 3, 20, 4]",7,5,"[6, 8, 18, 25, 27]",133.3108534,35222,116,2,4,9,1.2859964130018764
undo,0,13,1,0,0,20,"[0, 24, 23, 16, 3, 20]",6,15,"[4, 6, 7, 8, 9, 11, 14, 18, 21, 22, 25, 26, 27, 28, 29]",155.3335689,35371,149,7,15,9,1.3149320474556456
undo,0,13,1,0,0,3,"[0, 24, 23, 16, 3]",5,20,"[2, 4, 6, 7, 8, 9, 10, 11, 13, 14, 15, 18, 20, 21, 22, 25, 26, 27, 28, 29]",174.3598665,35539,168,3,44,10,1.233783650807853
undo,0,13,1,0,0,16,"[0, 24, 23, 16]",4,25,"[1, 2, 3, 4, 6, 7, 8, 9, 10, 11, 12, 13, 14, 15, 17, 18, 19, 20, 21, 22, 25, 26, 27, 28, 29]",202.8027918,35755,216,1,145,11,1.055930143104189
undo,0,13,1,0,0,23,"[0, 24, 23]",3,27,"[1, 2, 3, 4, 5, 6, 7, 8, 9, 10, 11, 12, 13, 14, 15, 16, 17, 18, 19, 20, 21, 22, 25, 26, 27, 28, 29]",243.1140806,36090,335,2,868,11,1.0065545717039834
undo,0,13,1,0,0,24,"[0, 24]",2,28,"[1, 2, 3, 4, 5, 6, 7, 8, 9, 10, 11, 12, 13, 14, 15, 16, 17, 18, 19, 20, 21, 22, 23, 25, 26, 27, 28, 29]",288.8196601,36471,381,16,1444,11,1.0
undo,0,13,1,0,0,0,[0],1,29,"[1, 2, 3, 4, 5, 6, 7, 8, 9, 10, 11, 12, 13, 14, 15, 16, 17, 18, 19, 20, 21, 22, 23, 24, 25, 26, 27, 28, 29]",300,36973,502,60,2676,11,0.0
undo,0,13,0,0,0,24,"[0, 24]",2,28,"[1, 2, 3, 4, 5, 6, 7, 8, 9, 10, 11, 12, 13, 14, 15, 16, 17, 18, 19, 20, 21, 22, 23, 25, 26, 27, 28, 29]",288.8196601,39150,2177,16,1444,11,1.0
undo,0,13,0,0,0,28,"[0, 24, 28]",3,23,"[1, 2, 3, 4, 6, 7, 8, 9, 10, 11, 12, 13, 15, 16, 17, 19, 20, 21, 22, 23, 26, 27, 29]",222.5324064,41515,2365,8,243,11,1.0513810491680837
undo,0,13,0,0,0,2,"[0, 24, 28, 2]",4,19,"[1, 3, 4, 6, 7, 9, 11, 12, 13, 15, 16, 17, 19, 20, 21, 23, 26, 27, 29]",184.889346,42513,998,7,110,11,1.050374132001543
undo,0,13,0,0,0,29,"[0, 24, 28, 2, 29]",5,18,"[1, 3, 4, 6, 7, 9, 11, 12, 13, 15, 16, 17, 19, 20, 21, 23, 26, 27]",173.1846461,43433,920,7,85,11,1.1393409619120594
undo,0,13,0,0,0,7,"[0, 24, 28, 2, 29, 7]",6,17,"[1, 3, 4, 6, 9, 11, 12, 13, 15, 16, 17, 19, 20, 21, 23, 26, 27]",157.9203086,44234,801,5,45,11,1.349777315111579
undo,0,13,0,0,0,26,"[0, 24, 28, 2, 29, 7, 26]",7,16,"[1, 3, 4, 6, 9, 11, 12, 13, 15, 16, 17, 19, 20, 21, 23, 27]",147.480002,45019,785,5,25,11,1.5942082773824946
undo,0,13,0,0,0,6,"[0, 24, 28, 2, 29, 7, 26, 6]",8,12,"[1, 3, 4, 11, 13, 15, 16, 17, 19, 20, 23, 27]",127.3802508,45983,964,4,12,11,1.5898347940840756
undo,0,13,0,0,0,11,"[0, 24, 28, 2, 29, 7, 26, 6, 11]",9,6,"[1, 13, 15, 16, 17, 23]",108.2752776,47011,1028,3,4,11,1.5029953945561012
undo,0,13,0,0,0,13,"[0, 24, 28, 2, 29, 7, 26, 6, 11, 13]",10,2,"[15, 17]",52.19497806,49270,2259,2,0,11,1.3655915863754327
undo,0,13,0,0,1,15,"[0, 24, 28, 2, 29, 7, 26, 6, 11, 13, 15]",11,0,[],12.38291958,51172,1902,1,0,11,1.3653085520078876
undo,0,13,0,1,1,15,"[0, 24, 28, 2, 29, 7, 26, 6, 11, 13, 15]",11,0,[],12.38291958,58392,7220,1,0,11,1.3653085520078876
undo,1,9,0,0,0,0,[0],1,27,"[1, 3, 4, 5, 6, 7, 8, 9, 10, 11, 13, 14, 15, 16, 17, 18, 19, 20, 21, 22, 23, 24, 25, 26, 27, 28, 29]",300,143,-1,2,182,10,0.0
undo,1,9,0,0,0,23,"[0, 23]",2,26,"[1, 3, 4, 5, 6, 7, 8, 9, 10, 11, 13, 14, 15, 16, 17, 18, 19, 20, 21, 22, 24, 25, 26, 27, 28, 29]",240.4600974,13383,13240,7,160,9,1.0
undo,1,9,0,0,0,9,"[0, 23, 9]",3,25,"[1, 3, 4, 5, 6, 7, 8, 10, 11, 13, 14, 15, 16, 17, 18, 19, 20, 21, 22, 24, 25, 26, 27, 28, 29]",218.0994176,14366,983,2,63,9,1.0998569787716874
undo,1,9,0,0,0,19,"[0, 23, 9, 19]",4,10,"[1, 3, 5, 13, 14, 15, 18, 24, 26, 28]",122.0733795,15254,888,3,15,8,1.0452176285538766
undo,1,9,0,0,0,1,"[0, 23, 9, 19, 1]",5,3,"[5, 13, 24]",47.54821597,16319,1065,3,1,7,1.0314555873479818
undo,1,9,0,0,0,13,"[0, 23, 9, 19, 1, 13]",6,2,"[5, 24]",28.33884326,17669,1350,2,0,7,1.1666155616652383
undo,1,9,0,0,1,5,"[0, 23, 9, 19, 1, 13, 5]",7,0,[],13.07450573,18630,961,1,0,7,1.288749294091516
undo,1,9,1,0,0,13,"[0, 23, 9, 19, 1, 13]",6,2,"[5, 24]",28.33884326,20290,1660,2,0,7,1.1666155616652383
undo,1,9,1,0,0,1,"[0, 23, 9, 19, 1]",5,3,"[5, 13, 24]",47.54821597,20441,151,3,1,7,1.0314555873479818
undo,1,9,1,0,0,19,"[0, 23, 9, 19]",4,10,"[1, 3, 5, 13, 14, 15, 18, 24, 26, 28]",122.0733795,20576,135,3,15,8,1.0452176285538766
undo,1,9,1,0,0,9,"[0, 23, 9]",3,25,"[1, 3, 4, 5, 6, 7, 8, 10, 11, 13, 14, 15, 16, 17, 18, 19, 20, 21, 22, 24, 25, 26, 27, 28, 29]",218.0994176,20708,132,2,63,9,1.0998569787716874
undo,1,9,1,0,0,23,"[0, 23]",2,26,"[1, 3, 4, 5, 6, 7, 8, 9, 10, 11, 13, 14, 15, 16, 17, 18, 19, 20, 21, 22, 24, 25, 26, 27, 28, 29]",240.4600974,20958,250,7,160,9,1.0
undo,1,9,1,0,0,0,[0],1,27,"[1, 3, 4, 5, 6, 7, 8, 9, 10, 11, 13, 14, 15, 16, 17, 18, 19, 20, 21, 22, 23, 24, 25, 26, 27, 28, 29]",300,21909,951,2,182,10,0.0
undo,1,9,0,0,0,25,"[0, 25]",2,24,"[1, 3, 4, 5, 6, 7, 8, 9, 10, 11, 13, 15, 16, 17, 18, 19, 20, 21, 22, 23, 24, 26, 27, 28]",275.9168108,25369,3460,2,104,10,1.0
undo,1,9,0,0,0,10,"[0, 25, 10]",3,20,"[3, 4, 5, 7, 8, 9, 11, 13, 15, 16, 17, 18, 19, 20, 21, 22, 23, 26, 27, 28]",236.0670932,26350,981,2,76,10,1.1767014107208227
undo,1,9,0,0,0,8,"[0, 25, 10, 8]",4,19,"[3, 4, 5, 7, 9, 11, 13, 15, 16, 17, 18, 19, 20, 21, 22, 23, 26, 27, 28]",187.6935467,27704,1354,1,29,10,1.7608170712242983
undo,1,9,0,0,0,28,"[0, 25, 10, 8, 28]",5,18,"[3, 4, 5, 7, 9, 11, 13, 15, 16, 17, 18, 19, 20, 21, 22, 23, 26, 27]",176.8768928,29086,1382,1,15,10,1.6576318206889098
undo,1,9,0,0,0,23,"[0, 25, 10, 8, 28, 23]",6,12,"[3, 4, 7, 9, 11, 18, 19, 20, 21, 22, 26, 27]",151.8569008,30012,926,1,7,10,2.488131366775142
undo,1,9,0,0,0,9,"[0, 25, 10, 8, 28, 23, 9]",7,10,"[3, 4, 7, 11, 18, 19, 20, 21, 26, 27]",129.4962211,31070,1058,1,5,10,2.289724512754012
undo,1,9,0,0,0,26,"[0, 25, 10, 8, 28, 23, 9, 26]",8,3,"[18, 20, 21]",72.8481849,33383,2313,1,2,10,1.944382504121744
undo,1,9,0,0,0,21,"[0, 25, 10, 8, 28, 23, 9, 26, 21]",9,1,[20],18.94085701,34617,1234,1,0,10,2.3711528775176802
undo,1,9,0,0,1,20,"[0, 25, 10, 8, 28, 23, 9, 26, 21, 20]",10,0,[],6.85781104,37171,2554,1,0,10,2.3146010432238726
undo,1,9,1,0,0,21,"[0, 25, 10, 8, 28, 23, 9, 26, 21]",9,1,[20],18.94085701,40294,3123,1,0,10,2.3711528775176802
undo,1,9,1,0,0,26,"[0, 25, 10, 8, 28, 23, 9, 26]",8,3,"[18, 20, 21]",72.8481849,40460,166,1,2,10,1.944382504121744
undo,1,9,1,0,0,9,"[0, 25, 10, 8, 28, 23, 9]",7,10,"[3, 4, 7, 11, 18, 19, 20, 21, 26, 27]",129.4962211,40592,132,1,5,10,2.289724512754012
undo,1,9,1,0,0,23,"[0, 25, 10, 8, 28, 23]",6,12,"[3, 4, 7, 9, 11, 18, 19, 20, 21, 22, 26, 27]",151.8569008,40727,135,1,7,10,2.488131366775142
undo,1,9,1,0,0,28,"[0, 25, 10, 8, 28]",5,18,"[3, 4, 5, 7, 9, 11, 13, 15, 16, 17, 18, 19, 20, 21, 22, 23, 26, 27]",176.8768928,40944,217,1,15,10,1.6576318206889098
undo,1,9,1,0,0,8,"[0, 25, 10, 8]",4,19,"[3, 4, 5, 7, 9, 11, 13, 15, 16, 17, 18, 19, 20, 21, 22, 23, 26, 27, 28]",187.6935467,41277,333,1,29,10,1.7608170712242983
undo,1,9,1,0,0,10,"[0, 25, 10]",3,20,"[3, 4, 5, 7, 8, 9, 11, 13, 15, 16, 17, 18, 19, 20, 21, 22, 23, 26, 27, 28]",236.0670932,41460,183,2,76,10,1.1767014107208227
undo,1,9,1,0,0,25,"[0, 25]",2,24,"[1, 3, 4, 5, 6, 7, 8, 9, 10, 11, 13, 15, 16, 17, 18, 19, 20, 21, 22, 23, 24, 26, 27, 28]",275.9168108,41909,449,2,104,10,1.0
undo,1,9,1,0,0,0,[0],1,27,"[1, 3, 4, 5, 6, 7, 8, 9, 10, 11, 13, 14, 15, 16, 17, 18, 19, 20, 21, 22, 23, 24, 25, 26, 27, 28, 29]",300,42293,384,2,182,10,0.0
undo,1,9,0,0,0,7,"[0, 7]",2,19,"[3, 4, 5, 8, 9, 10, 11, 16, 17, 18, 19, 20, 21, 22, 23, 25, 26, 27, 28]",258.4067313,44747,2454,39,322,9,1.0
undo,1,9,0,0,0,4,"[0, 7, 4]",3,15,"[3, 8, 9, 10, 11, 18, 19, 20, 21, 22, 23, 25, 26, 27, 28]",243.4067313,45689,942,32,159,9,1.002790151820037
undo,1,9,0,0,0,27,"[0, 7, 4, 27]",4,11,"[8, 9, 10, 11, 20, 21, 22, 23, 25, 26, 28]",181.165266,46802,1113,19,48,9,2.2170504989781823
undo,1,9,0,0,0,25,"[0, 7, 4, 27, 25]",5,10,"[8, 9, 10, 11, 20, 21, 22, 23, 26, 28]",145.2626199,47659,857,17,30,9,6.425119990857526
undo,1,9,0,0,0,10,"[0, 7, 4, 27, 25, 10]",6,8,"[8, 9, 20, 21, 22, 23, 26, 28]",105.4129022,48467,808,10,7,9,3.581425027421569
undo,1,9,0,0,0,28,"[0, 7, 4, 27, 25, 10, 28]",7,4,"[8, 9, 23, 26]",48.4129022,49988,1521,3,2,9,3.387169057637727
undo,1,9,0,0,0,8,"[0, 7, 4, 27, 25, 10, 28, 8]",8,1,[23],37.59624838,51438,1450,1,0,9,4.114144751518002
undo,1,9,0,0,1,23,"[0, 7, 4, 27, 25, 10, 28, 8, 23]",9,0,[],16.12533782,52707,1269,1,0,9,4.767805284329809
undo,1,9,1,0,0,8,"[0, 7, 4, 27, 25, 10, 28, 8]",8,1,[23],37.59624838,55677,2970,1,0,9,4.114144751518002
undo,1,9,1,0,0,28,"[0, 7, 4, 27, 25, 10, 28]",7,4,"[8, 9, 23, 26]",48.4129022,55793,116,3,2,9,3.387169057637727
undo,1,9,1,0,0,10,"[0, 7, 4, 27, 25, 10]",6,8,"[8, 9, 20, 21, 22, 23, 26, 28]",105.4129022,55927,134,10,7,9,3.581425027421569
undo,1,9,1,0,0,25,"[0, 7, 4, 27, 25]",5,10,"[8, 9, 10, 11, 20, 21, 22, 23, 26, 28]",145.2626199,56344,417,17,30,9,6.425119990857526
undo,1,9,1,0,0,27,"[0, 7, 4, 27]",4,11,"[8, 9, 10, 11, 20, 21, 22, 23, 25, 26, 28]",181.165266,56511,167,19,48,9,2.2170504989781823
undo,1,9,1,0,0,4,"[0, 7, 4]",3,15,"[3, 8, 9, 10, 11, 18, 19, 20, 21, 22, 23, 25, 26, 27, 28]",243.4067313,56827,316,32,159,9,1.002790151820037
undo,1,9,1,0,0,7,"[0, 7]",2,19,"[3, 4, 5, 8, 9, 10, 11, 16, 17, 18, 19, 20, 21, 22, 23, 25, 26, 27, 28]",258.4067313,57127,300,39,322,9,1.0
undo,1,9,1,0,0,0,[0],1,27,"[1, 3, 4, 5, 6, 7, 8, 9, 10, 11, 13, 14, 15, 16, 17, 18, 19, 20, 21, 22, 23, 24, 25, 26, 27, 28, 29]",300,57577,450,2,182,10,0.0
undo,1,9,0,0,0,7,"[0, 7]",2,19,"[3, 4, 5, 8, 9, 10, 11, 16, 17, 18, 19, 20, 21, 22, 23, 25, 26, 27, 28]",258.4067313,60103,2526,39,322,9,1.0
undo,1,9,0,0,0,4,"[0, 7, 4]",3,15,"[3, 8, 9, 10, 11, 18, 19, 20, 21, 22, 23, 25, 26, 27, 28]",243.4067313,63020,2917,32,159,9,1.002790151820037
undo,1,9,0,0,0,27,"[0, 7, 4, 27]",4,11,"[8, 9, 10, 11, 20, 21, 22, 23, 25, 26, 28]",181.165266,64723,1703,19,48,9,2.2170504989781823
undo,1,9,0,0,0,25,"[0, 7, 4, 27, 25]",5,10,"[8, 9, 10, 11, 20, 21, 22, 23, 26, 28]",145.2626199,66805,2082,17,30,9,6.425119990857526
undo,1,9,0,0,0,8,"[0, 7, 4, 27, 25, 8]",6,7,"[9, 10, 20, 21, 23, 26, 28]",77.26261989,67938,1133,3,7,9,3.4922283606427764
undo,1,9,0,0,0,28,"[0, 7, 4, 27, 25, 8, 28]",7,6,"[9, 10, 20, 21, 23, 26]",66.44596607,68839,901,3,3,9,3.1443861944106732
undo,1,9,0,0,0,23,"[0, 7, 4, 27, 25, 8, 28, 23]",8,1,[9],41.42597406,69824,985,1,0,9,4.342869482607957
undo,1,9,0,0,1,9,"[0, 7, 4, 27, 25, 8, 28, 23, 9]",9,0,[],19.06529429,70734,910,1,0,9,3.7727203836625436
undo,1,9,1,0,0,23,"[0, 7, 4, 27, 25, 8, 28, 23]",8,1,[9],41.42597406,71930,1196,1,0,9,4.342869482607957
undo,1,9,1,0,0,28,"[0, 7, 4, 27, 25, 8, 28]",7,6,"[9, 10, 20, 21, 23, 26]",66.44596607,72079,149,3,3,9,3.1443861944106732
undo,1,9,1,0,0,8,"[0, 7, 4, 27, 25, 8]",6,7,"[9, 10, 20, 21, 23, 26, 28]",77.26261989,72194,115,3,7,9,3.4922283606427764
undo,1,9,1,0,0,25,"[0, 7, 4, 27, 25]",5,10,"[8, 9, 10, 11, 20, 21, 22, 23, 26, 28]",145.2626199,72328,134,17,30,9,6.425119990857526
undo,1,9,1,0,0,27,"[0, 7, 4, 27]",4,11,"[8, 9, 10, 11, 20, 21, 22, 23, 25, 26, 28]",181.165266,72479,151,19,48,9,2.2170504989781823
undo,1,9,1,0,0,4,"[0, 7, 4]",3,15,"[3, 8, 9, 10, 11, 18, 19, 20, 21, 22, 23, 25, 26, 27, 28]",243.4067313,72629,150,32,159,9,1.002790151820037
undo,1,9,1,0,0,7,"[0, 7]",2,19,"[3, 4, 5, 8, 9, 10, 11, 16, 17, 18, 19, 20, 21, 22, 23, 25, 26, 27, 28]",258.4067313,72895,266,39,322,9,1.0
undo,1,9,1,0,0,0,[0],1,27,"[1, 3, 4, 5, 6, 7, 8, 9, 10, 11, 13, 14, 15, 16, 17, 18, 19, 20, 21, 22, 23, 24, 25, 26, 27, 28, 29]",300,73413,518,2,182,10,0.0
undo,1,9,0,0,0,9,"[0, 9]",2,26,"[1, 3, 4, 5, 6, 7, 8, 10, 11, 13, 14, 15, 16, 17, 18, 19, 20, 21, 22, 23, 24, 25, 26, 27, 28, 29]",225.5352432,76222,2809,2,101,9,1.0
undo,1,9,0,0,0,23,"[0, 9, 23]",3,22,"[1, 3, 4, 5, 7, 8, 10, 11, 13, 15, 16, 17, 18, 19, 20, 21, 22, 24, 25, 26, 27, 28]",203.1745635,77204,982,2,70,9,1.6262276606762436
undo,1,9,0,0,0,8,"[0, 9, 23, 8]",4,18,"[3, 4, 5, 7, 10, 11, 15, 16, 17, 18, 19, 20, 21, 22, 25, 26, 27, 28]",181.7036529,78775,1571,1,36,9,1.8547307061753238
undo,1,9,0,0,0,28,"[0, 9, 23, 8, 28]",5,17,"[3, 4, 5, 7, 10, 11, 15, 16, 17, 18, 19, 20, 21, 22, 25, 26, 27]",170.8869991,79529,754,1,23,9,1.7382749966569708
undo,1,9,0,0,0,26,"[0, 9, 23, 8, 28, 26]",6,10,"[3, 5, 10, 15, 16, 18, 19, 20, 21, 25]",126.1097727,80606,1077,4,7,8,1.4884719959249546
undo,1,9,0,0,0,18,"[0, 9, 23, 8, 28, 26, 18]",7,2,"[5, 19]",65.23284771,81610,1004,2,0,8,1.3471468379657168
undo,1,9,0,0,1,5,"[0, 9, 23, 8, 28, 26, 18, 5]",8,0,[],1.342316325,84257,2647,1,0,8,1.3414453811098892
undo,1,9,1,0,0,18,"[0, 9, 23, 8, 28, 26, 18]",7,2,"[5, 19]",65.23284771,85762,1505,2,0,8,1.3471468379657168
undo,1,9,1,0,0,26,"[0, 9, 23, 8, 28, 26]",6,10,"[3, 5, 10, 15, 16, 18, 19, 20, 21, 25]",126.1097727,85912,150,4,7,8,1.4884719959249546
undo,1,9,1,0,0,28,"[0, 9, 23, 8, 28]",5,17,"[3, 4, 5, 7, 10, 11, 15, 16, 17, 18, 19, 20, 21, 22, 25, 26, 27]",170.8869991,86063,151,1,23,9,1.7382749966569708
undo,1,9,1,0,0,8,"[0, 9, 23, 8]",4,18,"[3, 4, 5, 7, 10, 11, 15, 16, 17, 18, 19, 20, 21, 22, 25, 26, 27, 28]",181.7036529,86267,204,1,36,9,1.8547307061753238
undo,1,9,1,0,0,23,"[0, 9, 23]",3,22,"[1, 3, 4, 5, 7, 8, 10, 11, 13, 15, 16, 17, 18, 19, 20, 21, 22, 24, 25, 26, 27, 28]",203.1745635,86663,396,2,70,9,1.6262276606762436
undo,1,9,1,0,0,9,"[0, 9]",2,26,"[1, 3, 4, 5, 6, 7, 8, 10, 11, 13, 14, 15, 16, 17, 18, 19, 20, 21, 22, 23, 24, 25, 26, 27, 28, 29]",225.5352432,87013,350,2,101,9,1.0
undo,1,9,1,0,0,0,[0],1,27,"[1, 3, 4, 5, 6, 7, 8, 9, 10, 11, 13, 14, 15, 16, 17, 18, 19, 20, 21, 22, 23, 24, 25, 26, 27, 28, 29]",300,87396,383,2,182,10,0.0
undo,1,9,0,0,0,23,"[0, 23]",2,26,"[1, 3, 4, 5, 6, 7, 8, 9, 10, 11, 13, 14, 15, 16, 17, 18, 19, 20, 21, 22, 24, 25, 26, 27, 28, 29]",240.4600974,89772,2376,7,160,9,1.0
undo,1,9,0,0,0,8,"[0, 23, 8]",3,23,"[1, 3, 4, 5, 6, 7, 9, 10, 11, 13, 15, 16, 17, 18, 19, 20, 21, 22, 24, 25, 26, 27, 28]",218.9891869,90574,802,3,53,9,1.2701427074648883
undo,1,9,0,0,0,28,"[0, 23, 8, 28]",4,22,"[1, 3, 4, 5, 6, 7, 9, 10, 11, 13, 15, 16, 17, 18, 19, 20, 21, 22, 24, 25, 26, 27]",208.172533,91444,870,3,39,9,1.2362921532284137
undo,1,9,0,0,0,26,"[0, 23, 8, 28, 26]",5,19,"[1, 3, 5, 6, 7, 9, 10, 13, 15, 16, 17, 18, 19, 20, 21, 22, 24, 25, 27]",163.3953067,92523,1079,2,15,9,1.169313903639755
undo,1,9,0,0,0,18,"[0, 23, 8, 28, 26, 18]",6,8,"[1, 5, 13, 15, 16, 19, 21, 24]",102.5183817,93509,986,2,5,9,1.1331940395161044
undo,1,9,0,0,0,5,"[0, 23, 8, 28, 26, 18, 5]",7,3,"[1, 13, 24]",38.62785028,94675,1166,2,2,9,1.1739743598031722
undo,1,9,0,0,0,13,"[0, 23, 8, 28, 26, 18, 5, 13]",8,2,"[1, 24]",23.36351276,95643,968,2,0,9,1.187981509065966
undo,1,9,0,0,1,1,"[0, 23, 8, 28, 26, 18, 5, 13, 1]",9,0,[],4.154140044,97191,1548,1,0,9,1.2087530552333994
undo,1,9,1,0,0,13,"[0, 23, 8, 28, 26, 18, 5, 13]",8,2,"[1, 24]",23.36351276,100115,2924,2,0,9,1.187981509065966
undo,1,9,1,0,0,5,"[0, 23, 8, 28, 26, 18, 5]",7,3,"[1, 13, 24]",38.62785028,100516,401,2,2,9,1.1739743598031722
undo,1,9,1,0,0,18,"[0, 23, 8, 28, 26, 18]",6,8,"[1, 5, 13, 15, 16, 19, 21, 24]",102.5183817,100766,250,2,5,9,1.1331940395161044
undo,1,9,1,0,0,26,"[0, 23, 8, 28, 26]",5,19,"[1, 3, 5, 6, 7, 9, 10, 13, 15, 16, 17, 18, 19, 20, 21, 22, 24, 25, 27]",163.3953067,100982,216,2,15,9,1.169313903639755
undo,1,9,1,0,0,28,"[0, 23, 8, 28]",4,22,"[1, 3, 4, 5, 6, 7, 9, 10, 11, 13, 15, 16, 17, 18, 19, 20, 21, 22, 24, 25, 26, 27]",208.172533,101284,302,3,39,9,1.2362921532284137
undo,1,9,1,0,0,8,"[0, 23, 8]",3,23,"[1, 3, 4, 5, 6, 7, 9, 10, 11, 13, 15, 16, 17, 18, 19, 20, 21, 22, 24, 25, 26, 27, 28]",218.9891869,101499,215,3,53,9,1.2701427074648883
undo,1,9,1,0,0,23,"[0, 23]",2,26,"[1, 3, 4, 5, 6, 7, 8, 9, 10, 11, 13, 14, 15, 16, 17, 18, 19, 20, 21, 22, 24, 25, 26, 27, 28, 29]",240.4600974,101799,300,7,160,9,1.0
undo,1,9,1,0,0,0,[0],1,27,"[1, 3, 4, 5, 6, 7, 8, 9, 10, 11, 13, 14, 15, 16, 17, 18, 19, 20, 21, 22, 23, 24, 25, 26, 27, 28, 29]",300,102132,333,2,182,10,0.0
undo,1,9,0,0,0,25,"[0, 25]",2,24,"[1, 3, 4, 5, 6, 7, 8, 9, 10, 11, 13, 15, 16, 17, 18, 19, 20, 21, 22, 23, 24, 26, 27, 28]",275.9168108,104160,2028,2,104,10,1.0
undo,1,9,0,0,0,8,"[0, 25, 8]",3,23,"[1, 3, 4, 5, 6, 7, 9, 10, 11, 13, 15, 16, 17, 18, 19, 20, 21, 22, 23, 24, 26, 27, 28]",207.9168108,107828,3668,6,96,9,1.4437429617959179
undo,1,9,0,0,0,28,"[0, 25, 8, 28]",4,22,"[1, 3, 4, 5, 6, 7, 9, 10, 11, 13, 15, 16, 17, 18, 19, 20, 21, 22, 23, 24, 26, 27]",197.100157,109009,1181,3,47,9,1.3853618380798385
undo,1,9,0,0,0,23,"[0, 25, 8, 28, 23]",5,16,"[3, 4, 5, 7, 9, 10, 11, 16, 17, 18, 19, 20, 21, 22, 26, 27]",172.080165,110060,1051,2,17,9,2.148472359596758
undo,1,9,0,0,0,9,"[0, 25, 8, 28, 23, 9]",6,13,"[3, 4, 5, 7, 10, 11, 18, 19, 20, 21, 22, 26, 27]",149.7194852,110879,819,2,8,9,2.018142827958472
undo,1,9,0,0,0,26,"[0, 25, 8, 28, 23, 9, 26]",7,4,"[18, 19, 20, 21]",93.07144908,111941,1062,2,2,9,1.7712746597907922
undo,1,9,0,0,0,21,"[0, 25, 8, 28, 23, 9, 26, 21]",8,1,[20],39.16412119,114358,2417,1,0,9,2.200539495070579
undo,1,9,0,0,1,20,"[0, 25, 8, 28, 23, 9, 26, 21, 20]",9,0,[],27.08107522,115354,996,1,0,9,2.154921576632978
undo,1,9,1,0,0,21,"[0, 25, 8, 28, 23, 9, 26, 21]",8,1,[20],39.16412119,117016,1662,1,0,9,2.200539495070579
undo,1,9,1,0,0,26,"[0, 25, 8, 28, 23, 9, 26]",7,4,"[18, 19, 20, 21]",93.07144908,117216,200,2,2,9,1.7712746597907922
undo,1,9,1,0,0,9,"[0, 25, 8, 28, 23, 9]",6,13,"[3, 4, 5, 7, 10, 11, 18, 19, 20, 21, 22, 26, 27]",149.7194852,117400,184,2,8,9,2.018142827958472
undo,1,9,1,0,0,23,"[0, 25, 8, 28, 23]",5,16,"[3, 4, 5, 7, 9, 10, 11, 16, 17, 18, 19, 20, 21, 22, 26, 27]",172.080165,117565,165,2,17,9,2.148472359596758
undo,1,9,1,0,0,28,"[0, 25, 8, 28]",4,22,"[1, 3, 4, 5, 6, 7, 9, 10, 11, 13, 15, 16, 17, 18, 19, 20, 21, 22, 23, 24, 26, 27]",197.100157,117732,167,3,47,9,1.3853618380798385
undo,1,9,1,0,0,8,"[0, 25, 8]",3,23,"[1, 3, 4, 5, 6, 7, 9, 10, 11, 13, 15, 16, 17, 18, 19, 20, 21, 22, 23, 24, 26, 27, 28]",207.9168108,118083,351,6,96,9,1.4437429617959179
undo,1,9,1,0,0,25,"[0, 25]",2,24,"[1, 3, 4, 5, 6, 7, 8, 9, 10, 11, 13, 15, 16, 17, 18, 19, 20, 21, 22, 23, 24, 26, 27, 28]",275.9168108,118365,282,2,104,10,1.0
undo,1,9,1,0,0,0,[0],1,27,"[1, 3, 4, 5, 6, 7, 8, 9, 10, 11, 13, 14, 15, 16, 17, 18, 19, 20, 21, 22, 23, 24, 25, 26, 27, 28, 29]",300,118715,350,2,182,10,0.0
undo,1,9,0,0,0,25,"[0, 25]",2,24,"[1, 3, 4, 5, 6, 7, 8, 9, 10, 11, 13, 15, 16, 17, 18, 19, 20, 21, 22, 23, 24, 26, 27, 28]",275.9168108,121481,2766,2,104,10,1.0
undo,1,9,0,0,0,10,"[0, 25, 10]",3,20,"[3, 4, 5, 7, 8, 9, 11, 13, 15, 16, 17, 18, 19, 20, 21, 22, 23, 26, 27, 28]",236.0670932,122562,1081,2,76,10,1.1767014107208227
undo,1,9,0,0,0,8,"[0, 25, 10, 8]",4,19,"[3, 4, 5, 7, 9, 11, 13, 15, 16, 17, 18, 19, 20, 21, 22, 23, 26, 27, 28]",187.6935467,124328,1766,1,29,10,1.7608170712242983
undo,1,9,0,0,0,28,"[0, 25, 10, 8, 28]",5,18,"[3, 4, 5, 7, 9, 11, 13, 15, 16, 17, 18, 19, 20, 21, 22, 23, 26, 27]",176.8768928,125096,768,1,15,10,1.6576318206889098
undo,1,9,0,0,0,23,"[0, 25, 10, 8, 28, 23]",6,12,"[3, 4, 7, 9, 11, 18, 19, 20, 21, 22, 26, 27]",151.8569008,125994,898,1,7,10,2.488131366775142
undo,1,9,0,0,0,9,"[0, 25, 10, 8, 28, 23, 9]",7,10,"[3, 4, 7, 11, 18, 19, 20, 21, 26, 27]",129.4962211,126913,919,1,5,10,2.289724512754012
undo,1,9,0,0,0,26,"[0, 25, 10, 8, 28, 23, 9, 26]",8,3,"[18, 20, 21]",72.8481849,130845,3932,1,2,10,1.944382504121744
undo,1,9,0,0,0,21,"[0, 25, 10, 8, 28, 23, 9, 26, 21]",9,1,[20],18.94085701,132245,1400,1,0,10,2.3711528775176802
undo,1,9,0,0,1,20,"[0, 25, 10, 8, 28, 23, 9, 26, 21, 20]",10,0,[],6.85781104,133664,1419,1,0,10,2.3146010432238726
undo,1,9,0,1,1,20,"[0, 25, 10, 8, 28, 23, 9, 26, 21, 20]",10,0,[],6.85781104,135284,1620,1,0,10,2.3146010432238726
undo,2,0,0,0,0,0,[0],1,27,"[2, 3, 4, 5, 6, 7, 8, 9, 10, 11, 12, 13, 14, 15, 16, 17, 19, 20, 21, 22, 23, 24, 25, 26, 27, 28, 29]",300,149,-1,104,1136,9,0.0
undo,2,0,0,0,0,5,"[0, 5]",2,24,"[2, 3, 4, 7, 8, 9, 11, 12, 13, 14, 15, 16, 17, 19, 20, 21, 22, 23, 24, 25, 26, 27, 28, 29]",164.5156836,6877,6728,5,112,9,1.0
undo,2,0,0,0,0,26,"[0, 5, 26]",3,19,"[3, 4, 7, 8, 9, 11, 12, 13, 14, 15, 17, 19, 20, 21, 22, 23, 24, 25, 28]",129.0755933,10914,4037,1,27,9,1.0579955168289483
undo,2,0,0,0,0,4,"[0, 5, 26, 4]",4,15,"[3, 7, 8, 9, 11, 12, 14, 15, 17, 19, 20, 21, 23, 24, 28]",117.0339987,12025,1111,1,18,9,1.168807644221424
undo,2,0,0,0,0,24,"[0, 5, 26, 4, 24]",5,12,"[3, 7, 8, 9, 11, 12, 15, 17, 19, 20, 23, 28]",105.6322444,13160,1135,1,16,9,1.1650490498282802
undo,2,0,0,0,0,15,"[0, 5, 26, 4, 24, 15]",6,8,"[3, 7, 8, 9, 11, 12, 17, 19]",82.28700938,14345,1185,1,8,9,1.151743263817517
undo,2,0,0,0,0,8,"[0, 5, 26, 4, 24, 15, 8]",7,3,"[3, 7, 19]",43.17179495,15478,1133,3,0,8,1.154473556189965
undo,2,0,0,0,1,7,"[0, 5, 26, 4, 24, 15, 8, 7]",8,0,[],24.06682178,16629,1151,1,0,8,1.345951450237984
undo,2,0,1,0,0,8,"[0, 5, 26, 4, 24, 15, 8]",7,3,"[3, 7, 19]",43.17179495,22719,6090,3,0,8,1.154473556189965
undo,2,0,1,0,0,15,"[0, 5, 26, 4, 24, 15]",6,8,"[3, 7, 8, 9, 11, 12, 17, 19]",82.28700938,22901,182,1,8,9,1.151743263817517
undo,2,0,1,0,0,24,"[0, 5, 26, 4, 24]",5,12,"[3, 7, 8, 9, 11, 12, 15, 17, 19, 20, 23, 28]",105.6322444,23067,166,1,16,9,1.1650490498282802
undo,2,0,1,0,0,4,"[0, 5, 26, 4]",4,15,"[3, 7, 8, 9, 11, 12, 14, 15, 17, 19, 20, 21, 23, 24, 28]",117.0339987,23217,150,1,18,9,1.168807644221424
undo,2,0,1,0,0,26,"[0, 5, 26]",3,19,"[3, 4, 7, 8, 9, 11, 12, 13, 14, 15, 17, 19, 20, 21, 22, 23, 24, 25, 28]",129.0755933,23485,268,1,27,9,1.0579955168289483
undo,2,0,1,0,0,5,"[0, 5]",2,24,"[2, 3, 4, 7, 8, 9, 11, 12, 13, 14, 15, 16, 17, 19, 20, 21, 22, 23, 24, 25, 26, 27, 28, 29]",164.5156836,23852,367,5,112,9,1.0
undo,2,0,1,0,0,0,[0],1,27,"[2, 3, 4, 5, 6, 7, 8, 9, 10, 11, 12, 13, 14, 15, 16, 17, 19, 20, 21, 22, 23, 24, 25, 26, 27, 28, 29]",300,24217,365,104,1136,9,0.0
undo,2,0,0,0,0,28,"[0, 28]",2,26,"[2, 3, 4, 5, 6, 7, 8, 9, 10, 11, 12, 13, 14, 15, 16, 17, 19, 20, 21, 22, 23, 24, 25, 26, 27, 29]",194.9190788,26547,2330,39,388,9,1.0
undo,2,0,0,0,0,12,"[0, 28, 12]",3,19,"[3, 4, 5, 7, 8, 9, 10, 11, 13, 14, 15, 17, 19, 20, 21, 22, 23, 24, 26]",141.7683497,27813,1266,3,43,9,1.0142012686492925
undo,2,0,0,0,0,17,"[0, 28, 12, 17]",4,15,"[3, 4, 5, 7, 8, 9, 10, 13, 14, 15, 19, 22, 23, 24, 26]",108.0340942,29111,1298,3,43,8,1.0118475378909342
undo,2,0,0,0,0,3,"[0, 28, 12, 17, 3]",5,9,"[4, 7, 8, 15, 19, 22, 23, 24, 26]",72.22906657,30083,972,11,5,7,1.0507966655550791
undo,2,0,0,0,0,7,"[0, 28, 12, 17, 3, 7]",6,5,"[8, 15, 19, 24, 26]",48.14587741,31430,1347,5,0,7,1.22849823183697
undo,2,0,0,0,1,15,"[0, 28, 12, 17, 3, 7, 15]",7,0,[],17.08142828,32863,1433,1,0,7,1.4966932301992326
undo,2,0,1,0,0,7,"[0, 28, 12, 17, 3, 7]",6,5,"[8, 15, 19, 24, 26]",48.14587741,35236,2373,5,0,7,1.22849823183697
undo,2,0,1,0,0,3,"[0, 28, 12, 17, 3]",5,9,"[4, 7, 8, 15, 19, 22, 23, 24, 26]",72.22906657,35536,300,11,5,7,1.0507966655550791
undo,2,0,1,0,0,17,"[0, 28, 12, 17]",4,15,"[3, 4, 5, 7, 8, 9, 10, 13, 14, 15, 19, 22, 23, 24, 26]",108.0340942,35903,367,3,43,8,1.0118475378909342
undo,2,0,1,0,0,12,"[0, 28, 12]",3,19,"[3, 4, 5, 7, 8, 9, 10, 11, 13, 14, 15, 17, 19, 20, 21, 22, 23, 24, 26]",141.7683497,37569,1666,3,43,9,1.0142012686492925
undo,2,0,0,0,0,26,"[0, 28, 12, 26]",4,14,"[3, 4, 5, 7, 8, 9, 11, 14, 15, 17, 19, 20, 23, 24]",106.5405198,38163,594,3,25,9,1.1974841199765223
undo,2,0,0,0,0,4,"[0, 28, 12, 26, 4]",5,11,"[3, 5, 7, 8, 9, 11, 15, 17, 20, 23, 24]",94.49892525,39129,966,3,13,9,1.3127642586979258
undo,2,0,0,0,0,24,"[0, 28, 12, 26, 4, 24]",6,8,"[3, 5, 7, 8, 9, 11, 15, 17]",83.097171,39945,816,3,8,9,1.300125291108295
undo,2,0,0,0,0,15,"[0, 28, 12, 26, 4, 24, 15]",7,6,"[3, 5, 7, 8, 9, 11]",59.75193594,40847,902,3,4,9,1.2709581024003678
undo,2,0,0,0,0,7,"[0, 28, 12, 26, 4, 24, 15, 7]",8,2,"[3, 8]",28.68748681,41827,980,2,0,9,1.3234126934334873
undo,2,0,0,0,1,8,"[0, 28, 12, 26, 4, 24, 15, 7, 8]",9,0,[],9.582513632,43097,1270,1,0,9,1.3054614005566196
undo,2,0,1,0,0,7,"[0, 28, 12, 26, 4, 24, 15, 7]",8,2,"[3, 8]",28.68748681,45671,2574,2,0,9,1.3234126934334873
undo,2,0,1,0,0,15,"[0, 28, 12, 26, 4, 24, 15]",7,6,"[3, 5, 7, 8, 9, 11]",59.75193594,45904,233,3,4,9,1.2709581024003678
undo,2,0,1,0,0,24,"[0, 28, 12, 26, 4, 24]",6,8,"[3, 5, 7, 8, 9, 11, 15, 17]",83.097171,46154,250,3,8,9,1.300125291108295
undo,2,0,1,0,0,4,"[0, 28, 12, 26, 4]",5,11,"[3, 5, 7, 8, 9, 11, 15, 17, 20, 23, 24]",94.49892525,46503,349,3,13,9,1.3127642586979258
undo,2,0,1,0,0,26,"[0, 28, 12, 26]",4,14,"[3, 4, 5, 7, 8, 9, 11, 14, 15, 17, 19, 20, 23, 24]",106.5405198,46920,417,3,25,9,1.1974841199765223
undo,2,0,1,0,0,12,"[0, 28, 12]",3,19,"[3, 4, 5, 7, 8, 9, 10, 11, 13, 14, 15, 17, 19, 20, 21, 22, 23, 24, 26]",141.7683497,47303,383,3,43,9,1.0142012686492925
undo,2,0,0,0,0,17,"[0, 28, 12, 17]",4,15,"[3, 4, 5, 7, 8, 9, 10, 13, 14, 15, 19, 22, 23, 24, 26]",108.0340942,50037,2734,3,43,8,1.0118475378909342
undo,2,0,0,0,0,3,"[0, 28, 12, 17, 3]",5,9,"[4, 7, 8, 15, 19, 22, 23, 24, 26]",72.22906657,51070,1033,11,5,7,1.0507966655550791
undo,2,0,0,0,0,7,"[0, 28, 12, 17, 3, 7]",6,5,"[8, 15, 19, 24, 26]",48.14587741,52278,1208,5,0,7,1.22849823183697
undo,2,0,0,0,1,24,"[0, 28, 12, 17, 3, 7, 24]",7,0,[],6.145877413,54100,1822,1,0,7,1.7613747982595285
undo,2,0,1,0,0,7,"[0, 28, 12, 17, 3, 7]",6,5,"[8, 15, 19, 24, 26]",48.14587741,56255,2155,5,0,7,1.22849823183697
undo,2,0,1,0,0,3,"[0, 28, 12, 17, 3]",5,9,"[4, 7, 8, 15, 19, 22, 23, 24, 26]",72.22906657,56438,183,11,5,7,1.0507966655550791
undo,2,0,1,0,0,17,"[0, 28, 12, 17]",4,15,"[3, 4, 5, 7, 8, 9, 10, 13, 14, 15, 19, 22, 23, 24, 26]",108.0340942,56953,515,3,43,8,1.0118475378909342
undo,2,0,1,0,0,12,"[0, 28, 12]",3,19,"[3, 4, 5, 7, 8, 9, 10, 11, 13, 14, 15, 17, 19, 20, 21, 22, 23, 24, 26]",141.7683497,57387,434,3,43,9,1.0142012686492925
undo,2,0,1,0,0,28,"[0, 28]",2,26,"[2, 3, 4, 5, 6, 7, 8, 9, 10, 11, 12, 13, 14, 15, 16, 17, 19, 20, 21, 22, 23, 24, 25, 26, 27, 29]",194.9190788,58021,634,39,388,9,1.0
undo,2,0,1,0,0,0,[0],1,27,"[2, 3, 4, 5, 6, 7, 8, 9, 10, 11, 12, 13, 14, 15, 16, 17, 19, 20, 21, 22, 23, 24, 25, 26, 27, 28, 29]",300,58806,785,104,1136,9,0.0
undo,2,0,0,0,0,21,"[0, 21]",2,24,"[3, 4, 5, 6, 7, 8, 9, 10, 11, 12, 13, 14, 15, 16, 17, 19, 20, 22, 23, 24, 26, 27, 28, 29]",228.2156006,60616,1810,24,249,9,1.0
undo,2,0,0,0,0,28,"[0, 21, 28]",3,21,"[3, 4, 5, 6, 7, 8, 9, 11, 12, 13, 14, 15, 16, 17, 19, 20, 23, 24, 26, 27, 29]",166.6282642,61761,1145,24,214,9,1.269228840767463
undo,2,0,0,0,0,5,"[0, 21, 28, 5]",4,16,"[3, 4, 7, 8, 9, 11, 12, 14, 15, 17, 19, 20, 23, 24, 26, 29]",122.9705043,63181,1420,17,100,9,1.3066419815776449
undo,2,0,0,0,0,4,"[0, 21, 28, 5, 4]",5,13,"[3, 7, 8, 9, 11, 12, 15, 17, 19, 20, 23, 24, 26]",97.89063191,64317,1136,12,40,9,1.2910976504592468
undo,2,0,0,0,0,26,"[0, 21, 28, 5, 4, 26]",6,10,"[3, 7, 8, 9, 11, 12, 15, 17, 23, 24]",85.84903733,65144,827,5,20,9,1.3255611811315622
undo,2,0,0,0,0,24,"[0, 21, 28, 5, 4, 26, 24]",7,8,"[3, 7, 8, 9, 11, 12, 15, 17]",68.73179456,66264,1120,5,6,9,1.3862320021735308
undo,2,0,0,0,0,15,"[0, 21, 28, 5, 4, 26, 24, 15]",8,3,"[7, 8, 9]",45.3865595,68020,1756,3,0,9,1.3469536849324695
undo,2,0,0,0,1,7,"[0, 21, 28, 5, 4, 26, 24, 15, 7]",9,0,[],14.32211036,69269,1249,1,0,9,1.3934843658246785
undo,2,0,1,0,0,15,"[0, 21, 28, 5, 4, 26, 24, 15]",8,3,"[7, 8, 9]",45.3865595,72506,3237,3,0,9,1.3469536849324695
undo,2,0,1,0,0,24,"[0, 21, 28, 5, 4, 26, 24]",7,8,"[3, 7, 8, 9, 11, 12, 15, 17]",68.73179456,73839,1333,5,6,9,1.3862320021735308
undo,2,0,1,0,0,26,"[0, 21, 28, 5, 4, 26]",6,10,"[3, 7, 8, 9, 11, 12, 15, 17, 23, 24]",85.84903733,74355,516,5,20,9,1.3255611811315622
undo,2,0,1,0,0,4,"[0, 21, 28, 5, 4]",5,13,"[3, 7, 8, 9, 11, 12, 15, 17, 19, 20, 23, 24, 26]",97.89063191,75373,1018,12,40,9,1.2910976504592468
undo,2,0,1,0,0,5,"[0, 21, 28, 5]",4,16,"[3, 4, 7, 8, 9, 11, 12, 14, 15, 17, 19, 20, 23, 24, 26, 29]",122.9705043,77706,2333,17,100,9,1.3066419815776449
undo,2,0,1,0,0,28,"[0, 21, 28]",3,21,"[3, 4, 5, 6, 7, 8, 9, 11, 12, 13, 14, 15, 16, 17, 19, 20, 23, 24, 26, 27, 29]",166.6282642,79505,1799,24,214,9,1.269228840767463
undo,2,0,0,0,0,26,"[0, 21, 28, 26]",4,15,"[3, 4, 5, 7, 8, 9, 11, 12, 14, 15, 17, 19, 20, 23, 24]",108.6455082,80682,1177,3,29,9,1.1844545688832966
undo,2,0,0,0,0,4,"[0, 21, 28, 26, 4]",5,13,"[3, 5, 7, 8, 9, 11, 12, 15, 17, 19, 20, 23, 24]",96.60391358,81631,949,3,14,9,1.2993173536247433
undo,2,0,0,0,0,24,"[0, 21, 28, 26, 4, 24]",6,9,"[3, 5, 7, 8, 9, 11, 12, 15, 17]",85.20215933,82534,903,3,9,9,1.2875078965914128
undo,2,0,0,0,0,15,"[0, 21, 28, 26, 4, 24, 15]",7,6,"[3, 5, 7, 8, 9, 11]",61.85692427,83436,902,3,4,9,1.2598223124661623
undo,2,0,0,0,0,7,"[0, 21, 28, 26, 4, 24, 15, 7]",8,2,"[3, 8]",30.79247514,85719,2283,2,0,9,1.3131449463152387
undo,2,0,0,0,1,8,"[0, 21, 28, 26, 4, 24, 15, 7, 8]",9,0,[],11.68750196,87100,1381,1,0,9,1.2959992257916186
undo,2,0,1,0,0,7,"[0, 21, 28, 26, 4, 24, 15, 7]",8,2,"[3, 8]",30.79247514,89823,2723,2,0,9,1.3131449463152387
undo,2,0,1,0,0,15,"[0, 21, 28, 26, 4, 24, 15]",7,6,"[3, 5, 7, 8, 9, 11]",61.85692427,90023,200,3,4,9,1.2598223124661623
undo,2,0,1,0,0,24,"[0, 21, 28, 26, 4, 24]",6,9,"[3, 5, 7, 8, 9, 11, 12, 15, 17]",85.20215933,90208,185,3,9,9,1.2875078965914128
undo,2,0,1,0,0,4,"[0, 21, 28, 26, 4]",5,13,"[3, 5, 7, 8, 9, 11, 12, 15, 17, 19, 20, 23, 24]",96.60391358,90573,365,3,14,9,1.2993173536247433
undo,2,0,1,0,0,26,"[0, 21, 28, 26]",4,15,"[3, 4, 5, 7, 8, 9, 11, 12, 14, 15, 17, 19, 20, 23, 24]",108.6455082,90908,335,3,29,9,1.1844545688832966
undo,2,0,1,0,0,28,"[0, 21, 28]",3,21,"[3, 4, 5, 6, 7, 8, 9, 11, 12, 13, 14, 15, 16, 17, 19, 20, 23, 24, 26, 27, 29]",166.6282642,91358,450,24,214,9,1.269228840767463
undo,2,0,1,0,0,21,"[0, 21]",2,24,"[3, 4, 5, 6, 7, 8, 9, 10, 11, 12, 13, 14, 15, 16, 17, 19, 20, 22, 23, 24, 26, 27, 28, 29]",228.2156006,91741,383,24,249,9,1.0
undo,2,0,1,0,0,0,[0],1,27,"[2, 3, 4, 5, 6, 7, 8, 9, 10, 11, 12, 13, 14, 15, 16, 17, 19, 20, 21, 22, 23, 24, 25, 26, 27, 28, 29]",300,92408,667,104,1136,9,0.0
undo,2,0,0,0,0,20,"[0, 20]",2,25,"[2, 3, 4, 5, 6, 7, 8, 9, 11, 12, 13, 14, 15, 16, 17, 19, 21, 22, 23, 24, 25, 26, 27, 28, 29]",215.4955622,93666,1258,36,372,9,1.0
undo,2,0,0,0,0,5,"[0, 20, 5]",3,22,"[2, 3, 4, 7, 8, 9, 11, 12, 13, 14, 15, 16, 17, 19, 21, 22, 23, 24, 25, 26, 28, 29]",153.2942761,94668,1002,33,251,9,1.0828244018179105
undo,2,0,0,0,0,24,"[0, 20, 5, 24]",4,15,"[2, 3, 4, 7, 8, 9, 11, 12, 15, 17, 19, 23, 25, 26, 28]",120.5375974,96000,1332,6,62,9,1.0757056950295427
undo,2,0,0,0,0,15,"[0, 20, 5, 24, 15]",5,14,"[2, 3, 4, 7, 8, 9, 11, 12, 17, 19, 23, 25, 26, 28]",97.19236232,97269,1269,13,21,8,1.0728911025634766
undo,2,0,0,0,0,8,"[0, 20, 5, 24, 15, 8]",6,3,"[3, 7, 19]",58.07714789,98840,1571,2,1,8,1.0874722086878157
undo,2,0,0,0,0,7,"[0, 20, 5, 24, 15, 8, 7]",7,1,[3],38.97217471,99872,1032,1,0,8,1.2732458715835488
undo,2,0,1,0,0,8,"[0, 20, 5, 24, 15, 8]",6,3,"[3, 7, 19]",58.07714789,102025,2153,2,1,8,1.0874722086878157
undo,2,0,1,0,0,15,"[0, 20, 5, 24, 15]",5,14,"[2, 3, 4, 7, 8, 9, 11, 12, 17, 19, 23, 25, 26, 28]",97.19236232,102442,417,13,21,8,1.0728911025634766
undo,2,0,0,0,0,4,"[0, 20, 5, 24, 15, 4]",6,6,"[7, 11, 12, 17, 26, 28]",62.4792524,103833,1391,3,5,8,1.517309573820081
undo,2,0,0,0,0,26,"[0, 20, 5, 24, 15, 4, 26]",7,3,"[7, 12, 17]",50.43765782,104969,1136,3,0,8,1.5447521175790746
undo,2,0,0,0,1,7,"[0, 20, 5, 24, 15, 4, 26, 7]",8,0,[],6.9750302,106582,1613,1,0,8,1.4293220757374838
undo,2,0,1,0,0,26,"[0, 20, 5, 24, 15, 4, 26]",7,3,"[7, 12, 17]",50.43765782,107626,1044,3,0,8,1.5447521175790746
undo,2,0,1,0,0,4,"[0, 20, 5, 24, 15, 4]",6,6,"[7, 11, 12, 17, 26, 28]",62.4792524,107943,317,3,5,8,1.517309573820081
undo,2,0,1,0,0,15,"[0, 20, 5, 24, 15]",5,14,"[2, 3, 4, 7, 8, 9, 11, 12, 17, 19, 23, 25, 26, 28]",97.19236232,108209,266,13,21,8,1.0728911025634766
undo,2,0,1,0,0,24,"[0, 20, 5, 24]",4,15,"[2, 3, 4, 7, 8, 9, 11, 12, 15, 17, 19, 23, 25, 26, 28]",120.5375974,108476,267,6,62,9,1.0757056950295427
undo,2,0,1,0,0,5,"[0, 20, 5]",3,22,"[2, 3, 4, 7, 8, 9, 11, 12, 13, 14, 15, 16, 17, 19, 21, 22, 23, 24, 25, 26, 28, 29]",153.2942761,108842,366,33,251,9,1.0828244018179105
undo,2,0,1,0,0,20,"[0, 20]",2,25,"[2, 3, 4, 5, 6, 7, 8, 9, 11, 12, 13, 14, 15, 16, 17, 19, 21, 22, 23, 24, 25, 26, 27, 28, 29]",215.4955622,109241,399,36,372,9,1.0
undo,2,0,1,0,0,0,[0],1,27,"[2, 3, 4, 5, 6, 7, 8, 9, 10, 11, 12, 13, 14, 15, 16, 17, 19, 20, 21, 22, 23, 24, 25, 26, 27, 28, 29]",300,109741,500,104,1136,9,0.0
undo,2,0,0,0,0,28,"[0, 28]",2,26,"[2, 3, 4, 5, 6, 7, 8, 9, 10, 11, 12, 13, 14, 15, 16, 17, 19, 20, 21, 22, 23, 24, 25, 26, 27, 29]",194.9190788,110952,1211,39,388,9,1.0
undo,2,0,0,0,0,12,"[0, 28, 12]",3,19,"[3, 4, 5, 7, 8, 9, 10, 11, 13, 14, 15, 17, 19, 20, 21, 22, 23, 24, 26]",141.7683497,112620,1668,3,43,9,1.0142012686492925
undo,2,0,0,0,0,17,"[0, 28, 12, 17]",4,15,"[3, 4, 5, 7, 8, 9, 10, 13, 14, 15, 19, 22, 23, 24, 26]",108.0340942,113567,947,3,43,8,1.0118475378909342
undo,2,0,0,0,0,26,"[0, 28, 12, 17, 26]",5,7,"[3, 4, 5, 7, 8, 15, 24]",61.63366312,114792,1225,3,7,8,1.4754505845652224
undo,2,0,0,0,0,4,"[0, 28, 12, 17, 26, 4]",6,3,"[5, 15, 24]",49.59206854,115519,727,2,2,8,1.5996343713290866
undo,2,0,0,0,0,24,"[0, 28, 12, 17, 26, 4, 24]",7,2,"[5, 15]",38.19031429,116321,802,2,0,8,1.5692990055407943
undo,2,0,1,0,0,4,"[0, 28, 12, 17, 26, 4]",6,3,"[5, 15, 24]",49.59206854,120943,4622,2,2,8,1.5996343713290866
undo,2,0,1,0,0,26,"[0, 28, 12, 17, 26]",5,7,"[3, 4, 5, 7, 8, 15, 24]",61.63366312,121159,216,3,7,8,1.4754505845652224
undo,2,0,1,0,0,17,"[0, 28, 12, 17]",4,15,"[3, 4, 5, 7, 8, 9, 10, 13, 14, 15, 19, 22, 23, 24, 26]",108.0340942,121327,168,3,43,8,1.0118475378909342
undo,2,0,1,0,0,12,"[0, 28, 12]",3,19,"[3, 4, 5, 7, 8, 9, 10, 11, 13, 14, 15, 17, 19, 20, 21, 22, 23, 24, 26]",141.7683497,121560,233,3,43,9,1.0142012686492925
undo,2,0,1,0,0,28,"[0, 28]",2,26,"[2, 3, 4, 5, 6, 7, 8, 9, 10, 11, 12, 13, 14, 15, 16, 17, 19, 20, 21, 22, 23, 24, 25, 26, 27, 29]",194.9190788,121842,282,39,388,9,1.0
undo,2,0,0,0,0,26,"[0, 28, 26]",3,21,"[2, 3, 4, 5, 7, 8, 9, 10, 11, 12, 13, 14, 15, 17, 19, 20, 21, 22, 23, 24, 25]",136.9363227,123237,1395,5,55,9,1.0093388233539051
undo,2,0,0,0,0,4,"[0, 28, 26, 4]",4,16,"[3, 5, 7, 8, 9, 11, 12, 13, 14, 15, 17, 19, 20, 21, 23, 24]",124.8947282,124087,850,5,33,9,1.1185924093500432
undo,2,0,0,0,0,5,"[0, 28, 26, 4, 5]",5,10,"[3, 7, 8, 9, 11, 12, 15, 17, 20, 24]",99.81485576,125470,1383,5,14,8,1.4775521588528158
undo,2,0,0,0,0,24,"[0, 28, 26, 4, 5, 24]",6,8,"[3, 7, 8, 9, 11, 12, 15, 17]",67.05817705,126521,1051,5,6,8,1.396263740636438
undo,2,0,0,0,0,15,"[0, 28, 26, 4, 5, 24, 15]",7,3,"[7, 8, 9]",43.71294199,127524,1003,3,0,8,1.3558074409157952
undo,2,0,0,0,1,7,"[0, 28, 26, 4, 5, 24, 15, 7]",8,0,[],12.64849285,129120,1596,1,0,8,1.401647965176012
undo,2,0,1,0,0,15,"[0, 28, 26, 4, 5, 24, 15]",7,3,"[7, 8, 9]",43.71294199,130376,1256,3,0,8,1.3558074409157952
undo,2,0,1,0,0,24,"[0, 28, 26, 4, 5, 24]",6,8,"[3, 7, 8, 9, 11, 12, 15, 17]",67.05817705,130610,234,5,6,8,1.396263740636438
undo,2,0,1,0,0,5,"[0, 28, 26, 4, 5]",5,10,"[3, 7, 8, 9, 11, 12, 15, 17, 20, 24]",99.81485576,130760,150,5,14,8,1.4775521588528158
undo,2,0,1,0,0,4,"[0, 28, 26, 4]",4,16,"[3, 5, 7, 8, 9, 11, 12, 13, 14, 15, 17, 19, 20, 21, 23, 24]",124.8947282,130895,135,5,33,9,1.1185924093500432
undo,2,0,1,0,0,26,"[0, 28, 26]",3,21,"[2, 3, 4, 5, 7, 8, 9, 10, 11, 12, 13, 14, 15, 17, 19, 20, 21, 22, 23, 24, 25]",136.9363227,131310,415,5,55,9,1.0093388233539051
undo,2,0,1,0,0,28,"[0, 28]",2,26,"[2, 3, 4, 5, 6, 7, 8, 9, 10, 11, 12, 13, 14, 15, 16, 17, 19, 20, 21, 22, 23, 24, 25, 26, 27, 29]",194.9190788,131660,350,39,388,9,1.0
undo,2,0,1,0,0,0,[0],1,27,"[2, 3, 4, 5, 6, 7, 8, 9, 10, 11, 12, 13, 14, 15, 16, 17, 19, 20, 21, 22, 23, 24, 25, 26, 27, 28, 29]",300,132061,401,104,1136,9,0.0
undo,2,0,0,0,0,28,"[0, 28]",2,26,"[2, 3, 4, 5, 6, 7, 8, 9, 10, 11, 12, 13, 14, 15, 16, 17, 19, 20, 21, 22, 23, 24, 25, 26, 27, 29]",194.9190788,133768,1707,39,388,9,1.0
undo,2,0,0,0,0,5,"[0, 28, 5]",3,21,"[2, 3, 4, 7, 8, 9, 11, 12, 13, 14, 15, 16, 17, 19, 20, 21, 23, 24, 25, 26, 29]",151.2613189,134854,1086,27,210,9,1.0978295127671733
undo,2,0,0,0,0,26,"[0, 28, 5, 26]",4,15,"[3, 4, 7, 8, 9, 11, 12, 13, 14, 15, 17, 19, 20, 23, 24]",115.8212286,136056,1202,5,35,9,1.1400379746718978
undo,2,0,0,0,0,4,"[0, 28, 5, 26, 4]",5,12,"[3, 7, 8, 9, 11, 12, 15, 17, 19, 20, 23, 24]",103.779634,136970,914,4,17,9,1.2534780347343448
undo,2,0,0,0,0,24,"[0, 28, 5, 26, 4, 24]",6,9,"[3, 7, 8, 9, 11, 12, 15, 17, 19]",92.37787977,138088,1118,4,12,9,1.2444963062448124
undo,2,0,0,0,0,15,"[0, 28, 5, 26, 4, 24, 15]",7,6,"[3, 7, 8, 9, 11, 17]",69.03264471,139405,1317,3,4,9,1.2218613820858855
undo,2,0,0,0,0,7,"[0, 28, 5, 26, 4, 24, 15, 7]",8,2,"[3, 8]",37.96819558,141274,1869,2,0,9,1.2781430976973103
undo,2,0,0,0,1,3,"[0, 28, 5, 26, 4, 24, 15, 7, 3]",9,0,[],13.88500642,143389,2115,1,0,9,1.319960702148038
undo,2,0,0,1,1,3,"[0, 28, 5, 26, 4, 24, 15, 7, 3]",9,0,[],13.88500642,145146,1757,1,0,9,1.319960702148038
undo,3,20,0,0,0,0,[0],1,21,"[1, 2, 3, 4, 5, 6, 7, 8, 9, 12, 17, 18, 20, 21, 22, 23, 25, 26, 27, 28, 29]",300,162,-1,1,9,9,0.0
undo,3,20,0,0,0,5,"[0, 5]",2,14,"[1, 3, 4, 6, 8, 9, 12, 20, 21, 23, 26, 27, 28, 29]",174.3576505,8044,7882,3,24,7,1.0
undo,3,20,0,0,0,21,"[0, 5, 21]",3,10,"[1, 4, 6, 8, 9, 20, 23, 26, 27, 28]",129.3576505,9077,1033,3,13,7,1.000374735486217
undo,3,20,0,0,0,8,"[0, 5, 21, 8]",4,6,"[1, 6, 9, 23, 27, 28]",111.8934013,9914,837,3,7,7,1.0232558372988163
undo,3,20,0,0,0,23,"[0, 5, 21, 8, 23]",5,4,"[6, 9, 27, 28]",67.20559531,11094,1180,2,2,7,1.022001720978389
undo,3,20,0,0,0,9,"[0, 5, 21, 8, 23, 9]",6,1,[6],47.9962226,12142,1048,1,0,7,1.0216742507052117
undo,3,20,0,0,1,6,"[0, 5, 21, 8, 23, 9, 6]",7,0,[],24.97449373,13081,939,1,0,7,1.037647415066349
undo,3,20,1,0,0,9,"[0, 5, 21, 8, 23, 9]",6,1,[6],47.9962226,15001,1920,1,0,7,1.0216742507052117
undo,3,20,1,0,0,23,"[0, 5, 21, 8, 23]",5,4,"[6, 9, 27, 28]",67.20559531,15234,233,2,2,7,1.022001720978389
undo,3,20,1,0,0,8,"[0, 5, 21, 8]",4,6,"[1, 6, 9, 23, 27, 28]",111.8934013,15418,184,3,7,7,1.0232558372988163
undo,3,20,1,0,0,21,"[0, 5, 21]",3,10,"[1, 4, 6, 8, 9, 20, 23, 26, 27, 28]",129.3576505,15567,149,3,13,7,1.000374735486217
undo,3,20,1,0,0,5,"[0, 5]",2,14,"[1, 3, 4, 6, 8, 9, 12, 20, 21, 23, 26, 27, 28, 29]",174.3576505,15734,167,3,24,7,1.0
undo,3,20,1,0,0,0,[0],1,21,"[1, 2, 3, 4, 5, 6, 7, 8, 9, 12, 17, 18, 20, 21, 22, 23, 25, 26, 27, 28, 29]",300,16500,766,1,9,9,0.0
undo,3,20,0,0,0,12,"[0, 12]",2,20,"[1, 2, 3, 4, 5, 6, 7, 8, 9, 17, 18, 20, 21, 22, 23, 25, 26, 27, 28, 29]",271.5570747,18394,1894,1,8,9,1.0
undo,3,20,0,0,0,21,"[0, 12, 21]",3,11,"[1, 4, 5, 6, 8, 9, 20, 23, 26, 27, 28]",126.4708934,30712,12318,2,13,7,1.0172980776623364
undo,3,20,0,0,0,8,"[0, 12, 21, 8]",4,7,"[1, 5, 6, 9, 23, 27, 28]",109.0066442,32112,1400,2,7,7,1.038959119766593
undo,3,20,0,0,0,23,"[0, 12, 21, 8, 23]",5,3,"[6, 9, 27]",64.31883827,33212,1100,2,1,7,1.0346750095260893
undo,3,20,0,0,0,9,"[0, 12, 21, 8, 23, 9]",6,1,[6],45.10946556,34127,915,1,0,7,1.033377747241014
undo,3,20,0,0,1,6,"[0, 12, 21, 8, 23, 9, 6]",7,0,[],22.08773669,35577,1450,1,0,7,1.048538899354864
undo,3,20,1,0,0,9,"[0, 12, 21, 8, 23, 9]",6,1,[6],45.10946556,37385,1808,1,0,7,1.033377747241014
undo,3,20,1,0,0,23,"[0, 12, 21, 8, 23]",5,3,"[6, 9, 27]",64.31883827,37735,350,2,1,7,1.0346750095260893
undo,3,20,1,0,0,8,"[0, 12, 21, 8]",4,7,"[1, 5, 6, 9, 23, 27, 28]",109.0066442,38153,418,2,7,7,1.038959119766593
undo,3,20,1,0,0,21,"[0, 12, 21]",3,11,"[1, 4, 5, 6, 8, 9, 20, 23, 26, 27, 28]",126.4708934,38536,383,2,13,7,1.0172980776623364
undo,3,20,1,0,0,12,"[0, 12]",2,20,"[1, 2, 3, 4, 5, 6, 7, 8, 9, 17, 18, 20, 21, 22, 23, 25, 26, 27, 28, 29]",271.5570747,38920,384,1,8,9,1.0
undo,3,20,0,0,0,1,"[0, 12, 1]",3,12,"[3, 4, 5, 6, 8, 9, 20, 21, 23, 27, 28, 29]",189.5692707,45546,6626,1,6,9,1.0757997779162911
undo,3,20,0,0,0,5,"[0, 12, 1, 5]",4,10,"[4, 6, 8, 9, 20, 21, 23, 27, 28, 29]",152.8950291,47163,1617,1,5,9,1.1708231454516806
undo,3,20,0,0,0,21,"[0, 12, 1, 5, 21]",5,8,"[4, 6, 8, 9, 20, 23, 27, 28]",107.8950291,47979,816,1,4,9,1.126197336199212
undo,3,20,0,0,0,8,"[0, 12, 1, 5, 21, 8]",6,5,"[6, 9, 23, 27, 28]",90.43077988,48669,690,1,3,9,1.140007470699913
undo,3,20,0,0,0,23,"[0, 12, 1, 5, 21, 8, 23]",7,2,"[6, 9]",45.74297394,49482,813,1,1,9,1.1162257896627588
undo,3,20,0,0,0,9,"[0, 12, 1, 5, 21, 8, 23, 9]",8,1,[6],26.53360123,50364,882,1,0,9,1.1086880559449597
undo,3,20,0,0,1,6,"[0, 12, 1, 5, 21, 8, 23, 9, 6]",9,0,[],3.511872362,51626,1262,1,0,9,1.1186240265999328
undo,3,20,0,1,1,6,"[0, 12, 1, 5, 21, 8, 23, 9, 6]",9,0,[],3.511872362,54138,2512,1,0,9,1.1186240265999328
undo,4,1,0,0,0,0,[0],1,26,"[1, 2, 4, 5, 7, 8, 9, 10, 11, 12, 13, 14, 15, 16, 17, 18, 19, 20, 21, 22, 23, 24, 25, 26, 28, 29]",300,160,-1,6,74,7,0.0
undo,4,1,0,0,0,14,"[0, 14]",2,19,"[1, 4, 5, 8, 9, 13, 15, 17, 18, 19, 20, 21, 22, 23, 24, 25, 26, 28, 29]",200.1901808,6830,6670,5,42,7,1.0
undo,4,1,0,0,0,17,"[0, 14, 17]",3,15,"[1, 4, 5, 8, 9, 13, 15, 18, 19, 20, 22, 23, 25, 28, 29]",147.8356204,7970,1140,5,27,7,1.0028844724416826
undo,4,1,0,0,0,1,"[0, 14, 17, 1]",4,12,"[4, 5, 8, 9, 15, 18, 20, 22, 23, 25, 28, 29]",123.4840291,8947,977,5,15,7,1.0264985578353567
undo,4,1,0,0,0,28,"[0, 14, 17, 1, 28]",5,5,"[9, 15, 22, 23, 29]",88.59850198,9816,869,5,3,7,1.0339861575999345
undo,4,1,0,0,0,23,"[0, 14, 17, 1, 28, 23]",6,2,"[15, 22]",51.70676849,11553,1737,2,0,7,1.0327458250705703
undo,4,1,0,0,1,15,"[0, 14, 17, 1, 28, 23, 15]",7,0,[],20.81987807,14349,2796,1,0,7,1.1948681641401226
undo,4,1,1,0,0,23,"[0, 14, 17, 1, 28, 23]",6,2,"[15, 22]",51.70676849,15523,1174,2,0,7,1.0327458250705703
undo,4,1,1,0,0,28,"[0, 14, 17, 1, 28]",5,5,"[9, 15, 22, 23, 29]",88.59850198,15707,184,5,3,7,1.0339861575999345
undo,4,1,1,0,0,1,"[0, 14, 17, 1]",4,12,"[4, 5, 8, 9, 15, 18, 20, 22, 23, 25, 28, 29]",123.4840291,16007,300,5,15,7,1.0264985578353567
undo,4,1,1,0,0,17,"[0, 14, 17]",3,15,"[1, 4, 5, 8, 9, 13, 15, 18, 19, 20, 22, 23, 25, 28, 29]",147.8356204,16390,383,5,27,7,1.0028844724416826
undo,4,1,1,0,0,14,"[0, 14]",2,19,"[1, 4, 5, 8, 9, 13, 15, 17, 18, 19, 20, 21, 22, 23, 24, 25, 26, 28, 29]",200.1901808,16891,501,5,42,7,1.0
undo,4,1,1,0,0,0,[0],1,26,"[1, 2, 4, 5, 7, 8, 9, 10, 11, 12, 13, 14, 15, 16, 17, 18, 19, 20, 21, 22, 23, 24, 25, 26, 28, 29]",300,17673,782,6,74,7,0.0
undo,4,1,0,0,0,8,"[0, 8]",2,23,"[1, 4, 5, 7, 9, 10, 11, 12, 13, 14, 15, 16, 17, 18, 19, 20, 21, 23, 24, 25, 26, 28, 29]",202,18832,1159,1,16,7,1.0
undo,4,1,0,0,0,20,"[0, 8, 20]",3,12,"[1, 4, 5, 11, 13, 14, 15, 17, 18, 19, 28, 29]",125.9408125,19943,1111,1,7,7,1.02364736730791
undo,4,1,0,0,0,5,"[0, 8, 20, 5]",4,7,"[1, 4, 11, 13, 17, 18, 29]",104.469902,20766,823,1,3,7,1.0439599203945713
undo,4,1,0,0,0,18,"[0, 8, 20, 5, 18]",5,2,"[4, 29]",81.64447755,21535,769,1,1,7,1.0840407791793756
undo,4,1,0,0,0,4,"[0, 8, 20, 5, 18, 4]",6,1,[29],42.69579336,22448,913,1,0,7,1.0902329133216275
undo,4,1,1,0,0,18,"[0, 8, 20, 5, 18]",5,2,"[4, 29]",81.64447755,24622,2174,1,1,7,1.0840407791793756
undo,4,1,1,0,0,5,"[0, 8, 20, 5]",4,7,"[1, 4, 11, 13, 17, 18, 29]",104.469902,24790,168,1,3,7,1.0439599203945713
undo,4,1,1,0,0,20,"[0, 8, 20]",3,12,"[1, 4, 5, 11, 13, 14, 15, 17, 18, 19, 28, 29]",125.9408125,25090,300,1,7,7,1.02364736730791
undo,4,1,1,0,0,8,"[0, 8]",2,23,"[1, 4, 5, 7, 9, 10, 11, 12, 13, 14, 15, 16, 17, 18, 19, 20, 21, 23, 24, 25, 26, 28, 29]",202,25674,584,1,16,7,1.0
undo,4,1,0,0,0,11,"[0, 8, 11]",3,2,"[10, 12]",26.86005596,26931,1257,2,0,4,1.000183878010998
undo,4,1,0,0,1,12,"[0, 8, 11, 12]",4,0,[],0.687551299,28501,1570,1,0,4,1.000485585879608
undo,4,1,1,0,0,11,"[0, 8, 11]",3,2,"[10, 12]",26.86005596,29607,1106,2,0,4,1.000183878010998
undo,4,1,1,0,0,8,"[0, 8]",2,23,"[1, 4, 5, 7, 9, 10, 11, 12, 13, 14, 15, 16, 17, 18, 19, 20, 21, 23, 24, 25, 26, 28, 29]",202,29974,367,1,16,7,1.0
undo,4,1,1,0,0,0,[0],1,26,"[1, 2, 4, 5, 7, 8, 9, 10, 11, 12, 13, 14, 15, 16, 17, 18, 19, 20, 21, 22, 23, 24, 25, 26, 28, 29]",300,30390,416,6,74,7,0.0
undo,4,1,0,0,0,14,"[0, 14]",2,19,"[1, 4, 5, 8, 9, 13, 15, 17, 18, 19, 20, 21, 22, 23, 24, 25, 26, 28, 29]",200.1901808,39251,8861,5,42,7,1.0
undo,4,1,0,0,0,17,"[0, 14, 17]",3,15,"[1, 4, 5, 8, 9, 13, 15, 18, 19, 20, 22, 23, 25, 28, 29]",147.8356204,40352,1101,5,27,7,1.0028844724416826
undo,4,1,0,0,0,1,"[0, 14, 17, 1]",4,12,"[4, 5, 8, 9, 15, 18, 20, 22, 23, 25, 28, 29]",123.4840291,41535,1183,5,15,7,1.0264985578353567
undo,4,1,0,0,0,28,"[0, 14, 17, 1, 28]",5,5,"[9, 15, 22, 23, 29]",88.59850198,43035,1500,5,3,7,1.0339861575999345
undo,4,1,0,0,0,23,"[0, 14, 17, 1, 28, 23]",6,2,"[15, 22]",51.70676849,44067,1032,2,0,7,1.0327458250705703
undo,4,1,0,0,1,22,"[0, 14, 17, 1, 28, 23, 22]",7,0,[],3.696352956,45102,1035,1,0,7,1.0700788216594126
undo,4,1,1,0,0,23,"[0, 14, 17, 1, 28, 23]",6,2,"[15, 22]",51.70676849,46625,1523,2,0,7,1.0327458250705703
undo,4,1,1,0,0,28,"[0, 14, 17, 1, 28]",5,5,"[9, 15, 22, 23, 29]",88.59850198,46824,199,5,3,7,1.0339861575999345
undo,4,1,1,0,0,1,"[0, 14, 17, 1]",4,12,"[4, 5, 8, 9, 15, 18, 20, 22, 23, 25, 28, 29]",123.4840291,47009,185,5,15,7,1.0264985578353567
undo,4,1,1,0,0,17,"[0, 14, 17]",3,15,"[1, 4, 5, 8, 9, 13, 15, 18, 19, 20, 22, 23, 25, 28, 29]",147.8356204,47176,167,5,27,7,1.0028844724416826
undo,4,1,1,0,0,14,"[0, 14]",2,19,"[1, 4, 5, 8, 9, 13, 15, 17, 18, 19, 20, 21, 22, 23, 24, 25, 26, 28, 29]",200.1901808,47324,148,5,42,7,1.0
undo,4,1,0,0,0,20,"[0, 14, 20]",3,8,"[1, 4, 5, 8, 17, 18, 19, 29]",107.5349058,49154,1830,3,6,6,1.1318930635390845
undo,4,1,0,0,0,5,"[0, 14, 20, 5]",4,3,"[4, 18, 29]",86.06399521,50019,865,2,2,6,1.1422313843984317
undo,4,1,0,0,0,18,"[0, 14, 20, 5, 18]",5,2,"[4, 29]",63.23857079,50884,865,2,0,6,1.1754181498166683
undo,4,1,1,0,0,5,"[0, 14, 20, 5]",4,3,"[4, 18, 29]",86.06399521,53442,2558,2,2,6,1.1422313843984317
undo,4,1,1,0,0,20,"[0, 14, 20]",3,8,"[1, 4, 5, 8, 17, 18, 19, 29]",107.5349058,53658,216,3,6,6,1.1318930635390845
undo,4,1,1,0,0,14,"[0, 14]",2,19,"[1, 4, 5, 8, 9, 13, 15, 17, 18, 19, 20, 21, 22, 23, 24, 25, 26, 28, 29]",200.1901808,54042,384,5,42,7,1.0
undo,4,1,0,0,0,17,"[0, 14, 17]",3,15,"[1, 4, 5, 8, 9, 13, 15, 18, 19, 20, 22, 23, 25, 28, 29]",147.8356204,57581,3539,5,27,7,1.0028844724416826
undo,4,1,0,0,0,1,"[0, 14, 17, 1]",4,12,"[4, 5, 8, 9, 15, 18, 20, 22, 23, 25, 28, 29]",123.4840291,58451,870,5,15,7,1.0264985578353567
undo,4,1,0,0,0,28,"[0, 14, 17, 1, 28]",5,5,"[9, 15, 22, 23, 29]",88.59850198,59436,985,5,3,7,1.0339861575999345
undo,4,1,0,0,0,15,"[0, 14, 17, 1, 28, 15]",6,3,"[22, 23, 29]",53.37067208,60603,1167,3,0,7,1.055553419196412
undo,4,1,0,0,1,22,"[0, 14, 17, 1, 28, 15, 22]",7,0,[],10.09250206,61754,1151,1,0,7,1.0469795997475408
undo,4,1,1,0,0,15,"[0, 14, 17, 1, 28, 15]",6,3,"[22, 23, 29]",53.37067208,64326,2572,3,0,7,1.055553419196412
undo,4,1,1,0,0,28,"[0, 14, 17, 1, 28]",5,5,"[9, 15, 22, 23, 29]",88.59850198,64527,201,5,3,7,1.0339861575999345
undo,4,1,1,0,0,1,"[0, 14, 17, 1]",4,12,"[4, 5, 8, 9, 15, 18, 20, 22, 23, 25, 28, 29]",123.4840291,64659,132,5,15,7,1.0264985578353567
undo,4,1,1,0,0,17,"[0, 14, 17]",3,15,"[1, 4, 5, 8, 9, 13, 15, 18, 19, 20, 22, 23, 25, 28, 29]",147.8356204,64809,150,5,27,7,1.0028844724416826
undo,4,1,1,0,0,14,"[0, 14]",2,19,"[1, 4, 5, 8, 9, 13, 15, 17, 18, 19, 20, 21, 22, 23, 24, 25, 26, 28, 29]",200.1901808,64943,134,5,42,7,1.0
undo,4,1,1,0,0,0,[0],1,26,"[1, 2, 4, 5, 7, 8, 9, 10, 11, 12, 13, 14, 15, 16, 17, 18, 19, 20, 21, 22, 23, 24, 25, 26, 28, 29]",300,65192,249,6,74,7,0.0
undo,4,1,0,0,0,8,"[0, 8]",2,23,"[1, 4, 5, 7, 9, 10, 11, 12, 13, 14, 15, 16, 17, 18, 19, 20, 21, 23, 24, 25, 26, 28, 29]",202,66689,1497,1,16,7,1.0
undo,4,1,0,0,0,26,"[0, 8, 26]",3,3,"[14, 19, 24]",131.4238,69932,3243,2,1,5,1.7129569457010596
undo,4,1,0,0,0,24,"[0, 8, 26, 24]",4,1,[19],98.18225977,70888,956,1,0,5,1.7612742105499053
undo,4,1,0,0,1,19,"[0, 8, 26, 24, 19]",5,0,[],32.38712317,72119,1231,1,0,5,2.2159185341443086
undo,4,1,1,0,0,24,"[0, 8, 26, 24]",4,1,[19],98.18225977,72961,842,1,0,5,1.7612742105499053
undo,4,1,1,0,0,26,"[0, 8, 26]",3,3,"[14, 19, 24]",131.4238,73160,199,2,1,5,1.7129569457010596
undo,4,1,1,0,0,8,"[0, 8]",2,23,"[1, 4, 5, 7, 9, 10, 11, 12, 13, 14, 15, 16, 17, 18, 19, 20, 21, 23, 24, 25, 26, 28, 29]",202,73360,200,1,16,7,1.0
undo,4,1,1,0,0,0,[0],1,26,"[1, 2, 4, 5, 7, 8, 9, 10, 11, 12, 13, 14, 15, 16, 17, 18, 19, 20, 21, 22, 23, 24, 25, 26, 28, 29]",300,73610,250,6,74,7,0.0
undo,4,1,0,0,0,20,"[0, 20]",2,13,"[1, 4, 5, 8, 11, 13, 14, 15, 17, 18, 19, 28, 29]",129.961769,74975,1365,2,11,6,1.0
undo,4,1,0,0,0,5,"[0, 20, 5]",3,9,"[1, 4, 8, 11, 13, 17, 18, 19, 29]",108.4908585,75759,784,2,6,6,1.0224915251419384
undo,4,1,0,0,0,18,"[0, 20, 5, 18]",4,4,"[4, 13, 17, 29]",85.66543403,77204,1445,2,3,6,1.064078468417926
undo,4,1,0,0,0,4,"[0, 20, 5, 18, 4]",5,2,"[13, 29]",46.71674984,78371,1167,2,0,6,1.0731955739217967
undo,4,1,0,0,1,29,"[0, 20, 5, 18, 4, 29]",6,0,[],10.66123709,79522,1151,1,0,6,1.268346679663489
undo,4,1,1,0,0,4,"[0, 20, 5, 18, 4]",5,2,"[13, 29]",46.71674984,80295,773,2,0,6,1.0731955739217967
undo,4,1,1,0,0,18,"[0, 20, 5, 18]",4,4,"[4, 13, 17, 29]",85.66543403,80495,200,2,3,6,1.064078468417926
undo,4,1,1,0,0,5,"[0, 20, 5]",3,9,"[1, 4, 8, 11, 13, 17, 18, 19, 29]",108.4908585,80678,183,2,6,6,1.0224915251419384
undo,4,1,1,0,0,20,"[0, 20]",2,13,"[1, 4, 5, 8, 11, 13, 14, 15, 17, 18, 19, 28, 29]",129.961769,80962,284,2,11,6,1.0
undo,4,1,1,0,0,0,[0],1,26,"[1, 2, 4, 5, 7, 8, 9, 10, 11, 12, 13, 14, 15, 16, 17, 18, 19, 20, 21, 22, 23, 24, 25, 26, 28, 29]",300,81361,399,6,74,7,0.0
undo,4,1,0,0,0,14,"[0, 14]",2,19,"[1, 4, 5, 8, 9, 13, 15, 17, 18, 19, 20, 21, 22, 23, 24, 25, 26, 28, 29]",200.1901808,82540,1179,5,42,7,1.0
undo,4,1,0,0,0,17,"[0, 14, 17]",3,15,"[1, 4, 5, 8, 9, 13, 15, 18, 19, 20, 22, 23, 25, 28, 29]",147.8356204,83409,869,5,27,7,1.0028844724416826
undo,4,1,0,0,0,1,"[0, 14, 17, 1]",4,12,"[4, 5, 8, 9, 15, 18, 20, 22, 23, 25, 28, 29]",123.4840291,84123,714,5,15,7,1.0264985578353567
undo,4,1,0,0,0,28,"[0, 14, 17, 1, 28]",5,5,"[9, 15, 22, 23, 29]",88.59850198,85224,1101,5,3,7,1.0339861575999345
undo,4,1,0,0,0,23,"[0, 14, 17, 1, 28, 23]",6,2,"[15, 22]",51.70676849,90420,5196,2,0,7,1.0327458250705703
undo,4,1,0,0,1,15,"[0, 14, 17, 1, 28, 23, 15]",7,0,[],20.81987807,91622,1202,1,0,7,1.1948681641401226
undo,4,1,0,1,1,15,"[0, 14, 17, 1, 28, 23, 15]",7,0,[],20.81987807,92729,1107,1,0,7,1.1948681641401226
undo,5,24,0,0,0,0,[0],1,29,"[1, 2, 3, 4, 5, 6, 7, 8, 9, 10, 11, 12, 13, 14, 15, 16, 17, 18, 19, 20, 21, 22, 23, 24, 25, 26, 27, 28, 29]",300,166,-1,4,76,10,0.0
undo,5,24,0,0,0,16,"[0, 16]",2,28,"[1, 2, 3, 4, 5, 6, 7, 8, 9, 10, 11, 12, 13, 14, 15, 17, 18, 19, 20, 21, 22, 23, 24, 25, 26, 27, 28, 29]",210.3562607,5721,5555,13,110,9,1.0
undo,5,24,0,0,0,22,"[0, 16, 22]",3,27,"[1, 2, 3, 4, 5, 6, 7, 8, 9, 10, 11, 12, 13, 14, 15, 17, 18, 19, 20, 21, 23, 24, 25, 26, 27, 28, 29]",192.3285043,6749,1028,7,54,9,1.0217425143037777
undo,5,24,0,0,0,8,"[0, 16, 22, 8]",4,21,"[1, 2, 3, 4, 6, 9, 10, 11, 13, 14, 15, 17, 20, 21, 23, 24, 25, 26, 27, 28, 29]",178.9120964,7829,1080,4,28,9,1.0996636936037951
undo,5,24,0,0,0,15,"[0, 16, 22, 8, 15]",5,16,"[3, 4, 6, 9, 10, 11, 13, 14, 17, 23, 24, 25, 26, 27, 28, 29]",148.025206,8686,857,3,17,9,1.2704773343758617
undo,5,24,0,0,0,28,"[0, 16, 22, 8, 15, 28]",6,8,"[3, 4, 9, 11, 13, 23, 26, 27]",102.7482803,9649,963,3,5,9,1.1981967578189556
undo,5,24,0,0,0,23,"[0, 16, 22, 8, 15, 28, 23]",7,3,"[9, 11, 27]",83.72198273,10347,698,3,1,9,1.2275650852813986
undo,5,24,0,0,0,11,"[0, 16, 22, 8, 15, 28, 23, 11]",8,2,"[9, 27]",56.79615869,11316,969,2,0,9,1.2107937989822568
undo,5,24,0,0,1,27,"[0, 16, 22, 8, 15, 28, 23, 11, 27]",9,0,[],28.99328114,14195,2879,1,0,9,1.1865620449755248
undo,5,24,1,0,0,11,"[0, 16, 22, 8, 15, 28, 23, 11]",8,2,"[9, 27]",56.79615869,18524,4329,2,0,9,1.2107937989822568
undo,5,24,1,0,0,23,"[0, 16, 22, 8, 15, 28, 23]",7,3,"[9, 11, 27]",83.72198273,18773,249,3,1,9,1.2275650852813986
undo,5,24,1,0,0,28,"[0, 16, 22, 8, 15, 28]",6,8,"[3, 4, 9, 11, 13, 23, 26, 27]",102.7482803,18957,184,3,5,9,1.1981967578189556
undo,5,24,1,0,0,15,"[0, 16, 22, 8, 15]",5,16,"[3, 4, 6, 9, 10, 11, 13, 14, 17, 23, 24, 25, 26, 27, 28, 29]",148.025206,19107,150,3,17,9,1.2704773343758617
undo,5,24,1,0,0,8,"[0, 16, 22, 8]",4,21,"[1, 2, 3, 4, 6, 9, 10, 11, 13, 14, 15, 17, 20, 21, 23, 24, 25, 26, 27, 28, 29]",178.9120964,19240,133,4,28,9,1.0996636936037951
undo,5,24,1,0,0,22,"[0, 16, 22]",3,27,"[1, 2, 3, 4, 5, 6, 7, 8, 9, 10, 11, 12, 13, 14, 15, 17, 18, 19, 20, 21, 23, 24, 25, 26, 27, 28, 29]",192.3285043,19408,168,7,54,9,1.0217425143037777
undo,5,24,1,0,0,16,"[0, 16]",2,28,"[1, 2, 3, 4, 5, 6, 7, 8, 9, 10, 11, 12, 13, 14, 15, 17, 18, 19, 20, 21, 22, 23, 24, 25, 26, 27, 28, 29]",210.3562607,19791,383,13,110,9,1.0
undo,5,24,1,0,0,0,[0],1,29,"[1, 2, 3, 4, 5, 6, 7, 8, 9, 10, 11, 12, 13, 14, 15, 16, 17, 18, 19, 20, 21, 22, 23, 24, 25, 26, 27, 28, 29]",300,20073,282,4,76,10,0.0
undo,5,24,0,0,0,14,"[0, 14]",2,27,"[1, 2, 3, 4, 5, 6, 8, 9, 10, 11, 12, 13, 15, 16, 17, 18, 19, 20, 21, 22, 23, 24, 25, 26, 27, 28, 29]",278.0455016,21234,1161,4,54,10,1.0
undo,5,24,0,0,0,16,"[0, 14, 16]",3,25,"[2, 3, 4, 5, 6, 8, 9, 10, 11, 12, 13, 15, 17, 18, 19, 20, 21, 22, 23, 24, 25, 26, 27, 28, 29]",188.9949542,22588,1354,4,31,10,1.238291113657358
undo,5,24,0,0,0,22,"[0, 14, 16, 22]",4,20,"[2, 3, 4, 6, 8, 9, 10, 11, 13, 15, 17, 20, 21, 23, 24, 25, 26, 27, 28, 29]",170.9671978,24287,1699,2,14,10,1.2244494133788653
undo,5,24,0,0,0,8,"[0, 14, 16, 22, 8]",5,15,"[2, 3, 4, 6, 9, 10, 11, 13, 15, 23, 24, 26, 27, 28, 29]",157.5507899,26066,1779,2,10,10,1.2936570860700658
undo,5,24,0,0,0,15,"[0, 14, 16, 22, 8, 15]",6,11,"[3, 4, 6, 9, 10, 11, 23, 26, 27, 28, 29]",126.6638995,29719,3653,2,8,10,1.4490533667994079
undo,5,24,0,0,0,28,"[0, 14, 16, 22, 8, 15, 28]",7,5,"[4, 9, 11, 23, 27]",81.3869738,30865,1146,2,5,10,1.3279550596984244
undo,5,24,0,0,0,23,"[0, 14, 16, 22, 8, 15, 28, 23]",8,3,"[9, 11, 27]",62.36067621,31683,818,2,2,10,1.3488090026750466
undo,5,24,0,0,0,11,"[0, 14, 16, 22, 8, 15, 28, 23, 11]",9,2,"[9, 27]",35.43485217,32739,1056,2,0,10,1.31714136871331
undo,5,24,0,0,1,27,"[0, 14, 16, 22, 8, 15, 28, 23, 11, 27]",10,0,[],7.631974625,33952,1213,1,0,10,1.2800893038140084
undo,5,24,0,1,1,27,"[0, 14, 16, 22, 8, 15, 28, 23, 11, 27]",10,0,[],7.631974625,36375,2423,1,0,10,1.2800893038140084
undo,6,33,0,0,0,0,[0],1,23,"[1, 2, 5, 7, 8, 11, 12, 13, 14, 15, 16, 17, 18, 19, 20, 21, 23, 24, 25, 26, 27, 28, 29]",300,157,-1,5,108,9,0.0
undo,6,33,0,0,0,8,"[0, 8]",2,22,"[1, 2, 5, 7, 11, 12, 13, 14, 15, 16, 17, 18, 19, 20, 21, 23, 24, 25, 26, 27, 28, 29]",265.8679037,4533,4376,5,87,9,1.0
undo,6,33,0,0,0,21,"[0, 8, 21]",3,16,"[2, 5, 7, 11, 13, 14, 16, 17, 18, 19, 20, 24, 26, 27, 28, 29]",166.0430571,5816,1283,5,80,9,1.0670557763739492
undo,6,33,0,0,0,13,"[0, 8, 21, 13]",4,12,"[2, 7, 11, 14, 16, 17, 18, 19, 20, 24, 26, 29]",139.6422995,7046,1230,4,54,9,1.0555103820910288
undo,6,33,0,0,0,17,"[0, 8, 21, 13, 17]",5,10,"[2, 7, 11, 14, 16, 19, 20, 24, 26, 29]",116.838791,8377,1331,1,21,9,1.149323514071861
undo,6,33,0,0,0,29,"[0, 8, 21, 13, 17, 29]",6,6,"[7, 11, 14, 19, 20, 26]",65.36064029,9284,907,1,6,9,1.115497920827825
undo,6,33,0,0,0,26,"[0, 8, 21, 13, 17, 29, 26]",7,2,"[7, 14]",37.46798893,10218,934,1,1,9,1.1604085273328952
undo,6,33,0,0,0,14,"[0, 8, 21, 13, 17, 29, 26, 14]",8,1,[7],24.81887829,11317,1099,1,0,9,1.2684390541247845
undo,6,33,0,0,1,7,"[0, 8, 21, 13, 17, 29, 26, 14, 7]",9,0,[],9.95280954,12471,1154,1,0,9,1.3610790473445362
undo,6,33,1,0,0,14,"[0, 8, 21, 13, 17, 29, 26, 14]",8,1,[7],24.81887829,16474,4003,1,0,9,1.2684390541247845
undo,6,33,1,0,0,26,"[0, 8, 21, 13, 17, 29, 26]",7,2,"[7, 14]",37.46798893,16675,201,1,1,9,1.1604085273328952
undo,6,33,1,0,0,29,"[0, 8, 21, 13, 17, 29]",6,6,"[7, 11, 14, 19, 20, 26]",65.36064029,16874,199,1,6,9,1.115497920827825
undo,6,33,1,0,0,17,"[0, 8, 21, 13, 17]",5,10,"[2, 7, 11, 14, 16, 19, 20, 24, 26, 29]",116.838791,17108,234,1,21,9,1.149323514071861
undo,6,33,1,0,0,13,"[0, 8, 21, 13]",4,12,"[2, 7, 11, 14, 16, 17, 18, 19, 20, 24, 26, 29]",139.6422995,17324,216,4,54,9,1.0555103820910288
undo,6,33,1,0,0,21,"[0, 8, 21]",3,16,"[2, 5, 7, 11, 13, 14, 16, 17, 18, 19, 20, 24, 26, 27, 28, 29]",166.0430571,17808,484,5,80,9,1.0670557763739492
undo,6,33,1,0,0,8,"[0, 8]",2,22,"[1, 2, 5, 7, 11, 12, 13, 14, 15, 16, 17, 18, 19, 20, 21, 23, 24, 25, 26, 27, 28, 29]",265.8679037,18624,816,5,87,9,1.0
undo,6,33,1,0,0,0,[0],1,23,"[1, 2, 5, 7, 8, 11, 12, 13, 14, 15, 16, 17, 18, 19, 20, 21, 23, 24, 25, 26, 27, 28, 29]",300,18990,366,5,108,9,0.0
undo,6,33,0,0,0,21,"[0, 21]",2,17,"[2, 5, 7, 8, 11, 13, 14, 16, 17, 18, 19, 20, 24, 26, 27, 28, 29]",174.4611614,20051,1061,21,129,8,1.0
undo,6,33,0,0,0,13,"[0, 21, 13]",3,15,"[2, 5, 7, 8, 11, 14, 16, 17, 18, 19, 20, 24, 26, 28, 29]",148.0604038,21334,1283,17,72,8,1.0001005298764474
undo,6,33,0,0,0,19,"[0, 21, 13, 19]",4,11,"[7, 11, 14, 16, 17, 18, 20, 24, 26, 28, 29]",122.5653063,22283,949,10,27,8,1.0588446738393702
undo,6,33,0,0,0,7,"[0, 21, 13, 19, 7]",5,7,"[14, 16, 17, 18, 24, 26, 29]",76.94732734,24562,2279,3,5,8,1.0466997412739754
undo,6,33,0,0,0,14,"[0, 21, 13, 19, 7, 14]",6,3,"[24, 26, 29]",62.0812586,25671,1109,2,1,8,1.096679239566485
undo,6,33,0,0,0,26,"[0, 21, 13, 19, 7, 14, 26]",7,1,[29],49.43214796,26506,835,1,0,8,1.1075261679429118
undo,6,33,0,0,1,29,"[0, 21, 13, 19, 7, 14, 26, 29]",8,0,[],21.53949659,27870,1364,1,0,8,1.3238278222819673
undo,6,33,1,0,0,26,"[0, 21, 13, 19, 7, 14, 26]",7,1,[29],49.43214796,28891,1021,1,0,8,1.1075261679429118
undo,6,33,1,0,0,14,"[0, 21, 13, 19, 7, 14]",6,3,"[24, 26, 29]",62.0812586,29075,184,2,1,8,1.096679239566485
undo,6,33,1,0,0,7,"[0, 21, 13, 19, 7]",5,7,"[14, 16, 17, 18, 24, 26, 29]",76.94732734,29426,351,3,5,8,1.0466997412739754
undo,6,33,1,0,0,19,"[0, 21, 13, 19]",4,11,"[7, 11, 14, 16, 17, 18, 20, 24, 26, 28, 29]",122.5653063,29676,250,10,27,8,1.0588446738393702
undo,6,33,1,0,0,13,"[0, 21, 13]",3,15,"[2, 5, 7, 8, 11, 14, 16, 17, 18, 19, 20, 24, 26, 28, 29]",148.0604038,30091,415,17,72,8,1.0001005298764474
undo,6,33,1,0,0,21,"[0, 21]",2,17,"[2, 5, 7, 8, 11, 13, 14, 16, 17, 18, 19, 20, 24, 26, 27, 28, 29]",174.4611614,30476,385,21,129,8,1.0
undo,6,33,1,0,0,0,[0],1,23,"[1, 2, 5, 7, 8, 11, 12, 13, 14, 15, 16, 17, 18, 19, 20, 21, 23, 24, 25, 26, 27, 28, 29]",300,30843,367,5,108,9,0.0
undo,6,33,0,0,0,8,"[0, 8]",2,22,"[1, 2, 5, 7, 11, 12, 13, 14, 15, 16, 17, 18, 19, 20, 21, 23, 24, 25, 26, 27, 28, 29]",265.8679037,32936,2093,5,87,9,1.0
undo,6,33,0,0,0,21,"[0, 8, 21]",3,16,"[2, 5, 7, 11, 13, 14, 16, 17, 18, 19, 20, 24, 26, 27, 28, 29]",166.0430571,34046,1110,5,80,9,1.0670557763739492
undo,6,33,0,0,0,13,"[0, 8, 21, 13]",4,12,"[2, 7, 11, 14, 16, 17, 18, 19, 20, 24, 26, 29]",139.6422995,35255,1209,4,54,9,1.0555103820910288
undo,6,33,0,0,0,17,"[0, 8, 21, 13, 17]",5,10,"[2, 7, 11, 14, 16, 19, 20, 24, 26, 29]",116.838791,36308,1053,1,21,9,1.149323514071861
undo,6,33,0,0,0,29,"[0, 8, 21, 13, 17, 29]",6,6,"[7, 11, 14, 19, 20, 26]",65.36064029,38381,2073,1,6,9,1.115497920827825
undo,6,33,0,0,0,26,"[0, 8, 21, 13, 17, 29, 26]",7,2,"[7, 14]",37.46798893,39153,772,1,1,9,1.1604085273328952
undo,6,33,0,0,0,14,"[0, 8, 21, 13, 17, 29, 26, 14]",8,1,[7],24.81887829,40137,984,1,0,9,1.2684390541247845
undo,6,33,0,0,1,7,"[0, 8, 21, 13, 17, 29, 26, 14, 7]",9,0,[],9.95280954,42904,2767,1,0,9,1.3610790473445362
undo,6,33,0,1,1,7,"[0, 8, 21, 13, 17, 29, 26, 14, 7]",9,0,[],9.95280954,44609,1705,1,0,9,1.3610790473445362
undo,7,32,0,0,0,0,[0],1,29,"[1, 2, 3, 4, 5, 6, 7, 8, 9, 10, 11, 12, 13, 14, 15, 16, 17, 18, 19, 20, 21, 22, 23, 24, 25, 26, 27, 28, 29]",300,139,-1,17,359,10,0.0
undo,7,32,0,0,0,19,"[0, 19]",2,28,"[1, 2, 3, 4, 5, 6, 7, 8, 9, 10, 11, 12, 13, 14, 15, 16, 17, 18, 20, 21, 22, 23, 24, 25, 26, 27, 28, 29]",283.5075775,5135,4996,16,294,10,1.0
undo,7,32,0,0,0,13,"[0, 19, 13]",3,24,"[2, 3, 4, 5, 6, 8, 9, 10, 11, 12, 14, 15, 16, 17, 18, 20, 21, 22, 23, 24, 25, 26, 27, 28]",260.3127505,6431,1296,14,227,10,1.0172874229878615
undo,7,32,0,0,0,15,"[0, 19, 13, 15]",4,18,"[2, 3, 5, 8, 9, 10, 11, 12, 16, 17, 20, 22, 23, 24, 25, 26, 27, 28]",177.4393531,7435,1004,9,116,10,1.435447391509833
undo,7,32,0,0,0,28,"[0, 19, 13, 15, 28]",5,17,"[2, 3, 5, 8, 9, 10, 11, 12, 16, 17, 20, 22, 23, 24, 25, 26, 27]",166.0375988,8151,716,9,70,10,1.3843701324937985
undo,7,32,0,0,0,12,"[0, 19, 13, 15, 28, 12]",6,14,"[2, 3, 5, 8, 9, 10, 11, 16, 17, 20, 22, 24, 26, 27]",147.0639329,8988,837,6,35,10,1.358372254952329
undo,7,32,0,0,0,16,"[0, 19, 13, 15, 28, 12, 16]",7,13,"[2, 3, 5, 8, 9, 10, 11, 17, 20, 22, 24, 26, 27]",131.411457,9973,985,5,15,10,1.4356932930709845
undo,7,32,0,0,0,22,"[0, 19, 13, 15, 28, 12, 16, 22]",8,6,"[2, 8, 9, 17, 20, 27]",97.57360838,13550,3577,3,5,10,1.4335226411545752
undo,7,32,0,0,0,9,"[0, 19, 13, 15, 28, 12, 16, 22, 9]",9,3,"[2, 8, 20]",75.37000507,14887,1337,3,0,10,1.4837166378374758
undo,7,32,0,0,1,8,"[0, 19, 13, 15, 28, 12, 16, 22, 9, 8]",10,0,[],30.24794838,19557,4670,1,0,10,1.3767698817641267
undo,7,32,1,0,0,9,"[0, 19, 13, 15, 28, 12, 16, 22, 9]",9,3,"[2, 8, 20]",75.37000507,21591,2034,3,0,10,1.4837166378374758
undo,7,32,1,0,0,22,"[0, 19, 13, 15, 28, 12, 16, 22]",8,6,"[2, 8, 9, 17, 20, 27]",97.57360838,21776,185,3,5,10,1.4335226411545752
undo,7,32,1,0,0,16,"[0, 19, 13, 15, 28, 12, 16]",7,13,"[2, 3, 5, 8, 9, 10, 11, 17, 20, 22, 24, 26, 27]",131.411457,21908,132,5,15,10,1.4356932930709845
undo,7,32,1,0,0,12,"[0, 19, 13, 15, 28, 12]",6,14,"[2, 3, 5, 8, 9, 10, 11, 16, 17, 20, 22, 24, 26, 27]",147.0639329,22041,133,6,35,10,1.358372254952329
undo,7,32,1,0,0,28,"[0, 19, 13, 15, 28]",5,17,"[2, 3, 5, 8, 9, 10, 11, 12, 16, 17, 20, 22, 23, 24, 25, 26, 27]",166.0375988,22192,151,9,70,10,1.3843701324937985
undo,7,32,1,0,0,15,"[0, 19, 13, 15]",4,18,"[2, 3, 5, 8, 9, 10, 11, 12, 16, 17, 20, 22, 23, 24, 25, 26, 27, 28]",177.4393531,22291,99,9,116,10,1.435447391509833
undo,7,32,1,0,0,13,"[0, 19, 13]",3,24,"[2, 3, 4, 5, 6, 8, 9, 10, 11, 12, 14, 15, 16, 17, 18, 20, 21, 22, 23, 24, 25, 26, 27, 28]",260.3127505,22526,235,14,227,10,1.0172874229878615
undo,7,32,1,0,0,19,"[0, 19]",2,28,"[1, 2, 3, 4, 5, 6, 7, 8, 9, 10, 11, 12, 13, 14, 15, 16, 17, 18, 20, 21, 22, 23, 24, 25, 26, 27, 28, 29]",283.5075775,22908,382,16,294,10,1.0
undo,7,32,1,0,0,0,[0],1,29,"[1, 2, 3, 4, 5, 6, 7, 8, 9, 10, 11, 12, 13, 14, 15, 16, 17, 18, 19, 20, 21, 22, 23, 24, 25, 26, 27, 28, 29]",300,23308,400,17,359,10,0.0
undo,7,32,0,0,0,15,"[0, 15]",2,24,"[2, 3, 4, 5, 6, 7, 8, 9, 10, 11, 12, 13, 14, 16, 17, 19, 20, 22, 23, 24, 25, 26, 27, 28]",214.6185032,26285,2977,11,153,9,1.0
undo,7,32,0,0,0,28,"[0, 15, 28]",3,21,"[2, 3, 5, 7, 8, 9, 10, 11, 12, 13, 14, 16, 17, 19, 20, 22, 23, 24, 25, 26, 27]",203.2167489,27122,837,11,119,9,1.000160051986942
undo,7,32,0,0,0,12,"[0, 15, 28, 12]",4,19,"[2, 3, 5, 7, 8, 9, 10, 11, 13, 16, 17, 19, 20, 22, 23, 24, 25, 26, 27]",184.243083,27885,763,8,71,9,1.0281484763748023
undo,7,32,0,0,0,16,"[0, 15, 28, 12, 16]",5,17,"[2, 3, 5, 7, 8, 9, 10, 11, 13, 17, 19, 20, 22, 23, 24, 26, 27]",168.5906071,28686,801,6,38,9,1.1190771370096
undo,7,32,0,0,0,22,"[0, 15, 28, 12, 16, 22]",6,10,"[2, 3, 5, 8, 9, 10, 11, 17, 20, 27]",134.7527585,30753,2067,4,16,9,1.1702311155319893
undo,7,32,0,0,0,9,"[0, 15, 28, 12, 16, 22, 9]",7,6,"[2, 8, 10, 17, 20, 27]",112.5491552,31938,1185,2,4,9,1.2381424719932013
undo,7,32,0,0,0,8,"[0, 15, 28, 12, 16, 22, 9, 8]",8,1,[20],67.42709849,32920,982,1,0,9,1.187013645273504
undo,7,32,0,0,1,20,"[0, 15, 28, 12, 16, 22, 9, 8, 20]",9,0,[],17.09818036,34501,1581,1,0,9,1.3986201165175596
undo,7,32,1,0,0,8,"[0, 15, 28, 12, 16, 22, 9, 8]",8,1,[20],67.42709849,35242,741,1,0,9,1.187013645273504
undo,7,32,1,0,0,9,"[0, 15, 28, 12, 16, 22, 9]",7,6,"[2, 8, 10, 17, 20, 27]",112.5491552,35409,167,2,4,9,1.2381424719932013
undo,7,32,1,0,0,22,"[0, 15, 28, 12, 16, 22]",6,10,"[2, 3, 5, 8, 9, 10, 11, 17, 20, 27]",134.7527585,35577,168,4,16,9,1.1702311155319893
undo,7,32,1,0,0,16,"[0, 15, 28, 12, 16]",5,17,"[2, 3, 5, 7, 8, 9, 10, 11, 13, 17, 19, 20, 22, 23, 24, 26, 27]",168.5906071,35727,150,6,38,9,1.1190771370096
undo,7,32,1,0,0,12,"[0, 15, 28, 12]",4,19,"[2, 3, 5, 7, 8, 9, 10, 11, 13, 16, 17, 19, 20, 22, 23, 24, 25, 26, 27]",184.243083,35893,166,8,71,9,1.0281484763748023
undo,7,32,1,0,0,28,"[0, 15, 28]",3,21,"[2, 3, 5, 7, 8, 9, 10, 11, 12, 13, 14, 16, 17, 19, 20, 22, 23, 24, 25, 26, 27]",203.2167489,36125,232,11,119,9,1.000160051986942
undo,7,32,1,0,0,15,"[0, 15]",2,24,"[2, 3, 4, 5, 6, 7, 8, 9, 10, 11, 12, 13, 14, 16, 17, 19, 20, 22, 23, 24, 25, 26, 27, 28]",214.6185032,36527,402,11,153,9,1.0
undo,7,32,1,0,0,0,[0],1,29,"[1, 2, 3, 4, 5, 6, 7, 8, 9, 10, 11, 12, 13, 14, 15, 16, 17, 18, 19, 20, 21, 22, 23, 24, 25, 26, 27, 28, 29]",300,36926,399,17,359,10,0.0
undo,7,32,0,0,0,19,"[0, 19]",2,28,"[1, 2, 3, 4, 5, 6, 7, 8, 9, 10, 11, 12, 13, 14, 15, 16, 17, 18, 20, 21, 22, 23, 24, 25, 26, 27, 28, 29]",283.5075775,38336,1410,16,294,10,1.0
undo,7,32,0,0,0,13,"[0, 19, 13]",3,24,"[2, 3, 4, 5, 6, 8, 9, 10, 11, 12, 14, 15, 16, 17, 18, 20, 21, 22, 23, 24, 25, 26, 27, 28]",260.3127505,39240,904,14,227,10,1.0172874229878615
undo,7,32,0,0,0,15,"[0, 19, 13, 15]",4,18,"[2, 3, 5, 8, 9, 10, 11, 12, 16, 17, 20, 22, 23, 24, 25, 26, 27, 28]",177.4393531,40269,1029,9,116,10,1.435447391509833
undo,7,32,0,0,0,28,"[0, 19, 13, 15, 28]",5,17,"[2, 3, 5, 8, 9, 10, 11, 12, 16, 17, 20, 22, 23, 24, 25, 26, 27]",166.0375988,40986,717,9,70,10,1.3843701324937985
undo,7,32,0,0,0,12,"[0, 19, 13, 15, 28, 12]",6,14,"[2, 3, 5, 8, 9, 10, 11, 16, 17, 20, 22, 24, 26, 27]",147.0639329,41887,901,6,35,10,1.358372254952329
undo,7,32,0,0,0,16,"[0, 19, 13, 15, 28, 12, 16]",7,13,"[2, 3, 5, 8, 9, 10, 11, 17, 20, 22, 24, 26, 27]",131.411457,42672,785,5,15,10,1.4356932930709845
undo,7,32,0,0,0,22,"[0, 19, 13, 15, 28, 12, 16, 22]",8,6,"[2, 8, 9, 17, 20, 27]",97.57360838,43682,1010,3,5,10,1.4335226411545752
undo,7,32,0,0,0,9,"[0, 19, 13, 15, 28, 12, 16, 22, 9]",9,3,"[2, 8, 20]",75.37000507,44538,856,3,0,10,1.4837166378374758
undo,7,32,0,0,1,8,"[0, 19, 13, 15, 28, 12, 16, 22, 9, 8]",10,0,[],30.24794838,45719,1181,1,0,10,1.3767698817641267
undo,7,32,0,1,1,8,"[0, 19, 13, 15, 28, 12, 16, 22, 9, 8]",10,0,[],30.24794838,48478,2759,1,0,10,1.3767698817641267
undo,8,41,0,0,0,0,[0],1,29,"[1, 2, 3, 4, 5, 6, 7, 8, 9, 10, 11, 12, 13, 14, 15, 16, 17, 18, 19, 20, 21, 22, 23, 24, 25, 26, 27, 28, 29]",300,172,-1,1,143,10,0.0
undo,8,41,0,0,0,13,"[0, 13]",2,23,"[1, 2, 3, 5, 6, 7, 9, 10, 11, 12, 14, 15, 17, 18, 19, 20, 21, 22, 24, 25, 26, 27, 28]",258.2747079,11643,11471,1,55,10,1.0
undo,8,41,0,0,0,28,"[0, 13, 28]",3,22,"[1, 2, 3, 5, 6, 7, 9, 10, 11, 12, 14, 15, 17, 18, 19, 20, 21, 22, 24, 25, 26, 27]",223.7928286,12710,1067,1,39,10,1.895724242592676
undo,8,41,0,0,0,5,"[0, 13, 28, 5]",4,19,"[1, 2, 3, 6, 9, 10, 11, 12, 14, 15, 17, 18, 19, 20, 21, 22, 24, 25, 27]",210.1913581,13475,765,1,34,10,2.861541269398273
undo,8,41,0,0,0,22,"[0, 13, 28, 5, 22]",5,12,"[2, 3, 6, 9, 10, 11, 12, 17, 18, 20, 21, 25]",155.4464953,15010,1535,11,12,9,2.096079268852861
undo,8,41,0,0,0,3,"[0, 13, 28, 5, 22, 3]",6,8,"[2, 9, 10, 12, 17, 18, 20, 21]",125.4798472,16092,1082,7,5,9,4.404491319005463
undo,8,41,0,0,0,21,"[0, 13, 28, 5, 22, 3, 21]",7,4,"[2, 9, 12, 17]",93.33952984,16890,798,5,1,9,4.228139797553632
undo,8,41,0,0,0,9,"[0, 13, 28, 5, 22, 3, 21, 9]",8,2,"[2, 17]",43.97354965,17894,1004,2,0,9,3.111188754077749
undo,8,41,0,0,1,2,"[0, 13, 28, 5, 22, 3, 21, 9, 2]",9,0,[],31.89050368,18705,811,1,0,9,2.963304814480547
undo,8,41,1,0,0,9,"[0, 13, 28, 5, 22, 3, 21, 9]",8,2,"[2, 17]",43.97354965,24251,5546,2,0,9,3.111188754077749
undo,8,41,1,0,0,21,"[0, 13, 28, 5, 22, 3, 21]",7,4,"[2, 9, 12, 17]",93.33952984,24416,165,5,1,9,4.228139797553632
undo,8,41,1,0,0,3,"[0, 13, 28, 5, 22, 3]",6,8,"[2, 9, 10, 12, 17, 18, 20, 21]",125.4798472,24550,134,7,5,9,4.404491319005463
undo,8,41,1,0,0,22,"[0, 13, 28, 5, 22]",5,12,"[2, 3, 6, 9, 10, 11, 12, 17, 18, 20, 21, 25]",155.4464953,24717,167,11,12,9,2.096079268852861
undo,8,41,1,0,0,5,"[0, 13, 28, 5]",4,19,"[1, 2, 3, 6, 9, 10, 11, 12, 14, 15, 17, 18, 19, 20, 21, 22, 24, 25, 27]",210.1913581,24868,151,1,34,10,2.861541269398273
undo,8,41,1,0,0,28,"[0, 13, 28]",3,22,"[1, 2, 3, 5, 6, 7, 9, 10, 11, 12, 14, 15, 17, 18, 19, 20, 21, 22, 24, 25, 26, 27]",223.7928286,25167,299,1,39,10,1.895724242592676
undo,8,41,1,0,0,13,"[0, 13]",2,23,"[1, 2, 3, 5, 6, 7, 9, 10, 11, 12, 14, 15, 17, 18, 19, 20, 21, 22, 24, 25, 26, 27, 28]",258.2747079,25433,266,1,55,10,1.0
undo,8,41,1,0,0,0,[0],1,29,"[1, 2, 3, 4, 5, 6, 7, 8, 9, 10, 11, 12, 13, 14, 15, 16, 17, 18, 19, 20, 21, 22, 23, 24, 25, 26, 27, 28, 29]",300,25800,367,1,143,10,0.0
undo,8,41,0,0,0,28,"[0, 28]",2,27,"[1, 2, 3, 5, 6, 7, 8, 9, 10, 11, 12, 13, 14, 15, 16, 17, 18, 19, 20, 21, 22, 23, 24, 25, 26, 27, 29]",259.8004975,30127,4327,37,249,9,1.0
undo,8,41,0,0,0,5,"[0, 28, 5]",3,26,"[1, 2, 3, 6, 7, 8, 9, 10, 11, 12, 13, 14, 15, 16, 17, 18, 19, 20, 21, 22, 23, 24, 25, 26, 27, 29]",246.199027,31145,1018,30,182,9,1.714241539747437
undo,8,41,0,0,0,3,"[0, 28, 5, 3]",4,25,"[1, 2, 6, 7, 8, 9, 10, 11, 12, 13, 14, 15, 16, 17, 18, 19, 20, 21, 22, 23, 24, 25, 26, 27, 29]",211.3708775,32094,949,20,93,9,2.2367972660995847
undo,8,41,0,0,0,21,"[0, 28, 5, 3, 21]",5,19,"[1, 2, 6, 9, 10, 11, 12, 13, 14, 15, 17, 18, 19, 20, 22, 24, 25, 26, 27]",179.2305601,32994,900,12,46,9,2.470864770481327
undo,8,41,0,0,0,9,"[0, 28, 5, 3, 21, 9]",6,13,"[1, 2, 10, 12, 13, 14, 15, 17, 19, 22, 24, 25, 26]",129.8645799,33777,783,3,17,9,2.0674559404382
undo,8,41,0,0,0,2,"[0, 28, 5, 3, 21, 9, 2]",7,9,"[1, 10, 12, 14, 15, 17, 19, 22, 24]",117.7815339,34629,852,2,7,9,2.0139863201149533
undo,8,41,0,0,0,17,"[0, 28, 5, 3, 21, 9, 2, 17]",8,1,[10],85.22389276,35895,1266,1,0,9,3.388293326704014
undo,8,41,0,0,1,10,"[0, 28, 5, 3, 21, 9, 2, 17, 10]",9,0,[],35.97960375,38078,2183,1,0,9,3.1208433501016275
undo,8,41,1,0,0,17,"[0, 28, 5, 3, 21, 9, 2, 17]",8,1,[10],85.22389276,43085,5007,1,0,9,3.388293326704014
undo,8,41,1,0,0,2,"[0, 28, 5, 3, 21, 9, 2]",7,9,"[1, 10, 12, 14, 15, 17, 19, 22, 24]",117.7815339,43252,167,2,7,9,2.0139863201149533
undo,8,41,1,0,0,9,"[0, 28, 5, 3, 21, 9]",6,13,"[1, 2, 10, 12, 13, 14, 15, 17, 19, 22, 24, 25, 26]",129.8645799,43536,284,3,17,9,2.0674559404382
undo,8,41,1,0,0,21,"[0, 28, 5, 3, 21]",5,19,"[1, 2, 6, 9, 10, 11, 12, 13, 14, 15, 17, 18, 19, 20, 22, 24, 25, 26, 27]",179.2305601,43703,167,12,46,9,2.470864770481327
undo,8,41,1,0,0,3,"[0, 28, 5, 3]",4,25,"[1, 2, 6, 7, 8, 9, 10, 11, 12, 13, 14, 15, 16, 17, 18, 19, 20, 21, 22, 23, 24, 25, 26, 27, 29]",211.3708775,44019,316,20,93,9,2.2367972660995847
undo,8,41,1,0,0,5,"[0, 28, 5]",3,26,"[1, 2, 3, 6, 7, 8, 9, 10, 11, 12, 13, 14, 15, 16, 17, 18, 19, 20, 21, 22, 23, 24, 25, 26, 27, 29]",246.199027,45869,1850,30,182,9,1.714241539747437
undo,8,41,0,0,0,22,"[0, 28, 5, 22]",4,22,"[1, 2, 3, 6, 7, 8, 9, 10, 11, 12, 13, 14, 16, 17, 18, 19, 20, 21, 23, 24, 25, 27]",191.4541642,47763,1894,7,30,9,1.5739547554580093
undo,8,41,0,0,0,3,"[0, 28, 5, 22, 3]",5,14,"[2, 6, 9, 10, 12, 13, 14, 17, 18, 19, 20, 21, 25, 27]",161.4875161,48711,948,7,17,9,3.49573973620446
undo,8,41,0,0,0,21,"[0, 28, 5, 22, 3, 21]",6,8,"[2, 9, 10, 12, 13, 14, 17, 25]",129.3471987,49399,688,7,6,9,3.491446139563656
undo,8,41,0,0,0,9,"[0, 28, 5, 22, 3, 21, 9]",7,5,"[2, 10, 12, 14, 17]",79.98121856,50380,981,3,3,9,2.6736298439721664
undo,8,41,0,0,0,2,"[0, 28, 5, 22, 3, 21, 9, 2]",8,2,"[14, 17]",67.89817258,51114,734,2,0,9,2.565326749271553
undo,8,41,0,0,1,17,"[0, 28, 5, 22, 3, 21, 9, 2, 17]",9,0,[],35.34053139,52264,1150,1,0,9,4.175249858394321
undo,8,41,1,0,0,2,"[0, 28, 5, 22, 3, 21, 9, 2]",8,2,"[14, 17]",67.89817258,56004,3740,2,0,9,2.565326749271553
undo,8,41,1,0,0,9,"[0, 28, 5, 22, 3, 21, 9]",7,5,"[2, 10, 12, 14, 17]",79.98121856,56252,248,3,3,9,2.6736298439721664
undo,8,41,1,0,0,21,"[0, 28, 5, 22, 3, 21]",6,8,"[2, 9, 10, 12, 13, 14, 17, 25]",129.3471987,56638,386,7,6,9,3.491446139563656
undo,8,41,1,0,0,3,"[0, 28, 5, 22, 3]",5,14,"[2, 6, 9, 10, 12, 13, 14, 17, 18, 19, 20, 21, 25, 27]",161.4875161,56804,166,7,17,9,3.49573973620446
undo,8,41,1,0,0,22,"[0, 28, 5, 22]",4,22,"[1, 2, 3, 6, 7, 8, 9, 10, 11, 12, 13, 14, 16, 17, 18, 19, 20, 21, 23, 24, 25, 27]",191.4541642,56954,150,7,30,9,1.5739547554580093
undo,8,41,1,0,0,5,"[0, 28, 5]",3,26,"[1, 2, 3, 6, 7, 8, 9, 10, 11, 12, 13, 14, 15, 16, 17, 18, 19, 20, 21, 22, 23, 24, 25, 26, 27, 29]",246.199027,57120,166,30,182,9,1.714241539747437
undo,8,41,1,0,0,28,"[0, 28]",2,27,"[1, 2, 3, 5, 6, 7, 8, 9, 10, 11, 12, 13, 14, 15, 16, 17, 18, 19, 20, 21, 22, 23, 24, 25, 26, 27, 29]",259.8004975,57370,250,37,249,9,1.0
undo,8,41,1,0,0,0,[0],1,29,"[1, 2, 3, 4, 5, 6, 7, 8, 9, 10, 11, 12, 13, 14, 15, 16, 17, 18, 19, 20, 21, 22, 23, 24, 25, 26, 27, 28, 29]",300,57687,317,1,143,10,0.0
undo,8,41,0,0,0,3,"[0, 3]",2,28,"[1, 2, 4, 5, 6, 7, 8, 9, 10, 11, 12, 13, 14, 15, 16, 17, 18, 19, 20, 21, 22, 23, 24, 25, 26, 27, 28, 29]",260.3767745,60830,3143,2,145,9,1.0
undo,8,41,0,0,0,22,"[0, 3, 22]",3,26,"[1, 2, 5, 6, 7, 8, 9, 10, 11, 12, 13, 14, 15, 16, 17, 18, 19, 20, 21, 23, 24, 25, 26, 27, 28, 29]",230.4101264,61884,1054,33,160,8,1.0090788990400108
undo,8,41,0,0,0,6,"[0, 3, 22, 6]",4,7,"[7, 8, 11, 12, 16, 23, 25]",124.6084251,63064,1180,5,7,7,1.0248234206735427
undo,8,41,0,0,0,11,"[0, 3, 22, 6, 11]",5,3,"[8, 16, 23]",79.48636836,64098,1034,4,0,7,1.0255449664653686
undo,8,41,0,0,0,16,"[0, 3, 22, 6, 11, 16]",6,1,[8],48.37366999,64803,705,1,0,7,1.055856395540958
undo,8,41,0,0,1,8,"[0, 3, 22, 6, 11, 16, 8]",7,0,[],6.936971277,65916,1113,1,0,7,1.203414883674518
undo,8,41,1,0,0,16,"[0, 3, 22, 6, 11, 16]",6,1,[8],48.37366999,66937,1021,1,0,7,1.055856395540958
undo,8,41,1,0,0,11,"[0, 3, 22, 6, 11]",5,3,"[8, 16, 23]",79.48636836,67122,185,4,0,7,1.0255449664653686
undo,8,41,1,0,0,6,"[0, 3, 22, 6]",4,7,"[7, 8, 11, 12, 16, 23, 25]",124.6084251,67439,317,5,7,7,1.0248234206735427
undo,8,41,1,0,0,22,"[0, 3, 22]",3,26,"[1, 2, 5, 6, 7, 8, 9, 10, 11, 12, 13, 14, 15, 16, 17, 18, 19, 20, 21, 23, 24, 25, 26, 27, 28, 29]",230.4101264,67688,249,33,160,8,1.0090788990400108
undo,8,41,1,0,0,3,"[0, 3]",2,28,"[1, 2, 4, 5, 6, 7, 8, 9, 10, 11, 12, 13, 14, 15, 16, 17, 18, 19, 20, 21, 22, 23, 24, 25, 26, 27, 28, 29]",260.3767745,67855,167,2,145,9,1.0
undo,8,41,1,0,0,0,[0],1,29,"[1, 2, 3, 4, 5, 6, 7, 8, 9, 10, 11, 12, 13, 14, 15, 16, 17, 18, 19, 20, 21, 22, 23, 24, 25, 26, 27, 28, 29]",300,68204,349,1,143,10,0.0
undo,8,41,0,0,0,13,"[0, 13]",2,23,"[1, 2, 3, 5, 6, 7, 9, 10, 11, 12, 14, 15, 17, 18, 19, 20, 21, 22, 24, 25, 26, 27, 28]",258.2747079,69768,1564,1,55,10,1.0
undo,8,41,0,0,0,28,"[0, 13, 28]",3,22,"[1, 2, 3, 5, 6, 7, 9, 10, 11, 12, 14, 15, 17, 18, 19, 20, 21, 22, 24, 25, 26, 27]",223.7928286,70599,831,1,39,10,1.895724242592676
undo,8,41,0,0,0,5,"[0, 13, 28, 5]",4,19,"[1, 2, 3, 6, 9, 10, 11, 12, 14, 15, 17, 18, 19, 20, 21, 22, 24, 25, 27]",210.1913581,71609,1010,1,34,10,2.861541269398273
undo,8,41,0,0,0,22,"[0, 13, 28, 5, 22]",5,12,"[2, 3, 6, 9, 10, 11, 12, 17, 18, 20, 21, 25]",155.4464953,72864,1255,11,12,9,2.096079268852861
undo,8,41,0,0,0,3,"[0, 13, 28, 5, 22, 3]",6,8,"[2, 9, 10, 12, 17, 18, 20, 21]",125.4798472,73800,936,7,5,9,4.404491319005463
undo,8,41,0,0,0,21,"[0, 13, 28, 5, 22, 3, 21]",7,4,"[2, 9, 12, 17]",93.33952984,74698,898,5,1,9,4.228139797553632
undo,8,41,0,0,0,9,"[0, 13, 28, 5, 22, 3, 21, 9]",8,2,"[2, 17]",43.97354965,75933,1235,2,0,9,3.111188754077749
undo,8,41,0,0,1,2,"[0, 13, 28, 5, 22, 3, 21, 9, 2]",9,0,[],31.89050368,76917,984,1,0,9,2.963304814480547
undo,8,41,0,1,1,2,"[0, 13, 28, 5, 22, 3, 21, 9, 2]",9,0,[],31.89050368,84107,7190,1,0,9,2.963304814480547
undo,9,18,0,0,0,0,[0],1,28,"[1, 2, 3, 4, 5, 6, 7, 8, 9, 10, 11, 12, 13, 14, 16, 17, 18, 19, 20, 21, 22, 23, 24, 25, 26, 27, 28, 29]",300,167,-1,3,136,10,0.0
undo,9,18,0,0,0,28,"[0, 28]",2,16,"[1, 3, 5, 7, 8, 9, 12, 13, 14, 16, 20, 23, 24, 25, 26, 27]",236.4311397,6948,6781,2,19,10,1.0
undo,9,18,0,0,0,7,"[0, 28, 7]",3,15,"[1, 3, 5, 8, 9, 12, 13, 14, 16, 20, 23, 24, 25, 26, 27]",214.4084242,8047,1099,2,17,10,1.4345180696367563
undo,9,18,0,0,0,25,"[0, 28, 7, 25]",4,13,"[1, 3, 5, 8, 9, 12, 13, 14, 16, 20, 23, 26, 27]",186.6055466,8897,850,2,15,10,1.8896451241781882
undo,9,18,0,0,0,8,"[0, 28, 7, 25, 8]",5,10,"[3, 5, 9, 12, 13, 14, 16, 23, 26, 27]",149.551532,9769,872,2,10,10,1.590467437592877
undo,9,18,0,0,0,13,"[0, 28, 7, 25, 8, 13]",6,9,"[3, 5, 9, 12, 14, 16, 23, 26, 27]",128.4565089,11461,1692,2,5,10,1.8248274983549797
undo,9,18,0,0,0,14,"[0, 28, 7, 25, 8, 13, 14]",7,7,"[3, 5, 9, 12, 23, 26, 27]",109.4828429,12430,969,2,3,10,1.6993534956692746
undo,9,18,0,0,0,3,"[0, 28, 7, 25, 8, 13, 14, 3]",8,3,"[5, 12, 27]",79.39962499,13298,868,2,1,10,1.802637206541468
undo,9,18,0,0,0,5,"[0, 28, 7, 25, 8, 13, 14, 3, 5]",9,1,[12],21.21887216,14265,967,1,0,10,1.559774889743805
undo,9,18,0,0,1,12,"[0, 28, 7, 25, 8, 13, 14, 3, 5, 12]",10,0,[],9.817117911,15413,1148,1,0,10,1.563993037384447
undo,9,18,0,1,1,12,"[0, 28, 7, 25, 8, 13, 14, 3, 5, 12]",10,0,[],9.817117911,22873,7460,1,0,10,1.563993037384447
undo,10,19,0,0,0,0,[0],1,29,"[1, 2, 3, 4, 5, 6, 7, 8, 9, 10, 11, 12, 13, 14, 15, 16, 17, 18, 19, 20, 21, 22, 23, 24, 25, 26, 27, 28, 29]",300,141,-1,12,149,8,0.0
undo,10,19,0,0,0,29,"[0, 29]",2,28,"[1, 2, 3, 4, 5, 6, 7, 8, 9, 10, 11, 12, 13, 14, 15, 16, 17, 18, 19, 20, 21, 22, 23, 24, 25, 26, 27, 28]",265.0715016,7755,7614,12,120,8,1.0
undo,10,19,0,0,0,9,"[0, 29, 9]",3,17,"[1, 4, 5, 6, 7, 10, 11, 12, 13, 14, 19, 20, 21, 22, 24, 27, 28]",181.7108394,8765,1010,11,65,8,1.0375842971861238
undo,10,19,0,0,0,6,"[0, 29, 9, 6]",4,12,"[4, 7, 10, 11, 13, 14, 20, 21, 22, 24, 27, 28]",140.2741407,9896,1131,11,34,8,1.0389786364356892
undo,10,19,0,0,0,22,"[0, 29, 9, 6, 22]",5,7,"[4, 7, 10, 11, 14, 20, 24]",79.27414071,11034,1138,2,4,8,1.0360889604738772
undo,10,19,0,0,0,20,"[0, 29, 9, 6, 22, 20]",6,4,"[10, 11, 14, 24]",66.12119427,11890,856,2,2,8,1.0344974630090689
undo,10,19,0,0,0,11,"[0, 29, 9, 6, 22, 20, 11]",7,1,[14],18.31952066,13138,1248,1,0,8,1.284713058456575
undo,10,19,0,0,1,14,"[0, 29, 9, 6, 22, 20, 11, 14]",8,0,[],7.502866836,14019,881,1,0,8,1.3986915272533427
undo,10,19,1,0,0,11,"[0, 29, 9, 6, 22, 20, 11]",7,1,[14],18.31952066,15690,1671,1,0,8,1.284713058456575
undo,10,19,1,0,0,20,"[0, 29, 9, 6, 22, 20]",6,4,"[10, 11, 14, 24]",66.12119427,16025,335,2,2,8,1.0344974630090689
undo,10,19,1,0,0,22,"[0, 29, 9, 6, 22]",5,7,"[4, 7, 10, 11, 14, 20, 24]",79.27414071,16306,281,2,4,8,1.0360889604738772
undo,10,19,1,0,0,6,"[0, 29, 9, 6]",4,12,"[4, 7, 10, 11, 13, 14, 20, 21, 22, 24, 27, 28]",140.2741407,16641,335,11,34,8,1.0389786364356892
undo,10,19,1,0,0,9,"[0, 29, 9]",3,17,"[1, 4, 5, 6, 7, 10, 11, 12, 13, 14, 19, 20, 21, 22, 24, 27, 28]",181.7108394,17008,367,11,65,8,1.0375842971861238
undo,10,19,1,0,0,29,"[0, 29]",2,28,"[1, 2, 3, 4, 5, 6, 7, 8, 9, 10, 11, 12, 13, 14, 15, 16, 17, 18, 19, 20, 21, 22, 23, 24, 25, 26, 27, 28]",265.0715016,17341,333,12,120,8,1.0
undo,10,19,1,0,0,0,[0],1,29,"[1, 2, 3, 4, 5, 6, 7, 8, 9, 10, 11, 12, 13, 14, 15, 16, 17, 18, 19, 20, 21, 22, 23, 24, 25, 26, 27, 28, 29]",300,17741,400,12,149,8,0.0
undo,10,19,0,0,0,28,"[0, 28]",2,10,"[4, 6, 9, 10, 11, 14, 20, 22, 24, 27]",136.1219966,18902,1161,2,14,7,1.0
undo,10,19,0,0,0,4,"[0, 28, 4]",3,9,"[6, 9, 10, 11, 14, 20, 22, 24, 27]",124.9416567,20019,1117,2,10,7,1.0622089009735736
undo,10,19,0,0,0,11,"[0, 28, 4, 11]",4,4,"[14, 20, 22, 24]",66.80388929,21037,1018,4,1,6,1.0635812936430165
undo,10,19,0,0,0,14,"[0, 28, 4, 11, 14]",5,2,"[20, 22]",55.98723547,22034,997,2,0,6,1.1668442100538934
undo,10,19,0,0,1,22,"[0, 28, 4, 11, 14, 22]",6,0,[],13.03377228,23149,1115,1,0,6,1.3470217831563107
undo,10,19,1,0,0,14,"[0, 28, 4, 11, 14]",5,2,"[20, 22]",55.98723547,24976,1827,2,0,6,1.1668442100538934
undo,10,19,1,0,0,11,"[0, 28, 4, 11]",4,4,"[14, 20, 22, 24]",66.80388929,25158,182,4,1,6,1.0635812936430165
undo,10,19,1,0,0,4,"[0, 28, 4]",3,9,"[6, 9, 10, 11, 14, 20, 22, 24, 27]",124.9416567,25259,101,2,10,7,1.0622089009735736
undo,10,19,1,0,0,28,"[0, 28]",2,10,"[4, 6, 9, 10, 11, 14, 20, 22, 24, 27]",136.1219966,25441,182,2,14,7,1.0
undo,10,19,1,0,0,0,[0],1,29,"[1, 2, 3, 4, 5, 6, 7, 8, 9, 10, 11, 12, 13, 14, 15, 16, 17, 18, 19, 20, 21, 22, 23, 24, 25, 26, 27, 28, 29]",300,25791,350,12,149,8,0.0
undo,10,19,0,0,0,12,"[0, 12]",2,15,"[1, 2, 3, 5, 8, 9, 13, 16, 17, 18, 19, 21, 23, 25, 29]",180.3964883,27773,1982,9,58,7,1.0
undo,10,19,0,0,0,17,"[0, 12, 17]",3,11,"[1, 2, 3, 8, 13, 16, 18, 19, 23, 25, 29]",160.2718765,28935,1162,6,25,7,1.0081383695928103
undo,10,19,0,0,0,25,"[0, 12, 17, 25]",4,10,"[1, 2, 3, 8, 13, 16, 18, 19, 23, 29]",149.2265155,29722,787,6,16,7,1.1056437189959143
undo,10,19,0,0,0,23,"[0, 12, 17, 25, 23]",5,6,"[1, 2, 3, 8, 18, 19]",79.58457415,30866,1144,3,4,7,1.2258550858033517
undo,10,19,0,0,0,3,"[0, 12, 17, 25, 23, 3]",6,2,"[8, 18]",57.65286195,31852,986,2,0,7,1.2025561392684052
undo,10,19,0,0,1,8,"[0, 12, 17, 25, 23, 3, 8]",7,0,[],34.32905437,32757,905,1,0,7,1.2191744156192352
undo,10,19,1,0,0,3,"[0, 12, 17, 25, 23, 3]",6,2,"[8, 18]",57.65286195,33975,1218,2,0,7,1.2025561392684052
undo,10,19,1,0,0,23,"[0, 12, 17, 25, 23]",5,6,"[1, 2, 3, 8, 18, 19]",79.58457415,34143,168,3,4,7,1.2258550858033517
undo,10,19,1,0,0,25,"[0, 12, 17, 25]",4,10,"[1, 2, 3, 8, 13, 16, 18, 19, 23, 29]",149.2265155,34308,165,6,16,7,1.1056437189959143
undo,10,19,1,0,0,17,"[0, 12, 17]",3,11,"[1, 2, 3, 8, 13, 16, 18, 19, 23, 25, 29]",160.2718765,34576,268,6,25,7,1.0081383695928103
undo,10,19,1,0,0,12,"[0, 12]",2,15,"[1, 2, 3, 5, 8, 9, 13, 16, 17, 18, 19, 21, 23, 25, 29]",180.3964883,34824,248,9,58,7,1.0
undo,10,19,1,0,0,0,[0],1,29,"[1, 2, 3, 4, 5, 6, 7, 8, 9, 10, 11, 12, 13, 14, 15, 16, 17, 18, 19, 20, 21, 22, 23, 24, 25, 26, 27, 28, 29]",300,35208,384,12,149,8,0.0
undo,10,19,0,0,0,29,"[0, 29]",2,28,"[1, 2, 3, 4, 5, 6, 7, 8, 9, 10, 11, 12, 13, 14, 15, 16, 17, 18, 19, 20, 21, 22, 23, 24, 25, 26, 27, 28]",265.0715016,38735,3527,12,120,8,1.0
undo,10,19,0,0,0,9,"[0, 29, 9]",3,17,"[1, 4, 5, 6, 7, 10, 11, 12, 13, 14, 19, 20, 21, 22, 24, 27, 28]",181.7108394,39887,1152,11,65,8,1.0375842971861238
undo,10,19,0,0,0,28,"[0, 29, 9, 28]",4,8,"[4, 6, 10, 11, 14, 20, 22, 27]",107.4074075,41488,1601,6,10,7,1.1752193003234799
undo,10,19,0,0,0,4,"[0, 29, 9, 28, 4]",5,7,"[6, 10, 11, 14, 20, 22, 27]",96.22706758,42401,913,6,3,7,1.236441625767462
undo,10,19,0,0,0,11,"[0, 29, 9, 28, 4, 11]",6,1,[14],38.08930017,43334,933,1,0,7,1.194545312509767
undo,10,19,0,0,1,14,"[0, 29, 9, 28, 4, 11, 14]",7,0,[],27.27264634,44438,1104,1,0,7,1.3041544533723228
undo,10,19,1,0,0,11,"[0, 29, 9, 28, 4, 11]",6,1,[14],38.08930017,45859,1421,1,0,7,1.194545312509767
undo,10,19,1,0,0,4,"[0, 29, 9, 28, 4]",5,7,"[6, 10, 11, 14, 20, 22, 27]",96.22706758,46127,268,6,3,7,1.236441625767462
undo,10,19,1,0,0,28,"[0, 29, 9, 28]",4,8,"[4, 6, 10, 11, 14, 20, 22, 27]",107.4074075,46326,199,6,10,7,1.1752193003234799
undo,10,19,1,0,0,9,"[0, 29, 9]",3,17,"[1, 4, 5, 6, 7, 10, 11, 12, 13, 14, 19, 20, 21, 22, 24, 27, 28]",181.7108394,46643,317,11,65,8,1.0375842971861238
undo,10,19,0,0,0,6,"[0, 29, 9, 6]",4,12,"[4, 7, 10, 11, 13, 14, 20, 21, 22, 24, 27, 28]",140.2741407,48069,1426,11,34,8,1.0389786364356892
undo,10,19,0,0,0,28,"[0, 29, 9, 6, 28]",5,5,"[4, 11, 14, 22, 27]",89.18598161,49668,1599,2,4,8,1.2864082671854424
undo,10,19,0,0,0,4,"[0, 29, 9, 6, 28, 4]",6,4,"[11, 14, 22, 27]",78.00564173,50554,886,2,2,8,1.3470045407445053
undo,10,19,0,0,0,14,"[0, 29, 9, 6, 28, 4, 14]",7,1,[11],27.99564273,51523,969,1,0,8,1.3006971582050546
undo,10,19,0,0,1,11,"[0, 29, 9, 6, 28, 4, 14, 11]",8,0,[],17.1789889,52641,1118,1,0,8,1.289914895833058
undo,10,19,0,1,1,11,"[0, 29, 9, 6, 28, 4, 14, 11]",8,0,[],17.1789889,61811,9170,1,0,8,1.289914895833058
undo,11,12,0,0,0,0,[0],1,29,"[1, 2, 3, 4, 5, 6, 7, 8, 9, 10, 11, 12, 13, 14, 15, 16, 17, 18, 19, 20, 21, 22, 23, 24, 25, 26, 27, 28, 29]",300,144,-1,2,32,9,0.0
undo,11,12,0,0,0,6,"[0, 6]",2,28,"[1, 2, 3, 4, 5, 7, 8, 9, 10, 11, 12, 13, 14, 15, 16, 17, 18, 19, 20, 21, 22, 23, 24, 25, 26, 27, 28, 29]",283.5987805,5400,5256,2,18,9,1.0
undo,11,12,0,0,0,18,"[0, 6, 18]",3,10,"[1, 2, 3, 5, 7, 9, 11, 15, 17, 21]",144.5088815,6731,1331,6,15,7,1.0360320431021144
undo,11,12,0,0,0,15,"[0, 6, 18, 15]",4,5,"[1, 5, 11, 17, 21]",90.75016132,7722,991,2,4,7,1.107390040119206
undo,11,12,0,0,0,17,"[0, 6, 18, 15, 17]",5,4,"[1, 5, 11, 21]",74.25773882,8619,897,2,2,7,1.156679625075457
undo,11,12,0,0,0,11,"[0, 6, 18, 15, 17, 11]",6,1,[1],30.84115213,9635,1016,1,0,7,1.128650322561101
undo,11,12,0,0,1,1,"[0, 6, 18, 15, 17, 11, 1]",7,0,[],14.28820677,10735,1100,1,0,7,1.175838393727954
undo,11,12,1,0,0,11,"[0, 6, 18, 15, 17, 11]",6,1,[1],30.84115213,11974,1239,1,0,7,1.128650322561101
undo,11,12,1,0,0,17,"[0, 6, 18, 15, 17]",5,4,"[1, 5, 11, 21]",74.25773882,12159,185,2,2,7,1.156679625075457
undo,11,12,1,0,0,15,"[0, 6, 18, 15]",4,5,"[1, 5, 11, 17, 21]",90.75016132,12440,281,2,4,7,1.107390040119206
undo,11,12,1,0,0,18,"[0, 6, 18]",3,10,"[1, 2, 3, 5, 7, 9, 11, 15, 17, 21]",144.5088815,12759,319,6,15,7,1.0360320431021144
undo,11,12,1,0,0,6,"[0, 6]",2,28,"[1, 2, 3, 4, 5, 7, 8, 9, 10, 11, 12, 13, 14, 15, 16, 17, 18, 19, 20, 21, 22, 23, 24, 25, 26, 27, 28, 29]",283.5987805,12990,231,2,18,9,1.0
undo,11,12,1,0,0,0,[0],1,29,"[1, 2, 3, 4, 5, 6, 7, 8, 9, 10, 11, 12, 13, 14, 15, 16, 17, 18, 19, 20, 21, 22, 23, 24, 25, 26, 27, 28, 29]",300,13441,451,2,32,9,0.0
undo,11,12,0,0,0,22,"[0, 22]",2,22,"[2, 4, 5, 6, 7, 9, 10, 12, 13, 14, 15, 16, 17, 18, 19, 21, 23, 24, 25, 27, 28, 29]",211.9943184,14820,1379,6,42,8,1.0
undo,11,12,0,0,0,16,"[0, 22, 16]",3,12,"[2, 4, 5, 6, 7, 12, 14, 19, 23, 24, 25, 27]",190.9943184,16100,1280,6,24,8,1.2017164145167045
undo,11,12,0,0,0,4,"[0, 22, 16, 4]",4,9,"[2, 6, 7, 12, 14, 19, 24, 25, 27]",156.7890556,16989,889,6,14,8,1.146531713305579
undo,11,12,0,0,0,12,"[0, 22, 16, 4, 12]",5,4,"[14, 19, 24, 27]",114.5990094,17817,828,4,3,8,1.1221389456954312
undo,11,12,0,0,0,27,"[0, 22, 16, 4, 12, 27]",6,3,"[14, 19, 24]",90.24741807,18635,818,2,1,8,1.2262878338287035
undo,11,12,0,0,0,14,"[0, 22, 16, 4, 12, 27, 14]",7,1,[24],61.59432051,19468,833,1,0,8,1.2804562106751427
undo,11,12,0,0,1,24,"[0, 22, 16, 4, 12, 27, 14, 24]",8,0,[],44.38966997,20485,1017,1,0,8,1.4322660007679802
undo,11,12,1,0,0,14,"[0, 22, 16, 4, 12, 27, 14]",7,1,[24],61.59432051,25560,5075,1,0,8,1.2804562106751427
undo,11,12,1,0,0,27,"[0, 22, 16, 4, 12, 27]",6,3,"[14, 19, 24]",90.24741807,25859,299,2,1,8,1.2262878338287035
undo,11,12,1,0,0,12,"[0, 22, 16, 4, 12]",5,4,"[14, 19, 24, 27]",114.5990094,26042,183,4,3,8,1.1221389456954312
undo,11,12,1,0,0,4,"[0, 22, 16, 4]",4,9,"[2, 6, 7, 12, 14, 19, 24, 25, 27]",156.7890556,26226,184,6,14,8,1.146531713305579
undo,11,12,1,0,0,16,"[0, 22, 16]",3,12,"[2, 4, 5, 6, 7, 12, 14, 19, 23, 24, 25, 27]",190.9943184,26441,215,6,24,8,1.2017164145167045
undo,11,12,1,0,0,22,"[0, 22]",2,22,"[2, 4, 5, 6, 7, 9, 10, 12, 13, 14, 15, 16, 17, 18, 19, 21, 23, 24, 25, 27, 28, 29]",211.9943184,26776,335,6,42,8,1.0
undo,11,12,1,0,0,0,[0],1,29,"[1, 2, 3, 4, 5, 6, 7, 8, 9, 10, 11, 12, 13, 14, 15, 16, 17, 18, 19, 20, 21, 22, 23, 24, 25, 26, 27, 28, 29]",300,27160,384,2,32,9,0.0
undo,11,12,0,0,0,6,"[0, 6]",2,28,"[1, 2, 3, 4, 5, 7, 8, 9, 10, 11, 12, 13, 14, 15, 16, 17, 18, 19, 20, 21, 22, 23, 24, 25, 26, 27, 28, 29]",283.5987805,28423,1263,2,18,9,1.0
undo,11,12,0,0,0,22,"[0, 6, 22]",3,13,"[2, 4, 5, 7, 12, 13, 14, 16, 19, 23, 24, 25, 27]",182.0015365,30608,2185,2,9,9,1.3408050629015749
undo,11,12,0,0,0,16,"[0, 6, 22, 16]",4,10,"[2, 4, 5, 7, 12, 14, 19, 24, 25, 27]",161.0015365,31657,1049,2,7,9,1.5323672374573825
undo,11,12,0,0,0,4,"[0, 6, 22, 16, 4]",5,6,"[12, 14, 19, 24, 25, 27]",126.7962737,32917,1260,2,5,9,1.38665076120851
undo,11,12,0,0,0,12,"[0, 6, 22, 16, 4, 12]",6,3,"[14, 24, 27]",84.6062275,33803,886,2,3,9,1.3036701691846924
undo,11,12,0,0,0,27,"[0, 6, 22, 16, 4, 12, 27]",7,2,"[14, 24]",60.25463618,34552,749,2,0,9,1.401636252408167
undo,11,12,0,0,0,14,"[0, 6, 22, 16, 4, 12, 27, 14]",8,1,[24],31.60153862,35270,718,1,0,9,1.4415448388010776
undo,11,12,0,0,1,24,"[0, 6, 22, 16, 4, 12, 27, 14, 24]",9,0,[],14.39688808,36370,1100,1,0,9,1.6003250998053893
undo,11,12,0,1,1,24,"[0, 6, 22, 16, 4, 12, 27, 14, 24]",9,0,[],14.39688808,40144,3774,1,0,9,1.6003250998053893
undo,12,45,0,0,0,0,[0],1,24,"[1, 2, 3, 4, 5, 6, 7, 9, 10, 11, 12, 14, 15, 16, 17, 19, 20, 21, 22, 23, 24, 25, 27, 29]",300,166,-1,6,248,10,0.0
undo,12,45,0,0,0,24,"[0, 24]",2,21,"[1, 2, 3, 4, 5, 6, 7, 9, 10, 11, 12, 14, 15, 16, 17, 19, 20, 21, 22, 23, 29]",196.9951457,5914,5748,1,43,9,1.0
undo,12,45,0,0,0,7,"[0, 24, 7]",3,19,"[1, 2, 3, 4, 5, 6, 9, 10, 12, 14, 15, 16, 17, 19, 20, 21, 22, 23, 29]",162.5858447,7100,1186,1,42,9,1.0357393210597021
undo,12,45,0,0,0,2,"[0, 24, 7, 2]",4,13,"[3, 4, 6, 10, 12, 14, 16, 17, 19, 20, 22, 23, 29]",124.5726891,9182,2082,1,30,9,1.046641971869327
undo,12,45,0,0,0,3,"[0, 24, 7, 2, 3]",5,8,"[6, 10, 12, 14, 16, 20, 22, 29]",99.25471126,10081,899,1,16,9,1.1190573442377925
undo,12,45,0,0,0,29,"[0, 24, 7, 2, 3, 29]",6,5,"[6, 10, 12, 20, 22]",79.25471126,10817,736,1,7,9,1.3705865244509003
undo,12,45,0,0,0,10,"[0, 24, 7, 2, 3, 29, 10]",7,3,"[6, 12, 20]",57.71405203,11834,1017,1,2,9,1.6465662811951463
undo,12,45,0,0,0,6,"[0, 24, 7, 2, 3, 29, 10, 6]",8,1,[12],31.46524253,14656,2822,1,0,9,1.559115645747125
undo,12,45,0,0,1,12,"[0, 24, 7, 2, 3, 29, 10, 6, 12]",9,0,[],11.34063073,15923,1267,1,0,9,1.519259838263158
undo,12,45,1,0,0,6,"[0, 24, 7, 2, 3, 29, 10, 6]",8,1,[12],31.46524253,21259,5336,1,0,9,1.559115645747125
undo,12,45,1,0,0,10,"[0, 24, 7, 2, 3, 29, 10]",7,3,"[6, 12, 20]",57.71405203,21475,216,1,2,9,1.6465662811951463
undo,12,45,1,0,0,29,"[0, 24, 7, 2, 3, 29]",6,5,"[6, 10, 12, 20, 22]",79.25471126,21641,166,1,7,9,1.3705865244509003
undo,12,45,1,0,0,3,"[0, 24, 7, 2, 3]",5,8,"[6, 10, 12, 14, 16, 20, 22, 29]",99.25471126,21774,133,1,16,9,1.1190573442377925
undo,12,45,1,0,0,2,"[0, 24, 7, 2]",4,13,"[3, 4, 6, 10, 12, 14, 16, 17, 19, 20, 22, 23, 29]",124.5726891,21909,135,1,30,9,1.046641971869327
undo,12,45,1,0,0,7,"[0, 24, 7]",3,19,"[1, 2, 3, 4, 5, 6, 9, 10, 12, 14, 15, 16, 17, 19, 20, 21, 22, 23, 29]",162.5858447,22109,200,1,42,9,1.0357393210597021
undo,12,45,1,0,0,24,"[0, 24]",2,21,"[1, 2, 3, 4, 5, 6, 7, 9, 10, 11, 12, 14, 15, 16, 17, 19, 20, 21, 22, 23, 29]",196.9951457,22476,367,1,43,9,1.0
undo,12,45,1,0,0,0,[0],1,24,"[1, 2, 3, 4, 5, 6, 7, 9, 10, 11, 12, 14, 15, 16, 17, 19, 20, 21, 22, 23, 24, 25, 27, 29]",300,22775,299,6,248,10,0.0
undo,12,45,0,0,0,15,"[0, 15]",2,23,"[1, 2, 3, 4, 5, 6, 7, 9, 10, 11, 12, 14, 16, 17, 19, 20, 21, 22, 23, 24, 25, 27, 29]",253.9022777,24251,1476,5,207,10,1.0
undo,12,45,0,0,0,23,"[0, 15, 23]",3,22,"[1, 2, 3, 4, 5, 6, 7, 9, 10, 11, 12, 14, 16, 17, 19, 20, 21, 22, 24, 25, 27, 29]",230.3014303,25201,950,5,163,10,1.0006068457769497
undo,12,45,0,0,0,20,"[0, 15, 23, 20]",4,19,"[1, 2, 3, 5, 6, 7, 9, 10, 11, 12, 14, 16, 17, 19, 21, 22, 24, 25, 29]",188.8647316,26152,951,5,137,10,1.2062119754673604
undo,12,45,0,0,0,7,"[0, 15, 23, 20, 7]",5,14,"[2, 3, 5, 6, 9, 10, 12, 14, 17, 19, 21, 22, 24, 29]",137.2410936,27175,1023,3,38,10,1.2267717168083891
undo,12,45,0,0,0,2,"[0, 15, 23, 20, 7, 2]",6,8,"[3, 6, 10, 12, 19, 22, 24, 29]",99.22793795,28186,1011,3,20,10,1.1978549169009853
undo,12,45,0,0,0,3,"[0, 15, 23, 20, 7, 2, 3]",7,5,"[6, 10, 12, 22, 29]",73.90996014,29283,1097,2,7,10,1.2603420042999722
undo,12,45,0,0,0,29,"[0, 15, 23, 20, 7, 2, 3, 29]",8,3,"[6, 10, 12]",53.90996014,30252,969,2,1,10,1.527949676112761
undo,12,45,0,0,0,10,"[0, 15, 23, 20, 7, 2, 3, 29, 10]",9,1,[6],32.36930092,31200,948,1,0,10,1.8188082660591487
undo,12,45,0,0,1,6,"[0, 15, 23, 20, 7, 2, 3, 29, 10, 6]",10,0,[],6.120491419,33992,2792,1,0,10,1.7062675391073039
undo,12,45,0,1,1,6,"[0, 15, 23, 20, 7, 2, 3, 29, 10, 6]",10,0,[],6.120491419,36294,2302,1,0,10,1.7062675391073039
undo,13,26,0,0,0,0,[0],1,29,"[1, 2, 3, 4, 5, 6, 7, 8, 9, 10, 11, 12, 13, 14, 15, 16, 17, 18, 19, 20, 21, 22, 23, 24, 25, 26, 27, 28, 29]",300,161,-1,9,226,9,0.0
undo,13,26,0,0,0,21,"[0, 21]",2,25,"[2, 3, 4, 5, 6, 7, 8, 10, 11, 12, 13, 14, 15, 16, 17, 18, 19, 22, 23, 24, 25, 26, 27, 28, 29]",211.1349337,5550,5389,7,90,9,1.0
undo,13,26,0,0,0,23,"[0, 21, 23]",3,16,"[3, 4, 5, 6, 10, 11, 12, 13, 14, 16, 17, 18, 22, 25, 26, 29]",161.8906447,6551,1001,10,34,8,1.0259354460299557
undo,13,26,0,0,0,16,"[0, 21, 23, 16]",4,8,"[4, 5, 6, 10, 13, 14, 17, 29]",108.6553181,7504,953,9,21,8,1.709252418780019
undo,13,26,0,0,0,29,"[0, 21, 23, 16, 29]",5,5,"[4, 6, 10, 14, 17]",84.44788125,8451,947,8,8,8,1.7640967188897918
undo,13,26,0,0,0,4,"[0, 21, 23, 16, 29, 4]",6,4,"[6, 10, 14, 17]",60.44788125,9206,755,3,2,8,1.9764649562942154
undo,13,26,0,0,0,17,"[0, 21, 23, 16, 29, 4, 17]",7,2,"[6, 14]",39.35285814,9936,730,2,0,8,1.8344064256480113
undo,13,26,0,0,1,14,"[0, 21, 23, 16, 29, 4, 17, 14]",8,0,[],16.88065308,10818,882,1,0,8,1.7568455098750841
undo,13,26,1,0,0,17,"[0, 21, 23, 16, 29, 4, 17]",7,2,"[6, 14]",39.35285814,14192,3374,2,0,8,1.8344064256480113
undo,13,26,1,0,0,4,"[0, 21, 23, 16, 29, 4]",6,4,"[6, 10, 14, 17]",60.44788125,14473,281,3,2,8,1.9764649562942154
undo,13,26,1,0,0,29,"[0, 21, 23, 16, 29]",5,5,"[4, 6, 10, 14, 17]",84.44788125,14741,268,8,8,8,1.7640967188897918
undo,13,26,1,0,0,16,"[0, 21, 23, 16]",4,8,"[4, 5, 6, 10, 13, 14, 17, 29]",108.6553181,15140,399,9,21,8,1.709252418780019
undo,13,26,1,0,0,23,"[0, 21, 23]",3,16,"[3, 4, 5, 6, 10, 11, 12, 13, 14, 16, 17, 18, 22, 25, 26, 29]",161.8906447,15574,434,10,34,8,1.0259354460299557
undo,13,26,1,0,0,21,"[0, 21]",2,25,"[2, 3, 4, 5, 6, 7, 8, 10, 11, 12, 13, 14, 15, 16, 17, 18, 19, 22, 23, 24, 25, 26, 27, 28, 29]",211.1349337,15942,368,7,90,9,1.0
undo,13,26,1,0,0,0,[0],1,29,"[1, 2, 3, 4, 5, 6, 7, 8, 9, 10, 11, 12, 13, 14, 15, 16, 17, 18, 19, 20, 21, 22, 23, 24, 25, 26, 27, 28, 29]",300,16357,415,9,226,9,0.0
undo,13,26,0,0,0,16,"[0, 16]",2,17,"[3, 4, 5, 6, 10, 11, 12, 13, 14, 17, 18, 19, 21, 22, 23, 26, 29]",188.0535842,18970,2613,34,176,8,1.0
undo,13,26,0,0,0,29,"[0, 16, 29]",3,12,"[4, 5, 6, 10, 12, 13, 14, 17, 19, 21, 23, 26]",163.8461474,19695,725,32,68,8,1.1142946124989752
undo,13,26,0,0,0,4,"[0, 16, 29, 4]",4,9,"[5, 6, 10, 12, 13, 14, 17, 21, 23]",139.8461474,20403,708,17,7,8,1.3213762371676339
undo,13,26,0,0,0,17,"[0, 16, 29, 4, 17]",5,5,"[6, 10, 14, 21, 23]",118.7511243,21169,766,6,0,8,1.2756100061290643
undo,13,26,0,0,0,14,"[0, 16, 29, 4, 17, 14]",6,2,"[6, 10]",96.27891921,21884,715,2,0,8,1.264154039440982
undo,13,26,0,0,0,6,"[0, 16, 29, 4, 17, 14, 6]",7,1,[10],75.25512317,22569,685,1,0,8,1.3993089646092733
undo,13,26,0,0,1,10,"[0, 16, 29, 4, 17, 14, 6, 10]",8,0,[],45.98056083,23434,865,1,0,8,1.5697867669370302
undo,13,26,1,0,0,6,"[0, 16, 29, 4, 17, 14, 6]",7,1,[10],75.25512317,24407,973,1,0,8,1.3993089646092733
undo,13,26,1,0,0,14,"[0, 16, 29, 4, 17, 14]",6,2,"[6, 10]",96.27891921,24741,334,2,0,8,1.264154039440982
undo,13,26,1,0,0,17,"[0, 16, 29, 4, 17]",5,5,"[6, 10, 14, 21, 23]",118.7511243,24925,184,6,0,8,1.2756100061290643
undo,13,26,1,0,0,4,"[0, 16, 29, 4]",4,9,"[5, 6, 10, 12, 13, 14, 17, 21, 23]",139.8461474,25258,333,17,7,8,1.3213762371676339
undo,13,26,1,0,0,29,"[0, 16, 29]",3,12,"[4, 5, 6, 10, 12, 13, 14, 17, 19, 21, 23, 26]",163.8461474,25609,351,32,68,8,1.1142946124989752
undo,13,26,1,0,0,16,"[0, 16]",2,17,"[3, 4, 5, 6, 10, 11, 12, 13, 14, 17, 18, 19, 21, 22, 23, 26, 29]",188.0535842,25791,182,34,176,8,1.0
undo,13,26,1,0,0,0,[0],1,29,"[1, 2, 3, 4, 5, 6, 7, 8, 9, 10, 11, 12, 13, 14, 15, 16, 17, 18, 19, 20, 21, 22, 23, 24, 25, 26, 27, 28, 29]",300,26225,434,9,226,9,0.0
undo,13,26,0,0,0,21,"[0, 21]",2,25,"[2, 3, 4, 5, 6, 7, 8, 10, 11, 12, 13, 14, 15, 16, 17, 18, 19, 22, 23, 24, 25, 26, 27, 28, 29]",211.1349337,30071,3846,7,90,9,1.0
undo,13,26,0,0,0,13,"[0, 21, 13]",3,21,"[3, 4, 5, 6, 7, 8, 10, 11, 12, 14, 15, 16, 17, 18, 19, 22, 23, 24, 25, 26, 29]",188.9989901,31135,1064,6,45,9,1.0103952279992225
undo,13,26,0,0,0,5,"[0, 21, 13, 5]",4,12,"[3, 4, 11, 14, 16, 17, 18, 22, 23, 25, 26, 29]",150.7106107,31884,749,2,10,8,1.0086890649024711
undo,13,26,0,0,0,23,"[0, 21, 13, 5, 23]",5,8,"[3, 4, 11, 14, 16, 17, 22, 29]",118.0150452,32770,886,2,7,8,1.3518621918690494
undo,13,26,0,0,0,16,"[0, 21, 13, 5, 23, 16]",6,4,"[4, 14, 17, 29]",64.77971862,33621,851,2,3,8,2.1011863559657242
undo,13,26,0,0,0,29,"[0, 21, 13, 5, 23, 16, 29]",7,2,"[4, 17]",40.57228175,34384,763,2,0,8,2.123178325538451
undo,13,26,0,0,1,4,"[0, 21, 13, 5, 23, 16, 29, 4]",8,0,[],16.57228175,35225,841,1,0,8,2.338467952972574
undo,13,26,1,0,0,29,"[0, 21, 13, 5, 23, 16, 29]",7,2,"[4, 17]",40.57228175,36358,1133,2,0,8,2.123178325538451
undo,13,26,1,0,0,16,"[0, 21, 13, 5, 23, 16]",6,4,"[4, 14, 17, 29]",64.77971862,36525,167,2,3,8,2.1011863559657242
