condition,trial_id,map_id,undoIndicator,submit,checkEnd,currentChoice,chosen_all,n_city_all,n_within_reach,cities_reach,currentBudget,time_all,rt_all,n_opt_paths_all,n_subopt_paths_all,mas_all,tortuosity_all
undo,0,10,0,0,0,0,[0],1,29,"[1, 2, 3, 4, 5, 6, 7, 8, 9, 10, 11, 12, 13, 14, 15, 16, 17, 18, 19, 20, 21, 22, 23, 24, 25, 26, 27, 28, 29]",300,152,-1,1,100,9,0.0
undo,0,10,0,0,0,13,"[0, 13]",2,25,"[1, 2, 3, 4, 6, 7, 8, 9, 10, 11, 12, 14, 17, 18, 19, 20, 21, 22, 23, 24, 25, 26, 27, 28, 29]",249.4628849,7400,7248,1,79,9,1.0
undo,0,10,0,0,0,11,"[0, 13, 11]",3,20,"[1, 2, 3, 6, 7, 8, 9, 10, 12, 14, 18, 19, 20, 21, 22, 24, 26, 27, 28, 29]",206.4512586,8459,1059,1,54,9,1.0313137484914219
undo,0,10,0,0,0,19,"[0, 13, 11, 19]",4,11,"[2, 6, 8, 9, 10, 14, 18, 20, 24, 26, 27]",170.0919407,9359,900,1,22,9,1.0879446220132545
undo,0,10,0,0,0,2,"[0, 13, 11, 19, 2]",5,4,"[14, 20, 26, 27]",126.1829439,10977,1618,1,4,9,1.06474052351343
undo,0,10,0,0,0,14,"[0, 13, 11, 19, 2, 14]",6,3,"[20, 26, 27]",114.0174188,11914,937,1,3,9,1.1628909195912238
undo,0,10,0,0,0,26,"[0, 13, 11, 19, 2, 14, 26]",7,2,"[20, 27]",79.34754716,12844,930,1,1,9,1.6660727647633602
undo,0,10,0,0,0,20,"[0, 13, 11, 19, 2, 14, 26, 20]",8,1,[27],47.56704999,13696,852,1,0,9,2.085581809637999
undo,0,10,0,0,1,27,"[0, 13, 11, 19, 2, 14, 26, 20, 27]",9,0,[],2.312215998,15117,1421,1,0,9,1.9116357409137932
undo,0,10,1,0,0,20,"[0, 13, 11, 19, 2, 14, 26, 20]",8,1,[27],47.56704999,18686,3569,1,0,9,2.085581809637999
undo,0,10,1,0,0,26,"[0, 13, 11, 19, 2, 14, 26]",7,2,"[20, 27]",79.34754716,18951,265,1,1,9,1.6660727647633602
undo,0,10,1,0,0,14,"[0, 13, 11, 19, 2, 14]",6,3,"[20, 26, 27]",114.0174188,19353,402,1,3,9,1.1628909195912238
undo,0,10,1,0,0,2,"[0, 13, 11, 19, 2]",5,4,"[14, 20, 26, 27]",126.1829439,19618,265,1,4,9,1.06474052351343
undo,0,10,1,0,0,19,"[0, 13, 11, 19]",4,11,"[2, 6, 8, 9, 10, 14, 18, 20, 24, 26, 27]",170.0919407,19969,351,1,22,9,1.0879446220132545
undo,0,10,1,0,0,11,"[0, 13, 11]",3,20,"[1, 2, 3, 6, 7, 8, 9, 10, 12, 14, 18, 19, 20, 21, 22, 24, 26, 27, 28, 29]",206.4512586,20186,217,1,54,9,1.0313137484914219
undo,0,10,0,0,0,10,"[0, 13, 11, 10]",4,14,"[3, 6, 7, 8, 12, 14, 18, 19, 20, 21, 26, 27, 28, 29]",134.084139,25115,4929,5,16,7,1.869422572758179
undo,0,10,0,0,0,18,"[0, 13, 11, 10, 18]",5,10,"[3, 6, 7, 12, 19, 20, 21, 26, 27, 28]",120.6305149,25909,794,4,7,7,1.7571737303743664
undo,0,10,0,0,0,20,"[0, 13, 11, 10, 18, 20]",6,2,"[26, 27]",49.28627901,26750,841,2,0,7,2.0713776703979687
undo,0,10,0,0,1,26,"[0, 13, 11, 10, 18, 20, 26]",7,0,[],17.50578185,28326,1576,1,0,7,2.1330192209742505
undo,0,10,1,0,0,20,"[0, 13, 11, 10, 18, 20]",6,2,"[26, 27]",49.28627901,29385,1059,2,0,7,2.0713776703979687
undo,0,10,1,0,0,18,"[0, 13, 11, 10, 18]",5,10,"[3, 6, 7, 12, 19, 20, 21, 26, 27, 28]",120.6305149,29601,216,4,7,7,1.7571737303743664
undo,0,10,1,0,0,10,"[0, 13, 11, 10]",4,14,"[3, 6, 7, 8, 12, 14, 18, 19, 20, 21, 26, 27, 28, 29]",134.084139,29802,201,5,16,7,1.869422572758179
undo,0,10,1,0,0,11,"[0, 13, 11]",3,20,"[1, 2, 3, 6, 7, 8, 9, 10, 12, 14, 18, 19, 20, 21, 22, 24, 26, 27, 28, 29]",206.4512586,29987,185,1,54,9,1.0313137484914219
undo,0,10,0,0,0,19,"[0, 13, 11, 19]",4,11,"[2, 6, 8, 9, 10, 14, 18, 20, 24, 26, 27]",170.0919407,30935,948,1,22,9,1.0879446220132545
undo,0,10,0,0,0,2,"[0, 13, 11, 19, 2]",5,4,"[14, 20, 26, 27]",126.1829439,31844,909,1,4,9,1.06474052351343
undo,0,10,0,0,0,14,"[0, 13, 11, 19, 2, 14]",6,3,"[20, 26, 27]",114.0174188,32570,726,1,3,9,1.1628909195912238
undo,0,10,0,0,0,26,"[0, 13, 11, 19, 2, 14, 26]",7,2,"[20, 27]",79.34754716,33542,972,1,1,9,1.6660727647633602
undo,0,10,0,0,0,20,"[0, 13, 11, 19, 2, 14, 26, 20]",8,1,[27],47.56704999,34493,951,1,0,9,2.085581809637999
undo,0,10,0,0,1,27,"[0, 13, 11, 19, 2, 14, 26, 20, 27]",9,0,[],2.312215998,35909,1416,1,0,9,1.9116357409137932
undo,0,10,0,1,1,27,"[0, 13, 11, 19, 2, 14, 26, 20, 27]",9,0,[],2.312215998,40102,4193,1,0,9,1.9116357409137932
undo,1,9,0,0,0,0,[0],1,27,"[1, 3, 4, 5, 6, 7, 8, 9, 10, 11, 13, 14, 15, 16, 17, 18, 19, 20, 21, 22, 23, 24, 25, 26, 27, 28, 29]",300,125,-1,2,182,10,0.0
undo,1,9,0,0,0,25,"[0, 25]",2,24,"[1, 3, 4, 5, 6, 7, 8, 9, 10, 11, 13, 15, 16, 17, 18, 19, 20, 21, 22, 23, 24, 26, 27, 28]",275.9168108,11916,11791,2,104,10,1.0
undo,1,9,0,0,0,10,"[0, 25, 10]",3,20,"[3, 4, 5, 7, 8, 9, 11, 13, 15, 16, 17, 18, 19, 20, 21, 22, 23, 26, 27, 28]",236.0670932,13133,1217,2,76,10,1.1767014107208227
undo,1,9,0,0,0,20,"[0, 25, 10, 20]",4,13,"[8, 9, 15, 16, 17, 18, 19, 21, 22, 23, 26, 27, 28]",153.6049806,16896,3763,7,31,9,1.1559102626209
undo,1,9,0,0,0,21,"[0, 25, 10, 20, 21]",5,11,"[8, 9, 15, 16, 17, 18, 19, 22, 23, 26, 28]",141.5219347,17605,709,7,23,9,1.3369987418374067
undo,1,9,0,0,0,26,"[0, 25, 10, 20, 21, 26]",6,6,"[8, 9, 18, 19, 23, 28]",87.61460678,18633,1028,1,8,9,1.8179843402360067
undo,1,9,0,0,0,28,"[0, 25, 10, 20, 21, 26, 28]",7,3,"[8, 9, 23]",42.83738042,19566,933,1,2,9,3.462233458867134
undo,1,9,0,0,0,8,"[0, 25, 10, 20, 21, 26, 28, 8]",8,1,[23],32.0207266,20231,665,1,0,9,4.201561579694224
undo,1,9,0,0,1,23,"[0, 25, 10, 20, 21, 26, 28, 8, 23]",9,0,[],10.54981604,21059,828,1,0,9,4.861448732467932
undo,1,9,1,0,0,8,"[0, 25, 10, 20, 21, 26, 28, 8]",8,1,[23],32.0207266,28559,7500,1,0,9,4.201561579694224
undo,1,9,1,0,0,28,"[0, 25, 10, 20, 21, 26, 28]",7,3,"[8, 9, 23]",42.83738042,28742,183,1,2,9,3.462233458867134
undo,1,9,1,0,0,26,"[0, 25, 10, 20, 21, 26]",6,6,"[8, 9, 18, 19, 23, 28]",87.61460678,28925,183,1,8,9,1.8179843402360067
undo,1,9,1,0,0,21,"[0, 25, 10, 20, 21]",5,11,"[8, 9, 15, 16, 17, 18, 19, 22, 23, 26, 28]",141.5219347,29125,200,7,23,9,1.3369987418374067
undo,1,9,1,0,0,20,"[0, 25, 10, 20]",4,13,"[8, 9, 15, 16, 17, 18, 19, 21, 22, 23, 26, 27, 28]",153.6049806,29308,183,7,31,9,1.1559102626209
undo,1,9,1,0,0,10,"[0, 25, 10]",3,20,"[3, 4, 5, 7, 8, 9, 11, 13, 15, 16, 17, 18, 19, 20, 21, 22, 23, 26, 27, 28]",236.0670932,29475,167,2,76,10,1.1767014107208227
undo,1,9,1,0,0,25,"[0, 25]",2,24,"[1, 3, 4, 5, 6, 7, 8, 9, 10, 11, 13, 15, 16, 17, 18, 19, 20, 21, 22, 23, 24, 26, 27, 28]",275.9168108,29658,183,2,104,10,1.0
undo,1,9,1,0,0,0,[0],1,27,"[1, 3, 4, 5, 6, 7, 8, 9, 10, 11, 13, 14, 15, 16, 17, 18, 19, 20, 21, 22, 23, 24, 25, 26, 27, 28, 29]",300,30026,368,2,182,10,0.0
undo,1,9,0,0,0,9,"[0, 9]",2,26,"[1, 3, 4, 5, 6, 7, 8, 10, 11, 13, 14, 15, 16, 17, 18, 19, 20, 21, 22, 23, 24, 25, 26, 27, 28, 29]",225.5352432,31316,1290,2,101,9,1.0
undo,1,9,0,0,0,23,"[0, 9, 23]",3,22,"[1, 3, 4, 5, 7, 8, 10, 11, 13, 15, 16, 17, 18, 19, 20, 21, 22, 24, 25, 26, 27, 28]",203.1745635,32021,705,2,70,9,1.6262276606762436
undo,1,9,0,0,0,8,"[0, 9, 23, 8]",4,18,"[3, 4, 5, 7, 10, 11, 15, 16, 17, 18, 19, 20, 21, 22, 25, 26, 27, 28]",181.7036529,32755,734,1,36,9,1.8547307061753238
undo,1,9,0,0,0,28,"[0, 9, 23, 8, 28]",5,17,"[3, 4, 5, 7, 10, 11, 15, 16, 17, 18, 19, 20, 21, 22, 25, 26, 27]",170.8869991,33304,549,1,23,9,1.7382749966569708
undo,1,9,0,0,0,21,"[0, 9, 23, 8, 28, 21]",6,8,"[10, 16, 17, 18, 20, 22, 25, 26]",117.8869991,34174,870,7,5,8,1.5363946588735553
undo,1,9,0,0,0,20,"[0, 9, 23, 8, 28, 21, 20]",7,5,"[10, 16, 17, 22, 26]",105.8039531,34731,557,5,0,8,1.5333390745950446
undo,1,9,0,0,1,10,"[0, 9, 23, 8, 28, 21, 20, 10]",8,0,[],23.34184059,35752,1021,1,0,8,5.091963790784078
undo,1,9,1,0,0,20,"[0, 9, 23, 8, 28, 21, 20]",7,5,"[10, 16, 17, 22, 26]",105.8039531,37108,1356,5,0,8,1.5333390745950446
undo,1,9,1,0,0,21,"[0, 9, 23, 8, 28, 21]",6,8,"[10, 16, 17, 18, 20, 22, 25, 26]",117.8869991,37408,300,7,5,8,1.5363946588735553
undo,1,9,1,0,0,28,"[0, 9, 23, 8, 28]",5,17,"[3, 4, 5, 7, 10, 11, 15, 16, 17, 18, 19, 20, 21, 22, 25, 26, 27]",170.8869991,37592,184,1,23,9,1.7382749966569708
undo,1,9,1,0,0,8,"[0, 9, 23, 8]",4,18,"[3, 4, 5, 7, 10, 11, 15, 16, 17, 18, 19, 20, 21, 22, 25, 26, 27, 28]",181.7036529,37775,183,1,36,9,1.8547307061753238
undo,1,9,1,0,0,23,"[0, 9, 23]",3,22,"[1, 3, 4, 5, 7, 8, 10, 11, 13, 15, 16, 17, 18, 19, 20, 21, 22, 24, 25, 26, 27, 28]",203.1745635,37942,167,2,70,9,1.6262276606762436
undo,1,9,1,0,0,9,"[0, 9]",2,26,"[1, 3, 4, 5, 6, 7, 8, 10, 11, 13, 14, 15, 16, 17, 18, 19, 20, 21, 22, 23, 24, 25, 26, 27, 28, 29]",225.5352432,38308,366,2,101,9,1.0
undo,1,9,1,0,0,0,[0],1,27,"[1, 3, 4, 5, 6, 7, 8, 9, 10, 11, 13, 14, 15, 16, 17, 18, 19, 20, 21, 22, 23, 24, 25, 26, 27, 28, 29]",300,38525,217,2,182,10,0.0
undo,1,9,0,0,0,25,"[0, 25]",2,24,"[1, 3, 4, 5, 6, 7, 8, 9, 10, 11, 13, 15, 16, 17, 18, 19, 20, 21, 22, 23, 24, 26, 27, 28]",275.9168108,42258,3733,2,104,10,1.0
undo,1,9,0,0,0,10,"[0, 25, 10]",3,20,"[3, 4, 5, 7, 8, 9, 11, 13, 15, 16, 17, 18, 19, 20, 21, 22, 23, 26, 27, 28]",236.0670932,43248,990,2,76,10,1.1767014107208227
undo,1,9,0,0,0,20,"[0, 25, 10, 20]",4,13,"[8, 9, 15, 16, 17, 18, 19, 21, 22, 23, 26, 27, 28]",153.6049806,44198,950,7,31,9,1.1559102626209
undo,1,9,0,0,0,21,"[0, 25, 10, 20, 21]",5,11,"[8, 9, 15, 16, 17, 18, 19, 22, 23, 26, 28]",141.5219347,44715,517,7,23,9,1.3369987418374067
undo,1,9,0,0,0,28,"[0, 25, 10, 20, 21, 28]",6,4,"[8, 9, 23, 26]",88.52193467,46641,1926,4,4,9,2.8471728698277694
undo,1,9,0,0,0,8,"[0, 25, 10, 20, 21, 28, 8]",7,3,"[9, 23, 26]",77.70528084,47234,593,2,1,9,3.4852880207547177
undo,1,9,0,0,0,23,"[0, 25, 10, 20, 21, 28, 8, 23]",8,1,[9],56.23437029,48449,1215,1,0,9,4.094155669069095
undo,1,9,0,0,1,9,"[0, 25, 10, 20, 21, 28, 8, 23, 9]",9,0,[],33.87369051,49739,1290,1,0,9,3.573855889055686
undo,1,9,1,0,0,23,"[0, 25, 10, 20, 21, 28, 8, 23]",8,1,[9],56.23437029,54458,4719,1,0,9,4.094155669069095
undo,1,9,1,0,0,8,"[0, 25, 10, 20, 21, 28, 8]",7,3,"[9, 23, 26]",77.70528084,54774,316,2,1,9,3.4852880207547177
undo,1,9,1,0,0,28,"[0, 25, 10, 20, 21, 28]",6,4,"[8, 9, 23, 26]",88.52193467,55041,267,4,4,9,2.8471728698277694
undo,1,9,1,0,0,21,"[0, 25, 10, 20, 21]",5,11,"[8, 9, 15, 16, 17, 18, 19, 22, 23, 26, 28]",141.5219347,55275,234,7,23,9,1.3369987418374067
undo,1,9,1,0,0,20,"[0, 25, 10, 20]",4,13,"[8, 9, 15, 16, 17, 18, 19, 21, 22, 23, 26, 27, 28]",153.6049806,55508,233,7,31,9,1.1559102626209
undo,1,9,1,0,0,10,"[0, 25, 10]",3,20,"[3, 4, 5, 7, 8, 9, 11, 13, 15, 16, 17, 18, 19, 20, 21, 22, 23, 26, 27, 28]",236.0670932,55708,200,2,76,10,1.1767014107208227
undo,1,9,1,0,0,25,"[0, 25]",2,24,"[1, 3, 4, 5, 6, 7, 8, 9, 10, 11, 13, 15, 16, 17, 18, 19, 20, 21, 22, 23, 24, 26, 27, 28]",275.9168108,55925,217,2,104,10,1.0
undo,1,9,0,0,0,27,"[0, 25, 27]",3,16,"[3, 4, 7, 8, 9, 10, 11, 17, 18, 19, 20, 21, 22, 23, 26, 28]",240.0141647,61121,5196,9,144,9,1.119130927524002
undo,1,9,0,0,0,10,"[0, 25, 27, 10]",4,13,"[4, 7, 8, 9, 11, 17, 18, 20, 21, 22, 23, 26, 28]",174.2494325,62022,901,8,67,9,2.3144711789671666
undo,1,9,0,0,0,28,"[0, 25, 27, 10, 28]",5,9,"[7, 8, 9, 18, 20, 21, 22, 23, 26]",117.2494325,63654,1632,1,16,9,2.4604086334896893
undo,1,9,1,0,0,10,"[0, 25, 27, 10]",4,13,"[4, 7, 8, 9, 11, 17, 18, 20, 21, 22, 23, 26, 28]",174.2494325,65725,2071,8,67,9,2.3144711789671666
undo,1,9,0,0,0,20,"[0, 25, 27, 10, 20]",5,7,"[8, 17, 21, 22, 23, 26, 28]",91.78732,66892,1167,3,6,8,1.6440120340583213
undo,1,9,0,0,0,21,"[0, 25, 27, 10, 20, 21]",6,4,"[8, 23, 26, 28]",79.70427402,67523,631,3,2,8,1.8585228681954267
undo,1,9,0,0,0,28,"[0, 25, 27, 10, 20, 21, 28]",7,2,"[8, 23]",26.70427402,69449,1926,2,0,8,3.6794368022798305
undo,1,9,0,0,1,8,"[0, 25, 27, 10, 20, 21, 28, 8]",8,0,[],15.8876202,70223,774,1,0,8,4.454507410733107
undo,1,9,1,0,0,28,"[0, 25, 27, 10, 20, 21, 28]",7,2,"[8, 23]",26.70427402,71993,1770,2,0,8,3.6794368022798305
undo,1,9,1,0,0,21,"[0, 25, 27, 10, 20, 21]",6,4,"[8, 23, 26, 28]",79.70427402,72358,365,3,2,8,1.8585228681954267
undo,1,9,1,0,0,20,"[0, 25, 27, 10, 20]",5,7,"[8, 17, 21, 22, 23, 26, 28]",91.78732,72509,151,3,6,8,1.6440120340583213
undo,1,9,1,0,0,10,"[0, 25, 27, 10]",4,13,"[4, 7, 8, 9, 11, 17, 18, 20, 21, 22, 23, 26, 28]",174.2494325,72675,166,8,67,9,2.3144711789671666
undo,1,9,1,0,0,27,"[0, 25, 27]",3,16,"[3, 4, 7, 8, 9, 10, 11, 17, 18, 19, 20, 21, 22, 23, 26, 28]",240.0141647,72841,166,9,144,9,1.119130927524002
undo,1,9,1,0,0,25,"[0, 25]",2,24,"[1, 3, 4, 5, 6, 7, 8, 9, 10, 11, 13, 15, 16, 17, 18, 19, 20, 21, 22, 23, 24, 26, 27, 28]",275.9168108,73008,167,2,104,10,1.0
undo,1,9,1,0,0,0,[0],1,27,"[1, 3, 4, 5, 6, 7, 8, 9, 10, 11, 13, 14, 15, 16, 17, 18, 19, 20, 21, 22, 23, 24, 25, 26, 27, 28, 29]",300,73175,167,2,182,10,0.0
undo,1,9,0,0,0,25,"[0, 25]",2,24,"[1, 3, 4, 5, 6, 7, 8, 9, 10, 11, 13, 15, 16, 17, 18, 19, 20, 21, 22, 23, 24, 26, 27, 28]",275.9168108,74165,990,2,104,10,1.0
undo,1,9,0,0,0,10,"[0, 25, 10]",3,20,"[3, 4, 5, 7, 8, 9, 11, 13, 15, 16, 17, 18, 19, 20, 21, 22, 23, 26, 27, 28]",236.0670932,74898,733,2,76,10,1.1767014107208227
undo,1,9,0,0,0,20,"[0, 25, 10, 20]",4,13,"[8, 9, 15, 16, 17, 18, 19, 21, 22, 23, 26, 27, 28]",153.6049806,75983,1085,7,31,9,1.1559102626209
undo,1,9,0,0,0,21,"[0, 25, 10, 20, 21]",5,11,"[8, 9, 15, 16, 17, 18, 19, 22, 23, 26, 28]",141.5219347,76500,517,7,23,9,1.3369987418374067
undo,1,9,0,0,0,28,"[0, 25, 10, 20, 21, 28]",6,4,"[8, 9, 23, 26]",88.52193467,77800,1300,4,4,9,2.8471728698277694
undo,1,9,0,0,0,8,"[0, 25, 10, 20, 21, 28, 8]",7,3,"[9, 23, 26]",77.70528084,78482,682,2,1,9,3.4852880207547177
undo,1,9,0,0,0,23,"[0, 25, 10, 20, 21, 28, 8, 23]",8,1,[9],56.23437029,79753,1271,1,0,9,4.094155669069095
undo,1,9,0,0,1,9,"[0, 25, 10, 20, 21, 28, 8, 23, 9]",9,0,[],33.87369051,80604,851,1,0,9,3.573855889055686
undo,1,9,0,1,1,9,"[0, 25, 10, 20, 21, 28, 8, 23, 9]",9,0,[],33.87369051,94561,13957,1,0,9,3.573855889055686
undo,2,29,0,0,0,0,[0],1,29,"[1, 2, 3, 4, 5, 6, 7, 8, 9, 10, 11, 12, 13, 14, 15, 16, 17, 18, 19, 20, 21, 22, 23, 24, 25, 26, 27, 28, 29]",300,130,-1,1,78,9,0.0
undo,2,29,0,0,0,25,"[0, 25]",2,18,"[1, 2, 4, 5, 6, 7, 9, 10, 12, 13, 14, 15, 16, 17, 22, 26, 27, 28]",223.3449284,6486,6356,13,101,8,1.0
undo,2,29,0,0,0,1,"[0, 25, 1]",3,15,"[4, 5, 6, 7, 9, 10, 12, 13, 14, 15, 17, 22, 26, 27, 28]",187.8343666,7203,717,11,61,8,1.308415527582314
undo,2,29,0,0,0,14,"[0, 25, 1, 14]",4,12,"[4, 5, 6, 7, 9, 12, 13, 17, 22, 26, 27, 28]",144.8809034,9127,1924,9,32,8,1.7138400796467363
undo,2,29,0,0,0,13,"[0, 25, 1, 14, 13]",5,10,"[4, 5, 6, 7, 9, 12, 17, 22, 27, 28]",126.853147,10061,934,9,15,8,1.5995815549042065
undo,2,29,0,0,0,5,"[0, 25, 1, 14, 13, 5]",6,7,"[4, 7, 9, 12, 22, 27, 28]",101.1432268,11520,1459,7,3,8,1.6003565067425858
undo,2,29,0,0,0,22,"[0, 25, 1, 14, 13, 5, 22]",7,2,"[12, 27]",46.8017141,12827,1307,2,0,8,2.1647205491966353
undo,2,29,0,0,1,27,"[0, 25, 1, 14, 13, 5, 22, 27]",8,0,[],13.56017382,14537,1710,1,0,8,2.6438471832293193
undo,2,29,1,0,0,22,"[0, 25, 1, 14, 13, 5, 22]",7,2,"[12, 27]",46.8017141,18764,4227,2,0,8,2.1647205491966353
undo,2,29,1,0,0,5,"[0, 25, 1, 14, 13, 5]",6,7,"[4, 7, 9, 12, 22, 27, 28]",101.1432268,18996,232,7,3,8,1.6003565067425858
undo,2,29,1,0,0,13,"[0, 25, 1, 14, 13]",5,10,"[4, 5, 6, 7, 9, 12, 17, 22, 27, 28]",126.853147,19163,167,9,15,8,1.5995815549042065
undo,2,29,1,0,0,14,"[0, 25, 1, 14]",4,12,"[4, 5, 6, 7, 9, 12, 13, 17, 22, 26, 27, 28]",144.8809034,19363,200,9,32,8,1.7138400796467363
undo,2,29,1,0,0,1,"[0, 25, 1]",3,15,"[4, 5, 6, 7, 9, 10, 12, 13, 14, 15, 17, 22, 26, 27, 28]",187.8343666,19513,150,11,61,8,1.308415527582314
undo,2,29,1,0,0,25,"[0, 25]",2,18,"[1, 2, 4, 5, 6, 7, 9, 10, 12, 13, 14, 15, 16, 17, 22, 26, 27, 28]",223.3449284,19698,185,13,101,8,1.0
undo,2,29,1,0,0,0,[0],1,29,"[1, 2, 3, 4, 5, 6, 7, 8, 9, 10, 11, 12, 13, 14, 15, 16, 17, 18, 19, 20, 21, 22, 23, 24, 25, 26, 27, 28, 29]",300,20013,315,1,78,9,0.0
undo,2,29,0,0,0,6,"[0, 6]",2,28,"[1, 2, 3, 4, 5, 7, 8, 9, 10, 11, 12, 13, 14, 15, 16, 17, 18, 19, 20, 21, 22, 23, 24, 25, 26, 27, 28, 29]",228.4108947,21427,1414,1,25,9,1.0
undo,2,29,0,0,0,28,"[0, 6, 28]",3,24,"[1, 3, 4, 5, 7, 9, 10, 11, 12, 13, 14, 15, 16, 17, 18, 20, 21, 22, 23, 24, 25, 26, 27, 29]",187.1798384,22369,942,1,22,9,1.162106788166845
undo,2,29,0,0,0,27,"[0, 6, 28, 27]",4,19,"[1, 3, 4, 5, 7, 9, 10, 11, 12, 13, 14, 15, 16, 21, 22, 23, 25, 26, 29]",166.6615539,23285,916,1,21,9,1.2307173895439045
undo,2,29,0,0,0,22,"[0, 6, 28, 27, 22]",5,13,"[1, 3, 4, 5, 7, 9, 12, 13, 14, 15, 21, 26, 29]",133.4200136,24417,1132,1,19,9,1.4241767805149903
undo,2,29,0,0,0,12,"[0, 6, 28, 27, 22, 12]",6,8,"[4, 5, 7, 9, 13, 14, 21, 26]",95.4726817,25577,1160,1,6,9,1.3248355326460857
undo,2,29,0,0,0,7,"[0, 6, 28, 27, 22, 12, 7]",7,4,"[4, 5, 9, 21]",81.87121119,26236,659,1,3,9,1.3264091962339806
undo,2,29,0,0,0,9,"[0, 6, 28, 27, 22, 12, 7, 9]",8,1,[4],52.80232748,27079,843,1,0,9,1.309391257644539
undo,2,29,0,0,1,4,"[0, 6, 28, 27, 22, 12, 7, 9, 4]",9,0,[],11.76575843,28321,1242,1,0,9,1.6396807789841599
undo,2,29,0,1,1,4,"[0, 6, 28, 27, 22, 12, 7, 9, 4]",9,0,[],11.76575843,34412,6091,1,0,9,1.6396807789841599
undo,3,17,0,0,0,0,[0],1,28,"[1, 2, 3, 4, 5, 6, 7, 8, 9, 10, 11, 12, 13, 14, 15, 16, 17, 18, 19, 20, 22, 23, 24, 25, 26, 27, 28, 29]",300,128,-1,2,73,8,0.0
undo,3,17,0,0,0,9,"[0, 9]",2,25,"[1, 2, 3, 5, 6, 7, 8, 10, 11, 12, 14, 15, 16, 17, 18, 19, 20, 22, 23, 24, 25, 26, 27, 28, 29]",210.5293344,6409,6281,1,34,8,1.0
undo,3,17,0,0,0,16,"[0, 9, 16]",3,21,"[1, 2, 3, 5, 7, 8, 10, 11, 12, 14, 17, 18, 19, 20, 22, 23, 25, 26, 27, 28, 29]",197.1876704,6968,559,1,26,8,1.173103464220352
undo,3,17,0,0,0,2,"[0, 9, 16, 2]",4,18,"[1, 3, 5, 7, 8, 10, 11, 12, 14, 17, 18, 19, 23, 25, 26, 27, 28, 29]",181.0631549,7684,716,1,23,8,1.14825089247282
undo,3,17,0,0,0,17,"[0, 9, 16, 2, 17]",5,7,"[7, 8, 12, 14, 26, 27, 29]",142.7356191,9067,1383,4,5,7,1.4896040699768547
undo,3,17,0,0,0,8,"[0, 9, 16, 2, 17, 8]",6,3,"[7, 12, 27]",104.5256727,9920,853,3,0,7,1.4604726966175894
undo,3,17,0,0,1,27,"[0, 9, 16, 2, 17, 8, 27]",7,0,[],21.88790895,11061,1141,1,0,7,1.2949460667276491
undo,3,17,1,0,0,8,"[0, 9, 16, 2, 17, 8]",6,3,"[7, 12, 27]",104.5256727,14028,2967,3,0,7,1.4604726966175894
undo,3,17,1,0,0,17,"[0, 9, 16, 2, 17]",5,7,"[7, 8, 12, 14, 26, 27, 29]",142.7356191,14244,216,4,5,7,1.4896040699768547
undo,3,17,1,0,0,2,"[0, 9, 16, 2]",4,18,"[1, 3, 5, 7, 8, 10, 11, 12, 14, 17, 18, 19, 23, 25, 26, 27, 28, 29]",181.0631549,14411,167,1,23,8,1.14825089247282
undo,3,17,1,0,0,16,"[0, 9, 16]",3,21,"[1, 2, 3, 5, 7, 8, 10, 11, 12, 14, 17, 18, 19, 20, 22, 23, 25, 26, 27, 28, 29]",197.1876704,14794,383,1,26,8,1.173103464220352
undo,3,17,1,0,0,9,"[0, 9]",2,25,"[1, 2, 3, 5, 6, 7, 8, 10, 11, 12, 14, 15, 16, 17, 18, 19, 20, 22, 23, 24, 25, 26, 27, 28, 29]",210.5293344,15227,433,1,34,8,1.0
undo,3,17,1,0,0,0,[0],1,28,"[1, 2, 3, 4, 5, 6, 7, 8, 9, 10, 11, 12, 13, 14, 15, 16, 17, 18, 19, 20, 22, 23, 24, 25, 26, 27, 28, 29]",300,16611,1384,2,73,8,0.0
undo,3,17,0,0,0,19,"[0, 19]",2,9,"[3, 4, 5, 10, 11, 18, 20, 22, 28]",138.1049723,17185,574,1,8,6,1.0
undo,3,17,0,0,0,5,"[0, 19, 5]",3,5,"[3, 10, 11, 22, 28]",98.81120687,17926,741,1,5,6,1.1200340368749155
undo,3,17,0,0,0,28,"[0, 19, 5, 28]",4,2,"[3, 11]",60.32744406,18667,741,1,1,6,1.1548774814009009
undo,3,17,0,0,0,3,"[0, 19, 5, 28, 3]",5,1,[11],26.32744406,19500,833,1,0,6,1.444690353691831
undo,3,17,1,0,0,28,"[0, 19, 5, 28]",4,2,"[3, 11]",60.32744406,21544,2044,1,1,6,1.1548774814009009
undo,3,17,1,0,0,5,"[0, 19, 5]",3,5,"[3, 10, 11, 22, 28]",98.81120687,21778,234,1,5,6,1.1200340368749155
undo,3,17,1,0,0,19,"[0, 19]",2,9,"[3, 4, 5, 10, 11, 18, 20, 22, 28]",138.1049723,21979,201,1,8,6,1.0
undo,3,17,1,0,0,0,[0],1,28,"[1, 2, 3, 4, 5, 6, 7, 8, 9, 10, 11, 12, 13, 14, 15, 16, 17, 18, 19, 20, 22, 23, 24, 25, 26, 27, 28, 29]",300,22177,198,2,73,8,0.0
undo,3,17,0,0,0,16,"[0, 16]",2,23,"[1, 2, 3, 5, 7, 8, 9, 10, 11, 12, 14, 17, 18, 19, 20, 22, 23, 24, 25, 26, 27, 28, 29]",212.3586855,27838,5661,1,29,8,1.0
undo,3,17,0,0,0,2,"[0, 16, 2]",3,21,"[1, 3, 5, 7, 8, 9, 10, 11, 12, 14, 17, 18, 19, 20, 23, 24, 25, 26, 27, 28, 29]",196.23417,30260,2422,13,69,7,1.0017855005780958
undo,3,17,0,0,0,9,"[0, 16, 2, 9]",4,18,"[1, 3, 5, 7, 8, 10, 11, 12, 14, 17, 18, 19, 20, 23, 26, 27, 28, 29]",174.2796716,31810,1550,8,20,7,1.4051569593199464
undo,3,17,0,0,0,10,"[0, 16, 2, 9, 10]",5,4,"[3, 11, 23, 28]",69.35588978,32650,840,3,2,7,1.2722396995838043
undo,3,17,0,0,0,11,"[0, 16, 2, 9, 10, 11]",6,1,[3],47.40139138,34073,1423,1,0,7,1.2453711775520944
undo,3,17,0,0,1,3,"[0, 16, 2, 9, 10, 11, 3]",7,0,[],21.22888673,34934,861,1,0,7,1.4716051335355602
undo,3,17,1,0,0,11,"[0, 16, 2, 9, 10, 11]",6,1,[3],47.40139138,42295,7361,1,0,7,1.2453711775520944
undo,3,17,1,0,0,10,"[0, 16, 2, 9, 10]",5,4,"[3, 11, 23, 28]",69.35588978,42595,300,3,2,7,1.2722396995838043
undo,3,17,1,0,0,9,"[0, 16, 2, 9]",4,18,"[1, 3, 5, 7, 8, 10, 11, 12, 14, 17, 18, 19, 20, 23, 26, 27, 28, 29]",174.2796716,43046,451,8,20,7,1.4051569593199464
undo,3,17,1,0,0,2,"[0, 16, 2]",3,21,"[1, 3, 5, 7, 8, 9, 10, 11, 12, 14, 17, 18, 19, 20, 23, 24, 25, 26, 27, 28, 29]",196.23417,43811,765,13,69,7,1.0017855005780958
undo,3,17,1,0,0,16,"[0, 16]",2,23,"[1, 2, 3, 5, 7, 8, 9, 10, 11, 12, 14, 17, 18, 19, 20, 22, 23, 24, 25, 26, 27, 28, 29]",212.3586855,44360,549,1,29,8,1.0
undo,3,17,1,0,0,0,[0],1,28,"[1, 2, 3, 4, 5, 6, 7, 8, 9, 10, 11, 12, 13, 14, 15, 16, 17, 18, 19, 20, 22, 23, 24, 25, 26, 27, 28, 29]",300,45611,1251,2,73,8,0.0
undo,3,17,0,0,0,9,"[0, 9]",2,25,"[1, 2, 3, 5, 6, 7, 8, 10, 11, 12, 14, 15, 16, 17, 18, 19, 20, 22, 23, 24, 25, 26, 27, 28, 29]",210.5293344,46372,761,1,34,8,1.0
undo,3,17,0,0,0,16,"[0, 9, 16]",3,21,"[1, 2, 3, 5, 7, 8, 10, 11, 12, 14, 17, 18, 19, 20, 22, 23, 25, 26, 27, 28, 29]",197.1876704,46970,598,1,26,8,1.173103464220352
undo,3,17,0,0,0,2,"[0, 9, 16, 2]",4,18,"[1, 3, 5, 7, 8, 10, 11, 12, 14, 17, 18, 19, 23, 25, 26, 27, 28, 29]",181.0631549,47858,888,1,23,8,1.14825089247282
undo,3,17,0,0,0,8,"[0, 9, 16, 2, 8]",5,9,"[3, 7, 10, 11, 12, 14, 17, 26, 27]",145.9490551,48823,965,1,9,8,1.1509808066472915
undo,3,17,0,0,0,10,"[0, 9, 16, 2, 8, 10]",6,1,[11],25.35054767,49818,995,1,0,7,1.5149744616928704
undo,3,17,0,0,1,11,"[0, 9, 16, 2, 8, 10, 11]",7,0,[],3.39604927,50466,648,1,0,7,1.462327973242751
undo,3,17,0,1,1,11,"[0, 9, 16, 2, 8, 10, 11]",7,0,[],3.39604927,55177,4711,1,0,7,1.462327973242751
undo,4,7,0,0,0,0,[0],1,29,"[1, 2, 3, 4, 5, 6, 7, 8, 9, 10, 11, 12, 13, 14, 15, 16, 17, 18, 19, 20, 21, 22, 23, 24, 25, 26, 27, 28, 29]",300,141,-1,3,79,9,0.0
undo,4,7,0,0,0,25,"[0, 25]",2,20,"[2, 3, 4, 5, 6, 7, 10, 13, 14, 15, 16, 18, 19, 20, 21, 22, 23, 24, 27, 28]",181.5939191,5220,5079,5,33,8,1.0
undo,4,7,0,0,0,4,"[0, 25, 4]",3,11,"[2, 6, 7, 13, 15, 16, 18, 19, 20, 21, 23]",156.8552853,5915,695,2,14,8,1.0193465608331511
undo,4,7,0,0,0,20,"[0, 25, 4, 20]",4,8,"[2, 6, 7, 13, 15, 16, 18, 19]",137.2084026,6698,783,1,9,8,1.085904909082323
undo,4,7,0,0,0,18,"[0, 25, 4, 20, 18]",5,7,"[2, 6, 7, 13, 15, 16, 19]",124.4021541,7500,802,1,5,8,1.2264883846453758
undo,4,7,0,0,0,7,"[0, 25, 4, 20, 18, 7]",6,2,"[2, 19]",83.17109789,8532,1032,1,1,8,1.185264473968278
undo,4,7,0,0,0,19,"[0, 25, 4, 20, 18, 7, 19]",7,1,[2],53.76021555,10131,1599,1,0,8,1.3016904288278204
undo,4,7,0,0,1,2,"[0, 25, 4, 20, 18, 7, 19, 2]",8,0,[],23.61058868,11048,917,1,0,8,1.3168868000947171
undo,4,7,1,0,0,19,"[0, 25, 4, 20, 18, 7, 19]",7,1,[2],53.76021555,16807,5759,1,0,8,1.3016904288278204
undo,4,7,1,0,0,7,"[0, 25, 4, 20, 18, 7]",6,2,"[2, 19]",83.17109789,17190,383,1,1,8,1.185264473968278
undo,4,7,1,0,0,18,"[0, 25, 4, 20, 18]",5,7,"[2, 6, 7, 13, 15, 16, 19]",124.4021541,17574,384,1,5,8,1.2264883846453758
undo,4,7,1,0,0,20,"[0, 25, 4, 20]",4,8,"[2, 6, 7, 13, 15, 16, 18, 19]",137.2084026,17841,267,1,9,8,1.085904909082323
undo,4,7,1,0,0,4,"[0, 25, 4]",3,11,"[2, 6, 7, 13, 15, 16, 18, 19, 20, 21, 23]",156.8552853,18074,233,2,14,8,1.0193465608331511
undo,4,7,1,0,0,25,"[0, 25]",2,20,"[2, 3, 4, 5, 6, 7, 10, 13, 14, 15, 16, 18, 19, 20, 21, 22, 23, 24, 27, 28]",181.5939191,18457,383,5,33,8,1.0
undo,4,7,1,0,0,0,[0],1,29,"[1, 2, 3, 4, 5, 6, 7, 8, 9, 10, 11, 12, 13, 14, 15, 16, 17, 18, 19, 20, 21, 22, 23, 24, 25, 26, 27, 28, 29]",300,18890,433,3,79,9,0.0
undo,4,7,0,0,0,6,"[0, 6]",2,22,"[2, 4, 5, 7, 8, 9, 10, 11, 13, 14, 15, 16, 18, 19, 20, 21, 22, 23, 24, 25, 27, 28]",231.1160396,22846,3956,1,24,9,1.0
undo,4,7,0,0,0,25,"[0, 6, 25]",3,14,"[2, 4, 5, 7, 13, 14, 15, 16, 18, 19, 20, 21, 23, 28]",163.9371739,23723,877,1,15,9,1.1491202566384209
undo,4,7,0,0,0,4,"[0, 6, 25, 4]",4,10,"[2, 7, 13, 15, 16, 18, 19, 20, 21, 23]",139.1985401,25897,2174,1,9,9,1.145081852791697
undo,4,7,0,0,0,20,"[0, 6, 25, 4, 20]",5,6,"[2, 7, 13, 16, 18, 19]",119.5516574,27134,1237,1,4,9,1.2036846139155144
undo,4,7,0,0,0,18,"[0, 6, 25, 4, 20, 18]",6,5,"[2, 7, 13, 16, 19]",106.7454089,28070,936,1,3,9,1.3498144584217913
undo,4,7,0,0,0,7,"[0, 6, 25, 4, 20, 18, 7]",7,2,"[2, 19]",65.51435269,29055,985,1,1,9,1.2817825700699357
undo,4,7,0,0,0,19,"[0, 6, 25, 4, 20, 18, 7, 19]",8,1,[2],36.10347035,29972,917,1,0,9,1.3950287830764145
undo,4,7,0,0,1,2,"[0, 6, 25, 4, 20, 18, 7, 19, 2]",9,0,[],5.953843486,31312,1340,1,0,9,1.4010142439340676
undo,4,7,0,1,1,2,"[0, 6, 25, 4, 20, 18, 7, 19, 2]",9,0,[],5.953843486,39106,7794,1,0,9,1.4010142439340676
undo,5,19,0,0,0,0,[0],1,29,"[1, 2, 3, 4, 5, 6, 7, 8, 9, 10, 11, 12, 13, 14, 15, 16, 17, 18, 19, 20, 21, 22, 23, 24, 25, 26, 27, 28, 29]",300,131,-1,12,149,8,0.0
undo,5,19,0,0,0,16,"[0, 16]",2,13,"[1, 2, 3, 5, 8, 12, 13, 15, 17, 19, 23, 25, 29]",194.2408396,8385,8254,1,26,7,1.0
undo,5,19,0,0,0,12,"[0, 16, 12]",3,10,"[1, 2, 3, 8, 13, 17, 19, 23, 25, 29]",126.5651424,9540,1155,1,12,7,1.450081650625254
undo,5,19,0,0,0,25,"[0, 16, 12, 25]",4,8,"[1, 2, 3, 8, 13, 17, 19, 23]",109.4478996,10243,703,7,5,6,1.397346049588307
undo,5,19,0,0,0,17,"[0, 16, 12, 25, 17]",5,4,"[1, 2, 3, 23]",98.40253859,10918,675,4,0,6,1.454525624255785
undo,5,19,0,0,1,23,"[0, 16, 12, 25, 17, 23]",6,0,[],19.68786398,13548,2630,1,0,6,1.5589746326845748
undo,5,19,1,0,0,17,"[0, 16, 12, 25, 17]",5,4,"[1, 2, 3, 23]",98.40253859,18660,5112,4,0,6,1.454525624255785
undo,5,19,1,0,0,25,"[0, 16, 12, 25]",4,8,"[1, 2, 3, 8, 13, 17, 19, 23]",109.4478996,20644,1984,7,5,6,1.397346049588307
undo,5,19,1,0,0,12,"[0, 16, 12]",3,10,"[1, 2, 3, 8, 13, 17, 19, 23, 25, 29]",126.5651424,20993,349,1,12,7,1.450081650625254
undo,5,19,1,0,0,16,"[0, 16]",2,13,"[1, 2, 3, 5, 8, 12, 13, 15, 17, 19, 23, 25, 29]",194.2408396,21261,268,1,26,7,1.0
undo,5,19,1,0,0,0,[0],1,29,"[1, 2, 3, 4, 5, 6, 7, 8, 9, 10, 11, 12, 13, 14, 15, 16, 17, 18, 19, 20, 21, 22, 23, 24, 25, 26, 27, 28, 29]",300,21660,399,12,149,8,0.0
undo,5,19,0,0,0,29,"[0, 29]",2,28,"[1, 2, 3, 4, 5, 6, 7, 8, 9, 10, 11, 12, 13, 14, 15, 16, 17, 18, 19, 20, 21, 22, 23, 24, 25, 26, 27, 28]",265.0715016,23585,1925,12,120,8,1.0
undo,5,19,0,0,0,9,"[0, 29, 9]",3,17,"[1, 4, 5, 6, 7, 10, 11, 12, 13, 14, 19, 20, 21, 22, 24, 27, 28]",181.7108394,24732,1147,11,65,8,1.0375842971861238
undo,5,19,0,0,0,6,"[0, 29, 9, 6]",4,12,"[4, 7, 10, 11, 13, 14, 20, 21, 22, 24, 27, 28]",140.2741407,25502,770,11,34,8,1.0389786364356892
undo,5,19,0,0,0,4,"[0, 29, 9, 6, 4]",5,7,"[10, 11, 14, 20, 22, 27, 28]",99.22538921,26902,1400,2,6,8,1.2182485830176533
undo,5,19,0,0,0,28,"[0, 29, 9, 6, 4, 28]",6,3,"[11, 14, 27]",88.04504932,27517,615,2,1,8,1.2933703503588658
undo,5,19,0,0,1,27,"[0, 29, 9, 6, 4, 28, 27]",7,0,[],35.64275929,29600,2083,1,0,7,1.697599891123485
undo,5,19,1,0,0,28,"[0, 29, 9, 6, 4, 28]",6,3,"[11, 14, 27]",88.04504932,30827,1227,2,1,8,1.2933703503588658
undo,5,19,0,0,0,14,"[0, 29, 9, 6, 4, 28, 14]",7,1,[11],30.46032912,32158,1331,1,0,8,1.2889112786863766
undo,5,19,0,0,1,11,"[0, 29, 9, 6, 4, 28, 14, 11]",8,0,[],19.6436753,32989,831,1,0,8,1.2786737377290265
undo,5,19,1,0,0,14,"[0, 29, 9, 6, 4, 28, 14]",7,1,[11],30.46032912,42043,9054,1,0,8,1.2889112786863766
undo,5,19,1,0,0,28,"[0, 29, 9, 6, 4, 28]",6,3,"[11, 14, 27]",88.04504932,42277,234,2,1,8,1.2933703503588658
undo,5,19,1,0,0,4,"[0, 29, 9, 6, 4]",5,7,"[10, 11, 14, 20, 22, 27, 28]",99.22538921,42493,216,2,6,8,1.2182485830176533
undo,5,19,1,0,0,6,"[0, 29, 9, 6]",4,12,"[4, 7, 10, 11, 13, 14, 20, 21, 22, 24, 27, 28]",140.2741407,42694,201,11,34,8,1.0389786364356892
undo,5,19,1,0,0,9,"[0, 29, 9]",3,17,"[1, 4, 5, 6, 7, 10, 11, 12, 13, 14, 19, 20, 21, 22, 24, 27, 28]",181.7108394,43027,333,11,65,8,1.0375842971861238
undo,5,19,1,0,0,29,"[0, 29]",2,28,"[1, 2, 3, 4, 5, 6, 7, 8, 9, 10, 11, 12, 13, 14, 15, 16, 17, 18, 19, 20, 21, 22, 23, 24, 25, 26, 27, 28]",265.0715016,43377,350,12,120,8,1.0
undo,5,19,1,0,0,0,[0],1,29,"[1, 2, 3, 4, 5, 6, 7, 8, 9, 10, 11, 12, 13, 14, 15, 16, 17, 18, 19, 20, 21, 22, 23, 24, 25, 26, 27, 28, 29]",300,43977,600,12,149,8,0.0
undo,5,19,0,0,0,9,"[0, 9]",2,21,"[1, 4, 5, 6, 7, 10, 11, 12, 13, 14, 15, 19, 20, 21, 22, 23, 24, 25, 27, 28, 29]",185.9956141,44648,671,13,76,7,1.0
undo,5,19,0,0,0,6,"[0, 9, 6]",3,13,"[4, 7, 10, 11, 13, 14, 20, 21, 22, 24, 27, 28, 29]",144.5589154,45874,1226,13,38,7,1.0111071984935167
undo,5,19,0,0,0,4,"[0, 9, 6, 4]",4,7,"[10, 11, 14, 20, 22, 27, 28]",103.5101639,49251,3377,2,8,7,1.1922496747189233
undo,5,19,0,0,0,28,"[0, 9, 6, 4, 28]",5,4,"[11, 14, 22, 27]",92.32982402,49924,673,2,2,7,1.2672242257358344
undo,5,19,0,0,0,14,"[0, 9, 6, 4, 28, 14]",6,1,[11],34.74510382,51325,1401,1,0,7,1.2684219220754205
undo,5,19,0,0,1,11,"[0, 9, 6, 4, 28, 14, 11]",7,0,[],23.92845,52052,727,1,0,7,1.2591313611236885
undo,5,19,1,0,0,14,"[0, 9, 6, 4, 28, 14]",6,1,[11],34.74510382,54278,2226,1,0,7,1.2684219220754205
undo,5,19,1,0,0,28,"[0, 9, 6, 4, 28]",5,4,"[11, 14, 22, 27]",92.32982402,54643,365,2,2,7,1.2672242257358344
undo,5,19,1,0,0,4,"[0, 9, 6, 4]",4,7,"[10, 11, 14, 20, 22, 27, 28]",103.5101639,54910,267,2,8,7,1.1922496747189233
undo,5,19,1,0,0,6,"[0, 9, 6]",3,13,"[4, 7, 10, 11, 13, 14, 20, 21, 22, 24, 27, 28, 29]",144.5589154,55110,200,13,38,7,1.0111071984935167
undo,5,19,1,0,0,9,"[0, 9]",2,21,"[1, 4, 5, 6, 7, 10, 11, 12, 13, 14, 15, 19, 20, 21, 22, 23, 24, 25, 27, 28, 29]",185.9956141,55327,217,13,76,7,1.0
undo,5,19,1,0,0,0,[0],1,29,"[1, 2, 3, 4, 5, 6, 7, 8, 9, 10, 11, 12, 13, 14, 15, 16, 17, 18, 19, 20, 21, 22, 23, 24, 25, 26, 27, 28, 29]",300,55527,200,12,149,8,0.0
undo,5,19,0,0,0,29,"[0, 29]",2,28,"[1, 2, 3, 4, 5, 6, 7, 8, 9, 10, 11, 12, 13, 14, 15, 16, 17, 18, 19, 20, 21, 22, 23, 24, 25, 26, 27, 28]",265.0715016,56658,1131,12,120,8,1.0
undo,5,19,0,0,0,9,"[0, 29, 9]",3,17,"[1, 4, 5, 6, 7, 10, 11, 12, 13, 14, 19, 20, 21, 22, 24, 27, 28]",181.7108394,57423,765,11,65,8,1.0375842971861238
undo,5,19,0,0,0,6,"[0, 29, 9, 6]",4,12,"[4, 7, 10, 11, 13, 14, 20, 21, 22, 24, 27, 28]",140.2741407,58373,950,11,34,8,1.0389786364356892
undo,5,19,0,0,0,22,"[0, 29, 9, 6, 22]",5,7,"[4, 7, 10, 11, 14, 20, 24]",79.27414071,62116,3743,2,4,8,1.0360889604738772
undo,5,19,0,0,0,20,"[0, 29, 9, 6, 22, 20]",6,4,"[10, 11, 14, 24]",66.12119427,63169,1053,2,2,8,1.0344974630090689
undo,5,19,1,0,0,22,"[0, 29, 9, 6, 22]",5,7,"[4, 7, 10, 11, 14, 20, 24]",79.27414071,65509,2340,2,4,8,1.0360889604738772
undo,5,19,1,0,0,6,"[0, 29, 9, 6]",4,12,"[4, 7, 10, 11, 13, 14, 20, 21, 22, 24, 27, 28]",140.2741407,65861,352,11,34,8,1.0389786364356892
undo,5,19,0,0,0,14,"[0, 29, 9, 6, 14]",5,7,"[4, 10, 11, 20, 22, 24, 28]",80.59164747,67056,1195,3,6,8,1.0491884155331486
undo,5,19,0,0,0,11,"[0, 29, 9, 6, 14, 11]",6,5,"[4, 20, 22, 24, 28]",69.77499364,68117,1061,3,2,8,1.050030420094996
undo,5,19,0,0,0,22,"[0, 29, 9, 6, 14, 11, 22]",7,1,[20],21.77499364,68887,770,1,0,8,1.30599041972075
undo,5,19,0,0,1,20,"[0, 29, 9, 6, 14, 11, 22, 20]",8,0,[],8.622047201,69397,510,1,0,8,1.2888288530741239
undo,5,19,0,1,1,20,"[0, 29, 9, 6, 14, 11, 22, 20]",8,0,[],8.622047201,71362,1965,1,0,8,1.2888288530741239
undo,6,18,0,0,0,0,[0],1,28,"[1, 2, 3, 4, 5, 6, 7, 8, 9, 10, 11, 12, 13, 14, 16, 17, 18, 19, 20, 21, 22, 23, 24, 25, 26, 27, 28, 29]",300,136,-1,3,136,10,0.0
undo,6,18,0,0,0,28,"[0, 28]",2,16,"[1, 3, 5, 7, 8, 9, 12, 13, 14, 16, 20, 23, 24, 25, 26, 27]",236.4311397,6681,6545,2,19,10,1.0
undo,6,18,0,0,0,7,"[0, 28, 7]",3,15,"[1, 3, 5, 8, 9, 12, 13, 14, 16, 20, 23, 24, 25, 26, 27]",214.4084242,7425,744,2,17,10,1.4345180696367563
undo,6,18,0,0,0,25,"[0, 28, 7, 25]",4,13,"[1, 3, 5, 8, 9, 12, 13, 14, 16, 20, 23, 26, 27]",186.6055466,8310,885,2,15,10,1.8896451241781882
undo,6,18,0,0,0,13,"[0, 28, 7, 25, 13]",5,10,"[3, 5, 8, 9, 12, 14, 16, 23, 26, 27]",141.3286209,10727,2417,5,21,9,1.6878978848273398
undo,6,18,0,0,0,8,"[0, 28, 7, 25, 13, 8]",6,8,"[3, 5, 9, 12, 14, 23, 26, 27]",120.2335978,11494,767,2,9,9,1.900402263134541
undo,6,18,1,0,0,13,"[0, 28, 7, 25, 13]",5,10,"[3, 5, 8, 9, 12, 14, 16, 23, 26, 27]",141.3286209,13370,1876,5,21,9,1.6878978848273398
undo,6,18,1,0,0,25,"[0, 28, 7, 25]",4,13,"[1, 3, 5, 8, 9, 12, 13, 14, 16, 20, 23, 26, 27]",186.6055466,16154,2784,2,15,10,1.8896451241781882
undo,6,18,0,0,0,8,"[0, 28, 7, 25, 8]",5,10,"[3, 5, 9, 12, 13, 14, 16, 23, 26, 27]",149.551532,16695,541,2,10,10,1.590467437592877
undo,6,18,0,0,0,13,"[0, 28, 7, 25, 8, 13]",6,9,"[3, 5, 9, 12, 14, 16, 23, 26, 27]",128.4565089,17248,553,2,5,10,1.8248274983549797
undo,6,18,0,0,0,14,"[0, 28, 7, 25, 8, 13, 14]",7,7,"[3, 5, 9, 12, 23, 26, 27]",109.4828429,18102,854,2,3,10,1.6993534956692746
undo,6,18,0,0,0,3,"[0, 28, 7, 25, 8, 13, 14, 3]",8,3,"[5, 12, 27]",79.39962499,19819,1717,2,1,10,1.802637206541468
undo,6,18,0,0,0,5,"[0, 28, 7, 25, 8, 13, 14, 3, 5]",9,1,[12],21.21887216,21409,1590,1,0,10,1.559774889743805
undo,6,18,0,0,1,12,"[0, 28, 7, 25, 8, 13, 14, 3, 5, 12]",10,0,[],9.817117911,22077,668,1,0,10,1.563993037384447
undo,6,18,0,1,1,12,"[0, 28, 7, 25, 8, 13, 14, 3, 5, 12]",10,0,[],9.817117911,36820,14743,1,0,10,1.563993037384447
undo,7,0,0,0,0,0,[0],1,27,"[2, 3, 4, 5, 6, 7, 8, 9, 10, 11, 12, 13, 14, 15, 16, 17, 19, 20, 21, 22, 23, 24, 25, 26, 27, 28, 29]",300,129,-1,104,1136,9,0.0
undo,7,0,0,0,0,28,"[0, 28]",2,26,"[2, 3, 4, 5, 6, 7, 8, 9, 10, 11, 12, 13, 14, 15, 16, 17, 19, 20, 21, 22, 23, 24, 25, 26, 27, 29]",194.9190788,5836,5707,39,388,9,1.0
undo,7,0,0,0,0,12,"[0, 28, 12]",3,19,"[3, 4, 5, 7, 8, 9, 10, 11, 13, 14, 15, 17, 19, 20, 21, 22, 23, 24, 26]",141.7683497,8207,2371,3,43,9,1.0142012686492925
undo,7,0,0,0,0,26,"[0, 28, 12, 26]",4,14,"[3, 4, 5, 7, 8, 9, 11, 14, 15, 17, 19, 20, 23, 24]",106.5405198,9195,988,3,25,9,1.1974841199765223
undo,7,0,0,0,0,4,"[0, 28, 12, 26, 4]",5,11,"[3, 5, 7, 8, 9, 11, 15, 17, 20, 23, 24]",94.49892525,10007,812,3,13,9,1.3127642586979258
undo,7,0,0,0,0,5,"[0, 28, 12, 26, 4, 5]",6,4,"[11, 15, 20, 24]",69.41905284,13043,3036,1,3,8,1.7019013951311428
undo,7,0,0,0,0,24,"[0, 28, 12, 26, 4, 5, 24]",7,1,[15],36.66237413,13865,822,1,0,8,1.5784575474301492
undo,7,0,0,0,1,15,"[0, 28, 12, 26, 4, 5, 24, 15]",8,0,[],13.31713907,14469,604,1,0,8,1.516607038412201
undo,7,0,1,0,0,24,"[0, 28, 12, 26, 4, 5, 24]",7,1,[15],36.66237413,15745,1276,1,0,8,1.5784575474301492
undo,7,0,1,0,0,5,"[0, 28, 12, 26, 4, 5]",6,4,"[11, 15, 20, 24]",69.41905284,15962,217,1,3,8,1.7019013951311428
undo,7,0,1,0,0,4,"[0, 28, 12, 26, 4]",5,11,"[3, 5, 7, 8, 9, 11, 15, 17, 20, 23, 24]",94.49892525,16145,183,3,13,9,1.3127642586979258
undo,7,0,1,0,0,26,"[0, 28, 12, 26]",4,14,"[3, 4, 5, 7, 8, 9, 11, 14, 15, 17, 19, 20, 23, 24]",106.5405198,16429,284,3,25,9,1.1974841199765223
undo,7,0,1,0,0,12,"[0, 28, 12]",3,19,"[3, 4, 5, 7, 8, 9, 10, 11, 13, 14, 15, 17, 19, 20, 21, 22, 23, 24, 26]",141.7683497,16629,200,3,43,9,1.0142012686492925
undo,7,0,1,0,0,28,"[0, 28]",2,26,"[2, 3, 4, 5, 6, 7, 8, 9, 10, 11, 12, 13, 14, 15, 16, 17, 19, 20, 21, 22, 23, 24, 25, 26, 27, 29]",194.9190788,16963,334,39,388,9,1.0
undo,7,0,0,0,0,5,"[0, 28, 5]",3,21,"[2, 3, 4, 7, 8, 9, 11, 12, 13, 14, 15, 16, 17, 19, 20, 21, 23, 24, 25, 26, 29]",151.2613189,17851,888,27,210,9,1.0978295127671733
undo,7,0,0,0,0,4,"[0, 28, 5, 4]",4,16,"[3, 7, 8, 9, 11, 12, 13, 14, 15, 17, 19, 20, 21, 23, 24, 26]",126.1814465,18458,607,17,114,9,1.1103727063761901
undo,7,0,0,0,0,26,"[0, 28, 5, 4, 26]",5,14,"[3, 7, 8, 9, 11, 12, 13, 14, 15, 17, 19, 20, 23, 24]",114.1398519,19141,683,7,54,9,1.1504454351688815
undo,7,0,0,0,0,24,"[0, 28, 5, 4, 26, 24]",6,11,"[3, 7, 8, 9, 11, 12, 15, 17, 19, 20, 23]",97.02260914,19852,711,7,22,9,1.2166555899566422
undo,7,0,0,0,0,15,"[0, 28, 5, 4, 26, 24, 15]",7,7,"[3, 7, 8, 9, 11, 12, 17]",73.67737408,20769,917,4,5,9,1.1972898774231708
undo,7,0,0,0,0,7,"[0, 28, 5, 4, 26, 24, 15, 7]",8,2,"[3, 8]",42.61292495,22042,1273,2,0,9,1.2554869594545575
undo,7,0,0,0,1,8,"[0, 28, 5, 4, 26, 24, 15, 7, 8]",9,0,[],23.50795177,24617,2575,1,0,9,1.2428648875079442
undo,7,0,1,0,0,7,"[0, 28, 5, 4, 26, 24, 15, 7]",8,2,"[3, 8]",42.61292495,28162,3545,2,0,9,1.2554869594545575
undo,7,0,1,0,0,15,"[0, 28, 5, 4, 26, 24, 15]",7,7,"[3, 7, 8, 9, 11, 12, 17]",73.67737408,28378,216,4,5,9,1.1972898774231708
undo,7,0,1,0,0,24,"[0, 28, 5, 4, 26, 24]",6,11,"[3, 7, 8, 9, 11, 12, 15, 17, 19, 20, 23]",97.02260914,28578,200,7,22,9,1.2166555899566422
undo,7,0,1,0,0,26,"[0, 28, 5, 4, 26]",5,14,"[3, 7, 8, 9, 11, 12, 13, 14, 15, 17, 19, 20, 23, 24]",114.1398519,28828,250,7,54,9,1.1504454351688815
undo,7,0,1,0,0,4,"[0, 28, 5, 4]",4,16,"[3, 7, 8, 9, 11, 12, 13, 14, 15, 17, 19, 20, 21, 23, 24, 26]",126.1814465,29011,183,17,114,9,1.1103727063761901
undo,7,0,1,0,0,5,"[0, 28, 5]",3,21,"[2, 3, 4, 7, 8, 9, 11, 12, 13, 14, 15, 16, 17, 19, 20, 21, 23, 24, 25, 26, 29]",151.2613189,29228,217,27,210,9,1.0978295127671733
undo,7,0,1,0,0,28,"[0, 28]",2,26,"[2, 3, 4, 5, 6, 7, 8, 9, 10, 11, 12, 13, 14, 15, 16, 17, 19, 20, 21, 22, 23, 24, 25, 26, 27, 29]",194.9190788,29412,184,39,388,9,1.0
undo,7,0,1,0,0,0,[0],1,27,"[2, 3, 4, 5, 6, 7, 8, 9, 10, 11, 12, 13, 14, 15, 16, 17, 19, 20, 21, 22, 23, 24, 25, 26, 27, 28, 29]",300,29596,184,104,1136,9,0.0
undo,7,0,0,0,0,4,"[0, 4]",2,21,"[2, 3, 5, 7, 8, 9, 11, 12, 13, 14, 15, 17, 19, 20, 21, 22, 23, 24, 25, 26, 28]",143.4592705,30960,1364,6,104,8,1.0
undo,7,0,0,0,0,26,"[0, 4, 26]",3,19,"[3, 5, 7, 8, 9, 11, 12, 13, 14, 15, 17, 19, 20, 21, 22, 23, 24, 25, 28]",131.4176759,34187,3227,6,42,8,1.043498389480762
undo,7,0,1,0,0,4,"[0, 4]",2,21,"[2, 3, 5, 7, 8, 9, 11, 12, 13, 14, 15, 17, 19, 20, 21, 22, 23, 24, 25, 26, 28]",143.4592705,35129,942,6,104,8,1.0
undo,7,0,1,0,0,0,[0],1,27,"[2, 3, 4, 5, 6, 7, 8, 9, 10, 11, 12, 13, 14, 15, 16, 17, 19, 20, 21, 22, 23, 24, 25, 26, 27, 28, 29]",300,35311,182,104,1136,9,0.0
undo,7,0,0,0,0,26,"[0, 26]",2,22,"[2, 3, 4, 5, 7, 8, 9, 10, 11, 12, 13, 14, 15, 17, 19, 20, 21, 22, 23, 24, 25, 28]",138.4450558,35919,608,6,62,8,1.0
undo,7,0,0,0,0,4,"[0, 26, 4]",3,18,"[2, 3, 5, 7, 8, 9, 11, 12, 13, 14, 15, 17, 19, 20, 21, 23, 24, 28]",126.4034612,36723,804,6,35,8,1.1089544511995684
undo,7,0,0,0,0,24,"[0, 26, 4, 24]",4,13,"[3, 5, 7, 8, 9, 11, 12, 15, 17, 19, 20, 23, 28]",115.001707,37752,1029,6,22,8,1.108888070524717
undo,7,0,0,0,0,15,"[0, 26, 4, 24, 15]",5,10,"[3, 5, 7, 8, 9, 11, 12, 17, 19, 28]",91.6564719,38525,773,6,9,8,1.1021770192297704
undo,7,0,0,0,0,7,"[0, 26, 4, 24, 15, 7]",6,4,"[3, 8, 17, 19]",60.59202276,39307,782,5,2,8,1.167788216855194
undo,7,0,0,0,0,8,"[0, 26, 4, 24, 15, 7, 8]",7,2,"[3, 19]",41.48704959,41588,2281,2,0,8,1.1620466884581095
undo,7,0,0,0,1,3,"[0, 26, 4, 24, 15, 7, 8, 3]",8,0,[],11.07323694,43635,2047,1,0,8,1.3329324977560215
undo,7,0,1,0,0,8,"[0, 26, 4, 24, 15, 7, 8]",7,2,"[3, 19]",41.48704959,44579,944,2,0,8,1.1620466884581095
undo,7,0,1,0,0,7,"[0, 26, 4, 24, 15, 7]",6,4,"[3, 8, 17, 19]",60.59202276,44762,183,5,2,8,1.167788216855194
undo,7,0,1,0,0,15,"[0, 26, 4, 24, 15]",5,10,"[3, 5, 7, 8, 9, 11, 12, 17, 19, 28]",91.6564719,44928,166,6,9,8,1.1021770192297704
undo,7,0,1,0,0,24,"[0, 26, 4, 24]",4,13,"[3, 5, 7, 8, 9, 11, 12, 15, 17, 19, 20, 23, 28]",115.001707,45112,184,6,22,8,1.108888070524717
undo,7,0,1,0,0,4,"[0, 26, 4]",3,18,"[2, 3, 5, 7, 8, 9, 11, 12, 13, 14, 15, 17, 19, 20, 21, 23, 24, 28]",126.4034612,45279,167,6,35,8,1.1089544511995684
undo,7,0,1,0,0,26,"[0, 26]",2,22,"[2, 3, 4, 5, 7, 8, 9, 10, 11, 12, 13, 14, 15, 17, 19, 20, 21, 22, 23, 24, 25, 28]",138.4450558,45463,184,6,62,8,1.0
undo,7,0,1,0,0,0,[0],1,27,"[2, 3, 4, 5, 6, 7, 8, 9, 10, 11, 12, 13, 14, 15, 16, 17, 19, 20, 21, 22, 23, 24, 25, 26, 27, 28, 29]",300,45795,332,104,1136,9,0.0
undo,7,0,0,0,0,28,"[0, 28]",2,26,"[2, 3, 4, 5, 6, 7, 8, 9, 10, 11, 12, 13, 14, 15, 16, 17, 19, 20, 21, 22, 23, 24, 25, 26, 27, 29]",194.9190788,46475,680,39,388,9,1.0
undo,7,0,0,0,0,26,"[0, 28, 26]",3,21,"[2, 3, 4, 5, 7, 8, 9, 10, 11, 12, 13, 14, 15, 17, 19, 20, 21, 22, 23, 24, 25]",136.9363227,47453,978,5,55,9,1.0093388233539051
undo,7,0,0,0,0,4,"[0, 28, 26, 4]",4,16,"[3, 5, 7, 8, 9, 11, 12, 13, 14, 15, 17, 19, 20, 21, 23, 24]",124.8947282,48041,588,5,33,9,1.1185924093500432
undo,7,0,0,0,0,24,"[0, 28, 26, 4, 24]",5,12,"[3, 5, 7, 8, 9, 11, 12, 15, 17, 19, 20, 23]",113.4929739,48935,894,5,21,9,1.1179314844344648
undo,7,0,0,0,0,15,"[0, 28, 26, 4, 24, 15]",6,9,"[3, 5, 7, 8, 9, 11, 12, 17, 19]",90.14773885,49926,991,5,8,9,1.1101585049568639
undo,7,0,0,0,0,7,"[0, 28, 26, 4, 24, 15, 7]",7,4,"[3, 8, 17, 19]",59.08328972,50736,810,4,2,9,1.1751475399938958
undo,7,0,0,0,0,8,"[0, 28, 26, 4, 24, 15, 7, 8]",8,2,"[3, 19]",39.97831655,51719,983,2,0,9,1.1688286242571428
undo,7,0,0,0,1,3,"[0, 28, 26, 4, 24, 15, 7, 8, 3]",9,0,[],9.564503894,52835,1116,1,0,9,1.3398928751407715
undo,7,0,0,1,1,3,"[0, 28, 26, 4, 24, 15, 7, 8, 3]",9,0,[],9.564503894,55696,2861,1,0,9,1.3398928751407715
undo,8,36,0,0,0,0,[0],1,24,"[2, 4, 5, 6, 7, 8, 9, 10, 12, 13, 14, 15, 16, 17, 18, 19, 20, 22, 23, 25, 26, 27, 28, 29]",300,141,-1,2,200,10,0.0
undo,8,36,0,0,0,12,"[0, 12]",2,23,"[2, 4, 5, 6, 7, 8, 9, 10, 13, 14, 15, 16, 17, 18, 19, 20, 22, 23, 25, 26, 27, 28, 29]",277.7963967,5403,5262,90,804,9,1.0
undo,8,36,0,0,0,9,"[0, 12, 9]",3,14,"[2, 4, 8, 10, 13, 16, 17, 18, 19, 23, 25, 27, 28, 29]",215.4345494,10903,5500,32,191,9,1.224429481246385
undo,8,36,0,0,0,17,"[0, 12, 9, 17]",4,11,"[2, 4, 8, 10, 13, 16, 18, 19, 23, 25, 27]",189.1857399,12889,1986,8,54,9,1.1724571624470872
undo,8,36,0,0,0,19,"[0, 12, 9, 17, 19]",5,8,"[2, 4, 10, 13, 16, 18, 23, 25]",161.2930885,13672,783,3,14,9,1.7995682634090462
undo,8,36,0,0,0,2,"[0, 12, 9, 17, 19, 2]",6,4,"[10, 13, 16, 25]",124.1716661,14621,949,2,3,9,1.5569787348204112
undo,8,36,0,0,0,25,"[0, 12, 9, 17, 19, 2, 25]",7,3,"[10, 13, 16]",99.17166613,15795,1174,1,2,9,1.7541097756555504
undo,8,36,0,0,0,13,"[0, 12, 9, 17, 19, 2, 25, 13]",8,1,[10],78.58040585,16654,859,1,0,9,2.257503926583423
undo,8,36,0,0,1,10,"[0, 12, 9, 17, 19, 2, 25, 13, 10]",9,0,[],2.619889792,18318,1664,1,0,9,1.709815416525762
undo,8,36,1,0,0,13,"[0, 12, 9, 17, 19, 2, 25, 13]",8,1,[10],78.58040585,26490,8172,1,0,9,2.257503926583423
undo,8,36,1,0,0,25,"[0, 12, 9, 17, 19, 2, 25]",7,3,"[10, 13, 16]",99.17166613,26657,167,1,2,9,1.7541097756555504
undo,8,36,1,0,0,2,"[0, 12, 9, 17, 19, 2]",6,4,"[10, 13, 16, 25]",124.1716661,26823,166,2,3,9,1.5569787348204112
undo,8,36,1,0,0,19,"[0, 12, 9, 17, 19]",5,8,"[2, 4, 10, 13, 16, 18, 23, 25]",161.2930885,26990,167,3,14,9,1.7995682634090462
undo,8,36,1,0,0,17,"[0, 12, 9, 17]",4,11,"[2, 4, 8, 10, 13, 16, 18, 19, 23, 25, 27]",189.1857399,27156,166,8,54,9,1.1724571624470872
undo,8,36,1,0,0,9,"[0, 12, 9]",3,14,"[2, 4, 8, 10, 13, 16, 17, 18, 19, 23, 25, 27, 28, 29]",215.4345494,27324,168,32,191,9,1.224429481246385
undo,8,36,1,0,0,12,"[0, 12]",2,23,"[2, 4, 5, 6, 7, 8, 9, 10, 13, 14, 15, 16, 17, 18, 19, 20, 22, 23, 25, 26, 27, 28, 29]",277.7963967,27473,149,90,804,9,1.0
undo,8,36,1,0,0,0,[0],1,24,"[2, 4, 5, 6, 7, 8, 9, 10, 12, 13, 14, 15, 16, 17, 18, 19, 20, 22, 23, 25, 26, 27, 28, 29]",300,27673,200,2,200,10,0.0
undo,8,36,0,0,0,18,"[0, 18]",2,21,"[2, 4, 5, 6, 7, 8, 9, 10, 12, 13, 14, 16, 17, 19, 22, 23, 25, 26, 27, 28, 29]",279.6039219,30648,2975,2,110,10,1.0
undo,8,36,0,0,0,12,"[0, 18, 12]",3,19,"[2, 4, 5, 6, 7, 8, 9, 10, 13, 16, 17, 19, 22, 23, 25, 26, 27, 28, 29]",237.0245842,31495,847,2,86,10,2.836270082716982
undo,8,36,0,0,0,9,"[0, 18, 12, 9]",4,9,"[2, 4, 10, 13, 16, 17, 19, 23, 25]",174.6627369,32294,799,1,40,10,1.8147676024843966
undo,8,36,0,0,0,16,"[0, 18, 12, 9, 16]",5,5,"[2, 13, 17, 19, 25]",127.3658026,33857,1563,4,11,9,1.6173640341692257
undo,8,36,0,0,0,17,"[0, 18, 12, 9, 16, 17]",6,4,"[2, 13, 19, 25]",99.04619804,34723,866,4,5,9,2.126167915720943
undo,8,36,0,0,0,19,"[0, 18, 12, 9, 16, 17, 19]",7,3,"[2, 13, 25]",71.15354668,35321,598,3,0,9,2.9690287970141402
undo,8,36,0,0,0,2,"[0, 18, 12, 9, 16, 17, 19, 2]",8,1,[25],34.0321243,36504,1183,1,0,9,2.355174034952613
undo,8,36,0,0,1,25,"[0, 18, 12, 9, 16, 17, 19, 2, 25]",9,0,[],9.032124296,37814,1310,1,0,9,2.541422245252009
undo,8,36,0,1,1,25,"[0, 18, 12, 9, 16, 17, 19, 2, 25]",9,0,[],9.032124296,50274,12460,1,0,9,2.541422245252009
undo,9,41,0,0,0,0,[0],1,29,"[1, 2, 3, 4, 5, 6, 7, 8, 9, 10, 11, 12, 13, 14, 15, 16, 17, 18, 19, 20, 21, 22, 23, 24, 25, 26, 27, 28, 29]",300,144,-1,1,143,10,0.0
undo,9,41,0,0,0,13,"[0, 13]",2,23,"[1, 2, 3, 5, 6, 7, 9, 10, 11, 12, 14, 15, 17, 18, 19, 20, 21, 22, 24, 25, 26, 27, 28]",258.2747079,3607,3463,1,55,10,1.0
undo,9,41,0,0,0,28,"[0, 13, 28]",3,22,"[1, 2, 3, 5, 6, 7, 9, 10, 11, 12, 14, 15, 17, 18, 19, 20, 21, 22, 24, 25, 26, 27]",223.7928286,4484,877,1,39,10,1.895724242592676
undo,9,41,0,0,0,5,"[0, 13, 28, 5]",4,19,"[1, 2, 3, 6, 9, 10, 11, 12, 14, 15, 17, 18, 19, 20, 21, 22, 24, 25, 27]",210.1913581,5225,741,1,34,10,2.861541269398273
undo,9,41,0,0,0,22,"[0, 13, 28, 5, 22]",5,12,"[2, 3, 6, 9, 10, 11, 12, 17, 18, 20, 21, 25]",155.4464953,7046,1821,11,12,9,2.096079268852861
undo,9,41,0,0,0,3,"[0, 13, 28, 5, 22, 3]",6,8,"[2, 9, 10, 12, 17, 18, 20, 21]",125.4798472,7792,746,7,5,9,4.404491319005463
undo,9,41,0,0,0,21,"[0, 13, 28, 5, 22, 3, 21]",7,4,"[2, 9, 12, 17]",93.33952984,8532,740,5,1,9,4.228139797553632
undo,9,41,0,0,0,9,"[0, 13, 28, 5, 22, 3, 21, 9]",8,2,"[2, 17]",43.97354965,9301,769,2,0,9,3.111188754077749
undo,9,41,0,0,1,2,"[0, 13, 28, 5, 22, 3, 21, 9, 2]",9,0,[],31.89050368,10174,873,1,0,9,2.963304814480547
undo,9,41,1,0,0,9,"[0, 13, 28, 5, 22, 3, 21, 9]",8,2,"[2, 17]",43.97354965,23359,13185,2,0,9,3.111188754077749
undo,9,41,1,0,0,21,"[0, 13, 28, 5, 22, 3, 21]",7,4,"[2, 9, 12, 17]",93.33952984,23610,251,5,1,9,4.228139797553632
undo,9,41,1,0,0,3,"[0, 13, 28, 5, 22, 3]",6,8,"[2, 9, 10, 12, 17, 18, 20, 21]",125.4798472,23809,199,7,5,9,4.404491319005463
undo,9,41,1,0,0,22,"[0, 13, 28, 5, 22]",5,12,"[2, 3, 6, 9, 10, 11, 12, 17, 18, 20, 21, 25]",155.4464953,23993,184,11,12,9,2.096079268852861
undo,9,41,1,0,0,5,"[0, 13, 28, 5]",4,19,"[1, 2, 3, 6, 9, 10, 11, 12, 14, 15, 17, 18, 19, 20, 21, 22, 24, 25, 27]",210.1913581,24177,184,1,34,10,2.861541269398273
undo,9,41,1,0,0,28,"[0, 13, 28]",3,22,"[1, 2, 3, 5, 6, 7, 9, 10, 11, 12, 14, 15, 17, 18, 19, 20, 21, 22, 24, 25, 26, 27]",223.7928286,24560,383,1,39,10,1.895724242592676
undo,9,41,1,0,0,13,"[0, 13]",2,23,"[1, 2, 3, 5, 6, 7, 9, 10, 11, 12, 14, 15, 17, 18, 19, 20, 21, 22, 24, 25, 26, 27, 28]",258.2747079,24826,266,1,55,10,1.0
undo,9,41,1,0,0,0,[0],1,29,"[1, 2, 3, 4, 5, 6, 7, 8, 9, 10, 11, 12, 13, 14, 15, 16, 17, 18, 19, 20, 21, 22, 23, 24, 25, 26, 27, 28, 29]",300,25226,400,1,143,10,0.0
undo,9,41,0,0,0,28,"[0, 28]",2,27,"[1, 2, 3, 5, 6, 7, 8, 9, 10, 11, 12, 13, 14, 15, 16, 17, 18, 19, 20, 21, 22, 23, 24, 25, 26, 27, 29]",259.8004975,26393,1167,37,249,9,1.0
undo,9,41,0,0,0,5,"[0, 28, 5]",3,26,"[1, 2, 3, 6, 7, 8, 9, 10, 11, 12, 13, 14, 15, 16, 17, 18, 19, 20, 21, 22, 23, 24, 25, 26, 27, 29]",246.199027,27071,678,30,182,9,1.714241539747437
undo,9,41,0,0,0,22,"[0, 28, 5, 22]",4,22,"[1, 2, 3, 6, 7, 8, 9, 10, 11, 12, 13, 14, 16, 17, 18, 19, 20, 21, 23, 24, 25, 27]",191.4541642,28085,1014,7,30,9,1.5739547554580093
undo,9,41,0,0,0,3,"[0, 28, 5, 22, 3]",5,14,"[2, 6, 9, 10, 12, 13, 14, 17, 18, 19, 20, 21, 25, 27]",161.4875161,28866,781,7,17,9,3.49573973620446
undo,9,41,0,0,0,21,"[0, 28, 5, 22, 3, 21]",6,8,"[2, 9, 10, 12, 13, 14, 17, 25]",129.3471987,29704,838,7,6,9,3.491446139563656
undo,9,41,0,0,0,9,"[0, 28, 5, 22, 3, 21, 9]",7,5,"[2, 10, 12, 14, 17]",79.98121856,30554,850,3,3,9,2.6736298439721664
undo,9,41,0,0,0,2,"[0, 28, 5, 22, 3, 21, 9, 2]",8,2,"[14, 17]",67.89817258,31418,864,2,0,9,2.565326749271553
undo,9,41,0,0,1,17,"[0, 28, 5, 22, 3, 21, 9, 2, 17]",9,0,[],35.34053139,32533,1115,1,0,9,4.175249858394321
undo,9,41,1,0,0,2,"[0, 28, 5, 22, 3, 21, 9, 2]",8,2,"[14, 17]",67.89817258,34109,1576,2,0,9,2.565326749271553
undo,9,41,1,0,0,9,"[0, 28, 5, 22, 3, 21, 9]",7,5,"[2, 10, 12, 14, 17]",79.98121856,34326,217,3,3,9,2.6736298439721664
undo,9,41,1,0,0,21,"[0, 28, 5, 22, 3, 21]",6,8,"[2, 9, 10, 12, 13, 14, 17, 25]",129.3471987,34477,151,7,6,9,3.491446139563656
undo,9,41,1,0,0,3,"[0, 28, 5, 22, 3]",5,14,"[2, 6, 9, 10, 12, 13, 14, 17, 18, 19, 20, 21, 25, 27]",161.4875161,34642,165,7,17,9,3.49573973620446
undo,9,41,1,0,0,22,"[0, 28, 5, 22]",4,22,"[1, 2, 3, 6, 7, 8, 9, 10, 11, 12, 13, 14, 16, 17, 18, 19, 20, 21, 23, 24, 25, 27]",191.4541642,34809,167,7,30,9,1.5739547554580093
undo,9,41,1,0,0,5,"[0, 28, 5]",3,26,"[1, 2, 3, 6, 7, 8, 9, 10, 11, 12, 13, 14, 15, 16, 17, 18, 19, 20, 21, 22, 23, 24, 25, 26, 27, 29]",246.199027,34960,151,30,182,9,1.714241539747437
undo,9,41,1,0,0,28,"[0, 28]",2,27,"[1, 2, 3, 5, 6, 7, 8, 9, 10, 11, 12, 13, 14, 15, 16, 17, 18, 19, 20, 21, 22, 23, 24, 25, 26, 27, 29]",259.8004975,35176,216,37,249,9,1.0
undo,9,41,1,0,0,0,[0],1,29,"[1, 2, 3, 4, 5, 6, 7, 8, 9, 10, 11, 12, 13, 14, 15, 16, 17, 18, 19, 20, 21, 22, 23, 24, 25, 26, 27, 28, 29]",300,35759,583,1,143,10,0.0
undo,9,41,0,0,0,28,"[0, 28]",2,27,"[1, 2, 3, 5, 6, 7, 8, 9, 10, 11, 12, 13, 14, 15, 16, 17, 18, 19, 20, 21, 22, 23, 24, 25, 26, 27, 29]",259.8004975,37616,1857,37,249,9,1.0
undo,9,41,0,0,0,5,"[0, 28, 5]",3,26,"[1, 2, 3, 6, 7, 8, 9, 10, 11, 12, 13, 14, 15, 16, 17, 18, 19, 20, 21, 22, 23, 24, 25, 26, 27, 29]",246.199027,38782,1166,30,182,9,1.714241539747437
undo,9,41,0,0,0,22,"[0, 28, 5, 22]",4,22,"[1, 2, 3, 6, 7, 8, 9, 10, 11, 12, 13, 14, 16, 17, 18, 19, 20, 21, 23, 24, 25, 27]",191.4541642,41806,3024,7,30,9,1.5739547554580093
undo,9,41,0,0,0,6,"[0, 28, 5, 22, 6]",5,5,"[8, 11, 16, 23, 25]",85.65246292,42707,901,3,3,7,1.2524454283993924
undo,9,41,0,0,0,11,"[0, 28, 5, 22, 6, 11]",6,2,"[8, 16]",40.53040623,43584,877,2,0,7,1.206717851692978
undo,9,41,0,0,1,8,"[0, 28, 5, 22, 6, 11, 8]",7,0,[],6.692557602,45050,1466,1,0,7,1.204418528028943
undo,9,41,1,0,0,11,"[0, 28, 5, 22, 6, 11]",6,2,"[8, 16]",40.53040623,45893,843,2,0,7,1.206717851692978
undo,9,41,1,0,0,6,"[0, 28, 5, 22, 6]",5,5,"[8, 11, 16, 23, 25]",85.65246292,46093,200,3,3,7,1.2524454283993924
undo,9,41,1,0,0,22,"[0, 28, 5, 22]",4,22,"[1, 2, 3, 6, 7, 8, 9, 10, 11, 12, 13, 14, 16, 17, 18, 19, 20, 21, 23, 24, 25, 27]",191.4541642,46242,149,7,30,9,1.5739547554580093
undo,9,41,1,0,0,5,"[0, 28, 5]",3,26,"[1, 2, 3, 6, 7, 8, 9, 10, 11, 12, 13, 14, 15, 16, 17, 18, 19, 20, 21, 22, 23, 24, 25, 26, 27, 29]",246.199027,46377,135,30,182,9,1.714241539747437
undo,9,41,1,0,0,28,"[0, 28]",2,27,"[1, 2, 3, 5, 6, 7, 8, 9, 10, 11, 12, 13, 14, 15, 16, 17, 18, 19, 20, 21, 22, 23, 24, 25, 26, 27, 29]",259.8004975,46542,165,37,249,9,1.0
undo,9,41,0,0,0,5,"[0, 28, 5]",3,26,"[1, 2, 3, 6, 7, 8, 9, 10, 11, 12, 13, 14, 15, 16, 17, 18, 19, 20, 21, 22, 23, 24, 25, 26, 27, 29]",246.199027,47522,980,30,182,9,1.714241539747437
undo,9,41,0,0,0,22,"[0, 28, 5, 22]",4,22,"[1, 2, 3, 6, 7, 8, 9, 10, 11, 12, 13, 14, 16, 17, 18, 19, 20, 21, 23, 24, 25, 27]",191.4541642,48551,1029,7,30,9,1.5739547554580093
undo,9,41,0,0,0,3,"[0, 28, 5, 22, 3]",5,14,"[2, 6, 9, 10, 12, 13, 14, 17, 18, 19, 20, 21, 25, 27]",161.4875161,49283,732,7,17,9,3.49573973620446
undo,9,41,0,0,0,21,"[0, 28, 5, 22, 3, 21]",6,8,"[2, 9, 10, 12, 13, 14, 17, 25]",129.3471987,50057,774,7,6,9,3.491446139563656
undo,9,41,0,0,0,9,"[0, 28, 5, 22, 3, 21, 9]",7,5,"[2, 10, 12, 14, 17]",79.98121856,50965,908,3,3,9,2.6736298439721664
undo,9,41,0,0,0,2,"[0, 28, 5, 22, 3, 21, 9, 2]",8,2,"[14, 17]",67.89817258,51930,965,2,0,9,2.565326749271553
undo,9,41,0,0,1,17,"[0, 28, 5, 22, 3, 21, 9, 2, 17]",9,0,[],35.34053139,53550,1620,1,0,9,4.175249858394321
undo,9,41,1,0,0,2,"[0, 28, 5, 22, 3, 21, 9, 2]",8,2,"[14, 17]",67.89817258,55092,1542,2,0,9,2.565326749271553
undo,9,41,1,0,0,9,"[0, 28, 5, 22, 3, 21, 9]",7,5,"[2, 10, 12, 14, 17]",79.98121856,55326,234,3,3,9,2.6736298439721664
undo,9,41,1,0,0,21,"[0, 28, 5, 22, 3, 21]",6,8,"[2, 9, 10, 12, 13, 14, 17, 25]",129.3471987,55509,183,7,6,9,3.491446139563656
undo,9,41,1,0,0,3,"[0, 28, 5, 22, 3]",5,14,"[2, 6, 9, 10, 12, 13, 14, 17, 18, 19, 20, 21, 25, 27]",161.4875161,55709,200,7,17,9,3.49573973620446
undo,9,41,1,0,0,22,"[0, 28, 5, 22]",4,22,"[1, 2, 3, 6, 7, 8, 9, 10, 11, 12, 13, 14, 16, 17, 18, 19, 20, 21, 23, 24, 25, 27]",191.4541642,55860,151,7,30,9,1.5739547554580093
undo,9,41,1,0,0,5,"[0, 28, 5]",3,26,"[1, 2, 3, 6, 7, 8, 9, 10, 11, 12, 13, 14, 15, 16, 17, 18, 19, 20, 21, 22, 23, 24, 25, 26, 27, 29]",246.199027,56025,165,30,182,9,1.714241539747437
undo,9,41,1,0,0,28,"[0, 28]",2,27,"[1, 2, 3, 5, 6, 7, 8, 9, 10, 11, 12, 13, 14, 15, 16, 17, 18, 19, 20, 21, 22, 23, 24, 25, 26, 27, 29]",259.8004975,56193,168,37,249,9,1.0
undo,9,41,1,0,0,0,[0],1,29,"[1, 2, 3, 4, 5, 6, 7, 8, 9, 10, 11, 12, 13, 14, 15, 16, 17, 18, 19, 20, 21, 22, 23, 24, 25, 26, 27, 28, 29]",300,56377,184,1,143,10,0.0
undo,9,41,0,0,0,13,"[0, 13]",2,23,"[1, 2, 3, 5, 6, 7, 9, 10, 11, 12, 14, 15, 17, 18, 19, 20, 21, 22, 24, 25, 26, 27, 28]",258.2747079,57239,862,1,55,10,1.0
undo,9,41,0,0,0,28,"[0, 13, 28]",3,22,"[1, 2, 3, 5, 6, 7, 9, 10, 11, 12, 14, 15, 17, 18, 19, 20, 21, 22, 24, 25, 26, 27]",223.7928286,58166,927,1,39,10,1.895724242592676
undo,9,41,0,0,0,5,"[0, 13, 28, 5]",4,19,"[1, 2, 3, 6, 9, 10, 11, 12, 14, 15, 17, 18, 19, 20, 21, 22, 24, 25, 27]",210.1913581,58820,654,1,34,10,2.861541269398273
undo,9,41,0,0,0,22,"[0, 13, 28, 5, 22]",5,12,"[2, 3, 6, 9, 10, 11, 12, 17, 18, 20, 21, 25]",155.4464953,59968,1148,11,12,9,2.096079268852861
undo,9,41,0,0,0,3,"[0, 13, 28, 5, 22, 3]",6,8,"[2, 9, 10, 12, 17, 18, 20, 21]",125.4798472,60650,682,7,5,9,4.404491319005463
undo,9,41,0,0,0,21,"[0, 13, 28, 5, 22, 3, 21]",7,4,"[2, 9, 12, 17]",93.33952984,61448,798,5,1,9,4.228139797553632
undo,9,41,0,0,0,9,"[0, 13, 28, 5, 22, 3, 21, 9]",8,2,"[2, 17]",43.97354965,62233,785,2,0,9,3.111188754077749
undo,9,41,0,0,1,2,"[0, 13, 28, 5, 22, 3, 21, 9, 2]",9,0,[],31.89050368,62999,766,1,0,9,2.963304814480547
undo,9,41,0,1,1,2,"[0, 13, 28, 5, 22, 3, 21, 9, 2]",9,0,[],31.89050368,75378,12379,1,0,9,2.963304814480547
undo,10,15,0,0,0,0,[0],1,25,"[1, 2, 3, 4, 7, 8, 9, 10, 11, 12, 13, 14, 15, 16, 18, 20, 21, 22, 23, 24, 25, 26, 27, 28, 29]",300,168,-1,4,65,9,0.0
undo,10,15,0,0,0,21,"[0, 21]",2,17,"[1, 3, 4, 7, 8, 9, 11, 12, 13, 14, 15, 16, 22, 23, 24, 26, 27]",204.9158268,7575,7407,21,65,7,1.0
undo,10,15,0,0,0,12,"[0, 21, 12]",3,14,"[1, 3, 4, 7, 8, 9, 11, 13, 14, 15, 16, 22, 24, 27]",161.0866128,8455,880,20,39,7,1.6068212046294776
undo,10,15,0,0,0,7,"[0, 21, 12, 7]",4,10,"[3, 4, 9, 11, 13, 14, 15, 16, 22, 27]",127.8450725,9585,1130,13,11,7,2.0298522511797907
undo,10,15,0,0,0,11,"[0, 21, 12, 7, 11]",5,6,"[3, 4, 14, 15, 16, 22]",86.36013546,10458,873,6,4,7,1.7205538639328775
undo,10,15,0,0,0,3,"[0, 21, 12, 7, 11, 3]",6,4,"[14, 15, 16, 22]",74.95838121,11029,571,4,0,7,1.6999894293819835
undo,10,15,0,0,1,16,"[0, 21, 12, 7, 11, 3, 16]",7,0,[],49.8785088,11859,830,1,0,7,2.1909315613297298
undo,10,15,1,0,0,3,"[0, 21, 12, 7, 11, 3]",6,4,"[14, 15, 16, 22]",74.95838121,14518,2659,4,0,7,1.6999894293819835
undo,10,15,1,0,0,11,"[0, 21, 12, 7, 11]",5,6,"[3, 4, 14, 15, 16, 22]",86.36013546,14718,200,6,4,7,1.7205538639328775
undo,10,15,1,0,0,7,"[0, 21, 12, 7]",4,10,"[3, 4, 9, 11, 13, 14, 15, 16, 22, 27]",127.8450725,14918,200,13,11,7,2.0298522511797907
undo,10,15,1,0,0,12,"[0, 21, 12]",3,14,"[1, 3, 4, 7, 8, 9, 11, 13, 14, 15, 16, 22, 24, 27]",161.0866128,15119,201,20,39,7,1.6068212046294776
undo,10,15,1,0,0,21,"[0, 21]",2,17,"[1, 3, 4, 7, 8, 9, 11, 12, 13, 14, 15, 16, 22, 23, 24, 26, 27]",204.9158268,15352,233,21,65,7,1.0
undo,10,15,1,0,0,0,[0],1,25,"[1, 2, 3, 4, 7, 8, 9, 10, 11, 12, 13, 14, 15, 16, 18, 20, 21, 22, 23, 24, 25, 26, 27, 28, 29]",300,15768,416,4,65,9,0.0
undo,10,15,0,0,0,12,"[0, 12]",2,22,"[1, 2, 3, 4, 7, 8, 9, 10, 11, 13, 14, 15, 16, 18, 21, 22, 23, 24, 26, 27, 28, 29]",213.547701,16782,1014,4,35,9,1.0
undo,10,15,0,0,0,7,"[0, 12, 7]",3,16,"[1, 3, 4, 8, 9, 10, 11, 13, 14, 15, 16, 18, 21, 22, 24, 27]",180.3061607,17616,834,4,29,9,1.411291635294361
undo,10,15,0,0,0,16,"[0, 12, 7, 16]",4,10,"[3, 4, 10, 11, 13, 14, 15, 18, 21, 22]",136.6484008,18485,869,2,11,9,1.4308733430458784
undo,10,15,0,0,0,11,"[0, 12, 7, 16, 11]",5,7,"[3, 4, 13, 14, 15, 21, 22]",110.6291772,19256,771,2,5,9,1.5251025438826007
undo,10,15,0,0,0,3,"[0, 12, 7, 16, 11, 3]",6,5,"[4, 13, 14, 15, 22]",99.22742292,19933,677,2,3,9,1.5166583878170454
undo,10,15,0,0,0,22,"[0, 12, 7, 16, 11, 3, 22]",7,2,"[13, 15]",49.49815588,20808,875,2,0,9,1.4519711389669923
undo,10,15,0,0,0,15,"[0, 12, 7, 16, 11, 3, 22, 15]",8,1,[13],23.88565893,21682,874,1,0,9,1.4060225827822495
undo,10,15,0,0,1,13,"[0, 12, 7, 16, 11, 3, 22, 15, 13]",9,0,[],8.621321408,22447,765,1,0,9,1.4544229719836068
undo,10,15,0,1,1,13,"[0, 12, 7, 16, 11, 3, 22, 15, 13]",9,0,[],8.621321408,33036,10589,1,0,9,1.4544229719836068
undo,11,33,0,0,0,0,[0],1,23,"[1, 2, 5, 7, 8, 11, 12, 13, 14, 15, 16, 17, 18, 19, 20, 21, 23, 24, 25, 26, 27, 28, 29]",300,128,-1,5,108,9,0.0
undo,11,33,0,0,0,8,"[0, 8]",2,22,"[1, 2, 5, 7, 11, 12, 13, 14, 15, 16, 17, 18, 19, 20, 21, 23, 24, 25, 26, 27, 28, 29]",265.8679037,5552,5424,5,87,9,1.0
undo,11,33,0,0,0,21,"[0, 8, 21]",3,16,"[2, 5, 7, 11, 13, 14, 16, 17, 18, 19, 20, 24, 26, 27, 28, 29]",166.0430571,6664,1112,5,80,9,1.0670557763739492
undo,11,33,0,0,0,17,"[0, 8, 21, 17]",4,11,"[2, 7, 11, 13, 14, 16, 19, 20, 24, 26, 29]",127.4036989,7654,990,1,18,9,1.0830294710276618
undo,11,33,0,0,0,13,"[0, 8, 21, 17, 13]",5,10,"[2, 7, 11, 14, 16, 19, 20, 24, 26, 29]",104.6001904,8473,819,1,10,9,1.2861654105061844
undo,11,33,0,0,0,19,"[0, 8, 21, 17, 13, 19]",6,6,"[7, 14, 16, 24, 26, 29]",79.10509282,9605,1132,1,6,9,1.3181942666818214
undo,11,33,0,0,0,24,"[0, 8, 21, 17, 13, 19, 24]",7,1,[7],37.05750074,10716,1111,1,0,8,1.2914654832859356
undo,11,33,0,0,1,7,"[0, 8, 21, 17, 13, 19, 24, 7]",8,0,[],7.851337003,11520,804,1,0,8,1.370940443464748
undo,11,33,1,0,0,24,"[0, 8, 21, 17, 13, 19, 24]",7,1,[7],37.05750074,53210,41690,1,0,8,1.2914654832859356
undo,11,33,1,0,0,19,"[0, 8, 21, 17, 13, 19]",6,6,"[7, 14, 16, 24, 26, 29]",79.10509282,53561,351,1,6,9,1.3181942666818214
undo,11,33,1,0,0,13,"[0, 8, 21, 17, 13]",5,10,"[2, 7, 11, 14, 16, 19, 20, 24, 26, 29]",104.6001904,53793,232,1,10,9,1.2861654105061844
undo,11,33,1,0,0,17,"[0, 8, 21, 17]",4,11,"[2, 7, 11, 13, 14, 16, 19, 20, 24, 26, 29]",127.4036989,53976,183,1,18,9,1.0830294710276618
undo,11,33,1,0,0,21,"[0, 8, 21]",3,16,"[2, 5, 7, 11, 13, 14, 16, 17, 18, 19, 20, 24, 26, 27, 28, 29]",166.0430571,54143,167,5,80,9,1.0670557763739492
undo,11,33,1,0,0,8,"[0, 8]",2,22,"[1, 2, 5, 7, 11, 12, 13, 14, 15, 16, 17, 18, 19, 20, 21, 23, 24, 25, 26, 27, 28, 29]",265.8679037,55326,1183,5,87,9,1.0
undo,11,33,1,0,0,0,[0],1,23,"[1, 2, 5, 7, 8, 11, 12, 13, 14, 15, 16, 17, 18, 19, 20, 21, 23, 24, 25, 26, 27, 28, 29]",300,56694,1368,5,108,9,0.0
undo,11,33,0,0,0,8,"[0, 8]",2,22,"[1, 2, 5, 7, 11, 12, 13, 14, 15, 16, 17, 18, 19, 20, 21, 23, 24, 25, 26, 27, 28, 29]",265.8679037,58496,1802,5,87,9,1.0
undo,11,33,0,0,0,29,"[0, 8, 29]",3,9,"[7, 11, 13, 14, 17, 19, 20, 24, 26]",79.91629706,60298,1802,6,6,6,1.0462989386822628
undo,11,33,0,0,0,26,"[0, 8, 29, 26]",4,2,"[7, 14]",52.0236457,61540,1242,2,0,6,1.0960715797431584
undo,11,33,0,0,0,14,"[0, 8, 29, 26, 14]",5,1,[7],39.37453506,62107,567,1,0,6,1.2013451946667908
undo,11,33,0,0,1,7,"[0, 8, 29, 26, 14, 7]",6,0,[],24.50846631,62817,710,1,0,6,1.292774991654268
undo,11,33,1,0,0,14,"[0, 8, 29, 26, 14]",5,1,[7],39.37453506,64059,1242,1,0,6,1.2013451946667908
undo,11,33,1,0,0,26,"[0, 8, 29, 26]",4,2,"[7, 14]",52.0236457,64311,252,2,0,6,1.0960715797431584
undo,11,33,1,0,0,29,"[0, 8, 29]",3,9,"[7, 11, 13, 14, 17, 19, 20, 24, 26]",79.91629706,64493,182,6,6,6,1.0462989386822628
undo,11,33,1,0,0,8,"[0, 8]",2,22,"[1, 2, 5, 7, 11, 12, 13, 14, 15, 16, 17, 18, 19, 20, 21, 23, 24, 25, 26, 27, 28, 29]",265.8679037,64677,184,5,87,9,1.0
undo,11,33,0,0,0,21,"[0, 8, 21]",3,16,"[2, 5, 7, 11, 13, 14, 16, 17, 18, 19, 20, 24, 26, 27, 28, 29]",166.0430571,65817,1140,5,80,9,1.0670557763739492
undo,11,33,0,0,0,17,"[0, 8, 21, 17]",4,11,"[2, 7, 11, 13, 14, 16, 19, 20, 24, 26, 29]",127.4036989,66781,964,1,18,9,1.0830294710276618
undo,11,33,0,0,0,13,"[0, 8, 21, 17, 13]",5,10,"[2, 7, 11, 14, 16, 19, 20, 24, 26, 29]",104.6001904,69530,2749,1,10,9,1.2861654105061844
undo,11,33,0,0,0,19,"[0, 8, 21, 17, 13, 19]",6,6,"[7, 14, 16, 24, 26, 29]",79.10509282,71236,1706,1,6,9,1.3181942666818214
undo,11,33,0,0,0,7,"[0, 8, 21, 17, 13, 19, 7]",7,3,"[14, 24, 26]",33.48711391,72539,1303,1,2,9,1.25064167844248
undo,11,33,0,0,0,14,"[0, 8, 21, 17, 13, 19, 7, 14]",8,1,[26],18.62104516,73239,700,1,0,9,1.297007778404226
undo,11,33,0,0,1,26,"[0, 8, 21, 17, 13, 19, 7, 14, 26]",9,0,[],5.971934519,74202,963,1,0,9,1.2996231319325615
undo,11,33,0,1,1,26,"[0, 8, 21, 17, 13, 19, 7, 14, 26]",9,0,[],5.971934519,81260,7058,1,0,9,1.2996231319325615
undo,12,27,0,0,0,0,[0],1,26,"[1, 3, 5, 6, 7, 8, 9, 10, 11, 12, 13, 14, 15, 16, 17, 18, 19, 21, 22, 23, 24, 25, 26, 27, 28, 29]",300,149,-1,13,578,11,0.0
undo,12,27,0,0,0,15,"[0, 15]",2,24,"[1, 3, 5, 6, 7, 8, 9, 10, 11, 12, 13, 14, 16, 17, 18, 19, 21, 22, 23, 24, 25, 26, 27, 29]",263.7508621,5193,5044,6,219,11,1.0
undo,12,27,0,0,0,24,"[0, 15, 24]",3,20,"[1, 5, 6, 7, 8, 9, 10, 12, 13, 14, 16, 17, 18, 19, 21, 23, 25, 26, 27, 29]",246.5462115,6262,1069,6,130,11,1.130933077698322
undo,12,27,0,0,0,17,"[0, 15, 24, 17]",4,15,"[1, 6, 8, 10, 12, 13, 14, 16, 18, 19, 23, 25, 26, 27, 29]",229.9932662,7077,815,4,60,11,1.1285538435963374
undo,12,27,0,0,0,10,"[0, 15, 24, 17, 10]",5,12,"[1, 8, 12, 13, 14, 18, 19, 23, 25, 26, 27, 29]",213.5920467,7779,702,2,28,11,1.1456072448628856
undo,12,27,0,0,0,12,"[0, 15, 24, 17, 10, 12]",6,11,"[1, 8, 13, 14, 18, 19, 23, 25, 26, 27, 29]",202.5466857,8689,910,2,24,11,1.5078716502366516
undo,12,27,0,0,0,13,"[0, 15, 24, 17, 10, 12, 13]",7,9,"[1, 8, 14, 18, 19, 23, 26, 27, 29]",158.9806439,9581,892,2,14,11,1.4329429985358912
undo,12,27,0,0,0,19,"[0, 15, 24, 17, 10, 12, 13, 19]",8,5,"[1, 8, 14, 23, 29]",122.745302,11957,2376,2,4,11,1.363497676923077
undo,12,27,0,0,0,8,"[0, 15, 24, 17, 10, 12, 13, 19, 8]",9,3,"[14, 23, 29]",107.8792333,12757,800,2,1,11,1.4215576370231746
undo,12,27,0,0,0,29,"[0, 15, 24, 17, 10, 12, 13, 19, 8, 29]",10,1,[14],48.67619281,13855,1098,1,0,11,1.2943834604622402
undo,12,27,0,0,1,14,"[0, 15, 24, 17, 10, 12, 13, 19, 8, 29, 14]",11,0,[],4.381723628,15077,1222,1,0,11,1.6115313043432393
undo,12,27,0,1,1,14,"[0, 15, 24, 17, 10, 12, 13, 19, 8, 29, 14]",11,0,[],4.381723628,19216,4139,1,0,11,1.6115313043432393
undo,13,30,0,0,0,0,[0],1,19,"[3, 4, 5, 7, 9, 11, 16, 17, 18, 19, 20, 21, 22, 24, 25, 26, 27, 28, 29]",300,177,-1,5,41,8,0.0
undo,13,30,0,0,0,16,"[0, 16]",2,17,"[3, 5, 7, 9, 11, 17, 18, 19, 20, 21, 22, 24, 25, 26, 27, 28, 29]",219.3774225,3852,3675,5,34,8,1.0
undo,13,30,0,0,0,25,"[0, 16, 25]",3,10,"[3, 5, 7, 9, 11, 18, 19, 20, 27, 29]",115.0845656,4718,866,5,28,8,1.0336279544884488
undo,13,30,0,0,0,20,"[0, 16, 25, 20]",4,8,"[3, 5, 7, 9, 18, 19, 27, 29]",93.15285342,5457,739,4,14,8,1.0337964627284246
undo,13,30,0,0,0,27,"[0, 16, 25, 20, 27]",5,4,"[3, 5, 18, 29]",59.09408069,6402,945,4,6,8,1.1504365534848
undo,13,30,0,0,0,3,"[0, 16, 25, 20, 27, 3]",6,3,"[5, 18, 29]",39.98910751,7043,641,4,0,8,1.1403876826835333
undo,13,30,0,0,0,18,"[0, 16, 25, 20, 27, 3, 18]",7,2,"[5, 29]",21.74081992,8176,1133,2,0,8,1.1392589158498312
undo,13,30,0,0,1,5,"[0, 16, 25, 20, 27, 3, 18, 5]",8,0,[],8.702415112,9205,1029,1,0,8,1.2046350140224855
undo,13,30,1,0,0,18,"[0, 16, 25, 20, 27, 3, 18]",7,2,"[5, 29]",21.74081992,17627,8422,2,0,8,1.1392589158498312
undo,13,30,1,0,0,3,"[0, 16, 25, 20, 27, 3]",6,3,"[5, 18, 29]",39.98910751,17912,285,4,0,8,1.1403876826835333
undo,13,30,1,0,0,27,"[0, 16, 25, 20, 27]",5,4,"[3, 5, 18, 29]",59.09408069,18127,215,4,6,8,1.1504365534848
undo,13,30,1,0,0,20,"[0, 16, 25, 20]",4,8,"[3, 5, 7, 9, 18, 19, 27, 29]",93.15285342,18310,183,4,14,8,1.0337964627284246
undo,13,30,1,0,0,25,"[0, 16, 25]",3,10,"[3, 5, 7, 9, 11, 18, 19, 20, 27, 29]",115.0845656,18478,168,5,28,8,1.0336279544884488
undo,13,30,1,0,0,16,"[0, 16]",2,17,"[3, 5, 7, 9, 11, 17, 18, 19, 20, 21, 22, 24, 25, 26, 27, 28, 29]",219.3774225,18810,332,5,34,8,1.0
undo,13,30,1,0,0,0,[0],1,19,"[3, 4, 5, 7, 9, 11, 16, 17, 18, 19, 20, 21, 22, 24, 25, 26, 27, 28, 29]",300,19694,884,5,41,8,0.0
undo,13,30,0,0,0,25,"[0, 25]",2,12,"[3, 5, 7, 9, 11, 16, 18, 19, 20, 24, 27, 29]",121.1005869,20518,824,7,37,7,1.0
undo,13,30,0,0,0,20,"[0, 25, 20]",3,9,"[3, 5, 7, 9, 11, 18, 19, 27, 29]",99.16887472,21077,559,5,16,7,1.0037291321296267
undo,13,30,0,0,0,27,"[0, 25, 20, 27]",4,4,"[3, 5, 18, 29]",65.11010199,21953,876,4,6,7,1.1217072851053165
undo,13,30,0,0,0,3,"[0, 25, 20, 27, 3]",5,3,"[5, 18, 29]",46.00512882,23134,1181,4,0,7,1.1140018780928678
undo,13,30,0,0,0,29,"[0, 25, 20, 27, 3, 29]",6,1,[18],27.40405358,23718,584,1,0,7,1.119672312555708
undo,13,30,0,0,1,18,"[0, 25, 20, 27, 3, 29, 18]",7,0,[],8.090845662,24700,982,1,0,7,1.1951451398733344
undo,13,30,1,0,0,29,"[0, 25, 20, 27, 3, 29]",6,1,[18],27.40405358,26344,1644,1,0,7,1.119672312555708
undo,13,30,1,0,0,3,"[0, 25, 20, 27, 3]",5,3,"[5, 18, 29]",46.00512882,26527,183,4,0,7,1.1140018780928678
undo,13,30,1,0,0,27,"[0, 25, 20, 27]",4,4,"[3, 5, 18, 29]",65.11010199,26694,167,4,6,7,1.1217072851053165
undo,13,30,1,0,0,20,"[0, 25, 20]",3,9,"[3, 5, 7, 9, 11, 18, 19, 27, 29]",99.16887472,26861,167,5,16,7,1.0037291321296267
undo,13,30,1,0,0,25,"[0, 25]",2,12,"[3, 5, 7, 9, 11, 16, 18, 19, 20, 24, 27, 29]",121.1005869,27045,184,7,37,7,1.0
undo,13,30,1,0,0,0,[0],1,19,"[3, 4, 5, 7, 9, 11, 16, 17, 18, 19, 20, 21, 22, 24, 25, 26, 27, 28, 29]",300,27227,182,5,41,8,0.0
undo,13,30,0,0,0,16,"[0, 16]",2,17,"[3, 5, 7, 9, 11, 17, 18, 19, 20, 21, 22, 24, 25, 26, 27, 28, 29]",219.3774225,28307,1080,5,34,8,1.0
undo,13,30,0,0,0,25,"[0, 16, 25]",3,10,"[3, 5, 7, 9, 11, 18, 19, 20, 27, 29]",115.0845656,29133,826,5,28,8,1.0336279544884488
undo,13,30,0,0,0,20,"[0, 16, 25, 20]",4,8,"[3, 5, 7, 9, 18, 19, 27, 29]",93.15285342,30005,872,4,14,8,1.0337964627284246
undo,13,30,0,0,0,27,"[0, 16, 25, 20, 27]",5,4,"[3, 5, 18, 29]",59.09408069,30809,804,4,6,8,1.1504365534848
undo,13,30,0,0,0,3,"[0, 16, 25, 20, 27, 3]",6,3,"[5, 18, 29]",39.98910751,31391,582,4,0,8,1.1403876826835333
undo,13,30,0,0,0,29,"[0, 16, 25, 20, 27, 3, 29]",7,1,[18],21.38803228,34448,3057,1,0,8,1.1443827771455848
undo,13,30,0,0,1,18,"[0, 16, 25, 20, 27, 3, 29, 18]",8,0,[],2.074824359,35220,772,1,0,8,1.2197761544023602
undo,13,30,1,0,0,29,"[0, 16, 25, 20, 27, 3, 29]",7,1,[18],21.38803228,38144,2924,1,0,8,1.1443827771455848
undo,13,30,1,0,0,3,"[0, 16, 25, 20, 27, 3]",6,3,"[5, 18, 29]",39.98910751,38644,500,4,0,8,1.1403876826835333
undo,13,30,0,0,0,5,"[0, 16, 25, 20, 27, 3, 5]",7,1,[18],15.14962282,39236,592,1,0,8,1.1779731652786363
undo,13,30,0,0,1,18,"[0, 16, 25, 20, 27, 3, 5, 18]",8,0,[],2.111218006,39735,499,1,0,8,1.2196271502012654
undo,13,30,0,1,1,18,"[0, 16, 25, 20, 27, 3, 5, 18]",8,0,[],2.111218006,44494,4759,1,0,8,1.2196271502012654
undo,14,4,0,0,0,0,[0],1,26,"[3, 4, 5, 6, 7, 8, 10, 11, 12, 13, 14, 15, 16, 17, 18, 19, 20, 21, 22, 23, 24, 25, 26, 27, 28, 29]",300,126,-1,4,489,10,0.0
undo,14,4,0,0,0,28,"[0, 28]",2,21,"[3, 4, 5, 6, 10, 11, 12, 13, 14, 15, 16, 17, 19, 20, 21, 22, 23, 24, 25, 26, 27]",225.9392142,2092,1966,2,216,10,1.0
undo,14,4,0,0,0,14,"[0, 28, 14]",3,13,"[3, 4, 5, 6, 11, 13, 16, 17, 20, 21, 22, 24, 25]",159.6972335,3250,1158,1,26,10,1.0273973946789214
undo,14,4,0,0,0,25,"[0, 28, 14, 25]",4,12,"[3, 4, 5, 6, 11, 13, 16, 17, 20, 21, 22, 24]",143.572718,3967,717,1,25,10,1.233547772313525
undo,14,4,0,0,0,11,"[0, 28, 14, 25, 11]",5,10,"[3, 4, 5, 6, 13, 16, 17, 20, 21, 22]",124.7844238,4618,651,1,15,10,1.425978575879479
undo,14,4,0,0,0,16,"[0, 28, 14, 25, 11, 16]",6,9,"[3, 4, 5, 6, 13, 17, 20, 21, 22]",109.7844238,5225,607,1,12,10,1.3799325158051412
undo,14,4,0,0,0,17,"[0, 28, 14, 25, 11, 16, 17]",7,5,"[3, 5, 20, 21, 22]",83.70761416,6137,912,1,5,10,1.3195184878861832
undo,14,4,0,0,0,20,"[0, 28, 14, 25, 11, 16, 17, 20]",8,3,"[5, 21, 22]",43.48324344,7834,1697,1,2,10,1.4038284317031835
undo,14,4,0,0,0,22,"[0, 28, 14, 25, 11, 16, 17, 20, 22]",9,1,[21],13.25081052,8597,763,1,0,10,1.807318570651008
undo,14,4,0,0,1,21,"[0, 28, 14, 25, 11, 16, 17, 20, 22, 21]",10,0,[],2.205449508,9438,841,1,0,10,2.0148407301566107
undo,14,4,0,1,1,21,"[0, 28, 14, 25, 11, 16, 17, 20, 22, 21]",10,0,[],2.205449508,39942,30504,1,0,10,2.0148407301566107
undo,15,16,0,0,0,0,[0],1,29,"[1, 2, 3, 4, 5, 6, 7, 8, 9, 10, 11, 12, 13, 14, 15, 16, 17, 18, 19, 20, 21, 22, 23, 24, 25, 26, 27, 28, 29]",300,161,-1,13,161,9,0.0
undo,15,16,0,0,0,17,"[0, 17]",2,27,"[1, 2, 3, 4, 5, 7, 8, 9, 10, 11, 12, 13, 14, 15, 16, 18, 19, 20, 21, 22, 23, 24, 25, 26, 27, 28, 29]",241.3058776,2637,2476,2,58,9,1.0
undo,15,16,0,0,0,16,"[0, 17, 16]",3,26,"[1, 2, 3, 4, 5, 7, 8, 9, 10, 11, 12, 13, 14, 15, 18, 19, 20, 21, 22, 23, 24, 25, 26, 27, 28, 29]",212.9862731,3226,589,2,52,9,1.0529535521792848
undo,15,16,0,0,0,8,"[0, 17, 16, 8]",4,19,"[2, 3, 4, 5, 9, 12, 13, 14, 15, 19, 20, 21, 22, 23, 25, 26, 27, 28, 29]",164.6127266,4056,830,2,38,9,1.0915134501573105
undo,15,16,0,0,0,20,"[0, 17, 16, 8, 20]",5,10,"[3, 4, 5, 9, 12, 13, 15, 19, 21, 25]",106.8372993,5035,979,1,15,9,1.067523143001942
undo,15,16,0,0,0,25,"[0, 17, 16, 8, 20, 25]",6,7,"[3, 4, 5, 9, 12, 13, 15]",94.18818869,5672,637,1,9,9,1.1170093326933646
undo,15,16,0,0,0,9,"[0, 17, 16, 8, 20, 25, 9]",7,5,"[3, 4, 5, 13, 15]",81.38194021,6310,638,1,4,9,1.1095076562662525
undo,15,16,0,0,0,15,"[0, 17, 16, 8, 20, 25, 9, 15]",8,1,[5],42.48463953,7524,1214,1,0,9,1.213831159678775
undo,15,16,0,0,1,5,"[0, 17, 16, 8, 20, 25, 9, 15, 5]",9,0,[],13.0567616,8312,788,1,0,9,1.5171779607523481
undo,15,16,1,0,0,15,"[0, 17, 16, 8, 20, 25, 9, 15]",8,1,[5],42.48463953,13911,5599,1,0,9,1.213831159678775
undo,15,16,1,0,0,9,"[0, 17, 16, 8, 20, 25, 9]",7,5,"[3, 4, 5, 13, 15]",81.38194021,14145,234,1,4,9,1.1095076562662525
undo,15,16,1,0,0,25,"[0, 17, 16, 8, 20, 25]",6,7,"[3, 4, 5, 9, 12, 13, 15]",94.18818869,14328,183,1,9,9,1.1170093326933646
undo,15,16,1,0,0,20,"[0, 17, 16, 8, 20]",5,10,"[3, 4, 5, 9, 12, 13, 15, 19, 21, 25]",106.8372993,14512,184,1,15,9,1.067523143001942
undo,15,16,1,0,0,8,"[0, 17, 16, 8]",4,19,"[2, 3, 4, 5, 9, 12, 13, 14, 15, 19, 20, 21, 22, 23, 25, 26, 27, 28, 29]",164.6127266,14661,149,2,38,9,1.0915134501573105
undo,15,16,1,0,0,16,"[0, 17, 16]",3,26,"[1, 2, 3, 4, 5, 7, 8, 9, 10, 11, 12, 13, 14, 15, 18, 19, 20, 21, 22, 23, 24, 25, 26, 27, 28, 29]",212.9862731,14978,317,2,52,9,1.0529535521792848
undo,15,16,1,0,0,17,"[0, 17]",2,27,"[1, 2, 3, 4, 5, 7, 8, 9, 10, 11, 12, 13, 14, 15, 16, 18, 19, 20, 21, 22, 23, 24, 25, 26, 27, 28, 29]",241.3058776,15195,217,2,58,9,1.0
undo,15,16,1,0,0,0,[0],1,29,"[1, 2, 3, 4, 5, 6, 7, 8, 9, 10, 11, 12, 13, 14, 15, 16, 17, 18, 19, 20, 21, 22, 23, 24, 25, 26, 27, 28, 29]",300,15395,200,13,161,9,0.0
undo,15,16,0,0,0,28,"[0, 28]",2,27,"[1, 2, 3, 4, 5, 7, 8, 9, 10, 11, 12, 13, 14, 15, 16, 17, 18, 19, 20, 21, 22, 23, 24, 25, 26, 27, 29]",284.3475242,17085,1690,11,92,9,1.0
undo,15,16,0,0,0,17,"[0, 28, 17]",3,26,"[1, 2, 3, 4, 5, 7, 8, 9, 10, 11, 12, 13, 14, 15, 16, 18, 19, 20, 21, 22, 23, 24, 25, 26, 27, 29]",219.1555001,18658,1573,10,46,9,1.3773866384707543
undo,15,16,0,0,0,16,"[0, 28, 17, 16]",4,25,"[1, 2, 3, 4, 5, 7, 8, 9, 10, 11, 12, 13, 14, 15, 18, 19, 20, 21, 22, 23, 24, 25, 26, 27, 29]",190.8358956,19473,815,10,34,9,1.3209953830681203
undo,15,16,0,0,0,21,"[0, 28, 17, 16, 21]",5,13,"[3, 5, 7, 8, 9, 10, 12, 15, 20, 22, 25, 26, 29]",146.1816685,20384,911,4,7,9,1.8136482702070456
undo,15,16,0,0,0,8,"[0, 28, 17, 16, 21, 8]",6,6,"[5, 9, 12, 15, 20, 25]",96.92722704,21183,799,4,2,9,1.637204572335983
undo,15,16,0,0,0,20,"[0, 28, 17, 16, 21, 8, 20]",7,2,"[9, 25]",39.15179974,22067,884,2,0,9,1.441590377328759
undo,15,16,0,0,0,25,"[0, 28, 17, 16, 21, 8, 20, 25]",8,1,[9],26.5026891,22837,770,1,0,9,1.484361110265371
undo,15,16,0,0,1,9,"[0, 28, 17, 16, 21, 8, 20, 25, 9]",9,0,[],13.69644062,23791,954,1,0,9,1.4530180692918209
undo,15,16,1,0,0,25,"[0, 28, 17, 16, 21, 8, 20, 25]",8,1,[9],26.5026891,25962,2171,1,0,9,1.484361110265371
undo,15,16,1,0,0,20,"[0, 28, 17, 16, 21, 8, 20]",7,2,"[9, 25]",39.15179974,26161,199,2,0,9,1.441590377328759
undo,15,16,1,0,0,8,"[0, 28, 17, 16, 21, 8]",6,6,"[5, 9, 12, 15, 20, 25]",96.92722704,26462,301,4,2,9,1.637204572335983
undo,15,16,1,0,0,21,"[0, 28, 17, 16, 21]",5,13,"[3, 5, 7, 8, 9, 10, 12, 15, 20, 22, 25, 26, 29]",146.1816685,26661,199,4,7,9,1.8136482702070456
undo,15,16,1,0,0,16,"[0, 28, 17, 16]",4,25,"[1, 2, 3, 4, 5, 7, 8, 9, 10, 11, 12, 13, 14, 15, 18, 19, 20, 21, 22, 23, 24, 25, 26, 27, 29]",190.8358956,27078,417,10,34,9,1.3209953830681203
undo,15,16,0,0,0,8,"[0, 28, 17, 16, 8]",5,12,"[3, 4, 5, 9, 12, 13, 15, 19, 20, 21, 25, 29]",142.4623491,28518,1440,6,19,9,1.2700932705506198
undo,15,16,0,0,0,20,"[0, 28, 17, 16, 8, 20]",6,6,"[4, 5, 9, 12, 15, 25]",84.6869218,29424,906,4,4,9,1.1899382910703262
undo,15,16,0,0,0,25,"[0, 28, 17, 16, 8, 20, 25]",7,3,"[5, 9, 15]",72.03781116,29968,544,2,2,9,1.2372268181049477
undo,15,16,0,0,0,9,"[0, 28, 17, 16, 8, 20, 25, 9]",8,2,"[5, 15]",59.23156268,30549,581,2,0,9,1.221922950237529
undo,15,16,0,0,1,15,"[0, 28, 17, 16, 8, 20, 25, 9, 15]",9,0,[],20.334262,31419,870,1,0,9,1.318239760375411
undo,15,16,0,1,1,15,"[0, 28, 17, 16, 8, 20, 25, 9, 15]",9,0,[],20.334262,41445,10026,1,0,9,1.318239760375411
undo,16,25,0,0,0,0,[0],1,28,"[1, 2, 3, 4, 5, 7, 8, 9, 10, 11, 12, 13, 14, 15, 16, 17, 18, 19, 20, 21, 22, 23, 24, 25, 26, 27, 28, 29]",300,148,-1,5,94,10,0.0
undo,16,25,0,0,0,23,"[0, 23]",2,23,"[1, 2, 3, 5, 7, 8, 9, 11, 12, 13, 14, 16, 17, 19, 20, 21, 22, 24, 25, 26, 27, 28, 29]",259.7756293,2181,2033,3,33,10,1.0
undo,16,25,1,0,0,0,[0],1,28,"[1, 2, 3, 4, 5, 7, 8, 9, 10, 11, 12, 13, 14, 15, 16, 17, 18, 19, 20, 21, 22, 23, 24, 25, 26, 27, 28, 29]",300,5992,3811,5,94,10,0.0
undo,16,25,0,0,0,23,"[0, 23]",2,23,"[1, 2, 3, 5, 7, 8, 9, 11, 12, 13, 14, 16, 17, 19, 20, 21, 22, 24, 25, 26, 27, 28, 29]",259.7756293,8783,2791,3,33,10,1.0
undo,16,25,0,0,0,7,"[0, 23, 7]",3,16,"[1, 3, 5, 8, 9, 11, 13, 17, 19, 21, 22, 24, 26, 27, 28, 29]",181.9424744,9715,932,1,21,9,1.0073109045884563
undo,16,25,0,0,0,24,"[0, 23, 7, 24]",4,10,"[3, 5, 8, 9, 11, 13, 19, 22, 28, 29]",157.1836376,10513,798,1,17,9,1.0161584555781231
undo,16,25,0,0,0,9,"[0, 23, 7, 24, 9]",5,8,"[3, 8, 11, 13, 19, 22, 28, 29]",139.1558812,11116,603,1,16,9,1.0303325523073676
undo,16,25,0,0,0,3,"[0, 23, 7, 24, 9, 3]",6,4,"[8, 11, 13, 28]",108.8903893,11965,849,1,5,9,1.0321657704271587
undo,16,25,0,0,0,8,"[0, 23, 7, 24, 9, 3, 8]",7,2,"[13, 28]",69.68579774,12948,983,2,0,8,1.1517293849793737
undo,16,25,0,0,1,28,"[0, 23, 7, 24, 9, 3, 8, 28]",8,0,[],29.07791673,13857,909,1,0,8,1.251990046205978
undo,16,25,1,0,0,8,"[0, 23, 7, 24, 9, 3, 8]",7,2,"[13, 28]",69.68579774,15742,1885,2,0,8,1.1517293849793737
undo,16,25,1,0,0,3,"[0, 23, 7, 24, 9, 3]",6,4,"[8, 11, 13, 28]",108.8903893,16859,1117,1,5,9,1.0321657704271587
undo,16,25,0,0,0,13,"[0, 23, 7, 24, 9, 3, 13]",7,2,"[8, 28]",77.6493906,18108,1249,1,1,9,1.1031543757060376
undo,16,25,0,0,0,28,"[0, 23, 7, 24, 9, 3, 13, 28]",8,1,[8],43.41490506,18808,700,1,0,9,1.1857356956374323
undo,16,25,0,0,1,8,"[0, 23, 7, 24, 9, 3, 13, 28, 8]",9,0,[],2.807024055,19717,909,1,0,9,1.486169242046657
undo,16,25,1,0,0,28,"[0, 23, 7, 24, 9, 3, 13, 28]",8,1,[8],43.41490506,21625,1908,1,0,9,1.1857356956374323
undo,16,25,1,0,0,13,"[0, 23, 7, 24, 9, 3, 13]",7,2,"[8, 28]",77.6493906,21824,199,1,1,9,1.1031543757060376
undo,16,25,1,0,0,3,"[0, 23, 7, 24, 9, 3]",6,4,"[8, 11, 13, 28]",108.8903893,21976,152,1,5,9,1.0321657704271587
undo,16,25,1,0,0,9,"[0, 23, 7, 24, 9]",5,8,"[3, 8, 11, 13, 19, 22, 28, 29]",139.1558812,22109,133,1,16,9,1.0303325523073676
undo,16,25,1,0,0,24,"[0, 23, 7, 24]",4,10,"[3, 5, 8, 9, 11, 13, 19, 22, 28, 29]",157.1836376,22275,166,1,17,9,1.0161584555781231
undo,16,25,1,0,0,7,"[0, 23, 7]",3,16,"[1, 3, 5, 8, 9, 11, 13, 17, 19, 21, 22, 24, 26, 27, 28, 29]",181.9424744,22576,301,1,21,9,1.0073109045884563
undo,16,25,1,0,0,23,"[0, 23]",2,23,"[1, 2, 3, 5, 7, 8, 9, 11, 12, 13, 14, 16, 17, 19, 20, 21, 22, 24, 25, 26, 27, 28, 29]",259.7756293,22725,149,3,33,10,1.0
undo,16,25,1,0,0,0,[0],1,28,"[1, 2, 3, 4, 5, 7, 8, 9, 10, 11, 12, 13, 14, 15, 16, 17, 18, 19, 20, 21, 22, 23, 24, 25, 26, 27, 28, 29]",300,23092,367,5,94,10,0.0
undo,16,25,0,0,0,21,"[0, 21]",2,19,"[1, 2, 3, 5, 7, 8, 9, 11, 12, 13, 17, 18, 19, 20, 22, 23, 24, 25, 29]",249.7904392,24896,1804,1,28,9,1.0
undo,16,25,0,0,0,20,"[0, 21, 20]",3,12,"[1, 2, 5, 7, 12, 17, 19, 22, 23, 24, 25, 29]",212.3071095,25699,803,10,30,8,1.124267826923077
undo,16,25,0,0,0,1,"[0, 21, 20, 1]",4,8,"[5, 7, 12, 19, 22, 23, 24, 29]",164.8940312,26816,1117,10,14,8,4.351470253441195
undo,16,25,0,0,0,23,"[0, 21, 20, 1, 23]",5,5,"[5, 7, 19, 22, 29]",97.88656889,28415,1599,5,1,8,5.024651162492001
undo,16,25,0,0,1,7,"[0, 21, 20, 1, 23, 7]",6,0,[],20.053414,30201,1786,1,0,6,2.388608835793778
undo,16,25,1,0,0,23,"[0, 21, 20, 1, 23]",5,5,"[5, 7, 19, 22, 29]",97.88656889,31676,1475,5,1,8,5.024651162492001
undo,16,25,1,0,0,1,"[0, 21, 20, 1]",4,8,"[5, 7, 12, 19, 22, 23, 24, 29]",164.8940312,31859,183,10,14,8,4.351470253441195
undo,16,25,0,0,0,23,"[0, 21, 20, 1, 23]",5,5,"[5, 7, 19, 22, 29]",97.88656889,32833,974,5,1,8,5.024651162492001
undo,16,25,0,0,0,19,"[0, 21, 20, 1, 23, 19]",6,2,"[22, 29]",62.03967224,34332,1499,2,0,8,4.95213632862193
undo,16,25,0,0,0,29,"[0, 21, 20, 1, 23, 19, 29]",7,1,[22],45.76085164,35081,749,1,0,8,4.05965035179028
undo,16,25,0,0,1,22,"[0, 21, 20, 1, 23, 19, 29, 22]",8,0,[],29.63633614,35909,828,1,0,8,3.4944591417822504
undo,16,25,1,0,0,29,"[0, 21, 20, 1, 23, 19, 29]",7,1,[22],45.76085164,38342,2433,1,0,8,4.05965035179028
undo,16,25,1,0,0,19,"[0, 21, 20, 1, 23, 19]",6,2,"[22, 29]",62.03967224,38558,216,2,0,8,4.95213632862193
undo,16,25,1,0,0,23,"[0, 21, 20, 1, 23]",5,5,"[5, 7, 19, 22, 29]",97.88656889,38825,267,5,1,8,5.024651162492001
undo,16,25,1,0,0,1,"[0, 21, 20, 1]",4,8,"[5, 7, 12, 19, 22, 23, 24, 29]",164.8940312,39092,267,10,14,8,4.351470253441195
undo,16,25,1,0,0,20,"[0, 21, 20]",3,12,"[1, 2, 5, 7, 12, 17, 19, 22, 23, 24, 25, 29]",212.3071095,39409,317,10,30,8,1.124267826923077
undo,16,25,1,0,0,21,"[0, 21]",2,19,"[1, 2, 3, 5, 7, 8, 9, 11, 12, 13, 17, 18, 19, 20, 22, 23, 24, 25, 29]",249.7904392,39742,333,1,28,9,1.0
undo,16,25,1,0,0,0,[0],1,28,"[1, 2, 3, 4, 5, 7, 8, 9, 10, 11, 12, 13, 14, 15, 16, 17, 18, 19, 20, 21, 22, 23, 24, 25, 26, 27, 28, 29]",300,40208,466,5,94,10,0.0
undo,16,25,0,0,0,22,"[0, 22]",2,26,"[1, 2, 3, 4, 5, 7, 8, 9, 11, 12, 13, 14, 15, 16, 17, 18, 19, 20, 21, 23, 24, 25, 26, 27, 28, 29]",222.6307555,42371,2163,3,29,9,1.0
undo,16,25,0,0,0,29,"[0, 22, 29]",3,20,"[1, 2, 3, 5, 7, 8, 9, 11, 12, 13, 14, 16, 17, 19, 20, 21, 23, 24, 25, 28]",206.50624,43156,785,3,21,9,1.4928935143251596
undo,16,25,0,0,0,19,"[0, 22, 29, 19]",4,16,"[1, 3, 5, 7, 8, 9, 11, 12, 13, 17, 20, 21, 23, 24, 25, 28]",190.2274194,44016,860,3,17,9,2.2844513175494834
undo,16,25,0,0,0,23,"[0, 22, 29, 19, 23]",5,8,"[1, 3, 5, 7, 9, 20, 21, 24]",154.3805227,44886,870,1,6,9,3.6201803703916275
undo,16,25,0,0,0,7,"[0, 22, 29, 19, 23, 7]",6,3,"[3, 9, 24]",76.54736782,45819,933,1,3,9,1.9065813205042084
undo,16,25,0,0,0,24,"[0, 22, 29, 19, 23, 7, 24]",7,2,"[3, 9]",51.78853102,46688,869,1,1,9,1.7660594258035383
undo,16,25,0,0,0,9,"[0, 22, 29, 19, 23, 7, 24, 9]",8,1,[3],33.76077464,47670,982,1,0,9,1.705470754144262
undo,16,25,0,0,1,3,"[0, 22, 29, 19, 23, 7, 24, 9, 3]",9,0,[],3.49528274,48624,954,1,0,9,1.6013952349386202
undo,16,25,1,0,0,9,"[0, 22, 29, 19, 23, 7, 24, 9]",8,1,[3],33.76077464,52526,3902,1,0,9,1.705470754144262
undo,16,25,1,0,0,24,"[0, 22, 29, 19, 23, 7, 24]",7,2,"[3, 9]",51.78853102,52891,365,1,1,9,1.7660594258035383
undo,16,25,1,0,0,7,"[0, 22, 29, 19, 23, 7]",6,3,"[3, 9, 24]",76.54736782,53091,200,1,3,9,1.9065813205042084
undo,16,25,1,0,0,23,"[0, 22, 29, 19, 23]",5,8,"[1, 3, 5, 7, 9, 20, 21, 24]",154.3805227,53291,200,1,6,9,3.6201803703916275
undo,16,25,1,0,0,19,"[0, 22, 29, 19]",4,16,"[1, 3, 5, 7, 8, 9, 11, 12, 13, 17, 20, 21, 23, 24, 25, 28]",190.2274194,53476,185,3,17,9,2.2844513175494834
undo,16,25,1,0,0,29,"[0, 22, 29]",3,20,"[1, 2, 3, 5, 7, 8, 9, 11, 12, 13, 14, 16, 17, 19, 20, 21, 23, 24, 25, 28]",206.50624,53843,367,3,21,9,1.4928935143251596
undo,16,25,1,0,0,22,"[0, 22]",2,26,"[1, 2, 3, 4, 5, 7, 8, 9, 11, 12, 13, 14, 15, 16, 17, 18, 19, 20, 21, 23, 24, 25, 26, 27, 28, 29]",222.6307555,54225,382,3,29,9,1.0
undo,16,25,1,0,0,0,[0],1,28,"[1, 2, 3, 4, 5, 7, 8, 9, 10, 11, 12, 13, 14, 15, 16, 17, 18, 19, 20, 21, 22, 23, 24, 25, 26, 27, 28, 29]",300,54558,333,5,94,10,0.0
undo,16,25,0,0,0,23,"[0, 23]",2,23,"[1, 2, 3, 5, 7, 8, 9, 11, 12, 13, 14, 16, 17, 19, 20, 21, 22, 24, 25, 26, 27, 28, 29]",259.7756293,55938,1380,3,33,10,1.0
undo,16,25,0,0,0,19,"[0, 23, 19]",3,21,"[1, 2, 3, 5, 7, 8, 9, 11, 12, 13, 14, 16, 17, 20, 21, 22, 24, 25, 27, 28, 29]",223.9287326,56790,852,3,24,10,1.583101227007039
undo,16,25,0,0,0,29,"[0, 23, 19, 29]",4,19,"[1, 2, 3, 5, 7, 8, 9, 11, 12, 13, 14, 16, 17, 20, 21, 22, 24, 25, 28]",207.649912,57563,773,3,17,10,1.474631541426484
undo,16,25,0,0,0,22,"[0, 23, 19, 29, 22]",5,18,"[1, 2, 3, 5, 7, 8, 9, 11, 12, 13, 14, 16, 17, 20, 21, 24, 25, 28]",191.5253965,58329,766,3,14,10,1.4020377754906637
undo,16,25,0,0,0,7,"[0, 23, 19, 29, 22, 7]",6,7,"[3, 8, 9, 11, 13, 24, 28]",115.8814939,59214,885,3,11,10,1.5709678649326715
undo,16,25,0,0,0,24,"[0, 23, 19, 29, 22, 7, 24]",7,5,"[3, 8, 9, 13, 28]",91.12265712,60096,882,3,7,10,1.486191600033379
undo,16,25,0,0,0,9,"[0, 23, 19, 29, 22, 7, 24, 9]",8,4,"[3, 8, 13, 28]",73.09490075,60833,737,3,3,10,1.453504870342882
undo,16,25,0,0,0,3,"[0, 23, 19, 29, 22, 7, 24, 9, 3]",9,3,"[8, 13, 28]",42.82940885,61702,869,3,0,10,1.388955167525479
undo,16,25,0,0,1,28,"[0, 23, 19, 29, 22, 7, 24, 9, 3, 28]",10,0,[],11.52445716,63300,1598,1,0,10,1.3331084120212044
undo,16,25,0,1,1,28,"[0, 23, 19, 29, 22, 7, 24, 9, 3, 28]",10,0,[],11.52445716,71293,7993,1,0,10,1.3331084120212044
undo,17,34,0,0,0,0,[0],1,25,"[1, 3, 4, 5, 6, 7, 8, 9, 10, 11, 12, 13, 15, 18, 19, 20, 21, 22, 23, 24, 25, 26, 27, 28, 29]",300,140,-1,12,367,10,0.0
undo,17,34,0,0,0,13,"[0, 13]",2,24,"[1, 3, 4, 5, 6, 7, 8, 9, 10, 11, 12, 15, 18, 19, 20, 21, 22, 23, 24, 25, 26, 27, 28, 29]",279.9750156,3039,2899,12,331,10,1.0
undo,17,34,0,0,0,1,"[0, 13, 1]",3,16,"[3, 5, 7, 8, 9, 10, 11, 12, 19, 21, 22, 23, 24, 25, 27, 29]",211.8574701,4036,997,3,92,10,1.0010381285747127
undo,17,34,0,0,0,8,"[0, 13, 1, 8]",4,14,"[3, 5, 7, 9, 10, 11, 12, 19, 22, 23, 24, 25, 27, 29]",201.0871405,5038,1002,2,54,10,1.1636807
undo,17,34,0,0,0,25,"[0, 13, 1, 8, 25]",5,12,"[3, 5, 7, 9, 10, 11, 12, 22, 23, 24, 27, 29]",183.999133,6120,1082,2,28,10,1.1396208815936457
undo,17,34,0,0,0,24,"[0, 13, 1, 8, 25, 24]",6,11,"[3, 5, 7, 9, 10, 11, 12, 22, 23, 27, 29]",166.5062774,6953,833,2,23,10,1.374180768736554
undo,17,34,0,0,0,12,"[0, 13, 1, 8, 25, 24, 12]",7,7,"[7, 9, 10, 11, 22, 23, 27]",115.4670767,7804,851,1,8,10,1.4994254760835948
undo,17,34,0,0,0,7,"[0, 13, 1, 8, 25, 24, 12, 7]",8,5,"[9, 11, 22, 23, 27]",100.4337804,8338,534,1,4,10,1.758992610425009
undo,17,34,0,0,0,23,"[0, 13, 1, 8, 25, 24, 12, 7, 23]",9,1,[27],72.27352467,9134,796,1,0,10,2.399781305190153
undo,17,34,0,0,1,27,"[0, 13, 1, 8, 25, 24, 12, 7, 23, 27]",10,0,[],18.60789321,10218,1084,1,0,10,4.766619878750327
undo,17,34,0,1,1,27,"[0, 13, 1, 8, 25, 24, 12, 7, 23, 27]",10,0,[],18.60789321,21007,10789,1,0,10,4.766619878750327
undo,18,39,0,0,0,0,[0],1,28,"[1, 2, 3, 4, 5, 6, 7, 9, 10, 11, 12, 13, 14, 15, 16, 17, 18, 19, 20, 21, 22, 23, 24, 25, 26, 27, 28, 29]",300,128,-1,1,30,10,0.0
undo,18,39,0,0,0,14,"[0, 14]",2,26,"[1, 2, 3, 4, 5, 6, 7, 9, 10, 12, 13, 15, 16, 17, 18, 19, 20, 21, 22, 23, 24, 25, 26, 27, 28, 29]",286.9615952,2719,2591,1,22,10,1.0
undo,18,39,0,0,0,29,"[0, 14, 29]",3,23,"[1, 2, 3, 4, 5, 6, 7, 9, 10, 12, 13, 15, 16, 17, 18, 19, 21, 22, 23, 24, 25, 26, 28]",218.9321898,6152,3433,1,21,10,1.4237768813412561
undo,18,39,0,0,0,12,"[0, 14, 29, 12]",4,16,"[1, 2, 4, 5, 7, 9, 10, 13, 15, 16, 18, 19, 22, 23, 24, 26]",158.3929463,6985,833,1,11,10,1.2085522586932163
undo,18,39,0,0,0,10,"[0, 14, 29, 12, 10]",5,11,"[1, 4, 5, 7, 15, 16, 18, 19, 22, 23, 26]",122.8823845,8618,1633,1,8,10,1.4905426536315662
undo,18,39,0,0,0,7,"[0, 14, 29, 12, 10, 7]",6,6,"[1, 16, 18, 19, 22, 26]",89.46083457,9344,726,1,6,10,1.3836596018032035
undo,18,39,0,0,0,26,"[0, 14, 29, 12, 10, 7, 26]",7,3,"[16, 19, 22]",70.77929288,10137,793,1,4,10,1.4191124441944845
undo,18,39,0,0,0,22,"[0, 14, 29, 12, 10, 7, 26, 22]",8,2,"[16, 19]",53.05924773,10868,731,1,1,10,1.594793297833885
undo,18,39,0,0,0,16,"[0, 14, 29, 12, 10, 7, 26, 22, 16]",9,1,[19],18.05924773,11752,884,1,0,10,1.48519520801471
undo,18,39,0,0,1,19,"[0, 14, 29, 12, 10, 7, 26, 22, 16, 19]",10,0,[],0.594998533,12924,1172,1,0,10,1.484277847976571
undo,18,39,0,1,1,19,"[0, 14, 29, 12, 10, 7, 26, 22, 16, 19]",10,0,[],0.594998533,18610,5686,1,0,10,1.484277847976571
undo,19,1,0,0,0,0,[0],1,26,"[1, 2, 4, 5, 7, 8, 9, 10, 11, 12, 13, 14, 15, 16, 17, 18, 19, 20, 21, 22, 23, 24, 25, 26, 28, 29]",300,129,-1,6,74,7,0.0
undo,19,1,0,0,0,24,"[0, 24]",2,8,"[5, 7, 8, 14, 16, 19, 20, 26]",185.4137879,2987,2858,9,13,5,1.0
undo,19,1,0,0,0,26,"[0, 24, 26]",3,6,"[5, 8, 14, 16, 19, 20]",152.1722476,3716,729,7,4,5,1.502125301442057
undo,19,1,0,0,0,19,"[0, 24, 26, 19]",4,4,"[5, 8, 16, 20]",113.5458318,4470,754,4,0,5,1.5438989781695114
undo,19,1,0,0,1,8,"[0, 24, 26, 19, 8]",5,0,[],60.39510274,5588,1118,1,0,5,2.44494793122449
undo,19,1,1,0,0,19,"[0, 24, 26, 19]",4,4,"[5, 8, 16, 20]",113.5458318,8663,3075,4,0,5,1.5438989781695114
undo,19,1,1,0,0,26,"[0, 24, 26]",3,6,"[5, 8, 14, 16, 19, 20]",152.1722476,8947,284,7,4,5,1.502125301442057
undo,19,1,1,0,0,24,"[0, 24]",2,8,"[5, 7, 8, 14, 16, 19, 20, 26]",185.4137879,9162,215,9,13,5,1.0
undo,19,1,1,0,0,0,[0],1,26,"[1, 2, 4, 5, 7, 8, 9, 10, 11, 12, 13, 14, 15, 16, 17, 18, 19, 20, 21, 22, 23, 24, 25, 26, 28, 29]",300,9363,201,6,74,7,0.0
undo,19,1,0,0,0,8,"[0, 8]",2,23,"[1, 4, 5, 7, 9, 10, 11, 12, 13, 14, 15, 16, 17, 18, 19, 20, 21, 23, 24, 25, 26, 28, 29]",202,10505,1142,1,16,7,1.0
undo,19,1,0,0,0,20,"[0, 8, 20]",3,12,"[1, 4, 5, 11, 13, 14, 15, 17, 18, 19, 28, 29]",125.9408125,11636,1131,1,7,7,1.02364736730791
undo,19,1,0,0,0,5,"[0, 8, 20, 5]",4,7,"[1, 4, 11, 13, 17, 18, 29]",104.469902,12355,719,1,3,7,1.0439599203945713
undo,19,1,0,0,0,18,"[0, 8, 20, 5, 18]",5,2,"[4, 29]",81.64447755,13273,918,1,1,7,1.0840407791793756
undo,19,1,0,0,0,4,"[0, 8, 20, 5, 18, 4]",6,1,[29],42.69579336,14127,854,1,0,7,1.0902329133216275
undo,19,1,0,0,1,29,"[0, 8, 20, 5, 18, 4, 29]",7,0,[],6.640280603,17444,3317,1,0,7,1.2859729622882756
undo,19,1,1,0,0,4,"[0, 8, 20, 5, 18, 4]",6,1,[29],42.69579336,20313,2869,1,0,7,1.0902329133216275
undo,19,1,1,0,0,18,"[0, 8, 20, 5, 18]",5,2,"[4, 29]",81.64447755,20514,201,1,1,7,1.0840407791793756
undo,19,1,1,0,0,5,"[0, 8, 20, 5]",4,7,"[1, 4, 11, 13, 17, 18, 29]",104.469902,20730,216,1,3,7,1.0439599203945713
undo,19,1,1,0,0,20,"[0, 8, 20]",3,12,"[1, 4, 5, 11, 13, 14, 15, 17, 18, 19, 28, 29]",125.9408125,20913,183,1,7,7,1.02364736730791
undo,19,1,1,0,0,8,"[0, 8]",2,23,"[1, 4, 5, 7, 9, 10, 11, 12, 13, 14, 15, 16, 17, 18, 19, 20, 21, 23, 24, 25, 26, 28, 29]",202,21064,151,1,16,7,1.0
undo,19,1,1,0,0,0,[0],1,26,"[1, 2, 4, 5, 7, 8, 9, 10, 11, 12, 13, 14, 15, 16, 17, 18, 19, 20, 21, 22, 23, 24, 25, 26, 28, 29]",300,21213,149,6,74,7,0.0
undo,19,1,0,0,0,17,"[0, 17]",2,16,"[1, 4, 5, 8, 9, 13, 14, 15, 18, 19, 20, 22, 23, 25, 28, 29]",148.273272,22870,1657,5,27,6,1.0
undo,19,1,0,0,0,1,"[0, 17, 1]",3,13,"[4, 5, 8, 9, 14, 15, 18, 20, 22, 23, 25, 28, 29]",123.9216806,23684,814,5,15,6,1.023953470094605
undo,19,1,0,0,0,28,"[0, 17, 1, 28]",4,5,"[9, 15, 22, 23, 29]",89.03615356,25508,1824,5,3,6,1.031845559355314
undo,19,1,0,0,0,15,"[0, 17, 1, 28, 15]",5,3,"[22, 23, 29]",53.80832365,26472,964,3,0,6,1.0536803061525326
undo,19,1,0,0,1,29,"[0, 17, 1, 28, 15, 29]",6,0,[],2.818128513,27473,1001,1,0,6,1.3027277650798683
undo,19,1,1,0,0,15,"[0, 17, 1, 28, 15]",5,3,"[22, 23, 29]",53.80832365,28380,907,3,0,6,1.0536803061525326
undo,19,1,1,0,0,28,"[0, 17, 1, 28]",4,5,"[9, 15, 22, 23, 29]",89.03615356,28564,184,5,3,6,1.031845559355314
undo,19,1,1,0,0,1,"[0, 17, 1]",3,13,"[4, 5, 8, 9, 14, 15, 18, 20, 22, 23, 25, 28, 29]",123.9216806,28746,182,5,15,6,1.023953470094605
undo,19,1,1,0,0,17,"[0, 17]",2,16,"[1, 4, 5, 8, 9, 13, 14, 15, 18, 19, 20, 22, 23, 25, 28, 29]",148.273272,28913,167,5,27,6,1.0
undo,19,1,1,0,0,0,[0],1,26,"[1, 2, 4, 5, 7, 8, 9, 10, 11, 12, 13, 14, 15, 16, 17, 18, 19, 20, 21, 22, 23, 24, 25, 26, 28, 29]",300,29097,184,6,74,7,0.0
undo,19,1,0,0,0,20,"[0, 20]",2,13,"[1, 4, 5, 8, 11, 13, 14, 15, 17, 18, 19, 28, 29]",129.961769,30252,1155,2,11,6,1.0
undo,19,1,0,0,0,5,"[0, 20, 5]",3,9,"[1, 4, 8, 11, 13, 17, 18, 19, 29]",108.4908585,31109,857,2,6,6,1.0224915251419384
undo,19,1,0,0,0,18,"[0, 20, 5, 18]",4,4,"[4, 13, 17, 29]",85.66543403,31737,628,2,3,6,1.064078468417926
undo,19,1,0,0,0,4,"[0, 20, 5, 18, 4]",5,2,"[13, 29]",46.71674984,32712,975,2,0,6,1.0731955739217967
undo,19,1,0,0,1,13,"[0, 20, 5, 18, 4, 13]",6,0,[],2.332067799,34336,1624,1,0,6,1.0623276828380515
undo,19,1,1,0,0,4,"[0, 20, 5, 18, 4]",5,2,"[13, 29]",46.71674984,35047,711,2,0,6,1.0731955739217967
undo,19,1,1,0,0,18,"[0, 20, 5, 18]",4,4,"[4, 13, 17, 29]",85.66543403,35264,217,2,3,6,1.064078468417926
undo,19,1,1,0,0,5,"[0, 20, 5]",3,9,"[1, 4, 8, 11, 13, 17, 18, 19, 29]",108.4908585,35463,199,2,6,6,1.0224915251419384
undo,19,1,1,0,0,20,"[0, 20]",2,13,"[1, 4, 5, 8, 11, 13, 14, 15, 17, 18, 19, 28, 29]",129.961769,36064,601,2,11,6,1.0
undo,19,1,1,0,0,0,[0],1,26,"[1, 2, 4, 5, 7, 8, 9, 10, 11, 12, 13, 14, 15, 16, 17, 18, 19, 20, 21, 22, 23, 24, 25, 26, 28, 29]",300,36463,399,6,74,7,0.0
undo,19,1,0,0,0,8,"[0, 8]",2,23,"[1, 4, 5, 7, 9, 10, 11, 12, 13, 14, 15, 16, 17, 18, 19, 20, 21, 23, 24, 25, 26, 28, 29]",202,37586,1123,1,16,7,1.0
undo,19,1,0,0,0,20,"[0, 8, 20]",3,12,"[1, 4, 5, 11, 13, 14, 15, 17, 18, 19, 28, 29]",125.9408125,38354,768,1,7,7,1.02364736730791
undo,19,1,0,0,0,5,"[0, 8, 20, 5]",4,7,"[1, 4, 11, 13, 17, 18, 29]",104.469902,39237,883,1,3,7,1.0439599203945713
undo,19,1,0,0,0,18,"[0, 8, 20, 5, 18]",5,2,"[4, 29]",81.64447755,39843,606,1,1,7,1.0840407791793756
undo,19,1,0,0,0,4,"[0, 8, 20, 5, 18, 4]",6,1,[29],42.69579336,41641,1798,1,0,7,1.0902329133216275
undo,19,1,0,0,1,29,"[0, 8, 20, 5, 18, 4, 29]",7,0,[],6.640280603,44138,2497,1,0,7,1.2859729622882756
undo,19,1,1,0,0,4,"[0, 8, 20, 5, 18, 4]",6,1,[29],42.69579336,64347,20209,1,0,7,1.0902329133216275
undo,19,1,1,0,0,18,"[0, 8, 20, 5, 18]",5,2,"[4, 29]",81.64447755,64596,249,1,1,7,1.0840407791793756
undo,19,1,1,0,0,5,"[0, 8, 20, 5]",4,7,"[1, 4, 11, 13, 17, 18, 29]",104.469902,64814,218,1,3,7,1.0439599203945713
undo,19,1,0,0,1,11,"[0, 8, 20, 5, 11]",5,0,[],12.76384982,66018,1204,1,0,5,1.051801367250444
undo,19,1,1,0,0,5,"[0, 8, 20, 5]",4,7,"[1, 4, 11, 13, 17, 18, 29]",104.469902,67746,1728,1,3,7,1.0439599203945713
undo,19,1,1,0,0,20,"[0, 8, 20]",3,12,"[1, 4, 5, 11, 13, 14, 15, 17, 18, 19, 28, 29]",125.9408125,69780,2034,1,7,7,1.02364736730791
undo,19,1,1,0,0,8,"[0, 8]",2,23,"[1, 4, 5, 7, 9, 10, 11, 12, 13, 14, 15, 16, 17, 18, 19, 20, 21, 23, 24, 25, 26, 28, 29]",202,72413,2633,1,16,7,1.0
undo,19,1,0,0,0,11,"[0, 8, 11]",3,2,"[10, 12]",26.86005596,73459,1046,2,0,4,1.000183878010998
undo,19,1,0,0,1,10,"[0, 8, 11, 10]",4,0,[],2.818425395,74301,842,1,0,4,1.003991806097973
undo,19,1,1,0,0,11,"[0, 8, 11]",3,2,"[10, 12]",26.86005596,75030,729,2,0,4,1.000183878010998
undo,19,1,1,0,0,8,"[0, 8]",2,23,"[1, 4, 5, 7, 9, 10, 11, 12, 13, 14, 15, 16, 17, 18, 19, 20, 21, 23, 24, 25, 26, 28, 29]",202,75246,216,1,16,7,1.0
undo,19,1,1,0,0,0,[0],1,26,"[1, 2, 4, 5, 7, 8, 9, 10, 11, 12, 13, 14, 15, 16, 17, 18, 19, 20, 21, 22, 23, 24, 25, 26, 28, 29]",300,75430,184,6,74,7,0.0
undo,19,1,0,0,0,8,"[0, 8]",2,23,"[1, 4, 5, 7, 9, 10, 11, 12, 13, 14, 15, 16, 17, 18, 19, 20, 21, 23, 24, 25, 26, 28, 29]",202,76853,1423,1,16,7,1.0
undo,19,1,0,0,0,20,"[0, 8, 20]",3,12,"[1, 4, 5, 11, 13, 14, 15, 17, 18, 19, 28, 29]",125.9408125,79486,2633,1,7,7,1.02364736730791
undo,19,1,0,0,0,5,"[0, 8, 20, 5]",4,7,"[1, 4, 11, 13, 17, 18, 29]",104.469902,80120,634,1,3,7,1.0439599203945713
undo,19,1,0,0,0,18,"[0, 8, 20, 5, 18]",5,2,"[4, 29]",81.64447755,80694,574,1,1,7,1.0840407791793756
undo,19,1,0,0,0,4,"[0, 8, 20, 5, 18, 4]",6,1,[29],42.69579336,81494,800,1,0,7,1.0902329133216275
undo,19,1,0,0,1,29,"[0, 8, 20, 5, 18, 4, 29]",7,0,[],6.640280603,82361,867,1,0,7,1.2859729622882756
undo,19,1,0,1,1,29,"[0, 8, 20, 5, 18, 4, 29]",7,0,[],6.640280603,83684,1323,1,0,7,1.2859729622882756
undo,20,5,0,0,0,0,[0],1,29,"[1, 2, 3, 4, 5, 6, 7, 8, 9, 10, 11, 12, 13, 14, 15, 16, 17, 18, 19, 20, 21, 22, 23, 24, 25, 26, 27, 28, 29]",300,173,-1,5,139,9,0.0
undo,20,5,0,0,0,12,"[0, 12]",2,22,"[2, 4, 5, 6, 8, 9, 10, 13, 14, 15, 16, 17, 18, 19, 21, 22, 23, 24, 25, 26, 27, 28]",228.3062067,2238,2065,1,27,9,1.0
undo,20,5,0,0,0,25,"[0, 12, 25]",3,21,"[2, 4, 5, 6, 8, 9, 10, 13, 14, 15, 16, 17, 18, 19, 21, 22, 23, 24, 26, 27, 28]",200.5213187,3127,889,1,20,9,1.584023303445617
undo,20,5,0,0,0,23,"[0, 12, 25, 23]",4,19,"[2, 4, 5, 6, 8, 9, 10, 13, 14, 15, 16, 17, 18, 19, 21, 22, 24, 26, 27]",182.0822298,3800,673,1,14,9,2.3508446989254357
undo,20,5,0,0,0,24,"[0, 12, 25, 23, 24]",5,15,"[2, 4, 5, 6, 8, 9, 13, 14, 15, 17, 18, 19, 22, 26, 27]",158.995437,4997,1197,1,12,9,1.9469752046288753
undo,20,5,0,0,0,17,"[0, 12, 25, 23, 24, 17]",6,7,"[4, 5, 6, 8, 15, 18, 19]",124.0097257,5798,801,1,8,9,1.6482276497563642
undo,20,5,0,0,0,5,"[0, 12, 25, 23, 24, 17, 5]",7,4,"[4, 6, 15, 18]",80.96323916,6819,1021,1,3,9,1.4654649104389412
undo,20,5,0,0,0,4,"[0, 12, 25, 23, 24, 17, 5, 4]",8,1,[6],15.16050365,8162,1343,1,0,9,1.6255060355828674
undo,20,5,0,0,1,6,"[0, 12, 25, 23, 24, 17, 5, 4, 6]",9,0,[],3.118909076,9063,901,1,0,9,1.7777310833772453
undo,20,5,1,0,0,4,"[0, 12, 25, 23, 24, 17, 5, 4]",8,1,[6],15.16050365,15306,6243,1,0,9,1.6255060355828674
undo,20,5,1,0,0,5,"[0, 12, 25, 23, 24, 17, 5]",7,4,"[4, 6, 15, 18]",80.96323916,15489,183,1,3,9,1.4654649104389412
undo,20,5,1,0,0,17,"[0, 12, 25, 23, 24, 17]",6,7,"[4, 5, 6, 8, 15, 18, 19]",124.0097257,15657,168,1,8,9,1.6482276497563642
undo,20,5,1,0,0,24,"[0, 12, 25, 23, 24]",5,15,"[2, 4, 5, 6, 8, 9, 13, 14, 15, 17, 18, 19, 22, 26, 27]",158.995437,15840,183,1,12,9,1.9469752046288753
undo,20,5,1,0,0,23,"[0, 12, 25, 23]",4,19,"[2, 4, 5, 6, 8, 9, 10, 13, 14, 15, 16, 17, 18, 19, 21, 22, 24, 26, 27]",182.0822298,16189,349,1,14,9,2.3508446989254357
undo,20,5,1,0,0,25,"[0, 12, 25]",3,21,"[2, 4, 5, 6, 8, 9, 10, 13, 14, 15, 16, 17, 18, 19, 21, 22, 23, 24, 26, 27, 28]",200.5213187,16522,333,1,20,9,1.584023303445617
undo,20,5,1,0,0,12,"[0, 12]",2,22,"[2, 4, 5, 6, 8, 9, 10, 13, 14, 15, 16, 17, 18, 19, 21, 22, 23, 24, 25, 26, 27, 28]",228.3062067,16741,219,1,27,9,1.0
undo,20,5,1,0,0,0,[0],1,29,"[1, 2, 3, 4, 5, 6, 7, 8, 9, 10, 11, 12, 13, 14, 15, 16, 17, 18, 19, 20, 21, 22, 23, 24, 25, 26, 27, 28, 29]",300,17073,332,5,139,9,0.0
undo,20,5,0,0,0,13,"[0, 13]",2,23,"[1, 2, 3, 4, 6, 7, 8, 9, 11, 12, 16, 17, 19, 20, 21, 22, 23, 24, 25, 26, 27, 28, 29]",195.2622322,19165,2092,4,29,7,1.0
undo,20,5,0,0,0,9,"[0, 13, 9]",3,15,"[1, 3, 7, 8, 11, 19, 20, 21, 22, 23, 24, 25, 27, 28, 29]",169.6497353,20309,1144,4,16,7,1.0192950630434863
undo,20,5,0,0,0,3,"[0, 13, 9, 3]",4,6,"[1, 11, 20, 27, 28, 29]",112.0910695,21178,869,3,3,7,1.0153680018052629
undo,20,5,0,0,0,11,"[0, 13, 9, 3, 11]",5,2,"[1, 20]",64.41507978,22011,833,2,0,7,1.2528277363486462
undo,20,5,0,0,0,20,"[0, 13, 9, 3, 11, 20]",6,1,[1],49.11802124,22820,809,1,0,7,1.3070670520086924
undo,20,5,0,0,1,1,"[0, 13, 9, 3, 11, 20, 1]",7,0,[],20.95776556,23804,984,1,0,7,1.6788766832894417
undo,20,5,1,0,0,20,"[0, 13, 9, 3, 11, 20]",6,1,[1],49.11802124,24039,235,1,0,7,1.3070670520086924
undo,20,5,1,0,0,11,"[0, 13, 9, 3, 11]",5,2,"[1, 20]",64.41507978,24224,185,2,0,7,1.2528277363486462
undo,20,5,1,0,0,3,"[0, 13, 9, 3]",4,6,"[1, 11, 20, 27, 28, 29]",112.0910695,24391,167,3,3,7,1.0153680018052629
undo,20,5,1,0,0,9,"[0, 13, 9]",3,15,"[1, 3, 7, 8, 11, 19, 20, 21, 22, 23, 24, 25, 27, 28, 29]",169.6497353,24706,315,4,16,7,1.0192950630434863
undo,20,5,1,0,0,13,"[0, 13]",2,23,"[1, 2, 3, 4, 6, 7, 8, 9, 11, 12, 16, 17, 19, 20, 21, 22, 23, 24, 25, 26, 27, 28, 29]",195.2622322,24973,267,4,29,7,1.0
undo,20,5,1,0,0,0,[0],1,29,"[1, 2, 3, 4, 5, 6, 7, 8, 9, 10, 11, 12, 13, 14, 15, 16, 17, 18, 19, 20, 21, 22, 23, 24, 25, 26, 27, 28, 29]",300,25356,383,5,139,9,0.0
undo,20,5,0,0,0,23,"[0, 23]",2,27,"[1, 2, 3, 4, 5, 6, 7, 8, 9, 10, 11, 12, 13, 14, 15, 16, 17, 18, 19, 20, 21, 22, 24, 25, 26, 27, 28]",249.8402552,28771,3415,3,75,9,1.0
undo,20,5,0,0,0,25,"[0, 23, 25]",3,23,"[1, 2, 3, 4, 5, 6, 8, 9, 10, 12, 13, 14, 15, 16, 17, 18, 19, 21, 22, 24, 26, 27, 28]",231.4011663,29537,766,3,43,9,1.0923159590575564
undo,20,5,1,0,0,23,"[0, 23]",2,27,"[1, 2, 3, 4, 5, 6, 7, 8, 9, 10, 11, 12, 13, 14, 15, 16, 17, 18, 19, 20, 21, 22, 24, 25, 26, 27, 28]",249.8402552,30406,869,3,75,9,1.0
undo,20,5,1,0,0,0,[0],1,29,"[1, 2, 3, 4, 5, 6, 7, 8, 9, 10, 11, 12, 13, 14, 15, 16, 17, 18, 19, 20, 21, 22, 23, 24, 25, 26, 27, 28, 29]",300,30622,216,5,139,9,0.0
undo,20,5,0,0,0,12,"[0, 12]",2,22,"[2, 4, 5, 6, 8, 9, 10, 13, 14, 15, 16, 17, 18, 19, 21, 22, 23, 24, 25, 26, 27, 28]",228.3062067,32246,1624,1,27,9,1.0
undo,20,5,0,0,0,25,"[0, 12, 25]",3,21,"[2, 4, 5, 6, 8, 9, 10, 13, 14, 15, 16, 17, 18, 19, 21, 22, 23, 24, 26, 27, 28]",200.5213187,33612,1366,1,20,9,1.584023303445617
undo,20,5,0,0,0,23,"[0, 12, 25, 23]",4,19,"[2, 4, 5, 6, 8, 9, 10, 13, 14, 15, 16, 17, 18, 19, 21, 22, 24, 26, 27]",182.0822298,34686,1074,1,14,9,2.3508446989254357
undo,20,5,0,0,0,24,"[0, 12, 25, 23, 24]",5,15,"[2, 4, 5, 6, 8, 9, 13, 14, 15, 17, 18, 19, 22, 26, 27]",158.995437,35432,746,1,12,9,1.9469752046288753
undo,20,5,0,0,0,17,"[0, 12, 25, 23, 24, 17]",6,7,"[4, 5, 6, 8, 15, 18, 19]",124.0097257,37364,1932,1,8,9,1.6482276497563642
undo,20,5,0,0,0,5,"[0, 12, 25, 23, 24, 17, 5]",7,4,"[4, 6, 15, 18]",80.96323916,38271,907,1,3,9,1.4654649104389412
undo,20,5,0,0,0,4,"[0, 12, 25, 23, 24, 17, 5, 4]",8,1,[6],15.16050365,40336,2065,1,0,9,1.6255060355828674
undo,20,5,0,0,1,6,"[0, 12, 25, 23, 24, 17, 5, 4, 6]",9,0,[],3.118909076,41164,828,1,0,9,1.7777310833772453
undo,20,5,0,1,1,6,"[0, 12, 25, 23, 24, 17, 5, 4, 6]",9,0,[],3.118909076,43391,2227,1,0,9,1.7777310833772453
undo,21,14,0,0,0,0,[0],1,29,"[1, 2, 3, 4, 5, 6, 7, 8, 9, 10, 11, 12, 13, 14, 15, 16, 17, 18, 19, 20, 21, 22, 23, 24, 25, 26, 27, 28, 29]",300,125,-1,8,157,10,0.0
undo,21,14,0,0,0,15,"[0, 15]",2,20,"[1, 2, 3, 4, 7, 8, 9, 13, 17, 18, 19, 20, 21, 22, 23, 25, 26, 27, 28, 29]",216.7053423,2120,1995,8,102,10,1.0
undo,21,14,0,0,0,28,"[0, 15, 28]",3,17,"[1, 2, 3, 4, 7, 8, 9, 13, 17, 18, 19, 20, 22, 23, 25, 26, 27]",197.4959696,2957,837,8,48,10,1.0446007867311968
undo,21,14,0,0,0,17,"[0, 15, 28, 17]",4,14,"[1, 2, 3, 4, 7, 8, 13, 18, 19, 20, 22, 23, 25, 26]",184.0423455,3692,735,8,39,10,1.0729463354689972
undo,21,14,0,0,0,18,"[0, 15, 28, 17, 18]",5,9,"[1, 2, 4, 7, 8, 19, 23, 25, 26]",119.412631,5272,1580,8,27,10,1.5035901079219378
undo,21,14,0,0,0,1,"[0, 15, 28, 17, 18, 1]",6,6,"[7, 8, 19, 23, 25, 26]",83.94433532,7768,2496,5,9,9,1.3972848536219762
undo,21,14,0,0,0,19,"[0, 15, 28, 17, 18, 1, 19]",7,5,"[7, 8, 23, 25, 26]",68.71278911,8583,815,4,2,9,1.564144522400406
undo,21,14,0,0,0,26,"[0, 15, 28, 17, 18, 1, 19, 26]",8,1,[23],15.48685558,11268,2685,1,0,9,1.4340482272458845
undo,21,14,0,0,1,23,"[0, 15, 28, 17, 18, 1, 19, 26, 23]",9,0,[],4.670201752,12148,880,1,0,9,1.5711476928302173
undo,21,14,1,0,0,26,"[0, 15, 28, 17, 18, 1, 19, 26]",8,1,[23],15.48685558,13558,1410,1,0,9,1.4340482272458845
undo,21,14,1,0,0,19,"[0, 15, 28, 17, 18, 1, 19]",7,5,"[7, 8, 23, 25, 26]",68.71278911,19508,5950,4,2,9,1.564144522400406
undo,21,14,1,0,0,1,"[0, 15, 28, 17, 18, 1]",6,6,"[7, 8, 19, 23, 25, 26]",83.94433532,19742,234,5,9,9,1.3972848536219762
undo,21,14,1,0,0,18,"[0, 15, 28, 17, 18]",5,9,"[1, 2, 4, 7, 8, 19, 23, 25, 26]",119.412631,19942,200,8,27,10,1.5035901079219378
undo,21,14,1,0,0,17,"[0, 15, 28, 17]",4,14,"[1, 2, 3, 4, 7, 8, 13, 18, 19, 20, 22, 23, 25, 26]",184.0423455,20125,183,8,39,10,1.0729463354689972
undo,21,14,1,0,0,28,"[0, 15, 28]",3,17,"[1, 2, 3, 4, 7, 8, 9, 13, 17, 18, 19, 20, 22, 23, 25, 26, 27]",197.4959696,20291,166,8,48,10,1.0446007867311968
undo,21,14,1,0,0,15,"[0, 15]",2,20,"[1, 2, 3, 4, 7, 8, 9, 13, 17, 18, 19, 20, 21, 22, 23, 25, 26, 27, 28, 29]",216.7053423,20475,184,8,102,10,1.0
undo,21,14,1,0,0,0,[0],1,29,"[1, 2, 3, 4, 5, 6, 7, 8, 9, 10, 11, 12, 13, 14, 15, 16, 17, 18, 19, 20, 21, 22, 23, 24, 25, 26, 27, 28, 29]",300,20625,150,8,157,10,0.0
undo,21,14,0,0,0,18,"[0, 18]",2,17,"[1, 2, 3, 4, 7, 8, 9, 13, 15, 17, 19, 20, 22, 23, 25, 26, 28]",179.8958785,22747,2122,18,136,9,1.0
