condition,trial_id,map_id,undoIndicator,submit,checkEnd,currentChoice,chosen_all,n_city_all,n_within_reach,cities_reach,currentBudget,time_all,rt_all,n_opt_paths_all,n_subopt_paths_all,mas_all,tortuosity_all
basic,0,36,0,0,0,0,[0],1,24,"[2, 4, 5, 6, 7, 8, 9, 10, 12, 13, 14, 15, 16, 17, 18, 19, 20, 22, 23, 25, 26, 27, 28, 29]",300,126,-1,2,200,10,0.0
basic,0,36,0,0,0,12,"[0, 12]",2,23,"[2, 4, 5, 6, 7, 8, 9, 10, 13, 14, 15, 16, 17, 18, 19, 20, 22, 23, 25, 26, 27, 28, 29]",277.7963967,8349,8223,90,804,9,1.0
basic,0,36,0,0,0,9,"[0, 12, 9]",3,14,"[2, 4, 8, 10, 13, 16, 17, 18, 19, 23, 25, 27, 28, 29]",215.4345494,11681,3332,32,191,9,1.224429481246385
basic,0,36,0,0,0,17,"[0, 12, 9, 17]",4,11,"[2, 4, 8, 10, 13, 16, 18, 19, 23, 25, 27]",189.1857399,12649,968,8,54,9,1.1724571624470872
basic,0,36,0,0,0,19,"[0, 12, 9, 17, 19]",5,8,"[2, 4, 10, 13, 16, 18, 23, 25]",161.2930885,14097,1448,3,14,9,1.7995682634090462
basic,0,36,0,0,0,2,"[0, 12, 9, 17, 19, 2]",6,4,"[10, 13, 16, 25]",124.1716661,15064,967,2,3,9,1.5569787348204112
basic,0,36,0,0,0,25,"[0, 12, 9, 17, 19, 2, 25]",7,3,"[10, 13, 16]",99.17166613,16883,1819,1,2,9,1.7541097756555504
basic,0,36,0,0,0,13,"[0, 12, 9, 17, 19, 2, 25, 13]",8,1,[10],78.58040585,18066,1183,1,0,9,2.257503926583423
basic,0,36,0,0,1,10,"[0, 12, 9, 17, 19, 2, 25, 13, 10]",9,0,[],2.619889792,22379,4313,1,0,9,1.709815416525762
basic,0,36,0,1,1,10,"[0, 12, 9, 17, 19, 2, 25, 13, 10]",9,0,[],2.619889792,24143,1764,1,0,9,1.709815416525762
basic,1,8,0,0,0,0,[0],1,29,"[1, 2, 3, 4, 5, 6, 7, 8, 9, 10, 11, 12, 13, 14, 15, 16, 17, 18, 19, 20, 21, 22, 23, 24, 25, 26, 27, 28, 29]",300,130,-1,10,149,9,0.0
basic,1,8,0,0,0,5,"[0, 5]",2,28,"[1, 2, 3, 4, 6, 7, 8, 9, 10, 11, 12, 13, 14, 15, 16, 17, 18, 19, 20, 21, 22, 23, 24, 25, 26, 27, 28, 29]",254.5137383,6153,6023,10,100,9,1.0
basic,1,8,0,0,0,14,"[0, 5, 14]",3,20,"[1, 2, 3, 4, 6, 7, 11, 15, 16, 17, 18, 19, 20, 21, 22, 23, 24, 25, 28, 29]",214.5512559,7867,1714,4,36,9,1.0001019035932595
basic,1,8,0,0,0,17,"[0, 5, 14, 17]",4,15,"[1, 4, 6, 7, 11, 15, 16, 18, 19, 20, 22, 23, 24, 25, 28]",177.5377449,8909,1042,4,16,9,1.121197267659591
basic,1,8,0,0,0,11,"[0, 5, 14, 17, 11]",5,11,"[1, 4, 15, 16, 18, 19, 22, 23, 24, 25, 28]",152.3583883,9768,859,4,8,9,1.1277254166016362
basic,1,8,0,0,0,24,"[0, 5, 14, 17, 11, 24]",6,3,"[15, 16, 28]",115.1428001,10786,1018,2,2,9,1.1227411011978805
basic,1,8,0,0,0,15,"[0, 5, 14, 17, 11, 24, 15]",7,2,"[16, 28]",98.37974552,11716,930,2,0,9,1.1956385406066814
basic,1,8,0,0,0,16,"[0, 5, 14, 17, 11, 24, 15, 16]",8,1,[28],47.30137436,14053,2337,1,0,9,1.36482239111247
basic,1,8,0,0,1,28,"[0, 5, 14, 17, 11, 24, 15, 16, 28]",9,0,[],24.94069458,15195,1142,1,0,9,1.632953105226947
basic,1,8,0,1,1,28,"[0, 5, 14, 17, 11, 24, 15, 16, 28]",9,0,[],24.94069458,17047,1852,1,0,9,1.632953105226947
basic,2,6,0,0,0,0,[0],1,29,"[1, 2, 3, 4, 5, 6, 7, 8, 9, 10, 11, 12, 13, 14, 15, 16, 17, 18, 19, 20, 21, 22, 23, 24, 25, 26, 27, 28, 29]",300,130,-1,180,4304,10,0.0
basic,2,6,0,0,0,3,"[0, 3]",2,28,"[1, 2, 4, 5, 6, 7, 8, 9, 10, 11, 12, 13, 14, 15, 16, 17, 18, 19, 20, 21, 22, 23, 24, 25, 26, 27, 28, 29]",266.4738908,2637,2507,90,1607,10,1.0
basic,2,6,0,0,0,10,"[0, 3, 10]",3,27,"[1, 2, 4, 5, 6, 7, 8, 9, 11, 12, 13, 14, 15, 16, 17, 18, 19, 20, 21, 22, 23, 24, 25, 26, 27, 28, 29]",215.2293789,4250,1613,8,136,10,1.0050517746249001
basic,2,6,0,0,0,24,"[0, 3, 10, 24]",4,23,"[1, 2, 4, 5, 6, 7, 8, 11, 13, 14, 16, 17, 18, 19, 20, 21, 22, 23, 25, 26, 27, 28, 29]",201.812971,5202,952,8,85,10,1.0091851911500884
basic,2,6,0,0,0,17,"[0, 3, 10, 24, 17]",5,19,"[1, 2, 4, 5, 6, 7, 8, 11, 13, 14, 16, 18, 20, 21, 22, 23, 26, 27, 29]",172.5384087,6360,1158,8,53,10,1.8060138032707682
basic,2,6,0,0,0,18,"[0, 3, 10, 24, 17, 18]",6,15,"[1, 2, 6, 7, 8, 13, 14, 16, 20, 21, 22, 23, 26, 27, 29]",158.6100204,7378,1018,7,36,10,2.3216150751946008
basic,2,6,0,0,0,16,"[0, 3, 10, 24, 17, 18, 16]",7,13,"[1, 2, 6, 7, 13, 14, 20, 21, 22, 23, 26, 27, 29]",135.2647853,8535,1157,7,21,10,2.2822729587843544
basic,2,6,0,0,0,29,"[0, 3, 10, 24, 17, 18, 16, 29]",8,7,"[6, 14, 20, 21, 22, 23, 27]",98.57691268,9678,1143,6,4,10,1.8911507070056388
basic,2,6,0,0,0,22,"[0, 3, 10, 24, 17, 18, 16, 29, 22]",9,3,"[14, 23, 27]",48.24799455,14722,5044,3,0,10,1.6168206397602507
basic,2,6,0,0,1,23,"[0, 3, 10, 24, 17, 18, 16, 29, 22, 23]",10,0,[],7.247994547,17082,2360,1,0,10,2.1814387447378607
basic,2,6,0,1,1,23,"[0, 3, 10, 24, 17, 18, 16, 29, 22, 23]",10,0,[],7.247994547,18897,1815,1,0,10,2.1814387447378607
basic,3,24,0,0,0,0,[0],1,29,"[1, 2, 3, 4, 5, 6, 7, 8, 9, 10, 11, 12, 13, 14, 15, 16, 17, 18, 19, 20, 21, 22, 23, 24, 25, 26, 27, 28, 29]",300,129,-1,4,76,10,0.0
basic,3,24,0,0,0,16,"[0, 16]",2,28,"[1, 2, 3, 4, 5, 6, 7, 8, 9, 10, 11, 12, 13, 14, 15, 17, 18, 19, 20, 21, 22, 23, 24, 25, 26, 27, 28, 29]",210.3562607,5081,4952,13,110,9,1.0
basic,3,24,0,0,0,22,"[0, 16, 22]",3,27,"[1, 2, 3, 4, 5, 6, 7, 8, 9, 10, 11, 12, 13, 14, 15, 17, 18, 19, 20, 21, 23, 24, 25, 26, 27, 28, 29]",192.3285043,5906,825,7,54,9,1.0217425143037777
basic,3,24,0,0,0,8,"[0, 16, 22, 8]",4,21,"[1, 2, 3, 4, 6, 9, 10, 11, 13, 14, 15, 17, 20, 21, 23, 24, 25, 26, 27, 28, 29]",178.9120964,6890,984,4,28,9,1.0996636936037951
basic,3,24,0,0,0,15,"[0, 16, 22, 8, 15]",5,16,"[3, 4, 6, 9, 10, 11, 13, 14, 17, 23, 24, 25, 26, 27, 28, 29]",148.025206,8155,1265,3,17,9,1.2704773343758617
basic,3,24,0,0,0,28,"[0, 16, 22, 8, 15, 28]",6,8,"[3, 4, 9, 11, 13, 23, 26, 27]",102.7482803,9578,1423,3,5,9,1.1981967578189556
basic,3,24,0,0,0,23,"[0, 16, 22, 8, 15, 28, 23]",7,3,"[9, 11, 27]",83.72198273,10615,1037,3,1,9,1.2275650852813986
basic,3,24,0,0,0,11,"[0, 16, 22, 8, 15, 28, 23, 11]",8,2,"[9, 27]",56.79615869,11604,989,2,0,9,1.2107937989822568
basic,3,24,0,0,1,27,"[0, 16, 22, 8, 15, 28, 23, 11, 27]",9,0,[],28.99328114,14507,2903,1,0,9,1.1865620449755248
basic,3,24,0,1,1,27,"[0, 16, 22, 8, 15, 28, 23, 11, 27]",9,0,[],28.99328114,17780,3273,1,0,9,1.1865620449755248
basic,4,29,0,0,0,0,[0],1,29,"[1, 2, 3, 4, 5, 6, 7, 8, 9, 10, 11, 12, 13, 14, 15, 16, 17, 18, 19, 20, 21, 22, 23, 24, 25, 26, 27, 28, 29]",300,164,-1,1,78,9,0.0
basic,4,29,0,0,0,22,"[0, 22]",2,22,"[1, 3, 4, 5, 6, 7, 9, 10, 11, 12, 13, 14, 15, 16, 17, 21, 23, 25, 26, 27, 28, 29]",183.034193,4053,3889,11,109,7,1.0
basic,4,29,0,0,0,12,"[0, 22, 12]",3,16,"[1, 3, 4, 5, 6, 7, 9, 13, 14, 15, 21, 23, 26, 27, 28, 29]",145.0868611,5063,1010,5,26,7,1.0034573014223038
basic,4,29,0,0,0,7,"[0, 22, 12, 7]",4,11,"[4, 5, 9, 13, 14, 21, 23, 26, 27, 28, 29]",131.4853906,5890,827,5,11,7,1.024712642596813
basic,4,29,0,0,0,9,"[0, 22, 12, 7, 9]",5,4,"[4, 5, 13, 21]",102.4165069,6951,1061,2,2,7,1.0465879224614396
basic,4,29,0,0,0,4,"[0, 22, 12, 7, 9, 4]",6,1,[5],61.37993783,8117,1166,1,0,7,1.3574401406611971
basic,4,29,0,0,1,5,"[0, 22, 12, 7, 9, 4, 5]",7,0,[],9.485814854,9653,1536,1,0,7,2.3379956288027572
basic,4,29,0,1,1,5,"[0, 22, 12, 7, 9, 4, 5]",7,0,[],9.485814854,11630,1977,1,0,7,2.3379956288027572
basic,5,38,0,0,0,0,[0],1,29,"[1, 2, 3, 4, 5, 6, 7, 8, 9, 10, 11, 12, 13, 14, 15, 16, 17, 18, 19, 20, 21, 22, 23, 24, 25, 26, 27, 28, 29]",300,130,-1,33,506,9,0.0
basic,5,38,0,0,0,19,"[0, 19]",2,23,"[3, 4, 5, 6, 7, 8, 9, 11, 13, 14, 15, 16, 17, 18, 20, 22, 23, 24, 25, 26, 27, 28, 29]",219.5015528,3384,3254,6,61,9,1.0
basic,5,38,0,0,0,17,"[0, 19, 17]",3,21,"[3, 4, 5, 6, 7, 9, 11, 13, 14, 15, 16, 18, 20, 22, 23, 24, 25, 26, 27, 28, 29]",198.1239945,4227,843,6,53,9,1.571793785769489
basic,5,38,0,0,0,20,"[0, 19, 17, 20]",4,17,"[3, 4, 5, 6, 7, 11, 13, 14, 15, 16, 18, 22, 24, 25, 26, 27, 28]",174.3542658,5293,1066,6,44,9,2.333182710277297
basic,5,38,0,0,0,4,"[0, 19, 17, 20, 4]",5,10,"[5, 11, 13, 14, 15, 16, 24, 26, 27, 28]",140.4131403,6318,1025,5,22,9,2.276099229646013
basic,5,38,0,0,0,15,"[0, 19, 17, 20, 4, 15]",6,8,"[5, 11, 13, 14, 16, 24, 26, 28]",114.4131403,9486,3168,5,6,9,2.5292671156176403
basic,5,38,0,0,0,11,"[0, 19, 17, 20, 4, 15, 11]",7,2,"[16, 28]",78.01259089,10416,930,2,0,9,2.778100109749787
basic,5,38,0,0,0,28,"[0, 19, 17, 20, 4, 15, 11, 28]",8,1,[16],50.99407872,11349,933,1,0,9,2.3316428595723258
basic,5,38,0,0,1,16,"[0, 19, 17, 20, 4, 15, 11, 28, 16]",9,0,[],21.99407872,13342,1993,1,0,9,2.5408012360364265
basic,5,38,0,1,1,16,"[0, 19, 17, 20, 4, 15, 11, 28, 16]",9,0,[],21.99407872,14980,1638,1,0,9,2.5408012360364265
basic,6,1,0,0,0,0,[0],1,26,"[1, 2, 4, 5, 7, 8, 9, 10, 11, 12, 13, 14, 15, 16, 17, 18, 19, 20, 21, 22, 23, 24, 25, 26, 28, 29]",300,130,-1,6,74,7,0.0
basic,6,1,0,0,0,14,"[0, 14]",2,19,"[1, 4, 5, 8, 9, 13, 15, 17, 18, 19, 20, 21, 22, 23, 24, 25, 26, 28, 29]",200.1901808,3272,3142,5,42,7,1.0
basic,6,1,0,0,0,17,"[0, 14, 17]",3,15,"[1, 4, 5, 8, 9, 13, 15, 18, 19, 20, 22, 23, 25, 28, 29]",147.8356204,4274,1002,5,27,7,1.0028844724416826
basic,6,1,0,0,0,1,"[0, 14, 17, 1]",4,12,"[4, 5, 8, 9, 15, 18, 20, 22, 23, 25, 28, 29]",123.4840291,5151,877,5,15,7,1.0264985578353567
basic,6,1,0,0,0,28,"[0, 14, 17, 1, 28]",5,5,"[9, 15, 22, 23, 29]",88.59850198,6144,993,5,3,7,1.0339861575999345
basic,6,1,0,0,0,23,"[0, 14, 17, 1, 28, 23]",6,2,"[15, 22]",51.70676849,7177,1033,2,0,7,1.0327458250705703
basic,6,1,0,0,1,15,"[0, 14, 17, 1, 28, 23, 15]",7,0,[],20.81987807,8310,1133,1,0,7,1.1948681641401226
basic,6,1,0,1,1,15,"[0, 14, 17, 1, 28, 23, 15]",7,0,[],20.81987807,10830,2520,1,0,7,1.1948681641401226
basic,7,13,0,0,0,0,[0],1,29,"[1, 2, 3, 4, 5, 6, 7, 8, 9, 10, 11, 12, 13, 14, 15, 16, 17, 18, 19, 20, 21, 22, 23, 24, 25, 26, 27, 28, 29]",300,131,-1,60,2676,11,0.0
basic,7,13,0,0,0,24,"[0, 24]",2,28,"[1, 2, 3, 4, 5, 6, 7, 8, 9, 10, 11, 12, 13, 14, 15, 16, 17, 18, 19, 20, 21, 22, 23, 25, 26, 27, 28, 29]",288.8196601,3385,3254,16,1444,11,1.0
basic,7,13,0,0,0,28,"[0, 24, 28]",3,23,"[1, 2, 3, 4, 6, 7, 8, 9, 10, 11, 12, 13, 15, 16, 17, 19, 20, 21, 22, 23, 26, 27, 29]",222.5324064,4535,1150,8,243,11,1.0513810491680837
basic,7,13,0,0,0,2,"[0, 24, 28, 2]",4,19,"[1, 3, 4, 6, 7, 9, 11, 12, 13, 15, 16, 17, 19, 20, 21, 23, 26, 27, 29]",184.889346,5519,984,7,110,11,1.050374132001543
basic,7,13,0,0,0,29,"[0, 24, 28, 2, 29]",5,18,"[1, 3, 4, 6, 7, 9, 11, 12, 13, 15, 16, 17, 19, 20, 21, 23, 26, 27]",173.1846461,6371,852,7,85,11,1.1393409619120594
basic,7,13,0,0,0,7,"[0, 24, 28, 2, 29, 7]",6,17,"[1, 3, 4, 6, 9, 11, 12, 13, 15, 16, 17, 19, 20, 21, 23, 26, 27]",157.9203086,7255,884,5,45,11,1.349777315111579
basic,7,13,0,0,0,26,"[0, 24, 28, 2, 29, 7, 26]",7,16,"[1, 3, 4, 6, 9, 11, 12, 13, 15, 16, 17, 19, 20, 21, 23, 27]",147.480002,9083,1828,5,25,11,1.5942082773824946
basic,7,13,0,0,0,6,"[0, 24, 28, 2, 29, 7, 26, 6]",8,12,"[1, 3, 4, 11, 13, 15, 16, 17, 19, 20, 23, 27]",127.3802508,10324,1241,4,12,11,1.5898347940840756
basic,7,13,0,0,0,11,"[0, 24, 28, 2, 29, 7, 26, 6, 11]",9,6,"[1, 13, 15, 16, 17, 23]",108.2752776,11359,1035,3,4,11,1.5029953945561012
basic,7,13,0,0,0,13,"[0, 24, 28, 2, 29, 7, 26, 6, 11, 13]",10,2,"[15, 17]",52.19497806,13801,2442,2,0,11,1.3655915863754327
basic,7,13,0,0,1,17,"[0, 24, 28, 2, 29, 7, 26, 6, 11, 13, 17]",11,0,[],18.81833952,14972,1171,1,0,11,1.4149038511024103
basic,7,13,0,1,1,17,"[0, 24, 28, 2, 29, 7, 26, 6, 11, 13, 17]",11,0,[],18.81833952,16981,2009,1,0,11,1.4149038511024103
basic,8,20,0,0,0,0,[0],1,21,"[1, 2, 3, 4, 5, 6, 7, 8, 9, 12, 17, 18, 20, 21, 22, 23, 25, 26, 27, 28, 29]",300,132,-1,1,9,9,0.0
basic,8,20,0,0,0,12,"[0, 12]",2,20,"[1, 2, 3, 4, 5, 6, 7, 8, 9, 17, 18, 20, 21, 22, 23, 25, 26, 27, 28, 29]",271.5570747,4136,4004,1,8,9,1.0
basic,8,20,0,0,0,5,"[0, 12, 5]",3,13,"[1, 3, 4, 6, 8, 9, 20, 21, 23, 26, 27, 28, 29]",171.4321527,6198,2062,2,19,8,1.0232843285905395
basic,8,20,0,0,0,21,"[0, 12, 5, 21]",4,10,"[1, 4, 6, 8, 9, 20, 23, 26, 27, 28]",126.4321527,7512,1314,2,12,8,1.017525191374897
basic,8,20,0,0,0,8,"[0, 12, 5, 21, 8]",5,6,"[1, 6, 9, 23, 27, 28]",108.9679035,8413,901,2,6,8,1.0391698601004782
basic,8,20,0,0,0,23,"[0, 12, 5, 21, 8, 23]",6,3,"[6, 9, 27]",64.28009758,9786,1373,2,1,8,1.0348450868606567
basic,8,20,0,0,0,9,"[0, 12, 5, 21, 8, 23, 9]",7,1,[6],45.07072487,10770,984,1,0,8,1.0335348098288684
basic,8,20,0,0,1,6,"[0, 12, 5, 21, 8, 23, 9, 6]",8,0,[],22.048996,11953,1183,1,0,8,1.0486850646228845
basic,8,20,0,1,1,6,"[0, 12, 5, 21, 8, 23, 9, 6]",8,0,[],22.048996,13832,1879,1,0,8,1.0486850646228845
basic,9,37,0,0,0,0,[0],1,29,"[1, 2, 3, 4, 5, 6, 7, 8, 9, 10, 11, 12, 13, 14, 15, 16, 17, 18, 19, 20, 21, 22, 23, 24, 25, 26, 27, 28, 29]",300,164,-1,6,168,10,0.0
basic,9,37,0,0,0,19,"[0, 19]",2,19,"[1, 2, 4, 5, 6, 7, 9, 10, 11, 15, 17, 18, 20, 21, 22, 25, 26, 28, 29]",185.6627795,5918,5754,25,244,9,1.0
basic,9,37,0,0,0,26,"[0, 19, 26]",3,9,"[1, 2, 4, 15, 20, 21, 22, 25, 29]",120.4094271,7655,1737,12,37,8,1.0256292033966232
basic,9,37,0,0,0,21,"[0, 19, 26, 21]",4,6,"[1, 2, 4, 15, 20, 22]",90.67728956,8622,967,8,18,8,1.3487859218508713
basic,9,37,0,0,0,20,"[0, 19, 26, 21, 20]",5,5,"[1, 2, 4, 15, 22]",76.25508446,9590,968,4,8,8,1.4926614025505558
basic,9,37,0,0,0,15,"[0, 19, 26, 21, 20, 15]",6,3,"[1, 2, 4]",59.25508446,10409,819,2,2,8,1.4468094294766474
basic,9,37,0,0,0,1,"[0, 19, 26, 21, 20, 15, 1]",7,2,"[2, 4]",19.29260206,11725,1316,2,0,8,1.7730460035740097
basic,9,37,0,0,1,2,"[0, 19, 26, 21, 20, 15, 1, 2]",8,0,[],2.087951523,13171,1446,1,0,8,1.9706815832116096
basic,9,37,0,1,1,2,"[0, 19, 26, 21, 20, 15, 1, 2]",8,0,[],2.087951523,15213,2042,1,0,8,1.9706815832116096
basic,10,5,0,0,0,0,[0],1,29,"[1, 2, 3, 4, 5, 6, 7, 8, 9, 10, 11, 12, 13, 14, 15, 16, 17, 18, 19, 20, 21, 22, 23, 24, 25, 26, 27, 28, 29]",300,129,-1,5,139,9,0.0
basic,10,5,0,0,0,23,"[0, 23]",2,27,"[1, 2, 3, 4, 5, 6, 7, 8, 9, 10, 11, 12, 13, 14, 15, 16, 17, 18, 19, 20, 21, 22, 24, 25, 26, 27, 28]",249.8402552,2835,2706,3,75,9,1.0
basic,10,5,0,0,0,25,"[0, 23, 25]",3,23,"[1, 2, 3, 4, 5, 6, 8, 9, 10, 12, 13, 14, 15, 16, 17, 18, 19, 21, 22, 24, 26, 27, 28]",231.4011663,3621,786,3,43,9,1.0923159590575564
basic,10,5,0,0,0,12,"[0, 23, 25, 12]",4,19,"[2, 4, 5, 6, 8, 9, 10, 13, 14, 15, 16, 17, 18, 19, 21, 22, 24, 26, 27]",203.6162783,4653,1032,13,38,8,1.344380276762952
basic,10,5,0,0,0,24,"[0, 23, 25, 12, 24]",5,13,"[4, 5, 6, 8, 9, 13, 15, 17, 18, 19, 22, 26, 27]",151.7607096,6110,1457,9,16,8,2.0468715098289354
basic,10,5,0,0,0,17,"[0, 23, 25, 12, 24, 17]",6,7,"[4, 5, 6, 8, 15, 18, 19]",116.7749983,10784,4674,8,2,8,1.715984108382044
basic,10,5,0,0,0,5,"[0, 23, 25, 12, 24, 17, 5]",7,4,"[4, 6, 15, 18]",73.72851177,11768,984,4,0,8,1.5138688362730213
basic,10,5,0,0,1,15,"[0, 23, 25, 12, 24, 17, 5, 15]",8,0,[],33.70351958,12901,1133,1,0,8,1.5069791680385138
basic,10,5,0,1,1,15,"[0, 23, 25, 12, 24, 17, 5, 15]",8,0,[],33.70351958,15396,2495,1,0,8,1.5069791680385138
basic,11,7,0,0,0,0,[0],1,29,"[1, 2, 3, 4, 5, 6, 7, 8, 9, 10, 11, 12, 13, 14, 15, 16, 17, 18, 19, 20, 21, 22, 23, 24, 25, 26, 27, 28, 29]",300,131,-1,3,79,9,0.0
basic,11,7,0,0,0,6,"[0, 6]",2,22,"[2, 4, 5, 7, 8, 9, 10, 11, 13, 14, 15, 16, 18, 19, 20, 21, 22, 23, 24, 25, 27, 28]",231.1160396,2939,2808,1,24,9,1.0
basic,11,7,0,0,0,25,"[0, 6, 25]",3,14,"[2, 4, 5, 7, 13, 14, 15, 16, 18, 19, 20, 21, 23, 28]",163.9371739,4039,1100,1,15,9,1.1491202566384209
basic,11,7,0,0,0,4,"[0, 6, 25, 4]",4,10,"[2, 7, 13, 15, 16, 18, 19, 20, 21, 23]",139.1985401,4974,935,1,9,9,1.145081852791697
basic,11,7,0,0,0,20,"[0, 6, 25, 4, 20]",5,6,"[2, 7, 13, 16, 18, 19]",119.5516574,5793,819,1,4,9,1.2036846139155144
basic,11,7,0,0,0,18,"[0, 6, 25, 4, 20, 18]",6,5,"[2, 7, 13, 16, 19]",106.7454089,6587,794,1,3,9,1.3498144584217913
basic,11,7,0,0,0,7,"[0, 6, 25, 4, 20, 18, 7]",7,2,"[2, 19]",65.51435269,8995,2408,1,1,9,1.2817825700699357
basic,11,7,0,0,0,19,"[0, 6, 25, 4, 20, 18, 7, 19]",8,1,[2],36.10347035,10062,1067,1,0,9,1.3950287830764145
basic,11,7,0,0,1,2,"[0, 6, 25, 4, 20, 18, 7, 19, 2]",9,0,[],5.953843486,11186,1124,1,0,9,1.4010142439340676
basic,11,7,0,1,1,2,"[0, 6, 25, 4, 20, 18, 7, 19, 2]",9,0,[],5.953843486,13081,1895,1,0,9,1.4010142439340676
basic,12,27,0,0,0,0,[0],1,26,"[1, 3, 5, 6, 7, 8, 9, 10, 11, 12, 13, 14, 15, 16, 17, 18, 19, 21, 22, 23, 24, 25, 26, 27, 28, 29]",300,131,-1,13,578,11,0.0
basic,12,27,0,0,0,15,"[0, 15]",2,24,"[1, 3, 5, 6, 7, 8, 9, 10, 11, 12, 13, 14, 16, 17, 18, 19, 21, 22, 23, 24, 25, 26, 27, 29]",263.7508621,2602,2471,6,219,11,1.0
basic,12,27,0,0,0,24,"[0, 15, 24]",3,20,"[1, 5, 6, 7, 8, 9, 10, 12, 13, 14, 16, 17, 18, 19, 21, 23, 25, 26, 27, 29]",246.5462115,3513,911,6,130,11,1.130933077698322
basic,12,27,0,0,0,17,"[0, 15, 24, 17]",4,15,"[1, 6, 8, 10, 12, 13, 14, 16, 18, 19, 23, 25, 26, 27, 29]",229.9932662,4438,925,4,60,11,1.1285538435963374
basic,12,27,0,0,0,12,"[0, 15, 24, 17, 12]",5,14,"[1, 6, 8, 10, 13, 14, 16, 18, 19, 23, 25, 26, 27, 29]",218.8129263,5357,919,2,32,11,1.2561880288755216
basic,12,27,0,0,0,10,"[0, 15, 24, 17, 12, 10]",6,11,"[1, 8, 13, 14, 18, 19, 23, 25, 26, 27, 29]",207.7675653,6234,877,2,28,11,1.2228289337766665
basic,12,27,0,0,0,13,"[0, 15, 24, 17, 12, 10, 13]",7,9,"[1, 8, 14, 18, 19, 23, 26, 27, 29]",167.9178476,7409,1175,2,18,11,1.3421291994761178
basic,12,27,0,0,0,19,"[0, 15, 24, 17, 12, 10, 13, 19]",8,5,"[1, 8, 14, 23, 29]",131.6825057,8434,1025,2,6,11,1.294749956153846
basic,12,27,0,0,0,8,"[0, 15, 24, 17, 12, 10, 13, 19, 8]",9,3,"[14, 23, 29]",116.816437,9376,942,2,1,11,1.3554286578836865
basic,12,27,0,0,1,23,"[0, 15, 24, 17, 12, 10, 13, 19, 8, 23]",10,0,[],45.97859399,13384,4008,1,0,10,3.3397859539241304
basic,12,27,0,1,1,23,"[0, 15, 24, 17, 12, 10, 13, 19, 8, 23]",10,0,[],45.97859399,17031,3647,1,0,10,3.3397859539241304
basic,13,28,0,0,0,0,[0],1,27,"[1, 2, 3, 4, 5, 6, 7, 8, 9, 10, 11, 12, 13, 14, 15, 16, 17, 18, 19, 20, 22, 23, 25, 26, 27, 28, 29]",300,129,-1,2,96,9,0.0
basic,13,28,0,0,0,5,"[0, 5]",2,21,"[2, 3, 4, 6, 7, 8, 9, 10, 11, 12, 13, 14, 15, 18, 19, 20, 23, 25, 26, 28, 29]",169.6427984,3922,3793,4,42,8,1.0
basic,13,28,0,0,0,26,"[0, 5, 26]",3,15,"[2, 3, 4, 7, 8, 9, 12, 13, 14, 15, 18, 19, 20, 25, 28]",136.8861197,5038,1116,4,35,8,1.0149913611821164
basic,13,28,0,0,0,19,"[0, 5, 26, 19]",4,7,"[2, 7, 9, 12, 13, 14, 18]",95.88611973,6238,1200,3,16,8,1.1179162815331476
basic,13,28,0,0,0,7,"[0, 5, 26, 19, 7]",5,5,"[2, 12, 13, 14, 18]",68.15527048,7371,1133,2,5,8,1.1835592656658687
basic,13,28,0,0,0,12,"[0, 5, 26, 19, 7, 12]",6,2,"[13, 18]",55.00232404,8216,845,1,1,8,1.1891830098953253
basic,13,28,0,0,0,13,"[0, 5, 26, 19, 7, 12, 13]",7,1,[18],37.79767351,9010,794,1,0,8,1.3761105369117108
basic,13,28,0,0,1,18,"[0, 5, 26, 19, 7, 12, 13, 18]",8,0,[],13.38456227,10093,1083,1,0,8,1.7228206627692229
basic,13,28,0,1,1,18,"[0, 5, 26, 19, 7, 12, 13, 18]",8,0,[],13.38456227,12230,2137,1,0,8,1.7228206627692229
basic,14,22,0,0,0,0,[0],1,29,"[1, 2, 3, 4, 5, 6, 7, 8, 9, 10, 11, 12, 13, 14, 15, 16, 17, 18, 19, 20, 21, 22, 23, 24, 25, 26, 27, 28, 29]",300,132,-1,31,704,9,0.0
basic,14,22,0,0,0,29,"[0, 29]",2,22,"[1, 3, 5, 6, 7, 8, 9, 11, 13, 14, 15, 16, 17, 19, 20, 21, 22, 23, 24, 25, 27, 28]",222.9935068,7657,7525,11,235,9,1.0
basic,14,22,0,0,0,19,"[0, 29, 19]",3,18,"[1, 3, 6, 7, 8, 9, 13, 14, 15, 16, 17, 20, 21, 22, 23, 24, 25, 28]",207.9602104,8602,945,11,172,9,1.1559285443414686
basic,14,22,0,0,0,9,"[0, 29, 19, 9]",4,16,"[1, 3, 6, 7, 8, 13, 14, 15, 16, 17, 20, 21, 22, 24, 25, 28]",187.5641323,9618,1016,7,84,9,1.2555028175473422
basic,14,22,0,0,0,6,"[0, 29, 19, 9, 6]",5,13,"[3, 7, 13, 14, 15, 16, 17, 20, 21, 22, 24, 25, 28]",160.9370784,10809,1191,17,16,8,1.5692551066355458
basic,14,22,0,0,0,28,"[0, 29, 19, 9, 6, 28]",6,5,"[7, 14, 16, 17, 22]",130.9370784,11834,1025,5,2,8,1.5285578577513508
basic,14,22,0,0,0,16,"[0, 29, 19, 9, 6, 28, 16]",7,1,[22],96.49872771,12795,961,1,0,8,2.5001967567448653
basic,14,22,0,0,1,22,"[0, 29, 19, 9, 6, 28, 16, 22]",8,0,[],8.039697643,14500,1705,1,0,8,2.084367549440744
basic,14,22,0,1,1,22,"[0, 29, 19, 9, 6, 28, 16, 22]",8,0,[],8.039697643,16231,1731,1,0,8,2.084367549440744
basic,15,25,0,0,0,0,[0],1,28,"[1, 2, 3, 4, 5, 7, 8, 9, 10, 11, 12, 13, 14, 15, 16, 17, 18, 19, 20, 21, 22, 23, 24, 25, 26, 27, 28, 29]",300,130,-1,5,94,10,0.0
basic,15,25,0,0,0,23,"[0, 23]",2,23,"[1, 2, 3, 5, 7, 8, 9, 11, 12, 13, 14, 16, 17, 19, 20, 21, 22, 24, 25, 26, 27, 28, 29]",259.7756293,4932,4802,3,33,10,1.0
basic,15,25,0,0,0,19,"[0, 23, 19]",3,21,"[1, 2, 3, 5, 7, 8, 9, 11, 12, 13, 14, 16, 17, 20, 21, 22, 24, 25, 27, 28, 29]",223.9287326,5916,984,3,24,10,1.583101227007039
basic,15,25,0,0,0,29,"[0, 23, 19, 29]",4,19,"[1, 2, 3, 5, 7, 8, 9, 11, 12, 13, 14, 16, 17, 20, 21, 22, 24, 25, 28]",207.649912,6699,783,3,17,10,1.474631541426484
basic,15,25,0,0,0,22,"[0, 23, 19, 29, 22]",5,18,"[1, 2, 3, 5, 7, 8, 9, 11, 12, 13, 14, 16, 17, 20, 21, 24, 25, 28]",191.5253965,7535,836,3,14,10,1.4020377754906637
basic,15,25,0,0,0,7,"[0, 23, 19, 29, 22, 7]",6,7,"[3, 8, 9, 11, 13, 24, 28]",115.8814939,9661,2126,3,11,10,1.5709678649326715
basic,15,25,0,0,0,24,"[0, 23, 19, 29, 22, 7, 24]",7,5,"[3, 8, 9, 13, 28]",91.12265712,10835,1174,3,7,10,1.486191600033379
basic,15,25,0,0,0,9,"[0, 23, 19, 29, 22, 7, 24, 9]",8,4,"[3, 8, 13, 28]",73.09490075,11745,910,3,3,10,1.453504870342882
basic,15,25,0,0,0,3,"[0, 23, 19, 29, 22, 7, 24, 9, 3]",9,3,"[8, 13, 28]",42.82940885,12919,1174,3,0,10,1.388955167525479
basic,15,25,0,0,1,13,"[0, 23, 19, 29, 22, 7, 24, 9, 3, 13]",10,0,[],11.58841014,14268,1349,1,0,10,1.4309045890044414
basic,15,25,0,1,1,13,"[0, 23, 19, 29, 22, 7, 24, 9, 3, 13]",10,0,[],11.58841014,16196,1928,1,0,10,1.4309045890044414
basic,16,19,0,0,0,0,[0],1,29,"[1, 2, 3, 4, 5, 6, 7, 8, 9, 10, 11, 12, 13, 14, 15, 16, 17, 18, 19, 20, 21, 22, 23, 24, 25, 26, 27, 28, 29]",300,131,-1,12,149,8,0.0
basic,16,19,0,0,0,9,"[0, 9]",2,21,"[1, 4, 5, 6, 7, 10, 11, 12, 13, 14, 15, 19, 20, 21, 22, 23, 24, 25, 27, 28, 29]",185.9956141,4368,4237,13,76,7,1.0
basic,16,19,0,0,0,6,"[0, 9, 6]",3,13,"[4, 7, 10, 11, 13, 14, 20, 21, 22, 24, 27, 28, 29]",144.5589154,5425,1057,13,38,7,1.0111071984935167
basic,16,19,0,0,0,4,"[0, 9, 6, 4]",4,7,"[10, 11, 14, 20, 22, 27, 28]",103.5101639,6751,1326,2,8,7,1.1922496747189233
basic,16,19,0,0,0,14,"[0, 9, 6, 4, 14]",5,3,"[11, 20, 22]",53.50016491,8527,1776,3,0,6,1.1787371283957726
basic,16,19,0,0,1,11,"[0, 9, 6, 4, 14, 11]",6,0,[],42.68351108,9380,853,1,0,6,1.1735916320729467
basic,16,19,0,1,1,11,"[0, 9, 6, 4, 14, 11]",6,0,[],42.68351108,12832,3452,1,0,6,1.1735916320729467
basic,17,23,0,0,0,0,[0],1,28,"[1, 2, 3, 4, 5, 6, 7, 8, 9, 10, 11, 12, 13, 14, 15, 16, 17, 18, 19, 20, 21, 22, 23, 25, 26, 27, 28, 29]",300,130,-1,76,2626,10,0.0
basic,17,23,0,0,0,13,"[0, 13]",2,19,"[1, 2, 3, 5, 6, 7, 8, 9, 10, 12, 14, 17, 18, 19, 21, 22, 23, 27, 29]",189.3202819,2678,2548,9,168,10,1.0
basic,17,23,0,0,0,12,"[0, 13, 12]",3,16,"[1, 2, 3, 6, 7, 8, 9, 10, 14, 17, 18, 21, 22, 23, 27, 29]",177.2372359,3566,888,9,96,10,1.0014195490503164
basic,17,23,0,0,0,2,"[0, 13, 12, 2]",4,12,"[1, 3, 6, 7, 9, 10, 14, 18, 21, 22, 27, 29]",163.3447919,4456,890,4,30,10,1.0014394317924602
basic,17,23,0,0,0,9,"[0, 13, 12, 2, 9]",5,10,"[1, 6, 7, 10, 14, 18, 21, 22, 27, 29]",150.3063871,5251,795,1,8,10,1.1457747074799831
basic,17,23,0,0,0,14,"[0, 13, 12, 2, 9, 14]",6,8,"[1, 6, 7, 10, 18, 22, 27, 29]",139.8660806,6194,943,1,6,10,1.1365880299138118
basic,17,23,0,0,0,29,"[0, 13, 12, 2, 9, 14, 29]",7,5,"[1, 6, 7, 10, 22]",92.43191571,7426,1232,1,3,10,1.3460297288480787
basic,17,23,0,0,0,7,"[0, 13, 12, 2, 9, 14, 29, 7]",8,2,"[1, 10]",68.34872655,8378,952,1,1,10,1.3773159292410473
basic,17,23,0,0,0,10,"[0, 13, 12, 2, 9, 14, 29, 7, 10]",9,1,[1],40.88966612,9396,1018,1,0,10,1.3556884556214648
basic,17,23,0,0,1,1,"[0, 13, 12, 2, 9, 14, 29, 7, 10, 1]",10,0,[],12.23656855,10454,1058,1,0,10,1.3259861306330887
basic,17,23,0,1,1,1,"[0, 13, 12, 2, 9, 14, 29, 7, 10, 1]",10,0,[],12.23656855,12063,1609,1,0,10,1.3259861306330887
basic,18,39,0,0,0,0,[0],1,28,"[1, 2, 3, 4, 5, 6, 7, 9, 10, 11, 12, 13, 14, 15, 16, 17, 18, 19, 20, 21, 22, 23, 24, 25, 26, 27, 28, 29]",300,130,-1,1,30,10,0.0
basic,18,39,0,0,0,29,"[0, 29]",2,26,"[1, 2, 3, 4, 5, 6, 7, 9, 10, 12, 13, 14, 15, 16, 17, 18, 19, 20, 21, 22, 23, 24, 25, 26, 27, 28]",243.0614366,4244,4114,8,104,9,1.0
basic,18,39,0,0,0,12,"[0, 29, 12]",3,18,"[1, 2, 4, 5, 7, 9, 10, 13, 14, 15, 16, 18, 19, 22, 23, 24, 26, 28]",182.5221931,6170,1926,5,54,9,1.0026200331524904
basic,18,39,0,0,0,10,"[0, 29, 12, 10]",4,16,"[1, 2, 4, 5, 7, 9, 13, 14, 15, 16, 18, 19, 22, 23, 24, 26]",147.0116313,7187,1017,5,34,9,1.2874817019928908
basic,18,39,0,0,0,7,"[0, 29, 12, 10, 7]",5,10,"[1, 2, 5, 13, 16, 18, 19, 22, 24, 26]",113.5900814,8138,951,4,12,9,1.2250826263866774
basic,18,39,0,0,0,26,"[0, 29, 12, 10, 7, 26]",6,5,"[1, 16, 18, 19, 22]",94.90853971,8974,836,3,4,9,1.2697275353190085
basic,18,39,0,0,0,22,"[0, 29, 12, 10, 7, 26, 22]",7,2,"[16, 19]",77.18849457,9957,983,2,0,9,1.438961743955176
basic,18,39,0,0,0,16,"[0, 29, 12, 10, 7, 26, 22, 16]",8,1,[19],42.18849457,10883,926,1,0,9,1.3580882130477205
basic,18,39,0,0,1,19,"[0, 29, 12, 10, 7, 26, 22, 16, 19]",9,0,[],24.72424537,11761,878,1,0,9,1.3646589157842668
basic,18,39,0,1,1,19,"[0, 29, 12, 10, 7, 26, 22, 16, 19]",9,0,[],24.72424537,13748,1987,1,0,9,1.3646589157842668
basic,19,11,0,0,0,0,[0],1,25,"[1, 2, 3, 4, 5, 6, 8, 9, 10, 11, 12, 13, 14, 15, 16, 17, 18, 19, 20, 22, 23, 25, 26, 27, 28]",300,130,-1,6,374,12,0.0
basic,19,11,0,0,0,5,"[0, 5]",2,15,"[2, 6, 8, 11, 12, 14, 15, 16, 17, 18, 19, 22, 25, 27, 28]",137.3070376,3695,3565,55,334,9,1.0
basic,19,11,0,0,0,2,"[0, 5, 2]",3,12,"[6, 8, 11, 12, 14, 15, 17, 18, 19, 22, 27, 28]",120.3070376,5606,1911,19,101,9,1.0067504085355843
basic,19,11,0,0,0,22,"[0, 5, 2, 22]",4,7,"[8, 11, 15, 17, 19, 27, 28]",110.257162,6507,901,14,36,9,1.0064127562179954
basic,19,11,0,0,0,28,"[0, 5, 2, 22, 28]",5,5,"[8, 11, 15, 17, 19]",91.87238571,7401,894,13,10,9,1.2044188178229356
basic,19,11,0,0,0,11,"[0, 5, 2, 22, 28, 11]",6,3,"[8, 15, 17]",72.45589787,8517,1116,6,0,9,1.3125020553889362
basic,19,11,0,0,0,15,"[0, 5, 2, 22, 28, 11, 15]",7,2,"[8, 17]",54.3451276,9398,881,2,0,9,1.565983650138412
basic,19,11,0,0,0,8,"[0, 5, 2, 22, 28, 11, 15, 8]",8,1,[17],40.89150355,10249,851,1,0,9,1.7844108346122292
basic,19,11,0,0,1,17,"[0, 5, 2, 22, 28, 11, 15, 8, 17]",9,0,[],26.57368249,11237,988,1,0,9,1.8590538775594907
basic,19,11,0,1,1,17,"[0, 5, 2, 22, 28, 11, 15, 8, 17]",9,0,[],26.57368249,13396,2159,1,0,9,1.8590538775594907
basic,20,31,0,0,0,0,[0],1,27,"[1, 3, 4, 5, 6, 7, 8, 10, 11, 12, 13, 14, 15, 16, 17, 18, 19, 20, 21, 22, 23, 24, 25, 26, 27, 28, 29]",300,131,-1,2,87,10,0.0
basic,20,31,0,0,0,14,"[0, 14]",2,25,"[1, 3, 5, 6, 7, 8, 10, 11, 12, 13, 15, 16, 17, 18, 19, 20, 21, 22, 23, 24, 25, 26, 27, 28, 29]",263.861378,3584,3453,2,59,10,1.0
basic,20,31,0,0,0,27,"[0, 14, 27]",3,22,"[1, 3, 5, 6, 7, 8, 10, 11, 12, 13, 15, 16, 17, 18, 19, 20, 21, 22, 24, 25, 28, 29]",235.6833724,4764,1180,1,39,10,1.5881859159302467
basic,20,31,0,0,0,8,"[0, 14, 27, 8]",4,20,"[1, 3, 5, 6, 7, 10, 11, 12, 13, 16, 17, 18, 19, 20, 21, 22, 24, 25, 28, 29]",224.6380114,5584,820,1,36,10,2.1665048452331277
basic,20,31,0,0,0,18,"[0, 14, 27, 8, 18]",5,15,"[1, 5, 6, 7, 11, 12, 13, 16, 17, 19, 20, 22, 25, 28, 29]",188.7911147,6618,1034,1,26,10,1.7273375741920205
basic,20,31,0,0,0,17,"[0, 14, 27, 8, 18, 17]",6,13,"[1, 5, 6, 7, 11, 12, 13, 16, 19, 20, 22, 25, 28]",159.584951,8989,2371,1,13,10,1.551192427769927
basic,20,31,0,0,0,11,"[0, 14, 27, 8, 18, 17, 11]",7,7,"[5, 12, 16, 19, 22, 25, 28]",118.4753414,10084,1095,1,4,10,2.9650760544203494
basic,20,31,0,0,0,5,"[0, 14, 27, 8, 18, 17, 11, 5]",8,2,"[16, 28]",74.79468207,11140,1056,1,1,10,2.56711965625205
basic,20,31,0,0,0,28,"[0, 14, 27, 8, 18, 17, 11, 5, 28]",9,1,[16],54.57093365,12068,928,1,0,10,2.2865510762058148
basic,20,31,0,0,1,16,"[0, 14, 27, 8, 18, 17, 11, 5, 28, 16]",10,0,[],20.95546102,13803,1735,1,0,10,2.089356850786318
basic,20,31,0,1,1,16,"[0, 14, 27, 8, 18, 17, 11, 5, 28, 16]",10,0,[],20.95546102,15398,1595,1,0,10,2.089356850786318
basic,21,12,0,0,0,0,[0],1,29,"[1, 2, 3, 4, 5, 6, 7, 8, 9, 10, 11, 12, 13, 14, 15, 16, 17, 18, 19, 20, 21, 22, 23, 24, 25, 26, 27, 28, 29]",300,129,-1,2,32,9,0.0
basic,21,12,0,0,0,6,"[0, 6]",2,28,"[1, 2, 3, 4, 5, 7, 8, 9, 10, 11, 12, 13, 14, 15, 16, 17, 18, 19, 20, 21, 22, 23, 24, 25, 26, 27, 28, 29]",283.5987805,4109,3980,2,18,9,1.0
basic,21,12,0,0,0,22,"[0, 6, 22]",3,13,"[2, 4, 5, 7, 12, 13, 14, 16, 19, 23, 24, 25, 27]",182.0015365,6268,2159,2,9,9,1.3408050629015749
basic,21,12,0,0,0,16,"[0, 6, 22, 16]",4,10,"[2, 4, 5, 7, 12, 14, 19, 24, 25, 27]",161.0015365,7146,878,2,7,9,1.5323672374573825
basic,21,12,0,0,0,4,"[0, 6, 22, 16, 4]",5,6,"[12, 14, 19, 24, 25, 27]",126.7962737,8071,925,2,5,9,1.38665076120851
basic,21,12,0,0,0,12,"[0, 6, 22, 16, 4, 12]",6,3,"[14, 24, 27]",84.6062275,9023,952,2,3,9,1.3036701691846924
basic,21,12,0,0,0,27,"[0, 6, 22, 16, 4, 12, 27]",7,2,"[14, 24]",60.25463618,9808,785,2,0,9,1.401636252408167
basic,21,12,0,0,0,14,"[0, 6, 22, 16, 4, 12, 27, 14]",8,1,[24],31.60153862,10701,893,1,0,9,1.4415448388010776
basic,21,12,0,0,1,24,"[0, 6, 22, 16, 4, 12, 27, 14, 24]",9,0,[],14.39688808,11631,930,1,0,9,1.6003250998053893
basic,21,12,0,1,1,24,"[0, 6, 22, 16, 4, 12, 27, 14, 24]",9,0,[],14.39688808,13197,1566,1,0,9,1.6003250998053893
basic,22,15,0,0,0,0,[0],1,25,"[1, 2, 3, 4, 7, 8, 9, 10, 11, 12, 13, 14, 15, 16, 18, 20, 21, 22, 23, 24, 25, 26, 27, 28, 29]",300,130,-1,4,65,9,0.0
basic,22,15,0,0,0,12,"[0, 12]",2,22,"[1, 2, 3, 4, 7, 8, 9, 10, 11, 13, 14, 15, 16, 18, 21, 22, 23, 24, 26, 27, 28, 29]",213.547701,4012,3882,4,35,9,1.0
basic,22,15,0,0,0,7,"[0, 12, 7]",3,16,"[1, 3, 4, 8, 9, 10, 11, 13, 14, 15, 16, 18, 21, 22, 24, 27]",180.3061607,4987,975,4,29,9,1.411291635294361
basic,22,15,0,0,0,11,"[0, 12, 7, 11]",4,9,"[3, 4, 13, 14, 15, 16, 21, 22, 27]",138.8212237,6006,1019,2,12,9,1.2980572092387541
basic,22,15,0,0,0,3,"[0, 12, 7, 11, 3]",5,7,"[4, 13, 14, 15, 16, 21, 22]",127.4194695,6825,819,2,7,9,1.3036925309398455
basic,22,15,0,0,0,16,"[0, 12, 7, 11, 3, 16]",6,5,"[4, 13, 14, 15, 22]",102.3395971,8321,1496,2,2,9,1.731400260973498
basic,22,15,0,0,0,22,"[0, 12, 7, 11, 3, 16, 22]",7,2,"[13, 15]",43.48384117,9935,1614,2,0,9,1.4868316064029183
basic,22,15,0,0,0,13,"[0, 12, 7, 11, 3, 16, 22, 13]",8,1,[15],15.32358549,11068,1133,1,0,9,1.4209684759571115
basic,22,15,0,0,1,15,"[0, 12, 7, 11, 3, 16, 22, 13, 15]",9,0,[],0.059247971,12375,1307,1,0,9,1.527350840290292
basic,22,15,0,1,1,15,"[0, 12, 7, 11, 3, 16, 22, 13, 15]",9,0,[],0.059247971,14063,1688,1,0,9,1.527350840290292
undo,23,29,0,0,0,0,[0],1,29,"[1, 2, 3, 4, 5, 6, 7, 8, 9, 10, 11, 12, 13, 14, 15, 16, 17, 18, 19, 20, 21, 22, 23, 24, 25, 26, 27, 28, 29]",300,133,-1,1,78,9,0.0
undo,23,29,0,0,0,25,"[0, 25]",2,18,"[1, 2, 4, 5, 6, 7, 9, 10, 12, 13, 14, 15, 16, 17, 22, 26, 27, 28]",223.3449284,4457,4324,13,101,8,1.0
undo,23,29,0,0,0,17,"[0, 25, 17]",3,13,"[1, 4, 5, 6, 7, 9, 10, 12, 13, 14, 22, 27, 28]",188.41643,5337,880,2,22,8,1.014228463693056
undo,23,29,0,0,0,1,"[0, 25, 17, 1]",4,11,"[4, 5, 6, 7, 10, 12, 13, 14, 22, 27, 28]",149.5191293,6404,1067,2,18,8,1.7553639368828857
undo,23,29,0,0,0,14,"[0, 25, 17, 1, 14]",5,8,"[4, 5, 7, 12, 13, 22, 27, 28]",106.5656662,7476,1072,2,9,8,2.137167642879409
undo,23,29,0,0,0,13,"[0, 25, 17, 1, 14, 13]",6,4,"[4, 5, 12, 22]",88.53790978,8469,993,2,3,8,1.9535489858276616
undo,23,29,0,0,0,5,"[0, 25, 17, 1, 14, 13, 5]",7,2,"[4, 22]",62.82798951,9528,1059,2,0,8,1.9087092890879327
undo,23,29,0,0,1,4,"[0, 25, 17, 1, 14, 13, 5, 4]",8,0,[],10.93386653,12621,3093,1,0,8,1.6444131700810427
undo,23,29,1,0,0,5,"[0, 25, 17, 1, 14, 13, 5]",7,2,"[4, 22]",62.82798951,14250,1629,2,0,8,1.9087092890879327
undo,23,29,1,0,0,13,"[0, 25, 17, 1, 14, 13]",6,4,"[4, 5, 12, 22]",88.53790978,14433,183,2,3,8,1.9535489858276616
undo,23,29,1,0,0,14,"[0, 25, 17, 1, 14]",5,8,"[4, 5, 7, 12, 13, 22, 27, 28]",106.5656662,14583,150,2,9,8,2.137167642879409
undo,23,29,1,0,0,1,"[0, 25, 17, 1]",4,11,"[4, 5, 6, 7, 10, 12, 13, 14, 22, 27, 28]",149.5191293,14733,150,2,18,8,1.7553639368828857
undo,23,29,1,0,0,17,"[0, 25, 17]",3,13,"[1, 4, 5, 6, 7, 9, 10, 12, 13, 14, 22, 27, 28]",188.41643,14884,151,2,22,8,1.014228463693056
undo,23,29,1,0,0,25,"[0, 25]",2,18,"[1, 2, 4, 5, 6, 7, 9, 10, 12, 13, 14, 15, 16, 17, 22, 26, 27, 28]",223.3449284,15034,150,13,101,8,1.0
undo,23,29,1,0,0,0,[0],1,29,"[1, 2, 3, 4, 5, 6, 7, 8, 9, 10, 11, 12, 13, 14, 15, 16, 17, 18, 19, 20, 21, 22, 23, 24, 25, 26, 27, 28, 29]",300,15550,516,1,78,9,0.0
undo,23,29,0,0,0,6,"[0, 6]",2,28,"[1, 2, 3, 4, 5, 7, 8, 9, 10, 11, 12, 13, 14, 15, 16, 17, 18, 19, 20, 21, 22, 23, 24, 25, 26, 27, 28, 29]",228.4108947,17791,2241,1,25,9,1.0
undo,23,29,0,0,0,28,"[0, 6, 28]",3,24,"[1, 3, 4, 5, 7, 9, 10, 11, 12, 13, 14, 15, 16, 17, 18, 20, 21, 22, 23, 24, 25, 26, 27, 29]",187.1798384,18953,1162,1,22,9,1.162106788166845
undo,23,29,0,0,0,27,"[0, 6, 28, 27]",4,19,"[1, 3, 4, 5, 7, 9, 10, 11, 12, 13, 14, 15, 16, 21, 22, 23, 25, 26, 29]",166.6615539,19937,984,1,21,9,1.2307173895439045
undo,23,29,0,0,0,22,"[0, 6, 28, 27, 22]",5,13,"[1, 3, 4, 5, 7, 9, 12, 13, 14, 15, 21, 26, 29]",133.4200136,20969,1032,1,19,9,1.4241767805149903
undo,23,29,0,0,0,5,"[0, 6, 28, 27, 22, 5]",6,6,"[4, 7, 9, 12, 13, 14]",79.07850094,21994,1025,4,2,8,1.7779286710260118
undo,23,29,0,0,0,13,"[0, 6, 28, 27, 22, 5, 13]",7,1,[14],53.36858068,22896,902,1,0,8,2.2784535922470215
undo,23,29,0,0,1,14,"[0, 6, 28, 27, 22, 5, 13, 14]",8,0,[],35.3408243,23771,875,1,0,8,2.9240984037611235
undo,23,29,1,0,0,13,"[0, 6, 28, 27, 22, 5, 13]",7,1,[14],53.36858068,28483,4712,1,0,8,2.2784535922470215
undo,23,29,1,0,0,5,"[0, 6, 28, 27, 22, 5]",6,6,"[4, 7, 9, 12, 13, 14]",79.07850094,28650,167,4,2,8,1.7779286710260118
undo,23,29,1,0,0,22,"[0, 6, 28, 27, 22]",5,13,"[1, 3, 4, 5, 7, 9, 12, 13, 14, 15, 21, 26, 29]",133.4200136,28783,133,1,19,9,1.4241767805149903
undo,23,29,1,0,0,27,"[0, 6, 28, 27]",4,19,"[1, 3, 4, 5, 7, 9, 10, 11, 12, 13, 14, 15, 16, 21, 22, 23, 25, 26, 29]",166.6615539,28917,134,1,21,9,1.2307173895439045
undo,23,29,0,0,0,22,"[0, 6, 28, 27, 22]",5,13,"[1, 3, 4, 5, 7, 9, 12, 13, 14, 15, 21, 26, 29]",133.4200136,30497,1580,1,19,9,1.4241767805149903
undo,23,29,0,0,0,12,"[0, 6, 28, 27, 22, 12]",6,8,"[4, 5, 7, 9, 13, 14, 21, 26]",95.4726817,31588,1091,1,6,9,1.3248355326460857
undo,23,29,0,0,0,7,"[0, 6, 28, 27, 22, 12, 7]",7,4,"[4, 5, 9, 21]",81.87121119,32468,880,1,3,9,1.3264091962339806
undo,23,29,0,0,0,9,"[0, 6, 28, 27, 22, 12, 7, 9]",8,1,[4],52.80232748,33488,1020,1,0,9,1.309391257644539
undo,23,29,0,0,1,4,"[0, 6, 28, 27, 22, 12, 7, 9, 4]",9,0,[],11.76575843,34786,1298,1,0,9,1.6396807789841599
undo,23,29,0,1,1,4,"[0, 6, 28, 27, 22, 12, 7, 9, 4]",9,0,[],11.76575843,39400,4614,1,0,9,1.6396807789841599
undo,24,8,0,0,0,0,[0],1,29,"[1, 2, 3, 4, 5, 6, 7, 8, 9, 10, 11, 12, 13, 14, 15, 16, 17, 18, 19, 20, 21, 22, 23, 24, 25, 26, 27, 28, 29]",300,128,-1,10,149,9,0.0
undo,24,8,0,0,0,5,"[0, 5]",2,28,"[1, 2, 3, 4, 6, 7, 8, 9, 10, 11, 12, 13, 14, 15, 16, 17, 18, 19, 20, 21, 22, 23, 24, 25, 26, 27, 28, 29]",254.5137383,2327,2199,10,100,9,1.0
undo,24,8,0,0,0,14,"[0, 5, 14]",3,20,"[1, 2, 3, 4, 6, 7, 11, 15, 16, 17, 18, 19, 20, 21, 22, 23, 24, 25, 28, 29]",214.5512559,3467,1140,4,36,9,1.0001019035932595
undo,24,8,0,0,0,17,"[0, 5, 14, 17]",4,15,"[1, 4, 6, 7, 11, 15, 16, 18, 19, 20, 22, 23, 24, 25, 28]",177.5377449,4451,984,4,16,9,1.121197267659591
undo,24,8,0,0,0,11,"[0, 5, 14, 17, 11]",5,11,"[1, 4, 15, 16, 18, 19, 22, 23, 24, 25, 28]",152.3583883,5402,951,4,8,9,1.1277254166016362
undo,24,8,0,0,0,24,"[0, 5, 14, 17, 11, 24]",6,3,"[15, 16, 28]",115.1428001,6403,1001,2,2,9,1.1227411011978805
undo,24,8,0,0,0,15,"[0, 5, 14, 17, 11, 24, 15]",7,2,"[16, 28]",98.37974552,7273,870,2,0,9,1.1956385406066814
undo,24,8,0,0,0,16,"[0, 5, 14, 17, 11, 24, 15, 16]",8,1,[28],47.30137436,8521,1248,1,0,9,1.36482239111247
undo,24,8,0,0,1,28,"[0, 5, 14, 17, 11, 24, 15, 16, 28]",9,0,[],24.94069458,9588,1067,1,0,9,1.632953105226947
undo,24,8,0,1,1,28,"[0, 5, 14, 17, 11, 24, 15, 16, 28]",9,0,[],24.94069458,11162,1574,1,0,9,1.632953105226947
undo,25,32,0,0,0,0,[0],1,29,"[1, 2, 3, 4, 5, 6, 7, 8, 9, 10, 11, 12, 13, 14, 15, 16, 17, 18, 19, 20, 21, 22, 23, 24, 25, 26, 27, 28, 29]",300,130,-1,17,359,10,0.0
undo,25,32,0,0,0,19,"[0, 19]",2,28,"[1, 2, 3, 4, 5, 6, 7, 8, 9, 10, 11, 12, 13, 14, 15, 16, 17, 18, 20, 21, 22, 23, 24, 25, 26, 27, 28, 29]",283.5075775,2526,2396,16,294,10,1.0
undo,25,32,0,0,0,13,"[0, 19, 13]",3,24,"[2, 3, 4, 5, 6, 8, 9, 10, 11, 12, 14, 15, 16, 17, 18, 20, 21, 22, 23, 24, 25, 26, 27, 28]",260.3127505,3396,870,14,227,10,1.0172874229878615
undo,25,32,0,0,0,15,"[0, 19, 13, 15]",4,18,"[2, 3, 5, 8, 9, 10, 11, 12, 16, 17, 20, 22, 23, 24, 25, 26, 27, 28]",177.4393531,5099,1703,9,116,10,1.435447391509833
undo,25,32,0,0,0,28,"[0, 19, 13, 15, 28]",5,17,"[2, 3, 5, 8, 9, 10, 11, 12, 16, 17, 20, 22, 23, 24, 25, 26, 27]",166.0375988,5992,893,9,70,10,1.3843701324937985
undo,25,32,0,0,0,12,"[0, 19, 13, 15, 28, 12]",6,14,"[2, 3, 5, 8, 9, 10, 11, 16, 17, 20, 22, 24, 26, 27]",147.0639329,6868,876,6,35,10,1.358372254952329
undo,25,32,0,0,0,16,"[0, 19, 13, 15, 28, 12, 16]",7,13,"[2, 3, 5, 8, 9, 10, 11, 17, 20, 22, 24, 26, 27]",131.411457,7778,910,5,15,10,1.4356932930709845
undo,25,32,0,0,0,22,"[0, 19, 13, 15, 28, 12, 16, 22]",8,6,"[2, 8, 9, 17, 20, 27]",97.57360838,9168,1390,3,5,10,1.4335226411545752
undo,25,32,0,0,0,9,"[0, 19, 13, 15, 28, 12, 16, 22, 9]",9,3,"[2, 8, 20]",75.37000507,10053,885,3,0,10,1.4837166378374758
undo,25,32,0,0,1,8,"[0, 19, 13, 15, 28, 12, 16, 22, 9, 8]",10,0,[],30.24794838,13759,3706,1,0,10,1.3767698817641267
undo,25,32,0,1,1,8,"[0, 19, 13, 15, 28, 12, 16, 22, 9, 8]",10,0,[],30.24794838,15914,2155,1,0,10,1.3767698817641267
undo,26,6,0,0,0,0,[0],1,29,"[1, 2, 3, 4, 5, 6, 7, 8, 9, 10, 11, 12, 13, 14, 15, 16, 17, 18, 19, 20, 21, 22, 23, 24, 25, 26, 27, 28, 29]",300,130,-1,180,4304,10,0.0
undo,26,6,0,0,0,3,"[0, 3]",2,28,"[1, 2, 4, 5, 6, 7, 8, 9, 10, 11, 12, 13, 14, 15, 16, 17, 18, 19, 20, 21, 22, 23, 24, 25, 26, 27, 28, 29]",266.4738908,2606,2476,90,1607,10,1.0
undo,26,6,0,0,0,16,"[0, 3, 16]",3,27,"[1, 2, 4, 5, 6, 7, 8, 9, 10, 11, 12, 13, 14, 15, 17, 18, 19, 20, 21, 22, 23, 24, 25, 26, 27, 28, 29]",220.2353787,3766,1160,16,190,10,1.1050742161728249
undo,26,6,0,0,0,18,"[0, 3, 16, 18]",4,24,"[1, 2, 4, 5, 6, 7, 8, 9, 10, 11, 12, 13, 14, 15, 17, 19, 20, 21, 22, 23, 24, 26, 27, 29]",196.8901436,4674,908,10,97,10,1.6930577237270534
undo,26,6,0,0,0,17,"[0, 3, 16, 18, 17]",5,20,"[1, 2, 4, 5, 6, 7, 8, 9, 10, 11, 13, 14, 20, 21, 22, 23, 24, 26, 27, 29]",182.9617553,5592,918,8,58,10,1.6583245453234965
undo,26,6,0,0,0,10,"[0, 3, 16, 18, 17, 10]",6,17,"[1, 2, 4, 5, 6, 7, 8, 11, 13, 14, 21, 22, 23, 24, 26, 27, 29]",163.2386724,6577,985,6,33,10,1.6214605156931816
undo,26,6,0,0,0,24,"[0, 3, 16, 18, 17, 10, 24]",7,15,"[1, 2, 4, 5, 6, 7, 8, 11, 13, 14, 22, 23, 26, 27, 29]",149.8222646,7337,760,6,18,10,1.5435556829623227
undo,26,6,0,0,0,7,"[0, 3, 16, 18, 17, 10, 24, 7]",8,2,"[2, 26]",78.88567316,9157,1820,2,0,10,4.604550406567428
undo,26,6,0,0,0,26,"[0, 3, 16, 18, 17, 10, 24, 7, 26]",9,1,[2],54.802484,10001,844,1,0,10,4.929651505560752
undo,26,6,0,0,1,2,"[0, 3, 16, 18, 17, 10, 24, 7, 26, 2]",10,0,[],24.96961622,11127,1126,1,0,10,3.4672592693333204
undo,26,6,0,1,1,2,"[0, 3, 16, 18, 17, 10, 24, 7, 26, 2]",10,0,[],24.96961622,12763,1636,1,0,10,3.4672592693333204
undo,27,5,0,0,0,0,[0],1,29,"[1, 2, 3, 4, 5, 6, 7, 8, 9, 10, 11, 12, 13, 14, 15, 16, 17, 18, 19, 20, 21, 22, 23, 24, 25, 26, 27, 28, 29]",300,130,-1,5,139,9,0.0
undo,27,5,0,0,0,23,"[0, 23]",2,27,"[1, 2, 3, 4, 5, 6, 7, 8, 9, 10, 11, 12, 13, 14, 15, 16, 17, 18, 19, 20, 21, 22, 24, 25, 26, 27, 28]",249.8402552,3637,3507,3,75,9,1.0
undo,27,5,0,0,0,24,"[0, 23, 24]",3,24,"[1, 2, 3, 4, 5, 6, 8, 9, 10, 11, 12, 13, 14, 15, 16, 17, 18, 19, 21, 22, 25, 26, 27, 28]",226.7534624,4483,846,20,147,8,1.0113799830159869
undo,27,5,0,0,0,25,"[0, 23, 24, 25]",4,20,"[2, 4, 5, 6, 8, 9, 10, 12, 13, 14, 15, 16, 17, 18, 19, 21, 22, 26, 27, 28]",201.9139777,5490,1007,10,54,8,1.5618476545435112
undo,27,5,0,0,0,12,"[0, 23, 24, 25, 12]",5,14,"[2, 4, 5, 6, 8, 10, 13, 15, 17, 18, 19, 22, 26, 27]",174.1290897,7202,1712,3,17,8,1.75567374076113
undo,27,5,0,0,0,17,"[0, 23, 24, 25, 12, 17]",6,7,"[4, 5, 6, 8, 15, 18, 19]",107.3982873,8500,1298,3,4,8,1.8038012016586276
undo,27,5,0,0,0,5,"[0, 23, 24, 25, 12, 17, 5]",7,1,[15],64.35180076,9867,1367,1,0,8,1.576603698255933
undo,27,5,0,0,1,15,"[0, 23, 24, 25, 12, 17, 5, 15]",8,0,[],24.32680857,12488,2621,1,0,8,1.5600422356934105
undo,27,5,1,0,0,5,"[0, 23, 24, 25, 12, 17, 5]",7,1,[15],64.35180076,14513,2025,1,0,8,1.576603698255933
undo,27,5,1,0,0,17,"[0, 23, 24, 25, 12, 17]",6,7,"[4, 5, 6, 8, 15, 18, 19]",107.3982873,14680,167,3,4,8,1.8038012016586276
undo,27,5,1,0,0,12,"[0, 23, 24, 25, 12]",5,14,"[2, 4, 5, 6, 8, 10, 13, 15, 17, 18, 19, 22, 26, 27]",174.1290897,14846,166,3,17,8,1.75567374076113
undo,27,5,1,0,0,25,"[0, 23, 24, 25]",4,20,"[2, 4, 5, 6, 8, 9, 10, 12, 13, 14, 15, 16, 17, 18, 19, 21, 22, 26, 27, 28]",201.9139777,15013,167,10,54,8,1.5618476545435112
undo,27,5,1,0,0,24,"[0, 23, 24]",3,24,"[1, 2, 3, 4, 5, 6, 8, 9, 10, 11, 12, 13, 14, 15, 16, 17, 18, 19, 21, 22, 25, 26, 27, 28]",226.7534624,15164,151,20,147,8,1.0113799830159869
undo,27,5,1,0,0,23,"[0, 23]",2,27,"[1, 2, 3, 4, 5, 6, 7, 8, 9, 10, 11, 12, 13, 14, 15, 16, 17, 18, 19, 20, 21, 22, 24, 25, 26, 27, 28]",249.8402552,15297,133,3,75,9,1.0
undo,27,5,1,0,0,0,[0],1,29,"[1, 2, 3, 4, 5, 6, 7, 8, 9, 10, 11, 12, 13, 14, 15, 16, 17, 18, 19, 20, 21, 22, 23, 24, 25, 26, 27, 28, 29]",300,15612,315,5,139,9,0.0
undo,27,5,0,0,0,23,"[0, 23]",2,27,"[1, 2, 3, 4, 5, 6, 7, 8, 9, 10, 11, 12, 13, 14, 15, 16, 17, 18, 19, 20, 21, 22, 24, 25, 26, 27, 28]",249.8402552,21533,5921,3,75,9,1.0
undo,27,5,0,0,0,25,"[0, 23, 25]",3,23,"[1, 2, 3, 4, 5, 6, 8, 9, 10, 12, 13, 14, 15, 16, 17, 18, 19, 21, 22, 24, 26, 27, 28]",231.4011663,22456,923,3,43,9,1.0923159590575564
undo,27,5,0,0,0,24,"[0, 23, 25, 24]",4,21,"[2, 3, 4, 5, 6, 8, 9, 10, 12, 13, 14, 15, 16, 17, 18, 19, 21, 22, 26, 27, 28]",206.5616816,23316,860,3,25,9,1.2901858295679272
undo,27,5,0,0,0,8,"[0, 23, 25, 24, 8]",5,14,"[4, 5, 6, 9, 12, 13, 14, 15, 17, 18, 19, 22, 27, 28]",149.9489622,25278,1962,7,20,8,1.6352454813956299
undo,27,5,0,0,0,19,"[0, 23, 25, 24, 8, 19]",6,8,"[4, 6, 9, 13, 14, 17, 27, 28]",109.58809,26410,1132,4,5,8,1.4773046910011693
undo,27,5,0,0,0,27,"[0, 23, 25, 24, 8, 19, 27]",7,2,"[9, 13]",49.58809001,27650,1240,2,0,8,2.129411486700139
undo,27,5,0,0,1,9,"[0, 23, 25, 24, 8, 19, 27, 9]",8,0,[],10.53684163,29776,2126,1,0,8,2.263504174222945
undo,27,5,1,0,0,27,"[0, 23, 25, 24, 8, 19, 27]",7,2,"[9, 13]",49.58809001,33214,3438,2,0,8,2.129411486700139
undo,27,5,1,0,0,19,"[0, 23, 25, 24, 8, 19]",6,8,"[4, 6, 9, 13, 14, 17, 27, 28]",109.58809,33380,166,4,5,8,1.4773046910011693
undo,27,5,1,0,0,8,"[0, 23, 25, 24, 8]",5,14,"[4, 5, 6, 9, 12, 13, 14, 15, 17, 18, 19, 22, 27, 28]",149.9489622,33530,150,7,20,8,1.6352454813956299
undo,27,5,1,0,0,24,"[0, 23, 25, 24]",4,21,"[2, 3, 4, 5, 6, 8, 9, 10, 12, 13, 14, 15, 16, 17, 18, 19, 21, 22, 26, 27, 28]",206.5616816,33679,149,3,25,9,1.2901858295679272
undo,27,5,1,0,0,25,"[0, 23, 25]",3,23,"[1, 2, 3, 4, 5, 6, 8, 9, 10, 12, 13, 14, 15, 16, 17, 18, 19, 21, 22, 24, 26, 27, 28]",231.4011663,33846,167,3,43,9,1.0923159590575564
undo,27,5,1,0,0,23,"[0, 23]",2,27,"[1, 2, 3, 4, 5, 6, 7, 8, 9, 10, 11, 12, 13, 14, 15, 16, 17, 18, 19, 20, 21, 22, 24, 25, 26, 27, 28]",249.8402552,33963,117,3,75,9,1.0
undo,27,5,0,0,0,12,"[0, 23, 12]",3,20,"[2, 4, 5, 6, 8, 9, 10, 13, 14, 15, 16, 17, 18, 19, 21, 22, 24, 25, 26, 27]",206.6661889,36544,2581,12,56,8,1.3018394868431302
undo,27,5,0,0,0,25,"[0, 23, 12, 25]",4,18,"[2, 4, 5, 6, 8, 9, 10, 13, 14, 15, 17, 18, 19, 21, 22, 24, 26, 27]",178.8813009,37535,991,12,34,8,1.9286025844958365
undo,27,5,0,0,0,24,"[0, 23, 12, 25, 24]",5,14,"[4, 5, 6, 8, 9, 13, 14, 15, 17, 18, 19, 22, 26, 27]",154.0418162,39289,1754,9,16,8,2.0153742455218557
undo,27,5,0,0,0,17,"[0, 23, 12, 25, 24, 17]",6,7,"[4, 5, 6, 8, 15, 18, 19]",119.0561048,40599,1310,8,2,8,1.6946205255346762
undo,27,5,0,0,0,5,"[0, 23, 12, 25, 24, 17, 5]",7,4,"[4, 6, 15, 18]",76.00961835,41604,1005,4,0,8,1.498607098302
undo,27,5,0,0,1,18,"[0, 23, 12, 25, 24, 17, 5, 18]",8,0,[],8.942487801,44086,2482,1,0,8,1.4352967403400838
undo,27,5,0,1,1,18,"[0, 23, 12, 25, 24, 17, 5, 18]",8,0,[],8.942487801,45963,1877,1,0,8,1.4352967403400838
undo,28,1,0,0,0,0,[0],1,26,"[1, 2, 4, 5, 7, 8, 9, 10, 11, 12, 13, 14, 15, 16, 17, 18, 19, 20, 21, 22, 23, 24, 25, 26, 28, 29]",300,128,-1,6,74,7,0.0
undo,28,1,0,0,0,20,"[0, 20]",2,13,"[1, 4, 5, 8, 11, 13, 14, 15, 17, 18, 19, 28, 29]",129.961769,3849,3721,2,11,6,1.0
undo,28,1,0,0,0,5,"[0, 20, 5]",3,9,"[1, 4, 8, 11, 13, 17, 18, 19, 29]",108.4908585,4789,940,2,6,6,1.0224915251419384
undo,28,1,0,0,0,18,"[0, 20, 5, 18]",4,4,"[4, 13, 17, 29]",85.66543403,5649,860,2,3,6,1.064078468417926
undo,28,1,0,0,0,4,"[0, 20, 5, 18, 4]",5,2,"[13, 29]",46.71674984,6650,1001,2,0,6,1.0731955739217967
undo,28,1,0,0,1,13,"[0, 20, 5, 18, 4, 13]",6,0,[],2.332067799,8817,2167,1,0,6,1.0623276828380515
undo,28,1,1,0,0,4,"[0, 20, 5, 18, 4]",5,2,"[13, 29]",46.71674984,10429,1612,2,0,6,1.0731955739217967
undo,28,1,1,0,0,18,"[0, 20, 5, 18]",4,4,"[4, 13, 17, 29]",85.66543403,10579,150,2,3,6,1.064078468417926
undo,28,1,1,0,0,5,"[0, 20, 5]",3,9,"[1, 4, 8, 11, 13, 17, 18, 19, 29]",108.4908585,10712,133,2,6,6,1.0224915251419384
undo,28,1,1,0,0,20,"[0, 20]",2,13,"[1, 4, 5, 8, 11, 13, 14, 15, 17, 18, 19, 28, 29]",129.961769,10880,168,2,11,6,1.0
undo,28,1,1,0,0,0,[0],1,26,"[1, 2, 4, 5, 7, 8, 9, 10, 11, 12, 13, 14, 15, 16, 17, 18, 19, 20, 21, 22, 23, 24, 25, 26, 28, 29]",300,11029,149,6,74,7,0.0
undo,28,1,0,0,0,14,"[0, 14]",2,19,"[1, 4, 5, 8, 9, 13, 15, 17, 18, 19, 20, 21, 22, 23, 24, 25, 26, 28, 29]",200.1901808,16427,5398,5,42,7,1.0
undo,28,1,0,0,0,17,"[0, 14, 17]",3,15,"[1, 4, 5, 8, 9, 13, 15, 18, 19, 20, 22, 23, 25, 28, 29]",147.8356204,17485,1058,5,27,7,1.0028844724416826
undo,28,1,0,0,0,1,"[0, 14, 17, 1]",4,12,"[4, 5, 8, 9, 15, 18, 20, 22, 23, 25, 28, 29]",123.4840291,18337,852,5,15,7,1.0264985578353567
undo,28,1,0,0,0,28,"[0, 14, 17, 1, 28]",5,5,"[9, 15, 22, 23, 29]",88.59850198,19499,1162,5,3,7,1.0339861575999345
undo,28,1,0,0,0,23,"[0, 14, 17, 1, 28, 23]",6,2,"[15, 22]",51.70676849,20603,1104,2,0,7,1.0327458250705703
undo,28,1,0,0,1,15,"[0, 14, 17, 1, 28, 23, 15]",7,0,[],20.81987807,21781,1178,1,0,7,1.1948681641401226
undo,28,1,0,1,1,15,"[0, 14, 17, 1, 28, 23, 15]",7,0,[],20.81987807,23945,2164,1,0,7,1.1948681641401226
undo,29,45,0,0,0,0,[0],1,24,"[1, 2, 3, 4, 5, 6, 7, 9, 10, 11, 12, 14, 15, 16, 17, 19, 20, 21, 22, 23, 24, 25, 27, 29]",300,130,-1,6,248,10,0.0
undo,29,45,0,0,0,17,"[0, 17]",2,22,"[1, 2, 3, 4, 5, 6, 7, 9, 10, 11, 12, 14, 15, 16, 19, 20, 21, 22, 23, 24, 25, 29]",235.867325,1884,1754,1,34,10,1.0
undo,29,45,0,0,0,24,"[0, 17, 24]",3,20,"[1, 2, 3, 4, 5, 6, 7, 9, 10, 11, 12, 14, 15, 16, 19, 20, 21, 22, 23, 29]",193.8078433,2958,1074,1,33,10,1.0309432256229287
undo,29,45,0,0,0,7,"[0, 17, 24, 7]",4,18,"[1, 2, 3, 4, 5, 6, 9, 10, 12, 14, 15, 16, 19, 20, 21, 22, 23, 29]",159.3985423,4025,1067,1,32,10,1.059763151913087
undo,29,45,0,0,0,2,"[0, 17, 24, 7, 2]",5,12,"[3, 4, 6, 10, 12, 14, 16, 19, 20, 22, 23, 29]",121.3853866,5076,1051,1,23,10,1.0656581932115423
undo,29,45,0,0,0,3,"[0, 17, 24, 7, 2, 3]",6,8,"[6, 10, 12, 14, 16, 20, 22, 29]",96.06740884,6035,959,1,13,10,1.1368250049574795
undo,29,45,0,0,0,29,"[0, 17, 24, 7, 2, 3, 29]",7,5,"[6, 10, 12, 20, 22]",76.06740884,6996,961,1,5,10,1.390376182346372
undo,29,45,0,0,0,10,"[0, 17, 24, 7, 2, 3, 29, 10]",8,2,"[6, 12]",54.52674961,7937,941,1,1,10,1.6682270697663164
undo,29,45,0,0,0,6,"[0, 17, 24, 7, 2, 3, 29, 10, 6]",9,1,[12],28.27794012,8955,1018,1,0,10,1.5776211572942243
undo,29,45,0,0,1,12,"[0, 17, 24, 7, 2, 3, 29, 10, 6, 12]",10,0,[],8.15332832,10184,1229,1,0,10,1.536035114105263
undo,29,45,0,1,1,12,"[0, 17, 24, 7, 2, 3, 29, 10, 6, 12]",10,0,[],8.15332832,11981,1797,1,0,10,1.536035114105263
undo,30,36,0,0,0,0,[0],1,24,"[2, 4, 5, 6, 7, 8, 9, 10, 12, 13, 14, 15, 16, 17, 18, 19, 20, 22, 23, 25, 26, 27, 28, 29]",300,131,-1,2,200,10,0.0
undo,30,36,0,0,0,12,"[0, 12]",2,23,"[2, 4, 5, 6, 7, 8, 9, 10, 13, 14, 15, 16, 17, 18, 19, 20, 22, 23, 25, 26, 27, 28, 29]",277.7963967,2235,2104,90,804,9,1.0
undo,30,36,0,0,0,16,"[0, 12, 16]",3,10,"[2, 9, 10, 13, 17, 18, 19, 23, 25, 27]",171.6267212,4269,2034,4,38,9,1.202695220335868
undo,30,36,0,0,0,17,"[0, 12, 16, 17]",4,7,"[2, 9, 10, 13, 18, 19, 25]",143.3071167,5452,1183,4,23,9,1.6578705047868705
undo,30,36,0,0,0,9,"[0, 12, 16, 17, 9]",5,5,"[2, 13, 18, 19, 25]",117.0583072,6394,942,3,6,9,2.6488264465469484
undo,30,36,0,0,0,19,"[0, 12, 16, 17, 9, 19]",6,4,"[2, 13, 18, 25]",101.9255612,7313,919,3,3,9,2.5697960541572393
undo,30,36,0,0,0,13,"[0, 12, 16, 17, 9, 19, 13]",7,2,"[2, 25]",58.50897451,8645,1332,1,1,9,2.4621440589806656
undo,30,36,0,0,0,25,"[0, 12, 16, 17, 9, 19, 13, 25]",8,1,[2],37.91771423,9612,967,1,0,9,2.2891246998687684
undo,30,36,0,0,1,2,"[0, 12, 16, 17, 9, 19, 13, 25, 2]",9,0,[],12.91771423,11687,2075,1,0,9,2.5421443983069345
undo,30,36,0,1,1,2,"[0, 12, 16, 17, 9, 19, 13, 25, 2]",9,0,[],12.91771423,13365,1678,1,0,9,2.5421443983069345
undo,31,10,0,0,0,0,[0],1,29,"[1, 2, 3, 4, 5, 6, 7, 8, 9, 10, 11, 12, 13, 14, 15, 16, 17, 18, 19, 20, 21, 22, 23, 24, 25, 26, 27, 28, 29]",300,132,-1,1,100,9,0.0
undo,31,10,0,0,0,13,"[0, 13]",2,25,"[1, 2, 3, 4, 6, 7, 8, 9, 10, 11, 12, 14, 17, 18, 19, 20, 21, 22, 23, 24, 25, 26, 27, 28, 29]",249.4628849,2886,2754,1,79,9,1.0
undo,31,10,0,0,0,11,"[0, 13, 11]",3,20,"[1, 2, 3, 6, 7, 8, 9, 10, 12, 14, 18, 19, 20, 21, 22, 24, 26, 27, 28, 29]",206.4512586,3969,1083,1,54,9,1.0313137484914219
undo,31,10,0,0,0,19,"[0, 13, 11, 19]",4,11,"[2, 6, 8, 9, 10, 14, 18, 20, 24, 26, 27]",170.0919407,5113,1144,1,22,9,1.0879446220132545
undo,31,10,0,0,0,2,"[0, 13, 11, 19, 2]",5,4,"[14, 20, 26, 27]",126.1829439,6163,1050,1,4,9,1.06474052351343
undo,31,10,0,0,0,14,"[0, 13, 11, 19, 2, 14]",6,3,"[20, 26, 27]",114.0174188,7071,908,1,3,9,1.1628909195912238
undo,31,10,0,0,0,26,"[0, 13, 11, 19, 2, 14, 26]",7,2,"[20, 27]",79.34754716,8114,1043,1,1,9,1.6660727647633602
undo,31,10,0,0,0,20,"[0, 13, 11, 19, 2, 14, 26, 20]",8,1,[27],47.56704999,9157,1043,1,0,9,2.085581809637999
undo,31,10,0,0,1,27,"[0, 13, 11, 19, 2, 14, 26, 20, 27]",9,0,[],2.312215998,10677,1520,1,0,9,1.9116357409137932
undo,31,10,0,1,1,27,"[0, 13, 11, 19, 2, 14, 26, 20, 27]",9,0,[],2.312215998,12065,1388,1,0,9,1.9116357409137932
undo,32,38,0,0,0,0,[0],1,29,"[1, 2, 3, 4, 5, 6, 7, 8, 9, 10, 11, 12, 13, 14, 15, 16, 17, 18, 19, 20, 21, 22, 23, 24, 25, 26, 27, 28, 29]",300,130,-1,33,506,9,0.0
undo,32,38,0,0,0,19,"[0, 19]",2,23,"[3, 4, 5, 6, 7, 8, 9, 11, 13, 14, 15, 16, 17, 18, 20, 22, 23, 24, 25, 26, 27, 28, 29]",219.5015528,3183,3053,6,61,9,1.0
undo,32,38,0,0,0,17,"[0, 19, 17]",3,21,"[3, 4, 5, 6, 7, 9, 11, 13, 14, 15, 16, 18, 20, 22, 23, 24, 25, 26, 27, 28, 29]",198.1239945,4060,877,6,53,9,1.571793785769489
undo,32,38,0,0,0,20,"[0, 19, 17, 20]",4,17,"[3, 4, 5, 6, 7, 11, 13, 14, 15, 16, 18, 22, 24, 25, 26, 27, 28]",174.3542658,4928,868,6,44,9,2.333182710277297
undo,32,38,0,0,0,4,"[0, 19, 17, 20, 4]",5,10,"[5, 11, 13, 14, 15, 16, 24, 26, 27, 28]",140.4131403,5898,970,5,22,9,2.276099229646013
undo,32,38,0,0,0,15,"[0, 19, 17, 20, 4, 15]",6,8,"[5, 11, 13, 14, 16, 24, 26, 28]",114.4131403,6855,957,5,6,9,2.5292671156176403
undo,32,38,0,0,0,11,"[0, 19, 17, 20, 4, 15, 11]",7,2,"[16, 28]",78.01259089,7856,1001,2,0,9,2.778100109749787
undo,32,38,0,0,0,28,"[0, 19, 17, 20, 4, 15, 11, 28]",8,1,[16],50.99407872,8900,1044,1,0,9,2.3316428595723258
undo,32,38,0,0,1,16,"[0, 19, 17, 20, 4, 15, 11, 28, 16]",9,0,[],21.99407872,11166,2266,1,0,9,2.5408012360364265
undo,32,38,0,1,1,16,"[0, 19, 17, 20, 4, 15, 11, 28, 16]",9,0,[],21.99407872,12796,1630,1,0,9,2.5408012360364265
undo,33,22,0,0,0,0,[0],1,29,"[1, 2, 3, 4, 5, 6, 7, 8, 9, 10, 11, 12, 13, 14, 15, 16, 17, 18, 19, 20, 21, 22, 23, 24, 25, 26, 27, 28, 29]",300,131,-1,31,704,9,0.0
undo,33,22,0,0,0,16,"[0, 16]",2,21,"[1, 3, 6, 7, 8, 9, 11, 13, 14, 15, 17, 18, 19, 20, 21, 22, 24, 25, 27, 28, 29]",218.605897,2650,2519,17,147,9,1.0
undo,33,22,0,0,0,28,"[0, 16, 28]",3,13,"[6, 7, 9, 13, 14, 17, 19, 20, 21, 22, 24, 25, 29]",184.1675463,3834,1184,12,61,9,1.047282311284478
undo,33,22,0,0,0,6,"[0, 16, 28, 6]",4,12,"[7, 9, 13, 14, 17, 19, 20, 21, 22, 24, 25, 29]",154.1675463,4800,966,12,43,9,1.645645870580622
undo,33,22,0,0,0,9,"[0, 16, 28, 6, 9]",5,8,"[7, 14, 17, 19, 20, 21, 24, 29]",127.5404924,5826,1026,8,17,9,1.925750226630103
undo,33,22,0,0,0,19,"[0, 16, 28, 6, 9, 19]",6,6,"[7, 14, 17, 21, 24, 29]",107.1444143,7117,1291,3,7,9,2.4220750331476455
undo,33,22,0,0,0,29,"[0, 16, 28, 6, 9, 19, 29]",7,4,"[7, 14, 17, 24]",92.11111796,8134,1017,2,2,9,2.6996279574991067
undo,33,22,0,0,0,14,"[0, 16, 28, 6, 9, 19, 29, 14]",8,1,[7],33.86165444,9830,1696,1,0,9,2.0544639927929462
undo,33,22,0,0,1,7,"[0, 16, 28, 6, 9, 19, 29, 14, 7]",9,0,[],20.82324963,10754,924,1,0,9,2.219817088951114
undo,33,22,0,1,1,7,"[0, 16, 28, 6, 9, 19, 29, 14, 7]",9,0,[],20.82324963,12497,1743,1,0,9,2.219817088951114
undo,34,37,0,0,0,0,[0],1,29,"[1, 2, 3, 4, 5, 6, 7, 8, 9, 10, 11, 12, 13, 14, 15, 16, 17, 18, 19, 20, 21, 22, 23, 24, 25, 26, 27, 28, 29]",300,130,-1,6,168,10,0.0
undo,34,37,0,0,0,18,"[0, 18]",2,19,"[1, 2, 4, 6, 7, 9, 10, 12, 14, 15, 17, 19, 20, 21, 22, 23, 26, 28, 29]",202.4090168,2382,2252,6,89,10,1.0
undo,34,37,0,0,0,7,"[0, 18, 7]",3,12,"[1, 2, 4, 9, 15, 17, 19, 20, 21, 22, 26, 29]",175.2428614,3241,859,6,53,10,1.0413073512834488
undo,34,37,0,0,0,22,"[0, 18, 7, 22]",4,8,"[1, 2, 4, 15, 19, 20, 21, 26]",125.2428614,4299,1058,6,29,10,1.0730792320325544
undo,34,37,0,0,0,4,"[0, 18, 7, 22, 4]",5,7,"[1, 2, 15, 19, 20, 21, 26]",100.2428614,5275,976,4,16,10,1.2290245562206235
undo,34,37,0,0,0,2,"[0, 18, 7, 22, 4, 2]",6,5,"[1, 15, 19, 20, 21]",88.84110714,6193,918,4,7,10,1.3968113858365216
undo,34,37,0,0,0,1,"[0, 18, 7, 22, 4, 2, 1]",7,4,"[15, 19, 20, 21]",71.63645661,7161,968,4,3,10,1.4424239294761476
undo,34,37,0,0,0,20,"[0, 18, 7, 22, 4, 2, 1, 20]",8,3,"[15, 19, 21]",37.40197107,8634,1473,2,1,10,1.7518607796010042
undo,34,37,0,0,0,21,"[0, 18, 7, 22, 4, 2, 1, 20, 21]",9,1,[15],22.97976597,9611,977,1,0,10,1.7849997782949483
undo,34,37,0,0,1,15,"[0, 18, 7, 22, 4, 2, 1, 20, 21, 15]",10,0,[],7.979765971,11860,2249,1,0,10,1.7549597142828803
undo,34,37,0,1,1,15,"[0, 18, 7, 22, 4, 2, 1, 20, 21, 15]",10,0,[],7.979765971,13480,1620,1,0,10,1.7549597142828803
undo,35,27,0,0,0,0,[0],1,26,"[1, 3, 5, 6, 7, 8, 9, 10, 11, 12, 13, 14, 15, 16, 17, 18, 19, 21, 22, 23, 24, 25, 26, 27, 28, 29]",300,131,-1,13,578,11,0.0
undo,35,27,0,0,0,15,"[0, 15]",2,24,"[1, 3, 5, 6, 7, 8, 9, 10, 11, 12, 13, 14, 16, 17, 18, 19, 21, 22, 23, 24, 25, 26, 27, 29]",263.7508621,2753,2622,6,219,11,1.0
undo,35,27,0,0,0,24,"[0, 15, 24]",3,20,"[1, 5, 6, 7, 8, 9, 10, 12, 13, 14, 16, 17, 18, 19, 21, 23, 25, 26, 27, 29]",246.5462115,3655,902,6,130,11,1.130933077698322
undo,35,27,0,0,0,17,"[0, 15, 24, 17]",4,15,"[1, 6, 8, 10, 12, 13, 14, 16, 18, 19, 23, 25, 26, 27, 29]",229.9932662,4534,879,4,60,11,1.1285538435963374
undo,35,27,0,0,0,12,"[0, 15, 24, 17, 12]",5,14,"[1, 6, 8, 10, 13, 14, 16, 18, 19, 23, 25, 26, 27, 29]",218.8129263,5286,752,2,32,11,1.2561880288755216
undo,35,27,0,0,0,10,"[0, 15, 24, 17, 12, 10]",6,11,"[1, 8, 13, 14, 18, 19, 23, 25, 26, 27, 29]",207.7675653,6144,858,2,28,11,1.2228289337766665
undo,35,27,0,0,0,13,"[0, 15, 24, 17, 12, 10, 13]",7,9,"[1, 8, 14, 18, 19, 23, 26, 27, 29]",167.9178476,7119,975,2,18,11,1.3421291994761178
undo,35,27,0,0,0,19,"[0, 15, 24, 17, 12, 10, 13, 19]",8,5,"[1, 8, 14, 23, 29]",131.6825057,8129,1010,2,6,11,1.294749956153846
undo,35,27,0,0,0,8,"[0, 15, 24, 17, 12, 10, 13, 19, 8]",9,3,"[14, 23, 29]",116.816437,8955,826,2,1,11,1.3554286578836865
undo,35,27,0,0,0,29,"[0, 15, 24, 17, 12, 10, 13, 19, 8, 29]",10,1,[14],57.61339652,10151,1196,1,0,11,1.248354519573802
undo,35,27,0,0,1,14,"[0, 15, 24, 17, 12, 10, 13, 19, 8, 29, 14]",11,0,[],13.31892734,11271,1120,1,0,11,1.562811097555156
undo,35,27,0,1,1,14,"[0, 15, 24, 17, 12, 10, 13, 19, 8, 29, 14]",11,0,[],13.31892734,12947,1676,1,0,11,1.562811097555156
undo,36,33,0,0,0,0,[0],1,23,"[1, 2, 5, 7, 8, 11, 12, 13, 14, 15, 16, 17, 18, 19, 20, 21, 23, 24, 25, 26, 27, 28, 29]",300,131,-1,5,108,9,0.0
undo,36,33,0,0,0,8,"[0, 8]",2,22,"[1, 2, 5, 7, 11, 12, 13, 14, 15, 16, 17, 18, 19, 20, 21, 23, 24, 25, 26, 27, 28, 29]",265.8679037,2374,2243,5,87,9,1.0
undo,36,33,0,0,0,21,"[0, 8, 21]",3,16,"[2, 5, 7, 11, 13, 14, 16, 17, 18, 19, 20, 24, 26, 27, 28, 29]",166.0430571,3784,1410,5,80,9,1.0670557763739492
undo,36,33,0,0,0,13,"[0, 8, 21, 13]",4,12,"[2, 7, 11, 14, 16, 17, 18, 19, 20, 24, 26, 29]",139.6422995,4608,824,4,54,9,1.0555103820910288
undo,36,33,0,0,0,19,"[0, 8, 21, 13, 19]",5,10,"[7, 11, 14, 16, 17, 18, 20, 24, 26, 29]",114.1472019,7033,2425,3,19,9,1.1090798607799486
undo,36,33,0,0,0,24,"[0, 8, 21, 13, 19, 24]",6,6,"[7, 14, 16, 18, 26, 29]",72.09960985,8073,1040,2,3,9,1.1193530461391534
undo,36,33,0,0,0,7,"[0, 8, 21, 13, 19, 24, 7]",7,2,"[14, 26]",42.89344611,9206,1133,2,0,9,1.2065014071663551
undo,36,33,0,0,0,14,"[0, 8, 21, 13, 19, 24, 7, 14]",8,1,[26],28.02737737,10124,918,1,0,9,1.2536495746979057
undo,36,33,0,0,1,26,"[0, 8, 21, 13, 19, 24, 7, 14, 26]",9,0,[],15.37826672,10960,836,1,0,9,1.2580465331304596
undo,36,33,0,1,1,26,"[0, 8, 21, 13, 19, 24, 7, 14, 26]",9,0,[],15.37826672,13447,2487,1,0,9,1.2580465331304596
undo,37,34,0,0,0,0,[0],1,25,"[1, 3, 4, 5, 6, 7, 8, 9, 10, 11, 12, 13, 15, 18, 19, 20, 21, 22, 23, 24, 25, 26, 27, 28, 29]",300,132,-1,12,367,10,0.0
undo,37,34,0,0,0,13,"[0, 13]",2,24,"[1, 3, 4, 5, 6, 7, 8, 9, 10, 11, 12, 15, 18, 19, 20, 21, 22, 23, 24, 25, 26, 27, 28, 29]",279.9750156,2589,2457,12,331,10,1.0
undo,37,34,0,0,0,1,"[0, 13, 1]",3,16,"[3, 5, 7, 8, 9, 10, 11, 12, 19, 21, 22, 23, 24, 25, 27, 29]",211.8574701,4385,1796,3,92,10,1.0010381285747127
undo,37,34,0,0,0,8,"[0, 13, 1, 8]",4,14,"[3, 5, 7, 9, 10, 11, 12, 19, 22, 23, 24, 25, 27, 29]",201.0871405,5230,845,2,54,10,1.1636807
undo,37,34,0,0,0,25,"[0, 13, 1, 8, 25]",5,12,"[3, 5, 7, 9, 10, 11, 12, 22, 23, 24, 27, 29]",183.999133,6164,934,2,28,10,1.1396208815936457
undo,37,34,0,0,0,24,"[0, 13, 1, 8, 25, 24]",6,11,"[3, 5, 7, 9, 10, 11, 12, 22, 23, 27, 29]",166.5062774,7068,904,2,23,10,1.374180768736554
undo,37,34,0,0,0,12,"[0, 13, 1, 8, 25, 24, 12]",7,7,"[7, 9, 10, 11, 22, 23, 27]",115.4670767,8239,1171,1,8,10,1.4994254760835948
undo,37,34,0,0,0,7,"[0, 13, 1, 8, 25, 24, 12, 7]",8,5,"[9, 11, 22, 23, 27]",100.4337804,9153,914,1,4,10,1.758992610425009
undo,37,34,0,0,0,23,"[0, 13, 1, 8, 25, 24, 12, 7, 23]",9,1,[27],72.27352467,10076,923,1,0,10,2.399781305190153
undo,37,34,0,0,1,27,"[0, 13, 1, 8, 25, 24, 12, 7, 23, 27]",10,0,[],18.60789321,11242,1166,1,0,10,4.766619878750327
undo,37,34,0,1,1,27,"[0, 13, 1, 8, 25, 24, 12, 7, 23, 27]",10,0,[],18.60789321,12765,1523,1,0,10,4.766619878750327
undo,38,2,0,0,0,0,[0],1,23,"[1, 2, 4, 5, 6, 7, 8, 9, 12, 13, 15, 16, 17, 18, 19, 20, 22, 23, 25, 26, 27, 28, 29]",300,133,-1,70,620,10,0.0
undo,38,2,0,0,0,12,"[0, 12]",2,19,"[1, 2, 4, 5, 6, 7, 13, 15, 16, 17, 18, 19, 20, 22, 25, 26, 27, 28, 29]",186.8275652,3912,3779,3,169,10,1.0
undo,38,2,0,0,0,13,"[0, 12, 13]",3,14,"[1, 4, 5, 6, 7, 15, 16, 18, 19, 22, 25, 26, 28, 29]",151.9994157,4986,1074,1,47,10,1.0005293821372603
undo,38,2,0,0,0,5,"[0, 12, 13, 5]",4,10,"[1, 6, 7, 15, 18, 19, 22, 25, 26, 29]",138.3979452,5838,852,1,29,10,1.141786024287693
undo,38,2,0,0,0,22,"[0, 12, 13, 5, 22]",5,8,"[1, 6, 7, 15, 18, 19, 26, 29]",125.5916967,6865,1027,1,28,10,1.1302362185812056
undo,38,2,0,0,0,18,"[0, 12, 13, 5, 22, 18]",6,4,"[7, 15, 26, 29]",86.27249017,7873,1008,1,11,10,1.1886597949795505
undo,38,2,0,0,0,7,"[0, 12, 13, 5, 22, 18, 7]",7,3,"[15, 26, 29]",75.97686003,8757,884,1,4,10,1.179069157736842
undo,38,2,0,0,0,26,"[0, 12, 13, 5, 22, 18, 7, 26]",8,2,"[15, 29]",53.17335153,9752,995,1,1,10,1.1677635225581995
undo,38,2,0,0,0,15,"[0, 12, 13, 5, 22, 18, 7, 26, 15]",9,1,[29],28.96591466,10785,1033,1,0,10,1.438864393472058
undo,38,2,0,0,1,29,"[0, 12, 13, 5, 22, 18, 7, 26, 15, 29]",10,0,[],0.505415715,13087,2302,1,0,10,1.6314509572755778
undo,38,2,0,1,1,29,"[0, 12, 13, 5, 22, 18, 7, 26, 15, 29]",10,0,[],0.505415715,14599,1512,1,0,10,1.6314509572755778
undo,39,24,0,0,0,0,[0],1,29,"[1, 2, 3, 4, 5, 6, 7, 8, 9, 10, 11, 12, 13, 14, 15, 16, 17, 18, 19, 20, 21, 22, 23, 24, 25, 26, 27, 28, 29]",300,132,-1,4,76,10,0.0
undo,39,24,0,0,0,16,"[0, 16]",2,28,"[1, 2, 3, 4, 5, 6, 7, 8, 9, 10, 11, 12, 13, 14, 15, 17, 18, 19, 20, 21, 22, 23, 24, 25, 26, 27, 28, 29]",210.3562607,3040,2908,13,110,9,1.0
undo,39,24,0,0,0,22,"[0, 16, 22]",3,27,"[1, 2, 3, 4, 5, 6, 7, 8, 9, 10, 11, 12, 13, 14, 15, 17, 18, 19, 20, 21, 23, 24, 25, 26, 27, 28, 29]",192.3285043,3819,779,7,54,9,1.0217425143037777
undo,39,24,1,0,0,16,"[0, 16]",2,28,"[1, 2, 3, 4, 5, 6, 7, 8, 9, 10, 11, 12, 13, 14, 15, 17, 18, 19, 20, 21, 22, 23, 24, 25, 26, 27, 28, 29]",210.3562607,5783,1964,13,110,9,1.0
undo,39,24,0,0,0,8,"[0, 16, 8]",3,22,"[1, 2, 3, 4, 6, 9, 10, 11, 13, 14, 15, 17, 20, 21, 22, 23, 24, 25, 26, 27, 28, 29]",181.3562607,6946,1163,3,31,9,1.0774669368510212
undo,39,24,0,0,0,22,"[0, 16, 8, 22]",4,18,"[2, 3, 4, 6, 9, 10, 11, 13, 14, 15, 17, 23, 24, 25, 26, 27, 28, 29]",167.9398528,7822,876,3,23,9,1.2531772310046492
undo,39,24,0,0,0,15,"[0, 16, 8, 22, 15]",5,16,"[3, 4, 6, 9, 10, 11, 13, 14, 17, 23, 24, 25, 26, 27, 28, 29]",146.7266494,8651,829,3,16,9,1.2813329946092564
undo,39,24,0,0,0,28,"[0, 16, 8, 22, 15, 28]",6,8,"[3, 4, 9, 11, 13, 23, 26, 27]",101.4497237,9906,1255,3,5,9,1.2060847818642253
undo,39,24,0,0,0,23,"[0, 16, 8, 22, 15, 28, 23]",7,3,"[9, 11, 27]",82.42342609,10902,996,3,1,9,1.2349355190066822
undo,39,24,0,0,0,11,"[0, 16, 8, 22, 15, 28, 23, 11]",8,2,"[9, 27]",55.49760206,11793,891,2,0,9,1.2172586817191506
undo,39,24,0,0,1,27,"[0, 16, 8, 22, 15, 28, 23, 11, 27]",9,0,[],27.69472451,12745,952,1,0,9,1.192247579330137
undo,39,24,0,1,1,27,"[0, 16, 8, 22, 15, 28, 23, 11, 27]",9,0,[],27.69472451,14882,2137,1,0,9,1.192247579330137
undo,40,42,0,0,0,0,[0],1,29,"[1, 2, 3, 4, 5, 6, 7, 8, 9, 10, 11, 12, 13, 14, 15, 16, 17, 18, 19, 20, 21, 22, 23, 24, 25, 26, 27, 28, 29]",300,130,-1,16,302,9,0.0
undo,40,42,0,0,0,22,"[0, 22]",2,27,"[1, 2, 3, 4, 5, 6, 7, 8, 9, 10, 11, 12, 13, 15, 16, 17, 18, 19, 20, 21, 23, 24, 25, 26, 27, 28, 29]",211.3997743,2500,2370,5,83,9,1.0
undo,40,42,0,0,0,4,"[0, 22, 4]",3,26,"[1, 2, 3, 5, 6, 7, 8, 9, 10, 11, 12, 13, 15, 16, 17, 18, 19, 20, 21, 23, 24, 25, 26, 27, 28, 29]",200.2194344,3485,985,4,51,9,1.1029012260448476
undo,40,42,0,0,0,5,"[0, 22, 4, 5]",4,24,"[1, 2, 3, 6, 7, 8, 9, 10, 11, 12, 13, 15, 17, 18, 19, 20, 21, 23, 24, 25, 26, 27, 28, 29]",180.3700011,4511,1026,3,22,9,1.1004909640339868
undo,40,42,0,0,0,8,"[0, 22, 4, 5, 8]",5,16,"[1, 2, 3, 6, 7, 11, 15, 18, 19, 23, 24, 25, 26, 27, 28, 29]",145.8881218,5486,975,3,12,9,1.4333663223483832
undo,40,42,0,0,0,1,"[0, 22, 4, 5, 8, 1]",6,6,"[2, 7, 18, 19, 26, 27]",96.796371,7366,1880,3,7,9,1.3048950637395882
undo,40,42,0,0,0,7,"[0, 22, 4, 5, 8, 1, 7]",7,4,"[2, 19, 26, 27]",66.796371,8324,958,3,2,9,1.3461774355793397
undo,40,42,0,0,0,26,"[0, 22, 4, 5, 8, 1, 7, 26]",8,2,"[19, 27]",40.22571049,9368,1044,2,0,9,1.3119913611616163
undo,40,42,0,0,1,27,"[0, 22, 4, 5, 8, 1, 7, 26, 27]",9,0,[],22.19795412,10367,999,1,0,9,1.3027999653776734
undo,40,42,0,1,1,27,"[0, 22, 4, 5, 8, 1, 7, 26, 27]",9,0,[],22.19795412,11848,1481,1,0,9,1.3027999653776734
undo,41,39,0,0,0,0,[0],1,28,"[1, 2, 3, 4, 5, 6, 7, 9, 10, 11, 12, 13, 14, 15, 16, 17, 18, 19, 20, 21, 22, 23, 24, 25, 26, 27, 28, 29]",300,131,-1,1,30,10,0.0
undo,41,39,0,0,0,29,"[0, 29]",2,26,"[1, 2, 3, 4, 5, 6, 7, 9, 10, 12, 13, 14, 15, 16, 17, 18, 19, 20, 21, 22, 23, 24, 25, 26, 27, 28]",243.0614366,4862,4731,8,104,9,1.0
undo,41,39,0,0,0,12,"[0, 29, 12]",3,18,"[1, 2, 4, 5, 7, 9, 10, 13, 14, 15, 16, 18, 19, 22, 23, 24, 26, 28]",182.5221931,6011,1149,5,54,9,1.0026200331524904
undo,41,39,0,0,0,10,"[0, 29, 12, 10]",4,16,"[1, 2, 4, 5, 7, 9, 13, 14, 15, 16, 18, 19, 22, 23, 24, 26]",147.0116313,6938,927,5,34,9,1.2874817019928908
undo,41,39,0,0,0,7,"[0, 29, 12, 10, 7]",5,10,"[1, 2, 5, 13, 16, 18, 19, 22, 24, 26]",113.5900814,7937,999,4,12,9,1.2250826263866774
undo,41,39,0,0,0,26,"[0, 29, 12, 10, 7, 26]",6,5,"[1, 16, 18, 19, 22]",94.90853971,8851,914,3,4,9,1.2697275353190085
undo,41,39,0,0,0,22,"[0, 29, 12, 10, 7, 26, 22]",7,2,"[16, 19]",77.18849457,9741,890,2,0,9,1.438961743955176
undo,41,39,0,0,0,16,"[0, 29, 12, 10, 7, 26, 22, 16]",8,1,[19],42.18849457,10850,1109,1,0,9,1.3580882130477205
undo,41,39,0,0,1,19,"[0, 29, 12, 10, 7, 26, 22, 16, 19]",9,0,[],24.72424537,11933,1083,1,0,9,1.3646589157842668
undo,41,39,0,1,1,19,"[0, 29, 12, 10, 7, 26, 22, 16, 19]",9,0,[],24.72424537,13497,1564,1,0,9,1.3646589157842668
undo,42,26,0,0,0,0,[0],1,29,"[1, 2, 3, 4, 5, 6, 7, 8, 9, 10, 11, 12, 13, 14, 15, 16, 17, 18, 19, 20, 21, 22, 23, 24, 25, 26, 27, 28, 29]",300,130,-1,9,226,9,0.0
undo,42,26,0,0,0,21,"[0, 21]",2,25,"[2, 3, 4, 5, 6, 7, 8, 10, 11, 12, 13, 14, 15, 16, 17, 18, 19, 22, 23, 24, 25, 26, 27, 28, 29]",211.1349337,2149,2019,7,90,9,1.0
undo,42,26,0,0,0,13,"[0, 21, 13]",3,21,"[3, 4, 5, 6, 7, 8, 10, 11, 12, 14, 15, 16, 17, 18, 19, 22, 23, 24, 25, 26, 29]",188.9989901,2966,817,6,45,9,1.0103952279992225
undo,42,26,0,0,0,5,"[0, 21, 13, 5]",4,12,"[3, 4, 11, 14, 16, 17, 18, 22, 23, 25, 26, 29]",150.7106107,3942,976,2,10,8,1.0086890649024711
undo,42,26,0,0,0,23,"[0, 21, 13, 5, 23]",5,8,"[3, 4, 11, 14, 16, 17, 22, 29]",118.0150452,4984,1042,2,7,8,1.3518621918690494
undo,42,26,0,0,0,16,"[0, 21, 13, 5, 23, 16]",6,4,"[4, 14, 17, 29]",64.77971862,6001,1017,2,3,8,2.1011863559657242
undo,42,26,0,0,0,29,"[0, 21, 13, 5, 23, 16, 29]",7,2,"[4, 17]",40.57228175,6969,968,2,0,8,2.123178325538451
undo,42,26,0,0,1,4,"[0, 21, 13, 5, 23, 16, 29, 4]",8,0,[],16.57228175,7899,930,1,0,8,2.338467952972574
undo,42,26,1,0,0,29,"[0, 21, 13, 5, 23, 16, 29]",7,2,"[4, 17]",40.57228175,11563,3664,2,0,8,2.123178325538451
undo,42,26,1,0,0,16,"[0, 21, 13, 5, 23, 16]",6,4,"[4, 14, 17, 29]",64.77971862,11712,149,2,3,8,2.1011863559657242
undo,42,26,1,0,0,23,"[0, 21, 13, 5, 23]",5,8,"[3, 4, 11, 14, 16, 17, 22, 29]",118.0150452,11897,185,2,7,8,1.3518621918690494
undo,42,26,1,0,0,5,"[0, 21, 13, 5]",4,12,"[3, 4, 11, 14, 16, 17, 18, 22, 23, 25, 26, 29]",150.7106107,12030,133,2,10,8,1.0086890649024711
undo,42,26,1,0,0,13,"[0, 21, 13]",3,21,"[3, 4, 5, 6, 7, 8, 10, 11, 12, 14, 15, 16, 17, 18, 19, 22, 23, 24, 25, 26, 29]",188.9989901,12180,150,6,45,9,1.0103952279992225
undo,42,26,1,0,0,21,"[0, 21]",2,25,"[2, 3, 4, 5, 6, 7, 8, 10, 11, 12, 13, 14, 15, 16, 17, 18, 19, 22, 23, 24, 25, 26, 27, 28, 29]",211.1349337,12313,133,7,90,9,1.0
undo,42,26,1,0,0,0,[0],1,29,"[1, 2, 3, 4, 5, 6, 7, 8, 9, 10, 11, 12, 13, 14, 15, 16, 17, 18, 19, 20, 21, 22, 23, 24, 25, 26, 27, 28, 29]",300,12663,350,9,226,9,0.0
undo,42,26,0,0,0,10,"[0, 10]",2,6,"[4, 6, 14, 16, 17, 29]",138.1822012,15445,2782,9,66,7,1.0
undo,42,26,0,0,0,6,"[0, 10, 6]",3,5,"[4, 14, 16, 17, 29]",108.9076389,16396,951,8,23,7,1.1897813099332413
undo,42,26,0,0,0,14,"[0, 10, 6, 14]",4,4,"[4, 16, 17, 29]",87.88384285,18290,1894,4,6,7,1.3162481558218453
undo,42,26,0,0,0,17,"[0, 10, 6, 14, 17]",5,3,"[4, 16, 29]",65.41163779,19332,1042,3,1,7,1.6510075497064465
undo,42,26,0,0,0,4,"[0, 10, 6, 14, 17, 4]",6,1,[29],44.31661468,20209,877,1,0,7,2.1095586782058087
undo,42,26,0,0,1,29,"[0, 10, 6, 14, 17, 4, 29]",7,0,[],20.31661468,21169,960,1,0,7,2.288952413143475
undo,42,26,1,0,0,4,"[0, 10, 6, 14, 17, 4]",6,1,[29],44.31661468,24046,2877,1,0,7,2.1095586782058087
undo,42,26,1,0,0,17,"[0, 10, 6, 14, 17]",5,3,"[4, 16, 29]",65.41163779,24214,168,3,1,7,1.6510075497064465
undo,42,26,1,0,0,14,"[0, 10, 6, 14]",4,4,"[4, 16, 17, 29]",87.88384285,24380,166,4,6,7,1.3162481558218453
undo,42,26,1,0,0,6,"[0, 10, 6]",3,5,"[4, 14, 16, 17, 29]",108.9076389,24530,150,8,23,7,1.1897813099332413
undo,42,26,1,0,0,10,"[0, 10]",2,6,"[4, 6, 14, 16, 17, 29]",138.1822012,24680,150,9,66,7,1.0
undo,42,26,1,0,0,0,[0],1,29,"[1, 2, 3, 4, 5, 6, 7, 8, 9, 10, 11, 12, 13, 14, 15, 16, 17, 18, 19, 20, 21, 22, 23, 24, 25, 26, 27, 28, 29]",300,24829,149,9,226,9,0.0
undo,42,26,0,0,0,23,"[0, 23]",2,17,"[3, 4, 5, 6, 10, 11, 12, 13, 14, 16, 17, 18, 21, 22, 25, 26, 29]",165.382022,29460,4631,1,15,8,1.0
undo,42,26,0,0,0,16,"[0, 23, 16]",3,9,"[4, 5, 6, 10, 13, 14, 17, 21, 29]",112.1466954,31023,1563,1,13,8,1.678064485905995
undo,42,26,0,0,0,29,"[0, 23, 16, 29]",4,6,"[4, 6, 10, 14, 17, 21]",87.93925851,31877,854,1,11,8,1.7355229929413318
undo,42,26,0,0,0,4,"[0, 23, 16, 29, 4]",5,4,"[6, 10, 14, 17]",63.93925851,33182,1305,1,5,8,1.9476587623035286
undo,42,26,0,0,0,17,"[0, 23, 16, 29, 4, 17]",6,3,"[6, 10, 14]",42.8442354,34001,819,1,2,8,1.8098344896797074
undo,42,26,0,0,1,14,"[0, 23, 16, 29, 4, 17, 14]",7,0,[],20.37203035,34853,852,1,0,7,1.7351804045164856
undo,42,26,1,0,0,17,"[0, 23, 16, 29, 4, 17]",6,3,"[6, 10, 14]",42.8442354,38214,3361,1,2,8,1.8098344896797074
undo,42,26,1,0,0,4,"[0, 23, 16, 29, 4]",5,4,"[6, 10, 14, 17]",63.93925851,38380,166,1,5,8,1.9476587623035286
undo,42,26,1,0,0,29,"[0, 23, 16, 29]",4,6,"[4, 6, 10, 14, 17, 21]",87.93925851,38529,149,1,11,8,1.7355229929413318
undo,42,26,1,0,0,16,"[0, 23, 16]",3,9,"[4, 5, 6, 10, 13, 14, 17, 21, 29]",112.1466954,38680,151,1,13,8,1.678064485905995
undo,42,26,1,0,0,23,"[0, 23]",2,17,"[3, 4, 5, 6, 10, 11, 12, 13, 14, 16, 17, 18, 21, 22, 25, 26, 29]",165.382022,38830,150,1,15,8,1.0
undo,42,26,1,0,0,0,[0],1,29,"[1, 2, 3, 4, 5, 6, 7, 8, 9, 10, 11, 12, 13, 14, 15, 16, 17, 18, 19, 20, 21, 22, 23, 24, 25, 26, 27, 28, 29]",300,38947,117,9,226,9,0.0
undo,42,26,0,0,0,11,"[0, 11]",2,14,"[3, 5, 7, 8, 13, 15, 16, 18, 20, 21, 23, 24, 25, 27]",149.5274111,42029,3082,11,17,5,1.0
undo,42,26,0,0,0,18,"[0, 11, 18]",3,6,"[8, 13, 15, 24, 25, 27]",102.954887,43095,1066,2,4,5,1.4167111148357254
undo,42,26,0,0,0,25,"[0, 11, 18, 25]",4,1,[8],62.75538456,44889,1794,1,0,5,1.323902263566883
undo,42,26,0,0,1,8,"[0, 11, 18, 25, 8]",5,0,[],30.19774337,45983,1094,1,0,5,1.4009512266182442
undo,42,26,1,0,0,25,"[0, 11, 18, 25]",4,1,[8],62.75538456,47563,1580,1,0,5,1.323902263566883
undo,42,26,1,0,0,18,"[0, 11, 18]",3,6,"[8, 13, 15, 24, 25, 27]",102.954887,47746,183,2,4,5,1.4167111148357254
undo,42,26,1,0,0,11,"[0, 11]",2,14,"[3, 5, 7, 8, 13, 15, 16, 18, 20, 21, 23, 24, 25, 27]",149.5274111,47896,150,11,17,5,1.0
undo,42,26,1,0,0,0,[0],1,29,"[1, 2, 3, 4, 5, 6, 7, 8, 9, 10, 11, 12, 13, 14, 15, 16, 17, 18, 19, 20, 21, 22, 23, 24, 25, 26, 27, 28, 29]",300,48063,167,9,226,9,0.0
undo,42,26,0,0,0,21,"[0, 21]",2,25,"[2, 3, 4, 5, 6, 7, 8, 10, 11, 12, 13, 14, 15, 16, 17, 18, 19, 22, 23, 24, 25, 26, 27, 28, 29]",211.1349337,52578,4515,7,90,9,1.0
undo,42,26,0,0,0,13,"[0, 21, 13]",3,21,"[3, 4, 5, 6, 7, 8, 10, 11, 12, 14, 15, 16, 17, 18, 19, 22, 23, 24, 25, 26, 29]",188.9989901,53383,805,6,45,9,1.0103952279992225
undo,42,26,0,0,0,5,"[0, 21, 13, 5]",4,12,"[3, 4, 11, 14, 16, 17, 18, 22, 23, 25, 26, 29]",150.7106107,54811,1428,2,10,8,1.0086890649024711
undo,42,26,0,0,0,23,"[0, 21, 13, 5, 23]",5,8,"[3, 4, 11, 14, 16, 17, 22, 29]",118.0150452,55729,918,2,7,8,1.3518621918690494
undo,42,26,0,0,0,16,"[0, 21, 13, 5, 23, 16]",6,4,"[4, 14, 17, 29]",64.77971862,56704,975,2,3,8,2.1011863559657242
undo,42,26,0,0,0,29,"[0, 21, 13, 5, 23, 16, 29]",7,2,"[4, 17]",40.57228175,57557,853,2,0,8,2.123178325538451
undo,42,26,0,0,1,4,"[0, 21, 13, 5, 23, 16, 29, 4]",8,0,[],16.57228175,58483,926,1,0,8,2.338467952972574
undo,42,26,0,1,1,4,"[0, 21, 13, 5, 23, 16, 29, 4]",8,0,[],16.57228175,61263,2780,1,0,8,2.338467952972574
undo,43,35,0,0,0,0,[0],1,29,"[1, 2, 3, 4, 5, 6, 7, 8, 9, 10, 11, 12, 13, 14, 15, 16, 17, 18, 19, 20, 21, 22, 23, 24, 25, 26, 27, 28, 29]",300,128,-1,5,236,11,0.0
undo,43,35,0,0,0,27,"[0, 27]",2,27,"[1, 2, 4, 5, 6, 7, 8, 9, 10, 11, 12, 13, 14, 15, 16, 17, 18, 19, 20, 21, 22, 23, 24, 25, 26, 28, 29]",278.7867966,2382,2254,5,144,11,1.0
undo,43,35,0,0,0,24,"[0, 27, 24]",3,25,"[1, 2, 4, 5, 6, 7, 8, 9, 10, 11, 12, 13, 15, 16, 17, 18, 19, 20, 21, 22, 23, 25, 26, 28, 29]",234.6053525,3697,1315,3,80,11,2.1084080567904624
undo,43,35,0,0,0,17,"[0, 27, 24, 17]",4,20,"[1, 2, 4, 5, 6, 7, 8, 9, 10, 15, 16, 18, 19, 20, 21, 23, 25, 26, 28, 29]",222.9006526,4582,885,3,50,11,1.9439555968916868
undo,43,35,0,0,0,1,"[0, 27, 24, 17, 1]",5,18,"[2, 4, 5, 6, 8, 9, 10, 15, 16, 18, 19, 20, 21, 23, 25, 26, 28, 29]",207.0892643,5383,801,3,39,11,1.9436711872547336
undo,43,35,0,0,0,23,"[0, 27, 24, 17, 1, 23]",6,11,"[4, 5, 6, 9, 15, 18, 19, 25, 26, 28, 29]",148.5657647,6558,1175,11,15,10,1.4243213833690815
undo,43,35,0,0,0,6,"[0, 27, 24, 17, 1, 23, 6]",7,4,"[5, 9, 18, 25]",102.9149159,7724,1166,2,3,10,1.3032858054913266
undo,43,35,0,0,0,25,"[0, 27, 24, 17, 1, 23, 6, 25]",8,2,"[9, 18]",78.89409159,8717,993,2,0,10,1.3653456140159301
undo,43,35,0,0,0,18,"[0, 27, 24, 17, 1, 23, 6, 25, 18]",9,1,[9],45.05624296,10048,1331,1,0,10,1.9819736285179508
undo,43,35,0,0,1,9,"[0, 27, 24, 17, 1, 23, 6, 25, 18, 9]",10,0,[],25.03125856,10966,918,1,0,10,2.4460274872523824
undo,43,35,0,1,1,9,"[0, 27, 24, 17, 1, 23, 6, 25, 18, 9]",10,0,[],25.03125856,12362,1396,1,0,10,2.4460274872523824
undo,44,44,0,0,0,0,[0],1,29,"[1, 2, 3, 4, 5, 6, 7, 8, 9, 10, 11, 12, 13, 14, 15, 16, 17, 18, 19, 20, 21, 22, 23, 24, 25, 26, 27, 28, 29]",300,132,-1,13,126,7,0.0
undo,44,44,0,0,0,9,"[0, 9]",2,17,"[2, 4, 5, 7, 8, 10, 11, 12, 13, 14, 20, 22, 23, 24, 25, 26, 28]",141.32423,4910,4778,3,26,7,1.0
undo,44,44,0,0,0,4,"[0, 9, 4]",3,15,"[2, 5, 7, 8, 10, 11, 12, 14, 20, 22, 23, 24, 25, 26, 28]",121.6265143,5720,810,3,21,7,1.0155532843148096
undo,44,44,0,0,0,7,"[0, 9, 4, 7]",4,10,"[2, 5, 11, 12, 14, 23, 24, 25, 26, 28]",90.61038951,6787,1067,3,9,7,1.0134022837125412
undo,44,44,0,0,0,23,"[0, 9, 4, 7, 23]",5,7,"[5, 12, 14, 24, 25, 26, 28]",71.50541634,7721,934,3,4,7,1.043310757564056
undo,44,44,0,0,0,5,"[0, 9, 4, 7, 23, 5]",6,1,[25],24.08179353,8798,1077,1,0,7,1.0875233835918032
undo,44,44,0,0,1,25,"[0, 9, 4, 7, 23, 5, 25]",7,0,[],13.64148702,10824,2026,1,0,7,1.1344779809947538
undo,44,44,1,0,0,5,"[0, 9, 4, 7, 23, 5]",6,1,[25],24.08179353,12566,1742,1,0,7,1.0875233835918032
undo,44,44,1,0,0,23,"[0, 9, 4, 7, 23]",5,7,"[5, 12, 14, 24, 25, 26, 28]",71.50541634,12733,167,3,4,7,1.043310757564056
undo,44,44,0,0,0,28,"[0, 9, 4, 7, 23, 28]",6,1,[26],19.5342705,15062,2329,1,0,7,1.0580072524850708
undo,44,44,0,0,1,26,"[0, 9, 4, 7, 23, 28, 26]",7,0,[],6.534270496,15855,793,1,0,7,1.055488728885845
undo,44,44,1,0,0,28,"[0, 9, 4, 7, 23, 28]",6,1,[26],19.5342705,18517,2662,1,0,7,1.0580072524850708
undo,44,44,1,0,0,23,"[0, 9, 4, 7, 23]",5,7,"[5, 12, 14, 24, 25, 26, 28]",71.50541634,18682,165,3,4,7,1.043310757564056
undo,44,44,1,0,0,7,"[0, 9, 4, 7]",4,10,"[2, 5, 11, 12, 14, 23, 24, 25, 26, 28]",90.61038951,18849,167,3,9,7,1.0134022837125412
undo,44,44,1,0,0,4,"[0, 9, 4]",3,15,"[2, 5, 7, 8, 10, 11, 12, 14, 20, 22, 23, 24, 25, 26, 28]",121.6265143,19000,151,3,21,7,1.0155532843148096
undo,44,44,1,0,0,9,"[0, 9]",2,17,"[2, 4, 5, 7, 8, 10, 11, 12, 13, 14, 20, 22, 23, 24, 25, 26, 28]",141.32423,19149,149,3,26,7,1.0
undo,44,44,1,0,0,0,[0],1,29,"[1, 2, 3, 4, 5, 6, 7, 8, 9, 10, 11, 12, 13, 14, 15, 16, 17, 18, 19, 20, 21, 22, 23, 24, 25, 26, 27, 28, 29]",300,19300,151,13,126,7,0.0
undo,44,44,0,0,0,11,"[0, 11]",2,18,"[4, 5, 6, 7, 8, 9, 12, 14, 16, 17, 19, 20, 22, 23, 24, 25, 26, 28]",152.7790776,21635,2335,5,34,7,1.0
undo,44,44,0,0,0,24,"[0, 11, 24]",3,13,"[4, 5, 7, 8, 9, 12, 14, 17, 20, 22, 23, 25, 28]",125.8532535,22708,1073,5,23,7,1.1588941745226709
undo,44,44,0,0,0,9,"[0, 11, 24, 9]",4,7,"[4, 7, 8, 12, 14, 20, 23]",93.09657483,23752,1044,2,8,7,1.3039383713641313
undo,44,44,0,0,0,4,"[0, 11, 24, 9, 4]",5,5,"[7, 12, 14, 20, 23]",73.39885923,24654,902,2,3,7,1.2901330701441578
undo,44,44,0,0,0,7,"[0, 11, 24, 9, 4, 7]",6,1,[23],42.38273439,25569,915,1,0,7,1.2468141312360979
undo,44,44,0,0,1,23,"[0, 11, 24, 9, 4, 7, 23]",7,0,[],23.27776121,26380,811,1,0,7,1.2635191782769477
undo,44,44,1,0,0,7,"[0, 11, 24, 9, 4, 7]",6,1,[23],42.38273439,30499,4119,1,0,7,1.2468141312360979
undo,44,44,1,0,0,4,"[0, 11, 24, 9, 4]",5,5,"[7, 12, 14, 20, 23]",73.39885923,30665,166,2,3,7,1.2901330701441578
undo,44,44,1,0,0,9,"[0, 11, 24, 9]",4,7,"[4, 7, 8, 12, 14, 20, 23]",93.09657483,30816,151,2,8,7,1.3039383713641313
undo,44,44,1,0,0,24,"[0, 11, 24]",3,13,"[4, 5, 7, 8, 9, 12, 14, 17, 20, 22, 23, 25, 28]",125.8532535,30966,150,5,23,7,1.1588941745226709
undo,44,44,1,0,0,11,"[0, 11]",2,18,"[4, 5, 6, 7, 8, 9, 12, 14, 16, 17, 19, 20, 22, 23, 24, 25, 26, 28]",152.7790776,31099,133,5,34,7,1.0
undo,44,44,1,0,0,0,[0],1,29,"[1, 2, 3, 4, 5, 6, 7, 8, 9, 10, 11, 12, 13, 14, 15, 16, 17, 18, 19, 20, 21, 22, 23, 24, 25, 26, 27, 28, 29]",300,39233,8134,13,126,7,0.0
undo,44,44,0,0,0,8,"[0, 8]",2,17,"[1, 4, 5, 7, 9, 10, 11, 12, 13, 14, 15, 20, 21, 23, 24, 25, 27]",145.7923478,40777,1544,1,10,7,1.0
undo,44,44,0,0,0,20,"[0, 8, 20]",3,16,"[1, 4, 5, 7, 9, 10, 11, 12, 13, 14, 15, 21, 23, 24, 25, 27]",133.7093018,41439,662,1,9,7,1.0890794433668698
undo,44,44,0,0,0,9,"[0, 8, 20, 9]",4,7,"[4, 7, 11, 12, 14, 23, 24]",76.43801756,42468,1029,1,6,7,1.40892325509949
undo,44,44,0,0,0,4,"[0, 8, 20, 9, 4]",5,4,"[7, 12, 23, 24]",56.74030196,43285,817,1,3,7,1.3849770570803555
undo,44,44,0,0,0,7,"[0, 8, 20, 9, 4, 7]",6,1,[23],25.72417712,44128,843,1,0,7,1.3274380931474288
undo,44,44,0,0,1,23,"[0, 8, 20, 9, 4, 7, 23]",7,0,[],6.619203947,44938,810,1,0,7,1.3395824779823196
undo,44,44,0,1,1,23,"[0, 8, 20, 9, 4, 7, 23]",7,0,[],6.619203947,46749,1811,1,0,7,1.3395824779823196
undo,45,40,0,0,0,0,[0],1,29,"[1, 2, 3, 4, 5, 6, 7, 8, 9, 10, 11, 12, 13, 14, 15, 16, 17, 18, 19, 20, 21, 22, 23, 24, 25, 26, 27, 28, 29]",300,128,-1,8,191,9,0.0
undo,45,40,0,0,0,1,"[0, 1]",2,18,"[2, 5, 6, 7, 8, 9, 10, 11, 13, 15, 17, 18, 19, 21, 22, 23, 27, 29]",247.8463808,2892,2764,4,80,9,1.0
undo,45,40,0,0,0,6,"[0, 1, 6]",3,17,"[2, 5, 7, 8, 9, 10, 11, 13, 15, 17, 18, 19, 21, 22, 23, 27, 29]",227.7466295,3684,792,4,74,9,1.0459427008232034
undo,45,40,0,0,0,21,"[0, 1, 6, 21]",4,8,"[2, 5, 9, 17, 18, 19, 22, 23]",175.7754837,4620,936,4,25,9,1.0308822257404064
undo,45,40,0,0,0,9,"[0, 1, 6, 21, 9]",5,6,"[2, 5, 18, 19, 22, 23]",130.0699041,5814,1194,4,12,9,1.377861912961129
undo,45,40,0,0,0,18,"[0, 1, 6, 21, 9, 18]",6,5,"[2, 5, 19, 22, 23]",113.5169588,6648,834,4,4,9,1.5742712168661408
undo,45,40,0,0,0,5,"[0, 1, 6, 21, 9, 18, 5]",7,3,"[19, 22, 23]",81.94165198,7664,1016,2,1,9,1.7730665063055515
undo,45,40,0,0,0,23,"[0, 1, 6, 21, 9, 18, 5, 23]",8,1,[19],53.63970859,9037,1373,1,0,9,2.597442759912231
undo,45,40,0,0,1,19,"[0, 1, 6, 21, 9, 18, 5, 23, 19]",9,0,[],21.68661797,9997,960,1,0,9,2.7128328554069565
undo,45,40,0,1,1,19,"[0, 1, 6, 21, 9, 18, 5, 23, 19]",9,0,[],21.68661797,11461,1464,1,0,9,2.7128328554069565
undo,46,4,0,0,0,0,[0],1,26,"[3, 4, 5, 6, 7, 8, 10, 11, 12, 13, 14, 15, 16, 17, 18, 19, 20, 21, 22, 23, 24, 25, 26, 27, 28, 29]",300,132,-1,4,489,10,0.0
undo,46,4,0,0,0,13,"[0, 13]",2,23,"[3, 4, 5, 6, 7, 10, 11, 12, 14, 15, 16, 17, 19, 20, 21, 22, 23, 24, 25, 26, 27, 28, 29]",232.1030192,3118,2986,2,270,10,1.0
undo,46,4,0,0,0,28,"[0, 13, 28]",3,19,"[3, 4, 5, 6, 10, 11, 12, 14, 15, 16, 17, 19, 20, 21, 22, 23, 24, 25, 26]",200.5277124,5575,2457,2,221,10,1.3431168257921573
undo,46,4,0,0,0,11,"[0, 13, 28, 11]",4,13,"[3, 4, 5, 6, 12, 14, 16, 17, 20, 21, 22, 24, 25]",151.6503148,6642,1067,1,107,10,1.2073325752283492
undo,46,4,0,0,0,25,"[0, 13, 28, 11, 25]",5,10,"[3, 4, 5, 6, 14, 16, 17, 20, 21, 22]",132.8620205,7528,886,1,45,10,1.318009746415006
undo,46,4,0,0,0,14,"[0, 13, 28, 11, 25, 14]",6,9,"[3, 4, 5, 6, 16, 17, 20, 21, 22]",116.737505,8396,868,21,12,9,1.3419793109023184
undo,46,4,0,0,0,3,"[0, 13, 28, 11, 25, 14, 3]",7,5,"[16, 17, 20, 21, 22]",75.30080633,9317,921,5,3,9,1.2883145423987448
undo,46,4,0,0,0,17,"[0, 13, 28, 11, 25, 14, 3, 17]",8,4,"[16, 20, 21, 22]",50.78550499,10290,973,4,0,9,1.5203638923201492
undo,46,4,0,0,1,16,"[0, 13, 28, 11, 25, 14, 3, 17, 16]",9,0,[],24.70869537,11318,1028,1,0,9,1.99712047859809
undo,46,4,0,1,1,16,"[0, 13, 28, 11, 25, 14, 3, 17, 16]",9,0,[],24.70869537,13132,1814,1,0,9,1.99712047859809
undo,47,16,0,0,0,0,[0],1,29,"[1, 2, 3, 4, 5, 6, 7, 8, 9, 10, 11, 12, 13, 14, 15, 16, 17, 18, 19, 20, 21, 22, 23, 24, 25, 26, 27, 28, 29]",300,131,-1,13,161,9,0.0
undo,47,16,0,0,0,28,"[0, 28]",2,27,"[1, 2, 3, 4, 5, 7, 8, 9, 10, 11, 12, 13, 14, 15, 16, 17, 18, 19, 20, 21, 22, 23, 24, 25, 26, 27, 29]",284.3475242,2113,1982,11,92,9,1.0
undo,47,16,0,0,0,17,"[0, 28, 17]",3,26,"[1, 2, 3, 4, 5, 7, 8, 9, 10, 11, 12, 13, 14, 15, 16, 18, 19, 20, 21, 22, 23, 24, 25, 26, 27, 29]",219.1555001,3592,1479,10,46,9,1.3773866384707543
undo,47,16,0,0,0,16,"[0, 28, 17, 16]",4,25,"[1, 2, 3, 4, 5, 7, 8, 9, 10, 11, 12, 13, 14, 15, 18, 19, 20, 21, 22, 23, 24, 25, 26, 27, 29]",190.8358956,4445,853,10,34,9,1.3209953830681203
undo,47,16,0,0,0,21,"[0, 28, 17, 16, 21]",5,13,"[3, 5, 7, 8, 9, 10, 12, 15, 20, 22, 25, 26, 29]",146.1816685,5447,1002,4,7,9,1.8136482702070456
undo,47,16,0,0,0,8,"[0, 28, 17, 16, 21, 8]",6,6,"[5, 9, 12, 15, 20, 25]",96.92722704,6454,1007,4,2,9,1.637204572335983
undo,47,16,0,0,0,20,"[0, 28, 17, 16, 21, 8, 20]",7,2,"[9, 25]",39.15179974,7500,1046,2,0,9,1.441590377328759
undo,47,16,0,0,0,25,"[0, 28, 17, 16, 21, 8, 20, 25]",8,1,[9],26.5026891,8451,951,1,0,9,1.484361110265371
undo,47,16,0,0,1,9,"[0, 28, 17, 16, 21, 8, 20, 25, 9]",9,0,[],13.69644062,9334,883,1,0,9,1.4530180692918209
undo,47,16,0,1,1,9,"[0, 28, 17, 16, 21, 8, 20, 25, 9]",9,0,[],13.69644062,10915,1581,1,0,9,1.4530180692918209
undo,48,12,0,0,0,0,[0],1,29,"[1, 2, 3, 4, 5, 6, 7, 8, 9, 10, 11, 12, 13, 14, 15, 16, 17, 18, 19, 20, 21, 22, 23, 24, 25, 26, 27, 28, 29]",300,131,-1,2,32,9,0.0
undo,48,12,0,0,0,6,"[0, 6]",2,28,"[1, 2, 3, 4, 5, 7, 8, 9, 10, 11, 12, 13, 14, 15, 16, 17, 18, 19, 20, 21, 22, 23, 24, 25, 26, 27, 28, 29]",283.5987805,4496,4365,2,18,9,1.0
undo,48,12,0,0,0,18,"[0, 6, 18]",3,10,"[1, 2, 3, 5, 7, 9, 11, 15, 17, 21]",144.5088815,5911,1415,6,15,7,1.0360320431021144
undo,48,12,0,0,0,15,"[0, 6, 18, 15]",4,5,"[1, 5, 11, 17, 21]",90.75016132,6962,1051,2,4,7,1.107390040119206
undo,48,12,0,0,0,17,"[0, 6, 18, 15, 17]",5,4,"[1, 5, 11, 21]",74.25773882,7783,821,2,2,7,1.156679625075457
undo,48,12,0,0,0,11,"[0, 6, 18, 15, 17, 11]",6,1,[1],30.84115213,8733,950,1,0,7,1.128650322561101
undo,48,12,0,0,1,1,"[0, 6, 18, 15, 17, 11, 1]",7,0,[],14.28820677,10005,1272,1,0,7,1.175838393727954
undo,48,12,1,0,0,11,"[0, 6, 18, 15, 17, 11]",6,1,[1],30.84115213,12064,2059,1,0,7,1.128650322561101
undo,48,12,1,0,0,17,"[0, 6, 18, 15, 17]",5,4,"[1, 5, 11, 21]",74.25773882,12214,150,2,2,7,1.156679625075457
undo,48,12,1,0,0,15,"[0, 6, 18, 15]",4,5,"[1, 5, 11, 17, 21]",90.75016132,12380,166,2,4,7,1.107390040119206
undo,48,12,1,0,0,18,"[0, 6, 18]",3,10,"[1, 2, 3, 5, 7, 9, 11, 15, 17, 21]",144.5088815,12514,134,6,15,7,1.0360320431021144
undo,48,12,1,0,0,6,"[0, 6]",2,28,"[1, 2, 3, 4, 5, 7, 8, 9, 10, 11, 12, 13, 14, 15, 16, 17, 18, 19, 20, 21, 22, 23, 24, 25, 26, 27, 28, 29]",283.5987805,12681,167,2,18,9,1.0
undo,48,12,0,0,0,2,"[0, 6, 2]",3,13,"[5, 7, 8, 10, 13, 15, 17, 18, 19, 22, 24, 26, 29]",125.1500507,16974,4293,2,21,6,1.1155964573887593
undo,48,12,0,0,0,7,"[0, 6, 2, 7]",4,8,"[5, 8, 10, 13, 19, 24, 26, 29]",107.6858015,17801,827,2,7,6,1.1621094889683603
undo,48,12,0,0,0,13,"[0, 6, 2, 7, 13]",5,2,"[10, 29]",52.24213636,18984,1183,2,0,6,1.1229286509134282
undo,48,12,0,0,1,10,"[0, 6, 2, 7, 13, 10]",6,0,[],22.50999886,19928,944,1,0,6,1.1190204658728549
undo,48,12,1,0,0,13,"[0, 6, 2, 7, 13]",5,2,"[10, 29]",52.24213636,22497,2569,2,0,6,1.1229286509134282
undo,48,12,1,0,0,7,"[0, 6, 2, 7]",4,8,"[5, 8, 10, 13, 19, 24, 26, 29]",107.6858015,22648,151,2,7,6,1.1621094889683603
undo,48,12,1,0,0,2,"[0, 6, 2]",3,13,"[5, 7, 8, 10, 13, 15, 17, 18, 19, 22, 24, 26, 29]",125.1500507,22797,149,2,21,6,1.1155964573887593
undo,48,12,1,0,0,6,"[0, 6]",2,28,"[1, 2, 3, 4, 5, 7, 8, 9, 10, 11, 12, 13, 14, 15, 16, 17, 18, 19, 20, 21, 22, 23, 24, 25, 26, 27, 28, 29]",283.5987805,22947,150,2,18,9,1.0
undo,48,12,1,0,0,0,[0],1,29,"[1, 2, 3, 4, 5, 6, 7, 8, 9, 10, 11, 12, 13, 14, 15, 16, 17, 18, 19, 20, 21, 22, 23, 24, 25, 26, 27, 28, 29]",300,23097,150,2,32,9,0.0
undo,48,12,0,0,0,25,"[0, 25]",2,16,"[2, 4, 5, 6, 7, 9, 12, 14, 16, 18, 19, 22, 23, 24, 27, 28]",225.7975742,25467,2370,5,34,8,1.0
undo,48,12,0,0,0,16,"[0, 25, 16]",3,11,"[2, 4, 5, 6, 7, 12, 14, 19, 22, 24, 27]",169.0701557,26551,1084,4,22,8,1.4434159828731936
undo,48,12,0,0,0,4,"[0, 25, 16, 4]",4,6,"[12, 14, 19, 22, 24, 27]",134.864893,27508,957,2,7,8,1.3220542462647857
undo,48,12,0,0,0,12,"[0, 25, 16, 4, 12]",5,5,"[14, 19, 22, 24, 27]",92.67484678,29070,1562,2,3,8,1.2548348749245275
undo,48,12,0,0,0,27,"[0, 25, 16, 4, 12, 27]",6,2,"[14, 24]",68.32325545,30050,980,2,0,8,1.3544642483472162
undo,48,12,0,0,0,14,"[0, 25, 16, 4, 12, 27, 14]",7,1,[24],39.67015789,31751,1701,1,0,8,1.3982089850666115
undo,48,12,0,0,1,24,"[0, 25, 16, 4, 12, 27, 14, 24]",8,0,[],22.46550735,32736,985,1,0,8,1.5551140590301356
undo,48,12,0,1,1,24,"[0, 25, 16, 4, 12, 27, 14, 24]",8,0,[],22.46550735,34931,2195,1,0,8,1.5551140590301356
undo,49,15,0,0,0,0,[0],1,25,"[1, 2, 3, 4, 7, 8, 9, 10, 11, 12, 13, 14, 15, 16, 18, 20, 21, 22, 23, 24, 25, 26, 27, 28, 29]",300,129,-1,4,65,9,0.0
undo,49,15,0,0,0,16,"[0, 16]",2,16,"[3, 4, 7, 9, 10, 11, 12, 13, 14, 15, 18, 20, 21, 22, 25, 27]",185.8378346,3923,3794,22,104,7,1.0
undo,49,15,0,0,0,22,"[0, 16, 22]",3,12,"[3, 4, 7, 10, 11, 12, 13, 14, 15, 18, 20, 25]",126.9820788,5039,1116,1,15,7,1.0028550048762226
undo,49,15,0,0,0,13,"[0, 16, 22, 13]",4,8,"[3, 4, 10, 11, 14, 15, 18, 25]",98.82182308,5949,910,1,5,7,1.0041852183149536
undo,49,15,0,0,0,15,"[0, 16, 22, 13, 15]",5,5,"[3, 11, 14, 18, 25]",83.55748556,6810,861,1,4,7,1.1021631907908096
undo,49,15,0,0,0,3,"[0, 16, 22, 13, 15, 3]",6,1,[11],15.49134126,8142,1332,1,0,7,2.149210066236593
undo,49,15,0,0,1,11,"[0, 16, 22, 13, 15, 3, 11]",7,0,[],4.089587005,9837,1695,1,0,7,2.3831217341049937
undo,49,15,1,0,0,3,"[0, 16, 22, 13, 15, 3]",6,1,[11],15.49134126,11797,1960,1,0,7,2.149210066236593
undo,49,15,1,0,0,15,"[0, 16, 22, 13, 15]",5,5,"[3, 11, 14, 18, 25]",83.55748556,11961,164,1,4,7,1.1021631907908096
undo,49,15,1,0,0,13,"[0, 16, 22, 13]",4,8,"[3, 4, 10, 11, 14, 15, 18, 25]",98.82182308,12129,168,1,5,7,1.0041852183149536
undo,49,15,1,0,0,22,"[0, 16, 22]",3,12,"[3, 4, 7, 10, 11, 12, 13, 14, 15, 18, 20, 25]",126.9820788,12263,134,1,15,7,1.0028550048762226
undo,49,15,1,0,0,16,"[0, 16]",2,16,"[3, 4, 7, 9, 10, 11, 12, 13, 14, 15, 18, 20, 21, 22, 25, 27]",185.8378346,12412,149,22,104,7,1.0
undo,49,15,1,0,0,0,[0],1,25,"[1, 2, 3, 4, 7, 8, 9, 10, 11, 12, 13, 14, 15, 16, 18, 20, 21, 22, 23, 24, 25, 26, 27, 28, 29]",300,15713,3301,4,65,9,0.0
undo,49,15,0,0,0,11,"[0, 11]",2,19,"[3, 4, 7, 8, 9, 10, 12, 13, 14, 15, 16, 18, 20, 21, 22, 23, 25, 27, 29]",175.8307607,23966,8253,13,59,7,1.0
undo,49,15,0,0,0,3,"[0, 11, 3]",3,15,"[4, 7, 10, 12, 13, 14, 15, 16, 18, 20, 21, 22, 25, 27, 29]",164.4290064,24766,800,8,32,7,1.0241183710373032
undo,49,15,0,0,0,16,"[0, 11, 3, 16]",4,10,"[4, 7, 10, 12, 13, 14, 15, 18, 21, 22]",139.349134,25726,960,6,8,7,1.4072163530838298
undo,49,15,0,0,0,22,"[0, 11, 3, 16, 22]",5,4,"[4, 13, 14, 15]",80.49337812,26917,1191,2,2,7,1.2723151037132594
undo,49,15,0,0,0,13,"[0, 11, 3, 16, 22, 13]",6,1,[15],52.33312244,27851,934,1,0,7,1.2362345723555803
undo,49,15,0,0,1,15,"[0, 11, 3, 16, 22, 13, 15]",7,0,[],37.06878491,29051,1200,1,0,7,1.33889179642862
undo,49,15,0,1,1,15,"[0, 11, 3, 16, 22, 13, 15]",7,0,[],37.06878491,31579,2528,1,0,7,1.33889179642862
undo,50,18,0,0,0,0,[0],1,28,"[1, 2, 3, 4, 5, 6, 7, 8, 9, 10, 11, 12, 13, 14, 16, 17, 18, 19, 20, 21, 22, 23, 24, 25, 26, 27, 28, 29]",300,130,-1,3,136,10,0.0
undo,50,18,0,0,0,28,"[0, 28]",2,16,"[1, 3, 5, 7, 8, 9, 12, 13, 14, 16, 20, 23, 24, 25, 26, 27]",236.4311397,2841,2711,2,19,10,1.0
undo,50,18,0,0,0,7,"[0, 28, 7]",3,15,"[1, 3, 5, 8, 9, 12, 13, 14, 16, 20, 23, 24, 25, 26, 27]",214.4084242,4255,1414,2,17,10,1.4345180696367563
undo,50,18,0,0,0,25,"[0, 28, 7, 25]",4,13,"[1, 3, 5, 8, 9, 12, 13, 14, 16, 20, 23, 26, 27]",186.6055466,5283,1028,2,15,10,1.8896451241781882
undo,50,18,0,0,0,8,"[0, 28, 7, 25, 8]",5,10,"[3, 5, 9, 12, 13, 14, 16, 23, 26, 27]",149.551532,6366,1083,2,10,10,1.590467437592877
undo,50,18,0,0,0,13,"[0, 28, 7, 25, 8, 13]",6,9,"[3, 5, 9, 12, 14, 16, 23, 26, 27]",128.4565089,7258,892,2,5,10,1.8248274983549797
undo,50,18,0,0,0,14,"[0, 28, 7, 25, 8, 13, 14]",7,7,"[3, 5, 9, 12, 23, 26, 27]",109.4828429,8102,844,2,3,10,1.6993534956692746
undo,50,18,0,0,0,3,"[0, 28, 7, 25, 8, 13, 14, 3]",8,3,"[5, 12, 27]",79.39962499,9284,1182,2,1,10,1.802637206541468
undo,50,18,0,0,0,5,"[0, 28, 7, 25, 8, 13, 14, 3, 5]",9,1,[12],21.21887216,11038,1754,1,0,10,1.559774889743805
undo,50,18,0,0,1,12,"[0, 28, 7, 25, 8, 13, 14, 3, 5, 12]",10,0,[],9.817117911,12083,1045,1,0,10,1.563993037384447
undo,50,18,0,1,1,12,"[0, 28, 7, 25, 8, 13, 14, 3, 5, 12]",10,0,[],9.817117911,13480,1397,1,0,10,1.563993037384447
undo,51,17,0,0,0,0,[0],1,28,"[1, 2, 3, 4, 5, 6, 7, 8, 9, 10, 11, 12, 13, 14, 15, 16, 17, 18, 19, 20, 22, 23, 24, 25, 26, 27, 28, 29]",300,130,-1,2,73,8,0.0
undo,51,17,0,0,0,9,"[0, 9]",2,25,"[1, 2, 3, 5, 6, 7, 8, 10, 11, 12, 14, 15, 16, 17, 18, 19, 20, 22, 23, 24, 25, 26, 27, 28, 29]",210.5293344,2478,2348,1,34,8,1.0
undo,51,17,0,0,0,16,"[0, 9, 16]",3,21,"[1, 2, 3, 5, 7, 8, 10, 11, 12, 14, 17, 18, 19, 20, 22, 23, 25, 26, 27, 28, 29]",197.1876704,3280,802,1,26,8,1.173103464220352
undo,51,17,0,0,0,2,"[0, 9, 16, 2]",4,18,"[1, 3, 5, 7, 8, 10, 11, 12, 14, 17, 18, 19, 23, 25, 26, 27, 28, 29]",181.0631549,4090,810,1,23,8,1.14825089247282
undo,51,17,0,0,0,8,"[0, 9, 16, 2, 8]",5,9,"[3, 7, 10, 11, 12, 14, 17, 26, 27]",145.9490551,5372,1282,1,9,8,1.1509808066472915
undo,51,17,0,0,0,7,"[0, 9, 16, 2, 8, 7]",6,3,"[10, 12, 27]",75.238377,6455,1083,3,0,7,1.2222166608088694
undo,51,17,0,0,1,27,"[0, 9, 16, 2, 8, 7, 27]",7,0,[],21.63800387,7813,1358,1,0,7,1.2961096752539074
undo,51,17,1,0,0,7,"[0, 9, 16, 2, 8, 7]",6,3,"[10, 12, 27]",75.238377,11947,4134,3,0,7,1.2222166608088694
undo,51,17,1,0,0,8,"[0, 9, 16, 2, 8]",5,9,"[3, 7, 10, 11, 12, 14, 17, 26, 27]",145.9490551,12097,150,1,9,8,1.1509808066472915
undo,51,17,1,0,0,2,"[0, 9, 16, 2]",4,18,"[1, 3, 5, 7, 8, 10, 11, 12, 14, 17, 18, 19, 23, 25, 26, 27, 28, 29]",181.0631549,12247,150,1,23,8,1.14825089247282
undo,51,17,0,0,0,17,"[0, 9, 16, 2, 17]",5,7,"[7, 8, 12, 14, 26, 27, 29]",142.7356191,13942,1695,4,5,7,1.4896040699768547
undo,51,17,0,0,0,8,"[0, 9, 16, 2, 17, 8]",6,3,"[7, 12, 27]",104.5256727,14959,1017,3,0,7,1.4604726966175894
undo,51,17,0,0,1,7,"[0, 9, 16, 2, 17, 8, 7]",7,0,[],33.81499459,15993,1034,1,0,7,1.4474701869793896
undo,51,17,1,0,0,8,"[0, 9, 16, 2, 17, 8]",6,3,"[7, 12, 27]",104.5256727,19031,3038,3,0,7,1.4604726966175894
undo,51,17,1,0,0,17,"[0, 9, 16, 2, 17]",5,7,"[7, 8, 12, 14, 26, 27, 29]",142.7356191,19197,166,4,5,7,1.4896040699768547
undo,51,17,1,0,0,2,"[0, 9, 16, 2]",4,18,"[1, 3, 5, 7, 8, 10, 11, 12, 14, 17, 18, 19, 23, 25, 26, 27, 28, 29]",181.0631549,19330,133,1,23,8,1.14825089247282
undo,51,17,1,0,0,16,"[0, 9, 16]",3,21,"[1, 2, 3, 5, 7, 8, 10, 11, 12, 14, 17, 18, 19, 20, 22, 23, 25, 26, 27, 28, 29]",197.1876704,19464,134,1,26,8,1.173103464220352
undo,51,17,1,0,0,9,"[0, 9]",2,25,"[1, 2, 3, 5, 6, 7, 8, 10, 11, 12, 14, 15, 16, 17, 18, 19, 20, 22, 23, 24, 25, 26, 27, 28, 29]",210.5293344,20848,1384,1,34,8,1.0
undo,51,17,0,0,0,10,"[0, 9, 10]",3,8,"[3, 5, 6, 7, 11, 23, 24, 28]",105.6055526,22100,1252,4,9,6,1.0722854926797516
undo,51,17,0,0,0,11,"[0, 9, 10, 11]",4,6,"[3, 5, 6, 23, 24, 28]",83.65105416,22868,768,2,5,6,1.0666517243103375
undo,51,17,0,0,0,3,"[0, 9, 10, 11, 3]",5,2,"[5, 28]",57.4785495,23753,885,2,0,6,1.2802467492484548
undo,51,17,0,0,1,28,"[0, 9, 10, 11, 3, 28]",6,0,[],23.4785495,24699,946,1,0,6,1.3324362276451462
undo,51,17,1,0,0,3,"[0, 9, 10, 11, 3]",5,2,"[5, 28]",57.4785495,26864,2165,2,0,6,1.2802467492484548
undo,51,17,1,0,0,11,"[0, 9, 10, 11]",4,6,"[3, 5, 6, 23, 24, 28]",83.65105416,27031,167,2,5,6,1.0666517243103375
undo,51,17,1,0,0,10,"[0, 9, 10]",3,8,"[3, 5, 6, 7, 11, 23, 24, 28]",105.6055526,27181,150,4,9,6,1.0722854926797516
undo,51,17,1,0,0,9,"[0, 9]",2,25,"[1, 2, 3, 5, 6, 7, 8, 10, 11, 12, 14, 15, 16, 17, 18, 19, 20, 22, 23, 24, 25, 26, 27, 28, 29]",210.5293344,27347,166,1,34,8,1.0
undo,51,17,1,0,0,0,[0],1,28,"[1, 2, 3, 4, 5, 6, 7, 8, 9, 10, 11, 12, 13, 14, 15, 16, 17, 18, 19, 20, 22, 23, 24, 25, 26, 27, 28, 29]",300,27496,149,2,73,8,0.0
undo,51,17,0,0,0,19,"[0, 19]",2,9,"[3, 4, 5, 10, 11, 18, 20, 22, 28]",138.1049723,30655,3159,1,8,6,1.0
undo,51,17,0,0,0,5,"[0, 19, 5]",3,5,"[3, 10, 11, 22, 28]",98.81120687,31685,1030,1,5,6,1.1200340368749155
undo,51,17,0,0,0,28,"[0, 19, 5, 28]",4,2,"[3, 11]",60.32744406,33601,1916,1,1,6,1.1548774814009009
undo,51,17,0,0,0,3,"[0, 19, 5, 28, 3]",5,1,[11],26.32744406,35403,1802,1,0,6,1.444690353691831
undo,51,17,0,0,1,11,"[0, 19, 5, 28, 3, 11]",6,0,[],0.154939406,37587,2184,1,0,6,1.4783074152117983
undo,51,17,1,0,0,3,"[0, 19, 5, 28, 3]",5,1,[11],26.32744406,39580,1993,1,0,6,1.444690353691831
undo,51,17,1,0,0,28,"[0, 19, 5, 28]",4,2,"[3, 11]",60.32744406,39731,151,1,1,6,1.1548774814009009
undo,51,17,1,0,0,5,"[0, 19, 5]",3,5,"[3, 10, 11, 22, 28]",98.81120687,39880,149,1,5,6,1.1200340368749155
undo,51,17,1,0,0,19,"[0, 19]",2,9,"[3, 4, 5, 10, 11, 18, 20, 22, 28]",138.1049723,40029,149,1,8,6,1.0
undo,51,17,1,0,0,0,[0],1,28,"[1, 2, 3, 4, 5, 6, 7, 8, 9, 10, 11, 12, 13, 14, 15, 16, 17, 18, 19, 20, 22, 23, 24, 25, 26, 27, 28, 29]",300,40180,151,2,73,8,0.0
undo,51,17,0,0,0,9,"[0, 9]",2,25,"[1, 2, 3, 5, 6, 7, 8, 10, 11, 12, 14, 15, 16, 17, 18, 19, 20, 22, 23, 24, 25, 26, 27, 28, 29]",210.5293344,44605,4425,1,34,8,1.0
undo,51,17,0,0,0,16,"[0, 9, 16]",3,21,"[1, 2, 3, 5, 7, 8, 10, 11, 12, 14, 17, 18, 19, 20, 22, 23, 25, 26, 27, 28, 29]",197.1876704,45401,796,1,26,8,1.173103464220352
undo,51,17,0,0,0,2,"[0, 9, 16, 2]",4,18,"[1, 3, 5, 7, 8, 10, 11, 12, 14, 17, 18, 19, 23, 25, 26, 27, 28, 29]",181.0631549,46161,760,1,23,8,1.14825089247282
undo,51,17,0,0,0,17,"[0, 9, 16, 2, 17]",5,7,"[7, 8, 12, 14, 26, 27, 29]",142.7356191,47104,943,4,5,7,1.4896040699768547
undo,51,17,0,0,0,8,"[0, 9, 16, 2, 17, 8]",6,3,"[7, 12, 27]",104.5256727,48021,917,3,0,7,1.4604726966175894
undo,51,17,0,0,1,7,"[0, 9, 16, 2, 17, 8, 7]",7,0,[],33.81499459,49104,1083,1,0,7,1.4474701869793896
undo,51,17,0,1,1,7,"[0, 9, 16, 2, 17, 8, 7]",7,0,[],33.81499459,50630,1526,1,0,7,1.4474701869793896
undo,52,7,0,0,0,0,[0],1,29,"[1, 2, 3, 4, 5, 6, 7, 8, 9, 10, 11, 12, 13, 14, 15, 16, 17, 18, 19, 20, 21, 22, 23, 24, 25, 26, 27, 28, 29]",300,131,-1,3,79,9,0.0
undo,52,7,0,0,0,6,"[0, 6]",2,22,"[2, 4, 5, 7, 8, 9, 10, 11, 13, 14, 15, 16, 18, 19, 20, 21, 22, 23, 24, 25, 27, 28]",231.1160396,3172,3041,1,24,9,1.0
undo,52,7,1,0,0,0,[0],1,29,"[1, 2, 3, 4, 5, 6, 7, 8, 9, 10, 11, 12, 13, 14, 15, 16, 17, 18, 19, 20, 21, 22, 23, 24, 25, 26, 27, 28, 29]",300,7647,4475,3,79,9,0.0
undo,52,7,0,0,0,15,"[0, 15]",2,19,"[2, 4, 5, 6, 7, 8, 9, 10, 13, 14, 16, 18, 19, 20, 21, 23, 25, 27, 28]",230.9348134,9287,1640,2,38,9,1.0
undo,52,7,0,0,0,6,"[0, 15, 6]",3,18,"[2, 4, 5, 7, 8, 9, 10, 13, 14, 16, 18, 19, 20, 21, 23, 25, 27, 28]",205.854941,10283,996,2,36,9,1.366719602896943
undo,52,7,0,0,0,25,"[0, 15, 6, 25]",4,11,"[2, 4, 7, 13, 14, 16, 18, 19, 20, 21, 23]",138.6760753,11546,1263,2,28,9,1.3624631728355765
undo,52,7,0,0,0,4,"[0, 15, 6, 25, 4]",5,7,"[2, 7, 13, 16, 18, 19, 20]",113.9374415,13996,2450,2,12,9,1.3249684384385587
undo,52,7,0,0,0,20,"[0, 15, 6, 25, 4, 20]",6,5,"[2, 7, 13, 18, 19]",94.29055881,14953,957,1,6,9,1.3721893242679268
undo,52,7,0,0,0,18,"[0, 15, 6, 25, 4, 20, 18]",7,3,"[7, 13, 19]",81.48431034,15847,894,1,2,9,1.5262542308371432
undo,52,7,0,0,0,7,"[0, 15, 6, 25, 4, 20, 18, 7]",8,1,[19],40.25325408,17230,1383,1,0,9,1.41986878673423
undo,52,7,0,0,1,19,"[0, 15, 6, 25, 4, 20, 18, 7, 19]",9,0,[],10.84237174,19429,2199,1,0,9,1.5285658163212987
undo,52,7,0,1,1,19,"[0, 15, 6, 25, 4, 20, 18, 7, 19]",9,0,[],10.84237174,20898,1469,1,0,9,1.5285658163212987
undo,53,20,0,0,0,0,[0],1,21,"[1, 2, 3, 4, 5, 6, 7, 8, 9, 12, 17, 18, 20, 21, 22, 23, 25, 26, 27, 28, 29]",300,130,-1,1,9,9,0.0
undo,53,20,0,0,0,12,"[0, 12]",2,20,"[1, 2, 3, 4, 5, 6, 7, 8, 9, 17, 18, 20, 21, 22, 23, 25, 26, 27, 28, 29]",271.5570747,2505,2375,1,8,9,1.0
undo,53,20,0,0,0,1,"[0, 12, 1]",3,12,"[3, 4, 5, 6, 8, 9, 20, 21, 23, 27, 28, 29]",189.5692707,3556,1051,1,6,9,1.0757997779162911
undo,53,20,0,0,0,5,"[0, 12, 1, 5]",4,10,"[4, 6, 8, 9, 20, 21, 23, 27, 28, 29]",152.8950291,4467,911,1,5,9,1.1708231454516806
undo,53,20,0,0,0,21,"[0, 12, 1, 5, 21]",5,8,"[4, 6, 8, 9, 20, 23, 27, 28]",107.8950291,5467,1000,1,4,9,1.126197336199212
undo,53,20,0,0,0,8,"[0, 12, 1, 5, 21, 8]",6,5,"[6, 9, 23, 27, 28]",90.43077988,8066,2599,1,3,9,1.140007470699913
undo,53,20,0,0,0,23,"[0, 12, 1, 5, 21, 8, 23]",7,2,"[6, 9]",45.74297394,9216,1150,1,1,9,1.1162257896627588
undo,53,20,0,0,0,9,"[0, 12, 1, 5, 21, 8, 23, 9]",8,1,[6],26.53360123,10125,909,1,0,9,1.1086880559449597
undo,53,20,0,0,1,6,"[0, 12, 1, 5, 21, 8, 23, 9, 6]",9,0,[],3.511872362,11167,1042,1,0,9,1.1186240265999328
undo,53,20,0,1,1,6,"[0, 12, 1, 5, 21, 8, 23, 9, 6]",9,0,[],3.511872362,12947,1780,1,0,9,1.1186240265999328
undo,54,3,0,0,0,0,[0],1,29,"[1, 2, 3, 4, 5, 6, 7, 8, 9, 10, 11, 12, 13, 14, 15, 16, 17, 18, 19, 20, 21, 22, 23, 24, 25, 26, 27, 28, 29]",300,131,-1,34,427,10,0.0
undo,54,3,0,0,0,7,"[0, 7]",2,28,"[1, 2, 3, 4, 5, 6, 8, 9, 10, 11, 12, 13, 14, 15, 16, 17, 18, 19, 20, 21, 22, 23, 24, 25, 26, 27, 28, 29]",278.8103799,4567,4436,24,215,10,1.0
undo,54,3,0,0,0,8,"[0, 7, 8]",3,24,"[1, 2, 3, 4, 5, 6, 10, 11, 12, 13, 14, 15, 16, 17, 18, 19, 20, 21, 22, 24, 25, 26, 27, 28]",222.837172,5704,1137,16,114,10,1.2853332575451413
undo,54,3,0,0,0,24,"[0, 7, 8, 24]",4,21,"[1, 3, 4, 5, 6, 10, 11, 12, 14, 15, 16, 17, 18, 19, 20, 21, 22, 25, 26, 27, 28]",210.671647,6600,896,16,91,10,1.5177505014936548
undo,54,3,0,0,0,17,"[0, 7, 8, 24, 17]",5,9,"[3, 4, 10, 14, 15, 16, 19, 20, 21]",141.3174834,7722,1122,7,26,10,1.5510961300062232
undo,54,3,0,0,0,20,"[0, 7, 8, 24, 17, 20]",6,7,"[3, 4, 10, 14, 16, 19, 21]",128.6683728,8767,1045,7,14,10,1.5133082717474817
undo,54,3,0,0,0,3,"[0, 7, 8, 24, 17, 20, 3]",7,5,"[4, 10, 14, 19, 21]",108.2722947,9758,991,7,4,10,1.5325960555943097
undo,54,3,0,0,0,19,"[0, 7, 8, 24, 17, 20, 3, 19]",8,3,"[10, 14, 21]",70.93598532,10901,1143,3,1,10,1.5521294182529992
undo,54,3,0,0,0,21,"[0, 7, 8, 24, 17, 20, 3, 19, 21]",9,2,"[10, 14]",58.72942971,11925,1024,2,0,10,1.5690424431931145
undo,54,3,0,0,1,14,"[0, 7, 8, 24, 17, 20, 3, 19, 21, 14]",10,0,[],31.82218161,12976,1051,1,0,10,2.0836613372745463
undo,54,3,0,1,1,14,"[0, 7, 8, 24, 17, 20, 3, 19, 21, 14]",10,0,[],31.82218161,15397,2421,1,0,10,2.0836613372745463
undo,55,31,0,0,0,0,[0],1,27,"[1, 3, 4, 5, 6, 7, 8, 10, 11, 12, 13, 14, 15, 16, 17, 18, 19, 20, 21, 22, 23, 24, 25, 26, 27, 28, 29]",300,131,-1,2,87,10,0.0
undo,55,31,0,0,0,14,"[0, 14]",2,25,"[1, 3, 5, 6, 7, 8, 10, 11, 12, 13, 15, 16, 17, 18, 19, 20, 21, 22, 23, 24, 25, 26, 27, 28, 29]",263.861378,5375,5244,2,59,10,1.0
undo,55,31,0,0,0,27,"[0, 14, 27]",3,22,"[1, 3, 5, 6, 7, 8, 10, 11, 12, 13, 15, 16, 17, 18, 19, 20, 21, 22, 24, 25, 28, 29]",235.6833724,6268,893,1,39,10,1.5881859159302467
undo,55,31,0,0,0,8,"[0, 14, 27, 8]",4,20,"[1, 3, 5, 6, 7, 10, 11, 12, 13, 16, 17, 18, 19, 20, 21, 22, 24, 25, 28, 29]",224.6380114,7104,836,1,36,10,2.1665048452331277
undo,55,31,0,0,0,18,"[0, 14, 27, 8, 18]",5,15,"[1, 5, 6, 7, 11, 12, 13, 16, 17, 19, 20, 22, 25, 28, 29]",188.7911147,8080,976,1,26,10,1.7273375741920205
undo,55,31,0,0,0,11,"[0, 14, 27, 8, 18, 11]",6,11,"[1, 5, 7, 12, 16, 17, 19, 20, 22, 25, 28]",153.9055876,9461,1381,13,17,9,2.386348208737804
undo,55,31,0,0,0,5,"[0, 14, 27, 8, 18, 11, 5]",7,5,"[16, 17, 20, 25, 28]",110.2249283,10404,943,3,3,9,2.163249612867222
undo,55,31,0,0,0,28,"[0, 14, 27, 8, 18, 11, 5, 28]",8,2,"[16, 17]",90.00117988,11272,868,2,0,9,1.9564635733184719
undo,55,31,0,0,1,16,"[0, 14, 27, 8, 18, 11, 5, 28, 16]",9,0,[],56.38570725,12405,1133,1,0,9,1.824071502589619
undo,55,31,1,0,0,28,"[0, 14, 27, 8, 18, 11, 5, 28]",8,2,"[16, 17]",90.00117988,14548,2143,2,0,9,1.9564635733184719
undo,55,31,1,0,0,5,"[0, 14, 27, 8, 18, 11, 5]",7,5,"[16, 17, 20, 25, 28]",110.2249283,14714,166,3,3,9,2.163249612867222
undo,55,31,1,0,0,11,"[0, 14, 27, 8, 18, 11]",6,11,"[1, 5, 7, 12, 16, 17, 19, 20, 22, 25, 28]",153.9055876,14880,166,13,17,9,2.386348208737804
undo,55,31,1,0,0,18,"[0, 14, 27, 8, 18]",5,15,"[1, 5, 6, 7, 11, 12, 13, 16, 17, 19, 20, 22, 25, 28, 29]",188.7911147,15014,134,1,26,10,1.7273375741920205
undo,55,31,1,0,0,8,"[0, 14, 27, 8]",4,20,"[1, 3, 5, 6, 7, 10, 11, 12, 13, 16, 17, 18, 19, 20, 21, 22, 24, 25, 28, 29]",224.6380114,15148,134,1,36,10,2.1665048452331277
undo,55,31,0,0,0,18,"[0, 14, 27, 8, 18]",5,15,"[1, 5, 6, 7, 11, 12, 13, 16, 17, 19, 20, 22, 25, 28, 29]",188.7911147,17092,1944,1,26,10,1.7273375741920205
