condition,trial_id,map_id,undoIndicator,submit,checkEnd,currentChoice,chosen_all,n_city_all,n_within_reach,cities_reach,currentBudget,time_all,rt_all,n_opt_paths_all,n_subopt_paths_all,mas_all,tortuosity_all
undo,0,29,0,0,0,0,[0],1,29,"[1, 2, 3, 4, 5, 6, 7, 8, 9, 10, 11, 12, 13, 14, 15, 16, 17, 18, 19, 20, 21, 22, 23, 24, 25, 26, 27, 28, 29]",300,94,-1,1,78,9,0.0
undo,0,29,0,0,0,6,"[0, 6]",2,28,"[1, 2, 3, 4, 5, 7, 8, 9, 10, 11, 12, 13, 14, 15, 16, 17, 18, 19, 20, 21, 22, 23, 24, 25, 26, 27, 28, 29]",228.4108947,15055,14961,1,25,9,1.0
undo,0,29,0,0,0,28,"[0, 6, 28]",3,24,"[1, 3, 4, 5, 7, 9, 10, 11, 12, 13, 14, 15, 16, 17, 18, 20, 21, 22, 23, 24, 25, 26, 27, 29]",187.1798384,16678,1623,1,22,9,1.162106788166845
undo,0,29,0,0,0,27,"[0, 6, 28, 27]",4,19,"[1, 3, 4, 5, 7, 9, 10, 11, 12, 13, 14, 15, 16, 21, 22, 23, 25, 26, 29]",166.6615539,18054,1376,1,21,9,1.2307173895439045
undo,0,29,0,0,0,22,"[0, 6, 28, 27, 22]",5,13,"[1, 3, 4, 5, 7, 9, 12, 13, 14, 15, 21, 26, 29]",133.4200136,19398,1344,1,19,9,1.4241767805149903
undo,0,29,0,0,0,12,"[0, 6, 28, 27, 22, 12]",6,8,"[4, 5, 7, 9, 13, 14, 21, 26]",95.4726817,25303,5905,1,6,9,1.3248355326460857
undo,0,29,0,0,0,7,"[0, 6, 28, 27, 22, 12, 7]",7,4,"[4, 5, 9, 21]",81.87121119,26654,1351,1,3,9,1.3264091962339806
undo,0,29,0,0,0,9,"[0, 6, 28, 27, 22, 12, 7, 9]",8,1,[4],52.80232748,27950,1296,1,0,9,1.309391257644539
undo,0,29,0,0,1,4,"[0, 6, 28, 27, 22, 12, 7, 9, 4]",9,0,[],11.76575843,29190,1240,1,0,9,1.6396807789841599
undo,0,29,0,1,1,4,"[0, 6, 28, 27, 22, 12, 7, 9, 4]",9,0,[],11.76575843,31420,2230,1,0,9,1.6396807789841599
undo,1,25,0,0,0,0,[0],1,28,"[1, 2, 3, 4, 5, 7, 8, 9, 10, 11, 12, 13, 14, 15, 16, 17, 18, 19, 20, 21, 22, 23, 24, 25, 26, 27, 28, 29]",300,95,-1,5,94,10,0.0
undo,1,25,0,0,0,19,"[0, 19]",2,27,"[1, 2, 3, 4, 5, 7, 8, 9, 10, 11, 12, 13, 14, 15, 16, 17, 18, 20, 21, 22, 23, 24, 25, 26, 27, 28, 29]",251.9479449,18226,18131,2,30,10,1.0
undo,1,25,0,0,0,29,"[0, 19, 29]",3,26,"[1, 2, 3, 4, 5, 7, 8, 9, 10, 11, 12, 13, 14, 15, 16, 17, 18, 20, 21, 22, 23, 24, 25, 26, 27, 28]",235.6691243,19402,1176,2,22,10,1.0272252084351727
undo,1,25,0,0,0,22,"[0, 19, 29, 22]",4,24,"[1, 2, 3, 4, 5, 7, 8, 9, 11, 12, 13, 14, 15, 16, 17, 18, 20, 21, 23, 24, 25, 26, 27, 28]",219.5446088,20202,800,2,17,10,1.03988854593305
undo,1,25,0,0,0,7,"[0, 19, 29, 22, 7]",5,10,"[1, 3, 5, 8, 9, 11, 13, 23, 24, 28]",143.9007062,21659,1457,2,14,10,1.3318974800137366
undo,1,25,0,0,0,24,"[0, 19, 29, 22, 7, 24]",6,7,"[3, 8, 9, 11, 13, 23, 28]",119.1418694,22602,943,2,9,10,1.2868309735722725
undo,1,25,0,0,0,9,"[0, 19, 29, 22, 7, 24, 9]",7,4,"[3, 8, 13, 28]",101.114113,23707,1105,2,7,10,1.2740198715343065
undo,1,25,0,0,0,3,"[0, 19, 29, 22, 7, 24, 9, 3]",8,3,"[8, 13, 28]",70.84862112,24826,1119,2,1,10,1.2376259292234586
undo,1,25,0,0,0,28,"[0, 19, 29, 22, 7, 24, 9, 3, 28]",9,1,[13],39.54366943,26514,1688,1,0,10,1.203625519961748
undo,1,25,0,0,1,13,"[0, 19, 29, 22, 7, 24, 9, 3, 28, 13]",10,0,[],5.309183897,30882,4368,1,0,10,1.4620578920005771
undo,1,25,0,1,1,13,"[0, 19, 29, 22, 7, 24, 9, 3, 28, 13]",10,0,[],5.309183897,33289,2407,1,0,10,1.4620578920005771
undo,2,2,0,0,0,0,[0],1,23,"[1, 2, 4, 5, 6, 7, 8, 9, 12, 13, 15, 16, 17, 18, 19, 20, 22, 23, 25, 26, 27, 28, 29]",300,96,-1,70,620,10,0.0
undo,2,2,0,0,0,19,"[0, 19]",2,22,"[1, 2, 4, 5, 6, 7, 8, 9, 12, 13, 15, 16, 17, 18, 20, 22, 23, 25, 26, 27, 28, 29]",210.306076,3681,3585,67,431,10,1.0
undo,2,2,0,0,0,12,"[0, 19, 12]",3,17,"[1, 4, 5, 6, 7, 13, 15, 16, 17, 18, 20, 22, 25, 26, 27, 28, 29]",174.2921898,4769,1088,66,298,10,1.1107635036313153
undo,2,2,0,0,0,5,"[0, 19, 12, 5]",4,11,"[1, 6, 7, 13, 15, 16, 18, 22, 25, 26, 29]",144.7625437,6065,1296,38,136,10,1.0968174771581647
undo,2,2,0,0,0,22,"[0, 19, 12, 5, 22]",5,8,"[1, 6, 7, 13, 15, 18, 26, 29]",131.9562952,7225,1160,20,63,10,1.0889910507461968
undo,2,2,0,0,0,13,"[0, 19, 12, 5, 22, 13]",6,7,"[1, 6, 7, 15, 18, 26, 29]",117.0902265,8337,1112,19,20,10,1.236526217328057
undo,2,2,0,0,0,18,"[0, 19, 12, 5, 22, 13, 18]",7,4,"[7, 15, 26, 29]",81.91921567,9449,1112,10,3,10,1.2128708213409936
undo,2,2,0,0,0,7,"[0, 19, 12, 5, 22, 13, 18, 7]",8,3,"[15, 26, 29]",71.62358553,11449,2000,5,0,10,1.2019811287894737
undo,2,2,0,0,0,26,"[0, 19, 12, 5, 22, 13, 18, 7, 26]",9,2,"[15, 29]",48.82007703,18930,7481,2,0,10,1.1883593342191134
undo,2,2,0,0,1,15,"[0, 19, 12, 5, 22, 13, 18, 7, 26, 15]",10,0,[],24.61264015,19833,903,1,0,10,1.4619750353663825
undo,2,2,0,1,1,15,"[0, 19, 12, 5, 22, 13, 18, 7, 26, 15]",10,0,[],24.61264015,23297,3464,1,0,10,1.4619750353663825
undo,3,30,0,0,0,0,[0],1,19,"[3, 4, 5, 7, 9, 11, 16, 17, 18, 19, 20, 21, 22, 24, 25, 26, 27, 28, 29]",300,95,-1,5,41,8,0.0
undo,3,30,0,0,0,25,"[0, 25]",2,12,"[3, 5, 7, 9, 11, 16, 18, 19, 20, 24, 27, 29]",121.1005869,9504,9409,7,37,7,1.0
undo,3,30,0,0,0,27,"[0, 25, 27]",3,8,"[3, 5, 7, 18, 19, 20, 24, 29]",81.54050603,10424,920,2,17,7,1.0432445497342653
undo,3,30,0,0,0,3,"[0, 25, 27, 3]",4,5,"[5, 7, 18, 20, 29]",62.43553286,11944,1520,2,6,7,1.0419393955972533
undo,3,30,0,0,0,29,"[0, 25, 27, 3, 29]",5,3,"[5, 7, 18]",43.83445762,12879,935,1,2,7,1.0521853644580021
undo,3,30,0,0,0,18,"[0, 25, 27, 3, 29, 18]",6,1,[5],24.5212497,14495,1616,1,0,7,1.1278751785159948
undo,3,30,0,0,1,5,"[0, 25, 27, 3, 29, 18, 5]",7,0,[],11.48284489,16599,2104,1,0,7,1.1931367962604076
undo,3,30,1,0,0,18,"[0, 25, 27, 3, 29, 18]",6,1,[5],24.5212497,24894,8295,1,0,7,1.1278751785159948
undo,3,30,1,0,0,29,"[0, 25, 27, 3, 29]",5,3,"[5, 7, 18]",43.83445762,25387,493,1,2,7,1.0521853644580021
undo,3,30,1,0,0,3,"[0, 25, 27, 3]",4,5,"[5, 7, 18, 20, 29]",62.43553286,25859,472,2,6,7,1.0419393955972533
undo,3,30,1,0,0,27,"[0, 25, 27]",3,8,"[3, 5, 7, 18, 19, 20, 24, 29]",81.54050603,26310,451,2,17,7,1.0432445497342653
undo,3,30,1,0,0,25,"[0, 25]",2,12,"[3, 5, 7, 9, 11, 16, 18, 19, 20, 24, 27, 29]",121.1005869,36212,9902,7,37,7,1.0
undo,3,30,1,0,0,0,[0],1,19,"[3, 4, 5, 7, 9, 11, 16, 17, 18, 19, 20, 21, 22, 24, 25, 26, 27, 28, 29]",300,45309,9097,5,41,8,0.0
undo,3,30,0,0,0,27,"[0, 27]",2,10,"[3, 5, 7, 9, 18, 19, 20, 24, 25, 29]",90.59608409,47047,1738,7,22,6,1.0
undo,3,30,0,0,0,3,"[0, 27, 3]",3,8,"[5, 7, 18, 19, 20, 24, 25, 29]",71.49111091,51703,4656,5,9,6,1.0022223300201003
undo,3,30,0,0,0,5,"[0, 27, 3, 5]",4,4,"[7, 18, 24, 29]",46.65162621,54343,2640,1,3,6,1.047699458031665
undo,3,30,0,0,0,18,"[0, 27, 3, 5, 18]",5,1,[29],33.6132214,55415,1072,1,0,6,1.0906504953306948
undo,3,30,0,0,1,29,"[0, 27, 3, 5, 18, 29]",6,0,[],14.30001349,56239,824,1,0,6,1.1734964103241567
undo,3,30,1,0,0,18,"[0, 27, 3, 5, 18]",5,1,[29],33.6132214,57073,834,1,0,6,1.0906504953306948
undo,3,30,1,0,0,5,"[0, 27, 3, 5]",4,4,"[7, 18, 24, 29]",46.65162621,57622,549,1,3,6,1.047699458031665
undo,3,30,1,0,0,3,"[0, 27, 3]",3,8,"[5, 7, 18, 19, 20, 24, 25, 29]",71.49111091,57941,319,5,9,6,1.0022223300201003
undo,3,30,1,0,0,27,"[0, 27]",2,10,"[3, 5, 7, 9, 18, 19, 20, 24, 25, 29]",90.59608409,58413,472,7,22,6,1.0
undo,3,30,1,0,0,0,[0],1,19,"[3, 4, 5, 7, 9, 11, 16, 17, 18, 19, 20, 21, 22, 24, 25, 26, 27, 28, 29]",300,59948,1535,5,41,8,0.0
undo,3,30,0,0,0,26,"[0, 26]",2,15,"[3, 5, 9, 11, 16, 17, 18, 19, 20, 21, 22, 25, 27, 28, 29]",208.2939479,64799,4851,5,27,6,1.0
undo,3,30,0,0,0,17,"[0, 26, 17]",3,2,"[11, 22]",106.3282674,66223,1424,1,1,5,1.0269053349018842
undo,3,30,0,0,0,22,"[0, 26, 17, 22]",4,1,[11],87.09288329,67088,865,1,0,5,1.0667647841987975
undo,3,30,0,0,1,11,"[0, 26, 17, 22, 11]",5,0,[],11.29050866,68215,1127,1,0,5,1.620200194141416
undo,3,30,1,0,0,22,"[0, 26, 17, 22]",4,1,[11],87.09288329,68864,649,1,0,5,1.0667647841987975
undo,3,30,1,0,0,17,"[0, 26, 17]",3,2,"[11, 22]",106.3282674,69184,320,1,1,5,1.0269053349018842
undo,3,30,1,0,0,26,"[0, 26]",2,15,"[3, 5, 9, 11, 16, 17, 18, 19, 20, 21, 22, 25, 27, 28, 29]",208.2939479,69566,382,5,27,6,1.0
undo,3,30,1,0,0,0,[0],1,19,"[3, 4, 5, 7, 9, 11, 16, 17, 18, 19, 20, 21, 22, 24, 25, 26, 27, 28, 29]",300,69996,430,5,41,8,0.0
undo,3,30,0,0,0,16,"[0, 16]",2,17,"[3, 5, 7, 9, 11, 17, 18, 19, 20, 21, 22, 24, 25, 26, 27, 28, 29]",219.3774225,72575,2579,5,34,8,1.0
undo,3,30,0,0,0,25,"[0, 16, 25]",3,10,"[3, 5, 7, 9, 11, 18, 19, 20, 27, 29]",115.0845656,75367,2792,5,28,8,1.0336279544884488
undo,3,30,0,0,0,27,"[0, 16, 25, 27]",4,7,"[3, 5, 7, 18, 19, 20, 29]",75.52448473,76975,1608,1,12,8,1.0719738181137488
undo,3,30,0,0,0,3,"[0, 16, 25, 27, 3]",5,5,"[5, 7, 18, 20, 29]",56.41951155,77943,968,1,4,8,1.0683252001879187
undo,3,30,0,0,0,29,"[0, 16, 25, 27, 3, 29]",6,2,"[5, 18]",37.81843632,79007,1064,1,1,8,1.0768958290478794
undo,3,30,0,0,0,18,"[0, 16, 25, 27, 3, 29, 18]",7,1,[5],18.5052284,80519,1512,1,0,8,1.1525061930327378
undo,3,30,0,0,1,5,"[0, 16, 25, 27, 3, 29, 18, 5]",8,0,[],5.466823591,81583,1064,1,0,8,1.2180155123152177
undo,3,30,0,1,1,5,"[0, 16, 25, 27, 3, 29, 18, 5]",8,0,[],5.466823591,84357,2774,1,0,8,1.2180155123152177
undo,4,1,0,0,0,0,[0],1,26,"[1, 2, 4, 5, 7, 8, 9, 10, 11, 12, 13, 14, 15, 16, 17, 18, 19, 20, 21, 22, 23, 24, 25, 26, 28, 29]",300,92,-1,6,74,7,0.0
undo,4,1,0,0,0,8,"[0, 8]",2,23,"[1, 4, 5, 7, 9, 10, 11, 12, 13, 14, 15, 16, 17, 18, 19, 20, 21, 23, 24, 25, 26, 28, 29]",202,7310,7218,1,16,7,1.0
undo,4,1,0,0,0,20,"[0, 8, 20]",3,12,"[1, 4, 5, 11, 13, 14, 15, 17, 18, 19, 28, 29]",125.9408125,8310,1000,1,7,7,1.02364736730791
undo,4,1,0,0,0,5,"[0, 8, 20, 5]",4,7,"[1, 4, 11, 13, 17, 18, 29]",104.469902,9390,1080,1,3,7,1.0439599203945713
undo,4,1,0,0,0,18,"[0, 8, 20, 5, 18]",5,2,"[4, 29]",81.64447755,10102,712,1,1,7,1.0840407791793756
undo,4,1,0,0,0,4,"[0, 8, 20, 5, 18, 4]",6,1,[29],42.69579336,11239,1137,1,0,7,1.0902329133216275
undo,4,1,0,0,1,29,"[0, 8, 20, 5, 18, 4, 29]",7,0,[],6.640280603,15039,3800,1,0,7,1.2859729622882756
undo,4,1,1,0,0,4,"[0, 8, 20, 5, 18, 4]",6,1,[29],42.69579336,16197,1158,1,0,7,1.0902329133216275
undo,4,1,1,0,0,18,"[0, 8, 20, 5, 18]",5,2,"[4, 29]",81.64447755,16461,264,1,1,7,1.0840407791793756
undo,4,1,1,0,0,5,"[0, 8, 20, 5]",4,7,"[1, 4, 11, 13, 17, 18, 29]",104.469902,16641,180,1,3,7,1.0439599203945713
undo,4,1,1,0,0,20,"[0, 8, 20]",3,12,"[1, 4, 5, 11, 13, 14, 15, 17, 18, 19, 28, 29]",125.9408125,16849,208,1,7,7,1.02364736730791
undo,4,1,1,0,0,8,"[0, 8]",2,23,"[1, 4, 5, 7, 9, 10, 11, 12, 13, 14, 15, 16, 17, 18, 19, 20, 21, 23, 24, 25, 26, 28, 29]",202,17162,313,1,16,7,1.0
undo,4,1,1,0,0,0,[0],1,26,"[1, 2, 4, 5, 7, 8, 9, 10, 11, 12, 13, 14, 15, 16, 17, 18, 19, 20, 21, 22, 23, 24, 25, 26, 28, 29]",300,17856,694,6,74,7,0.0
undo,4,1,0,0,0,14,"[0, 14]",2,19,"[1, 4, 5, 8, 9, 13, 15, 17, 18, 19, 20, 21, 22, 23, 24, 25, 26, 28, 29]",200.1901808,19207,1351,5,42,7,1.0
undo,4,1,0,0,0,17,"[0, 14, 17]",3,15,"[1, 4, 5, 8, 9, 13, 15, 18, 19, 20, 22, 23, 25, 28, 29]",147.8356204,20351,1144,5,27,7,1.0028844724416826
undo,4,1,0,0,0,1,"[0, 14, 17, 1]",4,12,"[4, 5, 8, 9, 15, 18, 20, 22, 23, 25, 28, 29]",123.4840291,21031,680,5,15,7,1.0264985578353567
undo,4,1,0,0,0,28,"[0, 14, 17, 1, 28]",5,5,"[9, 15, 22, 23, 29]",88.59850198,21951,920,5,3,7,1.0339861575999345
undo,4,1,0,0,0,23,"[0, 14, 17, 1, 28, 23]",6,2,"[15, 22]",51.70676849,22847,896,2,0,7,1.0327458250705703
undo,4,1,0,0,1,15,"[0, 14, 17, 1, 28, 23, 15]",7,0,[],20.81987807,23871,1024,1,0,7,1.1948681641401226
undo,4,1,1,0,0,23,"[0, 14, 17, 1, 28, 23]",6,2,"[15, 22]",51.70676849,26648,2777,2,0,7,1.0327458250705703
undo,4,1,1,0,0,28,"[0, 14, 17, 1, 28]",5,5,"[9, 15, 22, 23, 29]",88.59850198,26912,264,5,3,7,1.0339861575999345
undo,4,1,1,0,0,1,"[0, 14, 17, 1]",4,12,"[4, 5, 8, 9, 15, 18, 20, 22, 23, 25, 28, 29]",123.4840291,27183,271,5,15,7,1.0264985578353567
undo,4,1,1,0,0,17,"[0, 14, 17]",3,15,"[1, 4, 5, 8, 9, 13, 15, 18, 19, 20, 22, 23, 25, 28, 29]",147.8356204,27467,284,5,27,7,1.0028844724416826
undo,4,1,1,0,0,14,"[0, 14]",2,19,"[1, 4, 5, 8, 9, 13, 15, 17, 18, 19, 20, 21, 22, 23, 24, 25, 26, 28, 29]",200.1901808,27759,292,5,42,7,1.0
undo,4,1,1,0,0,0,[0],1,26,"[1, 2, 4, 5, 7, 8, 9, 10, 11, 12, 13, 14, 15, 16, 17, 18, 19, 20, 21, 22, 23, 24, 25, 26, 28, 29]",300,28127,368,6,74,7,0.0
undo,4,1,0,0,0,24,"[0, 24]",2,8,"[5, 7, 8, 14, 16, 19, 20, 26]",185.4137879,31055,2928,9,13,5,1.0
undo,4,1,0,0,0,26,"[0, 24, 26]",3,6,"[5, 8, 14, 16, 19, 20]",152.1722476,32038,983,7,4,5,1.502125301442057
undo,4,1,0,0,0,19,"[0, 24, 26, 19]",4,4,"[5, 8, 16, 20]",113.5458318,32703,665,4,0,5,1.5438989781695114
undo,4,1,0,0,1,8,"[0, 24, 26, 19, 8]",5,0,[],60.39510274,33886,1183,1,0,5,2.44494793122449
undo,4,1,1,0,0,19,"[0, 24, 26, 19]",4,4,"[5, 8, 16, 20]",113.5458318,35391,1505,4,0,5,1.5438989781695114
undo,4,1,1,0,0,26,"[0, 24, 26]",3,6,"[5, 8, 14, 16, 19, 20]",152.1722476,35752,361,7,4,5,1.502125301442057
undo,4,1,1,0,0,24,"[0, 24]",2,8,"[5, 7, 8, 14, 16, 19, 20, 26]",185.4137879,36099,347,9,13,5,1.0
undo,4,1,1,0,0,0,[0],1,26,"[1, 2, 4, 5, 7, 8, 9, 10, 11, 12, 13, 14, 15, 16, 17, 18, 19, 20, 21, 22, 23, 24, 25, 26, 28, 29]",300,36446,347,6,74,7,0.0
undo,4,1,0,0,0,11,"[0, 11]",2,2,"[10, 12]",26.91027116,40567,4121,2,0,3,1.0
undo,4,1,0,0,1,12,"[0, 11, 12]",3,0,[],0.7377665,41591,1024,1,0,3,1.0003177359120887
undo,4,1,1,0,0,11,"[0, 11]",2,2,"[10, 12]",26.91027116,42467,876,2,0,3,1.0
undo,4,1,1,0,0,0,[0],1,26,"[1, 2, 4, 5, 7, 8, 9, 10, 11, 12, 13, 14, 15, 16, 17, 18, 19, 20, 21, 22, 23, 24, 25, 26, 28, 29]",300,42835,368,6,74,7,0.0
undo,4,1,0,0,0,8,"[0, 8]",2,23,"[1, 4, 5, 7, 9, 10, 11, 12, 13, 14, 15, 16, 17, 18, 19, 20, 21, 23, 24, 25, 26, 28, 29]",202,48399,5564,1,16,7,1.0
undo,4,1,0,0,0,20,"[0, 8, 20]",3,12,"[1, 4, 5, 11, 13, 14, 15, 17, 18, 19, 28, 29]",125.9408125,49760,1361,1,7,7,1.02364736730791
undo,4,1,0,0,0,5,"[0, 8, 20, 5]",4,7,"[1, 4, 11, 13, 17, 18, 29]",104.469902,50518,758,1,3,7,1.0439599203945713
undo,4,1,0,0,0,18,"[0, 8, 20, 5, 18]",5,2,"[4, 29]",81.64447755,51671,1153,1,1,7,1.0840407791793756
undo,4,1,0,0,0,4,"[0, 8, 20, 5, 18, 4]",6,1,[29],42.69579336,53175,1504,1,0,7,1.0902329133216275
undo,4,1,0,0,1,29,"[0, 8, 20, 5, 18, 4, 29]",7,0,[],6.640280603,54591,1416,1,0,7,1.2859729622882756
undo,4,1,1,0,0,4,"[0, 8, 20, 5, 18, 4]",6,1,[29],42.69579336,58126,3535,1,0,7,1.0902329133216275
undo,4,1,1,0,0,18,"[0, 8, 20, 5, 18]",5,2,"[4, 29]",81.64447755,58522,396,1,1,7,1.0840407791793756
undo,4,1,1,0,0,5,"[0, 8, 20, 5]",4,7,"[1, 4, 11, 13, 17, 18, 29]",104.469902,58779,257,1,3,7,1.0439599203945713
undo,4,1,1,0,0,20,"[0, 8, 20]",3,12,"[1, 4, 5, 11, 13, 14, 15, 17, 18, 19, 28, 29]",125.9408125,59043,264,1,7,7,1.02364736730791
undo,4,1,1,0,0,8,"[0, 8]",2,23,"[1, 4, 5, 7, 9, 10, 11, 12, 13, 14, 15, 16, 17, 18, 19, 20, 21, 23, 24, 25, 26, 28, 29]",202,59376,333,1,16,7,1.0
undo,4,1,1,0,0,0,[0],1,26,"[1, 2, 4, 5, 7, 8, 9, 10, 11, 12, 13, 14, 15, 16, 17, 18, 19, 20, 21, 22, 23, 24, 25, 26, 28, 29]",300,59904,528,6,74,7,0.0
undo,4,1,0,0,0,14,"[0, 14]",2,19,"[1, 4, 5, 8, 9, 13, 15, 17, 18, 19, 20, 21, 22, 23, 24, 25, 26, 28, 29]",200.1901808,60830,926,5,42,7,1.0
undo,4,1,0,0,0,17,"[0, 14, 17]",3,15,"[1, 4, 5, 8, 9, 13, 15, 18, 19, 20, 22, 23, 25, 28, 29]",147.8356204,62111,1281,5,27,7,1.0028844724416826
undo,4,1,0,0,0,1,"[0, 14, 17, 1]",4,12,"[4, 5, 8, 9, 15, 18, 20, 22, 23, 25, 28, 29]",123.4840291,63023,912,5,15,7,1.0264985578353567
undo,4,1,0,0,0,28,"[0, 14, 17, 1, 28]",5,5,"[9, 15, 22, 23, 29]",88.59850198,65063,2040,5,3,7,1.0339861575999345
undo,4,1,0,0,0,15,"[0, 14, 17, 1, 28, 15]",6,3,"[22, 23, 29]",53.37067208,66015,952,3,0,7,1.055553419196412
undo,4,1,0,0,1,22,"[0, 14, 17, 1, 28, 15, 22]",7,0,[],10.09250206,67607,1592,1,0,7,1.0469795997475408
undo,4,1,1,0,0,15,"[0, 14, 17, 1, 28, 15]",6,3,"[22, 23, 29]",53.37067208,69182,1575,3,0,7,1.055553419196412
undo,4,1,1,0,0,28,"[0, 14, 17, 1, 28]",5,5,"[9, 15, 22, 23, 29]",88.59850198,69473,291,5,3,7,1.0339861575999345
undo,4,1,1,0,0,1,"[0, 14, 17, 1]",4,12,"[4, 5, 8, 9, 15, 18, 20, 22, 23, 25, 28, 29]",123.4840291,69716,243,5,15,7,1.0264985578353567
undo,4,1,1,0,0,17,"[0, 14, 17]",3,15,"[1, 4, 5, 8, 9, 13, 15, 18, 19, 20, 22, 23, 25, 28, 29]",147.8356204,69959,243,5,27,7,1.0028844724416826
undo,4,1,1,0,0,14,"[0, 14]",2,19,"[1, 4, 5, 8, 9, 13, 15, 17, 18, 19, 20, 21, 22, 23, 24, 25, 26, 28, 29]",200.1901808,70216,257,5,42,7,1.0
undo,4,1,1,0,0,0,[0],1,26,"[1, 2, 4, 5, 7, 8, 9, 10, 11, 12, 13, 14, 15, 16, 17, 18, 19, 20, 21, 22, 23, 24, 25, 26, 28, 29]",300,70598,382,6,74,7,0.0
undo,4,1,0,0,0,8,"[0, 8]",2,23,"[1, 4, 5, 7, 9, 10, 11, 12, 13, 14, 15, 16, 17, 18, 19, 20, 21, 23, 24, 25, 26, 28, 29]",202,72990,2392,1,16,7,1.0
undo,4,1,0,0,0,14,"[0, 8, 14]",3,12,"[1, 5, 9, 15, 17, 18, 19, 20, 25, 26, 28, 29]",138.1094686,74958,1968,2,11,6,1.6219900283216735
undo,4,1,0,0,0,17,"[0, 8, 14, 17]",4,6,"[1, 15, 18, 20, 28, 29]",85.75490817,76302,1344,1,5,6,1.4120458181998161
undo,4,1,0,0,0,1,"[0, 8, 14, 17, 1]",5,1,[28],61.40331685,77326,1024,1,0,6,1.3875183639701723
undo,4,1,0,0,1,28,"[0, 8, 14, 17, 1, 28]",6,0,[],26.51778976,78142,816,1,0,6,1.3376292144876023
undo,4,1,1,0,0,1,"[0, 8, 14, 17, 1]",5,1,[28],61.40331685,80007,1865,1,0,6,1.3875183639701723
undo,4,1,1,0,0,17,"[0, 8, 14, 17]",4,6,"[1, 15, 18, 20, 28, 29]",85.75490817,80278,271,1,5,6,1.4120458181998161
undo,4,1,1,0,0,14,"[0, 8, 14]",3,12,"[1, 5, 9, 15, 17, 18, 19, 20, 25, 26, 28, 29]",138.1094686,80500,222,2,11,6,1.6219900283216735
undo,4,1,1,0,0,8,"[0, 8]",2,23,"[1, 4, 5, 7, 9, 10, 11, 12, 13, 14, 15, 16, 17, 18, 19, 20, 21, 23, 24, 25, 26, 28, 29]",202,80854,354,1,16,7,1.0
undo,4,1,1,0,0,0,[0],1,26,"[1, 2, 4, 5, 7, 8, 9, 10, 11, 12, 13, 14, 15, 16, 17, 18, 19, 20, 21, 22, 23, 24, 25, 26, 28, 29]",300,81618,764,6,74,7,0.0
undo,4,1,0,0,0,24,"[0, 24]",2,8,"[5, 7, 8, 14, 16, 19, 20, 26]",185.4137879,85470,3852,9,13,5,1.0
undo,4,1,0,0,0,26,"[0, 24, 26]",3,6,"[5, 8, 14, 16, 19, 20]",152.1722476,86231,761,7,4,5,1.502125301442057
undo,4,1,0,0,0,19,"[0, 24, 26, 19]",4,4,"[5, 8, 16, 20]",113.5458318,87574,1343,4,0,5,1.5438989781695114
undo,4,1,0,0,1,8,"[0, 24, 26, 19, 8]",5,0,[],60.39510274,88582,1008,1,0,5,2.44494793122449
undo,4,1,1,0,0,19,"[0, 24, 26, 19]",4,4,"[5, 8, 16, 20]",113.5458318,90687,2105,4,0,5,1.5438989781695114
undo,4,1,1,0,0,26,"[0, 24, 26]",3,6,"[5, 8, 14, 16, 19, 20]",152.1722476,90958,271,7,4,5,1.502125301442057
undo,4,1,1,0,0,24,"[0, 24]",2,8,"[5, 7, 8, 14, 16, 19, 20, 26]",185.4137879,91486,528,9,13,5,1.0
undo,4,1,1,0,0,0,[0],1,26,"[1, 2, 4, 5, 7, 8, 9, 10, 11, 12, 13, 14, 15, 16, 17, 18, 19, 20, 21, 22, 23, 24, 25, 26, 28, 29]",300,91778,292,6,74,7,0.0
undo,4,1,0,0,0,19,"[0, 19]",2,14,"[1, 4, 5, 7, 8, 11, 14, 16, 17, 18, 20, 24, 26, 29]",179.2316267,94998,3220,1,16,6,1.0
undo,4,1,0,0,0,8,"[0, 19, 8]",3,8,"[1, 5, 14, 17, 18, 20, 24, 26]",126.0808976,95614,616,1,6,6,1.7746847183673469
undo,4,1,0,0,0,20,"[0, 19, 8, 20]",4,2,"[5, 18]",50.02171011,96695,1081,1,1,6,1.4701299138836441
undo,4,1,0,0,0,5,"[0, 19, 8, 20, 5]",5,1,[18],28.55079956,98158,1463,1,0,6,1.44930160922086
undo,4,1,0,0,1,18,"[0, 19, 8, 20, 5, 18]",6,0,[],5.725375139,98998,840,1,0,6,1.4609463046673536
undo,4,1,1,0,0,5,"[0, 19, 8, 20, 5]",5,1,[18],28.55079956,99889,891,1,0,6,1.44930160922086
undo,4,1,1,0,0,20,"[0, 19, 8, 20]",4,2,"[5, 18]",50.02171011,100118,229,1,1,6,1.4701299138836441
undo,4,1,1,0,0,8,"[0, 19, 8]",3,8,"[1, 5, 14, 17, 18, 20, 24, 26]",126.0808976,100375,257,1,6,6,1.7746847183673469
undo,4,1,1,0,0,19,"[0, 19]",2,14,"[1, 4, 5, 7, 8, 11, 14, 16, 17, 18, 20, 24, 26, 29]",179.2316267,100708,333,1,16,6,1.0
undo,4,1,1,0,0,0,[0],1,26,"[1, 2, 4, 5, 7, 8, 9, 10, 11, 12, 13, 14, 15, 16, 17, 18, 19, 20, 21, 22, 23, 24, 25, 26, 28, 29]",300,101340,632,6,74,7,0.0
undo,4,1,0,0,0,20,"[0, 20]",2,13,"[1, 4, 5, 8, 11, 13, 14, 15, 17, 18, 19, 28, 29]",129.961769,102678,1338,2,11,6,1.0
undo,4,1,0,0,0,5,"[0, 20, 5]",3,9,"[1, 4, 8, 11, 13, 17, 18, 19, 29]",108.4908585,103598,920,2,6,6,1.0224915251419384
undo,4,1,0,0,0,18,"[0, 20, 5, 18]",4,4,"[4, 13, 17, 29]",85.66543403,104790,1192,2,3,6,1.064078468417926
undo,4,1,0,0,0,4,"[0, 20, 5, 18, 4]",5,2,"[13, 29]",46.71674984,106254,1464,2,0,6,1.0731955739217967
undo,4,1,0,0,1,29,"[0, 20, 5, 18, 4, 29]",6,0,[],10.66123709,107814,1560,1,0,6,1.268346679663489
undo,4,1,1,0,0,4,"[0, 20, 5, 18, 4]",5,2,"[13, 29]",46.71674984,109361,1547,2,0,6,1.0731955739217967
undo,4,1,0,0,1,13,"[0, 20, 5, 18, 4, 13]",6,0,[],2.332067799,110383,1022,1,0,6,1.0623276828380515
undo,4,1,1,0,0,4,"[0, 20, 5, 18, 4]",5,2,"[13, 29]",46.71674984,112256,1873,2,0,6,1.0731955739217967
undo,4,1,1,0,0,18,"[0, 20, 5, 18]",4,4,"[4, 13, 17, 29]",85.66543403,112583,327,2,3,6,1.064078468417926
undo,4,1,1,0,0,5,"[0, 20, 5]",3,9,"[1, 4, 8, 11, 13, 17, 18, 19, 29]",108.4908585,112805,222,2,6,6,1.0224915251419384
undo,4,1,1,0,0,20,"[0, 20]",2,13,"[1, 4, 5, 8, 11, 13, 14, 15, 17, 18, 19, 28, 29]",129.961769,113027,222,2,11,6,1.0
undo,4,1,1,0,0,0,[0],1,26,"[1, 2, 4, 5, 7, 8, 9, 10, 11, 12, 13, 14, 15, 16, 17, 18, 19, 20, 21, 22, 23, 24, 25, 26, 28, 29]",300,113249,222,6,74,7,0.0
undo,4,1,0,0,0,8,"[0, 8]",2,23,"[1, 4, 5, 7, 9, 10, 11, 12, 13, 14, 15, 16, 17, 18, 19, 20, 21, 23, 24, 25, 26, 28, 29]",202,117518,4269,1,16,7,1.0
undo,4,1,0,0,0,20,"[0, 8, 20]",3,12,"[1, 4, 5, 11, 13, 14, 15, 17, 18, 19, 28, 29]",125.9408125,118782,1264,1,7,7,1.02364736730791
undo,4,1,0,0,0,5,"[0, 8, 20, 5]",4,7,"[1, 4, 11, 13, 17, 18, 29]",104.469902,120254,1472,1,3,7,1.0439599203945713
undo,4,1,0,0,0,18,"[0, 8, 20, 5, 18]",5,2,"[4, 29]",81.64447755,121214,960,1,1,7,1.0840407791793756
undo,4,1,0,0,0,4,"[0, 8, 20, 5, 18, 4]",6,1,[29],42.69579336,122758,1544,1,0,7,1.0902329133216275
undo,4,1,0,0,1,29,"[0, 8, 20, 5, 18, 4, 29]",7,0,[],6.640280603,123926,1168,1,0,7,1.2859729622882756
undo,4,1,0,1,1,29,"[0, 8, 20, 5, 18, 4, 29]",7,0,[],6.640280603,125590,1664,1,0,7,1.2859729622882756
undo,5,18,0,0,0,0,[0],1,28,"[1, 2, 3, 4, 5, 6, 7, 8, 9, 10, 11, 12, 13, 14, 16, 17, 18, 19, 20, 21, 22, 23, 24, 25, 26, 27, 28, 29]",300,138,-1,3,136,10,0.0
undo,5,18,0,0,0,28,"[0, 28]",2,16,"[1, 3, 5, 7, 8, 9, 12, 13, 14, 16, 20, 23, 24, 25, 26, 27]",236.4311397,6245,6107,2,19,10,1.0
undo,5,18,0,0,0,7,"[0, 28, 7]",3,15,"[1, 3, 5, 8, 9, 12, 13, 14, 16, 20, 23, 24, 25, 26, 27]",214.4084242,7605,1360,2,17,10,1.4345180696367563
undo,5,18,0,0,0,25,"[0, 28, 7, 25]",4,13,"[1, 3, 5, 8, 9, 12, 13, 14, 16, 20, 23, 26, 27]",186.6055466,9052,1447,2,15,10,1.8896451241781882
undo,5,18,0,0,0,8,"[0, 28, 7, 25, 8]",5,10,"[3, 5, 9, 12, 13, 14, 16, 23, 26, 27]",149.551532,11004,1952,2,10,10,1.590467437592877
undo,5,18,0,0,0,13,"[0, 28, 7, 25, 8, 13]",6,9,"[3, 5, 9, 12, 14, 16, 23, 26, 27]",128.4565089,12213,1209,2,5,10,1.8248274983549797
undo,5,18,0,0,0,14,"[0, 28, 7, 25, 8, 13, 14]",7,7,"[3, 5, 9, 12, 23, 26, 27]",109.4828429,13436,1223,2,3,10,1.6993534956692746
undo,5,18,0,0,0,3,"[0, 28, 7, 25, 8, 13, 14, 3]",8,3,"[5, 12, 27]",79.39962499,14980,1544,2,1,10,1.802637206541468
undo,5,18,0,0,0,5,"[0, 28, 7, 25, 8, 13, 14, 3, 5]",9,1,[12],21.21887216,16293,1313,1,0,10,1.559774889743805
undo,5,18,0,0,1,12,"[0, 28, 7, 25, 8, 13, 14, 3, 5, 12]",10,0,[],9.817117911,17765,1472,1,0,10,1.563993037384447
undo,5,18,0,1,1,12,"[0, 28, 7, 25, 8, 13, 14, 3, 5, 12]",10,0,[],9.817117911,21444,3679,1,0,10,1.563993037384447
undo,6,22,0,0,0,0,[0],1,29,"[1, 2, 3, 4, 5, 6, 7, 8, 9, 10, 11, 12, 13, 14, 15, 16, 17, 18, 19, 20, 21, 22, 23, 24, 25, 26, 27, 28, 29]",300,97,-1,31,704,9,0.0
undo,6,22,0,0,0,16,"[0, 16]",2,21,"[1, 3, 6, 7, 8, 9, 11, 13, 14, 15, 17, 18, 19, 20, 21, 22, 24, 25, 27, 28, 29]",218.605897,4186,4089,17,147,9,1.0
undo,6,22,0,0,0,28,"[0, 16, 28]",3,13,"[6, 7, 9, 13, 14, 17, 19, 20, 21, 22, 24, 25, 29]",184.1675463,5010,824,12,61,9,1.047282311284478
undo,6,22,0,0,0,6,"[0, 16, 28, 6]",4,12,"[7, 9, 13, 14, 17, 19, 20, 21, 22, 24, 25, 29]",154.1675463,5817,807,12,43,9,1.645645870580622
undo,6,22,0,0,0,9,"[0, 16, 28, 6, 9]",5,8,"[7, 14, 17, 19, 20, 21, 24, 29]",127.5404924,8473,2656,8,17,9,1.925750226630103
undo,6,22,0,0,0,19,"[0, 16, 28, 6, 9, 19]",6,6,"[7, 14, 17, 21, 24, 29]",107.1444143,9289,816,3,7,9,2.4220750331476455
undo,6,22,0,0,0,29,"[0, 16, 28, 6, 9, 19, 29]",7,4,"[7, 14, 17, 24]",92.11111796,9994,705,2,2,9,2.6996279574991067
undo,6,22,0,0,0,14,"[0, 16, 28, 6, 9, 19, 29, 14]",8,1,[7],33.86165444,11649,1655,1,0,9,2.0544639927929462
undo,6,22,0,0,1,7,"[0, 16, 28, 6, 9, 19, 29, 14, 7]",9,0,[],20.82324963,12820,1171,1,0,9,2.219817088951114
undo,6,22,0,1,1,7,"[0, 16, 28, 6, 9, 19, 29, 14, 7]",9,0,[],20.82324963,15395,2575,1,0,9,2.219817088951114
undo,7,35,0,0,0,0,[0],1,29,"[1, 2, 3, 4, 5, 6, 7, 8, 9, 10, 11, 12, 13, 14, 15, 16, 17, 18, 19, 20, 21, 22, 23, 24, 25, 26, 27, 28, 29]",300,96,-1,5,236,11,0.0
undo,7,35,0,0,0,24,"[0, 24]",2,27,"[1, 2, 4, 5, 6, 7, 8, 9, 10, 11, 12, 13, 14, 15, 16, 17, 18, 19, 20, 21, 22, 23, 25, 26, 27, 28, 29]",268.9838752,3943,3847,49,512,10,1.0
undo,7,35,0,0,0,17,"[0, 24, 17]",3,26,"[1, 2, 4, 5, 6, 7, 8, 9, 10, 11, 12, 13, 14, 15, 16, 18, 19, 20, 21, 22, 23, 25, 26, 27, 28, 29]",257.2791753,5142,1199,33,238,10,1.0771477201815276
undo,7,35,0,0,0,1,"[0, 24, 17, 1]",4,25,"[2, 4, 5, 6, 7, 8, 9, 10, 11, 12, 13, 14, 15, 16, 18, 19, 20, 21, 22, 23, 25, 26, 27, 28, 29]",241.4677869,6062,920,26,151,10,1.2244804141479215
undo,7,35,0,0,0,15,"[0, 24, 17, 1, 15]",5,23,"[2, 4, 5, 6, 7, 8, 9, 10, 11, 12, 14, 16, 18, 19, 20, 21, 22, 23, 25, 26, 27, 28, 29]",218.6204676,7847,1785,26,78,10,1.4642196672428094
undo,7,35,0,0,0,23,"[0, 24, 17, 1, 15, 23]",6,11,"[4, 5, 6, 9, 18, 19, 25, 26, 27, 28, 29]",158.1804147,9638,1791,15,12,10,1.3338903684702363
undo,7,35,0,0,0,6,"[0, 24, 17, 1, 15, 23, 6]",7,4,"[5, 9, 18, 25]",112.5295658,10511,873,4,2,10,1.2397059724630664
undo,7,35,0,0,0,25,"[0, 24, 17, 1, 15, 23, 6, 25]",8,2,"[9, 18]",88.50874155,11542,1031,2,0,10,1.305974427386027
undo,7,35,0,0,0,18,"[0, 24, 17, 1, 15, 23, 6, 25, 18]",9,1,[9],54.67089291,12646,1104,1,0,10,1.9072277988119046
undo,7,35,0,0,1,9,"[0, 24, 17, 1, 15, 23, 6, 25, 18, 9]",10,0,[],34.64590852,13367,721,1,0,10,2.3604988633102257
undo,7,35,0,1,1,9,"[0, 24, 17, 1, 15, 23, 6, 25, 18, 9]",10,0,[],34.64590852,15894,2527,1,0,10,2.3604988633102257
undo,8,45,0,0,0,0,[0],1,24,"[1, 2, 3, 4, 5, 6, 7, 9, 10, 11, 12, 14, 15, 16, 17, 19, 20, 21, 22, 23, 24, 25, 27, 29]",300,97,-1,6,248,10,0.0
undo,8,45,0,0,0,17,"[0, 17]",2,22,"[1, 2, 3, 4, 5, 6, 7, 9, 10, 11, 12, 14, 15, 16, 19, 20, 21, 22, 23, 24, 25, 29]",235.867325,7026,6929,1,34,10,1.0
undo,8,45,1,0,0,0,[0],1,24,"[1, 2, 3, 4, 5, 6, 7, 9, 10, 11, 12, 14, 15, 16, 17, 19, 20, 21, 22, 23, 24, 25, 27, 29]",300,10659,3633,6,248,10,0.0
undo,8,45,0,0,0,15,"[0, 15]",2,23,"[1, 2, 3, 4, 5, 6, 7, 9, 10, 11, 12, 14, 16, 17, 19, 20, 21, 22, 23, 24, 25, 27, 29]",253.9022777,11497,838,5,207,10,1.0
undo,8,45,0,0,0,23,"[0, 15, 23]",3,22,"[1, 2, 3, 4, 5, 6, 7, 9, 10, 11, 12, 14, 16, 17, 19, 20, 21, 22, 24, 25, 27, 29]",230.3014303,12033,536,5,163,10,1.0006068457769497
undo,8,45,0,0,0,20,"[0, 15, 23, 20]",4,19,"[1, 2, 3, 5, 6, 7, 9, 10, 11, 12, 14, 16, 17, 19, 21, 22, 24, 25, 29]",188.8647316,13042,1009,5,137,10,1.2062119754673604
undo,8,45,0,0,0,24,"[0, 15, 23, 20, 24]",5,14,"[1, 2, 3, 5, 6, 7, 9, 10, 12, 17, 19, 21, 22, 29]",145.0355176,13945,903,1,23,10,1.5044386356496664
undo,8,45,0,0,0,7,"[0, 15, 23, 20, 24, 7]",6,9,"[2, 3, 6, 10, 12, 17, 19, 22, 29]",110.6262165,14657,712,1,22,10,1.4273775035809357
undo,8,45,0,0,0,2,"[0, 15, 23, 20, 24, 7, 2]",7,6,"[3, 6, 10, 12, 22, 29]",72.61306087,15313,656,1,7,10,1.3566457419165387
undo,8,45,0,0,0,3,"[0, 15, 23, 20, 24, 7, 2, 3]",8,4,"[6, 10, 22, 29]",47.29508307,16193,880,1,3,10,1.4087069987569252
undo,8,45,0,0,0,29,"[0, 15, 23, 20, 24, 7, 2, 3, 29]",9,1,[10],27.29508307,17001,808,1,0,10,1.6931989191216303
undo,8,45,0,0,1,10,"[0, 15, 23, 20, 24, 7, 2, 3, 29, 10]",10,0,[],5.754423843,17889,888,1,0,10,1.9996819797033594
undo,8,45,1,0,0,29,"[0, 15, 23, 20, 24, 7, 2, 3, 29]",9,1,[10],27.29508307,19082,1193,1,0,10,1.6931989191216303
undo,8,45,1,0,0,3,"[0, 15, 23, 20, 24, 7, 2, 3]",8,4,"[6, 10, 22, 29]",47.29508307,19332,250,1,3,10,1.4087069987569252
undo,8,45,1,0,0,2,"[0, 15, 23, 20, 24, 7, 2]",7,6,"[3, 6, 10, 12, 22, 29]",72.61306087,19499,167,1,7,10,1.3566457419165387
undo,8,45,1,0,0,7,"[0, 15, 23, 20, 24, 7]",6,9,"[2, 3, 6, 10, 12, 17, 19, 22, 29]",110.6262165,19687,188,1,22,10,1.4273775035809357
undo,8,45,1,0,0,24,"[0, 15, 23, 20, 24]",5,14,"[1, 2, 3, 5, 6, 7, 9, 10, 12, 17, 19, 21, 22, 29]",145.0355176,19853,166,1,23,10,1.5044386356496664
undo,8,45,1,0,0,20,"[0, 15, 23, 20]",4,19,"[1, 2, 3, 5, 6, 7, 9, 10, 11, 12, 14, 16, 17, 19, 21, 22, 24, 25, 29]",188.8647316,20027,174,5,137,10,1.2062119754673604
undo,8,45,1,0,0,23,"[0, 15, 23]",3,22,"[1, 2, 3, 4, 5, 6, 7, 9, 10, 11, 12, 14, 16, 17, 19, 20, 21, 22, 24, 25, 27, 29]",230.3014303,20207,180,5,163,10,1.0006068457769497
undo,8,45,1,0,0,15,"[0, 15]",2,23,"[1, 2, 3, 4, 5, 6, 7, 9, 10, 11, 12, 14, 16, 17, 19, 20, 21, 22, 23, 24, 25, 27, 29]",253.9022777,20568,361,5,207,10,1.0
undo,8,45,1,0,0,0,[0],1,24,"[1, 2, 3, 4, 5, 6, 7, 9, 10, 11, 12, 14, 15, 16, 17, 19, 20, 21, 22, 23, 24, 25, 27, 29]",300,20916,348,6,248,10,0.0
undo,8,45,0,0,0,17,"[0, 17]",2,22,"[1, 2, 3, 4, 5, 6, 7, 9, 10, 11, 12, 14, 15, 16, 19, 20, 21, 22, 23, 24, 25, 29]",235.867325,22177,1261,1,34,10,1.0
undo,8,45,0,0,0,24,"[0, 17, 24]",3,20,"[1, 2, 3, 4, 5, 6, 7, 9, 10, 11, 12, 14, 15, 16, 19, 20, 21, 22, 23, 29]",193.8078433,22921,744,1,33,10,1.0309432256229287
undo,8,45,0,0,0,7,"[0, 17, 24, 7]",4,18,"[1, 2, 3, 4, 5, 6, 9, 10, 12, 14, 15, 16, 19, 20, 21, 22, 23, 29]",159.3985423,23633,712,1,32,10,1.059763151913087
undo,8,45,0,0,0,2,"[0, 17, 24, 7, 2]",5,12,"[3, 4, 6, 10, 12, 14, 16, 19, 20, 22, 23, 29]",121.3853866,24249,616,1,23,10,1.0656581932115423
undo,8,45,0,0,0,3,"[0, 17, 24, 7, 2, 3]",6,8,"[6, 10, 12, 14, 16, 20, 22, 29]",96.06740884,24961,712,1,13,10,1.1368250049574795
undo,8,45,0,0,0,29,"[0, 17, 24, 7, 2, 3, 29]",7,5,"[6, 10, 12, 20, 22]",76.06740884,25737,776,1,5,10,1.390376182346372
undo,8,45,0,0,0,10,"[0, 17, 24, 7, 2, 3, 29, 10]",8,2,"[6, 12]",54.52674961,26609,872,1,1,10,1.6682270697663164
undo,8,45,0,0,0,6,"[0, 17, 24, 7, 2, 3, 29, 10, 6]",9,1,[12],28.27794012,27521,912,1,0,10,1.5776211572942243
undo,8,45,0,0,1,12,"[0, 17, 24, 7, 2, 3, 29, 10, 6, 12]",10,0,[],8.15332832,28563,1042,1,0,10,1.536035114105263
undo,8,45,0,1,1,12,"[0, 17, 24, 7, 2, 3, 29, 10, 6, 12]",10,0,[],8.15332832,34742,6179,1,0,10,1.536035114105263
undo,9,8,0,0,0,0,[0],1,29,"[1, 2, 3, 4, 5, 6, 7, 8, 9, 10, 11, 12, 13, 14, 15, 16, 17, 18, 19, 20, 21, 22, 23, 24, 25, 26, 27, 28, 29]",300,96,-1,10,149,9,0.0
undo,9,8,0,0,0,5,"[0, 5]",2,28,"[1, 2, 3, 4, 6, 7, 8, 9, 10, 11, 12, 13, 14, 15, 16, 17, 18, 19, 20, 21, 22, 23, 24, 25, 26, 27, 28, 29]",254.5137383,4195,4099,10,100,9,1.0
undo,9,8,0,0,0,25,"[0, 5, 25]",3,20,"[1, 2, 3, 4, 6, 11, 12, 14, 15, 16, 17, 18, 19, 20, 21, 22, 23, 24, 28, 29]",215.3091468,5619,1424,4,42,9,1.2272747879909065
undo,9,8,0,0,0,1,"[0, 5, 25, 1]",4,17,"[3, 4, 6, 11, 12, 14, 15, 16, 17, 18, 20, 21, 22, 23, 24, 28, 29]",190.3091468,6267,648,3,24,9,1.1770245007593956
undo,9,8,0,0,0,23,"[0, 5, 25, 1, 23]",5,15,"[3, 4, 6, 11, 14, 15, 16, 17, 18, 20, 21, 22, 24, 28, 29]",167.2874179,7187,920,1,14,9,1.141996583852372
undo,9,8,0,0,0,18,"[0, 5, 25, 1, 23, 18]",6,9,"[3, 4, 11, 14, 15, 16, 17, 24, 28]",125.5261919,7939,752,1,7,9,1.3199166330970717
undo,9,8,0,0,0,28,"[0, 5, 25, 1, 23, 18, 28]",7,1,[16],59.906073,8803,864,1,0,8,1.425373059246715
undo,9,8,0,0,1,16,"[0, 5, 25, 1, 23, 18, 28, 16]",8,0,[],37.54539323,9611,808,1,0,8,1.4175143337764708
undo,9,8,1,0,0,28,"[0, 5, 25, 1, 23, 18, 28]",7,1,[16],59.906073,10728,1117,1,0,8,1.425373059246715
undo,9,8,1,0,0,18,"[0, 5, 25, 1, 23, 18]",6,9,"[3, 4, 11, 14, 15, 16, 17, 24, 28]",125.5261919,10964,236,1,7,9,1.3199166330970717
undo,9,8,1,0,0,23,"[0, 5, 25, 1, 23]",5,15,"[3, 4, 6, 11, 14, 15, 16, 17, 18, 20, 21, 22, 24, 28, 29]",167.2874179,11200,236,1,14,9,1.141996583852372
undo,9,8,1,0,0,1,"[0, 5, 25, 1]",4,17,"[3, 4, 6, 11, 12, 14, 15, 16, 17, 18, 20, 21, 22, 23, 24, 28, 29]",190.3091468,11561,361,3,24,9,1.1770245007593956
undo,9,8,1,0,0,25,"[0, 5, 25]",3,20,"[1, 2, 3, 4, 6, 11, 12, 14, 15, 16, 17, 18, 19, 20, 21, 22, 23, 24, 28, 29]",215.3091468,11922,361,4,42,9,1.2272747879909065
undo,9,8,1,0,0,5,"[0, 5]",2,28,"[1, 2, 3, 4, 6, 7, 8, 9, 10, 11, 12, 13, 14, 15, 16, 17, 18, 19, 20, 21, 22, 23, 24, 25, 26, 27, 28, 29]",254.5137383,12408,486,10,100,9,1.0
undo,9,8,0,0,0,14,"[0, 5, 14]",3,20,"[1, 2, 3, 4, 6, 7, 11, 15, 16, 17, 18, 19, 20, 21, 22, 23, 24, 25, 28, 29]",214.5512559,13379,971,4,36,9,1.0001019035932595
undo,9,8,0,0,0,17,"[0, 5, 14, 17]",4,15,"[1, 4, 6, 7, 11, 15, 16, 18, 19, 20, 22, 23, 24, 25, 28]",177.5377449,14139,760,4,16,9,1.121197267659591
undo,9,8,0,0,0,11,"[0, 5, 14, 17, 11]",5,11,"[1, 4, 15, 16, 18, 19, 22, 23, 24, 25, 28]",152.3583883,14747,608,4,8,9,1.1277254166016362
undo,9,8,0,0,0,24,"[0, 5, 14, 17, 11, 24]",6,3,"[15, 16, 28]",115.1428001,15411,664,2,2,9,1.1227411011978805
undo,9,8,0,0,0,15,"[0, 5, 14, 17, 11, 24, 15]",7,2,"[16, 28]",98.37974552,16076,665,2,0,9,1.1956385406066814
undo,9,8,0,0,0,16,"[0, 5, 14, 17, 11, 24, 15, 16]",8,1,[28],47.30137436,17427,1351,1,0,9,1.36482239111247
undo,9,8,0,0,1,28,"[0, 5, 14, 17, 11, 24, 15, 16, 28]",9,0,[],24.94069458,18284,857,1,0,9,1.632953105226947
undo,9,8,1,0,0,16,"[0, 5, 14, 17, 11, 24, 15, 16]",8,1,[28],47.30137436,27845,9561,1,0,9,1.36482239111247
undo,9,8,1,0,0,15,"[0, 5, 14, 17, 11, 24, 15]",7,2,"[16, 28]",98.37974552,28081,236,2,0,9,1.1956385406066814
undo,9,8,1,0,0,24,"[0, 5, 14, 17, 11, 24]",6,3,"[15, 16, 28]",115.1428001,28255,174,2,2,9,1.1227411011978805
undo,9,8,1,0,0,11,"[0, 5, 14, 17, 11]",5,11,"[1, 4, 15, 16, 18, 19, 22, 23, 24, 25, 28]",152.3583883,28435,180,4,8,9,1.1277254166016362
undo,9,8,1,0,0,17,"[0, 5, 14, 17]",4,15,"[1, 4, 6, 7, 11, 15, 16, 18, 19, 20, 22, 23, 24, 25, 28]",177.5377449,28637,202,4,16,9,1.121197267659591
undo,9,8,1,0,0,14,"[0, 5, 14]",3,20,"[1, 2, 3, 4, 6, 7, 11, 15, 16, 17, 18, 19, 20, 21, 22, 23, 24, 25, 28, 29]",214.5512559,28859,222,4,36,9,1.0001019035932595
undo,9,8,1,0,0,5,"[0, 5]",2,28,"[1, 2, 3, 4, 6, 7, 8, 9, 10, 11, 12, 13, 14, 15, 16, 17, 18, 19, 20, 21, 22, 23, 24, 25, 26, 27, 28, 29]",254.5137383,29067,208,10,100,9,1.0
undo,9,8,1,0,0,0,[0],1,29,"[1, 2, 3, 4, 5, 6, 7, 8, 9, 10, 11, 12, 13, 14, 15, 16, 17, 18, 19, 20, 21, 22, 23, 24, 25, 26, 27, 28, 29]",300,29428,361,10,149,9,0.0
undo,9,8,0,0,0,5,"[0, 5]",2,28,"[1, 2, 3, 4, 6, 7, 8, 9, 10, 11, 12, 13, 14, 15, 16, 17, 18, 19, 20, 21, 22, 23, 24, 25, 26, 27, 28, 29]",254.5137383,33531,4103,10,100,9,1.0
undo,9,8,0,0,0,25,"[0, 5, 25]",3,20,"[1, 2, 3, 4, 6, 11, 12, 14, 15, 16, 17, 18, 19, 20, 21, 22, 23, 24, 28, 29]",215.3091468,34388,857,4,42,9,1.2272747879909065
undo,9,8,0,0,0,1,"[0, 5, 25, 1]",4,17,"[3, 4, 6, 11, 12, 14, 15, 16, 17, 18, 20, 21, 22, 23, 24, 28, 29]",190.3091468,35020,632,3,24,9,1.1770245007593956
undo,9,8,0,0,0,23,"[0, 5, 25, 1, 23]",5,15,"[3, 4, 6, 11, 14, 15, 16, 17, 18, 20, 21, 22, 24, 28, 29]",167.2874179,35555,535,1,14,9,1.141996583852372
undo,9,8,0,0,0,4,"[0, 5, 25, 1, 23, 4]",6,6,"[3, 14, 16, 18, 21, 28]",117.9518324,36340,785,3,4,8,1.115517190692443
undo,9,8,0,0,0,18,"[0, 5, 25, 1, 23, 4, 18]",7,2,"[14, 28]",74.94020603,37163,823,2,0,8,1.702606074443807
undo,9,8,0,0,1,14,"[0, 5, 25, 1, 23, 4, 18, 14]",8,0,[],17.45107663,38155,992,1,0,8,3.306985013025639
undo,9,8,1,0,0,18,"[0, 5, 25, 1, 23, 4, 18]",7,2,"[14, 28]",74.94020603,39046,891,2,0,8,1.702606074443807
undo,9,8,1,0,0,4,"[0, 5, 25, 1, 23, 4]",6,6,"[3, 14, 16, 18, 21, 28]",117.9518324,39289,243,3,4,8,1.115517190692443
undo,9,8,1,0,0,23,"[0, 5, 25, 1, 23]",5,15,"[3, 4, 6, 11, 14, 15, 16, 17, 18, 20, 21, 22, 24, 28, 29]",167.2874179,39477,188,1,14,9,1.141996583852372
undo,9,8,1,0,0,1,"[0, 5, 25, 1]",4,17,"[3, 4, 6, 11, 12, 14, 15, 16, 17, 18, 20, 21, 22, 23, 24, 28, 29]",190.3091468,39817,340,3,24,9,1.1770245007593956
undo,9,8,1,0,0,25,"[0, 5, 25]",3,20,"[1, 2, 3, 4, 6, 11, 12, 14, 15, 16, 17, 18, 19, 20, 21, 22, 23, 24, 28, 29]",215.3091468,40095,278,4,42,9,1.2272747879909065
undo,9,8,1,0,0,5,"[0, 5]",2,28,"[1, 2, 3, 4, 6, 7, 8, 9, 10, 11, 12, 13, 14, 15, 16, 17, 18, 19, 20, 21, 22, 23, 24, 25, 26, 27, 28, 29]",254.5137383,40421,326,10,100,9,1.0
undo,9,8,1,0,0,0,[0],1,29,"[1, 2, 3, 4, 5, 6, 7, 8, 9, 10, 11, 12, 13, 14, 15, 16, 17, 18, 19, 20, 21, 22, 23, 24, 25, 26, 27, 28, 29]",300,41629,1208,10,149,9,0.0
undo,9,8,0,0,0,6,"[0, 6]",2,28,"[1, 2, 3, 4, 5, 7, 8, 9, 10, 11, 12, 13, 14, 15, 16, 17, 18, 19, 20, 21, 22, 23, 24, 25, 26, 27, 28, 29]",257.8929935,42388,759,12,179,8,1.0
undo,9,8,0,0,0,20,"[0, 6, 20]",3,19,"[1, 2, 3, 4, 5, 10, 11, 12, 13, 14, 17, 18, 19, 21, 22, 23, 25, 28, 29]",224.9992251,43090,702,1,39,8,1.0090196160774303
undo,9,8,0,0,0,29,"[0, 6, 20, 29]",4,6,"[1, 3, 12, 21, 23, 25]",161.6115291,43723,633,6,0,5,1.005644125733414
undo,9,8,0,0,1,12,"[0, 6, 20, 29, 12]",5,0,[],125.5976429,44403,680,1,0,5,1.0071810956358416
undo,9,8,1,0,0,29,"[0, 6, 20, 29]",4,6,"[1, 3, 12, 21, 23, 25]",161.6115291,44817,414,6,0,5,1.005644125733414
undo,9,8,1,0,0,20,"[0, 6, 20]",3,19,"[1, 2, 3, 4, 5, 10, 11, 12, 13, 14, 17, 18, 19, 21, 22, 23, 25, 28, 29]",224.9992251,45004,187,1,39,8,1.0090196160774303
undo,9,8,1,0,0,6,"[0, 6]",2,28,"[1, 2, 3, 4, 5, 7, 8, 9, 10, 11, 12, 13, 14, 15, 16, 17, 18, 19, 20, 21, 22, 23, 24, 25, 26, 27, 28, 29]",257.8929935,45227,223,12,179,8,1.0
undo,9,8,1,0,0,0,[0],1,29,"[1, 2, 3, 4, 5, 6, 7, 8, 9, 10, 11, 12, 13, 14, 15, 16, 17, 18, 19, 20, 21, 22, 23, 24, 25, 26, 27, 28, 29]",300,45539,312,10,149,9,0.0
undo,9,8,0,0,0,25,"[0, 25]",2,22,"[1, 2, 3, 4, 5, 6, 7, 11, 12, 14, 15, 16, 17, 18, 19, 20, 21, 22, 23, 24, 28, 29]",230.992754,48523,2984,26,209,8,1.0
undo,9,8,0,0,0,5,"[0, 25, 5]",3,20,"[1, 2, 3, 4, 6, 7, 11, 14, 15, 16, 17, 18, 19, 20, 21, 22, 23, 24, 28, 29]",191.7881624,50307,1784,4,39,8,2.379000464001239
undo,9,8,0,0,0,14,"[0, 25, 5, 14]",4,13,"[1, 4, 6, 11, 15, 16, 17, 18, 20, 22, 23, 24, 28]",151.82568,51099,792,4,26,8,1.7342492397806553
undo,9,8,0,0,0,17,"[0, 25, 5, 14, 17]",5,8,"[1, 11, 15, 16, 18, 23, 24, 28]",114.812169,51883,784,4,9,8,1.6954782512494015
undo,9,8,0,0,0,11,"[0, 25, 5, 14, 17, 11]",6,4,"[15, 16, 24, 28]",89.63281236,52491,608,4,1,8,1.606839844058906
undo,9,8,0,0,0,24,"[0, 25, 5, 14, 17, 11, 24]",7,1,[15],52.41722423,53275,784,1,0,8,1.5037085840097577
undo,9,8,0,0,1,15,"[0, 25, 5, 14, 17, 11, 24, 15]",8,0,[],35.65416961,53986,711,1,0,8,1.5676106732337904
undo,9,8,1,0,0,24,"[0, 25, 5, 14, 17, 11, 24]",7,1,[15],52.41722423,55164,1178,1,0,8,1.5037085840097577
undo,9,8,1,0,0,11,"[0, 25, 5, 14, 17, 11]",6,4,"[15, 16, 24, 28]",89.63281236,55400,236,4,1,8,1.606839844058906
undo,9,8,1,0,0,17,"[0, 25, 5, 14, 17]",5,8,"[1, 11, 15, 16, 18, 23, 24, 28]",114.812169,55580,180,4,9,8,1.6954782512494015
undo,9,8,1,0,0,14,"[0, 25, 5, 14]",4,13,"[1, 4, 6, 11, 15, 16, 17, 18, 20, 22, 23, 24, 28]",151.82568,55754,174,4,26,8,1.7342492397806553
undo,9,8,1,0,0,5,"[0, 25, 5]",3,20,"[1, 2, 3, 4, 6, 7, 11, 14, 15, 16, 17, 18, 19, 20, 21, 22, 23, 24, 28, 29]",191.7881624,55921,167,4,39,8,2.379000464001239
undo,9,8,1,0,0,25,"[0, 25]",2,22,"[1, 2, 3, 4, 5, 6, 7, 11, 12, 14, 15, 16, 17, 18, 19, 20, 21, 22, 23, 24, 28, 29]",230.992754,56094,173,26,209,8,1.0
undo,9,8,1,0,0,0,[0],1,29,"[1, 2, 3, 4, 5, 6, 7, 8, 9, 10, 11, 12, 13, 14, 15, 16, 17, 18, 19, 20, 21, 22, 23, 24, 25, 26, 27, 28, 29]",300,56448,354,10,149,9,0.0
undo,9,8,0,0,0,5,"[0, 5]",2,28,"[1, 2, 3, 4, 6, 7, 8, 9, 10, 11, 12, 13, 14, 15, 16, 17, 18, 19, 20, 21, 22, 23, 24, 25, 26, 27, 28, 29]",254.5137383,57659,1211,10,100,9,1.0
undo,9,8,0,0,0,14,"[0, 5, 14]",3,20,"[1, 2, 3, 4, 6, 7, 11, 15, 16, 17, 18, 19, 20, 21, 22, 23, 24, 25, 28, 29]",214.5512559,58515,856,4,36,9,1.0001019035932595
undo,9,8,0,0,0,17,"[0, 5, 14, 17]",4,15,"[1, 4, 6, 7, 11, 15, 16, 18, 19, 20, 22, 23, 24, 25, 28]",177.5377449,59355,840,4,16,9,1.121197267659591
undo,9,8,0,0,0,11,"[0, 5, 14, 17, 11]",5,11,"[1, 4, 15, 16, 18, 19, 22, 23, 24, 25, 28]",152.3583883,59994,639,4,8,9,1.1277254166016362
undo,9,8,0,0,0,24,"[0, 5, 14, 17, 11, 24]",6,3,"[15, 16, 28]",115.1428001,60731,737,2,2,9,1.1227411011978805
undo,9,8,0,0,0,15,"[0, 5, 14, 17, 11, 24, 15]",7,2,"[16, 28]",98.37974552,61395,664,2,0,9,1.1956385406066814
undo,9,8,1,0,0,24,"[0, 5, 14, 17, 11, 24]",6,3,"[15, 16, 28]",115.1428001,62351,956,2,2,9,1.1227411011978805
undo,9,8,1,0,0,11,"[0, 5, 14, 17, 11]",5,11,"[1, 4, 15, 16, 18, 19, 22, 23, 24, 25, 28]",152.3583883,62664,313,4,8,9,1.1277254166016362
undo,9,8,1,0,0,17,"[0, 5, 14, 17]",4,15,"[1, 4, 6, 7, 11, 15, 16, 18, 19, 20, 22, 23, 24, 25, 28]",177.5377449,62907,243,4,16,9,1.121197267659591
undo,9,8,1,0,0,14,"[0, 5, 14]",3,20,"[1, 2, 3, 4, 6, 7, 11, 15, 16, 17, 18, 19, 20, 21, 22, 23, 24, 25, 28, 29]",214.5512559,63122,215,4,36,9,1.0001019035932595
undo,9,8,1,0,0,5,"[0, 5]",2,28,"[1, 2, 3, 4, 6, 7, 8, 9, 10, 11, 12, 13, 14, 15, 16, 17, 18, 19, 20, 21, 22, 23, 24, 25, 26, 27, 28, 29]",254.5137383,63330,208,10,100,9,1.0
undo,9,8,1,0,0,0,[0],1,29,"[1, 2, 3, 4, 5, 6, 7, 8, 9, 10, 11, 12, 13, 14, 15, 16, 17, 18, 19, 20, 21, 22, 23, 24, 25, 26, 27, 28, 29]",300,63671,341,10,149,9,0.0
undo,9,8,0,0,0,22,"[0, 22]",2,28,"[1, 2, 3, 4, 5, 6, 7, 8, 9, 10, 11, 12, 13, 14, 15, 16, 17, 18, 19, 20, 21, 23, 24, 25, 26, 27, 28, 29]",254.119721,64531,860,2,42,8,1.0
undo,9,8,0,0,0,13,"[0, 22, 13]",3,5,"[2, 9, 10, 26, 27]",132.6207498,65403,872,4,2,6,1.0143451852025651
undo,9,8,0,0,0,10,"[0, 22, 13, 10]",4,2,"[26, 27]",102.471123,66179,776,2,0,6,1.0129552804915085
undo,9,8,0,0,0,26,"[0, 22, 13, 10, 26]",5,1,[27],75.99471837,66795,616,1,0,6,1.111377426142318
undo,9,8,0,0,1,27,"[0, 22, 13, 10, 26, 27]",6,0,[],39.59416892,67491,696,1,0,6,1.3069394021986183
undo,9,8,1,0,0,26,"[0, 22, 13, 10, 26]",5,1,[27],75.99471837,68393,902,1,0,6,1.111377426142318
undo,9,8,1,0,0,10,"[0, 22, 13, 10]",4,2,"[26, 27]",102.471123,68580,187,2,0,6,1.0129552804915085
undo,9,8,1,0,0,13,"[0, 22, 13]",3,5,"[2, 9, 10, 26, 27]",132.6207498,68740,160,4,2,6,1.0143451852025651
undo,9,8,1,0,0,22,"[0, 22]",2,28,"[1, 2, 3, 4, 5, 6, 7, 8, 9, 10, 11, 12, 13, 14, 15, 16, 17, 18, 19, 20, 21, 23, 24, 25, 26, 27, 28, 29]",254.119721,68913,173,2,42,8,1.0
undo,9,8,1,0,0,0,[0],1,29,"[1, 2, 3, 4, 5, 6, 7, 8, 9, 10, 11, 12, 13, 14, 15, 16, 17, 18, 19, 20, 21, 22, 23, 24, 25, 26, 27, 28, 29]",300,69087,174,10,149,9,0.0
undo,9,8,0,0,0,5,"[0, 5]",2,28,"[1, 2, 3, 4, 6, 7, 8, 9, 10, 11, 12, 13, 14, 15, 16, 17, 18, 19, 20, 21, 22, 23, 24, 25, 26, 27, 28, 29]",254.5137383,71506,2419,10,100,9,1.0
undo,9,8,0,0,0,14,"[0, 5, 14]",3,20,"[1, 2, 3, 4, 6, 7, 11, 15, 16, 17, 18, 19, 20, 21, 22, 23, 24, 25, 28, 29]",214.5512559,72307,801,4,36,9,1.0001019035932595
undo,9,8,0,0,0,17,"[0, 5, 14, 17]",4,15,"[1, 4, 6, 7, 11, 15, 16, 18, 19, 20, 22, 23, 24, 25, 28]",177.5377449,73540,1233,4,16,9,1.121197267659591
undo,9,8,0,0,0,11,"[0, 5, 14, 17, 11]",5,11,"[1, 4, 15, 16, 18, 19, 22, 23, 24, 25, 28]",152.3583883,74483,943,4,8,9,1.1277254166016362
undo,9,8,0,0,0,24,"[0, 5, 14, 17, 11, 24]",6,3,"[15, 16, 28]",115.1428001,75523,1040,2,2,9,1.1227411011978805
undo,9,8,0,0,0,15,"[0, 5, 14, 17, 11, 24, 15]",7,2,"[16, 28]",98.37974552,76203,680,2,0,9,1.1956385406066814
undo,9,8,0,0,0,16,"[0, 5, 14, 17, 11, 24, 15, 16]",8,1,[28],47.30137436,77091,888,1,0,9,1.36482239111247
undo,9,8,0,0,1,28,"[0, 5, 14, 17, 11, 24, 15, 16, 28]",9,0,[],24.94069458,77859,768,1,0,9,1.632953105226947
undo,9,8,0,1,1,28,"[0, 5, 14, 17, 11, 24, 15, 16, 28]",9,0,[],24.94069458,79219,1360,1,0,9,1.632953105226947
undo,10,20,0,0,0,0,[0],1,21,"[1, 2, 3, 4, 5, 6, 7, 8, 9, 12, 17, 18, 20, 21, 22, 23, 25, 26, 27, 28, 29]",300,92,-1,1,9,9,0.0
undo,10,20,0,0,0,12,"[0, 12]",2,20,"[1, 2, 3, 4, 5, 6, 7, 8, 9, 17, 18, 20, 21, 22, 23, 25, 26, 27, 28, 29]",271.5570747,2852,2760,1,8,9,1.0
undo,10,20,0,0,0,1,"[0, 12, 1]",3,12,"[3, 4, 5, 6, 8, 9, 20, 21, 23, 27, 28, 29]",189.5692707,4252,1400,1,6,9,1.0757997779162911
undo,10,20,0,0,0,5,"[0, 12, 1, 5]",4,10,"[4, 6, 8, 9, 20, 21, 23, 27, 28, 29]",152.8950291,5108,856,1,5,9,1.1708231454516806
undo,10,20,0,0,0,21,"[0, 12, 1, 5, 21]",5,8,"[4, 6, 8, 9, 20, 23, 27, 28]",107.8950291,6613,1505,1,4,9,1.126197336199212
undo,10,20,0,0,0,8,"[0, 12, 1, 5, 21, 8]",6,5,"[6, 9, 23, 27, 28]",90.43077988,7740,1127,1,3,9,1.140007470699913
undo,10,20,0,0,0,23,"[0, 12, 1, 5, 21, 8, 23]",7,2,"[6, 9]",45.74297394,8772,1032,1,1,9,1.1162257896627588
undo,10,20,0,0,0,9,"[0, 12, 1, 5, 21, 8, 23, 9]",8,1,[6],26.53360123,9844,1072,1,0,9,1.1086880559449597
undo,10,20,0,0,1,6,"[0, 12, 1, 5, 21, 8, 23, 9, 6]",9,0,[],3.511872362,10820,976,1,0,9,1.1186240265999328
undo,10,20,0,1,1,6,"[0, 12, 1, 5, 21, 8, 23, 9, 6]",9,0,[],3.511872362,12960,2140,1,0,9,1.1186240265999328
undo,11,5,0,0,0,0,[0],1,29,"[1, 2, 3, 4, 5, 6, 7, 8, 9, 10, 11, 12, 13, 14, 15, 16, 17, 18, 19, 20, 21, 22, 23, 24, 25, 26, 27, 28, 29]",300,96,-1,5,139,9,0.0
undo,11,5,0,0,0,25,"[0, 25]",2,25,"[1, 2, 3, 4, 5, 6, 8, 9, 10, 11, 12, 13, 14, 15, 16, 17, 18, 19, 21, 22, 23, 24, 26, 27, 28]",237.1987261,8212,8116,1,27,9,1.0
undo,11,5,0,0,0,23,"[0, 25, 23]",3,24,"[1, 2, 3, 4, 5, 6, 8, 9, 10, 11, 12, 13, 14, 15, 16, 17, 18, 19, 21, 22, 24, 26, 27, 28]",218.7596372,8940,728,1,16,9,1.619632697457157
undo,11,5,0,0,0,24,"[0, 25, 23, 24]",4,19,"[2, 4, 5, 6, 8, 9, 10, 12, 13, 14, 15, 17, 18, 19, 21, 22, 26, 27, 28]",195.6728445,9468,528,1,14,9,1.4405376720181815
undo,11,5,0,0,0,17,"[0, 25, 23, 24, 17]",5,11,"[4, 5, 6, 8, 12, 14, 15, 18, 19, 22, 27]",160.6871331,10061,593,1,10,9,1.3047273214654462
undo,11,5,0,0,0,5,"[0, 25, 23, 24, 17, 5]",6,6,"[4, 6, 8, 12, 15, 18]",117.6406466,10852,791,1,4,9,1.2200748060424715
undo,11,5,0,0,0,4,"[0, 25, 23, 24, 17, 5, 4]",7,2,"[6, 18]",51.83791108,12844,1992,2,0,8,1.416197467385784
undo,11,5,0,0,1,6,"[0, 25, 23, 24, 17, 5, 4, 6]",8,0,[],39.7963165,13764,920,1,0,8,1.558105889221557
undo,11,5,1,0,0,4,"[0, 25, 23, 24, 17, 5, 4]",7,2,"[6, 18]",51.83791108,15874,2110,2,0,8,1.416197467385784
undo,11,5,1,0,0,5,"[0, 25, 23, 24, 17, 5]",6,6,"[4, 6, 8, 12, 15, 18]",117.6406466,16242,368,1,4,9,1.2200748060424715
undo,11,5,1,0,0,17,"[0, 25, 23, 24, 17]",5,11,"[4, 5, 6, 8, 12, 14, 15, 18, 19, 22, 27]",160.6871331,16533,291,1,10,9,1.3047273214654462
undo,11,5,1,0,0,24,"[0, 25, 23, 24]",4,19,"[2, 4, 5, 6, 8, 9, 10, 12, 13, 14, 15, 17, 18, 19, 21, 22, 26, 27, 28]",195.6728445,16763,230,1,14,9,1.4405376720181815
undo,11,5,1,0,0,23,"[0, 25, 23]",3,24,"[1, 2, 3, 4, 5, 6, 8, 9, 10, 11, 12, 13, 14, 15, 16, 17, 18, 19, 21, 22, 24, 26, 27, 28]",218.7596372,17006,243,1,16,9,1.619632697457157
undo,11,5,1,0,0,25,"[0, 25]",2,25,"[1, 2, 3, 4, 5, 6, 8, 9, 10, 11, 12, 13, 14, 15, 16, 17, 18, 19, 21, 22, 23, 24, 26, 27, 28]",237.1987261,17325,319,1,27,9,1.0
undo,11,5,1,0,0,0,[0],1,29,"[1, 2, 3, 4, 5, 6, 7, 8, 9, 10, 11, 12, 13, 14, 15, 16, 17, 18, 19, 20, 21, 22, 23, 24, 25, 26, 27, 28, 29]",300,17693,368,5,139,9,0.0
undo,11,5,0,0,0,12,"[0, 12]",2,22,"[2, 4, 5, 6, 8, 9, 10, 13, 14, 15, 16, 17, 18, 19, 21, 22, 23, 24, 25, 26, 27, 28]",228.3062067,19380,1687,1,27,9,1.0
undo,11,5,0,0,0,25,"[0, 12, 25]",3,21,"[2, 4, 5, 6, 8, 9, 10, 13, 14, 15, 16, 17, 18, 19, 21, 22, 23, 24, 26, 27, 28]",200.5213187,20165,785,1,20,9,1.584023303445617
undo,11,5,0,0,0,23,"[0, 12, 25, 23]",4,19,"[2, 4, 5, 6, 8, 9, 10, 13, 14, 15, 16, 17, 18, 19, 21, 22, 24, 26, 27]",182.0822298,20916,751,1,14,9,2.3508446989254357
undo,11,5,0,0,0,24,"[0, 12, 25, 23, 24]",5,15,"[2, 4, 5, 6, 8, 9, 13, 14, 15, 17, 18, 19, 22, 26, 27]",158.995437,21476,560,1,12,9,1.9469752046288753
undo,11,5,0,0,0,17,"[0, 12, 25, 23, 24, 17]",6,7,"[4, 5, 6, 8, 15, 18, 19]",124.0097257,22116,640,1,8,9,1.6482276497563642
undo,11,5,0,0,0,5,"[0, 12, 25, 23, 24, 17, 5]",7,4,"[4, 6, 15, 18]",80.96323916,22852,736,1,3,9,1.4654649104389412
undo,11,5,0,0,1,15,"[0, 12, 25, 23, 24, 17, 5, 15]",8,0,[],40.93824697,23564,712,1,0,8,1.4660376450939663
undo,11,5,1,0,0,5,"[0, 12, 25, 23, 24, 17, 5]",7,4,"[4, 6, 15, 18]",80.96323916,24492,928,1,3,9,1.4654649104389412
undo,11,5,1,0,0,17,"[0, 12, 25, 23, 24, 17]",6,7,"[4, 5, 6, 8, 15, 18, 19]",124.0097257,24700,208,1,8,9,1.6482276497563642
undo,11,5,1,0,0,24,"[0, 12, 25, 23, 24]",5,15,"[2, 4, 5, 6, 8, 9, 13, 14, 15, 17, 18, 19, 22, 26, 27]",158.995437,24880,180,1,12,9,1.9469752046288753
undo,11,5,1,0,0,23,"[0, 12, 25, 23]",4,19,"[2, 4, 5, 6, 8, 9, 10, 13, 14, 15, 16, 17, 18, 19, 21, 22, 24, 26, 27]",182.0822298,25054,174,1,14,9,2.3508446989254357
undo,11,5,1,0,0,25,"[0, 12, 25]",3,21,"[2, 4, 5, 6, 8, 9, 10, 13, 14, 15, 16, 17, 18, 19, 21, 22, 23, 24, 26, 27, 28]",200.5213187,25214,160,1,20,9,1.584023303445617
undo,11,5,1,0,0,12,"[0, 12]",2,22,"[2, 4, 5, 6, 8, 9, 10, 13, 14, 15, 16, 17, 18, 19, 21, 22, 23, 24, 25, 26, 27, 28]",228.3062067,25547,333,1,27,9,1.0
undo,11,5,1,0,0,0,[0],1,29,"[1, 2, 3, 4, 5, 6, 7, 8, 9, 10, 11, 12, 13, 14, 15, 16, 17, 18, 19, 20, 21, 22, 23, 24, 25, 26, 27, 28, 29]",300,25936,389,5,139,9,0.0
undo,11,5,0,0,0,12,"[0, 12]",2,22,"[2, 4, 5, 6, 8, 9, 10, 13, 14, 15, 16, 17, 18, 19, 21, 22, 23, 24, 25, 26, 27, 28]",228.3062067,31820,5884,1,27,9,1.0
undo,11,5,0,0,0,25,"[0, 12, 25]",3,21,"[2, 4, 5, 6, 8, 9, 10, 13, 14, 15, 16, 17, 18, 19, 21, 22, 23, 24, 26, 27, 28]",200.5213187,32532,712,1,20,9,1.584023303445617
undo,11,5,0,0,0,23,"[0, 12, 25, 23]",4,19,"[2, 4, 5, 6, 8, 9, 10, 13, 14, 15, 16, 17, 18, 19, 21, 22, 24, 26, 27]",182.0822298,33036,504,1,14,9,2.3508446989254357
undo,11,5,0,0,0,24,"[0, 12, 25, 23, 24]",5,15,"[2, 4, 5, 6, 8, 9, 13, 14, 15, 17, 18, 19, 22, 26, 27]",158.995437,34588,1552,1,12,9,1.9469752046288753
undo,11,5,0,0,0,17,"[0, 12, 25, 23, 24, 17]",6,7,"[4, 5, 6, 8, 15, 18, 19]",124.0097257,35396,808,1,8,9,1.6482276497563642
undo,11,5,0,0,0,5,"[0, 12, 25, 23, 24, 17, 5]",7,4,"[4, 6, 15, 18]",80.96323916,36164,768,1,3,9,1.4654649104389412
undo,11,5,0,0,1,15,"[0, 12, 25, 23, 24, 17, 5, 15]",8,0,[],40.93824697,36972,808,1,0,8,1.4660376450939663
undo,11,5,1,0,0,5,"[0, 12, 25, 23, 24, 17, 5]",7,4,"[4, 6, 15, 18]",80.96323916,39956,2984,1,3,9,1.4654649104389412
undo,11,5,1,0,0,17,"[0, 12, 25, 23, 24, 17]",6,7,"[4, 5, 6, 8, 15, 18, 19]",124.0097257,40137,181,1,8,9,1.6482276497563642
undo,11,5,1,0,0,24,"[0, 12, 25, 23, 24]",5,15,"[2, 4, 5, 6, 8, 9, 13, 14, 15, 17, 18, 19, 22, 26, 27]",158.995437,40331,194,1,12,9,1.9469752046288753
undo,11,5,1,0,0,23,"[0, 12, 25, 23]",4,19,"[2, 4, 5, 6, 8, 9, 10, 13, 14, 15, 16, 17, 18, 19, 21, 22, 24, 26, 27]",182.0822298,40700,369,1,14,9,2.3508446989254357
undo,11,5,1,0,0,25,"[0, 12, 25]",3,21,"[2, 4, 5, 6, 8, 9, 10, 13, 14, 15, 16, 17, 18, 19, 21, 22, 23, 24, 26, 27, 28]",200.5213187,40984,284,1,20,9,1.584023303445617
undo,11,5,1,0,0,12,"[0, 12]",2,22,"[2, 4, 5, 6, 8, 9, 10, 13, 14, 15, 16, 17, 18, 19, 21, 22, 23, 24, 25, 26, 27, 28]",228.3062067,41325,341,1,27,9,1.0
undo,11,5,1,0,0,0,[0],1,29,"[1, 2, 3, 4, 5, 6, 7, 8, 9, 10, 11, 12, 13, 14, 15, 16, 17, 18, 19, 20, 21, 22, 23, 24, 25, 26, 27, 28, 29]",300,41651,326,5,139,9,0.0
undo,11,5,0,0,0,23,"[0, 23]",2,27,"[1, 2, 3, 4, 5, 6, 7, 8, 9, 10, 11, 12, 13, 14, 15, 16, 17, 18, 19, 20, 21, 22, 24, 25, 26, 27, 28]",249.8402552,42892,1241,3,75,9,1.0
undo,11,5,0,0,0,24,"[0, 23, 24]",3,24,"[1, 2, 3, 4, 5, 6, 8, 9, 10, 11, 12, 13, 14, 15, 16, 17, 18, 19, 21, 22, 25, 26, 27, 28]",226.7534624,43732,840,20,147,8,1.0113799830159869
undo,11,5,0,0,0,17,"[0, 23, 24, 17]",4,18,"[2, 4, 5, 6, 8, 9, 10, 12, 13, 14, 15, 18, 19, 22, 25, 26, 27, 28]",191.7677511,44381,649,6,49,8,1.0136434296829369
undo,11,5,0,0,0,6,"[0, 23, 24, 17, 6]",5,7,"[4, 5, 8, 14, 15, 18, 19]",112.8754194,46052,1671,8,4,7,1.1205064706586827
undo,11,5,0,0,0,4,"[0, 23, 24, 17, 6, 4]",6,6,"[5, 8, 14, 15, 18, 19]",100.8338248,46924,872,6,0,7,1.1365903395424777
undo,11,5,0,0,1,18,"[0, 23, 24, 17, 6, 4, 18]",7,0,[],62.41507936,47820,896,1,0,7,1.171606462146216
undo,11,5,1,0,0,4,"[0, 23, 24, 17, 6, 4]",6,6,"[5, 8, 14, 15, 18, 19]",100.8338248,50109,2289,6,0,7,1.1365903395424777
undo,11,5,1,0,0,6,"[0, 23, 24, 17, 6]",5,7,"[4, 5, 8, 14, 15, 18, 19]",112.8754194,50304,195,8,4,7,1.1205064706586827
undo,11,5,1,0,0,17,"[0, 23, 24, 17]",4,18,"[2, 4, 5, 6, 8, 9, 10, 12, 13, 14, 15, 18, 19, 22, 25, 26, 27, 28]",191.7677511,50484,180,6,49,8,1.0136434296829369
undo,11,5,1,0,0,24,"[0, 23, 24]",3,24,"[1, 2, 3, 4, 5, 6, 8, 9, 10, 11, 12, 13, 14, 15, 16, 17, 18, 19, 21, 22, 25, 26, 27, 28]",226.7534624,50658,174,20,147,8,1.0113799830159869
undo,11,5,1,0,0,23,"[0, 23]",2,27,"[1, 2, 3, 4, 5, 6, 7, 8, 9, 10, 11, 12, 13, 14, 15, 16, 17, 18, 19, 20, 21, 22, 24, 25, 26, 27, 28]",249.8402552,51012,354,3,75,9,1.0
undo,11,5,1,0,0,0,[0],1,29,"[1, 2, 3, 4, 5, 6, 7, 8, 9, 10, 11, 12, 13, 14, 15, 16, 17, 18, 19, 20, 21, 22, 23, 24, 25, 26, 27, 28, 29]",300,51324,312,5,139,9,0.0
undo,11,5,0,0,0,22,"[0, 22]",2,27,"[1, 2, 3, 4, 5, 6, 7, 8, 9, 10, 11, 12, 13, 14, 15, 16, 17, 18, 19, 20, 21, 23, 24, 25, 26, 27, 28]",258.5633013,52868,1544,2,103,8,1.0
undo,11,5,0,0,0,16,"[0, 22, 16]",3,5,"[2, 7, 10, 21, 26]",168.4245194,54045,1177,1,4,6,1.0090785142957075
undo,11,5,0,0,0,26,"[0, 22, 16, 26]",4,2,"[2, 10]",90.43734097,55069,1024,1,1,6,2.7227412774810733
undo,11,5,1,0,0,16,"[0, 22, 16]",3,5,"[2, 7, 10, 21, 26]",168.4245194,55866,797,1,4,6,1.0090785142957075
undo,11,5,1,0,0,22,"[0, 22]",2,27,"[1, 2, 3, 4, 5, 6, 7, 8, 9, 10, 11, 12, 13, 14, 15, 16, 17, 18, 19, 20, 21, 23, 24, 25, 26, 27, 28]",258.5633013,56095,229,2,103,8,1.0
undo,11,5,1,0,0,0,[0],1,29,"[1, 2, 3, 4, 5, 6, 7, 8, 9, 10, 11, 12, 13, 14, 15, 16, 17, 18, 19, 20, 21, 22, 23, 24, 25, 26, 27, 28, 29]",300,56310,215,5,139,9,0.0
undo,11,5,0,0,0,23,"[0, 23]",2,27,"[1, 2, 3, 4, 5, 6, 7, 8, 9, 10, 11, 12, 13, 14, 15, 16, 17, 18, 19, 20, 21, 22, 24, 25, 26, 27, 28]",249.8402552,60796,4486,3,75,9,1.0
undo,11,5,0,0,0,25,"[0, 23, 25]",3,23,"[1, 2, 3, 4, 5, 6, 8, 9, 10, 12, 13, 14, 15, 16, 17, 18, 19, 21, 22, 24, 26, 27, 28]",231.4011663,61444,648,3,43,9,1.0923159590575564
undo,11,5,0,0,0,24,"[0, 23, 25, 24]",4,21,"[2, 3, 4, 5, 6, 8, 9, 10, 12, 13, 14, 15, 16, 17, 18, 19, 21, 22, 26, 27, 28]",206.5616816,62532,1088,3,25,9,1.2901858295679272
undo,11,5,0,0,0,17,"[0, 23, 25, 24, 17]",5,13,"[4, 5, 6, 8, 12, 13, 14, 15, 18, 19, 22, 26, 27]",171.5759702,63333,801,3,14,9,1.2027484907982513
undo,11,5,0,0,0,5,"[0, 23, 25, 24, 17, 5]",6,7,"[4, 6, 8, 12, 15, 18, 19]",128.5294837,64093,760,3,4,9,1.1472230681682432
undo,11,5,0,0,0,15,"[0, 23, 25, 24, 17, 5, 15]",7,1,[18],88.50449151,65356,1263,1,0,8,1.196858948062182
undo,11,5,1,0,0,5,"[0, 23, 25, 24, 17, 5]",6,7,"[4, 6, 8, 12, 15, 18, 19]",128.5294837,65831,475,3,4,9,1.1472230681682432
undo,11,5,1,0,0,17,"[0, 23, 25, 24, 17]",5,13,"[4, 5, 6, 8, 12, 13, 14, 15, 18, 19, 22, 26, 27]",171.5759702,66019,188,3,14,9,1.2027484907982513
undo,11,5,1,0,0,24,"[0, 23, 25, 24]",4,21,"[2, 3, 4, 5, 6, 8, 9, 10, 12, 13, 14, 15, 16, 17, 18, 19, 21, 22, 26, 27, 28]",206.5616816,66199,180,3,25,9,1.2901858295679272
undo,11,5,1,0,0,25,"[0, 23, 25]",3,23,"[1, 2, 3, 4, 5, 6, 8, 9, 10, 12, 13, 14, 15, 16, 17, 18, 19, 21, 22, 24, 26, 27, 28]",231.4011663,66366,167,3,43,9,1.0923159590575564
undo,11,5,1,0,0,23,"[0, 23]",2,27,"[1, 2, 3, 4, 5, 6, 7, 8, 9, 10, 11, 12, 13, 14, 15, 16, 17, 18, 19, 20, 21, 22, 24, 25, 26, 27, 28]",249.8402552,66539,173,3,75,9,1.0
undo,11,5,1,0,0,0,[0],1,29,"[1, 2, 3, 4, 5, 6, 7, 8, 9, 10, 11, 12, 13, 14, 15, 16, 17, 18, 19, 20, 21, 22, 23, 24, 25, 26, 27, 28, 29]",300,66859,320,5,139,9,0.0
undo,11,5,0,0,0,12,"[0, 12]",2,22,"[2, 4, 5, 6, 8, 9, 10, 13, 14, 15, 16, 17, 18, 19, 21, 22, 23, 24, 25, 26, 27, 28]",228.3062067,68229,1370,1,27,9,1.0
undo,11,5,0,0,0,25,"[0, 12, 25]",3,21,"[2, 4, 5, 6, 8, 9, 10, 13, 14, 15, 16, 17, 18, 19, 21, 22, 23, 24, 26, 27, 28]",200.5213187,69044,815,1,20,9,1.584023303445617
undo,11,5,0,0,0,23,"[0, 12, 25, 23]",4,19,"[2, 4, 5, 6, 8, 9, 10, 13, 14, 15, 16, 17, 18, 19, 21, 22, 24, 26, 27]",182.0822298,69524,480,1,14,9,2.3508446989254357
undo,11,5,0,0,0,24,"[0, 12, 25, 23, 24]",5,15,"[2, 4, 5, 6, 8, 9, 13, 14, 15, 17, 18, 19, 22, 26, 27]",158.995437,69980,456,1,12,9,1.9469752046288753
undo,11,5,0,0,0,17,"[0, 12, 25, 23, 24, 17]",6,7,"[4, 5, 6, 8, 15, 18, 19]",124.0097257,70372,392,1,8,9,1.6482276497563642
undo,11,5,0,0,0,5,"[0, 12, 25, 23, 24, 17, 5]",7,4,"[4, 6, 15, 18]",80.96323916,71076,704,1,3,9,1.4654649104389412
undo,11,5,0,0,1,15,"[0, 12, 25, 23, 24, 17, 5, 15]",8,0,[],40.93824697,71796,720,1,0,8,1.4660376450939663
undo,11,5,0,1,1,15,"[0, 12, 25, 23, 24, 17, 5, 15]",8,0,[],40.93824697,72956,1160,1,0,8,1.4660376450939663
undo,12,27,0,0,0,0,[0],1,26,"[1, 3, 5, 6, 7, 8, 9, 10, 11, 12, 13, 14, 15, 16, 17, 18, 19, 21, 22, 23, 24, 25, 26, 27, 28, 29]",300,92,-1,13,578,11,0.0
undo,12,27,0,0,0,15,"[0, 15]",2,24,"[1, 3, 5, 6, 7, 8, 9, 10, 11, 12, 13, 14, 16, 17, 18, 19, 21, 22, 23, 24, 25, 26, 27, 29]",263.7508621,2229,2137,6,219,11,1.0
undo,12,27,0,0,0,24,"[0, 15, 24]",3,20,"[1, 5, 6, 7, 8, 9, 10, 12, 13, 14, 16, 17, 18, 19, 21, 23, 25, 26, 27, 29]",246.5462115,2964,735,6,130,11,1.130933077698322
undo,12,27,0,0,0,17,"[0, 15, 24, 17]",4,15,"[1, 6, 8, 10, 12, 13, 14, 16, 18, 19, 23, 25, 26, 27, 29]",229.9932662,3596,632,4,60,11,1.1285538435963374
undo,12,27,0,0,0,12,"[0, 15, 24, 17, 12]",5,14,"[1, 6, 8, 10, 13, 14, 16, 18, 19, 23, 25, 26, 27, 29]",218.8129263,4253,657,2,32,11,1.2561880288755216
undo,12,27,0,0,0,10,"[0, 15, 24, 17, 12, 10]",6,11,"[1, 8, 13, 14, 18, 19, 23, 25, 26, 27, 29]",207.7675653,4829,576,2,28,11,1.2228289337766665
undo,12,27,0,0,0,13,"[0, 15, 24, 17, 12, 10, 13]",7,9,"[1, 8, 14, 18, 19, 23, 26, 27, 29]",167.9178476,5989,1160,2,18,11,1.3421291994761178
undo,12,27,0,0,0,19,"[0, 15, 24, 17, 12, 10, 13, 19]",8,5,"[1, 8, 14, 23, 29]",131.6825057,6908,919,2,6,11,1.294749956153846
undo,12,27,0,0,0,8,"[0, 15, 24, 17, 12, 10, 13, 19, 8]",9,3,"[14, 23, 29]",116.816437,7636,728,2,1,11,1.3554286578836865
undo,12,27,0,0,0,29,"[0, 15, 24, 17, 12, 10, 13, 19, 8, 29]",10,1,[14],57.61339652,8996,1360,1,0,11,1.248354519573802
undo,12,27,0,0,1,14,"[0, 15, 24, 17, 12, 10, 13, 19, 8, 29, 14]",11,0,[],13.31892734,10252,1256,1,0,11,1.562811097555156
undo,12,27,0,1,1,14,"[0, 15, 24, 17, 12, 10, 13, 19, 8, 29, 14]",11,0,[],13.31892734,14599,4347,1,0,11,1.562811097555156
undo,13,32,0,0,0,0,[0],1,29,"[1, 2, 3, 4, 5, 6, 7, 8, 9, 10, 11, 12, 13, 14, 15, 16, 17, 18, 19, 20, 21, 22, 23, 24, 25, 26, 27, 28, 29]",300,96,-1,17,359,10,0.0
undo,13,32,0,0,0,19,"[0, 19]",2,28,"[1, 2, 3, 4, 5, 6, 7, 8, 9, 10, 11, 12, 13, 14, 15, 16, 17, 18, 20, 21, 22, 23, 24, 25, 26, 27, 28, 29]",283.5075775,2126,2030,16,294,10,1.0
undo,13,32,0,0,0,13,"[0, 19, 13]",3,24,"[2, 3, 4, 5, 6, 8, 9, 10, 11, 12, 14, 15, 16, 17, 18, 20, 21, 22, 23, 24, 25, 26, 27, 28]",260.3127505,2805,679,14,227,10,1.0172874229878615
undo,13,32,0,0,0,17,"[0, 19, 13, 17]",4,12,"[2, 5, 8, 9, 12, 15, 16, 20, 22, 25, 27, 28]",174.7090123,4341,1536,2,32,10,1.1087263887351317
undo,13,32,0,0,0,2,"[0, 19, 13, 17, 2]",5,8,"[8, 9, 12, 15, 16, 20, 22, 28]",134.8969538,5958,1617,1,9,10,1.138316897592222
undo,13,32,0,0,0,9,"[0, 19, 13, 17, 2, 9]",6,7,"[8, 12, 15, 16, 20, 22, 28]",83.80879468,7469,1511,1,5,10,1.4279770980156956
undo,13,32,0,0,0,22,"[0, 19, 13, 17, 2, 9, 22]",7,5,"[8, 12, 15, 16, 28]",61.60519137,7989,520,1,4,10,1.6882401201240023
undo,13,32,0,0,0,16,"[0, 19, 13, 17, 2, 9, 22, 16]",8,1,[12],27.76734274,8877,888,1,0,9,2.3183224270647744
undo,13,32,0,0,1,12,"[0, 19, 13, 17, 2, 9, 22, 16, 12]",9,0,[],12.11486689,9421,544,1,0,9,2.5569846593098515
undo,13,32,1,0,0,16,"[0, 19, 13, 17, 2, 9, 22, 16]",8,1,[12],27.76734274,13817,4396,1,0,9,2.3183224270647744
undo,13,32,1,0,0,22,"[0, 19, 13, 17, 2, 9, 22]",7,5,"[8, 12, 15, 16, 28]",61.60519137,14275,458,1,4,10,1.6882401201240023
undo,13,32,1,0,0,9,"[0, 19, 13, 17, 2, 9]",6,7,"[8, 12, 15, 16, 20, 22, 28]",83.80879468,14477,202,1,5,10,1.4279770980156956
undo,13,32,1,0,0,2,"[0, 19, 13, 17, 2]",5,8,"[8, 9, 12, 15, 16, 20, 22, 28]",134.8969538,14775,298,1,9,10,1.138316897592222
undo,13,32,1,0,0,17,"[0, 19, 13, 17]",4,12,"[2, 5, 8, 9, 12, 15, 16, 20, 22, 25, 27, 28]",174.7090123,14970,195,2,32,10,1.1087263887351317
undo,13,32,1,0,0,13,"[0, 19, 13]",3,24,"[2, 3, 4, 5, 6, 8, 9, 10, 11, 12, 14, 15, 16, 17, 18, 20, 21, 22, 23, 24, 25, 26, 27, 28]",260.3127505,15157,187,14,227,10,1.0172874229878615
undo,13,32,1,0,0,19,"[0, 19]",2,28,"[1, 2, 3, 4, 5, 6, 7, 8, 9, 10, 11, 12, 13, 14, 15, 16, 17, 18, 20, 21, 22, 23, 24, 25, 26, 27, 28, 29]",283.5075775,15789,632,16,294,10,1.0
undo,13,32,0,0,0,15,"[0, 19, 15]",3,21,"[2, 3, 5, 7, 8, 9, 10, 11, 12, 13, 14, 16, 17, 20, 22, 23, 24, 25, 26, 27, 28]",197.7987681,17229,1440,2,52,10,1.19699508325577
undo,13,32,0,0,0,28,"[0, 19, 15, 28]",4,19,"[2, 3, 5, 7, 8, 9, 10, 11, 12, 13, 16, 17, 20, 22, 23, 24, 25, 26, 27]",186.3970139,18149,920,2,41,10,1.1739755297768444
undo,13,32,0,0,0,12,"[0, 19, 15, 28, 12]",5,17,"[2, 3, 5, 7, 8, 9, 10, 11, 13, 16, 17, 20, 22, 23, 24, 26, 27]",167.4233479,18765,616,2,25,10,1.177540715424265
undo,13,32,0,0,0,16,"[0, 19, 15, 28, 12, 16]",6,16,"[2, 3, 5, 7, 8, 9, 10, 11, 13, 17, 20, 22, 23, 24, 26, 27]",151.7708721,19261,496,2,17,10,1.2623133279216439
undo,13,32,0,0,0,22,"[0, 19, 15, 28, 12, 16, 22]",7,10,"[2, 3, 5, 8, 9, 10, 11, 17, 20, 27]",117.9330235,20181,920,2,7,10,1.2893434049314008
undo,13,32,0,0,0,9,"[0, 19, 15, 28, 12, 16, 22, 9]",8,4,"[2, 8, 17, 20]",95.72942015,21133,952,2,2,10,1.3492394817468627
undo,13,32,0,0,0,2,"[0, 19, 15, 28, 12, 16, 22, 9, 2]",9,1,[17],44.64126105,22045,912,1,0,10,1.760592394779365
undo,13,32,0,0,1,17,"[0, 19, 15, 28, 12, 16, 22, 9, 2, 17]",10,0,[],4.829202579,23749,1704,1,0,10,2.6120286725511583
undo,13,32,0,1,1,17,"[0, 19, 15, 28, 12, 16, 22, 9, 2, 17]",10,0,[],4.829202579,29122,5373,1,0,10,2.6120286725511583
undo,14,17,0,0,0,0,[0],1,28,"[1, 2, 3, 4, 5, 6, 7, 8, 9, 10, 11, 12, 13, 14, 15, 16, 17, 18, 19, 20, 22, 23, 24, 25, 26, 27, 28, 29]",300,95,-1,2,73,8,0.0
undo,14,17,0,0,0,9,"[0, 9]",2,25,"[1, 2, 3, 5, 6, 7, 8, 10, 11, 12, 14, 15, 16, 17, 18, 19, 20, 22, 23, 24, 25, 26, 27, 28, 29]",210.5293344,2834,2739,1,34,8,1.0
undo,14,17,0,0,0,16,"[0, 9, 16]",3,21,"[1, 2, 3, 5, 7, 8, 10, 11, 12, 14, 17, 18, 19, 20, 22, 23, 25, 26, 27, 28, 29]",197.1876704,3459,625,1,26,8,1.173103464220352
undo,14,17,0,0,0,2,"[0, 9, 16, 2]",4,18,"[1, 3, 5, 7, 8, 10, 11, 12, 14, 17, 18, 19, 23, 25, 26, 27, 28, 29]",181.0631549,4218,759,1,23,8,1.14825089247282
undo,14,17,0,0,0,17,"[0, 9, 16, 2, 17]",5,7,"[7, 8, 12, 14, 26, 27, 29]",142.7356191,4898,680,4,5,7,1.4896040699768547
undo,14,17,0,0,0,8,"[0, 9, 16, 2, 17, 8]",6,3,"[7, 12, 27]",104.5256727,6874,1976,3,0,7,1.4604726966175894
undo,14,17,0,0,1,7,"[0, 9, 16, 2, 17, 8, 7]",7,0,[],33.81499459,8338,1464,1,0,7,1.4474701869793896
undo,14,17,1,0,0,8,"[0, 9, 16, 2, 17, 8]",6,3,"[7, 12, 27]",104.5256727,10338,2000,3,0,7,1.4604726966175894
undo,14,17,1,0,0,17,"[0, 9, 16, 2, 17]",5,7,"[7, 8, 12, 14, 26, 27, 29]",142.7356191,10519,181,4,5,7,1.4896040699768547
undo,14,17,1,0,0,2,"[0, 9, 16, 2]",4,18,"[1, 3, 5, 7, 8, 10, 11, 12, 14, 17, 18, 19, 23, 25, 26, 27, 28, 29]",181.0631549,10713,194,1,23,8,1.14825089247282
undo,14,17,1,0,0,16,"[0, 9, 16]",3,21,"[1, 2, 3, 5, 7, 8, 10, 11, 12, 14, 17, 18, 19, 20, 22, 23, 25, 26, 27, 28, 29]",197.1876704,10894,181,1,26,8,1.173103464220352
undo,14,17,1,0,0,9,"[0, 9]",2,25,"[1, 2, 3, 5, 6, 7, 8, 10, 11, 12, 14, 15, 16, 17, 18, 19, 20, 22, 23, 24, 25, 26, 27, 28, 29]",210.5293344,11067,173,1,34,8,1.0
undo,14,17,1,0,0,0,[0],1,28,"[1, 2, 3, 4, 5, 6, 7, 8, 9, 10, 11, 12, 13, 14, 15, 16, 17, 18, 19, 20, 22, 23, 24, 25, 26, 27, 28, 29]",300,11456,389,2,73,8,0.0
undo,14,17,0,0,0,16,"[0, 16]",2,23,"[1, 2, 3, 5, 7, 8, 9, 10, 11, 12, 14, 17, 18, 19, 20, 22, 23, 24, 25, 26, 27, 28, 29]",212.3586855,13146,1690,1,29,8,1.0
undo,14,17,0,0,0,2,"[0, 16, 2]",3,21,"[1, 3, 5, 7, 8, 9, 10, 11, 12, 14, 17, 18, 19, 20, 23, 24, 25, 26, 27, 28, 29]",196.23417,13810,664,13,69,7,1.0017855005780958
undo,14,17,0,0,0,8,"[0, 16, 2, 8]",4,13,"[3, 7, 9, 10, 11, 12, 14, 17, 23, 25, 26, 27, 29]",161.1200703,14722,912,2,21,7,1.037631632944467
undo,14,17,0,0,0,27,"[0, 16, 2, 8, 27]",5,4,"[7, 12, 25, 26]",78.48230655,15770,1048,1,3,7,1.031431121029855
undo,14,17,0,0,0,12,"[0, 16, 2, 8, 27, 12]",6,1,[26],55.48230655,16538,768,1,0,7,1.0303911079382349
undo,14,17,0,0,1,26,"[0, 16, 2, 8, 27, 12, 26]",7,0,[],20.36820682,17395,857,1,0,7,1.139987661565409
undo,14,17,1,0,0,12,"[0, 16, 2, 8, 27, 12]",6,1,[26],55.48230655,18706,1311,1,0,7,1.0303911079382349
undo,14,17,1,0,0,27,"[0, 16, 2, 8, 27]",5,4,"[7, 12, 25, 26]",78.48230655,18914,208,1,3,7,1.031431121029855
undo,14,17,1,0,0,8,"[0, 16, 2, 8]",4,13,"[3, 7, 9, 10, 11, 12, 14, 17, 23, 25, 26, 27, 29]",161.1200703,19276,362,2,21,7,1.037631632944467
undo,14,17,1,0,0,2,"[0, 16, 2]",3,21,"[1, 3, 5, 7, 8, 9, 10, 11, 12, 14, 17, 18, 19, 20, 23, 24, 25, 26, 27, 28, 29]",196.23417,19470,194,13,69,7,1.0017855005780958
undo,14,17,1,0,0,16,"[0, 16]",2,23,"[1, 2, 3, 5, 7, 8, 9, 10, 11, 12, 14, 17, 18, 19, 20, 22, 23, 24, 25, 26, 27, 28, 29]",212.3586855,19789,319,1,29,8,1.0
undo,14,17,1,0,0,0,[0],1,28,"[1, 2, 3, 4, 5, 6, 7, 8, 9, 10, 11, 12, 13, 14, 15, 16, 17, 18, 19, 20, 22, 23, 24, 25, 26, 27, 28, 29]",300,20164,375,2,73,8,0.0
undo,14,17,0,0,0,9,"[0, 9]",2,25,"[1, 2, 3, 5, 6, 7, 8, 10, 11, 12, 14, 15, 16, 17, 18, 19, 20, 22, 23, 24, 25, 26, 27, 28, 29]",210.5293344,20850,686,1,34,8,1.0
undo,14,17,0,0,0,10,"[0, 9, 10]",3,8,"[3, 5, 6, 7, 11, 23, 24, 28]",105.6055526,21946,1096,4,9,6,1.0722854926797516
undo,14,17,0,0,0,11,"[0, 9, 10, 11]",4,6,"[3, 5, 6, 23, 24, 28]",83.65105416,22754,808,2,5,6,1.0666517243103375
undo,14,17,0,0,0,3,"[0, 9, 10, 11, 3]",5,2,"[5, 28]",57.4785495,23465,711,2,0,6,1.2802467492484548
undo,14,17,0,0,1,28,"[0, 9, 10, 11, 3, 28]",6,0,[],23.4785495,24186,721,1,0,6,1.3324362276451462
undo,14,17,1,0,0,3,"[0, 9, 10, 11, 3]",5,2,"[5, 28]",57.4785495,25289,1103,2,0,6,1.2802467492484548
undo,14,17,1,0,0,11,"[0, 9, 10, 11]",4,6,"[3, 5, 6, 23, 24, 28]",83.65105416,25498,209,2,5,6,1.0666517243103375
undo,14,17,1,0,0,10,"[0, 9, 10]",3,8,"[3, 5, 6, 7, 11, 23, 24, 28]",105.6055526,25685,187,4,9,6,1.0722854926797516
undo,14,17,1,0,0,9,"[0, 9]",2,25,"[1, 2, 3, 5, 6, 7, 8, 10, 11, 12, 14, 15, 16, 17, 18, 19, 20, 22, 23, 24, 25, 26, 27, 28, 29]",210.5293344,25921,236,1,34,8,1.0
undo,14,17,1,0,0,0,[0],1,28,"[1, 2, 3, 4, 5, 6, 7, 8, 9, 10, 11, 12, 13, 14, 15, 16, 17, 18, 19, 20, 22, 23, 24, 25, 26, 27, 28, 29]",300,26268,347,2,73,8,0.0
undo,14,17,0,0,0,9,"[0, 9]",2,25,"[1, 2, 3, 5, 6, 7, 8, 10, 11, 12, 14, 15, 16, 17, 18, 19, 20, 22, 23, 24, 25, 26, 27, 28, 29]",210.5293344,30114,3846,1,34,8,1.0
undo,14,17,0,0,0,16,"[0, 9, 16]",3,21,"[1, 2, 3, 5, 7, 8, 10, 11, 12, 14, 17, 18, 19, 20, 22, 23, 25, 26, 27, 28, 29]",197.1876704,31026,912,1,26,8,1.173103464220352
undo,14,17,0,0,0,2,"[0, 9, 16, 2]",4,18,"[1, 3, 5, 7, 8, 10, 11, 12, 14, 17, 18, 19, 23, 25, 26, 27, 28, 29]",181.0631549,32082,1056,1,23,8,1.14825089247282
undo,14,17,0,0,0,8,"[0, 9, 16, 2, 8]",5,9,"[3, 7, 10, 11, 12, 14, 17, 26, 27]",145.9490551,33914,1832,1,9,8,1.1509808066472915
undo,14,17,0,0,0,17,"[0, 9, 16, 2, 8, 17]",6,1,[7],107.7391088,34867,953,1,0,7,1.821090092937232
undo,14,17,0,0,1,7,"[0, 9, 16, 2, 8, 17, 7]",7,0,[],0.091535648,39881,5014,1,0,7,1.6308527984273244
undo,14,17,1,0,0,17,"[0, 9, 16, 2, 8, 17]",6,1,[7],107.7391088,42025,2144,1,0,7,1.821090092937232
undo,14,17,1,0,0,8,"[0, 9, 16, 2, 8]",5,9,"[3, 7, 10, 11, 12, 14, 17, 26, 27]",145.9490551,42386,361,1,9,8,1.1509808066472915
undo,14,17,1,0,0,2,"[0, 9, 16, 2]",4,18,"[1, 3, 5, 7, 8, 10, 11, 12, 14, 17, 18, 19, 23, 25, 26, 27, 28, 29]",181.0631549,42726,340,1,23,8,1.14825089247282
undo,14,17,1,0,0,16,"[0, 9, 16]",3,21,"[1, 2, 3, 5, 7, 8, 10, 11, 12, 14, 17, 18, 19, 20, 22, 23, 25, 26, 27, 28, 29]",197.1876704,42969,243,1,26,8,1.173103464220352
undo,14,17,1,0,0,9,"[0, 9]",2,25,"[1, 2, 3, 5, 6, 7, 8, 10, 11, 12, 14, 15, 16, 17, 18, 19, 20, 22, 23, 24, 25, 26, 27, 28, 29]",210.5293344,43296,327,1,34,8,1.0
undo,14,17,0,0,0,16,"[0, 9, 16]",3,21,"[1, 2, 3, 5, 7, 8, 10, 11, 12, 14, 17, 18, 19, 20, 22, 23, 25, 26, 27, 28, 29]",197.1876704,45178,1882,1,26,8,1.173103464220352
undo,14,17,0,0,0,2,"[0, 9, 16, 2]",4,18,"[1, 3, 5, 7, 8, 10, 11, 12, 14, 17, 18, 19, 23, 25, 26, 27, 28, 29]",181.0631549,46538,1360,1,23,8,1.14825089247282
undo,14,17,0,0,0,17,"[0, 9, 16, 2, 17]",5,7,"[7, 8, 12, 14, 26, 27, 29]",142.7356191,47235,697,4,5,7,1.4896040699768547
undo,14,17,0,0,0,8,"[0, 9, 16, 2, 17, 8]",6,3,"[7, 12, 27]",104.5256727,48106,871,3,0,7,1.4604726966175894
undo,14,17,0,0,1,7,"[0, 9, 16, 2, 17, 8, 7]",7,0,[],33.81499459,50098,1992,1,0,7,1.4474701869793896
undo,14,17,1,0,0,8,"[0, 9, 16, 2, 17, 8]",6,3,"[7, 12, 27]",104.5256727,52248,2150,3,0,7,1.4604726966175894
undo,14,17,1,0,0,17,"[0, 9, 16, 2, 17]",5,7,"[7, 8, 12, 14, 26, 27, 29]",142.7356191,52484,236,4,5,7,1.4896040699768547
undo,14,17,1,0,0,2,"[0, 9, 16, 2]",4,18,"[1, 3, 5, 7, 8, 10, 11, 12, 14, 17, 18, 19, 23, 25, 26, 27, 28, 29]",181.0631549,52824,340,1,23,8,1.14825089247282
undo,14,17,1,0,0,16,"[0, 9, 16]",3,21,"[1, 2, 3, 5, 7, 8, 10, 11, 12, 14, 17, 18, 19, 20, 22, 23, 25, 26, 27, 28, 29]",197.1876704,53109,285,1,26,8,1.173103464220352
undo,14,17,1,0,0,9,"[0, 9]",2,25,"[1, 2, 3, 5, 6, 7, 8, 10, 11, 12, 14, 15, 16, 17, 18, 19, 20, 22, 23, 24, 25, 26, 27, 28, 29]",210.5293344,53449,340,1,34,8,1.0
undo,14,17,1,0,0,0,[0],1,28,"[1, 2, 3, 4, 5, 6, 7, 8, 9, 10, 11, 12, 13, 14, 15, 16, 17, 18, 19, 20, 22, 23, 24, 25, 26, 27, 28, 29]",300,54150,701,2,73,8,0.0
undo,14,17,0,0,0,19,"[0, 19]",2,9,"[3, 4, 5, 10, 11, 18, 20, 22, 28]",138.1049723,58754,4604,1,8,6,1.0
undo,14,17,0,0,0,22,"[0, 19, 22]",3,2,"[5, 28]",85.49318653,60075,1321,2,0,4,1.0002084079157765
undo,14,17,1,0,0,19,"[0, 19]",2,9,"[3, 4, 5, 10, 11, 18, 20, 22, 28]",138.1049723,61338,1263,1,8,6,1.0
undo,14,17,0,0,0,5,"[0, 19, 5]",3,5,"[3, 10, 11, 22, 28]",98.81120687,61971,633,1,5,6,1.1200340368749155
undo,14,17,0,0,0,28,"[0, 19, 5, 28]",4,2,"[3, 11]",60.32744406,62843,872,1,1,6,1.1548774814009009
undo,14,17,0,0,0,3,"[0, 19, 5, 28, 3]",5,1,[11],26.32744406,63610,767,1,0,6,1.444690353691831
undo,14,17,0,0,1,11,"[0, 19, 5, 28, 3, 11]",6,0,[],0.154939406,68826,5216,1,0,6,1.4783074152117983
undo,14,17,1,0,0,3,"[0, 19, 5, 28, 3]",5,1,[11],26.32744406,70164,1338,1,0,6,1.444690353691831
undo,14,17,1,0,0,28,"[0, 19, 5, 28]",4,2,"[3, 11]",60.32744406,70358,194,1,1,6,1.1548774814009009
undo,14,17,1,0,0,5,"[0, 19, 5]",3,5,"[3, 10, 11, 22, 28]",98.81120687,70532,174,1,5,6,1.1200340368749155
undo,14,17,1,0,0,19,"[0, 19]",2,9,"[3, 4, 5, 10, 11, 18, 20, 22, 28]",138.1049723,70698,166,1,8,6,1.0
undo,14,17,1,0,0,0,[0],1,28,"[1, 2, 3, 4, 5, 6, 7, 8, 9, 10, 11, 12, 13, 14, 15, 16, 17, 18, 19, 20, 22, 23, 24, 25, 26, 27, 28, 29]",300,70921,223,2,73,8,0.0
undo,14,17,0,0,0,9,"[0, 9]",2,25,"[1, 2, 3, 5, 6, 7, 8, 10, 11, 12, 14, 15, 16, 17, 18, 19, 20, 22, 23, 24, 25, 26, 27, 28, 29]",210.5293344,71866,945,1,34,8,1.0
undo,14,17,0,0,0,16,"[0, 9, 16]",3,21,"[1, 2, 3, 5, 7, 8, 10, 11, 12, 14, 17, 18, 19, 20, 22, 23, 25, 26, 27, 28, 29]",197.1876704,72514,648,1,26,8,1.173103464220352
undo,14,17,0,0,0,2,"[0, 9, 16, 2]",4,18,"[1, 3, 5, 7, 8, 10, 11, 12, 14, 17, 18, 19, 23, 25, 26, 27, 28, 29]",181.0631549,74627,2113,1,23,8,1.14825089247282
undo,14,17,0,0,0,8,"[0, 9, 16, 2, 8]",5,9,"[3, 7, 10, 11, 12, 14, 17, 26, 27]",145.9490551,76626,1999,1,9,8,1.1509808066472915
undo,14,17,0,0,0,17,"[0, 9, 16, 2, 8, 17]",6,1,[7],107.7391088,78026,1400,1,0,7,1.821090092937232
undo,14,17,1,0,0,8,"[0, 9, 16, 2, 8]",5,9,"[3, 7, 10, 11, 12, 14, 17, 26, 27]",145.9490551,83816,5790,1,9,8,1.1509808066472915
undo,14,17,1,0,0,2,"[0, 9, 16, 2]",4,18,"[1, 3, 5, 7, 8, 10, 11, 12, 14, 17, 18, 19, 23, 25, 26, 27, 28, 29]",181.0631549,84233,417,1,23,8,1.14825089247282
undo,14,17,1,0,0,16,"[0, 9, 16]",3,21,"[1, 2, 3, 5, 7, 8, 10, 11, 12, 14, 17, 18, 19, 20, 22, 23, 25, 26, 27, 28, 29]",197.1876704,84976,743,1,26,8,1.173103464220352
undo,14,17,0,0,0,2,"[0, 9, 16, 2]",4,18,"[1, 3, 5, 7, 8, 10, 11, 12, 14, 17, 18, 19, 23, 25, 26, 27, 28, 29]",181.0631549,87402,2426,1,23,8,1.14825089247282
undo,14,17,0,0,0,17,"[0, 9, 16, 2, 17]",5,7,"[7, 8, 12, 14, 26, 27, 29]",142.7356191,88778,1376,4,5,7,1.4896040699768547
undo,14,17,0,0,0,8,"[0, 9, 16, 2, 17, 8]",6,3,"[7, 12, 27]",104.5256727,90690,1912,3,0,7,1.4604726966175894
undo,14,17,0,0,1,7,"[0, 9, 16, 2, 17, 8, 7]",7,0,[],33.81499459,92067,1377,1,0,7,1.4474701869793896
undo,14,17,0,1,1,7,"[0, 9, 16, 2, 17, 8, 7]",7,0,[],33.81499459,93552,1485,1,0,7,1.4474701869793896
undo,15,40,0,0,0,0,[0],1,29,"[1, 2, 3, 4, 5, 6, 7, 8, 9, 10, 11, 12, 13, 14, 15, 16, 17, 18, 19, 20, 21, 22, 23, 24, 25, 26, 27, 28, 29]",300,92,-1,8,191,9,0.0
undo,15,40,0,0,0,1,"[0, 1]",2,18,"[2, 5, 6, 7, 8, 9, 10, 11, 13, 15, 17, 18, 19, 21, 22, 23, 27, 29]",247.8463808,3198,3106,4,80,9,1.0
undo,15,40,0,0,0,6,"[0, 1, 6]",3,17,"[2, 5, 7, 8, 9, 10, 11, 13, 15, 17, 18, 19, 21, 22, 23, 27, 29]",227.7466295,3975,777,4,74,9,1.0459427008232034
undo,15,40,0,0,0,21,"[0, 1, 6, 21]",4,8,"[2, 5, 9, 17, 18, 19, 22, 23]",175.7754837,4767,792,4,25,9,1.0308822257404064
undo,15,40,0,0,0,9,"[0, 1, 6, 21, 9]",5,6,"[2, 5, 18, 19, 22, 23]",130.0699041,5590,823,4,12,9,1.377861912961129
undo,15,40,0,0,0,18,"[0, 1, 6, 21, 9, 18]",6,5,"[2, 5, 19, 22, 23]",113.5169588,6247,657,4,4,9,1.5742712168661408
undo,15,40,0,0,0,5,"[0, 1, 6, 21, 9, 18, 5]",7,3,"[19, 22, 23]",81.94165198,7239,992,2,1,9,1.7730665063055515
undo,15,40,0,0,0,23,"[0, 1, 6, 21, 9, 18, 5, 23]",8,1,[19],53.63970859,7934,695,1,0,9,2.597442759912231
undo,15,40,0,0,1,19,"[0, 1, 6, 21, 9, 18, 5, 23, 19]",9,0,[],21.68661797,8798,864,1,0,9,2.7128328554069565
undo,15,40,0,1,1,19,"[0, 1, 6, 21, 9, 18, 5, 23, 19]",9,0,[],21.68661797,13016,4218,1,0,9,2.7128328554069565
undo,16,33,0,0,0,0,[0],1,23,"[1, 2, 5, 7, 8, 11, 12, 13, 14, 15, 16, 17, 18, 19, 20, 21, 23, 24, 25, 26, 27, 28, 29]",300,130,-1,5,108,9,0.0
undo,16,33,0,0,0,21,"[0, 21]",2,17,"[2, 5, 7, 8, 11, 13, 14, 16, 17, 18, 19, 20, 24, 26, 27, 28, 29]",174.4611614,4423,4293,21,129,8,1.0
undo,16,33,0,0,0,17,"[0, 21, 17]",3,12,"[2, 7, 11, 13, 14, 16, 18, 19, 20, 24, 26, 29]",135.8218032,5158,735,3,35,8,1.0302064673538902
undo,16,33,0,0,0,13,"[0, 21, 17, 13]",4,10,"[2, 7, 11, 14, 16, 19, 20, 24, 26, 29]",113.0182947,5918,760,3,18,8,1.2307555582916028
undo,16,33,0,0,0,19,"[0, 21, 17, 13, 19]",5,6,"[7, 14, 16, 24, 26, 29]",87.52319715,6654,736,3,6,8,1.267959080158969
undo,16,33,0,0,0,24,"[0, 21, 17, 13, 19, 24]",6,2,"[7, 14]",45.47560506,8479,1825,1,1,8,1.2501192148258107
undo,16,33,0,0,0,7,"[0, 21, 17, 13, 19, 24, 7]",7,1,[14],16.26944133,9198,719,1,0,8,1.3314375425758662
undo,16,33,0,0,1,14,"[0, 21, 17, 13, 19, 24, 7, 14]",8,0,[],1.403372582,10031,833,1,0,8,1.37637211918224
undo,16,33,1,0,0,7,"[0, 21, 17, 13, 19, 24, 7]",7,1,[14],16.26944133,10832,801,1,0,8,1.3314375425758662
undo,16,33,1,0,0,24,"[0, 21, 17, 13, 19, 24]",6,2,"[7, 14]",45.47560506,11012,180,1,1,8,1.2501192148258107
undo,16,33,1,0,0,19,"[0, 21, 17, 13, 19]",5,6,"[7, 14, 16, 24, 26, 29]",87.52319715,11165,153,3,6,8,1.267959080158969
undo,16,33,1,0,0,13,"[0, 21, 17, 13]",4,10,"[2, 7, 11, 14, 16, 19, 20, 24, 26, 29]",113.0182947,11332,167,3,18,8,1.2307555582916028
undo,16,33,1,0,0,17,"[0, 21, 17]",3,12,"[2, 7, 11, 13, 14, 16, 18, 19, 20, 24, 26, 29]",135.8218032,11582,250,3,35,8,1.0302064673538902
undo,16,33,0,0,0,20,"[0, 21, 17, 20]",4,6,"[2, 11, 13, 14, 26, 29]",78.55051896,13758,2176,3,4,6,1.0713555682987053
undo,16,33,0,0,0,11,"[0, 21, 17, 20, 11]",5,1,[29],59.44554579,14527,769,1,0,6,1.0834027740395407
undo,16,33,0,0,1,29,"[0, 21, 17, 20, 11, 29]",6,0,[],22.22995766,15303,776,1,0,6,1.3205453044258433
undo,16,33,1,0,0,11,"[0, 21, 17, 20, 11]",5,1,[29],59.44554579,16345,1042,1,0,6,1.0834027740395407
undo,16,33,1,0,0,20,"[0, 21, 17, 20]",4,6,"[2, 11, 13, 14, 26, 29]",78.55051896,16519,174,3,4,6,1.0713555682987053
undo,16,33,1,0,0,17,"[0, 21, 17]",3,12,"[2, 7, 11, 13, 14, 16, 18, 19, 20, 24, 26, 29]",135.8218032,16693,174,3,35,8,1.0302064673538902
undo,16,33,1,0,0,21,"[0, 21]",2,17,"[2, 5, 7, 8, 11, 13, 14, 16, 17, 18, 19, 20, 24, 26, 27, 28, 29]",174.4611614,17262,569,21,129,8,1.0
undo,16,33,0,0,0,19,"[0, 21, 19]",3,14,"[2, 5, 7, 11, 13, 14, 16, 17, 18, 20, 24, 26, 28, 29]",128.2334641,18606,1344,1,20,8,1.0250198418865024
undo,16,33,0,0,0,24,"[0, 21, 19, 24]",4,9,"[7, 13, 14, 16, 17, 18, 26, 28, 29]",86.18587198,19479,873,1,7,8,1.050167116209186
undo,16,33,0,0,0,7,"[0, 21, 19, 24, 7]",5,3,"[14, 26, 29]",56.97970825,20014,535,1,3,8,1.1404000385450976
undo,16,33,0,0,0,14,"[0, 21, 19, 24, 7, 14]",6,2,"[26, 29]",42.1136395,20535,521,1,1,8,1.1887193756301053
undo,16,33,0,0,0,26,"[0, 21, 19, 24, 7, 14, 26]",7,1,[29],29.46452886,20926,391,1,0,8,1.1957843402691701
undo,16,33,0,0,1,29,"[0, 21, 19, 24, 7, 14, 26, 29]",8,0,[],1.571877497,21743,817,1,0,8,1.418755790077535
undo,16,33,1,0,0,26,"[0, 21, 19, 24, 7, 14, 26]",7,1,[29],29.46452886,22915,1172,1,0,8,1.1957843402691701
undo,16,33,1,0,0,14,"[0, 21, 19, 24, 7, 14]",6,2,"[26, 29]",42.1136395,23206,291,1,1,8,1.1887193756301053
undo,16,33,1,0,0,7,"[0, 21, 19, 24, 7]",5,3,"[14, 26, 29]",56.97970825,23408,202,1,3,8,1.1404000385450976
undo,16,33,1,0,0,24,"[0, 21, 19, 24]",4,9,"[7, 13, 14, 16, 17, 18, 26, 28, 29]",86.18587198,23588,180,1,7,8,1.050167116209186
undo,16,33,1,0,0,19,"[0, 21, 19]",3,14,"[2, 5, 7, 11, 13, 14, 16, 17, 18, 20, 24, 26, 28, 29]",128.2334641,23776,188,1,20,8,1.0250198418865024
undo,16,33,1,0,0,21,"[0, 21]",2,17,"[2, 5, 7, 8, 11, 13, 14, 16, 17, 18, 19, 20, 24, 26, 27, 28, 29]",174.4611614,23963,187,21,129,8,1.0
undo,16,33,1,0,0,0,[0],1,23,"[1, 2, 5, 7, 8, 11, 12, 13, 14, 15, 16, 17, 18, 19, 20, 21, 23, 24, 25, 26, 27, 28, 29]",300,26331,2368,5,108,9,0.0
undo,16,33,0,0,0,8,"[0, 8]",2,22,"[1, 2, 5, 7, 11, 12, 13, 14, 15, 16, 17, 18, 19, 20, 21, 23, 24, 25, 26, 27, 28, 29]",265.8679037,27222,891,5,87,9,1.0
undo,16,33,0,0,0,27,"[0, 8, 27]",3,6,"[5, 16, 19, 21, 23, 25]",172.3906337,28046,824,2,5,5,1.1120034973992803
undo,16,33,0,0,0,25,"[0, 8, 27, 25]",4,2,"[5, 23]",120.7669957,28679,633,2,0,5,1.0777241092063088
undo,16,33,0,0,1,23,"[0, 8, 27, 25, 23]",5,0,[],53.40231653,29350,671,1,0,5,1.0653783070933391
undo,16,33,1,0,0,25,"[0, 8, 27, 25]",4,2,"[5, 23]",120.7669957,30019,669,2,0,5,1.0777241092063088
undo,16,33,1,0,0,27,"[0, 8, 27]",3,6,"[5, 16, 19, 21, 23, 25]",172.3906337,30192,173,2,5,5,1.1120034973992803
undo,16,33,1,0,0,8,"[0, 8]",2,22,"[1, 2, 5, 7, 11, 12, 13, 14, 15, 16, 17, 18, 19, 20, 21, 23, 24, 25, 26, 27, 28, 29]",265.8679037,30359,167,5,87,9,1.0
undo,16,33,1,0,0,0,[0],1,23,"[1, 2, 5, 7, 8, 11, 12, 13, 14, 15, 16, 17, 18, 19, 20, 21, 23, 24, 25, 26, 27, 28, 29]",300,30533,174,5,108,9,0.0
undo,16,33,0,0,0,8,"[0, 8]",2,22,"[1, 2, 5, 7, 11, 12, 13, 14, 15, 16, 17, 18, 19, 20, 21, 23, 24, 25, 26, 27, 28, 29]",265.8679037,31814,1281,5,87,9,1.0
undo,16,33,0,0,0,21,"[0, 8, 21]",3,16,"[2, 5, 7, 11, 13, 14, 16, 17, 18, 19, 20, 24, 26, 27, 28, 29]",166.0430571,32782,968,5,80,9,1.0670557763739492
undo,16,33,0,0,0,17,"[0, 8, 21, 17]",4,11,"[2, 7, 11, 13, 14, 16, 19, 20, 24, 26, 29]",127.4036989,33542,760,1,18,9,1.0830294710276618
undo,16,33,0,0,0,13,"[0, 8, 21, 17, 13]",5,10,"[2, 7, 11, 14, 16, 19, 20, 24, 26, 29]",104.6001904,34166,624,1,10,9,1.2861654105061844
undo,16,33,0,0,0,19,"[0, 8, 21, 17, 13, 19]",6,6,"[7, 14, 16, 24, 26, 29]",79.10509282,34694,528,1,6,9,1.3181942666818214
undo,16,33,0,0,0,24,"[0, 8, 21, 17, 13, 19, 24]",7,1,[7],37.05750074,35254,560,1,0,8,1.2914654832859356
undo,16,33,0,0,1,7,"[0, 8, 21, 17, 13, 19, 24, 7]",8,0,[],7.851337003,35990,736,1,0,8,1.370940443464748
undo,16,33,1,0,0,24,"[0, 8, 21, 17, 13, 19, 24]",7,1,[7],37.05750074,38046,2056,1,0,8,1.2914654832859356
undo,16,33,1,0,0,19,"[0, 8, 21, 17, 13, 19]",6,6,"[7, 14, 16, 24, 26, 29]",79.10509282,38282,236,1,6,9,1.3181942666818214
undo,16,33,1,0,0,13,"[0, 8, 21, 17, 13]",5,10,"[2, 7, 11, 14, 16, 19, 20, 24, 26, 29]",104.6001904,38456,174,1,10,9,1.2861654105061844
undo,16,33,1,0,0,17,"[0, 8, 21, 17]",4,11,"[2, 7, 11, 13, 14, 16, 19, 20, 24, 26, 29]",127.4036989,38685,229,1,18,9,1.0830294710276618
undo,16,33,1,0,0,21,"[0, 8, 21]",3,16,"[2, 5, 7, 11, 13, 14, 16, 17, 18, 19, 20, 24, 26, 27, 28, 29]",166.0430571,39213,528,5,80,9,1.0670557763739492
undo,16,33,0,0,0,13,"[0, 8, 21, 13]",4,12,"[2, 7, 11, 14, 16, 17, 18, 19, 20, 24, 26, 29]",139.6422995,40110,897,4,54,9,1.0555103820910288
undo,16,33,0,0,0,19,"[0, 8, 21, 13, 19]",5,10,"[7, 11, 14, 16, 17, 18, 20, 24, 26, 29]",114.1472019,40766,656,3,19,9,1.1090798607799486
undo,16,33,0,0,0,24,"[0, 8, 21, 13, 19, 24]",6,6,"[7, 14, 16, 18, 26, 29]",72.09960985,41415,649,2,3,9,1.1193530461391534
undo,16,33,0,0,0,7,"[0, 8, 21, 13, 19, 24, 7]",7,2,"[14, 26]",42.89344611,42038,623,2,0,9,1.2065014071663551
undo,16,33,0,0,0,14,"[0, 8, 21, 13, 19, 24, 7, 14]",8,1,[26],28.02737737,42718,680,1,0,9,1.2536495746979057
undo,16,33,0,0,1,26,"[0, 8, 21, 13, 19, 24, 7, 14, 26]",9,0,[],15.37826672,43086,368,1,0,9,1.2580465331304596
undo,16,33,0,1,1,26,"[0, 8, 21, 13, 19, 24, 7, 14, 26]",9,0,[],15.37826672,45824,2738,1,0,9,1.2580465331304596
undo,17,41,0,0,0,0,[0],1,29,"[1, 2, 3, 4, 5, 6, 7, 8, 9, 10, 11, 12, 13, 14, 15, 16, 17, 18, 19, 20, 21, 22, 23, 24, 25, 26, 27, 28, 29]",300,93,-1,1,143,10,0.0
undo,17,41,0,0,0,13,"[0, 13]",2,23,"[1, 2, 3, 5, 6, 7, 9, 10, 11, 12, 14, 15, 17, 18, 19, 20, 21, 22, 24, 25, 26, 27, 28]",258.2747079,4547,4454,1,55,10,1.0
undo,17,41,0,0,0,28,"[0, 13, 28]",3,22,"[1, 2, 3, 5, 6, 7, 9, 10, 11, 12, 14, 15, 17, 18, 19, 20, 21, 22, 24, 25, 26, 27]",223.7928286,5179,632,1,39,10,1.895724242592676
undo,17,41,0,0,0,5,"[0, 13, 28, 5]",4,19,"[1, 2, 3, 6, 9, 10, 11, 12, 14, 15, 17, 18, 19, 20, 21, 22, 24, 25, 27]",210.1913581,5619,440,1,34,10,2.861541269398273
undo,17,41,0,0,0,3,"[0, 13, 28, 5, 3]",5,16,"[1, 2, 6, 9, 10, 12, 14, 17, 18, 19, 20, 21, 22, 24, 25, 27]",175.3632086,6331,712,1,22,10,3.1455488489005883
undo,17,41,0,0,0,21,"[0, 13, 28, 5, 3, 21]",6,14,"[1, 2, 6, 9, 10, 12, 14, 17, 18, 19, 20, 22, 25, 27]",143.2228912,6939,608,13,11,9,3.207558429289677
undo,17,41,0,0,0,9,"[0, 13, 28, 5, 3, 21, 9]",7,6,"[1, 2, 10, 12, 14, 17]",93.85691102,7571,632,7,4,9,2.5050148501792275
undo,17,41,0,0,0,2,"[0, 13, 28, 5, 3, 21, 9, 2]",8,5,"[1, 10, 12, 14, 17]",81.77386505,8059,488,5,0,9,2.4119643847713177
undo,17,41,0,0,1,17,"[0, 13, 28, 5, 3, 21, 9, 2, 17]",9,0,[],49.21622385,8787,728,1,0,9,3.9563478735796007
undo,17,41,1,0,0,2,"[0, 13, 28, 5, 3, 21, 9, 2]",8,5,"[1, 10, 12, 14, 17]",81.77386505,14821,6034,5,0,9,2.4119643847713177
undo,17,41,1,0,0,9,"[0, 13, 28, 5, 3, 21, 9]",7,6,"[1, 2, 10, 12, 14, 17]",93.85691102,15078,257,7,4,9,2.5050148501792275
undo,17,41,1,0,0,21,"[0, 13, 28, 5, 3, 21]",6,14,"[1, 2, 6, 9, 10, 12, 14, 17, 18, 19, 20, 22, 25, 27]",143.2228912,16092,1014,13,11,9,3.207558429289677
undo,17,41,1,0,0,3,"[0, 13, 28, 5, 3]",5,16,"[1, 2, 6, 9, 10, 12, 14, 17, 18, 19, 20, 21, 22, 24, 25, 27]",175.3632086,16390,298,1,22,10,3.1455488489005883
undo,17,41,0,0,0,22,"[0, 13, 28, 5, 3, 22]",6,10,"[2, 6, 9, 10, 12, 17, 18, 20, 21, 25]",145.3965604,19018,2628,1,7,10,2.241807041008432
undo,17,41,0,0,0,21,"[0, 13, 28, 5, 3, 22, 21]",7,4,"[2, 9, 12, 17]",94.39656044,20259,1241,1,5,10,4.206513633906409
undo,17,41,0,0,0,9,"[0, 13, 28, 5, 3, 22, 21, 9]",8,2,"[2, 17]",45.03058025,20930,671,1,1,10,3.098343902653451
undo,17,41,0,0,0,2,"[0, 13, 28, 5, 3, 22, 21, 9, 2]",9,1,[17],32.94753428,21627,697,1,0,10,2.9516218867624824
undo,17,41,0,0,1,17,"[0, 13, 28, 5, 3, 22, 21, 9, 2, 17]",10,0,[],0.389893085,22394,767,1,0,10,4.726628762010198
undo,17,41,0,1,1,17,"[0, 13, 28, 5, 3, 22, 21, 9, 2, 17]",10,0,[],0.389893085,25661,3267,1,0,10,4.726628762010198
undo,18,0,0,0,0,0,[0],1,27,"[2, 3, 4, 5, 6, 7, 8, 9, 10, 11, 12, 13, 14, 15, 16, 17, 19, 20, 21, 22, 23, 24, 25, 26, 27, 28, 29]",300,96,-1,104,1136,9,0.0
undo,18,0,0,0,0,28,"[0, 28]",2,26,"[2, 3, 4, 5, 6, 7, 8, 9, 10, 11, 12, 13, 14, 15, 16, 17, 19, 20, 21, 22, 23, 24, 25, 26, 27, 29]",194.9190788,2477,2381,39,388,9,1.0
undo,18,0,0,0,0,5,"[0, 28, 5]",3,21,"[2, 3, 4, 7, 8, 9, 11, 12, 13, 14, 15, 16, 17, 19, 20, 21, 23, 24, 25, 26, 29]",151.2613189,3230,753,27,210,9,1.0978295127671733
undo,18,0,0,0,0,4,"[0, 28, 5, 4]",4,16,"[3, 7, 8, 9, 11, 12, 13, 14, 15, 17, 19, 20, 21, 23, 24, 26]",126.1814465,5461,2231,17,114,9,1.1103727063761901
undo,18,0,0,0,0,26,"[0, 28, 5, 4, 26]",5,14,"[3, 7, 8, 9, 11, 12, 13, 14, 15, 17, 19, 20, 23, 24]",114.1398519,6037,576,7,54,9,1.1504454351688815
undo,18,0,0,0,0,24,"[0, 28, 5, 4, 26, 24]",6,11,"[3, 7, 8, 9, 11, 12, 15, 17, 19, 20, 23]",97.02260914,6581,544,7,22,9,1.2166555899566422
undo,18,0,0,0,0,15,"[0, 28, 5, 4, 26, 24, 15]",7,7,"[3, 7, 8, 9, 11, 12, 17]",73.67737408,7597,1016,4,5,9,1.1972898774231708
undo,18,0,0,0,0,7,"[0, 28, 5, 4, 26, 24, 15, 7]",8,2,"[3, 8]",42.61292495,8549,952,2,0,9,1.2554869594545575
undo,18,0,0,0,1,8,"[0, 28, 5, 4, 26, 24, 15, 7, 8]",9,0,[],23.50795177,9813,1264,1,0,9,1.2428648875079442
undo,18,0,1,0,0,7,"[0, 28, 5, 4, 26, 24, 15, 7]",8,2,"[3, 8]",42.61292495,10998,1185,2,0,9,1.2554869594545575
undo,18,0,0,0,1,3,"[0, 28, 5, 4, 26, 24, 15, 7, 3]",9,0,[],18.52973579,11821,823,1,0,9,1.2985327435367093
undo,18,0,1,0,0,7,"[0, 28, 5, 4, 26, 24, 15, 7]",8,2,"[3, 8]",42.61292495,12547,726,2,0,9,1.2554869594545575
undo,18,0,1,0,0,15,"[0, 28, 5, 4, 26, 24, 15]",7,7,"[3, 7, 8, 9, 11, 12, 17]",73.67737408,12846,299,4,5,9,1.1972898774231708
undo,18,0,1,0,0,24,"[0, 28, 5, 4, 26, 24]",6,11,"[3, 7, 8, 9, 11, 12, 15, 17, 19, 20, 23]",97.02260914,13068,222,7,22,9,1.2166555899566422
undo,18,0,1,0,0,26,"[0, 28, 5, 4, 26]",5,14,"[3, 7, 8, 9, 11, 12, 13, 14, 15, 17, 19, 20, 23, 24]",114.1398519,13401,333,7,54,9,1.1504454351688815
undo,18,0,1,0,0,4,"[0, 28, 5, 4]",4,16,"[3, 7, 8, 9, 11, 12, 13, 14, 15, 17, 19, 20, 21, 23, 24, 26]",126.1814465,13762,361,17,114,9,1.1103727063761901
undo,18,0,1,0,0,5,"[0, 28, 5]",3,21,"[2, 3, 4, 7, 8, 9, 11, 12, 13, 14, 15, 16, 17, 19, 20, 21, 23, 24, 25, 26, 29]",151.2613189,14491,729,27,210,9,1.0978295127671733
undo,18,0,1,0,0,28,"[0, 28]",2,26,"[2, 3, 4, 5, 6, 7, 8, 9, 10, 11, 12, 13, 14, 15, 16, 17, 19, 20, 21, 22, 23, 24, 25, 26, 27, 29]",194.9190788,17366,2875,39,388,9,1.0
undo,18,0,0,0,0,3,"[0, 28, 3]",3,12,"[4, 7, 8, 10, 12, 15, 17, 19, 22, 23, 24, 26]",83.23649287,19837,2471,8,18,6,1.0000150900563862
undo,18,0,0,0,0,7,"[0, 28, 3, 7]",4,7,"[4, 8, 15, 17, 19, 24, 26]",59.15330371,20925,1088,6,3,6,1.1748060245879366
undo,18,0,0,0,0,15,"[0, 28, 3, 7, 15]",5,1,[24],28.08885458,21638,713,1,0,6,1.4384618446632145
undo,18,0,0,0,1,24,"[0, 28, 3, 7, 15, 24]",6,0,[],4.74361952,22701,1063,1,0,6,1.7697799950001645
undo,18,0,1,0,0,15,"[0, 28, 3, 7, 15]",5,1,[24],28.08885458,23859,1158,1,0,6,1.4384618446632145
undo,18,0,1,0,0,7,"[0, 28, 3, 7]",4,7,"[4, 8, 15, 17, 19, 24, 26]",59.15330371,24081,222,6,3,6,1.1748060245879366
undo,18,0,1,0,0,3,"[0, 28, 3]",3,12,"[4, 7, 8, 10, 12, 15, 17, 19, 22, 23, 24, 26]",83.23649287,24276,195,8,18,6,1.0000150900563862
undo,18,0,1,0,0,28,"[0, 28]",2,26,"[2, 3, 4, 5, 6, 7, 8, 9, 10, 11, 12, 13, 14, 15, 16, 17, 19, 20, 21, 22, 23, 24, 25, 26, 27, 29]",194.9190788,24519,243,39,388,9,1.0
undo,18,0,1,0,0,0,[0],1,27,"[2, 3, 4, 5, 6, 7, 8, 9, 10, 11, 12, 13, 14, 15, 16, 17, 19, 20, 21, 22, 23, 24, 25, 26, 27, 28, 29]",300,25547,1028,104,1136,9,0.0
undo,18,0,0,0,0,5,"[0, 5]",2,24,"[2, 3, 4, 7, 8, 9, 11, 12, 13, 14, 15, 16, 17, 19, 20, 21, 22, 23, 24, 25, 26, 27, 28, 29]",164.5156836,26621,1074,5,112,9,1.0
undo,18,0,0,0,0,4,"[0, 5, 4]",3,20,"[2, 3, 7, 8, 9, 11, 12, 13, 14, 15, 17, 19, 20, 21, 22, 23, 24, 25, 26, 28]",139.4358112,27757,1136,4,61,9,1.0257023158632692
undo,18,0,0,0,0,26,"[0, 5, 4, 26]",4,18,"[3, 7, 8, 9, 11, 12, 13, 14, 15, 17, 19, 20, 21, 22, 23, 24, 25, 28]",127.3942166,28981,1224,4,26,9,1.0684029773259323
undo,18,0,0,0,0,24,"[0, 5, 4, 26, 24]",5,12,"[3, 7, 8, 9, 11, 12, 15, 17, 19, 20, 23, 28]",110.2769738,29925,944,4,16,9,1.1372083333602885
undo,18,0,0,0,0,15,"[0, 5, 4, 26, 24, 15]",6,8,"[3, 7, 8, 9, 11, 12, 17, 19]",86.93173875,30790,865,4,7,9,1.1271717591548023
undo,18,0,0,0,0,7,"[0, 5, 4, 26, 24, 15, 7]",7,4,"[3, 8, 17, 19]",55.86728962,31653,863,3,2,9,1.190834598819092
undo,18,0,0,0,0,8,"[0, 5, 4, 26, 24, 15, 7, 8]",8,2,"[3, 19]",36.76231644,32701,1048,2,0,9,1.1832849301094388
undo,18,0,0,0,1,3,"[0, 5, 4, 26, 24, 15, 7, 8, 3]",9,0,[],6.348503789,34166,1465,1,0,9,1.3547295451928671
undo,18,0,0,1,1,3,"[0, 5, 4, 26, 24, 15, 7, 8, 3]",9,0,[],6.348503789,36255,2089,1,0,9,1.3547295451928671
undo,19,7,0,0,0,0,[0],1,29,"[1, 2, 3, 4, 5, 6, 7, 8, 9, 10, 11, 12, 13, 14, 15, 16, 17, 18, 19, 20, 21, 22, 23, 24, 25, 26, 27, 28, 29]",300,96,-1,3,79,9,0.0
undo,19,7,0,0,0,15,"[0, 15]",2,19,"[2, 4, 5, 6, 7, 8, 9, 10, 13, 14, 16, 18, 19, 20, 21, 23, 25, 27, 28]",230.9348134,2342,2246,2,38,9,1.0
undo,19,7,0,0,0,6,"[0, 15, 6]",3,18,"[2, 4, 5, 7, 8, 9, 10, 13, 14, 16, 18, 19, 20, 21, 23, 25, 27, 28]",205.854941,3238,896,2,36,9,1.366719602896943
undo,19,7,0,0,0,25,"[0, 15, 6, 25]",4,11,"[2, 4, 7, 13, 14, 16, 18, 19, 20, 21, 23]",138.6760753,4542,1304,2,28,9,1.3624631728355765
undo,19,7,0,0,0,4,"[0, 15, 6, 25, 4]",5,7,"[2, 7, 13, 16, 18, 19, 20]",113.9374415,7743,3201,2,12,9,1.3249684384385587
undo,19,7,0,0,0,20,"[0, 15, 6, 25, 4, 20]",6,5,"[2, 7, 13, 18, 19]",94.29055881,8542,799,1,6,9,1.3721893242679268
undo,19,7,0,0,0,18,"[0, 15, 6, 25, 4, 20, 18]",7,3,"[7, 13, 19]",81.48431034,9014,472,1,2,9,1.5262542308371432
undo,19,7,0,0,0,7,"[0, 15, 6, 25, 4, 20, 18, 7]",8,1,[19],40.25325408,9863,849,1,0,9,1.41986878673423
undo,19,7,0,0,1,19,"[0, 15, 6, 25, 4, 20, 18, 7, 19]",9,0,[],10.84237174,10807,944,1,0,9,1.5285658163212987
undo,19,7,0,1,1,19,"[0, 15, 6, 25, 4, 20, 18, 7, 19]",9,0,[],10.84237174,13096,2289,1,0,9,1.5285658163212987
undo,20,34,0,0,0,0,[0],1,25,"[1, 3, 4, 5, 6, 7, 8, 9, 10, 11, 12, 13, 15, 18, 19, 20, 21, 22, 23, 24, 25, 26, 27, 28, 29]",300,97,-1,12,367,10,0.0
undo,20,34,0,0,0,13,"[0, 13]",2,24,"[1, 3, 4, 5, 6, 7, 8, 9, 10, 11, 12, 15, 18, 19, 20, 21, 22, 23, 24, 25, 26, 27, 28, 29]",279.9750156,2727,2630,12,331,10,1.0
undo,20,34,0,0,0,1,"[0, 13, 1]",3,16,"[3, 5, 7, 8, 9, 10, 11, 12, 19, 21, 22, 23, 24, 25, 27, 29]",211.8574701,3791,1064,3,92,10,1.0010381285747127
undo,20,34,0,0,0,8,"[0, 13, 1, 8]",4,14,"[3, 5, 7, 9, 10, 11, 12, 19, 22, 23, 24, 25, 27, 29]",201.0871405,4559,768,2,54,10,1.1636807
undo,20,34,0,0,0,25,"[0, 13, 1, 8, 25]",5,12,"[3, 5, 7, 9, 10, 11, 12, 22, 23, 24, 27, 29]",183.999133,5655,1096,2,28,10,1.1396208815936457
undo,20,34,0,0,0,24,"[0, 13, 1, 8, 25, 24]",6,11,"[3, 5, 7, 9, 10, 11, 12, 22, 23, 27, 29]",166.5062774,6383,728,2,23,10,1.374180768736554
undo,20,34,0,0,0,12,"[0, 13, 1, 8, 25, 24, 12]",7,7,"[7, 9, 10, 11, 22, 23, 27]",115.4670767,7519,1136,1,8,10,1.4994254760835948
undo,20,34,0,0,0,7,"[0, 13, 1, 8, 25, 24, 12, 7]",8,5,"[9, 11, 22, 23, 27]",100.4337804,8183,664,1,4,10,1.758992610425009
undo,20,34,0,0,0,23,"[0, 13, 1, 8, 25, 24, 12, 7, 23]",9,1,[27],72.27352467,8975,792,1,0,10,2.399781305190153
undo,20,34,0,0,1,27,"[0, 13, 1, 8, 25, 24, 12, 7, 23, 27]",10,0,[],18.60789321,9879,904,1,0,10,4.766619878750327
undo,20,34,0,1,1,27,"[0, 13, 1, 8, 25, 24, 12, 7, 23, 27]",10,0,[],18.60789321,11999,2120,1,0,10,4.766619878750327
undo,21,24,0,0,0,0,[0],1,29,"[1, 2, 3, 4, 5, 6, 7, 8, 9, 10, 11, 12, 13, 14, 15, 16, 17, 18, 19, 20, 21, 22, 23, 24, 25, 26, 27, 28, 29]",300,96,-1,4,76,10,0.0
undo,21,24,0,0,0,16,"[0, 16]",2,28,"[1, 2, 3, 4, 5, 6, 7, 8, 9, 10, 11, 12, 13, 14, 15, 17, 18, 19, 20, 21, 22, 23, 24, 25, 26, 27, 28, 29]",210.3562607,2664,2568,13,110,9,1.0
undo,21,24,0,0,0,22,"[0, 16, 22]",3,27,"[1, 2, 3, 4, 5, 6, 7, 8, 9, 10, 11, 12, 13, 14, 15, 17, 18, 19, 20, 21, 23, 24, 25, 26, 27, 28, 29]",192.3285043,3720,1056,7,54,9,1.0217425143037777
undo,21,24,0,0,0,8,"[0, 16, 22, 8]",4,21,"[1, 2, 3, 4, 6, 9, 10, 11, 13, 14, 15, 17, 20, 21, 23, 24, 25, 26, 27, 28, 29]",178.9120964,4440,720,4,28,9,1.0996636936037951
undo,21,24,0,0,0,15,"[0, 16, 22, 8, 15]",5,16,"[3, 4, 6, 9, 10, 11, 13, 14, 17, 23, 24, 25, 26, 27, 28, 29]",148.025206,5320,880,3,17,9,1.2704773343758617
undo,21,24,0,0,0,28,"[0, 16, 22, 8, 15, 28]",6,8,"[3, 4, 9, 11, 13, 23, 26, 27]",102.7482803,7272,1952,3,5,9,1.1981967578189556
undo,21,24,0,0,0,23,"[0, 16, 22, 8, 15, 28, 23]",7,3,"[9, 11, 27]",83.72198273,8032,760,3,1,9,1.2275650852813986
undo,21,24,0,0,0,11,"[0, 16, 22, 8, 15, 28, 23, 11]",8,2,"[9, 27]",56.79615869,8752,720,2,0,9,1.2107937989822568
undo,21,24,0,0,1,9,"[0, 16, 22, 8, 15, 28, 23, 11, 9]",9,0,[],24.5471277,10584,1832,1,0,9,1.2976612913524237
undo,21,24,0,1,1,9,"[0, 16, 22, 8, 15, 28, 23, 11, 9]",9,0,[],24.5471277,13429,2845,1,0,9,1.2976612913524237
undo,22,3,0,0,0,0,[0],1,29,"[1, 2, 3, 4, 5, 6, 7, 8, 9, 10, 11, 12, 13, 14, 15, 16, 17, 18, 19, 20, 21, 22, 23, 24, 25, 26, 27, 28, 29]",300,131,-1,34,427,10,0.0
undo,22,3,0,0,0,7,"[0, 7]",2,28,"[1, 2, 3, 4, 5, 6, 8, 9, 10, 11, 12, 13, 14, 15, 16, 17, 18, 19, 20, 21, 22, 23, 24, 25, 26, 27, 28, 29]",278.8103799,4635,4504,24,215,10,1.0
undo,22,3,0,0,0,8,"[0, 7, 8]",3,24,"[1, 2, 3, 4, 5, 6, 10, 11, 12, 13, 14, 15, 16, 17, 18, 19, 20, 21, 22, 24, 25, 26, 27, 28]",222.837172,5467,832,16,114,10,1.2853332575451413
undo,22,3,0,0,0,24,"[0, 7, 8, 24]",4,21,"[1, 3, 4, 5, 6, 10, 11, 12, 14, 15, 16, 17, 18, 19, 20, 21, 22, 25, 26, 27, 28]",210.671647,6035,568,16,91,10,1.5177505014936548
undo,22,3,0,0,0,17,"[0, 7, 8, 24, 17]",5,9,"[3, 4, 10, 14, 15, 16, 19, 20, 21]",141.3174834,6955,920,7,26,10,1.5510961300062232
undo,22,3,0,0,0,20,"[0, 7, 8, 24, 17, 20]",6,7,"[3, 4, 10, 14, 16, 19, 21]",128.6683728,7779,824,7,14,10,1.5133082717474817
undo,22,3,0,0,0,3,"[0, 7, 8, 24, 17, 20, 3]",7,5,"[4, 10, 14, 19, 21]",108.2722947,8299,520,7,4,10,1.5325960555943097
undo,22,3,0,0,0,19,"[0, 7, 8, 24, 17, 20, 3, 19]",8,3,"[10, 14, 21]",70.93598532,9003,704,3,1,10,1.5521294182529992
undo,22,3,0,0,0,21,"[0, 7, 8, 24, 17, 20, 3, 19, 21]",9,2,"[10, 14]",58.72942971,9579,576,2,0,10,1.5690424431931145
undo,22,3,0,0,1,14,"[0, 7, 8, 24, 17, 20, 3, 19, 21, 14]",10,0,[],31.82218161,10235,656,1,0,10,2.0836613372745463
undo,22,3,0,1,1,14,"[0, 7, 8, 24, 17, 20, 3, 19, 21, 14]",10,0,[],31.82218161,11957,1722,1,0,10,2.0836613372745463
basic,23,25,0,0,0,0,[0],1,28,"[1, 2, 3, 4, 5, 7, 8, 9, 10, 11, 12, 13, 14, 15, 16, 17, 18, 19, 20, 21, 22, 23, 24, 25, 26, 27, 28, 29]",300,110,-1,5,94,10,0.0
basic,23,25,0,0,0,23,"[0, 23]",2,23,"[1, 2, 3, 5, 7, 8, 9, 11, 12, 13, 14, 16, 17, 19, 20, 21, 22, 24, 25, 26, 27, 28, 29]",259.7756293,8489,8379,3,33,10,1.0
basic,23,25,0,0,0,19,"[0, 23, 19]",3,21,"[1, 2, 3, 5, 7, 8, 9, 11, 12, 13, 14, 16, 17, 20, 21, 22, 24, 25, 27, 28, 29]",223.9287326,9986,1497,3,24,10,1.583101227007039
basic,23,25,0,0,0,29,"[0, 23, 19, 29]",4,19,"[1, 2, 3, 5, 7, 8, 9, 11, 12, 13, 14, 16, 17, 20, 21, 22, 24, 25, 28]",207.649912,10865,879,3,17,10,1.474631541426484
basic,23,25,0,0,0,22,"[0, 23, 19, 29, 22]",5,18,"[1, 2, 3, 5, 7, 8, 9, 11, 12, 13, 14, 16, 17, 20, 21, 24, 25, 28]",191.5253965,11608,743,3,14,10,1.4020377754906637
basic,23,25,0,0,0,7,"[0, 23, 19, 29, 22, 7]",6,7,"[3, 8, 9, 11, 13, 24, 28]",115.8814939,12561,953,3,11,10,1.5709678649326715
basic,23,25,0,0,0,24,"[0, 23, 19, 29, 22, 7, 24]",7,5,"[3, 8, 9, 13, 28]",91.12265712,13465,904,3,7,10,1.486191600033379
basic,23,25,0,0,0,9,"[0, 23, 19, 29, 22, 7, 24, 9]",8,4,"[3, 8, 13, 28]",73.09490075,14320,855,3,3,10,1.453504870342882
basic,23,25,0,0,0,3,"[0, 23, 19, 29, 22, 7, 24, 9, 3]",9,3,"[8, 13, 28]",42.82940885,19065,4745,3,0,10,1.388955167525479
basic,23,25,0,0,1,28,"[0, 23, 19, 29, 22, 7, 24, 9, 3, 28]",10,0,[],11.52445716,20673,1608,1,0,10,1.3331084120212044
basic,23,25,0,1,1,28,"[0, 23, 19, 29, 22, 7, 24, 9, 3, 28]",10,0,[],11.52445716,22102,1429,1,0,10,1.3331084120212044
basic,24,11,0,0,0,0,[0],1,25,"[1, 2, 3, 4, 5, 6, 8, 9, 10, 11, 12, 13, 14, 15, 16, 17, 18, 19, 20, 22, 23, 25, 26, 27, 28]",300,131,-1,6,374,12,0.0
basic,24,11,0,0,0,1,"[0, 1]",2,24,"[2, 3, 4, 5, 6, 8, 9, 10, 11, 12, 13, 14, 15, 16, 17, 18, 19, 20, 22, 23, 25, 26, 27, 28]",264.6446609,3210,3079,6,217,12,1.0
basic,24,11,0,0,0,18,"[0, 1, 18]",3,19,"[2, 4, 5, 6, 8, 9, 11, 12, 14, 15, 16, 17, 19, 20, 22, 23, 25, 27, 28]",212.3187591,4171,961,6,161,12,1.3884463804898786
basic,24,11,0,0,0,27,"[0, 1, 18, 27]",4,18,"[2, 4, 5, 6, 8, 9, 11, 12, 14, 15, 16, 17, 19, 20, 22, 23, 25, 28]",188.4650382,4946,775,6,155,12,1.3600813284083875
basic,24,11,0,0,0,17,"[0, 1, 18, 27, 17]",5,11,"[2, 5, 6, 8, 11, 12, 15, 19, 22, 25, 28]",111.3871556,6747,1801,2,45,12,1.282398281674261
basic,24,11,0,0,0,8,"[0, 1, 18, 27, 17, 8]",6,7,"[2, 5, 11, 12, 15, 22, 28]",97.0693345,7715,968,2,21,12,1.3975291553712
basic,24,11,0,0,0,15,"[0, 1, 18, 27, 17, 8, 15]",7,6,"[2, 5, 11, 12, 22, 28]",83.61571045,8395,680,2,18,12,1.3793915678186077
basic,24,11,0,0,0,11,"[0, 1, 18, 27, 17, 8, 15, 11]",8,4,"[2, 5, 22, 28]",65.50494017,9483,1088,2,14,12,1.3525960247899067
basic,24,11,0,0,0,22,"[0, 1, 18, 27, 17, 8, 15, 11, 22]",9,3,"[2, 5, 28]",32.08339024,12875,3392,3,1,11,1.4210533399165386
basic,24,11,0,0,0,2,"[0, 1, 18, 27, 17, 8, 15, 11, 22, 2]",10,2,"[5, 28]",22.03351462,13803,928,2,0,11,1.557339079827622
basic,24,11,0,0,1,28,"[0, 1, 18, 27, 17, 8, 15, 11, 22, 2, 28]",11,0,[],11.4033688,14675,872,1,0,11,1.6700869539265486
basic,24,11,0,1,1,28,"[0, 1, 18, 27, 17, 8, 15, 11, 22, 2, 28]",11,0,[],11.4033688,18172,3497,1,0,11,1.6700869539265486
basic,25,9,0,0,0,0,[0],1,27,"[1, 3, 4, 5, 6, 7, 8, 9, 10, 11, 13, 14, 15, 16, 17, 18, 19, 20, 21, 22, 23, 24, 25, 26, 27, 28, 29]",300,96,-1,2,182,10,0.0
basic,25,9,0,0,0,8,"[0, 8]",2,25,"[1, 3, 4, 5, 6, 7, 9, 10, 11, 13, 14, 15, 16, 17, 18, 19, 20, 21, 22, 23, 24, 25, 26, 27, 28]",236.2191251,6135,6039,2,102,9,1.0
basic,25,9,0,0,0,28,"[0, 8, 28]",3,23,"[1, 3, 4, 5, 6, 7, 9, 10, 11, 13, 15, 16, 17, 18, 19, 20, 21, 22, 23, 24, 25, 26, 27]",225.4024713,9351,3216,2,52,9,1.0043219354187498
basic,25,9,0,0,0,26,"[0, 8, 28, 26]",4,22,"[1, 3, 4, 5, 6, 7, 9, 10, 11, 13, 15, 16, 17, 18, 19, 20, 21, 22, 23, 24, 25, 27]",180.6252449,11895,2544,2,14,9,1.0218284416881065
basic,25,9,0,0,0,18,"[0, 8, 28, 26, 18]",5,13,"[1, 3, 5, 6, 9, 13, 15, 16, 19, 20, 21, 23, 24]",119.7483199,12911,1016,2,6,9,1.0343247703783052
basic,25,9,0,0,0,5,"[0, 8, 28, 26, 18, 5]",6,3,"[1, 13, 24]",55.85778854,14207,1296,2,4,9,1.0965846847367935
basic,25,9,0,0,0,13,"[0, 8, 28, 26, 18, 5, 13]",7,2,"[1, 24]",40.59345102,14943,736,2,0,9,1.1139896497149246
basic,25,9,0,0,0,1,"[0, 8, 28, 26, 18, 5, 13, 1]",8,1,[24],21.38407831,15854,911,1,0,9,1.1383557864542861
basic,25,9,0,0,1,24,"[0, 8, 28, 26, 18, 5, 13, 1, 24]",9,0,[],0.384078307,17071,1217,1,0,9,1.199798605449175
basic,25,9,0,1,1,24,"[0, 8, 28, 26, 18, 5, 13, 1, 24]",9,0,[],0.384078307,19311,2240,1,0,9,1.199798605449175
basic,26,21,0,0,0,0,[0],1,29,"[1, 2, 3, 4, 5, 6, 7, 8, 9, 10, 11, 12, 13, 14, 15, 16, 17, 18, 19, 20, 21, 22, 23, 24, 25, 26, 27, 28, 29]",300,96,-1,84,830,9,0.0
basic,26,21,0,0,0,21,"[0, 21]",2,22,"[1, 3, 4, 6, 8, 9, 10, 11, 12, 14, 15, 16, 17, 18, 20, 22, 23, 24, 25, 26, 27, 29]",210.1111798,9120,9024,1,69,9,1.0
basic,26,21,0,0,0,14,"[0, 21, 14]",3,15,"[1, 4, 6, 8, 9, 15, 16, 17, 18, 20, 22, 23, 24, 25, 29]",184.4986828,9944,824,35,96,8,1.0083702391721483
basic,26,21,0,0,0,4,"[0, 21, 14, 4]",4,13,"[1, 8, 9, 15, 16, 17, 18, 20, 22, 23, 24, 25, 29]",170.3565472,10736,792,20,39,8,1.0135821167776475
basic,26,21,0,0,0,16,"[0, 21, 14, 4, 16]",5,7,"[8, 15, 17, 23, 24, 25, 29]",125.758341,11655,919,4,6,8,1.0675217597413178
basic,26,21,0,0,0,8,"[0, 21, 14, 4, 16, 8]",6,3,"[15, 23, 24]",107.1572657,12599,944,3,1,8,1.0643903127717425
basic,26,21,0,0,0,15,"[0, 21, 14, 4, 16, 8, 15]",7,2,"[23, 24]",82.15726573,13992,1393,2,0,8,1.29402645910376
basic,26,21,0,0,1,24,"[0, 21, 14, 4, 16, 8, 15, 24]",8,0,[],36.4516862,17776,3784,1,0,8,1.3251667405154008
basic,26,21,0,1,1,24,"[0, 21, 14, 4, 16, 8, 15, 24]",8,0,[],36.4516862,19839,2063,1,0,8,1.3251667405154008
basic,27,29,0,0,0,0,[0],1,29,"[1, 2, 3, 4, 5, 6, 7, 8, 9, 10, 11, 12, 13, 14, 15, 16, 17, 18, 19, 20, 21, 22, 23, 24, 25, 26, 27, 28, 29]",300,96,-1,1,78,9,0.0
basic,27,29,0,0,0,25,"[0, 25]",2,18,"[1, 2, 4, 5, 6, 7, 9, 10, 12, 13, 14, 15, 16, 17, 22, 26, 27, 28]",223.3449284,3737,3641,13,101,8,1.0
basic,27,29,0,0,0,1,"[0, 25, 1]",3,15,"[4, 5, 6, 7, 9, 10, 12, 13, 14, 15, 17, 22, 26, 27, 28]",187.8343666,4560,823,11,61,8,1.308415527582314
basic,27,29,0,0,0,14,"[0, 25, 1, 14]",4,12,"[4, 5, 6, 7, 9, 12, 13, 17, 22, 26, 27, 28]",144.8809034,5328,768,9,32,8,1.7138400796467363
basic,27,29,0,0,0,13,"[0, 25, 1, 14, 13]",5,10,"[4, 5, 6, 7, 9, 12, 17, 22, 27, 28]",126.853147,5952,624,9,15,8,1.5995815549042065
basic,27,29,0,0,0,5,"[0, 25, 1, 14, 13, 5]",6,7,"[4, 7, 9, 12, 22, 27, 28]",101.1432268,6696,744,7,3,8,1.6003565067425858
basic,27,29,0,0,0,4,"[0, 25, 1, 14, 13, 5, 4]",7,1,[9],49.24910379,7545,849,1,0,8,1.4264489277507912
basic,27,29,0,0,1,9,"[0, 25, 1, 14, 13, 5, 4, 9]",8,0,[],8.212534734,8800,1255,1,0,8,1.545580717709421
basic,27,29,0,1,1,9,"[0, 25, 1, 14, 13, 5, 4, 9]",8,0,[],8.212534734,10380,1580,1,0,8,1.545580717709421
