condition,trial_id,map_id,undoIndicator,submit,checkEnd,currentChoice,chosen_all,n_city_all,n_within_reach,cities_reach,currentBudget,time_all,rt_all,n_opt_paths_all,n_subopt_paths_all,mas_all,tortuosity_all
undo,0,7,0,0,0,0,[0],1,29,"[1, 2, 3, 4, 5, 6, 7, 8, 9, 10, 11, 12, 13, 14, 15, 16, 17, 18, 19, 20, 21, 22, 23, 24, 25, 26, 27, 28, 29]",300,105,-1,3,79,9,0.0
undo,0,7,0,0,0,23,"[0, 23]",2,28,"[1, 2, 3, 4, 5, 6, 7, 8, 9, 10, 11, 12, 13, 14, 15, 16, 17, 18, 19, 20, 21, 22, 24, 25, 26, 27, 28, 29]",253.7290588,4278,4173,6,103,8,1.0
undo,0,7,0,0,0,16,"[0, 23, 16]",3,20,"[1, 2, 3, 4, 5, 6, 7, 10, 11, 13, 14, 15, 18, 19, 20, 22, 24, 25, 27, 29]",164.6223812,8045,3767,12,52,7,1.0510824079114807
undo,0,7,0,0,0,14,"[0, 23, 16, 14]",4,7,"[1, 5, 10, 11, 22, 24, 29]",116.9883597,15124,7079,4,9,7,1.2073205725097695
undo,0,7,0,0,0,5,"[0, 23, 16, 14, 5]",5,6,"[1, 10, 11, 22, 24, 29]",101.9883597,18061,2937,4,3,7,1.2533135392642498
undo,0,7,0,0,0,10,"[0, 23, 16, 14, 5, 10]",6,1,[11],42.52408471,20581,2520,1,0,7,1.845859628221461
undo,0,7,0,0,1,11,"[0, 23, 16, 14, 5, 10, 11]",7,0,[],0.738919879,22735,2154,1,0,7,1.6538810426195594
undo,0,7,0,1,1,11,"[0, 23, 16, 14, 5, 10, 11]",7,0,[],0.738919879,25419,2684,1,0,7,1.6538810426195594
undo,1,14,0,0,0,0,[0],1,29,"[1, 2, 3, 4, 5, 6, 7, 8, 9, 10, 11, 12, 13, 14, 15, 16, 17, 18, 19, 20, 21, 22, 23, 24, 25, 26, 27, 28, 29]",300,171,-1,8,157,10,0.0
undo,1,14,0,0,0,18,"[0, 18]",2,17,"[1, 2, 3, 4, 7, 8, 9, 13, 15, 17, 19, 20, 22, 23, 25, 26, 28]",179.8958785,7090,6919,18,136,9,1.0
undo,1,14,0,0,0,8,"[0, 18, 8]",3,13,"[1, 2, 4, 7, 13, 15, 17, 19, 20, 23, 25, 26, 28]",166.294408,8355,1265,18,99,9,1.0203858410107731
undo,1,14,0,0,0,1,"[0, 18, 8, 1]",4,10,"[2, 4, 7, 15, 17, 19, 23, 25, 26, 28]",142.6935606,10357,2002,11,42,9,1.0173392374431458
undo,1,14,0,0,0,19,"[0, 18, 8, 1, 19]",5,9,"[2, 4, 7, 15, 17, 23, 25, 26, 28]",127.4620143,12350,1993,11,22,9,1.1668364376922102
undo,1,14,0,0,0,25,"[0, 18, 8, 1, 19, 25]",6,5,"[2, 4, 7, 23, 26]",91.61511768,14876,2526,5,7,9,1.273103293863789
undo,1,14,0,0,0,23,"[0, 18, 8, 1, 19, 25, 23]",7,3,"[4, 7, 26]",62.20423534,16966,2090,2,2,9,1.2650679654635444
undo,1,14,0,0,0,26,"[0, 18, 8, 1, 19, 25, 23, 26]",8,2,"[4, 7]",51.38758152,18045,1079,2,0,9,1.2530957004441798
undo,1,14,0,0,1,7,"[0, 18, 8, 1, 19, 25, 23, 26, 7]",9,0,[],6.287692383,20996,2951,1,0,9,1.6817917810897667
undo,1,14,0,1,1,7,"[0, 18, 8, 1, 19, 25, 23, 26, 7]",9,0,[],6.287692383,23113,2117,1,0,9,1.6817917810897667
undo,2,23,0,0,0,0,[0],1,28,"[1, 2, 3, 4, 5, 6, 7, 8, 9, 10, 11, 12, 13, 14, 15, 16, 17, 18, 19, 20, 21, 22, 23, 25, 26, 27, 28, 29]",300,131,-1,76,2626,10,0.0
undo,2,23,0,0,0,18,"[0, 18]",2,14,"[2, 5, 6, 7, 9, 10, 12, 13, 14, 19, 21, 22, 27, 29]",203.8958898,7487,7356,73,787,9,1.0
undo,2,23,0,0,0,27,"[0, 18, 27]",3,9,"[2, 6, 7, 9, 12, 13, 14, 22, 29]",128.5832083,8922,1435,51,277,9,1.1972268052690318
undo,2,23,0,0,0,6,"[0, 18, 27, 6]",4,8,"[2, 7, 9, 12, 13, 14, 22, 29]",100.2812649,10887,1965,43,68,9,1.3293035545030156
undo,2,23,0,0,0,2,"[0, 18, 27, 6, 2]",5,6,"[9, 12, 13, 14, 22, 29]",81.84217594,13106,2219,16,17,9,1.5987085337271232
undo,2,23,0,0,0,12,"[0, 18, 27, 6, 2, 12]",6,5,"[9, 13, 14, 22, 29]",67.94973195,14328,1222,4,5,9,1.8929166061978238
undo,2,23,0,0,0,13,"[0, 18, 27, 6, 2, 12, 13]",7,3,"[9, 14, 22]",55.86668598,15888,1560,2,1,9,2.205763785795194
undo,2,23,0,0,0,9,"[0, 18, 27, 6, 2, 12, 13, 9]",8,1,[14],31.84586168,17889,2001,1,0,9,2.0524872333624122
undo,2,23,0,0,1,14,"[0, 18, 27, 6, 2, 12, 13, 9, 14]",9,0,[],21.40555517,19768,1879,1,0,9,1.9773893774704039
undo,2,23,0,1,1,14,"[0, 18, 27, 6, 2, 12, 13, 9, 14]",9,0,[],21.40555517,21346,1578,1,0,9,1.9773893774704039
undo,3,35,0,0,0,0,[0],1,29,"[1, 2, 3, 4, 5, 6, 7, 8, 9, 10, 11, 12, 13, 14, 15, 16, 17, 18, 19, 20, 21, 22, 23, 24, 25, 26, 27, 28, 29]",300,110,-1,5,236,11,0.0
undo,3,35,0,0,0,27,"[0, 27]",2,27,"[1, 2, 4, 5, 6, 7, 8, 9, 10, 11, 12, 13, 14, 15, 16, 17, 18, 19, 20, 21, 22, 23, 24, 25, 26, 28, 29]",278.7867966,5548,5438,5,144,11,1.0
undo,3,35,0,0,0,24,"[0, 27, 24]",3,25,"[1, 2, 4, 5, 6, 7, 8, 9, 10, 11, 12, 13, 15, 16, 17, 18, 19, 20, 21, 22, 23, 25, 26, 28, 29]",234.6053525,8215,2667,3,80,11,2.1084080567904624
undo,3,35,0,0,0,17,"[0, 27, 24, 17]",4,20,"[1, 2, 4, 5, 6, 7, 8, 9, 10, 15, 16, 18, 19, 20, 21, 23, 25, 26, 28, 29]",222.9006526,9154,939,3,50,11,1.9439555968916868
undo,3,35,0,0,0,1,"[0, 27, 24, 17, 1]",5,18,"[2, 4, 5, 6, 8, 9, 10, 15, 16, 18, 19, 20, 21, 23, 25, 26, 28, 29]",207.0892643,10319,1165,3,39,11,1.9436711872547336
undo,3,35,0,0,0,15,"[0, 27, 24, 17, 1, 15]",6,16,"[2, 4, 5, 6, 8, 9, 10, 16, 18, 19, 20, 23, 25, 26, 28, 29]",184.241945,12048,1729,3,24,11,2.082774572108194
undo,3,35,0,0,0,5,"[0, 27, 24, 17, 1, 15, 5]",7,9,"[4, 6, 9, 18, 20, 23, 25, 26, 29]",127.9214336,14591,2543,5,10,10,1.5417716194695787
undo,3,35,0,0,0,4,"[0, 27, 24, 17, 1, 15, 5, 4]",8,1,[29],40.71478248,17099,2508,1,0,9,1.3139866017479045
undo,3,35,0,0,1,29,"[0, 27, 24, 17, 1, 15, 5, 4, 29]",9,0,[],21.47939842,18330,1231,1,0,9,1.298101147556882
undo,3,35,0,1,1,29,"[0, 27, 24, 17, 1, 15, 5, 4, 29]",9,0,[],21.47939842,19659,1329,1,0,9,1.298101147556882
undo,4,1,0,0,0,0,[0],1,26,"[1, 2, 4, 5, 7, 8, 9, 10, 11, 12, 13, 14, 15, 16, 17, 18, 19, 20, 21, 22, 23, 24, 25, 26, 28, 29]",300,131,-1,6,74,7,0.0
undo,4,1,0,0,0,8,"[0, 8]",2,23,"[1, 4, 5, 7, 9, 10, 11, 12, 13, 14, 15, 16, 17, 18, 19, 20, 21, 23, 24, 25, 26, 28, 29]",202,5687,5556,1,16,7,1.0
undo,4,1,0,0,0,20,"[0, 8, 20]",3,12,"[1, 4, 5, 11, 13, 14, 15, 17, 18, 19, 28, 29]",125.9408125,7362,1675,1,7,7,1.02364736730791
undo,4,1,0,0,0,5,"[0, 8, 20, 5]",4,7,"[1, 4, 11, 13, 17, 18, 29]",104.469902,8845,1483,1,3,7,1.0439599203945713
undo,4,1,0,0,0,18,"[0, 8, 20, 5, 18]",5,2,"[4, 29]",81.64447755,10836,1991,1,1,7,1.0840407791793756
undo,4,1,0,0,0,4,"[0, 8, 20, 5, 18, 4]",6,1,[29],42.69579336,12228,1392,1,0,7,1.0902329133216275
undo,4,1,0,0,1,29,"[0, 8, 20, 5, 18, 4, 29]",7,0,[],6.640280603,21800,9572,1,0,7,1.2859729622882756
undo,4,1,0,1,1,29,"[0, 8, 20, 5, 18, 4, 29]",7,0,[],6.640280603,23262,1462,1,0,7,1.2859729622882756
undo,5,36,0,0,0,0,[0],1,24,"[2, 4, 5, 6, 7, 8, 9, 10, 12, 13, 14, 15, 16, 17, 18, 19, 20, 22, 23, 25, 26, 27, 28, 29]",300,114,-1,2,200,10,0.0
undo,5,36,0,0,0,12,"[0, 12]",2,23,"[2, 4, 5, 6, 7, 8, 9, 10, 13, 14, 15, 16, 17, 18, 19, 20, 22, 23, 25, 26, 27, 28, 29]",277.7963967,3188,3074,90,804,9,1.0
undo,5,36,0,0,0,9,"[0, 12, 9]",3,14,"[2, 4, 8, 10, 13, 16, 17, 18, 19, 23, 25, 27, 28, 29]",215.4345494,5203,2015,32,191,9,1.224429481246385
undo,5,36,0,0,0,16,"[0, 12, 9, 16]",4,8,"[2, 10, 13, 17, 18, 19, 23, 25]",168.137615,6939,1736,7,26,9,1.235383731443557
undo,5,36,0,0,0,17,"[0, 12, 9, 16, 17]",5,6,"[2, 10, 13, 18, 19, 25]",139.8180105,8184,1245,7,14,9,1.6947865799475665
undo,5,36,0,0,0,19,"[0, 12, 9, 16, 17, 19]",6,5,"[2, 10, 13, 18, 25]",111.9253591,9507,1323,6,1,9,2.440059772477113
undo,5,36,0,0,0,2,"[0, 12, 9, 16, 17, 19, 2]",7,2,"[13, 25]",74.80393675,11174,1667,2,0,9,1.994135267441798
undo,5,36,0,0,0,13,"[0, 12, 9, 16, 17, 19, 2, 13]",8,1,[25],36.47640096,13229,2055,1,0,9,2.68677919794749
undo,5,36,0,0,1,25,"[0, 12, 9, 16, 17, 19, 2, 13, 25]",9,0,[],15.88514068,14870,1641,1,0,9,2.4815654371997975
undo,5,36,0,1,1,25,"[0, 12, 9, 16, 17, 19, 2, 13, 25]",9,0,[],15.88514068,17364,2494,1,0,9,2.4815654371997975
undo,6,13,0,0,0,0,[0],1,29,"[1, 2, 3, 4, 5, 6, 7, 8, 9, 10, 11, 12, 13, 14, 15, 16, 17, 18, 19, 20, 21, 22, 23, 24, 25, 26, 27, 28, 29]",300,143,-1,60,2676,11,0.0
undo,6,13,0,0,0,26,"[0, 26]",2,24,"[1, 2, 3, 4, 6, 7, 8, 9, 10, 11, 12, 13, 15, 16, 17, 19, 20, 21, 22, 23, 24, 27, 28, 29]",204.3286877,5223,5080,20,684,9,1.0
undo,6,13,0,0,0,6,"[0, 26, 6]",3,21,"[1, 2, 3, 4, 7, 8, 9, 11, 12, 13, 15, 16, 17, 19, 20, 21, 23, 24, 27, 28, 29]",184.2289364,14884,9661,2,146,9,1.0662561260365937
undo,6,13,0,0,0,11,"[0, 26, 6, 11]",4,18,"[1, 2, 3, 4, 7, 9, 13, 15, 16, 17, 19, 20, 21, 23, 24, 27, 28, 29]",165.1239633,17455,2571,2,57,9,1.0573391864046826
undo,6,13,0,0,0,7,"[0, 26, 6, 11, 7]",5,14,"[1, 2, 3, 9, 13, 15, 16, 17, 19, 21, 23, 24, 28, 29]",135.0573705,19822,2367,2,23,9,1.5669784851035644
undo,6,13,0,0,0,29,"[0, 26, 6, 11, 7, 29]",6,9,"[1, 2, 13, 16, 17, 19, 23, 24, 28]",119.793033,21880,2058,2,11,9,1.6190246118536817
undo,6,13,0,0,0,2,"[0, 26, 6, 11, 7, 29, 2]",7,7,"[1, 13, 17, 19, 23, 24, 28]",108.0883331,23295,1415,2,6,9,1.7511763119776622
undo,6,13,0,0,1,1,"[0, 26, 6, 11, 7, 29, 2, 1]",8,0,[],48.08000032,29707,6412,1,0,8,1.6178995449230482
undo,6,13,0,1,1,1,"[0, 26, 6, 11, 7, 29, 2, 1]",8,0,[],48.08000032,33707,4000,1,0,8,1.6178995449230482
undo,7,41,0,0,0,0,[0],1,29,"[1, 2, 3, 4, 5, 6, 7, 8, 9, 10, 11, 12, 13, 14, 15, 16, 17, 18, 19, 20, 21, 22, 23, 24, 25, 26, 27, 28, 29]",300,134,-1,1,143,10,0.0
undo,7,41,0,0,0,21,"[0, 21]",2,28,"[1, 2, 3, 4, 5, 6, 7, 8, 9, 10, 11, 12, 13, 14, 15, 16, 17, 18, 19, 20, 22, 23, 24, 25, 26, 27, 28, 29]",251.1226024,9199,9065,50,469,8,1.0
undo,7,41,0,0,0,3,"[0, 21, 3]",3,26,"[1, 2, 5, 6, 7, 8, 9, 10, 11, 12, 13, 14, 15, 16, 17, 18, 19, 20, 22, 23, 24, 25, 26, 27, 28, 29]",218.982285,10953,1754,16,151,8,2.044702670024013
undo,7,41,0,0,0,5,"[0, 21, 3, 5]",4,16,"[1, 2, 6, 9, 10, 12, 13, 14, 17, 18, 20, 22, 24, 25, 27, 28]",184.1541355,12574,1621,8,39,8,3.691156164291917
undo,7,41,0,0,0,28,"[0, 21, 3, 5, 28]",5,12,"[2, 6, 9, 10, 12, 13, 17, 18, 20, 22, 24, 27]",170.552665,13844,1270,7,18,8,3.22012281246428
undo,7,41,0,0,0,13,"[0, 21, 3, 5, 28, 13]",6,8,"[2, 9, 10, 17, 18, 20, 22, 27]",136.0707857,16470,2626,4,5,8,3.9287733192187955
undo,7,41,0,0,0,20,"[0, 21, 3, 5, 28, 13, 20]",7,1,[18],73.42096523,18469,1999,1,0,8,2.4066051884531143
undo,7,41,0,0,1,18,"[0, 21, 3, 5, 28, 13, 20, 18]",8,0,[],2.252151833,20511,2042,1,0,8,2.4252068260007653
undo,7,41,0,1,1,18,"[0, 21, 3, 5, 28, 13, 20, 18]",8,0,[],2.252151833,21828,1317,1,0,8,2.4252068260007653
undo,8,31,0,0,0,0,[0],1,27,"[1, 3, 4, 5, 6, 7, 8, 10, 11, 12, 13, 14, 15, 16, 17, 18, 19, 20, 21, 22, 23, 24, 25, 26, 27, 28, 29]",300,127,-1,2,87,10,0.0
undo,8,31,0,0,0,14,"[0, 14]",2,25,"[1, 3, 5, 6, 7, 8, 10, 11, 12, 13, 15, 16, 17, 18, 19, 20, 21, 22, 23, 24, 25, 26, 27, 28, 29]",263.861378,2783,2656,2,59,10,1.0
undo,8,31,0,0,0,27,"[0, 14, 27]",3,22,"[1, 3, 5, 6, 7, 8, 10, 11, 12, 13, 15, 16, 17, 18, 19, 20, 21, 22, 24, 25, 28, 29]",235.6833724,4284,1501,1,39,10,1.5881859159302467
undo,8,31,0,0,0,8,"[0, 14, 27, 8]",4,20,"[1, 3, 5, 6, 7, 10, 11, 12, 13, 16, 17, 18, 19, 20, 21, 22, 24, 25, 28, 29]",224.6380114,5956,1672,1,36,10,2.1665048452331277
undo,8,31,0,0,0,11,"[0, 14, 27, 8, 11]",5,13,"[1, 5, 7, 12, 13, 16, 17, 18, 19, 20, 22, 25, 28]",173.3934995,9449,3493,7,41,9,2.0680270430571026
undo,8,31,0,0,0,18,"[0, 14, 27, 8, 11, 18]",6,12,"[1, 5, 7, 12, 13, 16, 17, 19, 20, 22, 25, 28]",138.5079724,14982,5533,5,9,9,2.50835395439338
undo,8,31,0,0,0,17,"[0, 14, 27, 8, 11, 18, 17]",7,6,"[1, 5, 12, 22, 25, 28]",109.3018087,16455,1473,4,2,9,2.1066801061614195
undo,8,31,0,0,0,25,"[0, 14, 27, 8, 11, 18, 17, 25]",8,1,[12],48.86175571,17973,1518,1,0,9,1.740953809415273
undo,8,31,0,0,1,12,"[0, 14, 27, 8, 11, 18, 17, 25, 12]",9,0,[],18.26763863,19915,1942,1,0,9,1.6236356164288444
undo,8,31,0,1,1,12,"[0, 14, 27, 8, 11, 18, 17, 25, 12]",9,0,[],18.26763863,21309,1394,1,0,9,1.6236356164288444
undo,9,2,0,0,0,0,[0],1,23,"[1, 2, 4, 5, 6, 7, 8, 9, 12, 13, 15, 16, 17, 18, 19, 20, 22, 23, 25, 26, 27, 28, 29]",300,113,-1,70,620,10,0.0
undo,9,2,0,0,0,19,"[0, 19]",2,22,"[1, 2, 4, 5, 6, 7, 8, 9, 12, 13, 15, 16, 17, 18, 20, 22, 23, 25, 26, 27, 28, 29]",210.306076,6770,6657,67,431,10,1.0
undo,9,2,0,0,0,12,"[0, 19, 12]",3,17,"[1, 4, 5, 6, 7, 13, 15, 16, 17, 18, 20, 22, 25, 26, 27, 28, 29]",174.2921898,8041,1271,66,298,10,1.1107635036313153
undo,9,2,0,0,0,5,"[0, 19, 12, 5]",4,11,"[1, 6, 7, 13, 15, 16, 18, 22, 25, 26, 29]",144.7625437,9668,1627,38,136,10,1.0968174771581647
undo,9,2,0,0,0,22,"[0, 19, 12, 5, 22]",5,8,"[1, 6, 7, 13, 15, 18, 26, 29]",131.9562952,10876,1208,20,63,10,1.0889910507461968
undo,9,2,0,0,0,13,"[0, 19, 12, 5, 22, 13]",6,7,"[1, 6, 7, 15, 18, 26, 29]",117.0902265,12374,1498,19,20,10,1.236526217328057
undo,9,2,0,0,0,18,"[0, 19, 12, 5, 22, 13, 18]",7,4,"[7, 15, 26, 29]",81.91921567,13939,1565,10,3,10,1.2128708213409936
undo,9,2,0,0,0,7,"[0, 19, 12, 5, 22, 13, 18, 7]",8,3,"[15, 26, 29]",71.62358553,15150,1211,5,0,10,1.2019811287894737
undo,9,2,0,0,0,26,"[0, 19, 12, 5, 22, 13, 18, 7, 26]",9,2,"[15, 29]",48.82007703,16490,1340,2,0,10,1.1883593342191134
undo,9,2,0,0,1,15,"[0, 19, 12, 5, 22, 13, 18, 7, 26, 15]",10,0,[],24.61264015,20408,3918,1,0,10,1.4619750353663825
undo,9,2,0,1,1,15,"[0, 19, 12, 5, 22, 13, 18, 7, 26, 15]",10,0,[],24.61264015,22662,2254,1,0,10,1.4619750353663825
undo,10,8,0,0,0,0,[0],1,29,"[1, 2, 3, 4, 5, 6, 7, 8, 9, 10, 11, 12, 13, 14, 15, 16, 17, 18, 19, 20, 21, 22, 23, 24, 25, 26, 27, 28, 29]",300,113,-1,10,149,9,0.0
undo,10,8,0,0,0,5,"[0, 5]",2,28,"[1, 2, 3, 4, 6, 7, 8, 9, 10, 11, 12, 13, 14, 15, 16, 17, 18, 19, 20, 21, 22, 23, 24, 25, 26, 27, 28, 29]",254.5137383,3127,3014,10,100,9,1.0
undo,10,8,0,0,0,25,"[0, 5, 25]",3,20,"[1, 2, 3, 4, 6, 11, 12, 14, 15, 16, 17, 18, 19, 20, 21, 22, 23, 24, 28, 29]",215.3091468,4567,1440,4,42,9,1.2272747879909065
undo,10,8,0,0,0,1,"[0, 5, 25, 1]",4,17,"[3, 4, 6, 11, 12, 14, 15, 16, 17, 18, 20, 21, 22, 23, 24, 28, 29]",190.3091468,5760,1193,3,24,9,1.1770245007593956
undo,10,8,0,0,0,23,"[0, 5, 25, 1, 23]",5,15,"[3, 4, 6, 11, 14, 15, 16, 17, 18, 20, 21, 22, 24, 28, 29]",167.2874179,7535,1775,1,14,9,1.141996583852372
undo,10,8,0,0,0,18,"[0, 5, 25, 1, 23, 18]",6,9,"[3, 4, 11, 14, 15, 16, 17, 24, 28]",125.5261919,9032,1497,1,7,9,1.3199166330970717
undo,10,8,0,0,0,14,"[0, 5, 25, 1, 23, 18, 14]",7,2,"[11, 17]",68.03706246,10509,1477,1,1,9,2.714920831666598
undo,10,8,0,0,0,17,"[0, 5, 25, 1, 23, 18, 14, 17]",8,1,[11],31.02355141,13540,3031,1,0,9,2.462600896722246
undo,10,8,0,0,1,11,"[0, 5, 25, 1, 23, 18, 14, 17, 11]",9,0,[],5.84419479,15527,1987,1,0,9,2.246839316887767
undo,10,8,0,1,1,11,"[0, 5, 25, 1, 23, 18, 14, 17, 11]",9,0,[],5.84419479,16878,1351,1,0,9,2.246839316887767
undo,11,5,0,0,0,0,[0],1,29,"[1, 2, 3, 4, 5, 6, 7, 8, 9, 10, 11, 12, 13, 14, 15, 16, 17, 18, 19, 20, 21, 22, 23, 24, 25, 26, 27, 28, 29]",300,112,-1,5,139,9,0.0
undo,11,5,0,0,0,23,"[0, 23]",2,27,"[1, 2, 3, 4, 5, 6, 7, 8, 9, 10, 11, 12, 13, 14, 15, 16, 17, 18, 19, 20, 21, 22, 24, 25, 26, 27, 28]",249.8402552,2708,2596,3,75,9,1.0
undo,11,5,0,0,0,25,"[0, 23, 25]",3,23,"[1, 2, 3, 4, 5, 6, 8, 9, 10, 12, 13, 14, 15, 16, 17, 18, 19, 21, 22, 24, 26, 27, 28]",231.4011663,6032,3324,3,43,9,1.0923159590575564
undo,11,5,0,0,0,12,"[0, 23, 25, 12]",4,19,"[2, 4, 5, 6, 8, 9, 10, 13, 14, 15, 16, 17, 18, 19, 21, 22, 24, 26, 27]",203.6162783,7567,1535,13,38,8,1.344380276762952
undo,11,5,0,0,0,24,"[0, 23, 25, 12, 24]",5,13,"[4, 5, 6, 8, 9, 13, 15, 17, 18, 19, 22, 26, 27]",151.7607096,9655,2088,9,16,8,2.0468715098289354
undo,11,5,0,0,0,17,"[0, 23, 25, 12, 24, 17]",6,7,"[4, 5, 6, 8, 15, 18, 19]",116.7749983,11204,1549,8,2,8,1.715984108382044
undo,11,5,0,0,0,5,"[0, 23, 25, 12, 24, 17, 5]",7,4,"[4, 6, 15, 18]",73.72851177,15951,4747,4,0,8,1.5138688362730213
undo,11,5,0,0,1,15,"[0, 23, 25, 12, 24, 17, 5, 15]",8,0,[],33.70351958,17600,1649,1,0,8,1.5069791680385138
undo,11,5,0,1,1,15,"[0, 23, 25, 12, 24, 17, 5, 15]",8,0,[],33.70351958,19611,2011,1,0,8,1.5069791680385138
undo,12,40,0,0,0,0,[0],1,29,"[1, 2, 3, 4, 5, 6, 7, 8, 9, 10, 11, 12, 13, 14, 15, 16, 17, 18, 19, 20, 21, 22, 23, 24, 25, 26, 27, 28, 29]",300,131,-1,8,191,9,0.0
undo,12,40,0,0,0,1,"[0, 1]",2,18,"[2, 5, 6, 7, 8, 9, 10, 11, 13, 15, 17, 18, 19, 21, 22, 23, 27, 29]",247.8463808,3509,3378,4,80,9,1.0
undo,12,40,0,0,0,6,"[0, 1, 6]",3,17,"[2, 5, 7, 8, 9, 10, 11, 13, 15, 17, 18, 19, 21, 22, 23, 27, 29]",227.7466295,4525,1016,4,74,9,1.0459427008232034
undo,12,40,0,0,0,21,"[0, 1, 6, 21]",4,8,"[2, 5, 9, 17, 18, 19, 22, 23]",175.7754837,7811,3286,4,25,9,1.0308822257404064
undo,12,40,0,0,0,9,"[0, 1, 6, 21, 9]",5,6,"[2, 5, 18, 19, 22, 23]",130.0699041,9170,1359,4,12,9,1.377861912961129
undo,12,40,0,0,0,18,"[0, 1, 6, 21, 9, 18]",6,5,"[2, 5, 19, 22, 23]",113.5169588,10336,1166,4,4,9,1.5742712168661408
undo,12,40,0,0,0,23,"[0, 1, 6, 21, 9, 18, 23]",7,3,"[2, 5, 19]",79.51695879,11837,1501,2,1,9,2.324611956726637
undo,12,40,0,0,0,5,"[0, 1, 6, 21, 9, 18, 23, 5]",8,1,[19],51.21501539,13220,1383,1,0,9,2.022909590433451
undo,12,40,0,0,1,19,"[0, 1, 6, 21, 9, 18, 23, 5, 19]",9,0,[],13.13614986,16270,3050,1,0,9,2.796177718843732
undo,12,40,0,1,1,19,"[0, 1, 6, 21, 9, 18, 23, 5, 19]",9,0,[],13.13614986,17396,1126,1,0,9,2.796177718843732
undo,13,38,0,0,0,0,[0],1,29,"[1, 2, 3, 4, 5, 6, 7, 8, 9, 10, 11, 12, 13, 14, 15, 16, 17, 18, 19, 20, 21, 22, 23, 24, 25, 26, 27, 28, 29]",300,114,-1,33,506,9,0.0
undo,13,38,0,0,0,11,"[0, 11]",2,23,"[1, 2, 3, 4, 5, 7, 10, 12, 13, 14, 15, 16, 17, 18, 19, 20, 21, 22, 24, 25, 26, 27, 28]",220.093805,5950,5836,2,40,9,1.0
undo,13,38,0,0,0,28,"[0, 11, 28]",3,16,"[1, 4, 5, 7, 10, 12, 13, 14, 15, 16, 17, 19, 20, 21, 24, 26]",193.0752928,8977,3027,2,20,9,1.0012220945316377
undo,13,38,0,0,0,16,"[0, 11, 28, 16]",4,13,"[1, 4, 5, 10, 12, 13, 14, 15, 17, 19, 20, 24, 26]",164.0752928,10513,1536,2,16,9,1.2422672958602723
undo,13,38,0,0,0,15,"[0, 11, 28, 16, 15]",5,9,"[4, 5, 13, 14, 17, 19, 20, 24, 26]",122.4579887,11794,1281,2,14,9,2.4196280466601676
undo,13,38,0,0,0,4,"[0, 11, 28, 16, 15, 4]",6,6,"[13, 17, 19, 20, 24, 26]",96.45798873,13487,1693,2,9,9,2.9030072771852855
undo,13,38,0,0,0,20,"[0, 11, 28, 16, 15, 4, 20]",7,3,"[13, 17, 19]",62.51686323,14781,1294,1,2,9,4.409951139385221
undo,13,38,0,0,0,17,"[0, 11, 28, 16, 15, 4, 20, 17]",8,1,[19],38.74713459,16656,1875,1,0,9,4.030739410625113
undo,13,38,0,0,1,19,"[0, 11, 28, 16, 15, 4, 20, 17, 19]",9,0,[],17.36957626,19393,2737,1,0,9,3.511004666623391
undo,13,38,0,1,1,19,"[0, 11, 28, 16, 15, 4, 20, 17, 19]",9,0,[],17.36957626,20745,1352,1,0,9,3.511004666623391
undo,14,9,0,0,0,0,[0],1,27,"[1, 3, 4, 5, 6, 7, 8, 9, 10, 11, 13, 14, 15, 16, 17, 18, 19, 20, 21, 22, 23, 24, 25, 26, 27, 28, 29]",300,112,-1,2,182,10,0.0
undo,14,9,0,0,0,25,"[0, 25]",2,24,"[1, 3, 4, 5, 6, 7, 8, 9, 10, 11, 13, 15, 16, 17, 18, 19, 20, 21, 22, 23, 24, 26, 27, 28]",275.9168108,3001,2889,2,104,10,1.0
undo,14,9,0,0,0,10,"[0, 25, 10]",3,20,"[3, 4, 5, 7, 8, 9, 11, 13, 15, 16, 17, 18, 19, 20, 21, 22, 23, 26, 27, 28]",236.0670932,4268,1267,2,76,10,1.1767014107208227
undo,14,9,0,0,0,8,"[0, 25, 10, 8]",4,19,"[3, 4, 5, 7, 9, 11, 13, 15, 16, 17, 18, 19, 20, 21, 22, 23, 26, 27, 28]",187.6935467,6036,1768,1,29,10,1.7608170712242983
undo,14,9,0,0,0,28,"[0, 25, 10, 8, 28]",5,18,"[3, 4, 5, 7, 9, 11, 13, 15, 16, 17, 18, 19, 20, 21, 22, 23, 26, 27]",176.8768928,10694,4658,1,15,10,1.6576318206889098
undo,14,9,0,0,0,26,"[0, 25, 10, 8, 28, 26]",6,11,"[3, 5, 9, 15, 16, 18, 19, 20, 21, 22, 23]",132.0996665,12185,1491,9,5,8,1.4371994815444726
undo,14,9,0,0,0,21,"[0, 25, 10, 8, 28, 26, 21]",7,2,"[20, 23]",78.19233859,14250,2065,2,0,8,1.871278297559249
undo,14,9,0,0,1,20,"[0, 25, 10, 8, 28, 26, 21, 20]",8,0,[],66.10929262,15516,1266,1,0,8,1.8467613864205261
undo,14,9,0,1,1,20,"[0, 25, 10, 8, 28, 26, 21, 20]",8,0,[],66.10929262,17644,2128,1,0,8,1.8467613864205261
undo,15,11,0,0,0,0,[0],1,25,"[1, 2, 3, 4, 5, 6, 8, 9, 10, 11, 12, 13, 14, 15, 16, 17, 18, 19, 20, 22, 23, 25, 26, 27, 28]",300,130,-1,6,374,12,0.0
undo,15,11,0,0,0,17,"[0, 17]",2,18,"[1, 2, 4, 5, 6, 8, 10, 11, 12, 15, 18, 19, 22, 23, 25, 26, 27, 28]",152.9217895,2623,2493,218,762,9,1.0
undo,15,11,0,0,0,8,"[0, 17, 8]",3,15,"[1, 2, 4, 5, 6, 11, 12, 15, 18, 19, 22, 23, 25, 27, 28]",138.6039684,4527,1904,95,263,9,1.1114912532636003
undo,15,11,0,0,0,15,"[0, 17, 8, 15]",4,11,"[2, 5, 6, 11, 12, 18, 19, 22, 25, 27, 28]",125.1503444,6123,1596,62,51,9,1.1146194627724886
undo,15,11,0,0,0,11,"[0, 17, 8, 15, 11]",5,9,"[2, 5, 6, 12, 19, 22, 25, 27, 28]",107.0395741,7457,1334,24,2,9,1.1130192047684102
undo,15,11,0,0,0,28,"[0, 17, 8, 15, 11, 28]",6,4,"[2, 5, 19, 22]",87.62308629,10185,2728,6,2,9,1.2290091933070886
undo,15,11,0,0,0,5,"[0, 17, 8, 15, 11, 28, 5]",7,2,"[2, 22]",69.73454247,11579,1394,2,0,9,1.4153375425476789
undo,15,11,0,0,0,2,"[0, 17, 8, 15, 11, 28, 5, 2]",8,1,[22],52.73454247,12969,1390,1,0,9,1.3853330540064914
undo,15,11,0,0,1,22,"[0, 17, 8, 15, 11, 28, 5, 2, 22]",9,0,[],42.68466685,14390,1421,1,0,9,1.3648232332892756
undo,15,11,0,1,1,22,"[0, 17, 8, 15, 11, 28, 5, 2, 22]",9,0,[],42.68466685,15529,1139,1,0,9,1.3648232332892756
undo,16,10,0,0,0,0,[0],1,29,"[1, 2, 3, 4, 5, 6, 7, 8, 9, 10, 11, 12, 13, 14, 15, 16, 17, 18, 19, 20, 21, 22, 23, 24, 25, 26, 27, 28, 29]",300,114,-1,1,100,9,0.0
undo,16,10,0,0,0,13,"[0, 13]",2,25,"[1, 2, 3, 4, 6, 7, 8, 9, 10, 11, 12, 14, 17, 18, 19, 20, 21, 22, 23, 24, 25, 26, 27, 28, 29]",249.4628849,2542,2428,1,79,9,1.0
undo,16,10,0,0,0,11,"[0, 13, 11]",3,20,"[1, 2, 3, 6, 7, 8, 9, 10, 12, 14, 18, 19, 20, 21, 22, 24, 26, 27, 28, 29]",206.4512586,3806,1264,1,54,9,1.0313137484914219
undo,16,10,0,0,0,19,"[0, 13, 11, 19]",4,11,"[2, 6, 8, 9, 10, 14, 18, 20, 24, 26, 27]",170.0919407,4786,980,1,22,9,1.0879446220132545
undo,16,10,0,0,0,2,"[0, 13, 11, 19, 2]",5,4,"[14, 20, 26, 27]",126.1829439,7586,2800,1,4,9,1.06474052351343
undo,16,10,0,0,0,14,"[0, 13, 11, 19, 2, 14]",6,3,"[20, 26, 27]",114.0174188,8891,1305,1,3,9,1.1628909195912238
undo,16,10,0,0,0,26,"[0, 13, 11, 19, 2, 14, 26]",7,2,"[20, 27]",79.34754716,10163,1272,1,1,9,1.6660727647633602
undo,16,10,0,0,0,20,"[0, 13, 11, 19, 2, 14, 26, 20]",8,1,[27],47.56704999,11352,1189,1,0,9,2.085581809637999
undo,16,10,0,0,1,27,"[0, 13, 11, 19, 2, 14, 26, 20, 27]",9,0,[],2.312215998,14389,3037,1,0,9,1.9116357409137932
undo,16,10,0,1,1,27,"[0, 13, 11, 19, 2, 14, 26, 20, 27]",9,0,[],2.312215998,15830,1441,1,0,9,1.9116357409137932
undo,17,15,0,0,0,0,[0],1,25,"[1, 2, 3, 4, 7, 8, 9, 10, 11, 12, 13, 14, 15, 16, 18, 20, 21, 22, 23, 24, 25, 26, 27, 28, 29]",300,149,-1,4,65,9,0.0
undo,17,15,0,0,0,7,"[0, 7]",2,23,"[1, 3, 4, 8, 9, 10, 11, 12, 13, 14, 15, 16, 18, 20, 21, 22, 23, 24, 25, 26, 27, 28, 29]",215.1884442,4325,4176,30,107,8,1.0
undo,17,15,0,0,0,16,"[0, 7, 16]",3,14,"[3, 4, 9, 10, 11, 12, 13, 14, 15, 18, 21, 22, 25, 27]",171.5306843,5688,1363,11,27,8,1.1253230463291073
undo,17,15,0,0,0,11,"[0, 7, 16, 11]",4,10,"[3, 4, 12, 13, 14, 15, 18, 21, 22, 27]",145.5114606,6905,1217,6,10,8,1.2441772230587118
undo,17,15,0,0,0,3,"[0, 7, 16, 11, 3]",5,8,"[4, 12, 13, 14, 15, 18, 21, 22]",134.1097064,7925,1020,6,4,8,1.253153736954923
undo,17,15,0,0,0,22,"[0, 7, 16, 11, 3, 22]",6,5,"[4, 13, 14, 15, 18]",84.38043933,16457,8532,2,3,8,1.249784727890499
undo,17,15,0,0,0,15,"[0, 7, 16, 11, 3, 22, 15]",7,1,[13],58.76794238,17937,1480,1,0,8,1.2283958862490272
undo,17,15,0,0,1,13,"[0, 7, 16, 11, 3, 22, 15, 13]",8,0,[],43.50360486,20270,2333,1,0,8,1.2803073001953094
undo,17,15,0,1,1,13,"[0, 7, 16, 11, 3, 22, 15, 13]",8,0,[],43.50360486,21530,1260,1,0,8,1.2803073001953094
undo,18,18,0,0,0,0,[0],1,28,"[1, 2, 3, 4, 5, 6, 7, 8, 9, 10, 11, 12, 13, 14, 16, 17, 18, 19, 20, 21, 22, 23, 24, 25, 26, 27, 28, 29]",300,124,-1,3,136,10,0.0
undo,18,18,0,0,0,13,"[0, 13]",2,20,"[1, 2, 3, 5, 7, 8, 9, 10, 12, 14, 16, 18, 19, 20, 21, 23, 25, 26, 27, 28]",205.994681,7703,7579,9,127,8,1.0
undo,18,18,0,0,0,14,"[0, 13, 14]",3,19,"[1, 2, 3, 5, 7, 8, 9, 10, 12, 16, 18, 19, 20, 21, 23, 25, 26, 27, 28]",187.021015,8876,1173,5,45,8,1.0077372348997566
undo,18,18,0,0,0,3,"[0, 13, 14, 3]",4,11,"[5, 7, 8, 9, 12, 16, 23, 25, 26, 27, 28]",156.9377971,10529,1653,3,21,8,1.1690335965459457
undo,18,18,0,0,0,8,"[0, 13, 14, 3, 8]",5,9,"[5, 7, 9, 12, 23, 25, 26, 27, 28]",128.8664594,13090,2561,3,8,8,1.8091398830613457
undo,18,18,0,0,0,25,"[0, 13, 14, 3, 8, 25]",6,4,"[7, 23, 26, 28]",91.81244481,15656,2566,3,1,8,3.4693107712388427
undo,18,18,0,0,0,7,"[0, 13, 14, 3, 8, 25, 7]",7,1,[28],64.00956726,17315,1659,1,0,8,3.9552086389666363
undo,18,18,0,0,1,28,"[0, 13, 14, 3, 8, 25, 7, 28]",8,0,[],41.98685171,18925,1610,1,0,8,4.058797767763682
undo,18,18,0,1,1,28,"[0, 13, 14, 3, 8, 25, 7, 28]",8,0,[],41.98685171,20746,1821,1,0,8,4.058797767763682
undo,19,4,0,0,0,0,[0],1,26,"[3, 4, 5, 6, 7, 8, 10, 11, 12, 13, 14, 15, 16, 17, 18, 19, 20, 21, 22, 23, 24, 25, 26, 27, 28, 29]",300,158,-1,4,489,10,0.0
undo,19,4,0,0,0,6,"[0, 6]",2,17,"[3, 4, 5, 10, 11, 13, 14, 15, 16, 17, 19, 20, 21, 22, 23, 25, 28]",207.2368608,5204,5046,37,365,8,1.0
undo,19,4,0,0,0,14,"[0, 6, 14]",3,12,"[3, 4, 5, 11, 13, 16, 17, 20, 21, 22, 25, 28]",131.6987909,7425,2221,20,118,8,1.2324220545619278
undo,19,4,0,0,0,3,"[0, 6, 14, 3]",4,7,"[11, 16, 17, 20, 21, 22, 25]",90.26209219,12179,4754,1,11,8,1.2025338956967797
undo,19,4,0,0,0,17,"[0, 6, 14, 3, 17]",5,6,"[11, 16, 20, 21, 22, 25]",65.74679084,13192,1013,1,7,8,1.4290907150191754
undo,19,4,0,0,0,16,"[0, 6, 14, 3, 17, 16]",6,2,"[11, 25]",39.66998122,14680,1488,1,1,8,1.8885827592634608
undo,19,4,0,0,0,11,"[0, 6, 14, 3, 17, 16, 11]",7,1,[25],24.66998122,15868,1188,1,0,8,2.240752315471224
undo,19,4,0,0,1,25,"[0, 6, 14, 3, 17, 16, 11, 25]",8,0,[],5.881686994,17774,1906,1,0,8,2.319345993655783
undo,19,4,0,1,1,25,"[0, 6, 14, 3, 17, 16, 11, 25]",8,0,[],5.881686994,18946,1172,1,0,8,2.319345993655783
undo,20,27,0,0,0,0,[0],1,26,"[1, 3, 5, 6, 7, 8, 9, 10, 11, 12, 13, 14, 15, 16, 17, 18, 19, 21, 22, 23, 24, 25, 26, 27, 28, 29]",300,162,-1,13,578,11,0.0
undo,20,27,0,0,0,15,"[0, 15]",2,24,"[1, 3, 5, 6, 7, 8, 9, 10, 11, 12, 13, 14, 16, 17, 18, 19, 21, 22, 23, 24, 25, 26, 27, 29]",263.7508621,4250,4088,6,219,11,1.0
undo,20,27,0,0,0,24,"[0, 15, 24]",3,20,"[1, 5, 6, 7, 8, 9, 10, 12, 13, 14, 16, 17, 18, 19, 21, 23, 25, 26, 27, 29]",246.5462115,5869,1619,6,130,11,1.130933077698322
undo,20,27,0,0,0,12,"[0, 15, 24, 12]",4,18,"[1, 5, 6, 7, 8, 9, 10, 13, 14, 16, 17, 18, 19, 23, 25, 26, 27, 29]",229.0819623,8027,2158,2,45,11,1.0972977092298246
undo,20,27,0,0,0,17,"[0, 15, 24, 12, 17]",5,13,"[1, 8, 10, 13, 14, 16, 18, 19, 23, 25, 26, 27, 29]",217.9016225,8952,925,2,25,11,1.3234789634000614
undo,20,27,0,0,0,10,"[0, 15, 24, 12, 17, 10]",6,11,"[1, 8, 13, 14, 18, 19, 23, 25, 26, 27, 29]",201.500403,10468,1516,2,23,11,1.3059197403680955
undo,20,27,0,0,0,23,"[0, 15, 24, 12, 17, 10, 23]",7,9,"[1, 8, 13, 14, 18, 19, 25, 26, 27]",126.8679704,20760,10292,4,8,10,2.276280293518626
undo,20,27,0,0,0,1,"[0, 15, 24, 12, 17, 10, 23, 1]",8,3,"[18, 26, 27]",78.82632177,22400,1640,1,2,10,3.038914309057827
undo,20,27,0,0,0,27,"[0, 15, 24, 12, 17, 10, 23, 1, 27]",9,1,[18],48.59388885,24398,1998,1,0,10,4.440806125031158
undo,20,27,0,0,1,18,"[0, 15, 24, 12, 17, 10, 23, 1, 27, 18]",10,0,[],11.11055922,26533,2135,1,0,10,3.0823752202525267
undo,20,27,0,1,1,18,"[0, 15, 24, 12, 17, 10, 23, 1, 27, 18]",10,0,[],11.11055922,27976,1443,1,0,10,3.0823752202525267
undo,21,42,0,0,0,0,[0],1,29,"[1, 2, 3, 4, 5, 6, 7, 8, 9, 10, 11, 12, 13, 14, 15, 16, 17, 18, 19, 20, 21, 22, 23, 24, 25, 26, 27, 28, 29]",300,114,-1,16,302,9,0.0
undo,21,42,0,0,0,22,"[0, 22]",2,27,"[1, 2, 3, 4, 5, 6, 7, 8, 9, 10, 11, 12, 13, 15, 16, 17, 18, 19, 20, 21, 23, 24, 25, 26, 27, 28, 29]",211.3997743,3100,2986,5,83,9,1.0
undo,21,42,0,0,0,4,"[0, 22, 4]",3,26,"[1, 2, 3, 5, 6, 7, 8, 9, 10, 11, 12, 13, 15, 16, 17, 18, 19, 20, 21, 23, 24, 25, 26, 27, 28, 29]",200.2194344,4263,1163,4,51,9,1.1029012260448476
undo,21,42,0,0,0,5,"[0, 22, 4, 5]",4,24,"[1, 2, 3, 6, 7, 8, 9, 10, 11, 12, 13, 15, 17, 18, 19, 20, 21, 23, 24, 25, 26, 27, 28, 29]",180.3700011,5478,1215,3,22,9,1.1004909640339868
undo,21,42,0,0,0,8,"[0, 22, 4, 5, 8]",5,16,"[1, 2, 3, 6, 7, 11, 15, 18, 19, 23, 24, 25, 26, 27, 28, 29]",145.8881218,7527,2049,3,12,9,1.4333663223483832
undo,21,42,0,0,0,1,"[0, 22, 4, 5, 8, 1]",6,6,"[2, 7, 18, 19, 26, 27]",96.796371,9054,1527,3,7,9,1.3048950637395882
undo,21,42,0,0,0,7,"[0, 22, 4, 5, 8, 1, 7]",7,4,"[2, 19, 26, 27]",66.796371,12212,3158,3,2,9,1.3461774355793397
undo,21,42,0,0,0,26,"[0, 22, 4, 5, 8, 1, 7, 26]",8,2,"[19, 27]",40.22571049,13958,1746,2,0,9,1.3119913611616163
undo,21,42,0,0,1,27,"[0, 22, 4, 5, 8, 1, 7, 26, 27]",9,0,[],22.19795412,15317,1359,1,0,9,1.3027999653776734
undo,21,42,0,1,1,27,"[0, 22, 4, 5, 8, 1, 7, 26, 27]",9,0,[],22.19795412,17662,2345,1,0,9,1.3027999653776734
undo,22,26,0,0,0,0,[0],1,29,"[1, 2, 3, 4, 5, 6, 7, 8, 9, 10, 11, 12, 13, 14, 15, 16, 17, 18, 19, 20, 21, 22, 23, 24, 25, 26, 27, 28, 29]",300,129,-1,9,226,9,0.0
undo,22,26,0,0,0,21,"[0, 21]",2,25,"[2, 3, 4, 5, 6, 7, 8, 10, 11, 12, 13, 14, 15, 16, 17, 18, 19, 22, 23, 24, 25, 26, 27, 28, 29]",211.1349337,7824,7695,7,90,9,1.0
undo,22,26,0,0,0,13,"[0, 21, 13]",3,21,"[3, 4, 5, 6, 7, 8, 10, 11, 12, 14, 15, 16, 17, 18, 19, 22, 23, 24, 25, 26, 29]",188.9989901,8986,1162,6,45,9,1.0103952279992225
undo,22,26,0,0,0,5,"[0, 21, 13, 5]",4,12,"[3, 4, 11, 14, 16, 17, 18, 22, 23, 25, 26, 29]",150.7106107,10399,1413,2,10,8,1.0086890649024711
undo,22,26,0,0,0,23,"[0, 21, 13, 5, 23]",5,8,"[3, 4, 11, 14, 16, 17, 22, 29]",118.0150452,11603,1204,2,7,8,1.3518621918690494
undo,22,26,0,0,0,16,"[0, 21, 13, 5, 23, 16]",6,4,"[4, 14, 17, 29]",64.77971862,13571,1968,2,3,8,2.1011863559657242
undo,22,26,0,0,0,29,"[0, 21, 13, 5, 23, 16, 29]",7,2,"[4, 17]",40.57228175,15623,2052,2,0,8,2.123178325538451
undo,22,26,0,0,1,4,"[0, 21, 13, 5, 23, 16, 29, 4]",8,0,[],16.57228175,17584,1961,1,0,8,2.338467952972574
undo,22,26,0,1,1,4,"[0, 21, 13, 5, 23, 16, 29, 4]",8,0,[],16.57228175,20179,2595,1,0,8,2.338467952972574
basic,23,27,0,0,0,0,[0],1,26,"[1, 3, 5, 6, 7, 8, 9, 10, 11, 12, 13, 14, 15, 16, 17, 18, 19, 21, 22, 23, 24, 25, 26, 27, 28, 29]",300,166,-1,13,578,11,0.0
basic,23,27,0,0,0,15,"[0, 15]",2,24,"[1, 3, 5, 6, 7, 8, 9, 10, 11, 12, 13, 14, 16, 17, 18, 19, 21, 22, 23, 24, 25, 26, 27, 29]",263.7508621,5139,4973,6,219,11,1.0
basic,23,27,0,0,0,24,"[0, 15, 24]",3,20,"[1, 5, 6, 7, 8, 9, 10, 12, 13, 14, 16, 17, 18, 19, 21, 23, 25, 26, 27, 29]",246.5462115,6470,1331,6,130,11,1.130933077698322
basic,23,27,0,0,0,17,"[0, 15, 24, 17]",4,15,"[1, 6, 8, 10, 12, 13, 14, 16, 18, 19, 23, 25, 26, 27, 29]",229.9932662,7593,1123,4,60,11,1.1285538435963374
basic,23,27,0,0,0,12,"[0, 15, 24, 17, 12]",5,14,"[1, 6, 8, 10, 13, 14, 16, 18, 19, 23, 25, 26, 27, 29]",218.8129263,8570,977,2,32,11,1.2561880288755216
basic,23,27,0,0,0,10,"[0, 15, 24, 17, 12, 10]",6,11,"[1, 8, 13, 14, 18, 19, 23, 25, 26, 27, 29]",207.7675653,9787,1217,2,28,11,1.2228289337766665
basic,23,27,0,0,0,13,"[0, 15, 24, 17, 12, 10, 13]",7,9,"[1, 8, 14, 18, 19, 23, 26, 27, 29]",167.9178476,11486,1699,2,18,11,1.3421291994761178
basic,23,27,0,0,0,19,"[0, 15, 24, 17, 12, 10, 13, 19]",8,5,"[1, 8, 14, 23, 29]",131.6825057,12805,1319,2,6,11,1.294749956153846
basic,23,27,0,0,0,8,"[0, 15, 24, 17, 12, 10, 13, 19, 8]",9,3,"[14, 23, 29]",116.816437,14440,1635,2,1,11,1.3554286578836865
basic,23,27,0,0,0,29,"[0, 15, 24, 17, 12, 10, 13, 19, 8, 29]",10,1,[14],57.61339652,16104,1664,1,0,11,1.248354519573802
basic,23,27,0,0,1,14,"[0, 15, 24, 17, 12, 10, 13, 19, 8, 29, 14]",11,0,[],13.31892734,17778,1674,1,0,11,1.562811097555156
basic,23,27,0,1,1,14,"[0, 15, 24, 17, 12, 10, 13, 19, 8, 29, 14]",11,0,[],13.31892734,19147,1369,1,0,11,1.562811097555156
basic,24,13,0,0,0,0,[0],1,29,"[1, 2, 3, 4, 5, 6, 7, 8, 9, 10, 11, 12, 13, 14, 15, 16, 17, 18, 19, 20, 21, 22, 23, 24, 25, 26, 27, 28, 29]",300,113,-1,60,2676,11,0.0
basic,24,13,0,0,0,28,"[0, 28]",2,24,"[1, 2, 3, 4, 6, 7, 8, 9, 10, 11, 12, 13, 15, 16, 17, 19, 20, 21, 22, 23, 24, 26, 27, 29]",226.3182519,7531,7418,12,378,10,1.0
basic,24,13,0,0,0,2,"[0, 28, 2]",3,20,"[1, 3, 4, 6, 7, 9, 11, 12, 13, 15, 16, 17, 19, 20, 21, 23, 24, 26, 27, 29]",188.6751915,9325,1794,9,174,10,1.0158286399660754
basic,24,13,0,0,0,29,"[0, 28, 2, 29]",4,19,"[1, 3, 4, 6, 7, 9, 11, 12, 13, 15, 16, 17, 19, 20, 21, 23, 24, 26, 27]",176.9704916,11115,1790,9,132,10,1.1053279759370194
basic,24,13,0,0,0,7,"[0, 28, 2, 29, 7]",5,18,"[1, 3, 4, 6, 9, 11, 12, 13, 15, 16, 17, 19, 20, 21, 23, 24, 26, 27]",161.706154,12249,1134,6,72,10,1.313811244316471
basic,24,13,0,0,0,26,"[0, 28, 2, 29, 7, 26]",6,17,"[1, 3, 4, 6, 9, 11, 12, 13, 15, 16, 17, 19, 20, 21, 23, 24, 27]",151.2658475,14554,2305,6,39,10,1.554636901089982
basic,24,13,0,0,0,6,"[0, 28, 2, 29, 7, 26, 6]",7,13,"[1, 3, 4, 11, 13, 15, 16, 17, 19, 20, 23, 24, 27]",131.1660963,16588,2034,4,17,10,1.554967005613632
basic,24,13,0,0,0,11,"[0, 28, 2, 29, 7, 26, 6, 11]",8,6,"[1, 13, 15, 16, 17, 23]",112.0611231,18272,1684,3,4,10,1.4733168623367165
basic,24,13,0,0,0,13,"[0, 28, 2, 29, 7, 26, 6, 11, 13]",9,2,"[15, 17]",55.98082354,29985,11713,2,0,10,1.3447287374536006
basic,24,13,0,0,1,15,"[0, 28, 2, 29, 7, 26, 6, 11, 13, 15]",10,0,[],16.16876507,32253,2268,1,0,10,1.3473372715243728
basic,24,13,0,1,1,15,"[0, 28, 2, 29, 7, 26, 6, 11, 13, 15]",10,0,[],16.16876507,34610,2357,1,0,10,1.3473372715243728
basic,25,36,0,0,0,0,[0],1,24,"[2, 4, 5, 6, 7, 8, 9, 10, 12, 13, 14, 15, 16, 17, 18, 19, 20, 22, 23, 25, 26, 27, 28, 29]",300,149,-1,2,200,10,0.0
basic,25,36,0,0,0,9,"[0, 9]",2,16,"[2, 4, 8, 10, 12, 13, 16, 17, 18, 19, 23, 25, 26, 27, 28, 29]",230.9348134,11221,11072,81,367,8,1.0
basic,25,36,0,0,0,16,"[0, 9, 16]",3,10,"[2, 10, 12, 13, 17, 18, 19, 23, 25, 27]",183.637879,12658,1437,16,49,8,1.090165866783516
basic,25,36,0,0,0,17,"[0, 9, 16, 17]",4,8,"[2, 10, 12, 13, 18, 19, 23, 25]",155.3182745,14021,1363,13,21,8,1.530787871385863
basic,25,36,0,0,0,19,"[0, 9, 16, 17, 19]",5,7,"[2, 10, 12, 13, 18, 23, 25]",127.4256232,17605,3584,8,6,8,2.238961045332441
basic,25,36,0,0,0,13,"[0, 9, 16, 17, 19, 13]",6,4,"[2, 10, 12, 25]",84.00903647,21129,3524,3,2,8,2.2021558216080397
basic,25,36,0,0,0,25,"[0, 9, 16, 17, 19, 13, 25]",7,2,"[2, 10]",63.41777619,23310,2181,2,0,8,2.0663976219614613
basic,25,36,0,0,1,2,"[0, 9, 16, 17, 19, 13, 25, 2]",8,0,[],38.41777619,29066,5756,1,0,8,2.316338617590708
basic,25,36,0,1,1,2,"[0, 9, 16, 17, 19, 13, 25, 2]",8,0,[],38.41777619,30561,1495,1,0,8,2.316338617590708
basic,26,16,0,0,0,0,[0],1,29,"[1, 2, 3, 4, 5, 6, 7, 8, 9, 10, 11, 12, 13, 14, 15, 16, 17, 18, 19, 20, 21, 22, 23, 24, 25, 26, 27, 28, 29]",300,114,-1,13,161,9,0.0
basic,26,16,0,0,0,11,"[0, 11]",2,8,"[1, 14, 16, 17, 18, 23, 27, 28]",164.8519331,9857,9743,6,20,6,1.0
basic,26,16,0,0,0,23,"[0, 11, 23]",3,7,"[1, 14, 16, 17, 18, 27, 28]",127.9737552,11483,1626,4,7,6,1.592767324400406
basic,26,16,0,0,0,14,"[0, 11, 23, 14]",4,4,"[1, 17, 18, 27]",103.8076633,16685,5202,3,2,6,1.6996066862042911
basic,26,16,0,0,0,1,"[0, 11, 23, 14, 1]",5,1,[27],64.85897909,18143,1458,1,0,6,1.524833674209499
basic,26,16,0,0,1,27,"[0, 11, 23, 14, 1, 27]",6,0,[],32.60994809,19979,1836,1,0,6,1.7838693267193266
basic,26,16,0,1,1,27,"[0, 11, 23, 14, 1, 27]",6,0,[],32.60994809,21362,1383,1,0,6,1.7838693267193266
basic,27,21,0,0,0,0,[0],1,29,"[1, 2, 3, 4, 5, 6, 7, 8, 9, 10, 11, 12, 13, 14, 15, 16, 17, 18, 19, 20, 21, 22, 23, 24, 25, 26, 27, 28, 29]",300,120,-1,84,830,9,0.0
basic,27,21,0,0,0,18,"[0, 18]",2,28,"[1, 2, 3, 4, 5, 6, 7, 8, 9, 10, 11, 12, 13, 14, 15, 16, 17, 19, 20, 21, 22, 23, 24, 25, 26, 27, 28, 29]",240.923778,3472,3352,44,305,9,1.0
basic,27,21,0,0,0,29,"[0, 18, 29]",3,24,"[1, 2, 3, 4, 6, 7, 8, 9, 10, 11, 12, 13, 14, 15, 16, 17, 20, 21, 22, 23, 24, 25, 26, 27]",212.2706805,7057,3585,11,87,9,1.035555280387994
basic,27,21,0,0,0,25,"[0, 18, 29, 25]",4,18,"[1, 4, 6, 8, 9, 10, 11, 12, 14, 15, 16, 17, 20, 21, 22, 23, 24, 26]",167.0490043,8366,1309,6,45,9,2.2226517719335437
basic,27,21,0,0,0,23,"[0, 18, 29, 25, 23]",5,10,"[4, 8, 14, 15, 16, 17, 20, 21, 22, 24]",123.7246462,9753,1387,3,20,9,1.7801958981326236
basic,27,21,0,0,0,21,"[0, 18, 29, 25, 23, 21]",6,3,"[4, 14, 16]",94.11046043,11952,2199,1,3,9,2.290491065218303
basic,27,21,0,0,0,14,"[0, 18, 29, 25, 23, 21, 14]",7,2,"[4, 16]",68.49796348,16802,4850,1,1,9,2.021100447974041
basic,27,21,0,0,0,4,"[0, 18, 29, 25, 23, 21, 14, 4]",8,1,[16],54.35582786,22604,5802,1,0,9,1.9205022281831265
basic,27,21,0,0,1,16,"[0, 18, 29, 25, 23, 21, 14, 4, 16]",9,0,[],9.757621617,24583,1979,1,0,9,1.7782202964615115
basic,27,21,0,1,1,16,"[0, 18, 29, 25, 23, 21, 14, 4, 16]",9,0,[],9.757621617,26026,1443,1,0,9,1.7782202964615115
basic,28,12,0,0,0,0,[0],1,29,"[1, 2, 3, 4, 5, 6, 7, 8, 9, 10, 11, 12, 13, 14, 15, 16, 17, 18, 19, 20, 21, 22, 23, 24, 25, 26, 27, 28, 29]",300,112,-1,2,32,9,0.0
basic,28,12,0,0,0,25,"[0, 25]",2,16,"[2, 4, 5, 6, 7, 9, 12, 14, 16, 18, 19, 22, 23, 24, 27, 28]",225.7975742,7678,7566,5,34,8,1.0
basic,28,12,0,0,0,22,"[0, 25, 22]",3,11,"[2, 4, 5, 6, 7, 12, 14, 16, 19, 24, 27]",153.5964661,11948,4270,1,10,8,1.6635691148622656
basic,28,12,0,0,0,16,"[0, 25, 22, 16]",4,7,"[4, 6, 12, 14, 19, 24, 27]",132.5964661,13266,1318,1,6,8,1.8455145785330662
basic,28,12,0,0,0,4,"[0, 25, 22, 16, 4]",5,5,"[12, 14, 19, 24, 27]",98.39120339,14823,1557,1,4,8,1.6140587576122385
basic,28,12,0,0,0,12,"[0, 25, 22, 16, 4, 12]",6,2,"[14, 27]",56.20115717,16699,1876,1,1,8,1.4755917731057815
basic,28,12,0,0,0,27,"[0, 25, 22, 16, 4, 12, 27]",7,1,[14],31.84956584,18899,2200,1,0,8,1.5677023473114235
basic,28,12,0,0,1,14,"[0, 25, 22, 16, 4, 12, 27, 14]",8,0,[],3.196468279,20740,1841,1,0,8,1.5941060060123788
basic,28,12,0,1,1,14,"[0, 25, 22, 16, 4, 12, 27, 14]",8,0,[],3.196468279,22261,1521,1,0,8,1.5941060060123788
basic,29,28,0,0,0,0,[0],1,27,"[1, 2, 3, 4, 5, 6, 7, 8, 9, 10, 11, 12, 13, 14, 15, 16, 17, 18, 19, 20, 22, 23, 25, 26, 27, 28, 29]",300,113,-1,2,96,9,0.0
basic,29,28,0,0,0,5,"[0, 5]",2,21,"[2, 3, 4, 6, 7, 8, 9, 10, 11, 12, 13, 14, 15, 18, 19, 20, 23, 25, 26, 28, 29]",169.6427984,13018,12905,4,42,8,1.0
basic,29,28,0,0,0,26,"[0, 5, 26]",3,15,"[2, 3, 4, 7, 8, 9, 12, 13, 14, 15, 18, 19, 20, 25, 28]",136.8861197,15405,2387,4,35,8,1.0149913611821164
basic,29,28,0,0,0,19,"[0, 5, 26, 19]",4,7,"[2, 7, 9, 12, 13, 14, 18]",95.88611973,21522,6117,3,16,8,1.1179162815331476
basic,29,28,0,0,0,7,"[0, 5, 26, 19, 7]",5,5,"[2, 12, 13, 14, 18]",68.15527048,23665,2143,2,5,8,1.1835592656658687
basic,29,28,0,0,0,12,"[0, 5, 26, 19, 7, 12]",6,2,"[13, 18]",55.00232404,24623,958,1,1,8,1.1891830098953253
basic,29,28,0,0,0,13,"[0, 5, 26, 19, 7, 12, 13]",7,1,[18],37.79767351,26083,1460,1,0,8,1.3761105369117108
basic,29,28,0,0,1,18,"[0, 5, 26, 19, 7, 12, 13, 18]",8,0,[],13.38456227,28292,2209,1,0,8,1.7228206627692229
basic,29,28,0,1,1,18,"[0, 5, 26, 19, 7, 12, 13, 18]",8,0,[],13.38456227,29560,1268,1,0,8,1.7228206627692229
basic,30,24,0,0,0,0,[0],1,29,"[1, 2, 3, 4, 5, 6, 7, 8, 9, 10, 11, 12, 13, 14, 15, 16, 17, 18, 19, 20, 21, 22, 23, 24, 25, 26, 27, 28, 29]",300,115,-1,4,76,10,0.0
basic,30,24,0,0,0,16,"[0, 16]",2,28,"[1, 2, 3, 4, 5, 6, 7, 8, 9, 10, 11, 12, 13, 14, 15, 17, 18, 19, 20, 21, 22, 23, 24, 25, 26, 27, 28, 29]",210.3562607,3270,3155,13,110,9,1.0
basic,30,24,0,0,0,22,"[0, 16, 22]",3,27,"[1, 2, 3, 4, 5, 6, 7, 8, 9, 10, 11, 12, 13, 14, 15, 17, 18, 19, 20, 21, 23, 24, 25, 26, 27, 28, 29]",192.3285043,4388,1118,7,54,9,1.0217425143037777
basic,30,24,0,0,0,8,"[0, 16, 22, 8]",4,21,"[1, 2, 3, 4, 6, 9, 10, 11, 13, 14, 15, 17, 20, 21, 23, 24, 25, 26, 27, 28, 29]",178.9120964,6188,1800,4,28,9,1.0996636936037951
basic,30,24,0,0,0,15,"[0, 16, 22, 8, 15]",5,16,"[3, 4, 6, 9, 10, 11, 13, 14, 17, 23, 24, 25, 26, 27, 28, 29]",148.025206,7702,1514,3,17,9,1.2704773343758617
basic,30,24,0,0,0,28,"[0, 16, 22, 8, 15, 28]",6,8,"[3, 4, 9, 11, 13, 23, 26, 27]",102.7482803,9003,1301,3,5,9,1.1981967578189556
basic,30,24,0,0,0,23,"[0, 16, 22, 8, 15, 28, 23]",7,3,"[9, 11, 27]",83.72198273,10897,1894,3,1,9,1.2275650852813986
basic,30,24,0,0,0,11,"[0, 16, 22, 8, 15, 28, 23, 11]",8,2,"[9, 27]",56.79615869,13027,2130,2,0,9,1.2107937989822568
basic,30,24,0,0,1,27,"[0, 16, 22, 8, 15, 28, 23, 11, 27]",9,0,[],28.99328114,14621,1594,1,0,9,1.1865620449755248
basic,30,24,0,1,1,27,"[0, 16, 22, 8, 15, 28, 23, 11, 27]",9,0,[],28.99328114,16497,1876,1,0,9,1.1865620449755248
basic,31,44,0,0,0,0,[0],1,29,"[1, 2, 3, 4, 5, 6, 7, 8, 9, 10, 11, 12, 13, 14, 15, 16, 17, 18, 19, 20, 21, 22, 23, 24, 25, 26, 27, 28, 29]",300,133,-1,13,126,7,0.0
basic,31,44,0,0,0,9,"[0, 9]",2,17,"[2, 4, 5, 7, 8, 10, 11, 12, 13, 14, 20, 22, 23, 24, 25, 26, 28]",141.32423,18251,18118,3,26,7,1.0
basic,31,44,0,0,0,4,"[0, 9, 4]",3,15,"[2, 5, 7, 8, 10, 11, 12, 14, 20, 22, 23, 24, 25, 26, 28]",121.6265143,19729,1478,3,21,7,1.0155532843148096
basic,31,44,0,0,0,7,"[0, 9, 4, 7]",4,10,"[2, 5, 11, 12, 14, 23, 24, 25, 26, 28]",90.61038951,23154,3425,3,9,7,1.0134022837125412
basic,31,44,0,0,0,23,"[0, 9, 4, 7, 23]",5,7,"[5, 12, 14, 24, 25, 26, 28]",71.50541634,25801,2647,3,4,7,1.043310757564056
basic,31,44,0,0,0,5,"[0, 9, 4, 7, 23, 5]",6,1,[25],24.08179353,30124,4323,1,0,7,1.0875233835918032
basic,31,44,0,0,1,25,"[0, 9, 4, 7, 23, 5, 25]",7,0,[],13.64148702,31808,1684,1,0,7,1.1344779809947538
basic,31,44,0,1,1,25,"[0, 9, 4, 7, 23, 5, 25]",7,0,[],13.64148702,33277,1469,1,0,7,1.1344779809947538
basic,32,29,0,0,0,0,[0],1,29,"[1, 2, 3, 4, 5, 6, 7, 8, 9, 10, 11, 12, 13, 14, 15, 16, 17, 18, 19, 20, 21, 22, 23, 24, 25, 26, 27, 28, 29]",300,111,-1,1,78,9,0.0
basic,32,29,0,0,0,7,"[0, 7]",2,13,"[4, 5, 9, 12, 13, 14, 21, 22, 23, 26, 27, 28, 29]",135.5493995,21329,21218,5,34,6,1.0
basic,32,29,0,0,0,12,"[0, 7, 12]",3,12,"[4, 5, 9, 13, 14, 21, 22, 23, 26, 27, 28, 29]",121.947929,22679,1350,5,20,6,1.1533408460185324
basic,32,29,0,0,0,22,"[0, 7, 12, 22]",4,8,"[4, 5, 9, 13, 14, 26, 27, 28]",84.00059708,24030,1351,3,5,6,1.8466884341381227
basic,32,29,0,0,0,27,"[0, 7, 12, 22, 27]",5,1,[28],50.75905681,25344,1314,1,0,6,2.3005005078595815
basic,32,29,0,0,1,28,"[0, 7, 12, 22, 27, 28]",6,0,[],30.24077228,26543,1199,1,0,6,2.778661413511552
basic,32,29,0,1,1,28,"[0, 7, 12, 22, 27, 28]",6,0,[],30.24077228,27622,1079,1,0,6,2.778661413511552
basic,33,42,0,0,0,0,[0],1,29,"[1, 2, 3, 4, 5, 6, 7, 8, 9, 10, 11, 12, 13, 14, 15, 16, 17, 18, 19, 20, 21, 22, 23, 24, 25, 26, 27, 28, 29]",300,114,-1,16,302,9,0.0
basic,33,42,0,0,0,4,"[0, 4]",2,28,"[1, 2, 3, 5, 6, 7, 8, 9, 10, 11, 12, 13, 14, 15, 16, 17, 18, 19, 20, 21, 22, 23, 24, 25, 26, 27, 28, 29]",209.5290102,4609,4495,4,80,9,1.0
basic,33,42,0,0,0,22,"[0, 4, 22]",3,24,"[1, 2, 3, 5, 6, 7, 8, 9, 10, 11, 13, 15, 17, 18, 19, 20, 21, 23, 24, 25, 26, 27, 28, 29]",198.3486703,5702,1093,3,53,9,1.1473032812120834
basic,33,42,0,0,0,8,"[0, 4, 22, 8]",4,21,"[1, 2, 3, 5, 6, 7, 10, 11, 15, 17, 18, 19, 20, 21, 23, 24, 25, 26, 27, 28, 29]",176.2127267,7254,1552,2,36,9,1.1513227322639639
basic,33,42,0,0,0,1,"[0, 4, 22, 8, 1]",5,12,"[2, 5, 6, 7, 10, 15, 18, 19, 24, 26, 27, 28]",127.1209758,8641,1387,2,24,9,1.1101621876186907
basic,33,42,0,0,0,7,"[0, 4, 22, 8, 1, 7]",6,5,"[2, 19, 26, 27, 28]",97.12097583,10386,1745,2,10,9,1.1711274205343067
basic,33,42,0,0,0,26,"[0, 4, 22, 8, 1, 7, 26]",7,3,"[2, 19, 27]",70.55031532,12140,1754,2,1,9,1.1588367913131314
basic,33,42,0,0,0,27,"[0, 4, 22, 8, 1, 7, 26, 27]",8,1,[19],52.52255894,14068,1928,1,0,9,1.160587570992885
basic,33,42,0,0,1,19,"[0, 4, 22, 8, 1, 7, 26, 27, 19]",9,0,[],11.51036563,16101,2033,1,0,9,1.3341568614108437
basic,33,42,0,1,1,19,"[0, 4, 22, 8, 1, 7, 26, 27, 19]",9,0,[],11.51036563,17379,1278,1,0,9,1.3341568614108437
basic,34,31,0,0,0,0,[0],1,27,"[1, 3, 4, 5, 6, 7, 8, 10, 11, 12, 13, 14, 15, 16, 17, 18, 19, 20, 21, 22, 23, 24, 25, 26, 27, 28, 29]",300,111,-1,2,87,10,0.0
basic,34,31,0,0,0,27,"[0, 27]",2,26,"[1, 3, 4, 5, 6, 7, 8, 10, 11, 12, 13, 14, 15, 16, 17, 18, 19, 20, 21, 22, 23, 24, 25, 26, 28, 29]",259.5030865,3115,3004,14,191,9,1.0
basic,34,31,0,0,0,8,"[0, 27, 8]",3,23,"[1, 3, 5, 6, 7, 10, 11, 12, 13, 14, 15, 16, 17, 18, 19, 20, 21, 22, 24, 25, 26, 28, 29]",248.4577255,5054,1939,9,131,9,1.481736210960148
basic,34,31,0,0,0,18,"[0, 27, 8, 18]",4,19,"[1, 3, 5, 6, 7, 10, 11, 12, 13, 14, 16, 17, 19, 20, 21, 22, 25, 28, 29]",212.6108289,6739,1685,5,65,9,1.3573609555685873
basic,34,31,0,0,0,17,"[0, 27, 8, 18, 17]",5,14,"[1, 5, 6, 7, 11, 12, 13, 14, 16, 19, 20, 22, 25, 28]",183.4046651,8219,1480,4,35,9,1.288051401172667
basic,34,31,0,0,0,11,"[0, 27, 8, 18, 17, 11]",6,11,"[1, 5, 7, 12, 14, 16, 19, 20, 22, 25, 28]",142.2950555,10048,1829,3,7,9,2.5759979840041423
basic,34,31,0,0,0,5,"[0, 27, 8, 18, 17, 11, 5]",7,3,"[16, 25, 28]",98.61439621,12972,2924,2,1,9,2.29559828660968
basic,34,31,0,0,0,28,"[0, 27, 8, 18, 17, 11, 5, 28]",8,1,[16],78.3906478,14637,1665,1,0,9,2.0646336243139256
basic,34,31,0,0,1,16,"[0, 27, 8, 18, 17, 11, 5, 28, 16]",9,0,[],44.77517517,16043,1406,1,0,9,1.911005813618587
basic,34,31,0,1,1,16,"[0, 27, 8, 18, 17, 11, 5, 28, 16]",9,0,[],44.77517517,17610,1567,1,0,9,1.911005813618587
basic,35,14,0,0,0,0,[0],1,29,"[1, 2, 3, 4, 5, 6, 7, 8, 9, 10, 11, 12, 13, 14, 15, 16, 17, 18, 19, 20, 21, 22, 23, 24, 25, 26, 27, 28, 29]",300,112,-1,8,157,10,0.0
basic,35,14,0,0,0,22,"[0, 22]",2,24,"[1, 2, 3, 4, 6, 7, 8, 9, 10, 11, 13, 15, 17, 18, 19, 20, 21, 23, 24, 25, 26, 27, 28, 29]",254.745166,2425,2313,1,39,8,1.0
basic,35,14,0,0,0,3,"[0, 22, 3]",3,20,"[1, 2, 6, 7, 8, 9, 10, 11, 13, 15, 17, 18, 19, 20, 21, 24, 25, 27, 28, 29]",212.0251473,5820,3395,3,37,7,1.8452653659638358
basic,35,14,0,0,0,9,"[0, 22, 3, 9]",4,8,"[2, 6, 10, 11, 21, 24, 27, 29]",149.0569013,7435,1615,8,4,6,1.5694316080828459
basic,35,14,0,0,0,27,"[0, 22, 3, 9, 27]",5,2,"[10, 29]",60.76194109,9728,2293,2,0,6,2.6288309364836406
basic,35,14,0,0,1,29,"[0, 22, 3, 9, 27, 29]",6,0,[],13.751304,11517,1789,1,0,6,2.1229832980270693
basic,35,14,0,1,1,29,"[0, 22, 3, 9, 27, 29]",6,0,[],13.751304,13861,2344,1,0,6,2.1229832980270693
basic,36,34,0,0,0,0,[0],1,25,"[1, 3, 4, 5, 6, 7, 8, 9, 10, 11, 12, 13, 15, 18, 19, 20, 21, 22, 23, 24, 25, 26, 27, 28, 29]",300,115,-1,12,367,10,0.0
basic,36,34,0,0,0,13,"[0, 13]",2,24,"[1, 3, 4, 5, 6, 7, 8, 9, 10, 11, 12, 15, 18, 19, 20, 21, 22, 23, 24, 25, 26, 27, 28, 29]",279.9750156,4969,4854,12,331,10,1.0
basic,36,34,0,0,0,1,"[0, 13, 1]",3,16,"[3, 5, 7, 8, 9, 10, 11, 12, 19, 21, 22, 23, 24, 25, 27, 29]",211.8574701,7527,2558,3,92,10,1.0010381285747127
basic,36,34,0,0,0,8,"[0, 13, 1, 8]",4,14,"[3, 5, 7, 9, 10, 11, 12, 19, 22, 23, 24, 25, 27, 29]",201.0871405,8534,1007,2,54,10,1.1636807
basic,36,34,0,0,0,25,"[0, 13, 1, 8, 25]",5,12,"[3, 5, 7, 9, 10, 11, 12, 22, 23, 24, 27, 29]",183.999133,9527,993,2,28,10,1.1396208815936457
basic,36,34,0,0,0,24,"[0, 13, 1, 8, 25, 24]",6,11,"[3, 5, 7, 9, 10, 11, 12, 22, 23, 27, 29]",166.5062774,10545,1018,2,23,10,1.374180768736554
basic,36,34,0,0,0,12,"[0, 13, 1, 8, 25, 24, 12]",7,7,"[7, 9, 10, 11, 22, 23, 27]",115.4670767,18354,7809,1,8,10,1.4994254760835948
basic,36,34,0,0,0,7,"[0, 13, 1, 8, 25, 24, 12, 7]",8,5,"[9, 11, 22, 23, 27]",100.4337804,19878,1524,1,4,10,1.758992610425009
basic,36,34,0,0,0,23,"[0, 13, 1, 8, 25, 24, 12, 7, 23]",9,1,[27],72.27352467,21466,1588,1,0,10,2.399781305190153
basic,36,34,0,0,1,27,"[0, 13, 1, 8, 25, 24, 12, 7, 23, 27]",10,0,[],18.60789321,24289,2823,1,0,10,4.766619878750327
basic,36,34,0,1,1,27,"[0, 13, 1, 8, 25, 24, 12, 7, 23, 27]",10,0,[],18.60789321,26465,2176,1,0,10,4.766619878750327
basic,37,37,0,0,0,0,[0],1,29,"[1, 2, 3, 4, 5, 6, 7, 8, 9, 10, 11, 12, 13, 14, 15, 16, 17, 18, 19, 20, 21, 22, 23, 24, 25, 26, 27, 28, 29]",300,172,-1,6,168,10,0.0
basic,37,37,0,0,0,18,"[0, 18]",2,19,"[1, 2, 4, 6, 7, 9, 10, 12, 14, 15, 17, 19, 20, 21, 22, 23, 26, 28, 29]",202.4090168,15659,15487,6,89,10,1.0
basic,37,37,0,0,0,7,"[0, 18, 7]",3,12,"[1, 2, 4, 9, 15, 17, 19, 20, 21, 22, 26, 29]",175.2428614,18266,2607,6,53,10,1.0413073512834488
basic,37,37,0,0,0,22,"[0, 18, 7, 22]",4,8,"[1, 2, 4, 15, 19, 20, 21, 26]",125.2428614,20088,1822,6,29,10,1.0730792320325544
basic,37,37,0,0,0,4,"[0, 18, 7, 22, 4]",5,7,"[1, 2, 15, 19, 20, 21, 26]",100.2428614,22359,2271,4,16,10,1.2290245562206235
basic,37,37,0,0,0,2,"[0, 18, 7, 22, 4, 2]",6,5,"[1, 15, 19, 20, 21]",88.84110714,23651,1292,4,7,10,1.3968113858365216
basic,37,37,0,0,0,1,"[0, 18, 7, 22, 4, 2, 1]",7,4,"[15, 19, 20, 21]",71.63645661,25548,1897,4,3,10,1.4424239294761476
basic,37,37,0,0,0,20,"[0, 18, 7, 22, 4, 2, 1, 20]",8,3,"[15, 19, 21]",37.40197107,28276,2728,2,1,10,1.7518607796010042
basic,37,37,0,0,0,15,"[0, 18, 7, 22, 4, 2, 1, 20, 15]",9,1,[21],20.40197107,31635,3359,1,0,10,1.680305745239285
basic,37,37,0,0,1,21,"[0, 18, 7, 22, 4, 2, 1, 20, 15, 21]",10,0,[],5.401971073,33524,1889,1,0,10,1.8982635624510946
basic,37,37,0,1,1,21,"[0, 18, 7, 22, 4, 2, 1, 20, 15, 21]",10,0,[],5.401971073,35334,1810,1,0,10,1.8982635624510946
basic,38,26,0,0,0,0,[0],1,29,"[1, 2, 3, 4, 5, 6, 7, 8, 9, 10, 11, 12, 13, 14, 15, 16, 17, 18, 19, 20, 21, 22, 23, 24, 25, 26, 27, 28, 29]",300,184,-1,9,226,9,0.0
basic,38,26,0,0,0,10,"[0, 10]",2,6,"[4, 6, 14, 16, 17, 29]",138.1822012,3273,3089,9,66,7,1.0
basic,38,26,0,0,0,6,"[0, 10, 6]",3,5,"[4, 14, 16, 17, 29]",108.9076389,4764,1491,8,23,7,1.1897813099332413
basic,38,26,0,0,0,14,"[0, 10, 6, 14]",4,4,"[4, 16, 17, 29]",87.88384285,7780,3016,4,6,7,1.3162481558218453
basic,38,26,0,0,0,17,"[0, 10, 6, 14, 17]",5,3,"[4, 16, 29]",65.41163779,8932,1152,3,1,7,1.6510075497064465
basic,38,26,0,0,0,4,"[0, 10, 6, 14, 17, 4]",6,1,[29],44.31661468,10990,2058,1,0,7,2.1095586782058087
basic,38,26,0,0,1,29,"[0, 10, 6, 14, 17, 4, 29]",7,0,[],20.31661468,12946,1956,1,0,7,2.288952413143475
basic,38,26,0,1,1,29,"[0, 10, 6, 14, 17, 4, 29]",7,0,[],20.31661468,14600,1654,1,0,7,2.288952413143475
basic,39,9,0,0,0,0,[0],1,27,"[1, 3, 4, 5, 6, 7, 8, 9, 10, 11, 13, 14, 15, 16, 17, 18, 19, 20, 21, 22, 23, 24, 25, 26, 27, 28, 29]",300,118,-1,2,182,10,0.0
basic,39,9,0,0,0,10,"[0, 10]",2,22,"[3, 4, 5, 6, 7, 8, 9, 11, 13, 15, 16, 17, 18, 19, 20, 21, 22, 23, 25, 26, 27, 28]",245.6676892,5543,5425,5,195,9,1.0
basic,39,9,0,0,0,20,"[0, 10, 20]",3,15,"[6, 8, 9, 15, 16, 17, 18, 19, 21, 22, 23, 25, 26, 27, 28]",163.2055767,16016,10473,21,46,8,1.0801055828937411
basic,39,9,0,0,0,21,"[0, 10, 20, 21]",4,13,"[8, 9, 15, 16, 17, 18, 19, 22, 23, 25, 26, 27, 28]",151.1225307,17310,1294,21,23,8,1.25600340189184
basic,39,9,0,0,0,28,"[0, 10, 20, 21, 28]",5,5,"[8, 9, 23, 25, 26]",98.12253069,19383,2073,6,6,8,2.717918062811891
basic,39,9,0,0,0,8,"[0, 10, 20, 21, 28, 8]",6,4,"[9, 23, 25, 26]",87.30587686,20500,1117,3,2,8,3.334763337005809
basic,39,9,0,0,0,23,"[0, 10, 20, 21, 28, 8, 23]",7,2,"[9, 26]",65.83496631,21634,1134,2,0,8,3.932909251071256
basic,39,9,0,0,1,9,"[0, 10, 20, 21, 28, 8, 23, 9]",8,0,[],43.47428653,23228,1594,1,0,8,3.4449278372209213
basic,39,9,0,1,1,9,"[0, 10, 20, 21, 28, 8, 23, 9]",8,0,[],43.47428653,25446,2218,1,0,8,3.4449278372209213
basic,40,45,0,0,0,0,[0],1,24,"[1, 2, 3, 4, 5, 6, 7, 9, 10, 11, 12, 14, 15, 16, 17, 19, 20, 21, 22, 23, 24, 25, 27, 29]",300,122,-1,6,248,10,0.0
basic,40,45,0,0,0,15,"[0, 15]",2,23,"[1, 2, 3, 4, 5, 6, 7, 9, 10, 11, 12, 14, 16, 17, 19, 20, 21, 22, 23, 24, 25, 27, 29]",253.9022777,3379,3257,5,207,10,1.0
basic,40,45,0,0,0,23,"[0, 15, 23]",3,22,"[1, 2, 3, 4, 5, 6, 7, 9, 10, 11, 12, 14, 16, 17, 19, 20, 21, 22, 24, 25, 27, 29]",230.3014303,4625,1246,5,163,10,1.0006068457769497
basic,40,45,0,0,0,17,"[0, 15, 23, 17]",4,14,"[2, 3, 5, 6, 7, 9, 10, 11, 12, 19, 20, 21, 24, 29]",161.6210109,6175,1550,1,14,9,2.1576986948489725
basic,40,45,0,0,0,20,"[0, 15, 23, 17, 20]",5,9,"[2, 3, 6, 7, 9, 10, 12, 24, 29]",105.9074578,7682,1507,3,13,8,2.106592732631975
basic,40,45,0,0,0,24,"[0, 15, 23, 17, 20, 24]",6,1,[7],62.07824383,9242,1560,1,0,7,2.309811104455813
basic,40,45,0,0,1,7,"[0, 15, 23, 17, 20, 24, 7]",7,0,[],27.66894276,11500,2258,1,0,7,2.052655956101696
basic,40,45,0,1,1,7,"[0, 15, 23, 17, 20, 24, 7]",7,0,[],27.66894276,12662,1162,1,0,7,2.052655956101696
basic,41,15,0,0,0,0,[0],1,25,"[1, 2, 3, 4, 7, 8, 9, 10, 11, 12, 13, 14, 15, 16, 18, 20, 21, 22, 23, 24, 25, 26, 27, 28, 29]",300,113,-1,4,65,9,0.0
basic,41,15,0,0,0,21,"[0, 21]",2,17,"[1, 3, 4, 7, 8, 9, 11, 12, 13, 14, 15, 16, 22, 23, 24, 26, 27]",204.9158268,4894,4781,21,65,7,1.0
basic,41,15,0,0,0,12,"[0, 21, 12]",3,14,"[1, 3, 4, 7, 8, 9, 11, 13, 14, 15, 16, 22, 24, 27]",161.0866128,6156,1262,20,39,7,1.6068212046294776
basic,41,15,0,0,0,7,"[0, 21, 12, 7]",4,10,"[3, 4, 9, 11, 13, 14, 15, 16, 22, 27]",127.8450725,7554,1398,13,11,7,2.0298522511797907
basic,41,15,0,0,0,16,"[0, 21, 12, 7, 16]",5,5,"[3, 4, 11, 15, 22]",84.18731258,9155,1601,3,3,7,1.8904046427013528
basic,41,15,0,0,0,11,"[0, 21, 12, 7, 16, 11]",6,1,[3],58.16808892,13553,4398,1,0,7,1.9475991988988648
basic,41,15,0,0,1,3,"[0, 21, 12, 7, 16, 11, 3]",7,0,[],46.76633467,14712,1159,1,0,7,1.912955285957019
basic,41,15,0,1,1,3,"[0, 21, 12, 7, 16, 11, 3]",7,0,[],46.76633467,16396,1684,1,0,7,1.912955285957019
basic,42,43,0,0,0,0,[0],1,23,"[1, 2, 3, 4, 5, 6, 7, 9, 10, 11, 12, 14, 15, 16, 17, 19, 20, 21, 22, 23, 25, 27, 29]",300,113,-1,16,556,12,0.0
basic,42,43,0,0,0,29,"[0, 29]",2,22,"[1, 2, 3, 4, 5, 6, 7, 9, 10, 11, 12, 14, 15, 16, 17, 19, 20, 21, 22, 23, 25, 27]",277.909278,4917,4804,16,520,12,1.0
basic,42,43,0,0,0,20,"[0, 29, 20]",3,20,"[1, 2, 3, 4, 6, 7, 9, 10, 11, 12, 14, 15, 16, 17, 19, 21, 22, 23, 25, 27]",254.4785289,5874,957,15,422,12,1.082311746871282
basic,42,43,0,0,0,16,"[0, 29, 20, 16]",4,19,"[1, 2, 3, 4, 6, 7, 9, 10, 11, 12, 14, 15, 17, 19, 21, 22, 23, 25, 27]",231.8511119,6980,1106,15,389,12,1.215201926898219
basic,42,43,0,0,0,25,"[0, 29, 20, 16, 25]",5,14,"[1, 2, 3, 4, 6, 7, 9, 11, 12, 14, 15, 19, 22, 23]",175.7708124,8867,1887,53,282,11,1.566384303308987
basic,42,43,0,0,0,15,"[0, 29, 20, 16, 25, 15]",6,13,"[1, 2, 3, 4, 6, 7, 9, 11, 12, 14, 19, 22, 23]",153.0992443,9772,905,27,108,11,1.776736412604812
basic,42,43,0,0,0,12,"[0, 29, 20, 16, 25, 15, 12]",7,10,"[1, 3, 6, 7, 9, 11, 14, 19, 22, 23]",133.7860364,11262,1490,21,41,11,1.6813323012225032
basic,42,43,0,0,0,3,"[0, 29, 20, 16, 25, 15, 12, 3]",8,9,"[1, 6, 7, 9, 11, 14, 19, 22, 23]",120.7860364,12387,1125,20,12,11,1.608740348096123
basic,42,43,0,0,0,22,"[0, 29, 20, 16, 25, 15, 12, 3, 22]",9,6,"[1, 6, 7, 11, 14, 19]",86.07292644,13885,1498,9,2,11,1.793657891802588
basic,42,43,0,0,0,11,"[0, 29, 20, 16, 25, 15, 12, 3, 22, 11]",10,1,[6],40.00775521,19334,5449,1,0,11,2.857057635054945
basic,42,43,0,0,1,6,"[0, 29, 20, 16, 25, 15, 12, 3, 22, 11, 6]",11,0,[],19.39222709,24383,5049,1,0,11,2.5442600061215437
basic,42,43,0,1,1,6,"[0, 29, 20, 16, 25, 15, 12, 3, 22, 11, 6]",11,0,[],19.39222709,27228,2845,1,0,11,2.5442600061215437
basic,43,10,0,0,0,0,[0],1,29,"[1, 2, 3, 4, 5, 6, 7, 8, 9, 10, 11, 12, 13, 14, 15, 16, 17, 18, 19, 20, 21, 22, 23, 24, 25, 26, 27, 28, 29]",300,109,-1,1,100,9,0.0
basic,43,10,0,0,0,13,"[0, 13]",2,25,"[1, 2, 3, 4, 6, 7, 8, 9, 10, 11, 12, 14, 17, 18, 19, 20, 21, 22, 23, 24, 25, 26, 27, 28, 29]",249.4628849,4479,4370,1,79,9,1.0
basic,43,10,0,0,0,11,"[0, 13, 11]",3,20,"[1, 2, 3, 6, 7, 8, 9, 10, 12, 14, 18, 19, 20, 21, 22, 24, 26, 27, 28, 29]",206.4512586,7136,2657,1,54,9,1.0313137484914219
basic,43,10,0,0,0,19,"[0, 13, 11, 19]",4,11,"[2, 6, 8, 9, 10, 14, 18, 20, 24, 26, 27]",170.0919407,8640,1504,1,22,9,1.0879446220132545
basic,43,10,0,0,0,2,"[0, 13, 11, 19, 2]",5,4,"[14, 20, 26, 27]",126.1829439,11534,2894,1,4,9,1.06474052351343
basic,43,10,0,0,0,14,"[0, 13, 11, 19, 2, 14]",6,3,"[20, 26, 27]",114.0174188,12366,832,1,3,9,1.1628909195912238
basic,43,10,0,0,0,26,"[0, 13, 11, 19, 2, 14, 26]",7,2,"[20, 27]",79.34754716,13871,1505,1,1,9,1.6660727647633602
basic,43,10,0,0,0,20,"[0, 13, 11, 19, 2, 14, 26, 20]",8,1,[27],47.56704999,15886,2015,1,0,9,2.085581809637999
basic,43,10,0,0,1,27,"[0, 13, 11, 19, 2, 14, 26, 20, 27]",9,0,[],2.312215998,18529,2643,1,0,9,1.9116357409137932
basic,43,10,0,1,1,27,"[0, 13, 11, 19, 2, 14, 26, 20, 27]",9,0,[],2.312215998,20408,1879,1,0,9,1.9116357409137932
basic,44,7,0,0,0,0,[0],1,29,"[1, 2, 3, 4, 5, 6, 7, 8, 9, 10, 11, 12, 13, 14, 15, 16, 17, 18, 19, 20, 21, 22, 23, 24, 25, 26, 27, 28, 29]",300,113,-1,3,79,9,0.0
basic,44,7,0,0,0,15,"[0, 15]",2,19,"[2, 4, 5, 6, 7, 8, 9, 10, 13, 14, 16, 18, 19, 20, 21, 23, 25, 27, 28]",230.9348134,3609,3496,2,38,9,1.0
basic,44,7,0,0,0,6,"[0, 15, 6]",3,18,"[2, 4, 5, 7, 8, 9, 10, 13, 14, 16, 18, 19, 20, 21, 23, 25, 27, 28]",205.854941,4767,1158,2,36,9,1.366719602896943
basic,44,7,0,0,0,25,"[0, 15, 6, 25]",4,11,"[2, 4, 7, 13, 14, 16, 18, 19, 20, 21, 23]",138.6760753,6219,1452,2,28,9,1.3624631728355765
basic,44,7,0,0,0,4,"[0, 15, 6, 25, 4]",5,7,"[2, 7, 13, 16, 18, 19, 20]",113.9374415,7657,1438,2,12,9,1.3249684384385587
basic,44,7,0,0,0,20,"[0, 15, 6, 25, 4, 20]",6,5,"[2, 7, 13, 18, 19]",94.29055881,8872,1215,1,6,9,1.3721893242679268
basic,44,7,0,0,0,18,"[0, 15, 6, 25, 4, 20, 18]",7,3,"[7, 13, 19]",81.48431034,11026,2154,1,2,9,1.5262542308371432
basic,44,7,0,0,0,7,"[0, 15, 6, 25, 4, 20, 18, 7]",8,1,[19],40.25325408,12437,1411,1,0,9,1.41986878673423
basic,44,7,0,0,1,19,"[0, 15, 6, 25, 4, 20, 18, 7, 19]",9,0,[],10.84237174,15016,2579,1,0,9,1.5285658163212987
basic,44,7,0,1,1,19,"[0, 15, 6, 25, 4, 20, 18, 7, 19]",9,0,[],10.84237174,16844,1828,1,0,9,1.5285658163212987
basic,45,35,0,0,0,0,[0],1,29,"[1, 2, 3, 4, 5, 6, 7, 8, 9, 10, 11, 12, 13, 14, 15, 16, 17, 18, 19, 20, 21, 22, 23, 24, 25, 26, 27, 28, 29]",300,114,-1,5,236,11,0.0
basic,45,35,0,0,0,24,"[0, 24]",2,27,"[1, 2, 4, 5, 6, 7, 8, 9, 10, 11, 12, 13, 14, 15, 16, 17, 18, 19, 20, 21, 22, 23, 25, 26, 27, 28, 29]",268.9838752,3092,2978,49,512,10,1.0
basic,45,35,0,0,0,17,"[0, 24, 17]",3,26,"[1, 2, 4, 5, 6, 7, 8, 9, 10, 11, 12, 13, 14, 15, 16, 18, 19, 20, 21, 22, 23, 25, 26, 27, 28, 29]",257.2791753,4038,946,33,238,10,1.0771477201815276
basic,45,35,0,0,0,1,"[0, 24, 17, 1]",4,25,"[2, 4, 5, 6, 7, 8, 9, 10, 11, 12, 13, 14, 15, 16, 18, 19, 20, 21, 22, 23, 25, 26, 27, 28, 29]",241.4677869,4973,935,26,151,10,1.2244804141479215
basic,45,35,0,0,0,15,"[0, 24, 17, 1, 15]",5,23,"[2, 4, 5, 6, 7, 8, 9, 10, 11, 12, 14, 16, 18, 19, 20, 21, 22, 23, 25, 26, 27, 28, 29]",218.6204676,6407,1434,26,78,10,1.4642196672428094
basic,45,35,0,0,0,5,"[0, 24, 17, 1, 15, 5]",6,13,"[4, 6, 9, 11, 18, 19, 20, 23, 25, 26, 27, 28, 29]",162.2999563,12275,5868,7,20,10,1.2337505118614283
basic,45,35,0,0,0,23,"[0, 24, 17, 1, 15, 5, 23]",7,4,"[6, 9, 18, 25]",107.8481427,21905,9630,6,6,10,1.8072927740829974
basic,45,35,0,0,0,9,"[0, 24, 17, 1, 15, 5, 23, 9]",8,3,"[6, 18, 25]",70.20508226,23236,1331,2,2,10,2.044176666334238
basic,45,35,0,0,0,18,"[0, 24, 17, 1, 15, 5, 23, 9, 18]",9,2,"[6, 25]",50.18009787,26286,3050,2,0,10,1.942139959218181
basic,45,35,0,0,1,25,"[0, 24, 17, 1, 15, 5, 23, 9, 18, 25]",10,0,[],16.34224924,30502,4216,1,0,10,1.7516079451103164
basic,45,35,0,1,1,25,"[0, 24, 17, 1, 15, 5, 23, 9, 18, 25]",10,0,[],16.34224924,33862,3360,1,0,10,1.7516079451103164
basic,46,17,0,0,0,0,[0],1,28,"[1, 2, 3, 4, 5, 6, 7, 8, 9, 10, 11, 12, 13, 14, 15, 16, 17, 18, 19, 20, 22, 23, 24, 25, 26, 27, 28, 29]",300,113,-1,2,73,8,0.0
basic,46,17,0,0,0,9,"[0, 9]",2,25,"[1, 2, 3, 5, 6, 7, 8, 10, 11, 12, 14, 15, 16, 17, 18, 19, 20, 22, 23, 24, 25, 26, 27, 28, 29]",210.5293344,12470,12357,1,34,8,1.0
basic,46,17,0,0,0,16,"[0, 9, 16]",3,21,"[1, 2, 3, 5, 7, 8, 10, 11, 12, 14, 17, 18, 19, 20, 22, 23, 25, 26, 27, 28, 29]",197.1876704,13668,1198,1,26,8,1.173103464220352
basic,46,17,0,0,0,2,"[0, 9, 16, 2]",4,18,"[1, 3, 5, 7, 8, 10, 11, 12, 14, 17, 18, 19, 23, 25, 26, 27, 28, 29]",181.0631549,14892,1224,1,23,8,1.14825089247282
basic,46,17,0,0,0,17,"[0, 9, 16, 2, 17]",5,7,"[7, 8, 12, 14, 26, 27, 29]",142.7356191,16428,1536,4,5,7,1.4896040699768547
basic,46,17,0,0,0,8,"[0, 9, 16, 2, 17, 8]",6,3,"[7, 12, 27]",104.5256727,17776,1348,3,0,7,1.4604726966175894
basic,46,17,0,0,1,27,"[0, 9, 16, 2, 17, 8, 27]",7,0,[],21.88790895,22883,5107,1,0,7,1.2949460667276491
basic,46,17,0,1,1,27,"[0, 9, 16, 2, 17, 8, 27]",7,0,[],21.88790895,25529,2646,1,0,7,1.2949460667276491
basic,47,11,0,0,0,0,[0],1,25,"[1, 2, 3, 4, 5, 6, 8, 9, 10, 11, 12, 13, 14, 15, 16, 17, 18, 19, 20, 22, 23, 25, 26, 27, 28]",300,113,-1,6,374,12,0.0
basic,47,11,0,0,0,18,"[0, 18]",2,21,"[1, 2, 4, 5, 6, 8, 9, 11, 12, 13, 14, 15, 16, 17, 19, 20, 22, 23, 25, 27, 28]",236.8493864,6970,6857,157,1477,11,1.0
basic,47,11,0,0,0,27,"[0, 18, 27]",3,19,"[1, 2, 4, 5, 6, 8, 9, 11, 12, 14, 15, 16, 17, 19, 20, 22, 23, 25, 28]",212.9956655,9177,2207,157,1315,11,1.060949579704323
basic,47,11,0,0,0,8,"[0, 18, 27, 8]",4,14,"[1, 2, 4, 5, 6, 11, 12, 15, 17, 19, 22, 23, 25, 28]",142.7817068,11651,2474,68,433,11,1.0827202875589923
basic,47,11,0,0,0,17,"[0, 18, 27, 8, 17]",5,13,"[1, 2, 4, 5, 6, 11, 12, 15, 19, 22, 23, 25, 28]",128.4638857,13261,1610,42,137,11,1.1662918234607762
basic,47,11,0,0,0,15,"[0, 18, 27, 8, 17, 15]",6,9,"[2, 5, 6, 11, 12, 19, 22, 25, 28]",115.8147751,14685,1424,38,57,11,1.1741312027420885
basic,47,11,0,0,0,11,"[0, 18, 27, 8, 17, 15, 11]",7,7,"[2, 5, 6, 12, 19, 22, 28]",97.70400479,18067,3382,24,0,11,1.1668679039564056
basic,47,11,0,0,0,28,"[0, 18, 27, 8, 17, 15, 11, 28]",8,4,"[2, 5, 19, 22]",78.28751696,26922,8855,6,0,11,1.2830334294205898
basic,47,11,0,0,0,5,"[0, 18, 27, 8, 17, 15, 11, 28, 5]",9,2,"[2, 22]",60.39897314,32028,5106,2,0,11,1.472719061667125
basic,47,11,0,0,0,2,"[0, 18, 27, 8, 17, 15, 11, 28, 5, 2]",10,1,[22],43.39897314,35258,3230,1,0,11,1.437636650715907
basic,47,11,0,0,1,22,"[0, 18, 27, 8, 17, 15, 11, 28, 5, 2, 22]",11,0,[],33.34909751,37505,2247,1,0,11,1.414339916866727
basic,47,11,0,1,1,22,"[0, 18, 27, 8, 17, 15, 11, 28, 5, 2, 22]",11,0,[],33.34909751,41760,4255,1,0,11,1.414339916866727
basic,48,6,0,0,0,0,[0],1,29,"[1, 2, 3, 4, 5, 6, 7, 8, 9, 10, 11, 12, 13, 14, 15, 16, 17, 18, 19, 20, 21, 22, 23, 24, 25, 26, 27, 28, 29]",300,114,-1,180,4304,10,0.0
basic,48,6,0,0,0,3,"[0, 3]",2,28,"[1, 2, 4, 5, 6, 7, 8, 9, 10, 11, 12, 13, 14, 15, 16, 17, 18, 19, 20, 21, 22, 23, 24, 25, 26, 27, 28, 29]",266.4738908,3125,3011,90,1607,10,1.0
basic,48,6,0,0,0,18,"[0, 3, 18]",3,27,"[1, 2, 4, 5, 6, 7, 8, 9, 10, 11, 12, 13, 14, 15, 16, 17, 19, 20, 21, 22, 23, 24, 25, 26, 27, 28, 29]",237.4738908,5252,2127,34,516,10,1.0266750028725786
basic,48,6,0,0,0,17,"[0, 3, 18, 17]",4,26,"[1, 2, 4, 5, 6, 7, 8, 9, 10, 11, 12, 13, 14, 15, 16, 19, 20, 21, 22, 23, 24, 25, 26, 27, 28, 29]",223.5455025,8060,2808,17,243,10,1.0832900829093166
basic,48,6,0,0,0,10,"[0, 3, 18, 17, 10]",5,22,"[1, 2, 4, 5, 6, 7, 8, 9, 11, 13, 14, 16, 19, 20, 21, 22, 23, 24, 26, 27, 28, 29]",203.8224196,9342,1282,10,111,10,1.140294203414171
basic,48,6,0,0,0,24,"[0, 3, 18, 17, 10, 24]",6,19,"[1, 2, 4, 5, 6, 7, 8, 11, 13, 14, 16, 20, 21, 22, 23, 26, 27, 28, 29]",190.4060117,12584,3242,10,80,10,1.1264281153820843
basic,48,6,0,0,0,16,"[0, 3, 18, 17, 10, 24, 16]",7,13,"[1, 2, 6, 7, 13, 14, 20, 21, 22, 23, 26, 27, 29]",134.3703088,14605,2021,6,21,10,2.2946652061367843
basic,48,6,0,0,0,29,"[0, 3, 18, 17, 10, 24, 16, 29]",8,7,"[6, 14, 20, 21, 22, 23, 27]",97.68243615,15985,1380,5,5,10,1.8995488998077483
basic,48,6,0,0,0,23,"[0, 3, 18, 17, 10, 24, 16, 29, 23]",9,2,"[6, 22]",50.16401866,18801,2816,2,0,10,1.8616504050291767
basic,48,6,0,0,1,6,"[0, 3, 18, 17, 10, 24, 16, 29, 23, 6]",10,0,[],14.8086796,20316,1515,1,0,10,1.7707258119152334
basic,48,6,0,1,1,6,"[0, 3, 18, 17, 10, 24, 16, 29, 23, 6]",10,0,[],14.8086796,21727,1411,1,0,10,1.7707258119152334
basic,49,33,0,0,0,0,[0],1,23,"[1, 2, 5, 7, 8, 11, 12, 13, 14, 15, 16, 17, 18, 19, 20, 21, 23, 24, 25, 26, 27, 28, 29]",300,115,-1,5,108,9,0.0
basic,49,33,0,0,0,21,"[0, 21]",2,17,"[2, 5, 7, 8, 11, 13, 14, 16, 17, 18, 19, 20, 24, 26, 27, 28, 29]",174.4611614,3526,3411,21,129,8,1.0
basic,49,33,0,0,0,13,"[0, 21, 13]",3,15,"[2, 5, 7, 8, 11, 14, 16, 17, 18, 19, 20, 24, 26, 28, 29]",148.0604038,6039,2513,17,72,8,1.0001005298764474
basic,49,33,0,0,0,17,"[0, 21, 13, 17]",4,10,"[2, 7, 11, 14, 16, 19, 20, 24, 26, 29]",125.2568953,9190,3151,6,21,8,1.0965005103980894
basic,49,33,0,0,0,19,"[0, 21, 13, 17, 19]",5,6,"[7, 14, 16, 24, 26, 29]",81.32513005,10670,1480,1,6,8,1.3049461552347723
basic,49,33,0,0,0,24,"[0, 21, 13, 17, 19, 24]",6,1,[7],39.27753797,12535,1865,1,0,7,1.2805615728788176
basic,49,33,0,0,1,7,"[0, 21, 13, 17, 19, 24, 7]",7,0,[],10.07137423,16403,3868,1,0,7,1.360522669208075
basic,49,33,0,1,1,7,"[0, 21, 13, 17, 19, 24, 7]",7,0,[],10.07137423,17430,1027,1,0,7,1.360522669208075
basic,50,18,0,0,0,0,[0],1,28,"[1, 2, 3, 4, 5, 6, 7, 8, 9, 10, 11, 12, 13, 14, 16, 17, 18, 19, 20, 21, 22, 23, 24, 25, 26, 27, 28, 29]",300,112,-1,3,136,10,0.0
basic,50,18,0,0,0,28,"[0, 28]",2,16,"[1, 3, 5, 7, 8, 9, 12, 13, 14, 16, 20, 23, 24, 25, 26, 27]",236.4311397,7560,7448,2,19,10,1.0
basic,50,18,0,0,0,7,"[0, 28, 7]",3,15,"[1, 3, 5, 8, 9, 12, 13, 14, 16, 20, 23, 24, 25, 26, 27]",214.4084242,8678,1118,2,17,10,1.4345180696367563
basic,50,18,0,0,0,25,"[0, 28, 7, 25]",4,13,"[1, 3, 5, 8, 9, 12, 13, 14, 16, 20, 23, 26, 27]",186.6055466,10082,1404,2,15,10,1.8896451241781882
basic,50,18,0,0,0,8,"[0, 28, 7, 25, 8]",5,10,"[3, 5, 9, 12, 13, 14, 16, 23, 26, 27]",149.551532,11343,1261,2,10,10,1.590467437592877
basic,50,18,0,0,0,13,"[0, 28, 7, 25, 8, 13]",6,9,"[3, 5, 9, 12, 14, 16, 23, 26, 27]",128.4565089,21050,9707,2,5,10,1.8248274983549797
basic,50,18,0,0,0,14,"[0, 28, 7, 25, 8, 13, 14]",7,7,"[3, 5, 9, 12, 23, 26, 27]",109.4828429,22222,1172,2,3,10,1.6993534956692746
basic,50,18,0,0,0,3,"[0, 28, 7, 25, 8, 13, 14, 3]",8,3,"[5, 12, 27]",79.39962499,23836,1614,2,1,10,1.802637206541468
basic,50,18,0,0,0,5,"[0, 28, 7, 25, 8, 13, 14, 3, 5]",9,1,[12],21.21887216,26909,3073,1,0,10,1.559774889743805
basic,50,18,0,0,1,12,"[0, 28, 7, 25, 8, 13, 14, 3, 5, 12]",10,0,[],9.817117911,28822,1913,1,0,10,1.563993037384447
basic,50,18,0,1,1,12,"[0, 28, 7, 25, 8, 13, 14, 3, 5, 12]",10,0,[],9.817117911,30377,1555,1,0,10,1.563993037384447
basic,51,40,0,0,0,0,[0],1,29,"[1, 2, 3, 4, 5, 6, 7, 8, 9, 10, 11, 12, 13, 14, 15, 16, 17, 18, 19, 20, 21, 22, 23, 24, 25, 26, 27, 28, 29]",300,111,-1,8,191,9,0.0
basic,51,40,0,0,0,1,"[0, 1]",2,18,"[2, 5, 6, 7, 8, 9, 10, 11, 13, 15, 17, 18, 19, 21, 22, 23, 27, 29]",247.8463808,4483,4372,4,80,9,1.0
basic,51,40,0,0,0,6,"[0, 1, 6]",3,17,"[2, 5, 7, 8, 9, 10, 11, 13, 15, 17, 18, 19, 21, 22, 23, 27, 29]",227.7466295,5590,1107,4,74,9,1.0459427008232034
basic,51,40,0,0,0,21,"[0, 1, 6, 21]",4,8,"[2, 5, 9, 17, 18, 19, 22, 23]",175.7754837,6858,1268,4,25,9,1.0308822257404064
basic,51,40,0,0,0,9,"[0, 1, 6, 21, 9]",5,6,"[2, 5, 18, 19, 22, 23]",130.0699041,8535,1677,4,12,9,1.377861912961129
basic,51,40,0,0,0,18,"[0, 1, 6, 21, 9, 18]",6,5,"[2, 5, 19, 22, 23]",113.5169588,9693,1158,4,4,9,1.5742712168661408
basic,51,40,0,0,0,23,"[0, 1, 6, 21, 9, 18, 23]",7,3,"[2, 5, 19]",79.51695879,11447,1754,2,1,9,2.324611956726637
basic,51,40,0,0,0,19,"[0, 1, 6, 21, 9, 18, 23, 19]",8,1,[5],47.56386817,13832,2385,1,0,9,2.460596854255639
basic,51,40,0,0,1,5,"[0, 1, 6, 21, 9, 18, 23, 19, 5]",9,0,[],9.485002643,16288,2456,1,0,9,2.3622228457215413
basic,51,40,0,1,1,5,"[0, 1, 6, 21, 9, 18, 23, 19, 5]",9,0,[],9.485002643,17743,1455,1,0,9,2.3622228457215413
basic,52,19,0,0,0,0,[0],1,29,"[1, 2, 3, 4, 5, 6, 7, 8, 9, 10, 11, 12, 13, 14, 15, 16, 17, 18, 19, 20, 21, 22, 23, 24, 25, 26, 27, 28, 29]",300,113,-1,12,149,8,0.0
basic,52,19,0,0,0,23,"[0, 23]",2,10,"[1, 2, 3, 8, 12, 13, 17, 18, 19, 25]",120.1945496,10542,10429,12,14,5,1.0
basic,52,19,0,0,0,3,"[0, 23, 3]",3,8,"[1, 2, 8, 13, 17, 18, 19, 25]",98.26283738,13461,2919,4,6,5,1.0010444743821048
basic,52,19,0,0,0,8,"[0, 23, 3, 8]",4,2,"[2, 18]",74.9390298,14597,1136,2,0,5,1.0328136415956608
basic,52,19,0,0,1,2,"[0, 23, 3, 8, 2]",5,0,[],9.448572483,16752,2155,1,0,5,1.4112754820047821
basic,52,19,0,1,1,2,"[0, 23, 3, 8, 2]",5,0,[],9.448572483,18095,1343,1,0,5,1.4112754820047821
basic,53,3,0,0,0,0,[0],1,29,"[1, 2, 3, 4, 5, 6, 7, 8, 9, 10, 11, 12, 13, 14, 15, 16, 17, 18, 19, 20, 21, 22, 23, 24, 25, 26, 27, 28, 29]",300,113,-1,34,427,10,0.0
basic,53,3,0,0,0,8,"[0, 8]",2,28,"[1, 2, 3, 4, 5, 6, 7, 9, 10, 11, 12, 13, 14, 15, 16, 17, 18, 19, 20, 21, 22, 23, 24, 25, 26, 27, 28, 29]",239.9666759,3455,3342,1,54,10,1.0
basic,53,3,0,0,0,24,"[0, 8, 24]",3,23,"[1, 2, 3, 4, 5, 6, 7, 10, 11, 12, 14, 15, 16, 17, 18, 19, 20, 21, 22, 25, 26, 27, 28]",227.8011509,5408,1953,1,50,10,1.2267083825981846
basic,53,3,0,0,0,14,"[0, 8, 24, 14]",4,10,"[3, 4, 7, 10, 16, 17, 19, 20, 21, 22]",156.6885641,11516,6108,11,34,9,1.1134869392511408
basic,53,3,0,0,0,21,"[0, 8, 24, 14, 21]",5,6,"[3, 4, 10, 17, 19, 20]",129.781316,14186,2670,5,9,9,1.1069743794257796
basic,53,3,0,0,0,19,"[0, 8, 24, 14, 21, 19]",6,5,"[3, 4, 10, 17, 20]",117.5747604,15250,1064,5,2,9,1.2361067774463228
basic,53,3,0,0,0,3,"[0, 8, 24, 14, 21, 19, 3]",7,2,"[17, 20]",80.23845095,17335,2085,2,0,9,1.7566876040075643
basic,53,3,0,0,0,20,"[0, 8, 24, 14, 21, 19, 3, 20]",8,1,[17],59.8423729,19286,1951,1,0,9,2.1212226227760778
basic,53,3,0,0,1,17,"[0, 8, 24, 14, 21, 19, 3, 20, 17]",9,0,[],47.19326226,20834,1548,1,0,9,2.4711452839916217
basic,53,3,0,1,1,17,"[0, 8, 24, 14, 21, 19, 3, 20, 17]",9,0,[],47.19326226,22914,2080,1,0,9,2.4711452839916217
basic,54,20,0,0,0,0,[0],1,21,"[1, 2, 3, 4, 5, 6, 7, 8, 9, 12, 17, 18, 20, 21, 22, 23, 25, 26, 27, 28, 29]",300,121,-1,1,9,9,0.0
basic,54,20,0,0,0,1,"[0, 1]",2,14,"[3, 4, 5, 6, 8, 9, 12, 20, 21, 23, 26, 27, 28, 29]",197.3501096,3108,2987,1,9,8,1.0
basic,54,20,0,0,0,5,"[0, 1, 5]",3,12,"[4, 6, 8, 9, 12, 20, 21, 23, 26, 27, 28, 29]",160.675868,4489,1381,1,8,8,1.1088946720668915
basic,54,20,0,0,0,28,"[0, 1, 5, 28]",4,8,"[6, 8, 9, 20, 21, 23, 26, 27]",90.64016277,6087,1598,6,5,6,1.090815360593761
basic,54,20,0,0,0,21,"[0, 1, 5, 28, 21]",5,2,"[8, 27]",54.39102485,7690,1603,2,0,6,1.439859532341484
basic,54,20,0,0,1,8,"[0, 1, 5, 28, 21, 8]",6,0,[],36.92677566,8488,798,1,0,6,1.4310567215786145
basic,54,20,0,1,1,8,"[0, 1, 5, 28, 21, 8]",6,0,[],36.92677566,15098,6610,1,0,6,1.4310567215786145
basic,55,38,0,0,0,0,[0],1,29,"[1, 2, 3, 4, 5, 6, 7, 8, 9, 10, 11, 12, 13, 14, 15, 16, 17, 18, 19, 20, 21, 22, 23, 24, 25, 26, 27, 28, 29]",300,146,-1,33,506,9,0.0
basic,55,38,0,0,0,19,"[0, 19]",2,23,"[3, 4, 5, 6, 7, 8, 9, 11, 13, 14, 15, 16, 17, 18, 20, 22, 23, 24, 25, 26, 27, 28, 29]",219.5015528,3299,3153,6,61,9,1.0
basic,55,38,0,0,0,17,"[0, 19, 17]",3,21,"[3, 4, 5, 6, 7, 9, 11, 13, 14, 15, 16, 18, 20, 22, 23, 24, 25, 26, 27, 28, 29]",198.1239945,4786,1487,6,53,9,1.571793785769489
basic,55,38,0,0,0,20,"[0, 19, 17, 20]",4,17,"[3, 4, 5, 6, 7, 11, 13, 14, 15, 16, 18, 22, 24, 25, 26, 27, 28]",174.3542658,6260,1474,6,44,9,2.333182710277297
basic,55,38,0,0,0,4,"[0, 19, 17, 20, 4]",5,10,"[5, 11, 13, 14, 15, 16, 24, 26, 27, 28]",140.4131403,7576,1316,5,22,9,2.276099229646013
basic,55,38,0,0,0,13,"[0, 19, 17, 20, 4, 13]",6,7,"[11, 15, 16, 24, 26, 27, 28]",109.0125034,9087,1511,8,3,8,1.9539449223642764
basic,55,38,0,0,0,26,"[0, 19, 17, 20, 4, 13, 26]",7,3,"[15, 16, 24]",77.96415401,10368,1281,3,0,8,1.7636339903785625
basic,55,38,0,0,1,24,"[0, 19, 17, 20, 4, 13, 26, 24]",8,0,[],47.15831041,11550,1182,1,0,8,1.6290683193074331
basic,55,38,0,1,1,24,"[0, 19, 17, 20, 4, 13, 26, 24]",8,0,[],47.15831041,12845,1295,1,0,8,1.6290683193074331
basic,56,23,0,0,0,0,[0],1,28,"[1, 2, 3, 4, 5, 6, 7, 8, 9, 10, 11, 12, 13, 14, 15, 16, 17, 18, 19, 20, 21, 22, 23, 25, 26, 27, 28, 29]",300,130,-1,76,2626,10,0.0
basic,56,23,0,0,0,22,"[0, 22]",2,24,"[1, 2, 3, 5, 6, 7, 8, 9, 10, 11, 12, 13, 14, 15, 17, 18, 19, 20, 21, 23, 25, 26, 27, 29]",210.5013967,4101,3971,15,1362,10,1.0
basic,56,23,0,0,0,13,"[0, 22, 13]",3,14,"[1, 2, 5, 6, 7, 8, 9, 10, 12, 14, 18, 21, 27, 29]",168.3113504,5360,1259,14,522,10,1.1898173563652046
basic,56,23,0,0,0,12,"[0, 22, 13, 12]",4,11,"[1, 2, 6, 7, 9, 10, 14, 18, 21, 27, 29]",156.2283045,6407,1047,12,166,10,1.1727968780218219
basic,56,23,0,0,0,27,"[0, 22, 13, 12, 27]",5,6,"[2, 6, 9, 14, 18, 29]",115.4361484,10717,4310,24,10,9,1.2890498546136056
basic,56,23,0,0,0,6,"[0, 22, 13, 12, 27, 6]",6,4,"[2, 9, 14, 29]",87.13420496,12178,1461,8,3,9,1.4168087827969746
basic,56,23,0,0,0,2,"[0, 22, 13, 12, 27, 6, 2]",7,3,"[9, 14, 29]",68.69511605,14538,2360,4,1,9,1.6950530812130016
basic,56,23,0,0,0,9,"[0, 22, 13, 12, 27, 6, 2, 9]",8,2,"[14, 29]",55.65671124,16437,1899,2,0,9,1.8702358422647571
basic,56,23,0,0,1,14,"[0, 22, 13, 12, 27, 6, 2, 9, 14]",9,0,[],45.21640473,18226,1789,1,0,9,1.808386291219993
basic,56,23,0,1,1,14,"[0, 22, 13, 12, 27, 6, 2, 9, 14]",9,0,[],45.21640473,19445,1219,1,0,9,1.808386291219993
basic,57,22,0,0,0,0,[0],1,29,"[1, 2, 3, 4, 5, 6, 7, 8, 9, 10, 11, 12, 13, 14, 15, 16, 17, 18, 19, 20, 21, 22, 23, 24, 25, 26, 27, 28, 29]",300,114,-1,31,704,9,0.0
basic,57,22,0,0,0,29,"[0, 29]",2,22,"[1, 3, 5, 6, 7, 8, 9, 11, 13, 14, 15, 16, 17, 19, 20, 21, 22, 23, 24, 25, 27, 28]",222.9935068,11535,11421,11,235,9,1.0
basic,57,22,0,0,0,19,"[0, 29, 19]",3,18,"[1, 3, 6, 7, 8, 9, 13, 14, 15, 16, 17, 20, 21, 22, 23, 24, 25, 28]",207.9602104,12739,1204,11,172,9,1.1559285443414686
basic,57,22,0,0,0,9,"[0, 29, 19, 9]",4,16,"[1, 3, 6, 7, 8, 13, 14, 15, 16, 17, 20, 21, 22, 24, 25, 28]",187.5641323,16134,3395,7,84,9,1.2555028175473422
basic,57,22,0,0,0,6,"[0, 29, 19, 9, 6]",5,13,"[3, 7, 13, 14, 15, 16, 17, 20, 21, 22, 24, 25, 28]",160.9370784,19226,3092,17,16,8,1.5692551066355458
basic,57,22,0,0,0,7,"[0, 29, 19, 9, 6, 7]",6,5,"[14, 17, 21, 24, 28]",92.98121039,26487,7261,4,3,8,1.646067755646587
basic,57,22,0,0,0,14,"[0, 29, 19, 9, 6, 7, 14]",7,2,"[17, 28]",79.94280558,27757,1270,2,0,8,1.6987389823124999
basic,57,22,0,0,1,17,"[0, 29, 19, 9, 6, 7, 14, 17]",8,0,[],30.36458456,29490,1733,1,0,8,1.7062457228676657
basic,57,22,0,1,1,17,"[0, 29, 19, 9, 6, 7, 14, 17]",8,0,[],30.36458456,30878,1388,1,0,8,1.7062457228676657
basic,58,4,0,0,0,0,[0],1,26,"[3, 4, 5, 6, 7, 8, 10, 11, 12, 13, 14, 15, 16, 17, 18, 19, 20, 21, 22, 23, 24, 25, 26, 27, 28, 29]",300,112,-1,4,489,10,0.0
basic,58,4,0,0,0,28,"[0, 28]",2,21,"[3, 4, 5, 6, 10, 11, 12, 13, 14, 15, 16, 17, 19, 20, 21, 22, 23, 24, 25, 26, 27]",225.9392142,3406,3294,2,216,10,1.0
basic,58,4,0,0,0,14,"[0, 28, 14]",3,13,"[3, 4, 5, 6, 11, 13, 16, 17, 20, 21, 22, 24, 25]",159.6972335,4960,1554,1,26,10,1.0273973946789214
basic,58,4,0,0,0,25,"[0, 28, 14, 25]",4,12,"[3, 4, 5, 6, 11, 13, 16, 17, 20, 21, 22, 24]",143.572718,6228,1268,1,25,10,1.233547772313525
basic,58,4,0,0,0,11,"[0, 28, 14, 25, 11]",5,10,"[3, 4, 5, 6, 13, 16, 17, 20, 21, 22]",124.7844238,7501,1273,1,15,10,1.425978575879479
basic,58,4,0,0,0,16,"[0, 28, 14, 25, 11, 16]",6,9,"[3, 4, 5, 6, 13, 17, 20, 21, 22]",109.7844238,15383,7882,1,12,10,1.3799325158051412
basic,58,4,0,0,0,21,"[0, 28, 14, 25, 11, 16, 21]",7,4,"[5, 17, 20, 22]",65.58035157,17185,1802,3,3,9,1.5860540591673642
basic,58,4,0,0,0,22,"[0, 28, 14, 25, 11, 16, 21, 22]",8,3,"[5, 17, 20]",54.53499056,19087,1902,3,0,9,1.5471132483772176
basic,58,4,0,0,1,20,"[0, 28, 14, 25, 11, 16, 21, 22, 20]",9,0,[],24.30255764,20894,1807,1,0,9,1.5087977616865345
basic,58,4,0,1,1,20,"[0, 28, 14, 25, 11, 16, 21, 22, 20]",9,0,[],24.30255764,22277,1383,1,0,9,1.5087977616865345
basic,59,1,0,0,0,0,[0],1,26,"[1, 2, 4, 5, 7, 8, 9, 10, 11, 12, 13, 14, 15, 16, 17, 18, 19, 20, 21, 22, 23, 24, 25, 26, 28, 29]",300,134,-1,6,74,7,0.0
basic,59,1,0,0,0,14,"[0, 14]",2,19,"[1, 4, 5, 8, 9, 13, 15, 17, 18, 19, 20, 21, 22, 23, 24, 25, 26, 28, 29]",200.1901808,6205,6071,5,42,7,1.0
basic,59,1,0,0,0,17,"[0, 14, 17]",3,15,"[1, 4, 5, 8, 9, 13, 15, 18, 19, 20, 22, 23, 25, 28, 29]",147.8356204,7951,1746,5,27,7,1.0028844724416826
basic,59,1,0,0,0,1,"[0, 14, 17, 1]",4,12,"[4, 5, 8, 9, 15, 18, 20, 22, 23, 25, 28, 29]",123.4840291,9456,1505,5,15,7,1.0264985578353567
basic,59,1,0,0,0,28,"[0, 14, 17, 1, 28]",5,5,"[9, 15, 22, 23, 29]",88.59850198,10727,1271,5,3,7,1.0339861575999345
basic,59,1,0,0,0,23,"[0, 14, 17, 1, 28, 23]",6,2,"[15, 22]",51.70676849,12177,1450,2,0,7,1.0327458250705703
basic,59,1,0,0,1,15,"[0, 14, 17, 1, 28, 23, 15]",7,0,[],20.81987807,13676,1499,1,0,7,1.1948681641401226
basic,59,1,0,1,1,15,"[0, 14, 17, 1, 28, 23, 15]",7,0,[],20.81987807,14778,1102,1,0,7,1.1948681641401226
basic,60,5,0,0,0,0,[0],1,29,"[1, 2, 3, 4, 5, 6, 7, 8, 9, 10, 11, 12, 13, 14, 15, 16, 17, 18, 19, 20, 21, 22, 23, 24, 25, 26, 27, 28, 29]",300,150,-1,5,139,9,0.0
basic,60,5,0,0,0,12,"[0, 12]",2,22,"[2, 4, 5, 6, 8, 9, 10, 13, 14, 15, 16, 17, 18, 19, 21, 22, 23, 24, 25, 26, 27, 28]",228.3062067,5865,5715,1,27,9,1.0
basic,60,5,0,0,0,25,"[0, 12, 25]",3,21,"[2, 4, 5, 6, 8, 9, 10, 13, 14, 15, 16, 17, 18, 19, 21, 22, 23, 24, 26, 27, 28]",200.5213187,7303,1438,1,20,9,1.584023303445617
basic,60,5,0,0,0,23,"[0, 12, 25, 23]",4,19,"[2, 4, 5, 6, 8, 9, 10, 13, 14, 15, 16, 17, 18, 19, 21, 22, 24, 26, 27]",182.0822298,8441,1138,1,14,9,2.3508446989254357
basic,60,5,0,0,0,24,"[0, 12, 25, 23, 24]",5,15,"[2, 4, 5, 6, 8, 9, 13, 14, 15, 17, 18, 19, 22, 26, 27]",158.995437,9823,1382,1,12,9,1.9469752046288753
basic,60,5,0,0,0,17,"[0, 12, 25, 23, 24, 17]",6,7,"[4, 5, 6, 8, 15, 18, 19]",124.0097257,16346,6523,1,8,9,1.6482276497563642
basic,60,5,0,0,0,6,"[0, 12, 25, 23, 24, 17, 6]",7,1,[4],45.11739397,20924,4578,1,0,8,1.5262431498802396
basic,60,5,0,0,1,4,"[0, 12, 25, 23, 24, 17, 6, 4]",8,0,[],33.07579939,22719,1795,1,0,8,1.5232680323291379
basic,60,5,0,1,1,4,"[0, 12, 25, 23, 24, 17, 6, 4]",8,0,[],33.07579939,26112,3393,1,0,8,1.5232680323291379
basic,61,30,0,0,0,0,[0],1,19,"[3, 4, 5, 7, 9, 11, 16, 17, 18, 19, 20, 21, 22, 24, 25, 26, 27, 28, 29]",300,113,-1,5,41,8,0.0
basic,61,30,0,0,0,26,"[0, 26]",2,15,"[3, 5, 9, 11, 16, 17, 18, 19, 20, 21, 22, 25, 27, 28, 29]",208.2939479,7637,7524,5,27,6,1.0
basic,61,30,0,0,0,16,"[0, 26, 16]",3,9,"[3, 9, 11, 17, 20, 22, 25, 27, 28]",165.8439773,9000,1363,2,8,6,1.6640006669138325
basic,61,30,0,0,0,25,"[0, 26, 16, 25]",4,4,"[3, 9, 20, 27]",61.5511204,11011,2011,2,2,6,1.332865633800282
basic,61,30,0,0,0,20,"[0, 26, 16, 25, 20]",5,1,[27],39.6194082,12196,1185,1,0,6,1.3013500027270901
basic,61,30,0,0,1,27,"[0, 26, 16, 25, 20, 27]",6,0,[],5.560635472,14052,1856,1,0,6,1.4060833735760603
basic,61,30,0,1,1,27,"[0, 26, 16, 25, 20, 27]",6,0,[],5.560635472,15262,1210,1,0,6,1.4060833735760603
basic,62,41,0,0,0,0,[0],1,29,"[1, 2, 3, 4, 5, 6, 7, 8, 9, 10, 11, 12, 13, 14, 15, 16, 17, 18, 19, 20, 21, 22, 23, 24, 25, 26, 27, 28, 29]",300,110,-1,1,143,10,0.0
basic,62,41,0,0,0,21,"[0, 21]",2,28,"[1, 2, 3, 4, 5, 6, 7, 8, 9, 10, 11, 12, 13, 14, 15, 16, 17, 18, 19, 20, 22, 23, 24, 25, 26, 27, 28, 29]",251.1226024,4504,4394,50,469,8,1.0
basic,62,41,0,0,0,22,"[0, 21, 22]",3,24,"[1, 2, 3, 5, 6, 7, 8, 9, 10, 11, 12, 13, 14, 15, 16, 17, 18, 19, 20, 23, 24, 25, 27, 28]",200.1226024,6239,1735,5,62,8,1.4482591962803824
basic,62,41,0,0,0,3,"[0, 21, 22, 3]",4,17,"[1, 2, 5, 6, 9, 10, 12, 13, 14, 17, 18, 19, 20, 24, 25, 27, 28]",170.1559542,7387,1148,5,30,8,3.2769680943726964
basic,62,41,0,0,0,5,"[0, 21, 22, 3, 5]",5,9,"[2, 9, 10, 13, 17, 18, 20, 27, 28]",135.3278047,8842,1455,4,10,8,5.246892423760862
basic,62,41,0,0,0,28,"[0, 21, 22, 3, 5, 28]",6,5,"[9, 13, 17, 18, 20]",121.7263342,10038,1196,2,3,8,4.434723187651666
basic,62,41,0,0,0,13,"[0, 21, 22, 3, 5, 28, 13]",7,1,[20],87.24445489,16506,6468,1,0,8,5.09895879580275
basic,62,41,0,0,1,20,"[0, 21, 22, 3, 5, 28, 13, 20]",8,0,[],24.59463446,17962,1456,1,0,8,2.9252131924261637
basic,62,41,0,1,1,20,"[0, 21, 22, 3, 5, 28, 13, 20]",8,0,[],24.59463446,19192,1230,1,0,8,2.9252131924261637
basic,63,25,0,0,0,0,[0],1,28,"[1, 2, 3, 4, 5, 7, 8, 9, 10, 11, 12, 13, 14, 15, 16, 17, 18, 19, 20, 21, 22, 23, 24, 25, 26, 27, 28, 29]",300,115,-1,5,94,10,0.0
basic,63,25,0,0,0,23,"[0, 23]",2,23,"[1, 2, 3, 5, 7, 8, 9, 11, 12, 13, 14, 16, 17, 19, 20, 21, 22, 24, 25, 26, 27, 28, 29]",259.7756293,3902,3787,3,33,10,1.0
basic,63,25,0,0,0,19,"[0, 23, 19]",3,21,"[1, 2, 3, 5, 7, 8, 9, 11, 12, 13, 14, 16, 17, 20, 21, 22, 24, 25, 27, 28, 29]",223.9287326,6136,2234,3,24,10,1.583101227007039
basic,63,25,0,0,0,29,"[0, 23, 19, 29]",4,19,"[1, 2, 3, 5, 7, 8, 9, 11, 12, 13, 14, 16, 17, 20, 21, 22, 24, 25, 28]",207.649912,7127,991,3,17,10,1.474631541426484
basic,63,25,0,0,0,22,"[0, 23, 19, 29, 22]",5,18,"[1, 2, 3, 5, 7, 8, 9, 11, 12, 13, 14, 16, 17, 20, 21, 24, 25, 28]",191.5253965,8704,1577,3,14,10,1.4020377754906637
basic,63,25,0,0,0,7,"[0, 23, 19, 29, 22, 7]",6,7,"[3, 8, 9, 11, 13, 24, 28]",115.8814939,10354,1650,3,11,10,1.5709678649326715
basic,63,25,0,0,0,24,"[0, 23, 19, 29, 22, 7, 24]",7,5,"[3, 8, 9, 13, 28]",91.12265712,11729,1375,3,7,10,1.486191600033379
basic,63,25,0,0,0,9,"[0, 23, 19, 29, 22, 7, 24, 9]",8,4,"[3, 8, 13, 28]",73.09490075,13460,1731,3,3,10,1.453504870342882
basic,63,25,0,0,0,3,"[0, 23, 19, 29, 22, 7, 24, 9, 3]",9,3,"[8, 13, 28]",42.82940885,16295,2835,3,0,10,1.388955167525479
basic,63,25,0,0,1,28,"[0, 23, 19, 29, 22, 7, 24, 9, 3, 28]",10,0,[],11.52445716,19049,2754,1,0,10,1.3331084120212044
basic,63,25,0,1,1,28,"[0, 23, 19, 29, 22, 7, 24, 9, 3, 28]",10,0,[],11.52445716,20546,1497,1,0,10,1.3331084120212044
basic,64,2,0,0,0,0,[0],1,23,"[1, 2, 4, 5, 6, 7, 8, 9, 12, 13, 15, 16, 17, 18, 19, 20, 22, 23, 25, 26, 27, 28, 29]",300,102,-1,70,620,10,0.0
basic,64,2,0,0,0,19,"[0, 19]",2,22,"[1, 2, 4, 5, 6, 7, 8, 9, 12, 13, 15, 16, 17, 18, 20, 22, 23, 25, 26, 27, 28, 29]",210.306076,3726,3624,67,431,10,1.0
basic,64,2,0,0,0,12,"[0, 19, 12]",3,17,"[1, 4, 5, 6, 7, 13, 15, 16, 17, 18, 20, 22, 25, 26, 27, 28, 29]",174.2921898,5813,2087,66,298,10,1.1107635036313153
basic,64,2,0,0,0,5,"[0, 19, 12, 5]",4,11,"[1, 6, 7, 13, 15, 16, 18, 22, 25, 26, 29]",144.7625437,7304,1491,38,136,10,1.0968174771581647
basic,64,2,0,0,0,22,"[0, 19, 12, 5, 22]",5,8,"[1, 6, 7, 13, 15, 18, 26, 29]",131.9562952,9687,2383,20,63,10,1.0889910507461968
basic,64,2,0,0,0,13,"[0, 19, 12, 5, 22, 13]",6,7,"[1, 6, 7, 15, 18, 26, 29]",117.0902265,11477,1790,19,20,10,1.236526217328057
basic,64,2,0,0,0,18,"[0, 19, 12, 5, 22, 13, 18]",7,4,"[7, 15, 26, 29]",81.91921567,13824,2347,10,3,10,1.2128708213409936
basic,64,2,0,0,0,7,"[0, 19, 12, 5, 22, 13, 18, 7]",8,3,"[15, 26, 29]",71.62358553,16778,2954,5,0,10,1.2019811287894737
basic,64,2,0,0,0,26,"[0, 19, 12, 5, 22, 13, 18, 7, 26]",9,2,"[15, 29]",48.82007703,19917,3139,2,0,10,1.1883593342191134
basic,64,2,0,0,1,29,"[0, 19, 12, 5, 22, 13, 18, 7, 26, 29]",10,0,[],2.430423009,22712,2795,1,0,10,1.6209647743615985
basic,64,2,0,1,1,29,"[0, 19, 12, 5, 22, 13, 18, 7, 26, 29]",10,0,[],2.430423009,25362,2650,1,0,10,1.6209647743615985
basic,65,39,0,0,0,0,[0],1,28,"[1, 2, 3, 4, 5, 6, 7, 9, 10, 11, 12, 13, 14, 15, 16, 17, 18, 19, 20, 21, 22, 23, 24, 25, 26, 27, 28, 29]",300,128,-1,1,30,10,0.0
basic,65,39,0,0,0,14,"[0, 14]",2,26,"[1, 2, 3, 4, 5, 6, 7, 9, 10, 12, 13, 15, 16, 17, 18, 19, 20, 21, 22, 23, 24, 25, 26, 27, 28, 29]",286.9615952,4368,4240,1,22,10,1.0
basic,65,39,0,0,0,29,"[0, 14, 29]",3,23,"[1, 2, 3, 4, 5, 6, 7, 9, 10, 12, 13, 15, 16, 17, 18, 19, 21, 22, 23, 24, 25, 26, 28]",218.9321898,6850,2482,1,21,10,1.4237768813412561
basic,65,39,0,0,0,12,"[0, 14, 29, 12]",4,16,"[1, 2, 4, 5, 7, 9, 10, 13, 15, 16, 18, 19, 22, 23, 24, 26]",158.3929463,8492,1642,1,11,10,1.2085522586932163
basic,65,39,0,0,0,10,"[0, 14, 29, 12, 10]",5,11,"[1, 4, 5, 7, 15, 16, 18, 19, 22, 23, 26]",122.8823845,9806,1314,1,8,10,1.4905426536315662
basic,65,39,0,0,0,7,"[0, 14, 29, 12, 10, 7]",6,6,"[1, 16, 18, 19, 22, 26]",89.46083457,11010,1204,1,6,10,1.3836596018032035
basic,65,39,0,0,0,26,"[0, 14, 29, 12, 10, 7, 26]",7,3,"[16, 19, 22]",70.77929288,12266,1256,1,4,10,1.4191124441944845
basic,65,39,0,0,0,22,"[0, 14, 29, 12, 10, 7, 26, 22]",8,2,"[16, 19]",53.05924773,13427,1161,1,1,10,1.594793297833885
basic,65,39,0,0,0,16,"[0, 14, 29, 12, 10, 7, 26, 22, 16]",9,1,[19],18.05924773,14815,1388,1,0,10,1.48519520801471
basic,65,39,0,0,1,19,"[0, 14, 29, 12, 10, 7, 26, 22, 16, 19]",10,0,[],0.594998533,16371,1556,1,0,10,1.484277847976571
basic,65,39,0,1,1,19,"[0, 14, 29, 12, 10, 7, 26, 22, 16, 19]",10,0,[],0.594998533,17627,1256,1,0,10,1.484277847976571
basic,66,8,0,0,0,0,[0],1,29,"[1, 2, 3, 4, 5, 6, 7, 8, 9, 10, 11, 12, 13, 14, 15, 16, 17, 18, 19, 20, 21, 22, 23, 24, 25, 26, 27, 28, 29]",300,147,-1,10,149,9,0.0
basic,66,8,0,0,0,5,"[0, 5]",2,28,"[1, 2, 3, 4, 6, 7, 8, 9, 10, 11, 12, 13, 14, 15, 16, 17, 18, 19, 20, 21, 22, 23, 24, 25, 26, 27, 28, 29]",254.5137383,6323,6176,10,100,9,1.0
basic,66,8,0,0,0,25,"[0, 5, 25]",3,20,"[1, 2, 3, 4, 6, 11, 12, 14, 15, 16, 17, 18, 19, 20, 21, 22, 23, 24, 28, 29]",215.3091468,7736,1413,4,42,9,1.2272747879909065
basic,66,8,0,0,0,1,"[0, 5, 25, 1]",4,17,"[3, 4, 6, 11, 12, 14, 15, 16, 17, 18, 20, 21, 22, 23, 24, 28, 29]",190.3091468,13537,5801,3,24,9,1.1770245007593956
basic,66,8,0,0,0,14,"[0, 5, 25, 1, 14]",5,12,"[4, 6, 11, 15, 16, 17, 18, 20, 22, 23, 24, 28]",134.2288472,14705,1168,2,7,9,1.9402045895737055
basic,66,8,0,0,0,17,"[0, 5, 25, 1, 14, 17]",6,6,"[11, 15, 16, 18, 24, 28]",97.21533615,16269,1564,2,5,9,1.8565852053453542
basic,66,8,0,0,0,11,"[0, 5, 25, 1, 14, 17, 11]",7,4,"[15, 16, 24, 28]",72.03597953,17370,1101,2,2,9,1.7412490760199053
basic,66,8,0,0,0,24,"[0, 5, 25, 1, 14, 17, 11, 24]",8,1,[15],34.8203914,18500,1130,1,0,9,1.6105839855620734
basic,66,8,0,0,1,15,"[0, 5, 25, 1, 14, 17, 11, 24, 15]",9,0,[],18.05733678,19751,1251,1,0,9,1.671962547892534
basic,66,8,0,1,1,15,"[0, 5, 25, 1, 14, 17, 11, 24, 15]",9,0,[],18.05733678,20912,1161,1,0,9,1.671962547892534
basic,67,0,0,0,0,0,[0],1,27,"[2, 3, 4, 5, 6, 7, 8, 9, 10, 11, 12, 13, 14, 15, 16, 17, 19, 20, 21, 22, 23, 24, 25, 26, 27, 28, 29]",300,106,-1,104,1136,9,0.0
basic,67,0,0,0,0,28,"[0, 28]",2,26,"[2, 3, 4, 5, 6, 7, 8, 9, 10, 11, 12, 13, 14, 15, 16, 17, 19, 20, 21, 22, 23, 24, 25, 26, 27, 29]",194.9190788,6687,6581,39,388,9,1.0
basic,67,0,0,0,0,5,"[0, 28, 5]",3,21,"[2, 3, 4, 7, 8, 9, 11, 12, 13, 14, 15, 16, 17, 19, 20, 21, 23, 24, 25, 26, 29]",151.2613189,8104,1417,27,210,9,1.0978295127671733
basic,67,0,0,0,0,4,"[0, 28, 5, 4]",4,16,"[3, 7, 8, 9, 11, 12, 13, 14, 15, 17, 19, 20, 21, 23, 24, 26]",126.1814465,9243,1139,17,114,9,1.1103727063761901
basic,67,0,0,0,0,26,"[0, 28, 5, 4, 26]",5,14,"[3, 7, 8, 9, 11, 12, 13, 14, 15, 17, 19, 20, 23, 24]",114.1398519,10263,1020,7,54,9,1.1504454351688815
basic,67,0,0,0,0,24,"[0, 28, 5, 4, 26, 24]",6,11,"[3, 7, 8, 9, 11, 12, 15, 17, 19, 20, 23]",97.02260914,11299,1036,7,22,9,1.2166555899566422
basic,67,0,0,0,0,15,"[0, 28, 5, 4, 26, 24, 15]",7,7,"[3, 7, 8, 9, 11, 12, 17]",73.67737408,13367,2068,4,5,9,1.1972898774231708
basic,67,0,0,0,0,7,"[0, 28, 5, 4, 26, 24, 15, 7]",8,2,"[3, 8]",42.61292495,14930,1563,2,0,9,1.2554869594545575
basic,67,0,0,0,1,8,"[0, 28, 5, 4, 26, 24, 15, 7, 8]",9,0,[],23.50795177,16194,1264,1,0,9,1.2428648875079442
basic,67,0,0,1,1,8,"[0, 28, 5, 4, 26, 24, 15, 7, 8]",9,0,[],23.50795177,17756,1562,1,0,9,1.2428648875079442
basic,68,32,0,0,0,0,[0],1,29,"[1, 2, 3, 4, 5, 6, 7, 8, 9, 10, 11, 12, 13, 14, 15, 16, 17, 18, 19, 20, 21, 22, 23, 24, 25, 26, 27, 28, 29]",300,113,-1,17,359,10,0.0
basic,68,32,0,0,0,15,"[0, 15]",2,24,"[2, 3, 4, 5, 6, 7, 8, 9, 10, 11, 12, 13, 14, 16, 17, 19, 20, 22, 23, 24, 25, 26, 27, 28]",214.6185032,3199,3086,11,153,9,1.0
basic,68,32,0,0,0,28,"[0, 15, 28]",3,21,"[2, 3, 5, 7, 8, 9, 10, 11, 12, 13, 14, 16, 17, 19, 20, 22, 23, 24, 25, 26, 27]",203.2167489,4127,928,11,119,9,1.000160051986942
basic,68,32,0,0,0,12,"[0, 15, 28, 12]",4,19,"[2, 3, 5, 7, 8, 9, 10, 11, 13, 16, 17, 19, 20, 22, 23, 24, 25, 26, 27]",184.243083,5106,979,8,71,9,1.0281484763748023
basic,68,32,0,0,0,16,"[0, 15, 28, 12, 16]",5,17,"[2, 3, 5, 7, 8, 9, 10, 11, 13, 17, 19, 20, 22, 23, 24, 26, 27]",168.5906071,6502,1396,6,38,9,1.1190771370096
basic,68,32,0,0,0,22,"[0, 15, 28, 12, 16, 22]",6,10,"[2, 3, 5, 8, 9, 10, 11, 17, 20, 27]",134.7527585,8067,1565,4,16,9,1.1702311155319893
basic,68,32,0,0,0,9,"[0, 15, 28, 12, 16, 22, 9]",7,6,"[2, 8, 10, 17, 20, 27]",112.5491552,9719,1652,2,4,9,1.2381424719932013
basic,68,32,0,0,0,2,"[0, 15, 28, 12, 16, 22, 9, 2]",8,1,[17],61.46099608,11951,2232,1,0,9,1.6446273109221003
basic,68,32,0,0,1,17,"[0, 15, 28, 12, 16, 22, 9, 2, 17]",9,0,[],21.64893761,13999,2048,1,0,9,2.46318728800517
basic,68,32,0,1,1,17,"[0, 15, 28, 12, 16, 22, 9, 2, 17]",9,0,[],21.64893761,15245,1246,1,0,9,2.46318728800517
undo,69,21,0,0,0,0,[0],1,29,"[1, 2, 3, 4, 5, 6, 7, 8, 9, 10, 11, 12, 13, 14, 15, 16, 17, 18, 19, 20, 21, 22, 23, 24, 25, 26, 27, 28, 29]",300,115,-1,84,830,9,0.0
undo,69,21,0,0,0,18,"[0, 18]",2,28,"[1, 2, 3, 4, 5, 6, 7, 8, 9, 10, 11, 12, 13, 14, 15, 16, 17, 19, 20, 21, 22, 23, 24, 25, 26, 27, 28, 29]",240.923778,2642,2527,44,305,9,1.0
undo,69,21,0,0,0,29,"[0, 18, 29]",3,24,"[1, 2, 3, 4, 6, 7, 8, 9, 10, 11, 12, 13, 14, 15, 16, 17, 20, 21, 22, 23, 24, 25, 26, 27]",212.2706805,3943,1301,11,87,9,1.035555280387994
undo,69,21,0,0,0,25,"[0, 18, 29, 25]",4,18,"[1, 4, 6, 8, 9, 10, 11, 12, 14, 15, 16, 17, 20, 21, 22, 23, 24, 26]",167.0490043,7088,3145,6,45,9,2.2226517719335437
undo,69,21,0,0,0,23,"[0, 18, 29, 25, 23]",5,10,"[4, 8, 14, 15, 16, 17, 20, 21, 22, 24]",123.7246462,8491,1403,3,20,9,1.7801958981326236
undo,69,21,0,0,0,21,"[0, 18, 29, 25, 23, 21]",6,3,"[4, 14, 16]",94.11046043,10969,2478,1,3,9,2.290491065218303
undo,69,21,0,0,0,14,"[0, 18, 29, 25, 23, 21, 14]",7,2,"[4, 16]",68.49796348,12242,1273,1,1,9,2.021100447974041
undo,69,21,0,0,0,4,"[0, 18, 29, 25, 23, 21, 14, 4]",8,1,[16],54.35582786,14011,1769,1,0,9,1.9205022281831265
undo,69,21,0,0,1,16,"[0, 18, 29, 25, 23, 21, 14, 4, 16]",9,0,[],9.757621617,15985,1974,1,0,9,1.7782202964615115
undo,69,21,0,1,1,16,"[0, 18, 29, 25, 23, 21, 14, 4, 16]",9,0,[],9.757621617,17799,1814,1,0,9,1.7782202964615115
undo,70,32,0,0,0,0,[0],1,29,"[1, 2, 3, 4, 5, 6, 7, 8, 9, 10, 11, 12, 13, 14, 15, 16, 17, 18, 19, 20, 21, 22, 23, 24, 25, 26, 27, 28, 29]",300,117,-1,17,359,10,0.0
undo,70,32,0,0,0,19,"[0, 19]",2,28,"[1, 2, 3, 4, 5, 6, 7, 8, 9, 10, 11, 12, 13, 14, 15, 16, 17, 18, 20, 21, 22, 23, 24, 25, 26, 27, 28, 29]",283.5075775,2888,2771,16,294,10,1.0
undo,70,32,0,0,0,13,"[0, 19, 13]",3,24,"[2, 3, 4, 5, 6, 8, 9, 10, 11, 12, 14, 15, 16, 17, 18, 20, 21, 22, 23, 24, 25, 26, 27, 28]",260.3127505,4778,1890,14,227,10,1.0172874229878615
undo,70,32,0,0,0,15,"[0, 19, 13, 15]",4,18,"[2, 3, 5, 8, 9, 10, 11, 12, 16, 17, 20, 22, 23, 24, 25, 26, 27, 28]",177.4393531,6078,1300,9,116,10,1.435447391509833
undo,70,32,0,0,0,28,"[0, 19, 13, 15, 28]",5,17,"[2, 3, 5, 8, 9, 10, 11, 12, 16, 17, 20, 22, 23, 24, 25, 26, 27]",166.0375988,6981,903,9,70,10,1.3843701324937985
undo,70,32,0,0,0,12,"[0, 19, 13, 15, 28, 12]",6,14,"[2, 3, 5, 8, 9, 10, 11, 16, 17, 20, 22, 24, 26, 27]",147.0639329,8390,1409,6,35,10,1.358372254952329
undo,70,32,0,0,0,16,"[0, 19, 13, 15, 28, 12, 16]",7,13,"[2, 3, 5, 8, 9, 10, 11, 17, 20, 22, 24, 26, 27]",131.411457,9435,1045,5,15,10,1.4356932930709845
undo,70,32,0,0,0,22,"[0, 19, 13, 15, 28, 12, 16, 22]",8,6,"[2, 8, 9, 17, 20, 27]",97.57360838,11842,2407,3,5,10,1.4335226411545752
undo,70,32,0,0,0,9,"[0, 19, 13, 15, 28, 12, 16, 22, 9]",9,3,"[2, 8, 20]",75.37000507,13675,1833,3,0,10,1.4837166378374758
undo,70,32,0,0,1,2,"[0, 19, 13, 15, 28, 12, 16, 22, 9, 2]",10,0,[],24.28184597,16851,3176,1,0,10,1.9009621017233784
undo,70,32,0,1,1,2,"[0, 19, 13, 15, 28, 12, 16, 22, 9, 2]",10,0,[],24.28184597,19014,2163,1,0,10,1.9009621017233784
undo,71,43,0,0,0,0,[0],1,23,"[1, 2, 3, 4, 5, 6, 7, 9, 10, 11, 12, 14, 15, 16, 17, 19, 20, 21, 22, 23, 25, 27, 29]",300,168,-1,16,556,12,0.0
undo,71,43,0,0,0,29,"[0, 29]",2,22,"[1, 2, 3, 4, 5, 6, 7, 9, 10, 11, 12, 14, 15, 16, 17, 19, 20, 21, 22, 23, 25, 27]",277.909278,3780,3612,16,520,12,1.0
undo,71,43,0,0,0,20,"[0, 29, 20]",3,20,"[1, 2, 3, 4, 6, 7, 9, 10, 11, 12, 14, 15, 16, 17, 19, 21, 22, 23, 25, 27]",254.4785289,15359,11579,15,422,12,1.082311746871282
undo,71,43,0,0,0,16,"[0, 29, 20, 16]",4,19,"[1, 2, 3, 4, 6, 7, 9, 10, 11, 12, 14, 15, 17, 19, 21, 22, 23, 25, 27]",231.8511119,16687,1328,15,389,12,1.215201926898219
undo,71,43,0,0,0,15,"[0, 29, 20, 16, 15]",5,14,"[1, 2, 3, 4, 6, 7, 9, 11, 12, 14, 19, 22, 23, 25]",188.5267539,18602,1915,3,109,12,1.3482474915350444
undo,71,43,0,0,0,25,"[0, 29, 20, 16, 15, 25]",6,12,"[1, 3, 4, 6, 7, 9, 11, 12, 14, 19, 22, 23]",165.8551858,19910,1308,2,43,12,1.691408721191545
undo,71,43,0,0,0,12,"[0, 29, 20, 16, 15, 25, 12]",7,11,"[1, 3, 4, 6, 7, 9, 11, 14, 19, 22, 23]",141.6684126,21244,1334,2,32,12,1.6015983641428178
undo,71,43,0,0,0,3,"[0, 29, 20, 16, 15, 25, 12, 3]",8,10,"[1, 4, 6, 7, 9, 11, 14, 19, 22, 23]",128.6684126,22352,1108,2,24,12,1.5379830456120627
undo,71,43,0,0,0,22,"[0, 29, 20, 16, 15, 25, 12, 3, 22]",9,6,"[1, 6, 7, 11, 14, 19]",93.95530264,24175,1823,1,11,12,1.7275686117408873
undo,71,43,0,0,0,11,"[0, 29, 20, 16, 15, 25, 12, 3, 22, 11]",10,2,"[6, 14]",47.89013141,27411,3236,2,0,11,2.7704381163736262
undo,71,43,0,0,1,6,"[0, 29, 20, 16, 15, 25, 12, 3, 22, 11, 6]",11,0,[],27.27460328,28637,1226,1,0,11,2.472790800955036
undo,71,43,1,0,0,11,"[0, 29, 20, 16, 15, 25, 12, 3, 22, 11]",10,2,"[6, 14]",47.89013141,31679,3042,2,0,11,2.7704381163736262
undo,71,43,1,0,0,22,"[0, 29, 20, 16, 15, 25, 12, 3, 22]",9,6,"[1, 6, 7, 11, 14, 19]",93.95530264,33262,1583,1,11,12,1.7275686117408873
undo,71,43,0,0,0,19,"[0, 29, 20, 16, 15, 25, 12, 3, 22, 19]",10,4,"[1, 6, 7, 11]",73.33977451,34689,1427,1,3,12,1.6315360037595275
undo,71,43,0,0,0,1,"[0, 29, 20, 16, 15, 25, 12, 3, 22, 19, 1]",11,1,[7],45.1617689,36833,2144,1,0,12,1.7703076545303877
undo,71,43,0,0,1,7,"[0, 29, 20, 16, 15, 25, 12, 3, 22, 19, 1, 7]",12,0,[],6.951822553,38514,1681,1,0,12,1.6607094905815594
undo,71,43,0,1,1,7,"[0, 29, 20, 16, 15, 25, 12, 3, 22, 19, 1, 7]",12,0,[],6.951822553,40864,2350,1,0,12,1.6607094905815594
undo,72,20,0,0,0,0,[0],1,21,"[1, 2, 3, 4, 5, 6, 7, 8, 9, 12, 17, 18, 20, 21, 22, 23, 25, 26, 27, 28, 29]",300,113,-1,1,9,9,0.0
undo,72,20,0,0,0,12,"[0, 12]",2,20,"[1, 2, 3, 4, 5, 6, 7, 8, 9, 17, 18, 20, 21, 22, 23, 25, 26, 27, 28, 29]",271.5570747,25322,25209,1,8,9,1.0
undo,72,20,0,0,0,1,"[0, 12, 1]",3,12,"[3, 4, 5, 6, 8, 9, 20, 21, 23, 27, 28, 29]",189.5692707,27807,2485,1,6,9,1.0757997779162911
undo,72,20,0,0,0,5,"[0, 12, 1, 5]",4,10,"[4, 6, 8, 9, 20, 21, 23, 27, 28, 29]",152.8950291,29122,1315,1,5,9,1.1708231454516806
undo,72,20,0,0,0,21,"[0, 12, 1, 5, 21]",5,8,"[4, 6, 8, 9, 20, 23, 27, 28]",107.8950291,30517,1395,1,4,9,1.126197336199212
undo,72,20,0,0,0,28,"[0, 12, 1, 5, 21, 28]",6,2,"[8, 23]",71.64589116,32006,1489,2,0,7,1.18978010717367
undo,72,20,0,0,1,8,"[0, 12, 1, 5, 21, 28, 8]",7,0,[],28.4602454,34507,2501,1,0,7,1.4771126631037113
undo,72,20,1,0,0,28,"[0, 12, 1, 5, 21, 28]",6,2,"[8, 23]",71.64589116,37243,2736,2,0,7,1.18978010717367
undo,72,20,1,0,0,21,"[0, 12, 1, 5, 21]",5,8,"[4, 6, 8, 9, 20, 23, 27, 28]",107.8950291,37793,550,1,4,9,1.126197336199212
undo,72,20,0,0,0,8,"[0, 12, 1, 5, 21, 8]",6,5,"[6, 9, 23, 27, 28]",90.43077988,40627,2834,1,3,9,1.140007470699913
undo,72,20,0,0,0,23,"[0, 12, 1, 5, 21, 8, 23]",7,2,"[6, 9]",45.74297394,43459,2832,1,1,9,1.1162257896627588
undo,72,20,0,0,0,9,"[0, 12, 1, 5, 21, 8, 23, 9]",8,1,[6],26.53360123,45466,2007,1,0,9,1.1086880559449597
undo,72,20,0,0,1,6,"[0, 12, 1, 5, 21, 8, 23, 9, 6]",9,0,[],3.511872362,47099,1633,1,0,9,1.1186240265999328
undo,72,20,0,1,1,6,"[0, 12, 1, 5, 21, 8, 23, 9, 6]",9,0,[],3.511872362,49626,2527,1,0,9,1.1186240265999328
undo,73,34,0,0,0,0,[0],1,25,"[1, 3, 4, 5, 6, 7, 8, 9, 10, 11, 12, 13, 15, 18, 19, 20, 21, 22, 23, 24, 25, 26, 27, 28, 29]",300,132,-1,12,367,10,0.0
undo,73,34,0,0,0,13,"[0, 13]",2,24,"[1, 3, 4, 5, 6, 7, 8, 9, 10, 11, 12, 15, 18, 19, 20, 21, 22, 23, 24, 25, 26, 27, 28, 29]",279.9750156,6748,6616,12,331,10,1.0
undo,73,34,0,0,0,1,"[0, 13, 1]",3,16,"[3, 5, 7, 8, 9, 10, 11, 12, 19, 21, 22, 23, 24, 25, 27, 29]",211.8574701,8226,1478,3,92,10,1.0010381285747127
undo,73,34,0,0,0,8,"[0, 13, 1, 8]",4,14,"[3, 5, 7, 9, 10, 11, 12, 19, 22, 23, 24, 25, 27, 29]",201.0871405,9157,931,2,54,10,1.1636807
undo,73,34,0,0,0,25,"[0, 13, 1, 8, 25]",5,12,"[3, 5, 7, 9, 10, 11, 12, 22, 23, 24, 27, 29]",183.999133,10700,1543,2,28,10,1.1396208815936457
undo,73,34,0,0,0,24,"[0, 13, 1, 8, 25, 24]",6,11,"[3, 5, 7, 9, 10, 11, 12, 22, 23, 27, 29]",166.5062774,11767,1067,2,23,10,1.374180768736554
undo,73,34,0,0,0,12,"[0, 13, 1, 8, 25, 24, 12]",7,7,"[7, 9, 10, 11, 22, 23, 27]",115.4670767,15099,3332,1,8,10,1.4994254760835948
undo,73,34,0,0,0,7,"[0, 13, 1, 8, 25, 24, 12, 7]",8,5,"[9, 11, 22, 23, 27]",100.4337804,16584,1485,1,4,10,1.758992610425009
undo,73,34,0,0,0,23,"[0, 13, 1, 8, 25, 24, 12, 7, 23]",9,1,[27],72.27352467,17904,1320,1,0,10,2.399781305190153
undo,73,34,0,0,1,27,"[0, 13, 1, 8, 25, 24, 12, 7, 23, 27]",10,0,[],18.60789321,19565,1661,1,0,10,4.766619878750327
undo,73,34,0,1,1,27,"[0, 13, 1, 8, 25, 24, 12, 7, 23, 27]",10,0,[],18.60789321,21192,1627,1,0,10,4.766619878750327
undo,74,19,0,0,0,0,[0],1,29,"[1, 2, 3, 4, 5, 6, 7, 8, 9, 10, 11, 12, 13, 14, 15, 16, 17, 18, 19, 20, 21, 22, 23, 24, 25, 26, 27, 28, 29]",300,96,-1,12,149,8,0.0
undo,74,19,0,0,0,16,"[0, 16]",2,13,"[1, 2, 3, 5, 8, 12, 13, 15, 17, 19, 23, 25, 29]",194.2408396,4157,4061,1,26,7,1.0
undo,74,19,0,0,0,12,"[0, 16, 12]",3,10,"[1, 2, 3, 8, 13, 17, 19, 23, 25, 29]",126.5651424,5552,1395,1,12,7,1.450081650625254
undo,74,19,0,0,0,25,"[0, 16, 12, 25]",4,8,"[1, 2, 3, 8, 13, 17, 19, 23]",109.4478996,6404,852,7,5,6,1.397346049588307
undo,74,19,0,0,0,17,"[0, 16, 12, 25, 17]",5,4,"[1, 2, 3, 23]",98.40253859,7184,780,4,0,6,1.454525624255785
undo,74,19,1,0,0,25,"[0, 16, 12, 25]",4,8,"[1, 2, 3, 8, 13, 17, 19, 23]",109.4478996,13080,5896,7,5,6,1.397346049588307
undo,74,19,1,0,0,12,"[0, 16, 12]",3,10,"[1, 2, 3, 8, 13, 17, 19, 23, 25, 29]",126.5651424,13479,399,1,12,7,1.450081650625254
undo,74,19,1,0,0,16,"[0, 16]",2,13,"[1, 2, 3, 5, 8, 12, 13, 15, 17, 19, 23, 25, 29]",194.2408396,13845,366,1,26,7,1.0
undo,74,19,1,0,0,0,[0],1,29,"[1, 2, 3, 4, 5, 6, 7, 8, 9, 10, 11, 12, 13, 14, 15, 16, 17, 18, 19, 20, 21, 22, 23, 24, 25, 26, 27, 28, 29]",300,14695,850,12,149,8,0.0
undo,74,19,0,0,0,9,"[0, 9]",2,21,"[1, 4, 5, 6, 7, 10, 11, 12, 13, 14, 15, 19, 20, 21, 22, 23, 24, 25, 27, 28, 29]",185.9956141,17886,3191,13,76,7,1.0
undo,74,19,0,0,0,6,"[0, 9, 6]",3,13,"[4, 7, 10, 11, 13, 14, 20, 21, 22, 24, 27, 28, 29]",144.5589154,19750,1864,13,38,7,1.0111071984935167
undo,74,19,0,0,0,28,"[0, 9, 6, 28]",4,5,"[4, 11, 14, 22, 27]",93.47075631,22083,2333,2,4,7,1.2602621425624105
undo,74,19,0,0,0,4,"[0, 9, 6, 28, 4]",5,4,"[11, 14, 22, 27]",82.29041642,23135,1052,2,2,7,1.3210056324457753
undo,74,19,0,0,0,14,"[0, 9, 6, 28, 4, 14]",6,1,[11],32.28041742,24851,1716,1,0,7,1.2802078016419174
undo,74,19,0,0,1,11,"[0, 9, 6, 28, 4, 14, 11]",7,0,[],21.4637636,27054,2203,1,0,7,1.2703725192277202
undo,74,19,0,1,1,11,"[0, 9, 6, 28, 4, 14, 11]",7,0,[],21.4637636,28844,1790,1,0,7,1.2703725192277202
undo,75,29,0,0,0,0,[0],1,29,"[1, 2, 3, 4, 5, 6, 7, 8, 9, 10, 11, 12, 13, 14, 15, 16, 17, 18, 19, 20, 21, 22, 23, 24, 25, 26, 27, 28, 29]",300,135,-1,1,78,9,0.0
undo,75,29,0,0,0,6,"[0, 6]",2,28,"[1, 2, 3, 4, 5, 7, 8, 9, 10, 11, 12, 13, 14, 15, 16, 17, 18, 19, 20, 21, 22, 23, 24, 25, 26, 27, 28, 29]",228.4108947,3637,3502,1,25,9,1.0
undo,75,29,0,0,0,28,"[0, 6, 28]",3,24,"[1, 3, 4, 5, 7, 9, 10, 11, 12, 13, 14, 15, 16, 17, 18, 20, 21, 22, 23, 24, 25, 26, 27, 29]",187.1798384,4934,1297,1,22,9,1.162106788166845
undo,75,29,0,0,0,27,"[0, 6, 28, 27]",4,19,"[1, 3, 4, 5, 7, 9, 10, 11, 12, 13, 14, 15, 16, 21, 22, 23, 25, 26, 29]",166.6615539,6273,1339,1,21,9,1.2307173895439045
undo,75,29,0,0,0,22,"[0, 6, 28, 27, 22]",5,13,"[1, 3, 4, 5, 7, 9, 12, 13, 14, 15, 21, 26, 29]",133.4200136,8145,1872,1,19,9,1.4241767805149903
undo,75,29,0,0,0,12,"[0, 6, 28, 27, 22, 12]",6,8,"[4, 5, 7, 9, 13, 14, 21, 26]",95.4726817,9538,1393,1,6,9,1.3248355326460857
undo,75,29,0,0,0,7,"[0, 6, 28, 27, 22, 12, 7]",7,4,"[4, 5, 9, 21]",81.87121119,10628,1090,1,3,9,1.3264091962339806
undo,75,29,0,0,0,9,"[0, 6, 28, 27, 22, 12, 7, 9]",8,1,[4],52.80232748,11960,1332,1,0,9,1.309391257644539
undo,75,29,0,0,1,4,"[0, 6, 28, 27, 22, 12, 7, 9, 4]",9,0,[],11.76575843,13767,1807,1,0,9,1.6396807789841599
undo,75,29,0,1,1,4,"[0, 6, 28, 27, 22, 12, 7, 9, 4]",9,0,[],11.76575843,15297,1530,1,0,9,1.6396807789841599
undo,76,0,0,0,0,0,[0],1,27,"[2, 3, 4, 5, 6, 7, 8, 9, 10, 11, 12, 13, 14, 15, 16, 17, 19, 20, 21, 22, 23, 24, 25, 26, 27, 28, 29]",300,118,-1,104,1136,9,0.0
undo,76,0,0,0,0,21,"[0, 21]",2,24,"[3, 4, 5, 6, 7, 8, 9, 10, 11, 12, 13, 14, 15, 16, 17, 19, 20, 22, 23, 24, 26, 27, 28, 29]",228.2156006,2476,2358,24,249,9,1.0
undo,76,0,0,0,0,28,"[0, 21, 28]",3,21,"[3, 4, 5, 6, 7, 8, 9, 11, 12, 13, 14, 15, 16, 17, 19, 20, 23, 24, 26, 27, 29]",166.6282642,3776,1300,24,214,9,1.269228840767463
undo,76,0,0,0,0,5,"[0, 21, 28, 5]",4,16,"[3, 4, 7, 8, 9, 11, 12, 14, 15, 17, 19, 20, 23, 24, 26, 29]",122.9705043,5019,1243,17,100,9,1.3066419815776449
undo,76,0,0,0,0,4,"[0, 21, 28, 5, 4]",5,13,"[3, 7, 8, 9, 11, 12, 15, 17, 19, 20, 23, 24, 26]",97.89063191,6456,1437,12,40,9,1.2910976504592468
undo,76,0,0,0,0,24,"[0, 21, 28, 5, 4, 24]",6,9,"[3, 7, 8, 9, 11, 12, 15, 17, 26]",86.48887766,7497,1041,7,14,9,1.2797952491765392
undo,76,0,0,0,0,26,"[0, 21, 28, 5, 4, 24, 26]",7,6,"[3, 7, 8, 12, 15, 17]",69.37163489,9036,1539,4,3,9,1.427553741744068
undo,76,0,0,0,0,7,"[0, 21, 28, 5, 4, 24, 26, 7]",8,2,"[3, 8]",25.90900726,14969,5933,2,0,9,1.3369656072363987
undo,76,0,0,0,1,8,"[0, 21, 28, 5, 4, 24, 26, 7, 8]",9,0,[],6.804034088,16135,1166,1,0,9,1.3179509990387577
undo,76,0,0,1,1,8,"[0, 21, 28, 5, 4, 24, 26, 7, 8]",9,0,[],6.804034088,17381,1246,1,0,9,1.3179509990387577
undo,77,33,0,0,0,0,[0],1,23,"[1, 2, 5, 7, 8, 11, 12, 13, 14, 15, 16, 17, 18, 19, 20, 21, 23, 24, 25, 26, 27, 28, 29]",300,117,-1,5,108,9,0.0
undo,77,33,0,0,0,8,"[0, 8]",2,22,"[1, 2, 5, 7, 11, 12, 13, 14, 15, 16, 17, 18, 19, 20, 21, 23, 24, 25, 26, 27, 28, 29]",265.8679037,2702,2585,5,87,9,1.0
