condition,trial_id,map_id,undoIndicator,submit,checkEnd,currentChoice,chosen_all,n_city_all,n_within_reach,cities_reach,currentBudget,time_all,rt_all,n_opt_paths_all,n_subopt_paths_all,mas_all,tortuosity_all
undo,0,21,0,0,0,0,[0],1,29,"[1, 2, 3, 4, 5, 6, 7, 8, 9, 10, 11, 12, 13, 14, 15, 16, 17, 18, 19, 20, 21, 22, 23, 24, 25, 26, 27, 28, 29]",300,181,-1,84,830,9,0.0
undo,0,21,0,0,0,25,"[0, 25]",2,26,"[1, 2, 3, 4, 5, 6, 7, 8, 9, 10, 11, 12, 13, 14, 15, 16, 17, 18, 20, 21, 22, 23, 24, 26, 27, 29]",240.1836143,9221,9040,30,238,9,1.0
undo,0,21,0,0,0,23,"[0, 25, 23]",3,21,"[1, 2, 4, 6, 7, 8, 9, 10, 11, 12, 14, 15, 16, 17, 18, 20, 21, 22, 24, 27, 29]",196.8592562,10147,926,14,80,9,1.0416131642057598
undo,0,21,0,0,0,21,"[0, 25, 23, 21]",4,14,"[1, 4, 6, 8, 9, 14, 15, 16, 17, 18, 20, 22, 24, 29]",167.2450705,11032,885,10,25,9,1.4768792067751173
undo,0,21,0,0,0,14,"[0, 25, 23, 21, 14]",5,10,"[4, 8, 9, 15, 16, 17, 18, 22, 24, 29]",141.6325735,11951,919,8,13,9,1.3826076066332742
undo,0,21,0,0,0,4,"[0, 25, 23, 21, 14, 4]",6,7,"[8, 15, 16, 17, 18, 24, 29]",127.4904379,12947,996,8,3,9,1.3487191473328533
undo,0,21,0,0,0,16,"[0, 25, 23, 21, 14, 4, 16]",7,3,"[8, 15, 24]",82.89223163,13967,1020,4,1,9,1.3301484172843694
undo,0,21,0,0,0,8,"[0, 25, 23, 21, 14, 4, 16, 8]",8,2,"[15, 24]",64.2911564,14902,935,2,0,9,1.3009886562393016
undo,0,21,0,0,1,15,"[0, 25, 23, 21, 14, 4, 16, 8, 15]",9,0,[],39.2911564,15899,997,1,0,9,1.5486591410600183
undo,0,21,0,1,1,15,"[0, 25, 23, 21, 14, 4, 16, 8, 15]",9,0,[],39.2911564,17390,1491,1,0,9,1.5486591410600183
undo,1,0,0,0,0,0,[0],1,27,"[2, 3, 4, 5, 6, 7, 8, 9, 10, 11, 12, 13, 14, 15, 16, 17, 19, 20, 21, 22, 23, 24, 25, 26, 27, 28, 29]",300,175,-1,104,1136,9,0.0
undo,1,0,0,0,0,28,"[0, 28]",2,26,"[2, 3, 4, 5, 6, 7, 8, 9, 10, 11, 12, 13, 14, 15, 16, 17, 19, 20, 21, 22, 23, 24, 25, 26, 27, 29]",194.9190788,5774,5599,39,388,9,1.0
undo,1,0,0,0,0,5,"[0, 28, 5]",3,21,"[2, 3, 4, 7, 8, 9, 11, 12, 13, 14, 15, 16, 17, 19, 20, 21, 23, 24, 25, 26, 29]",151.2613189,6839,1065,27,210,9,1.0978295127671733
undo,1,0,0,0,0,15,"[0, 28, 5, 15]",4,14,"[2, 3, 4, 7, 8, 9, 11, 12, 17, 19, 23, 24, 25, 26]",97.59568744,10742,3903,5,31,8,1.0707574357172056
undo,1,0,0,0,0,24,"[0, 28, 5, 15, 24]",5,9,"[3, 4, 7, 8, 9, 11, 12, 17, 26]",74.25045238,12121,1379,4,9,8,1.3531529195362333
undo,1,0,0,0,0,4,"[0, 28, 5, 15, 24, 4]",6,5,"[7, 11, 12, 17, 26]",62.84869812,13048,927,3,4,8,1.5149495125049035
undo,1,0,0,0,0,26,"[0, 28, 5, 15, 24, 4, 26]",7,3,"[7, 12, 17]",50.80710355,13881,833,3,0,8,1.5424653059200606
undo,1,0,0,0,1,12,"[0, 28, 5, 15, 24, 4, 26, 12]",8,0,[],15.57927364,14919,1038,1,0,8,1.823022517666715
undo,1,0,0,1,1,12,"[0, 28, 5, 15, 24, 4, 26, 12]",8,0,[],15.57927364,16895,1976,1,0,8,1.823022517666715
undo,2,26,0,0,0,0,[0],1,29,"[1, 2, 3, 4, 5, 6, 7, 8, 9, 10, 11, 12, 13, 14, 15, 16, 17, 18, 19, 20, 21, 22, 23, 24, 25, 26, 27, 28, 29]",300,170,-1,9,226,9,0.0
undo,2,26,0,0,0,21,"[0, 21]",2,25,"[2, 3, 4, 5, 6, 7, 8, 10, 11, 12, 13, 14, 15, 16, 17, 18, 19, 22, 23, 24, 25, 26, 27, 28, 29]",211.1349337,6227,6057,7,90,9,1.0
undo,2,26,0,0,0,13,"[0, 21, 13]",3,21,"[3, 4, 5, 6, 7, 8, 10, 11, 12, 14, 15, 16, 17, 18, 19, 22, 23, 24, 25, 26, 29]",188.9989901,7281,1054,6,45,9,1.0103952279992225
undo,2,26,0,0,0,16,"[0, 21, 13, 16]",4,8,"[4, 5, 6, 10, 14, 17, 23, 29]",119.9700107,9746,2465,3,23,9,1.608180021563306
undo,2,26,0,0,0,29,"[0, 21, 13, 16, 29]",5,6,"[4, 6, 10, 14, 17, 23]",95.76257383,10596,850,3,20,9,1.6714963205667543
undo,2,26,0,0,0,4,"[0, 21, 13, 16, 29, 4]",6,4,"[6, 10, 14, 17]",71.76257383,11261,665,3,6,9,1.8831111863826637
undo,2,26,0,0,0,17,"[0, 21, 13, 16, 29, 4, 17]",7,3,"[6, 10, 14]",50.66755072,11926,665,3,1,9,1.7547748416418751
undo,2,26,0,0,0,14,"[0, 21, 13, 16, 29, 4, 17, 14]",8,1,[6],28.19534567,13027,1101,1,0,9,1.6866342470680415
undo,2,26,0,0,1,6,"[0, 21, 13, 16, 29, 4, 17, 14, 6]",9,0,[],7.171549626,14578,1551,1,0,9,1.823211641041882
undo,2,26,0,1,1,6,"[0, 21, 13, 16, 29, 4, 17, 14, 6]",9,0,[],7.171549626,18901,4323,1,0,9,1.823211641041882
undo,3,18,0,0,0,0,[0],1,28,"[1, 2, 3, 4, 5, 6, 7, 8, 9, 10, 11, 12, 13, 14, 16, 17, 18, 19, 20, 21, 22, 23, 24, 25, 26, 27, 28, 29]",300,193,-1,3,136,10,0.0
undo,3,18,0,0,0,28,"[0, 28]",2,16,"[1, 3, 5, 7, 8, 9, 12, 13, 14, 16, 20, 23, 24, 25, 26, 27]",236.4311397,4353,4160,2,19,10,1.0
undo,3,18,0,0,0,7,"[0, 28, 7]",3,15,"[1, 3, 5, 8, 9, 12, 13, 14, 16, 20, 23, 24, 25, 26, 27]",214.4084242,6034,1681,2,17,10,1.4345180696367563
undo,3,18,0,0,0,25,"[0, 28, 7, 25]",4,13,"[1, 3, 5, 8, 9, 12, 13, 14, 16, 20, 23, 26, 27]",186.6055466,6833,799,2,15,10,1.8896451241781882
undo,3,18,0,0,0,8,"[0, 28, 7, 25, 8]",5,10,"[3, 5, 9, 12, 13, 14, 16, 23, 26, 27]",149.551532,8103,1270,2,10,10,1.590467437592877
undo,3,18,0,0,0,13,"[0, 28, 7, 25, 8, 13]",6,9,"[3, 5, 9, 12, 14, 16, 23, 26, 27]",128.4565089,8681,578,2,5,10,1.8248274983549797
undo,3,18,0,0,0,14,"[0, 28, 7, 25, 8, 13, 14]",7,7,"[3, 5, 9, 12, 23, 26, 27]",109.4828429,9536,855,2,3,10,1.6993534956692746
undo,3,18,0,0,0,3,"[0, 28, 7, 25, 8, 13, 14, 3]",8,3,"[5, 12, 27]",79.39962499,10753,1217,2,1,10,1.802637206541468
undo,3,18,0,0,0,5,"[0, 28, 7, 25, 8, 13, 14, 3, 5]",9,1,[12],21.21887216,11972,1219,1,0,10,1.559774889743805
undo,3,18,0,0,1,12,"[0, 28, 7, 25, 8, 13, 14, 3, 5, 12]",10,0,[],9.817117911,12818,846,1,0,10,1.563993037384447
undo,3,18,0,1,1,12,"[0, 28, 7, 25, 8, 13, 14, 3, 5, 12]",10,0,[],9.817117911,14293,1475,1,0,10,1.563993037384447
undo,4,19,0,0,0,0,[0],1,29,"[1, 2, 3, 4, 5, 6, 7, 8, 9, 10, 11, 12, 13, 14, 15, 16, 17, 18, 19, 20, 21, 22, 23, 24, 25, 26, 27, 28, 29]",300,195,-1,12,149,8,0.0
undo,4,19,0,0,0,16,"[0, 16]",2,13,"[1, 2, 3, 5, 8, 12, 13, 15, 17, 19, 23, 25, 29]",194.2408396,9119,8924,1,26,7,1.0
undo,4,19,0,0,0,12,"[0, 16, 12]",3,10,"[1, 2, 3, 8, 13, 17, 19, 23, 25, 29]",126.5651424,10171,1052,1,12,7,1.450081650625254
undo,4,19,0,0,0,25,"[0, 16, 12, 25]",4,8,"[1, 2, 3, 8, 13, 17, 19, 23]",109.4478996,10823,652,7,5,6,1.397346049588307
undo,4,19,0,0,0,17,"[0, 16, 12, 25, 17]",5,4,"[1, 2, 3, 23]",98.40253859,12070,1247,4,0,6,1.454525624255785
undo,4,19,0,0,1,2,"[0, 16, 12, 25, 17, 2]",6,0,[],30.37313318,13804,1734,1,0,6,1.309640051279978
undo,4,19,0,1,1,2,"[0, 16, 12, 25, 17, 2]",6,0,[],30.37313318,15645,1841,1,0,6,1.309640051279978
undo,5,22,0,0,0,0,[0],1,29,"[1, 2, 3, 4, 5, 6, 7, 8, 9, 10, 11, 12, 13, 14, 15, 16, 17, 18, 19, 20, 21, 22, 23, 24, 25, 26, 27, 28, 29]",300,169,-1,31,704,9,0.0
undo,5,22,0,0,0,16,"[0, 16]",2,21,"[1, 3, 6, 7, 8, 9, 11, 13, 14, 15, 17, 18, 19, 20, 21, 22, 24, 25, 27, 28, 29]",218.605897,2574,2405,17,147,9,1.0
undo,5,22,0,0,0,28,"[0, 16, 28]",3,13,"[6, 7, 9, 13, 14, 17, 19, 20, 21, 22, 24, 25, 29]",184.1675463,3401,827,12,61,9,1.047282311284478
undo,5,22,0,0,0,6,"[0, 16, 28, 6]",4,12,"[7, 9, 13, 14, 17, 19, 20, 21, 22, 24, 25, 29]",154.1675463,4239,838,12,43,9,1.645645870580622
undo,5,22,0,0,0,9,"[0, 16, 28, 6, 9]",5,8,"[7, 14, 17, 19, 20, 21, 24, 29]",127.5404924,5104,865,8,17,9,1.925750226630103
undo,5,22,0,0,0,19,"[0, 16, 28, 6, 9, 19]",6,6,"[7, 14, 17, 21, 24, 29]",107.1444143,6022,918,3,7,9,2.4220750331476455
undo,5,22,0,0,0,29,"[0, 16, 28, 6, 9, 19, 29]",7,4,"[7, 14, 17, 24]",92.11111796,6820,798,2,2,9,2.6996279574991067
undo,5,22,0,0,0,14,"[0, 16, 28, 6, 9, 19, 29, 14]",8,1,[7],33.86165444,8857,2037,1,0,9,2.0544639927929462
undo,5,22,0,0,1,7,"[0, 16, 28, 6, 9, 19, 29, 14, 7]",9,0,[],20.82324963,9969,1112,1,0,9,2.219817088951114
undo,5,22,0,1,1,7,"[0, 16, 28, 6, 9, 19, 29, 14, 7]",9,0,[],20.82324963,11311,1342,1,0,9,2.219817088951114
undo,6,5,0,0,0,0,[0],1,29,"[1, 2, 3, 4, 5, 6, 7, 8, 9, 10, 11, 12, 13, 14, 15, 16, 17, 18, 19, 20, 21, 22, 23, 24, 25, 26, 27, 28, 29]",300,174,-1,5,139,9,0.0
undo,6,5,0,0,0,12,"[0, 12]",2,22,"[2, 4, 5, 6, 8, 9, 10, 13, 14, 15, 16, 17, 18, 19, 21, 22, 23, 24, 25, 26, 27, 28]",228.3062067,4186,4012,1,27,9,1.0
undo,6,5,0,0,0,25,"[0, 12, 25]",3,21,"[2, 4, 5, 6, 8, 9, 10, 13, 14, 15, 16, 17, 18, 19, 21, 22, 23, 24, 26, 27, 28]",200.5213187,4949,763,1,20,9,1.584023303445617
undo,6,5,0,0,0,23,"[0, 12, 25, 23]",4,19,"[2, 4, 5, 6, 8, 9, 10, 13, 14, 15, 16, 17, 18, 19, 21, 22, 24, 26, 27]",182.0822298,5691,742,1,14,9,2.3508446989254357
undo,6,5,0,0,0,24,"[0, 12, 25, 23, 24]",5,15,"[2, 4, 5, 6, 8, 9, 13, 14, 15, 17, 18, 19, 22, 26, 27]",158.995437,6418,727,1,12,9,1.9469752046288753
undo,6,5,0,0,0,17,"[0, 12, 25, 23, 24, 17]",6,7,"[4, 5, 6, 8, 15, 18, 19]",124.0097257,7448,1030,1,8,9,1.6482276497563642
undo,6,5,0,0,0,5,"[0, 12, 25, 23, 24, 17, 5]",7,4,"[4, 6, 15, 18]",80.96323916,8703,1255,1,3,9,1.4654649104389412
undo,6,5,0,0,1,15,"[0, 12, 25, 23, 24, 17, 5, 15]",8,0,[],40.93824697,9736,1033,1,0,8,1.4660376450939663
undo,6,5,0,1,1,15,"[0, 12, 25, 23, 24, 17, 5, 15]",8,0,[],40.93824697,11044,1308,1,0,8,1.4660376450939663
undo,7,11,0,0,0,0,[0],1,25,"[1, 2, 3, 4, 5, 6, 8, 9, 10, 11, 12, 13, 14, 15, 16, 17, 18, 19, 20, 22, 23, 25, 26, 27, 28]",300,161,-1,6,374,12,0.0
undo,7,11,0,0,0,1,"[0, 1]",2,24,"[2, 3, 4, 5, 6, 8, 9, 10, 11, 12, 13, 14, 15, 16, 17, 18, 19, 20, 22, 23, 25, 26, 27, 28]",264.6446609,3066,2905,6,217,12,1.0
undo,7,11,0,0,0,18,"[0, 1, 18]",3,19,"[2, 4, 5, 6, 8, 9, 11, 12, 14, 15, 16, 17, 19, 20, 22, 23, 25, 27, 28]",212.3187591,4505,1439,6,161,12,1.3884463804898786
undo,7,11,0,0,0,27,"[0, 1, 18, 27]",4,18,"[2, 4, 5, 6, 8, 9, 11, 12, 14, 15, 16, 17, 19, 20, 22, 23, 25, 28]",188.4650382,5436,931,6,155,12,1.3600813284083875
undo,7,11,0,0,0,17,"[0, 1, 18, 27, 17]",5,11,"[2, 5, 6, 8, 11, 12, 15, 19, 22, 25, 28]",111.3871556,6470,1034,2,45,12,1.282398281674261
undo,7,11,0,0,0,8,"[0, 1, 18, 27, 17, 8]",6,7,"[2, 5, 11, 12, 15, 22, 28]",97.0693345,7567,1097,2,21,12,1.3975291553712
undo,7,11,0,0,0,15,"[0, 1, 18, 27, 17, 8, 15]",7,6,"[2, 5, 11, 12, 22, 28]",83.61571045,8338,771,2,18,12,1.3793915678186077
undo,7,11,0,0,0,11,"[0, 1, 18, 27, 17, 8, 15, 11]",8,4,"[2, 5, 22, 28]",65.50494017,9018,680,2,14,12,1.3525960247899067
undo,7,11,0,0,0,28,"[0, 1, 18, 27, 17, 8, 15, 11, 28]",9,3,"[2, 5, 22]",46.08845233,9970,952,2,4,12,1.4693669896690256
undo,7,11,0,0,0,5,"[0, 1, 18, 27, 17, 8, 15, 11, 28, 5]",10,2,"[2, 22]",28.19990851,12202,2232,1,1,12,1.6706321377081579
undo,7,11,0,0,0,2,"[0, 1, 18, 27, 17, 8, 15, 11, 28, 5, 2]",11,1,[22],11.19990851,13023,821,1,0,12,1.6180355992209499
undo,7,11,0,0,1,22,"[0, 1, 18, 27, 17, 8, 15, 11, 28, 5, 2, 22]",12,0,[],1.150032892,14053,1030,1,0,12,1.5851265969407473
undo,7,11,0,1,1,22,"[0, 1, 18, 27, 17, 8, 15, 11, 28, 5, 2, 22]",12,0,[],1.150032892,16726,2673,1,0,12,1.5851265969407473
undo,8,9,0,0,0,0,[0],1,27,"[1, 3, 4, 5, 6, 7, 8, 9, 10, 11, 13, 14, 15, 16, 17, 18, 19, 20, 21, 22, 23, 24, 25, 26, 27, 28, 29]",300,213,-1,2,182,10,0.0
undo,8,9,0,0,0,8,"[0, 8]",2,25,"[1, 3, 4, 5, 6, 7, 9, 10, 11, 13, 14, 15, 16, 17, 18, 19, 20, 21, 22, 23, 24, 25, 26, 27, 28]",236.2191251,5774,5561,2,102,9,1.0
undo,8,9,0,0,0,28,"[0, 8, 28]",3,23,"[1, 3, 4, 5, 6, 7, 9, 10, 11, 13, 15, 16, 17, 18, 19, 20, 21, 22, 23, 24, 25, 26, 27]",225.4024713,6593,819,2,52,9,1.0043219354187498
undo,8,9,0,0,0,23,"[0, 8, 28, 23]",4,21,"[1, 3, 4, 5, 7, 9, 10, 11, 13, 15, 16, 17, 18, 19, 20, 21, 22, 24, 25, 26, 27]",200.3824793,7861,1268,19,104,8,1.6731219967216804
undo,8,9,0,0,0,9,"[0, 8, 28, 23, 9]",5,19,"[1, 3, 4, 5, 7, 10, 11, 13, 15, 16, 18, 19, 20, 21, 22, 24, 25, 26, 27]",178.0217995,8750,889,12,35,8,1.6380661913087589
undo,8,9,0,0,0,26,"[0, 8, 28, 23, 9, 26]",6,9,"[3, 5, 10, 15, 16, 18, 19, 20, 21]",121.3737634,9788,1038,3,6,8,1.529011463409394
undo,8,9,0,0,0,18,"[0, 8, 28, 23, 9, 26, 18]",7,1,[19],60.49683834,10786,998,1,0,8,1.3743231272597587
undo,8,9,0,0,1,19,"[0, 8, 28, 23, 9, 26, 18, 19]",8,0,[],4.176326981,11891,1105,1,0,8,1.7377957110303042
undo,8,9,0,1,1,19,"[0, 8, 28, 23, 9, 26, 18, 19]",8,0,[],4.176326981,12980,1089,1,0,8,1.7377957110303042
undo,9,12,0,0,0,0,[0],1,29,"[1, 2, 3, 4, 5, 6, 7, 8, 9, 10, 11, 12, 13, 14, 15, 16, 17, 18, 19, 20, 21, 22, 23, 24, 25, 26, 27, 28, 29]",300,176,-1,2,32,9,0.0
undo,9,12,0,0,0,22,"[0, 22]",2,22,"[2, 4, 5, 6, 7, 9, 10, 12, 13, 14, 15, 16, 17, 18, 19, 21, 23, 24, 25, 27, 28, 29]",211.9943184,6630,6454,6,42,8,1.0
undo,9,12,0,0,0,16,"[0, 22, 16]",3,12,"[2, 4, 5, 6, 7, 12, 14, 19, 23, 24, 25, 27]",190.9943184,7635,1005,6,24,8,1.2017164145167045
undo,9,12,0,0,0,4,"[0, 22, 16, 4]",4,9,"[2, 6, 7, 12, 14, 19, 24, 25, 27]",156.7890556,8357,722,6,14,8,1.146531713305579
undo,9,12,0,0,0,12,"[0, 22, 16, 4, 12]",5,4,"[14, 19, 24, 27]",114.5990094,9320,963,4,3,8,1.1221389456954312
undo,9,12,0,0,0,27,"[0, 22, 16, 4, 12, 27]",6,3,"[14, 19, 24]",90.24741807,10219,899,2,1,8,1.2262878338287035
undo,9,12,0,0,0,14,"[0, 22, 16, 4, 12, 27, 14]",7,1,[24],61.59432051,11236,1017,1,0,8,1.2804562106751427
undo,9,12,0,0,1,24,"[0, 22, 16, 4, 12, 27, 14, 24]",8,0,[],44.38966997,12424,1188,1,0,8,1.4322660007679802
undo,9,12,0,1,1,24,"[0, 22, 16, 4, 12, 27, 14, 24]",8,0,[],44.38966997,13261,837,1,0,8,1.4322660007679802
undo,10,15,0,0,0,0,[0],1,25,"[1, 2, 3, 4, 7, 8, 9, 10, 11, 12, 13, 14, 15, 16, 18, 20, 21, 22, 23, 24, 25, 26, 27, 28, 29]",300,197,-1,4,65,9,0.0
undo,10,15,0,0,0,21,"[0, 21]",2,17,"[1, 3, 4, 7, 8, 9, 11, 12, 13, 14, 15, 16, 22, 23, 24, 26, 27]",204.9158268,3661,3464,21,65,7,1.0
undo,10,15,0,0,0,12,"[0, 21, 12]",3,14,"[1, 3, 4, 7, 8, 9, 11, 13, 14, 15, 16, 22, 24, 27]",161.0866128,4955,1294,20,39,7,1.6068212046294776
undo,10,15,0,0,0,7,"[0, 21, 12, 7]",4,10,"[3, 4, 9, 11, 13, 14, 15, 16, 22, 27]",127.8450725,5982,1027,13,11,7,2.0298522511797907
undo,10,15,0,0,0,16,"[0, 21, 12, 7, 16]",5,5,"[3, 4, 11, 15, 22]",84.18731258,6924,942,3,3,7,1.8904046427013528
undo,10,15,0,0,0,11,"[0, 21, 12, 7, 16, 11]",6,1,[3],58.16808892,7692,768,1,0,7,1.9475991988988648
undo,10,15,0,0,1,3,"[0, 21, 12, 7, 16, 11, 3]",7,0,[],46.76633467,9356,1664,1,0,7,1.912955285957019
undo,10,15,0,1,1,3,"[0, 21, 12, 7, 16, 11, 3]",7,0,[],46.76633467,11929,2573,1,0,7,1.912955285957019
undo,11,20,0,0,0,0,[0],1,21,"[1, 2, 3, 4, 5, 6, 7, 8, 9, 12, 17, 18, 20, 21, 22, 23, 25, 26, 27, 28, 29]",300,178,-1,1,9,9,0.0
undo,11,20,0,0,0,12,"[0, 12]",2,20,"[1, 2, 3, 4, 5, 6, 7, 8, 9, 17, 18, 20, 21, 22, 23, 25, 26, 27, 28, 29]",271.5570747,6879,6701,1,8,9,1.0
undo,11,20,0,0,0,5,"[0, 12, 5]",3,13,"[1, 3, 4, 6, 8, 9, 20, 21, 23, 26, 27, 28, 29]",171.4321527,7893,1014,2,19,8,1.0232843285905395
undo,11,20,0,0,0,21,"[0, 12, 5, 21]",4,10,"[1, 4, 6, 8, 9, 20, 23, 26, 27, 28]",126.4321527,9023,1130,2,12,8,1.017525191374897
undo,11,20,0,0,0,8,"[0, 12, 5, 21, 8]",5,6,"[1, 6, 9, 23, 27, 28]",108.9679035,10005,982,2,6,8,1.0391698601004782
undo,11,20,0,0,0,23,"[0, 12, 5, 21, 8, 23]",6,3,"[6, 9, 27]",64.28009758,11263,1258,2,1,8,1.0348450868606567
undo,11,20,0,0,0,9,"[0, 12, 5, 21, 8, 23, 9]",7,1,[6],45.07072487,12043,780,1,0,8,1.0335348098288684
undo,11,20,0,0,1,6,"[0, 12, 5, 21, 8, 23, 9, 6]",8,0,[],22.048996,13790,1747,1,0,8,1.0486850646228845
undo,11,20,0,1,1,6,"[0, 12, 5, 21, 8, 23, 9, 6]",8,0,[],22.048996,15313,1523,1,0,8,1.0486850646228845
undo,12,10,0,0,0,0,[0],1,29,"[1, 2, 3, 4, 5, 6, 7, 8, 9, 10, 11, 12, 13, 14, 15, 16, 17, 18, 19, 20, 21, 22, 23, 24, 25, 26, 27, 28, 29]",300,190,-1,1,100,9,0.0
undo,12,10,0,0,0,13,"[0, 13]",2,25,"[1, 2, 3, 4, 6, 7, 8, 9, 10, 11, 12, 14, 17, 18, 19, 20, 21, 22, 23, 24, 25, 26, 27, 28, 29]",249.4628849,5019,4829,1,79,9,1.0
undo,12,10,0,0,0,19,"[0, 13, 19]",3,12,"[2, 6, 8, 9, 10, 11, 14, 18, 20, 24, 26, 27]",180.5861835,5922,903,11,79,8,1.0000581961988606
undo,12,10,0,0,0,2,"[0, 13, 19, 2]",4,5,"[11, 14, 20, 26, 27]",136.6771867,6905,983,3,9,8,1.000456581399483
undo,12,10,0,0,0,14,"[0, 13, 19, 2, 14]",5,4,"[11, 20, 26, 27]",124.5116616,7900,995,3,6,8,1.0972737011325653
undo,12,10,0,0,0,26,"[0, 13, 19, 2, 14, 26]",6,3,"[11, 20, 27]",89.84178999,8758,858,3,1,8,1.5868342521575007
undo,12,10,0,0,0,11,"[0, 13, 19, 2, 14, 26, 11]",7,1,[20],48.08056395,9553,795,1,0,8,2.7772471764176028
undo,12,10,0,0,1,20,"[0, 13, 19, 2, 14, 26, 11, 20]",8,0,[],10.00169842,10871,1318,1,0,8,2.3959438836221785
undo,12,10,0,1,1,20,"[0, 13, 19, 2, 14, 26, 11, 20]",8,0,[],10.00169842,11993,1122,1,0,8,2.3959438836221785
undo,13,24,0,0,0,0,[0],1,29,"[1, 2, 3, 4, 5, 6, 7, 8, 9, 10, 11, 12, 13, 14, 15, 16, 17, 18, 19, 20, 21, 22, 23, 24, 25, 26, 27, 28, 29]",300,177,-1,4,76,10,0.0
undo,13,24,0,0,0,14,"[0, 14]",2,27,"[1, 2, 3, 4, 5, 6, 8, 9, 10, 11, 12, 13, 15, 16, 17, 18, 19, 20, 21, 22, 23, 24, 25, 26, 27, 28, 29]",278.0455016,2624,2447,4,54,10,1.0
undo,13,24,0,0,0,10,"[0, 14, 10]",3,20,"[1, 2, 3, 4, 6, 8, 9, 11, 15, 16, 17, 19, 20, 22, 23, 24, 26, 27, 28, 29]",229.342319,3635,1011,10,99,9,1.0038790212375874
undo,13,24,0,0,0,24,"[0, 14, 10, 24]",4,14,"[1, 2, 4, 6, 8, 9, 11, 15, 16, 20, 22, 23, 28, 29]",176.0037775,4833,1198,4,26,9,1.0345598967195753
undo,13,24,0,0,0,6,"[0, 14, 10, 24, 6]",5,11,"[1, 8, 9, 11, 15, 16, 20, 22, 23, 28, 29]",138.6674681,5784,951,4,19,9,1.4136213103786264
undo,13,24,0,0,0,8,"[0, 14, 10, 24, 6, 8]",6,5,"[15, 16, 22, 23, 28]",77.83984283,6670,886,4,4,9,2.0175546172818692
undo,13,24,0,0,0,22,"[0, 14, 10, 24, 6, 8, 22]",7,3,"[15, 16, 28]",64.42343497,7890,1220,2,1,9,2.235490370965466
undo,13,24,0,0,0,16,"[0, 14, 10, 24, 6, 8, 22, 16]",8,1,[15],46.39567859,8671,781,1,0,9,2.829024350414776
undo,13,24,0,0,1,15,"[0, 14, 10, 24, 6, 8, 22, 16, 15]",9,0,[],15.98186594,9572,901,1,0,9,2.374331903190176
undo,13,24,0,1,1,15,"[0, 14, 10, 24, 6, 8, 22, 16, 15]",9,0,[],15.98186594,10844,1272,1,0,9,2.374331903190176
undo,14,34,0,0,0,0,[0],1,25,"[1, 3, 4, 5, 6, 7, 8, 9, 10, 11, 12, 13, 15, 18, 19, 20, 21, 22, 23, 24, 25, 26, 27, 28, 29]",300,161,-1,12,367,10,0.0
undo,14,34,0,0,0,13,"[0, 13]",2,24,"[1, 3, 4, 5, 6, 7, 8, 9, 10, 11, 12, 15, 18, 19, 20, 21, 22, 23, 24, 25, 26, 27, 28, 29]",279.9750156,5819,5658,12,331,10,1.0
undo,14,34,0,0,0,1,"[0, 13, 1]",3,16,"[3, 5, 7, 8, 9, 10, 11, 12, 19, 21, 22, 23, 24, 25, 27, 29]",211.8574701,6816,997,3,92,10,1.0010381285747127
undo,14,34,0,0,0,8,"[0, 13, 1, 8]",4,14,"[3, 5, 7, 9, 10, 11, 12, 19, 22, 23, 24, 25, 27, 29]",201.0871405,7750,934,2,54,10,1.1636807
undo,14,34,0,0,0,25,"[0, 13, 1, 8, 25]",5,12,"[3, 5, 7, 9, 10, 11, 12, 22, 23, 24, 27, 29]",183.999133,8705,955,2,28,10,1.1396208815936457
undo,14,34,0,0,0,24,"[0, 13, 1, 8, 25, 24]",6,11,"[3, 5, 7, 9, 10, 11, 12, 22, 23, 27, 29]",166.5062774,9711,1006,2,23,10,1.374180768736554
undo,14,34,0,0,0,23,"[0, 13, 1, 8, 25, 24, 23]",7,6,"[5, 7, 11, 12, 27, 29]",99.97808784,15124,5413,4,3,9,2.1078306540088096
undo,14,34,0,0,0,7,"[0, 13, 1, 8, 25, 24, 23, 7]",8,2,"[11, 12]",71.81783216,15959,835,2,0,9,2.011215865419536
undo,14,34,0,0,1,12,"[0, 13, 1, 8, 25, 24, 23, 7, 12]",9,0,[],56.78453578,16972,1013,1,0,9,1.9762514824310813
undo,14,34,0,1,1,12,"[0, 13, 1, 8, 25, 24, 23, 7, 12]",9,0,[],56.78453578,19729,2757,1,0,9,1.9762514824310813
undo,15,43,0,0,0,0,[0],1,23,"[1, 2, 3, 4, 5, 6, 7, 9, 10, 11, 12, 14, 15, 16, 17, 19, 20, 21, 22, 23, 25, 27, 29]",300,177,-1,16,556,12,0.0
undo,15,43,0,0,0,29,"[0, 29]",2,22,"[1, 2, 3, 4, 5, 6, 7, 9, 10, 11, 12, 14, 15, 16, 17, 19, 20, 21, 22, 23, 25, 27]",277.909278,3016,2839,16,520,12,1.0
undo,15,43,0,0,0,20,"[0, 29, 20]",3,20,"[1, 2, 3, 4, 6, 7, 9, 10, 11, 12, 14, 15, 16, 17, 19, 21, 22, 23, 25, 27]",254.4785289,4194,1178,15,422,12,1.082311746871282
undo,15,43,0,0,0,16,"[0, 29, 20, 16]",4,19,"[1, 2, 3, 4, 6, 7, 9, 10, 11, 12, 14, 15, 17, 19, 21, 22, 23, 25, 27]",231.8511119,7073,2879,15,389,12,1.215201926898219
undo,15,43,0,0,0,15,"[0, 29, 20, 16, 15]",5,14,"[1, 2, 3, 4, 6, 7, 9, 11, 12, 14, 19, 22, 23, 25]",188.5267539,7895,822,3,109,12,1.3482474915350444
undo,15,43,0,0,0,25,"[0, 29, 20, 16, 15, 25]",6,12,"[1, 3, 4, 6, 7, 9, 11, 12, 14, 19, 22, 23]",165.8551858,9057,1162,2,43,12,1.691408721191545
undo,15,43,0,0,0,12,"[0, 29, 20, 16, 15, 25, 12]",7,11,"[1, 3, 4, 6, 7, 9, 11, 14, 19, 22, 23]",141.6684126,10024,967,2,32,12,1.6015983641428178
undo,15,43,0,0,0,3,"[0, 29, 20, 16, 15, 25, 12, 3]",8,10,"[1, 4, 6, 7, 9, 11, 14, 19, 22, 23]",128.6684126,10791,767,2,24,12,1.5379830456120627
undo,15,43,0,0,0,22,"[0, 29, 20, 16, 15, 25, 12, 3, 22]",9,6,"[1, 6, 7, 11, 14, 19]",93.95530264,11805,1014,1,11,12,1.7275686117408873
undo,15,43,0,0,0,19,"[0, 29, 20, 16, 15, 25, 12, 3, 22, 19]",10,4,"[1, 6, 7, 11]",73.33977451,13090,1285,1,3,12,1.6315360037595275
undo,15,43,0,0,0,1,"[0, 29, 20, 16, 15, 25, 12, 3, 22, 19, 1]",11,1,[7],45.1617689,14207,1117,1,0,12,1.7703076545303877
undo,15,43,0,0,1,7,"[0, 29, 20, 16, 15, 25, 12, 3, 22, 19, 1, 7]",12,0,[],6.951822553,15433,1226,1,0,12,1.6607094905815594
undo,15,43,0,1,1,7,"[0, 29, 20, 16, 15, 25, 12, 3, 22, 19, 1, 7]",12,0,[],6.951822553,17263,1830,1,0,12,1.6607094905815594
undo,16,41,0,0,0,0,[0],1,29,"[1, 2, 3, 4, 5, 6, 7, 8, 9, 10, 11, 12, 13, 14, 15, 16, 17, 18, 19, 20, 21, 22, 23, 24, 25, 26, 27, 28, 29]",300,200,-1,1,143,10,0.0
undo,16,41,0,0,0,13,"[0, 13]",2,23,"[1, 2, 3, 5, 6, 7, 9, 10, 11, 12, 14, 15, 17, 18, 19, 20, 21, 22, 24, 25, 26, 27, 28]",258.2747079,4937,4737,1,55,10,1.0
undo,16,41,0,0,0,28,"[0, 13, 28]",3,22,"[1, 2, 3, 5, 6, 7, 9, 10, 11, 12, 14, 15, 17, 18, 19, 20, 21, 22, 24, 25, 26, 27]",223.7928286,5936,999,1,39,10,1.895724242592676
undo,16,41,0,0,0,5,"[0, 13, 28, 5]",4,19,"[1, 2, 3, 6, 9, 10, 11, 12, 14, 15, 17, 18, 19, 20, 21, 22, 24, 25, 27]",210.1913581,6811,875,1,34,10,2.861541269398273
undo,16,41,0,0,0,3,"[0, 13, 28, 5, 3]",5,16,"[1, 2, 6, 9, 10, 12, 14, 17, 18, 19, 20, 21, 22, 24, 25, 27]",175.3632086,8054,1243,1,22,10,3.1455488489005883
undo,16,41,0,0,0,21,"[0, 13, 28, 5, 3, 21]",6,14,"[1, 2, 6, 9, 10, 12, 14, 17, 18, 19, 20, 22, 25, 27]",143.2228912,10275,2221,13,11,9,3.207558429289677
undo,16,41,0,0,0,9,"[0, 13, 28, 5, 3, 21, 9]",7,6,"[1, 2, 10, 12, 14, 17]",93.85691102,11638,1363,7,4,9,2.5050148501792275
undo,16,41,0,0,0,2,"[0, 13, 28, 5, 3, 21, 9, 2]",8,5,"[1, 10, 12, 14, 17]",81.77386505,12753,1115,5,0,9,2.4119643847713177
undo,16,41,0,0,1,17,"[0, 13, 28, 5, 3, 21, 9, 2, 17]",9,0,[],49.21622385,13791,1038,1,0,9,3.9563478735796007
undo,16,41,0,1,1,17,"[0, 13, 28, 5, 3, 21, 9, 2, 17]",9,0,[],49.21622385,15027,1236,1,0,9,3.9563478735796007
undo,17,25,0,0,0,0,[0],1,28,"[1, 2, 3, 4, 5, 7, 8, 9, 10, 11, 12, 13, 14, 15, 16, 17, 18, 19, 20, 21, 22, 23, 24, 25, 26, 27, 28, 29]",300,184,-1,5,94,10,0.0
undo,17,25,0,0,0,23,"[0, 23]",2,23,"[1, 2, 3, 5, 7, 8, 9, 11, 12, 13, 14, 16, 17, 19, 20, 21, 22, 24, 25, 26, 27, 28, 29]",259.7756293,5462,5278,3,33,10,1.0
undo,17,25,0,0,0,7,"[0, 23, 7]",3,16,"[1, 3, 5, 8, 9, 11, 13, 17, 19, 21, 22, 24, 26, 27, 28, 29]",181.9424744,6690,1228,1,21,9,1.0073109045884563
undo,17,25,0,0,0,24,"[0, 23, 7, 24]",4,10,"[3, 5, 8, 9, 11, 13, 19, 22, 28, 29]",157.1836376,7574,884,1,17,9,1.0161584555781231
undo,17,25,0,0,0,9,"[0, 23, 7, 24, 9]",5,8,"[3, 8, 11, 13, 19, 22, 28, 29]",139.1558812,8519,945,1,16,9,1.0303325523073676
undo,17,25,0,0,0,8,"[0, 23, 7, 24, 9, 8]",6,3,"[3, 13, 28]",88.9065031,10943,2424,4,1,8,1.055612641218378
undo,17,25,0,0,0,28,"[0, 23, 7, 24, 9, 8, 28]",7,2,"[3, 13]",48.29862209,12057,1114,2,0,8,1.16316697389926
undo,17,25,0,0,1,3,"[0, 23, 7, 24, 9, 8, 28, 3]",8,0,[],16.99367041,13047,990,1,0,8,1.5284916606081744
undo,17,25,0,1,1,3,"[0, 23, 7, 24, 9, 8, 28, 3]",8,0,[],16.99367041,14944,1897,1,0,8,1.5284916606081744
undo,18,38,0,0,0,0,[0],1,29,"[1, 2, 3, 4, 5, 6, 7, 8, 9, 10, 11, 12, 13, 14, 15, 16, 17, 18, 19, 20, 21, 22, 23, 24, 25, 26, 27, 28, 29]",300,185,-1,33,506,9,0.0
undo,18,38,0,0,0,19,"[0, 19]",2,23,"[3, 4, 5, 6, 7, 8, 9, 11, 13, 14, 15, 16, 17, 18, 20, 22, 23, 24, 25, 26, 27, 28, 29]",219.5015528,2895,2710,6,61,9,1.0
undo,18,38,0,0,0,17,"[0, 19, 17]",3,21,"[3, 4, 5, 6, 7, 9, 11, 13, 14, 15, 16, 18, 20, 22, 23, 24, 25, 26, 27, 28, 29]",198.1239945,3930,1035,6,53,9,1.571793785769489
undo,18,38,0,0,0,20,"[0, 19, 17, 20]",4,17,"[3, 4, 5, 6, 7, 11, 13, 14, 15, 16, 18, 22, 24, 25, 26, 27, 28]",174.3542658,4773,843,6,44,9,2.333182710277297
undo,18,38,0,0,0,13,"[0, 19, 17, 20, 13]",5,9,"[4, 11, 15, 16, 18, 24, 26, 27, 28]",125.0998244,7776,3003,1,11,9,1.7893595974504246
undo,18,38,0,0,0,4,"[0, 19, 17, 20, 13, 4]",6,6,"[11, 15, 16, 24, 26, 28]",93.69918748,9093,1317,1,6,9,2.942354535547757
undo,18,38,0,0,0,15,"[0, 19, 17, 20, 13, 4, 15]",7,4,"[11, 16, 26, 28]",67.69918748,9889,796,1,3,9,3.165907365359093
undo,18,38,0,0,0,11,"[0, 19, 17, 20, 13, 4, 15, 11]",8,1,[28],31.29863803,10809,920,1,0,9,3.362710012119994
undo,18,38,0,0,1,28,"[0, 19, 17, 20, 13, 4, 15, 11, 28]",9,0,[],4.280125857,12043,1234,1,0,9,2.7690631991189285
undo,18,38,0,1,1,28,"[0, 19, 17, 20, 13, 4, 15, 11, 28]",9,0,[],4.280125857,13499,1456,1,0,9,2.7690631991189285
undo,19,8,0,0,0,0,[0],1,29,"[1, 2, 3, 4, 5, 6, 7, 8, 9, 10, 11, 12, 13, 14, 15, 16, 17, 18, 19, 20, 21, 22, 23, 24, 25, 26, 27, 28, 29]",300,166,-1,10,149,9,0.0
undo,19,8,0,0,0,5,"[0, 5]",2,28,"[1, 2, 3, 4, 6, 7, 8, 9, 10, 11, 12, 13, 14, 15, 16, 17, 18, 19, 20, 21, 22, 23, 24, 25, 26, 27, 28, 29]",254.5137383,9687,9521,10,100,9,1.0
undo,19,8,0,0,0,25,"[0, 5, 25]",3,20,"[1, 2, 3, 4, 6, 11, 12, 14, 15, 16, 17, 18, 19, 20, 21, 22, 23, 24, 28, 29]",215.3091468,11854,2167,4,42,9,1.2272747879909065
undo,19,8,0,0,0,1,"[0, 5, 25, 1]",4,17,"[3, 4, 6, 11, 12, 14, 15, 16, 17, 18, 20, 21, 22, 23, 24, 28, 29]",190.3091468,12524,670,3,24,9,1.1770245007593956
undo,19,8,0,0,0,23,"[0, 5, 25, 1, 23]",5,15,"[3, 4, 6, 11, 14, 15, 16, 17, 18, 20, 21, 22, 24, 28, 29]",167.2874179,13238,714,1,14,9,1.141996583852372
undo,19,8,0,0,0,18,"[0, 5, 25, 1, 23, 18]",6,9,"[3, 4, 11, 14, 15, 16, 17, 24, 28]",125.5261919,14068,830,1,7,9,1.3199166330970717
undo,19,8,0,0,0,14,"[0, 5, 25, 1, 23, 18, 14]",7,2,"[11, 17]",68.03706246,14942,874,1,1,9,2.714920831666598
undo,19,8,0,0,0,17,"[0, 5, 25, 1, 23, 18, 14, 17]",8,1,[11],31.02355141,15839,897,1,0,9,2.462600896722246
undo,19,8,0,0,1,11,"[0, 5, 25, 1, 23, 18, 14, 17, 11]",9,0,[],5.84419479,16717,878,1,0,9,2.246839316887767
undo,19,8,0,1,1,11,"[0, 5, 25, 1, 23, 18, 14, 17, 11]",9,0,[],5.84419479,17928,1211,1,0,9,2.246839316887767
undo,20,16,0,0,0,0,[0],1,29,"[1, 2, 3, 4, 5, 6, 7, 8, 9, 10, 11, 12, 13, 14, 15, 16, 17, 18, 19, 20, 21, 22, 23, 24, 25, 26, 27, 28, 29]",300,189,-1,13,161,9,0.0
undo,20,16,0,0,0,17,"[0, 17]",2,27,"[1, 2, 3, 4, 5, 7, 8, 9, 10, 11, 12, 13, 14, 15, 16, 18, 19, 20, 21, 22, 23, 24, 25, 26, 27, 28, 29]",241.3058776,4752,4563,2,58,9,1.0
undo,20,16,0,0,0,16,"[0, 17, 16]",3,26,"[1, 2, 3, 4, 5, 7, 8, 9, 10, 11, 12, 13, 14, 15, 18, 19, 20, 21, 22, 23, 24, 25, 26, 27, 28, 29]",212.9862731,5535,783,2,52,9,1.0529535521792848
undo,20,16,0,0,0,8,"[0, 17, 16, 8]",4,19,"[2, 3, 4, 5, 9, 12, 13, 14, 15, 19, 20, 21, 22, 23, 25, 26, 27, 28, 29]",164.6127266,6453,918,2,38,9,1.0915134501573105
undo,20,16,0,0,0,20,"[0, 17, 16, 8, 20]",5,10,"[3, 4, 5, 9, 12, 13, 15, 19, 21, 25]",106.8372993,7502,1049,1,15,9,1.067523143001942
undo,20,16,0,0,0,25,"[0, 17, 16, 8, 20, 25]",6,7,"[3, 4, 5, 9, 12, 13, 15]",94.18818869,8200,698,1,9,9,1.1170093326933646
undo,20,16,0,0,0,9,"[0, 17, 16, 8, 20, 25, 9]",7,5,"[3, 4, 5, 13, 15]",81.38194021,8803,603,1,4,9,1.1095076562662525
undo,20,16,0,0,0,15,"[0, 17, 16, 8, 20, 25, 9, 15]",8,1,[5],42.48463953,9718,915,1,0,9,1.213831159678775
undo,20,16,0,0,1,5,"[0, 17, 16, 8, 20, 25, 9, 15, 5]",9,0,[],13.0567616,10681,963,1,0,9,1.5171779607523481
undo,20,16,0,1,1,5,"[0, 17, 16, 8, 20, 25, 9, 15, 5]",9,0,[],13.0567616,11395,714,1,0,9,1.5171779607523481
undo,21,4,0,0,0,0,[0],1,26,"[3, 4, 5, 6, 7, 8, 10, 11, 12, 13, 14, 15, 16, 17, 18, 19, 20, 21, 22, 23, 24, 25, 26, 27, 28, 29]",300,177,-1,4,489,10,0.0
undo,21,4,0,0,0,28,"[0, 28]",2,21,"[3, 4, 5, 6, 10, 11, 12, 13, 14, 15, 16, 17, 19, 20, 21, 22, 23, 24, 25, 26, 27]",225.9392142,4158,3981,2,216,10,1.0
undo,21,4,0,0,0,14,"[0, 28, 14]",3,13,"[3, 4, 5, 6, 11, 13, 16, 17, 20, 21, 22, 24, 25]",159.6972335,5386,1228,1,26,10,1.0273973946789214
undo,21,4,0,0,0,25,"[0, 28, 14, 25]",4,12,"[3, 4, 5, 6, 11, 13, 16, 17, 20, 21, 22, 24]",143.572718,6188,802,1,25,10,1.233547772313525
undo,21,4,0,0,0,11,"[0, 28, 14, 25, 11]",5,10,"[3, 4, 5, 6, 13, 16, 17, 20, 21, 22]",124.7844238,7107,919,1,15,10,1.425978575879479
undo,21,4,0,0,0,16,"[0, 28, 14, 25, 11, 16]",6,9,"[3, 4, 5, 6, 13, 17, 20, 21, 22]",109.7844238,7858,751,1,12,10,1.3799325158051412
undo,21,4,0,0,0,3,"[0, 28, 14, 25, 11, 16, 3]",7,2,"[17, 20]",68.15510719,10090,2232,1,1,9,1.3292844629725955
undo,21,4,0,0,0,17,"[0, 28, 14, 25, 11, 16, 3, 17]",8,1,[20],43.63980585,11692,1602,1,0,9,1.5639571149270572
undo,21,4,0,0,1,20,"[0, 28, 14, 25, 11, 16, 3, 17, 20]",9,0,[],3.415435124,12752,1060,1,0,9,1.6231058358944275
undo,21,4,0,1,1,20,"[0, 28, 14, 25, 11, 16, 3, 17, 20]",9,0,[],3.415435124,13611,859,1,0,9,1.6231058358944275
undo,22,27,0,0,0,0,[0],1,26,"[1, 3, 5, 6, 7, 8, 9, 10, 11, 12, 13, 14, 15, 16, 17, 18, 19, 21, 22, 23, 24, 25, 26, 27, 28, 29]",300,191,-1,13,578,11,0.0
undo,22,27,0,0,0,15,"[0, 15]",2,24,"[1, 3, 5, 6, 7, 8, 9, 10, 11, 12, 13, 14, 16, 17, 18, 19, 21, 22, 23, 24, 25, 26, 27, 29]",263.7508621,2024,1833,6,219,11,1.0
undo,22,27,0,0,0,24,"[0, 15, 24]",3,20,"[1, 5, 6, 7, 8, 9, 10, 12, 13, 14, 16, 17, 18, 19, 21, 23, 25, 26, 27, 29]",246.5462115,2916,892,6,130,11,1.130933077698322
undo,22,27,0,0,0,17,"[0, 15, 24, 17]",4,15,"[1, 6, 8, 10, 12, 13, 14, 16, 18, 19, 23, 25, 26, 27, 29]",229.9932662,3933,1017,4,60,11,1.1285538435963374
undo,22,27,0,0,0,12,"[0, 15, 24, 17, 12]",5,14,"[1, 6, 8, 10, 13, 14, 16, 18, 19, 23, 25, 26, 27, 29]",218.8129263,4790,857,2,32,11,1.2561880288755216
undo,22,27,0,0,0,10,"[0, 15, 24, 17, 12, 10]",6,11,"[1, 8, 13, 14, 18, 19, 23, 25, 26, 27, 29]",207.7675653,5857,1067,2,28,11,1.2228289337766665
undo,22,27,0,0,0,13,"[0, 15, 24, 17, 12, 10, 13]",7,9,"[1, 8, 14, 18, 19, 23, 26, 27, 29]",167.9178476,6599,742,2,18,11,1.3421291994761178
undo,22,27,0,0,0,19,"[0, 15, 24, 17, 12, 10, 13, 19]",8,5,"[1, 8, 14, 23, 29]",131.6825057,7770,1171,2,6,11,1.294749956153846
undo,22,27,0,0,0,8,"[0, 15, 24, 17, 12, 10, 13, 19, 8]",9,3,"[14, 23, 29]",116.816437,8754,984,2,1,11,1.3554286578836865
undo,22,27,0,0,0,29,"[0, 15, 24, 17, 12, 10, 13, 19, 8, 29]",10,1,[14],57.61339652,9832,1078,1,0,11,1.248354519573802
undo,22,27,0,0,1,14,"[0, 15, 24, 17, 12, 10, 13, 19, 8, 29, 14]",11,0,[],13.31892734,11187,1355,1,0,11,1.562811097555156
undo,22,27,0,1,1,14,"[0, 15, 24, 17, 12, 10, 13, 19, 8, 29, 14]",11,0,[],13.31892734,11863,676,1,0,11,1.562811097555156
basic,23,7,0,0,0,0,[0],1,29,"[1, 2, 3, 4, 5, 6, 7, 8, 9, 10, 11, 12, 13, 14, 15, 16, 17, 18, 19, 20, 21, 22, 23, 24, 25, 26, 27, 28, 29]",300,218,-1,3,79,9,0.0
basic,23,7,0,0,0,15,"[0, 15]",2,19,"[2, 4, 5, 6, 7, 8, 9, 10, 13, 14, 16, 18, 19, 20, 21, 23, 25, 27, 28]",230.9348134,5330,5112,2,38,9,1.0
basic,23,7,0,0,0,6,"[0, 15, 6]",3,18,"[2, 4, 5, 7, 8, 9, 10, 13, 14, 16, 18, 19, 20, 21, 23, 25, 27, 28]",205.854941,6322,992,2,36,9,1.366719602896943
basic,23,7,0,0,0,25,"[0, 15, 6, 25]",4,11,"[2, 4, 7, 13, 14, 16, 18, 19, 20, 21, 23]",138.6760753,7643,1321,2,28,9,1.3624631728355765
basic,23,7,0,0,0,4,"[0, 15, 6, 25, 4]",5,7,"[2, 7, 13, 16, 18, 19, 20]",113.9374415,8341,698,2,12,9,1.3249684384385587
basic,23,7,0,0,0,20,"[0, 15, 6, 25, 4, 20]",6,5,"[2, 7, 13, 18, 19]",94.29055881,9030,689,1,6,9,1.3721893242679268
basic,23,7,0,0,0,18,"[0, 15, 6, 25, 4, 20, 18]",7,3,"[7, 13, 19]",81.48431034,9993,963,1,2,9,1.5262542308371432
basic,23,7,0,0,0,7,"[0, 15, 6, 25, 4, 20, 18, 7]",8,1,[19],40.25325408,10811,818,1,0,9,1.41986878673423
basic,23,7,0,0,1,19,"[0, 15, 6, 25, 4, 20, 18, 7, 19]",9,0,[],10.84237174,11827,1016,1,0,9,1.5285658163212987
basic,23,7,0,1,1,19,"[0, 15, 6, 25, 4, 20, 18, 7, 19]",9,0,[],10.84237174,13148,1321,1,0,9,1.5285658163212987
basic,24,12,0,0,0,0,[0],1,29,"[1, 2, 3, 4, 5, 6, 7, 8, 9, 10, 11, 12, 13, 14, 15, 16, 17, 18, 19, 20, 21, 22, 23, 24, 25, 26, 27, 28, 29]",300,189,-1,2,32,9,0.0
basic,24,12,0,0,0,22,"[0, 22]",2,22,"[2, 4, 5, 6, 7, 9, 10, 12, 13, 14, 15, 16, 17, 18, 19, 21, 23, 24, 25, 27, 28, 29]",211.9943184,2850,2661,6,42,8,1.0
basic,24,12,0,0,0,16,"[0, 22, 16]",3,12,"[2, 4, 5, 6, 7, 12, 14, 19, 23, 24, 25, 27]",190.9943184,3918,1068,6,24,8,1.2017164145167045
basic,24,12,0,0,0,4,"[0, 22, 16, 4]",4,9,"[2, 6, 7, 12, 14, 19, 24, 25, 27]",156.7890556,4819,901,6,14,8,1.146531713305579
basic,24,12,0,0,0,12,"[0, 22, 16, 4, 12]",5,4,"[14, 19, 24, 27]",114.5990094,6184,1365,4,3,8,1.1221389456954312
basic,24,12,0,0,0,27,"[0, 22, 16, 4, 12, 27]",6,3,"[14, 19, 24]",90.24741807,7271,1087,2,1,8,1.2262878338287035
basic,24,12,0,0,0,14,"[0, 22, 16, 4, 12, 27, 14]",7,1,[24],61.59432051,8374,1103,1,0,8,1.2804562106751427
basic,24,12,0,0,1,24,"[0, 22, 16, 4, 12, 27, 14, 24]",8,0,[],44.38966997,9670,1296,1,0,8,1.4322660007679802
basic,24,12,0,1,1,24,"[0, 22, 16, 4, 12, 27, 14, 24]",8,0,[],44.38966997,12160,2490,1,0,8,1.4322660007679802
basic,25,45,0,0,0,0,[0],1,24,"[1, 2, 3, 4, 5, 6, 7, 9, 10, 11, 12, 14, 15, 16, 17, 19, 20, 21, 22, 23, 24, 25, 27, 29]",300,188,-1,6,248,10,0.0
basic,25,45,0,0,0,17,"[0, 17]",2,22,"[1, 2, 3, 4, 5, 6, 7, 9, 10, 11, 12, 14, 15, 16, 19, 20, 21, 22, 23, 24, 25, 29]",235.867325,3637,3449,1,34,10,1.0
basic,25,45,0,0,0,24,"[0, 17, 24]",3,20,"[1, 2, 3, 4, 5, 6, 7, 9, 10, 11, 12, 14, 15, 16, 19, 20, 21, 22, 23, 29]",193.8078433,4729,1092,1,33,10,1.0309432256229287
basic,25,45,0,0,0,7,"[0, 17, 24, 7]",4,18,"[1, 2, 3, 4, 5, 6, 9, 10, 12, 14, 15, 16, 19, 20, 21, 22, 23, 29]",159.3985423,6092,1363,1,32,10,1.059763151913087
basic,25,45,0,0,0,2,"[0, 17, 24, 7, 2]",5,12,"[3, 4, 6, 10, 12, 14, 16, 19, 20, 22, 23, 29]",121.3853866,6798,706,1,23,10,1.0656581932115423
basic,25,45,0,0,0,3,"[0, 17, 24, 7, 2, 3]",6,8,"[6, 10, 12, 14, 16, 20, 22, 29]",96.06740884,7588,790,1,13,10,1.1368250049574795
basic,25,45,0,0,0,29,"[0, 17, 24, 7, 2, 3, 29]",7,5,"[6, 10, 12, 20, 22]",76.06740884,8595,1007,1,5,10,1.390376182346372
basic,25,45,0,0,0,10,"[0, 17, 24, 7, 2, 3, 29, 10]",8,2,"[6, 12]",54.52674961,9325,730,1,1,10,1.6682270697663164
basic,25,45,0,0,0,6,"[0, 17, 24, 7, 2, 3, 29, 10, 6]",9,1,[12],28.27794012,10260,935,1,0,10,1.5776211572942243
basic,25,45,0,0,1,12,"[0, 17, 24, 7, 2, 3, 29, 10, 6, 12]",10,0,[],8.15332832,11212,952,1,0,10,1.536035114105263
basic,25,45,0,1,1,12,"[0, 17, 24, 7, 2, 3, 29, 10, 6, 12]",10,0,[],8.15332832,13466,2254,1,0,10,1.536035114105263
basic,26,16,0,0,0,0,[0],1,29,"[1, 2, 3, 4, 5, 6, 7, 8, 9, 10, 11, 12, 13, 14, 15, 16, 17, 18, 19, 20, 21, 22, 23, 24, 25, 26, 27, 28, 29]",300,189,-1,13,161,9,0.0
basic,26,16,0,0,0,8,"[0, 8]",2,24,"[2, 3, 4, 5, 7, 9, 10, 12, 13, 14, 15, 16, 17, 18, 19, 20, 21, 22, 23, 25, 26, 27, 28, 29]",175.963715,5857,5668,11,68,7,1.0
basic,26,16,0,0,0,20,"[0, 8, 20]",3,11,"[3, 4, 5, 9, 12, 13, 15, 16, 19, 21, 25]",118.1882877,6942,1085,7,22,7,1.0047913486698357
basic,26,16,0,0,0,25,"[0, 8, 20, 25]",4,7,"[3, 4, 5, 9, 12, 13, 15]",105.539177,8188,1246,5,11,7,1.0554037338851137
basic,26,16,0,0,0,9,"[0, 8, 20, 25, 9]",5,6,"[3, 4, 5, 12, 13, 15]",92.73292857,8942,754,5,4,7,1.051900299839676
basic,26,16,0,0,0,15,"[0, 8, 20, 25, 9, 15]",6,3,"[3, 5, 13]",53.83562789,9690,748,3,0,7,1.1603268431231641
basic,26,16,0,0,1,5,"[0, 8, 20, 25, 9, 15, 5]",7,0,[],24.40774995,10420,730,1,0,7,1.457160971143519
basic,26,16,0,1,1,5,"[0, 8, 20, 25, 9, 15, 5]",7,0,[],24.40774995,12182,1762,1,0,7,1.457160971143519
basic,27,39,0,0,0,0,[0],1,28,"[1, 2, 3, 4, 5, 6, 7, 9, 10, 11, 12, 13, 14, 15, 16, 17, 18, 19, 20, 21, 22, 23, 24, 25, 26, 27, 28, 29]",300,176,-1,1,30,10,0.0
basic,27,39,0,0,0,10,"[0, 10]",2,20,"[1, 2, 4, 5, 7, 9, 12, 13, 14, 15, 16, 17, 18, 19, 22, 23, 24, 26, 28, 29]",181.1723938,2836,2660,3,58,8,1.0
basic,27,39,0,0,0,7,"[0, 10, 7]",3,16,"[1, 2, 4, 5, 9, 12, 13, 15, 16, 18, 19, 22, 23, 24, 26, 29]",147.7508438,4154,1318,2,20,8,1.0005787113875788
basic,27,39,0,0,0,26,"[0, 10, 7, 26]",4,12,"[1, 2, 5, 9, 12, 13, 16, 18, 19, 22, 24, 29]",129.0693022,5018,864,1,9,8,1.0582372046162405
basic,27,39,0,0,0,22,"[0, 10, 7, 26, 22]",5,7,"[1, 5, 12, 16, 18, 19, 29]",111.349257,5651,633,1,3,8,1.2183446345009497
basic,27,39,0,0,0,16,"[0, 10, 7, 26, 22, 16]",6,2,"[18, 19]",76.34925701,6754,1103,1,1,8,1.1781376373699262
basic,27,39,0,0,0,19,"[0, 10, 7, 26, 22, 16, 19]",7,1,[18],58.88500781,7404,650,1,0,8,1.1953094970663214
basic,27,39,0,0,1,18,"[0, 10, 7, 26, 22, 16, 19, 18]",8,0,[],15.71094152,8407,1003,1,0,8,1.2126315998801338
basic,27,39,0,1,1,18,"[0, 10, 7, 26, 22, 16, 19, 18]",8,0,[],15.71094152,9644,1237,1,0,8,1.2126315998801338
basic,28,23,0,0,0,0,[0],1,28,"[1, 2, 3, 4, 5, 6, 7, 8, 9, 10, 11, 12, 13, 14, 15, 16, 17, 18, 19, 20, 21, 22, 23, 25, 26, 27, 28, 29]",300,173,-1,76,2626,10,0.0
basic,28,23,0,0,0,27,"[0, 27]",2,11,"[2, 6, 7, 9, 10, 12, 13, 14, 18, 22, 29]",156.8217894,5554,5381,6,455,9,1.0
basic,28,23,0,0,0,6,"[0, 27, 6]",3,10,"[2, 7, 9, 10, 12, 13, 14, 18, 22, 29]",128.519846,6566,1012,6,168,9,1.1413510010705277
basic,28,23,0,0,0,2,"[0, 27, 6, 2]",4,8,"[7, 9, 12, 13, 14, 18, 22, 29]",110.0807571,8620,2054,3,50,9,1.3917699979429488
basic,28,23,0,0,0,14,"[0, 27, 6, 2, 14]",5,6,"[7, 9, 12, 13, 22, 29]",95.21468831,9520,900,1,12,9,1.4535117534194508
basic,28,23,0,0,0,9,"[0, 27, 6, 2, 14, 9]",6,5,"[7, 12, 13, 22, 29]",84.7743818,10434,914,1,5,9,1.6473653414995069
basic,28,23,0,0,0,12,"[0, 27, 6, 2, 14, 9, 12]",7,3,"[13, 22, 29]",70.45656074,11553,1119,1,2,9,1.872467511760823
basic,28,23,0,0,0,13,"[0, 27, 6, 2, 14, 9, 12, 13]",8,1,[22],58.37351476,12484,931,1,0,9,2.1831143896555902
basic,28,23,0,0,1,22,"[0, 27, 6, 2, 14, 9, 12, 13, 22]",9,0,[],16.18346854,13806,1322,1,0,9,3.1711839164511098
basic,28,23,0,1,1,22,"[0, 27, 6, 2, 14, 9, 12, 13, 22]",9,0,[],16.18346854,15526,1720,1,0,9,3.1711839164511098
basic,29,5,0,0,0,0,[0],1,29,"[1, 2, 3, 4, 5, 6, 7, 8, 9, 10, 11, 12, 13, 14, 15, 16, 17, 18, 19, 20, 21, 22, 23, 24, 25, 26, 27, 28, 29]",300,179,-1,5,139,9,0.0
basic,29,5,0,0,0,12,"[0, 12]",2,22,"[2, 4, 5, 6, 8, 9, 10, 13, 14, 15, 16, 17, 18, 19, 21, 22, 23, 24, 25, 26, 27, 28]",228.3062067,4459,4280,1,27,9,1.0
basic,29,5,0,0,0,25,"[0, 12, 25]",3,21,"[2, 4, 5, 6, 8, 9, 10, 13, 14, 15, 16, 17, 18, 19, 21, 22, 23, 24, 26, 27, 28]",200.5213187,5559,1100,1,20,9,1.584023303445617
basic,29,5,0,0,0,23,"[0, 12, 25, 23]",4,19,"[2, 4, 5, 6, 8, 9, 10, 13, 14, 15, 16, 17, 18, 19, 21, 22, 24, 26, 27]",182.0822298,6323,764,1,14,9,2.3508446989254357
basic,29,5,0,0,0,24,"[0, 12, 25, 23, 24]",5,15,"[2, 4, 5, 6, 8, 9, 13, 14, 15, 17, 18, 19, 22, 26, 27]",158.995437,7156,833,1,12,9,1.9469752046288753
basic,29,5,0,0,0,17,"[0, 12, 25, 23, 24, 17]",6,7,"[4, 5, 6, 8, 15, 18, 19]",124.0097257,8171,1015,1,8,9,1.6482276497563642
basic,29,5,0,0,0,5,"[0, 12, 25, 23, 24, 17, 5]",7,4,"[4, 6, 15, 18]",80.96323916,9108,937,1,3,9,1.4654649104389412
basic,29,5,0,0,1,15,"[0, 12, 25, 23, 24, 17, 5, 15]",8,0,[],40.93824697,10777,1669,1,0,8,1.4660376450939663
basic,29,5,0,1,1,15,"[0, 12, 25, 23, 24, 17, 5, 15]",8,0,[],40.93824697,12982,2205,1,0,8,1.4660376450939663
basic,30,21,0,0,0,0,[0],1,29,"[1, 2, 3, 4, 5, 6, 7, 8, 9, 10, 11, 12, 13, 14, 15, 16, 17, 18, 19, 20, 21, 22, 23, 24, 25, 26, 27, 28, 29]",300,176,-1,84,830,9,0.0
basic,30,21,0,0,0,10,"[0, 10]",2,16,"[2, 5, 6, 7, 11, 12, 13, 17, 18, 19, 20, 22, 25, 26, 28, 29]",178.2420434,4503,4327,4,19,7,1.0
basic,30,21,0,0,0,12,"[0, 10, 12]",3,14,"[5, 6, 7, 11, 13, 17, 18, 19, 20, 22, 25, 26, 28, 29]",155.4385349,5652,1149,4,14,7,1.3021441887069367
basic,30,21,0,0,0,20,"[0, 10, 12, 20]",4,7,"[6, 11, 17, 18, 22, 25, 29]",101.3182984,6716,1064,4,6,7,2.4118536037403975
basic,30,21,0,0,0,22,"[0, 10, 12, 20, 22]",5,4,"[17, 18, 25, 29]",73.08710994,7738,1022,3,2,7,2.759648057109791
basic,30,21,0,0,0,29,"[0, 10, 12, 20, 22, 29]",6,1,[18],42.82161804,8603,865,1,0,7,3.0357289097668017
basic,30,21,0,0,1,18,"[0, 10, 12, 20, 22, 29, 18]",7,0,[],14.16852048,9598,995,1,0,7,4.838350694755588
basic,30,21,0,1,1,18,"[0, 10, 12, 20, 22, 29, 18]",7,0,[],14.16852048,15810,6212,1,0,7,4.838350694755588
basic,31,6,0,0,0,0,[0],1,29,"[1, 2, 3, 4, 5, 6, 7, 8, 9, 10, 11, 12, 13, 14, 15, 16, 17, 18, 19, 20, 21, 22, 23, 24, 25, 26, 27, 28, 29]",300,175,-1,180,4304,10,0.0
basic,31,6,0,0,0,3,"[0, 3]",2,28,"[1, 2, 4, 5, 6, 7, 8, 9, 10, 11, 12, 13, 14, 15, 16, 17, 18, 19, 20, 21, 22, 23, 24, 25, 26, 27, 28, 29]",266.4738908,4774,4599,90,1607,10,1.0
basic,31,6,0,0,0,10,"[0, 3, 10]",3,27,"[1, 2, 4, 5, 6, 7, 8, 9, 11, 12, 13, 14, 15, 16, 17, 18, 19, 20, 21, 22, 23, 24, 25, 26, 27, 28, 29]",215.2293789,7520,2746,8,136,10,1.0050517746249001
basic,31,6,0,0,0,24,"[0, 3, 10, 24]",4,23,"[1, 2, 4, 5, 6, 7, 8, 11, 13, 14, 16, 17, 18, 19, 20, 21, 22, 23, 25, 26, 27, 28, 29]",201.812971,8474,954,8,85,10,1.0091851911500884
basic,31,6,0,0,0,17,"[0, 3, 10, 24, 17]",5,19,"[1, 2, 4, 5, 6, 7, 8, 11, 13, 14, 16, 18, 20, 21, 22, 23, 26, 27, 29]",172.5384087,9515,1041,8,53,10,1.8060138032707682
basic,31,6,0,0,0,18,"[0, 3, 10, 24, 17, 18]",6,15,"[1, 2, 6, 7, 8, 13, 14, 16, 20, 21, 22, 23, 26, 27, 29]",158.6100204,10355,840,7,36,10,2.3216150751946008
basic,31,6,0,0,0,16,"[0, 3, 10, 24, 17, 18, 16]",7,13,"[1, 2, 6, 7, 13, 14, 20, 21, 22, 23, 26, 27, 29]",135.2647853,11616,1261,7,21,10,2.2822729587843544
basic,31,6,0,0,0,29,"[0, 3, 10, 24, 17, 18, 16, 29]",8,7,"[6, 14, 20, 21, 22, 23, 27]",98.57691268,13518,1902,6,4,10,1.8911507070056388
basic,31,6,0,0,0,23,"[0, 3, 10, 24, 17, 18, 16, 29, 23]",9,2,"[6, 22]",51.05849519,14737,1219,2,0,10,1.8549852217940308
basic,31,6,0,0,1,6,"[0, 3, 10, 24, 17, 18, 16, 29, 23, 6]",10,0,[],15.70315613,15653,916,1,0,10,1.7651720921259988
basic,31,6,0,1,1,6,"[0, 3, 10, 24, 17, 18, 16, 29, 23, 6]",10,0,[],15.70315613,16593,940,1,0,10,1.7651720921259988
basic,32,38,0,0,0,0,[0],1,29,"[1, 2, 3, 4, 5, 6, 7, 8, 9, 10, 11, 12, 13, 14, 15, 16, 17, 18, 19, 20, 21, 22, 23, 24, 25, 26, 27, 28, 29]",300,190,-1,33,506,9,0.0
basic,32,38,0,0,0,19,"[0, 19]",2,23,"[3, 4, 5, 6, 7, 8, 9, 11, 13, 14, 15, 16, 17, 18, 20, 22, 23, 24, 25, 26, 27, 28, 29]",219.5015528,3206,3016,6,61,9,1.0
basic,32,38,0,0,0,17,"[0, 19, 17]",3,21,"[3, 4, 5, 6, 7, 9, 11, 13, 14, 15, 16, 18, 20, 22, 23, 24, 25, 26, 27, 28, 29]",198.1239945,4162,956,6,53,9,1.571793785769489
basic,32,38,0,0,0,20,"[0, 19, 17, 20]",4,17,"[3, 4, 5, 6, 7, 11, 13, 14, 15, 16, 18, 22, 24, 25, 26, 27, 28]",174.3542658,4833,671,6,44,9,2.333182710277297
basic,32,38,0,0,0,4,"[0, 19, 17, 20, 4]",5,10,"[5, 11, 13, 14, 15, 16, 24, 26, 27, 28]",140.4131403,5784,951,5,22,9,2.276099229646013
basic,32,38,0,0,0,15,"[0, 19, 17, 20, 4, 15]",6,8,"[5, 11, 13, 14, 16, 24, 26, 28]",114.4131403,6528,744,5,6,9,2.5292671156176403
basic,32,38,0,0,0,11,"[0, 19, 17, 20, 4, 15, 11]",7,2,"[16, 28]",78.01259089,7420,892,2,0,9,2.778100109749787
basic,32,38,0,0,0,28,"[0, 19, 17, 20, 4, 15, 11, 28]",8,1,[16],50.99407872,8549,1129,1,0,9,2.3316428595723258
basic,32,38,0,0,1,16,"[0, 19, 17, 20, 4, 15, 11, 28, 16]",9,0,[],21.99407872,9537,988,1,0,9,2.5408012360364265
basic,32,38,0,1,1,16,"[0, 19, 17, 20, 4, 15, 11, 28, 16]",9,0,[],21.99407872,10757,1220,1,0,9,2.5408012360364265
basic,33,32,0,0,0,0,[0],1,29,"[1, 2, 3, 4, 5, 6, 7, 8, 9, 10, 11, 12, 13, 14, 15, 16, 17, 18, 19, 20, 21, 22, 23, 24, 25, 26, 27, 28, 29]",300,332,-1,17,359,10,0.0
basic,33,32,0,0,0,19,"[0, 19]",2,28,"[1, 2, 3, 4, 5, 6, 7, 8, 9, 10, 11, 12, 13, 14, 15, 16, 17, 18, 20, 21, 22, 23, 24, 25, 26, 27, 28, 29]",283.5075775,9092,8760,16,294,10,1.0
basic,33,32,0,0,0,15,"[0, 19, 15]",3,21,"[2, 3, 5, 7, 8, 9, 10, 11, 12, 13, 14, 16, 17, 20, 22, 23, 24, 25, 26, 27, 28]",197.7987681,10987,1895,2,52,10,1.19699508325577
basic,33,32,0,0,0,28,"[0, 19, 15, 28]",4,19,"[2, 3, 5, 7, 8, 9, 10, 11, 12, 13, 16, 17, 20, 22, 23, 24, 25, 26, 27]",186.3970139,11976,989,2,41,10,1.1739755297768444
basic,33,32,0,0,0,12,"[0, 19, 15, 28, 12]",5,17,"[2, 3, 5, 7, 8, 9, 10, 11, 13, 16, 17, 20, 22, 23, 24, 26, 27]",167.4233479,12875,899,2,25,10,1.177540715424265
basic,33,32,0,0,0,16,"[0, 19, 15, 28, 12, 16]",6,16,"[2, 3, 5, 7, 8, 9, 10, 11, 13, 17, 20, 22, 23, 24, 26, 27]",151.7708721,14038,1163,2,17,10,1.2623133279216439
basic,33,32,0,0,0,22,"[0, 19, 15, 28, 12, 16, 22]",7,10,"[2, 3, 5, 8, 9, 10, 11, 17, 20, 27]",117.9330235,14875,837,2,7,10,1.2893434049314008
basic,33,32,0,0,0,9,"[0, 19, 15, 28, 12, 16, 22, 9]",8,4,"[2, 8, 17, 20]",95.72942015,16136,1261,2,2,10,1.3492394817468627
basic,33,32,0,0,0,8,"[0, 19, 15, 28, 12, 16, 22, 9, 8]",9,1,[20],50.60736346,17202,1066,1,0,10,1.2728587925837391
basic,33,32,0,0,1,20,"[0, 19, 15, 28, 12, 16, 22, 9, 8, 20]",10,0,[],0.278445332,19273,2071,1,0,10,1.4817741230721702
basic,33,32,0,1,1,20,"[0, 19, 15, 28, 12, 16, 22, 9, 8, 20]",10,0,[],0.278445332,21215,1942,1,0,10,1.4817741230721702
basic,34,42,0,0,0,0,[0],1,29,"[1, 2, 3, 4, 5, 6, 7, 8, 9, 10, 11, 12, 13, 14, 15, 16, 17, 18, 19, 20, 21, 22, 23, 24, 25, 26, 27, 28, 29]",300,196,-1,16,302,9,0.0
basic,34,42,0,0,0,4,"[0, 4]",2,28,"[1, 2, 3, 5, 6, 7, 8, 9, 10, 11, 12, 13, 14, 15, 16, 17, 18, 19, 20, 21, 22, 23, 24, 25, 26, 27, 28, 29]",209.5290102,5924,5728,4,80,9,1.0
basic,34,42,0,0,0,22,"[0, 4, 22]",3,24,"[1, 2, 3, 5, 6, 7, 8, 9, 10, 11, 13, 15, 17, 18, 19, 20, 21, 23, 24, 25, 26, 27, 28, 29]",198.3486703,6585,661,3,53,9,1.1473032812120834
basic,34,42,0,0,0,5,"[0, 4, 22, 5]",4,20,"[1, 2, 3, 7, 8, 9, 10, 11, 13, 15, 18, 19, 20, 21, 23, 24, 25, 26, 27, 29]",170.1174819,7568,983,1,14,9,1.1948051397585588
basic,34,42,0,0,0,8,"[0, 4, 22, 5, 8]",5,13,"[1, 2, 3, 7, 11, 15, 18, 19, 24, 25, 26, 27, 29]",135.6356026,8454,886,1,10,9,1.5287231236031107
basic,34,42,0,0,0,1,"[0, 4, 22, 5, 8, 1]",6,5,"[2, 7, 19, 26, 27]",86.54385173,9536,1082,1,7,9,1.3707327746710105
basic,34,42,0,0,0,7,"[0, 4, 22, 5, 8, 1, 7]",7,4,"[2, 19, 26, 27]",56.54385173,10398,862,1,3,9,1.4053605201578234
basic,34,42,0,0,0,26,"[0, 4, 22, 5, 8, 1, 7, 26]",8,1,[27],29.97319122,11361,963,1,0,9,1.3637717615151517
basic,34,42,0,0,1,27,"[0, 4, 22, 5, 8, 1, 7, 26, 27]",9,0,[],11.94543484,12320,959,1,0,9,1.3508808991256835
basic,34,42,0,1,1,27,"[0, 4, 22, 5, 8, 1, 7, 26, 27]",9,0,[],11.94543484,13077,757,1,0,9,1.3508808991256835
basic,35,27,0,0,0,0,[0],1,26,"[1, 3, 5, 6, 7, 8, 9, 10, 11, 12, 13, 14, 15, 16, 17, 18, 19, 21, 22, 23, 24, 25, 26, 27, 28, 29]",300,186,-1,13,578,11,0.0
basic,35,27,0,0,0,15,"[0, 15]",2,24,"[1, 3, 5, 6, 7, 8, 9, 10, 11, 12, 13, 14, 16, 17, 18, 19, 21, 22, 23, 24, 25, 26, 27, 29]",263.7508621,2434,2248,6,219,11,1.0
basic,35,27,0,0,0,24,"[0, 15, 24]",3,20,"[1, 5, 6, 7, 8, 9, 10, 12, 13, 14, 16, 17, 18, 19, 21, 23, 25, 26, 27, 29]",246.5462115,3496,1062,6,130,11,1.130933077698322
basic,35,27,0,0,0,17,"[0, 15, 24, 17]",4,15,"[1, 6, 8, 10, 12, 13, 14, 16, 18, 19, 23, 25, 26, 27, 29]",229.9932662,4482,986,4,60,11,1.1285538435963374
basic,35,27,0,0,0,12,"[0, 15, 24, 17, 12]",5,14,"[1, 6, 8, 10, 13, 14, 16, 18, 19, 23, 25, 26, 27, 29]",218.8129263,5187,705,2,32,11,1.2561880288755216
basic,35,27,0,0,0,10,"[0, 15, 24, 17, 12, 10]",6,11,"[1, 8, 13, 14, 18, 19, 23, 25, 26, 27, 29]",207.7675653,6304,1117,2,28,11,1.2228289337766665
basic,35,27,0,0,0,13,"[0, 15, 24, 17, 12, 10, 13]",7,9,"[1, 8, 14, 18, 19, 23, 26, 27, 29]",167.9178476,7400,1096,2,18,11,1.3421291994761178
basic,35,27,0,0,0,19,"[0, 15, 24, 17, 12, 10, 13, 19]",8,5,"[1, 8, 14, 23, 29]",131.6825057,8287,887,2,6,11,1.294749956153846
basic,35,27,0,0,0,8,"[0, 15, 24, 17, 12, 10, 13, 19, 8]",9,3,"[14, 23, 29]",116.816437,9077,790,2,1,11,1.3554286578836865
basic,35,27,0,0,0,29,"[0, 15, 24, 17, 12, 10, 13, 19, 8, 29]",10,1,[14],57.61339652,10300,1223,1,0,11,1.248354519573802
basic,35,27,0,0,1,14,"[0, 15, 24, 17, 12, 10, 13, 19, 8, 29, 14]",11,0,[],13.31892734,11801,1501,1,0,11,1.562811097555156
basic,35,27,0,1,1,14,"[0, 15, 24, 17, 12, 10, 13, 19, 8, 29, 14]",11,0,[],13.31892734,14242,2441,1,0,11,1.562811097555156
basic,36,0,0,0,0,0,[0],1,27,"[2, 3, 4, 5, 6, 7, 8, 9, 10, 11, 12, 13, 14, 15, 16, 17, 19, 20, 21, 22, 23, 24, 25, 26, 27, 28, 29]",300,168,-1,104,1136,9,0.0
basic,36,0,0,0,0,20,"[0, 20]",2,25,"[2, 3, 4, 5, 6, 7, 8, 9, 11, 12, 13, 14, 15, 16, 17, 19, 21, 22, 23, 24, 25, 26, 27, 28, 29]",215.4955622,2027,1859,36,372,9,1.0
basic,36,0,0,0,0,5,"[0, 20, 5]",3,22,"[2, 3, 4, 7, 8, 9, 11, 12, 13, 14, 15, 16, 17, 19, 21, 22, 23, 24, 25, 26, 28, 29]",153.2942761,2870,843,33,251,9,1.0828244018179105
basic,36,0,0,0,0,4,"[0, 20, 5, 4]",4,19,"[2, 3, 7, 8, 9, 11, 12, 13, 14, 15, 17, 19, 21, 22, 23, 24, 25, 26, 28]",128.2144037,3873,1003,21,127,9,1.0973859443611045
basic,36,0,0,0,0,26,"[0, 20, 5, 4, 26]",5,14,"[3, 7, 8, 9, 11, 12, 13, 14, 15, 17, 19, 23, 24, 28]",116.1728091,4426,553,9,63,9,1.1378617460104323
basic,36,0,0,0,0,24,"[0, 20, 5, 4, 26, 24]",6,11,"[3, 7, 8, 9, 11, 12, 15, 17, 19, 23, 28]",99.05556633,5224,798,9,24,9,1.204469953325506
basic,36,0,0,0,0,15,"[0, 20, 5, 4, 26, 24, 15]",7,8,"[3, 7, 8, 9, 11, 12, 17, 19]",75.71033127,5974,750,5,6,9,1.1865351459643638
basic,36,0,0,0,0,7,"[0, 20, 5, 4, 26, 24, 15, 7]",8,2,"[3, 8]",44.64588214,7108,1134,2,0,9,1.2455705670301183
basic,36,0,0,0,1,8,"[0, 20, 5, 4, 26, 24, 15, 7, 8]",9,0,[],25.54090896,8423,1315,1,0,9,1.2337265013393985
basic,36,0,0,1,1,8,"[0, 20, 5, 4, 26, 24, 15, 7, 8]",9,0,[],25.54090896,10598,2175,1,0,9,1.2337265013393985
basic,37,10,0,0,0,0,[0],1,29,"[1, 2, 3, 4, 5, 6, 7, 8, 9, 10, 11, 12, 13, 14, 15, 16, 17, 18, 19, 20, 21, 22, 23, 24, 25, 26, 27, 28, 29]",300,226,-1,1,100,9,0.0
basic,37,10,0,0,0,13,"[0, 13]",2,25,"[1, 2, 3, 4, 6, 7, 8, 9, 10, 11, 12, 14, 17, 18, 19, 20, 21, 22, 23, 24, 25, 26, 27, 28, 29]",249.4628849,4701,4475,1,79,9,1.0
basic,37,10,0,0,0,19,"[0, 13, 19]",3,12,"[2, 6, 8, 9, 10, 11, 14, 18, 20, 24, 26, 27]",180.5861835,6143,1442,11,79,8,1.0000581961988606
basic,37,10,0,0,0,2,"[0, 13, 19, 2]",4,5,"[11, 14, 20, 26, 27]",136.6771867,7258,1115,3,9,8,1.000456581399483
basic,37,10,0,0,0,14,"[0, 13, 19, 2, 14]",5,4,"[11, 20, 26, 27]",124.5116616,8050,792,3,6,8,1.0972737011325653
basic,37,10,0,0,0,26,"[0, 13, 19, 2, 14, 26]",6,3,"[11, 20, 27]",89.84178999,9291,1241,3,1,8,1.5868342521575007
basic,37,10,0,0,0,11,"[0, 13, 19, 2, 14, 26, 11]",7,1,[20],48.08056395,10173,882,1,0,8,2.7772471764176028
basic,37,10,0,0,1,20,"[0, 13, 19, 2, 14, 26, 11, 20]",8,0,[],10.00169842,11225,1052,1,0,8,2.3959438836221785
basic,37,10,0,1,1,20,"[0, 13, 19, 2, 14, 26, 11, 20]",8,0,[],10.00169842,15212,3987,1,0,8,2.3959438836221785
basic,38,33,0,0,0,0,[0],1,23,"[1, 2, 5, 7, 8, 11, 12, 13, 14, 15, 16, 17, 18, 19, 20, 21, 23, 24, 25, 26, 27, 28, 29]",300,176,-1,5,108,9,0.0
basic,38,33,0,0,0,8,"[0, 8]",2,22,"[1, 2, 5, 7, 11, 12, 13, 14, 15, 16, 17, 18, 19, 20, 21, 23, 24, 25, 26, 27, 28, 29]",265.8679037,3725,3549,5,87,9,1.0
basic,38,33,0,0,0,21,"[0, 8, 21]",3,16,"[2, 5, 7, 11, 13, 14, 16, 17, 18, 19, 20, 24, 26, 27, 28, 29]",166.0430571,4758,1033,5,80,9,1.0670557763739492
basic,38,33,0,0,0,17,"[0, 8, 21, 17]",4,11,"[2, 7, 11, 13, 14, 16, 19, 20, 24, 26, 29]",127.4036989,6433,1675,1,18,9,1.0830294710276618
basic,38,33,0,0,0,13,"[0, 8, 21, 17, 13]",5,10,"[2, 7, 11, 14, 16, 19, 20, 24, 26, 29]",104.6001904,7413,980,1,10,9,1.2861654105061844
basic,38,33,0,0,0,19,"[0, 8, 21, 17, 13, 19]",6,6,"[7, 14, 16, 24, 26, 29]",79.10509282,8223,810,1,6,9,1.3181942666818214
basic,38,33,0,0,0,24,"[0, 8, 21, 17, 13, 19, 24]",7,1,[7],37.05750074,9032,809,1,0,8,1.2914654832859356
basic,38,33,0,0,1,7,"[0, 8, 21, 17, 13, 19, 24, 7]",8,0,[],7.851337003,10007,975,1,0,8,1.370940443464748
basic,38,33,0,1,1,7,"[0, 8, 21, 17, 13, 19, 24, 7]",8,0,[],7.851337003,17577,7570,1,0,8,1.370940443464748
basic,39,3,0,0,0,0,[0],1,29,"[1, 2, 3, 4, 5, 6, 7, 8, 9, 10, 11, 12, 13, 14, 15, 16, 17, 18, 19, 20, 21, 22, 23, 24, 25, 26, 27, 28, 29]",300,170,-1,34,427,10,0.0
basic,39,3,0,0,0,8,"[0, 8]",2,28,"[1, 2, 3, 4, 5, 6, 7, 9, 10, 11, 12, 13, 14, 15, 16, 17, 18, 19, 20, 21, 22, 23, 24, 25, 26, 27, 28, 29]",239.9666759,7530,7360,1,54,10,1.0
basic,39,3,0,0,0,24,"[0, 8, 24]",3,23,"[1, 2, 3, 4, 5, 6, 7, 10, 11, 12, 14, 15, 16, 17, 18, 19, 20, 21, 22, 25, 26, 27, 28]",227.8011509,8175,645,1,50,10,1.2267083825981846
basic,39,3,0,0,0,17,"[0, 8, 24, 17]",4,11,"[3, 4, 7, 10, 14, 15, 16, 19, 20, 21, 27]",158.4469873,9075,900,1,18,10,1.3836579788002414
basic,39,3,0,0,0,20,"[0, 8, 24, 17, 20]",5,9,"[3, 4, 7, 10, 14, 15, 16, 19, 21]",145.7978767,9828,753,1,14,10,1.3620097615632467
basic,39,3,0,0,0,3,"[0, 8, 24, 17, 20, 3]",6,5,"[4, 10, 14, 19, 21]",125.4017986,10611,783,1,11,10,1.3956695218398405
basic,39,3,0,0,0,19,"[0, 8, 24, 17, 20, 3, 19]",7,4,"[4, 10, 14, 21]",88.06548922,11793,1182,1,4,10,1.4360605238855817
basic,39,3,0,0,0,21,"[0, 8, 24, 17, 20, 3, 19, 21]",8,2,"[10, 14]",75.85893361,12522,729,1,1,10,1.4576450248605066
basic,39,3,0,0,0,14,"[0, 8, 24, 17, 20, 3, 19, 21, 14]",9,1,[10],48.95168551,13344,822,1,0,10,1.9505702217699148
basic,39,3,0,0,1,10,"[0, 8, 24, 17, 20, 3, 19, 21, 14, 10]",10,0,[],3.498412803,15347,2003,1,0,10,1.8830527336542522
basic,39,3,0,1,1,10,"[0, 8, 24, 17, 20, 3, 19, 21, 14, 10]",10,0,[],3.498412803,16232,885,1,0,10,1.8830527336542522
basic,40,2,0,0,0,0,[0],1,23,"[1, 2, 4, 5, 6, 7, 8, 9, 12, 13, 15, 16, 17, 18, 19, 20, 22, 23, 25, 26, 27, 28, 29]",300,162,-1,70,620,10,0.0
basic,40,2,0,0,0,19,"[0, 19]",2,22,"[1, 2, 4, 5, 6, 7, 8, 9, 12, 13, 15, 16, 17, 18, 20, 22, 23, 25, 26, 27, 28, 29]",210.306076,2291,2129,67,431,10,1.0
basic,40,2,0,0,0,12,"[0, 19, 12]",3,17,"[1, 4, 5, 6, 7, 13, 15, 16, 17, 18, 20, 22, 25, 26, 27, 28, 29]",174.2921898,3141,850,66,298,10,1.1107635036313153
basic,40,2,0,0,0,5,"[0, 19, 12, 5]",4,11,"[1, 6, 7, 13, 15, 16, 18, 22, 25, 26, 29]",144.7625437,4091,950,38,136,10,1.0968174771581647
basic,40,2,0,0,0,22,"[0, 19, 12, 5, 22]",5,8,"[1, 6, 7, 13, 15, 18, 26, 29]",131.9562952,4691,600,20,63,10,1.0889910507461968
basic,40,2,0,0,0,13,"[0, 19, 12, 5, 22, 13]",6,7,"[1, 6, 7, 15, 18, 26, 29]",117.0902265,5357,666,19,20,10,1.236526217328057
basic,40,2,0,0,0,18,"[0, 19, 12, 5, 22, 13, 18]",7,4,"[7, 15, 26, 29]",81.91921567,6189,832,10,3,10,1.2128708213409936
basic,40,2,0,0,0,7,"[0, 19, 12, 5, 22, 13, 18, 7]",8,3,"[15, 26, 29]",71.62358553,6941,752,5,0,10,1.2019811287894737
basic,40,2,0,0,0,15,"[0, 19, 12, 5, 22, 13, 18, 7, 15]",9,2,"[26, 29]",56.85876247,7757,816,2,0,10,1.2907869828541363
basic,40,2,0,0,1,26,"[0, 19, 12, 5, 22, 13, 18, 7, 15, 26]",10,0,[],32.6513256,8990,1233,1,0,10,1.2648554428941847
basic,40,2,0,1,1,26,"[0, 19, 12, 5, 22, 13, 18, 7, 15, 26]",10,0,[],32.6513256,10797,1807,1,0,10,1.2648554428941847
basic,41,25,0,0,0,0,[0],1,28,"[1, 2, 3, 4, 5, 7, 8, 9, 10, 11, 12, 13, 14, 15, 16, 17, 18, 19, 20, 21, 22, 23, 24, 25, 26, 27, 28, 29]",300,175,-1,5,94,10,0.0
basic,41,25,0,0,0,19,"[0, 19]",2,27,"[1, 2, 3, 4, 5, 7, 8, 9, 10, 11, 12, 13, 14, 15, 16, 17, 18, 20, 21, 22, 23, 24, 25, 26, 27, 28, 29]",251.9479449,5038,4863,2,30,10,1.0
basic,41,25,0,0,0,29,"[0, 19, 29]",3,26,"[1, 2, 3, 4, 5, 7, 8, 9, 10, 11, 12, 13, 14, 15, 16, 17, 18, 20, 21, 22, 23, 24, 25, 26, 27, 28]",235.6691243,5873,835,2,22,10,1.0272252084351727
basic,41,25,0,0,0,22,"[0, 19, 29, 22]",4,24,"[1, 2, 3, 4, 5, 7, 8, 9, 11, 12, 13, 14, 15, 16, 17, 18, 20, 21, 23, 24, 25, 26, 27, 28]",219.5446088,8472,2599,2,17,10,1.03988854593305
basic,41,25,0,0,0,7,"[0, 19, 29, 22, 7]",5,10,"[1, 3, 5, 8, 9, 11, 13, 23, 24, 28]",143.9007062,9804,1332,2,14,10,1.3318974800137366
basic,41,25,0,0,0,24,"[0, 19, 29, 22, 7, 24]",6,7,"[3, 8, 9, 11, 13, 23, 28]",119.1418694,10589,785,2,9,10,1.2868309735722725
basic,41,25,0,0,0,9,"[0, 19, 29, 22, 7, 24, 9]",7,4,"[3, 8, 13, 28]",101.114113,11199,610,2,7,10,1.2740198715343065
basic,41,25,0,0,0,3,"[0, 19, 29, 22, 7, 24, 9, 3]",8,3,"[8, 13, 28]",70.84862112,12015,816,2,1,10,1.2376259292234586
basic,41,25,0,0,0,28,"[0, 19, 29, 22, 7, 24, 9, 3, 28]",9,1,[13],39.54366943,13050,1035,1,0,10,1.203625519961748
basic,41,25,0,0,1,13,"[0, 19, 29, 22, 7, 24, 9, 3, 28, 13]",10,0,[],5.309183897,14168,1118,1,0,10,1.4620578920005771
basic,41,25,0,1,1,13,"[0, 19, 29, 22, 7, 24, 9, 3, 28, 13]",10,0,[],5.309183897,16643,2475,1,0,10,1.4620578920005771
basic,42,36,0,0,0,0,[0],1,24,"[2, 4, 5, 6, 7, 8, 9, 10, 12, 13, 14, 15, 16, 17, 18, 19, 20, 22, 23, 25, 26, 27, 28, 29]",300,221,-1,2,200,10,0.0
basic,42,36,0,0,0,12,"[0, 12]",2,23,"[2, 4, 5, 6, 7, 8, 9, 10, 13, 14, 15, 16, 17, 18, 19, 20, 22, 23, 25, 26, 27, 28, 29]",277.7963967,2857,2636,90,804,9,1.0
basic,42,36,0,0,0,9,"[0, 12, 9]",3,14,"[2, 4, 8, 10, 13, 16, 17, 18, 19, 23, 25, 27, 28, 29]",215.4345494,6241,3384,32,191,9,1.224429481246385
basic,42,36,0,0,0,19,"[0, 12, 9, 19]",4,13,"[2, 4, 8, 10, 13, 16, 17, 18, 23, 25, 27, 28, 29]",200.3018034,7123,882,14,61,9,1.293473472808712
basic,42,36,0,0,0,17,"[0, 12, 9, 19, 17]",5,8,"[2, 10, 13, 16, 18, 23, 25, 27]",172.4091521,8105,982,5,15,9,1.3499598639024968
basic,42,36,0,0,0,2,"[0, 12, 9, 19, 17, 2]",6,6,"[10, 13, 16, 18, 25, 27]",131.1780958,9010,905,2,3,9,1.4949360491624875
basic,42,36,0,0,0,25,"[0, 12, 9, 19, 17, 2, 25]",7,3,"[10, 13, 16]",106.1780958,10779,1769,1,2,9,1.6929129985884974
basic,42,36,0,0,0,13,"[0, 12, 9, 19, 17, 2, 25, 13]",8,1,[10],85.58683553,11586,807,1,0,9,2.1860692255369774
basic,42,36,0,0,1,10,"[0, 12, 9, 19, 17, 2, 25, 13, 10]",9,0,[],9.626319468,13509,1923,1,0,9,1.6695312782676606
basic,42,36,0,1,1,10,"[0, 12, 9, 19, 17, 2, 25, 13, 10]",9,0,[],9.626319468,15132,1623,1,0,9,1.6695312782676606
basic,43,31,0,0,0,0,[0],1,27,"[1, 3, 4, 5, 6, 7, 8, 10, 11, 12, 13, 14, 15, 16, 17, 18, 19, 20, 21, 22, 23, 24, 25, 26, 27, 28, 29]",300,197,-1,2,87,10,0.0
basic,43,31,0,0,0,14,"[0, 14]",2,25,"[1, 3, 5, 6, 7, 8, 10, 11, 12, 13, 15, 16, 17, 18, 19, 20, 21, 22, 23, 24, 25, 26, 27, 28, 29]",263.861378,2293,2096,2,59,10,1.0
basic,43,31,0,0,0,27,"[0, 14, 27]",3,22,"[1, 3, 5, 6, 7, 8, 10, 11, 12, 13, 15, 16, 17, 18, 19, 20, 21, 22, 24, 25, 28, 29]",235.6833724,3504,1211,1,39,10,1.5881859159302467
basic,43,31,0,0,0,8,"[0, 14, 27, 8]",4,20,"[1, 3, 5, 6, 7, 10, 11, 12, 13, 16, 17, 18, 19, 20, 21, 22, 24, 25, 28, 29]",224.6380114,4299,795,1,36,10,2.1665048452331277
basic,43,31,0,0,0,18,"[0, 14, 27, 8, 18]",5,15,"[1, 5, 6, 7, 11, 12, 13, 16, 17, 19, 20, 22, 25, 28, 29]",188.7911147,5486,1187,1,26,10,1.7273375741920205
basic,43,31,0,0,0,17,"[0, 14, 27, 8, 18, 17]",6,13,"[1, 5, 6, 7, 11, 12, 13, 16, 19, 20, 22, 25, 28]",159.584951,6289,803,1,13,10,1.551192427769927
basic,43,31,0,0,0,11,"[0, 14, 27, 8, 18, 17, 11]",7,7,"[5, 12, 16, 19, 22, 25, 28]",118.4753414,7192,903,1,4,10,2.9650760544203494
basic,43,31,0,0,0,5,"[0, 14, 27, 8, 18, 17, 11, 5]",8,2,"[16, 28]",74.79468207,8350,1158,1,1,10,2.56711965625205
basic,43,31,0,0,0,28,"[0, 14, 27, 8, 18, 17, 11, 5, 28]",9,1,[16],54.57093365,9168,818,1,0,10,2.2865510762058148
basic,43,31,0,0,1,16,"[0, 14, 27, 8, 18, 17, 11, 5, 28, 16]",10,0,[],20.95546102,10153,985,1,0,10,2.089356850786318
basic,43,31,0,1,1,16,"[0, 14, 27, 8, 18, 17, 11, 5, 28, 16]",10,0,[],20.95546102,11694,1541,1,0,10,2.089356850786318
basic,44,20,0,0,0,0,[0],1,21,"[1, 2, 3, 4, 5, 6, 7, 8, 9, 12, 17, 18, 20, 21, 22, 23, 25, 26, 27, 28, 29]",300,174,-1,1,9,9,0.0
basic,44,20,0,0,0,1,"[0, 1]",2,14,"[3, 4, 5, 6, 8, 9, 12, 20, 21, 23, 26, 27, 28, 29]",197.3501096,3003,2829,1,9,8,1.0
basic,44,20,0,0,0,5,"[0, 1, 5]",3,12,"[4, 6, 8, 9, 12, 20, 21, 23, 26, 27, 28, 29]",160.675868,4456,1453,1,8,8,1.1088946720668915
basic,44,20,0,0,0,21,"[0, 1, 5, 21]",4,8,"[4, 6, 8, 9, 20, 23, 27, 28]",115.675868,6281,1825,1,6,8,1.0805828994591202
basic,44,20,0,0,0,8,"[0, 1, 5, 21, 8]",5,5,"[6, 9, 23, 27, 28]",98.21161876,7126,845,1,5,8,1.0976815296746363
basic,44,20,0,0,0,23,"[0, 1, 5, 21, 8, 23]",6,3,"[6, 9, 27]",53.52381281,8048,922,1,2,8,1.0820667611140062
basic,44,20,0,0,0,9,"[0, 1, 5, 21, 8, 23, 9]",7,1,[6],34.3144401,9052,1004,1,0,8,1.0771429624373048
basic,44,20,0,0,1,6,"[0, 1, 5, 21, 8, 23, 9, 6]",8,0,[],11.29271124,10142,1090,1,0,8,1.0892675954154076
basic,44,20,0,1,1,6,"[0, 1, 5, 21, 8, 23, 9, 6]",8,0,[],11.29271124,11147,1005,1,0,8,1.0892675954154076
basic,45,15,0,0,0,0,[0],1,25,"[1, 2, 3, 4, 7, 8, 9, 10, 11, 12, 13, 14, 15, 16, 18, 20, 21, 22, 23, 24, 25, 26, 27, 28, 29]",300,179,-1,4,65,9,0.0
basic,45,15,0,0,0,7,"[0, 7]",2,23,"[1, 3, 4, 8, 9, 10, 11, 12, 13, 14, 15, 16, 18, 20, 21, 22, 23, 24, 25, 26, 27, 28, 29]",215.1884442,4752,4573,30,107,8,1.0
basic,45,15,0,0,0,16,"[0, 7, 16]",3,14,"[3, 4, 9, 10, 11, 12, 13, 14, 15, 18, 21, 22, 25, 27]",171.5306843,6706,1954,11,27,8,1.1253230463291073
basic,45,15,0,0,0,11,"[0, 7, 16, 11]",4,10,"[3, 4, 12, 13, 14, 15, 18, 21, 22, 27]",145.5114606,7657,951,6,10,8,1.2441772230587118
basic,45,15,0,0,0,3,"[0, 7, 16, 11, 3]",5,8,"[4, 12, 13, 14, 15, 18, 21, 22]",134.1097064,8492,835,6,4,8,1.253153736954923
basic,45,15,0,0,0,22,"[0, 7, 16, 11, 3, 22]",6,5,"[4, 13, 14, 15, 18]",84.38043933,9459,967,2,3,8,1.249784727890499
basic,45,15,0,0,0,15,"[0, 7, 16, 11, 3, 22, 15]",7,1,[13],58.76794238,10373,914,1,0,8,1.2283958862490272
basic,45,15,0,0,1,13,"[0, 7, 16, 11, 3, 22, 15, 13]",8,0,[],43.50360486,11782,1409,1,0,8,1.2803073001953094
basic,45,15,0,1,1,13,"[0, 7, 16, 11, 3, 22, 15, 13]",8,0,[],43.50360486,12545,763,1,0,8,1.2803073001953094
basic,46,17,0,0,0,0,[0],1,28,"[1, 2, 3, 4, 5, 6, 7, 8, 9, 10, 11, 12, 13, 14, 15, 16, 17, 18, 19, 20, 22, 23, 24, 25, 26, 27, 28, 29]",300,220,-1,2,73,8,0.0
basic,46,17,0,0,0,9,"[0, 9]",2,25,"[1, 2, 3, 5, 6, 7, 8, 10, 11, 12, 14, 15, 16, 17, 18, 19, 20, 22, 23, 24, 25, 26, 27, 28, 29]",210.5293344,2978,2758,1,34,8,1.0
basic,46,17,0,0,0,16,"[0, 9, 16]",3,21,"[1, 2, 3, 5, 7, 8, 10, 11, 12, 14, 17, 18, 19, 20, 22, 23, 25, 26, 27, 28, 29]",197.1876704,3709,731,1,26,8,1.173103464220352
basic,46,17,0,0,0,2,"[0, 9, 16, 2]",4,18,"[1, 3, 5, 7, 8, 10, 11, 12, 14, 17, 18, 19, 23, 25, 26, 27, 28, 29]",181.0631549,5343,1634,1,23,8,1.14825089247282
basic,46,17,0,0,0,17,"[0, 9, 16, 2, 17]",5,7,"[7, 8, 12, 14, 26, 27, 29]",142.7356191,6243,900,4,5,7,1.4896040699768547
basic,46,17,0,0,0,8,"[0, 9, 16, 2, 17, 8]",6,3,"[7, 12, 27]",104.5256727,7262,1019,3,0,7,1.4604726966175894
basic,46,17,0,0,1,7,"[0, 9, 16, 2, 17, 8, 7]",7,0,[],33.81499459,8260,998,1,0,7,1.4474701869793896
basic,46,17,0,1,1,7,"[0, 9, 16, 2, 17, 8, 7]",7,0,[],33.81499459,9049,789,1,0,7,1.4474701869793896
basic,47,24,0,0,0,0,[0],1,29,"[1, 2, 3, 4, 5, 6, 7, 8, 9, 10, 11, 12, 13, 14, 15, 16, 17, 18, 19, 20, 21, 22, 23, 24, 25, 26, 27, 28, 29]",300,191,-1,4,76,10,0.0
basic,47,24,0,0,0,16,"[0, 16]",2,28,"[1, 2, 3, 4, 5, 6, 7, 8, 9, 10, 11, 12, 13, 14, 15, 17, 18, 19, 20, 21, 22, 23, 24, 25, 26, 27, 28, 29]",210.3562607,2537,2346,13,110,9,1.0
basic,47,24,0,0,0,8,"[0, 16, 8]",3,22,"[1, 2, 3, 4, 6, 9, 10, 11, 13, 14, 15, 17, 20, 21, 22, 23, 24, 25, 26, 27, 28, 29]",181.3562607,3585,1048,3,31,9,1.0774669368510212
basic,47,24,0,0,0,22,"[0, 16, 8, 22]",4,18,"[2, 3, 4, 6, 9, 10, 11, 13, 14, 15, 17, 23, 24, 25, 26, 27, 28, 29]",167.9398528,4986,1401,3,23,9,1.2531772310046492
basic,47,24,0,0,0,15,"[0, 16, 8, 22, 15]",5,16,"[3, 4, 6, 9, 10, 11, 13, 14, 17, 23, 24, 25, 26, 27, 28, 29]",146.7266494,6206,1220,3,16,9,1.2813329946092564
basic,47,24,0,0,0,28,"[0, 16, 8, 22, 15, 28]",6,8,"[3, 4, 9, 11, 13, 23, 26, 27]",101.4497237,7385,1179,3,5,9,1.2060847818642253
basic,47,24,0,0,0,23,"[0, 16, 8, 22, 15, 28, 23]",7,3,"[9, 11, 27]",82.42342609,8154,769,3,1,9,1.2349355190066822
basic,47,24,0,0,0,11,"[0, 16, 8, 22, 15, 28, 23, 11]",8,2,"[9, 27]",55.49760206,9212,1058,2,0,9,1.2172586817191506
basic,47,24,0,0,1,27,"[0, 16, 8, 22, 15, 28, 23, 11, 27]",9,0,[],27.69472451,10165,953,1,0,9,1.192247579330137
basic,47,24,0,1,1,27,"[0, 16, 8, 22, 15, 28, 23, 11, 27]",9,0,[],27.69472451,11426,1261,1,0,9,1.192247579330137
basic,48,37,0,0,0,0,[0],1,29,"[1, 2, 3, 4, 5, 6, 7, 8, 9, 10, 11, 12, 13, 14, 15, 16, 17, 18, 19, 20, 21, 22, 23, 24, 25, 26, 27, 28, 29]",300,172,-1,6,168,10,0.0
basic,48,37,0,0,0,18,"[0, 18]",2,19,"[1, 2, 4, 6, 7, 9, 10, 12, 14, 15, 17, 19, 20, 21, 22, 23, 26, 28, 29]",202.4090168,2222,2050,6,89,10,1.0
basic,48,37,0,0,0,7,"[0, 18, 7]",3,12,"[1, 2, 4, 9, 15, 17, 19, 20, 21, 22, 26, 29]",175.2428614,2970,748,6,53,10,1.0413073512834488
basic,48,37,0,0,0,22,"[0, 18, 7, 22]",4,8,"[1, 2, 4, 15, 19, 20, 21, 26]",125.2428614,4031,1061,6,29,10,1.0730792320325544
basic,48,37,0,0,0,4,"[0, 18, 7, 22, 4]",5,7,"[1, 2, 15, 19, 20, 21, 26]",100.2428614,4803,772,4,16,10,1.2290245562206235
basic,48,37,0,0,0,2,"[0, 18, 7, 22, 4, 2]",6,5,"[1, 15, 19, 20, 21]",88.84110714,5454,651,4,7,10,1.3968113858365216
basic,48,37,0,0,0,1,"[0, 18, 7, 22, 4, 2, 1]",7,4,"[15, 19, 20, 21]",71.63645661,6206,752,4,3,10,1.4424239294761476
basic,48,37,0,0,0,15,"[0, 18, 7, 22, 4, 2, 1, 15]",8,2,"[20, 21]",31.67397421,7241,1035,2,0,10,1.612564167414217
basic,48,37,0,0,0,21,"[0, 18, 7, 22, 4, 2, 1, 15, 21]",9,1,[20],16.67397421,8237,996,1,0,10,1.8256316004901285
basic,48,37,0,0,1,20,"[0, 18, 7, 22, 4, 2, 1, 15, 21, 20]",10,0,[],2.251769103,9109,872,1,0,10,1.9863570569415172
basic,48,37,0,1,1,20,"[0, 18, 7, 22, 4, 2, 1, 15, 21, 20]",10,0,[],2.251769103,9910,801,1,0,10,1.9863570569415172
basic,49,9,0,0,0,0,[0],1,27,"[1, 3, 4, 5, 6, 7, 8, 9, 10, 11, 13, 14, 15, 16, 17, 18, 19, 20, 21, 22, 23, 24, 25, 26, 27, 28, 29]",300,157,-1,2,182,10,0.0
basic,49,9,0,0,0,9,"[0, 9]",2,26,"[1, 3, 4, 5, 6, 7, 8, 10, 11, 13, 14, 15, 16, 17, 18, 19, 20, 21, 22, 23, 24, 25, 26, 27, 28, 29]",225.5352432,3218,3061,2,101,9,1.0
basic,49,9,0,0,0,23,"[0, 9, 23]",3,22,"[1, 3, 4, 5, 7, 8, 10, 11, 13, 15, 16, 17, 18, 19, 20, 21, 22, 24, 25, 26, 27, 28]",203.1745635,4335,1117,2,70,9,1.6262276606762436
basic,49,9,0,0,0,8,"[0, 9, 23, 8]",4,18,"[3, 4, 5, 7, 10, 11, 15, 16, 17, 18, 19, 20, 21, 22, 25, 26, 27, 28]",181.7036529,5073,738,1,36,9,1.8547307061753238
basic,49,9,0,0,0,28,"[0, 9, 23, 8, 28]",5,17,"[3, 4, 5, 7, 10, 11, 15, 16, 17, 18, 19, 20, 21, 22, 25, 26, 27]",170.8869991,6533,1460,1,23,9,1.7382749966569708
basic,49,9,0,0,0,21,"[0, 9, 23, 8, 28, 21]",6,8,"[10, 16, 17, 18, 20, 22, 25, 26]",117.8869991,7739,1206,7,5,8,1.5363946588735553
basic,49,9,0,0,0,20,"[0, 9, 23, 8, 28, 21, 20]",7,5,"[10, 16, 17, 22, 26]",105.8039531,8683,944,5,0,8,1.5333390745950446
basic,49,9,0,0,1,10,"[0, 9, 23, 8, 28, 21, 20, 10]",8,0,[],23.34184059,14768,6085,1,0,8,5.091963790784078
basic,49,9,0,1,1,10,"[0, 9, 23, 8, 28, 21, 20, 10]",8,0,[],23.34184059,15626,858,1,0,8,5.091963790784078
basic,50,22,0,0,0,0,[0],1,29,"[1, 2, 3, 4, 5, 6, 7, 8, 9, 10, 11, 12, 13, 14, 15, 16, 17, 18, 19, 20, 21, 22, 23, 24, 25, 26, 27, 28, 29]",300,193,-1,31,704,9,0.0
basic,50,22,0,0,0,16,"[0, 16]",2,21,"[1, 3, 6, 7, 8, 9, 11, 13, 14, 15, 17, 18, 19, 20, 21, 22, 24, 25, 27, 28, 29]",218.605897,2068,1875,17,147,9,1.0
basic,50,22,0,0,0,28,"[0, 16, 28]",3,13,"[6, 7, 9, 13, 14, 17, 19, 20, 21, 22, 24, 25, 29]",184.1675463,2885,817,12,61,9,1.047282311284478
basic,50,22,0,0,0,6,"[0, 16, 28, 6]",4,12,"[7, 9, 13, 14, 17, 19, 20, 21, 22, 24, 25, 29]",154.1675463,3830,945,12,43,9,1.645645870580622
basic,50,22,0,0,0,9,"[0, 16, 28, 6, 9]",5,8,"[7, 14, 17, 19, 20, 21, 24, 29]",127.5404924,4979,1149,8,17,9,1.925750226630103
basic,50,22,0,0,0,19,"[0, 16, 28, 6, 9, 19]",6,6,"[7, 14, 17, 21, 24, 29]",107.1444143,6155,1176,3,7,9,2.4220750331476455
basic,50,22,0,0,0,29,"[0, 16, 28, 6, 9, 19, 29]",7,4,"[7, 14, 17, 24]",92.11111796,7199,1044,2,2,9,2.6996279574991067
basic,50,22,0,0,0,14,"[0, 16, 28, 6, 9, 19, 29, 14]",8,1,[7],33.86165444,8323,1124,1,0,9,2.0544639927929462
basic,50,22,0,0,1,7,"[0, 16, 28, 6, 9, 19, 29, 14, 7]",9,0,[],20.82324963,9156,833,1,0,9,2.219817088951114
basic,50,22,0,1,1,7,"[0, 16, 28, 6, 9, 19, 29, 14, 7]",9,0,[],20.82324963,10792,1636,1,0,9,2.219817088951114
basic,51,28,0,0,0,0,[0],1,27,"[1, 2, 3, 4, 5, 6, 7, 8, 9, 10, 11, 12, 13, 14, 15, 16, 17, 18, 19, 20, 22, 23, 25, 26, 27, 28, 29]",300,221,-1,2,96,9,0.0
basic,51,28,0,0,0,3,"[0, 3]",2,26,"[1, 2, 4, 5, 6, 7, 8, 9, 10, 11, 12, 13, 14, 15, 16, 17, 18, 19, 20, 22, 23, 25, 26, 27, 28, 29]",251.0817008,5605,5384,1,64,9,1.0
basic,51,28,0,0,0,14,"[0, 3, 14]",3,13,"[1, 2, 5, 7, 10, 11, 12, 13, 17, 18, 19, 20, 26]",142.7396498,6838,1233,19,59,8,1.0338694802207566
basic,51,28,0,0,0,18,"[0, 3, 14, 18]",4,10,"[1, 2, 5, 7, 11, 12, 13, 17, 19, 26]",117.2445523,7674,836,18,18,8,1.098527225277385
basic,51,28,0,0,0,13,"[0, 3, 14, 18, 13]",5,7,"[2, 7, 11, 12, 17, 19, 26]",92.83144103,8644,970,8,6,8,1.0872780601597938
basic,51,28,0,0,0,12,"[0, 3, 14, 18, 13, 12]",6,3,"[2, 7, 19]",75.6267905,9542,898,3,1,8,1.0890748557820906
basic,51,28,0,0,0,7,"[0, 3, 14, 18, 13, 12, 7]",7,2,"[2, 19]",62.47384406,10282,740,2,0,8,1.2125627495730145
basic,51,28,0,0,1,19,"[0, 3, 14, 18, 13, 12, 7, 19]",8,0,[],34.74299481,11105,823,1,0,8,1.4527925513951803
basic,51,28,0,1,1,19,"[0, 3, 14, 18, 13, 12, 7, 19]",8,0,[],34.74299481,28413,17308,1,0,8,1.4527925513951803
basic,52,13,0,0,0,0,[0],1,29,"[1, 2, 3, 4, 5, 6, 7, 8, 9, 10, 11, 12, 13, 14, 15, 16, 17, 18, 19, 20, 21, 22, 23, 24, 25, 26, 27, 28, 29]",300,197,-1,60,2676,11,0.0
basic,52,13,0,0,0,24,"[0, 24]",2,28,"[1, 2, 3, 4, 5, 6, 7, 8, 9, 10, 11, 12, 13, 14, 15, 16, 17, 18, 19, 20, 21, 22, 23, 25, 26, 27, 28, 29]",288.8196601,5221,5024,16,1444,11,1.0
basic,52,13,0,0,0,28,"[0, 24, 28]",3,23,"[1, 2, 3, 4, 6, 7, 8, 9, 10, 11, 12, 13, 15, 16, 17, 19, 20, 21, 22, 23, 26, 27, 29]",222.5324064,6202,981,8,243,11,1.0513810491680837
basic,52,13,0,0,0,2,"[0, 24, 28, 2]",4,19,"[1, 3, 4, 6, 7, 9, 11, 12, 13, 15, 16, 17, 19, 20, 21, 23, 26, 27, 29]",184.889346,7172,970,7,110,11,1.050374132001543
basic,52,13,0,0,0,29,"[0, 24, 28, 2, 29]",5,18,"[1, 3, 4, 6, 7, 9, 11, 12, 13, 15, 16, 17, 19, 20, 21, 23, 26, 27]",173.1846461,7953,781,7,85,11,1.1393409619120594
basic,52,13,0,0,0,7,"[0, 24, 28, 2, 29, 7]",6,17,"[1, 3, 4, 6, 9, 11, 12, 13, 15, 16, 17, 19, 20, 21, 23, 26, 27]",157.9203086,9637,1684,5,45,11,1.349777315111579
basic,52,13,0,0,0,26,"[0, 24, 28, 2, 29, 7, 26]",7,16,"[1, 3, 4, 6, 9, 11, 12, 13, 15, 16, 17, 19, 20, 21, 23, 27]",147.480002,10405,768,5,25,11,1.5942082773824946
basic,52,13,0,0,0,6,"[0, 24, 28, 2, 29, 7, 26, 6]",8,12,"[1, 3, 4, 11, 13, 15, 16, 17, 19, 20, 23, 27]",127.3802508,11271,866,4,12,11,1.5898347940840756
basic,52,13,0,0,0,11,"[0, 24, 28, 2, 29, 7, 26, 6, 11]",9,6,"[1, 13, 15, 16, 17, 23]",108.2752776,12169,898,3,4,11,1.5029953945561012
basic,52,13,0,0,0,13,"[0, 24, 28, 2, 29, 7, 26, 6, 11, 13]",10,2,"[15, 17]",52.19497806,16554,4385,2,0,11,1.3655915863754327
basic,52,13,0,0,1,17,"[0, 24, 28, 2, 29, 7, 26, 6, 11, 13, 17]",11,0,[],18.81833952,20426,3872,1,0,11,1.4149038511024103
basic,52,13,0,1,1,17,"[0, 24, 28, 2, 29, 7, 26, 6, 11, 13, 17]",11,0,[],18.81833952,21411,985,1,0,11,1.4149038511024103
basic,53,41,0,0,0,0,[0],1,29,"[1, 2, 3, 4, 5, 6, 7, 8, 9, 10, 11, 12, 13, 14, 15, 16, 17, 18, 19, 20, 21, 22, 23, 24, 25, 26, 27, 28, 29]",300,173,-1,1,143,10,0.0
basic,53,41,0,0,0,13,"[0, 13]",2,23,"[1, 2, 3, 5, 6, 7, 9, 10, 11, 12, 14, 15, 17, 18, 19, 20, 21, 22, 24, 25, 26, 27, 28]",258.2747079,11575,11402,1,55,10,1.0
basic,53,41,0,0,0,28,"[0, 13, 28]",3,22,"[1, 2, 3, 5, 6, 7, 9, 10, 11, 12, 14, 15, 17, 18, 19, 20, 21, 22, 24, 25, 26, 27]",223.7928286,12721,1146,1,39,10,1.895724242592676
basic,53,41,0,0,0,5,"[0, 13, 28, 5]",4,19,"[1, 2, 3, 6, 9, 10, 11, 12, 14, 15, 17, 18, 19, 20, 21, 22, 24, 25, 27]",210.1913581,13855,1134,1,34,10,2.861541269398273
basic,53,41,0,0,0,21,"[0, 13, 28, 5, 21]",5,16,"[1, 2, 3, 6, 9, 10, 12, 14, 17, 18, 19, 20, 22, 24, 25, 27]",148.4175773,17452,3597,1,17,9,3.1012785054212952
basic,53,41,0,0,0,9,"[0, 13, 28, 5, 21, 9]",6,8,"[1, 2, 3, 10, 12, 14, 17, 22]",99.05159707,21175,3723,1,6,9,2.441889931649791
basic,53,41,0,0,0,2,"[0, 13, 28, 5, 21, 9, 2]",7,5,"[1, 10, 12, 14, 17]",86.96855109,22209,1034,1,4,9,2.3545496405592203
basic,53,41,0,0,0,17,"[0, 13, 28, 5, 21, 9, 2, 17]",8,1,[10],54.4109099,23092,883,1,0,9,3.8743968581537125
basic,53,41,0,0,1,10,"[0, 13, 28, 5, 21, 9, 2, 17, 10]",9,0,[],5.166620893,23957,865,1,0,9,3.485067076798136
basic,53,41,0,1,1,10,"[0, 13, 28, 5, 21, 9, 2, 17, 10]",9,0,[],5.166620893,26398,2441,1,0,9,3.485067076798136
basic,54,8,0,0,0,0,[0],1,29,"[1, 2, 3, 4, 5, 6, 7, 8, 9, 10, 11, 12, 13, 14, 15, 16, 17, 18, 19, 20, 21, 22, 23, 24, 25, 26, 27, 28, 29]",300,176,-1,10,149,9,0.0
basic,54,8,0,0,0,5,"[0, 5]",2,28,"[1, 2, 3, 4, 6, 7, 8, 9, 10, 11, 12, 13, 14, 15, 16, 17, 18, 19, 20, 21, 22, 23, 24, 25, 26, 27, 28, 29]",254.5137383,3083,2907,10,100,9,1.0
basic,54,8,0,0,0,14,"[0, 5, 14]",3,20,"[1, 2, 3, 4, 6, 7, 11, 15, 16, 17, 18, 19, 20, 21, 22, 23, 24, 25, 28, 29]",214.5512559,7737,4654,4,36,9,1.0001019035932595
basic,54,8,0,0,0,17,"[0, 5, 14, 17]",4,15,"[1, 4, 6, 7, 11, 15, 16, 18, 19, 20, 22, 23, 24, 25, 28]",177.5377449,9169,1432,4,16,9,1.121197267659591
basic,54,8,0,0,0,11,"[0, 5, 14, 17, 11]",5,11,"[1, 4, 15, 16, 18, 19, 22, 23, 24, 25, 28]",152.3583883,10082,913,4,8,9,1.1277254166016362
basic,54,8,0,0,0,24,"[0, 5, 14, 17, 11, 24]",6,3,"[15, 16, 28]",115.1428001,11307,1225,2,2,9,1.1227411011978805
basic,54,8,0,0,0,15,"[0, 5, 14, 17, 11, 24, 15]",7,2,"[16, 28]",98.37974552,12120,813,2,0,9,1.1956385406066814
basic,54,8,0,0,0,16,"[0, 5, 14, 17, 11, 24, 15, 16]",8,1,[28],47.30137436,13153,1033,1,0,9,1.36482239111247
basic,54,8,0,0,1,28,"[0, 5, 14, 17, 11, 24, 15, 16, 28]",9,0,[],24.94069458,14187,1034,1,0,9,1.632953105226947
basic,54,8,0,1,1,28,"[0, 5, 14, 17, 11, 24, 15, 16, 28]",9,0,[],24.94069458,15027,840,1,0,9,1.632953105226947
basic,55,11,0,0,0,0,[0],1,25,"[1, 2, 3, 4, 5, 6, 8, 9, 10, 11, 12, 13, 14, 15, 16, 17, 18, 19, 20, 22, 23, 25, 26, 27, 28]",300,184,-1,6,374,12,0.0
basic,55,11,0,0,0,17,"[0, 17]",2,18,"[1, 2, 4, 5, 6, 8, 10, 11, 12, 15, 18, 19, 22, 23, 25, 26, 27, 28]",152.9217895,4993,4809,218,762,9,1.0
basic,55,11,0,0,0,8,"[0, 17, 8]",3,15,"[1, 2, 4, 5, 6, 11, 12, 15, 18, 19, 22, 23, 25, 27, 28]",138.6039684,5970,977,95,263,9,1.1114912532636003
basic,55,11,0,0,0,15,"[0, 17, 8, 15]",4,11,"[2, 5, 6, 11, 12, 18, 19, 22, 25, 27, 28]",125.1503444,7229,1259,62,51,9,1.1146194627724886
basic,55,11,0,0,0,11,"[0, 17, 8, 15, 11]",5,9,"[2, 5, 6, 12, 19, 22, 25, 27, 28]",107.0395741,8274,1045,24,2,9,1.1130192047684102
basic,55,11,0,0,0,28,"[0, 17, 8, 15, 11, 28]",6,4,"[2, 5, 19, 22]",87.62308629,10508,2234,6,2,9,1.2290091933070886
basic,55,11,0,0,0,2,"[0, 17, 8, 15, 11, 28, 2]",7,3,"[5, 19, 22]",76.99294047,12358,1850,2,1,9,1.2494226000258029
basic,55,11,0,0,0,22,"[0, 17, 8, 15, 11, 28, 2, 22]",8,1,[5],66.94306485,13092,734,1,0,9,1.2361545496649002
basic,55,11,0,0,1,5,"[0, 17, 8, 15, 11, 28, 2, 22, 5]",9,0,[],40.37240434,14711,1619,1,0,9,1.595813315469223
basic,55,11,0,1,1,5,"[0, 17, 8, 15, 11, 28, 2, 22, 5]",9,0,[],40.37240434,19133,4422,1,0,9,1.595813315469223
basic,56,18,0,0,0,0,[0],1,28,"[1, 2, 3, 4, 5, 6, 7, 8, 9, 10, 11, 12, 13, 14, 16, 17, 18, 19, 20, 21, 22, 23, 24, 25, 26, 27, 28, 29]",300,178,-1,3,136,10,0.0
basic,56,18,0,0,0,28,"[0, 28]",2,16,"[1, 3, 5, 7, 8, 9, 12, 13, 14, 16, 20, 23, 24, 25, 26, 27]",236.4311397,2155,1977,2,19,10,1.0
basic,56,18,0,0,0,7,"[0, 28, 7]",3,15,"[1, 3, 5, 8, 9, 12, 13, 14, 16, 20, 23, 24, 25, 26, 27]",214.4084242,3061,906,2,17,10,1.4345180696367563
basic,56,18,0,0,0,25,"[0, 28, 7, 25]",4,13,"[1, 3, 5, 8, 9, 12, 13, 14, 16, 20, 23, 26, 27]",186.6055466,4138,1077,2,15,10,1.8896451241781882
basic,56,18,0,0,0,8,"[0, 28, 7, 25, 8]",5,10,"[3, 5, 9, 12, 13, 14, 16, 23, 26, 27]",149.551532,5089,951,2,10,10,1.590467437592877
basic,56,18,0,0,0,13,"[0, 28, 7, 25, 8, 13]",6,9,"[3, 5, 9, 12, 14, 16, 23, 26, 27]",128.4565089,5855,766,2,5,10,1.8248274983549797
basic,56,18,0,0,0,14,"[0, 28, 7, 25, 8, 13, 14]",7,7,"[3, 5, 9, 12, 23, 26, 27]",109.4828429,6709,854,2,3,10,1.6993534956692746
basic,56,18,0,0,0,3,"[0, 28, 7, 25, 8, 13, 14, 3]",8,3,"[5, 12, 27]",79.39962499,7474,765,2,1,10,1.802637206541468
basic,56,18,0,0,0,5,"[0, 28, 7, 25, 8, 13, 14, 3, 5]",9,1,[12],21.21887216,8475,1001,1,0,10,1.559774889743805
basic,56,18,0,0,1,12,"[0, 28, 7, 25, 8, 13, 14, 3, 5, 12]",10,0,[],9.817117911,9599,1124,1,0,10,1.563993037384447
basic,56,18,0,1,1,12,"[0, 28, 7, 25, 8, 13, 14, 3, 5, 12]",10,0,[],9.817117911,12561,2962,1,0,10,1.563993037384447
basic,57,43,0,0,0,0,[0],1,23,"[1, 2, 3, 4, 5, 6, 7, 9, 10, 11, 12, 14, 15, 16, 17, 19, 20, 21, 22, 23, 25, 27, 29]",300,167,-1,16,556,12,0.0
basic,57,43,0,0,0,29,"[0, 29]",2,22,"[1, 2, 3, 4, 5, 6, 7, 9, 10, 11, 12, 14, 15, 16, 17, 19, 20, 21, 22, 23, 25, 27]",277.909278,8053,7886,16,520,12,1.0
basic,57,43,0,0,0,20,"[0, 29, 20]",3,20,"[1, 2, 3, 4, 6, 7, 9, 10, 11, 12, 14, 15, 16, 17, 19, 21, 22, 23, 25, 27]",254.4785289,11372,3319,15,422,12,1.082311746871282
basic,57,43,0,0,0,16,"[0, 29, 20, 16]",4,19,"[1, 2, 3, 4, 6, 7, 9, 10, 11, 12, 14, 15, 17, 19, 21, 22, 23, 25, 27]",231.8511119,12541,1169,15,389,12,1.215201926898219
basic,57,43,0,0,0,25,"[0, 29, 20, 16, 25]",5,14,"[1, 2, 3, 4, 6, 7, 9, 11, 12, 14, 15, 19, 22, 23]",175.7708124,13791,1250,53,282,11,1.566384303308987
basic,57,43,0,0,0,15,"[0, 29, 20, 16, 25, 15]",6,13,"[1, 2, 3, 4, 6, 7, 9, 11, 12, 14, 19, 22, 23]",153.0992443,14854,1063,27,108,11,1.776736412604812
basic,57,43,0,0,0,12,"[0, 29, 20, 16, 25, 15, 12]",7,10,"[1, 3, 6, 7, 9, 11, 14, 19, 22, 23]",133.7860364,15590,736,21,41,11,1.6813323012225032
basic,57,43,0,0,0,3,"[0, 29, 20, 16, 25, 15, 12, 3]",8,9,"[1, 6, 7, 9, 11, 14, 19, 22, 23]",120.7860364,16450,860,20,12,11,1.608740348096123
basic,57,43,0,0,0,22,"[0, 29, 20, 16, 25, 15, 12, 3, 22]",9,6,"[1, 6, 7, 11, 14, 19]",86.07292644,17606,1156,9,2,11,1.793657891802588
basic,57,43,0,0,0,19,"[0, 29, 20, 16, 25, 15, 12, 3, 22, 19]",10,3,"[1, 6, 7]",65.45739831,18523,917,3,0,11,1.6882745891803936
basic,57,43,0,0,1,1,"[0, 29, 20, 16, 25, 15, 12, 3, 22, 19, 1]",11,0,[],37.2793927,19574,1051,1,0,11,1.825064866046553
basic,57,43,0,1,1,1,"[0, 29, 20, 16, 25, 15, 12, 3, 22, 19, 1]",11,0,[],37.2793927,22581,3007,1,0,11,1.825064866046553
basic,58,29,0,0,0,0,[0],1,29,"[1, 2, 3, 4, 5, 6, 7, 8, 9, 10, 11, 12, 13, 14, 15, 16, 17, 18, 19, 20, 21, 22, 23, 24, 25, 26, 27, 28, 29]",300,198,-1,1,78,9,0.0
basic,58,29,0,0,0,6,"[0, 6]",2,28,"[1, 2, 3, 4, 5, 7, 8, 9, 10, 11, 12, 13, 14, 15, 16, 17, 18, 19, 20, 21, 22, 23, 24, 25, 26, 27, 28, 29]",228.4108947,3518,3320,1,25,9,1.0
basic,58,29,0,0,0,28,"[0, 6, 28]",3,24,"[1, 3, 4, 5, 7, 9, 10, 11, 12, 13, 14, 15, 16, 17, 18, 20, 21, 22, 23, 24, 25, 26, 27, 29]",187.1798384,4535,1017,1,22,9,1.162106788166845
basic,58,29,0,0,0,27,"[0, 6, 28, 27]",4,19,"[1, 3, 4, 5, 7, 9, 10, 11, 12, 13, 14, 15, 16, 21, 22, 23, 25, 26, 29]",166.6615539,5418,883,1,21,9,1.2307173895439045
basic,58,29,0,0,0,22,"[0, 6, 28, 27, 22]",5,13,"[1, 3, 4, 5, 7, 9, 12, 13, 14, 15, 21, 26, 29]",133.4200136,6398,980,1,19,9,1.4241767805149903
basic,58,29,0,0,0,12,"[0, 6, 28, 27, 22, 12]",6,8,"[4, 5, 7, 9, 13, 14, 21, 26]",95.4726817,7686,1288,1,6,9,1.3248355326460857
basic,58,29,0,0,0,7,"[0, 6, 28, 27, 22, 12, 7]",7,4,"[4, 5, 9, 21]",81.87121119,8671,985,1,3,9,1.3264091962339806
basic,58,29,0,0,0,9,"[0, 6, 28, 27, 22, 12, 7, 9]",8,1,[4],52.80232748,11617,2946,1,0,9,1.309391257644539
basic,58,29,0,0,1,4,"[0, 6, 28, 27, 22, 12, 7, 9, 4]",9,0,[],11.76575843,12701,1084,1,0,9,1.6396807789841599
basic,58,29,0,1,1,4,"[0, 6, 28, 27, 22, 12, 7, 9, 4]",9,0,[],11.76575843,13642,941,1,0,9,1.6396807789841599
basic,59,1,0,0,0,0,[0],1,26,"[1, 2, 4, 5, 7, 8, 9, 10, 11, 12, 13, 14, 15, 16, 17, 18, 19, 20, 21, 22, 23, 24, 25, 26, 28, 29]",300,202,-1,6,74,7,0.0
basic,59,1,0,0,0,14,"[0, 14]",2,19,"[1, 4, 5, 8, 9, 13, 15, 17, 18, 19, 20, 21, 22, 23, 24, 25, 26, 28, 29]",200.1901808,8139,7937,5,42,7,1.0
basic,59,1,0,0,0,17,"[0, 14, 17]",3,15,"[1, 4, 5, 8, 9, 13, 15, 18, 19, 20, 22, 23, 25, 28, 29]",147.8356204,9321,1182,5,27,7,1.0028844724416826
basic,59,1,0,0,0,1,"[0, 14, 17, 1]",4,12,"[4, 5, 8, 9, 15, 18, 20, 22, 23, 25, 28, 29]",123.4840291,10291,970,5,15,7,1.0264985578353567
basic,59,1,0,0,0,28,"[0, 14, 17, 1, 28]",5,5,"[9, 15, 22, 23, 29]",88.59850198,11254,963,5,3,7,1.0339861575999345
basic,59,1,0,0,0,23,"[0, 14, 17, 1, 28, 23]",6,2,"[15, 22]",51.70676849,12435,1181,2,0,7,1.0327458250705703
basic,59,1,0,0,1,15,"[0, 14, 17, 1, 28, 23, 15]",7,0,[],20.81987807,13305,870,1,0,7,1.1948681641401226
basic,59,1,0,1,1,15,"[0, 14, 17, 1, 28, 23, 15]",7,0,[],20.81987807,14094,789,1,0,7,1.1948681641401226
basic,60,14,0,0,0,0,[0],1,29,"[1, 2, 3, 4, 5, 6, 7, 8, 9, 10, 11, 12, 13, 14, 15, 16, 17, 18, 19, 20, 21, 22, 23, 24, 25, 26, 27, 28, 29]",300,160,-1,8,157,10,0.0
basic,60,14,0,0,0,18,"[0, 18]",2,17,"[1, 2, 3, 4, 7, 8, 9, 13, 15, 17, 19, 20, 22, 23, 25, 26, 28]",179.8958785,3332,3172,18,136,9,1.0
basic,60,14,0,0,0,8,"[0, 18, 8]",3,13,"[1, 2, 4, 7, 13, 15, 17, 19, 20, 23, 25, 26, 28]",166.294408,4369,1037,18,99,9,1.0203858410107731
basic,60,14,0,0,0,1,"[0, 18, 8, 1]",4,10,"[2, 4, 7, 15, 17, 19, 23, 25, 26, 28]",142.6935606,5271,902,11,42,9,1.0173392374431458
basic,60,14,0,0,0,19,"[0, 18, 8, 1, 19]",5,9,"[2, 4, 7, 15, 17, 23, 25, 26, 28]",127.4620143,5966,695,11,22,9,1.1668364376922102
basic,60,14,0,0,0,26,"[0, 18, 8, 1, 19, 26]",6,4,"[4, 7, 23, 25]",74.23608081,7810,1844,2,4,9,1.1379310743287543
basic,60,14,0,0,0,23,"[0, 18, 8, 1, 19, 26, 23]",7,3,"[4, 7, 25]",63.41942699,8610,800,2,1,9,1.25860317400474
basic,60,14,0,0,0,25,"[0, 18, 8, 1, 19, 26, 23, 25]",8,1,[7],34.00854465,9740,1130,1,0,9,1.6250439771619034
basic,60,14,0,0,1,7,"[0, 18, 8, 1, 19, 26, 23, 25, 7]",9,0,[],14.31082904,10589,849,1,0,9,1.6358514342320594
basic,60,14,0,1,1,7,"[0, 18, 8, 1, 19, 26, 23, 25, 7]",9,0,[],14.31082904,14046,3457,1,0,9,1.6358514342320594
basic,61,19,0,0,0,0,[0],1,29,"[1, 2, 3, 4, 5, 6, 7, 8, 9, 10, 11, 12, 13, 14, 15, 16, 17, 18, 19, 20, 21, 22, 23, 24, 25, 26, 27, 28, 29]",300,180,-1,12,149,8,0.0
basic,61,19,0,0,0,28,"[0, 28]",2,10,"[4, 6, 9, 10, 11, 14, 20, 22, 24, 27]",136.1219966,13858,13678,2,14,7,1.0
basic,61,19,0,0,0,4,"[0, 28, 4]",3,9,"[6, 9, 10, 11, 14, 20, 22, 24, 27]",124.9416567,14992,1134,2,10,7,1.0622089009735736
basic,61,19,0,0,0,6,"[0, 28, 4, 6]",4,6,"[9, 10, 11, 14, 20, 22]",83.8929052,16032,1040,3,3,6,1.40572513219456
basic,61,19,0,0,0,14,"[0, 28, 4, 6, 14]",5,1,[11],24.21041196,16826,794,1,0,6,1.3187977465746819
basic,61,19,0,0,1,11,"[0, 28, 4, 6, 14, 11]",6,0,[],13.39375813,17476,650,1,0,6,1.3071789086282821
basic,61,19,0,1,1,11,"[0, 28, 4, 6, 14, 11]",6,0,[],13.39375813,37701,20225,1,0,6,1.3071789086282821
basic,62,30,0,0,0,0,[0],1,19,"[3, 4, 5, 7, 9, 11, 16, 17, 18, 19, 20, 21, 22, 24, 25, 26, 27, 28, 29]",300,163,-1,5,41,8,0.0
basic,62,30,0,0,0,25,"[0, 25]",2,12,"[3, 5, 7, 9, 11, 16, 18, 19, 20, 24, 27, 29]",121.1005869,2060,1897,7,37,7,1.0
basic,62,30,0,0,0,27,"[0, 25, 27]",3,8,"[3, 5, 7, 18, 19, 20, 24, 29]",81.54050603,6711,4651,2,17,7,1.0432445497342653
basic,62,30,0,0,0,3,"[0, 25, 27, 3]",4,5,"[5, 7, 18, 20, 29]",62.43553286,8288,1577,2,6,7,1.0419393955972533
basic,62,30,0,0,0,29,"[0, 25, 27, 3, 29]",5,3,"[5, 7, 18]",43.83445762,9605,1317,1,2,7,1.0521853644580021
basic,62,30,0,0,0,18,"[0, 25, 27, 3, 29, 18]",6,1,[5],24.5212497,10562,957,1,0,7,1.1278751785159948
basic,62,30,0,0,1,5,"[0, 25, 27, 3, 29, 18, 5]",7,0,[],11.48284489,11326,764,1,0,7,1.1931367962604076
basic,62,30,0,1,1,5,"[0, 25, 27, 3, 29, 18, 5]",7,0,[],11.48284489,12464,1138,1,0,7,1.1931367962604076
basic,63,35,0,0,0,0,[0],1,29,"[1, 2, 3, 4, 5, 6, 7, 8, 9, 10, 11, 12, 13, 14, 15, 16, 17, 18, 19, 20, 21, 22, 23, 24, 25, 26, 27, 28, 29]",300,216,-1,5,236,11,0.0
basic,63,35,0,0,0,24,"[0, 24]",2,27,"[1, 2, 4, 5, 6, 7, 8, 9, 10, 11, 12, 13, 14, 15, 16, 17, 18, 19, 20, 21, 22, 23, 25, 26, 27, 28, 29]",268.9838752,3888,3672,49,512,10,1.0
basic,63,35,0,0,0,17,"[0, 24, 17]",3,26,"[1, 2, 4, 5, 6, 7, 8, 9, 10, 11, 12, 13, 14, 15, 16, 18, 19, 20, 21, 22, 23, 25, 26, 27, 28, 29]",257.2791753,4571,683,33,238,10,1.0771477201815276
basic,63,35,0,0,0,1,"[0, 24, 17, 1]",4,25,"[2, 4, 5, 6, 7, 8, 9, 10, 11, 12, 13, 14, 15, 16, 18, 19, 20, 21, 22, 23, 25, 26, 27, 28, 29]",241.4677869,5451,880,26,151,10,1.2244804141479215
basic,63,35,0,0,0,15,"[0, 24, 17, 1, 15]",5,23,"[2, 4, 5, 6, 7, 8, 9, 10, 11, 12, 14, 16, 18, 19, 20, 21, 22, 23, 25, 26, 27, 28, 29]",218.6204676,6172,721,26,78,10,1.4642196672428094
basic,63,35,0,0,0,23,"[0, 24, 17, 1, 15, 23]",6,11,"[4, 5, 6, 9, 18, 19, 25, 26, 27, 28, 29]",158.1804147,7626,1454,15,12,10,1.3338903684702363
basic,63,35,0,0,0,9,"[0, 24, 17, 1, 15, 23, 9]",7,6,"[5, 6, 18, 19, 25, 27]",120.5373542,8508,882,6,1,10,1.5964380615155294
basic,63,35,0,0,0,18,"[0, 24, 17, 1, 15, 23, 9, 18]",8,3,"[5, 6, 25]",100.5123698,9422,914,2,1,10,1.5508488101942703
basic,63,35,0,0,0,25,"[0, 24, 17, 1, 15, 23, 9, 18, 25]",9,1,[6],66.67452121,14268,4846,1,0,10,1.4408023801578587
basic,63,35,0,0,1,6,"[0, 24, 17, 1, 15, 23, 9, 18, 25, 6]",10,0,[],42.65369691,15394,1126,1,0,10,1.701781671832088
basic,63,35,0,1,1,6,"[0, 24, 17, 1, 15, 23, 9, 18, 25, 6]",10,0,[],42.65369691,17014,1620,1,0,10,1.701781671832088
basic,64,44,0,0,0,0,[0],1,29,"[1, 2, 3, 4, 5, 6, 7, 8, 9, 10, 11, 12, 13, 14, 15, 16, 17, 18, 19, 20, 21, 22, 23, 24, 25, 26, 27, 28, 29]",300,195,-1,13,126,7,0.0
basic,64,44,0,0,0,9,"[0, 9]",2,17,"[2, 4, 5, 7, 8, 10, 11, 12, 13, 14, 20, 22, 23, 24, 25, 26, 28]",141.32423,3774,3579,3,26,7,1.0
basic,64,44,0,0,0,4,"[0, 9, 4]",3,15,"[2, 5, 7, 8, 10, 11, 12, 14, 20, 22, 23, 24, 25, 26, 28]",121.6265143,4486,712,3,21,7,1.0155532843148096
basic,64,44,0,0,0,7,"[0, 9, 4, 7]",4,10,"[2, 5, 11, 12, 14, 23, 24, 25, 26, 28]",90.61038951,5526,1040,3,9,7,1.0134022837125412
basic,64,44,0,0,0,23,"[0, 9, 4, 7, 23]",5,7,"[5, 12, 14, 24, 25, 26, 28]",71.50541634,8243,2717,3,4,7,1.043310757564056
basic,64,44,0,0,0,28,"[0, 9, 4, 7, 23, 28]",6,1,[26],19.5342705,9546,1303,1,0,7,1.0580072524850708
basic,64,44,0,0,1,26,"[0, 9, 4, 7, 23, 28, 26]",7,0,[],6.534270496,10257,711,1,0,7,1.055488728885845
basic,64,44,0,1,1,26,"[0, 9, 4, 7, 23, 28, 26]",7,0,[],6.534270496,11781,1524,1,0,7,1.055488728885845
basic,65,26,0,0,0,0,[0],1,29,"[1, 2, 3, 4, 5, 6, 7, 8, 9, 10, 11, 12, 13, 14, 15, 16, 17, 18, 19, 20, 21, 22, 23, 24, 25, 26, 27, 28, 29]",300,227,-1,9,226,9,0.0
basic,65,26,0,0,0,4,"[0, 4]",2,13,"[5, 6, 10, 12, 13, 14, 16, 17, 19, 21, 23, 26, 29]",178.7976898,7305,7078,4,118,8,1.0
basic,65,26,0,0,0,17,"[0, 4, 17]",3,10,"[5, 6, 10, 12, 13, 14, 16, 21, 23, 29]",157.7026667,8272,967,1,35,8,1.0014732588101924
basic,65,26,0,0,0,6,"[0, 4, 17, 6]",4,6,"[10, 14, 16, 21, 23, 29]",137.5780549,9085,813,10,11,7,1.011273258075741
basic,65,26,0,0,0,14,"[0, 4, 17, 6, 14]",5,4,"[10, 16, 23, 29]",116.5542588,9723,638,5,2,7,1.1383391147196797
basic,65,26,0,0,0,29,"[0, 4, 17, 6, 14, 29]",6,3,"[10, 16, 23]",75.32320259,10606,883,3,0,7,1.8387738585921345
basic,65,26,0,0,1,16,"[0, 4, 17, 6, 14, 29, 16]",7,0,[],51.11576571,11407,801,1,0,7,2.2232443318112174
basic,65,26,0,1,1,16,"[0, 4, 17, 6, 14, 29, 16]",7,0,[],51.11576571,12162,755,1,0,7,2.2232443318112174
basic,66,4,0,0,0,0,[0],1,26,"[3, 4, 5, 6, 7, 8, 10, 11, 12, 13, 14, 15, 16, 17, 18, 19, 20, 21, 22, 23, 24, 25, 26, 27, 28, 29]",300,192,-1,4,489,10,0.0
basic,66,4,0,0,0,28,"[0, 28]",2,21,"[3, 4, 5, 6, 10, 11, 12, 13, 14, 15, 16, 17, 19, 20, 21, 22, 23, 24, 25, 26, 27]",225.9392142,5140,4948,2,216,10,1.0
basic,66,4,0,0,0,14,"[0, 28, 14]",3,13,"[3, 4, 5, 6, 11, 13, 16, 17, 20, 21, 22, 24, 25]",159.6972335,6143,1003,1,26,10,1.0273973946789214
basic,66,4,0,0,0,25,"[0, 28, 14, 25]",4,12,"[3, 4, 5, 6, 11, 13, 16, 17, 20, 21, 22, 24]",143.572718,6977,834,1,25,10,1.233547772313525
basic,66,4,0,0,0,11,"[0, 28, 14, 25, 11]",5,10,"[3, 4, 5, 6, 13, 16, 17, 20, 21, 22]",124.7844238,7804,827,1,15,10,1.425978575879479
basic,66,4,0,0,0,16,"[0, 28, 14, 25, 11, 16]",6,9,"[3, 4, 5, 6, 13, 17, 20, 21, 22]",109.7844238,8421,617,1,12,10,1.3799325158051412
basic,66,4,0,0,0,3,"[0, 28, 14, 25, 11, 16, 3]",7,2,"[17, 20]",68.15510719,9509,1088,1,1,9,1.3292844629725955
basic,66,4,0,0,0,17,"[0, 28, 14, 25, 11, 16, 3, 17]",8,1,[20],43.63980585,10733,1224,1,0,9,1.5639571149270572
basic,66,4,0,0,1,20,"[0, 28, 14, 25, 11, 16, 3, 17, 20]",9,0,[],3.415435124,12883,2150,1,0,9,1.6231058358944275
basic,66,4,0,1,1,20,"[0, 28, 14, 25, 11, 16, 3, 17, 20]",9,0,[],3.415435124,14295,1412,1,0,9,1.6231058358944275
basic,67,40,0,0,0,0,[0],1,29,"[1, 2, 3, 4, 5, 6, 7, 8, 9, 10, 11, 12, 13, 14, 15, 16, 17, 18, 19, 20, 21, 22, 23, 24, 25, 26, 27, 28, 29]",300,180,-1,8,191,9,0.0
basic,67,40,0,0,0,1,"[0, 1]",2,18,"[2, 5, 6, 7, 8, 9, 10, 11, 13, 15, 17, 18, 19, 21, 22, 23, 27, 29]",247.8463808,6868,6688,4,80,9,1.0
basic,67,40,0,0,0,6,"[0, 1, 6]",3,17,"[2, 5, 7, 8, 9, 10, 11, 13, 15, 17, 18, 19, 21, 22, 23, 27, 29]",227.7466295,7724,856,4,74,9,1.0459427008232034
basic,67,40,0,0,0,21,"[0, 1, 6, 21]",4,8,"[2, 5, 9, 17, 18, 19, 22, 23]",175.7754837,9523,1799,4,25,9,1.0308822257404064
basic,67,40,0,0,0,9,"[0, 1, 6, 21, 9]",5,6,"[2, 5, 18, 19, 22, 23]",130.0699041,10410,887,4,12,9,1.377861912961129
basic,67,40,0,0,0,18,"[0, 1, 6, 21, 9, 18]",6,5,"[2, 5, 19, 22, 23]",113.5169588,13487,3077,4,4,9,1.5742712168661408
basic,67,40,0,0,0,23,"[0, 1, 6, 21, 9, 18, 23]",7,3,"[2, 5, 19]",79.51695879,14545,1058,2,1,9,2.324611956726637
basic,67,40,0,0,0,5,"[0, 1, 6, 21, 9, 18, 23, 5]",8,1,[19],51.21501539,15491,946,1,0,9,2.022909590433451
basic,67,40,0,0,1,19,"[0, 1, 6, 21, 9, 18, 23, 5, 19]",9,0,[],13.13614986,16435,944,1,0,9,2.796177718843732
basic,67,40,0,1,1,19,"[0, 1, 6, 21, 9, 18, 23, 5, 19]",9,0,[],13.13614986,17331,896,1,0,9,2.796177718843732
basic,68,34,0,0,0,0,[0],1,25,"[1, 3, 4, 5, 6, 7, 8, 9, 10, 11, 12, 13, 15, 18, 19, 20, 21, 22, 23, 24, 25, 26, 27, 28, 29]",300,197,-1,12,367,10,0.0
basic,68,34,0,0,0,13,"[0, 13]",2,24,"[1, 3, 4, 5, 6, 7, 8, 9, 10, 11, 12, 15, 18, 19, 20, 21, 22, 23, 24, 25, 26, 27, 28, 29]",279.9750156,2041,1844,12,331,10,1.0
basic,68,34,0,0,0,1,"[0, 13, 1]",3,16,"[3, 5, 7, 8, 9, 10, 11, 12, 19, 21, 22, 23, 24, 25, 27, 29]",211.8574701,2924,883,3,92,10,1.0010381285747127
basic,68,34,0,0,0,8,"[0, 13, 1, 8]",4,14,"[3, 5, 7, 9, 10, 11, 12, 19, 22, 23, 24, 25, 27, 29]",201.0871405,3521,597,2,54,10,1.1636807
basic,68,34,0,0,0,25,"[0, 13, 1, 8, 25]",5,12,"[3, 5, 7, 9, 10, 11, 12, 22, 23, 24, 27, 29]",183.999133,4384,863,2,28,10,1.1396208815936457
basic,68,34,0,0,0,24,"[0, 13, 1, 8, 25, 24]",6,11,"[3, 5, 7, 9, 10, 11, 12, 22, 23, 27, 29]",166.5062774,5190,806,2,23,10,1.374180768736554
basic,68,34,0,0,0,12,"[0, 13, 1, 8, 25, 24, 12]",7,7,"[7, 9, 10, 11, 22, 23, 27]",115.4670767,6221,1031,1,8,10,1.4994254760835948
basic,68,34,0,0,0,7,"[0, 13, 1, 8, 25, 24, 12, 7]",8,5,"[9, 11, 22, 23, 27]",100.4337804,6858,637,1,4,10,1.758992610425009
basic,68,34,0,0,0,23,"[0, 13, 1, 8, 25, 24, 12, 7, 23]",9,1,[27],72.27352467,7620,762,1,0,10,2.399781305190153
basic,68,34,0,0,1,27,"[0, 13, 1, 8, 25, 24, 12, 7, 23, 27]",10,0,[],18.60789321,11695,4075,1,0,10,4.766619878750327
basic,68,34,0,1,1,27,"[0, 13, 1, 8, 25, 24, 12, 7, 23, 27]",10,0,[],18.60789321,13248,1553,1,0,10,4.766619878750327
undo,69,44,0,0,0,0,[0],1,29,"[1, 2, 3, 4, 5, 6, 7, 8, 9, 10, 11, 12, 13, 14, 15, 16, 17, 18, 19, 20, 21, 22, 23, 24, 25, 26, 27, 28, 29]",300,222,-1,13,126,7,0.0
undo,69,44,0,0,0,11,"[0, 11]",2,18,"[4, 5, 6, 7, 8, 9, 12, 14, 16, 17, 19, 20, 22, 23, 24, 25, 26, 28]",152.7790776,5794,5572,5,34,7,1.0
undo,69,44,0,0,0,24,"[0, 11, 24]",3,13,"[4, 5, 7, 8, 9, 12, 14, 17, 20, 22, 23, 25, 28]",125.8532535,6744,950,5,23,7,1.1588941745226709
undo,69,44,0,0,0,9,"[0, 11, 24, 9]",4,7,"[4, 7, 8, 12, 14, 20, 23]",93.09657483,7425,681,2,8,7,1.3039383713641313
undo,69,44,0,0,0,4,"[0, 11, 24, 9, 4]",5,5,"[7, 12, 14, 20, 23]",73.39885923,8126,701,2,3,7,1.2901330701441578
undo,69,44,0,0,0,7,"[0, 11, 24, 9, 4, 7]",6,1,[23],42.38273439,9390,1264,1,0,7,1.2468141312360979
undo,69,44,0,0,1,23,"[0, 11, 24, 9, 4, 7, 23]",7,0,[],23.27776121,10053,663,1,0,7,1.2635191782769477
undo,69,44,0,1,1,23,"[0, 11, 24, 9, 4, 7, 23]",7,0,[],23.27776121,11965,1912,1,0,7,1.2635191782769477
undo,70,40,0,0,0,0,[0],1,29,"[1, 2, 3, 4, 5, 6, 7, 8, 9, 10, 11, 12, 13, 14, 15, 16, 17, 18, 19, 20, 21, 22, 23, 24, 25, 26, 27, 28, 29]",300,164,-1,8,191,9,0.0
undo,70,40,0,0,0,1,"[0, 1]",2,18,"[2, 5, 6, 7, 8, 9, 10, 11, 13, 15, 17, 18, 19, 21, 22, 23, 27, 29]",247.8463808,5300,5136,4,80,9,1.0
undo,70,40,0,0,0,6,"[0, 1, 6]",3,17,"[2, 5, 7, 8, 9, 10, 11, 13, 15, 17, 18, 19, 21, 22, 23, 27, 29]",227.7466295,5960,660,4,74,9,1.0459427008232034
undo,70,40,0,0,0,9,"[0, 1, 6, 9]",4,10,"[2, 5, 8, 11, 18, 19, 21, 22, 23, 27]",159.146338,9079,3119,17,39,8,1.142098432552584
undo,70,40,0,0,0,18,"[0, 1, 6, 9, 18]",5,9,"[2, 5, 8, 11, 19, 21, 22, 23, 27]",142.5933926,9830,751,13,14,8,1.3288108654802917
undo,70,40,0,0,0,23,"[0, 1, 6, 9, 18, 23]",6,6,"[2, 5, 8, 19, 21, 22]",108.5933926,10728,898,6,4,8,2.0180513009829646
undo,70,40,0,0,0,19,"[0, 1, 6, 9, 18, 23, 19]",7,4,"[2, 5, 8, 22]",76.640302,11559,831,4,0,8,2.1771771191471494
undo,70,40,0,0,1,5,"[0, 1, 6, 9, 18, 23, 19, 5]",8,0,[],38.56143647,13109,1550,1,0,8,2.1257978181562813
undo,70,40,0,1,1,5,"[0, 1, 6, 9, 18, 23, 19, 5]",8,0,[],38.56143647,14015,906,1,0,8,2.1257978181562813
undo,71,28,0,0,0,0,[0],1,27,"[1, 2, 3, 4, 5, 6, 7, 8, 9, 10, 11, 12, 13, 14, 15, 16, 17, 18, 19, 20, 22, 23, 25, 26, 27, 28, 29]",300,209,-1,2,96,9,0.0
undo,71,28,0,0,0,28,"[0, 28]",2,8,"[2, 4, 5, 8, 9, 19, 26, 29]",115.2840018,3025,2816,16,16,5,1.0
undo,71,28,0,0,0,8,"[0, 28, 8]",3,6,"[2, 4, 5, 9, 26, 29]",97.47950796,3748,723,8,4,5,1.0041899497699787
undo,71,28,0,0,0,9,"[0, 28, 8, 9]",4,5,"[2, 4, 5, 26, 29]",82.34676201,4437,689,5,0,5,1.057766249254381
undo,71,28,0,0,1,4,"[0, 28, 8, 9, 4]",5,0,[],59.32503314,6337,1900,1,0,5,1.0531434681092646
undo,71,28,0,1,1,4,"[0, 28, 8, 9, 4]",5,0,[],59.32503314,9460,3123,1,0,5,1.0531434681092646
undo,72,32,0,0,0,0,[0],1,29,"[1, 2, 3, 4, 5, 6, 7, 8, 9, 10, 11, 12, 13, 14, 15, 16, 17, 18, 19, 20, 21, 22, 23, 24, 25, 26, 27, 28, 29]",300,217,-1,17,359,10,0.0
undo,72,32,0,0,0,15,"[0, 15]",2,24,"[2, 3, 4, 5, 6, 7, 8, 9, 10, 11, 12, 13, 14, 16, 17, 19, 20, 22, 23, 24, 25, 26, 27, 28]",214.6185032,2791,2574,11,153,9,1.0
undo,72,32,0,0,0,28,"[0, 15, 28]",3,21,"[2, 3, 5, 7, 8, 9, 10, 11, 12, 13, 14, 16, 17, 19, 20, 22, 23, 24, 25, 26, 27]",203.2167489,3571,780,11,119,9,1.000160051986942
undo,72,32,0,0,0,16,"[0, 15, 28, 16]",4,18,"[2, 3, 5, 7, 8, 9, 10, 11, 12, 13, 17, 19, 20, 22, 23, 24, 26, 27]",171.2011277,5532,1961,3,32,9,1.0968460479323094
undo,72,32,0,0,0,12,"[0, 15, 28, 16, 12]",5,16,"[2, 3, 5, 8, 9, 10, 11, 13, 17, 19, 20, 22, 23, 24, 26, 27]",155.5486519,6238,706,3,22,9,1.2830113077329213
undo,72,32,0,0,0,22,"[0, 15, 28, 16, 12, 22]",6,10,"[2, 3, 5, 8, 9, 10, 11, 17, 20, 27]",126.0190058,7071,833,3,10,9,1.2320809175143208
undo,72,32,0,0,0,9,"[0, 15, 28, 16, 12, 22, 9]",7,5,"[2, 8, 17, 20, 27]",103.8154025,7759,688,2,3,9,1.2958302896677114
undo,72,32,0,0,0,8,"[0, 15, 28, 16, 12, 22, 9, 8]",8,1,[20],58.69334577,8738,979,1,0,9,1.231589275477089
undo,72,32,0,0,1,20,"[0, 15, 28, 16, 12, 22, 9, 8, 20]",9,0,[],8.364427644,9873,1135,1,0,9,1.4417983550203435
undo,72,32,0,1,1,20,"[0, 15, 28, 16, 12, 22, 9, 8, 20]",9,0,[],8.364427644,10629,756,1,0,9,1.4417983550203435
undo,73,35,0,0,0,0,[0],1,29,"[1, 2, 3, 4, 5, 6, 7, 8, 9, 10, 11, 12, 13, 14, 15, 16, 17, 18, 19, 20, 21, 22, 23, 24, 25, 26, 27, 28, 29]",300,180,-1,5,236,11,0.0
undo,73,35,0,0,0,24,"[0, 24]",2,27,"[1, 2, 4, 5, 6, 7, 8, 9, 10, 11, 12, 13, 14, 15, 16, 17, 18, 19, 20, 21, 22, 23, 25, 26, 27, 28, 29]",268.9838752,3179,2999,49,512,10,1.0
undo,73,35,0,0,0,17,"[0, 24, 17]",3,26,"[1, 2, 4, 5, 6, 7, 8, 9, 10, 11, 12, 13, 14, 15, 16, 18, 19, 20, 21, 22, 23, 25, 26, 27, 28, 29]",257.2791753,3774,595,33,238,10,1.0771477201815276
undo,73,35,0,0,0,1,"[0, 24, 17, 1]",4,25,"[2, 4, 5, 6, 7, 8, 9, 10, 11, 12, 13, 14, 15, 16, 18, 19, 20, 21, 22, 23, 25, 26, 27, 28, 29]",241.4677869,4506,732,26,151,10,1.2244804141479215
undo,73,35,0,0,0,15,"[0, 24, 17, 1, 15]",5,23,"[2, 4, 5, 6, 7, 8, 9, 10, 11, 12, 14, 16, 18, 19, 20, 21, 22, 23, 25, 26, 27, 28, 29]",218.6204676,5195,689,26,78,10,1.4642196672428094
undo,73,35,0,0,0,23,"[0, 24, 17, 1, 15, 23]",6,11,"[4, 5, 6, 9, 18, 19, 25, 26, 27, 28, 29]",158.1804147,6045,850,15,12,10,1.3338903684702363
undo,73,35,0,0,0,9,"[0, 24, 17, 1, 15, 23, 9]",7,6,"[5, 6, 18, 19, 25, 27]",120.5373542,6825,780,6,1,10,1.5964380615155294
undo,73,35,0,0,0,18,"[0, 24, 17, 1, 15, 23, 9, 18]",8,3,"[5, 6, 25]",100.5123698,7443,618,2,1,10,1.5508488101942703
undo,73,35,0,0,0,25,"[0, 24, 17, 1, 15, 23, 9, 18, 25]",9,1,[6],66.67452121,8243,800,1,0,10,1.4408023801578587
undo,73,35,0,0,1,6,"[0, 24, 17, 1, 15, 23, 9, 18, 25, 6]",10,0,[],42.65369691,9241,998,1,0,10,1.701781671832088
undo,73,35,0,1,1,6,"[0, 24, 17, 1, 15, 23, 9, 18, 25, 6]",10,0,[],42.65369691,11598,2357,1,0,10,1.701781671832088
undo,74,6,0,0,0,0,[0],1,29,"[1, 2, 3, 4, 5, 6, 7, 8, 9, 10, 11, 12, 13, 14, 15, 16, 17, 18, 19, 20, 21, 22, 23, 24, 25, 26, 27, 28, 29]",300,160,-1,180,4304,10,0.0
undo,74,6,0,0,0,26,"[0, 26]",2,25,"[1, 2, 3, 4, 5, 6, 7, 8, 9, 10, 11, 12, 13, 14, 15, 16, 17, 18, 20, 21, 22, 23, 24, 27, 29]",250.2606795,4527,4367,45,776,10,1.0
undo,74,6,0,0,0,2,"[0, 26, 2]",3,20,"[1, 3, 4, 5, 6, 7, 8, 9, 10, 13, 14, 16, 17, 18, 21, 22, 23, 24, 27, 29]",220.4278118,5537,1010,20,184,10,1.003152463832065
undo,74,6,0,0,0,7,"[0, 26, 2, 7]",4,18,"[1, 3, 4, 6, 8, 9, 10, 13, 14, 16, 17, 18, 21, 22, 23, 24, 27, 29]",179.3182022,6366,829,20,157,10,2.5131135963314413
undo,74,6,0,0,0,3,"[0, 26, 2, 7, 3]",5,13,"[1, 6, 8, 10, 13, 16, 17, 18, 21, 22, 23, 24, 29]",143.1795802,7088,722,18,67,10,4.677560963942129
undo,74,6,0,0,0,18,"[0, 26, 2, 7, 3, 18]",6,10,"[1, 6, 10, 13, 16, 17, 22, 23, 24, 29]",114.1795802,8090,1002,9,21,10,3.0511602668529507
undo,74,6,0,0,0,16,"[0, 26, 2, 7, 3, 18, 16]",7,7,"[10, 13, 17, 22, 23, 24, 29]",90.83434512,8892,802,3,5,10,2.897820717376008
undo,74,6,0,0,0,17,"[0, 26, 2, 7, 3, 18, 16, 17]",8,2,"[10, 24]",58.07766641,10008,1116,2,0,10,3.4278175042917054
undo,74,6,0,0,0,10,"[0, 26, 2, 7, 3, 18, 16, 17, 10]",9,1,[24],38.35458348,10866,858,1,0,10,3.1021029076298365
undo,74,6,0,0,1,24,"[0, 26, 2, 7, 3, 18, 16, 17, 10, 24]",10,0,[],24.93817562,11725,859,1,0,10,2.8271383974254114
undo,74,6,0,1,1,24,"[0, 26, 2, 7, 3, 18, 16, 17, 10, 24]",10,0,[],24.93817562,15910,4185,1,0,10,2.8271383974254114
undo,75,17,0,0,0,0,[0],1,28,"[1, 2, 3, 4, 5, 6, 7, 8, 9, 10, 11, 12, 13, 14, 15, 16, 17, 18, 19, 20, 22, 23, 24, 25, 26, 27, 28, 29]",300,176,-1,2,73,8,0.0
undo,75,17,0,0,0,9,"[0, 9]",2,25,"[1, 2, 3, 5, 6, 7, 8, 10, 11, 12, 14, 15, 16, 17, 18, 19, 20, 22, 23, 24, 25, 26, 27, 28, 29]",210.5293344,3364,3188,1,34,8,1.0
undo,75,17,0,0,0,16,"[0, 9, 16]",3,21,"[1, 2, 3, 5, 7, 8, 10, 11, 12, 14, 17, 18, 19, 20, 22, 23, 25, 26, 27, 28, 29]",197.1876704,4063,699,1,26,8,1.173103464220352
undo,75,17,0,0,0,2,"[0, 9, 16, 2]",4,18,"[1, 3, 5, 7, 8, 10, 11, 12, 14, 17, 18, 19, 23, 25, 26, 27, 28, 29]",181.0631549,4710,647,1,23,8,1.14825089247282
undo,75,17,0,0,0,17,"[0, 9, 16, 2, 17]",5,7,"[7, 8, 12, 14, 26, 27, 29]",142.7356191,5462,752,4,5,7,1.4896040699768547
undo,75,17,0,0,0,8,"[0, 9, 16, 2, 17, 8]",6,3,"[7, 12, 27]",104.5256727,6413,951,3,0,7,1.4604726966175894
undo,75,17,0,0,1,7,"[0, 9, 16, 2, 17, 8, 7]",7,0,[],33.81499459,8482,2069,1,0,7,1.4474701869793896
undo,75,17,0,1,1,7,"[0, 9, 16, 2, 17, 8, 7]",7,0,[],33.81499459,10967,2485,1,0,7,1.4474701869793896
undo,76,2,0,0,0,0,[0],1,23,"[1, 2, 4, 5, 6, 7, 8, 9, 12, 13, 15, 16, 17, 18, 19, 20, 22, 23, 25, 26, 27, 28, 29]",300,178,-1,70,620,10,0.0
undo,76,2,0,0,0,19,"[0, 19]",2,22,"[1, 2, 4, 5, 6, 7, 8, 9, 12, 13, 15, 16, 17, 18, 20, 22, 23, 25, 26, 27, 28, 29]",210.306076,2155,1977,67,431,10,1.0
undo,76,2,0,0,0,12,"[0, 19, 12]",3,17,"[1, 4, 5, 6, 7, 13, 15, 16, 17, 18, 20, 22, 25, 26, 27, 28, 29]",174.2921898,3085,930,66,298,10,1.1107635036313153
undo,76,2,0,0,0,5,"[0, 19, 12, 5]",4,11,"[1, 6, 7, 13, 15, 16, 18, 22, 25, 26, 29]",144.7625437,3788,703,38,136,10,1.0968174771581647
undo,76,2,0,0,0,22,"[0, 19, 12, 5, 22]",5,8,"[1, 6, 7, 13, 15, 18, 26, 29]",131.9562952,4405,617,20,63,10,1.0889910507461968
undo,76,2,0,0,0,13,"[0, 19, 12, 5, 22, 13]",6,7,"[1, 6, 7, 15, 18, 26, 29]",117.0902265,5071,666,19,20,10,1.236526217328057
undo,76,2,0,0,0,18,"[0, 19, 12, 5, 22, 13, 18]",7,4,"[7, 15, 26, 29]",81.91921567,5985,914,10,3,10,1.2128708213409936
undo,76,2,0,0,0,7,"[0, 19, 12, 5, 22, 13, 18, 7]",8,3,"[15, 26, 29]",71.62358553,6636,651,5,0,10,1.2019811287894737
undo,76,2,0,0,0,26,"[0, 19, 12, 5, 22, 13, 18, 7, 26]",9,2,"[15, 29]",48.82007703,9085,2449,2,0,10,1.1883593342191134
undo,76,2,0,0,1,15,"[0, 19, 12, 5, 22, 13, 18, 7, 26, 15]",10,0,[],24.61264015,10486,1401,1,0,10,1.4619750353663825
undo,76,2,0,1,1,15,"[0, 19, 12, 5, 22, 13, 18, 7, 26, 15]",10,0,[],24.61264015,11924,1438,1,0,10,1.4619750353663825
undo,77,29,0,0,0,0,[0],1,29,"[1, 2, 3, 4, 5, 6, 7, 8, 9, 10, 11, 12, 13, 14, 15, 16, 17, 18, 19, 20, 21, 22, 23, 24, 25, 26, 27, 28, 29]",300,179,-1,1,78,9,0.0
undo,77,29,0,0,0,14,"[0, 14]",2,22,"[1, 3, 4, 5, 6, 7, 9, 10, 11, 12, 13, 15, 16, 17, 21, 22, 23, 25, 26, 27, 28, 29]",209.490332,1741,1562,21,110,8,1.0
undo,77,29,0,0,0,13,"[0, 14, 13]",3,18,"[1, 4, 5, 6, 7, 9, 10, 12, 15, 16, 17, 21, 22, 25, 26, 27, 28, 29]",191.4625756,4234,2493,20,75,8,1.0027006502223275
undo,77,29,0,0,0,5,"[0, 14, 13, 5]",4,15,"[1, 4, 6, 7, 9, 12, 15, 17, 21, 22, 25, 26, 27, 28, 29]",165.7526554,5547,1313,19,49,8,1.0803937325657265
