condition,trial_id,map_id,undoIndicator,submit,checkEnd,currentChoice,chosen_all,n_city_all,n_within_reach,cities_reach,currentBudget,time_all,rt_all,n_opt_paths_all,n_subopt_paths_all,mas_all,tortuosity_all
undo,0,3,0,0,0,0,[0],1,29,"[1, 2, 3, 4, 5, 6, 7, 8, 9, 10, 11, 12, 13, 14, 15, 16, 17, 18, 19, 20, 21, 22, 23, 24, 25, 26, 27, 28, 29]",300,126,-1,34,427,10,0.0
undo,0,3,0,0,0,8,"[0, 8]",2,28,"[1, 2, 3, 4, 5, 6, 7, 9, 10, 11, 12, 13, 14, 15, 16, 17, 18, 19, 20, 21, 22, 23, 24, 25, 26, 27, 28, 29]",239.9666759,4651,4525,1,54,10,1.0
undo,0,3,0,0,0,4,"[0, 8, 4]",3,17,"[3, 5, 6, 7, 10, 11, 14, 15, 16, 17, 18, 19, 20, 21, 22, 24, 28]",184.3069957,7282,2631,3,17,9,1.0096590348420695
undo,0,3,0,0,0,5,"[0, 8, 4, 5]",4,3,"[6, 18, 28]",82.47379878,8880,1598,1,2,6,1.176384580056332
undo,0,3,0,0,0,6,"[0, 8, 4, 5, 6]",5,1,[28],31.38563968,11277,2397,1,0,6,1.4089673052555218
undo,0,3,0,0,1,28,"[0, 8, 4, 5, 6, 28]",6,0,[],9.362924132,12923,1646,1,0,6,1.3946367359139238
undo,0,3,0,1,1,28,"[0, 8, 4, 5, 6, 28]",6,0,[],9.362924132,15532,2609,1,0,6,1.3946367359139238
undo,1,19,0,0,0,0,[0],1,29,"[1, 2, 3, 4, 5, 6, 7, 8, 9, 10, 11, 12, 13, 14, 15, 16, 17, 18, 19, 20, 21, 22, 23, 24, 25, 26, 27, 28, 29]",300,145,-1,12,149,8,0.0
undo,1,19,0,0,0,12,"[0, 12]",2,15,"[1, 2, 3, 5, 8, 9, 13, 16, 17, 18, 19, 21, 23, 25, 29]",180.3964883,2072,1927,9,58,7,1.0
undo,1,19,0,0,0,17,"[0, 12, 17]",3,11,"[1, 2, 3, 8, 13, 16, 18, 19, 23, 25, 29]",160.2718765,3241,1169,6,25,7,1.0081383695928103
undo,1,19,0,0,0,2,"[0, 12, 17, 2]",4,4,"[3, 8, 23, 25]",92.24247114,6695,3454,1,3,6,1.0091263677059847
undo,1,19,0,0,1,23,"[0, 12, 17, 2, 23]",5,0,[],17.08929423,8577,1882,1,0,5,1.5734267515939837
undo,1,19,0,1,1,23,"[0, 12, 17, 2, 23]",5,0,[],17.08929423,9938,1361,1,0,5,1.5734267515939837
undo,2,23,0,0,0,0,[0],1,28,"[1, 2, 3, 4, 5, 6, 7, 8, 9, 10, 11, 12, 13, 14, 15, 16, 17, 18, 19, 20, 21, 22, 23, 25, 26, 27, 28, 29]",300,129,-1,76,2626,10,0.0
undo,2,23,0,0,0,18,"[0, 18]",2,14,"[2, 5, 6, 7, 9, 10, 12, 13, 14, 19, 21, 22, 27, 29]",203.8958898,7605,7476,73,787,9,1.0
undo,2,23,0,0,0,27,"[0, 18, 27]",3,9,"[2, 6, 7, 9, 12, 13, 14, 22, 29]",128.5832083,10597,2992,51,277,9,1.1972268052690318
undo,2,23,0,0,0,6,"[0, 18, 27, 6]",4,8,"[2, 7, 9, 12, 13, 14, 22, 29]",100.2812649,12711,2114,43,68,9,1.3293035545030156
undo,2,23,0,0,0,2,"[0, 18, 27, 6, 2]",5,6,"[9, 12, 13, 14, 22, 29]",81.84217594,14477,1766,16,17,9,1.5987085337271232
undo,2,23,0,0,0,12,"[0, 18, 27, 6, 2, 12]",6,5,"[9, 13, 14, 22, 29]",67.94973195,18617,4140,4,5,9,1.8929166061978238
undo,2,23,0,0,0,13,"[0, 18, 27, 6, 2, 12, 13]",7,3,"[9, 14, 22]",55.86668598,20268,1651,2,1,9,2.205763785795194
undo,2,23,0,0,1,22,"[0, 18, 27, 6, 2, 12, 13, 22]",8,0,[],13.67663976,21753,1485,1,0,8,3.1991936136577475
undo,2,23,0,1,1,22,"[0, 18, 27, 6, 2, 12, 13, 22]",8,0,[],13.67663976,24828,3075,1,0,8,3.1991936136577475
undo,3,11,0,0,0,0,[0],1,25,"[1, 2, 3, 4, 5, 6, 8, 9, 10, 11, 12, 13, 14, 15, 16, 17, 18, 19, 20, 22, 23, 25, 26, 27, 28]",300,130,-1,6,374,12,0.0
undo,3,11,0,0,0,8,"[0, 8]",2,19,"[1, 2, 4, 5, 6, 10, 11, 12, 14, 15, 17, 18, 19, 22, 23, 25, 26, 27, 28]",154.7932508,4700,4570,181,767,9,1.0
undo,3,11,0,0,0,11,"[0, 8, 11]",3,13,"[2, 5, 6, 12, 15, 17, 18, 19, 22, 25, 26, 27, 28]",126.6329952,7101,2401,20,119,9,1.000001968878206
undo,3,11,0,0,1,19,"[0, 8, 11, 19]",4,0,[],53.5508496,8894,1793,1,0,4,1.0000015125273134
undo,3,11,0,1,1,19,"[0, 8, 11, 19]",4,0,[],53.5508496,17801,8907,1,0,4,1.0000015125273134
undo,4,29,0,0,0,0,[0],1,29,"[1, 2, 3, 4, 5, 6, 7, 8, 9, 10, 11, 12, 13, 14, 15, 16, 17, 18, 19, 20, 21, 22, 23, 24, 25, 26, 27, 28, 29]",300,131,-1,1,78,9,0.0
undo,4,29,0,0,0,22,"[0, 22]",2,22,"[1, 3, 4, 5, 6, 7, 9, 10, 11, 12, 13, 14, 15, 16, 17, 21, 23, 25, 26, 27, 28, 29]",183.034193,19232,19101,11,109,7,1.0
undo,4,29,0,0,0,12,"[0, 22, 12]",3,16,"[1, 3, 4, 5, 6, 7, 9, 13, 14, 15, 21, 23, 26, 27, 28, 29]",145.0868611,20790,1558,5,26,7,1.0034573014223038
undo,4,29,0,0,0,7,"[0, 22, 12, 7]",4,11,"[4, 5, 9, 13, 14, 21, 23, 26, 27, 28, 29]",131.4853906,23270,2480,5,11,7,1.024712642596813
undo,4,29,0,0,0,9,"[0, 22, 12, 7, 9]",5,4,"[4, 5, 13, 21]",102.4165069,24592,1322,2,2,7,1.0465879224614396
undo,4,29,0,0,0,4,"[0, 22, 12, 7, 9, 4]",6,1,[5],61.37993783,26291,1699,1,0,7,1.3574401406611971
undo,4,29,0,0,1,5,"[0, 22, 12, 7, 9, 4, 5]",7,0,[],9.485814854,29939,3648,1,0,7,2.3379956288027572
undo,4,29,0,1,1,5,"[0, 22, 12, 7, 9, 4, 5]",7,0,[],9.485814854,31393,1454,1,0,7,2.3379956288027572
undo,5,0,0,0,0,0,[0],1,27,"[2, 3, 4, 5, 6, 7, 8, 9, 10, 11, 12, 13, 14, 15, 16, 17, 19, 20, 21, 22, 23, 24, 25, 26, 27, 28, 29]",300,129,-1,104,1136,9,0.0
undo,5,0,0,0,0,21,"[0, 21]",2,24,"[3, 4, 5, 6, 7, 8, 9, 10, 11, 12, 13, 14, 15, 16, 17, 19, 20, 22, 23, 24, 26, 27, 28, 29]",228.2156006,4784,4655,24,249,9,1.0
undo,5,0,0,0,0,14,"[0, 21, 14]",3,14,"[3, 4, 5, 7, 8, 12, 13, 15, 17, 20, 23, 24, 26, 28]",158.6454921,5941,1157,2,16,8,1.000002424891989
undo,5,0,0,0,0,13,"[0, 21, 14, 13]",4,10,"[3, 4, 5, 7, 12, 17, 23, 24, 26, 28]",142.8341038,7474,1533,1,5,8,1.0035841768046605
undo,5,0,0,0,0,23,"[0, 21, 14, 13, 23]",5,1,[17],47.35112098,9279,1805,1,0,6,1.1678698564039849
undo,5,0,0,0,1,17,"[0, 21, 14, 13, 23, 17]",6,0,[],12.12329107,11050,1771,1,0,6,1.5173910071845975
undo,5,0,0,1,1,17,"[0, 21, 14, 13, 23, 17]",6,0,[],12.12329107,12954,1904,1,0,6,1.5173910071845975
undo,6,38,0,0,0,0,[0],1,29,"[1, 2, 3, 4, 5, 6, 7, 8, 9, 10, 11, 12, 13, 14, 15, 16, 17, 18, 19, 20, 21, 22, 23, 24, 25, 26, 27, 28, 29]",300,130,-1,33,506,9,0.0
undo,6,38,0,0,0,20,"[0, 20]",2,28,"[1, 2, 3, 4, 5, 6, 7, 8, 9, 10, 11, 12, 13, 14, 15, 16, 17, 18, 19, 21, 22, 23, 24, 25, 26, 27, 28, 29]",246.1483519,4982,4852,14,198,9,1.0
undo,6,38,0,0,0,19,"[0, 20, 19]",3,21,"[3, 4, 5, 6, 7, 8, 9, 11, 13, 15, 16, 17, 18, 22, 23, 24, 25, 26, 27, 28, 29]",201.0262952,12765,7783,2,22,9,1.2295107328766512
undo,6,38,0,0,0,27,"[0, 20, 19, 27]",4,10,"[3, 4, 6, 9, 13, 17, 18, 22, 26, 29]",135.1703919,20928,8163,1,9,7,1.1363236296925834
undo,6,38,0,0,0,22,"[0, 20, 19, 27, 22]",5,3,"[3, 18, 29]",106.5347498,22353,1425,1,2,7,1.1245509145580477
undo,6,38,0,0,0,3,"[0, 20, 19, 27, 22, 3]",6,1,[29],60.52388153,25541,3188,1,0,7,1.562037015374583
undo,6,38,0,0,1,29,"[0, 20, 19, 27, 22, 3, 29]",7,0,[],0.98397894,27269,1728,1,0,7,1.4071848568423682
undo,6,38,0,1,1,29,"[0, 20, 19, 27, 22, 3, 29]",7,0,[],0.98397894,29143,1874,1,0,7,1.4071848568423682
undo,7,39,0,0,0,0,[0],1,28,"[1, 2, 3, 4, 5, 6, 7, 9, 10, 11, 12, 13, 14, 15, 16, 17, 18, 19, 20, 21, 22, 23, 24, 25, 26, 27, 28, 29]",300,129,-1,1,30,10,0.0
undo,7,39,0,0,0,29,"[0, 29]",2,26,"[1, 2, 3, 4, 5, 6, 7, 9, 10, 12, 13, 14, 15, 16, 17, 18, 19, 20, 21, 22, 23, 24, 25, 26, 27, 28]",243.0614366,2942,2813,8,104,9,1.0
undo,7,39,0,0,0,10,"[0, 29, 10]",3,19,"[1, 2, 4, 5, 7, 9, 12, 13, 14, 15, 16, 17, 18, 19, 22, 23, 24, 26, 28]",178.4239862,13345,10403,3,48,9,1.0231293692376968
undo,7,39,0,0,0,26,"[0, 29, 10, 26]",4,13,"[1, 2, 5, 7, 9, 12, 13, 16, 17, 18, 19, 22, 24]",134.129517,16512,3167,8,26,8,1.0269092592346842
undo,7,39,0,0,0,22,"[0, 29, 10, 26, 22]",5,7,"[1, 5, 7, 12, 16, 18, 19]",116.4094718,21424,4912,3,7,8,1.1856647443878092
undo,7,39,0,0,1,5,"[0, 29, 10, 26, 22, 5]",6,0,[],26.20969358,23802,2378,1,0,6,2.281585886833333
undo,7,39,0,1,1,5,"[0, 29, 10, 26, 22, 5]",6,0,[],26.20969358,24879,1077,1,0,6,2.281585886833333
undo,8,33,0,0,0,0,[0],1,23,"[1, 2, 5, 7, 8, 11, 12, 13, 14, 15, 16, 17, 18, 19, 20, 21, 23, 24, 25, 26, 27, 28, 29]",300,130,-1,5,108,9,0.0
undo,8,33,0,0,0,2,"[0, 2]",2,6,"[11, 13, 17, 20, 21, 29]",108.4745448,5840,5710,1,5,5,1.0
undo,8,33,0,0,0,20,"[0, 2, 20]",3,3,"[11, 17, 29]",57.55303655,8531,2691,1,2,5,1.172939774297112
undo,8,33,0,0,0,11,"[0, 2, 20, 11]",4,1,[29],38.44806337,9778,1247,1,0,5,1.1779706787427942
undo,8,33,0,0,1,29,"[0, 2, 20, 11, 29]",5,0,[],1.23247524,11202,1424,1,0,5,1.420369340815466
undo,8,33,0,1,1,29,"[0, 2, 20, 11, 29]",5,0,[],1.23247524,12138,936,1,0,5,1.420369340815466
undo,9,12,0,0,0,0,[0],1,29,"[1, 2, 3, 4, 5, 6, 7, 8, 9, 10, 11, 12, 13, 14, 15, 16, 17, 18, 19, 20, 21, 22, 23, 24, 25, 26, 27, 28, 29]",300,147,-1,2,32,9,0.0
undo,9,12,0,0,0,6,"[0, 6]",2,28,"[1, 2, 3, 4, 5, 7, 8, 9, 10, 11, 12, 13, 14, 15, 16, 17, 18, 19, 20, 21, 22, 23, 24, 25, 26, 27, 28, 29]",283.5987805,6730,6583,2,18,9,1.0
undo,9,12,0,0,0,18,"[0, 6, 18]",3,10,"[1, 2, 3, 5, 7, 9, 11, 15, 17, 21]",144.5088815,8561,1831,6,15,7,1.0360320431021144
undo,9,12,0,0,0,15,"[0, 6, 18, 15]",4,5,"[1, 5, 11, 17, 21]",90.75016132,10448,1887,2,4,7,1.107390040119206
undo,9,12,0,0,0,17,"[0, 6, 18, 15, 17]",5,4,"[1, 5, 11, 21]",74.25773882,13237,2789,2,2,7,1.156679625075457
undo,9,12,0,0,0,11,"[0, 6, 18, 15, 17, 11]",6,1,[1],30.84115213,16042,2805,1,0,7,1.128650322561101
undo,9,12,0,0,1,1,"[0, 6, 18, 15, 17, 11, 1]",7,0,[],14.28820677,18816,2774,1,0,7,1.175838393727954
undo,9,12,0,1,1,1,"[0, 6, 18, 15, 17, 11, 1]",7,0,[],14.28820677,20666,1850,1,0,7,1.175838393727954
undo,10,37,0,0,0,0,[0],1,29,"[1, 2, 3, 4, 5, 6, 7, 8, 9, 10, 11, 12, 13, 14, 15, 16, 17, 18, 19, 20, 21, 22, 23, 24, 25, 26, 27, 28, 29]",300,130,-1,6,168,10,0.0
undo,10,37,0,0,0,12,"[0, 12]",2,13,"[5, 6, 7, 8, 9, 10, 13, 14, 16, 17, 18, 23, 28]",196.6752692,7066,6936,12,18,5,1.0
undo,10,37,0,0,0,16,"[0, 12, 16]",3,5,"[8, 9, 13, 14, 23]",138.6666491,8694,1628,3,3,5,1.0958841324159274
undo,10,37,0,0,0,13,"[0, 12, 16, 13]",4,1,[8],109.1200757,9732,1038,1,0,5,1.0898353473164903
undo,10,37,0,0,1,8,"[0, 12, 16, 13, 8]",5,0,[],79.03685781,22257,12525,1,0,5,1.480442297298779
undo,10,37,0,1,1,8,"[0, 12, 16, 13, 8]",5,0,[],79.03685781,24846,2589,1,0,5,1.480442297298779
undo,11,21,0,0,0,0,[0],1,29,"[1, 2, 3, 4, 5, 6, 7, 8, 9, 10, 11, 12, 13, 14, 15, 16, 17, 18, 19, 20, 21, 22, 23, 24, 25, 26, 27, 28, 29]",300,163,-1,84,830,9,0.0
undo,11,21,0,0,0,18,"[0, 18]",2,28,"[1, 2, 3, 4, 5, 6, 7, 8, 9, 10, 11, 12, 13, 14, 15, 16, 17, 19, 20, 21, 22, 23, 24, 25, 26, 27, 28, 29]",240.923778,9705,9542,44,305,9,1.0
undo,11,21,0,0,0,25,"[0, 18, 25]",3,23,"[1, 2, 3, 4, 6, 7, 8, 9, 10, 11, 12, 14, 15, 16, 17, 20, 21, 22, 23, 24, 26, 27, 29]",199.162552,10834,1129,16,84,9,1.6857830307656476
undo,11,21,0,0,0,21,"[0, 18, 25, 21]",4,14,"[1, 4, 6, 8, 9, 14, 15, 16, 17, 20, 22, 23, 24, 29]",149.8269665,12620,1786,7,35,9,1.670653070509846
undo,11,21,0,0,0,14,"[0, 18, 25, 21, 14]",5,8,"[4, 8, 15, 16, 17, 23, 24, 29]",124.2144695,15330,2710,5,14,9,1.53467425073909
undo,11,21,0,0,0,4,"[0, 18, 25, 21, 14, 4]",6,6,"[8, 15, 16, 23, 24, 29]",110.0723339,17232,1902,5,6,9,1.4848978616548867
undo,11,21,0,0,0,16,"[0, 18, 25, 21, 14, 4, 16]",7,3,"[8, 15, 23]",65.47412766,22239,5007,2,1,9,1.4368634537924392
undo,11,21,0,0,0,8,"[0, 18, 25, 21, 14, 4, 16, 8]",8,1,[15],46.87305243,23152,913,1,0,9,1.3971274151083675
undo,11,21,0,0,1,15,"[0, 18, 25, 21, 14, 4, 16, 8, 15]",9,0,[],21.87305243,24893,1741,1,0,9,1.652125926308243
undo,11,21,0,1,1,15,"[0, 18, 25, 21, 14, 4, 16, 8, 15]",9,0,[],21.87305243,25862,969,1,0,9,1.652125926308243
undo,12,43,0,0,0,0,[0],1,23,"[1, 2, 3, 4, 5, 6, 7, 9, 10, 11, 12, 14, 15, 16, 17, 19, 20, 21, 22, 23, 25, 27, 29]",300,132,-1,16,556,12,0.0
undo,12,43,0,0,0,29,"[0, 29]",2,22,"[1, 2, 3, 4, 5, 6, 7, 9, 10, 11, 12, 14, 15, 16, 17, 19, 20, 21, 22, 23, 25, 27]",277.909278,5259,5127,16,520,12,1.0
undo,12,43,0,0,0,16,"[0, 29, 16]",3,21,"[1, 2, 3, 4, 5, 6, 7, 9, 10, 11, 12, 14, 15, 17, 19, 20, 21, 22, 23, 25, 27]",243.8945753,7239,1980,1,94,12,1.0004480205874837
undo,12,43,0,0,0,15,"[0, 29, 16, 15]",4,17,"[1, 2, 3, 4, 5, 6, 7, 9, 11, 12, 14, 19, 20, 21, 22, 23, 25]",200.5702172,8388,1149,19,260,11,1.2025841171227387
undo,12,43,0,0,0,12,"[0, 29, 16, 15, 12]",5,15,"[1, 2, 3, 4, 5, 6, 7, 9, 11, 14, 19, 20, 22, 23, 25]",181.2570093,17081,8693,6,112,11,1.2011411164475312
undo,12,43,0,0,0,3,"[0, 29, 16, 15, 12, 3]",6,14,"[1, 2, 4, 5, 6, 7, 9, 11, 14, 19, 20, 22, 23, 25]",168.2570093,19127,2046,6,78,11,1.1826102188721546
undo,12,43,0,0,0,22,"[0, 29, 16, 15, 12, 3, 22]",7,11,"[1, 4, 6, 7, 9, 11, 14, 19, 20, 23, 25]",133.5438994,21605,2478,3,32,11,1.3956405494236666
undo,12,43,0,0,0,1,"[0, 29, 16, 15, 12, 3, 22, 1]",8,7,"[4, 6, 7, 11, 14, 19, 25]",102.1591897,24260,2655,9,2,10,1.3743585463640597
undo,12,43,0,0,0,6,"[0, 29, 16, 15, 12, 3, 22, 1, 6]",9,2,"[11, 14]",53.88911619,28234,3974,2,0,10,2.2314780244873766
undo,12,43,0,0,1,14,"[0, 29, 16, 15, 12, 3, 22, 1, 6, 14]",10,0,[],25.42861725,34215,5981,1,0,10,2.2135656498241265
undo,12,43,0,1,1,14,"[0, 29, 16, 15, 12, 3, 22, 1, 6, 14]",10,0,[],25.42861725,36407,2192,1,0,10,2.2135656498241265
undo,13,10,0,0,0,0,[0],1,29,"[1, 2, 3, 4, 5, 6, 7, 8, 9, 10, 11, 12, 13, 14, 15, 16, 17, 18, 19, 20, 21, 22, 23, 24, 25, 26, 27, 28, 29]",300,129,-1,1,100,9,0.0
undo,13,10,0,0,0,28,"[0, 28]",2,12,"[3, 7, 10, 12, 15, 16, 17, 18, 21, 23, 25, 29]",152.3212947,6007,5878,1,9,6,1.0
undo,13,10,0,0,0,3,"[0, 28, 3]",3,4,"[12, 21, 23, 25]",89.2578346,15226,9219,1,3,5,1.1455747367062596
undo,13,10,0,0,1,21,"[0, 28, 3, 21]",4,0,[],25.22659222,24268,9042,1,0,4,1.3125286220584949
undo,13,10,0,1,1,21,"[0, 28, 3, 21]",4,0,[],25.22659222,26428,2160,1,0,4,1.3125286220584949
undo,14,6,0,0,0,0,[0],1,29,"[1, 2, 3, 4, 5, 6, 7, 8, 9, 10, 11, 12, 13, 14, 15, 16, 17, 18, 19, 20, 21, 22, 23, 24, 25, 26, 27, 28, 29]",300,130,-1,180,4304,10,0.0
undo,14,6,0,0,0,18,"[0, 18]",2,28,"[1, 2, 3, 4, 5, 6, 7, 8, 9, 10, 11, 12, 13, 14, 15, 16, 17, 19, 20, 21, 22, 23, 24, 25, 26, 27, 28, 29]",239.0984401,14000,13870,144,1418,9,1.0
undo,14,6,0,0,0,17,"[0, 18, 17]",3,27,"[1, 2, 3, 4, 5, 6, 7, 8, 9, 10, 11, 12, 13, 14, 15, 16, 19, 20, 21, 22, 23, 24, 25, 26, 27, 28, 29]",225.1700518,15807,1807,58,496,9,1.0602717098451646
undo,14,6,0,0,0,23,"[0, 18, 17, 23]",4,20,"[3, 4, 5, 6, 7, 10, 11, 13, 14, 16, 19, 20, 21, 22, 24, 25, 26, 27, 28, 29]",155.765441,18426,2619,2,44,8,1.07476242509735
undo,14,6,0,0,0,27,"[0, 18, 17, 23, 27]",5,7,"[6, 11, 14, 22, 25, 28, 29]",101.2035495,20139,1713,3,5,7,1.0575925165655942
undo,14,6,0,0,0,11,"[0, 18, 17, 23, 27, 11]",6,1,[28],57.9138279,22979,2840,1,0,7,1.1017013091152148
undo,14,6,0,0,1,28,"[0, 18, 17, 23, 27, 11, 28]",7,0,[],1.833528333,24478,1499,1,0,7,1.0837903790882235
undo,14,6,0,1,1,28,"[0, 18, 17, 23, 27, 11, 28]",7,0,[],1.833528333,26695,2217,1,0,7,1.0837903790882235
undo,15,7,0,0,0,0,[0],1,29,"[1, 2, 3, 4, 5, 6, 7, 8, 9, 10, 11, 12, 13, 14, 15, 16, 17, 18, 19, 20, 21, 22, 23, 24, 25, 26, 27, 28, 29]",300,131,-1,3,79,9,0.0
undo,15,7,0,0,0,6,"[0, 6]",2,22,"[2, 4, 5, 7, 8, 9, 10, 11, 13, 14, 15, 16, 18, 19, 20, 21, 22, 23, 24, 25, 27, 28]",231.1160396,4560,4429,1,24,9,1.0
undo,15,7,0,0,0,13,"[0, 6, 13]",3,8,"[4, 7, 15, 18, 19, 20, 21, 25]",133.0344409,5735,1175,6,22,7,1.0045597027558524
undo,15,7,0,0,0,4,"[0, 6, 13, 4]",4,4,"[7, 18, 20, 25]",79.69589951,7358,1623,5,4,7,1.5688055800213379
undo,15,7,0,0,0,20,"[0, 6, 13, 4, 20]",5,3,"[7, 18, 25]",60.0490168,8367,1009,2,2,7,1.6005982787660145
undo,15,7,0,0,1,7,"[0, 6, 13, 4, 20, 7]",6,0,[],19.55210334,9185,818,1,0,6,1.5330286944015967
undo,15,7,0,1,1,7,"[0, 6, 13, 4, 20, 7]",6,0,[],19.55210334,12306,3121,1,0,6,1.5330286944015967
undo,16,9,0,0,0,0,[0],1,27,"[1, 3, 4, 5, 6, 7, 8, 9, 10, 11, 13, 14, 15, 16, 17, 18, 19, 20, 21, 22, 23, 24, 25, 26, 27, 28, 29]",300,130,-1,2,182,10,0.0
undo,16,9,0,0,0,28,"[0, 28]",2,24,"[1, 3, 4, 5, 6, 7, 8, 9, 10, 11, 13, 15, 16, 17, 18, 19, 20, 21, 22, 23, 24, 25, 26, 27]",225.7234896,5008,4878,42,380,8,1.0
undo,16,9,0,0,0,21,"[0, 28, 21]",3,17,"[5, 6, 7, 8, 9, 10, 15, 16, 17, 18, 19, 20, 22, 23, 25, 26, 27]",172.7234896,12760,7752,19,49,7,1.073767110597454
undo,16,9,0,0,0,17,"[0, 28, 21, 17]",4,1,[16],80.63657412,14912,2152,1,0,5,1.0624950850243904
undo,16,9,0,0,1,16,"[0, 28, 21, 17, 16]",5,0,[],15.17666272,16428,1516,1,0,5,1.3371398227850937
undo,16,9,0,1,1,16,"[0, 28, 21, 17, 16]",5,0,[],15.17666272,18302,1874,1,0,5,1.3371398227850937
undo,17,16,0,0,0,0,[0],1,29,"[1, 2, 3, 4, 5, 6, 7, 8, 9, 10, 11, 12, 13, 14, 15, 16, 17, 18, 19, 20, 21, 22, 23, 24, 25, 26, 27, 28, 29]",300,129,-1,13,161,9,0.0
undo,17,16,0,0,0,17,"[0, 17]",2,27,"[1, 2, 3, 4, 5, 7, 8, 9, 10, 11, 12, 13, 14, 15, 16, 18, 19, 20, 21, 22, 23, 24, 25, 26, 27, 28, 29]",241.3058776,3348,3219,2,58,9,1.0
undo,17,16,0,0,0,16,"[0, 17, 16]",3,26,"[1, 2, 3, 4, 5, 7, 8, 9, 10, 11, 12, 13, 14, 15, 18, 19, 20, 21, 22, 23, 24, 25, 26, 27, 28, 29]",212.9862731,4633,1285,2,52,9,1.0529535521792848
undo,17,16,0,0,0,8,"[0, 17, 16, 8]",4,19,"[2, 3, 4, 5, 9, 12, 13, 14, 15, 19, 20, 21, 22, 23, 25, 26, 27, 28, 29]",164.6127266,5687,1054,2,38,9,1.0915134501573105
undo,17,16,0,0,0,5,"[0, 17, 16, 8, 5]",5,6,"[3, 9, 13, 15, 20, 25]",87.48296584,7039,1352,7,6,8,1.1236583315566493
undo,17,16,0,0,0,3,"[0, 17, 16, 8, 5, 3]",6,1,[15],49.46981022,8987,1948,1,0,7,1.1361358403087154
undo,17,16,0,0,1,15,"[0, 17, 16, 8, 5, 3, 15]",7,0,[],6.191640203,10930,1943,1,0,7,1.3849027935452352
undo,17,16,0,1,1,15,"[0, 17, 16, 8, 5, 3, 15]",7,0,[],6.191640203,11938,1008,1,0,7,1.3849027935452352
undo,18,27,0,0,0,0,[0],1,26,"[1, 3, 5, 6, 7, 8, 9, 10, 11, 12, 13, 14, 15, 16, 17, 18, 19, 21, 22, 23, 24, 25, 26, 27, 28, 29]",300,128,-1,13,578,11,0.0
undo,18,27,0,0,0,15,"[0, 15]",2,24,"[1, 3, 5, 6, 7, 8, 9, 10, 11, 12, 13, 14, 16, 17, 18, 19, 21, 22, 23, 24, 25, 26, 27, 29]",263.7508621,8402,8274,6,219,11,1.0
undo,18,27,0,0,0,13,"[0, 15, 13]",3,18,"[1, 3, 5, 6, 8, 9, 10, 12, 14, 17, 18, 19, 23, 24, 25, 26, 27, 29]",201.4853018,9211,809,60,238,9,1.0010395093455284
undo,18,27,0,0,0,19,"[0, 15, 13, 19]",4,15,"[1, 5, 8, 9, 10, 12, 14, 17, 18, 23, 24, 25, 26, 27, 29]",165.2499599,11859,2648,17,34,9,1.03653877
undo,18,27,0,0,0,8,"[0, 15, 13, 19, 8]",5,12,"[1, 5, 9, 10, 12, 14, 17, 23, 24, 25, 27, 29]",150.3838912,16206,4347,17,10,9,1.1070532651915044
undo,18,27,0,0,0,14,"[0, 15, 13, 19, 8, 14]",6,2,"[5, 29]",92.82522544,18820,2614,2,0,7,1.1293910470324233
undo,18,27,0,0,1,5,"[0, 15, 13, 19, 8, 14, 5]",7,0,[],7.731159841,20936,2116,1,0,7,1.1431675376300094
undo,18,27,0,1,1,5,"[0, 15, 13, 19, 8, 14, 5]",7,0,[],7.731159841,22345,1409,1,0,7,1.1431675376300094
undo,19,14,0,0,0,0,[0],1,29,"[1, 2, 3, 4, 5, 6, 7, 8, 9, 10, 11, 12, 13, 14, 15, 16, 17, 18, 19, 20, 21, 22, 23, 24, 25, 26, 27, 28, 29]",300,147,-1,8,157,10,0.0
undo,19,14,0,0,0,28,"[0, 28]",2,18,"[1, 2, 3, 4, 7, 8, 9, 13, 15, 17, 18, 19, 20, 22, 23, 25, 26, 27]",201.8725319,1290,1143,30,170,9,1.0
undo,19,14,0,0,0,17,"[0, 28, 17]",3,16,"[1, 2, 3, 4, 7, 8, 9, 13, 15, 18, 19, 20, 22, 23, 25, 26]",188.4189078,4324,3034,18,87,9,1.032450375957012
undo,19,14,0,0,0,18,"[0, 28, 17, 18]",4,10,"[1, 2, 4, 7, 8, 15, 19, 23, 25, 26]",123.7891933,5785,1461,9,32,9,1.4671503734187783
undo,19,14,0,0,0,8,"[0, 28, 17, 18, 8]",5,9,"[1, 2, 4, 7, 15, 19, 23, 25, 26]",110.1877228,6582,797,9,21,9,1.4485688833784305
undo,19,14,0,0,0,1,"[0, 28, 17, 18, 8, 1]",6,5,"[7, 19, 23, 25, 26]",86.58687535,14530,7948,4,8,9,1.3801949006023337
undo,19,14,0,0,0,23,"[0, 28, 17, 18, 8, 1, 23]",7,3,"[7, 25, 26]",38.58687535,18057,3527,3,0,8,1.3907117741112227
undo,19,14,0,0,1,25,"[0, 28, 17, 18, 8, 1, 23, 25]",8,0,[],9.175993012,19690,1633,1,0,8,1.7767555741520953
undo,19,14,0,1,1,25,"[0, 28, 17, 18, 8, 1, 23, 25]",8,0,[],9.175993012,20983,1293,1,0,8,1.7767555741520953
undo,20,4,0,0,0,0,[0],1,26,"[3, 4, 5, 6, 7, 8, 10, 11, 12, 13, 14, 15, 16, 17, 18, 19, 20, 21, 22, 23, 24, 25, 26, 27, 28, 29]",300,129,-1,4,489,10,0.0
undo,20,4,0,0,0,20,"[0, 20]",2,14,"[3, 4, 5, 11, 12, 13, 14, 16, 17, 21, 22, 24, 25, 28]",117.2734283,3466,3337,1,17,7,1.0
undo,20,4,0,0,0,5,"[0, 20, 5]",3,6,"[12, 16, 17, 21, 22, 24]",86.85961566,8072,4606,2,4,5,1.0795551341885086
undo,20,4,0,0,1,24,"[0, 20, 5, 24]",4,0,[],47.23639015,9818,1746,1,0,4,1.078945689702006
undo,20,4,0,1,1,24,"[0, 20, 5, 24]",4,0,[],47.23639015,12970,3152,1,0,4,1.078945689702006
undo,21,30,0,0,0,0,[0],1,19,"[3, 4, 5, 7, 9, 11, 16, 17, 18, 19, 20, 21, 22, 24, 25, 26, 27, 28, 29]",300,129,-1,5,41,8,0.0
undo,21,30,0,0,0,16,"[0, 16]",2,17,"[3, 5, 7, 9, 11, 17, 18, 19, 20, 21, 22, 24, 25, 26, 27, 28, 29]",219.3774225,18109,17980,5,34,8,1.0
undo,21,30,0,0,0,11,"[0, 16, 11]",3,7,"[9, 17, 20, 21, 22, 25, 26]",117.1962109,19697,1588,4,4,5,1.0258711385446289
undo,21,30,0,0,0,9,"[0, 16, 11, 9]",4,2,"[20, 25]",60.68072633,22360,2663,2,0,5,1.1786838797126196
undo,21,30,0,0,1,20,"[0, 16, 11, 9, 20]",5,0,[],10.7507754,23955,1595,1,0,5,1.4456318599626854
undo,21,30,0,1,1,20,"[0, 16, 11, 9, 20]",5,0,[],10.7507754,24912,957,1,0,5,1.4456318599626854
undo,22,20,0,0,0,0,[0],1,21,"[1, 2, 3, 4, 5, 6, 7, 8, 9, 12, 17, 18, 20, 21, 22, 23, 25, 26, 27, 28, 29]",300,164,-1,1,9,9,0.0
undo,22,20,0,0,0,29,"[0, 29]",2,16,"[1, 3, 4, 5, 7, 8, 12, 17, 18, 20, 21, 22, 23, 25, 27, 28]",245.8797635,3315,3151,1,18,7,1.0
undo,22,20,0,0,0,18,"[0, 29, 18]",3,4,"[3, 7, 17, 25]",114.2894903,5463,2148,4,5,6,1.0077347786439768
undo,22,20,0,0,0,7,"[0, 29, 18, 7]",4,2,"[17, 25]",71.15018107,6547,1084,2,0,6,1.0069673987739078
undo,22,20,0,0,0,25,"[0, 29, 18, 7, 25]",5,1,[17],33.66685144,8797,2250,1,0,6,1.170370140077421
undo,22,20,0,0,1,17,"[0, 29, 18, 7, 25, 17]",6,0,[],9.583662286,10048,1251,1,0,6,1.425649263535318
undo,22,20,0,1,1,17,"[0, 29, 18, 7, 25, 17]",6,0,[],9.583662286,11039,991,1,0,6,1.425649263535318
basic,23,14,0,0,0,0,[0],1,29,"[1, 2, 3, 4, 5, 6, 7, 8, 9, 10, 11, 12, 13, 14, 15, 16, 17, 18, 19, 20, 21, 22, 23, 24, 25, 26, 27, 28, 29]",300,132,-1,8,157,10,0.0
basic,23,14,0,0,0,22,"[0, 22]",2,24,"[1, 2, 3, 4, 6, 7, 8, 9, 10, 11, 13, 15, 17, 18, 19, 20, 21, 23, 24, 25, 26, 27, 28, 29]",254.745166,5451,5319,1,39,8,1.0
basic,23,14,0,0,0,20,"[0, 22, 20]",3,14,"[1, 3, 8, 9, 10, 13, 15, 17, 18, 19, 21, 27, 28, 29]",188.8209671,7417,1966,14,24,7,1.7384461316672633
basic,23,14,0,0,0,13,"[0, 22, 20, 13]",4,3,"[15, 17, 28]",131.3318377,11465,4048,6,0,7,1.5317653442980443
basic,23,14,0,0,0,15,"[0, 22, 20, 13, 15]",5,2,"[17, 28]",54.30586805,13470,2005,2,0,7,2.9496985612089706
basic,23,14,0,0,0,28,"[0, 22, 20, 13, 15, 28]",6,1,[17],35.09649534,18408,4938,1,0,7,2.6995856484457543
basic,23,14,0,0,1,17,"[0, 22, 20, 13, 15, 28, 17]",7,0,[],21.6428713,19596,1188,1,0,7,2.5756148869873616
basic,23,14,0,1,1,17,"[0, 22, 20, 13, 15, 28, 17]",7,0,[],21.6428713,21934,2338,1,0,7,2.5756148869873616
basic,24,36,0,0,0,0,[0],1,24,"[2, 4, 5, 6, 7, 8, 9, 10, 12, 13, 14, 15, 16, 17, 18, 19, 20, 22, 23, 25, 26, 27, 28, 29]",300,130,-1,2,200,10,0.0
basic,24,36,0,0,0,9,"[0, 9]",2,16,"[2, 4, 8, 10, 12, 13, 16, 17, 18, 19, 23, 25, 26, 27, 28, 29]",230.9348134,2585,2455,81,367,8,1.0
basic,24,36,0,0,0,2,"[0, 9, 2]",3,13,"[4, 8, 10, 12, 13, 16, 17, 18, 19, 23, 25, 27, 29]",180.6456496,5188,2603,3,42,8,1.0568955603412222
basic,24,36,0,0,0,25,"[0, 9, 2, 25]",4,12,"[4, 8, 10, 12, 13, 16, 17, 18, 19, 23, 27, 29]",155.6456496,7330,2142,2,14,8,1.2608448833666892
basic,24,36,0,0,0,4,"[0, 9, 2, 25, 4]",5,1,[29],38.57729346,9229,1899,1,0,6,1.496975686731817
basic,24,36,0,0,1,29,"[0, 9, 2, 25, 4, 29]",6,0,[],18.55230906,10194,965,1,0,6,1.4486458352131135
basic,24,36,0,1,1,29,"[0, 9, 2, 25, 4, 29]",6,0,[],18.55230906,11488,1294,1,0,6,1.4486458352131135
basic,25,38,0,0,0,0,[0],1,29,"[1, 2, 3, 4, 5, 6, 7, 8, 9, 10, 11, 12, 13, 14, 15, 16, 17, 18, 19, 20, 21, 22, 23, 24, 25, 26, 27, 28, 29]",300,147,-1,33,506,9,0.0
basic,25,38,0,0,0,19,"[0, 19]",2,23,"[3, 4, 5, 6, 7, 8, 9, 11, 13, 14, 15, 16, 17, 18, 20, 22, 23, 24, 25, 26, 27, 28, 29]",219.5015528,11999,11852,6,61,9,1.0
basic,25,38,0,0,0,17,"[0, 19, 17]",3,21,"[3, 4, 5, 6, 7, 9, 11, 13, 14, 15, 16, 18, 20, 22, 23, 24, 25, 26, 27, 28, 29]",198.1239945,13742,1743,6,53,9,1.571793785769489
basic,25,38,0,0,0,20,"[0, 19, 17, 20]",4,17,"[3, 4, 5, 6, 7, 11, 13, 14, 15, 16, 18, 22, 24, 25, 26, 27, 28]",174.3542658,14874,1132,6,44,9,2.333182710277297
basic,25,38,0,0,0,15,"[0, 19, 17, 20, 15]",5,9,"[4, 5, 11, 13, 14, 16, 24, 26, 28]",118.8925673,20041,5167,10,14,8,2.468219326855957
basic,25,38,0,0,0,13,"[0, 19, 17, 20, 15, 13]",6,3,"[4, 24, 26]",67.41441664,21853,1812,1,2,8,2.3795244595158755
basic,25,38,0,0,0,26,"[0, 19, 17, 20, 15, 13, 26]",7,1,[24],36.36606724,24061,2208,1,0,8,2.0940482054129808
basic,25,38,0,0,1,24,"[0, 19, 17, 20, 15, 13, 26, 24]",8,0,[],5.560223641,27749,3688,1,0,8,1.8970863246018408
basic,25,38,0,1,1,24,"[0, 19, 17, 20, 15, 13, 26, 24]",8,0,[],5.560223641,29010,1261,1,0,8,1.8970863246018408
basic,26,37,0,0,0,0,[0],1,29,"[1, 2, 3, 4, 5, 6, 7, 8, 9, 10, 11, 12, 13, 14, 15, 16, 17, 18, 19, 20, 21, 22, 23, 24, 25, 26, 27, 28, 29]",300,130,-1,6,168,10,0.0
basic,26,37,0,0,0,10,"[0, 10]",2,23,"[1, 2, 3, 4, 5, 6, 7, 9, 11, 12, 15, 17, 18, 19, 20, 21, 22, 23, 25, 26, 27, 28, 29]",200.3757058,6391,6261,19,104,7,1.0
basic,26,37,0,0,0,29,"[0, 10, 29]",3,14,"[1, 3, 5, 6, 11, 15, 17, 18, 19, 20, 21, 25, 26, 28]",139.6303356,8100,1709,14,13,6,1.2363592542754747
basic,26,37,0,0,0,26,"[0, 10, 29, 26]",4,3,"[15, 20, 21]",50.4339231,10586,2486,3,1,6,1.4252544134835676
basic,26,37,0,0,0,21,"[0, 10, 29, 26, 21]",5,2,"[15, 20]",20.7017856,13659,3073,2,0,6,1.7996781084524847
basic,26,37,0,0,1,20,"[0, 10, 29, 26, 21, 20]",6,0,[],6.2795805,15583,1924,1,0,6,1.959486463728058
basic,26,37,0,1,1,20,"[0, 10, 29, 26, 21, 20]",6,0,[],6.2795805,16885,1302,1,0,6,1.959486463728058
basic,27,12,0,0,0,0,[0],1,29,"[1, 2, 3, 4, 5, 6, 7, 8, 9, 10, 11, 12, 13, 14, 15, 16, 17, 18, 19, 20, 21, 22, 23, 24, 25, 26, 27, 28, 29]",300,131,-1,2,32,9,0.0
basic,27,12,0,0,0,22,"[0, 22]",2,22,"[2, 4, 5, 6, 7, 9, 10, 12, 13, 14, 15, 16, 17, 18, 19, 21, 23, 24, 25, 27, 28, 29]",211.9943184,4750,4619,6,42,8,1.0
basic,27,12,0,0,0,27,"[0, 22, 27]",3,6,"[4, 12, 14, 16, 19, 24]",128.9401192,6435,1685,7,10,6,1.0000766081212462
basic,27,12,0,0,0,24,"[0, 22, 27, 24]",4,4,"[4, 12, 14, 19]",89.73552763,9830,3395,1,3,6,1.1781787336592537
basic,27,12,0,0,1,19,"[0, 22, 27, 24, 19]",5,0,[],30.91376295,12046,2216,1,0,5,2.065620639228074
basic,27,12,0,1,1,19,"[0, 22, 27, 24, 19]",5,0,[],30.91376295,12805,759,1,0,5,2.065620639228074
basic,28,16,0,0,0,0,[0],1,29,"[1, 2, 3, 4, 5, 6, 7, 8, 9, 10, 11, 12, 13, 14, 15, 16, 17, 18, 19, 20, 21, 22, 23, 24, 25, 26, 27, 28, 29]",300,115,-1,13,161,9,0.0
basic,28,16,0,0,0,17,"[0, 17]",2,27,"[1, 2, 3, 4, 5, 7, 8, 9, 10, 11, 12, 13, 14, 15, 16, 18, 19, 20, 21, 22, 23, 24, 25, 26, 27, 28, 29]",241.3058776,3693,3578,2,58,9,1.0
basic,28,16,0,0,0,16,"[0, 17, 16]",3,26,"[1, 2, 3, 4, 5, 7, 8, 9, 10, 11, 12, 13, 14, 15, 18, 19, 20, 21, 22, 23, 24, 25, 26, 27, 28, 29]",212.9862731,5292,1599,2,52,9,1.0529535521792848
basic,28,16,0,0,0,8,"[0, 17, 16, 8]",4,19,"[2, 3, 4, 5, 9, 12, 13, 14, 15, 19, 20, 21, 22, 23, 25, 26, 27, 28, 29]",164.6127266,7482,2190,2,38,9,1.0915134501573105
basic,28,16,0,0,0,20,"[0, 17, 16, 8, 20]",5,10,"[3, 4, 5, 9, 12, 13, 15, 19, 21, 25]",106.8372993,9248,1766,1,15,9,1.067523143001942
basic,28,16,0,0,0,12,"[0, 17, 16, 8, 20, 12]",6,1,[19],40.196471,11422,2174,1,0,7,1.3944171526979083
basic,28,16,0,0,1,19,"[0, 17, 16, 8, 20, 12, 19]",7,0,[],3.961129137,13134,1712,1,0,7,1.4362529303633826
basic,28,16,0,1,1,19,"[0, 17, 16, 8, 20, 12, 19]",7,0,[],3.961129137,13956,822,1,0,7,1.4362529303633826
basic,29,29,0,0,0,0,[0],1,29,"[1, 2, 3, 4, 5, 6, 7, 8, 9, 10, 11, 12, 13, 14, 15, 16, 17, 18, 19, 20, 21, 22, 23, 24, 25, 26, 27, 28, 29]",300,148,-1,1,78,9,0.0
basic,29,29,0,0,0,22,"[0, 22]",2,22,"[1, 3, 4, 5, 6, 7, 9, 10, 11, 12, 13, 14, 15, 16, 17, 21, 23, 25, 26, 27, 28, 29]",183.034193,2002,1854,11,109,7,1.0
basic,29,29,0,0,0,26,"[0, 22, 26]",3,10,"[3, 6, 7, 11, 12, 15, 23, 27, 28, 29]",105.542258,3910,1908,8,5,5,1.26774741234955
basic,29,29,0,0,0,3,"[0, 22, 26, 3]",4,2,"[11, 29]",54.34655502,5317,1407,2,0,5,1.311705686594368
basic,29,29,0,0,1,11,"[0, 22, 26, 3, 11]",5,0,[],18.54152744,6671,1354,1,0,5,1.5729829256063943
basic,29,29,0,1,1,11,"[0, 22, 26, 3, 11]",5,0,[],18.54152744,7742,1071,1,0,5,1.5729829256063943
basic,30,25,0,0,0,0,[0],1,28,"[1, 2, 3, 4, 5, 7, 8, 9, 10, 11, 12, 13, 14, 15, 16, 17, 18, 19, 20, 21, 22, 23, 24, 25, 26, 27, 28, 29]",300,148,-1,5,94,10,0.0
basic,30,25,0,0,0,19,"[0, 19]",2,27,"[1, 2, 3, 4, 5, 7, 8, 9, 10, 11, 12, 13, 14, 15, 16, 17, 18, 20, 21, 22, 23, 24, 25, 26, 27, 28, 29]",251.9479449,4335,4187,2,30,10,1.0
basic,30,25,0,0,0,22,"[0, 19, 22]",3,25,"[1, 2, 3, 4, 5, 7, 8, 9, 11, 12, 13, 14, 15, 16, 17, 18, 20, 21, 23, 24, 25, 26, 27, 28, 29]",222.5370626,6016,1681,7,45,9,1.001210983318031
basic,30,25,0,0,0,11,"[0, 19, 22, 11]",4,12,"[3, 7, 9, 13, 14, 15, 16, 17, 24, 26, 27, 28]",113.3125232,7514,1498,6,8,6,1.0046257830814058
basic,30,25,0,0,0,16,"[0, 19, 22, 11, 16]",5,1,[14],38.65999476,13145,5631,1,0,6,1.0339017141057167
basic,30,25,0,0,1,14,"[0, 19, 22, 11, 16, 14]",6,0,[],22.2587753,15578,2433,1,0,6,1.0573887464938945
basic,30,25,0,1,1,14,"[0, 19, 22, 11, 16, 14]",6,0,[],22.2587753,16487,909,1,0,6,1.0573887464938945
basic,31,21,0,0,0,0,[0],1,29,"[1, 2, 3, 4, 5, 6, 7, 8, 9, 10, 11, 12, 13, 14, 15, 16, 17, 18, 19, 20, 21, 22, 23, 24, 25, 26, 27, 28, 29]",300,165,-1,84,830,9,0.0
basic,31,21,0,0,0,21,"[0, 21]",2,22,"[1, 3, 4, 6, 8, 9, 10, 11, 12, 14, 15, 16, 17, 18, 20, 22, 23, 24, 25, 26, 27, 29]",210.1111798,2901,2736,1,69,9,1.0
basic,31,21,0,0,0,14,"[0, 21, 14]",3,15,"[1, 4, 6, 8, 9, 15, 16, 17, 18, 20, 22, 23, 24, 25, 29]",184.4986828,4291,1390,35,96,8,1.0083702391721483
basic,31,21,0,0,0,4,"[0, 21, 14, 4]",4,13,"[1, 8, 9, 15, 16, 17, 18, 20, 22, 23, 24, 25, 29]",170.3565472,6633,2342,20,39,8,1.0135821167776475
basic,31,21,0,0,0,16,"[0, 21, 14, 4, 16]",5,7,"[8, 15, 17, 23, 24, 25, 29]",125.758341,7872,1239,4,6,8,1.0675217597413178
basic,31,21,0,0,0,8,"[0, 21, 14, 4, 16, 8]",6,3,"[15, 23, 24]",107.1572657,9255,1383,3,1,8,1.0643903127717425
basic,31,21,0,0,0,15,"[0, 21, 14, 4, 16, 8, 15]",7,2,"[23, 24]",82.15726573,13014,3759,2,0,8,1.29402645910376
basic,31,21,0,0,1,23,"[0, 21, 14, 4, 16, 8, 15, 23]",8,0,[],10.28933129,14997,1983,1,0,8,2.9257734162199216
basic,31,21,0,1,1,23,"[0, 21, 14, 4, 16, 8, 15, 23]",8,0,[],10.28933129,15804,807,1,0,8,2.9257734162199216
basic,32,31,0,0,0,0,[0],1,27,"[1, 3, 4, 5, 6, 7, 8, 10, 11, 12, 13, 14, 15, 16, 17, 18, 19, 20, 21, 22, 23, 24, 25, 26, 27, 28, 29]",300,164,-1,2,87,10,0.0
basic,32,31,0,0,0,14,"[0, 14]",2,25,"[1, 3, 5, 6, 7, 8, 10, 11, 12, 13, 15, 16, 17, 18, 19, 20, 21, 22, 23, 24, 25, 26, 27, 28, 29]",263.861378,8187,8023,2,59,10,1.0
basic,32,31,0,0,0,10,"[0, 14, 10]",3,5,"[13, 15, 21, 24, 29]",101.596163,12227,4040,5,3,5,1.0000010483726158
basic,32,31,0,0,0,21,"[0, 14, 10, 21]",4,3,"[13, 15, 24]",86.83133994,13492,1265,3,0,5,1.0212441348721135
basic,32,31,0,0,1,15,"[0, 14, 10, 21, 15]",5,0,[],19.98076028,15283,1791,1,0,5,1.0916203551011832
basic,32,31,0,1,1,15,"[0, 14, 10, 21, 15]",5,0,[],19.98076028,16220,937,1,0,5,1.0916203551011832
basic,33,39,0,0,0,0,[0],1,28,"[1, 2, 3, 4, 5, 6, 7, 9, 10, 11, 12, 13, 14, 15, 16, 17, 18, 19, 20, 21, 22, 23, 24, 25, 26, 27, 28, 29]",300,129,-1,1,30,10,0.0
basic,33,39,0,0,0,22,"[0, 22]",2,15,"[1, 2, 4, 5, 7, 10, 12, 13, 16, 17, 18, 19, 24, 26, 29]",145.1581452,4914,4785,1,28,7,1.0
basic,33,39,0,0,0,26,"[0, 22, 26]",3,11,"[1, 2, 5, 7, 10, 12, 13, 16, 18, 19, 29]",127.4381,7278,2364,13,18,6,1.068336027580806
basic,33,39,0,0,0,7,"[0, 22, 26, 7]",4,9,"[1, 2, 10, 12, 13, 16, 18, 19, 29]",108.7565584,10237,2959,7,5,6,1.2568484524543704
basic,33,39,0,0,0,10,"[0, 22, 26, 7, 10]",5,2,"[12, 29]",75.33500842,18549,8312,2,0,6,1.8906801098378985
basic,33,39,0,0,1,29,"[0, 22, 26, 7, 10, 29]",6,0,[],10.69755798,21945,3396,1,0,6,5.080957875233754
basic,33,39,0,1,1,29,"[0, 22, 26, 7, 10, 29]",6,0,[],10.69755798,23446,1501,1,0,6,5.080957875233754
basic,34,32,0,0,0,0,[0],1,29,"[1, 2, 3, 4, 5, 6, 7, 8, 9, 10, 11, 12, 13, 14, 15, 16, 17, 18, 19, 20, 21, 22, 23, 24, 25, 26, 27, 28, 29]",300,132,-1,17,359,10,0.0
basic,34,32,0,0,0,26,"[0, 26]",2,23,"[1, 3, 4, 5, 6, 7, 9, 11, 12, 13, 14, 15, 16, 18, 19, 21, 22, 23, 24, 25, 27, 28, 29]",178.7976898,2426,2294,2,15,7,1.0
basic,34,32,0,0,0,5,"[0, 26, 5]",3,13,"[3, 9, 12, 13, 14, 15, 16, 19, 22, 23, 24, 27, 28]",130.1355895,3672,1246,2,12,7,1.849633139333325
basic,34,32,0,0,0,15,"[0, 26, 5, 15]",4,3,"[12, 16, 28]",49.91090507,5499,1827,1,3,7,2.929078362773585
basic,34,32,0,0,0,28,"[0, 26, 5, 15, 28]",5,2,"[12, 16]",38.50915082,7297,1798,1,1,7,2.702251663769315
basic,34,32,0,0,0,12,"[0, 26, 5, 15, 28, 12]",6,1,[16],19.53548486,9097,1800,1,0,7,2.4910750164362856
basic,34,32,0,0,1,16,"[0, 26, 5, 15, 28, 12, 16]",7,0,[],3.883009014,10013,916,1,0,7,2.5217204583289
basic,34,32,0,1,1,16,"[0, 26, 5, 15, 28, 12, 16]",7,0,[],3.883009014,10774,761,1,0,7,2.5217204583289
basic,35,41,0,0,0,0,[0],1,29,"[1, 2, 3, 4, 5, 6, 7, 8, 9, 10, 11, 12, 13, 14, 15, 16, 17, 18, 19, 20, 21, 22, 23, 24, 25, 26, 27, 28, 29]",300,130,-1,1,143,10,0.0
basic,35,41,0,0,0,21,"[0, 21]",2,28,"[1, 2, 3, 4, 5, 6, 7, 8, 9, 10, 11, 12, 13, 14, 15, 16, 17, 18, 19, 20, 22, 23, 24, 25, 26, 27, 28, 29]",251.1226024,3574,3444,50,469,8,1.0
basic,35,41,0,0,0,12,"[0, 21, 12]",3,21,"[1, 2, 3, 4, 5, 6, 8, 9, 10, 11, 13, 14, 15, 16, 17, 19, 22, 23, 25, 28, 29]",173.1161924,6831,3257,2,25,7,1.001042051085489
basic,35,41,0,0,0,25,"[0, 21, 12, 25]",4,11,"[2, 3, 6, 8, 9, 11, 16, 19, 22, 23, 29]",125.9462867,7931,1100,6,7,6,1.0982454438981943
basic,35,41,0,0,0,6,"[0, 21, 12, 25, 6]",5,1,[11],61.10031536,9295,1364,1,0,6,1.3959050892278373
basic,35,41,0,0,1,11,"[0, 21, 12, 25, 6, 11]",6,0,[],15.97825867,11112,1817,1,0,6,1.320902771504101
basic,35,41,0,1,1,11,"[0, 21, 12, 25, 6, 11]",6,0,[],15.97825867,12072,960,1,0,6,1.320902771504101
basic,36,40,0,0,0,0,[0],1,29,"[1, 2, 3, 4, 5, 6, 7, 8, 9, 10, 11, 12, 13, 14, 15, 16, 17, 18, 19, 20, 21, 22, 23, 24, 25, 26, 27, 28, 29]",300,147,-1,8,191,9,0.0
basic,36,40,0,0,0,2,"[0, 2]",2,28,"[1, 3, 4, 5, 6, 7, 8, 9, 10, 11, 12, 13, 14, 15, 16, 17, 18, 19, 20, 21, 22, 23, 24, 25, 26, 27, 28, 29]",263.7646581,3763,3616,4,79,9,1.0
basic,36,40,0,0,0,19,"[0, 2, 19]",3,22,"[1, 5, 6, 7, 8, 9, 10, 11, 13, 14, 15, 17, 18, 20, 21, 22, 23, 24, 25, 26, 27, 29]",194.4249148,5654,1891,19,105,8,1.02908296307533
basic,36,40,0,0,0,23,"[0, 2, 19, 23]",4,15,"[1, 5, 6, 7, 8, 9, 10, 11, 13, 17, 18, 21, 22, 27, 29]",162.4718242,6563,909,11,38,8,1.4499965171787688
basic,36,40,0,0,0,5,"[0, 2, 19, 23, 5]",5,10,"[1, 6, 7, 8, 9, 11, 18, 21, 22, 27]",134.1698808,7690,1127,4,12,8,1.3483906154476113
basic,36,40,0,0,0,22,"[0, 2, 19, 23, 5, 22]",6,2,"[11, 27]",71.55997746,9043,1353,2,0,7,1.289880711252456
basic,36,40,0,0,1,11,"[0, 2, 19, 23, 5, 22, 11]",7,0,[],16.55997746,10278,1235,1,0,7,1.221315866869351
basic,36,40,0,1,1,11,"[0, 2, 19, 23, 5, 22, 11]",7,0,[],16.55997746,11056,778,1,0,7,1.221315866869351
basic,37,1,0,0,0,0,[0],1,26,"[1, 2, 4, 5, 7, 8, 9, 10, 11, 12, 13, 14, 15, 16, 17, 18, 19, 20, 21, 22, 23, 24, 25, 26, 28, 29]",300,129,-1,6,74,7,0.0
basic,37,1,0,0,0,14,"[0, 14]",2,19,"[1, 4, 5, 8, 9, 13, 15, 17, 18, 19, 20, 21, 22, 23, 24, 25, 26, 28, 29]",200.1901808,3838,3709,5,42,7,1.0
basic,37,1,0,0,0,17,"[0, 14, 17]",3,15,"[1, 4, 5, 8, 9, 13, 15, 18, 19, 20, 22, 23, 25, 28, 29]",147.8356204,6155,2317,5,27,7,1.0028844724416826
basic,37,1,0,0,0,1,"[0, 14, 17, 1]",4,12,"[4, 5, 8, 9, 15, 18, 20, 22, 23, 25, 28, 29]",123.4840291,10382,4227,5,15,7,1.0264985578353567
basic,37,1,0,0,0,28,"[0, 14, 17, 1, 28]",5,5,"[9, 15, 22, 23, 29]",88.59850198,12408,2026,5,3,7,1.0339861575999345
basic,37,1,0,0,0,23,"[0, 14, 17, 1, 28, 23]",6,2,"[15, 22]",51.70676849,14278,1870,2,0,7,1.0327458250705703
basic,37,1,0,0,1,22,"[0, 14, 17, 1, 28, 23, 22]",7,0,[],3.696352956,19565,5287,1,0,7,1.0700788216594126
basic,37,1,0,1,1,22,"[0, 14, 17, 1, 28, 23, 22]",7,0,[],3.696352956,20648,1083,1,0,7,1.0700788216594126
basic,38,18,0,0,0,0,[0],1,28,"[1, 2, 3, 4, 5, 6, 7, 8, 9, 10, 11, 12, 13, 14, 16, 17, 18, 19, 20, 21, 22, 23, 24, 25, 26, 27, 28, 29]",300,131,-1,3,136,10,0.0
basic,38,18,0,0,0,4,"[0, 4]",2,5,"[11, 16, 17, 20, 29]",124.144946,10171,10040,3,3,4,1.0
basic,38,18,0,0,0,29,"[0, 4, 29]",3,2,"[11, 17]",66.57759419,11845,1674,2,0,4,1.000670750127797
basic,38,18,0,0,1,11,"[0, 4, 29, 11]",4,0,[],39.11853376,13777,1932,1,0,4,1.0021383637580057
basic,38,18,0,1,1,11,"[0, 4, 29, 11]",4,0,[],39.11853376,16504,2727,1,0,4,1.0021383637580057
basic,39,43,0,0,0,0,[0],1,23,"[1, 2, 3, 4, 5, 6, 7, 9, 10, 11, 12, 14, 15, 16, 17, 19, 20, 21, 22, 23, 25, 27, 29]",300,128,-1,16,556,12,0.0
basic,39,43,0,0,0,29,"[0, 29]",2,22,"[1, 2, 3, 4, 5, 6, 7, 9, 10, 11, 12, 14, 15, 16, 17, 19, 20, 21, 22, 23, 25, 27]",277.909278,4197,4069,16,520,12,1.0
basic,39,43,0,0,0,16,"[0, 29, 16]",3,21,"[1, 2, 3, 4, 5, 6, 7, 9, 10, 11, 12, 14, 15, 17, 19, 20, 21, 22, 23, 25, 27]",243.8945753,6516,2319,1,94,12,1.0004480205874837
basic,39,43,0,0,0,11,"[0, 29, 16, 11]",4,19,"[1, 2, 3, 4, 6, 7, 9, 10, 12, 14, 15, 17, 19, 20, 21, 22, 23, 25, 27]",208.7662391,8364,1848,1,46,12,1.0025688010989011
basic,39,43,0,0,0,6,"[0, 29, 16, 11, 6]",5,17,"[1, 2, 3, 4, 7, 9, 10, 12, 14, 15, 17, 19, 20, 21, 22, 23, 25]",188.150711,9992,1628,1,34,12,1.0141332499976838
basic,39,43,0,0,0,4,"[0, 29, 16, 11, 6, 4]",6,3,"[1, 7, 10]",84.41065123,18186,8194,3,0,7,1.0253379767632298
basic,39,43,0,0,1,7,"[0, 29, 16, 11, 6, 4, 7]",7,0,[],30.37362688,22100,3914,1,0,7,1.5279776883528016
basic,39,43,0,1,1,7,"[0, 29, 16, 11, 6, 4, 7]",7,0,[],30.37362688,23845,1745,1,0,7,1.5279776883528016
basic,40,13,0,0,0,0,[0],1,29,"[1, 2, 3, 4, 5, 6, 7, 8, 9, 10, 11, 12, 13, 14, 15, 16, 17, 18, 19, 20, 21, 22, 23, 24, 25, 26, 27, 28, 29]",300,129,-1,60,2676,11,0.0
basic,40,13,0,0,0,28,"[0, 28]",2,24,"[1, 2, 3, 4, 6, 7, 8, 9, 10, 11, 12, 13, 15, 16, 17, 19, 20, 21, 22, 23, 24, 26, 27, 29]",226.3182519,4072,3943,12,378,10,1.0
basic,40,13,0,0,0,2,"[0, 28, 2]",3,20,"[1, 3, 4, 6, 7, 9, 11, 12, 13, 15, 16, 17, 19, 20, 21, 23, 24, 26, 27, 29]",188.6751915,6478,2406,9,174,10,1.0158286399660754
basic,40,13,0,0,0,29,"[0, 28, 2, 29]",4,19,"[1, 3, 4, 6, 7, 9, 11, 12, 13, 15, 16, 17, 19, 20, 21, 23, 24, 26, 27]",176.9704916,8428,1950,9,132,10,1.1053279759370194
basic,40,13,0,0,0,7,"[0, 28, 2, 29, 7]",5,18,"[1, 3, 4, 6, 9, 11, 12, 13, 15, 16, 17, 19, 20, 21, 23, 24, 26, 27]",161.706154,9926,1498,6,72,10,1.313811244316471
basic,40,13,0,0,0,26,"[0, 28, 2, 29, 7, 26]",6,17,"[1, 3, 4, 6, 9, 11, 12, 13, 15, 16, 17, 19, 20, 21, 23, 24, 27]",151.2658475,10777,851,6,39,10,1.554636901089982
basic,40,13,0,0,0,6,"[0, 28, 2, 29, 7, 26, 6]",7,13,"[1, 3, 4, 11, 13, 15, 16, 17, 19, 20, 23, 24, 27]",131.1660963,12929,2152,4,17,10,1.554967005613632
basic,40,13,0,0,0,11,"[0, 28, 2, 29, 7, 26, 6, 11]",8,6,"[1, 13, 15, 16, 17, 23]",112.0611231,14617,1688,3,4,10,1.4733168623367165
basic,40,13,0,0,0,17,"[0, 28, 2, 29, 7, 26, 6, 11, 17]",9,1,[13],40.4720178,16664,2047,1,0,10,1.305942716380454
basic,40,13,0,0,1,13,"[0, 28, 2, 29, 7, 26, 6, 11, 17, 13]",10,0,[],7.09537926,20976,4312,1,0,10,1.6141242116952677
basic,40,13,0,1,1,13,"[0, 28, 2, 29, 7, 26, 6, 11, 17, 13]",10,0,[],7.09537926,23362,2386,1,0,10,1.6141242116952677
basic,41,44,0,0,0,0,[0],1,29,"[1, 2, 3, 4, 5, 6, 7, 8, 9, 10, 11, 12, 13, 14, 15, 16, 17, 18, 19, 20, 21, 22, 23, 24, 25, 26, 27, 28, 29]",300,131,-1,13,126,7,0.0
basic,41,44,0,0,0,9,"[0, 9]",2,17,"[2, 4, 5, 7, 8, 10, 11, 12, 13, 14, 20, 22, 23, 24, 25, 26, 28]",141.32423,7625,7494,3,26,7,1.0
basic,41,44,0,0,0,4,"[0, 9, 4]",3,15,"[2, 5, 7, 8, 10, 11, 12, 14, 20, 22, 23, 24, 25, 26, 28]",121.6265143,11413,3788,3,21,7,1.0155532843148096
basic,41,44,0,0,0,7,"[0, 9, 4, 7]",4,10,"[2, 5, 11, 12, 14, 23, 24, 25, 26, 28]",90.61038951,18014,6601,3,9,7,1.0134022837125412
basic,41,44,0,0,0,23,"[0, 9, 4, 7, 23]",5,7,"[5, 12, 14, 24, 25, 26, 28]",71.50541634,19274,1260,3,4,7,1.043310757564056
basic,41,44,0,0,0,28,"[0, 9, 4, 7, 23, 28]",6,1,[26],19.5342705,21998,2724,1,0,7,1.0580072524850708
basic,41,44,0,0,1,26,"[0, 9, 4, 7, 23, 28, 26]",7,0,[],6.534270496,23138,1140,1,0,7,1.055488728885845
basic,41,44,0,1,1,26,"[0, 9, 4, 7, 23, 28, 26]",7,0,[],6.534270496,25381,2243,1,0,7,1.055488728885845
basic,42,8,0,0,0,0,[0],1,29,"[1, 2, 3, 4, 5, 6, 7, 8, 9, 10, 11, 12, 13, 14, 15, 16, 17, 18, 19, 20, 21, 22, 23, 24, 25, 26, 27, 28, 29]",300,163,-1,10,149,9,0.0
basic,42,8,0,0,0,25,"[0, 25]",2,22,"[1, 2, 3, 4, 5, 6, 7, 11, 12, 14, 15, 16, 17, 18, 19, 20, 21, 22, 23, 24, 28, 29]",230.992754,3249,3086,26,209,8,1.0
basic,42,8,0,0,0,5,"[0, 25, 5]",3,20,"[1, 2, 3, 4, 6, 7, 11, 14, 15, 16, 17, 18, 19, 20, 21, 22, 23, 24, 28, 29]",191.7881624,4413,1164,4,39,8,2.379000464001239
basic,42,8,0,0,0,14,"[0, 25, 5, 14]",4,13,"[1, 4, 6, 11, 15, 16, 17, 18, 20, 22, 23, 24, 28]",151.82568,5900,1487,4,26,8,1.7342492397806553
basic,42,8,0,0,0,17,"[0, 25, 5, 14, 17]",5,8,"[1, 11, 15, 16, 18, 23, 24, 28]",114.812169,7334,1434,4,9,8,1.6954782512494015
basic,42,8,0,0,0,11,"[0, 25, 5, 14, 17, 11]",6,4,"[15, 16, 24, 28]",89.63281236,8919,1585,4,1,8,1.606839844058906
basic,42,8,0,0,0,24,"[0, 25, 5, 14, 17, 11, 24]",7,1,[15],52.41722423,10211,1292,1,0,8,1.5037085840097577
basic,42,8,0,0,1,15,"[0, 25, 5, 14, 17, 11, 24, 15]",8,0,[],35.65416961,18296,8085,1,0,8,1.5676106732337904
basic,42,8,0,1,1,15,"[0, 25, 5, 14, 17, 11, 24, 15]",8,0,[],35.65416961,19483,1187,1,0,8,1.5676106732337904
basic,43,24,0,0,0,0,[0],1,29,"[1, 2, 3, 4, 5, 6, 7, 8, 9, 10, 11, 12, 13, 14, 15, 16, 17, 18, 19, 20, 21, 22, 23, 24, 25, 26, 27, 28, 29]",300,145,-1,4,76,10,0.0
basic,43,24,0,0,0,16,"[0, 16]",2,28,"[1, 2, 3, 4, 5, 6, 7, 8, 9, 10, 11, 12, 13, 14, 15, 17, 18, 19, 20, 21, 22, 23, 24, 25, 26, 27, 28, 29]",210.3562607,3983,3838,13,110,9,1.0
basic,43,24,0,0,0,22,"[0, 16, 22]",3,27,"[1, 2, 3, 4, 5, 6, 7, 8, 9, 10, 11, 12, 13, 14, 15, 17, 18, 19, 20, 21, 23, 24, 25, 26, 27, 28, 29]",192.3285043,5258,1275,7,54,9,1.0217425143037777
basic,43,24,0,0,0,8,"[0, 16, 22, 8]",4,21,"[1, 2, 3, 4, 6, 9, 10, 11, 13, 14, 15, 17, 20, 21, 23, 24, 25, 26, 27, 28, 29]",178.9120964,7144,1886,4,28,9,1.0996636936037951
basic,43,24,0,0,0,6,"[0, 16, 22, 8, 6]",5,7,"[10, 14, 15, 20, 23, 24, 28]",118.0844711,8243,1099,4,5,7,1.5939728045750634
basic,43,24,0,0,0,24,"[0, 16, 22, 8, 6, 24]",6,2,"[10, 20]",80.74816173,9782,1539,2,0,7,1.829323140518964
basic,43,24,0,0,1,20,"[0, 16, 22, 8, 6, 24, 20]",7,0,[],18.12228848,14119,4337,1,0,7,1.757586921366143
basic,43,24,0,1,1,20,"[0, 16, 22, 8, 6, 24, 20]",7,0,[],18.12228848,14968,849,1,0,7,1.757586921366143
basic,44,23,0,0,0,0,[0],1,28,"[1, 2, 3, 4, 5, 6, 7, 8, 9, 10, 11, 12, 13, 14, 15, 16, 17, 18, 19, 20, 21, 22, 23, 25, 26, 27, 28, 29]",300,130,-1,76,2626,10,0.0
basic,44,23,0,0,0,27,"[0, 27]",2,11,"[2, 6, 7, 9, 10, 12, 13, 14, 18, 22, 29]",156.8217894,3285,3155,6,455,9,1.0
basic,44,23,0,0,0,6,"[0, 27, 6]",3,10,"[2, 7, 9, 10, 12, 13, 14, 18, 22, 29]",128.519846,4965,1680,6,168,9,1.1413510010705277
basic,44,23,0,0,0,14,"[0, 27, 6, 14]",4,8,"[2, 7, 9, 10, 12, 13, 22, 29]",99.65810659,6908,1943,2,32,9,1.4219735505960194
basic,44,23,0,0,0,29,"[0, 27, 6, 14, 29]",5,3,"[7, 9, 10]",52.22394169,8331,1423,1,2,7,1.606768890905656
basic,44,23,0,0,0,7,"[0, 27, 6, 14, 29, 7]",6,1,[10],28.14075253,9402,1071,1,0,7,1.6163782157352733
basic,44,23,0,0,1,10,"[0, 27, 6, 14, 29, 7, 10]",7,0,[],0.681692096,10879,1477,1,0,7,1.566060174078318
basic,44,23,0,1,1,10,"[0, 27, 6, 14, 29, 7, 10]",7,0,[],0.681692096,11722,843,1,0,7,1.566060174078318
basic,45,34,0,0,0,0,[0],1,25,"[1, 3, 4, 5, 6, 7, 8, 9, 10, 11, 12, 13, 15, 18, 19, 20, 21, 22, 23, 24, 25, 26, 27, 28, 29]",300,131,-1,12,367,10,0.0
basic,45,34,0,0,0,23,"[0, 23]",2,24,"[1, 3, 4, 5, 6, 7, 8, 9, 10, 11, 12, 13, 15, 18, 19, 20, 21, 22, 24, 25, 26, 27, 28, 29]",205.1053215,4782,4651,63,159,8,1.0
basic,45,34,0,0,0,7,"[0, 23, 7]",3,22,"[1, 3, 4, 5, 6, 8, 9, 10, 11, 12, 13, 15, 18, 19, 21, 22, 24, 25, 26, 27, 28, 29]",176.9450659,5837,1055,34,63,8,1.0846160246562913
basic,45,34,0,0,0,12,"[0, 23, 7, 12]",4,19,"[1, 3, 4, 5, 8, 9, 10, 11, 13, 15, 18, 19, 22, 24, 25, 26, 27, 28, 29]",161.9117695,7014,1177,28,19,8,1.122038317370566
basic,45,34,0,0,0,22,"[0, 23, 7, 12, 22]",5,7,"[1, 8, 9, 10, 11, 24, 25]",99.51785952,8763,1749,5,5,7,1.1796128763477607
basic,45,34,0,0,1,11,"[0, 23, 7, 12, 22, 11]",6,0,[],4.876430961,12061,3298,1,0,6,1.661041030480312
basic,45,34,0,1,1,11,"[0, 23, 7, 12, 22, 11]",6,0,[],4.876430961,13538,1477,1,0,6,1.661041030480312
basic,46,22,0,0,0,0,[0],1,29,"[1, 2, 3, 4, 5, 6, 7, 8, 9, 10, 11, 12, 13, 14, 15, 16, 17, 18, 19, 20, 21, 22, 23, 24, 25, 26, 27, 28, 29]",300,149,-1,31,704,9,0.0
basic,46,22,0,0,0,29,"[0, 29]",2,22,"[1, 3, 5, 6, 7, 8, 9, 11, 13, 14, 15, 16, 17, 19, 20, 21, 22, 23, 24, 25, 27, 28]",222.9935068,3701,3552,11,235,9,1.0
basic,46,22,0,0,0,9,"[0, 29, 9]",3,17,"[1, 3, 6, 7, 8, 13, 14, 15, 16, 17, 19, 20, 21, 22, 24, 25, 28]",187.6381677,7219,3518,31,187,8,1.25467610935182
basic,46,22,0,0,0,6,"[0, 29, 9, 6]",4,14,"[3, 7, 13, 14, 15, 16, 17, 19, 20, 21, 22, 24, 25, 28]",161.0111138,9198,1979,2,35,8,1.5684196543943223
basic,46,22,0,0,0,28,"[0, 29, 9, 6, 28]",5,6,"[7, 14, 16, 17, 19, 22]",131.0111138,10052,854,9,2,7,1.5278884774321728
basic,46,22,0,0,0,16,"[0, 29, 9, 6, 28, 16]",6,2,"[19, 22]",96.57276308,12534,2482,2,0,7,2.4992871654195854
basic,46,22,0,0,1,22,"[0, 29, 9, 6, 28, 16, 22]",7,0,[],8.113733016,16861,4327,1,0,7,2.083838994949787
basic,46,22,0,1,1,22,"[0, 29, 9, 6, 28, 16, 22]",7,0,[],8.113733016,17970,1109,1,0,7,2.083838994949787
basic,47,26,0,0,0,0,[0],1,29,"[1, 2, 3, 4, 5, 6, 7, 8, 9, 10, 11, 12, 13, 14, 15, 16, 17, 18, 19, 20, 21, 22, 23, 24, 25, 26, 27, 28, 29]",300,129,-1,9,226,9,0.0
basic,47,26,0,0,0,21,"[0, 21]",2,25,"[2, 3, 4, 5, 6, 7, 8, 10, 11, 12, 13, 14, 15, 16, 17, 18, 19, 22, 23, 24, 25, 26, 27, 28, 29]",211.1349337,7100,6971,7,90,9,1.0
basic,47,26,0,0,0,13,"[0, 21, 13]",3,21,"[3, 4, 5, 6, 7, 8, 10, 11, 12, 14, 15, 16, 17, 18, 19, 22, 23, 24, 25, 26, 29]",188.9989901,8151,1051,6,45,9,1.0103952279992225
basic,47,26,0,0,0,5,"[0, 21, 13, 5]",4,12,"[3, 4, 11, 14, 16, 17, 18, 22, 23, 25, 26, 29]",150.7106107,9048,897,2,10,8,1.0086890649024711
basic,47,26,0,0,0,3,"[0, 21, 13, 5, 3]",5,1,[22],51.70556031,10209,1161,1,0,6,1.0084192286529685
basic,47,26,0,0,1,22,"[0, 21, 13, 5, 3, 22]",6,0,[],36.83949156,13200,2991,1,0,6,1.0753344523347212
basic,47,26,0,1,1,22,"[0, 21, 13, 5, 3, 22]",6,0,[],36.83949156,14353,1153,1,0,6,1.0753344523347212
basic,48,28,0,0,0,0,[0],1,27,"[1, 2, 3, 4, 5, 6, 7, 8, 9, 10, 11, 12, 13, 14, 15, 16, 17, 18, 19, 20, 22, 23, 25, 26, 27, 28, 29]",300,129,-1,2,96,9,0.0
basic,48,28,0,0,0,3,"[0, 3]",2,26,"[1, 2, 4, 5, 6, 7, 8, 9, 10, 11, 12, 13, 14, 15, 16, 17, 18, 19, 20, 22, 23, 25, 26, 27, 28, 29]",251.0817008,9362,9233,1,64,9,1.0
basic,48,28,0,0,0,19,"[0, 3, 19]",3,16,"[2, 4, 5, 7, 8, 9, 11, 12, 13, 14, 17, 18, 25, 26, 27, 28]",117.395501,12182,2820,1,25,8,1.0001110274483707
basic,48,28,0,0,1,27,"[0, 3, 19, 27]",4,0,[],1.732196563,13552,1370,1,0,4,1.0015699609761697
basic,48,28,0,1,1,27,"[0, 3, 19, 27]",4,0,[],1.732196563,15635,2083,1,0,4,1.0015699609761697
basic,49,0,0,0,0,0,[0],1,27,"[2, 3, 4, 5, 6, 7, 8, 9, 10, 11, 12, 13, 14, 15, 16, 17, 19, 20, 21, 22, 23, 24, 25, 26, 27, 28, 29]",300,180,-1,104,1136,9,0.0
basic,49,0,0,0,0,20,"[0, 20]",2,25,"[2, 3, 4, 5, 6, 7, 8, 9, 11, 12, 13, 14, 15, 16, 17, 19, 21, 22, 23, 24, 25, 26, 27, 28, 29]",215.4955622,3618,3438,36,372,9,1.0
basic,49,0,0,0,0,5,"[0, 20, 5]",3,22,"[2, 3, 4, 7, 8, 9, 11, 12, 13, 14, 15, 16, 17, 19, 21, 22, 23, 24, 25, 26, 28, 29]",153.2942761,5743,2125,33,251,9,1.0828244018179105
basic,49,0,0,0,0,4,"[0, 20, 5, 4]",4,19,"[2, 3, 7, 8, 9, 11, 12, 13, 14, 15, 17, 19, 21, 22, 23, 24, 25, 26, 28]",128.2144037,7257,1514,21,127,9,1.0973859443611045
basic,49,0,0,0,0,3,"[0, 20, 5, 4, 3]",5,8,"[7, 8, 15, 17, 19, 22, 23, 26]",60.84972451,10545,3288,3,6,7,1.1032940343492124
basic,49,0,0,0,1,22,"[0, 20, 5, 4, 3, 22]",6,0,[],0.849724506,16161,5616,1,0,6,1.0883950159495144
basic,49,0,0,1,1,22,"[0, 20, 5, 4, 3, 22]",6,0,[],0.849724506,16984,823,1,0,6,1.0883950159495144
basic,50,17,0,0,0,0,[0],1,28,"[1, 2, 3, 4, 5, 6, 7, 8, 9, 10, 11, 12, 13, 14, 15, 16, 17, 18, 19, 20, 22, 23, 24, 25, 26, 27, 28, 29]",300,131,-1,2,73,8,0.0
basic,50,17,0,0,0,18,"[0, 18]",2,16,"[1, 2, 3, 5, 7, 8, 9, 10, 11, 16, 17, 19, 20, 22, 28, 29]",222.9935068,4318,4187,6,30,6,1.0
basic,50,17,0,0,0,19,"[0, 18, 19]",3,4,"[3, 5, 22, 28]",104.2669301,7699,3381,4,2,5,1.2090122387219913
basic,50,17,0,0,0,5,"[0, 18, 19, 5]",4,3,"[3, 22, 28]",64.97316472,9483,1784,3,0,5,1.3084131128640972
basic,50,17,0,0,1,3,"[0, 18, 19, 5, 3]",5,0,[],12.08649343,13594,4111,1,0,5,1.5198669234866962
basic,50,17,0,1,1,3,"[0, 18, 19, 5, 3]",5,0,[],12.08649343,14622,1028,1,0,5,1.5198669234866962
basic,51,4,0,0,0,0,[0],1,26,"[3, 4, 5, 6, 7, 8, 10, 11, 12, 13, 14, 15, 16, 17, 18, 19, 20, 21, 22, 23, 24, 25, 26, 27, 28, 29]",300,131,-1,4,489,10,0.0
basic,51,4,0,0,0,15,"[0, 15]",2,20,"[3, 4, 6, 7, 8, 10, 11, 13, 14, 16, 17, 18, 19, 20, 21, 22, 23, 25, 26, 28]",239.8917643,4262,4131,3,40,7,1.0
basic,51,4,0,0,0,19,"[0, 15, 19]",3,8,"[4, 7, 8, 10, 13, 18, 23, 28]",189.0882211,7600,3338,9,4,5,1.1239391154413063
basic,51,4,0,0,0,10,"[0, 15, 19, 10]",4,5,"[4, 7, 8, 13, 23]",155.1323674,8849,1249,5,0,5,1.434332996039604
basic,51,4,0,0,1,4,"[0, 15, 19, 10, 4]",5,0,[],27.78245575,11932,3083,1,0,5,2.8944576069808767
basic,51,4,0,1,1,4,"[0, 15, 19, 10, 4]",5,0,[],27.78245575,13722,1790,1,0,5,2.8944576069808767
basic,52,30,0,0,0,0,[0],1,19,"[3, 4, 5, 7, 9, 11, 16, 17, 18, 19, 20, 21, 22, 24, 25, 26, 27, 28, 29]",300,131,-1,5,41,8,0.0
basic,52,30,0,0,0,26,"[0, 26]",2,15,"[3, 5, 9, 11, 16, 17, 18, 19, 20, 21, 22, 25, 27, 28, 29]",208.2939479,7804,7673,5,27,6,1.0
basic,52,30,0,0,0,11,"[0, 26, 11]",3,7,"[9, 16, 17, 20, 21, 22, 25]",117.0744324,10717,2913,4,4,5,1.0265545436811434
basic,52,30,0,0,0,9,"[0, 26, 11, 9]",4,2,"[20, 25]",60.5589478,12696,1979,2,0,5,1.1792836575240968
basic,52,30,0,0,1,20,"[0, 26, 11, 9, 20]",5,0,[],10.62899686,14293,1597,1,0,5,1.4462404940481428
basic,52,30,0,1,1,20,"[0, 26, 11, 9, 20]",5,0,[],10.62899686,15253,960,1,0,5,1.4462404940481428
basic,53,10,0,0,0,0,[0],1,29,"[1, 2, 3, 4, 5, 6, 7, 8, 9, 10, 11, 12, 13, 14, 15, 16, 17, 18, 19, 20, 21, 22, 23, 24, 25, 26, 27, 28, 29]",300,130,-1,1,100,9,0.0
basic,53,10,0,0,0,11,"[0, 11]",2,21,"[1, 2, 3, 6, 7, 8, 9, 10, 12, 13, 14, 18, 19, 20, 21, 22, 24, 26, 27, 28, 29]",209.2916762,8061,7931,1,70,8,1.0
basic,53,10,0,0,0,26,"[0, 11, 26]",3,13,"[2, 6, 8, 9, 10, 12, 13, 14, 18, 19, 20, 24, 27]",167.5304502,9118,1057,17,35,7,1.0002332004089751
basic,53,10,0,0,0,14,"[0, 11, 26, 14]",4,6,"[2, 9, 13, 19, 20, 27]",132.8605786,10527,1409,2,8,7,1.0450705340129514
basic,53,10,0,0,0,2,"[0, 11, 26, 14, 2]",5,4,"[13, 19, 20, 27]",120.6950535,11221,694,2,3,7,1.0983573585271276
basic,53,10,0,0,0,19,"[0, 11, 26, 14, 2, 19]",6,2,"[13, 20]",76.78605669,12948,1727,2,0,7,1.8693559929309633
basic,53,10,0,0,1,13,"[0, 11, 26, 14, 2, 19, 13]",7,0,[],7.909355262,15262,2314,1,0,7,5.779725342660651
basic,53,10,0,1,1,13,"[0, 11, 26, 14, 2, 19, 13]",7,0,[],7.909355262,16203,941,1,0,7,5.779725342660651
basic,54,9,0,0,0,0,[0],1,27,"[1, 3, 4, 5, 6, 7, 8, 9, 10, 11, 13, 14, 15, 16, 17, 18, 19, 20, 21, 22, 23, 24, 25, 26, 27, 28, 29]",300,130,-1,2,182,10,0.0
basic,54,9,0,0,0,8,"[0, 8]",2,25,"[1, 3, 4, 5, 6, 7, 9, 10, 11, 13, 14, 15, 16, 17, 18, 19, 20, 21, 22, 23, 24, 25, 26, 27, 28]",236.2191251,4366,4236,2,102,9,1.0
basic,54,9,0,0,0,23,"[0, 8, 23]",3,23,"[1, 3, 4, 5, 6, 7, 9, 10, 11, 13, 15, 16, 17, 18, 19, 20, 21, 22, 24, 25, 26, 27, 28]",214.7482146,5208,842,30,187,8,1.431842876737407
basic,54,9,0,0,0,9,"[0, 8, 23, 9]",4,21,"[1, 3, 4, 5, 7, 10, 11, 13, 15, 16, 17, 18, 19, 20, 21, 22, 24, 25, 26, 27, 28]",192.3875348,7152,1944,18,69,8,1.4451462661765562
basic,54,9,0,0,0,26,"[0, 8, 23, 9, 26]",5,14,"[3, 5, 10, 13, 15, 16, 17, 18, 19, 20, 21, 22, 25, 28]",135.7394986,8200,1048,4,11,8,1.4060431121794952
basic,54,9,0,0,0,18,"[0, 8, 23, 9, 26, 18]",6,3,"[5, 15, 19]",74.86257362,9228,1028,3,0,7,1.2918893000878948
basic,54,9,0,0,1,19,"[0, 8, 23, 9, 26, 18, 19]",7,0,[],18.54206226,10328,1100,1,0,7,1.6534051925201794
basic,54,9,0,1,1,19,"[0, 8, 23, 9, 26, 18, 19]",7,0,[],18.54206226,11122,794,1,0,7,1.6534051925201794
basic,55,33,0,0,0,0,[0],1,23,"[1, 2, 5, 7, 8, 11, 12, 13, 14, 15, 16, 17, 18, 19, 20, 21, 23, 24, 25, 26, 27, 28, 29]",300,146,-1,5,108,9,0.0
basic,55,33,0,0,0,8,"[0, 8]",2,22,"[1, 2, 5, 7, 11, 12, 13, 14, 15, 16, 17, 18, 19, 20, 21, 23, 24, 25, 26, 27, 28, 29]",265.8679037,5387,5241,5,87,9,1.0
basic,55,33,0,0,0,27,"[0, 8, 27]",3,6,"[5, 16, 19, 21, 23, 25]",172.3906337,8799,3412,2,5,5,1.1120034973992803
basic,55,33,0,0,0,25,"[0, 8, 27, 25]",4,2,"[5, 23]",120.7669957,11492,2693,2,0,5,1.0777241092063088
basic,55,33,0,0,1,5,"[0, 8, 27, 25, 5]",5,0,[],6.762609827,14541,3049,1,0,5,1.4341851841997166
basic,55,33,0,1,1,5,"[0, 8, 27, 25, 5]",5,0,[],6.762609827,15136,595,1,0,5,1.4341851841997166
basic,56,19,0,0,0,0,[0],1,29,"[1, 2, 3, 4, 5, 6, 7, 8, 9, 10, 11, 12, 13, 14, 15, 16, 17, 18, 19, 20, 21, 22, 23, 24, 25, 26, 27, 28, 29]",300,131,-1,12,149,8,0.0
basic,56,19,0,0,0,12,"[0, 12]",2,15,"[1, 2, 3, 5, 8, 9, 13, 16, 17, 18, 19, 21, 23, 25, 29]",180.3964883,1756,1625,9,58,7,1.0
basic,56,19,0,0,0,1,"[0, 12, 1]",3,8,"[3, 8, 13, 17, 19, 21, 23, 25]",105.389822,5810,4054,1,10,6,1.4548692638996998
basic,56,19,0,0,0,13,"[0, 12, 1, 13]",4,2,"[19, 21]",71.37511927,7124,1314,2,0,5,1.6308728925502245
basic,56,19,0,0,1,21,"[0, 12, 1, 13, 21]",5,0,[],10.18688511,8378,1254,1,0,5,1.615567153329975
basic,56,19,0,1,1,21,"[0, 12, 1, 13, 21]",5,0,[],10.18688511,9274,896,1,0,5,1.615567153329975
basic,57,42,0,0,0,0,[0],1,29,"[1, 2, 3, 4, 5, 6, 7, 8, 9, 10, 11, 12, 13, 14, 15, 16, 17, 18, 19, 20, 21, 22, 23, 24, 25, 26, 27, 28, 29]",300,132,-1,16,302,9,0.0
basic,57,42,0,0,0,4,"[0, 4]",2,28,"[1, 2, 3, 5, 6, 7, 8, 9, 10, 11, 12, 13, 14, 15, 16, 17, 18, 19, 20, 21, 22, 23, 24, 25, 26, 27, 28, 29]",209.5290102,5409,5277,4,80,9,1.0
basic,57,42,0,0,0,22,"[0, 4, 22]",3,24,"[1, 2, 3, 5, 6, 7, 8, 9, 10, 11, 13, 15, 17, 18, 19, 20, 21, 23, 24, 25, 26, 27, 28, 29]",198.3486703,7383,1974,3,53,9,1.1473032812120834
basic,57,42,0,0,0,8,"[0, 4, 22, 8]",4,21,"[1, 2, 3, 5, 6, 7, 10, 11, 15, 17, 18, 19, 20, 21, 23, 24, 25, 26, 27, 28, 29]",176.2127267,8579,1196,2,36,9,1.1513227322639639
basic,57,42,0,0,0,1,"[0, 4, 22, 8, 1]",5,12,"[2, 5, 6, 7, 10, 15, 18, 19, 24, 26, 27, 28]",127.1209758,11413,2834,2,24,9,1.1101621876186907
basic,57,42,0,0,0,7,"[0, 4, 22, 8, 1, 7]",6,5,"[2, 19, 26, 27, 28]",97.12097583,16891,5478,2,10,9,1.1711274205343067
basic,57,42,0,0,0,26,"[0, 4, 22, 8, 1, 7, 26]",7,3,"[2, 19, 27]",70.55031532,19419,2528,2,1,9,1.1588367913131314
basic,57,42,0,0,0,27,"[0, 4, 22, 8, 1, 7, 26, 27]",8,1,[19],52.52255894,20999,1580,1,0,9,1.160587570992885
basic,57,42,0,0,1,19,"[0, 4, 22, 8, 1, 7, 26, 27, 19]",9,0,[],11.51036563,22630,1631,1,0,9,1.3341568614108437
basic,57,42,0,1,1,19,"[0, 4, 22, 8, 1, 7, 26, 27, 19]",9,0,[],11.51036563,24948,2318,1,0,9,1.3341568614108437
basic,58,15,0,0,0,0,[0],1,25,"[1, 2, 3, 4, 7, 8, 9, 10, 11, 12, 13, 14, 15, 16, 18, 20, 21, 22, 23, 24, 25, 26, 27, 28, 29]",300,146,-1,4,65,9,0.0
basic,58,15,0,0,0,12,"[0, 12]",2,22,"[1, 2, 3, 4, 7, 8, 9, 10, 11, 13, 14, 15, 16, 18, 21, 22, 23, 24, 26, 27, 28, 29]",213.547701,3143,2997,4,35,9,1.0
basic,58,15,0,0,0,21,"[0, 12, 21]",3,12,"[1, 3, 7, 8, 9, 11, 14, 16, 22, 24, 26, 27]",169.718487,4274,1131,5,8,7,1.3701703297819081
basic,58,15,0,0,0,27,"[0, 12, 21, 27]",4,3,"[8, 24, 26]",112.6395942,5498,1224,1,2,6,1.231329211139614
basic,58,15,0,0,0,24,"[0, 12, 21, 27, 24]",5,1,[8],39.63274525,7181,1683,1,0,6,1.160862513860663
basic,58,15,0,0,1,8,"[0, 12, 21, 27, 24, 8]",6,0,[],3.287181556,8362,1181,1,0,6,1.3122721010630183
basic,58,15,0,1,1,8,"[0, 12, 21, 27, 24, 8]",6,0,[],3.287181556,9008,646,1,0,6,1.3122721010630183
basic,59,5,0,0,0,0,[0],1,29,"[1, 2, 3, 4, 5, 6, 7, 8, 9, 10, 11, 12, 13, 14, 15, 16, 17, 18, 19, 20, 21, 22, 23, 24, 25, 26, 27, 28, 29]",300,130,-1,5,139,9,0.0
basic,59,5,0,0,0,8,"[0, 8]",2,25,"[1, 2, 3, 4, 5, 6, 9, 11, 12, 13, 14, 15, 17, 18, 19, 20, 21, 22, 23, 24, 25, 26, 27, 28, 29]",208.239442,4706,4576,23,124,7,1.0
basic,59,5,0,0,0,24,"[0, 8, 24]",3,15,"[4, 5, 6, 9, 12, 13, 15, 17, 18, 19, 22, 23, 25, 26, 27]",151.6267226,6301,1595,7,30,7,2.0487215873100637
basic,59,5,0,0,0,17,"[0, 8, 24, 17]",4,9,"[4, 5, 6, 12, 15, 18, 19, 23, 25]",116.6410112,9310,3009,3,10,7,1.7172389575139582
basic,59,5,0,0,0,5,"[0, 8, 24, 17, 5]",5,4,"[4, 6, 15, 18]",73.59452474,10461,1151,4,0,6,1.51476527616816
basic,59,5,0,0,1,15,"[0, 8, 24, 17, 5, 15]",6,0,[],33.56953254,11709,1248,1,0,6,1.5077374044138074
basic,59,5,0,1,1,15,"[0, 8, 24, 17, 5, 15]",6,0,[],33.56953254,12638,929,1,0,6,1.5077374044138074
basic,60,6,0,0,0,0,[0],1,29,"[1, 2, 3, 4, 5, 6, 7, 8, 9, 10, 11, 12, 13, 14, 15, 16, 17, 18, 19, 20, 21, 22, 23, 24, 25, 26, 27, 28, 29]",300,132,-1,180,4304,10,0.0
basic,60,6,0,0,0,3,"[0, 3]",2,28,"[1, 2, 4, 5, 6, 7, 8, 9, 10, 11, 12, 13, 14, 15, 16, 17, 18, 19, 20, 21, 22, 23, 24, 25, 26, 27, 28, 29]",266.4738908,4467,4335,90,1607,10,1.0
basic,60,6,0,0,0,18,"[0, 3, 18]",3,27,"[1, 2, 4, 5, 6, 7, 8, 9, 10, 11, 12, 13, 14, 15, 16, 17, 19, 20, 21, 22, 23, 24, 25, 26, 27, 28, 29]",237.4738908,6148,1681,34,516,10,1.0266750028725786
basic,60,6,0,0,0,16,"[0, 3, 18, 16]",4,26,"[1, 2, 4, 5, 6, 7, 8, 9, 10, 11, 12, 13, 14, 15, 17, 19, 20, 21, 22, 23, 24, 25, 26, 27, 28, 29]",214.1286557,9084,2936,9,128,10,1.1896779166934912
basic,60,6,0,0,0,29,"[0, 3, 18, 16, 29]",5,21,"[1, 2, 4, 5, 6, 7, 10, 11, 13, 14, 15, 17, 19, 20, 21, 22, 23, 24, 25, 26, 27]",177.4407831,10341,1257,26,77,9,1.150702001316601
basic,60,6,0,0,0,23,"[0, 3, 18, 16, 29, 23]",6,10,"[5, 6, 7, 10, 11, 14, 17, 22, 24, 27]",129.9223656,11320,979,10,15,9,1.2673318521573216
basic,60,6,0,0,0,6,"[0, 3, 18, 16, 29, 23, 6]",7,7,"[5, 10, 11, 17, 22, 24, 27]",94.56702651,13295,1975,3,5,9,1.275513813909327
basic,60,6,0,0,1,5,"[0, 3, 18, 16, 29, 23, 6, 5]",8,0,[],9.873461234,15676,2381,1,0,8,1.2942666040026098
basic,60,6,0,1,1,5,"[0, 3, 18, 16, 29, 23, 6, 5]",8,0,[],9.873461234,16587,911,1,0,8,1.2942666040026098
basic,61,11,0,0,0,0,[0],1,25,"[1, 2, 3, 4, 5, 6, 8, 9, 10, 11, 12, 13, 14, 15, 16, 17, 18, 19, 20, 22, 23, 25, 26, 27, 28]",300,179,-1,6,374,12,0.0
basic,61,11,0,0,0,18,"[0, 18]",2,21,"[1, 2, 4, 5, 6, 8, 9, 11, 12, 13, 14, 15, 16, 17, 19, 20, 22, 23, 25, 27, 28]",236.8493864,2855,2676,157,1477,11,1.0
basic,61,11,0,0,0,27,"[0, 18, 27]",3,19,"[1, 2, 4, 5, 6, 8, 9, 11, 12, 14, 15, 16, 17, 19, 20, 22, 23, 25, 28]",212.9956655,3985,1130,157,1315,11,1.060949579704323
basic,61,11,0,0,0,15,"[0, 18, 27, 15]",4,13,"[1, 2, 5, 6, 8, 11, 12, 17, 19, 22, 23, 25, 28]",129.5870329,6124,2139,12,180,11,1.0863367685035792
basic,61,11,0,0,0,12,"[0, 18, 27, 15, 12]",5,1,[25],55.26341615,13897,7773,1,0,6,1.454191496674987
basic,61,11,0,0,1,25,"[0, 18, 27, 15, 12, 25]",6,0,[],28.06047513,17179,3282,1,0,6,1.4100923868806068
basic,61,11,0,1,1,25,"[0, 18, 27, 15, 12, 25]",6,0,[],28.06047513,18351,1172,1,0,6,1.4100923868806068
basic,62,27,0,0,0,0,[0],1,26,"[1, 3, 5, 6, 7, 8, 9, 10, 11, 12, 13, 14, 15, 16, 17, 18, 19, 21, 22, 23, 24, 25, 26, 27, 28, 29]",300,115,-1,13,578,11,0.0
basic,62,27,0,0,0,26,"[0, 26]",2,23,"[1, 5, 6, 7, 8, 9, 10, 11, 12, 13, 14, 15, 16, 17, 18, 19, 21, 22, 23, 24, 25, 27, 29]",275.8132268,4470,4355,7,249,11,1.0
basic,62,27,0,0,0,27,"[0, 26, 27]",3,21,"[1, 6, 7, 8, 9, 10, 11, 12, 13, 14, 15, 16, 17, 18, 19, 21, 22, 23, 24, 25, 29]",225.9935519,6499,2029,1,80,11,1.307240649445448
basic,62,27,0,0,0,18,"[0, 26, 27, 18]",4,18,"[1, 6, 7, 8, 10, 11, 12, 13, 14, 15, 16, 17, 19, 21, 22, 23, 24, 25]",188.5102223,8203,1704,5,32,10,1.1895669400933468
basic,62,27,0,0,0,7,"[0, 26, 27, 18, 7]",5,4,"[6, 11, 21, 25]",96.30935462,10123,1920,4,0,6,1.095982528284604
basic,62,27,0,0,1,11,"[0, 26, 27, 18, 7, 11]",6,0,[],15.03820353,11868,1745,1,0,6,1.3722306686087993
basic,62,27,0,1,1,11,"[0, 26, 27, 18, 7, 11]",6,0,[],15.03820353,13590,1722,1,0,6,1.3722306686087993
basic,63,20,0,0,0,0,[0],1,21,"[1, 2, 3, 4, 5, 6, 7, 8, 9, 12, 17, 18, 20, 21, 22, 23, 25, 26, 27, 28, 29]",300,131,-1,1,9,9,0.0
basic,63,20,0,0,0,12,"[0, 12]",2,20,"[1, 2, 3, 4, 5, 6, 7, 8, 9, 17, 18, 20, 21, 22, 23, 25, 26, 27, 28, 29]",271.5570747,2855,2724,1,8,9,1.0
basic,63,20,0,0,0,1,"[0, 12, 1]",3,12,"[3, 4, 5, 6, 8, 9, 20, 21, 23, 27, 28, 29]",189.5692707,5070,2215,1,6,9,1.0757997779162911
basic,63,20,0,0,0,5,"[0, 12, 1, 5]",4,10,"[4, 6, 8, 9, 20, 21, 23, 27, 28, 29]",152.8950291,8132,3062,1,5,9,1.1708231454516806
basic,63,20,0,0,0,21,"[0, 12, 1, 5, 21]",5,8,"[4, 6, 8, 9, 20, 23, 27, 28]",107.8950291,9315,1183,1,4,9,1.126197336199212
basic,63,20,0,0,0,23,"[0, 12, 1, 5, 21, 23]",6,3,"[6, 8, 9]",47.14965889,13395,4080,1,2,8,1.11005023556519
basic,63,20,0,0,0,9,"[0, 12, 1, 5, 21, 23, 9]",7,1,[6],27.94028617,15176,1781,1,0,8,1.102985070867194
basic,63,20,0,0,1,6,"[0, 12, 1, 5, 21, 23, 9, 6]",8,0,[],4.918557308,16495,1319,1,0,8,1.1133167261323293
basic,63,20,0,1,1,6,"[0, 12, 1, 5, 21, 23, 9, 6]",8,0,[],4.918557308,17352,857,1,0,8,1.1133167261323293
basic,64,45,0,0,0,0,[0],1,24,"[1, 2, 3, 4, 5, 6, 7, 9, 10, 11, 12, 14, 15, 16, 17, 19, 20, 21, 22, 23, 24, 25, 27, 29]",300,147,-1,6,248,10,0.0
basic,64,45,0,0,0,20,"[0, 20]",2,22,"[1, 2, 3, 4, 5, 6, 7, 9, 10, 11, 12, 14, 15, 16, 17, 19, 21, 22, 23, 24, 25, 29]",207.8642306,4150,4003,1,73,9,1.0
basic,64,45,0,0,0,29,"[0, 20, 29]",3,16,"[2, 3, 4, 6, 7, 9, 10, 12, 14, 15, 16, 17, 19, 22, 23, 24]",138.922226,6030,1880,1,59,8,1.0001165945289003
basic,64,45,0,0,0,14,"[0, 20, 29, 14]",4,2,"[4, 16]",27.7017243,8223,2193,2,0,5,1.0171009736317882
basic,64,45,0,0,1,4,"[0, 20, 29, 14, 4]",5,0,[],8.596751122,9588,1365,1,0,5,1.0482063439600355
basic,64,45,0,1,1,4,"[0, 20, 29, 14, 4]",5,0,[],8.596751122,10590,1002,1,0,5,1.0482063439600355
basic,65,7,0,0,0,0,[0],1,29,"[1, 2, 3, 4, 5, 6, 7, 8, 9, 10, 11, 12, 13, 14, 15, 16, 17, 18, 19, 20, 21, 22, 23, 24, 25, 26, 27, 28, 29]",300,133,-1,3,79,9,0.0
basic,65,7,0,0,0,23,"[0, 23]",2,28,"[1, 2, 3, 4, 5, 6, 7, 8, 9, 10, 11, 12, 13, 14, 15, 16, 17, 18, 19, 20, 21, 22, 24, 25, 26, 27, 28, 29]",253.7290588,6151,6018,6,103,8,1.0
basic,65,7,0,0,0,10,"[0, 23, 10]",3,12,"[1, 5, 11, 12, 14, 16, 17, 22, 24, 26, 27, 29]",156.7960923,8596,2445,1,12,7,1.0266370410966699
basic,65,7,0,0,0,11,"[0, 23, 10, 11]",4,6,"[5, 12, 14, 17, 26, 29]",115.0109274,9724,1128,4,2,6,1.0223511862658814
basic,65,7,0,0,0,29,"[0, 23, 10, 11, 29]",5,1,[26],87.71623931,10744,1020,1,0,6,1.020123531493138
basic,65,7,0,0,1,26,"[0, 23, 10, 11, 29, 26]",6,0,[],45.26626875,18890,8146,1,0,6,1.040622727810571
basic,65,7,0,1,1,26,"[0, 23, 10, 11, 29, 26]",6,0,[],45.26626875,19918,1028,1,0,6,1.040622727810571
basic,66,3,0,0,0,0,[0],1,29,"[1, 2, 3, 4, 5, 6, 7, 8, 9, 10, 11, 12, 13, 14, 15, 16, 17, 18, 19, 20, 21, 22, 23, 24, 25, 26, 27, 28, 29]",300,129,-1,34,427,10,0.0
basic,66,3,0,0,0,16,"[0, 16]",2,28,"[1, 2, 3, 4, 5, 6, 7, 8, 9, 10, 11, 12, 13, 14, 15, 17, 18, 19, 20, 21, 22, 23, 24, 25, 26, 27, 28, 29]",268.9355509,8768,8639,32,260,9,1.0
basic,66,3,0,0,0,26,"[0, 16, 26]",3,15,"[1, 2, 7, 8, 9, 11, 12, 15, 18, 22, 23, 24, 25, 27, 29]",187.3267278,11476,2708,2,8,7,1.2695227395842923
basic,66,3,0,0,1,9,"[0, 16, 26, 9]",4,0,[],70.94803561,13996,2520,1,0,4,1.17772678515031
basic,66,3,0,1,1,9,"[0, 16, 26, 9]",4,0,[],70.94803561,16502,2506,1,0,4,1.17772678515031
basic,67,35,0,0,0,0,[0],1,29,"[1, 2, 3, 4, 5, 6, 7, 8, 9, 10, 11, 12, 13, 14, 15, 16, 17, 18, 19, 20, 21, 22, 23, 24, 25, 26, 27, 28, 29]",300,164,-1,5,236,11,0.0
basic,67,35,0,0,0,19,"[0, 19]",2,17,"[1, 2, 5, 6, 9, 10, 15, 16, 17, 18, 21, 23, 24, 25, 26, 27, 28]",217.7017619,1732,1568,24,246,8,1.0
basic,67,35,0,0,0,9,"[0, 19, 9]",3,11,"[1, 5, 6, 15, 17, 18, 23, 24, 25, 27, 28]",132.1915286,3572,1840,12,48,7,1.492766528619295
basic,67,35,0,0,0,18,"[0, 19, 9, 18]",4,8,"[1, 5, 6, 15, 17, 23, 24, 25]",112.1665442,4572,1000,6,12,7,1.4602473905277162
basic,67,35,0,0,1,5,"[0, 19, 9, 18, 5]",5,0,[],23.14407509,8412,3840,1,0,5,2.4805448850382725
basic,67,35,0,1,1,5,"[0, 19, 9, 18, 5]",5,0,[],23.14407509,9690,1278,1,0,5,2.4805448850382725
basic,68,2,0,0,0,0,[0],1,23,"[1, 2, 4, 5, 6, 7, 8, 9, 12, 13, 15, 16, 17, 18, 19, 20, 22, 23, 25, 26, 27, 28, 29]",300,148,-1,70,620,10,0.0
basic,68,2,0,0,0,6,"[0, 6]",2,18,"[1, 2, 5, 7, 8, 9, 12, 13, 15, 16, 17, 18, 19, 22, 23, 26, 27, 29]",167.3010927,2468,2320,12,81,8,1.0
basic,68,2,0,0,0,1,"[0, 6, 1]",3,10,"[2, 5, 7, 9, 12, 13, 18, 19, 22, 23]",118.1075972,3767,1299,7,5,6,1.0038279336629148
basic,68,2,0,0,0,23,"[0, 6, 1, 23]",4,1,[9],23.85262385,5033,1266,1,0,5,1.0475997597343054
basic,68,2,0,1,0,23,"[0, 6, 1, 23]",4,1,[9],23.85262385,5694,661,1,0,5,1.0475997597343054
undo,69,26,0,0,0,0,[0],1,29,"[1, 2, 3, 4, 5, 6, 7, 8, 9, 10, 11, 12, 13, 14, 15, 16, 17, 18, 19, 20, 21, 22, 23, 24, 25, 26, 27, 28, 29]",300,149,-1,9,226,9,0.0
undo,69,26,0,0,0,12,"[0, 12]",2,26,"[1, 2, 3, 4, 5, 6, 8, 10, 11, 13, 14, 15, 16, 17, 18, 19, 20, 21, 22, 23, 24, 25, 26, 27, 28, 29]",279.8753882,2157,2008,2,80,9,1.0
undo,69,26,0,0,0,24,"[0, 12, 24]",3,9,"[1, 2, 8, 11, 15, 18, 20, 25, 27]",142.4635983,6233,4076,7,10,6,1.2172687706217418
undo,69,26,0,0,0,18,"[0, 12, 24, 18]",4,3,"[8, 11, 25]",63.14147026,7620,1387,3,0,5,1.7029608429126897
undo,69,26,0,0,1,11,"[0, 12, 24, 18, 11]",5,0,[],16.56894617,9992,2372,1,0,5,1.883605884408822
undo,69,26,0,1,1,11,"[0, 12, 24, 18, 11]",5,0,[],16.56894617,10642,650,1,0,5,1.883605884408822
undo,70,24,0,0,0,0,[0],1,29,"[1, 2, 3, 4, 5, 6, 7, 8, 9, 10, 11, 12, 13, 14, 15, 16, 17, 18, 19, 20, 21, 22, 23, 24, 25, 26, 27, 28, 29]",300,130,-1,4,76,10,0.0
undo,70,24,0,0,0,9,"[0, 9]",2,4,"[11, 23, 27, 28]",87.73130235,2507,2377,1,5,5,1.0
undo,70,24,0,0,0,27,"[0, 9, 27]",3,1,[11],48.17122147,7115,4608,1,0,4,1.1025943256802002
undo,70,24,0,0,1,11,"[0, 9, 27, 11]",4,0,[],20.36834392,10163,3048,1,0,4,1.3921501953138826
undo,70,24,0,1,1,11,"[0, 9, 27, 11]",4,0,[],20.36834392,11256,1093,1,0,4,1.3921501953138826
undo,71,25,0,0,0,0,[0],1,28,"[1, 2, 3, 4, 5, 7, 8, 9, 10, 11, 12, 13, 14, 15, 16, 17, 18, 19, 20, 21, 22, 23, 24, 25, 26, 27, 28, 29]",300,131,-1,5,94,10,0.0
undo,71,25,0,0,0,19,"[0, 19]",2,27,"[1, 2, 3, 4, 5, 7, 8, 9, 10, 11, 12, 13, 14, 15, 16, 17, 18, 20, 21, 22, 23, 24, 25, 26, 27, 28, 29]",251.9479449,3133,3002,2,30,10,1.0
undo,71,25,0,0,0,22,"[0, 19, 22]",3,25,"[1, 2, 3, 4, 5, 7, 8, 9, 11, 12, 13, 14, 15, 16, 17, 18, 20, 21, 23, 24, 25, 26, 27, 28, 29]",222.5370626,4294,1161,7,45,9,1.001210983318031
undo,71,25,0,0,0,7,"[0, 19, 22, 7]",4,11,"[1, 3, 5, 8, 9, 11, 13, 23, 24, 28, 29]",146.89316,7215,2921,3,17,9,1.3063647464679715
undo,71,25,0,0,0,24,"[0, 19, 22, 7, 24]",5,8,"[3, 8, 9, 11, 13, 23, 28, 29]",122.1343232,8797,1582,3,11,9,1.265539244944707
undo,71,25,0,0,0,9,"[0, 19, 22, 7, 24, 9]",6,5,"[3, 8, 11, 13, 28]",104.1065668,9921,1124,3,8,9,1.2548508612874993
undo,71,25,0,0,0,3,"[0, 19, 22, 7, 24, 9, 3]",7,3,"[8, 13, 28]",73.84107487,11711,1790,3,1,9,1.2214639564214471
undo,71,25,0,0,0,28,"[0, 19, 22, 7, 24, 9, 3, 28]",8,2,"[8, 13]",42.53612319,16824,5113,2,0,9,1.1897967383577108
undo,71,25,0,0,1,13,"[0, 19, 22, 7, 24, 9, 3, 28, 13]",9,0,[],8.30163765,19789,2965,1,0,9,1.4472113464452139
undo,71,25,0,1,1,13,"[0, 19, 22, 7, 24, 9, 3, 28, 13]",9,0,[],8.30163765,21200,1411,1,0,9,1.4472113464452139
undo,72,1,0,0,0,0,[0],1,26,"[1, 2, 4, 5, 7, 8, 9, 10, 11, 12, 13, 14, 15, 16, 17, 18, 19, 20, 21, 22, 23, 24, 25, 26, 28, 29]",300,147,-1,6,74,7,0.0
undo,72,1,0,0,0,26,"[0, 26]",2,12,"[1, 5, 7, 8, 14, 16, 17, 18, 19, 20, 21, 24]",201.5876024,2650,2503,8,23,6,1.0
undo,72,1,0,0,0,19,"[0, 26, 19]",3,10,"[1, 5, 7, 8, 14, 16, 17, 18, 20, 24]",162.9611866,3808,1158,6,8,6,1.1347243455071356
undo,72,1,0,0,0,8,"[0, 26, 19, 8]",4,6,"[5, 14, 17, 18, 20, 24]",109.8104575,4738,930,2,5,6,1.940709617346939
undo,72,1,0,0,1,14,"[0, 26, 19, 8, 14]",5,0,[],45.91992613,5656,918,1,0,5,2.5456420622532727
undo,72,1,0,1,1,14,"[0, 26, 19, 8, 14]",5,0,[],45.91992613,8058,2402,1,0,5,2.5456420622532727
undo,73,34,0,0,0,0,[0],1,25,"[1, 3, 4, 5, 6, 7, 8, 9, 10, 11, 12, 13, 15, 18, 19, 20, 21, 22, 23, 24, 25, 26, 27, 28, 29]",300,132,-1,12,367,10,0.0
undo,73,34,0,0,0,13,"[0, 13]",2,24,"[1, 3, 4, 5, 6, 7, 8, 9, 10, 11, 12, 15, 18, 19, 20, 21, 22, 23, 24, 25, 26, 27, 28, 29]",279.9750156,3387,3255,12,331,10,1.0
undo,73,34,0,0,0,23,"[0, 13, 23]",3,22,"[1, 3, 4, 5, 6, 7, 8, 9, 10, 11, 12, 15, 18, 19, 21, 22, 24, 25, 26, 27, 28, 29]",192.0432239,5319,1932,37,82,9,1.1376483681923906
undo,73,34,0,0,0,28,"[0, 13, 23, 28]",4,1,[4],49.60025281,15447,10128,1,0,5,1.061692804702114
undo,73,34,0,0,1,4,"[0, 13, 23, 28, 4]",5,0,[],2.589615719,18144,2697,1,0,5,1.1553512192064828
undo,73,34,0,1,1,4,"[0, 13, 23, 28, 4]",5,0,[],2.589615719,18869,725,1,0,5,1.1553512192064828
undo,74,32,0,0,0,0,[0],1,29,"[1, 2, 3, 4, 5, 6, 7, 8, 9, 10, 11, 12, 13, 14, 15, 16, 17, 18, 19, 20, 21, 22, 23, 24, 25, 26, 27, 28, 29]",300,131,-1,17,359,10,0.0
undo,74,32,0,0,0,15,"[0, 15]",2,24,"[2, 3, 4, 5, 6, 7, 8, 9, 10, 11, 12, 13, 14, 16, 17, 19, 20, 22, 23, 24, 25, 26, 27, 28]",214.6185032,3523,3392,11,153,9,1.0
undo,74,32,0,0,0,28,"[0, 15, 28]",3,21,"[2, 3, 5, 7, 8, 9, 10, 11, 12, 13, 14, 16, 17, 19, 20, 22, 23, 24, 25, 26, 27]",203.2167489,4592,1069,11,119,9,1.000160051986942
undo,74,32,0,0,0,12,"[0, 15, 28, 12]",4,19,"[2, 3, 5, 7, 8, 9, 10, 11, 13, 16, 17, 19, 20, 22, 23, 24, 25, 26, 27]",184.243083,5782,1190,8,71,9,1.0281484763748023
undo,74,32,0,0,0,27,"[0, 15, 28, 12, 27]",5,7,"[3, 7, 10, 11, 16, 22, 24]",93.97127119,9167,3385,2,3,8,1.1258400481420765
undo,74,32,0,0,0,3,"[0, 15, 28, 12, 27, 3]",6,3,"[7, 11, 24]",68.47617363,12460,3293,1,2,8,1.1363277997881744
undo,74,32,0,0,1,24,"[0, 15, 28, 12, 27, 3, 24]",7,0,[],11.87228683,14469,2009,1,0,7,1.4802274739943557
undo,74,32,0,1,1,24,"[0, 15, 28, 12, 27, 3, 24]",7,0,[],11.87228683,15821,1352,1,0,7,1.4802274739943557
undo,75,18,0,0,0,0,[0],1,28,"[1, 2, 3, 4, 5, 6, 7, 8, 9, 10, 11, 12, 13, 14, 16, 17, 18, 19, 20, 21, 22, 23, 24, 25, 26, 27, 28, 29]",300,114,-1,3,136,10,0.0
undo,75,18,0,0,0,7,"[0, 7]",2,20,"[1, 3, 4, 5, 8, 9, 12, 13, 14, 16, 18, 19, 20, 21, 23, 24, 25, 26, 27, 28]",240.3342644,3807,3693,24,182,9,1.0
undo,75,18,0,0,0,25,"[0, 7, 25]",3,17,"[1, 3, 5, 8, 9, 12, 13, 14, 16, 18, 19, 20, 23, 24, 26, 27, 28]",212.5313869,5223,1416,18,95,9,1.4576077868641448
undo,75,18,0,0,0,13,"[0, 7, 25, 13]",4,13,"[1, 3, 5, 8, 9, 12, 14, 16, 18, 23, 26, 27, 28]",167.2544612,8579,3356,6,32,9,1.412106678795392
undo,75,18,0,0,0,14,"[0, 7, 25, 13, 14]",5,10,"[3, 5, 8, 9, 12, 16, 23, 26, 27, 28]",148.2807952,10205,1626,3,13,9,1.3532878873565901
undo,75,18,0,0,0,9,"[0, 7, 25, 13, 14, 9]",6,1,[16],55.36685656,13542,3337,1,0,7,2.4076386026491297
undo,75,18,0,0,1,16,"[0, 7, 25, 13, 14, 9, 16]",7,0,[],21.35215386,15146,1604,1,0,7,2.7785707870808047
undo,75,18,0,1,1,16,"[0, 7, 25, 13, 14, 9, 16]",7,0,[],21.35215386,16103,957,1,0,7,2.7785707870808047
undo,76,44,0,0,0,0,[0],1,29,"[1, 2, 3, 4, 5, 6, 7, 8, 9, 10, 11, 12, 13, 14, 15, 16, 17, 18, 19, 20, 21, 22, 23, 24, 25, 26, 27, 28, 29]",300,145,-1,13,126,7,0.0
undo,76,44,0,0,0,11,"[0, 11]",2,18,"[4, 5, 6, 7, 8, 9, 12, 14, 16, 17, 19, 20, 22, 23, 24, 25, 26, 28]",152.7790776,3484,3339,5,34,7,1.0
undo,76,44,0,0,0,24,"[0, 11, 24]",3,13,"[4, 5, 7, 8, 9, 12, 14, 17, 20, 22, 23, 25, 28]",125.8532535,5298,1814,5,23,7,1.1588941745226709
undo,76,44,0,0,0,9,"[0, 11, 24, 9]",4,7,"[4, 7, 8, 12, 14, 20, 23]",93.09657483,6549,1251,2,8,7,1.3039383713641313
undo,76,44,0,0,0,20,"[0, 11, 24, 9, 20]",5,1,[8],35.82529058,7966,1417,1,0,6,1.7301463557553225
undo,76,44,0,0,1,8,"[0, 11, 24, 9, 20, 8]",6,0,[],23.7422446,9080,1114,1,0,6,1.7914659320828714
undo,76,44,0,1,1,8,"[0, 11, 24, 9, 20, 8]",6,0,[],23.7422446,10488,1408,1,0,6,1.7914659320828714
undo,77,35,0,0,0,0,[0],1,29,"[1, 2, 3, 4, 5, 6, 7, 8, 9, 10, 11, 12, 13, 14, 15, 16, 17, 18, 19, 20, 21, 22, 23, 24, 25, 26, 27, 28, 29]",300,132,-1,5,236,11,0.0
undo,77,35,0,0,0,26,"[0, 26]",2,26,"[1, 2, 3, 4, 5, 6, 7, 8, 9, 10, 11, 12, 14, 15, 16, 17, 18, 19, 20, 22, 23, 24, 25, 27, 28, 29]",192.3849453,3019,2887,7,53,7,1.0
undo,77,35,0,0,0,5,"[0, 26, 5]",3,11,"[1, 4, 6, 9, 15, 17, 18, 23, 24, 25, 29]",117.7525127,5812,2793,3,9,7,1.6328820579875685
undo,77,35,0,0,0,23,"[0, 26, 5, 23]",4,6,"[1, 6, 9, 15, 18, 25]",63.3006991,7264,1452,2,4,6,2.2262857208774274
undo,77,35,0,0,0,9,"[0, 26, 5, 23, 9]",5,1,[18],25.65763865,12515,5251,1,0,6,2.4404554250987576
undo,77,35,0,0,1,18,"[0, 26, 5, 23, 9, 18]",6,0,[],5.632654259,14455,1940,1,0,6,2.28845892572278
undo,77,35,0,1,1,18,"[0, 26, 5, 23, 9, 18]",6,0,[],5.632654259,15339,884,1,0,6,2.28845892572278
undo,78,31,0,0,0,0,[0],1,27,"[1, 3, 4, 5, 6, 7, 8, 10, 11, 12, 13, 14, 15, 16, 17, 18, 19, 20, 21, 22, 23, 24, 25, 26, 27, 28, 29]",300,130,-1,2,87,10,0.0
undo,78,31,0,0,0,17,"[0, 17]",2,19,"[1, 3, 5, 6, 7, 8, 11, 12, 13, 14, 16, 18, 19, 20, 22, 25, 27, 28, 29]",209.4792841,2716,2586,2,57,8,1.0
undo,78,31,0,0,0,1,"[0, 17, 1]",3,5,"[6, 12, 20, 22, 25]",110.4792841,6615,3899,4,2,5,1.0098476218121468
undo,78,31,0,0,0,12,"[0, 17, 1, 12]",4,1,[25],49.07895841,10797,4182,1,0,5,1.4460686662186528
undo,78,31,0,0,1,25,"[0, 17, 1, 12, 25]",5,0,[],18.48484133,20677,9880,1,0,5,1.9515342606629702
undo,78,31,0,1,1,25,"[0, 17, 1, 12, 25]",5,0,[],18.48484133,22131,1454,1,0,5,1.9515342606629702
undo,79,45,0,0,0,0,[0],1,24,"[1, 2, 3, 4, 5, 6, 7, 9, 10, 11, 12, 14, 15, 16, 17, 19, 20, 21, 22, 23, 24, 25, 27, 29]",300,129,-1,6,248,10,0.0
undo,79,45,0,0,0,15,"[0, 15]",2,23,"[1, 2, 3, 4, 5, 6, 7, 9, 10, 11, 12, 14, 16, 17, 19, 20, 21, 22, 23, 24, 25, 27, 29]",253.9022777,4619,4490,5,207,10,1.0
undo,79,45,0,0,0,23,"[0, 15, 23]",3,22,"[1, 2, 3, 4, 5, 6, 7, 9, 10, 11, 12, 14, 16, 17, 19, 20, 21, 22, 24, 25, 27, 29]",230.3014303,9201,4582,5,163,10,1.0006068457769497
undo,79,45,0,0,1,25,"[0, 15, 23, 25]",4,0,[],69.8395968,10748,1547,1,0,4,1.0089321605329935
undo,79,45,0,1,1,25,"[0, 15, 23, 25]",4,0,[],69.8395968,14520,3772,1,0,4,1.0089321605329935
undo,80,22,0,0,0,0,[0],1,29,"[1, 2, 3, 4, 5, 6, 7, 8, 9, 10, 11, 12, 13, 14, 15, 16, 17, 18, 19, 20, 21, 22, 23, 24, 25, 26, 27, 28, 29]",300,129,-1,31,704,9,0.0
undo,80,22,0,0,0,25,"[0, 25]",2,22,"[2, 4, 6, 7, 8, 9, 11, 12, 13, 14, 15, 16, 17, 18, 19, 20, 21, 22, 24, 27, 28, 29]",232.8807032,2375,2246,1,18,8,1.0
undo,80,22,0,0,0,22,"[0, 25, 22]",3,3,"[6, 16, 28]",126.9326027,3797,1422,2,2,5,1.235565465188455
undo,80,22,0,0,0,16,"[0, 25, 22, 16]",4,2,"[6, 28]",38.47357265,5124,1327,2,0,5,3.2130881448826822
undo,80,22,0,0,1,28,"[0, 25, 22, 16, 28]",5,0,[],4.035221939,6049,925,1,0,5,2.6759225668248248
undo,80,22,0,1,1,28,"[0, 25, 22, 16, 28]",5,0,[],4.035221939,6641,592,1,0,5,2.6759225668248248
undo,81,17,0,0,0,0,[0],1,28,"[1, 2, 3, 4, 5, 6, 7, 8, 9, 10, 11, 12, 13, 14, 15, 16, 17, 18, 19, 20, 22, 23, 24, 25, 26, 27, 28, 29]",300,131,-1,2,73,8,0.0
undo,81,17,0,0,0,16,"[0, 16]",2,23,"[1, 2, 3, 5, 7, 8, 9, 10, 11, 12, 14, 17, 18, 19, 20, 22, 23, 24, 25, 26, 27, 28, 29]",212.3586855,2460,2329,1,29,8,1.0
undo,81,17,0,0,0,2,"[0, 16, 2]",3,21,"[1, 3, 5, 7, 8, 9, 10, 11, 12, 14, 17, 18, 19, 20, 23, 24, 25, 26, 27, 28, 29]",196.23417,3789,1329,13,69,7,1.0017855005780958
undo,81,17,0,0,0,8,"[0, 16, 2, 8]",4,13,"[3, 7, 9, 10, 11, 12, 14, 17, 23, 25, 26, 27, 29]",161.1200703,5823,2034,2,21,7,1.037631632944467
undo,81,17,0,0,0,27,"[0, 16, 2, 8, 27]",5,4,"[7, 12, 25, 26]",78.48230655,7340,1517,1,3,7,1.031431121029855
undo,81,17,0,0,0,12,"[0, 16, 2, 8, 27, 12]",6,1,[26],55.48230655,8511,1171,1,0,7,1.0303911079382349
undo,81,17,0,0,1,26,"[0, 16, 2, 8, 27, 12, 26]",7,0,[],20.36820682,11495,2984,1,0,7,1.139987661565409
undo,81,17,0,1,1,26,"[0, 16, 2, 8, 27, 12, 26]",7,0,[],20.36820682,12738,1243,1,0,7,1.139987661565409
undo,82,42,0,0,0,0,[0],1,29,"[1, 2, 3, 4, 5, 6, 7, 8, 9, 10, 11, 12, 13, 14, 15, 16, 17, 18, 19, 20, 21, 22, 23, 24, 25, 26, 27, 28, 29]",300,114,-1,16,302,9,0.0
undo,82,42,0,0,0,3,"[0, 3]",2,25,"[1, 2, 4, 5, 6, 7, 8, 9, 10, 11, 13, 15, 17, 18, 19, 20, 21, 22, 23, 24, 25, 26, 27, 28, 29]",255.7959278,2229,2115,3,45,9,1.0
undo,82,42,0,0,0,24,"[0, 3, 24]",3,17,"[1, 2, 4, 5, 6, 7, 8, 11, 15, 17, 19, 22, 23, 25, 26, 27, 28]",166.9589985,9497,7268,13,54,7,1.0153139608737758
undo,82,42,0,0,0,7,"[0, 3, 24, 7]",4,5,"[1, 2, 19, 26, 27]",66.53987685,10960,1463,3,3,6,1.3476580584948952
undo,82,42,0,0,0,26,"[0, 3, 24, 7, 26]",5,2,"[19, 27]",39.96921634,11914,954,2,0,6,1.3132867861616162
undo,82,42,0,0,1,27,"[0, 3, 24, 7, 26, 27]",6,0,[],21.94145996,13382,1468,1,0,6,1.3040028383864344
undo,82,42,0,1,1,27,"[0, 3, 24, 7, 26, 27]",6,0,[],21.94145996,14887,1505,1,0,6,1.3040028383864344
undo,83,41,0,0,0,0,[0],1,29,"[1, 2, 3, 4, 5, 6, 7, 8, 9, 10, 11, 12, 13, 14, 15, 16, 17, 18, 19, 20, 21, 22, 23, 24, 25, 26, 27, 28, 29]",300,165,-1,1,143,10,0.0
undo,83,41,0,0,0,17,"[0, 17]",2,25,"[1, 2, 3, 4, 5, 6, 9, 10, 11, 12, 13, 14, 15, 16, 18, 19, 20, 21, 22, 24, 25, 26, 27, 28, 29]",236.612304,4906,4741,10,71,9,1.0
undo,83,41,0,0,0,9,"[0, 17, 9]",3,23,"[1, 2, 3, 4, 5, 6, 10, 11, 12, 13, 14, 15, 18, 19, 20, 21, 22, 24, 25, 26, 27, 28, 29]",205.5961792,5601,695,3,31,9,1.1471787591220302
undo,83,41,0,0,0,12,"[0, 17, 9, 12]",4,11,"[2, 3, 6, 11, 14, 15, 19, 21, 22, 25, 29]",136.5309926,7264,1663,12,4,6,1.2896787505973693
undo,83,41,0,0,0,25,"[0, 17, 9, 12, 25]",5,3,"[6, 11, 19]",89.36108693,8111,847,3,0,6,1.3290910156456588
undo,83,41,0,0,1,11,"[0, 17, 9, 12, 25, 11]",6,0,[],5.952454288,10205,2094,1,0,6,1.3675298808680805
undo,83,41,0,1,1,11,"[0, 17, 9, 12, 25, 11]",6,0,[],5.952454288,11224,1019,1,0,6,1.3675298808680805
undo,84,40,0,0,0,0,[0],1,29,"[1, 2, 3, 4, 5, 6, 7, 8, 9, 10, 11, 12, 13, 14, 15, 16, 17, 18, 19, 20, 21, 22, 23, 24, 25, 26, 27, 28, 29]",300,162,-1,8,191,9,0.0
undo,84,40,0,0,0,2,"[0, 2]",2,28,"[1, 3, 4, 5, 6, 7, 8, 9, 10, 11, 12, 13, 14, 15, 16, 17, 18, 19, 20, 21, 22, 23, 24, 25, 26, 27, 28, 29]",263.7646581,4962,4800,4,79,9,1.0
undo,84,40,0,0,0,19,"[0, 2, 19]",3,22,"[1, 5, 6, 7, 8, 9, 10, 11, 13, 14, 15, 17, 18, 20, 21, 22, 23, 24, 25, 26, 27, 29]",194.4249148,6877,1915,19,105,8,1.02908296307533
undo,84,40,0,0,0,22,"[0, 2, 19, 22]",4,12,"[5, 7, 8, 9, 11, 14, 18, 20, 23, 25, 27, 29]",119.258433,7834,957,3,12,7,1.0205526089633497
undo,84,40,0,0,0,11,"[0, 2, 19, 22, 11]",5,1,[20],64.25843295,8810,976,1,0,6,1.0157877978512315
undo,84,40,0,0,1,20,"[0, 2, 19, 22, 11, 20]",6,0,[],10.40678488,15261,6451,1,0,6,1.0447618683518705
undo,84,40,0,1,1,20,"[0, 2, 19, 22, 11, 20]",6,0,[],10.40678488,16251,990,1,0,6,1.0447618683518705
undo,85,8,0,0,0,0,[0],1,29,"[1, 2, 3, 4, 5, 6, 7, 8, 9, 10, 11, 12, 13, 14, 15, 16, 17, 18, 19, 20, 21, 22, 23, 24, 25, 26, 27, 28, 29]",300,130,-1,10,149,9,0.0
undo,85,8,0,0,0,25,"[0, 25]",2,22,"[1, 2, 3, 4, 5, 6, 7, 11, 12, 14, 15, 16, 17, 18, 19, 20, 21, 22, 23, 24, 28, 29]",230.992754,7248,7118,26,209,8,1.0
undo,85,8,0,0,0,1,"[0, 25, 1]",3,18,"[3, 4, 5, 6, 11, 12, 14, 15, 16, 17, 18, 20, 21, 22, 23, 24, 28, 29]",205.992754,7879,631,14,91,8,1.008733440965848
undo,85,8,0,0,0,23,"[0, 25, 1, 23]",4,16,"[3, 4, 5, 6, 11, 14, 15, 16, 17, 18, 20, 21, 22, 24, 28, 29]",182.9710251,8638,759,9,47,8,1.0070385748869022
undo,85,8,0,0,0,4,"[0, 25, 1, 23, 4]",5,8,"[3, 5, 14, 16, 17, 18, 21, 28]",133.6354396,10816,2178,1,6,8,1.019414419242917
undo,85,8,0,0,0,18,"[0, 25, 1, 23, 4, 18]",6,5,"[5, 14, 16, 17, 28]",90.62381327,12162,1346,1,4,8,1.5839575833695891
undo,85,8,0,0,1,14,"[0, 25, 1, 23, 4, 18, 14]",7,0,[],33.13468386,13330,1168,1,0,7,3.123422274788366
undo,85,8,0,1,1,14,"[0, 25, 1, 23, 4, 18, 14]",7,0,[],33.13468386,16969,3639,1,0,7,3.123422274788366
undo,86,2,0,0,0,0,[0],1,23,"[1, 2, 4, 5, 6, 7, 8, 9, 12, 13, 15, 16, 17, 18, 19, 20, 22, 23, 25, 26, 27, 28, 29]",300,128,-1,70,620,10,0.0
undo,86,2,0,0,0,16,"[0, 16]",2,19,"[1, 4, 5, 6, 7, 8, 12, 13, 15, 17, 18, 19, 20, 22, 25, 26, 27, 28, 29]",245.6216955,3588,3460,15,108,9,1.0
undo,86,2,0,0,0,4,"[0, 16, 4]",3,15,"[5, 6, 7, 12, 13, 15, 18, 19, 20, 22, 25, 26, 27, 28, 29]",198.8028959,5483,1895,7,28,7,1.0057049061943228
undo,86,2,0,0,0,12,"[0, 16, 4, 12]",4,6,"[5, 6, 13, 18, 19, 22]",75.54300782,8219,2736,6,1,7,1.983318575446822
undo,86,2,0,0,0,5,"[0, 16, 4, 12, 5]",5,2,"[13, 22]",46.0133617,10380,2161,2,0,7,1.7945216991557296
undo,86,2,0,0,0,13,"[0, 16, 4, 12, 5, 13]",6,1,[22],32.41189119,12224,1844,1,0,7,1.8089777580354272
undo,86,2,0,0,1,22,"[0, 16, 4, 12, 5, 13, 22]",7,0,[],17.54582244,15665,3441,1,0,7,1.8304171047335613
undo,86,2,0,1,1,22,"[0, 16, 4, 12, 5, 13, 22]",7,0,[],17.54582244,16766,1101,1,0,7,1.8304171047335613
undo,87,36,0,0,0,0,[0],1,24,"[2, 4, 5, 6, 7, 8, 9, 10, 12, 13, 14, 15, 16, 17, 18, 19, 20, 22, 23, 25, 26, 27, 28, 29]",300,146,-1,2,200,10,0.0
undo,87,36,0,0,0,9,"[0, 9]",2,16,"[2, 4, 8, 10, 12, 13, 16, 17, 18, 19, 23, 25, 26, 27, 28, 29]",230.9348134,2904,2758,81,367,8,1.0
undo,87,36,0,0,0,19,"[0, 9, 19]",3,14,"[2, 4, 8, 10, 12, 13, 16, 17, 18, 23, 25, 27, 28, 29]",215.8020675,4396,1492,32,122,8,1.092374745664041
undo,87,36,0,0,0,13,"[0, 9, 19, 13]",4,13,"[2, 4, 8, 10, 12, 16, 17, 18, 23, 25, 27, 28, 29]",172.3854808,5299,903,3,24,8,1.301105619351329
undo,87,36,0,0,0,4,"[0, 9, 19, 13, 4]",5,1,[29],62.78164871,6578,1279,1,0,6,1.358375135150711
undo,87,36,0,0,1,29,"[0, 9, 19, 13, 4, 29]",6,0,[],42.75666431,8362,1784,1,0,6,1.324063045744053
undo,87,36,0,1,1,29,"[0, 9, 19, 13, 4, 29]",6,0,[],42.75666431,9173,811,1,0,6,1.324063045744053
undo,88,13,0,0,0,0,[0],1,29,"[1, 2, 3, 4, 5, 6, 7, 8, 9, 10, 11, 12, 13, 14, 15, 16, 17, 18, 19, 20, 21, 22, 23, 24, 25, 26, 27, 28, 29]",300,114,-1,60,2676,11,0.0
undo,88,13,0,0,0,29,"[0, 29]",2,21,"[1, 2, 3, 4, 6, 7, 9, 11, 12, 13, 15, 16, 17, 19, 20, 21, 23, 24, 26, 27, 28]",188.6941152,2657,2543,3,266,9,1.0
undo,88,13,0,0,0,6,"[0, 29, 6]",3,20,"[1, 2, 3, 4, 7, 9, 11, 12, 13, 15, 16, 17, 19, 20, 21, 23, 24, 26, 27, 28]",153.3387761,4054,1397,12,118,8,1.3507557378560657
undo,88,13,0,0,0,16,"[0, 29, 6, 16]",4,5,"[3, 4, 20, 23, 27]",79.78607391,8556,4502,3,6,7,2.3923580398654805
undo,88,13,0,0,0,20,"[0, 29, 6, 16, 20]",5,2,"[3, 4]",32.40464295,9556,1000,2,0,6,2.432283067052043
undo,88,13,0,0,1,4,"[0, 29, 6, 16, 20, 4]",6,0,[],10.3819274,11336,1780,1,0,6,2.234385442010038
undo,88,13,0,1,1,4,"[0, 29, 6, 16, 20, 4]",6,0,[],10.3819274,12123,787,1,0,6,2.234385442010038
undo,89,5,0,0,0,0,[0],1,29,"[1, 2, 3, 4, 5, 6, 7, 8, 9, 10, 11, 12, 13, 14, 15, 16, 17, 18, 19, 20, 21, 22, 23, 24, 25, 26, 27, 28, 29]",300,147,-1,5,139,9,0.0
undo,89,5,0,0,0,13,"[0, 13]",2,23,"[1, 2, 3, 4, 6, 7, 8, 9, 11, 12, 16, 17, 19, 20, 21, 22, 23, 24, 25, 26, 27, 28, 29]",195.2622322,2251,2104,4,29,7,1.0
undo,89,5,0,0,0,9,"[0, 13, 9]",3,15,"[1, 3, 7, 8, 11, 19, 20, 21, 22, 23, 24, 25, 27, 28, 29]",169.6497353,3272,1021,4,16,7,1.0192950630434863
undo,89,5,0,0,0,27,"[0, 13, 9, 27]",4,9,"[1, 3, 8, 11, 19, 20, 23, 24, 28]",130.5984869,5040,1768,4,6,6,1.4405286388891378
undo,89,5,0,0,0,19,"[0, 13, 9, 27, 19]",5,1,[8],70.59848689,6064,1024,1,0,6,1.7798042750591034
undo,89,5,0,0,1,8,"[0, 13, 9, 27, 19, 8]",6,0,[],30.23761475,7130,1066,1,0,6,2.939851186624513
undo,89,5,0,1,1,8,"[0, 13, 9, 27, 19, 8]",6,0,[],30.23761475,8008,878,1,0,6,2.939851186624513
undo,90,28,0,0,0,0,[0],1,27,"[1, 2, 3, 4, 5, 6, 7, 8, 9, 10, 11, 12, 13, 14, 15, 16, 17, 18, 19, 20, 22, 23, 25, 26, 27, 28, 29]",300,132,-1,2,96,9,0.0
undo,90,28,0,0,0,14,"[0, 14]",2,14,"[1, 2, 3, 5, 7, 10, 11, 12, 13, 17, 18, 19, 20, 26]",147.8914861,2913,2781,1,26,8,1.0
undo,90,28,0,0,0,18,"[0, 14, 18]",3,11,"[1, 2, 3, 5, 7, 11, 12, 13, 17, 19, 26]",122.3963885,4327,1414,1,23,8,1.0675599824559303
undo,90,28,0,0,0,13,"[0, 14, 18, 13]",4,7,"[2, 7, 11, 12, 17, 19, 26]",97.9832773,5072,745,1,9,8,1.0602397944415018
undo,90,28,0,0,0,12,"[0, 14, 18, 13, 12]",5,4,"[2, 7, 17, 19]",80.77862677,6192,1120,1,3,8,1.0640685934245377
undo,90,28,0,0,0,7,"[0, 14, 18, 13, 12, 7]",6,2,"[2, 19]",67.62568033,7109,917,1,1,8,1.186262804928269
undo,90,28,0,0,0,19,"[0, 14, 18, 13, 12, 7, 19]",7,1,[2],39.89483108,7786,677,1,0,8,1.424576333867947
undo,90,28,0,0,1,2,"[0, 14, 18, 13, 12, 7, 19, 2]",8,0,[],2.531747699,9868,2082,1,0,8,1.4824387893309579
undo,90,28,0,1,1,2,"[0, 14, 18, 13, 12, 7, 19, 2]",8,0,[],2.531747699,10608,740,1,0,8,1.4824387893309579
undo,91,15,0,0,0,0,[0],1,25,"[1, 2, 3, 4, 7, 8, 9, 10, 11, 12, 13, 14, 15, 16, 18, 20, 21, 22, 23, 24, 25, 26, 27, 28, 29]",300,129,-1,4,65,9,0.0
undo,91,15,0,0,0,4,"[0, 4]",2,11,"[3, 7, 10, 11, 12, 13, 14, 15, 16, 18, 22]",160.9568412,3306,3177,7,39,6,1.0
undo,91,15,0,0,0,16,"[0, 4, 16]",3,8,"[3, 7, 11, 12, 13, 14, 15, 22]",99.18306039,4830,1524,5,13,6,1.7590498478572776
undo,91,15,0,0,0,7,"[0, 4, 16, 7]",4,3,"[3, 11, 12]",55.52530048,7111,2281,1,2,6,2.8825635512359935
undo,91,15,0,0,1,12,"[0, 4, 16, 7, 12]",5,0,[],22.2837602,8107,996,1,0,5,3.2123638475399936
undo,91,15,0,1,1,12,"[0, 4, 16, 7, 12]",5,0,[],22.2837602,9806,1699,1,0,5,3.2123638475399936
