condition,trial_id,map_id,undoIndicator,submit,checkEnd,currentChoice,chosen_all,n_city_all,n_within_reach,cities_reach,currentBudget,time_all,rt_all,n_opt_paths_all,n_subopt_paths_all,mas_all,tortuosity_all
basic,0,25,0,0,0,0,[0],1,28,"[1, 2, 3, 4, 5, 7, 8, 9, 10, 11, 12, 13, 14, 15, 16, 17, 18, 19, 20, 21, 22, 23, 24, 25, 26, 27, 28, 29]",300,149,-1,5,94,10,0.0
basic,0,25,0,0,0,22,"[0, 22]",2,26,"[1, 2, 3, 4, 5, 7, 8, 9, 11, 12, 13, 14, 15, 16, 17, 18, 19, 20, 21, 23, 24, 25, 26, 27, 28, 29]",222.6307555,4116,3967,3,29,9,1.0
basic,0,25,0,1,0,22,"[0, 22]",2,26,"[1, 2, 3, 4, 5, 7, 8, 9, 11, 12, 13, 14, 15, 16, 17, 18, 19, 20, 21, 23, 24, 25, 26, 27, 28, 29]",222.6307555,4907,791,3,29,9,1.0
basic,1,8,0,0,0,0,[0],1,29,"[1, 2, 3, 4, 5, 6, 7, 8, 9, 10, 11, 12, 13, 14, 15, 16, 17, 18, 19, 20, 21, 22, 23, 24, 25, 26, 27, 28, 29]",300,162,-1,10,149,9,0.0
basic,1,8,0,0,0,22,"[0, 22]",2,28,"[1, 2, 3, 4, 5, 6, 7, 8, 9, 10, 11, 12, 13, 14, 15, 16, 17, 18, 19, 20, 21, 23, 24, 25, 26, 27, 28, 29]",254.119721,1274,1112,2,42,8,1.0
basic,1,8,0,1,0,22,"[0, 22]",2,28,"[1, 2, 3, 4, 5, 6, 7, 8, 9, 10, 11, 12, 13, 14, 15, 16, 17, 18, 19, 20, 21, 23, 24, 25, 26, 27, 28, 29]",254.119721,1666,392,2,42,8,1.0
basic,2,15,0,0,0,0,[0],1,25,"[1, 2, 3, 4, 7, 8, 9, 10, 11, 12, 13, 14, 15, 16, 18, 20, 21, 22, 23, 24, 25, 26, 27, 28, 29]",300,146,-1,4,65,9,0.0
basic,2,15,0,0,1,28,"[0, 28]",2,0,[],13.3974878,1174,1028,1,0,2,1.0
basic,2,15,0,1,1,28,"[0, 28]",2,0,[],13.3974878,1598,424,1,0,2,1.0
basic,3,38,0,0,0,0,[0],1,29,"[1, 2, 3, 4, 5, 6, 7, 8, 9, 10, 11, 12, 13, 14, 15, 16, 17, 18, 19, 20, 21, 22, 23, 24, 25, 26, 27, 28, 29]",300,147,-1,33,506,9,0.0
basic,3,38,0,0,0,19,"[0, 19]",2,23,"[3, 4, 5, 6, 7, 8, 9, 11, 13, 14, 15, 16, 17, 18, 20, 22, 23, 24, 25, 26, 27, 28, 29]",219.5015528,2327,2180,6,61,9,1.0
basic,3,38,0,1,0,19,"[0, 19]",2,23,"[3, 4, 5, 6, 7, 8, 9, 11, 13, 14, 15, 16, 17, 18, 20, 22, 23, 24, 25, 26, 27, 28, 29]",219.5015528,2718,391,6,61,9,1.0
basic,4,14,0,0,0,0,[0],1,29,"[1, 2, 3, 4, 5, 6, 7, 8, 9, 10, 11, 12, 13, 14, 15, 16, 17, 18, 19, 20, 21, 22, 23, 24, 25, 26, 27, 28, 29]",300,147,-1,8,157,10,0.0
basic,4,14,0,0,0,20,"[0, 20]",2,21,"[1, 2, 3, 7, 8, 9, 10, 11, 13, 15, 17, 18, 19, 21, 22, 23, 25, 26, 27, 28, 29]",236.0468922,1382,1235,2,25,9,1.0
basic,4,14,0,1,0,20,"[0, 20]",2,21,"[1, 2, 3, 7, 8, 9, 10, 11, 13, 15, 17, 18, 19, 21, 22, 23, 25, 26, 27, 28, 29]",236.0468922,1900,518,2,25,9,1.0
basic,5,20,0,0,0,0,[0],1,21,"[1, 2, 3, 4, 5, 6, 7, 8, 9, 12, 17, 18, 20, 21, 22, 23, 25, 26, 27, 28, 29]",300,145,-1,1,9,9,0.0
basic,5,20,0,0,0,12,"[0, 12]",2,20,"[1, 2, 3, 4, 5, 6, 7, 8, 9, 17, 18, 20, 21, 22, 23, 25, 26, 27, 28, 29]",271.5570747,3084,2939,1,8,9,1.0
basic,5,20,0,1,0,12,"[0, 12]",2,20,"[1, 2, 3, 4, 5, 6, 7, 8, 9, 17, 18, 20, 21, 22, 23, 25, 26, 27, 28, 29]",271.5570747,3485,401,1,8,9,1.0
basic,6,40,0,0,0,0,[0],1,29,"[1, 2, 3, 4, 5, 6, 7, 8, 9, 10, 11, 12, 13, 14, 15, 16, 17, 18, 19, 20, 21, 22, 23, 24, 25, 26, 27, 28, 29]",300,145,-1,8,191,9,0.0
basic,6,40,0,0,0,29,"[0, 29]",2,7,"[7, 8, 10, 12, 14, 24, 27]",96.57679582,1765,1620,1,5,5,1.0
basic,6,40,0,1,0,29,"[0, 29]",2,7,"[7, 8, 10, 12, 14, 24, 27]",96.57679582,2232,467,1,5,5,1.0
basic,7,18,0,0,0,0,[0],1,28,"[1, 2, 3, 4, 5, 6, 7, 8, 9, 10, 11, 12, 13, 14, 16, 17, 18, 19, 20, 21, 22, 23, 24, 25, 26, 27, 28, 29]",300,161,-1,3,136,10,0.0
basic,7,18,0,0,0,14,"[0, 14]",2,20,"[1, 2, 3, 5, 7, 8, 9, 10, 12, 13, 16, 18, 19, 20, 21, 23, 25, 26, 27, 28]",187.8884484,2742,2581,5,59,8,1.0
basic,7,18,0,1,0,14,"[0, 14]",2,20,"[1, 2, 3, 5, 7, 8, 9, 10, 12, 13, 16, 18, 19, 20, 21, 23, 25, 26, 27, 28]",187.8884484,3317,575,5,59,8,1.0
basic,8,29,0,0,0,0,[0],1,29,"[1, 2, 3, 4, 5, 6, 7, 8, 9, 10, 11, 12, 13, 14, 15, 16, 17, 18, 19, 20, 21, 22, 23, 24, 25, 26, 27, 28, 29]",300,146,-1,1,78,9,0.0
basic,8,29,0,0,1,24,"[0, 24]",2,0,[],45.62822484,1875,1729,1,0,2,1.0
basic,8,29,0,1,1,24,"[0, 24]",2,0,[],45.62822484,3535,1660,1,0,2,1.0
basic,9,22,0,0,0,0,[0],1,29,"[1, 2, 3, 4, 5, 6, 7, 8, 9, 10, 11, 12, 13, 14, 15, 16, 17, 18, 19, 20, 21, 22, 23, 24, 25, 26, 27, 28, 29]",300,131,-1,31,704,9,0.0
basic,9,22,0,0,0,18,"[0, 18]",2,5,"[2, 4, 11, 25, 27]",128.8947692,1594,1463,7,1,4,1.0
basic,9,22,0,1,0,18,"[0, 18]",2,5,"[2, 4, 11, 25, 27]",128.8947692,2101,507,7,1,4,1.0
basic,10,13,0,0,0,0,[0],1,29,"[1, 2, 3, 4, 5, 6, 7, 8, 9, 10, 11, 12, 13, 14, 15, 16, 17, 18, 19, 20, 21, 22, 23, 24, 25, 26, 27, 28, 29]",300,145,-1,60,2676,11,0.0
basic,10,13,0,0,0,16,"[0, 16]",2,27,"[1, 2, 3, 4, 6, 7, 8, 9, 10, 11, 12, 13, 14, 15, 17, 18, 19, 20, 21, 22, 23, 24, 25, 26, 27, 28, 29]",207.9511,2214,2069,26,418,9,1.0
basic,10,13,0,1,0,16,"[0, 16]",2,27,"[1, 2, 3, 4, 6, 7, 8, 9, 10, 11, 12, 13, 14, 15, 17, 18, 19, 20, 21, 22, 23, 24, 25, 26, 27, 28, 29]",207.9511,2582,368,26,418,9,1.0
basic,11,42,0,0,0,0,[0],1,29,"[1, 2, 3, 4, 5, 6, 7, 8, 9, 10, 11, 12, 13, 14, 15, 16, 17, 18, 19, 20, 21, 22, 23, 24, 25, 26, 27, 28, 29]",300,163,-1,16,302,9,0.0
basic,11,42,0,0,0,5,"[0, 5]",2,28,"[1, 2, 3, 4, 6, 7, 8, 9, 10, 11, 12, 13, 14, 15, 16, 17, 18, 19, 20, 21, 22, 23, 24, 25, 26, 27, 28, 29]",191.2939744,2984,2821,1,22,9,1.0
basic,11,42,0,1,0,5,"[0, 5]",2,28,"[1, 2, 3, 4, 6, 7, 8, 9, 10, 11, 12, 13, 14, 15, 16, 17, 18, 19, 20, 21, 22, 23, 24, 25, 26, 27, 28, 29]",191.2939744,3385,401,1,22,9,1.0
basic,12,7,0,0,0,0,[0],1,29,"[1, 2, 3, 4, 5, 6, 7, 8, 9, 10, 11, 12, 13, 14, 15, 16, 17, 18, 19, 20, 21, 22, 23, 24, 25, 26, 27, 28, 29]",300,144,-1,3,79,9,0.0
basic,12,7,0,0,0,27,"[0, 27]",2,26,"[1, 4, 5, 6, 7, 8, 9, 10, 11, 12, 13, 14, 15, 16, 17, 18, 19, 20, 21, 22, 23, 24, 25, 26, 28, 29]",238.7056283,2725,2581,3,19,7,1.0
basic,12,7,0,1,0,27,"[0, 27]",2,26,"[1, 4, 5, 6, 7, 8, 9, 10, 11, 12, 13, 14, 15, 16, 17, 18, 19, 20, 21, 22, 23, 24, 25, 26, 28, 29]",238.7056283,3182,457,3,19,7,1.0
basic,13,0,0,0,0,0,[0],1,27,"[2, 3, 4, 5, 6, 7, 8, 9, 10, 11, 12, 13, 14, 15, 16, 17, 19, 20, 21, 22, 23, 24, 25, 26, 27, 28, 29]",300,146,-1,104,1136,9,0.0
basic,13,0,0,0,0,12,"[0, 12]",2,20,"[3, 4, 5, 7, 8, 9, 10, 11, 13, 14, 15, 17, 19, 20, 21, 22, 23, 24, 26, 28]",143.9839752,1208,1062,3,52,8,1.0
basic,13,0,0,1,0,12,"[0, 12]",2,20,"[3, 4, 5, 7, 8, 9, 10, 11, 13, 14, 15, 17, 19, 20, 21, 22, 23, 24, 26, 28]",143.9839752,1715,507,3,52,8,1.0
basic,14,21,0,0,0,0,[0],1,29,"[1, 2, 3, 4, 5, 6, 7, 8, 9, 10, 11, 12, 13, 14, 15, 16, 17, 18, 19, 20, 21, 22, 23, 24, 25, 26, 27, 28, 29]",300,146,-1,84,830,9,0.0
basic,14,21,0,0,0,12,"[0, 12]",2,19,"[2, 5, 6, 7, 10, 11, 13, 17, 18, 19, 20, 21, 22, 23, 25, 26, 27, 28, 29]",188.9819834,1625,1479,4,28,7,1.0
basic,14,21,0,1,0,12,"[0, 12]",2,19,"[2, 5, 6, 7, 10, 11, 13, 17, 18, 19, 20, 21, 22, 23, 25, 26, 27, 28, 29]",188.9819834,2199,574,4,28,7,1.0
basic,15,12,0,0,0,0,[0],1,29,"[1, 2, 3, 4, 5, 6, 7, 8, 9, 10, 11, 12, 13, 14, 15, 16, 17, 18, 19, 20, 21, 22, 23, 24, 25, 26, 27, 28, 29]",300,145,-1,2,32,9,0.0
basic,15,12,0,0,0,5,"[0, 5]",2,21,"[1, 2, 6, 7, 8, 9, 10, 11, 13, 14, 15, 16, 17, 18, 19, 20, 21, 22, 24, 26, 29]",164.9148417,1641,1496,7,27,6,1.0
basic,15,12,0,1,0,5,"[0, 5]",2,21,"[1, 2, 6, 7, 8, 9, 10, 11, 13, 14, 15, 16, 17, 18, 19, 20, 21, 22, 24, 26, 29]",164.9148417,2032,391,7,27,6,1.0
basic,16,43,0,0,0,0,[0],1,23,"[1, 2, 3, 4, 5, 6, 7, 9, 10, 11, 12, 14, 15, 16, 17, 19, 20, 21, 22, 23, 25, 27, 29]",300,163,-1,16,556,12,0.0
basic,16,43,0,0,0,4,"[0, 4]",2,4,"[1, 7, 10, 19]",89.73825835,1708,1545,4,0,3,1.0
basic,16,43,0,1,0,4,"[0, 4]",2,4,"[1, 7, 10, 19]",89.73825835,2116,408,4,0,3,1.0
basic,17,2,0,0,0,0,[0],1,23,"[1, 2, 4, 5, 6, 7, 8, 9, 12, 13, 15, 16, 17, 18, 19, 20, 22, 23, 25, 26, 27, 28, 29]",300,144,-1,70,620,10,0.0
basic,17,2,0,0,0,1,"[0, 1]",2,11,"[2, 5, 6, 7, 9, 12, 13, 18, 19, 22, 23]",118.8012141,3631,3487,7,8,5,1.0
basic,17,2,0,1,0,1,"[0, 1]",2,11,"[2, 5, 6, 7, 9, 12, 13, 18, 19, 22, 23]",118.8012141,4084,453,7,8,5,1.0
basic,18,44,0,0,0,0,[0],1,29,"[1, 2, 3, 4, 5, 6, 7, 8, 9, 10, 11, 12, 13, 14, 15, 16, 17, 18, 19, 20, 21, 22, 23, 24, 25, 26, 27, 28, 29]",300,145,-1,13,126,7,0.0
basic,18,44,0,0,0,9,"[0, 9]",2,17,"[2, 4, 5, 7, 8, 10, 11, 12, 13, 14, 20, 22, 23, 24, 25, 26, 28]",141.32423,2597,2452,3,26,7,1.0
basic,18,44,0,1,0,9,"[0, 9]",2,17,"[2, 4, 5, 7, 8, 10, 11, 12, 13, 14, 20, 22, 23, 24, 25, 26, 28]",141.32423,3050,453,3,26,7,1.0
basic,19,9,0,0,0,0,[0],1,27,"[1, 3, 4, 5, 6, 7, 8, 9, 10, 11, 13, 14, 15, 16, 17, 18, 19, 20, 21, 22, 23, 24, 25, 26, 27, 28, 29]",300,145,-1,2,182,10,0.0
basic,19,9,0,0,0,26,"[0, 26]",2,24,"[1, 3, 4, 5, 6, 7, 8, 9, 10, 11, 13, 15, 16, 17, 18, 19, 20, 21, 22, 23, 24, 25, 27, 28]",183.1753451,2308,2163,1,48,8,1.0
basic,19,9,0,1,0,26,"[0, 26]",2,24,"[1, 3, 4, 5, 6, 7, 8, 9, 10, 11, 13, 15, 16, 17, 18, 19, 20, 21, 22, 23, 24, 25, 27, 28]",183.1753451,2732,424,1,48,8,1.0
basic,20,5,0,0,0,0,[0],1,29,"[1, 2, 3, 4, 5, 6, 7, 8, 9, 10, 11, 12, 13, 14, 15, 16, 17, 18, 19, 20, 21, 22, 23, 24, 25, 26, 27, 28, 29]",300,149,-1,5,139,9,0.0
basic,20,5,0,0,0,21,"[0, 21]",2,16,"[1, 2, 3, 7, 8, 9, 11, 13, 16, 20, 22, 23, 24, 25, 26, 27]",184.2545897,1729,1580,1,16,6,1.0
basic,20,5,0,0,0,22,"[0, 21, 22]",3,4,"[2, 16, 23, 26]",101.4898629,3169,1440,2,2,5,4.790684182838357
basic,20,5,0,0,1,16,"[0, 21, 22, 16]",4,0,[],11.35108105,4214,1045,1,0,4,2.21370593486647
basic,20,5,0,1,1,16,"[0, 21, 22, 16]",4,0,[],11.35108105,5308,1094,1,0,4,2.21370593486647
basic,21,30,0,0,0,0,[0],1,19,"[3, 4, 5, 7, 9, 11, 16, 17, 18, 19, 20, 21, 22, 24, 25, 26, 27, 28, 29]",300,143,-1,5,41,8,0.0
basic,21,30,0,0,0,26,"[0, 26]",2,15,"[3, 5, 9, 11, 16, 17, 18, 19, 20, 21, 22, 25, 27, 28, 29]",208.2939479,4764,4621,5,27,6,1.0
basic,21,30,0,0,0,16,"[0, 26, 16]",3,9,"[3, 9, 11, 17, 20, 22, 25, 27, 28]",165.8439773,5697,933,2,8,6,1.6640006669138325
basic,21,30,0,0,0,11,"[0, 26, 16, 11]",4,1,[9],63.66276572,6619,922,1,0,5,1.3262938848531356
basic,21,30,0,1,0,11,"[0, 26, 16, 11]",4,1,[9],63.66276572,7021,402,1,0,5,1.3262938848531356
basic,22,26,0,0,0,0,[0],1,29,"[1, 2, 3, 4, 5, 6, 7, 8, 9, 10, 11, 12, 13, 14, 15, 16, 17, 18, 19, 20, 21, 22, 23, 24, 25, 26, 27, 28, 29]",300,144,-1,9,226,9,0.0
basic,22,26,0,0,0,16,"[0, 16]",2,17,"[3, 4, 5, 6, 10, 11, 12, 13, 14, 17, 18, 19, 21, 22, 23, 26, 29]",188.0535842,1674,1530,34,176,8,1.0
basic,22,26,0,0,0,21,"[0, 16, 21]",3,10,"[4, 5, 11, 12, 13, 14, 17, 18, 23, 29]",128.145321,2698,1024,4,11,6,1.9338834285270268
basic,22,26,0,0,0,13,"[0, 16, 21, 13]",4,5,"[5, 11, 18, 23, 29]",106.0093774,5631,2933,2,3,6,1.7658145590586931
basic,22,26,0,1,0,13,"[0, 16, 21, 13]",4,5,"[5, 11, 18, 23, 29]",106.0093774,6020,389,2,3,6,1.7658145590586931
undo,23,17,0,0,0,0,[0],1,28,"[1, 2, 3, 4, 5, 6, 7, 8, 9, 10, 11, 12, 13, 14, 15, 16, 17, 18, 19, 20, 22, 23, 24, 25, 26, 27, 28, 29]",300,149,-1,2,73,8,0.0
undo,23,17,0,0,0,5,"[0, 5]",2,8,"[3, 4, 10, 11, 13, 19, 22, 28]",120.3726079,2704,2555,6,13,5,1.0
undo,23,17,0,1,0,5,"[0, 5]",2,8,"[3, 4, 10, 11, 13, 19, 22, 28]",120.3726079,4256,1552,6,13,5,1.0
undo,24,41,0,0,0,0,[0],1,29,"[1, 2, 3, 4, 5, 6, 7, 8, 9, 10, 11, 12, 13, 14, 15, 16, 17, 18, 19, 20, 21, 22, 23, 24, 25, 26, 27, 28, 29]",300,145,-1,1,143,10,0.0
undo,24,41,0,0,0,25,"[0, 25]",2,15,"[2, 3, 4, 6, 8, 9, 11, 12, 14, 16, 19, 21, 22, 23, 29]",141.5165624,1456,1311,5,18,5,1.0
undo,24,41,0,1,0,25,"[0, 25]",2,15,"[2, 3, 4, 6, 8, 9, 11, 12, 14, 16, 19, 21, 22, 23, 29]",141.5165624,2299,843,5,18,5,1.0
undo,25,14,0,0,0,0,[0],1,29,"[1, 2, 3, 4, 5, 6, 7, 8, 9, 10, 11, 12, 13, 14, 15, 16, 17, 18, 19, 20, 21, 22, 23, 24, 25, 26, 27, 28, 29]",300,145,-1,8,157,10,0.0
undo,25,14,0,0,0,9,"[0, 9]",2,24,"[1, 2, 3, 5, 6, 7, 8, 10, 11, 12, 14, 15, 16, 17, 18, 19, 20, 21, 22, 24, 25, 27, 28, 29]",203.8230797,2185,2040,4,35,6,1.0
undo,25,14,0,1,0,9,"[0, 9]",2,24,"[1, 2, 3, 5, 6, 7, 8, 10, 11, 12, 14, 15, 16, 17, 18, 19, 20, 21, 22, 24, 25, 27, 28, 29]",203.8230797,2566,381,4,35,6,1.0
undo,26,36,0,0,0,0,[0],1,24,"[2, 4, 5, 6, 7, 8, 9, 10, 12, 13, 14, 15, 16, 17, 18, 19, 20, 22, 23, 25, 26, 27, 28, 29]",300,145,-1,2,200,10,0.0
undo,26,36,0,0,0,4,"[0, 4]",2,9,"[7, 10, 13, 15, 20, 22, 25, 26, 29]",125.3660972,1296,1151,7,6,4,1.0
undo,26,36,0,1,0,4,"[0, 4]",2,9,"[7, 10, 13, 15, 20, 22, 25, 26, 29]",125.3660972,1698,402,7,6,4,1.0
undo,27,15,0,0,0,0,[0],1,25,"[1, 2, 3, 4, 7, 8, 9, 10, 11, 12, 13, 14, 15, 16, 18, 20, 21, 22, 23, 24, 25, 26, 27, 28, 29]",300,158,-1,4,65,9,0.0
undo,27,15,0,0,0,27,"[0, 27]",2,12,"[1, 3, 7, 8, 9, 11, 12, 14, 21, 23, 24, 26]",147.8389012,1628,1470,1,8,5,1.0
undo,27,15,0,1,0,27,"[0, 27]",2,12,"[1, 3, 7, 8, 9, 11, 12, 14, 21, 23, 24, 26]",147.8389012,2249,621,1,8,5,1.0
undo,28,33,0,0,0,0,[0],1,23,"[1, 2, 5, 7, 8, 11, 12, 13, 14, 15, 16, 17, 18, 19, 20, 21, 23, 24, 25, 26, 27, 28, 29]",300,144,-1,5,108,9,0.0
undo,28,33,0,0,0,14,"[0, 14]",2,10,"[7, 11, 13, 17, 18, 19, 20, 24, 26, 29]",83.05530659,1212,1068,3,15,5,1.0
undo,28,33,0,1,0,14,"[0, 14]",2,10,"[7, 11, 13, 17, 18, 19, 20, 24, 26, 29]",83.05530659,1748,536,3,15,5,1.0
undo,29,12,0,0,0,0,[0],1,29,"[1, 2, 3, 4, 5, 6, 7, 8, 9, 10, 11, 12, 13, 14, 15, 16, 17, 18, 19, 20, 21, 22, 23, 24, 25, 26, 27, 28, 29]",300,146,-1,2,32,9,0.0
undo,29,12,0,0,0,5,"[0, 5]",2,21,"[1, 2, 6, 7, 8, 9, 10, 11, 13, 14, 15, 16, 17, 18, 19, 20, 21, 22, 24, 26, 29]",164.9148417,2031,1885,7,27,6,1.0
undo,29,12,0,0,0,2,"[0, 5, 2]",3,10,"[7, 8, 10, 13, 15, 17, 19, 24, 26, 29]",120.8126875,3359,1328,1,10,6,1.143270168703518
undo,29,12,0,0,0,7,"[0, 5, 2, 7]",4,5,"[10, 13, 19, 24, 29]",103.3484383,4652,1293,1,4,6,1.1883191550831695
undo,29,12,0,1,0,7,"[0, 5, 2, 7]",4,5,"[10, 13, 19, 24, 29]",103.3484383,5036,384,1,4,6,1.1883191550831695
undo,30,40,0,0,0,0,[0],1,29,"[1, 2, 3, 4, 5, 6, 7, 8, 9, 10, 11, 12, 13, 14, 15, 16, 17, 18, 19, 20, 21, 22, 23, 24, 25, 26, 27, 28, 29]",300,162,-1,8,191,9,0.0
undo,30,40,0,0,0,22,"[0, 22]",2,14,"[5, 7, 8, 9, 11, 14, 18, 19, 20, 23, 24, 25, 27, 29]",122.8983343,1425,1263,4,19,5,1.0
undo,30,40,0,0,0,27,"[0, 22, 27]",3,3,"[7, 8, 29]",72.0947911,3267,1842,2,2,5,1.2222622449810028
undo,30,40,0,0,0,7,"[0, 22, 27, 7]",4,2,"[8, 29]",46.54092642,4485,1218,2,0,5,1.2785156328156124
undo,30,40,0,1,0,7,"[0, 22, 27, 7]",4,2,"[8, 29]",46.54092642,4887,402,2,0,5,1.2785156328156124
undo,31,3,0,0,0,0,[0],1,29,"[1, 2, 3, 4, 5, 6, 7, 8, 9, 10, 11, 12, 13, 14, 15, 16, 17, 18, 19, 20, 21, 22, 23, 24, 25, 26, 27, 28, 29]",300,145,-1,34,427,10,0.0
undo,31,3,0,0,0,15,"[0, 15]",2,28,"[1, 2, 3, 4, 5, 6, 7, 8, 9, 10, 11, 12, 13, 14, 16, 17, 18, 19, 20, 21, 22, 23, 24, 25, 26, 27, 28, 29]",268.1723391,1457,1312,8,84,10,1.0
undo,31,3,0,0,0,26,"[0, 15, 26]",3,19,"[1, 2, 4, 7, 8, 9, 11, 12, 13, 16, 17, 18, 20, 22, 23, 24, 25, 27, 29]",210.4661869,3952,2495,2,23,7,1.0088036805248652
undo,31,3,0,0,0,9,"[0, 15, 26, 9]",4,3,"[1, 23, 29]",94.08749468,5232,1280,1,2,6,1.0587495879313105
undo,31,3,0,0,0,29,"[0, 15, 26, 9, 29]",5,1,[23],20.84816099,7268,2036,1,0,6,1.3445491068469761
undo,31,3,0,1,0,29,"[0, 15, 26, 9, 29]",5,1,[23],20.84816099,7641,373,1,0,6,1.3445491068469761
undo,32,45,0,0,0,0,[0],1,24,"[1, 2, 3, 4, 5, 6, 7, 9, 10, 11, 12, 14, 15, 16, 17, 19, 20, 21, 22, 23, 24, 25, 27, 29]",300,145,-1,6,248,10,0.0
undo,32,45,0,0,0,15,"[0, 15]",2,23,"[1, 2, 3, 4, 5, 6, 7, 9, 10, 11, 12, 14, 16, 17, 19, 20, 21, 22, 23, 24, 25, 27, 29]",253.9022777,1356,1211,5,207,10,1.0
undo,32,45,0,0,0,23,"[0, 15, 23]",3,22,"[1, 2, 3, 4, 5, 6, 7, 9, 10, 11, 12, 14, 16, 17, 19, 20, 21, 22, 24, 25, 27, 29]",230.3014303,2309,953,5,163,10,1.0006068457769497
undo,32,45,0,0,0,20,"[0, 15, 23, 20]",4,19,"[1, 2, 3, 5, 6, 7, 9, 10, 11, 12, 14, 16, 17, 19, 21, 22, 24, 25, 29]",188.8647316,3600,1291,5,137,10,1.2062119754673604
undo,32,45,0,0,0,7,"[0, 15, 23, 20, 7]",5,14,"[2, 3, 5, 6, 9, 10, 12, 14, 17, 19, 21, 22, 24, 29]",137.2410936,6221,2621,3,38,10,1.2267717168083891
undo,32,45,0,0,0,2,"[0, 15, 23, 20, 7, 2]",6,8,"[3, 6, 10, 12, 19, 22, 24, 29]",99.22793795,7484,1263,3,20,10,1.1978549169009853
undo,32,45,0,0,0,3,"[0, 15, 23, 20, 7, 2, 3]",7,5,"[6, 10, 12, 22, 29]",73.90996014,8857,1373,2,7,10,1.2603420042999722
undo,32,45,0,0,0,29,"[0, 15, 23, 20, 7, 2, 3, 29]",8,3,"[6, 10, 12]",53.90996014,9704,847,2,1,10,1.527949676112761
undo,32,45,0,0,0,10,"[0, 15, 23, 20, 7, 2, 3, 29, 10]",9,1,[6],32.36930092,11939,2235,1,0,10,1.8188082660591487
undo,32,45,0,0,1,6,"[0, 15, 23, 20, 7, 2, 3, 29, 10, 6]",10,0,[],6.120491419,13882,1943,1,0,10,1.7062675391073039
undo,32,45,1,0,0,10,"[0, 15, 23, 20, 7, 2, 3, 29, 10]",9,1,[6],32.36930092,17006,3124,1,0,10,1.8188082660591487
undo,32,45,0,1,0,10,"[0, 15, 23, 20, 7, 2, 3, 29, 10]",9,1,[6],32.36930092,18274,1268,1,0,10,1.8188082660591487
undo,33,13,0,0,0,0,[0],1,29,"[1, 2, 3, 4, 5, 6, 7, 8, 9, 10, 11, 12, 13, 14, 15, 16, 17, 18, 19, 20, 21, 22, 23, 24, 25, 26, 27, 28, 29]",300,159,-1,60,2676,11,0.0
undo,33,13,0,0,0,24,"[0, 24]",2,28,"[1, 2, 3, 4, 5, 6, 7, 8, 9, 10, 11, 12, 13, 14, 15, 16, 17, 18, 19, 20, 21, 22, 23, 25, 26, 27, 28, 29]",288.8196601,2741,2582,16,1444,11,1.0
undo,33,13,0,0,0,23,"[0, 24, 23]",3,27,"[1, 2, 3, 4, 5, 6, 7, 8, 9, 10, 11, 12, 13, 14, 15, 16, 17, 18, 19, 20, 21, 22, 25, 26, 27, 28, 29]",243.1140806,4076,1335,2,868,11,1.0065545717039834
undo,33,13,0,0,0,16,"[0, 24, 23, 16]",4,25,"[1, 2, 3, 4, 6, 7, 8, 9, 10, 11, 12, 13, 14, 15, 17, 18, 19, 20, 21, 22, 25, 26, 27, 28, 29]",202.8027918,4929,853,1,145,11,1.055930143104189
undo,33,13,0,0,0,3,"[0, 24, 23, 16, 3]",5,20,"[2, 4, 6, 7, 8, 9, 10, 11, 13, 14, 15, 18, 20, 21, 22, 25, 26, 27, 28, 29]",174.3598665,5896,967,3,44,10,1.233783650807853
undo,33,13,0,0,0,20,"[0, 24, 23, 16, 3, 20]",6,15,"[4, 6, 7, 8, 9, 11, 14, 18, 21, 22, 25, 26, 27, 28, 29]",155.3335689,6747,851,7,15,9,1.3149320474556456
undo,33,13,0,0,0,4,"[0, 24, 23, 16, 3, 20, 4]",7,5,"[6, 8, 18, 25, 27]",133.3108534,7648,901,2,4,9,1.2859964130018764
undo,33,13,0,0,0,27,"[0, 24, 23, 16, 3, 20, 4, 27]",8,2,"[8, 18]",111.2881379,8250,602,2,0,9,1.3345945780156503
undo,33,13,0,0,1,18,"[0, 24, 23, 16, 3, 20, 4, 27, 18]",9,0,[],16.20922326,11923,3673,1,0,9,1.2000709670094927
undo,33,13,1,0,0,27,"[0, 24, 23, 16, 3, 20, 4, 27]",8,2,"[8, 18]",111.2881379,14215,2292,2,0,9,1.3345945780156503
undo,33,13,0,1,0,27,"[0, 24, 23, 16, 3, 20, 4, 27]",8,2,"[8, 18]",111.2881379,16869,2654,2,0,9,1.3345945780156503
undo,34,10,0,0,0,0,[0],1,29,"[1, 2, 3, 4, 5, 6, 7, 8, 9, 10, 11, 12, 13, 14, 15, 16, 17, 18, 19, 20, 21, 22, 23, 24, 25, 26, 27, 28, 29]",300,145,-1,1,100,9,0.0
undo,34,10,0,0,0,8,"[0, 8]",2,23,"[2, 3, 4, 6, 7, 9, 10, 11, 12, 13, 14, 17, 18, 19, 20, 21, 22, 23, 24, 26, 27, 28, 29]",256.9883737,2448,2303,13,64,8,1.0
undo,34,10,0,0,0,24,"[0, 8, 24]",3,11,"[2, 4, 10, 11, 13, 14, 19, 20, 22, 26, 29]",182.2555161,4684,2236,3,14,6,1.0864607961784956
undo,34,10,0,0,0,13,"[0, 8, 24, 13]",4,4,"[10, 11, 19, 20]",81.55298386,6421,1737,2,3,6,4.322506653184511
undo,34,10,0,0,0,11,"[0, 8, 24, 13, 11]",5,2,"[19, 20]",38.54135752,7534,1113,2,0,6,2.882410694319905
undo,34,10,0,1,0,11,"[0, 8, 24, 13, 11]",5,2,"[19, 20]",38.54135752,7924,390,2,0,6,2.882410694319905
undo,35,0,0,0,0,0,[0],1,27,"[2, 3, 4, 5, 6, 7, 8, 9, 10, 11, 12, 13, 14, 15, 16, 17, 19, 20, 21, 22, 23, 24, 25, 26, 27, 28, 29]",300,145,-1,104,1136,9,0.0
undo,35,0,0,0,0,21,"[0, 21]",2,24,"[3, 4, 5, 6, 7, 8, 9, 10, 11, 12, 13, 14, 15, 16, 17, 19, 20, 22, 23, 24, 26, 27, 28, 29]",228.2156006,1173,1028,24,249,9,1.0
undo,35,0,0,0,0,20,"[0, 21, 20]",3,15,"[4, 5, 7, 9, 11, 12, 14, 15, 16, 17, 24, 26, 27, 28, 29]",139.1089229,2376,1203,10,29,7,1.9039364248504485
undo,35,0,0,0,0,16,"[0, 21, 20, 16]",4,2,"[27, 29]",57.26761308,3565,1189,2,0,5,2.33948739447683
undo,35,0,0,0,1,27,"[0, 21, 20, 16, 27]",5,0,[],33.92237802,4696,1131,1,0,5,2.1450898425859966
undo,35,0,1,0,0,16,"[0, 21, 20, 16]",4,2,"[27, 29]",57.26761308,6638,1942,2,0,5,2.33948739447683
undo,35,0,0,1,0,16,"[0, 21, 20, 16]",4,2,"[27, 29]",57.26761308,7790,1152,2,0,5,2.33948739447683
undo,36,1,0,0,0,0,[0],1,26,"[1, 2, 4, 5, 7, 8, 9, 10, 11, 12, 13, 14, 15, 16, 17, 18, 19, 20, 21, 22, 23, 24, 25, 26, 28, 29]",300,145,-1,6,74,7,0.0
undo,36,1,0,0,0,25,"[0, 25]",2,10,"[1, 8, 9, 14, 15, 17, 20, 21, 23, 28]",154.9689688,2214,2069,2,13,5,1.0
undo,36,1,0,0,0,9,"[0, 25, 9]",3,2,"[23, 28]",83.75099358,3278,1064,2,0,4,1.0094738934023126
undo,36,1,0,0,1,23,"[0, 25, 9, 23]",4,0,[],9.02482681,4716,1438,1,0,4,1.2102762265553577
undo,36,1,1,0,0,9,"[0, 25, 9]",3,2,"[23, 28]",83.75099358,6388,1672,2,0,4,1.0094738934023126
undo,36,1,0,1,0,9,"[0, 25, 9]",3,2,"[23, 28]",83.75099358,7039,651,2,0,4,1.0094738934023126
undo,37,27,0,0,0,0,[0],1,26,"[1, 3, 5, 6, 7, 8, 9, 10, 11, 12, 13, 14, 15, 16, 17, 18, 19, 21, 22, 23, 24, 25, 26, 27, 28, 29]",300,146,-1,13,578,11,0.0
undo,37,27,0,0,0,27,"[0, 27]",2,24,"[1, 5, 6, 7, 8, 9, 10, 11, 12, 13, 14, 15, 16, 17, 18, 19, 21, 22, 23, 24, 25, 26, 28, 29]",243.3872806,3616,3470,20,305,10,1.0
undo,37,27,0,0,0,18,"[0, 27, 18]",3,21,"[1, 6, 7, 8, 9, 10, 11, 12, 13, 14, 15, 16, 17, 19, 21, 22, 23, 24, 25, 26, 28]",205.903951,4650,1034,1,37,10,1.0039803773310747
undo,37,27,0,0,0,1,"[0, 27, 18, 1]",4,16,"[6, 7, 8, 10, 12, 13, 14, 15, 16, 17, 19, 21, 23, 24, 25, 26]",161.8925888,5718,1068,1,31,10,1.8975883181097521
undo,37,27,0,0,0,23,"[0, 27, 18, 1, 23]",5,10,"[8, 10, 12, 13, 14, 15, 17, 19, 24, 26]",113.8509402,7072,1354,1,15,10,2.4474237231477605
undo,37,27,0,0,0,13,"[0, 27, 18, 1, 23, 13]",6,5,"[8, 10, 12, 17, 19]",54.23550594,8122,1050,2,3,8,2.4972920086393207
undo,37,27,0,1,0,13,"[0, 27, 18, 1, 23, 13]",6,5,"[8, 10, 12, 17, 19]",54.23550594,8543,421,2,3,8,2.4972920086393207
undo,38,5,0,0,0,0,[0],1,29,"[1, 2, 3, 4, 5, 6, 7, 8, 9, 10, 11, 12, 13, 14, 15, 16, 17, 18, 19, 20, 21, 22, 23, 24, 25, 26, 27, 28, 29]",300,127,-1,5,139,9,0.0
undo,38,5,0,0,0,25,"[0, 25]",2,25,"[1, 2, 3, 4, 5, 6, 8, 9, 10, 11, 12, 13, 14, 15, 16, 17, 18, 19, 21, 22, 23, 24, 26, 27, 28]",237.1987261,1857,1730,1,27,9,1.0
undo,38,5,0,0,0,23,"[0, 25, 23]",3,24,"[1, 2, 3, 4, 5, 6, 8, 9, 10, 11, 12, 13, 14, 15, 16, 17, 18, 19, 21, 22, 24, 26, 27, 28]",218.7596372,3599,1742,1,16,9,1.619632697457157
undo,38,5,0,0,0,24,"[0, 25, 23, 24]",4,19,"[2, 4, 5, 6, 8, 9, 10, 12, 13, 14, 15, 17, 18, 19, 21, 22, 26, 27, 28]",195.6728445,4929,1330,1,14,9,1.4405376720181815
undo,38,5,0,0,0,17,"[0, 25, 23, 24, 17]",5,11,"[4, 5, 6, 8, 12, 14, 15, 18, 19, 22, 27]",160.6871331,5885,956,1,10,9,1.3047273214654462
undo,38,5,0,0,0,5,"[0, 25, 23, 24, 17, 5]",6,6,"[4, 6, 8, 12, 15, 18]",117.6406466,7048,1163,1,4,9,1.2200748060424715
undo,38,5,0,1,0,5,"[0, 25, 23, 24, 17, 5]",6,6,"[4, 6, 8, 12, 15, 18]",117.6406466,7522,474,1,4,9,1.2200748060424715
undo,39,23,0,0,0,0,[0],1,28,"[1, 2, 3, 4, 5, 6, 7, 8, 9, 10, 11, 12, 13, 14, 15, 16, 17, 18, 19, 20, 21, 22, 23, 25, 26, 27, 28, 29]",300,145,-1,76,2626,10,0.0
undo,39,23,0,0,0,22,"[0, 22]",2,24,"[1, 2, 3, 5, 6, 7, 8, 9, 10, 11, 12, 13, 14, 15, 17, 18, 19, 20, 21, 23, 25, 26, 27, 29]",210.5013967,1724,1579,15,1362,10,1.0
undo,39,23,0,0,0,13,"[0, 22, 13]",3,14,"[1, 2, 5, 6, 7, 8, 9, 10, 12, 14, 18, 21, 27, 29]",168.3113504,2833,1109,14,522,10,1.1898173563652046
undo,39,23,0,0,0,12,"[0, 22, 13, 12]",4,11,"[1, 2, 6, 7, 9, 10, 14, 18, 21, 27, 29]",156.2283045,3377,544,12,166,10,1.1727968780218219
undo,39,23,0,0,0,2,"[0, 22, 13, 12, 2]",5,9,"[1, 6, 7, 9, 10, 14, 18, 27, 29]",142.3358605,3966,589,4,38,10,1.1553975034701014
undo,39,23,0,0,0,14,"[0, 22, 13, 12, 2, 14]",6,8,"[1, 6, 7, 9, 10, 18, 27, 29]",127.4697917,5384,1418,1,13,10,1.224573596194115
undo,39,23,0,0,0,9,"[0, 22, 13, 12, 2, 14, 9]",7,6,"[6, 7, 10, 18, 27, 29]",117.0294852,6884,1500,1,6,10,1.400480514906671
undo,39,23,0,0,0,29,"[0, 22, 13, 12, 2, 14, 9, 29]",8,2,"[7, 10]",65.40584722,8101,1217,1,1,10,1.5212873642685587
undo,39,23,0,0,0,7,"[0, 22, 13, 12, 2, 14, 9, 29, 7]",9,1,[10],41.32265807,9103,1002,1,0,10,1.5380033024114683
undo,39,23,0,0,1,10,"[0, 22, 13, 12, 2, 14, 9, 29, 7, 10]",10,0,[],13.86359763,9994,891,1,0,10,1.4970912646259733
undo,39,23,1,0,0,7,"[0, 22, 13, 12, 2, 14, 9, 29, 7]",9,1,[10],41.32265807,11880,1886,1,0,10,1.5380033024114683
undo,39,23,0,1,0,7,"[0, 22, 13, 12, 2, 14, 9, 29, 7]",9,1,[10],41.32265807,12782,902,1,0,10,1.5380033024114683
undo,40,22,0,0,0,0,[0],1,29,"[1, 2, 3, 4, 5, 6, 7, 8, 9, 10, 11, 12, 13, 14, 15, 16, 17, 18, 19, 20, 21, 22, 23, 24, 25, 26, 27, 28, 29]",300,144,-1,31,704,9,0.0
undo,40,22,0,0,0,25,"[0, 25]",2,22,"[2, 4, 6, 7, 8, 9, 11, 12, 13, 14, 15, 16, 17, 18, 19, 20, 21, 22, 24, 27, 28, 29]",232.8807032,2325,2181,1,18,8,1.0
undo,40,22,0,0,0,16,"[0, 25, 16]",3,8,"[6, 7, 9, 14, 19, 22, 28, 29]",134.0879909,3515,1190,1,13,8,2.0383787402848017
undo,40,22,0,0,0,28,"[0, 25, 16, 28]",4,6,"[6, 7, 9, 14, 19, 29]",99.64964022,4583,1068,1,4,8,1.8114386871274157
undo,40,22,0,1,0,28,"[0, 25, 16, 28]",4,6,"[6, 7, 9, 14, 19, 29]",99.64964022,4935,352,1,4,8,1.8114386871274157
undo,41,44,0,0,0,0,[0],1,29,"[1, 2, 3, 4, 5, 6, 7, 8, 9, 10, 11, 12, 13, 14, 15, 16, 17, 18, 19, 20, 21, 22, 23, 24, 25, 26, 27, 28, 29]",300,145,-1,13,126,7,0.0
undo,41,44,0,0,0,19,"[0, 19]",2,7,"[3, 6, 11, 14, 16, 17, 24]",156.8741812,1674,1529,1,7,5,1.0
undo,41,44,0,0,1,3,"[0, 19, 3]",3,0,[],60.69726092,3834,2160,1,0,3,2.302158834954619
undo,41,44,1,0,0,19,"[0, 19]",2,7,"[3, 6, 11, 14, 16, 17, 24]",156.8741812,5720,1886,1,7,5,1.0
undo,41,44,0,0,0,11,"[0, 19, 11]",3,2,"[14, 24]",53.27398818,9410,3690,2,0,4,1.6758895933680984
undo,41,44,0,1,0,11,"[0, 19, 11]",3,2,"[14, 24]",53.27398818,10563,1153,2,0,4,1.6758895933680984
undo,42,24,0,0,0,0,[0],1,29,"[1, 2, 3, 4, 5, 6, 7, 8, 9, 10, 11, 12, 13, 14, 15, 16, 17, 18, 19, 20, 21, 22, 23, 24, 25, 26, 27, 28, 29]",300,160,-1,4,76,10,0.0
undo,42,24,0,0,0,8,"[0, 8]",2,25,"[1, 2, 3, 4, 6, 7, 9, 10, 11, 13, 14, 15, 16, 17, 19, 20, 21, 22, 23, 24, 25, 26, 27, 28, 29]",189.8864223,1405,1245,3,32,9,1.0
undo,42,24,0,0,0,22,"[0, 8, 22]",3,22,"[2, 3, 4, 6, 9, 10, 11, 13, 14, 15, 16, 17, 19, 20, 21, 23, 24, 25, 26, 27, 28, 29]",176.4700144,2423,1018,2,18,9,1.1722307492646213
undo,42,24,0,0,0,16,"[0, 8, 22, 16]",4,17,"[2, 3, 4, 6, 9, 10, 11, 14, 15, 17, 19, 23, 24, 26, 27, 28, 29]",158.442258,3432,1009,2,10,9,1.579114649471195
undo,42,24,0,0,0,15,"[0, 8, 22, 16, 15]",5,13,"[3, 4, 6, 9, 10, 11, 14, 23, 24, 26, 27, 28, 29]",128.0284454,5114,1682,2,8,9,1.4376460498882528
undo,42,24,0,1,0,15,"[0, 8, 22, 16, 15]",5,13,"[3, 4, 6, 9, 10, 11, 14, 23, 24, 26, 27, 28, 29]",128.0284454,5535,421,2,8,9,1.4376460498882528
undo,43,28,0,0,0,0,[0],1,27,"[1, 2, 3, 4, 5, 6, 7, 8, 9, 10, 11, 12, 13, 14, 15, 16, 17, 18, 19, 20, 22, 23, 25, 26, 27, 28, 29]",300,145,-1,2,96,9,0.0
undo,43,28,0,0,0,5,"[0, 5]",2,21,"[2, 3, 4, 6, 7, 8, 9, 10, 11, 12, 13, 14, 15, 18, 19, 20, 23, 25, 26, 28, 29]",169.6427984,2114,1969,4,42,8,1.0
undo,43,28,0,0,0,26,"[0, 5, 26]",3,15,"[2, 3, 4, 7, 8, 9, 12, 13, 14, 15, 18, 19, 20, 25, 28]",136.8861197,3883,1769,4,35,8,1.0149913611821164
undo,43,28,0,0,0,2,"[0, 5, 26, 2]",4,10,"[4, 7, 8, 9, 12, 13, 18, 19, 25, 28]",96.52524758,5720,1837,1,8,8,1.0140203645386032
undo,43,28,0,1,0,2,"[0, 5, 26, 2]",4,10,"[4, 7, 8, 9, 12, 13, 18, 19, 25, 28]",96.52524758,6071,351,1,8,8,1.0140203645386032
undo,44,35,0,0,0,0,[0],1,29,"[1, 2, 3, 4, 5, 6, 7, 8, 9, 10, 11, 12, 13, 14, 15, 16, 17, 18, 19, 20, 21, 22, 23, 24, 25, 26, 27, 28, 29]",300,129,-1,5,236,11,0.0
undo,44,35,0,0,0,26,"[0, 26]",2,26,"[1, 2, 3, 4, 5, 6, 7, 8, 9, 10, 11, 12, 14, 15, 16, 17, 18, 19, 20, 22, 23, 24, 25, 27, 28, 29]",192.3849453,1843,1714,7,53,7,1.0
undo,44,35,0,0,0,5,"[0, 26, 5]",3,11,"[1, 4, 6, 9, 15, 17, 18, 23, 24, 25, 29]",117.7525127,3150,1307,3,9,7,1.6328820579875685
undo,44,35,0,0,0,15,"[0, 26, 5, 15]",4,4,"[1, 17, 23, 24]",61.4320013,4335,1185,3,3,7,4.292430115650272
undo,44,35,0,1,0,15,"[0, 26, 5, 15]",4,4,"[1, 17, 23, 24]",61.4320013,4736,401,3,3,7,4.292430115650272
undo,45,34,0,0,0,0,[0],1,25,"[1, 3, 4, 5, 6, 7, 8, 9, 10, 11, 12, 13, 15, 18, 19, 20, 21, 22, 23, 24, 25, 26, 27, 28, 29]",300,145,-1,12,367,10,0.0
undo,45,34,0,0,0,27,"[0, 27]",2,24,"[1, 3, 4, 5, 6, 7, 8, 9, 10, 11, 12, 13, 15, 18, 19, 20, 21, 22, 23, 24, 25, 26, 28, 29]",240.9661114,1743,1598,31,159,9,1.0
undo,45,34,0,0,0,23,"[0, 27, 23]",3,22,"[1, 3, 4, 5, 6, 7, 8, 9, 10, 11, 12, 13, 15, 18, 19, 21, 22, 24, 25, 26, 28, 29]",187.30048,2511,768,30,73,9,1.187627397332641
undo,45,34,0,0,0,7,"[0, 27, 23, 7]",4,19,"[1, 3, 4, 5, 8, 9, 10, 11, 12, 13, 15, 18, 19, 22, 24, 25, 26, 28, 29]",159.1402243,3330,819,21,30,9,1.241549321618879
undo,45,34,0,0,0,12,"[0, 27, 23, 7, 12]",5,15,"[1, 3, 4, 5, 8, 9, 10, 11, 13, 19, 22, 24, 25, 28, 29]",144.1069279,4101,771,21,4,9,1.2667118673000326
undo,45,34,0,0,0,22,"[0, 27, 23, 7, 12, 22]",6,4,"[9, 10, 24, 25]",81.71301795,5967,1866,4,0,7,1.2843744293071333
undo,45,34,0,1,0,22,"[0, 27, 23, 7, 12, 22]",6,4,"[9, 10, 24, 25]",81.71301795,6473,506,4,0,7,1.2843744293071333
undo,46,38,0,0,0,0,[0],1,29,"[1, 2, 3, 4, 5, 6, 7, 8, 9, 10, 11, 12, 13, 14, 15, 16, 17, 18, 19, 20, 21, 22, 23, 24, 25, 26, 27, 28, 29]",300,145,-1,33,506,9,0.0
undo,46,38,0,0,0,5,"[0, 5]",2,28,"[1, 2, 3, 4, 6, 7, 8, 9, 10, 11, 12, 13, 14, 15, 16, 17, 18, 19, 20, 21, 22, 23, 24, 25, 26, 27, 28, 29]",257.5618097,3317,3172,17,232,8,1.0
undo,46,38,0,0,0,11,"[0, 5, 11]",3,15,"[1, 4, 7, 10, 12, 13, 14, 15, 16, 17, 19, 20, 24, 26, 28]",173.8838556,4669,1352,10,77,8,1.5783024632052294
undo,46,38,0,0,0,15,"[0, 5, 11, 15]",4,12,"[4, 10, 12, 13, 14, 16, 17, 19, 20, 24, 26, 28]",137.4833061,5581,912,4,29,8,2.214855783888066
undo,46,38,0,0,0,4,"[0, 5, 11, 15, 4]",5,8,"[13, 16, 17, 19, 20, 24, 26, 28]",111.4833061,6723,1142,4,12,8,2.6887094750019904
undo,46,38,0,1,0,4,"[0, 5, 11, 15, 4]",5,8,"[13, 16, 17, 19, 20, 24, 26, 28]",111.4833061,7124,401,4,12,8,2.6887094750019904
undo,47,21,0,0,0,0,[0],1,29,"[1, 2, 3, 4, 5, 6, 7, 8, 9, 10, 11, 12, 13, 14, 15, 16, 17, 18, 19, 20, 21, 22, 23, 24, 25, 26, 27, 28, 29]",300,145,-1,84,830,9,0.0
undo,47,21,0,0,0,18,"[0, 18]",2,28,"[1, 2, 3, 4, 5, 6, 7, 8, 9, 10, 11, 12, 13, 14, 15, 16, 17, 19, 20, 21, 22, 23, 24, 25, 26, 27, 28, 29]",240.923778,2081,1936,44,305,9,1.0
undo,47,21,0,0,0,29,"[0, 18, 29]",3,24,"[1, 2, 3, 4, 6, 7, 8, 9, 10, 11, 12, 13, 14, 15, 16, 17, 20, 21, 22, 23, 24, 25, 26, 27]",212.2706805,4245,2164,11,87,9,1.035555280387994
undo,47,21,0,0,0,25,"[0, 18, 29, 25]",4,18,"[1, 4, 6, 8, 9, 10, 11, 12, 14, 15, 16, 17, 20, 21, 22, 23, 24, 26]",167.0490043,5553,1308,6,45,9,2.2226517719335437
undo,47,21,0,0,0,23,"[0, 18, 29, 25, 23]",5,10,"[4, 8, 14, 15, 16, 17, 20, 21, 22, 24]",123.7246462,6437,884,3,20,9,1.7801958981326236
undo,47,21,0,1,0,23,"[0, 18, 29, 25, 23]",5,10,"[4, 8, 14, 15, 16, 17, 20, 21, 22, 24]",123.7246462,6855,418,3,20,9,1.7801958981326236
undo,48,37,0,0,0,0,[0],1,29,"[1, 2, 3, 4, 5, 6, 7, 8, 9, 10, 11, 12, 13, 14, 15, 16, 17, 18, 19, 20, 21, 22, 23, 24, 25, 26, 27, 28, 29]",300,145,-1,6,168,10,0.0
undo,48,37,0,0,0,28,"[0, 28]",2,28,"[1, 2, 3, 4, 5, 6, 7, 8, 9, 10, 11, 12, 13, 14, 15, 16, 17, 18, 19, 20, 21, 22, 23, 24, 25, 26, 27, 29]",229.1692157,1891,1746,18,114,7,1.0
undo,48,37,0,0,0,5,"[0, 28, 5]",3,11,"[3, 6, 8, 9, 10, 11, 17, 23, 24, 27, 29]",172.8487044,2760,869,8,11,7,1.0337503707317073
undo,48,37,0,0,0,6,"[0, 28, 5, 6]",4,4,"[3, 10, 17, 29]",109.9122285,4735,1975,2,3,7,2.1225943071504876
undo,48,37,0,0,0,10,"[0, 28, 5, 6, 10]",5,3,"[3, 17, 29]",95.5944074,5920,1185,1,2,7,2.051764523787701
undo,48,37,0,0,0,17,"[0, 28, 5, 6, 10, 17]",6,1,[29],81.03418762,7566,1646,1,0,7,2.3986982697045423
undo,48,37,0,0,1,29,"[0, 28, 5, 6, 10, 17, 29]",7,0,[],27.573922,8825,1259,1,0,7,2.1002507170007667
undo,48,37,1,0,0,17,"[0, 28, 5, 6, 10, 17]",6,1,[29],81.03418762,10328,1503,1,0,7,2.3986982697045423
undo,48,37,0,1,0,17,"[0, 28, 5, 6, 10, 17]",6,1,[29],81.03418762,11531,1203,1,0,7,2.3986982697045423
undo,49,42,0,0,0,0,[0],1,29,"[1, 2, 3, 4, 5, 6, 7, 8, 9, 10, 11, 12, 13, 14, 15, 16, 17, 18, 19, 20, 21, 22, 23, 24, 25, 26, 27, 28, 29]",300,146,-1,16,302,9,0.0
undo,49,42,0,0,0,4,"[0, 4]",2,28,"[1, 2, 3, 5, 6, 7, 8, 9, 10, 11, 12, 13, 14, 15, 16, 17, 18, 19, 20, 21, 22, 23, 24, 25, 26, 27, 28, 29]",209.5290102,1181,1035,4,80,9,1.0
undo,49,42,0,0,0,22,"[0, 4, 22]",3,24,"[1, 2, 3, 5, 6, 7, 8, 9, 10, 11, 13, 15, 17, 18, 19, 20, 21, 23, 24, 25, 26, 27, 28, 29]",198.3486703,2783,1602,3,53,9,1.1473032812120834
undo,49,42,0,0,0,5,"[0, 4, 22, 5]",4,20,"[1, 2, 3, 7, 8, 9, 10, 11, 13, 15, 18, 19, 20, 21, 23, 24, 25, 26, 27, 29]",170.1174819,3935,1152,1,14,9,1.1948051397585588
undo,49,42,0,0,0,8,"[0, 4, 22, 5, 8]",5,13,"[1, 2, 3, 7, 11, 15, 18, 19, 24, 25, 26, 27, 29]",135.6356026,5750,1815,1,10,9,1.5287231236031107
undo,49,42,0,1,0,8,"[0, 4, 22, 5, 8]",5,13,"[1, 2, 3, 7, 11, 15, 18, 19, 24, 25, 26, 27, 29]",135.6356026,6172,422,1,10,9,1.5287231236031107
undo,50,20,0,0,0,0,[0],1,21,"[1, 2, 3, 4, 5, 6, 7, 8, 9, 12, 17, 18, 20, 21, 22, 23, 25, 26, 27, 28, 29]",300,128,-1,1,9,9,0.0
undo,50,20,0,0,0,12,"[0, 12]",2,20,"[1, 2, 3, 4, 5, 6, 7, 8, 9, 17, 18, 20, 21, 22, 23, 25, 26, 27, 28, 29]",271.5570747,2843,2715,1,8,9,1.0
undo,50,20,0,0,0,29,"[0, 12, 29]",3,13,"[1, 3, 4, 5, 7, 8, 17, 18, 20, 21, 25, 27, 28]",218.4722369,4078,1235,13,25,6,1.5064191946670615
undo,50,20,0,0,0,4,"[0, 12, 29, 4]",4,6,"[1, 3, 5, 20, 21, 28]",110.2040514,6104,2026,6,0,5,1.5024890486007698
undo,50,20,0,0,1,20,"[0, 12, 29, 4, 20]",5,0,[],74.19016518,7217,1113,1,0,5,1.3921913673444235
undo,50,20,1,0,0,4,"[0, 12, 29, 4]",4,6,"[1, 3, 5, 20, 21, 28]",110.2040514,8642,1425,6,0,5,1.5024890486007698
undo,50,20,0,1,0,4,"[0, 12, 29, 4]",4,6,"[1, 3, 5, 20, 21, 28]",110.2040514,9477,835,6,0,5,1.5024890486007698
undo,51,8,0,0,0,0,[0],1,29,"[1, 2, 3, 4, 5, 6, 7, 8, 9, 10, 11, 12, 13, 14, 15, 16, 17, 18, 19, 20, 21, 22, 23, 24, 25, 26, 27, 28, 29]",300,145,-1,10,149,9,0.0
undo,51,8,0,0,0,5,"[0, 5]",2,28,"[1, 2, 3, 4, 6, 7, 8, 9, 10, 11, 12, 13, 14, 15, 16, 17, 18, 19, 20, 21, 22, 23, 24, 25, 26, 27, 28, 29]",254.5137383,1239,1094,10,100,9,1.0
undo,51,8,0,0,0,25,"[0, 5, 25]",3,20,"[1, 2, 3, 4, 6, 11, 12, 14, 15, 16, 17, 18, 19, 20, 21, 22, 23, 24, 28, 29]",215.3091468,2542,1303,4,42,9,1.2272747879909065
undo,51,8,0,0,0,1,"[0, 5, 25, 1]",4,17,"[3, 4, 6, 11, 12, 14, 15, 16, 17, 18, 20, 21, 22, 23, 24, 28, 29]",190.3091468,3326,784,3,24,9,1.1770245007593956
undo,51,8,0,0,0,23,"[0, 5, 25, 1, 23]",5,15,"[3, 4, 6, 11, 14, 15, 16, 17, 18, 20, 21, 22, 24, 28, 29]",167.2874179,3960,634,1,14,9,1.141996583852372
undo,51,8,0,0,0,18,"[0, 5, 25, 1, 23, 18]",6,9,"[3, 4, 11, 14, 15, 16, 17, 24, 28]",125.5261919,5336,1376,1,7,9,1.3199166330970717
undo,51,8,0,0,0,4,"[0, 5, 25, 1, 23, 18, 4]",7,1,[3],82.51456553,6815,1479,1,0,8,1.3326623611480932
undo,51,8,0,1,0,4,"[0, 5, 25, 1, 23, 18, 4]",7,1,[3],82.51456553,7423,608,1,0,8,1.3326623611480932
undo,52,2,0,0,0,0,[0],1,23,"[1, 2, 4, 5, 6, 7, 8, 9, 12, 13, 15, 16, 17, 18, 19, 20, 22, 23, 25, 26, 27, 28, 29]",300,162,-1,70,620,10,0.0
undo,52,2,0,0,0,19,"[0, 19]",2,22,"[1, 2, 4, 5, 6, 7, 8, 9, 12, 13, 15, 16, 17, 18, 20, 22, 23, 25, 26, 27, 28, 29]",210.306076,3183,3021,67,431,10,1.0
undo,52,2,0,0,0,12,"[0, 19, 12]",3,17,"[1, 4, 5, 6, 7, 13, 15, 16, 17, 18, 20, 22, 25, 26, 27, 28, 29]",174.2921898,3813,630,66,298,10,1.1107635036313153
undo,52,2,0,0,0,5,"[0, 19, 12, 5]",4,11,"[1, 6, 7, 13, 15, 16, 18, 22, 25, 26, 29]",144.7625437,4747,934,38,136,10,1.0968174771581647
undo,52,2,0,0,0,22,"[0, 19, 12, 5, 22]",5,8,"[1, 6, 7, 13, 15, 18, 26, 29]",131.9562952,5319,572,20,63,10,1.0889910507461968
undo,52,2,0,0,0,13,"[0, 19, 12, 5, 22, 13]",6,7,"[1, 6, 7, 15, 18, 26, 29]",117.0902265,6537,1218,19,20,10,1.236526217328057
undo,52,2,0,1,0,13,"[0, 19, 12, 5, 22, 13]",6,7,"[1, 6, 7, 15, 18, 26, 29]",117.0902265,6940,403,19,20,10,1.236526217328057
undo,53,6,0,0,0,0,[0],1,29,"[1, 2, 3, 4, 5, 6, 7, 8, 9, 10, 11, 12, 13, 14, 15, 16, 17, 18, 19, 20, 21, 22, 23, 24, 25, 26, 27, 28, 29]",300,161,-1,180,4304,10,0.0
undo,53,6,0,0,0,13,"[0, 13]",2,27,"[1, 2, 3, 4, 5, 6, 7, 8, 9, 10, 11, 12, 14, 15, 16, 17, 18, 19, 20, 21, 22, 23, 24, 25, 26, 27, 29]",266.8941093,1647,1486,12,596,10,1.0
undo,53,6,0,0,0,1,"[0, 13, 1]",3,22,"[2, 3, 6, 7, 8, 9, 10, 12, 14, 15, 16, 17, 18, 19, 20, 21, 22, 23, 24, 26, 27, 29]",249.8647229,2476,829,6,264,10,1.016209224176938
undo,53,6,0,0,0,21,"[0, 13, 1, 21]",4,9,"[12, 14, 15, 16, 18, 19, 20, 22, 29]",127.8606246,3783,1307,7,5,6,1.2850158706636507
undo,53,6,0,0,0,20,"[0, 13, 1, 21, 20]",5,4,"[14, 15, 19, 29]",109.612337,4363,580,4,0,6,1.2561986008580133
undo,53,6,0,1,0,20,"[0, 13, 1, 21, 20]",5,4,"[14, 15, 19, 29]",109.612337,4844,481,4,0,6,1.2561986008580133
undo,54,43,0,0,0,0,[0],1,23,"[1, 2, 3, 4, 5, 6, 7, 9, 10, 11, 12, 14, 15, 16, 17, 19, 20, 21, 22, 23, 25, 27, 29]",300,146,-1,16,556,12,0.0
undo,54,43,0,0,0,29,"[0, 29]",2,22,"[1, 2, 3, 4, 5, 6, 7, 9, 10, 11, 12, 14, 15, 16, 17, 19, 20, 21, 22, 23, 25, 27]",277.909278,3232,3086,16,520,12,1.0
undo,54,43,0,0,0,20,"[0, 29, 20]",3,20,"[1, 2, 3, 4, 6, 7, 9, 10, 11, 12, 14, 15, 16, 17, 19, 21, 22, 23, 25, 27]",254.4785289,4318,1086,15,422,12,1.082311746871282
undo,54,43,0,0,0,16,"[0, 29, 20, 16]",4,19,"[1, 2, 3, 4, 6, 7, 9, 10, 11, 12, 14, 15, 17, 19, 21, 22, 23, 25, 27]",231.8511119,5098,780,15,389,12,1.215201926898219
undo,54,43,0,0,0,11,"[0, 29, 20, 16, 11]",5,17,"[1, 2, 3, 4, 6, 7, 9, 10, 12, 14, 15, 17, 19, 21, 22, 23, 25]",196.7227758,5721,623,12,188,12,1.1349145516483516
undo,54,43,0,0,0,6,"[0, 29, 20, 16, 11, 6]",6,15,"[1, 2, 3, 4, 7, 10, 12, 14, 15, 17, 19, 21, 22, 23, 25]",176.1072477,6406,685,10,100,12,1.123330873754209
undo,54,43,0,0,0,14,"[0, 29, 20, 16, 11, 6, 14]",7,13,"[1, 2, 3, 4, 7, 10, 12, 15, 17, 19, 21, 22, 25]",147.6467487,7467,1061,2,29,11,1.2282559104994817
undo,54,43,0,0,1,2,"[0, 29, 20, 16, 11, 6, 14, 2]",8,0,[],86.57302279,8708,1241,1,0,8,1.4174390622189017
undo,54,43,1,0,0,14,"[0, 29, 20, 16, 11, 6, 14]",7,13,"[1, 2, 3, 4, 7, 10, 12, 15, 17, 19, 21, 22, 25]",147.6467487,10545,1837,2,29,11,1.2282559104994817
undo,54,43,0,0,0,1,"[0, 29, 20, 16, 11, 6, 14, 1]",8,7,"[3, 4, 7, 12, 15, 19, 22]",79.97105147,12877,2332,1,9,11,1.5284948813197583
undo,54,43,0,1,0,1,"[0, 29, 20, 16, 11, 6, 14, 1]",8,7,"[3, 4, 7, 12, 15, 19, 22]",79.97105147,14369,1492,1,9,11,1.5284948813197583
undo,55,4,0,0,0,0,[0],1,26,"[3, 4, 5, 6, 7, 8, 10, 11, 12, 13, 14, 15, 16, 17, 18, 19, 20, 21, 22, 23, 24, 25, 26, 27, 28, 29]",300,144,-1,4,489,10,0.0
undo,55,4,0,0,0,13,"[0, 13]",2,23,"[3, 4, 5, 6, 7, 10, 11, 12, 14, 15, 16, 17, 19, 20, 21, 22, 23, 24, 25, 26, 27, 28, 29]",232.1030192,1796,1652,2,270,10,1.0
undo,55,4,0,0,0,4,"[0, 13, 4]",3,21,"[3, 5, 6, 10, 11, 12, 14, 15, 16, 17, 19, 20, 21, 22, 23, 24, 25, 26, 27, 28, 29]",196.0336416,2747,951,5,140,9,1.1054622425974667
undo,55,4,0,0,0,21,"[0, 13, 4, 21]",4,12,"[3, 5, 11, 12, 14, 16, 17, 20, 22, 24, 25, 28]",122.3722542,4094,1347,3,41,9,1.2018071400314605
undo,55,4,0,0,0,22,"[0, 13, 4, 21, 22]",5,11,"[3, 5, 11, 12, 14, 16, 17, 20, 24, 25, 28]",111.3268932,5719,1625,3,24,9,1.189166080366007
undo,55,4,0,0,0,20,"[0, 13, 4, 21, 22, 20]",6,7,"[3, 5, 11, 16, 17, 24, 25]",81.09446024,7298,1579,5,4,8,1.1979951122629293
undo,55,4,0,1,0,20,"[0, 13, 4, 21, 22, 20]",6,7,"[3, 5, 11, 16, 17, 24, 25]",81.09446024,7973,675,5,4,8,1.1979951122629293
undo,56,39,0,0,0,0,[0],1,28,"[1, 2, 3, 4, 5, 6, 7, 9, 10, 11, 12, 13, 14, 15, 16, 17, 18, 19, 20, 21, 22, 23, 24, 25, 26, 27, 28, 29]",300,146,-1,1,30,10,0.0
undo,56,39,0,0,0,14,"[0, 14]",2,26,"[1, 2, 3, 4, 5, 6, 7, 9, 10, 12, 13, 15, 16, 17, 18, 19, 20, 21, 22, 23, 24, 25, 26, 27, 28, 29]",286.9615952,2442,2296,1,22,10,1.0
undo,56,39,0,0,0,29,"[0, 14, 29]",3,23,"[1, 2, 3, 4, 5, 6, 7, 9, 10, 12, 13, 15, 16, 17, 18, 19, 21, 22, 23, 24, 25, 26, 28]",218.9321898,3862,1420,1,21,10,1.4237768813412561
undo,56,39,0,0,0,23,"[0, 14, 29, 23]",4,6,"[1, 4, 7, 10, 12, 15]",158.7990043,4965,1103,7,3,6,2.2996782837314784
undo,56,39,0,0,0,15,"[0, 14, 29, 23, 15]",5,2,"[1, 12]",84.0661467,6116,1151,2,0,6,1.7017443200685014
undo,56,39,0,1,0,15,"[0, 14, 29, 23, 15]",5,2,"[1, 12]",84.0661467,6539,423,2,0,6,1.7017443200685014
undo,57,29,0,0,0,0,[0],1,29,"[1, 2, 3, 4, 5, 6, 7, 8, 9, 10, 11, 12, 13, 14, 15, 16, 17, 18, 19, 20, 21, 22, 23, 24, 25, 26, 27, 28, 29]",300,144,-1,1,78,9,0.0
undo,57,29,0,0,0,10,"[0, 10]",2,22,"[1, 2, 3, 5, 6, 7, 11, 12, 13, 14, 15, 16, 17, 18, 19, 20, 22, 25, 26, 27, 28, 29]",235.3393474,2780,2636,10,62,6,1.0
undo,57,29,0,0,0,25,"[0, 10, 25]",3,4,"[1, 13, 14, 17]",111.6906514,4246,1466,2,4,6,2.4565804284248465
undo,57,29,0,1,0,25,"[0, 10, 25]",3,4,"[1, 13, 14, 17]",111.6906514,4585,339,2,4,6,2.4565804284248465
undo,58,32,0,0,0,0,[0],1,29,"[1, 2, 3, 4, 5, 6, 7, 8, 9, 10, 11, 12, 13, 14, 15, 16, 17, 18, 19, 20, 21, 22, 23, 24, 25, 26, 27, 28, 29]",300,144,-1,17,359,10,0.0
undo,58,32,0,0,0,19,"[0, 19]",2,28,"[1, 2, 3, 4, 5, 6, 7, 8, 9, 10, 11, 12, 13, 14, 15, 16, 17, 18, 20, 21, 22, 23, 24, 25, 26, 27, 28, 29]",283.5075775,1662,1518,16,294,10,1.0
undo,58,32,0,0,0,13,"[0, 19, 13]",3,24,"[2, 3, 4, 5, 6, 8, 9, 10, 11, 12, 14, 15, 16, 17, 18, 20, 21, 22, 23, 24, 25, 26, 27, 28]",260.3127505,2398,736,14,227,10,1.0172874229878615
undo,58,32,0,0,0,15,"[0, 19, 13, 15]",4,18,"[2, 3, 5, 8, 9, 10, 11, 12, 16, 17, 20, 22, 23, 24, 25, 26, 27, 28]",177.4393531,3800,1402,9,116,10,1.435447391509833
undo,58,32,0,0,0,28,"[0, 19, 13, 15, 28]",5,17,"[2, 3, 5, 8, 9, 10, 11, 12, 16, 17, 20, 22, 23, 24, 25, 26, 27]",166.0375988,5085,1285,9,70,10,1.3843701324937985
undo,58,32,0,0,0,12,"[0, 19, 13, 15, 28, 12]",6,14,"[2, 3, 5, 8, 9, 10, 11, 16, 17, 20, 22, 24, 26, 27]",147.0639329,5847,762,6,35,10,1.358372254952329
undo,58,32,0,0,0,16,"[0, 19, 13, 15, 28, 12, 16]",7,13,"[2, 3, 5, 8, 9, 10, 11, 17, 20, 22, 24, 26, 27]",131.411457,6465,618,5,15,10,1.4356932930709845
undo,58,32,0,1,0,16,"[0, 19, 13, 15, 28, 12, 16]",7,13,"[2, 3, 5, 8, 9, 10, 11, 17, 20, 22, 24, 26, 27]",131.411457,6804,339,5,15,10,1.4356932930709845
undo,59,30,0,0,0,0,[0],1,19,"[3, 4, 5, 7, 9, 11, 16, 17, 18, 19, 20, 21, 22, 24, 25, 26, 27, 28, 29]",300,145,-1,5,41,8,0.0
undo,59,30,0,0,0,16,"[0, 16]",2,17,"[3, 5, 7, 9, 11, 17, 18, 19, 20, 21, 22, 24, 25, 26, 27, 28, 29]",219.3774225,3366,3221,5,34,8,1.0
undo,59,30,0,0,0,26,"[0, 16, 26]",3,8,"[9, 11, 17, 20, 22, 25, 27, 28]",176.927452,4829,1463,7,3,5,1.3420329969668985
undo,59,30,0,0,1,9,"[0, 16, 26, 9]",4,0,[],47.06213712,6800,1971,1,0,4,1.2457575061702593
undo,59,30,1,0,0,26,"[0, 16, 26]",3,8,"[9, 11, 17, 20, 22, 25, 27, 28]",176.927452,9109,2309,7,3,5,1.3420329969668985
undo,59,30,0,0,0,11,"[0, 16, 26, 11]",4,2,"[9, 22]",85.70793651,13048,3939,2,0,5,1.2025792475959363
undo,59,30,0,1,0,11,"[0, 16, 26, 11]",4,2,"[9, 22]",85.70793651,13717,669,2,0,5,1.2025792475959363
undo,60,31,0,0,0,0,[0],1,27,"[1, 3, 4, 5, 6, 7, 8, 10, 11, 12, 13, 14, 15, 16, 17, 18, 19, 20, 21, 22, 23, 24, 25, 26, 27, 28, 29]",300,145,-1,2,87,10,0.0
undo,60,31,0,0,0,14,"[0, 14]",2,25,"[1, 3, 5, 6, 7, 8, 10, 11, 12, 13, 15, 16, 17, 18, 19, 20, 21, 22, 23, 24, 25, 26, 27, 28, 29]",263.861378,2245,2100,2,59,10,1.0
undo,60,31,0,0,0,27,"[0, 14, 27]",3,22,"[1, 3, 5, 6, 7, 8, 10, 11, 12, 13, 15, 16, 17, 18, 19, 20, 21, 22, 24, 25, 28, 29]",235.6833724,2909,664,1,39,10,1.5881859159302467
undo,60,31,0,0,0,8,"[0, 14, 27, 8]",4,20,"[1, 3, 5, 6, 7, 10, 11, 12, 13, 16, 17, 18, 19, 20, 21, 22, 24, 25, 28, 29]",224.6380114,3615,706,1,36,10,2.1665048452331277
undo,60,31,0,0,0,18,"[0, 14, 27, 8, 18]",5,15,"[1, 5, 6, 7, 11, 12, 13, 16, 17, 19, 20, 22, 25, 28, 29]",188.7911147,6181,2566,1,26,10,1.7273375741920205
undo,60,31,0,0,0,11,"[0, 14, 27, 8, 18, 11]",6,11,"[1, 5, 7, 12, 16, 17, 19, 20, 22, 25, 28]",153.9055876,8190,2009,13,17,9,2.386348208737804
undo,60,31,0,0,0,17,"[0, 14, 27, 8, 18, 11, 17]",7,7,"[1, 5, 12, 20, 22, 25, 28]",112.7959781,9236,1046,7,3,9,2.0680793354233384
undo,60,31,0,1,0,17,"[0, 14, 27, 8, 18, 11, 17]",7,7,"[1, 5, 12, 20, 22, 25, 28]",112.7959781,9643,407,7,3,9,2.0680793354233384
undo,61,25,0,0,0,0,[0],1,28,"[1, 2, 3, 4, 5, 7, 8, 9, 10, 11, 12, 13, 14, 15, 16, 17, 18, 19, 20, 21, 22, 23, 24, 25, 26, 27, 28, 29]",300,177,-1,5,94,10,0.0
undo,61,25,0,0,0,23,"[0, 23]",2,23,"[1, 2, 3, 5, 7, 8, 9, 11, 12, 13, 14, 16, 17, 19, 20, 21, 22, 24, 25, 26, 27, 28, 29]",259.7756293,4233,4056,3,33,10,1.0
undo,61,25,0,0,0,19,"[0, 23, 19]",3,21,"[1, 2, 3, 5, 7, 8, 9, 11, 12, 13, 14, 16, 17, 20, 21, 22, 24, 25, 27, 28, 29]",223.9287326,6053,1820,3,24,10,1.583101227007039
undo,61,25,0,0,0,29,"[0, 23, 19, 29]",4,19,"[1, 2, 3, 5, 7, 8, 9, 11, 12, 13, 14, 16, 17, 20, 21, 22, 24, 25, 28]",207.649912,7267,1214,3,17,10,1.474631541426484
undo,61,25,0,0,0,22,"[0, 23, 19, 29, 22]",5,18,"[1, 2, 3, 5, 7, 8, 9, 11, 12, 13, 14, 16, 17, 20, 21, 24, 25, 28]",191.5253965,8007,740,3,14,10,1.4020377754906637
undo,61,25,0,0,0,7,"[0, 23, 19, 29, 22, 7]",6,7,"[3, 8, 9, 11, 13, 24, 28]",115.8814939,9303,1296,3,11,10,1.5709678649326715
undo,61,25,0,1,0,7,"[0, 23, 19, 29, 22, 7]",6,7,"[3, 8, 9, 11, 13, 24, 28]",115.8814939,9927,624,3,11,10,1.5709678649326715
undo,62,18,0,0,0,0,[0],1,28,"[1, 2, 3, 4, 5, 6, 7, 8, 9, 10, 11, 12, 13, 14, 16, 17, 18, 19, 20, 21, 22, 23, 24, 25, 26, 27, 28, 29]",300,144,-1,3,136,10,0.0
undo,62,18,0,0,0,26,"[0, 26]",2,27,"[1, 2, 3, 4, 5, 6, 7, 8, 9, 10, 11, 12, 13, 14, 16, 17, 18, 19, 20, 21, 22, 23, 24, 25, 27, 28, 29]",258.0238163,2012,1868,1,61,10,1.0
undo,62,18,0,0,0,23,"[0, 26, 23]",3,24,"[1, 2, 3, 4, 5, 6, 7, 8, 9, 10, 12, 13, 14, 16, 17, 18, 19, 20, 21, 24, 25, 27, 28, 29]",239.422741,3933,1921,1,60,10,1.576763070488403
undo,62,18,0,0,0,25,"[0, 26, 23, 25]",4,12,"[1, 3, 5, 7, 8, 9, 12, 13, 14, 16, 27, 28]",177.1571807,5369,1436,1,20,10,2.047096022516276
undo,62,18,0,0,0,7,"[0, 26, 23, 25, 7]",5,10,"[1, 3, 5, 8, 9, 12, 13, 14, 16, 28]",149.3543032,7031,1662,7,21,9,2.524827614782857
undo,62,18,0,0,0,28,"[0, 26, 23, 25, 7, 28]",6,5,"[1, 3, 8, 13, 14]",127.3315876,7669,638,1,4,9,2.7162420654032275
undo,62,18,0,1,0,28,"[0, 26, 23, 25, 7, 28]",6,5,"[1, 3, 8, 13, 14]",127.3315876,8206,537,1,4,9,2.7162420654032275
undo,63,7,0,0,0,0,[0],1,29,"[1, 2, 3, 4, 5, 6, 7, 8, 9, 10, 11, 12, 13, 14, 15, 16, 17, 18, 19, 20, 21, 22, 23, 24, 25, 26, 27, 28, 29]",300,144,-1,3,79,9,0.0
undo,63,7,0,0,0,15,"[0, 15]",2,19,"[2, 4, 5, 6, 7, 8, 9, 10, 13, 14, 16, 18, 19, 20, 21, 23, 25, 27, 28]",230.9348134,3433,3289,2,38,9,1.0
undo,63,7,0,0,0,6,"[0, 15, 6]",3,18,"[2, 4, 5, 7, 8, 9, 10, 13, 14, 16, 18, 19, 20, 21, 23, 25, 27, 28]",205.854941,4368,935,2,36,9,1.366719602896943
undo,63,7,0,0,0,23,"[0, 15, 6, 23]",4,7,"[5, 10, 14, 16, 25, 27, 28]",118.1737001,5730,1362,7,0,5,3.9296002018693796
undo,63,7,0,0,1,27,"[0, 15, 6, 23, 27]",5,0,[],56.77337439,7083,1353,1,0,5,3.9681722633255094
undo,63,7,1,0,0,23,"[0, 15, 6, 23]",4,7,"[5, 10, 14, 16, 25, 27, 28]",118.1737001,8441,1358,7,0,5,3.9296002018693796
undo,63,7,0,1,0,23,"[0, 15, 6, 23]",4,7,"[5, 10, 14, 16, 25, 27, 28]",118.1737001,9059,618,7,0,5,3.9296002018693796
undo,64,11,0,0,0,0,[0],1,25,"[1, 2, 3, 4, 5, 6, 8, 9, 10, 11, 12, 13, 14, 15, 16, 17, 18, 19, 20, 22, 23, 25, 26, 27, 28]",300,144,-1,6,374,12,0.0
undo,64,11,0,0,0,8,"[0, 8]",2,19,"[1, 2, 4, 5, 6, 10, 11, 12, 14, 15, 17, 18, 19, 22, 23, 25, 26, 27, 28]",154.7932508,2708,2564,181,767,9,1.0
undo,64,11,0,0,0,15,"[0, 8, 15]",3,17,"[1, 2, 4, 5, 6, 10, 11, 12, 17, 18, 19, 22, 23, 25, 26, 27, 28]",141.3396268,3461,753,53,227,9,1.011417147678194
undo,64,11,0,0,0,17,"[0, 8, 15, 17]",4,14,"[1, 2, 4, 5, 6, 11, 12, 18, 19, 22, 23, 25, 27, 28]",128.6905162,4044,583,41,57,9,1.1647509391975674
undo,64,11,0,0,0,12,"[0, 8, 15, 17, 12]",5,2,"[23, 25]",62.2074356,5898,1854,2,0,6,1.4129310775006931
undo,64,11,0,1,0,12,"[0, 8, 15, 17, 12]",5,2,"[23, 25]",62.2074356,6304,406,2,0,6,1.4129310775006931
undo,65,9,0,0,0,0,[0],1,27,"[1, 3, 4, 5, 6, 7, 8, 9, 10, 11, 13, 14, 15, 16, 17, 18, 19, 20, 21, 22, 23, 24, 25, 26, 27, 28, 29]",300,145,-1,2,182,10,0.0
undo,65,9,0,0,0,8,"[0, 8]",2,25,"[1, 3, 4, 5, 6, 7, 9, 10, 11, 13, 14, 15, 16, 17, 18, 19, 20, 21, 22, 23, 24, 25, 26, 27, 28]",236.2191251,1964,1819,2,102,9,1.0
undo,65,9,0,0,0,28,"[0, 8, 28]",3,23,"[1, 3, 4, 5, 6, 7, 9, 10, 11, 13, 15, 16, 17, 18, 19, 20, 21, 22, 23, 24, 25, 26, 27]",225.4024713,3199,1235,2,52,9,1.0043219354187498
undo,65,9,0,0,0,23,"[0, 8, 28, 23]",4,21,"[1, 3, 4, 5, 7, 9, 10, 11, 13, 15, 16, 17, 18, 19, 20, 21, 22, 24, 25, 26, 27]",200.3824793,3928,729,19,104,8,1.6731219967216804
undo,65,9,0,0,0,9,"[0, 8, 28, 23, 9]",5,19,"[1, 3, 4, 5, 7, 10, 11, 13, 15, 16, 18, 19, 20, 21, 22, 24, 25, 26, 27]",178.0217995,4579,651,12,35,8,1.6380661913087589
undo,65,9,0,0,0,26,"[0, 8, 28, 23, 9, 26]",6,9,"[3, 5, 10, 15, 16, 18, 19, 20, 21]",121.3737634,6371,1792,3,6,8,1.529011463409394
undo,65,9,0,1,0,26,"[0, 8, 28, 23, 9, 26]",6,9,"[3, 5, 10, 15, 16, 18, 19, 20, 21]",121.3737634,7256,885,3,6,8,1.529011463409394
undo,66,16,0,0,0,0,[0],1,29,"[1, 2, 3, 4, 5, 6, 7, 8, 9, 10, 11, 12, 13, 14, 15, 16, 17, 18, 19, 20, 21, 22, 23, 24, 25, 26, 27, 28, 29]",300,161,-1,13,161,9,0.0
undo,66,16,0,0,0,28,"[0, 28]",2,27,"[1, 2, 3, 4, 5, 7, 8, 9, 10, 11, 12, 13, 14, 15, 16, 17, 18, 19, 20, 21, 22, 23, 24, 25, 26, 27, 29]",284.3475242,1690,1529,11,92,9,1.0
undo,66,16,0,0,0,17,"[0, 28, 17]",3,26,"[1, 2, 3, 4, 5, 7, 8, 9, 10, 11, 12, 13, 14, 15, 16, 18, 19, 20, 21, 22, 23, 24, 25, 26, 27, 29]",219.1555001,3749,2059,10,46,9,1.3773866384707543
undo,66,16,0,0,0,16,"[0, 28, 17, 16]",4,25,"[1, 2, 3, 4, 5, 7, 8, 9, 10, 11, 12, 13, 14, 15, 18, 19, 20, 21, 22, 23, 24, 25, 26, 27, 29]",190.8358956,4535,786,10,34,9,1.3209953830681203
undo,66,16,0,0,0,21,"[0, 28, 17, 16, 21]",5,13,"[3, 5, 7, 8, 9, 10, 12, 15, 20, 22, 25, 26, 29]",146.1816685,6287,1752,4,7,9,1.8136482702070456
undo,66,16,0,0,0,8,"[0, 28, 17, 16, 21, 8]",6,6,"[5, 9, 12, 15, 20, 25]",96.92722704,7454,1167,4,2,9,1.637204572335983
undo,66,16,0,1,0,8,"[0, 28, 17, 16, 21, 8]",6,6,"[5, 9, 12, 15, 20, 25]",96.92722704,7824,370,4,2,9,1.637204572335983
undo,67,26,0,0,0,0,[0],1,29,"[1, 2, 3, 4, 5, 6, 7, 8, 9, 10, 11, 12, 13, 14, 15, 16, 17, 18, 19, 20, 21, 22, 23, 24, 25, 26, 27, 28, 29]",300,133,-1,9,226,9,0.0
undo,67,26,0,0,0,24,"[0, 24]",2,14,"[1, 2, 8, 9, 11, 12, 13, 15, 18, 20, 21, 25, 27, 28]",170.5820723,1611,1478,1,17,6,1.0
undo,67,26,0,0,0,15,"[0, 24, 15]",3,6,"[2, 8, 18, 20, 25, 27]",123.8916022,2283,672,1,6,6,1.000018827019158
undo,67,26,0,0,0,27,"[0, 24, 15, 27]",4,5,"[2, 8, 18, 20, 25]",113.1212726,2831,548,1,4,6,1.0040135757771105
undo,67,26,0,1,0,27,"[0, 24, 15, 27]",4,5,"[2, 8, 18, 20, 25]",113.1212726,3137,306,1,4,6,1.0040135757771105
undo,68,19,0,0,0,0,[0],1,29,"[1, 2, 3, 4, 5, 6, 7, 8, 9, 10, 11, 12, 13, 14, 15, 16, 17, 18, 19, 20, 21, 22, 23, 24, 25, 26, 27, 28, 29]",300,162,-1,12,149,8,0.0
undo,68,19,0,0,0,29,"[0, 29]",2,28,"[1, 2, 3, 4, 5, 6, 7, 8, 9, 10, 11, 12, 13, 14, 15, 16, 17, 18, 19, 20, 21, 22, 23, 24, 25, 26, 27, 28]",265.0715016,1680,1518,12,120,8,1.0
undo,68,19,0,0,0,9,"[0, 29, 9]",3,17,"[1, 4, 5, 6, 7, 10, 11, 12, 13, 14, 19, 20, 21, 22, 24, 27, 28]",181.7108394,3567,1887,11,65,8,1.0375842971861238
undo,68,19,0,0,0,6,"[0, 29, 9, 6]",4,12,"[4, 7, 10, 11, 13, 14, 20, 21, 22, 24, 27, 28]",140.2741407,4837,1270,11,34,8,1.0389786364356892
undo,68,19,0,0,0,22,"[0, 29, 9, 6, 22]",5,7,"[4, 7, 10, 11, 14, 20, 24]",79.27414071,6907,2070,2,4,8,1.0360889604738772
undo,68,19,0,0,0,20,"[0, 29, 9, 6, 22, 20]",6,4,"[10, 11, 14, 24]",66.12119427,7858,951,2,2,8,1.0344974630090689
undo,68,19,0,1,0,20,"[0, 29, 9, 6, 22, 20]",6,4,"[10, 11, 14, 24]",66.12119427,8276,418,2,2,8,1.0344974630090689
basic,69,37,0,0,0,0,[0],1,29,"[1, 2, 3, 4, 5, 6, 7, 8, 9, 10, 11, 12, 13, 14, 15, 16, 17, 18, 19, 20, 21, 22, 23, 24, 25, 26, 27, 28, 29]",300,146,-1,6,168,10,0.0
basic,69,37,0,0,0,19,"[0, 19]",2,19,"[1, 2, 4, 5, 6, 7, 9, 10, 11, 15, 17, 18, 20, 21, 22, 25, 26, 28, 29]",185.6627795,1477,1331,25,244,9,1.0
basic,69,37,0,0,0,21,"[0, 19, 21]",3,14,"[1, 2, 4, 7, 10, 11, 15, 17, 18, 20, 22, 25, 26, 29]",144.5531699,2416,939,10,75,9,1.001632816594558
basic,69,37,0,0,0,15,"[0, 19, 21, 15]",4,9,"[1, 2, 4, 7, 18, 20, 22, 26, 29]",129.5531699,3061,645,5,32,9,1.0243376499143988
basic,69,37,0,0,0,20,"[0, 19, 21, 15, 20]",5,8,"[1, 2, 4, 7, 18, 22, 26, 29]",112.5531699,3819,758,5,14,9,1.250507291508492
basic,69,37,0,0,0,1,"[0, 19, 21, 15, 20, 1]",6,6,"[2, 4, 7, 18, 22, 26]",78.31868434,4814,995,4,4,9,1.4002166443864243
basic,69,37,0,1,0,1,"[0, 19, 21, 15, 20, 1]",6,6,"[2, 4, 7, 18, 22, 26]",78.31868434,5272,458,4,4,9,1.4002166443864243
basic,70,28,0,0,0,0,[0],1,27,"[1, 2, 3, 4, 5, 6, 7, 8, 9, 10, 11, 12, 13, 14, 15, 16, 17, 18, 19, 20, 22, 23, 25, 26, 27, 28, 29]",300,145,-1,2,96,9,0.0
basic,70,28,0,0,0,3,"[0, 3]",2,26,"[1, 2, 4, 5, 6, 7, 8, 9, 10, 11, 12, 13, 14, 15, 16, 17, 18, 19, 20, 22, 23, 25, 26, 27, 28, 29]",251.0817008,1797,1652,1,64,9,1.0
basic,70,28,0,0,0,20,"[0, 3, 20]",3,20,"[2, 4, 5, 6, 7, 8, 9, 10, 11, 12, 13, 14, 15, 16, 18, 19, 22, 23, 26, 28]",209.7416475,3349,1552,2,29,8,1.6703057504555512
basic,70,28,0,0,0,15,"[0, 3, 20, 15]",4,10,"[5, 6, 8, 9, 10, 16, 22, 23, 26, 28]",157.2440286,5270,1921,1,6,7,1.4376587969564578
basic,70,28,0,1,0,15,"[0, 3, 20, 15]",4,10,"[5, 6, 8, 9, 10, 16, 22, 23, 26, 28]",157.2440286,5604,334,1,6,7,1.4376587969564578
basic,71,16,0,0,0,0,[0],1,29,"[1, 2, 3, 4, 5, 6, 7, 8, 9, 10, 11, 12, 13, 14, 15, 16, 17, 18, 19, 20, 21, 22, 23, 24, 25, 26, 27, 28, 29]",300,160,-1,13,161,9,0.0
basic,71,16,0,0,0,28,"[0, 28]",2,27,"[1, 2, 3, 4, 5, 7, 8, 9, 10, 11, 12, 13, 14, 15, 16, 17, 18, 19, 20, 21, 22, 23, 24, 25, 26, 27, 29]",284.3475242,1807,1647,11,92,9,1.0
basic,71,16,0,0,0,17,"[0, 28, 17]",3,26,"[1, 2, 3, 4, 5, 7, 8, 9, 10, 11, 12, 13, 14, 15, 16, 18, 19, 20, 21, 22, 23, 24, 25, 26, 27, 29]",219.1555001,3425,1618,10,46,9,1.3773866384707543
basic,71,16,0,0,0,16,"[0, 28, 17, 16]",4,25,"[1, 2, 3, 4, 5, 7, 8, 9, 10, 11, 12, 13, 14, 15, 18, 19, 20, 21, 22, 23, 24, 25, 26, 27, 29]",190.8358956,4429,1004,10,34,9,1.3209953830681203
basic,71,16,0,0,0,8,"[0, 28, 17, 16, 8]",5,12,"[3, 4, 5, 9, 12, 13, 15, 19, 20, 21, 25, 29]",142.4623491,6186,1757,6,19,9,1.2700932705506198
basic,71,16,0,0,1,21,"[0, 28, 17, 16, 8, 21]",6,0,[],93.20790767,7372,1186,1,0,6,2.4382537301595955
basic,71,16,0,1,1,21,"[0, 28, 17, 16, 8, 21]",6,0,[],93.20790767,7774,402,1,0,6,2.4382537301595955
basic,72,32,0,0,0,0,[0],1,29,"[1, 2, 3, 4, 5, 6, 7, 8, 9, 10, 11, 12, 13, 14, 15, 16, 17, 18, 19, 20, 21, 22, 23, 24, 25, 26, 27, 28, 29]",300,146,-1,17,359,10,0.0
basic,72,32,0,0,0,5,"[0, 5]",2,28,"[1, 2, 3, 4, 6, 7, 8, 9, 10, 11, 12, 13, 14, 15, 16, 17, 18, 19, 20, 21, 22, 23, 24, 25, 26, 27, 28, 29]",208.1631882,1592,1446,11,117,8,1.0
basic,72,32,0,0,0,26,"[0, 5, 26]",3,19,"[1, 3, 4, 6, 11, 12, 13, 14, 15, 16, 18, 19, 21, 22, 23, 24, 27, 28, 29]",159.501088,4129,2537,3,21,6,1.159209851344572
basic,72,32,0,0,0,4,"[0, 5, 26, 4]",4,2,"[1, 21]",69.65677819,5515,1386,1,1,6,1.1029163196407603
basic,72,32,0,1,0,4,"[0, 5, 26, 4]",4,2,"[1, 21]",69.65677819,5988,473,1,1,6,1.1029163196407603
basic,73,4,0,0,0,0,[0],1,26,"[3, 4, 5, 6, 7, 8, 10, 11, 12, 13, 14, 15, 16, 17, 18, 19, 20, 21, 22, 23, 24, 25, 26, 27, 28, 29]",300,145,-1,4,489,10,0.0
basic,73,4,0,0,0,28,"[0, 28]",2,21,"[3, 4, 5, 6, 10, 11, 12, 13, 14, 15, 16, 17, 19, 20, 21, 22, 23, 24, 25, 26, 27]",225.9392142,1446,1301,2,216,10,1.0
basic,73,4,0,0,0,25,"[0, 28, 25]",3,15,"[3, 4, 5, 6, 11, 12, 13, 14, 16, 17, 20, 21, 22, 23, 24]",171.9021898,2514,1068,69,420,9,1.0101483986051152
basic,73,4,0,0,0,14,"[0, 28, 25, 14]",4,12,"[3, 4, 5, 6, 11, 13, 16, 17, 20, 21, 22, 24]",155.7776743,3343,829,28,135,9,1.0560992158249058
basic,73,4,0,0,0,16,"[0, 28, 25, 14, 16]",5,11,"[3, 4, 5, 6, 11, 13, 17, 20, 21, 22, 24]",123.2200331,4195,852,9,47,9,1.2824629262315197
basic,73,4,0,0,0,11,"[0, 28, 25, 14, 16, 11]",6,9,"[3, 4, 5, 6, 13, 17, 20, 21, 22]",108.2200331,5632,1437,5,14,9,1.5607866036414384
basic,73,4,0,1,0,11,"[0, 28, 25, 14, 16, 11]",6,9,"[3, 4, 5, 6, 13, 17, 20, 21, 22]",108.2200331,6088,456,5,14,9,1.5607866036414384
basic,74,3,0,0,0,0,[0],1,29,"[1, 2, 3, 4, 5, 6, 7, 8, 9, 10, 11, 12, 13, 14, 15, 16, 17, 18, 19, 20, 21, 22, 23, 24, 25, 26, 27, 28, 29]",300,179,-1,34,427,10,0.0
basic,74,3,0,0,0,16,"[0, 16]",2,28,"[1, 2, 3, 4, 5, 6, 7, 8, 9, 10, 11, 12, 13, 14, 15, 17, 18, 19, 20, 21, 22, 23, 24, 25, 26, 27, 28, 29]",268.9355509,2160,1981,32,260,9,1.0
basic,74,3,0,0,0,15,"[0, 16, 15]",3,27,"[1, 2, 3, 4, 5, 6, 7, 8, 9, 10, 11, 12, 13, 14, 17, 18, 19, 20, 21, 22, 23, 24, 25, 26, 27, 28, 29]",229.8203364,3378,1218,15,76,9,2.204989671213251
basic,74,3,0,0,0,7,"[0, 16, 15, 7]",4,25,"[1, 2, 3, 4, 5, 6, 8, 9, 10, 11, 12, 13, 14, 17, 18, 19, 20, 21, 22, 24, 25, 26, 27, 28, 29]",199.7537437,4232,854,15,59,9,4.730913335158226
basic,74,3,0,0,0,8,"[0, 16, 15, 7, 8]",5,13,"[3, 4, 5, 10, 14, 17, 18, 19, 20, 21, 22, 24, 26]",143.7805358,5520,1288,9,26,9,2.6022124644283724
basic,74,3,0,0,0,24,"[0, 16, 15, 7, 8, 24]",6,9,"[3, 4, 10, 14, 17, 19, 20, 21, 22]",131.6150107,6700,1180,9,11,9,2.8609774318136
basic,74,3,0,1,0,24,"[0, 16, 15, 7, 8, 24]",6,9,"[3, 4, 10, 14, 17, 19, 20, 21, 22]",131.6150107,7140,440,9,11,9,2.8609774318136
basic,75,23,0,0,0,0,[0],1,28,"[1, 2, 3, 4, 5, 6, 7, 8, 9, 10, 11, 12, 13, 14, 15, 16, 17, 18, 19, 20, 21, 22, 23, 25, 26, 27, 28, 29]",300,145,-1,76,2626,10,0.0
basic,75,23,0,0,0,21,"[0, 21]",2,27,"[1, 2, 3, 4, 5, 6, 7, 8, 9, 10, 11, 12, 13, 14, 15, 16, 17, 18, 19, 20, 22, 23, 25, 26, 27, 28, 29]",267.1062316,2108,1963,52,986,10,1.0
basic,75,23,0,0,0,5,"[0, 21, 5]",3,24,"[1, 2, 4, 6, 7, 8, 9, 10, 11, 12, 13, 14, 15, 16, 17, 18, 19, 20, 22, 23, 25, 26, 27, 29]",210.8834604,3244,1136,3,21,8,1.0074329272517222
basic,75,23,0,0,0,19,"[0, 21, 5, 19]",4,5,"[4, 8, 20, 22, 26]",165.7060324,5865,2621,2,4,6,1.9122513267371097
basic,75,23,0,0,0,20,"[0, 21, 5, 19, 20]",5,2,"[4, 26]",107.6974124,7518,1653,2,0,6,1.52481898777107
basic,75,23,0,0,1,4,"[0, 21, 5, 19, 20, 4]",6,0,[],40.34015589,9019,1501,1,0,6,1.4144573006240624
basic,75,23,0,1,1,4,"[0, 21, 5, 19, 20, 4]",6,0,[],40.34015589,10362,1343,1,0,6,1.4144573006240624
basic,76,39,0,0,0,0,[0],1,28,"[1, 2, 3, 4, 5, 6, 7, 9, 10, 11, 12, 13, 14, 15, 16, 17, 18, 19, 20, 21, 22, 23, 24, 25, 26, 27, 28, 29]",300,147,-1,1,30,10,0.0
basic,76,39,0,0,0,29,"[0, 29]",2,26,"[1, 2, 3, 4, 5, 6, 7, 9, 10, 12, 13, 14, 15, 16, 17, 18, 19, 20, 21, 22, 23, 24, 25, 26, 27, 28]",243.0614366,1677,1530,8,104,9,1.0
basic,76,39,0,0,0,12,"[0, 29, 12]",3,18,"[1, 2, 4, 5, 7, 9, 10, 13, 14, 15, 16, 18, 19, 22, 23, 24, 26, 28]",182.5221931,3101,1424,5,54,9,1.0026200331524904
basic,76,39,0,0,0,1,"[0, 29, 12, 1]",4,11,"[2, 7, 9, 10, 13, 15, 16, 18, 22, 24, 26]",126.3795178,4015,914,9,9,7,1.0185340949098056
basic,76,39,0,1,0,1,"[0, 29, 12, 1]",4,11,"[2, 7, 9, 10, 13, 15, 16, 18, 22, 24, 26]",126.3795178,5259,1244,9,9,7,1.0185340949098056
basic,77,34,0,0,0,0,[0],1,25,"[1, 3, 4, 5, 6, 7, 8, 9, 10, 11, 12, 13, 15, 18, 19, 20, 21, 22, 23, 24, 25, 26, 27, 28, 29]",300,144,-1,12,367,10,0.0
basic,77,34,0,0,0,13,"[0, 13]",2,24,"[1, 3, 4, 5, 6, 7, 8, 9, 10, 11, 12, 15, 18, 19, 20, 21, 22, 23, 24, 25, 26, 27, 28, 29]",279.9750156,2629,2485,12,331,10,1.0
basic,77,34,0,0,0,1,"[0, 13, 1]",3,16,"[3, 5, 7, 8, 9, 10, 11, 12, 19, 21, 22, 23, 24, 25, 27, 29]",211.8574701,3661,1032,3,92,10,1.0010381285747127
basic,77,34,0,0,0,8,"[0, 13, 1, 8]",4,14,"[3, 5, 7, 9, 10, 11, 12, 19, 22, 23, 24, 25, 27, 29]",201.0871405,4229,568,2,54,10,1.1636807
basic,77,34,0,0,0,25,"[0, 13, 1, 8, 25]",5,12,"[3, 5, 7, 9, 10, 11, 12, 22, 23, 24, 27, 29]",183.999133,5852,1623,2,28,10,1.1396208815936457
basic,77,34,0,0,0,24,"[0, 13, 1, 8, 25, 24]",6,11,"[3, 5, 7, 9, 10, 11, 12, 22, 23, 27, 29]",166.5062774,6586,734,2,23,10,1.374180768736554
basic,77,34,0,0,0,10,"[0, 13, 1, 8, 25, 24, 10]",7,2,"[9, 22]",83.94115154,7785,1199,1,1,9,1.206223549925811
basic,77,34,0,1,0,10,"[0, 13, 1, 8, 25, 24, 10]",7,2,"[9, 22]",83.94115154,8307,522,1,1,9,1.206223549925811
basic,78,45,0,0,0,0,[0],1,24,"[1, 2, 3, 4, 5, 6, 7, 9, 10, 11, 12, 14, 15, 16, 17, 19, 20, 21, 22, 23, 24, 25, 27, 29]",300,145,-1,6,248,10,0.0
basic,78,45,0,0,0,15,"[0, 15]",2,23,"[1, 2, 3, 4, 5, 6, 7, 9, 10, 11, 12, 14, 16, 17, 19, 20, 21, 22, 23, 24, 25, 27, 29]",253.9022777,1179,1034,5,207,10,1.0
basic,78,45,0,0,0,23,"[0, 15, 23]",3,22,"[1, 2, 3, 4, 5, 6, 7, 9, 10, 11, 12, 14, 16, 17, 19, 20, 21, 22, 24, 25, 27, 29]",230.3014303,2782,1603,5,163,10,1.0006068457769497
basic,78,45,0,0,0,20,"[0, 15, 23, 20]",4,19,"[1, 2, 3, 5, 6, 7, 9, 10, 11, 12, 14, 16, 17, 19, 21, 22, 24, 25, 29]",188.8647316,4729,1947,5,137,10,1.2062119754673604
basic,78,45,0,0,0,24,"[0, 15, 23, 20, 24]",5,14,"[1, 2, 3, 5, 6, 7, 9, 10, 12, 17, 19, 21, 22, 29]",145.0355176,5932,1203,1,23,10,1.5044386356496664
basic,78,45,0,0,0,17,"[0, 15, 23, 20, 24, 17]",6,1,[7],102.9760359,6902,970,1,0,7,3.0721307689661446
basic,78,45,0,1,0,17,"[0, 15, 23, 20, 24, 17]",6,1,[7],102.9760359,7323,421,1,0,7,3.0721307689661446
basic,79,17,0,0,0,0,[0],1,28,"[1, 2, 3, 4, 5, 6, 7, 8, 9, 10, 11, 12, 13, 14, 15, 16, 17, 18, 19, 20, 22, 23, 24, 25, 26, 27, 28, 29]",300,143,-1,2,73,8,0.0
basic,79,17,0,0,0,16,"[0, 16]",2,23,"[1, 2, 3, 5, 7, 8, 9, 10, 11, 12, 14, 17, 18, 19, 20, 22, 23, 24, 25, 26, 27, 28, 29]",212.3586855,2292,2149,1,29,8,1.0
basic,79,17,0,0,0,9,"[0, 16, 9]",3,22,"[1, 2, 3, 5, 7, 8, 10, 11, 12, 14, 17, 18, 19, 20, 22, 23, 24, 25, 26, 27, 28, 29]",199.0170215,3583,1291,1,16,8,1.1286713677732607
basic,79,17,0,0,0,2,"[0, 16, 9, 2]",4,18,"[1, 3, 5, 7, 8, 10, 11, 12, 14, 17, 18, 19, 23, 25, 26, 27, 28, 29]",177.0625231,4333,750,1,12,8,1.1868741553560993
basic,79,17,0,0,0,17,"[0, 16, 9, 2, 17]",5,5,"[7, 8, 14, 27, 29]",138.7349873,5664,1331,2,4,7,1.527497948919145
basic,79,17,0,0,0,8,"[0, 16, 9, 2, 17, 8]",6,2,"[7, 27]",100.5250409,6904,1240,2,0,7,1.4903631359086424
basic,79,17,0,1,0,8,"[0, 16, 9, 2, 17, 8]",6,2,"[7, 27]",100.5250409,7271,367,2,0,7,1.4903631359086424
basic,80,19,0,0,0,0,[0],1,29,"[1, 2, 3, 4, 5, 6, 7, 8, 9, 10, 11, 12, 13, 14, 15, 16, 17, 18, 19, 20, 21, 22, 23, 24, 25, 26, 27, 28, 29]",300,128,-1,12,149,8,0.0
basic,80,19,0,0,0,29,"[0, 29]",2,28,"[1, 2, 3, 4, 5, 6, 7, 8, 9, 10, 11, 12, 13, 14, 15, 16, 17, 18, 19, 20, 21, 22, 23, 24, 25, 26, 27, 28]",265.0715016,1262,1134,12,120,8,1.0
basic,80,19,0,0,0,1,"[0, 29, 1]",3,16,"[2, 3, 7, 8, 9, 10, 12, 13, 16, 17, 18, 19, 21, 23, 25, 26]",156.5496144,2331,1069,5,43,7,1.0724082319271095
basic,80,19,0,0,0,19,"[0, 29, 1, 19]",4,10,"[3, 8, 12, 13, 17, 18, 21, 23, 25, 26]",122.4908417,3328,997,2,11,7,1.0700120277971767
basic,80,19,0,0,0,13,"[0, 29, 1, 19, 13]",5,2,"[21, 23]",86.14527799,4852,1524,2,0,6,1.5255114314607818
basic,80,19,0,1,0,13,"[0, 29, 1, 19, 13]",5,2,"[21, 23]",86.14527799,5186,334,2,0,6,1.5255114314607818
basic,81,11,0,0,0,0,[0],1,25,"[1, 2, 3, 4, 5, 6, 8, 9, 10, 11, 12, 13, 14, 15, 16, 17, 18, 19, 20, 22, 23, 25, 26, 27, 28]",300,145,-1,6,374,12,0.0
basic,81,11,0,0,0,17,"[0, 17]",2,18,"[1, 2, 4, 5, 6, 8, 10, 11, 12, 15, 18, 19, 22, 23, 25, 26, 27, 28]",152.9217895,2148,2003,218,762,9,1.0
basic,81,11,0,0,0,15,"[0, 17, 15]",3,16,"[1, 2, 4, 5, 6, 8, 11, 12, 18, 19, 22, 23, 25, 26, 27, 28]",140.2726789,2679,531,97,260,9,1.0182186531831565
basic,81,11,0,0,0,8,"[0, 17, 15, 8]",4,13,"[1, 2, 4, 5, 6, 11, 12, 18, 19, 22, 25, 27, 28]",126.8190548,3948,1269,64,49,9,1.192650797627932
basic,81,11,0,0,0,28,"[0, 17, 15, 8, 28]",5,6,"[2, 5, 11, 19, 22, 27]",93.92528642,5336,1388,14,11,9,1.192538836136311
basic,81,11,0,0,0,2,"[0, 17, 15, 8, 28, 2]",6,4,"[5, 11, 19, 22]",83.29514061,6004,668,3,4,9,1.2141138017240949
basic,81,11,0,0,0,22,"[0, 17, 15, 8, 28, 2, 22]",7,3,"[5, 11, 19]",73.24526498,6654,650,2,1,9,1.202727124050708
basic,81,11,0,1,0,22,"[0, 17, 15, 8, 28, 2, 22]",7,3,"[5, 11, 19]",73.24526498,7006,352,2,1,9,1.202727124050708
basic,82,6,0,0,0,0,[0],1,29,"[1, 2, 3, 4, 5, 6, 7, 8, 9, 10, 11, 12, 13, 14, 15, 16, 17, 18, 19, 20, 21, 22, 23, 24, 25, 26, 27, 28, 29]",300,145,-1,180,4304,10,0.0
basic,82,6,0,0,0,3,"[0, 3]",2,28,"[1, 2, 4, 5, 6, 7, 8, 9, 10, 11, 12, 13, 14, 15, 16, 17, 18, 19, 20, 21, 22, 23, 24, 25, 26, 27, 28, 29]",266.4738908,1306,1161,90,1607,10,1.0
basic,82,6,0,0,0,17,"[0, 3, 17]",3,27,"[1, 2, 4, 5, 6, 7, 8, 9, 10, 11, 12, 13, 14, 15, 16, 18, 19, 20, 21, 22, 23, 24, 25, 26, 27, 28, 29]",229.3120824,2667,1361,14,277,10,1.001582936538049
basic,82,6,0,0,0,18,"[0, 3, 17, 18]",4,26,"[1, 2, 4, 5, 6, 7, 8, 9, 10, 11, 12, 13, 14, 15, 16, 19, 20, 21, 22, 23, 24, 25, 26, 27, 28, 29]",215.3836941,3415,748,2,110,10,1.3893947218924263
basic,82,6,0,0,0,16,"[0, 3, 17, 18, 16]",5,24,"[1, 2, 4, 5, 6, 7, 8, 9, 10, 11, 12, 13, 14, 15, 19, 20, 21, 22, 23, 24, 25, 26, 27, 29]",192.0384591,5080,1665,2,50,10,1.495719696808463
basic,82,6,0,0,0,29,"[0, 3, 17, 18, 16, 29]",6,18,"[1, 2, 6, 7, 10, 11, 13, 14, 15, 19, 20, 21, 22, 23, 24, 25, 26, 27]",155.3505864,6581,1501,25,29,9,1.3581056890613403
basic,82,6,0,1,0,29,"[0, 3, 17, 18, 16, 29]",6,18,"[1, 2, 6, 7, 10, 11, 13, 14, 15, 19, 20, 21, 22, 23, 24, 25, 26, 27]",155.3505864,7006,425,25,29,9,1.3581056890613403
basic,83,35,0,0,0,0,[0],1,29,"[1, 2, 3, 4, 5, 6, 7, 8, 9, 10, 11, 12, 13, 14, 15, 16, 17, 18, 19, 20, 21, 22, 23, 24, 25, 26, 27, 28, 29]",300,145,-1,5,236,11,0.0
basic,83,35,0,0,0,24,"[0, 24]",2,27,"[1, 2, 4, 5, 6, 7, 8, 9, 10, 11, 12, 13, 14, 15, 16, 17, 18, 19, 20, 21, 22, 23, 25, 26, 27, 28, 29]",268.9838752,1679,1534,49,512,10,1.0
basic,83,35,0,0,0,17,"[0, 24, 17]",3,26,"[1, 2, 4, 5, 6, 7, 8, 9, 10, 11, 12, 13, 14, 15, 16, 18, 19, 20, 21, 22, 23, 25, 26, 27, 28, 29]",257.2791753,2360,681,33,238,10,1.0771477201815276
basic,83,35,0,0,0,1,"[0, 24, 17, 1]",4,25,"[2, 4, 5, 6, 7, 8, 9, 10, 11, 12, 13, 14, 15, 16, 18, 19, 20, 21, 22, 23, 25, 26, 27, 28, 29]",241.4677869,3561,1201,26,151,10,1.2244804141479215
basic,83,35,0,0,0,15,"[0, 24, 17, 1, 15]",5,23,"[2, 4, 5, 6, 7, 8, 9, 10, 11, 12, 14, 16, 18, 19, 20, 21, 22, 23, 25, 26, 27, 28, 29]",218.6204676,4451,890,26,78,10,1.4642196672428094
basic,83,35,0,0,0,26,"[0, 24, 17, 1, 15, 26]",6,8,"[4, 5, 8, 10, 12, 20, 23, 27]",140.8387217,5680,1229,1,7,8,1.4789871057588548
basic,83,35,0,0,0,5,"[0, 24, 17, 1, 15, 26, 5]",7,1,[23],66.20628907,8458,2778,1,0,8,2.0947205445939177
basic,83,35,0,1,0,5,"[0, 24, 17, 1, 15, 26, 5]",7,1,[23],66.20628907,8859,401,1,0,8,2.0947205445939177
basic,84,31,0,0,0,0,[0],1,27,"[1, 3, 4, 5, 6, 7, 8, 10, 11, 12, 13, 14, 15, 16, 17, 18, 19, 20, 21, 22, 23, 24, 25, 26, 27, 28, 29]",300,128,-1,2,87,10,0.0
basic,84,31,0,0,0,11,"[0, 11]",2,21,"[1, 3, 5, 6, 7, 8, 10, 12, 13, 14, 16, 17, 18, 19, 20, 21, 22, 25, 27, 28, 29]",238.7790885,1190,1062,24,261,8,1.0
basic,84,31,0,0,0,17,"[0, 11, 17]",3,17,"[1, 3, 5, 6, 7, 8, 12, 13, 14, 16, 18, 19, 20, 22, 25, 27, 28]",197.669479,2131,941,6,50,8,1.1304652203265726
basic,84,31,0,0,0,18,"[0, 11, 17, 18]",4,14,"[1, 5, 7, 8, 12, 13, 14, 16, 19, 20, 22, 25, 27, 28]",168.4633152,3233,1102,6,25,8,2.043076481045282
basic,84,31,0,0,0,8,"[0, 11, 17, 18, 8]",5,9,"[5, 7, 13, 14, 19, 22, 25, 27, 28]",132.6164186,4529,1296,3,10,8,4.81193963763814
basic,84,31,0,0,0,27,"[0, 11, 17, 18, 8, 27]",6,5,"[5, 7, 13, 14, 19]",121.5710575,5069,540,3,4,8,4.405988685153446
basic,84,31,0,0,0,14,"[0, 11, 17, 18, 8, 27, 14]",7,3,"[7, 13, 19]",93.39305194,5998,929,3,0,8,5.717067686328982
basic,84,31,0,1,0,14,"[0, 11, 17, 18, 8, 27, 14]",7,3,"[7, 13, 19]",93.39305194,6355,357,3,0,8,5.717067686328982
basic,85,10,0,0,0,0,[0],1,29,"[1, 2, 3, 4, 5, 6, 7, 8, 9, 10, 11, 12, 13, 14, 15, 16, 17, 18, 19, 20, 21, 22, 23, 24, 25, 26, 27, 28, 29]",300,130,-1,1,100,9,0.0
basic,85,10,0,0,0,13,"[0, 13]",2,25,"[1, 2, 3, 4, 6, 7, 8, 9, 10, 11, 12, 14, 17, 18, 19, 20, 21, 22, 23, 24, 25, 26, 27, 28, 29]",249.4628849,3395,3265,1,79,9,1.0
basic,85,10,0,0,0,11,"[0, 13, 11]",3,20,"[1, 2, 3, 6, 7, 8, 9, 10, 12, 14, 18, 19, 20, 21, 22, 24, 26, 27, 28, 29]",206.4512586,4597,1202,1,54,9,1.0313137484914219
basic,85,10,0,0,0,20,"[0, 13, 11, 20]",4,15,"[1, 2, 3, 6, 8, 9, 10, 12, 14, 18, 19, 21, 24, 26, 27]",168.3723931,5755,1158,15,34,8,1.0874972644654597
basic,85,10,0,0,0,27,"[0, 13, 11, 20, 27]",5,11,"[1, 2, 6, 9, 10, 12, 14, 18, 19, 21, 26]",123.1175591,6638,883,1,10,8,1.1358705803065132
basic,85,10,0,0,0,6,"[0, 13, 11, 20, 27, 6]",6,2,"[1, 9]",63.20929586,7719,1081,2,0,7,1.1155853216515053
basic,85,10,0,0,1,9,"[0, 13, 11, 20, 27, 6, 9]",7,0,[],51.54739207,9021,1302,1,0,7,1.1535987566519352
basic,85,10,0,1,1,9,"[0, 13, 11, 20, 27, 6, 9]",7,0,[],51.54739207,10128,1107,1,0,7,1.1535987566519352
basic,86,24,0,0,0,0,[0],1,29,"[1, 2, 3, 4, 5, 6, 7, 8, 9, 10, 11, 12, 13, 14, 15, 16, 17, 18, 19, 20, 21, 22, 23, 24, 25, 26, 27, 28, 29]",300,145,-1,4,76,10,0.0
basic,86,24,0,0,0,14,"[0, 14]",2,27,"[1, 2, 3, 4, 5, 6, 8, 9, 10, 11, 12, 13, 15, 16, 17, 18, 19, 20, 21, 22, 23, 24, 25, 26, 27, 28, 29]",278.0455016,1646,1501,4,54,10,1.0
basic,86,24,0,0,0,10,"[0, 14, 10]",3,20,"[1, 2, 3, 4, 6, 8, 9, 11, 15, 16, 17, 19, 20, 22, 23, 24, 26, 27, 28, 29]",229.342319,3216,1570,10,99,9,1.0038790212375874
basic,86,24,0,0,0,24,"[0, 14, 10, 24]",4,14,"[1, 2, 4, 6, 8, 9, 11, 15, 16, 20, 22, 23, 28, 29]",176.0037775,4762,1546,4,26,9,1.0345598967195753
basic,86,24,0,0,0,6,"[0, 14, 10, 24, 6]",5,11,"[1, 8, 9, 11, 15, 16, 20, 22, 23, 28, 29]",138.6674681,5937,1175,4,19,9,1.4136213103786264
basic,86,24,0,0,0,8,"[0, 14, 10, 24, 6, 8]",6,5,"[15, 16, 22, 23, 28]",77.83984283,7289,1352,4,4,9,2.0175546172818692
basic,86,24,0,1,0,8,"[0, 14, 10, 24, 6, 8]",6,5,"[15, 16, 22, 23, 28]",77.83984283,7674,385,4,4,9,2.0175546172818692
basic,87,36,0,0,0,0,[0],1,24,"[2, 4, 5, 6, 7, 8, 9, 10, 12, 13, 14, 15, 16, 17, 18, 19, 20, 22, 23, 25, 26, 27, 28, 29]",300,161,-1,2,200,10,0.0
basic,87,36,0,0,0,18,"[0, 18]",2,21,"[2, 4, 5, 6, 7, 8, 9, 10, 12, 13, 14, 16, 17, 19, 22, 23, 25, 26, 27, 28, 29]",279.6039219,1611,1450,2,110,10,1.0
basic,87,36,0,0,0,12,"[0, 18, 12]",3,19,"[2, 4, 5, 6, 7, 8, 9, 10, 13, 16, 17, 19, 22, 23, 25, 26, 27, 28, 29]",237.0245842,3115,1504,2,86,10,2.836270082716982
basic,87,36,0,0,0,9,"[0, 18, 12, 9]",4,9,"[2, 4, 10, 13, 16, 17, 19, 23, 25]",174.6627369,4747,1632,1,40,10,1.8147676024843966
basic,87,36,0,0,0,17,"[0, 18, 12, 9, 17]",5,6,"[2, 10, 13, 16, 19, 25]",148.4139274,6432,1685,13,24,9,1.603838498643679
basic,87,36,0,0,0,16,"[0, 18, 12, 9, 17, 16]",6,4,"[2, 13, 19, 25]",120.0943229,7300,868,3,6,9,1.6854885999800298
basic,87,36,0,0,0,2,"[0, 18, 12, 9, 17, 16, 2]",7,3,"[13, 19, 25]",53.4459921,12025,4725,1,2,9,2.1832621555941594
basic,87,36,0,1,0,2,"[0, 18, 12, 9, 17, 16, 2]",7,3,"[13, 19, 25]",53.4459921,12482,457,1,2,9,2.1832621555941594
basic,88,41,0,0,0,0,[0],1,29,"[1, 2, 3, 4, 5, 6, 7, 8, 9, 10, 11, 12, 13, 14, 15, 16, 17, 18, 19, 20, 21, 22, 23, 24, 25, 26, 27, 28, 29]",300,160,-1,1,143,10,0.0
basic,88,41,0,0,0,21,"[0, 21]",2,28,"[1, 2, 3, 4, 5, 6, 7, 8, 9, 10, 11, 12, 13, 14, 15, 16, 17, 18, 19, 20, 22, 23, 24, 25, 26, 27, 28, 29]",251.1226024,1590,1430,50,469,8,1.0
basic,88,41,0,0,0,12,"[0, 21, 12]",3,21,"[1, 2, 3, 4, 5, 6, 8, 9, 10, 11, 13, 14, 15, 16, 17, 19, 22, 23, 25, 28, 29]",173.1161924,2860,1270,2,25,7,1.001042051085489
basic,88,41,0,0,0,25,"[0, 21, 12, 25]",4,11,"[2, 3, 6, 8, 9, 11, 16, 19, 22, 23, 29]",125.9462867,3999,1139,6,7,6,1.0982454438981943
basic,88,41,0,0,0,6,"[0, 21, 12, 25, 6]",5,1,[11],61.10031536,5012,1013,1,0,6,1.3959050892278373
basic,88,41,0,1,0,6,"[0, 21, 12, 25, 6]",5,1,[11],61.10031536,5418,406,1,0,6,1.3959050892278373
basic,89,27,0,0,0,0,[0],1,26,"[1, 3, 5, 6, 7, 8, 9, 10, 11, 12, 13, 14, 15, 16, 17, 18, 19, 21, 22, 23, 24, 25, 26, 27, 28, 29]",300,145,-1,13,578,11,0.0
basic,89,27,0,0,0,17,"[0, 17]",2,20,"[1, 6, 7, 8, 9, 10, 12, 13, 14, 15, 16, 18, 19, 21, 23, 24, 25, 26, 27, 29]",237.9677503,3328,3183,13,326,10,1.0
basic,89,27,0,0,0,24,"[0, 17, 24]",3,18,"[1, 6, 7, 8, 10, 12, 13, 14, 15, 16, 18, 19, 21, 23, 25, 26, 27, 29]",221.414805,4984,1656,3,88,10,1.6626435457025237
basic,89,27,0,0,0,15,"[0, 17, 24, 15]",4,17,"[1, 6, 7, 8, 10, 12, 13, 14, 16, 18, 19, 21, 23, 25, 26, 27, 29]",204.2101544,5649,665,2,31,10,2.642541342895721
basic,89,27,0,0,0,12,"[0, 17, 24, 15, 12]",5,11,"[1, 8, 10, 13, 14, 18, 19, 23, 26, 27, 29]",172.6348476,7538,1889,2,20,10,1.970690313731389
basic,89,27,0,0,0,10,"[0, 17, 24, 15, 12, 10]",6,10,"[1, 8, 13, 14, 18, 19, 23, 26, 27, 29]",161.5894866,10071,2533,2,16,10,1.8350635660320809
basic,89,27,0,0,0,13,"[0, 17, 24, 15, 12, 10, 13]",7,8,"[1, 8, 14, 19, 23, 26, 27, 29]",121.7397689,13432,3361,2,8,10,1.811359497989758
basic,89,27,0,1,0,13,"[0, 17, 24, 15, 12, 10, 13]",7,8,"[1, 8, 14, 19, 23, 26, 27, 29]",121.7397689,13767,335,2,8,10,1.811359497989758
basic,90,1,0,0,0,0,[0],1,26,"[1, 2, 4, 5, 7, 8, 9, 10, 11, 12, 13, 14, 15, 16, 17, 18, 19, 20, 21, 22, 23, 24, 25, 26, 28, 29]",300,145,-1,6,74,7,0.0
basic,90,1,0,0,0,20,"[0, 20]",2,13,"[1, 4, 5, 8, 11, 13, 14, 15, 17, 18, 19, 28, 29]",129.961769,1439,1294,2,11,6,1.0
basic,90,1,0,0,0,5,"[0, 20, 5]",3,9,"[1, 4, 8, 11, 13, 17, 18, 19, 29]",108.4908585,2632,1193,2,6,6,1.0224915251419384
basic,90,1,0,0,0,18,"[0, 20, 5, 18]",4,4,"[4, 13, 17, 29]",85.66543403,4769,2137,2,3,6,1.064078468417926
basic,90,1,0,0,0,4,"[0, 20, 5, 18, 4]",5,2,"[13, 29]",46.71674984,5731,962,2,0,6,1.0731955739217967
basic,90,1,0,1,0,4,"[0, 20, 5, 18, 4]",5,2,"[13, 29]",46.71674984,6155,424,2,0,6,1.0731955739217967
basic,91,33,0,0,0,0,[0],1,23,"[1, 2, 5, 7, 8, 11, 12, 13, 14, 15, 16, 17, 18, 19, 20, 21, 23, 24, 25, 26, 27, 28, 29]",300,144,-1,5,108,9,0.0
basic,91,33,0,0,0,8,"[0, 8]",2,22,"[1, 2, 5, 7, 11, 12, 13, 14, 15, 16, 17, 18, 19, 20, 21, 23, 24, 25, 26, 27, 28, 29]",265.8679037,2761,2617,5,87,9,1.0
basic,91,33,0,0,0,27,"[0, 8, 27]",3,6,"[5, 16, 19, 21, 23, 25]",172.3906337,4464,1703,2,5,5,1.1120034973992803
basic,91,33,0,0,0,25,"[0, 8, 27, 25]",4,2,"[5, 23]",120.7669957,5581,1117,2,0,5,1.0777241092063088
basic,91,33,0,1,0,25,"[0, 8, 27, 25]",4,2,"[5, 23]",120.7669957,5987,406,2,0,5,1.0777241092063088
