condition,trial_id,map_id,undoIndicator,submit,checkEnd,currentChoice,chosen_all,n_city_all,n_within_reach,cities_reach,currentBudget,time_all,rt_all,n_opt_paths_all,n_subopt_paths_all,mas_all,tortuosity_all
basic,0,37,0,0,0,0,[0],1,29,"[1, 2, 3, 4, 5, 6, 7, 8, 9, 10, 11, 12, 13, 14, 15, 16, 17, 18, 19, 20, 21, 22, 23, 24, 25, 26, 27, 28, 29]",300,162,-1,6,168,10,0.0
basic,0,37,0,0,0,18,"[0, 18]",2,19,"[1, 2, 4, 6, 7, 9, 10, 12, 14, 15, 17, 19, 20, 21, 22, 23, 26, 28, 29]",202.4090168,8844,8682,6,89,10,1.0
basic,0,37,0,0,0,2,"[0, 18, 2]",3,10,"[1, 4, 7, 15, 19, 20, 21, 22, 26, 29]",143.7148944,12362,3518,14,82,9,1.0338225020126353
basic,0,37,0,0,0,4,"[0, 18, 2, 4]",4,8,"[1, 7, 15, 19, 20, 21, 22, 26]",132.3131402,14254,1892,10,40,9,1.0317091538961647
basic,0,37,0,0,0,1,"[0, 18, 2, 4, 1]",5,7,"[7, 15, 19, 20, 21, 22, 26]",114.593095,16716,2462,9,20,9,1.1710947925054036
basic,0,37,0,0,0,20,"[0, 18, 2, 4, 1, 20]",6,5,"[15, 19, 21, 22, 26]",80.35860951,24208,7492,4,6,9,1.465285703568742
basic,0,37,0,0,0,21,"[0, 18, 2, 4, 1, 20, 21]",7,3,"[15, 19, 26]",65.93640441,25945,1737,2,1,9,1.5082055926276574
basic,0,37,0,0,0,15,"[0, 18, 2, 4, 1, 20, 21, 15]",8,1,[26],50.93640441,27840,1895,1,0,9,1.4968023637412946
basic,0,37,0,0,1,26,"[0, 18, 2, 4, 1, 20, 21, 15, 26]",9,0,[],16.39657233,30169,2329,1,0,9,1.619639343562303
basic,0,37,0,1,1,26,"[0, 18, 2, 4, 1, 20, 21, 15, 26]",9,0,[],16.39657233,32673,2504,1,0,9,1.619639343562303
basic,1,2,0,0,0,0,[0],1,23,"[1, 2, 4, 5, 6, 7, 8, 9, 12, 13, 15, 16, 17, 18, 19, 20, 22, 23, 25, 26, 27, 28, 29]",300,186,-1,70,620,10,0.0
basic,1,2,0,0,0,19,"[0, 19]",2,22,"[1, 2, 4, 5, 6, 7, 8, 9, 12, 13, 15, 16, 17, 18, 20, 22, 23, 25, 26, 27, 28, 29]",210.306076,4087,3901,67,431,10,1.0
basic,1,2,0,0,0,12,"[0, 19, 12]",3,17,"[1, 4, 5, 6, 7, 13, 15, 16, 17, 18, 20, 22, 25, 26, 27, 28, 29]",174.2921898,8760,4673,66,298,10,1.1107635036313153
basic,1,2,0,0,0,5,"[0, 19, 12, 5]",4,11,"[1, 6, 7, 13, 15, 16, 18, 22, 25, 26, 29]",144.7625437,12365,3605,38,136,10,1.0968174771581647
basic,1,2,0,0,0,22,"[0, 19, 12, 5, 22]",5,8,"[1, 6, 7, 13, 15, 18, 26, 29]",131.9562952,14062,1697,20,63,10,1.0889910507461968
basic,1,2,0,0,0,13,"[0, 19, 12, 5, 22, 13]",6,7,"[1, 6, 7, 15, 18, 26, 29]",117.0902265,17579,3517,19,20,10,1.236526217328057
basic,1,2,0,0,0,18,"[0, 19, 12, 5, 22, 13, 18]",7,4,"[7, 15, 26, 29]",81.91921567,19436,1857,10,3,10,1.2128708213409936
basic,1,2,0,0,0,7,"[0, 19, 12, 5, 22, 13, 18, 7]",8,3,"[15, 26, 29]",71.62358553,24795,5359,5,0,10,1.2019811287894737
basic,1,2,0,0,0,15,"[0, 19, 12, 5, 22, 13, 18, 7, 15]",9,2,"[26, 29]",56.85876247,27537,2742,2,0,10,1.2907869828541363
basic,1,2,0,0,1,29,"[0, 19, 12, 5, 22, 13, 18, 7, 15, 29]",10,0,[],28.39826353,31172,3635,1,0,10,1.4795089334237532
basic,1,2,0,1,1,29,"[0, 19, 12, 5, 22, 13, 18, 7, 15, 29]",10,0,[],28.39826353,33712,2540,1,0,10,1.4795089334237532
basic,2,43,0,0,0,0,[0],1,23,"[1, 2, 3, 4, 5, 6, 7, 9, 10, 11, 12, 14, 15, 16, 17, 19, 20, 21, 22, 23, 25, 27, 29]",300,214,-1,16,556,12,0.0
basic,2,43,0,0,0,29,"[0, 29]",2,22,"[1, 2, 3, 4, 5, 6, 7, 9, 10, 11, 12, 14, 15, 16, 17, 19, 20, 21, 22, 23, 25, 27]",277.909278,5617,5403,16,520,12,1.0
basic,2,43,0,0,0,20,"[0, 29, 20]",3,20,"[1, 2, 3, 4, 6, 7, 9, 10, 11, 12, 14, 15, 16, 17, 19, 21, 22, 23, 25, 27]",254.4785289,7860,2243,15,422,12,1.082311746871282
basic,2,43,0,0,0,16,"[0, 29, 20, 16]",4,19,"[1, 2, 3, 4, 6, 7, 9, 10, 11, 12, 14, 15, 17, 19, 21, 22, 23, 25, 27]",231.8511119,12955,5095,15,389,12,1.215201926898219
basic,2,43,0,0,0,15,"[0, 29, 20, 16, 15]",5,14,"[1, 2, 3, 4, 6, 7, 9, 11, 12, 14, 19, 22, 23, 25]",188.5267539,17210,4255,3,109,12,1.3482474915350444
basic,2,43,0,0,0,25,"[0, 29, 20, 16, 15, 25]",6,12,"[1, 3, 4, 6, 7, 9, 11, 12, 14, 19, 22, 23]",165.8551858,21398,4188,2,43,12,1.691408721191545
basic,2,43,0,0,0,12,"[0, 29, 20, 16, 15, 25, 12]",7,11,"[1, 3, 4, 6, 7, 9, 11, 14, 19, 22, 23]",141.6684126,23293,1895,2,32,12,1.6015983641428178
basic,2,43,0,0,0,3,"[0, 29, 20, 16, 15, 25, 12, 3]",8,10,"[1, 4, 6, 7, 9, 11, 14, 19, 22, 23]",128.6684126,24952,1659,2,24,12,1.5379830456120627
basic,2,43,0,0,0,22,"[0, 29, 20, 16, 15, 25, 12, 3, 22]",9,6,"[1, 6, 7, 11, 14, 19]",93.95530264,31763,6811,1,11,12,1.7275686117408873
basic,2,43,0,0,0,19,"[0, 29, 20, 16, 15, 25, 12, 3, 22, 19]",10,4,"[1, 6, 7, 11]",73.33977451,36097,4334,1,3,12,1.6315360037595275
basic,2,43,0,0,0,1,"[0, 29, 20, 16, 15, 25, 12, 3, 22, 19, 1]",11,1,[7],45.1617689,37989,1892,1,0,12,1.7703076545303877
basic,2,43,0,0,1,7,"[0, 29, 20, 16, 15, 25, 12, 3, 22, 19, 1, 7]",12,0,[],6.951822553,40121,2132,1,0,12,1.6607094905815594
basic,2,43,0,1,1,7,"[0, 29, 20, 16, 15, 25, 12, 3, 22, 19, 1, 7]",12,0,[],6.951822553,42641,2520,1,0,12,1.6607094905815594
basic,3,0,0,0,0,0,[0],1,27,"[2, 3, 4, 5, 6, 7, 8, 9, 10, 11, 12, 13, 14, 15, 16, 17, 19, 20, 21, 22, 23, 24, 25, 26, 27, 28, 29]",300,180,-1,104,1136,9,0.0
basic,3,0,0,0,0,28,"[0, 28]",2,26,"[2, 3, 4, 5, 6, 7, 8, 9, 10, 11, 12, 13, 14, 15, 16, 17, 19, 20, 21, 22, 23, 24, 25, 26, 27, 29]",194.9190788,8365,8185,39,388,9,1.0
basic,3,0,0,0,0,5,"[0, 28, 5]",3,21,"[2, 3, 4, 7, 8, 9, 11, 12, 13, 14, 15, 16, 17, 19, 20, 21, 23, 24, 25, 26, 29]",151.2613189,10371,2006,27,210,9,1.0978295127671733
basic,3,0,0,0,0,4,"[0, 28, 5, 4]",4,16,"[3, 7, 8, 9, 11, 12, 13, 14, 15, 17, 19, 20, 21, 23, 24, 26]",126.1814465,13696,3325,17,114,9,1.1103727063761901
basic,3,0,0,0,0,24,"[0, 28, 5, 4, 24]",5,12,"[3, 7, 8, 9, 11, 12, 15, 17, 19, 20, 23, 26]",114.7796922,15871,2175,10,46,9,1.1102188371994124
basic,3,0,0,0,0,15,"[0, 28, 5, 4, 24, 15]",6,9,"[3, 7, 8, 9, 11, 12, 17, 19, 26]",91.43445718,18297,2426,6,13,9,1.1033515194628531
basic,3,0,0,0,0,7,"[0, 28, 5, 4, 24, 15, 7]",7,5,"[3, 8, 17, 19, 26]",60.37000804,21716,3419,5,3,9,1.1688711639523348
basic,3,0,0,0,0,8,"[0, 28, 5, 4, 24, 15, 7, 8]",8,2,"[3, 19]",41.26503487,25415,3699,2,0,9,1.1630446712274667
basic,3,0,0,0,1,3,"[0, 28, 5, 4, 24, 15, 7, 8, 3]",9,0,[],10.85122222,28918,3503,1,0,9,1.3339567387509852
basic,3,0,0,1,1,3,"[0, 28, 5, 4, 24, 15, 7, 8, 3]",9,0,[],10.85122222,31151,2233,1,0,9,1.3339567387509852
basic,4,40,0,0,0,0,[0],1,29,"[1, 2, 3, 4, 5, 6, 7, 8, 9, 10, 11, 12, 13, 14, 15, 16, 17, 18, 19, 20, 21, 22, 23, 24, 25, 26, 27, 28, 29]",300,180,-1,8,191,9,0.0
basic,4,40,0,0,0,1,"[0, 1]",2,18,"[2, 5, 6, 7, 8, 9, 10, 11, 13, 15, 17, 18, 19, 21, 22, 23, 27, 29]",247.8463808,10162,9982,4,80,9,1.0
basic,4,40,0,0,0,6,"[0, 1, 6]",3,17,"[2, 5, 7, 8, 9, 10, 11, 13, 15, 17, 18, 19, 21, 22, 23, 27, 29]",227.7466295,11678,1516,4,74,9,1.0459427008232034
basic,4,40,0,0,0,9,"[0, 1, 6, 9]",4,10,"[2, 5, 8, 11, 18, 19, 21, 22, 23, 27]",159.146338,19450,7772,17,39,8,1.142098432552584
basic,4,40,0,0,0,18,"[0, 1, 6, 9, 18]",5,9,"[2, 5, 8, 11, 19, 21, 22, 23, 27]",142.5933926,21944,2494,13,14,8,1.3288108654802917
basic,4,40,0,0,0,23,"[0, 1, 6, 9, 18, 23]",6,6,"[2, 5, 8, 19, 21, 22]",108.5933926,24897,2953,6,4,8,2.0180513009829646
basic,4,40,0,0,0,5,"[0, 1, 6, 9, 18, 23, 5]",7,2,"[19, 22]",80.29144922,27359,2462,2,0,8,1.786484562843798
basic,4,40,0,0,1,19,"[0, 1, 6, 9, 18, 23, 5, 19]",8,0,[],42.21258369,30340,2981,1,0,8,2.512757983735243
basic,4,40,0,1,1,19,"[0, 1, 6, 9, 18, 23, 5, 19]",8,0,[],42.21258369,32993,2653,1,0,8,2.512757983735243
basic,5,25,0,0,0,0,[0],1,28,"[1, 2, 3, 4, 5, 7, 8, 9, 10, 11, 12, 13, 14, 15, 16, 17, 18, 19, 20, 21, 22, 23, 24, 25, 26, 27, 28, 29]",300,177,-1,5,94,10,0.0
basic,5,25,0,0,0,23,"[0, 23]",2,23,"[1, 2, 3, 5, 7, 8, 9, 11, 12, 13, 14, 16, 17, 19, 20, 21, 22, 24, 25, 26, 27, 28, 29]",259.7756293,5347,5170,3,33,10,1.0
basic,5,25,0,0,0,19,"[0, 23, 19]",3,21,"[1, 2, 3, 5, 7, 8, 9, 11, 12, 13, 14, 16, 17, 20, 21, 22, 24, 25, 27, 28, 29]",223.9287326,7618,2271,3,24,10,1.583101227007039
basic,5,25,0,0,0,29,"[0, 23, 19, 29]",4,19,"[1, 2, 3, 5, 7, 8, 9, 11, 12, 13, 14, 16, 17, 20, 21, 22, 24, 25, 28]",207.649912,9241,1623,3,17,10,1.474631541426484
basic,5,25,0,0,0,22,"[0, 23, 19, 29, 22]",5,18,"[1, 2, 3, 5, 7, 8, 9, 11, 12, 13, 14, 16, 17, 20, 21, 24, 25, 28]",191.5253965,16623,7382,3,14,10,1.4020377754906637
basic,5,25,0,0,0,7,"[0, 23, 19, 29, 22, 7]",6,7,"[3, 8, 9, 11, 13, 24, 28]",115.8814939,20613,3990,3,11,10,1.5709678649326715
basic,5,25,0,0,0,24,"[0, 23, 19, 29, 22, 7, 24]",7,5,"[3, 8, 9, 13, 28]",91.12265712,23068,2455,3,7,10,1.486191600033379
basic,5,25,0,0,0,9,"[0, 23, 19, 29, 22, 7, 24, 9]",8,4,"[3, 8, 13, 28]",73.09490075,25096,2028,3,3,10,1.453504870342882
basic,5,25,0,0,0,3,"[0, 23, 19, 29, 22, 7, 24, 9, 3]",9,3,"[8, 13, 28]",42.82940885,26758,1662,3,0,10,1.388955167525479
basic,5,25,0,0,1,8,"[0, 23, 19, 29, 22, 7, 24, 9, 3, 8]",10,0,[],3.624817279,31157,4399,1,0,10,1.4820797135778283
basic,5,25,0,1,1,8,"[0, 23, 19, 29, 22, 7, 24, 9, 3, 8]",10,0,[],3.624817279,33027,1870,1,0,10,1.4820797135778283
basic,6,39,0,0,0,0,[0],1,28,"[1, 2, 3, 4, 5, 6, 7, 9, 10, 11, 12, 13, 14, 15, 16, 17, 18, 19, 20, 21, 22, 23, 24, 25, 26, 27, 28, 29]",300,164,-1,1,30,10,0.0
basic,6,39,0,0,0,29,"[0, 29]",2,26,"[1, 2, 3, 4, 5, 6, 7, 9, 10, 12, 13, 14, 15, 16, 17, 18, 19, 20, 21, 22, 23, 24, 25, 26, 27, 28]",243.0614366,6126,5962,8,104,9,1.0
basic,6,39,0,0,0,10,"[0, 29, 10]",3,19,"[1, 2, 4, 5, 7, 9, 12, 13, 14, 15, 16, 17, 18, 19, 22, 23, 24, 26, 28]",178.4239862,8585,2459,3,48,9,1.0231293692376968
basic,6,39,0,0,0,7,"[0, 29, 10, 7]",4,14,"[1, 2, 4, 5, 9, 12, 13, 15, 16, 18, 19, 22, 24, 26]",145.0024362,10376,1791,2,20,9,1.0186411966151707
basic,6,39,0,0,0,26,"[0, 29, 10, 7, 26]",5,9,"[1, 2, 5, 12, 13, 16, 18, 19, 22]",126.3208945,12520,2144,1,9,9,1.0752526811750318
basic,6,39,0,0,0,22,"[0, 29, 10, 7, 26, 22]",6,6,"[1, 5, 12, 16, 18, 19]",108.6008494,14138,1618,1,3,9,1.2360944063790367
basic,6,39,0,0,0,16,"[0, 29, 10, 7, 26, 22, 16]",7,2,"[18, 19]",73.6008494,16104,1966,1,1,9,1.1926155792040818
basic,6,39,0,0,0,19,"[0, 29, 10, 7, 26, 22, 16, 19]",8,1,[18],56.1366002,18258,2154,1,0,9,1.2089345217410772
basic,6,39,0,0,1,18,"[0, 29, 10, 7, 26, 22, 16, 19, 18]",9,0,[],12.96253391,20325,2067,1,0,9,1.2243548998729528
basic,6,39,0,1,1,18,"[0, 29, 10, 7, 26, 22, 16, 19, 18]",9,0,[],12.96253391,22475,2150,1,0,9,1.2243548998729528
basic,7,36,0,0,0,0,[0],1,24,"[2, 4, 5, 6, 7, 8, 9, 10, 12, 13, 14, 15, 16, 17, 18, 19, 20, 22, 23, 25, 26, 27, 28, 29]",300,217,-1,2,200,10,0.0
basic,7,36,0,0,0,13,"[0, 13]",2,19,"[2, 4, 7, 8, 9, 10, 12, 16, 17, 18, 19, 20, 22, 23, 25, 26, 27, 28, 29]",201.9184013,9945,9728,21,155,8,1.0
basic,7,36,0,0,0,25,"[0, 13, 25]",3,13,"[2, 4, 8, 9, 10, 12, 16, 17, 18, 19, 23, 27, 29]",181.327141,12087,2142,18,66,8,1.0365331328777645
basic,7,36,0,0,0,2,"[0, 13, 25, 2]",4,12,"[4, 8, 9, 10, 12, 16, 17, 18, 19, 23, 27, 29]",156.327141,14122,2035,17,20,8,1.272238559463773
basic,7,36,0,0,0,19,"[0, 13, 25, 2, 19]",5,6,"[9, 10, 12, 16, 17, 18]",119.2057186,17267,3145,6,5,8,2.3456051864674707
basic,7,36,0,0,0,9,"[0, 13, 25, 2, 19, 9]",6,4,"[12, 16, 17, 18]",104.0729727,18618,1351,2,2,8,2.836842075540071
basic,7,36,0,0,0,17,"[0, 13, 25, 2, 19, 9, 17]",7,1,[16],77.8241632,20733,2115,1,0,8,2.35070514339729
basic,7,36,0,0,1,16,"[0, 13, 25, 2, 19, 9, 17, 16]",8,0,[],49.50455869,22280,1547,1,0,8,2.3468253891748456
basic,7,36,0,1,1,16,"[0, 13, 25, 2, 19, 9, 17, 16]",8,0,[],49.50455869,24719,2439,1,0,8,2.3468253891748456
basic,8,17,0,0,0,0,[0],1,28,"[1, 2, 3, 4, 5, 6, 7, 8, 9, 10, 11, 12, 13, 14, 15, 16, 17, 18, 19, 20, 22, 23, 24, 25, 26, 27, 28, 29]",300,199,-1,2,73,8,0.0
basic,8,17,0,0,0,9,"[0, 9]",2,25,"[1, 2, 3, 5, 6, 7, 8, 10, 11, 12, 14, 15, 16, 17, 18, 19, 20, 22, 23, 24, 25, 26, 27, 28, 29]",210.5293344,4481,4282,1,34,8,1.0
basic,8,17,0,0,0,16,"[0, 9, 16]",3,21,"[1, 2, 3, 5, 7, 8, 10, 11, 12, 14, 17, 18, 19, 20, 22, 23, 25, 26, 27, 28, 29]",197.1876704,6009,1528,1,26,8,1.173103464220352
basic,8,17,0,0,0,2,"[0, 9, 16, 2]",4,18,"[1, 3, 5, 7, 8, 10, 11, 12, 14, 17, 18, 19, 23, 25, 26, 27, 28, 29]",181.0631549,9583,3574,1,23,8,1.14825089247282
basic,8,17,0,0,0,10,"[0, 9, 16, 2, 10]",5,4,"[3, 11, 23, 28]",71.04042993,18554,8971,3,2,7,1.2629477265421833
basic,8,17,0,0,0,11,"[0, 9, 16, 2, 10, 11]",6,1,[3],49.08593153,19901,1347,1,0,7,1.2370659942349713
basic,8,17,0,0,1,3,"[0, 9, 16, 2, 10, 11, 3]",7,0,[],22.91342687,21426,1525,1,0,7,1.4627126127553682
basic,8,17,0,1,1,3,"[0, 9, 16, 2, 10, 11, 3]",7,0,[],22.91342687,23697,2271,1,0,7,1.4627126127553682
basic,9,11,0,0,0,0,[0],1,25,"[1, 2, 3, 4, 5, 6, 8, 9, 10, 11, 12, 13, 14, 15, 16, 17, 18, 19, 20, 22, 23, 25, 26, 27, 28]",300,208,-1,6,374,12,0.0
basic,9,11,0,0,0,1,"[0, 1]",2,24,"[2, 3, 4, 5, 6, 8, 9, 10, 11, 12, 13, 14, 15, 16, 17, 18, 19, 20, 22, 23, 25, 26, 27, 28]",264.6446609,5212,5004,6,217,12,1.0
basic,9,11,0,0,0,18,"[0, 1, 18]",3,19,"[2, 4, 5, 6, 8, 9, 11, 12, 14, 15, 16, 17, 19, 20, 22, 23, 25, 27, 28]",212.3187591,8604,3392,6,161,12,1.3884463804898786
basic,9,11,0,0,0,27,"[0, 1, 18, 27]",4,18,"[2, 4, 5, 6, 8, 9, 11, 12, 14, 15, 16, 17, 19, 20, 22, 23, 25, 28]",188.4650382,10399,1795,6,155,12,1.3600813284083875
basic,9,11,0,0,0,17,"[0, 1, 18, 27, 17]",5,11,"[2, 5, 6, 8, 11, 12, 15, 19, 22, 25, 28]",111.3871556,13042,2643,2,45,12,1.282398281674261
basic,9,11,0,0,0,8,"[0, 1, 18, 27, 17, 8]",6,7,"[2, 5, 11, 12, 15, 22, 28]",97.0693345,14609,1567,2,21,12,1.3975291553712
basic,9,11,0,0,0,15,"[0, 1, 18, 27, 17, 8, 15]",7,6,"[2, 5, 11, 12, 22, 28]",83.61571045,16685,2076,2,18,12,1.3793915678186077
basic,9,11,0,0,0,11,"[0, 1, 18, 27, 17, 8, 15, 11]",8,4,"[2, 5, 22, 28]",65.50494017,18125,1440,2,14,12,1.3525960247899067
basic,9,11,0,0,0,28,"[0, 1, 18, 27, 17, 8, 15, 11, 28]",9,3,"[2, 5, 22]",46.08845233,20173,2048,2,4,12,1.4693669896690256
basic,9,11,0,0,0,2,"[0, 1, 18, 27, 17, 8, 15, 11, 28, 2]",10,2,"[5, 22]",35.45830652,22263,2090,2,0,11,1.482125145184235
basic,9,11,0,0,1,22,"[0, 1, 18, 27, 17, 8, 15, 11, 28, 2, 22]",11,0,[],25.4084309,25829,3566,1,0,11,1.4564579132739395
basic,9,11,0,1,1,22,"[0, 1, 18, 27, 17, 8, 15, 11, 28, 2, 22]",11,0,[],25.4084309,28554,2725,1,0,11,1.4564579132739395
basic,10,8,0,0,0,0,[0],1,29,"[1, 2, 3, 4, 5, 6, 7, 8, 9, 10, 11, 12, 13, 14, 15, 16, 17, 18, 19, 20, 21, 22, 23, 24, 25, 26, 27, 28, 29]",300,204,-1,10,149,9,0.0
basic,10,8,0,0,0,5,"[0, 5]",2,28,"[1, 2, 3, 4, 6, 7, 8, 9, 10, 11, 12, 13, 14, 15, 16, 17, 18, 19, 20, 21, 22, 23, 24, 25, 26, 27, 28, 29]",254.5137383,7213,7009,10,100,9,1.0
basic,10,8,0,0,0,25,"[0, 5, 25]",3,20,"[1, 2, 3, 4, 6, 11, 12, 14, 15, 16, 17, 18, 19, 20, 21, 22, 23, 24, 28, 29]",215.3091468,8986,1773,4,42,9,1.2272747879909065
basic,10,8,0,0,0,1,"[0, 5, 25, 1]",4,17,"[3, 4, 6, 11, 12, 14, 15, 16, 17, 18, 20, 21, 22, 23, 24, 28, 29]",190.3091468,10539,1553,3,24,9,1.1770245007593956
basic,10,8,0,0,0,23,"[0, 5, 25, 1, 23]",5,15,"[3, 4, 6, 11, 14, 15, 16, 17, 18, 20, 21, 22, 24, 28, 29]",167.2874179,12082,1543,1,14,9,1.141996583852372
basic,10,8,0,0,0,18,"[0, 5, 25, 1, 23, 18]",6,9,"[3, 4, 11, 14, 15, 16, 17, 24, 28]",125.5261919,14171,2089,1,7,9,1.3199166330970717
basic,10,8,0,0,0,14,"[0, 5, 25, 1, 23, 18, 14]",7,2,"[11, 17]",68.03706246,16449,2278,1,1,9,2.714920831666598
basic,10,8,0,0,0,17,"[0, 5, 25, 1, 23, 18, 14, 17]",8,1,[11],31.02355141,18331,1882,1,0,9,2.462600896722246
basic,10,8,0,0,1,11,"[0, 5, 25, 1, 23, 18, 14, 17, 11]",9,0,[],5.84419479,19689,1358,1,0,9,2.246839316887767
basic,10,8,0,1,1,11,"[0, 5, 25, 1, 23, 18, 14, 17, 11]",9,0,[],5.84419479,22357,2668,1,0,9,2.246839316887767
basic,11,10,0,0,0,0,[0],1,29,"[1, 2, 3, 4, 5, 6, 7, 8, 9, 10, 11, 12, 13, 14, 15, 16, 17, 18, 19, 20, 21, 22, 23, 24, 25, 26, 27, 28, 29]",300,179,-1,1,100,9,0.0
basic,11,10,0,0,0,13,"[0, 13]",2,25,"[1, 2, 3, 4, 6, 7, 8, 9, 10, 11, 12, 14, 17, 18, 19, 20, 21, 22, 23, 24, 25, 26, 27, 28, 29]",249.4628849,2751,2572,1,79,9,1.0
basic,11,10,0,0,0,11,"[0, 13, 11]",3,20,"[1, 2, 3, 6, 7, 8, 9, 10, 12, 14, 18, 19, 20, 21, 22, 24, 26, 27, 28, 29]",206.4512586,4842,2091,1,54,9,1.0313137484914219
basic,11,10,0,0,0,19,"[0, 13, 11, 19]",4,11,"[2, 6, 8, 9, 10, 14, 18, 20, 24, 26, 27]",170.0919407,6972,2130,1,22,9,1.0879446220132545
basic,11,10,0,0,0,2,"[0, 13, 11, 19, 2]",5,4,"[14, 20, 26, 27]",126.1829439,9493,2521,1,4,9,1.06474052351343
basic,11,10,0,0,0,14,"[0, 13, 11, 19, 2, 14]",6,3,"[20, 26, 27]",114.0174188,13310,3817,1,3,9,1.1628909195912238
basic,11,10,0,0,0,26,"[0, 13, 11, 19, 2, 14, 26]",7,2,"[20, 27]",79.34754716,17815,4505,1,1,9,1.6660727647633602
basic,11,10,0,0,0,20,"[0, 13, 11, 19, 2, 14, 26, 20]",8,1,[27],47.56704999,20296,2481,1,0,9,2.085581809637999
basic,11,10,0,0,1,27,"[0, 13, 11, 19, 2, 14, 26, 20, 27]",9,0,[],2.312215998,22474,2178,1,0,9,1.9116357409137932
basic,11,10,0,1,1,27,"[0, 13, 11, 19, 2, 14, 26, 20, 27]",9,0,[],2.312215998,24216,1742,1,0,9,1.9116357409137932
basic,12,33,0,0,0,0,[0],1,23,"[1, 2, 5, 7, 8, 11, 12, 13, 14, 15, 16, 17, 18, 19, 20, 21, 23, 24, 25, 26, 27, 28, 29]",300,280,-1,5,108,9,0.0
basic,12,33,0,0,0,8,"[0, 8]",2,22,"[1, 2, 5, 7, 11, 12, 13, 14, 15, 16, 17, 18, 19, 20, 21, 23, 24, 25, 26, 27, 28, 29]",265.8679037,4156,3876,5,87,9,1.0
basic,12,33,0,0,0,21,"[0, 8, 21]",3,16,"[2, 5, 7, 11, 13, 14, 16, 17, 18, 19, 20, 24, 26, 27, 28, 29]",166.0430571,7947,3791,5,80,9,1.0670557763739492
basic,12,33,0,0,0,13,"[0, 8, 21, 13]",4,12,"[2, 7, 11, 14, 16, 17, 18, 19, 20, 24, 26, 29]",139.6422995,13574,5627,4,54,9,1.0555103820910288
basic,12,33,0,0,0,19,"[0, 8, 21, 13, 19]",5,10,"[7, 11, 14, 16, 17, 18, 20, 24, 26, 29]",114.1472019,15769,2195,3,19,9,1.1090798607799486
basic,12,33,0,0,0,24,"[0, 8, 21, 13, 19, 24]",6,6,"[7, 14, 16, 18, 26, 29]",72.09960985,18270,2501,2,3,9,1.1193530461391534
basic,12,33,0,0,0,7,"[0, 8, 21, 13, 19, 24, 7]",7,2,"[14, 26]",42.89344611,20050,1780,2,0,9,1.2065014071663551
basic,12,33,0,0,0,14,"[0, 8, 21, 13, 19, 24, 7, 14]",8,1,[26],28.02737737,22436,2386,1,0,9,1.2536495746979057
basic,12,33,0,0,1,26,"[0, 8, 21, 13, 19, 24, 7, 14, 26]",9,0,[],15.37826672,24161,1725,1,0,9,1.2580465331304596
basic,12,33,0,1,1,26,"[0, 8, 21, 13, 19, 24, 7, 14, 26]",9,0,[],15.37826672,26158,1997,1,0,9,1.2580465331304596
basic,13,32,0,0,0,0,[0],1,29,"[1, 2, 3, 4, 5, 6, 7, 8, 9, 10, 11, 12, 13, 14, 15, 16, 17, 18, 19, 20, 21, 22, 23, 24, 25, 26, 27, 28, 29]",300,249,-1,17,359,10,0.0
basic,13,32,0,0,0,19,"[0, 19]",2,28,"[1, 2, 3, 4, 5, 6, 7, 8, 9, 10, 11, 12, 13, 14, 15, 16, 17, 18, 20, 21, 22, 23, 24, 25, 26, 27, 28, 29]",283.5075775,5081,4832,16,294,10,1.0
basic,13,32,0,0,0,13,"[0, 19, 13]",3,24,"[2, 3, 4, 5, 6, 8, 9, 10, 11, 12, 14, 15, 16, 17, 18, 20, 21, 22, 23, 24, 25, 26, 27, 28]",260.3127505,6674,1593,14,227,10,1.0172874229878615
basic,13,32,0,0,0,15,"[0, 19, 13, 15]",4,18,"[2, 3, 5, 8, 9, 10, 11, 12, 16, 17, 20, 22, 23, 24, 25, 26, 27, 28]",177.4393531,8314,1640,9,116,10,1.435447391509833
basic,13,32,0,0,0,28,"[0, 19, 13, 15, 28]",5,17,"[2, 3, 5, 8, 9, 10, 11, 12, 16, 17, 20, 22, 23, 24, 25, 26, 27]",166.0375988,9749,1435,9,70,10,1.3843701324937985
basic,13,32,0,0,0,12,"[0, 19, 13, 15, 28, 12]",6,14,"[2, 3, 5, 8, 9, 10, 11, 16, 17, 20, 22, 24, 26, 27]",147.0639329,11839,2090,6,35,10,1.358372254952329
basic,13,32,0,0,0,16,"[0, 19, 13, 15, 28, 12, 16]",7,13,"[2, 3, 5, 8, 9, 10, 11, 17, 20, 22, 24, 26, 27]",131.411457,13238,1399,5,15,10,1.4356932930709845
basic,13,32,0,0,0,22,"[0, 19, 13, 15, 28, 12, 16, 22]",8,6,"[2, 8, 9, 17, 20, 27]",97.57360838,15332,2094,3,5,10,1.4335226411545752
basic,13,32,0,0,0,9,"[0, 19, 13, 15, 28, 12, 16, 22, 9]",9,3,"[2, 8, 20]",75.37000507,17644,2312,3,0,10,1.4837166378374758
basic,13,32,0,0,1,20,"[0, 19, 13, 15, 28, 12, 16, 22, 9, 20]",10,0,[],12.72018464,27120,9476,1,0,10,1.420264208067807
basic,13,32,0,1,1,20,"[0, 19, 13, 15, 28, 12, 16, 22, 9, 20]",10,0,[],12.72018464,28956,1836,1,0,10,1.420264208067807
basic,14,6,0,0,0,0,[0],1,29,"[1, 2, 3, 4, 5, 6, 7, 8, 9, 10, 11, 12, 13, 14, 15, 16, 17, 18, 19, 20, 21, 22, 23, 24, 25, 26, 27, 28, 29]",300,164,-1,180,4304,10,0.0
basic,14,6,0,0,0,3,"[0, 3]",2,28,"[1, 2, 4, 5, 6, 7, 8, 9, 10, 11, 12, 13, 14, 15, 16, 17, 18, 19, 20, 21, 22, 23, 24, 25, 26, 27, 28, 29]",266.4738908,7680,7516,90,1607,10,1.0
basic,14,6,0,0,0,10,"[0, 3, 10]",3,27,"[1, 2, 4, 5, 6, 7, 8, 9, 11, 12, 13, 14, 15, 16, 17, 18, 19, 20, 21, 22, 23, 24, 25, 26, 27, 28, 29]",215.2293789,10918,3238,8,136,10,1.0050517746249001
basic,14,6,0,0,0,24,"[0, 3, 10, 24]",4,23,"[1, 2, 4, 5, 6, 7, 8, 11, 13, 14, 16, 17, 18, 19, 20, 21, 22, 23, 25, 26, 27, 28, 29]",201.812971,13374,2456,8,85,10,1.0091851911500884
basic,14,6,0,0,0,17,"[0, 3, 10, 24, 17]",5,19,"[1, 2, 4, 5, 6, 7, 8, 11, 13, 14, 16, 18, 20, 21, 22, 23, 26, 27, 29]",172.5384087,14961,1587,8,53,10,1.8060138032707682
basic,14,6,0,0,0,18,"[0, 3, 10, 24, 17, 18]",6,15,"[1, 2, 6, 7, 8, 13, 14, 16, 20, 21, 22, 23, 26, 27, 29]",158.6100204,16571,1610,7,36,10,2.3216150751946008
basic,14,6,0,0,0,16,"[0, 3, 10, 24, 17, 18, 16]",7,13,"[1, 2, 6, 7, 13, 14, 20, 21, 22, 23, 26, 27, 29]",135.2647853,17909,1338,7,21,10,2.2822729587843544
basic,14,6,0,0,0,29,"[0, 3, 10, 24, 17, 18, 16, 29]",8,7,"[6, 14, 20, 21, 22, 23, 27]",98.57691268,19735,1826,6,4,10,1.8911507070056388
basic,14,6,0,0,0,23,"[0, 3, 10, 24, 17, 18, 16, 29, 23]",9,2,"[6, 22]",51.05849519,24409,4674,2,0,10,1.8549852217940308
basic,14,6,0,0,1,6,"[0, 3, 10, 24, 17, 18, 16, 29, 23, 6]",10,0,[],15.70315613,26602,2193,1,0,10,1.7651720921259988
basic,14,6,0,1,1,6,"[0, 3, 10, 24, 17, 18, 16, 29, 23, 6]",10,0,[],15.70315613,32425,5823,1,0,10,1.7651720921259988
basic,15,38,0,0,0,0,[0],1,29,"[1, 2, 3, 4, 5, 6, 7, 8, 9, 10, 11, 12, 13, 14, 15, 16, 17, 18, 19, 20, 21, 22, 23, 24, 25, 26, 27, 28, 29]",300,171,-1,33,506,9,0.0
basic,15,38,0,0,0,19,"[0, 19]",2,23,"[3, 4, 5, 6, 7, 8, 9, 11, 13, 14, 15, 16, 17, 18, 20, 22, 23, 24, 25, 26, 27, 28, 29]",219.5015528,7552,7381,6,61,9,1.0
basic,15,38,0,0,0,17,"[0, 19, 17]",3,21,"[3, 4, 5, 6, 7, 9, 11, 13, 14, 15, 16, 18, 20, 22, 23, 24, 25, 26, 27, 28, 29]",198.1239945,8817,1265,6,53,9,1.571793785769489
basic,15,38,0,0,0,20,"[0, 19, 17, 20]",4,17,"[3, 4, 5, 6, 7, 11, 13, 14, 15, 16, 18, 22, 24, 25, 26, 27, 28]",174.3542658,10125,1308,6,44,9,2.333182710277297
basic,15,38,0,0,0,4,"[0, 19, 17, 20, 4]",5,10,"[5, 11, 13, 14, 15, 16, 24, 26, 27, 28]",140.4131403,13840,3715,5,22,9,2.276099229646013
basic,15,38,0,0,0,15,"[0, 19, 17, 20, 4, 15]",6,8,"[5, 11, 13, 14, 16, 24, 26, 28]",114.4131403,23006,9166,5,6,9,2.5292671156176403
basic,15,38,0,0,0,11,"[0, 19, 17, 20, 4, 15, 11]",7,2,"[16, 28]",78.01259089,24717,1711,2,0,9,2.778100109749787
basic,15,38,0,0,0,16,"[0, 19, 17, 20, 4, 15, 11, 16]",8,1,[28],41.01259089,26739,2022,1,0,9,2.366983861907762
basic,15,38,0,0,1,28,"[0, 19, 17, 20, 4, 15, 11, 16, 28]",9,0,[],12.01259089,29660,2921,1,0,9,2.696657905347566
basic,15,38,0,1,1,28,"[0, 19, 17, 20, 4, 15, 11, 16, 28]",9,0,[],12.01259089,31556,1896,1,0,9,2.696657905347566
basic,16,28,0,0,0,0,[0],1,27,"[1, 2, 3, 4, 5, 6, 7, 8, 9, 10, 11, 12, 13, 14, 15, 16, 17, 18, 19, 20, 22, 23, 25, 26, 27, 28, 29]",300,163,-1,2,96,9,0.0
basic,16,28,0,0,0,20,"[0, 20]",2,22,"[2, 3, 4, 5, 6, 7, 8, 9, 10, 11, 12, 13, 14, 15, 16, 18, 19, 22, 23, 26, 28, 29]",245.9629757,4497,4334,1,24,9,1.0
basic,16,28,0,0,0,3,"[0, 20, 3]",3,19,"[2, 4, 5, 6, 7, 8, 9, 10, 11, 12, 13, 14, 15, 16, 18, 19, 23, 26, 28]",204.6229224,6369,1872,9,50,8,1.9497218646689283
basic,16,28,0,0,0,5,"[0, 20, 3, 5]",4,13,"[2, 4, 7, 8, 9, 12, 13, 14, 15, 18, 19, 26, 28]",120.5277383,8630,2261,2,20,8,1.3767728943595041
basic,16,28,0,0,0,26,"[0, 20, 3, 5, 26]",5,11,"[2, 4, 7, 8, 9, 12, 13, 14, 18, 19, 28]",87.77105956,14306,5676,2,12,8,1.32061441211042
basic,16,28,0,0,0,19,"[0, 20, 3, 5, 26, 19]",6,5,"[2, 7, 12, 13, 18]",46.77105956,18293,3987,2,4,8,1.3869157506525107
basic,16,28,0,0,0,7,"[0, 20, 3, 5, 26, 19, 7]",7,2,"[12, 13]",19.04021032,20710,2417,2,0,8,1.4342899363887067
basic,16,28,0,0,1,12,"[0, 20, 3, 5, 26, 19, 7, 12]",8,0,[],5.887263878,25204,4494,1,0,8,1.4275803532406273
basic,16,28,0,1,1,12,"[0, 20, 3, 5, 26, 19, 7, 12]",8,0,[],5.887263878,26729,1525,1,0,8,1.4275803532406273
basic,17,34,0,0,0,0,[0],1,25,"[1, 3, 4, 5, 6, 7, 8, 9, 10, 11, 12, 13, 15, 18, 19, 20, 21, 22, 23, 24, 25, 26, 27, 28, 29]",300,179,-1,12,367,10,0.0
basic,17,34,0,0,0,13,"[0, 13]",2,24,"[1, 3, 4, 5, 6, 7, 8, 9, 10, 11, 12, 15, 18, 19, 20, 21, 22, 23, 24, 25, 26, 27, 28, 29]",279.9750156,7188,7009,12,331,10,1.0
basic,17,34,0,0,0,8,"[0, 13, 8]",3,20,"[1, 3, 4, 5, 7, 9, 10, 11, 12, 18, 19, 21, 22, 23, 24, 25, 26, 27, 28, 29]",214.4616582,8598,1410,1,79,10,1.0063334329411766
basic,17,34,0,0,0,1,"[0, 13, 8, 1]",4,13,"[3, 5, 7, 9, 10, 11, 12, 22, 23, 24, 25, 27, 29]",203.6913286,9668,1070,1,44,10,1.0937813141187471
basic,17,34,0,0,0,25,"[0, 13, 8, 1, 25]",5,12,"[3, 5, 7, 9, 10, 11, 12, 22, 23, 24, 27, 29]",183.6913286,11442,1774,1,29,10,1.1426448272826586
basic,17,34,0,0,0,24,"[0, 13, 8, 1, 25, 24]",6,11,"[3, 5, 7, 9, 10, 11, 12, 22, 23, 27, 29]",166.1984729,13257,1815,1,24,10,1.377349299931822
basic,17,34,0,0,0,12,"[0, 13, 8, 1, 25, 24, 12]",7,7,"[7, 9, 10, 11, 22, 23, 27]",115.1592723,15428,2171,1,8,10,1.5019265460864815
basic,17,34,0,0,0,7,"[0, 13, 8, 1, 25, 24, 12, 7]",8,5,"[9, 11, 22, 23, 27]",100.1259759,17231,1803,1,4,10,1.7617056238901172
basic,17,34,0,0,0,23,"[0, 13, 8, 1, 25, 24, 12, 7, 23]",9,1,[27],71.96572021,19146,1915,1,0,10,2.4030249481951738
basic,17,34,0,0,1,27,"[0, 13, 8, 1, 25, 24, 12, 7, 23, 27]",10,0,[],18.30008875,21473,2327,1,0,10,4.771833908648113
basic,17,34,0,1,1,27,"[0, 13, 8, 1, 25, 24, 12, 7, 23, 27]",10,0,[],18.30008875,23160,1687,1,0,10,4.771833908648113
basic,18,29,0,0,0,0,[0],1,29,"[1, 2, 3, 4, 5, 6, 7, 8, 9, 10, 11, 12, 13, 14, 15, 16, 17, 18, 19, 20, 21, 22, 23, 24, 25, 26, 27, 28, 29]",300,183,-1,1,78,9,0.0
basic,18,29,0,0,0,1,"[0, 1]",2,17,"[4, 5, 6, 7, 9, 10, 12, 13, 14, 15, 16, 17, 22, 25, 26, 27, 28]",214.2736913,6385,6202,12,79,8,1.0
basic,18,29,0,0,0,14,"[0, 1, 14]",3,15,"[4, 5, 6, 7, 9, 10, 12, 13, 15, 17, 22, 25, 26, 27, 28]",171.3202281,8697,2312,12,45,8,1.4217240517504397
basic,18,29,0,0,0,13,"[0, 1, 14, 13]",4,12,"[4, 5, 6, 7, 9, 12, 17, 22, 25, 26, 27, 28]",153.2924718,9818,1121,12,27,8,1.3553272959243952
basic,18,29,0,0,0,5,"[0, 1, 14, 13, 5]",5,10,"[4, 6, 7, 9, 12, 17, 22, 25, 27, 28]",127.5825515,11577,1759,11,13,8,1.3875785126283526
basic,18,29,0,0,0,4,"[0, 1, 14, 13, 5, 4]",6,3,"[7, 9, 12]",75.68842851,14005,2428,2,1,8,1.2760432982302738
basic,18,29,0,0,0,9,"[0, 1, 14, 13, 5, 4, 9]",7,1,[7],34.65185945,15865,1860,1,0,8,1.405533199105237
basic,18,29,0,0,1,7,"[0, 1, 14, 13, 5, 4, 9, 7]",8,0,[],5.582975742,18220,2355,1,0,8,1.7903067753418485
basic,18,29,0,1,1,7,"[0, 1, 14, 13, 5, 4, 9, 7]",8,0,[],5.582975742,19579,1359,1,0,8,1.7903067753418485
basic,19,45,0,0,0,0,[0],1,24,"[1, 2, 3, 4, 5, 6, 7, 9, 10, 11, 12, 14, 15, 16, 17, 19, 20, 21, 22, 23, 24, 25, 27, 29]",300,227,-1,6,248,10,0.0
basic,19,45,0,0,0,15,"[0, 15]",2,23,"[1, 2, 3, 4, 5, 6, 7, 9, 10, 11, 12, 14, 16, 17, 19, 20, 21, 22, 23, 24, 25, 27, 29]",253.9022777,3862,3635,5,207,10,1.0
basic,19,45,0,0,0,23,"[0, 15, 23]",3,22,"[1, 2, 3, 4, 5, 6, 7, 9, 10, 11, 12, 14, 16, 17, 19, 20, 21, 22, 24, 25, 27, 29]",230.3014303,5496,1634,5,163,10,1.0006068457769497
basic,19,45,0,0,0,20,"[0, 15, 23, 20]",4,19,"[1, 2, 3, 5, 6, 7, 9, 10, 11, 12, 14, 16, 17, 19, 21, 22, 24, 25, 29]",188.8647316,7142,1646,5,137,10,1.2062119754673604
basic,19,45,0,0,0,10,"[0, 15, 23, 20, 10]",5,12,"[2, 3, 6, 7, 9, 12, 14, 17, 22, 24, 25, 29]",132.784432,10273,3131,1,54,10,1.1363907740691004
basic,19,45,0,0,0,29,"[0, 15, 23, 20, 10, 29]",6,8,"[2, 3, 6, 7, 12, 14, 22, 24]",111.2437728,11805,1532,1,21,10,1.1719694806770014
basic,19,45,0,0,0,3,"[0, 15, 23, 20, 10, 29, 3]",7,5,"[2, 6, 7, 12, 22]",91.24377276,14626,2821,1,7,10,1.1637144299354454
basic,19,45,0,0,0,2,"[0, 15, 23, 20, 10, 29, 3, 2]",8,2,"[6, 7]",65.92579496,16440,1814,2,0,9,1.3965435955776868
basic,19,45,0,0,1,7,"[0, 15, 23, 20, 10, 29, 3, 2, 7]",9,0,[],27.91263934,18952,2512,1,0,9,2.050819128376323
basic,19,45,0,1,1,7,"[0, 15, 23, 20, 10, 29, 3, 2, 7]",9,0,[],27.91263934,21755,2803,1,0,9,2.050819128376323
basic,20,5,0,0,0,0,[0],1,29,"[1, 2, 3, 4, 5, 6, 7, 8, 9, 10, 11, 12, 13, 14, 15, 16, 17, 18, 19, 20, 21, 22, 23, 24, 25, 26, 27, 28, 29]",300,181,-1,5,139,9,0.0
basic,20,5,0,0,0,12,"[0, 12]",2,22,"[2, 4, 5, 6, 8, 9, 10, 13, 14, 15, 16, 17, 18, 19, 21, 22, 23, 24, 25, 26, 27, 28]",228.3062067,8627,8446,1,27,9,1.0
basic,20,5,0,0,0,25,"[0, 12, 25]",3,21,"[2, 4, 5, 6, 8, 9, 10, 13, 14, 15, 16, 17, 18, 19, 21, 22, 23, 24, 26, 27, 28]",200.5213187,10168,1541,1,20,9,1.584023303445617
basic,20,5,0,0,0,23,"[0, 12, 25, 23]",4,19,"[2, 4, 5, 6, 8, 9, 10, 13, 14, 15, 16, 17, 18, 19, 21, 22, 24, 26, 27]",182.0822298,12431,2263,1,14,9,2.3508446989254357
basic,20,5,0,0,0,24,"[0, 12, 25, 23, 24]",5,15,"[2, 4, 5, 6, 8, 9, 13, 14, 15, 17, 18, 19, 22, 26, 27]",158.995437,14245,1814,1,12,9,1.9469752046288753
basic,20,5,0,0,0,17,"[0, 12, 25, 23, 24, 17]",6,7,"[4, 5, 6, 8, 15, 18, 19]",124.0097257,16185,1940,1,8,9,1.6482276497563642
basic,20,5,0,0,0,5,"[0, 12, 25, 23, 24, 17, 5]",7,4,"[4, 6, 15, 18]",80.96323916,17872,1687,1,3,9,1.4654649104389412
basic,20,5,0,0,1,15,"[0, 12, 25, 23, 24, 17, 5, 15]",8,0,[],40.93824697,20628,2756,1,0,8,1.4660376450939663
basic,20,5,0,1,1,15,"[0, 12, 25, 23, 24, 17, 5, 15]",8,0,[],40.93824697,21837,1209,1,0,8,1.4660376450939663
basic,21,3,0,0,0,0,[0],1,29,"[1, 2, 3, 4, 5, 6, 7, 8, 9, 10, 11, 12, 13, 14, 15, 16, 17, 18, 19, 20, 21, 22, 23, 24, 25, 26, 27, 28, 29]",300,247,-1,34,427,10,0.0
basic,21,3,0,0,0,8,"[0, 8]",2,28,"[1, 2, 3, 4, 5, 6, 7, 9, 10, 11, 12, 13, 14, 15, 16, 17, 18, 19, 20, 21, 22, 23, 24, 25, 26, 27, 28, 29]",239.9666759,4524,4277,1,54,10,1.0
basic,21,3,0,0,0,24,"[0, 8, 24]",3,23,"[1, 2, 3, 4, 5, 6, 7, 10, 11, 12, 14, 15, 16, 17, 18, 19, 20, 21, 22, 25, 26, 27, 28]",227.8011509,6234,1710,1,50,10,1.2267083825981846
basic,21,3,0,0,0,17,"[0, 8, 24, 17]",4,11,"[3, 4, 7, 10, 14, 15, 16, 19, 20, 21, 27]",158.4469873,7924,1690,1,18,10,1.3836579788002414
basic,21,3,0,0,0,20,"[0, 8, 24, 17, 20]",5,9,"[3, 4, 7, 10, 14, 15, 16, 19, 21]",145.7978767,9517,1593,1,14,10,1.3620097615632467
basic,21,3,0,0,0,3,"[0, 8, 24, 17, 20, 3]",6,5,"[4, 10, 14, 19, 21]",125.4017986,11699,2182,1,11,10,1.3956695218398405
basic,21,3,0,0,0,19,"[0, 8, 24, 17, 20, 3, 19]",7,4,"[4, 10, 14, 21]",88.06548922,13458,1759,1,4,10,1.4360605238855817
basic,21,3,0,0,0,21,"[0, 8, 24, 17, 20, 3, 19, 21]",8,2,"[10, 14]",75.85893361,14776,1318,1,1,10,1.4576450248605066
basic,21,3,0,0,0,14,"[0, 8, 24, 17, 20, 3, 19, 21, 14]",9,1,[10],48.95168551,15932,1156,1,0,10,1.9505702217699148
basic,21,3,0,0,1,10,"[0, 8, 24, 17, 20, 3, 19, 21, 14, 10]",10,0,[],3.498412803,18911,2979,1,0,10,1.8830527336542522
basic,21,3,0,1,1,10,"[0, 8, 24, 17, 20, 3, 19, 21, 14, 10]",10,0,[],3.498412803,20129,1218,1,0,10,1.8830527336542522
basic,22,7,0,0,0,0,[0],1,29,"[1, 2, 3, 4, 5, 6, 7, 8, 9, 10, 11, 12, 13, 14, 15, 16, 17, 18, 19, 20, 21, 22, 23, 24, 25, 26, 27, 28, 29]",300,191,-1,3,79,9,0.0
basic,22,7,0,0,0,6,"[0, 6]",2,22,"[2, 4, 5, 7, 8, 9, 10, 11, 13, 14, 15, 16, 18, 19, 20, 21, 22, 23, 24, 25, 27, 28]",231.1160396,5232,5041,1,24,9,1.0
basic,22,7,0,0,0,25,"[0, 6, 25]",3,14,"[2, 4, 5, 7, 13, 14, 15, 16, 18, 19, 20, 21, 23, 28]",163.9371739,7214,1982,1,15,9,1.1491202566384209
basic,22,7,0,0,0,4,"[0, 6, 25, 4]",4,10,"[2, 7, 13, 15, 16, 18, 19, 20, 21, 23]",139.1985401,8681,1467,1,9,9,1.145081852791697
basic,22,7,0,0,0,20,"[0, 6, 25, 4, 20]",5,6,"[2, 7, 13, 16, 18, 19]",119.5516574,10340,1659,1,4,9,1.2036846139155144
basic,22,7,0,0,0,18,"[0, 6, 25, 4, 20, 18]",6,5,"[2, 7, 13, 16, 19]",106.7454089,11554,1214,1,3,9,1.3498144584217913
basic,22,7,0,0,0,7,"[0, 6, 25, 4, 20, 18, 7]",7,2,"[2, 19]",65.51435269,14239,2685,1,1,9,1.2817825700699357
basic,22,7,0,0,0,19,"[0, 6, 25, 4, 20, 18, 7, 19]",8,1,[2],36.10347035,15436,1197,1,0,9,1.3950287830764145
basic,22,7,0,0,1,2,"[0, 6, 25, 4, 20, 18, 7, 19, 2]",9,0,[],5.953843486,16778,1342,1,0,9,1.4010142439340676
basic,22,7,0,1,1,2,"[0, 6, 25, 4, 20, 18, 7, 19, 2]",9,0,[],5.953843486,18187,1409,1,0,9,1.4010142439340676
undo,23,31,0,0,0,0,[0],1,27,"[1, 3, 4, 5, 6, 7, 8, 10, 11, 12, 13, 14, 15, 16, 17, 18, 19, 20, 21, 22, 23, 24, 25, 26, 27, 28, 29]",300,232,-1,2,87,10,0.0
undo,23,31,0,0,0,14,"[0, 14]",2,25,"[1, 3, 5, 6, 7, 8, 10, 11, 12, 13, 15, 16, 17, 18, 19, 20, 21, 22, 23, 24, 25, 26, 27, 28, 29]",263.861378,8218,7986,2,59,10,1.0
undo,23,31,0,0,0,27,"[0, 14, 27]",3,22,"[1, 3, 5, 6, 7, 8, 10, 11, 12, 13, 15, 16, 17, 18, 19, 20, 21, 22, 24, 25, 28, 29]",235.6833724,10330,2112,1,39,10,1.5881859159302467
undo,23,31,0,0,0,8,"[0, 14, 27, 8]",4,20,"[1, 3, 5, 6, 7, 10, 11, 12, 13, 16, 17, 18, 19, 20, 21, 22, 24, 25, 28, 29]",224.6380114,12410,2080,1,36,10,2.1665048452331277
undo,23,31,0,0,0,18,"[0, 14, 27, 8, 18]",5,15,"[1, 5, 6, 7, 11, 12, 13, 16, 17, 19, 20, 22, 25, 28, 29]",188.7911147,14294,1884,1,26,10,1.7273375741920205
undo,23,31,0,0,0,17,"[0, 14, 27, 8, 18, 17]",6,13,"[1, 5, 6, 7, 11, 12, 13, 16, 19, 20, 22, 25, 28]",159.584951,18422,4128,1,13,10,1.551192427769927
undo,23,31,0,0,0,11,"[0, 14, 27, 8, 18, 17, 11]",7,7,"[5, 12, 16, 19, 22, 25, 28]",118.4753414,20189,1767,1,4,10,2.9650760544203494
undo,23,31,0,0,0,5,"[0, 14, 27, 8, 18, 17, 11, 5]",8,2,"[16, 28]",74.79468207,21651,1462,1,1,10,2.56711965625205
undo,23,31,0,0,0,28,"[0, 14, 27, 8, 18, 17, 11, 5, 28]",9,1,[16],54.57093365,22988,1337,1,0,10,2.2865510762058148
undo,23,31,0,0,1,16,"[0, 14, 27, 8, 18, 17, 11, 5, 28, 16]",10,0,[],20.95546102,25399,2411,1,0,10,2.089356850786318
undo,23,31,0,1,1,16,"[0, 14, 27, 8, 18, 17, 11, 5, 28, 16]",10,0,[],20.95546102,26949,1550,1,0,10,2.089356850786318
undo,24,0,0,0,0,0,[0],1,27,"[2, 3, 4, 5, 6, 7, 8, 9, 10, 11, 12, 13, 14, 15, 16, 17, 19, 20, 21, 22, 23, 24, 25, 26, 27, 28, 29]",300,214,-1,104,1136,9,0.0
undo,24,0,0,0,0,28,"[0, 28]",2,26,"[2, 3, 4, 5, 6, 7, 8, 9, 10, 11, 12, 13, 14, 15, 16, 17, 19, 20, 21, 22, 23, 24, 25, 26, 27, 29]",194.9190788,4215,4001,39,388,9,1.0
undo,24,0,0,0,0,5,"[0, 28, 5]",3,21,"[2, 3, 4, 7, 8, 9, 11, 12, 13, 14, 15, 16, 17, 19, 20, 21, 23, 24, 25, 26, 29]",151.2613189,5636,1421,27,210,9,1.0978295127671733
undo,24,0,0,0,0,4,"[0, 28, 5, 4]",4,16,"[3, 7, 8, 9, 11, 12, 13, 14, 15, 17, 19, 20, 21, 23, 24, 26]",126.1814465,7541,1905,17,114,9,1.1103727063761901
undo,24,0,0,0,0,26,"[0, 28, 5, 4, 26]",5,14,"[3, 7, 8, 9, 11, 12, 13, 14, 15, 17, 19, 20, 23, 24]",114.1398519,12852,5311,7,54,9,1.1504454351688815
undo,24,0,0,0,0,24,"[0, 28, 5, 4, 26, 24]",6,11,"[3, 7, 8, 9, 11, 12, 15, 17, 19, 20, 23]",97.02260914,14239,1387,7,22,9,1.2166555899566422
undo,24,0,0,0,0,15,"[0, 28, 5, 4, 26, 24, 15]",7,7,"[3, 7, 8, 9, 11, 12, 17]",73.67737408,16141,1902,4,5,9,1.1972898774231708
undo,24,0,0,0,0,7,"[0, 28, 5, 4, 26, 24, 15, 7]",8,2,"[3, 8]",42.61292495,20061,3920,2,0,9,1.2554869594545575
undo,24,0,0,0,1,8,"[0, 28, 5, 4, 26, 24, 15, 7, 8]",9,0,[],23.50795177,22808,2747,1,0,9,1.2428648875079442
undo,24,0,0,1,1,8,"[0, 28, 5, 4, 26, 24, 15, 7, 8]",9,0,[],23.50795177,25557,2749,1,0,9,1.2428648875079442
undo,25,3,0,0,0,0,[0],1,29,"[1, 2, 3, 4, 5, 6, 7, 8, 9, 10, 11, 12, 13, 14, 15, 16, 17, 18, 19, 20, 21, 22, 23, 24, 25, 26, 27, 28, 29]",300,234,-1,34,427,10,0.0
undo,25,3,0,0,0,17,"[0, 17]",2,16,"[3, 4, 7, 8, 10, 12, 14, 15, 16, 19, 20, 21, 22, 24, 26, 27]",197.6965299,6558,6324,2,27,9,1.0
undo,25,3,0,0,0,20,"[0, 17, 20]",3,13,"[3, 4, 7, 8, 10, 14, 15, 16, 19, 21, 22, 24, 27]",185.0474192,12196,5638,2,24,9,1.0153332121237257
undo,25,3,0,0,0,3,"[0, 17, 20, 3]",4,10,"[4, 7, 8, 10, 14, 15, 16, 19, 21, 24]",164.6513412,13588,1392,2,22,9,1.0819240770773468
undo,25,3,0,0,0,19,"[0, 17, 20, 3, 19]",5,6,"[4, 8, 10, 14, 21, 24]",127.3150318,15906,2318,2,11,9,1.1701070532957258
undo,25,3,0,0,0,21,"[0, 17, 20, 3, 19, 21]",6,5,"[4, 8, 10, 14, 24]",115.1084762,17795,1889,2,6,9,1.202395500952127
undo,25,3,0,0,0,14,"[0, 17, 20, 3, 19, 21, 14]",7,4,"[4, 8, 10, 24]",88.20122806,20308,2513,2,2,9,1.6456130302761207
undo,25,3,0,0,0,24,"[0, 17, 20, 3, 19, 21, 14, 24]",8,1,[8],17.08864127,24715,4407,1,0,9,4.806859660680286
undo,25,3,0,0,1,8,"[0, 17, 20, 3, 19, 21, 14, 24, 8]",9,0,[],4.923116212,26435,1720,1,0,9,4.915218144486606
undo,25,3,0,1,1,8,"[0, 17, 20, 3, 19, 21, 14, 24, 8]",9,0,[],4.923116212,28521,2086,1,0,9,4.915218144486606
undo,26,7,0,0,0,0,[0],1,29,"[1, 2, 3, 4, 5, 6, 7, 8, 9, 10, 11, 12, 13, 14, 15, 16, 17, 18, 19, 20, 21, 22, 23, 24, 25, 26, 27, 28, 29]",300,181,-1,3,79,9,0.0
undo,26,7,0,0,0,25,"[0, 25]",2,20,"[2, 3, 4, 5, 6, 7, 10, 13, 14, 15, 16, 18, 19, 20, 21, 22, 23, 24, 27, 28]",181.5939191,5067,4886,5,33,8,1.0
undo,26,7,0,0,0,4,"[0, 25, 4]",3,11,"[2, 6, 7, 13, 15, 16, 18, 19, 20, 21, 23]",156.8552853,7272,2205,2,14,8,1.0193465608331511
undo,26,7,0,0,0,20,"[0, 25, 4, 20]",4,8,"[2, 6, 7, 13, 15, 16, 18, 19]",137.2084026,8932,1660,1,9,8,1.085904909082323
undo,26,7,0,0,0,18,"[0, 25, 4, 20, 18]",5,7,"[2, 6, 7, 13, 15, 16, 19]",124.4021541,10077,1145,1,5,8,1.2264883846453758
undo,26,7,0,0,0,7,"[0, 25, 4, 20, 18, 7]",6,2,"[2, 19]",83.17109789,12308,2231,1,1,8,1.185264473968278
undo,26,7,0,0,0,19,"[0, 25, 4, 20, 18, 7, 19]",7,1,[2],53.76021555,14663,2355,1,0,8,1.3016904288278204
undo,26,7,0,0,1,2,"[0, 25, 4, 20, 18, 7, 19, 2]",8,0,[],23.61058868,16836,2173,1,0,8,1.3168868000947171
undo,26,7,0,1,1,2,"[0, 25, 4, 20, 18, 7, 19, 2]",8,0,[],23.61058868,24032,7196,1,0,8,1.3168868000947171
undo,27,15,0,0,0,0,[0],1,25,"[1, 2, 3, 4, 7, 8, 9, 10, 11, 12, 13, 14, 15, 16, 18, 20, 21, 22, 23, 24, 25, 26, 27, 28, 29]",300,163,-1,4,65,9,0.0
undo,27,15,0,0,0,16,"[0, 16]",2,16,"[3, 4, 7, 9, 10, 11, 12, 13, 14, 15, 18, 20, 21, 22, 25, 27]",185.8378346,6057,5894,22,104,7,1.0
undo,27,15,0,0,0,3,"[0, 16, 3]",3,14,"[4, 7, 10, 11, 12, 13, 14, 15, 18, 20, 21, 22, 25, 27]",160.7579622,13938,7881,8,31,7,1.0518498474119804
undo,27,15,0,0,0,11,"[0, 16, 3, 11]",4,11,"[4, 7, 10, 12, 13, 14, 15, 18, 21, 22, 27]",149.356208,15152,1214,7,11,7,1.2132134560241312
undo,27,15,0,0,0,7,"[0, 16, 3, 11, 7]",5,4,"[4, 12, 21, 22]",107.871271,17880,2728,1,3,7,2.2653602701959374
undo,27,15,0,0,0,12,"[0, 16, 3, 11, 7, 12]",6,1,[21],74.62973068,20169,2289,1,0,7,2.606874218069835
undo,27,15,0,0,1,21,"[0, 16, 3, 11, 7, 12, 21]",7,0,[],30.80051668,24146,3977,1,0,7,2.8311702584977176
undo,27,15,1,0,0,12,"[0, 16, 3, 11, 7, 12]",6,1,[21],74.62973068,29192,5046,1,0,7,2.606874218069835
undo,27,15,1,0,0,7,"[0, 16, 3, 11, 7]",5,4,"[4, 12, 21, 22]",107.871271,29929,737,1,3,7,2.2653602701959374
undo,27,15,1,0,0,11,"[0, 16, 3, 11]",4,11,"[4, 7, 10, 12, 13, 14, 15, 18, 21, 22, 27]",149.356208,30581,652,7,11,7,1.2132134560241312
undo,27,15,1,0,0,3,"[0, 16, 3]",3,14,"[4, 7, 10, 11, 12, 13, 14, 15, 18, 20, 21, 22, 25, 27]",160.7579622,31654,1073,8,31,7,1.0518498474119804
undo,27,15,1,0,0,16,"[0, 16]",2,16,"[3, 4, 7, 9, 10, 11, 12, 13, 14, 15, 18, 20, 21, 22, 25, 27]",185.8378346,32759,1105,22,104,7,1.0
undo,27,15,1,0,0,0,[0],1,25,"[1, 2, 3, 4, 7, 8, 9, 10, 11, 12, 13, 14, 15, 16, 18, 20, 21, 22, 23, 24, 25, 26, 27, 28, 29]",300,38219,5460,4,65,9,0.0
undo,27,15,0,0,0,7,"[0, 7]",2,23,"[1, 3, 4, 8, 9, 10, 11, 12, 13, 14, 15, 16, 18, 20, 21, 22, 23, 24, 25, 26, 27, 28, 29]",215.1884442,40788,2569,30,107,8,1.0
undo,27,15,0,0,0,16,"[0, 7, 16]",3,14,"[3, 4, 9, 10, 11, 12, 13, 14, 15, 18, 21, 22, 25, 27]",171.5306843,44874,4086,11,27,8,1.1253230463291073
undo,27,15,0,0,0,11,"[0, 7, 16, 11]",4,10,"[3, 4, 12, 13, 14, 15, 18, 21, 22, 27]",145.5114606,46190,1316,6,10,8,1.2441772230587118
undo,27,15,0,0,0,3,"[0, 7, 16, 11, 3]",5,8,"[4, 12, 13, 14, 15, 18, 21, 22]",134.1097064,47790,1600,6,4,8,1.253153736954923
undo,27,15,0,0,0,22,"[0, 7, 16, 11, 3, 22]",6,5,"[4, 13, 14, 15, 18]",84.38043933,50173,2383,2,3,8,1.249784727890499
undo,27,15,0,0,0,13,"[0, 7, 16, 11, 3, 22, 13]",7,1,[15],56.22018365,54422,4249,1,0,8,1.2168322223118198
undo,27,15,0,0,1,15,"[0, 7, 16, 11, 3, 22, 13, 15]",8,0,[],40.95584612,56107,1685,1,0,8,1.3190981999760136
undo,27,15,0,1,1,15,"[0, 7, 16, 11, 3, 22, 13, 15]",8,0,[],40.95584612,59156,3049,1,0,8,1.3190981999760136
undo,28,1,0,0,0,0,[0],1,26,"[1, 2, 4, 5, 7, 8, 9, 10, 11, 12, 13, 14, 15, 16, 17, 18, 19, 20, 21, 22, 23, 24, 25, 26, 28, 29]",300,162,-1,6,74,7,0.0
undo,28,1,0,0,0,26,"[0, 26]",2,12,"[1, 5, 7, 8, 14, 16, 17, 18, 19, 20, 21, 24]",201.5876024,12207,12045,8,23,6,1.0
undo,28,1,0,0,0,19,"[0, 26, 19]",3,10,"[1, 5, 7, 8, 14, 16, 17, 18, 20, 24]",162.9611866,13686,1479,6,8,6,1.1347243455071356
undo,28,1,0,0,0,8,"[0, 26, 19, 8]",4,6,"[5, 14, 17, 18, 20, 24]",109.8104575,17105,3419,2,5,6,1.940709617346939
undo,28,1,1,0,0,19,"[0, 26, 19]",3,10,"[1, 5, 7, 8, 14, 16, 17, 18, 20, 24]",162.9611866,23478,6373,6,8,6,1.1347243455071356
undo,28,1,1,0,0,26,"[0, 26]",2,12,"[1, 5, 7, 8, 14, 16, 17, 18, 19, 20, 21, 24]",201.5876024,24082,604,8,23,6,1.0
undo,28,1,1,0,0,0,[0],1,26,"[1, 2, 4, 5, 7, 8, 9, 10, 11, 12, 13, 14, 15, 16, 17, 18, 19, 20, 21, 22, 23, 24, 25, 26, 28, 29]",300,24801,719,6,74,7,0.0
undo,28,1,0,0,0,14,"[0, 14]",2,19,"[1, 4, 5, 8, 9, 13, 15, 17, 18, 19, 20, 21, 22, 23, 24, 25, 26, 28, 29]",200.1901808,27757,2956,5,42,7,1.0
undo,28,1,0,0,0,17,"[0, 14, 17]",3,15,"[1, 4, 5, 8, 9, 13, 15, 18, 19, 20, 22, 23, 25, 28, 29]",147.8356204,29068,1311,5,27,7,1.0028844724416826
undo,28,1,0,0,0,1,"[0, 14, 17, 1]",4,12,"[4, 5, 8, 9, 15, 18, 20, 22, 23, 25, 28, 29]",123.4840291,31592,2524,5,15,7,1.0264985578353567
undo,28,1,0,0,0,28,"[0, 14, 17, 1, 28]",5,5,"[9, 15, 22, 23, 29]",88.59850198,33043,1451,5,3,7,1.0339861575999345
undo,28,1,0,0,0,23,"[0, 14, 17, 1, 28, 23]",6,2,"[15, 22]",51.70676849,35265,2222,2,0,7,1.0327458250705703
undo,28,1,0,0,1,15,"[0, 14, 17, 1, 28, 23, 15]",7,0,[],20.81987807,36869,1604,1,0,7,1.1948681641401226
undo,28,1,0,1,1,15,"[0, 14, 17, 1, 28, 23, 15]",7,0,[],20.81987807,39340,2471,1,0,7,1.1948681641401226
undo,29,40,0,0,0,0,[0],1,29,"[1, 2, 3, 4, 5, 6, 7, 8, 9, 10, 11, 12, 13, 14, 15, 16, 17, 18, 19, 20, 21, 22, 23, 24, 25, 26, 27, 28, 29]",300,167,-1,8,191,9,0.0
undo,29,40,0,0,0,1,"[0, 1]",2,18,"[2, 5, 6, 7, 8, 9, 10, 11, 13, 15, 17, 18, 19, 21, 22, 23, 27, 29]",247.8463808,5413,5246,4,80,9,1.0
undo,29,40,0,0,0,6,"[0, 1, 6]",3,17,"[2, 5, 7, 8, 9, 10, 11, 13, 15, 17, 18, 19, 21, 22, 23, 27, 29]",227.7466295,8786,3373,4,74,9,1.0459427008232034
undo,29,40,0,0,0,23,"[0, 1, 6, 23]",4,15,"[2, 5, 7, 8, 9, 10, 11, 13, 17, 18, 19, 21, 22, 27, 29]",158.176521,11316,2530,12,41,8,1.4952830531485621
undo,29,40,0,0,0,19,"[0, 1, 6, 23, 19]",5,11,"[2, 5, 7, 8, 9, 10, 18, 21, 22, 27, 29]",126.2234304,17641,6325,5,11,8,1.6938703560433817
undo,29,40,0,0,0,5,"[0, 1, 6, 23, 19, 5]",6,3,"[9, 18, 22]",88.14456485,19686,2045,2,1,8,1.722629652357085
undo,29,40,0,0,0,18,"[0, 1, 6, 23, 19, 5, 18]",7,1,[9],56.56925804,21745,2059,1,0,8,2.0550180214885767
undo,29,40,0,0,1,9,"[0, 1, 6, 23, 19, 5, 18, 9]",8,0,[],40.01631268,23201,1456,1,0,8,2.108052836974967
undo,29,40,0,1,1,9,"[0, 1, 6, 23, 19, 5, 18, 9]",8,0,[],40.01631268,25859,2658,1,0,8,2.108052836974967
undo,30,12,0,0,0,0,[0],1,29,"[1, 2, 3, 4, 5, 6, 7, 8, 9, 10, 11, 12, 13, 14, 15, 16, 17, 18, 19, 20, 21, 22, 23, 24, 25, 26, 27, 28, 29]",300,199,-1,2,32,9,0.0
undo,30,12,0,0,0,22,"[0, 22]",2,22,"[2, 4, 5, 6, 7, 9, 10, 12, 13, 14, 15, 16, 17, 18, 19, 21, 23, 24, 25, 27, 28, 29]",211.9943184,4393,4194,6,42,8,1.0
undo,30,12,0,0,0,16,"[0, 22, 16]",3,12,"[2, 4, 5, 6, 7, 12, 14, 19, 23, 24, 25, 27]",190.9943184,5630,1237,6,24,8,1.2017164145167045
undo,30,12,0,0,0,4,"[0, 22, 16, 4]",4,9,"[2, 6, 7, 12, 14, 19, 24, 25, 27]",156.7890556,7047,1417,6,14,8,1.146531713305579
undo,30,12,0,0,0,12,"[0, 22, 16, 4, 12]",5,4,"[14, 19, 24, 27]",114.5990094,8721,1674,4,3,8,1.1221389456954312
undo,30,12,0,0,0,27,"[0, 22, 16, 4, 12, 27]",6,3,"[14, 19, 24]",90.24741807,10424,1703,2,1,8,1.2262878338287035
undo,30,12,0,0,0,14,"[0, 22, 16, 4, 12, 27, 14]",7,1,[24],61.59432051,12282,1858,1,0,8,1.2804562106751427
undo,30,12,0,0,1,24,"[0, 22, 16, 4, 12, 27, 14, 24]",8,0,[],44.38966997,14372,2090,1,0,8,1.4322660007679802
undo,30,12,1,0,0,14,"[0, 22, 16, 4, 12, 27, 14]",7,1,[24],61.59432051,18672,4300,1,0,8,1.2804562106751427
undo,30,12,1,0,0,27,"[0, 22, 16, 4, 12, 27]",6,3,"[14, 19, 24]",90.24741807,19175,503,2,1,8,1.2262878338287035
undo,30,12,1,0,0,12,"[0, 22, 16, 4, 12]",5,4,"[14, 19, 24, 27]",114.5990094,19543,368,4,3,8,1.1221389456954312
undo,30,12,1,0,0,4,"[0, 22, 16, 4]",4,9,"[2, 6, 7, 12, 14, 19, 24, 25, 27]",156.7890556,19928,385,6,14,8,1.146531713305579
undo,30,12,1,0,0,16,"[0, 22, 16]",3,12,"[2, 4, 5, 6, 7, 12, 14, 19, 23, 24, 25, 27]",190.9943184,20364,436,6,24,8,1.2017164145167045
undo,30,12,1,0,0,22,"[0, 22]",2,22,"[2, 4, 5, 6, 7, 9, 10, 12, 13, 14, 15, 16, 17, 18, 19, 21, 23, 24, 25, 27, 28, 29]",211.9943184,20934,570,6,42,8,1.0
undo,30,12,1,0,0,0,[0],1,29,"[1, 2, 3, 4, 5, 6, 7, 8, 9, 10, 11, 12, 13, 14, 15, 16, 17, 18, 19, 20, 21, 22, 23, 24, 25, 26, 27, 28, 29]",300,23781,2847,2,32,9,0.0
undo,30,12,0,0,0,25,"[0, 25]",2,16,"[2, 4, 5, 6, 7, 9, 12, 14, 16, 18, 19, 22, 23, 24, 27, 28]",225.7975742,28788,5007,5,34,8,1.0
undo,30,12,0,0,0,22,"[0, 25, 22]",3,11,"[2, 4, 5, 6, 7, 12, 14, 16, 19, 24, 27]",153.5964661,32631,3843,1,10,8,1.6635691148622656
undo,30,12,0,0,0,16,"[0, 25, 22, 16]",4,7,"[4, 6, 12, 14, 19, 24, 27]",132.5964661,34122,1491,1,6,8,1.8455145785330662
undo,30,12,0,0,0,4,"[0, 25, 22, 16, 4]",5,5,"[12, 14, 19, 24, 27]",98.39120339,37454,3332,1,4,8,1.6140587576122385
undo,30,12,0,0,0,12,"[0, 25, 22, 16, 4, 12]",6,2,"[14, 27]",56.20115717,39053,1599,1,1,8,1.4755917731057815
undo,30,12,0,0,0,27,"[0, 25, 22, 16, 4, 12, 27]",7,1,[14],31.84956584,41206,2153,1,0,8,1.5677023473114235
undo,30,12,0,0,1,14,"[0, 25, 22, 16, 4, 12, 27, 14]",8,0,[],3.196468279,43037,1831,1,0,8,1.5941060060123788
undo,30,12,0,1,1,14,"[0, 25, 22, 16, 4, 12, 27, 14]",8,0,[],3.196468279,45856,2819,1,0,8,1.5941060060123788
undo,31,22,0,0,0,0,[0],1,29,"[1, 2, 3, 4, 5, 6, 7, 8, 9, 10, 11, 12, 13, 14, 15, 16, 17, 18, 19, 20, 21, 22, 23, 24, 25, 26, 27, 28, 29]",300,214,-1,31,704,9,0.0
undo,31,22,0,0,0,29,"[0, 29]",2,22,"[1, 3, 5, 6, 7, 8, 9, 11, 13, 14, 15, 16, 17, 19, 20, 21, 22, 23, 24, 25, 27, 28]",222.9935068,3107,2893,11,235,9,1.0
undo,31,22,0,0,0,19,"[0, 29, 19]",3,18,"[1, 3, 6, 7, 8, 9, 13, 14, 15, 16, 17, 20, 21, 22, 23, 24, 25, 28]",207.9602104,4785,1678,11,172,9,1.1559285443414686
undo,31,22,0,0,0,9,"[0, 29, 19, 9]",4,16,"[1, 3, 6, 7, 8, 13, 14, 15, 16, 17, 20, 21, 22, 24, 25, 28]",187.5641323,6520,1735,7,84,9,1.2555028175473422
undo,31,22,0,0,0,7,"[0, 29, 19, 9, 7]",5,12,"[1, 3, 6, 13, 14, 15, 16, 17, 20, 21, 24, 28]",142.9659261,8329,1809,3,29,9,1.248624465786786
undo,31,22,0,0,0,14,"[0, 29, 19, 9, 7, 14]",6,9,"[1, 3, 6, 16, 17, 20, 21, 24, 28]",129.9275213,10293,1964,3,10,9,1.312880272547657
undo,31,22,0,0,0,17,"[0, 29, 19, 9, 7, 14, 17]",7,3,"[3, 21, 24]",80.34930026,19779,9486,2,2,9,1.3899437740576093
undo,31,22,0,0,1,24,"[0, 29, 19, 9, 7, 14, 17, 24]",8,0,[],26.74892712,21846,2067,1,0,8,2.037145995702669
undo,31,22,1,0,0,17,"[0, 29, 19, 9, 7, 14, 17]",7,3,"[3, 21, 24]",80.34930026,23799,1953,2,2,9,1.3899437740576093
undo,31,22,1,0,0,14,"[0, 29, 19, 9, 7, 14]",6,9,"[1, 3, 6, 16, 17, 20, 21, 24, 28]",129.9275213,24117,318,3,10,9,1.312880272547657
undo,31,22,1,0,0,7,"[0, 29, 19, 9, 7]",5,12,"[1, 3, 6, 13, 14, 15, 16, 17, 20, 21, 24, 28]",142.9659261,24469,352,3,29,9,1.248624465786786
undo,31,22,1,0,0,9,"[0, 29, 19, 9]",4,16,"[1, 3, 6, 7, 8, 13, 14, 15, 16, 17, 20, 21, 22, 24, 25, 28]",187.5641323,24771,302,7,84,9,1.2555028175473422
undo,31,22,1,0,0,19,"[0, 29, 19]",3,18,"[1, 3, 6, 7, 8, 9, 13, 14, 15, 16, 17, 20, 21, 22, 23, 24, 25, 28]",207.9602104,25022,251,11,172,9,1.1559285443414686
undo,31,22,1,0,0,29,"[0, 29]",2,22,"[1, 3, 5, 6, 7, 8, 9, 11, 13, 14, 15, 16, 17, 19, 20, 21, 22, 23, 24, 25, 27, 28]",222.9935068,25340,318,11,235,9,1.0
undo,31,22,1,0,0,0,[0],1,29,"[1, 2, 3, 4, 5, 6, 7, 8, 9, 10, 11, 12, 13, 14, 15, 16, 17, 18, 19, 20, 21, 22, 23, 24, 25, 26, 27, 28, 29]",300,25793,453,31,704,9,0.0
undo,31,22,0,0,0,16,"[0, 16]",2,21,"[1, 3, 6, 7, 8, 9, 11, 13, 14, 15, 17, 18, 19, 20, 21, 22, 24, 25, 27, 28, 29]",218.605897,28311,2518,17,147,9,1.0
undo,31,22,0,0,0,28,"[0, 16, 28]",3,13,"[6, 7, 9, 13, 14, 17, 19, 20, 21, 22, 24, 25, 29]",184.1675463,31143,2832,12,61,9,1.047282311284478
undo,31,22,0,0,0,6,"[0, 16, 28, 6]",4,12,"[7, 9, 13, 14, 17, 19, 20, 21, 22, 24, 25, 29]",154.1675463,32295,1152,12,43,9,1.645645870580622
undo,31,22,0,0,0,9,"[0, 16, 28, 6, 9]",5,8,"[7, 14, 17, 19, 20, 21, 24, 29]",127.5404924,33766,1471,8,17,9,1.925750226630103
undo,31,22,0,0,0,19,"[0, 16, 28, 6, 9, 19]",6,6,"[7, 14, 17, 21, 24, 29]",107.1444143,35873,2107,3,7,9,2.4220750331476455
undo,31,22,0,0,0,29,"[0, 16, 28, 6, 9, 19, 29]",7,4,"[7, 14, 17, 24]",92.11111796,38299,2426,2,2,9,2.6996279574991067
undo,31,22,0,0,0,7,"[0, 16, 28, 6, 9, 19, 29, 7]",8,1,[14],41.0327468,40874,2575,1,0,9,2.059125386946491
undo,31,22,0,0,1,14,"[0, 16, 28, 6, 9, 19, 29, 7, 14]",9,0,[],27.99434199,42860,1986,1,0,9,2.0997569104205307
undo,31,22,0,1,1,14,"[0, 16, 28, 6, 9, 19, 29, 7, 14]",9,0,[],27.99434199,46227,3367,1,0,9,2.0997569104205307
undo,32,21,0,0,0,0,[0],1,29,"[1, 2, 3, 4, 5, 6, 7, 8, 9, 10, 11, 12, 13, 14, 15, 16, 17, 18, 19, 20, 21, 22, 23, 24, 25, 26, 27, 28, 29]",300,235,-1,84,830,9,0.0
undo,32,21,0,0,0,20,"[0, 20]",2,28,"[1, 2, 3, 4, 5, 6, 7, 8, 9, 10, 11, 12, 13, 14, 15, 16, 17, 18, 19, 21, 22, 23, 24, 25, 26, 27, 28, 29]",217.6228187,3826,3591,6,67,9,1.0
undo,32,21,0,0,0,22,"[0, 20, 22]",3,23,"[2, 4, 6, 7, 8, 9, 10, 11, 12, 13, 14, 15, 16, 17, 18, 19, 21, 23, 24, 25, 26, 27, 29]",189.3916303,5178,1352,6,47,9,1.3451865712078994
undo,32,21,0,0,0,18,"[0, 20, 22, 18]",4,20,"[2, 4, 6, 7, 8, 9, 10, 11, 12, 14, 15, 16, 17, 21, 23, 24, 25, 26, 27, 29]",162.9908727,6727,1549,4,25,9,2.3191924394507706
undo,32,21,0,0,0,29,"[0, 20, 22, 18, 29]",5,16,"[2, 4, 6, 7, 8, 10, 12, 14, 15, 16, 17, 21, 23, 24, 25, 27]",134.3377751,8409,1682,2,10,9,1.9554738681863184
undo,32,21,0,0,0,25,"[0, 20, 22, 18, 29, 25]",6,5,"[4, 14, 17, 21, 23]",89.11609892,10623,2214,2,5,9,3.5255206171255487
undo,32,21,0,0,0,23,"[0, 20, 22, 18, 29, 25, 23]",7,3,"[4, 14, 21]",45.79174087,12697,2074,1,2,9,2.5672363743380044
undo,32,21,0,0,1,21,"[0, 20, 22, 18, 29, 25, 23, 21]",8,0,[],16.17755508,15012,2315,1,0,8,3.1574832580391976
undo,32,21,1,0,0,23,"[0, 20, 22, 18, 29, 25, 23]",7,3,"[4, 14, 21]",45.79174087,17684,2672,1,2,9,2.5672363743380044
undo,32,21,1,0,0,25,"[0, 20, 22, 18, 29, 25]",6,5,"[4, 14, 17, 21, 23]",89.11609892,18186,502,2,5,9,3.5255206171255487
undo,32,21,1,0,0,29,"[0, 20, 22, 18, 29]",5,16,"[2, 4, 6, 7, 8, 10, 12, 14, 15, 16, 17, 21, 23, 24, 25, 27]",134.3377751,18470,284,2,10,9,1.9554738681863184
undo,32,21,1,0,0,18,"[0, 20, 22, 18]",4,20,"[2, 4, 6, 7, 8, 9, 10, 11, 12, 14, 15, 16, 17, 21, 23, 24, 25, 26, 27, 29]",162.9908727,18738,268,4,25,9,2.3191924394507706
undo,32,21,1,0,0,22,"[0, 20, 22]",3,23,"[2, 4, 6, 7, 8, 9, 10, 11, 12, 13, 14, 15, 16, 17, 18, 19, 21, 23, 24, 25, 26, 27, 29]",189.3916303,19057,319,6,47,9,1.3451865712078994
undo,32,21,1,0,0,20,"[0, 20]",2,28,"[1, 2, 3, 4, 5, 6, 7, 8, 9, 10, 11, 12, 13, 14, 15, 16, 17, 18, 19, 21, 22, 23, 24, 25, 26, 27, 28, 29]",217.6228187,19425,368,6,67,9,1.0
undo,32,21,1,0,0,0,[0],1,29,"[1, 2, 3, 4, 5, 6, 7, 8, 9, 10, 11, 12, 13, 14, 15, 16, 17, 18, 19, 20, 21, 22, 23, 24, 25, 26, 27, 28, 29]",300,19793,368,84,830,9,0.0
undo,32,21,0,0,0,25,"[0, 25]",2,26,"[1, 2, 3, 4, 5, 6, 7, 8, 9, 10, 11, 12, 13, 14, 15, 16, 17, 18, 20, 21, 22, 23, 24, 26, 27, 29]",240.1836143,26384,6591,30,238,9,1.0
undo,32,21,0,0,0,23,"[0, 25, 23]",3,21,"[1, 2, 4, 6, 7, 8, 9, 10, 11, 12, 14, 15, 16, 17, 18, 20, 21, 22, 24, 27, 29]",196.8592562,28010,1626,14,80,9,1.0416131642057598
undo,32,21,0,0,0,21,"[0, 25, 23, 21]",4,14,"[1, 4, 6, 8, 9, 14, 15, 16, 17, 18, 20, 22, 24, 29]",167.2450705,29652,1642,10,25,9,1.4768792067751173
undo,32,21,0,0,0,14,"[0, 25, 23, 21, 14]",5,10,"[4, 8, 9, 15, 16, 17, 18, 22, 24, 29]",141.6325735,31391,1739,8,13,9,1.3826076066332742
undo,32,21,0,0,0,4,"[0, 25, 23, 21, 14, 4]",6,7,"[8, 15, 16, 17, 18, 24, 29]",127.4904379,33200,1809,8,3,9,1.3487191473328533
undo,32,21,0,0,0,16,"[0, 25, 23, 21, 14, 4, 16]",7,3,"[8, 15, 24]",82.89223163,37775,4575,4,1,9,1.3301484172843694
undo,32,21,0,0,0,8,"[0, 25, 23, 21, 14, 4, 16, 8]",8,2,"[15, 24]",64.2911564,40609,2834,2,0,9,1.3009886562393016
undo,32,21,0,0,1,15,"[0, 25, 23, 21, 14, 4, 16, 8, 15]",9,0,[],39.2911564,43374,2765,1,0,9,1.5486591410600183
undo,32,21,0,1,1,15,"[0, 25, 23, 21, 14, 4, 16, 8, 15]",9,0,[],39.2911564,46844,3470,1,0,9,1.5486591410600183
undo,33,25,0,0,0,0,[0],1,28,"[1, 2, 3, 4, 5, 7, 8, 9, 10, 11, 12, 13, 14, 15, 16, 17, 18, 19, 20, 21, 22, 23, 24, 25, 26, 27, 28, 29]",300,180,-1,5,94,10,0.0
undo,33,25,0,0,0,23,"[0, 23]",2,23,"[1, 2, 3, 5, 7, 8, 9, 11, 12, 13, 14, 16, 17, 19, 20, 21, 22, 24, 25, 26, 27, 28, 29]",259.7756293,7271,7091,3,33,10,1.0
undo,33,25,0,0,0,19,"[0, 23, 19]",3,21,"[1, 2, 3, 5, 7, 8, 9, 11, 12, 13, 14, 16, 17, 20, 21, 22, 24, 25, 27, 28, 29]",223.9287326,9549,2278,3,24,10,1.583101227007039
undo,33,25,0,0,0,29,"[0, 23, 19, 29]",4,19,"[1, 2, 3, 5, 7, 8, 9, 11, 12, 13, 14, 16, 17, 20, 21, 22, 24, 25, 28]",207.649912,11059,1510,3,17,10,1.474631541426484
undo,33,25,0,0,0,22,"[0, 23, 19, 29, 22]",5,18,"[1, 2, 3, 5, 7, 8, 9, 11, 12, 13, 14, 16, 17, 20, 21, 24, 25, 28]",191.5253965,12801,1742,3,14,10,1.4020377754906637
undo,33,25,0,0,0,7,"[0, 23, 19, 29, 22, 7]",6,7,"[3, 8, 9, 11, 13, 24, 28]",115.8814939,14698,1897,3,11,10,1.5709678649326715
undo,33,25,0,0,0,24,"[0, 23, 19, 29, 22, 7, 24]",7,5,"[3, 8, 9, 13, 28]",91.12265712,16975,2277,3,7,10,1.486191600033379
undo,33,25,0,0,0,9,"[0, 23, 19, 29, 22, 7, 24, 9]",8,4,"[3, 8, 13, 28]",73.09490075,18326,1351,3,3,10,1.453504870342882
undo,33,25,0,0,0,3,"[0, 23, 19, 29, 22, 7, 24, 9, 3]",9,3,"[8, 13, 28]",42.82940885,21625,3299,3,0,10,1.388955167525479
undo,33,25,0,0,1,28,"[0, 23, 19, 29, 22, 7, 24, 9, 3, 28]",10,0,[],11.52445716,23771,2146,1,0,10,1.3331084120212044
undo,33,25,0,1,1,28,"[0, 23, 19, 29, 22, 7, 24, 9, 3, 28]",10,0,[],11.52445716,25488,1717,1,0,10,1.3331084120212044
undo,34,6,0,0,0,0,[0],1,29,"[1, 2, 3, 4, 5, 6, 7, 8, 9, 10, 11, 12, 13, 14, 15, 16, 17, 18, 19, 20, 21, 22, 23, 24, 25, 26, 27, 28, 29]",300,221,-1,180,4304,10,0.0
undo,34,6,0,0,0,3,"[0, 3]",2,28,"[1, 2, 4, 5, 6, 7, 8, 9, 10, 11, 12, 13, 14, 15, 16, 17, 18, 19, 20, 21, 22, 23, 24, 25, 26, 27, 28, 29]",266.4738908,8581,8360,90,1607,10,1.0
undo,34,6,0,0,0,18,"[0, 3, 18]",3,27,"[1, 2, 4, 5, 6, 7, 8, 9, 10, 11, 12, 13, 14, 15, 16, 17, 19, 20, 21, 22, 23, 24, 25, 26, 27, 28, 29]",237.4738908,11310,2729,34,516,10,1.0266750028725786
undo,34,6,0,0,0,17,"[0, 3, 18, 17]",4,26,"[1, 2, 4, 5, 6, 7, 8, 9, 10, 11, 12, 13, 14, 15, 16, 19, 20, 21, 22, 23, 24, 25, 26, 27, 28, 29]",223.5455025,12733,1423,17,243,10,1.0832900829093166
undo,34,6,0,0,0,10,"[0, 3, 18, 17, 10]",5,22,"[1, 2, 4, 5, 6, 7, 8, 9, 11, 13, 14, 16, 19, 20, 21, 22, 23, 24, 26, 27, 28, 29]",203.8224196,14556,1823,10,111,10,1.140294203414171
undo,34,6,0,0,0,24,"[0, 3, 18, 17, 10, 24]",6,19,"[1, 2, 4, 5, 6, 7, 8, 11, 13, 14, 16, 20, 21, 22, 23, 26, 27, 28, 29]",190.4060117,15985,1429,10,80,10,1.1264281153820843
undo,34,6,0,0,0,23,"[0, 3, 18, 17, 10, 24, 23]",7,9,"[5, 6, 7, 11, 14, 16, 22, 27, 29]",129.2177775,20357,4372,3,18,10,1.2725820835879924
undo,34,6,0,0,0,6,"[0, 3, 18, 17, 10, 24, 23, 6]",8,5,"[5, 11, 22, 27, 29]",93.86243848,23056,2699,2,4,10,1.2798885340436483
undo,34,6,0,0,0,27,"[0, 3, 18, 17, 10, 24, 23, 6, 27]",9,2,"[11, 22]",47.8515702,25645,2589,2,0,10,1.341423811891677
undo,34,6,0,0,1,22,"[0, 3, 18, 17, 10, 24, 23, 6, 27, 22]",10,0,[],2.840460463,27123,1478,1,0,10,1.9084403159620345
undo,34,6,0,1,1,22,"[0, 3, 18, 17, 10, 24, 23, 6, 27, 22]",10,0,[],2.840460463,28939,1816,1,0,10,1.9084403159620345
undo,35,37,0,0,0,0,[0],1,29,"[1, 2, 3, 4, 5, 6, 7, 8, 9, 10, 11, 12, 13, 14, 15, 16, 17, 18, 19, 20, 21, 22, 23, 24, 25, 26, 27, 28, 29]",300,160,-1,6,168,10,0.0
undo,35,37,0,0,0,18,"[0, 18]",2,19,"[1, 2, 4, 6, 7, 9, 10, 12, 14, 15, 17, 19, 20, 21, 22, 23, 26, 28, 29]",202.4090168,4937,4777,6,89,10,1.0
undo,35,37,0,0,0,7,"[0, 18, 7]",3,12,"[1, 2, 4, 9, 15, 17, 19, 20, 21, 22, 26, 29]",175.2428614,6166,1229,6,53,10,1.0413073512834488
undo,35,37,0,0,0,22,"[0, 18, 7, 22]",4,8,"[1, 2, 4, 15, 19, 20, 21, 26]",125.2428614,7896,1730,6,29,10,1.0730792320325544
undo,35,37,0,0,0,4,"[0, 18, 7, 22, 4]",5,7,"[1, 2, 15, 19, 20, 21, 26]",100.2428614,10423,2527,4,16,10,1.2290245562206235
undo,35,37,0,0,0,2,"[0, 18, 7, 22, 4, 2]",6,5,"[1, 15, 19, 20, 21]",88.84110714,11799,1376,4,7,10,1.3968113858365216
undo,35,37,0,0,0,1,"[0, 18, 7, 22, 4, 2, 1]",7,4,"[15, 19, 20, 21]",71.63645661,13077,1278,4,3,10,1.4424239294761476
undo,35,37,0,0,0,20,"[0, 18, 7, 22, 4, 2, 1, 20]",8,3,"[15, 19, 21]",37.40197107,15602,2525,2,1,10,1.7518607796010042
undo,35,37,0,0,0,15,"[0, 18, 7, 22, 4, 2, 1, 20, 15]",9,1,[21],20.40197107,17356,1754,1,0,10,1.680305745239285
undo,35,37,0,0,1,21,"[0, 18, 7, 22, 4, 2, 1, 20, 15, 21]",10,0,[],5.401971073,19241,1885,1,0,10,1.8982635624510946
undo,35,37,0,1,1,21,"[0, 18, 7, 22, 4, 2, 1, 20, 15, 21]",10,0,[],5.401971073,21922,2681,1,0,10,1.8982635624510946
undo,36,41,0,0,0,0,[0],1,29,"[1, 2, 3, 4, 5, 6, 7, 8, 9, 10, 11, 12, 13, 14, 15, 16, 17, 18, 19, 20, 21, 22, 23, 24, 25, 26, 27, 28, 29]",300,181,-1,1,143,10,0.0
undo,36,41,0,0,0,13,"[0, 13]",2,23,"[1, 2, 3, 5, 6, 7, 9, 10, 11, 12, 14, 15, 17, 18, 19, 20, 21, 22, 24, 25, 26, 27, 28]",258.2747079,3968,3787,1,55,10,1.0
undo,36,41,0,0,0,28,"[0, 13, 28]",3,22,"[1, 2, 3, 5, 6, 7, 9, 10, 11, 12, 14, 15, 17, 18, 19, 20, 21, 22, 24, 25, 26, 27]",223.7928286,6100,2132,1,39,10,1.895724242592676
undo,36,41,0,0,0,5,"[0, 13, 28, 5]",4,19,"[1, 2, 3, 6, 9, 10, 11, 12, 14, 15, 17, 18, 19, 20, 21, 22, 24, 25, 27]",210.1913581,7095,995,1,34,10,2.861541269398273
undo,36,41,0,0,0,3,"[0, 13, 28, 5, 3]",5,16,"[1, 2, 6, 9, 10, 12, 14, 17, 18, 19, 20, 21, 22, 24, 25, 27]",175.3632086,9048,1953,1,22,10,3.1455488489005883
undo,36,41,0,0,0,21,"[0, 13, 28, 5, 3, 21]",6,14,"[1, 2, 6, 9, 10, 12, 14, 17, 18, 19, 20, 22, 25, 27]",143.2228912,10878,1830,13,11,9,3.207558429289677
undo,36,41,0,0,0,9,"[0, 13, 28, 5, 3, 21, 9]",7,6,"[1, 2, 10, 12, 14, 17]",93.85691102,12838,1960,7,4,9,2.5050148501792275
undo,36,41,0,0,0,2,"[0, 13, 28, 5, 3, 21, 9, 2]",8,5,"[1, 10, 12, 14, 17]",81.77386505,14193,1355,5,0,9,2.4119643847713177
undo,36,41,0,0,1,17,"[0, 13, 28, 5, 3, 21, 9, 2, 17]",9,0,[],49.21622385,16961,2768,1,0,9,3.9563478735796007
undo,36,41,0,1,1,17,"[0, 13, 28, 5, 3, 21, 9, 2, 17]",9,0,[],49.21622385,23864,6903,1,0,9,3.9563478735796007
undo,37,13,0,0,0,0,[0],1,29,"[1, 2, 3, 4, 5, 6, 7, 8, 9, 10, 11, 12, 13, 14, 15, 16, 17, 18, 19, 20, 21, 22, 23, 24, 25, 26, 27, 28, 29]",300,172,-1,60,2676,11,0.0
undo,37,13,0,0,0,24,"[0, 24]",2,28,"[1, 2, 3, 4, 5, 6, 7, 8, 9, 10, 11, 12, 13, 14, 15, 16, 17, 18, 19, 20, 21, 22, 23, 25, 26, 27, 28, 29]",288.8196601,3761,3589,16,1444,11,1.0
undo,37,13,0,0,0,23,"[0, 24, 23]",3,27,"[1, 2, 3, 4, 5, 6, 7, 8, 9, 10, 11, 12, 13, 14, 15, 16, 17, 18, 19, 20, 21, 22, 25, 26, 27, 28, 29]",243.1140806,5547,1786,2,868,11,1.0065545717039834
undo,37,13,0,0,0,28,"[0, 24, 23, 28]",4,21,"[1, 2, 3, 4, 6, 7, 9, 10, 11, 12, 13, 15, 16, 17, 19, 20, 21, 22, 26, 27, 29]",177.7458926,12405,6858,1,253,11,1.6592183354372274
undo,37,13,0,0,0,2,"[0, 24, 23, 28, 2]",5,15,"[1, 3, 6, 7, 9, 11, 12, 13, 15, 16, 17, 19, 21, 26, 29]",140.1028322,15321,2916,1,80,11,1.459046951791535
undo,37,13,0,0,0,29,"[0, 24, 23, 28, 2, 29]",6,9,"[1, 6, 7, 11, 13, 16, 17, 19, 26]",128.3981322,17891,2570,1,31,11,1.5417142413159963
undo,37,13,0,0,0,7,"[0, 24, 23, 28, 2, 29, 7]",7,8,"[1, 6, 11, 13, 16, 17, 19, 26]",113.1337947,19770,1879,1,10,11,1.77525557938341
undo,37,13,0,0,0,26,"[0, 24, 23, 28, 2, 29, 7, 26]",8,6,"[1, 6, 11, 13, 16, 19]",102.6934882,21401,1631,1,4,11,2.0623372568692724
undo,37,13,0,0,0,6,"[0, 24, 23, 28, 2, 29, 7, 26, 6]",9,3,"[11, 13, 16]",82.59373697,23241,1840,1,2,11,2.002320377701536
undo,37,13,0,0,0,11,"[0, 24, 23, 28, 2, 29, 7, 26, 6, 11]",10,1,[13],63.48876379,24402,1161,1,0,11,1.8540921292495773
undo,37,13,0,0,1,13,"[0, 24, 23, 28, 2, 29, 7, 26, 6, 11, 13]",11,0,[],7.408464223,27810,3408,1,0,11,1.6123988786574368
undo,37,13,0,1,1,13,"[0, 24, 23, 28, 2, 29, 7, 26, 6, 11, 13]",11,0,[],7.408464223,29711,1901,1,0,11,1.6123988786574368
undo,38,8,0,0,0,0,[0],1,29,"[1, 2, 3, 4, 5, 6, 7, 8, 9, 10, 11, 12, 13, 14, 15, 16, 17, 18, 19, 20, 21, 22, 23, 24, 25, 26, 27, 28, 29]",300,210,-1,10,149,9,0.0
undo,38,8,0,0,0,5,"[0, 5]",2,28,"[1, 2, 3, 4, 6, 7, 8, 9, 10, 11, 12, 13, 14, 15, 16, 17, 18, 19, 20, 21, 22, 23, 24, 25, 26, 27, 28, 29]",254.5137383,2996,2786,10,100,9,1.0
undo,38,8,0,0,0,25,"[0, 5, 25]",3,20,"[1, 2, 3, 4, 6, 11, 12, 14, 15, 16, 17, 18, 19, 20, 21, 22, 23, 24, 28, 29]",215.3091468,4926,1930,4,42,9,1.2272747879909065
undo,38,8,1,0,0,5,"[0, 5]",2,28,"[1, 2, 3, 4, 6, 7, 8, 9, 10, 11, 12, 13, 14, 15, 16, 17, 18, 19, 20, 21, 22, 23, 24, 25, 26, 27, 28, 29]",254.5137383,9745,4819,10,100,9,1.0
undo,38,8,0,0,0,14,"[0, 5, 14]",3,20,"[1, 2, 3, 4, 6, 7, 11, 15, 16, 17, 18, 19, 20, 21, 22, 23, 24, 25, 28, 29]",214.5512559,11744,1999,4,36,9,1.0001019035932595
undo,38,8,0,0,0,17,"[0, 5, 14, 17]",4,15,"[1, 4, 6, 7, 11, 15, 16, 18, 19, 20, 22, 23, 24, 25, 28]",177.5377449,13680,1936,4,16,9,1.121197267659591
undo,38,8,0,0,0,11,"[0, 5, 14, 17, 11]",5,11,"[1, 4, 15, 16, 18, 19, 22, 23, 24, 25, 28]",152.3583883,17431,3751,4,8,9,1.1277254166016362
undo,38,8,0,0,0,24,"[0, 5, 14, 17, 11, 24]",6,3,"[15, 16, 28]",115.1428001,19047,1616,2,2,9,1.1227411011978805
undo,38,8,0,0,0,15,"[0, 5, 14, 17, 11, 24, 15]",7,2,"[16, 28]",98.37974552,20840,1793,2,0,9,1.1956385406066814
undo,38,8,0,0,0,16,"[0, 5, 14, 17, 11, 24, 15, 16]",8,1,[28],47.30137436,22908,2068,1,0,9,1.36482239111247
undo,38,8,0,0,1,28,"[0, 5, 14, 17, 11, 24, 15, 16, 28]",9,0,[],24.94069458,25849,2941,1,0,9,1.632953105226947
undo,38,8,0,1,1,28,"[0, 5, 14, 17, 11, 24, 15, 16, 28]",9,0,[],24.94069458,27868,2019,1,0,9,1.632953105226947
undo,39,36,0,0,0,0,[0],1,24,"[2, 4, 5, 6, 7, 8, 9, 10, 12, 13, 14, 15, 16, 17, 18, 19, 20, 22, 23, 25, 26, 27, 28, 29]",300,266,-1,2,200,10,0.0
undo,39,36,0,0,0,12,"[0, 12]",2,23,"[2, 4, 5, 6, 7, 8, 9, 10, 13, 14, 15, 16, 17, 18, 19, 20, 22, 23, 25, 26, 27, 28, 29]",277.7963967,3339,3073,90,804,9,1.0
undo,39,36,0,0,0,9,"[0, 12, 9]",3,14,"[2, 4, 8, 10, 13, 16, 17, 18, 19, 23, 25, 27, 28, 29]",215.4345494,6462,3123,32,191,9,1.224429481246385
undo,39,36,0,0,0,19,"[0, 12, 9, 19]",4,13,"[2, 4, 8, 10, 13, 16, 17, 18, 23, 25, 27, 28, 29]",200.3018034,8101,1639,14,61,9,1.293473472808712
undo,39,36,0,0,0,17,"[0, 12, 9, 19, 17]",5,8,"[2, 10, 13, 16, 18, 23, 25, 27]",172.4091521,10091,1990,5,15,9,1.3499598639024968
undo,39,36,0,0,0,2,"[0, 12, 9, 19, 17, 2]",6,6,"[10, 13, 16, 18, 25, 27]",131.1780958,12654,2563,2,3,9,1.4949360491624875
undo,39,36,0,0,0,25,"[0, 12, 9, 19, 17, 2, 25]",7,3,"[10, 13, 16]",106.1780958,14901,2247,1,2,9,1.6929129985884974
undo,39,36,0,0,0,13,"[0, 12, 9, 19, 17, 2, 25, 13]",8,1,[10],85.58683553,16956,2055,1,0,9,2.1860692255369774
undo,39,36,0,0,1,10,"[0, 12, 9, 19, 17, 2, 25, 13, 10]",9,0,[],9.626319468,19366,2410,1,0,9,1.6695312782676606
undo,39,36,0,1,1,10,"[0, 12, 9, 19, 17, 2, 25, 13, 10]",9,0,[],9.626319468,21118,1752,1,0,9,1.6695312782676606
undo,40,14,0,0,0,0,[0],1,29,"[1, 2, 3, 4, 5, 6, 7, 8, 9, 10, 11, 12, 13, 14, 15, 16, 17, 18, 19, 20, 21, 22, 23, 24, 25, 26, 27, 28, 29]",300,181,-1,8,157,10,0.0
undo,40,14,0,0,0,15,"[0, 15]",2,20,"[1, 2, 3, 4, 7, 8, 9, 13, 17, 18, 19, 20, 21, 22, 23, 25, 26, 27, 28, 29]",216.7053423,6018,5837,8,102,10,1.0
undo,40,14,0,0,0,28,"[0, 15, 28]",3,17,"[1, 2, 3, 4, 7, 8, 9, 13, 17, 18, 19, 20, 22, 23, 25, 26, 27]",197.4959696,7324,1306,8,48,10,1.0446007867311968
undo,40,14,0,0,0,17,"[0, 15, 28, 17]",4,14,"[1, 2, 3, 4, 7, 8, 13, 18, 19, 20, 22, 23, 25, 26]",184.0423455,9036,1712,8,39,10,1.0729463354689972
undo,40,14,0,0,0,18,"[0, 15, 28, 17, 18]",5,9,"[1, 2, 4, 7, 8, 19, 23, 25, 26]",119.412631,10892,1856,8,27,10,1.5035901079219378
undo,40,14,0,0,0,8,"[0, 15, 28, 17, 18, 8]",6,8,"[1, 2, 4, 7, 19, 23, 25, 26]",105.8111605,12702,1810,8,18,10,1.4819689987843856
undo,40,14,0,0,0,19,"[0, 15, 28, 17, 18, 8, 19]",7,5,"[1, 7, 23, 25, 26]",85.19563238,15637,2935,4,9,10,1.4526746797093781
undo,40,14,0,0,0,1,"[0, 15, 28, 17, 18, 8, 19, 1]",8,4,"[7, 23, 25, 26]",69.96408617,17979,2342,3,1,10,1.4876985459270997
undo,40,14,0,0,0,23,"[0, 15, 28, 17, 18, 8, 19, 1, 23]",9,1,[26],21.96408617,20521,2542,1,0,10,1.4791446279021185
undo,40,14,0,0,1,26,"[0, 15, 28, 17, 18, 8, 19, 1, 23, 26]",10,0,[],11.14743235,21997,1476,1,0,10,1.4559204757247275
undo,40,14,0,1,1,26,"[0, 15, 28, 17, 18, 8, 19, 1, 23, 26]",10,0,[],11.14743235,23764,1767,1,0,10,1.4559204757247275
undo,41,30,0,0,0,0,[0],1,19,"[3, 4, 5, 7, 9, 11, 16, 17, 18, 19, 20, 21, 22, 24, 25, 26, 27, 28, 29]",300,217,-1,5,41,8,0.0
undo,41,30,0,0,0,16,"[0, 16]",2,17,"[3, 5, 7, 9, 11, 17, 18, 19, 20, 21, 22, 24, 25, 26, 27, 28, 29]",219.3774225,9483,9266,5,34,8,1.0
undo,41,30,0,0,0,25,"[0, 16, 25]",3,10,"[3, 5, 7, 9, 11, 18, 19, 20, 27, 29]",115.0845656,12003,2520,5,28,8,1.0336279544884488
undo,41,30,0,0,0,27,"[0, 16, 25, 27]",4,7,"[3, 5, 7, 18, 19, 20, 29]",75.52448473,14634,2631,1,12,8,1.0719738181137488
undo,41,30,0,0,0,3,"[0, 16, 25, 27, 3]",5,5,"[5, 7, 18, 20, 29]",56.41951155,15652,1018,1,4,8,1.0683252001879187
undo,41,30,0,0,0,5,"[0, 16, 25, 27, 3, 5]",6,1,[18],31.58002686,17828,2176,1,0,7,1.1100267042438476
undo,41,30,0,0,1,18,"[0, 16, 25, 27, 3, 5, 18]",7,0,[],18.54162205,18896,1068,1,0,7,1.1523571888193607
undo,41,30,1,0,0,5,"[0, 16, 25, 27, 3, 5]",6,1,[18],31.58002686,25975,7079,1,0,7,1.1100267042438476
undo,41,30,1,0,0,3,"[0, 16, 25, 27, 3]",5,5,"[5, 7, 18, 20, 29]",56.41951155,26528,553,1,4,8,1.0683252001879187
undo,41,30,1,0,0,27,"[0, 16, 25, 27]",4,7,"[3, 5, 7, 18, 19, 20, 29]",75.52448473,27014,486,1,12,8,1.0719738181137488
undo,41,30,1,0,0,25,"[0, 16, 25]",3,10,"[3, 5, 7, 9, 11, 18, 19, 20, 27, 29]",115.0845656,27432,418,5,28,8,1.0336279544884488
undo,41,30,1,0,0,16,"[0, 16]",2,17,"[3, 5, 7, 9, 11, 17, 18, 19, 20, 21, 22, 24, 25, 26, 27, 28, 29]",219.3774225,27834,402,5,34,8,1.0
undo,41,30,1,0,0,0,[0],1,19,"[3, 4, 5, 7, 9, 11, 16, 17, 18, 19, 20, 21, 22, 24, 25, 26, 27, 28, 29]",300,28337,503,5,41,8,0.0
undo,41,30,0,0,0,16,"[0, 16]",2,17,"[3, 5, 7, 9, 11, 17, 18, 19, 20, 21, 22, 24, 25, 26, 27, 28, 29]",219.3774225,40335,11998,5,34,8,1.0
undo,41,30,0,0,0,25,"[0, 16, 25]",3,10,"[3, 5, 7, 9, 11, 18, 19, 20, 27, 29]",115.0845656,42635,2300,5,28,8,1.0336279544884488
undo,41,30,0,0,0,20,"[0, 16, 25, 20]",4,8,"[3, 5, 7, 9, 18, 19, 27, 29]",93.15285342,44397,1762,4,14,8,1.0337964627284246
undo,41,30,0,0,0,27,"[0, 16, 25, 20, 27]",5,4,"[3, 5, 18, 29]",59.09408069,46361,1964,4,6,8,1.1504365534848
undo,41,30,0,0,0,3,"[0, 16, 25, 20, 27, 3]",6,3,"[5, 18, 29]",39.98910751,47779,1418,4,0,8,1.1403876826835333
undo,41,30,0,0,0,29,"[0, 16, 25, 20, 27, 3, 29]",7,1,[18],21.38803228,49296,1517,1,0,8,1.1443827771455848
undo,41,30,0,0,1,18,"[0, 16, 25, 20, 27, 3, 29, 18]",8,0,[],2.074824359,52639,3343,1,0,8,1.2197761544023602
undo,41,30,0,1,1,18,"[0, 16, 25, 20, 27, 3, 29, 18]",8,0,[],2.074824359,55152,2513,1,0,8,1.2197761544023602
undo,42,26,0,0,0,0,[0],1,29,"[1, 2, 3, 4, 5, 6, 7, 8, 9, 10, 11, 12, 13, 14, 15, 16, 17, 18, 19, 20, 21, 22, 23, 24, 25, 26, 27, 28, 29]",300,206,-1,9,226,9,0.0
undo,42,26,0,0,0,21,"[0, 21]",2,25,"[2, 3, 4, 5, 6, 7, 8, 10, 11, 12, 13, 14, 15, 16, 17, 18, 19, 22, 23, 24, 25, 26, 27, 28, 29]",211.1349337,7725,7519,7,90,9,1.0
undo,42,26,0,0,0,13,"[0, 21, 13]",3,21,"[3, 4, 5, 6, 7, 8, 10, 11, 12, 14, 15, 16, 17, 18, 19, 22, 23, 24, 25, 26, 29]",188.9989901,11807,4082,6,45,9,1.0103952279992225
undo,42,26,0,0,0,16,"[0, 21, 13, 16]",4,8,"[4, 5, 6, 10, 14, 17, 23, 29]",119.9700107,14094,2287,3,23,9,1.608180021563306
undo,42,26,0,0,0,29,"[0, 21, 13, 16, 29]",5,6,"[4, 6, 10, 14, 17, 23]",95.76257383,15512,1418,3,20,9,1.6714963205667543
undo,42,26,0,0,0,4,"[0, 21, 13, 16, 29, 4]",6,4,"[6, 10, 14, 17]",71.76257383,17390,1878,3,6,9,1.8831111863826637
undo,42,26,0,0,0,17,"[0, 21, 13, 16, 29, 4, 17]",7,3,"[6, 10, 14]",50.66755072,19561,2171,3,1,9,1.7547748416418751
undo,42,26,0,0,0,14,"[0, 21, 13, 16, 29, 4, 17, 14]",8,1,[6],28.19534567,21493,1932,1,0,9,1.6866342470680415
undo,42,26,0,0,1,6,"[0, 21, 13, 16, 29, 4, 17, 14, 6]",9,0,[],7.171549626,23237,1744,1,0,9,1.823211641041882
undo,42,26,0,1,1,6,"[0, 21, 13, 16, 29, 4, 17, 14, 6]",9,0,[],7.171549626,25417,2180,1,0,9,1.823211641041882
undo,43,23,0,0,0,0,[0],1,28,"[1, 2, 3, 4, 5, 6, 7, 8, 9, 10, 11, 12, 13, 14, 15, 16, 17, 18, 19, 20, 21, 22, 23, 25, 26, 27, 28, 29]",300,204,-1,76,2626,10,0.0
undo,43,23,0,0,0,22,"[0, 22]",2,24,"[1, 2, 3, 5, 6, 7, 8, 9, 10, 11, 12, 13, 14, 15, 17, 18, 19, 20, 21, 23, 25, 26, 27, 29]",210.5013967,7512,7308,15,1362,10,1.0
undo,43,23,0,0,0,13,"[0, 22, 13]",3,14,"[1, 2, 5, 6, 7, 8, 9, 10, 12, 14, 18, 21, 27, 29]",168.3113504,10627,3115,14,522,10,1.1898173563652046
undo,43,23,0,0,0,12,"[0, 22, 13, 12]",4,11,"[1, 2, 6, 7, 9, 10, 14, 18, 21, 27, 29]",156.2283045,12482,1855,12,166,10,1.1727968780218219
undo,43,23,0,0,0,27,"[0, 22, 13, 12, 27]",5,6,"[2, 6, 9, 14, 18, 29]",115.4361484,18058,5576,24,10,9,1.2890498546136056
undo,43,23,0,0,0,6,"[0, 22, 13, 12, 27, 6]",6,4,"[2, 9, 14, 29]",87.13420496,20521,2463,8,3,9,1.4168087827969746
undo,43,23,0,0,0,2,"[0, 22, 13, 12, 27, 6, 2]",7,3,"[9, 14, 29]",68.69511605,22618,2097,4,1,9,1.6950530812130016
undo,43,23,0,0,0,9,"[0, 22, 13, 12, 27, 6, 2, 9]",8,2,"[14, 29]",55.65671124,24666,2048,2,0,9,1.8702358422647571
undo,43,23,0,0,1,14,"[0, 22, 13, 12, 27, 6, 2, 9, 14]",9,0,[],45.21640473,26533,1867,1,0,9,1.808386291219993
undo,43,23,0,1,1,14,"[0, 22, 13, 12, 27, 6, 2, 9, 14]",9,0,[],45.21640473,29259,2726,1,0,9,1.808386291219993
undo,44,11,0,0,0,0,[0],1,25,"[1, 2, 3, 4, 5, 6, 8, 9, 10, 11, 12, 13, 14, 15, 16, 17, 18, 19, 20, 22, 23, 25, 26, 27, 28]",300,197,-1,6,374,12,0.0
undo,44,11,0,0,0,1,"[0, 1]",2,24,"[2, 3, 4, 5, 6, 8, 9, 10, 11, 12, 13, 14, 15, 16, 17, 18, 19, 20, 22, 23, 25, 26, 27, 28]",264.6446609,4978,4781,6,217,12,1.0
undo,44,11,0,0,0,18,"[0, 1, 18]",3,19,"[2, 4, 5, 6, 8, 9, 11, 12, 14, 15, 16, 17, 19, 20, 22, 23, 25, 27, 28]",212.3187591,6339,1361,6,161,12,1.3884463804898786
undo,44,11,0,0,0,27,"[0, 1, 18, 27]",4,18,"[2, 4, 5, 6, 8, 9, 11, 12, 14, 15, 16, 17, 19, 20, 22, 23, 25, 28]",188.4650382,8153,1814,6,155,12,1.3600813284083875
undo,44,11,0,0,0,17,"[0, 1, 18, 27, 17]",5,11,"[2, 5, 6, 8, 11, 12, 15, 19, 22, 25, 28]",111.3871556,12031,3878,2,45,12,1.282398281674261
undo,44,11,0,0,0,8,"[0, 1, 18, 27, 17, 8]",6,7,"[2, 5, 11, 12, 15, 22, 28]",97.0693345,13323,1292,2,21,12,1.3975291553712
undo,44,11,0,0,0,15,"[0, 1, 18, 27, 17, 8, 15]",7,6,"[2, 5, 11, 12, 22, 28]",83.61571045,14407,1084,2,18,12,1.3793915678186077
undo,44,11,0,0,0,11,"[0, 1, 18, 27, 17, 8, 15, 11]",8,4,"[2, 5, 22, 28]",65.50494017,15663,1256,2,14,12,1.3525960247899067
undo,44,11,0,0,0,28,"[0, 1, 18, 27, 17, 8, 15, 11, 28]",9,3,"[2, 5, 22]",46.08845233,17139,1476,2,4,12,1.4693669896690256
undo,44,11,0,0,0,5,"[0, 1, 18, 27, 17, 8, 15, 11, 28, 5]",10,2,"[2, 22]",28.19990851,19134,1995,1,1,12,1.6706321377081579
undo,44,11,0,0,0,2,"[0, 1, 18, 27, 17, 8, 15, 11, 28, 5, 2]",11,1,[22],11.19990851,20574,1440,1,0,12,1.6180355992209499
undo,44,11,0,0,1,22,"[0, 1, 18, 27, 17, 8, 15, 11, 28, 5, 2, 22]",12,0,[],1.150032892,22137,1563,1,0,12,1.5851265969407473
undo,44,11,0,1,1,22,"[0, 1, 18, 27, 17, 8, 15, 11, 28, 5, 2, 22]",12,0,[],1.150032892,25273,3136,1,0,12,1.5851265969407473
undo,45,24,0,0,0,0,[0],1,29,"[1, 2, 3, 4, 5, 6, 7, 8, 9, 10, 11, 12, 13, 14, 15, 16, 17, 18, 19, 20, 21, 22, 23, 24, 25, 26, 27, 28, 29]",300,197,-1,4,76,10,0.0
undo,45,24,0,0,0,14,"[0, 14]",2,27,"[1, 2, 3, 4, 5, 6, 8, 9, 10, 11, 12, 13, 15, 16, 17, 18, 19, 20, 21, 22, 23, 24, 25, 26, 27, 28, 29]",278.0455016,3993,3796,4,54,10,1.0
undo,45,24,0,0,0,16,"[0, 14, 16]",3,25,"[2, 3, 4, 5, 6, 8, 9, 10, 11, 12, 13, 15, 17, 18, 19, 20, 21, 22, 23, 24, 25, 26, 27, 28, 29]",188.9949542,5982,1989,4,31,10,1.238291113657358
undo,45,24,0,0,0,8,"[0, 14, 16, 8]",4,17,"[2, 3, 4, 6, 9, 10, 11, 13, 15, 20, 22, 23, 24, 26, 27, 28, 29]",159.9949542,9240,3258,2,13,10,1.2714603293172921
undo,45,24,0,0,0,22,"[0, 14, 16, 8, 22]",5,13,"[3, 4, 6, 9, 10, 11, 15, 23, 24, 26, 27, 28, 29]",146.5785463,10555,1315,2,10,10,1.4558841300797367
undo,45,24,0,0,0,15,"[0, 14, 16, 8, 22, 15]",6,11,"[3, 4, 6, 9, 10, 11, 23, 26, 27, 28, 29]",125.3653429,11901,1346,2,8,10,1.459909027032803
undo,45,24,0,0,0,28,"[0, 14, 16, 8, 22, 15, 28]",7,5,"[4, 9, 11, 23, 27]",80.08841717,13553,1652,2,5,10,1.3358430839259279
undo,45,24,0,0,0,23,"[0, 14, 16, 8, 22, 15, 28, 23]",8,3,"[9, 11, 27]",61.06211957,16758,3205,2,2,10,1.3561794364003306
undo,45,24,0,0,0,11,"[0, 14, 16, 8, 22, 15, 28, 23, 11]",9,2,"[9, 27]",34.13629554,18835,2077,2,0,10,1.323606251450204
undo,45,24,0,0,1,27,"[0, 14, 16, 8, 22, 15, 28, 23, 11, 27]",10,0,[],6.33341799,20564,1729,1,0,10,1.2857748381905127
undo,45,24,0,1,1,27,"[0, 14, 16, 8, 22, 15, 28, 23, 11, 27]",10,0,[],6.33341799,22055,1491,1,0,10,1.2857748381905127
undo,46,17,0,0,0,0,[0],1,28,"[1, 2, 3, 4, 5, 6, 7, 8, 9, 10, 11, 12, 13, 14, 15, 16, 17, 18, 19, 20, 22, 23, 24, 25, 26, 27, 28, 29]",300,250,-1,2,73,8,0.0
undo,46,17,0,0,0,9,"[0, 9]",2,25,"[1, 2, 3, 5, 6, 7, 8, 10, 11, 12, 14, 15, 16, 17, 18, 19, 20, 22, 23, 24, 25, 26, 27, 28, 29]",210.5293344,7342,7092,1,34,8,1.0
undo,46,17,0,0,0,16,"[0, 9, 16]",3,21,"[1, 2, 3, 5, 7, 8, 10, 11, 12, 14, 17, 18, 19, 20, 22, 23, 25, 26, 27, 28, 29]",197.1876704,8770,1428,1,26,8,1.173103464220352
undo,46,17,0,0,0,2,"[0, 9, 16, 2]",4,18,"[1, 3, 5, 7, 8, 10, 11, 12, 14, 17, 18, 19, 23, 25, 26, 27, 28, 29]",181.0631549,10465,1695,1,23,8,1.14825089247282
undo,46,17,0,0,0,8,"[0, 9, 16, 2, 8]",5,9,"[3, 7, 10, 11, 12, 14, 17, 26, 27]",145.9490551,12902,2437,1,9,8,1.1509808066472915
undo,46,17,0,0,0,7,"[0, 9, 16, 2, 8, 7]",6,3,"[10, 12, 27]",75.238377,14578,1676,3,0,7,1.2222166608088694
undo,46,17,0,0,1,27,"[0, 9, 16, 2, 8, 7, 27]",7,0,[],21.63800387,17727,3149,1,0,7,1.2961096752539074
undo,46,17,1,0,0,7,"[0, 9, 16, 2, 8, 7]",6,3,"[10, 12, 27]",75.238377,22712,4985,3,0,7,1.2222166608088694
undo,46,17,1,0,0,8,"[0, 9, 16, 2, 8]",5,9,"[3, 7, 10, 11, 12, 14, 17, 26, 27]",145.9490551,23029,317,1,9,8,1.1509808066472915
undo,46,17,1,0,0,2,"[0, 9, 16, 2]",4,18,"[1, 3, 5, 7, 8, 10, 11, 12, 14, 17, 18, 19, 23, 25, 26, 27, 28, 29]",181.0631549,23364,335,1,23,8,1.14825089247282
undo,46,17,1,0,0,16,"[0, 9, 16]",3,21,"[1, 2, 3, 5, 7, 8, 10, 11, 12, 14, 17, 18, 19, 20, 22, 23, 25, 26, 27, 28, 29]",197.1876704,23716,352,1,26,8,1.173103464220352
undo,46,17,1,0,0,9,"[0, 9]",2,25,"[1, 2, 3, 5, 6, 7, 8, 10, 11, 12, 14, 15, 16, 17, 18, 19, 20, 22, 23, 24, 25, 26, 27, 28, 29]",210.5293344,23934,218,1,34,8,1.0
undo,46,17,1,0,0,0,[0],1,28,"[1, 2, 3, 4, 5, 6, 7, 8, 9, 10, 11, 12, 13, 14, 15, 16, 17, 18, 19, 20, 22, 23, 24, 25, 26, 27, 28, 29]",300,24253,319,2,73,8,0.0
undo,46,17,0,0,0,9,"[0, 9]",2,25,"[1, 2, 3, 5, 6, 7, 8, 10, 11, 12, 14, 15, 16, 17, 18, 19, 20, 22, 23, 24, 25, 26, 27, 28, 29]",210.5293344,31656,7403,1,34,8,1.0
undo,46,17,0,0,0,16,"[0, 9, 16]",3,21,"[1, 2, 3, 5, 7, 8, 10, 11, 12, 14, 17, 18, 19, 20, 22, 23, 25, 26, 27, 28, 29]",197.1876704,33102,1446,1,26,8,1.173103464220352
undo,46,17,0,0,0,2,"[0, 9, 16, 2]",4,18,"[1, 3, 5, 7, 8, 10, 11, 12, 14, 17, 18, 19, 23, 25, 26, 27, 28, 29]",181.0631549,34177,1075,1,23,8,1.14825089247282
undo,46,17,0,0,0,10,"[0, 9, 16, 2, 10]",5,4,"[3, 11, 23, 28]",71.04042993,37515,3338,3,2,7,1.2629477265421833
undo,46,17,0,0,0,11,"[0, 9, 16, 2, 10, 11]",6,1,[3],49.08593153,40077,2562,1,0,7,1.2370659942349713
undo,46,17,1,0,0,10,"[0, 9, 16, 2, 10]",5,4,"[3, 11, 23, 28]",71.04042993,42710,2633,3,2,7,1.2629477265421833
undo,46,17,1,0,0,2,"[0, 9, 16, 2]",4,18,"[1, 3, 5, 7, 8, 10, 11, 12, 14, 17, 18, 19, 23, 25, 26, 27, 28, 29]",181.0631549,43029,319,1,23,8,1.14825089247282
undo,46,17,1,0,0,16,"[0, 9, 16]",3,21,"[1, 2, 3, 5, 7, 8, 10, 11, 12, 14, 17, 18, 19, 20, 22, 23, 25, 26, 27, 28, 29]",197.1876704,43297,268,1,26,8,1.173103464220352
undo,46,17,1,0,0,9,"[0, 9]",2,25,"[1, 2, 3, 5, 6, 7, 8, 10, 11, 12, 14, 15, 16, 17, 18, 19, 20, 22, 23, 24, 25, 26, 27, 28, 29]",210.5293344,43598,301,1,34,8,1.0
undo,46,17,1,0,0,0,[0],1,28,"[1, 2, 3, 4, 5, 6, 7, 8, 9, 10, 11, 12, 13, 14, 15, 16, 17, 18, 19, 20, 22, 23, 24, 25, 26, 27, 28, 29]",300,43984,386,2,73,8,0.0
undo,46,17,0,0,0,19,"[0, 19]",2,9,"[3, 4, 5, 10, 11, 18, 20, 22, 28]",138.1049723,50906,6922,1,8,6,1.0
undo,46,17,0,0,0,5,"[0, 19, 5]",3,5,"[3, 10, 11, 22, 28]",98.81120687,52854,1948,1,5,6,1.1200340368749155
undo,46,17,0,0,0,28,"[0, 19, 5, 28]",4,2,"[3, 11]",60.32744406,54616,1762,1,1,6,1.1548774814009009
undo,46,17,0,0,0,3,"[0, 19, 5, 28, 3]",5,1,[11],26.32744406,55957,1341,1,0,6,1.444690353691831
undo,46,17,1,0,0,28,"[0, 19, 5, 28]",4,2,"[3, 11]",60.32744406,64903,8946,1,1,6,1.1548774814009009
undo,46,17,1,0,0,5,"[0, 19, 5]",3,5,"[3, 10, 11, 22, 28]",98.81120687,65456,553,1,5,6,1.1200340368749155
undo,46,17,1,0,0,19,"[0, 19]",2,9,"[3, 4, 5, 10, 11, 18, 20, 22, 28]",138.1049723,65908,452,1,8,6,1.0
undo,46,17,1,0,0,0,[0],1,28,"[1, 2, 3, 4, 5, 6, 7, 8, 9, 10, 11, 12, 13, 14, 15, 16, 17, 18, 19, 20, 22, 23, 24, 25, 26, 27, 28, 29]",300,66378,470,2,73,8,0.0
undo,46,17,0,0,0,9,"[0, 9]",2,25,"[1, 2, 3, 5, 6, 7, 8, 10, 11, 12, 14, 15, 16, 17, 18, 19, 20, 22, 23, 24, 25, 26, 27, 28, 29]",210.5293344,69186,2808,1,34,8,1.0
undo,46,17,0,0,0,16,"[0, 9, 16]",3,21,"[1, 2, 3, 5, 7, 8, 10, 11, 12, 14, 17, 18, 19, 20, 22, 23, 25, 26, 27, 28, 29]",197.1876704,70635,1449,1,26,8,1.173103464220352
undo,46,17,0,0,0,2,"[0, 9, 16, 2]",4,18,"[1, 3, 5, 7, 8, 10, 11, 12, 14, 17, 18, 19, 23, 25, 26, 27, 28, 29]",181.0631549,71915,1280,1,23,8,1.14825089247282
undo,46,17,0,0,0,8,"[0, 9, 16, 2, 8]",5,9,"[3, 7, 10, 11, 12, 14, 17, 26, 27]",145.9490551,73895,1980,1,9,8,1.1509808066472915
undo,46,17,0,0,0,7,"[0, 9, 16, 2, 8, 7]",6,3,"[10, 12, 27]",75.238377,77019,3124,3,0,7,1.2222166608088694
undo,46,17,0,0,1,27,"[0, 9, 16, 2, 8, 7, 27]",7,0,[],21.63800387,79706,2687,1,0,7,1.2961096752539074
undo,46,17,0,1,1,27,"[0, 9, 16, 2, 8, 7, 27]",7,0,[],21.63800387,83210,3504,1,0,7,1.2961096752539074
undo,47,32,0,0,0,0,[0],1,29,"[1, 2, 3, 4, 5, 6, 7, 8, 9, 10, 11, 12, 13, 14, 15, 16, 17, 18, 19, 20, 21, 22, 23, 24, 25, 26, 27, 28, 29]",300,191,-1,17,359,10,0.0
undo,47,32,0,0,0,19,"[0, 19]",2,28,"[1, 2, 3, 4, 5, 6, 7, 8, 9, 10, 11, 12, 13, 14, 15, 16, 17, 18, 20, 21, 22, 23, 24, 25, 26, 27, 28, 29]",283.5075775,4130,3939,16,294,10,1.0
undo,47,32,0,0,0,13,"[0, 19, 13]",3,24,"[2, 3, 4, 5, 6, 8, 9, 10, 11, 12, 14, 15, 16, 17, 18, 20, 21, 22, 23, 24, 25, 26, 27, 28]",260.3127505,7788,3658,14,227,10,1.0172874229878615
undo,47,32,0,0,0,15,"[0, 19, 13, 15]",4,18,"[2, 3, 5, 8, 9, 10, 11, 12, 16, 17, 20, 22, 23, 24, 25, 26, 27, 28]",177.4393531,11576,3788,9,116,10,1.435447391509833
undo,47,32,0,0,0,28,"[0, 19, 13, 15, 28]",5,17,"[2, 3, 5, 8, 9, 10, 11, 12, 16, 17, 20, 22, 23, 24, 25, 26, 27]",166.0375988,12988,1412,9,70,10,1.3843701324937985
undo,47,32,0,0,0,12,"[0, 19, 13, 15, 28, 12]",6,14,"[2, 3, 5, 8, 9, 10, 11, 16, 17, 20, 22, 24, 26, 27]",147.0639329,14707,1719,6,35,10,1.358372254952329
undo,47,32,0,0,0,16,"[0, 19, 13, 15, 28, 12, 16]",7,13,"[2, 3, 5, 8, 9, 10, 11, 17, 20, 22, 24, 26, 27]",131.411457,19451,4744,5,15,10,1.4356932930709845
undo,47,32,0,0,0,22,"[0, 19, 13, 15, 28, 12, 16, 22]",8,6,"[2, 8, 9, 17, 20, 27]",97.57360838,21361,1910,3,5,10,1.4335226411545752
undo,47,32,0,0,0,9,"[0, 19, 13, 15, 28, 12, 16, 22, 9]",9,3,"[2, 8, 20]",75.37000507,24387,3026,3,0,10,1.4837166378374758
undo,47,32,0,0,1,2,"[0, 19, 13, 15, 28, 12, 16, 22, 9, 2]",10,0,[],24.28184597,35198,10811,1,0,10,1.9009621017233784
undo,47,32,0,1,1,2,"[0, 19, 13, 15, 28, 12, 16, 22, 9, 2]",10,0,[],24.28184597,37495,2297,1,0,10,1.9009621017233784
undo,48,42,0,0,0,0,[0],1,29,"[1, 2, 3, 4, 5, 6, 7, 8, 9, 10, 11, 12, 13, 14, 15, 16, 17, 18, 19, 20, 21, 22, 23, 24, 25, 26, 27, 28, 29]",300,180,-1,16,302,9,0.0
undo,48,42,0,0,0,5,"[0, 5]",2,28,"[1, 2, 3, 4, 6, 7, 8, 9, 10, 11, 12, 13, 14, 15, 16, 17, 18, 19, 20, 21, 22, 23, 24, 25, 26, 27, 28, 29]",191.2939744,4089,3909,1,22,9,1.0
undo,48,42,0,0,0,4,"[0, 5, 4]",3,23,"[1, 2, 3, 6, 7, 8, 9, 10, 11, 13, 15, 17, 18, 19, 20, 21, 22, 23, 24, 25, 26, 27, 29]",171.4445412,6601,2512,1,14,9,1.420957801478707
undo,48,42,0,0,0,22,"[0, 5, 4, 22]",4,20,"[1, 2, 3, 6, 7, 8, 9, 11, 15, 17, 18, 19, 20, 21, 23, 24, 25, 26, 27, 29]",160.2642013,7842,1241,1,11,9,1.5771494659680896
undo,48,42,0,0,0,8,"[0, 5, 4, 22, 8]",5,14,"[1, 2, 3, 6, 7, 11, 15, 18, 19, 24, 25, 26, 27, 29]",138.1282577,9707,1865,1,10,9,1.5055393955524201
undo,48,42,0,0,0,1,"[0, 5, 4, 22, 8, 1]",6,5,"[2, 7, 19, 26, 27]",89.03650682,11547,1840,1,7,9,1.3547259083637835
undo,48,42,0,0,0,7,"[0, 5, 4, 22, 8, 1, 7]",7,4,"[2, 19, 26, 27]",59.03650682,13652,2105,1,3,9,1.3909715672447451
undo,48,42,0,0,0,26,"[0, 5, 4, 22, 8, 1, 7, 26]",8,1,[27],32.46584631,15267,1615,1,0,9,1.3511825943939393
undo,48,42,0,0,1,27,"[0, 5, 4, 22, 8, 1, 7, 26, 27]",9,0,[],14.43808994,17221,1954,1,0,9,1.3391911688802078
undo,48,42,0,1,1,27,"[0, 5, 4, 22, 8, 1, 7, 26, 27]",9,0,[],14.43808994,19761,2540,1,0,9,1.3391911688802078
undo,49,29,0,0,0,0,[0],1,29,"[1, 2, 3, 4, 5, 6, 7, 8, 9, 10, 11, 12, 13, 14, 15, 16, 17, 18, 19, 20, 21, 22, 23, 24, 25, 26, 27, 28, 29]",300,204,-1,1,78,9,0.0
undo,49,29,0,0,0,25,"[0, 25]",2,18,"[1, 2, 4, 5, 6, 7, 9, 10, 12, 13, 14, 15, 16, 17, 22, 26, 27, 28]",223.3449284,6534,6330,13,101,8,1.0
undo,49,29,0,0,0,17,"[0, 25, 17]",3,13,"[1, 4, 5, 6, 7, 9, 10, 12, 13, 14, 22, 27, 28]",188.41643,8746,2212,2,22,8,1.014228463693056
undo,49,29,0,0,0,1,"[0, 25, 17, 1]",4,11,"[4, 5, 6, 7, 10, 12, 13, 14, 22, 27, 28]",149.5191293,10776,2030,2,18,8,1.7553639368828857
undo,49,29,0,0,0,14,"[0, 25, 17, 1, 14]",5,8,"[4, 5, 7, 12, 13, 22, 27, 28]",106.5656662,12303,1527,2,9,8,2.137167642879409
undo,49,29,0,0,0,13,"[0, 25, 17, 1, 14, 13]",6,4,"[4, 5, 12, 22]",88.53790978,13610,1307,2,3,8,1.9535489858276616
undo,49,29,0,0,0,5,"[0, 25, 17, 1, 14, 13, 5]",7,2,"[4, 22]",62.82798951,18077,4467,2,0,8,1.9087092890879327
undo,49,29,0,0,1,22,"[0, 25, 17, 1, 14, 13, 5, 22]",8,0,[],8.486476834,21996,3919,1,0,8,2.492296943176698
undo,49,29,1,0,0,5,"[0, 25, 17, 1, 14, 13, 5]",7,2,"[4, 22]",62.82798951,22860,864,2,0,8,1.9087092890879327
undo,49,29,1,0,0,13,"[0, 25, 17, 1, 14, 13]",6,4,"[4, 5, 12, 22]",88.53790978,23279,419,2,3,8,1.9535489858276616
undo,49,29,1,0,0,14,"[0, 25, 17, 1, 14]",5,8,"[4, 5, 7, 12, 13, 22, 27, 28]",106.5656662,23612,333,2,9,8,2.137167642879409
undo,49,29,1,0,0,1,"[0, 25, 17, 1]",4,11,"[4, 5, 6, 7, 10, 12, 13, 14, 22, 27, 28]",149.5191293,23948,336,2,18,8,1.7553639368828857
undo,49,29,1,0,0,17,"[0, 25, 17]",3,13,"[1, 4, 5, 6, 7, 9, 10, 12, 13, 14, 22, 27, 28]",188.41643,24283,335,2,22,8,1.014228463693056
undo,49,29,1,0,0,25,"[0, 25]",2,18,"[1, 2, 4, 5, 6, 7, 9, 10, 12, 13, 14, 15, 16, 17, 22, 26, 27, 28]",223.3449284,24602,319,13,101,8,1.0
undo,49,29,1,0,0,0,[0],1,29,"[1, 2, 3, 4, 5, 6, 7, 8, 9, 10, 11, 12, 13, 14, 15, 16, 17, 18, 19, 20, 21, 22, 23, 24, 25, 26, 27, 28, 29]",300,25071,469,1,78,9,0.0
undo,49,29,0,0,0,6,"[0, 6]",2,28,"[1, 2, 3, 4, 5, 7, 8, 9, 10, 11, 12, 13, 14, 15, 16, 17, 18, 19, 20, 21, 22, 23, 24, 25, 26, 27, 28, 29]",228.4108947,28024,2953,1,25,9,1.0
undo,49,29,0,0,0,28,"[0, 6, 28]",3,24,"[1, 3, 4, 5, 7, 9, 10, 11, 12, 13, 14, 15, 16, 17, 18, 20, 21, 22, 23, 24, 25, 26, 27, 29]",187.1798384,30193,2169,1,22,9,1.162106788166845
undo,49,29,0,0,0,27,"[0, 6, 28, 27]",4,19,"[1, 3, 4, 5, 7, 9, 10, 11, 12, 13, 14, 15, 16, 21, 22, 23, 25, 26, 29]",166.6615539,33189,2996,1,21,9,1.2307173895439045
undo,49,29,0,0,0,22,"[0, 6, 28, 27, 22]",5,13,"[1, 3, 4, 5, 7, 9, 12, 13, 14, 15, 21, 26, 29]",133.4200136,35043,1854,1,19,9,1.4241767805149903
undo,49,29,0,0,0,12,"[0, 6, 28, 27, 22, 12]",6,8,"[4, 5, 7, 9, 13, 14, 21, 26]",95.4726817,36786,1743,1,6,9,1.3248355326460857
undo,49,29,0,0,0,7,"[0, 6, 28, 27, 22, 12, 7]",7,4,"[4, 5, 9, 21]",81.87121119,43912,7126,1,3,9,1.3264091962339806
undo,49,29,0,0,0,9,"[0, 6, 28, 27, 22, 12, 7, 9]",8,1,[4],52.80232748,45802,1890,1,0,9,1.309391257644539
undo,49,29,0,0,1,4,"[0, 6, 28, 27, 22, 12, 7, 9, 4]",9,0,[],11.76575843,47922,2120,1,0,9,1.6396807789841599
undo,49,29,0,1,1,4,"[0, 6, 28, 27, 22, 12, 7, 9, 4]",9,0,[],11.76575843,54584,6662,1,0,9,1.6396807789841599
undo,50,9,0,0,0,0,[0],1,27,"[1, 3, 4, 5, 6, 7, 8, 9, 10, 11, 13, 14, 15, 16, 17, 18, 19, 20, 21, 22, 23, 24, 25, 26, 27, 28, 29]",300,179,-1,2,182,10,0.0
undo,50,9,0,0,0,9,"[0, 9]",2,26,"[1, 3, 4, 5, 6, 7, 8, 10, 11, 13, 14, 15, 16, 17, 18, 19, 20, 21, 22, 23, 24, 25, 26, 27, 28, 29]",225.5352432,6171,5992,2,101,9,1.0
undo,50,9,0,0,0,23,"[0, 9, 23]",3,22,"[1, 3, 4, 5, 7, 8, 10, 11, 13, 15, 16, 17, 18, 19, 20, 21, 22, 24, 25, 26, 27, 28]",203.1745635,7774,1603,2,70,9,1.6262276606762436
undo,50,9,0,0,0,8,"[0, 9, 23, 8]",4,18,"[3, 4, 5, 7, 10, 11, 15, 16, 17, 18, 19, 20, 21, 22, 25, 26, 27, 28]",181.7036529,11167,3393,1,36,9,1.8547307061753238
undo,50,9,0,0,0,28,"[0, 9, 23, 8, 28]",5,17,"[3, 4, 5, 7, 10, 11, 15, 16, 17, 18, 19, 20, 21, 22, 25, 26, 27]",170.8869991,12565,1398,1,23,9,1.7382749966569708
undo,50,9,0,0,0,26,"[0, 9, 23, 8, 28, 26]",6,10,"[3, 5, 10, 15, 16, 18, 19, 20, 21, 25]",126.1097727,14819,2254,4,7,8,1.4884719959249546
undo,50,9,0,0,0,21,"[0, 9, 23, 8, 28, 26, 21]",7,1,[20],72.20244484,17818,2999,1,0,8,1.9218119811471304
undo,50,9,0,0,1,20,"[0, 9, 23, 8, 28, 26, 21, 20]",8,0,[],60.11939886,19090,1272,1,0,8,1.8940565724013747
undo,50,9,1,0,0,21,"[0, 9, 23, 8, 28, 26, 21]",7,1,[20],72.20244484,27013,7923,1,0,8,1.9218119811471304
undo,50,9,1,0,0,26,"[0, 9, 23, 8, 28, 26]",6,10,"[3, 5, 10, 15, 16, 18, 19, 20, 21, 25]",126.1097727,27465,452,4,7,8,1.4884719959249546
undo,50,9,0,0,0,21,"[0, 9, 23, 8, 28, 26, 21]",7,1,[20],72.20244484,36816,9351,1,0,8,1.9218119811471304
undo,50,9,0,0,1,20,"[0, 9, 23, 8, 28, 26, 21, 20]",8,0,[],60.11939886,38247,1431,1,0,8,1.8940565724013747
undo,50,9,0,1,1,20,"[0, 9, 23, 8, 28, 26, 21, 20]",8,0,[],60.11939886,42021,3774,1,0,8,1.8940565724013747
undo,51,5,0,0,0,0,[0],1,29,"[1, 2, 3, 4, 5, 6, 7, 8, 9, 10, 11, 12, 13, 14, 15, 16, 17, 18, 19, 20, 21, 22, 23, 24, 25, 26, 27, 28, 29]",300,200,-1,5,139,9,0.0
undo,51,5,0,0,0,23,"[0, 23]",2,27,"[1, 2, 3, 4, 5, 6, 7, 8, 9, 10, 11, 12, 13, 14, 15, 16, 17, 18, 19, 20, 21, 22, 24, 25, 26, 27, 28]",249.8402552,16381,16181,3,75,9,1.0
undo,51,5,0,0,0,25,"[0, 23, 25]",3,23,"[1, 2, 3, 4, 5, 6, 8, 9, 10, 12, 13, 14, 15, 16, 17, 18, 19, 21, 22, 24, 26, 27, 28]",231.4011663,18562,2181,3,43,9,1.0923159590575564
undo,51,5,0,0,0,24,"[0, 23, 25, 24]",4,21,"[2, 3, 4, 5, 6, 8, 9, 10, 12, 13, 14, 15, 16, 17, 18, 19, 21, 22, 26, 27, 28]",206.5616816,20105,1543,3,25,9,1.2901858295679272
undo,51,5,0,0,0,17,"[0, 23, 25, 24, 17]",5,13,"[4, 5, 6, 8, 12, 13, 14, 15, 18, 19, 22, 26, 27]",171.5759702,22253,2148,3,14,9,1.2027484907982513
undo,51,5,0,0,0,5,"[0, 23, 25, 24, 17, 5]",6,7,"[4, 6, 8, 12, 15, 18, 19]",128.5294837,24057,1804,3,4,9,1.1472230681682432
undo,51,5,0,0,0,18,"[0, 23, 25, 24, 17, 5, 18]",7,2,"[4, 6]",61.46235316,26132,2075,1,1,9,1.1763046566678599
undo,51,5,0,0,0,4,"[0, 23, 25, 24, 17, 5, 18, 4]",8,1,[6],23.04360773,28250,2118,1,0,9,1.580519180089265
undo,51,5,0,0,1,6,"[0, 23, 25, 24, 17, 5, 18, 4, 6]",9,0,[],11.00201315,29542,1292,1,0,9,1.7305268673652696
undo,51,5,0,1,1,6,"[0, 23, 25, 24, 17, 5, 18, 4, 6]",9,0,[],11.00201315,31317,1775,1,0,9,1.7305268673652696
undo,52,18,0,0,0,0,[0],1,28,"[1, 2, 3, 4, 5, 6, 7, 8, 9, 10, 11, 12, 13, 14, 16, 17, 18, 19, 20, 21, 22, 23, 24, 25, 26, 27, 28, 29]",300,182,-1,3,136,10,0.0
undo,52,18,0,0,0,28,"[0, 28]",2,16,"[1, 3, 5, 7, 8, 9, 12, 13, 14, 16, 20, 23, 24, 25, 26, 27]",236.4311397,3477,3295,2,19,10,1.0
undo,52,18,0,0,0,7,"[0, 28, 7]",3,15,"[1, 3, 5, 8, 9, 12, 13, 14, 16, 20, 23, 24, 25, 26, 27]",214.4084242,5019,1542,2,17,10,1.4345180696367563
undo,52,18,0,0,0,25,"[0, 28, 7, 25]",4,13,"[1, 3, 5, 8, 9, 12, 13, 14, 16, 20, 23, 26, 27]",186.6055466,6587,1568,2,15,10,1.8896451241781882
undo,52,18,0,0,0,8,"[0, 28, 7, 25, 8]",5,10,"[3, 5, 9, 12, 13, 14, 16, 23, 26, 27]",149.551532,9038,2451,2,10,10,1.590467437592877
undo,52,18,0,0,0,13,"[0, 28, 7, 25, 8, 13]",6,9,"[3, 5, 9, 12, 14, 16, 23, 26, 27]",128.4565089,13356,4318,2,5,10,1.8248274983549797
undo,52,18,0,0,0,14,"[0, 28, 7, 25, 8, 13, 14]",7,7,"[3, 5, 9, 12, 23, 26, 27]",109.4828429,15381,2025,2,3,10,1.6993534956692746
undo,52,18,0,0,0,3,"[0, 28, 7, 25, 8, 13, 14, 3]",8,3,"[5, 12, 27]",79.39962499,18611,3230,2,1,10,1.802637206541468
undo,52,18,0,0,0,5,"[0, 28, 7, 25, 8, 13, 14, 3, 5]",9,1,[12],21.21887216,21543,2932,1,0,10,1.559774889743805
undo,52,18,0,0,1,12,"[0, 28, 7, 25, 8, 13, 14, 3, 5, 12]",10,0,[],9.817117911,24022,2479,1,0,10,1.563993037384447
undo,52,18,0,1,1,12,"[0, 28, 7, 25, 8, 13, 14, 3, 5, 12]",10,0,[],9.817117911,26378,2356,1,0,10,1.563993037384447
undo,53,33,0,0,0,0,[0],1,23,"[1, 2, 5, 7, 8, 11, 12, 13, 14, 15, 16, 17, 18, 19, 20, 21, 23, 24, 25, 26, 27, 28, 29]",300,198,-1,5,108,9,0.0
undo,53,33,0,0,0,21,"[0, 21]",2,17,"[2, 5, 7, 8, 11, 13, 14, 16, 17, 18, 19, 20, 24, 26, 27, 28, 29]",174.4611614,7190,6992,21,129,8,1.0
undo,53,33,0,0,0,13,"[0, 21, 13]",3,15,"[2, 5, 7, 8, 11, 14, 16, 17, 18, 19, 20, 24, 26, 28, 29]",148.0604038,9551,2361,17,72,8,1.0001005298764474
undo,53,33,0,0,0,19,"[0, 21, 13, 19]",4,11,"[7, 11, 14, 16, 17, 18, 20, 24, 26, 28, 29]",122.5653063,11309,1758,10,27,8,1.0588446738393702
undo,53,33,0,0,0,24,"[0, 21, 13, 19, 24]",5,7,"[7, 14, 16, 18, 26, 28, 29]",80.51771417,13641,2332,3,5,8,1.078006777679028
undo,53,33,0,0,0,7,"[0, 21, 13, 19, 24, 7]",6,3,"[14, 26, 29]",51.31155044,15574,1933,3,1,8,1.1669985062633954
undo,53,33,0,0,0,14,"[0, 21, 13, 19, 24, 7, 14]",7,2,"[26, 29]",36.44548169,17230,1656,2,0,8,1.2148465775488593
undo,53,33,0,0,1,26,"[0, 21, 13, 19, 24, 7, 14, 26]",8,0,[],23.79637105,18631,1401,1,0,8,1.2208379656544521
undo,53,33,0,1,1,26,"[0, 21, 13, 19, 24, 7, 14, 26]",8,0,[],23.79637105,22323,3692,1,0,8,1.2208379656544521
undo,54,19,0,0,0,0,[0],1,29,"[1, 2, 3, 4, 5, 6, 7, 8, 9, 10, 11, 12, 13, 14, 15, 16, 17, 18, 19, 20, 21, 22, 23, 24, 25, 26, 27, 28, 29]",300,166,-1,12,149,8,0.0
undo,54,19,0,0,0,29,"[0, 29]",2,28,"[1, 2, 3, 4, 5, 6, 7, 8, 9, 10, 11, 12, 13, 14, 15, 16, 17, 18, 19, 20, 21, 22, 23, 24, 25, 26, 27, 28]",265.0715016,4239,4073,12,120,8,1.0
undo,54,19,0,0,0,12,"[0, 29, 12]",3,10,"[1, 2, 3, 8, 13, 16, 17, 19, 23, 25]",151.2251139,9567,5328,1,15,8,1.2439006517653588
undo,54,19,0,0,0,17,"[0, 29, 12, 17]",4,9,"[1, 2, 3, 8, 13, 16, 19, 23, 25]",131.1005021,11283,1716,1,7,8,1.2186098272331718
undo,54,19,0,0,0,25,"[0, 29, 12, 17, 25]",5,8,"[1, 2, 3, 8, 13, 16, 19, 23]",120.0551411,12638,1355,1,6,8,1.319561617005615
undo,54,19,0,0,0,23,"[0, 29, 12, 17, 25, 23]",6,2,"[3, 8]",50.41319967,18586,5948,1,1,8,1.3880936298085154
undo,54,19,0,0,0,3,"[0, 29, 12, 17, 25, 23, 3]",7,1,[8],28.48148747,20706,2120,1,0,8,1.3473080672428304
undo,54,19,0,0,1,8,"[0, 29, 12, 17, 25, 23, 3, 8]",8,0,[],5.157679894,23543,2837,1,0,8,1.3530430001016291
undo,54,19,1,0,0,3,"[0, 29, 12, 17, 25, 23, 3]",7,1,[8],28.48148747,27433,3890,1,0,8,1.3473080672428304
undo,54,19,1,0,0,23,"[0, 29, 12, 17, 25, 23]",6,2,"[3, 8]",50.41319967,27818,385,1,1,8,1.3880936298085154
undo,54,19,1,0,0,25,"[0, 29, 12, 17, 25]",5,8,"[1, 2, 3, 8, 13, 16, 19, 23]",120.0551411,28103,285,1,6,8,1.319561617005615
undo,54,19,1,0,0,17,"[0, 29, 12, 17]",4,9,"[1, 2, 3, 8, 13, 16, 19, 23, 25]",131.1005021,28453,350,1,7,8,1.2186098272331718
undo,54,19,1,0,0,12,"[0, 29, 12]",3,10,"[1, 2, 3, 8, 13, 16, 17, 19, 23, 25]",151.2251139,28874,421,1,15,8,1.2439006517653588
undo,54,19,1,0,0,29,"[0, 29]",2,28,"[1, 2, 3, 4, 5, 6, 7, 8, 9, 10, 11, 12, 13, 14, 15, 16, 17, 18, 19, 20, 21, 22, 23, 24, 25, 26, 27, 28]",265.0715016,29208,334,12,120,8,1.0
undo,54,19,1,0,0,0,[0],1,29,"[1, 2, 3, 4, 5, 6, 7, 8, 9, 10, 11, 12, 13, 14, 15, 16, 17, 18, 19, 20, 21, 22, 23, 24, 25, 26, 27, 28, 29]",300,29945,737,12,149,8,0.0
undo,54,19,0,0,0,29,"[0, 29]",2,28,"[1, 2, 3, 4, 5, 6, 7, 8, 9, 10, 11, 12, 13, 14, 15, 16, 17, 18, 19, 20, 21, 22, 23, 24, 25, 26, 27, 28]",265.0715016,41860,11915,12,120,8,1.0
undo,54,19,0,0,0,9,"[0, 29, 9]",3,17,"[1, 4, 5, 6, 7, 10, 11, 12, 13, 14, 19, 20, 21, 22, 24, 27, 28]",181.7108394,45595,3735,11,65,8,1.0375842971861238
undo,54,19,0,0,0,6,"[0, 29, 9, 6]",4,12,"[4, 7, 10, 11, 13, 14, 20, 21, 22, 24, 27, 28]",140.2741407,47973,2378,11,34,8,1.0389786364356892
undo,54,19,0,0,0,4,"[0, 29, 9, 6, 4]",5,7,"[10, 11, 14, 20, 22, 27, 28]",99.22538921,51485,3512,2,6,8,1.2182485830176533
undo,54,19,0,0,0,28,"[0, 29, 9, 6, 4, 28]",6,3,"[11, 14, 27]",88.04504932,53502,2017,2,1,8,1.2933703503588658
undo,54,19,0,0,0,14,"[0, 29, 9, 6, 4, 28, 14]",7,1,[11],30.46032912,56501,2999,1,0,8,1.2889112786863766
undo,54,19,0,0,1,11,"[0, 29, 9, 6, 4, 28, 14, 11]",8,0,[],19.6436753,59337,2836,1,0,8,1.2786737377290265
undo,54,19,0,1,1,11,"[0, 29, 9, 6, 4, 28, 14, 11]",8,0,[],19.6436753,61652,2315,1,0,8,1.2786737377290265
undo,55,45,0,0,0,0,[0],1,24,"[1, 2, 3, 4, 5, 6, 7, 9, 10, 11, 12, 14, 15, 16, 17, 19, 20, 21, 22, 23, 24, 25, 27, 29]",300,193,-1,6,248,10,0.0
undo,55,45,0,0,0,15,"[0, 15]",2,23,"[1, 2, 3, 4, 5, 6, 7, 9, 10, 11, 12, 14, 16, 17, 19, 20, 21, 22, 23, 24, 25, 27, 29]",253.9022777,9847,9654,5,207,10,1.0
undo,55,45,0,0,0,23,"[0, 15, 23]",3,22,"[1, 2, 3, 4, 5, 6, 7, 9, 10, 11, 12, 14, 16, 17, 19, 20, 21, 22, 24, 25, 27, 29]",230.3014303,11959,2112,5,163,10,1.0006068457769497
undo,55,45,0,0,0,20,"[0, 15, 23, 20]",4,19,"[1, 2, 3, 5, 6, 7, 9, 10, 11, 12, 14, 16, 17, 19, 21, 22, 24, 25, 29]",188.8647316,14003,2044,5,137,10,1.2062119754673604
undo,55,45,0,0,0,7,"[0, 15, 23, 20, 7]",5,14,"[2, 3, 5, 6, 9, 10, 12, 14, 17, 19, 21, 22, 24, 29]",137.2410936,17176,3173,3,38,10,1.2267717168083891
undo,55,45,0,0,0,2,"[0, 15, 23, 20, 7, 2]",6,8,"[3, 6, 10, 12, 19, 22, 24, 29]",99.22793795,20572,3396,3,20,10,1.1978549169009853
undo,55,45,0,0,0,3,"[0, 15, 23, 20, 7, 2, 3]",7,5,"[6, 10, 12, 22, 29]",73.90996014,22865,2293,2,7,10,1.2603420042999722
undo,55,45,0,0,0,29,"[0, 15, 23, 20, 7, 2, 3, 29]",8,3,"[6, 10, 12]",53.90996014,24658,1793,2,1,10,1.527949676112761
undo,55,45,0,0,0,10,"[0, 15, 23, 20, 7, 2, 3, 29, 10]",9,1,[6],32.36930092,26380,1722,1,0,10,1.8188082660591487
undo,55,45,0,0,1,6,"[0, 15, 23, 20, 7, 2, 3, 29, 10, 6]",10,0,[],6.120491419,28343,1963,1,0,10,1.7062675391073039
undo,55,45,0,1,1,6,"[0, 15, 23, 20, 7, 2, 3, 29, 10, 6]",10,0,[],6.120491419,31381,3038,1,0,10,1.7062675391073039
undo,56,2,0,0,0,0,[0],1,23,"[1, 2, 4, 5, 6, 7, 8, 9, 12, 13, 15, 16, 17, 18, 19, 20, 22, 23, 25, 26, 27, 28, 29]",300,201,-1,70,620,10,0.0
undo,56,2,0,0,0,12,"[0, 12]",2,19,"[1, 2, 4, 5, 6, 7, 13, 15, 16, 17, 18, 19, 20, 22, 25, 26, 27, 28, 29]",186.8275652,5160,4959,3,169,10,1.0
undo,56,2,0,0,0,5,"[0, 12, 5]",3,14,"[1, 4, 6, 7, 13, 15, 16, 18, 19, 22, 25, 26, 28, 29]",157.2979191,6952,1792,2,88,10,1.0082498134695237
undo,56,2,0,0,0,22,"[0, 12, 5, 22]",4,11,"[1, 6, 7, 13, 15, 18, 19, 25, 26, 28, 29]",144.4916706,8428,1476,1,45,10,1.0077567572950326
undo,56,2,0,0,0,13,"[0, 12, 5, 22, 13]",5,9,"[1, 6, 7, 15, 18, 19, 25, 26, 29]",129.6256019,9753,1325,1,39,10,1.151783231594989
undo,56,2,0,0,0,18,"[0, 12, 5, 22, 13, 18]",6,4,"[7, 15, 26, 29]",94.45459106,12180,2427,1,14,10,1.1431544953850095
undo,56,2,0,0,0,7,"[0, 12, 5, 22, 13, 18, 7]",7,3,"[15, 26, 29]",84.15896092,14150,1970,1,4,10,1.1360054688421053
undo,56,2,0,0,0,26,"[0, 12, 5, 22, 13, 18, 7, 26]",8,2,"[15, 29]",61.35545242,16041,1891,1,1,10,1.1290531198668372
undo,56,2,0,0,0,15,"[0, 12, 5, 22, 13, 18, 7, 26, 15]",9,1,[29],37.14801554,18560,2519,1,0,10,1.395427297339814
undo,56,2,0,0,1,29,"[0, 12, 5, 22, 13, 18, 7, 26, 15, 29]",10,0,[],8.687516603,21251,2691,1,0,10,1.5868802136739162
undo,56,2,0,1,1,29,"[0, 12, 5, 22, 13, 18, 7, 26, 15, 29]",10,0,[],8.687516603,23161,1910,1,0,10,1.5868802136739162
undo,57,4,0,0,0,0,[0],1,26,"[3, 4, 5, 6, 7, 8, 10, 11, 12, 13, 14, 15, 16, 17, 18, 19, 20, 21, 22, 23, 24, 25, 26, 27, 28, 29]",300,180,-1,4,489,10,0.0
undo,57,4,0,0,0,13,"[0, 13]",2,23,"[3, 4, 5, 6, 7, 10, 11, 12, 14, 15, 16, 17, 19, 20, 21, 22, 23, 24, 25, 26, 27, 28, 29]",232.1030192,5497,5317,2,270,10,1.0
undo,57,4,0,0,0,28,"[0, 13, 28]",3,19,"[3, 4, 5, 6, 10, 11, 12, 14, 15, 16, 17, 19, 20, 21, 22, 23, 24, 25, 26]",200.5277124,8601,3104,2,221,10,1.3431168257921573
undo,57,4,0,0,0,14,"[0, 13, 28, 14]",4,11,"[3, 4, 5, 6, 11, 16, 17, 20, 21, 22, 25]",134.2857318,13335,4734,28,123,9,1.2134786195381546
undo,57,4,0,0,0,25,"[0, 13, 28, 14, 25]",5,10,"[3, 4, 5, 6, 11, 16, 17, 20, 21, 22]",118.1612163,15314,1979,22,51,9,1.4339367384350254
undo,57,4,0,0,0,11,"[0, 13, 28, 14, 25, 11]",6,9,"[3, 4, 5, 6, 16, 17, 20, 21, 22]",99.37292203,16411,1097,11,18,9,1.632788140935394
undo,57,4,0,0,0,16,"[0, 13, 28, 14, 25, 11, 16]",7,6,"[3, 5, 17, 20, 21, 22]",84.37292203,18142,1731,9,2,9,1.5642820747024264
undo,57,4,0,0,0,21,"[0, 13, 28, 14, 25, 11, 16, 21]",8,2,"[20, 22]",40.16884982,22216,4074,2,0,9,1.7579851057756917
undo,57,4,0,0,1,22,"[0, 13, 28, 14, 25, 11, 16, 21, 22]",9,0,[],29.12348881,23301,1085,1,0,9,1.7072764875626198
undo,57,4,1,0,0,21,"[0, 13, 28, 14, 25, 11, 16, 21]",8,2,"[20, 22]",40.16884982,29327,6026,2,0,9,1.7579851057756917
undo,57,4,1,0,0,16,"[0, 13, 28, 14, 25, 11, 16]",7,6,"[3, 5, 17, 20, 21, 22]",84.37292203,29910,583,9,2,9,1.5642820747024264
undo,57,4,0,0,0,17,"[0, 13, 28, 14, 25, 11, 16, 17]",8,4,"[3, 20, 21, 22]",58.29611241,36172,6262,4,0,9,1.4745445015567764
undo,57,4,0,0,1,21,"[0, 13, 28, 14, 25, 11, 16, 17, 21]",9,0,[],9.041670989,40891,4719,1,0,9,1.968587709550512
undo,57,4,0,1,1,21,"[0, 13, 28, 14, 25, 11, 16, 17, 21]",9,0,[],9.041670989,43662,2771,1,0,9,1.968587709550512
undo,58,34,0,0,0,0,[0],1,25,"[1, 3, 4, 5, 6, 7, 8, 9, 10, 11, 12, 13, 15, 18, 19, 20, 21, 22, 23, 24, 25, 26, 27, 28, 29]",300,202,-1,12,367,10,0.0
undo,58,34,0,0,0,13,"[0, 13]",2,24,"[1, 3, 4, 5, 6, 7, 8, 9, 10, 11, 12, 15, 18, 19, 20, 21, 22, 23, 24, 25, 26, 27, 28, 29]",279.9750156,3627,3425,12,331,10,1.0
undo,58,34,0,0,0,1,"[0, 13, 1]",3,16,"[3, 5, 7, 8, 9, 10, 11, 12, 19, 21, 22, 23, 24, 25, 27, 29]",211.8574701,5806,2179,3,92,10,1.0010381285747127
undo,58,34,0,0,0,8,"[0, 13, 1, 8]",4,14,"[3, 5, 7, 9, 10, 11, 12, 19, 22, 23, 24, 25, 27, 29]",201.0871405,7440,1634,2,54,10,1.1636807
undo,58,34,0,0,0,25,"[0, 13, 1, 8, 25]",5,12,"[3, 5, 7, 9, 10, 11, 12, 22, 23, 24, 27, 29]",183.999133,8584,1144,2,28,10,1.1396208815936457
undo,58,34,0,0,0,24,"[0, 13, 1, 8, 25, 24]",6,11,"[3, 5, 7, 9, 10, 11, 12, 22, 23, 27, 29]",166.5062774,10140,1556,2,23,10,1.374180768736554
undo,58,34,0,0,0,12,"[0, 13, 1, 8, 25, 24, 12]",7,7,"[7, 9, 10, 11, 22, 23, 27]",115.4670767,12356,2216,1,8,10,1.4994254760835948
undo,58,34,0,0,0,7,"[0, 13, 1, 8, 25, 24, 12, 7]",8,5,"[9, 11, 22, 23, 27]",100.4337804,14702,2346,1,4,10,1.758992610425009
undo,58,34,0,0,0,23,"[0, 13, 1, 8, 25, 24, 12, 7, 23]",9,1,[27],72.27352467,16635,1933,1,0,10,2.399781305190153
undo,58,34,0,0,1,27,"[0, 13, 1, 8, 25, 24, 12, 7, 23, 27]",10,0,[],18.60789321,19299,2664,1,0,10,4.766619878750327
undo,58,34,0,1,1,27,"[0, 13, 1, 8, 25, 24, 12, 7, 23, 27]",10,0,[],18.60789321,21654,2355,1,0,10,4.766619878750327
undo,59,43,0,0,0,0,[0],1,23,"[1, 2, 3, 4, 5, 6, 7, 9, 10, 11, 12, 14, 15, 16, 17, 19, 20, 21, 22, 23, 25, 27, 29]",300,199,-1,16,556,12,0.0
undo,59,43,0,0,0,29,"[0, 29]",2,22,"[1, 2, 3, 4, 5, 6, 7, 9, 10, 11, 12, 14, 15, 16, 17, 19, 20, 21, 22, 23, 25, 27]",277.909278,4593,4394,16,520,12,1.0
undo,59,43,0,0,0,20,"[0, 29, 20]",3,20,"[1, 2, 3, 4, 6, 7, 9, 10, 11, 12, 14, 15, 16, 17, 19, 21, 22, 23, 25, 27]",254.4785289,6485,1892,15,422,12,1.082311746871282
undo,59,43,0,0,0,16,"[0, 29, 20, 16]",4,19,"[1, 2, 3, 4, 6, 7, 9, 10, 11, 12, 14, 15, 17, 19, 21, 22, 23, 25, 27]",231.8511119,8179,1694,15,389,12,1.215201926898219
undo,59,43,0,0,0,11,"[0, 29, 20, 16, 11]",5,17,"[1, 2, 3, 4, 6, 7, 9, 10, 12, 14, 15, 17, 19, 21, 22, 23, 25]",196.7227758,9870,1691,12,188,12,1.1349145516483516
undo,59,43,0,0,0,6,"[0, 29, 20, 16, 11, 6]",6,15,"[1, 2, 3, 4, 7, 10, 12, 14, 15, 17, 19, 21, 22, 23, 25]",176.1072477,13437,3567,10,100,12,1.123330873754209
undo,59,43,0,0,0,15,"[0, 29, 20, 16, 11, 6, 15]",7,8,"[1, 3, 7, 12, 14, 19, 22, 25]",110.5023698,15266,1829,9,30,11,2.2919374245170157
undo,59,43,0,0,0,25,"[0, 29, 20, 16, 11, 6, 15, 25]",8,4,"[3, 12, 19, 22]",87.83080171,17696,2430,3,5,11,2.675204662186071
undo,59,43,0,0,0,12,"[0, 29, 20, 16, 11, 6, 15, 25, 12]",9,3,"[3, 19, 22]",63.64402846,19926,2230,3,1,11,2.3908516524722874
undo,59,43,0,0,0,3,"[0, 29, 20, 16, 11, 6, 15, 25, 12, 3]",10,2,"[19, 22]",50.64402846,22305,2379,2,0,11,2.238380338211026
