condition,trial_id,map_id,undoIndicator,submit,checkEnd,currentChoice,chosen_all,n_city_all,n_within_reach,cities_reach,currentBudget,time_all,rt_all,n_opt_paths_all,n_subopt_paths_all,mas_all,tortuosity_all
undo,0,23,0,0,0,0,[0],1,28,"[1, 2, 3, 4, 5, 6, 7, 8, 9, 10, 11, 12, 13, 14, 15, 16, 17, 18, 19, 20, 21, 22, 23, 25, 26, 27, 28, 29]",300,174,-1,76,2626,10,0.0
undo,0,23,0,0,0,21,"[0, 21]",2,27,"[1, 2, 3, 4, 5, 6, 7, 8, 9, 10, 11, 12, 13, 14, 15, 16, 17, 18, 19, 20, 22, 23, 25, 26, 27, 28, 29]",267.1062316,4954,4780,52,986,10,1.0
undo,0,23,0,0,0,19,"[0, 21, 19]",3,19,"[2, 4, 5, 6, 7, 8, 9, 11, 12, 13, 14, 16, 18, 20, 22, 23, 26, 27, 29]",217.6087569,6784,1830,11,48,7,1.173193157854804
undo,0,23,0,0,0,5,"[0, 21, 19, 5]",4,8,"[4, 8, 11, 13, 20, 22, 23, 26]",172.4313289,8323,1539,10,4,6,1.442121522320478
undo,0,23,0,0,0,20,"[0, 21, 19, 5, 20]",5,3,"[4, 8, 26]",118.6726087,10338,2015,3,0,6,1.4377937016237776
undo,0,23,0,0,1,26,"[0, 21, 19, 5, 20, 26]",6,0,[],43.87956089,12484,2146,1,0,6,1.539295408054038
undo,0,23,1,0,0,20,"[0, 21, 19, 5, 20]",5,3,"[4, 8, 26]",118.6726087,15308,2824,3,0,6,1.4377937016237776
undo,0,23,1,0,0,5,"[0, 21, 19, 5]",4,8,"[4, 8, 11, 13, 20, 22, 23, 26]",172.4313289,15508,200,10,4,6,1.442121522320478
undo,0,23,1,0,0,19,"[0, 21, 19]",3,19,"[2, 4, 5, 6, 7, 8, 9, 11, 12, 13, 14, 16, 18, 20, 22, 23, 26, 27, 29]",217.6087569,15708,200,11,48,7,1.173193157854804
undo,0,23,1,0,0,21,"[0, 21]",2,27,"[1, 2, 3, 4, 5, 6, 7, 8, 9, 10, 11, 12, 13, 14, 15, 16, 17, 18, 19, 20, 22, 23, 25, 26, 27, 28, 29]",267.1062316,15925,217,52,986,10,1.0
undo,0,23,1,0,0,0,[0],1,28,"[1, 2, 3, 4, 5, 6, 7, 8, 9, 10, 11, 12, 13, 14, 15, 16, 17, 18, 19, 20, 21, 22, 23, 25, 26, 27, 28, 29]",300,16191,266,76,2626,10,0.0
undo,0,23,0,0,0,22,"[0, 22]",2,24,"[1, 2, 3, 5, 6, 7, 8, 9, 10, 11, 12, 13, 14, 15, 17, 18, 19, 20, 21, 23, 25, 26, 27, 29]",210.5013967,21143,4952,15,1362,10,1.0
undo,0,23,0,0,0,13,"[0, 22, 13]",3,14,"[1, 2, 5, 6, 7, 8, 9, 10, 12, 14, 18, 21, 27, 29]",168.3113504,23484,2341,14,522,10,1.1898173563652046
undo,0,23,0,0,0,12,"[0, 22, 13, 12]",4,11,"[1, 2, 6, 7, 9, 10, 14, 18, 21, 27, 29]",156.2283045,25955,2471,12,166,10,1.1727968780218219
undo,0,23,0,0,0,6,"[0, 22, 13, 12, 6]",5,8,"[2, 7, 9, 10, 14, 18, 27, 29]",126.5466603,29135,3180,2,24,10,1.1544842845523764
undo,0,23,0,0,0,2,"[0, 22, 13, 12, 6, 2]",6,6,"[7, 9, 14, 18, 27, 29]",108.1075714,31033,1898,2,8,10,1.4062299368922424
undo,0,23,0,0,0,9,"[0, 22, 13, 12, 6, 2, 9]",7,4,"[7, 14, 27, 29]",95.06916658,32444,1411,1,3,10,1.5685676974894474
undo,0,23,0,0,0,14,"[0, 22, 13, 12, 6, 2, 9, 14]",8,3,"[7, 27, 29]",84.62886007,34396,1952,1,2,10,1.528647150775544
undo,0,23,0,0,0,29,"[0, 22, 13, 12, 6, 2, 9, 14, 29]",9,1,[7],37.19469517,36195,1799,1,0,10,1.7042299851162805
undo,0,23,0,0,1,7,"[0, 22, 13, 12, 6, 2, 9, 14, 29, 7]",10,0,[],13.11150601,39243,3048,1,0,10,1.7057367602759512
undo,0,23,0,1,1,7,"[0, 22, 13, 12, 6, 2, 9, 14, 29, 7]",10,0,[],13.11150601,44165,4922,1,0,10,1.7057367602759512
undo,1,10,0,0,0,0,[0],1,29,"[1, 2, 3, 4, 5, 6, 7, 8, 9, 10, 11, 12, 13, 14, 15, 16, 17, 18, 19, 20, 21, 22, 23, 24, 25, 26, 27, 28, 29]",300,223,-1,1,100,9,0.0
undo,1,10,0,0,0,13,"[0, 13]",2,25,"[1, 2, 3, 4, 6, 7, 8, 9, 10, 11, 12, 14, 17, 18, 19, 20, 21, 22, 23, 24, 25, 26, 27, 28, 29]",249.4628849,3810,3587,1,79,9,1.0
undo,1,10,0,0,0,11,"[0, 13, 11]",3,20,"[1, 2, 3, 6, 7, 8, 9, 10, 12, 14, 18, 19, 20, 21, 22, 24, 26, 27, 28, 29]",206.4512586,5482,1672,1,54,9,1.0313137484914219
undo,1,10,0,0,0,20,"[0, 13, 11, 20]",4,15,"[1, 2, 3, 6, 8, 9, 10, 12, 14, 18, 19, 21, 24, 26, 27]",168.3723931,7509,2027,15,34,8,1.0874972644654597
undo,1,10,0,0,0,26,"[0, 13, 11, 20, 26]",5,8,"[2, 6, 9, 10, 14, 18, 19, 27]",136.5918959,9883,2374,6,9,8,1.2338398611867702
undo,1,10,0,0,0,19,"[0, 13, 11, 20, 26, 19]",6,4,"[2, 10, 14, 27]",108.2722914,11220,1337,2,2,8,1.605667351096318
undo,1,10,0,0,0,2,"[0, 13, 11, 20, 26, 19, 2]",7,1,[14],64.36329458,12577,1357,1,0,8,1.443425373304724
undo,1,10,0,0,1,14,"[0, 13, 11, 20, 26, 19, 2, 14]",8,0,[],52.19776952,14267,1690,1,0,8,1.5494298542386484
undo,1,10,1,0,0,2,"[0, 13, 11, 20, 26, 19, 2]",7,1,[14],64.36329458,17755,3488,1,0,8,1.443425373304724
undo,1,10,1,0,0,19,"[0, 13, 11, 20, 26, 19]",6,4,"[2, 10, 14, 27]",108.2722914,17998,243,2,2,8,1.605667351096318
undo,1,10,1,0,0,26,"[0, 13, 11, 20, 26]",5,8,"[2, 6, 9, 10, 14, 18, 19, 27]",136.5918959,18191,193,6,9,8,1.2338398611867702
undo,1,10,1,0,0,20,"[0, 13, 11, 20]",4,15,"[1, 2, 3, 6, 8, 9, 10, 12, 14, 18, 19, 21, 24, 26, 27]",168.3723931,18388,197,15,34,8,1.0874972644654597
undo,1,10,1,0,0,11,"[0, 13, 11]",3,20,"[1, 2, 3, 6, 7, 8, 9, 10, 12, 14, 18, 19, 20, 21, 22, 24, 26, 27, 28, 29]",206.4512586,18588,200,1,54,9,1.0313137484914219
undo,1,10,1,0,0,13,"[0, 13]",2,25,"[1, 2, 3, 4, 6, 7, 8, 9, 10, 11, 12, 14, 17, 18, 19, 20, 21, 22, 23, 24, 25, 26, 27, 28, 29]",249.4628849,18807,219,1,79,9,1.0
undo,1,10,1,0,0,0,[0],1,29,"[1, 2, 3, 4, 5, 6, 7, 8, 9, 10, 11, 12, 13, 14, 15, 16, 17, 18, 19, 20, 21, 22, 23, 24, 25, 26, 27, 28, 29]",300,21630,2823,1,100,9,0.0
undo,1,10,0,0,0,13,"[0, 13]",2,25,"[1, 2, 3, 4, 6, 7, 8, 9, 10, 11, 12, 14, 17, 18, 19, 20, 21, 22, 23, 24, 25, 26, 27, 28, 29]",249.4628849,31273,9643,1,79,9,1.0
undo,1,10,0,0,0,11,"[0, 13, 11]",3,20,"[1, 2, 3, 6, 7, 8, 9, 10, 12, 14, 18, 19, 20, 21, 22, 24, 26, 27, 28, 29]",206.4512586,32882,1609,1,54,9,1.0313137484914219
undo,1,10,0,0,0,20,"[0, 13, 11, 20]",4,15,"[1, 2, 3, 6, 8, 9, 10, 12, 14, 18, 19, 21, 24, 26, 27]",168.3723931,43260,10378,15,34,8,1.0874972644654597
undo,1,10,0,0,0,27,"[0, 13, 11, 20, 27]",5,11,"[1, 2, 6, 9, 10, 12, 14, 18, 19, 21, 26]",123.1175591,44746,1486,1,10,8,1.1358705803065132
undo,1,10,0,0,0,9,"[0, 13, 11, 20, 27, 9]",6,1,[6],62.57831559,46584,1838,1,0,7,1.102380700365805
undo,1,10,0,0,1,6,"[0, 13, 11, 20, 27, 9, 6]",7,0,[],50.91641181,50132,3548,1,0,7,1.1735004372670057
undo,1,10,1,0,0,9,"[0, 13, 11, 20, 27, 9]",6,1,[6],62.57831559,52321,2189,1,0,7,1.102380700365805
undo,1,10,1,0,0,27,"[0, 13, 11, 20, 27]",5,11,"[1, 2, 6, 9, 10, 12, 14, 18, 19, 21, 26]",123.1175591,52628,307,1,10,8,1.1358705803065132
undo,1,10,1,0,0,20,"[0, 13, 11, 20]",4,15,"[1, 2, 3, 6, 8, 9, 10, 12, 14, 18, 19, 21, 24, 26, 27]",168.3723931,52870,242,15,34,8,1.0874972644654597
undo,1,10,1,0,0,11,"[0, 13, 11]",3,20,"[1, 2, 3, 6, 7, 8, 9, 10, 12, 14, 18, 19, 20, 21, 22, 24, 26, 27, 28, 29]",206.4512586,53086,216,1,54,9,1.0313137484914219
undo,1,10,1,0,0,13,"[0, 13]",2,25,"[1, 2, 3, 4, 6, 7, 8, 9, 10, 11, 12, 14, 17, 18, 19, 20, 21, 22, 23, 24, 25, 26, 27, 28, 29]",249.4628849,53370,284,1,79,9,1.0
undo,1,10,1,0,0,0,[0],1,29,"[1, 2, 3, 4, 5, 6, 7, 8, 9, 10, 11, 12, 13, 14, 15, 16, 17, 18, 19, 20, 21, 22, 23, 24, 25, 26, 27, 28, 29]",300,53652,282,1,100,9,0.0
undo,1,10,0,0,0,8,"[0, 8]",2,23,"[2, 3, 4, 6, 7, 9, 10, 11, 12, 13, 14, 17, 18, 19, 20, 21, 22, 23, 24, 26, 27, 28, 29]",256.9883737,98633,44981,13,64,8,1.0
undo,1,10,0,0,0,13,"[0, 8, 13]",3,18,"[2, 4, 6, 7, 9, 10, 11, 12, 14, 18, 19, 20, 22, 24, 26, 27, 28, 29]",185.96725,100565,1932,13,50,8,2.256415900137669
undo,1,10,0,0,0,11,"[0, 8, 13, 11]",4,11,"[2, 6, 9, 10, 14, 18, 19, 20, 24, 26, 27]",142.9556237,103029,2464,13,28,8,1.731311634743708
undo,1,10,0,0,0,19,"[0, 8, 13, 11, 19]",5,5,"[2, 14, 20, 26, 27]",106.5963058,104378,1349,5,5,8,1.6197032741169284
undo,1,10,0,0,0,2,"[0, 8, 13, 11, 19, 2]",6,2,"[14, 26]",62.68730899,109905,5527,1,1,8,1.4536918558613663
undo,1,10,0,0,0,14,"[0, 8, 13, 11, 19, 2, 14]",7,1,[26],50.52178393,111507,1602,1,0,8,1.5599092680170863
undo,1,10,0,0,1,26,"[0, 8, 13, 11, 19, 2, 14, 26]",8,0,[],15.85191228,115033,3526,1,0,8,2.1455070361405104
undo,1,10,0,1,1,26,"[0, 8, 13, 11, 19, 2, 14, 26]",8,0,[],15.85191228,124601,9568,1,0,8,2.1455070361405104
undo,2,16,0,0,0,0,[0],1,29,"[1, 2, 3, 4, 5, 6, 7, 8, 9, 10, 11, 12, 13, 14, 15, 16, 17, 18, 19, 20, 21, 22, 23, 24, 25, 26, 27, 28, 29]",300,192,-1,13,161,9,0.0
undo,2,16,0,0,0,28,"[0, 28]",2,27,"[1, 2, 3, 4, 5, 7, 8, 9, 10, 11, 12, 13, 14, 15, 16, 17, 18, 19, 20, 21, 22, 23, 24, 25, 26, 27, 29]",284.3475242,6467,6275,11,92,9,1.0
undo,2,16,0,0,0,17,"[0, 28, 17]",3,26,"[1, 2, 3, 4, 5, 7, 8, 9, 10, 11, 12, 13, 14, 15, 16, 18, 19, 20, 21, 22, 23, 24, 25, 26, 27, 29]",219.1555001,13044,6577,10,46,9,1.3773866384707543
undo,2,16,0,0,0,16,"[0, 28, 17, 16]",4,25,"[1, 2, 3, 4, 5, 7, 8, 9, 10, 11, 12, 13, 14, 15, 18, 19, 20, 21, 22, 23, 24, 25, 26, 27, 29]",190.8358956,16894,3850,10,34,9,1.3209953830681203
undo,2,16,0,0,0,8,"[0, 28, 17, 16, 8]",5,12,"[3, 4, 5, 9, 12, 13, 15, 19, 20, 21, 25, 29]",142.4623491,20836,3942,6,19,9,1.2700932705506198
undo,2,16,0,0,0,25,"[0, 28, 17, 16, 8, 25]",6,5,"[5, 9, 12, 15, 20]",82.24607223,24200,3364,2,7,9,1.1818231810970345
undo,2,16,0,0,0,20,"[0, 28, 17, 16, 8, 25, 20]",7,4,"[5, 9, 12, 15]",69.59696159,25732,1532,1,3,9,1.273333696564123
undo,2,16,0,0,0,9,"[0, 28, 17, 16, 8, 25, 20, 9]",8,1,[15],48.71634857,27253,1521,1,0,9,1.2752886720517775
undo,2,16,0,0,1,15,"[0, 28, 17, 16, 8, 25, 20, 9, 15]",9,0,[],9.819047893,31357,4104,1,0,9,1.3678045494834277
undo,2,16,0,1,1,15,"[0, 28, 17, 16, 8, 25, 20, 9, 15]",9,0,[],9.819047893,33417,2060,1,0,9,1.3678045494834277
undo,3,35,0,0,0,0,[0],1,29,"[1, 2, 3, 4, 5, 6, 7, 8, 9, 10, 11, 12, 13, 14, 15, 16, 17, 18, 19, 20, 21, 22, 23, 24, 25, 26, 27, 28, 29]",300,204,-1,5,236,11,0.0
undo,3,35,0,0,0,27,"[0, 27]",2,27,"[1, 2, 4, 5, 6, 7, 8, 9, 10, 11, 12, 13, 14, 15, 16, 17, 18, 19, 20, 21, 22, 23, 24, 25, 26, 28, 29]",278.7867966,3753,3549,5,144,11,1.0
undo,3,35,0,0,0,24,"[0, 27, 24]",3,25,"[1, 2, 4, 5, 6, 7, 8, 9, 10, 11, 12, 13, 15, 16, 17, 18, 19, 20, 21, 22, 23, 25, 26, 28, 29]",234.6053525,5056,1303,3,80,11,2.1084080567904624
undo,3,35,0,0,0,17,"[0, 27, 24, 17]",4,20,"[1, 2, 4, 5, 6, 7, 8, 9, 10, 15, 16, 18, 19, 20, 21, 23, 25, 26, 28, 29]",222.9006526,6472,1416,3,50,11,1.9439555968916868
undo,3,35,0,0,0,1,"[0, 27, 24, 17, 1]",5,18,"[2, 4, 5, 6, 8, 9, 10, 15, 16, 18, 19, 20, 21, 23, 25, 26, 28, 29]",207.0892643,7588,1116,3,39,11,1.9436711872547336
undo,3,35,0,0,0,15,"[0, 27, 24, 17, 1, 15]",6,16,"[2, 4, 5, 6, 8, 9, 10, 16, 18, 19, 20, 23, 25, 26, 28, 29]",184.241945,9121,1533,3,24,11,2.082774572108194
undo,3,35,0,0,0,23,"[0, 27, 24, 17, 1, 15, 23]",7,7,"[5, 6, 9, 18, 19, 25, 26]",123.801892,13732,4611,3,14,11,1.657239080954205
undo,3,35,0,0,0,9,"[0, 27, 24, 17, 1, 15, 23, 9]",8,4,"[6, 18, 19, 25]",86.15883157,17111,3379,2,2,11,1.9022575917054987
undo,3,35,0,0,0,18,"[0, 27, 24, 17, 1, 15, 23, 9, 18]",9,2,"[6, 25]",66.13384718,18400,1289,2,0,11,1.8181129550839106
undo,3,35,0,0,0,25,"[0, 27, 24, 17, 1, 15, 23, 9, 18, 25]",10,1,[6],32.29599855,20944,2544,1,0,11,1.6530923432245144
undo,3,35,0,0,1,6,"[0, 27, 24, 17, 1, 15, 23, 9, 18, 25, 6]",11,0,[],8.275174247,23138,2194,1,0,11,1.9291202388527962
undo,3,35,0,1,1,6,"[0, 27, 24, 17, 1, 15, 23, 9, 18, 25, 6]",11,0,[],8.275174247,25062,1924,1,0,11,1.9291202388527962
undo,4,39,0,0,0,0,[0],1,28,"[1, 2, 3, 4, 5, 6, 7, 9, 10, 11, 12, 13, 14, 15, 16, 17, 18, 19, 20, 21, 22, 23, 24, 25, 26, 27, 28, 29]",300,204,-1,1,30,10,0.0
undo,4,39,0,0,0,29,"[0, 29]",2,26,"[1, 2, 3, 4, 5, 6, 7, 9, 10, 12, 13, 14, 15, 16, 17, 18, 19, 20, 21, 22, 23, 24, 25, 26, 27, 28]",243.0614366,9573,9369,8,104,9,1.0
undo,4,39,0,0,0,10,"[0, 29, 10]",3,19,"[1, 2, 4, 5, 7, 9, 12, 13, 14, 15, 16, 17, 18, 19, 22, 23, 24, 26, 28]",178.4239862,12272,2699,3,48,9,1.0231293692376968
undo,4,39,0,0,0,7,"[0, 29, 10, 7]",4,14,"[1, 2, 4, 5, 9, 12, 13, 15, 16, 18, 19, 22, 24, 26]",145.0024362,13787,1515,2,20,9,1.0186411966151707
undo,4,39,0,0,0,26,"[0, 29, 10, 7, 26]",5,9,"[1, 2, 5, 12, 13, 16, 18, 19, 22]",126.3208945,15085,1298,1,9,9,1.0752526811750318
undo,4,39,0,0,0,22,"[0, 29, 10, 7, 26, 22]",6,6,"[1, 5, 12, 16, 18, 19]",108.6008494,16554,1469,1,3,9,1.2360944063790367
undo,4,39,0,0,0,16,"[0, 29, 10, 7, 26, 22, 16]",7,2,"[18, 19]",73.6008494,19069,2515,1,1,9,1.1926155792040818
undo,4,39,0,0,0,19,"[0, 29, 10, 7, 26, 22, 16, 19]",8,1,[18],56.1366002,20497,1428,1,0,9,1.2089345217410772
undo,4,39,0,0,1,18,"[0, 29, 10, 7, 26, 22, 16, 19, 18]",9,0,[],12.96253391,23977,3480,1,0,9,1.2243548998729528
undo,4,39,0,1,1,18,"[0, 29, 10, 7, 26, 22, 16, 19, 18]",9,0,[],12.96253391,26734,2757,1,0,9,1.2243548998729528
undo,5,9,0,0,0,0,[0],1,27,"[1, 3, 4, 5, 6, 7, 8, 9, 10, 11, 13, 14, 15, 16, 17, 18, 19, 20, 21, 22, 23, 24, 25, 26, 27, 28, 29]",300,201,-1,2,182,10,0.0
undo,5,9,0,0,0,25,"[0, 25]",2,24,"[1, 3, 4, 5, 6, 7, 8, 9, 10, 11, 13, 15, 16, 17, 18, 19, 20, 21, 22, 23, 24, 26, 27, 28]",275.9168108,6627,6426,2,104,10,1.0
undo,5,9,0,0,0,10,"[0, 25, 10]",3,20,"[3, 4, 5, 7, 8, 9, 11, 13, 15, 16, 17, 18, 19, 20, 21, 22, 23, 26, 27, 28]",236.0670932,8458,1831,2,76,10,1.1767014107208227
undo,5,9,0,0,0,8,"[0, 25, 10, 8]",4,19,"[3, 4, 5, 7, 9, 11, 13, 15, 16, 17, 18, 19, 20, 21, 22, 23, 26, 27, 28]",187.6935467,10916,2458,1,29,10,1.7608170712242983
undo,5,9,0,0,0,28,"[0, 25, 10, 8, 28]",5,18,"[3, 4, 5, 7, 9, 11, 13, 15, 16, 17, 18, 19, 20, 21, 22, 23, 26, 27]",176.8768928,11998,1082,1,15,10,1.6576318206889098
undo,5,9,0,0,0,23,"[0, 25, 10, 8, 28, 23]",6,12,"[3, 4, 7, 9, 11, 18, 19, 20, 21, 22, 26, 27]",151.8569008,13495,1497,1,7,10,2.488131366775142
undo,5,9,0,0,0,9,"[0, 25, 10, 8, 28, 23, 9]",7,10,"[3, 4, 7, 11, 18, 19, 20, 21, 26, 27]",129.4962211,15558,2063,1,5,10,2.289724512754012
undo,5,9,0,0,0,26,"[0, 25, 10, 8, 28, 23, 9, 26]",8,3,"[18, 20, 21]",72.8481849,19371,3813,1,2,10,1.944382504121744
undo,5,9,0,0,0,21,"[0, 25, 10, 8, 28, 23, 9, 26, 21]",9,1,[20],18.94085701,21445,2074,1,0,10,2.3711528775176802
undo,5,9,0,0,1,20,"[0, 25, 10, 8, 28, 23, 9, 26, 21, 20]",10,0,[],6.85781104,22952,1507,1,0,10,2.3146010432238726
undo,5,9,0,1,1,20,"[0, 25, 10, 8, 28, 23, 9, 26, 21, 20]",10,0,[],6.85781104,24485,1533,1,0,10,2.3146010432238726
undo,6,42,0,0,0,0,[0],1,29,"[1, 2, 3, 4, 5, 6, 7, 8, 9, 10, 11, 12, 13, 14, 15, 16, 17, 18, 19, 20, 21, 22, 23, 24, 25, 26, 27, 28, 29]",300,174,-1,16,302,9,0.0
undo,6,42,0,0,0,5,"[0, 5]",2,28,"[1, 2, 3, 4, 6, 7, 8, 9, 10, 11, 12, 13, 14, 15, 16, 17, 18, 19, 20, 21, 22, 23, 24, 25, 26, 27, 28, 29]",191.2939744,12567,12393,1,22,9,1.0
undo,6,42,0,0,0,4,"[0, 5, 4]",3,23,"[1, 2, 3, 6, 7, 8, 9, 10, 11, 13, 15, 17, 18, 19, 20, 21, 22, 23, 24, 25, 26, 27, 29]",171.4445412,14834,2267,1,14,9,1.420957801478707
undo,6,42,0,0,0,22,"[0, 5, 4, 22]",4,20,"[1, 2, 3, 6, 7, 8, 9, 11, 15, 17, 18, 19, 20, 21, 23, 24, 25, 26, 27, 29]",160.2642013,16422,1588,1,11,9,1.5771494659680896
undo,6,42,0,0,0,8,"[0, 5, 4, 22, 8]",5,14,"[1, 2, 3, 6, 7, 11, 15, 18, 19, 24, 25, 26, 27, 29]",138.1282577,18114,1692,1,10,9,1.5055393955524201
undo,6,42,0,0,0,1,"[0, 5, 4, 22, 8, 1]",6,5,"[2, 7, 19, 26, 27]",89.03650682,20701,2587,1,7,9,1.3547259083637835
undo,6,42,0,0,0,7,"[0, 5, 4, 22, 8, 1, 7]",7,4,"[2, 19, 26, 27]",59.03650682,22625,1924,1,3,9,1.3909715672447451
undo,6,42,0,0,0,26,"[0, 5, 4, 22, 8, 1, 7, 26]",8,1,[27],32.46584631,24258,1633,1,0,9,1.3511825943939393
undo,6,42,0,0,1,27,"[0, 5, 4, 22, 8, 1, 7, 26, 27]",9,0,[],14.43808994,26374,2116,1,0,9,1.3391911688802078
undo,6,42,1,0,0,26,"[0, 5, 4, 22, 8, 1, 7, 26]",8,1,[27],32.46584631,30511,4137,1,0,9,1.3511825943939393
undo,6,42,1,0,0,7,"[0, 5, 4, 22, 8, 1, 7]",7,4,"[2, 19, 26, 27]",59.03650682,30711,200,1,3,9,1.3909715672447451
undo,6,42,1,0,0,1,"[0, 5, 4, 22, 8, 1]",6,5,"[2, 7, 19, 26, 27]",89.03650682,30896,185,1,7,9,1.3547259083637835
undo,6,42,1,0,0,8,"[0, 5, 4, 22, 8]",5,14,"[1, 2, 3, 6, 7, 11, 15, 18, 19, 24, 25, 26, 27, 29]",138.1282577,31061,165,1,10,9,1.5055393955524201
undo,6,42,1,0,0,22,"[0, 5, 4, 22]",4,20,"[1, 2, 3, 6, 7, 8, 9, 11, 15, 17, 18, 19, 20, 21, 23, 24, 25, 26, 27, 29]",160.2642013,31228,167,1,11,9,1.5771494659680896
undo,6,42,1,0,0,4,"[0, 5, 4]",3,23,"[1, 2, 3, 6, 7, 8, 9, 10, 11, 13, 15, 17, 18, 19, 20, 21, 22, 23, 24, 25, 26, 27, 29]",171.4445412,31378,150,1,14,9,1.420957801478707
undo,6,42,1,0,0,5,"[0, 5]",2,28,"[1, 2, 3, 4, 6, 7, 8, 9, 10, 11, 12, 13, 14, 15, 16, 17, 18, 19, 20, 21, 22, 23, 24, 25, 26, 27, 28, 29]",191.2939744,31746,368,1,22,9,1.0
undo,6,42,1,0,0,0,[0],1,29,"[1, 2, 3, 4, 5, 6, 7, 8, 9, 10, 11, 12, 13, 14, 15, 16, 17, 18, 19, 20, 21, 22, 23, 24, 25, 26, 27, 28, 29]",300,31943,197,16,302,9,0.0
undo,6,42,0,0,0,23,"[0, 23]",2,17,"[1, 2, 3, 4, 5, 6, 7, 8, 9, 11, 15, 17, 22, 24, 25, 26, 29]",219,40073,8130,44,102,7,1.0
undo,6,42,0,0,0,17,"[0, 23, 17]",3,15,"[1, 2, 3, 4, 5, 6, 7, 8, 9, 11, 15, 22, 24, 25, 29]",207.8196601,42153,2080,27,42,7,1.0114451629284253
undo,6,42,0,0,0,11,"[0, 23, 17, 11]",4,13,"[1, 2, 3, 4, 5, 6, 7, 8, 15, 22, 24, 25, 29]",156.6239572,44323,2170,13,14,7,1.5620381439275295
undo,6,42,0,0,0,24,"[0, 23, 17, 11, 24]",5,4,"[2, 3, 6, 15]",98.61533712,46787,2464,2,3,7,1.536884550045445
undo,6,42,0,0,0,15,"[0, 23, 17, 11, 24, 15]",6,2,"[2, 6]",85.01386661,48351,1564,2,0,7,1.4864857512288958
undo,6,42,0,0,1,6,"[0, 23, 17, 11, 24, 15, 6]",7,0,[],35.61751047,52846,4495,1,0,7,1.3735499030929144
undo,6,42,1,0,0,15,"[0, 23, 17, 11, 24, 15]",6,2,"[2, 6]",85.01386661,55607,2761,2,0,7,1.4864857512288958
undo,6,42,1,0,0,24,"[0, 23, 17, 11, 24]",5,4,"[2, 3, 6, 15]",98.61533712,55935,328,2,3,7,1.536884550045445
undo,6,42,1,0,0,11,"[0, 23, 17, 11]",4,13,"[1, 2, 3, 4, 5, 6, 7, 8, 15, 22, 24, 25, 29]",156.6239572,56136,201,13,14,7,1.5620381439275295
undo,6,42,1,0,0,17,"[0, 23, 17]",3,15,"[1, 2, 3, 4, 5, 6, 7, 8, 9, 11, 15, 22, 24, 25, 29]",207.8196601,56389,253,27,42,7,1.0114451629284253
undo,6,42,1,0,0,23,"[0, 23]",2,17,"[1, 2, 3, 4, 5, 6, 7, 8, 9, 11, 15, 17, 22, 24, 25, 26, 29]",219,56851,462,44,102,7,1.0
undo,6,42,1,0,0,0,[0],1,29,"[1, 2, 3, 4, 5, 6, 7, 8, 9, 10, 11, 12, 13, 14, 15, 16, 17, 18, 19, 20, 21, 22, 23, 24, 25, 26, 27, 28, 29]",300,57250,399,16,302,9,0.0
undo,6,42,0,0,0,4,"[0, 4]",2,28,"[1, 2, 3, 5, 6, 7, 8, 9, 10, 11, 12, 13, 14, 15, 16, 17, 18, 19, 20, 21, 22, 23, 24, 25, 26, 27, 28, 29]",209.5290102,60639,3389,4,80,9,1.0
undo,6,42,0,0,0,22,"[0, 4, 22]",3,24,"[1, 2, 3, 5, 6, 7, 8, 9, 10, 11, 13, 15, 17, 18, 19, 20, 21, 23, 24, 25, 26, 27, 28, 29]",198.3486703,61689,1050,3,53,9,1.1473032812120834
undo,6,42,0,0,0,5,"[0, 4, 22, 5]",4,20,"[1, 2, 3, 7, 8, 9, 10, 11, 13, 15, 18, 19, 20, 21, 23, 24, 25, 26, 27, 29]",170.1174819,62960,1271,1,14,9,1.1948051397585588
undo,6,42,0,0,0,8,"[0, 4, 22, 5, 8]",5,13,"[1, 2, 3, 7, 11, 15, 18, 19, 24, 25, 26, 27, 29]",135.6356026,64935,1975,1,10,9,1.5287231236031107
undo,6,42,0,0,0,1,"[0, 4, 22, 5, 8, 1]",6,5,"[2, 7, 19, 26, 27]",86.54385173,67337,2402,1,7,9,1.3707327746710105
undo,6,42,0,0,0,7,"[0, 4, 22, 5, 8, 1, 7]",7,4,"[2, 19, 26, 27]",56.54385173,68832,1495,1,3,9,1.4053605201578234
undo,6,42,0,0,0,26,"[0, 4, 22, 5, 8, 1, 7, 26]",8,1,[27],29.97319122,71063,2231,1,0,9,1.3637717615151517
undo,6,42,0,0,1,27,"[0, 4, 22, 5, 8, 1, 7, 26, 27]",9,0,[],11.94543484,72778,1715,1,0,9,1.3508808991256835
undo,6,42,0,1,1,27,"[0, 4, 22, 5, 8, 1, 7, 26, 27]",9,0,[],11.94543484,74719,1941,1,0,9,1.3508808991256835
undo,7,14,0,0,0,0,[0],1,29,"[1, 2, 3, 4, 5, 6, 7, 8, 9, 10, 11, 12, 13, 14, 15, 16, 17, 18, 19, 20, 21, 22, 23, 24, 25, 26, 27, 28, 29]",300,184,-1,8,157,10,0.0
undo,7,14,0,0,0,20,"[0, 20]",2,21,"[1, 2, 3, 7, 8, 9, 10, 11, 13, 15, 17, 18, 19, 21, 22, 23, 25, 26, 27, 28, 29]",236.0468922,8473,8289,2,25,9,1.0
undo,7,14,0,0,0,13,"[0, 20, 13]",3,9,"[1, 3, 8, 15, 17, 18, 19, 22, 28]",178.5577628,9950,1477,15,25,7,1.102881585595972
undo,7,14,0,0,0,28,"[0, 20, 13, 28]",4,6,"[1, 8, 15, 17, 18, 19]",112.2705091,13465,3515,9,7,7,1.9131186658860106
undo,7,14,0,0,0,17,"[0, 20, 13, 28, 17]",5,5,"[1, 8, 15, 18, 19]",98.81688505,16241,2776,4,2,7,1.8615302877124043
undo,7,14,0,0,0,15,"[0, 20, 13, 28, 17, 15]",6,1,[18],73.63752842,18673,2432,1,0,7,2.717610923109523
undo,7,14,0,0,1,18,"[0, 20, 13, 28, 17, 15, 18]",7,0,[],10.57406832,21706,3033,1,0,7,2.409791837933796
undo,7,14,1,0,0,15,"[0, 20, 13, 28, 17, 15]",6,1,[18],73.63752842,26108,4402,1,0,7,2.717610923109523
undo,7,14,1,0,0,17,"[0, 20, 13, 28, 17]",5,5,"[1, 8, 15, 18, 19]",98.81688505,26508,400,4,2,7,1.8615302877124043
undo,7,14,1,0,0,28,"[0, 20, 13, 28]",4,6,"[1, 8, 15, 17, 18, 19]",112.2705091,26807,299,9,7,7,1.9131186658860106
undo,7,14,1,0,0,13,"[0, 20, 13]",3,9,"[1, 3, 8, 15, 17, 18, 19, 22, 28]",178.5577628,27158,351,15,25,7,1.102881585595972
undo,7,14,1,0,0,20,"[0, 20]",2,21,"[1, 2, 3, 7, 8, 9, 10, 11, 13, 15, 17, 18, 19, 21, 22, 23, 25, 26, 27, 28, 29]",236.0468922,27391,233,2,25,9,1.0
undo,7,14,1,0,0,0,[0],1,29,"[1, 2, 3, 4, 5, 6, 7, 8, 9, 10, 11, 12, 13, 14, 15, 16, 17, 18, 19, 20, 21, 22, 23, 24, 25, 26, 27, 28, 29]",300,27806,415,8,157,10,0.0
undo,7,14,0,0,0,22,"[0, 22]",2,24,"[1, 2, 3, 4, 6, 7, 8, 9, 10, 11, 13, 15, 17, 18, 19, 20, 21, 23, 24, 25, 26, 27, 28, 29]",254.745166,31128,3322,1,39,8,1.0
undo,7,14,0,0,0,3,"[0, 22, 3]",3,20,"[1, 2, 6, 7, 8, 9, 10, 11, 13, 15, 17, 18, 19, 20, 21, 24, 25, 27, 28, 29]",212.0251473,32416,1288,3,37,7,1.8452653659638358
undo,7,14,0,0,0,27,"[0, 22, 3, 27]",4,8,"[6, 9, 10, 11, 20, 21, 24, 29]",162.0951963,36390,3974,1,6,7,1.5153459107133316
undo,7,14,0,0,0,9,"[0, 22, 3, 27, 9]",5,2,"[11, 21]",73.80023613,40735,4345,1,1,7,2.3519131528101727
undo,7,14,0,0,0,21,"[0, 22, 3, 27, 9, 21]",6,1,[11],47.17318222,42450,1715,1,0,7,2.063978355111143
undo,7,14,0,0,1,11,"[0, 22, 3, 27, 9, 21, 11]",7,0,[],4.983135997,44665,2215,1,0,7,1.80571060619435
undo,7,14,0,1,1,11,"[0, 22, 3, 27, 9, 21, 11]",7,0,[],4.983135997,47237,2572,1,0,7,1.80571060619435
undo,8,40,0,0,0,0,[0],1,29,"[1, 2, 3, 4, 5, 6, 7, 8, 9, 10, 11, 12, 13, 14, 15, 16, 17, 18, 19, 20, 21, 22, 23, 24, 25, 26, 27, 28, 29]",300,174,-1,8,191,9,0.0
undo,8,40,0,0,0,1,"[0, 1]",2,18,"[2, 5, 6, 7, 8, 9, 10, 11, 13, 15, 17, 18, 19, 21, 22, 23, 27, 29]",247.8463808,5042,4868,4,80,9,1.0
undo,8,40,0,0,0,6,"[0, 1, 6]",3,17,"[2, 5, 7, 8, 9, 10, 11, 13, 15, 17, 18, 19, 21, 22, 23, 27, 29]",227.7466295,9889,4847,4,74,9,1.0459427008232034
undo,8,40,0,0,0,21,"[0, 1, 6, 21]",4,8,"[2, 5, 9, 17, 18, 19, 22, 23]",175.7754837,11630,1741,4,25,9,1.0308822257404064
undo,8,40,0,0,0,9,"[0, 1, 6, 21, 9]",5,6,"[2, 5, 18, 19, 22, 23]",130.0699041,13105,1475,4,12,9,1.377861912961129
undo,8,40,0,0,0,18,"[0, 1, 6, 21, 9, 18]",6,5,"[2, 5, 19, 22, 23]",113.5169588,14438,1333,4,4,9,1.5742712168661408
undo,8,40,0,0,0,5,"[0, 1, 6, 21, 9, 18, 5]",7,3,"[19, 22, 23]",81.94165198,16131,1693,2,1,9,1.7730665063055515
undo,8,40,0,0,0,23,"[0, 1, 6, 21, 9, 18, 5, 23]",8,1,[19],53.63970859,19560,3429,1,0,9,2.597442759912231
undo,8,40,0,0,1,19,"[0, 1, 6, 21, 9, 18, 5, 23, 19]",9,0,[],21.68661797,22009,2449,1,0,9,2.7128328554069565
undo,8,40,0,1,1,19,"[0, 1, 6, 21, 9, 18, 5, 23, 19]",9,0,[],21.68661797,25632,3623,1,0,9,2.7128328554069565
undo,9,26,0,0,0,0,[0],1,29,"[1, 2, 3, 4, 5, 6, 7, 8, 9, 10, 11, 12, 13, 14, 15, 16, 17, 18, 19, 20, 21, 22, 23, 24, 25, 26, 27, 28, 29]",300,191,-1,9,226,9,0.0
undo,9,26,0,0,0,21,"[0, 21]",2,25,"[2, 3, 4, 5, 6, 7, 8, 10, 11, 12, 13, 14, 15, 16, 17, 18, 19, 22, 23, 24, 25, 26, 27, 28, 29]",211.1349337,16837,16646,7,90,9,1.0
undo,9,26,0,0,0,13,"[0, 21, 13]",3,21,"[3, 4, 5, 6, 7, 8, 10, 11, 12, 14, 15, 16, 17, 18, 19, 22, 23, 24, 25, 26, 29]",188.9989901,18964,2127,6,45,9,1.0103952279992225
undo,9,26,0,0,0,5,"[0, 21, 13, 5]",4,12,"[3, 4, 11, 14, 16, 17, 18, 22, 23, 25, 26, 29]",150.7106107,20913,1949,2,10,8,1.0086890649024711
undo,9,26,0,0,0,23,"[0, 21, 13, 5, 23]",5,8,"[3, 4, 11, 14, 16, 17, 22, 29]",118.0150452,23394,2481,2,7,8,1.3518621918690494
undo,9,26,0,0,0,16,"[0, 21, 13, 5, 23, 16]",6,4,"[4, 14, 17, 29]",64.77971862,26163,2769,2,3,8,2.1011863559657242
undo,9,26,0,0,0,29,"[0, 21, 13, 5, 23, 16, 29]",7,2,"[4, 17]",40.57228175,27441,1278,2,0,8,2.123178325538451
undo,9,26,0,0,1,4,"[0, 21, 13, 5, 23, 16, 29, 4]",8,0,[],16.57228175,32122,4681,1,0,8,2.338467952972574
undo,9,26,1,0,0,29,"[0, 21, 13, 5, 23, 16, 29]",7,2,"[4, 17]",40.57228175,39573,7451,2,0,8,2.123178325538451
undo,9,26,1,0,0,16,"[0, 21, 13, 5, 23, 16]",6,4,"[4, 14, 17, 29]",64.77971862,39837,264,2,3,8,2.1011863559657242
undo,9,26,1,0,0,23,"[0, 21, 13, 5, 23]",5,8,"[3, 4, 11, 14, 16, 17, 22, 29]",118.0150452,40036,199,2,7,8,1.3518621918690494
undo,9,26,1,0,0,5,"[0, 21, 13, 5]",4,12,"[3, 4, 11, 14, 16, 17, 18, 22, 23, 25, 26, 29]",150.7106107,40252,216,2,10,8,1.0086890649024711
undo,9,26,1,0,0,13,"[0, 21, 13]",3,21,"[3, 4, 5, 6, 7, 8, 10, 11, 12, 14, 15, 16, 17, 18, 19, 22, 23, 24, 25, 26, 29]",188.9989901,40468,216,6,45,9,1.0103952279992225
undo,9,26,1,0,0,21,"[0, 21]",2,25,"[2, 3, 4, 5, 6, 7, 8, 10, 11, 12, 13, 14, 15, 16, 17, 18, 19, 22, 23, 24, 25, 26, 27, 28, 29]",211.1349337,41001,533,7,90,9,1.0
undo,9,26,1,0,0,0,[0],1,29,"[1, 2, 3, 4, 5, 6, 7, 8, 9, 10, 11, 12, 13, 14, 15, 16, 17, 18, 19, 20, 21, 22, 23, 24, 25, 26, 27, 28, 29]",300,41418,417,9,226,9,0.0
undo,9,26,0,0,0,4,"[0, 4]",2,13,"[5, 6, 10, 12, 13, 14, 16, 17, 19, 21, 23, 26, 29]",178.7976898,47370,5952,4,118,8,1.0
undo,9,26,0,0,0,17,"[0, 4, 17]",3,10,"[5, 6, 10, 12, 13, 14, 16, 21, 23, 29]",157.7026667,49375,2005,1,35,8,1.0014732588101924
undo,9,26,0,0,0,6,"[0, 4, 17, 6]",4,6,"[10, 14, 16, 21, 23, 29]",137.5780549,50804,1429,10,11,7,1.011273258075741
undo,9,26,0,0,0,14,"[0, 4, 17, 6, 14]",5,4,"[10, 16, 23, 29]",116.5542588,52765,1961,5,2,7,1.1383391147196797
undo,9,26,0,0,0,29,"[0, 4, 17, 6, 14, 29]",6,3,"[10, 16, 23]",75.32320259,54446,1681,3,0,7,1.8387738585921345
undo,9,26,0,0,1,16,"[0, 4, 17, 6, 14, 29, 16]",7,0,[],51.11576571,56761,2315,1,0,7,2.2232443318112174
undo,9,26,1,0,0,29,"[0, 4, 17, 6, 14, 29]",6,3,"[10, 16, 23]",75.32320259,58385,1624,3,0,7,1.8387738585921345
undo,9,26,1,0,0,14,"[0, 4, 17, 6, 14]",5,4,"[10, 16, 23, 29]",116.5542588,58617,232,5,2,7,1.1383391147196797
undo,9,26,1,0,0,6,"[0, 4, 17, 6]",4,6,"[10, 14, 16, 21, 23, 29]",137.5780549,59001,384,10,11,7,1.011273258075741
undo,9,26,1,0,0,17,"[0, 4, 17]",3,10,"[5, 6, 10, 12, 13, 14, 16, 21, 23, 29]",157.7026667,59217,216,1,35,8,1.0014732588101924
undo,9,26,1,0,0,4,"[0, 4]",2,13,"[5, 6, 10, 12, 13, 14, 16, 17, 19, 21, 23, 26, 29]",178.7976898,59483,266,4,118,8,1.0
undo,9,26,1,0,0,0,[0],1,29,"[1, 2, 3, 4, 5, 6, 7, 8, 9, 10, 11, 12, 13, 14, 15, 16, 17, 18, 19, 20, 21, 22, 23, 24, 25, 26, 27, 28, 29]",300,59783,300,9,226,9,0.0
undo,9,26,0,0,0,21,"[0, 21]",2,25,"[2, 3, 4, 5, 6, 7, 8, 10, 11, 12, 13, 14, 15, 16, 17, 18, 19, 22, 23, 24, 25, 26, 27, 28, 29]",211.1349337,63070,3287,7,90,9,1.0
undo,9,26,0,0,0,13,"[0, 21, 13]",3,21,"[3, 4, 5, 6, 7, 8, 10, 11, 12, 14, 15, 16, 17, 18, 19, 22, 23, 24, 25, 26, 29]",188.9989901,65053,1983,6,45,9,1.0103952279992225
undo,9,26,0,0,0,23,"[0, 21, 13, 23]",4,13,"[3, 4, 5, 6, 10, 11, 14, 16, 17, 18, 22, 26, 29]",150.9858345,66183,1130,3,17,9,1.1069410469330032
undo,9,26,0,0,0,16,"[0, 21, 13, 23, 16]",5,7,"[4, 5, 6, 10, 14, 17, 29]",97.75050789,67869,1686,3,13,9,1.8066634000662438
undo,9,26,0,0,0,29,"[0, 21, 13, 23, 16, 29]",6,5,"[4, 6, 10, 14, 17]",73.54307102,70031,2162,3,9,9,1.853342605492142
undo,9,26,0,0,0,4,"[0, 21, 13, 23, 16, 29, 4]",7,3,"[6, 14, 17]",49.54307102,71682,1651,2,2,9,2.0664369230924997
undo,9,26,0,0,0,17,"[0, 21, 13, 23, 16, 29, 4, 17]",8,2,"[6, 14]",28.44804791,74843,3161,2,0,9,1.911153301956092
undo,9,26,0,0,1,14,"[0, 21, 13, 23, 16, 29, 4, 17, 14]",9,0,[],5.975842855,76149,1306,1,0,9,1.8245133223656398
undo,9,26,0,1,1,14,"[0, 21, 13, 23, 16, 29, 4, 17, 14]",9,0,[],5.975842855,79432,3283,1,0,9,1.8245133223656398
undo,10,25,0,0,0,0,[0],1,28,"[1, 2, 3, 4, 5, 7, 8, 9, 10, 11, 12, 13, 14, 15, 16, 17, 18, 19, 20, 21, 22, 23, 24, 25, 26, 27, 28, 29]",300,195,-1,5,94,10,0.0
undo,10,25,0,0,0,23,"[0, 23]",2,23,"[1, 2, 3, 5, 7, 8, 9, 11, 12, 13, 14, 16, 17, 19, 20, 21, 22, 24, 25, 26, 27, 28, 29]",259.7756293,8062,7867,3,33,10,1.0
undo,10,25,0,0,0,19,"[0, 23, 19]",3,21,"[1, 2, 3, 5, 7, 8, 9, 11, 12, 13, 14, 16, 17, 20, 21, 22, 24, 25, 27, 28, 29]",223.9287326,9858,1796,3,24,10,1.583101227007039
undo,10,25,0,0,0,29,"[0, 23, 19, 29]",4,19,"[1, 2, 3, 5, 7, 8, 9, 11, 12, 13, 14, 16, 17, 20, 21, 22, 24, 25, 28]",207.649912,11130,1272,3,17,10,1.474631541426484
undo,10,25,0,0,0,22,"[0, 23, 19, 29, 22]",5,18,"[1, 2, 3, 5, 7, 8, 9, 11, 12, 13, 14, 16, 17, 20, 21, 24, 25, 28]",191.5253965,12251,1121,3,14,10,1.4020377754906637
undo,10,25,0,0,0,7,"[0, 23, 19, 29, 22, 7]",6,7,"[3, 8, 9, 11, 13, 24, 28]",115.8814939,14761,2510,3,11,10,1.5709678649326715
undo,10,25,0,0,0,24,"[0, 23, 19, 29, 22, 7, 24]",7,5,"[3, 8, 9, 13, 28]",91.12265712,16918,2157,3,7,10,1.486191600033379
undo,10,25,0,0,0,9,"[0, 23, 19, 29, 22, 7, 24, 9]",8,4,"[3, 8, 13, 28]",73.09490075,18068,1150,3,3,10,1.453504870342882
undo,10,25,0,0,0,3,"[0, 23, 19, 29, 22, 7, 24, 9, 3]",9,3,"[8, 13, 28]",42.82940885,20349,2281,3,0,10,1.388955167525479
undo,10,25,0,0,1,8,"[0, 23, 19, 29, 22, 7, 24, 9, 3, 8]",10,0,[],3.624817279,31189,10840,1,0,10,1.4820797135778283
undo,10,25,0,1,1,8,"[0, 23, 19, 29, 22, 7, 24, 9, 3, 8]",10,0,[],3.624817279,33163,1974,1,0,10,1.4820797135778283
undo,11,27,0,0,0,0,[0],1,26,"[1, 3, 5, 6, 7, 8, 9, 10, 11, 12, 13, 14, 15, 16, 17, 18, 19, 21, 22, 23, 24, 25, 26, 27, 28, 29]",300,200,-1,13,578,11,0.0
undo,11,27,0,0,0,15,"[0, 15]",2,24,"[1, 3, 5, 6, 7, 8, 9, 10, 11, 12, 13, 14, 16, 17, 18, 19, 21, 22, 23, 24, 25, 26, 27, 29]",263.7508621,5075,4875,6,219,11,1.0
undo,11,27,0,0,0,24,"[0, 15, 24]",3,20,"[1, 5, 6, 7, 8, 9, 10, 12, 13, 14, 16, 17, 18, 19, 21, 23, 25, 26, 27, 29]",246.5462115,6973,1898,6,130,11,1.130933077698322
undo,11,27,0,0,0,17,"[0, 15, 24, 17]",4,15,"[1, 6, 8, 10, 12, 13, 14, 16, 18, 19, 23, 25, 26, 27, 29]",229.9932662,8006,1033,4,60,11,1.1285538435963374
undo,11,27,0,0,0,12,"[0, 15, 24, 17, 12]",5,14,"[1, 6, 8, 10, 13, 14, 16, 18, 19, 23, 25, 26, 27, 29]",218.8129263,9556,1550,2,32,11,1.2561880288755216
undo,11,27,0,0,0,10,"[0, 15, 24, 17, 12, 10]",6,11,"[1, 8, 13, 14, 18, 19, 23, 25, 26, 27, 29]",207.7675653,11247,1691,2,28,11,1.2228289337766665
undo,11,27,0,0,0,13,"[0, 15, 24, 17, 12, 10, 13]",7,9,"[1, 8, 14, 18, 19, 23, 26, 27, 29]",167.9178476,13837,2590,2,18,11,1.3421291994761178
undo,11,27,0,0,0,19,"[0, 15, 24, 17, 12, 10, 13, 19]",8,5,"[1, 8, 14, 23, 29]",131.6825057,17682,3845,2,6,11,1.294749956153846
undo,11,27,0,0,0,8,"[0, 15, 24, 17, 12, 10, 13, 19, 8]",9,3,"[14, 23, 29]",116.816437,20322,2640,2,1,11,1.3554286578836865
undo,11,27,0,0,0,14,"[0, 15, 24, 17, 12, 10, 13, 19, 8, 14]",10,1,[29],59.25777126,22892,2570,1,0,11,1.312380420632942
undo,11,27,0,0,1,29,"[0, 15, 24, 17, 12, 10, 13, 19, 8, 14, 29]",11,0,[],14.96330208,24995,2103,1,0,11,1.4680136813839417
undo,11,27,0,1,1,29,"[0, 15, 24, 17, 12, 10, 13, 19, 8, 14, 29]",11,0,[],14.96330208,27329,2334,1,0,11,1.4680136813839417
undo,12,44,0,0,0,0,[0],1,29,"[1, 2, 3, 4, 5, 6, 7, 8, 9, 10, 11, 12, 13, 14, 15, 16, 17, 18, 19, 20, 21, 22, 23, 24, 25, 26, 27, 28, 29]",300,193,-1,13,126,7,0.0
undo,12,44,0,0,0,8,"[0, 8]",2,17,"[1, 4, 5, 7, 9, 10, 11, 12, 13, 14, 15, 20, 21, 23, 24, 25, 27]",145.7923478,13653,13460,1,10,7,1.0
undo,12,44,0,0,0,20,"[0, 8, 20]",3,16,"[1, 4, 5, 7, 9, 10, 11, 12, 13, 14, 15, 21, 23, 24, 25, 27]",133.7093018,15053,1400,1,9,7,1.0890794433668698
undo,12,44,0,0,0,9,"[0, 8, 20, 9]",4,7,"[4, 7, 11, 12, 14, 23, 24]",76.43801756,16438,1385,1,6,7,1.40892325509949
undo,12,44,0,0,0,7,"[0, 8, 20, 9, 7]",5,1,[23],26.94054288,19429,2991,1,0,6,1.3215511351645128
undo,12,44,0,0,1,23,"[0, 8, 20, 9, 7, 23]",6,0,[],7.835569706,20799,1370,1,0,6,1.334028528032304
undo,12,44,0,1,1,23,"[0, 8, 20, 9, 7, 23]",6,0,[],7.835569706,22103,1304,1,0,6,1.334028528032304
undo,13,6,0,0,0,0,[0],1,29,"[1, 2, 3, 4, 5, 6, 7, 8, 9, 10, 11, 12, 13, 14, 15, 16, 17, 18, 19, 20, 21, 22, 23, 24, 25, 26, 27, 28, 29]",300,192,-1,180,4304,10,0.0
undo,13,6,0,0,0,3,"[0, 3]",2,28,"[1, 2, 4, 5, 6, 7, 8, 9, 10, 11, 12, 13, 14, 15, 16, 17, 18, 19, 20, 21, 22, 23, 24, 25, 26, 27, 28, 29]",266.4738908,30751,30559,90,1607,10,1.0
undo,13,6,0,0,0,10,"[0, 3, 10]",3,27,"[1, 2, 4, 5, 6, 7, 8, 9, 11, 12, 13, 14, 15, 16, 17, 18, 19, 20, 21, 22, 23, 24, 25, 26, 27, 28, 29]",215.2293789,32917,2166,8,136,10,1.0050517746249001
undo,13,6,0,0,0,24,"[0, 3, 10, 24]",4,23,"[1, 2, 4, 5, 6, 7, 8, 11, 13, 14, 16, 17, 18, 19, 20, 21, 22, 23, 25, 26, 27, 28, 29]",201.812971,34237,1320,8,85,10,1.0091851911500884
undo,13,6,0,0,0,17,"[0, 3, 10, 24, 17]",5,19,"[1, 2, 4, 5, 6, 7, 8, 11, 13, 14, 16, 18, 20, 21, 22, 23, 26, 27, 29]",172.5384087,35609,1372,8,53,10,1.8060138032707682
undo,13,6,0,0,0,18,"[0, 3, 10, 24, 17, 18]",6,15,"[1, 2, 6, 7, 8, 13, 14, 16, 20, 21, 22, 23, 26, 27, 29]",158.6100204,36592,983,7,36,10,2.3216150751946008
undo,13,6,0,0,0,16,"[0, 3, 10, 24, 17, 18, 16]",7,13,"[1, 2, 6, 7, 13, 14, 20, 21, 22, 23, 26, 27, 29]",135.2647853,38395,1803,7,21,10,2.2822729587843544
undo,13,6,0,0,0,29,"[0, 3, 10, 24, 17, 18, 16, 29]",8,7,"[6, 14, 20, 21, 22, 23, 27]",98.57691268,39876,1481,6,4,10,1.8911507070056388
undo,13,6,0,0,0,23,"[0, 3, 10, 24, 17, 18, 16, 29, 23]",9,2,"[6, 22]",51.05849519,42774,2898,2,0,10,1.8549852217940308
undo,13,6,0,0,1,6,"[0, 3, 10, 24, 17, 18, 16, 29, 23, 6]",10,0,[],15.70315613,44605,1831,1,0,10,1.7651720921259988
undo,13,6,0,1,1,6,"[0, 3, 10, 24, 17, 18, 16, 29, 23, 6]",10,0,[],15.70315613,48811,4206,1,0,10,1.7651720921259988
undo,14,0,0,0,0,0,[0],1,27,"[2, 3, 4, 5, 6, 7, 8, 9, 10, 11, 12, 13, 14, 15, 16, 17, 19, 20, 21, 22, 23, 24, 25, 26, 27, 28, 29]",300,196,-1,104,1136,9,0.0
undo,14,0,0,0,0,20,"[0, 20]",2,25,"[2, 3, 4, 5, 6, 7, 8, 9, 11, 12, 13, 14, 15, 16, 17, 19, 21, 22, 23, 24, 25, 26, 27, 28, 29]",215.4955622,7187,6991,36,372,9,1.0
undo,14,0,0,0,0,28,"[0, 20, 28]",3,19,"[3, 4, 5, 7, 8, 9, 11, 12, 13, 14, 15, 16, 17, 19, 21, 23, 24, 26, 29]",156.2925218,10527,3340,3,83,9,1.3675886789005969
undo,14,0,0,0,0,5,"[0, 20, 28, 5]",4,12,"[3, 4, 7, 8, 9, 11, 12, 15, 17, 21, 24, 26]",112.6347619,12328,1801,2,50,9,1.3829293532227536
undo,14,0,0,0,0,4,"[0, 20, 28, 5, 4]",5,10,"[3, 7, 8, 9, 11, 12, 15, 17, 24, 26]",87.55488947,15475,3147,2,26,9,1.3571235497342058
undo,14,0,0,0,0,24,"[0, 20, 28, 5, 4, 24]",6,9,"[3, 7, 8, 9, 11, 12, 15, 17, 26]",76.15313522,18035,2560,1,12,9,1.3417481532053999
undo,14,0,0,0,0,26,"[0, 20, 28, 5, 4, 24, 26]",7,5,"[3, 7, 12, 15, 17]",59.03589245,21352,3317,5,0,8,1.4915303813342915
undo,14,0,0,0,1,12,"[0, 20, 28, 5, 4, 24, 26, 12]",8,0,[],23.80806254,25380,4028,1,0,8,1.7702792888246708
undo,14,0,1,0,0,26,"[0, 20, 28, 5, 4, 24, 26]",7,5,"[3, 7, 12, 15, 17]",59.03589245,27853,2473,5,0,8,1.4915303813342915
undo,14,0,1,0,0,24,"[0, 20, 28, 5, 4, 24]",6,9,"[3, 7, 8, 9, 11, 12, 15, 17, 26]",76.15313522,28087,234,1,12,9,1.3417481532053999
undo,14,0,1,0,0,4,"[0, 20, 28, 5, 4]",5,10,"[3, 7, 8, 9, 11, 12, 15, 17, 24, 26]",87.55488947,28472,385,2,26,9,1.3571235497342058
undo,14,0,1,0,0,5,"[0, 20, 28, 5]",4,12,"[3, 4, 7, 8, 9, 11, 12, 15, 17, 21, 24, 26]",112.6347619,28767,295,2,50,9,1.3829293532227536
undo,14,0,1,0,0,28,"[0, 20, 28]",3,19,"[3, 4, 5, 7, 8, 9, 11, 12, 13, 14, 15, 16, 17, 19, 21, 23, 24, 26, 29]",156.2925218,29100,333,3,83,9,1.3675886789005969
undo,14,0,1,0,0,20,"[0, 20]",2,25,"[2, 3, 4, 5, 6, 7, 8, 9, 11, 12, 13, 14, 15, 16, 17, 19, 21, 22, 23, 24, 25, 26, 27, 28, 29]",215.4955622,29486,386,36,372,9,1.0
undo,14,0,0,0,0,5,"[0, 20, 5]",3,22,"[2, 3, 4, 7, 8, 9, 11, 12, 13, 14, 15, 16, 17, 19, 21, 22, 23, 24, 25, 26, 28, 29]",153.2942761,32690,3204,33,251,9,1.0828244018179105
undo,14,0,0,0,0,4,"[0, 20, 5, 4]",4,19,"[2, 3, 7, 8, 9, 11, 12, 13, 14, 15, 17, 19, 21, 22, 23, 24, 25, 26, 28]",128.2144037,35092,2402,21,127,9,1.0973859443611045
undo,14,0,0,0,0,24,"[0, 20, 5, 4, 24]",5,13,"[2, 3, 7, 8, 9, 11, 12, 15, 17, 19, 23, 26, 28]",116.8126494,36568,1476,12,49,9,1.098033200508336
undo,14,0,0,0,0,15,"[0, 20, 5, 4, 24, 15]",6,10,"[3, 7, 8, 9, 11, 12, 17, 19, 26, 28]",93.46741437,38165,1597,6,13,9,1.092596788004046
undo,14,0,0,0,0,7,"[0, 20, 5, 4, 24, 15, 7]",7,5,"[3, 8, 17, 19, 26]",62.40296523,40119,1954,5,3,9,1.1589547715278956
undo,14,0,0,0,0,8,"[0, 20, 5, 4, 24, 15, 7, 8]",8,2,"[3, 19]",43.29799206,43593,3474,2,0,9,1.1539062850589215
undo,14,0,0,0,1,3,"[0, 20, 5, 4, 24, 15, 7, 8, 3]",9,0,[],12.88417941,46285,2692,1,0,9,1.3245779097480967
undo,14,0,0,1,1,3,"[0, 20, 5, 4, 24, 15, 7, 8, 3]",9,0,[],12.88417941,48615,2330,1,0,9,1.3245779097480967
undo,15,24,0,0,0,0,[0],1,29,"[1, 2, 3, 4, 5, 6, 7, 8, 9, 10, 11, 12, 13, 14, 15, 16, 17, 18, 19, 20, 21, 22, 23, 24, 25, 26, 27, 28, 29]",300,216,-1,4,76,10,0.0
undo,15,24,0,0,0,14,"[0, 14]",2,27,"[1, 2, 3, 4, 5, 6, 8, 9, 10, 11, 12, 13, 15, 16, 17, 18, 19, 20, 21, 22, 23, 24, 25, 26, 27, 28, 29]",278.0455016,6906,6690,4,54,10,1.0
undo,15,24,0,0,0,16,"[0, 14, 16]",3,25,"[2, 3, 4, 5, 6, 8, 9, 10, 11, 12, 13, 15, 17, 18, 19, 20, 21, 22, 23, 24, 25, 26, 27, 28, 29]",188.9949542,12727,5821,4,31,10,1.238291113657358
undo,15,24,0,0,0,22,"[0, 14, 16, 22]",4,20,"[2, 3, 4, 6, 8, 9, 10, 11, 13, 15, 17, 20, 21, 23, 24, 25, 26, 27, 28, 29]",170.9671978,13885,1158,2,14,10,1.2244494133788653
undo,15,24,0,0,0,8,"[0, 14, 16, 22, 8]",5,15,"[2, 3, 4, 6, 9, 10, 11, 13, 15, 23, 24, 26, 27, 28, 29]",157.5507899,15375,1490,2,10,10,1.2936570860700658
undo,15,24,1,0,0,22,"[0, 14, 16, 22]",4,20,"[2, 3, 4, 6, 8, 9, 10, 11, 13, 15, 17, 20, 21, 23, 24, 25, 26, 27, 28, 29]",170.9671978,17222,1847,2,14,10,1.2244494133788653
undo,15,24,0,0,0,15,"[0, 14, 16, 22, 15]",5,17,"[3, 4, 6, 8, 9, 10, 11, 13, 17, 21, 23, 24, 25, 26, 27, 28, 29]",149.7539943,19332,2110,4,24,9,1.2560250275605345
undo,15,24,0,0,0,28,"[0, 14, 16, 22, 15, 28]",6,9,"[3, 4, 8, 9, 11, 13, 23, 26, 27]",104.4770687,21911,2579,3,6,9,1.1876953099279792
undo,15,24,0,0,0,23,"[0, 14, 16, 22, 15, 28, 23]",7,4,"[8, 9, 11, 27]",85.45077106,23478,1567,3,2,9,1.2177527140541342
undo,15,24,0,0,0,11,"[0, 14, 16, 22, 15, 28, 23, 11]",8,2,"[9, 27]",58.52494703,25025,1547,2,0,9,1.202187001529758
undo,15,24,0,0,1,27,"[0, 14, 16, 22, 15, 28, 23, 11, 27]",9,0,[],30.72206948,26806,1781,1,0,9,1.1789928059667312
undo,15,24,1,0,0,11,"[0, 14, 16, 22, 15, 28, 23, 11]",8,2,"[9, 27]",58.52494703,34539,7733,2,0,9,1.202187001529758
undo,15,24,1,0,0,23,"[0, 14, 16, 22, 15, 28, 23]",7,4,"[8, 9, 11, 27]",85.45077106,34724,185,3,2,9,1.2177527140541342
undo,15,24,1,0,0,28,"[0, 14, 16, 22, 15, 28]",6,9,"[3, 4, 8, 9, 11, 13, 23, 26, 27]",104.4770687,34906,182,3,6,9,1.1876953099279792
undo,15,24,1,0,0,15,"[0, 14, 16, 22, 15]",5,17,"[3, 4, 6, 8, 9, 10, 11, 13, 17, 21, 23, 24, 25, 26, 27, 28, 29]",149.7539943,35090,184,4,24,9,1.2560250275605345
undo,15,24,1,0,0,22,"[0, 14, 16, 22]",4,20,"[2, 3, 4, 6, 8, 9, 10, 11, 13, 15, 17, 20, 21, 23, 24, 25, 26, 27, 28, 29]",170.9671978,35272,182,2,14,10,1.2244494133788653
undo,15,24,1,0,0,16,"[0, 14, 16]",3,25,"[2, 3, 4, 5, 6, 8, 9, 10, 11, 12, 13, 15, 17, 18, 19, 20, 21, 22, 23, 24, 25, 26, 27, 28, 29]",188.9949542,35523,251,4,31,10,1.238291113657358
undo,15,24,1,0,0,14,"[0, 14]",2,27,"[1, 2, 3, 4, 5, 6, 8, 9, 10, 11, 12, 13, 15, 16, 17, 18, 19, 20, 21, 22, 23, 24, 25, 26, 27, 28, 29]",278.0455016,35771,248,4,54,10,1.0
undo,15,24,1,0,0,0,[0],1,29,"[1, 2, 3, 4, 5, 6, 7, 8, 9, 10, 11, 12, 13, 14, 15, 16, 17, 18, 19, 20, 21, 22, 23, 24, 25, 26, 27, 28, 29]",300,36237,466,4,76,10,0.0
undo,15,24,0,0,0,16,"[0, 16]",2,28,"[1, 2, 3, 4, 5, 6, 7, 8, 9, 10, 11, 12, 13, 14, 15, 17, 18, 19, 20, 21, 22, 23, 24, 25, 26, 27, 28, 29]",210.3562607,42055,5818,13,110,9,1.0
undo,15,24,0,0,0,22,"[0, 16, 22]",3,27,"[1, 2, 3, 4, 5, 6, 7, 8, 9, 10, 11, 12, 13, 14, 15, 17, 18, 19, 20, 21, 23, 24, 25, 26, 27, 28, 29]",192.3285043,43955,1900,7,54,9,1.0217425143037777
undo,15,24,0,0,0,15,"[0, 16, 22, 15]",4,24,"[2, 3, 4, 5, 6, 7, 8, 9, 10, 11, 12, 13, 14, 17, 18, 19, 21, 23, 24, 25, 26, 27, 28, 29]",171.1153009,46794,2839,3,24,9,1.077448994301009
undo,15,24,0,0,0,28,"[0, 16, 22, 15, 28]",5,12,"[3, 4, 6, 8, 9, 11, 13, 21, 23, 25, 26, 27]",125.8383752,48416,1622,2,10,9,1.0579370080485104
undo,15,24,0,0,0,23,"[0, 16, 22, 15, 28, 23]",6,7,"[3, 4, 8, 9, 11, 13, 27]",106.8120776,49783,1367,2,4,9,1.0965087965469686
undo,15,24,0,0,0,11,"[0, 16, 22, 15, 28, 23, 11]",7,2,"[9, 27]",79.88625355,51158,1375,2,0,9,1.0958394317987046
undo,15,24,0,0,0,27,"[0, 16, 22, 15, 28, 23, 11, 27]",8,1,[9],52.083376,52879,1721,1,0,9,1.085465547106356
undo,15,24,0,0,1,9,"[0, 16, 22, 15, 28, 23, 11, 27, 9]",9,0,[],12.52329511,55494,2615,1,0,9,1.3543056893413161
undo,15,24,0,1,1,9,"[0, 16, 22, 15, 28, 23, 11, 27, 9]",9,0,[],12.52329511,58731,3237,1,0,9,1.3543056893413161
undo,16,29,0,0,0,0,[0],1,29,"[1, 2, 3, 4, 5, 6, 7, 8, 9, 10, 11, 12, 13, 14, 15, 16, 17, 18, 19, 20, 21, 22, 23, 24, 25, 26, 27, 28, 29]",300,225,-1,1,78,9,0.0
undo,16,29,0,0,0,6,"[0, 6]",2,28,"[1, 2, 3, 4, 5, 7, 8, 9, 10, 11, 12, 13, 14, 15, 16, 17, 18, 19, 20, 21, 22, 23, 24, 25, 26, 27, 28, 29]",228.4108947,4566,4341,1,25,9,1.0
undo,16,29,0,0,0,28,"[0, 6, 28]",3,24,"[1, 3, 4, 5, 7, 9, 10, 11, 12, 13, 14, 15, 16, 17, 18, 20, 21, 22, 23, 24, 25, 26, 27, 29]",187.1798384,6462,1896,1,22,9,1.162106788166845
undo,16,29,0,0,0,27,"[0, 6, 28, 27]",4,19,"[1, 3, 4, 5, 7, 9, 10, 11, 12, 13, 14, 15, 16, 21, 22, 23, 25, 26, 29]",166.6615539,7493,1031,1,21,9,1.2307173895439045
undo,16,29,0,0,0,22,"[0, 6, 28, 27, 22]",5,13,"[1, 3, 4, 5, 7, 9, 12, 13, 14, 15, 21, 26, 29]",133.4200136,11436,3943,1,19,9,1.4241767805149903
undo,16,29,0,0,0,12,"[0, 6, 28, 27, 22, 12]",6,8,"[4, 5, 7, 9, 13, 14, 21, 26]",95.4726817,13035,1599,1,6,9,1.3248355326460857
undo,16,29,0,0,0,7,"[0, 6, 28, 27, 22, 12, 7]",7,4,"[4, 5, 9, 21]",81.87121119,15327,2292,1,3,9,1.3264091962339806
undo,16,29,0,0,0,9,"[0, 6, 28, 27, 22, 12, 7, 9]",8,1,[4],52.80232748,17569,2242,1,0,9,1.309391257644539
undo,16,29,0,0,1,4,"[0, 6, 28, 27, 22, 12, 7, 9, 4]",9,0,[],11.76575843,19445,1876,1,0,9,1.6396807789841599
undo,16,29,0,1,1,4,"[0, 6, 28, 27, 22, 12, 7, 9, 4]",9,0,[],11.76575843,21119,1674,1,0,9,1.6396807789841599
undo,17,1,0,0,0,0,[0],1,26,"[1, 2, 4, 5, 7, 8, 9, 10, 11, 12, 13, 14, 15, 16, 17, 18, 19, 20, 21, 22, 23, 24, 25, 26, 28, 29]",300,177,-1,6,74,7,0.0
undo,17,1,0,0,0,14,"[0, 14]",2,19,"[1, 4, 5, 8, 9, 13, 15, 17, 18, 19, 20, 21, 22, 23, 24, 25, 26, 28, 29]",200.1901808,13127,12950,5,42,7,1.0
undo,17,1,0,0,0,17,"[0, 14, 17]",3,15,"[1, 4, 5, 8, 9, 13, 15, 18, 19, 20, 22, 23, 25, 28, 29]",147.8356204,15454,2327,5,27,7,1.0028844724416826
undo,17,1,0,0,0,1,"[0, 14, 17, 1]",4,12,"[4, 5, 8, 9, 15, 18, 20, 22, 23, 25, 28, 29]",123.4840291,17103,1649,5,15,7,1.0264985578353567
undo,17,1,0,0,0,28,"[0, 14, 17, 1, 28]",5,5,"[9, 15, 22, 23, 29]",88.59850198,18268,1165,5,3,7,1.0339861575999345
undo,17,1,0,0,0,23,"[0, 14, 17, 1, 28, 23]",6,2,"[15, 22]",51.70676849,19689,1421,2,0,7,1.0327458250705703
undo,17,1,0,0,1,15,"[0, 14, 17, 1, 28, 23, 15]",7,0,[],20.81987807,21187,1498,1,0,7,1.1948681641401226
undo,17,1,1,0,0,23,"[0, 14, 17, 1, 28, 23]",6,2,"[15, 22]",51.70676849,23271,2084,2,0,7,1.0327458250705703
undo,17,1,1,0,0,28,"[0, 14, 17, 1, 28]",5,5,"[9, 15, 22, 23, 29]",88.59850198,23521,250,5,3,7,1.0339861575999345
undo,17,1,1,0,0,1,"[0, 14, 17, 1]",4,12,"[4, 5, 8, 9, 15, 18, 20, 22, 23, 25, 28, 29]",123.4840291,23804,283,5,15,7,1.0264985578353567
undo,17,1,1,0,0,17,"[0, 14, 17]",3,15,"[1, 4, 5, 8, 9, 13, 15, 18, 19, 20, 22, 23, 25, 28, 29]",147.8356204,24037,233,5,27,7,1.0028844724416826
undo,17,1,1,0,0,14,"[0, 14]",2,19,"[1, 4, 5, 8, 9, 13, 15, 17, 18, 19, 20, 21, 22, 23, 24, 25, 26, 28, 29]",200.1901808,24305,268,5,42,7,1.0
undo,17,1,0,0,0,8,"[0, 14, 8]",3,8,"[1, 5, 17, 18, 19, 20, 24, 26]",136.2996495,27599,3294,3,7,6,1.6704117397959184
undo,17,1,0,0,0,17,"[0, 14, 8, 17]",4,1,[1],46.16086758,29889,2290,1,0,5,1.67300208545053
undo,17,1,0,0,1,1,"[0, 14, 8, 17, 1]",5,0,[],21.80927625,31437,1548,1,0,5,1.6177707619121118
undo,17,1,1,0,0,17,"[0, 14, 8, 17]",4,1,[1],46.16086758,32279,842,1,0,5,1.67300208545053
undo,17,1,1,0,0,8,"[0, 14, 8]",3,8,"[1, 5, 17, 18, 19, 20, 24, 26]",136.2996495,32530,251,3,7,6,1.6704117397959184
undo,17,1,1,0,0,14,"[0, 14]",2,19,"[1, 4, 5, 8, 9, 13, 15, 17, 18, 19, 20, 21, 22, 23, 24, 25, 26, 28, 29]",200.1901808,32829,299,5,42,7,1.0
undo,17,1,0,0,0,17,"[0, 14, 17]",3,15,"[1, 4, 5, 8, 9, 13, 15, 18, 19, 20, 22, 23, 25, 28, 29]",147.8356204,34935,2106,5,27,7,1.0028844724416826
undo,17,1,0,0,0,20,"[0, 14, 17, 20]",4,5,"[4, 5, 8, 18, 29]",79.42509489,39970,5035,3,3,6,1.2972077151057804
undo,17,1,0,0,0,5,"[0, 14, 17, 20, 5]",5,1,[18],57.95418433,41079,1109,1,0,6,1.2923132195161702
undo,17,1,0,0,1,18,"[0, 14, 17, 20, 5, 18]",6,0,[],35.12875991,43895,2816,1,0,6,1.3149712096478787
undo,17,1,1,0,0,5,"[0, 14, 17, 20, 5]",5,1,[18],57.95418433,46134,2239,1,0,6,1.2923132195161702
undo,17,1,1,0,0,20,"[0, 14, 17, 20]",4,5,"[4, 5, 8, 18, 29]",79.42509489,46932,798,3,3,6,1.2972077151057804
undo,17,1,1,0,0,17,"[0, 14, 17]",3,15,"[1, 4, 5, 8, 9, 13, 15, 18, 19, 20, 22, 23, 25, 28, 29]",147.8356204,47416,484,5,27,7,1.0028844724416826
undo,17,1,0,0,0,1,"[0, 14, 17, 1]",4,12,"[4, 5, 8, 9, 15, 18, 20, 22, 23, 25, 28, 29]",123.4840291,50485,3069,5,15,7,1.0264985578353567
undo,17,1,0,0,0,28,"[0, 14, 17, 1, 28]",5,5,"[9, 15, 22, 23, 29]",88.59850198,52200,1715,5,3,7,1.0339861575999345
undo,17,1,0,0,0,23,"[0, 14, 17, 1, 28, 23]",6,2,"[15, 22]",51.70676849,54266,2066,2,0,7,1.0327458250705703
undo,17,1,0,0,1,15,"[0, 14, 17, 1, 28, 23, 15]",7,0,[],20.81987807,59661,5395,1,0,7,1.1948681641401226
undo,17,1,0,1,1,15,"[0, 14, 17, 1, 28, 23, 15]",7,0,[],20.81987807,62332,2671,1,0,7,1.1948681641401226
undo,18,43,0,0,0,0,[0],1,23,"[1, 2, 3, 4, 5, 6, 7, 9, 10, 11, 12, 14, 15, 16, 17, 19, 20, 21, 22, 23, 25, 27, 29]",300,189,-1,16,556,12,0.0
undo,18,43,0,0,0,29,"[0, 29]",2,22,"[1, 2, 3, 4, 5, 6, 7, 9, 10, 11, 12, 14, 15, 16, 17, 19, 20, 21, 22, 23, 25, 27]",277.909278,2503,2314,16,520,12,1.0
undo,18,43,0,0,0,20,"[0, 29, 20]",3,20,"[1, 2, 3, 4, 6, 7, 9, 10, 11, 12, 14, 15, 16, 17, 19, 21, 22, 23, 25, 27]",254.4785289,3960,1457,15,422,12,1.082311746871282
undo,18,43,0,0,0,16,"[0, 29, 20, 16]",4,19,"[1, 2, 3, 4, 6, 7, 9, 10, 11, 12, 14, 15, 17, 19, 21, 22, 23, 25, 27]",231.8511119,5424,1464,15,389,12,1.215201926898219
undo,18,43,0,0,0,15,"[0, 29, 20, 16, 15]",5,14,"[1, 2, 3, 4, 6, 7, 9, 11, 12, 14, 19, 22, 23, 25]",188.5267539,8006,2582,3,109,12,1.3482474915350444
undo,18,43,0,0,0,25,"[0, 29, 20, 16, 15, 25]",6,12,"[1, 3, 4, 6, 7, 9, 11, 12, 14, 19, 22, 23]",165.8551858,9775,1769,2,43,12,1.691408721191545
undo,18,43,0,0,0,12,"[0, 29, 20, 16, 15, 25, 12]",7,11,"[1, 3, 4, 6, 7, 9, 11, 14, 19, 22, 23]",141.6684126,11813,2038,2,32,12,1.6015983641428178
undo,18,43,0,0,0,3,"[0, 29, 20, 16, 15, 25, 12, 3]",8,10,"[1, 4, 6, 7, 9, 11, 14, 19, 22, 23]",128.6684126,13800,1987,2,24,12,1.5379830456120627
undo,18,43,0,0,0,22,"[0, 29, 20, 16, 15, 25, 12, 3, 22]",9,6,"[1, 6, 7, 11, 14, 19]",93.95530264,16880,3080,1,11,12,1.7275686117408873
undo,18,43,0,0,0,19,"[0, 29, 20, 16, 15, 25, 12, 3, 22, 19]",10,4,"[1, 6, 7, 11]",73.33977451,19079,2199,1,3,12,1.6315360037595275
undo,18,43,0,0,0,1,"[0, 29, 20, 16, 15, 25, 12, 3, 22, 19, 1]",11,1,[7],45.1617689,21266,2187,1,0,12,1.7703076545303877
undo,18,43,0,0,1,7,"[0, 29, 20, 16, 15, 25, 12, 3, 22, 19, 1, 7]",12,0,[],6.951822553,23223,1957,1,0,12,1.6607094905815594
undo,18,43,0,1,1,7,"[0, 29, 20, 16, 15, 25, 12, 3, 22, 19, 1, 7]",12,0,[],6.951822553,24269,1046,1,0,12,1.6607094905815594
undo,19,13,0,0,0,0,[0],1,29,"[1, 2, 3, 4, 5, 6, 7, 8, 9, 10, 11, 12, 13, 14, 15, 16, 17, 18, 19, 20, 21, 22, 23, 24, 25, 26, 27, 28, 29]",300,194,-1,60,2676,11,0.0
undo,19,13,0,0,0,24,"[0, 24]",2,28,"[1, 2, 3, 4, 5, 6, 7, 8, 9, 10, 11, 12, 13, 14, 15, 16, 17, 18, 19, 20, 21, 22, 23, 25, 26, 27, 28, 29]",288.8196601,30089,29895,16,1444,11,1.0
undo,19,13,0,0,0,28,"[0, 24, 28]",3,23,"[1, 2, 3, 4, 6, 7, 8, 9, 10, 11, 12, 13, 15, 16, 17, 19, 20, 21, 22, 23, 26, 27, 29]",222.5324064,32219,2130,8,243,11,1.0513810491680837
undo,19,13,0,0,0,2,"[0, 24, 28, 2]",4,19,"[1, 3, 4, 6, 7, 9, 11, 12, 13, 15, 16, 17, 19, 20, 21, 23, 26, 27, 29]",184.889346,34250,2031,7,110,11,1.050374132001543
undo,19,13,0,0,0,29,"[0, 24, 28, 2, 29]",5,18,"[1, 3, 4, 6, 7, 9, 11, 12, 13, 15, 16, 17, 19, 20, 21, 23, 26, 27]",173.1846461,36846,2596,7,85,11,1.1393409619120594
undo,19,13,0,0,0,7,"[0, 24, 28, 2, 29, 7]",6,17,"[1, 3, 4, 6, 9, 11, 12, 13, 15, 16, 17, 19, 20, 21, 23, 26, 27]",157.9203086,38624,1778,5,45,11,1.349777315111579
undo,19,13,0,0,0,26,"[0, 24, 28, 2, 29, 7, 26]",7,16,"[1, 3, 4, 6, 9, 11, 12, 13, 15, 16, 17, 19, 20, 21, 23, 27]",147.480002,39704,1080,5,25,11,1.5942082773824946
undo,19,13,0,0,0,6,"[0, 24, 28, 2, 29, 7, 26, 6]",8,12,"[1, 3, 4, 11, 13, 15, 16, 17, 19, 20, 23, 27]",127.3802508,42117,2413,4,12,11,1.5898347940840756
undo,19,13,0,0,0,11,"[0, 24, 28, 2, 29, 7, 26, 6, 11]",9,6,"[1, 13, 15, 16, 17, 23]",108.2752776,43878,1761,3,4,11,1.5029953945561012
undo,19,13,0,0,0,17,"[0, 24, 28, 2, 29, 7, 26, 6, 11, 17]",10,1,[13],36.68617231,45743,1865,1,0,11,1.324993060397683
undo,19,13,0,0,1,13,"[0, 24, 28, 2, 29, 7, 26, 6, 11, 17, 13]",11,0,[],3.309533775,47970,2227,1,0,11,1.6349870606446535
undo,19,13,0,1,1,13,"[0, 24, 28, 2, 29, 7, 26, 6, 11, 17, 13]",11,0,[],3.309533775,49600,1630,1,0,11,1.6349870606446535
undo,20,31,0,0,0,0,[0],1,27,"[1, 3, 4, 5, 6, 7, 8, 10, 11, 12, 13, 14, 15, 16, 17, 18, 19, 20, 21, 22, 23, 24, 25, 26, 27, 28, 29]",300,226,-1,2,87,10,0.0
undo,20,31,0,0,0,14,"[0, 14]",2,25,"[1, 3, 5, 6, 7, 8, 10, 11, 12, 13, 15, 16, 17, 18, 19, 20, 21, 22, 23, 24, 25, 26, 27, 28, 29]",263.861378,4411,4185,2,59,10,1.0
undo,20,31,0,0,0,27,"[0, 14, 27]",3,22,"[1, 3, 5, 6, 7, 8, 10, 11, 12, 13, 15, 16, 17, 18, 19, 20, 21, 22, 24, 25, 28, 29]",235.6833724,5442,1031,1,39,10,1.5881859159302467
undo,20,31,0,0,0,8,"[0, 14, 27, 8]",4,20,"[1, 3, 5, 6, 7, 10, 11, 12, 13, 16, 17, 18, 19, 20, 21, 22, 24, 25, 28, 29]",224.6380114,6594,1152,1,36,10,2.1665048452331277
undo,20,31,0,0,0,18,"[0, 14, 27, 8, 18]",5,15,"[1, 5, 6, 7, 11, 12, 13, 16, 17, 19, 20, 22, 25, 28, 29]",188.7911147,7997,1403,1,26,10,1.7273375741920205
undo,20,31,0,0,0,17,"[0, 14, 27, 8, 18, 17]",6,13,"[1, 5, 6, 7, 11, 12, 13, 16, 19, 20, 22, 25, 28]",159.584951,15815,7818,1,13,10,1.551192427769927
undo,20,31,0,0,0,11,"[0, 14, 27, 8, 18, 17, 11]",7,7,"[5, 12, 16, 19, 22, 25, 28]",118.4753414,17352,1537,1,4,10,2.9650760544203494
undo,20,31,0,0,0,5,"[0, 14, 27, 8, 18, 17, 11, 5]",8,2,"[16, 28]",74.79468207,19198,1846,1,1,10,2.56711965625205
undo,20,31,0,0,0,28,"[0, 14, 27, 8, 18, 17, 11, 5, 28]",9,1,[16],54.57093365,20758,1560,1,0,10,2.2865510762058148
undo,20,31,0,0,1,16,"[0, 14, 27, 8, 18, 17, 11, 5, 28, 16]",10,0,[],20.95546102,23191,2433,1,0,10,2.089356850786318
undo,20,31,0,1,1,16,"[0, 14, 27, 8, 18, 17, 11, 5, 28, 16]",10,0,[],20.95546102,25964,2773,1,0,10,2.089356850786318
undo,21,34,0,0,0,0,[0],1,25,"[1, 3, 4, 5, 6, 7, 8, 9, 10, 11, 12, 13, 15, 18, 19, 20, 21, 22, 23, 24, 25, 26, 27, 28, 29]",300,255,-1,12,367,10,0.0
undo,21,34,0,0,0,13,"[0, 13]",2,24,"[1, 3, 4, 5, 6, 7, 8, 9, 10, 11, 12, 15, 18, 19, 20, 21, 22, 23, 24, 25, 26, 27, 28, 29]",279.9750156,7700,7445,12,331,10,1.0
undo,21,34,0,0,0,1,"[0, 13, 1]",3,16,"[3, 5, 7, 8, 9, 10, 11, 12, 19, 21, 22, 23, 24, 25, 27, 29]",211.8574701,9688,1988,3,92,10,1.0010381285747127
undo,21,34,0,0,0,8,"[0, 13, 1, 8]",4,14,"[3, 5, 7, 9, 10, 11, 12, 19, 22, 23, 24, 25, 27, 29]",201.0871405,10743,1055,2,54,10,1.1636807
undo,21,34,0,0,0,25,"[0, 13, 1, 8, 25]",5,12,"[3, 5, 7, 9, 10, 11, 12, 22, 23, 24, 27, 29]",183.999133,14034,3291,2,28,10,1.1396208815936457
undo,21,34,0,0,0,24,"[0, 13, 1, 8, 25, 24]",6,11,"[3, 5, 7, 9, 10, 11, 12, 22, 23, 27, 29]",166.5062774,15219,1185,2,23,10,1.374180768736554
undo,21,34,0,0,0,12,"[0, 13, 1, 8, 25, 24, 12]",7,7,"[7, 9, 10, 11, 22, 23, 27]",115.4670767,17996,2777,1,8,10,1.4994254760835948
undo,21,34,0,0,0,7,"[0, 13, 1, 8, 25, 24, 12, 7]",8,5,"[9, 11, 22, 23, 27]",100.4337804,19445,1449,1,4,10,1.758992610425009
undo,21,34,0,0,0,23,"[0, 13, 1, 8, 25, 24, 12, 7, 23]",9,1,[27],72.27352467,20926,1481,1,0,10,2.399781305190153
undo,21,34,0,0,1,27,"[0, 13, 1, 8, 25, 24, 12, 7, 23, 27]",10,0,[],18.60789321,22597,1671,1,0,10,4.766619878750327
undo,21,34,0,1,1,27,"[0, 13, 1, 8, 25, 24, 12, 7, 23, 27]",10,0,[],18.60789321,26221,3624,1,0,10,4.766619878750327
undo,22,17,0,0,0,0,[0],1,28,"[1, 2, 3, 4, 5, 6, 7, 8, 9, 10, 11, 12, 13, 14, 15, 16, 17, 18, 19, 20, 22, 23, 24, 25, 26, 27, 28, 29]",300,217,-1,2,73,8,0.0
undo,22,17,0,0,0,9,"[0, 9]",2,25,"[1, 2, 3, 5, 6, 7, 8, 10, 11, 12, 14, 15, 16, 17, 18, 19, 20, 22, 23, 24, 25, 26, 27, 28, 29]",210.5293344,6422,6205,1,34,8,1.0
undo,22,17,0,0,0,16,"[0, 9, 16]",3,21,"[1, 2, 3, 5, 7, 8, 10, 11, 12, 14, 17, 18, 19, 20, 22, 23, 25, 26, 27, 28, 29]",197.1876704,7660,1238,1,26,8,1.173103464220352
undo,22,17,0,0,0,2,"[0, 9, 16, 2]",4,18,"[1, 3, 5, 7, 8, 10, 11, 12, 14, 17, 18, 19, 23, 25, 26, 27, 28, 29]",181.0631549,9049,1389,1,23,8,1.14825089247282
undo,22,17,0,0,0,17,"[0, 9, 16, 2, 17]",5,7,"[7, 8, 12, 14, 26, 27, 29]",142.7356191,10753,1704,4,5,7,1.4896040699768547
undo,22,17,0,0,0,8,"[0, 9, 16, 2, 17, 8]",6,3,"[7, 12, 27]",104.5256727,12470,1717,3,0,7,1.4604726966175894
undo,22,17,0,0,1,7,"[0, 9, 16, 2, 17, 8, 7]",7,0,[],33.81499459,15012,2542,1,0,7,1.4474701869793896
undo,22,17,1,0,0,8,"[0, 9, 16, 2, 17, 8]",6,3,"[7, 12, 27]",104.5256727,22023,7011,3,0,7,1.4604726966175894
undo,22,17,1,0,0,17,"[0, 9, 16, 2, 17]",5,7,"[7, 8, 12, 14, 26, 27, 29]",142.7356191,22268,245,4,5,7,1.4896040699768547
undo,22,17,1,0,0,2,"[0, 9, 16, 2]",4,18,"[1, 3, 5, 7, 8, 10, 11, 12, 14, 17, 18, 19, 23, 25, 26, 27, 28, 29]",181.0631549,22485,217,1,23,8,1.14825089247282
undo,22,17,1,0,0,16,"[0, 9, 16]",3,21,"[1, 2, 3, 5, 7, 8, 10, 11, 12, 14, 17, 18, 19, 20, 22, 23, 25, 26, 27, 28, 29]",197.1876704,22734,249,1,26,8,1.173103464220352
undo,22,17,1,0,0,9,"[0, 9]",2,25,"[1, 2, 3, 5, 6, 7, 8, 10, 11, 12, 14, 15, 16, 17, 18, 19, 20, 22, 23, 24, 25, 26, 27, 28, 29]",210.5293344,23018,284,1,34,8,1.0
undo,22,17,1,0,0,0,[0],1,28,"[1, 2, 3, 4, 5, 6, 7, 8, 9, 10, 11, 12, 13, 14, 15, 16, 17, 18, 19, 20, 22, 23, 24, 25, 26, 27, 28, 29]",300,23651,633,2,73,8,0.0
undo,22,17,0,0,0,1,"[0, 1]",2,9,"[2, 8, 9, 16, 17, 18, 19, 20, 29]",232.7913696,29564,5913,6,23,6,1.0
undo,22,17,0,0,0,29,"[0, 1, 29]",3,4,"[2, 9, 16, 17]",144.973376,31185,1621,2,3,5,1.6498730597366242
undo,22,17,0,0,1,17,"[0, 1, 29, 17]",4,0,[],33.95535945,33773,2588,1,0,4,2.51996782164428
undo,22,17,1,0,0,29,"[0, 1, 29]",3,4,"[2, 9, 16, 17]",144.973376,35427,1654,2,3,5,1.6498730597366242
undo,22,17,1,0,0,1,"[0, 1]",2,9,"[2, 8, 9, 16, 17, 18, 19, 20, 29]",232.7913696,35655,228,6,23,6,1.0
undo,22,17,1,0,0,0,[0],1,28,"[1, 2, 3, 4, 5, 6, 7, 8, 9, 10, 11, 12, 13, 14, 15, 16, 17, 18, 19, 20, 22, 23, 24, 25, 26, 27, 28, 29]",300,36071,416,2,73,8,0.0
undo,22,17,0,0,0,17,"[0, 17]",2,19,"[1, 2, 3, 5, 7, 8, 9, 10, 11, 12, 14, 16, 18, 19, 23, 25, 26, 27, 29]",194.4253818,38515,2444,3,56,7,1.0
undo,22,17,0,0,0,8,"[0, 17, 8]",3,14,"[2, 3, 7, 9, 10, 11, 12, 14, 16, 23, 25, 26, 27, 29]",156.2154355,42224,3709,11,17,6,1.0742762671080475
undo,22,17,0,0,0,7,"[0, 17, 8, 7]",4,6,"[2, 10, 11, 12, 23, 27]",85.50475737,44937,2713,1,5,6,1.1663897764549729
undo,22,17,0,0,1,2,"[0, 17, 8, 7, 2]",5,0,[],1.904518136,46609,1672,1,0,5,2.877900475707619
undo,22,17,1,0,0,7,"[0, 17, 8, 7]",4,6,"[2, 10, 11, 12, 23, 27]",85.50475737,48475,1866,1,5,6,1.1663897764549729
undo,22,17,1,0,0,8,"[0, 17, 8]",3,14,"[2, 3, 7, 9, 10, 11, 12, 14, 16, 23, 25, 26, 27, 29]",156.2154355,48709,234,11,17,6,1.0742762671080475
undo,22,17,1,0,0,17,"[0, 17]",2,19,"[1, 2, 3, 5, 7, 8, 9, 10, 11, 12, 14, 16, 18, 19, 23, 25, 26, 27, 29]",194.4253818,48942,233,3,56,7,1.0
undo,22,17,1,0,0,0,[0],1,28,"[1, 2, 3, 4, 5, 6, 7, 8, 9, 10, 11, 12, 13, 14, 15, 16, 17, 18, 19, 20, 22, 23, 24, 25, 26, 27, 28, 29]",300,49175,233,2,73,8,0.0
undo,22,17,0,0,0,9,"[0, 9]",2,25,"[1, 2, 3, 5, 6, 7, 8, 10, 11, 12, 14, 15, 16, 17, 18, 19, 20, 22, 23, 24, 25, 26, 27, 28, 29]",210.5293344,53013,3838,1,34,8,1.0
undo,22,17,0,0,0,16,"[0, 9, 16]",3,21,"[1, 2, 3, 5, 7, 8, 10, 11, 12, 14, 17, 18, 19, 20, 22, 23, 25, 26, 27, 28, 29]",197.1876704,54065,1052,1,26,8,1.173103464220352
undo,22,17,0,0,0,2,"[0, 9, 16, 2]",4,18,"[1, 3, 5, 7, 8, 10, 11, 12, 14, 17, 18, 19, 23, 25, 26, 27, 28, 29]",181.0631549,55609,1544,1,23,8,1.14825089247282
undo,22,17,0,0,0,17,"[0, 9, 16, 2, 17]",5,7,"[7, 8, 12, 14, 26, 27, 29]",142.7356191,57160,1551,4,5,7,1.4896040699768547
undo,22,17,0,0,0,8,"[0, 9, 16, 2, 17, 8]",6,3,"[7, 12, 27]",104.5256727,61006,3846,3,0,7,1.4604726966175894
undo,22,17,0,0,1,7,"[0, 9, 16, 2, 17, 8, 7]",7,0,[],33.81499459,62787,1781,1,0,7,1.4474701869793896
undo,22,17,0,1,1,7,"[0, 9, 16, 2, 17, 8, 7]",7,0,[],33.81499459,64659,1872,1,0,7,1.4474701869793896
basic,23,37,0,0,0,0,[0],1,29,"[1, 2, 3, 4, 5, 6, 7, 8, 9, 10, 11, 12, 13, 14, 15, 16, 17, 18, 19, 20, 21, 22, 23, 24, 25, 26, 27, 28, 29]",300,237,-1,6,168,10,0.0
basic,23,37,0,0,0,18,"[0, 18]",2,19,"[1, 2, 4, 6, 7, 9, 10, 12, 14, 15, 17, 19, 20, 21, 22, 23, 26, 28, 29]",202.4090168,7588,7351,6,89,10,1.0
basic,23,37,0,0,0,7,"[0, 18, 7]",3,12,"[1, 2, 4, 9, 15, 17, 19, 20, 21, 22, 26, 29]",175.2428614,9128,1540,6,53,10,1.0413073512834488
basic,23,37,0,0,0,22,"[0, 18, 7, 22]",4,8,"[1, 2, 4, 15, 19, 20, 21, 26]",125.2428614,12806,3678,6,29,10,1.0730792320325544
basic,23,37,0,0,0,4,"[0, 18, 7, 22, 4]",5,7,"[1, 2, 15, 19, 20, 21, 26]",100.2428614,14337,1531,4,16,10,1.2290245562206235
basic,23,37,0,0,0,2,"[0, 18, 7, 22, 4, 2]",6,5,"[1, 15, 19, 20, 21]",88.84110714,15467,1130,4,7,10,1.3968113858365216
basic,23,37,0,0,0,1,"[0, 18, 7, 22, 4, 2, 1]",7,4,"[15, 19, 20, 21]",71.63645661,16688,1221,4,3,10,1.4424239294761476
basic,23,37,0,0,0,20,"[0, 18, 7, 22, 4, 2, 1, 20]",8,3,"[15, 19, 21]",37.40197107,18204,1516,2,1,10,1.7518607796010042
basic,23,37,0,0,0,15,"[0, 18, 7, 22, 4, 2, 1, 20, 15]",9,1,[21],20.40197107,20067,1863,1,0,10,1.680305745239285
basic,23,37,0,0,1,21,"[0, 18, 7, 22, 4, 2, 1, 20, 15, 21]",10,0,[],5.401971073,21250,1183,1,0,10,1.8982635624510946
basic,23,37,0,1,1,21,"[0, 18, 7, 22, 4, 2, 1, 20, 15, 21]",10,0,[],5.401971073,22921,1671,1,0,10,1.8982635624510946
basic,24,13,0,0,0,0,[0],1,29,"[1, 2, 3, 4, 5, 6, 7, 8, 9, 10, 11, 12, 13, 14, 15, 16, 17, 18, 19, 20, 21, 22, 23, 24, 25, 26, 27, 28, 29]",300,193,-1,60,2676,11,0.0
basic,24,13,0,0,0,23,"[0, 23]",2,28,"[1, 2, 3, 4, 5, 6, 7, 8, 9, 10, 11, 12, 13, 14, 15, 16, 17, 18, 19, 20, 21, 22, 24, 25, 26, 27, 28, 29]",243.4845154,4512,4319,7,1000,10,1.0
basic,24,13,0,0,0,26,"[0, 23, 26]",3,21,"[1, 2, 3, 4, 6, 7, 9, 11, 12, 13, 15, 16, 17, 19, 20, 21, 22, 24, 27, 28, 29]",183.9446128,6197,1685,164,647,9,1.2130636069708738
basic,24,13,0,0,0,7,"[0, 23, 26, 7]",4,19,"[1, 2, 3, 4, 6, 9, 11, 12, 13, 15, 16, 17, 19, 20, 21, 24, 27, 28, 29]",173.5043063,7152,955,55,186,9,1.2017271161919394
basic,24,13,0,0,0,29,"[0, 23, 26, 7, 29]",5,18,"[1, 2, 3, 4, 6, 9, 11, 12, 13, 15, 16, 17, 19, 20, 21, 24, 27, 28]",158.2399688,8580,1428,19,59,9,1.2736076929253561
basic,24,13,0,0,0,2,"[0, 23, 26, 7, 29, 2]",6,14,"[1, 3, 6, 9, 11, 12, 13, 15, 16, 17, 19, 21, 24, 28]",146.5352689,9525,945,11,25,9,1.4003515584405652
basic,24,13,0,0,0,6,"[0, 23, 26, 7, 29, 2, 6]",7,6,"[11, 13, 16, 17, 24, 28]",100.3075715,13147,3622,3,5,9,1.8391752532128374
basic,24,13,0,0,0,11,"[0, 23, 26, 7, 29, 2, 6, 11]",8,3,"[13, 17, 28]",81.20259837,14428,1281,3,0,9,1.7152273471787358
basic,24,13,0,0,1,17,"[0, 23, 26, 7, 29, 2, 6, 11, 17]",9,0,[],9.613493051,15901,1473,1,0,9,1.4612225644052679
basic,24,13,0,1,1,17,"[0, 23, 26, 7, 29, 2, 6, 11, 17]",9,0,[],9.613493051,16693,792,1,0,9,1.4612225644052679
basic,25,9,0,0,0,0,[0],1,27,"[1, 3, 4, 5, 6, 7, 8, 9, 10, 11, 13, 14, 15, 16, 17, 18, 19, 20, 21, 22, 23, 24, 25, 26, 27, 28, 29]",300,194,-1,2,182,10,0.0
basic,25,9,0,0,0,23,"[0, 23]",2,26,"[1, 3, 4, 5, 6, 7, 8, 9, 10, 11, 13, 14, 15, 16, 17, 18, 19, 20, 21, 22, 24, 25, 26, 27, 28, 29]",240.4600974,35718,35524,7,160,9,1.0
basic,25,9,0,0,0,8,"[0, 23, 8]",3,23,"[1, 3, 4, 5, 6, 7, 9, 10, 11, 13, 15, 16, 17, 18, 19, 20, 21, 22, 24, 25, 26, 27, 28]",218.9891869,37168,1450,3,53,9,1.2701427074648883
basic,25,9,0,0,0,10,"[0, 23, 8, 10]",4,13,"[4, 7, 9, 11, 17, 18, 20, 21, 22, 25, 26, 27, 28]",170.6156404,38884,1716,5,25,8,2.381352046807454
basic,25,9,0,0,0,25,"[0, 23, 8, 10, 25]",5,10,"[4, 7, 9, 11, 20, 21, 22, 26, 27, 28]",130.7659227,41711,2827,3,6,8,7.027062578491711
basic,25,9,0,0,0,27,"[0, 23, 8, 10, 25, 27]",6,2,"[4, 7]",94.86327654,44962,3251,2,0,8,3.827151034021268
basic,25,9,0,0,0,7,"[0, 23, 8, 10, 25, 27, 7]",7,1,[4],38.46292193,47039,2077,1,0,8,6.287966450613613
basic,25,9,0,0,1,4,"[0, 23, 8, 10, 25, 27, 7, 4]",8,0,[],23.46292193,48904,1865,1,0,8,4.9000290117839524
basic,25,9,0,1,1,4,"[0, 23, 8, 10, 25, 27, 7, 4]",8,0,[],23.46292193,50463,1559,1,0,8,4.9000290117839524
basic,26,2,0,0,0,0,[0],1,23,"[1, 2, 4, 5, 6, 7, 8, 9, 12, 13, 15, 16, 17, 18, 19, 20, 22, 23, 25, 26, 27, 28, 29]",300,262,-1,70,620,10,0.0
basic,26,2,0,0,0,19,"[0, 19]",2,22,"[1, 2, 4, 5, 6, 7, 8, 9, 12, 13, 15, 16, 17, 18, 20, 22, 23, 25, 26, 27, 28, 29]",210.306076,4949,4687,67,431,10,1.0
basic,26,2,0,0,0,12,"[0, 19, 12]",3,17,"[1, 4, 5, 6, 7, 13, 15, 16, 17, 18, 20, 22, 25, 26, 27, 28, 29]",174.2921898,6371,1422,66,298,10,1.1107635036313153
basic,26,2,0,0,0,5,"[0, 19, 12, 5]",4,11,"[1, 6, 7, 13, 15, 16, 18, 22, 25, 26, 29]",144.7625437,8395,2024,38,136,10,1.0968174771581647
basic,26,2,0,0,0,22,"[0, 19, 12, 5, 22]",5,8,"[1, 6, 7, 13, 15, 18, 26, 29]",131.9562952,9820,1425,20,63,10,1.0889910507461968
basic,26,2,0,0,0,13,"[0, 19, 12, 5, 22, 13]",6,7,"[1, 6, 7, 15, 18, 26, 29]",117.0902265,11109,1289,19,20,10,1.236526217328057
basic,26,2,0,0,0,18,"[0, 19, 12, 5, 22, 13, 18]",7,4,"[7, 15, 26, 29]",81.91921567,13578,2469,10,3,10,1.2128708213409936
basic,26,2,0,0,0,7,"[0, 19, 12, 5, 22, 13, 18, 7]",8,3,"[15, 26, 29]",71.62358553,15140,1562,5,0,10,1.2019811287894737
basic,26,2,0,0,0,15,"[0, 19, 12, 5, 22, 13, 18, 7, 15]",9,2,"[26, 29]",56.85876247,16586,1446,2,0,10,1.2907869828541363
basic,26,2,0,0,1,29,"[0, 19, 12, 5, 22, 13, 18, 7, 15, 29]",10,0,[],28.39826353,18721,2135,1,0,10,1.4795089334237532
basic,26,2,0,1,1,29,"[0, 19, 12, 5, 22, 13, 18, 7, 15, 29]",10,0,[],28.39826353,19989,1268,1,0,10,1.4795089334237532
basic,27,22,0,0,0,0,[0],1,29,"[1, 2, 3, 4, 5, 6, 7, 8, 9, 10, 11, 12, 13, 14, 15, 16, 17, 18, 19, 20, 21, 22, 23, 24, 25, 26, 27, 28, 29]",300,215,-1,31,704,9,0.0
basic,27,22,0,0,0,16,"[0, 16]",2,21,"[1, 3, 6, 7, 8, 9, 11, 13, 14, 15, 17, 18, 19, 20, 21, 22, 24, 25, 27, 28, 29]",218.605897,15119,14904,17,147,9,1.0
basic,27,22,0,0,0,28,"[0, 16, 28]",3,13,"[6, 7, 9, 13, 14, 17, 19, 20, 21, 22, 24, 25, 29]",184.1675463,20233,5114,12,61,9,1.047282311284478
basic,27,22,0,0,0,6,"[0, 16, 28, 6]",4,12,"[7, 9, 13, 14, 17, 19, 20, 21, 22, 24, 25, 29]",154.1675463,22532,2299,12,43,9,1.645645870580622
basic,27,22,0,0,0,9,"[0, 16, 28, 6, 9]",5,8,"[7, 14, 17, 19, 20, 21, 24, 29]",127.5404924,24693,2161,8,17,9,1.925750226630103
basic,27,22,0,0,0,19,"[0, 16, 28, 6, 9, 19]",6,6,"[7, 14, 17, 21, 24, 29]",107.1444143,26292,1599,3,7,9,2.4220750331476455
basic,27,22,0,0,0,29,"[0, 16, 28, 6, 9, 19, 29]",7,4,"[7, 14, 17, 24]",92.11111796,28144,1852,2,2,9,2.6996279574991067
basic,27,22,0,0,0,14,"[0, 16, 28, 6, 9, 19, 29, 14]",8,1,[7],33.86165444,32690,4546,1,0,9,2.0544639927929462
basic,27,22,0,0,1,7,"[0, 16, 28, 6, 9, 19, 29, 14, 7]",9,0,[],20.82324963,35262,2572,1,0,9,2.219817088951114
basic,27,22,0,1,1,7,"[0, 16, 28, 6, 9, 19, 29, 14, 7]",9,0,[],20.82324963,36640,1378,1,0,9,2.219817088951114
basic,28,8,0,0,0,0,[0],1,29,"[1, 2, 3, 4, 5, 6, 7, 8, 9, 10, 11, 12, 13, 14, 15, 16, 17, 18, 19, 20, 21, 22, 23, 24, 25, 26, 27, 28, 29]",300,206,-1,10,149,9,0.0
basic,28,8,0,0,0,5,"[0, 5]",2,28,"[1, 2, 3, 4, 6, 7, 8, 9, 10, 11, 12, 13, 14, 15, 16, 17, 18, 19, 20, 21, 22, 23, 24, 25, 26, 27, 28, 29]",254.5137383,11794,11588,10,100,9,1.0
basic,28,8,0,0,0,14,"[0, 5, 14]",3,20,"[1, 2, 3, 4, 6, 7, 11, 15, 16, 17, 18, 19, 20, 21, 22, 23, 24, 25, 28, 29]",214.5512559,13671,1877,4,36,9,1.0001019035932595
basic,28,8,0,0,0,17,"[0, 5, 14, 17]",4,15,"[1, 4, 6, 7, 11, 15, 16, 18, 19, 20, 22, 23, 24, 25, 28]",177.5377449,15282,1611,4,16,9,1.121197267659591
basic,28,8,0,0,0,11,"[0, 5, 14, 17, 11]",5,11,"[1, 4, 15, 16, 18, 19, 22, 23, 24, 25, 28]",152.3583883,16935,1653,4,8,9,1.1277254166016362
basic,28,8,0,0,0,24,"[0, 5, 14, 17, 11, 24]",6,3,"[15, 16, 28]",115.1428001,18676,1741,2,2,9,1.1227411011978805
basic,28,8,0,0,0,15,"[0, 5, 14, 17, 11, 24, 15]",7,2,"[16, 28]",98.37974552,20444,1768,2,0,9,1.1956385406066814
basic,28,8,0,0,0,16,"[0, 5, 14, 17, 11, 24, 15, 16]",8,1,[28],47.30137436,23441,2997,1,0,9,1.36482239111247
basic,28,8,0,0,1,28,"[0, 5, 14, 17, 11, 24, 15, 16, 28]",9,0,[],24.94069458,24872,1431,1,0,9,1.632953105226947
basic,28,8,0,1,1,28,"[0, 5, 14, 17, 11, 24, 15, 16, 28]",9,0,[],24.94069458,26195,1323,1,0,9,1.632953105226947
basic,29,41,0,0,0,0,[0],1,29,"[1, 2, 3, 4, 5, 6, 7, 8, 9, 10, 11, 12, 13, 14, 15, 16, 17, 18, 19, 20, 21, 22, 23, 24, 25, 26, 27, 28, 29]",300,191,-1,1,143,10,0.0
basic,29,41,0,0,0,13,"[0, 13]",2,23,"[1, 2, 3, 5, 6, 7, 9, 10, 11, 12, 14, 15, 17, 18, 19, 20, 21, 22, 24, 25, 26, 27, 28]",258.2747079,7574,7383,1,55,10,1.0
basic,29,41,0,0,0,28,"[0, 13, 28]",3,22,"[1, 2, 3, 5, 6, 7, 9, 10, 11, 12, 14, 15, 17, 18, 19, 20, 21, 22, 24, 25, 26, 27]",223.7928286,9106,1532,1,39,10,1.895724242592676
basic,29,41,0,0,0,5,"[0, 13, 28, 5]",4,19,"[1, 2, 3, 6, 9, 10, 11, 12, 14, 15, 17, 18, 19, 20, 21, 22, 24, 25, 27]",210.1913581,10437,1331,1,34,10,2.861541269398273
basic,29,41,0,0,0,3,"[0, 13, 28, 5, 3]",5,16,"[1, 2, 6, 9, 10, 12, 14, 17, 18, 19, 20, 21, 22, 24, 25, 27]",175.3632086,12271,1834,1,22,10,3.1455488489005883
basic,29,41,0,0,0,21,"[0, 13, 28, 5, 3, 21]",6,14,"[1, 2, 6, 9, 10, 12, 14, 17, 18, 19, 20, 22, 25, 27]",143.2228912,15484,3213,13,11,9,3.207558429289677
basic,29,41,0,0,0,17,"[0, 13, 28, 5, 3, 21, 17]",7,3,"[2, 9, 10]",91.5605258,17104,1620,2,1,9,3.2883270328778007
basic,29,41,0,0,0,2,"[0, 13, 28, 5, 3, 21, 17, 2]",8,1,[9],59.0028846,21395,4291,1,0,9,2.6636427360572794
basic,29,41,0,0,1,9,"[0, 13, 28, 5, 3, 21, 17, 2, 9]",9,0,[],46.91983863,25889,4494,1,0,9,3.075385964450707
basic,29,41,0,1,1,9,"[0, 13, 28, 5, 3, 21, 17, 2, 9]",9,0,[],46.91983863,27431,1542,1,0,9,3.075385964450707
basic,30,42,0,0,0,0,[0],1,29,"[1, 2, 3, 4, 5, 6, 7, 8, 9, 10, 11, 12, 13, 14, 15, 16, 17, 18, 19, 20, 21, 22, 23, 24, 25, 26, 27, 28, 29]",300,188,-1,16,302,9,0.0
basic,30,42,0,0,0,3,"[0, 3]",2,25,"[1, 2, 4, 5, 6, 7, 8, 9, 10, 11, 13, 15, 17, 18, 19, 20, 21, 22, 23, 24, 25, 26, 27, 28, 29]",255.7959278,7819,7631,3,45,9,1.0
basic,30,42,0,0,0,23,"[0, 3, 23]",3,15,"[1, 2, 4, 5, 6, 7, 8, 9, 11, 15, 17, 22, 24, 25, 29]",202.4573864,9478,1659,1,24,8,1.2042297975308642
basic,30,42,0,0,0,17,"[0, 3, 23, 17]",4,11,"[4, 5, 6, 8, 9, 11, 15, 22, 24, 25, 29]",191.2770465,11455,1977,1,14,8,1.192958341617778
basic,30,42,0,0,0,11,"[0, 3, 23, 17, 11]",5,7,"[4, 6, 8, 15, 22, 24, 25]",140.0813435,14785,3330,1,7,8,1.7422648616902974
basic,30,42,0,0,0,24,"[0, 3, 23, 17, 11, 24]",6,2,"[6, 15]",82.0727235,16548,1763,1,1,8,1.6631309430247303
basic,30,42,0,0,0,15,"[0, 3, 23, 17, 11, 24, 15]",7,1,[6],68.47125299,18100,1552,1,0,8,1.6008668931493675
basic,30,42,0,0,1,6,"[0, 3, 23, 17, 11, 24, 15, 6]",8,0,[],19.07489685,19927,1827,1,0,8,1.4594939660868298
basic,30,42,0,1,1,6,"[0, 3, 23, 17, 11, 24, 15, 6]",8,0,[],19.07489685,21167,1240,1,0,8,1.4594939660868298
basic,31,28,0,0,0,0,[0],1,27,"[1, 2, 3, 4, 5, 6, 7, 8, 9, 10, 11, 12, 13, 14, 15, 16, 17, 18, 19, 20, 22, 23, 25, 26, 27, 28, 29]",300,193,-1,2,96,9,0.0
basic,31,28,0,0,0,3,"[0, 3]",2,26,"[1, 2, 4, 5, 6, 7, 8, 9, 10, 11, 12, 13, 14, 15, 16, 17, 18, 19, 20, 22, 23, 25, 26, 27, 28, 29]",251.0817008,10971,10778,1,64,9,1.0
basic,31,28,0,0,0,5,"[0, 3, 5]",3,20,"[2, 4, 6, 7, 8, 9, 10, 11, 12, 13, 14, 15, 18, 19, 20, 23, 25, 26, 28, 29]",166.9865166,13388,2417,1,34,9,1.0203769473612083
basic,31,28,0,0,0,28,"[0, 3, 5, 28]",4,6,"[2, 4, 8, 9, 19, 26]",100.0761288,16702,3314,8,4,7,1.0823311089558794
basic,31,28,0,0,0,8,"[0, 3, 5, 28, 8]",5,4,"[2, 4, 9, 26]",82.27163495,20438,3736,4,2,7,1.0795975941035891
basic,31,28,0,0,0,9,"[0, 3, 5, 28, 8, 9]",6,3,"[2, 4, 26]",67.138889,22945,2507,3,0,7,1.131674521612193
basic,31,28,0,0,1,4,"[0, 3, 5, 28, 8, 9, 4]",7,0,[],44.11716013,25779,2834,1,0,7,1.1196899491715564
basic,31,28,0,1,1,4,"[0, 3, 5, 28, 8, 9, 4]",7,0,[],44.11716013,28182,2403,1,0,7,1.1196899491715564
basic,32,34,0,0,0,0,[0],1,25,"[1, 3, 4, 5, 6, 7, 8, 9, 10, 11, 12, 13, 15, 18, 19, 20, 21, 22, 23, 24, 25, 26, 27, 28, 29]",300,243,-1,12,367,10,0.0
basic,32,34,0,0,0,13,"[0, 13]",2,24,"[1, 3, 4, 5, 6, 7, 8, 9, 10, 11, 12, 15, 18, 19, 20, 21, 22, 23, 24, 25, 26, 27, 28, 29]",279.9750156,8742,8499,12,331,10,1.0
basic,32,34,0,0,0,1,"[0, 13, 1]",3,16,"[3, 5, 7, 8, 9, 10, 11, 12, 19, 21, 22, 23, 24, 25, 27, 29]",211.8574701,10524,1782,3,92,10,1.0010381285747127
basic,32,34,0,0,0,8,"[0, 13, 1, 8]",4,14,"[3, 5, 7, 9, 10, 11, 12, 19, 22, 23, 24, 25, 27, 29]",201.0871405,11576,1052,2,54,10,1.1636807
basic,32,34,0,0,0,25,"[0, 13, 1, 8, 25]",5,12,"[3, 5, 7, 9, 10, 11, 12, 22, 23, 24, 27, 29]",183.999133,12571,995,2,28,10,1.1396208815936457
basic,32,34,0,0,0,24,"[0, 13, 1, 8, 25, 24]",6,11,"[3, 5, 7, 9, 10, 11, 12, 22, 23, 27, 29]",166.5062774,13810,1239,2,23,10,1.374180768736554
basic,32,34,0,0,0,12,"[0, 13, 1, 8, 25, 24, 12]",7,7,"[7, 9, 10, 11, 22, 23, 27]",115.4670767,16586,2776,1,8,10,1.4994254760835948
basic,32,34,0,0,0,7,"[0, 13, 1, 8, 25, 24, 12, 7]",8,5,"[9, 11, 22, 23, 27]",100.4337804,17612,1026,1,4,10,1.758992610425009
basic,32,34,0,0,0,23,"[0, 13, 1, 8, 25, 24, 12, 7, 23]",9,1,[27],72.27352467,18944,1332,1,0,10,2.399781305190153
basic,32,34,0,0,1,27,"[0, 13, 1, 8, 25, 24, 12, 7, 23, 27]",10,0,[],18.60789321,20831,1887,1,0,10,4.766619878750327
basic,32,34,0,1,1,27,"[0, 13, 1, 8, 25, 24, 12, 7, 23, 27]",10,0,[],18.60789321,22088,1257,1,0,10,4.766619878750327
basic,33,40,0,0,0,0,[0],1,29,"[1, 2, 3, 4, 5, 6, 7, 8, 9, 10, 11, 12, 13, 14, 15, 16, 17, 18, 19, 20, 21, 22, 23, 24, 25, 26, 27, 28, 29]",300,220,-1,8,191,9,0.0
basic,33,40,0,0,0,1,"[0, 1]",2,18,"[2, 5, 6, 7, 8, 9, 10, 11, 13, 15, 17, 18, 19, 21, 22, 23, 27, 29]",247.8463808,3746,3526,4,80,9,1.0
basic,33,40,0,0,0,6,"[0, 1, 6]",3,17,"[2, 5, 7, 8, 9, 10, 11, 13, 15, 17, 18, 19, 21, 22, 23, 27, 29]",227.7466295,5163,1417,4,74,9,1.0459427008232034
basic,33,40,0,0,0,21,"[0, 1, 6, 21]",4,8,"[2, 5, 9, 17, 18, 19, 22, 23]",175.7754837,7430,2267,4,25,9,1.0308822257404064
basic,33,40,0,0,0,9,"[0, 1, 6, 21, 9]",5,6,"[2, 5, 18, 19, 22, 23]",130.0699041,9012,1582,4,12,9,1.377861912961129
basic,33,40,0,0,0,18,"[0, 1, 6, 21, 9, 18]",6,5,"[2, 5, 19, 22, 23]",113.5169588,10624,1612,4,4,9,1.5742712168661408
basic,33,40,0,0,0,5,"[0, 1, 6, 21, 9, 18, 5]",7,3,"[19, 22, 23]",81.94165198,12204,1580,2,1,9,1.7730665063055515
basic,33,40,0,0,0,23,"[0, 1, 6, 21, 9, 18, 5, 23]",8,1,[19],53.63970859,14056,1852,1,0,9,2.597442759912231
basic,33,40,0,0,1,19,"[0, 1, 6, 21, 9, 18, 5, 23, 19]",9,0,[],21.68661797,15567,1511,1,0,9,2.7128328554069565
basic,33,40,0,1,1,19,"[0, 1, 6, 21, 9, 18, 5, 23, 19]",9,0,[],21.68661797,16624,1057,1,0,9,2.7128328554069565
basic,34,33,0,0,0,0,[0],1,23,"[1, 2, 5, 7, 8, 11, 12, 13, 14, 15, 16, 17, 18, 19, 20, 21, 23, 24, 25, 26, 27, 28, 29]",300,248,-1,5,108,9,0.0
basic,34,33,0,0,0,8,"[0, 8]",2,22,"[1, 2, 5, 7, 11, 12, 13, 14, 15, 16, 17, 18, 19, 20, 21, 23, 24, 25, 26, 27, 28, 29]",265.8679037,4837,4589,5,87,9,1.0
basic,34,33,0,0,0,21,"[0, 8, 21]",3,16,"[2, 5, 7, 11, 13, 14, 16, 17, 18, 19, 20, 24, 26, 27, 28, 29]",166.0430571,7151,2314,5,80,9,1.0670557763739492
basic,34,33,0,0,0,17,"[0, 8, 21, 17]",4,11,"[2, 7, 11, 13, 14, 16, 19, 20, 24, 26, 29]",127.4036989,8315,1164,1,18,9,1.0830294710276618
basic,34,33,0,0,0,13,"[0, 8, 21, 17, 13]",5,10,"[2, 7, 11, 14, 16, 19, 20, 24, 26, 29]",104.6001904,9630,1315,1,10,9,1.2861654105061844
basic,34,33,0,0,0,19,"[0, 8, 21, 17, 13, 19]",6,6,"[7, 14, 16, 24, 26, 29]",79.10509282,11398,1768,1,6,9,1.3181942666818214
basic,34,33,0,0,0,24,"[0, 8, 21, 17, 13, 19, 24]",7,1,[7],37.05750074,13435,2037,1,0,8,1.2914654832859356
basic,34,33,0,0,1,7,"[0, 8, 21, 17, 13, 19, 24, 7]",8,0,[],7.851337003,15337,1902,1,0,8,1.370940443464748
basic,34,33,0,1,1,7,"[0, 8, 21, 17, 13, 19, 24, 7]",8,0,[],7.851337003,16583,1246,1,0,8,1.370940443464748
basic,35,17,0,0,0,0,[0],1,28,"[1, 2, 3, 4, 5, 6, 7, 8, 9, 10, 11, 12, 13, 14, 15, 16, 17, 18, 19, 20, 22, 23, 24, 25, 26, 27, 28, 29]",300,197,-1,2,73,8,0.0
basic,35,17,0,0,0,9,"[0, 9]",2,25,"[1, 2, 3, 5, 6, 7, 8, 10, 11, 12, 14, 15, 16, 17, 18, 19, 20, 22, 23, 24, 25, 26, 27, 28, 29]",210.5293344,4415,4218,1,34,8,1.0
basic,35,17,0,0,0,16,"[0, 9, 16]",3,21,"[1, 2, 3, 5, 7, 8, 10, 11, 12, 14, 17, 18, 19, 20, 22, 23, 25, 26, 27, 28, 29]",197.1876704,5912,1497,1,26,8,1.173103464220352
basic,35,17,0,0,0,2,"[0, 9, 16, 2]",4,18,"[1, 3, 5, 7, 8, 10, 11, 12, 14, 17, 18, 19, 23, 25, 26, 27, 28, 29]",181.0631549,7060,1148,1,23,8,1.14825089247282
basic,35,17,0,0,0,17,"[0, 9, 16, 2, 17]",5,7,"[7, 8, 12, 14, 26, 27, 29]",142.7356191,10559,3499,4,5,7,1.4896040699768547
basic,35,17,0,0,0,8,"[0, 9, 16, 2, 17, 8]",6,3,"[7, 12, 27]",104.5256727,13256,2697,3,0,7,1.4604726966175894
basic,35,17,0,0,1,7,"[0, 9, 16, 2, 17, 8, 7]",7,0,[],33.81499459,15153,1897,1,0,7,1.4474701869793896
basic,35,17,0,1,1,7,"[0, 9, 16, 2, 17, 8, 7]",7,0,[],33.81499459,16427,1274,1,0,7,1.4474701869793896
basic,36,14,0,0,0,0,[0],1,29,"[1, 2, 3, 4, 5, 6, 7, 8, 9, 10, 11, 12, 13, 14, 15, 16, 17, 18, 19, 20, 21, 22, 23, 24, 25, 26, 27, 28, 29]",300,215,-1,8,157,10,0.0
basic,36,14,0,0,0,22,"[0, 22]",2,24,"[1, 2, 3, 4, 6, 7, 8, 9, 10, 11, 13, 15, 17, 18, 19, 20, 21, 23, 24, 25, 26, 27, 28, 29]",254.745166,5052,4837,1,39,8,1.0
basic,36,14,0,0,0,3,"[0, 22, 3]",3,20,"[1, 2, 6, 7, 8, 9, 10, 11, 13, 15, 17, 18, 19, 20, 21, 24, 25, 27, 28, 29]",212.0251473,7950,2898,3,37,7,1.8452653659638358
basic,36,14,0,0,0,27,"[0, 22, 3, 27]",4,8,"[6, 9, 10, 11, 20, 21, 24, 29]",162.0951963,12662,4712,1,6,7,1.5153459107133316
basic,36,14,0,0,0,29,"[0, 22, 3, 27, 29]",5,1,[10],115.0845593,14439,1777,1,0,6,1.3714381851836104
basic,36,14,0,0,1,10,"[0, 22, 3, 27, 29, 10]",6,0,[],93.87135582,15653,1214,1,0,6,1.4234398875843992
basic,36,14,0,1,1,10,"[0, 22, 3, 27, 29, 10]",6,0,[],93.87135582,19557,3904,1,0,6,1.4234398875843992
basic,37,31,0,0,0,0,[0],1,27,"[1, 3, 4, 5, 6, 7, 8, 10, 11, 12, 13, 14, 15, 16, 17, 18, 19, 20, 21, 22, 23, 24, 25, 26, 27, 28, 29]",300,207,-1,2,87,10,0.0
basic,37,31,0,0,0,14,"[0, 14]",2,25,"[1, 3, 5, 6, 7, 8, 10, 11, 12, 13, 15, 16, 17, 18, 19, 20, 21, 22, 23, 24, 25, 26, 27, 28, 29]",263.861378,6356,6149,2,59,10,1.0
basic,37,31,0,0,0,27,"[0, 14, 27]",3,22,"[1, 3, 5, 6, 7, 8, 10, 11, 12, 13, 15, 16, 17, 18, 19, 20, 21, 22, 24, 25, 28, 29]",235.6833724,8078,1722,1,39,10,1.5881859159302467
basic,37,31,0,0,0,8,"[0, 14, 27, 8]",4,20,"[1, 3, 5, 6, 7, 10, 11, 12, 13, 16, 17, 18, 19, 20, 21, 22, 24, 25, 28, 29]",224.6380114,9661,1583,1,36,10,2.1665048452331277
basic,37,31,0,0,0,18,"[0, 14, 27, 8, 18]",5,15,"[1, 5, 6, 7, 11, 12, 13, 16, 17, 19, 20, 22, 25, 28, 29]",188.7911147,12574,2913,1,26,10,1.7273375741920205
basic,37,31,0,0,0,11,"[0, 14, 27, 8, 18, 11]",6,11,"[1, 5, 7, 12, 16, 17, 19, 20, 22, 25, 28]",153.9055876,14164,1590,13,17,9,2.386348208737804
basic,37,31,0,0,0,5,"[0, 14, 27, 8, 18, 11, 5]",7,5,"[16, 17, 20, 25, 28]",110.2249283,16036,1872,3,3,9,2.163249612867222
basic,37,31,0,0,0,28,"[0, 14, 27, 8, 18, 11, 5, 28]",8,2,"[16, 17]",90.00117988,17427,1391,2,0,9,1.9564635733184719
basic,37,31,0,0,1,16,"[0, 14, 27, 8, 18, 11, 5, 28, 16]",9,0,[],56.38570725,19278,1851,1,0,9,1.824071502589619
basic,37,31,0,1,1,16,"[0, 14, 27, 8, 18, 11, 5, 28, 16]",9,0,[],56.38570725,21307,2029,1,0,9,1.824071502589619
basic,38,18,0,0,0,0,[0],1,28,"[1, 2, 3, 4, 5, 6, 7, 8, 9, 10, 11, 12, 13, 14, 16, 17, 18, 19, 20, 21, 22, 23, 24, 25, 26, 27, 28, 29]",300,220,-1,3,136,10,0.0
basic,38,18,0,0,0,28,"[0, 28]",2,16,"[1, 3, 5, 7, 8, 9, 12, 13, 14, 16, 20, 23, 24, 25, 26, 27]",236.4311397,5450,5230,2,19,10,1.0
basic,38,18,0,0,0,7,"[0, 28, 7]",3,15,"[1, 3, 5, 8, 9, 12, 13, 14, 16, 20, 23, 24, 25, 26, 27]",214.4084242,6839,1389,2,17,10,1.4345180696367563
basic,38,18,0,0,0,25,"[0, 28, 7, 25]",4,13,"[1, 3, 5, 8, 9, 12, 13, 14, 16, 20, 23, 26, 27]",186.6055466,8198,1359,2,15,10,1.8896451241781882
basic,38,18,0,0,0,13,"[0, 28, 7, 25, 13]",5,10,"[3, 5, 8, 9, 12, 14, 16, 23, 26, 27]",141.3286209,12253,4055,5,21,9,1.6878978848273398
basic,38,18,0,0,0,8,"[0, 28, 7, 25, 13, 8]",6,8,"[3, 5, 9, 12, 14, 23, 26, 27]",120.2335978,14004,1751,2,9,9,1.900402263134541
basic,38,18,0,0,0,14,"[0, 28, 7, 25, 13, 8, 14]",7,4,"[3, 5, 12, 27]",86.63300257,15086,1082,4,0,8,1.903166929752216
basic,38,18,0,0,1,3,"[0, 28, 7, 25, 13, 8, 14, 3]",8,0,[],56.54978466,18172,3086,1,0,8,1.9893548054599768
basic,38,18,0,1,1,3,"[0, 28, 7, 25, 13, 8, 14, 3]",8,0,[],56.54978466,19690,1518,1,0,8,1.9893548054599768
basic,39,23,0,0,0,0,[0],1,28,"[1, 2, 3, 4, 5, 6, 7, 8, 9, 10, 11, 12, 13, 14, 15, 16, 17, 18, 19, 20, 21, 22, 23, 25, 26, 27, 28, 29]",300,177,-1,76,2626,10,0.0
basic,39,23,0,0,0,18,"[0, 18]",2,14,"[2, 5, 6, 7, 9, 10, 12, 13, 14, 19, 21, 22, 27, 29]",203.8958898,9938,9761,73,787,9,1.0
basic,39,23,0,0,0,27,"[0, 18, 27]",3,9,"[2, 6, 7, 9, 12, 13, 14, 22, 29]",128.5832083,11956,2018,51,277,9,1.1972268052690318
basic,39,23,0,0,0,6,"[0, 18, 27, 6]",4,8,"[2, 7, 9, 12, 13, 14, 22, 29]",100.2812649,13666,1710,43,68,9,1.3293035545030156
basic,39,23,0,0,0,2,"[0, 18, 27, 6, 2]",5,6,"[9, 12, 13, 14, 22, 29]",81.84217594,14753,1087,16,17,9,1.5987085337271232
basic,39,23,0,0,0,12,"[0, 18, 27, 6, 2, 12]",6,5,"[9, 13, 14, 22, 29]",67.94973195,17935,3182,4,5,9,1.8929166061978238
basic,39,23,0,0,0,13,"[0, 18, 27, 6, 2, 12, 13]",7,3,"[9, 14, 22]",55.86668598,19367,1432,2,1,9,2.205763785795194
basic,39,23,0,0,0,9,"[0, 18, 27, 6, 2, 12, 13, 9]",8,1,[14],31.84586168,20564,1197,1,0,9,2.0524872333624122
basic,39,23,0,0,1,14,"[0, 18, 27, 6, 2, 12, 13, 9, 14]",9,0,[],21.40555517,21700,1136,1,0,9,1.9773893774704039
basic,39,23,0,1,1,14,"[0, 18, 27, 6, 2, 12, 13, 9, 14]",9,0,[],21.40555517,23249,1549,1,0,9,1.9773893774704039
basic,40,32,0,0,0,0,[0],1,29,"[1, 2, 3, 4, 5, 6, 7, 8, 9, 10, 11, 12, 13, 14, 15, 16, 17, 18, 19, 20, 21, 22, 23, 24, 25, 26, 27, 28, 29]",300,190,-1,17,359,10,0.0
basic,40,32,0,0,0,15,"[0, 15]",2,24,"[2, 3, 4, 5, 6, 7, 8, 9, 10, 11, 12, 13, 14, 16, 17, 19, 20, 22, 23, 24, 25, 26, 27, 28]",214.6185032,5274,5084,11,153,9,1.0
basic,40,32,0,0,0,28,"[0, 15, 28]",3,21,"[2, 3, 5, 7, 8, 9, 10, 11, 12, 13, 14, 16, 17, 19, 20, 22, 23, 24, 25, 26, 27]",203.2167489,6511,1237,11,119,9,1.000160051986942
basic,40,32,0,0,0,12,"[0, 15, 28, 12]",4,19,"[2, 3, 5, 7, 8, 9, 10, 11, 13, 16, 17, 19, 20, 22, 23, 24, 25, 26, 27]",184.243083,8024,1513,8,71,9,1.0281484763748023
basic,40,32,0,0,0,16,"[0, 15, 28, 12, 16]",5,17,"[2, 3, 5, 7, 8, 9, 10, 11, 13, 17, 19, 20, 22, 23, 24, 26, 27]",168.5906071,9101,1077,6,38,9,1.1190771370096
basic,40,32,0,0,0,22,"[0, 15, 28, 12, 16, 22]",6,10,"[2, 3, 5, 8, 9, 10, 11, 17, 20, 27]",134.7527585,10980,1879,4,16,9,1.1702311155319893
basic,40,32,0,0,0,9,"[0, 15, 28, 12, 16, 22, 9]",7,6,"[2, 8, 10, 17, 20, 27]",112.5491552,12818,1838,2,4,9,1.2381424719932013
basic,40,32,0,0,0,8,"[0, 15, 28, 12, 16, 22, 9, 8]",8,1,[20],67.42709849,15016,2198,1,0,9,1.187013645273504
basic,40,32,0,0,1,20,"[0, 15, 28, 12, 16, 22, 9, 8, 20]",9,0,[],17.09818036,16698,1682,1,0,9,1.3986201165175596
basic,40,32,0,1,1,20,"[0, 15, 28, 12, 16, 22, 9, 8, 20]",9,0,[],17.09818036,17857,1159,1,0,9,1.3986201165175596
basic,41,30,0,0,0,0,[0],1,19,"[3, 4, 5, 7, 9, 11, 16, 17, 18, 19, 20, 21, 22, 24, 25, 26, 27, 28, 29]",300,193,-1,5,41,8,0.0
basic,41,30,0,0,0,25,"[0, 25]",2,12,"[3, 5, 7, 9, 11, 16, 18, 19, 20, 24, 27, 29]",121.1005869,10742,10549,7,37,7,1.0
basic,41,30,0,0,0,27,"[0, 25, 27]",3,8,"[3, 5, 7, 18, 19, 20, 24, 29]",81.54050603,12225,1483,2,17,7,1.0432445497342653
basic,41,30,0,0,0,3,"[0, 25, 27, 3]",4,5,"[5, 7, 18, 20, 29]",62.43553286,13622,1397,2,6,7,1.0419393955972533
basic,41,30,0,0,0,29,"[0, 25, 27, 3, 29]",5,3,"[5, 7, 18]",43.83445762,15769,2147,1,2,7,1.0521853644580021
basic,41,30,0,0,0,18,"[0, 25, 27, 3, 29, 18]",6,1,[5],24.5212497,17418,1649,1,0,7,1.1278751785159948
basic,41,30,0,0,1,5,"[0, 25, 27, 3, 29, 18, 5]",7,0,[],11.48284489,18360,942,1,0,7,1.1931367962604076
basic,41,30,0,1,1,5,"[0, 25, 27, 3, 29, 18, 5]",7,0,[],11.48284489,24986,6626,1,0,7,1.1931367962604076
basic,42,0,0,0,0,0,[0],1,27,"[2, 3, 4, 5, 6, 7, 8, 9, 10, 11, 12, 13, 14, 15, 16, 17, 19, 20, 21, 22, 23, 24, 25, 26, 27, 28, 29]",300,177,-1,104,1136,9,0.0
basic,42,0,0,0,0,5,"[0, 5]",2,24,"[2, 3, 4, 7, 8, 9, 11, 12, 13, 14, 15, 16, 17, 19, 20, 21, 22, 23, 24, 25, 26, 27, 28, 29]",164.5156836,6960,6783,5,112,9,1.0
basic,42,0,0,0,0,4,"[0, 5, 4]",3,20,"[2, 3, 7, 8, 9, 11, 12, 13, 14, 15, 17, 19, 20, 21, 22, 23, 24, 25, 26, 28]",139.4358112,8294,1334,4,61,9,1.0257023158632692
basic,42,0,0,0,0,26,"[0, 5, 4, 26]",4,18,"[3, 7, 8, 9, 11, 12, 13, 14, 15, 17, 19, 20, 21, 22, 23, 24, 25, 28]",127.3942166,9278,984,4,26,9,1.0684029773259323
basic,42,0,0,0,0,24,"[0, 5, 4, 26, 24]",5,12,"[3, 7, 8, 9, 11, 12, 15, 17, 19, 20, 23, 28]",110.2769738,10712,1434,4,16,9,1.1372083333602885
basic,42,0,0,0,0,15,"[0, 5, 4, 26, 24, 15]",6,8,"[3, 7, 8, 9, 11, 12, 17, 19]",86.93173875,12461,1749,4,7,9,1.1271717591548023
basic,42,0,0,0,0,7,"[0, 5, 4, 26, 24, 15, 7]",7,4,"[3, 8, 17, 19]",55.86728962,15507,3046,3,2,9,1.190834598819092
basic,42,0,0,0,0,3,"[0, 5, 4, 26, 24, 15, 7, 3]",8,1,[8],31.78410046,18257,2750,1,0,9,1.23738515991157
basic,42,0,0,0,1,8,"[0, 5, 4, 26, 24, 15, 7, 3, 8]",9,0,[],1.370287806,19714,1457,1,0,9,1.3423763396760653
basic,42,0,0,1,1,8,"[0, 5, 4, 26, 24, 15, 7, 3, 8]",9,0,[],1.370287806,21322,1608,1,0,9,1.3423763396760653
basic,43,5,0,0,0,0,[0],1,29,"[1, 2, 3, 4, 5, 6, 7, 8, 9, 10, 11, 12, 13, 14, 15, 16, 17, 18, 19, 20, 21, 22, 23, 24, 25, 26, 27, 28, 29]",300,186,-1,5,139,9,0.0
basic,43,5,0,0,0,23,"[0, 23]",2,27,"[1, 2, 3, 4, 5, 6, 7, 8, 9, 10, 11, 12, 13, 14, 15, 16, 17, 18, 19, 20, 21, 22, 24, 25, 26, 27, 28]",249.8402552,14530,14344,3,75,9,1.0
basic,43,5,0,0,0,12,"[0, 23, 12]",3,20,"[2, 4, 5, 6, 8, 9, 10, 13, 14, 15, 16, 17, 18, 19, 21, 22, 24, 25, 26, 27]",206.6661889,16554,2024,12,56,8,1.3018394868431302
basic,43,5,0,0,0,25,"[0, 23, 12, 25]",4,18,"[2, 4, 5, 6, 8, 9, 10, 13, 14, 15, 17, 18, 19, 21, 22, 24, 26, 27]",178.8813009,17867,1313,12,34,8,1.9286025844958365
basic,43,5,0,0,0,24,"[0, 23, 12, 25, 24]",5,14,"[4, 5, 6, 8, 9, 13, 14, 15, 17, 18, 19, 22, 26, 27]",154.0418162,20113,2246,9,16,8,2.0153742455218557
basic,43,5,0,0,0,17,"[0, 23, 12, 25, 24, 17]",6,7,"[4, 5, 6, 8, 15, 18, 19]",119.0561048,22535,2422,8,2,8,1.6946205255346762
basic,43,5,0,0,0,5,"[0, 23, 12, 25, 24, 17, 5]",7,4,"[4, 6, 15, 18]",76.00961835,24872,2337,4,0,8,1.498607098302
basic,43,5,0,0,1,18,"[0, 23, 12, 25, 24, 17, 5, 18]",8,0,[],8.942487801,26992,2120,1,0,8,1.4352967403400838
basic,43,5,0,1,1,18,"[0, 23, 12, 25, 24, 17, 5, 18]",8,0,[],8.942487801,28452,1460,1,0,8,1.4352967403400838
basic,44,26,0,0,0,0,[0],1,29,"[1, 2, 3, 4, 5, 6, 7, 8, 9, 10, 11, 12, 13, 14, 15, 16, 17, 18, 19, 20, 21, 22, 23, 24, 25, 26, 27, 28, 29]",300,199,-1,9,226,9,0.0
basic,44,26,0,0,0,10,"[0, 10]",2,6,"[4, 6, 14, 16, 17, 29]",138.1822012,4351,4152,9,66,7,1.0
basic,44,26,0,0,0,6,"[0, 10, 6]",3,5,"[4, 14, 16, 17, 29]",108.9076389,6151,1800,8,23,7,1.1897813099332413
basic,44,26,0,0,0,14,"[0, 10, 6, 14]",4,4,"[4, 16, 17, 29]",87.88384285,7587,1436,4,6,7,1.3162481558218453
basic,44,26,0,0,0,17,"[0, 10, 6, 14, 17]",5,3,"[4, 16, 29]",65.41163779,8940,1353,3,1,7,1.6510075497064465
basic,44,26,0,0,0,4,"[0, 10, 6, 14, 17, 4]",6,1,[29],44.31661468,10323,1383,1,0,7,2.1095586782058087
basic,44,26,0,0,1,29,"[0, 10, 6, 14, 17, 4, 29]",7,0,[],20.31661468,12803,2480,1,0,7,2.288952413143475
basic,44,26,0,1,1,29,"[0, 10, 6, 14, 17, 4, 29]",7,0,[],20.31661468,15045,2242,1,0,7,2.288952413143475
basic,45,21,0,0,0,0,[0],1,29,"[1, 2, 3, 4, 5, 6, 7, 8, 9, 10, 11, 12, 13, 14, 15, 16, 17, 18, 19, 20, 21, 22, 23, 24, 25, 26, 27, 28, 29]",300,176,-1,84,830,9,0.0
basic,45,21,0,0,0,18,"[0, 18]",2,28,"[1, 2, 3, 4, 5, 6, 7, 8, 9, 10, 11, 12, 13, 14, 15, 16, 17, 19, 20, 21, 22, 23, 24, 25, 26, 27, 28, 29]",240.923778,3631,3455,44,305,9,1.0
basic,45,21,0,0,0,29,"[0, 18, 29]",3,24,"[1, 2, 3, 4, 6, 7, 8, 9, 10, 11, 12, 13, 14, 15, 16, 17, 20, 21, 22, 23, 24, 25, 26, 27]",212.2706805,11322,7691,11,87,9,1.035555280387994
basic,45,21,0,0,0,25,"[0, 18, 29, 25]",4,18,"[1, 4, 6, 8, 9, 10, 11, 12, 14, 15, 16, 17, 20, 21, 22, 23, 24, 26]",167.0490043,12838,1516,6,45,9,2.2226517719335437
basic,45,21,0,0,0,23,"[0, 18, 29, 25, 23]",5,10,"[4, 8, 14, 15, 16, 17, 20, 21, 22, 24]",123.7246462,14429,1591,3,20,9,1.7801958981326236
basic,45,21,0,0,0,21,"[0, 18, 29, 25, 23, 21]",6,3,"[4, 14, 16]",94.11046043,16104,1675,1,3,9,2.290491065218303
basic,45,21,0,0,0,14,"[0, 18, 29, 25, 23, 21, 14]",7,2,"[4, 16]",68.49796348,18068,1964,1,1,9,2.021100447974041
basic,45,21,0,0,0,4,"[0, 18, 29, 25, 23, 21, 14, 4]",8,1,[16],54.35582786,19188,1120,1,0,9,1.9205022281831265
basic,45,21,0,0,1,16,"[0, 18, 29, 25, 23, 21, 14, 4, 16]",9,0,[],9.757621617,21385,2197,1,0,9,1.7782202964615115
basic,45,21,0,1,1,16,"[0, 18, 29, 25, 23, 21, 14, 4, 16]",9,0,[],9.757621617,22756,1371,1,0,9,1.7782202964615115
basic,46,12,0,0,0,0,[0],1,29,"[1, 2, 3, 4, 5, 6, 7, 8, 9, 10, 11, 12, 13, 14, 15, 16, 17, 18, 19, 20, 21, 22, 23, 24, 25, 26, 27, 28, 29]",300,200,-1,2,32,9,0.0
basic,46,12,0,0,0,25,"[0, 25]",2,16,"[2, 4, 5, 6, 7, 9, 12, 14, 16, 18, 19, 22, 23, 24, 27, 28]",225.7975742,5619,5419,5,34,8,1.0
basic,46,12,0,0,0,16,"[0, 25, 16]",3,11,"[2, 4, 5, 6, 7, 12, 14, 19, 22, 24, 27]",169.0701557,7655,2036,4,22,8,1.4434159828731936
basic,46,12,0,0,0,4,"[0, 25, 16, 4]",4,6,"[12, 14, 19, 22, 24, 27]",134.864893,9148,1493,2,7,8,1.3220542462647857
basic,46,12,0,0,0,12,"[0, 25, 16, 4, 12]",5,5,"[14, 19, 22, 24, 27]",92.67484678,10863,1715,2,3,8,1.2548348749245275
basic,46,12,0,0,0,27,"[0, 25, 16, 4, 12, 27]",6,2,"[14, 24]",68.32325545,12081,1218,2,0,8,1.3544642483472162
basic,46,12,0,0,0,14,"[0, 25, 16, 4, 12, 27, 14]",7,1,[24],39.67015789,14508,2427,1,0,8,1.3982089850666115
basic,46,12,0,0,1,24,"[0, 25, 16, 4, 12, 27, 14, 24]",8,0,[],22.46550735,16175,1667,1,0,8,1.5551140590301356
basic,46,12,0,1,1,24,"[0, 25, 16, 4, 12, 27, 14, 24]",8,0,[],22.46550735,18005,1830,1,0,8,1.5551140590301356
basic,47,6,0,0,0,0,[0],1,29,"[1, 2, 3, 4, 5, 6, 7, 8, 9, 10, 11, 12, 13, 14, 15, 16, 17, 18, 19, 20, 21, 22, 23, 24, 25, 26, 27, 28, 29]",300,176,-1,180,4304,10,0.0
basic,47,6,0,0,0,3,"[0, 3]",2,28,"[1, 2, 4, 5, 6, 7, 8, 9, 10, 11, 12, 13, 14, 15, 16, 17, 18, 19, 20, 21, 22, 23, 24, 25, 26, 27, 28, 29]",266.4738908,3683,3507,90,1607,10,1.0
basic,47,6,0,0,0,10,"[0, 3, 10]",3,27,"[1, 2, 4, 5, 6, 7, 8, 9, 11, 12, 13, 14, 15, 16, 17, 18, 19, 20, 21, 22, 23, 24, 25, 26, 27, 28, 29]",215.2293789,5946,2263,8,136,10,1.0050517746249001
basic,47,6,0,0,0,24,"[0, 3, 10, 24]",4,23,"[1, 2, 4, 5, 6, 7, 8, 11, 13, 14, 16, 17, 18, 19, 20, 21, 22, 23, 25, 26, 27, 28, 29]",201.812971,7257,1311,8,85,10,1.0091851911500884
basic,47,6,0,0,0,17,"[0, 3, 10, 24, 17]",5,19,"[1, 2, 4, 5, 6, 7, 8, 11, 13, 14, 16, 18, 20, 21, 22, 23, 26, 27, 29]",172.5384087,8698,1441,8,53,10,1.8060138032707682
basic,47,6,0,0,0,18,"[0, 3, 10, 24, 17, 18]",6,15,"[1, 2, 6, 7, 8, 13, 14, 16, 20, 21, 22, 23, 26, 27, 29]",158.6100204,9963,1265,7,36,10,2.3216150751946008
basic,47,6,0,0,0,16,"[0, 3, 10, 24, 17, 18, 16]",7,13,"[1, 2, 6, 7, 13, 14, 20, 21, 22, 23, 26, 27, 29]",135.2647853,11674,1711,7,21,10,2.2822729587843544
basic,47,6,0,0,0,29,"[0, 3, 10, 24, 17, 18, 16, 29]",8,7,"[6, 14, 20, 21, 22, 23, 27]",98.57691268,13321,1647,6,4,10,1.8911507070056388
basic,47,6,0,0,0,23,"[0, 3, 10, 24, 17, 18, 16, 29, 23]",9,2,"[6, 22]",51.05849519,15177,1856,2,0,10,1.8549852217940308
basic,47,6,0,0,1,6,"[0, 3, 10, 24, 17, 18, 16, 29, 23, 6]",10,0,[],15.70315613,16634,1457,1,0,10,1.7651720921259988
basic,47,6,0,1,1,6,"[0, 3, 10, 24, 17, 18, 16, 29, 23, 6]",10,0,[],15.70315613,17695,1061,1,0,10,1.7651720921259988
basic,48,20,0,0,0,0,[0],1,21,"[1, 2, 3, 4, 5, 6, 7, 8, 9, 12, 17, 18, 20, 21, 22, 23, 25, 26, 27, 28, 29]",300,179,-1,1,9,9,0.0
basic,48,20,0,0,0,29,"[0, 29]",2,16,"[1, 3, 4, 5, 7, 8, 12, 17, 18, 20, 21, 22, 23, 25, 27, 28]",245.8797635,13275,13096,1,18,7,1.0
basic,48,20,0,0,0,3,"[0, 29, 3]",3,7,"[4, 7, 17, 18, 20, 22, 25]",125.0493038,15089,1814,4,9,6,1.0487376864001872
basic,48,20,0,0,0,18,"[0, 29, 3, 18]",4,3,"[7, 17, 25]",74.88955894,16687,1598,1,2,6,1.221533562416619
basic,48,20,0,0,1,7,"[0, 29, 3, 18, 7]",5,0,[],31.75024972,18591,1904,1,0,5,1.1803319509893309
basic,48,20,0,1,1,7,"[0, 29, 3, 18, 7]",5,0,[],31.75024972,24222,5631,1,0,5,1.1803319509893309
basic,49,24,0,0,0,0,[0],1,29,"[1, 2, 3, 4, 5, 6, 7, 8, 9, 10, 11, 12, 13, 14, 15, 16, 17, 18, 19, 20, 21, 22, 23, 24, 25, 26, 27, 28, 29]",300,213,-1,4,76,10,0.0
basic,49,24,0,0,0,16,"[0, 16]",2,28,"[1, 2, 3, 4, 5, 6, 7, 8, 9, 10, 11, 12, 13, 14, 15, 17, 18, 19, 20, 21, 22, 23, 24, 25, 26, 27, 28, 29]",210.3562607,6614,6401,13,110,9,1.0
basic,49,24,0,0,0,22,"[0, 16, 22]",3,27,"[1, 2, 3, 4, 5, 6, 7, 8, 9, 10, 11, 12, 13, 14, 15, 17, 18, 19, 20, 21, 23, 24, 25, 26, 27, 28, 29]",192.3285043,10373,3759,7,54,9,1.0217425143037777
basic,49,24,0,0,0,15,"[0, 16, 22, 15]",4,24,"[2, 3, 4, 5, 6, 7, 8, 9, 10, 11, 12, 13, 14, 17, 18, 19, 21, 23, 24, 25, 26, 27, 28, 29]",171.1153009,11756,1383,3,24,9,1.077448994301009
basic,49,24,0,0,0,28,"[0, 16, 22, 15, 28]",5,12,"[3, 4, 6, 8, 9, 11, 13, 21, 23, 25, 26, 27]",125.8383752,13271,1515,2,10,9,1.0579370080485104
basic,49,24,0,0,0,23,"[0, 16, 22, 15, 28, 23]",6,7,"[3, 4, 8, 9, 11, 13, 27]",106.8120776,15229,1958,2,4,9,1.0965087965469686
basic,49,24,0,0,0,11,"[0, 16, 22, 15, 28, 23, 11]",7,2,"[9, 27]",79.88625355,17204,1975,2,0,9,1.0958394317987046
basic,49,24,0,0,0,27,"[0, 16, 22, 15, 28, 23, 11, 27]",8,1,[9],52.083376,18816,1612,1,0,9,1.085465547106356
basic,49,24,0,0,1,9,"[0, 16, 22, 15, 28, 23, 11, 27, 9]",9,0,[],12.52329511,20565,1749,1,0,9,1.3543056893413161
basic,49,24,0,1,1,9,"[0, 16, 22, 15, 28, 23, 11, 27, 9]",9,0,[],12.52329511,22087,1522,1,0,9,1.3543056893413161
basic,50,10,0,0,0,0,[0],1,29,"[1, 2, 3, 4, 5, 6, 7, 8, 9, 10, 11, 12, 13, 14, 15, 16, 17, 18, 19, 20, 21, 22, 23, 24, 25, 26, 27, 28, 29]",300,203,-1,1,100,9,0.0
basic,50,10,0,0,0,13,"[0, 13]",2,25,"[1, 2, 3, 4, 6, 7, 8, 9, 10, 11, 12, 14, 17, 18, 19, 20, 21, 22, 23, 24, 25, 26, 27, 28, 29]",249.4628849,3442,3239,1,79,9,1.0
basic,50,10,0,0,0,11,"[0, 13, 11]",3,20,"[1, 2, 3, 6, 7, 8, 9, 10, 12, 14, 18, 19, 20, 21, 22, 24, 26, 27, 28, 29]",206.4512586,6676,3234,1,54,9,1.0313137484914219
basic,50,10,0,0,0,20,"[0, 13, 11, 20]",4,15,"[1, 2, 3, 6, 8, 9, 10, 12, 14, 18, 19, 21, 24, 26, 27]",168.3723931,9645,2969,15,34,8,1.0874972644654597
basic,50,10,0,0,0,26,"[0, 13, 11, 20, 26]",5,8,"[2, 6, 9, 10, 14, 18, 19, 27]",136.5918959,14136,4491,6,9,8,1.2338398611867702
basic,50,10,0,0,0,19,"[0, 13, 11, 20, 26, 19]",6,4,"[2, 10, 14, 27]",108.2722914,16217,2081,2,2,8,1.605667351096318
basic,50,10,0,0,0,2,"[0, 13, 11, 20, 26, 19, 2]",7,1,[14],64.36329458,17964,1747,1,0,8,1.443425373304724
basic,50,10,0,0,1,14,"[0, 13, 11, 20, 26, 19, 2, 14]",8,0,[],52.19776952,19507,1543,1,0,8,1.5494298542386484
basic,50,10,0,1,1,14,"[0, 13, 11, 20, 26, 19, 2, 14]",8,0,[],52.19776952,20658,1151,1,0,8,1.5494298542386484
basic,51,43,0,0,0,0,[0],1,23,"[1, 2, 3, 4, 5, 6, 7, 9, 10, 11, 12, 14, 15, 16, 17, 19, 20, 21, 22, 23, 25, 27, 29]",300,192,-1,16,556,12,0.0
basic,51,43,0,0,0,29,"[0, 29]",2,22,"[1, 2, 3, 4, 5, 6, 7, 9, 10, 11, 12, 14, 15, 16, 17, 19, 20, 21, 22, 23, 25, 27]",277.909278,3513,3321,16,520,12,1.0
basic,51,43,0,0,0,20,"[0, 29, 20]",3,20,"[1, 2, 3, 4, 6, 7, 9, 10, 11, 12, 14, 15, 16, 17, 19, 21, 22, 23, 25, 27]",254.4785289,6482,2969,15,422,12,1.082311746871282
basic,51,43,0,0,0,16,"[0, 29, 20, 16]",4,19,"[1, 2, 3, 4, 6, 7, 9, 10, 11, 12, 14, 15, 17, 19, 21, 22, 23, 25, 27]",231.8511119,8558,2076,15,389,12,1.215201926898219
basic,51,43,0,0,0,25,"[0, 29, 20, 16, 25]",5,14,"[1, 2, 3, 4, 6, 7, 9, 11, 12, 14, 15, 19, 22, 23]",175.7708124,15284,6726,53,282,11,1.566384303308987
basic,51,43,0,0,0,15,"[0, 29, 20, 16, 25, 15]",6,13,"[1, 2, 3, 4, 6, 7, 9, 11, 12, 14, 19, 22, 23]",153.0992443,16849,1565,27,108,11,1.776736412604812
basic,51,43,0,0,0,12,"[0, 29, 20, 16, 25, 15, 12]",7,10,"[1, 3, 6, 7, 9, 11, 14, 19, 22, 23]",133.7860364,18467,1618,21,41,11,1.6813323012225032
basic,51,43,0,0,0,3,"[0, 29, 20, 16, 25, 15, 12, 3]",8,9,"[1, 6, 7, 9, 11, 14, 19, 22, 23]",120.7860364,19934,1467,20,12,11,1.608740348096123
basic,51,43,0,0,0,22,"[0, 29, 20, 16, 25, 15, 12, 3, 22]",9,6,"[1, 6, 7, 11, 14, 19]",86.07292644,23577,3643,9,2,11,1.793657891802588
basic,51,43,0,0,0,19,"[0, 29, 20, 16, 25, 15, 12, 3, 22, 19]",10,3,"[1, 6, 7]",65.45739831,25150,1573,3,0,11,1.6882745891803936
basic,51,43,0,0,1,7,"[0, 29, 20, 16, 25, 15, 12, 3, 22, 19, 7]",11,0,[],26.34218388,29547,4397,1,0,11,1.5508239510703012
basic,51,43,0,1,1,7,"[0, 29, 20, 16, 25, 15, 12, 3, 22, 19, 7]",11,0,[],26.34218388,32212,2665,1,0,11,1.5508239510703012
basic,52,25,0,0,0,0,[0],1,28,"[1, 2, 3, 4, 5, 7, 8, 9, 10, 11, 12, 13, 14, 15, 16, 17, 18, 19, 20, 21, 22, 23, 24, 25, 26, 27, 28, 29]",300,265,-1,5,94,10,0.0
basic,52,25,0,0,0,23,"[0, 23]",2,23,"[1, 2, 3, 5, 7, 8, 9, 11, 12, 13, 14, 16, 17, 19, 20, 21, 22, 24, 25, 26, 27, 28, 29]",259.7756293,4267,4002,3,33,10,1.0
basic,52,25,0,0,0,19,"[0, 23, 19]",3,21,"[1, 2, 3, 5, 7, 8, 9, 11, 12, 13, 14, 16, 17, 20, 21, 22, 24, 25, 27, 28, 29]",223.9287326,5895,1628,3,24,10,1.583101227007039
basic,52,25,0,0,0,29,"[0, 23, 19, 29]",4,19,"[1, 2, 3, 5, 7, 8, 9, 11, 12, 13, 14, 16, 17, 20, 21, 22, 24, 25, 28]",207.649912,7028,1133,3,17,10,1.474631541426484
basic,52,25,0,0,0,22,"[0, 23, 19, 29, 22]",5,18,"[1, 2, 3, 5, 7, 8, 9, 11, 12, 13, 14, 16, 17, 20, 21, 24, 25, 28]",191.5253965,8109,1081,3,14,10,1.4020377754906637
basic,52,25,0,0,0,7,"[0, 23, 19, 29, 22, 7]",6,7,"[3, 8, 9, 11, 13, 24, 28]",115.8814939,10025,1916,3,11,10,1.5709678649326715
basic,52,25,0,0,0,24,"[0, 23, 19, 29, 22, 7, 24]",7,5,"[3, 8, 9, 13, 28]",91.12265712,11474,1449,3,7,10,1.486191600033379
basic,52,25,0,0,0,9,"[0, 23, 19, 29, 22, 7, 24, 9]",8,4,"[3, 8, 13, 28]",73.09490075,12640,1166,3,3,10,1.453504870342882
basic,52,25,0,0,0,3,"[0, 23, 19, 29, 22, 7, 24, 9, 3]",9,3,"[8, 13, 28]",42.82940885,14588,1948,3,0,10,1.388955167525479
basic,52,25,0,0,1,8,"[0, 23, 19, 29, 22, 7, 24, 9, 3, 8]",10,0,[],3.624817279,15753,1165,1,0,10,1.4820797135778283
basic,52,25,0,1,1,8,"[0, 23, 19, 29, 22, 7, 24, 9, 3, 8]",10,0,[],3.624817279,17142,1389,1,0,10,1.4820797135778283
basic,53,29,0,0,0,0,[0],1,29,"[1, 2, 3, 4, 5, 6, 7, 8, 9, 10, 11, 12, 13, 14, 15, 16, 17, 18, 19, 20, 21, 22, 23, 24, 25, 26, 27, 28, 29]",300,180,-1,1,78,9,0.0
basic,53,29,0,0,0,25,"[0, 25]",2,18,"[1, 2, 4, 5, 6, 7, 9, 10, 12, 13, 14, 15, 16, 17, 22, 26, 27, 28]",223.3449284,14432,14252,13,101,8,1.0
basic,53,29,0,0,0,17,"[0, 25, 17]",3,13,"[1, 4, 5, 6, 7, 9, 10, 12, 13, 14, 22, 27, 28]",188.41643,15722,1290,2,22,8,1.014228463693056
basic,53,29,0,0,0,1,"[0, 25, 17, 1]",4,11,"[4, 5, 6, 7, 10, 12, 13, 14, 22, 27, 28]",149.5191293,17368,1646,2,18,8,1.7553639368828857
basic,53,29,0,0,0,14,"[0, 25, 17, 1, 14]",5,8,"[4, 5, 7, 12, 13, 22, 27, 28]",106.5656662,18506,1138,2,9,8,2.137167642879409
basic,53,29,0,0,0,13,"[0, 25, 17, 1, 14, 13]",6,4,"[4, 5, 12, 22]",88.53790978,21389,2883,2,3,8,1.9535489858276616
basic,53,29,0,0,0,5,"[0, 25, 17, 1, 14, 13, 5]",7,2,"[4, 22]",62.82798951,23615,2226,2,0,8,1.9087092890879327
basic,53,29,0,0,1,22,"[0, 25, 17, 1, 14, 13, 5, 22]",8,0,[],8.486476834,28380,4765,1,0,8,2.492296943176698
basic,53,29,0,1,1,22,"[0, 25, 17, 1, 14, 13, 5, 22]",8,0,[],8.486476834,29848,1468,1,0,8,2.492296943176698
basic,54,39,0,0,0,0,[0],1,28,"[1, 2, 3, 4, 5, 6, 7, 9, 10, 11, 12, 13, 14, 15, 16, 17, 18, 19, 20, 21, 22, 23, 24, 25, 26, 27, 28, 29]",300,183,-1,1,30,10,0.0
basic,54,39,0,0,0,10,"[0, 10]",2,20,"[1, 2, 4, 5, 7, 9, 12, 13, 14, 15, 16, 17, 18, 19, 22, 23, 24, 26, 28, 29]",181.1723938,7324,7141,3,58,8,1.0
basic,54,39,0,0,0,7,"[0, 10, 7]",3,16,"[1, 2, 4, 5, 9, 12, 13, 15, 16, 18, 19, 22, 23, 24, 26, 29]",147.7508438,9789,2465,2,20,8,1.0005787113875788
basic,54,39,0,0,0,26,"[0, 10, 7, 26]",4,12,"[1, 2, 5, 9, 12, 13, 16, 18, 19, 22, 24, 29]",129.0693022,10925,1136,1,9,8,1.0582372046162405
basic,54,39,0,0,0,22,"[0, 10, 7, 26, 22]",5,7,"[1, 5, 12, 16, 18, 19, 29]",111.349257,12220,1295,1,3,8,1.2183446345009497
basic,54,39,0,0,0,16,"[0, 10, 7, 26, 22, 16]",6,2,"[18, 19]",76.34925701,13836,1616,1,1,8,1.1781376373699262
basic,54,39,0,0,0,19,"[0, 10, 7, 26, 22, 16, 19]",7,1,[18],58.88500781,15582,1746,1,0,8,1.1953094970663214
basic,54,39,0,0,1,18,"[0, 10, 7, 26, 22, 16, 19, 18]",8,0,[],15.71094152,17173,1591,1,0,8,1.2126315998801338
basic,54,39,0,1,1,18,"[0, 10, 7, 26, 22, 16, 19, 18]",8,0,[],15.71094152,18323,1150,1,0,8,1.2126315998801338
basic,55,38,0,0,0,0,[0],1,29,"[1, 2, 3, 4, 5, 6, 7, 8, 9, 10, 11, 12, 13, 14, 15, 16, 17, 18, 19, 20, 21, 22, 23, 24, 25, 26, 27, 28, 29]",300,176,-1,33,506,9,0.0
basic,55,38,0,0,0,19,"[0, 19]",2,23,"[3, 4, 5, 6, 7, 8, 9, 11, 13, 14, 15, 16, 17, 18, 20, 22, 23, 24, 25, 26, 27, 28, 29]",219.5015528,4074,3898,6,61,9,1.0
basic,55,38,0,0,0,17,"[0, 19, 17]",3,21,"[3, 4, 5, 6, 7, 9, 11, 13, 14, 15, 16, 18, 20, 22, 23, 24, 25, 26, 27, 28, 29]",198.1239945,5538,1464,6,53,9,1.571793785769489
basic,55,38,0,0,0,20,"[0, 19, 17, 20]",4,17,"[3, 4, 5, 6, 7, 11, 13, 14, 15, 16, 18, 22, 24, 25, 26, 27, 28]",174.3542658,6629,1091,6,44,9,2.333182710277297
basic,55,38,0,0,0,4,"[0, 19, 17, 20, 4]",5,10,"[5, 11, 13, 14, 15, 16, 24, 26, 27, 28]",140.4131403,12134,5505,5,22,9,2.276099229646013
basic,55,38,0,0,0,15,"[0, 19, 17, 20, 4, 15]",6,8,"[5, 11, 13, 14, 16, 24, 26, 28]",114.4131403,14571,2437,5,6,9,2.5292671156176403
basic,55,38,0,0,0,16,"[0, 19, 17, 20, 4, 15, 16]",7,2,"[11, 28]",72.79583625,15984,1413,2,0,9,2.0765047644693917
basic,55,38,0,0,0,11,"[0, 19, 17, 20, 4, 15, 16, 11]",8,1,[28],35.79583625,20224,4240,1,0,9,3.3064290414170228
basic,55,38,0,0,1,28,"[0, 19, 17, 20, 4, 15, 16, 11, 28]",9,0,[],8.777324073,21303,1079,1,0,9,2.726952312540345
basic,55,38,0,1,1,28,"[0, 19, 17, 20, 4, 15, 16, 11, 28]",9,0,[],8.777324073,22571,1268,1,0,9,2.726952312540345
basic,56,44,0,0,0,0,[0],1,29,"[1, 2, 3, 4, 5, 6, 7, 8, 9, 10, 11, 12, 13, 14, 15, 16, 17, 18, 19, 20, 21, 22, 23, 24, 25, 26, 27, 28, 29]",300,192,-1,13,126,7,0.0
basic,56,44,0,0,0,11,"[0, 11]",2,18,"[4, 5, 6, 7, 8, 9, 12, 14, 16, 17, 19, 20, 22, 23, 24, 25, 26, 28]",152.7790776,4759,4567,5,34,7,1.0
basic,56,44,0,0,0,24,"[0, 11, 24]",3,13,"[4, 5, 7, 8, 9, 12, 14, 17, 20, 22, 23, 25, 28]",125.8532535,7647,2888,5,23,7,1.1588941745226709
basic,56,44,0,0,0,9,"[0, 11, 24, 9]",4,7,"[4, 7, 8, 12, 14, 20, 23]",93.09657483,9897,2250,2,8,7,1.3039383713641313
basic,56,44,0,0,0,4,"[0, 11, 24, 9, 4]",5,5,"[7, 12, 14, 20, 23]",73.39885923,11492,1595,2,3,7,1.2901330701441578
basic,56,44,0,0,0,7,"[0, 11, 24, 9, 4, 7]",6,1,[23],42.38273439,13054,1562,1,0,7,1.2468141312360979
basic,56,44,0,0,1,23,"[0, 11, 24, 9, 4, 7, 23]",7,0,[],23.27776121,14480,1426,1,0,7,1.2635191782769477
basic,56,44,0,1,1,23,"[0, 11, 24, 9, 4, 7, 23]",7,0,[],23.27776121,15563,1083,1,0,7,1.2635191782769477
basic,57,35,0,0,0,0,[0],1,29,"[1, 2, 3, 4, 5, 6, 7, 8, 9, 10, 11, 12, 13, 14, 15, 16, 17, 18, 19, 20, 21, 22, 23, 24, 25, 26, 27, 28, 29]",300,182,-1,5,236,11,0.0
basic,57,35,0,0,0,24,"[0, 24]",2,27,"[1, 2, 4, 5, 6, 7, 8, 9, 10, 11, 12, 13, 14, 15, 16, 17, 18, 19, 20, 21, 22, 23, 25, 26, 27, 28, 29]",268.9838752,3124,2942,49,512,10,1.0
basic,57,35,0,0,0,17,"[0, 24, 17]",3,26,"[1, 2, 4, 5, 6, 7, 8, 9, 10, 11, 12, 13, 14, 15, 16, 18, 19, 20, 21, 22, 23, 25, 26, 27, 28, 29]",257.2791753,4151,1027,33,238,10,1.0771477201815276
basic,57,35,0,0,0,1,"[0, 24, 17, 1]",4,25,"[2, 4, 5, 6, 7, 8, 9, 10, 11, 12, 13, 14, 15, 16, 18, 19, 20, 21, 22, 23, 25, 26, 27, 28, 29]",241.4677869,6230,2079,26,151,10,1.2244804141479215
basic,57,35,0,0,0,15,"[0, 24, 17, 1, 15]",5,23,"[2, 4, 5, 6, 7, 8, 9, 10, 11, 12, 14, 16, 18, 19, 20, 21, 22, 23, 25, 26, 27, 28, 29]",218.6204676,7939,1709,26,78,10,1.4642196672428094
basic,57,35,0,0,0,23,"[0, 24, 17, 1, 15, 23]",6,11,"[4, 5, 6, 9, 18, 19, 25, 26, 27, 28, 29]",158.1804147,15177,7238,15,12,10,1.3338903684702363
basic,57,35,0,0,0,9,"[0, 24, 17, 1, 15, 23, 9]",7,6,"[5, 6, 18, 19, 25, 27]",120.5373542,16624,1447,6,1,10,1.5964380615155294
basic,57,35,0,0,0,18,"[0, 24, 17, 1, 15, 23, 9, 18]",8,3,"[5, 6, 25]",100.5123698,18139,1515,2,1,10,1.5508488101942703
basic,57,35,0,0,0,25,"[0, 24, 17, 1, 15, 23, 9, 18, 25]",9,1,[6],66.67452121,19615,1476,1,0,10,1.4408023801578587
