condition,trial_id,map_id,undoIndicator,submit,checkEnd,currentChoice,chosen_all,n_city_all,n_within_reach,cities_reach,currentBudget,time_all,rt_all,n_opt_paths_all,n_subopt_paths_all,mas_all,tortuosity_all
basic,0,32,0,0,0,0,[0],1,29,"[1, 2, 3, 4, 5, 6, 7, 8, 9, 10, 11, 12, 13, 14, 15, 16, 17, 18, 19, 20, 21, 22, 23, 24, 25, 26, 27, 28, 29]",300,163,-1,17,359,10,0.0
basic,0,32,0,0,0,15,"[0, 15]",2,24,"[2, 3, 4, 5, 6, 7, 8, 9, 10, 11, 12, 13, 14, 16, 17, 19, 20, 22, 23, 24, 25, 26, 27, 28]",214.6185032,7889,7726,11,153,9,1.0
basic,0,32,0,0,0,28,"[0, 15, 28]",3,21,"[2, 3, 5, 7, 8, 9, 10, 11, 12, 13, 14, 16, 17, 19, 20, 22, 23, 24, 25, 26, 27]",203.2167489,9767,1878,11,119,9,1.000160051986942
basic,0,32,0,0,0,12,"[0, 15, 28, 12]",4,19,"[2, 3, 5, 7, 8, 9, 10, 11, 13, 16, 17, 19, 20, 22, 23, 24, 25, 26, 27]",184.243083,10994,1227,8,71,9,1.0281484763748023
basic,0,32,0,0,0,16,"[0, 15, 28, 12, 16]",5,17,"[2, 3, 5, 7, 8, 9, 10, 11, 13, 17, 19, 20, 22, 23, 24, 26, 27]",168.5906071,11983,989,6,38,9,1.1190771370096
basic,0,32,0,0,0,22,"[0, 15, 28, 12, 16, 22]",6,10,"[2, 3, 5, 8, 9, 10, 11, 17, 20, 27]",134.7527585,13035,1052,4,16,9,1.1702311155319893
basic,0,32,0,0,0,9,"[0, 15, 28, 12, 16, 22, 9]",7,6,"[2, 8, 10, 17, 20, 27]",112.5491552,14812,1777,2,4,9,1.2381424719932013
basic,0,32,0,0,0,2,"[0, 15, 28, 12, 16, 22, 9, 2]",8,1,[17],61.46099608,17618,2806,1,0,9,1.6446273109221003
basic,0,32,0,0,1,17,"[0, 15, 28, 12, 16, 22, 9, 2, 17]",9,0,[],21.64893761,19235,1617,1,0,9,2.46318728800517
basic,0,32,0,1,1,17,"[0, 15, 28, 12, 16, 22, 9, 2, 17]",9,0,[],21.64893761,20682,1447,1,0,9,2.46318728800517
basic,1,17,0,0,0,0,[0],1,28,"[1, 2, 3, 4, 5, 6, 7, 8, 9, 10, 11, 12, 13, 14, 15, 16, 17, 18, 19, 20, 22, 23, 24, 25, 26, 27, 28, 29]",300,163,-1,2,73,8,0.0
basic,1,17,0,0,0,9,"[0, 9]",2,25,"[1, 2, 3, 5, 6, 7, 8, 10, 11, 12, 14, 15, 16, 17, 18, 19, 20, 22, 23, 24, 25, 26, 27, 28, 29]",210.5293344,2520,2357,1,34,8,1.0
basic,1,17,0,0,0,16,"[0, 9, 16]",3,21,"[1, 2, 3, 5, 7, 8, 10, 11, 12, 14, 17, 18, 19, 20, 22, 23, 25, 26, 27, 28, 29]",197.1876704,3772,1252,1,26,8,1.173103464220352
basic,1,17,0,0,0,8,"[0, 9, 16, 8]",4,10,"[2, 3, 7, 10, 11, 12, 14, 17, 26, 27]",147.1776714,6545,2773,1,15,7,1.14180128632074
basic,1,17,0,0,0,7,"[0, 9, 16, 8, 7]",5,3,"[10, 12, 27]",76.46699323,8098,1553,3,0,6,1.2155356482498607
basic,1,17,0,0,1,27,"[0, 9, 16, 8, 7, 27]",6,0,[],22.8666201,9544,1446,1,0,6,1.2903889899411993
basic,1,17,0,1,1,27,"[0, 9, 16, 8, 7, 27]",6,0,[],22.8666201,10716,1172,1,0,6,1.2903889899411993
basic,2,43,0,0,0,0,[0],1,23,"[1, 2, 3, 4, 5, 6, 7, 9, 10, 11, 12, 14, 15, 16, 17, 19, 20, 21, 22, 23, 25, 27, 29]",300,162,-1,16,556,12,0.0
basic,2,43,0,0,0,29,"[0, 29]",2,22,"[1, 2, 3, 4, 5, 6, 7, 9, 10, 11, 12, 14, 15, 16, 17, 19, 20, 21, 22, 23, 25, 27]",277.909278,4226,4064,16,520,12,1.0
basic,2,43,0,0,0,20,"[0, 29, 20]",3,20,"[1, 2, 3, 4, 6, 7, 9, 10, 11, 12, 14, 15, 16, 17, 19, 21, 22, 23, 25, 27]",254.4785289,10286,6060,15,422,12,1.082311746871282
basic,2,43,0,0,0,16,"[0, 29, 20, 16]",4,19,"[1, 2, 3, 4, 6, 7, 9, 10, 11, 12, 14, 15, 17, 19, 21, 22, 23, 25, 27]",231.8511119,11897,1611,15,389,12,1.215201926898219
basic,2,43,0,0,0,25,"[0, 29, 20, 16, 25]",5,14,"[1, 2, 3, 4, 6, 7, 9, 11, 12, 14, 15, 19, 22, 23]",175.7708124,13763,1866,53,282,11,1.566384303308987
basic,2,43,0,0,0,15,"[0, 29, 20, 16, 25, 15]",6,13,"[1, 2, 3, 4, 6, 7, 9, 11, 12, 14, 19, 22, 23]",153.0992443,14985,1222,27,108,11,1.776736412604812
basic,2,43,0,0,0,12,"[0, 29, 20, 16, 25, 15, 12]",7,10,"[1, 3, 6, 7, 9, 11, 14, 19, 22, 23]",133.7860364,16391,1406,21,41,11,1.6813323012225032
basic,2,43,0,0,0,3,"[0, 29, 20, 16, 25, 15, 12, 3]",8,9,"[1, 6, 7, 9, 11, 14, 19, 22, 23]",120.7860364,18438,2047,20,12,11,1.608740348096123
basic,2,43,0,0,0,22,"[0, 29, 20, 16, 25, 15, 12, 3, 22]",9,6,"[1, 6, 7, 11, 14, 19]",86.07292644,20207,1769,9,2,11,1.793657891802588
basic,2,43,0,0,0,19,"[0, 29, 20, 16, 25, 15, 12, 3, 22, 19]",10,3,"[1, 6, 7]",65.45739831,25933,5726,3,0,11,1.6882745891803936
basic,2,43,0,0,1,1,"[0, 29, 20, 16, 25, 15, 12, 3, 22, 19, 1]",11,0,[],37.2793927,27769,1836,1,0,11,1.825064866046553
basic,2,43,0,1,1,1,"[0, 29, 20, 16, 25, 15, 12, 3, 22, 19, 1]",11,0,[],37.2793927,32289,4520,1,0,11,1.825064866046553
basic,3,30,0,0,0,0,[0],1,19,"[3, 4, 5, 7, 9, 11, 16, 17, 18, 19, 20, 21, 22, 24, 25, 26, 27, 28, 29]",300,155,-1,5,41,8,0.0
basic,3,30,0,0,0,25,"[0, 25]",2,12,"[3, 5, 7, 9, 11, 16, 18, 19, 20, 24, 27, 29]",121.1005869,5955,5800,7,37,7,1.0
basic,3,30,0,0,0,20,"[0, 25, 20]",3,9,"[3, 5, 7, 9, 11, 18, 19, 27, 29]",99.16887472,7043,1088,5,16,7,1.0037291321296267
basic,3,30,0,0,0,27,"[0, 25, 20, 27]",4,4,"[3, 5, 18, 29]",65.11010199,8229,1186,4,6,7,1.1217072851053165
basic,3,30,0,0,0,3,"[0, 25, 20, 27, 3]",5,3,"[5, 18, 29]",46.00512882,9400,1171,4,0,7,1.1140018780928678
basic,3,30,0,0,0,29,"[0, 25, 20, 27, 3, 29]",6,1,[18],27.40405358,10306,906,1,0,7,1.119672312555708
basic,3,30,0,0,1,18,"[0, 25, 20, 27, 3, 29, 18]",7,0,[],8.090845662,13656,3350,1,0,7,1.1951451398733344
basic,3,30,0,1,1,18,"[0, 25, 20, 27, 3, 29, 18]",7,0,[],8.090845662,15103,1447,1,0,7,1.1951451398733344
basic,4,2,0,0,0,0,[0],1,23,"[1, 2, 4, 5, 6, 7, 8, 9, 12, 13, 15, 16, 17, 18, 19, 20, 22, 23, 25, 26, 27, 28, 29]",300,166,-1,70,620,10,0.0
basic,4,2,0,0,0,19,"[0, 19]",2,22,"[1, 2, 4, 5, 6, 7, 8, 9, 12, 13, 15, 16, 17, 18, 20, 22, 23, 25, 26, 27, 28, 29]",210.306076,3670,3504,67,431,10,1.0
basic,4,2,0,0,0,12,"[0, 19, 12]",3,17,"[1, 4, 5, 6, 7, 13, 15, 16, 17, 18, 20, 22, 25, 26, 27, 28, 29]",174.2921898,5288,1618,66,298,10,1.1107635036313153
basic,4,2,0,0,0,5,"[0, 19, 12, 5]",4,11,"[1, 6, 7, 13, 15, 16, 18, 22, 25, 26, 29]",144.7625437,7272,1984,38,136,10,1.0968174771581647
basic,4,2,0,0,0,22,"[0, 19, 12, 5, 22]",5,8,"[1, 6, 7, 13, 15, 18, 26, 29]",131.9562952,8677,1405,20,63,10,1.0889910507461968
basic,4,2,0,0,0,13,"[0, 19, 12, 5, 22, 13]",6,7,"[1, 6, 7, 15, 18, 26, 29]",117.0902265,9771,1094,19,20,10,1.236526217328057
basic,4,2,0,0,0,18,"[0, 19, 12, 5, 22, 13, 18]",7,4,"[7, 15, 26, 29]",81.91921567,11371,1600,10,3,10,1.2128708213409936
basic,4,2,0,0,0,7,"[0, 19, 12, 5, 22, 13, 18, 7]",8,3,"[15, 26, 29]",71.62358553,14813,3442,5,0,10,1.2019811287894737
basic,4,2,0,0,0,15,"[0, 19, 12, 5, 22, 13, 18, 7, 15]",9,2,"[26, 29]",56.85876247,17624,2811,2,0,10,1.2907869828541363
basic,4,2,0,0,1,29,"[0, 19, 12, 5, 22, 13, 18, 7, 15, 29]",10,0,[],28.39826353,18731,1107,1,0,10,1.4795089334237532
basic,4,2,0,1,1,29,"[0, 19, 12, 5, 22, 13, 18, 7, 15, 29]",10,0,[],28.39826353,21186,2455,1,0,10,1.4795089334237532
basic,5,3,0,0,0,0,[0],1,29,"[1, 2, 3, 4, 5, 6, 7, 8, 9, 10, 11, 12, 13, 14, 15, 16, 17, 18, 19, 20, 21, 22, 23, 24, 25, 26, 27, 28, 29]",300,164,-1,34,427,10,0.0
basic,5,3,0,0,0,17,"[0, 17]",2,16,"[3, 4, 7, 8, 10, 12, 14, 15, 16, 19, 20, 21, 22, 24, 26, 27]",197.6965299,4973,4809,2,27,9,1.0
basic,5,3,0,0,0,20,"[0, 17, 20]",3,13,"[3, 4, 7, 8, 10, 14, 15, 16, 19, 21, 22, 24, 27]",185.0474192,6348,1375,2,24,9,1.0153332121237257
basic,5,3,0,0,0,3,"[0, 17, 20, 3]",4,10,"[4, 7, 8, 10, 14, 15, 16, 19, 21, 24]",164.6513412,7965,1617,2,22,9,1.0819240770773468
basic,5,3,0,0,0,19,"[0, 17, 20, 3, 19]",5,6,"[4, 8, 10, 14, 21, 24]",127.3150318,9374,1409,2,11,9,1.1701070532957258
basic,5,3,0,0,0,21,"[0, 17, 20, 3, 19, 21]",6,5,"[4, 8, 10, 14, 24]",115.1084762,10698,1324,2,6,9,1.202395500952127
basic,5,3,0,0,0,14,"[0, 17, 20, 3, 19, 21, 14]",7,4,"[4, 8, 10, 24]",88.20122806,15566,4868,2,2,9,1.6456130302761207
basic,5,3,0,0,0,24,"[0, 17, 20, 3, 19, 21, 14, 24]",8,1,[8],17.08864127,17291,1725,1,0,9,4.806859660680286
basic,5,3,0,0,1,8,"[0, 17, 20, 3, 19, 21, 14, 24, 8]",9,0,[],4.923116212,18539,1248,1,0,9,4.915218144486606
basic,5,3,0,1,1,8,"[0, 17, 20, 3, 19, 21, 14, 24, 8]",9,0,[],4.923116212,21136,2597,1,0,9,4.915218144486606
basic,6,11,0,0,0,0,[0],1,25,"[1, 2, 3, 4, 5, 6, 8, 9, 10, 11, 12, 13, 14, 15, 16, 17, 18, 19, 20, 22, 23, 25, 26, 27, 28]",300,163,-1,6,374,12,0.0
basic,6,11,0,0,0,18,"[0, 18]",2,21,"[1, 2, 4, 5, 6, 8, 9, 11, 12, 13, 14, 15, 16, 17, 19, 20, 22, 23, 25, 27, 28]",236.8493864,3667,3504,157,1477,11,1.0
basic,6,11,0,0,0,27,"[0, 18, 27]",3,19,"[1, 2, 4, 5, 6, 8, 9, 11, 12, 14, 15, 16, 17, 19, 20, 22, 23, 25, 28]",212.9956655,5090,1423,157,1315,11,1.060949579704323
basic,6,11,0,0,0,17,"[0, 18, 27, 17]",4,14,"[1, 2, 4, 5, 6, 8, 11, 12, 15, 19, 22, 23, 25, 28]",135.9177828,6847,1757,46,349,11,1.1156120043677304
basic,6,11,0,0,0,8,"[0, 18, 27, 17, 8]",5,11,"[1, 2, 5, 6, 11, 12, 15, 19, 22, 25, 28]",121.5999617,7836,989,26,143,11,1.2285932943120847
basic,6,11,0,0,0,15,"[0, 18, 27, 17, 8, 15]",6,9,"[2, 5, 6, 11, 12, 19, 22, 25, 28]",108.1463377,9161,1325,24,54,11,1.223015425852291
basic,6,11,0,0,0,11,"[0, 18, 27, 17, 8, 15, 11]",7,6,"[2, 5, 12, 19, 22, 28]",90.03556742,10072,911,22,2,11,1.2111003833550413
basic,6,11,0,0,0,5,"[0, 18, 27, 17, 8, 15, 11, 5]",8,3,"[2, 22, 28]",54.80773752,13574,3502,5,1,11,1.5070858562662883
basic,6,11,0,0,0,28,"[0, 18, 27, 17, 8, 15, 11, 5, 28]",9,2,"[2, 22]",36.9191937,14953,1379,2,0,11,1.5224287982960607
basic,6,11,0,0,0,2,"[0, 18, 27, 17, 8, 15, 11, 5, 28, 2]",10,1,[22],26.28904788,16715,1762,1,0,11,1.5334969671993883
basic,6,11,0,0,1,22,"[0, 18, 27, 17, 8, 15, 11, 5, 28, 2, 22]",11,0,[],16.23917226,18233,1518,1,0,11,1.5050924702228456
basic,6,11,0,1,1,22,"[0, 18, 27, 17, 8, 15, 11, 5, 28, 2, 22]",11,0,[],16.23917226,20685,2452,1,0,11,1.5050924702228456
basic,7,31,0,0,0,0,[0],1,27,"[1, 3, 4, 5, 6, 7, 8, 10, 11, 12, 13, 14, 15, 16, 17, 18, 19, 20, 21, 22, 23, 24, 25, 26, 27, 28, 29]",300,164,-1,2,87,10,0.0
basic,7,31,0,0,0,14,"[0, 14]",2,25,"[1, 3, 5, 6, 7, 8, 10, 11, 12, 13, 15, 16, 17, 18, 19, 20, 21, 22, 23, 24, 25, 26, 27, 28, 29]",263.861378,2822,2658,2,59,10,1.0
basic,7,31,0,0,0,27,"[0, 14, 27]",3,22,"[1, 3, 5, 6, 7, 8, 10, 11, 12, 13, 15, 16, 17, 18, 19, 20, 21, 22, 24, 25, 28, 29]",235.6833724,6740,3918,1,39,10,1.5881859159302467
basic,7,31,0,0,0,8,"[0, 14, 27, 8]",4,20,"[1, 3, 5, 6, 7, 10, 11, 12, 13, 16, 17, 18, 19, 20, 21, 22, 24, 25, 28, 29]",224.6380114,10970,4230,1,36,10,2.1665048452331277
basic,7,31,0,0,0,18,"[0, 14, 27, 8, 18]",5,15,"[1, 5, 6, 7, 11, 12, 13, 16, 17, 19, 20, 22, 25, 28, 29]",188.7911147,12375,1405,1,26,10,1.7273375741920205
basic,7,31,0,0,0,17,"[0, 14, 27, 8, 18, 17]",6,13,"[1, 5, 6, 7, 11, 12, 13, 16, 19, 20, 22, 25, 28]",159.584951,13339,964,1,13,10,1.551192427769927
basic,7,31,0,0,0,11,"[0, 14, 27, 8, 18, 17, 11]",7,7,"[5, 12, 16, 19, 22, 25, 28]",118.4753414,14831,1492,1,4,10,2.9650760544203494
basic,7,31,0,0,0,5,"[0, 14, 27, 8, 18, 17, 11, 5]",8,2,"[16, 28]",74.79468207,17909,3078,1,1,10,2.56711965625205
basic,7,31,0,0,0,28,"[0, 14, 27, 8, 18, 17, 11, 5, 28]",9,1,[16],54.57093365,19500,1591,1,0,10,2.2865510762058148
basic,7,31,0,0,1,16,"[0, 14, 27, 8, 18, 17, 11, 5, 28, 16]",10,0,[],20.95546102,21008,1508,1,0,10,2.089356850786318
basic,7,31,0,1,1,16,"[0, 14, 27, 8, 18, 17, 11, 5, 28, 16]",10,0,[],20.95546102,23120,2112,1,0,10,2.089356850786318
basic,8,1,0,0,0,0,[0],1,26,"[1, 2, 4, 5, 7, 8, 9, 10, 11, 12, 13, 14, 15, 16, 17, 18, 19, 20, 21, 22, 23, 24, 25, 26, 28, 29]",300,163,-1,6,74,7,0.0
basic,8,1,0,0,0,14,"[0, 14]",2,19,"[1, 4, 5, 8, 9, 13, 15, 17, 18, 19, 20, 21, 22, 23, 24, 25, 26, 28, 29]",200.1901808,3441,3278,5,42,7,1.0
basic,8,1,0,0,0,17,"[0, 14, 17]",3,15,"[1, 4, 5, 8, 9, 13, 15, 18, 19, 20, 22, 23, 25, 28, 29]",147.8356204,4638,1197,5,27,7,1.0028844724416826
basic,8,1,0,0,0,1,"[0, 14, 17, 1]",4,12,"[4, 5, 8, 9, 15, 18, 20, 22, 23, 25, 28, 29]",123.4840291,5685,1047,5,15,7,1.0264985578353567
basic,8,1,0,0,0,28,"[0, 14, 17, 1, 28]",5,5,"[9, 15, 22, 23, 29]",88.59850198,7436,1751,5,3,7,1.0339861575999345
basic,8,1,0,0,0,15,"[0, 14, 17, 1, 28, 15]",6,3,"[22, 23, 29]",53.37067208,11962,4526,3,0,7,1.055553419196412
basic,8,1,0,0,1,22,"[0, 14, 17, 1, 28, 15, 22]",7,0,[],10.09250206,13559,1597,1,0,7,1.0469795997475408
basic,8,1,0,1,1,22,"[0, 14, 17, 1, 28, 15, 22]",7,0,[],10.09250206,16034,2475,1,0,7,1.0469795997475408
basic,9,10,0,0,0,0,[0],1,29,"[1, 2, 3, 4, 5, 6, 7, 8, 9, 10, 11, 12, 13, 14, 15, 16, 17, 18, 19, 20, 21, 22, 23, 24, 25, 26, 27, 28, 29]",300,156,-1,1,100,9,0.0
basic,9,10,0,0,0,13,"[0, 13]",2,25,"[1, 2, 3, 4, 6, 7, 8, 9, 10, 11, 12, 14, 17, 18, 19, 20, 21, 22, 23, 24, 25, 26, 27, 28, 29]",249.4628849,3903,3747,1,79,9,1.0
basic,9,10,0,0,0,11,"[0, 13, 11]",3,20,"[1, 2, 3, 6, 7, 8, 9, 10, 12, 14, 18, 19, 20, 21, 22, 24, 26, 27, 28, 29]",206.4512586,6121,2218,1,54,9,1.0313137484914219
basic,9,10,0,0,0,19,"[0, 13, 11, 19]",4,11,"[2, 6, 8, 9, 10, 14, 18, 20, 24, 26, 27]",170.0919407,7438,1317,1,22,9,1.0879446220132545
basic,9,10,0,0,0,2,"[0, 13, 11, 19, 2]",5,4,"[14, 20, 26, 27]",126.1829439,8620,1182,1,4,9,1.06474052351343
basic,9,10,0,0,0,14,"[0, 13, 11, 19, 2, 14]",6,3,"[20, 26, 27]",114.0174188,9347,727,1,3,9,1.1628909195912238
basic,9,10,0,0,0,26,"[0, 13, 11, 19, 2, 14, 26]",7,2,"[20, 27]",79.34754716,10539,1192,1,1,9,1.6660727647633602
basic,9,10,0,0,0,20,"[0, 13, 11, 19, 2, 14, 26, 20]",8,1,[27],47.56704999,11576,1037,1,0,9,2.085581809637999
basic,9,10,0,0,1,27,"[0, 13, 11, 19, 2, 14, 26, 20, 27]",9,0,[],2.312215998,14205,2629,1,0,9,1.9116357409137932
basic,9,10,0,1,1,27,"[0, 13, 11, 19, 2, 14, 26, 20, 27]",9,0,[],2.312215998,16684,2479,1,0,9,1.9116357409137932
basic,10,0,0,0,0,0,[0],1,27,"[2, 3, 4, 5, 6, 7, 8, 9, 10, 11, 12, 13, 14, 15, 16, 17, 19, 20, 21, 22, 23, 24, 25, 26, 27, 28, 29]",300,163,-1,104,1136,9,0.0
basic,10,0,0,0,0,21,"[0, 21]",2,24,"[3, 4, 5, 6, 7, 8, 9, 10, 11, 12, 13, 14, 15, 16, 17, 19, 20, 22, 23, 24, 26, 27, 28, 29]",228.2156006,5040,4877,24,249,9,1.0
basic,10,0,0,0,0,28,"[0, 21, 28]",3,21,"[3, 4, 5, 6, 7, 8, 9, 11, 12, 13, 14, 15, 16, 17, 19, 20, 23, 24, 26, 27, 29]",166.6282642,6091,1051,24,214,9,1.269228840767463
basic,10,0,0,0,0,5,"[0, 21, 28, 5]",4,16,"[3, 4, 7, 8, 9, 11, 12, 14, 15, 17, 19, 20, 23, 24, 26, 29]",122.9705043,8918,2827,17,100,9,1.3066419815776449
basic,10,0,0,0,0,4,"[0, 21, 28, 5, 4]",5,13,"[3, 7, 8, 9, 11, 12, 15, 17, 19, 20, 23, 24, 26]",97.89063191,11557,2639,12,40,9,1.2910976504592468
basic,10,0,0,0,0,26,"[0, 21, 28, 5, 4, 26]",6,10,"[3, 7, 8, 9, 11, 12, 15, 17, 23, 24]",85.84903733,13014,1457,5,20,9,1.3255611811315622
basic,10,0,0,0,0,24,"[0, 21, 28, 5, 4, 26, 24]",7,8,"[3, 7, 8, 9, 11, 12, 15, 17]",68.73179456,15632,2618,5,6,9,1.3862320021735308
basic,10,0,0,0,0,15,"[0, 21, 28, 5, 4, 26, 24, 15]",8,3,"[7, 8, 9]",45.3865595,16729,1097,3,0,9,1.3469536849324695
basic,10,0,0,0,1,7,"[0, 21, 28, 5, 4, 26, 24, 15, 7]",9,0,[],14.32211036,18950,2221,1,0,9,1.3934843658246785
basic,10,0,0,1,1,7,"[0, 21, 28, 5, 4, 26, 24, 15, 7]",9,0,[],14.32211036,21551,2601,1,0,9,1.3934843658246785
basic,11,27,0,0,0,0,[0],1,26,"[1, 3, 5, 6, 7, 8, 9, 10, 11, 12, 13, 14, 15, 16, 17, 18, 19, 21, 22, 23, 24, 25, 26, 27, 28, 29]",300,180,-1,13,578,11,0.0
basic,11,27,0,0,0,15,"[0, 15]",2,24,"[1, 3, 5, 6, 7, 8, 9, 10, 11, 12, 13, 14, 16, 17, 18, 19, 21, 22, 23, 24, 25, 26, 27, 29]",263.7508621,5238,5058,6,219,11,1.0
basic,11,27,0,0,0,24,"[0, 15, 24]",3,20,"[1, 5, 6, 7, 8, 9, 10, 12, 13, 14, 16, 17, 18, 19, 21, 23, 25, 26, 27, 29]",246.5462115,6036,798,6,130,11,1.130933077698322
basic,11,27,0,0,0,17,"[0, 15, 24, 17]",4,15,"[1, 6, 8, 10, 12, 13, 14, 16, 18, 19, 23, 25, 26, 27, 29]",229.9932662,6921,885,4,60,11,1.1285538435963374
basic,11,27,0,0,0,12,"[0, 15, 24, 17, 12]",5,14,"[1, 6, 8, 10, 13, 14, 16, 18, 19, 23, 25, 26, 27, 29]",218.8129263,7539,618,2,32,11,1.2561880288755216
basic,11,27,0,0,0,10,"[0, 15, 24, 17, 12, 10]",6,11,"[1, 8, 13, 14, 18, 19, 23, 25, 26, 27, 29]",207.7675653,8676,1137,2,28,11,1.2228289337766665
basic,11,27,0,0,0,13,"[0, 15, 24, 17, 12, 10, 13]",7,9,"[1, 8, 14, 18, 19, 23, 26, 27, 29]",167.9178476,9892,1216,2,18,11,1.3421291994761178
basic,11,27,0,0,0,19,"[0, 15, 24, 17, 12, 10, 13, 19]",8,5,"[1, 8, 14, 23, 29]",131.6825057,13555,3663,2,6,11,1.294749956153846
basic,11,27,0,0,0,8,"[0, 15, 24, 17, 12, 10, 13, 19, 8]",9,3,"[14, 23, 29]",116.816437,14420,865,2,1,11,1.3554286578836865
basic,11,27,0,0,0,29,"[0, 15, 24, 17, 12, 10, 13, 19, 8, 29]",10,1,[14],57.61339652,17064,2644,1,0,11,1.248354519573802
basic,11,27,0,0,1,14,"[0, 15, 24, 17, 12, 10, 13, 19, 8, 29, 14]",11,0,[],13.31892734,18790,1726,1,0,11,1.562811097555156
basic,11,27,0,1,1,14,"[0, 15, 24, 17, 12, 10, 13, 19, 8, 29, 14]",11,0,[],13.31892734,20519,1729,1,0,11,1.562811097555156
basic,12,40,0,0,0,0,[0],1,29,"[1, 2, 3, 4, 5, 6, 7, 8, 9, 10, 11, 12, 13, 14, 15, 16, 17, 18, 19, 20, 21, 22, 23, 24, 25, 26, 27, 28, 29]",300,164,-1,8,191,9,0.0
basic,12,40,0,0,0,1,"[0, 1]",2,18,"[2, 5, 6, 7, 8, 9, 10, 11, 13, 15, 17, 18, 19, 21, 22, 23, 27, 29]",247.8463808,7228,7064,4,80,9,1.0
basic,12,40,0,0,0,6,"[0, 1, 6]",3,17,"[2, 5, 7, 8, 9, 10, 11, 13, 15, 17, 18, 19, 21, 22, 23, 27, 29]",227.7466295,7916,688,4,74,9,1.0459427008232034
basic,12,40,0,0,0,21,"[0, 1, 6, 21]",4,8,"[2, 5, 9, 17, 18, 19, 22, 23]",175.7754837,8940,1024,4,25,9,1.0308822257404064
basic,12,40,0,0,0,9,"[0, 1, 6, 21, 9]",5,6,"[2, 5, 18, 19, 22, 23]",130.0699041,10042,1102,4,12,9,1.377861912961129
basic,12,40,0,0,0,18,"[0, 1, 6, 21, 9, 18]",6,5,"[2, 5, 19, 22, 23]",113.5169588,11745,1703,4,4,9,1.5742712168661408
basic,12,40,0,0,0,23,"[0, 1, 6, 21, 9, 18, 23]",7,3,"[2, 5, 19]",79.51695879,13405,1660,2,1,9,2.324611956726637
basic,12,40,0,0,0,19,"[0, 1, 6, 21, 9, 18, 23, 19]",8,1,[5],47.56386817,14696,1291,1,0,9,2.460596854255639
basic,12,40,0,0,1,5,"[0, 1, 6, 21, 9, 18, 23, 19, 5]",9,0,[],9.485002643,16248,1552,1,0,9,2.3622228457215413
basic,12,40,0,1,1,5,"[0, 1, 6, 21, 9, 18, 23, 19, 5]",9,0,[],9.485002643,17852,1604,1,0,9,2.3622228457215413
basic,13,29,0,0,0,0,[0],1,29,"[1, 2, 3, 4, 5, 6, 7, 8, 9, 10, 11, 12, 13, 14, 15, 16, 17, 18, 19, 20, 21, 22, 23, 24, 25, 26, 27, 28, 29]",300,186,-1,1,78,9,0.0
basic,13,29,0,0,0,6,"[0, 6]",2,28,"[1, 2, 3, 4, 5, 7, 8, 9, 10, 11, 12, 13, 14, 15, 16, 17, 18, 19, 20, 21, 22, 23, 24, 25, 26, 27, 28, 29]",228.4108947,2535,2349,1,25,9,1.0
basic,13,29,0,0,0,28,"[0, 6, 28]",3,24,"[1, 3, 4, 5, 7, 9, 10, 11, 12, 13, 14, 15, 16, 17, 18, 20, 21, 22, 23, 24, 25, 26, 27, 29]",187.1798384,7337,4802,1,22,9,1.162106788166845
basic,13,29,0,0,0,27,"[0, 6, 28, 27]",4,19,"[1, 3, 4, 5, 7, 9, 10, 11, 12, 13, 14, 15, 16, 21, 22, 23, 25, 26, 29]",166.6615539,9109,1772,1,21,9,1.2307173895439045
basic,13,29,0,0,0,22,"[0, 6, 28, 27, 22]",5,13,"[1, 3, 4, 5, 7, 9, 12, 13, 14, 15, 21, 26, 29]",133.4200136,11338,2229,1,19,9,1.4241767805149903
basic,13,29,0,0,0,5,"[0, 6, 28, 27, 22, 5]",6,6,"[4, 7, 9, 12, 13, 14]",79.07850094,14529,3191,4,2,8,1.7779286710260118
basic,13,29,0,0,0,13,"[0, 6, 28, 27, 22, 5, 13]",7,1,[14],53.36858068,15432,903,1,0,8,2.2784535922470215
basic,13,29,0,0,1,14,"[0, 6, 28, 27, 22, 5, 13, 14]",8,0,[],35.3408243,16444,1012,1,0,8,2.9240984037611235
basic,13,29,0,1,1,14,"[0, 6, 28, 27, 22, 5, 13, 14]",8,0,[],35.3408243,18785,2341,1,0,8,2.9240984037611235
basic,14,41,0,0,0,0,[0],1,29,"[1, 2, 3, 4, 5, 6, 7, 8, 9, 10, 11, 12, 13, 14, 15, 16, 17, 18, 19, 20, 21, 22, 23, 24, 25, 26, 27, 28, 29]",300,164,-1,1,143,10,0.0
basic,14,41,0,0,0,21,"[0, 21]",2,28,"[1, 2, 3, 4, 5, 6, 7, 8, 9, 10, 11, 12, 13, 14, 15, 16, 17, 18, 19, 20, 22, 23, 24, 25, 26, 27, 28, 29]",251.1226024,9273,9109,50,469,8,1.0
basic,14,41,0,0,0,3,"[0, 21, 3]",3,26,"[1, 2, 5, 6, 7, 8, 9, 10, 11, 12, 13, 14, 15, 16, 17, 18, 19, 20, 22, 23, 24, 25, 26, 27, 28, 29]",218.982285,10142,869,16,151,8,2.044702670024013
basic,14,41,0,0,0,22,"[0, 21, 3, 22]",4,20,"[2, 5, 6, 7, 8, 9, 10, 11, 12, 13, 14, 16, 17, 18, 19, 20, 23, 25, 27, 28]",189.0156369,10989,847,4,36,8,1.609314302987968
basic,14,41,0,0,0,5,"[0, 21, 3, 22, 5]",5,9,"[2, 9, 10, 13, 17, 18, 20, 27, 28]",134.2707741,12298,1309,3,11,8,5.280572219167241
basic,14,41,0,0,0,28,"[0, 21, 3, 22, 5, 28]",6,5,"[9, 13, 17, 18, 20]",120.6693036,15383,3085,2,3,8,4.4610178066064154
basic,14,41,0,0,0,13,"[0, 21, 3, 22, 5, 28, 13]",7,1,[20],86.18742429,16757,1374,1,0,8,5.124291886287024
basic,14,41,0,0,1,20,"[0, 21, 3, 22, 5, 28, 13, 20]",8,0,[],23.53760386,17990,1233,1,0,8,2.9364404241464155
basic,14,41,0,1,1,20,"[0, 21, 3, 22, 5, 28, 13, 20]",8,0,[],23.53760386,19568,1578,1,0,8,2.9364404241464155
basic,15,36,0,0,0,0,[0],1,24,"[2, 4, 5, 6, 7, 8, 9, 10, 12, 13, 14, 15, 16, 17, 18, 19, 20, 22, 23, 25, 26, 27, 28, 29]",300,167,-1,2,200,10,0.0
basic,15,36,0,0,0,12,"[0, 12]",2,23,"[2, 4, 5, 6, 7, 8, 9, 10, 13, 14, 15, 16, 17, 18, 19, 20, 22, 23, 25, 26, 27, 28, 29]",277.7963967,5320,5153,90,804,9,1.0
basic,15,36,0,0,0,16,"[0, 12, 16]",3,10,"[2, 9, 10, 13, 17, 18, 19, 23, 25, 27]",171.6267212,6657,1337,4,38,9,1.202695220335868
basic,15,36,0,0,0,17,"[0, 12, 16, 17]",4,7,"[2, 9, 10, 13, 18, 19, 25]",143.3071167,7753,1096,4,23,9,1.6578705047868705
basic,15,36,0,0,0,9,"[0, 12, 16, 17, 9]",5,5,"[2, 13, 18, 19, 25]",117.0583072,8474,721,3,6,9,2.6488264465469484
basic,15,36,0,0,0,19,"[0, 12, 16, 17, 9, 19]",6,4,"[2, 13, 18, 25]",101.9255612,9522,1048,3,3,9,2.5697960541572393
basic,15,36,0,0,0,2,"[0, 12, 16, 17, 9, 19, 2]",7,2,"[13, 25]",64.80413882,10837,1315,2,0,9,2.082684549483941
basic,15,36,0,0,0,25,"[0, 12, 16, 17, 9, 19, 2, 25]",8,1,[13],39.80413882,12525,1688,1,0,9,2.272647961997219
basic,15,36,0,0,1,13,"[0, 12, 16, 17, 9, 19, 2, 25, 13]",9,0,[],19.21287854,13721,1196,1,0,9,2.86279103556024
basic,15,36,0,1,1,13,"[0, 12, 16, 17, 9, 19, 2, 25, 13]",9,0,[],19.21287854,15118,1397,1,0,9,2.86279103556024
basic,16,14,0,0,0,0,[0],1,29,"[1, 2, 3, 4, 5, 6, 7, 8, 9, 10, 11, 12, 13, 14, 15, 16, 17, 18, 19, 20, 21, 22, 23, 24, 25, 26, 27, 28, 29]",300,163,-1,8,157,10,0.0
basic,16,14,0,0,0,15,"[0, 15]",2,20,"[1, 2, 3, 4, 7, 8, 9, 13, 17, 18, 19, 20, 21, 22, 23, 25, 26, 27, 28, 29]",216.7053423,5084,4921,8,102,10,1.0
basic,16,14,0,0,0,28,"[0, 15, 28]",3,17,"[1, 2, 3, 4, 7, 8, 9, 13, 17, 18, 19, 20, 22, 23, 25, 26, 27]",197.4959696,5887,803,8,48,10,1.0446007867311968
basic,16,14,0,0,0,17,"[0, 15, 28, 17]",4,14,"[1, 2, 3, 4, 7, 8, 13, 18, 19, 20, 22, 23, 25, 26]",184.0423455,6779,892,8,39,10,1.0729463354689972
basic,16,14,0,0,0,18,"[0, 15, 28, 17, 18]",5,9,"[1, 2, 4, 7, 8, 19, 23, 25, 26]",119.412631,8363,1584,8,27,10,1.5035901079219378
basic,16,14,0,0,0,8,"[0, 15, 28, 17, 18, 8]",6,8,"[1, 2, 4, 7, 19, 23, 25, 26]",105.8111605,9439,1076,8,18,10,1.4819689987843856
basic,16,14,0,0,0,1,"[0, 15, 28, 17, 18, 8, 1]",7,5,"[7, 19, 23, 25, 26]",82.21031307,10480,1041,4,6,10,1.4084991998385268
basic,16,14,0,0,0,19,"[0, 15, 28, 17, 18, 8, 1, 19]",8,4,"[7, 23, 25, 26]",66.97876686,11376,896,4,1,10,1.5758713333797987
basic,16,14,0,0,0,25,"[0, 15, 28, 17, 18, 8, 1, 19, 25]",9,2,"[7, 23]",31.1318702,13293,1917,2,0,10,1.6426186864061416
basic,16,14,0,0,1,7,"[0, 15, 28, 17, 18, 8, 1, 19, 25, 7]",10,0,[],11.4341546,14204,911,1,0,10,1.652323224159132
basic,16,14,0,1,1,7,"[0, 15, 28, 17, 18, 8, 1, 19, 25, 7]",10,0,[],11.4341546,15917,1713,1,0,10,1.652323224159132
basic,17,35,0,0,0,0,[0],1,29,"[1, 2, 3, 4, 5, 6, 7, 8, 9, 10, 11, 12, 13, 14, 15, 16, 17, 18, 19, 20, 21, 22, 23, 24, 25, 26, 27, 28, 29]",300,163,-1,5,236,11,0.0
basic,17,35,0,0,0,24,"[0, 24]",2,27,"[1, 2, 4, 5, 6, 7, 8, 9, 10, 11, 12, 13, 14, 15, 16, 17, 18, 19, 20, 21, 22, 23, 25, 26, 27, 28, 29]",268.9838752,4247,4084,49,512,10,1.0
basic,17,35,0,0,0,17,"[0, 24, 17]",3,26,"[1, 2, 4, 5, 6, 7, 8, 9, 10, 11, 12, 13, 14, 15, 16, 18, 19, 20, 21, 22, 23, 25, 26, 27, 28, 29]",257.2791753,5106,859,33,238,10,1.0771477201815276
basic,17,35,0,0,0,1,"[0, 24, 17, 1]",4,25,"[2, 4, 5, 6, 7, 8, 9, 10, 11, 12, 13, 14, 15, 16, 18, 19, 20, 21, 22, 23, 25, 26, 27, 28, 29]",241.4677869,5976,870,26,151,10,1.2244804141479215
basic,17,35,0,0,0,9,"[0, 24, 17, 1, 9]",5,13,"[2, 4, 5, 6, 15, 18, 19, 23, 25, 26, 27, 28, 29]",171.9408138,7557,1581,23,25,9,1.1391705391673446
basic,17,35,0,0,0,18,"[0, 24, 17, 1, 9, 18]",6,9,"[4, 5, 6, 15, 19, 23, 25, 27, 28]",151.9158294,8636,1079,11,8,9,1.1512300765384265
basic,17,35,0,0,0,25,"[0, 24, 17, 1, 9, 18, 25]",7,3,"[5, 6, 23]",118.0779807,10660,2024,4,1,9,1.1233821517043756
basic,17,35,0,0,0,6,"[0, 24, 17, 1, 9, 18, 25, 6]",8,2,"[5, 23]",94.05715644,11580,920,2,0,9,1.3618604674216885
basic,17,35,0,0,1,23,"[0, 24, 17, 1, 9, 18, 25, 6, 23]",9,0,[],48.4063076,16811,5231,1,0,9,2.3663755774656274
basic,17,35,0,1,1,23,"[0, 24, 17, 1, 9, 18, 25, 6, 23]",9,0,[],48.4063076,19419,2608,1,0,9,2.3663755774656274
basic,18,28,0,0,0,0,[0],1,27,"[1, 2, 3, 4, 5, 6, 7, 8, 9, 10, 11, 12, 13, 14, 15, 16, 17, 18, 19, 20, 22, 23, 25, 26, 27, 28, 29]",300,164,-1,2,96,9,0.0
basic,18,28,0,0,0,14,"[0, 14]",2,14,"[1, 2, 3, 5, 7, 10, 11, 12, 13, 17, 18, 19, 20, 26]",147.8914861,2307,2143,1,26,8,1.0
basic,18,28,0,0,0,18,"[0, 14, 18]",3,11,"[1, 2, 3, 5, 7, 11, 12, 13, 17, 19, 26]",122.3963885,3363,1056,1,23,8,1.0675599824559303
basic,18,28,0,0,0,13,"[0, 14, 18, 13]",4,7,"[2, 7, 11, 12, 17, 19, 26]",97.9832773,4295,932,1,9,8,1.0602397944415018
basic,18,28,0,0,0,12,"[0, 14, 18, 13, 12]",5,4,"[2, 7, 17, 19]",80.77862677,5865,1570,1,3,8,1.0640685934245377
basic,18,28,0,0,0,7,"[0, 14, 18, 13, 12, 7]",6,2,"[2, 19]",67.62568033,6646,781,1,1,8,1.186262804928269
basic,18,28,0,0,0,19,"[0, 14, 18, 13, 12, 7, 19]",7,1,[2],39.89483108,7624,978,1,0,8,1.424576333867947
basic,18,28,0,0,1,2,"[0, 14, 18, 13, 12, 7, 19, 2]",8,0,[],2.531747699,10223,2599,1,0,8,1.4824387893309579
basic,18,28,0,1,1,2,"[0, 14, 18, 13, 12, 7, 19, 2]",8,0,[],2.531747699,11767,1544,1,0,8,1.4824387893309579
basic,19,12,0,0,0,0,[0],1,29,"[1, 2, 3, 4, 5, 6, 7, 8, 9, 10, 11, 12, 13, 14, 15, 16, 17, 18, 19, 20, 21, 22, 23, 24, 25, 26, 27, 28, 29]",300,148,-1,2,32,9,0.0
basic,19,12,0,0,0,16,"[0, 16]",2,16,"[2, 4, 5, 6, 7, 12, 13, 14, 18, 19, 22, 23, 24, 25, 27, 29]",209.2916762,5064,4916,3,38,8,1.0
basic,19,12,0,0,0,4,"[0, 16, 4]",3,11,"[2, 5, 6, 7, 12, 14, 19, 22, 24, 25, 27]",175.0864135,6164,1100,1,16,8,1.00004499617691
basic,19,12,0,0,0,12,"[0, 16, 4, 12]",4,6,"[14, 19, 22, 24, 25, 27]",132.8963673,7477,1313,1,8,8,1.0113942412768022
basic,19,12,0,0,0,27,"[0, 16, 4, 12, 27]",5,4,"[14, 19, 22, 24]",108.5447759,8489,1012,1,3,8,1.1193150037844588
basic,19,12,0,0,0,14,"[0, 16, 4, 12, 27, 14]",6,2,"[19, 24]",79.89167838,9342,853,1,1,8,1.1821826897854277
basic,19,12,0,0,0,24,"[0, 16, 4, 12, 27, 14, 24]",7,1,[19],62.68702784,10138,796,1,0,8,1.3297400833764192
basic,19,12,0,0,1,19,"[0, 16, 4, 12, 27, 14, 24, 19]",8,0,[],3.865263163,11314,1176,1,0,8,2.27325645157102
basic,19,12,0,1,1,19,"[0, 16, 4, 12, 27, 14, 24, 19]",8,0,[],3.865263163,12585,1271,1,0,8,2.27325645157102
basic,20,22,0,0,0,0,[0],1,29,"[1, 2, 3, 4, 5, 6, 7, 8, 9, 10, 11, 12, 13, 14, 15, 16, 17, 18, 19, 20, 21, 22, 23, 24, 25, 26, 27, 28, 29]",300,170,-1,31,704,9,0.0
basic,20,22,0,0,0,16,"[0, 16]",2,21,"[1, 3, 6, 7, 8, 9, 11, 13, 14, 15, 17, 18, 19, 20, 21, 22, 24, 25, 27, 28, 29]",218.605897,7311,7141,17,147,9,1.0
basic,20,22,0,0,0,28,"[0, 16, 28]",3,13,"[6, 7, 9, 13, 14, 17, 19, 20, 21, 22, 24, 25, 29]",184.1675463,8931,1620,12,61,9,1.047282311284478
basic,20,22,0,0,0,6,"[0, 16, 28, 6]",4,12,"[7, 9, 13, 14, 17, 19, 20, 21, 22, 24, 25, 29]",154.1675463,9607,676,12,43,9,1.645645870580622
basic,20,22,0,0,0,9,"[0, 16, 28, 6, 9]",5,8,"[7, 14, 17, 19, 20, 21, 24, 29]",127.5404924,11197,1590,8,17,9,1.925750226630103
basic,20,22,0,0,0,19,"[0, 16, 28, 6, 9, 19]",6,6,"[7, 14, 17, 21, 24, 29]",107.1444143,12112,915,3,7,9,2.4220750331476455
basic,20,22,0,0,0,29,"[0, 16, 28, 6, 9, 19, 29]",7,4,"[7, 14, 17, 24]",92.11111796,12925,813,2,2,9,2.6996279574991067
basic,20,22,0,0,0,7,"[0, 16, 28, 6, 9, 19, 29, 7]",8,1,[14],41.0327468,14873,1948,1,0,9,2.059125386946491
basic,20,22,0,0,1,14,"[0, 16, 28, 6, 9, 19, 29, 7, 14]",9,0,[],27.99434199,16494,1621,1,0,9,2.0997569104205307
basic,20,22,0,1,1,14,"[0, 16, 28, 6, 9, 19, 29, 7, 14]",9,0,[],27.99434199,17752,1258,1,0,9,2.0997569104205307
basic,21,23,0,0,0,0,[0],1,28,"[1, 2, 3, 4, 5, 6, 7, 8, 9, 10, 11, 12, 13, 14, 15, 16, 17, 18, 19, 20, 21, 22, 23, 25, 26, 27, 28, 29]",300,164,-1,76,2626,10,0.0
basic,21,23,0,0,0,13,"[0, 13]",2,19,"[1, 2, 3, 5, 6, 7, 8, 9, 10, 12, 14, 17, 18, 19, 21, 22, 23, 27, 29]",189.3202819,5863,5699,9,168,10,1.0
basic,21,23,0,0,0,12,"[0, 13, 12]",3,16,"[1, 2, 3, 6, 7, 8, 9, 10, 14, 17, 18, 21, 22, 23, 27, 29]",177.2372359,7055,1192,9,96,10,1.0014195490503164
basic,21,23,0,0,0,2,"[0, 13, 12, 2]",4,12,"[1, 3, 6, 7, 9, 10, 14, 18, 21, 22, 27, 29]",163.3447919,7986,931,4,30,10,1.0014394317924602
basic,21,23,0,0,0,9,"[0, 13, 12, 2, 9]",5,10,"[1, 6, 7, 10, 14, 18, 21, 22, 27, 29]",150.3063871,9336,1350,1,8,10,1.1457747074799831
basic,21,23,0,0,0,14,"[0, 13, 12, 2, 9, 14]",6,8,"[1, 6, 7, 10, 18, 22, 27, 29]",139.8660806,11530,2194,1,6,10,1.1365880299138118
basic,21,23,0,0,0,29,"[0, 13, 12, 2, 9, 14, 29]",7,5,"[1, 6, 7, 10, 22]",92.43191571,13759,2229,1,3,10,1.3460297288480787
basic,21,23,0,0,0,7,"[0, 13, 12, 2, 9, 14, 29, 7]",8,2,"[1, 10]",68.34872655,14638,879,1,1,10,1.3773159292410473
basic,21,23,0,0,0,10,"[0, 13, 12, 2, 9, 14, 29, 7, 10]",9,1,[1],40.88966612,15580,942,1,0,10,1.3556884556214648
basic,21,23,0,0,1,1,"[0, 13, 12, 2, 9, 14, 29, 7, 10, 1]",10,0,[],12.23656855,16522,942,1,0,10,1.3259861306330887
basic,21,23,0,1,1,1,"[0, 13, 12, 2, 9, 14, 29, 7, 10, 1]",10,0,[],12.23656855,17718,1196,1,0,10,1.3259861306330887
basic,22,38,0,0,0,0,[0],1,29,"[1, 2, 3, 4, 5, 6, 7, 8, 9, 10, 11, 12, 13, 14, 15, 16, 17, 18, 19, 20, 21, 22, 23, 24, 25, 26, 27, 28, 29]",300,163,-1,33,506,9,0.0
basic,22,38,0,0,0,19,"[0, 19]",2,23,"[3, 4, 5, 6, 7, 8, 9, 11, 13, 14, 15, 16, 17, 18, 20, 22, 23, 24, 25, 26, 27, 28, 29]",219.5015528,9261,9098,6,61,9,1.0
basic,22,38,0,0,0,17,"[0, 19, 17]",3,21,"[3, 4, 5, 6, 7, 9, 11, 13, 14, 15, 16, 18, 20, 22, 23, 24, 25, 26, 27, 28, 29]",198.1239945,10304,1043,6,53,9,1.571793785769489
basic,22,38,0,0,0,20,"[0, 19, 17, 20]",4,17,"[3, 4, 5, 6, 7, 11, 13, 14, 15, 16, 18, 22, 24, 25, 26, 27, 28]",174.3542658,11360,1056,6,44,9,2.333182710277297
basic,22,38,0,0,0,4,"[0, 19, 17, 20, 4]",5,10,"[5, 11, 13, 14, 15, 16, 24, 26, 27, 28]",140.4131403,18510,7150,5,22,9,2.276099229646013
basic,22,38,0,0,0,15,"[0, 19, 17, 20, 4, 15]",6,8,"[5, 11, 13, 14, 16, 24, 26, 28]",114.4131403,19911,1401,5,6,9,2.5292671156176403
basic,22,38,0,0,0,16,"[0, 19, 17, 20, 4, 15, 16]",7,2,"[11, 28]",72.79583625,23109,3198,2,0,9,2.0765047644693917
basic,22,38,0,0,0,28,"[0, 19, 17, 20, 4, 15, 16, 28]",8,1,[11],43.79583625,25446,2337,1,0,9,2.3990457975039625
basic,22,38,0,0,1,11,"[0, 19, 17, 20, 4, 15, 16, 28, 11]",9,0,[],16.77732407,26925,1479,1,0,9,3.5444395258240657
basic,22,38,0,1,1,11,"[0, 19, 17, 20, 4, 15, 16, 28, 11]",9,0,[],16.77732407,28003,1078,1,0,9,3.5444395258240657
undo,23,20,0,0,0,0,[0],1,21,"[1, 2, 3, 4, 5, 6, 7, 8, 9, 12, 17, 18, 20, 21, 22, 23, 25, 26, 27, 28, 29]",300,166,-1,1,9,9,0.0
undo,23,20,0,0,0,12,"[0, 12]",2,20,"[1, 2, 3, 4, 5, 6, 7, 8, 9, 17, 18, 20, 21, 22, 23, 25, 26, 27, 28, 29]",271.5570747,2715,2549,1,8,9,1.0
undo,23,20,0,0,0,1,"[0, 12, 1]",3,12,"[3, 4, 5, 6, 8, 9, 20, 21, 23, 27, 28, 29]",189.5692707,4048,1333,1,6,9,1.0757997779162911
undo,23,20,0,0,0,5,"[0, 12, 1, 5]",4,10,"[4, 6, 8, 9, 20, 21, 23, 27, 28, 29]",152.8950291,5305,1257,1,5,9,1.1708231454516806
undo,23,20,0,0,0,21,"[0, 12, 1, 5, 21]",5,8,"[4, 6, 8, 9, 20, 23, 27, 28]",107.8950291,6989,1684,1,4,9,1.126197336199212
undo,23,20,0,0,0,8,"[0, 12, 1, 5, 21, 8]",6,5,"[6, 9, 23, 27, 28]",90.43077988,9340,2351,1,3,9,1.140007470699913
undo,23,20,0,0,0,23,"[0, 12, 1, 5, 21, 8, 23]",7,2,"[6, 9]",45.74297394,10941,1601,1,1,9,1.1162257896627588
undo,23,20,0,0,0,9,"[0, 12, 1, 5, 21, 8, 23, 9]",8,1,[6],26.53360123,12056,1115,1,0,9,1.1086880559449597
undo,23,20,0,0,1,6,"[0, 12, 1, 5, 21, 8, 23, 9, 6]",9,0,[],3.511872362,13577,1521,1,0,9,1.1186240265999328
undo,23,20,0,1,1,6,"[0, 12, 1, 5, 21, 8, 23, 9, 6]",9,0,[],3.511872362,14636,1059,1,0,9,1.1186240265999328
undo,24,23,0,0,0,0,[0],1,28,"[1, 2, 3, 4, 5, 6, 7, 8, 9, 10, 11, 12, 13, 14, 15, 16, 17, 18, 19, 20, 21, 22, 23, 25, 26, 27, 28, 29]",300,174,-1,76,2626,10,0.0
undo,24,23,0,0,0,27,"[0, 27]",2,11,"[2, 6, 7, 9, 10, 12, 13, 14, 18, 22, 29]",156.8217894,3211,3037,6,455,9,1.0
undo,24,23,0,0,0,6,"[0, 27, 6]",3,10,"[2, 7, 9, 10, 12, 13, 14, 18, 22, 29]",128.519846,4157,946,6,168,9,1.1413510010705277
undo,24,23,0,0,0,13,"[0, 27, 6, 13]",4,7,"[2, 9, 12, 14, 18, 22, 29]",88.15897383,6080,1923,25,7,8,1.9140004130415318
undo,24,23,0,0,0,12,"[0, 27, 6, 13, 12]",5,5,"[2, 9, 14, 22, 29]",76.07592786,6964,884,7,5,8,1.826628334641329
undo,24,23,0,0,0,2,"[0, 27, 6, 13, 12, 2]",6,4,"[9, 14, 22, 29]",62.18348387,8725,1761,2,2,8,1.742771754515294
undo,24,23,0,0,0,9,"[0, 27, 6, 13, 12, 2, 9]",7,1,[14],49.14507906,9410,685,1,0,8,1.9200767360191275
undo,24,23,0,0,1,14,"[0, 27, 6, 13, 12, 2, 9, 14]",8,0,[],38.70477255,10310,900,1,0,8,1.8546041270084397
undo,24,23,0,1,1,14,"[0, 27, 6, 13, 12, 2, 9, 14]",8,0,[],38.70477255,12700,2390,1,0,8,1.8546041270084397
undo,25,26,0,0,0,0,[0],1,29,"[1, 2, 3, 4, 5, 6, 7, 8, 9, 10, 11, 12, 13, 14, 15, 16, 17, 18, 19, 20, 21, 22, 23, 24, 25, 26, 27, 28, 29]",300,182,-1,9,226,9,0.0
undo,25,26,0,0,0,21,"[0, 21]",2,25,"[2, 3, 4, 5, 6, 7, 8, 10, 11, 12, 13, 14, 15, 16, 17, 18, 19, 22, 23, 24, 25, 26, 27, 28, 29]",211.1349337,3552,3370,7,90,9,1.0
undo,25,26,0,0,0,13,"[0, 21, 13]",3,21,"[3, 4, 5, 6, 7, 8, 10, 11, 12, 14, 15, 16, 17, 18, 19, 22, 23, 24, 25, 26, 29]",188.9989901,4493,941,6,45,9,1.0103952279992225
undo,25,26,0,0,0,5,"[0, 21, 13, 5]",4,12,"[3, 4, 11, 14, 16, 17, 18, 22, 23, 25, 26, 29]",150.7106107,6298,1805,2,10,8,1.0086890649024711
undo,25,26,0,0,0,23,"[0, 21, 13, 5, 23]",5,8,"[3, 4, 11, 14, 16, 17, 22, 29]",118.0150452,7970,1672,2,7,8,1.3518621918690494
undo,25,26,0,0,0,16,"[0, 21, 13, 5, 23, 16]",6,4,"[4, 14, 17, 29]",64.77971862,9128,1158,2,3,8,2.1011863559657242
undo,25,26,0,0,0,29,"[0, 21, 13, 5, 23, 16, 29]",7,2,"[4, 17]",40.57228175,9991,863,2,0,8,2.123178325538451
undo,25,26,0,0,1,17,"[0, 21, 13, 5, 23, 16, 29, 17]",8,0,[],10.1584691,11397,1406,1,0,8,2.0398733817238592
undo,25,26,0,1,1,17,"[0, 21, 13, 5, 23, 16, 29, 17]",8,0,[],10.1584691,12833,1436,1,0,8,2.0398733817238592
undo,26,5,0,0,0,0,[0],1,29,"[1, 2, 3, 4, 5, 6, 7, 8, 9, 10, 11, 12, 13, 14, 15, 16, 17, 18, 19, 20, 21, 22, 23, 24, 25, 26, 27, 28, 29]",300,153,-1,5,139,9,0.0
undo,26,5,0,0,0,12,"[0, 12]",2,22,"[2, 4, 5, 6, 8, 9, 10, 13, 14, 15, 16, 17, 18, 19, 21, 22, 23, 24, 25, 26, 27, 28]",228.3062067,13739,13586,1,27,9,1.0
undo,26,5,0,0,0,25,"[0, 12, 25]",3,21,"[2, 4, 5, 6, 8, 9, 10, 13, 14, 15, 16, 17, 18, 19, 21, 22, 23, 24, 26, 27, 28]",200.5213187,15231,1492,1,20,9,1.584023303445617
undo,26,5,0,0,0,23,"[0, 12, 25, 23]",4,19,"[2, 4, 5, 6, 8, 9, 10, 13, 14, 15, 16, 17, 18, 19, 21, 22, 24, 26, 27]",182.0822298,16256,1025,1,14,9,2.3508446989254357
undo,26,5,0,0,0,24,"[0, 12, 25, 23, 24]",5,15,"[2, 4, 5, 6, 8, 9, 13, 14, 15, 17, 18, 19, 22, 26, 27]",158.995437,16916,660,1,12,9,1.9469752046288753
undo,26,5,0,0,0,17,"[0, 12, 25, 23, 24, 17]",6,7,"[4, 5, 6, 8, 15, 18, 19]",124.0097257,17812,896,1,8,9,1.6482276497563642
undo,26,5,0,0,0,5,"[0, 12, 25, 23, 24, 17, 5]",7,4,"[4, 6, 15, 18]",80.96323916,18821,1009,1,3,9,1.4654649104389412
undo,26,5,0,0,1,15,"[0, 12, 25, 23, 24, 17, 5, 15]",8,0,[],40.93824697,19865,1044,1,0,8,1.4660376450939663
undo,26,5,0,1,1,15,"[0, 12, 25, 23, 24, 17, 5, 15]",8,0,[],40.93824697,21352,1487,1,0,8,1.4660376450939663
undo,27,33,0,0,0,0,[0],1,23,"[1, 2, 5, 7, 8, 11, 12, 13, 14, 15, 16, 17, 18, 19, 20, 21, 23, 24, 25, 26, 27, 28, 29]",300,167,-1,5,108,9,0.0
undo,27,33,0,0,0,21,"[0, 21]",2,17,"[2, 5, 7, 8, 11, 13, 14, 16, 17, 18, 19, 20, 24, 26, 27, 28, 29]",174.4611614,3753,3586,21,129,8,1.0
undo,27,33,0,0,0,17,"[0, 21, 17]",3,12,"[2, 7, 11, 13, 14, 16, 18, 19, 20, 24, 26, 29]",135.8218032,4785,1032,3,35,8,1.0302064673538902
undo,27,33,0,0,0,13,"[0, 21, 17, 13]",4,10,"[2, 7, 11, 14, 16, 19, 20, 24, 26, 29]",113.0182947,5957,1172,3,18,8,1.2307555582916028
undo,27,33,0,0,0,19,"[0, 21, 17, 13, 19]",5,6,"[7, 14, 16, 24, 26, 29]",87.52319715,7437,1480,3,6,8,1.267959080158969
undo,27,33,0,0,0,7,"[0, 21, 17, 13, 19, 7]",6,3,"[14, 24, 26]",41.90521823,9510,2073,2,1,8,1.2111387775864462
undo,27,33,0,0,0,14,"[0, 21, 17, 13, 19, 7, 14]",7,1,[26],27.03914949,10363,853,1,0,8,1.2582047812090849
undo,27,33,0,0,1,26,"[0, 21, 17, 13, 19, 7, 14, 26]",8,0,[],14.39003885,11274,911,1,0,8,1.2624145644521343
undo,27,33,0,1,1,26,"[0, 21, 17, 13, 19, 7, 14, 26]",8,0,[],14.39003885,13300,2026,1,0,8,1.2624145644521343
undo,28,29,0,0,0,0,[0],1,29,"[1, 2, 3, 4, 5, 6, 7, 8, 9, 10, 11, 12, 13, 14, 15, 16, 17, 18, 19, 20, 21, 22, 23, 24, 25, 26, 27, 28, 29]",300,196,-1,1,78,9,0.0
undo,28,29,0,0,0,25,"[0, 25]",2,18,"[1, 2, 4, 5, 6, 7, 9, 10, 12, 13, 14, 15, 16, 17, 22, 26, 27, 28]",223.3449284,2544,2348,13,101,8,1.0
undo,28,29,0,0,0,1,"[0, 25, 1]",3,15,"[4, 5, 6, 7, 9, 10, 12, 13, 14, 15, 17, 22, 26, 27, 28]",187.8343666,3426,882,11,61,8,1.308415527582314
undo,28,29,0,0,0,14,"[0, 25, 1, 14]",4,12,"[4, 5, 6, 7, 9, 12, 13, 17, 22, 26, 27, 28]",144.8809034,4600,1174,9,32,8,1.7138400796467363
undo,28,29,0,0,0,13,"[0, 25, 1, 14, 13]",5,10,"[4, 5, 6, 7, 9, 12, 17, 22, 27, 28]",126.853147,5146,546,9,15,8,1.5995815549042065
undo,28,29,0,0,0,5,"[0, 25, 1, 14, 13, 5]",6,7,"[4, 7, 9, 12, 22, 27, 28]",101.1432268,5894,748,7,3,8,1.6003565067425858
undo,28,29,0,0,0,7,"[0, 25, 1, 14, 13, 5, 7]",7,2,"[9, 12]",37.61370608,8507,2613,2,0,8,1.595532598516335
undo,28,29,0,0,1,12,"[0, 25, 1, 14, 13, 5, 7, 12]",8,0,[],24.01223557,9449,942,1,0,8,1.7877240064141662
undo,28,29,0,1,1,12,"[0, 25, 1, 14, 13, 5, 7, 12]",8,0,[],24.01223557,10532,1083,1,0,8,1.7877240064141662
undo,29,27,0,0,0,0,[0],1,26,"[1, 3, 5, 6, 7, 8, 9, 10, 11, 12, 13, 14, 15, 16, 17, 18, 19, 21, 22, 23, 24, 25, 26, 27, 28, 29]",300,215,-1,13,578,11,0.0
undo,29,27,0,0,0,15,"[0, 15]",2,24,"[1, 3, 5, 6, 7, 8, 9, 10, 11, 12, 13, 14, 16, 17, 18, 19, 21, 22, 23, 24, 25, 26, 27, 29]",263.7508621,5274,5059,6,219,11,1.0
undo,29,27,0,0,0,24,"[0, 15, 24]",3,20,"[1, 5, 6, 7, 8, 9, 10, 12, 13, 14, 16, 17, 18, 19, 21, 23, 25, 26, 27, 29]",246.5462115,6075,801,6,130,11,1.130933077698322
undo,29,27,0,0,0,17,"[0, 15, 24, 17]",4,15,"[1, 6, 8, 10, 12, 13, 14, 16, 18, 19, 23, 25, 26, 27, 29]",229.9932662,7171,1096,4,60,11,1.1285538435963374
undo,29,27,0,0,0,12,"[0, 15, 24, 17, 12]",5,14,"[1, 6, 8, 10, 13, 14, 16, 18, 19, 23, 25, 26, 27, 29]",218.8129263,7843,672,2,32,11,1.2561880288755216
undo,29,27,0,0,0,10,"[0, 15, 24, 17, 12, 10]",6,11,"[1, 8, 13, 14, 18, 19, 23, 25, 26, 27, 29]",207.7675653,8538,695,2,28,11,1.2228289337766665
undo,29,27,0,0,0,13,"[0, 15, 24, 17, 12, 10, 13]",7,9,"[1, 8, 14, 18, 19, 23, 26, 27, 29]",167.9178476,10022,1484,2,18,11,1.3421291994761178
undo,29,27,0,0,0,19,"[0, 15, 24, 17, 12, 10, 13, 19]",8,5,"[1, 8, 14, 23, 29]",131.6825057,11641,1619,2,6,11,1.294749956153846
undo,29,27,0,0,0,8,"[0, 15, 24, 17, 12, 10, 13, 19, 8]",9,3,"[14, 23, 29]",116.816437,13073,1432,2,1,11,1.3554286578836865
undo,29,27,0,0,0,29,"[0, 15, 24, 17, 12, 10, 13, 19, 8, 29]",10,1,[14],57.61339652,14797,1724,1,0,11,1.248354519573802
undo,29,27,0,0,1,14,"[0, 15, 24, 17, 12, 10, 13, 19, 8, 29, 14]",11,0,[],13.31892734,16278,1481,1,0,11,1.562811097555156
undo,29,27,0,1,1,14,"[0, 15, 24, 17, 12, 10, 13, 19, 8, 29, 14]",11,0,[],13.31892734,17920,1642,1,0,11,1.562811097555156
undo,30,39,0,0,0,0,[0],1,28,"[1, 2, 3, 4, 5, 6, 7, 9, 10, 11, 12, 13, 14, 15, 16, 17, 18, 19, 20, 21, 22, 23, 24, 25, 26, 27, 28, 29]",300,171,-1,1,30,10,0.0
undo,30,39,0,0,0,29,"[0, 29]",2,26,"[1, 2, 3, 4, 5, 6, 7, 9, 10, 12, 13, 14, 15, 16, 17, 18, 19, 20, 21, 22, 23, 24, 25, 26, 27, 28]",243.0614366,5002,4831,8,104,9,1.0
undo,30,39,0,0,0,12,"[0, 29, 12]",3,18,"[1, 2, 4, 5, 7, 9, 10, 13, 14, 15, 16, 18, 19, 22, 23, 24, 26, 28]",182.5221931,5836,834,5,54,9,1.0026200331524904
undo,30,39,0,0,0,10,"[0, 29, 12, 10]",4,16,"[1, 2, 4, 5, 7, 9, 13, 14, 15, 16, 18, 19, 22, 23, 24, 26]",147.0116313,8485,2649,5,34,9,1.2874817019928908
undo,30,39,0,0,0,7,"[0, 29, 12, 10, 7]",5,10,"[1, 2, 5, 13, 16, 18, 19, 22, 24, 26]",113.5900814,9502,1017,4,12,9,1.2250826263866774
undo,30,39,0,0,0,26,"[0, 29, 12, 10, 7, 26]",6,5,"[1, 16, 18, 19, 22]",94.90853971,10270,768,3,4,9,1.2697275353190085
undo,30,39,0,0,0,22,"[0, 29, 12, 10, 7, 26, 22]",7,2,"[16, 19]",77.18849457,11139,869,2,0,9,1.438961743955176
undo,30,39,0,0,0,16,"[0, 29, 12, 10, 7, 26, 22, 16]",8,1,[19],42.18849457,12486,1347,1,0,9,1.3580882130477205
undo,30,39,0,0,1,19,"[0, 29, 12, 10, 7, 26, 22, 16, 19]",9,0,[],24.72424537,14122,1636,1,0,9,1.3646589157842668
undo,30,39,0,1,1,19,"[0, 29, 12, 10, 7, 26, 22, 16, 19]",9,0,[],24.72424537,15300,1178,1,0,9,1.3646589157842668
undo,31,40,0,0,0,0,[0],1,29,"[1, 2, 3, 4, 5, 6, 7, 8, 9, 10, 11, 12, 13, 14, 15, 16, 17, 18, 19, 20, 21, 22, 23, 24, 25, 26, 27, 28, 29]",300,198,-1,8,191,9,0.0
undo,31,40,0,0,0,1,"[0, 1]",2,18,"[2, 5, 6, 7, 8, 9, 10, 11, 13, 15, 17, 18, 19, 21, 22, 23, 27, 29]",247.8463808,2842,2644,4,80,9,1.0
undo,31,40,0,0,0,6,"[0, 1, 6]",3,17,"[2, 5, 7, 8, 9, 10, 11, 13, 15, 17, 18, 19, 21, 22, 23, 27, 29]",227.7466295,4470,1628,4,74,9,1.0459427008232034
undo,31,40,0,0,0,21,"[0, 1, 6, 21]",4,8,"[2, 5, 9, 17, 18, 19, 22, 23]",175.7754837,5837,1367,4,25,9,1.0308822257404064
undo,31,40,0,0,0,9,"[0, 1, 6, 21, 9]",5,6,"[2, 5, 18, 19, 22, 23]",130.0699041,6807,970,4,12,9,1.377861912961129
undo,31,40,0,0,0,18,"[0, 1, 6, 21, 9, 18]",6,5,"[2, 5, 19, 22, 23]",113.5169588,7488,681,4,4,9,1.5742712168661408
undo,31,40,0,0,0,5,"[0, 1, 6, 21, 9, 18, 5]",7,3,"[19, 22, 23]",81.94165198,10349,2861,2,1,9,1.7730665063055515
undo,31,40,0,0,0,23,"[0, 1, 6, 21, 9, 18, 5, 23]",8,1,[19],53.63970859,11710,1361,1,0,9,2.597442759912231
undo,31,40,0,0,1,19,"[0, 1, 6, 21, 9, 18, 5, 23, 19]",9,0,[],21.68661797,12806,1096,1,0,9,2.7128328554069565
undo,31,40,0,1,1,19,"[0, 1, 6, 21, 9, 18, 5, 23, 19]",9,0,[],21.68661797,13919,1113,1,0,9,2.7128328554069565
undo,32,2,0,0,0,0,[0],1,23,"[1, 2, 4, 5, 6, 7, 8, 9, 12, 13, 15, 16, 17, 18, 19, 20, 22, 23, 25, 26, 27, 28, 29]",300,175,-1,70,620,10,0.0
undo,32,2,0,0,0,19,"[0, 19]",2,22,"[1, 2, 4, 5, 6, 7, 8, 9, 12, 13, 15, 16, 17, 18, 20, 22, 23, 25, 26, 27, 28, 29]",210.306076,4441,4266,67,431,10,1.0
undo,32,2,0,0,0,12,"[0, 19, 12]",3,17,"[1, 4, 5, 6, 7, 13, 15, 16, 17, 18, 20, 22, 25, 26, 27, 28, 29]",174.2921898,5270,829,66,298,10,1.1107635036313153
undo,32,2,0,0,0,5,"[0, 19, 12, 5]",4,11,"[1, 6, 7, 13, 15, 16, 18, 22, 25, 26, 29]",144.7625437,7439,2169,38,136,10,1.0968174771581647
undo,32,2,0,0,0,22,"[0, 19, 12, 5, 22]",5,8,"[1, 6, 7, 13, 15, 18, 26, 29]",131.9562952,8224,785,20,63,10,1.0889910507461968
undo,32,2,0,0,0,13,"[0, 19, 12, 5, 22, 13]",6,7,"[1, 6, 7, 15, 18, 26, 29]",117.0902265,8924,700,19,20,10,1.236526217328057
undo,32,2,0,0,0,18,"[0, 19, 12, 5, 22, 13, 18]",7,4,"[7, 15, 26, 29]",81.91921567,12535,3611,10,3,10,1.2128708213409936
undo,32,2,0,0,0,7,"[0, 19, 12, 5, 22, 13, 18, 7]",8,3,"[15, 26, 29]",71.62358553,13554,1019,5,0,10,1.2019811287894737
undo,32,2,0,0,0,26,"[0, 19, 12, 5, 22, 13, 18, 7, 26]",9,2,"[15, 29]",48.82007703,14858,1304,2,0,10,1.1883593342191134
undo,32,2,0,0,1,15,"[0, 19, 12, 5, 22, 13, 18, 7, 26, 15]",10,0,[],24.61264015,15814,956,1,0,10,1.4619750353663825
undo,32,2,0,1,1,15,"[0, 19, 12, 5, 22, 13, 18, 7, 26, 15]",10,0,[],24.61264015,18451,2637,1,0,10,1.4619750353663825
undo,33,19,0,0,0,0,[0],1,29,"[1, 2, 3, 4, 5, 6, 7, 8, 9, 10, 11, 12, 13, 14, 15, 16, 17, 18, 19, 20, 21, 22, 23, 24, 25, 26, 27, 28, 29]",300,177,-1,12,149,8,0.0
undo,33,19,0,0,0,29,"[0, 29]",2,28,"[1, 2, 3, 4, 5, 6, 7, 8, 9, 10, 11, 12, 13, 14, 15, 16, 17, 18, 19, 20, 21, 22, 23, 24, 25, 26, 27, 28]",265.0715016,11016,10839,12,120,8,1.0
undo,33,19,0,0,0,9,"[0, 29, 9]",3,17,"[1, 4, 5, 6, 7, 10, 11, 12, 13, 14, 19, 20, 21, 22, 24, 27, 28]",181.7108394,12449,1433,11,65,8,1.0375842971861238
undo,33,19,0,0,0,6,"[0, 29, 9, 6]",4,12,"[4, 7, 10, 11, 13, 14, 20, 21, 22, 24, 27, 28]",140.2741407,13238,789,11,34,8,1.0389786364356892
undo,33,19,0,0,0,28,"[0, 29, 9, 6, 28]",5,5,"[4, 11, 14, 22, 27]",89.18598161,15572,2334,2,4,8,1.2864082671854424
undo,33,19,0,0,0,4,"[0, 29, 9, 6, 28, 4]",6,4,"[11, 14, 22, 27]",78.00564173,16659,1087,2,2,8,1.3470045407445053
undo,33,19,0,0,0,14,"[0, 29, 9, 6, 28, 4, 14]",7,1,[11],27.99564273,17934,1275,1,0,8,1.3006971582050546
undo,33,19,0,0,1,11,"[0, 29, 9, 6, 28, 4, 14, 11]",8,0,[],17.1789889,19274,1340,1,0,8,1.289914895833058
undo,33,19,0,1,1,11,"[0, 29, 9, 6, 28, 4, 14, 11]",8,0,[],17.1789889,20871,1597,1,0,8,1.289914895833058
undo,34,8,0,0,0,0,[0],1,29,"[1, 2, 3, 4, 5, 6, 7, 8, 9, 10, 11, 12, 13, 14, 15, 16, 17, 18, 19, 20, 21, 22, 23, 24, 25, 26, 27, 28, 29]",300,163,-1,10,149,9,0.0
undo,34,8,0,0,0,5,"[0, 5]",2,28,"[1, 2, 3, 4, 6, 7, 8, 9, 10, 11, 12, 13, 14, 15, 16, 17, 18, 19, 20, 21, 22, 23, 24, 25, 26, 27, 28, 29]",254.5137383,2336,2173,10,100,9,1.0
undo,34,8,0,0,0,14,"[0, 5, 14]",3,20,"[1, 2, 3, 4, 6, 7, 11, 15, 16, 17, 18, 19, 20, 21, 22, 23, 24, 25, 28, 29]",214.5512559,3168,832,4,36,9,1.0001019035932595
undo,34,8,0,0,0,17,"[0, 5, 14, 17]",4,15,"[1, 4, 6, 7, 11, 15, 16, 18, 19, 20, 22, 23, 24, 25, 28]",177.5377449,4134,966,4,16,9,1.121197267659591
undo,34,8,0,0,0,11,"[0, 5, 14, 17, 11]",5,11,"[1, 4, 15, 16, 18, 19, 22, 23, 24, 25, 28]",152.3583883,4761,627,4,8,9,1.1277254166016362
undo,34,8,0,0,0,24,"[0, 5, 14, 17, 11, 24]",6,3,"[15, 16, 28]",115.1428001,5606,845,2,2,9,1.1227411011978805
undo,34,8,0,0,0,15,"[0, 5, 14, 17, 11, 24, 15]",7,2,"[16, 28]",98.37974552,6221,615,2,0,9,1.1956385406066814
undo,34,8,0,0,0,16,"[0, 5, 14, 17, 11, 24, 15, 16]",8,1,[28],47.30137436,7321,1100,1,0,9,1.36482239111247
undo,34,8,0,0,1,28,"[0, 5, 14, 17, 11, 24, 15, 16, 28]",9,0,[],24.94069458,8515,1194,1,0,9,1.632953105226947
undo,34,8,0,1,1,28,"[0, 5, 14, 17, 11, 24, 15, 16, 28]",9,0,[],24.94069458,9966,1451,1,0,9,1.632953105226947
undo,35,35,0,0,0,0,[0],1,29,"[1, 2, 3, 4, 5, 6, 7, 8, 9, 10, 11, 12, 13, 14, 15, 16, 17, 18, 19, 20, 21, 22, 23, 24, 25, 26, 27, 28, 29]",300,164,-1,5,236,11,0.0
undo,35,35,0,0,0,24,"[0, 24]",2,27,"[1, 2, 4, 5, 6, 7, 8, 9, 10, 11, 12, 13, 14, 15, 16, 17, 18, 19, 20, 21, 22, 23, 25, 26, 27, 28, 29]",268.9838752,3692,3528,49,512,10,1.0
undo,35,35,0,0,0,17,"[0, 24, 17]",3,26,"[1, 2, 4, 5, 6, 7, 8, 9, 10, 11, 12, 13, 14, 15, 16, 18, 19, 20, 21, 22, 23, 25, 26, 27, 28, 29]",257.2791753,7565,3873,33,238,10,1.0771477201815276
undo,35,35,0,0,0,1,"[0, 24, 17, 1]",4,25,"[2, 4, 5, 6, 7, 8, 9, 10, 11, 12, 13, 14, 15, 16, 18, 19, 20, 21, 22, 23, 25, 26, 27, 28, 29]",241.4677869,8422,857,26,151,10,1.2244804141479215
undo,35,35,0,0,0,15,"[0, 24, 17, 1, 15]",5,23,"[2, 4, 5, 6, 7, 8, 9, 10, 11, 12, 14, 16, 18, 19, 20, 21, 22, 23, 25, 26, 27, 28, 29]",218.6204676,9714,1292,26,78,10,1.4642196672428094
undo,35,35,0,0,0,23,"[0, 24, 17, 1, 15, 23]",6,11,"[4, 5, 6, 9, 18, 19, 25, 26, 27, 28, 29]",158.1804147,11331,1617,15,12,10,1.3338903684702363
undo,35,35,0,0,0,6,"[0, 24, 17, 1, 15, 23, 6]",7,4,"[5, 9, 18, 25]",112.5295658,12261,930,4,2,10,1.2397059724630664
undo,35,35,0,0,0,25,"[0, 24, 17, 1, 15, 23, 6, 25]",8,2,"[9, 18]",88.50874155,13022,761,2,0,10,1.305974427386027
undo,35,35,0,0,0,18,"[0, 24, 17, 1, 15, 23, 6, 25, 18]",9,1,[9],54.67089291,14662,1640,1,0,10,1.9072277988119046
undo,35,35,0,0,1,9,"[0, 24, 17, 1, 15, 23, 6, 25, 18, 9]",10,0,[],34.64590852,16174,1512,1,0,10,2.3604988633102257
undo,35,35,0,1,1,9,"[0, 24, 17, 1, 15, 23, 6, 25, 18, 9]",10,0,[],34.64590852,18085,1911,1,0,10,2.3604988633102257
undo,36,6,0,0,0,0,[0],1,29,"[1, 2, 3, 4, 5, 6, 7, 8, 9, 10, 11, 12, 13, 14, 15, 16, 17, 18, 19, 20, 21, 22, 23, 24, 25, 26, 27, 28, 29]",300,157,-1,180,4304,10,0.0
undo,36,6,0,0,0,26,"[0, 26]",2,25,"[1, 2, 3, 4, 5, 6, 7, 8, 9, 10, 11, 12, 13, 14, 15, 16, 17, 18, 20, 21, 22, 23, 24, 27, 29]",250.2606795,2955,2798,45,776,10,1.0
undo,36,6,0,0,0,2,"[0, 26, 2]",3,20,"[1, 3, 4, 5, 6, 7, 8, 9, 10, 13, 14, 16, 17, 18, 21, 22, 23, 24, 27, 29]",220.4278118,6161,3206,20,184,10,1.003152463832065
undo,36,6,0,0,0,7,"[0, 26, 2, 7]",4,18,"[1, 3, 4, 6, 8, 9, 10, 13, 14, 16, 17, 18, 21, 22, 23, 24, 27, 29]",179.3182022,7457,1296,20,157,10,2.5131135963314413
undo,36,6,0,0,0,3,"[0, 26, 2, 7, 3]",5,13,"[1, 6, 8, 10, 13, 16, 17, 18, 21, 22, 23, 24, 29]",143.1795802,8270,813,18,67,10,4.677560963942129
undo,36,6,0,0,0,16,"[0, 26, 2, 7, 3, 16]",6,9,"[6, 10, 13, 17, 18, 22, 23, 24, 29]",96.94106809,11136,2866,3,11,10,2.8132170172709676
undo,36,6,0,0,0,18,"[0, 26, 2, 7, 3, 16, 18]",7,4,"[10, 17, 24, 29]",73.59583303,12860,1724,2,4,10,3.7175429872148276
undo,36,6,0,0,0,17,"[0, 26, 2, 7, 3, 16, 18, 17]",8,2,"[10, 24]",59.66744475,13828,968,2,0,10,3.4052918038285505
undo,36,6,0,0,0,10,"[0, 26, 2, 7, 3, 16, 18, 17, 10]",9,1,[24],39.94436183,14693,865,1,0,10,3.0832542837647017
undo,36,6,0,0,1,24,"[0, 26, 2, 7, 3, 16, 18, 17, 10, 24]",10,0,[],26.52795396,17642,2949,1,0,10,2.8107983495160362
undo,36,6,0,1,1,24,"[0, 26, 2, 7, 3, 16, 18, 17, 10, 24]",10,0,[],26.52795396,18935,1293,1,0,10,2.8107983495160362
undo,37,18,0,0,0,0,[0],1,28,"[1, 2, 3, 4, 5, 6, 7, 8, 9, 10, 11, 12, 13, 14, 16, 17, 18, 19, 20, 21, 22, 23, 24, 25, 26, 27, 28, 29]",300,164,-1,3,136,10,0.0
undo,37,18,0,0,0,28,"[0, 28]",2,16,"[1, 3, 5, 7, 8, 9, 12, 13, 14, 16, 20, 23, 24, 25, 26, 27]",236.4311397,5915,5751,2,19,10,1.0
undo,37,18,0,0,0,7,"[0, 28, 7]",3,15,"[1, 3, 5, 8, 9, 12, 13, 14, 16, 20, 23, 24, 25, 26, 27]",214.4084242,7679,1764,2,17,10,1.4345180696367563
undo,37,18,0,0,0,25,"[0, 28, 7, 25]",4,13,"[1, 3, 5, 8, 9, 12, 13, 14, 16, 20, 23, 26, 27]",186.6055466,8773,1094,2,15,10,1.8896451241781882
undo,37,18,0,0,0,8,"[0, 28, 7, 25, 8]",5,10,"[3, 5, 9, 12, 13, 14, 16, 23, 26, 27]",149.551532,10138,1365,2,10,10,1.590467437592877
undo,37,18,0,0,0,13,"[0, 28, 7, 25, 8, 13]",6,9,"[3, 5, 9, 12, 14, 16, 23, 26, 27]",128.4565089,11181,1043,2,5,10,1.8248274983549797
undo,37,18,0,0,0,14,"[0, 28, 7, 25, 8, 13, 14]",7,7,"[3, 5, 9, 12, 23, 26, 27]",109.4828429,12320,1139,2,3,10,1.6993534956692746
undo,37,18,0,0,0,3,"[0, 28, 7, 25, 8, 13, 14, 3]",8,3,"[5, 12, 27]",79.39962499,13466,1146,2,1,10,1.802637206541468
undo,37,18,0,0,0,5,"[0, 28, 7, 25, 8, 13, 14, 3, 5]",9,1,[12],21.21887216,15563,2097,1,0,10,1.559774889743805
undo,37,18,0,0,1,12,"[0, 28, 7, 25, 8, 13, 14, 3, 5, 12]",10,0,[],9.817117911,16861,1298,1,0,10,1.563993037384447
undo,37,18,0,1,1,12,"[0, 28, 7, 25, 8, 13, 14, 3, 5, 12]",10,0,[],9.817117911,17984,1123,1,0,10,1.563993037384447
undo,38,38,0,0,0,0,[0],1,29,"[1, 2, 3, 4, 5, 6, 7, 8, 9, 10, 11, 12, 13, 14, 15, 16, 17, 18, 19, 20, 21, 22, 23, 24, 25, 26, 27, 28, 29]",300,167,-1,33,506,9,0.0
undo,38,38,0,0,0,19,"[0, 19]",2,23,"[3, 4, 5, 6, 7, 8, 9, 11, 13, 14, 15, 16, 17, 18, 20, 22, 23, 24, 25, 26, 27, 28, 29]",219.5015528,3585,3418,6,61,9,1.0
undo,38,38,0,0,0,17,"[0, 19, 17]",3,21,"[3, 4, 5, 6, 7, 9, 11, 13, 14, 15, 16, 18, 20, 22, 23, 24, 25, 26, 27, 28, 29]",198.1239945,4322,737,6,53,9,1.571793785769489
undo,38,38,0,0,0,20,"[0, 19, 17, 20]",4,17,"[3, 4, 5, 6, 7, 11, 13, 14, 15, 16, 18, 22, 24, 25, 26, 27, 28]",174.3542658,5211,889,6,44,9,2.333182710277297
undo,38,38,0,0,0,4,"[0, 19, 17, 20, 4]",5,10,"[5, 11, 13, 14, 15, 16, 24, 26, 27, 28]",140.4131403,7892,2681,5,22,9,2.276099229646013
undo,38,38,0,0,0,15,"[0, 19, 17, 20, 4, 15]",6,8,"[5, 11, 13, 14, 16, 24, 26, 28]",114.4131403,8889,997,5,6,9,2.5292671156176403
undo,38,38,0,0,0,11,"[0, 19, 17, 20, 4, 15, 11]",7,2,"[16, 28]",78.01259089,10221,1332,2,0,9,2.778100109749787
undo,38,38,0,0,0,28,"[0, 19, 17, 20, 4, 15, 11, 28]",8,1,[16],50.99407872,12930,2709,1,0,9,2.3316428595723258
undo,38,38,0,0,1,16,"[0, 19, 17, 20, 4, 15, 11, 28, 16]",9,0,[],21.99407872,13980,1050,1,0,9,2.5408012360364265
undo,38,38,0,1,1,16,"[0, 19, 17, 20, 4, 15, 11, 28, 16]",9,0,[],21.99407872,15151,1171,1,0,9,2.5408012360364265
undo,39,7,0,0,0,0,[0],1,29,"[1, 2, 3, 4, 5, 6, 7, 8, 9, 10, 11, 12, 13, 14, 15, 16, 17, 18, 19, 20, 21, 22, 23, 24, 25, 26, 27, 28, 29]",300,164,-1,3,79,9,0.0
undo,39,7,0,0,0,25,"[0, 25]",2,20,"[2, 3, 4, 5, 6, 7, 10, 13, 14, 15, 16, 18, 19, 20, 21, 22, 23, 24, 27, 28]",181.5939191,3675,3511,5,33,8,1.0
undo,39,7,0,0,0,4,"[0, 25, 4]",3,11,"[2, 6, 7, 13, 15, 16, 18, 19, 20, 21, 23]",156.8552853,5191,1516,2,14,8,1.0193465608331511
undo,39,7,0,0,0,20,"[0, 25, 4, 20]",4,8,"[2, 6, 7, 13, 15, 16, 18, 19]",137.2084026,5827,636,1,9,8,1.085904909082323
undo,39,7,0,0,0,18,"[0, 25, 4, 20, 18]",5,7,"[2, 6, 7, 13, 15, 16, 19]",124.4021541,7340,1513,1,5,8,1.2264883846453758
undo,39,7,0,0,0,7,"[0, 25, 4, 20, 18, 7]",6,2,"[2, 19]",83.17109789,8432,1092,1,1,8,1.185264473968278
undo,39,7,0,0,0,19,"[0, 25, 4, 20, 18, 7, 19]",7,1,[2],53.76021555,9341,909,1,0,8,1.3016904288278204
undo,39,7,0,0,1,2,"[0, 25, 4, 20, 18, 7, 19, 2]",8,0,[],23.61058868,10181,840,1,0,8,1.3168868000947171
undo,39,7,0,1,1,2,"[0, 25, 4, 20, 18, 7, 19, 2]",8,0,[],23.61058868,14000,3819,1,0,8,1.3168868000947171
undo,40,1,0,0,0,0,[0],1,26,"[1, 2, 4, 5, 7, 8, 9, 10, 11, 12, 13, 14, 15, 16, 17, 18, 19, 20, 21, 22, 23, 24, 25, 26, 28, 29]",300,149,-1,6,74,7,0.0
undo,40,1,0,0,0,14,"[0, 14]",2,19,"[1, 4, 5, 8, 9, 13, 15, 17, 18, 19, 20, 21, 22, 23, 24, 25, 26, 28, 29]",200.1901808,3569,3420,5,42,7,1.0
undo,40,1,0,0,0,17,"[0, 14, 17]",3,15,"[1, 4, 5, 8, 9, 13, 15, 18, 19, 20, 22, 23, 25, 28, 29]",147.8356204,4457,888,5,27,7,1.0028844724416826
undo,40,1,0,0,0,1,"[0, 14, 17, 1]",4,12,"[4, 5, 8, 9, 15, 18, 20, 22, 23, 25, 28, 29]",123.4840291,5363,906,5,15,7,1.0264985578353567
undo,40,1,0,0,0,28,"[0, 14, 17, 1, 28]",5,5,"[9, 15, 22, 23, 29]",88.59850198,6135,772,5,3,7,1.0339861575999345
undo,40,1,0,0,0,23,"[0, 14, 17, 1, 28, 23]",6,2,"[15, 22]",51.70676849,6994,859,2,0,7,1.0327458250705703
undo,40,1,0,0,1,15,"[0, 14, 17, 1, 28, 23, 15]",7,0,[],20.81987807,8187,1193,1,0,7,1.1948681641401226
undo,40,1,1,0,0,23,"[0, 14, 17, 1, 28, 23]",6,2,"[15, 22]",51.70676849,9866,1679,2,0,7,1.0327458250705703
undo,40,1,1,0,0,28,"[0, 14, 17, 1, 28]",5,5,"[9, 15, 22, 23, 29]",88.59850198,10166,300,5,3,7,1.0339861575999345
undo,40,1,1,0,0,1,"[0, 14, 17, 1]",4,12,"[4, 5, 8, 9, 15, 18, 20, 22, 23, 25, 28, 29]",123.4840291,10500,334,5,15,7,1.0264985578353567
undo,40,1,1,0,0,17,"[0, 14, 17]",3,15,"[1, 4, 5, 8, 9, 13, 15, 18, 19, 20, 22, 23, 25, 28, 29]",147.8356204,10900,400,5,27,7,1.0028844724416826
undo,40,1,1,0,0,14,"[0, 14]",2,19,"[1, 4, 5, 8, 9, 13, 15, 17, 18, 19, 20, 21, 22, 23, 24, 25, 26, 28, 29]",200.1901808,11217,317,5,42,7,1.0
undo,40,1,1,0,0,0,[0],1,26,"[1, 2, 4, 5, 7, 8, 9, 10, 11, 12, 13, 14, 15, 16, 17, 18, 19, 20, 21, 22, 23, 24, 25, 26, 28, 29]",300,12200,983,6,74,7,0.0
undo,40,1,0,0,0,8,"[0, 8]",2,23,"[1, 4, 5, 7, 9, 10, 11, 12, 13, 14, 15, 16, 17, 18, 19, 20, 21, 23, 24, 25, 26, 28, 29]",202,15082,2882,1,16,7,1.0
undo,40,1,0,0,0,20,"[0, 8, 20]",3,12,"[1, 4, 5, 11, 13, 14, 15, 17, 18, 19, 28, 29]",125.9408125,16224,1142,1,7,7,1.02364736730791
undo,40,1,0,0,0,5,"[0, 8, 20, 5]",4,7,"[1, 4, 11, 13, 17, 18, 29]",104.469902,17700,1476,1,3,7,1.0439599203945713
undo,40,1,0,0,0,18,"[0, 8, 20, 5, 18]",5,2,"[4, 29]",81.64447755,18557,857,1,1,7,1.0840407791793756
undo,40,1,0,0,0,4,"[0, 8, 20, 5, 18, 4]",6,1,[29],42.69579336,19608,1051,1,0,7,1.0902329133216275
undo,40,1,0,0,1,29,"[0, 8, 20, 5, 18, 4, 29]",7,0,[],6.640280603,23157,3549,1,0,7,1.2859729622882756
undo,40,1,0,1,1,29,"[0, 8, 20, 5, 18, 4, 29]",7,0,[],6.640280603,26920,3763,1,0,7,1.2859729622882756
undo,41,13,0,0,0,0,[0],1,29,"[1, 2, 3, 4, 5, 6, 7, 8, 9, 10, 11, 12, 13, 14, 15, 16, 17, 18, 19, 20, 21, 22, 23, 24, 25, 26, 27, 28, 29]",300,166,-1,60,2676,11,0.0
undo,41,13,0,0,0,24,"[0, 24]",2,28,"[1, 2, 3, 4, 5, 6, 7, 8, 9, 10, 11, 12, 13, 14, 15, 16, 17, 18, 19, 20, 21, 22, 23, 25, 26, 27, 28, 29]",288.8196601,5494,5328,16,1444,11,1.0
undo,41,13,0,0,0,28,"[0, 24, 28]",3,23,"[1, 2, 3, 4, 6, 7, 8, 9, 10, 11, 12, 13, 15, 16, 17, 19, 20, 21, 22, 23, 26, 27, 29]",222.5324064,6450,956,8,243,11,1.0513810491680837
undo,41,13,0,0,0,2,"[0, 24, 28, 2]",4,19,"[1, 3, 4, 6, 7, 9, 11, 12, 13, 15, 16, 17, 19, 20, 21, 23, 26, 27, 29]",184.889346,7411,961,7,110,11,1.050374132001543
undo,41,13,0,0,0,29,"[0, 24, 28, 2, 29]",5,18,"[1, 3, 4, 6, 7, 9, 11, 12, 13, 15, 16, 17, 19, 20, 21, 23, 26, 27]",173.1846461,8051,640,7,85,11,1.1393409619120594
undo,41,13,0,0,0,7,"[0, 24, 28, 2, 29, 7]",6,17,"[1, 3, 4, 6, 9, 11, 12, 13, 15, 16, 17, 19, 20, 21, 23, 26, 27]",157.9203086,9579,1528,5,45,11,1.349777315111579
undo,41,13,0,0,0,26,"[0, 24, 28, 2, 29, 7, 26]",7,16,"[1, 3, 4, 6, 9, 11, 12, 13, 15, 16, 17, 19, 20, 21, 23, 27]",147.480002,10073,494,5,25,11,1.5942082773824946
undo,41,13,0,0,0,6,"[0, 24, 28, 2, 29, 7, 26, 6]",8,12,"[1, 3, 4, 11, 13, 15, 16, 17, 19, 20, 23, 27]",127.3802508,13394,3321,4,12,11,1.5898347940840756
undo,41,13,0,0,0,11,"[0, 24, 28, 2, 29, 7, 26, 6, 11]",9,6,"[1, 13, 15, 16, 17, 23]",108.2752776,14291,897,3,4,11,1.5029953945561012
undo,41,13,0,0,0,17,"[0, 24, 28, 2, 29, 7, 26, 6, 11, 17]",10,1,[13],36.68617231,16557,2266,1,0,11,1.324993060397683
undo,41,13,0,0,1,13,"[0, 24, 28, 2, 29, 7, 26, 6, 11, 17, 13]",11,0,[],3.309533775,17507,950,1,0,11,1.6349870606446535
undo,41,13,0,1,1,13,"[0, 24, 28, 2, 29, 7, 26, 6, 11, 17, 13]",11,0,[],3.309533775,18737,1230,1,0,11,1.6349870606446535
undo,42,45,0,0,0,0,[0],1,24,"[1, 2, 3, 4, 5, 6, 7, 9, 10, 11, 12, 14, 15, 16, 17, 19, 20, 21, 22, 23, 24, 25, 27, 29]",300,168,-1,6,248,10,0.0
undo,42,45,0,0,0,17,"[0, 17]",2,22,"[1, 2, 3, 4, 5, 6, 7, 9, 10, 11, 12, 14, 15, 16, 19, 20, 21, 22, 23, 24, 25, 29]",235.867325,2351,2183,1,34,10,1.0
undo,42,45,0,0,0,24,"[0, 17, 24]",3,20,"[1, 2, 3, 4, 5, 6, 7, 9, 10, 11, 12, 14, 15, 16, 19, 20, 21, 22, 23, 29]",193.8078433,3193,842,1,33,10,1.0309432256229287
undo,42,45,0,0,0,7,"[0, 17, 24, 7]",4,18,"[1, 2, 3, 4, 5, 6, 9, 10, 12, 14, 15, 16, 19, 20, 21, 22, 23, 29]",159.3985423,4618,1425,1,32,10,1.059763151913087
undo,42,45,0,0,0,2,"[0, 17, 24, 7, 2]",5,12,"[3, 4, 6, 10, 12, 14, 16, 19, 20, 22, 23, 29]",121.3853866,6770,2152,1,23,10,1.0656581932115423
undo,42,45,0,0,0,3,"[0, 17, 24, 7, 2, 3]",6,8,"[6, 10, 12, 14, 16, 20, 22, 29]",96.06740884,8455,1685,1,13,10,1.1368250049574795
undo,42,45,0,0,0,29,"[0, 17, 24, 7, 2, 3, 29]",7,5,"[6, 10, 12, 20, 22]",76.06740884,9269,814,1,5,10,1.390376182346372
undo,42,45,0,0,0,10,"[0, 17, 24, 7, 2, 3, 29, 10]",8,2,"[6, 12]",54.52674961,10056,787,1,1,10,1.6682270697663164
undo,42,45,0,0,0,6,"[0, 17, 24, 7, 2, 3, 29, 10, 6]",9,1,[12],28.27794012,11506,1450,1,0,10,1.5776211572942243
undo,42,45,0,0,1,12,"[0, 17, 24, 7, 2, 3, 29, 10, 6, 12]",10,0,[],8.15332832,13081,1575,1,0,10,1.536035114105263
undo,42,45,0,1,1,12,"[0, 17, 24, 7, 2, 3, 29, 10, 6, 12]",10,0,[],8.15332832,14234,1153,1,0,10,1.536035114105263
undo,43,43,0,0,0,0,[0],1,23,"[1, 2, 3, 4, 5, 6, 7, 9, 10, 11, 12, 14, 15, 16, 17, 19, 20, 21, 22, 23, 25, 27, 29]",300,164,-1,16,556,12,0.0
undo,43,43,0,0,0,29,"[0, 29]",2,22,"[1, 2, 3, 4, 5, 6, 7, 9, 10, 11, 12, 14, 15, 16, 17, 19, 20, 21, 22, 23, 25, 27]",277.909278,2438,2274,16,520,12,1.0
undo,43,43,0,0,0,20,"[0, 29, 20]",3,20,"[1, 2, 3, 4, 6, 7, 9, 10, 11, 12, 14, 15, 16, 17, 19, 21, 22, 23, 25, 27]",254.4785289,3487,1049,15,422,12,1.082311746871282
undo,43,43,0,0,0,16,"[0, 29, 20, 16]",4,19,"[1, 2, 3, 4, 6, 7, 9, 10, 11, 12, 14, 15, 17, 19, 21, 22, 23, 25, 27]",231.8511119,4171,684,15,389,12,1.215201926898219
undo,43,43,0,0,0,11,"[0, 29, 20, 16, 11]",5,17,"[1, 2, 3, 4, 6, 7, 9, 10, 12, 14, 15, 17, 19, 21, 22, 23, 25]",196.7227758,5424,1253,12,188,12,1.1349145516483516
undo,43,43,0,0,0,15,"[0, 29, 20, 16, 11, 15]",6,12,"[1, 2, 3, 4, 6, 7, 12, 14, 19, 22, 23, 25]",147.9682888,8104,2680,1,32,12,1.8387943334430294
undo,43,43,0,0,0,25,"[0, 29, 20, 16, 11, 15, 25]",7,9,"[1, 3, 6, 7, 12, 14, 19, 22, 23]",125.2967207,8904,800,1,12,12,2.202803380742111
undo,43,43,0,0,0,12,"[0, 29, 20, 16, 11, 15, 25, 12]",8,6,"[1, 3, 6, 7, 19, 22]",101.1099475,10739,1835,1,8,12,2.011866286185413
undo,43,43,0,0,0,3,"[0, 29, 20, 16, 11, 15, 25, 12, 3]",9,5,"[1, 6, 7, 19, 22]",88.10994748,11439,700,1,5,12,1.9020620380337963
undo,43,43,0,0,0,22,"[0, 29, 20, 16, 11, 15, 25, 12, 3, 22]",10,3,"[1, 6, 19]",53.39683757,12738,1299,1,2,12,2.067628472989826
undo,43,43,0,0,0,19,"[0, 29, 20, 16, 11, 15, 25, 12, 3, 22, 19]",11,1,[1],32.78130944,13696,958,1,0,12,1.923482223595295
undo,43,43,0,0,1,1,"[0, 29, 20, 16, 11, 15, 25, 12, 3, 22, 19, 1]",12,0,[],4.603303833,14800,1104,1,0,12,2.0520587907480077
undo,43,43,0,1,1,1,"[0, 29, 20, 16, 11, 15, 25, 12, 3, 22, 19, 1]",12,0,[],4.603303833,16785,1985,1,0,12,2.0520587907480077
undo,44,17,0,0,0,0,[0],1,28,"[1, 2, 3, 4, 5, 6, 7, 8, 9, 10, 11, 12, 13, 14, 15, 16, 17, 18, 19, 20, 22, 23, 24, 25, 26, 27, 28, 29]",300,164,-1,2,73,8,0.0
undo,44,17,0,0,0,19,"[0, 19]",2,9,"[3, 4, 5, 10, 11, 18, 20, 22, 28]",138.1049723,6611,6447,1,8,6,1.0
undo,44,17,0,0,0,5,"[0, 19, 5]",3,5,"[3, 10, 11, 22, 28]",98.81120687,8302,1691,1,5,6,1.1200340368749155
undo,44,17,0,0,0,28,"[0, 19, 5, 28]",4,2,"[3, 11]",60.32744406,9210,908,1,1,6,1.1548774814009009
undo,44,17,0,0,0,3,"[0, 19, 5, 28, 3]",5,1,[11],26.32744406,10773,1563,1,0,6,1.444690353691831
undo,44,17,1,0,0,28,"[0, 19, 5, 28]",4,2,"[3, 11]",60.32744406,16551,5778,1,1,6,1.1548774814009009
undo,44,17,1,0,0,5,"[0, 19, 5]",3,5,"[3, 10, 11, 22, 28]",98.81120687,16935,384,1,5,6,1.1200340368749155
undo,44,17,1,0,0,19,"[0, 19]",2,9,"[3, 4, 5, 10, 11, 18, 20, 22, 28]",138.1049723,17335,400,1,8,6,1.0
undo,44,17,1,0,0,0,[0],1,28,"[1, 2, 3, 4, 5, 6, 7, 8, 9, 10, 11, 12, 13, 14, 15, 16, 17, 18, 19, 20, 22, 23, 24, 25, 26, 27, 28, 29]",300,17718,383,2,73,8,0.0
undo,44,17,0,0,0,17,"[0, 17]",2,19,"[1, 2, 3, 5, 7, 8, 9, 10, 11, 12, 14, 16, 18, 19, 23, 25, 26, 27, 29]",194.4253818,20795,3077,3,56,7,1.0
undo,44,17,0,0,0,8,"[0, 17, 8]",3,14,"[2, 3, 7, 9, 10, 11, 12, 14, 16, 23, 25, 26, 27, 29]",156.2154355,21616,821,11,17,6,1.0742762671080475
undo,44,17,0,0,0,2,"[0, 17, 8, 2]",4,5,"[7, 9, 10, 16, 27]",121.1013358,22412,796,4,3,6,1.72713973249527
undo,44,17,0,0,0,16,"[0, 17, 8, 2, 16]",5,2,"[7, 9]",104.9768203,22907,495,2,0,6,2.225242522948709
undo,44,17,0,0,1,9,"[0, 17, 8, 2, 16, 9]",6,0,[],91.6351562,23992,1085,1,0,6,2.328862118556028
undo,44,17,1,0,0,16,"[0, 17, 8, 2, 16]",5,2,"[7, 9]",104.9768203,30955,6963,2,0,6,2.225242522948709
undo,44,17,1,0,0,2,"[0, 17, 8, 2]",4,5,"[7, 9, 10, 16, 27]",121.1013358,31138,183,4,3,6,1.72713973249527
undo,44,17,1,0,0,8,"[0, 17, 8]",3,14,"[2, 3, 7, 9, 10, 11, 12, 14, 16, 23, 25, 26, 27, 29]",156.2154355,31305,167,11,17,6,1.0742762671080475
undo,44,17,1,0,0,17,"[0, 17]",2,19,"[1, 2, 3, 5, 7, 8, 9, 10, 11, 12, 14, 16, 18, 19, 23, 25, 26, 27, 29]",194.4253818,31489,184,3,56,7,1.0
undo,44,17,1,0,0,0,[0],1,28,"[1, 2, 3, 4, 5, 6, 7, 8, 9, 10, 11, 12, 13, 14, 15, 16, 17, 18, 19, 20, 22, 23, 24, 25, 26, 27, 28, 29]",300,31955,466,2,73,8,0.0
undo,44,17,0,0,0,19,"[0, 19]",2,9,"[3, 4, 5, 10, 11, 18, 20, 22, 28]",138.1049723,34745,2790,1,8,6,1.0
undo,44,17,0,0,0,5,"[0, 19, 5]",3,5,"[3, 10, 11, 22, 28]",98.81120687,35697,952,1,5,6,1.1200340368749155
undo,44,17,0,0,0,28,"[0, 19, 5, 28]",4,2,"[3, 11]",60.32744406,36518,821,1,1,6,1.1548774814009009
undo,44,17,0,0,0,3,"[0, 19, 5, 28, 3]",5,1,[11],26.32744406,38182,1664,1,0,6,1.444690353691831
undo,44,17,1,0,0,28,"[0, 19, 5, 28]",4,2,"[3, 11]",60.32744406,43658,5476,1,1,6,1.1548774814009009
undo,44,17,1,0,0,5,"[0, 19, 5]",3,5,"[3, 10, 11, 22, 28]",98.81120687,44025,367,1,5,6,1.1200340368749155
undo,44,17,1,0,0,19,"[0, 19]",2,9,"[3, 4, 5, 10, 11, 18, 20, 22, 28]",138.1049723,44392,367,1,8,6,1.0
undo,44,17,1,0,0,0,[0],1,28,"[1, 2, 3, 4, 5, 6, 7, 8, 9, 10, 11, 12, 13, 14, 15, 16, 17, 18, 19, 20, 22, 23, 24, 25, 26, 27, 28, 29]",300,44825,433,2,73,8,0.0
undo,44,17,0,0,0,17,"[0, 17]",2,19,"[1, 2, 3, 5, 7, 8, 9, 10, 11, 12, 14, 16, 18, 19, 23, 25, 26, 27, 29]",194.4253818,47732,2907,3,56,7,1.0
undo,44,17,0,0,0,8,"[0, 17, 8]",3,14,"[2, 3, 7, 9, 10, 11, 12, 14, 16, 23, 25, 26, 27, 29]",156.2154355,50182,2450,11,17,6,1.0742762671080475
undo,44,17,0,0,0,2,"[0, 17, 8, 2]",4,5,"[7, 9, 10, 16, 27]",121.1013358,51217,1035,4,3,6,1.72713973249527
undo,44,17,0,0,0,16,"[0, 17, 8, 2, 16]",5,2,"[7, 9]",104.9768203,51850,633,2,0,6,2.225242522948709
undo,44,17,0,0,1,9,"[0, 17, 8, 2, 16, 9]",6,0,[],91.6351562,52489,639,1,0,6,2.328862118556028
undo,44,17,0,1,1,9,"[0, 17, 8, 2, 16, 9]",6,0,[],91.6351562,54762,2273,1,0,6,2.328862118556028
undo,45,9,0,0,0,0,[0],1,27,"[1, 3, 4, 5, 6, 7, 8, 9, 10, 11, 13, 14, 15, 16, 17, 18, 19, 20, 21, 22, 23, 24, 25, 26, 27, 28, 29]",300,163,-1,2,182,10,0.0
undo,45,9,0,0,0,9,"[0, 9]",2,26,"[1, 3, 4, 5, 6, 7, 8, 10, 11, 13, 14, 15, 16, 17, 18, 19, 20, 21, 22, 23, 24, 25, 26, 27, 28, 29]",225.5352432,4254,4091,2,101,9,1.0
undo,45,9,0,0,0,23,"[0, 9, 23]",3,22,"[1, 3, 4, 5, 7, 8, 10, 11, 13, 15, 16, 17, 18, 19, 20, 21, 22, 24, 25, 26, 27, 28]",203.1745635,5822,1568,2,70,9,1.6262276606762436
undo,45,9,0,0,0,8,"[0, 9, 23, 8]",4,18,"[3, 4, 5, 7, 10, 11, 15, 16, 17, 18, 19, 20, 21, 22, 25, 26, 27, 28]",181.7036529,6821,999,1,36,9,1.8547307061753238
undo,45,9,0,0,0,28,"[0, 9, 23, 8, 28]",5,17,"[3, 4, 5, 7, 10, 11, 15, 16, 17, 18, 19, 20, 21, 22, 25, 26, 27]",170.8869991,7551,730,1,23,9,1.7382749966569708
undo,45,9,0,0,0,21,"[0, 9, 23, 8, 28, 21]",6,8,"[10, 16, 17, 18, 20, 22, 25, 26]",117.8869991,12292,4741,7,5,8,1.5363946588735553
undo,45,9,0,0,0,20,"[0, 9, 23, 8, 28, 21, 20]",7,5,"[10, 16, 17, 22, 26]",105.8039531,13280,988,5,0,8,1.5333390745950446
undo,45,9,0,0,1,22,"[0, 9, 23, 8, 28, 21, 20, 22]",8,0,[],29.74476563,14740,1460,1,0,8,2.2739446324527752
undo,45,9,0,1,1,22,"[0, 9, 23, 8, 28, 21, 20, 22]",8,0,[],29.74476563,15850,1110,1,0,8,2.2739446324527752
undo,46,15,0,0,0,0,[0],1,25,"[1, 2, 3, 4, 7, 8, 9, 10, 11, 12, 13, 14, 15, 16, 18, 20, 21, 22, 23, 24, 25, 26, 27, 28, 29]",300,166,-1,4,65,9,0.0
undo,46,15,0,0,0,21,"[0, 21]",2,17,"[1, 3, 4, 7, 8, 9, 11, 12, 13, 14, 15, 16, 22, 23, 24, 26, 27]",204.9158268,5267,5101,21,65,7,1.0
undo,46,15,0,0,0,12,"[0, 21, 12]",3,14,"[1, 3, 4, 7, 8, 9, 11, 13, 14, 15, 16, 22, 24, 27]",161.0866128,6432,1165,20,39,7,1.6068212046294776
undo,46,15,0,0,0,7,"[0, 21, 12, 7]",4,10,"[3, 4, 9, 11, 13, 14, 15, 16, 22, 27]",127.8450725,7238,806,13,11,7,2.0298522511797907
undo,46,15,0,0,0,16,"[0, 21, 12, 7, 16]",5,5,"[3, 4, 11, 15, 22]",84.18731258,8213,975,3,3,7,1.8904046427013528
undo,46,15,0,0,0,11,"[0, 21, 12, 7, 16, 11]",6,1,[3],58.16808892,9342,1129,1,0,7,1.9475991988988648
undo,46,15,0,0,1,3,"[0, 21, 12, 7, 16, 11, 3]",7,0,[],46.76633467,11659,2317,1,0,7,1.912955285957019
undo,46,15,0,1,1,3,"[0, 21, 12, 7, 16, 11, 3]",7,0,[],46.76633467,13186,1527,1,0,7,1.912955285957019
undo,47,14,0,0,0,0,[0],1,29,"[1, 2, 3, 4, 5, 6, 7, 8, 9, 10, 11, 12, 13, 14, 15, 16, 17, 18, 19, 20, 21, 22, 23, 24, 25, 26, 27, 28, 29]",300,165,-1,8,157,10,0.0
undo,47,14,0,0,0,15,"[0, 15]",2,20,"[1, 2, 3, 4, 7, 8, 9, 13, 17, 18, 19, 20, 21, 22, 23, 25, 26, 27, 28, 29]",216.7053423,3039,2874,8,102,10,1.0
undo,47,14,0,0,0,28,"[0, 15, 28]",3,17,"[1, 2, 3, 4, 7, 8, 9, 13, 17, 18, 19, 20, 22, 23, 25, 26, 27]",197.4959696,3639,600,8,48,10,1.0446007867311968
undo,47,14,0,0,0,17,"[0, 15, 28, 17]",4,14,"[1, 2, 3, 4, 7, 8, 13, 18, 19, 20, 22, 23, 25, 26]",184.0423455,4444,805,8,39,10,1.0729463354689972
undo,47,14,0,0,0,18,"[0, 15, 28, 17, 18]",5,9,"[1, 2, 4, 7, 8, 19, 23, 25, 26]",119.412631,6946,2502,8,27,10,1.5035901079219378
undo,47,14,0,0,0,8,"[0, 15, 28, 17, 18, 8]",6,8,"[1, 2, 4, 7, 19, 23, 25, 26]",105.8111605,8004,1058,8,18,10,1.4819689987843856
undo,47,14,0,0,0,19,"[0, 15, 28, 17, 18, 8, 19]",7,5,"[1, 7, 23, 25, 26]",85.19563238,9295,1291,4,9,10,1.4526746797093781
undo,47,14,0,0,0,1,"[0, 15, 28, 17, 18, 8, 19, 1]",8,4,"[7, 23, 25, 26]",69.96408617,16040,6745,3,1,10,1.4876985459270997
undo,47,14,0,0,0,23,"[0, 15, 28, 17, 18, 8, 19, 1, 23]",9,1,[26],21.96408617,17374,1334,1,0,10,1.4791446279021185
undo,47,14,0,0,1,26,"[0, 15, 28, 17, 18, 8, 19, 1, 23, 26]",10,0,[],11.14743235,18590,1216,1,0,10,1.4559204757247275
undo,47,14,0,1,1,26,"[0, 15, 28, 17, 18, 8, 19, 1, 23, 26]",10,0,[],11.14743235,19836,1246,1,0,10,1.4559204757247275
undo,48,25,0,0,0,0,[0],1,28,"[1, 2, 3, 4, 5, 7, 8, 9, 10, 11, 12, 13, 14, 15, 16, 17, 18, 19, 20, 21, 22, 23, 24, 25, 26, 27, 28, 29]",300,164,-1,5,94,10,0.0
undo,48,25,0,0,0,23,"[0, 23]",2,23,"[1, 2, 3, 5, 7, 8, 9, 11, 12, 13, 14, 16, 17, 19, 20, 21, 22, 24, 25, 26, 27, 28, 29]",259.7756293,6385,6221,3,33,10,1.0
undo,48,25,0,0,0,19,"[0, 23, 19]",3,21,"[1, 2, 3, 5, 7, 8, 9, 11, 12, 13, 14, 16, 17, 20, 21, 22, 24, 25, 27, 28, 29]",223.9287326,7519,1134,3,24,10,1.583101227007039
undo,48,25,0,0,0,29,"[0, 23, 19, 29]",4,19,"[1, 2, 3, 5, 7, 8, 9, 11, 12, 13, 14, 16, 17, 20, 21, 22, 24, 25, 28]",207.649912,9439,1920,3,17,10,1.474631541426484
undo,48,25,0,0,0,22,"[0, 23, 19, 29, 22]",5,18,"[1, 2, 3, 5, 7, 8, 9, 11, 12, 13, 14, 16, 17, 20, 21, 24, 25, 28]",191.5253965,10303,864,3,14,10,1.4020377754906637
undo,48,25,0,0,0,7,"[0, 23, 19, 29, 22, 7]",6,7,"[3, 8, 9, 11, 13, 24, 28]",115.8814939,12264,1961,3,11,10,1.5709678649326715
undo,48,25,0,0,0,24,"[0, 23, 19, 29, 22, 7, 24]",7,5,"[3, 8, 9, 13, 28]",91.12265712,13395,1131,3,7,10,1.486191600033379
undo,48,25,0,0,0,9,"[0, 23, 19, 29, 22, 7, 24, 9]",8,4,"[3, 8, 13, 28]",73.09490075,14790,1395,3,3,10,1.453504870342882
undo,48,25,0,0,0,3,"[0, 23, 19, 29, 22, 7, 24, 9, 3]",9,3,"[8, 13, 28]",42.82940885,17627,2837,3,0,10,1.388955167525479
undo,48,25,0,0,1,28,"[0, 23, 19, 29, 22, 7, 24, 9, 3, 28]",10,0,[],11.52445716,18589,962,1,0,10,1.3331084120212044
undo,48,25,0,1,1,28,"[0, 23, 19, 29, 22, 7, 24, 9, 3, 28]",10,0,[],11.52445716,20168,1579,1,0,10,1.3331084120212044
undo,49,28,0,0,0,0,[0],1,27,"[1, 2, 3, 4, 5, 6, 7, 8, 9, 10, 11, 12, 13, 14, 15, 16, 17, 18, 19, 20, 22, 23, 25, 26, 27, 28, 29]",300,166,-1,2,96,9,0.0
undo,49,28,0,0,0,3,"[0, 3]",2,26,"[1, 2, 4, 5, 6, 7, 8, 9, 10, 11, 12, 13, 14, 15, 16, 17, 18, 19, 20, 22, 23, 25, 26, 27, 28, 29]",251.0817008,5362,5196,1,64,9,1.0
undo,49,28,0,0,0,14,"[0, 3, 14]",3,13,"[1, 2, 5, 7, 10, 11, 12, 13, 17, 18, 19, 20, 26]",142.7396498,7527,2165,19,59,8,1.0338694802207566
undo,49,28,0,0,0,18,"[0, 3, 14, 18]",4,10,"[1, 2, 5, 7, 11, 12, 13, 17, 19, 26]",117.2445523,8456,929,18,18,8,1.098527225277385
undo,49,28,0,0,0,13,"[0, 3, 14, 18, 13]",5,7,"[2, 7, 11, 12, 17, 19, 26]",92.83144103,9257,801,8,6,8,1.0872780601597938
undo,49,28,0,0,0,12,"[0, 3, 14, 18, 13, 12]",6,3,"[2, 7, 19]",75.6267905,10440,1183,3,1,8,1.0890748557820906
undo,49,28,0,0,0,7,"[0, 3, 14, 18, 13, 12, 7]",7,2,"[2, 19]",62.47384406,11285,845,2,0,8,1.2125627495730145
undo,49,28,0,0,1,19,"[0, 3, 14, 18, 13, 12, 7, 19]",8,0,[],34.74299481,13430,2145,1,0,8,1.4527925513951803
undo,49,28,0,1,1,19,"[0, 3, 14, 18, 13, 12, 7, 19]",8,0,[],34.74299481,15387,1957,1,0,8,1.4527925513951803
undo,50,36,0,0,0,0,[0],1,24,"[2, 4, 5, 6, 7, 8, 9, 10, 12, 13, 14, 15, 16, 17, 18, 19, 20, 22, 23, 25, 26, 27, 28, 29]",300,197,-1,2,200,10,0.0
undo,50,36,0,0,0,12,"[0, 12]",2,23,"[2, 4, 5, 6, 7, 8, 9, 10, 13, 14, 15, 16, 17, 18, 19, 20, 22, 23, 25, 26, 27, 28, 29]",277.7963967,3958,3761,90,804,9,1.0
undo,50,36,0,0,0,9,"[0, 12, 9]",3,14,"[2, 4, 8, 10, 13, 16, 17, 18, 19, 23, 25, 27, 28, 29]",215.4345494,4822,864,32,191,9,1.224429481246385
undo,50,36,0,0,0,16,"[0, 12, 9, 16]",4,8,"[2, 10, 13, 17, 18, 19, 23, 25]",168.137615,5953,1131,7,26,9,1.235383731443557
undo,50,36,0,0,0,17,"[0, 12, 9, 16, 17]",5,6,"[2, 10, 13, 18, 19, 25]",139.8180105,7063,1110,7,14,9,1.6947865799475665
undo,50,36,0,0,0,19,"[0, 12, 9, 16, 17, 19]",6,5,"[2, 10, 13, 18, 25]",111.9253591,8128,1065,6,1,9,2.440059772477113
undo,50,36,0,0,0,13,"[0, 12, 9, 16, 17, 19, 13]",7,2,"[2, 25]",68.50877245,10077,1949,2,0,9,2.3601901953162883
undo,50,36,0,0,0,25,"[0, 12, 9, 16, 17, 19, 13, 25]",8,1,[2],47.91751216,11687,1610,1,0,9,2.2017827249313693
undo,50,36,0,0,1,2,"[0, 12, 9, 16, 17, 19, 13, 25, 2]",9,0,[],22.91751216,12826,1139,1,0,9,2.453595116264792
undo,50,36,0,1,1,2,"[0, 12, 9, 16, 17, 19, 13, 25, 2]",9,0,[],22.91751216,13850,1024,1,0,9,2.453595116264792
undo,51,37,0,0,0,0,[0],1,29,"[1, 2, 3, 4, 5, 6, 7, 8, 9, 10, 11, 12, 13, 14, 15, 16, 17, 18, 19, 20, 21, 22, 23, 24, 25, 26, 27, 28, 29]",300,165,-1,6,168,10,0.0
undo,51,37,0,0,0,19,"[0, 19]",2,19,"[1, 2, 4, 5, 6, 7, 9, 10, 11, 15, 17, 18, 20, 21, 22, 25, 26, 28, 29]",185.6627795,7381,7216,25,244,9,1.0
undo,51,37,0,0,0,21,"[0, 19, 21]",3,14,"[1, 2, 4, 7, 10, 11, 15, 17, 18, 20, 22, 25, 26, 29]",144.5531699,8830,1449,10,75,9,1.001632816594558
undo,51,37,0,0,0,15,"[0, 19, 21, 15]",4,9,"[1, 2, 4, 7, 18, 20, 22, 26, 29]",129.5531699,9672,842,5,32,9,1.0243376499143988
undo,51,37,0,0,0,20,"[0, 19, 21, 15, 20]",5,8,"[1, 2, 4, 7, 18, 22, 26, 29]",112.5531699,10839,1167,5,14,9,1.250507291508492
undo,51,37,0,0,0,1,"[0, 19, 21, 15, 20, 1]",6,6,"[2, 4, 7, 18, 22, 26]",78.31868434,12376,1537,4,4,9,1.4002166443864243
undo,51,37,0,0,0,4,"[0, 19, 21, 15, 20, 1, 4]",7,2,"[2, 22]",60.5986392,13364,988,2,0,9,1.472939356650523
undo,51,37,0,0,0,22,"[0, 19, 21, 15, 20, 1, 4, 22]",8,1,[2],35.5986392,14479,1115,1,0,9,1.6235308695745967
undo,51,37,0,0,1,2,"[0, 19, 21, 15, 20, 1, 4, 22, 2]",9,0,[],7.940005826,16307,1828,1,0,9,1.9319703739878353
undo,51,37,0,1,1,2,"[0, 19, 21, 15, 20, 1, 4, 22, 2]",9,0,[],7.940005826,17402,1095,1,0,9,1.9319703739878353
undo,52,11,0,0,0,0,[0],1,25,"[1, 2, 3, 4, 5, 6, 8, 9, 10, 11, 12, 13, 14, 15, 16, 17, 18, 19, 20, 22, 23, 25, 26, 27, 28]",300,164,-1,6,374,12,0.0
undo,52,11,0,0,0,18,"[0, 18]",2,21,"[1, 2, 4, 5, 6, 8, 9, 11, 12, 13, 14, 15, 16, 17, 19, 20, 22, 23, 25, 27, 28]",236.8493864,4019,3855,157,1477,11,1.0
undo,52,11,0,0,0,27,"[0, 18, 27]",3,19,"[1, 2, 4, 5, 6, 8, 9, 11, 12, 14, 15, 16, 17, 19, 20, 22, 23, 25, 28]",212.9956655,4910,891,157,1315,11,1.060949579704323
undo,52,11,0,0,0,17,"[0, 18, 27, 17]",4,14,"[1, 2, 4, 5, 6, 8, 11, 12, 15, 19, 22, 23, 25, 28]",135.9177828,7212,2302,46,349,11,1.1156120043677304
undo,52,11,0,0,0,8,"[0, 18, 27, 17, 8]",5,11,"[1, 2, 5, 6, 11, 12, 15, 19, 22, 25, 28]",121.5999617,7905,693,26,143,11,1.2285932943120847
undo,52,11,0,0,0,15,"[0, 18, 27, 17, 8, 15]",6,9,"[2, 5, 6, 11, 12, 19, 22, 25, 28]",108.1463377,9104,1199,24,54,11,1.223015425852291
undo,52,11,0,0,0,11,"[0, 18, 27, 17, 8, 15, 11]",7,6,"[2, 5, 12, 19, 22, 28]",90.03556742,10004,900,22,2,11,1.2111003833550413
undo,52,11,0,0,0,28,"[0, 18, 27, 17, 8, 15, 11, 28]",8,3,"[2, 5, 22]",70.61907959,10889,885,6,0,11,1.3274100985292616
undo,52,11,0,0,0,22,"[0, 18, 27, 17, 8, 15, 11, 28, 22]",9,2,"[2, 5]",52.23430327,12478,1589,2,0,11,1.3141711190295955
undo,52,11,0,0,0,2,"[0, 18, 27, 17, 8, 15, 11, 28, 22, 2]",10,1,[5],42.18442765,14159,1681,1,0,11,1.4444412809691538
undo,52,11,0,0,1,5,"[0, 18, 27, 17, 8, 15, 11, 28, 22, 2, 5]",11,0,[],25.18442765,15438,1279,1,0,11,1.6891669336596347
undo,52,11,0,1,1,5,"[0, 18, 27, 17, 8, 15, 11, 28, 22, 2, 5]",11,0,[],25.18442765,17818,2380,1,0,11,1.6891669336596347
undo,53,31,0,0,0,0,[0],1,27,"[1, 3, 4, 5, 6, 7, 8, 10, 11, 12, 13, 14, 15, 16, 17, 18, 19, 20, 21, 22, 23, 24, 25, 26, 27, 28, 29]",300,183,-1,2,87,10,0.0
undo,53,31,0,0,0,14,"[0, 14]",2,25,"[1, 3, 5, 6, 7, 8, 10, 11, 12, 13, 15, 16, 17, 18, 19, 20, 21, 22, 23, 24, 25, 26, 27, 28, 29]",263.861378,4980,4797,2,59,10,1.0
undo,53,31,0,0,0,27,"[0, 14, 27]",3,22,"[1, 3, 5, 6, 7, 8, 10, 11, 12, 13, 15, 16, 17, 18, 19, 20, 21, 22, 24, 25, 28, 29]",235.6833724,7219,2239,1,39,10,1.5881859159302467
undo,53,31,0,0,0,8,"[0, 14, 27, 8]",4,20,"[1, 3, 5, 6, 7, 10, 11, 12, 13, 16, 17, 18, 19, 20, 21, 22, 24, 25, 28, 29]",224.6380114,7829,610,1,36,10,2.1665048452331277
undo,53,31,0,0,0,18,"[0, 14, 27, 8, 18]",5,15,"[1, 5, 6, 7, 11, 12, 13, 16, 17, 19, 20, 22, 25, 28, 29]",188.7911147,9003,1174,1,26,10,1.7273375741920205
undo,53,31,0,0,0,17,"[0, 14, 27, 8, 18, 17]",6,13,"[1, 5, 6, 7, 11, 12, 13, 16, 19, 20, 22, 25, 28]",159.584951,9914,911,1,13,10,1.551192427769927
undo,53,31,0,0,0,25,"[0, 14, 27, 8, 18, 17, 25]",7,7,"[1, 5, 11, 12, 20, 22, 28]",99.14489804,14170,4256,4,5,9,1.3923783527528582
undo,53,31,0,0,0,12,"[0, 14, 27, 8, 18, 17, 25, 12]",8,3,"[1, 20, 22]",68.55078096,15577,1407,3,0,9,1.3338517222537312
undo,53,31,0,0,1,22,"[0, 14, 27, 8, 18, 17, 25, 12, 22]",9,0,[],18.06315871,16630,1053,1,0,9,1.8717753474146654
undo,53,31,0,1,1,22,"[0, 14, 27, 8, 18, 17, 25, 12, 22]",9,0,[],18.06315871,17901,1271,1,0,9,1.8717753474146654
undo,54,16,0,0,0,0,[0],1,29,"[1, 2, 3, 4, 5, 6, 7, 8, 9, 10, 11, 12, 13, 14, 15, 16, 17, 18, 19, 20, 21, 22, 23, 24, 25, 26, 27, 28, 29]",300,160,-1,13,161,9,0.0
undo,54,16,0,0,0,17,"[0, 17]",2,27,"[1, 2, 3, 4, 5, 7, 8, 9, 10, 11, 12, 13, 14, 15, 16, 18, 19, 20, 21, 22, 23, 24, 25, 26, 27, 28, 29]",241.3058776,8598,8438,2,58,9,1.0
undo,54,16,0,0,0,16,"[0, 17, 16]",3,26,"[1, 2, 3, 4, 5, 7, 8, 9, 10, 11, 12, 13, 14, 15, 18, 19, 20, 21, 22, 23, 24, 25, 26, 27, 28, 29]",212.9862731,9395,797,2,52,9,1.0529535521792848
undo,54,16,0,0,0,8,"[0, 17, 16, 8]",4,19,"[2, 3, 4, 5, 9, 12, 13, 14, 15, 19, 20, 21, 22, 23, 25, 26, 27, 28, 29]",164.6127266,10392,997,2,38,9,1.0915134501573105
undo,54,16,0,0,0,25,"[0, 17, 16, 8, 25]",5,8,"[3, 4, 5, 9, 12, 13, 15, 20]",104.3964498,12540,2148,1,10,9,1.0616056954683581
undo,54,16,0,0,0,9,"[0, 17, 16, 8, 25, 9]",6,7,"[3, 4, 5, 12, 13, 15, 20]",91.59020129,14056,1516,8,4,8,1.0576997505685053
undo,54,16,0,0,0,20,"[0, 17, 16, 8, 25, 9, 20]",7,3,"[5, 12, 15]",70.70958827,17576,3520,3,0,8,1.2671847106257557
undo,54,16,0,0,1,12,"[0, 17, 16, 8, 25, 9, 20, 12]",8,0,[],4.068759942,20024,2448,1,0,8,1.5883217550753037
undo,54,16,0,1,1,12,"[0, 17, 16, 8, 25, 9, 20, 12]",8,0,[],4.068759942,21304,1280,1,0,8,1.5883217550753037
undo,55,24,0,0,0,0,[0],1,29,"[1, 2, 3, 4, 5, 6, 7, 8, 9, 10, 11, 12, 13, 14, 15, 16, 17, 18, 19, 20, 21, 22, 23, 24, 25, 26, 27, 28, 29]",300,164,-1,4,76,10,0.0
undo,55,24,0,0,0,14,"[0, 14]",2,27,"[1, 2, 3, 4, 5, 6, 8, 9, 10, 11, 12, 13, 15, 16, 17, 18, 19, 20, 21, 22, 23, 24, 25, 26, 27, 28, 29]",278.0455016,10222,10058,4,54,10,1.0
undo,55,24,0,0,0,10,"[0, 14, 10]",3,20,"[1, 2, 3, 4, 6, 8, 9, 11, 15, 16, 17, 19, 20, 22, 23, 24, 26, 27, 28, 29]",229.342319,11337,1115,10,99,9,1.0038790212375874
undo,55,24,0,0,0,24,"[0, 14, 10, 24]",4,14,"[1, 2, 4, 6, 8, 9, 11, 15, 16, 20, 22, 23, 28, 29]",176.0037775,13188,1851,4,26,9,1.0345598967195753
undo,55,24,0,0,0,6,"[0, 14, 10, 24, 6]",5,11,"[1, 8, 9, 11, 15, 16, 20, 22, 23, 28, 29]",138.6674681,14154,966,4,19,9,1.4136213103786264
undo,55,24,0,0,0,8,"[0, 14, 10, 24, 6, 8]",6,5,"[15, 16, 22, 23, 28]",77.83984283,15125,971,4,4,9,2.0175546172818692
undo,55,24,0,0,0,22,"[0, 14, 10, 24, 6, 8, 22]",7,3,"[15, 16, 28]",64.42343497,15877,752,2,1,9,2.235490370965466
undo,55,24,0,0,0,16,"[0, 14, 10, 24, 6, 8, 22, 16]",8,1,[15],46.39567859,16674,797,1,0,9,2.829024350414776
undo,55,24,0,0,1,15,"[0, 14, 10, 24, 6, 8, 22, 16, 15]",9,0,[],15.98186594,18683,2009,1,0,9,2.374331903190176
undo,55,24,0,1,1,15,"[0, 14, 10, 24, 6, 8, 22, 16, 15]",9,0,[],15.98186594,19868,1185,1,0,9,2.374331903190176
undo,56,32,0,0,0,0,[0],1,29,"[1, 2, 3, 4, 5, 6, 7, 8, 9, 10, 11, 12, 13, 14, 15, 16, 17, 18, 19, 20, 21, 22, 23, 24, 25, 26, 27, 28, 29]",300,163,-1,17,359,10,0.0
undo,56,32,0,0,0,19,"[0, 19]",2,28,"[1, 2, 3, 4, 5, 6, 7, 8, 9, 10, 11, 12, 13, 14, 15, 16, 17, 18, 20, 21, 22, 23, 24, 25, 26, 27, 28, 29]",283.5075775,3919,3756,16,294,10,1.0
undo,56,32,0,0,0,13,"[0, 19, 13]",3,24,"[2, 3, 4, 5, 6, 8, 9, 10, 11, 12, 14, 15, 16, 17, 18, 20, 21, 22, 23, 24, 25, 26, 27, 28]",260.3127505,5203,1284,14,227,10,1.0172874229878615
undo,56,32,0,0,0,15,"[0, 19, 13, 15]",4,18,"[2, 3, 5, 8, 9, 10, 11, 12, 16, 17, 20, 22, 23, 24, 25, 26, 27, 28]",177.4393531,6670,1467,9,116,10,1.435447391509833
undo,56,32,0,0,0,28,"[0, 19, 13, 15, 28]",5,17,"[2, 3, 5, 8, 9, 10, 11, 12, 16, 17, 20, 22, 23, 24, 25, 26, 27]",166.0375988,7843,1173,9,70,10,1.3843701324937985
undo,56,32,0,0,0,12,"[0, 19, 13, 15, 28, 12]",6,14,"[2, 3, 5, 8, 9, 10, 11, 16, 17, 20, 22, 24, 26, 27]",147.0639329,9476,1633,6,35,10,1.358372254952329
undo,56,32,0,0,0,16,"[0, 19, 13, 15, 28, 12, 16]",7,13,"[2, 3, 5, 8, 9, 10, 11, 17, 20, 22, 24, 26, 27]",131.411457,11089,1613,5,15,10,1.4356932930709845
undo,56,32,0,0,0,22,"[0, 19, 13, 15, 28, 12, 16, 22]",8,6,"[2, 8, 9, 17, 20, 27]",97.57360838,12393,1304,3,5,10,1.4335226411545752
undo,56,32,0,0,0,9,"[0, 19, 13, 15, 28, 12, 16, 22, 9]",9,3,"[2, 8, 20]",75.37000507,13306,913,3,0,10,1.4837166378374758
undo,56,32,0,0,1,20,"[0, 19, 13, 15, 28, 12, 16, 22, 9, 20]",10,0,[],12.72018464,14678,1372,1,0,10,1.420264208067807
undo,56,32,0,1,1,20,"[0, 19, 13, 15, 28, 12, 16, 22, 9, 20]",10,0,[],12.72018464,15734,1056,1,0,10,1.420264208067807
undo,57,4,0,0,0,0,[0],1,26,"[3, 4, 5, 6, 7, 8, 10, 11, 12, 13, 14, 15, 16, 17, 18, 19, 20, 21, 22, 23, 24, 25, 26, 27, 28, 29]",300,165,-1,4,489,10,0.0
undo,57,4,0,0,0,28,"[0, 28]",2,21,"[3, 4, 5, 6, 10, 11, 12, 13, 14, 15, 16, 17, 19, 20, 21, 22, 23, 24, 25, 26, 27]",225.9392142,2269,2104,2,216,10,1.0
undo,57,4,0,0,0,14,"[0, 28, 14]",3,13,"[3, 4, 5, 6, 11, 13, 16, 17, 20, 21, 22, 24, 25]",159.6972335,3291,1022,1,26,10,1.0273973946789214
undo,57,4,0,0,0,25,"[0, 28, 14, 25]",4,12,"[3, 4, 5, 6, 11, 13, 16, 17, 20, 21, 22, 24]",143.572718,4121,830,1,25,10,1.233547772313525
undo,57,4,0,0,0,11,"[0, 28, 14, 25, 11]",5,10,"[3, 4, 5, 6, 13, 16, 17, 20, 21, 22]",124.7844238,5016,895,1,15,10,1.425978575879479
undo,57,4,0,0,0,16,"[0, 28, 14, 25, 11, 16]",6,9,"[3, 4, 5, 6, 13, 17, 20, 21, 22]",109.7844238,5829,813,1,12,10,1.3799325158051412
undo,57,4,0,0,0,21,"[0, 28, 14, 25, 11, 16, 21]",7,4,"[5, 17, 20, 22]",65.58035157,8937,3108,3,3,9,1.5860540591673642
undo,57,4,0,0,0,22,"[0, 28, 14, 25, 11, 16, 21, 22]",8,3,"[5, 17, 20]",54.53499056,9662,725,3,0,9,1.5471132483772176
undo,57,4,0,0,1,20,"[0, 28, 14, 25, 11, 16, 21, 22, 20]",9,0,[],24.30255764,11146,1484,1,0,9,1.5087977616865345
undo,57,4,0,1,1,20,"[0, 28, 14, 25, 11, 16, 21, 22, 20]",9,0,[],24.30255764,12868,1722,1,0,9,1.5087977616865345
undo,58,42,0,0,0,0,[0],1,29,"[1, 2, 3, 4, 5, 6, 7, 8, 9, 10, 11, 12, 13, 14, 15, 16, 17, 18, 19, 20, 21, 22, 23, 24, 25, 26, 27, 28, 29]",300,201,-1,16,302,9,0.0
undo,58,42,0,0,0,5,"[0, 5]",2,28,"[1, 2, 3, 4, 6, 7, 8, 9, 10, 11, 12, 13, 14, 15, 16, 17, 18, 19, 20, 21, 22, 23, 24, 25, 26, 27, 28, 29]",191.2939744,2589,2388,1,22,9,1.0
undo,58,42,0,0,0,4,"[0, 5, 4]",3,23,"[1, 2, 3, 6, 7, 8, 9, 10, 11, 13, 15, 17, 18, 19, 20, 21, 22, 23, 24, 25, 26, 27, 29]",171.4445412,3313,724,1,14,9,1.420957801478707
undo,58,42,0,0,0,22,"[0, 5, 4, 22]",4,20,"[1, 2, 3, 6, 7, 8, 9, 11, 15, 17, 18, 19, 20, 21, 23, 24, 25, 26, 27, 29]",160.2642013,4330,1017,1,11,9,1.5771494659680896
undo,58,42,0,0,0,8,"[0, 5, 4, 22, 8]",5,14,"[1, 2, 3, 6, 7, 11, 15, 18, 19, 24, 25, 26, 27, 29]",138.1282577,5420,1090,1,10,9,1.5055393955524201
undo,58,42,0,0,0,1,"[0, 5, 4, 22, 8, 1]",6,5,"[2, 7, 19, 26, 27]",89.03650682,6203,783,1,7,9,1.3547259083637835
undo,58,42,0,0,0,7,"[0, 5, 4, 22, 8, 1, 7]",7,4,"[2, 19, 26, 27]",59.03650682,7188,985,1,3,9,1.3909715672447451
undo,58,42,0,0,0,26,"[0, 5, 4, 22, 8, 1, 7, 26]",8,1,[27],32.46584631,8421,1233,1,0,9,1.3511825943939393
undo,58,42,0,0,1,27,"[0, 5, 4, 22, 8, 1, 7, 26, 27]",9,0,[],14.43808994,9589,1168,1,0,9,1.3391911688802078
undo,58,42,0,1,1,27,"[0, 5, 4, 22, 8, 1, 7, 26, 27]",9,0,[],14.43808994,10633,1044,1,0,9,1.3391911688802078
undo,59,0,0,0,0,0,[0],1,27,"[2, 3, 4, 5, 6, 7, 8, 9, 10, 11, 12, 13, 14, 15, 16, 17, 19, 20, 21, 22, 23, 24, 25, 26, 27, 28, 29]",300,170,-1,104,1136,9,0.0
undo,59,0,0,0,0,20,"[0, 20]",2,25,"[2, 3, 4, 5, 6, 7, 8, 9, 11, 12, 13, 14, 15, 16, 17, 19, 21, 22, 23, 24, 25, 26, 27, 28, 29]",215.4955622,6276,6106,36,372,9,1.0
undo,59,0,0,0,0,5,"[0, 20, 5]",3,22,"[2, 3, 4, 7, 8, 9, 11, 12, 13, 14, 15, 16, 17, 19, 21, 22, 23, 24, 25, 26, 28, 29]",153.2942761,8497,2221,33,251,9,1.0828244018179105
undo,59,0,0,0,0,26,"[0, 20, 5, 26]",4,16,"[3, 4, 7, 8, 9, 11, 12, 13, 14, 15, 17, 19, 21, 23, 24, 28]",117.8541858,9946,1449,6,51,9,1.1274542855134486
undo,59,0,0,0,0,4,"[0, 20, 5, 26, 4]",5,12,"[3, 7, 8, 9, 11, 12, 15, 17, 19, 23, 24, 28]",105.8125912,10594,648,5,27,9,1.240491272719259
undo,59,0,0,0,0,24,"[0, 20, 5, 26, 4, 24]",6,11,"[3, 7, 8, 9, 11, 12, 15, 17, 19, 23, 28]",94.41083696,11780,1186,5,18,9,1.2323106696136763
undo,59,0,0,0,0,15,"[0, 20, 5, 26, 4, 24, 15]",7,7,"[3, 7, 8, 9, 11, 12, 17]",71.0656019,12632,852,4,5,9,1.2111066506270785
undo,59,0,0,0,0,7,"[0, 20, 5, 26, 4, 24, 15, 7]",8,2,"[3, 8]",40.00115277,14556,1924,2,0,9,1.268226705272871
undo,59,0,0,0,1,3,"[0, 20, 5, 26, 4, 24, 15, 7, 3]",9,0,[],15.91796361,15500,944,1,0,9,1.3105818731451497
undo,59,0,0,1,1,3,"[0, 20, 5, 26, 4, 24, 15, 7, 3]",9,0,[],15.91796361,16618,1118,1,0,9,1.3105818731451497
undo,60,41,0,0,0,0,[0],1,29,"[1, 2, 3, 4, 5, 6, 7, 8, 9, 10, 11, 12, 13, 14, 15, 16, 17, 18, 19, 20, 21, 22, 23, 24, 25, 26, 27, 28, 29]",300,163,-1,1,143,10,0.0
undo,60,41,0,0,0,28,"[0, 28]",2,27,"[1, 2, 3, 5, 6, 7, 8, 9, 10, 11, 12, 13, 14, 15, 16, 17, 18, 19, 20, 21, 22, 23, 24, 25, 26, 27, 29]",259.8004975,3505,3342,37,249,9,1.0
undo,60,41,0,0,0,5,"[0, 28, 5]",3,26,"[1, 2, 3, 6, 7, 8, 9, 10, 11, 12, 13, 14, 15, 16, 17, 18, 19, 20, 21, 22, 23, 24, 25, 26, 27, 29]",246.199027,4164,659,30,182,9,1.714241539747437
undo,60,41,0,0,0,3,"[0, 28, 5, 3]",4,25,"[1, 2, 6, 7, 8, 9, 10, 11, 12, 13, 14, 15, 16, 17, 18, 19, 20, 21, 22, 23, 24, 25, 26, 27, 29]",211.3708775,7474,3310,20,93,9,2.2367972660995847
undo,60,41,0,0,0,21,"[0, 28, 5, 3, 21]",5,19,"[1, 2, 6, 9, 10, 11, 12, 13, 14, 15, 17, 18, 19, 20, 22, 24, 25, 26, 27]",179.2305601,8686,1212,12,46,9,2.470864770481327
undo,60,41,0,0,0,9,"[0, 28, 5, 3, 21, 9]",6,13,"[1, 2, 10, 12, 13, 14, 15, 17, 19, 22, 24, 25, 26]",129.8645799,9661,975,3,17,9,2.0674559404382
undo,60,41,0,0,0,2,"[0, 28, 5, 3, 21, 9, 2]",7,9,"[1, 10, 12, 14, 15, 17, 19, 22, 24]",117.7815339,10559,898,2,7,9,2.0139863201149533
undo,60,41,0,0,0,17,"[0, 28, 5, 3, 21, 9, 2, 17]",8,1,[10],85.22389276,12932,2373,1,0,9,3.388293326704014
undo,60,41,0,0,1,10,"[0, 28, 5, 3, 21, 9, 2, 17, 10]",9,0,[],35.97960375,14671,1739,1,0,9,3.1208433501016275
undo,60,41,0,1,1,10,"[0, 28, 5, 3, 21, 9, 2, 17, 10]",9,0,[],35.97960375,16000,1329,1,0,9,3.1208433501016275
undo,61,12,0,0,0,0,[0],1,29,"[1, 2, 3, 4, 5, 6, 7, 8, 9, 10, 11, 12, 13, 14, 15, 16, 17, 18, 19, 20, 21, 22, 23, 24, 25, 26, 27, 28, 29]",300,165,-1,2,32,9,0.0
undo,61,12,0,0,0,25,"[0, 25]",2,16,"[2, 4, 5, 6, 7, 9, 12, 14, 16, 18, 19, 22, 23, 24, 27, 28]",225.7975742,3836,3671,5,34,8,1.0
undo,61,12,0,0,0,16,"[0, 25, 16]",3,11,"[2, 4, 5, 6, 7, 12, 14, 19, 22, 24, 27]",169.0701557,5748,1912,4,22,8,1.4434159828731936
undo,61,12,0,0,0,4,"[0, 25, 16, 4]",4,6,"[12, 14, 19, 22, 24, 27]",134.864893,7477,1729,2,7,8,1.3220542462647857
undo,61,12,0,0,0,12,"[0, 25, 16, 4, 12]",5,5,"[14, 19, 22, 24, 27]",92.67484678,8752,1275,2,3,8,1.2548348749245275
undo,61,12,0,0,0,27,"[0, 25, 16, 4, 12, 27]",6,2,"[14, 24]",68.32325545,9870,1118,2,0,8,1.3544642483472162
undo,61,12,0,0,0,14,"[0, 25, 16, 4, 12, 27, 14]",7,1,[24],39.67015789,11011,1141,1,0,8,1.3982089850666115
undo,61,12,0,0,1,24,"[0, 25, 16, 4, 12, 27, 14, 24]",8,0,[],22.46550735,13056,2045,1,0,8,1.5551140590301356
undo,61,12,0,1,1,24,"[0, 25, 16, 4, 12, 27, 14, 24]",8,0,[],22.46550735,14167,1111,1,0,8,1.5551140590301356
undo,62,10,0,0,0,0,[0],1,29,"[1, 2, 3, 4, 5, 6, 7, 8, 9, 10, 11, 12, 13, 14, 15, 16, 17, 18, 19, 20, 21, 22, 23, 24, 25, 26, 27, 28, 29]",300,171,-1,1,100,9,0.0
undo,62,10,0,0,0,13,"[0, 13]",2,25,"[1, 2, 3, 4, 6, 7, 8, 9, 10, 11, 12, 14, 17, 18, 19, 20, 21, 22, 23, 24, 25, 26, 27, 28, 29]",249.4628849,2760,2589,1,79,9,1.0
undo,62,10,0,0,0,11,"[0, 13, 11]",3,20,"[1, 2, 3, 6, 7, 8, 9, 10, 12, 14, 18, 19, 20, 21, 22, 24, 26, 27, 28, 29]",206.4512586,3595,835,1,54,9,1.0313137484914219
undo,62,10,0,0,0,19,"[0, 13, 11, 19]",4,11,"[2, 6, 8, 9, 10, 14, 18, 20, 24, 26, 27]",170.0919407,4429,834,1,22,9,1.0879446220132545
undo,62,10,0,0,0,2,"[0, 13, 11, 19, 2]",5,4,"[14, 20, 26, 27]",126.1829439,5937,1508,1,4,9,1.06474052351343
undo,62,10,0,0,0,14,"[0, 13, 11, 19, 2, 14]",6,3,"[20, 26, 27]",114.0174188,6825,888,1,3,9,1.1628909195912238
undo,62,10,0,0,0,26,"[0, 13, 11, 19, 2, 14, 26]",7,2,"[20, 27]",79.34754716,7773,948,1,1,9,1.6660727647633602
undo,62,10,0,0,0,20,"[0, 13, 11, 19, 2, 14, 26, 20]",8,1,[27],47.56704999,9138,1365,1,0,9,2.085581809637999
undo,62,10,0,0,1,27,"[0, 13, 11, 19, 2, 14, 26, 20, 27]",9,0,[],2.312215998,10271,1133,1,0,9,1.9116357409137932
undo,62,10,0,1,1,27,"[0, 13, 11, 19, 2, 14, 26, 20, 27]",9,0,[],2.312215998,11484,1213,1,0,9,1.9116357409137932
undo,63,44,0,0,0,0,[0],1,29,"[1, 2, 3, 4, 5, 6, 7, 8, 9, 10, 11, 12, 13, 14, 15, 16, 17, 18, 19, 20, 21, 22, 23, 24, 25, 26, 27, 28, 29]",300,163,-1,13,126,7,0.0
undo,63,44,0,0,0,14,"[0, 14]",2,15,"[4, 5, 6, 7, 9, 11, 12, 16, 17, 19, 22, 23, 24, 26, 28]",121.156493,8521,8358,2,9,6,1.0
undo,63,44,0,0,0,11,"[0, 14, 11]",3,5,"[4, 7, 9, 23, 24]",88.95400861,10954,2433,2,3,6,1.4335325978948263
undo,63,44,0,0,0,24,"[0, 14, 11, 24]",4,3,"[4, 7, 9]",62.02818458,11678,724,2,1,6,1.5836307949102126
undo,63,44,0,0,0,9,"[0, 14, 11, 24, 9]",5,1,[4],29.27150587,12838,1160,1,0,6,1.7061741313740282
undo,63,44,0,0,1,4,"[0, 14, 11, 24, 9, 4]",6,0,[],9.573790265,13588,750,1,0,6,1.653515319219223
undo,63,44,0,1,1,4,"[0, 14, 11, 24, 9, 4]",6,0,[],9.573790265,17701,4113,1,0,6,1.653515319219223
undo,64,22,0,0,0,0,[0],1,29,"[1, 2, 3, 4, 5, 6, 7, 8, 9, 10, 11, 12, 13, 14, 15, 16, 17, 18, 19, 20, 21, 22, 23, 24, 25, 26, 27, 28, 29]",300,181,-1,31,704,9,0.0
undo,64,22,0,0,0,16,"[0, 16]",2,21,"[1, 3, 6, 7, 8, 9, 11, 13, 14, 15, 17, 18, 19, 20, 21, 22, 24, 25, 27, 28, 29]",218.605897,1974,1793,17,147,9,1.0
undo,64,22,0,0,0,28,"[0, 16, 28]",3,13,"[6, 7, 9, 13, 14, 17, 19, 20, 21, 22, 24, 25, 29]",184.1675463,2735,761,12,61,9,1.047282311284478
undo,64,22,0,0,0,6,"[0, 16, 28, 6]",4,12,"[7, 9, 13, 14, 17, 19, 20, 21, 22, 24, 25, 29]",154.1675463,3493,758,12,43,9,1.645645870580622
undo,64,22,0,0,0,29,"[0, 16, 28, 6, 29]",5,9,"[7, 9, 13, 14, 17, 19, 20, 21, 24]",96.29700112,7231,3738,2,4,9,2.64527042238385
undo,64,22,0,0,0,19,"[0, 16, 28, 6, 29, 19]",6,4,"[7, 9, 14, 24]",81.26370474,7889,658,2,2,9,2.747111096987313
undo,64,22,0,0,0,9,"[0, 16, 28, 6, 29, 19, 9]",7,2,"[7, 14]",60.86762669,8616,727,2,0,9,2.6702454883753064
undo,64,22,0,0,0,14,"[0, 16, 28, 6, 29, 19, 9, 14]",8,1,[7],17.82114019,10128,1512,1,0,9,2.1782892870517085
undo,64,22,0,0,1,7,"[0, 16, 28, 6, 29, 19, 9, 14, 7]",9,0,[],4.782735376,11225,1097,1,0,9,2.3473599721224465
undo,64,22,0,1,1,7,"[0, 16, 28, 6, 29, 19, 9, 14, 7]",9,0,[],4.782735376,12234,1009,1,0,9,2.3473599721224465
undo,65,30,0,0,0,0,[0],1,19,"[3, 4, 5, 7, 9, 11, 16, 17, 18, 19, 20, 21, 22, 24, 25, 26, 27, 28, 29]",300,175,-1,5,41,8,0.0
undo,65,30,0,0,0,16,"[0, 16]",2,17,"[3, 5, 7, 9, 11, 17, 18, 19, 20, 21, 22, 24, 25, 26, 27, 28, 29]",219.3774225,5811,5636,5,34,8,1.0
undo,65,30,0,0,0,25,"[0, 16, 25]",3,10,"[3, 5, 7, 9, 11, 18, 19, 20, 27, 29]",115.0845656,7745,1934,5,28,8,1.0336279544884488
undo,65,30,0,0,0,27,"[0, 16, 25, 27]",4,7,"[3, 5, 7, 18, 19, 20, 29]",75.52448473,8626,881,1,12,8,1.0719738181137488
undo,65,30,0,0,0,3,"[0, 16, 25, 27, 3]",5,5,"[5, 7, 18, 20, 29]",56.41951155,9687,1061,1,4,8,1.0683252001879187
undo,65,30,0,0,0,29,"[0, 16, 25, 27, 3, 29]",6,2,"[5, 18]",37.81843632,10872,1185,1,1,8,1.0768958290478794
undo,65,30,0,0,0,18,"[0, 16, 25, 27, 3, 29, 18]",7,1,[5],18.5052284,11683,811,1,0,8,1.1525061930327378
undo,65,30,0,0,1,5,"[0, 16, 25, 27, 3, 29, 18, 5]",8,0,[],5.466823591,12387,704,1,0,8,1.2180155123152177
undo,65,30,0,1,1,5,"[0, 16, 25, 27, 3, 29, 18, 5]",8,0,[],5.466823591,13501,1114,1,0,8,1.2180155123152177
undo,66,21,0,0,0,0,[0],1,29,"[1, 2, 3, 4, 5, 6, 7, 8, 9, 10, 11, 12, 13, 14, 15, 16, 17, 18, 19, 20, 21, 22, 23, 24, 25, 26, 27, 28, 29]",300,176,-1,84,830,9,0.0
undo,66,21,0,0,0,10,"[0, 10]",2,16,"[2, 5, 6, 7, 11, 12, 13, 17, 18, 19, 20, 22, 25, 26, 28, 29]",178.2420434,3462,3286,4,19,7,1.0
undo,66,21,0,0,0,12,"[0, 10, 12]",3,14,"[5, 6, 7, 11, 13, 17, 18, 19, 20, 22, 25, 26, 28, 29]",155.4385349,4270,808,4,14,7,1.3021441887069367
undo,66,21,0,0,0,20,"[0, 10, 12, 20]",4,7,"[6, 11, 17, 18, 22, 25, 29]",101.3182984,5475,1205,4,6,7,2.4118536037403975
undo,66,21,0,0,0,22,"[0, 10, 12, 20, 22]",5,4,"[17, 18, 25, 29]",73.08710994,6695,1220,3,2,7,2.759648057109791
undo,66,21,0,0,0,18,"[0, 10, 12, 20, 22, 18]",6,2,"[25, 29]",46.68635238,8016,1321,2,0,7,4.2879121117502415
undo,66,21,0,0,1,25,"[0, 10, 12, 20, 22, 18, 25]",7,0,[],4.925126341,9190,1174,1,0,7,4.933010748344797
undo,66,21,1,0,0,18,"[0, 10, 12, 20, 22, 18]",6,2,"[25, 29]",46.68635238,17952,8762,2,0,7,4.2879121117502415
undo,66,21,1,0,0,22,"[0, 10, 12, 20, 22]",5,4,"[17, 18, 25, 29]",73.08710994,18352,400,3,2,7,2.759648057109791
undo,66,21,1,0,0,20,"[0, 10, 12, 20]",4,7,"[6, 11, 17, 18, 22, 25, 29]",101.3182984,18519,167,4,6,7,2.4118536037403975
undo,66,21,1,0,0,12,"[0, 10, 12]",3,14,"[5, 6, 7, 11, 13, 17, 18, 19, 20, 22, 25, 26, 28, 29]",155.4385349,18669,150,4,14,7,1.3021441887069367
undo,66,21,1,0,0,10,"[0, 10]",2,16,"[2, 5, 6, 7, 11, 12, 13, 17, 18, 19, 20, 22, 25, 26, 28, 29]",178.2420434,18853,184,4,19,7,1.0
undo,66,21,1,0,0,0,[0],1,29,"[1, 2, 3, 4, 5, 6, 7, 8, 9, 10, 11, 12, 13, 14, 15, 16, 17, 18, 19, 20, 21, 22, 23, 24, 25, 26, 27, 28, 29]",300,19053,200,84,830,9,0.0
undo,66,21,0,0,0,18,"[0, 18]",2,28,"[1, 2, 3, 4, 5, 6, 7, 8, 9, 10, 11, 12, 13, 14, 15, 16, 17, 19, 20, 21, 22, 23, 24, 25, 26, 27, 28, 29]",240.923778,24131,5078,44,305,9,1.0
undo,66,21,0,0,0,25,"[0, 18, 25]",3,23,"[1, 2, 3, 4, 6, 7, 8, 9, 10, 11, 12, 14, 15, 16, 17, 20, 21, 22, 23, 24, 26, 27, 29]",199.162552,24874,743,16,84,9,1.6857830307656476
undo,66,21,0,0,0,23,"[0, 18, 25, 23]",4,13,"[4, 6, 8, 9, 14, 15, 16, 17, 20, 21, 22, 24, 29]",155.838194,26396,1522,9,35,9,1.4558828002680828
undo,66,21,0,0,0,21,"[0, 18, 25, 23, 21]",5,9,"[4, 8, 9, 14, 15, 16, 17, 22, 29]",126.2240082,27443,1047,3,11,9,1.9332325352644872
undo,66,21,0,0,0,14,"[0, 18, 25, 23, 21, 14]",6,5,"[4, 8, 15, 16, 29]",100.6115112,28593,1150,3,6,9,1.7407370150704153
undo,66,21,0,0,0,4,"[0, 18, 25, 23, 21, 14, 4]",7,3,"[8, 15, 16]",86.46937561,29583,990,3,1,9,1.6694311790658276
undo,66,21,0,0,0,16,"[0, 18, 25, 23, 21, 14, 4, 16]",8,2,"[8, 15]",41.87116936,32351,2768,2,0,9,1.5814710736011837
undo,66,21,0,0,1,8,"[0, 18, 25, 23, 21, 14, 4, 16, 8]",9,0,[],23.27009413,33851,1500,1,0,9,1.5274033119860408
undo,66,21,0,1,1,8,"[0, 18, 25, 23, 21, 14, 4, 16, 8]",9,0,[],23.27009413,35890,2039,1,0,9,1.5274033119860408
undo,67,3,0,0,0,0,[0],1,29,"[1, 2, 3, 4, 5, 6, 7, 8, 9, 10, 11, 12, 13, 14, 15, 16, 17, 18, 19, 20, 21, 22, 23, 24, 25, 26, 27, 28, 29]",300,169,-1,34,427,10,0.0
undo,67,3,0,0,0,7,"[0, 7]",2,28,"[1, 2, 3, 4, 5, 6, 8, 9, 10, 11, 12, 13, 14, 15, 16, 17, 18, 19, 20, 21, 22, 23, 24, 25, 26, 27, 28, 29]",278.8103799,3869,3700,24,215,10,1.0
undo,67,3,0,0,0,8,"[0, 7, 8]",3,24,"[1, 2, 3, 4, 5, 6, 10, 11, 12, 13, 14, 15, 16, 17, 18, 19, 20, 21, 22, 24, 25, 26, 27, 28]",222.837172,4804,935,16,114,10,1.2853332575451413
undo,67,3,0,0,0,24,"[0, 7, 8, 24]",4,21,"[1, 3, 4, 5, 6, 10, 11, 12, 14, 15, 16, 17, 18, 19, 20, 21, 22, 25, 26, 27, 28]",210.671647,5537,733,16,91,10,1.5177505014936548
undo,67,3,0,0,0,17,"[0, 7, 8, 24, 17]",5,9,"[3, 4, 10, 14, 15, 16, 19, 20, 21]",141.3174834,6890,1353,7,26,10,1.5510961300062232
undo,67,3,0,0,0,20,"[0, 7, 8, 24, 17, 20]",6,7,"[3, 4, 10, 14, 16, 19, 21]",128.6683728,7413,523,7,14,10,1.5133082717474817
undo,67,3,0,0,0,3,"[0, 7, 8, 24, 17, 20, 3]",7,5,"[4, 10, 14, 19, 21]",108.2722947,7973,560,7,4,10,1.5325960555943097
undo,67,3,0,0,0,19,"[0, 7, 8, 24, 17, 20, 3, 19]",8,3,"[10, 14, 21]",70.93598532,9123,1150,3,1,10,1.5521294182529992
undo,67,3,0,0,0,21,"[0, 7, 8, 24, 17, 20, 3, 19, 21]",9,2,"[10, 14]",58.72942971,9662,539,2,0,10,1.5690424431931145
undo,67,3,0,0,1,14,"[0, 7, 8, 24, 17, 20, 3, 19, 21, 14]",10,0,[],31.82218161,10514,852,1,0,10,2.0836613372745463
undo,67,3,0,1,1,14,"[0, 7, 8, 24, 17, 20, 3, 19, 21, 14]",10,0,[],31.82218161,11766,1252,1,0,10,2.0836613372745463
undo,68,34,0,0,0,0,[0],1,25,"[1, 3, 4, 5, 6, 7, 8, 9, 10, 11, 12, 13, 15, 18, 19, 20, 21, 22, 23, 24, 25, 26, 27, 28, 29]",300,163,-1,12,367,10,0.0
undo,68,34,0,0,0,13,"[0, 13]",2,24,"[1, 3, 4, 5, 6, 7, 8, 9, 10, 11, 12, 15, 18, 19, 20, 21, 22, 23, 24, 25, 26, 27, 28, 29]",279.9750156,9827,9664,12,331,10,1.0
undo,68,34,0,0,0,1,"[0, 13, 1]",3,16,"[3, 5, 7, 8, 9, 10, 11, 12, 19, 21, 22, 23, 24, 25, 27, 29]",211.8574701,11346,1519,3,92,10,1.0010381285747127
undo,68,34,0,0,0,8,"[0, 13, 1, 8]",4,14,"[3, 5, 7, 9, 10, 11, 12, 19, 22, 23, 24, 25, 27, 29]",201.0871405,11971,625,2,54,10,1.1636807
undo,68,34,0,0,0,25,"[0, 13, 1, 8, 25]",5,12,"[3, 5, 7, 9, 10, 11, 12, 22, 23, 24, 27, 29]",183.999133,14345,2374,2,28,10,1.1396208815936457
undo,68,34,0,0,0,24,"[0, 13, 1, 8, 25, 24]",6,11,"[3, 5, 7, 9, 10, 11, 12, 22, 23, 27, 29]",166.5062774,15440,1095,2,23,10,1.374180768736554
undo,68,34,0,0,0,23,"[0, 13, 1, 8, 25, 24, 23]",7,6,"[5, 7, 11, 12, 27, 29]",99.97808784,18994,3554,4,3,9,2.1078306540088096
undo,68,34,0,0,0,7,"[0, 13, 1, 8, 25, 24, 23, 7]",8,2,"[11, 12]",71.81783216,20722,1728,2,0,9,2.011215865419536
undo,68,34,0,0,1,12,"[0, 13, 1, 8, 25, 24, 23, 7, 12]",9,0,[],56.78453578,21384,662,1,0,9,1.9762514824310813
undo,68,34,0,1,1,12,"[0, 13, 1, 8, 25, 24, 23, 7, 12]",9,0,[],56.78453578,22736,1352,1,0,9,1.9762514824310813
basic,69,37,0,0,0,0,[0],1,29,"[1, 2, 3, 4, 5, 6, 7, 8, 9, 10, 11, 12, 13, 14, 15, 16, 17, 18, 19, 20, 21, 22, 23, 24, 25, 26, 27, 28, 29]",300,216,-1,6,168,10,0.0
basic,69,37,0,0,0,19,"[0, 19]",2,19,"[1, 2, 4, 5, 6, 7, 9, 10, 11, 15, 17, 18, 20, 21, 22, 25, 26, 28, 29]",185.6627795,2460,2244,25,244,9,1.0
basic,69,37,0,0,0,26,"[0, 19, 26]",3,9,"[1, 2, 4, 15, 20, 21, 22, 25, 29]",120.4094271,3677,1217,12,37,8,1.0256292033966232
basic,69,37,0,0,0,21,"[0, 19, 26, 21]",4,6,"[1, 2, 4, 15, 20, 22]",90.67728956,4561,884,8,18,8,1.3487859218508713
basic,69,37,0,0,0,15,"[0, 19, 26, 21, 15]",5,4,"[1, 2, 4, 20]",75.67728956,5493,932,4,7,8,1.3481165821607015
basic,69,37,0,0,0,20,"[0, 19, 26, 21, 15, 20]",6,3,"[1, 2, 4]",58.67728956,7090,1597,2,2,8,1.6099275130490058
basic,69,37,0,0,0,1,"[0, 19, 26, 21, 15, 20, 1]",7,2,"[2, 4]",24.44280403,8330,1240,2,0,8,1.7405155284688993
basic,69,37,0,0,1,4,"[0, 19, 26, 21, 15, 20, 1, 4]",8,0,[],6.722758881,9827,1497,1,0,8,1.8044157702802002
basic,69,37,0,1,1,4,"[0, 19, 26, 21, 15, 20, 1, 4]",8,0,[],6.722758881,11802,1975,1,0,8,1.8044157702802002
basic,70,44,0,0,0,0,[0],1,29,"[1, 2, 3, 4, 5, 6, 7, 8, 9, 10, 11, 12, 13, 14, 15, 16, 17, 18, 19, 20, 21, 22, 23, 24, 25, 26, 27, 28, 29]",300,162,-1,13,126,7,0.0
basic,70,44,0,0,0,8,"[0, 8]",2,17,"[1, 4, 5, 7, 9, 10, 11, 12, 13, 14, 15, 20, 21, 23, 24, 25, 27]",145.7923478,23757,23595,1,10,7,1.0
basic,70,44,0,0,0,20,"[0, 8, 20]",3,16,"[1, 4, 5, 7, 9, 10, 11, 12, 13, 14, 15, 21, 23, 24, 25, 27]",133.7093018,24549,792,1,9,7,1.0890794433668698
basic,70,44,0,0,0,9,"[0, 8, 20, 9]",4,7,"[4, 7, 11, 12, 14, 23, 24]",76.43801756,26362,1813,1,6,7,1.40892325509949
basic,70,44,0,0,0,4,"[0, 8, 20, 9, 4]",5,4,"[7, 12, 23, 24]",56.74030196,28235,1873,1,3,7,1.3849770570803555
basic,70,44,0,0,0,7,"[0, 8, 20, 9, 4, 7]",6,1,[23],25.72417712,29792,1557,1,0,7,1.3274380931474288
basic,70,44,0,0,1,23,"[0, 8, 20, 9, 4, 7, 23]",7,0,[],6.619203947,31176,1384,1,0,7,1.3395824779823196
basic,70,44,0,1,1,23,"[0, 8, 20, 9, 4, 7, 23]",7,0,[],6.619203947,32187,1011,1,0,7,1.3395824779823196
basic,71,42,0,0,0,0,[0],1,29,"[1, 2, 3, 4, 5, 6, 7, 8, 9, 10, 11, 12, 13, 14, 15, 16, 17, 18, 19, 20, 21, 22, 23, 24, 25, 26, 27, 28, 29]",300,146,-1,16,302,9,0.0
basic,71,42,0,0,0,5,"[0, 5]",2,28,"[1, 2, 3, 4, 6, 7, 8, 9, 10, 11, 12, 13, 14, 15, 16, 17, 18, 19, 20, 21, 22, 23, 24, 25, 26, 27, 28, 29]",191.2939744,2047,1901,1,22,9,1.0
basic,71,42,0,0,0,4,"[0, 5, 4]",3,23,"[1, 2, 3, 6, 7, 8, 9, 10, 11, 13, 15, 17, 18, 19, 20, 21, 22, 23, 24, 25, 26, 27, 29]",171.4445412,4171,2124,1,14,9,1.420957801478707
basic,71,42,0,0,0,22,"[0, 5, 4, 22]",4,20,"[1, 2, 3, 6, 7, 8, 9, 11, 15, 17, 18, 19, 20, 21, 23, 24, 25, 26, 27, 29]",160.2642013,5751,1580,1,11,9,1.5771494659680896
basic,71,42,0,0,0,8,"[0, 5, 4, 22, 8]",5,14,"[1, 2, 3, 6, 7, 11, 15, 18, 19, 24, 25, 26, 27, 29]",138.1282577,6635,884,1,10,9,1.5055393955524201
basic,71,42,0,0,0,1,"[0, 5, 4, 22, 8, 1]",6,5,"[2, 7, 19, 26, 27]",89.03650682,7509,874,1,7,9,1.3547259083637835
basic,71,42,0,0,0,7,"[0, 5, 4, 22, 8, 1, 7]",7,4,"[2, 19, 26, 27]",59.03650682,8370,861,1,3,9,1.3909715672447451
basic,71,42,0,0,0,26,"[0, 5, 4, 22, 8, 1, 7, 26]",8,1,[27],32.46584631,9986,1616,1,0,9,1.3511825943939393
basic,71,42,0,0,1,27,"[0, 5, 4, 22, 8, 1, 7, 26, 27]",9,0,[],14.43808994,11065,1079,1,0,9,1.3391911688802078
basic,71,42,0,1,1,27,"[0, 5, 4, 22, 8, 1, 7, 26, 27]",9,0,[],14.43808994,12249,1184,1,0,9,1.3391911688802078
basic,72,20,0,0,0,0,[0],1,21,"[1, 2, 3, 4, 5, 6, 7, 8, 9, 12, 17, 18, 20, 21, 22, 23, 25, 26, 27, 28, 29]",300,164,-1,1,9,9,0.0
