condition,trial_id,map_id,undoIndicator,submit,checkEnd,currentChoice,chosen_all,n_city_all,n_within_reach,cities_reach,currentBudget,time_all,rt_all,n_opt_paths_all,n_subopt_paths_all,mas_all,tortuosity_all
basic,0,34,0,0,0,0,[0],1,25,"[1, 3, 4, 5, 6, 7, 8, 9, 10, 11, 12, 13, 15, 18, 19, 20, 21, 22, 23, 24, 25, 26, 27, 28, 29]",300,308,-1,12,367,10,0.0
basic,0,34,0,0,0,13,"[0, 13]",2,24,"[1, 3, 4, 5, 6, 7, 8, 9, 10, 11, 12, 15, 18, 19, 20, 21, 22, 23, 24, 25, 26, 27, 28, 29]",279.9750156,6669,6361,12,331,10,1.0
basic,0,34,0,0,0,1,"[0, 13, 1]",3,16,"[3, 5, 7, 8, 9, 10, 11, 12, 19, 21, 22, 23, 24, 25, 27, 29]",211.8574701,7996,1327,3,92,10,1.0010381285747127
basic,0,34,0,0,0,8,"[0, 13, 1, 8]",4,14,"[3, 5, 7, 9, 10, 11, 12, 19, 22, 23, 24, 25, 27, 29]",201.0871405,10107,2111,2,54,10,1.1636807
basic,0,34,0,0,0,25,"[0, 13, 1, 8, 25]",5,12,"[3, 5, 7, 9, 10, 11, 12, 22, 23, 24, 27, 29]",183.999133,10974,867,2,28,10,1.1396208815936457
basic,0,34,0,0,0,24,"[0, 13, 1, 8, 25, 24]",6,11,"[3, 5, 7, 9, 10, 11, 12, 22, 23, 27, 29]",166.5062774,11524,550,2,23,10,1.374180768736554
basic,0,34,0,0,0,12,"[0, 13, 1, 8, 25, 24, 12]",7,7,"[7, 9, 10, 11, 22, 23, 27]",115.4670767,13971,2447,1,8,10,1.4994254760835948
basic,0,34,0,0,0,7,"[0, 13, 1, 8, 25, 24, 12, 7]",8,5,"[9, 11, 22, 23, 27]",100.4337804,14845,874,1,4,10,1.758992610425009
basic,0,34,0,0,0,23,"[0, 13, 1, 8, 25, 24, 12, 7, 23]",9,1,[27],72.27352467,15900,1055,1,0,10,2.399781305190153
basic,0,34,0,0,1,27,"[0, 13, 1, 8, 25, 24, 12, 7, 23, 27]",10,0,[],18.60789321,17263,1363,1,0,10,4.766619878750327
basic,0,34,0,1,1,27,"[0, 13, 1, 8, 25, 24, 12, 7, 23, 27]",10,0,[],18.60789321,21030,3767,1,0,10,4.766619878750327
basic,1,12,0,0,0,0,[0],1,29,"[1, 2, 3, 4, 5, 6, 7, 8, 9, 10, 11, 12, 13, 14, 15, 16, 17, 18, 19, 20, 21, 22, 23, 24, 25, 26, 27, 28, 29]",300,180,-1,2,32,9,0.0
basic,1,12,0,0,0,25,"[0, 25]",2,16,"[2, 4, 5, 6, 7, 9, 12, 14, 16, 18, 19, 22, 23, 24, 27, 28]",225.7975742,4210,4030,5,34,8,1.0
basic,1,12,0,0,0,16,"[0, 25, 16]",3,11,"[2, 4, 5, 6, 7, 12, 14, 19, 22, 24, 27]",169.0701557,5027,817,4,22,8,1.4434159828731936
basic,1,12,0,0,0,22,"[0, 25, 16, 22]",4,10,"[2, 4, 5, 6, 7, 12, 14, 19, 24, 27]",148.0701557,5979,952,2,13,8,1.726364042386772
basic,1,12,0,0,0,4,"[0, 25, 16, 22, 4]",5,5,"[12, 14, 19, 24, 27]",103.4719495,6842,863,2,5,8,1.5733828402319396
basic,1,12,0,0,0,12,"[0, 25, 16, 22, 4, 12]",6,2,"[14, 27]",61.28190329,9346,2504,1,1,8,1.4448405722842959
basic,1,12,0,0,0,27,"[0, 25, 16, 22, 4, 12, 27]",7,1,[14],36.93031196,10731,1385,1,0,8,1.537998507213724
basic,1,12,0,0,1,14,"[0, 25, 16, 22, 4, 12, 27, 14]",8,0,[],8.2772144,11547,816,1,0,8,1.5668177596106356
basic,1,12,0,1,1,14,"[0, 25, 16, 22, 4, 12, 27, 14]",8,0,[],8.2772144,14010,2463,1,0,8,1.5668177596106356
basic,2,30,0,0,0,0,[0],1,19,"[3, 4, 5, 7, 9, 11, 16, 17, 18, 19, 20, 21, 22, 24, 25, 26, 27, 28, 29]",300,165,-1,5,41,8,0.0
basic,2,30,0,0,0,16,"[0, 16]",2,17,"[3, 5, 7, 9, 11, 17, 18, 19, 20, 21, 22, 24, 25, 26, 27, 28, 29]",219.3774225,4808,4643,5,34,8,1.0
basic,2,30,0,0,0,25,"[0, 16, 25]",3,10,"[3, 5, 7, 9, 11, 18, 19, 20, 27, 29]",115.0845656,5825,1017,5,28,8,1.0336279544884488
basic,2,30,0,0,0,20,"[0, 16, 25, 20]",4,8,"[3, 5, 7, 9, 18, 19, 27, 29]",93.15285342,6727,902,4,14,8,1.0337964627284246
basic,2,30,0,0,0,27,"[0, 16, 25, 20, 27]",5,4,"[3, 5, 18, 29]",59.09408069,7541,814,4,6,8,1.1504365534848
basic,2,30,0,0,0,3,"[0, 16, 25, 20, 27, 3]",6,3,"[5, 18, 29]",39.98910751,8128,587,4,0,8,1.1403876826835333
basic,2,30,0,0,0,29,"[0, 16, 25, 20, 27, 3, 29]",7,1,[18],21.38803228,8829,701,1,0,8,1.1443827771455848
basic,2,30,0,0,1,18,"[0, 16, 25, 20, 27, 3, 29, 18]",8,0,[],2.074824359,9766,937,1,0,8,1.2197761544023602
basic,2,30,0,1,1,18,"[0, 16, 25, 20, 27, 3, 29, 18]",8,0,[],2.074824359,11643,1877,1,0,8,1.2197761544023602
basic,3,35,0,0,0,0,[0],1,29,"[1, 2, 3, 4, 5, 6, 7, 8, 9, 10, 11, 12, 13, 14, 15, 16, 17, 18, 19, 20, 21, 22, 23, 24, 25, 26, 27, 28, 29]",300,165,-1,5,236,11,0.0
basic,3,35,0,0,0,15,"[0, 15]",2,27,"[1, 2, 4, 5, 6, 7, 8, 9, 10, 11, 12, 13, 14, 16, 17, 18, 19, 20, 21, 22, 23, 24, 25, 26, 27, 28, 29]",244.4212271,4567,4402,9,149,10,1.0
basic,3,35,0,0,0,24,"[0, 15, 24]",3,21,"[1, 2, 4, 5, 6, 7, 8, 9, 10, 16, 17, 18, 19, 20, 21, 23, 25, 26, 27, 28, 29]",212.2187427,6063,1496,3,53,10,2.8301813252608574
basic,3,35,0,0,0,17,"[0, 15, 24, 17]",4,17,"[1, 2, 4, 5, 6, 9, 10, 16, 18, 19, 21, 23, 25, 26, 27, 28, 29]",200.5140428,6783,720,3,35,10,2.508403635477034
basic,3,35,0,0,0,1,"[0, 15, 24, 17, 1]",5,16,"[2, 4, 5, 6, 9, 10, 16, 18, 19, 21, 23, 25, 26, 27, 28, 29]",184.7026545,7487,704,3,30,10,2.4119939071293377
basic,3,35,0,0,0,9,"[0, 15, 24, 17, 1, 9]",6,6,"[5, 6, 18, 19, 23, 25]",115.1756813,9183,1696,10,7,9,1.64413366219499
basic,3,35,0,0,0,18,"[0, 15, 24, 17, 1, 9, 18]",7,4,"[5, 6, 23, 25]",95.15069691,9942,759,5,1,9,1.5925313145870033
basic,3,35,0,0,0,25,"[0, 15, 24, 17, 1, 9, 18, 25]",8,1,[6],61.31284828,10751,809,1,0,9,1.473911113757093
basic,3,35,0,0,1,6,"[0, 15, 24, 17, 1, 9, 18, 25, 6]",9,0,[],37.29202398,11519,768,1,0,9,1.7372373850600382
basic,3,35,0,1,1,6,"[0, 15, 24, 17, 1, 9, 18, 25, 6]",9,0,[],37.29202398,14362,2843,1,0,9,1.7372373850600382
basic,4,7,0,0,0,0,[0],1,29,"[1, 2, 3, 4, 5, 6, 7, 8, 9, 10, 11, 12, 13, 14, 15, 16, 17, 18, 19, 20, 21, 22, 23, 24, 25, 26, 27, 28, 29]",300,214,-1,3,79,9,0.0
basic,4,7,0,0,0,15,"[0, 15]",2,19,"[2, 4, 5, 6, 7, 8, 9, 10, 13, 14, 16, 18, 19, 20, 21, 23, 25, 27, 28]",230.9348134,2753,2539,2,38,9,1.0
basic,4,7,0,0,0,6,"[0, 15, 6]",3,18,"[2, 4, 5, 7, 8, 9, 10, 13, 14, 16, 18, 19, 20, 21, 23, 25, 27, 28]",205.854941,3306,553,2,36,9,1.366719602896943
basic,4,7,0,0,0,25,"[0, 15, 6, 25]",4,11,"[2, 4, 7, 13, 14, 16, 18, 19, 20, 21, 23]",138.6760753,4425,1119,2,28,9,1.3624631728355765
basic,4,7,0,0,0,4,"[0, 15, 6, 25, 4]",5,7,"[2, 7, 13, 16, 18, 19, 20]",113.9374415,5113,688,2,12,9,1.3249684384385587
basic,4,7,0,0,0,20,"[0, 15, 6, 25, 4, 20]",6,5,"[2, 7, 13, 18, 19]",94.29055881,6276,1163,1,6,9,1.3721893242679268
basic,4,7,0,0,0,18,"[0, 15, 6, 25, 4, 20, 18]",7,3,"[7, 13, 19]",81.48431034,7954,1678,1,2,9,1.5262542308371432
basic,4,7,0,0,0,7,"[0, 15, 6, 25, 4, 20, 18, 7]",8,1,[19],40.25325408,9061,1107,1,0,9,1.41986878673423
basic,4,7,0,0,1,19,"[0, 15, 6, 25, 4, 20, 18, 7, 19]",9,0,[],10.84237174,10138,1077,1,0,9,1.5285658163212987
basic,4,7,0,1,1,19,"[0, 15, 6, 25, 4, 20, 18, 7, 19]",9,0,[],10.84237174,11642,1504,1,0,9,1.5285658163212987
basic,5,40,0,0,0,0,[0],1,29,"[1, 2, 3, 4, 5, 6, 7, 8, 9, 10, 11, 12, 13, 14, 15, 16, 17, 18, 19, 20, 21, 22, 23, 24, 25, 26, 27, 28, 29]",300,149,-1,8,191,9,0.0
basic,5,40,0,0,0,1,"[0, 1]",2,18,"[2, 5, 6, 7, 8, 9, 10, 11, 13, 15, 17, 18, 19, 21, 22, 23, 27, 29]",247.8463808,4813,4664,4,80,9,1.0
basic,5,40,0,0,0,6,"[0, 1, 6]",3,17,"[2, 5, 7, 8, 9, 10, 11, 13, 15, 17, 18, 19, 21, 22, 23, 27, 29]",227.7466295,5565,752,4,74,9,1.0459427008232034
basic,5,40,0,0,0,21,"[0, 1, 6, 21]",4,8,"[2, 5, 9, 17, 18, 19, 22, 23]",175.7754837,6577,1012,4,25,9,1.0308822257404064
basic,5,40,0,0,0,9,"[0, 1, 6, 21, 9]",5,6,"[2, 5, 18, 19, 22, 23]",130.0699041,7421,844,4,12,9,1.377861912961129
basic,5,40,0,0,0,18,"[0, 1, 6, 21, 9, 18]",6,5,"[2, 5, 19, 22, 23]",113.5169588,8125,704,4,4,9,1.5742712168661408
basic,5,40,0,0,0,5,"[0, 1, 6, 21, 9, 18, 5]",7,3,"[19, 22, 23]",81.94165198,9085,960,2,1,9,1.7730665063055515
basic,5,40,0,0,0,19,"[0, 1, 6, 21, 9, 18, 5, 19]",8,1,[23],43.86278645,10012,927,1,0,9,2.4966727914503504
basic,5,40,0,0,1,23,"[0, 1, 6, 21, 9, 18, 5, 19, 23]",9,0,[],11.90969584,11028,1016,1,0,9,3.0374134989796913
basic,5,40,0,1,1,23,"[0, 1, 6, 21, 9, 18, 5, 19, 23]",9,0,[],11.90969584,12628,1600,1,0,9,3.0374134989796913
basic,6,4,0,0,0,0,[0],1,26,"[3, 4, 5, 6, 7, 8, 10, 11, 12, 13, 14, 15, 16, 17, 18, 19, 20, 21, 22, 23, 24, 25, 26, 27, 28, 29]",300,282,-1,4,489,10,0.0
basic,6,4,0,0,0,28,"[0, 28]",2,21,"[3, 4, 5, 6, 10, 11, 12, 13, 14, 15, 16, 17, 19, 20, 21, 22, 23, 24, 25, 26, 27]",225.9392142,4474,4192,2,216,10,1.0
basic,6,4,0,0,0,14,"[0, 28, 14]",3,13,"[3, 4, 5, 6, 11, 13, 16, 17, 20, 21, 22, 24, 25]",159.6972335,5462,988,1,26,10,1.0273973946789214
basic,6,4,0,0,0,25,"[0, 28, 14, 25]",4,12,"[3, 4, 5, 6, 11, 13, 16, 17, 20, 21, 22, 24]",143.572718,6071,609,1,25,10,1.233547772313525
basic,6,4,0,0,0,11,"[0, 28, 14, 25, 11]",5,10,"[3, 4, 5, 6, 13, 16, 17, 20, 21, 22]",124.7844238,6678,607,1,15,10,1.425978575879479
basic,6,4,0,0,0,16,"[0, 28, 14, 25, 11, 16]",6,9,"[3, 4, 5, 6, 13, 17, 20, 21, 22]",109.7844238,7151,473,1,12,10,1.3799325158051412
basic,6,4,0,0,0,3,"[0, 28, 14, 25, 11, 16, 3]",7,2,"[17, 20]",68.15510719,7929,778,1,1,9,1.3292844629725955
basic,6,4,0,0,0,17,"[0, 28, 14, 25, 11, 16, 3, 17]",8,1,[20],43.63980585,8729,800,1,0,9,1.5639571149270572
basic,6,4,0,0,1,20,"[0, 28, 14, 25, 11, 16, 3, 17, 20]",9,0,[],3.415435124,13319,4590,1,0,9,1.6231058358944275
basic,6,4,0,1,1,20,"[0, 28, 14, 25, 11, 16, 3, 17, 20]",9,0,[],3.415435124,15247,1928,1,0,9,1.6231058358944275
basic,7,37,0,0,0,0,[0],1,29,"[1, 2, 3, 4, 5, 6, 7, 8, 9, 10, 11, 12, 13, 14, 15, 16, 17, 18, 19, 20, 21, 22, 23, 24, 25, 26, 27, 28, 29]",300,168,-1,6,168,10,0.0
basic,7,37,0,0,0,18,"[0, 18]",2,19,"[1, 2, 4, 6, 7, 9, 10, 12, 14, 15, 17, 19, 20, 21, 22, 23, 26, 28, 29]",202.4090168,3397,3229,6,89,10,1.0
basic,7,37,0,0,0,7,"[0, 18, 7]",3,12,"[1, 2, 4, 9, 15, 17, 19, 20, 21, 22, 26, 29]",175.2428614,4828,1431,6,53,10,1.0413073512834488
basic,7,37,0,0,0,22,"[0, 18, 7, 22]",4,8,"[1, 2, 4, 15, 19, 20, 21, 26]",125.2428614,5608,780,6,29,10,1.0730792320325544
basic,7,37,0,0,0,4,"[0, 18, 7, 22, 4]",5,7,"[1, 2, 15, 19, 20, 21, 26]",100.2428614,6100,492,4,16,10,1.2290245562206235
basic,7,37,0,0,0,2,"[0, 18, 7, 22, 4, 2]",6,5,"[1, 15, 19, 20, 21]",88.84110714,6980,880,4,7,10,1.3968113858365216
basic,7,37,0,0,0,1,"[0, 18, 7, 22, 4, 2, 1]",7,4,"[15, 19, 20, 21]",71.63645661,7716,736,4,3,10,1.4424239294761476
basic,7,37,0,0,0,15,"[0, 18, 7, 22, 4, 2, 1, 15]",8,2,"[20, 21]",31.67397421,8436,720,2,0,10,1.612564167414217
basic,7,37,0,0,0,20,"[0, 18, 7, 22, 4, 2, 1, 15, 20]",9,1,[21],14.67397421,9875,1439,1,0,10,1.9034852470814607
basic,7,37,0,0,1,21,"[0, 18, 7, 22, 4, 2, 1, 15, 20, 21]",10,0,[],0.251769103,10341,466,1,0,10,1.9314492588202221
basic,7,37,0,1,1,21,"[0, 18, 7, 22, 4, 2, 1, 15, 20, 21]",10,0,[],0.251769103,12110,1769,1,0,10,1.9314492588202221
basic,8,43,0,0,0,0,[0],1,23,"[1, 2, 3, 4, 5, 6, 7, 9, 10, 11, 12, 14, 15, 16, 17, 19, 20, 21, 22, 23, 25, 27, 29]",300,166,-1,16,556,12,0.0
basic,8,43,0,0,0,29,"[0, 29]",2,22,"[1, 2, 3, 4, 5, 6, 7, 9, 10, 11, 12, 14, 15, 16, 17, 19, 20, 21, 22, 23, 25, 27]",277.909278,4293,4127,16,520,12,1.0
basic,8,43,0,0,0,20,"[0, 29, 20]",3,20,"[1, 2, 3, 4, 6, 7, 9, 10, 11, 12, 14, 15, 16, 17, 19, 21, 22, 23, 25, 27]",254.4785289,5547,1254,15,422,12,1.082311746871282
basic,8,43,0,0,0,16,"[0, 29, 20, 16]",4,19,"[1, 2, 3, 4, 6, 7, 9, 10, 11, 12, 14, 15, 17, 19, 21, 22, 23, 25, 27]",231.8511119,6115,568,15,389,12,1.215201926898219
basic,8,43,0,0,0,25,"[0, 29, 20, 16, 25]",5,14,"[1, 2, 3, 4, 6, 7, 9, 11, 12, 14, 15, 19, 22, 23]",175.7708124,7212,1097,53,282,11,1.566384303308987
basic,8,43,0,0,0,15,"[0, 29, 20, 16, 25, 15]",6,13,"[1, 2, 3, 4, 6, 7, 9, 11, 12, 14, 19, 22, 23]",153.0992443,8013,801,27,108,11,1.776736412604812
basic,8,43,0,0,0,12,"[0, 29, 20, 16, 25, 15, 12]",7,10,"[1, 3, 6, 7, 9, 11, 14, 19, 22, 23]",133.7860364,8756,743,21,41,11,1.6813323012225032
basic,8,43,0,0,0,3,"[0, 29, 20, 16, 25, 15, 12, 3]",8,9,"[1, 6, 7, 9, 11, 14, 19, 22, 23]",120.7860364,9247,491,20,12,11,1.608740348096123
basic,8,43,0,0,0,22,"[0, 29, 20, 16, 25, 15, 12, 3, 22]",9,6,"[1, 6, 7, 11, 14, 19]",86.07292644,11867,2620,9,2,11,1.793657891802588
basic,8,43,0,0,0,19,"[0, 29, 20, 16, 25, 15, 12, 3, 22, 19]",10,3,"[1, 6, 7]",65.45739831,12491,624,3,0,11,1.6882745891803936
basic,8,43,0,0,1,1,"[0, 29, 20, 16, 25, 15, 12, 3, 22, 19, 1]",11,0,[],37.2793927,13292,801,1,0,11,1.825064866046553
basic,8,43,0,1,1,1,"[0, 29, 20, 16, 25, 15, 12, 3, 22, 19, 1]",11,0,[],37.2793927,18568,5276,1,0,11,1.825064866046553
basic,9,3,0,0,0,0,[0],1,29,"[1, 2, 3, 4, 5, 6, 7, 8, 9, 10, 11, 12, 13, 14, 15, 16, 17, 18, 19, 20, 21, 22, 23, 24, 25, 26, 27, 28, 29]",300,164,-1,34,427,10,0.0
basic,9,3,0,0,0,8,"[0, 8]",2,28,"[1, 2, 3, 4, 5, 6, 7, 9, 10, 11, 12, 13, 14, 15, 16, 17, 18, 19, 20, 21, 22, 23, 24, 25, 26, 27, 28, 29]",239.9666759,3571,3407,1,54,10,1.0
basic,9,3,0,0,0,24,"[0, 8, 24]",3,23,"[1, 2, 3, 4, 5, 6, 7, 10, 11, 12, 14, 15, 16, 17, 18, 19, 20, 21, 22, 25, 26, 27, 28]",227.8011509,5303,1732,1,50,10,1.2267083825981846
basic,9,3,0,0,0,14,"[0, 8, 24, 14]",4,10,"[3, 4, 7, 10, 16, 17, 19, 20, 21, 22]",156.6885641,7459,2156,11,34,9,1.1134869392511408
basic,9,3,0,0,0,21,"[0, 8, 24, 14, 21]",5,6,"[3, 4, 10, 17, 19, 20]",129.781316,8778,1319,5,9,9,1.1069743794257796
basic,9,3,0,0,0,19,"[0, 8, 24, 14, 21, 19]",6,5,"[3, 4, 10, 17, 20]",117.5747604,9631,853,5,2,9,1.2361067774463228
basic,9,3,0,0,0,3,"[0, 8, 24, 14, 21, 19, 3]",7,2,"[17, 20]",80.23845095,10680,1049,2,0,9,1.7566876040075643
basic,9,3,0,0,0,20,"[0, 8, 24, 14, 21, 19, 3, 20]",8,1,[17],59.8423729,11664,984,1,0,9,2.1212226227760778
basic,9,3,0,0,1,17,"[0, 8, 24, 14, 21, 19, 3, 20, 17]",9,0,[],47.19326226,12640,976,1,0,9,2.4711452839916217
basic,9,3,0,1,1,17,"[0, 8, 24, 14, 21, 19, 3, 20, 17]",9,0,[],47.19326226,14795,2155,1,0,9,2.4711452839916217
basic,10,15,0,0,0,0,[0],1,25,"[1, 2, 3, 4, 7, 8, 9, 10, 11, 12, 13, 14, 15, 16, 18, 20, 21, 22, 23, 24, 25, 26, 27, 28, 29]",300,168,-1,4,65,9,0.0
basic,10,15,0,0,0,21,"[0, 21]",2,17,"[1, 3, 4, 7, 8, 9, 11, 12, 13, 14, 15, 16, 22, 23, 24, 26, 27]",204.9158268,2907,2739,21,65,7,1.0
basic,10,15,0,0,0,12,"[0, 21, 12]",3,14,"[1, 3, 4, 7, 8, 9, 11, 13, 14, 15, 16, 22, 24, 27]",161.0866128,3441,534,20,39,7,1.6068212046294776
basic,10,15,0,0,0,7,"[0, 21, 12, 7]",4,10,"[3, 4, 9, 11, 13, 14, 15, 16, 22, 27]",127.8450725,5793,2352,13,11,7,2.0298522511797907
basic,10,15,0,0,0,16,"[0, 21, 12, 7, 16]",5,5,"[3, 4, 11, 15, 22]",84.18731258,6529,736,3,3,7,1.8904046427013528
basic,10,15,0,0,0,11,"[0, 21, 12, 7, 16, 11]",6,1,[3],58.16808892,7233,704,1,0,7,1.9475991988988648
basic,10,15,0,0,1,3,"[0, 21, 12, 7, 16, 11, 3]",7,0,[],46.76633467,7753,520,1,0,7,1.912955285957019
basic,10,15,0,1,1,3,"[0, 21, 12, 7, 16, 11, 3]",7,0,[],46.76633467,10742,2989,1,0,7,1.912955285957019
basic,11,0,0,0,0,0,[0],1,27,"[2, 3, 4, 5, 6, 7, 8, 9, 10, 11, 12, 13, 14, 15, 16, 17, 19, 20, 21, 22, 23, 24, 25, 26, 27, 28, 29]",300,281,-1,104,1136,9,0.0
basic,11,0,0,0,0,28,"[0, 28]",2,26,"[2, 3, 4, 5, 6, 7, 8, 9, 10, 11, 12, 13, 14, 15, 16, 17, 19, 20, 21, 22, 23, 24, 25, 26, 27, 29]",194.9190788,4257,3976,39,388,9,1.0
basic,11,0,0,0,0,5,"[0, 28, 5]",3,21,"[2, 3, 4, 7, 8, 9, 11, 12, 13, 14, 15, 16, 17, 19, 20, 21, 23, 24, 25, 26, 29]",151.2613189,5675,1418,27,210,9,1.0978295127671733
basic,11,0,0,0,0,12,"[0, 28, 5, 12]",4,11,"[3, 4, 7, 8, 13, 14, 15, 17, 23, 24, 26]",92.3631016,7873,2198,1,9,8,1.3308690478575147
basic,11,0,0,0,0,26,"[0, 28, 5, 12, 26]",5,5,"[4, 7, 15, 17, 24]",57.1352717,8519,646,1,3,8,1.503294928431544
basic,11,0,0,0,0,4,"[0, 28, 5, 12, 26, 4]",6,2,"[15, 24]",45.09367712,9363,844,1,1,8,1.6283706077939981
basic,11,0,0,0,0,24,"[0, 28, 5, 12, 26, 4, 24]",7,1,[15],33.69192287,10305,942,1,0,8,1.596262565589366
basic,11,0,0,0,1,15,"[0, 28, 5, 12, 26, 4, 24, 15]",8,0,[],10.34668781,11440,1135,1,0,8,1.5323212923915361
basic,11,0,0,1,1,15,"[0, 28, 5, 12, 26, 4, 24, 15]",8,0,[],10.34668781,13511,2071,1,0,8,1.5323212923915361
basic,12,36,0,0,0,0,[0],1,24,"[2, 4, 5, 6, 7, 8, 9, 10, 12, 13, 14, 15, 16, 17, 18, 19, 20, 22, 23, 25, 26, 27, 28, 29]",300,165,-1,2,200,10,0.0
basic,12,36,0,0,0,18,"[0, 18]",2,21,"[2, 4, 5, 6, 7, 8, 9, 10, 12, 13, 14, 16, 17, 19, 22, 23, 25, 26, 27, 28, 29]",279.6039219,3390,3225,2,110,10,1.0
basic,12,36,0,0,0,16,"[0, 18, 16]",3,9,"[2, 9, 10, 12, 13, 17, 19, 23, 25]",169.581197,4474,1084,4,33,9,1.2218591943452424
basic,12,36,0,0,0,17,"[0, 18, 16, 17]",4,7,"[2, 9, 10, 12, 13, 19, 25]",141.2615925,5430,956,4,21,9,1.6795129314662942
basic,12,36,0,0,0,9,"[0, 18, 16, 17, 9]",5,5,"[2, 12, 13, 19, 25]",115.012783,5886,456,3,6,9,2.6784437443596194
basic,12,36,0,0,0,19,"[0, 18, 16, 17, 9, 19]",6,4,"[2, 12, 13, 25]",99.88003706,6360,474,3,3,9,2.5963344600994773
basic,12,36,0,0,0,2,"[0, 18, 16, 17, 9, 19, 2]",7,2,"[13, 25]",62.75861467,7229,869,2,0,9,2.100797884988348
basic,12,36,0,0,0,25,"[0, 18, 16, 17, 9, 19, 2, 25]",8,1,[13],37.75861467,7950,721,1,0,9,2.290514334927331
basic,12,36,0,0,1,13,"[0, 18, 16, 17, 9, 19, 2, 25, 13]",9,0,[],17.16735439,8428,478,1,0,9,2.883646365994176
basic,12,36,0,1,1,13,"[0, 18, 16, 17, 9, 19, 2, 25, 13]",9,0,[],17.16735439,9891,1463,1,0,9,2.883646365994176
basic,13,6,0,0,0,0,[0],1,29,"[1, 2, 3, 4, 5, 6, 7, 8, 9, 10, 11, 12, 13, 14, 15, 16, 17, 18, 19, 20, 21, 22, 23, 24, 25, 26, 27, 28, 29]",300,165,-1,180,4304,10,0.0
basic,13,6,0,0,0,1,"[0, 1]",2,23,"[2, 3, 6, 7, 8, 9, 10, 12, 13, 14, 15, 16, 17, 18, 19, 20, 21, 22, 23, 24, 26, 27, 29]",250.6644145,6831,6666,7,266,10,1.0
basic,13,6,0,0,0,13,"[0, 1, 13]",3,22,"[2, 3, 6, 7, 8, 9, 10, 12, 14, 15, 16, 17, 18, 19, 20, 21, 22, 23, 24, 26, 27, 29]",233.6350281,7481,650,7,257,10,2.0046272874013185
basic,13,6,0,0,0,3,"[0, 1, 13, 3]",4,20,"[2, 6, 7, 8, 9, 10, 12, 14, 15, 16, 17, 18, 20, 21, 22, 23, 24, 26, 27, 29]",171.5061298,8920,1439,5,146,10,3.8326508251916236
basic,13,6,0,0,0,16,"[0, 1, 13, 3, 16]",5,15,"[2, 6, 7, 10, 14, 17, 18, 20, 21, 22, 23, 24, 26, 27, 29]",125.2676177,10000,1080,16,28,9,2.420775617851305
basic,13,6,0,0,0,18,"[0, 1, 13, 3, 16, 18]",6,10,"[2, 6, 7, 10, 17, 22, 23, 24, 26, 29]",101.9223827,11328,1328,8,6,9,3.252422722482003
basic,13,6,0,0,0,17,"[0, 1, 13, 3, 16, 18, 17]",7,6,"[7, 10, 23, 24, 26, 29]",87.99399441,12049,721,4,3,9,3.003930584631259
basic,13,6,0,0,0,10,"[0, 1, 13, 3, 16, 18, 17, 10]",8,2,"[7, 24]",68.27091148,13016,967,2,0,9,2.7474109382128447
basic,13,6,0,0,1,24,"[0, 1, 13, 3, 16, 18, 17, 10, 24]",9,0,[],54.85450362,13840,824,1,0,9,2.519652617494248
basic,13,6,0,1,1,24,"[0, 1, 13, 3, 16, 18, 17, 10, 24]",9,0,[],54.85450362,16214,2374,1,0,9,2.519652617494248
basic,14,29,0,0,0,0,[0],1,29,"[1, 2, 3, 4, 5, 6, 7, 8, 9, 10, 11, 12, 13, 14, 15, 16, 17, 18, 19, 20, 21, 22, 23, 24, 25, 26, 27, 28, 29]",300,167,-1,1,78,9,0.0
basic,14,29,0,0,0,14,"[0, 14]",2,22,"[1, 3, 4, 5, 6, 7, 9, 10, 11, 12, 13, 15, 16, 17, 21, 22, 23, 25, 26, 27, 28, 29]",209.490332,3438,3271,21,110,8,1.0
basic,14,29,0,0,0,13,"[0, 14, 13]",3,18,"[1, 4, 5, 6, 7, 9, 10, 12, 15, 16, 17, 21, 22, 25, 26, 27, 28, 29]",191.4625756,5041,1603,20,75,8,1.0027006502223275
basic,14,29,0,0,0,5,"[0, 14, 13, 5]",4,15,"[1, 4, 6, 7, 9, 12, 15, 17, 21, 22, 25, 26, 27, 28, 29]",165.7526554,5709,668,19,49,8,1.0803937325657265
basic,14,29,0,0,0,7,"[0, 14, 13, 5, 7]",5,8,"[4, 9, 12, 21, 22, 26, 27, 28]",102.2231347,7060,1351,3,12,8,1.2026521321069321
basic,14,29,0,0,0,12,"[0, 14, 13, 5, 7, 12]",6,7,"[4, 9, 21, 22, 26, 27, 28]",88.62166416,7885,825,3,4,8,1.3692133279803023
basic,14,29,0,0,0,22,"[0, 14, 13, 5, 7, 12, 22]",7,1,[27],50.67433224,8717,832,1,0,8,2.1316115728184912
basic,14,29,0,0,1,27,"[0, 14, 13, 5, 7, 12, 22, 27]",8,0,[],17.43279196,9478,761,1,0,8,2.6081028152142105
basic,14,29,0,1,1,27,"[0, 14, 13, 5, 7, 12, 22, 27]",8,0,[],17.43279196,12009,2531,1,0,8,2.6081028152142105
basic,15,8,0,0,0,0,[0],1,29,"[1, 2, 3, 4, 5, 6, 7, 8, 9, 10, 11, 12, 13, 14, 15, 16, 17, 18, 19, 20, 21, 22, 23, 24, 25, 26, 27, 28, 29]",300,170,-1,10,149,9,0.0
basic,15,8,0,0,0,5,"[0, 5]",2,28,"[1, 2, 3, 4, 6, 7, 8, 9, 10, 11, 12, 13, 14, 15, 16, 17, 18, 19, 20, 21, 22, 23, 24, 25, 26, 27, 28, 29]",254.5137383,7866,7696,10,100,9,1.0
basic,15,8,0,0,0,25,"[0, 5, 25]",3,20,"[1, 2, 3, 4, 6, 11, 12, 14, 15, 16, 17, 18, 19, 20, 21, 22, 23, 24, 28, 29]",215.3091468,12106,4240,4,42,9,1.2272747879909065
basic,15,8,0,0,0,14,"[0, 5, 25, 14]",4,16,"[1, 3, 4, 6, 11, 15, 16, 17, 18, 19, 20, 21, 22, 23, 24, 28]",170.2092576,13585,1479,1,13,9,1.5190857385933465
basic,15,8,0,0,0,17,"[0, 5, 25, 14, 17]",5,9,"[1, 4, 11, 15, 16, 18, 23, 24, 28]",133.1957466,14350,765,1,9,9,1.5271682935559303
basic,15,8,0,0,0,11,"[0, 5, 25, 14, 17, 11]",6,5,"[15, 16, 18, 24, 28]",108.01639,14930,580,1,6,9,1.4664212485560129
basic,15,8,0,0,0,24,"[0, 5, 25, 14, 17, 11, 24]",7,2,"[15, 16]",70.80080183,15746,816,1,1,9,1.3920548417170795
basic,15,8,0,0,0,15,"[0, 5, 25, 14, 17, 11, 24, 15]",8,1,[16],54.03774722,16587,841,1,0,9,1.4585932832823736
basic,15,8,0,0,1,16,"[0, 5, 25, 14, 17, 11, 24, 15, 16]",9,0,[],2.959376062,17642,1055,1,0,9,1.6043130175078746
basic,15,8,0,1,1,16,"[0, 5, 25, 14, 17, 11, 24, 15, 16]",9,0,[],2.959376062,20135,2493,1,0,9,1.6043130175078746
basic,16,18,0,0,0,0,[0],1,28,"[1, 2, 3, 4, 5, 6, 7, 8, 9, 10, 11, 12, 13, 14, 16, 17, 18, 19, 20, 21, 22, 23, 24, 25, 26, 27, 28, 29]",300,172,-1,3,136,10,0.0
basic,16,18,0,0,0,28,"[0, 28]",2,16,"[1, 3, 5, 7, 8, 9, 12, 13, 14, 16, 20, 23, 24, 25, 26, 27]",236.4311397,4759,4587,2,19,10,1.0
basic,16,18,0,0,0,7,"[0, 28, 7]",3,15,"[1, 3, 5, 8, 9, 12, 13, 14, 16, 20, 23, 24, 25, 26, 27]",214.4084242,6528,1769,2,17,10,1.4345180696367563
basic,16,18,0,0,0,25,"[0, 28, 7, 25]",4,13,"[1, 3, 5, 8, 9, 12, 13, 14, 16, 20, 23, 26, 27]",186.6055466,8104,1576,2,15,10,1.8896451241781882
basic,16,18,0,0,0,8,"[0, 28, 7, 25, 8]",5,10,"[3, 5, 9, 12, 13, 14, 16, 23, 26, 27]",149.551532,10903,2799,2,10,10,1.590467437592877
basic,16,18,0,0,0,13,"[0, 28, 7, 25, 8, 13]",6,9,"[3, 5, 9, 12, 14, 16, 23, 26, 27]",128.4565089,11840,937,2,5,10,1.8248274983549797
basic,16,18,0,0,0,14,"[0, 28, 7, 25, 8, 13, 14]",7,7,"[3, 5, 9, 12, 23, 26, 27]",109.4828429,12649,809,2,3,10,1.6993534956692746
basic,16,18,0,0,0,3,"[0, 28, 7, 25, 8, 13, 14, 3]",8,3,"[5, 12, 27]",79.39962499,13267,618,2,1,10,1.802637206541468
basic,16,18,0,0,0,5,"[0, 28, 7, 25, 8, 13, 14, 3, 5]",9,1,[12],21.21887216,14251,984,1,0,10,1.559774889743805
basic,16,18,0,0,1,12,"[0, 28, 7, 25, 8, 13, 14, 3, 5, 12]",10,0,[],9.817117911,15216,965,1,0,10,1.563993037384447
basic,16,18,0,1,1,12,"[0, 28, 7, 25, 8, 13, 14, 3, 5, 12]",10,0,[],9.817117911,17065,1849,1,0,10,1.563993037384447
basic,17,20,0,0,0,0,[0],1,21,"[1, 2, 3, 4, 5, 6, 7, 8, 9, 12, 17, 18, 20, 21, 22, 23, 25, 26, 27, 28, 29]",300,214,-1,1,9,9,0.0
basic,17,20,0,0,0,12,"[0, 12]",2,20,"[1, 2, 3, 4, 5, 6, 7, 8, 9, 17, 18, 20, 21, 22, 23, 25, 26, 27, 28, 29]",271.5570747,4810,4596,1,8,9,1.0
basic,17,20,0,0,0,1,"[0, 12, 1]",3,12,"[3, 4, 5, 6, 8, 9, 20, 21, 23, 27, 28, 29]",189.5692707,5708,898,1,6,9,1.0757997779162911
basic,17,20,0,0,0,5,"[0, 12, 1, 5]",4,10,"[4, 6, 8, 9, 20, 21, 23, 27, 28, 29]",152.8950291,6542,834,1,5,9,1.1708231454516806
basic,17,20,0,0,0,28,"[0, 12, 1, 5, 28]",5,4,"[8, 9, 21, 23]",82.8593239,7866,1324,2,2,7,1.1313554119713172
basic,17,20,0,0,0,21,"[0, 12, 1, 5, 28, 21]",6,1,[8],46.61018598,8955,1089,1,0,7,1.4854739689057037
basic,17,20,0,0,1,8,"[0, 12, 1, 5, 28, 21, 8]",7,0,[],29.14593678,9946,991,1,0,7,1.473382662603891
basic,17,20,0,1,1,8,"[0, 12, 1, 5, 28, 21, 8]",7,0,[],29.14593678,11792,1846,1,0,7,1.473382662603891
basic,18,41,0,0,0,0,[0],1,29,"[1, 2, 3, 4, 5, 6, 7, 8, 9, 10, 11, 12, 13, 14, 15, 16, 17, 18, 19, 20, 21, 22, 23, 24, 25, 26, 27, 28, 29]",300,167,-1,1,143,10,0.0
basic,18,41,0,0,0,13,"[0, 13]",2,23,"[1, 2, 3, 5, 6, 7, 9, 10, 11, 12, 14, 15, 17, 18, 19, 20, 21, 22, 24, 25, 26, 27, 28]",258.2747079,5176,5009,1,55,10,1.0
basic,18,41,0,0,0,28,"[0, 13, 28]",3,22,"[1, 2, 3, 5, 6, 7, 9, 10, 11, 12, 14, 15, 17, 18, 19, 20, 21, 22, 24, 25, 26, 27]",223.7928286,6015,839,1,39,10,1.895724242592676
basic,18,41,0,0,0,5,"[0, 13, 28, 5]",4,19,"[1, 2, 3, 6, 9, 10, 11, 12, 14, 15, 17, 18, 19, 20, 21, 22, 24, 25, 27]",210.1913581,6920,905,1,34,10,2.861541269398273
basic,18,41,0,0,0,22,"[0, 13, 28, 5, 22]",5,12,"[2, 3, 6, 9, 10, 11, 12, 17, 18, 20, 21, 25]",155.4464953,9631,2711,11,12,9,2.096079268852861
basic,18,41,0,0,0,3,"[0, 13, 28, 5, 22, 3]",6,8,"[2, 9, 10, 12, 17, 18, 20, 21]",125.4798472,10497,866,7,5,9,4.404491319005463
basic,18,41,0,0,0,21,"[0, 13, 28, 5, 22, 3, 21]",7,4,"[2, 9, 12, 17]",93.33952984,11504,1007,5,1,9,4.228139797553632
basic,18,41,0,0,0,9,"[0, 13, 28, 5, 22, 3, 21, 9]",8,2,"[2, 17]",43.97354965,13008,1504,2,0,9,3.111188754077749
basic,18,41,0,0,1,2,"[0, 13, 28, 5, 22, 3, 21, 9, 2]",9,0,[],31.89050368,13634,626,1,0,9,2.963304814480547
basic,18,41,0,1,1,2,"[0, 13, 28, 5, 22, 3, 21, 9, 2]",9,0,[],31.89050368,16414,2780,1,0,9,2.963304814480547
basic,19,32,0,0,0,0,[0],1,29,"[1, 2, 3, 4, 5, 6, 7, 8, 9, 10, 11, 12, 13, 14, 15, 16, 17, 18, 19, 20, 21, 22, 23, 24, 25, 26, 27, 28, 29]",300,165,-1,17,359,10,0.0
basic,19,32,0,0,0,15,"[0, 15]",2,24,"[2, 3, 4, 5, 6, 7, 8, 9, 10, 11, 12, 13, 14, 16, 17, 19, 20, 22, 23, 24, 25, 26, 27, 28]",214.6185032,4534,4369,11,153,9,1.0
basic,19,32,0,0,0,28,"[0, 15, 28]",3,21,"[2, 3, 5, 7, 8, 9, 10, 11, 12, 13, 14, 16, 17, 19, 20, 22, 23, 24, 25, 26, 27]",203.2167489,5310,776,11,119,9,1.000160051986942
basic,19,32,0,0,0,12,"[0, 15, 28, 12]",4,19,"[2, 3, 5, 7, 8, 9, 10, 11, 13, 16, 17, 19, 20, 22, 23, 24, 25, 26, 27]",184.243083,6013,703,8,71,9,1.0281484763748023
basic,19,32,0,0,0,16,"[0, 15, 28, 12, 16]",5,17,"[2, 3, 5, 7, 8, 9, 10, 11, 13, 17, 19, 20, 22, 23, 24, 26, 27]",168.5906071,6561,548,6,38,9,1.1190771370096
basic,19,32,0,0,0,22,"[0, 15, 28, 12, 16, 22]",6,10,"[2, 3, 5, 8, 9, 10, 11, 17, 20, 27]",134.7527585,8994,2433,4,16,9,1.1702311155319893
basic,19,32,0,0,0,9,"[0, 15, 28, 12, 16, 22, 9]",7,6,"[2, 8, 10, 17, 20, 27]",112.5491552,9913,919,2,4,9,1.2381424719932013
basic,19,32,0,0,0,8,"[0, 15, 28, 12, 16, 22, 9, 8]",8,1,[20],67.42709849,11614,1701,1,0,9,1.187013645273504
basic,19,32,0,0,1,20,"[0, 15, 28, 12, 16, 22, 9, 8, 20]",9,0,[],17.09818036,12557,943,1,0,9,1.3986201165175596
basic,19,32,0,1,1,20,"[0, 15, 28, 12, 16, 22, 9, 8, 20]",9,0,[],17.09818036,14045,1488,1,0,9,1.3986201165175596
basic,20,28,0,0,0,0,[0],1,27,"[1, 2, 3, 4, 5, 6, 7, 8, 9, 10, 11, 12, 13, 14, 15, 16, 17, 18, 19, 20, 22, 23, 25, 26, 27, 28, 29]",300,164,-1,2,96,9,0.0
basic,20,28,0,0,0,5,"[0, 5]",2,21,"[2, 3, 4, 6, 7, 8, 9, 10, 11, 12, 13, 14, 15, 18, 19, 20, 23, 25, 26, 28, 29]",169.6427984,7669,7505,4,42,8,1.0
basic,20,28,0,0,0,26,"[0, 5, 26]",3,15,"[2, 3, 4, 7, 8, 9, 12, 13, 14, 15, 18, 19, 20, 25, 28]",136.8861197,10438,2769,4,35,8,1.0149913611821164
basic,20,28,0,0,0,19,"[0, 5, 26, 19]",4,7,"[2, 7, 9, 12, 13, 14, 18]",95.88611973,11497,1059,3,16,8,1.1179162815331476
basic,20,28,0,0,0,7,"[0, 5, 26, 19, 7]",5,5,"[2, 12, 13, 14, 18]",68.15527048,12357,860,2,5,8,1.1835592656658687
basic,20,28,0,0,0,12,"[0, 5, 26, 19, 7, 12]",6,2,"[13, 18]",55.00232404,12949,592,1,1,8,1.1891830098953253
basic,20,28,0,0,0,13,"[0, 5, 26, 19, 7, 12, 13]",7,1,[18],37.79767351,13709,760,1,0,8,1.3761105369117108
basic,20,28,0,0,1,18,"[0, 5, 26, 19, 7, 12, 13, 18]",8,0,[],13.38456227,14373,664,1,0,8,1.7228206627692229
basic,20,28,0,1,1,18,"[0, 5, 26, 19, 7, 12, 13, 18]",8,0,[],13.38456227,16097,1724,1,0,8,1.7228206627692229
basic,21,38,0,0,0,0,[0],1,29,"[1, 2, 3, 4, 5, 6, 7, 8, 9, 10, 11, 12, 13, 14, 15, 16, 17, 18, 19, 20, 21, 22, 23, 24, 25, 26, 27, 28, 29]",300,181,-1,33,506,9,0.0
basic,21,38,0,0,0,19,"[0, 19]",2,23,"[3, 4, 5, 6, 7, 8, 9, 11, 13, 14, 15, 16, 17, 18, 20, 22, 23, 24, 25, 26, 27, 28, 29]",219.5015528,2793,2612,6,61,9,1.0
basic,21,38,0,0,0,17,"[0, 19, 17]",3,21,"[3, 4, 5, 6, 7, 9, 11, 13, 14, 15, 16, 18, 20, 22, 23, 24, 25, 26, 27, 28, 29]",198.1239945,4657,1864,6,53,9,1.571793785769489
basic,21,38,0,0,0,20,"[0, 19, 17, 20]",4,17,"[3, 4, 5, 6, 7, 11, 13, 14, 15, 16, 18, 22, 24, 25, 26, 27, 28]",174.3542658,5508,851,6,44,9,2.333182710277297
basic,21,38,0,0,0,4,"[0, 19, 17, 20, 4]",5,10,"[5, 11, 13, 14, 15, 16, 24, 26, 27, 28]",140.4131403,6345,837,5,22,9,2.276099229646013
basic,21,38,0,0,0,13,"[0, 19, 17, 20, 4, 13]",6,7,"[11, 15, 16, 24, 26, 27, 28]",109.0125034,7627,1282,8,3,8,1.9539449223642764
basic,21,38,0,0,0,26,"[0, 19, 17, 20, 4, 13, 26]",7,3,"[15, 16, 24]",77.96415401,8449,822,3,0,8,1.7636339903785625
basic,21,38,0,0,1,24,"[0, 19, 17, 20, 4, 13, 26, 24]",8,0,[],47.15831041,10413,1964,1,0,8,1.6290683193074331
basic,21,38,0,1,1,24,"[0, 19, 17, 20, 4, 13, 26, 24]",8,0,[],47.15831041,12660,2247,1,0,8,1.6290683193074331
basic,22,24,0,0,0,0,[0],1,29,"[1, 2, 3, 4, 5, 6, 7, 8, 9, 10, 11, 12, 13, 14, 15, 16, 17, 18, 19, 20, 21, 22, 23, 24, 25, 26, 27, 28, 29]",300,165,-1,4,76,10,0.0
basic,22,24,0,0,0,16,"[0, 16]",2,28,"[1, 2, 3, 4, 5, 6, 7, 8, 9, 10, 11, 12, 13, 14, 15, 17, 18, 19, 20, 21, 22, 23, 24, 25, 26, 27, 28, 29]",210.3562607,3083,2918,13,110,9,1.0
basic,22,24,0,0,0,8,"[0, 16, 8]",3,22,"[1, 2, 3, 4, 6, 9, 10, 11, 13, 14, 15, 17, 20, 21, 22, 23, 24, 25, 26, 27, 28, 29]",181.3562607,3746,663,3,31,9,1.0774669368510212
basic,22,24,0,0,0,22,"[0, 16, 8, 22]",4,18,"[2, 3, 4, 6, 9, 10, 11, 13, 14, 15, 17, 23, 24, 25, 26, 27, 28, 29]",167.9398528,4692,946,3,23,9,1.2531772310046492
basic,22,24,0,0,0,15,"[0, 16, 8, 22, 15]",5,16,"[3, 4, 6, 9, 10, 11, 13, 14, 17, 23, 24, 25, 26, 27, 28, 29]",146.7266494,5386,694,3,16,9,1.2813329946092564
basic,22,24,0,0,0,28,"[0, 16, 8, 22, 15, 28]",6,8,"[3, 4, 9, 11, 13, 23, 26, 27]",101.4497237,7126,1740,3,5,9,1.2060847818642253
basic,22,24,0,0,0,23,"[0, 16, 8, 22, 15, 28, 23]",7,3,"[9, 11, 27]",82.42342609,9378,2252,3,1,9,1.2349355190066822
basic,22,24,0,0,0,11,"[0, 16, 8, 22, 15, 28, 23, 11]",8,2,"[9, 27]",55.49760206,10217,839,2,0,9,1.2172586817191506
basic,22,24,0,0,1,9,"[0, 16, 8, 22, 15, 28, 23, 11, 9]",9,0,[],23.24857107,12346,2129,1,0,9,1.3037788048831767
basic,22,24,0,1,1,9,"[0, 16, 8, 22, 15, 28, 23, 11, 9]",9,0,[],23.24857107,14579,2233,1,0,9,1.3037788048831767
undo,23,28,0,0,0,0,[0],1,27,"[1, 2, 3, 4, 5, 6, 7, 8, 9, 10, 11, 12, 13, 14, 15, 16, 17, 18, 19, 20, 22, 23, 25, 26, 27, 28, 29]",300,200,-1,2,96,9,0.0
undo,23,28,0,0,0,3,"[0, 3]",2,26,"[1, 2, 4, 5, 6, 7, 8, 9, 10, 11, 12, 13, 14, 15, 16, 17, 18, 19, 20, 22, 23, 25, 26, 27, 28, 29]",251.0817008,4409,4209,1,64,9,1.0
undo,23,28,0,0,0,14,"[0, 3, 14]",3,13,"[1, 2, 5, 7, 10, 11, 12, 13, 17, 18, 19, 20, 26]",142.7396498,5769,1360,19,59,8,1.0338694802207566
undo,23,28,0,0,0,18,"[0, 3, 14, 18]",4,10,"[1, 2, 5, 7, 11, 12, 13, 17, 19, 26]",117.2445523,6449,680,18,18,8,1.098527225277385
undo,23,28,0,0,0,13,"[0, 3, 14, 18, 13]",5,7,"[2, 7, 11, 12, 17, 19, 26]",92.83144103,7369,920,8,6,8,1.0872780601597938
undo,23,28,0,0,0,12,"[0, 3, 14, 18, 13, 12]",6,3,"[2, 7, 19]",75.6267905,8050,681,3,1,8,1.0890748557820906
undo,23,28,0,0,0,7,"[0, 3, 14, 18, 13, 12, 7]",7,2,"[2, 19]",62.47384406,9401,1351,2,0,8,1.2125627495730145
undo,23,28,0,0,1,19,"[0, 3, 14, 18, 13, 12, 7, 19]",8,0,[],34.74299481,10041,640,1,0,8,1.4527925513951803
undo,23,28,0,1,1,19,"[0, 3, 14, 18, 13, 12, 7, 19]",8,0,[],34.74299481,12496,2455,1,0,8,1.4527925513951803
undo,24,24,0,0,0,0,[0],1,29,"[1, 2, 3, 4, 5, 6, 7, 8, 9, 10, 11, 12, 13, 14, 15, 16, 17, 18, 19, 20, 21, 22, 23, 24, 25, 26, 27, 28, 29]",300,198,-1,4,76,10,0.0
undo,24,24,0,0,0,8,"[0, 8]",2,25,"[1, 2, 3, 4, 6, 7, 9, 10, 11, 13, 14, 15, 16, 17, 19, 20, 21, 22, 23, 24, 25, 26, 27, 28, 29]",189.8864223,4367,4169,3,32,9,1.0
undo,24,24,0,0,0,16,"[0, 8, 16]",3,18,"[2, 3, 4, 6, 9, 10, 11, 14, 15, 17, 19, 22, 23, 24, 26, 27, 28, 29]",160.8864223,6231,1864,1,11,9,1.5518493399422786
undo,24,24,0,0,0,22,"[0, 8, 16, 22]",4,14,"[3, 4, 6, 9, 10, 11, 14, 15, 23, 24, 26, 27, 28, 29]",142.8586659,6935,704,1,8,9,1.4911837228651403
undo,24,24,0,0,0,15,"[0, 8, 16, 22, 15]",5,11,"[3, 4, 6, 9, 11, 14, 23, 26, 27, 28, 29]",121.6454625,7487,552,1,6,9,1.4910064452980252
undo,24,24,0,0,0,28,"[0, 8, 16, 22, 15, 28]",6,5,"[4, 9, 11, 23, 27]",76.36853677,8227,740,1,4,9,1.3584393312059677
undo,24,24,0,0,0,23,"[0, 8, 16, 22, 15, 28, 23]",7,3,"[9, 11, 27]",57.34223918,8822,595,1,2,9,1.3772929797267717
undo,24,24,0,0,0,11,"[0, 8, 16, 22, 15, 28, 23, 11]",8,1,[27],30.41641514,9447,625,1,0,9,1.3421257291731505
undo,24,24,0,0,1,27,"[0, 8, 16, 22, 15, 28, 23, 11, 27]",9,0,[],2.613537594,12639,3192,1,0,9,1.3020617734676498
undo,24,24,0,1,1,27,"[0, 8, 16, 22, 15, 28, 23, 11, 27]",9,0,[],2.613537594,13661,1022,1,0,9,1.3020617734676498
undo,25,1,0,0,0,0,[0],1,26,"[1, 2, 4, 5, 7, 8, 9, 10, 11, 12, 13, 14, 15, 16, 17, 18, 19, 20, 21, 22, 23, 24, 25, 26, 28, 29]",300,165,-1,6,74,7,0.0
undo,25,1,0,0,0,8,"[0, 8]",2,23,"[1, 4, 5, 7, 9, 10, 11, 12, 13, 14, 15, 16, 17, 18, 19, 20, 21, 23, 24, 25, 26, 28, 29]",202,4031,3866,1,16,7,1.0
undo,25,1,0,0,0,20,"[0, 8, 20]",3,12,"[1, 4, 5, 11, 13, 14, 15, 17, 18, 19, 28, 29]",125.9408125,4878,847,1,7,7,1.02364736730791
undo,25,1,0,0,0,5,"[0, 8, 20, 5]",4,7,"[1, 4, 11, 13, 17, 18, 29]",104.469902,5409,531,1,3,7,1.0439599203945713
undo,25,1,0,0,0,18,"[0, 8, 20, 5, 18]",5,2,"[4, 29]",81.64447755,6278,869,1,1,7,1.0840407791793756
undo,25,1,0,0,0,4,"[0, 8, 20, 5, 18, 4]",6,1,[29],42.69579336,7125,847,1,0,7,1.0902329133216275
undo,25,1,0,0,1,29,"[0, 8, 20, 5, 18, 4, 29]",7,0,[],6.640280603,7895,770,1,0,7,1.2859729622882756
undo,25,1,1,0,0,4,"[0, 8, 20, 5, 18, 4]",6,1,[29],42.69579336,9975,2080,1,0,7,1.0902329133216275
undo,25,1,1,0,0,18,"[0, 8, 20, 5, 18]",5,2,"[4, 29]",81.64447755,10225,250,1,1,7,1.0840407791793756
undo,25,1,1,0,0,5,"[0, 8, 20, 5]",4,7,"[1, 4, 11, 13, 17, 18, 29]",104.469902,10425,200,1,3,7,1.0439599203945713
undo,25,1,1,0,0,20,"[0, 8, 20]",3,12,"[1, 4, 5, 11, 13, 14, 15, 17, 18, 19, 28, 29]",125.9408125,10625,200,1,7,7,1.02364736730791
undo,25,1,1,0,0,8,"[0, 8]",2,23,"[1, 4, 5, 7, 9, 10, 11, 12, 13, 14, 15, 16, 17, 18, 19, 20, 21, 23, 24, 25, 26, 28, 29]",202,10843,218,1,16,7,1.0
undo,25,1,1,0,0,0,[0],1,26,"[1, 2, 4, 5, 7, 8, 9, 10, 11, 12, 13, 14, 15, 16, 17, 18, 19, 20, 21, 22, 23, 24, 25, 26, 28, 29]",300,11510,667,6,74,7,0.0
undo,25,1,0,0,0,14,"[0, 14]",2,19,"[1, 4, 5, 8, 9, 13, 15, 17, 18, 19, 20, 21, 22, 23, 24, 25, 26, 28, 29]",200.1901808,14634,3124,5,42,7,1.0
undo,25,1,0,0,0,17,"[0, 14, 17]",3,15,"[1, 4, 5, 8, 9, 13, 15, 18, 19, 20, 22, 23, 25, 28, 29]",147.8356204,15486,852,5,27,7,1.0028844724416826
undo,25,1,0,0,0,1,"[0, 14, 17, 1]",4,12,"[4, 5, 8, 9, 15, 18, 20, 22, 23, 25, 28, 29]",123.4840291,16111,625,5,15,7,1.0264985578353567
undo,25,1,0,0,0,28,"[0, 14, 17, 1, 28]",5,5,"[9, 15, 22, 23, 29]",88.59850198,16846,735,5,3,7,1.0339861575999345
undo,25,1,0,0,0,23,"[0, 14, 17, 1, 28, 23]",6,2,"[15, 22]",51.70676849,18742,1896,2,0,7,1.0327458250705703
undo,25,1,0,0,1,15,"[0, 14, 17, 1, 28, 23, 15]",7,0,[],20.81987807,19582,840,1,0,7,1.1948681641401226
undo,25,1,1,0,0,23,"[0, 14, 17, 1, 28, 23]",6,2,"[15, 22]",51.70676849,21369,1787,2,0,7,1.0327458250705703
undo,25,1,1,0,0,28,"[0, 14, 17, 1, 28]",5,5,"[9, 15, 22, 23, 29]",88.59850198,21587,218,5,3,7,1.0339861575999345
undo,25,1,1,0,0,1,"[0, 14, 17, 1]",4,12,"[4, 5, 8, 9, 15, 18, 20, 22, 23, 25, 28, 29]",123.4840291,21770,183,5,15,7,1.0264985578353567
undo,25,1,1,0,0,17,"[0, 14, 17]",3,15,"[1, 4, 5, 8, 9, 13, 15, 18, 19, 20, 22, 23, 25, 28, 29]",147.8356204,21953,183,5,27,7,1.0028844724416826
undo,25,1,1,0,0,14,"[0, 14]",2,19,"[1, 4, 5, 8, 9, 13, 15, 17, 18, 19, 20, 21, 22, 23, 24, 25, 26, 28, 29]",200.1901808,22171,218,5,42,7,1.0
undo,25,1,1,0,0,0,[0],1,26,"[1, 2, 4, 5, 7, 8, 9, 10, 11, 12, 13, 14, 15, 16, 17, 18, 19, 20, 21, 22, 23, 24, 25, 26, 28, 29]",300,22371,200,6,74,7,0.0
undo,25,1,0,0,0,24,"[0, 24]",2,8,"[5, 7, 8, 14, 16, 19, 20, 26]",185.4137879,24302,1931,9,13,5,1.0
undo,25,1,0,0,0,26,"[0, 24, 26]",3,6,"[5, 8, 14, 16, 19, 20]",152.1722476,25135,833,7,4,5,1.502125301442057
undo,25,1,0,0,0,19,"[0, 24, 26, 19]",4,4,"[5, 8, 16, 20]",113.5458318,26063,928,4,0,5,1.5438989781695114
undo,25,1,0,0,1,20,"[0, 24, 26, 19, 20]",5,0,[],11.46743056,27431,1368,1,0,5,1.6968688026872625
undo,25,1,1,0,0,19,"[0, 24, 26, 19]",4,4,"[5, 8, 16, 20]",113.5458318,28510,1079,4,0,5,1.5438989781695114
undo,25,1,1,0,0,26,"[0, 24, 26]",3,6,"[5, 8, 14, 16, 19, 20]",152.1722476,28727,217,7,4,5,1.502125301442057
undo,25,1,1,0,0,24,"[0, 24]",2,8,"[5, 7, 8, 14, 16, 19, 20, 26]",185.4137879,28928,201,9,13,5,1.0
undo,25,1,1,0,0,0,[0],1,26,"[1, 2, 4, 5, 7, 8, 9, 10, 11, 12, 13, 14, 15, 16, 17, 18, 19, 20, 21, 22, 23, 24, 25, 26, 28, 29]",300,29111,183,6,74,7,0.0
undo,25,1,0,0,0,8,"[0, 8]",2,23,"[1, 4, 5, 7, 9, 10, 11, 12, 13, 14, 15, 16, 17, 18, 19, 20, 21, 23, 24, 25, 26, 28, 29]",202,30834,1723,1,16,7,1.0
undo,25,1,0,0,0,20,"[0, 8, 20]",3,12,"[1, 4, 5, 11, 13, 14, 15, 17, 18, 19, 28, 29]",125.9408125,31670,836,1,7,7,1.02364736730791
undo,25,1,0,0,0,5,"[0, 8, 20, 5]",4,7,"[1, 4, 11, 13, 17, 18, 29]",104.469902,32494,824,1,3,7,1.0439599203945713
undo,25,1,0,0,0,18,"[0, 8, 20, 5, 18]",5,2,"[4, 29]",81.64447755,33104,610,1,1,7,1.0840407791793756
undo,25,1,0,0,0,4,"[0, 8, 20, 5, 18, 4]",6,1,[29],42.69579336,37507,4403,1,0,7,1.0902329133216275
undo,25,1,0,0,1,29,"[0, 8, 20, 5, 18, 4, 29]",7,0,[],6.640280603,40911,3404,1,0,7,1.2859729622882756
undo,25,1,0,1,1,29,"[0, 8, 20, 5, 18, 4, 29]",7,0,[],6.640280603,43925,3014,1,0,7,1.2859729622882756
undo,26,32,0,0,0,0,[0],1,29,"[1, 2, 3, 4, 5, 6, 7, 8, 9, 10, 11, 12, 13, 14, 15, 16, 17, 18, 19, 20, 21, 22, 23, 24, 25, 26, 27, 28, 29]",300,168,-1,17,359,10,0.0
undo,26,32,0,0,0,19,"[0, 19]",2,28,"[1, 2, 3, 4, 5, 6, 7, 8, 9, 10, 11, 12, 13, 14, 15, 16, 17, 18, 20, 21, 22, 23, 24, 25, 26, 27, 28, 29]",283.5075775,4406,4238,16,294,10,1.0
undo,26,32,0,0,0,15,"[0, 19, 15]",3,21,"[2, 3, 5, 7, 8, 9, 10, 11, 12, 13, 14, 16, 17, 20, 22, 23, 24, 25, 26, 27, 28]",197.7987681,5779,1373,2,52,10,1.19699508325577
undo,26,32,0,0,0,28,"[0, 19, 15, 28]",4,19,"[2, 3, 5, 7, 8, 9, 10, 11, 12, 13, 16, 17, 20, 22, 23, 24, 25, 26, 27]",186.3970139,6591,812,2,41,10,1.1739755297768444
undo,26,32,0,0,0,12,"[0, 19, 15, 28, 12]",5,17,"[2, 3, 5, 7, 8, 9, 10, 11, 13, 16, 17, 20, 22, 23, 24, 26, 27]",167.4233479,8716,2125,2,25,10,1.177540715424265
undo,26,32,0,0,0,16,"[0, 19, 15, 28, 12, 16]",6,16,"[2, 3, 5, 7, 8, 9, 10, 11, 13, 17, 20, 22, 23, 24, 26, 27]",151.7708721,9452,736,2,17,10,1.2623133279216439
undo,26,32,0,0,0,22,"[0, 19, 15, 28, 12, 16, 22]",7,10,"[2, 3, 5, 8, 9, 10, 11, 17, 20, 27]",117.9330235,10316,864,2,7,10,1.2893434049314008
undo,26,32,0,0,0,9,"[0, 19, 15, 28, 12, 16, 22, 9]",8,4,"[2, 8, 17, 20]",95.72942015,11084,768,2,2,10,1.3492394817468627
undo,26,32,0,0,0,8,"[0, 19, 15, 28, 12, 16, 22, 9, 8]",9,1,[20],50.60736346,12030,946,1,0,10,1.2728587925837391
undo,26,32,0,0,1,20,"[0, 19, 15, 28, 12, 16, 22, 9, 8, 20]",10,0,[],0.278445332,13267,1237,1,0,10,1.4817741230721702
undo,26,32,0,1,1,20,"[0, 19, 15, 28, 12, 16, 22, 9, 8, 20]",10,0,[],0.278445332,14677,1410,1,0,10,1.4817741230721702
undo,27,15,0,0,0,0,[0],1,25,"[1, 2, 3, 4, 7, 8, 9, 10, 11, 12, 13, 14, 15, 16, 18, 20, 21, 22, 23, 24, 25, 26, 27, 28, 29]",300,166,-1,4,65,9,0.0
undo,27,15,0,0,0,12,"[0, 12]",2,22,"[1, 2, 3, 4, 7, 8, 9, 10, 11, 13, 14, 15, 16, 18, 21, 22, 23, 24, 26, 27, 28, 29]",213.547701,4645,4479,4,35,9,1.0
undo,27,15,0,0,0,7,"[0, 12, 7]",3,16,"[1, 3, 4, 8, 9, 10, 11, 13, 14, 15, 16, 18, 21, 22, 24, 27]",180.3061607,5238,593,4,29,9,1.411291635294361
undo,27,15,0,0,0,16,"[0, 12, 7, 16]",4,10,"[3, 4, 10, 11, 13, 14, 15, 18, 21, 22]",136.6484008,6078,840,2,11,9,1.4308733430458784
undo,27,15,0,0,0,11,"[0, 12, 7, 16, 11]",5,7,"[3, 4, 13, 14, 15, 21, 22]",110.6291772,6912,834,2,5,9,1.5251025438826007
undo,27,15,0,0,0,3,"[0, 12, 7, 16, 11, 3]",6,5,"[4, 13, 14, 15, 22]",99.22742292,7561,649,2,3,9,1.5166583878170454
undo,27,15,0,0,0,22,"[0, 12, 7, 16, 11, 3, 22]",7,2,"[13, 15]",49.49815588,8463,902,2,0,9,1.4519711389669923
undo,27,15,0,0,0,15,"[0, 12, 7, 16, 11, 3, 22, 15]",8,1,[13],23.88565893,9574,1111,1,0,9,1.4060225827822495
undo,27,15,0,0,1,13,"[0, 12, 7, 16, 11, 3, 22, 15, 13]",9,0,[],8.621321408,10349,775,1,0,9,1.4544229719836068
undo,27,15,0,1,1,13,"[0, 12, 7, 16, 11, 3, 22, 15, 13]",9,0,[],8.621321408,11978,1629,1,0,9,1.4544229719836068
undo,28,36,0,0,0,0,[0],1,24,"[2, 4, 5, 6, 7, 8, 9, 10, 12, 13, 14, 15, 16, 17, 18, 19, 20, 22, 23, 25, 26, 27, 28, 29]",300,165,-1,2,200,10,0.0
undo,28,36,0,0,0,12,"[0, 12]",2,23,"[2, 4, 5, 6, 7, 8, 9, 10, 13, 14, 15, 16, 17, 18, 19, 20, 22, 23, 25, 26, 27, 28, 29]",277.7963967,4904,4739,90,804,9,1.0
undo,28,36,0,0,0,9,"[0, 12, 9]",3,14,"[2, 4, 8, 10, 13, 16, 17, 18, 19, 23, 25, 27, 28, 29]",215.4345494,5969,1065,32,191,9,1.224429481246385
undo,28,36,0,0,0,16,"[0, 12, 9, 16]",4,8,"[2, 10, 13, 17, 18, 19, 23, 25]",168.137615,6720,751,7,26,9,1.235383731443557
undo,28,36,0,0,0,17,"[0, 12, 9, 16, 17]",5,6,"[2, 10, 13, 18, 19, 25]",139.8180105,7511,791,7,14,9,1.6947865799475665
undo,28,36,0,0,0,19,"[0, 12, 9, 16, 17, 19]",6,5,"[2, 10, 13, 18, 25]",111.9253591,8104,593,6,1,9,2.440059772477113
undo,28,36,0,0,0,2,"[0, 12, 9, 16, 17, 19, 2]",7,2,"[13, 25]",74.80393675,8937,833,2,0,9,1.994135267441798
undo,28,36,0,0,0,25,"[0, 12, 9, 16, 17, 19, 2, 25]",8,1,[13],49.80393675,10072,1135,1,0,9,2.1853059870598197
undo,28,36,0,0,1,13,"[0, 12, 9, 16, 17, 19, 2, 25, 13]",9,0,[],29.21267647,10600,528,1,0,9,2.7608371719978186
undo,28,36,0,1,1,13,"[0, 12, 9, 16, 17, 19, 2, 25, 13]",9,0,[],29.21267647,12210,1610,1,0,9,2.7608371719978186
undo,29,2,0,0,0,0,[0],1,23,"[1, 2, 4, 5, 6, 7, 8, 9, 12, 13, 15, 16, 17, 18, 19, 20, 22, 23, 25, 26, 27, 28, 29]",300,165,-1,70,620,10,0.0
undo,29,2,0,0,0,19,"[0, 19]",2,22,"[1, 2, 4, 5, 6, 7, 8, 9, 12, 13, 15, 16, 17, 18, 20, 22, 23, 25, 26, 27, 28, 29]",210.306076,3239,3074,67,431,10,1.0
undo,29,2,0,0,0,12,"[0, 19, 12]",3,17,"[1, 4, 5, 6, 7, 13, 15, 16, 17, 18, 20, 22, 25, 26, 27, 28, 29]",174.2921898,3995,756,66,298,10,1.1107635036313153
undo,29,2,0,0,0,5,"[0, 19, 12, 5]",4,11,"[1, 6, 7, 13, 15, 16, 18, 22, 25, 26, 29]",144.7625437,4758,763,38,136,10,1.0968174771581647
undo,29,2,0,0,0,22,"[0, 19, 12, 5, 22]",5,8,"[1, 6, 7, 13, 15, 18, 26, 29]",131.9562952,5619,861,20,63,10,1.0889910507461968
undo,29,2,0,0,0,13,"[0, 19, 12, 5, 22, 13]",6,7,"[1, 6, 7, 15, 18, 26, 29]",117.0902265,7043,1424,19,20,10,1.236526217328057
undo,29,2,0,0,0,18,"[0, 19, 12, 5, 22, 13, 18]",7,4,"[7, 15, 26, 29]",81.91921567,7978,935,10,3,10,1.2128708213409936
undo,29,2,0,0,0,7,"[0, 19, 12, 5, 22, 13, 18, 7]",8,3,"[15, 26, 29]",71.62358553,8498,520,5,0,10,1.2019811287894737
undo,29,2,0,0,0,26,"[0, 19, 12, 5, 22, 13, 18, 7, 26]",9,2,"[15, 29]",48.82007703,9094,596,2,0,10,1.1883593342191134
undo,29,2,0,0,1,15,"[0, 19, 12, 5, 22, 13, 18, 7, 26, 15]",10,0,[],24.61264015,9907,813,1,0,10,1.4619750353663825
undo,29,2,0,1,1,15,"[0, 19, 12, 5, 22, 13, 18, 7, 26, 15]",10,0,[],24.61264015,12226,2319,1,0,10,1.4619750353663825
undo,30,35,0,0,0,0,[0],1,29,"[1, 2, 3, 4, 5, 6, 7, 8, 9, 10, 11, 12, 13, 14, 15, 16, 17, 18, 19, 20, 21, 22, 23, 24, 25, 26, 27, 28, 29]",300,182,-1,5,236,11,0.0
undo,30,35,0,0,0,27,"[0, 27]",2,27,"[1, 2, 4, 5, 6, 7, 8, 9, 10, 11, 12, 13, 14, 15, 16, 17, 18, 19, 20, 21, 22, 23, 24, 25, 26, 28, 29]",278.7867966,3773,3591,5,144,11,1.0
undo,30,35,0,0,0,24,"[0, 27, 24]",3,25,"[1, 2, 4, 5, 6, 7, 8, 9, 10, 11, 12, 13, 15, 16, 17, 18, 19, 20, 21, 22, 23, 25, 26, 28, 29]",234.6053525,5286,1513,3,80,11,2.1084080567904624
undo,30,35,0,0,0,17,"[0, 27, 24, 17]",4,20,"[1, 2, 4, 5, 6, 7, 8, 9, 10, 15, 16, 18, 19, 20, 21, 23, 25, 26, 28, 29]",222.9006526,7254,1968,3,50,11,1.9439555968916868
undo,30,35,0,0,0,1,"[0, 27, 24, 17, 1]",5,18,"[2, 4, 5, 6, 8, 9, 10, 15, 16, 18, 19, 20, 21, 23, 25, 26, 28, 29]",207.0892643,8014,760,3,39,11,1.9436711872547336
undo,30,35,0,0,0,15,"[0, 27, 24, 17, 1, 15]",6,16,"[2, 4, 5, 6, 8, 9, 10, 16, 18, 19, 20, 23, 25, 26, 28, 29]",184.241945,9309,1295,3,24,11,2.082774572108194
undo,30,35,0,0,0,23,"[0, 27, 24, 17, 1, 15, 23]",7,7,"[5, 6, 9, 18, 19, 25, 26]",123.801892,10389,1080,3,14,11,1.657239080954205
undo,30,35,0,0,0,6,"[0, 27, 24, 17, 1, 15, 23, 6]",8,3,"[9, 18, 25]",78.15104318,11326,937,1,4,11,1.4670445391994238
undo,30,35,0,0,0,25,"[0, 27, 24, 17, 1, 15, 23, 6, 25]",9,2,"[9, 18]",54.13021888,12301,975,1,1,11,1.5182643905144335
undo,30,35,0,0,0,18,"[0, 27, 24, 17, 1, 15, 23, 6, 25, 18]",10,1,[9],20.29237025,13567,1266,1,0,11,2.1744919440125114
undo,30,35,0,0,1,9,"[0, 27, 24, 17, 1, 15, 23, 6, 25, 18, 9]",11,0,[],0.267385855,14269,702,1,0,11,2.6663183938115433
undo,30,35,0,1,1,9,"[0, 27, 24, 17, 1, 15, 23, 6, 25, 18, 9]",11,0,[],0.267385855,15898,1629,1,0,11,2.6663183938115433
undo,31,43,0,0,0,0,[0],1,23,"[1, 2, 3, 4, 5, 6, 7, 9, 10, 11, 12, 14, 15, 16, 17, 19, 20, 21, 22, 23, 25, 27, 29]",300,165,-1,16,556,12,0.0
undo,31,43,0,0,0,29,"[0, 29]",2,22,"[1, 2, 3, 4, 5, 6, 7, 9, 10, 11, 12, 14, 15, 16, 17, 19, 20, 21, 22, 23, 25, 27]",277.909278,3556,3391,16,520,12,1.0
undo,31,43,0,0,0,20,"[0, 29, 20]",3,20,"[1, 2, 3, 4, 6, 7, 9, 10, 11, 12, 14, 15, 16, 17, 19, 21, 22, 23, 25, 27]",254.4785289,4841,1285,15,422,12,1.082311746871282
undo,31,43,0,0,0,16,"[0, 29, 20, 16]",4,19,"[1, 2, 3, 4, 6, 7, 9, 10, 11, 12, 14, 15, 17, 19, 21, 22, 23, 25, 27]",231.8511119,5649,808,15,389,12,1.215201926898219
undo,31,43,0,0,0,25,"[0, 29, 20, 16, 25]",5,14,"[1, 2, 3, 4, 6, 7, 9, 11, 12, 14, 15, 19, 22, 23]",175.7708124,7337,1688,53,282,11,1.566384303308987
undo,31,43,0,0,0,15,"[0, 29, 20, 16, 25, 15]",6,13,"[1, 2, 3, 4, 6, 7, 9, 11, 12, 14, 19, 22, 23]",153.0992443,9290,1953,27,108,11,1.776736412604812
undo,31,43,0,0,0,12,"[0, 29, 20, 16, 25, 15, 12]",7,10,"[1, 3, 6, 7, 9, 11, 14, 19, 22, 23]",133.7860364,10147,857,21,41,11,1.6813323012225032
undo,31,43,0,0,0,3,"[0, 29, 20, 16, 25, 15, 12, 3]",8,9,"[1, 6, 7, 9, 11, 14, 19, 22, 23]",120.7860364,10865,718,20,12,11,1.608740348096123
undo,31,43,0,0,0,22,"[0, 29, 20, 16, 25, 15, 12, 3, 22]",9,6,"[1, 6, 7, 11, 14, 19]",86.07292644,11765,900,9,2,11,1.793657891802588
undo,31,43,0,0,0,19,"[0, 29, 20, 16, 25, 15, 12, 3, 22, 19]",10,3,"[1, 6, 7]",65.45739831,12483,718,3,0,11,1.6882745891803936
undo,31,43,0,0,1,1,"[0, 29, 20, 16, 25, 15, 12, 3, 22, 19, 1]",11,0,[],37.2793927,13305,822,1,0,11,1.825064866046553
undo,31,43,0,1,1,1,"[0, 29, 20, 16, 25, 15, 12, 3, 22, 19, 1]",11,0,[],37.2793927,16832,3527,1,0,11,1.825064866046553
undo,32,27,0,0,0,0,[0],1,26,"[1, 3, 5, 6, 7, 8, 9, 10, 11, 12, 13, 14, 15, 16, 17, 18, 19, 21, 22, 23, 24, 25, 26, 27, 28, 29]",300,169,-1,13,578,11,0.0
undo,32,27,0,0,0,26,"[0, 26]",2,23,"[1, 5, 6, 7, 8, 9, 10, 11, 12, 13, 14, 15, 16, 17, 18, 19, 21, 22, 23, 24, 25, 27, 29]",275.8132268,2807,2638,7,249,11,1.0
undo,32,27,0,0,0,15,"[0, 26, 15]",3,18,"[1, 6, 7, 8, 10, 12, 13, 14, 16, 17, 18, 19, 21, 23, 24, 25, 27, 29]",216.0386502,3678,871,6,105,11,2.316230250316108
undo,32,27,0,0,0,24,"[0, 26, 15, 24]",4,14,"[1, 8, 10, 12, 13, 14, 16, 17, 18, 19, 23, 25, 27, 29]",198.8339997,4351,673,6,63,11,2.140390406148825
undo,32,27,0,0,0,17,"[0, 26, 15, 24, 17]",5,11,"[1, 8, 10, 12, 13, 14, 18, 19, 23, 27, 29]",182.2810543,4858,507,4,33,11,1.897705569486853
undo,32,27,0,0,0,12,"[0, 26, 15, 24, 17, 12]",6,10,"[1, 8, 10, 13, 14, 18, 19, 23, 27, 29]",171.1007144,5368,510,2,17,11,1.994427587076918
undo,32,27,0,0,0,10,"[0, 26, 15, 24, 17, 12, 10]",7,9,"[1, 8, 13, 14, 18, 19, 23, 27, 29]",160.0553534,5822,454,2,14,11,1.8554032921959762
undo,32,27,0,0,0,13,"[0, 26, 15, 24, 17, 12, 10, 13]",8,7,"[1, 8, 14, 19, 23, 27, 29]",120.2056357,7016,1194,2,8,11,1.8269483184790714
undo,32,27,0,0,0,19,"[0, 26, 15, 24, 17, 12, 10, 13, 19]",9,4,"[8, 14, 23, 29]",83.97029387,8871,1855,2,3,11,1.6617669702307691
undo,32,27,0,0,0,8,"[0, 26, 15, 24, 17, 12, 10, 13, 19, 8]",10,2,"[14, 29]",69.10422512,9831,960,2,0,11,1.708465241811091
undo,32,27,0,0,1,29,"[0, 26, 15, 24, 17, 12, 10, 13, 19, 8, 29]",11,0,[],9.901184659,11224,1393,1,0,11,1.4940849125097164
undo,32,27,0,1,1,29,"[0, 26, 15, 24, 17, 12, 10, 13, 19, 8, 29]",11,0,[],9.901184659,12745,1521,1,0,11,1.4940849125097164
undo,33,23,0,0,0,0,[0],1,28,"[1, 2, 3, 4, 5, 6, 7, 8, 9, 10, 11, 12, 13, 14, 15, 16, 17, 18, 19, 20, 21, 22, 23, 25, 26, 27, 28, 29]",300,182,-1,76,2626,10,0.0
undo,33,23,0,0,0,22,"[0, 22]",2,24,"[1, 2, 3, 5, 6, 7, 8, 9, 10, 11, 12, 13, 14, 15, 17, 18, 19, 20, 21, 23, 25, 26, 27, 29]",210.5013967,4108,3926,15,1362,10,1.0
undo,33,23,0,0,0,13,"[0, 22, 13]",3,14,"[1, 2, 5, 6, 7, 8, 9, 10, 12, 14, 18, 21, 27, 29]",168.3113504,5085,977,14,522,10,1.1898173563652046
undo,33,23,0,0,0,27,"[0, 22, 13, 27]",4,7,"[2, 6, 9, 12, 14, 18, 29]",123.2114613,5910,825,59,60,9,1.2347447137291254
undo,33,23,0,0,0,12,"[0, 22, 13, 27, 12]",5,5,"[2, 6, 9, 14, 29]",82.4193052,6828,918,14,12,9,1.7748831485350247
undo,33,23,0,0,0,6,"[0, 22, 13, 27, 12, 6]",6,3,"[2, 9, 14]",52.73766104,7700,872,3,3,9,1.6457479860849444
undo,33,23,0,0,0,2,"[0, 22, 13, 27, 12, 6, 2]",7,2,"[9, 14]",34.29857212,8556,856,2,0,9,1.9471185230487569
undo,33,23,0,0,0,14,"[0, 22, 13, 27, 12, 6, 2, 14]",8,1,[9],19.43250337,9500,944,1,0,9,1.9913935751237333
undo,33,23,0,0,1,9,"[0, 22, 13, 27, 12, 6, 2, 14, 9]",9,0,[],8.992196865,10404,904,1,0,9,2.227412205851016
undo,33,23,0,1,1,9,"[0, 22, 13, 27, 12, 6, 2, 14, 9]",9,0,[],8.992196865,12961,2557,1,0,9,2.227412205851016
undo,34,37,0,0,0,0,[0],1,29,"[1, 2, 3, 4, 5, 6, 7, 8, 9, 10, 11, 12, 13, 14, 15, 16, 17, 18, 19, 20, 21, 22, 23, 24, 25, 26, 27, 28, 29]",300,184,-1,6,168,10,0.0
undo,34,37,0,0,0,18,"[0, 18]",2,19,"[1, 2, 4, 6, 7, 9, 10, 12, 14, 15, 17, 19, 20, 21, 22, 23, 26, 28, 29]",202.4090168,2560,2376,6,89,10,1.0
undo,34,37,0,0,0,7,"[0, 18, 7]",3,12,"[1, 2, 4, 9, 15, 17, 19, 20, 21, 22, 26, 29]",175.2428614,3280,720,6,53,10,1.0413073512834488
undo,34,37,0,0,0,22,"[0, 18, 7, 22]",4,8,"[1, 2, 4, 15, 19, 20, 21, 26]",125.2428614,4024,744,6,29,10,1.0730792320325544
undo,34,37,0,0,0,4,"[0, 18, 7, 22, 4]",5,7,"[1, 2, 15, 19, 20, 21, 26]",100.2428614,5512,1488,4,16,10,1.2290245562206235
undo,34,37,0,0,0,2,"[0, 18, 7, 22, 4, 2]",6,5,"[1, 15, 19, 20, 21]",88.84110714,6210,698,4,7,10,1.3968113858365216
undo,34,37,0,0,0,1,"[0, 18, 7, 22, 4, 2, 1]",7,4,"[15, 19, 20, 21]",71.63645661,7394,1184,4,3,10,1.4424239294761476
undo,34,37,0,0,0,15,"[0, 18, 7, 22, 4, 2, 1, 15]",8,2,"[20, 21]",31.67397421,8628,1234,2,0,10,1.612564167414217
undo,34,37,0,0,0,21,"[0, 18, 7, 22, 4, 2, 1, 15, 21]",9,1,[20],16.67397421,10152,1524,1,0,10,1.8256316004901285
undo,34,37,0,0,1,20,"[0, 18, 7, 22, 4, 2, 1, 15, 21, 20]",10,0,[],2.251769103,11072,920,1,0,10,1.9863570569415172
undo,34,37,0,1,1,20,"[0, 18, 7, 22, 4, 2, 1, 15, 21, 20]",10,0,[],2.251769103,12578,1506,1,0,10,1.9863570569415172
undo,35,5,0,0,0,0,[0],1,29,"[1, 2, 3, 4, 5, 6, 7, 8, 9, 10, 11, 12, 13, 14, 15, 16, 17, 18, 19, 20, 21, 22, 23, 24, 25, 26, 27, 28, 29]",300,165,-1,5,139,9,0.0
undo,35,5,0,0,0,12,"[0, 12]",2,22,"[2, 4, 5, 6, 8, 9, 10, 13, 14, 15, 16, 17, 18, 19, 21, 22, 23, 24, 25, 26, 27, 28]",228.3062067,3757,3592,1,27,9,1.0
undo,35,5,0,0,0,25,"[0, 12, 25]",3,21,"[2, 4, 5, 6, 8, 9, 10, 13, 14, 15, 16, 17, 18, 19, 21, 22, 23, 24, 26, 27, 28]",200.5213187,4900,1143,1,20,9,1.584023303445617
undo,35,5,0,0,0,23,"[0, 12, 25, 23]",4,19,"[2, 4, 5, 6, 8, 9, 10, 13, 14, 15, 16, 17, 18, 19, 21, 22, 24, 26, 27]",182.0822298,5611,711,1,14,9,2.3508446989254357
undo,35,5,0,0,0,24,"[0, 12, 25, 23, 24]",5,15,"[2, 4, 5, 6, 8, 9, 13, 14, 15, 17, 18, 19, 22, 26, 27]",158.995437,6596,985,1,12,9,1.9469752046288753
undo,35,5,0,0,0,17,"[0, 12, 25, 23, 24, 17]",6,7,"[4, 5, 6, 8, 15, 18, 19]",124.0097257,7236,640,1,8,9,1.6482276497563642
undo,35,5,0,0,0,5,"[0, 12, 25, 23, 24, 17, 5]",7,4,"[4, 6, 15, 18]",80.96323916,8067,831,1,3,9,1.4654649104389412
undo,35,5,0,0,0,4,"[0, 12, 25, 23, 24, 17, 5, 4]",8,1,[6],15.16050365,10263,2196,1,0,9,1.6255060355828674
undo,35,5,0,0,1,6,"[0, 12, 25, 23, 24, 17, 5, 4, 6]",9,0,[],3.118909076,10955,692,1,0,9,1.7777310833772453
undo,35,5,0,1,1,6,"[0, 12, 25, 23, 24, 17, 5, 4, 6]",9,0,[],3.118909076,14963,4008,1,0,9,1.7777310833772453
undo,36,6,0,0,0,0,[0],1,29,"[1, 2, 3, 4, 5, 6, 7, 8, 9, 10, 11, 12, 13, 14, 15, 16, 17, 18, 19, 20, 21, 22, 23, 24, 25, 26, 27, 28, 29]",300,164,-1,180,4304,10,0.0
undo,36,6,0,0,0,26,"[0, 26]",2,25,"[1, 2, 3, 4, 5, 6, 7, 8, 9, 10, 11, 12, 13, 14, 15, 16, 17, 18, 20, 21, 22, 23, 24, 27, 29]",250.2606795,2656,2492,45,776,10,1.0
undo,36,6,0,0,0,7,"[0, 26, 7]",3,24,"[1, 2, 3, 4, 5, 6, 8, 9, 10, 11, 12, 13, 14, 15, 16, 17, 18, 20, 21, 22, 23, 24, 27, 29]",226.1774904,3326,670,25,520,10,1.5373018630243536
undo,36,6,0,0,0,3,"[0, 26, 7, 3]",4,22,"[1, 2, 4, 6, 8, 9, 10, 11, 12, 13, 14, 15, 16, 17, 18, 20, 21, 22, 23, 24, 27, 29]",190.0388684,4062,736,20,235,10,3.2798655773210936
undo,36,6,0,0,0,16,"[0, 26, 7, 3, 16]",5,15,"[1, 2, 6, 10, 13, 14, 17, 18, 20, 21, 22, 23, 24, 27, 29]",143.8003563,7830,3768,3,39,10,2.164019536669599
undo,36,6,0,0,0,18,"[0, 26, 7, 3, 16, 18]",6,10,"[1, 2, 6, 10, 13, 17, 22, 23, 24, 29]",120.4551212,8829,999,2,15,10,2.9481162560127245
undo,36,6,0,0,0,17,"[0, 26, 7, 3, 16, 18, 17]",7,8,"[2, 6, 10, 13, 22, 23, 24, 29]",106.526733,9438,609,2,8,10,2.7413386825172235
undo,36,6,0,0,0,10,"[0, 26, 7, 3, 16, 18, 17, 10]",8,4,"[6, 23, 24, 29]",86.80365003,9981,543,2,3,10,2.5276843215308205
undo,36,6,0,0,0,24,"[0, 26, 7, 3, 16, 18, 17, 10, 24]",9,2,"[6, 23]",73.38724217,11081,1100,2,0,10,2.329169561976636
undo,36,6,0,0,1,23,"[0, 26, 7, 3, 16, 18, 17, 10, 24, 23]",10,0,[],12.19900801,13984,2903,1,0,10,2.14454631567595
undo,36,6,0,1,1,23,"[0, 26, 7, 3, 16, 18, 17, 10, 24, 23]",10,0,[],12.19900801,15513,1529,1,0,10,2.14454631567595
undo,37,0,0,0,0,0,[0],1,27,"[2, 3, 4, 5, 6, 7, 8, 9, 10, 11, 12, 13, 14, 15, 16, 17, 19, 20, 21, 22, 23, 24, 25, 26, 27, 28, 29]",300,165,-1,104,1136,9,0.0
undo,37,0,0,0,0,28,"[0, 28]",2,26,"[2, 3, 4, 5, 6, 7, 8, 9, 10, 11, 12, 13, 14, 15, 16, 17, 19, 20, 21, 22, 23, 24, 25, 26, 27, 29]",194.9190788,2610,2445,39,388,9,1.0
undo,37,0,0,0,0,5,"[0, 28, 5]",3,21,"[2, 3, 4, 7, 8, 9, 11, 12, 13, 14, 15, 16, 17, 19, 20, 21, 23, 24, 25, 26, 29]",151.2613189,3450,840,27,210,9,1.0978295127671733
undo,37,0,0,0,0,12,"[0, 28, 5, 12]",4,11,"[3, 4, 7, 8, 13, 14, 15, 17, 23, 24, 26]",92.3631016,4834,1384,1,9,8,1.3308690478575147
undo,37,0,0,0,0,26,"[0, 28, 5, 12, 26]",5,5,"[4, 7, 15, 17, 24]",57.1352717,5753,919,1,3,8,1.503294928431544
undo,37,0,0,0,0,4,"[0, 28, 5, 12, 26, 4]",6,2,"[15, 24]",45.09367712,8145,2392,1,1,8,1.6283706077939981
undo,37,0,0,0,0,24,"[0, 28, 5, 12, 26, 4, 24]",7,1,[15],33.69192287,8817,672,1,0,8,1.596262565589366
undo,37,0,0,0,1,15,"[0, 28, 5, 12, 26, 4, 24, 15]",8,0,[],10.34668781,9817,1000,1,0,8,1.5323212923915361
undo,37,0,1,0,0,24,"[0, 28, 5, 12, 26, 4, 24]",7,1,[15],33.69192287,11910,2093,1,0,8,1.596262565589366
undo,37,0,1,0,0,4,"[0, 28, 5, 12, 26, 4]",6,2,"[15, 24]",45.09367712,12127,217,1,1,8,1.6283706077939981
undo,37,0,1,0,0,26,"[0, 28, 5, 12, 26]",5,5,"[4, 7, 15, 17, 24]",57.1352717,12378,251,1,3,8,1.503294928431544
undo,37,0,1,0,0,12,"[0, 28, 5, 12]",4,11,"[3, 4, 7, 8, 13, 14, 15, 17, 23, 24, 26]",92.3631016,12578,200,1,9,8,1.3308690478575147
undo,37,0,1,0,0,5,"[0, 28, 5]",3,21,"[2, 3, 4, 7, 8, 9, 11, 12, 13, 14, 15, 16, 17, 19, 20, 21, 23, 24, 25, 26, 29]",151.2613189,12795,217,27,210,9,1.0978295127671733
undo,37,0,1,0,0,28,"[0, 28]",2,26,"[2, 3, 4, 5, 6, 7, 8, 9, 10, 11, 12, 13, 14, 15, 16, 17, 19, 20, 21, 22, 23, 24, 25, 26, 27, 29]",194.9190788,12995,200,39,388,9,1.0
undo,37,0,1,0,0,0,[0],1,27,"[2, 3, 4, 5, 6, 7, 8, 9, 10, 11, 12, 13, 14, 15, 16, 17, 19, 20, 21, 22, 23, 24, 25, 26, 27, 28, 29]",300,13229,234,104,1136,9,0.0
undo,37,0,0,0,0,20,"[0, 20]",2,25,"[2, 3, 4, 5, 6, 7, 8, 9, 11, 12, 13, 14, 15, 16, 17, 19, 21, 22, 23, 24, 25, 26, 27, 28, 29]",215.4955622,15753,2524,36,372,9,1.0
undo,37,0,0,0,0,5,"[0, 20, 5]",3,22,"[2, 3, 4, 7, 8, 9, 11, 12, 13, 14, 15, 16, 17, 19, 21, 22, 23, 24, 25, 26, 28, 29]",153.2942761,17219,1466,33,251,9,1.0828244018179105
undo,37,0,0,0,0,12,"[0, 20, 5, 12]",4,12,"[3, 4, 7, 8, 13, 14, 15, 17, 23, 24, 26, 28]",94.3960588,18233,1014,1,12,8,1.317838609462664
undo,37,0,0,0,0,26,"[0, 20, 5, 12, 26]",5,7,"[3, 4, 7, 15, 17, 24, 28]",59.16822889,19323,1090,1,4,8,1.4907112393349933
undo,37,0,0,0,0,4,"[0, 20, 5, 12, 26, 4]",6,2,"[15, 24]",47.12663431,19825,502,1,1,8,1.6153838458427934
undo,37,0,0,0,0,24,"[0, 20, 5, 12, 26, 4, 24]",7,1,[15],35.72488006,20524,699,1,0,8,1.58407692895823
undo,37,0,0,0,1,15,"[0, 20, 5, 12, 26, 4, 24, 15]",8,0,[],12.379645,22450,1926,1,0,8,1.5215665609327291
undo,37,0,1,0,0,24,"[0, 20, 5, 12, 26, 4, 24]",7,1,[15],35.72488006,24823,2373,1,0,8,1.58407692895823
undo,37,0,1,0,0,4,"[0, 20, 5, 12, 26, 4]",6,2,"[15, 24]",47.12663431,25041,218,1,1,8,1.6153838458427934
undo,37,0,1,0,0,26,"[0, 20, 5, 12, 26]",5,7,"[3, 4, 7, 15, 17, 24, 28]",59.16822889,25424,383,1,4,8,1.4907112393349933
undo,37,0,1,0,0,12,"[0, 20, 5, 12]",4,12,"[3, 4, 7, 8, 13, 14, 15, 17, 23, 24, 26, 28]",94.3960588,25808,384,1,12,8,1.317838609462664
undo,37,0,1,0,0,5,"[0, 20, 5]",3,22,"[2, 3, 4, 7, 8, 9, 11, 12, 13, 14, 15, 16, 17, 19, 21, 22, 23, 24, 25, 26, 28, 29]",153.2942761,26308,500,33,251,9,1.0828244018179105
undo,37,0,0,0,0,26,"[0, 20, 5, 26]",4,16,"[3, 4, 7, 8, 9, 11, 12, 13, 14, 15, 17, 19, 21, 23, 24, 28]",117.8541858,28017,1709,6,51,9,1.1274542855134486
undo,37,0,0,0,0,4,"[0, 20, 5, 26, 4]",5,12,"[3, 7, 8, 9, 11, 12, 15, 17, 19, 23, 24, 28]",105.8125912,28609,592,5,27,9,1.240491272719259
undo,37,0,0,0,0,24,"[0, 20, 5, 26, 4, 24]",6,11,"[3, 7, 8, 9, 11, 12, 15, 17, 19, 23, 28]",94.41083696,29402,793,5,18,9,1.2323106696136763
undo,37,0,0,0,0,15,"[0, 20, 5, 26, 4, 24, 15]",7,7,"[3, 7, 8, 9, 11, 12, 17]",71.0656019,30517,1115,4,5,9,1.2111066506270785
undo,37,0,0,0,0,8,"[0, 20, 5, 26, 4, 24, 15, 8]",8,2,"[3, 7]",31.95038747,31468,951,2,0,9,1.2049151274199248
undo,37,0,0,0,1,7,"[0, 20, 5, 26, 4, 24, 15, 8, 7]",9,0,[],12.8454143,32337,869,1,0,9,1.4006874184490101
undo,37,0,0,1,1,7,"[0, 20, 5, 26, 4, 24, 15, 8, 7]",9,0,[],12.8454143,34933,2596,1,0,9,1.4006874184490101
undo,38,40,0,0,0,0,[0],1,29,"[1, 2, 3, 4, 5, 6, 7, 8, 9, 10, 11, 12, 13, 14, 15, 16, 17, 18, 19, 20, 21, 22, 23, 24, 25, 26, 27, 28, 29]",300,169,-1,8,191,9,0.0
undo,38,40,0,0,0,1,"[0, 1]",2,18,"[2, 5, 6, 7, 8, 9, 10, 11, 13, 15, 17, 18, 19, 21, 22, 23, 27, 29]",247.8463808,4271,4102,4,80,9,1.0
undo,38,40,0,0,0,6,"[0, 1, 6]",3,17,"[2, 5, 7, 8, 9, 10, 11, 13, 15, 17, 18, 19, 21, 22, 23, 27, 29]",227.7466295,5047,776,4,74,9,1.0459427008232034
undo,38,40,0,0,0,9,"[0, 1, 6, 9]",4,10,"[2, 5, 8, 11, 18, 19, 21, 22, 23, 27]",159.146338,5960,913,17,39,8,1.142098432552584
undo,38,40,0,0,0,18,"[0, 1, 6, 9, 18]",5,9,"[2, 5, 8, 11, 19, 21, 22, 23, 27]",142.5933926,6719,759,13,14,8,1.3288108654802917
undo,38,40,0,0,0,5,"[0, 1, 6, 9, 18, 5]",6,7,"[2, 8, 19, 21, 22, 23, 27]",111.0180858,8496,1777,5,5,8,1.5366414787972102
undo,38,40,0,0,0,23,"[0, 1, 6, 9, 18, 5, 23]",7,3,"[2, 19, 21]",82.71614241,9697,1201,3,0,8,2.2908821040631264
undo,38,40,0,0,1,19,"[0, 1, 6, 9, 18, 5, 23, 19]",8,0,[],50.76305179,10894,1197,1,0,8,2.4294131203959415
undo,38,40,0,1,1,19,"[0, 1, 6, 9, 18, 5, 23, 19]",8,0,[],50.76305179,14597,3703,1,0,8,2.4294131203959415
undo,39,16,0,0,0,0,[0],1,29,"[1, 2, 3, 4, 5, 6, 7, 8, 9, 10, 11, 12, 13, 14, 15, 16, 17, 18, 19, 20, 21, 22, 23, 24, 25, 26, 27, 28, 29]",300,212,-1,13,161,9,0.0
undo,39,16,0,0,0,28,"[0, 28]",2,27,"[1, 2, 3, 4, 5, 7, 8, 9, 10, 11, 12, 13, 14, 15, 16, 17, 18, 19, 20, 21, 22, 23, 24, 25, 26, 27, 29]",284.3475242,5240,5028,11,92,9,1.0
undo,39,16,0,0,0,17,"[0, 28, 17]",3,26,"[1, 2, 3, 4, 5, 7, 8, 9, 10, 11, 12, 13, 14, 15, 16, 18, 19, 20, 21, 22, 23, 24, 25, 26, 27, 29]",219.1555001,6192,952,10,46,9,1.3773866384707543
undo,39,16,0,0,0,16,"[0, 28, 17, 16]",4,25,"[1, 2, 3, 4, 5, 7, 8, 9, 10, 11, 12, 13, 14, 15, 18, 19, 20, 21, 22, 23, 24, 25, 26, 27, 29]",190.8358956,6775,583,10,34,9,1.3209953830681203
undo,39,16,0,0,0,21,"[0, 28, 17, 16, 21]",5,13,"[3, 5, 7, 8, 9, 10, 12, 15, 20, 22, 25, 26, 29]",146.1816685,7384,609,4,7,9,1.8136482702070456
undo,39,16,0,0,0,8,"[0, 28, 17, 16, 21, 8]",6,6,"[5, 9, 12, 15, 20, 25]",96.92722704,8520,1136,4,2,9,1.637204572335983
undo,39,16,0,0,0,20,"[0, 28, 17, 16, 21, 8, 20]",7,2,"[9, 25]",39.15179974,9432,912,2,0,9,1.441590377328759
undo,39,16,0,0,0,25,"[0, 28, 17, 16, 21, 8, 20, 25]",8,1,[9],26.5026891,10279,847,1,0,9,1.484361110265371
undo,39,16,0,0,1,9,"[0, 28, 17, 16, 21, 8, 20, 25, 9]",9,0,[],13.69644062,10962,683,1,0,9,1.4530180692918209
undo,39,16,0,1,1,9,"[0, 28, 17, 16, 21, 8, 20, 25, 9]",9,0,[],13.69644062,12208,1246,1,0,9,1.4530180692918209
undo,40,44,0,0,0,0,[0],1,29,"[1, 2, 3, 4, 5, 6, 7, 8, 9, 10, 11, 12, 13, 14, 15, 16, 17, 18, 19, 20, 21, 22, 23, 24, 25, 26, 27, 28, 29]",300,165,-1,13,126,7,0.0
undo,40,44,0,0,0,11,"[0, 11]",2,18,"[4, 5, 6, 7, 8, 9, 12, 14, 16, 17, 19, 20, 22, 23, 24, 25, 26, 28]",152.7790776,3444,3279,5,34,7,1.0
undo,40,44,0,0,0,14,"[0, 11, 14]",3,14,"[4, 5, 6, 7, 9, 12, 16, 17, 19, 22, 23, 24, 26, 28]",120.5765932,6093,2649,6,17,6,1.0032424984204007
undo,40,44,0,0,0,24,"[0, 11, 14, 24]",4,4,"[4, 7, 9, 23]",74.92574436,6749,656,3,2,6,1.4978014171296756
undo,40,44,0,0,0,9,"[0, 11, 14, 24, 9]",5,1,[4],42.16906565,7511,762,1,0,6,1.6248916534242954
undo,40,44,0,0,1,4,"[0, 11, 14, 24, 9, 4]",6,0,[],22.47135004,8190,679,1,0,6,1.5800842308612977
undo,40,44,1,0,0,9,"[0, 11, 14, 24, 9]",5,1,[4],42.16906565,10325,2135,1,0,6,1.6248916534242954
undo,40,44,1,0,0,24,"[0, 11, 14, 24]",4,4,"[4, 7, 9, 23]",74.92574436,10559,234,3,2,6,1.4978014171296756
undo,40,44,1,0,0,14,"[0, 11, 14]",3,14,"[4, 5, 6, 7, 9, 12, 16, 17, 19, 22, 23, 24, 26, 28]",120.5765932,10792,233,6,17,6,1.0032424984204007
undo,40,44,1,0,0,11,"[0, 11]",2,18,"[4, 5, 6, 7, 8, 9, 12, 14, 16, 17, 19, 20, 22, 23, 24, 25, 26, 28]",152.7790776,11326,534,5,34,7,1.0
undo,40,44,1,0,0,0,[0],1,29,"[1, 2, 3, 4, 5, 6, 7, 8, 9, 10, 11, 12, 13, 14, 15, 16, 17, 18, 19, 20, 21, 22, 23, 24, 25, 26, 27, 28, 29]",300,12160,834,13,126,7,0.0
undo,40,44,0,0,0,9,"[0, 9]",2,17,"[2, 4, 5, 7, 8, 10, 11, 12, 13, 14, 20, 22, 23, 24, 25, 26, 28]",141.32423,14417,2257,3,26,7,1.0
undo,40,44,0,0,0,4,"[0, 9, 4]",3,15,"[2, 5, 7, 8, 10, 11, 12, 14, 20, 22, 23, 24, 25, 26, 28]",121.6265143,15597,1180,3,21,7,1.0155532843148096
undo,40,44,0,0,0,24,"[0, 9, 4, 24]",4,5,"[7, 11, 14, 20, 23]",86.97106745,16236,639,3,2,6,1.4176434179720834
undo,40,44,0,0,0,11,"[0, 9, 4, 24, 11]",5,1,[14],60.04524341,16908,672,1,0,6,1.6298957555465912
undo,40,44,0,0,1,14,"[0, 9, 4, 24, 11, 14]",6,0,[],27.84275904,17438,530,1,0,6,1.5217619331476957
undo,40,44,1,0,0,11,"[0, 9, 4, 24, 11]",5,1,[14],60.04524341,18767,1329,1,0,6,1.6298957555465912
undo,40,44,1,0,0,24,"[0, 9, 4, 24]",4,5,"[7, 11, 14, 20, 23]",86.97106745,19134,367,3,2,6,1.4176434179720834
undo,40,44,1,0,0,4,"[0, 9, 4]",3,15,"[2, 5, 7, 8, 10, 11, 12, 14, 20, 22, 23, 24, 25, 26, 28]",121.6265143,19434,300,3,21,7,1.0155532843148096
undo,40,44,1,0,0,9,"[0, 9]",2,17,"[2, 4, 5, 7, 8, 10, 11, 12, 13, 14, 20, 22, 23, 24, 25, 26, 28]",141.32423,19651,217,3,26,7,1.0
undo,40,44,1,0,0,0,[0],1,29,"[1, 2, 3, 4, 5, 6, 7, 8, 9, 10, 11, 12, 13, 14, 15, 16, 17, 18, 19, 20, 21, 22, 23, 24, 25, 26, 27, 28, 29]",300,20035,384,13,126,7,0.0
undo,40,44,0,0,0,20,"[0, 20]",2,17,"[1, 4, 5, 7, 8, 9, 10, 11, 12, 13, 14, 15, 21, 23, 24, 25, 27]",147.3107731,21445,1410,7,42,6,1.0
undo,40,44,0,0,0,9,"[0, 20, 9]",3,8,"[4, 7, 8, 11, 12, 14, 23, 24]",90.03948888,22159,714,3,10,6,1.3232046144023406
undo,40,44,0,0,0,4,"[0, 20, 9, 4]",4,6,"[7, 11, 12, 14, 23, 24]",70.34177328,22901,742,3,3,6,1.3075383120991013
undo,40,44,0,0,0,7,"[0, 20, 9, 4, 7]",5,1,[23],39.32564844,23580,679,1,0,6,1.2616097931411259
undo,40,44,0,0,1,23,"[0, 20, 9, 4, 7, 23]",6,0,[],20.22067527,24268,688,1,0,6,1.277477892732717
undo,40,44,1,0,0,7,"[0, 20, 9, 4, 7]",5,1,[23],39.32564844,25490,1222,1,0,6,1.2616097931411259
undo,40,44,1,0,0,4,"[0, 20, 9, 4]",4,6,"[7, 11, 12, 14, 23, 24]",70.34177328,25757,267,3,3,6,1.3075383120991013
undo,40,44,1,0,0,9,"[0, 20, 9]",3,8,"[4, 7, 8, 11, 12, 14, 23, 24]",90.03948888,25974,217,3,10,6,1.3232046144023406
undo,40,44,1,0,0,20,"[0, 20]",2,17,"[1, 4, 5, 7, 8, 9, 10, 11, 12, 13, 14, 15, 21, 23, 24, 25, 27]",147.3107731,26491,517,7,42,6,1.0
undo,40,44,0,0,0,9,"[0, 20, 9]",3,8,"[4, 7, 8, 11, 12, 14, 23, 24]",90.03948888,27197,706,3,10,6,1.3232046144023406
undo,40,44,0,0,0,4,"[0, 20, 9, 4]",4,6,"[7, 11, 12, 14, 23, 24]",70.34177328,27781,584,3,3,6,1.3075383120991013
undo,40,44,0,0,0,24,"[0, 20, 9, 4, 24]",5,1,[11],35.68632638,28582,801,1,0,6,1.7589279315356292
undo,40,44,0,0,1,11,"[0, 20, 9, 4, 24, 11]",6,0,[],8.760502342,29253,671,1,0,6,1.9782480156931306
undo,40,44,1,0,0,24,"[0, 20, 9, 4, 24]",5,1,[11],35.68632638,30596,1343,1,0,6,1.7589279315356292
undo,40,44,1,0,0,4,"[0, 20, 9, 4]",4,6,"[7, 11, 12, 14, 23, 24]",70.34177328,30829,233,3,3,6,1.3075383120991013
undo,40,44,1,0,0,9,"[0, 20, 9]",3,8,"[4, 7, 8, 11, 12, 14, 23, 24]",90.03948888,31196,367,3,10,6,1.3232046144023406
undo,40,44,1,0,0,20,"[0, 20]",2,17,"[1, 4, 5, 7, 8, 9, 10, 11, 12, 13, 14, 15, 21, 23, 24, 25, 27]",147.3107731,31646,450,7,42,6,1.0
undo,40,44,1,0,0,0,[0],1,29,"[1, 2, 3, 4, 5, 6, 7, 8, 9, 10, 11, 12, 13, 14, 15, 16, 17, 18, 19, 20, 21, 22, 23, 24, 25, 26, 27, 28, 29]",300,32064,418,13,126,7,0.0
undo,40,44,0,0,0,12,"[0, 12]",2,10,"[4, 5, 7, 8, 9, 10, 13, 20, 23, 25]",84.87213105,40805,8741,7,4,4,1.0
undo,40,44,0,0,0,23,"[0, 12, 23]",3,1,[7],23.47994913,41812,1007,1,0,4,1.2625959842624261
undo,40,44,0,0,1,7,"[0, 12, 23, 7]",4,0,[],4.37497596,42733,921,1,0,4,1.430763798564965
undo,40,44,1,0,0,23,"[0, 12, 23]",3,1,[7],23.47994913,43125,392,1,0,4,1.2625959842624261
undo,40,44,1,0,0,12,"[0, 12]",2,10,"[4, 5, 7, 8, 9, 10, 13, 20, 23, 25]",84.87213105,43375,250,7,4,4,1.0
undo,40,44,1,0,0,0,[0],1,29,"[1, 2, 3, 4, 5, 6, 7, 8, 9, 10, 11, 12, 13, 14, 15, 16, 17, 18, 19, 20, 21, 22, 23, 24, 25, 26, 27, 28, 29]",300,43575,200,13,126,7,0.0
undo,40,44,0,0,0,11,"[0, 11]",2,18,"[4, 5, 6, 7, 8, 9, 12, 14, 16, 17, 19, 20, 22, 23, 24, 25, 26, 28]",152.7790776,46167,2592,5,34,7,1.0
undo,40,44,0,0,0,14,"[0, 11, 14]",3,14,"[4, 5, 6, 7, 9, 12, 16, 17, 19, 22, 23, 24, 26, 28]",120.5765932,47006,839,6,17,6,1.0032424984204007
undo,40,44,0,0,0,24,"[0, 11, 14, 24]",4,4,"[4, 7, 9, 23]",74.92574436,47918,912,3,2,6,1.4978014171296756
undo,40,44,0,0,0,9,"[0, 11, 14, 24, 9]",5,1,[4],42.16906565,49002,1084,1,0,6,1.6248916534242954
undo,40,44,0,0,1,4,"[0, 11, 14, 24, 9, 4]",6,0,[],22.47135004,50356,1354,1,0,6,1.5800842308612977
undo,40,44,0,1,1,4,"[0, 11, 14, 24, 9, 4]",6,0,[],22.47135004,52818,2462,1,0,6,1.5800842308612977
undo,41,20,0,0,0,0,[0],1,21,"[1, 2, 3, 4, 5, 6, 7, 8, 9, 12, 17, 18, 20, 21, 22, 23, 25, 26, 27, 28, 29]",300,162,-1,1,9,9,0.0
undo,41,20,0,0,0,12,"[0, 12]",2,20,"[1, 2, 3, 4, 5, 6, 7, 8, 9, 17, 18, 20, 21, 22, 23, 25, 26, 27, 28, 29]",271.5570747,2892,2730,1,8,9,1.0
undo,41,20,0,0,0,1,"[0, 12, 1]",3,12,"[3, 4, 5, 6, 8, 9, 20, 21, 23, 27, 28, 29]",189.5692707,3936,1044,1,6,9,1.0757997779162911
undo,41,20,0,0,0,5,"[0, 12, 1, 5]",4,10,"[4, 6, 8, 9, 20, 21, 23, 27, 28, 29]",152.8950291,4455,519,1,5,9,1.1708231454516806
undo,41,20,0,0,0,21,"[0, 12, 1, 5, 21]",5,8,"[4, 6, 8, 9, 20, 23, 27, 28]",107.8950291,5381,926,1,4,9,1.126197336199212
undo,41,20,0,0,0,8,"[0, 12, 1, 5, 21, 8]",6,5,"[6, 9, 23, 27, 28]",90.43077988,5932,551,1,3,9,1.140007470699913
undo,41,20,0,0,1,27,"[0, 12, 1, 5, 21, 8, 27]",7,0,[],50.20640916,6644,712,1,0,7,1.3128859656095468
undo,41,20,0,1,1,27,"[0, 12, 1, 5, 21, 8, 27]",7,0,[],50.20640916,9020,2376,1,0,7,1.3128859656095468
undo,42,4,0,0,0,0,[0],1,26,"[3, 4, 5, 6, 7, 8, 10, 11, 12, 13, 14, 15, 16, 17, 18, 19, 20, 21, 22, 23, 24, 25, 26, 27, 28, 29]",300,165,-1,4,489,10,0.0
undo,42,4,0,0,0,6,"[0, 6]",2,17,"[3, 4, 5, 10, 11, 13, 14, 15, 16, 17, 19, 20, 21, 22, 23, 25, 28]",207.2368608,2734,2569,37,365,8,1.0
undo,42,4,0,0,0,14,"[0, 6, 14]",3,12,"[3, 4, 5, 11, 13, 16, 17, 20, 21, 22, 25, 28]",131.6987909,6241,3507,20,118,8,1.2324220545619278
undo,42,4,0,0,0,25,"[0, 6, 14, 25]",4,11,"[3, 4, 5, 11, 13, 16, 17, 20, 21, 22, 28]",115.5742754,7069,828,16,48,8,1.4543367296865626
undo,42,4,0,0,0,11,"[0, 6, 14, 25, 11]",5,10,"[3, 4, 5, 13, 16, 17, 20, 21, 22, 28]",96.78598117,7845,776,9,16,8,1.6538417614149823
undo,42,4,0,0,0,16,"[0, 6, 14, 25, 11, 16]",6,7,"[3, 13, 17, 20, 21, 22, 28]",81.78598117,9252,1407,8,3,8,1.5830492223803088
undo,42,4,0,0,0,3,"[0, 6, 14, 25, 11, 16, 3]",7,1,[17],40.15666458,10011,759,1,0,8,1.4898137474343562
undo,42,4,0,0,1,17,"[0, 6, 14, 25, 11, 16, 3, 17]",8,0,[],15.64136323,10748,737,1,0,8,1.7347650817707896
undo,42,4,0,1,1,17,"[0, 6, 14, 25, 11, 16, 3, 17]",8,0,[],15.64136323,12793,2045,1,0,8,1.7347650817707896
undo,43,13,0,0,0,0,[0],1,29,"[1, 2, 3, 4, 5, 6, 7, 8, 9, 10, 11, 12, 13, 14, 15, 16, 17, 18, 19, 20, 21, 22, 23, 24, 25, 26, 27, 28, 29]",300,217,-1,60,2676,11,0.0
undo,43,13,0,0,0,24,"[0, 24]",2,28,"[1, 2, 3, 4, 5, 6, 7, 8, 9, 10, 11, 12, 13, 14, 15, 16, 17, 18, 19, 20, 21, 22, 23, 25, 26, 27, 28, 29]",288.8196601,2665,2448,16,1444,11,1.0
undo,43,13,0,0,0,28,"[0, 24, 28]",3,23,"[1, 2, 3, 4, 6, 7, 8, 9, 10, 11, 12, 13, 15, 16, 17, 19, 20, 21, 22, 23, 26, 27, 29]",222.5324064,4169,1504,8,243,11,1.0513810491680837
undo,43,13,0,0,0,2,"[0, 24, 28, 2]",4,19,"[1, 3, 4, 6, 7, 9, 11, 12, 13, 15, 16, 17, 19, 20, 21, 23, 26, 27, 29]",184.889346,5060,891,7,110,11,1.050374132001543
undo,43,13,0,0,0,29,"[0, 24, 28, 2, 29]",5,18,"[1, 3, 4, 6, 7, 9, 11, 12, 13, 15, 16, 17, 19, 20, 21, 23, 26, 27]",173.1846461,5521,461,7,85,11,1.1393409619120594
undo,43,13,0,0,0,7,"[0, 24, 28, 2, 29, 7]",6,17,"[1, 3, 4, 6, 9, 11, 12, 13, 15, 16, 17, 19, 20, 21, 23, 26, 27]",157.9203086,6460,939,5,45,11,1.349777315111579
undo,43,13,0,0,0,26,"[0, 24, 28, 2, 29, 7, 26]",7,16,"[1, 3, 4, 6, 9, 11, 12, 13, 15, 16, 17, 19, 20, 21, 23, 27]",147.480002,6912,452,5,25,11,1.5942082773824946
undo,43,13,0,0,0,11,"[0, 24, 28, 2, 29, 7, 26, 11]",8,7,"[1, 6, 13, 15, 16, 17, 23]",112.3659023,7721,809,7,4,10,1.4709275943893059
undo,43,13,0,0,0,6,"[0, 24, 28, 2, 29, 7, 26, 11, 6]",9,4,"[13, 16, 17, 23]",93.26092914,8336,615,4,0,10,1.9040751111799274
undo,43,13,0,0,1,23,"[0, 24, 28, 2, 29, 7, 26, 11, 6, 23]",10,0,[],29.7550239,10769,2433,1,0,10,4.781786407648158
undo,43,13,0,1,1,23,"[0, 24, 28, 2, 29, 7, 26, 11, 6, 23]",10,0,[],29.7550239,12628,1859,1,0,10,4.781786407648158
undo,44,8,0,0,0,0,[0],1,29,"[1, 2, 3, 4, 5, 6, 7, 8, 9, 10, 11, 12, 13, 14, 15, 16, 17, 18, 19, 20, 21, 22, 23, 24, 25, 26, 27, 28, 29]",300,165,-1,10,149,9,0.0
undo,44,8,0,0,0,5,"[0, 5]",2,28,"[1, 2, 3, 4, 6, 7, 8, 9, 10, 11, 12, 13, 14, 15, 16, 17, 18, 19, 20, 21, 22, 23, 24, 25, 26, 27, 28, 29]",254.5137383,3250,3085,10,100,9,1.0
undo,44,8,0,0,0,25,"[0, 5, 25]",3,20,"[1, 2, 3, 4, 6, 11, 12, 14, 15, 16, 17, 18, 19, 20, 21, 22, 23, 24, 28, 29]",215.3091468,4141,891,4,42,9,1.2272747879909065
undo,44,8,0,0,0,1,"[0, 5, 25, 1]",4,17,"[3, 4, 6, 11, 12, 14, 15, 16, 17, 18, 20, 21, 22, 23, 24, 28, 29]",190.3091468,4882,741,3,24,9,1.1770245007593956
undo,44,8,0,0,0,23,"[0, 5, 25, 1, 23]",5,15,"[3, 4, 6, 11, 14, 15, 16, 17, 18, 20, 21, 22, 24, 28, 29]",167.2874179,5867,985,1,14,9,1.141996583852372
undo,44,8,0,0,0,4,"[0, 5, 25, 1, 23, 4]",6,6,"[3, 14, 16, 18, 21, 28]",117.9518324,6626,759,3,4,8,1.115517190692443
undo,44,8,0,0,0,18,"[0, 5, 25, 1, 23, 4, 18]",7,2,"[14, 28]",74.94020603,7619,993,2,0,8,1.702606074443807
undo,44,8,0,0,1,14,"[0, 5, 25, 1, 23, 4, 18, 14]",8,0,[],17.45107663,8514,895,1,0,8,3.306985013025639
undo,44,8,0,1,1,14,"[0, 5, 25, 1, 23, 4, 18, 14]",8,0,[],17.45107663,10075,1561,1,0,8,3.306985013025639
undo,45,34,0,0,0,0,[0],1,25,"[1, 3, 4, 5, 6, 7, 8, 9, 10, 11, 12, 13, 15, 18, 19, 20, 21, 22, 23, 24, 25, 26, 27, 28, 29]",300,231,-1,12,367,10,0.0
undo,45,34,0,0,0,13,"[0, 13]",2,24,"[1, 3, 4, 5, 6, 7, 8, 9, 10, 11, 12, 15, 18, 19, 20, 21, 22, 23, 24, 25, 26, 27, 28, 29]",279.9750156,2148,1917,12,331,10,1.0
undo,45,34,0,0,0,1,"[0, 13, 1]",3,16,"[3, 5, 7, 8, 9, 10, 11, 12, 19, 21, 22, 23, 24, 25, 27, 29]",211.8574701,3101,953,3,92,10,1.0010381285747127
undo,45,34,0,0,0,8,"[0, 13, 1, 8]",4,14,"[3, 5, 7, 9, 10, 11, 12, 19, 22, 23, 24, 25, 27, 29]",201.0871405,4607,1506,2,54,10,1.1636807
undo,45,34,0,0,0,25,"[0, 13, 1, 8, 25]",5,12,"[3, 5, 7, 9, 10, 11, 12, 22, 23, 24, 27, 29]",183.999133,5468,861,2,28,10,1.1396208815936457
undo,45,34,0,0,0,24,"[0, 13, 1, 8, 25, 24]",6,11,"[3, 5, 7, 9, 10, 11, 12, 22, 23, 27, 29]",166.5062774,6428,960,2,23,10,1.374180768736554
undo,45,34,0,0,0,12,"[0, 13, 1, 8, 25, 24, 12]",7,7,"[7, 9, 10, 11, 22, 23, 27]",115.4670767,7364,936,1,8,10,1.4994254760835948
undo,45,34,0,0,0,7,"[0, 13, 1, 8, 25, 24, 12, 7]",8,5,"[9, 11, 22, 23, 27]",100.4337804,8045,681,1,4,10,1.758992610425009
undo,45,34,0,0,0,23,"[0, 13, 1, 8, 25, 24, 12, 7, 23]",9,1,[27],72.27352467,9963,1918,1,0,10,2.399781305190153
undo,45,34,0,0,1,27,"[0, 13, 1, 8, 25, 24, 12, 7, 23, 27]",10,0,[],18.60789321,11107,1144,1,0,10,4.766619878750327
undo,45,34,0,1,1,27,"[0, 13, 1, 8, 25, 24, 12, 7, 23, 27]",10,0,[],18.60789321,13028,1921,1,0,10,4.766619878750327
undo,46,11,0,0,0,0,[0],1,25,"[1, 2, 3, 4, 5, 6, 8, 9, 10, 11, 12, 13, 14, 15, 16, 17, 18, 19, 20, 22, 23, 25, 26, 27, 28]",300,177,-1,6,374,12,0.0
undo,46,11,0,0,0,18,"[0, 18]",2,21,"[1, 2, 4, 5, 6, 8, 9, 11, 12, 13, 14, 15, 16, 17, 19, 20, 22, 23, 25, 27, 28]",236.8493864,3826,3649,157,1477,11,1.0
undo,46,11,0,0,0,27,"[0, 18, 27]",3,19,"[1, 2, 4, 5, 6, 8, 9, 11, 12, 14, 15, 16, 17, 19, 20, 22, 23, 25, 28]",212.9956655,4535,709,157,1315,11,1.060949579704323
undo,46,11,0,0,0,8,"[0, 18, 27, 8]",4,14,"[1, 2, 4, 5, 6, 11, 12, 15, 17, 19, 22, 23, 25, 28]",142.7817068,5447,912,68,433,11,1.0827202875589923
undo,46,11,0,0,0,17,"[0, 18, 27, 8, 17]",5,13,"[1, 2, 4, 5, 6, 11, 12, 15, 19, 22, 23, 25, 28]",128.4638857,6184,737,42,137,11,1.1662918234607762
undo,46,11,0,0,0,15,"[0, 18, 27, 8, 17, 15]",6,9,"[2, 5, 6, 11, 12, 19, 22, 25, 28]",115.8147751,7071,887,38,57,11,1.1741312027420885
undo,46,11,0,0,0,11,"[0, 18, 27, 8, 17, 15, 11]",7,7,"[2, 5, 6, 12, 19, 22, 28]",97.70400479,7736,665,24,0,11,1.1668679039564056
undo,46,11,0,0,0,28,"[0, 18, 27, 8, 17, 15, 11, 28]",8,4,"[2, 5, 19, 22]",78.28751696,8304,568,6,0,11,1.2830334294205898
undo,46,11,0,0,0,5,"[0, 18, 27, 8, 17, 15, 11, 28, 5]",9,2,"[2, 22]",60.39897314,8919,615,2,0,11,1.472719061667125
undo,46,11,0,0,0,2,"[0, 18, 27, 8, 17, 15, 11, 28, 5, 2]",10,1,[22],43.39897314,9514,595,1,0,11,1.437636650715907
undo,46,11,0,0,1,22,"[0, 18, 27, 8, 17, 15, 11, 28, 5, 2, 22]",11,0,[],33.34909751,10266,752,1,0,11,1.414339916866727
undo,46,11,0,1,1,22,"[0, 18, 27, 8, 17, 15, 11, 28, 5, 2, 22]",11,0,[],33.34909751,12095,1829,1,0,11,1.414339916866727
undo,47,39,0,0,0,0,[0],1,28,"[1, 2, 3, 4, 5, 6, 7, 9, 10, 11, 12, 13, 14, 15, 16, 17, 18, 19, 20, 21, 22, 23, 24, 25, 26, 27, 28, 29]",300,165,-1,1,30,10,0.0
undo,47,39,0,0,0,29,"[0, 29]",2,26,"[1, 2, 3, 4, 5, 6, 7, 9, 10, 12, 13, 14, 15, 16, 17, 18, 19, 20, 21, 22, 23, 24, 25, 26, 27, 28]",243.0614366,4744,4579,8,104,9,1.0
undo,47,39,0,0,0,12,"[0, 29, 12]",3,18,"[1, 2, 4, 5, 7, 9, 10, 13, 14, 15, 16, 18, 19, 22, 23, 24, 26, 28]",182.5221931,5638,894,5,54,9,1.0026200331524904
undo,47,39,0,0,0,10,"[0, 29, 12, 10]",4,16,"[1, 2, 4, 5, 7, 9, 13, 14, 15, 16, 18, 19, 22, 23, 24, 26]",147.0116313,6294,656,5,34,9,1.2874817019928908
undo,47,39,0,0,0,7,"[0, 29, 12, 10, 7]",5,10,"[1, 2, 5, 13, 16, 18, 19, 22, 24, 26]",113.5900814,6869,575,4,12,9,1.2250826263866774
undo,47,39,0,0,0,26,"[0, 29, 12, 10, 7, 26]",6,5,"[1, 16, 18, 19, 22]",94.90853971,7430,561,3,4,9,1.2697275353190085
undo,47,39,0,0,0,22,"[0, 29, 12, 10, 7, 26, 22]",7,2,"[16, 19]",77.18849457,7913,483,2,0,9,1.438961743955176
undo,47,39,0,0,0,16,"[0, 29, 12, 10, 7, 26, 22, 16]",8,1,[19],42.18849457,8557,644,1,0,9,1.3580882130477205
undo,47,39,0,0,1,19,"[0, 29, 12, 10, 7, 26, 22, 16, 19]",9,0,[],24.72424537,9885,1328,1,0,9,1.3646589157842668
undo,47,39,0,1,1,19,"[0, 29, 12, 10, 7, 26, 22, 16, 19]",9,0,[],24.72424537,11362,1477,1,0,9,1.3646589157842668
undo,48,21,0,0,0,0,[0],1,29,"[1, 2, 3, 4, 5, 6, 7, 8, 9, 10, 11, 12, 13, 14, 15, 16, 17, 18, 19, 20, 21, 22, 23, 24, 25, 26, 27, 28, 29]",300,198,-1,84,830,9,0.0
undo,48,21,0,0,0,25,"[0, 25]",2,26,"[1, 2, 3, 4, 5, 6, 7, 8, 9, 10, 11, 12, 13, 14, 15, 16, 17, 18, 20, 21, 22, 23, 24, 26, 27, 29]",240.1836143,3481,3283,30,238,9,1.0
undo,48,21,0,0,0,23,"[0, 25, 23]",3,21,"[1, 2, 4, 6, 7, 8, 9, 10, 11, 12, 14, 15, 16, 17, 18, 20, 21, 22, 24, 27, 29]",196.8592562,5513,2032,14,80,9,1.0416131642057598
undo,48,21,0,0,0,21,"[0, 25, 23, 21]",4,14,"[1, 4, 6, 8, 9, 14, 15, 16, 17, 18, 20, 22, 24, 29]",167.2450705,7202,1689,10,25,9,1.4768792067751173
undo,48,21,0,0,0,14,"[0, 25, 23, 21, 14]",5,10,"[4, 8, 9, 15, 16, 17, 18, 22, 24, 29]",141.6325735,8312,1110,8,13,9,1.3826076066332742
undo,48,21,0,0,0,4,"[0, 25, 23, 21, 14, 4]",6,7,"[8, 15, 16, 17, 18, 24, 29]",127.4904379,9000,688,8,3,9,1.3487191473328533
undo,48,21,0,0,0,16,"[0, 25, 23, 21, 14, 4, 16]",7,3,"[8, 15, 24]",82.89223163,10161,1161,4,1,9,1.3301484172843694
undo,48,21,0,0,0,8,"[0, 25, 23, 21, 14, 4, 16, 8]",8,2,"[15, 24]",64.2911564,11216,1055,2,0,9,1.3009886562393016
undo,48,21,0,0,1,15,"[0, 25, 23, 21, 14, 4, 16, 8, 15]",9,0,[],39.2911564,11889,673,1,0,9,1.5486591410600183
undo,48,21,0,1,1,15,"[0, 25, 23, 21, 14, 4, 16, 8, 15]",9,0,[],39.2911564,14109,2220,1,0,9,1.5486591410600183
undo,49,9,0,0,0,0,[0],1,27,"[1, 3, 4, 5, 6, 7, 8, 9, 10, 11, 13, 14, 15, 16, 17, 18, 19, 20, 21, 22, 23, 24, 25, 26, 27, 28, 29]",300,165,-1,2,182,10,0.0
undo,49,9,0,0,0,9,"[0, 9]",2,26,"[1, 3, 4, 5, 6, 7, 8, 10, 11, 13, 14, 15, 16, 17, 18, 19, 20, 21, 22, 23, 24, 25, 26, 27, 28, 29]",225.5352432,4724,4559,2,101,9,1.0
undo,49,9,0,0,0,23,"[0, 9, 23]",3,22,"[1, 3, 4, 5, 7, 8, 10, 11, 13, 15, 16, 17, 18, 19, 20, 21, 22, 24, 25, 26, 27, 28]",203.1745635,5259,535,2,70,9,1.6262276606762436
undo,49,9,0,0,0,8,"[0, 9, 23, 8]",4,18,"[3, 4, 5, 7, 10, 11, 15, 16, 17, 18, 19, 20, 21, 22, 25, 26, 27, 28]",181.7036529,5800,541,1,36,9,1.8547307061753238
undo,49,9,0,0,0,28,"[0, 9, 23, 8, 28]",5,17,"[3, 4, 5, 7, 10, 11, 15, 16, 17, 18, 19, 20, 21, 22, 25, 26, 27]",170.8869991,6276,476,1,23,9,1.7382749966569708
undo,49,9,0,0,0,26,"[0, 9, 23, 8, 28, 26]",6,10,"[3, 5, 10, 15, 16, 18, 19, 20, 21, 25]",126.1097727,7880,1604,4,7,8,1.4884719959249546
undo,49,9,0,0,0,21,"[0, 9, 23, 8, 28, 26, 21]",7,1,[20],72.20244484,9648,1768,1,0,8,1.9218119811471304
undo,49,9,0,0,1,20,"[0, 9, 23, 8, 28, 26, 21, 20]",8,0,[],60.11939886,10217,569,1,0,8,1.8940565724013747
undo,49,9,0,1,1,20,"[0, 9, 23, 8, 28, 26, 21, 20]",8,0,[],60.11939886,13044,2827,1,0,8,1.8940565724013747
undo,50,33,0,0,0,0,[0],1,23,"[1, 2, 5, 7, 8, 11, 12, 13, 14, 15, 16, 17, 18, 19, 20, 21, 23, 24, 25, 26, 27, 28, 29]",300,183,-1,5,108,9,0.0
undo,50,33,0,0,0,8,"[0, 8]",2,22,"[1, 2, 5, 7, 11, 12, 13, 14, 15, 16, 17, 18, 19, 20, 21, 23, 24, 25, 26, 27, 28, 29]",265.8679037,4280,4097,5,87,9,1.0
undo,50,33,0,0,0,21,"[0, 8, 21]",3,16,"[2, 5, 7, 11, 13, 14, 16, 17, 18, 19, 20, 24, 26, 27, 28, 29]",166.0430571,5577,1297,5,80,9,1.0670557763739492
undo,50,33,0,0,0,17,"[0, 8, 21, 17]",4,11,"[2, 7, 11, 13, 14, 16, 19, 20, 24, 26, 29]",127.4036989,7120,1543,1,18,9,1.0830294710276618
undo,50,33,0,0,0,13,"[0, 8, 21, 17, 13]",5,10,"[2, 7, 11, 14, 16, 19, 20, 24, 26, 29]",104.6001904,7768,648,1,10,9,1.2861654105061844
undo,50,33,0,0,0,19,"[0, 8, 21, 17, 13, 19]",6,6,"[7, 14, 16, 24, 26, 29]",79.10509282,8432,664,1,6,9,1.3181942666818214
undo,50,33,0,0,0,24,"[0, 8, 21, 17, 13, 19, 24]",7,1,[7],37.05750074,9400,968,1,0,8,1.2914654832859356
undo,50,33,0,0,1,7,"[0, 8, 21, 17, 13, 19, 24, 7]",8,0,[],7.851337003,10152,752,1,0,8,1.370940443464748
undo,50,33,0,1,1,7,"[0, 8, 21, 17, 13, 19, 24, 7]",8,0,[],7.851337003,11559,1407,1,0,8,1.370940443464748
undo,51,25,0,0,0,0,[0],1,28,"[1, 2, 3, 4, 5, 7, 8, 9, 10, 11, 12, 13, 14, 15, 16, 17, 18, 19, 20, 21, 22, 23, 24, 25, 26, 27, 28, 29]",300,164,-1,5,94,10,0.0
undo,51,25,0,0,0,21,"[0, 21]",2,19,"[1, 2, 3, 5, 7, 8, 9, 11, 12, 13, 17, 18, 19, 20, 22, 23, 24, 25, 29]",249.7904392,5814,5650,1,28,9,1.0
undo,51,25,0,0,0,20,"[0, 21, 20]",3,12,"[1, 2, 5, 7, 12, 17, 19, 22, 23, 24, 25, 29]",212.3071095,6540,726,10,30,8,1.124267826923077
undo,51,25,0,0,0,1,"[0, 21, 20, 1]",4,8,"[5, 7, 12, 19, 22, 23, 24, 29]",164.8940312,7150,610,10,14,8,4.351470253441195
undo,51,25,0,0,0,23,"[0, 21, 20, 1, 23]",5,5,"[5, 7, 19, 22, 29]",97.88656889,9761,2611,5,1,8,5.024651162492001
undo,51,25,0,0,0,19,"[0, 21, 20, 1, 23, 19]",6,2,"[22, 29]",62.03967224,10685,924,2,0,8,4.95213632862193
undo,51,25,0,0,0,29,"[0, 21, 20, 1, 23, 19, 29]",7,1,[22],45.76085164,11313,628,1,0,8,4.05965035179028
undo,51,25,0,0,1,22,"[0, 21, 20, 1, 23, 19, 29, 22]",8,0,[],29.63633614,11901,588,1,0,8,3.4944591417822504
undo,51,25,0,1,1,22,"[0, 21, 20, 1, 23, 19, 29, 22]",8,0,[],29.63633614,13961,2060,1,0,8,3.4944591417822504
undo,52,26,0,0,0,0,[0],1,29,"[1, 2, 3, 4, 5, 6, 7, 8, 9, 10, 11, 12, 13, 14, 15, 16, 17, 18, 19, 20, 21, 22, 23, 24, 25, 26, 27, 28, 29]",300,233,-1,9,226,9,0.0
undo,52,26,0,0,0,12,"[0, 12]",2,26,"[1, 2, 3, 4, 5, 6, 8, 10, 11, 13, 14, 15, 16, 17, 18, 19, 20, 21, 22, 23, 24, 25, 26, 27, 28, 29]",279.8753882,4209,3976,2,80,9,1.0
undo,52,26,0,0,0,4,"[0, 12, 4]",3,11,"[5, 6, 10, 13, 14, 16, 17, 19, 21, 23, 29]",149.4108336,5465,1256,16,95,8,1.242461188572386
undo,52,26,0,0,0,10,"[0, 12, 4, 10]",4,5,"[6, 14, 16, 17, 29]",99.20127279,7628,2163,9,4,7,1.2408939482033285
undo,52,26,0,0,0,6,"[0, 12, 4, 10, 6]",5,3,"[14, 17, 29]",69.92671045,8722,1094,4,1,7,1.4324847850835882
undo,52,26,0,0,0,14,"[0, 12, 4, 10, 6, 14]",6,2,"[17, 29]",48.90291441,9473,751,2,0,7,1.5581372031285525
undo,52,26,0,0,1,17,"[0, 12, 4, 10, 6, 14, 17]",7,0,[],26.43070935,10017,544,1,0,7,1.9253511128001455
undo,52,26,1,0,0,14,"[0, 12, 4, 10, 6, 14]",6,2,"[17, 29]",48.90291441,12594,2577,2,0,7,1.5581372031285525
undo,52,26,1,0,0,6,"[0, 12, 4, 10, 6]",5,3,"[14, 17, 29]",69.92671045,12962,368,4,1,7,1.4324847850835882
undo,52,26,1,0,0,10,"[0, 12, 4, 10]",4,5,"[6, 14, 16, 17, 29]",99.20127279,13328,366,9,4,7,1.2408939482033285
undo,52,26,1,0,0,4,"[0, 12, 4]",3,11,"[5, 6, 10, 13, 14, 16, 17, 19, 21, 23, 29]",149.4108336,13762,434,16,95,8,1.242461188572386
undo,52,26,0,0,0,17,"[0, 12, 4, 17]",4,8,"[6, 10, 13, 14, 16, 21, 23, 29]",128.3158105,15169,1407,4,24,8,1.2082947779651163
undo,52,26,0,0,0,6,"[0, 12, 4, 17, 6]",5,4,"[10, 14, 16, 29]",108.1911987,16089,920,2,6,8,1.1942420175970017
undo,52,26,0,0,0,14,"[0, 12, 4, 17, 6, 14]",6,3,"[10, 16, 29]",87.16740268,16961,872,2,1,8,1.3206938947282516
undo,52,26,0,0,0,29,"[0, 12, 4, 17, 6, 14, 29]",7,1,[16],45.93634642,17697,736,1,0,8,2.0792783678895326
undo,52,26,0,0,1,16,"[0, 12, 4, 17, 6, 14, 29, 16]",8,0,[],21.72890955,19456,1759,1,0,8,2.485752568115748
undo,52,26,0,1,1,16,"[0, 12, 4, 17, 6, 14, 29, 16]",8,0,[],21.72890955,20736,1280,1,0,8,2.485752568115748
undo,53,7,0,0,0,0,[0],1,29,"[1, 2, 3, 4, 5, 6, 7, 8, 9, 10, 11, 12, 13, 14, 15, 16, 17, 18, 19, 20, 21, 22, 23, 24, 25, 26, 27, 28, 29]",300,165,-1,3,79,9,0.0
undo,53,7,0,0,0,15,"[0, 15]",2,19,"[2, 4, 5, 6, 7, 8, 9, 10, 13, 14, 16, 18, 19, 20, 21, 23, 25, 27, 28]",230.9348134,4918,4753,2,38,9,1.0
undo,53,7,0,0,0,6,"[0, 15, 6]",3,18,"[2, 4, 5, 7, 8, 9, 10, 13, 14, 16, 18, 19, 20, 21, 23, 25, 27, 28]",205.854941,5374,456,2,36,9,1.366719602896943
undo,53,7,0,0,0,25,"[0, 15, 6, 25]",4,11,"[2, 4, 7, 13, 14, 16, 18, 19, 20, 21, 23]",138.6760753,6686,1312,2,28,9,1.3624631728355765
undo,53,7,0,0,0,4,"[0, 15, 6, 25, 4]",5,7,"[2, 7, 13, 16, 18, 19, 20]",113.9374415,7430,744,2,12,9,1.3249684384385587
undo,53,7,0,0,0,20,"[0, 15, 6, 25, 4, 20]",6,5,"[2, 7, 13, 18, 19]",94.29055881,8486,1056,1,6,9,1.3721893242679268
undo,53,7,0,0,0,18,"[0, 15, 6, 25, 4, 20, 18]",7,3,"[7, 13, 19]",81.48431034,9054,568,1,2,9,1.5262542308371432
undo,53,7,0,0,0,7,"[0, 15, 6, 25, 4, 20, 18, 7]",8,1,[19],40.25325408,9795,741,1,0,9,1.41986878673423
undo,53,7,0,0,1,19,"[0, 15, 6, 25, 4, 20, 18, 7, 19]",9,0,[],10.84237174,10647,852,1,0,9,1.5285658163212987
undo,53,7,0,1,1,19,"[0, 15, 6, 25, 4, 20, 18, 7, 19]",9,0,[],10.84237174,12026,1379,1,0,9,1.5285658163212987
undo,54,18,0,0,0,0,[0],1,28,"[1, 2, 3, 4, 5, 6, 7, 8, 9, 10, 11, 12, 13, 14, 16, 17, 18, 19, 20, 21, 22, 23, 24, 25, 26, 27, 28, 29]",300,181,-1,3,136,10,0.0
undo,54,18,0,0,0,28,"[0, 28]",2,16,"[1, 3, 5, 7, 8, 9, 12, 13, 14, 16, 20, 23, 24, 25, 26, 27]",236.4311397,2421,2240,2,19,10,1.0
undo,54,18,0,0,0,7,"[0, 28, 7]",3,15,"[1, 3, 5, 8, 9, 12, 13, 14, 16, 20, 23, 24, 25, 26, 27]",214.4084242,3090,669,2,17,10,1.4345180696367563
undo,54,18,0,0,0,25,"[0, 28, 7, 25]",4,13,"[1, 3, 5, 8, 9, 12, 13, 14, 16, 20, 23, 26, 27]",186.6055466,4433,1343,2,15,10,1.8896451241781882
undo,54,18,0,0,0,8,"[0, 28, 7, 25, 8]",5,10,"[3, 5, 9, 12, 13, 14, 16, 23, 26, 27]",149.551532,5113,680,2,10,10,1.590467437592877
undo,54,18,0,0,0,3,"[0, 28, 7, 25, 8, 3]",6,6,"[5, 12, 13, 14, 23, 27]",121.4801943,5833,720,1,10,9,1.4587755974793148
undo,54,18,0,0,0,14,"[0, 28, 7, 25, 8, 3, 14]",7,4,"[5, 12, 13, 27]",91.39697637,6760,927,4,0,8,1.8606737724243565
undo,54,18,0,0,1,13,"[0, 28, 7, 25, 8, 3, 14, 13]",8,0,[],72.42331041,7193,433,1,0,8,2.4208916262893254
undo,54,18,1,0,0,14,"[0, 28, 7, 25, 8, 3, 14]",7,4,"[5, 12, 13, 27]",91.39697637,9857,2664,4,0,8,1.8606737724243565
undo,54,18,1,0,0,3,"[0, 28, 7, 25, 8, 3]",6,6,"[5, 12, 13, 14, 23, 27]",121.4801943,10224,367,1,10,9,1.4587755974793148
undo,54,18,1,0,0,8,"[0, 28, 7, 25, 8]",5,10,"[3, 5, 9, 12, 13, 14, 16, 23, 26, 27]",149.551532,11026,802,2,10,10,1.590467437592877
undo,54,18,0,0,0,13,"[0, 28, 7, 25, 8, 13]",6,9,"[3, 5, 9, 12, 14, 16, 23, 26, 27]",128.4565089,12953,1927,2,5,10,1.8248274983549797
undo,54,18,0,0,0,14,"[0, 28, 7, 25, 8, 13, 14]",7,7,"[3, 5, 9, 12, 23, 26, 27]",109.4828429,13577,624,2,3,10,1.6993534956692746
undo,54,18,0,0,0,3,"[0, 28, 7, 25, 8, 13, 14, 3]",8,3,"[5, 12, 27]",79.39962499,14284,707,2,1,10,1.802637206541468
undo,54,18,0,0,0,5,"[0, 28, 7, 25, 8, 13, 14, 3, 5]",9,1,[12],21.21887216,15290,1006,1,0,10,1.559774889743805
undo,54,18,0,0,1,12,"[0, 28, 7, 25, 8, 13, 14, 3, 5, 12]",10,0,[],9.817117911,15889,599,1,0,10,1.563993037384447
undo,54,18,0,1,1,12,"[0, 28, 7, 25, 8, 13, 14, 3, 5, 12]",10,0,[],9.817117911,17365,1476,1,0,10,1.563993037384447
undo,55,29,0,0,0,0,[0],1,29,"[1, 2, 3, 4, 5, 6, 7, 8, 9, 10, 11, 12, 13, 14, 15, 16, 17, 18, 19, 20, 21, 22, 23, 24, 25, 26, 27, 28, 29]",300,165,-1,1,78,9,0.0
undo,55,29,0,0,0,14,"[0, 14]",2,22,"[1, 3, 4, 5, 6, 7, 9, 10, 11, 12, 13, 15, 16, 17, 21, 22, 23, 25, 26, 27, 28, 29]",209.490332,3977,3812,21,110,8,1.0
undo,55,29,0,0,0,13,"[0, 14, 13]",3,18,"[1, 4, 5, 6, 7, 9, 10, 12, 15, 16, 17, 21, 22, 25, 26, 27, 28, 29]",191.4625756,4708,731,20,75,8,1.0027006502223275
undo,55,29,0,0,0,5,"[0, 14, 13, 5]",4,15,"[1, 4, 6, 7, 9, 12, 15, 17, 21, 22, 25, 26, 27, 28, 29]",165.7526554,5292,584,19,49,8,1.0803937325657265
undo,55,29,0,0,0,4,"[0, 14, 13, 5, 4]",5,5,"[7, 9, 12, 21, 22]",113.8585324,6817,1525,5,5,8,1.0589046774357636
undo,55,29,0,0,0,9,"[0, 14, 13, 5, 4, 9]",6,3,"[7, 12, 21]",72.82196333,7897,1080,2,1,8,1.2033484462540056
undo,55,29,0,0,0,7,"[0, 14, 13, 5, 4, 9, 7]",7,1,[12],43.75307962,9346,1449,1,0,8,1.5581999677939193
undo,55,29,0,0,1,12,"[0, 14, 13, 5, 4, 9, 7, 12]",8,0,[],30.15160911,10449,1103,1,0,8,1.747955919287298
undo,55,29,0,1,1,12,"[0, 14, 13, 5, 4, 9, 7, 12]",8,0,[],30.15160911,12194,1745,1,0,8,1.747955919287298
undo,56,41,0,0,0,0,[0],1,29,"[1, 2, 3, 4, 5, 6, 7, 8, 9, 10, 11, 12, 13, 14, 15, 16, 17, 18, 19, 20, 21, 22, 23, 24, 25, 26, 27, 28, 29]",300,164,-1,1,143,10,0.0
undo,56,41,0,0,0,13,"[0, 13]",2,23,"[1, 2, 3, 5, 6, 7, 9, 10, 11, 12, 14, 15, 17, 18, 19, 20, 21, 22, 24, 25, 26, 27, 28]",258.2747079,2501,2337,1,55,10,1.0
undo,56,41,0,0,0,28,"[0, 13, 28]",3,22,"[1, 2, 3, 5, 6, 7, 9, 10, 11, 12, 14, 15, 17, 18, 19, 20, 21, 22, 24, 25, 26, 27]",223.7928286,3806,1305,1,39,10,1.895724242592676
undo,56,41,0,0,0,3,"[0, 13, 28, 3]",4,17,"[1, 2, 5, 6, 9, 10, 12, 14, 17, 18, 19, 20, 21, 22, 24, 25, 27]",175.6887747,5191,1385,2,25,9,3.13733230176717
undo,56,41,0,0,0,21,"[0, 13, 28, 3, 21]",5,15,"[1, 2, 5, 6, 9, 10, 12, 14, 17, 18, 19, 20, 22, 25, 27]",143.5484574,5980,789,1,12,9,3.200897555026241
undo,56,41,0,0,0,17,"[0, 13, 28, 3, 21, 17]",6,4,"[1, 2, 9, 10]",91.88609196,6726,746,2,2,8,3.2831909231796397
undo,56,41,0,0,0,9,"[0, 13, 28, 3, 21, 17, 9]",7,1,[2],60.86996712,7411,685,1,0,8,2.9058664370085396
undo,56,41,0,0,1,2,"[0, 13, 28, 3, 21, 17, 9, 2]",8,0,[],48.78692114,7949,538,1,0,8,2.7765556097939235
undo,56,41,0,1,1,2,"[0, 13, 28, 3, 21, 17, 9, 2]",8,0,[],48.78692114,9374,1425,1,0,8,2.7765556097939235
undo,57,3,0,0,0,0,[0],1,29,"[1, 2, 3, 4, 5, 6, 7, 8, 9, 10, 11, 12, 13, 14, 15, 16, 17, 18, 19, 20, 21, 22, 23, 24, 25, 26, 27, 28, 29]",300,165,-1,34,427,10,0.0
undo,57,3,0,0,0,8,"[0, 8]",2,28,"[1, 2, 3, 4, 5, 6, 7, 9, 10, 11, 12, 13, 14, 15, 16, 17, 18, 19, 20, 21, 22, 23, 24, 25, 26, 27, 28, 29]",239.9666759,3824,3659,1,54,10,1.0
undo,57,3,0,0,0,24,"[0, 8, 24]",3,23,"[1, 2, 3, 4, 5, 6, 7, 10, 11, 12, 14, 15, 16, 17, 18, 19, 20, 21, 22, 25, 26, 27, 28]",227.8011509,4332,508,1,50,10,1.2267083825981846
undo,57,3,0,0,0,17,"[0, 8, 24, 17]",4,11,"[3, 4, 7, 10, 14, 15, 16, 19, 20, 21, 27]",158.4469873,5684,1352,1,18,10,1.3836579788002414
undo,57,3,0,0,0,20,"[0, 8, 24, 17, 20]",5,9,"[3, 4, 7, 10, 14, 15, 16, 19, 21]",145.7978767,6428,744,1,14,10,1.3620097615632467
undo,57,3,0,0,0,3,"[0, 8, 24, 17, 20, 3]",6,5,"[4, 10, 14, 19, 21]",125.4017986,8646,2218,1,11,10,1.3956695218398405
undo,57,3,0,0,0,19,"[0, 8, 24, 17, 20, 3, 19]",7,4,"[4, 10, 14, 21]",88.06548922,9603,957,1,4,10,1.4360605238855817
undo,57,3,0,0,0,21,"[0, 8, 24, 17, 20, 3, 19, 21]",8,2,"[10, 14]",75.85893361,10299,696,1,1,10,1.4576450248605066
undo,57,3,0,0,0,14,"[0, 8, 24, 17, 20, 3, 19, 21, 14]",9,1,[10],48.95168551,12100,1801,1,0,10,1.9505702217699148
undo,57,3,0,0,1,10,"[0, 8, 24, 17, 20, 3, 19, 21, 14, 10]",10,0,[],3.498412803,13029,929,1,0,10,1.8830527336542522
undo,57,3,0,1,1,10,"[0, 8, 24, 17, 20, 3, 19, 21, 14, 10]",10,0,[],3.498412803,14146,1117,1,0,10,1.8830527336542522
undo,58,19,0,0,0,0,[0],1,29,"[1, 2, 3, 4, 5, 6, 7, 8, 9, 10, 11, 12, 13, 14, 15, 16, 17, 18, 19, 20, 21, 22, 23, 24, 25, 26, 27, 28, 29]",300,165,-1,12,149,8,0.0
undo,58,19,0,0,0,16,"[0, 16]",2,13,"[1, 2, 3, 5, 8, 12, 13, 15, 17, 19, 23, 25, 29]",194.2408396,4436,4271,1,26,7,1.0
undo,58,19,0,0,0,12,"[0, 16, 12]",3,10,"[1, 2, 3, 8, 13, 17, 19, 23, 25, 29]",126.5651424,6777,2341,1,12,7,1.450081650625254
undo,58,19,0,0,0,17,"[0, 16, 12, 17]",4,6,"[1, 2, 3, 8, 23, 25]",106.4405306,8324,1547,1,5,7,1.3965315142886428
undo,58,19,0,0,0,25,"[0, 16, 12, 17, 25]",5,5,"[1, 2, 3, 8, 23]",95.39516956,10231,1907,1,4,7,1.5003967468312378
undo,58,19,0,0,0,23,"[0, 16, 12, 17, 25, 23]",6,1,[3],25.75322818,11366,1135,1,0,7,1.5252417053127876
undo,58,19,0,0,1,3,"[0, 16, 12, 17, 25, 23, 3]",7,0,[],3.821515977,12082,716,1,0,7,1.4696738618286642
undo,58,19,1,0,0,23,"[0, 16, 12, 17, 25, 23]",6,1,[3],25.75322818,14830,2748,1,0,7,1.5252417053127876
undo,58,19,1,0,0,25,"[0, 16, 12, 17, 25]",5,5,"[1, 2, 3, 8, 23]",95.39516956,15263,433,1,4,7,1.5003967468312378
undo,58,19,1,0,0,17,"[0, 16, 12, 17]",4,6,"[1, 2, 3, 8, 23, 25]",106.4405306,15647,384,1,5,7,1.3965315142886428
undo,58,19,1,0,0,12,"[0, 16, 12]",3,10,"[1, 2, 3, 8, 13, 17, 19, 23, 25, 29]",126.5651424,16064,417,1,12,7,1.450081650625254
undo,58,19,1,0,0,16,"[0, 16]",2,13,"[1, 2, 3, 5, 8, 12, 13, 15, 17, 19, 23, 25, 29]",194.2408396,16381,317,1,26,7,1.0
undo,58,19,1,0,0,0,[0],1,29,"[1, 2, 3, 4, 5, 6, 7, 8, 9, 10, 11, 12, 13, 14, 15, 16, 17, 18, 19, 20, 21, 22, 23, 24, 25, 26, 27, 28, 29]",300,16982,601,12,149,8,0.0
undo,58,19,0,0,0,29,"[0, 29]",2,28,"[1, 2, 3, 4, 5, 6, 7, 8, 9, 10, 11, 12, 13, 14, 15, 16, 17, 18, 19, 20, 21, 22, 23, 24, 25, 26, 27, 28]",265.0715016,17979,997,12,120,8,1.0
undo,58,19,0,0,0,1,"[0, 29, 1]",3,16,"[2, 3, 7, 8, 9, 10, 12, 13, 16, 17, 18, 19, 21, 23, 25, 26]",156.5496144,20607,2628,5,43,7,1.0724082319271095
undo,58,19,0,0,0,12,"[0, 29, 1, 12]",4,4,"[16, 17, 23, 25]",81.54294804,21795,1188,2,2,6,1.826510350228948
undo,58,19,0,0,0,17,"[0, 29, 1, 12, 17]",5,1,[25],61.41833625,22476,681,1,0,6,1.7213666331650486
undo,58,19,0,0,1,25,"[0, 29, 1, 12, 17, 25]",6,0,[],50.37297523,23003,527,1,0,6,1.8305509947180931
undo,58,19,1,0,0,17,"[0, 29, 1, 12, 17]",5,1,[25],61.41833625,23756,753,1,0,6,1.7213666331650486
undo,58,19,1,0,0,12,"[0, 29, 1, 12]",4,4,"[16, 17, 23, 25]",81.54294804,24073,317,2,2,6,1.826510350228948
undo,58,19,1,0,0,1,"[0, 29, 1]",3,16,"[2, 3, 7, 8, 9, 10, 12, 13, 16, 17, 18, 19, 21, 23, 25, 26]",156.5496144,24306,233,5,43,7,1.0724082319271095
undo,58,19,1,0,0,29,"[0, 29]",2,28,"[1, 2, 3, 4, 5, 6, 7, 8, 9, 10, 11, 12, 13, 14, 15, 16, 17, 18, 19, 20, 21, 22, 23, 24, 25, 26, 27, 28]",265.0715016,24690,384,12,120,8,1.0
undo,58,19,1,0,0,0,[0],1,29,"[1, 2, 3, 4, 5, 6, 7, 8, 9, 10, 11, 12, 13, 14, 15, 16, 17, 18, 19, 20, 21, 22, 23, 24, 25, 26, 27, 28, 29]",300,25607,917,12,149,8,0.0
undo,58,19,0,0,0,9,"[0, 9]",2,21,"[1, 4, 5, 6, 7, 10, 11, 12, 13, 14, 15, 19, 20, 21, 22, 23, 24, 25, 27, 28, 29]",185.9956141,26850,1243,13,76,7,1.0
undo,58,19,0,0,0,6,"[0, 9, 6]",3,13,"[4, 7, 10, 11, 13, 14, 20, 21, 22, 24, 27, 28, 29]",144.5589154,27634,784,13,38,7,1.0111071984935167
undo,58,19,0,0,0,14,"[0, 9, 6, 14]",4,7,"[4, 10, 11, 20, 22, 24, 28]",84.87642216,29771,2137,3,7,7,1.0286990589700116
undo,58,19,0,0,0,4,"[0, 9, 6, 14, 4]",5,1,[28],34.86642316,30907,1136,1,0,6,1.6087621986904117
undo,58,19,0,0,1,28,"[0, 9, 6, 14, 4, 28]",6,0,[],23.68608328,31387,480,1,0,6,1.6860952109428544
undo,58,19,1,0,0,4,"[0, 9, 6, 14, 4]",5,1,[28],34.86642316,32080,693,1,0,6,1.6087621986904117
undo,58,19,1,0,0,14,"[0, 9, 6, 14]",4,7,"[4, 10, 11, 20, 22, 24, 28]",84.87642216,32347,267,3,7,7,1.0286990589700116
undo,58,19,1,0,0,6,"[0, 9, 6]",3,13,"[4, 7, 10, 11, 13, 14, 20, 21, 22, 24, 27, 28, 29]",144.5589154,32581,234,13,38,7,1.0111071984935167
undo,58,19,1,0,0,9,"[0, 9]",2,21,"[1, 4, 5, 6, 7, 10, 11, 12, 13, 14, 15, 19, 20, 21, 22, 23, 24, 25, 27, 28, 29]",185.9956141,32815,234,13,76,7,1.0
undo,58,19,1,0,0,0,[0],1,29,"[1, 2, 3, 4, 5, 6, 7, 8, 9, 10, 11, 12, 13, 14, 15, 16, 17, 18, 19, 20, 21, 22, 23, 24, 25, 26, 27, 28, 29]",300,33115,300,12,149,8,0.0
undo,58,19,0,0,0,12,"[0, 12]",2,15,"[1, 2, 3, 5, 8, 9, 13, 16, 17, 18, 19, 21, 23, 25, 29]",180.3964883,36039,2924,9,58,7,1.0
undo,58,19,0,0,0,17,"[0, 12, 17]",3,11,"[1, 2, 3, 8, 13, 16, 18, 19, 23, 25, 29]",160.2718765,37275,1236,6,25,7,1.0081383695928103
undo,58,19,0,0,0,25,"[0, 12, 17, 25]",4,10,"[1, 2, 3, 8, 13, 16, 18, 19, 23, 29]",149.2265155,38191,916,6,16,7,1.1056437189959143
undo,58,19,0,0,0,23,"[0, 12, 17, 25, 23]",5,6,"[1, 2, 3, 8, 18, 19]",79.58457415,39359,1168,3,4,7,1.2258550858033517
undo,58,19,0,0,0,3,"[0, 12, 17, 25, 23, 3]",6,2,"[8, 18]",57.65286195,40298,939,2,0,7,1.2025561392684052
undo,58,19,0,0,1,8,"[0, 12, 17, 25, 23, 3, 8]",7,0,[],34.32905437,41299,1001,1,0,7,1.2191744156192352
undo,58,19,0,1,1,8,"[0, 12, 17, 25, 23, 3, 8]",7,0,[],34.32905437,43058,1759,1,0,7,1.2191744156192352
undo,59,10,0,0,0,0,[0],1,29,"[1, 2, 3, 4, 5, 6, 7, 8, 9, 10, 11, 12, 13, 14, 15, 16, 17, 18, 19, 20, 21, 22, 23, 24, 25, 26, 27, 28, 29]",300,197,-1,1,100,9,0.0
undo,59,10,0,0,0,13,"[0, 13]",2,25,"[1, 2, 3, 4, 6, 7, 8, 9, 10, 11, 12, 14, 17, 18, 19, 20, 21, 22, 23, 24, 25, 26, 27, 28, 29]",249.4628849,2676,2479,1,79,9,1.0
undo,59,10,0,0,0,19,"[0, 13, 19]",3,12,"[2, 6, 8, 9, 10, 11, 14, 18, 20, 24, 26, 27]",180.5861835,3765,1089,11,79,8,1.0000581961988606
undo,59,10,0,0,0,2,"[0, 13, 19, 2]",4,5,"[11, 14, 20, 26, 27]",136.6771867,4733,968,3,9,8,1.000456581399483
undo,59,10,0,0,0,14,"[0, 13, 19, 2, 14]",5,4,"[11, 20, 26, 27]",124.5116616,5391,658,3,6,8,1.0972737011325653
undo,59,10,0,0,0,26,"[0, 13, 19, 2, 14, 26]",6,3,"[11, 20, 27]",89.84178999,6261,870,3,1,8,1.5868342521575007
undo,59,10,0,0,0,11,"[0, 13, 19, 2, 14, 26, 11]",7,1,[20],48.08056395,8211,1950,1,0,8,2.7772471764176028
undo,59,10,0,0,1,20,"[0, 13, 19, 2, 14, 26, 11, 20]",8,0,[],10.00169842,9144,933,1,0,8,2.3959438836221785
undo,59,10,0,1,1,20,"[0, 13, 19, 2, 14, 26, 11, 20]",8,0,[],10.00169842,10657,1513,1,0,8,2.3959438836221785
undo,60,17,0,0,0,0,[0],1,28,"[1, 2, 3, 4, 5, 6, 7, 8, 9, 10, 11, 12, 13, 14, 15, 16, 17, 18, 19, 20, 22, 23, 24, 25, 26, 27, 28, 29]",300,186,-1,2,73,8,0.0
undo,60,17,0,0,0,17,"[0, 17]",2,19,"[1, 2, 3, 5, 7, 8, 9, 10, 11, 12, 14, 16, 18, 19, 23, 25, 26, 27, 29]",194.4253818,2188,2002,3,56,7,1.0
undo,60,17,0,0,0,8,"[0, 17, 8]",3,14,"[2, 3, 7, 9, 10, 11, 12, 14, 16, 23, 25, 26, 27, 29]",156.2154355,4064,1876,11,17,6,1.0742762671080475
undo,60,17,0,0,0,2,"[0, 17, 8, 2]",4,5,"[7, 9, 10, 16, 27]",121.1013358,6032,1968,4,3,6,1.72713973249527
undo,60,17,0,0,0,16,"[0, 17, 8, 2, 16]",5,2,"[7, 9]",104.9768203,6505,473,2,0,6,2.225242522948709
undo,60,17,0,0,1,9,"[0, 17, 8, 2, 16, 9]",6,0,[],91.6351562,7352,847,1,0,6,2.328862118556028
undo,60,17,1,0,0,16,"[0, 17, 8, 2, 16]",5,2,"[7, 9]",104.9768203,9524,2172,2,0,6,2.225242522948709
undo,60,17,1,0,0,2,"[0, 17, 8, 2]",4,5,"[7, 9, 10, 16, 27]",121.1013358,9791,267,4,3,6,1.72713973249527
undo,60,17,1,0,0,8,"[0, 17, 8]",3,14,"[2, 3, 7, 9, 10, 11, 12, 14, 16, 23, 25, 26, 27, 29]",156.2154355,10125,334,11,17,6,1.0742762671080475
undo,60,17,1,0,0,17,"[0, 17]",2,19,"[1, 2, 3, 5, 7, 8, 9, 10, 11, 12, 14, 16, 18, 19, 23, 25, 26, 27, 29]",194.4253818,10459,334,3,56,7,1.0
undo,60,17,1,0,0,0,[0],1,28,"[1, 2, 3, 4, 5, 6, 7, 8, 9, 10, 11, 12, 13, 14, 15, 16, 17, 18, 19, 20, 22, 23, 24, 25, 26, 27, 28, 29]",300,10959,500,2,73,8,0.0
undo,60,17,0,0,0,9,"[0, 9]",2,25,"[1, 2, 3, 5, 6, 7, 8, 10, 11, 12, 14, 15, 16, 17, 18, 19, 20, 22, 23, 24, 25, 26, 27, 28, 29]",210.5293344,11919,960,1,34,8,1.0
undo,60,17,0,0,0,16,"[0, 9, 16]",3,21,"[1, 2, 3, 5, 7, 8, 10, 11, 12, 14, 17, 18, 19, 20, 22, 23, 25, 26, 27, 28, 29]",197.1876704,12336,417,1,26,8,1.173103464220352
undo,60,17,0,0,0,2,"[0, 9, 16, 2]",4,18,"[1, 3, 5, 7, 8, 10, 11, 12, 14, 17, 18, 19, 23, 25, 26, 27, 28, 29]",181.0631549,13320,984,1,23,8,1.14825089247282
undo,60,17,0,0,0,8,"[0, 9, 16, 2, 8]",5,9,"[3, 7, 10, 11, 12, 14, 17, 26, 27]",145.9490551,14495,1175,1,9,8,1.1509808066472915
undo,60,17,0,0,1,26,"[0, 9, 16, 2, 8, 26]",6,0,[],33.90888376,17407,2912,1,0,6,1.0847857674413497
undo,60,17,1,0,0,8,"[0, 9, 16, 2, 8]",5,9,"[3, 7, 10, 11, 12, 14, 17, 26, 27]",145.9490551,18734,1327,1,9,8,1.1509808066472915
undo,60,17,0,0,0,12,"[0, 9, 16, 2, 8, 12]",6,2,"[26, 27]",41.54599003,19175,441,2,0,7,1.0891183780061455
undo,60,17,0,0,1,27,"[0, 9, 16, 2, 8, 12, 27]",7,0,[],18.54599003,20064,889,1,0,7,1.3105067161925397
undo,60,17,0,1,1,27,"[0, 9, 16, 2, 8, 12, 27]",7,0,[],18.54599003,22037,1973,1,0,7,1.3105067161925397
undo,61,12,0,0,0,0,[0],1,29,"[1, 2, 3, 4, 5, 6, 7, 8, 9, 10, 11, 12, 13, 14, 15, 16, 17, 18, 19, 20, 21, 22, 23, 24, 25, 26, 27, 28, 29]",300,184,-1,2,32,9,0.0
undo,61,12,0,0,0,25,"[0, 25]",2,16,"[2, 4, 5, 6, 7, 9, 12, 14, 16, 18, 19, 22, 23, 24, 27, 28]",225.7975742,6568,6384,5,34,8,1.0
undo,61,12,0,0,0,22,"[0, 25, 22]",3,11,"[2, 4, 5, 6, 7, 12, 14, 16, 19, 24, 27]",153.5964661,7831,1263,1,10,8,1.6635691148622656
undo,61,12,0,0,0,16,"[0, 25, 22, 16]",4,7,"[4, 6, 12, 14, 19, 24, 27]",132.5964661,8428,597,1,6,8,1.8455145785330662
undo,61,12,0,0,0,4,"[0, 25, 22, 16, 4]",5,5,"[12, 14, 19, 24, 27]",98.39120339,9383,955,1,4,8,1.6140587576122385
undo,61,12,0,0,0,12,"[0, 25, 22, 16, 4, 12]",6,2,"[14, 27]",56.20115717,10179,796,1,1,8,1.4755917731057815
undo,61,12,0,0,0,27,"[0, 25, 22, 16, 4, 12, 27]",7,1,[14],31.84956584,10864,685,1,0,8,1.5677023473114235
undo,61,12,0,0,1,14,"[0, 25, 22, 16, 4, 12, 27, 14]",8,0,[],3.196468279,11914,1050,1,0,8,1.5941060060123788
undo,61,12,0,1,1,14,"[0, 25, 22, 16, 4, 12, 27, 14]",8,0,[],3.196468279,13544,1630,1,0,8,1.5941060060123788
undo,62,30,0,0,0,0,[0],1,19,"[3, 4, 5, 7, 9, 11, 16, 17, 18, 19, 20, 21, 22, 24, 25, 26, 27, 28, 29]",300,165,-1,5,41,8,0.0
undo,62,30,0,0,0,16,"[0, 16]",2,17,"[3, 5, 7, 9, 11, 17, 18, 19, 20, 21, 22, 24, 25, 26, 27, 28, 29]",219.3774225,3191,3026,5,34,8,1.0
undo,62,30,0,0,0,25,"[0, 16, 25]",3,10,"[3, 5, 7, 9, 11, 18, 19, 20, 27, 29]",115.0845656,4341,1150,5,28,8,1.0336279544884488
undo,62,30,0,0,0,20,"[0, 16, 25, 20]",4,8,"[3, 5, 7, 9, 18, 19, 27, 29]",93.15285342,5069,728,4,14,8,1.0337964627284246
undo,62,30,0,0,0,27,"[0, 16, 25, 20, 27]",5,4,"[3, 5, 18, 29]",59.09408069,6444,1375,4,6,8,1.1504365534848
undo,62,30,0,0,0,3,"[0, 16, 25, 20, 27, 3]",6,3,"[5, 18, 29]",39.98910751,7133,689,4,0,8,1.1403876826835333
undo,62,30,0,0,0,18,"[0, 16, 25, 20, 27, 3, 18]",7,2,"[5, 29]",21.74081992,7836,703,2,0,8,1.1392589158498312
undo,62,30,0,0,1,5,"[0, 16, 25, 20, 27, 3, 18, 5]",8,0,[],8.702415112,8895,1059,1,0,8,1.2046350140224855
undo,62,30,0,1,1,5,"[0, 16, 25, 20, 27, 3, 18, 5]",8,0,[],8.702415112,10442,1547,1,0,8,1.2046350140224855
undo,63,22,0,0,0,0,[0],1,29,"[1, 2, 3, 4, 5, 6, 7, 8, 9, 10, 11, 12, 13, 14, 15, 16, 17, 18, 19, 20, 21, 22, 23, 24, 25, 26, 27, 28, 29]",300,165,-1,31,704,9,0.0
undo,63,22,0,0,0,16,"[0, 16]",2,21,"[1, 3, 6, 7, 8, 9, 11, 13, 14, 15, 17, 18, 19, 20, 21, 22, 24, 25, 27, 28, 29]",218.605897,2890,2725,17,147,9,1.0
