condition,trial_id,map_id,undoIndicator,submit,checkEnd,currentChoice,chosen_all,n_city_all,n_within_reach,cities_reach,currentBudget,time_all,rt_all,n_opt_paths_all,n_subopt_paths_all,mas_all,tortuosity_all
basic,0,45,0,0,0,0,[0],1,24,"[1, 2, 3, 4, 5, 6, 7, 9, 10, 11, 12, 14, 15, 16, 17, 19, 20, 21, 22, 23, 24, 25, 27, 29]",300,326,-1,6,248,10,0.0
basic,0,45,0,0,0,15,"[0, 15]",2,23,"[1, 2, 3, 4, 5, 6, 7, 9, 10, 11, 12, 14, 16, 17, 19, 20, 21, 22, 23, 24, 25, 27, 29]",253.9022777,5531,5205,5,207,10,1.0
basic,0,45,0,0,0,23,"[0, 15, 23]",3,22,"[1, 2, 3, 4, 5, 6, 7, 9, 10, 11, 12, 14, 16, 17, 19, 20, 21, 22, 24, 25, 27, 29]",230.3014303,7387,1856,5,163,10,1.0006068457769497
basic,0,45,0,0,0,20,"[0, 15, 23, 20]",4,19,"[1, 2, 3, 5, 6, 7, 9, 10, 11, 12, 14, 16, 17, 19, 21, 22, 24, 25, 29]",188.8647316,8417,1030,5,137,10,1.2062119754673604
basic,0,45,0,0,0,7,"[0, 15, 23, 20, 7]",5,14,"[2, 3, 5, 6, 9, 10, 12, 14, 17, 19, 21, 22, 24, 29]",137.2410936,12965,4548,3,38,10,1.2267717168083891
basic,0,45,0,0,0,2,"[0, 15, 23, 20, 7, 2]",6,8,"[3, 6, 10, 12, 19, 22, 24, 29]",99.22793795,15807,2842,3,20,10,1.1978549169009853
basic,0,45,0,0,0,3,"[0, 15, 23, 20, 7, 2, 3]",7,5,"[6, 10, 12, 22, 29]",73.90996014,17138,1331,2,7,10,1.2603420042999722
basic,0,45,0,0,0,29,"[0, 15, 23, 20, 7, 2, 3, 29]",8,3,"[6, 10, 12]",53.90996014,18753,1615,2,1,10,1.527949676112761
basic,0,45,0,0,0,10,"[0, 15, 23, 20, 7, 2, 3, 29, 10]",9,1,[6],32.36930092,20823,2070,1,0,10,1.8188082660591487
basic,0,45,0,0,1,6,"[0, 15, 23, 20, 7, 2, 3, 29, 10, 6]",10,0,[],6.120491419,22764,1941,1,0,10,1.7062675391073039
basic,0,45,0,1,1,6,"[0, 15, 23, 20, 7, 2, 3, 29, 10, 6]",10,0,[],6.120491419,25878,3114,1,0,10,1.7062675391073039
basic,1,43,0,0,0,0,[0],1,23,"[1, 2, 3, 4, 5, 6, 7, 9, 10, 11, 12, 14, 15, 16, 17, 19, 20, 21, 22, 23, 25, 27, 29]",300,12,-1,16,556,12,0.0
basic,1,43,0,0,0,29,"[0, 29]",2,22,"[1, 2, 3, 4, 5, 6, 7, 9, 10, 11, 12, 14, 15, 16, 17, 19, 20, 21, 22, 23, 25, 27]",277.909278,3683,3671,16,520,12,1.0
basic,1,43,0,0,0,20,"[0, 29, 20]",3,20,"[1, 2, 3, 4, 6, 7, 9, 10, 11, 12, 14, 15, 16, 17, 19, 21, 22, 23, 25, 27]",254.4785289,5802,2119,15,422,12,1.082311746871282
basic,1,43,0,0,0,16,"[0, 29, 20, 16]",4,19,"[1, 2, 3, 4, 6, 7, 9, 10, 11, 12, 14, 15, 17, 19, 21, 22, 23, 25, 27]",231.8511119,6740,938,15,389,12,1.215201926898219
basic,1,43,0,0,0,25,"[0, 29, 20, 16, 25]",5,14,"[1, 2, 3, 4, 6, 7, 9, 11, 12, 14, 15, 19, 22, 23]",175.7708124,9144,2404,53,282,11,1.566384303308987
basic,1,43,0,0,0,15,"[0, 29, 20, 16, 25, 15]",6,13,"[1, 2, 3, 4, 6, 7, 9, 11, 12, 14, 19, 22, 23]",153.0992443,10765,1621,27,108,11,1.776736412604812
basic,1,43,0,0,0,12,"[0, 29, 20, 16, 25, 15, 12]",7,10,"[1, 3, 6, 7, 9, 11, 14, 19, 22, 23]",133.7860364,11797,1032,21,41,11,1.6813323012225032
basic,1,43,0,0,0,3,"[0, 29, 20, 16, 25, 15, 12, 3]",8,9,"[1, 6, 7, 9, 11, 14, 19, 22, 23]",120.7860364,13460,1663,20,12,11,1.608740348096123
basic,1,43,0,0,0,22,"[0, 29, 20, 16, 25, 15, 12, 3, 22]",9,6,"[1, 6, 7, 11, 14, 19]",86.07292644,16617,3157,9,2,11,1.793657891802588
basic,1,43,0,0,0,19,"[0, 29, 20, 16, 25, 15, 12, 3, 22, 19]",10,3,"[1, 6, 7]",65.45739831,18397,1780,3,0,11,1.6882745891803936
basic,1,43,0,0,1,1,"[0, 29, 20, 16, 25, 15, 12, 3, 22, 19, 1]",11,0,[],37.2793927,20635,2238,1,0,11,1.825064866046553
basic,1,43,0,1,1,1,"[0, 29, 20, 16, 25, 15, 12, 3, 22, 19, 1]",11,0,[],37.2793927,25990,5355,1,0,11,1.825064866046553
basic,2,15,0,0,0,0,[0],1,25,"[1, 2, 3, 4, 7, 8, 9, 10, 11, 12, 13, 14, 15, 16, 18, 20, 21, 22, 23, 24, 25, 26, 27, 28, 29]",300,12,-1,4,65,9,0.0
basic,2,15,0,0,0,7,"[0, 7]",2,23,"[1, 3, 4, 8, 9, 10, 11, 12, 13, 14, 15, 16, 18, 20, 21, 22, 23, 24, 25, 26, 27, 28, 29]",215.1884442,6066,6054,30,107,8,1.0
basic,2,15,0,0,0,11,"[0, 7, 11]",3,18,"[3, 4, 8, 9, 10, 12, 13, 14, 15, 16, 18, 20, 21, 22, 23, 25, 27, 29]",173.7035072,8736,2670,12,34,8,1.0171318876095128
basic,2,15,0,0,0,3,"[0, 7, 11, 3]",4,13,"[4, 10, 12, 13, 14, 15, 16, 18, 20, 21, 22, 25, 27]",162.3017529,9763,1027,7,21,8,1.0401878806820521
basic,2,15,0,0,0,16,"[0, 7, 11, 3, 16]",5,9,"[4, 10, 12, 13, 14, 15, 18, 21, 22]",137.2218805,12613,2850,5,6,8,1.4258499651326737
basic,2,15,0,0,0,22,"[0, 7, 11, 3, 16, 22]",6,4,"[4, 13, 14, 15]",78.36612462,14384,1771,2,2,8,1.284645195326425
basic,2,15,0,0,0,13,"[0, 7, 11, 3, 16, 22, 13]",7,1,[15],50.20586894,18196,3812,1,0,8,1.2468528041787974
basic,2,15,0,0,1,15,"[0, 7, 11, 3, 16, 22, 13, 15]",8,0,[],34.94153142,19824,1628,1,0,8,1.349724143762162
basic,2,15,0,1,1,15,"[0, 7, 11, 3, 16, 22, 13, 15]",8,0,[],34.94153142,21630,1806,1,0,8,1.349724143762162
basic,3,31,0,0,0,0,[0],1,27,"[1, 3, 4, 5, 6, 7, 8, 10, 11, 12, 13, 14, 15, 16, 17, 18, 19, 20, 21, 22, 23, 24, 25, 26, 27, 28, 29]",300,11,-1,2,87,10,0.0
basic,3,31,0,0,0,14,"[0, 14]",2,25,"[1, 3, 5, 6, 7, 8, 10, 11, 12, 13, 15, 16, 17, 18, 19, 20, 21, 22, 23, 24, 25, 26, 27, 28, 29]",263.861378,2416,2405,2,59,10,1.0
basic,3,31,0,0,0,27,"[0, 14, 27]",3,22,"[1, 3, 5, 6, 7, 8, 10, 11, 12, 13, 15, 16, 17, 18, 19, 20, 21, 22, 24, 25, 28, 29]",235.6833724,4205,1789,1,39,10,1.5881859159302467
basic,3,31,0,0,0,8,"[0, 14, 27, 8]",4,20,"[1, 3, 5, 6, 7, 10, 11, 12, 13, 16, 17, 18, 19, 20, 21, 22, 24, 25, 28, 29]",224.6380114,6125,1920,1,36,10,2.1665048452331277
basic,3,31,0,0,0,18,"[0, 14, 27, 8, 18]",5,15,"[1, 5, 6, 7, 11, 12, 13, 16, 17, 19, 20, 22, 25, 28, 29]",188.7911147,8670,2545,1,26,10,1.7273375741920205
basic,3,31,0,0,0,17,"[0, 14, 27, 8, 18, 17]",6,13,"[1, 5, 6, 7, 11, 12, 13, 16, 19, 20, 22, 25, 28]",159.584951,10298,1628,1,13,10,1.551192427769927
basic,3,31,0,0,0,11,"[0, 14, 27, 8, 18, 17, 11]",7,7,"[5, 12, 16, 19, 22, 25, 28]",118.4753414,11327,1029,1,4,10,2.9650760544203494
basic,3,31,0,0,0,5,"[0, 14, 27, 8, 18, 17, 11, 5]",8,2,"[16, 28]",74.79468207,13543,2216,1,1,10,2.56711965625205
basic,3,31,0,0,0,28,"[0, 14, 27, 8, 18, 17, 11, 5, 28]",9,1,[16],54.57093365,15931,2388,1,0,10,2.2865510762058148
basic,3,31,0,0,1,16,"[0, 14, 27, 8, 18, 17, 11, 5, 28, 16]",10,0,[],20.95546102,17985,2054,1,0,10,2.089356850786318
basic,3,31,0,1,1,16,"[0, 14, 27, 8, 18, 17, 11, 5, 28, 16]",10,0,[],20.95546102,21711,3726,1,0,10,2.089356850786318
basic,4,32,0,0,0,0,[0],1,29,"[1, 2, 3, 4, 5, 6, 7, 8, 9, 10, 11, 12, 13, 14, 15, 16, 17, 18, 19, 20, 21, 22, 23, 24, 25, 26, 27, 28, 29]",300,11,-1,17,359,10,0.0
basic,4,32,0,0,0,19,"[0, 19]",2,28,"[1, 2, 3, 4, 5, 6, 7, 8, 9, 10, 11, 12, 13, 14, 15, 16, 17, 18, 20, 21, 22, 23, 24, 25, 26, 27, 28, 29]",283.5075775,2547,2536,16,294,10,1.0
basic,4,32,0,0,0,13,"[0, 19, 13]",3,24,"[2, 3, 4, 5, 6, 8, 9, 10, 11, 12, 14, 15, 16, 17, 18, 20, 21, 22, 23, 24, 25, 26, 27, 28]",260.3127505,4037,1490,14,227,10,1.0172874229878615
basic,4,32,0,0,0,15,"[0, 19, 13, 15]",4,18,"[2, 3, 5, 8, 9, 10, 11, 12, 16, 17, 20, 22, 23, 24, 25, 26, 27, 28]",177.4393531,5236,1199,9,116,10,1.435447391509833
basic,4,32,0,0,0,28,"[0, 19, 13, 15, 28]",5,17,"[2, 3, 5, 8, 9, 10, 11, 12, 16, 17, 20, 22, 23, 24, 25, 26, 27]",166.0375988,7771,2535,9,70,10,1.3843701324937985
basic,4,32,0,0,0,12,"[0, 19, 13, 15, 28, 12]",6,14,"[2, 3, 5, 8, 9, 10, 11, 16, 17, 20, 22, 24, 26, 27]",147.0639329,8726,955,6,35,10,1.358372254952329
basic,4,32,0,0,0,16,"[0, 19, 13, 15, 28, 12, 16]",7,13,"[2, 3, 5, 8, 9, 10, 11, 17, 20, 22, 24, 26, 27]",131.411457,9734,1008,5,15,10,1.4356932930709845
basic,4,32,0,0,0,22,"[0, 19, 13, 15, 28, 12, 16, 22]",8,6,"[2, 8, 9, 17, 20, 27]",97.57360838,11237,1503,3,5,10,1.4335226411545752
basic,4,32,0,0,0,9,"[0, 19, 13, 15, 28, 12, 16, 22, 9]",9,3,"[2, 8, 20]",75.37000507,12422,1185,3,0,10,1.4837166378374758
basic,4,32,0,0,1,8,"[0, 19, 13, 15, 28, 12, 16, 22, 9, 8]",10,0,[],30.24794838,16861,4439,1,0,10,1.3767698817641267
basic,4,32,0,1,1,8,"[0, 19, 13, 15, 28, 12, 16, 22, 9, 8]",10,0,[],30.24794838,19991,3130,1,0,10,1.3767698817641267
basic,5,38,0,0,0,0,[0],1,29,"[1, 2, 3, 4, 5, 6, 7, 8, 9, 10, 11, 12, 13, 14, 15, 16, 17, 18, 19, 20, 21, 22, 23, 24, 25, 26, 27, 28, 29]",300,11,-1,33,506,9,0.0
basic,5,38,0,0,0,19,"[0, 19]",2,23,"[3, 4, 5, 6, 7, 8, 9, 11, 13, 14, 15, 16, 17, 18, 20, 22, 23, 24, 25, 26, 27, 28, 29]",219.5015528,5592,5581,6,61,9,1.0
basic,5,38,0,0,0,17,"[0, 19, 17]",3,21,"[3, 4, 5, 6, 7, 9, 11, 13, 14, 15, 16, 18, 20, 22, 23, 24, 25, 26, 27, 28, 29]",198.1239945,6673,1081,6,53,9,1.571793785769489
basic,5,38,0,0,0,20,"[0, 19, 17, 20]",4,17,"[3, 4, 5, 6, 7, 11, 13, 14, 15, 16, 18, 22, 24, 25, 26, 27, 28]",174.3542658,8115,1442,6,44,9,2.333182710277297
basic,5,38,0,0,0,4,"[0, 19, 17, 20, 4]",5,10,"[5, 11, 13, 14, 15, 16, 24, 26, 27, 28]",140.4131403,9785,1670,5,22,9,2.276099229646013
basic,5,38,0,0,0,15,"[0, 19, 17, 20, 4, 15]",6,8,"[5, 11, 13, 14, 16, 24, 26, 28]",114.4131403,11405,1620,5,6,9,2.5292671156176403
basic,5,38,0,0,0,11,"[0, 19, 17, 20, 4, 15, 11]",7,2,"[16, 28]",78.01259089,12441,1036,2,0,9,2.778100109749787
basic,5,38,0,0,0,28,"[0, 19, 17, 20, 4, 15, 11, 28]",8,1,[16],50.99407872,15560,3119,1,0,9,2.3316428595723258
basic,5,38,0,0,1,16,"[0, 19, 17, 20, 4, 15, 11, 28, 16]",9,0,[],21.99407872,16749,1189,1,0,9,2.5408012360364265
basic,5,38,0,1,1,16,"[0, 19, 17, 20, 4, 15, 11, 28, 16]",9,0,[],21.99407872,19749,3000,1,0,9,2.5408012360364265
basic,6,26,0,0,0,0,[0],1,29,"[1, 2, 3, 4, 5, 6, 7, 8, 9, 10, 11, 12, 13, 14, 15, 16, 17, 18, 19, 20, 21, 22, 23, 24, 25, 26, 27, 28, 29]",300,12,-1,9,226,9,0.0
basic,6,26,0,0,0,21,"[0, 21]",2,25,"[2, 3, 4, 5, 6, 7, 8, 10, 11, 12, 13, 14, 15, 16, 17, 18, 19, 22, 23, 24, 25, 26, 27, 28, 29]",211.1349337,4382,4370,7,90,9,1.0
basic,6,26,0,0,0,13,"[0, 21, 13]",3,21,"[3, 4, 5, 6, 7, 8, 10, 11, 12, 14, 15, 16, 17, 18, 19, 22, 23, 24, 25, 26, 29]",188.9989901,5753,1371,6,45,9,1.0103952279992225
basic,6,26,0,0,0,23,"[0, 21, 13, 23]",4,13,"[3, 4, 5, 6, 10, 11, 14, 16, 17, 18, 22, 26, 29]",150.9858345,9314,3561,3,17,9,1.1069410469330032
basic,6,26,0,0,0,16,"[0, 21, 13, 23, 16]",5,7,"[4, 5, 6, 10, 14, 17, 29]",97.75050789,10789,1475,3,13,9,1.8066634000662438
basic,6,26,0,0,0,29,"[0, 21, 13, 23, 16, 29]",6,5,"[4, 6, 10, 14, 17]",73.54307102,13025,2236,3,9,9,1.853342605492142
basic,6,26,0,0,0,4,"[0, 21, 13, 23, 16, 29, 4]",7,3,"[6, 14, 17]",49.54307102,14219,1194,2,2,9,2.0664369230924997
basic,6,26,0,0,0,17,"[0, 21, 13, 23, 16, 29, 4, 17]",8,2,"[6, 14]",28.44804791,15698,1479,2,0,9,1.911153301956092
basic,6,26,0,0,1,14,"[0, 21, 13, 23, 16, 29, 4, 17, 14]",9,0,[],5.975842855,16868,1170,1,0,9,1.8245133223656398
basic,6,26,0,1,1,14,"[0, 21, 13, 23, 16, 29, 4, 17, 14]",9,0,[],5.975842855,20017,3149,1,0,9,1.8245133223656398
basic,7,5,0,0,0,0,[0],1,29,"[1, 2, 3, 4, 5, 6, 7, 8, 9, 10, 11, 12, 13, 14, 15, 16, 17, 18, 19, 20, 21, 22, 23, 24, 25, 26, 27, 28, 29]",300,10,-1,5,139,9,0.0
basic,7,5,0,0,0,12,"[0, 12]",2,22,"[2, 4, 5, 6, 8, 9, 10, 13, 14, 15, 16, 17, 18, 19, 21, 22, 23, 24, 25, 26, 27, 28]",228.3062067,4925,4915,1,27,9,1.0
basic,7,5,0,0,0,25,"[0, 12, 25]",3,21,"[2, 4, 5, 6, 8, 9, 10, 13, 14, 15, 16, 17, 18, 19, 21, 22, 23, 24, 26, 27, 28]",200.5213187,7281,2356,1,20,9,1.584023303445617
basic,7,5,0,0,0,23,"[0, 12, 25, 23]",4,19,"[2, 4, 5, 6, 8, 9, 10, 13, 14, 15, 16, 17, 18, 19, 21, 22, 24, 26, 27]",182.0822298,8314,1033,1,14,9,2.3508446989254357
basic,7,5,0,0,0,24,"[0, 12, 25, 23, 24]",5,15,"[2, 4, 5, 6, 8, 9, 13, 14, 15, 17, 18, 19, 22, 26, 27]",158.995437,9492,1178,1,12,9,1.9469752046288753
basic,7,5,0,0,0,17,"[0, 12, 25, 23, 24, 17]",6,7,"[4, 5, 6, 8, 15, 18, 19]",124.0097257,10844,1352,1,8,9,1.6482276497563642
basic,7,5,0,0,0,5,"[0, 12, 25, 23, 24, 17, 5]",7,4,"[4, 6, 15, 18]",80.96323916,12173,1329,1,3,9,1.4654649104389412
basic,7,5,0,0,1,15,"[0, 12, 25, 23, 24, 17, 5, 15]",8,0,[],40.93824697,13501,1328,1,0,8,1.4660376450939663
basic,7,5,0,1,1,15,"[0, 12, 25, 23, 24, 17, 5, 15]",8,0,[],40.93824697,15584,2083,1,0,8,1.4660376450939663
basic,8,10,0,0,0,0,[0],1,29,"[1, 2, 3, 4, 5, 6, 7, 8, 9, 10, 11, 12, 13, 14, 15, 16, 17, 18, 19, 20, 21, 22, 23, 24, 25, 26, 27, 28, 29]",300,11,-1,1,100,9,0.0
basic,8,10,0,0,0,13,"[0, 13]",2,25,"[1, 2, 3, 4, 6, 7, 8, 9, 10, 11, 12, 14, 17, 18, 19, 20, 21, 22, 23, 24, 25, 26, 27, 28, 29]",249.4628849,4665,4654,1,79,9,1.0
basic,8,10,0,0,0,19,"[0, 13, 19]",3,12,"[2, 6, 8, 9, 10, 11, 14, 18, 20, 24, 26, 27]",180.5861835,8312,3647,11,79,8,1.0000581961988606
basic,8,10,0,0,0,2,"[0, 13, 19, 2]",4,5,"[11, 14, 20, 26, 27]",136.6771867,9783,1471,3,9,8,1.000456581399483
basic,8,10,0,0,0,14,"[0, 13, 19, 2, 14]",5,4,"[11, 20, 26, 27]",124.5116616,11551,1768,3,6,8,1.0972737011325653
basic,8,10,0,0,0,26,"[0, 13, 19, 2, 14, 26]",6,3,"[11, 20, 27]",89.84178999,12905,1354,3,1,8,1.5868342521575007
basic,8,10,0,0,0,11,"[0, 13, 19, 2, 14, 26, 11]",7,1,[20],48.08056395,13814,909,1,0,8,2.7772471764176028
basic,8,10,0,0,1,20,"[0, 13, 19, 2, 14, 26, 11, 20]",8,0,[],10.00169842,15292,1478,1,0,8,2.3959438836221785
basic,8,10,0,1,1,20,"[0, 13, 19, 2, 14, 26, 11, 20]",8,0,[],10.00169842,16624,1332,1,0,8,2.3959438836221785
basic,9,29,0,0,0,0,[0],1,29,"[1, 2, 3, 4, 5, 6, 7, 8, 9, 10, 11, 12, 13, 14, 15, 16, 17, 18, 19, 20, 21, 22, 23, 24, 25, 26, 27, 28, 29]",300,11,-1,1,78,9,0.0
basic,9,29,0,0,0,14,"[0, 14]",2,22,"[1, 3, 4, 5, 6, 7, 9, 10, 11, 12, 13, 15, 16, 17, 21, 22, 23, 25, 26, 27, 28, 29]",209.490332,3845,3834,21,110,8,1.0
basic,9,29,0,0,0,13,"[0, 14, 13]",3,18,"[1, 4, 5, 6, 7, 9, 10, 12, 15, 16, 17, 21, 22, 25, 26, 27, 28, 29]",191.4625756,4435,590,20,75,8,1.0027006502223275
basic,9,29,0,0,0,5,"[0, 14, 13, 5]",4,15,"[1, 4, 6, 7, 9, 12, 15, 17, 21, 22, 25, 26, 27, 28, 29]",165.7526554,7104,2669,19,49,8,1.0803937325657265
basic,9,29,0,0,0,4,"[0, 14, 13, 5, 4]",5,5,"[7, 9, 12, 21, 22]",113.8585324,9953,2849,5,5,8,1.0589046774357636
basic,9,29,0,0,0,9,"[0, 14, 13, 5, 4, 9]",6,3,"[7, 12, 21]",72.82196333,11276,1323,2,1,8,1.2033484462540056
basic,9,29,0,0,0,7,"[0, 14, 13, 5, 4, 9, 7]",7,1,[12],43.75307962,13795,2519,1,0,8,1.5581999677939193
basic,9,29,0,0,1,12,"[0, 14, 13, 5, 4, 9, 7, 12]",8,0,[],30.15160911,14403,608,1,0,8,1.747955919287298
basic,9,29,0,1,1,12,"[0, 14, 13, 5, 4, 9, 7, 12]",8,0,[],30.15160911,15737,1334,1,0,8,1.747955919287298
basic,10,12,0,0,0,0,[0],1,29,"[1, 2, 3, 4, 5, 6, 7, 8, 9, 10, 11, 12, 13, 14, 15, 16, 17, 18, 19, 20, 21, 22, 23, 24, 25, 26, 27, 28, 29]",300,12,-1,2,32,9,0.0
basic,10,12,0,0,0,22,"[0, 22]",2,22,"[2, 4, 5, 6, 7, 9, 10, 12, 13, 14, 15, 16, 17, 18, 19, 21, 23, 24, 25, 27, 28, 29]",211.9943184,5095,5083,6,42,8,1.0
basic,10,12,0,0,0,16,"[0, 22, 16]",3,12,"[2, 4, 5, 6, 7, 12, 14, 19, 23, 24, 25, 27]",190.9943184,6422,1327,6,24,8,1.2017164145167045
basic,10,12,0,0,0,4,"[0, 22, 16, 4]",4,9,"[2, 6, 7, 12, 14, 19, 24, 25, 27]",156.7890556,8732,2310,6,14,8,1.146531713305579
basic,10,12,0,0,0,12,"[0, 22, 16, 4, 12]",5,4,"[14, 19, 24, 27]",114.5990094,9625,893,4,3,8,1.1221389456954312
basic,10,12,0,0,0,27,"[0, 22, 16, 4, 12, 27]",6,3,"[14, 19, 24]",90.24741807,10837,1212,2,1,8,1.2262878338287035
basic,10,12,0,0,0,14,"[0, 22, 16, 4, 12, 27, 14]",7,1,[24],61.59432051,13052,2215,1,0,8,1.2804562106751427
basic,10,12,0,0,1,24,"[0, 22, 16, 4, 12, 27, 14, 24]",8,0,[],44.38966997,14080,1028,1,0,8,1.4322660007679802
basic,10,12,0,1,1,24,"[0, 22, 16, 4, 12, 27, 14, 24]",8,0,[],44.38966997,15714,1634,1,0,8,1.4322660007679802
basic,11,27,0,0,0,0,[0],1,26,"[1, 3, 5, 6, 7, 8, 9, 10, 11, 12, 13, 14, 15, 16, 17, 18, 19, 21, 22, 23, 24, 25, 26, 27, 28, 29]",300,11,-1,13,578,11,0.0
basic,11,27,0,0,0,26,"[0, 26]",2,23,"[1, 5, 6, 7, 8, 9, 10, 11, 12, 13, 14, 15, 16, 17, 18, 19, 21, 22, 23, 24, 25, 27, 29]",275.8132268,2585,2574,7,249,11,1.0
basic,11,27,0,0,0,15,"[0, 26, 15]",3,18,"[1, 6, 7, 8, 10, 12, 13, 14, 16, 17, 18, 19, 21, 23, 24, 25, 27, 29]",216.0386502,4790,2205,6,105,11,2.316230250316108
basic,11,27,0,0,0,24,"[0, 26, 15, 24]",4,14,"[1, 8, 10, 12, 13, 14, 16, 17, 18, 19, 23, 25, 27, 29]",198.8339997,5980,1190,6,63,11,2.140390406148825
basic,11,27,0,0,0,17,"[0, 26, 15, 24, 17]",5,11,"[1, 8, 10, 12, 13, 14, 18, 19, 23, 27, 29]",182.2810543,6885,905,4,33,11,1.897705569486853
basic,11,27,0,0,0,12,"[0, 26, 15, 24, 17, 12]",6,10,"[1, 8, 10, 13, 14, 18, 19, 23, 27, 29]",171.1007144,8664,1779,2,17,11,1.994427587076918
basic,11,27,0,0,0,10,"[0, 26, 15, 24, 17, 12, 10]",7,9,"[1, 8, 13, 14, 18, 19, 23, 27, 29]",160.0553534,10147,1483,2,14,11,1.8554032921959762
basic,11,27,0,0,0,13,"[0, 26, 15, 24, 17, 12, 10, 13]",8,7,"[1, 8, 14, 19, 23, 27, 29]",120.2056357,12240,2093,2,8,11,1.8269483184790714
basic,11,27,0,0,0,19,"[0, 26, 15, 24, 17, 12, 10, 13, 19]",9,4,"[8, 14, 23, 29]",83.97029387,15494,3254,2,3,11,1.6617669702307691
basic,11,27,0,0,0,8,"[0, 26, 15, 24, 17, 12, 10, 13, 19, 8]",10,2,"[14, 29]",69.10422512,16674,1180,2,0,11,1.708465241811091
basic,11,27,0,0,1,29,"[0, 26, 15, 24, 17, 12, 10, 13, 19, 8, 29]",11,0,[],9.901184659,18480,1806,1,0,11,1.4940849125097164
basic,11,27,0,1,1,29,"[0, 26, 15, 24, 17, 12, 10, 13, 19, 8, 29]",11,0,[],9.901184659,20453,1973,1,0,11,1.4940849125097164
basic,12,19,0,0,0,0,[0],1,29,"[1, 2, 3, 4, 5, 6, 7, 8, 9, 10, 11, 12, 13, 14, 15, 16, 17, 18, 19, 20, 21, 22, 23, 24, 25, 26, 27, 28, 29]",300,11,-1,12,149,8,0.0
basic,12,19,0,0,0,29,"[0, 29]",2,28,"[1, 2, 3, 4, 5, 6, 7, 8, 9, 10, 11, 12, 13, 14, 15, 16, 17, 18, 19, 20, 21, 22, 23, 24, 25, 26, 27, 28]",265.0715016,2632,2621,12,120,8,1.0
basic,12,19,0,0,0,12,"[0, 29, 12]",3,10,"[1, 2, 3, 8, 13, 16, 17, 19, 23, 25]",151.2251139,6672,4040,1,15,8,1.2439006517653588
basic,12,19,0,0,0,25,"[0, 29, 12, 25]",4,9,"[1, 2, 3, 8, 13, 16, 17, 19, 23]",134.1078711,7613,941,8,14,7,1.21651092005601
basic,12,19,0,0,0,17,"[0, 29, 12, 25, 17]",5,8,"[1, 2, 3, 8, 13, 16, 19, 23]",123.0625101,13270,5657,6,5,7,1.2766039371281641
basic,12,19,0,0,1,2,"[0, 29, 12, 25, 17, 2]",6,0,[],55.03310468,14590,1320,1,0,6,1.1898608663614996
basic,12,19,0,1,1,2,"[0, 29, 12, 25, 17, 2]",6,0,[],55.03310468,16271,1681,1,0,6,1.1898608663614996
basic,13,2,0,0,0,0,[0],1,23,"[1, 2, 4, 5, 6, 7, 8, 9, 12, 13, 15, 16, 17, 18, 19, 20, 22, 23, 25, 26, 27, 28, 29]",300,332,-1,70,620,10,0.0
basic,13,2,0,0,0,19,"[0, 19]",2,22,"[1, 2, 4, 5, 6, 7, 8, 9, 12, 13, 15, 16, 17, 18, 20, 22, 23, 25, 26, 27, 28, 29]",210.306076,7973,7641,67,431,10,1.0
basic,13,2,0,0,0,12,"[0, 19, 12]",3,17,"[1, 4, 5, 6, 7, 13, 15, 16, 17, 18, 20, 22, 25, 26, 27, 28, 29]",174.2921898,9293,1320,66,298,10,1.1107635036313153
basic,13,2,0,0,0,5,"[0, 19, 12, 5]",4,11,"[1, 6, 7, 13, 15, 16, 18, 22, 25, 26, 29]",144.7625437,10181,888,38,136,10,1.0968174771581647
basic,13,2,0,0,0,22,"[0, 19, 12, 5, 22]",5,8,"[1, 6, 7, 13, 15, 18, 26, 29]",131.9562952,10916,735,20,63,10,1.0889910507461968
basic,13,2,0,0,0,13,"[0, 19, 12, 5, 22, 13]",6,7,"[1, 6, 7, 15, 18, 26, 29]",117.0902265,11792,876,19,20,10,1.236526217328057
basic,13,2,0,0,0,18,"[0, 19, 12, 5, 22, 13, 18]",7,4,"[7, 15, 26, 29]",81.91921567,13295,1503,10,3,10,1.2128708213409936
basic,13,2,0,0,0,7,"[0, 19, 12, 5, 22, 13, 18, 7]",8,3,"[15, 26, 29]",71.62358553,14036,741,5,0,10,1.2019811287894737
basic,13,2,0,0,0,26,"[0, 19, 12, 5, 22, 13, 18, 7, 26]",9,2,"[15, 29]",48.82007703,15081,1045,2,0,10,1.1883593342191134
basic,13,2,0,0,1,15,"[0, 19, 12, 5, 22, 13, 18, 7, 26, 15]",10,0,[],24.61264015,16263,1182,1,0,10,1.4619750353663825
basic,13,2,0,1,1,15,"[0, 19, 12, 5, 22, 13, 18, 7, 26, 15]",10,0,[],24.61264015,18336,2073,1,0,10,1.4619750353663825
basic,14,21,0,0,0,0,[0],1,29,"[1, 2, 3, 4, 5, 6, 7, 8, 9, 10, 11, 12, 13, 14, 15, 16, 17, 18, 19, 20, 21, 22, 23, 24, 25, 26, 27, 28, 29]",300,11,-1,84,830,9,0.0
basic,14,21,0,0,0,25,"[0, 25]",2,26,"[1, 2, 3, 4, 5, 6, 7, 8, 9, 10, 11, 12, 13, 14, 15, 16, 17, 18, 20, 21, 22, 23, 24, 26, 27, 29]",240.1836143,7090,7079,30,238,9,1.0
basic,14,21,0,0,0,21,"[0, 25, 21]",3,18,"[1, 3, 4, 6, 8, 9, 11, 12, 14, 15, 16, 17, 18, 20, 22, 23, 24, 29]",190.8480288,8285,1195,15,84,9,1.2142997420204755
basic,14,21,0,0,0,23,"[0, 25, 21, 23]",4,14,"[1, 4, 6, 8, 9, 14, 15, 16, 17, 18, 20, 22, 24, 29]",161.233843,9040,755,9,27,9,1.4013924134357778
basic,14,21,0,0,0,14,"[0, 25, 21, 23, 14]",5,9,"[4, 8, 15, 16, 17, 18, 22, 24, 29]",132.1649593,10263,1223,7,9,9,1.4652634639575024
basic,14,21,0,0,0,4,"[0, 25, 21, 23, 14, 4]",6,7,"[8, 15, 16, 17, 18, 24, 29]",118.0228236,12883,2620,7,2,9,1.422739117765393
basic,14,21,0,0,0,16,"[0, 25, 21, 23, 14, 4, 16]",7,3,"[8, 15, 24]",73.42461739,14793,1910,3,1,9,1.3881533988257628
basic,14,21,0,0,0,8,"[0, 25, 21, 23, 14, 4, 16, 8]",8,1,[15],54.82354215,17156,2363,1,0,9,1.353244899801389
basic,14,21,0,0,1,15,"[0, 25, 21, 23, 14, 4, 16, 8, 15]",9,0,[],29.82354215,18958,1802,1,0,9,1.604898534974819
basic,14,21,0,1,1,15,"[0, 25, 21, 23, 14, 4, 16, 8, 15]",9,0,[],29.82354215,20460,1502,1,0,9,1.604898534974819
basic,15,1,0,0,0,0,[0],1,26,"[1, 2, 4, 5, 7, 8, 9, 10, 11, 12, 13, 14, 15, 16, 17, 18, 19, 20, 21, 22, 23, 24, 25, 26, 28, 29]",300,10,-1,6,74,7,0.0
basic,15,1,0,0,0,14,"[0, 14]",2,19,"[1, 4, 5, 8, 9, 13, 15, 17, 18, 19, 20, 21, 22, 23, 24, 25, 26, 28, 29]",200.1901808,3675,3665,5,42,7,1.0
basic,15,1,0,0,0,17,"[0, 14, 17]",3,15,"[1, 4, 5, 8, 9, 13, 15, 18, 19, 20, 22, 23, 25, 28, 29]",147.8356204,5004,1329,5,27,7,1.0028844724416826
basic,15,1,0,0,0,1,"[0, 14, 17, 1]",4,12,"[4, 5, 8, 9, 15, 18, 20, 22, 23, 25, 28, 29]",123.4840291,5598,594,5,15,7,1.0264985578353567
basic,15,1,0,0,0,28,"[0, 14, 17, 1, 28]",5,5,"[9, 15, 22, 23, 29]",88.59850198,7954,2356,5,3,7,1.0339861575999345
basic,15,1,0,0,0,23,"[0, 14, 17, 1, 28, 23]",6,2,"[15, 22]",51.70676849,8696,742,2,0,7,1.0327458250705703
basic,15,1,0,0,1,15,"[0, 14, 17, 1, 28, 23, 15]",7,0,[],20.81987807,9906,1210,1,0,7,1.1948681641401226
basic,15,1,0,1,1,15,"[0, 14, 17, 1, 28, 23, 15]",7,0,[],20.81987807,11102,1196,1,0,7,1.1948681641401226
basic,16,41,0,0,0,0,[0],1,29,"[1, 2, 3, 4, 5, 6, 7, 8, 9, 10, 11, 12, 13, 14, 15, 16, 17, 18, 19, 20, 21, 22, 23, 24, 25, 26, 27, 28, 29]",300,13,-1,1,143,10,0.0
basic,16,41,0,0,0,13,"[0, 13]",2,23,"[1, 2, 3, 5, 6, 7, 9, 10, 11, 12, 14, 15, 17, 18, 19, 20, 21, 22, 24, 25, 26, 27, 28]",258.2747079,2707,2694,1,55,10,1.0
basic,16,41,0,0,0,28,"[0, 13, 28]",3,22,"[1, 2, 3, 5, 6, 7, 9, 10, 11, 12, 14, 15, 17, 18, 19, 20, 21, 22, 24, 25, 26, 27]",223.7928286,4041,1334,1,39,10,1.895724242592676
basic,16,41,0,0,0,5,"[0, 13, 28, 5]",4,19,"[1, 2, 3, 6, 9, 10, 11, 12, 14, 15, 17, 18, 19, 20, 21, 22, 24, 25, 27]",210.1913581,5834,1793,1,34,10,2.861541269398273
basic,16,41,0,0,0,3,"[0, 13, 28, 5, 3]",5,16,"[1, 2, 6, 9, 10, 12, 14, 17, 18, 19, 20, 21, 22, 24, 25, 27]",175.3632086,7315,1481,1,22,10,3.1455488489005883
basic,16,41,0,0,0,21,"[0, 13, 28, 5, 3, 21]",6,14,"[1, 2, 6, 9, 10, 12, 14, 17, 18, 19, 20, 22, 25, 27]",143.2228912,9084,1769,13,11,9,3.207558429289677
basic,16,41,0,0,0,17,"[0, 13, 28, 5, 3, 21, 17]",7,3,"[2, 9, 10]",91.5605258,11776,2692,2,1,9,3.2883270328778007
basic,16,41,0,0,0,9,"[0, 13, 28, 5, 3, 21, 17, 9]",8,1,[2],60.54440096,14805,3029,1,0,9,2.9098226601812454
basic,16,41,0,0,1,2,"[0, 13, 28, 5, 3, 21, 17, 9, 2]",9,0,[],48.46135498,16165,1360,1,0,9,2.780153959656953
basic,16,41,0,1,1,2,"[0, 13, 28, 5, 3, 21, 17, 9, 2]",9,0,[],48.46135498,17433,1268,1,0,9,2.780153959656953
basic,17,44,0,0,0,0,[0],1,29,"[1, 2, 3, 4, 5, 6, 7, 8, 9, 10, 11, 12, 13, 14, 15, 16, 17, 18, 19, 20, 21, 22, 23, 24, 25, 26, 27, 28, 29]",300,11,-1,13,126,7,0.0
basic,17,44,0,0,0,8,"[0, 8]",2,17,"[1, 4, 5, 7, 9, 10, 11, 12, 13, 14, 15, 20, 21, 23, 24, 25, 27]",145.7923478,1967,1956,1,10,7,1.0
basic,17,44,0,0,0,20,"[0, 8, 20]",3,16,"[1, 4, 5, 7, 9, 10, 11, 12, 13, 14, 15, 21, 23, 24, 25, 27]",133.7093018,2846,879,1,9,7,1.0890794433668698
basic,17,44,0,0,0,9,"[0, 8, 20, 9]",4,7,"[4, 7, 11, 12, 14, 23, 24]",76.43801756,5383,2537,1,6,7,1.40892325509949
basic,17,44,0,0,0,4,"[0, 8, 20, 9, 4]",5,4,"[7, 12, 23, 24]",56.74030196,8358,2975,1,3,7,1.3849770570803555
basic,17,44,0,0,1,24,"[0, 8, 20, 9, 4, 24]",6,0,[],22.08485506,9545,1187,1,0,6,1.8494416287162145
basic,17,44,0,1,1,24,"[0, 8, 20, 9, 4, 24]",6,0,[],22.08485506,11210,1665,1,0,6,1.8494416287162145
basic,18,4,0,0,0,0,[0],1,26,"[3, 4, 5, 6, 7, 8, 10, 11, 12, 13, 14, 15, 16, 17, 18, 19, 20, 21, 22, 23, 24, 25, 26, 27, 28, 29]",300,11,-1,4,489,10,0.0
basic,18,4,0,0,0,28,"[0, 28]",2,21,"[3, 4, 5, 6, 10, 11, 12, 13, 14, 15, 16, 17, 19, 20, 21, 22, 23, 24, 25, 26, 27]",225.9392142,4027,4016,2,216,10,1.0
basic,18,4,0,0,0,14,"[0, 28, 14]",3,13,"[3, 4, 5, 6, 11, 13, 16, 17, 20, 21, 22, 24, 25]",159.6972335,5695,1668,1,26,10,1.0273973946789214
basic,18,4,0,0,0,25,"[0, 28, 14, 25]",4,12,"[3, 4, 5, 6, 11, 13, 16, 17, 20, 21, 22, 24]",143.572718,6586,891,1,25,10,1.233547772313525
basic,18,4,0,0,0,11,"[0, 28, 14, 25, 11]",5,10,"[3, 4, 5, 6, 13, 16, 17, 20, 21, 22]",124.7844238,7610,1024,1,15,10,1.425978575879479
basic,18,4,0,0,0,16,"[0, 28, 14, 25, 11, 16]",6,9,"[3, 4, 5, 6, 13, 17, 20, 21, 22]",109.7844238,8497,887,1,12,10,1.3799325158051412
basic,18,4,0,0,0,17,"[0, 28, 14, 25, 11, 16, 17]",7,5,"[3, 5, 20, 21, 22]",83.70761416,11478,2981,1,5,10,1.3195184878861832
basic,18,4,0,0,0,21,"[0, 28, 14, 25, 11, 16, 17, 21]",8,1,[22],34.45317274,15909,4431,1,0,9,1.7966566629354186
basic,18,4,0,0,1,22,"[0, 28, 14, 25, 11, 16, 17, 21, 22]",9,0,[],23.40781172,17254,1345,1,0,9,1.7433011729935863
basic,18,4,0,1,1,22,"[0, 28, 14, 25, 11, 16, 17, 21, 22]",9,0,[],23.40781172,18756,1502,1,0,9,1.7433011729935863
basic,19,7,0,0,0,0,[0],1,29,"[1, 2, 3, 4, 5, 6, 7, 8, 9, 10, 11, 12, 13, 14, 15, 16, 17, 18, 19, 20, 21, 22, 23, 24, 25, 26, 27, 28, 29]",300,10,-1,3,79,9,0.0
basic,19,7,0,0,0,15,"[0, 15]",2,19,"[2, 4, 5, 6, 7, 8, 9, 10, 13, 14, 16, 18, 19, 20, 21, 23, 25, 27, 28]",230.9348134,3761,3751,2,38,9,1.0
basic,19,7,0,0,0,6,"[0, 15, 6]",3,18,"[2, 4, 5, 7, 8, 9, 10, 13, 14, 16, 18, 19, 20, 21, 23, 25, 27, 28]",205.854941,5709,1948,2,36,9,1.366719602896943
basic,19,7,0,0,0,25,"[0, 15, 6, 25]",4,11,"[2, 4, 7, 13, 14, 16, 18, 19, 20, 21, 23]",138.6760753,10130,4421,2,28,9,1.3624631728355765
basic,19,7,0,0,0,4,"[0, 15, 6, 25, 4]",5,7,"[2, 7, 13, 16, 18, 19, 20]",113.9374415,11039,909,2,12,9,1.3249684384385587
basic,19,7,0,0,0,20,"[0, 15, 6, 25, 4, 20]",6,5,"[2, 7, 13, 18, 19]",94.29055881,12528,1489,1,6,9,1.3721893242679268
basic,19,7,0,0,0,18,"[0, 15, 6, 25, 4, 20, 18]",7,3,"[7, 13, 19]",81.48431034,13271,743,1,2,9,1.5262542308371432
basic,19,7,0,0,0,7,"[0, 15, 6, 25, 4, 20, 18, 7]",8,1,[19],40.25325408,16116,2845,1,0,9,1.41986878673423
basic,19,7,0,0,1,19,"[0, 15, 6, 25, 4, 20, 18, 7, 19]",9,0,[],10.84237174,18399,2283,1,0,9,1.5285658163212987
basic,19,7,0,1,1,19,"[0, 15, 6, 25, 4, 20, 18, 7, 19]",9,0,[],10.84237174,19882,1483,1,0,9,1.5285658163212987
basic,20,6,0,0,0,0,[0],1,29,"[1, 2, 3, 4, 5, 6, 7, 8, 9, 10, 11, 12, 13, 14, 15, 16, 17, 18, 19, 20, 21, 22, 23, 24, 25, 26, 27, 28, 29]",300,11,-1,180,4304,10,0.0
basic,20,6,0,0,0,7,"[0, 7]",2,26,"[1, 2, 3, 4, 5, 6, 8, 9, 10, 11, 12, 13, 14, 15, 16, 17, 18, 19, 20, 21, 22, 23, 24, 26, 27, 29]",251.9791712,7341,7330,16,572,10,1.0
basic,20,6,0,0,0,3,"[0, 7, 3]",3,25,"[1, 2, 4, 5, 6, 8, 9, 10, 11, 12, 13, 14, 15, 16, 17, 18, 19, 20, 21, 22, 23, 24, 26, 27, 29]",215.8405492,8537,1196,4,222,10,2.5102659609695053
basic,20,6,0,0,0,24,"[0, 7, 3, 24]",4,18,"[1, 2, 4, 5, 6, 8, 10, 11, 13, 14, 16, 17, 18, 22, 23, 26, 27, 29]",151.8874414,13559,5022,9,61,9,1.5223293981374024
basic,20,6,0,0,0,10,"[0, 7, 3, 24, 10]",5,15,"[1, 2, 4, 6, 8, 13, 14, 16, 17, 18, 22, 23, 26, 27, 29]",138.4710335,14764,1205,7,30,9,1.915108941370621
basic,20,6,0,0,0,17,"[0, 7, 3, 24, 10, 17]",6,10,"[1, 2, 6, 13, 16, 18, 22, 23, 26, 29]",118.7479506,15935,1171,6,16,9,2.568175242038698
basic,20,6,0,0,0,18,"[0, 7, 3, 24, 10, 17, 18]",7,9,"[1, 2, 6, 13, 16, 22, 23, 26, 29]",104.8195623,17271,1336,4,6,9,3.204851205363641
basic,20,6,0,0,0,16,"[0, 7, 3, 24, 10, 17, 18, 16]",8,2,"[23, 29]",81.47432724,19447,2176,2,0,9,3.0274961831843643
basic,20,6,0,0,1,29,"[0, 7, 3, 24, 10, 17, 18, 16, 29]",9,0,[],44.78645458,20957,1510,1,0,9,2.396186471373409
basic,20,6,0,1,1,29,"[0, 7, 3, 24, 10, 17, 18, 16, 29]",9,0,[],44.78645458,22738,1781,1,0,9,2.396186471373409
basic,21,34,0,0,0,0,[0],1,25,"[1, 3, 4, 5, 6, 7, 8, 9, 10, 11, 12, 13, 15, 18, 19, 20, 21, 22, 23, 24, 25, 26, 27, 28, 29]",300,10,-1,12,367,10,0.0
basic,21,34,0,0,0,13,"[0, 13]",2,24,"[1, 3, 4, 5, 6, 7, 8, 9, 10, 11, 12, 15, 18, 19, 20, 21, 22, 23, 24, 25, 26, 27, 28, 29]",279.9750156,2400,2390,12,331,10,1.0
basic,21,34,0,0,0,1,"[0, 13, 1]",3,16,"[3, 5, 7, 8, 9, 10, 11, 12, 19, 21, 22, 23, 24, 25, 27, 29]",211.8574701,4223,1823,3,92,10,1.0010381285747127
basic,21,34,0,0,0,8,"[0, 13, 1, 8]",4,14,"[3, 5, 7, 9, 10, 11, 12, 19, 22, 23, 24, 25, 27, 29]",201.0871405,5161,938,2,54,10,1.1636807
basic,21,34,0,0,0,25,"[0, 13, 1, 8, 25]",5,12,"[3, 5, 7, 9, 10, 11, 12, 22, 23, 24, 27, 29]",183.999133,6077,916,2,28,10,1.1396208815936457
basic,21,34,0,0,0,24,"[0, 13, 1, 8, 25, 24]",6,11,"[3, 5, 7, 9, 10, 11, 12, 22, 23, 27, 29]",166.5062774,6814,737,2,23,10,1.374180768736554
basic,21,34,0,0,0,23,"[0, 13, 1, 8, 25, 24, 23]",7,6,"[5, 7, 11, 12, 27, 29]",99.97808784,8154,1340,4,3,9,2.1078306540088096
basic,21,34,0,0,0,7,"[0, 13, 1, 8, 25, 24, 23, 7]",8,2,"[11, 12]",71.81783216,9209,1055,2,0,9,2.011215865419536
basic,21,34,0,0,1,12,"[0, 13, 1, 8, 25, 24, 23, 7, 12]",9,0,[],56.78453578,10274,1065,1,0,9,1.9762514824310813
basic,21,34,0,1,1,12,"[0, 13, 1, 8, 25, 24, 23, 7, 12]",9,0,[],56.78453578,11757,1483,1,0,9,1.9762514824310813
basic,22,25,0,0,0,0,[0],1,28,"[1, 2, 3, 4, 5, 7, 8, 9, 10, 11, 12, 13, 14, 15, 16, 17, 18, 19, 20, 21, 22, 23, 24, 25, 26, 27, 28, 29]",300,10,-1,5,94,10,0.0
basic,22,25,0,0,0,1,"[0, 1]",2,22,"[2, 3, 5, 7, 8, 9, 11, 12, 13, 14, 16, 17, 18, 19, 20, 21, 22, 23, 24, 25, 28, 29]",268.9516506,2543,2533,16,145,9,1.0
basic,22,25,0,0,0,23,"[0, 1, 23]",3,16,"[3, 5, 7, 8, 9, 11, 12, 13, 17, 19, 20, 21, 22, 24, 28, 29]",201.9441883,3890,1347,2,17,9,2.4377214593885763
basic,22,25,0,0,0,19,"[0, 1, 23, 19]",4,13,"[3, 5, 7, 9, 11, 12, 13, 17, 20, 21, 22, 24, 29]",166.0972917,4779,889,2,9,9,2.7866177211778074
basic,22,25,0,0,0,29,"[0, 1, 23, 19, 29]",5,11,"[3, 5, 7, 9, 11, 12, 17, 20, 21, 22, 24]",149.8184711,6395,1616,2,5,9,2.398074806984407
basic,22,25,0,0,0,22,"[0, 1, 23, 19, 29, 22]",6,10,"[3, 5, 7, 9, 11, 12, 17, 20, 21, 24]",133.6939556,8456,2061,2,3,9,2.149511028553587
basic,22,25,0,0,0,7,"[0, 1, 23, 19, 29, 22, 7]",7,2,"[9, 24]",58.05005299,10396,1940,2,0,9,2.0644073196446207
basic,22,25,0,0,0,24,"[0, 1, 23, 19, 29, 22, 7, 24]",8,1,[9],33.29121618,11271,875,1,0,9,1.8976704160590687
basic,22,25,0,0,1,9,"[0, 1, 23, 19, 29, 22, 7, 24, 9]",9,0,[],15.26345981,12447,1176,1,0,9,1.8239605425295298
basic,22,25,0,1,1,9,"[0, 1, 23, 19, 29, 22, 7, 24, 9]",9,0,[],15.26345981,13790,1343,1,0,9,1.8239605425295298
undo,23,16,0,0,0,0,[0],1,29,"[1, 2, 3, 4, 5, 6, 7, 8, 9, 10, 11, 12, 13, 14, 15, 16, 17, 18, 19, 20, 21, 22, 23, 24, 25, 26, 27, 28, 29]",300,333,-1,13,161,9,0.0
undo,23,16,0,0,0,28,"[0, 28]",2,27,"[1, 2, 3, 4, 5, 7, 8, 9, 10, 11, 12, 13, 14, 15, 16, 17, 18, 19, 20, 21, 22, 23, 24, 25, 26, 27, 29]",284.3475242,9063,8730,11,92,9,1.0
undo,23,16,0,0,0,17,"[0, 28, 17]",3,26,"[1, 2, 3, 4, 5, 7, 8, 9, 10, 11, 12, 13, 14, 15, 16, 18, 19, 20, 21, 22, 23, 24, 25, 26, 27, 29]",219.1555001,10112,1049,10,46,9,1.3773866384707543
undo,23,16,0,0,0,16,"[0, 28, 17, 16]",4,25,"[1, 2, 3, 4, 5, 7, 8, 9, 10, 11, 12, 13, 14, 15, 18, 19, 20, 21, 22, 23, 24, 25, 26, 27, 29]",190.8358956,10848,736,10,34,9,1.3209953830681203
undo,23,16,0,0,0,21,"[0, 28, 17, 16, 21]",5,13,"[3, 5, 7, 8, 9, 10, 12, 15, 20, 22, 25, 26, 29]",146.1816685,13216,2368,4,7,9,1.8136482702070456
undo,23,16,0,0,0,8,"[0, 28, 17, 16, 21, 8]",6,6,"[5, 9, 12, 15, 20, 25]",96.92722704,14837,1621,4,2,9,1.637204572335983
undo,23,16,0,0,0,20,"[0, 28, 17, 16, 21, 8, 20]",7,2,"[9, 25]",39.15179974,15889,1052,2,0,9,1.441590377328759
undo,23,16,0,0,0,25,"[0, 28, 17, 16, 21, 8, 20, 25]",8,1,[9],26.5026891,16774,885,1,0,9,1.484361110265371
undo,23,16,0,0,1,9,"[0, 28, 17, 16, 21, 8, 20, 25, 9]",9,0,[],13.69644062,17800,1026,1,0,9,1.4530180692918209
undo,23,16,0,1,1,9,"[0, 28, 17, 16, 21, 8, 20, 25, 9]",9,0,[],13.69644062,19854,2054,1,0,9,1.4530180692918209
undo,24,26,0,0,0,0,[0],1,29,"[1, 2, 3, 4, 5, 6, 7, 8, 9, 10, 11, 12, 13, 14, 15, 16, 17, 18, 19, 20, 21, 22, 23, 24, 25, 26, 27, 28, 29]",300,11,-1,9,226,9,0.0
undo,24,26,0,0,0,12,"[0, 12]",2,26,"[1, 2, 3, 4, 5, 6, 8, 10, 11, 13, 14, 15, 16, 17, 18, 19, 20, 21, 22, 23, 24, 25, 26, 27, 28, 29]",279.8753882,2249,2238,2,80,9,1.0
undo,24,26,0,0,0,16,"[0, 12, 16]",3,12,"[4, 5, 6, 10, 11, 13, 14, 17, 21, 23, 26, 29]",152.8281529,13482,11233,1,35,9,1.3146633244997343
undo,24,26,0,0,0,29,"[0, 12, 16, 29]",4,9,"[4, 5, 6, 10, 13, 14, 17, 21, 23]",128.620716,14825,1343,1,28,9,1.4025825138871748
undo,24,26,0,0,0,4,"[0, 12, 16, 29, 4]",5,6,"[6, 10, 14, 17, 21, 23]",104.620716,17029,2204,1,12,9,1.6120095703050636
undo,24,26,0,0,0,17,"[0, 12, 16, 29, 4, 17]",6,3,"[6, 10, 14]",83.52569291,18055,1026,1,4,9,1.5235227867063668
undo,24,26,0,0,0,14,"[0, 12, 16, 29, 4, 17, 14]",7,2,"[6, 10]",61.05348785,20317,2262,1,1,9,1.4827390340429785
undo,24,26,0,0,0,6,"[0, 12, 16, 29, 4, 17, 14, 6]",8,1,[10],40.02969181,21416,1099,1,0,9,1.6186299234650392
undo,24,26,0,0,1,10,"[0, 12, 16, 29, 4, 17, 14, 6, 10]",9,0,[],10.75512948,22595,1179,1,0,9,1.7874725321428664
undo,24,26,0,1,1,10,"[0, 12, 16, 29, 4, 17, 14, 6, 10]",9,0,[],10.75512948,28524,5929,1,0,9,1.7874725321428664
undo,25,41,0,0,0,0,[0],1,29,"[1, 2, 3, 4, 5, 6, 7, 8, 9, 10, 11, 12, 13, 14, 15, 16, 17, 18, 19, 20, 21, 22, 23, 24, 25, 26, 27, 28, 29]",300,12,-1,1,143,10,0.0
undo,25,41,0,0,0,13,"[0, 13]",2,23,"[1, 2, 3, 5, 6, 7, 9, 10, 11, 12, 14, 15, 17, 18, 19, 20, 21, 22, 24, 25, 26, 27, 28]",258.2747079,3057,3045,1,55,10,1.0
undo,25,41,0,0,0,28,"[0, 13, 28]",3,22,"[1, 2, 3, 5, 6, 7, 9, 10, 11, 12, 14, 15, 17, 18, 19, 20, 21, 22, 24, 25, 26, 27]",223.7928286,4085,1028,1,39,10,1.895724242592676
undo,25,41,0,0,0,5,"[0, 13, 28, 5]",4,19,"[1, 2, 3, 6, 9, 10, 11, 12, 14, 15, 17, 18, 19, 20, 21, 22, 24, 25, 27]",210.1913581,5108,1023,1,34,10,2.861541269398273
undo,25,41,0,0,0,22,"[0, 13, 28, 5, 22]",5,12,"[2, 3, 6, 9, 10, 11, 12, 17, 18, 20, 21, 25]",155.4464953,7159,2051,11,12,9,2.096079268852861
undo,25,41,0,0,0,3,"[0, 13, 28, 5, 22, 3]",6,8,"[2, 9, 10, 12, 17, 18, 20, 21]",125.4798472,8621,1462,7,5,9,4.404491319005463
undo,25,41,0,0,0,21,"[0, 13, 28, 5, 22, 3, 21]",7,4,"[2, 9, 12, 17]",93.33952984,9667,1046,5,1,9,4.228139797553632
undo,25,41,0,0,0,9,"[0, 13, 28, 5, 22, 3, 21, 9]",8,2,"[2, 17]",43.97354965,11872,2205,2,0,9,3.111188754077749
undo,25,41,0,0,1,2,"[0, 13, 28, 5, 22, 3, 21, 9, 2]",9,0,[],31.89050368,13045,1173,1,0,9,2.963304814480547
undo,25,41,0,1,1,2,"[0, 13, 28, 5, 22, 3, 21, 9, 2]",9,0,[],31.89050368,14074,1029,1,0,9,2.963304814480547
undo,26,15,0,0,0,0,[0],1,25,"[1, 2, 3, 4, 7, 8, 9, 10, 11, 12, 13, 14, 15, 16, 18, 20, 21, 22, 23, 24, 25, 26, 27, 28, 29]",300,11,-1,4,65,9,0.0
undo,26,15,0,0,0,12,"[0, 12]",2,22,"[1, 2, 3, 4, 7, 8, 9, 10, 11, 13, 14, 15, 16, 18, 21, 22, 23, 24, 26, 27, 28, 29]",213.547701,5599,5588,4,35,9,1.0
undo,26,15,0,0,0,7,"[0, 12, 7]",3,16,"[1, 3, 4, 8, 9, 10, 11, 13, 14, 15, 16, 18, 21, 22, 24, 27]",180.3061607,7393,1794,4,29,9,1.411291635294361
undo,26,15,0,0,0,11,"[0, 12, 7, 11]",4,9,"[3, 4, 13, 14, 15, 16, 21, 22, 27]",138.8212237,8564,1171,2,12,9,1.2980572092387541
undo,26,15,0,0,0,3,"[0, 12, 7, 11, 3]",5,7,"[4, 13, 14, 15, 16, 21, 22]",127.4194695,9291,727,2,7,9,1.3036925309398455
undo,26,15,0,0,0,16,"[0, 12, 7, 11, 3, 16]",6,5,"[4, 13, 14, 15, 22]",102.3395971,10608,1317,2,2,9,1.731400260973498
undo,26,15,0,0,0,22,"[0, 12, 7, 11, 3, 16, 22]",7,2,"[13, 15]",43.48384117,12397,1789,2,0,9,1.4868316064029183
undo,26,15,0,0,0,15,"[0, 12, 7, 11, 3, 16, 22, 15]",8,1,[13],17.87134422,13506,1109,1,0,9,1.4366485266193194
undo,26,15,0,0,1,13,"[0, 12, 7, 11, 3, 16, 22, 15, 13]",9,0,[],2.607006702,15437,1931,1,0,9,1.4844435538306184
undo,26,15,0,1,1,13,"[0, 12, 7, 11, 3, 16, 22, 15, 13]",9,0,[],2.607006702,18239,2802,1,0,9,1.4844435538306184
undo,27,11,0,0,0,0,[0],1,25,"[1, 2, 3, 4, 5, 6, 8, 9, 10, 11, 12, 13, 14, 15, 16, 17, 18, 19, 20, 22, 23, 25, 26, 27, 28]",300,11,-1,6,374,12,0.0
undo,27,11,0,0,0,1,"[0, 1]",2,24,"[2, 3, 4, 5, 6, 8, 9, 10, 11, 12, 13, 14, 15, 16, 17, 18, 19, 20, 22, 23, 25, 26, 27, 28]",264.6446609,2889,2878,6,217,12,1.0
undo,27,11,0,0,0,18,"[0, 1, 18]",3,19,"[2, 4, 5, 6, 8, 9, 11, 12, 14, 15, 16, 17, 19, 20, 22, 23, 25, 27, 28]",212.3187591,3928,1039,6,161,12,1.3884463804898786
undo,27,11,0,0,0,8,"[0, 1, 18, 8]",4,12,"[2, 5, 6, 11, 12, 15, 17, 19, 22, 25, 27, 28]",118.270899,5982,2054,4,76,11,1.2515196577172685
undo,27,11,0,0,0,17,"[0, 1, 18, 8, 17]",5,11,"[2, 5, 6, 11, 12, 15, 19, 22, 25, 27, 28]",103.9530779,8350,2368,4,40,11,1.3329433466121234
undo,27,11,0,0,0,15,"[0, 1, 18, 8, 17, 15]",6,8,"[2, 5, 11, 12, 19, 22, 27, 28]",91.30396727,9377,1027,4,35,11,1.330381001243804
undo,27,11,0,0,0,11,"[0, 1, 18, 8, 17, 15, 11]",7,5,"[2, 5, 19, 22, 28]",73.193197,11133,1756,4,17,11,1.3082492243355142
undo,27,11,0,0,0,5,"[0, 1, 18, 8, 17, 15, 11, 5]",8,3,"[2, 22, 28]",37.96536709,13631,2498,5,0,10,1.6106082839494256
undo,27,11,0,0,0,28,"[0, 1, 18, 8, 17, 15, 11, 5, 28]",9,2,"[2, 22]",20.07682327,18197,4566,2,0,10,1.6198943266058772
undo,27,11,0,0,1,2,"[0, 1, 18, 8, 17, 15, 11, 5, 28, 2]",10,0,[],9.446677456,19983,1786,1,0,10,1.627858277061514
undo,27,11,0,1,1,2,"[0, 1, 18, 8, 17, 15, 11, 5, 28, 2]",10,0,[],9.446677456,25754,5771,1,0,10,1.627858277061514
undo,28,2,0,0,0,0,[0],1,23,"[1, 2, 4, 5, 6, 7, 8, 9, 12, 13, 15, 16, 17, 18, 19, 20, 22, 23, 25, 26, 27, 28, 29]",300,11,-1,70,620,10,0.0
undo,28,2,0,0,0,19,"[0, 19]",2,22,"[1, 2, 4, 5, 6, 7, 8, 9, 12, 13, 15, 16, 17, 18, 20, 22, 23, 25, 26, 27, 28, 29]",210.306076,5045,5034,67,431,10,1.0
undo,28,2,0,0,0,12,"[0, 19, 12]",3,17,"[1, 4, 5, 6, 7, 13, 15, 16, 17, 18, 20, 22, 25, 26, 27, 28, 29]",174.2921898,6093,1048,66,298,10,1.1107635036313153
undo,28,2,0,0,0,5,"[0, 19, 12, 5]",4,11,"[1, 6, 7, 13, 15, 16, 18, 22, 25, 26, 29]",144.7625437,7706,1613,38,136,10,1.0968174771581647
undo,28,2,0,0,0,22,"[0, 19, 12, 5, 22]",5,8,"[1, 6, 7, 13, 15, 18, 26, 29]",131.9562952,8735,1029,20,63,10,1.0889910507461968
undo,28,2,0,0,0,13,"[0, 19, 12, 5, 22, 13]",6,7,"[1, 6, 7, 15, 18, 26, 29]",117.0902265,9620,885,19,20,10,1.236526217328057
undo,28,2,0,0,0,18,"[0, 19, 12, 5, 22, 13, 18]",7,4,"[7, 15, 26, 29]",81.91921567,11267,1647,10,3,10,1.2128708213409936
undo,28,2,0,0,0,7,"[0, 19, 12, 5, 22, 13, 18, 7]",8,3,"[15, 26, 29]",71.62358553,12292,1025,5,0,10,1.2019811287894737
undo,28,2,0,0,0,26,"[0, 19, 12, 5, 22, 13, 18, 7, 26]",9,2,"[15, 29]",48.82007703,14061,1769,2,0,10,1.1883593342191134
undo,28,2,0,0,1,15,"[0, 19, 12, 5, 22, 13, 18, 7, 26, 15]",10,0,[],24.61264015,14940,879,1,0,10,1.4619750353663825
undo,28,2,0,1,1,15,"[0, 19, 12, 5, 22, 13, 18, 7, 26, 15]",10,0,[],24.61264015,17477,2537,1,0,10,1.4619750353663825
undo,29,40,0,0,0,0,[0],1,29,"[1, 2, 3, 4, 5, 6, 7, 8, 9, 10, 11, 12, 13, 14, 15, 16, 17, 18, 19, 20, 21, 22, 23, 24, 25, 26, 27, 28, 29]",300,10,-1,8,191,9,0.0
undo,29,40,0,0,0,23,"[0, 23]",2,21,"[1, 2, 5, 6, 7, 8, 9, 10, 11, 13, 14, 15, 17, 18, 19, 20, 21, 22, 24, 27, 29]",205.1527544,13779,13769,1,27,8,1.0
undo,29,40,0,0,0,18,"[0, 23, 18]",3,14,"[1, 2, 5, 6, 7, 8, 9, 10, 11, 17, 19, 21, 22, 27]",171.1527544,15539,1760,5,48,7,1.0877155842981958
undo,29,40,0,0,0,5,"[0, 23, 18, 5]",4,11,"[1, 2, 6, 7, 8, 9, 11, 19, 21, 22, 27]",139.5774476,16878,1339,2,20,7,1.304420844692444
undo,29,40,0,0,0,9,"[0, 23, 18, 5, 9]",5,4,"[1, 6, 19, 21]",91.77577397,19544,2666,1,3,7,1.6883662007192823
undo,29,40,0,0,1,21,"[0, 23, 18, 5, 9, 21]",6,0,[],46.07019444,22941,3397,1,0,6,2.1072468698960143
undo,29,40,0,1,1,21,"[0, 23, 18, 5, 9, 21]",6,0,[],46.07019444,24052,1111,1,0,6,2.1072468698960143
undo,30,37,0,0,0,0,[0],1,29,"[1, 2, 3, 4, 5, 6, 7, 8, 9, 10, 11, 12, 13, 14, 15, 16, 17, 18, 19, 20, 21, 22, 23, 24, 25, 26, 27, 28, 29]",300,11,-1,6,168,10,0.0
undo,30,37,0,0,0,26,"[0, 26]",2,11,"[1, 2, 4, 15, 18, 19, 20, 21, 22, 25, 29]",124.8971731,6985,6974,1,17,8,1.0
undo,30,37,0,0,0,21,"[0, 26, 21]",3,9,"[1, 2, 4, 15, 18, 19, 20, 22, 29]",95.16503557,9498,2513,1,12,8,1.319868808048901
undo,30,37,0,0,0,15,"[0, 26, 21, 15]",4,5,"[1, 2, 4, 19, 20]",80.16503557,11576,2078,1,4,8,1.32114648715454
undo,30,37,0,0,0,20,"[0, 26, 21, 15, 20]",5,4,"[1, 2, 4, 19]",63.16503557,13323,1747,1,2,8,1.5799885746047053
undo,30,37,0,0,0,1,"[0, 26, 21, 15, 20, 1]",6,2,"[2, 4]",28.93055003,15090,1767,1,1,8,1.7121693567301122
undo,30,37,0,0,0,2,"[0, 26, 21, 15, 20, 1, 2]",7,1,[4],11.7258995,16863,1773,1,0,8,1.9069267714296623
undo,30,37,0,0,1,4,"[0, 26, 21, 15, 20, 1, 2, 4]",8,0,[],0.32414525,19823,2960,1,0,8,1.8437838415961105
undo,30,37,0,1,1,4,"[0, 26, 21, 15, 20, 1, 2, 4]",8,0,[],0.32414525,22501,2678,1,0,8,1.8437838415961105
undo,31,24,0,0,0,0,[0],1,29,"[1, 2, 3, 4, 5, 6, 7, 8, 9, 10, 11, 12, 13, 14, 15, 16, 17, 18, 19, 20, 21, 22, 23, 24, 25, 26, 27, 28, 29]",300,11,-1,4,76,10,0.0
undo,31,24,0,0,0,16,"[0, 16]",2,28,"[1, 2, 3, 4, 5, 6, 7, 8, 9, 10, 11, 12, 13, 14, 15, 17, 18, 19, 20, 21, 22, 23, 24, 25, 26, 27, 28, 29]",210.3562607,3654,3643,13,110,9,1.0
undo,31,24,0,0,0,22,"[0, 16, 22]",3,27,"[1, 2, 3, 4, 5, 6, 7, 8, 9, 10, 11, 12, 13, 14, 15, 17, 18, 19, 20, 21, 23, 24, 25, 26, 27, 28, 29]",192.3285043,5858,2204,7,54,9,1.0217425143037777
undo,31,24,0,0,0,8,"[0, 16, 22, 8]",4,21,"[1, 2, 3, 4, 6, 9, 10, 11, 13, 14, 15, 17, 20, 21, 23, 24, 25, 26, 27, 28, 29]",178.9120964,6904,1046,4,28,9,1.0996636936037951
undo,31,24,0,0,0,15,"[0, 16, 22, 8, 15]",5,16,"[3, 4, 6, 9, 10, 11, 13, 14, 17, 23, 24, 25, 26, 27, 28, 29]",148.025206,7638,734,3,17,9,1.2704773343758617
undo,31,24,0,0,0,28,"[0, 16, 22, 8, 15, 28]",6,8,"[3, 4, 9, 11, 13, 23, 26, 27]",102.7482803,10266,2628,3,5,9,1.1981967578189556
undo,31,24,0,0,0,23,"[0, 16, 22, 8, 15, 28, 23]",7,3,"[9, 11, 27]",83.72198273,12095,1829,3,1,9,1.2275650852813986
undo,31,24,0,0,0,11,"[0, 16, 22, 8, 15, 28, 23, 11]",8,2,"[9, 27]",56.79615869,14365,2270,2,0,9,1.2107937989822568
undo,31,24,0,0,1,27,"[0, 16, 22, 8, 15, 28, 23, 11, 27]",9,0,[],28.99328114,16125,1760,1,0,9,1.1865620449755248
undo,31,24,0,1,1,27,"[0, 16, 22, 8, 15, 28, 23, 11, 27]",9,0,[],28.99328114,18204,2079,1,0,9,1.1865620449755248
undo,32,30,0,0,0,0,[0],1,19,"[3, 4, 5, 7, 9, 11, 16, 17, 18, 19, 20, 21, 22, 24, 25, 26, 27, 28, 29]",300,11,-1,5,41,8,0.0
undo,32,30,0,0,0,25,"[0, 25]",2,12,"[3, 5, 7, 9, 11, 16, 18, 19, 20, 24, 27, 29]",121.1005869,10898,10887,7,37,7,1.0
undo,32,30,0,0,0,27,"[0, 25, 27]",3,8,"[3, 5, 7, 18, 19, 20, 24, 29]",81.54050603,12685,1787,2,17,7,1.0432445497342653
undo,32,30,0,0,0,3,"[0, 25, 27, 3]",4,5,"[5, 7, 18, 20, 29]",62.43553286,14603,1918,2,6,7,1.0419393955972533
undo,32,30,0,0,0,18,"[0, 25, 27, 3, 18]",5,3,"[5, 7, 29]",44.18724527,15627,1024,3,0,6,1.0473579399266177
undo,32,30,0,0,1,5,"[0, 25, 27, 3, 18, 5]",6,0,[],31.14884046,18435,2808,1,0,6,1.1118098368956684
undo,32,30,0,1,1,5,"[0, 25, 27, 3, 18, 5]",6,0,[],31.14884046,19904,1469,1,0,6,1.1118098368956684
undo,33,39,0,0,0,0,[0],1,28,"[1, 2, 3, 4, 5, 6, 7, 9, 10, 11, 12, 13, 14, 15, 16, 17, 18, 19, 20, 21, 22, 23, 24, 25, 26, 27, 28, 29]",300,12,-1,1,30,10,0.0
undo,33,39,0,0,0,14,"[0, 14]",2,26,"[1, 2, 3, 4, 5, 6, 7, 9, 10, 12, 13, 15, 16, 17, 18, 19, 20, 21, 22, 23, 24, 25, 26, 27, 28, 29]",286.9615952,1757,1745,1,22,10,1.0
undo,33,39,0,0,0,29,"[0, 14, 29]",3,23,"[1, 2, 3, 4, 5, 6, 7, 9, 10, 12, 13, 15, 16, 17, 18, 19, 21, 22, 23, 24, 25, 26, 28]",218.9321898,5306,3549,1,21,10,1.4237768813412561
undo,33,39,0,0,0,12,"[0, 14, 29, 12]",4,16,"[1, 2, 4, 5, 7, 9, 10, 13, 15, 16, 18, 19, 22, 23, 24, 26]",158.3929463,6714,1408,1,11,10,1.2085522586932163
undo,33,39,0,0,0,10,"[0, 14, 29, 12, 10]",5,11,"[1, 4, 5, 7, 15, 16, 18, 19, 22, 23, 26]",122.8823845,7617,903,1,8,10,1.4905426536315662
undo,33,39,0,0,0,7,"[0, 14, 29, 12, 10, 7]",6,6,"[1, 16, 18, 19, 22, 26]",89.46083457,8488,871,1,6,10,1.3836596018032035
undo,33,39,0,0,0,26,"[0, 14, 29, 12, 10, 7, 26]",7,3,"[16, 19, 22]",70.77929288,9255,767,1,4,10,1.4191124441944845
undo,33,39,0,0,0,22,"[0, 14, 29, 12, 10, 7, 26, 22]",8,2,"[16, 19]",53.05924773,10525,1270,1,1,10,1.594793297833885
undo,33,39,0,0,0,16,"[0, 14, 29, 12, 10, 7, 26, 22, 16]",9,1,[19],18.05924773,12144,1619,1,0,10,1.48519520801471
undo,33,39,0,0,1,19,"[0, 14, 29, 12, 10, 7, 26, 22, 16, 19]",10,0,[],0.594998533,14344,2200,1,0,10,1.484277847976571
undo,33,39,0,1,1,19,"[0, 14, 29, 12, 10, 7, 26, 22, 16, 19]",10,0,[],0.594998533,15527,1183,1,0,10,1.484277847976571
undo,34,3,0,0,0,0,[0],1,29,"[1, 2, 3, 4, 5, 6, 7, 8, 9, 10, 11, 12, 13, 14, 15, 16, 17, 18, 19, 20, 21, 22, 23, 24, 25, 26, 27, 28, 29]",300,11,-1,34,427,10,0.0
undo,34,3,0,0,0,7,"[0, 7]",2,28,"[1, 2, 3, 4, 5, 6, 8, 9, 10, 11, 12, 13, 14, 15, 16, 17, 18, 19, 20, 21, 22, 23, 24, 25, 26, 27, 28, 29]",278.8103799,2101,2090,24,215,10,1.0
undo,34,3,0,0,0,8,"[0, 7, 8]",3,24,"[1, 2, 3, 4, 5, 6, 10, 11, 12, 13, 14, 15, 16, 17, 18, 19, 20, 21, 22, 24, 25, 26, 27, 28]",222.837172,4027,1926,16,114,10,1.2853332575451413
undo,34,3,0,0,0,24,"[0, 7, 8, 24]",4,21,"[1, 3, 4, 5, 6, 10, 11, 12, 14, 15, 16, 17, 18, 19, 20, 21, 22, 25, 26, 27, 28]",210.671647,4915,888,16,91,10,1.5177505014936548
undo,34,3,0,0,0,17,"[0, 7, 8, 24, 17]",5,9,"[3, 4, 10, 14, 15, 16, 19, 20, 21]",141.3174834,6268,1353,7,26,10,1.5510961300062232
undo,34,3,0,0,0,20,"[0, 7, 8, 24, 17, 20]",6,7,"[3, 4, 10, 14, 16, 19, 21]",128.6683728,7004,736,7,14,10,1.5133082717474817
undo,34,3,0,0,0,3,"[0, 7, 8, 24, 17, 20, 3]",7,5,"[4, 10, 14, 19, 21]",108.2722947,8915,1911,7,4,10,1.5325960555943097
undo,34,3,0,0,0,14,"[0, 7, 8, 24, 17, 20, 3, 14]",8,4,"[4, 10, 19, 21]",62.78603307,9941,1026,2,2,10,1.8430814842216443
undo,34,3,0,0,0,19,"[0, 7, 8, 24, 17, 20, 3, 14, 19]",9,1,[21],35.86020903,10814,873,1,0,10,1.7898016005197124
undo,34,3,0,0,1,21,"[0, 7, 8, 24, 17, 20, 3, 14, 19, 21]",10,0,[],23.65365342,11690,876,1,0,10,1.7971489282103539
undo,34,3,0,1,1,21,"[0, 7, 8, 24, 17, 20, 3, 14, 19, 21]",10,0,[],23.65365342,14514,2824,1,0,10,1.7971489282103539
undo,35,5,0,0,0,0,[0],1,29,"[1, 2, 3, 4, 5, 6, 7, 8, 9, 10, 11, 12, 13, 14, 15, 16, 17, 18, 19, 20, 21, 22, 23, 24, 25, 26, 27, 28, 29]",300,10,-1,5,139,9,0.0
undo,35,5,0,0,0,12,"[0, 12]",2,22,"[2, 4, 5, 6, 8, 9, 10, 13, 14, 15, 16, 17, 18, 19, 21, 22, 23, 24, 25, 26, 27, 28]",228.3062067,2232,2222,1,27,9,1.0
undo,35,5,0,0,0,25,"[0, 12, 25]",3,21,"[2, 4, 5, 6, 8, 9, 10, 13, 14, 15, 16, 17, 18, 19, 21, 22, 23, 24, 26, 27, 28]",200.5213187,5045,2813,1,20,9,1.584023303445617
undo,35,5,0,0,0,23,"[0, 12, 25, 23]",4,19,"[2, 4, 5, 6, 8, 9, 10, 13, 14, 15, 16, 17, 18, 19, 21, 22, 24, 26, 27]",182.0822298,6957,1912,1,14,9,2.3508446989254357
undo,35,5,0,0,0,24,"[0, 12, 25, 23, 24]",5,15,"[2, 4, 5, 6, 8, 9, 13, 14, 15, 17, 18, 19, 22, 26, 27]",158.995437,7840,883,1,12,9,1.9469752046288753
undo,35,5,0,0,0,17,"[0, 12, 25, 23, 24, 17]",6,7,"[4, 5, 6, 8, 15, 18, 19]",124.0097257,9470,1630,1,8,9,1.6482276497563642
undo,35,5,0,0,0,5,"[0, 12, 25, 23, 24, 17, 5]",7,4,"[4, 6, 15, 18]",80.96323916,10523,1053,1,3,9,1.4654649104389412
undo,35,5,0,0,1,6,"[0, 12, 25, 23, 24, 17, 5, 6]",8,0,[],11.64513186,12899,2376,1,0,8,1.7266758571257486
undo,35,5,0,1,1,6,"[0, 12, 25, 23, 24, 17, 5, 6]",8,0,[],11.64513186,14232,1333,1,0,8,1.7266758571257486
undo,36,13,0,0,0,0,[0],1,29,"[1, 2, 3, 4, 5, 6, 7, 8, 9, 10, 11, 12, 13, 14, 15, 16, 17, 18, 19, 20, 21, 22, 23, 24, 25, 26, 27, 28, 29]",300,326,-1,60,2676,11,0.0
undo,36,13,0,0,0,9,"[0, 9]",2,28,"[1, 2, 3, 4, 5, 6, 7, 8, 10, 11, 12, 13, 14, 15, 16, 17, 18, 19, 20, 21, 22, 23, 24, 25, 26, 27, 28, 29]",268.9516506,4140,3814,24,557,11,1.0
undo,36,13,0,0,0,21,"[0, 9, 21]",3,27,"[1, 2, 3, 4, 5, 6, 7, 8, 10, 11, 12, 13, 14, 15, 16, 17, 18, 19, 20, 22, 23, 24, 25, 26, 27, 28, 29]",245.6064155,5315,1175,23,375,11,1.8983491882127779
undo,36,13,0,0,0,24,"[0, 9, 21, 24]",4,24,"[1, 2, 3, 4, 5, 6, 7, 8, 10, 11, 12, 13, 14, 15, 16, 17, 19, 20, 22, 23, 26, 27, 28, 29]",207.1876701,6928,1613,23,335,11,8.301387152261452
undo,36,13,0,0,0,23,"[0, 9, 21, 24, 23]",5,21,"[1, 2, 3, 4, 6, 7, 8, 10, 11, 12, 13, 15, 16, 17, 19, 20, 22, 26, 27, 28, 29]",161.4820906,8099,1171,9,132,11,2.4509726913097616
undo,36,13,0,0,0,2,"[0, 9, 21, 24, 23, 2]",6,8,"[1, 6, 7, 11, 19, 26, 28, 29]",75.11079907,12832,4733,6,20,10,2.0520932773379026
undo,36,13,0,0,0,29,"[0, 9, 21, 24, 23, 2, 29]",7,5,"[6, 7, 11, 26, 28]",63.40609916,15440,2608,6,7,10,2.1256189749557763
undo,36,13,0,0,0,7,"[0, 9, 21, 24, 23, 2, 29, 7]",8,4,"[6, 11, 26, 28]",48.14176163,16503,1063,4,2,10,2.392689155121509
undo,36,13,0,0,0,26,"[0, 9, 21, 24, 23, 2, 29, 7, 26]",9,2,"[6, 11]",37.70145513,19151,2648,2,0,10,2.7416634989540043
undo,36,13,0,0,1,6,"[0, 9, 21, 24, 23, 2, 29, 7, 26, 6]",10,0,[],17.60170388,20638,1487,1,0,10,2.6008996018262893
undo,36,13,0,1,1,6,"[0, 9, 21, 24, 23, 2, 29, 7, 26, 6]",10,0,[],17.60170388,21984,1346,1,0,10,2.6008996018262893
undo,37,8,0,0,0,0,[0],1,29,"[1, 2, 3, 4, 5, 6, 7, 8, 9, 10, 11, 12, 13, 14, 15, 16, 17, 18, 19, 20, 21, 22, 23, 24, 25, 26, 27, 28, 29]",300,10,-1,10,149,9,0.0
undo,37,8,0,0,0,6,"[0, 6]",2,28,"[1, 2, 3, 4, 5, 7, 8, 9, 10, 11, 12, 13, 14, 15, 16, 17, 18, 19, 20, 21, 22, 23, 24, 25, 26, 27, 28, 29]",257.8929935,4276,4266,12,179,8,1.0
undo,37,8,0,0,0,5,"[0, 6, 5]",3,19,"[1, 2, 3, 4, 11, 14, 15, 16, 17, 18, 19, 20, 21, 22, 23, 24, 25, 28, 29]",182.3019887,5512,1236,5,61,8,2.5875507680568495
undo,37,8,0,0,0,25,"[0, 6, 5, 25]",4,14,"[1, 3, 4, 11, 14, 15, 16, 17, 18, 20, 21, 22, 23, 28]",143.0973971,6884,1372,2,23,8,2.2737119940753994
undo,37,8,0,0,0,14,"[0, 6, 5, 25, 14]",5,7,"[1, 11, 15, 17, 18, 23, 28]",97.997508,8650,1766,4,3,7,2.364260340015719
undo,37,8,0,0,0,17,"[0, 6, 5, 25, 14, 17]",6,1,[11],60.98399695,11902,3252,1,0,7,2.188299483197876
undo,37,8,0,0,1,11,"[0, 6, 5, 25, 14, 17, 11]",7,0,[],35.80464033,12930,1028,1,0,7,2.0179935630441905
undo,37,8,0,1,1,11,"[0, 6, 5, 25, 14, 17, 11]",7,0,[],35.80464033,15472,2542,1,0,7,2.0179935630441905
undo,38,36,0,0,0,0,[0],1,24,"[2, 4, 5, 6, 7, 8, 9, 10, 12, 13, 14, 15, 16, 17, 18, 19, 20, 22, 23, 25, 26, 27, 28, 29]",300,11,-1,2,200,10,0.0
undo,38,36,0,0,0,18,"[0, 18]",2,21,"[2, 4, 5, 6, 7, 8, 9, 10, 12, 13, 14, 16, 17, 19, 22, 23, 25, 26, 27, 28, 29]",279.6039219,3056,3045,2,110,10,1.0
undo,38,36,0,0,0,12,"[0, 18, 12]",3,19,"[2, 4, 5, 6, 7, 8, 9, 10, 13, 16, 17, 19, 22, 23, 25, 26, 27, 28, 29]",237.0245842,4373,1317,2,86,10,2.836270082716982
undo,38,36,0,0,0,16,"[0, 18, 12, 16]",4,6,"[2, 9, 13, 17, 19, 25]",130.8549087,7341,2968,15,25,8,1.5846755239984103
undo,38,36,0,0,0,9,"[0, 18, 12, 16, 9]",5,5,"[2, 13, 17, 19, 25]",83.55797435,8679,1338,2,6,8,3.133880270325743
undo,38,36,0,0,0,17,"[0, 18, 12, 16, 9, 17]",6,2,"[2, 19]",57.30916486,11784,3105,2,0,7,2.567761655073833
undo,38,36,0,0,1,19,"[0, 18, 12, 16, 9, 17, 19]",7,0,[],29.41651349,12813,1029,1,0,7,3.51052049000432
undo,38,36,0,1,1,19,"[0, 18, 12, 16, 9, 17, 19]",7,0,[],29.41651349,15003,2190,1,0,7,3.51052049000432
undo,39,44,0,0,0,0,[0],1,29,"[1, 2, 3, 4, 5, 6, 7, 8, 9, 10, 11, 12, 13, 14, 15, 16, 17, 18, 19, 20, 21, 22, 23, 24, 25, 26, 27, 28, 29]",300,12,-1,13,126,7,0.0
undo,39,44,0,0,0,8,"[0, 8]",2,17,"[1, 4, 5, 7, 9, 10, 11, 12, 13, 14, 15, 20, 21, 23, 24, 25, 27]",145.7923478,6765,6753,1,10,7,1.0
undo,39,44,0,0,0,20,"[0, 8, 20]",3,16,"[1, 4, 5, 7, 9, 10, 11, 12, 13, 14, 15, 21, 23, 24, 25, 27]",133.7093018,7497,732,1,9,7,1.0890794433668698
undo,39,44,0,0,0,9,"[0, 8, 20, 9]",4,7,"[4, 7, 11, 12, 14, 23, 24]",76.43801756,8984,1487,1,6,7,1.40892325509949
undo,39,44,0,0,0,4,"[0, 8, 20, 9, 4]",5,4,"[7, 12, 23, 24]",56.74030196,10477,1493,1,3,7,1.3849770570803555
undo,39,44,0,0,0,7,"[0, 8, 20, 9, 4, 7]",6,1,[23],25.72417712,11666,1189,1,0,7,1.3274380931474288
undo,39,44,0,0,1,23,"[0, 8, 20, 9, 4, 7, 23]",7,0,[],6.619203947,12546,880,1,0,7,1.3395824779823196
undo,39,44,0,1,1,23,"[0, 8, 20, 9, 4, 7, 23]",7,0,[],6.619203947,35039,22493,1,0,7,1.3395824779823196
undo,40,23,0,0,0,0,[0],1,28,"[1, 2, 3, 4, 5, 6, 7, 8, 9, 10, 11, 12, 13, 14, 15, 16, 17, 18, 19, 20, 21, 22, 23, 25, 26, 27, 28, 29]",300,11,-1,76,2626,10,0.0
undo,40,23,0,0,0,22,"[0, 22]",2,24,"[1, 2, 3, 5, 6, 7, 8, 9, 10, 11, 12, 13, 14, 15, 17, 18, 19, 20, 21, 23, 25, 26, 27, 29]",210.5013967,7616,7605,15,1362,10,1.0
undo,40,23,0,0,0,13,"[0, 22, 13]",3,14,"[1, 2, 5, 6, 7, 8, 9, 10, 12, 14, 18, 21, 27, 29]",168.3113504,9196,1580,14,522,10,1.1898173563652046
undo,40,23,0,0,0,27,"[0, 22, 13, 27]",4,7,"[2, 6, 9, 12, 14, 18, 29]",123.2114613,11508,2312,59,60,9,1.2347447137291254
undo,40,23,0,0,0,6,"[0, 22, 13, 27, 6]",5,5,"[2, 9, 12, 14, 29]",94.90951791,12855,1347,25,4,9,1.3650572476361236
undo,40,23,0,0,0,2,"[0, 22, 13, 27, 6, 2]",6,4,"[9, 12, 14, 29]",76.47042899,13898,1043,7,2,9,1.6380738772667878
undo,40,23,0,0,0,12,"[0, 22, 13, 27, 6, 2, 12]",7,2,"[9, 14]",62.577985,14939,1041,2,0,9,1.9367358574807247
undo,40,23,0,0,0,9,"[0, 22, 13, 27, 6, 2, 12, 9]",8,1,[14],48.26016394,17197,2258,1,0,9,1.926849993362044
undo,40,23,0,0,1,14,"[0, 22, 13, 27, 6, 2, 12, 9, 14]",9,0,[],37.81985743,18397,1200,1,0,9,1.860885019505484
undo,40,23,0,1,1,14,"[0, 22, 13, 27, 6, 2, 12, 9, 14]",9,0,[],37.81985743,23901,5504,1,0,9,1.860885019505484
undo,41,43,0,0,0,0,[0],1,23,"[1, 2, 3, 4, 5, 6, 7, 9, 10, 11, 12, 14, 15, 16, 17, 19, 20, 21, 22, 23, 25, 27, 29]",300,10,-1,16,556,12,0.0
undo,41,43,0,0,0,29,"[0, 29]",2,22,"[1, 2, 3, 4, 5, 6, 7, 9, 10, 11, 12, 14, 15, 16, 17, 19, 20, 21, 22, 23, 25, 27]",277.909278,2214,2204,16,520,12,1.0
undo,41,43,0,0,0,20,"[0, 29, 20]",3,20,"[1, 2, 3, 4, 6, 7, 9, 10, 11, 12, 14, 15, 16, 17, 19, 21, 22, 23, 25, 27]",254.4785289,6235,4021,15,422,12,1.082311746871282
undo,41,43,0,0,0,16,"[0, 29, 20, 16]",4,19,"[1, 2, 3, 4, 6, 7, 9, 10, 11, 12, 14, 15, 17, 19, 21, 22, 23, 25, 27]",231.8511119,7704,1469,15,389,12,1.215201926898219
undo,41,43,0,0,0,25,"[0, 29, 20, 16, 25]",5,14,"[1, 2, 3, 4, 6, 7, 9, 11, 12, 14, 15, 19, 22, 23]",175.7708124,10584,2880,53,282,11,1.566384303308987
undo,41,43,0,0,0,12,"[0, 29, 20, 16, 25, 12]",6,12,"[1, 3, 4, 6, 7, 9, 11, 14, 15, 19, 22, 23]",151.5840391,11380,796,21,113,11,1.5012971453990767
undo,41,43,0,0,0,3,"[0, 29, 20, 16, 25, 12, 3]",7,11,"[1, 4, 6, 7, 9, 11, 14, 15, 19, 22, 23]",138.5840391,13741,2361,14,54,11,1.4489739745175536
undo,41,43,0,0,0,15,"[0, 29, 20, 16, 25, 12, 3, 15]",8,7,"[1, 6, 7, 11, 14, 19, 22]",108.7511713,15213,1472,4,13,11,2.3131178338744935
undo,41,43,0,0,0,22,"[0, 29, 20, 16, 25, 12, 3, 15, 22]",9,5,"[1, 6, 7, 11, 19]",66.6441648,17279,2066,3,3,11,1.956557103499435
undo,41,43,0,0,0,19,"[0, 29, 20, 16, 25, 12, 3, 15, 22, 19]",10,2,"[1, 7]",46.02863667,19063,1784,2,0,11,1.828125875640534
undo,41,43,0,0,1,1,"[0, 29, 20, 16, 25, 12, 3, 15, 22, 19, 1]",11,0,[],17.85063107,19949,886,1,0,11,1.9600323914573636
undo,41,43,0,1,1,1,"[0, 29, 20, 16, 25, 12, 3, 15, 22, 19, 1]",11,0,[],17.85063107,21136,1187,1,0,11,1.9600323914573636
undo,42,35,0,0,0,0,[0],1,29,"[1, 2, 3, 4, 5, 6, 7, 8, 9, 10, 11, 12, 13, 14, 15, 16, 17, 18, 19, 20, 21, 22, 23, 24, 25, 26, 27, 28, 29]",300,12,-1,5,236,11,0.0
undo,42,35,0,0,0,27,"[0, 27]",2,27,"[1, 2, 4, 5, 6, 7, 8, 9, 10, 11, 12, 13, 14, 15, 16, 17, 18, 19, 20, 21, 22, 23, 24, 25, 26, 28, 29]",278.7867966,2113,2101,5,144,11,1.0
undo,42,35,0,0,0,24,"[0, 27, 24]",3,25,"[1, 2, 4, 5, 6, 7, 8, 9, 10, 11, 12, 13, 15, 16, 17, 18, 19, 20, 21, 22, 23, 25, 26, 28, 29]",234.6053525,3152,1039,3,80,11,2.1084080567904624
undo,42,35,0,0,0,17,"[0, 27, 24, 17]",4,20,"[1, 2, 4, 5, 6, 7, 8, 9, 10, 15, 16, 18, 19, 20, 21, 23, 25, 26, 28, 29]",222.9006526,4030,878,3,50,11,1.9439555968916868
undo,42,35,0,0,0,1,"[0, 27, 24, 17, 1]",5,18,"[2, 4, 5, 6, 8, 9, 10, 15, 16, 18, 19, 20, 21, 23, 25, 26, 28, 29]",207.0892643,4909,879,3,39,11,1.9436711872547336
undo,42,35,0,0,0,15,"[0, 27, 24, 17, 1, 15]",6,16,"[2, 4, 5, 6, 8, 9, 10, 16, 18, 19, 20, 23, 25, 26, 28, 29]",184.241945,5649,740,3,24,11,2.082774572108194
undo,42,35,0,0,0,23,"[0, 27, 24, 17, 1, 15, 23]",7,7,"[5, 6, 9, 18, 19, 25, 26]",123.801892,8003,2354,3,14,11,1.657239080954205
undo,42,35,0,0,0,9,"[0, 27, 24, 17, 1, 15, 23, 9]",8,4,"[6, 18, 19, 25]",86.15883157,11108,3105,2,2,11,1.9022575917054987
undo,42,35,0,0,0,18,"[0, 27, 24, 17, 1, 15, 23, 9, 18]",9,2,"[6, 25]",66.13384718,12441,1333,2,0,11,1.8181129550839106
undo,42,35,0,0,0,25,"[0, 27, 24, 17, 1, 15, 23, 9, 18, 25]",10,1,[6],32.29599855,13316,875,1,0,11,1.6530923432245144
undo,42,35,0,0,1,6,"[0, 27, 24, 17, 1, 15, 23, 9, 18, 25, 6]",11,0,[],8.275174247,14960,1644,1,0,11,1.9291202388527962
undo,42,35,0,1,1,6,"[0, 27, 24, 17, 1, 15, 23, 9, 18, 25, 6]",11,0,[],8.275174247,16145,1185,1,0,11,1.9291202388527962
undo,43,27,0,0,0,0,[0],1,26,"[1, 3, 5, 6, 7, 8, 9, 10, 11, 12, 13, 14, 15, 16, 17, 18, 19, 21, 22, 23, 24, 25, 26, 27, 28, 29]",300,13,-1,13,578,11,0.0
undo,43,27,0,0,0,26,"[0, 26]",2,23,"[1, 5, 6, 7, 8, 9, 10, 11, 12, 13, 14, 15, 16, 17, 18, 19, 21, 22, 23, 24, 25, 27, 29]",275.8132268,2902,2889,7,249,11,1.0
undo,43,27,0,0,0,15,"[0, 26, 15]",3,18,"[1, 6, 7, 8, 10, 12, 13, 14, 16, 17, 18, 19, 21, 23, 24, 25, 27, 29]",216.0386502,4575,1673,6,105,11,2.316230250316108
undo,43,27,0,0,0,24,"[0, 26, 15, 24]",4,14,"[1, 8, 10, 12, 13, 14, 16, 17, 18, 19, 23, 25, 27, 29]",198.8339997,5598,1023,6,63,11,2.140390406148825
undo,43,27,0,0,0,17,"[0, 26, 15, 24, 17]",5,11,"[1, 8, 10, 12, 13, 14, 18, 19, 23, 27, 29]",182.2810543,7219,1621,4,33,11,1.897705569486853
undo,43,27,0,0,0,12,"[0, 26, 15, 24, 17, 12]",6,10,"[1, 8, 10, 13, 14, 18, 19, 23, 27, 29]",171.1007144,7952,733,2,17,11,1.994427587076918
undo,43,27,0,0,0,10,"[0, 26, 15, 24, 17, 12, 10]",7,9,"[1, 8, 13, 14, 18, 19, 23, 27, 29]",160.0553534,9462,1510,2,14,11,1.8554032921959762
undo,43,27,0,0,0,13,"[0, 26, 15, 24, 17, 12, 10, 13]",8,7,"[1, 8, 14, 19, 23, 27, 29]",120.2056357,10433,971,2,8,11,1.8269483184790714
undo,43,27,0,0,0,19,"[0, 26, 15, 24, 17, 12, 10, 13, 19]",9,4,"[8, 14, 23, 29]",83.97029387,11637,1204,2,3,11,1.6617669702307691
undo,43,27,0,0,0,8,"[0, 26, 15, 24, 17, 12, 10, 13, 19, 8]",10,2,"[14, 29]",69.10422512,12516,879,2,0,11,1.708465241811091
undo,43,27,0,0,1,29,"[0, 26, 15, 24, 17, 12, 10, 13, 19, 8, 29]",11,0,[],9.901184659,13692,1176,1,0,11,1.4940849125097164
undo,43,27,0,1,1,29,"[0, 26, 15, 24, 17, 12, 10, 13, 19, 8, 29]",11,0,[],9.901184659,14723,1031,1,0,11,1.4940849125097164
undo,44,0,0,0,0,0,[0],1,27,"[2, 3, 4, 5, 6, 7, 8, 9, 10, 11, 12, 13, 14, 15, 16, 17, 19, 20, 21, 22, 23, 24, 25, 26, 27, 28, 29]",300,10,-1,104,1136,9,0.0
undo,44,0,0,0,0,28,"[0, 28]",2,26,"[2, 3, 4, 5, 6, 7, 8, 9, 10, 11, 12, 13, 14, 15, 16, 17, 19, 20, 21, 22, 23, 24, 25, 26, 27, 29]",194.9190788,6223,6213,39,388,9,1.0
undo,44,0,0,0,0,5,"[0, 28, 5]",3,21,"[2, 3, 4, 7, 8, 9, 11, 12, 13, 14, 15, 16, 17, 19, 20, 21, 23, 24, 25, 26, 29]",151.2613189,7418,1195,27,210,9,1.0978295127671733
undo,44,0,0,0,0,26,"[0, 28, 5, 26]",4,15,"[3, 4, 7, 8, 9, 11, 12, 13, 14, 15, 17, 19, 20, 23, 24]",115.8212286,11772,4354,5,35,9,1.1400379746718978
undo,44,0,0,0,0,4,"[0, 28, 5, 26, 4]",5,12,"[3, 7, 8, 9, 11, 12, 15, 17, 19, 20, 23, 24]",103.779634,13261,1489,4,17,9,1.2534780347343448
undo,44,0,0,0,0,24,"[0, 28, 5, 26, 4, 24]",6,9,"[3, 7, 8, 9, 11, 12, 15, 17, 19]",92.37787977,14152,891,4,12,9,1.2444963062448124
undo,44,0,0,0,0,15,"[0, 28, 5, 26, 4, 24, 15]",7,6,"[3, 7, 8, 9, 11, 17]",69.03264471,15186,1034,3,4,9,1.2218613820858855
undo,44,0,0,0,0,8,"[0, 28, 5, 26, 4, 24, 15, 8]",8,1,[7],29.91743028,19337,4151,1,0,9,1.21405351358847
undo,44,0,0,0,1,7,"[0, 28, 5, 26, 4, 24, 15, 8, 7]",9,0,[],10.81245711,21032,1695,1,0,9,1.4106038108734493
undo,44,0,0,1,1,7,"[0, 28, 5, 26, 4, 24, 15, 8, 7]",9,0,[],10.81245711,24867,3835,1,0,9,1.4106038108734493
undo,45,1,0,0,0,0,[0],1,26,"[1, 2, 4, 5, 7, 8, 9, 10, 11, 12, 13, 14, 15, 16, 17, 18, 19, 20, 21, 22, 23, 24, 25, 26, 28, 29]",300,10,-1,6,74,7,0.0
undo,45,1,0,0,0,8,"[0, 8]",2,23,"[1, 4, 5, 7, 9, 10, 11, 12, 13, 14, 15, 16, 17, 18, 19, 20, 21, 23, 24, 25, 26, 28, 29]",202,3499,3489,1,16,7,1.0
undo,45,1,0,0,0,20,"[0, 8, 20]",3,12,"[1, 4, 5, 11, 13, 14, 15, 17, 18, 19, 28, 29]",125.9408125,4969,1470,1,7,7,1.02364736730791
undo,45,1,0,0,0,5,"[0, 8, 20, 5]",4,7,"[1, 4, 11, 13, 17, 18, 29]",104.469902,6844,1875,1,3,7,1.0439599203945713
undo,45,1,0,0,0,18,"[0, 8, 20, 5, 18]",5,2,"[4, 29]",81.64447755,7743,899,1,1,7,1.0840407791793756
undo,45,1,0,0,0,4,"[0, 8, 20, 5, 18, 4]",6,1,[29],42.69579336,9066,1323,1,0,7,1.0902329133216275
undo,45,1,0,0,1,29,"[0, 8, 20, 5, 18, 4, 29]",7,0,[],6.640280603,10825,1759,1,0,7,1.2859729622882756
undo,45,1,0,1,1,29,"[0, 8, 20, 5, 18, 4, 29]",7,0,[],6.640280603,12018,1193,1,0,7,1.2859729622882756
undo,46,33,0,0,0,0,[0],1,23,"[1, 2, 5, 7, 8, 11, 12, 13, 14, 15, 16, 17, 18, 19, 20, 21, 23, 24, 25, 26, 27, 28, 29]",300,343,-1,5,108,9,0.0
undo,46,33,0,0,0,8,"[0, 8]",2,22,"[1, 2, 5, 7, 11, 12, 13, 14, 15, 16, 17, 18, 19, 20, 21, 23, 24, 25, 26, 27, 28, 29]",265.8679037,4455,4112,5,87,9,1.0
undo,46,33,0,0,0,21,"[0, 8, 21]",3,16,"[2, 5, 7, 11, 13, 14, 16, 17, 18, 19, 20, 24, 26, 27, 28, 29]",166.0430571,6358,1903,5,80,9,1.0670557763739492
undo,46,33,0,0,0,17,"[0, 8, 21, 17]",4,11,"[2, 7, 11, 13, 14, 16, 19, 20, 24, 26, 29]",127.4036989,9724,3366,1,18,9,1.0830294710276618
undo,46,33,0,0,0,29,"[0, 8, 21, 17, 29]",5,8,"[7, 11, 13, 14, 19, 20, 24, 26]",75.92554818,11496,1772,6,5,8,1.065271339918304
undo,46,33,0,0,0,26,"[0, 8, 21, 17, 29, 26]",6,2,"[7, 14]",48.03289682,12517,1021,2,0,8,1.1137109487935157
undo,46,33,0,0,0,14,"[0, 8, 21, 17, 29, 26, 14]",7,1,[7],35.38378618,13395,878,1,0,8,1.2197404308775484
undo,46,33,0,0,1,7,"[0, 8, 21, 17, 29, 26, 14, 7]",8,0,[],20.51771743,13983,588,1,0,8,1.3115020293999784
undo,46,33,0,1,1,7,"[0, 8, 21, 17, 29, 26, 14, 7]",8,0,[],20.51771743,23213,9230,1,0,8,1.3115020293999784
undo,47,12,0,0,0,0,[0],1,29,"[1, 2, 3, 4, 5, 6, 7, 8, 9, 10, 11, 12, 13, 14, 15, 16, 17, 18, 19, 20, 21, 22, 23, 24, 25, 26, 27, 28, 29]",300,10,-1,2,32,9,0.0
undo,47,12,0,0,0,6,"[0, 6]",2,28,"[1, 2, 3, 4, 5, 7, 8, 9, 10, 11, 12, 13, 14, 15, 16, 17, 18, 19, 20, 21, 22, 23, 24, 25, 26, 27, 28, 29]",283.5987805,3181,3171,2,18,9,1.0
undo,47,12,0,0,0,21,"[0, 6, 21]",3,8,"[1, 3, 5, 9, 11, 15, 17, 18]",131.7534645,6866,3685,2,8,7,1.0284586776415474
undo,47,12,0,0,0,18,"[0, 6, 21, 18]",4,7,"[1, 3, 5, 9, 11, 15, 17]",115.4746439,7456,590,1,4,7,1.2294861824177323
undo,47,12,0,0,0,15,"[0, 6, 21, 18, 15]",5,3,"[1, 11, 17]",61.71592369,8791,1335,1,2,7,1.2610447610821491
undo,47,12,0,0,0,17,"[0, 6, 21, 18, 15, 17]",6,1,[11],45.22350118,9520,729,1,0,7,1.3054480077975943
undo,47,12,0,0,1,11,"[0, 6, 21, 18, 15, 17, 11]",7,0,[],1.80691449,10863,1343,1,0,7,1.250398137790006
undo,47,12,0,1,1,11,"[0, 6, 21, 18, 15, 17, 11]",7,0,[],1.80691449,22154,11291,1,0,7,1.250398137790006
undo,48,34,0,0,0,0,[0],1,25,"[1, 3, 4, 5, 6, 7, 8, 9, 10, 11, 12, 13, 15, 18, 19, 20, 21, 22, 23, 24, 25, 26, 27, 28, 29]",300,10,-1,12,367,10,0.0
undo,48,34,0,0,0,13,"[0, 13]",2,24,"[1, 3, 4, 5, 6, 7, 8, 9, 10, 11, 12, 15, 18, 19, 20, 21, 22, 23, 24, 25, 26, 27, 28, 29]",279.9750156,5065,5055,12,331,10,1.0
undo,48,34,0,0,0,1,"[0, 13, 1]",3,16,"[3, 5, 7, 8, 9, 10, 11, 12, 19, 21, 22, 23, 24, 25, 27, 29]",211.8574701,6098,1033,3,92,10,1.0010381285747127
undo,48,34,0,0,0,8,"[0, 13, 1, 8]",4,14,"[3, 5, 7, 9, 10, 11, 12, 19, 22, 23, 24, 25, 27, 29]",201.0871405,7285,1187,2,54,10,1.1636807
undo,48,34,0,0,0,25,"[0, 13, 1, 8, 25]",5,12,"[3, 5, 7, 9, 10, 11, 12, 22, 23, 24, 27, 29]",183.999133,8158,873,2,28,10,1.1396208815936457
undo,48,34,0,0,0,24,"[0, 13, 1, 8, 25, 24]",6,11,"[3, 5, 7, 9, 10, 11, 12, 22, 23, 27, 29]",166.5062774,9036,878,2,23,10,1.374180768736554
undo,48,34,0,0,0,12,"[0, 13, 1, 8, 25, 24, 12]",7,7,"[7, 9, 10, 11, 22, 23, 27]",115.4670767,11564,2528,1,8,10,1.4994254760835948
undo,48,34,0,0,0,7,"[0, 13, 1, 8, 25, 24, 12, 7]",8,5,"[9, 11, 22, 23, 27]",100.4337804,13127,1563,1,4,10,1.758992610425009
undo,48,34,0,0,0,23,"[0, 13, 1, 8, 25, 24, 12, 7, 23]",9,1,[27],72.27352467,13871,744,1,0,10,2.399781305190153
undo,48,34,0,0,1,27,"[0, 13, 1, 8, 25, 24, 12, 7, 23, 27]",10,0,[],18.60789321,15192,1321,1,0,10,4.766619878750327
undo,48,34,0,1,1,27,"[0, 13, 1, 8, 25, 24, 12, 7, 23, 27]",10,0,[],18.60789321,16372,1180,1,0,10,4.766619878750327
undo,49,9,0,0,0,0,[0],1,27,"[1, 3, 4, 5, 6, 7, 8, 9, 10, 11, 13, 14, 15, 16, 17, 18, 19, 20, 21, 22, 23, 24, 25, 26, 27, 28, 29]",300,10,-1,2,182,10,0.0
undo,49,9,0,0,0,9,"[0, 9]",2,26,"[1, 3, 4, 5, 6, 7, 8, 10, 11, 13, 14, 15, 16, 17, 18, 19, 20, 21, 22, 23, 24, 25, 26, 27, 28, 29]",225.5352432,13520,13510,2,101,9,1.0
undo,49,9,0,0,0,23,"[0, 9, 23]",3,22,"[1, 3, 4, 5, 7, 8, 10, 11, 13, 15, 16, 17, 18, 19, 20, 21, 22, 24, 25, 26, 27, 28]",203.1745635,15305,1785,2,70,9,1.6262276606762436
undo,49,9,0,0,0,8,"[0, 9, 23, 8]",4,18,"[3, 4, 5, 7, 10, 11, 15, 16, 17, 18, 19, 20, 21, 22, 25, 26, 27, 28]",181.7036529,16625,1320,1,36,9,1.8547307061753238
undo,49,9,0,0,0,28,"[0, 9, 23, 8, 28]",5,17,"[3, 4, 5, 7, 10, 11, 15, 16, 17, 18, 19, 20, 21, 22, 25, 26, 27]",170.8869991,17788,1163,1,23,9,1.7382749966569708
undo,49,9,0,0,0,26,"[0, 9, 23, 8, 28, 26]",6,10,"[3, 5, 10, 15, 16, 18, 19, 20, 21, 25]",126.1097727,19410,1622,4,7,8,1.4884719959249546
undo,49,9,0,0,0,21,"[0, 9, 23, 8, 28, 26, 21]",7,1,[20],72.20244484,21051,1641,1,0,8,1.9218119811471304
undo,49,9,0,0,1,20,"[0, 9, 23, 8, 28, 26, 21, 20]",8,0,[],60.11939886,21924,873,1,0,8,1.8940565724013747
undo,49,9,0,1,1,20,"[0, 9, 23, 8, 28, 26, 21, 20]",8,0,[],60.11939886,22951,1027,1,0,8,1.8940565724013747
undo,50,31,0,0,0,0,[0],1,27,"[1, 3, 4, 5, 6, 7, 8, 10, 11, 12, 13, 14, 15, 16, 17, 18, 19, 20, 21, 22, 23, 24, 25, 26, 27, 28, 29]",300,10,-1,2,87,10,0.0
undo,50,31,0,0,0,14,"[0, 14]",2,25,"[1, 3, 5, 6, 7, 8, 10, 11, 12, 13, 15, 16, 17, 18, 19, 20, 21, 22, 23, 24, 25, 26, 27, 28, 29]",263.861378,1788,1778,2,59,10,1.0
undo,50,31,0,0,0,27,"[0, 14, 27]",3,22,"[1, 3, 5, 6, 7, 8, 10, 11, 12, 13, 15, 16, 17, 18, 19, 20, 21, 22, 24, 25, 28, 29]",235.6833724,3133,1345,1,39,10,1.5881859159302467
undo,50,31,0,0,0,8,"[0, 14, 27, 8]",4,20,"[1, 3, 5, 6, 7, 10, 11, 12, 13, 16, 17, 18, 19, 20, 21, 22, 24, 25, 28, 29]",224.6380114,3873,740,1,36,10,2.1665048452331277
undo,50,31,0,0,0,17,"[0, 14, 27, 8, 17]",5,14,"[1, 5, 6, 7, 11, 12, 13, 16, 18, 19, 20, 22, 25, 28]",159.7380884,6656,2783,3,24,9,1.5495006890497531
undo,50,31,0,0,0,18,"[0, 14, 27, 8, 17, 18]",6,11,"[1, 5, 7, 11, 12, 13, 16, 19, 22, 25, 28]",130.5319247,9309,2653,2,9,9,2.632240879872327
undo,50,31,0,0,0,11,"[0, 14, 27, 8, 17, 18, 11]",7,4,"[5, 16, 25, 28]",95.6463976,10269,960,2,2,9,3.3379705974049787
undo,50,31,0,0,0,5,"[0, 14, 27, 8, 17, 18, 11, 5]",8,1,[28],51.96573826,12040,1771,1,0,9,2.827347216261714
undo,50,31,0,0,1,28,"[0, 14, 27, 8, 17, 18, 11, 5, 28]",9,0,[],31.74198985,12925,885,1,0,9,2.4992379710012815
undo,50,31,0,1,1,28,"[0, 14, 27, 8, 17, 18, 11, 5, 28]",9,0,[],31.74198985,13959,1034,1,0,9,2.4992379710012815
undo,51,21,0,0,0,0,[0],1,29,"[1, 2, 3, 4, 5, 6, 7, 8, 9, 10, 11, 12, 13, 14, 15, 16, 17, 18, 19, 20, 21, 22, 23, 24, 25, 26, 27, 28, 29]",300,12,-1,84,830,9,0.0
undo,51,21,0,0,0,23,"[0, 23]",2,23,"[1, 2, 3, 4, 6, 7, 8, 9, 10, 11, 12, 14, 15, 16, 17, 18, 20, 21, 22, 24, 25, 27, 29]",200.9798,13586,13574,24,160,8,1.0
undo,51,21,0,0,0,21,"[0, 23, 21]",3,16,"[1, 4, 6, 8, 9, 11, 14, 15, 16, 17, 18, 20, 22, 24, 25, 29]",171.3656143,14617,1031,10,44,8,1.4310387586520505
undo,51,21,0,0,0,14,"[0, 23, 21, 14]",4,11,"[4, 8, 9, 15, 16, 17, 18, 22, 24, 25, 29]",145.7531173,15643,1026,8,20,8,1.3466336988212053
undo,51,21,0,0,0,4,"[0, 23, 21, 14, 4]",5,8,"[8, 15, 16, 17, 18, 24, 25, 29]",131.6109817,16530,887,8,5,8,1.316503795019443
undo,51,21,0,0,0,16,"[0, 23, 21, 14, 4, 16]",6,3,"[8, 15, 24]",87.01277544,17702,1172,4,1,8,1.304903190600994
undo,51,21,0,0,0,8,"[0, 23, 21, 14, 4, 16, 8]",7,2,"[15, 24]",68.4117002,19363,1661,2,0,8,1.2782454249737218
undo,51,21,0,0,1,15,"[0, 23, 21, 14, 4, 16, 8, 15]",8,0,[],43.4117002,21273,1910,1,0,8,1.5241823425982104
undo,51,21,0,1,1,15,"[0, 23, 21, 14, 4, 16, 8, 15]",8,0,[],43.4117002,22307,1034,1,0,8,1.5241823425982104
undo,52,42,0,0,0,0,[0],1,29,"[1, 2, 3, 4, 5, 6, 7, 8, 9, 10, 11, 12, 13, 14, 15, 16, 17, 18, 19, 20, 21, 22, 23, 24, 25, 26, 27, 28, 29]",300,12,-1,16,302,9,0.0
undo,52,42,0,0,0,5,"[0, 5]",2,28,"[1, 2, 3, 4, 6, 7, 8, 9, 10, 11, 12, 13, 14, 15, 16, 17, 18, 19, 20, 21, 22, 23, 24, 25, 26, 27, 28, 29]",191.2939744,3516,3504,1,22,9,1.0
undo,52,42,0,0,0,4,"[0, 5, 4]",3,23,"[1, 2, 3, 6, 7, 8, 9, 10, 11, 13, 15, 17, 18, 19, 20, 21, 22, 23, 24, 25, 26, 27, 29]",171.4445412,4399,883,1,14,9,1.420957801478707
undo,52,42,0,0,0,22,"[0, 5, 4, 22]",4,20,"[1, 2, 3, 6, 7, 8, 9, 11, 15, 17, 18, 19, 20, 21, 23, 24, 25, 26, 27, 29]",160.2642013,7998,3599,1,11,9,1.5771494659680896
undo,52,42,0,0,0,8,"[0, 5, 4, 22, 8]",5,14,"[1, 2, 3, 6, 7, 11, 15, 18, 19, 24, 25, 26, 27, 29]",138.1282577,9885,1887,1,10,9,1.5055393955524201
undo,52,42,0,0,0,1,"[0, 5, 4, 22, 8, 1]",6,5,"[2, 7, 19, 26, 27]",89.03650682,10914,1029,1,7,9,1.3547259083637835
undo,52,42,0,0,0,7,"[0, 5, 4, 22, 8, 1, 7]",7,4,"[2, 19, 26, 27]",59.03650682,13702,2788,1,3,9,1.3909715672447451
undo,52,42,0,0,0,26,"[0, 5, 4, 22, 8, 1, 7, 26]",8,1,[27],32.46584631,15191,1489,1,0,9,1.3511825943939393
undo,52,42,0,0,1,27,"[0, 5, 4, 22, 8, 1, 7, 26, 27]",9,0,[],14.43808994,16067,876,1,0,9,1.3391911688802078
undo,52,42,0,1,1,27,"[0, 5, 4, 22, 8, 1, 7, 26, 27]",9,0,[],14.43808994,17115,1048,1,0,9,1.3391911688802078
undo,53,14,0,0,0,0,[0],1,29,"[1, 2, 3, 4, 5, 6, 7, 8, 9, 10, 11, 12, 13, 14, 15, 16, 17, 18, 19, 20, 21, 22, 23, 24, 25, 26, 27, 28, 29]",300,12,-1,8,157,10,0.0
undo,53,14,0,0,0,18,"[0, 18]",2,17,"[1, 2, 3, 4, 7, 8, 9, 13, 15, 17, 19, 20, 22, 23, 25, 26, 28]",179.8958785,4757,4745,18,136,9,1.0
undo,53,14,0,0,0,8,"[0, 18, 8]",3,13,"[1, 2, 4, 7, 13, 15, 17, 19, 20, 23, 25, 26, 28]",166.294408,6809,2052,18,99,9,1.0203858410107731
undo,53,14,0,0,0,1,"[0, 18, 8, 1]",4,10,"[2, 4, 7, 15, 17, 19, 23, 25, 26, 28]",142.6935606,8286,1477,11,42,9,1.0173392374431458
undo,53,14,0,0,0,19,"[0, 18, 8, 1, 19]",5,9,"[2, 4, 7, 15, 17, 23, 25, 26, 28]",127.4620143,9936,1650,11,22,9,1.1668364376922102
undo,53,14,0,0,0,25,"[0, 18, 8, 1, 19, 25]",6,5,"[2, 4, 7, 23, 26]",91.61511768,13004,3068,5,7,9,1.273103293863789
undo,53,14,0,0,0,7,"[0, 18, 8, 1, 19, 25, 7]",7,4,"[2, 4, 23, 26]",71.91740208,16538,3534,2,2,9,1.3059971565497175
undo,53,14,0,0,0,23,"[0, 18, 8, 1, 19, 25, 7, 23]",8,1,[26],34.80945145,18738,2200,1,0,9,1.4108075818506876
undo,53,14,0,0,1,26,"[0, 18, 8, 1, 19, 25, 7, 23, 26]",9,0,[],23.99279762,19621,883,1,0,9,1.3911752305399343
undo,53,14,0,1,1,26,"[0, 18, 8, 1, 19, 25, 7, 23, 26]",9,0,[],23.99279762,23170,3549,1,0,9,1.3911752305399343
undo,54,4,0,0,0,0,[0],1,26,"[3, 4, 5, 6, 7, 8, 10, 11, 12, 13, 14, 15, 16, 17, 18, 19, 20, 21, 22, 23, 24, 25, 26, 27, 28, 29]",300,13,-1,4,489,10,0.0
undo,54,4,0,0,0,28,"[0, 28]",2,21,"[3, 4, 5, 6, 10, 11, 12, 13, 14, 15, 16, 17, 19, 20, 21, 22, 23, 24, 25, 26, 27]",225.9392142,3062,3049,2,216,10,1.0
undo,54,4,0,0,0,14,"[0, 28, 14]",3,13,"[3, 4, 5, 6, 11, 13, 16, 17, 20, 21, 22, 24, 25]",159.6972335,5506,2444,1,26,10,1.0273973946789214
undo,54,4,0,0,0,25,"[0, 28, 14, 25]",4,12,"[3, 4, 5, 6, 11, 13, 16, 17, 20, 21, 22, 24]",143.572718,6240,734,1,25,10,1.233547772313525
undo,54,4,0,0,0,11,"[0, 28, 14, 25, 11]",5,10,"[3, 4, 5, 6, 13, 16, 17, 20, 21, 22]",124.7844238,7264,1024,1,15,10,1.425978575879479
undo,54,4,0,0,0,16,"[0, 28, 14, 25, 11, 16]",6,9,"[3, 4, 5, 6, 13, 17, 20, 21, 22]",109.7844238,9318,2054,1,12,10,1.3799325158051412
undo,54,4,0,0,0,21,"[0, 28, 14, 25, 11, 16, 21]",7,4,"[5, 17, 20, 22]",65.58035157,10815,1497,3,3,9,1.5860540591673642
undo,54,4,0,0,0,22,"[0, 28, 14, 25, 11, 16, 21, 22]",8,3,"[5, 17, 20]",54.53499056,12281,1466,3,0,9,1.5471132483772176
undo,54,4,0,0,1,20,"[0, 28, 14, 25, 11, 16, 21, 22, 20]",9,0,[],24.30255764,13463,1182,1,0,9,1.5087977616865345
undo,54,4,0,1,1,20,"[0, 28, 14, 25, 11, 16, 21, 22, 20]",9,0,[],24.30255764,15080,1617,1,0,9,1.5087977616865345
undo,55,29,0,0,0,0,[0],1,29,"[1, 2, 3, 4, 5, 6, 7, 8, 9, 10, 11, 12, 13, 14, 15, 16, 17, 18, 19, 20, 21, 22, 23, 24, 25, 26, 27, 28, 29]",300,11,-1,1,78,9,0.0
undo,55,29,0,0,0,14,"[0, 14]",2,22,"[1, 3, 4, 5, 6, 7, 9, 10, 11, 12, 13, 15, 16, 17, 21, 22, 23, 25, 26, 27, 28, 29]",209.490332,2421,2410,21,110,8,1.0
undo,55,29,0,0,0,13,"[0, 14, 13]",3,18,"[1, 4, 5, 6, 7, 9, 10, 12, 15, 16, 17, 21, 22, 25, 26, 27, 28, 29]",191.4625756,3300,879,20,75,8,1.0027006502223275
undo,55,29,0,0,0,5,"[0, 14, 13, 5]",4,15,"[1, 4, 6, 7, 9, 12, 15, 17, 21, 22, 25, 26, 27, 28, 29]",165.7526554,4036,736,19,49,8,1.0803937325657265
undo,55,29,0,0,0,22,"[0, 14, 13, 5, 22]",5,9,"[4, 6, 7, 9, 12, 26, 27, 28, 29]",111.4111427,4919,883,7,11,8,1.6123417790752979
undo,55,29,0,0,0,12,"[0, 14, 13, 5, 22, 12]",6,4,"[4, 7, 9, 27]",73.46381077,7292,2373,3,2,8,1.4673990517096682
undo,55,29,0,0,0,7,"[0, 14, 13, 5, 22, 12, 7]",7,2,"[4, 9]",59.86234026,8177,885,2,0,8,1.4602419147831445
undo,55,29,0,0,1,9,"[0, 14, 13, 5, 22, 12, 7, 9]",8,0,[],30.79345655,9647,1470,1,0,8,1.4259709280459159
undo,55,29,0,1,1,9,"[0, 14, 13, 5, 22, 12, 7, 9]",8,0,[],30.79345655,12297,2650,1,0,8,1.4259709280459159
undo,56,6,0,0,0,0,[0],1,29,"[1, 2, 3, 4, 5, 6, 7, 8, 9, 10, 11, 12, 13, 14, 15, 16, 17, 18, 19, 20, 21, 22, 23, 24, 25, 26, 27, 28, 29]",300,10,-1,180,4304,10,0.0
undo,56,6,0,0,0,13,"[0, 13]",2,27,"[1, 2, 3, 4, 5, 6, 7, 8, 9, 10, 11, 12, 14, 15, 16, 17, 18, 19, 20, 21, 22, 23, 24, 25, 26, 27, 29]",266.8941093,6669,6659,12,596,10,1.0
undo,56,6,0,0,0,26,"[0, 13, 26]",3,16,"[1, 2, 3, 6, 7, 8, 9, 10, 16, 17, 18, 21, 22, 23, 24, 29]",187.6855239,8787,2118,4,77,10,2.258062133886512
undo,56,6,0,0,0,7,"[0, 13, 26, 7]",4,14,"[1, 2, 3, 6, 8, 9, 10, 16, 17, 18, 22, 23, 24, 29]",163.6023347,10274,1487,3,60,10,2.8403854883018265
undo,56,6,0,0,0,3,"[0, 13, 26, 7, 3]",5,9,"[1, 2, 10, 16, 17, 18, 23, 24, 29]",127.4637127,11639,1365,3,36,10,5.146325991010924
undo,56,6,0,0,0,16,"[0, 13, 26, 7, 3, 16]",6,6,"[10, 17, 18, 23, 24, 29]",81.22520065,14510,2871,2,6,10,3.03094763028817
undo,56,6,0,0,0,18,"[0, 13, 26, 7, 3, 16, 18]",7,3,"[10, 17, 24]",57.87996559,15969,1459,2,3,10,3.975596598027174
undo,56,6,0,0,0,17,"[0, 13, 26, 7, 3, 16, 18, 17]",8,2,"[10, 24]",43.95157731,17590,1621,2,0,10,3.627971226213995
undo,56,6,0,0,0,10,"[0, 13, 26, 7, 3, 16, 18, 17, 10]",9,1,[24],24.22849439,19390,1800,1,0,10,3.269583701378721
undo,56,6,0,0,1,24,"[0, 13, 26, 7, 3, 16, 18, 17, 10, 24]",10,0,[],10.81208652,20578,1188,1,0,10,2.972329061342808
undo,56,6,0,1,1,24,"[0, 13, 26, 7, 3, 16, 18, 17, 10, 24]",10,0,[],10.81208652,21800,1222,1,0,10,2.972329061342808
undo,57,18,0,0,0,0,[0],1,28,"[1, 2, 3, 4, 5, 6, 7, 8, 9, 10, 11, 12, 13, 14, 16, 17, 18, 19, 20, 21, 22, 23, 24, 25, 26, 27, 28, 29]",300,11,-1,3,136,10,0.0
undo,57,18,0,0,0,28,"[0, 28]",2,16,"[1, 3, 5, 7, 8, 9, 12, 13, 14, 16, 20, 23, 24, 25, 26, 27]",236.4311397,2982,2971,2,19,10,1.0
undo,57,18,0,0,0,7,"[0, 28, 7]",3,15,"[1, 3, 5, 8, 9, 12, 13, 14, 16, 20, 23, 24, 25, 26, 27]",214.4084242,4450,1468,2,17,10,1.4345180696367563
undo,57,18,0,0,0,25,"[0, 28, 7, 25]",4,13,"[1, 3, 5, 8, 9, 12, 13, 14, 16, 20, 23, 26, 27]",186.6055466,5183,733,2,15,10,1.8896451241781882
undo,57,18,0,0,0,13,"[0, 28, 7, 25, 13]",5,10,"[3, 5, 8, 9, 12, 14, 16, 23, 26, 27]",141.3286209,6068,885,5,21,9,1.6878978848273398
undo,57,18,0,0,0,8,"[0, 28, 7, 25, 13, 8]",6,8,"[3, 5, 9, 12, 14, 23, 26, 27]",120.2335978,6953,885,2,9,9,1.900402263134541
undo,57,18,0,0,0,14,"[0, 28, 7, 25, 13, 8, 14]",7,4,"[3, 5, 12, 27]",86.63300257,7979,1026,4,0,8,1.903166929752216
undo,57,18,0,0,1,3,"[0, 28, 7, 25, 13, 8, 14, 3]",8,0,[],56.54978466,8730,751,1,0,8,1.9893548054599768
undo,57,18,0,1,1,3,"[0, 28, 7, 25, 13, 8, 14, 3]",8,0,[],56.54978466,9776,1046,1,0,8,1.9893548054599768
undo,58,10,0,0,0,0,[0],1,29,"[1, 2, 3, 4, 5, 6, 7, 8, 9, 10, 11, 12, 13, 14, 15, 16, 17, 18, 19, 20, 21, 22, 23, 24, 25, 26, 27, 28, 29]",300,10,-1,1,100,9,0.0
undo,58,10,0,0,0,13,"[0, 13]",2,25,"[1, 2, 3, 4, 6, 7, 8, 9, 10, 11, 12, 14, 17, 18, 19, 20, 21, 22, 23, 24, 25, 26, 27, 28, 29]",249.4628849,2711,2701,1,79,9,1.0
undo,58,10,0,0,0,11,"[0, 13, 11]",3,20,"[1, 2, 3, 6, 7, 8, 9, 10, 12, 14, 18, 19, 20, 21, 22, 24, 26, 27, 28, 29]",206.4512586,5381,2670,1,54,9,1.0313137484914219
undo,58,10,0,0,0,19,"[0, 13, 11, 19]",4,11,"[2, 6, 8, 9, 10, 14, 18, 20, 24, 26, 27]",170.0919407,6697,1316,1,22,9,1.0879446220132545
undo,58,10,0,0,0,2,"[0, 13, 11, 19, 2]",5,4,"[14, 20, 26, 27]",126.1829439,8753,2056,1,4,9,1.06474052351343
undo,58,10,0,0,0,14,"[0, 13, 11, 19, 2, 14]",6,3,"[20, 26, 27]",114.0174188,10233,1480,1,3,9,1.1628909195912238
undo,58,10,0,0,0,26,"[0, 13, 11, 19, 2, 14, 26]",7,2,"[20, 27]",79.34754716,11425,1192,1,1,9,1.6660727647633602
undo,58,10,0,0,0,20,"[0, 13, 11, 19, 2, 14, 26, 20]",8,1,[27],47.56704999,12897,1472,1,0,9,2.085581809637999
undo,58,10,0,0,1,27,"[0, 13, 11, 19, 2, 14, 26, 20, 27]",9,0,[],2.312215998,15728,2831,1,0,9,1.9116357409137932
undo,58,10,0,1,1,27,"[0, 13, 11, 19, 2, 14, 26, 20, 27]",9,0,[],2.312215998,18904,3176,1,0,9,1.9116357409137932
undo,59,19,0,0,0,0,[0],1,29,"[1, 2, 3, 4, 5, 6, 7, 8, 9, 10, 11, 12, 13, 14, 15, 16, 17, 18, 19, 20, 21, 22, 23, 24, 25, 26, 27, 28, 29]",300,11,-1,12,149,8,0.0
undo,59,19,0,0,0,29,"[0, 29]",2,28,"[1, 2, 3, 4, 5, 6, 7, 8, 9, 10, 11, 12, 13, 14, 15, 16, 17, 18, 19, 20, 21, 22, 23, 24, 25, 26, 27, 28]",265.0715016,3667,3656,12,120,8,1.0
undo,59,19,0,0,0,9,"[0, 29, 9]",3,17,"[1, 4, 5, 6, 7, 10, 11, 12, 13, 14, 19, 20, 21, 22, 24, 27, 28]",181.7108394,5578,1911,11,65,8,1.0375842971861238
undo,59,19,0,0,0,6,"[0, 29, 9, 6]",4,12,"[4, 7, 10, 11, 13, 14, 20, 21, 22, 24, 27, 28]",140.2741407,8095,2517,11,34,8,1.0389786364356892
undo,59,19,0,0,0,28,"[0, 29, 9, 6, 28]",5,5,"[4, 11, 14, 22, 27]",89.18598161,9588,1493,2,4,8,1.2864082671854424
undo,59,19,0,0,0,4,"[0, 29, 9, 6, 28, 4]",6,4,"[11, 14, 22, 27]",78.00564173,11076,1488,2,2,8,1.3470045407445053
undo,59,19,0,0,0,14,"[0, 29, 9, 6, 28, 4, 14]",7,1,[11],27.99564273,12686,1610,1,0,8,1.3006971582050546
undo,59,19,0,0,1,11,"[0, 29, 9, 6, 28, 4, 14, 11]",8,0,[],17.1789889,13719,1033,1,0,8,1.289914895833058
undo,59,19,0,1,1,11,"[0, 29, 9, 6, 28, 4, 14, 11]",8,0,[],17.1789889,15050,1331,1,0,8,1.289914895833058
undo,60,45,0,0,0,0,[0],1,24,"[1, 2, 3, 4, 5, 6, 7, 9, 10, 11, 12, 14, 15, 16, 17, 19, 20, 21, 22, 23, 24, 25, 27, 29]",300,10,-1,6,248,10,0.0
undo,60,45,0,0,0,15,"[0, 15]",2,23,"[1, 2, 3, 4, 5, 6, 7, 9, 10, 11, 12, 14, 16, 17, 19, 20, 21, 22, 23, 24, 25, 27, 29]",253.9022777,1465,1455,5,207,10,1.0
undo,60,45,0,0,0,23,"[0, 15, 23]",3,22,"[1, 2, 3, 4, 5, 6, 7, 9, 10, 11, 12, 14, 16, 17, 19, 20, 21, 22, 24, 25, 27, 29]",230.3014303,3101,1636,5,163,10,1.0006068457769497
undo,60,45,0,0,0,20,"[0, 15, 23, 20]",4,19,"[1, 2, 3, 5, 6, 7, 9, 10, 11, 12, 14, 16, 17, 19, 21, 22, 24, 25, 29]",188.8647316,4630,1529,5,137,10,1.2062119754673604
undo,60,45,0,0,0,7,"[0, 15, 23, 20, 7]",5,14,"[2, 3, 5, 6, 9, 10, 12, 14, 17, 19, 21, 22, 24, 29]",137.2410936,5506,876,3,38,10,1.2267717168083891
undo,60,45,0,0,0,2,"[0, 15, 23, 20, 7, 2]",6,8,"[3, 6, 10, 12, 19, 22, 24, 29]",99.22793795,6552,1046,3,20,10,1.1978549169009853
undo,60,45,0,0,0,3,"[0, 15, 23, 20, 7, 2, 3]",7,5,"[6, 10, 12, 22, 29]",73.90996014,7445,893,2,7,10,1.2603420042999722
undo,60,45,0,0,0,29,"[0, 15, 23, 20, 7, 2, 3, 29]",8,3,"[6, 10, 12]",53.90996014,8178,733,2,1,10,1.527949676112761
undo,60,45,0,0,0,10,"[0, 15, 23, 20, 7, 2, 3, 29, 10]",9,1,[6],32.36930092,8914,736,1,0,10,1.8188082660591487
undo,60,45,0,0,1,6,"[0, 15, 23, 20, 7, 2, 3, 29, 10, 6]",10,0,[],6.120491419,10522,1608,1,0,10,1.7062675391073039
undo,60,45,0,1,1,6,"[0, 15, 23, 20, 7, 2, 3, 29, 10, 6]",10,0,[],6.120491419,11548,1026,1,0,10,1.7062675391073039
undo,61,17,0,0,0,0,[0],1,28,"[1, 2, 3, 4, 5, 6, 7, 8, 9, 10, 11, 12, 13, 14, 15, 16, 17, 18, 19, 20, 22, 23, 24, 25, 26, 27, 28, 29]",300,10,-1,2,73,8,0.0
undo,61,17,0,0,0,9,"[0, 9]",2,25,"[1, 2, 3, 5, 6, 7, 8, 10, 11, 12, 14, 15, 16, 17, 18, 19, 20, 22, 23, 24, 25, 26, 27, 28, 29]",210.5293344,4326,4316,1,34,8,1.0
undo,61,17,0,0,0,16,"[0, 9, 16]",3,21,"[1, 2, 3, 5, 7, 8, 10, 11, 12, 14, 17, 18, 19, 20, 22, 23, 25, 26, 27, 28, 29]",197.1876704,5207,881,1,26,8,1.173103464220352
undo,61,17,0,0,0,2,"[0, 9, 16, 2]",4,18,"[1, 3, 5, 7, 8, 10, 11, 12, 14, 17, 18, 19, 23, 25, 26, 27, 28, 29]",181.0631549,6145,938,1,23,8,1.14825089247282
undo,61,17,0,0,0,17,"[0, 9, 16, 2, 17]",5,7,"[7, 8, 12, 14, 26, 27, 29]",142.7356191,7236,1091,4,5,7,1.4896040699768547
undo,61,17,0,0,0,8,"[0, 9, 16, 2, 17, 8]",6,3,"[7, 12, 27]",104.5256727,8563,1327,3,0,7,1.4604726966175894
undo,61,17,0,0,1,7,"[0, 9, 16, 2, 17, 8, 7]",7,0,[],33.81499459,9878,1315,1,0,7,1.4474701869793896
undo,61,17,0,1,1,7,"[0, 9, 16, 2, 17, 8, 7]",7,0,[],33.81499459,11210,1332,1,0,7,1.4474701869793896
undo,62,22,0,0,0,0,[0],1,29,"[1, 2, 3, 4, 5, 6, 7, 8, 9, 10, 11, 12, 13, 14, 15, 16, 17, 18, 19, 20, 21, 22, 23, 24, 25, 26, 27, 28, 29]",300,330,-1,31,704,9,0.0
undo,62,22,0,0,0,16,"[0, 16]",2,21,"[1, 3, 6, 7, 8, 9, 11, 13, 14, 15, 17, 18, 19, 20, 21, 22, 24, 25, 27, 28, 29]",218.605897,2078,1748,17,147,9,1.0
undo,62,22,0,0,0,28,"[0, 16, 28]",3,13,"[6, 7, 9, 13, 14, 17, 19, 20, 21, 22, 24, 25, 29]",184.1675463,3253,1175,12,61,9,1.047282311284478
undo,62,22,0,0,0,6,"[0, 16, 28, 6]",4,12,"[7, 9, 13, 14, 17, 19, 20, 21, 22, 24, 25, 29]",154.1675463,4873,1620,12,43,9,1.645645870580622
undo,62,22,0,0,0,9,"[0, 16, 28, 6, 9]",5,8,"[7, 14, 17, 19, 20, 21, 24, 29]",127.5404924,5779,906,8,17,9,1.925750226630103
undo,62,22,0,0,0,19,"[0, 16, 28, 6, 9, 19]",6,6,"[7, 14, 17, 21, 24, 29]",107.1444143,9297,3518,3,7,9,2.4220750331476455
undo,62,22,0,0,0,29,"[0, 16, 28, 6, 9, 19, 29]",7,4,"[7, 14, 17, 24]",92.11111796,9891,594,2,2,9,2.6996279574991067
undo,62,22,0,0,0,14,"[0, 16, 28, 6, 9, 19, 29, 14]",8,1,[7],33.86165444,11334,1443,1,0,9,2.0544639927929462
undo,62,22,0,0,1,7,"[0, 16, 28, 6, 9, 19, 29, 14, 7]",9,0,[],20.82324963,12384,1050,1,0,9,2.219817088951114
undo,62,22,0,1,1,7,"[0, 16, 28, 6, 9, 19, 29, 14, 7]",9,0,[],20.82324963,13272,888,1,0,9,2.219817088951114
undo,63,38,0,0,0,0,[0],1,29,"[1, 2, 3, 4, 5, 6, 7, 8, 9, 10, 11, 12, 13, 14, 15, 16, 17, 18, 19, 20, 21, 22, 23, 24, 25, 26, 27, 28, 29]",300,10,-1,33,506,9,0.0
undo,63,38,0,0,0,19,"[0, 19]",2,23,"[3, 4, 5, 6, 7, 8, 9, 11, 13, 14, 15, 16, 17, 18, 20, 22, 23, 24, 25, 26, 27, 28, 29]",219.5015528,2221,2211,6,61,9,1.0
undo,63,38,0,0,0,17,"[0, 19, 17]",3,21,"[3, 4, 5, 6, 7, 9, 11, 13, 14, 15, 16, 18, 20, 22, 23, 24, 25, 26, 27, 28, 29]",198.1239945,2955,734,6,53,9,1.571793785769489
undo,63,38,0,0,0,20,"[0, 19, 17, 20]",4,17,"[3, 4, 5, 6, 7, 11, 13, 14, 15, 16, 18, 22, 24, 25, 26, 27, 28]",174.3542658,4885,1930,6,44,9,2.333182710277297
undo,63,38,0,0,0,4,"[0, 19, 17, 20, 4]",5,10,"[5, 11, 13, 14, 15, 16, 24, 26, 27, 28]",140.4131403,6515,1630,5,22,9,2.276099229646013
undo,63,38,0,0,0,15,"[0, 19, 17, 20, 4, 15]",6,8,"[5, 11, 13, 14, 16, 24, 26, 28]",114.4131403,7836,1321,5,6,9,2.5292671156176403
undo,63,38,0,0,0,11,"[0, 19, 17, 20, 4, 15, 11]",7,2,"[16, 28]",78.01259089,9925,2089,2,0,9,2.778100109749787
undo,63,38,0,0,0,28,"[0, 19, 17, 20, 4, 15, 11, 28]",8,1,[16],50.99407872,11751,1826,1,0,9,2.3316428595723258
undo,63,38,0,0,1,16,"[0, 19, 17, 20, 4, 15, 11, 28, 16]",9,0,[],21.99407872,12779,1028,1,0,9,2.5408012360364265
undo,63,38,0,1,1,16,"[0, 19, 17, 20, 4, 15, 11, 28, 16]",9,0,[],21.99407872,13800,1021,1,0,9,2.5408012360364265
undo,64,20,0,0,0,0,[0],1,21,"[1, 2, 3, 4, 5, 6, 7, 8, 9, 12, 17, 18, 20, 21, 22, 23, 25, 26, 27, 28, 29]",300,10,-1,1,9,9,0.0
undo,64,20,0,0,0,12,"[0, 12]",2,20,"[1, 2, 3, 4, 5, 6, 7, 8, 9, 17, 18, 20, 21, 22, 23, 25, 26, 27, 28, 29]",271.5570747,2569,2559,1,8,9,1.0
undo,64,20,0,0,0,1,"[0, 12, 1]",3,12,"[3, 4, 5, 6, 8, 9, 20, 21, 23, 27, 28, 29]",189.5692707,4440,1871,1,6,9,1.0757997779162911
undo,64,20,0,0,0,5,"[0, 12, 1, 5]",4,10,"[4, 6, 8, 9, 20, 21, 23, 27, 28, 29]",152.8950291,5645,1205,1,5,9,1.1708231454516806
undo,64,20,0,0,0,21,"[0, 12, 1, 5, 21]",5,8,"[4, 6, 8, 9, 20, 23, 27, 28]",107.8950291,6977,1332,1,4,9,1.126197336199212
undo,64,20,0,0,0,8,"[0, 12, 1, 5, 21, 8]",6,5,"[6, 9, 23, 27, 28]",90.43077988,8030,1053,1,3,9,1.140007470699913
undo,64,20,0,0,0,23,"[0, 12, 1, 5, 21, 8, 23]",7,2,"[6, 9]",45.74297394,8919,889,1,1,9,1.1162257896627588
undo,64,20,0,0,0,9,"[0, 12, 1, 5, 21, 8, 23, 9]",8,1,[6],26.53360123,9655,736,1,0,9,1.1086880559449597
undo,64,20,0,0,1,6,"[0, 12, 1, 5, 21, 8, 23, 9, 6]",9,0,[],3.511872362,10828,1173,1,0,9,1.1186240265999328
undo,64,20,0,1,1,6,"[0, 12, 1, 5, 21, 8, 23, 9, 6]",9,0,[],3.511872362,11860,1032,1,0,9,1.1186240265999328
undo,65,32,0,0,0,0,[0],1,29,"[1, 2, 3, 4, 5, 6, 7, 8, 9, 10, 11, 12, 13, 14, 15, 16, 17, 18, 19, 20, 21, 22, 23, 24, 25, 26, 27, 28, 29]",300,10,-1,17,359,10,0.0
undo,65,32,0,0,0,19,"[0, 19]",2,28,"[1, 2, 3, 4, 5, 6, 7, 8, 9, 10, 11, 12, 13, 14, 15, 16, 17, 18, 20, 21, 22, 23, 24, 25, 26, 27, 28, 29]",283.5075775,2398,2388,16,294,10,1.0
undo,65,32,0,0,0,13,"[0, 19, 13]",3,24,"[2, 3, 4, 5, 6, 8, 9, 10, 11, 12, 14, 15, 16, 17, 18, 20, 21, 22, 23, 24, 25, 26, 27, 28]",260.3127505,2995,597,14,227,10,1.0172874229878615
undo,65,32,0,0,0,15,"[0, 19, 13, 15]",4,18,"[2, 3, 5, 8, 9, 10, 11, 12, 16, 17, 20, 22, 23, 24, 25, 26, 27, 28]",177.4393531,4321,1326,9,116,10,1.435447391509833
undo,65,32,0,0,0,28,"[0, 19, 13, 15, 28]",5,17,"[2, 3, 5, 8, 9, 10, 11, 12, 16, 17, 20, 22, 23, 24, 25, 26, 27]",166.0375988,5922,1601,9,70,10,1.3843701324937985
undo,65,32,0,0,0,12,"[0, 19, 13, 15, 28, 12]",6,14,"[2, 3, 5, 8, 9, 10, 11, 16, 17, 20, 22, 24, 26, 27]",147.0639329,6827,905,6,35,10,1.358372254952329
undo,65,32,0,0,0,16,"[0, 19, 13, 15, 28, 12, 16]",7,13,"[2, 3, 5, 8, 9, 10, 11, 17, 20, 22, 24, 26, 27]",131.411457,7626,799,5,15,10,1.4356932930709845
undo,65,32,0,0,0,22,"[0, 19, 13, 15, 28, 12, 16, 22]",8,6,"[2, 8, 9, 17, 20, 27]",97.57360838,9300,1674,3,5,10,1.4335226411545752
undo,65,32,0,0,0,9,"[0, 19, 13, 15, 28, 12, 16, 22, 9]",9,3,"[2, 8, 20]",75.37000507,10187,887,3,0,10,1.4837166378374758
undo,65,32,0,0,1,8,"[0, 19, 13, 15, 28, 12, 16, 22, 9, 8]",10,0,[],30.24794838,11212,1025,1,0,10,1.3767698817641267
undo,65,32,0,1,1,8,"[0, 19, 13, 15, 28, 12, 16, 22, 9, 8]",10,0,[],30.24794838,12098,886,1,0,10,1.3767698817641267
undo,66,7,0,0,0,0,[0],1,29,"[1, 2, 3, 4, 5, 6, 7, 8, 9, 10, 11, 12, 13, 14, 15, 16, 17, 18, 19, 20, 21, 22, 23, 24, 25, 26, 27, 28, 29]",300,10,-1,3,79,9,0.0
undo,66,7,0,0,0,15,"[0, 15]",2,19,"[2, 4, 5, 6, 7, 8, 9, 10, 13, 14, 16, 18, 19, 20, 21, 23, 25, 27, 28]",230.9348134,5182,5172,2,38,9,1.0
undo,66,7,0,0,0,6,"[0, 15, 6]",3,18,"[2, 4, 5, 7, 8, 9, 10, 13, 14, 16, 18, 19, 20, 21, 23, 25, 27, 28]",205.854941,6646,1464,2,36,9,1.366719602896943
undo,66,7,0,0,0,25,"[0, 15, 6, 25]",4,11,"[2, 4, 7, 13, 14, 16, 18, 19, 20, 21, 23]",138.6760753,8144,1498,2,28,9,1.3624631728355765
undo,66,7,0,0,0,4,"[0, 15, 6, 25, 4]",5,7,"[2, 7, 13, 16, 18, 19, 20]",113.9374415,9483,1339,2,12,9,1.3249684384385587
undo,66,7,0,0,0,20,"[0, 15, 6, 25, 4, 20]",6,5,"[2, 7, 13, 18, 19]",94.29055881,10365,882,1,6,9,1.3721893242679268
undo,66,7,0,0,0,18,"[0, 15, 6, 25, 4, 20, 18]",7,3,"[7, 13, 19]",81.48431034,11097,732,1,2,9,1.5262542308371432
undo,66,7,0,0,0,7,"[0, 15, 6, 25, 4, 20, 18, 7]",8,1,[19],40.25325408,11838,741,1,0,9,1.41986878673423
undo,66,7,0,0,1,19,"[0, 15, 6, 25, 4, 20, 18, 7, 19]",9,0,[],10.84237174,12716,878,1,0,9,1.5285658163212987
undo,66,7,0,1,1,19,"[0, 15, 6, 25, 4, 20, 18, 7, 19]",9,0,[],10.84237174,13762,1046,1,0,9,1.5285658163212987
undo,67,28,0,0,0,0,[0],1,27,"[1, 2, 3, 4, 5, 6, 7, 8, 9, 10, 11, 12, 13, 14, 15, 16, 17, 18, 19, 20, 22, 23, 25, 26, 27, 28, 29]",300,12,-1,2,96,9,0.0
undo,67,28,0,0,0,3,"[0, 3]",2,26,"[1, 2, 4, 5, 6, 7, 8, 9, 10, 11, 12, 13, 14, 15, 16, 17, 18, 19, 20, 22, 23, 25, 26, 27, 28, 29]",251.0817008,2392,2380,1,64,9,1.0
undo,67,28,0,0,0,5,"[0, 3, 5]",3,20,"[2, 4, 6, 7, 8, 9, 10, 11, 12, 13, 14, 15, 18, 19, 20, 23, 25, 26, 28, 29]",166.9865166,3862,1470,1,34,9,1.0203769473612083
undo,67,28,0,0,0,26,"[0, 3, 5, 26]",4,13,"[2, 4, 7, 8, 9, 12, 13, 14, 18, 19, 20, 25, 28]",134.2298379,6234,2372,1,28,9,1.0315203228799597
undo,67,28,0,0,0,19,"[0, 3, 5, 26, 19]",5,7,"[2, 7, 9, 12, 13, 14, 18]",93.22983789,9612,3378,1,17,9,1.1324645362297356
undo,67,28,0,0,0,7,"[0, 3, 5, 26, 19, 7]",6,5,"[2, 12, 13, 14, 18]",65.49898864,10638,1026,1,6,9,1.1971194919020265
undo,67,28,0,0,0,12,"[0, 3, 5, 26, 19, 7, 12]",7,2,"[13, 18]",52.3460422,11525,887,1,1,9,1.2020762147848982
undo,67,28,0,0,0,13,"[0, 3, 5, 26, 19, 7, 12, 13]",8,1,[18],35.14139167,14034,2509,1,0,9,1.39005144078531
undo,67,28,0,0,1,18,"[0, 3, 5, 26, 19, 7, 12, 13, 18]",9,0,[],10.72828044,14918,884,1,0,9,1.738787343626007
undo,67,28,0,1,1,18,"[0, 3, 5, 26, 19, 7, 12, 13, 18]",9,0,[],10.72828044,16095,1177,1,0,9,1.738787343626007
undo,68,25,0,0,0,0,[0],1,28,"[1, 2, 3, 4, 5, 7, 8, 9, 10, 11, 12, 13, 14, 15, 16, 17, 18, 19, 20, 21, 22, 23, 24, 25, 26, 27, 28, 29]",300,11,-1,5,94,10,0.0
undo,68,25,0,0,0,1,"[0, 1]",2,22,"[2, 3, 5, 7, 8, 9, 11, 12, 13, 14, 16, 17, 18, 19, 20, 21, 22, 23, 24, 25, 28, 29]",268.9516506,5746,5735,16,145,9,1.0
undo,68,25,0,0,0,23,"[0, 1, 23]",3,16,"[3, 5, 7, 8, 9, 11, 12, 13, 17, 19, 20, 21, 22, 24, 28, 29]",201.9441883,7846,2100,2,17,9,2.4377214593885763
undo,68,25,0,0,0,19,"[0, 1, 23, 19]",4,13,"[3, 5, 7, 9, 11, 12, 13, 17, 20, 21, 22, 24, 29]",166.0972917,8872,1026,2,9,9,2.7866177211778074
undo,68,25,0,0,0,29,"[0, 1, 23, 19, 29]",5,11,"[3, 5, 7, 9, 11, 12, 17, 20, 21, 22, 24]",149.8184711,9610,738,2,5,9,2.398074806984407
undo,68,25,0,0,0,22,"[0, 1, 23, 19, 29, 22]",6,10,"[3, 5, 7, 9, 11, 12, 17, 20, 21, 24]",133.6939556,10349,739,2,3,9,2.149511028553587
undo,68,25,0,0,0,7,"[0, 1, 23, 19, 29, 22, 7]",7,2,"[9, 24]",58.05005299,11690,1341,2,0,9,2.0644073196446207
undo,68,25,0,0,0,24,"[0, 1, 23, 19, 29, 22, 7, 24]",8,1,[9],33.29121618,12887,1197,1,0,9,1.8976704160590687
undo,68,25,0,0,1,9,"[0, 1, 23, 19, 29, 22, 7, 24, 9]",9,0,[],15.26345981,15122,2235,1,0,9,1.8239605425295298
undo,68,25,0,1,1,9,"[0, 1, 23, 19, 29, 22, 7, 24, 9]",9,0,[],15.26345981,17479,2357,1,0,9,1.8239605425295298
basic,69,30,0,0,0,0,[0],1,19,"[3, 4, 5, 7, 9, 11, 16, 17, 18, 19, 20, 21, 22, 24, 25, 26, 27, 28, 29]",300,349,-1,5,41,8,0.0
basic,69,30,0,0,0,16,"[0, 16]",2,17,"[3, 5, 7, 9, 11, 17, 18, 19, 20, 21, 22, 24, 25, 26, 27, 28, 29]",219.3774225,5259,4910,5,34,8,1.0
basic,69,30,0,0,0,25,"[0, 16, 25]",3,10,"[3, 5, 7, 9, 11, 18, 19, 20, 27, 29]",115.0845656,6580,1321,5,28,8,1.0336279544884488
basic,69,30,0,0,0,20,"[0, 16, 25, 20]",4,8,"[3, 5, 7, 9, 18, 19, 27, 29]",93.15285342,7606,1026,4,14,8,1.0337964627284246
basic,69,30,0,0,0,27,"[0, 16, 25, 20, 27]",5,4,"[3, 5, 18, 29]",59.09408069,8357,751,4,6,8,1.1504365534848
basic,69,30,0,0,0,3,"[0, 16, 25, 20, 27, 3]",6,3,"[5, 18, 29]",39.98910751,10134,1777,4,0,8,1.1403876826835333
basic,69,30,0,0,0,5,"[0, 16, 25, 20, 27, 3, 5]",7,1,[18],15.14962282,13823,3689,1,0,8,1.1779731652786363
basic,69,30,0,0,1,18,"[0, 16, 25, 20, 27, 3, 5, 18]",8,0,[],2.111218006,15617,1794,1,0,8,1.2196271502012654
basic,69,30,0,1,1,18,"[0, 16, 25, 20, 27, 3, 5, 18]",8,0,[],2.111218006,16650,1033,1,0,8,1.2196271502012654
basic,70,17,0,0,0,0,[0],1,28,"[1, 2, 3, 4, 5, 6, 7, 8, 9, 10, 11, 12, 13, 14, 15, 16, 17, 18, 19, 20, 22, 23, 24, 25, 26, 27, 28, 29]",300,10,-1,2,73,8,0.0
basic,70,17,0,0,0,9,"[0, 9]",2,25,"[1, 2, 3, 5, 6, 7, 8, 10, 11, 12, 14, 15, 16, 17, 18, 19, 20, 22, 23, 24, 25, 26, 27, 28, 29]",210.5293344,3219,3209,1,34,8,1.0
basic,70,17,0,0,0,16,"[0, 9, 16]",3,21,"[1, 2, 3, 5, 7, 8, 10, 11, 12, 14, 17, 18, 19, 20, 22, 23, 25, 26, 27, 28, 29]",197.1876704,6057,2838,1,26,8,1.173103464220352
basic,70,17,0,0,0,2,"[0, 9, 16, 2]",4,18,"[1, 3, 5, 7, 8, 10, 11, 12, 14, 17, 18, 19, 23, 25, 26, 27, 28, 29]",181.0631549,10043,3986,1,23,8,1.14825089247282
basic,70,17,0,0,0,17,"[0, 9, 16, 2, 17]",5,7,"[7, 8, 12, 14, 26, 27, 29]",142.7356191,11072,1029,4,5,7,1.4896040699768547
basic,70,17,0,0,0,8,"[0, 9, 16, 2, 17, 8]",6,3,"[7, 12, 27]",104.5256727,12256,1184,3,0,7,1.4604726966175894
basic,70,17,0,0,1,7,"[0, 9, 16, 2, 17, 8, 7]",7,0,[],33.81499459,14163,1907,1,0,7,1.4474701869793896
basic,70,17,0,1,1,7,"[0, 9, 16, 2, 17, 8, 7]",7,0,[],33.81499459,15227,1064,1,0,7,1.4474701869793896
basic,71,40,0,0,0,0,[0],1,29,"[1, 2, 3, 4, 5, 6, 7, 8, 9, 10, 11, 12, 13, 14, 15, 16, 17, 18, 19, 20, 21, 22, 23, 24, 25, 26, 27, 28, 29]",300,10,-1,8,191,9,0.0
basic,71,40,0,0,0,2,"[0, 2]",2,28,"[1, 3, 4, 5, 6, 7, 8, 9, 10, 11, 12, 13, 14, 15, 16, 17, 18, 19, 20, 21, 22, 23, 24, 25, 26, 27, 28, 29]",263.7646581,3176,3166,4,79,9,1.0
basic,71,40,0,0,0,1,"[0, 2, 1]",3,13,"[5, 6, 8, 9, 10, 13, 17, 18, 19, 21, 22, 23, 27]",197.9695215,4496,1320,3,32,9,1.9563451201211088
basic,71,40,0,0,0,6,"[0, 2, 1, 6]",4,10,"[5, 8, 9, 13, 17, 18, 19, 21, 22, 23]",177.8697703,6148,1652,3,29,9,1.767962123020631
basic,71,40,0,0,0,9,"[0, 2, 1, 6, 9]",5,6,"[5, 18, 19, 21, 22, 23]",109.2694788,8783,2635,1,5,9,1.5465201700077729
basic,71,40,0,0,0,18,"[0, 2, 1, 6, 9, 18]",6,5,"[5, 19, 21, 22, 23]",92.71653339,9514,731,1,3,9,1.7498663316327165
basic,71,40,0,0,0,5,"[0, 2, 1, 6, 9, 18, 5]",7,2,"[19, 23]",61.14122659,11007,1493,1,1,9,1.9421980158799246
basic,71,40,0,0,0,23,"[0, 2, 1, 6, 9, 18, 5, 23]",8,1,[19],32.83928319,12182,1175,1,0,9,2.816747234870858
basic,71,40,0,0,1,19,"[0, 2, 1, 6, 9, 18, 5, 23, 19]",9,0,[],0.886192572,13523,1341,1,0,9,2.915582996325632
basic,71,40,0,1,1,19,"[0, 2, 1, 6, 9, 18, 5, 23, 19]",9,0,[],0.886192572,14555,1032,1,0,9,2.915582996325632
basic,72,24,0,0,0,0,[0],1,29,"[1, 2, 3, 4, 5, 6, 7, 8, 9, 10, 11, 12, 13, 14, 15, 16, 17, 18, 19, 20, 21, 22, 23, 24, 25, 26, 27, 28, 29]",300,10,-1,4,76,10,0.0
basic,72,24,0,0,0,14,"[0, 14]",2,27,"[1, 2, 3, 4, 5, 6, 8, 9, 10, 11, 12, 13, 15, 16, 17, 18, 19, 20, 21, 22, 23, 24, 25, 26, 27, 28, 29]",278.0455016,2555,2545,4,54,10,1.0
basic,72,24,0,0,0,16,"[0, 14, 16]",3,25,"[2, 3, 4, 5, 6, 8, 9, 10, 11, 12, 13, 15, 17, 18, 19, 20, 21, 22, 23, 24, 25, 26, 27, 28, 29]",188.9949542,3903,1348,4,31,10,1.238291113657358
basic,72,24,0,0,0,8,"[0, 14, 16, 8]",4,17,"[2, 3, 4, 6, 9, 10, 11, 13, 15, 20, 22, 23, 24, 26, 27, 28, 29]",159.9949542,5972,2069,2,13,10,1.2714603293172921
basic,72,24,0,0,0,22,"[0, 14, 16, 8, 22]",5,13,"[3, 4, 6, 9, 10, 11, 15, 23, 24, 26, 27, 28, 29]",146.5785463,7002,1030,2,10,10,1.4558841300797367
basic,72,24,0,0,0,15,"[0, 14, 16, 8, 22, 15]",6,11,"[3, 4, 6, 9, 10, 11, 23, 26, 27, 28, 29]",125.3653429,8615,1613,2,8,10,1.459909027032803
basic,72,24,0,0,0,28,"[0, 14, 16, 8, 22, 15, 28]",7,5,"[4, 9, 11, 23, 27]",80.08841717,9960,1345,2,5,10,1.3358430839259279
basic,72,24,0,0,0,23,"[0, 14, 16, 8, 22, 15, 28, 23]",8,3,"[9, 11, 27]",61.06211957,10697,737,2,2,10,1.3561794364003306
basic,72,24,0,0,0,11,"[0, 14, 16, 8, 22, 15, 28, 23, 11]",9,2,"[9, 27]",34.13629554,11572,875,2,0,10,1.323606251450204
basic,72,24,0,0,1,9,"[0, 14, 16, 8, 22, 15, 28, 23, 11, 9]",10,0,[],1.887264546,13333,1761,1,0,10,1.4044121378284902
basic,72,24,0,1,1,9,"[0, 14, 16, 8, 22, 15, 28, 23, 11, 9]",10,0,[],1.887264546,14366,1033,1,0,10,1.4044121378284902
basic,73,36,0,0,0,0,[0],1,24,"[2, 4, 5, 6, 7, 8, 9, 10, 12, 13, 14, 15, 16, 17, 18, 19, 20, 22, 23, 25, 26, 27, 28, 29]",300,12,-1,2,200,10,0.0
basic,73,36,0,0,0,18,"[0, 18]",2,21,"[2, 4, 5, 6, 7, 8, 9, 10, 12, 13, 14, 16, 17, 19, 22, 23, 25, 26, 27, 28, 29]",279.6039219,1468,1456,2,110,10,1.0
basic,73,36,0,0,0,12,"[0, 18, 12]",3,19,"[2, 4, 5, 6, 7, 8, 9, 10, 13, 16, 17, 19, 22, 23, 25, 26, 27, 28, 29]",237.0245842,5454,3986,2,86,10,2.836270082716982
basic,73,36,0,0,0,9,"[0, 18, 12, 9]",4,9,"[2, 4, 10, 13, 16, 17, 19, 23, 25]",174.6627369,7385,1931,1,40,10,1.8147676024843966
basic,73,36,0,0,0,19,"[0, 18, 12, 9, 19]",5,8,"[2, 4, 10, 13, 16, 17, 23, 25]",159.529991,8419,1034,1,19,10,1.8224424970862618
basic,73,36,0,0,0,17,"[0, 18, 12, 9, 19, 17]",6,5,"[2, 10, 13, 16, 25]",131.6373396,9739,1320,8,5,9,1.7813412000990887
basic,73,36,0,0,0,2,"[0, 18, 12, 9, 19, 17, 2]",7,4,"[10, 13, 16, 25]",90.40628335,11351,1612,3,2,9,1.8559748166733026
basic,73,36,0,0,0,13,"[0, 18, 12, 9, 19, 17, 2, 13]",8,1,[25],52.07874756,12669,1318,1,0,9,2.527704031864608
basic,73,36,0,0,1,25,"[0, 18, 12, 9, 19, 17, 2, 13, 25]",9,0,[],31.48748728,13629,960,1,0,9,2.345288706885727
basic,73,36,0,1,1,25,"[0, 18, 12, 9, 19, 17, 2, 13, 25]",9,0,[],31.48748728,16211,2582,1,0,9,2.345288706885727
basic,74,8,0,0,0,0,[0],1,29,"[1, 2, 3, 4, 5, 6, 7, 8, 9, 10, 11, 12, 13, 14, 15, 16, 17, 18, 19, 20, 21, 22, 23, 24, 25, 26, 27, 28, 29]",300,10,-1,10,149,9,0.0
basic,74,8,0,0,0,6,"[0, 6]",2,28,"[1, 2, 3, 4, 5, 7, 8, 9, 10, 11, 12, 13, 14, 15, 16, 17, 18, 19, 20, 21, 22, 23, 24, 25, 26, 27, 28, 29]",257.8929935,2718,2708,12,179,8,1.0
basic,74,8,0,0,0,5,"[0, 6, 5]",3,19,"[1, 2, 3, 4, 11, 14, 15, 16, 17, 18, 19, 20, 21, 22, 23, 24, 25, 28, 29]",182.3019887,3921,1203,5,61,8,2.5875507680568495
basic,74,8,0,0,0,25,"[0, 6, 5, 25]",4,14,"[1, 3, 4, 11, 14, 15, 16, 17, 18, 20, 21, 22, 23, 28]",143.0973971,5237,1316,2,23,8,2.2737119940753994
basic,74,8,0,0,0,14,"[0, 6, 5, 25, 14]",5,7,"[1, 11, 15, 17, 18, 23, 28]",97.997508,8478,3241,4,3,7,2.364260340015719
basic,74,8,0,0,0,17,"[0, 6, 5, 25, 14, 17]",6,1,[11],60.98399695,9531,1053,1,0,7,2.188299483197876
basic,74,8,0,0,1,11,"[0, 6, 5, 25, 14, 17, 11]",7,0,[],35.80464033,11441,1910,1,0,7,2.0179935630441905
basic,74,8,0,1,1,11,"[0, 6, 5, 25, 14, 17, 11]",7,0,[],35.80464033,12916,1475,1,0,7,2.0179935630441905
basic,75,42,0,0,0,0,[0],1,29,"[1, 2, 3, 4, 5, 6, 7, 8, 9, 10, 11, 12, 13, 14, 15, 16, 17, 18, 19, 20, 21, 22, 23, 24, 25, 26, 27, 28, 29]",300,10,-1,16,302,9,0.0
basic,75,42,0,0,0,3,"[0, 3]",2,25,"[1, 2, 4, 5, 6, 7, 8, 9, 10, 11, 13, 15, 17, 18, 19, 20, 21, 22, 23, 24, 25, 26, 27, 28, 29]",255.7959278,6669,6659,3,45,9,1.0
basic,75,42,0,0,0,23,"[0, 3, 23]",3,15,"[1, 2, 4, 5, 6, 7, 8, 9, 11, 15, 17, 22, 24, 25, 29]",202.4573864,7711,1042,1,24,8,1.2042297975308642
basic,75,42,0,0,0,17,"[0, 3, 23, 17]",4,11,"[4, 5, 6, 8, 9, 11, 15, 22, 24, 25, 29]",191.2770465,8906,1195,1,14,8,1.192958341617778
basic,75,42,0,0,0,11,"[0, 3, 23, 17, 11]",5,7,"[4, 6, 8, 15, 22, 24, 25]",140.0813435,10239,1333,1,7,8,1.7422648616902974
basic,75,42,0,0,0,4,"[0, 3, 23, 17, 11, 4]",6,1,[22],18.01578739,12165,1926,1,0,7,3.116846772141969
basic,75,42,0,0,1,22,"[0, 3, 23, 17, 11, 4, 22]",7,0,[],6.8354475,12897,732,1,0,7,3.308846564142113
basic,75,42,0,1,1,22,"[0, 3, 23, 17, 11, 4, 22]",7,0,[],6.8354475,14536,1639,1,0,7,3.308846564142113
basic,76,9,0,0,0,0,[0],1,27,"[1, 3, 4, 5, 6, 7, 8, 9, 10, 11, 13, 14, 15, 16, 17, 18, 19, 20, 21, 22, 23, 24, 25, 26, 27, 28, 29]",300,10,-1,2,182,10,0.0
basic,76,9,0,0,0,25,"[0, 25]",2,24,"[1, 3, 4, 5, 6, 7, 8, 9, 10, 11, 13, 15, 16, 17, 18, 19, 20, 21, 22, 23, 24, 26, 27, 28]",275.9168108,1599,1589,2,104,10,1.0
basic,76,9,0,0,0,10,"[0, 25, 10]",3,20,"[3, 4, 5, 7, 8, 9, 11, 13, 15, 16, 17, 18, 19, 20, 21, 22, 23, 26, 27, 28]",236.0670932,4375,2776,2,76,10,1.1767014107208227
basic,76,9,0,0,0,8,"[0, 25, 10, 8]",4,19,"[3, 4, 5, 7, 9, 11, 13, 15, 16, 17, 18, 19, 20, 21, 22, 23, 26, 27, 28]",187.6935467,8903,4528,1,29,10,1.7608170712242983
basic,76,9,0,0,0,28,"[0, 25, 10, 8, 28]",5,18,"[3, 4, 5, 7, 9, 11, 13, 15, 16, 17, 18, 19, 20, 21, 22, 23, 26, 27]",176.8768928,9939,1036,1,15,10,1.6576318206889098
basic,76,9,0,0,0,23,"[0, 25, 10, 8, 28, 23]",6,12,"[3, 4, 7, 9, 11, 18, 19, 20, 21, 22, 26, 27]",151.8569008,11130,1191,1,7,10,2.488131366775142
basic,76,9,0,0,0,9,"[0, 25, 10, 8, 28, 23, 9]",7,10,"[3, 4, 7, 11, 18, 19, 20, 21, 26, 27]",129.4962211,12177,1047,1,5,10,2.289724512754012
basic,76,9,0,0,0,26,"[0, 25, 10, 8, 28, 23, 9, 26]",8,3,"[18, 20, 21]",72.8481849,13633,1456,1,2,10,1.944382504121744
basic,76,9,0,0,0,21,"[0, 25, 10, 8, 28, 23, 9, 26, 21]",9,1,[20],18.94085701,14966,1333,1,0,10,2.3711528775176802
basic,76,9,0,0,1,20,"[0, 25, 10, 8, 28, 23, 9, 26, 21, 20]",10,0,[],6.85781104,15715,749,1,0,10,2.3146010432238726
basic,76,9,0,1,1,20,"[0, 25, 10, 8, 28, 23, 9, 26, 21, 20]",10,0,[],6.85781104,16753,1038,1,0,10,2.3146010432238726
basic,77,18,0,0,0,0,[0],1,28,"[1, 2, 3, 4, 5, 6, 7, 8, 9, 10, 11, 12, 13, 14, 16, 17, 18, 19, 20, 21, 22, 23, 24, 25, 26, 27, 28, 29]",300,12,-1,3,136,10,0.0
basic,77,18,0,0,0,28,"[0, 28]",2,16,"[1, 3, 5, 7, 8, 9, 12, 13, 14, 16, 20, 23, 24, 25, 26, 27]",236.4311397,2420,2408,2,19,10,1.0
basic,77,18,0,0,0,7,"[0, 28, 7]",3,15,"[1, 3, 5, 8, 9, 12, 13, 14, 16, 20, 23, 24, 25, 26, 27]",214.4084242,3447,1027,2,17,10,1.4345180696367563
basic,77,18,0,0,0,25,"[0, 28, 7, 25]",4,13,"[1, 3, 5, 8, 9, 12, 13, 14, 16, 20, 23, 26, 27]",186.6055466,4329,882,2,15,10,1.8896451241781882
basic,77,18,0,0,0,8,"[0, 28, 7, 25, 8]",5,10,"[3, 5, 9, 12, 13, 14, 16, 23, 26, 27]",149.551532,6573,2244,2,10,10,1.590467437592877
