condition,trial_id,map_id,undoIndicator,submit,checkEnd,currentChoice,chosen_all,n_city_all,n_within_reach,cities_reach,currentBudget,time_all,rt_all,n_opt_paths_all,n_subopt_paths_all,mas_all,tortuosity_all
undo,0,19,0,0,0,0,[0],1,29,"[1, 2, 3, 4, 5, 6, 7, 8, 9, 10, 11, 12, 13, 14, 15, 16, 17, 18, 19, 20, 21, 22, 23, 24, 25, 26, 27, 28, 29]",300,147,-1,12,149,8,0.0
undo,0,19,0,0,0,6,"[0, 6]",2,14,"[4, 7, 9, 10, 11, 13, 14, 20, 21, 22, 24, 27, 28, 29]",146.2664643,13713,13566,15,42,6,1.0
undo,0,19,0,0,0,22,"[0, 6, 22]",3,7,"[4, 7, 10, 11, 14, 20, 24]",85.2664643,14698,985,2,4,6,1.0079609453008609
undo,0,19,0,0,0,20,"[0, 6, 22, 20]",4,4,"[10, 11, 14, 24]",72.11351786,15365,667,2,2,6,1.0079920961288358
undo,0,19,0,0,0,11,"[0, 6, 22, 20, 11]",5,1,[14],24.31184425,16518,1153,1,0,6,1.2573827429707154
undo,0,19,0,0,1,14,"[0, 6, 22, 20, 11, 14]",6,0,[],13.49519042,16967,449,1,0,6,1.3700368456336027
undo,0,19,1,0,0,11,"[0, 6, 22, 20, 11]",5,1,[14],24.31184425,24748,7781,1,0,6,1.2573827429707154
undo,0,19,1,0,0,20,"[0, 6, 22, 20]",4,4,"[10, 11, 14, 24]",72.11351786,24935,187,2,2,6,1.0079920961288358
undo,0,19,1,0,0,22,"[0, 6, 22]",3,7,"[4, 7, 10, 11, 14, 20, 24]",85.2664643,25136,201,2,4,6,1.0079609453008609
undo,0,19,1,0,0,6,"[0, 6]",2,14,"[4, 7, 9, 10, 11, 13, 14, 20, 21, 22, 24, 27, 28, 29]",146.2664643,25433,297,15,42,6,1.0
undo,0,19,1,0,0,0,[0],1,29,"[1, 2, 3, 4, 5, 6, 7, 8, 9, 10, 11, 12, 13, 14, 15, 16, 17, 18, 19, 20, 21, 22, 23, 24, 25, 26, 27, 28, 29]",300,25749,316,12,149,8,0.0
undo,0,19,0,0,0,9,"[0, 9]",2,21,"[1, 4, 5, 6, 7, 10, 11, 12, 13, 14, 15, 19, 20, 21, 22, 23, 24, 25, 27, 28, 29]",185.9956141,26530,781,13,76,7,1.0
undo,0,19,0,0,0,6,"[0, 9, 6]",3,13,"[4, 7, 10, 11, 13, 14, 20, 21, 22, 24, 27, 28, 29]",144.5589154,27516,986,13,38,7,1.0111071984935167
undo,0,19,0,0,0,22,"[0, 9, 6, 22]",4,7,"[4, 7, 10, 11, 14, 20, 24]",83.55891541,28556,1040,2,4,7,1.0159761935372444
undo,0,19,0,0,0,20,"[0, 9, 6, 22, 20]",5,4,"[10, 11, 14, 24]",70.40596897,29048,492,2,2,7,1.015544960909188
undo,0,19,0,0,0,11,"[0, 9, 6, 22, 20, 11]",6,1,[14],22.60429536,30118,1070,1,0,7,1.2651706818512372
undo,0,19,0,0,1,14,"[0, 9, 6, 22, 20, 11, 14]",7,0,[],11.78764153,30596,478,1,0,7,1.3782021706710783
undo,0,19,0,1,1,14,"[0, 9, 6, 22, 20, 11, 14]",7,0,[],11.78764153,38548,7952,1,0,7,1.3782021706710783
undo,1,0,0,0,0,0,[0],1,27,"[2, 3, 4, 5, 6, 7, 8, 9, 10, 11, 12, 13, 14, 15, 16, 17, 19, 20, 21, 22, 23, 24, 25, 26, 27, 28, 29]",300,141,-1,104,1136,9,0.0
undo,1,0,0,0,0,28,"[0, 28]",2,26,"[2, 3, 4, 5, 6, 7, 8, 9, 10, 11, 12, 13, 14, 15, 16, 17, 19, 20, 21, 22, 23, 24, 25, 26, 27, 29]",194.9190788,3721,3580,39,388,9,1.0
undo,1,0,0,0,0,5,"[0, 28, 5]",3,21,"[2, 3, 4, 7, 8, 9, 11, 12, 13, 14, 15, 16, 17, 19, 20, 21, 23, 24, 25, 26, 29]",151.2613189,5439,1718,27,210,9,1.0978295127671733
undo,1,0,0,0,0,26,"[0, 28, 5, 26]",4,15,"[3, 4, 7, 8, 9, 11, 12, 13, 14, 15, 17, 19, 20, 23, 24]",115.8212286,7891,2452,5,35,9,1.1400379746718978
undo,1,0,0,0,0,4,"[0, 28, 5, 26, 4]",5,12,"[3, 7, 8, 9, 11, 12, 15, 17, 19, 20, 23, 24]",103.779634,8509,618,4,17,9,1.2534780347343448
undo,1,0,0,0,0,24,"[0, 28, 5, 26, 4, 24]",6,9,"[3, 7, 8, 9, 11, 12, 15, 17, 19]",92.37787977,9309,800,4,12,9,1.2444963062448124
undo,1,0,0,0,0,15,"[0, 28, 5, 26, 4, 24, 15]",7,6,"[3, 7, 8, 9, 11, 17]",69.03264471,10111,802,3,4,9,1.2218613820858855
undo,1,0,0,0,0,7,"[0, 28, 5, 26, 4, 24, 15, 7]",8,2,"[3, 8]",37.96819558,10811,700,2,0,9,1.2781430976973103
undo,1,0,0,0,1,8,"[0, 28, 5, 26, 4, 24, 15, 7, 8]",9,0,[],18.8632224,11629,818,1,0,9,1.263743502581705
undo,1,0,0,1,1,8,"[0, 28, 5, 26, 4, 24, 15, 7, 8]",9,0,[],18.8632224,13855,2226,1,0,9,1.263743502581705
undo,2,33,0,0,0,0,[0],1,23,"[1, 2, 5, 7, 8, 11, 12, 13, 14, 15, 16, 17, 18, 19, 20, 21, 23, 24, 25, 26, 27, 28, 29]",300,176,-1,5,108,9,0.0
undo,2,33,0,0,0,21,"[0, 21]",2,17,"[2, 5, 7, 8, 11, 13, 14, 16, 17, 18, 19, 20, 24, 26, 27, 28, 29]",174.4611614,5439,5263,21,129,8,1.0
undo,2,33,0,0,0,17,"[0, 21, 17]",3,12,"[2, 7, 11, 13, 14, 16, 18, 19, 20, 24, 26, 29]",135.8218032,6107,668,3,35,8,1.0302064673538902
undo,2,33,0,0,0,13,"[0, 21, 17, 13]",4,10,"[2, 7, 11, 14, 16, 19, 20, 24, 26, 29]",113.0182947,6524,417,3,18,8,1.2307555582916028
undo,2,33,0,0,0,29,"[0, 21, 17, 13, 29]",5,5,"[7, 11, 14, 20, 26]",51.94456878,8915,2391,3,3,7,1.179279205832945
undo,2,33,0,0,0,26,"[0, 21, 17, 13, 29, 26]",6,1,[14],24.05191741,9643,728,1,0,7,1.2197084341582196
undo,2,33,0,0,1,14,"[0, 21, 17, 13, 29, 26, 14]",7,0,[],11.40280677,10177,534,1,0,7,1.3302800298543374
undo,2,33,1,0,0,26,"[0, 21, 17, 13, 29, 26]",6,1,[14],24.05191741,17677,7500,1,0,7,1.2197084341582196
undo,2,33,1,0,0,29,"[0, 21, 17, 13, 29]",5,5,"[7, 11, 14, 20, 26]",51.94456878,18025,348,3,3,7,1.179279205832945
undo,2,33,1,0,0,13,"[0, 21, 17, 13]",4,10,"[2, 7, 11, 14, 16, 19, 20, 24, 26, 29]",113.0182947,18292,267,3,18,8,1.2307555582916028
undo,2,33,0,0,0,19,"[0, 21, 17, 13, 19]",5,6,"[7, 14, 16, 24, 26, 29]",87.52319715,19152,860,3,6,8,1.267959080158969
undo,2,33,0,0,0,7,"[0, 21, 17, 13, 19, 7]",6,3,"[14, 24, 26]",41.90521823,20688,1536,2,1,8,1.2111387775864462
undo,2,33,0,0,0,14,"[0, 21, 17, 13, 19, 7, 14]",7,1,[26],27.03914949,21093,405,1,0,8,1.2582047812090849
undo,2,33,0,0,1,26,"[0, 21, 17, 13, 19, 7, 14, 26]",8,0,[],14.39003885,22027,934,1,0,8,1.2624145644521343
undo,2,33,0,1,1,26,"[0, 21, 17, 13, 19, 7, 14, 26]",8,0,[],14.39003885,24467,2440,1,0,8,1.2624145644521343
undo,3,13,0,0,0,0,[0],1,29,"[1, 2, 3, 4, 5, 6, 7, 8, 9, 10, 11, 12, 13, 14, 15, 16, 17, 18, 19, 20, 21, 22, 23, 24, 25, 26, 27, 28, 29]",300,164,-1,60,2676,11,0.0
undo,3,13,0,0,0,24,"[0, 24]",2,28,"[1, 2, 3, 4, 5, 6, 7, 8, 9, 10, 11, 12, 13, 14, 15, 16, 17, 18, 19, 20, 21, 22, 23, 25, 26, 27, 28, 29]",288.8196601,3026,2862,16,1444,11,1.0
undo,3,13,0,0,0,28,"[0, 24, 28]",3,23,"[1, 2, 3, 4, 6, 7, 8, 9, 10, 11, 12, 13, 15, 16, 17, 19, 20, 21, 22, 23, 26, 27, 29]",222.5324064,7461,4435,8,243,11,1.0513810491680837
undo,3,13,0,0,0,2,"[0, 24, 28, 2]",4,19,"[1, 3, 4, 6, 7, 9, 11, 12, 13, 15, 16, 17, 19, 20, 21, 23, 26, 27, 29]",184.889346,9693,2232,7,110,11,1.050374132001543
undo,3,13,0,0,0,29,"[0, 24, 28, 2, 29]",5,18,"[1, 3, 4, 6, 7, 9, 11, 12, 13, 15, 16, 17, 19, 20, 21, 23, 26, 27]",173.1846461,10203,510,7,85,11,1.1393409619120594
undo,3,13,0,0,0,7,"[0, 24, 28, 2, 29, 7]",6,17,"[1, 3, 4, 6, 9, 11, 12, 13, 15, 16, 17, 19, 20, 21, 23, 26, 27]",157.9203086,10909,706,5,45,11,1.349777315111579
undo,3,13,0,0,0,26,"[0, 24, 28, 2, 29, 7, 26]",7,16,"[1, 3, 4, 6, 9, 11, 12, 13, 15, 16, 17, 19, 20, 21, 23, 27]",147.480002,11361,452,5,25,11,1.5942082773824946
undo,3,13,0,0,0,6,"[0, 24, 28, 2, 29, 7, 26, 6]",8,12,"[1, 3, 4, 11, 13, 15, 16, 17, 19, 20, 23, 27]",127.3802508,12062,701,4,12,11,1.5898347940840756
undo,3,13,0,0,0,11,"[0, 24, 28, 2, 29, 7, 26, 6, 11]",9,6,"[1, 13, 15, 16, 17, 23]",108.2752776,12799,737,3,4,11,1.5029953945561012
undo,3,13,0,0,0,13,"[0, 24, 28, 2, 29, 7, 26, 6, 11, 13]",10,2,"[15, 17]",52.19497806,14617,1818,2,0,11,1.3655915863754327
undo,3,13,0,0,1,15,"[0, 24, 28, 2, 29, 7, 26, 6, 11, 13, 15]",11,0,[],12.38291958,15755,1138,1,0,11,1.3653085520078876
undo,3,13,0,1,1,15,"[0, 24, 28, 2, 29, 7, 26, 6, 11, 13, 15]",11,0,[],12.38291958,16690,935,1,0,11,1.3653085520078876
undo,4,1,0,0,0,0,[0],1,26,"[1, 2, 4, 5, 7, 8, 9, 10, 11, 12, 13, 14, 15, 16, 17, 18, 19, 20, 21, 22, 23, 24, 25, 26, 28, 29]",300,148,-1,6,74,7,0.0
undo,4,1,0,0,0,14,"[0, 14]",2,19,"[1, 4, 5, 8, 9, 13, 15, 17, 18, 19, 20, 21, 22, 23, 24, 25, 26, 28, 29]",200.1901808,13352,13204,5,42,7,1.0
undo,4,1,0,0,0,17,"[0, 14, 17]",3,15,"[1, 4, 5, 8, 9, 13, 15, 18, 19, 20, 22, 23, 25, 28, 29]",147.8356204,14444,1092,5,27,7,1.0028844724416826
undo,4,1,0,0,0,1,"[0, 14, 17, 1]",4,12,"[4, 5, 8, 9, 15, 18, 20, 22, 23, 25, 28, 29]",123.4840291,15018,574,5,15,7,1.0264985578353567
undo,4,1,0,0,0,28,"[0, 14, 17, 1, 28]",5,5,"[9, 15, 22, 23, 29]",88.59850198,15552,534,5,3,7,1.0339861575999345
undo,4,1,0,0,0,23,"[0, 14, 17, 1, 28, 23]",6,2,"[15, 22]",51.70676849,17571,2019,2,0,7,1.0327458250705703
undo,4,1,0,0,1,15,"[0, 14, 17, 1, 28, 23, 15]",7,0,[],20.81987807,18505,934,1,0,7,1.1948681641401226
undo,4,1,0,1,1,15,"[0, 14, 17, 1, 28, 23, 15]",7,0,[],20.81987807,28739,10234,1,0,7,1.1948681641401226
undo,5,37,0,0,0,0,[0],1,29,"[1, 2, 3, 4, 5, 6, 7, 8, 9, 10, 11, 12, 13, 14, 15, 16, 17, 18, 19, 20, 21, 22, 23, 24, 25, 26, 27, 28, 29]",300,172,-1,6,168,10,0.0
undo,5,37,0,0,0,22,"[0, 22]",2,10,"[1, 2, 4, 7, 15, 18, 19, 20, 21, 26]",137.1442356,4840,4668,15,58,8,1.0
undo,5,37,0,0,0,4,"[0, 22, 4]",3,9,"[1, 2, 7, 15, 18, 19, 20, 21, 26]",112.1442356,5590,750,8,28,8,1.1558002336903517
undo,5,37,0,0,0,2,"[0, 22, 4, 2]",4,8,"[1, 7, 15, 18, 19, 20, 21, 26]",100.7424813,5977,387,7,12,8,1.3180840601310855
undo,5,37,0,0,0,1,"[0, 22, 4, 2, 1]",5,7,"[7, 15, 18, 19, 20, 21, 26]",83.53783081,7809,1832,7,4,8,1.3672506917303464
undo,5,37,0,0,0,15,"[0, 22, 4, 2, 1, 15]",6,3,"[20, 21, 26]",43.5753484,10817,3008,2,1,8,1.5410402460753214
undo,5,37,0,0,0,21,"[0, 22, 4, 2, 1, 15, 21]",7,1,[20],28.5753484,11430,613,1,0,8,1.7489442409369826
undo,5,37,0,0,1,20,"[0, 22, 4, 2, 1, 15, 21, 20]",8,0,[],14.1531433,12031,601,1,0,8,1.9069598475868441
undo,5,37,0,1,1,20,"[0, 22, 4, 2, 1, 15, 21, 20]",8,0,[],14.1531433,13372,1341,1,0,8,1.9069598475868441
undo,6,29,0,0,0,0,[0],1,29,"[1, 2, 3, 4, 5, 6, 7, 8, 9, 10, 11, 12, 13, 14, 15, 16, 17, 18, 19, 20, 21, 22, 23, 24, 25, 26, 27, 28, 29]",300,144,-1,1,78,9,0.0
undo,6,29,0,0,0,6,"[0, 6]",2,28,"[1, 2, 3, 4, 5, 7, 8, 9, 10, 11, 12, 13, 14, 15, 16, 17, 18, 19, 20, 21, 22, 23, 24, 25, 26, 27, 28, 29]",228.4108947,6632,6488,1,25,9,1.0
undo,6,29,0,0,0,28,"[0, 6, 28]",3,24,"[1, 3, 4, 5, 7, 9, 10, 11, 12, 13, 14, 15, 16, 17, 18, 20, 21, 22, 23, 24, 25, 26, 27, 29]",187.1798384,7408,776,1,22,9,1.162106788166845
undo,6,29,0,0,0,27,"[0, 6, 28, 27]",4,19,"[1, 3, 4, 5, 7, 9, 10, 11, 12, 13, 14, 15, 16, 21, 22, 23, 25, 26, 29]",166.6615539,7844,436,1,21,9,1.2307173895439045
undo,6,29,0,0,0,22,"[0, 6, 28, 27, 22]",5,13,"[1, 3, 4, 5, 7, 9, 12, 13, 14, 15, 21, 26, 29]",133.4200136,8678,834,1,19,9,1.4241767805149903
undo,6,29,0,0,0,12,"[0, 6, 28, 27, 22, 12]",6,8,"[4, 5, 7, 9, 13, 14, 21, 26]",95.4726817,9529,851,1,6,9,1.3248355326460857
undo,6,29,0,0,0,7,"[0, 6, 28, 27, 22, 12, 7]",7,4,"[4, 5, 9, 21]",81.87121119,10178,649,1,3,9,1.3264091962339806
undo,6,29,0,0,0,9,"[0, 6, 28, 27, 22, 12, 7, 9]",8,1,[4],52.80232748,10962,784,1,0,9,1.309391257644539
undo,6,29,0,0,1,4,"[0, 6, 28, 27, 22, 12, 7, 9, 4]",9,0,[],11.76575843,11766,804,1,0,9,1.6396807789841599
undo,6,29,0,1,1,4,"[0, 6, 28, 27, 22, 12, 7, 9, 4]",9,0,[],11.76575843,12672,906,1,0,9,1.6396807789841599
undo,7,44,0,0,0,0,[0],1,29,"[1, 2, 3, 4, 5, 6, 7, 8, 9, 10, 11, 12, 13, 14, 15, 16, 17, 18, 19, 20, 21, 22, 23, 24, 25, 26, 27, 28, 29]",300,140,-1,13,126,7,0.0
undo,7,44,0,0,0,11,"[0, 11]",2,18,"[4, 5, 6, 7, 8, 9, 12, 14, 16, 17, 19, 20, 22, 23, 24, 25, 26, 28]",152.7790776,3655,3515,5,34,7,1.0
undo,7,44,0,0,0,24,"[0, 11, 24]",3,13,"[4, 5, 7, 8, 9, 12, 14, 17, 20, 22, 23, 25, 28]",125.8532535,4597,942,5,23,7,1.1588941745226709
undo,7,44,0,0,0,9,"[0, 11, 24, 9]",4,7,"[4, 7, 8, 12, 14, 20, 23]",93.09657483,5190,593,2,8,7,1.3039383713641313
undo,7,44,0,0,0,4,"[0, 11, 24, 9, 4]",5,5,"[7, 12, 14, 20, 23]",73.39885923,5589,399,2,3,7,1.2901330701441578
undo,7,44,0,0,0,7,"[0, 11, 24, 9, 4, 7]",6,1,[23],42.38273439,6215,626,1,0,7,1.2468141312360979
undo,7,44,0,0,1,23,"[0, 11, 24, 9, 4, 7, 23]",7,0,[],23.27776121,6774,559,1,0,7,1.2635191782769477
undo,7,44,0,1,1,23,"[0, 11, 24, 9, 4, 7, 23]",7,0,[],23.27776121,18341,11567,1,0,7,1.2635191782769477
undo,8,43,0,0,0,0,[0],1,23,"[1, 2, 3, 4, 5, 6, 7, 9, 10, 11, 12, 14, 15, 16, 17, 19, 20, 21, 22, 23, 25, 27, 29]",300,153,-1,16,556,12,0.0
undo,8,43,0,0,0,29,"[0, 29]",2,22,"[1, 2, 3, 4, 5, 6, 7, 9, 10, 11, 12, 14, 15, 16, 17, 19, 20, 21, 22, 23, 25, 27]",277.909278,1753,1600,16,520,12,1.0
undo,8,43,0,0,0,20,"[0, 29, 20]",3,20,"[1, 2, 3, 4, 6, 7, 9, 10, 11, 12, 14, 15, 16, 17, 19, 21, 22, 23, 25, 27]",254.4785289,2603,850,15,422,12,1.082311746871282
undo,8,43,0,0,0,16,"[0, 29, 20, 16]",4,19,"[1, 2, 3, 4, 6, 7, 9, 10, 11, 12, 14, 15, 17, 19, 21, 22, 23, 25, 27]",231.8511119,3721,1118,15,389,12,1.215201926898219
undo,8,43,0,0,0,15,"[0, 29, 20, 16, 15]",5,14,"[1, 2, 3, 4, 6, 7, 9, 11, 12, 14, 19, 22, 23, 25]",188.5267539,4673,952,3,109,12,1.3482474915350444
undo,8,43,0,0,0,25,"[0, 29, 20, 16, 15, 25]",6,12,"[1, 3, 4, 6, 7, 9, 11, 12, 14, 19, 22, 23]",165.8551858,6475,1802,2,43,12,1.691408721191545
undo,8,43,0,0,0,12,"[0, 29, 20, 16, 15, 25, 12]",7,11,"[1, 3, 4, 6, 7, 9, 11, 14, 19, 22, 23]",141.6684126,7157,682,2,32,12,1.6015983641428178
undo,8,43,0,0,0,3,"[0, 29, 20, 16, 15, 25, 12, 3]",8,10,"[1, 4, 6, 7, 9, 11, 14, 19, 22, 23]",128.6684126,7941,784,2,24,12,1.5379830456120627
undo,8,43,0,0,0,22,"[0, 29, 20, 16, 15, 25, 12, 3, 22]",9,6,"[1, 6, 7, 11, 14, 19]",93.95530264,8883,942,1,11,12,1.7275686117408873
undo,8,43,0,0,0,19,"[0, 29, 20, 16, 15, 25, 12, 3, 22, 19]",10,4,"[1, 6, 7, 11]",73.33977451,9778,895,1,3,12,1.6315360037595275
undo,8,43,0,0,0,1,"[0, 29, 20, 16, 15, 25, 12, 3, 22, 19, 1]",11,1,[7],45.1617689,11467,1689,1,0,12,1.7703076545303877
undo,8,43,0,0,1,7,"[0, 29, 20, 16, 15, 25, 12, 3, 22, 19, 1, 7]",12,0,[],6.951822553,13267,1800,1,0,12,1.6607094905815594
undo,8,43,0,1,1,7,"[0, 29, 20, 16, 15, 25, 12, 3, 22, 19, 1, 7]",12,0,[],6.951822553,14006,739,1,0,12,1.6607094905815594
undo,9,27,0,0,0,0,[0],1,26,"[1, 3, 5, 6, 7, 8, 9, 10, 11, 12, 13, 14, 15, 16, 17, 18, 19, 21, 22, 23, 24, 25, 26, 27, 28, 29]",300,157,-1,13,578,11,0.0
undo,9,27,0,0,0,15,"[0, 15]",2,24,"[1, 3, 5, 6, 7, 8, 9, 10, 11, 12, 13, 14, 16, 17, 18, 19, 21, 22, 23, 24, 25, 26, 27, 29]",263.7508621,1988,1831,6,219,11,1.0
undo,9,27,0,0,0,24,"[0, 15, 24]",3,20,"[1, 5, 6, 7, 8, 9, 10, 12, 13, 14, 16, 17, 18, 19, 21, 23, 25, 26, 27, 29]",246.5462115,2704,716,6,130,11,1.130933077698322
undo,9,27,0,0,0,17,"[0, 15, 24, 17]",4,15,"[1, 6, 8, 10, 12, 13, 14, 16, 18, 19, 23, 25, 26, 27, 29]",229.9932662,3103,399,4,60,11,1.1285538435963374
undo,9,27,0,0,0,12,"[0, 15, 24, 17, 12]",5,14,"[1, 6, 8, 10, 13, 14, 16, 18, 19, 23, 25, 26, 27, 29]",218.8129263,3421,318,2,32,11,1.2561880288755216
undo,9,27,0,0,0,10,"[0, 15, 24, 17, 12, 10]",6,11,"[1, 8, 13, 14, 18, 19, 23, 25, 26, 27, 29]",207.7675653,3792,371,2,28,11,1.2228289337766665
undo,9,27,0,0,0,13,"[0, 15, 24, 17, 12, 10, 13]",7,9,"[1, 8, 14, 18, 19, 23, 26, 27, 29]",167.9178476,4660,868,2,18,11,1.3421291994761178
undo,9,27,0,0,0,19,"[0, 15, 24, 17, 12, 10, 13, 19]",8,5,"[1, 8, 14, 23, 29]",131.6825057,5294,634,2,6,11,1.294749956153846
undo,9,27,0,0,0,8,"[0, 15, 24, 17, 12, 10, 13, 19, 8]",9,3,"[14, 23, 29]",116.816437,5778,484,2,1,11,1.3554286578836865
undo,9,27,0,0,0,29,"[0, 15, 24, 17, 12, 10, 13, 19, 8, 29]",10,1,[14],57.61339652,6558,780,1,0,11,1.248354519573802
undo,9,27,0,0,1,14,"[0, 15, 24, 17, 12, 10, 13, 19, 8, 29, 14]",11,0,[],13.31892734,7176,618,1,0,11,1.562811097555156
undo,9,27,0,1,1,14,"[0, 15, 24, 17, 12, 10, 13, 19, 8, 29, 14]",11,0,[],13.31892734,7883,707,1,0,11,1.562811097555156
undo,10,30,0,0,0,0,[0],1,19,"[3, 4, 5, 7, 9, 11, 16, 17, 18, 19, 20, 21, 22, 24, 25, 26, 27, 28, 29]",300,145,-1,5,41,8,0.0
undo,10,30,0,0,0,27,"[0, 27]",2,10,"[3, 5, 7, 9, 18, 19, 20, 24, 25, 29]",90.59608409,8560,8415,7,22,6,1.0
undo,10,30,0,0,0,3,"[0, 27, 3]",3,8,"[5, 7, 18, 19, 20, 24, 25, 29]",71.49111091,8944,384,5,9,6,1.0022223300201003
undo,10,30,0,0,0,5,"[0, 27, 3, 5]",4,4,"[7, 18, 24, 29]",46.65162621,10433,1489,1,3,6,1.047699458031665
undo,10,30,0,0,0,18,"[0, 27, 3, 5, 18]",5,1,[29],33.6132214,10996,563,1,0,6,1.0906504953306948
undo,10,30,0,0,1,29,"[0, 27, 3, 5, 18, 29]",6,0,[],14.30001349,11997,1001,1,0,6,1.1734964103241567
undo,10,30,1,0,0,18,"[0, 27, 3, 5, 18]",5,1,[29],33.6132214,19834,7837,1,0,6,1.0906504953306948
undo,10,30,1,0,0,5,"[0, 27, 3, 5]",4,4,"[7, 18, 24, 29]",46.65162621,19963,129,1,3,6,1.047699458031665
undo,10,30,1,0,0,3,"[0, 27, 3]",3,8,"[5, 7, 18, 19, 20, 24, 25, 29]",71.49111091,20113,150,5,9,6,1.0022223300201003
undo,10,30,1,0,0,27,"[0, 27]",2,10,"[3, 5, 7, 9, 18, 19, 20, 24, 25, 29]",90.59608409,20714,601,7,22,6,1.0
undo,10,30,1,0,0,0,[0],1,19,"[3, 4, 5, 7, 9, 11, 16, 17, 18, 19, 20, 21, 22, 24, 25, 26, 27, 28, 29]",300,21132,418,5,41,8,0.0
undo,10,30,0,0,0,25,"[0, 25]",2,12,"[3, 5, 7, 9, 11, 16, 18, 19, 20, 24, 27, 29]",121.1005869,21793,661,7,37,7,1.0
undo,10,30,0,0,0,27,"[0, 25, 27]",3,8,"[3, 5, 7, 18, 19, 20, 24, 29]",81.54050603,22524,731,2,17,7,1.0432445497342653
undo,10,30,0,0,0,3,"[0, 25, 27, 3]",4,5,"[5, 7, 18, 20, 29]",62.43553286,22866,342,2,6,7,1.0419393955972533
undo,10,30,0,0,0,29,"[0, 25, 27, 3, 29]",5,3,"[5, 7, 18]",43.83445762,23242,376,1,2,7,1.0521853644580021
undo,10,30,0,0,0,18,"[0, 25, 27, 3, 29, 18]",6,1,[5],24.5212497,24124,882,1,0,7,1.1278751785159948
undo,10,30,0,0,1,5,"[0, 25, 27, 3, 29, 18, 5]",7,0,[],11.48284489,25193,1069,1,0,7,1.1931367962604076
undo,10,30,1,0,0,18,"[0, 25, 27, 3, 29, 18]",6,1,[5],24.5212497,27503,2310,1,0,7,1.1278751785159948
undo,10,30,1,0,0,29,"[0, 25, 27, 3, 29]",5,3,"[5, 7, 18]",43.83445762,27656,153,1,2,7,1.0521853644580021
undo,10,30,1,0,0,3,"[0, 25, 27, 3]",4,5,"[5, 7, 18, 20, 29]",62.43553286,27804,148,2,6,7,1.0419393955972533
undo,10,30,1,0,0,27,"[0, 25, 27]",3,8,"[3, 5, 7, 18, 19, 20, 24, 29]",81.54050603,27924,120,2,17,7,1.0432445497342653
undo,10,30,1,0,0,25,"[0, 25]",2,12,"[3, 5, 7, 9, 11, 16, 18, 19, 20, 24, 27, 29]",121.1005869,28554,630,7,37,7,1.0
undo,10,30,0,0,0,20,"[0, 25, 20]",3,9,"[3, 5, 7, 9, 11, 18, 19, 27, 29]",99.16887472,29399,845,5,16,7,1.0037291321296267
undo,10,30,0,0,0,27,"[0, 25, 20, 27]",4,4,"[3, 5, 18, 29]",65.11010199,30082,683,4,6,7,1.1217072851053165
undo,10,30,0,0,0,3,"[0, 25, 20, 27, 3]",5,3,"[5, 18, 29]",46.00512882,30461,379,4,0,7,1.1140018780928678
undo,10,30,0,0,0,29,"[0, 25, 20, 27, 3, 29]",6,1,[18],27.40405358,30832,371,1,0,7,1.119672312555708
undo,10,30,0,0,1,18,"[0, 25, 20, 27, 3, 29, 18]",7,0,[],8.090845662,31751,919,1,0,7,1.1951451398733344
undo,10,30,0,1,1,18,"[0, 25, 20, 27, 3, 29, 18]",7,0,[],8.090845662,34981,3230,1,0,7,1.1951451398733344
undo,11,11,0,0,0,0,[0],1,25,"[1, 2, 3, 4, 5, 6, 8, 9, 10, 11, 12, 13, 14, 15, 16, 17, 18, 19, 20, 22, 23, 25, 26, 27, 28]",300,150,-1,6,374,12,0.0
undo,11,11,0,0,0,17,"[0, 17]",2,18,"[1, 2, 4, 5, 6, 8, 10, 11, 12, 15, 18, 19, 22, 23, 25, 26, 27, 28]",152.9217895,2990,2840,218,762,9,1.0
undo,11,11,0,0,0,8,"[0, 17, 8]",3,15,"[1, 2, 4, 5, 6, 11, 12, 15, 18, 19, 22, 23, 25, 27, 28]",138.6039684,4337,1347,95,263,9,1.1114912532636003
undo,11,11,0,0,0,15,"[0, 17, 8, 15]",4,11,"[2, 5, 6, 11, 12, 18, 19, 22, 25, 27, 28]",125.1503444,4838,501,62,51,9,1.1146194627724886
undo,11,11,0,0,0,11,"[0, 17, 8, 15, 11]",5,9,"[2, 5, 6, 12, 19, 22, 25, 27, 28]",107.0395741,5444,606,24,2,9,1.1130192047684102
undo,11,11,0,0,0,28,"[0, 17, 8, 15, 11, 28]",6,4,"[2, 5, 19, 22]",87.62308629,6490,1046,6,2,9,1.2290091933070886
undo,11,11,0,0,0,5,"[0, 17, 8, 15, 11, 28, 5]",7,2,"[2, 22]",69.73454247,7776,1286,2,0,9,1.4153375425476789
undo,11,11,0,0,0,2,"[0, 17, 8, 15, 11, 28, 5, 2]",8,1,[22],52.73454247,8626,850,1,0,9,1.3853330540064914
undo,11,11,0,0,1,22,"[0, 17, 8, 15, 11, 28, 5, 2, 22]",9,0,[],42.68466685,9501,875,1,0,9,1.3648232332892756
undo,11,11,0,1,1,22,"[0, 17, 8, 15, 11, 28, 5, 2, 22]",9,0,[],42.68466685,11486,1985,1,0,9,1.3648232332892756
undo,12,8,0,0,0,0,[0],1,29,"[1, 2, 3, 4, 5, 6, 7, 8, 9, 10, 11, 12, 13, 14, 15, 16, 17, 18, 19, 20, 21, 22, 23, 24, 25, 26, 27, 28, 29]",300,151,-1,10,149,9,0.0
undo,12,8,0,0,0,5,"[0, 5]",2,28,"[1, 2, 3, 4, 6, 7, 8, 9, 10, 11, 12, 13, 14, 15, 16, 17, 18, 19, 20, 21, 22, 23, 24, 25, 26, 27, 28, 29]",254.5137383,3584,3433,10,100,9,1.0
undo,12,8,0,0,0,14,"[0, 5, 14]",3,20,"[1, 2, 3, 4, 6, 7, 11, 15, 16, 17, 18, 19, 20, 21, 22, 23, 24, 25, 28, 29]",214.5512559,5574,1990,4,36,9,1.0001019035932595
undo,12,8,0,0,0,17,"[0, 5, 14, 17]",4,15,"[1, 4, 6, 7, 11, 15, 16, 18, 19, 20, 22, 23, 24, 25, 28]",177.5377449,6175,601,4,16,9,1.121197267659591
undo,12,8,0,0,0,11,"[0, 5, 14, 17, 11]",5,11,"[1, 4, 15, 16, 18, 19, 22, 23, 24, 25, 28]",152.3583883,6982,807,4,8,9,1.1277254166016362
undo,12,8,0,0,0,24,"[0, 5, 14, 17, 11, 24]",6,3,"[15, 16, 28]",115.1428001,7994,1012,2,2,9,1.1227411011978805
undo,12,8,0,0,0,15,"[0, 5, 14, 17, 11, 24, 15]",7,2,"[16, 28]",98.37974552,8500,506,2,0,9,1.1956385406066814
undo,12,8,0,0,0,16,"[0, 5, 14, 17, 11, 24, 15, 16]",8,1,[28],47.30137436,9420,920,1,0,9,1.36482239111247
undo,12,8,0,0,1,28,"[0, 5, 14, 17, 11, 24, 15, 16, 28]",9,0,[],24.94069458,9868,448,1,0,9,1.632953105226947
undo,12,8,0,1,1,28,"[0, 5, 14, 17, 11, 24, 15, 16, 28]",9,0,[],24.94069458,11020,1152,1,0,9,1.632953105226947
undo,13,18,0,0,0,0,[0],1,28,"[1, 2, 3, 4, 5, 6, 7, 8, 9, 10, 11, 12, 13, 14, 16, 17, 18, 19, 20, 21, 22, 23, 24, 25, 26, 27, 28, 29]",300,143,-1,3,136,10,0.0
undo,13,18,0,0,0,28,"[0, 28]",2,16,"[1, 3, 5, 7, 8, 9, 12, 13, 14, 16, 20, 23, 24, 25, 26, 27]",236.4311397,2771,2628,2,19,10,1.0
undo,13,18,0,0,0,7,"[0, 28, 7]",3,15,"[1, 3, 5, 8, 9, 12, 13, 14, 16, 20, 23, 24, 25, 26, 27]",214.4084242,3291,520,2,17,10,1.4345180696367563
undo,13,18,0,0,0,25,"[0, 28, 7, 25]",4,13,"[1, 3, 5, 8, 9, 12, 13, 14, 16, 20, 23, 26, 27]",186.6055466,3872,581,2,15,10,1.8896451241781882
undo,13,18,0,0,0,8,"[0, 28, 7, 25, 8]",5,10,"[3, 5, 9, 12, 13, 14, 16, 23, 26, 27]",149.551532,4477,605,2,10,10,1.590467437592877
undo,13,18,0,0,0,13,"[0, 28, 7, 25, 8, 13]",6,9,"[3, 5, 9, 12, 14, 16, 23, 26, 27]",128.4565089,4979,502,2,5,10,1.8248274983549797
undo,13,18,0,0,0,14,"[0, 28, 7, 25, 8, 13, 14]",7,7,"[3, 5, 9, 12, 23, 26, 27]",109.4828429,5725,746,2,3,10,1.6993534956692746
undo,13,18,0,0,0,3,"[0, 28, 7, 25, 8, 13, 14, 3]",8,3,"[5, 12, 27]",79.39962499,6607,882,2,1,10,1.802637206541468
undo,13,18,0,0,0,5,"[0, 28, 7, 25, 8, 13, 14, 3, 5]",9,1,[12],21.21887216,7893,1286,1,0,10,1.559774889743805
undo,13,18,0,0,1,12,"[0, 28, 7, 25, 8, 13, 14, 3, 5, 12]",10,0,[],9.817117911,9972,2079,1,0,10,1.563993037384447
undo,13,18,0,1,1,12,"[0, 28, 7, 25, 8, 13, 14, 3, 5, 12]",10,0,[],9.817117911,10903,931,1,0,10,1.563993037384447
undo,14,41,0,0,0,0,[0],1,29,"[1, 2, 3, 4, 5, 6, 7, 8, 9, 10, 11, 12, 13, 14, 15, 16, 17, 18, 19, 20, 21, 22, 23, 24, 25, 26, 27, 28, 29]",300,146,-1,1,143,10,0.0
undo,14,41,0,0,0,28,"[0, 28]",2,27,"[1, 2, 3, 5, 6, 7, 8, 9, 10, 11, 12, 13, 14, 15, 16, 17, 18, 19, 20, 21, 22, 23, 24, 25, 26, 27, 29]",259.8004975,2989,2843,37,249,9,1.0
undo,14,41,0,0,0,5,"[0, 28, 5]",3,26,"[1, 2, 3, 6, 7, 8, 9, 10, 11, 12, 13, 14, 15, 16, 17, 18, 19, 20, 21, 22, 23, 24, 25, 26, 27, 29]",246.199027,3372,383,30,182,9,1.714241539747437
undo,14,41,1,0,0,28,"[0, 28]",2,27,"[1, 2, 3, 5, 6, 7, 8, 9, 10, 11, 12, 13, 14, 15, 16, 17, 18, 19, 20, 21, 22, 23, 24, 25, 26, 27, 29]",259.8004975,4884,1512,37,249,9,1.0
undo,14,41,1,0,0,0,[0],1,29,"[1, 2, 3, 4, 5, 6, 7, 8, 9, 10, 11, 12, 13, 14, 15, 16, 17, 18, 19, 20, 21, 22, 23, 24, 25, 26, 27, 28, 29]",300,5000,116,1,143,10,0.0
undo,14,41,0,0,0,13,"[0, 13]",2,23,"[1, 2, 3, 5, 6, 7, 9, 10, 11, 12, 14, 15, 17, 18, 19, 20, 21, 22, 24, 25, 26, 27, 28]",258.2747079,5592,592,1,55,10,1.0
undo,14,41,0,0,0,28,"[0, 13, 28]",3,22,"[1, 2, 3, 5, 6, 7, 9, 10, 11, 12, 14, 15, 17, 18, 19, 20, 21, 22, 24, 25, 26, 27]",223.7928286,6307,715,1,39,10,1.895724242592676
undo,14,41,0,0,0,5,"[0, 13, 28, 5]",4,19,"[1, 2, 3, 6, 9, 10, 11, 12, 14, 15, 17, 18, 19, 20, 21, 22, 24, 25, 27]",210.1913581,6676,369,1,34,10,2.861541269398273
undo,14,41,0,0,0,22,"[0, 13, 28, 5, 22]",5,12,"[2, 3, 6, 9, 10, 11, 12, 17, 18, 20, 21, 25]",155.4464953,7509,833,11,12,9,2.096079268852861
undo,14,41,0,0,0,3,"[0, 13, 28, 5, 22, 3]",6,8,"[2, 9, 10, 12, 17, 18, 20, 21]",125.4798472,8009,500,7,5,9,4.404491319005463
undo,14,41,0,0,0,21,"[0, 13, 28, 5, 22, 3, 21]",7,4,"[2, 9, 12, 17]",93.33952984,8512,503,5,1,9,4.228139797553632
undo,14,41,0,0,0,9,"[0, 13, 28, 5, 22, 3, 21, 9]",8,2,"[2, 17]",43.97354965,9312,800,2,0,9,3.111188754077749
undo,14,41,0,0,1,2,"[0, 13, 28, 5, 22, 3, 21, 9, 2]",9,0,[],31.89050368,11168,1856,1,0,9,2.963304814480547
undo,14,41,0,1,1,2,"[0, 13, 28, 5, 22, 3, 21, 9, 2]",9,0,[],31.89050368,13592,2424,1,0,9,2.963304814480547
undo,15,31,0,0,0,0,[0],1,27,"[1, 3, 4, 5, 6, 7, 8, 10, 11, 12, 13, 14, 15, 16, 17, 18, 19, 20, 21, 22, 23, 24, 25, 26, 27, 28, 29]",300,156,-1,2,87,10,0.0
undo,15,31,0,0,0,14,"[0, 14]",2,25,"[1, 3, 5, 6, 7, 8, 10, 11, 12, 13, 15, 16, 17, 18, 19, 20, 21, 22, 23, 24, 25, 26, 27, 28, 29]",263.861378,2437,2281,2,59,10,1.0
undo,15,31,0,0,0,27,"[0, 14, 27]",3,22,"[1, 3, 5, 6, 7, 8, 10, 11, 12, 13, 15, 16, 17, 18, 19, 20, 21, 22, 24, 25, 28, 29]",235.6833724,3305,868,1,39,10,1.5881859159302467
undo,15,31,0,0,0,8,"[0, 14, 27, 8]",4,20,"[1, 3, 5, 6, 7, 10, 11, 12, 13, 16, 17, 18, 19, 20, 21, 22, 24, 25, 28, 29]",224.6380114,3855,550,1,36,10,2.1665048452331277
undo,15,31,0,0,0,18,"[0, 14, 27, 8, 18]",5,15,"[1, 5, 6, 7, 11, 12, 13, 16, 17, 19, 20, 22, 25, 28, 29]",188.7911147,4540,685,1,26,10,1.7273375741920205
undo,15,31,0,0,0,17,"[0, 14, 27, 8, 18, 17]",6,13,"[1, 5, 6, 7, 11, 12, 13, 16, 19, 20, 22, 25, 28]",159.584951,6491,1951,1,13,10,1.551192427769927
undo,15,31,0,0,0,11,"[0, 14, 27, 8, 18, 17, 11]",7,7,"[5, 12, 16, 19, 22, 25, 28]",118.4753414,7298,807,1,4,10,2.9650760544203494
undo,15,31,0,0,0,5,"[0, 14, 27, 8, 18, 17, 11, 5]",8,2,"[16, 28]",74.79468207,8212,914,1,1,10,2.56711965625205
undo,15,31,0,0,0,28,"[0, 14, 27, 8, 18, 17, 11, 5, 28]",9,1,[16],54.57093365,9164,952,1,0,10,2.2865510762058148
undo,15,31,0,0,1,16,"[0, 14, 27, 8, 18, 17, 11, 5, 28, 16]",10,0,[],20.95546102,10245,1081,1,0,10,2.089356850786318
undo,15,31,0,1,1,16,"[0, 14, 27, 8, 18, 17, 11, 5, 28, 16]",10,0,[],20.95546102,11020,775,1,0,10,2.089356850786318
undo,16,25,0,0,0,0,[0],1,28,"[1, 2, 3, 4, 5, 7, 8, 9, 10, 11, 12, 13, 14, 15, 16, 17, 18, 19, 20, 21, 22, 23, 24, 25, 26, 27, 28, 29]",300,176,-1,5,94,10,0.0
undo,16,25,0,0,0,23,"[0, 23]",2,23,"[1, 2, 3, 5, 7, 8, 9, 11, 12, 13, 14, 16, 17, 19, 20, 21, 22, 24, 25, 26, 27, 28, 29]",259.7756293,1944,1768,3,33,10,1.0
undo,16,25,0,0,0,7,"[0, 23, 7]",3,16,"[1, 3, 5, 8, 9, 11, 13, 17, 19, 21, 22, 24, 26, 27, 28, 29]",181.9424744,2837,893,1,21,9,1.0073109045884563
undo,16,25,0,0,0,24,"[0, 23, 7, 24]",4,10,"[3, 5, 8, 9, 11, 13, 19, 22, 28, 29]",157.1836376,3355,518,1,17,9,1.0161584555781231
undo,16,25,0,0,0,9,"[0, 23, 7, 24, 9]",5,8,"[3, 8, 11, 13, 19, 22, 28, 29]",139.1558812,4205,850,1,16,9,1.0303325523073676
undo,16,25,0,0,0,8,"[0, 23, 7, 24, 9, 8]",6,3,"[3, 13, 28]",88.9065031,10348,6143,4,1,8,1.055612641218378
undo,16,25,0,0,0,28,"[0, 23, 7, 24, 9, 8, 28]",7,2,"[3, 13]",48.29862209,10951,603,2,0,8,1.16316697389926
undo,16,25,0,0,1,3,"[0, 23, 7, 24, 9, 8, 28, 3]",8,0,[],16.99367041,11736,785,1,0,8,1.5284916606081744
undo,16,25,1,0,0,28,"[0, 23, 7, 24, 9, 8, 28]",7,2,"[3, 13]",48.29862209,13840,2104,2,0,8,1.16316697389926
undo,16,25,1,0,0,8,"[0, 23, 7, 24, 9, 8]",6,3,"[3, 13, 28]",88.9065031,14023,183,4,1,8,1.055612641218378
undo,16,25,1,0,0,9,"[0, 23, 7, 24, 9]",5,8,"[3, 8, 11, 13, 19, 22, 28, 29]",139.1558812,14141,118,1,16,9,1.0303325523073676
undo,16,25,1,0,0,24,"[0, 23, 7, 24]",4,10,"[3, 5, 8, 9, 11, 13, 19, 22, 28, 29]",157.1836376,14309,168,1,17,9,1.0161584555781231
undo,16,25,1,0,0,7,"[0, 23, 7]",3,16,"[1, 3, 5, 8, 9, 11, 13, 17, 19, 21, 22, 24, 26, 27, 28, 29]",181.9424744,14708,399,1,21,9,1.0073109045884563
undo,16,25,1,0,0,23,"[0, 23]",2,23,"[1, 2, 3, 5, 7, 8, 9, 11, 12, 13, 14, 16, 17, 19, 20, 21, 22, 24, 25, 26, 27, 28, 29]",259.7756293,15074,366,3,33,10,1.0
undo,16,25,1,0,0,0,[0],1,28,"[1, 2, 3, 4, 5, 7, 8, 9, 10, 11, 12, 13, 14, 15, 16, 17, 18, 19, 20, 21, 22, 23, 24, 25, 26, 27, 28, 29]",300,15492,418,5,94,10,0.0
undo,16,25,0,0,0,19,"[0, 19]",2,27,"[1, 2, 3, 4, 5, 7, 8, 9, 10, 11, 12, 13, 14, 15, 16, 17, 18, 20, 21, 22, 23, 24, 25, 26, 27, 28, 29]",251.9479449,18756,3264,2,30,10,1.0
undo,16,25,0,0,0,29,"[0, 19, 29]",3,26,"[1, 2, 3, 4, 5, 7, 8, 9, 10, 11, 12, 13, 14, 15, 16, 17, 18, 20, 21, 22, 23, 24, 25, 26, 27, 28]",235.6691243,19260,504,2,22,10,1.0272252084351727
undo,16,25,0,0,0,22,"[0, 19, 29, 22]",4,24,"[1, 2, 3, 4, 5, 7, 8, 9, 11, 12, 13, 14, 15, 16, 17, 18, 20, 21, 23, 24, 25, 26, 27, 28]",219.5446088,19875,615,2,17,10,1.03988854593305
undo,16,25,0,0,0,7,"[0, 19, 29, 22, 7]",5,10,"[1, 3, 5, 8, 9, 11, 13, 23, 24, 28]",143.9007062,20990,1115,2,14,10,1.3318974800137366
undo,16,25,0,0,0,24,"[0, 19, 29, 22, 7, 24]",6,7,"[3, 8, 9, 11, 13, 23, 28]",119.1418694,21457,467,2,9,10,1.2868309735722725
undo,16,25,0,0,0,9,"[0, 19, 29, 22, 7, 24, 9]",7,4,"[3, 8, 13, 28]",101.114113,22142,685,2,7,10,1.2740198715343065
undo,16,25,0,0,0,3,"[0, 19, 29, 22, 7, 24, 9, 3]",8,3,"[8, 13, 28]",70.84862112,23160,1018,2,1,10,1.2376259292234586
undo,16,25,0,0,0,28,"[0, 19, 29, 22, 7, 24, 9, 3, 28]",9,1,[13],39.54366943,24095,935,1,0,10,1.203625519961748
undo,16,25,0,0,1,13,"[0, 19, 29, 22, 7, 24, 9, 3, 28, 13]",10,0,[],5.309183897,24778,683,1,0,10,1.4620578920005771
undo,16,25,0,1,1,13,"[0, 19, 29, 22, 7, 24, 9, 3, 28, 13]",10,0,[],5.309183897,25668,890,1,0,10,1.4620578920005771
undo,17,6,0,0,0,0,[0],1,29,"[1, 2, 3, 4, 5, 6, 7, 8, 9, 10, 11, 12, 13, 14, 15, 16, 17, 18, 19, 20, 21, 22, 23, 24, 25, 26, 27, 28, 29]",300,179,-1,180,4304,10,0.0
undo,17,6,0,0,0,3,"[0, 3]",2,28,"[1, 2, 4, 5, 6, 7, 8, 9, 10, 11, 12, 13, 14, 15, 16, 17, 18, 19, 20, 21, 22, 23, 24, 25, 26, 27, 28, 29]",266.4738908,2406,2227,90,1607,10,1.0
undo,17,6,0,0,0,18,"[0, 3, 18]",3,27,"[1, 2, 4, 5, 6, 7, 8, 9, 10, 11, 12, 13, 14, 15, 16, 17, 19, 20, 21, 22, 23, 24, 25, 26, 27, 28, 29]",237.4738908,3088,682,34,516,10,1.0266750028725786
undo,17,6,0,0,0,17,"[0, 3, 18, 17]",4,26,"[1, 2, 4, 5, 6, 7, 8, 9, 10, 11, 12, 13, 14, 15, 16, 19, 20, 21, 22, 23, 24, 25, 26, 27, 28, 29]",223.5455025,3373,285,17,243,10,1.0832900829093166
undo,17,6,0,0,0,10,"[0, 3, 18, 17, 10]",5,22,"[1, 2, 4, 5, 6, 7, 8, 9, 11, 13, 14, 16, 19, 20, 21, 22, 23, 24, 26, 27, 28, 29]",203.8224196,3748,375,10,111,10,1.140294203414171
undo,17,6,0,0,0,24,"[0, 3, 18, 17, 10, 24]",6,19,"[1, 2, 4, 5, 6, 7, 8, 11, 13, 14, 16, 20, 21, 22, 23, 26, 27, 28, 29]",190.4060117,4050,302,10,80,10,1.1264281153820843
undo,17,6,0,0,0,7,"[0, 3, 18, 17, 10, 24, 7]",7,7,"[1, 2, 8, 13, 16, 26, 29]",119.4694203,8192,4142,7,2,9,3.7594224039448885
undo,17,6,0,0,0,26,"[0, 3, 18, 17, 10, 24, 7, 26]",8,3,"[1, 2, 13]",95.38623114,8709,517,3,0,9,4.113722643581588
undo,17,6,0,0,1,2,"[0, 3, 18, 17, 10, 24, 7, 26, 2]",9,0,[],65.55336336,9464,755,1,0,9,2.9556271670125684
undo,17,6,1,0,0,26,"[0, 3, 18, 17, 10, 24, 7, 26]",8,3,"[1, 2, 13]",95.38623114,18860,9396,3,0,9,4.113722643581588
undo,17,6,1,0,0,7,"[0, 3, 18, 17, 10, 24, 7]",7,7,"[1, 2, 8, 13, 16, 26, 29]",119.4694203,19027,167,7,2,9,3.7594224039448885
undo,17,6,1,0,0,24,"[0, 3, 18, 17, 10, 24]",6,19,"[1, 2, 4, 5, 6, 7, 8, 11, 13, 14, 16, 20, 21, 22, 23, 26, 27, 28, 29]",190.4060117,19179,152,10,80,10,1.1264281153820843
undo,17,6,1,0,0,10,"[0, 3, 18, 17, 10]",5,22,"[1, 2, 4, 5, 6, 7, 8, 9, 11, 13, 14, 16, 19, 20, 21, 22, 23, 24, 26, 27, 28, 29]",203.8224196,19327,148,10,111,10,1.140294203414171
undo,17,6,1,0,0,17,"[0, 3, 18, 17]",4,26,"[1, 2, 4, 5, 6, 7, 8, 9, 10, 11, 12, 13, 14, 15, 16, 19, 20, 21, 22, 23, 24, 25, 26, 27, 28, 29]",223.5455025,19511,184,17,243,10,1.0832900829093166
undo,17,6,1,0,0,18,"[0, 3, 18]",3,27,"[1, 2, 4, 5, 6, 7, 8, 9, 10, 11, 12, 13, 14, 15, 16, 17, 19, 20, 21, 22, 23, 24, 25, 26, 27, 28, 29]",237.4738908,19931,420,34,516,10,1.0266750028725786
undo,17,6,1,0,0,3,"[0, 3]",2,28,"[1, 2, 4, 5, 6, 7, 8, 9, 10, 11, 12, 13, 14, 15, 16, 17, 18, 19, 20, 21, 22, 23, 24, 25, 26, 27, 28, 29]",266.4738908,20312,381,90,1607,10,1.0
undo,17,6,0,0,0,16,"[0, 3, 16]",3,27,"[1, 2, 4, 5, 6, 7, 8, 9, 10, 11, 12, 13, 14, 15, 17, 18, 19, 20, 21, 22, 23, 24, 25, 26, 27, 28, 29]",220.2353787,21723,1411,16,190,10,1.1050742161728249
undo,17,6,0,0,0,18,"[0, 3, 16, 18]",4,24,"[1, 2, 4, 5, 6, 7, 8, 9, 10, 11, 12, 13, 14, 15, 17, 19, 20, 21, 22, 23, 24, 26, 27, 29]",196.8901436,22423,700,10,97,10,1.6930577237270534
undo,17,6,0,0,0,17,"[0, 3, 16, 18, 17]",5,20,"[1, 2, 4, 5, 6, 7, 8, 9, 10, 11, 13, 14, 20, 21, 22, 23, 24, 26, 27, 29]",182.9617553,22818,395,8,58,10,1.6583245453234965
undo,17,6,0,0,0,10,"[0, 3, 16, 18, 17, 10]",6,17,"[1, 2, 4, 5, 6, 7, 8, 11, 13, 14, 21, 22, 23, 24, 26, 27, 29]",163.2386724,23294,476,6,33,10,1.6214605156931816
undo,17,6,0,0,0,24,"[0, 3, 16, 18, 17, 10, 24]",7,15,"[1, 2, 4, 5, 6, 7, 8, 11, 13, 14, 22, 23, 26, 27, 29]",149.8222646,23576,282,6,18,10,1.5435556829623227
undo,17,6,0,0,0,7,"[0, 3, 16, 18, 17, 10, 24, 7]",8,2,"[2, 26]",78.88567316,24580,1004,2,0,10,4.604550406567428
undo,17,6,0,0,0,26,"[0, 3, 16, 18, 17, 10, 24, 7, 26]",9,1,[2],54.802484,25276,696,1,0,10,4.929651505560752
undo,17,6,0,0,1,2,"[0, 3, 16, 18, 17, 10, 24, 7, 26, 2]",10,0,[],24.96961622,26109,833,1,0,10,3.4672592693333204
undo,17,6,0,1,1,2,"[0, 3, 16, 18, 17, 10, 24, 7, 26, 2]",10,0,[],24.96961622,27321,1212,1,0,10,3.4672592693333204
undo,18,23,0,0,0,0,[0],1,28,"[1, 2, 3, 4, 5, 6, 7, 8, 9, 10, 11, 12, 13, 14, 15, 16, 17, 18, 19, 20, 21, 22, 23, 25, 26, 27, 28, 29]",300,146,-1,76,2626,10,0.0
undo,18,23,0,0,0,22,"[0, 22]",2,24,"[1, 2, 3, 5, 6, 7, 8, 9, 10, 11, 12, 13, 14, 15, 17, 18, 19, 20, 21, 23, 25, 26, 27, 29]",210.5013967,2125,1979,15,1362,10,1.0
undo,18,23,0,0,0,13,"[0, 22, 13]",3,14,"[1, 2, 5, 6, 7, 8, 9, 10, 12, 14, 18, 21, 27, 29]",168.3113504,3239,1114,14,522,10,1.1898173563652046
undo,18,23,0,0,0,12,"[0, 22, 13, 12]",4,11,"[1, 2, 6, 7, 9, 10, 14, 18, 21, 27, 29]",156.2283045,5513,2274,12,166,10,1.1727968780218219
undo,18,23,0,0,0,27,"[0, 22, 13, 12, 27]",5,6,"[2, 6, 9, 14, 18, 29]",115.4361484,8160,2647,24,10,9,1.2890498546136056
undo,18,23,0,0,0,6,"[0, 22, 13, 12, 27, 6]",6,4,"[2, 9, 14, 29]",87.13420496,8795,635,8,3,9,1.4168087827969746
undo,18,23,0,0,0,2,"[0, 22, 13, 12, 27, 6, 2]",7,3,"[9, 14, 29]",68.69511605,9294,499,4,1,9,1.6950530812130016
undo,18,23,0,0,0,9,"[0, 22, 13, 12, 27, 6, 2, 9]",8,2,"[14, 29]",55.65671124,9978,684,2,0,9,1.8702358422647571
undo,18,23,0,0,1,14,"[0, 22, 13, 12, 27, 6, 2, 9, 14]",9,0,[],45.21640473,10424,446,1,0,9,1.808386291219993
undo,18,23,1,0,0,9,"[0, 22, 13, 12, 27, 6, 2, 9]",8,2,"[14, 29]",55.65671124,22217,11793,2,0,9,1.8702358422647571
undo,18,23,1,0,0,2,"[0, 22, 13, 12, 27, 6, 2]",7,3,"[9, 14, 29]",68.69511605,22568,351,4,1,9,1.6950530812130016
undo,18,23,1,0,0,6,"[0, 22, 13, 12, 27, 6]",6,4,"[2, 9, 14, 29]",87.13420496,22732,164,8,3,9,1.4168087827969746
undo,18,23,1,0,0,27,"[0, 22, 13, 12, 27]",5,6,"[2, 6, 9, 14, 18, 29]",115.4361484,22882,150,24,10,9,1.2890498546136056
undo,18,23,1,0,0,12,"[0, 22, 13, 12]",4,11,"[1, 2, 6, 7, 9, 10, 14, 18, 21, 27, 29]",156.2283045,23132,250,12,166,10,1.1727968780218219
undo,18,23,0,0,0,2,"[0, 22, 13, 12, 2]",5,9,"[1, 6, 7, 9, 10, 14, 18, 27, 29]",142.3358605,24086,954,4,38,10,1.1553975034701014
undo,18,23,0,0,0,9,"[0, 22, 13, 12, 2, 9]",6,7,"[6, 7, 10, 14, 18, 27, 29]",129.2974557,24560,474,1,12,10,1.3065798464766785
undo,18,23,0,0,0,14,"[0, 22, 13, 12, 2, 9, 14]",7,6,"[6, 7, 10, 18, 27, 29]",118.8571492,24826,266,1,6,10,1.2857038452263323
undo,18,23,0,0,0,29,"[0, 22, 13, 12, 2, 9, 14, 29]",8,2,"[7, 10]",71.42298425,26578,1752,1,1,10,1.4822676597092734
undo,18,23,0,0,0,7,"[0, 22, 13, 12, 2, 9, 14, 29, 7]",9,1,[10],47.3397951,27913,1335,1,0,10,1.5022275496758202
undo,18,23,0,0,1,10,"[0, 22, 13, 12, 2, 9, 14, 29, 7, 10]",10,0,[],19.88073466,28769,856,1,0,10,1.46560906518872
undo,18,23,0,1,1,10,"[0, 22, 13, 12, 2, 9, 14, 29, 7, 10]",10,0,[],19.88073466,30675,1906,1,0,10,1.46560906518872
undo,19,17,0,0,0,0,[0],1,28,"[1, 2, 3, 4, 5, 6, 7, 8, 9, 10, 11, 12, 13, 14, 15, 16, 17, 18, 19, 20, 22, 23, 24, 25, 26, 27, 28, 29]",300,157,-1,2,73,8,0.0
undo,19,17,0,0,0,9,"[0, 9]",2,25,"[1, 2, 3, 5, 6, 7, 8, 10, 11, 12, 14, 15, 16, 17, 18, 19, 20, 22, 23, 24, 25, 26, 27, 28, 29]",210.5293344,5297,5140,1,34,8,1.0
undo,19,17,0,0,0,2,"[0, 9, 2]",3,20,"[1, 3, 5, 7, 8, 10, 11, 12, 14, 16, 17, 18, 19, 20, 23, 25, 26, 27, 28, 29]",188.574836,6845,1548,8,56,7,1.0757309385443783
undo,19,17,1,0,0,9,"[0, 9]",2,25,"[1, 2, 3, 5, 6, 7, 8, 10, 11, 12, 14, 15, 16, 17, 18, 19, 20, 22, 23, 24, 25, 26, 27, 28, 29]",210.5293344,8376,1531,1,34,8,1.0
undo,19,17,0,0,0,16,"[0, 9, 16]",3,21,"[1, 2, 3, 5, 7, 8, 10, 11, 12, 14, 17, 18, 19, 20, 22, 23, 25, 26, 27, 28, 29]",197.1876704,9080,704,1,26,8,1.173103464220352
undo,19,17,0,0,0,2,"[0, 9, 16, 2]",4,18,"[1, 3, 5, 7, 8, 10, 11, 12, 14, 17, 18, 19, 23, 25, 26, 27, 28, 29]",181.0631549,9648,568,1,23,8,1.14825089247282
undo,19,17,0,0,0,17,"[0, 9, 16, 2, 17]",5,7,"[7, 8, 12, 14, 26, 27, 29]",142.7356191,10482,834,4,5,7,1.4896040699768547
undo,19,17,0,0,0,8,"[0, 9, 16, 2, 17, 8]",6,3,"[7, 12, 27]",104.5256727,11232,750,3,0,7,1.4604726966175894
undo,19,17,0,0,1,7,"[0, 9, 16, 2, 17, 8, 7]",7,0,[],33.81499459,12179,947,1,0,7,1.4474701869793896
undo,19,17,1,0,0,8,"[0, 9, 16, 2, 17, 8]",6,3,"[7, 12, 27]",104.5256727,19699,7520,3,0,7,1.4604726966175894
undo,19,17,1,0,0,17,"[0, 9, 16, 2, 17]",5,7,"[7, 8, 12, 14, 26, 27, 29]",142.7356191,19832,133,4,5,7,1.4896040699768547
undo,19,17,1,0,0,2,"[0, 9, 16, 2]",4,18,"[1, 3, 5, 7, 8, 10, 11, 12, 14, 17, 18, 19, 23, 25, 26, 27, 28, 29]",181.0631549,19982,150,1,23,8,1.14825089247282
undo,19,17,1,0,0,16,"[0, 9, 16]",3,21,"[1, 2, 3, 5, 7, 8, 10, 11, 12, 14, 17, 18, 19, 20, 22, 23, 25, 26, 27, 28, 29]",197.1876704,20116,134,1,26,8,1.173103464220352
undo,19,17,0,0,0,2,"[0, 9, 16, 2]",4,18,"[1, 3, 5, 7, 8, 10, 11, 12, 14, 17, 18, 19, 23, 25, 26, 27, 28, 29]",181.0631549,21549,1433,1,23,8,1.14825089247282
undo,19,17,0,0,0,10,"[0, 9, 16, 2, 10]",5,4,"[3, 11, 23, 28]",71.04042993,22644,1095,3,2,7,1.2629477265421833
undo,19,17,0,0,0,11,"[0, 9, 16, 2, 10, 11]",6,1,[3],49.08593153,23194,550,1,0,7,1.2370659942349713
undo,19,17,0,0,1,3,"[0, 9, 16, 2, 10, 11, 3]",7,0,[],22.91342687,24680,1486,1,0,7,1.4627126127553682
undo,19,17,1,0,0,11,"[0, 9, 16, 2, 10, 11]",6,1,[3],49.08593153,27259,2579,1,0,7,1.2370659942349713
undo,19,17,0,0,1,3,"[0, 9, 16, 2, 10, 11, 3]",7,0,[],22.91342687,29150,1891,1,0,7,1.4627126127553682
undo,19,17,0,1,1,3,"[0, 9, 16, 2, 10, 11, 3]",7,0,[],22.91342687,30493,1343,1,0,7,1.4627126127553682
undo,20,3,0,0,0,0,[0],1,29,"[1, 2, 3, 4, 5, 6, 7, 8, 9, 10, 11, 12, 13, 14, 15, 16, 17, 18, 19, 20, 21, 22, 23, 24, 25, 26, 27, 28, 29]",300,146,-1,34,427,10,0.0
undo,20,3,0,0,0,17,"[0, 17]",2,16,"[3, 4, 7, 8, 10, 12, 14, 15, 16, 19, 20, 21, 22, 24, 26, 27]",197.6965299,5527,5381,2,27,9,1.0
undo,20,3,0,0,0,20,"[0, 17, 20]",3,13,"[3, 4, 7, 8, 10, 14, 15, 16, 19, 21, 22, 24, 27]",185.0474192,6030,503,2,24,9,1.0153332121237257
undo,20,3,0,0,0,3,"[0, 17, 20, 3]",4,10,"[4, 7, 8, 10, 14, 15, 16, 19, 21, 24]",164.6513412,6469,439,2,22,9,1.0819240770773468
undo,20,3,0,0,0,19,"[0, 17, 20, 3, 19]",5,6,"[4, 8, 10, 14, 21, 24]",127.3150318,7008,539,2,11,9,1.1701070532957258
undo,20,3,0,0,0,21,"[0, 17, 20, 3, 19, 21]",6,5,"[4, 8, 10, 14, 24]",115.1084762,7341,333,2,6,9,1.202395500952127
undo,20,3,0,0,0,14,"[0, 17, 20, 3, 19, 21, 14]",7,4,"[4, 8, 10, 24]",88.20122806,7994,653,2,2,9,1.6456130302761207
undo,20,3,0,0,1,10,"[0, 17, 20, 3, 19, 21, 14, 10]",8,0,[],42.74795535,8542,548,1,0,8,1.6337827075255185
undo,20,3,1,0,0,14,"[0, 17, 20, 3, 19, 21, 14]",7,4,"[4, 8, 10, 24]",88.20122806,13606,5064,2,2,9,1.6456130302761207
undo,20,3,1,0,0,21,"[0, 17, 20, 3, 19, 21]",6,5,"[4, 8, 10, 14, 24]",115.1084762,13740,134,2,6,9,1.202395500952127
undo,20,3,1,0,0,19,"[0, 17, 20, 3, 19]",5,6,"[4, 8, 10, 14, 21, 24]",127.3150318,13892,152,2,11,9,1.1701070532957258
undo,20,3,1,0,0,3,"[0, 17, 20, 3]",4,10,"[4, 7, 8, 10, 14, 15, 16, 19, 21, 24]",164.6513412,14040,148,2,22,9,1.0819240770773468
undo,20,3,1,0,0,20,"[0, 17, 20]",3,13,"[3, 4, 7, 8, 10, 14, 15, 16, 19, 21, 22, 24, 27]",185.0474192,14307,267,2,24,9,1.0153332121237257
undo,20,3,1,0,0,17,"[0, 17]",2,16,"[3, 4, 7, 8, 10, 12, 14, 15, 16, 19, 20, 21, 22, 24, 26, 27]",197.6965299,14607,300,2,27,9,1.0
undo,20,3,1,0,0,0,[0],1,29,"[1, 2, 3, 4, 5, 6, 7, 8, 9, 10, 11, 12, 13, 14, 15, 16, 17, 18, 19, 20, 21, 22, 23, 24, 25, 26, 27, 28, 29]",300,14957,350,34,427,10,0.0
undo,20,3,0,0,0,8,"[0, 8]",2,28,"[1, 2, 3, 4, 5, 6, 7, 9, 10, 11, 12, 13, 14, 15, 16, 17, 18, 19, 20, 21, 22, 23, 24, 25, 26, 27, 28, 29]",239.9666759,16554,1597,1,54,10,1.0
undo,20,3,0,0,0,24,"[0, 8, 24]",3,23,"[1, 2, 3, 4, 5, 6, 7, 10, 11, 12, 14, 15, 16, 17, 18, 19, 20, 21, 22, 25, 26, 27, 28]",227.8011509,17188,634,1,50,10,1.2267083825981846
undo,20,3,0,0,0,17,"[0, 8, 24, 17]",4,11,"[3, 4, 7, 10, 14, 15, 16, 19, 20, 21, 27]",158.4469873,17828,640,1,18,10,1.3836579788002414
undo,20,3,0,0,0,20,"[0, 8, 24, 17, 20]",5,9,"[3, 4, 7, 10, 14, 15, 16, 19, 21]",145.7978767,18206,378,1,14,10,1.3620097615632467
undo,20,3,0,0,0,3,"[0, 8, 24, 17, 20, 3]",6,5,"[4, 10, 14, 19, 21]",125.4017986,19972,1766,1,11,10,1.3956695218398405
undo,20,3,0,0,0,19,"[0, 8, 24, 17, 20, 3, 19]",7,4,"[4, 10, 14, 21]",88.06548922,21073,1101,1,4,10,1.4360605238855817
undo,20,3,0,0,0,21,"[0, 8, 24, 17, 20, 3, 19, 21]",8,2,"[10, 14]",75.85893361,21644,571,1,1,10,1.4576450248605066
undo,20,3,0,0,0,14,"[0, 8, 24, 17, 20, 3, 19, 21, 14]",9,1,[10],48.95168551,22430,786,1,0,10,1.9505702217699148
undo,20,3,0,0,1,10,"[0, 8, 24, 17, 20, 3, 19, 21, 14, 10]",10,0,[],3.498412803,24360,1930,1,0,10,1.8830527336542522
undo,20,3,0,1,1,10,"[0, 8, 24, 17, 20, 3, 19, 21, 14, 10]",10,0,[],3.498412803,26189,1829,1,0,10,1.8830527336542522
undo,21,38,0,0,0,0,[0],1,29,"[1, 2, 3, 4, 5, 6, 7, 8, 9, 10, 11, 12, 13, 14, 15, 16, 17, 18, 19, 20, 21, 22, 23, 24, 25, 26, 27, 28, 29]",300,180,-1,33,506,9,0.0
undo,21,38,0,0,0,19,"[0, 19]",2,23,"[3, 4, 5, 6, 7, 8, 9, 11, 13, 14, 15, 16, 17, 18, 20, 22, 23, 24, 25, 26, 27, 28, 29]",219.5015528,4176,3996,6,61,9,1.0
undo,21,38,0,0,0,17,"[0, 19, 17]",3,21,"[3, 4, 5, 6, 7, 9, 11, 13, 14, 15, 16, 18, 20, 22, 23, 24, 25, 26, 27, 28, 29]",198.1239945,5239,1063,6,53,9,1.571793785769489
undo,21,38,0,0,0,20,"[0, 19, 17, 20]",4,17,"[3, 4, 5, 6, 7, 11, 13, 14, 15, 16, 18, 22, 24, 25, 26, 27, 28]",174.3542658,5818,579,6,44,9,2.333182710277297
undo,21,38,0,0,0,4,"[0, 19, 17, 20, 4]",5,10,"[5, 11, 13, 14, 15, 16, 24, 26, 27, 28]",140.4131403,6708,890,5,22,9,2.276099229646013
undo,21,38,0,0,0,15,"[0, 19, 17, 20, 4, 15]",6,8,"[5, 11, 13, 14, 16, 24, 26, 28]",114.4131403,7075,367,5,6,9,2.5292671156176403
undo,21,38,0,0,0,11,"[0, 19, 17, 20, 4, 15, 11]",7,2,"[16, 28]",78.01259089,7794,719,2,0,9,2.778100109749787
undo,21,38,0,0,0,28,"[0, 19, 17, 20, 4, 15, 11, 28]",8,1,[16],50.99407872,8243,449,1,0,9,2.3316428595723258
undo,21,38,0,0,1,16,"[0, 19, 17, 20, 4, 15, 11, 28, 16]",9,0,[],21.99407872,8959,716,1,0,9,2.5408012360364265
undo,21,38,1,0,0,28,"[0, 19, 17, 20, 4, 15, 11, 28]",8,1,[16],50.99407872,16041,7082,1,0,9,2.3316428595723258
undo,21,38,1,0,0,11,"[0, 19, 17, 20, 4, 15, 11]",7,2,"[16, 28]",78.01259089,16208,167,2,0,9,2.778100109749787
undo,21,38,1,0,0,15,"[0, 19, 17, 20, 4, 15]",6,8,"[5, 11, 13, 14, 16, 24, 26, 28]",114.4131403,16358,150,5,6,9,2.5292671156176403
undo,21,38,1,0,0,4,"[0, 19, 17, 20, 4]",5,10,"[5, 11, 13, 14, 15, 16, 24, 26, 27, 28]",140.4131403,16492,134,5,22,9,2.276099229646013
undo,21,38,1,0,0,20,"[0, 19, 17, 20]",4,17,"[3, 4, 5, 6, 7, 11, 13, 14, 15, 16, 18, 22, 24, 25, 26, 27, 28]",174.3542658,16725,233,6,44,9,2.333182710277297
undo,21,38,0,0,0,13,"[0, 19, 17, 20, 13]",5,9,"[4, 11, 15, 16, 18, 24, 26, 27, 28]",125.0998244,17690,965,1,11,9,1.7893595974504246
undo,21,38,0,0,0,4,"[0, 19, 17, 20, 13, 4]",6,6,"[11, 15, 16, 24, 26, 28]",93.69918748,18502,812,1,6,9,2.942354535547757
undo,21,38,0,0,0,15,"[0, 19, 17, 20, 13, 4, 15]",7,4,"[11, 16, 26, 28]",67.69918748,19404,902,1,3,9,3.165907365359093
undo,21,38,0,0,0,11,"[0, 19, 17, 20, 13, 4, 15, 11]",8,1,[28],31.29863803,20187,783,1,0,9,3.362710012119994
undo,21,38,0,0,1,28,"[0, 19, 17, 20, 13, 4, 15, 11, 28]",9,0,[],4.280125857,20805,618,1,0,9,2.7690631991189285
undo,21,38,0,1,1,28,"[0, 19, 17, 20, 13, 4, 15, 11, 28]",9,0,[],4.280125857,22367,1562,1,0,9,2.7690631991189285
undo,22,20,0,0,0,0,[0],1,21,"[1, 2, 3, 4, 5, 6, 7, 8, 9, 12, 17, 18, 20, 21, 22, 23, 25, 26, 27, 28, 29]",300,141,-1,1,9,9,0.0
undo,22,20,0,0,0,21,"[0, 21]",2,11,"[1, 4, 5, 6, 8, 9, 20, 23, 26, 27, 28]",129.4215723,8577,8436,3,14,6,1.0
undo,22,20,1,0,0,0,[0],1,21,"[1, 2, 3, 4, 5, 6, 7, 8, 9, 12, 17, 18, 20, 21, 22, 23, 25, 26, 27, 28, 29]",300,10201,1624,1,9,9,0.0
undo,22,20,0,0,0,12,"[0, 12]",2,20,"[1, 2, 3, 4, 5, 6, 7, 8, 9, 17, 18, 20, 21, 22, 23, 25, 26, 27, 28, 29]",271.5570747,11462,1261,1,8,9,1.0
undo,22,20,0,0,0,5,"[0, 12, 5]",3,13,"[1, 3, 4, 6, 8, 9, 20, 21, 23, 26, 27, 28, 29]",171.4321527,12564,1102,2,19,8,1.0232843285905395
undo,22,20,0,0,0,21,"[0, 12, 5, 21]",4,10,"[1, 4, 6, 8, 9, 20, 23, 26, 27, 28]",126.4321527,13383,819,2,12,8,1.017525191374897
undo,22,20,0,0,0,8,"[0, 12, 5, 21, 8]",5,6,"[1, 6, 9, 23, 27, 28]",108.9679035,14098,715,2,6,8,1.0391698601004782
undo,22,20,0,0,0,27,"[0, 12, 5, 21, 8, 27]",6,2,"[9, 23]",68.7435328,15485,1387,2,0,7,1.215457006812467
undo,22,20,0,0,1,23,"[0, 12, 5, 21, 8, 27, 23]",7,0,[],16.73391831,16504,1019,1,0,7,1.2435798161364517
undo,22,20,1,0,0,27,"[0, 12, 5, 21, 8, 27]",6,2,"[9, 23]",68.7435328,21197,4693,2,0,7,1.215457006812467
undo,22,20,1,0,0,8,"[0, 12, 5, 21, 8]",5,6,"[1, 6, 9, 23, 27, 28]",108.9679035,21347,150,2,6,8,1.0391698601004782
undo,22,20,1,0,0,21,"[0, 12, 5, 21]",4,10,"[1, 4, 6, 8, 9, 20, 23, 26, 27, 28]",126.4321527,21480,133,2,12,8,1.017525191374897
undo,22,20,1,0,0,5,"[0, 12, 5]",3,13,"[1, 3, 4, 6, 8, 9, 20, 21, 23, 26, 27, 28, 29]",171.4321527,21647,167,2,19,8,1.0232843285905395
undo,22,20,1,0,0,12,"[0, 12]",2,20,"[1, 2, 3, 4, 5, 6, 7, 8, 9, 17, 18, 20, 21, 22, 23, 25, 26, 27, 28, 29]",271.5570747,22298,651,1,8,9,1.0
undo,22,20,0,0,0,1,"[0, 12, 1]",3,12,"[3, 4, 5, 6, 8, 9, 20, 21, 23, 27, 28, 29]",189.5692707,22891,593,1,6,9,1.0757997779162911
undo,22,20,0,0,0,5,"[0, 12, 1, 5]",4,10,"[4, 6, 8, 9, 20, 21, 23, 27, 28, 29]",152.8950291,23224,333,1,5,9,1.1708231454516806
undo,22,20,0,0,0,28,"[0, 12, 1, 5, 28]",5,4,"[8, 9, 21, 23]",82.8593239,24809,1585,2,2,7,1.1313554119713172
undo,22,20,0,0,0,21,"[0, 12, 1, 5, 28, 21]",6,1,[8],46.61018598,26026,1217,1,0,7,1.4854739689057037
undo,22,20,0,0,1,8,"[0, 12, 1, 5, 28, 21, 8]",7,0,[],29.14593678,26929,903,1,0,7,1.473382662603891
undo,22,20,0,1,1,8,"[0, 12, 1, 5, 28, 21, 8]",7,0,[],29.14593678,28353,1424,1,0,7,1.473382662603891
basic,23,20,0,0,0,0,[0],1,21,"[1, 2, 3, 4, 5, 6, 7, 8, 9, 12, 17, 18, 20, 21, 22, 23, 25, 26, 27, 28, 29]",300,183,-1,1,9,9,0.0
basic,23,20,0,0,0,1,"[0, 1]",2,14,"[3, 4, 5, 6, 8, 9, 12, 20, 21, 23, 26, 27, 28, 29]",197.3501096,4429,4246,1,9,8,1.0
basic,23,20,0,0,0,5,"[0, 1, 5]",3,12,"[4, 6, 8, 9, 12, 20, 21, 23, 26, 27, 28, 29]",160.675868,5317,888,1,8,8,1.1088946720668915
basic,23,20,0,0,0,21,"[0, 1, 5, 21]",4,8,"[4, 6, 8, 9, 20, 23, 27, 28]",115.675868,6479,1162,1,6,8,1.0805828994591202
basic,23,20,0,0,0,28,"[0, 1, 5, 21, 28]",5,2,"[8, 23]",79.42673003,8665,2186,2,0,6,1.149240055796114
basic,23,20,0,0,1,8,"[0, 1, 5, 21, 28, 8]",6,0,[],36.24108427,9351,686,1,0,6,1.4347867221328323
basic,23,20,0,1,1,8,"[0, 1, 5, 21, 28, 8]",6,0,[],36.24108427,10673,1322,1,0,6,1.4347867221328323
basic,24,38,0,0,0,0,[0],1,29,"[1, 2, 3, 4, 5, 6, 7, 8, 9, 10, 11, 12, 13, 14, 15, 16, 17, 18, 19, 20, 21, 22, 23, 24, 25, 26, 27, 28, 29]",300,157,-1,33,506,9,0.0
basic,24,38,0,0,0,11,"[0, 11]",2,23,"[1, 2, 3, 4, 5, 7, 10, 12, 13, 14, 15, 16, 17, 18, 19, 20, 21, 22, 24, 25, 26, 27, 28]",220.093805,3857,3700,2,40,9,1.0
basic,24,38,0,0,0,15,"[0, 11, 15]",3,19,"[1, 3, 4, 5, 7, 10, 12, 13, 14, 16, 17, 18, 19, 20, 22, 24, 26, 27, 28]",183.6932555,5281,1424,11,93,8,1.5850843355177096
basic,24,38,0,0,0,4,"[0, 11, 15, 4]",4,15,"[3, 5, 12, 13, 14, 16, 17, 18, 19, 20, 22, 24, 26, 27, 28]",157.6932555,6061,780,8,37,8,2.02964249148567
basic,24,38,0,0,0,20,"[0, 11, 15, 4, 20]",5,10,"[3, 5, 13, 16, 17, 19, 24, 26, 27, 28]",123.7521301,7968,1907,5,11,8,3.2728407804065545
basic,24,38,0,0,0,17,"[0, 11, 15, 4, 20, 17]",6,5,"[3, 13, 19, 26, 27]",99.9824014,10102,2134,4,3,8,3.0859711958770903
basic,24,38,0,0,0,13,"[0, 11, 15, 4, 20, 17, 13]",7,1,[26],38.26530491,13084,2982,1,0,8,2.6777416720046565
basic,24,38,0,0,1,26,"[0, 11, 15, 4, 20, 17, 13, 26]",8,0,[],7.216955515,13869,785,1,0,8,2.3255800285667414
basic,24,38,0,1,1,26,"[0, 11, 15, 4, 20, 17, 13, 26]",8,0,[],7.216955515,14726,857,1,0,8,2.3255800285667414
basic,25,30,0,0,0,0,[0],1,19,"[3, 4, 5, 7, 9, 11, 16, 17, 18, 19, 20, 21, 22, 24, 25, 26, 27, 28, 29]",300,174,-1,5,41,8,0.0
basic,25,30,0,0,0,25,"[0, 25]",2,12,"[3, 5, 7, 9, 11, 16, 18, 19, 20, 24, 27, 29]",121.1005869,2052,1878,7,37,7,1.0
basic,25,30,0,0,0,20,"[0, 25, 20]",3,9,"[3, 5, 7, 9, 11, 18, 19, 27, 29]",99.16887472,2904,852,5,16,7,1.0037291321296267
basic,25,30,0,0,0,27,"[0, 25, 20, 27]",4,4,"[3, 5, 18, 29]",65.11010199,3754,850,4,6,7,1.1217072851053165
basic,25,30,0,0,0,3,"[0, 25, 20, 27, 3]",5,3,"[5, 18, 29]",46.00512882,4371,617,4,0,7,1.1140018780928678
basic,25,30,0,0,0,29,"[0, 25, 20, 27, 3, 29]",6,1,[18],27.40405358,4922,551,1,0,7,1.119672312555708
basic,25,30,0,0,1,18,"[0, 25, 20, 27, 3, 29, 18]",7,0,[],8.090845662,5506,584,1,0,7,1.1951451398733344
basic,25,30,0,1,1,18,"[0, 25, 20, 27, 3, 29, 18]",7,0,[],8.090845662,6648,1142,1,0,7,1.1951451398733344
basic,26,26,0,0,0,0,[0],1,29,"[1, 2, 3, 4, 5, 6, 7, 8, 9, 10, 11, 12, 13, 14, 15, 16, 17, 18, 19, 20, 21, 22, 23, 24, 25, 26, 27, 28, 29]",300,142,-1,9,226,9,0.0
basic,26,26,0,0,0,16,"[0, 16]",2,17,"[3, 4, 5, 6, 10, 11, 12, 13, 14, 17, 18, 19, 21, 22, 23, 26, 29]",188.0535842,2770,2628,34,176,8,1.0
basic,26,26,0,0,0,29,"[0, 16, 29]",3,12,"[4, 5, 6, 10, 12, 13, 14, 17, 19, 21, 23, 26]",163.8461474,3457,687,32,68,8,1.1142946124989752
basic,26,26,0,0,0,4,"[0, 16, 29, 4]",4,9,"[5, 6, 10, 12, 13, 14, 17, 21, 23]",139.8461474,4122,665,17,7,8,1.3213762371676339
basic,26,26,0,0,0,17,"[0, 16, 29, 4, 17]",5,5,"[6, 10, 14, 21, 23]",118.7511243,4907,785,6,0,8,1.2756100061290643
basic,26,26,0,0,0,14,"[0, 16, 29, 4, 17, 14]",6,2,"[6, 10]",96.27891921,5757,850,2,0,8,1.264154039440982
basic,26,26,0,0,0,6,"[0, 16, 29, 4, 17, 14, 6]",7,1,[10],75.25512317,6190,433,1,0,8,1.3993089646092733
basic,26,26,0,0,1,10,"[0, 16, 29, 4, 17, 14, 6, 10]",8,0,[],45.98056083,7158,968,1,0,8,1.5697867669370302
basic,26,26,0,1,1,10,"[0, 16, 29, 4, 17, 14, 6, 10]",8,0,[],45.98056083,23499,16341,1,0,8,1.5697867669370302
basic,27,19,0,0,0,0,[0],1,29,"[1, 2, 3, 4, 5, 6, 7, 8, 9, 10, 11, 12, 13, 14, 15, 16, 17, 18, 19, 20, 21, 22, 23, 24, 25, 26, 27, 28, 29]",300,151,-1,12,149,8,0.0
basic,27,19,0,0,0,12,"[0, 12]",2,15,"[1, 2, 3, 5, 8, 9, 13, 16, 17, 18, 19, 21, 23, 25, 29]",180.3964883,13368,13217,9,58,7,1.0
basic,27,19,0,0,0,25,"[0, 12, 25]",3,11,"[1, 2, 3, 8, 13, 16, 17, 18, 19, 23, 29]",163.2792456,13982,614,3,32,7,1.002593021312995
basic,27,19,0,0,0,17,"[0, 12, 25, 17]",4,10,"[1, 2, 3, 8, 13, 16, 18, 19, 23, 29]",152.2338846,14650,668,3,14,7,1.0661324787663027
basic,27,19,0,0,0,23,"[0, 12, 25, 17, 23]",5,4,"[1, 3, 8, 19]",73.51920994,18356,3706,2,2,7,1.2595880132307544
basic,27,19,0,0,0,3,"[0, 12, 25, 17, 23, 3]",6,1,[8],51.58749774,18870,514,1,0,7,1.2326532183027346
basic,27,19,0,0,1,8,"[0, 12, 25, 17, 23, 3, 8]",7,0,[],28.26369016,19571,701,1,0,7,1.2470086104677123
basic,27,19,0,1,1,8,"[0, 12, 25, 17, 23, 3, 8]",7,0,[],28.26369016,20364,793,1,0,7,1.2470086104677123
basic,28,18,0,0,0,0,[0],1,28,"[1, 2, 3, 4, 5, 6, 7, 8, 9, 10, 11, 12, 13, 14, 16, 17, 18, 19, 20, 21, 22, 23, 24, 25, 26, 27, 28, 29]",300,154,-1,3,136,10,0.0
basic,28,18,0,0,0,28,"[0, 28]",2,16,"[1, 3, 5, 7, 8, 9, 12, 13, 14, 16, 20, 23, 24, 25, 26, 27]",236.4311397,1970,1816,2,19,10,1.0
basic,28,18,0,0,0,7,"[0, 28, 7]",3,15,"[1, 3, 5, 8, 9, 12, 13, 14, 16, 20, 23, 24, 25, 26, 27]",214.4084242,2584,614,2,17,10,1.4345180696367563
basic,28,18,0,0,0,25,"[0, 28, 7, 25]",4,13,"[1, 3, 5, 8, 9, 12, 13, 14, 16, 20, 23, 26, 27]",186.6055466,3470,886,2,15,10,1.8896451241781882
basic,28,18,0,0,0,8,"[0, 28, 7, 25, 8]",5,10,"[3, 5, 9, 12, 13, 14, 16, 23, 26, 27]",149.551532,4335,865,2,10,10,1.590467437592877
basic,28,18,0,0,0,3,"[0, 28, 7, 25, 8, 3]",6,6,"[5, 12, 13, 14, 23, 27]",121.4801943,5737,1402,1,10,9,1.4587755974793148
basic,28,18,0,0,0,14,"[0, 28, 7, 25, 8, 3, 14]",7,4,"[5, 12, 13, 27]",91.39697637,6760,1023,4,0,8,1.8606737724243565
basic,28,18,0,0,1,13,"[0, 28, 7, 25, 8, 3, 14, 13]",8,0,[],72.42331041,7205,445,1,0,8,2.4208916262893254
basic,28,18,0,1,1,13,"[0, 28, 7, 25, 8, 3, 14, 13]",8,0,[],72.42331041,11400,4195,1,0,8,2.4208916262893254
basic,29,4,0,0,0,0,[0],1,26,"[3, 4, 5, 6, 7, 8, 10, 11, 12, 13, 14, 15, 16, 17, 18, 19, 20, 21, 22, 23, 24, 25, 26, 27, 28, 29]",300,142,-1,4,489,10,0.0
basic,29,4,0,0,0,28,"[0, 28]",2,21,"[3, 4, 5, 6, 10, 11, 12, 13, 14, 15, 16, 17, 19, 20, 21, 22, 23, 24, 25, 26, 27]",225.9392142,2175,2033,2,216,10,1.0
basic,29,4,0,0,0,14,"[0, 28, 14]",3,13,"[3, 4, 5, 6, 11, 13, 16, 17, 20, 21, 22, 24, 25]",159.6972335,2941,766,1,26,10,1.0273973946789214
basic,29,4,0,0,0,25,"[0, 28, 14, 25]",4,12,"[3, 4, 5, 6, 11, 13, 16, 17, 20, 21, 22, 24]",143.572718,3511,570,1,25,10,1.233547772313525
basic,29,4,0,0,0,11,"[0, 28, 14, 25, 11]",5,10,"[3, 4, 5, 6, 13, 16, 17, 20, 21, 22]",124.7844238,4373,862,1,15,10,1.425978575879479
basic,29,4,0,0,0,16,"[0, 28, 14, 25, 11, 16]",6,9,"[3, 4, 5, 6, 13, 17, 20, 21, 22]",109.7844238,4806,433,1,12,10,1.3799325158051412
basic,29,4,0,0,0,21,"[0, 28, 14, 25, 11, 16, 21]",7,4,"[5, 17, 20, 22]",65.58035157,6675,1869,3,3,9,1.5860540591673642
basic,29,4,0,0,0,22,"[0, 28, 14, 25, 11, 16, 21, 22]",8,3,"[5, 17, 20]",54.53499056,7225,550,3,0,9,1.5471132483772176
basic,29,4,0,0,1,20,"[0, 28, 14, 25, 11, 16, 21, 22, 20]",9,0,[],24.30255764,8110,885,1,0,9,1.5087977616865345
basic,29,4,0,1,1,20,"[0, 28, 14, 25, 11, 16, 21, 22, 20]",9,0,[],24.30255764,9269,1159,1,0,9,1.5087977616865345
basic,30,42,0,0,0,0,[0],1,29,"[1, 2, 3, 4, 5, 6, 7, 8, 9, 10, 11, 12, 13, 14, 15, 16, 17, 18, 19, 20, 21, 22, 23, 24, 25, 26, 27, 28, 29]",300,144,-1,16,302,9,0.0
basic,30,42,0,0,0,5,"[0, 5]",2,28,"[1, 2, 3, 4, 6, 7, 8, 9, 10, 11, 12, 13, 14, 15, 16, 17, 18, 19, 20, 21, 22, 23, 24, 25, 26, 27, 28, 29]",191.2939744,3507,3363,1,22,9,1.0
basic,30,42,0,0,0,4,"[0, 5, 4]",3,23,"[1, 2, 3, 6, 7, 8, 9, 10, 11, 13, 15, 17, 18, 19, 20, 21, 22, 23, 24, 25, 26, 27, 29]",171.4445412,4238,731,1,14,9,1.420957801478707
basic,30,42,0,0,0,22,"[0, 5, 4, 22]",4,20,"[1, 2, 3, 6, 7, 8, 9, 11, 15, 17, 18, 19, 20, 21, 23, 24, 25, 26, 27, 29]",160.2642013,4957,719,1,11,9,1.5771494659680896
basic,30,42,0,0,0,8,"[0, 5, 4, 22, 8]",5,14,"[1, 2, 3, 6, 7, 11, 15, 18, 19, 24, 25, 26, 27, 29]",138.1282577,5472,515,1,10,9,1.5055393955524201
basic,30,42,0,0,0,1,"[0, 5, 4, 22, 8, 1]",6,5,"[2, 7, 19, 26, 27]",89.03650682,6306,834,1,7,9,1.3547259083637835
basic,30,42,0,0,0,7,"[0, 5, 4, 22, 8, 1, 7]",7,4,"[2, 19, 26, 27]",59.03650682,7041,735,1,3,9,1.3909715672447451
basic,30,42,0,0,0,26,"[0, 5, 4, 22, 8, 1, 7, 26]",8,1,[27],32.46584631,8313,1272,1,0,9,1.3511825943939393
basic,30,42,0,0,1,27,"[0, 5, 4, 22, 8, 1, 7, 26, 27]",9,0,[],14.43808994,9137,824,1,0,9,1.3391911688802078
basic,30,42,0,1,1,27,"[0, 5, 4, 22, 8, 1, 7, 26, 27]",9,0,[],14.43808994,9968,831,1,0,9,1.3391911688802078
basic,31,45,0,0,0,0,[0],1,24,"[1, 2, 3, 4, 5, 6, 7, 9, 10, 11, 12, 14, 15, 16, 17, 19, 20, 21, 22, 23, 24, 25, 27, 29]",300,143,-1,6,248,10,0.0
basic,31,45,0,0,0,15,"[0, 15]",2,23,"[1, 2, 3, 4, 5, 6, 7, 9, 10, 11, 12, 14, 16, 17, 19, 20, 21, 22, 23, 24, 25, 27, 29]",253.9022777,5713,5570,5,207,10,1.0
basic,31,45,0,0,0,23,"[0, 15, 23]",3,22,"[1, 2, 3, 4, 5, 6, 7, 9, 10, 11, 12, 14, 16, 17, 19, 20, 21, 22, 24, 25, 27, 29]",230.3014303,6280,567,5,163,10,1.0006068457769497
basic,31,45,0,0,0,20,"[0, 15, 23, 20]",4,19,"[1, 2, 3, 5, 6, 7, 9, 10, 11, 12, 14, 16, 17, 19, 21, 22, 24, 25, 29]",188.8647316,7159,879,5,137,10,1.2062119754673604
basic,31,45,0,0,0,10,"[0, 15, 23, 20, 10]",5,12,"[2, 3, 6, 7, 9, 12, 14, 17, 22, 24, 25, 29]",132.784432,8245,1086,1,54,10,1.1363907740691004
basic,31,45,0,0,0,29,"[0, 15, 23, 20, 10, 29]",6,8,"[2, 3, 6, 7, 12, 14, 22, 24]",111.2437728,9995,1750,1,21,10,1.1719694806770014
basic,31,45,0,0,0,3,"[0, 15, 23, 20, 10, 29, 3]",7,5,"[2, 6, 7, 12, 22]",91.24377276,10946,951,1,7,10,1.1637144299354454
basic,31,45,0,0,0,6,"[0, 15, 23, 20, 10, 29, 3, 6]",8,2,"[12, 22]",55.0084309,11864,918,1,1,10,1.422423644740367
basic,31,45,0,0,0,12,"[0, 15, 23, 20, 10, 29, 3, 6, 12]",9,1,[22],34.8838191,12714,850,1,0,10,1.395348320526316
basic,31,45,0,0,1,22,"[0, 15, 23, 20, 10, 29, 3, 6, 12, 22]",10,0,[],3.308512292,13749,1035,1,0,10,1.3962454826892252
basic,31,45,0,1,1,22,"[0, 15, 23, 20, 10, 29, 3, 6, 12, 22]",10,0,[],3.308512292,14690,941,1,0,10,1.3962454826892252
basic,32,11,0,0,0,0,[0],1,25,"[1, 2, 3, 4, 5, 6, 8, 9, 10, 11, 12, 13, 14, 15, 16, 17, 18, 19, 20, 22, 23, 25, 26, 27, 28]",300,149,-1,6,374,12,0.0
basic,32,11,0,0,0,17,"[0, 17]",2,18,"[1, 2, 4, 5, 6, 8, 10, 11, 12, 15, 18, 19, 22, 23, 25, 26, 27, 28]",152.9217895,2553,2404,218,762,9,1.0
basic,32,11,0,0,0,8,"[0, 17, 8]",3,15,"[1, 2, 4, 5, 6, 11, 12, 15, 18, 19, 22, 23, 25, 27, 28]",138.6039684,3723,1170,95,263,9,1.1114912532636003
basic,32,11,0,0,0,15,"[0, 17, 8, 15]",4,11,"[2, 5, 6, 11, 12, 18, 19, 22, 25, 27, 28]",125.1503444,4456,733,62,51,9,1.1146194627724886
basic,32,11,0,0,0,11,"[0, 17, 8, 15, 11]",5,9,"[2, 5, 6, 12, 19, 22, 25, 27, 28]",107.0395741,4926,470,24,2,9,1.1130192047684102
basic,32,11,0,0,0,28,"[0, 17, 8, 15, 11, 28]",6,4,"[2, 5, 19, 22]",87.62308629,5440,514,6,2,9,1.2290091933070886
basic,32,11,0,0,0,5,"[0, 17, 8, 15, 11, 28, 5]",7,2,"[2, 22]",69.73454247,5942,502,2,0,9,1.4153375425476789
basic,32,11,0,0,0,2,"[0, 17, 8, 15, 11, 28, 5, 2]",8,1,[22],52.73454247,6777,835,1,0,9,1.3853330540064914
basic,32,11,0,0,1,22,"[0, 17, 8, 15, 11, 28, 5, 2, 22]",9,0,[],42.68466685,7614,837,1,0,9,1.3648232332892756
basic,32,11,0,1,1,22,"[0, 17, 8, 15, 11, 28, 5, 2, 22]",9,0,[],42.68466685,10369,2755,1,0,9,1.3648232332892756
basic,33,40,0,0,0,0,[0],1,29,"[1, 2, 3, 4, 5, 6, 7, 8, 9, 10, 11, 12, 13, 14, 15, 16, 17, 18, 19, 20, 21, 22, 23, 24, 25, 26, 27, 28, 29]",300,159,-1,8,191,9,0.0
basic,33,40,0,0,0,1,"[0, 1]",2,18,"[2, 5, 6, 7, 8, 9, 10, 11, 13, 15, 17, 18, 19, 21, 22, 23, 27, 29]",247.8463808,5779,5620,4,80,9,1.0
basic,33,40,0,0,0,6,"[0, 1, 6]",3,17,"[2, 5, 7, 8, 9, 10, 11, 13, 15, 17, 18, 19, 21, 22, 23, 27, 29]",227.7466295,6241,462,4,74,9,1.0459427008232034
basic,33,40,0,0,0,21,"[0, 1, 6, 21]",4,8,"[2, 5, 9, 17, 18, 19, 22, 23]",175.7754837,7425,1184,4,25,9,1.0308822257404064
basic,33,40,0,0,0,9,"[0, 1, 6, 21, 9]",5,6,"[2, 5, 18, 19, 22, 23]",130.0699041,8495,1070,4,12,9,1.377861912961129
basic,33,40,0,0,0,18,"[0, 1, 6, 21, 9, 18]",6,5,"[2, 5, 19, 22, 23]",113.5169588,8915,420,4,4,9,1.5742712168661408
basic,33,40,0,0,0,5,"[0, 1, 6, 21, 9, 18, 5]",7,3,"[19, 22, 23]",81.94165198,9679,764,2,1,9,1.7730665063055515
basic,33,40,0,0,0,23,"[0, 1, 6, 21, 9, 18, 5, 23]",8,1,[19],53.63970859,10136,457,1,0,9,2.597442759912231
basic,33,40,0,0,1,19,"[0, 1, 6, 21, 9, 18, 5, 23, 19]",9,0,[],21.68661797,10880,744,1,0,9,2.7128328554069565
basic,33,40,0,1,1,19,"[0, 1, 6, 21, 9, 18, 5, 23, 19]",9,0,[],21.68661797,12238,1358,1,0,9,2.7128328554069565
basic,34,44,0,0,0,0,[0],1,29,"[1, 2, 3, 4, 5, 6, 7, 8, 9, 10, 11, 12, 13, 14, 15, 16, 17, 18, 19, 20, 21, 22, 23, 24, 25, 26, 27, 28, 29]",300,153,-1,13,126,7,0.0
basic,34,44,0,0,0,14,"[0, 14]",2,15,"[4, 5, 6, 7, 9, 11, 12, 16, 17, 19, 22, 23, 24, 26, 28]",121.156493,15549,15396,2,9,6,1.0
basic,34,44,0,0,0,11,"[0, 14, 11]",3,5,"[4, 7, 9, 23, 24]",88.95400861,16351,802,2,3,6,1.4335325978948263
basic,34,44,0,0,0,24,"[0, 14, 11, 24]",4,3,"[4, 7, 9]",62.02818458,16801,450,2,1,6,1.5836307949102126
basic,34,44,0,0,0,9,"[0, 14, 11, 24, 9]",5,1,[4],29.27150587,17702,901,1,0,6,1.7061741313740282
basic,34,44,0,0,1,4,"[0, 14, 11, 24, 9, 4]",6,0,[],9.573790265,18035,333,1,0,6,1.653515319219223
basic,34,44,0,1,1,4,"[0, 14, 11, 24, 9, 4]",6,0,[],9.573790265,19548,1513,1,0,6,1.653515319219223
basic,35,5,0,0,0,0,[0],1,29,"[1, 2, 3, 4, 5, 6, 7, 8, 9, 10, 11, 12, 13, 14, 15, 16, 17, 18, 19, 20, 21, 22, 23, 24, 25, 26, 27, 28, 29]",300,147,-1,5,139,9,0.0
basic,35,5,0,0,0,12,"[0, 12]",2,22,"[2, 4, 5, 6, 8, 9, 10, 13, 14, 15, 16, 17, 18, 19, 21, 22, 23, 24, 25, 26, 27, 28]",228.3062067,2219,2072,1,27,9,1.0
basic,35,5,0,0,0,25,"[0, 12, 25]",3,21,"[2, 4, 5, 6, 8, 9, 10, 13, 14, 15, 16, 17, 18, 19, 21, 22, 23, 24, 26, 27, 28]",200.5213187,3025,806,1,20,9,1.584023303445617
basic,35,5,0,0,0,23,"[0, 12, 25, 23]",4,19,"[2, 4, 5, 6, 8, 9, 10, 13, 14, 15, 16, 17, 18, 19, 21, 22, 24, 26, 27]",182.0822298,3338,313,1,14,9,2.3508446989254357
basic,35,5,0,0,0,24,"[0, 12, 25, 23, 24]",5,15,"[2, 4, 5, 6, 8, 9, 13, 14, 15, 17, 18, 19, 22, 26, 27]",158.995437,3872,534,1,12,9,1.9469752046288753
basic,35,5,0,0,0,17,"[0, 12, 25, 23, 24, 17]",6,7,"[4, 5, 6, 8, 15, 18, 19]",124.0097257,4539,667,1,8,9,1.6482276497563642
basic,35,5,0,0,0,5,"[0, 12, 25, 23, 24, 17, 5]",7,4,"[4, 6, 15, 18]",80.96323916,5540,1001,1,3,9,1.4654649104389412
basic,35,5,0,0,1,18,"[0, 12, 25, 23, 24, 17, 5, 18]",8,0,[],13.89610861,8048,2508,1,0,8,1.4108688678336447
basic,35,5,0,1,1,18,"[0, 12, 25, 23, 24, 17, 5, 18]",8,0,[],13.89610861,8901,853,1,0,8,1.4108688678336447
basic,36,15,0,0,0,0,[0],1,25,"[1, 2, 3, 4, 7, 8, 9, 10, 11, 12, 13, 14, 15, 16, 18, 20, 21, 22, 23, 24, 25, 26, 27, 28, 29]",300,149,-1,4,65,9,0.0
basic,36,15,0,0,0,21,"[0, 21]",2,17,"[1, 3, 4, 7, 8, 9, 11, 12, 13, 14, 15, 16, 22, 23, 24, 26, 27]",204.9158268,2004,1855,21,65,7,1.0
basic,36,15,0,0,0,12,"[0, 21, 12]",3,14,"[1, 3, 4, 7, 8, 9, 11, 13, 14, 15, 16, 22, 24, 27]",161.0866128,2770,766,20,39,7,1.6068212046294776
basic,36,15,0,0,0,7,"[0, 21, 12, 7]",4,10,"[3, 4, 9, 11, 13, 14, 15, 16, 22, 27]",127.8450725,3387,617,13,11,7,2.0298522511797907
basic,36,15,0,0,0,11,"[0, 21, 12, 7, 11]",5,6,"[3, 4, 14, 15, 16, 22]",86.36013546,4207,820,6,4,7,1.7205538639328775
basic,36,15,0,0,0,3,"[0, 21, 12, 7, 11, 3]",6,4,"[14, 15, 16, 22]",74.95838121,4609,402,4,0,7,1.6999894293819835
basic,36,15,0,0,1,16,"[0, 21, 12, 7, 11, 3, 16]",7,0,[],49.8785088,5195,586,1,0,7,2.1909315613297298
basic,36,15,0,1,1,16,"[0, 21, 12, 7, 11, 3, 16]",7,0,[],49.8785088,6147,952,1,0,7,2.1909315613297298
basic,37,34,0,0,0,0,[0],1,25,"[1, 3, 4, 5, 6, 7, 8, 9, 10, 11, 12, 13, 15, 18, 19, 20, 21, 22, 23, 24, 25, 26, 27, 28, 29]",300,151,-1,12,367,10,0.0
basic,37,34,0,0,0,13,"[0, 13]",2,24,"[1, 3, 4, 5, 6, 7, 8, 9, 10, 11, 12, 15, 18, 19, 20, 21, 22, 23, 24, 25, 26, 27, 28, 29]",279.9750156,1771,1620,12,331,10,1.0
basic,37,34,0,0,0,1,"[0, 13, 1]",3,16,"[3, 5, 7, 8, 9, 10, 11, 12, 19, 21, 22, 23, 24, 25, 27, 29]",211.8574701,2502,731,3,92,10,1.0010381285747127
basic,37,34,0,0,0,8,"[0, 13, 1, 8]",4,14,"[3, 5, 7, 9, 10, 11, 12, 19, 22, 23, 24, 25, 27, 29]",201.0871405,2904,402,2,54,10,1.1636807
basic,37,34,0,0,0,25,"[0, 13, 1, 8, 25]",5,12,"[3, 5, 7, 9, 10, 11, 12, 22, 23, 24, 27, 29]",183.999133,3293,389,2,28,10,1.1396208815936457
basic,37,34,0,0,0,24,"[0, 13, 1, 8, 25, 24]",6,11,"[3, 5, 7, 9, 10, 11, 12, 22, 23, 27, 29]",166.5062774,3656,363,2,23,10,1.374180768736554
basic,37,34,0,0,0,12,"[0, 13, 1, 8, 25, 24, 12]",7,7,"[7, 9, 10, 11, 22, 23, 27]",115.4670767,5372,1716,1,8,10,1.4994254760835948
basic,37,34,0,0,0,7,"[0, 13, 1, 8, 25, 24, 12, 7]",8,5,"[9, 11, 22, 23, 27]",100.4337804,5841,469,1,4,10,1.758992610425009
basic,37,34,0,0,0,23,"[0, 13, 1, 8, 25, 24, 12, 7, 23]",9,1,[27],72.27352467,6928,1087,1,0,10,2.399781305190153
basic,37,34,0,0,1,27,"[0, 13, 1, 8, 25, 24, 12, 7, 23, 27]",10,0,[],18.60789321,7949,1021,1,0,10,4.766619878750327
basic,37,34,0,1,1,27,"[0, 13, 1, 8, 25, 24, 12, 7, 23, 27]",10,0,[],18.60789321,8702,753,1,0,10,4.766619878750327
basic,38,28,0,0,0,0,[0],1,27,"[1, 2, 3, 4, 5, 6, 7, 8, 9, 10, 11, 12, 13, 14, 15, 16, 17, 18, 19, 20, 22, 23, 25, 26, 27, 28, 29]",300,168,-1,2,96,9,0.0
basic,38,28,0,0,0,3,"[0, 3]",2,26,"[1, 2, 4, 5, 6, 7, 8, 9, 10, 11, 12, 13, 14, 15, 16, 17, 18, 19, 20, 22, 23, 25, 26, 27, 28, 29]",251.0817008,1809,1641,1,64,9,1.0
basic,38,28,0,0,0,5,"[0, 3, 5]",3,20,"[2, 4, 6, 7, 8, 9, 10, 11, 12, 13, 14, 15, 18, 19, 20, 23, 25, 26, 28, 29]",166.9865166,2742,933,1,34,9,1.0203769473612083
basic,38,28,0,0,0,19,"[0, 3, 5, 19]",4,10,"[2, 4, 7, 9, 12, 13, 14, 18, 26, 28]",98.51754552,4592,1850,5,17,8,1.1035041615421115
basic,38,28,0,0,0,7,"[0, 3, 5, 19, 7]",5,6,"[2, 12, 13, 14, 18, 26]",70.78669628,5358,766,2,5,8,1.1701259286478127
basic,38,28,0,0,0,12,"[0, 3, 5, 19, 7, 12]",6,2,"[13, 18]",57.63374984,5959,601,1,1,8,1.1764104526010628
basic,38,28,0,0,0,13,"[0, 3, 5, 19, 7, 12, 13]",7,1,[18],40.4290993,6592,633,1,0,8,1.3623000844828748
basic,38,28,0,0,1,18,"[0, 3, 5, 19, 7, 12, 13, 18]",8,0,[],16.01598807,7543,951,1,0,8,1.7070033893638221
basic,38,28,0,1,1,18,"[0, 3, 5, 19, 7, 12, 13, 18]",8,0,[],16.01598807,8551,1008,1,0,8,1.7070033893638221
basic,39,39,0,0,0,0,[0],1,28,"[1, 2, 3, 4, 5, 6, 7, 9, 10, 11, 12, 13, 14, 15, 16, 17, 18, 19, 20, 21, 22, 23, 24, 25, 26, 27, 28, 29]",300,157,-1,1,30,10,0.0
basic,39,39,0,0,0,29,"[0, 29]",2,26,"[1, 2, 3, 4, 5, 6, 7, 9, 10, 12, 13, 14, 15, 16, 17, 18, 19, 20, 21, 22, 23, 24, 25, 26, 27, 28]",243.0614366,2226,2069,8,104,9,1.0
basic,39,39,0,0,0,12,"[0, 29, 12]",3,18,"[1, 2, 4, 5, 7, 9, 10, 13, 14, 15, 16, 18, 19, 22, 23, 24, 26, 28]",182.5221931,4358,2132,5,54,9,1.0026200331524904
basic,39,39,0,0,0,10,"[0, 29, 12, 10]",4,16,"[1, 2, 4, 5, 7, 9, 13, 14, 15, 16, 18, 19, 22, 23, 24, 26]",147.0116313,4998,640,5,34,9,1.2874817019928908
basic,39,39,0,0,0,7,"[0, 29, 12, 10, 7]",5,10,"[1, 2, 5, 13, 16, 18, 19, 22, 24, 26]",113.5900814,5743,745,4,12,9,1.2250826263866774
basic,39,39,0,0,0,26,"[0, 29, 12, 10, 7, 26]",6,5,"[1, 16, 18, 19, 22]",94.90853971,6177,434,3,4,9,1.2697275353190085
basic,39,39,0,0,0,22,"[0, 29, 12, 10, 7, 26, 22]",7,2,"[16, 19]",77.18849457,6827,650,2,0,9,1.438961743955176
basic,39,39,0,0,0,16,"[0, 29, 12, 10, 7, 26, 22, 16]",8,1,[19],42.18849457,7661,834,1,0,9,1.3580882130477205
basic,39,39,0,0,1,19,"[0, 29, 12, 10, 7, 26, 22, 16, 19]",9,0,[],24.72424537,8445,784,1,0,9,1.3646589157842668
basic,39,39,0,1,1,19,"[0, 29, 12, 10, 7, 26, 22, 16, 19]",9,0,[],24.72424537,9253,808,1,0,9,1.3646589157842668
basic,40,9,0,0,0,0,[0],1,27,"[1, 3, 4, 5, 6, 7, 8, 9, 10, 11, 13, 14, 15, 16, 17, 18, 19, 20, 21, 22, 23, 24, 25, 26, 27, 28, 29]",300,152,-1,2,182,10,0.0
basic,40,9,0,0,0,9,"[0, 9]",2,26,"[1, 3, 4, 5, 6, 7, 8, 10, 11, 13, 14, 15, 16, 17, 18, 19, 20, 21, 22, 23, 24, 25, 26, 27, 28, 29]",225.5352432,5145,4993,2,101,9,1.0
basic,40,9,0,0,0,23,"[0, 9, 23]",3,22,"[1, 3, 4, 5, 7, 8, 10, 11, 13, 15, 16, 17, 18, 19, 20, 21, 22, 24, 25, 26, 27, 28]",203.1745635,5523,378,2,70,9,1.6262276606762436
basic,40,9,0,0,0,8,"[0, 9, 23, 8]",4,18,"[3, 4, 5, 7, 10, 11, 15, 16, 17, 18, 19, 20, 21, 22, 25, 26, 27, 28]",181.7036529,6173,650,1,36,9,1.8547307061753238
basic,40,9,0,0,0,28,"[0, 9, 23, 8, 28]",5,17,"[3, 4, 5, 7, 10, 11, 15, 16, 17, 18, 19, 20, 21, 22, 25, 26, 27]",170.8869991,6576,403,1,23,9,1.7382749966569708
basic,40,9,0,0,0,26,"[0, 9, 23, 8, 28, 26]",6,10,"[3, 5, 10, 15, 16, 18, 19, 20, 21, 25]",126.1097727,7341,765,4,7,8,1.4884719959249546
basic,40,9,0,0,0,21,"[0, 9, 23, 8, 28, 26, 21]",7,1,[20],72.20244484,8212,871,1,0,8,1.9218119811471304
basic,40,9,0,0,1,20,"[0, 9, 23, 8, 28, 26, 21, 20]",8,0,[],60.11939886,8726,514,1,0,8,1.8940565724013747
basic,40,9,0,1,1,20,"[0, 9, 23, 8, 28, 26, 21, 20]",8,0,[],60.11939886,9869,1143,1,0,8,1.8940565724013747
basic,41,0,0,0,0,0,[0],1,27,"[2, 3, 4, 5, 6, 7, 8, 9, 10, 11, 12, 13, 14, 15, 16, 17, 19, 20, 21, 22, 23, 24, 25, 26, 27, 28, 29]",300,151,-1,104,1136,9,0.0
basic,41,0,0,0,0,28,"[0, 28]",2,26,"[2, 3, 4, 5, 6, 7, 8, 9, 10, 11, 12, 13, 14, 15, 16, 17, 19, 20, 21, 22, 23, 24, 25, 26, 27, 29]",194.9190788,4524,4373,39,388,9,1.0
basic,41,0,0,0,0,5,"[0, 28, 5]",3,21,"[2, 3, 4, 7, 8, 9, 11, 12, 13, 14, 15, 16, 17, 19, 20, 21, 23, 24, 25, 26, 29]",151.2613189,5325,801,27,210,9,1.0978295127671733
basic,41,0,0,0,0,4,"[0, 28, 5, 4]",4,16,"[3, 7, 8, 9, 11, 12, 13, 14, 15, 17, 19, 20, 21, 23, 24, 26]",126.1814465,5843,518,17,114,9,1.1103727063761901
basic,41,0,0,0,0,26,"[0, 28, 5, 4, 26]",5,14,"[3, 7, 8, 9, 11, 12, 13, 14, 15, 17, 19, 20, 23, 24]",114.1398519,6479,636,7,54,9,1.1504454351688815
basic,41,0,0,0,0,24,"[0, 28, 5, 4, 26, 24]",6,11,"[3, 7, 8, 9, 11, 12, 15, 17, 19, 20, 23]",97.02260914,7097,618,7,22,9,1.2166555899566422
basic,41,0,0,0,0,15,"[0, 28, 5, 4, 26, 24, 15]",7,7,"[3, 7, 8, 9, 11, 12, 17]",73.67737408,8683,1586,4,5,9,1.1972898774231708
basic,41,0,0,0,0,7,"[0, 28, 5, 4, 26, 24, 15, 7]",8,2,"[3, 8]",42.61292495,9262,579,2,0,9,1.2554869594545575
basic,41,0,0,0,1,3,"[0, 28, 5, 4, 26, 24, 15, 7, 3]",9,0,[],18.52973579,12281,3019,1,0,9,1.2985327435367093
basic,41,0,0,1,1,3,"[0, 28, 5, 4, 26, 24, 15, 7, 3]",9,0,[],18.52973579,13105,824,1,0,9,1.2985327435367093
basic,42,27,0,0,0,0,[0],1,26,"[1, 3, 5, 6, 7, 8, 9, 10, 11, 12, 13, 14, 15, 16, 17, 18, 19, 21, 22, 23, 24, 25, 26, 27, 28, 29]",300,177,-1,13,578,11,0.0
basic,42,27,0,0,0,15,"[0, 15]",2,24,"[1, 3, 5, 6, 7, 8, 9, 10, 11, 12, 13, 14, 16, 17, 18, 19, 21, 22, 23, 24, 25, 26, 27, 29]",263.7508621,6998,6821,6,219,11,1.0
basic,42,27,0,0,0,24,"[0, 15, 24]",3,20,"[1, 5, 6, 7, 8, 9, 10, 12, 13, 14, 16, 17, 18, 19, 21, 23, 25, 26, 27, 29]",246.5462115,7547,549,6,130,11,1.130933077698322
basic,42,27,0,0,0,17,"[0, 15, 24, 17]",4,15,"[1, 6, 8, 10, 12, 13, 14, 16, 18, 19, 23, 25, 26, 27, 29]",229.9932662,8425,878,4,60,11,1.1285538435963374
basic,42,27,0,0,0,12,"[0, 15, 24, 17, 12]",5,14,"[1, 6, 8, 10, 13, 14, 16, 18, 19, 23, 25, 26, 27, 29]",218.8129263,8865,440,2,32,11,1.2561880288755216
basic,42,27,0,0,0,10,"[0, 15, 24, 17, 12, 10]",6,11,"[1, 8, 13, 14, 18, 19, 23, 25, 26, 27, 29]",207.7675653,9315,450,2,28,11,1.2228289337766665
basic,42,27,0,0,0,13,"[0, 15, 24, 17, 12, 10, 13]",7,9,"[1, 8, 14, 18, 19, 23, 26, 27, 29]",167.9178476,9948,633,2,18,11,1.3421291994761178
basic,42,27,0,0,0,19,"[0, 15, 24, 17, 12, 10, 13, 19]",8,5,"[1, 8, 14, 23, 29]",131.6825057,10649,701,2,6,11,1.294749956153846
basic,42,27,0,0,0,8,"[0, 15, 24, 17, 12, 10, 13, 19, 8]",9,3,"[14, 23, 29]",116.816437,10934,285,2,1,11,1.3554286578836865
basic,42,27,0,0,0,29,"[0, 15, 24, 17, 12, 10, 13, 19, 8, 29]",10,1,[14],57.61339652,13486,2552,1,0,11,1.248354519573802
basic,42,27,0,0,1,14,"[0, 15, 24, 17, 12, 10, 13, 19, 8, 29, 14]",11,0,[],13.31892734,14238,752,1,0,11,1.562811097555156
basic,42,27,0,1,1,14,"[0, 15, 24, 17, 12, 10, 13, 19, 8, 29, 14]",11,0,[],13.31892734,15445,1207,1,0,11,1.562811097555156
basic,43,10,0,0,0,0,[0],1,29,"[1, 2, 3, 4, 5, 6, 7, 8, 9, 10, 11, 12, 13, 14, 15, 16, 17, 18, 19, 20, 21, 22, 23, 24, 25, 26, 27, 28, 29]",300,158,-1,1,100,9,0.0
basic,43,10,0,0,0,13,"[0, 13]",2,25,"[1, 2, 3, 4, 6, 7, 8, 9, 10, 11, 12, 14, 17, 18, 19, 20, 21, 22, 23, 24, 25, 26, 27, 28, 29]",249.4628849,3978,3820,1,79,9,1.0
basic,43,10,0,0,0,11,"[0, 13, 11]",3,20,"[1, 2, 3, 6, 7, 8, 9, 10, 12, 14, 18, 19, 20, 21, 22, 24, 26, 27, 28, 29]",206.4512586,4638,660,1,54,9,1.0313137484914219
basic,43,10,0,0,0,19,"[0, 13, 11, 19]",4,11,"[2, 6, 8, 9, 10, 14, 18, 20, 24, 26, 27]",170.0919407,5322,684,1,22,9,1.0879446220132545
basic,43,10,0,0,0,2,"[0, 13, 11, 19, 2]",5,4,"[14, 20, 26, 27]",126.1829439,6191,869,1,4,9,1.06474052351343
basic,43,10,0,0,0,14,"[0, 13, 11, 19, 2, 14]",6,3,"[20, 26, 27]",114.0174188,6875,684,1,3,9,1.1628909195912238
basic,43,10,0,0,0,26,"[0, 13, 11, 19, 2, 14, 26]",7,2,"[20, 27]",79.34754716,7645,770,1,1,9,1.6660727647633602
basic,43,10,0,0,0,20,"[0, 13, 11, 19, 2, 14, 26, 20]",8,1,[27],47.56704999,8209,564,1,0,9,2.085581809637999
basic,43,10,0,0,1,27,"[0, 13, 11, 19, 2, 14, 26, 20, 27]",9,0,[],2.312215998,8981,772,1,0,9,1.9116357409137932
basic,43,10,0,1,1,27,"[0, 13, 11, 19, 2, 14, 26, 20, 27]",9,0,[],2.312215998,9385,404,1,0,9,1.9116357409137932
basic,44,31,0,0,0,0,[0],1,27,"[1, 3, 4, 5, 6, 7, 8, 10, 11, 12, 13, 14, 15, 16, 17, 18, 19, 20, 21, 22, 23, 24, 25, 26, 27, 28, 29]",300,160,-1,2,87,10,0.0
basic,44,31,0,0,0,14,"[0, 14]",2,25,"[1, 3, 5, 6, 7, 8, 10, 11, 12, 13, 15, 16, 17, 18, 19, 20, 21, 22, 23, 24, 25, 26, 27, 28, 29]",263.861378,1747,1587,2,59,10,1.0
basic,44,31,0,0,0,27,"[0, 14, 27]",3,22,"[1, 3, 5, 6, 7, 8, 10, 11, 12, 13, 15, 16, 17, 18, 19, 20, 21, 22, 24, 25, 28, 29]",235.6833724,2404,657,1,39,10,1.5881859159302467
basic,44,31,0,0,0,8,"[0, 14, 27, 8]",4,20,"[1, 3, 5, 6, 7, 10, 11, 12, 13, 16, 17, 18, 19, 20, 21, 22, 24, 25, 28, 29]",224.6380114,3122,718,1,36,10,2.1665048452331277
basic,44,31,0,0,0,18,"[0, 14, 27, 8, 18]",5,15,"[1, 5, 6, 7, 11, 12, 13, 16, 17, 19, 20, 22, 25, 28, 29]",188.7911147,3923,801,1,26,10,1.7273375741920205
basic,44,31,0,0,0,11,"[0, 14, 27, 8, 18, 11]",6,11,"[1, 5, 7, 12, 16, 17, 19, 20, 22, 25, 28]",153.9055876,4691,768,13,17,9,2.386348208737804
basic,44,31,0,0,0,5,"[0, 14, 27, 8, 18, 11, 5]",7,5,"[16, 17, 20, 25, 28]",110.2249283,16501,11810,3,3,9,2.163249612867222
basic,44,31,0,0,0,28,"[0, 14, 27, 8, 18, 11, 5, 28]",8,2,"[16, 17]",90.00117988,16752,251,2,0,9,1.9564635733184719
basic,44,31,0,0,1,16,"[0, 14, 27, 8, 18, 11, 5, 28, 16]",9,0,[],56.38570725,17780,1028,1,0,9,1.824071502589619
basic,44,31,0,1,1,16,"[0, 14, 27, 8, 18, 11, 5, 28, 16]",9,0,[],56.38570725,18361,581,1,0,9,1.824071502589619
basic,45,35,0,0,0,0,[0],1,29,"[1, 2, 3, 4, 5, 6, 7, 8, 9, 10, 11, 12, 13, 14, 15, 16, 17, 18, 19, 20, 21, 22, 23, 24, 25, 26, 27, 28, 29]",300,153,-1,5,236,11,0.0
basic,45,35,0,0,0,27,"[0, 27]",2,27,"[1, 2, 4, 5, 6, 7, 8, 9, 10, 11, 12, 13, 14, 15, 16, 17, 18, 19, 20, 21, 22, 23, 24, 25, 26, 28, 29]",278.7867966,1791,1638,5,144,11,1.0
basic,45,35,0,0,0,24,"[0, 27, 24]",3,25,"[1, 2, 4, 5, 6, 7, 8, 9, 10, 11, 12, 13, 15, 16, 17, 18, 19, 20, 21, 22, 23, 25, 26, 28, 29]",234.6053525,3389,1598,3,80,11,2.1084080567904624
basic,45,35,0,0,0,17,"[0, 27, 24, 17]",4,20,"[1, 2, 4, 5, 6, 7, 8, 9, 10, 15, 16, 18, 19, 20, 21, 23, 25, 26, 28, 29]",222.9006526,3974,585,3,50,11,1.9439555968916868
basic,45,35,0,0,0,1,"[0, 27, 24, 17, 1]",5,18,"[2, 4, 5, 6, 8, 9, 10, 15, 16, 18, 19, 20, 21, 23, 25, 26, 28, 29]",207.0892643,5358,1384,3,39,11,1.9436711872547336
basic,45,35,0,0,0,9,"[0, 27, 24, 17, 1, 9]",6,8,"[5, 6, 15, 18, 19, 23, 25, 28]",137.5622911,6335,977,4,19,10,1.4449900699800102
basic,45,35,0,0,0,18,"[0, 27, 24, 17, 1, 9, 18]",7,6,"[5, 6, 15, 19, 23, 25]",117.5373067,6725,390,2,7,10,1.4184942220499999
basic,45,35,0,0,0,25,"[0, 27, 24, 17, 1, 9, 18, 25]",8,2,"[6, 23]",83.69945808,7480,755,1,1,10,1.3356721145240285
basic,45,35,0,0,0,6,"[0, 27, 24, 17, 1, 9, 18, 25, 6]",9,1,[23],59.67863378,8211,731,1,0,10,1.5891990344225586
basic,45,35,0,0,1,23,"[0, 27, 24, 17, 1, 9, 18, 25, 6, 23]",10,0,[],14.02778493,8878,667,1,0,10,2.6897242896674296
basic,45,35,0,1,1,23,"[0, 27, 24, 17, 1, 9, 18, 25, 6, 23]",10,0,[],14.02778493,9319,441,1,0,10,2.6897242896674296
basic,46,33,0,0,0,0,[0],1,23,"[1, 2, 5, 7, 8, 11, 12, 13, 14, 15, 16, 17, 18, 19, 20, 21, 23, 24, 25, 26, 27, 28, 29]",300,175,-1,5,108,9,0.0
basic,46,33,0,0,0,21,"[0, 21]",2,17,"[2, 5, 7, 8, 11, 13, 14, 16, 17, 18, 19, 20, 24, 26, 27, 28, 29]",174.4611614,5477,5302,21,129,8,1.0
basic,46,33,0,0,0,17,"[0, 21, 17]",3,12,"[2, 7, 11, 13, 14, 16, 18, 19, 20, 24, 26, 29]",135.8218032,6018,541,3,35,8,1.0302064673538902
basic,46,33,0,0,0,13,"[0, 21, 17, 13]",4,10,"[2, 7, 11, 14, 16, 19, 20, 24, 26, 29]",113.0182947,6633,615,3,18,8,1.2307555582916028
basic,46,33,0,0,0,19,"[0, 21, 17, 13, 19]",5,6,"[7, 14, 16, 24, 26, 29]",87.52319715,7398,765,3,6,8,1.267959080158969
basic,46,33,0,0,0,24,"[0, 21, 17, 13, 19, 24]",6,2,"[7, 14]",45.47560506,8213,815,1,1,8,1.2501192148258107
basic,46,33,0,0,0,7,"[0, 21, 17, 13, 19, 24, 7]",7,1,[14],16.26944133,9065,852,1,0,8,1.3314375425758662
basic,46,33,0,0,1,14,"[0, 21, 17, 13, 19, 24, 7, 14]",8,0,[],1.403372582,9732,667,1,0,8,1.37637211918224
basic,46,33,0,1,1,14,"[0, 21, 17, 13, 19, 24, 7, 14]",8,0,[],1.403372582,10107,375,1,0,8,1.37637211918224
basic,47,24,0,0,0,0,[0],1,29,"[1, 2, 3, 4, 5, 6, 7, 8, 9, 10, 11, 12, 13, 14, 15, 16, 17, 18, 19, 20, 21, 22, 23, 24, 25, 26, 27, 28, 29]",300,165,-1,4,76,10,0.0
basic,47,24,0,0,0,16,"[0, 16]",2,28,"[1, 2, 3, 4, 5, 6, 7, 8, 9, 10, 11, 12, 13, 14, 15, 17, 18, 19, 20, 21, 22, 23, 24, 25, 26, 27, 28, 29]",210.3562607,3454,3289,13,110,9,1.0
basic,47,24,0,0,0,22,"[0, 16, 22]",3,27,"[1, 2, 3, 4, 5, 6, 7, 8, 9, 10, 11, 12, 13, 14, 15, 17, 18, 19, 20, 21, 23, 24, 25, 26, 27, 28, 29]",192.3285043,4273,819,7,54,9,1.0217425143037777
basic,47,24,0,0,0,8,"[0, 16, 22, 8]",4,21,"[1, 2, 3, 4, 6, 9, 10, 11, 13, 14, 15, 17, 20, 21, 23, 24, 25, 26, 27, 28, 29]",178.9120964,4923,650,4,28,9,1.0996636936037951
basic,47,24,0,0,0,15,"[0, 16, 22, 8, 15]",5,16,"[3, 4, 6, 9, 10, 11, 13, 14, 17, 23, 24, 25, 26, 27, 28, 29]",148.025206,5580,657,3,17,9,1.2704773343758617
basic,47,24,0,0,0,28,"[0, 16, 22, 8, 15, 28]",6,8,"[3, 4, 9, 11, 13, 23, 26, 27]",102.7482803,6508,928,3,5,9,1.1981967578189556
basic,47,24,0,0,0,23,"[0, 16, 22, 8, 15, 28, 23]",7,3,"[9, 11, 27]",83.72198273,7143,635,3,1,9,1.2275650852813986
basic,47,24,0,0,0,11,"[0, 16, 22, 8, 15, 28, 23, 11]",8,2,"[9, 27]",56.79615869,7895,752,2,0,9,1.2107937989822568
basic,47,24,0,0,1,9,"[0, 16, 22, 8, 15, 28, 23, 11, 9]",9,0,[],24.5471277,9177,1282,1,0,9,1.2976612913524237
basic,47,24,0,1,1,9,"[0, 16, 22, 8, 15, 28, 23, 11, 9]",9,0,[],24.5471277,10370,1193,1,0,9,1.2976612913524237
basic,48,25,0,0,0,0,[0],1,28,"[1, 2, 3, 4, 5, 7, 8, 9, 10, 11, 12, 13, 14, 15, 16, 17, 18, 19, 20, 21, 22, 23, 24, 25, 26, 27, 28, 29]",300,142,-1,5,94,10,0.0
basic,48,25,0,0,0,23,"[0, 23]",2,23,"[1, 2, 3, 5, 7, 8, 9, 11, 12, 13, 14, 16, 17, 19, 20, 21, 22, 24, 25, 26, 27, 28, 29]",259.7756293,1805,1663,3,33,10,1.0
basic,48,25,0,0,0,19,"[0, 23, 19]",3,21,"[1, 2, 3, 5, 7, 8, 9, 11, 12, 13, 14, 16, 17, 20, 21, 22, 24, 25, 27, 28, 29]",223.9287326,2570,765,3,24,10,1.583101227007039
basic,48,25,0,0,0,29,"[0, 23, 19, 29]",4,19,"[1, 2, 3, 5, 7, 8, 9, 11, 12, 13, 14, 16, 17, 20, 21, 22, 24, 25, 28]",207.649912,2836,266,3,17,10,1.474631541426484
basic,48,25,0,0,0,22,"[0, 23, 19, 29, 22]",5,18,"[1, 2, 3, 5, 7, 8, 9, 11, 12, 13, 14, 16, 17, 20, 21, 24, 25, 28]",191.5253965,3147,311,3,14,10,1.4020377754906637
basic,48,25,0,0,0,7,"[0, 23, 19, 29, 22, 7]",6,7,"[3, 8, 9, 11, 13, 24, 28]",115.8814939,4472,1325,3,11,10,1.5709678649326715
basic,48,25,0,0,0,24,"[0, 23, 19, 29, 22, 7, 24]",7,5,"[3, 8, 9, 13, 28]",91.12265712,4822,350,3,7,10,1.486191600033379
basic,48,25,0,0,0,9,"[0, 23, 19, 29, 22, 7, 24, 9]",8,4,"[3, 8, 13, 28]",73.09490075,5209,387,3,3,10,1.453504870342882
basic,48,25,0,0,0,3,"[0, 23, 19, 29, 22, 7, 24, 9, 3]",9,3,"[8, 13, 28]",42.82940885,5657,448,3,0,10,1.388955167525479
basic,48,25,0,0,1,13,"[0, 23, 19, 29, 22, 7, 24, 9, 3, 13]",10,0,[],11.58841014,6908,1251,1,0,10,1.4309045890044414
basic,48,25,0,1,1,13,"[0, 23, 19, 29, 22, 7, 24, 9, 3, 13]",10,0,[],11.58841014,7799,891,1,0,10,1.4309045890044414
basic,49,16,0,0,0,0,[0],1,29,"[1, 2, 3, 4, 5, 6, 7, 8, 9, 10, 11, 12, 13, 14, 15, 16, 17, 18, 19, 20, 21, 22, 23, 24, 25, 26, 27, 28, 29]",300,142,-1,13,161,9,0.0
basic,49,16,0,0,0,28,"[0, 28]",2,27,"[1, 2, 3, 4, 5, 7, 8, 9, 10, 11, 12, 13, 14, 15, 16, 17, 18, 19, 20, 21, 22, 23, 24, 25, 26, 27, 29]",284.3475242,3071,2929,11,92,9,1.0
basic,49,16,0,0,0,17,"[0, 28, 17]",3,26,"[1, 2, 3, 4, 5, 7, 8, 9, 10, 11, 12, 13, 14, 15, 16, 18, 19, 20, 21, 22, 23, 24, 25, 26, 27, 29]",219.1555001,3973,902,10,46,9,1.3773866384707543
basic,49,16,0,0,0,16,"[0, 28, 17, 16]",4,25,"[1, 2, 3, 4, 5, 7, 8, 9, 10, 11, 12, 13, 14, 15, 18, 19, 20, 21, 22, 23, 24, 25, 26, 27, 29]",190.8358956,5791,1818,10,34,9,1.3209953830681203
basic,49,16,0,0,0,21,"[0, 28, 17, 16, 21]",5,13,"[3, 5, 7, 8, 9, 10, 12, 15, 20, 22, 25, 26, 29]",146.1816685,6474,683,4,7,9,1.8136482702070456
basic,49,16,0,0,0,8,"[0, 28, 17, 16, 21, 8]",6,6,"[5, 9, 12, 15, 20, 25]",96.92722704,7174,700,4,2,9,1.637204572335983
basic,49,16,0,0,0,20,"[0, 28, 17, 16, 21, 8, 20]",7,2,"[9, 25]",39.15179974,8010,836,2,0,9,1.441590377328759
basic,49,16,0,0,0,25,"[0, 28, 17, 16, 21, 8, 20, 25]",8,1,[9],26.5026891,8633,623,1,0,9,1.484361110265371
basic,49,16,0,0,1,9,"[0, 28, 17, 16, 21, 8, 20, 25, 9]",9,0,[],13.69644062,9161,528,1,0,9,1.4530180692918209
basic,49,16,0,1,1,9,"[0, 28, 17, 16, 21, 8, 20, 25, 9]",9,0,[],13.69644062,9551,390,1,0,9,1.4530180692918209
basic,50,6,0,0,0,0,[0],1,29,"[1, 2, 3, 4, 5, 6, 7, 8, 9, 10, 11, 12, 13, 14, 15, 16, 17, 18, 19, 20, 21, 22, 23, 24, 25, 26, 27, 28, 29]",300,172,-1,180,4304,10,0.0
basic,50,6,0,0,0,3,"[0, 3]",2,28,"[1, 2, 4, 5, 6, 7, 8, 9, 10, 11, 12, 13, 14, 15, 16, 17, 18, 19, 20, 21, 22, 23, 24, 25, 26, 27, 28, 29]",266.4738908,2923,2751,90,1607,10,1.0
basic,50,6,0,0,0,10,"[0, 3, 10]",3,27,"[1, 2, 4, 5, 6, 7, 8, 9, 11, 12, 13, 14, 15, 16, 17, 18, 19, 20, 21, 22, 23, 24, 25, 26, 27, 28, 29]",215.2293789,6363,3440,8,136,10,1.0050517746249001
basic,50,6,0,0,0,24,"[0, 3, 10, 24]",4,23,"[1, 2, 4, 5, 6, 7, 8, 11, 13, 14, 16, 17, 18, 19, 20, 21, 22, 23, 25, 26, 27, 28, 29]",201.812971,6915,552,8,85,10,1.0091851911500884
basic,50,6,0,0,0,17,"[0, 3, 10, 24, 17]",5,19,"[1, 2, 4, 5, 6, 7, 8, 11, 13, 14, 16, 18, 20, 21, 22, 23, 26, 27, 29]",172.5384087,7385,470,8,53,10,1.8060138032707682
basic,50,6,0,0,0,18,"[0, 3, 10, 24, 17, 18]",6,15,"[1, 2, 6, 7, 8, 13, 14, 16, 20, 21, 22, 23, 26, 27, 29]",158.6100204,7699,314,7,36,10,2.3216150751946008
basic,50,6,0,0,0,16,"[0, 3, 10, 24, 17, 18, 16]",7,13,"[1, 2, 6, 7, 13, 14, 20, 21, 22, 23, 26, 27, 29]",135.2647853,8013,314,7,21,10,2.2822729587843544
basic,50,6,0,0,0,29,"[0, 3, 10, 24, 17, 18, 16, 29]",8,7,"[6, 14, 20, 21, 22, 23, 27]",98.57691268,9549,1536,6,4,10,1.8911507070056388
basic,50,6,0,0,0,23,"[0, 3, 10, 24, 17, 18, 16, 29, 23]",9,2,"[6, 22]",51.05849519,10183,634,2,0,10,1.8549852217940308
basic,50,6,0,0,1,6,"[0, 3, 10, 24, 17, 18, 16, 29, 23, 6]",10,0,[],15.70315613,11051,868,1,0,10,1.7651720921259988
basic,50,6,0,1,1,6,"[0, 3, 10, 24, 17, 18, 16, 29, 23, 6]",10,0,[],15.70315613,11341,290,1,0,10,1.7651720921259988
basic,51,43,0,0,0,0,[0],1,23,"[1, 2, 3, 4, 5, 6, 7, 9, 10, 11, 12, 14, 15, 16, 17, 19, 20, 21, 22, 23, 25, 27, 29]",300,174,-1,16,556,12,0.0
basic,51,43,0,0,0,29,"[0, 29]",2,22,"[1, 2, 3, 4, 5, 6, 7, 9, 10, 11, 12, 14, 15, 16, 17, 19, 20, 21, 22, 23, 25, 27]",277.909278,1719,1545,16,520,12,1.0
basic,51,43,0,0,0,20,"[0, 29, 20]",3,20,"[1, 2, 3, 4, 6, 7, 9, 10, 11, 12, 14, 15, 16, 17, 19, 21, 22, 23, 25, 27]",254.4785289,2552,833,15,422,12,1.082311746871282
basic,51,43,0,0,0,16,"[0, 29, 20, 16]",4,19,"[1, 2, 3, 4, 6, 7, 9, 10, 11, 12, 14, 15, 17, 19, 21, 22, 23, 25, 27]",231.8511119,4771,2219,15,389,12,1.215201926898219
basic,51,43,0,0,0,25,"[0, 29, 20, 16, 25]",5,14,"[1, 2, 3, 4, 6, 7, 9, 11, 12, 14, 15, 19, 22, 23]",175.7708124,5589,818,53,282,11,1.566384303308987
basic,51,43,0,0,0,15,"[0, 29, 20, 16, 25, 15]",6,13,"[1, 2, 3, 4, 6, 7, 9, 11, 12, 14, 19, 22, 23]",153.0992443,6490,901,27,108,11,1.776736412604812
basic,51,43,0,0,0,12,"[0, 29, 20, 16, 25, 15, 12]",7,10,"[1, 3, 6, 7, 9, 11, 14, 19, 22, 23]",133.7860364,6896,406,21,41,11,1.6813323012225032
basic,51,43,0,0,0,3,"[0, 29, 20, 16, 25, 15, 12, 3]",8,9,"[1, 6, 7, 9, 11, 14, 19, 22, 23]",120.7860364,7608,712,20,12,11,1.608740348096123
basic,51,43,0,0,0,22,"[0, 29, 20, 16, 25, 15, 12, 3, 22]",9,6,"[1, 6, 7, 11, 14, 19]",86.07292644,8458,850,9,2,11,1.793657891802588
basic,51,43,0,0,0,19,"[0, 29, 20, 16, 25, 15, 12, 3, 22, 19]",10,3,"[1, 6, 7]",65.45739831,8928,470,3,0,11,1.6882745891803936
basic,51,43,0,0,1,1,"[0, 29, 20, 16, 25, 15, 12, 3, 22, 19, 1]",11,0,[],37.2793927,9828,900,1,0,11,1.825064866046553
basic,51,43,0,1,1,1,"[0, 29, 20, 16, 25, 15, 12, 3, 22, 19, 1]",11,0,[],37.2793927,10634,806,1,0,11,1.825064866046553
basic,52,37,0,0,0,0,[0],1,29,"[1, 2, 3, 4, 5, 6, 7, 8, 9, 10, 11, 12, 13, 14, 15, 16, 17, 18, 19, 20, 21, 22, 23, 24, 25, 26, 27, 28, 29]",300,146,-1,6,168,10,0.0
basic,52,37,0,0,0,18,"[0, 18]",2,19,"[1, 2, 4, 6, 7, 9, 10, 12, 14, 15, 17, 19, 20, 21, 22, 23, 26, 28, 29]",202.4090168,4665,4519,6,89,10,1.0
basic,52,37,0,0,0,22,"[0, 18, 22]",3,9,"[1, 2, 4, 7, 15, 19, 20, 21, 26]",136.9720242,6242,1577,15,58,9,1.001057447339584
basic,52,37,0,0,0,4,"[0, 18, 22, 4]",4,8,"[1, 2, 7, 15, 19, 20, 21, 26]",111.9720242,6792,550,8,28,9,1.1568597805027683
basic,52,37,0,0,0,2,"[0, 18, 22, 4, 2]",5,7,"[1, 7, 15, 19, 20, 21, 26]",100.57027,8411,1619,7,12,9,1.3192232340552885
basic,52,37,0,0,0,1,"[0, 18, 22, 4, 2, 1]",6,6,"[7, 15, 19, 20, 21, 26]",83.36561943,9695,1284,7,4,9,1.3683384389764814
basic,52,37,0,0,0,20,"[0, 18, 22, 4, 2, 1, 20]",7,4,"[15, 19, 21, 26]",49.13113389,11096,1401,3,2,9,1.6736124378078914
basic,52,37,0,0,0,21,"[0, 18, 22, 4, 2, 1, 20, 21]",8,2,"[15, 26]",34.70892879,12132,1036,2,0,9,1.7094220750755582
basic,52,37,0,0,1,26,"[0, 18, 22, 4, 2, 1, 20, 21, 26]",9,0,[],4.976791295,15422,3290,1,0,9,1.6848569144891061
basic,52,37,0,1,1,26,"[0, 18, 22, 4, 2, 1, 20, 21, 26]",9,0,[],4.976791295,15793,371,1,0,9,1.6848569144891061
basic,53,1,0,0,0,0,[0],1,26,"[1, 2, 4, 5, 7, 8, 9, 10, 11, 12, 13, 14, 15, 16, 17, 18, 19, 20, 21, 22, 23, 24, 25, 26, 28, 29]",300,155,-1,6,74,7,0.0
basic,53,1,0,0,0,20,"[0, 20]",2,13,"[1, 4, 5, 8, 11, 13, 14, 15, 17, 18, 19, 28, 29]",129.961769,7976,7821,2,11,6,1.0
basic,53,1,0,0,0,5,"[0, 20, 5]",3,9,"[1, 4, 8, 11, 13, 17, 18, 19, 29]",108.4908585,8676,700,2,6,6,1.0224915251419384
basic,53,1,0,0,0,18,"[0, 20, 5, 18]",4,4,"[4, 13, 17, 29]",85.66543403,9729,1053,2,3,6,1.064078468417926
basic,53,1,0,0,0,4,"[0, 20, 5, 18, 4]",5,2,"[13, 29]",46.71674984,10427,698,2,0,6,1.0731955739217967
basic,53,1,0,0,1,29,"[0, 20, 5, 18, 4, 29]",6,0,[],10.66123709,11763,1336,1,0,6,1.268346679663489
basic,53,1,0,1,1,29,"[0, 20, 5, 18, 4, 29]",6,0,[],10.66123709,12304,541,1,0,6,1.268346679663489
basic,54,8,0,0,0,0,[0],1,29,"[1, 2, 3, 4, 5, 6, 7, 8, 9, 10, 11, 12, 13, 14, 15, 16, 17, 18, 19, 20, 21, 22, 23, 24, 25, 26, 27, 28, 29]",300,156,-1,10,149,9,0.0
basic,54,8,0,0,0,5,"[0, 5]",2,28,"[1, 2, 3, 4, 6, 7, 8, 9, 10, 11, 12, 13, 14, 15, 16, 17, 18, 19, 20, 21, 22, 23, 24, 25, 26, 27, 28, 29]",254.5137383,2220,2064,10,100,9,1.0
basic,54,8,0,0,0,25,"[0, 5, 25]",3,20,"[1, 2, 3, 4, 6, 11, 12, 14, 15, 16, 17, 18, 19, 20, 21, 22, 23, 24, 28, 29]",215.3091468,3045,825,4,42,9,1.2272747879909065
basic,54,8,0,0,0,1,"[0, 5, 25, 1]",4,17,"[3, 4, 6, 11, 12, 14, 15, 16, 17, 18, 20, 21, 22, 23, 24, 28, 29]",190.3091468,3615,570,3,24,9,1.1770245007593956
basic,54,8,0,0,0,23,"[0, 5, 25, 1, 23]",5,15,"[3, 4, 6, 11, 14, 15, 16, 17, 18, 20, 21, 22, 24, 28, 29]",167.2874179,4512,897,1,14,9,1.141996583852372
basic,54,8,0,0,0,17,"[0, 5, 25, 1, 23, 17]",6,4,"[11, 14, 15, 24]",66.66435892,10562,6050,2,3,8,2.1362932032638606
basic,54,8,0,0,0,11,"[0, 5, 25, 1, 23, 17, 11]",7,2,"[15, 24]",41.48500229,11114,552,2,0,8,1.974605466124702
basic,54,8,0,0,1,24,"[0, 5, 25, 1, 23, 17, 11, 24]",8,0,[],4.26941416,11760,646,1,0,8,1.7961371468544889
basic,54,8,0,1,1,24,"[0, 5, 25, 1, 23, 17, 11, 24]",8,0,[],4.26941416,12706,946,1,0,8,1.7961371468544889
basic,55,3,0,0,0,0,[0],1,29,"[1, 2, 3, 4, 5, 6, 7, 8, 9, 10, 11, 12, 13, 14, 15, 16, 17, 18, 19, 20, 21, 22, 23, 24, 25, 26, 27, 28, 29]",300,166,-1,34,427,10,0.0
basic,55,3,0,0,0,17,"[0, 17]",2,16,"[3, 4, 7, 8, 10, 12, 14, 15, 16, 19, 20, 21, 22, 24, 26, 27]",197.6965299,1854,1688,2,27,9,1.0
basic,55,3,0,0,0,20,"[0, 17, 20]",3,13,"[3, 4, 7, 8, 10, 14, 15, 16, 19, 21, 22, 24, 27]",185.0474192,2338,484,2,24,9,1.0153332121237257
basic,55,3,0,0,0,3,"[0, 17, 20, 3]",4,10,"[4, 7, 8, 10, 14, 15, 16, 19, 21, 24]",164.6513412,4939,2601,2,22,9,1.0819240770773468
basic,55,3,0,0,0,19,"[0, 17, 20, 3, 19]",5,6,"[4, 8, 10, 14, 21, 24]",127.3150318,5772,833,2,11,9,1.1701070532957258
basic,55,3,0,0,0,21,"[0, 17, 20, 3, 19, 21]",6,5,"[4, 8, 10, 14, 24]",115.1084762,6356,584,2,6,9,1.202395500952127
basic,55,3,0,0,0,14,"[0, 17, 20, 3, 19, 21, 14]",7,4,"[4, 8, 10, 24]",88.20122806,7041,685,2,2,9,1.6456130302761207
basic,55,3,0,0,0,24,"[0, 17, 20, 3, 19, 21, 14, 24]",8,1,[8],17.08864127,8119,1078,1,0,9,4.806859660680286
basic,55,3,0,0,1,8,"[0, 17, 20, 3, 19, 21, 14, 24, 8]",9,0,[],4.923116212,8982,863,1,0,9,4.915218144486606
basic,55,3,0,1,1,8,"[0, 17, 20, 3, 19, 21, 14, 24, 8]",9,0,[],4.923116212,9367,385,1,0,9,4.915218144486606
basic,56,2,0,0,0,0,[0],1,23,"[1, 2, 4, 5, 6, 7, 8, 9, 12, 13, 15, 16, 17, 18, 19, 20, 22, 23, 25, 26, 27, 28, 29]",300,150,-1,70,620,10,0.0
basic,56,2,0,0,0,12,"[0, 12]",2,19,"[1, 2, 4, 5, 6, 7, 13, 15, 16, 17, 18, 19, 20, 22, 25, 26, 27, 28, 29]",186.8275652,2994,2844,3,169,10,1.0
basic,56,2,0,0,0,5,"[0, 12, 5]",3,14,"[1, 4, 6, 7, 13, 15, 16, 18, 19, 22, 25, 26, 28, 29]",157.2979191,3605,611,2,88,10,1.0082498134695237
basic,56,2,0,0,0,22,"[0, 12, 5, 22]",4,11,"[1, 6, 7, 13, 15, 18, 19, 25, 26, 28, 29]",144.4916706,3960,355,1,45,10,1.0077567572950326
basic,56,2,0,0,0,13,"[0, 12, 5, 22, 13]",5,9,"[1, 6, 7, 15, 18, 19, 25, 26, 29]",129.6256019,4561,601,1,39,10,1.151783231594989
basic,56,2,0,0,0,18,"[0, 12, 5, 22, 13, 18]",6,4,"[7, 15, 26, 29]",94.45459106,5994,1433,1,14,10,1.1431544953850095
basic,56,2,0,0,0,7,"[0, 12, 5, 22, 13, 18, 7]",7,3,"[15, 26, 29]",84.15896092,6525,531,1,4,10,1.1360054688421053
basic,56,2,0,0,0,26,"[0, 12, 5, 22, 13, 18, 7, 26]",8,2,"[15, 29]",61.35545242,7330,805,1,1,10,1.1290531198668372
basic,56,2,0,0,0,15,"[0, 12, 5, 22, 13, 18, 7, 26, 15]",9,1,[29],37.14801554,8059,729,1,0,10,1.395427297339814
basic,56,2,0,0,1,29,"[0, 12, 5, 22, 13, 18, 7, 26, 15, 29]",10,0,[],8.687516603,8759,700,1,0,10,1.5868802136739162
basic,56,2,0,1,1,29,"[0, 12, 5, 22, 13, 18, 7, 26, 15, 29]",10,0,[],8.687516603,9134,375,1,0,10,1.5868802136739162
basic,57,7,0,0,0,0,[0],1,29,"[1, 2, 3, 4, 5, 6, 7, 8, 9, 10, 11, 12, 13, 14, 15, 16, 17, 18, 19, 20, 21, 22, 23, 24, 25, 26, 27, 28, 29]",300,165,-1,3,79,9,0.0
basic,57,7,0,0,0,25,"[0, 25]",2,20,"[2, 3, 4, 5, 6, 7, 10, 13, 14, 15, 16, 18, 19, 20, 21, 22, 23, 24, 27, 28]",181.5939191,2975,2810,5,33,8,1.0
basic,57,7,0,0,0,4,"[0, 25, 4]",3,11,"[2, 6, 7, 13, 15, 16, 18, 19, 20, 21, 23]",156.8552853,3589,614,2,14,8,1.0193465608331511
basic,57,7,0,0,0,20,"[0, 25, 4, 20]",4,8,"[2, 6, 7, 13, 15, 16, 18, 19]",137.2084026,4123,534,1,9,8,1.085904909082323
basic,57,7,0,0,0,18,"[0, 25, 4, 20, 18]",5,7,"[2, 6, 7, 13, 15, 16, 19]",124.4021541,4909,786,1,5,8,1.2264883846453758
basic,57,7,0,0,0,7,"[0, 25, 4, 20, 18, 7]",6,2,"[2, 19]",83.17109789,5779,870,1,1,8,1.185264473968278
basic,57,7,0,0,0,19,"[0, 25, 4, 20, 18, 7, 19]",7,1,[2],53.76021555,6302,523,1,0,8,1.3016904288278204
basic,57,7,0,0,1,2,"[0, 25, 4, 20, 18, 7, 19, 2]",8,0,[],23.61058868,7309,1007,1,0,8,1.3168868000947171
basic,57,7,0,1,1,2,"[0, 25, 4, 20, 18, 7, 19, 2]",8,0,[],23.61058868,7786,477,1,0,8,1.3168868000947171
basic,58,23,0,0,0,0,[0],1,28,"[1, 2, 3, 4, 5, 6, 7, 8, 9, 10, 11, 12, 13, 14, 15, 16, 17, 18, 19, 20, 21, 22, 23, 25, 26, 27, 28, 29]",300,141,-1,76,2626,10,0.0
basic,58,23,0,0,0,13,"[0, 13]",2,19,"[1, 2, 3, 5, 6, 7, 8, 9, 10, 12, 14, 17, 18, 19, 21, 22, 23, 27, 29]",189.3202819,6523,6382,9,168,10,1.0
basic,58,23,0,0,0,12,"[0, 13, 12]",3,16,"[1, 2, 3, 6, 7, 8, 9, 10, 14, 17, 18, 21, 22, 23, 27, 29]",177.2372359,7149,626,9,96,10,1.0014195490503164
basic,58,23,0,0,0,2,"[0, 13, 12, 2]",4,12,"[1, 3, 6, 7, 9, 10, 14, 18, 21, 22, 27, 29]",163.3447919,7945,796,4,30,10,1.0014394317924602
basic,58,23,0,0,0,27,"[0, 13, 12, 2, 27]",5,7,"[6, 7, 9, 14, 18, 22, 29]",124.7572292,11061,3116,3,13,9,1.2239486024132442
basic,58,23,0,0,0,6,"[0, 13, 12, 2, 27, 6]",6,4,"[9, 14, 22, 29]",96.45528577,11645,584,3,4,9,1.3547688051937776
basic,58,23,0,0,0,14,"[0, 13, 12, 2, 27, 6, 14]",7,3,"[9, 22, 29]",67.59354639,12612,967,2,2,9,1.6495592828651242
basic,58,23,0,0,0,9,"[0, 13, 12, 2, 27, 6, 14, 9]",8,2,"[22, 29]",57.15323988,13096,484,2,0,9,1.8587812141646465
basic,58,23,0,0,1,22,"[0, 13, 12, 2, 27, 6, 14, 9, 22]",9,0,[],7.504473534,14147,1051,1,0,9,3.268157440975581
basic,58,23,0,1,1,22,"[0, 13, 12, 2, 27, 6, 14, 9, 22]",9,0,[],7.504473534,14690,543,1,0,9,3.268157440975581
basic,59,36,0,0,0,0,[0],1,24,"[2, 4, 5, 6, 7, 8, 9, 10, 12, 13, 14, 15, 16, 17, 18, 19, 20, 22, 23, 25, 26, 27, 28, 29]",300,175,-1,2,200,10,0.0
basic,59,36,0,0,0,16,"[0, 16]",2,12,"[2, 8, 9, 10, 12, 13, 17, 18, 19, 23, 25, 27]",193.262003,6045,5870,20,112,8,1.0
basic,59,36,0,0,0,17,"[0, 16, 17]",3,10,"[2, 9, 10, 12, 13, 18, 19, 23, 25, 27]",164.9423985,6809,764,14,64,8,1.4289609665642613
basic,59,36,0,0,0,9,"[0, 16, 17, 9]",4,8,"[2, 10, 12, 13, 18, 19, 23, 25]",138.693589,7390,581,6,21,8,2.335567583937715
basic,59,36,0,0,0,19,"[0, 16, 17, 9, 19]",5,6,"[2, 10, 12, 13, 18, 25]",123.5608431,7907,517,6,5,8,2.2891022786553017
basic,59,36,0,0,0,2,"[0, 16, 17, 9, 19, 2]",6,3,"[10, 13, 25]",86.43942067,8827,920,2,1,8,1.891101810711848
basic,59,36,0,0,0,25,"[0, 16, 17, 9, 19, 2, 25]",7,1,[13],61.43942067,9627,800,1,0,8,2.0836773189568087
basic,59,36,0,0,1,13,"[0, 16, 17, 9, 19, 2, 25, 13]",8,0,[],40.84816038,10044,417,1,0,8,2.642206520923964
basic,59,36,0,1,1,13,"[0, 16, 17, 9, 19, 2, 25, 13]",8,0,[],40.84816038,10505,461,1,0,8,2.642206520923964
basic,60,21,0,0,0,0,[0],1,29,"[1, 2, 3, 4, 5, 6, 7, 8, 9, 10, 11, 12, 13, 14, 15, 16, 17, 18, 19, 20, 21, 22, 23, 24, 25, 26, 27, 28, 29]",300,154,-1,84,830,9,0.0
basic,60,21,0,0,0,21,"[0, 21]",2,22,"[1, 3, 4, 6, 8, 9, 10, 11, 12, 14, 15, 16, 17, 18, 20, 22, 23, 24, 25, 26, 27, 29]",210.1111798,1986,1832,1,69,9,1.0
basic,60,21,0,0,0,23,"[0, 21, 23]",3,17,"[1, 4, 6, 8, 9, 11, 12, 14, 15, 16, 17, 18, 20, 22, 24, 25, 29]",180.496994,2652,666,1,20,9,1.2068548240560575
basic,60,21,0,0,0,14,"[0, 21, 23, 14]",4,13,"[1, 4, 8, 9, 15, 16, 17, 18, 20, 22, 24, 25, 29]",151.4281103,3074,422,1,9,9,1.297088860827702
basic,60,21,0,0,0,4,"[0, 21, 23, 14, 4]",5,9,"[8, 15, 16, 17, 18, 22, 24, 25, 29]",137.2859747,4788,1714,1,8,9,1.2721354039174873
basic,60,21,0,0,0,16,"[0, 21, 23, 14, 4, 16]",6,3,"[8, 15, 24]",92.68776842,5549,761,1,3,9,1.2701343613365228
basic,60,21,0,0,0,8,"[0, 21, 23, 14, 4, 16, 8]",7,2,"[15, 24]",74.08669318,6083,534,1,1,9,1.246922453045919
basic,60,21,0,0,0,15,"[0, 21, 23, 14, 4, 16, 8, 15]",8,1,[24],49.08669318,6807,724,1,0,9,1.4904718261747145
basic,60,21,0,0,1,24,"[0, 21, 23, 14, 4, 16, 8, 15, 24]",9,0,[],3.381113654,7458,651,1,0,9,1.4914513287029687
basic,60,21,0,1,1,24,"[0, 21, 23, 14, 4, 16, 8, 15, 24]",9,0,[],3.381113654,7782,324,1,0,9,1.4914513287029687
basic,61,12,0,0,0,0,[0],1,29,"[1, 2, 3, 4, 5, 6, 7, 8, 9, 10, 11, 12, 13, 14, 15, 16, 17, 18, 19, 20, 21, 22, 23, 24, 25, 26, 27, 28, 29]",300,188,-1,2,32,9,0.0
basic,61,12,0,0,0,22,"[0, 22]",2,22,"[2, 4, 5, 6, 7, 9, 10, 12, 13, 14, 15, 16, 17, 18, 19, 21, 23, 24, 25, 27, 28, 29]",211.9943184,4063,3875,6,42,8,1.0
basic,61,12,0,0,0,16,"[0, 22, 16]",3,12,"[2, 4, 5, 6, 7, 12, 14, 19, 23, 24, 25, 27]",190.9943184,4541,478,6,24,8,1.2017164145167045
basic,61,12,0,0,0,4,"[0, 22, 16, 4]",4,9,"[2, 6, 7, 12, 14, 19, 24, 25, 27]",156.7890556,5175,634,6,14,8,1.146531713305579
basic,61,12,0,0,0,12,"[0, 22, 16, 4, 12]",5,4,"[14, 19, 24, 27]",114.5990094,6142,967,4,3,8,1.1221389456954312
basic,61,12,0,0,0,27,"[0, 22, 16, 4, 12, 27]",6,3,"[14, 19, 24]",90.24741807,6615,473,2,1,8,1.2262878338287035
basic,61,12,0,0,0,14,"[0, 22, 16, 4, 12, 27, 14]",7,1,[24],61.59432051,7311,696,1,0,8,1.2804562106751427
basic,61,12,0,0,1,24,"[0, 22, 16, 4, 12, 27, 14, 24]",8,0,[],44.38966997,7743,432,1,0,8,1.4322660007679802
basic,61,12,0,1,1,24,"[0, 22, 16, 4, 12, 27, 14, 24]",8,0,[],44.38966997,8236,493,1,0,8,1.4322660007679802
basic,62,29,0,0,0,0,[0],1,29,"[1, 2, 3, 4, 5, 6, 7, 8, 9, 10, 11, 12, 13, 14, 15, 16, 17, 18, 19, 20, 21, 22, 23, 24, 25, 26, 27, 28, 29]",300,150,-1,1,78,9,0.0
basic,62,29,0,0,0,14,"[0, 14]",2,22,"[1, 3, 4, 5, 6, 7, 9, 10, 11, 12, 13, 15, 16, 17, 21, 22, 23, 25, 26, 27, 28, 29]",209.490332,4222,4072,21,110,8,1.0
basic,62,29,0,0,0,13,"[0, 14, 13]",3,18,"[1, 4, 5, 6, 7, 9, 10, 12, 15, 16, 17, 21, 22, 25, 26, 27, 28, 29]",191.4625756,5477,1255,20,75,8,1.0027006502223275
basic,62,29,0,0,0,5,"[0, 14, 13, 5]",4,15,"[1, 4, 6, 7, 9, 12, 15, 17, 21, 22, 25, 26, 27, 28, 29]",165.7526554,6090,613,19,49,8,1.0803937325657265
basic,62,29,0,0,0,9,"[0, 14, 13, 5, 9]",5,5,"[4, 7, 12, 21, 22]",90.32719547,6858,768,1,4,8,1.1106242806359021
basic,62,29,0,0,0,7,"[0, 14, 13, 5, 9, 7]",6,3,"[4, 12, 22]",61.25831177,7461,603,1,2,8,1.4517532166216307
basic,62,29,0,0,0,12,"[0, 14, 13, 5, 9, 7, 12]",7,1,[22],47.65684126,7793,332,1,0,8,1.634564936839069
basic,62,29,0,0,1,22,"[0, 14, 13, 5, 9, 7, 12, 22]",8,0,[],9.709509336,8543,750,1,0,8,2.481840618087434
basic,62,29,0,1,1,22,"[0, 14, 13, 5, 9, 7, 12, 22]",8,0,[],9.709509336,8901,358,1,0,8,2.481840618087434
basic,63,41,0,0,0,0,[0],1,29,"[1, 2, 3, 4, 5, 6, 7, 8, 9, 10, 11, 12, 13, 14, 15, 16, 17, 18, 19, 20, 21, 22, 23, 24, 25, 26, 27, 28, 29]",300,155,-1,1,143,10,0.0
basic,63,41,0,0,0,13,"[0, 13]",2,23,"[1, 2, 3, 5, 6, 7, 9, 10, 11, 12, 14, 15, 17, 18, 19, 20, 21, 22, 24, 25, 26, 27, 28]",258.2747079,1519,1364,1,55,10,1.0
basic,63,41,0,0,0,28,"[0, 13, 28]",3,22,"[1, 2, 3, 5, 6, 7, 9, 10, 11, 12, 14, 15, 17, 18, 19, 20, 21, 22, 24, 25, 26, 27]",223.7928286,2271,752,1,39,10,1.895724242592676
basic,63,41,0,0,0,5,"[0, 13, 28, 5]",4,19,"[1, 2, 3, 6, 9, 10, 11, 12, 14, 15, 17, 18, 19, 20, 21, 22, 24, 25, 27]",210.1913581,2575,304,1,34,10,2.861541269398273
basic,63,41,0,0,0,22,"[0, 13, 28, 5, 22]",5,12,"[2, 3, 6, 9, 10, 11, 12, 17, 18, 20, 21, 25]",155.4464953,3361,786,11,12,9,2.096079268852861
basic,63,41,0,0,0,3,"[0, 13, 28, 5, 22, 3]",6,8,"[2, 9, 10, 12, 17, 18, 20, 21]",125.4798472,3845,484,7,5,9,4.404491319005463
basic,63,41,0,0,0,21,"[0, 13, 28, 5, 22, 3, 21]",7,4,"[2, 9, 12, 17]",93.33952984,5040,1195,5,1,9,4.228139797553632
basic,63,41,0,0,0,9,"[0, 13, 28, 5, 22, 3, 21, 9]",8,2,"[2, 17]",43.97354965,5990,950,2,0,9,3.111188754077749
basic,63,41,0,0,1,2,"[0, 13, 28, 5, 22, 3, 21, 9, 2]",9,0,[],31.89050368,6607,617,1,0,9,2.963304814480547
basic,63,41,0,1,1,2,"[0, 13, 28, 5, 22, 3, 21, 9, 2]",9,0,[],31.89050368,7489,882,1,0,9,2.963304814480547
basic,64,13,0,0,0,0,[0],1,29,"[1, 2, 3, 4, 5, 6, 7, 8, 9, 10, 11, 12, 13, 14, 15, 16, 17, 18, 19, 20, 21, 22, 23, 24, 25, 26, 27, 28, 29]",300,141,-1,60,2676,11,0.0
basic,64,13,0,0,0,28,"[0, 28]",2,24,"[1, 2, 3, 4, 6, 7, 8, 9, 10, 11, 12, 13, 15, 16, 17, 19, 20, 21, 22, 23, 24, 26, 27, 29]",226.3182519,1300,1159,12,378,10,1.0
basic,64,13,0,0,0,2,"[0, 28, 2]",3,20,"[1, 3, 4, 6, 7, 9, 11, 12, 13, 15, 16, 17, 19, 20, 21, 23, 24, 26, 27, 29]",188.6751915,2068,768,9,174,10,1.0158286399660754
basic,64,13,0,0,0,29,"[0, 28, 2, 29]",4,19,"[1, 3, 4, 6, 7, 9, 11, 12, 13, 15, 16, 17, 19, 20, 21, 23, 24, 26, 27]",176.9704916,2358,290,9,132,10,1.1053279759370194
basic,64,13,0,0,0,7,"[0, 28, 2, 29, 7]",5,18,"[1, 3, 4, 6, 9, 11, 12, 13, 15, 16, 17, 19, 20, 21, 23, 24, 26, 27]",161.706154,2872,514,6,72,10,1.313811244316471
basic,64,13,0,0,0,26,"[0, 28, 2, 29, 7, 26]",6,17,"[1, 3, 4, 6, 9, 11, 12, 13, 15, 16, 17, 19, 20, 21, 23, 24, 27]",151.2658475,3222,350,6,39,10,1.554636901089982
basic,64,13,0,0,0,11,"[0, 28, 2, 29, 7, 26, 11]",7,8,"[1, 3, 6, 13, 15, 16, 17, 23]",116.1517478,3955,733,8,4,9,1.4412490621699214
basic,64,13,0,0,0,6,"[0, 28, 2, 29, 7, 26, 11, 6]",8,4,"[13, 16, 17, 23]",97.04677462,4950,995,4,0,9,1.8692073228936845
basic,64,13,0,0,1,23,"[0, 28, 2, 29, 7, 26, 11, 6, 23]",9,0,[],33.54086939,5794,844,1,0,9,4.714798651698759
basic,64,13,0,1,1,23,"[0, 28, 2, 29, 7, 26, 11, 6, 23]",9,0,[],33.54086939,6814,1020,1,0,9,4.714798651698759
basic,65,22,0,0,0,0,[0],1,29,"[1, 2, 3, 4, 5, 6, 7, 8, 9, 10, 11, 12, 13, 14, 15, 16, 17, 18, 19, 20, 21, 22, 23, 24, 25, 26, 27, 28, 29]",300,176,-1,31,704,9,0.0
basic,65,22,0,0,0,16,"[0, 16]",2,21,"[1, 3, 6, 7, 8, 9, 11, 13, 14, 15, 17, 18, 19, 20, 21, 22, 24, 25, 27, 28, 29]",218.605897,1437,1261,17,147,9,1.0
basic,65,22,0,0,0,28,"[0, 16, 28]",3,13,"[6, 7, 9, 13, 14, 17, 19, 20, 21, 22, 24, 25, 29]",184.1675463,1920,483,12,61,9,1.047282311284478
basic,65,22,0,0,0,9,"[0, 16, 28, 9]",4,10,"[6, 7, 13, 14, 17, 19, 20, 21, 24, 29]",130.0473098,2926,1006,11,33,8,1.8977581243485222
basic,65,22,0,0,0,19,"[0, 16, 28, 9, 19]",5,9,"[6, 7, 13, 14, 17, 20, 21, 24, 29]",109.6512317,4746,1820,5,13,8,2.39059189090335
basic,65,22,0,0,0,29,"[0, 16, 28, 9, 19, 29]",6,8,"[6, 7, 13, 14, 17, 20, 21, 24]",94.61793536,5074,328,3,6,8,2.667074632516181
basic,65,22,0,0,0,14,"[0, 16, 28, 9, 19, 29, 14]",7,1,[7],36.36847184,6192,1118,1,0,8,2.035112530778068
basic,65,22,0,0,1,7,"[0, 16, 28, 9, 19, 29, 14, 7]",8,0,[],23.33006703,6859,667,1,0,8,2.1998846407940773
