condition,trial_id,map_id,undoIndicator,submit,checkEnd,currentChoice,chosen_all,n_city_all,n_within_reach,cities_reach,currentBudget,time_all,rt_all,n_opt_paths_all,n_subopt_paths_all,mas_all,tortuosity_all
basic,0,16,0,0,0,0,[0],1,29,"[1, 2, 3, 4, 5, 6, 7, 8, 9, 10, 11, 12, 13, 14, 15, 16, 17, 18, 19, 20, 21, 22, 23, 24, 25, 26, 27, 28, 29]",300,141,-1,13,161,9,0.0
basic,0,16,0,0,0,17,"[0, 17]",2,27,"[1, 2, 3, 4, 5, 7, 8, 9, 10, 11, 12, 13, 14, 15, 16, 18, 19, 20, 21, 22, 23, 24, 25, 26, 27, 28, 29]",241.3058776,5319,5178,2,58,9,1.0
basic,0,16,0,0,0,16,"[0, 17, 16]",3,26,"[1, 2, 3, 4, 5, 7, 8, 9, 10, 11, 12, 13, 14, 15, 18, 19, 20, 21, 22, 23, 24, 25, 26, 27, 28, 29]",212.9862731,6222,903,2,52,9,1.0529535521792848
basic,0,16,0,0,0,8,"[0, 17, 16, 8]",4,19,"[2, 3, 4, 5, 9, 12, 13, 14, 15, 19, 20, 21, 22, 23, 25, 26, 27, 28, 29]",164.6127266,7286,1064,2,38,9,1.0915134501573105
basic,0,16,0,0,0,20,"[0, 17, 16, 8, 20]",5,10,"[3, 4, 5, 9, 12, 13, 15, 19, 21, 25]",106.8372993,8484,1198,1,15,9,1.067523143001942
basic,0,16,0,0,0,25,"[0, 17, 16, 8, 20, 25]",6,7,"[3, 4, 5, 9, 12, 13, 15]",94.18818869,9233,749,1,9,9,1.1170093326933646
basic,0,16,0,0,0,9,"[0, 17, 16, 8, 20, 25, 9]",7,5,"[3, 4, 5, 13, 15]",81.38194021,10117,884,1,4,9,1.1095076562662525
basic,0,16,0,0,0,15,"[0, 17, 16, 8, 20, 25, 9, 15]",8,1,[5],42.48463953,12249,2132,1,0,9,1.213831159678775
basic,0,16,0,0,1,5,"[0, 17, 16, 8, 20, 25, 9, 15, 5]",9,0,[],13.0567616,13422,1173,1,0,9,1.5171779607523481
basic,0,16,0,1,1,5,"[0, 17, 16, 8, 20, 25, 9, 15, 5]",9,0,[],13.0567616,14809,1387,1,0,9,1.5171779607523481
basic,1,7,0,0,0,0,[0],1,29,"[1, 2, 3, 4, 5, 6, 7, 8, 9, 10, 11, 12, 13, 14, 15, 16, 17, 18, 19, 20, 21, 22, 23, 24, 25, 26, 27, 28, 29]",300,176,-1,3,79,9,0.0
basic,1,7,0,0,0,6,"[0, 6]",2,22,"[2, 4, 5, 7, 8, 9, 10, 11, 13, 14, 15, 16, 18, 19, 20, 21, 22, 23, 24, 25, 27, 28]",231.1160396,2686,2510,1,24,9,1.0
basic,1,7,0,0,0,13,"[0, 6, 13]",3,8,"[4, 7, 15, 18, 19, 20, 21, 25]",133.0344409,5405,2719,6,22,7,1.0045597027558524
basic,1,7,0,0,0,4,"[0, 6, 13, 4]",4,4,"[7, 18, 20, 25]",79.69589951,7358,1953,5,4,7,1.5688055800213379
basic,1,7,0,0,0,25,"[0, 6, 13, 4, 25]",5,2,"[18, 20]",54.95726575,8102,744,2,0,7,2.069511399548538
basic,1,7,0,0,0,18,"[0, 6, 13, 4, 25, 18]",6,1,[20],26.63766124,9417,1315,1,0,7,1.9093385318608538
basic,1,7,0,0,1,20,"[0, 6, 13, 4, 25, 18, 20]",7,0,[],13.83141276,10251,834,1,0,7,1.908893816832029
basic,1,7,0,1,1,20,"[0, 6, 13, 4, 25, 18, 20]",7,0,[],13.83141276,11143,892,1,0,7,1.908893816832029
basic,2,10,0,0,0,0,[0],1,29,"[1, 2, 3, 4, 5, 6, 7, 8, 9, 10, 11, 12, 13, 14, 15, 16, 17, 18, 19, 20, 21, 22, 23, 24, 25, 26, 27, 28, 29]",300,161,-1,1,100,9,0.0
basic,2,10,0,0,0,13,"[0, 13]",2,25,"[1, 2, 3, 4, 6, 7, 8, 9, 10, 11, 12, 14, 17, 18, 19, 20, 21, 22, 23, 24, 25, 26, 27, 28, 29]",249.4628849,3154,2993,1,79,9,1.0
basic,2,10,0,0,0,11,"[0, 13, 11]",3,20,"[1, 2, 3, 6, 7, 8, 9, 10, 12, 14, 18, 19, 20, 21, 22, 24, 26, 27, 28, 29]",206.4512586,4310,1156,1,54,9,1.0313137484914219
basic,2,10,0,0,0,19,"[0, 13, 11, 19]",4,11,"[2, 6, 8, 9, 10, 14, 18, 20, 24, 26, 27]",170.0919407,5019,709,1,22,9,1.0879446220132545
basic,2,10,0,0,0,2,"[0, 13, 11, 19, 2]",5,4,"[14, 20, 26, 27]",126.1829439,5720,701,1,4,9,1.06474052351343
basic,2,10,0,0,0,14,"[0, 13, 11, 19, 2, 14]",6,3,"[20, 26, 27]",114.0174188,6420,700,1,3,9,1.1628909195912238
basic,2,10,0,0,0,26,"[0, 13, 11, 19, 2, 14, 26]",7,2,"[20, 27]",79.34754716,7202,782,1,1,9,1.6660727647633602
basic,2,10,0,0,0,20,"[0, 13, 11, 19, 2, 14, 26, 20]",8,1,[27],47.56704999,9422,2220,1,0,9,2.085581809637999
basic,2,10,0,0,1,27,"[0, 13, 11, 19, 2, 14, 26, 20, 27]",9,0,[],2.312215998,10987,1565,1,0,9,1.9116357409137932
basic,2,10,0,1,1,27,"[0, 13, 11, 19, 2, 14, 26, 20, 27]",9,0,[],2.312215998,11744,757,1,0,9,1.9116357409137932
basic,3,39,0,0,0,0,[0],1,28,"[1, 2, 3, 4, 5, 6, 7, 9, 10, 11, 12, 13, 14, 15, 16, 17, 18, 19, 20, 21, 22, 23, 24, 25, 26, 27, 28, 29]",300,159,-1,1,30,10,0.0
basic,3,39,0,0,0,29,"[0, 29]",2,26,"[1, 2, 3, 4, 5, 6, 7, 9, 10, 12, 13, 14, 15, 16, 17, 18, 19, 20, 21, 22, 23, 24, 25, 26, 27, 28]",243.0614366,2302,2143,8,104,9,1.0
basic,3,39,0,0,0,12,"[0, 29, 12]",3,18,"[1, 2, 4, 5, 7, 9, 10, 13, 14, 15, 16, 18, 19, 22, 23, 24, 26, 28]",182.5221931,4218,1916,5,54,9,1.0026200331524904
basic,3,39,0,0,0,10,"[0, 29, 12, 10]",4,16,"[1, 2, 4, 5, 7, 9, 13, 14, 15, 16, 18, 19, 22, 23, 24, 26]",147.0116313,4970,752,5,34,9,1.2874817019928908
basic,3,39,0,0,0,7,"[0, 29, 12, 10, 7]",5,10,"[1, 2, 5, 13, 16, 18, 19, 22, 24, 26]",113.5900814,7486,2516,4,12,9,1.2250826263866774
basic,3,39,0,0,0,26,"[0, 29, 12, 10, 7, 26]",6,5,"[1, 16, 18, 19, 22]",94.90853971,8839,1353,3,4,9,1.2697275353190085
basic,3,39,0,0,0,22,"[0, 29, 12, 10, 7, 26, 22]",7,2,"[16, 19]",77.18849457,10968,2129,2,0,9,1.438961743955176
basic,3,39,0,0,0,16,"[0, 29, 12, 10, 7, 26, 22, 16]",8,1,[19],42.18849457,12971,2003,1,0,9,1.3580882130477205
basic,3,39,0,0,1,19,"[0, 29, 12, 10, 7, 26, 22, 16, 19]",9,0,[],24.72424537,13591,620,1,0,9,1.3646589157842668
basic,3,39,0,1,1,19,"[0, 29, 12, 10, 7, 26, 22, 16, 19]",9,0,[],24.72424537,14509,918,1,0,9,1.3646589157842668
basic,4,20,0,0,0,0,[0],1,21,"[1, 2, 3, 4, 5, 6, 7, 8, 9, 12, 17, 18, 20, 21, 22, 23, 25, 26, 27, 28, 29]",300,149,-1,1,9,9,0.0
basic,4,20,0,0,0,12,"[0, 12]",2,20,"[1, 2, 3, 4, 5, 6, 7, 8, 9, 17, 18, 20, 21, 22, 23, 25, 26, 27, 28, 29]",271.5570747,2297,2148,1,8,9,1.0
basic,4,20,0,0,0,1,"[0, 12, 1]",3,12,"[3, 4, 5, 6, 8, 9, 20, 21, 23, 27, 28, 29]",189.5692707,3644,1347,1,6,9,1.0757997779162911
basic,4,20,0,0,0,5,"[0, 12, 1, 5]",4,10,"[4, 6, 8, 9, 20, 21, 23, 27, 28, 29]",152.8950291,4706,1062,1,5,9,1.1708231454516806
basic,4,20,0,0,0,21,"[0, 12, 1, 5, 21]",5,8,"[4, 6, 8, 9, 20, 23, 27, 28]",107.8950291,5823,1117,1,4,9,1.126197336199212
basic,4,20,0,0,0,8,"[0, 12, 1, 5, 21, 8]",6,5,"[6, 9, 23, 27, 28]",90.43077988,6556,733,1,3,9,1.140007470699913
basic,4,20,0,0,1,27,"[0, 12, 1, 5, 21, 8, 27]",7,0,[],50.20640916,7828,1272,1,0,7,1.3128859656095468
basic,4,20,0,1,1,27,"[0, 12, 1, 5, 21, 8, 27]",7,0,[],50.20640916,8930,1102,1,0,7,1.3128859656095468
basic,5,2,0,0,0,0,[0],1,23,"[1, 2, 4, 5, 6, 7, 8, 9, 12, 13, 15, 16, 17, 18, 19, 20, 22, 23, 25, 26, 27, 28, 29]",300,143,-1,70,620,10,0.0
basic,5,2,0,0,0,19,"[0, 19]",2,22,"[1, 2, 4, 5, 6, 7, 8, 9, 12, 13, 15, 16, 17, 18, 20, 22, 23, 25, 26, 27, 28, 29]",210.306076,4067,3924,67,431,10,1.0
basic,5,2,0,0,0,6,"[0, 19, 6]",3,16,"[1, 2, 5, 7, 9, 12, 13, 15, 16, 17, 18, 22, 23, 26, 27, 29]",158.1332862,5202,1135,2,30,9,1.0690872794731507
basic,5,2,0,0,0,1,"[0, 19, 6, 1]",4,8,"[2, 5, 9, 12, 13, 18, 22, 23]",108.9397907,6384,1182,4,3,7,1.0544232312863975
basic,5,2,0,0,1,12,"[0, 19, 6, 1, 12]",5,0,[],11.67211875,8417,2033,1,0,5,2.5476864727999518
basic,5,2,0,1,1,12,"[0, 19, 6, 1, 12]",5,0,[],11.67211875,16609,8192,1,0,5,2.5476864727999518
basic,6,5,0,0,0,0,[0],1,29,"[1, 2, 3, 4, 5, 6, 7, 8, 9, 10, 11, 12, 13, 14, 15, 16, 17, 18, 19, 20, 21, 22, 23, 24, 25, 26, 27, 28, 29]",300,161,-1,5,139,9,0.0
basic,6,5,0,0,0,23,"[0, 23]",2,27,"[1, 2, 3, 4, 5, 6, 7, 8, 9, 10, 11, 12, 13, 14, 15, 16, 17, 18, 19, 20, 21, 22, 24, 25, 26, 27, 28]",249.8402552,4654,4493,3,75,9,1.0
basic,6,5,0,0,0,25,"[0, 23, 25]",3,23,"[1, 2, 3, 4, 5, 6, 8, 9, 10, 12, 13, 14, 15, 16, 17, 18, 19, 21, 22, 24, 26, 27, 28]",231.4011663,5653,999,3,43,9,1.0923159590575564
basic,6,5,0,0,0,12,"[0, 23, 25, 12]",4,19,"[2, 4, 5, 6, 8, 9, 10, 13, 14, 15, 16, 17, 18, 19, 21, 22, 24, 26, 27]",203.6162783,6570,917,13,38,8,1.344380276762952
basic,6,5,0,0,0,24,"[0, 23, 25, 12, 24]",5,13,"[4, 5, 6, 8, 9, 13, 15, 17, 18, 19, 22, 26, 27]",151.7607096,7559,989,9,16,8,2.0468715098289354
basic,6,5,0,0,0,17,"[0, 23, 25, 12, 24, 17]",6,7,"[4, 5, 6, 8, 15, 18, 19]",116.7749983,9293,1734,8,2,8,1.715984108382044
basic,6,5,0,0,0,6,"[0, 23, 25, 12, 24, 17, 6]",7,1,[4],37.88266658,10786,1493,1,0,8,1.5695648707784433
basic,6,5,0,0,1,4,"[0, 23, 25, 12, 24, 17, 6, 4]",8,0,[],25.841072,11403,617,1,0,8,1.564554768153833
basic,6,5,0,1,1,4,"[0, 23, 25, 12, 24, 17, 6, 4]",8,0,[],25.841072,12978,1575,1,0,8,1.564554768153833
basic,7,28,0,0,0,0,[0],1,27,"[1, 2, 3, 4, 5, 6, 7, 8, 9, 10, 11, 12, 13, 14, 15, 16, 17, 18, 19, 20, 22, 23, 25, 26, 27, 28, 29]",300,148,-1,2,96,9,0.0
basic,7,28,0,0,0,3,"[0, 3]",2,26,"[1, 2, 4, 5, 6, 7, 8, 9, 10, 11, 12, 13, 14, 15, 16, 17, 18, 19, 20, 22, 23, 25, 26, 27, 28, 29]",251.0817008,7229,7081,1,64,9,1.0
basic,7,28,0,0,0,20,"[0, 3, 20]",3,20,"[2, 4, 5, 6, 7, 8, 9, 10, 11, 12, 13, 14, 15, 16, 18, 19, 22, 23, 26, 28]",209.7416475,9174,1945,2,29,8,1.6703057504555512
basic,7,28,0,0,0,28,"[0, 3, 20, 28]",4,6,"[2, 4, 5, 8, 9, 26]",75.5775689,10507,1333,2,3,7,1.2149593606260531
basic,7,28,0,0,0,8,"[0, 3, 20, 28, 8]",5,2,"[4, 9]",57.77307508,11424,917,2,0,7,1.2010727463584687
basic,7,28,0,0,0,9,"[0, 3, 20, 28, 8, 9]",6,1,[4],42.64032913,12096,672,1,0,7,1.2507343161051856
basic,7,28,0,0,1,4,"[0, 3, 20, 28, 8, 9, 4]",7,0,[],19.61860027,13407,1311,1,0,7,1.2268905385442388
basic,7,28,0,1,1,4,"[0, 3, 20, 28, 8, 9, 4]",7,0,[],19.61860027,14015,608,1,0,7,1.2268905385442388
basic,8,31,0,0,0,0,[0],1,27,"[1, 3, 4, 5, 6, 7, 8, 10, 11, 12, 13, 14, 15, 16, 17, 18, 19, 20, 21, 22, 23, 24, 25, 26, 27, 28, 29]",300,146,-1,2,87,10,0.0
basic,8,31,0,0,0,14,"[0, 14]",2,25,"[1, 3, 5, 6, 7, 8, 10, 11, 12, 13, 15, 16, 17, 18, 19, 20, 21, 22, 23, 24, 25, 26, 27, 28, 29]",263.861378,2193,2047,2,59,10,1.0
basic,8,31,0,0,0,27,"[0, 14, 27]",3,22,"[1, 3, 5, 6, 7, 8, 10, 11, 12, 13, 15, 16, 17, 18, 19, 20, 21, 22, 24, 25, 28, 29]",235.6833724,3146,953,1,39,10,1.5881859159302467
basic,8,31,0,0,0,8,"[0, 14, 27, 8]",4,20,"[1, 3, 5, 6, 7, 10, 11, 12, 13, 16, 17, 18, 19, 20, 21, 22, 24, 25, 28, 29]",224.6380114,3671,525,1,36,10,2.1665048452331277
basic,8,31,0,0,0,18,"[0, 14, 27, 8, 18]",5,15,"[1, 5, 6, 7, 11, 12, 13, 16, 17, 19, 20, 22, 25, 28, 29]",188.7911147,4421,750,1,26,10,1.7273375741920205
basic,8,31,0,0,0,11,"[0, 14, 27, 8, 18, 11]",6,11,"[1, 5, 7, 12, 16, 17, 19, 20, 22, 25, 28]",153.9055876,5288,867,13,17,9,2.386348208737804
basic,8,31,0,0,0,17,"[0, 14, 27, 8, 18, 11, 17]",7,7,"[1, 5, 12, 20, 22, 25, 28]",112.7959781,6238,950,7,3,9,2.0680793354233384
basic,8,31,0,0,0,25,"[0, 14, 27, 8, 18, 11, 17, 25]",8,2,"[12, 22]",52.35592511,7804,1566,2,0,9,1.7167313436380267
basic,8,31,0,0,1,12,"[0, 14, 27, 8, 18, 11, 17, 25, 12]",9,0,[],21.76180802,8793,989,1,0,9,1.603498569183538
basic,8,31,0,1,1,12,"[0, 14, 27, 8, 18, 11, 17, 25, 12]",9,0,[],21.76180802,9463,670,1,0,9,1.603498569183538
basic,9,38,0,0,0,0,[0],1,29,"[1, 2, 3, 4, 5, 6, 7, 8, 9, 10, 11, 12, 13, 14, 15, 16, 17, 18, 19, 20, 21, 22, 23, 24, 25, 26, 27, 28, 29]",300,162,-1,33,506,9,0.0
basic,9,38,0,0,0,19,"[0, 19]",2,23,"[3, 4, 5, 6, 7, 8, 9, 11, 13, 14, 15, 16, 17, 18, 20, 22, 23, 24, 25, 26, 27, 28, 29]",219.5015528,3654,3492,6,61,9,1.0
basic,9,38,0,0,0,17,"[0, 19, 17]",3,21,"[3, 4, 5, 6, 7, 9, 11, 13, 14, 15, 16, 18, 20, 22, 23, 24, 25, 26, 27, 28, 29]",198.1239945,4591,937,6,53,9,1.571793785769489
basic,9,38,0,0,0,20,"[0, 19, 17, 20]",4,17,"[3, 4, 5, 6, 7, 11, 13, 14, 15, 16, 18, 22, 24, 25, 26, 27, 28]",174.3542658,5470,879,6,44,9,2.333182710277297
basic,9,38,0,0,0,13,"[0, 19, 17, 20, 13]",5,9,"[4, 11, 15, 16, 18, 24, 26, 27, 28]",125.0998244,6954,1484,1,11,9,1.7893595974504246
basic,9,38,0,0,0,4,"[0, 19, 17, 20, 13, 4]",6,6,"[11, 15, 16, 24, 26, 28]",93.69918748,7987,1033,1,6,9,2.942354535547757
basic,9,38,0,0,0,15,"[0, 19, 17, 20, 13, 4, 15]",7,4,"[11, 16, 26, 28]",67.69918748,8805,818,1,3,9,3.165907365359093
basic,9,38,0,0,0,11,"[0, 19, 17, 20, 13, 4, 15, 11]",8,1,[28],31.29863803,9570,765,1,0,9,3.362710012119994
basic,9,38,0,0,1,28,"[0, 19, 17, 20, 13, 4, 15, 11, 28]",9,0,[],4.280125857,12573,3003,1,0,9,2.7690631991189285
basic,9,38,0,1,1,28,"[0, 19, 17, 20, 13, 4, 15, 11, 28]",9,0,[],4.280125857,13462,889,1,0,9,2.7690631991189285
basic,10,30,0,0,0,0,[0],1,19,"[3, 4, 5, 7, 9, 11, 16, 17, 18, 19, 20, 21, 22, 24, 25, 26, 27, 28, 29]",300,161,-1,5,41,8,0.0
basic,10,30,0,0,0,16,"[0, 16]",2,17,"[3, 5, 7, 9, 11, 17, 18, 19, 20, 21, 22, 24, 25, 26, 27, 28, 29]",219.3774225,2487,2326,5,34,8,1.0
basic,10,30,0,0,0,26,"[0, 16, 26]",3,8,"[9, 11, 17, 20, 22, 25, 27, 28]",176.927452,3886,1399,7,3,5,1.3420329969668985
basic,10,30,0,0,0,17,"[0, 16, 26, 17]",4,1,[22],74.96177146,5752,1866,1,0,5,1.193219858893313
basic,10,30,0,0,1,22,"[0, 16, 26, 17, 22]",5,0,[],55.7263874,6823,1071,1,0,5,1.223925680162388
basic,10,30,0,1,1,22,"[0, 16, 26, 17, 22]",5,0,[],55.7263874,7294,471,1,0,5,1.223925680162388
basic,11,33,0,0,0,0,[0],1,23,"[1, 2, 5, 7, 8, 11, 12, 13, 14, 15, 16, 17, 18, 19, 20, 21, 23, 24, 25, 26, 27, 28, 29]",300,161,-1,5,108,9,0.0
basic,11,33,0,0,0,8,"[0, 8]",2,22,"[1, 2, 5, 7, 11, 12, 13, 14, 15, 16, 17, 18, 19, 20, 21, 23, 24, 25, 26, 27, 28, 29]",265.8679037,3519,3358,5,87,9,1.0
basic,11,33,0,0,0,21,"[0, 8, 21]",3,16,"[2, 5, 7, 11, 13, 14, 16, 17, 18, 19, 20, 24, 26, 27, 28, 29]",166.0430571,6070,2551,5,80,9,1.0670557763739492
basic,11,33,0,0,0,13,"[0, 8, 21, 13]",4,12,"[2, 7, 11, 14, 16, 17, 18, 19, 20, 24, 26, 29]",139.6422995,7541,1471,4,54,9,1.0555103820910288
basic,11,33,0,0,0,19,"[0, 8, 21, 13, 19]",5,10,"[7, 11, 14, 16, 17, 18, 20, 24, 26, 29]",114.1472019,8720,1179,3,19,9,1.1090798607799486
basic,11,33,0,0,0,24,"[0, 8, 21, 13, 19, 24]",6,6,"[7, 14, 16, 18, 26, 29]",72.09960985,10069,1349,2,3,9,1.1193530461391534
basic,11,33,0,0,0,7,"[0, 8, 21, 13, 19, 24, 7]",7,2,"[14, 26]",42.89344611,11104,1035,2,0,9,1.2065014071663551
basic,11,33,0,0,0,14,"[0, 8, 21, 13, 19, 24, 7, 14]",8,1,[26],28.02737737,11974,870,1,0,9,1.2536495746979057
basic,11,33,0,0,1,26,"[0, 8, 21, 13, 19, 24, 7, 14, 26]",9,0,[],15.37826672,12754,780,1,0,9,1.2580465331304596
basic,11,33,0,1,1,26,"[0, 8, 21, 13, 19, 24, 7, 14, 26]",9,0,[],15.37826672,14161,1407,1,0,9,1.2580465331304596
basic,12,11,0,0,0,0,[0],1,25,"[1, 2, 3, 4, 5, 6, 8, 9, 10, 11, 12, 13, 14, 15, 16, 17, 18, 19, 20, 22, 23, 25, 26, 27, 28]",300,134,-1,6,374,12,0.0
basic,12,11,0,0,0,1,"[0, 1]",2,24,"[2, 3, 4, 5, 6, 8, 9, 10, 11, 12, 13, 14, 15, 16, 17, 18, 19, 20, 22, 23, 25, 26, 27, 28]",264.6446609,3177,3043,6,217,12,1.0
basic,12,11,0,0,0,18,"[0, 1, 18]",3,19,"[2, 4, 5, 6, 8, 9, 11, 12, 14, 15, 16, 17, 19, 20, 22, 23, 25, 27, 28]",212.3187591,4489,1312,6,161,12,1.3884463804898786
basic,12,11,0,0,0,27,"[0, 1, 18, 27]",4,18,"[2, 4, 5, 6, 8, 9, 11, 12, 14, 15, 16, 17, 19, 20, 22, 23, 25, 28]",188.4650382,5473,984,6,155,12,1.3600813284083875
basic,12,11,0,0,0,17,"[0, 1, 18, 27, 17]",5,11,"[2, 5, 6, 8, 11, 12, 15, 19, 22, 25, 28]",111.3871556,7837,2364,2,45,12,1.282398281674261
basic,12,11,0,0,0,8,"[0, 1, 18, 27, 17, 8]",6,7,"[2, 5, 11, 12, 15, 22, 28]",97.0693345,8927,1090,2,21,12,1.3975291553712
basic,12,11,0,0,0,15,"[0, 1, 18, 27, 17, 8, 15]",7,6,"[2, 5, 11, 12, 22, 28]",83.61571045,10021,1094,2,18,12,1.3793915678186077
basic,12,11,0,0,0,11,"[0, 1, 18, 27, 17, 8, 15, 11]",8,4,"[2, 5, 22, 28]",65.50494017,10807,786,2,14,12,1.3525960247899067
basic,12,11,0,0,0,28,"[0, 1, 18, 27, 17, 8, 15, 11, 28]",9,3,"[2, 5, 22]",46.08845233,12122,1315,2,4,12,1.4693669896690256
basic,12,11,0,0,0,5,"[0, 1, 18, 27, 17, 8, 15, 11, 28, 5]",10,2,"[2, 22]",28.19990851,12938,816,1,1,12,1.6706321377081579
basic,12,11,0,0,0,2,"[0, 1, 18, 27, 17, 8, 15, 11, 28, 5, 2]",11,1,[22],11.19990851,15139,2201,1,0,12,1.6180355992209499
basic,12,11,0,0,1,22,"[0, 1, 18, 27, 17, 8, 15, 11, 28, 5, 2, 22]",12,0,[],1.150032892,15888,749,1,0,12,1.5851265969407473
basic,12,11,0,1,1,22,"[0, 1, 18, 27, 17, 8, 15, 11, 28, 5, 2, 22]",12,0,[],1.150032892,18613,2725,1,0,12,1.5851265969407473
basic,13,43,0,0,0,0,[0],1,23,"[1, 2, 3, 4, 5, 6, 7, 9, 10, 11, 12, 14, 15, 16, 17, 19, 20, 21, 22, 23, 25, 27, 29]",300,161,-1,16,556,12,0.0
basic,13,43,0,0,0,29,"[0, 29]",2,22,"[1, 2, 3, 4, 5, 6, 7, 9, 10, 11, 12, 14, 15, 16, 17, 19, 20, 21, 22, 23, 25, 27]",277.909278,2654,2493,16,520,12,1.0
basic,13,43,0,0,0,20,"[0, 29, 20]",3,20,"[1, 2, 3, 4, 6, 7, 9, 10, 11, 12, 14, 15, 16, 17, 19, 21, 22, 23, 25, 27]",254.4785289,3542,888,15,422,12,1.082311746871282
basic,13,43,0,0,0,16,"[0, 29, 20, 16]",4,19,"[1, 2, 3, 4, 6, 7, 9, 10, 11, 12, 14, 15, 17, 19, 21, 22, 23, 25, 27]",231.8511119,4420,878,15,389,12,1.215201926898219
basic,13,43,0,0,0,25,"[0, 29, 20, 16, 25]",5,14,"[1, 2, 3, 4, 6, 7, 9, 11, 12, 14, 15, 19, 22, 23]",175.7708124,5635,1215,53,282,11,1.566384303308987
basic,13,43,0,0,0,15,"[0, 29, 20, 16, 25, 15]",6,13,"[1, 2, 3, 4, 6, 7, 9, 11, 12, 14, 19, 22, 23]",153.0992443,6474,839,27,108,11,1.776736412604812
basic,13,43,0,0,0,12,"[0, 29, 20, 16, 25, 15, 12]",7,10,"[1, 3, 6, 7, 9, 11, 14, 19, 22, 23]",133.7860364,7587,1113,21,41,11,1.6813323012225032
basic,13,43,0,0,0,3,"[0, 29, 20, 16, 25, 15, 12, 3]",8,9,"[1, 6, 7, 9, 11, 14, 19, 22, 23]",120.7860364,9154,1567,20,12,11,1.608740348096123
basic,13,43,0,0,0,22,"[0, 29, 20, 16, 25, 15, 12, 3, 22]",9,6,"[1, 6, 7, 11, 14, 19]",86.07292644,10453,1299,9,2,11,1.793657891802588
basic,13,43,0,0,0,11,"[0, 29, 20, 16, 25, 15, 12, 3, 22, 11]",10,1,[6],40.00775521,14669,4216,1,0,11,2.857057635054945
basic,13,43,0,0,1,6,"[0, 29, 20, 16, 25, 15, 12, 3, 22, 11, 6]",11,0,[],19.39222709,16009,1340,1,0,11,2.5442600061215437
basic,13,43,0,1,1,6,"[0, 29, 20, 16, 25, 15, 12, 3, 22, 11, 6]",11,0,[],19.39222709,18011,2002,1,0,11,2.5442600061215437
basic,14,40,0,0,0,0,[0],1,29,"[1, 2, 3, 4, 5, 6, 7, 8, 9, 10, 11, 12, 13, 14, 15, 16, 17, 18, 19, 20, 21, 22, 23, 24, 25, 26, 27, 28, 29]",300,145,-1,8,191,9,0.0
basic,14,40,0,0,0,1,"[0, 1]",2,18,"[2, 5, 6, 7, 8, 9, 10, 11, 13, 15, 17, 18, 19, 21, 22, 23, 27, 29]",247.8463808,2851,2706,4,80,9,1.0
basic,14,40,0,0,0,6,"[0, 1, 6]",3,17,"[2, 5, 7, 8, 9, 10, 11, 13, 15, 17, 18, 19, 21, 22, 23, 27, 29]",227.7466295,3577,726,4,74,9,1.0459427008232034
basic,14,40,0,0,0,23,"[0, 1, 6, 23]",4,15,"[2, 5, 7, 8, 9, 10, 11, 13, 17, 18, 19, 21, 22, 27, 29]",158.176521,5153,1576,12,41,8,1.4952830531485621
basic,14,40,0,0,0,19,"[0, 1, 6, 23, 19]",5,11,"[2, 5, 7, 8, 9, 10, 18, 21, 22, 27, 29]",126.2234304,8988,3835,5,11,8,1.6938703560433817
basic,14,40,0,0,0,5,"[0, 1, 6, 23, 19, 5]",6,3,"[9, 18, 22]",88.14456485,10387,1399,2,1,8,1.722629652357085
basic,14,40,0,0,0,18,"[0, 1, 6, 23, 19, 5, 18]",7,1,[9],56.56925804,11903,1516,1,0,8,2.0550180214885767
basic,14,40,0,0,1,9,"[0, 1, 6, 23, 19, 5, 18, 9]",8,0,[],40.01631268,12520,617,1,0,8,2.108052836974967
basic,14,40,0,1,1,9,"[0, 1, 6, 23, 19, 5, 18, 9]",8,0,[],40.01631268,13278,758,1,0,8,2.108052836974967
basic,15,0,0,0,0,0,[0],1,27,"[2, 3, 4, 5, 6, 7, 8, 9, 10, 11, 12, 13, 14, 15, 16, 17, 19, 20, 21, 22, 23, 24, 25, 26, 27, 28, 29]",300,148,-1,104,1136,9,0.0
basic,15,0,0,0,0,16,"[0, 16]",2,14,"[4, 5, 6, 9, 11, 12, 15, 20, 21, 24, 26, 27, 28, 29]",196.245482,5588,5440,8,27,6,1.0
basic,15,0,0,0,0,27,"[0, 16, 27]",3,5,"[5, 11, 20, 28, 29]",172.900247,8088,2500,5,3,5,1.0246648595498284
basic,15,0,0,0,0,29,"[0, 16, 27, 29]",4,3,"[5, 11, 20]",122.900247,9840,1752,3,0,5,1.3252613921248364
basic,15,0,0,0,1,20,"[0, 16, 27, 29, 20]",5,0,[],43.49621684,11371,1531,1,0,5,3.03538831781657
basic,15,0,0,1,1,20,"[0, 16, 27, 29, 20]",5,0,[],43.49621684,12280,909,1,0,5,3.03538831781657
basic,16,6,0,0,0,0,[0],1,29,"[1, 2, 3, 4, 5, 6, 7, 8, 9, 10, 11, 12, 13, 14, 15, 16, 17, 18, 19, 20, 21, 22, 23, 24, 25, 26, 27, 28, 29]",300,131,-1,180,4304,10,0.0
basic,16,6,0,0,0,7,"[0, 7]",2,26,"[1, 2, 3, 4, 5, 6, 8, 9, 10, 11, 12, 13, 14, 15, 16, 17, 18, 19, 20, 21, 22, 23, 24, 26, 27, 29]",251.9791712,3660,3529,16,572,10,1.0
basic,16,6,0,0,0,3,"[0, 7, 3]",3,25,"[1, 2, 4, 5, 6, 8, 9, 10, 11, 12, 13, 14, 15, 16, 17, 18, 19, 20, 21, 22, 23, 24, 26, 27, 29]",215.8405492,4772,1112,4,222,10,2.5102659609695053
basic,16,6,0,0,0,24,"[0, 7, 3, 24]",4,18,"[1, 2, 4, 5, 6, 8, 10, 11, 13, 14, 16, 17, 18, 22, 23, 26, 27, 29]",151.8874414,8016,3244,9,61,9,1.5223293981374024
basic,16,6,0,0,0,10,"[0, 7, 3, 24, 10]",5,15,"[1, 2, 4, 6, 8, 13, 14, 16, 17, 18, 22, 23, 26, 27, 29]",138.4710335,9140,1124,7,30,9,1.915108941370621
basic,16,6,0,0,0,17,"[0, 7, 3, 24, 10, 17]",6,10,"[1, 2, 6, 13, 16, 18, 22, 23, 26, 29]",118.7479506,9939,799,6,16,9,2.568175242038698
basic,16,6,0,0,0,18,"[0, 7, 3, 24, 10, 17, 18]",7,9,"[1, 2, 6, 13, 16, 22, 23, 26, 29]",104.8195623,10639,700,4,6,9,3.204851205363641
basic,16,6,0,0,0,16,"[0, 7, 3, 24, 10, 17, 18, 16]",8,2,"[23, 29]",81.47432724,11355,716,2,0,9,3.0274961831843643
basic,16,6,0,0,1,29,"[0, 7, 3, 24, 10, 17, 18, 16, 29]",9,0,[],44.78645458,15457,4102,1,0,9,2.396186471373409
basic,16,6,0,1,1,29,"[0, 7, 3, 24, 10, 17, 18, 16, 29]",9,0,[],44.78645458,17498,2041,1,0,9,2.396186471373409
basic,17,26,0,0,0,0,[0],1,29,"[1, 2, 3, 4, 5, 6, 7, 8, 9, 10, 11, 12, 13, 14, 15, 16, 17, 18, 19, 20, 21, 22, 23, 24, 25, 26, 27, 28, 29]",300,160,-1,9,226,9,0.0
basic,17,26,0,0,0,4,"[0, 4]",2,13,"[5, 6, 10, 12, 13, 14, 16, 17, 19, 21, 23, 26, 29]",178.7976898,3985,3825,4,118,8,1.0
basic,17,26,0,0,0,10,"[0, 4, 10]",3,5,"[6, 14, 16, 17, 29]",128.5881289,5672,1687,1,11,8,1.0592893513500627
basic,17,26,0,0,0,6,"[0, 4, 10, 6]",4,4,"[14, 16, 17, 29]",99.31356661,6585,913,1,7,8,1.249516025811376
basic,17,26,0,0,0,17,"[0, 4, 10, 6, 17]",5,3,"[14, 16, 29]",79.18895481,7293,708,4,0,7,1.5540442809388475
basic,17,26,0,0,0,14,"[0, 4, 10, 6, 17, 14]",6,1,[29],56.71674976,8335,1042,1,0,7,1.5096498719062548
basic,17,26,0,0,1,29,"[0, 4, 10, 6, 17, 14, 29]",7,0,[],15.4856935,10043,1708,1,0,7,2.3284890795064594
basic,17,26,0,1,1,29,"[0, 4, 10, 6, 17, 14, 29]",7,0,[],15.4856935,11143,1100,1,0,7,2.3284890795064594
basic,18,42,0,0,0,0,[0],1,29,"[1, 2, 3, 4, 5, 6, 7, 8, 9, 10, 11, 12, 13, 14, 15, 16, 17, 18, 19, 20, 21, 22, 23, 24, 25, 26, 27, 28, 29]",300,138,-1,16,302,9,0.0
basic,18,42,0,0,0,3,"[0, 3]",2,25,"[1, 2, 4, 5, 6, 7, 8, 9, 10, 11, 13, 15, 17, 18, 19, 20, 21, 22, 23, 24, 25, 26, 27, 28, 29]",255.7959278,2723,2585,3,45,9,1.0
basic,18,42,0,0,0,11,"[0, 3, 11]",3,19,"[1, 2, 4, 5, 6, 7, 8, 9, 15, 17, 19, 22, 23, 24, 25, 26, 27, 28, 29]",207.3294445,3915,1192,49,82,7,1.0096173648192857
basic,18,42,0,0,0,24,"[0, 3, 11, 24]",4,15,"[1, 2, 4, 5, 6, 7, 8, 15, 17, 19, 22, 23, 26, 27, 28]",149.3208245,5343,1428,18,27,7,1.149921218069753
basic,18,42,0,0,0,15,"[0, 3, 11, 24, 15]",5,12,"[1, 2, 4, 6, 7, 8, 17, 19, 22, 23, 26, 28]",135.719354,6272,929,12,5,7,1.135891118329389
basic,18,42,0,0,0,6,"[0, 3, 11, 24, 15, 6]",6,2,"[2, 28]",86.32299783,7719,1447,2,0,7,1.1101190027582533
basic,18,42,0,0,1,2,"[0, 3, 11, 24, 15, 6, 2]",7,0,[],20.01311923,9206,1487,1,0,7,1.4612807389404392
basic,18,42,0,1,1,2,"[0, 3, 11, 24, 15, 6, 2]",7,0,[],20.01311923,10098,892,1,0,7,1.4612807389404392
basic,19,12,0,0,0,0,[0],1,29,"[1, 2, 3, 4, 5, 6, 7, 8, 9, 10, 11, 12, 13, 14, 15, 16, 17, 18, 19, 20, 21, 22, 23, 24, 25, 26, 27, 28, 29]",300,161,-1,2,32,9,0.0
basic,19,12,0,0,0,6,"[0, 6]",2,28,"[1, 2, 3, 4, 5, 7, 8, 9, 10, 11, 12, 13, 14, 15, 16, 17, 18, 19, 20, 21, 22, 23, 24, 25, 26, 27, 28, 29]",283.5987805,4703,4542,2,18,9,1.0
basic,19,12,0,0,0,16,"[0, 6, 16]",3,12,"[2, 4, 5, 7, 12, 14, 19, 22, 23, 24, 25, 27]",177.65068,6386,1683,6,32,8,1.3488213090441052
basic,19,12,0,0,0,4,"[0, 6, 16, 4]",4,7,"[12, 14, 19, 22, 24, 25, 27]",143.4454173,7303,917,2,10,8,1.2533594738927718
basic,19,12,0,0,0,22,"[0, 6, 16, 4, 22]",5,5,"[12, 19, 24, 25, 27]",98.84721104,9135,1832,5,0,6,2.2856795745847998
basic,19,12,0,0,1,12,"[0, 6, 16, 4, 22, 12]",6,0,[],19.46837255,10553,1418,1,0,6,1.6979168430665679
basic,19,12,0,1,1,12,"[0, 6, 16, 4, 22, 12]",6,0,[],19.46837255,11044,491,1,0,6,1.6979168430665679
basic,20,34,0,0,0,0,[0],1,25,"[1, 3, 4, 5, 6, 7, 8, 9, 10, 11, 12, 13, 15, 18, 19, 20, 21, 22, 23, 24, 25, 26, 27, 28, 29]",300,147,-1,12,367,10,0.0
basic,20,34,0,0,0,13,"[0, 13]",2,24,"[1, 3, 4, 5, 6, 7, 8, 9, 10, 11, 12, 15, 18, 19, 20, 21, 22, 23, 24, 25, 26, 27, 28, 29]",279.9750156,1805,1658,12,331,10,1.0
basic,20,34,0,0,0,1,"[0, 13, 1]",3,16,"[3, 5, 7, 8, 9, 10, 11, 12, 19, 21, 22, 23, 24, 25, 27, 29]",211.8574701,4027,2222,3,92,10,1.0010381285747127
basic,20,34,0,0,0,8,"[0, 13, 1, 8]",4,14,"[3, 5, 7, 9, 10, 11, 12, 19, 22, 23, 24, 25, 27, 29]",201.0871405,5044,1017,2,54,10,1.1636807
basic,20,34,0,0,0,25,"[0, 13, 1, 8, 25]",5,12,"[3, 5, 7, 9, 10, 11, 12, 22, 23, 24, 27, 29]",183.999133,5612,568,2,28,10,1.1396208815936457
basic,20,34,0,0,0,24,"[0, 13, 1, 8, 25, 24]",6,11,"[3, 5, 7, 9, 10, 11, 12, 22, 23, 27, 29]",166.5062774,6197,585,2,23,10,1.374180768736554
basic,20,34,0,0,0,10,"[0, 13, 1, 8, 25, 24, 10]",7,2,"[9, 22]",83.94115154,8139,1942,1,1,9,1.206223549925811
basic,20,34,0,0,0,22,"[0, 13, 1, 8, 25, 24, 10, 22]",8,1,[9],48.94115154,9080,941,1,0,9,1.4772001618468413
basic,20,34,0,0,1,9,"[0, 13, 1, 8, 25, 24, 10, 22, 9]",9,0,[],2.76756602,11791,2711,1,0,9,1.4484674289889272
basic,20,34,0,1,1,9,"[0, 13, 1, 8, 25, 24, 10, 22, 9]",9,0,[],2.76756602,16580,4789,1,0,9,1.4484674289889272
basic,21,17,0,0,0,0,[0],1,28,"[1, 2, 3, 4, 5, 6, 7, 8, 9, 10, 11, 12, 13, 14, 15, 16, 17, 18, 19, 20, 22, 23, 24, 25, 26, 27, 28, 29]",300,168,-1,2,73,8,0.0
basic,21,17,0,0,0,9,"[0, 9]",2,25,"[1, 2, 3, 5, 6, 7, 8, 10, 11, 12, 14, 15, 16, 17, 18, 19, 20, 22, 23, 24, 25, 26, 27, 28, 29]",210.5293344,2768,2600,1,34,8,1.0
basic,21,17,0,0,0,16,"[0, 9, 16]",3,21,"[1, 2, 3, 5, 7, 8, 10, 11, 12, 14, 17, 18, 19, 20, 22, 23, 25, 26, 27, 28, 29]",197.1876704,3688,920,1,26,8,1.173103464220352
basic,21,17,0,0,0,2,"[0, 9, 16, 2]",4,18,"[1, 3, 5, 7, 8, 10, 11, 12, 14, 17, 18, 19, 23, 25, 26, 27, 28, 29]",181.0631549,4535,847,1,23,8,1.14825089247282
basic,21,17,0,0,0,17,"[0, 9, 16, 2, 17]",5,7,"[7, 8, 12, 14, 26, 27, 29]",142.7356191,5467,932,4,5,7,1.4896040699768547
basic,21,17,0,0,0,8,"[0, 9, 16, 2, 17, 8]",6,3,"[7, 12, 27]",104.5256727,6234,767,3,0,7,1.4604726966175894
basic,21,17,0,0,1,7,"[0, 9, 16, 2, 17, 8, 7]",7,0,[],33.81499459,9235,3001,1,0,7,1.4474701869793896
basic,21,17,0,1,1,7,"[0, 9, 16, 2, 17, 8, 7]",7,0,[],33.81499459,9676,441,1,0,7,1.4474701869793896
basic,22,8,0,0,0,0,[0],1,29,"[1, 2, 3, 4, 5, 6, 7, 8, 9, 10, 11, 12, 13, 14, 15, 16, 17, 18, 19, 20, 21, 22, 23, 24, 25, 26, 27, 28, 29]",300,146,-1,10,149,9,0.0
basic,22,8,0,0,0,5,"[0, 5]",2,28,"[1, 2, 3, 4, 6, 7, 8, 9, 10, 11, 12, 13, 14, 15, 16, 17, 18, 19, 20, 21, 22, 23, 24, 25, 26, 27, 28, 29]",254.5137383,1872,1726,10,100,9,1.0
basic,22,8,0,0,0,25,"[0, 5, 25]",3,20,"[1, 2, 3, 4, 6, 11, 12, 14, 15, 16, 17, 18, 19, 20, 21, 22, 23, 24, 28, 29]",215.3091468,3339,1467,4,42,9,1.2272747879909065
basic,22,8,0,0,0,1,"[0, 5, 25, 1]",4,17,"[3, 4, 6, 11, 12, 14, 15, 16, 17, 18, 20, 21, 22, 23, 24, 28, 29]",190.3091468,4525,1186,3,24,9,1.1770245007593956
basic,22,8,0,0,0,23,"[0, 5, 25, 1, 23]",5,15,"[3, 4, 6, 11, 14, 15, 16, 17, 18, 20, 21, 22, 24, 28, 29]",167.2874179,5227,702,1,14,9,1.141996583852372
basic,22,8,0,0,0,18,"[0, 5, 25, 1, 23, 18]",6,9,"[3, 4, 11, 14, 15, 16, 17, 24, 28]",125.5261919,6255,1028,1,7,9,1.3199166330970717
basic,22,8,0,0,0,14,"[0, 5, 25, 1, 23, 18, 14]",7,2,"[11, 17]",68.03706246,7220,965,1,1,9,2.714920831666598
basic,22,8,0,0,0,17,"[0, 5, 25, 1, 23, 18, 14, 17]",8,1,[11],31.02355141,8238,1018,1,0,9,2.462600896722246
basic,22,8,0,0,1,11,"[0, 5, 25, 1, 23, 18, 14, 17, 11]",9,0,[],5.84419479,9088,850,1,0,9,2.246839316887767
basic,22,8,0,1,1,11,"[0, 5, 25, 1, 23, 18, 14, 17, 11]",9,0,[],5.84419479,9880,792,1,0,9,2.246839316887767
undo,23,20,0,0,0,0,[0],1,21,"[1, 2, 3, 4, 5, 6, 7, 8, 9, 12, 17, 18, 20, 21, 22, 23, 25, 26, 27, 28, 29]",300,149,-1,1,9,9,0.0
undo,23,20,0,0,0,12,"[0, 12]",2,20,"[1, 2, 3, 4, 5, 6, 7, 8, 9, 17, 18, 20, 21, 22, 23, 25, 26, 27, 28, 29]",271.5570747,3522,3373,1,8,9,1.0
undo,23,20,0,0,0,1,"[0, 12, 1]",3,12,"[3, 4, 5, 6, 8, 9, 20, 21, 23, 27, 28, 29]",189.5692707,5240,1718,1,6,9,1.0757997779162911
undo,23,20,0,0,0,5,"[0, 12, 1, 5]",4,10,"[4, 6, 8, 9, 20, 21, 23, 27, 28, 29]",152.8950291,6574,1334,1,5,9,1.1708231454516806
undo,23,20,0,0,0,21,"[0, 12, 1, 5, 21]",5,8,"[4, 6, 8, 9, 20, 23, 27, 28]",107.8950291,8208,1634,1,4,9,1.126197336199212
undo,23,20,0,0,0,8,"[0, 12, 1, 5, 21, 8]",6,5,"[6, 9, 23, 27, 28]",90.43077988,9074,866,1,3,9,1.140007470699913
undo,23,20,0,0,1,27,"[0, 12, 1, 5, 21, 8, 27]",7,0,[],50.20640916,10129,1055,1,0,7,1.3128859656095468
undo,23,20,1,0,0,8,"[0, 12, 1, 5, 21, 8]",6,5,"[6, 9, 23, 27, 28]",90.43077988,12566,2437,1,3,9,1.140007470699913
undo,23,20,1,0,0,21,"[0, 12, 1, 5, 21]",5,8,"[4, 6, 8, 9, 20, 23, 27, 28]",107.8950291,16183,3617,1,4,9,1.126197336199212
undo,23,20,0,0,0,28,"[0, 12, 1, 5, 21, 28]",6,2,"[8, 23]",71.64589116,17424,1241,2,0,7,1.18978010717367
undo,23,20,0,0,1,8,"[0, 12, 1, 5, 21, 28, 8]",7,0,[],28.4602454,19907,2483,1,0,7,1.4771126631037113
undo,23,20,0,1,1,8,"[0, 12, 1, 5, 21, 28, 8]",7,0,[],28.4602454,21349,1442,1,0,7,1.4771126631037113
undo,24,35,0,0,0,0,[0],1,29,"[1, 2, 3, 4, 5, 6, 7, 8, 9, 10, 11, 12, 13, 14, 15, 16, 17, 18, 19, 20, 21, 22, 23, 24, 25, 26, 27, 28, 29]",300,166,-1,5,236,11,0.0
undo,24,35,0,0,0,24,"[0, 24]",2,27,"[1, 2, 4, 5, 6, 7, 8, 9, 10, 11, 12, 13, 14, 15, 16, 17, 18, 19, 20, 21, 22, 23, 25, 26, 27, 28, 29]",268.9838752,2708,2542,49,512,10,1.0
undo,24,35,0,0,0,17,"[0, 24, 17]",3,26,"[1, 2, 4, 5, 6, 7, 8, 9, 10, 11, 12, 13, 14, 15, 16, 18, 19, 20, 21, 22, 23, 25, 26, 27, 28, 29]",257.2791753,3789,1081,33,238,10,1.0771477201815276
undo,24,35,0,0,0,1,"[0, 24, 17, 1]",4,25,"[2, 4, 5, 6, 7, 8, 9, 10, 11, 12, 13, 14, 15, 16, 18, 19, 20, 21, 22, 23, 25, 26, 27, 28, 29]",241.4677869,5036,1247,26,151,10,1.2244804141479215
undo,24,35,0,0,0,15,"[0, 24, 17, 1, 15]",5,23,"[2, 4, 5, 6, 7, 8, 9, 10, 11, 12, 14, 16, 18, 19, 20, 21, 22, 23, 25, 26, 27, 28, 29]",218.6204676,7290,2254,26,78,10,1.4642196672428094
undo,24,35,0,0,0,23,"[0, 24, 17, 1, 15, 23]",6,11,"[4, 5, 6, 9, 18, 19, 25, 26, 27, 28, 29]",158.1804147,10011,2721,15,12,10,1.3338903684702363
undo,24,35,0,0,0,9,"[0, 24, 17, 1, 15, 23, 9]",7,6,"[5, 6, 18, 19, 25, 27]",120.5373542,11052,1041,6,1,10,1.5964380615155294
undo,24,35,0,0,0,18,"[0, 24, 17, 1, 15, 23, 9, 18]",8,3,"[5, 6, 25]",100.5123698,12553,1501,2,1,10,1.5508488101942703
undo,24,35,0,0,0,6,"[0, 24, 17, 1, 15, 23, 9, 18, 6]",9,1,[25],66.89689722,13513,960,1,0,10,1.541466044761729
undo,24,35,0,0,1,25,"[0, 24, 17, 1, 15, 23, 9, 18, 6, 25]",10,0,[],42.87607292,16203,2690,1,0,10,1.5877595882523792
undo,24,35,0,1,1,25,"[0, 24, 17, 1, 15, 23, 9, 18, 6, 25]",10,0,[],42.87607292,17446,1243,1,0,10,1.5877595882523792
undo,25,36,0,0,0,0,[0],1,24,"[2, 4, 5, 6, 7, 8, 9, 10, 12, 13, 14, 15, 16, 17, 18, 19, 20, 22, 23, 25, 26, 27, 28, 29]",300,153,-1,2,200,10,0.0
undo,25,36,0,0,0,12,"[0, 12]",2,23,"[2, 4, 5, 6, 7, 8, 9, 10, 13, 14, 15, 16, 17, 18, 19, 20, 22, 23, 25, 26, 27, 28, 29]",277.7963967,2687,2534,90,804,9,1.0
undo,25,36,0,0,0,9,"[0, 12, 9]",3,14,"[2, 4, 8, 10, 13, 16, 17, 18, 19, 23, 25, 27, 28, 29]",215.4345494,5152,2465,32,191,9,1.224429481246385
undo,25,36,0,0,0,19,"[0, 12, 9, 19]",4,13,"[2, 4, 8, 10, 13, 16, 17, 18, 23, 25, 27, 28, 29]",200.3018034,5772,620,14,61,9,1.293473472808712
undo,25,36,0,0,0,17,"[0, 12, 9, 19, 17]",5,8,"[2, 10, 13, 16, 18, 23, 25, 27]",172.4091521,7819,2047,5,15,9,1.3499598639024968
undo,25,36,0,0,0,2,"[0, 12, 9, 19, 17, 2]",6,6,"[10, 13, 16, 18, 25, 27]",131.1780958,9925,2106,2,3,9,1.4949360491624875
undo,25,36,0,0,0,13,"[0, 12, 9, 19, 17, 2, 13]",7,2,"[10, 25]",92.85056002,11070,1145,1,1,9,2.1120112514866483
undo,25,36,0,0,0,25,"[0, 12, 9, 19, 17, 2, 13, 25]",8,1,[10],72.25929973,12236,1166,1,0,9,1.989172448728475
undo,25,36,0,0,1,10,"[0, 12, 9, 19, 17, 2, 13, 25, 10]",9,0,[],9.187911609,13356,1120,1,0,9,1.6720519462286751
undo,25,36,0,1,1,10,"[0, 12, 9, 19, 17, 2, 13, 25, 10]",9,0,[],9.187911609,13844,488,1,0,9,1.6720519462286751
undo,26,39,0,0,0,0,[0],1,28,"[1, 2, 3, 4, 5, 6, 7, 9, 10, 11, 12, 13, 14, 15, 16, 17, 18, 19, 20, 21, 22, 23, 24, 25, 26, 27, 28, 29]",300,145,-1,1,30,10,0.0
undo,26,39,0,0,0,14,"[0, 14]",2,26,"[1, 2, 3, 4, 5, 6, 7, 9, 10, 12, 13, 15, 16, 17, 18, 19, 20, 21, 22, 23, 24, 25, 26, 27, 28, 29]",286.9615952,2674,2529,1,22,10,1.0
undo,26,39,0,0,0,29,"[0, 14, 29]",3,23,"[1, 2, 3, 4, 5, 6, 7, 9, 10, 12, 13, 15, 16, 17, 18, 19, 21, 22, 23, 24, 25, 26, 28]",218.9321898,3694,1020,1,21,10,1.4237768813412561
undo,26,39,0,0,0,12,"[0, 14, 29, 12]",4,16,"[1, 2, 4, 5, 7, 9, 10, 13, 15, 16, 18, 19, 22, 23, 24, 26]",158.3929463,4853,1159,1,11,10,1.2085522586932163
undo,26,39,0,0,0,10,"[0, 14, 29, 12, 10]",5,11,"[1, 4, 5, 7, 15, 16, 18, 19, 22, 23, 26]",122.8823845,6190,1337,1,8,10,1.4905426536315662
undo,26,39,0,0,0,7,"[0, 14, 29, 12, 10, 7]",6,6,"[1, 16, 18, 19, 22, 26]",89.46083457,6920,730,1,6,10,1.3836596018032035
undo,26,39,0,0,0,26,"[0, 14, 29, 12, 10, 7, 26]",7,3,"[16, 19, 22]",70.77929288,7794,874,1,4,10,1.4191124441944845
undo,26,39,0,0,0,22,"[0, 14, 29, 12, 10, 7, 26, 22]",8,2,"[16, 19]",53.05924773,8859,1065,1,1,10,1.594793297833885
undo,26,39,0,0,0,16,"[0, 14, 29, 12, 10, 7, 26, 22, 16]",9,1,[19],18.05924773,9675,816,1,0,10,1.48519520801471
undo,26,39,0,0,1,19,"[0, 14, 29, 12, 10, 7, 26, 22, 16, 19]",10,0,[],0.594998533,10841,1166,1,0,10,1.484277847976571
undo,26,39,0,1,1,19,"[0, 14, 29, 12, 10, 7, 26, 22, 16, 19]",10,0,[],0.594998533,11561,720,1,0,10,1.484277847976571
undo,27,12,0,0,0,0,[0],1,29,"[1, 2, 3, 4, 5, 6, 7, 8, 9, 10, 11, 12, 13, 14, 15, 16, 17, 18, 19, 20, 21, 22, 23, 24, 25, 26, 27, 28, 29]",300,145,-1,2,32,9,0.0
undo,27,12,0,0,0,25,"[0, 25]",2,16,"[2, 4, 5, 6, 7, 9, 12, 14, 16, 18, 19, 22, 23, 24, 27, 28]",225.7975742,3039,2894,5,34,8,1.0
undo,27,12,0,0,0,16,"[0, 25, 16]",3,11,"[2, 4, 5, 6, 7, 12, 14, 19, 22, 24, 27]",169.0701557,4192,1153,4,22,8,1.4434159828731936
undo,27,12,0,0,0,4,"[0, 25, 16, 4]",4,6,"[12, 14, 19, 22, 24, 27]",134.864893,5675,1483,2,7,8,1.3220542462647857
undo,27,12,0,0,0,22,"[0, 25, 16, 4, 22]",5,3,"[12, 19, 27]",90.26668675,7954,2279,3,0,6,2.383179237454409
undo,27,12,0,0,1,12,"[0, 25, 16, 4, 22, 12]",6,0,[],10.88784826,9255,1301,1,0,6,1.749850440881415
undo,27,12,0,1,1,12,"[0, 25, 16, 4, 22, 12]",6,0,[],10.88784826,11079,1824,1,0,6,1.749850440881415
undo,28,31,0,0,0,0,[0],1,27,"[1, 3, 4, 5, 6, 7, 8, 10, 11, 12, 13, 14, 15, 16, 17, 18, 19, 20, 21, 22, 23, 24, 25, 26, 27, 28, 29]",300,162,-1,2,87,10,0.0
undo,28,31,0,0,0,14,"[0, 14]",2,25,"[1, 3, 5, 6, 7, 8, 10, 11, 12, 13, 15, 16, 17, 18, 19, 20, 21, 22, 23, 24, 25, 26, 27, 28, 29]",263.861378,1920,1758,2,59,10,1.0
undo,28,31,0,0,0,27,"[0, 14, 27]",3,22,"[1, 3, 5, 6, 7, 8, 10, 11, 12, 13, 15, 16, 17, 18, 19, 20, 21, 22, 24, 25, 28, 29]",235.6833724,2711,791,1,39,10,1.5881859159302467
undo,28,31,0,0,0,8,"[0, 14, 27, 8]",4,20,"[1, 3, 5, 6, 7, 10, 11, 12, 13, 16, 17, 18, 19, 20, 21, 22, 24, 25, 28, 29]",224.6380114,4161,1450,1,36,10,2.1665048452331277
undo,28,31,0,0,0,18,"[0, 14, 27, 8, 18]",5,15,"[1, 5, 6, 7, 11, 12, 13, 16, 17, 19, 20, 22, 25, 28, 29]",188.7911147,5855,1694,1,26,10,1.7273375741920205
undo,28,31,0,0,0,11,"[0, 14, 27, 8, 18, 11]",6,11,"[1, 5, 7, 12, 16, 17, 19, 20, 22, 25, 28]",153.9055876,7287,1432,13,17,9,2.386348208737804
undo,28,31,0,0,0,5,"[0, 14, 27, 8, 18, 11, 5]",7,5,"[16, 17, 20, 25, 28]",110.2249283,8587,1300,3,3,9,2.163249612867222
undo,28,31,0,0,0,28,"[0, 14, 27, 8, 18, 11, 5, 28]",8,2,"[16, 17]",90.00117988,10308,1721,2,0,9,1.9564635733184719
undo,28,31,0,0,1,16,"[0, 14, 27, 8, 18, 11, 5, 28, 16]",9,0,[],56.38570725,11435,1127,1,0,9,1.824071502589619
undo,28,31,0,1,1,16,"[0, 14, 27, 8, 18, 11, 5, 28, 16]",9,0,[],56.38570725,13929,2494,1,0,9,1.824071502589619
undo,29,18,0,0,0,0,[0],1,28,"[1, 2, 3, 4, 5, 6, 7, 8, 9, 10, 11, 12, 13, 14, 16, 17, 18, 19, 20, 21, 22, 23, 24, 25, 26, 27, 28, 29]",300,180,-1,3,136,10,0.0
undo,29,18,0,0,0,28,"[0, 28]",2,16,"[1, 3, 5, 7, 8, 9, 12, 13, 14, 16, 20, 23, 24, 25, 26, 27]",236.4311397,2693,2513,2,19,10,1.0
undo,29,18,0,0,0,7,"[0, 28, 7]",3,15,"[1, 3, 5, 8, 9, 12, 13, 14, 16, 20, 23, 24, 25, 26, 27]",214.4084242,5140,2447,2,17,10,1.4345180696367563
undo,29,18,0,0,0,25,"[0, 28, 7, 25]",4,13,"[1, 3, 5, 8, 9, 12, 13, 14, 16, 20, 23, 26, 27]",186.6055466,6057,917,2,15,10,1.8896451241781882
undo,29,18,0,0,0,13,"[0, 28, 7, 25, 13]",5,10,"[3, 5, 8, 9, 12, 14, 16, 23, 26, 27]",141.3286209,7239,1182,5,21,9,1.6878978848273398
undo,29,18,0,0,0,14,"[0, 28, 7, 25, 13, 14]",6,8,"[3, 5, 8, 9, 12, 23, 26, 27]",122.354955,8030,791,3,7,9,1.584538278883837
undo,29,18,0,0,0,8,"[0, 28, 7, 25, 13, 14, 8]",7,3,"[3, 5, 23]",88.75435972,8845,815,1,2,9,2.2331853335907565
undo,29,18,0,0,0,3,"[0, 28, 7, 25, 13, 14, 8, 3]",8,1,[5],60.68302202,10207,1362,1,0,9,1.9555800330994786
undo,29,18,0,0,1,5,"[0, 28, 7, 25, 13, 14, 8, 3, 5]",9,0,[],2.502269193,12539,2332,1,0,9,1.6644939127114788
undo,29,18,0,1,1,5,"[0, 28, 7, 25, 13, 14, 8, 3, 5]",9,0,[],2.502269193,13381,842,1,0,9,1.6644939127114788
undo,30,24,0,0,0,0,[0],1,29,"[1, 2, 3, 4, 5, 6, 7, 8, 9, 10, 11, 12, 13, 14, 15, 16, 17, 18, 19, 20, 21, 22, 23, 24, 25, 26, 27, 28, 29]",300,146,-1,4,76,10,0.0
undo,30,24,0,0,0,16,"[0, 16]",2,28,"[1, 2, 3, 4, 5, 6, 7, 8, 9, 10, 11, 12, 13, 14, 15, 17, 18, 19, 20, 21, 22, 23, 24, 25, 26, 27, 28, 29]",210.3562607,5021,4875,13,110,9,1.0
undo,30,24,0,0,0,8,"[0, 16, 8]",3,22,"[1, 2, 3, 4, 6, 9, 10, 11, 13, 14, 15, 17, 20, 21, 22, 23, 24, 25, 26, 27, 28, 29]",181.3562607,6076,1055,3,31,9,1.0774669368510212
undo,30,24,0,0,0,22,"[0, 16, 8, 22]",4,18,"[2, 3, 4, 6, 9, 10, 11, 13, 14, 15, 17, 23, 24, 25, 26, 27, 28, 29]",167.9398528,6856,780,3,23,9,1.2531772310046492
undo,30,24,0,0,0,15,"[0, 16, 8, 22, 15]",5,16,"[3, 4, 6, 9, 10, 11, 13, 14, 17, 23, 24, 25, 26, 27, 28, 29]",146.7266494,8388,1532,3,16,9,1.2813329946092564
undo,30,24,0,0,0,28,"[0, 16, 8, 22, 15, 28]",6,8,"[3, 4, 9, 11, 13, 23, 26, 27]",101.4497237,9538,1150,3,5,9,1.2060847818642253
undo,30,24,0,0,0,23,"[0, 16, 8, 22, 15, 28, 23]",7,3,"[9, 11, 27]",82.42342609,11108,1570,3,1,9,1.2349355190066822
undo,30,24,0,0,0,11,"[0, 16, 8, 22, 15, 28, 23, 11]",8,2,"[9, 27]",55.49760206,12212,1104,2,0,9,1.2172586817191506
undo,30,24,0,0,1,9,"[0, 16, 8, 22, 15, 28, 23, 11, 9]",9,0,[],23.24857107,13339,1127,1,0,9,1.3037788048831767
undo,30,24,0,1,1,9,"[0, 16, 8, 22, 15, 28, 23, 11, 9]",9,0,[],23.24857107,14314,975,1,0,9,1.3037788048831767
undo,31,43,0,0,0,0,[0],1,23,"[1, 2, 3, 4, 5, 6, 7, 9, 10, 11, 12, 14, 15, 16, 17, 19, 20, 21, 22, 23, 25, 27, 29]",300,146,-1,16,556,12,0.0
undo,31,43,0,0,0,29,"[0, 29]",2,22,"[1, 2, 3, 4, 5, 6, 7, 9, 10, 11, 12, 14, 15, 16, 17, 19, 20, 21, 22, 23, 25, 27]",277.909278,1811,1665,16,520,12,1.0
undo,31,43,0,0,0,20,"[0, 29, 20]",3,20,"[1, 2, 3, 4, 6, 7, 9, 10, 11, 12, 14, 15, 16, 17, 19, 21, 22, 23, 25, 27]",254.4785289,2957,1146,15,422,12,1.082311746871282
undo,31,43,0,0,0,16,"[0, 29, 20, 16]",4,19,"[1, 2, 3, 4, 6, 7, 9, 10, 11, 12, 14, 15, 17, 19, 21, 22, 23, 25, 27]",231.8511119,4188,1231,15,389,12,1.215201926898219
undo,31,43,0,0,0,15,"[0, 29, 20, 16, 15]",5,14,"[1, 2, 3, 4, 6, 7, 9, 11, 12, 14, 19, 22, 23, 25]",188.5267539,5488,1300,3,109,12,1.3482474915350444
undo,31,43,0,0,0,25,"[0, 29, 20, 16, 15, 25]",6,12,"[1, 3, 4, 6, 7, 9, 11, 12, 14, 19, 22, 23]",165.8551858,6543,1055,2,43,12,1.691408721191545
undo,31,43,0,0,0,12,"[0, 29, 20, 16, 15, 25, 12]",7,11,"[1, 3, 4, 6, 7, 9, 11, 14, 19, 22, 23]",141.6684126,7441,898,2,32,12,1.6015983641428178
undo,31,43,0,0,0,3,"[0, 29, 20, 16, 15, 25, 12, 3]",8,10,"[1, 4, 6, 7, 9, 11, 14, 19, 22, 23]",128.6684126,8072,631,2,24,12,1.5379830456120627
undo,31,43,0,0,0,22,"[0, 29, 20, 16, 15, 25, 12, 3, 22]",9,6,"[1, 6, 7, 11, 14, 19]",93.95530264,9589,1517,1,11,12,1.7275686117408873
undo,31,43,0,0,0,19,"[0, 29, 20, 16, 15, 25, 12, 3, 22, 19]",10,4,"[1, 6, 7, 11]",73.33977451,10654,1065,1,3,12,1.6315360037595275
undo,31,43,0,0,0,1,"[0, 29, 20, 16, 15, 25, 12, 3, 22, 19, 1]",11,1,[7],45.1617689,11805,1151,1,0,12,1.7703076545303877
undo,31,43,0,0,1,7,"[0, 29, 20, 16, 15, 25, 12, 3, 22, 19, 1, 7]",12,0,[],6.951822553,16205,4400,1,0,12,1.6607094905815594
undo,31,43,0,1,1,7,"[0, 29, 20, 16, 15, 25, 12, 3, 22, 19, 1, 7]",12,0,[],6.951822553,18196,1991,1,0,12,1.6607094905815594
undo,32,16,0,0,0,0,[0],1,29,"[1, 2, 3, 4, 5, 6, 7, 8, 9, 10, 11, 12, 13, 14, 15, 16, 17, 18, 19, 20, 21, 22, 23, 24, 25, 26, 27, 28, 29]",300,144,-1,13,161,9,0.0
undo,32,16,0,0,0,17,"[0, 17]",2,27,"[1, 2, 3, 4, 5, 7, 8, 9, 10, 11, 12, 13, 14, 15, 16, 18, 19, 20, 21, 22, 23, 24, 25, 26, 27, 28, 29]",241.3058776,3689,3545,2,58,9,1.0
undo,32,16,0,0,0,16,"[0, 17, 16]",3,26,"[1, 2, 3, 4, 5, 7, 8, 9, 10, 11, 12, 13, 14, 15, 18, 19, 20, 21, 22, 23, 24, 25, 26, 27, 28, 29]",212.9862731,4819,1130,2,52,9,1.0529535521792848
undo,32,16,0,0,0,8,"[0, 17, 16, 8]",4,19,"[2, 3, 4, 5, 9, 12, 13, 14, 15, 19, 20, 21, 22, 23, 25, 26, 27, 28, 29]",164.6127266,5986,1167,2,38,9,1.0915134501573105
undo,32,16,0,0,0,20,"[0, 17, 16, 8, 20]",5,10,"[3, 4, 5, 9, 12, 13, 15, 19, 21, 25]",106.8372993,7358,1372,1,15,9,1.067523143001942
undo,32,16,0,0,0,25,"[0, 17, 16, 8, 20, 25]",6,7,"[3, 4, 5, 9, 12, 13, 15]",94.18818869,7969,611,1,9,9,1.1170093326933646
undo,32,16,0,0,0,9,"[0, 17, 16, 8, 20, 25, 9]",7,5,"[3, 4, 5, 13, 15]",81.38194021,8720,751,1,4,9,1.1095076562662525
undo,32,16,0,0,0,15,"[0, 17, 16, 8, 20, 25, 9, 15]",8,1,[5],42.48463953,11653,2933,1,0,9,1.213831159678775
undo,32,16,0,0,1,5,"[0, 17, 16, 8, 20, 25, 9, 15, 5]",9,0,[],13.0567616,13077,1424,1,0,9,1.5171779607523481
undo,32,16,0,1,1,5,"[0, 17, 16, 8, 20, 25, 9, 15, 5]",9,0,[],13.0567616,13795,718,1,0,9,1.5171779607523481
undo,33,30,0,0,0,0,[0],1,19,"[3, 4, 5, 7, 9, 11, 16, 17, 18, 19, 20, 21, 22, 24, 25, 26, 27, 28, 29]",300,147,-1,5,41,8,0.0
undo,33,30,0,0,0,16,"[0, 16]",2,17,"[3, 5, 7, 9, 11, 17, 18, 19, 20, 21, 22, 24, 25, 26, 27, 28, 29]",219.3774225,2989,2842,5,34,8,1.0
undo,33,30,0,0,0,25,"[0, 16, 25]",3,10,"[3, 5, 7, 9, 11, 18, 19, 20, 27, 29]",115.0845656,4438,1449,5,28,8,1.0336279544884488
undo,33,30,0,0,0,27,"[0, 16, 25, 27]",4,7,"[3, 5, 7, 18, 19, 20, 29]",75.52448473,6205,1767,1,12,8,1.0719738181137488
undo,33,30,0,0,0,3,"[0, 16, 25, 27, 3]",5,5,"[5, 7, 18, 20, 29]",56.41951155,7242,1037,1,4,8,1.0683252001879187
undo,33,30,0,0,0,18,"[0, 16, 25, 27, 3, 18]",6,2,"[5, 29]",38.17122396,7989,747,2,0,7,1.071988954484303
undo,33,30,0,0,1,5,"[0, 16, 25, 27, 3, 18, 5]",7,0,[],25.13281915,8512,523,1,0,7,1.1366885529959678
undo,33,30,1,0,0,18,"[0, 16, 25, 27, 3, 18]",6,2,"[5, 29]",38.17122396,11447,2935,2,0,7,1.071988954484303
undo,33,30,1,0,0,3,"[0, 16, 25, 27, 3]",5,5,"[5, 7, 18, 20, 29]",56.41951155,14664,3217,1,4,8,1.0683252001879187
undo,33,30,0,0,0,5,"[0, 16, 25, 27, 3, 5]",6,1,[18],31.58002686,16390,1726,1,0,7,1.1100267042438476
undo,33,30,0,0,1,18,"[0, 16, 25, 27, 3, 5, 18]",7,0,[],18.54162205,18046,1656,1,0,7,1.1523571888193607
undo,33,30,0,1,1,18,"[0, 16, 25, 27, 3, 5, 18]",7,0,[],18.54162205,19647,1601,1,0,7,1.1523571888193607
undo,34,10,0,0,0,0,[0],1,29,"[1, 2, 3, 4, 5, 6, 7, 8, 9, 10, 11, 12, 13, 14, 15, 16, 17, 18, 19, 20, 21, 22, 23, 24, 25, 26, 27, 28, 29]",300,162,-1,1,100,9,0.0
undo,34,10,0,0,0,13,"[0, 13]",2,25,"[1, 2, 3, 4, 6, 7, 8, 9, 10, 11, 12, 14, 17, 18, 19, 20, 21, 22, 23, 24, 25, 26, 27, 28, 29]",249.4628849,2041,1879,1,79,9,1.0
undo,34,10,0,0,0,11,"[0, 13, 11]",3,20,"[1, 2, 3, 6, 7, 8, 9, 10, 12, 14, 18, 19, 20, 21, 22, 24, 26, 27, 28, 29]",206.4512586,2824,783,1,54,9,1.0313137484914219
undo,34,10,0,0,0,19,"[0, 13, 11, 19]",4,11,"[2, 6, 8, 9, 10, 14, 18, 20, 24, 26, 27]",170.0919407,3522,698,1,22,9,1.0879446220132545
undo,34,10,0,0,0,2,"[0, 13, 11, 19, 2]",5,4,"[14, 20, 26, 27]",126.1829439,4538,1016,1,4,9,1.06474052351343
undo,34,10,0,0,0,14,"[0, 13, 11, 19, 2, 14]",6,3,"[20, 26, 27]",114.0174188,5521,983,1,3,9,1.1628909195912238
undo,34,10,0,0,0,26,"[0, 13, 11, 19, 2, 14, 26]",7,2,"[20, 27]",79.34754716,6557,1036,1,1,9,1.6660727647633602
undo,34,10,0,0,0,20,"[0, 13, 11, 19, 2, 14, 26, 20]",8,1,[27],47.56704999,7493,936,1,0,9,2.085581809637999
undo,34,10,0,0,1,27,"[0, 13, 11, 19, 2, 14, 26, 20, 27]",9,0,[],2.312215998,9342,1849,1,0,9,1.9116357409137932
undo,34,10,0,1,1,27,"[0, 13, 11, 19, 2, 14, 26, 20, 27]",9,0,[],2.312215998,10312,970,1,0,9,1.9116357409137932
undo,35,5,0,0,0,0,[0],1,29,"[1, 2, 3, 4, 5, 6, 7, 8, 9, 10, 11, 12, 13, 14, 15, 16, 17, 18, 19, 20, 21, 22, 23, 24, 25, 26, 27, 28, 29]",300,150,-1,5,139,9,0.0
undo,35,5,0,0,0,23,"[0, 23]",2,27,"[1, 2, 3, 4, 5, 6, 7, 8, 9, 10, 11, 12, 13, 14, 15, 16, 17, 18, 19, 20, 21, 22, 24, 25, 26, 27, 28]",249.8402552,5276,5126,3,75,9,1.0
undo,35,5,0,0,0,25,"[0, 23, 25]",3,23,"[1, 2, 3, 4, 5, 6, 8, 9, 10, 12, 13, 14, 15, 16, 17, 18, 19, 21, 22, 24, 26, 27, 28]",231.4011663,6125,849,3,43,9,1.0923159590575564
undo,35,5,0,0,0,24,"[0, 23, 25, 24]",4,21,"[2, 3, 4, 5, 6, 8, 9, 10, 12, 13, 14, 15, 16, 17, 18, 19, 21, 22, 26, 27, 28]",206.5616816,6925,800,3,25,9,1.2901858295679272
undo,35,5,0,0,0,17,"[0, 23, 25, 24, 17]",5,13,"[4, 5, 6, 8, 12, 13, 14, 15, 18, 19, 22, 26, 27]",171.5759702,7708,783,3,14,9,1.2027484907982513
undo,35,5,0,0,0,5,"[0, 23, 25, 24, 17, 5]",6,7,"[4, 6, 8, 12, 15, 18, 19]",128.5294837,10595,2887,3,4,9,1.1472230681682432
undo,35,5,0,0,0,15,"[0, 23, 25, 24, 17, 5, 15]",7,1,[18],88.50449151,12392,1797,1,0,8,1.196858948062182
undo,35,5,0,0,1,18,"[0, 23, 25, 24, 17, 5, 15, 18]",8,0,[],6.285272347,14060,1668,1,0,8,1.4484003110079315
undo,35,5,0,1,1,18,"[0, 23, 25, 24, 17, 5, 15, 18]",8,0,[],6.285272347,15717,1657,1,0,8,1.4484003110079315
undo,36,6,0,0,0,0,[0],1,29,"[1, 2, 3, 4, 5, 6, 7, 8, 9, 10, 11, 12, 13, 14, 15, 16, 17, 18, 19, 20, 21, 22, 23, 24, 25, 26, 27, 28, 29]",300,162,-1,180,4304,10,0.0
undo,36,6,0,0,0,3,"[0, 3]",2,28,"[1, 2, 4, 5, 6, 7, 8, 9, 10, 11, 12, 13, 14, 15, 16, 17, 18, 19, 20, 21, 22, 23, 24, 25, 26, 27, 28, 29]",266.4738908,2954,2792,90,1607,10,1.0
undo,36,6,0,0,0,7,"[0, 3, 7]",3,24,"[1, 2, 4, 5, 6, 8, 9, 10, 11, 12, 13, 14, 15, 16, 17, 18, 20, 21, 22, 23, 24, 26, 27, 29]",230.3352688,4022,1068,8,253,10,1.450719050884865
undo,36,6,0,0,0,26,"[0, 3, 7, 26]",4,21,"[1, 2, 4, 6, 8, 9, 10, 12, 13, 14, 15, 16, 17, 18, 20, 21, 22, 23, 24, 27, 29]",206.2520796,5538,1516,4,90,10,1.8847849051743637
undo,36,6,0,0,0,16,"[0, 3, 7, 26, 16]",5,12,"[1, 6, 10, 13, 14, 17, 18, 21, 22, 23, 24, 29]",107.2975446,8188,2650,8,15,9,2.669736424307875
undo,36,6,0,0,0,18,"[0, 3, 7, 26, 16, 18]",6,5,"[10, 17, 23, 24, 29]",83.95230954,8978,790,5,3,9,3.5474902574560723
undo,36,6,0,0,0,17,"[0, 3, 7, 26, 16, 18, 17]",7,4,"[10, 23, 24, 29]",70.02392126,9554,576,2,2,9,3.258550033703565
undo,36,6,0,0,0,10,"[0, 3, 7, 26, 16, 18, 17, 10]",8,1,[24],50.30083834,10170,616,1,0,9,2.9604665188507484
undo,36,6,0,0,1,24,"[0, 3, 7, 26, 16, 18, 17, 10, 24]",9,0,[],36.88443047,12137,1967,1,0,9,2.7043524896827
undo,36,6,0,1,1,24,"[0, 3, 7, 26, 16, 18, 17, 10, 24]",9,0,[],36.88443047,13229,1092,1,0,9,2.7043524896827
undo,37,15,0,0,0,0,[0],1,25,"[1, 2, 3, 4, 7, 8, 9, 10, 11, 12, 13, 14, 15, 16, 18, 20, 21, 22, 23, 24, 25, 26, 27, 28, 29]",300,145,-1,4,65,9,0.0
undo,37,15,0,0,0,7,"[0, 7]",2,23,"[1, 3, 4, 8, 9, 10, 11, 12, 13, 14, 15, 16, 18, 20, 21, 22, 23, 24, 25, 26, 27, 28, 29]",215.1884442,1888,1743,30,107,8,1.0
undo,37,15,0,0,0,11,"[0, 7, 11]",3,18,"[3, 4, 8, 9, 10, 12, 13, 14, 15, 16, 18, 20, 21, 22, 23, 25, 27, 29]",173.7035072,3058,1170,12,34,8,1.0171318876095128
undo,37,15,0,0,0,3,"[0, 7, 11, 3]",4,13,"[4, 10, 12, 13, 14, 15, 16, 18, 20, 21, 22, 25, 27]",162.3017529,3988,930,7,21,8,1.0401878806820521
undo,37,15,0,0,0,16,"[0, 7, 11, 3, 16]",5,9,"[4, 10, 12, 13, 14, 15, 18, 21, 22]",137.2218805,4637,649,5,6,8,1.4258499651326737
undo,37,15,0,0,0,22,"[0, 7, 11, 3, 16, 22]",6,4,"[4, 13, 14, 15]",78.36612462,6525,1888,2,2,8,1.284645195326425
undo,37,15,0,0,0,15,"[0, 7, 11, 3, 16, 22, 15]",7,1,[13],52.75362767,7355,830,1,0,8,1.2590218300860974
undo,37,15,0,0,1,13,"[0, 7, 11, 3, 16, 22, 15, 13]",8,0,[],37.48929015,8206,851,1,0,8,1.3103278820622872
undo,37,15,0,1,1,13,"[0, 7, 11, 3, 16, 22, 15, 13]",8,0,[],37.48929015,8946,740,1,0,8,1.3103278820622872
undo,38,4,0,0,0,0,[0],1,26,"[3, 4, 5, 6, 7, 8, 10, 11, 12, 13, 14, 15, 16, 17, 18, 19, 20, 21, 22, 23, 24, 25, 26, 27, 28, 29]",300,155,-1,4,489,10,0.0
undo,38,4,0,0,0,28,"[0, 28]",2,21,"[3, 4, 5, 6, 10, 11, 12, 13, 14, 15, 16, 17, 19, 20, 21, 22, 23, 24, 25, 26, 27]",225.9392142,1771,1616,2,216,10,1.0
undo,38,4,0,0,0,11,"[0, 28, 11]",3,16,"[3, 4, 5, 6, 12, 13, 14, 16, 17, 20, 21, 22, 23, 24, 25, 26]",177.0618165,2808,1037,1,99,10,1.0005230107421244
undo,38,4,0,0,0,25,"[0, 28, 11, 25]",4,14,"[3, 4, 5, 6, 12, 13, 14, 16, 17, 20, 21, 22, 23, 24]",158.2735223,4228,1420,1,47,10,1.11762077950493
undo,38,4,0,0,0,14,"[0, 28, 11, 25, 14]",5,10,"[3, 4, 5, 6, 13, 16, 17, 20, 21, 22]",142.1490068,5324,1096,1,23,10,1.1558980853108136
undo,38,4,0,0,0,16,"[0, 28, 11, 25, 14, 16]",6,9,"[3, 4, 5, 6, 13, 17, 20, 21, 22]",109.5913656,6288,964,1,12,10,1.3813330703388178
undo,38,4,0,0,0,17,"[0, 28, 11, 25, 14, 16, 17]",7,5,"[3, 5, 20, 21, 22]",83.51455598,8026,1738,1,5,10,1.3206962632237582
undo,38,4,0,0,0,20,"[0, 28, 11, 25, 14, 16, 17, 20]",8,3,"[5, 21, 22]",43.29018526,9588,1562,1,2,10,1.4048849730601358
undo,38,4,0,0,0,22,"[0, 28, 11, 25, 14, 16, 17, 20, 22]",9,1,[21],13.05775234,11455,1867,1,0,10,1.8085353749061932
undo,38,4,0,0,1,21,"[0, 28, 11, 25, 14, 16, 17, 20, 22, 21]",10,0,[],2.012391323,12137,682,1,0,10,2.016146937720804
undo,38,4,0,1,1,21,"[0, 28, 11, 25, 14, 16, 17, 20, 22, 21]",10,0,[],2.012391323,13096,959,1,0,10,2.016146937720804
undo,39,44,0,0,0,0,[0],1,29,"[1, 2, 3, 4, 5, 6, 7, 8, 9, 10, 11, 12, 13, 14, 15, 16, 17, 18, 19, 20, 21, 22, 23, 24, 25, 26, 27, 28, 29]",300,176,-1,13,126,7,0.0
undo,39,44,0,0,0,8,"[0, 8]",2,17,"[1, 4, 5, 7, 9, 10, 11, 12, 13, 14, 15, 20, 21, 23, 24, 25, 27]",145.7923478,3986,3810,1,10,7,1.0
undo,39,44,0,0,0,20,"[0, 8, 20]",3,16,"[1, 4, 5, 7, 9, 10, 11, 12, 13, 14, 15, 21, 23, 24, 25, 27]",133.7093018,6690,2704,1,9,7,1.0890794433668698
undo,39,44,0,0,0,9,"[0, 8, 20, 9]",4,7,"[4, 7, 11, 12, 14, 23, 24]",76.43801756,7934,1244,1,6,7,1.40892325509949
undo,39,44,0,0,0,24,"[0, 8, 20, 9, 24]",5,2,"[4, 11]",43.68133886,9805,1871,2,0,6,1.70572353022166
undo,39,44,0,0,1,11,"[0, 8, 20, 9, 24, 11]",6,0,[],16.75551482,10358,553,1,0,6,1.9239417911005514
undo,39,44,0,1,1,11,"[0, 8, 20, 9, 24, 11]",6,0,[],16.75551482,11009,651,1,0,6,1.9239417911005514
undo,40,0,0,0,0,0,[0],1,27,"[2, 3, 4, 5, 6, 7, 8, 9, 10, 11, 12, 13, 14, 15, 16, 17, 19, 20, 21, 22, 23, 24, 25, 26, 27, 28, 29]",300,143,-1,104,1136,9,0.0
undo,40,0,0,0,0,28,"[0, 28]",2,26,"[2, 3, 4, 5, 6, 7, 8, 9, 10, 11, 12, 13, 14, 15, 16, 17, 19, 20, 21, 22, 23, 24, 25, 26, 27, 29]",194.9190788,1855,1712,39,388,9,1.0
undo,40,0,0,0,0,5,"[0, 28, 5]",3,21,"[2, 3, 4, 7, 8, 9, 11, 12, 13, 14, 15, 16, 17, 19, 20, 21, 23, 24, 25, 26, 29]",151.2613189,2836,981,27,210,9,1.0978295127671733
undo,40,0,0,0,0,4,"[0, 28, 5, 4]",4,16,"[3, 7, 8, 9, 11, 12, 13, 14, 15, 17, 19, 20, 21, 23, 24, 26]",126.1814465,3591,755,17,114,9,1.1103727063761901
undo,40,0,0,0,0,26,"[0, 28, 5, 4, 26]",5,14,"[3, 7, 8, 9, 11, 12, 13, 14, 15, 17, 19, 20, 23, 24]",114.1398519,4724,1133,7,54,9,1.1504454351688815
undo,40,0,0,0,0,24,"[0, 28, 5, 4, 26, 24]",6,11,"[3, 7, 8, 9, 11, 12, 15, 17, 19, 20, 23]",97.02260914,5335,611,7,22,9,1.2166555899566422
undo,40,0,0,0,0,15,"[0, 28, 5, 4, 26, 24, 15]",7,7,"[3, 7, 8, 9, 11, 12, 17]",73.67737408,7089,1754,4,5,9,1.1972898774231708
undo,40,0,0,0,0,7,"[0, 28, 5, 4, 26, 24, 15, 7]",8,2,"[3, 8]",42.61292495,8151,1062,2,0,9,1.2554869594545575
undo,40,0,0,0,1,8,"[0, 28, 5, 4, 26, 24, 15, 7, 8]",9,0,[],23.50795177,9402,1251,1,0,9,1.2428648875079442
undo,40,0,0,1,1,8,"[0, 28, 5, 4, 26, 24, 15, 7, 8]",9,0,[],23.50795177,10226,824,1,0,9,1.2428648875079442
undo,41,9,0,0,0,0,[0],1,27,"[1, 3, 4, 5, 6, 7, 8, 9, 10, 11, 13, 14, 15, 16, 17, 18, 19, 20, 21, 22, 23, 24, 25, 26, 27, 28, 29]",300,147,-1,2,182,10,0.0
undo,41,9,0,0,0,9,"[0, 9]",2,26,"[1, 3, 4, 5, 6, 7, 8, 10, 11, 13, 14, 15, 16, 17, 18, 19, 20, 21, 22, 23, 24, 25, 26, 27, 28, 29]",225.5352432,2374,2227,2,101,9,1.0
undo,41,9,0,0,0,23,"[0, 9, 23]",3,22,"[1, 3, 4, 5, 7, 8, 10, 11, 13, 15, 16, 17, 18, 19, 20, 21, 22, 24, 25, 26, 27, 28]",203.1745635,3907,1533,2,70,9,1.6262276606762436
undo,41,9,0,0,0,8,"[0, 9, 23, 8]",4,18,"[3, 4, 5, 7, 10, 11, 15, 16, 17, 18, 19, 20, 21, 22, 25, 26, 27, 28]",181.7036529,4961,1054,1,36,9,1.8547307061753238
undo,41,9,0,0,0,28,"[0, 9, 23, 8, 28]",5,17,"[3, 4, 5, 7, 10, 11, 15, 16, 17, 18, 19, 20, 21, 22, 25, 26, 27]",170.8869991,5645,684,1,23,9,1.7382749966569708
undo,41,9,0,0,0,26,"[0, 9, 23, 8, 28, 26]",6,10,"[3, 5, 10, 15, 16, 18, 19, 20, 21, 25]",126.1097727,7557,1912,4,7,8,1.4884719959249546
undo,41,9,0,0,0,21,"[0, 9, 23, 8, 28, 26, 21]",7,1,[20],72.20244484,8955,1398,1,0,8,1.9218119811471304
undo,41,9,0,0,1,20,"[0, 9, 23, 8, 28, 26, 21, 20]",8,0,[],60.11939886,10991,2036,1,0,8,1.8940565724013747
undo,41,9,0,1,1,20,"[0, 9, 23, 8, 28, 26, 21, 20]",8,0,[],60.11939886,11613,622,1,0,8,1.8940565724013747
undo,42,7,0,0,0,0,[0],1,29,"[1, 2, 3, 4, 5, 6, 7, 8, 9, 10, 11, 12, 13, 14, 15, 16, 17, 18, 19, 20, 21, 22, 23, 24, 25, 26, 27, 28, 29]",300,156,-1,3,79,9,0.0
undo,42,7,0,0,0,25,"[0, 25]",2,20,"[2, 3, 4, 5, 6, 7, 10, 13, 14, 15, 16, 18, 19, 20, 21, 22, 23, 24, 27, 28]",181.5939191,2453,2297,5,33,8,1.0
undo,42,7,0,0,0,4,"[0, 25, 4]",3,11,"[2, 6, 7, 13, 15, 16, 18, 19, 20, 21, 23]",156.8552853,4025,1572,2,14,8,1.0193465608331511
undo,42,7,0,0,0,20,"[0, 25, 4, 20]",4,8,"[2, 6, 7, 13, 15, 16, 18, 19]",137.2084026,5203,1178,1,9,8,1.085904909082323
undo,42,7,0,0,0,18,"[0, 25, 4, 20, 18]",5,7,"[2, 6, 7, 13, 15, 16, 19]",124.4021541,6601,1398,1,5,8,1.2264883846453758
undo,42,7,0,0,0,7,"[0, 25, 4, 20, 18, 7]",6,2,"[2, 19]",83.17109789,7619,1018,1,1,8,1.185264473968278
undo,42,7,0,0,0,19,"[0, 25, 4, 20, 18, 7, 19]",7,1,[2],53.76021555,8360,741,1,0,8,1.3016904288278204
undo,42,7,0,0,1,2,"[0, 25, 4, 20, 18, 7, 19, 2]",8,0,[],23.61058868,9317,957,1,0,8,1.3168868000947171
undo,42,7,0,1,1,2,"[0, 25, 4, 20, 18, 7, 19, 2]",8,0,[],23.61058868,10177,860,1,0,8,1.3168868000947171
undo,43,23,0,0,0,0,[0],1,28,"[1, 2, 3, 4, 5, 6, 7, 8, 9, 10, 11, 12, 13, 14, 15, 16, 17, 18, 19, 20, 21, 22, 23, 25, 26, 27, 28, 29]",300,140,-1,76,2626,10,0.0
undo,43,23,0,0,0,22,"[0, 22]",2,24,"[1, 2, 3, 5, 6, 7, 8, 9, 10, 11, 12, 13, 14, 15, 17, 18, 19, 20, 21, 23, 25, 26, 27, 29]",210.5013967,2257,2117,15,1362,10,1.0
undo,43,23,0,0,0,13,"[0, 22, 13]",3,14,"[1, 2, 5, 6, 7, 8, 9, 10, 12, 14, 18, 21, 27, 29]",168.3113504,3657,1400,14,522,10,1.1898173563652046
undo,43,23,0,0,0,27,"[0, 22, 13, 27]",4,7,"[2, 6, 9, 12, 14, 18, 29]",123.2114613,5120,1463,59,60,9,1.2347447137291254
undo,43,23,0,0,0,12,"[0, 22, 13, 27, 12]",5,5,"[2, 6, 9, 14, 29]",82.4193052,6088,968,14,12,9,1.7748831485350247
undo,43,23,0,0,0,6,"[0, 22, 13, 27, 12, 6]",6,3,"[2, 9, 14]",52.73766104,7255,1167,3,3,9,1.6457479860849444
undo,43,23,0,0,0,2,"[0, 22, 13, 27, 12, 6, 2]",7,2,"[9, 14]",34.29857212,8455,1200,2,0,9,1.9471185230487569
undo,43,23,0,0,0,9,"[0, 22, 13, 27, 12, 6, 2, 9]",8,1,[14],21.26016731,9240,785,1,0,9,2.1335115378420006
undo,43,23,0,0,1,14,"[0, 22, 13, 27, 12, 6, 2, 9, 14]",9,0,[],10.8198608,10071,831,1,0,9,2.0525238246527917
undo,43,23,0,1,1,14,"[0, 22, 13, 27, 12, 6, 2, 9, 14]",9,0,[],10.8198608,11247,1176,1,0,9,2.0525238246527917
undo,44,34,0,0,0,0,[0],1,25,"[1, 3, 4, 5, 6, 7, 8, 9, 10, 11, 12, 13, 15, 18, 19, 20, 21, 22, 23, 24, 25, 26, 27, 28, 29]",300,144,-1,12,367,10,0.0
undo,44,34,0,0,0,13,"[0, 13]",2,24,"[1, 3, 4, 5, 6, 7, 8, 9, 10, 11, 12, 15, 18, 19, 20, 21, 22, 23, 24, 25, 26, 27, 28, 29]",279.9750156,1803,1659,12,331,10,1.0
undo,44,34,0,0,0,1,"[0, 13, 1]",3,16,"[3, 5, 7, 8, 9, 10, 11, 12, 19, 21, 22, 23, 24, 25, 27, 29]",211.8574701,2973,1170,3,92,10,1.0010381285747127
undo,44,34,0,0,0,8,"[0, 13, 1, 8]",4,14,"[3, 5, 7, 9, 10, 11, 12, 19, 22, 23, 24, 25, 27, 29]",201.0871405,3737,764,2,54,10,1.1636807
undo,44,34,0,0,0,25,"[0, 13, 1, 8, 25]",5,12,"[3, 5, 7, 9, 10, 11, 12, 22, 23, 24, 27, 29]",183.999133,4370,633,2,28,10,1.1396208815936457
undo,44,34,0,0,0,24,"[0, 13, 1, 8, 25, 24]",6,11,"[3, 5, 7, 9, 10, 11, 12, 22, 23, 27, 29]",166.5062774,5820,1450,2,23,10,1.374180768736554
undo,44,34,0,0,0,23,"[0, 13, 1, 8, 25, 24, 23]",7,6,"[5, 7, 11, 12, 27, 29]",99.97808784,7626,1806,4,3,9,2.1078306540088096
undo,44,34,0,0,0,7,"[0, 13, 1, 8, 25, 24, 23, 7]",8,2,"[11, 12]",71.81783216,8274,648,2,0,9,2.011215865419536
undo,44,34,0,0,1,12,"[0, 13, 1, 8, 25, 24, 23, 7, 12]",9,0,[],56.78453578,8952,678,1,0,9,1.9762514824310813
undo,44,34,1,0,0,7,"[0, 13, 1, 8, 25, 24, 23, 7]",8,2,"[11, 12]",71.81783216,12927,3975,2,0,9,2.011215865419536
undo,44,34,1,0,0,23,"[0, 13, 1, 8, 25, 24, 23]",7,6,"[5, 7, 11, 12, 27, 29]",99.97808784,13478,551,4,3,9,2.1078306540088096
undo,44,34,0,0,0,7,"[0, 13, 1, 8, 25, 24, 23, 7]",8,2,"[11, 12]",71.81783216,17337,3859,2,0,9,2.011215865419536
undo,44,34,0,0,1,12,"[0, 13, 1, 8, 25, 24, 23, 7, 12]",9,0,[],56.78453578,18922,1585,1,0,9,1.9762514824310813
undo,44,34,0,1,1,12,"[0, 13, 1, 8, 25, 24, 23, 7, 12]",9,0,[],56.78453578,19661,739,1,0,9,1.9762514824310813
undo,45,22,0,0,0,0,[0],1,29,"[1, 2, 3, 4, 5, 6, 7, 8, 9, 10, 11, 12, 13, 14, 15, 16, 17, 18, 19, 20, 21, 22, 23, 24, 25, 26, 27, 28, 29]",300,142,-1,31,704,9,0.0
undo,45,22,0,0,0,16,"[0, 16]",2,21,"[1, 3, 6, 7, 8, 9, 11, 13, 14, 15, 17, 18, 19, 20, 21, 22, 24, 25, 27, 28, 29]",218.605897,2823,2681,17,147,9,1.0
undo,45,22,0,0,0,6,"[0, 16, 6]",3,16,"[1, 3, 7, 9, 13, 14, 15, 17, 19, 20, 21, 22, 24, 25, 28, 29]",184.1675463,5335,2512,5,77,9,1.3071109638102874
undo,45,22,0,0,0,9,"[0, 16, 6, 9]",4,15,"[1, 3, 7, 13, 14, 15, 17, 19, 20, 21, 22, 24, 25, 28, 29]",157.5404924,7107,1772,4,33,9,1.5907585082674378
undo,45,22,0,0,0,19,"[0, 16, 6, 9, 19]",5,12,"[3, 7, 13, 14, 15, 17, 20, 21, 24, 25, 28, 29]",137.1444143,7886,779,3,17,9,2.0453047636701496
undo,45,22,0,0,0,29,"[0, 16, 6, 9, 19, 29]",6,10,"[3, 7, 13, 14, 15, 17, 20, 21, 24, 28]",122.111118,8621,735,3,10,9,2.310050419546042
undo,45,22,0,0,0,14,"[0, 16, 6, 9, 19, 29, 14]",7,2,"[7, 17]",63.86165444,10774,2153,1,1,9,1.8228779744230632
undo,45,22,0,0,0,7,"[0, 16, 6, 9, 19, 29, 14, 7]",8,1,[17],50.82324963,11307,533,1,0,9,1.981278197083242
undo,45,22,0,0,1,17,"[0, 16, 6, 9, 19, 29, 14, 7, 17]",9,0,[],9.205945539,12251,944,1,0,9,1.840137026694984
undo,45,22,0,1,1,17,"[0, 16, 6, 9, 19, 29, 14, 7, 17]",9,0,[],9.205945539,14383,2132,1,0,9,1.840137026694984
undo,46,32,0,0,0,0,[0],1,29,"[1, 2, 3, 4, 5, 6, 7, 8, 9, 10, 11, 12, 13, 14, 15, 16, 17, 18, 19, 20, 21, 22, 23, 24, 25, 26, 27, 28, 29]",300,149,-1,17,359,10,0.0
undo,46,32,0,0,0,19,"[0, 19]",2,28,"[1, 2, 3, 4, 5, 6, 7, 8, 9, 10, 11, 12, 13, 14, 15, 16, 17, 18, 20, 21, 22, 23, 24, 25, 26, 27, 28, 29]",283.5075775,3975,3826,16,294,10,1.0
undo,46,32,0,0,0,13,"[0, 19, 13]",3,24,"[2, 3, 4, 5, 6, 8, 9, 10, 11, 12, 14, 15, 16, 17, 18, 20, 21, 22, 23, 24, 25, 26, 27, 28]",260.3127505,5090,1115,14,227,10,1.0172874229878615
undo,46,32,0,0,0,15,"[0, 19, 13, 15]",4,18,"[2, 3, 5, 8, 9, 10, 11, 12, 16, 17, 20, 22, 23, 24, 25, 26, 27, 28]",177.4393531,6672,1582,9,116,10,1.435447391509833
undo,46,32,0,0,0,28,"[0, 19, 13, 15, 28]",5,17,"[2, 3, 5, 8, 9, 10, 11, 12, 16, 17, 20, 22, 23, 24, 25, 26, 27]",166.0375988,7573,901,9,70,10,1.3843701324937985
undo,46,32,0,0,0,12,"[0, 19, 13, 15, 28, 12]",6,14,"[2, 3, 5, 8, 9, 10, 11, 16, 17, 20, 22, 24, 26, 27]",147.0639329,8429,856,6,35,10,1.358372254952329
undo,46,32,0,0,0,16,"[0, 19, 13, 15, 28, 12, 16]",7,13,"[2, 3, 5, 8, 9, 10, 11, 17, 20, 22, 24, 26, 27]",131.411457,9114,685,5,15,10,1.4356932930709845
undo,46,32,0,0,0,22,"[0, 19, 13, 15, 28, 12, 16, 22]",8,6,"[2, 8, 9, 17, 20, 27]",97.57360838,10445,1331,3,5,10,1.4335226411545752
undo,46,32,0,0,0,9,"[0, 19, 13, 15, 28, 12, 16, 22, 9]",9,3,"[2, 8, 20]",75.37000507,11148,703,3,0,10,1.4837166378374758
undo,46,32,0,0,1,8,"[0, 19, 13, 15, 28, 12, 16, 22, 9, 8]",10,0,[],30.24794838,12262,1114,1,0,10,1.3767698817641267
undo,46,32,0,1,1,8,"[0, 19, 13, 15, 28, 12, 16, 22, 9, 8]",10,0,[],30.24794838,14566,2304,1,0,10,1.3767698817641267
undo,47,40,0,0,0,0,[0],1,29,"[1, 2, 3, 4, 5, 6, 7, 8, 9, 10, 11, 12, 13, 14, 15, 16, 17, 18, 19, 20, 21, 22, 23, 24, 25, 26, 27, 28, 29]",300,161,-1,8,191,9,0.0
undo,47,40,0,0,0,1,"[0, 1]",2,18,"[2, 5, 6, 7, 8, 9, 10, 11, 13, 15, 17, 18, 19, 21, 22, 23, 27, 29]",247.8463808,2720,2559,4,80,9,1.0
undo,47,40,0,0,0,6,"[0, 1, 6]",3,17,"[2, 5, 7, 8, 9, 10, 11, 13, 15, 17, 18, 19, 21, 22, 23, 27, 29]",227.7466295,3319,599,4,74,9,1.0459427008232034
undo,47,40,0,0,0,9,"[0, 1, 6, 9]",4,10,"[2, 5, 8, 11, 18, 19, 21, 22, 23, 27]",159.146338,4908,1589,17,39,8,1.142098432552584
undo,47,40,0,0,0,18,"[0, 1, 6, 9, 18]",5,9,"[2, 5, 8, 11, 19, 21, 22, 23, 27]",142.5933926,5753,845,13,14,8,1.3288108654802917
undo,47,40,0,0,0,23,"[0, 1, 6, 9, 18, 23]",6,6,"[2, 5, 8, 19, 21, 22]",108.5933926,7956,2203,6,4,8,2.0180513009829646
undo,47,40,0,0,0,5,"[0, 1, 6, 9, 18, 23, 5]",7,2,"[19, 22]",80.29144922,9694,1738,2,0,8,1.786484562843798
undo,47,40,0,0,1,19,"[0, 1, 6, 9, 18, 23, 5, 19]",8,0,[],42.21258369,11154,1460,1,0,8,2.512757983735243
undo,47,40,0,1,1,19,"[0, 1, 6, 9, 18, 23, 5, 19]",8,0,[],42.21258369,12761,1607,1,0,8,2.512757983735243
undo,48,25,0,0,0,0,[0],1,28,"[1, 2, 3, 4, 5, 7, 8, 9, 10, 11, 12, 13, 14, 15, 16, 17, 18, 19, 20, 21, 22, 23, 24, 25, 26, 27, 28, 29]",300,164,-1,5,94,10,0.0
undo,48,25,0,0,0,23,"[0, 23]",2,23,"[1, 2, 3, 5, 7, 8, 9, 11, 12, 13, 14, 16, 17, 19, 20, 21, 22, 24, 25, 26, 27, 28, 29]",259.7756293,2304,2140,3,33,10,1.0
undo,48,25,0,0,0,19,"[0, 23, 19]",3,21,"[1, 2, 3, 5, 7, 8, 9, 11, 12, 13, 14, 16, 17, 20, 21, 22, 24, 25, 27, 28, 29]",223.9287326,3087,783,3,24,10,1.583101227007039
undo,48,25,0,0,0,29,"[0, 23, 19, 29]",4,19,"[1, 2, 3, 5, 7, 8, 9, 11, 12, 13, 14, 16, 17, 20, 21, 22, 24, 25, 28]",207.649912,3720,633,3,17,10,1.474631541426484
undo,48,25,0,0,0,1,"[0, 23, 19, 29, 1]",5,6,"[5, 7, 12, 20, 21, 22]",140.0481369,4637,917,4,4,7,5.151702626051177
undo,48,25,0,0,0,21,"[0, 23, 19, 29, 1, 21]",6,2,"[5, 20]",111.6052116,5421,784,2,0,7,3.752169611497773
undo,48,25,0,0,1,20,"[0, 23, 19, 29, 1, 21, 20]",7,0,[],74.12188196,6554,1133,1,0,7,2.8958733082051284
undo,48,25,0,1,1,20,"[0, 23, 19, 29, 1, 21, 20]",7,0,[],74.12188196,7028,474,1,0,7,2.8958733082051284
undo,49,11,0,0,0,0,[0],1,25,"[1, 2, 3, 4, 5, 6, 8, 9, 10, 11, 12, 13, 14, 15, 16, 17, 18, 19, 20, 22, 23, 25, 26, 27, 28]",300,147,-1,6,374,12,0.0
undo,49,11,0,0,0,18,"[0, 18]",2,21,"[1, 2, 4, 5, 6, 8, 9, 11, 12, 13, 14, 15, 16, 17, 19, 20, 22, 23, 25, 27, 28]",236.8493864,4610,4463,157,1477,11,1.0
undo,49,11,0,0,0,27,"[0, 18, 27]",3,19,"[1, 2, 4, 5, 6, 8, 9, 11, 12, 14, 15, 16, 17, 19, 20, 22, 23, 25, 28]",212.9956655,5521,911,157,1315,11,1.060949579704323
undo,49,11,0,0,0,17,"[0, 18, 27, 17]",4,14,"[1, 2, 4, 5, 6, 8, 11, 12, 15, 19, 22, 23, 25, 28]",135.9177828,6923,1402,46,349,11,1.1156120043677304
undo,49,11,0,0,0,15,"[0, 18, 27, 17, 15]",5,10,"[2, 5, 6, 8, 11, 12, 19, 22, 25, 28]",123.2686722,8023,1100,20,158,11,1.1266146162629591
undo,49,11,0,0,0,8,"[0, 18, 27, 17, 15, 8]",6,8,"[2, 5, 11, 12, 19, 22, 25, 28]",109.8150481,8755,732,17,63,11,1.3097528386764161
undo,49,11,0,0,0,11,"[0, 18, 27, 17, 15, 8, 11]",7,5,"[2, 5, 19, 22, 28]",81.65479244,10072,1317,14,10,11,1.2594417127238766
undo,49,11,0,0,0,5,"[0, 18, 27, 17, 15, 8, 11, 5]",8,3,"[2, 22, 28]",46.42696253,12129,2057,4,2,11,1.558598686745633
undo,49,11,0,0,0,28,"[0, 18, 27, 17, 15, 8, 11, 5, 28]",9,2,"[2, 22]",28.53841871,12945,816,2,0,11,1.5709277115245146
undo,49,11,0,0,0,2,"[0, 18, 27, 17, 15, 8, 11, 5, 28, 2]",10,1,[22],17.9082729,14088,1143,1,0,11,1.5804512191760358
undo,49,11,0,0,1,22,"[0, 18, 27, 17, 15, 8, 11, 5, 28, 2, 22]",11,0,[],7.858397281,15689,1601,1,0,11,1.5495448402556906
undo,49,11,0,1,1,22,"[0, 18, 27, 17, 15, 8, 11, 5, 28, 2, 22]",11,0,[],7.858397281,18581,2892,1,0,11,1.5495448402556906
undo,50,29,0,0,0,0,[0],1,29,"[1, 2, 3, 4, 5, 6, 7, 8, 9, 10, 11, 12, 13, 14, 15, 16, 17, 18, 19, 20, 21, 22, 23, 24, 25, 26, 27, 28, 29]",300,145,-1,1,78,9,0.0
undo,50,29,0,0,0,1,"[0, 1]",2,17,"[4, 5, 6, 7, 9, 10, 12, 13, 14, 15, 16, 17, 22, 25, 26, 27, 28]",214.2736913,2686,2541,12,79,8,1.0
undo,50,29,0,0,0,14,"[0, 1, 14]",3,15,"[4, 5, 6, 7, 9, 10, 12, 13, 15, 17, 22, 25, 26, 27, 28]",171.3202281,4303,1617,12,45,8,1.4217240517504397
undo,50,29,0,0,0,13,"[0, 1, 14, 13]",4,12,"[4, 5, 6, 7, 9, 12, 17, 22, 25, 26, 27, 28]",153.2924718,5659,1356,12,27,8,1.3553272959243952
undo,50,29,0,0,0,5,"[0, 1, 14, 13, 5]",5,10,"[4, 6, 7, 9, 12, 17, 22, 25, 27, 28]",127.5825515,6354,695,11,13,8,1.3875785126283526
undo,50,29,0,0,0,22,"[0, 1, 14, 13, 5, 22]",6,4,"[7, 12, 27, 28]",73.24103881,7420,1066,4,0,8,1.938677354223255
undo,50,29,0,0,0,27,"[0, 1, 14, 13, 5, 22, 27]",7,1,[28],39.99949853,8538,1118,1,0,8,2.3998115157970523
undo,50,29,0,0,1,28,"[0, 1, 14, 13, 5, 22, 27, 28]",8,0,[],19.48121401,9955,1417,1,0,8,2.8894905022658777
undo,50,29,0,1,1,28,"[0, 1, 14, 13, 5, 22, 27, 28]",8,0,[],19.48121401,12161,2206,1,0,8,2.8894905022658777
undo,51,28,0,0,0,0,[0],1,27,"[1, 2, 3, 4, 5, 6, 7, 8, 9, 10, 11, 12, 13, 14, 15, 16, 17, 18, 19, 20, 22, 23, 25, 26, 27, 28, 29]",300,161,-1,2,96,9,0.0
undo,51,28,0,0,0,3,"[0, 3]",2,26,"[1, 2, 4, 5, 6, 7, 8, 9, 10, 11, 12, 13, 14, 15, 16, 17, 18, 19, 20, 22, 23, 25, 26, 27, 28, 29]",251.0817008,4041,3880,1,64,9,1.0
undo,51,28,0,0,0,5,"[0, 3, 5]",3,20,"[2, 4, 6, 7, 8, 9, 10, 11, 12, 13, 14, 15, 18, 19, 20, 23, 25, 26, 28, 29]",166.9865166,5070,1029,1,34,9,1.0203769473612083
undo,51,28,0,0,0,26,"[0, 3, 5, 26]",4,13,"[2, 4, 7, 8, 9, 12, 13, 14, 18, 19, 20, 25, 28]",134.2298379,7020,1950,1,28,9,1.0315203228799597
undo,51,28,0,0,0,19,"[0, 3, 5, 26, 19]",5,7,"[2, 7, 9, 12, 13, 14, 18]",93.22983789,8753,1733,1,17,9,1.1324645362297356
undo,51,28,0,0,0,7,"[0, 3, 5, 26, 19, 7]",6,5,"[2, 12, 13, 14, 18]",65.49898864,9853,1100,1,6,9,1.1971194919020265
undo,51,28,0,0,0,12,"[0, 3, 5, 26, 19, 7, 12]",7,2,"[13, 18]",52.3460422,11105,1252,1,1,9,1.2020762147848982
undo,51,28,0,0,0,13,"[0, 3, 5, 26, 19, 7, 12, 13]",8,1,[18],35.14139167,12086,981,1,0,9,1.39005144078531
undo,51,28,0,0,1,18,"[0, 3, 5, 26, 19, 7, 12, 13, 18]",9,0,[],10.72828044,13270,1184,1,0,9,1.738787343626007
undo,51,28,0,1,1,18,"[0, 3, 5, 26, 19, 7, 12, 13, 18]",9,0,[],10.72828044,14195,925,1,0,9,1.738787343626007
undo,52,41,0,0,0,0,[0],1,29,"[1, 2, 3, 4, 5, 6, 7, 8, 9, 10, 11, 12, 13, 14, 15, 16, 17, 18, 19, 20, 21, 22, 23, 24, 25, 26, 27, 28, 29]",300,163,-1,1,143,10,0.0
undo,52,41,0,0,0,13,"[0, 13]",2,23,"[1, 2, 3, 5, 6, 7, 9, 10, 11, 12, 14, 15, 17, 18, 19, 20, 21, 22, 24, 25, 26, 27, 28]",258.2747079,2255,2092,1,55,10,1.0
undo,52,41,0,0,0,28,"[0, 13, 28]",3,22,"[1, 2, 3, 5, 6, 7, 9, 10, 11, 12, 14, 15, 17, 18, 19, 20, 21, 22, 24, 25, 26, 27]",223.7928286,3312,1057,1,39,10,1.895724242592676
undo,52,41,0,0,0,5,"[0, 13, 28, 5]",4,19,"[1, 2, 3, 6, 9, 10, 11, 12, 14, 15, 17, 18, 19, 20, 21, 22, 24, 25, 27]",210.1913581,4027,715,1,34,10,2.861541269398273
undo,52,41,0,0,0,3,"[0, 13, 28, 5, 3]",5,16,"[1, 2, 6, 9, 10, 12, 14, 17, 18, 19, 20, 21, 22, 24, 25, 27]",175.3632086,5171,1144,1,22,10,3.1455488489005883
undo,52,41,0,0,0,21,"[0, 13, 28, 5, 3, 21]",6,14,"[1, 2, 6, 9, 10, 12, 14, 17, 18, 19, 20, 22, 25, 27]",143.2228912,6004,833,13,11,9,3.207558429289677
undo,52,41,0,0,0,17,"[0, 13, 28, 5, 3, 21, 17]",7,3,"[2, 9, 10]",91.5605258,7005,1001,2,1,9,3.2883270328778007
undo,52,41,0,0,0,9,"[0, 13, 28, 5, 3, 21, 17, 9]",8,1,[2],60.54440096,7894,889,1,0,9,2.9098226601812454
undo,52,41,0,0,1,2,"[0, 13, 28, 5, 3, 21, 17, 9, 2]",9,0,[],48.46135498,8888,994,1,0,9,2.780153959656953
undo,52,41,0,1,1,2,"[0, 13, 28, 5, 3, 21, 17, 9, 2]",9,0,[],48.46135498,9596,708,1,0,9,2.780153959656953
undo,53,3,0,0,0,0,[0],1,29,"[1, 2, 3, 4, 5, 6, 7, 8, 9, 10, 11, 12, 13, 14, 15, 16, 17, 18, 19, 20, 21, 22, 23, 24, 25, 26, 27, 28, 29]",300,130,-1,34,427,10,0.0
undo,53,3,0,0,0,7,"[0, 7]",2,28,"[1, 2, 3, 4, 5, 6, 8, 9, 10, 11, 12, 13, 14, 15, 16, 17, 18, 19, 20, 21, 22, 23, 24, 25, 26, 27, 28, 29]",278.8103799,2310,2180,24,215,10,1.0
undo,53,3,0,0,0,8,"[0, 7, 8]",3,24,"[1, 2, 3, 4, 5, 6, 10, 11, 12, 13, 14, 15, 16, 17, 18, 19, 20, 21, 22, 24, 25, 26, 27, 28]",222.837172,3063,753,16,114,10,1.2853332575451413
undo,53,3,0,0,0,24,"[0, 7, 8, 24]",4,21,"[1, 3, 4, 5, 6, 10, 11, 12, 14, 15, 16, 17, 18, 19, 20, 21, 22, 25, 26, 27, 28]",210.671647,3838,775,16,91,10,1.5177505014936548
undo,53,3,0,0,0,17,"[0, 7, 8, 24, 17]",5,9,"[3, 4, 10, 14, 15, 16, 19, 20, 21]",141.3174834,4890,1052,7,26,10,1.5510961300062232
undo,53,3,0,0,0,20,"[0, 7, 8, 24, 17, 20]",6,7,"[3, 4, 10, 14, 16, 19, 21]",128.6683728,5605,715,7,14,10,1.5133082717474817
undo,53,3,0,0,0,3,"[0, 7, 8, 24, 17, 20, 3]",7,5,"[4, 10, 14, 19, 21]",108.2722947,6471,866,7,4,10,1.5325960555943097
undo,53,3,0,0,0,19,"[0, 7, 8, 24, 17, 20, 3, 19]",8,3,"[10, 14, 21]",70.93598532,7038,567,3,1,10,1.5521294182529992
undo,53,3,0,0,0,21,"[0, 7, 8, 24, 17, 20, 3, 19, 21]",9,2,"[10, 14]",58.72942971,7508,470,2,0,10,1.5690424431931145
undo,53,3,0,0,1,14,"[0, 7, 8, 24, 17, 20, 3, 19, 21, 14]",10,0,[],31.82218161,9110,1602,1,0,10,2.0836613372745463
undo,53,3,0,1,1,14,"[0, 7, 8, 24, 17, 20, 3, 19, 21, 14]",10,0,[],31.82218161,9730,620,1,0,10,2.0836613372745463
undo,54,42,0,0,0,0,[0],1,29,"[1, 2, 3, 4, 5, 6, 7, 8, 9, 10, 11, 12, 13, 14, 15, 16, 17, 18, 19, 20, 21, 22, 23, 24, 25, 26, 27, 28, 29]",300,182,-1,16,302,9,0.0
undo,54,42,0,0,0,25,"[0, 25]",2,27,"[1, 2, 3, 4, 5, 6, 7, 8, 9, 10, 11, 12, 13, 15, 16, 17, 18, 19, 20, 21, 22, 23, 24, 26, 27, 28, 29]",270.2678625,4244,4062,3,59,9,1.0
undo,54,42,0,0,0,29,"[0, 25, 29]",3,22,"[1, 2, 3, 4, 5, 6, 7, 8, 9, 11, 13, 15, 16, 17, 18, 20, 21, 22, 23, 24, 26, 27]",247.0730355,5444,1200,1,23,9,1.0472889958702385
undo,54,42,0,0,0,4,"[0, 25, 29, 4]",4,14,"[1, 2, 3, 5, 7, 8, 11, 15, 18, 20, 22, 24, 26, 27]",140.6916461,6724,1280,1,11,9,1.7608777599021395
undo,54,42,0,0,0,22,"[0, 25, 29, 4, 22]",5,12,"[1, 2, 3, 5, 7, 8, 11, 15, 18, 24, 26, 27]",129.5113063,7430,706,1,8,9,1.9242467193380144
undo,54,42,0,0,0,5,"[0, 25, 29, 4, 22, 5]",6,4,"[1, 7, 8, 18]",101.2801178,8225,795,2,2,8,1.828048455620259
undo,54,42,0,0,0,8,"[0, 25, 29, 4, 22, 5, 8]",7,1,[1],66.79823853,9097,872,1,0,8,2.168966825319106
undo,54,42,0,0,1,1,"[0, 25, 29, 4, 22, 5, 8, 1]",8,0,[],17.7064877,10644,1547,1,0,8,1.8127796857701821
undo,54,42,0,1,1,1,"[0, 25, 29, 4, 22, 5, 8, 1]",8,0,[],17.7064877,11249,605,1,0,8,1.8127796857701821
undo,55,26,0,0,0,0,[0],1,29,"[1, 2, 3, 4, 5, 6, 7, 8, 9, 10, 11, 12, 13, 14, 15, 16, 17, 18, 19, 20, 21, 22, 23, 24, 25, 26, 27, 28, 29]",300,180,-1,9,226,9,0.0
undo,55,26,0,0,0,12,"[0, 12]",2,26,"[1, 2, 3, 4, 5, 6, 8, 10, 11, 13, 14, 15, 16, 17, 18, 19, 20, 21, 22, 23, 24, 25, 26, 27, 28, 29]",279.8753882,3842,3662,2,80,9,1.0
undo,55,26,0,0,0,21,"[0, 12, 21]",3,19,"[3, 4, 5, 6, 8, 10, 11, 13, 14, 16, 17, 18, 19, 22, 23, 24, 25, 26, 29]",171.275204,5122,1280,1,20,9,1.4485421710567572
undo,55,26,0,0,0,13,"[0, 12, 21, 13]",4,13,"[3, 4, 5, 6, 11, 14, 16, 17, 18, 22, 23, 25, 29]",149.1392604,6173,1051,7,19,8,1.3732214825936762
undo,55,26,0,0,0,5,"[0, 12, 21, 13, 5]",5,6,"[3, 11, 16, 22, 23, 29]",110.850881,7293,1120,1,2,8,1.278005415293344
undo,55,26,0,0,0,23,"[0, 12, 21, 13, 5, 23]",6,2,"[16, 29]",78.15531553,8859,1566,1,1,8,1.647957336537536
undo,55,26,0,0,0,16,"[0, 12, 21, 13, 5, 23, 16]",7,1,[29],24.91998892,9788,929,1,0,8,2.4572471501572704
undo,55,26,0,0,1,29,"[0, 12, 21, 13, 5, 23, 16, 29]",8,0,[],0.712552042,11306,1518,1,0,8,2.449393715122585
undo,55,26,0,1,1,29,"[0, 12, 21, 13, 5, 23, 16, 29]",8,0,[],0.712552042,12414,1108,1,0,8,2.449393715122585
undo,56,13,0,0,0,0,[0],1,29,"[1, 2, 3, 4, 5, 6, 7, 8, 9, 10, 11, 12, 13, 14, 15, 16, 17, 18, 19, 20, 21, 22, 23, 24, 25, 26, 27, 28, 29]",300,145,-1,60,2676,11,0.0
undo,56,13,0,0,0,24,"[0, 24]",2,28,"[1, 2, 3, 4, 5, 6, 7, 8, 9, 10, 11, 12, 13, 14, 15, 16, 17, 18, 19, 20, 21, 22, 23, 25, 26, 27, 28, 29]",288.8196601,2088,1943,16,1444,11,1.0
undo,56,13,0,0,0,23,"[0, 24, 23]",3,27,"[1, 2, 3, 4, 5, 6, 7, 8, 9, 10, 11, 12, 13, 14, 15, 16, 17, 18, 19, 20, 21, 22, 25, 26, 27, 28, 29]",243.1140806,3288,1200,2,868,11,1.0065545717039834
undo,56,13,0,0,0,28,"[0, 24, 23, 28]",4,21,"[1, 2, 3, 4, 6, 7, 9, 10, 11, 12, 13, 15, 16, 17, 19, 20, 21, 22, 26, 27, 29]",177.7458926,4803,1515,1,253,11,1.6592183354372274
undo,56,13,0,0,0,26,"[0, 24, 23, 28, 26]",5,18,"[1, 2, 3, 4, 6, 7, 9, 11, 12, 13, 15, 16, 17, 19, 20, 21, 27, 29]",137.6959238,5876,1073,56,85,10,1.696475905611795
undo,56,13,0,0,0,6,"[0, 24, 23, 28, 26, 6]",6,10,"[1, 2, 3, 7, 11, 13, 15, 16, 17, 29]",117.5961726,6653,777,13,15,10,1.679946545621712
undo,56,13,0,0,0,11,"[0, 24, 23, 28, 26, 6, 11]",7,7,"[2, 7, 13, 15, 16, 17, 29]",98.4911994,7342,689,6,2,10,1.5796961157280762
undo,56,13,0,0,0,7,"[0, 24, 23, 28, 26, 6, 11, 7]",8,2,"[2, 29]",68.42460664,8121,779,2,0,10,2.1999992371560615
undo,56,13,0,0,0,29,"[0, 24, 23, 28, 26, 6, 11, 7, 29]",9,1,[2],53.16026912,9137,1016,1,0,10,2.217670083077638
undo,56,13,0,0,1,2,"[0, 24, 23, 28, 26, 6, 11, 7, 29, 2]",10,0,[],41.45556921,9744,607,1,0,10,2.359194154824967
undo,56,13,0,1,1,2,"[0, 24, 23, 28, 26, 6, 11, 7, 29, 2]",10,0,[],41.45556921,10879,1135,1,0,10,2.359194154824967
undo,57,14,0,0,0,0,[0],1,29,"[1, 2, 3, 4, 5, 6, 7, 8, 9, 10, 11, 12, 13, 14, 15, 16, 17, 18, 19, 20, 21, 22, 23, 24, 25, 26, 27, 28, 29]",300,161,-1,8,157,10,0.0
undo,57,14,0,0,0,28,"[0, 28]",2,18,"[1, 2, 3, 4, 7, 8, 9, 13, 15, 17, 18, 19, 20, 22, 23, 25, 26, 27]",201.8725319,2238,2077,30,170,9,1.0
undo,57,14,0,0,0,17,"[0, 28, 17]",3,16,"[1, 2, 3, 4, 7, 8, 9, 13, 15, 18, 19, 20, 22, 23, 25, 26]",188.4189078,2869,631,18,87,9,1.032450375957012
undo,57,14,0,0,0,15,"[0, 28, 17, 15]",4,13,"[1, 2, 3, 7, 8, 13, 18, 19, 20, 22, 23, 25, 26]",163.2395512,3653,784,9,38,9,1.6418873981807083
undo,57,14,0,0,0,18,"[0, 28, 17, 15, 18]",5,7,"[1, 7, 8, 19, 23, 25, 26]",100.1760911,5036,1383,9,20,9,1.6637556348048597
undo,57,14,0,0,0,8,"[0, 28, 17, 15, 18, 8]",6,6,"[1, 7, 19, 23, 25, 26]",86.5746206,5521,485,9,7,9,1.6287743242041242
undo,57,14,0,0,0,1,"[0, 28, 17, 15, 18, 8, 1]",7,4,"[19, 23, 25, 26]",62.97377315,7821,2300,3,2,9,1.5329066107995903
undo,57,14,0,0,0,19,"[0, 28, 17, 15, 18, 8, 1, 19]",8,2,"[23, 25]",47.74222694,9239,1418,2,0,9,1.7059638206817227
undo,57,14,0,0,1,25,"[0, 28, 17, 15, 18, 8, 1, 19, 25]",9,0,[],11.89533028,11703,2464,1,0,9,1.7601420981912959
undo,57,14,0,1,1,25,"[0, 28, 17, 15, 18, 8, 1, 19, 25]",9,0,[],11.89533028,15861,4158,1,0,9,1.7601420981912959
undo,58,33,0,0,0,0,[0],1,23,"[1, 2, 5, 7, 8, 11, 12, 13, 14, 15, 16, 17, 18, 19, 20, 21, 23, 24, 25, 26, 27, 28, 29]",300,148,-1,5,108,9,0.0
undo,58,33,0,0,0,8,"[0, 8]",2,22,"[1, 2, 5, 7, 11, 12, 13, 14, 15, 16, 17, 18, 19, 20, 21, 23, 24, 25, 26, 27, 28, 29]",265.8679037,3091,2943,5,87,9,1.0
undo,58,33,0,0,0,21,"[0, 8, 21]",3,16,"[2, 5, 7, 11, 13, 14, 16, 17, 18, 19, 20, 24, 26, 27, 28, 29]",166.0430571,4325,1234,5,80,9,1.0670557763739492
undo,58,33,0,0,0,13,"[0, 8, 21, 13]",4,12,"[2, 7, 11, 14, 16, 17, 18, 19, 20, 24, 26, 29]",139.6422995,5156,831,4,54,9,1.0555103820910288
undo,58,33,0,0,0,19,"[0, 8, 21, 13, 19]",5,10,"[7, 11, 14, 16, 17, 18, 20, 24, 26, 29]",114.1472019,6227,1071,3,19,9,1.1090798607799486
undo,58,33,0,0,0,24,"[0, 8, 21, 13, 19, 24]",6,6,"[7, 14, 16, 18, 26, 29]",72.09960985,7573,1346,2,3,9,1.1193530461391534
undo,58,33,0,0,0,7,"[0, 8, 21, 13, 19, 24, 7]",7,2,"[14, 26]",42.89344611,8656,1083,2,0,9,1.2065014071663551
undo,58,33,0,0,0,14,"[0, 8, 21, 13, 19, 24, 7, 14]",8,1,[26],28.02737737,9591,935,1,0,9,1.2536495746979057
undo,58,33,0,0,1,26,"[0, 8, 21, 13, 19, 24, 7, 14, 26]",9,0,[],15.37826672,10441,850,1,0,9,1.2580465331304596
undo,58,33,0,1,1,26,"[0, 8, 21, 13, 19, 24, 7, 14, 26]",9,0,[],15.37826672,10998,557,1,0,9,1.2580465331304596
undo,59,1,0,0,0,0,[0],1,26,"[1, 2, 4, 5, 7, 8, 9, 10, 11, 12, 13, 14, 15, 16, 17, 18, 19, 20, 21, 22, 23, 24, 25, 26, 28, 29]",300,148,-1,6,74,7,0.0
undo,59,1,0,0,0,8,"[0, 8]",2,23,"[1, 4, 5, 7, 9, 10, 11, 12, 13, 14, 15, 16, 17, 18, 19, 20, 21, 23, 24, 25, 26, 28, 29]",202,1554,1406,1,16,7,1.0
undo,59,1,0,0,0,20,"[0, 8, 20]",3,12,"[1, 4, 5, 11, 13, 14, 15, 17, 18, 19, 28, 29]",125.9408125,3257,1703,1,7,7,1.02364736730791
undo,59,1,0,0,0,5,"[0, 8, 20, 5]",4,7,"[1, 4, 11, 13, 17, 18, 29]",104.469902,4675,1418,1,3,7,1.0439599203945713
undo,59,1,0,0,0,18,"[0, 8, 20, 5, 18]",5,2,"[4, 29]",81.64447755,6271,1596,1,1,7,1.0840407791793756
undo,59,1,0,0,0,4,"[0, 8, 20, 5, 18, 4]",6,1,[29],42.69579336,8388,2117,1,0,7,1.0902329133216275
undo,59,1,0,0,1,29,"[0, 8, 20, 5, 18, 4, 29]",7,0,[],6.640280603,9621,1233,1,0,7,1.2859729622882756
undo,59,1,0,1,1,29,"[0, 8, 20, 5, 18, 4, 29]",7,0,[],6.640280603,11029,1408,1,0,7,1.2859729622882756
undo,60,45,0,0,0,0,[0],1,24,"[1, 2, 3, 4, 5, 6, 7, 9, 10, 11, 12, 14, 15, 16, 17, 19, 20, 21, 22, 23, 24, 25, 27, 29]",300,146,-1,6,248,10,0.0
undo,60,45,0,0,0,15,"[0, 15]",2,23,"[1, 2, 3, 4, 5, 6, 7, 9, 10, 11, 12, 14, 16, 17, 19, 20, 21, 22, 23, 24, 25, 27, 29]",253.9022777,1555,1409,5,207,10,1.0
undo,60,45,0,0,0,23,"[0, 15, 23]",3,22,"[1, 2, 3, 4, 5, 6, 7, 9, 10, 11, 12, 14, 16, 17, 19, 20, 21, 22, 24, 25, 27, 29]",230.3014303,2771,1216,5,163,10,1.0006068457769497
undo,60,45,0,0,0,20,"[0, 15, 23, 20]",4,19,"[1, 2, 3, 5, 6, 7, 9, 10, 11, 12, 14, 16, 17, 19, 21, 22, 24, 25, 29]",188.8647316,3737,966,5,137,10,1.2062119754673604
undo,60,45,0,0,0,7,"[0, 15, 23, 20, 7]",5,14,"[2, 3, 5, 6, 9, 10, 12, 14, 17, 19, 21, 22, 24, 29]",137.2410936,5305,1568,3,38,10,1.2267717168083891
undo,60,45,0,0,0,2,"[0, 15, 23, 20, 7, 2]",6,8,"[3, 6, 10, 12, 19, 22, 24, 29]",99.22793795,6127,822,3,20,10,1.1978549169009853
undo,60,45,0,0,0,3,"[0, 15, 23, 20, 7, 2, 3]",7,5,"[6, 10, 12, 22, 29]",73.90996014,6745,618,2,7,10,1.2603420042999722
undo,60,45,0,0,0,29,"[0, 15, 23, 20, 7, 2, 3, 29]",8,3,"[6, 10, 12]",53.90996014,7521,776,2,1,10,1.527949676112761
undo,60,45,0,0,0,10,"[0, 15, 23, 20, 7, 2, 3, 29, 10]",9,1,[6],32.36930092,8411,890,1,0,10,1.8188082660591487
undo,60,45,0,0,1,6,"[0, 15, 23, 20, 7, 2, 3, 29, 10, 6]",10,0,[],6.120491419,10038,1627,1,0,10,1.7062675391073039
undo,60,45,0,1,1,6,"[0, 15, 23, 20, 7, 2, 3, 29, 10, 6]",10,0,[],6.120491419,10896,858,1,0,10,1.7062675391073039
undo,61,2,0,0,0,0,[0],1,23,"[1, 2, 4, 5, 6, 7, 8, 9, 12, 13, 15, 16, 17, 18, 19, 20, 22, 23, 25, 26, 27, 28, 29]",300,164,-1,70,620,10,0.0
undo,61,2,0,0,0,19,"[0, 19]",2,22,"[1, 2, 4, 5, 6, 7, 8, 9, 12, 13, 15, 16, 17, 18, 20, 22, 23, 25, 26, 27, 28, 29]",210.306076,2622,2458,67,431,10,1.0
undo,61,2,0,0,0,12,"[0, 19, 12]",3,17,"[1, 4, 5, 6, 7, 13, 15, 16, 17, 18, 20, 22, 25, 26, 27, 28, 29]",174.2921898,4144,1522,66,298,10,1.1107635036313153
undo,61,2,0,0,0,5,"[0, 19, 12, 5]",4,11,"[1, 6, 7, 13, 15, 16, 18, 22, 25, 26, 29]",144.7625437,5504,1360,38,136,10,1.0968174771581647
undo,61,2,0,0,0,13,"[0, 19, 12, 5, 13]",5,9,"[1, 6, 7, 15, 18, 22, 25, 26, 29]",131.1610732,6672,1168,18,63,10,1.1414029742578664
undo,61,2,0,0,0,22,"[0, 19, 12, 5, 13, 22]",6,7,"[1, 6, 7, 15, 18, 26, 29]",116.2950044,7327,655,16,16,10,1.1904825380032296
undo,61,2,0,0,0,18,"[0, 19, 12, 5, 13, 22, 18]",7,4,"[7, 15, 26, 29]",76.97579792,8273,946,8,3,10,1.2403639687317394
undo,61,2,0,0,0,7,"[0, 19, 12, 5, 13, 22, 18, 7]",8,3,"[15, 26, 29]",66.68016778,9256,983,3,1,10,1.2279991169473683
undo,61,2,0,0,0,26,"[0, 19, 12, 5, 13, 22, 18, 7, 26]",9,1,[15],43.87665928,10329,1073,1,0,10,1.2117471773106117
undo,61,2,0,0,1,15,"[0, 19, 12, 5, 13, 22, 18, 7, 26, 15]",10,0,[],19.66922241,11161,832,1,0,10,1.4882186266815536
undo,61,2,0,1,1,15,"[0, 19, 12, 5, 13, 22, 18, 7, 26, 15]",10,0,[],19.66922241,12297,1136,1,0,10,1.4882186266815536
undo,62,38,0,0,0,0,[0],1,29,"[1, 2, 3, 4, 5, 6, 7, 8, 9, 10, 11, 12, 13, 14, 15, 16, 17, 18, 19, 20, 21, 22, 23, 24, 25, 26, 27, 28, 29]",300,148,-1,33,506,9,0.0
undo,62,38,0,0,0,5,"[0, 5]",2,28,"[1, 2, 3, 4, 6, 7, 8, 9, 10, 11, 12, 13, 14, 15, 16, 17, 18, 19, 20, 21, 22, 23, 24, 25, 26, 27, 28, 29]",257.5618097,3322,3174,17,232,8,1.0
undo,62,38,0,0,0,11,"[0, 5, 11]",3,15,"[1, 4, 7, 10, 12, 13, 14, 15, 16, 17, 19, 20, 24, 26, 28]",173.8838556,4956,1634,10,77,8,1.5783024632052294
undo,62,38,0,0,0,15,"[0, 5, 11, 15]",4,12,"[4, 10, 12, 13, 14, 16, 17, 19, 20, 24, 26, 28]",137.4833061,6007,1051,4,29,8,2.214855783888066
undo,62,38,0,0,0,4,"[0, 5, 11, 15, 4]",5,8,"[13, 16, 17, 19, 20, 24, 26, 28]",111.4833061,6623,616,4,12,8,2.6887094750019904
undo,62,38,0,0,0,20,"[0, 5, 11, 15, 4, 20]",6,3,"[13, 17, 19]",77.54218062,7322,699,2,1,8,4.130937999989862
undo,62,38,0,0,0,17,"[0, 5, 11, 15, 4, 20, 17]",7,1,[19],53.77245197,8106,784,1,0,8,3.7989213257758956
undo,62,38,0,0,1,19,"[0, 5, 11, 15, 4, 20, 17, 19]",8,0,[],32.39489365,11206,3100,1,0,8,3.3243511606925593
undo,62,38,0,1,1,19,"[0, 5, 11, 15, 4, 20, 17, 19]",8,0,[],32.39489365,11814,608,1,0,8,3.3243511606925593
undo,63,19,0,0,0,0,[0],1,29,"[1, 2, 3, 4, 5, 6, 7, 8, 9, 10, 11, 12, 13, 14, 15, 16, 17, 18, 19, 20, 21, 22, 23, 24, 25, 26, 27, 28, 29]",300,162,-1,12,149,8,0.0
undo,63,19,0,0,0,29,"[0, 29]",2,28,"[1, 2, 3, 4, 5, 6, 7, 8, 9, 10, 11, 12, 13, 14, 15, 16, 17, 18, 19, 20, 21, 22, 23, 24, 25, 26, 27, 28]",265.0715016,4552,4390,12,120,8,1.0
undo,63,19,0,0,0,16,"[0, 29, 16]",3,5,"[1, 2, 12, 17, 25]",144.7012395,7126,2574,6,2,6,1.4684190000349047
undo,63,19,0,0,0,12,"[0, 29, 16, 12]",4,3,"[1, 17, 25]",77.02554224,8319,1193,2,1,6,1.864280192748818
undo,63,19,0,0,0,17,"[0, 29, 16, 12, 17]",5,1,[25],56.90093044,9520,1201,1,0,6,1.7539597147438082
undo,63,19,0,0,1,25,"[0, 29, 16, 12, 17, 25]",6,0,[],45.85556942,10120,600,1,0,6,1.8636777834007687
undo,63,19,0,1,1,25,"[0, 29, 16, 12, 17, 25]",6,0,[],45.85556942,10710,590,1,0,6,1.8636777834007687
undo,64,8,0,0,0,0,[0],1,29,"[1, 2, 3, 4, 5, 6, 7, 8, 9, 10, 11, 12, 13, 14, 15, 16, 17, 18, 19, 20, 21, 22, 23, 24, 25, 26, 27, 28, 29]",300,146,-1,10,149,9,0.0
undo,64,8,0,0,0,5,"[0, 5]",2,28,"[1, 2, 3, 4, 6, 7, 8, 9, 10, 11, 12, 13, 14, 15, 16, 17, 18, 19, 20, 21, 22, 23, 24, 25, 26, 27, 28, 29]",254.5137383,3204,3058,10,100,9,1.0
undo,64,8,0,0,0,6,"[0, 5, 6]",3,15,"[1, 3, 4, 11, 12, 13, 14, 17, 18, 20, 21, 22, 23, 25, 29]",178.9227336,5159,1955,3,21,7,2.8754660172000843
undo,64,8,0,0,0,20,"[0, 5, 6, 20]",4,8,"[1, 12, 14, 21, 22, 23, 25, 29]",146.0289652,6571,1412,1,7,7,2.0714425234683893
undo,64,8,0,0,0,25,"[0, 5, 6, 20, 25]",5,3,"[1, 14, 23]",53.8280975,7773,1202,1,2,7,3.5673341102909757
undo,64,8,0,0,1,14,"[0, 5, 6, 20, 25, 14]",6,0,[],8.728208365,8588,815,1,0,6,3.409078463883271
undo,64,8,0,1,1,14,"[0, 5, 6, 20, 25, 14]",6,0,[],8.728208365,9063,475,1,0,6,3.409078463883271
undo,65,27,0,0,0,0,[0],1,26,"[1, 3, 5, 6, 7, 8, 9, 10, 11, 12, 13, 14, 15, 16, 17, 18, 19, 21, 22, 23, 24, 25, 26, 27, 28, 29]",300,161,-1,13,578,11,0.0
undo,65,27,0,0,0,26,"[0, 26]",2,23,"[1, 5, 6, 7, 8, 9, 10, 11, 12, 13, 14, 15, 16, 17, 18, 19, 21, 22, 23, 24, 25, 27, 29]",275.8132268,3437,3276,7,249,11,1.0
undo,65,27,0,0,0,15,"[0, 26, 15]",3,18,"[1, 6, 7, 8, 10, 12, 13, 14, 16, 17, 18, 19, 21, 23, 24, 25, 27, 29]",216.0386502,4786,1349,6,105,11,2.316230250316108
undo,65,27,0,0,0,24,"[0, 26, 15, 24]",4,14,"[1, 8, 10, 12, 13, 14, 16, 17, 18, 19, 23, 25, 27, 29]",198.8339997,5638,852,6,63,11,2.140390406148825
undo,65,27,0,0,0,17,"[0, 26, 15, 24, 17]",5,11,"[1, 8, 10, 12, 13, 14, 18, 19, 23, 27, 29]",182.2810543,6368,730,4,33,11,1.897705569486853
undo,65,27,0,0,0,12,"[0, 26, 15, 24, 17, 12]",6,10,"[1, 8, 10, 13, 14, 18, 19, 23, 27, 29]",171.1007144,8325,1957,2,17,11,1.994427587076918
undo,65,27,0,0,0,10,"[0, 26, 15, 24, 17, 12, 10]",7,9,"[1, 8, 13, 14, 18, 19, 23, 27, 29]",160.0553534,9226,901,2,14,11,1.8554032921959762
undo,65,27,0,0,0,13,"[0, 26, 15, 24, 17, 12, 10, 13]",8,7,"[1, 8, 14, 19, 23, 27, 29]",120.2056357,11508,2282,2,8,11,1.8269483184790714
undo,65,27,0,0,0,19,"[0, 26, 15, 24, 17, 12, 10, 13, 19]",9,4,"[8, 14, 23, 29]",83.97029387,12570,1062,2,3,11,1.6617669702307691
undo,65,27,0,0,0,8,"[0, 26, 15, 24, 17, 12, 10, 13, 19, 8]",10,2,"[14, 29]",69.10422512,13853,1283,2,0,11,1.708465241811091
undo,65,27,0,0,1,14,"[0, 26, 15, 24, 17, 12, 10, 13, 19, 8, 14]",11,0,[],11.5455594,15819,1966,1,0,11,1.572478422540951
undo,65,27,0,1,1,14,"[0, 26, 15, 24, 17, 12, 10, 13, 19, 8, 14]",11,0,[],11.5455594,17178,1359,1,0,11,1.572478422540951
undo,66,17,0,0,0,0,[0],1,28,"[1, 2, 3, 4, 5, 6, 7, 8, 9, 10, 11, 12, 13, 14, 15, 16, 17, 18, 19, 20, 22, 23, 24, 25, 26, 27, 28, 29]",300,146,-1,2,73,8,0.0
undo,66,17,0,0,0,16,"[0, 16]",2,23,"[1, 2, 3, 5, 7, 8, 9, 10, 11, 12, 14, 17, 18, 19, 20, 22, 23, 24, 25, 26, 27, 28, 29]",212.3586855,2429,2283,1,29,8,1.0
undo,66,17,0,0,0,2,"[0, 16, 2]",3,21,"[1, 3, 5, 7, 8, 9, 10, 11, 12, 14, 17, 18, 19, 20, 23, 24, 25, 26, 27, 28, 29]",196.23417,4005,1576,13,69,7,1.0017855005780958
undo,66,17,0,0,0,8,"[0, 16, 2, 8]",4,13,"[3, 7, 9, 10, 11, 12, 14, 17, 23, 25, 26, 27, 29]",161.1200703,4738,733,2,21,7,1.037631632944467
undo,66,17,0,0,0,7,"[0, 16, 2, 8, 7]",5,6,"[10, 11, 12, 23, 25, 27]",90.40939219,6422,1684,1,5,7,1.139719180682547
undo,66,17,0,0,1,23,"[0, 16, 2, 8, 7, 23]",6,0,[],10.98017842,8088,1666,1,0,6,1.2089916764037085
undo,66,17,0,1,1,23,"[0, 16, 2, 8, 7, 23]",6,0,[],10.98017842,8597,509,1,0,6,1.2089916764037085
undo,67,21,0,0,0,0,[0],1,29,"[1, 2, 3, 4, 5, 6, 7, 8, 9, 10, 11, 12, 13, 14, 15, 16, 17, 18, 19, 20, 21, 22, 23, 24, 25, 26, 27, 28, 29]",300,147,-1,84,830,9,0.0
undo,67,21,0,0,0,18,"[0, 18]",2,28,"[1, 2, 3, 4, 5, 6, 7, 8, 9, 10, 11, 12, 13, 14, 15, 16, 17, 19, 20, 21, 22, 23, 24, 25, 26, 27, 28, 29]",240.923778,3922,3775,44,305,9,1.0
undo,67,21,0,0,0,29,"[0, 18, 29]",3,24,"[1, 2, 3, 4, 6, 7, 8, 9, 10, 11, 12, 13, 14, 15, 16, 17, 20, 21, 22, 23, 24, 25, 26, 27]",212.2706805,4673,751,11,87,9,1.035555280387994
undo,67,21,0,0,0,25,"[0, 18, 29, 25]",4,18,"[1, 4, 6, 8, 9, 10, 11, 12, 14, 15, 16, 17, 20, 21, 22, 23, 24, 26]",167.0490043,6360,1687,6,45,9,2.2226517719335437
undo,67,21,0,0,0,23,"[0, 18, 29, 25, 23]",5,10,"[4, 8, 14, 15, 16, 17, 20, 21, 22, 24]",123.7246462,7758,1398,3,20,9,1.7801958981326236
undo,67,21,0,0,0,21,"[0, 18, 29, 25, 23, 21]",6,3,"[4, 14, 16]",94.11046043,9239,1481,1,3,9,2.290491065218303
undo,67,21,0,0,0,14,"[0, 18, 29, 25, 23, 21, 14]",7,2,"[4, 16]",68.49796348,10089,850,1,1,9,2.021100447974041
undo,67,21,0,0,0,4,"[0, 18, 29, 25, 23, 21, 14, 4]",8,1,[16],54.35582786,11338,1249,1,0,9,1.9205022281831265
undo,67,21,0,0,1,16,"[0, 18, 29, 25, 23, 21, 14, 4, 16]",9,0,[],9.757621617,12990,1652,1,0,9,1.7782202964615115
undo,67,21,0,1,1,16,"[0, 18, 29, 25, 23, 21, 14, 4, 16]",9,0,[],9.757621617,14630,1640,1,0,9,1.7782202964615115
undo,68,37,0,0,0,0,[0],1,29,"[1, 2, 3, 4, 5, 6, 7, 8, 9, 10, 11, 12, 13, 14, 15, 16, 17, 18, 19, 20, 21, 22, 23, 24, 25, 26, 27, 28, 29]",300,145,-1,6,168,10,0.0
undo,68,37,0,0,0,18,"[0, 18]",2,19,"[1, 2, 4, 6, 7, 9, 10, 12, 14, 15, 17, 19, 20, 21, 22, 23, 26, 28, 29]",202.4090168,3643,3498,6,89,10,1.0
undo,68,37,0,0,0,7,"[0, 18, 7]",3,12,"[1, 2, 4, 9, 15, 17, 19, 20, 21, 22, 26, 29]",175.2428614,5220,1577,6,53,10,1.0413073512834488
undo,68,37,0,0,0,22,"[0, 18, 7, 22]",4,8,"[1, 2, 4, 15, 19, 20, 21, 26]",125.2428614,6440,1220,6,29,10,1.0730792320325544
undo,68,37,0,0,0,2,"[0, 18, 7, 22, 2]",5,7,"[1, 4, 15, 19, 20, 21, 26]",97.58422802,9921,3481,2,13,10,1.338975835424605
undo,68,37,0,0,0,4,"[0, 18, 7, 22, 2, 4]",6,5,"[1, 15, 19, 20, 21]",86.18247377,11053,1132,2,6,10,1.3155324116512812
undo,68,37,0,0,0,1,"[0, 18, 7, 22, 2, 4, 1]",7,4,"[15, 19, 20, 21]",68.46242863,12606,1553,2,4,10,1.4624721991921241
undo,68,37,0,0,0,20,"[0, 18, 7, 22, 2, 4, 1, 20]",8,2,"[15, 21]",34.22794309,14037,1431,2,0,10,1.7730355582319604
undo,68,37,0,0,0,21,"[0, 18, 7, 22, 2, 4, 1, 20, 21]",9,1,[15],19.80573799,18274,4237,1,0,10,1.8054518555969565
undo,68,37,0,0,1,15,"[0, 18, 7, 22, 2, 4, 1, 20, 21, 15]",10,0,[],4.805737987,22055,3781,1,0,10,1.7740347323632142
undo,68,37,0,1,1,15,"[0, 18, 7, 22, 2, 4, 1, 20, 21, 15]",10,0,[],4.805737987,23629,1574,1,0,10,1.7740347323632142
basic,69,13,0,0,0,0,[0],1,29,"[1, 2, 3, 4, 5, 6, 7, 8, 9, 10, 11, 12, 13, 14, 15, 16, 17, 18, 19, 20, 21, 22, 23, 24, 25, 26, 27, 28, 29]",300,149,-1,60,2676,11,0.0
basic,69,13,0,0,0,24,"[0, 24]",2,28,"[1, 2, 3, 4, 5, 6, 7, 8, 9, 10, 11, 12, 13, 14, 15, 16, 17, 18, 19, 20, 21, 22, 23, 25, 26, 27, 28, 29]",288.8196601,4462,4313,16,1444,11,1.0
basic,69,13,0,0,0,23,"[0, 24, 23]",3,27,"[1, 2, 3, 4, 5, 6, 7, 8, 9, 10, 11, 12, 13, 14, 15, 16, 17, 18, 19, 20, 21, 22, 25, 26, 27, 28, 29]",243.1140806,5531,1069,2,868,11,1.0065545717039834
basic,69,13,0,0,0,28,"[0, 24, 23, 28]",4,21,"[1, 2, 3, 4, 6, 7, 9, 10, 11, 12, 13, 15, 16, 17, 19, 20, 21, 22, 26, 27, 29]",177.7458926,7848,2317,1,253,11,1.6592183354372274
basic,69,13,0,0,0,2,"[0, 24, 23, 28, 2]",5,15,"[1, 3, 6, 7, 9, 11, 12, 13, 15, 16, 17, 19, 21, 26, 29]",140.1028322,8932,1084,1,80,11,1.459046951791535
basic,69,13,0,0,0,29,"[0, 24, 23, 28, 2, 29]",6,9,"[1, 6, 7, 11, 13, 16, 17, 19, 26]",128.3981322,9576,644,1,31,11,1.5417142413159963
basic,69,13,0,0,0,7,"[0, 24, 23, 28, 2, 29, 7]",7,8,"[1, 6, 11, 13, 16, 17, 19, 26]",113.1337947,10692,1116,1,10,11,1.77525557938341
basic,69,13,0,0,0,26,"[0, 24, 23, 28, 2, 29, 7, 26]",8,6,"[1, 6, 11, 13, 16, 19]",102.6934882,11398,706,1,4,11,2.0623372568692724
basic,69,13,0,0,0,6,"[0, 24, 23, 28, 2, 29, 7, 26, 6]",9,3,"[11, 13, 16]",82.59373697,12590,1192,1,2,11,2.002320377701536
basic,69,13,0,0,0,11,"[0, 24, 23, 28, 2, 29, 7, 26, 6, 11]",10,1,[13],63.48876379,13522,932,1,0,11,1.8540921292495773
basic,69,13,0,0,1,13,"[0, 24, 23, 28, 2, 29, 7, 26, 6, 11, 13]",11,0,[],7.408464223,14790,1268,1,0,11,1.6123988786574368
basic,69,13,0,1,1,13,"[0, 24, 23, 28, 2, 29, 7, 26, 6, 11, 13]",11,0,[],7.408464223,16599,1809,1,0,11,1.6123988786574368
basic,70,21,0,0,0,0,[0],1,29,"[1, 2, 3, 4, 5, 6, 7, 8, 9, 10, 11, 12, 13, 14, 15, 16, 17, 18, 19, 20, 21, 22, 23, 24, 25, 26, 27, 28, 29]",300,188,-1,84,830,9,0.0
basic,70,21,0,0,0,25,"[0, 25]",2,26,"[1, 2, 3, 4, 5, 6, 7, 8, 9, 10, 11, 12, 13, 14, 15, 16, 17, 18, 20, 21, 22, 23, 24, 26, 27, 29]",240.1836143,2122,1934,30,238,9,1.0
basic,70,21,0,0,0,21,"[0, 25, 21]",3,18,"[1, 3, 4, 6, 8, 9, 11, 12, 14, 15, 16, 17, 18, 20, 22, 23, 24, 29]",190.8480288,3439,1317,15,84,9,1.2142997420204755
basic,70,21,0,0,0,23,"[0, 25, 21, 23]",4,14,"[1, 4, 6, 8, 9, 14, 15, 16, 17, 18, 20, 22, 24, 29]",161.233843,4392,953,9,27,9,1.4013924134357778
basic,70,21,0,0,0,14,"[0, 25, 21, 23, 14]",5,9,"[4, 8, 15, 16, 17, 18, 22, 24, 29]",132.1649593,5239,847,7,9,9,1.4652634639575024
basic,70,21,0,0,0,4,"[0, 25, 21, 23, 14, 4]",6,7,"[8, 15, 16, 17, 18, 24, 29]",118.0228236,6406,1167,7,2,9,1.422739117765393
basic,70,21,0,0,0,16,"[0, 25, 21, 23, 14, 4, 16]",7,3,"[8, 15, 24]",73.42461739,7574,1168,3,1,9,1.3881533988257628
basic,70,21,0,0,0,8,"[0, 25, 21, 23, 14, 4, 16, 8]",8,1,[15],54.82354215,8812,1238,1,0,9,1.353244899801389
basic,70,21,0,0,1,15,"[0, 25, 21, 23, 14, 4, 16, 8, 15]",9,0,[],29.82354215,9855,1043,1,0,9,1.604898534974819
basic,70,21,0,1,1,15,"[0, 25, 21, 23, 14, 4, 16, 8, 15]",9,0,[],29.82354215,10530,675,1,0,9,1.604898534974819
basic,71,4,0,0,0,0,[0],1,26,"[3, 4, 5, 6, 7, 8, 10, 11, 12, 13, 14, 15, 16, 17, 18, 19, 20, 21, 22, 23, 24, 25, 26, 27, 28, 29]",300,152,-1,4,489,10,0.0
basic,71,4,0,0,0,6,"[0, 6]",2,17,"[3, 4, 5, 10, 11, 13, 14, 15, 16, 17, 19, 20, 21, 22, 23, 25, 28]",207.2368608,3557,3405,37,365,8,1.0
basic,71,4,0,0,0,28,"[0, 6, 28]",3,14,"[3, 4, 5, 11, 13, 14, 15, 16, 17, 20, 21, 22, 23, 25]",142.0448367,4287,730,2,74,8,2.132777305796855
basic,71,4,0,0,0,14,"[0, 6, 28, 14]",4,5,"[3, 11, 16, 17, 25]",75.80285607,5588,1301,8,8,7,1.641732143379633
basic,71,4,0,0,0,25,"[0, 6, 28, 14, 25]",5,4,"[3, 11, 16, 17]",59.67834057,6555,967,3,2,7,1.8951185741919763
basic,71,4,0,0,0,11,"[0, 6, 28, 14, 25, 11]",6,1,[16],40.89004635,7235,680,1,0,7,2.1087465550452866
basic,71,4,0,0,1,16,"[0, 6, 28, 14, 25, 11, 16]",7,0,[],25.89004635,7941,706,1,0,7,1.9885502833362352
basic,71,4,0,1,1,16,"[0, 6, 28, 14, 25, 11, 16]",7,0,[],25.89004635,10561,2620,1,0,7,1.9885502833362352
basic,72,14,0,0,0,0,[0],1,29,"[1, 2, 3, 4, 5, 6, 7, 8, 9, 10, 11, 12, 13, 14, 15, 16, 17, 18, 19, 20, 21, 22, 23, 24, 25, 26, 27, 28, 29]",300,137,-1,8,157,10,0.0
basic,72,14,0,0,0,20,"[0, 20]",2,21,"[1, 2, 3, 7, 8, 9, 10, 11, 13, 15, 17, 18, 19, 21, 22, 23, 25, 26, 27, 28, 29]",236.0468922,2271,2134,2,25,9,1.0
basic,72,14,0,0,0,13,"[0, 20, 13]",3,9,"[1, 3, 8, 15, 17, 18, 19, 22, 28]",178.5577628,3305,1034,15,25,7,1.102881585595972
basic,72,14,0,0,0,28,"[0, 20, 13, 28]",4,6,"[1, 8, 15, 17, 18, 19]",112.2705091,5190,1885,9,7,7,1.9131186658860106
basic,72,14,0,0,0,15,"[0, 20, 13, 28, 15]",5,3,"[8, 17, 18]",93.06113638,6088,898,3,0,7,2.484419401609292
basic,72,14,0,0,0,17,"[0, 20, 13, 28, 15, 17]",6,1,[18],67.88177976,7387,1299,1,0,7,2.1477701914201246
basic,72,14,0,0,1,18,"[0, 20, 13, 28, 15, 17, 18]",7,0,[],3.25206523,9542,2155,1,0,7,2.4707556333379905
basic,72,14,0,1,1,18,"[0, 20, 13, 28, 15, 17, 18]",7,0,[],3.25206523,10147,605,1,0,7,2.4707556333379905
basic,73,32,0,0,0,0,[0],1,29,"[1, 2, 3, 4, 5, 6, 7, 8, 9, 10, 11, 12, 13, 14, 15, 16, 17, 18, 19, 20, 21, 22, 23, 24, 25, 26, 27, 28, 29]",300,158,-1,17,359,10,0.0
basic,73,32,0,0,0,19,"[0, 19]",2,28,"[1, 2, 3, 4, 5, 6, 7, 8, 9, 10, 11, 12, 13, 14, 15, 16, 17, 18, 20, 21, 22, 23, 24, 25, 26, 27, 28, 29]",283.5075775,3941,3783,16,294,10,1.0
basic,73,32,0,0,0,13,"[0, 19, 13]",3,24,"[2, 3, 4, 5, 6, 8, 9, 10, 11, 12, 14, 15, 16, 17, 18, 20, 21, 22, 23, 24, 25, 26, 27, 28]",260.3127505,4958,1017,14,227,10,1.0172874229878615
basic,73,32,0,0,0,15,"[0, 19, 13, 15]",4,18,"[2, 3, 5, 8, 9, 10, 11, 12, 16, 17, 20, 22, 23, 24, 25, 26, 27, 28]",177.4393531,6381,1423,9,116,10,1.435447391509833
basic,73,32,0,0,0,28,"[0, 19, 13, 15, 28]",5,17,"[2, 3, 5, 8, 9, 10, 11, 12, 16, 17, 20, 22, 23, 24, 25, 26, 27]",166.0375988,6960,579,9,70,10,1.3843701324937985
basic,73,32,0,0,0,12,"[0, 19, 13, 15, 28, 12]",6,14,"[2, 3, 5, 8, 9, 10, 11, 16, 17, 20, 22, 24, 26, 27]",147.0639329,7628,668,6,35,10,1.358372254952329
basic,73,32,0,0,0,16,"[0, 19, 13, 15, 28, 12, 16]",7,13,"[2, 3, 5, 8, 9, 10, 11, 17, 20, 22, 24, 26, 27]",131.411457,8356,728,5,15,10,1.4356932930709845
basic,73,32,0,0,0,22,"[0, 19, 13, 15, 28, 12, 16, 22]",8,6,"[2, 8, 9, 17, 20, 27]",97.57360838,9309,953,3,5,10,1.4335226411545752
basic,73,32,0,0,0,9,"[0, 19, 13, 15, 28, 12, 16, 22, 9]",9,3,"[2, 8, 20]",75.37000507,10174,865,3,0,10,1.4837166378374758
basic,73,32,0,0,1,2,"[0, 19, 13, 15, 28, 12, 16, 22, 9, 2]",10,0,[],24.28184597,11625,1451,1,0,10,1.9009621017233784
basic,73,32,0,1,1,2,"[0, 19, 13, 15, 28, 12, 16, 22, 9, 2]",10,0,[],24.28184597,12984,1359,1,0,10,1.9009621017233784
basic,74,27,0,0,0,0,[0],1,26,"[1, 3, 5, 6, 7, 8, 9, 10, 11, 12, 13, 14, 15, 16, 17, 18, 19, 21, 22, 23, 24, 25, 26, 27, 28, 29]",300,146,-1,13,578,11,0.0
basic,74,27,0,0,0,26,"[0, 26]",2,23,"[1, 5, 6, 7, 8, 9, 10, 11, 12, 13, 14, 15, 16, 17, 18, 19, 21, 22, 23, 24, 25, 27, 29]",275.8132268,2504,2358,7,249,11,1.0
basic,74,27,0,0,0,15,"[0, 26, 15]",3,18,"[1, 6, 7, 8, 10, 12, 13, 14, 16, 17, 18, 19, 21, 23, 24, 25, 27, 29]",216.0386502,3645,1141,6,105,11,2.316230250316108
basic,74,27,0,0,0,24,"[0, 26, 15, 24]",4,14,"[1, 8, 10, 12, 13, 14, 16, 17, 18, 19, 23, 25, 27, 29]",198.8339997,4604,959,6,63,11,2.140390406148825
basic,74,27,0,0,0,17,"[0, 26, 15, 24, 17]",5,11,"[1, 8, 10, 12, 13, 14, 18, 19, 23, 27, 29]",182.2810543,5621,1017,4,33,11,1.897705569486853
basic,74,27,0,0,0,12,"[0, 26, 15, 24, 17, 12]",6,10,"[1, 8, 10, 13, 14, 18, 19, 23, 27, 29]",171.1007144,6238,617,2,17,11,1.994427587076918
basic,74,27,0,0,0,10,"[0, 26, 15, 24, 17, 12, 10]",7,9,"[1, 8, 13, 14, 18, 19, 23, 27, 29]",160.0553534,7022,784,2,14,11,1.8554032921959762
basic,74,27,0,0,0,13,"[0, 26, 15, 24, 17, 12, 10, 13]",8,7,"[1, 8, 14, 19, 23, 27, 29]",120.2056357,8088,1066,2,8,11,1.8269483184790714
basic,74,27,0,0,0,19,"[0, 26, 15, 24, 17, 12, 10, 13, 19]",9,4,"[8, 14, 23, 29]",83.97029387,9188,1100,2,3,11,1.6617669702307691
basic,74,27,0,0,0,8,"[0, 26, 15, 24, 17, 12, 10, 13, 19, 8]",10,2,"[14, 29]",69.10422512,11654,2466,2,0,11,1.708465241811091
basic,74,27,0,0,1,14,"[0, 26, 15, 24, 17, 12, 10, 13, 19, 8, 14]",11,0,[],11.5455594,13194,1540,1,0,11,1.572478422540951
basic,74,27,0,1,1,14,"[0, 26, 15, 24, 17, 12, 10, 13, 19, 8, 14]",11,0,[],11.5455594,15029,1835,1,0,11,1.572478422540951
basic,75,29,0,0,0,0,[0],1,29,"[1, 2, 3, 4, 5, 6, 7, 8, 9, 10, 11, 12, 13, 14, 15, 16, 17, 18, 19, 20, 21, 22, 23, 24, 25, 26, 27, 28, 29]",300,146,-1,1,78,9,0.0
basic,75,29,0,0,0,14,"[0, 14]",2,22,"[1, 3, 4, 5, 6, 7, 9, 10, 11, 12, 13, 15, 16, 17, 21, 22, 23, 25, 26, 27, 28, 29]",209.490332,2319,2173,21,110,8,1.0
basic,75,29,0,0,0,13,"[0, 14, 13]",3,18,"[1, 4, 5, 6, 7, 9, 10, 12, 15, 16, 17, 21, 22, 25, 26, 27, 28, 29]",191.4625756,3140,821,20,75,8,1.0027006502223275
basic,75,29,0,0,0,5,"[0, 14, 13, 5]",4,15,"[1, 4, 6, 7, 9, 12, 15, 17, 21, 22, 25, 26, 27, 28, 29]",165.7526554,5170,2030,19,49,8,1.0803937325657265
basic,75,29,0,0,0,7,"[0, 14, 13, 5, 7]",5,8,"[4, 9, 12, 21, 22, 26, 27, 28]",102.2231347,6321,1151,3,12,8,1.2026521321069321
basic,75,29,0,0,0,12,"[0, 14, 13, 5, 7, 12]",6,7,"[4, 9, 21, 22, 26, 27, 28]",88.62166416,7310,989,3,4,8,1.3692133279803023
basic,75,29,0,0,0,22,"[0, 14, 13, 5, 7, 12, 22]",7,1,[27],50.67433224,8871,1561,1,0,8,2.1316115728184912
basic,75,29,0,0,1,27,"[0, 14, 13, 5, 7, 12, 22, 27]",8,0,[],17.43279196,10126,1255,1,0,8,2.6081028152142105
basic,75,29,0,1,1,27,"[0, 14, 13, 5, 7, 12, 22, 27]",8,0,[],17.43279196,10929,803,1,0,8,2.6081028152142105
basic,76,22,0,0,0,0,[0],1,29,"[1, 2, 3, 4, 5, 6, 7, 8, 9, 10, 11, 12, 13, 14, 15, 16, 17, 18, 19, 20, 21, 22, 23, 24, 25, 26, 27, 28, 29]",300,162,-1,31,704,9,0.0
basic,76,22,0,0,0,16,"[0, 16]",2,21,"[1, 3, 6, 7, 8, 9, 11, 13, 14, 15, 17, 18, 19, 20, 21, 22, 24, 25, 27, 28, 29]",218.605897,2287,2125,17,147,9,1.0
basic,76,22,0,0,0,28,"[0, 16, 28]",3,13,"[6, 7, 9, 13, 14, 17, 19, 20, 21, 22, 24, 25, 29]",184.1675463,3220,933,12,61,9,1.047282311284478
basic,76,22,0,0,0,6,"[0, 16, 28, 6]",4,12,"[7, 9, 13, 14, 17, 19, 20, 21, 22, 24, 25, 29]",154.1675463,4425,1205,12,43,9,1.645645870580622
basic,76,22,0,0,0,9,"[0, 16, 28, 6, 9]",5,8,"[7, 14, 17, 19, 20, 21, 24, 29]",127.5404924,5990,1565,8,17,9,1.925750226630103
basic,76,22,0,0,0,19,"[0, 16, 28, 6, 9, 19]",6,6,"[7, 14, 17, 21, 24, 29]",107.1444143,6673,683,3,7,9,2.4220750331476455
basic,76,22,0,0,0,29,"[0, 16, 28, 6, 9, 19, 29]",7,4,"[7, 14, 17, 24]",92.11111796,7343,670,2,2,9,2.6996279574991067
basic,76,22,0,0,0,14,"[0, 16, 28, 6, 9, 19, 29, 14]",8,1,[7],33.86165444,10074,2731,1,0,9,2.0544639927929462
basic,76,22,0,0,1,7,"[0, 16, 28, 6, 9, 19, 29, 14, 7]",9,0,[],20.82324963,10736,662,1,0,9,2.219817088951114
basic,76,22,0,1,1,7,"[0, 16, 28, 6, 9, 19, 29, 14, 7]",9,0,[],20.82324963,12145,1409,1,0,9,2.219817088951114
basic,77,44,0,0,0,0,[0],1,29,"[1, 2, 3, 4, 5, 6, 7, 8, 9, 10, 11, 12, 13, 14, 15, 16, 17, 18, 19, 20, 21, 22, 23, 24, 25, 26, 27, 28, 29]",300,148,-1,13,126,7,0.0
basic,77,44,0,0,0,11,"[0, 11]",2,18,"[4, 5, 6, 7, 8, 9, 12, 14, 16, 17, 19, 20, 22, 23, 24, 25, 26, 28]",152.7790776,3242,3094,5,34,7,1.0
basic,77,44,0,0,0,24,"[0, 11, 24]",3,13,"[4, 5, 7, 8, 9, 12, 14, 17, 20, 22, 23, 25, 28]",125.8532535,4448,1206,5,23,7,1.1588941745226709
basic,77,44,0,0,0,9,"[0, 11, 24, 9]",4,7,"[4, 7, 8, 12, 14, 20, 23]",93.09657483,5489,1041,2,8,7,1.3039383713641313
basic,77,44,0,0,0,4,"[0, 11, 24, 9, 4]",5,5,"[7, 12, 14, 20, 23]",73.39885923,6288,799,2,3,7,1.2901330701441578
basic,77,44,0,0,0,7,"[0, 11, 24, 9, 4, 7]",6,1,[23],42.38273439,7439,1151,1,0,7,1.2468141312360979
basic,77,44,0,0,1,23,"[0, 11, 24, 9, 4, 7, 23]",7,0,[],23.27776121,8261,822,1,0,7,1.2635191782769477
basic,77,44,0,1,1,23,"[0, 11, 24, 9, 4, 7, 23]",7,0,[],23.27776121,9098,837,1,0,7,1.2635191782769477
basic,78,37,0,0,0,0,[0],1,29,"[1, 2, 3, 4, 5, 6, 7, 8, 9, 10, 11, 12, 13, 14, 15, 16, 17, 18, 19, 20, 21, 22, 23, 24, 25, 26, 27, 28, 29]",300,146,-1,6,168,10,0.0
basic,78,37,0,0,0,19,"[0, 19]",2,19,"[1, 2, 4, 5, 6, 7, 9, 10, 11, 15, 17, 18, 20, 21, 22, 25, 26, 28, 29]",185.6627795,2529,2383,25,244,9,1.0
basic,78,37,0,0,0,26,"[0, 19, 26]",3,9,"[1, 2, 4, 15, 20, 21, 22, 25, 29]",120.4094271,3554,1025,12,37,8,1.0256292033966232
basic,78,37,0,0,0,21,"[0, 19, 26, 21]",4,6,"[1, 2, 4, 15, 20, 22]",90.67728956,4522,968,8,18,8,1.3487859218508713
basic,78,37,0,0,0,15,"[0, 19, 26, 21, 15]",5,4,"[1, 2, 4, 20]",75.67728956,5395,873,4,7,8,1.3481165821607015
basic,78,37,0,0,0,20,"[0, 19, 26, 21, 15, 20]",6,3,"[1, 2, 4]",58.67728956,6179,784,2,2,8,1.6099275130490058
basic,78,37,0,0,0,1,"[0, 19, 26, 21, 15, 20, 1]",7,2,"[2, 4]",24.44280403,7938,1759,2,0,8,1.7405155284688993
basic,78,37,0,0,1,4,"[0, 19, 26, 21, 15, 20, 1, 4]",8,0,[],6.722758881,8722,784,1,0,8,1.8044157702802002
basic,78,37,0,1,1,4,"[0, 19, 26, 21, 15, 20, 1, 4]",8,0,[],6.722758881,9880,1158,1,0,8,1.8044157702802002
basic,79,45,0,0,0,0,[0],1,24,"[1, 2, 3, 4, 5, 6, 7, 9, 10, 11, 12, 14, 15, 16, 17, 19, 20, 21, 22, 23, 24, 25, 27, 29]",300,165,-1,6,248,10,0.0
