condition,trial_id,map_id,undoIndicator,submit,checkEnd,currentChoice,chosen_all,n_city_all,n_within_reach,cities_reach,currentBudget,time_all,rt_all,n_opt_paths_all,n_subopt_paths_all,mas_all,tortuosity_all
basic,0,32,0,0,0,0,[0],1,29,"[1, 2, 3, 4, 5, 6, 7, 8, 9, 10, 11, 12, 13, 14, 15, 16, 17, 18, 19, 20, 21, 22, 23, 24, 25, 26, 27, 28, 29]",300,114,-1,17,359,10,0.0
basic,0,32,0,0,0,19,"[0, 19]",2,28,"[1, 2, 3, 4, 5, 6, 7, 8, 9, 10, 11, 12, 13, 14, 15, 16, 17, 18, 20, 21, 22, 23, 24, 25, 26, 27, 28, 29]",283.5075775,5973,5859,16,294,10,1.0
basic,0,32,0,0,0,13,"[0, 19, 13]",3,24,"[2, 3, 4, 5, 6, 8, 9, 10, 11, 12, 14, 15, 16, 17, 18, 20, 21, 22, 23, 24, 25, 26, 27, 28]",260.3127505,9749,3776,14,227,10,1.0172874229878615
basic,0,32,0,0,0,15,"[0, 19, 13, 15]",4,18,"[2, 3, 5, 8, 9, 10, 11, 12, 16, 17, 20, 22, 23, 24, 25, 26, 27, 28]",177.4393531,10909,1160,9,116,10,1.435447391509833
basic,0,32,0,0,0,28,"[0, 19, 13, 15, 28]",5,17,"[2, 3, 5, 8, 9, 10, 11, 12, 16, 17, 20, 22, 23, 24, 25, 26, 27]",166.0375988,11605,696,9,70,10,1.3843701324937985
basic,0,32,0,0,0,12,"[0, 19, 13, 15, 28, 12]",6,14,"[2, 3, 5, 8, 9, 10, 11, 16, 17, 20, 22, 24, 26, 27]",147.0639329,12717,1112,6,35,10,1.358372254952329
basic,0,32,0,0,0,16,"[0, 19, 13, 15, 28, 12, 16]",7,13,"[2, 3, 5, 8, 9, 10, 11, 17, 20, 22, 24, 26, 27]",131.411457,13445,728,5,15,10,1.4356932930709845
basic,0,32,0,0,0,22,"[0, 19, 13, 15, 28, 12, 16, 22]",8,6,"[2, 8, 9, 17, 20, 27]",97.57360838,14525,1080,3,5,10,1.4335226411545752
basic,0,32,0,0,0,9,"[0, 19, 13, 15, 28, 12, 16, 22, 9]",9,3,"[2, 8, 20]",75.37000507,15621,1096,3,0,10,1.4837166378374758
basic,0,32,0,0,1,2,"[0, 19, 13, 15, 28, 12, 16, 22, 9, 2]",10,0,[],24.28184597,18453,2832,1,0,10,1.9009621017233784
basic,0,32,0,1,1,2,"[0, 19, 13, 15, 28, 12, 16, 22, 9, 2]",10,0,[],24.28184597,23348,4895,1,0,10,1.9009621017233784
basic,1,34,0,0,0,0,[0],1,25,"[1, 3, 4, 5, 6, 7, 8, 9, 10, 11, 12, 13, 15, 18, 19, 20, 21, 22, 23, 24, 25, 26, 27, 28, 29]",300,116,-1,12,367,10,0.0
basic,1,34,0,0,0,13,"[0, 13]",2,24,"[1, 3, 4, 5, 6, 7, 8, 9, 10, 11, 12, 15, 18, 19, 20, 21, 22, 23, 24, 25, 26, 27, 28, 29]",279.9750156,4856,4740,12,331,10,1.0
basic,1,34,0,0,0,1,"[0, 13, 1]",3,16,"[3, 5, 7, 8, 9, 10, 11, 12, 19, 21, 22, 23, 24, 25, 27, 29]",211.8574701,5920,1064,3,92,10,1.0010381285747127
basic,1,34,0,0,0,8,"[0, 13, 1, 8]",4,14,"[3, 5, 7, 9, 10, 11, 12, 19, 22, 23, 24, 25, 27, 29]",201.0871405,6544,624,2,54,10,1.1636807
basic,1,34,0,0,0,25,"[0, 13, 1, 8, 25]",5,12,"[3, 5, 7, 9, 10, 11, 12, 22, 23, 24, 27, 29]",183.999133,7568,1024,2,28,10,1.1396208815936457
basic,1,34,0,0,0,24,"[0, 13, 1, 8, 25, 24]",6,11,"[3, 5, 7, 9, 10, 11, 12, 22, 23, 27, 29]",166.5062774,8248,680,2,23,10,1.374180768736554
basic,1,34,0,0,0,12,"[0, 13, 1, 8, 25, 24, 12]",7,7,"[7, 9, 10, 11, 22, 23, 27]",115.4670767,9640,1392,1,8,10,1.4994254760835948
basic,1,34,0,0,0,7,"[0, 13, 1, 8, 25, 24, 12, 7]",8,5,"[9, 11, 22, 23, 27]",100.4337804,10728,1088,1,4,10,1.758992610425009
basic,1,34,0,0,0,23,"[0, 13, 1, 8, 25, 24, 12, 7, 23]",9,1,[27],72.27352467,11824,1096,1,0,10,2.399781305190153
basic,1,34,0,0,1,27,"[0, 13, 1, 8, 25, 24, 12, 7, 23, 27]",10,0,[],18.60789321,13392,1568,1,0,10,4.766619878750327
basic,1,34,0,1,1,27,"[0, 13, 1, 8, 25, 24, 12, 7, 23, 27]",10,0,[],18.60789321,15816,2424,1,0,10,4.766619878750327
basic,2,24,0,0,0,0,[0],1,29,"[1, 2, 3, 4, 5, 6, 7, 8, 9, 10, 11, 12, 13, 14, 15, 16, 17, 18, 19, 20, 21, 22, 23, 24, 25, 26, 27, 28, 29]",300,116,-1,4,76,10,0.0
basic,2,24,0,0,0,16,"[0, 16]",2,28,"[1, 2, 3, 4, 5, 6, 7, 8, 9, 10, 11, 12, 13, 14, 15, 17, 18, 19, 20, 21, 22, 23, 24, 25, 26, 27, 28, 29]",210.3562607,10871,10755,13,110,9,1.0
basic,2,24,0,0,0,15,"[0, 16, 15]",3,25,"[2, 3, 4, 5, 6, 7, 8, 9, 10, 11, 12, 13, 14, 17, 18, 19, 21, 22, 23, 24, 25, 26, 27, 28, 29]",179.942448,11822,951,3,25,9,1.003655899916215
basic,2,24,0,0,0,22,"[0, 16, 15, 22]",4,17,"[2, 3, 4, 6, 8, 9, 10, 11, 13, 14, 17, 23, 24, 26, 27, 28, 29]",158.7292446,13103,1281,2,12,9,1.3405807719265295
basic,2,24,0,0,0,8,"[0, 16, 15, 22, 8]",5,13,"[3, 4, 6, 9, 10, 11, 14, 23, 24, 26, 27, 28, 29]",145.3128367,13967,864,2,10,9,1.4047964519188476
basic,2,24,0,0,0,28,"[0, 16, 15, 22, 8, 28]",6,5,"[4, 9, 11, 23, 27]",83.21613794,15167,1200,2,5,9,1.3168438838597547
basic,2,24,0,0,0,23,"[0, 16, 15, 22, 8, 28, 23]",7,3,"[9, 11, 27]",64.18984035,15991,824,2,2,9,1.3384269117817793
basic,2,24,0,0,0,11,"[0, 16, 15, 22, 8, 28, 23, 11]",8,2,"[9, 27]",37.26401631,16983,992,2,0,9,1.3080348489062907
basic,2,24,0,0,1,27,"[0, 16, 15, 22, 8, 28, 23, 11, 27]",9,0,[],9.461138764,18415,1432,1,0,9,1.2720805845080898
basic,2,24,0,1,1,27,"[0, 16, 15, 22, 8, 28, 23, 11, 27]",9,0,[],9.461138764,21966,3551,1,0,9,1.2720805845080898
basic,3,20,0,0,0,0,[0],1,21,"[1, 2, 3, 4, 5, 6, 7, 8, 9, 12, 17, 18, 20, 21, 22, 23, 25, 26, 27, 28, 29]",300,116,-1,1,9,9,0.0
basic,3,20,0,0,0,12,"[0, 12]",2,20,"[1, 2, 3, 4, 5, 6, 7, 8, 9, 17, 18, 20, 21, 22, 23, 25, 26, 27, 28, 29]",271.5570747,3856,3740,1,8,9,1.0
basic,3,20,0,0,0,1,"[0, 12, 1]",3,12,"[3, 4, 5, 6, 8, 9, 20, 21, 23, 27, 28, 29]",189.5692707,4920,1064,1,6,9,1.0757997779162911
basic,3,20,0,0,0,5,"[0, 12, 1, 5]",4,10,"[4, 6, 8, 9, 20, 21, 23, 27, 28, 29]",152.8950291,5736,816,1,5,9,1.1708231454516806
basic,3,20,0,0,0,21,"[0, 12, 1, 5, 21]",5,8,"[4, 6, 8, 9, 20, 23, 27, 28]",107.8950291,7144,1408,1,4,9,1.126197336199212
basic,3,20,0,0,0,8,"[0, 12, 1, 5, 21, 8]",6,5,"[6, 9, 23, 27, 28]",90.43077988,8048,904,1,3,9,1.140007470699913
basic,3,20,0,0,0,23,"[0, 12, 1, 5, 21, 8, 23]",7,2,"[6, 9]",45.74297394,9064,1016,1,1,9,1.1162257896627588
basic,3,20,0,0,0,9,"[0, 12, 1, 5, 21, 8, 23, 9]",8,1,[6],26.53360123,9984,920,1,0,9,1.1086880559449597
basic,3,20,0,0,1,6,"[0, 12, 1, 5, 21, 8, 23, 9, 6]",9,0,[],3.511872362,11280,1296,1,0,9,1.1186240265999328
basic,3,20,0,1,1,6,"[0, 12, 1, 5, 21, 8, 23, 9, 6]",9,0,[],3.511872362,13633,2353,1,0,9,1.1186240265999328
basic,4,44,0,0,0,0,[0],1,29,"[1, 2, 3, 4, 5, 6, 7, 8, 9, 10, 11, 12, 13, 14, 15, 16, 17, 18, 19, 20, 21, 22, 23, 24, 25, 26, 27, 28, 29]",300,116,-1,13,126,7,0.0
basic,4,44,0,0,0,8,"[0, 8]",2,17,"[1, 4, 5, 7, 9, 10, 11, 12, 13, 14, 15, 20, 21, 23, 24, 25, 27]",145.7923478,6126,6010,1,10,7,1.0
basic,4,44,0,0,0,20,"[0, 8, 20]",3,16,"[1, 4, 5, 7, 9, 10, 11, 12, 13, 14, 15, 21, 23, 24, 25, 27]",133.7093018,7070,944,1,9,7,1.0890794433668698
basic,4,44,0,0,0,9,"[0, 8, 20, 9]",4,7,"[4, 7, 11, 12, 14, 23, 24]",76.43801756,11967,4897,1,6,7,1.40892325509949
basic,4,44,0,0,0,4,"[0, 8, 20, 9, 4]",5,4,"[7, 12, 23, 24]",56.74030196,13015,1048,1,3,7,1.3849770570803555
basic,4,44,0,0,0,7,"[0, 8, 20, 9, 4, 7]",6,1,[23],25.72417712,14094,1079,1,0,7,1.3274380931474288
basic,4,44,0,0,1,23,"[0, 8, 20, 9, 4, 7, 23]",7,0,[],6.619203947,15942,1848,1,0,7,1.3395824779823196
basic,4,44,0,1,1,23,"[0, 8, 20, 9, 4, 7, 23]",7,0,[],6.619203947,17583,1641,1,0,7,1.3395824779823196
basic,5,31,0,0,0,0,[0],1,27,"[1, 3, 4, 5, 6, 7, 8, 10, 11, 12, 13, 14, 15, 16, 17, 18, 19, 20, 21, 22, 23, 24, 25, 26, 27, 28, 29]",300,116,-1,2,87,10,0.0
basic,5,31,0,0,0,14,"[0, 14]",2,25,"[1, 3, 5, 6, 7, 8, 10, 11, 12, 13, 15, 16, 17, 18, 19, 20, 21, 22, 23, 24, 25, 26, 27, 28, 29]",263.861378,2982,2866,2,59,10,1.0
basic,5,31,0,0,0,27,"[0, 14, 27]",3,22,"[1, 3, 5, 6, 7, 8, 10, 11, 12, 13, 15, 16, 17, 18, 19, 20, 21, 22, 24, 25, 28, 29]",235.6833724,3918,936,1,39,10,1.5881859159302467
basic,5,31,0,0,0,8,"[0, 14, 27, 8]",4,20,"[1, 3, 5, 6, 7, 10, 11, 12, 13, 16, 17, 18, 19, 20, 21, 22, 24, 25, 28, 29]",224.6380114,4486,568,1,36,10,2.1665048452331277
basic,5,31,0,0,0,18,"[0, 14, 27, 8, 18]",5,15,"[1, 5, 6, 7, 11, 12, 13, 16, 17, 19, 20, 22, 25, 28, 29]",188.7911147,6743,2257,1,26,10,1.7273375741920205
basic,5,31,0,0,0,17,"[0, 14, 27, 8, 18, 17]",6,13,"[1, 5, 6, 7, 11, 12, 13, 16, 19, 20, 22, 25, 28]",159.584951,9743,3000,1,13,10,1.551192427769927
basic,5,31,0,0,0,11,"[0, 14, 27, 8, 18, 17, 11]",7,7,"[5, 12, 16, 19, 22, 25, 28]",118.4753414,11911,2168,1,4,10,2.9650760544203494
basic,5,31,0,0,0,5,"[0, 14, 27, 8, 18, 17, 11, 5]",8,2,"[16, 28]",74.79468207,13887,1976,1,1,10,2.56711965625205
basic,5,31,0,0,0,28,"[0, 14, 27, 8, 18, 17, 11, 5, 28]",9,1,[16],54.57093365,14831,944,1,0,10,2.2865510762058148
basic,5,31,0,0,1,16,"[0, 14, 27, 8, 18, 17, 11, 5, 28, 16]",10,0,[],20.95546102,15951,1120,1,0,10,2.089356850786318
basic,5,31,0,1,1,16,"[0, 14, 27, 8, 18, 17, 11, 5, 28, 16]",10,0,[],20.95546102,19716,3765,1,0,10,2.089356850786318
basic,6,13,0,0,0,0,[0],1,29,"[1, 2, 3, 4, 5, 6, 7, 8, 9, 10, 11, 12, 13, 14, 15, 16, 17, 18, 19, 20, 21, 22, 23, 24, 25, 26, 27, 28, 29]",300,116,-1,60,2676,11,0.0
basic,6,13,0,0,0,24,"[0, 24]",2,28,"[1, 2, 3, 4, 5, 6, 7, 8, 9, 10, 11, 12, 13, 14, 15, 16, 17, 18, 19, 20, 21, 22, 23, 25, 26, 27, 28, 29]",288.8196601,4417,4301,16,1444,11,1.0
basic,6,13,0,0,0,28,"[0, 24, 28]",3,23,"[1, 2, 3, 4, 6, 7, 8, 9, 10, 11, 12, 13, 15, 16, 17, 19, 20, 21, 22, 23, 26, 27, 29]",222.5324064,6985,2568,8,243,11,1.0513810491680837
basic,6,13,0,0,0,2,"[0, 24, 28, 2]",4,19,"[1, 3, 4, 6, 7, 9, 11, 12, 13, 15, 16, 17, 19, 20, 21, 23, 26, 27, 29]",184.889346,8145,1160,7,110,11,1.050374132001543
basic,6,13,0,0,0,29,"[0, 24, 28, 2, 29]",5,18,"[1, 3, 4, 6, 7, 9, 11, 12, 13, 15, 16, 17, 19, 20, 21, 23, 26, 27]",173.1846461,9241,1096,7,85,11,1.1393409619120594
basic,6,13,0,0,0,7,"[0, 24, 28, 2, 29, 7]",6,17,"[1, 3, 4, 6, 9, 11, 12, 13, 15, 16, 17, 19, 20, 21, 23, 26, 27]",157.9203086,11361,2120,5,45,11,1.349777315111579
basic,6,13,0,0,0,26,"[0, 24, 28, 2, 29, 7, 26]",7,16,"[1, 3, 4, 6, 9, 11, 12, 13, 15, 16, 17, 19, 20, 21, 23, 27]",147.480002,12281,920,5,25,11,1.5942082773824946
basic,6,13,0,0,0,6,"[0, 24, 28, 2, 29, 7, 26, 6]",8,12,"[1, 3, 4, 11, 13, 15, 16, 17, 19, 20, 23, 27]",127.3802508,14121,1840,4,12,11,1.5898347940840756
basic,6,13,0,0,0,11,"[0, 24, 28, 2, 29, 7, 26, 6, 11]",9,6,"[1, 13, 15, 16, 17, 23]",108.2752776,15762,1641,3,4,11,1.5029953945561012
basic,6,13,0,0,0,13,"[0, 24, 28, 2, 29, 7, 26, 6, 11, 13]",10,2,"[15, 17]",52.19497806,19377,3615,2,0,11,1.3655915863754327
basic,6,13,0,0,1,17,"[0, 24, 28, 2, 29, 7, 26, 6, 11, 13, 17]",11,0,[],18.81833952,21505,2128,1,0,11,1.4149038511024103
basic,6,13,0,1,1,17,"[0, 24, 28, 2, 29, 7, 26, 6, 11, 13, 17]",11,0,[],18.81833952,23749,2244,1,0,11,1.4149038511024103
basic,7,33,0,0,0,0,[0],1,23,"[1, 2, 5, 7, 8, 11, 12, 13, 14, 15, 16, 17, 18, 19, 20, 21, 23, 24, 25, 26, 27, 28, 29]",300,115,-1,5,108,9,0.0
basic,7,33,0,0,0,8,"[0, 8]",2,22,"[1, 2, 5, 7, 11, 12, 13, 14, 15, 16, 17, 18, 19, 20, 21, 23, 24, 25, 26, 27, 28, 29]",265.8679037,2755,2640,5,87,9,1.0
basic,7,33,0,0,0,21,"[0, 8, 21]",3,16,"[2, 5, 7, 11, 13, 14, 16, 17, 18, 19, 20, 24, 26, 27, 28, 29]",166.0430571,4011,1256,5,80,9,1.0670557763739492
basic,7,33,0,0,0,13,"[0, 8, 21, 13]",4,12,"[2, 7, 11, 14, 16, 17, 18, 19, 20, 24, 26, 29]",139.6422995,5099,1088,4,54,9,1.0555103820910288
basic,7,33,0,0,0,19,"[0, 8, 21, 13, 19]",5,10,"[7, 11, 14, 16, 17, 18, 20, 24, 26, 29]",114.1472019,7075,1976,3,19,9,1.1090798607799486
basic,7,33,0,0,0,24,"[0, 8, 21, 13, 19, 24]",6,6,"[7, 14, 16, 18, 26, 29]",72.09960985,8331,1256,2,3,9,1.1193530461391534
basic,7,33,0,0,0,7,"[0, 8, 21, 13, 19, 24, 7]",7,2,"[14, 26]",42.89344611,9579,1248,2,0,9,1.2065014071663551
basic,7,33,0,0,0,14,"[0, 8, 21, 13, 19, 24, 7, 14]",8,1,[26],28.02737737,10483,904,1,0,9,1.2536495746979057
basic,7,33,0,0,1,26,"[0, 8, 21, 13, 19, 24, 7, 14, 26]",9,0,[],15.37826672,11491,1008,1,0,9,1.2580465331304596
basic,7,33,0,1,1,26,"[0, 8, 21, 13, 19, 24, 7, 14, 26]",9,0,[],15.37826672,13815,2324,1,0,9,1.2580465331304596
basic,8,15,0,0,0,0,[0],1,25,"[1, 2, 3, 4, 7, 8, 9, 10, 11, 12, 13, 14, 15, 16, 18, 20, 21, 22, 23, 24, 25, 26, 27, 28, 29]",300,116,-1,4,65,9,0.0
basic,8,15,0,0,0,21,"[0, 21]",2,17,"[1, 3, 4, 7, 8, 9, 11, 12, 13, 14, 15, 16, 22, 23, 24, 26, 27]",204.9158268,3690,3574,21,65,7,1.0
basic,8,15,0,0,0,12,"[0, 21, 12]",3,14,"[1, 3, 4, 7, 8, 9, 11, 13, 14, 15, 16, 22, 24, 27]",161.0866128,4970,1280,20,39,7,1.6068212046294776
basic,8,15,0,0,0,7,"[0, 21, 12, 7]",4,10,"[3, 4, 9, 11, 13, 14, 15, 16, 22, 27]",127.8450725,5946,976,13,11,7,2.0298522511797907
basic,8,15,0,0,0,16,"[0, 21, 12, 7, 16]",5,5,"[3, 4, 11, 15, 22]",84.18731258,6898,952,3,3,7,1.8904046427013528
basic,8,15,0,0,0,11,"[0, 21, 12, 7, 16, 11]",6,1,[3],58.16808892,7906,1008,1,0,7,1.9475991988988648
basic,8,15,0,0,1,3,"[0, 21, 12, 7, 16, 11, 3]",7,0,[],46.76633467,8586,680,1,0,7,1.912955285957019
basic,8,15,0,1,1,3,"[0, 21, 12, 7, 16, 11, 3]",7,0,[],46.76633467,12749,4163,1,0,7,1.912955285957019
basic,9,39,0,0,0,0,[0],1,28,"[1, 2, 3, 4, 5, 6, 7, 9, 10, 11, 12, 13, 14, 15, 16, 17, 18, 19, 20, 21, 22, 23, 24, 25, 26, 27, 28, 29]",300,115,-1,1,30,10,0.0
basic,9,39,0,0,0,29,"[0, 29]",2,26,"[1, 2, 3, 4, 5, 6, 7, 9, 10, 12, 13, 14, 15, 16, 17, 18, 19, 20, 21, 22, 23, 24, 25, 26, 27, 28]",243.0614366,3571,3456,8,104,9,1.0
basic,9,39,0,0,0,12,"[0, 29, 12]",3,18,"[1, 2, 4, 5, 7, 9, 10, 13, 14, 15, 16, 18, 19, 22, 23, 24, 26, 28]",182.5221931,4915,1344,5,54,9,1.0026200331524904
basic,9,39,0,0,0,10,"[0, 29, 12, 10]",4,16,"[1, 2, 4, 5, 7, 9, 13, 14, 15, 16, 18, 19, 22, 23, 24, 26]",147.0116313,6011,1096,5,34,9,1.2874817019928908
basic,9,39,0,0,0,7,"[0, 29, 12, 10, 7]",5,10,"[1, 2, 5, 13, 16, 18, 19, 22, 24, 26]",113.5900814,6827,816,4,12,9,1.2250826263866774
basic,9,39,0,0,0,26,"[0, 29, 12, 10, 7, 26]",6,5,"[1, 16, 18, 19, 22]",94.90853971,7579,752,3,4,9,1.2697275353190085
basic,9,39,0,0,0,22,"[0, 29, 12, 10, 7, 26, 22]",7,2,"[16, 19]",77.18849457,8363,784,2,0,9,1.438961743955176
basic,9,39,0,0,0,16,"[0, 29, 12, 10, 7, 26, 22, 16]",8,1,[19],42.18849457,9811,1448,1,0,9,1.3580882130477205
basic,9,39,0,0,1,19,"[0, 29, 12, 10, 7, 26, 22, 16, 19]",9,0,[],24.72424537,10643,832,1,0,9,1.3646589157842668
basic,9,39,0,1,1,19,"[0, 29, 12, 10, 7, 26, 22, 16, 19]",9,0,[],24.72424537,13099,2456,1,0,9,1.3646589157842668
basic,10,25,0,0,0,0,[0],1,28,"[1, 2, 3, 4, 5, 7, 8, 9, 10, 11, 12, 13, 14, 15, 16, 17, 18, 19, 20, 21, 22, 23, 24, 25, 26, 27, 28, 29]",300,116,-1,5,94,10,0.0
basic,10,25,0,0,0,23,"[0, 23]",2,23,"[1, 2, 3, 5, 7, 8, 9, 11, 12, 13, 14, 16, 17, 19, 20, 21, 22, 24, 25, 26, 27, 28, 29]",259.7756293,4031,3915,3,33,10,1.0
basic,10,25,0,0,0,19,"[0, 23, 19]",3,21,"[1, 2, 3, 5, 7, 8, 9, 11, 12, 13, 14, 16, 17, 20, 21, 22, 24, 25, 27, 28, 29]",223.9287326,5832,1801,3,24,10,1.583101227007039
basic,10,25,0,0,0,29,"[0, 23, 19, 29]",4,19,"[1, 2, 3, 5, 7, 8, 9, 11, 12, 13, 14, 16, 17, 20, 21, 22, 24, 25, 28]",207.649912,7416,1584,3,17,10,1.474631541426484
basic,10,25,0,0,0,22,"[0, 23, 19, 29, 22]",5,18,"[1, 2, 3, 5, 7, 8, 9, 11, 12, 13, 14, 16, 17, 20, 21, 24, 25, 28]",191.5253965,8224,808,3,14,10,1.4020377754906637
basic,10,25,0,0,0,7,"[0, 23, 19, 29, 22, 7]",6,7,"[3, 8, 9, 11, 13, 24, 28]",115.8814939,9448,1224,3,11,10,1.5709678649326715
basic,10,25,0,0,0,24,"[0, 23, 19, 29, 22, 7, 24]",7,5,"[3, 8, 9, 13, 28]",91.12265712,10392,944,3,7,10,1.486191600033379
basic,10,25,0,0,0,9,"[0, 23, 19, 29, 22, 7, 24, 9]",8,4,"[3, 8, 13, 28]",73.09490075,11232,840,3,3,10,1.453504870342882
basic,10,25,0,0,0,3,"[0, 23, 19, 29, 22, 7, 24, 9, 3]",9,3,"[8, 13, 28]",42.82940885,12912,1680,3,0,10,1.388955167525479
basic,10,25,0,0,1,28,"[0, 23, 19, 29, 22, 7, 24, 9, 3, 28]",10,0,[],11.52445716,14840,1928,1,0,10,1.3331084120212044
basic,10,25,0,1,1,28,"[0, 23, 19, 29, 22, 7, 24, 9, 3, 28]",10,0,[],11.52445716,18300,3460,1,0,10,1.3331084120212044
basic,11,8,0,0,0,0,[0],1,29,"[1, 2, 3, 4, 5, 6, 7, 8, 9, 10, 11, 12, 13, 14, 15, 16, 17, 18, 19, 20, 21, 22, 23, 24, 25, 26, 27, 28, 29]",300,116,-1,10,149,9,0.0
basic,11,8,0,0,0,5,"[0, 5]",2,28,"[1, 2, 3, 4, 6, 7, 8, 9, 10, 11, 12, 13, 14, 15, 16, 17, 18, 19, 20, 21, 22, 23, 24, 25, 26, 27, 28, 29]",254.5137383,7147,7031,10,100,9,1.0
basic,11,8,0,0,0,14,"[0, 5, 14]",3,20,"[1, 2, 3, 4, 6, 7, 11, 15, 16, 17, 18, 19, 20, 21, 22, 23, 24, 25, 28, 29]",214.5512559,11059,3912,4,36,9,1.0001019035932595
basic,11,8,0,0,0,17,"[0, 5, 14, 17]",4,15,"[1, 4, 6, 7, 11, 15, 16, 18, 19, 20, 22, 23, 24, 25, 28]",177.5377449,15395,4336,4,16,9,1.121197267659591
basic,11,8,0,0,0,11,"[0, 5, 14, 17, 11]",5,11,"[1, 4, 15, 16, 18, 19, 22, 23, 24, 25, 28]",152.3583883,16355,960,4,8,9,1.1277254166016362
basic,11,8,0,0,0,24,"[0, 5, 14, 17, 11, 24]",6,3,"[15, 16, 28]",115.1428001,17339,984,2,2,9,1.1227411011978805
basic,11,8,0,0,0,15,"[0, 5, 14, 17, 11, 24, 15]",7,2,"[16, 28]",98.37974552,18251,912,2,0,9,1.1956385406066814
basic,11,8,0,0,0,16,"[0, 5, 14, 17, 11, 24, 15, 16]",8,1,[28],47.30137436,19451,1200,1,0,9,1.36482239111247
basic,11,8,0,0,1,28,"[0, 5, 14, 17, 11, 24, 15, 16, 28]",9,0,[],24.94069458,20803,1352,1,0,9,1.632953105226947
basic,11,8,0,1,1,28,"[0, 5, 14, 17, 11, 24, 15, 16, 28]",9,0,[],24.94069458,22633,1830,1,0,9,1.632953105226947
basic,12,0,0,0,0,0,[0],1,27,"[2, 3, 4, 5, 6, 7, 8, 9, 10, 11, 12, 13, 14, 15, 16, 17, 19, 20, 21, 22, 23, 24, 25, 26, 27, 28, 29]",300,100,-1,104,1136,9,0.0
basic,12,0,0,0,0,20,"[0, 20]",2,25,"[2, 3, 4, 5, 6, 7, 8, 9, 11, 12, 13, 14, 15, 16, 17, 19, 21, 22, 23, 24, 25, 26, 27, 28, 29]",215.4955622,8264,8164,36,372,9,1.0
basic,12,0,0,0,0,28,"[0, 20, 28]",3,19,"[3, 4, 5, 7, 8, 9, 11, 12, 13, 14, 15, 16, 17, 19, 21, 23, 24, 26, 29]",156.2925218,10272,2008,3,83,9,1.3675886789005969
basic,12,0,0,0,0,5,"[0, 20, 28, 5]",4,12,"[3, 4, 7, 8, 9, 11, 12, 15, 17, 21, 24, 26]",112.6347619,11144,872,2,50,9,1.3829293532227536
basic,12,0,0,0,0,4,"[0, 20, 28, 5, 4]",5,10,"[3, 7, 8, 9, 11, 12, 15, 17, 24, 26]",87.55488947,11968,824,2,26,9,1.3571235497342058
basic,12,0,0,0,0,26,"[0, 20, 28, 5, 4, 26]",6,9,"[3, 7, 8, 9, 11, 12, 15, 17, 24]",75.51329489,12752,784,1,12,9,1.3895378207217857
basic,12,0,0,0,0,24,"[0, 20, 28, 5, 4, 26, 24]",7,6,"[7, 8, 9, 11, 12, 15]",58.39605212,13600,848,1,5,9,1.4481849062023913
basic,12,0,0,0,0,15,"[0, 20, 28, 5, 4, 26, 24, 15]",8,1,[7],35.05081706,14880,1280,1,0,9,1.4016317346800864
basic,12,0,0,0,1,7,"[0, 20, 28, 5, 4, 26, 24, 15, 7]",9,0,[],3.986367929,16976,2096,1,0,9,1.4439002223158441
basic,12,0,0,1,1,7,"[0, 20, 28, 5, 4, 26, 24, 15, 7]",9,0,[],3.986367929,18800,1824,1,0,9,1.4439002223158441
basic,13,16,0,0,0,0,[0],1,29,"[1, 2, 3, 4, 5, 6, 7, 8, 9, 10, 11, 12, 13, 14, 15, 16, 17, 18, 19, 20, 21, 22, 23, 24, 25, 26, 27, 28, 29]",300,116,-1,13,161,9,0.0
basic,13,16,0,0,0,28,"[0, 28]",2,27,"[1, 2, 3, 4, 5, 7, 8, 9, 10, 11, 12, 13, 14, 15, 16, 17, 18, 19, 20, 21, 22, 23, 24, 25, 26, 27, 29]",284.3475242,4247,4131,11,92,9,1.0
basic,13,16,0,0,0,21,"[0, 28, 21]",3,26,"[1, 2, 3, 4, 5, 7, 8, 9, 10, 11, 12, 13, 14, 15, 16, 17, 18, 19, 20, 22, 23, 24, 25, 26, 27, 29]",205.0380039,5750,1503,1,25,9,1.1196822789757879
basic,13,16,0,0,0,16,"[0, 28, 21, 16]",4,18,"[1, 2, 5, 8, 9, 11, 12, 14, 15, 17, 18, 19, 20, 22, 23, 25, 26, 27]",160.3837768,7367,1617,7,15,8,1.6894966276900831
basic,13,16,0,0,0,8,"[0, 28, 21, 16, 8]",5,7,"[5, 9, 12, 15, 17, 20, 25]",112.0102303,8358,991,7,4,8,1.5156030324451844
basic,13,16,0,0,0,20,"[0, 28, 21, 16, 8, 20]",6,2,"[9, 25]",54.23480301,9407,1049,2,0,8,1.3582334197052164
basic,13,16,0,0,0,25,"[0, 28, 21, 16, 8, 20, 25]",7,1,[9],41.58569237,9958,551,1,0,8,1.402500621742398
basic,13,16,0,0,1,9,"[0, 28, 21, 16, 8, 20, 25, 9]",8,0,[],28.77944389,10670,712,1,0,8,1.3764703786589931
basic,13,16,0,1,1,9,"[0, 28, 21, 16, 8, 20, 25, 9]",8,0,[],28.77944389,13382,2712,1,0,8,1.3764703786589931
basic,14,37,0,0,0,0,[0],1,29,"[1, 2, 3, 4, 5, 6, 7, 8, 9, 10, 11, 12, 13, 14, 15, 16, 17, 18, 19, 20, 21, 22, 23, 24, 25, 26, 27, 28, 29]",300,116,-1,6,168,10,0.0
basic,14,37,0,0,0,18,"[0, 18]",2,19,"[1, 2, 4, 6, 7, 9, 10, 12, 14, 15, 17, 19, 20, 21, 22, 23, 26, 28, 29]",202.4090168,5079,4963,6,89,10,1.0
basic,14,37,0,0,0,7,"[0, 18, 7]",3,12,"[1, 2, 4, 9, 15, 17, 19, 20, 21, 22, 26, 29]",175.2428614,7247,2168,6,53,10,1.0413073512834488
basic,14,37,0,0,0,22,"[0, 18, 7, 22]",4,8,"[1, 2, 4, 15, 19, 20, 21, 26]",125.2428614,9119,1872,6,29,10,1.0730792320325544
basic,14,37,0,0,0,4,"[0, 18, 7, 22, 4]",5,7,"[1, 2, 15, 19, 20, 21, 26]",100.2428614,10087,968,4,16,10,1.2290245562206235
basic,14,37,0,0,0,2,"[0, 18, 7, 22, 4, 2]",6,5,"[1, 15, 19, 20, 21]",88.84110714,11263,1176,4,7,10,1.3968113858365216
basic,14,37,0,0,0,1,"[0, 18, 7, 22, 4, 2, 1]",7,4,"[15, 19, 20, 21]",71.63645661,12247,984,4,3,10,1.4424239294761476
basic,14,37,0,0,0,20,"[0, 18, 7, 22, 4, 2, 1, 20]",8,3,"[15, 19, 21]",37.40197107,13207,960,2,1,10,1.7518607796010042
basic,14,37,0,0,0,21,"[0, 18, 7, 22, 4, 2, 1, 20, 21]",9,1,[15],22.97976597,14247,1040,1,0,10,1.7849997782949483
basic,14,37,0,0,1,15,"[0, 18, 7, 22, 4, 2, 1, 20, 21, 15]",10,0,[],7.979765971,15519,1272,1,0,10,1.7549597142828803
basic,14,37,0,1,1,15,"[0, 18, 7, 22, 4, 2, 1, 20, 21, 15]",10,0,[],7.979765971,18632,3113,1,0,10,1.7549597142828803
basic,15,38,0,0,0,0,[0],1,29,"[1, 2, 3, 4, 5, 6, 7, 8, 9, 10, 11, 12, 13, 14, 15, 16, 17, 18, 19, 20, 21, 22, 23, 24, 25, 26, 27, 28, 29]",300,116,-1,33,506,9,0.0
basic,15,38,0,0,0,19,"[0, 19]",2,23,"[3, 4, 5, 6, 7, 8, 9, 11, 13, 14, 15, 16, 17, 18, 20, 22, 23, 24, 25, 26, 27, 28, 29]",219.5015528,2709,2593,6,61,9,1.0
basic,15,38,0,0,0,17,"[0, 19, 17]",3,21,"[3, 4, 5, 6, 7, 9, 11, 13, 14, 15, 16, 18, 20, 22, 23, 24, 25, 26, 27, 28, 29]",198.1239945,3741,1032,6,53,9,1.571793785769489
basic,15,38,0,0,0,20,"[0, 19, 17, 20]",4,17,"[3, 4, 5, 6, 7, 11, 13, 14, 15, 16, 18, 22, 24, 25, 26, 27, 28]",174.3542658,4853,1112,6,44,9,2.333182710277297
basic,15,38,0,0,0,4,"[0, 19, 17, 20, 4]",5,10,"[5, 11, 13, 14, 15, 16, 24, 26, 27, 28]",140.4131403,5965,1112,5,22,9,2.276099229646013
basic,15,38,0,0,0,15,"[0, 19, 17, 20, 4, 15]",6,8,"[5, 11, 13, 14, 16, 24, 26, 28]",114.4131403,8173,2208,5,6,9,2.5292671156176403
basic,15,38,0,0,0,11,"[0, 19, 17, 20, 4, 15, 11]",7,2,"[16, 28]",78.01259089,9421,1248,2,0,9,2.778100109749787
basic,15,38,0,0,0,28,"[0, 19, 17, 20, 4, 15, 11, 28]",8,1,[16],50.99407872,12709,3288,1,0,9,2.3316428595723258
basic,15,38,0,0,1,16,"[0, 19, 17, 20, 4, 15, 11, 28, 16]",9,0,[],21.99407872,13885,1176,1,0,9,2.5408012360364265
basic,15,38,0,1,1,16,"[0, 19, 17, 20, 4, 15, 11, 28, 16]",9,0,[],21.99407872,15816,1931,1,0,9,2.5408012360364265
basic,16,27,0,0,0,0,[0],1,26,"[1, 3, 5, 6, 7, 8, 9, 10, 11, 12, 13, 14, 15, 16, 17, 18, 19, 21, 22, 23, 24, 25, 26, 27, 28, 29]",300,133,-1,13,578,11,0.0
basic,16,27,0,0,0,26,"[0, 26]",2,23,"[1, 5, 6, 7, 8, 9, 10, 11, 12, 13, 14, 15, 16, 17, 18, 19, 21, 22, 23, 24, 25, 27, 29]",275.8132268,5101,4968,7,249,11,1.0
basic,16,27,0,0,0,15,"[0, 26, 15]",3,18,"[1, 6, 7, 8, 10, 12, 13, 14, 16, 17, 18, 19, 21, 23, 24, 25, 27, 29]",216.0386502,6021,920,6,105,11,2.316230250316108
basic,16,27,0,0,0,24,"[0, 26, 15, 24]",4,14,"[1, 8, 10, 12, 13, 14, 16, 17, 18, 19, 23, 25, 27, 29]",198.8339997,7133,1112,6,63,11,2.140390406148825
basic,16,27,0,0,0,17,"[0, 26, 15, 24, 17]",5,11,"[1, 8, 10, 12, 13, 14, 18, 19, 23, 27, 29]",182.2810543,8005,872,4,33,11,1.897705569486853
basic,16,27,0,0,0,12,"[0, 26, 15, 24, 17, 12]",6,10,"[1, 8, 10, 13, 14, 18, 19, 23, 27, 29]",171.1007144,8733,728,2,17,11,1.994427587076918
basic,16,27,0,0,0,10,"[0, 26, 15, 24, 17, 12, 10]",7,9,"[1, 8, 13, 14, 18, 19, 23, 27, 29]",160.0553534,9773,1040,2,14,11,1.8554032921959762
basic,16,27,0,0,0,13,"[0, 26, 15, 24, 17, 12, 10, 13]",8,7,"[1, 8, 14, 19, 23, 27, 29]",120.2056357,10805,1032,2,8,11,1.8269483184790714
basic,16,27,0,0,0,19,"[0, 26, 15, 24, 17, 12, 10, 13, 19]",9,4,"[8, 14, 23, 29]",83.97029387,16013,5208,2,3,11,1.6617669702307691
basic,16,27,0,0,0,8,"[0, 26, 15, 24, 17, 12, 10, 13, 19, 8]",10,2,"[14, 29]",69.10422512,17133,1120,2,0,11,1.708465241811091
basic,16,27,0,0,1,29,"[0, 26, 15, 24, 17, 12, 10, 13, 19, 8, 29]",11,0,[],9.901184659,25205,8072,1,0,11,1.4940849125097164
basic,16,27,0,1,1,29,"[0, 26, 15, 24, 17, 12, 10, 13, 19, 8, 29]",11,0,[],9.901184659,27350,2145,1,0,11,1.4940849125097164
basic,17,2,0,0,0,0,[0],1,23,"[1, 2, 4, 5, 6, 7, 8, 9, 12, 13, 15, 16, 17, 18, 19, 20, 22, 23, 25, 26, 27, 28, 29]",300,115,-1,70,620,10,0.0
basic,17,2,0,0,0,19,"[0, 19]",2,22,"[1, 2, 4, 5, 6, 7, 8, 9, 12, 13, 15, 16, 17, 18, 20, 22, 23, 25, 26, 27, 28, 29]",210.306076,6397,6282,67,431,10,1.0
basic,17,2,0,0,0,12,"[0, 19, 12]",3,17,"[1, 4, 5, 6, 7, 13, 15, 16, 17, 18, 20, 22, 25, 26, 27, 28, 29]",174.2921898,8093,1696,66,298,10,1.1107635036313153
basic,17,2,0,0,0,5,"[0, 19, 12, 5]",4,11,"[1, 6, 7, 13, 15, 16, 18, 22, 25, 26, 29]",144.7625437,9901,1808,38,136,10,1.0968174771581647
basic,17,2,0,0,0,22,"[0, 19, 12, 5, 22]",5,8,"[1, 6, 7, 13, 15, 18, 26, 29]",131.9562952,10749,848,20,63,10,1.0889910507461968
basic,17,2,0,0,0,13,"[0, 19, 12, 5, 22, 13]",6,7,"[1, 6, 7, 15, 18, 26, 29]",117.0902265,11766,1017,19,20,10,1.236526217328057
basic,17,2,0,0,0,18,"[0, 19, 12, 5, 22, 13, 18]",7,4,"[7, 15, 26, 29]",81.91921567,12973,1207,10,3,10,1.2128708213409936
basic,17,2,0,0,0,7,"[0, 19, 12, 5, 22, 13, 18, 7]",8,3,"[15, 26, 29]",71.62358553,14366,1393,5,0,10,1.2019811287894737
basic,17,2,0,0,0,26,"[0, 19, 12, 5, 22, 13, 18, 7, 26]",9,2,"[15, 29]",48.82007703,15573,1207,2,0,10,1.1883593342191134
basic,17,2,0,0,1,15,"[0, 19, 12, 5, 22, 13, 18, 7, 26, 15]",10,0,[],24.61264015,16542,969,1,0,10,1.4619750353663825
basic,17,2,0,1,1,15,"[0, 19, 12, 5, 22, 13, 18, 7, 26, 15]",10,0,[],24.61264015,21798,5256,1,0,10,1.4619750353663825
basic,18,23,0,0,0,0,[0],1,28,"[1, 2, 3, 4, 5, 6, 7, 8, 9, 10, 11, 12, 13, 14, 15, 16, 17, 18, 19, 20, 21, 22, 23, 25, 26, 27, 28, 29]",300,116,-1,76,2626,10,0.0
basic,18,23,0,0,0,18,"[0, 18]",2,14,"[2, 5, 6, 7, 9, 10, 12, 13, 14, 19, 21, 22, 27, 29]",203.8958898,4206,4090,73,787,9,1.0
basic,18,23,0,0,0,27,"[0, 18, 27]",3,9,"[2, 6, 7, 9, 12, 13, 14, 22, 29]",128.5832083,5310,1104,51,277,9,1.1972268052690318
basic,18,23,0,0,0,6,"[0, 18, 27, 6]",4,8,"[2, 7, 9, 12, 13, 14, 22, 29]",100.2812649,6630,1320,43,68,9,1.3293035545030156
basic,18,23,0,0,0,2,"[0, 18, 27, 6, 2]",5,6,"[9, 12, 13, 14, 22, 29]",81.84217594,7550,920,16,17,9,1.5987085337271232
basic,18,23,0,0,0,12,"[0, 18, 27, 6, 2, 12]",6,5,"[9, 13, 14, 22, 29]",67.94973195,9086,1536,4,5,9,1.8929166061978238
basic,18,23,0,0,0,13,"[0, 18, 27, 6, 2, 12, 13]",7,3,"[9, 14, 22]",55.86668598,10525,1439,2,1,9,2.205763785795194
basic,18,23,0,0,0,9,"[0, 18, 27, 6, 2, 12, 13, 9]",8,1,[14],31.84586168,11749,1224,1,0,9,2.0524872333624122
basic,18,23,0,0,1,14,"[0, 18, 27, 6, 2, 12, 13, 9, 14]",9,0,[],21.40555517,13086,1337,1,0,9,1.9773893774704039
basic,18,23,0,1,1,14,"[0, 18, 27, 6, 2, 12, 13, 9, 14]",9,0,[],21.40555517,15365,2279,1,0,9,1.9773893774704039
basic,19,18,0,0,0,0,[0],1,28,"[1, 2, 3, 4, 5, 6, 7, 8, 9, 10, 11, 12, 13, 14, 16, 17, 18, 19, 20, 21, 22, 23, 24, 25, 26, 27, 28, 29]",300,149,-1,3,136,10,0.0
basic,19,18,0,0,0,28,"[0, 28]",2,16,"[1, 3, 5, 7, 8, 9, 12, 13, 14, 16, 20, 23, 24, 25, 26, 27]",236.4311397,2526,2377,2,19,10,1.0
basic,19,18,0,0,0,7,"[0, 28, 7]",3,15,"[1, 3, 5, 8, 9, 12, 13, 14, 16, 20, 23, 24, 25, 26, 27]",214.4084242,3670,1144,2,17,10,1.4345180696367563
basic,19,18,0,0,0,25,"[0, 28, 7, 25]",4,13,"[1, 3, 5, 8, 9, 12, 13, 14, 16, 20, 23, 26, 27]",186.6055466,4606,936,2,15,10,1.8896451241781882
basic,19,18,0,0,0,8,"[0, 28, 7, 25, 8]",5,10,"[3, 5, 9, 12, 13, 14, 16, 23, 26, 27]",149.551532,6775,2169,2,10,10,1.590467437592877
basic,19,18,0,0,0,13,"[0, 28, 7, 25, 8, 13]",6,9,"[3, 5, 9, 12, 14, 16, 23, 26, 27]",128.4565089,7854,1079,2,5,10,1.8248274983549797
basic,19,18,0,0,0,14,"[0, 28, 7, 25, 8, 13, 14]",7,7,"[3, 5, 9, 12, 23, 26, 27]",109.4828429,8606,752,2,3,10,1.6993534956692746
basic,19,18,0,0,0,3,"[0, 28, 7, 25, 8, 13, 14, 3]",8,3,"[5, 12, 27]",79.39962499,9391,785,2,1,10,1.802637206541468
basic,19,18,0,0,0,5,"[0, 28, 7, 25, 8, 13, 14, 3, 5]",9,1,[12],21.21887216,10638,1247,1,0,10,1.559774889743805
basic,19,18,0,0,1,12,"[0, 28, 7, 25, 8, 13, 14, 3, 5, 12]",10,0,[],9.817117911,11671,1033,1,0,10,1.563993037384447
basic,19,18,0,1,1,12,"[0, 28, 7, 25, 8, 13, 14, 3, 5, 12]",10,0,[],9.817117911,13516,1845,1,0,10,1.563993037384447
basic,20,7,0,0,0,0,[0],1,29,"[1, 2, 3, 4, 5, 6, 7, 8, 9, 10, 11, 12, 13, 14, 15, 16, 17, 18, 19, 20, 21, 22, 23, 24, 25, 26, 27, 28, 29]",300,133,-1,3,79,9,0.0
basic,20,7,0,0,0,15,"[0, 15]",2,19,"[2, 4, 5, 6, 7, 8, 9, 10, 13, 14, 16, 18, 19, 20, 21, 23, 25, 27, 28]",230.9348134,3610,3477,2,38,9,1.0
basic,20,7,0,0,0,6,"[0, 15, 6]",3,18,"[2, 4, 5, 7, 8, 9, 10, 13, 14, 16, 18, 19, 20, 21, 23, 25, 27, 28]",205.854941,5914,2304,2,36,9,1.366719602896943
basic,20,7,0,0,0,25,"[0, 15, 6, 25]",4,11,"[2, 4, 7, 13, 14, 16, 18, 19, 20, 21, 23]",138.6760753,8922,3008,2,28,9,1.3624631728355765
basic,20,7,0,0,0,4,"[0, 15, 6, 25, 4]",5,7,"[2, 7, 13, 16, 18, 19, 20]",113.9374415,10234,1312,2,12,9,1.3249684384385587
basic,20,7,0,0,0,20,"[0, 15, 6, 25, 4, 20]",6,5,"[2, 7, 13, 18, 19]",94.29055881,11586,1352,1,6,9,1.3721893242679268
basic,20,7,0,0,0,18,"[0, 15, 6, 25, 4, 20, 18]",7,3,"[7, 13, 19]",81.48431034,12322,736,1,2,9,1.5262542308371432
basic,20,7,0,0,0,7,"[0, 15, 6, 25, 4, 20, 18, 7]",8,1,[19],40.25325408,13450,1128,1,0,9,1.41986878673423
basic,20,7,0,0,1,19,"[0, 15, 6, 25, 4, 20, 18, 7, 19]",9,0,[],10.84237174,14474,1024,1,0,9,1.5285658163212987
basic,20,7,0,1,1,19,"[0, 15, 6, 25, 4, 20, 18, 7, 19]",9,0,[],10.84237174,16249,1775,1,0,9,1.5285658163212987
basic,21,1,0,0,0,0,[0],1,26,"[1, 2, 4, 5, 7, 8, 9, 10, 11, 12, 13, 14, 15, 16, 17, 18, 19, 20, 21, 22, 23, 24, 25, 26, 28, 29]",300,116,-1,6,74,7,0.0
basic,21,1,0,0,0,14,"[0, 14]",2,19,"[1, 4, 5, 8, 9, 13, 15, 17, 18, 19, 20, 21, 22, 23, 24, 25, 26, 28, 29]",200.1901808,4143,4027,5,42,7,1.0
basic,21,1,0,0,0,17,"[0, 14, 17]",3,15,"[1, 4, 5, 8, 9, 13, 15, 18, 19, 20, 22, 23, 25, 28, 29]",147.8356204,5287,1144,5,27,7,1.0028844724416826
basic,21,1,0,0,0,1,"[0, 14, 17, 1]",4,12,"[4, 5, 8, 9, 15, 18, 20, 22, 23, 25, 28, 29]",123.4840291,6119,832,5,15,7,1.0264985578353567
basic,21,1,0,0,0,28,"[0, 14, 17, 1, 28]",5,5,"[9, 15, 22, 23, 29]",88.59850198,7239,1120,5,3,7,1.0339861575999345
basic,21,1,0,0,0,23,"[0, 14, 17, 1, 28, 23]",6,2,"[15, 22]",51.70676849,8359,1120,2,0,7,1.0327458250705703
basic,21,1,0,0,1,15,"[0, 14, 17, 1, 28, 23, 15]",7,0,[],20.81987807,9687,1328,1,0,7,1.1948681641401226
basic,21,1,0,1,1,15,"[0, 14, 17, 1, 28, 23, 15]",7,0,[],20.81987807,11816,2129,1,0,7,1.1948681641401226
basic,22,3,0,0,0,0,[0],1,29,"[1, 2, 3, 4, 5, 6, 7, 8, 9, 10, 11, 12, 13, 14, 15, 16, 17, 18, 19, 20, 21, 22, 23, 24, 25, 26, 27, 28, 29]",300,116,-1,34,427,10,0.0
basic,22,3,0,0,0,8,"[0, 8]",2,28,"[1, 2, 3, 4, 5, 6, 7, 9, 10, 11, 12, 13, 14, 15, 16, 17, 18, 19, 20, 21, 22, 23, 24, 25, 26, 27, 28, 29]",239.9666759,3406,3290,1,54,10,1.0
basic,22,3,0,0,0,24,"[0, 8, 24]",3,23,"[1, 2, 3, 4, 5, 6, 7, 10, 11, 12, 14, 15, 16, 17, 18, 19, 20, 21, 22, 25, 26, 27, 28]",227.8011509,3982,576,1,50,10,1.2267083825981846
basic,22,3,0,0,0,4,"[0, 8, 24, 4]",4,15,"[3, 5, 6, 7, 10, 14, 15, 16, 17, 18, 19, 20, 21, 22, 28]",165.6239846,5926,1944,2,24,9,1.1727066717264518
basic,22,3,0,0,0,10,"[0, 8, 24, 4, 10]",5,5,"[3, 14, 19, 20, 21]",111.8001981,6991,1065,8,5,8,1.1952386319116792
basic,22,3,0,0,0,14,"[0, 8, 24, 4, 10, 14]",6,4,"[3, 19, 20, 21]",66.34692536,8214,1223,4,1,8,1.8154144175141291
basic,22,3,0,0,0,21,"[0, 8, 24, 4, 10, 14, 21]",7,1,[19],39.43967727,9190,976,1,0,8,1.694488494324293
basic,22,3,0,0,1,19,"[0, 8, 24, 4, 10, 14, 21, 19]",8,0,[],27.23312165,9710,520,1,0,8,1.8482584303061083
basic,22,3,0,1,1,19,"[0, 8, 24, 4, 10, 14, 21, 19]",8,0,[],27.23312165,13150,3440,1,0,8,1.8482584303061083
undo,23,44,0,0,0,0,[0],1,29,"[1, 2, 3, 4, 5, 6, 7, 8, 9, 10, 11, 12, 13, 14, 15, 16, 17, 18, 19, 20, 21, 22, 23, 24, 25, 26, 27, 28, 29]",300,133,-1,13,126,7,0.0
undo,23,44,0,0,0,8,"[0, 8]",2,17,"[1, 4, 5, 7, 9, 10, 11, 12, 13, 14, 15, 20, 21, 23, 24, 25, 27]",145.7923478,4502,4369,1,10,7,1.0
undo,23,44,0,0,0,20,"[0, 8, 20]",3,16,"[1, 4, 5, 7, 9, 10, 11, 12, 13, 14, 15, 21, 23, 24, 25, 27]",133.7093018,5591,1089,1,9,7,1.0890794433668698
undo,23,44,0,0,0,9,"[0, 8, 20, 9]",4,7,"[4, 7, 11, 12, 14, 23, 24]",76.43801756,7374,1783,1,6,7,1.40892325509949
undo,23,44,0,0,0,4,"[0, 8, 20, 9, 4]",5,4,"[7, 12, 23, 24]",56.74030196,8038,664,1,3,7,1.3849770570803555
undo,23,44,0,0,0,7,"[0, 8, 20, 9, 4, 7]",6,1,[23],25.72417712,8799,761,1,0,7,1.3274380931474288
undo,23,44,0,0,1,23,"[0, 8, 20, 9, 4, 7, 23]",7,0,[],6.619203947,10007,1208,1,0,7,1.3395824779823196
undo,23,44,1,0,0,7,"[0, 8, 20, 9, 4, 7]",6,1,[23],25.72417712,11999,1992,1,0,7,1.3274380931474288
undo,23,44,1,0,0,4,"[0, 8, 20, 9, 4]",5,4,"[7, 12, 23, 24]",56.74030196,12483,484,1,3,7,1.3849770570803555
undo,23,44,1,0,0,9,"[0, 8, 20, 9]",4,7,"[4, 7, 11, 12, 14, 23, 24]",76.43801756,13383,900,1,6,7,1.40892325509949
undo,23,44,1,0,0,20,"[0, 8, 20]",3,16,"[1, 4, 5, 7, 9, 10, 11, 12, 13, 14, 15, 21, 23, 24, 25, 27]",133.7093018,13783,400,1,9,7,1.0890794433668698
undo,23,44,0,0,0,9,"[0, 8, 20, 9]",4,7,"[4, 7, 11, 12, 14, 23, 24]",76.43801756,23207,9424,1,6,7,1.40892325509949
undo,23,44,0,0,0,4,"[0, 8, 20, 9, 4]",5,4,"[7, 12, 23, 24]",56.74030196,24015,808,1,3,7,1.3849770570803555
undo,23,44,0,0,0,7,"[0, 8, 20, 9, 4, 7]",6,1,[23],25.72417712,24943,928,1,0,7,1.3274380931474288
undo,23,44,0,0,1,23,"[0, 8, 20, 9, 4, 7, 23]",7,0,[],6.619203947,26191,1248,1,0,7,1.3395824779823196
undo,23,44,0,1,1,23,"[0, 8, 20, 9, 4, 7, 23]",7,0,[],6.619203947,28466,2275,1,0,7,1.3395824779823196
undo,24,39,0,0,0,0,[0],1,28,"[1, 2, 3, 4, 5, 6, 7, 9, 10, 11, 12, 13, 14, 15, 16, 17, 18, 19, 20, 21, 22, 23, 24, 25, 26, 27, 28, 29]",300,115,-1,1,30,10,0.0
undo,24,39,0,0,0,14,"[0, 14]",2,26,"[1, 2, 3, 4, 5, 6, 7, 9, 10, 12, 13, 15, 16, 17, 18, 19, 20, 21, 22, 23, 24, 25, 26, 27, 28, 29]",286.9615952,4035,3920,1,22,10,1.0
undo,24,39,0,0,0,29,"[0, 14, 29]",3,23,"[1, 2, 3, 4, 5, 6, 7, 9, 10, 12, 13, 15, 16, 17, 18, 19, 21, 22, 23, 24, 25, 26, 28]",218.9321898,5467,1432,1,21,10,1.4237768813412561
undo,24,39,0,0,0,12,"[0, 14, 29, 12]",4,16,"[1, 2, 4, 5, 7, 9, 10, 13, 15, 16, 18, 19, 22, 23, 24, 26]",158.3929463,6723,1256,1,11,10,1.2085522586932163
undo,24,39,0,0,0,10,"[0, 14, 29, 12, 10]",5,11,"[1, 4, 5, 7, 15, 16, 18, 19, 22, 23, 26]",122.8823845,7715,992,1,8,10,1.4905426536315662
undo,24,39,0,0,0,7,"[0, 14, 29, 12, 10, 7]",6,6,"[1, 16, 18, 19, 22, 26]",89.46083457,8867,1152,1,6,10,1.3836596018032035
undo,24,39,0,0,0,26,"[0, 14, 29, 12, 10, 7, 26]",7,3,"[16, 19, 22]",70.77929288,10715,1848,1,4,10,1.4191124441944845
undo,24,39,0,0,0,22,"[0, 14, 29, 12, 10, 7, 26, 22]",8,2,"[16, 19]",53.05924773,11643,928,1,1,10,1.594793297833885
undo,24,39,0,0,0,16,"[0, 14, 29, 12, 10, 7, 26, 22, 16]",9,1,[19],18.05924773,12955,1312,1,0,10,1.48519520801471
undo,24,39,0,0,1,19,"[0, 14, 29, 12, 10, 7, 26, 22, 16, 19]",10,0,[],0.594998533,14747,1792,1,0,10,1.484277847976571
undo,24,39,0,1,1,19,"[0, 14, 29, 12, 10, 7, 26, 22, 16, 19]",10,0,[],0.594998533,17482,2735,1,0,10,1.484277847976571
undo,25,16,0,0,0,0,[0],1,29,"[1, 2, 3, 4, 5, 6, 7, 8, 9, 10, 11, 12, 13, 14, 15, 16, 17, 18, 19, 20, 21, 22, 23, 24, 25, 26, 27, 28, 29]",300,116,-1,13,161,9,0.0
undo,25,16,0,0,0,17,"[0, 17]",2,27,"[1, 2, 3, 4, 5, 7, 8, 9, 10, 11, 12, 13, 14, 15, 16, 18, 19, 20, 21, 22, 23, 24, 25, 26, 27, 28, 29]",241.3058776,3511,3395,2,58,9,1.0
undo,25,16,0,0,0,16,"[0, 17, 16]",3,26,"[1, 2, 3, 4, 5, 7, 8, 9, 10, 11, 12, 13, 14, 15, 18, 19, 20, 21, 22, 23, 24, 25, 26, 27, 28, 29]",212.9862731,4623,1112,2,52,9,1.0529535521792848
undo,25,16,0,0,0,21,"[0, 17, 16, 21]",4,19,"[3, 5, 7, 8, 9, 10, 12, 14, 15, 19, 20, 22, 23, 24, 25, 26, 27, 28, 29]",168.332046,5535,912,9,18,8,1.5524765786046826
undo,25,16,0,0,0,8,"[0, 17, 16, 21, 8]",5,7,"[3, 5, 9, 12, 15, 20, 25]",119.0776046,6463,928,9,6,8,1.458624751458944
undo,25,16,0,0,0,20,"[0, 17, 16, 21, 8, 20]",6,3,"[9, 15, 25]",61.30217727,7576,1113,4,1,8,1.3191752290945782
undo,25,16,0,0,0,25,"[0, 17, 16, 21, 8, 20, 25]",7,2,"[9, 15]",48.65306663,8528,952,2,0,8,1.3641436248537882
undo,25,16,0,0,1,9,"[0, 17, 16, 21, 8, 20, 25, 9]",8,0,[],35.84681815,9376,848,1,0,8,1.3406027753205443
undo,25,16,0,1,1,9,"[0, 17, 16, 21, 8, 20, 25, 9]",8,0,[],35.84681815,15316,5940,1,0,8,1.3406027753205443
undo,26,30,0,0,0,0,[0],1,19,"[3, 4, 5, 7, 9, 11, 16, 17, 18, 19, 20, 21, 22, 24, 25, 26, 27, 28, 29]",300,116,-1,5,41,8,0.0
undo,26,30,0,0,0,16,"[0, 16]",2,17,"[3, 5, 7, 9, 11, 17, 18, 19, 20, 21, 22, 24, 25, 26, 27, 28, 29]",219.3774225,6275,6159,5,34,8,1.0
undo,26,30,0,0,0,9,"[0, 16, 9]",3,7,"[3, 11, 19, 20, 25, 27, 29]",96.94785093,7627,1352,3,5,5,1.0000627662769588
undo,26,30,0,0,0,20,"[0, 16, 9, 20]",4,2,"[25, 27]",47.01789999,8955,1328,2,0,5,1.2643732555565939
undo,26,30,0,0,1,25,"[0, 16, 9, 20, 25]",5,0,[],25.0861878,10147,1192,1,0,5,1.536694880483744
undo,26,30,1,0,0,20,"[0, 16, 9, 20]",4,2,"[25, 27]",47.01789999,13466,3319,2,0,5,1.2643732555565939
undo,26,30,1,0,0,9,"[0, 16, 9]",3,7,"[3, 11, 19, 20, 25, 27, 29]",96.94785093,13899,433,3,5,5,1.0000627662769588
undo,26,30,1,0,0,16,"[0, 16]",2,17,"[3, 5, 7, 9, 11, 17, 18, 19, 20, 21, 22, 24, 25, 26, 27, 28, 29]",219.3774225,14699,800,5,34,8,1.0
undo,26,30,0,0,0,26,"[0, 16, 26]",3,8,"[9, 11, 17, 20, 22, 25, 27, 28]",176.927452,17635,2936,7,3,5,1.3420329969668985
undo,26,30,0,0,0,17,"[0, 16, 26, 17]",4,1,[22],74.96177146,19115,1480,1,0,5,1.193219858893313
undo,26,30,0,0,1,22,"[0, 16, 26, 17, 22]",5,0,[],55.7263874,20059,944,1,0,5,1.223925680162388
undo,26,30,1,0,0,17,"[0, 16, 26, 17]",4,1,[22],74.96177146,23566,3507,1,0,5,1.193219858893313
undo,26,30,1,0,0,26,"[0, 16, 26]",3,8,"[9, 11, 17, 20, 22, 25, 27, 28]",176.927452,23833,267,7,3,5,1.3420329969668985
undo,26,30,0,0,0,11,"[0, 16, 26, 11]",4,2,"[9, 22]",85.70793651,29891,6058,2,0,5,1.2025792475959363
undo,26,30,0,0,1,9,"[0, 16, 26, 11, 9]",5,0,[],29.1924519,31243,1352,1,0,5,1.3337684280711692
undo,26,30,0,1,1,9,"[0, 16, 26, 11, 9]",5,0,[],29.1924519,34033,2790,1,0,5,1.3337684280711692
undo,27,25,0,0,0,0,[0],1,28,"[1, 2, 3, 4, 5, 7, 8, 9, 10, 11, 12, 13, 14, 15, 16, 17, 18, 19, 20, 21, 22, 23, 24, 25, 26, 27, 28, 29]",300,116,-1,5,94,10,0.0
undo,27,25,0,0,0,23,"[0, 23]",2,23,"[1, 2, 3, 5, 7, 8, 9, 11, 12, 13, 14, 16, 17, 19, 20, 21, 22, 24, 25, 26, 27, 28, 29]",259.7756293,6682,6566,3,33,10,1.0
undo,27,25,0,0,0,19,"[0, 23, 19]",3,21,"[1, 2, 3, 5, 7, 8, 9, 11, 12, 13, 14, 16, 17, 20, 21, 22, 24, 25, 27, 28, 29]",223.9287326,7770,1088,3,24,10,1.583101227007039
undo,27,25,0,0,0,29,"[0, 23, 19, 29]",4,19,"[1, 2, 3, 5, 7, 8, 9, 11, 12, 13, 14, 16, 17, 20, 21, 22, 24, 25, 28]",207.649912,8586,816,3,17,10,1.474631541426484
undo,27,25,0,0,0,22,"[0, 23, 19, 29, 22]",5,18,"[1, 2, 3, 5, 7, 8, 9, 11, 12, 13, 14, 16, 17, 20, 21, 24, 25, 28]",191.5253965,9218,632,3,14,10,1.4020377754906637
undo,27,25,0,0,0,7,"[0, 23, 19, 29, 22, 7]",6,7,"[3, 8, 9, 11, 13, 24, 28]",115.8814939,10562,1344,3,11,10,1.5709678649326715
undo,27,25,0,0,0,24,"[0, 23, 19, 29, 22, 7, 24]",7,5,"[3, 8, 9, 13, 28]",91.12265712,11346,784,3,7,10,1.486191600033379
undo,27,25,0,0,0,9,"[0, 23, 19, 29, 22, 7, 24, 9]",8,4,"[3, 8, 13, 28]",73.09490075,12194,848,3,3,10,1.453504870342882
undo,27,25,0,0,0,3,"[0, 23, 19, 29, 22, 7, 24, 9, 3]",9,3,"[8, 13, 28]",42.82940885,13514,1320,3,0,10,1.388955167525479
undo,27,25,0,0,1,28,"[0, 23, 19, 29, 22, 7, 24, 9, 3, 28]",10,0,[],11.52445716,14426,912,1,0,10,1.3331084120212044
undo,27,25,0,1,1,28,"[0, 23, 19, 29, 22, 7, 24, 9, 3, 28]",10,0,[],11.52445716,16583,2157,1,0,10,1.3331084120212044
undo,28,6,0,0,0,0,[0],1,29,"[1, 2, 3, 4, 5, 6, 7, 8, 9, 10, 11, 12, 13, 14, 15, 16, 17, 18, 19, 20, 21, 22, 23, 24, 25, 26, 27, 28, 29]",300,116,-1,180,4304,10,0.0
undo,28,6,0,0,0,3,"[0, 3]",2,28,"[1, 2, 4, 5, 6, 7, 8, 9, 10, 11, 12, 13, 14, 15, 16, 17, 18, 19, 20, 21, 22, 23, 24, 25, 26, 27, 28, 29]",266.4738908,8818,8702,90,1607,10,1.0
undo,28,6,0,0,0,24,"[0, 3, 24]",3,24,"[1, 2, 4, 5, 6, 7, 8, 10, 11, 13, 14, 16, 17, 18, 19, 20, 21, 22, 23, 25, 26, 27, 28, 29]",202.520783,10826,2008,6,84,10,1.001910163116413
undo,28,6,0,0,0,10,"[0, 3, 24, 10]",4,20,"[1, 2, 4, 5, 6, 7, 8, 11, 13, 14, 16, 17, 18, 20, 21, 22, 23, 26, 27, 29]",189.1043751,11442,616,6,66,10,1.314793299348402
undo,28,6,0,0,0,17,"[0, 3, 24, 10, 17]",5,19,"[1, 2, 4, 5, 6, 7, 8, 11, 13, 14, 16, 18, 20, 21, 22, 23, 26, 27, 29]",169.3812922,12346,904,6,45,10,1.8507472474352449
undo,28,6,0,0,0,18,"[0, 3, 24, 10, 17, 18]",6,15,"[1, 2, 6, 7, 8, 13, 14, 16, 20, 21, 22, 23, 26, 27, 29]",155.4529039,12970,624,5,31,10,2.373454740786756
undo,28,6,0,0,0,16,"[0, 3, 24, 10, 17, 18, 16]",7,13,"[1, 2, 6, 7, 13, 14, 20, 21, 22, 23, 26, 27, 29]",132.1076688,14034,1064,5,19,10,2.3260122505247613
undo,28,6,0,0,0,29,"[0, 3, 24, 10, 17, 18, 16, 29]",8,6,"[6, 14, 21, 22, 23, 27]",95.41979617,15122,1088,5,4,10,1.920792706835084
undo,28,6,0,0,0,23,"[0, 3, 24, 10, 17, 18, 16, 29, 23]",9,2,"[6, 22]",47.90137869,16498,1376,2,0,10,1.8785104449401346
undo,28,6,0,0,1,22,"[0, 3, 24, 10, 17, 18, 16, 29, 23, 22]",10,0,[],6.901378687,19330,2832,1,0,10,1.8823599819078707
undo,28,6,0,1,1,22,"[0, 3, 24, 10, 17, 18, 16, 29, 23, 22]",10,0,[],6.901378687,23383,4053,1,0,10,1.8823599819078707
undo,29,22,0,0,0,0,[0],1,29,"[1, 2, 3, 4, 5, 6, 7, 8, 9, 10, 11, 12, 13, 14, 15, 16, 17, 18, 19, 20, 21, 22, 23, 24, 25, 26, 27, 28, 29]",300,115,-1,31,704,9,0.0
undo,29,22,0,0,0,16,"[0, 16]",2,21,"[1, 3, 6, 7, 8, 9, 11, 13, 14, 15, 17, 18, 19, 20, 21, 22, 24, 25, 27, 28, 29]",218.605897,2457,2342,17,147,9,1.0
undo,29,22,0,0,0,28,"[0, 16, 28]",3,13,"[6, 7, 9, 13, 14, 17, 19, 20, 21, 22, 24, 25, 29]",184.1675463,3426,969,12,61,9,1.047282311284478
undo,29,22,0,0,0,6,"[0, 16, 28, 6]",4,12,"[7, 9, 13, 14, 17, 19, 20, 21, 22, 24, 25, 29]",154.1675463,4434,1008,12,43,9,1.645645870580622
undo,29,22,0,0,0,9,"[0, 16, 28, 6, 9]",5,8,"[7, 14, 17, 19, 20, 21, 24, 29]",127.5404924,5346,912,8,17,9,1.925750226630103
undo,29,22,0,0,0,19,"[0, 16, 28, 6, 9, 19]",6,6,"[7, 14, 17, 21, 24, 29]",107.1444143,6162,816,3,7,9,2.4220750331476455
undo,29,22,0,0,0,29,"[0, 16, 28, 6, 9, 19, 29]",7,4,"[7, 14, 17, 24]",92.11111796,6890,728,2,2,9,2.6996279574991067
undo,29,22,0,0,0,7,"[0, 16, 28, 6, 9, 19, 29, 7]",8,1,[14],41.0327468,11202,4312,1,0,9,2.059125386946491
undo,29,22,0,0,1,14,"[0, 16, 28, 6, 9, 19, 29, 7, 14]",9,0,[],27.99434199,11866,664,1,0,9,2.0997569104205307
undo,29,22,0,1,1,14,"[0, 16, 28, 6, 9, 19, 29, 7, 14]",9,0,[],27.99434199,14349,2483,1,0,9,2.0997569104205307
undo,30,14,0,0,0,0,[0],1,29,"[1, 2, 3, 4, 5, 6, 7, 8, 9, 10, 11, 12, 13, 14, 15, 16, 17, 18, 19, 20, 21, 22, 23, 24, 25, 26, 27, 28, 29]",300,116,-1,8,157,10,0.0
undo,30,14,0,0,0,15,"[0, 15]",2,20,"[1, 2, 3, 4, 7, 8, 9, 13, 17, 18, 19, 20, 21, 22, 23, 25, 26, 27, 28, 29]",216.7053423,4300,4184,8,102,10,1.0
undo,30,14,0,0,0,28,"[0, 15, 28]",3,17,"[1, 2, 3, 4, 7, 8, 9, 13, 17, 18, 19, 20, 22, 23, 25, 26, 27]",197.4959696,6252,1952,8,48,10,1.0446007867311968
undo,30,14,0,0,0,17,"[0, 15, 28, 17]",4,14,"[1, 2, 3, 4, 7, 8, 13, 18, 19, 20, 22, 23, 25, 26]",184.0423455,6980,728,8,39,10,1.0729463354689972
undo,30,14,0,0,0,18,"[0, 15, 28, 17, 18]",5,9,"[1, 2, 4, 7, 8, 19, 23, 25, 26]",119.412631,8388,1408,8,27,10,1.5035901079219378
undo,30,14,0,0,0,8,"[0, 15, 28, 17, 18, 8]",6,8,"[1, 2, 4, 7, 19, 23, 25, 26]",105.8111605,9652,1264,8,18,10,1.4819689987843856
undo,30,14,0,0,0,1,"[0, 15, 28, 17, 18, 8, 1]",7,5,"[7, 19, 23, 25, 26]",82.21031307,10796,1144,4,6,10,1.4084991998385268
undo,30,14,0,0,0,19,"[0, 15, 28, 17, 18, 8, 1, 19]",8,4,"[7, 23, 25, 26]",66.97876686,12028,1232,4,1,10,1.5758713333797987
undo,30,14,0,0,0,25,"[0, 15, 28, 17, 18, 8, 1, 19, 25]",9,2,"[7, 23]",31.1318702,15452,3424,2,0,10,1.6426186864061416
undo,30,14,0,0,1,23,"[0, 15, 28, 17, 18, 8, 1, 19, 25, 23]",10,0,[],1.72098786,16684,1232,1,0,10,1.586837442491671
undo,30,14,0,1,1,23,"[0, 15, 28, 17, 18, 8, 1, 19, 25, 23]",10,0,[],1.72098786,19400,2716,1,0,10,1.586837442491671
undo,31,13,0,0,0,0,[0],1,29,"[1, 2, 3, 4, 5, 6, 7, 8, 9, 10, 11, 12, 13, 14, 15, 16, 17, 18, 19, 20, 21, 22, 23, 24, 25, 26, 27, 28, 29]",300,116,-1,60,2676,11,0.0
undo,31,13,0,0,0,24,"[0, 24]",2,28,"[1, 2, 3, 4, 5, 6, 7, 8, 9, 10, 11, 12, 13, 14, 15, 16, 17, 18, 19, 20, 21, 22, 23, 25, 26, 27, 28, 29]",288.8196601,2563,2447,16,1444,11,1.0
undo,31,13,0,0,0,28,"[0, 24, 28]",3,23,"[1, 2, 3, 4, 6, 7, 8, 9, 10, 11, 12, 13, 15, 16, 17, 19, 20, 21, 22, 23, 26, 27, 29]",222.5324064,4443,1880,8,243,11,1.0513810491680837
undo,31,13,0,0,0,2,"[0, 24, 28, 2]",4,19,"[1, 3, 4, 6, 7, 9, 11, 12, 13, 15, 16, 17, 19, 20, 21, 23, 26, 27, 29]",184.889346,5547,1104,7,110,11,1.050374132001543
undo,31,13,0,0,0,29,"[0, 24, 28, 2, 29]",5,18,"[1, 3, 4, 6, 7, 9, 11, 12, 13, 15, 16, 17, 19, 20, 21, 23, 26, 27]",173.1846461,6396,849,7,85,11,1.1393409619120594
undo,31,13,0,0,0,7,"[0, 24, 28, 2, 29, 7]",6,17,"[1, 3, 4, 6, 9, 11, 12, 13, 15, 16, 17, 19, 20, 21, 23, 26, 27]",157.9203086,7115,719,5,45,11,1.349777315111579
undo,31,13,0,0,0,26,"[0, 24, 28, 2, 29, 7, 26]",7,16,"[1, 3, 4, 6, 9, 11, 12, 13, 15, 16, 17, 19, 20, 21, 23, 27]",147.480002,7779,664,5,25,11,1.5942082773824946
undo,31,13,0,0,0,6,"[0, 24, 28, 2, 29, 7, 26, 6]",8,12,"[1, 3, 4, 11, 13, 15, 16, 17, 19, 20, 23, 27]",127.3802508,8763,984,4,12,11,1.5898347940840756
undo,31,13,0,0,0,11,"[0, 24, 28, 2, 29, 7, 26, 6, 11]",9,6,"[1, 13, 15, 16, 17, 23]",108.2752776,9531,768,3,4,11,1.5029953945561012
undo,31,13,0,0,0,17,"[0, 24, 28, 2, 29, 7, 26, 6, 11, 17]",10,1,[13],36.68617231,12267,2736,1,0,11,1.324993060397683
undo,31,13,0,0,1,13,"[0, 24, 28, 2, 29, 7, 26, 6, 11, 17, 13]",11,0,[],3.309533775,13972,1705,1,0,11,1.6349870606446535
undo,31,13,1,0,0,17,"[0, 24, 28, 2, 29, 7, 26, 6, 11, 17]",10,1,[13],36.68617231,23733,9761,1,0,11,1.324993060397683
undo,31,13,1,0,0,11,"[0, 24, 28, 2, 29, 7, 26, 6, 11]",9,6,"[1, 13, 15, 16, 17, 23]",108.2752776,24049,316,3,4,11,1.5029953945561012
undo,31,13,1,0,0,6,"[0, 24, 28, 2, 29, 7, 26, 6]",8,12,"[1, 3, 4, 11, 13, 15, 16, 17, 19, 20, 23, 27]",127.3802508,24500,451,4,12,11,1.5898347940840756
undo,31,13,1,0,0,26,"[0, 24, 28, 2, 29, 7, 26]",7,16,"[1, 3, 4, 6, 9, 11, 12, 13, 15, 16, 17, 19, 20, 21, 23, 27]",147.480002,28000,3500,5,25,11,1.5942082773824946
undo,31,13,0,0,0,23,"[0, 24, 28, 2, 29, 7, 26, 23]",8,7,"[3, 6, 9, 11, 16, 20, 21]",87.94009946,30132,2132,1,3,11,3.752244221680436
undo,31,13,0,0,0,16,"[0, 24, 28, 2, 29, 7, 26, 23, 16]",9,2,"[3, 20]",47.62881072,31260,1128,1,1,11,2.741707822136858
undo,31,13,0,0,0,3,"[0, 24, 28, 2, 29, 7, 26, 23, 16, 3]",10,1,[20],19.18588541,32580,1320,1,0,11,2.7575891066466034
undo,31,13,0,0,1,20,"[0, 24, 28, 2, 29, 7, 26, 23, 16, 3, 20]",11,0,[],0.159587819,33388,808,1,0,11,2.7253714915146405
undo,31,13,0,1,1,20,"[0, 24, 28, 2, 29, 7, 26, 23, 16, 3, 20]",11,0,[],0.159587819,39516,6128,1,0,11,2.7253714915146405
undo,32,20,0,0,0,0,[0],1,21,"[1, 2, 3, 4, 5, 6, 7, 8, 9, 12, 17, 18, 20, 21, 22, 23, 25, 26, 27, 28, 29]",300,116,-1,1,9,9,0.0
undo,32,20,0,0,0,12,"[0, 12]",2,20,"[1, 2, 3, 4, 5, 6, 7, 8, 9, 17, 18, 20, 21, 22, 23, 25, 26, 27, 28, 29]",271.5570747,3671,3555,1,8,9,1.0
undo,32,20,0,0,0,1,"[0, 12, 1]",3,12,"[3, 4, 5, 6, 8, 9, 20, 21, 23, 27, 28, 29]",189.5692707,4847,1176,1,6,9,1.0757997779162911
undo,32,20,0,0,0,5,"[0, 12, 1, 5]",4,10,"[4, 6, 8, 9, 20, 21, 23, 27, 28, 29]",152.8950291,5759,912,1,5,9,1.1708231454516806
undo,32,20,0,0,0,21,"[0, 12, 1, 5, 21]",5,8,"[4, 6, 8, 9, 20, 23, 27, 28]",107.8950291,6895,1136,1,4,9,1.126197336199212
undo,32,20,0,0,0,8,"[0, 12, 1, 5, 21, 8]",6,5,"[6, 9, 23, 27, 28]",90.43077988,7975,1080,1,3,9,1.140007470699913
undo,32,20,0,0,0,23,"[0, 12, 1, 5, 21, 8, 23]",7,2,"[6, 9]",45.74297394,8999,1024,1,1,9,1.1162257896627588
undo,32,20,0,0,0,9,"[0, 12, 1, 5, 21, 8, 23, 9]",8,1,[6],26.53360123,10311,1312,1,0,9,1.1086880559449597
undo,32,20,0,0,1,6,"[0, 12, 1, 5, 21, 8, 23, 9, 6]",9,0,[],3.511872362,11255,944,1,0,9,1.1186240265999328
undo,32,20,0,1,1,6,"[0, 12, 1, 5, 21, 8, 23, 9, 6]",9,0,[],3.511872362,13649,2394,1,0,9,1.1186240265999328
undo,33,31,0,0,0,0,[0],1,27,"[1, 3, 4, 5, 6, 7, 8, 10, 11, 12, 13, 14, 15, 16, 17, 18, 19, 20, 21, 22, 23, 24, 25, 26, 27, 28, 29]",300,132,-1,2,87,10,0.0
undo,33,31,0,0,0,14,"[0, 14]",2,25,"[1, 3, 5, 6, 7, 8, 10, 11, 12, 13, 15, 16, 17, 18, 19, 20, 21, 22, 23, 24, 25, 26, 27, 28, 29]",263.861378,3748,3616,2,59,10,1.0
undo,33,31,0,0,0,27,"[0, 14, 27]",3,22,"[1, 3, 5, 6, 7, 8, 10, 11, 12, 13, 15, 16, 17, 18, 19, 20, 21, 22, 24, 25, 28, 29]",235.6833724,4516,768,1,39,10,1.5881859159302467
undo,33,31,0,0,0,8,"[0, 14, 27, 8]",4,20,"[1, 3, 5, 6, 7, 10, 11, 12, 13, 16, 17, 18, 19, 20, 21, 22, 24, 25, 28, 29]",224.6380114,5244,728,1,36,10,2.1665048452331277
undo,33,31,0,0,0,17,"[0, 14, 27, 8, 17]",5,14,"[1, 5, 6, 7, 11, 12, 13, 16, 18, 19, 20, 22, 25, 28]",159.7380884,9364,4120,3,24,9,1.5495006890497531
undo,33,31,0,0,0,18,"[0, 14, 27, 8, 17, 18]",6,11,"[1, 5, 7, 11, 12, 13, 16, 19, 22, 25, 28]",130.5319247,10644,1280,2,9,9,2.632240879872327
undo,33,31,0,0,0,11,"[0, 14, 27, 8, 17, 18, 11]",7,4,"[5, 16, 25, 28]",95.6463976,12740,2096,2,2,9,3.3379705974049787
undo,33,31,0,0,0,5,"[0, 14, 27, 8, 17, 18, 11, 5]",8,1,[28],51.96573826,14484,1744,1,0,9,2.827347216261714
undo,33,31,0,0,1,28,"[0, 14, 27, 8, 17, 18, 11, 5, 28]",9,0,[],31.74198985,15348,864,1,0,9,2.4992379710012815
undo,33,31,1,0,0,5,"[0, 14, 27, 8, 17, 18, 11, 5]",8,1,[28],51.96573826,19132,3784,1,0,9,2.827347216261714
undo,33,31,1,0,0,11,"[0, 14, 27, 8, 17, 18, 11]",7,4,"[5, 16, 25, 28]",95.6463976,19399,267,2,2,9,3.3379705974049787
undo,33,31,1,0,0,18,"[0, 14, 27, 8, 17, 18]",6,11,"[1, 5, 7, 11, 12, 13, 16, 19, 22, 25, 28]",130.5319247,19632,233,2,9,9,2.632240879872327
undo,33,31,1,0,0,17,"[0, 14, 27, 8, 17]",5,14,"[1, 5, 6, 7, 11, 12, 13, 16, 18, 19, 20, 22, 25, 28]",159.7380884,19832,200,3,24,9,1.5495006890497531
undo,33,31,1,0,0,8,"[0, 14, 27, 8]",4,20,"[1, 3, 5, 6, 7, 10, 11, 12, 13, 16, 17, 18, 19, 20, 21, 22, 24, 25, 28, 29]",224.6380114,20266,434,1,36,10,2.1665048452331277
undo,33,31,0,0,0,18,"[0, 14, 27, 8, 18]",5,15,"[1, 5, 6, 7, 11, 12, 13, 16, 17, 19, 20, 22, 25, 28, 29]",188.7911147,25500,5234,1,26,10,1.7273375741920205
undo,33,31,0,0,0,17,"[0, 14, 27, 8, 18, 17]",6,13,"[1, 5, 6, 7, 11, 12, 13, 16, 19, 20, 22, 25, 28]",159.584951,28468,2968,1,13,10,1.551192427769927
undo,33,31,0,0,0,11,"[0, 14, 27, 8, 18, 17, 11]",7,7,"[5, 12, 16, 19, 22, 25, 28]",118.4753414,30004,1536,1,4,10,2.9650760544203494
undo,33,31,0,0,0,5,"[0, 14, 27, 8, 18, 17, 11, 5]",8,2,"[16, 28]",74.79468207,31044,1040,1,1,10,2.56711965625205
undo,33,31,0,0,0,28,"[0, 14, 27, 8, 18, 17, 11, 5, 28]",9,1,[16],54.57093365,32020,976,1,0,10,2.2865510762058148
undo,33,31,0,0,1,16,"[0, 14, 27, 8, 18, 17, 11, 5, 28, 16]",10,0,[],20.95546102,32956,936,1,0,10,2.089356850786318
undo,33,31,0,1,1,16,"[0, 14, 27, 8, 18, 17, 11, 5, 28, 16]",10,0,[],20.95546102,36399,3443,1,0,10,2.089356850786318
undo,34,24,0,0,0,0,[0],1,29,"[1, 2, 3, 4, 5, 6, 7, 8, 9, 10, 11, 12, 13, 14, 15, 16, 17, 18, 19, 20, 21, 22, 23, 24, 25, 26, 27, 28, 29]",300,115,-1,4,76,10,0.0
undo,34,24,0,0,0,16,"[0, 16]",2,28,"[1, 2, 3, 4, 5, 6, 7, 8, 9, 10, 11, 12, 13, 14, 15, 17, 18, 19, 20, 21, 22, 23, 24, 25, 26, 27, 28, 29]",210.3562607,4587,4472,13,110,9,1.0
undo,34,24,0,0,0,8,"[0, 16, 8]",3,22,"[1, 2, 3, 4, 6, 9, 10, 11, 13, 14, 15, 17, 20, 21, 22, 23, 24, 25, 26, 27, 28, 29]",181.3562607,5827,1240,3,31,9,1.0774669368510212
undo,34,24,0,0,0,22,"[0, 16, 8, 22]",4,18,"[2, 3, 4, 6, 9, 10, 11, 13, 14, 15, 17, 23, 24, 25, 26, 27, 28, 29]",167.9398528,6627,800,3,23,9,1.2531772310046492
undo,34,24,0,0,0,15,"[0, 16, 8, 22, 15]",5,16,"[3, 4, 6, 9, 10, 11, 13, 14, 17, 23, 24, 25, 26, 27, 28, 29]",146.7266494,7531,904,3,16,9,1.2813329946092564
undo,34,24,0,0,0,28,"[0, 16, 8, 22, 15, 28]",6,8,"[3, 4, 9, 11, 13, 23, 26, 27]",101.4497237,8979,1448,3,5,9,1.2060847818642253
undo,34,24,0,0,0,23,"[0, 16, 8, 22, 15, 28, 23]",7,3,"[9, 11, 27]",82.42342609,9972,993,3,1,9,1.2349355190066822
undo,34,24,0,0,0,11,"[0, 16, 8, 22, 15, 28, 23, 11]",8,2,"[9, 27]",55.49760206,11676,1704,2,0,9,1.2172586817191506
undo,34,24,0,0,1,27,"[0, 16, 8, 22, 15, 28, 23, 11, 27]",9,0,[],27.69472451,13827,2151,1,0,9,1.192247579330137
undo,34,24,0,1,1,27,"[0, 16, 8, 22, 15, 28, 23, 11, 27]",9,0,[],27.69472451,18565,4738,1,0,9,1.192247579330137
undo,35,11,0,0,0,0,[0],1,25,"[1, 2, 3, 4, 5, 6, 8, 9, 10, 11, 12, 13, 14, 15, 16, 17, 18, 19, 20, 22, 23, 25, 26, 27, 28]",300,115,-1,6,374,12,0.0
undo,35,11,0,0,0,1,"[0, 1]",2,24,"[2, 3, 4, 5, 6, 8, 9, 10, 11, 12, 13, 14, 15, 16, 17, 18, 19, 20, 22, 23, 25, 26, 27, 28]",264.6446609,3741,3626,6,217,12,1.0
undo,35,11,0,0,0,18,"[0, 1, 18]",3,19,"[2, 4, 5, 6, 8, 9, 11, 12, 14, 15, 16, 17, 19, 20, 22, 23, 25, 27, 28]",212.3187591,4885,1144,6,161,12,1.3884463804898786
undo,35,11,0,0,0,27,"[0, 1, 18, 27]",4,18,"[2, 4, 5, 6, 8, 9, 11, 12, 14, 15, 16, 17, 19, 20, 22, 23, 25, 28]",188.4650382,5741,856,6,155,12,1.3600813284083875
undo,35,11,0,0,0,8,"[0, 1, 18, 27, 8]",5,11,"[2, 5, 6, 11, 12, 15, 17, 19, 22, 25, 28]",118.2510795,7517,1776,4,75,12,1.2516561493067806
undo,35,11,0,0,0,17,"[0, 1, 18, 27, 8, 17]",6,10,"[2, 5, 6, 11, 12, 15, 19, 22, 25, 28]",103.9332585,8501,984,4,40,12,1.3330781007673067
undo,35,11,0,0,0,15,"[0, 1, 18, 27, 8, 17, 15]",7,7,"[2, 5, 11, 12, 19, 22, 28]",91.28414782,9461,960,4,35,12,1.3305073448996472
undo,35,11,0,0,0,11,"[0, 1, 18, 27, 8, 17, 15, 11]",8,5,"[2, 5, 19, 22, 28]",73.17337754,10645,1184,4,17,12,1.308363545391271
undo,35,11,0,0,0,5,"[0, 1, 18, 27, 8, 17, 15, 11, 5]",9,3,"[2, 22, 28]",37.94554764,12757,2112,5,0,11,1.610730105137712
undo,35,11,0,0,0,28,"[0, 1, 18, 27, 8, 17, 15, 11, 5, 28]",10,2,"[2, 22]",20.05700382,13773,1016,2,0,11,1.6200090202692834
undo,35,11,0,0,1,2,"[0, 1, 18, 27, 8, 17, 15, 11, 5, 28, 2]",11,0,[],9.426858002,15005,1232,1,0,11,1.6279693178231827
undo,35,11,1,0,0,28,"[0, 1, 18, 27, 8, 17, 15, 11, 5, 28]",10,2,"[2, 22]",20.05700382,24149,9144,2,0,11,1.6200090202692834
undo,35,11,1,0,0,5,"[0, 1, 18, 27, 8, 17, 15, 11, 5]",9,3,"[2, 22, 28]",37.94554764,24732,583,5,0,11,1.610730105137712
undo,35,11,1,0,0,11,"[0, 1, 18, 27, 8, 17, 15, 11]",8,5,"[2, 5, 19, 22, 28]",73.17337754,25249,517,4,17,12,1.308363545391271
undo,35,11,0,0,0,22,"[0, 1, 18, 27, 8, 17, 15, 11, 22]",9,3,"[2, 5, 28]",39.75182761,28181,2932,1,3,12,1.3803792714205945
undo,35,11,0,0,0,2,"[0, 1, 18, 27, 8, 17, 15, 11, 22, 2]",10,2,"[5, 28]",29.70195199,29173,992,1,1,12,1.5143757809206135
undo,35,11,0,0,0,28,"[0, 1, 18, 27, 8, 17, 15, 11, 22, 2, 28]",11,1,[5],19.07180617,30069,896,1,0,12,1.6257102848178768
undo,35,11,0,0,1,5,"[0, 1, 18, 27, 8, 17, 15, 11, 22, 2, 28, 5]",12,0,[],1.183262355,32733,2664,1,0,12,1.8366912330977305
undo,35,11,0,1,1,5,"[0, 1, 18, 27, 8, 17, 15, 11, 22, 2, 28, 5]",12,0,[],1.183262355,37016,4283,1,0,12,1.8366912330977305
undo,36,15,0,0,0,0,[0],1,25,"[1, 2, 3, 4, 7, 8, 9, 10, 11, 12, 13, 14, 15, 16, 18, 20, 21, 22, 23, 24, 25, 26, 27, 28, 29]",300,116,-1,4,65,9,0.0
undo,36,15,0,0,0,7,"[0, 7]",2,23,"[1, 3, 4, 8, 9, 10, 11, 12, 13, 14, 15, 16, 18, 20, 21, 22, 23, 24, 25, 26, 27, 28, 29]",215.1884442,3933,3817,30,107,8,1.0
undo,36,15,0,0,0,16,"[0, 7, 16]",3,14,"[3, 4, 9, 10, 11, 12, 13, 14, 15, 18, 21, 22, 25, 27]",171.5306843,5045,1112,11,27,8,1.1253230463291073
undo,36,15,0,0,0,11,"[0, 7, 16, 11]",4,10,"[3, 4, 12, 13, 14, 15, 18, 21, 22, 27]",145.5114606,6028,983,6,10,8,1.2441772230587118
undo,36,15,0,0,0,3,"[0, 7, 16, 11, 3]",5,8,"[4, 12, 13, 14, 15, 18, 21, 22]",134.1097064,6940,912,6,4,8,1.253153736954923
undo,36,15,0,0,0,22,"[0, 7, 16, 11, 3, 22]",6,5,"[4, 13, 14, 15, 18]",84.38043933,8221,1281,2,3,8,1.249784727890499
undo,36,15,0,0,0,15,"[0, 7, 16, 11, 3, 22, 15]",7,1,[13],58.76794238,9317,1096,1,0,8,1.2283958862490272
undo,36,15,0,0,1,13,"[0, 7, 16, 11, 3, 22, 15, 13]",8,0,[],43.50360486,10245,928,1,0,8,1.2803073001953094
undo,36,15,1,0,0,15,"[0, 7, 16, 11, 3, 22, 15]",7,1,[13],58.76794238,13799,3554,1,0,8,1.2283958862490272
undo,36,15,1,0,0,22,"[0, 7, 16, 11, 3, 22]",6,5,"[4, 13, 14, 15, 18]",84.38043933,14066,267,2,3,8,1.249784727890499
undo,36,15,1,0,0,3,"[0, 7, 16, 11, 3]",5,8,"[4, 12, 13, 14, 15, 18, 21, 22]",134.1097064,14283,217,6,4,8,1.253153736954923
undo,36,15,1,0,0,11,"[0, 7, 16, 11]",4,10,"[3, 4, 12, 13, 14, 15, 18, 21, 22, 27]",145.5114606,14533,250,6,10,8,1.2441772230587118
undo,36,15,1,0,0,16,"[0, 7, 16]",3,14,"[3, 4, 9, 10, 11, 12, 13, 14, 15, 18, 21, 22, 25, 27]",171.5306843,15733,1200,11,27,8,1.1253230463291073
undo,36,15,1,0,0,7,"[0, 7]",2,23,"[1, 3, 4, 8, 9, 10, 11, 12, 13, 14, 15, 16, 18, 20, 21, 22, 23, 24, 25, 26, 27, 28, 29]",215.1884442,19249,3516,30,107,8,1.0
undo,36,15,1,0,0,0,[0],1,25,"[1, 2, 3, 4, 7, 8, 9, 10, 11, 12, 13, 14, 15, 16, 18, 20, 21, 22, 23, 24, 25, 26, 27, 28, 29]",300,19699,450,4,65,9,0.0
undo,36,15,0,0,0,16,"[0, 16]",2,16,"[3, 4, 7, 9, 10, 11, 12, 13, 14, 15, 18, 20, 21, 22, 25, 27]",185.8378346,22173,2474,22,104,7,1.0
undo,36,15,0,0,0,3,"[0, 16, 3]",3,14,"[4, 7, 10, 11, 12, 13, 14, 15, 18, 20, 21, 22, 25, 27]",160.7579622,22957,784,8,31,7,1.0518498474119804
undo,36,15,0,0,0,11,"[0, 16, 3, 11]",4,11,"[4, 7, 10, 12, 13, 14, 15, 18, 21, 22, 27]",149.356208,23477,520,7,11,7,1.2132134560241312
undo,36,15,0,0,0,7,"[0, 16, 3, 11, 7]",5,4,"[4, 12, 21, 22]",107.871271,24421,944,1,3,7,2.2653602701959374
undo,36,15,0,0,0,12,"[0, 16, 3, 11, 7, 12]",6,1,[21],74.62973068,25309,888,1,0,7,2.606874218069835
undo,36,15,0,0,1,21,"[0, 16, 3, 11, 7, 12, 21]",7,0,[],30.80051668,26917,1608,1,0,7,2.8311702584977176
undo,36,15,1,0,0,12,"[0, 16, 3, 11, 7, 12]",6,1,[21],74.62973068,30449,3532,1,0,7,2.606874218069835
undo,36,15,1,0,0,7,"[0, 16, 3, 11, 7]",5,4,"[4, 12, 21, 22]",107.871271,30716,267,1,3,7,2.2653602701959374
undo,36,15,1,0,0,11,"[0, 16, 3, 11]",4,11,"[4, 7, 10, 12, 13, 14, 15, 18, 21, 22, 27]",149.356208,31566,850,7,11,7,1.2132134560241312
undo,36,15,0,0,0,22,"[0, 16, 3, 11, 22]",5,5,"[4, 13, 14, 15, 18]",88.22520112,34469,2903,2,3,7,1.2274995300513611
undo,36,15,0,0,0,15,"[0, 16, 3, 11, 22, 15]",6,1,[13],62.61270417,35349,880,1,0,7,1.2088176858512876
undo,36,15,0,0,1,13,"[0, 16, 3, 11, 22, 15, 13]",7,0,[],47.34836665,36397,1048,1,0,7,1.2611160886207287
undo,36,15,1,0,0,15,"[0, 16, 3, 11, 22, 15]",6,1,[13],62.61270417,44950,8553,1,0,7,1.2088176858512876
undo,36,15,1,0,0,22,"[0, 16, 3, 11, 22]",5,5,"[4, 13, 14, 15, 18]",88.22520112,45199,249,2,3,7,1.2274995300513611
undo,36,15,1,0,0,11,"[0, 16, 3, 11]",4,11,"[4, 7, 10, 12, 13, 14, 15, 18, 21, 22, 27]",149.356208,45433,234,7,11,7,1.2132134560241312
undo,36,15,1,0,0,3,"[0, 16, 3]",3,14,"[4, 7, 10, 11, 12, 13, 14, 15, 18, 20, 21, 22, 25, 27]",160.7579622,45683,250,8,31,7,1.0518498474119804
undo,36,15,1,0,0,16,"[0, 16]",2,16,"[3, 4, 7, 9, 10, 11, 12, 13, 14, 15, 18, 20, 21, 22, 25, 27]",185.8378346,46299,616,22,104,7,1.0
undo,36,15,0,0,0,7,"[0, 16, 7]",3,11,"[3, 4, 9, 11, 12, 13, 14, 15, 21, 22, 27]",142.1800747,48485,2186,3,18,7,1.8608304467569274
undo,36,15,0,0,0,11,"[0, 16, 7, 11]",4,7,"[3, 4, 12, 13, 14, 15, 22]",100.6951377,50382,1897,3,7,7,1.6051065734816115
undo,36,15,0,0,0,3,"[0, 16, 7, 11, 3]",5,6,"[4, 12, 13, 14, 15, 22]",89.29338346,50998,616,3,4,7,1.5917012272876523
undo,36,15,0,0,0,22,"[0, 16, 7, 11, 3, 22]",6,2,"[13, 15]",39.56411642,52150,1152,2,0,7,1.509551308246583
undo,36,15,0,0,1,15,"[0, 16, 7, 11, 3, 22, 15]",7,0,[],13.95161947,52998,848,1,0,7,1.4566084515382258
undo,36,15,0,1,1,15,"[0, 16, 7, 11, 3, 22, 15]",7,0,[],13.95161947,57666,4668,1,0,7,1.4566084515382258
undo,37,27,0,0,0,0,[0],1,26,"[1, 3, 5, 6, 7, 8, 9, 10, 11, 12, 13, 14, 15, 16, 17, 18, 19, 21, 22, 23, 24, 25, 26, 27, 28, 29]",300,116,-1,13,578,11,0.0
undo,37,27,0,0,0,26,"[0, 26]",2,23,"[1, 5, 6, 7, 8, 9, 10, 11, 12, 13, 14, 15, 16, 17, 18, 19, 21, 22, 23, 24, 25, 27, 29]",275.8132268,3626,3510,7,249,11,1.0
undo,37,27,0,0,0,15,"[0, 26, 15]",3,18,"[1, 6, 7, 8, 10, 12, 13, 14, 16, 17, 18, 19, 21, 23, 24, 25, 27, 29]",216.0386502,4970,1344,6,105,11,2.316230250316108
undo,37,27,0,0,0,24,"[0, 26, 15, 24]",4,14,"[1, 8, 10, 12, 13, 14, 16, 17, 18, 19, 23, 25, 27, 29]",198.8339997,5850,880,6,63,11,2.140390406148825
undo,37,27,0,0,0,17,"[0, 26, 15, 24, 17]",5,11,"[1, 8, 10, 12, 13, 14, 18, 19, 23, 27, 29]",182.2810543,6618,768,4,33,11,1.897705569486853
undo,37,27,0,0,0,12,"[0, 26, 15, 24, 17, 12]",6,10,"[1, 8, 10, 13, 14, 18, 19, 23, 27, 29]",171.1007144,7178,560,2,17,11,1.994427587076918
undo,37,27,0,0,0,10,"[0, 26, 15, 24, 17, 12, 10]",7,9,"[1, 8, 13, 14, 18, 19, 23, 27, 29]",160.0553534,7706,528,2,14,11,1.8554032921959762
undo,37,27,0,0,0,13,"[0, 26, 15, 24, 17, 12, 10, 13]",8,7,"[1, 8, 14, 19, 23, 27, 29]",120.2056357,9706,2000,2,8,11,1.8269483184790714
undo,37,27,0,0,0,19,"[0, 26, 15, 24, 17, 12, 10, 13, 19]",9,4,"[8, 14, 23, 29]",83.97029387,10690,984,2,3,11,1.6617669702307691
undo,37,27,0,0,0,8,"[0, 26, 15, 24, 17, 12, 10, 13, 19, 8]",10,2,"[14, 29]",69.10422512,11562,872,2,0,11,1.708465241811091
undo,37,27,0,0,1,29,"[0, 26, 15, 24, 17, 12, 10, 13, 19, 8, 29]",11,0,[],9.901184659,14322,2760,1,0,11,1.4940849125097164
undo,37,27,0,1,1,29,"[0, 26, 15, 24, 17, 12, 10, 13, 19, 8, 29]",11,0,[],9.901184659,20399,6077,1,0,11,1.4940849125097164
undo,38,32,0,0,0,0,[0],1,29,"[1, 2, 3, 4, 5, 6, 7, 8, 9, 10, 11, 12, 13, 14, 15, 16, 17, 18, 19, 20, 21, 22, 23, 24, 25, 26, 27, 28, 29]",300,115,-1,17,359,10,0.0
undo,38,32,0,0,0,19,"[0, 19]",2,28,"[1, 2, 3, 4, 5, 6, 7, 8, 9, 10, 11, 12, 13, 14, 15, 16, 17, 18, 20, 21, 22, 23, 24, 25, 26, 27, 28, 29]",283.5075775,2305,2190,16,294,10,1.0
undo,38,32,0,0,0,13,"[0, 19, 13]",3,24,"[2, 3, 4, 5, 6, 8, 9, 10, 11, 12, 14, 15, 16, 17, 18, 20, 21, 22, 23, 24, 25, 26, 27, 28]",260.3127505,3321,1016,14,227,10,1.0172874229878615
undo,38,32,0,0,0,15,"[0, 19, 13, 15]",4,18,"[2, 3, 5, 8, 9, 10, 11, 12, 16, 17, 20, 22, 23, 24, 25, 26, 27, 28]",177.4393531,4802,1481,9,116,10,1.435447391509833
undo,38,32,0,0,0,28,"[0, 19, 13, 15, 28]",5,17,"[2, 3, 5, 8, 9, 10, 11, 12, 16, 17, 20, 22, 23, 24, 25, 26, 27]",166.0375988,5705,903,9,70,10,1.3843701324937985
undo,38,32,0,0,0,12,"[0, 19, 13, 15, 28, 12]",6,14,"[2, 3, 5, 8, 9, 10, 11, 16, 17, 20, 22, 24, 26, 27]",147.0639329,6505,800,6,35,10,1.358372254952329
undo,38,32,0,0,0,16,"[0, 19, 13, 15, 28, 12, 16]",7,13,"[2, 3, 5, 8, 9, 10, 11, 17, 20, 22, 24, 26, 27]",131.411457,7265,760,5,15,10,1.4356932930709845
undo,38,32,0,0,0,22,"[0, 19, 13, 15, 28, 12, 16, 22]",8,6,"[2, 8, 9, 17, 20, 27]",97.57360838,8185,920,3,5,10,1.4335226411545752
undo,38,32,0,0,0,9,"[0, 19, 13, 15, 28, 12, 16, 22, 9]",9,3,"[2, 8, 20]",75.37000507,9801,1616,3,0,10,1.4837166378374758
undo,38,32,0,0,1,2,"[0, 19, 13, 15, 28, 12, 16, 22, 9, 2]",10,0,[],24.28184597,11418,1617,1,0,10,1.9009621017233784
undo,38,32,1,0,0,9,"[0, 19, 13, 15, 28, 12, 16, 22, 9]",9,3,"[2, 8, 20]",75.37000507,13732,2314,3,0,10,1.4837166378374758
undo,38,32,0,0,1,8,"[0, 19, 13, 15, 28, 12, 16, 22, 9, 8]",10,0,[],30.24794838,17634,3902,1,0,10,1.3767698817641267
undo,38,32,0,1,1,8,"[0, 19, 13, 15, 28, 12, 16, 22, 9, 8]",10,0,[],30.24794838,28866,11232,1,0,10,1.3767698817641267
undo,39,26,0,0,0,0,[0],1,29,"[1, 2, 3, 4, 5, 6, 7, 8, 9, 10, 11, 12, 13, 14, 15, 16, 17, 18, 19, 20, 21, 22, 23, 24, 25, 26, 27, 28, 29]",300,116,-1,9,226,9,0.0
undo,39,26,0,0,0,21,"[0, 21]",2,25,"[2, 3, 4, 5, 6, 7, 8, 10, 11, 12, 13, 14, 15, 16, 17, 18, 19, 22, 23, 24, 25, 26, 27, 28, 29]",211.1349337,4375,4259,7,90,9,1.0
undo,39,26,0,0,0,13,"[0, 21, 13]",3,21,"[3, 4, 5, 6, 7, 8, 10, 11, 12, 14, 15, 16, 17, 18, 19, 22, 23, 24, 25, 26, 29]",188.9989901,5047,672,6,45,9,1.0103952279992225
undo,39,26,0,0,0,5,"[0, 21, 13, 5]",4,12,"[3, 4, 11, 14, 16, 17, 18, 22, 23, 25, 26, 29]",150.7106107,6783,1736,2,10,8,1.0086890649024711
undo,39,26,0,0,0,23,"[0, 21, 13, 5, 23]",5,8,"[3, 4, 11, 14, 16, 17, 22, 29]",118.0150452,7703,920,2,7,8,1.3518621918690494
undo,39,26,0,0,0,16,"[0, 21, 13, 5, 23, 16]",6,4,"[4, 14, 17, 29]",64.77971862,8607,904,2,3,8,2.1011863559657242
undo,39,26,0,0,0,29,"[0, 21, 13, 5, 23, 16, 29]",7,2,"[4, 17]",40.57228175,9784,1177,2,0,8,2.123178325538451
undo,39,26,0,0,1,4,"[0, 21, 13, 5, 23, 16, 29, 4]",8,0,[],16.57228175,10767,983,1,0,8,2.338467952972574
undo,39,26,1,0,0,29,"[0, 21, 13, 5, 23, 16, 29]",7,2,"[4, 17]",40.57228175,15683,4916,2,0,8,2.123178325538451
undo,39,26,1,0,0,16,"[0, 21, 13, 5, 23, 16]",6,4,"[4, 14, 17, 29]",64.77971862,15949,266,2,3,8,2.1011863559657242
undo,39,26,1,0,0,23,"[0, 21, 13, 5, 23]",5,8,"[3, 4, 11, 14, 16, 17, 22, 29]",118.0150452,16199,250,2,7,8,1.3518621918690494
undo,39,26,1,0,0,5,"[0, 21, 13, 5]",4,12,"[3, 4, 11, 14, 16, 17, 18, 22, 23, 25, 26, 29]",150.7106107,16566,367,2,10,8,1.0086890649024711
undo,39,26,1,0,0,13,"[0, 21, 13]",3,21,"[3, 4, 5, 6, 7, 8, 10, 11, 12, 14, 15, 16, 17, 18, 19, 22, 23, 24, 25, 26, 29]",188.9989901,17266,700,6,45,9,1.0103952279992225
undo,39,26,0,0,0,16,"[0, 21, 13, 16]",4,8,"[4, 5, 6, 10, 14, 17, 23, 29]",119.9700107,19640,2374,3,23,9,1.608180021563306
undo,39,26,0,0,0,29,"[0, 21, 13, 16, 29]",5,6,"[4, 6, 10, 14, 17, 23]",95.76257383,20735,1095,3,20,9,1.6714963205667543
undo,39,26,0,0,0,4,"[0, 21, 13, 16, 29, 4]",6,4,"[6, 10, 14, 17]",71.76257383,21544,809,3,6,9,1.8831111863826637
undo,39,26,0,0,0,17,"[0, 21, 13, 16, 29, 4, 17]",7,3,"[6, 10, 14]",50.66755072,22847,1303,3,1,9,1.7547748416418751
undo,39,26,0,0,0,6,"[0, 21, 13, 16, 29, 4, 17, 6]",8,2,"[10, 14]",30.54293892,23728,881,2,0,9,1.67769644614289
undo,39,26,0,0,1,14,"[0, 21, 13, 16, 29, 4, 17, 6, 14]",9,0,[],9.519142882,25296,1568,1,0,9,1.8025260198012052
undo,39,26,0,1,1,14,"[0, 21, 13, 16, 29, 4, 17, 6, 14]",9,0,[],9.519142882,29233,3937,1,0,9,1.8025260198012052
undo,40,1,0,0,0,0,[0],1,26,"[1, 2, 4, 5, 7, 8, 9, 10, 11, 12, 13, 14, 15, 16, 17, 18, 19, 20, 21, 22, 23, 24, 25, 26, 28, 29]",300,115,-1,6,74,7,0.0
undo,40,1,0,0,0,14,"[0, 14]",2,19,"[1, 4, 5, 8, 9, 13, 15, 17, 18, 19, 20, 21, 22, 23, 24, 25, 26, 28, 29]",200.1901808,3437,3322,5,42,7,1.0
undo,40,1,0,0,0,17,"[0, 14, 17]",3,15,"[1, 4, 5, 8, 9, 13, 15, 18, 19, 20, 22, 23, 25, 28, 29]",147.8356204,4237,800,5,27,7,1.0028844724416826
undo,40,1,0,0,0,1,"[0, 14, 17, 1]",4,12,"[4, 5, 8, 9, 15, 18, 20, 22, 23, 25, 28, 29]",123.4840291,5037,800,5,15,7,1.0264985578353567
undo,40,1,0,0,0,28,"[0, 14, 17, 1, 28]",5,5,"[9, 15, 22, 23, 29]",88.59850198,5917,880,5,3,7,1.0339861575999345
undo,40,1,0,0,0,23,"[0, 14, 17, 1, 28, 23]",6,2,"[15, 22]",51.70676849,6861,944,2,0,7,1.0327458250705703
undo,40,1,0,0,1,15,"[0, 14, 17, 1, 28, 23, 15]",7,0,[],20.81987807,7917,1056,1,0,7,1.1948681641401226
undo,40,1,1,0,0,23,"[0, 14, 17, 1, 28, 23]",6,2,"[15, 22]",51.70676849,12432,4515,2,0,7,1.0327458250705703
undo,40,1,1,0,0,28,"[0, 14, 17, 1, 28]",5,5,"[9, 15, 22, 23, 29]",88.59850198,12665,233,5,3,7,1.0339861575999345
undo,40,1,1,0,0,1,"[0, 14, 17, 1]",4,12,"[4, 5, 8, 9, 15, 18, 20, 22, 23, 25, 28, 29]",123.4840291,12899,234,5,15,7,1.0264985578353567
undo,40,1,1,0,0,17,"[0, 14, 17]",3,15,"[1, 4, 5, 8, 9, 13, 15, 18, 19, 20, 22, 23, 25, 28, 29]",147.8356204,13115,216,5,27,7,1.0028844724416826
undo,40,1,1,0,0,14,"[0, 14]",2,19,"[1, 4, 5, 8, 9, 13, 15, 17, 18, 19, 20, 21, 22, 23, 24, 25, 26, 28, 29]",200.1901808,13399,284,5,42,7,1.0
undo,40,1,1,0,0,0,[0],1,26,"[1, 2, 4, 5, 7, 8, 9, 10, 11, 12, 13, 14, 15, 16, 17, 18, 19, 20, 21, 22, 23, 24, 25, 26, 28, 29]",300,13832,433,6,74,7,0.0
undo,40,1,0,0,0,14,"[0, 14]",2,19,"[1, 4, 5, 8, 9, 13, 15, 17, 18, 19, 20, 21, 22, 23, 24, 25, 26, 28, 29]",200.1901808,17813,3981,5,42,7,1.0
undo,40,1,0,0,0,20,"[0, 14, 20]",3,8,"[1, 4, 5, 8, 17, 18, 19, 29]",107.5349058,18733,920,3,6,6,1.1318930635390845
undo,40,1,0,0,0,5,"[0, 14, 20, 5]",4,3,"[4, 18, 29]",86.06399521,19517,784,2,2,6,1.1422313843984317
undo,40,1,0,0,0,18,"[0, 14, 20, 5, 18]",5,2,"[4, 29]",63.23857079,20381,864,2,0,6,1.1754181498166683
undo,40,1,0,0,1,4,"[0, 14, 20, 5, 18, 4]",6,0,[],24.2898866,21981,1600,1,0,6,1.1682212432106793
undo,40,1,1,0,0,18,"[0, 14, 20, 5, 18]",5,2,"[4, 29]",63.23857079,23732,1751,2,0,6,1.1754181498166683
undo,40,1,1,0,0,5,"[0, 14, 20, 5]",4,3,"[4, 18, 29]",86.06399521,24132,400,2,2,6,1.1422313843984317
undo,40,1,1,0,0,20,"[0, 14, 20]",3,8,"[1, 4, 5, 8, 17, 18, 19, 29]",107.5349058,24399,267,3,6,6,1.1318930635390845
undo,40,1,1,0,0,14,"[0, 14]",2,19,"[1, 4, 5, 8, 9, 13, 15, 17, 18, 19, 20, 21, 22, 23, 24, 25, 26, 28, 29]",200.1901808,24849,450,5,42,7,1.0
undo,40,1,1,0,0,0,[0],1,26,"[1, 2, 4, 5, 7, 8, 9, 10, 11, 12, 13, 14, 15, 16, 17, 18, 19, 20, 21, 22, 23, 24, 25, 26, 28, 29]",300,25199,350,6,74,7,0.0
undo,40,1,0,0,0,8,"[0, 8]",2,23,"[1, 4, 5, 7, 9, 10, 11, 12, 13, 14, 15, 16, 17, 18, 19, 20, 21, 23, 24, 25, 26, 28, 29]",202,32550,7351,1,16,7,1.0
undo,40,1,0,0,0,20,"[0, 8, 20]",3,12,"[1, 4, 5, 11, 13, 14, 15, 17, 18, 19, 28, 29]",125.9408125,33478,928,1,7,7,1.02364736730791
undo,40,1,0,0,0,5,"[0, 8, 20, 5]",4,7,"[1, 4, 11, 13, 17, 18, 29]",104.469902,34286,808,1,3,7,1.0439599203945713
undo,40,1,0,0,0,18,"[0, 8, 20, 5, 18]",5,2,"[4, 29]",81.64447755,35189,903,1,1,7,1.0840407791793756
undo,40,1,0,0,0,4,"[0, 8, 20, 5, 18, 4]",6,1,[29],42.69579336,36326,1137,1,0,7,1.0902329133216275
undo,40,1,0,0,1,29,"[0, 8, 20, 5, 18, 4, 29]",7,0,[],6.640280603,38086,1760,1,0,7,1.2859729622882756
undo,40,1,0,1,1,29,"[0, 8, 20, 5, 18, 4, 29]",7,0,[],6.640280603,41049,2963,1,0,7,1.2859729622882756
undo,41,36,0,0,0,0,[0],1,24,"[2, 4, 5, 6, 7, 8, 9, 10, 12, 13, 14, 15, 16, 17, 18, 19, 20, 22, 23, 25, 26, 27, 28, 29]",300,115,-1,2,200,10,0.0
undo,41,36,0,0,0,12,"[0, 12]",2,23,"[2, 4, 5, 6, 7, 8, 9, 10, 13, 14, 15, 16, 17, 18, 19, 20, 22, 23, 25, 26, 27, 28, 29]",277.7963967,6035,5920,90,804,9,1.0
undo,41,36,0,0,0,16,"[0, 12, 16]",3,10,"[2, 9, 10, 13, 17, 18, 19, 23, 25, 27]",171.6267212,7963,1928,4,38,9,1.202695220335868
undo,41,36,0,0,0,17,"[0, 12, 16, 17]",4,7,"[2, 9, 10, 13, 18, 19, 25]",143.3071167,9075,1112,4,23,9,1.6578705047868705
undo,41,36,0,0,0,9,"[0, 12, 16, 17, 9]",5,5,"[2, 13, 18, 19, 25]",117.0583072,10243,1168,3,6,9,2.6488264465469484
undo,41,36,0,0,0,19,"[0, 12, 16, 17, 9, 19]",6,4,"[2, 13, 18, 25]",101.9255612,11227,984,3,3,9,2.5697960541572393
undo,41,36,0,0,0,2,"[0, 12, 16, 17, 9, 19, 2]",7,2,"[13, 25]",64.80413882,12251,1024,2,0,9,2.082684549483941
undo,41,36,0,0,0,25,"[0, 12, 16, 17, 9, 19, 2, 25]",8,1,[13],39.80413882,13379,1128,1,0,9,2.272647961997219
undo,41,36,0,0,1,13,"[0, 12, 16, 17, 9, 19, 2, 25, 13]",9,0,[],19.21287854,14387,1008,1,0,9,2.86279103556024
undo,41,36,0,1,1,13,"[0, 12, 16, 17, 9, 19, 2, 25, 13]",9,0,[],19.21287854,20382,5995,1,0,9,2.86279103556024
undo,42,28,0,0,0,0,[0],1,27,"[1, 2, 3, 4, 5, 6, 7, 8, 9, 10, 11, 12, 13, 14, 15, 16, 17, 18, 19, 20, 22, 23, 25, 26, 27, 28, 29]",300,116,-1,2,96,9,0.0
undo,42,28,0,0,0,20,"[0, 20]",2,22,"[2, 3, 4, 5, 6, 7, 8, 9, 10, 11, 12, 13, 14, 15, 16, 18, 19, 22, 23, 26, 28, 29]",245.9629757,3787,3671,1,24,9,1.0
undo,42,28,0,0,0,5,"[0, 20, 5]",3,17,"[2, 3, 4, 7, 8, 9, 10, 11, 12, 13, 14, 15, 18, 19, 23, 26, 28]",156.7609577,5963,2176,1,14,9,1.0988195556497768
undo,42,28,0,0,0,28,"[0, 20, 5, 28]",4,5,"[2, 4, 8, 9, 26]",89.85056991,7083,1120,6,4,7,1.1376893832163637
undo,42,28,0,0,0,8,"[0, 20, 5, 28, 8]",5,4,"[2, 4, 9, 26]",72.04607609,8171,1088,3,2,7,1.1303006283227894
undo,42,28,0,0,0,9,"[0, 20, 5, 28, 8, 9]",6,2,"[2, 4]",56.91333014,9755,1584,2,0,7,1.1813693993073693
undo,42,28,0,0,1,4,"[0, 20, 5, 28, 8, 9, 4]",7,0,[],33.89160128,10787,1032,1,0,7,1.1644348624092868
undo,42,28,1,0,0,9,"[0, 20, 5, 28, 8, 9]",6,2,"[2, 4]",56.91333014,13700,2913,2,0,7,1.1813693993073693
undo,42,28,1,0,0,8,"[0, 20, 5, 28, 8]",5,4,"[2, 4, 9, 26]",72.04607609,13983,283,3,2,7,1.1303006283227894
undo,42,28,1,0,0,28,"[0, 20, 5, 28]",4,5,"[2, 4, 8, 9, 26]",89.85056991,14316,333,6,4,7,1.1376893832163637
undo,42,28,1,0,0,5,"[0, 20, 5]",3,17,"[2, 3, 4, 7, 8, 9, 10, 11, 12, 13, 14, 15, 18, 19, 23, 26, 28]",156.7609577,14783,467,1,14,9,1.0988195556497768
undo,42,28,0,0,0,26,"[0, 20, 5, 26]",4,12,"[2, 3, 4, 7, 8, 9, 12, 13, 14, 18, 19, 28]",124.004279,18395,3612,1,13,9,1.0951498185897672
undo,42,28,0,0,0,19,"[0, 20, 5, 26, 19]",5,6,"[2, 7, 12, 13, 14, 18]",83.00427903,19195,800,1,8,9,1.1884691485679475
undo,42,28,0,0,0,7,"[0, 20, 5, 26, 19, 7]",6,3,"[12, 13, 18]",55.27342979,19915,720,1,3,9,1.2493206135259067
undo,42,28,0,0,0,12,"[0, 20, 5, 26, 19, 7, 12]",7,2,"[13, 18]",42.12048335,20627,712,1,1,9,1.2517095870340706
undo,42,28,0,0,0,13,"[0, 20, 5, 26, 19, 7, 12, 13]",8,1,[18],24.91583281,21619,992,1,0,9,1.4437180099627334
undo,42,28,0,0,1,18,"[0, 20, 5, 26, 19, 7, 12, 13, 18]",9,0,[],0.502721582,22715,1096,1,0,9,1.8002522955087483
undo,42,28,0,1,1,18,"[0, 20, 5, 26, 19, 7, 12, 13, 18]",9,0,[],0.502721582,24883,2168,1,0,9,1.8002522955087483
undo,43,29,0,0,0,0,[0],1,29,"[1, 2, 3, 4, 5, 6, 7, 8, 9, 10, 11, 12, 13, 14, 15, 16, 17, 18, 19, 20, 21, 22, 23, 24, 25, 26, 27, 28, 29]",300,116,-1,1,78,9,0.0
undo,43,29,0,0,0,25,"[0, 25]",2,18,"[1, 2, 4, 5, 6, 7, 9, 10, 12, 13, 14, 15, 16, 17, 22, 26, 27, 28]",223.3449284,11807,11691,13,101,8,1.0
undo,43,29,0,0,0,17,"[0, 25, 17]",3,13,"[1, 4, 5, 6, 7, 9, 10, 12, 13, 14, 22, 27, 28]",188.41643,13015,1208,2,22,8,1.014228463693056
undo,43,29,0,0,0,1,"[0, 25, 17, 1]",4,11,"[4, 5, 6, 7, 10, 12, 13, 14, 22, 27, 28]",149.5191293,14191,1176,2,18,8,1.7553639368828857
undo,43,29,0,0,0,14,"[0, 25, 17, 1, 14]",5,8,"[4, 5, 7, 12, 13, 22, 27, 28]",106.5656662,15454,1263,2,9,8,2.137167642879409
undo,43,29,0,0,0,13,"[0, 25, 17, 1, 14, 13]",6,4,"[4, 5, 12, 22]",88.53790978,16142,688,2,3,8,1.9535489858276616
undo,43,29,0,0,0,5,"[0, 25, 17, 1, 14, 13, 5]",7,2,"[4, 22]",62.82798951,16838,696,2,0,8,1.9087092890879327
undo,43,29,0,0,1,22,"[0, 25, 17, 1, 14, 13, 5, 22]",8,0,[],8.486476834,19503,2665,1,0,8,2.492296943176698
undo,43,29,0,1,1,22,"[0, 25, 17, 1, 14, 13, 5, 22]",8,0,[],8.486476834,26182,6679,1,0,8,2.492296943176698
undo,44,43,0,0,0,0,[0],1,23,"[1, 2, 3, 4, 5, 6, 7, 9, 10, 11, 12, 14, 15, 16, 17, 19, 20, 21, 22, 23, 25, 27, 29]",300,132,-1,16,556,12,0.0
undo,44,43,0,0,0,29,"[0, 29]",2,22,"[1, 2, 3, 4, 5, 6, 7, 9, 10, 11, 12, 14, 15, 16, 17, 19, 20, 21, 22, 23, 25, 27]",277.909278,3383,3251,16,520,12,1.0
undo,44,43,0,0,0,20,"[0, 29, 20]",3,20,"[1, 2, 3, 4, 6, 7, 9, 10, 11, 12, 14, 15, 16, 17, 19, 21, 22, 23, 25, 27]",254.4785289,4167,784,15,422,12,1.082311746871282
undo,44,43,0,0,0,16,"[0, 29, 20, 16]",4,19,"[1, 2, 3, 4, 6, 7, 9, 10, 11, 12, 14, 15, 17, 19, 21, 22, 23, 25, 27]",231.8511119,5263,1096,15,389,12,1.215201926898219
undo,44,43,0,0,0,15,"[0, 29, 20, 16, 15]",5,14,"[1, 2, 3, 4, 6, 7, 9, 11, 12, 14, 19, 22, 23, 25]",188.5267539,6271,1008,3,109,12,1.3482474915350444
undo,44,43,0,0,0,25,"[0, 29, 20, 16, 15, 25]",6,12,"[1, 3, 4, 6, 7, 9, 11, 12, 14, 19, 22, 23]",165.8551858,7119,848,2,43,12,1.691408721191545
undo,44,43,0,0,0,12,"[0, 29, 20, 16, 15, 25, 12]",7,11,"[1, 3, 4, 6, 7, 9, 11, 14, 19, 22, 23]",141.6684126,7895,776,2,32,12,1.6015983641428178
undo,44,43,0,0,0,3,"[0, 29, 20, 16, 15, 25, 12, 3]",8,10,"[1, 4, 6, 7, 9, 11, 14, 19, 22, 23]",128.6684126,8543,648,2,24,12,1.5379830456120627
undo,44,43,0,0,0,22,"[0, 29, 20, 16, 15, 25, 12, 3, 22]",9,6,"[1, 6, 7, 11, 14, 19]",93.95530264,9447,904,1,11,12,1.7275686117408873
undo,44,43,0,0,0,19,"[0, 29, 20, 16, 15, 25, 12, 3, 22, 19]",10,4,"[1, 6, 7, 11]",73.33977451,10303,856,1,3,12,1.6315360037595275
undo,44,43,0,0,0,1,"[0, 29, 20, 16, 15, 25, 12, 3, 22, 19, 1]",11,1,[7],45.1617689,11639,1336,1,0,12,1.7703076545303877
undo,44,43,0,0,1,7,"[0, 29, 20, 16, 15, 25, 12, 3, 22, 19, 1, 7]",12,0,[],6.951822553,14695,3056,1,0,12,1.6607094905815594
undo,44,43,0,1,1,7,"[0, 29, 20, 16, 15, 25, 12, 3, 22, 19, 1, 7]",12,0,[],6.951822553,16399,1704,1,0,12,1.6607094905815594
undo,45,9,0,0,0,0,[0],1,27,"[1, 3, 4, 5, 6, 7, 8, 9, 10, 11, 13, 14, 15, 16, 17, 18, 19, 20, 21, 22, 23, 24, 25, 26, 27, 28, 29]",300,115,-1,2,182,10,0.0
undo,45,9,0,0,0,7,"[0, 7]",2,19,"[3, 4, 5, 8, 9, 10, 11, 16, 17, 18, 19, 20, 21, 22, 23, 25, 26, 27, 28]",258.4067313,6990,6875,39,322,9,1.0
undo,45,9,0,0,0,4,"[0, 7, 4]",3,15,"[3, 8, 9, 10, 11, 18, 19, 20, 21, 22, 23, 25, 26, 27, 28]",243.4067313,8438,1448,32,159,9,1.002790151820037
undo,45,9,0,0,0,27,"[0, 7, 4, 27]",4,11,"[8, 9, 10, 11, 20, 21, 22, 23, 25, 26, 28]",181.165266,9630,1192,19,48,9,2.2170504989781823
undo,45,9,0,0,0,25,"[0, 7, 4, 27, 25]",5,10,"[8, 9, 10, 11, 20, 21, 22, 23, 26, 28]",145.2626199,10630,1000,17,30,9,6.425119990857526
undo,45,9,0,0,0,10,"[0, 7, 4, 27, 25, 10]",6,8,"[8, 9, 20, 21, 22, 23, 26, 28]",105.4129022,11662,1032,10,7,9,3.581425027421569
undo,45,9,0,0,0,8,"[0, 7, 4, 27, 25, 10, 8]",7,4,"[9, 23, 26, 28]",57.03935571,12670,1008,5,2,9,3.8093024713254513
undo,45,9,0,0,0,28,"[0, 7, 4, 27, 25, 10, 8, 28]",8,3,"[9, 23, 26]",46.22270189,13414,744,3,0,9,3.4166561767504806
undo,45,9,0,0,1,23,"[0, 7, 4, 27, 25, 10, 8, 28, 23]",9,0,[],21.20270988,14350,936,1,0,9,4.682528489450431
undo,45,9,1,0,0,28,"[0, 7, 4, 27, 25, 10, 8, 28]",8,3,"[9, 23, 26]",46.22270189,23932,9582,3,0,9,3.4166561767504806
undo,45,9,1,0,0,8,"[0, 7, 4, 27, 25, 10, 8]",7,4,"[9, 23, 26, 28]",57.03935571,24116,184,5,2,9,3.8093024713254513
undo,45,9,1,0,0,10,"[0, 7, 4, 27, 25, 10]",6,8,"[8, 9, 20, 21, 22, 23, 26, 28]",105.4129022,24315,199,10,7,9,3.581425027421569
undo,45,9,1,0,0,25,"[0, 7, 4, 27, 25]",5,10,"[8, 9, 10, 11, 20, 21, 22, 23, 26, 28]",145.2626199,24482,167,17,30,9,6.425119990857526
undo,45,9,1,0,0,27,"[0, 7, 4, 27]",4,11,"[8, 9, 10, 11, 20, 21, 22, 23, 25, 26, 28]",181.165266,24632,150,19,48,9,2.2170504989781823
undo,45,9,1,0,0,4,"[0, 7, 4]",3,15,"[3, 8, 9, 10, 11, 18, 19, 20, 21, 22, 23, 25, 26, 27, 28]",243.4067313,24799,167,32,159,9,1.002790151820037
undo,45,9,1,0,0,7,"[0, 7]",2,19,"[3, 4, 5, 8, 9, 10, 11, 16, 17, 18, 19, 20, 21, 22, 23, 25, 26, 27, 28]",258.4067313,24916,117,39,322,9,1.0
undo,45,9,1,0,0,0,[0],1,27,"[1, 3, 4, 5, 6, 7, 8, 9, 10, 11, 13, 14, 15, 16, 17, 18, 19, 20, 21, 22, 23, 24, 25, 26, 27, 28, 29]",300,25316,400,2,182,10,0.0
undo,45,9,0,0,0,27,"[0, 27]",2,18,"[3, 4, 7, 8, 9, 10, 11, 16, 17, 18, 19, 20, 21, 22, 23, 25, 26, 28]",246.3996269,26223,907,6,149,9,1.0
undo,45,9,0,0,0,25,"[0, 27, 25]",3,16,"[3, 4, 7, 8, 9, 10, 11, 17, 18, 19, 20, 21, 22, 23, 26, 28]",210.4969807,26927,704,6,109,9,3.7164105930635247
undo,45,9,0,0,0,10,"[0, 27, 25, 10]",4,13,"[4, 7, 8, 9, 11, 17, 18, 20, 21, 22, 23, 26, 28]",170.647263,27927,1000,5,56,9,2.380770024811378
undo,45,9,0,0,0,28,"[0, 27, 25, 10, 28]",5,8,"[8, 9, 18, 20, 21, 22, 23, 26]",113.647263,29951,2024,1,14,9,2.5089053854195744
undo,45,9,0,0,0,8,"[0, 27, 25, 10, 28, 8]",6,6,"[9, 20, 21, 22, 23, 26]",102.8306092,30447,496,1,6,9,3.0913560088673475
undo,45,9,0,0,0,23,"[0, 27, 25, 10, 28, 8, 23]",7,3,"[9, 21, 26]",81.35969865,31415,968,1,2,9,3.6721642436794952
undo,45,9,0,0,0,9,"[0, 27, 25, 10, 28, 8, 23, 9]",8,1,[26],58.99901888,33063,1648,1,0,9,3.236443541769683
undo,45,9,0,0,1,26,"[0, 27, 25, 10, 28, 8, 23, 9, 26]",9,0,[],2.350982727,36975,3912,1,0,9,2.5478270613856613
undo,45,9,0,1,1,26,"[0, 27, 25, 10, 28, 8, 23, 9, 26]",9,0,[],2.350982727,38249,1274,1,0,9,2.5478270613856613
undo,46,2,0,0,0,0,[0],1,23,"[1, 2, 4, 5, 6, 7, 8, 9, 12, 13, 15, 16, 17, 18, 19, 20, 22, 23, 25, 26, 27, 28, 29]",300,133,-1,70,620,10,0.0
undo,46,2,0,0,0,19,"[0, 19]",2,22,"[1, 2, 4, 5, 6, 7, 8, 9, 12, 13, 15, 16, 17, 18, 20, 22, 23, 25, 26, 27, 28, 29]",210.306076,3536,3403,67,431,10,1.0
undo,46,2,0,0,0,12,"[0, 19, 12]",3,17,"[1, 4, 5, 6, 7, 13, 15, 16, 17, 18, 20, 22, 25, 26, 27, 28, 29]",174.2921898,4520,984,66,298,10,1.1107635036313153
undo,46,2,0,0,0,5,"[0, 19, 12, 5]",4,11,"[1, 6, 7, 13, 15, 16, 18, 22, 25, 26, 29]",144.7625437,5536,1016,38,136,10,1.0968174771581647
undo,46,2,0,0,0,22,"[0, 19, 12, 5, 22]",5,8,"[1, 6, 7, 13, 15, 18, 26, 29]",131.9562952,6128,592,20,63,10,1.0889910507461968
undo,46,2,0,0,0,13,"[0, 19, 12, 5, 22, 13]",6,7,"[1, 6, 7, 15, 18, 26, 29]",117.0902265,6953,825,19,20,10,1.236526217328057
undo,46,2,0,0,0,18,"[0, 19, 12, 5, 22, 13, 18]",7,4,"[7, 15, 26, 29]",81.91921567,7937,984,10,3,10,1.2128708213409936
undo,46,2,0,0,0,7,"[0, 19, 12, 5, 22, 13, 18, 7]",8,3,"[15, 26, 29]",71.62358553,8856,919,5,0,10,1.2019811287894737
undo,46,2,0,0,0,26,"[0, 19, 12, 5, 22, 13, 18, 7, 26]",9,2,"[15, 29]",48.82007703,10088,1232,2,0,10,1.1883593342191134
undo,46,2,0,0,1,15,"[0, 19, 12, 5, 22, 13, 18, 7, 26, 15]",10,0,[],24.61264015,11417,1329,1,0,10,1.4619750353663825
undo,46,2,0,1,1,15,"[0, 19, 12, 5, 22, 13, 18, 7, 26, 15]",10,0,[],24.61264015,18817,7400,1,0,10,1.4619750353663825
undo,47,12,0,0,0,0,[0],1,29,"[1, 2, 3, 4, 5, 6, 7, 8, 9, 10, 11, 12, 13, 14, 15, 16, 17, 18, 19, 20, 21, 22, 23, 24, 25, 26, 27, 28, 29]",300,116,-1,2,32,9,0.0
undo,47,12,0,0,0,22,"[0, 22]",2,22,"[2, 4, 5, 6, 7, 9, 10, 12, 13, 14, 15, 16, 17, 18, 19, 21, 23, 24, 25, 27, 28, 29]",211.9943184,2863,2747,6,42,8,1.0
undo,47,12,0,0,0,16,"[0, 22, 16]",3,12,"[2, 4, 5, 6, 7, 12, 14, 19, 23, 24, 25, 27]",190.9943184,3919,1056,6,24,8,1.2017164145167045
undo,47,12,0,0,0,4,"[0, 22, 16, 4]",4,9,"[2, 6, 7, 12, 14, 19, 24, 25, 27]",156.7890556,4799,880,6,14,8,1.146531713305579
undo,47,12,0,0,0,12,"[0, 22, 16, 4, 12]",5,4,"[14, 19, 24, 27]",114.5990094,6215,1416,4,3,8,1.1221389456954312
undo,47,12,0,0,0,27,"[0, 22, 16, 4, 12, 27]",6,3,"[14, 19, 24]",90.24741807,7031,816,2,1,8,1.2262878338287035
undo,47,12,0,0,0,14,"[0, 22, 16, 4, 12, 27, 14]",7,1,[24],61.59432051,7999,968,1,0,8,1.2804562106751427
undo,47,12,0,0,1,24,"[0, 22, 16, 4, 12, 27, 14, 24]",8,0,[],44.38966997,8759,760,1,0,8,1.4322660007679802
undo,47,12,1,0,0,14,"[0, 22, 16, 4, 12, 27, 14]",7,1,[24],61.59432051,15599,6840,1,0,8,1.2804562106751427
undo,47,12,1,0,0,27,"[0, 22, 16, 4, 12, 27]",6,3,"[14, 19, 24]",90.24741807,15799,200,2,1,8,1.2262878338287035
undo,47,12,1,0,0,12,"[0, 22, 16, 4, 12]",5,4,"[14, 19, 24, 27]",114.5990094,16033,234,4,3,8,1.1221389456954312
undo,47,12,1,0,0,4,"[0, 22, 16, 4]",4,9,"[2, 6, 7, 12, 14, 19, 24, 25, 27]",156.7890556,16216,183,6,14,8,1.146531713305579
undo,47,12,1,0,0,16,"[0, 22, 16]",3,12,"[2, 4, 5, 6, 7, 12, 14, 19, 23, 24, 25, 27]",190.9943184,16416,200,6,24,8,1.2017164145167045
undo,47,12,1,0,0,22,"[0, 22]",2,22,"[2, 4, 5, 6, 7, 9, 10, 12, 13, 14, 15, 16, 17, 18, 19, 21, 23, 24, 25, 27, 28, 29]",211.9943184,16699,283,6,42,8,1.0
undo,47,12,1,0,0,0,[0],1,29,"[1, 2, 3, 4, 5, 6, 7, 8, 9, 10, 11, 12, 13, 14, 15, 16, 17, 18, 19, 20, 21, 22, 23, 24, 25, 26, 27, 28, 29]",300,17299,600,2,32,9,0.0
undo,47,12,0,0,0,25,"[0, 25]",2,16,"[2, 4, 5, 6, 7, 9, 12, 14, 16, 18, 19, 22, 23, 24, 27, 28]",225.7975742,19271,1972,5,34,8,1.0
undo,47,12,0,0,0,22,"[0, 25, 22]",3,11,"[2, 4, 5, 6, 7, 12, 14, 16, 19, 24, 27]",153.5964661,20415,1144,1,10,8,1.6635691148622656
undo,47,12,0,0,0,16,"[0, 25, 22, 16]",4,7,"[4, 6, 12, 14, 19, 24, 27]",132.5964661,21151,736,1,6,8,1.8455145785330662
undo,47,12,0,0,0,4,"[0, 25, 22, 16, 4]",5,5,"[12, 14, 19, 24, 27]",98.39120339,22063,912,1,4,8,1.6140587576122385
undo,47,12,0,0,0,12,"[0, 25, 22, 16, 4, 12]",6,2,"[14, 27]",56.20115717,23031,968,1,1,8,1.4755917731057815
undo,47,12,0,0,0,27,"[0, 25, 22, 16, 4, 12, 27]",7,1,[14],31.84956584,23943,912,1,0,8,1.5677023473114235
undo,47,12,0,0,1,14,"[0, 25, 22, 16, 4, 12, 27, 14]",8,0,[],3.196468279,25071,1128,1,0,8,1.5941060060123788
undo,47,12,1,0,0,27,"[0, 25, 22, 16, 4, 12, 27]",7,1,[14],31.84956584,30833,5762,1,0,8,1.5677023473114235
undo,47,12,1,0,0,12,"[0, 25, 22, 16, 4, 12]",6,2,"[14, 27]",56.20115717,31083,250,1,1,8,1.4755917731057815
undo,47,12,1,0,0,4,"[0, 25, 22, 16, 4]",5,5,"[12, 14, 19, 24, 27]",98.39120339,31299,216,1,4,8,1.6140587576122385
undo,47,12,1,0,0,16,"[0, 25, 22, 16]",4,7,"[4, 6, 12, 14, 19, 24, 27]",132.5964661,31499,200,1,6,8,1.8455145785330662
undo,47,12,1,0,0,22,"[0, 25, 22]",3,11,"[2, 4, 5, 6, 7, 12, 14, 16, 19, 24, 27]",153.5964661,31716,217,1,10,8,1.6635691148622656
undo,47,12,1,0,0,25,"[0, 25]",2,16,"[2, 4, 5, 6, 7, 9, 12, 14, 16, 18, 19, 22, 23, 24, 27, 28]",225.7975742,32199,483,5,34,8,1.0
undo,47,12,1,0,0,0,[0],1,29,"[1, 2, 3, 4, 5, 6, 7, 8, 9, 10, 11, 12, 13, 14, 15, 16, 17, 18, 19, 20, 21, 22, 23, 24, 25, 26, 27, 28, 29]",300,32599,400,2,32,9,0.0
undo,47,12,0,0,0,6,"[0, 6]",2,28,"[1, 2, 3, 4, 5, 7, 8, 9, 10, 11, 12, 13, 14, 15, 16, 17, 18, 19, 20, 21, 22, 23, 24, 25, 26, 27, 28, 29]",283.5987805,34615,2016,2,18,9,1.0
undo,47,12,0,0,0,22,"[0, 6, 22]",3,13,"[2, 4, 5, 7, 12, 13, 14, 16, 19, 23, 24, 25, 27]",182.0015365,35655,1040,2,9,9,1.3408050629015749
undo,47,12,0,0,0,16,"[0, 6, 22, 16]",4,10,"[2, 4, 5, 7, 12, 14, 19, 24, 25, 27]",161.0015365,36343,688,2,7,9,1.5323672374573825
undo,47,12,0,0,0,4,"[0, 6, 22, 16, 4]",5,6,"[12, 14, 19, 24, 25, 27]",126.7962737,37391,1048,2,5,9,1.38665076120851
undo,47,12,0,0,0,12,"[0, 6, 22, 16, 4, 12]",6,3,"[14, 24, 27]",84.6062275,38255,864,2,3,9,1.3036701691846924
undo,47,12,0,0,0,27,"[0, 6, 22, 16, 4, 12, 27]",7,2,"[14, 24]",60.25463618,39184,929,2,0,9,1.401636252408167
undo,47,12,0,0,0,14,"[0, 6, 22, 16, 4, 12, 27, 14]",8,1,[24],31.60153862,40367,1183,1,0,9,1.4415448388010776
undo,47,12,0,0,1,24,"[0, 6, 22, 16, 4, 12, 27, 14, 24]",9,0,[],14.39688808,42151,1784,1,0,9,1.6003250998053893
undo,47,12,0,1,1,24,"[0, 6, 22, 16, 4, 12, 27, 14, 24]",9,0,[],14.39688808,44016,1865,1,0,9,1.6003250998053893
undo,48,40,0,0,0,0,[0],1,29,"[1, 2, 3, 4, 5, 6, 7, 8, 9, 10, 11, 12, 13, 14, 15, 16, 17, 18, 19, 20, 21, 22, 23, 24, 25, 26, 27, 28, 29]",300,116,-1,8,191,9,0.0
undo,48,40,0,0,0,2,"[0, 2]",2,28,"[1, 3, 4, 5, 6, 7, 8, 9, 10, 11, 12, 13, 14, 15, 16, 17, 18, 19, 20, 21, 22, 23, 24, 25, 26, 27, 28, 29]",263.7646581,4742,4626,4,79,9,1.0
undo,48,40,0,0,0,1,"[0, 2, 1]",3,13,"[5, 6, 8, 9, 10, 13, 17, 18, 19, 21, 22, 23, 27]",197.9695215,6286,1544,3,32,9,1.9563451201211088
undo,48,40,0,0,0,6,"[0, 2, 1, 6]",4,10,"[5, 8, 9, 13, 17, 18, 19, 21, 22, 23]",177.8697703,6990,704,3,29,9,1.767962123020631
undo,48,40,0,0,0,21,"[0, 2, 1, 6, 21]",5,5,"[5, 9, 18, 19, 23]",125.8986245,8838,1848,2,8,9,1.4447873803466464
undo,48,40,0,0,0,9,"[0, 2, 1, 6, 21, 9]",6,4,"[5, 18, 19, 23]",80.19304493,9854,1016,2,4,9,1.782283650173066
undo,48,40,0,0,0,18,"[0, 2, 1, 6, 21, 9, 18]",7,3,"[5, 19, 23]",63.64009957,10518,664,2,1,9,1.995326683187404
undo,48,40,0,0,0,5,"[0, 2, 1, 6, 21, 9, 18, 5]",8,1,[23],32.06479276,11478,960,1,0,9,2.1786230434695777
undo,48,40,0,0,1,23,"[0, 2, 1, 6, 21, 9, 18, 5, 23]",9,0,[],3.762849365,12422,944,1,0,9,3.123307890772679
undo,48,40,0,1,1,23,"[0, 2, 1, 6, 21, 9, 18, 5, 23]",9,0,[],3.762849365,15699,3277,1,0,9,3.123307890772679
undo,49,4,0,0,0,0,[0],1,26,"[3, 4, 5, 6, 7, 8, 10, 11, 12, 13, 14, 15, 16, 17, 18, 19, 20, 21, 22, 23, 24, 25, 26, 27, 28, 29]",300,132,-1,4,489,10,0.0
undo,49,4,0,0,0,28,"[0, 28]",2,21,"[3, 4, 5, 6, 10, 11, 12, 13, 14, 15, 16, 17, 19, 20, 21, 22, 23, 24, 25, 26, 27]",225.9392142,2185,2053,2,216,10,1.0
undo,49,4,0,0,0,14,"[0, 28, 14]",3,13,"[3, 4, 5, 6, 11, 13, 16, 17, 20, 21, 22, 24, 25]",159.6972335,3433,1248,1,26,10,1.0273973946789214
undo,49,4,0,0,0,25,"[0, 28, 14, 25]",4,12,"[3, 4, 5, 6, 11, 13, 16, 17, 20, 21, 22, 24]",143.572718,4249,816,1,25,10,1.233547772313525
undo,49,4,0,0,0,11,"[0, 28, 14, 25, 11]",5,10,"[3, 4, 5, 6, 13, 16, 17, 20, 21, 22]",124.7844238,5553,1304,1,15,10,1.425978575879479
undo,49,4,0,0,0,16,"[0, 28, 14, 25, 11, 16]",6,9,"[3, 4, 5, 6, 13, 17, 20, 21, 22]",109.7844238,6305,752,1,12,10,1.3799325158051412
undo,49,4,0,0,0,21,"[0, 28, 14, 25, 11, 16, 21]",7,4,"[5, 17, 20, 22]",65.58035157,7841,1536,3,3,9,1.5860540591673642
undo,49,4,0,0,0,22,"[0, 28, 14, 25, 11, 16, 21, 22]",8,3,"[5, 17, 20]",54.53499056,8449,608,3,0,9,1.5471132483772176
undo,49,4,0,0,1,20,"[0, 28, 14, 25, 11, 16, 21, 22, 20]",9,0,[],24.30255764,9209,760,1,0,9,1.5087977616865345
undo,49,4,0,1,1,20,"[0, 28, 14, 25, 11, 16, 21, 22, 20]",9,0,[],24.30255764,14382,5173,1,0,9,1.5087977616865345
undo,50,21,0,0,0,0,[0],1,29,"[1, 2, 3, 4, 5, 6, 7, 8, 9, 10, 11, 12, 13, 14, 15, 16, 17, 18, 19, 20, 21, 22, 23, 24, 25, 26, 27, 28, 29]",300,116,-1,84,830,9,0.0
undo,50,21,0,0,0,18,"[0, 18]",2,28,"[1, 2, 3, 4, 5, 6, 7, 8, 9, 10, 11, 12, 13, 14, 15, 16, 17, 19, 20, 21, 22, 23, 24, 25, 26, 27, 28, 29]",240.923778,5570,5454,44,305,9,1.0
undo,50,21,0,0,0,29,"[0, 18, 29]",3,24,"[1, 2, 3, 4, 6, 7, 8, 9, 10, 11, 12, 13, 14, 15, 16, 17, 20, 21, 22, 23, 24, 25, 26, 27]",212.2706805,6450,880,11,87,9,1.035555280387994
undo,50,21,0,0,0,25,"[0, 18, 29, 25]",4,18,"[1, 4, 6, 8, 9, 10, 11, 12, 14, 15, 16, 17, 20, 21, 22, 23, 24, 26]",167.0490043,7330,880,6,45,9,2.2226517719335437
undo,50,21,0,0,0,23,"[0, 18, 29, 25, 23]",5,10,"[4, 8, 14, 15, 16, 17, 20, 21, 22, 24]",123.7246462,8154,824,3,20,9,1.7801958981326236
undo,50,21,0,0,0,21,"[0, 18, 29, 25, 23, 21]",6,3,"[4, 14, 16]",94.11046043,8898,744,1,3,9,2.290491065218303
undo,50,21,0,0,0,14,"[0, 18, 29, 25, 23, 21, 14]",7,2,"[4, 16]",68.49796348,9794,896,1,1,9,2.021100447974041
undo,50,21,0,0,0,4,"[0, 18, 29, 25, 23, 21, 14, 4]",8,1,[16],54.35582786,10483,689,1,0,9,1.9205022281831265
undo,50,21,0,0,1,16,"[0, 18, 29, 25, 23, 21, 14, 4, 16]",9,0,[],9.757621617,11779,1296,1,0,9,1.7782202964615115
undo,50,21,0,1,1,16,"[0, 18, 29, 25, 23, 21, 14, 4, 16]",9,0,[],9.757621617,14816,3037,1,0,9,1.7782202964615115
undo,51,8,0,0,0,0,[0],1,29,"[1, 2, 3, 4, 5, 6, 7, 8, 9, 10, 11, 12, 13, 14, 15, 16, 17, 18, 19, 20, 21, 22, 23, 24, 25, 26, 27, 28, 29]",300,132,-1,10,149,9,0.0
undo,51,8,0,0,0,5,"[0, 5]",2,28,"[1, 2, 3, 4, 6, 7, 8, 9, 10, 11, 12, 13, 14, 15, 16, 17, 18, 19, 20, 21, 22, 23, 24, 25, 26, 27, 28, 29]",254.5137383,2737,2605,10,100,9,1.0
undo,51,8,0,0,0,25,"[0, 5, 25]",3,20,"[1, 2, 3, 4, 6, 11, 12, 14, 15, 16, 17, 18, 19, 20, 21, 22, 23, 24, 28, 29]",215.3091468,3544,807,4,42,9,1.2272747879909065
undo,51,8,0,0,0,1,"[0, 5, 25, 1]",4,17,"[3, 4, 6, 11, 12, 14, 15, 16, 17, 18, 20, 21, 22, 23, 24, 28, 29]",190.3091468,4329,785,3,24,9,1.1770245007593956
undo,51,8,0,0,0,23,"[0, 5, 25, 1, 23]",5,15,"[3, 4, 6, 11, 14, 15, 16, 17, 18, 20, 21, 22, 24, 28, 29]",167.2874179,5017,688,1,14,9,1.141996583852372
undo,51,8,0,0,0,18,"[0, 5, 25, 1, 23, 18]",6,9,"[3, 4, 11, 14, 15, 16, 17, 24, 28]",125.5261919,6145,1128,1,7,9,1.3199166330970717
undo,51,8,0,0,0,14,"[0, 5, 25, 1, 23, 18, 14]",7,2,"[11, 17]",68.03706246,7009,864,1,1,9,2.714920831666598
undo,51,8,0,0,0,17,"[0, 5, 25, 1, 23, 18, 14, 17]",8,1,[11],31.02355141,8689,1680,1,0,9,2.462600896722246
undo,51,8,0,0,1,11,"[0, 5, 25, 1, 23, 18, 14, 17, 11]",9,0,[],5.84419479,9753,1064,1,0,9,2.246839316887767
undo,51,8,0,1,1,11,"[0, 5, 25, 1, 23, 18, 14, 17, 11]",9,0,[],5.84419479,11766,2013,1,0,9,2.246839316887767
undo,52,18,0,0,0,0,[0],1,28,"[1, 2, 3, 4, 5, 6, 7, 8, 9, 10, 11, 12, 13, 14, 16, 17, 18, 19, 20, 21, 22, 23, 24, 25, 26, 27, 28, 29]",300,133,-1,3,136,10,0.0
undo,52,18,0,0,0,28,"[0, 28]",2,16,"[1, 3, 5, 7, 8, 9, 12, 13, 14, 16, 20, 23, 24, 25, 26, 27]",236.4311397,2530,2397,2,19,10,1.0
undo,52,18,0,0,0,7,"[0, 28, 7]",3,15,"[1, 3, 5, 8, 9, 12, 13, 14, 16, 20, 23, 24, 25, 26, 27]",214.4084242,3378,848,2,17,10,1.4345180696367563
undo,52,18,0,0,0,25,"[0, 28, 7, 25]",4,13,"[1, 3, 5, 8, 9, 12, 13, 14, 16, 20, 23, 26, 27]",186.6055466,4410,1032,2,15,10,1.8896451241781882
undo,52,18,0,0,0,8,"[0, 28, 7, 25, 8]",5,10,"[3, 5, 9, 12, 13, 14, 16, 23, 26, 27]",149.551532,5250,840,2,10,10,1.590467437592877
undo,52,18,0,0,0,13,"[0, 28, 7, 25, 8, 13]",6,9,"[3, 5, 9, 12, 14, 16, 23, 26, 27]",128.4565089,6578,1328,2,5,10,1.8248274983549797
undo,52,18,0,0,0,14,"[0, 28, 7, 25, 8, 13, 14]",7,7,"[3, 5, 9, 12, 23, 26, 27]",109.4828429,7402,824,2,3,10,1.6993534956692746
undo,52,18,0,0,0,3,"[0, 28, 7, 25, 8, 13, 14, 3]",8,3,"[5, 12, 27]",79.39962499,8210,808,2,1,10,1.802637206541468
undo,52,18,0,0,0,5,"[0, 28, 7, 25, 8, 13, 14, 3, 5]",9,1,[12],21.21887216,9466,1256,1,0,10,1.559774889743805
undo,52,18,0,0,1,12,"[0, 28, 7, 25, 8, 13, 14, 3, 5, 12]",10,0,[],9.817117911,10162,696,1,0,10,1.563993037384447
undo,52,18,0,1,1,12,"[0, 28, 7, 25, 8, 13, 14, 3, 5, 12]",10,0,[],9.817117911,14899,4737,1,0,10,1.563993037384447
undo,53,38,0,0,0,0,[0],1,29,"[1, 2, 3, 4, 5, 6, 7, 8, 9, 10, 11, 12, 13, 14, 15, 16, 17, 18, 19, 20, 21, 22, 23, 24, 25, 26, 27, 28, 29]",300,116,-1,33,506,9,0.0
undo,53,38,0,0,0,28,"[0, 28]",2,17,"[1, 4, 5, 7, 10, 11, 12, 13, 14, 15, 16, 17, 19, 20, 21, 24, 26]",193.2058054,4333,4217,8,56,8,1.0
undo,53,38,0,0,0,11,"[0, 28, 11]",3,15,"[1, 4, 5, 7, 10, 12, 13, 14, 15, 16, 17, 19, 20, 24, 26]",166.1872932,5357,1024,4,28,8,1.6746224343867522
undo,53,38,0,0,0,16,"[0, 28, 11, 16]",4,11,"[4, 5, 10, 12, 13, 14, 15, 17, 20, 24, 26]",129.1872932,7005,1648,1,8,8,1.5611219162884433
undo,53,38,0,0,0,15,"[0, 28, 11, 16, 15]",5,5,"[4, 13, 17, 20, 26]",87.56998914,8037,1032,1,6,8,2.895098509167221
undo,53,38,0,0,0,4,"[0, 28, 11, 16, 15, 4]",6,4,"[13, 17, 20, 26]",61.56998914,8805,768,1,3,8,3.400595544414592
undo,53,38,0,0,0,20,"[0, 28, 11, 16, 15, 4, 20]",7,1,[17],27.62886364,9814,1009,1,0,8,5.05780502760381
undo,53,38,0,0,1,17,"[0, 28, 11, 16, 15, 4, 20, 17]",8,0,[],3.859134991,10838,1024,1,0,8,4.569008855903241
undo,53,38,1,0,0,20,"[0, 28, 11, 16, 15, 4, 20]",7,1,[17],27.62886364,13266,2428,1,0,8,5.05780502760381
undo,53,38,1,0,0,4,"[0, 28, 11, 16, 15, 4]",6,4,"[13, 17, 20, 26]",61.56998914,13449,183,1,3,8,3.400595544414592
undo,53,38,1,0,0,15,"[0, 28, 11, 16, 15]",5,5,"[4, 13, 17, 20, 26]",87.56998914,13599,150,1,6,8,2.895098509167221
undo,53,38,1,0,0,16,"[0, 28, 11, 16]",4,11,"[4, 5, 10, 12, 13, 14, 15, 17, 20, 24, 26]",129.1872932,13766,167,1,8,8,1.5611219162884433
undo,53,38,1,0,0,11,"[0, 28, 11]",3,15,"[1, 4, 5, 7, 10, 12, 13, 14, 15, 16, 17, 19, 20, 24, 26]",166.1872932,13933,167,4,28,8,1.6746224343867522
undo,53,38,1,0,0,28,"[0, 28]",2,17,"[1, 4, 5, 7, 10, 11, 12, 13, 14, 15, 16, 17, 19, 20, 21, 24, 26]",193.2058054,14166,233,8,56,8,1.0
undo,53,38,1,0,0,0,[0],1,29,"[1, 2, 3, 4, 5, 6, 7, 8, 9, 10, 11, 12, 13, 14, 15, 16, 17, 18, 19, 20, 21, 22, 23, 24, 25, 26, 27, 28, 29]",300,14716,550,33,506,9,0.0
undo,53,38,0,0,0,11,"[0, 11]",2,23,"[1, 2, 3, 4, 5, 7, 10, 12, 13, 14, 15, 16, 17, 18, 19, 20, 21, 22, 24, 25, 26, 27, 28]",220.093805,15390,674,2,40,9,1.0
undo,53,38,0,0,0,28,"[0, 11, 28]",3,16,"[1, 4, 5, 7, 10, 12, 13, 14, 15, 16, 17, 19, 20, 21, 24, 26]",193.0752928,16294,904,2,20,9,1.0012220945316377
undo,53,38,0,0,0,16,"[0, 11, 28, 16]",4,13,"[1, 4, 5, 10, 12, 13, 14, 15, 17, 19, 20, 24, 26]",164.0752928,17102,808,2,16,9,1.2422672958602723
undo,53,38,0,0,0,15,"[0, 11, 28, 16, 15]",5,9,"[4, 5, 13, 14, 17, 19, 20, 24, 26]",122.4579887,18894,1792,2,14,9,2.4196280466601676
undo,53,38,0,0,0,4,"[0, 11, 28, 16, 15, 4]",6,6,"[13, 17, 19, 20, 24, 26]",96.45798873,19502,608,2,9,9,2.9030072771852855
undo,53,38,0,0,0,20,"[0, 11, 28, 16, 15, 4, 20]",7,3,"[13, 17, 19]",62.51686323,20174,672,1,2,9,4.409951139385221
undo,53,38,0,0,0,17,"[0, 11, 28, 16, 15, 4, 20, 17]",8,1,[19],38.74713459,20790,616,1,0,9,4.030739410625113
undo,53,38,0,0,1,19,"[0, 11, 28, 16, 15, 4, 20, 17, 19]",9,0,[],17.36957626,21374,584,1,0,9,3.511004666623391
undo,53,38,0,1,1,19,"[0, 11, 28, 16, 15, 4, 20, 17, 19]",9,0,[],17.36957626,28049,6675,1,0,9,3.511004666623391
undo,54,17,0,0,0,0,[0],1,28,"[1, 2, 3, 4, 5, 6, 7, 8, 9, 10, 11, 12, 13, 14, 15, 16, 17, 18, 19, 20, 22, 23, 24, 25, 26, 27, 28, 29]",300,133,-1,2,73,8,0.0
undo,54,17,0,0,0,9,"[0, 9]",2,25,"[1, 2, 3, 5, 6, 7, 8, 10, 11, 12, 14, 15, 16, 17, 18, 19, 20, 22, 23, 24, 25, 26, 27, 28, 29]",210.5293344,3275,3142,1,34,8,1.0
undo,54,17,0,0,0,16,"[0, 9, 16]",3,21,"[1, 2, 3, 5, 7, 8, 10, 11, 12, 14, 17, 18, 19, 20, 22, 23, 25, 26, 27, 28, 29]",197.1876704,3907,632,1,26,8,1.173103464220352
undo,54,17,0,0,0,2,"[0, 9, 16, 2]",4,18,"[1, 3, 5, 7, 8, 10, 11, 12, 14, 17, 18, 19, 23, 25, 26, 27, 28, 29]",181.0631549,4499,592,1,23,8,1.14825089247282
undo,54,17,0,0,0,17,"[0, 9, 16, 2, 17]",5,7,"[7, 8, 12, 14, 26, 27, 29]",142.7356191,5659,1160,4,5,7,1.4896040699768547
undo,54,17,0,0,0,8,"[0, 9, 16, 2, 17, 8]",6,3,"[7, 12, 27]",104.5256727,6499,840,3,0,7,1.4604726966175894
undo,54,17,0,0,1,27,"[0, 9, 16, 2, 17, 8, 27]",7,0,[],21.88790895,8963,2464,1,0,7,1.2949460667276491
undo,54,17,0,1,1,27,"[0, 9, 16, 2, 17, 8, 27]",7,0,[],21.88790895,14233,5270,1,0,7,1.2949460667276491
undo,55,23,0,0,0,0,[0],1,28,"[1, 2, 3, 4, 5, 6, 7, 8, 9, 10, 11, 12, 13, 14, 15, 16, 17, 18, 19, 20, 21, 22, 23, 25, 26, 27, 28, 29]",300,116,-1,76,2626,10,0.0
undo,55,23,0,0,0,13,"[0, 13]",2,19,"[1, 2, 3, 5, 6, 7, 8, 9, 10, 12, 14, 17, 18, 19, 21, 22, 23, 27, 29]",189.3202819,2625,2509,9,168,10,1.0
undo,55,23,0,0,0,12,"[0, 13, 12]",3,16,"[1, 2, 3, 6, 7, 8, 9, 10, 14, 17, 18, 21, 22, 23, 27, 29]",177.2372359,3914,1289,9,96,10,1.0014195490503164
undo,55,23,0,0,0,2,"[0, 13, 12, 2]",4,12,"[1, 3, 6, 7, 9, 10, 14, 18, 21, 22, 27, 29]",163.3447919,5033,1119,4,30,10,1.0014394317924602
undo,55,23,0,0,0,6,"[0, 13, 12, 2, 6]",5,8,"[7, 9, 10, 14, 18, 22, 27, 29]",144.905703,8337,3304,2,11,10,1.0322887343644427
undo,55,23,0,0,0,14,"[0, 13, 12, 2, 6, 14]",6,7,"[7, 9, 10, 18, 22, 27, 29]",116.0439636,9137,800,1,4,10,1.305671089460822
undo,55,23,0,0,0,9,"[0, 13, 12, 2, 6, 14, 9]",7,6,"[7, 10, 18, 22, 27, 29]",105.6036571,10066,929,1,3,10,1.4879353140485658
undo,55,23,0,0,0,29,"[0, 13, 12, 2, 6, 14, 9, 29]",8,2,"[7, 10]",53.98001913,13753,3687,1,1,10,1.5953811457786307
undo,55,23,0,0,0,7,"[0, 13, 12, 2, 6, 14, 9, 29, 7]",9,1,[10],29.89682997,14850,1097,1,0,10,1.6059372050079357
undo,55,23,0,0,1,10,"[0, 13, 12, 2, 6, 14, 9, 29, 7, 10]",10,0,[],2.437769539,16194,1344,1,0,10,1.5568722197385467
undo,55,23,0,1,1,10,"[0, 13, 12, 2, 6, 14, 9, 29, 7, 10]",10,0,[],2.437769539,18649,2455,1,0,10,1.5568722197385467
undo,56,7,0,0,0,0,[0],1,29,"[1, 2, 3, 4, 5, 6, 7, 8, 9, 10, 11, 12, 13, 14, 15, 16, 17, 18, 19, 20, 21, 22, 23, 24, 25, 26, 27, 28, 29]",300,116,-1,3,79,9,0.0
undo,56,7,0,0,0,15,"[0, 15]",2,19,"[2, 4, 5, 6, 7, 8, 9, 10, 13, 14, 16, 18, 19, 20, 21, 23, 25, 27, 28]",230.9348134,3071,2955,2,38,9,1.0
undo,56,7,0,0,0,6,"[0, 15, 6]",3,18,"[2, 4, 5, 7, 8, 9, 10, 13, 14, 16, 18, 19, 20, 21, 23, 25, 27, 28]",205.854941,3839,768,2,36,9,1.366719602896943
undo,56,7,0,0,0,25,"[0, 15, 6, 25]",4,11,"[2, 4, 7, 13, 14, 16, 18, 19, 20, 21, 23]",138.6760753,5087,1248,2,28,9,1.3624631728355765
undo,56,7,0,0,0,4,"[0, 15, 6, 25, 4]",5,7,"[2, 7, 13, 16, 18, 19, 20]",113.9374415,5903,816,2,12,9,1.3249684384385587
undo,56,7,0,0,0,20,"[0, 15, 6, 25, 4, 20]",6,5,"[2, 7, 13, 18, 19]",94.29055881,6759,856,1,6,9,1.3721893242679268
undo,56,7,0,0,0,18,"[0, 15, 6, 25, 4, 20, 18]",7,3,"[7, 13, 19]",81.48431034,7399,640,1,2,9,1.5262542308371432
undo,56,7,0,0,0,7,"[0, 15, 6, 25, 4, 20, 18, 7]",8,1,[19],40.25325408,9279,1880,1,0,9,1.41986878673423
undo,56,7,0,0,1,19,"[0, 15, 6, 25, 4, 20, 18, 7, 19]",9,0,[],10.84237174,10407,1128,1,0,9,1.5285658163212987
undo,56,7,0,1,1,19,"[0, 15, 6, 25, 4, 20, 18, 7, 19]",9,0,[],10.84237174,12949,2542,1,0,9,1.5285658163212987
undo,57,42,0,0,0,0,[0],1,29,"[1, 2, 3, 4, 5, 6, 7, 8, 9, 10, 11, 12, 13, 14, 15, 16, 17, 18, 19, 20, 21, 22, 23, 24, 25, 26, 27, 28, 29]",300,117,-1,16,302,9,0.0
undo,57,42,0,0,0,5,"[0, 5]",2,28,"[1, 2, 3, 4, 6, 7, 8, 9, 10, 11, 12, 13, 14, 15, 16, 17, 18, 19, 20, 21, 22, 23, 24, 25, 26, 27, 28, 29]",191.2939744,2386,2269,1,22,9,1.0
undo,57,42,0,0,0,4,"[0, 5, 4]",3,23,"[1, 2, 3, 6, 7, 8, 9, 10, 11, 13, 15, 17, 18, 19, 20, 21, 22, 23, 24, 25, 26, 27, 29]",171.4445412,3634,1248,1,14,9,1.420957801478707
undo,57,42,0,0,0,22,"[0, 5, 4, 22]",4,20,"[1, 2, 3, 6, 7, 8, 9, 11, 15, 17, 18, 19, 20, 21, 23, 24, 25, 26, 27, 29]",160.2642013,4730,1096,1,11,9,1.5771494659680896
undo,57,42,0,0,0,8,"[0, 5, 4, 22, 8]",5,14,"[1, 2, 3, 6, 7, 11, 15, 18, 19, 24, 25, 26, 27, 29]",138.1282577,5626,896,1,10,9,1.5055393955524201
undo,57,42,0,0,0,1,"[0, 5, 4, 22, 8, 1]",6,5,"[2, 7, 19, 26, 27]",89.03650682,6610,984,1,7,9,1.3547259083637835
undo,57,42,0,0,0,7,"[0, 5, 4, 22, 8, 1, 7]",7,4,"[2, 19, 26, 27]",59.03650682,7618,1008,1,3,9,1.3909715672447451
undo,57,42,0,0,0,26,"[0, 5, 4, 22, 8, 1, 7, 26]",8,1,[27],32.46584631,8802,1184,1,0,9,1.3511825943939393
undo,57,42,0,0,1,27,"[0, 5, 4, 22, 8, 1, 7, 26, 27]",9,0,[],14.43808994,9946,1144,1,0,9,1.3391911688802078
undo,57,42,0,1,1,27,"[0, 5, 4, 22, 8, 1, 7, 26, 27]",9,0,[],14.43808994,11950,2004,1,0,9,1.3391911688802078
undo,58,5,0,0,0,0,[0],1,29,"[1, 2, 3, 4, 5, 6, 7, 8, 9, 10, 11, 12, 13, 14, 15, 16, 17, 18, 19, 20, 21, 22, 23, 24, 25, 26, 27, 28, 29]",300,116,-1,5,139,9,0.0
undo,58,5,0,0,0,12,"[0, 12]",2,22,"[2, 4, 5, 6, 8, 9, 10, 13, 14, 15, 16, 17, 18, 19, 21, 22, 23, 24, 25, 26, 27, 28]",228.3062067,3428,3312,1,27,9,1.0
undo,58,5,0,0,0,25,"[0, 12, 25]",3,21,"[2, 4, 5, 6, 8, 9, 10, 13, 14, 15, 16, 17, 18, 19, 21, 22, 23, 24, 26, 27, 28]",200.5213187,4147,719,1,20,9,1.584023303445617
undo,58,5,0,0,0,23,"[0, 12, 25, 23]",4,19,"[2, 4, 5, 6, 8, 9, 10, 13, 14, 15, 16, 17, 18, 19, 21, 22, 24, 26, 27]",182.0822298,4803,656,1,14,9,2.3508446989254357
undo,58,5,0,0,0,24,"[0, 12, 25, 23, 24]",5,15,"[2, 4, 5, 6, 8, 9, 13, 14, 15, 17, 18, 19, 22, 26, 27]",158.995437,5515,712,1,12,9,1.9469752046288753
undo,58,5,0,0,0,17,"[0, 12, 25, 23, 24, 17]",6,7,"[4, 5, 6, 8, 15, 18, 19]",124.0097257,6347,832,1,8,9,1.6482276497563642
