condition,trial_id,map_id,undoIndicator,submit,checkEnd,currentChoice,chosen_all,n_city_all,n_within_reach,cities_reach,currentBudget,time_all,rt_all,n_opt_paths_all,n_subopt_paths_all,mas_all,tortuosity_all
undo,0,12,0,0,0,0,[0],1,29,"[1, 2, 3, 4, 5, 6, 7, 8, 9, 10, 11, 12, 13, 14, 15, 16, 17, 18, 19, 20, 21, 22, 23, 24, 25, 26, 27, 28, 29]",300,161,-1,2,32,9,0.0
undo,0,12,0,0,0,22,"[0, 22]",2,22,"[2, 4, 5, 6, 7, 9, 10, 12, 13, 14, 15, 16, 17, 18, 19, 21, 23, 24, 25, 27, 28, 29]",211.9943184,7362,7201,6,42,8,1.0
undo,0,12,0,0,0,16,"[0, 22, 16]",3,12,"[2, 4, 5, 6, 7, 12, 14, 19, 23, 24, 25, 27]",190.9943184,8837,1475,6,24,8,1.2017164145167045
undo,0,12,0,0,0,4,"[0, 22, 16, 4]",4,9,"[2, 6, 7, 12, 14, 19, 24, 25, 27]",156.7890556,11421,2584,6,14,8,1.146531713305579
undo,0,12,0,0,0,12,"[0, 22, 16, 4, 12]",5,4,"[14, 19, 24, 27]",114.5990094,12753,1332,4,3,8,1.1221389456954312
undo,0,12,0,0,0,27,"[0, 22, 16, 4, 12, 27]",6,3,"[14, 19, 24]",90.24741807,13981,1228,2,1,8,1.2262878338287035
undo,0,12,0,0,0,14,"[0, 22, 16, 4, 12, 27, 14]",7,1,[24],61.59432051,15013,1032,1,0,8,1.2804562106751427
undo,0,12,0,0,1,24,"[0, 22, 16, 4, 12, 27, 14, 24]",8,0,[],44.38966997,18189,3176,1,0,8,1.4322660007679802
undo,0,12,0,1,1,24,"[0, 22, 16, 4, 12, 27, 14, 24]",8,0,[],44.38966997,29311,11122,1,0,8,1.4322660007679802
undo,1,7,0,0,0,0,[0],1,29,"[1, 2, 3, 4, 5, 6, 7, 8, 9, 10, 11, 12, 13, 14, 15, 16, 17, 18, 19, 20, 21, 22, 23, 24, 25, 26, 27, 28, 29]",300,186,-1,3,79,9,0.0
undo,1,7,0,0,0,15,"[0, 15]",2,19,"[2, 4, 5, 6, 7, 8, 9, 10, 13, 14, 16, 18, 19, 20, 21, 23, 25, 27, 28]",230.9348134,6442,6256,2,38,9,1.0
undo,1,7,0,0,0,6,"[0, 15, 6]",3,18,"[2, 4, 5, 7, 8, 9, 10, 13, 14, 16, 18, 19, 20, 21, 23, 25, 27, 28]",205.854941,8079,1637,2,36,9,1.366719602896943
undo,1,7,0,0,0,25,"[0, 15, 6, 25]",4,11,"[2, 4, 7, 13, 14, 16, 18, 19, 20, 21, 23]",138.6760753,13648,5569,2,28,9,1.3624631728355765
undo,1,7,0,0,0,4,"[0, 15, 6, 25, 4]",5,7,"[2, 7, 13, 16, 18, 19, 20]",113.9374415,16386,2738,2,12,9,1.3249684384385587
undo,1,7,0,0,0,20,"[0, 15, 6, 25, 4, 20]",6,5,"[2, 7, 13, 18, 19]",94.29055881,17517,1131,1,6,9,1.3721893242679268
undo,1,7,0,0,0,18,"[0, 15, 6, 25, 4, 20, 18]",7,3,"[7, 13, 19]",81.48431034,18506,989,1,2,9,1.5262542308371432
undo,1,7,0,0,0,7,"[0, 15, 6, 25, 4, 20, 18, 7]",8,1,[19],40.25325408,19583,1077,1,0,9,1.41986878673423
undo,1,7,0,0,1,19,"[0, 15, 6, 25, 4, 20, 18, 7, 19]",9,0,[],10.84237174,20906,1323,1,0,9,1.5285658163212987
undo,1,7,0,1,1,19,"[0, 15, 6, 25, 4, 20, 18, 7, 19]",9,0,[],10.84237174,22214,1308,1,0,9,1.5285658163212987
undo,2,1,0,0,0,0,[0],1,26,"[1, 2, 4, 5, 7, 8, 9, 10, 11, 12, 13, 14, 15, 16, 17, 18, 19, 20, 21, 22, 23, 24, 25, 26, 28, 29]",300,177,-1,6,74,7,0.0
undo,2,1,0,0,0,14,"[0, 14]",2,19,"[1, 4, 5, 8, 9, 13, 15, 17, 18, 19, 20, 21, 22, 23, 24, 25, 26, 28, 29]",200.1901808,16251,16074,5,42,7,1.0
undo,2,1,0,0,0,17,"[0, 14, 17]",3,15,"[1, 4, 5, 8, 9, 13, 15, 18, 19, 20, 22, 23, 25, 28, 29]",147.8356204,18389,2138,5,27,7,1.0028844724416826
undo,2,1,0,0,0,1,"[0, 14, 17, 1]",4,12,"[4, 5, 8, 9, 15, 18, 20, 22, 23, 25, 28, 29]",123.4840291,37954,19565,5,15,7,1.0264985578353567
undo,2,1,0,0,0,28,"[0, 14, 17, 1, 28]",5,5,"[9, 15, 22, 23, 29]",88.59850198,38973,1019,5,3,7,1.0339861575999345
undo,2,1,0,0,0,23,"[0, 14, 17, 1, 28, 23]",6,2,"[15, 22]",51.70676849,40067,1094,2,0,7,1.0327458250705703
undo,2,1,0,0,1,15,"[0, 14, 17, 1, 28, 23, 15]",7,0,[],20.81987807,41121,1054,1,0,7,1.1948681641401226
undo,2,1,0,1,1,15,"[0, 14, 17, 1, 28, 23, 15]",7,0,[],20.81987807,44148,3027,1,0,7,1.1948681641401226
undo,3,29,0,0,0,0,[0],1,29,"[1, 2, 3, 4, 5, 6, 7, 8, 9, 10, 11, 12, 13, 14, 15, 16, 17, 18, 19, 20, 21, 22, 23, 24, 25, 26, 27, 28, 29]",300,146,-1,1,78,9,0.0
undo,3,29,0,0,0,6,"[0, 6]",2,28,"[1, 2, 3, 4, 5, 7, 8, 9, 10, 11, 12, 13, 14, 15, 16, 17, 18, 19, 20, 21, 22, 23, 24, 25, 26, 27, 28, 29]",228.4108947,18267,18121,1,25,9,1.0
undo,3,29,0,0,0,28,"[0, 6, 28]",3,24,"[1, 3, 4, 5, 7, 9, 10, 11, 12, 13, 14, 15, 16, 17, 18, 20, 21, 22, 23, 24, 25, 26, 27, 29]",187.1798384,19737,1470,1,22,9,1.162106788166845
undo,3,29,0,0,0,27,"[0, 6, 28, 27]",4,19,"[1, 3, 4, 5, 7, 9, 10, 11, 12, 13, 14, 15, 16, 21, 22, 23, 25, 26, 29]",166.6615539,21321,1584,1,21,9,1.2307173895439045
undo,3,29,0,0,0,22,"[0, 6, 28, 27, 22]",5,13,"[1, 3, 4, 5, 7, 9, 12, 13, 14, 15, 21, 26, 29]",133.4200136,22861,1540,1,19,9,1.4241767805149903
undo,3,29,0,0,0,12,"[0, 6, 28, 27, 22, 12]",6,8,"[4, 5, 7, 9, 13, 14, 21, 26]",95.4726817,24300,1439,1,6,9,1.3248355326460857
undo,3,29,0,0,0,7,"[0, 6, 28, 27, 22, 12, 7]",7,4,"[4, 5, 9, 21]",81.87121119,25353,1053,1,3,9,1.3264091962339806
undo,3,29,0,0,0,9,"[0, 6, 28, 27, 22, 12, 7, 9]",8,1,[4],52.80232748,26989,1636,1,0,9,1.309391257644539
undo,3,29,0,0,1,4,"[0, 6, 28, 27, 22, 12, 7, 9, 4]",9,0,[],11.76575843,29886,2897,1,0,9,1.6396807789841599
undo,3,29,0,1,1,4,"[0, 6, 28, 27, 22, 12, 7, 9, 4]",9,0,[],11.76575843,40196,10310,1,0,9,1.6396807789841599
undo,4,2,0,0,0,0,[0],1,23,"[1, 2, 4, 5, 6, 7, 8, 9, 12, 13, 15, 16, 17, 18, 19, 20, 22, 23, 25, 26, 27, 28, 29]",300,212,-1,70,620,10,0.0
undo,4,2,0,0,0,19,"[0, 19]",2,22,"[1, 2, 4, 5, 6, 7, 8, 9, 12, 13, 15, 16, 17, 18, 20, 22, 23, 25, 26, 27, 28, 29]",210.306076,10401,10189,67,431,10,1.0
undo,4,2,0,0,0,12,"[0, 19, 12]",3,17,"[1, 4, 5, 6, 7, 13, 15, 16, 17, 18, 20, 22, 25, 26, 27, 28, 29]",174.2921898,11760,1359,66,298,10,1.1107635036313153
undo,4,2,0,0,0,5,"[0, 19, 12, 5]",4,11,"[1, 6, 7, 13, 15, 16, 18, 22, 25, 26, 29]",144.7625437,12929,1169,38,136,10,1.0968174771581647
undo,4,2,0,0,0,22,"[0, 19, 12, 5, 22]",5,8,"[1, 6, 7, 13, 15, 18, 26, 29]",131.9562952,14901,1972,20,63,10,1.0889910507461968
undo,4,2,0,0,0,13,"[0, 19, 12, 5, 22, 13]",6,7,"[1, 6, 7, 15, 18, 26, 29]",117.0902265,17792,2891,19,20,10,1.236526217328057
undo,4,2,0,0,0,18,"[0, 19, 12, 5, 22, 13, 18]",7,4,"[7, 15, 26, 29]",81.91921567,19233,1441,10,3,10,1.2128708213409936
undo,4,2,0,0,0,7,"[0, 19, 12, 5, 22, 13, 18, 7]",8,3,"[15, 26, 29]",71.62358553,22385,3152,5,0,10,1.2019811287894737
undo,4,2,0,0,0,26,"[0, 19, 12, 5, 22, 13, 18, 7, 26]",9,2,"[15, 29]",48.82007703,23588,1203,2,0,10,1.1883593342191134
undo,4,2,0,0,1,15,"[0, 19, 12, 5, 22, 13, 18, 7, 26, 15]",10,0,[],24.61264015,25068,1480,1,0,10,1.4619750353663825
undo,4,2,0,1,1,15,"[0, 19, 12, 5, 22, 13, 18, 7, 26, 15]",10,0,[],24.61264015,31430,6362,1,0,10,1.4619750353663825
undo,5,41,0,0,0,0,[0],1,29,"[1, 2, 3, 4, 5, 6, 7, 8, 9, 10, 11, 12, 13, 14, 15, 16, 17, 18, 19, 20, 21, 22, 23, 24, 25, 26, 27, 28, 29]",300,181,-1,1,143,10,0.0
undo,5,41,0,0,0,28,"[0, 28]",2,27,"[1, 2, 3, 5, 6, 7, 8, 9, 10, 11, 12, 13, 14, 15, 16, 17, 18, 19, 20, 21, 22, 23, 24, 25, 26, 27, 29]",259.8004975,12276,12095,37,249,9,1.0
undo,5,41,0,0,0,5,"[0, 28, 5]",3,26,"[1, 2, 3, 6, 7, 8, 9, 10, 11, 12, 13, 14, 15, 16, 17, 18, 19, 20, 21, 22, 23, 24, 25, 26, 27, 29]",246.199027,13196,920,30,182,9,1.714241539747437
undo,5,41,0,0,0,3,"[0, 28, 5, 3]",4,25,"[1, 2, 6, 7, 8, 9, 10, 11, 12, 13, 14, 15, 16, 17, 18, 19, 20, 21, 22, 23, 24, 25, 26, 27, 29]",211.3708775,18344,5148,20,93,9,2.2367972660995847
undo,5,41,0,0,0,21,"[0, 28, 5, 3, 21]",5,19,"[1, 2, 6, 9, 10, 11, 12, 13, 14, 15, 17, 18, 19, 20, 22, 24, 25, 26, 27]",179.2305601,19804,1460,12,46,9,2.470864770481327
undo,5,41,0,0,0,9,"[0, 28, 5, 3, 21, 9]",6,13,"[1, 2, 10, 12, 13, 14, 15, 17, 19, 22, 24, 25, 26]",129.8645799,21736,1932,3,17,9,2.0674559404382
undo,5,41,0,0,0,2,"[0, 28, 5, 3, 21, 9, 2]",7,9,"[1, 10, 12, 14, 15, 17, 19, 22, 24]",117.7815339,22651,915,2,7,9,2.0139863201149533
undo,5,41,0,0,0,17,"[0, 28, 5, 3, 21, 9, 2, 17]",8,1,[10],85.22389276,23912,1261,1,0,9,3.388293326704014
undo,5,41,0,0,1,10,"[0, 28, 5, 3, 21, 9, 2, 17, 10]",9,0,[],35.97960375,26264,2352,1,0,9,3.1208433501016275
undo,5,41,0,1,1,10,"[0, 28, 5, 3, 21, 9, 2, 17, 10]",9,0,[],35.97960375,30047,3783,1,0,9,3.1208433501016275
undo,6,6,0,0,0,0,[0],1,29,"[1, 2, 3, 4, 5, 6, 7, 8, 9, 10, 11, 12, 13, 14, 15, 16, 17, 18, 19, 20, 21, 22, 23, 24, 25, 26, 27, 28, 29]",300,165,-1,180,4304,10,0.0
undo,6,6,0,0,0,26,"[0, 26]",2,25,"[1, 2, 3, 4, 5, 6, 7, 8, 9, 10, 11, 12, 13, 14, 15, 16, 17, 18, 20, 21, 22, 23, 24, 27, 29]",250.2606795,16694,16529,45,776,10,1.0
undo,6,6,0,0,0,7,"[0, 26, 7]",3,24,"[1, 2, 3, 4, 5, 6, 8, 9, 10, 11, 12, 13, 14, 15, 16, 17, 18, 20, 21, 22, 23, 24, 27, 29]",226.1774904,17726,1032,25,520,10,1.5373018630243536
undo,6,6,0,0,0,3,"[0, 26, 7, 3]",4,22,"[1, 2, 4, 6, 8, 9, 10, 11, 12, 13, 14, 15, 16, 17, 18, 20, 21, 22, 23, 24, 27, 29]",190.0388684,18630,904,20,235,10,3.2798655773210936
undo,6,6,0,0,0,18,"[0, 26, 7, 3, 18]",5,17,"[1, 2, 6, 8, 10, 11, 13, 14, 16, 17, 20, 21, 22, 23, 24, 27, 29]",161.0388684,23718,5088,12,95,10,2.2817335351582497
undo,6,6,0,0,0,17,"[0, 26, 7, 3, 18, 17]",6,14,"[1, 2, 6, 8, 10, 13, 14, 16, 21, 22, 23, 24, 27, 29]",147.1104801,31285,7567,7,40,10,2.166304221519952
undo,6,6,0,0,0,10,"[0, 26, 7, 3, 18, 17, 10]",7,10,"[2, 6, 8, 13, 16, 22, 23, 24, 27, 29]",127.3873972,32334,1049,6,14,10,2.0465180096074933
undo,6,6,0,0,0,24,"[0, 26, 7, 3, 18, 17, 10, 24]",8,7,"[2, 6, 16, 22, 23, 27, 29]",113.9709893,33385,1051,6,3,10,1.9120419940880518
undo,6,6,0,0,0,16,"[0, 26, 7, 3, 18, 17, 10, 24, 16]",9,1,[29],57.93528641,44794,11409,1,0,10,3.3536105264950167
undo,6,6,0,0,1,29,"[0, 26, 7, 3, 18, 17, 10, 24, 16, 29]",10,0,[],21.24741376,45922,1128,1,0,10,2.6171932798841704
undo,6,6,0,1,1,29,"[0, 26, 7, 3, 18, 17, 10, 24, 16, 29]",10,0,[],21.24741376,47848,1926,1,0,10,2.6171932798841704
undo,7,37,0,0,0,0,[0],1,29,"[1, 2, 3, 4, 5, 6, 7, 8, 9, 10, 11, 12, 13, 14, 15, 16, 17, 18, 19, 20, 21, 22, 23, 24, 25, 26, 27, 28, 29]",300,147,-1,6,168,10,0.0
undo,7,37,0,0,0,18,"[0, 18]",2,19,"[1, 2, 4, 6, 7, 9, 10, 12, 14, 15, 17, 19, 20, 21, 22, 23, 26, 28, 29]",202.4090168,7641,7494,6,89,10,1.0
undo,7,37,0,0,0,7,"[0, 18, 7]",3,12,"[1, 2, 4, 9, 15, 17, 19, 20, 21, 22, 26, 29]",175.2428614,9437,1796,6,53,10,1.0413073512834488
undo,7,37,0,0,0,22,"[0, 18, 7, 22]",4,8,"[1, 2, 4, 15, 19, 20, 21, 26]",125.2428614,13626,4189,6,29,10,1.0730792320325544
undo,7,37,1,0,0,7,"[0, 18, 7]",3,12,"[1, 2, 4, 9, 15, 17, 19, 20, 21, 22, 26, 29]",175.2428614,23763,10137,6,53,10,1.0413073512834488
undo,7,37,0,0,0,2,"[0, 18, 7, 2]",4,8,"[1, 4, 15, 19, 20, 21, 22, 26]",119.7000851,30083,6320,16,41,9,1.1926799320957377
undo,7,37,0,0,0,4,"[0, 18, 7, 2, 4]",5,7,"[1, 15, 19, 20, 21, 22, 26]",108.2983308,31490,1407,10,17,9,1.179462524175758
undo,7,37,0,0,0,1,"[0, 18, 7, 2, 4, 1]",6,6,"[15, 19, 20, 21, 22, 26]",90.57828569,32600,1110,10,5,9,1.3227807187979075
undo,7,37,0,0,0,20,"[0, 18, 7, 2, 4, 1, 20]",7,4,"[15, 19, 21, 26]",56.34380015,33597,997,5,2,9,1.6254948369685733
undo,7,37,0,0,0,21,"[0, 18, 7, 2, 4, 1, 20, 21]",8,3,"[15, 19, 26]",41.92159505,34590,993,3,0,9,1.662946741892419
undo,7,37,0,0,1,15,"[0, 18, 7, 2, 4, 1, 20, 21, 15]",9,0,[],26.92159505,48842,14252,1,0,9,1.6411246334399008
undo,7,37,0,1,1,15,"[0, 18, 7, 2, 4, 1, 20, 21, 15]",9,0,[],26.92159505,54413,5571,1,0,9,1.6411246334399008
undo,8,3,0,0,0,0,[0],1,29,"[1, 2, 3, 4, 5, 6, 7, 8, 9, 10, 11, 12, 13, 14, 15, 16, 17, 18, 19, 20, 21, 22, 23, 24, 25, 26, 27, 28, 29]",300,170,-1,34,427,10,0.0
undo,8,3,0,0,0,8,"[0, 8]",2,28,"[1, 2, 3, 4, 5, 6, 7, 9, 10, 11, 12, 13, 14, 15, 16, 17, 18, 19, 20, 21, 22, 23, 24, 25, 26, 27, 28, 29]",239.9666759,12685,12515,1,54,10,1.0
undo,8,3,0,0,0,24,"[0, 8, 24]",3,23,"[1, 2, 3, 4, 5, 6, 7, 10, 11, 12, 14, 15, 16, 17, 18, 19, 20, 21, 22, 25, 26, 27, 28]",227.8011509,13818,1133,1,50,10,1.2267083825981846
undo,8,3,0,0,0,17,"[0, 8, 24, 17]",4,11,"[3, 4, 7, 10, 14, 15, 16, 19, 20, 21, 27]",158.4469873,17946,4128,1,18,10,1.3836579788002414
undo,8,3,0,0,0,20,"[0, 8, 24, 17, 20]",5,9,"[3, 4, 7, 10, 14, 15, 16, 19, 21]",145.7978767,18874,928,1,14,10,1.3620097615632467
undo,8,3,0,0,0,3,"[0, 8, 24, 17, 20, 3]",6,5,"[4, 10, 14, 19, 21]",125.4017986,21710,2836,1,11,10,1.3956695218398405
undo,8,3,0,0,0,19,"[0, 8, 24, 17, 20, 3, 19]",7,4,"[4, 10, 14, 21]",88.06548922,24410,2700,1,4,10,1.4360605238855817
undo,8,3,0,0,0,21,"[0, 8, 24, 17, 20, 3, 19, 21]",8,2,"[10, 14]",75.85893361,25342,932,1,1,10,1.4576450248605066
undo,8,3,0,0,0,14,"[0, 8, 24, 17, 20, 3, 19, 21, 14]",9,1,[10],48.95168551,27058,1716,1,0,10,1.9505702217699148
undo,8,3,0,0,1,10,"[0, 8, 24, 17, 20, 3, 19, 21, 14, 10]",10,0,[],3.498412803,29058,2000,1,0,10,1.8830527336542522
undo,8,3,0,1,1,10,"[0, 8, 24, 17, 20, 3, 19, 21, 14, 10]",10,0,[],3.498412803,34248,5190,1,0,10,1.8830527336542522
undo,9,5,0,0,0,0,[0],1,29,"[1, 2, 3, 4, 5, 6, 7, 8, 9, 10, 11, 12, 13, 14, 15, 16, 17, 18, 19, 20, 21, 22, 23, 24, 25, 26, 27, 28, 29]",300,179,-1,5,139,9,0.0
undo,9,5,0,0,0,12,"[0, 12]",2,22,"[2, 4, 5, 6, 8, 9, 10, 13, 14, 15, 16, 17, 18, 19, 21, 22, 23, 24, 25, 26, 27, 28]",228.3062067,7184,7005,1,27,9,1.0
undo,9,5,0,0,0,25,"[0, 12, 25]",3,21,"[2, 4, 5, 6, 8, 9, 10, 13, 14, 15, 16, 17, 18, 19, 21, 22, 23, 24, 26, 27, 28]",200.5213187,8795,1611,1,20,9,1.584023303445617
undo,9,5,0,0,0,23,"[0, 12, 25, 23]",4,19,"[2, 4, 5, 6, 8, 9, 10, 13, 14, 15, 16, 17, 18, 19, 21, 22, 24, 26, 27]",182.0822298,11436,2641,1,14,9,2.3508446989254357
undo,9,5,0,0,0,24,"[0, 12, 25, 23, 24]",5,15,"[2, 4, 5, 6, 8, 9, 13, 14, 15, 17, 18, 19, 22, 26, 27]",158.995437,12487,1051,1,12,9,1.9469752046288753
undo,9,5,0,0,0,17,"[0, 12, 25, 23, 24, 17]",6,7,"[4, 5, 6, 8, 15, 18, 19]",124.0097257,15979,3492,1,8,9,1.6482276497563642
undo,9,5,0,0,0,5,"[0, 12, 25, 23, 24, 17, 5]",7,4,"[4, 6, 15, 18]",80.96323916,17179,1200,1,3,9,1.4654649104389412
undo,9,5,0,0,1,6,"[0, 12, 25, 23, 24, 17, 5, 6]",8,0,[],11.64513186,23223,6044,1,0,8,1.7266758571257486
undo,9,5,1,0,0,5,"[0, 12, 25, 23, 24, 17, 5]",7,4,"[4, 6, 15, 18]",80.96323916,39031,15808,1,3,9,1.4654649104389412
undo,9,5,0,0,0,4,"[0, 12, 25, 23, 24, 17, 5, 4]",8,1,[6],15.16050365,41691,2660,1,0,9,1.6255060355828674
undo,9,5,0,0,1,6,"[0, 12, 25, 23, 24, 17, 5, 4, 6]",9,0,[],3.118909076,43495,1804,1,0,9,1.7777310833772453
undo,9,5,0,1,1,6,"[0, 12, 25, 23, 24, 17, 5, 4, 6]",9,0,[],3.118909076,47213,3718,1,0,9,1.7777310833772453
undo,10,22,0,0,0,0,[0],1,29,"[1, 2, 3, 4, 5, 6, 7, 8, 9, 10, 11, 12, 13, 14, 15, 16, 17, 18, 19, 20, 21, 22, 23, 24, 25, 26, 27, 28, 29]",300,180,-1,31,704,9,0.0
undo,10,22,0,0,0,16,"[0, 16]",2,21,"[1, 3, 6, 7, 8, 9, 11, 13, 14, 15, 17, 18, 19, 20, 21, 22, 24, 25, 27, 28, 29]",218.605897,5309,5129,17,147,9,1.0
undo,10,22,0,0,0,6,"[0, 16, 6]",3,16,"[1, 3, 7, 9, 13, 14, 15, 17, 19, 20, 21, 22, 24, 25, 28, 29]",184.1675463,8185,2876,5,77,9,1.3071109638102874
undo,10,22,0,0,0,9,"[0, 16, 6, 9]",4,15,"[1, 3, 7, 13, 14, 15, 17, 19, 20, 21, 22, 24, 25, 28, 29]",157.5404924,9941,1756,4,33,9,1.5907585082674378
undo,10,22,0,0,0,19,"[0, 16, 6, 9, 19]",5,12,"[3, 7, 13, 14, 15, 17, 20, 21, 24, 25, 28, 29]",137.1444143,13337,3396,3,17,9,2.0453047636701496
undo,10,22,0,0,0,29,"[0, 16, 6, 9, 19, 29]",6,10,"[3, 7, 13, 14, 15, 17, 20, 21, 24, 28]",122.111118,14550,1213,3,10,9,2.310050419546042
undo,10,22,0,0,0,14,"[0, 16, 6, 9, 19, 29, 14]",7,2,"[7, 17]",63.86165444,21652,7102,1,1,9,1.8228779744230632
undo,10,22,0,0,0,7,"[0, 16, 6, 9, 19, 29, 14, 7]",8,1,[17],50.82324963,23288,1636,1,0,9,1.981278197083242
undo,10,22,0,0,1,17,"[0, 16, 6, 9, 19, 29, 14, 7, 17]",9,0,[],9.205945539,25533,2245,1,0,9,1.840137026694984
undo,10,22,0,1,1,17,"[0, 16, 6, 9, 19, 29, 14, 7, 17]",9,0,[],9.205945539,27796,2263,1,0,9,1.840137026694984
undo,11,30,0,0,0,0,[0],1,19,"[3, 4, 5, 7, 9, 11, 16, 17, 18, 19, 20, 21, 22, 24, 25, 26, 27, 28, 29]",300,147,-1,5,41,8,0.0
undo,11,30,0,0,0,16,"[0, 16]",2,17,"[3, 5, 7, 9, 11, 17, 18, 19, 20, 21, 22, 24, 25, 26, 27, 28, 29]",219.3774225,6485,6338,5,34,8,1.0
undo,11,30,0,0,0,25,"[0, 16, 25]",3,10,"[3, 5, 7, 9, 11, 18, 19, 20, 27, 29]",115.0845656,12719,6234,5,28,8,1.0336279544884488
undo,11,30,0,0,0,27,"[0, 16, 25, 27]",4,7,"[3, 5, 7, 18, 19, 20, 29]",75.52448473,14289,1570,1,12,8,1.0719738181137488
undo,11,30,0,0,0,3,"[0, 16, 25, 27, 3]",5,5,"[5, 7, 18, 20, 29]",56.41951155,15953,1664,1,4,8,1.0683252001879187
undo,11,30,0,0,0,29,"[0, 16, 25, 27, 3, 29]",6,2,"[5, 18]",37.81843632,20005,4052,1,1,8,1.0768958290478794
undo,11,30,0,0,0,18,"[0, 16, 25, 27, 3, 29, 18]",7,1,[5],18.5052284,21443,1438,1,0,8,1.1525061930327378
undo,11,30,0,0,1,5,"[0, 16, 25, 27, 3, 29, 18, 5]",8,0,[],5.466823591,22845,1402,1,0,8,1.2180155123152177
undo,11,30,0,1,1,5,"[0, 16, 25, 27, 3, 29, 18, 5]",8,0,[],5.466823591,25665,2820,1,0,8,1.2180155123152177
undo,12,43,0,0,0,0,[0],1,23,"[1, 2, 3, 4, 5, 6, 7, 9, 10, 11, 12, 14, 15, 16, 17, 19, 20, 21, 22, 23, 25, 27, 29]",300,154,-1,16,556,12,0.0
undo,12,43,0,0,0,29,"[0, 29]",2,22,"[1, 2, 3, 4, 5, 6, 7, 9, 10, 11, 12, 14, 15, 16, 17, 19, 20, 21, 22, 23, 25, 27]",277.909278,11687,11533,16,520,12,1.0
undo,12,43,0,0,0,20,"[0, 29, 20]",3,20,"[1, 2, 3, 4, 6, 7, 9, 10, 11, 12, 14, 15, 16, 17, 19, 21, 22, 23, 25, 27]",254.4785289,13685,1998,15,422,12,1.082311746871282
undo,12,43,0,0,0,16,"[0, 29, 20, 16]",4,19,"[1, 2, 3, 4, 6, 7, 9, 10, 11, 12, 14, 15, 17, 19, 21, 22, 23, 25, 27]",231.8511119,17342,3657,15,389,12,1.215201926898219
undo,12,43,0,0,0,25,"[0, 29, 20, 16, 25]",5,14,"[1, 2, 3, 4, 6, 7, 9, 11, 12, 14, 15, 19, 22, 23]",175.7708124,20538,3196,53,282,11,1.566384303308987
undo,12,43,0,0,0,15,"[0, 29, 20, 16, 25, 15]",6,13,"[1, 2, 3, 4, 6, 7, 9, 11, 12, 14, 19, 22, 23]",153.0992443,21822,1284,27,108,11,1.776736412604812
undo,12,43,0,0,0,12,"[0, 29, 20, 16, 25, 15, 12]",7,10,"[1, 3, 6, 7, 9, 11, 14, 19, 22, 23]",133.7860364,22619,797,21,41,11,1.6813323012225032
undo,12,43,0,0,0,3,"[0, 29, 20, 16, 25, 15, 12, 3]",8,9,"[1, 6, 7, 9, 11, 14, 19, 22, 23]",120.7860364,23338,719,20,12,11,1.608740348096123
undo,12,43,0,0,0,22,"[0, 29, 20, 16, 25, 15, 12, 3, 22]",9,6,"[1, 6, 7, 11, 14, 19]",86.07292644,34331,10993,9,2,11,1.793657891802588
undo,12,43,0,0,0,11,"[0, 29, 20, 16, 25, 15, 12, 3, 22, 11]",10,1,[6],40.00775521,36535,2204,1,0,11,2.857057635054945
undo,12,43,0,0,1,6,"[0, 29, 20, 16, 25, 15, 12, 3, 22, 11, 6]",11,0,[],19.39222709,38938,2403,1,0,11,2.5442600061215437
undo,12,43,1,0,0,11,"[0, 29, 20, 16, 25, 15, 12, 3, 22, 11]",10,1,[6],40.00775521,48199,9261,1,0,11,2.857057635054945
undo,12,43,0,0,1,6,"[0, 29, 20, 16, 25, 15, 12, 3, 22, 11, 6]",11,0,[],19.39222709,53354,5155,1,0,11,2.5442600061215437
undo,12,43,1,0,0,11,"[0, 29, 20, 16, 25, 15, 12, 3, 22, 11]",10,1,[6],40.00775521,58332,4978,1,0,11,2.857057635054945
undo,12,43,1,0,0,22,"[0, 29, 20, 16, 25, 15, 12, 3, 22]",9,6,"[1, 6, 7, 11, 14, 19]",86.07292644,59482,1150,9,2,11,1.793657891802588
undo,12,43,0,0,0,19,"[0, 29, 20, 16, 25, 15, 12, 3, 22, 19]",10,3,"[1, 6, 7]",65.45739831,62152,2670,3,0,11,1.6882745891803936
undo,12,43,0,0,1,1,"[0, 29, 20, 16, 25, 15, 12, 3, 22, 19, 1]",11,0,[],37.2793927,64285,2133,1,0,11,1.825064866046553
undo,12,43,0,1,1,1,"[0, 29, 20, 16, 25, 15, 12, 3, 22, 19, 1]",11,0,[],37.2793927,75615,11330,1,0,11,1.825064866046553
undo,13,11,0,0,0,0,[0],1,25,"[1, 2, 3, 4, 5, 6, 8, 9, 10, 11, 12, 13, 14, 15, 16, 17, 18, 19, 20, 22, 23, 25, 26, 27, 28]",300,194,-1,6,374,12,0.0
undo,13,11,0,0,0,18,"[0, 18]",2,21,"[1, 2, 4, 5, 6, 8, 9, 11, 12, 13, 14, 15, 16, 17, 19, 20, 22, 23, 25, 27, 28]",236.8493864,4437,4243,157,1477,11,1.0
undo,13,11,0,0,0,27,"[0, 18, 27]",3,19,"[1, 2, 4, 5, 6, 8, 9, 11, 12, 14, 15, 16, 17, 19, 20, 22, 23, 25, 28]",212.9956655,5393,956,157,1315,11,1.060949579704323
undo,13,11,0,0,0,8,"[0, 18, 27, 8]",4,14,"[1, 2, 4, 5, 6, 11, 12, 15, 17, 19, 22, 23, 25, 28]",142.7817068,19202,13809,68,433,11,1.0827202875589923
undo,13,11,0,0,0,17,"[0, 18, 27, 8, 17]",5,13,"[1, 2, 4, 5, 6, 11, 12, 15, 19, 22, 23, 25, 28]",128.4638857,20098,896,42,137,11,1.1662918234607762
undo,13,11,0,0,0,15,"[0, 18, 27, 8, 17, 15]",6,9,"[2, 5, 6, 11, 12, 19, 22, 25, 28]",115.8147751,21773,1675,38,57,11,1.1741312027420885
undo,13,11,0,0,0,11,"[0, 18, 27, 8, 17, 15, 11]",7,7,"[2, 5, 6, 12, 19, 22, 28]",97.70400479,23865,2092,24,0,11,1.1668679039564056
undo,13,11,0,0,0,28,"[0, 18, 27, 8, 17, 15, 11, 28]",8,4,"[2, 5, 19, 22]",78.28751696,25217,1352,6,0,11,1.2830334294205898
undo,13,11,0,0,0,5,"[0, 18, 27, 8, 17, 15, 11, 28, 5]",9,2,"[2, 22]",60.39897314,26001,784,2,0,11,1.472719061667125
undo,13,11,0,0,0,2,"[0, 18, 27, 8, 17, 15, 11, 28, 5, 2]",10,1,[22],43.39897314,28278,2277,1,0,11,1.437636650715907
undo,13,11,0,0,1,22,"[0, 18, 27, 8, 17, 15, 11, 28, 5, 2, 22]",11,0,[],33.34909751,30482,2204,1,0,11,1.414339916866727
undo,13,11,0,1,1,22,"[0, 18, 27, 8, 17, 15, 11, 28, 5, 2, 22]",11,0,[],33.34909751,36111,5629,1,0,11,1.414339916866727
undo,14,27,0,0,0,0,[0],1,26,"[1, 3, 5, 6, 7, 8, 9, 10, 11, 12, 13, 14, 15, 16, 17, 18, 19, 21, 22, 23, 24, 25, 26, 27, 28, 29]",300,206,-1,13,578,11,0.0
undo,14,27,0,0,0,15,"[0, 15]",2,24,"[1, 3, 5, 6, 7, 8, 9, 10, 11, 12, 13, 14, 16, 17, 18, 19, 21, 22, 23, 24, 25, 26, 27, 29]",263.7508621,4462,4256,6,219,11,1.0
undo,14,27,0,0,0,24,"[0, 15, 24]",3,20,"[1, 5, 6, 7, 8, 9, 10, 12, 13, 14, 16, 17, 18, 19, 21, 23, 25, 26, 27, 29]",246.5462115,5378,916,6,130,11,1.130933077698322
undo,14,27,0,0,0,17,"[0, 15, 24, 17]",4,15,"[1, 6, 8, 10, 12, 13, 14, 16, 18, 19, 23, 25, 26, 27, 29]",229.9932662,6135,757,4,60,11,1.1285538435963374
undo,14,27,0,0,0,12,"[0, 15, 24, 17, 12]",5,14,"[1, 6, 8, 10, 13, 14, 16, 18, 19, 23, 25, 26, 27, 29]",218.8129263,6738,603,2,32,11,1.2561880288755216
undo,14,27,0,0,0,10,"[0, 15, 24, 17, 12, 10]",6,11,"[1, 8, 13, 14, 18, 19, 23, 25, 26, 27, 29]",207.7675653,7422,684,2,28,11,1.2228289337766665
undo,14,27,0,0,0,13,"[0, 15, 24, 17, 12, 10, 13]",7,9,"[1, 8, 14, 18, 19, 23, 26, 27, 29]",167.9178476,10238,2816,2,18,11,1.3421291994761178
undo,14,27,0,0,0,19,"[0, 15, 24, 17, 12, 10, 13, 19]",8,5,"[1, 8, 14, 23, 29]",131.6825057,15074,4836,2,6,11,1.294749956153846
undo,14,27,0,0,0,8,"[0, 15, 24, 17, 12, 10, 13, 19, 8]",9,3,"[14, 23, 29]",116.816437,16006,932,2,1,11,1.3554286578836865
undo,14,27,0,0,0,29,"[0, 15, 24, 17, 12, 10, 13, 19, 8, 29]",10,1,[14],57.61339652,18819,2813,1,0,11,1.248354519573802
undo,14,27,0,0,1,14,"[0, 15, 24, 17, 12, 10, 13, 19, 8, 29, 14]",11,0,[],13.31892734,20578,1759,1,0,11,1.562811097555156
undo,14,27,0,1,1,14,"[0, 15, 24, 17, 12, 10, 13, 19, 8, 29, 14]",11,0,[],13.31892734,26047,5469,1,0,11,1.562811097555156
undo,15,19,0,0,0,0,[0],1,29,"[1, 2, 3, 4, 5, 6, 7, 8, 9, 10, 11, 12, 13, 14, 15, 16, 17, 18, 19, 20, 21, 22, 23, 24, 25, 26, 27, 28, 29]",300,182,-1,12,149,8,0.0
undo,15,19,0,0,0,29,"[0, 29]",2,28,"[1, 2, 3, 4, 5, 6, 7, 8, 9, 10, 11, 12, 13, 14, 15, 16, 17, 18, 19, 20, 21, 22, 23, 24, 25, 26, 27, 28]",265.0715016,42485,42303,12,120,8,1.0
undo,15,19,0,0,0,28,"[0, 29, 28]",3,10,"[4, 6, 9, 10, 11, 14, 20, 22, 24, 27]",122.5092345,44768,2283,4,21,7,1.0830664385224933
undo,15,19,0,0,0,4,"[0, 29, 28, 4]",4,9,"[6, 9, 10, 11, 14, 20, 22, 24, 27]",111.3288946,45585,817,4,13,7,1.1448076323272462
undo,15,19,1,0,0,28,"[0, 29, 28]",3,10,"[4, 6, 9, 10, 11, 14, 20, 22, 24, 27]",122.5092345,80330,34745,4,21,7,1.0830664385224933
undo,15,19,1,0,0,29,"[0, 29]",2,28,"[1, 2, 3, 4, 5, 6, 7, 8, 9, 10, 11, 12, 13, 14, 15, 16, 17, 18, 19, 20, 21, 22, 23, 24, 25, 26, 27, 28]",265.0715016,81164,834,12,120,8,1.0
undo,15,19,0,0,0,9,"[0, 29, 9]",3,17,"[1, 4, 5, 6, 7, 10, 11, 12, 13, 14, 19, 20, 21, 22, 24, 27, 28]",181.7108394,84635,3471,11,65,8,1.0375842971861238
undo,15,19,0,0,0,6,"[0, 29, 9, 6]",4,12,"[4, 7, 10, 11, 13, 14, 20, 21, 22, 24, 27, 28]",140.2741407,86411,1776,11,34,8,1.0389786364356892
undo,15,19,0,0,0,22,"[0, 29, 9, 6, 22]",5,7,"[4, 7, 10, 11, 14, 20, 24]",79.27414071,93676,7265,2,4,8,1.0360889604738772
undo,15,19,0,0,0,20,"[0, 29, 9, 6, 22, 20]",6,4,"[10, 11, 14, 24]",66.12119427,94701,1025,2,2,8,1.0344974630090689
undo,15,19,0,0,0,11,"[0, 29, 9, 6, 22, 20, 11]",7,1,[14],18.31952066,96252,1551,1,0,8,1.284713058456575
undo,15,19,0,0,1,14,"[0, 29, 9, 6, 22, 20, 11, 14]",8,0,[],7.502866836,97291,1039,1,0,8,1.3986915272533427
undo,15,19,0,1,1,14,"[0, 29, 9, 6, 22, 20, 11, 14]",8,0,[],7.502866836,111047,13756,1,0,8,1.3986915272533427
undo,16,33,0,0,0,0,[0],1,23,"[1, 2, 5, 7, 8, 11, 12, 13, 14, 15, 16, 17, 18, 19, 20, 21, 23, 24, 25, 26, 27, 28, 29]",300,160,-1,5,108,9,0.0
undo,16,33,0,0,0,21,"[0, 21]",2,17,"[2, 5, 7, 8, 11, 13, 14, 16, 17, 18, 19, 20, 24, 26, 27, 28, 29]",174.4611614,8041,7881,21,129,8,1.0
undo,16,33,1,0,0,0,[0],1,23,"[1, 2, 5, 7, 8, 11, 12, 13, 14, 15, 16, 17, 18, 19, 20, 21, 23, 24, 25, 26, 27, 28, 29]",300,16044,8003,5,108,9,0.0
undo,16,33,0,0,0,8,"[0, 8]",2,22,"[1, 2, 5, 7, 11, 12, 13, 14, 15, 16, 17, 18, 19, 20, 21, 23, 24, 25, 26, 27, 28, 29]",265.8679037,19280,3236,5,87,9,1.0
undo,16,33,0,0,0,21,"[0, 8, 21]",3,16,"[2, 5, 7, 11, 13, 14, 16, 17, 18, 19, 20, 24, 26, 27, 28, 29]",166.0430571,22811,3531,5,80,9,1.0670557763739492
undo,16,33,0,0,0,17,"[0, 8, 21, 17]",4,11,"[2, 7, 11, 13, 14, 16, 19, 20, 24, 26, 29]",127.4036989,24464,1653,1,18,9,1.0830294710276618
undo,16,33,0,0,0,13,"[0, 8, 21, 17, 13]",5,10,"[2, 7, 11, 14, 16, 19, 20, 24, 26, 29]",104.6001904,26042,1578,1,10,9,1.2861654105061844
undo,16,33,0,0,0,19,"[0, 8, 21, 17, 13, 19]",6,6,"[7, 14, 16, 24, 26, 29]",79.10509282,29658,3616,1,6,9,1.3181942666818214
undo,16,33,0,0,0,7,"[0, 8, 21, 17, 13, 19, 7]",7,3,"[14, 24, 26]",33.48711391,31022,1364,1,2,9,1.25064167844248
undo,16,33,0,0,0,14,"[0, 8, 21, 17, 13, 19, 7, 14]",8,1,[26],18.62104516,32122,1100,1,0,9,1.297007778404226
undo,16,33,0,0,1,26,"[0, 8, 21, 17, 13, 19, 7, 14, 26]",9,0,[],5.971934519,34858,2736,1,0,9,1.2996231319325615
undo,16,33,0,1,1,26,"[0, 8, 21, 17, 13, 19, 7, 14, 26]",9,0,[],5.971934519,37411,2553,1,0,9,1.2996231319325615
undo,17,25,0,0,0,0,[0],1,28,"[1, 2, 3, 4, 5, 7, 8, 9, 10, 11, 12, 13, 14, 15, 16, 17, 18, 19, 20, 21, 22, 23, 24, 25, 26, 27, 28, 29]",300,142,-1,5,94,10,0.0
undo,17,25,0,0,0,19,"[0, 19]",2,27,"[1, 2, 3, 4, 5, 7, 8, 9, 10, 11, 12, 13, 14, 15, 16, 17, 18, 20, 21, 22, 23, 24, 25, 26, 27, 28, 29]",251.9479449,9720,9578,2,30,10,1.0
undo,17,25,0,0,0,29,"[0, 19, 29]",3,26,"[1, 2, 3, 4, 5, 7, 8, 9, 10, 11, 12, 13, 14, 15, 16, 17, 18, 20, 21, 22, 23, 24, 25, 26, 27, 28]",235.6691243,10996,1276,2,22,10,1.0272252084351727
undo,17,25,0,0,0,22,"[0, 19, 29, 22]",4,24,"[1, 2, 3, 4, 5, 7, 8, 9, 11, 12, 13, 14, 15, 16, 17, 18, 20, 21, 23, 24, 25, 26, 27, 28]",219.5446088,14272,3276,2,17,10,1.03988854593305
undo,17,25,0,0,0,7,"[0, 19, 29, 22, 7]",5,10,"[1, 3, 5, 8, 9, 11, 13, 23, 24, 28]",143.9007062,19936,5664,2,14,10,1.3318974800137366
undo,17,25,0,0,0,24,"[0, 19, 29, 22, 7, 24]",6,7,"[3, 8, 9, 11, 13, 23, 28]",119.1418694,22565,2629,2,9,10,1.2868309735722725
undo,17,25,0,0,0,9,"[0, 19, 29, 22, 7, 24, 9]",7,4,"[3, 8, 13, 28]",101.114113,23560,995,2,7,10,1.2740198715343065
undo,17,25,0,0,0,3,"[0, 19, 29, 22, 7, 24, 9, 3]",8,3,"[8, 13, 28]",70.84862112,25551,1991,2,1,10,1.2376259292234586
undo,17,25,0,0,0,13,"[0, 19, 29, 22, 7, 24, 9, 3, 13]",9,1,[28],39.60762242,35252,9701,1,0,10,1.291892077575191
undo,17,25,0,0,1,28,"[0, 19, 29, 22, 7, 24, 9, 3, 13, 28]",10,0,[],5.373136879,36324,1072,1,0,10,1.3615350048994297
undo,17,25,0,1,1,28,"[0, 19, 29, 22, 7, 24, 9, 3, 13, 28]",10,0,[],5.373136879,38114,1790,1,0,10,1.3615350048994297
undo,18,32,0,0,0,0,[0],1,29,"[1, 2, 3, 4, 5, 6, 7, 8, 9, 10, 11, 12, 13, 14, 15, 16, 17, 18, 19, 20, 21, 22, 23, 24, 25, 26, 27, 28, 29]",300,189,-1,17,359,10,0.0
undo,18,32,0,0,0,15,"[0, 15]",2,24,"[2, 3, 4, 5, 6, 7, 8, 9, 10, 11, 12, 13, 14, 16, 17, 19, 20, 22, 23, 24, 25, 26, 27, 28]",214.6185032,8320,8131,11,153,9,1.0
undo,18,32,0,0,0,28,"[0, 15, 28]",3,21,"[2, 3, 5, 7, 8, 9, 10, 11, 12, 13, 14, 16, 17, 19, 20, 22, 23, 24, 25, 26, 27]",203.2167489,9421,1101,11,119,9,1.000160051986942
undo,18,32,0,0,0,12,"[0, 15, 28, 12]",4,19,"[2, 3, 5, 7, 8, 9, 10, 11, 13, 16, 17, 19, 20, 22, 23, 24, 25, 26, 27]",184.243083,11309,1888,8,71,9,1.0281484763748023
undo,18,32,0,0,0,16,"[0, 15, 28, 12, 16]",5,17,"[2, 3, 5, 7, 8, 9, 10, 11, 13, 17, 19, 20, 22, 23, 24, 26, 27]",168.5906071,12077,768,6,38,9,1.1190771370096
undo,18,32,0,0,0,22,"[0, 15, 28, 12, 16, 22]",6,10,"[2, 3, 5, 8, 9, 10, 11, 17, 20, 27]",134.7527585,13550,1473,4,16,9,1.1702311155319893
undo,18,32,0,0,0,9,"[0, 15, 28, 12, 16, 22, 9]",7,6,"[2, 8, 10, 17, 20, 27]",112.5491552,15393,1843,2,4,9,1.2381424719932013
undo,18,32,0,0,0,8,"[0, 15, 28, 12, 16, 22, 9, 8]",8,1,[20],67.42709849,25886,10493,1,0,9,1.187013645273504
undo,18,32,0,0,1,20,"[0, 15, 28, 12, 16, 22, 9, 8, 20]",9,0,[],17.09818036,27121,1235,1,0,9,1.3986201165175596
undo,18,32,0,1,1,20,"[0, 15, 28, 12, 16, 22, 9, 8, 20]",9,0,[],17.09818036,29033,1912,1,0,9,1.3986201165175596
undo,19,26,0,0,0,0,[0],1,29,"[1, 2, 3, 4, 5, 6, 7, 8, 9, 10, 11, 12, 13, 14, 15, 16, 17, 18, 19, 20, 21, 22, 23, 24, 25, 26, 27, 28, 29]",300,147,-1,9,226,9,0.0
undo,19,26,0,0,0,10,"[0, 10]",2,6,"[4, 6, 14, 16, 17, 29]",138.1822012,10209,10062,9,66,7,1.0
undo,19,26,0,0,0,6,"[0, 10, 6]",3,5,"[4, 14, 16, 17, 29]",108.9076389,11212,1003,8,23,7,1.1897813099332413
undo,19,26,0,0,0,14,"[0, 10, 6, 14]",4,4,"[4, 16, 17, 29]",87.88384285,12440,1228,4,6,7,1.3162481558218453
undo,19,26,0,0,0,17,"[0, 10, 6, 14, 17]",5,3,"[4, 16, 29]",65.41163779,13320,880,3,1,7,1.6510075497064465
undo,19,26,0,0,0,4,"[0, 10, 6, 14, 17, 4]",6,1,[29],44.31661468,15741,2421,1,0,7,2.1095586782058087
undo,19,26,0,0,1,29,"[0, 10, 6, 14, 17, 4, 29]",7,0,[],20.31661468,16576,835,1,0,7,2.288952413143475
undo,19,26,0,1,1,29,"[0, 10, 6, 14, 17, 4, 29]",7,0,[],20.31661468,45114,28538,1,0,7,2.288952413143475
undo,20,20,0,0,0,0,[0],1,21,"[1, 2, 3, 4, 5, 6, 7, 8, 9, 12, 17, 18, 20, 21, 22, 23, 25, 26, 27, 28, 29]",300,196,-1,1,9,9,0.0
undo,20,20,0,0,0,12,"[0, 12]",2,20,"[1, 2, 3, 4, 5, 6, 7, 8, 9, 17, 18, 20, 21, 22, 23, 25, 26, 27, 28, 29]",271.5570747,12133,11937,1,8,9,1.0
undo,20,20,0,0,0,1,"[0, 12, 1]",3,12,"[3, 4, 5, 6, 8, 9, 20, 21, 23, 27, 28, 29]",189.5692707,16310,4177,1,6,9,1.0757997779162911
undo,20,20,0,0,0,5,"[0, 12, 1, 5]",4,10,"[4, 6, 8, 9, 20, 21, 23, 27, 28, 29]",152.8950291,17700,1390,1,5,9,1.1708231454516806
undo,20,20,0,0,0,21,"[0, 12, 1, 5, 21]",5,8,"[4, 6, 8, 9, 20, 23, 27, 28]",107.8950291,19267,1567,1,4,9,1.126197336199212
undo,20,20,0,0,0,8,"[0, 12, 1, 5, 21, 8]",6,5,"[6, 9, 23, 27, 28]",90.43077988,20223,956,1,3,9,1.140007470699913
undo,20,20,0,0,0,23,"[0, 12, 1, 5, 21, 8, 23]",7,2,"[6, 9]",45.74297394,22291,2068,1,1,9,1.1162257896627588
undo,20,20,0,0,0,9,"[0, 12, 1, 5, 21, 8, 23, 9]",8,1,[6],26.53360123,23607,1316,1,0,9,1.1086880559449597
undo,20,20,0,0,1,6,"[0, 12, 1, 5, 21, 8, 23, 9, 6]",9,0,[],3.511872362,24963,1356,1,0,9,1.1186240265999328
undo,20,20,0,1,1,6,"[0, 12, 1, 5, 21, 8, 23, 9, 6]",9,0,[],3.511872362,28163,3200,1,0,9,1.1186240265999328
undo,21,40,0,0,0,0,[0],1,29,"[1, 2, 3, 4, 5, 6, 7, 8, 9, 10, 11, 12, 13, 14, 15, 16, 17, 18, 19, 20, 21, 22, 23, 24, 25, 26, 27, 28, 29]",300,147,-1,8,191,9,0.0
undo,21,40,0,0,0,2,"[0, 2]",2,28,"[1, 3, 4, 5, 6, 7, 8, 9, 10, 11, 12, 13, 14, 15, 16, 17, 18, 19, 20, 21, 22, 23, 24, 25, 26, 27, 28, 29]",263.7646581,7276,7129,4,79,9,1.0
undo,21,40,0,0,0,19,"[0, 2, 19]",3,22,"[1, 5, 6, 7, 8, 9, 10, 11, 13, 14, 15, 17, 18, 20, 21, 22, 23, 24, 25, 26, 27, 29]",194.4249148,9520,2244,19,105,8,1.02908296307533
undo,21,40,0,0,0,5,"[0, 2, 19, 5]",4,13,"[1, 6, 7, 8, 9, 10, 11, 18, 21, 22, 23, 27, 29]",156.3460493,10568,1048,8,34,8,1.1680727236421946
undo,21,40,0,0,0,23,"[0, 2, 19, 5, 23]",5,8,"[1, 6, 8, 9, 18, 21, 22, 27]",128.0441059,11472,904,4,9,8,1.8129772034201674
undo,21,40,0,0,0,18,"[0, 2, 19, 5, 23, 18]",6,5,"[1, 6, 9, 21, 22]",94.04410592,16381,4909,3,3,8,1.7386590968684588
undo,21,40,0,0,0,9,"[0, 2, 19, 5, 23, 18, 9]",7,2,"[6, 21]",77.49116056,17592,1211,2,0,8,1.8041916209002686
undo,21,40,0,0,1,6,"[0, 2, 19, 5, 23, 18, 9, 6]",8,0,[],8.890869015,27934,10342,1,0,8,4.2141075023862955
undo,21,40,0,1,1,6,"[0, 2, 19, 5, 23, 18, 9, 6]",8,0,[],8.890869015,30647,2713,1,0,8,4.2141075023862955
undo,22,44,0,0,0,0,[0],1,29,"[1, 2, 3, 4, 5, 6, 7, 8, 9, 10, 11, 12, 13, 14, 15, 16, 17, 18, 19, 20, 21, 22, 23, 24, 25, 26, 27, 28, 29]",300,164,-1,13,126,7,0.0
undo,22,44,0,0,0,11,"[0, 11]",2,18,"[4, 5, 6, 7, 8, 9, 12, 14, 16, 17, 19, 20, 22, 23, 24, 25, 26, 28]",152.7790776,9078,8914,5,34,7,1.0
undo,22,44,0,0,0,24,"[0, 11, 24]",3,13,"[4, 5, 7, 8, 9, 12, 14, 17, 20, 22, 23, 25, 28]",125.8532535,18768,9690,5,23,7,1.1588941745226709
undo,22,44,0,0,0,9,"[0, 11, 24, 9]",4,7,"[4, 7, 8, 12, 14, 20, 23]",93.09657483,20403,1635,2,8,7,1.3039383713641313
undo,22,44,0,0,0,4,"[0, 11, 24, 9, 4]",5,5,"[7, 12, 14, 20, 23]",73.39885923,22438,2035,2,3,7,1.2901330701441578
undo,22,44,0,0,0,7,"[0, 11, 24, 9, 4, 7]",6,1,[23],42.38273439,23954,1516,1,0,7,1.2468141312360979
undo,22,44,0,0,1,23,"[0, 11, 24, 9, 4, 7, 23]",7,0,[],23.27776121,30930,6976,1,0,7,1.2635191782769477
undo,22,44,0,1,1,23,"[0, 11, 24, 9, 4, 7, 23]",7,0,[],23.27776121,39998,9068,1,0,7,1.2635191782769477
basic,23,21,0,0,0,0,[0],1,29,"[1, 2, 3, 4, 5, 6, 7, 8, 9, 10, 11, 12, 13, 14, 15, 16, 17, 18, 19, 20, 21, 22, 23, 24, 25, 26, 27, 28, 29]",300,196,-1,84,830,9,0.0
basic,23,21,0,0,0,20,"[0, 20]",2,28,"[1, 2, 3, 4, 5, 6, 7, 8, 9, 10, 11, 12, 13, 14, 15, 16, 17, 18, 19, 21, 22, 23, 24, 25, 26, 27, 28, 29]",217.6228187,8600,8404,6,67,9,1.0
basic,23,21,0,0,0,22,"[0, 20, 22]",3,23,"[2, 4, 6, 7, 8, 9, 10, 11, 12, 13, 14, 15, 16, 17, 18, 19, 21, 23, 24, 25, 26, 27, 29]",189.3916303,12195,3595,6,47,9,1.3451865712078994
basic,23,21,0,0,0,18,"[0, 20, 22, 18]",4,20,"[2, 4, 6, 7, 8, 9, 10, 11, 12, 14, 15, 16, 17, 21, 23, 24, 25, 26, 27, 29]",162.9908727,16339,4144,4,25,9,2.3191924394507706
basic,23,21,0,0,0,25,"[0, 20, 22, 18, 25]",5,9,"[4, 6, 14, 15, 16, 17, 21, 23, 29]",121.2296467,17731,1392,2,13,9,2.988651874620227
basic,23,21,0,0,0,23,"[0, 20, 22, 18, 25, 23]",6,6,"[4, 14, 15, 16, 21, 29]",77.90528862,21323,3592,2,4,9,2.2429232769784115
basic,23,21,0,0,0,21,"[0, 20, 22, 18, 25, 23, 21]",7,2,"[4, 14]",48.29110283,22471,1148,1,1,9,2.800224728307879
basic,23,21,0,0,0,14,"[0, 20, 22, 18, 25, 23, 21, 14]",8,1,[4],22.67860588,24065,1594,1,0,9,2.4211207914807917
basic,23,21,0,0,1,4,"[0, 20, 22, 18, 25, 23, 21, 14, 4]",9,0,[],8.536470258,24853,788,1,0,9,2.278728428308114
basic,23,21,0,1,1,4,"[0, 20, 22, 18, 25, 23, 21, 14, 4]",9,0,[],8.536470258,26766,1913,1,0,9,2.278728428308114
basic,24,45,0,0,0,0,[0],1,24,"[1, 2, 3, 4, 5, 6, 7, 9, 10, 11, 12, 14, 15, 16, 17, 19, 20, 21, 22, 23, 24, 25, 27, 29]",300,180,-1,6,248,10,0.0
basic,24,45,0,0,0,15,"[0, 15]",2,23,"[1, 2, 3, 4, 5, 6, 7, 9, 10, 11, 12, 14, 16, 17, 19, 20, 21, 22, 23, 24, 25, 27, 29]",253.9022777,3814,3634,5,207,10,1.0
basic,24,45,0,0,0,23,"[0, 15, 23]",3,22,"[1, 2, 3, 4, 5, 6, 7, 9, 10, 11, 12, 14, 16, 17, 19, 20, 21, 22, 24, 25, 27, 29]",230.3014303,4918,1104,5,163,10,1.0006068457769497
basic,24,45,0,0,0,20,"[0, 15, 23, 20]",4,19,"[1, 2, 3, 5, 6, 7, 9, 10, 11, 12, 14, 16, 17, 19, 21, 22, 24, 25, 29]",188.8647316,9489,4571,5,137,10,1.2062119754673604
basic,24,45,0,0,0,10,"[0, 15, 23, 20, 10]",5,12,"[2, 3, 6, 7, 9, 12, 14, 17, 22, 24, 25, 29]",132.784432,10984,1495,1,54,10,1.1363907740691004
basic,24,45,0,0,0,6,"[0, 15, 23, 20, 10, 6]",6,7,"[2, 3, 7, 12, 22, 24, 29]",106.5356225,41669,30685,20,9,9,1.12325622461992
basic,24,45,0,0,0,12,"[0, 15, 23, 20, 10, 6, 12]",7,4,"[2, 3, 22, 29]",86.4110107,42829,1160,6,1,9,1.1241525752631578
basic,24,45,0,0,0,22,"[0, 15, 23, 20, 10, 6, 12, 22]",8,2,"[3, 29]",54.83570389,44267,1438,2,0,9,1.1537558546242075
basic,24,45,0,0,1,3,"[0, 15, 23, 20, 10, 6, 12, 22, 3]",9,0,[],11.37307626,46021,1754,1,0,9,1.6089547146201597
basic,24,45,0,1,1,3,"[0, 15, 23, 20, 10, 6, 12, 22, 3]",9,0,[],11.37307626,47680,1659,1,0,9,1.6089547146201597
basic,25,35,0,0,0,0,[0],1,29,"[1, 2, 3, 4, 5, 6, 7, 8, 9, 10, 11, 12, 13, 14, 15, 16, 17, 18, 19, 20, 21, 22, 23, 24, 25, 26, 27, 28, 29]",300,157,-1,5,236,11,0.0
basic,25,35,0,0,0,24,"[0, 24]",2,27,"[1, 2, 4, 5, 6, 7, 8, 9, 10, 11, 12, 13, 14, 15, 16, 17, 18, 19, 20, 21, 22, 23, 25, 26, 27, 28, 29]",268.9838752,8404,8247,49,512,10,1.0
basic,25,35,0,0,0,17,"[0, 24, 17]",3,26,"[1, 2, 4, 5, 6, 7, 8, 9, 10, 11, 12, 13, 14, 15, 16, 18, 19, 20, 21, 22, 23, 25, 26, 27, 28, 29]",257.2791753,10786,2382,33,238,10,1.0771477201815276
basic,25,35,0,0,0,1,"[0, 24, 17, 1]",4,25,"[2, 4, 5, 6, 7, 8, 9, 10, 11, 12, 13, 14, 15, 16, 18, 19, 20, 21, 22, 23, 25, 26, 27, 28, 29]",241.4677869,12226,1440,26,151,10,1.2244804141479215
basic,25,35,0,0,0,15,"[0, 24, 17, 1, 15]",5,23,"[2, 4, 5, 6, 7, 8, 9, 10, 11, 12, 14, 16, 18, 19, 20, 21, 22, 23, 25, 26, 27, 28, 29]",218.6204676,14494,2268,26,78,10,1.4642196672428094
basic,25,35,0,0,0,9,"[0, 24, 17, 1, 15, 9]",6,8,"[5, 6, 18, 19, 23, 25, 27, 28]",136.3283052,17070,2576,4,17,10,1.4559671847403095
basic,25,35,0,0,0,18,"[0, 24, 17, 1, 15, 9, 18]",7,5,"[5, 6, 19, 23, 25]",116.3033208,17969,899,2,5,10,1.428087426214553
basic,25,35,0,0,0,25,"[0, 24, 17, 1, 15, 9, 18, 25]",8,2,"[6, 23]",82.46547216,19287,1318,1,1,10,1.343292070389275
basic,25,35,0,0,0,6,"[0, 24, 17, 1, 15, 9, 18, 25, 6]",9,1,[23],58.44464786,20369,1082,1,0,10,1.5973591462902639
basic,25,35,0,0,1,23,"[0, 24, 17, 1, 15, 9, 18, 25, 6, 23]",10,0,[],12.79379902,21662,1293,1,0,10,2.701330598603499
basic,25,35,0,1,1,23,"[0, 24, 17, 1, 15, 9, 18, 25, 6, 23]",10,0,[],12.79379902,23215,1553,1,0,10,2.701330598603499
basic,26,28,0,0,0,0,[0],1,27,"[1, 2, 3, 4, 5, 6, 7, 8, 9, 10, 11, 12, 13, 14, 15, 16, 17, 18, 19, 20, 22, 23, 25, 26, 27, 28, 29]",300,174,-1,2,96,9,0.0
basic,26,28,0,0,0,3,"[0, 3]",2,26,"[1, 2, 4, 5, 6, 7, 8, 9, 10, 11, 12, 13, 14, 15, 16, 17, 18, 19, 20, 22, 23, 25, 26, 27, 28, 29]",251.0817008,13569,13395,1,64,9,1.0
basic,26,28,0,0,0,14,"[0, 3, 14]",3,13,"[1, 2, 5, 7, 10, 11, 12, 13, 17, 18, 19, 20, 26]",142.7396498,15951,2382,19,59,8,1.0338694802207566
basic,26,28,0,0,0,18,"[0, 3, 14, 18]",4,10,"[1, 2, 5, 7, 11, 12, 13, 17, 19, 26]",117.2445523,17692,1741,18,18,8,1.098527225277385
basic,26,28,0,0,0,13,"[0, 3, 14, 18, 13]",5,7,"[2, 7, 11, 12, 17, 19, 26]",92.83144103,18572,880,8,6,8,1.0872780601597938
basic,26,28,0,0,0,12,"[0, 3, 14, 18, 13, 12]",6,3,"[2, 7, 19]",75.6267905,21434,2862,3,1,8,1.0890748557820906
basic,26,28,0,0,0,7,"[0, 3, 14, 18, 13, 12, 7]",7,2,"[2, 19]",62.47384406,22320,886,2,0,8,1.2125627495730145
basic,26,28,0,0,1,19,"[0, 3, 14, 18, 13, 12, 7, 19]",8,0,[],34.74299481,27034,4714,1,0,8,1.4527925513951803
basic,26,28,0,1,1,19,"[0, 3, 14, 18, 13, 12, 7, 19]",8,0,[],34.74299481,32614,5580,1,0,8,1.4527925513951803
basic,27,33,0,0,0,0,[0],1,23,"[1, 2, 5, 7, 8, 11, 12, 13, 14, 15, 16, 17, 18, 19, 20, 21, 23, 24, 25, 26, 27, 28, 29]",300,149,-1,5,108,9,0.0
basic,27,33,0,0,0,8,"[0, 8]",2,22,"[1, 2, 5, 7, 11, 12, 13, 14, 15, 16, 17, 18, 19, 20, 21, 23, 24, 25, 26, 27, 28, 29]",265.8679037,15807,15658,5,87,9,1.0
basic,27,33,0,0,0,21,"[0, 8, 21]",3,16,"[2, 5, 7, 11, 13, 14, 16, 17, 18, 19, 20, 24, 26, 27, 28, 29]",166.0430571,18019,2212,5,80,9,1.0670557763739492
basic,27,33,0,0,0,13,"[0, 8, 21, 13]",4,12,"[2, 7, 11, 14, 16, 17, 18, 19, 20, 24, 26, 29]",139.6422995,18694,675,4,54,9,1.0555103820910288
basic,27,33,0,0,0,19,"[0, 8, 21, 13, 19]",5,10,"[7, 11, 14, 16, 17, 18, 20, 24, 26, 29]",114.1472019,22490,3796,3,19,9,1.1090798607799486
basic,27,33,0,0,0,24,"[0, 8, 21, 13, 19, 24]",6,6,"[7, 14, 16, 18, 26, 29]",72.09960985,24434,1944,2,3,9,1.1193530461391534
basic,27,33,0,0,0,7,"[0, 8, 21, 13, 19, 24, 7]",7,2,"[14, 26]",42.89344611,26159,1725,2,0,9,1.2065014071663551
basic,27,33,0,0,0,14,"[0, 8, 21, 13, 19, 24, 7, 14]",8,1,[26],28.02737737,28238,2079,1,0,9,1.2536495746979057
basic,27,33,0,0,1,26,"[0, 8, 21, 13, 19, 24, 7, 14, 26]",9,0,[],15.37826672,29886,1648,1,0,9,1.2580465331304596
basic,27,33,0,1,1,26,"[0, 8, 21, 13, 19, 24, 7, 14, 26]",9,0,[],15.37826672,31464,1578,1,0,9,1.2580465331304596
basic,28,26,0,0,0,0,[0],1,29,"[1, 2, 3, 4, 5, 6, 7, 8, 9, 10, 11, 12, 13, 14, 15, 16, 17, 18, 19, 20, 21, 22, 23, 24, 25, 26, 27, 28, 29]",300,177,-1,9,226,9,0.0
basic,28,26,0,0,0,21,"[0, 21]",2,25,"[2, 3, 4, 5, 6, 7, 8, 10, 11, 12, 13, 14, 15, 16, 17, 18, 19, 22, 23, 24, 25, 26, 27, 28, 29]",211.1349337,3023,2846,7,90,9,1.0
basic,28,26,0,0,0,16,"[0, 21, 16]",3,12,"[4, 5, 6, 10, 11, 12, 13, 14, 17, 23, 26, 29]",151.2266705,6716,3693,1,34,9,1.3289691188319968
basic,28,26,0,0,0,29,"[0, 21, 16, 29]",4,8,"[4, 5, 6, 10, 13, 14, 17, 23]",127.0192337,7451,735,1,28,9,1.4156891800947415
basic,28,26,0,0,0,4,"[0, 21, 16, 29, 4]",5,5,"[6, 10, 14, 17, 23]",103.0192337,10303,2852,1,12,9,1.6252228687746915
basic,28,26,0,0,0,17,"[0, 21, 16, 29, 4, 17]",6,3,"[6, 10, 14]",81.92421056,11327,1024,1,4,9,1.534793846471065
basic,28,26,0,0,0,14,"[0, 21, 16, 29, 4, 17, 14]",7,2,"[6, 10]",59.45200551,12191,864,1,1,9,1.4926767408397108
basic,28,26,0,0,0,6,"[0, 21, 16, 29, 4, 17, 14, 6]",8,1,[10],38.42820947,12987,796,1,0,9,1.6286010900012204
basic,28,26,0,0,1,10,"[0, 21, 16, 29, 4, 17, 14, 6, 10]",9,0,[],9.153647129,14111,1124,1,0,9,1.797369356615424
basic,28,26,0,1,1,10,"[0, 21, 16, 29, 4, 17, 14, 6, 10]",9,0,[],9.153647129,16197,2086,1,0,9,1.797369356615424
basic,29,7,0,0,0,0,[0],1,29,"[1, 2, 3, 4, 5, 6, 7, 8, 9, 10, 11, 12, 13, 14, 15, 16, 17, 18, 19, 20, 21, 22, 23, 24, 25, 26, 27, 28, 29]",300,149,-1,3,79,9,0.0
basic,29,7,0,0,0,6,"[0, 6]",2,22,"[2, 4, 5, 7, 8, 9, 10, 11, 13, 14, 15, 16, 18, 19, 20, 21, 22, 23, 24, 25, 27, 28]",231.1160396,7736,7587,1,24,9,1.0
basic,29,7,0,0,0,25,"[0, 6, 25]",3,14,"[2, 4, 5, 7, 13, 14, 15, 16, 18, 19, 20, 21, 23, 28]",163.9371739,10891,3155,1,15,9,1.1491202566384209
basic,29,7,0,0,0,4,"[0, 6, 25, 4]",4,10,"[2, 7, 13, 15, 16, 18, 19, 20, 21, 23]",139.1985401,13285,2394,1,9,9,1.145081852791697
basic,29,7,0,0,0,20,"[0, 6, 25, 4, 20]",5,6,"[2, 7, 13, 16, 18, 19]",119.5516574,14118,833,1,4,9,1.2036846139155144
basic,29,7,0,0,0,18,"[0, 6, 25, 4, 20, 18]",6,5,"[2, 7, 13, 16, 19]",106.7454089,14923,805,1,3,9,1.3498144584217913
basic,29,7,0,0,0,7,"[0, 6, 25, 4, 20, 18, 7]",7,2,"[2, 19]",65.51435269,17133,2210,1,1,9,1.2817825700699357
basic,29,7,0,0,0,19,"[0, 6, 25, 4, 20, 18, 7, 19]",8,1,[2],36.10347035,18307,1174,1,0,9,1.3950287830764145
basic,29,7,0,0,1,2,"[0, 6, 25, 4, 20, 18, 7, 19, 2]",9,0,[],5.953843486,19319,1012,1,0,9,1.4010142439340676
basic,29,7,0,1,1,2,"[0, 6, 25, 4, 20, 18, 7, 19, 2]",9,0,[],5.953843486,27148,7829,1,0,9,1.4010142439340676
basic,30,19,0,0,0,0,[0],1,29,"[1, 2, 3, 4, 5, 6, 7, 8, 9, 10, 11, 12, 13, 14, 15, 16, 17, 18, 19, 20, 21, 22, 23, 24, 25, 26, 27, 28, 29]",300,168,-1,12,149,8,0.0
basic,30,19,0,0,0,29,"[0, 29]",2,28,"[1, 2, 3, 4, 5, 6, 7, 8, 9, 10, 11, 12, 13, 14, 15, 16, 17, 18, 19, 20, 21, 22, 23, 24, 25, 26, 27, 28]",265.0715016,4782,4614,12,120,8,1.0
basic,30,19,0,0,0,9,"[0, 29, 9]",3,17,"[1, 4, 5, 6, 7, 10, 11, 12, 13, 14, 19, 20, 21, 22, 24, 27, 28]",181.7108394,11044,6262,11,65,8,1.0375842971861238
basic,30,19,0,0,0,28,"[0, 29, 9, 28]",4,8,"[4, 6, 10, 11, 14, 20, 22, 27]",107.4074075,14334,3290,6,10,7,1.1752193003234799
basic,30,19,0,0,0,4,"[0, 29, 9, 28, 4]",5,7,"[6, 10, 11, 14, 20, 22, 27]",96.22706758,17324,2990,6,3,7,1.236441625767462
basic,30,19,0,0,0,14,"[0, 29, 9, 28, 4, 14]",6,3,"[11, 20, 22]",46.21706858,31045,13721,3,0,7,1.2135641539421367
basic,30,19,0,0,1,11,"[0, 29, 9, 28, 4, 14, 11]",7,0,[],35.40041475,32352,1307,1,0,7,1.206809017186291
basic,30,19,0,1,1,11,"[0, 29, 9, 28, 4, 14, 11]",7,0,[],35.40041475,37898,5546,1,0,7,1.206809017186291
basic,31,0,0,0,0,0,[0],1,27,"[2, 3, 4, 5, 6, 7, 8, 9, 10, 11, 12, 13, 14, 15, 16, 17, 19, 20, 21, 22, 23, 24, 25, 26, 27, 28, 29]",300,173,-1,104,1136,9,0.0
basic,31,0,0,0,0,28,"[0, 28]",2,26,"[2, 3, 4, 5, 6, 7, 8, 9, 10, 11, 12, 13, 14, 15, 16, 17, 19, 20, 21, 22, 23, 24, 25, 26, 27, 29]",194.9190788,11372,11199,39,388,9,1.0
basic,31,0,0,0,0,5,"[0, 28, 5]",3,21,"[2, 3, 4, 7, 8, 9, 11, 12, 13, 14, 15, 16, 17, 19, 20, 21, 23, 24, 25, 26, 29]",151.2613189,14456,3084,27,210,9,1.0978295127671733
basic,31,0,0,0,0,26,"[0, 28, 5, 26]",4,15,"[3, 4, 7, 8, 9, 11, 12, 13, 14, 15, 17, 19, 20, 23, 24]",115.8212286,17885,3429,5,35,9,1.1400379746718978
basic,31,0,0,0,0,4,"[0, 28, 5, 26, 4]",5,12,"[3, 7, 8, 9, 11, 12, 15, 17, 19, 20, 23, 24]",103.779634,20252,2367,4,17,9,1.2534780347343448
basic,31,0,0,0,0,24,"[0, 28, 5, 26, 4, 24]",6,9,"[3, 7, 8, 9, 11, 12, 15, 17, 19]",92.37787977,21324,1072,4,12,9,1.2444963062448124
basic,31,0,0,0,0,15,"[0, 28, 5, 26, 4, 24, 15]",7,6,"[3, 7, 8, 9, 11, 17]",69.03264471,23753,2429,3,4,9,1.2218613820858855
basic,31,0,0,0,0,7,"[0, 28, 5, 26, 4, 24, 15, 7]",8,2,"[3, 8]",37.96819558,24780,1027,2,0,9,1.2781430976973103
basic,31,0,0,0,1,8,"[0, 28, 5, 26, 4, 24, 15, 7, 8]",9,0,[],18.8632224,27736,2956,1,0,9,1.263743502581705
basic,31,0,0,1,1,8,"[0, 28, 5, 26, 4, 24, 15, 7, 8]",9,0,[],18.8632224,31448,3712,1,0,9,1.263743502581705
basic,32,3,0,0,0,0,[0],1,29,"[1, 2, 3, 4, 5, 6, 7, 8, 9, 10, 11, 12, 13, 14, 15, 16, 17, 18, 19, 20, 21, 22, 23, 24, 25, 26, 27, 28, 29]",300,176,-1,34,427,10,0.0
basic,32,3,0,0,0,24,"[0, 24]",2,27,"[1, 2, 3, 4, 5, 6, 7, 8, 9, 10, 11, 12, 13, 14, 15, 16, 17, 18, 19, 20, 21, 22, 25, 26, 27, 28, 29]",241.1442441,10689,10513,1,40,10,1.0
basic,32,3,0,0,0,17,"[0, 24, 17]",3,13,"[3, 4, 7, 8, 10, 14, 15, 16, 19, 20, 21, 22, 27]",171.7900806,13073,2384,4,33,9,1.2532313834613698
basic,32,3,0,0,0,20,"[0, 24, 17, 20]",4,10,"[3, 4, 7, 8, 10, 14, 15, 16, 19, 21]",159.1409699,13724,651,4,21,9,1.2441552028909786
basic,32,3,0,0,0,3,"[0, 24, 17, 20, 3]",5,8,"[4, 7, 8, 10, 14, 16, 19, 21]",138.7448919,14512,788,4,12,9,1.2890100688984463
basic,32,3,0,0,0,19,"[0, 24, 17, 20, 3, 19]",6,5,"[4, 8, 10, 14, 21]",101.4085825,15441,929,2,5,9,1.3456482099334586
basic,32,3,0,0,0,21,"[0, 24, 17, 20, 3, 19, 21]",7,3,"[4, 10, 14]",89.20202687,17233,1792,2,2,9,1.3708715753541716
basic,32,3,0,0,0,14,"[0, 24, 17, 20, 3, 19, 21, 14]",8,2,"[4, 10]",62.29477877,18324,1091,2,0,9,1.8468983830159784
basic,32,3,0,0,1,10,"[0, 24, 17, 20, 3, 19, 21, 14, 10]",9,0,[],16.84150606,20085,1761,1,0,9,1.7983120465283395
basic,32,3,0,1,1,10,"[0, 24, 17, 20, 3, 19, 21, 14, 10]",9,0,[],16.84150606,21864,1779,1,0,9,1.7983120465283395
basic,33,27,0,0,0,0,[0],1,26,"[1, 3, 5, 6, 7, 8, 9, 10, 11, 12, 13, 14, 15, 16, 17, 18, 19, 21, 22, 23, 24, 25, 26, 27, 28, 29]",300,149,-1,13,578,11,0.0
basic,33,27,0,0,0,15,"[0, 15]",2,24,"[1, 3, 5, 6, 7, 8, 9, 10, 11, 12, 13, 14, 16, 17, 18, 19, 21, 22, 23, 24, 25, 26, 27, 29]",263.7508621,3602,3453,6,219,11,1.0
basic,33,27,0,0,0,24,"[0, 15, 24]",3,20,"[1, 5, 6, 7, 8, 9, 10, 12, 13, 14, 16, 17, 18, 19, 21, 23, 25, 26, 27, 29]",246.5462115,4830,1228,6,130,11,1.130933077698322
basic,33,27,0,0,0,17,"[0, 15, 24, 17]",4,15,"[1, 6, 8, 10, 12, 13, 14, 16, 18, 19, 23, 25, 26, 27, 29]",229.9932662,5703,873,4,60,11,1.1285538435963374
basic,33,27,0,0,0,12,"[0, 15, 24, 17, 12]",5,14,"[1, 6, 8, 10, 13, 14, 16, 18, 19, 23, 25, 26, 27, 29]",218.8129263,6568,865,2,32,11,1.2561880288755216
basic,33,27,0,0,0,10,"[0, 15, 24, 17, 12, 10]",6,11,"[1, 8, 13, 14, 18, 19, 23, 25, 26, 27, 29]",207.7675653,8070,1502,2,28,11,1.2228289337766665
basic,33,27,0,0,0,13,"[0, 15, 24, 17, 12, 10, 13]",7,9,"[1, 8, 14, 18, 19, 23, 26, 27, 29]",167.9178476,10847,2777,2,18,11,1.3421291994761178
basic,33,27,0,0,0,19,"[0, 15, 24, 17, 12, 10, 13, 19]",8,5,"[1, 8, 14, 23, 29]",131.6825057,12091,1244,2,6,11,1.294749956153846
basic,33,27,0,0,0,8,"[0, 15, 24, 17, 12, 10, 13, 19, 8]",9,3,"[14, 23, 29]",116.816437,14078,1987,2,1,11,1.3554286578836865
basic,33,27,0,0,0,29,"[0, 15, 24, 17, 12, 10, 13, 19, 8, 29]",10,1,[14],57.61339652,15674,1596,1,0,11,1.248354519573802
basic,33,27,0,0,1,14,"[0, 15, 24, 17, 12, 10, 13, 19, 8, 29, 14]",11,0,[],13.31892734,17035,1361,1,0,11,1.562811097555156
basic,33,27,0,1,1,14,"[0, 15, 24, 17, 12, 10, 13, 19, 8, 29, 14]",11,0,[],13.31892734,19015,1980,1,0,11,1.562811097555156
basic,34,38,0,0,0,0,[0],1,29,"[1, 2, 3, 4, 5, 6, 7, 8, 9, 10, 11, 12, 13, 14, 15, 16, 17, 18, 19, 20, 21, 22, 23, 24, 25, 26, 27, 28, 29]",300,158,-1,33,506,9,0.0
basic,34,38,0,0,0,11,"[0, 11]",2,23,"[1, 2, 3, 4, 5, 7, 10, 12, 13, 14, 15, 16, 17, 18, 19, 20, 21, 22, 24, 25, 26, 27, 28]",220.093805,11982,11824,2,40,9,1.0
basic,34,38,0,0,0,28,"[0, 11, 28]",3,16,"[1, 4, 5, 7, 10, 12, 13, 14, 15, 16, 17, 19, 20, 21, 24, 26]",193.0752928,13104,1122,2,20,9,1.0012220945316377
basic,34,38,0,0,0,16,"[0, 11, 28, 16]",4,13,"[1, 4, 5, 10, 12, 13, 14, 15, 17, 19, 20, 24, 26]",164.0752928,14236,1132,2,16,9,1.2422672958602723
basic,34,38,0,0,0,15,"[0, 11, 28, 16, 15]",5,9,"[4, 5, 13, 14, 17, 19, 20, 24, 26]",122.4579887,15829,1593,2,14,9,2.4196280466601676
basic,34,38,0,0,0,4,"[0, 11, 28, 16, 15, 4]",6,6,"[13, 17, 19, 20, 24, 26]",96.45798873,16568,739,2,9,9,2.9030072771852855
basic,34,38,0,0,0,20,"[0, 11, 28, 16, 15, 4, 20]",7,3,"[13, 17, 19]",62.51686323,17568,1000,1,2,9,4.409951139385221
basic,34,38,0,0,0,17,"[0, 11, 28, 16, 15, 4, 20, 17]",8,1,[19],38.74713459,19908,2340,1,0,9,4.030739410625113
basic,34,38,0,0,1,19,"[0, 11, 28, 16, 15, 4, 20, 17, 19]",9,0,[],17.36957626,20640,732,1,0,9,3.511004666623391
basic,34,38,0,1,1,19,"[0, 11, 28, 16, 15, 4, 20, 17, 19]",9,0,[],17.36957626,21781,1141,1,0,9,3.511004666623391
basic,35,20,0,0,0,0,[0],1,21,"[1, 2, 3, 4, 5, 6, 7, 8, 9, 12, 17, 18, 20, 21, 22, 23, 25, 26, 27, 28, 29]",300,150,-1,1,9,9,0.0
basic,35,20,0,0,0,1,"[0, 1]",2,14,"[3, 4, 5, 6, 8, 9, 12, 20, 21, 23, 26, 27, 28, 29]",197.3501096,5205,5055,1,9,8,1.0
basic,35,20,0,0,0,5,"[0, 1, 5]",3,12,"[4, 6, 8, 9, 12, 20, 21, 23, 26, 27, 28, 29]",160.675868,10357,5152,1,8,8,1.1088946720668915
basic,35,20,0,0,0,21,"[0, 1, 5, 21]",4,8,"[4, 6, 8, 9, 20, 23, 27, 28]",115.675868,12286,1929,1,6,8,1.0805828994591202
basic,35,20,0,0,0,8,"[0, 1, 5, 21, 8]",5,5,"[6, 9, 23, 27, 28]",98.21161876,13305,1019,1,5,8,1.0976815296746363
basic,35,20,0,0,0,27,"[0, 1, 5, 21, 8, 27]",6,1,[23],57.98724804,18157,4852,1,0,7,1.2719907843846436
basic,35,20,0,0,1,23,"[0, 1, 5, 21, 8, 27, 23]",7,0,[],5.977633539,19902,1745,1,0,7,1.2908014903941913
basic,35,20,0,1,1,23,"[0, 1, 5, 21, 8, 27, 23]",7,0,[],5.977633539,21365,1463,1,0,7,1.2908014903941913
basic,36,30,0,0,0,0,[0],1,19,"[3, 4, 5, 7, 9, 11, 16, 17, 18, 19, 20, 21, 22, 24, 25, 26, 27, 28, 29]",300,182,-1,5,41,8,0.0
basic,36,30,0,0,0,16,"[0, 16]",2,17,"[3, 5, 7, 9, 11, 17, 18, 19, 20, 21, 22, 24, 25, 26, 27, 28, 29]",219.3774225,19861,19679,5,34,8,1.0
basic,36,30,0,0,0,25,"[0, 16, 25]",3,10,"[3, 5, 7, 9, 11, 18, 19, 20, 27, 29]",115.0845656,23309,3448,5,28,8,1.0336279544884488
basic,36,30,0,0,0,20,"[0, 16, 25, 20]",4,8,"[3, 5, 7, 9, 18, 19, 27, 29]",93.15285342,24025,716,4,14,8,1.0337964627284246
basic,36,30,0,0,0,27,"[0, 16, 25, 20, 27]",5,4,"[3, 5, 18, 29]",59.09408069,25886,1861,4,6,8,1.1504365534848
basic,36,30,0,0,0,3,"[0, 16, 25, 20, 27, 3]",6,3,"[5, 18, 29]",39.98910751,32994,7108,4,0,8,1.1403876826835333
basic,36,30,0,0,0,18,"[0, 16, 25, 20, 27, 3, 18]",7,2,"[5, 29]",21.74081992,35729,2735,2,0,8,1.1392589158498312
basic,36,30,0,0,1,5,"[0, 16, 25, 20, 27, 3, 18, 5]",8,0,[],8.702415112,36977,1248,1,0,8,1.2046350140224855
basic,36,30,0,1,1,5,"[0, 16, 25, 20, 27, 3, 18, 5]",8,0,[],8.702415112,39214,2237,1,0,8,1.2046350140224855
basic,37,9,0,0,0,0,[0],1,27,"[1, 3, 4, 5, 6, 7, 8, 9, 10, 11, 13, 14, 15, 16, 17, 18, 19, 20, 21, 22, 23, 24, 25, 26, 27, 28, 29]",300,177,-1,2,182,10,0.0
basic,37,9,0,0,0,20,"[0, 20]",2,17,"[6, 7, 8, 9, 10, 15, 16, 17, 18, 19, 21, 22, 23, 25, 26, 27, 28]",173.3508784,13152,12975,1,42,8,1.0
basic,37,9,0,0,0,21,"[0, 20, 21]",3,15,"[7, 8, 9, 10, 15, 16, 17, 18, 19, 22, 23, 25, 26, 27, 28]",161.2678324,14317,1165,1,41,8,1.1704126573128746
basic,37,9,0,0,0,28,"[0, 20, 21, 28]",4,8,"[8, 9, 10, 18, 22, 23, 25, 26]",108.2678324,16411,2094,13,12,7,2.5813297705941847
basic,37,9,0,0,0,8,"[0, 20, 21, 28, 8]",5,5,"[9, 10, 23, 25, 26]",97.45117861,17303,892,6,2,7,3.175698385801249
basic,37,9,0,0,0,23,"[0, 20, 21, 28, 8, 23]",6,4,"[9, 10, 25, 26]",75.98026805,18172,869,4,0,7,3.762514250419802
basic,37,9,0,0,1,9,"[0, 20, 21, 28, 8, 23, 9]",7,0,[],53.61958828,19676,1504,1,0,7,3.3086848386426575
basic,37,9,0,1,1,9,"[0, 20, 21, 28, 8, 23, 9]",7,0,[],53.61958828,28198,8522,1,0,7,3.3086848386426575
basic,38,18,0,0,0,0,[0],1,28,"[1, 2, 3, 4, 5, 6, 7, 8, 9, 10, 11, 12, 13, 14, 16, 17, 18, 19, 20, 21, 22, 23, 24, 25, 26, 27, 28, 29]",300,223,-1,3,136,10,0.0
basic,38,18,0,0,0,28,"[0, 28]",2,16,"[1, 3, 5, 7, 8, 9, 12, 13, 14, 16, 20, 23, 24, 25, 26, 27]",236.4311397,7890,7667,2,19,10,1.0
basic,38,18,0,0,0,7,"[0, 28, 7]",3,15,"[1, 3, 5, 8, 9, 12, 13, 14, 16, 20, 23, 24, 25, 26, 27]",214.4084242,8702,812,2,17,10,1.4345180696367563
basic,38,18,0,0,0,25,"[0, 28, 7, 25]",4,13,"[1, 3, 5, 8, 9, 12, 13, 14, 16, 20, 23, 26, 27]",186.6055466,9945,1243,2,15,10,1.8896451241781882
basic,38,18,0,0,0,8,"[0, 28, 7, 25, 8]",5,10,"[3, 5, 9, 12, 13, 14, 16, 23, 26, 27]",149.551532,11945,2000,2,10,10,1.590467437592877
basic,38,18,0,0,0,13,"[0, 28, 7, 25, 8, 13]",6,9,"[3, 5, 9, 12, 14, 16, 23, 26, 27]",128.4565089,13741,1796,2,5,10,1.8248274983549797
basic,38,18,0,0,0,14,"[0, 28, 7, 25, 8, 13, 14]",7,7,"[3, 5, 9, 12, 23, 26, 27]",109.4828429,15305,1564,2,3,10,1.6993534956692746
basic,38,18,0,0,0,3,"[0, 28, 7, 25, 8, 13, 14, 3]",8,3,"[5, 12, 27]",79.39962499,16681,1376,2,1,10,1.802637206541468
basic,38,18,0,0,0,5,"[0, 28, 7, 25, 8, 13, 14, 3, 5]",9,1,[12],21.21887216,19073,2392,1,0,10,1.559774889743805
basic,38,18,0,0,1,12,"[0, 28, 7, 25, 8, 13, 14, 3, 5, 12]",10,0,[],9.817117911,20393,1320,1,0,10,1.563993037384447
basic,38,18,0,1,1,12,"[0, 28, 7, 25, 8, 13, 14, 3, 5, 12]",10,0,[],9.817117911,23599,3206,1,0,10,1.563993037384447
basic,39,25,0,0,0,0,[0],1,28,"[1, 2, 3, 4, 5, 7, 8, 9, 10, 11, 12, 13, 14, 15, 16, 17, 18, 19, 20, 21, 22, 23, 24, 25, 26, 27, 28, 29]",300,168,-1,5,94,10,0.0
basic,39,25,0,0,0,23,"[0, 23]",2,23,"[1, 2, 3, 5, 7, 8, 9, 11, 12, 13, 14, 16, 17, 19, 20, 21, 22, 24, 25, 26, 27, 28, 29]",259.7756293,2236,2068,3,33,10,1.0
basic,39,25,0,0,0,19,"[0, 23, 19]",3,21,"[1, 2, 3, 5, 7, 8, 9, 11, 12, 13, 14, 16, 17, 20, 21, 22, 24, 25, 27, 28, 29]",223.9287326,7057,4821,3,24,10,1.583101227007039
basic,39,25,0,0,0,29,"[0, 23, 19, 29]",4,19,"[1, 2, 3, 5, 7, 8, 9, 11, 12, 13, 14, 16, 17, 20, 21, 22, 24, 25, 28]",207.649912,7806,749,3,17,10,1.474631541426484
basic,39,25,0,0,0,22,"[0, 23, 19, 29, 22]",5,18,"[1, 2, 3, 5, 7, 8, 9, 11, 12, 13, 14, 16, 17, 20, 21, 24, 25, 28]",191.5253965,8685,879,3,14,10,1.4020377754906637
basic,39,25,0,0,0,7,"[0, 23, 19, 29, 22, 7]",6,7,"[3, 8, 9, 11, 13, 24, 28]",115.8814939,10971,2286,3,11,10,1.5709678649326715
basic,39,25,0,0,0,24,"[0, 23, 19, 29, 22, 7, 24]",7,5,"[3, 8, 9, 13, 28]",91.12265712,12563,1592,3,7,10,1.486191600033379
basic,39,25,0,0,0,9,"[0, 23, 19, 29, 22, 7, 24, 9]",8,4,"[3, 8, 13, 28]",73.09490075,13355,792,3,3,10,1.453504870342882
basic,39,25,0,0,0,3,"[0, 23, 19, 29, 22, 7, 24, 9, 3]",9,3,"[8, 13, 28]",42.82940885,16508,3153,3,0,10,1.388955167525479
basic,39,25,0,0,1,8,"[0, 23, 19, 29, 22, 7, 24, 9, 3, 8]",10,0,[],3.624817279,21168,4660,1,0,10,1.4820797135778283
basic,39,25,0,1,1,8,"[0, 23, 19, 29, 22, 7, 24, 9, 3, 8]",10,0,[],3.624817279,26981,5813,1,0,10,1.4820797135778283
basic,40,32,0,0,0,0,[0],1,29,"[1, 2, 3, 4, 5, 6, 7, 8, 9, 10, 11, 12, 13, 14, 15, 16, 17, 18, 19, 20, 21, 22, 23, 24, 25, 26, 27, 28, 29]",300,183,-1,17,359,10,0.0
basic,40,32,0,0,0,19,"[0, 19]",2,28,"[1, 2, 3, 4, 5, 6, 7, 8, 9, 10, 11, 12, 13, 14, 15, 16, 17, 18, 20, 21, 22, 23, 24, 25, 26, 27, 28, 29]",283.5075775,2227,2044,16,294,10,1.0
basic,40,32,0,0,0,13,"[0, 19, 13]",3,24,"[2, 3, 4, 5, 6, 8, 9, 10, 11, 12, 14, 15, 16, 17, 18, 20, 21, 22, 23, 24, 25, 26, 27, 28]",260.3127505,4484,2257,14,227,10,1.0172874229878615
basic,40,32,0,0,0,15,"[0, 19, 13, 15]",4,18,"[2, 3, 5, 8, 9, 10, 11, 12, 16, 17, 20, 22, 23, 24, 25, 26, 27, 28]",177.4393531,5744,1260,9,116,10,1.435447391509833
basic,40,32,0,0,0,28,"[0, 19, 13, 15, 28]",5,17,"[2, 3, 5, 8, 9, 10, 11, 12, 16, 17, 20, 22, 23, 24, 25, 26, 27]",166.0375988,6544,800,9,70,10,1.3843701324937985
basic,40,32,0,0,0,12,"[0, 19, 13, 15, 28, 12]",6,14,"[2, 3, 5, 8, 9, 10, 11, 16, 17, 20, 22, 24, 26, 27]",147.0639329,7156,612,6,35,10,1.358372254952329
basic,40,32,0,0,0,16,"[0, 19, 13, 15, 28, 12, 16]",7,13,"[2, 3, 5, 8, 9, 10, 11, 17, 20, 22, 24, 26, 27]",131.411457,8180,1024,5,15,10,1.4356932930709845
basic,40,32,0,0,0,22,"[0, 19, 13, 15, 28, 12, 16, 22]",8,6,"[2, 8, 9, 17, 20, 27]",97.57360838,9088,908,3,5,10,1.4335226411545752
basic,40,32,0,0,0,9,"[0, 19, 13, 15, 28, 12, 16, 22, 9]",9,3,"[2, 8, 20]",75.37000507,10244,1156,3,0,10,1.4837166378374758
basic,40,32,0,0,1,20,"[0, 19, 13, 15, 28, 12, 16, 22, 9, 20]",10,0,[],12.72018464,26076,15832,1,0,10,1.420264208067807
basic,40,32,0,1,1,20,"[0, 19, 13, 15, 28, 12, 16, 22, 9, 20]",10,0,[],12.72018464,28915,2839,1,0,10,1.420264208067807
basic,41,31,0,0,0,0,[0],1,27,"[1, 3, 4, 5, 6, 7, 8, 10, 11, 12, 13, 14, 15, 16, 17, 18, 19, 20, 21, 22, 23, 24, 25, 26, 27, 28, 29]",300,131,-1,2,87,10,0.0
basic,41,31,0,0,0,14,"[0, 14]",2,25,"[1, 3, 5, 6, 7, 8, 10, 11, 12, 13, 15, 16, 17, 18, 19, 20, 21, 22, 23, 24, 25, 26, 27, 28, 29]",263.861378,5874,5743,2,59,10,1.0
basic,41,31,0,0,0,27,"[0, 14, 27]",3,22,"[1, 3, 5, 6, 7, 8, 10, 11, 12, 13, 15, 16, 17, 18, 19, 20, 21, 22, 24, 25, 28, 29]",235.6833724,6830,956,1,39,10,1.5881859159302467
basic,41,31,0,0,0,8,"[0, 14, 27, 8]",4,20,"[1, 3, 5, 6, 7, 10, 11, 12, 13, 16, 17, 18, 19, 20, 21, 22, 24, 25, 28, 29]",224.6380114,7435,605,1,36,10,2.1665048452331277
basic,41,31,0,0,0,18,"[0, 14, 27, 8, 18]",5,15,"[1, 5, 6, 7, 11, 12, 13, 16, 17, 19, 20, 22, 25, 28, 29]",188.7911147,9058,1623,1,26,10,1.7273375741920205
basic,41,31,0,0,0,11,"[0, 14, 27, 8, 18, 11]",6,11,"[1, 5, 7, 12, 16, 17, 19, 20, 22, 25, 28]",153.9055876,10270,1212,13,17,9,2.386348208737804
basic,41,31,0,0,0,5,"[0, 14, 27, 8, 18, 11, 5]",7,5,"[16, 17, 20, 25, 28]",110.2249283,11142,872,3,3,9,2.163249612867222
basic,41,31,0,0,0,28,"[0, 14, 27, 8, 18, 11, 5, 28]",8,2,"[16, 17]",90.00117988,12134,992,2,0,9,1.9564635733184719
basic,41,31,0,0,1,17,"[0, 14, 27, 8, 18, 11, 5, 28, 17]",9,0,[],0.956247404,29768,17634,1,0,9,3.3035946495935673
basic,41,31,0,1,1,17,"[0, 14, 27, 8, 18, 11, 5, 28, 17]",9,0,[],0.956247404,33547,3779,1,0,9,3.3035946495935673
basic,42,16,0,0,0,0,[0],1,29,"[1, 2, 3, 4, 5, 6, 7, 8, 9, 10, 11, 12, 13, 14, 15, 16, 17, 18, 19, 20, 21, 22, 23, 24, 25, 26, 27, 28, 29]",300,173,-1,13,161,9,0.0
basic,42,16,0,0,0,17,"[0, 17]",2,27,"[1, 2, 3, 4, 5, 7, 8, 9, 10, 11, 12, 13, 14, 15, 16, 18, 19, 20, 21, 22, 23, 24, 25, 26, 27, 28, 29]",241.3058776,5878,5705,2,58,9,1.0
basic,42,16,0,0,0,16,"[0, 17, 16]",3,26,"[1, 2, 3, 4, 5, 7, 8, 9, 10, 11, 12, 13, 14, 15, 18, 19, 20, 21, 22, 23, 24, 25, 26, 27, 28, 29]",212.9862731,8162,2284,2,52,9,1.0529535521792848
basic,42,16,0,0,0,8,"[0, 17, 16, 8]",4,19,"[2, 3, 4, 5, 9, 12, 13, 14, 15, 19, 20, 21, 22, 23, 25, 26, 27, 28, 29]",164.6127266,9410,1248,2,38,9,1.0915134501573105
basic,42,16,0,0,0,20,"[0, 17, 16, 8, 20]",5,10,"[3, 4, 5, 9, 12, 13, 15, 19, 21, 25]",106.8372993,10786,1376,1,15,9,1.067523143001942
basic,42,16,0,0,0,25,"[0, 17, 16, 8, 20, 25]",6,7,"[3, 4, 5, 9, 12, 13, 15]",94.18818869,11410,624,1,9,9,1.1170093326933646
basic,42,16,0,0,0,9,"[0, 17, 16, 8, 20, 25, 9]",7,5,"[3, 4, 5, 13, 15]",81.38194021,12259,849,1,4,9,1.1095076562662525
basic,42,16,0,0,0,15,"[0, 17, 16, 8, 20, 25, 9, 15]",8,1,[5],42.48463953,13254,995,1,0,9,1.213831159678775
basic,42,16,0,0,1,5,"[0, 17, 16, 8, 20, 25, 9, 15, 5]",9,0,[],13.0567616,14654,1400,1,0,9,1.5171779607523481
basic,42,16,0,1,1,5,"[0, 17, 16, 8, 20, 25, 9, 15, 5]",9,0,[],13.0567616,16839,2185,1,0,9,1.5171779607523481
basic,43,10,0,0,0,0,[0],1,29,"[1, 2, 3, 4, 5, 6, 7, 8, 9, 10, 11, 12, 13, 14, 15, 16, 17, 18, 19, 20, 21, 22, 23, 24, 25, 26, 27, 28, 29]",300,149,-1,1,100,9,0.0
basic,43,10,0,0,0,13,"[0, 13]",2,25,"[1, 2, 3, 4, 6, 7, 8, 9, 10, 11, 12, 14, 17, 18, 19, 20, 21, 22, 23, 24, 25, 26, 27, 28, 29]",249.4628849,34188,34039,1,79,9,1.0
basic,43,10,0,0,0,11,"[0, 13, 11]",3,20,"[1, 2, 3, 6, 7, 8, 9, 10, 12, 14, 18, 19, 20, 21, 22, 24, 26, 27, 28, 29]",206.4512586,37620,3432,1,54,9,1.0313137484914219
basic,43,10,0,0,0,20,"[0, 13, 11, 20]",4,15,"[1, 2, 3, 6, 8, 9, 10, 12, 14, 18, 19, 21, 24, 26, 27]",168.3723931,38796,1176,15,34,8,1.0874972644654597
basic,43,10,0,0,0,26,"[0, 13, 11, 20, 26]",5,8,"[2, 6, 9, 10, 14, 18, 19, 27]",136.5918959,39956,1160,6,9,8,1.2338398611867702
basic,43,10,0,0,0,14,"[0, 13, 11, 20, 26, 14]",6,3,"[2, 19, 27]",101.9220243,40996,1040,2,1,8,1.2385196389162765
basic,43,10,0,0,0,2,"[0, 13, 11, 20, 26, 14, 2]",7,1,[19],89.75649919,41868,872,1,0,8,1.2878757708849242
basic,43,10,0,0,1,19,"[0, 13, 11, 20, 26, 14, 2, 19]",8,0,[],45.84750239,43904,2036,1,0,8,2.1284579604680154
basic,43,10,0,1,1,19,"[0, 13, 11, 20, 26, 14, 2, 19]",8,0,[],45.84750239,50948,7044,1,0,8,2.1284579604680154
basic,44,44,0,0,0,0,[0],1,29,"[1, 2, 3, 4, 5, 6, 7, 8, 9, 10, 11, 12, 13, 14, 15, 16, 17, 18, 19, 20, 21, 22, 23, 24, 25, 26, 27, 28, 29]",300,145,-1,13,126,7,0.0
basic,44,44,0,0,0,11,"[0, 11]",2,18,"[4, 5, 6, 7, 8, 9, 12, 14, 16, 17, 19, 20, 22, 23, 24, 25, 26, 28]",152.7790776,4342,4197,5,34,7,1.0
basic,44,44,0,0,0,14,"[0, 11, 14]",3,14,"[4, 5, 6, 7, 9, 12, 16, 17, 19, 22, 23, 24, 26, 28]",120.5765932,9026,4684,6,17,6,1.0032424984204007
basic,44,44,0,0,0,24,"[0, 11, 14, 24]",4,4,"[4, 7, 9, 23]",74.92574436,12883,3857,3,2,6,1.4978014171296756
basic,44,44,0,0,0,9,"[0, 11, 14, 24, 9]",5,1,[4],42.16906565,14070,1187,1,0,6,1.6248916534242954
basic,44,44,0,0,1,4,"[0, 11, 14, 24, 9, 4]",6,0,[],22.47135004,15399,1329,1,0,6,1.5800842308612977
basic,44,44,0,1,1,4,"[0, 11, 14, 24, 9, 4]",6,0,[],22.47135004,21012,5613,1,0,6,1.5800842308612977
basic,45,14,0,0,0,0,[0],1,29,"[1, 2, 3, 4, 5, 6, 7, 8, 9, 10, 11, 12, 13, 14, 15, 16, 17, 18, 19, 20, 21, 22, 23, 24, 25, 26, 27, 28, 29]",300,164,-1,8,157,10,0.0
basic,45,14,0,0,0,15,"[0, 15]",2,20,"[1, 2, 3, 4, 7, 8, 9, 13, 17, 18, 19, 20, 21, 22, 23, 25, 26, 27, 28, 29]",216.7053423,3487,3323,8,102,10,1.0
basic,45,14,0,0,0,28,"[0, 15, 28]",3,17,"[1, 2, 3, 4, 7, 8, 9, 13, 17, 18, 19, 20, 22, 23, 25, 26, 27]",197.4959696,4491,1004,8,48,10,1.0446007867311968
basic,45,14,0,0,0,17,"[0, 15, 28, 17]",4,14,"[1, 2, 3, 4, 7, 8, 13, 18, 19, 20, 22, 23, 25, 26]",184.0423455,7884,3393,8,39,10,1.0729463354689972
basic,45,14,0,0,0,18,"[0, 15, 28, 17, 18]",5,9,"[1, 2, 4, 7, 8, 19, 23, 25, 26]",119.412631,9079,1195,8,27,10,1.5035901079219378
basic,45,14,0,0,0,8,"[0, 15, 28, 17, 18, 8]",6,8,"[1, 2, 4, 7, 19, 23, 25, 26]",105.8111605,9903,824,8,18,10,1.4819689987843856
basic,45,14,0,0,0,1,"[0, 15, 28, 17, 18, 8, 1]",7,5,"[7, 19, 23, 25, 26]",82.21031307,13327,3424,4,6,10,1.4084991998385268
basic,45,14,0,0,0,19,"[0, 15, 28, 17, 18, 8, 1, 19]",8,4,"[7, 23, 25, 26]",66.97876686,16927,3600,4,1,10,1.5758713333797987
basic,45,14,0,0,0,26,"[0, 15, 28, 17, 18, 8, 1, 19, 26]",9,1,[23],13.75283333,20817,3890,1,0,10,1.4427883209195413
basic,45,14,0,0,1,23,"[0, 15, 28, 17, 18, 8, 1, 19, 26, 23]",10,0,[],2.936179503,22075,1258,1,0,10,1.5803726510701064
basic,45,14,0,1,1,23,"[0, 15, 28, 17, 18, 8, 1, 19, 26, 23]",10,0,[],2.936179503,28097,6022,1,0,10,1.5803726510701064
basic,46,36,0,0,0,0,[0],1,24,"[2, 4, 5, 6, 7, 8, 9, 10, 12, 13, 14, 15, 16, 17, 18, 19, 20, 22, 23, 25, 26, 27, 28, 29]",300,217,-1,2,200,10,0.0
basic,46,36,0,0,0,12,"[0, 12]",2,23,"[2, 4, 5, 6, 7, 8, 9, 10, 13, 14, 15, 16, 17, 18, 19, 20, 22, 23, 25, 26, 27, 28, 29]",277.7963967,6712,6495,90,804,9,1.0
basic,46,36,0,0,0,13,"[0, 12, 13]",3,18,"[2, 4, 7, 8, 9, 10, 16, 17, 18, 19, 20, 22, 23, 25, 26, 27, 28, 29]",198.6193798,10821,4109,15,125,9,1.033635478646562
basic,46,36,0,0,0,25,"[0, 12, 13, 25]",4,12,"[2, 4, 8, 9, 10, 16, 17, 18, 19, 23, 27, 29]",178.0281195,11574,753,13,50,9,1.0653480204572918
basic,46,36,0,0,0,2,"[0, 12, 13, 25, 2]",5,9,"[4, 8, 9, 10, 16, 17, 18, 19, 27]",153.0281195,12992,1418,13,13,9,1.3014517483013393
basic,46,36,0,0,0,19,"[0, 12, 13, 25, 2, 19]",6,5,"[9, 10, 16, 17, 18]",115.9066972,14070,1078,5,2,9,2.3884063284404666
basic,46,36,0,0,0,9,"[0, 12, 13, 25, 2, 19, 9]",7,3,"[16, 17, 18]",100.7739512,14848,778,2,1,9,2.8846088544693567
basic,46,36,0,0,0,16,"[0, 12, 13, 25, 2, 19, 9, 16]",8,1,[17],53.47701684,18403,3555,1,0,9,2.309608481772857
basic,46,36,0,0,1,17,"[0, 12, 13, 25, 2, 19, 9, 16, 17]",9,0,[],25.15741232,21396,2993,1,0,9,2.907939467177903
basic,46,36,0,1,1,17,"[0, 12, 13, 25, 2, 19, 9, 16, 17]",9,0,[],25.15741232,28216,6820,1,0,9,2.907939467177903
basic,47,29,0,0,0,0,[0],1,29,"[1, 2, 3, 4, 5, 6, 7, 8, 9, 10, 11, 12, 13, 14, 15, 16, 17, 18, 19, 20, 21, 22, 23, 24, 25, 26, 27, 28, 29]",300,147,-1,1,78,9,0.0
basic,47,29,0,0,0,6,"[0, 6]",2,28,"[1, 2, 3, 4, 5, 7, 8, 9, 10, 11, 12, 13, 14, 15, 16, 17, 18, 19, 20, 21, 22, 23, 24, 25, 26, 27, 28, 29]",228.4108947,12424,12277,1,25,9,1.0
basic,47,29,0,0,0,28,"[0, 6, 28]",3,24,"[1, 3, 4, 5, 7, 9, 10, 11, 12, 13, 14, 15, 16, 17, 18, 20, 21, 22, 23, 24, 25, 26, 27, 29]",187.1798384,14372,1948,1,22,9,1.162106788166845
basic,47,29,0,0,0,27,"[0, 6, 28, 27]",4,19,"[1, 3, 4, 5, 7, 9, 10, 11, 12, 13, 14, 15, 16, 21, 22, 23, 25, 26, 29]",166.6615539,17268,2896,1,21,9,1.2307173895439045
basic,47,29,0,0,0,22,"[0, 6, 28, 27, 22]",5,13,"[1, 3, 4, 5, 7, 9, 12, 13, 14, 15, 21, 26, 29]",133.4200136,18592,1324,1,19,9,1.4241767805149903
basic,47,29,0,0,0,12,"[0, 6, 28, 27, 22, 12]",6,8,"[4, 5, 7, 9, 13, 14, 21, 26]",95.4726817,20296,1704,1,6,9,1.3248355326460857
basic,47,29,0,0,0,7,"[0, 6, 28, 27, 22, 12, 7]",7,4,"[4, 5, 9, 21]",81.87121119,20996,700,1,3,9,1.3264091962339806
basic,47,29,0,0,0,9,"[0, 6, 28, 27, 22, 12, 7, 9]",8,1,[4],52.80232748,22534,1538,1,0,9,1.309391257644539
basic,47,29,0,0,1,4,"[0, 6, 28, 27, 22, 12, 7, 9, 4]",9,0,[],11.76575843,25400,2866,1,0,9,1.6396807789841599
basic,47,29,0,1,1,4,"[0, 6, 28, 27, 22, 12, 7, 9, 4]",9,0,[],11.76575843,44347,18947,1,0,9,1.6396807789841599
basic,48,42,0,0,0,0,[0],1,29,"[1, 2, 3, 4, 5, 6, 7, 8, 9, 10, 11, 12, 13, 14, 15, 16, 17, 18, 19, 20, 21, 22, 23, 24, 25, 26, 27, 28, 29]",300,152,-1,16,302,9,0.0
basic,48,42,0,0,0,4,"[0, 4]",2,28,"[1, 2, 3, 5, 6, 7, 8, 9, 10, 11, 12, 13, 14, 15, 16, 17, 18, 19, 20, 21, 22, 23, 24, 25, 26, 27, 28, 29]",209.5290102,17946,17794,4,80,9,1.0
basic,48,42,0,0,0,22,"[0, 4, 22]",3,24,"[1, 2, 3, 5, 6, 7, 8, 9, 10, 11, 13, 15, 17, 18, 19, 20, 21, 23, 24, 25, 26, 27, 28, 29]",198.3486703,19402,1456,3,53,9,1.1473032812120834
basic,48,42,0,0,0,8,"[0, 4, 22, 8]",4,21,"[1, 2, 3, 5, 6, 7, 10, 11, 15, 17, 18, 19, 20, 21, 23, 24, 25, 26, 27, 28, 29]",176.2127267,24668,5266,2,36,9,1.1513227322639639
basic,48,42,0,0,0,1,"[0, 4, 22, 8, 1]",5,12,"[2, 5, 6, 7, 10, 15, 18, 19, 24, 26, 27, 28]",127.1209758,28775,4107,2,24,9,1.1101621876186907
basic,48,42,0,0,0,27,"[0, 4, 22, 8, 1, 27]",6,4,"[2, 7, 19, 26]",68.90585752,35374,6599,3,3,8,1.0837553044946897
basic,48,42,0,0,0,26,"[0, 4, 22, 8, 1, 27, 26]",7,3,"[2, 7, 19]",50.87810114,36342,968,3,0,8,1.2581914083838384
basic,48,42,0,0,1,7,"[0, 4, 22, 8, 1, 27, 26, 7]",8,0,[],24.30744063,39739,3397,1,0,8,1.591446514672426
basic,48,42,0,1,1,7,"[0, 4, 22, 8, 1, 27, 26, 7]",8,0,[],24.30744063,46232,6493,1,0,8,1.591446514672426
basic,49,40,0,0,0,0,[0],1,29,"[1, 2, 3, 4, 5, 6, 7, 8, 9, 10, 11, 12, 13, 14, 15, 16, 17, 18, 19, 20, 21, 22, 23, 24, 25, 26, 27, 28, 29]",300,152,-1,8,191,9,0.0
basic,49,40,0,0,0,1,"[0, 1]",2,18,"[2, 5, 6, 7, 8, 9, 10, 11, 13, 15, 17, 18, 19, 21, 22, 23, 27, 29]",247.8463808,11894,11742,4,80,9,1.0
basic,49,40,0,0,0,6,"[0, 1, 6]",3,17,"[2, 5, 7, 8, 9, 10, 11, 13, 15, 17, 18, 19, 21, 22, 23, 27, 29]",227.7466295,12982,1088,4,74,9,1.0459427008232034
basic,49,40,0,0,0,9,"[0, 1, 6, 9]",4,10,"[2, 5, 8, 11, 18, 19, 21, 22, 23, 27]",159.146338,14278,1296,17,39,8,1.142098432552584
basic,49,40,0,0,0,18,"[0, 1, 6, 9, 18]",5,9,"[2, 5, 8, 11, 19, 21, 22, 23, 27]",142.5933926,16258,1980,13,14,8,1.3288108654802917
basic,49,40,0,0,0,5,"[0, 1, 6, 9, 18, 5]",6,7,"[2, 8, 19, 21, 22, 23, 27]",111.0180858,21270,5012,5,5,8,1.5366414787972102
basic,49,40,0,0,0,23,"[0, 1, 6, 9, 18, 5, 23]",7,3,"[2, 19, 21]",82.71614241,41710,20440,3,0,8,2.2908821040631264
basic,49,40,0,0,1,2,"[0, 1, 6, 9, 18, 5, 23, 2]",8,0,[],13.25392246,48822,7112,1,0,8,7.9134365177602355
basic,49,40,0,1,1,2,"[0, 1, 6, 9, 18, 5, 23, 2]",8,0,[],13.25392246,50679,1857,1,0,8,7.9134365177602355
basic,50,39,0,0,0,0,[0],1,28,"[1, 2, 3, 4, 5, 6, 7, 9, 10, 11, 12, 13, 14, 15, 16, 17, 18, 19, 20, 21, 22, 23, 24, 25, 26, 27, 28, 29]",300,147,-1,1,30,10,0.0
basic,50,39,0,0,0,29,"[0, 29]",2,26,"[1, 2, 3, 4, 5, 6, 7, 9, 10, 12, 13, 14, 15, 16, 17, 18, 19, 20, 21, 22, 23, 24, 25, 26, 27, 28]",243.0614366,11635,11488,8,104,9,1.0
basic,50,39,0,0,0,12,"[0, 29, 12]",3,18,"[1, 2, 4, 5, 7, 9, 10, 13, 14, 15, 16, 18, 19, 22, 23, 24, 26, 28]",182.5221931,14643,3008,5,54,9,1.0026200331524904
basic,50,39,0,0,0,10,"[0, 29, 12, 10]",4,16,"[1, 2, 4, 5, 7, 9, 13, 14, 15, 16, 18, 19, 22, 23, 24, 26]",147.0116313,15511,868,5,34,9,1.2874817019928908
basic,50,39,0,0,0,7,"[0, 29, 12, 10, 7]",5,10,"[1, 2, 5, 13, 16, 18, 19, 22, 24, 26]",113.5900814,16443,932,4,12,9,1.2250826263866774
basic,50,39,0,0,0,26,"[0, 29, 12, 10, 7, 26]",6,5,"[1, 16, 18, 19, 22]",94.90853971,17171,728,3,4,9,1.2697275353190085
basic,50,39,0,0,0,22,"[0, 29, 12, 10, 7, 26, 22]",7,2,"[16, 19]",77.18849457,18107,936,2,0,9,1.438961743955176
basic,50,39,0,0,0,16,"[0, 29, 12, 10, 7, 26, 22, 16]",8,1,[19],42.18849457,21591,3484,1,0,9,1.3580882130477205
basic,50,39,0,0,1,19,"[0, 29, 12, 10, 7, 26, 22, 16, 19]",9,0,[],24.72424537,24403,2812,1,0,9,1.3646589157842668
basic,50,39,0,1,1,19,"[0, 29, 12, 10, 7, 26, 22, 16, 19]",9,0,[],24.72424537,36680,12277,1,0,9,1.3646589157842668
basic,51,1,0,0,0,0,[0],1,26,"[1, 2, 4, 5, 7, 8, 9, 10, 11, 12, 13, 14, 15, 16, 17, 18, 19, 20, 21, 22, 23, 24, 25, 26, 28, 29]",300,135,-1,6,74,7,0.0
basic,51,1,0,0,0,14,"[0, 14]",2,19,"[1, 4, 5, 8, 9, 13, 15, 17, 18, 19, 20, 21, 22, 23, 24, 25, 26, 28, 29]",200.1901808,14953,14818,5,42,7,1.0
basic,51,1,0,0,0,17,"[0, 14, 17]",3,15,"[1, 4, 5, 8, 9, 13, 15, 18, 19, 20, 22, 23, 25, 28, 29]",147.8356204,16327,1374,5,27,7,1.0028844724416826
basic,51,1,0,0,0,1,"[0, 14, 17, 1]",4,12,"[4, 5, 8, 9, 15, 18, 20, 22, 23, 25, 28, 29]",123.4840291,18175,1848,5,15,7,1.0264985578353567
basic,51,1,0,0,0,28,"[0, 14, 17, 1, 28]",5,5,"[9, 15, 22, 23, 29]",88.59850198,21452,3277,5,3,7,1.0339861575999345
basic,51,1,0,0,0,23,"[0, 14, 17, 1, 28, 23]",6,2,"[15, 22]",51.70676849,22765,1313,2,0,7,1.0327458250705703
basic,51,1,0,0,1,15,"[0, 14, 17, 1, 28, 23, 15]",7,0,[],20.81987807,23934,1169,1,0,7,1.1948681641401226
basic,51,1,0,1,1,15,"[0, 14, 17, 1, 28, 23, 15]",7,0,[],20.81987807,26247,2313,1,0,7,1.1948681641401226
basic,52,34,0,0,0,0,[0],1,25,"[1, 3, 4, 5, 6, 7, 8, 9, 10, 11, 12, 13, 15, 18, 19, 20, 21, 22, 23, 24, 25, 26, 27, 28, 29]",300,148,-1,12,367,10,0.0
basic,52,34,0,0,0,13,"[0, 13]",2,24,"[1, 3, 4, 5, 6, 7, 8, 9, 10, 11, 12, 15, 18, 19, 20, 21, 22, 23, 24, 25, 26, 27, 28, 29]",279.9750156,2813,2665,12,331,10,1.0
basic,52,34,0,0,0,1,"[0, 13, 1]",3,16,"[3, 5, 7, 8, 9, 10, 11, 12, 19, 21, 22, 23, 24, 25, 27, 29]",211.8574701,12542,9729,3,92,10,1.0010381285747127
basic,52,34,0,0,0,8,"[0, 13, 1, 8]",4,14,"[3, 5, 7, 9, 10, 11, 12, 19, 22, 23, 24, 25, 27, 29]",201.0871405,13141,599,2,54,10,1.1636807
basic,52,34,0,0,0,25,"[0, 13, 1, 8, 25]",5,12,"[3, 5, 7, 9, 10, 11, 12, 22, 23, 24, 27, 29]",183.999133,13718,577,2,28,10,1.1396208815936457
basic,52,34,0,0,0,24,"[0, 13, 1, 8, 25, 24]",6,11,"[3, 5, 7, 9, 10, 11, 12, 22, 23, 27, 29]",166.5062774,15442,1724,2,23,10,1.374180768736554
basic,52,34,0,0,0,12,"[0, 13, 1, 8, 25, 24, 12]",7,7,"[7, 9, 10, 11, 22, 23, 27]",115.4670767,16893,1451,1,8,10,1.4994254760835948
basic,52,34,0,0,0,7,"[0, 13, 1, 8, 25, 24, 12, 7]",8,5,"[9, 11, 22, 23, 27]",100.4337804,18068,1175,1,4,10,1.758992610425009
basic,52,34,0,0,0,23,"[0, 13, 1, 8, 25, 24, 12, 7, 23]",9,1,[27],72.27352467,20341,2273,1,0,10,2.399781305190153
basic,52,34,0,0,1,27,"[0, 13, 1, 8, 25, 24, 12, 7, 23, 27]",10,0,[],18.60789321,22590,2249,1,0,10,4.766619878750327
basic,52,34,0,1,1,27,"[0, 13, 1, 8, 25, 24, 12, 7, 23, 27]",10,0,[],18.60789321,24931,2341,1,0,10,4.766619878750327
basic,53,22,0,0,0,0,[0],1,29,"[1, 2, 3, 4, 5, 6, 7, 8, 9, 10, 11, 12, 13, 14, 15, 16, 17, 18, 19, 20, 21, 22, 23, 24, 25, 26, 27, 28, 29]",300,182,-1,31,704,9,0.0
basic,53,22,0,0,0,16,"[0, 16]",2,21,"[1, 3, 6, 7, 8, 9, 11, 13, 14, 15, 17, 18, 19, 20, 21, 22, 24, 25, 27, 28, 29]",218.605897,7184,7002,17,147,9,1.0
basic,53,22,0,0,0,28,"[0, 16, 28]",3,13,"[6, 7, 9, 13, 14, 17, 19, 20, 21, 22, 24, 25, 29]",184.1675463,9536,2352,12,61,9,1.047282311284478
basic,53,22,0,0,0,6,"[0, 16, 28, 6]",4,12,"[7, 9, 13, 14, 17, 19, 20, 21, 22, 24, 25, 29]",154.1675463,10478,942,12,43,9,1.645645870580622
basic,53,22,0,0,0,9,"[0, 16, 28, 6, 9]",5,8,"[7, 14, 17, 19, 20, 21, 24, 29]",127.5404924,11352,874,8,17,9,1.925750226630103
basic,53,22,0,0,0,19,"[0, 16, 28, 6, 9, 19]",6,6,"[7, 14, 17, 21, 24, 29]",107.1444143,13939,2587,3,7,9,2.4220750331476455
basic,53,22,0,0,0,29,"[0, 16, 28, 6, 9, 19, 29]",7,4,"[7, 14, 17, 24]",92.11111796,14987,1048,2,2,9,2.6996279574991067
basic,53,22,0,0,0,14,"[0, 16, 28, 6, 9, 19, 29, 14]",8,1,[7],33.86165444,17179,2192,1,0,9,2.0544639927929462
basic,53,22,0,0,1,7,"[0, 16, 28, 6, 9, 19, 29, 14, 7]",9,0,[],20.82324963,18063,884,1,0,9,2.219817088951114
basic,53,22,0,1,1,7,"[0, 16, 28, 6, 9, 19, 29, 14, 7]",9,0,[],20.82324963,20932,2869,1,0,9,2.219817088951114
basic,54,8,0,0,0,0,[0],1,29,"[1, 2, 3, 4, 5, 6, 7, 8, 9, 10, 11, 12, 13, 14, 15, 16, 17, 18, 19, 20, 21, 22, 23, 24, 25, 26, 27, 28, 29]",300,150,-1,10,149,9,0.0
basic,54,8,0,0,0,5,"[0, 5]",2,28,"[1, 2, 3, 4, 6, 7, 8, 9, 10, 11, 12, 13, 14, 15, 16, 17, 18, 19, 20, 21, 22, 23, 24, 25, 26, 27, 28, 29]",254.5137383,3950,3800,10,100,9,1.0
basic,54,8,0,0,0,25,"[0, 5, 25]",3,20,"[1, 2, 3, 4, 6, 11, 12, 14, 15, 16, 17, 18, 19, 20, 21, 22, 23, 24, 28, 29]",215.3091468,7186,3236,4,42,9,1.2272747879909065
basic,54,8,0,0,0,1,"[0, 5, 25, 1]",4,17,"[3, 4, 6, 11, 12, 14, 15, 16, 17, 18, 20, 21, 22, 23, 24, 28, 29]",190.3091468,18441,11255,3,24,9,1.1770245007593956
basic,54,8,0,0,0,23,"[0, 5, 25, 1, 23]",5,15,"[3, 4, 6, 11, 14, 15, 16, 17, 18, 20, 21, 22, 24, 28, 29]",167.2874179,19297,856,1,14,9,1.141996583852372
basic,54,8,0,0,0,4,"[0, 5, 25, 1, 23, 4]",6,6,"[3, 14, 16, 18, 21, 28]",117.9518324,21597,2300,3,4,8,1.115517190692443
basic,54,8,0,0,0,18,"[0, 5, 25, 1, 23, 4, 18]",7,2,"[14, 28]",74.94020603,22620,1023,2,0,8,1.702606074443807
basic,54,8,0,0,1,14,"[0, 5, 25, 1, 23, 4, 18, 14]",8,0,[],17.45107663,24129,1509,1,0,8,3.306985013025639
basic,54,8,0,1,1,14,"[0, 5, 25, 1, 23, 4, 18, 14]",8,0,[],17.45107663,37883,13754,1,0,8,3.306985013025639
basic,55,41,0,0,0,0,[0],1,29,"[1, 2, 3, 4, 5, 6, 7, 8, 9, 10, 11, 12, 13, 14, 15, 16, 17, 18, 19, 20, 21, 22, 23, 24, 25, 26, 27, 28, 29]",300,149,-1,1,143,10,0.0
basic,55,41,0,0,0,13,"[0, 13]",2,23,"[1, 2, 3, 5, 6, 7, 9, 10, 11, 12, 14, 15, 17, 18, 19, 20, 21, 22, 24, 25, 26, 27, 28]",258.2747079,3386,3237,1,55,10,1.0
basic,55,41,0,0,0,28,"[0, 13, 28]",3,22,"[1, 2, 3, 5, 6, 7, 9, 10, 11, 12, 14, 15, 17, 18, 19, 20, 21, 22, 24, 25, 26, 27]",223.7928286,9686,6300,1,39,10,1.895724242592676
basic,55,41,0,0,0,5,"[0, 13, 28, 5]",4,19,"[1, 2, 3, 6, 9, 10, 11, 12, 14, 15, 17, 18, 19, 20, 21, 22, 24, 25, 27]",210.1913581,11900,2214,1,34,10,2.861541269398273
basic,55,41,0,0,0,22,"[0, 13, 28, 5, 22]",5,12,"[2, 3, 6, 9, 10, 11, 12, 17, 18, 20, 21, 25]",155.4464953,13390,1490,11,12,9,2.096079268852861
basic,55,41,0,0,0,3,"[0, 13, 28, 5, 22, 3]",6,8,"[2, 9, 10, 12, 17, 18, 20, 21]",125.4798472,14234,844,7,5,9,4.404491319005463
basic,55,41,0,0,0,21,"[0, 13, 28, 5, 22, 3, 21]",7,4,"[2, 9, 12, 17]",93.33952984,16442,2208,5,1,9,4.228139797553632
basic,55,41,0,0,0,9,"[0, 13, 28, 5, 22, 3, 21, 9]",8,2,"[2, 17]",43.97354965,17726,1284,2,0,9,3.111188754077749
basic,55,41,0,0,1,2,"[0, 13, 28, 5, 22, 3, 21, 9, 2]",9,0,[],31.89050368,24483,6757,1,0,9,2.963304814480547
basic,55,41,0,1,1,2,"[0, 13, 28, 5, 22, 3, 21, 9, 2]",9,0,[],31.89050368,32080,7597,1,0,9,2.963304814480547
basic,56,17,0,0,0,0,[0],1,28,"[1, 2, 3, 4, 5, 6, 7, 8, 9, 10, 11, 12, 13, 14, 15, 16, 17, 18, 19, 20, 22, 23, 24, 25, 26, 27, 28, 29]",300,157,-1,2,73,8,0.0
basic,56,17,0,0,0,9,"[0, 9]",2,25,"[1, 2, 3, 5, 6, 7, 8, 10, 11, 12, 14, 15, 16, 17, 18, 19, 20, 22, 23, 24, 25, 26, 27, 28, 29]",210.5293344,9300,9143,1,34,8,1.0
basic,56,17,0,0,0,16,"[0, 9, 16]",3,21,"[1, 2, 3, 5, 7, 8, 10, 11, 12, 14, 17, 18, 19, 20, 22, 23, 25, 26, 27, 28, 29]",197.1876704,10418,1118,1,26,8,1.173103464220352
basic,56,17,0,0,0,2,"[0, 9, 16, 2]",4,18,"[1, 3, 5, 7, 8, 10, 11, 12, 14, 17, 18, 19, 23, 25, 26, 27, 28, 29]",181.0631549,16123,5705,1,23,8,1.14825089247282
basic,56,17,0,0,0,17,"[0, 9, 16, 2, 17]",5,7,"[7, 8, 12, 14, 26, 27, 29]",142.7356191,20087,3964,4,5,7,1.4896040699768547
basic,56,17,0,0,0,8,"[0, 9, 16, 2, 17, 8]",6,3,"[7, 12, 27]",104.5256727,21307,1220,3,0,7,1.4604726966175894
basic,56,17,0,0,1,27,"[0, 9, 16, 2, 17, 8, 27]",7,0,[],21.88790895,24207,2900,1,0,7,1.2949460667276491
basic,56,17,0,1,1,27,"[0, 9, 16, 2, 17, 8, 27]",7,0,[],21.88790895,29965,5758,1,0,7,1.2949460667276491
basic,57,24,0,0,0,0,[0],1,29,"[1, 2, 3, 4, 5, 6, 7, 8, 9, 10, 11, 12, 13, 14, 15, 16, 17, 18, 19, 20, 21, 22, 23, 24, 25, 26, 27, 28, 29]",300,148,-1,4,76,10,0.0
basic,57,24,0,0,0,16,"[0, 16]",2,28,"[1, 2, 3, 4, 5, 6, 7, 8, 9, 10, 11, 12, 13, 14, 15, 17, 18, 19, 20, 21, 22, 23, 24, 25, 26, 27, 28, 29]",210.3562607,7063,6915,13,110,9,1.0
basic,57,24,0,0,0,8,"[0, 16, 8]",3,22,"[1, 2, 3, 4, 6, 9, 10, 11, 13, 14, 15, 17, 20, 21, 22, 23, 24, 25, 26, 27, 28, 29]",181.3562607,10327,3264,3,31,9,1.0774669368510212
basic,57,24,0,0,0,22,"[0, 16, 8, 22]",4,18,"[2, 3, 4, 6, 9, 10, 11, 13, 14, 15, 17, 23, 24, 25, 26, 27, 28, 29]",167.9398528,11468,1141,3,23,9,1.2531772310046492
basic,57,24,0,0,0,15,"[0, 16, 8, 22, 15]",5,16,"[3, 4, 6, 9, 10, 11, 13, 14, 17, 23, 24, 25, 26, 27, 28, 29]",146.7266494,12627,1159,3,16,9,1.2813329946092564
basic,57,24,0,0,0,28,"[0, 16, 8, 22, 15, 28]",6,8,"[3, 4, 9, 11, 13, 23, 26, 27]",101.4497237,14095,1468,3,5,9,1.2060847818642253
basic,57,24,0,0,0,23,"[0, 16, 8, 22, 15, 28, 23]",7,3,"[9, 11, 27]",82.42342609,14839,744,3,1,9,1.2349355190066822
basic,57,24,0,0,0,11,"[0, 16, 8, 22, 15, 28, 23, 11]",8,2,"[9, 27]",55.49760206,15979,1140,2,0,9,1.2172586817191506
basic,57,24,0,0,1,27,"[0, 16, 8, 22, 15, 28, 23, 11, 27]",9,0,[],27.69472451,20507,4528,1,0,9,1.192247579330137
basic,57,24,0,1,1,27,"[0, 16, 8, 22, 15, 28, 23, 11, 27]",9,0,[],27.69472451,23881,3374,1,0,9,1.192247579330137
basic,58,23,0,0,0,0,[0],1,28,"[1, 2, 3, 4, 5, 6, 7, 8, 9, 10, 11, 12, 13, 14, 15, 16, 17, 18, 19, 20, 21, 22, 23, 25, 26, 27, 28, 29]",300,152,-1,76,2626,10,0.0
basic,58,23,0,0,0,27,"[0, 27]",2,11,"[2, 6, 7, 9, 10, 12, 13, 14, 18, 22, 29]",156.8217894,14991,14839,6,455,9,1.0
basic,58,23,0,0,0,6,"[0, 27, 6]",3,10,"[2, 7, 9, 10, 12, 13, 14, 18, 22, 29]",128.519846,16134,1143,6,168,9,1.1413510010705277
basic,58,23,0,0,0,14,"[0, 27, 6, 14]",4,8,"[2, 7, 9, 10, 12, 13, 22, 29]",99.65810659,23950,7816,2,32,9,1.4219735505960194
basic,58,23,0,0,0,9,"[0, 27, 6, 14, 9]",5,6,"[2, 7, 12, 13, 22, 29]",89.21780008,25679,1729,1,10,9,1.6133548304205922
basic,58,23,0,0,0,2,"[0, 27, 6, 14, 9, 2]",6,4,"[12, 13, 22, 29]",76.17939527,26817,1138,1,3,9,1.6402066364000951
basic,58,23,0,0,0,12,"[0, 27, 6, 14, 9, 2, 12]",7,2,"[13, 22]",62.28695128,27543,726,1,1,9,1.9391099230923743
basic,58,23,0,0,0,13,"[0, 27, 6, 14, 9, 2, 12, 13]",8,1,[22],50.20390531,29164,1621,1,0,9,2.256927456672835
basic,58,23,0,0,1,22,"[0, 27, 6, 14, 9, 2, 12, 13, 22]",9,0,[],8.01385909,30455,1291,1,0,9,3.262465893431997
basic,58,23,0,1,1,22,"[0, 27, 6, 14, 9, 2, 12, 13, 22]",9,0,[],8.01385909,33114,2659,1,0,9,3.262465893431997
basic,59,13,0,0,0,0,[0],1,29,"[1, 2, 3, 4, 5, 6, 7, 8, 9, 10, 11, 12, 13, 14, 15, 16, 17, 18, 19, 20, 21, 22, 23, 24, 25, 26, 27, 28, 29]",300,165,-1,60,2676,11,0.0
basic,59,13,0,0,0,24,"[0, 24]",2,28,"[1, 2, 3, 4, 5, 6, 7, 8, 9, 10, 11, 12, 13, 14, 15, 16, 17, 18, 19, 20, 21, 22, 23, 25, 26, 27, 28, 29]",288.8196601,6227,6062,16,1444,11,1.0
basic,59,13,0,0,0,28,"[0, 24, 28]",3,23,"[1, 2, 3, 4, 6, 7, 8, 9, 10, 11, 12, 13, 15, 16, 17, 19, 20, 21, 22, 23, 26, 27, 29]",222.5324064,7887,1660,8,243,11,1.0513810491680837
basic,59,13,0,0,0,2,"[0, 24, 28, 2]",4,19,"[1, 3, 4, 6, 7, 9, 11, 12, 13, 15, 16, 17, 19, 20, 21, 23, 26, 27, 29]",184.889346,9287,1400,7,110,11,1.050374132001543
basic,59,13,0,0,0,29,"[0, 24, 28, 2, 29]",5,18,"[1, 3, 4, 6, 7, 9, 11, 12, 13, 15, 16, 17, 19, 20, 21, 23, 26, 27]",173.1846461,10302,1015,7,85,11,1.1393409619120594
basic,59,13,0,0,0,7,"[0, 24, 28, 2, 29, 7]",6,17,"[1, 3, 4, 6, 9, 11, 12, 13, 15, 16, 17, 19, 20, 21, 23, 26, 27]",157.9203086,12656,2354,5,45,11,1.349777315111579
basic,59,13,0,0,0,26,"[0, 24, 28, 2, 29, 7, 26]",7,16,"[1, 3, 4, 6, 9, 11, 12, 13, 15, 16, 17, 19, 20, 21, 23, 27]",147.480002,13655,999,5,25,11,1.5942082773824946
basic,59,13,0,0,0,6,"[0, 24, 28, 2, 29, 7, 26, 6]",8,12,"[1, 3, 4, 11, 13, 15, 16, 17, 19, 20, 23, 27]",127.3802508,22439,8784,4,12,11,1.5898347940840756
basic,59,13,0,0,0,11,"[0, 24, 28, 2, 29, 7, 26, 6, 11]",9,6,"[1, 13, 15, 16, 17, 23]",108.2752776,24270,1831,3,4,11,1.5029953945561012
basic,59,13,0,0,0,13,"[0, 24, 28, 2, 29, 7, 26, 6, 11, 13]",10,2,"[15, 17]",52.19497806,28930,4660,2,0,11,1.3655915863754327
basic,59,13,0,0,1,15,"[0, 24, 28, 2, 29, 7, 26, 6, 11, 13, 15]",11,0,[],12.38291958,32395,3465,1,0,11,1.3653085520078876
basic,59,13,0,1,1,15,"[0, 24, 28, 2, 29, 7, 26, 6, 11, 13, 15]",11,0,[],12.38291958,36515,4120,1,0,11,1.3653085520078876
basic,60,43,0,0,0,0,[0],1,23,"[1, 2, 3, 4, 5, 6, 7, 9, 10, 11, 12, 14, 15, 16, 17, 19, 20, 21, 22, 23, 25, 27, 29]",300,147,-1,16,556,12,0.0
basic,60,43,0,0,0,29,"[0, 29]",2,22,"[1, 2, 3, 4, 5, 6, 7, 9, 10, 11, 12, 14, 15, 16, 17, 19, 20, 21, 22, 23, 25, 27]",277.909278,4936,4789,16,520,12,1.0
basic,60,43,0,0,0,20,"[0, 29, 20]",3,20,"[1, 2, 3, 4, 6, 7, 9, 10, 11, 12, 14, 15, 16, 17, 19, 21, 22, 23, 25, 27]",254.4785289,6022,1086,15,422,12,1.082311746871282
basic,60,43,0,0,0,16,"[0, 29, 20, 16]",4,19,"[1, 2, 3, 4, 6, 7, 9, 10, 11, 12, 14, 15, 17, 19, 21, 22, 23, 25, 27]",231.8511119,8744,2722,15,389,12,1.215201926898219
basic,60,43,0,0,0,25,"[0, 29, 20, 16, 25]",5,14,"[1, 2, 3, 4, 6, 7, 9, 11, 12, 14, 15, 19, 22, 23]",175.7708124,10152,1408,53,282,11,1.566384303308987
basic,60,43,0,0,0,15,"[0, 29, 20, 16, 25, 15]",6,13,"[1, 2, 3, 4, 6, 7, 9, 11, 12, 14, 19, 22, 23]",153.0992443,13020,2868,27,108,11,1.776736412604812
basic,60,43,0,0,0,12,"[0, 29, 20, 16, 25, 15, 12]",7,10,"[1, 3, 6, 7, 9, 11, 14, 19, 22, 23]",133.7860364,14028,1008,21,41,11,1.6813323012225032
basic,60,43,0,0,0,3,"[0, 29, 20, 16, 25, 15, 12, 3]",8,9,"[1, 6, 7, 9, 11, 14, 19, 22, 23]",120.7860364,15619,1591,20,12,11,1.608740348096123
basic,60,43,0,0,0,22,"[0, 29, 20, 16, 25, 15, 12, 3, 22]",9,6,"[1, 6, 7, 11, 14, 19]",86.07292644,24712,9093,9,2,11,1.793657891802588
basic,60,43,0,0,0,19,"[0, 29, 20, 16, 25, 15, 12, 3, 22, 19]",10,3,"[1, 6, 7]",65.45739831,25543,831,3,0,11,1.6882745891803936
basic,60,43,0,0,1,1,"[0, 29, 20, 16, 25, 15, 12, 3, 22, 19, 1]",11,0,[],37.2793927,29171,3628,1,0,11,1.825064866046553
basic,60,43,0,1,1,1,"[0, 29, 20, 16, 25, 15, 12, 3, 22, 19, 1]",11,0,[],37.2793927,37113,7942,1,0,11,1.825064866046553
basic,61,4,0,0,0,0,[0],1,26,"[3, 4, 5, 6, 7, 8, 10, 11, 12, 13, 14, 15, 16, 17, 18, 19, 20, 21, 22, 23, 24, 25, 26, 27, 28, 29]",300,177,-1,4,489,10,0.0
basic,61,4,0,0,0,28,"[0, 28]",2,21,"[3, 4, 5, 6, 10, 11, 12, 13, 14, 15, 16, 17, 19, 20, 21, 22, 23, 24, 25, 26, 27]",225.9392142,20455,20278,2,216,10,1.0
basic,61,4,0,0,0,14,"[0, 28, 14]",3,13,"[3, 4, 5, 6, 11, 13, 16, 17, 20, 21, 22, 24, 25]",159.6972335,22406,1951,1,26,10,1.0273973946789214
basic,61,4,0,0,0,25,"[0, 28, 14, 25]",4,12,"[3, 4, 5, 6, 11, 13, 16, 17, 20, 21, 22, 24]",143.572718,24454,2048,1,25,10,1.233547772313525
basic,61,4,0,0,0,11,"[0, 28, 14, 25, 11]",5,10,"[3, 4, 5, 6, 13, 16, 17, 20, 21, 22]",124.7844238,26438,1984,1,15,10,1.425978575879479
basic,61,4,0,0,0,16,"[0, 28, 14, 25, 11, 16]",6,9,"[3, 4, 5, 6, 13, 17, 20, 21, 22]",109.7844238,27835,1397,1,12,10,1.3799325158051412
basic,61,4,0,0,0,21,"[0, 28, 14, 25, 11, 16, 21]",7,4,"[5, 17, 20, 22]",65.58035157,32347,4512,3,3,9,1.5860540591673642
basic,61,4,0,0,0,22,"[0, 28, 14, 25, 11, 16, 21, 22]",8,3,"[5, 17, 20]",54.53499056,33317,970,3,0,9,1.5471132483772176
basic,61,4,0,0,1,17,"[0, 28, 14, 25, 11, 16, 21, 22, 17]",9,0,[],3.938547993,44200,10883,1,0,9,1.8061595555316958
basic,61,4,0,1,1,17,"[0, 28, 14, 25, 11, 16, 21, 22, 17]",9,0,[],3.938547993,46347,2147,1,0,9,1.8061595555316958
basic,62,12,0,0,0,0,[0],1,29,"[1, 2, 3, 4, 5, 6, 7, 8, 9, 10, 11, 12, 13, 14, 15, 16, 17, 18, 19, 20, 21, 22, 23, 24, 25, 26, 27, 28, 29]",300,161,-1,2,32,9,0.0
basic,62,12,0,0,0,22,"[0, 22]",2,22,"[2, 4, 5, 6, 7, 9, 10, 12, 13, 14, 15, 16, 17, 18, 19, 21, 23, 24, 25, 27, 28, 29]",211.9943184,10614,10453,6,42,8,1.0
basic,62,12,0,0,0,16,"[0, 22, 16]",3,12,"[2, 4, 5, 6, 7, 12, 14, 19, 23, 24, 25, 27]",190.9943184,13218,2604,6,24,8,1.2017164145167045
basic,62,12,0,0,0,4,"[0, 22, 16, 4]",4,9,"[2, 6, 7, 12, 14, 19, 24, 25, 27]",156.7890556,14782,1564,6,14,8,1.146531713305579
basic,62,12,0,0,0,12,"[0, 22, 16, 4, 12]",5,4,"[14, 19, 24, 27]",114.5990094,16944,2162,4,3,8,1.1221389456954312
basic,62,12,0,0,0,27,"[0, 22, 16, 4, 12, 27]",6,3,"[14, 19, 24]",90.24741807,18354,1410,2,1,8,1.2262878338287035
basic,62,12,0,0,0,14,"[0, 22, 16, 4, 12, 27, 14]",7,1,[24],61.59432051,19078,724,1,0,8,1.2804562106751427
basic,62,12,0,0,1,24,"[0, 22, 16, 4, 12, 27, 14, 24]",8,0,[],44.38966997,20354,1276,1,0,8,1.4322660007679802
basic,62,12,0,1,1,24,"[0, 22, 16, 4, 12, 27, 14, 24]",8,0,[],44.38966997,24091,3737,1,0,8,1.4322660007679802
basic,63,37,0,0,0,0,[0],1,29,"[1, 2, 3, 4, 5, 6, 7, 8, 9, 10, 11, 12, 13, 14, 15, 16, 17, 18, 19, 20, 21, 22, 23, 24, 25, 26, 27, 28, 29]",300,166,-1,6,168,10,0.0
basic,63,37,0,0,0,18,"[0, 18]",2,19,"[1, 2, 4, 6, 7, 9, 10, 12, 14, 15, 17, 19, 20, 21, 22, 23, 26, 28, 29]",202.4090168,11352,11186,6,89,10,1.0
basic,63,37,0,0,0,22,"[0, 18, 22]",3,9,"[1, 2, 4, 7, 15, 19, 20, 21, 26]",136.9720242,13780,2428,15,58,9,1.001057447339584
basic,63,37,0,0,0,4,"[0, 18, 22, 4]",4,8,"[1, 2, 7, 15, 19, 20, 21, 26]",111.9720242,15968,2188,8,28,9,1.1568597805027683
basic,63,37,0,0,0,2,"[0, 18, 22, 4, 2]",5,7,"[1, 7, 15, 19, 20, 21, 26]",100.57027,17017,1049,7,12,9,1.3192232340552885
basic,63,37,0,0,0,1,"[0, 18, 22, 4, 2, 1]",6,6,"[7, 15, 19, 20, 21, 26]",83.36561943,19471,2454,7,4,9,1.3683384389764814
basic,63,37,0,0,0,15,"[0, 18, 22, 4, 2, 1, 15]",7,3,"[20, 21, 26]",43.40313702,20901,1430,2,1,9,1.5420751881752959
basic,63,37,0,0,0,20,"[0, 18, 22, 4, 2, 1, 15, 20]",8,1,[21],26.40313702,22920,2019,1,0,9,1.8252369053550608
basic,63,37,0,0,1,21,"[0, 18, 22, 4, 2, 1, 15, 20, 21]",9,0,[],11.98093192,24528,1608,1,0,9,1.8558715556201628
basic,63,37,0,1,1,21,"[0, 18, 22, 4, 2, 1, 15, 20, 21]",9,0,[],11.98093192,27747,3219,1,0,9,1.8558715556201628
basic,64,15,0,0,0,0,[0],1,25,"[1, 2, 3, 4, 7, 8, 9, 10, 11, 12, 13, 14, 15, 16, 18, 20, 21, 22, 23, 24, 25, 26, 27, 28, 29]",300,203,-1,4,65,9,0.0
basic,64,15,0,0,0,7,"[0, 7]",2,23,"[1, 3, 4, 8, 9, 10, 11, 12, 13, 14, 15, 16, 18, 20, 21, 22, 23, 24, 25, 26, 27, 28, 29]",215.1884442,5957,5754,30,107,8,1.0
basic,64,15,0,0,0,16,"[0, 7, 16]",3,14,"[3, 4, 9, 10, 11, 12, 13, 14, 15, 18, 21, 22, 25, 27]",171.5306843,6913,956,11,27,8,1.1253230463291073
basic,64,15,0,0,0,3,"[0, 7, 16, 3]",4,12,"[4, 10, 11, 12, 13, 14, 15, 18, 21, 22, 25, 27]",146.4508119,7901,988,5,12,8,1.1599276527768434
basic,64,15,0,0,0,22,"[0, 7, 16, 3, 22]",5,6,"[4, 11, 13, 14, 15, 18]",96.72154483,16357,8456,4,4,7,1.1782526037582595
basic,64,15,0,0,0,13,"[0, 7, 16, 3, 22, 13]",6,2,"[15, 18]",68.56128915,18784,2427,2,0,7,1.1552313274707584
basic,64,15,0,0,1,15,"[0, 7, 16, 3, 22, 13, 15]",7,0,[],53.29695163,19689,905,1,0,7,1.256255129325223
basic,64,15,0,1,1,15,"[0, 7, 16, 3, 22, 13, 15]",7,0,[],53.29695163,25398,5709,1,0,7,1.256255129325223
basic,65,5,0,0,0,0,[0],1,29,"[1, 2, 3, 4, 5, 6, 7, 8, 9, 10, 11, 12, 13, 14, 15, 16, 17, 18, 19, 20, 21, 22, 23, 24, 25, 26, 27, 28, 29]",300,150,-1,5,139,9,0.0
basic,65,5,0,0,0,12,"[0, 12]",2,22,"[2, 4, 5, 6, 8, 9, 10, 13, 14, 15, 16, 17, 18, 19, 21, 22, 23, 24, 25, 26, 27, 28]",228.3062067,7402,7252,1,27,9,1.0
basic,65,5,0,0,0,25,"[0, 12, 25]",3,21,"[2, 4, 5, 6, 8, 9, 10, 13, 14, 15, 16, 17, 18, 19, 21, 22, 23, 24, 26, 27, 28]",200.5213187,8937,1535,1,20,9,1.584023303445617
basic,65,5,0,0,0,23,"[0, 12, 25, 23]",4,19,"[2, 4, 5, 6, 8, 9, 10, 13, 14, 15, 16, 17, 18, 19, 21, 22, 24, 26, 27]",182.0822298,11012,2075,1,14,9,2.3508446989254357
basic,65,5,0,0,0,24,"[0, 12, 25, 23, 24]",5,15,"[2, 4, 5, 6, 8, 9, 13, 14, 15, 17, 18, 19, 22, 26, 27]",158.995437,12021,1009,1,12,9,1.9469752046288753
basic,65,5,0,0,0,17,"[0, 12, 25, 23, 24, 17]",6,7,"[4, 5, 6, 8, 15, 18, 19]",124.0097257,13685,1664,1,8,9,1.6482276497563642
basic,65,5,0,0,0,6,"[0, 12, 25, 23, 24, 17, 6]",7,1,[4],45.11739397,26334,12649,1,0,8,1.5262431498802396
basic,65,5,0,0,1,4,"[0, 12, 25, 23, 24, 17, 6, 4]",8,0,[],33.07579939,27076,742,1,0,8,1.5232680323291379
basic,65,5,0,1,1,4,"[0, 12, 25, 23, 24, 17, 6, 4]",8,0,[],33.07579939,29648,2572,1,0,8,1.5232680323291379
basic,66,2,0,0,0,0,[0],1,23,"[1, 2, 4, 5, 6, 7, 8, 9, 12, 13, 15, 16, 17, 18, 19, 20, 22, 23, 25, 26, 27, 28, 29]",300,148,-1,70,620,10,0.0
basic,66,2,0,0,0,19,"[0, 19]",2,22,"[1, 2, 4, 5, 6, 7, 8, 9, 12, 13, 15, 16, 17, 18, 20, 22, 23, 25, 26, 27, 28, 29]",210.306076,8027,7879,67,431,10,1.0
basic,66,2,0,0,0,12,"[0, 19, 12]",3,17,"[1, 4, 5, 6, 7, 13, 15, 16, 17, 18, 20, 22, 25, 26, 27, 28, 29]",174.2921898,8957,930,66,298,10,1.1107635036313153
basic,66,2,0,0,0,5,"[0, 19, 12, 5]",4,11,"[1, 6, 7, 13, 15, 16, 18, 22, 25, 26, 29]",144.7625437,10209,1252,38,136,10,1.0968174771581647
basic,66,2,0,0,0,22,"[0, 19, 12, 5, 22]",5,8,"[1, 6, 7, 13, 15, 18, 26, 29]",131.9562952,11325,1116,20,63,10,1.0889910507461968
basic,66,2,0,0,0,13,"[0, 19, 12, 5, 22, 13]",6,7,"[1, 6, 7, 15, 18, 26, 29]",117.0902265,12126,801,19,20,10,1.236526217328057
basic,66,2,0,0,0,18,"[0, 19, 12, 5, 22, 13, 18]",7,4,"[7, 15, 26, 29]",81.91921567,13790,1664,10,3,10,1.2128708213409936
basic,66,2,0,0,0,7,"[0, 19, 12, 5, 22, 13, 18, 7]",8,3,"[15, 26, 29]",71.62358553,14867,1077,5,0,10,1.2019811287894737
basic,66,2,0,0,0,26,"[0, 19, 12, 5, 22, 13, 18, 7, 26]",9,2,"[15, 29]",48.82007703,20062,5195,2,0,10,1.1883593342191134
basic,66,2,0,0,1,15,"[0, 19, 12, 5, 22, 13, 18, 7, 26, 15]",10,0,[],24.61264015,21342,1280,1,0,10,1.4619750353663825
basic,66,2,0,1,1,15,"[0, 19, 12, 5, 22, 13, 18, 7, 26, 15]",10,0,[],24.61264015,25531,4189,1,0,10,1.4619750353663825
basic,67,11,0,0,0,0,[0],1,25,"[1, 2, 3, 4, 5, 6, 8, 9, 10, 11, 12, 13, 14, 15, 16, 17, 18, 19, 20, 22, 23, 25, 26, 27, 28]",300,170,-1,6,374,12,0.0
basic,67,11,0,0,0,1,"[0, 1]",2,24,"[2, 3, 4, 5, 6, 8, 9, 10, 11, 12, 13, 14, 15, 16, 17, 18, 19, 20, 22, 23, 25, 26, 27, 28]",264.6446609,15971,15801,6,217,12,1.0
basic,67,11,0,0,0,18,"[0, 1, 18]",3,19,"[2, 4, 5, 6, 8, 9, 11, 12, 14, 15, 16, 17, 19, 20, 22, 23, 25, 27, 28]",212.3187591,17343,1372,6,161,12,1.3884463804898786
basic,67,11,0,0,0,27,"[0, 1, 18, 27]",4,18,"[2, 4, 5, 6, 8, 9, 11, 12, 14, 15, 16, 17, 19, 20, 22, 23, 25, 28]",188.4650382,20316,2973,6,155,12,1.3600813284083875
basic,67,11,0,0,0,17,"[0, 1, 18, 27, 17]",5,11,"[2, 5, 6, 8, 11, 12, 15, 19, 22, 25, 28]",111.3871556,24032,3716,2,45,12,1.282398281674261
basic,67,11,0,0,0,8,"[0, 1, 18, 27, 17, 8]",6,7,"[2, 5, 11, 12, 15, 22, 28]",97.0693345,25375,1343,2,21,12,1.3975291553712
basic,67,11,0,0,0,15,"[0, 1, 18, 27, 17, 8, 15]",7,6,"[2, 5, 11, 12, 22, 28]",83.61571045,26503,1128,2,18,12,1.3793915678186077
basic,67,11,0,0,0,11,"[0, 1, 18, 27, 17, 8, 15, 11]",8,4,"[2, 5, 22, 28]",65.50494017,28379,1876,2,14,12,1.3525960247899067
basic,67,11,0,0,0,28,"[0, 1, 18, 27, 17, 8, 15, 11, 28]",9,3,"[2, 5, 22]",46.08845233,29871,1492,2,4,12,1.4693669896690256
basic,67,11,0,0,0,5,"[0, 1, 18, 27, 17, 8, 15, 11, 28, 5]",10,2,"[2, 22]",28.19990851,33343,3472,1,1,12,1.6706321377081579
basic,67,11,0,0,0,2,"[0, 1, 18, 27, 17, 8, 15, 11, 28, 5, 2]",11,1,[22],11.19990851,34711,1368,1,0,12,1.6180355992209499
basic,67,11,0,0,1,22,"[0, 1, 18, 27, 17, 8, 15, 11, 28, 5, 2, 22]",12,0,[],1.150032892,36035,1324,1,0,12,1.5851265969407473
basic,67,11,0,1,1,22,"[0, 1, 18, 27, 17, 8, 15, 11, 28, 5, 2, 22]",12,0,[],1.150032892,39930,3895,1,0,12,1.5851265969407473
basic,68,6,0,0,0,0,[0],1,29,"[1, 2, 3, 4, 5, 6, 7, 8, 9, 10, 11, 12, 13, 14, 15, 16, 17, 18, 19, 20, 21, 22, 23, 24, 25, 26, 27, 28, 29]",300,148,-1,180,4304,10,0.0
basic,68,6,0,0,0,3,"[0, 3]",2,28,"[1, 2, 4, 5, 6, 7, 8, 9, 10, 11, 12, 13, 14, 15, 16, 17, 18, 19, 20, 21, 22, 23, 24, 25, 26, 27, 28, 29]",266.4738908,18626,18478,90,1607,10,1.0
basic,68,6,0,0,0,7,"[0, 3, 7]",3,24,"[1, 2, 4, 5, 6, 8, 9, 10, 11, 12, 13, 14, 15, 16, 17, 18, 20, 21, 22, 23, 24, 26, 27, 29]",230.3352688,26830,8204,8,253,10,1.450719050884865
basic,68,6,0,0,0,24,"[0, 3, 7, 24]",4,19,"[1, 2, 4, 5, 6, 8, 10, 11, 13, 14, 16, 17, 18, 21, 22, 23, 26, 27, 29]",159.3986774,30467,3637,2,20,10,1.445127468150974
basic,68,6,0,0,0,10,"[0, 3, 7, 24, 10]",5,17,"[1, 2, 4, 5, 6, 8, 11, 13, 14, 16, 17, 18, 22, 23, 26, 27, 29]",145.9822695,31426,959,2,17,10,1.8260547269096816
basic,68,6,0,0,0,17,"[0, 3, 7, 24, 10, 17]",6,12,"[1, 2, 6, 13, 14, 16, 18, 22, 23, 26, 27, 29]",126.2591866,32254,828,2,13,10,2.4617479194447403
basic,68,6,0,0,0,18,"[0, 3, 7, 24, 10, 17, 18]",7,9,"[1, 2, 6, 13, 16, 22, 23, 26, 29]",112.3307983,34506,2252,2,9,10,3.0815171559474233
basic,68,6,0,0,0,16,"[0, 3, 7, 24, 10, 17, 18, 16]",8,4,"[13, 22, 23, 29]",88.98556324,35795,1289,2,3,10,2.9234340927499285
basic,68,6,0,0,0,29,"[0, 3, 7, 24, 10, 17, 18, 16, 29]",9,2,"[22, 23]",52.29769059,36868,1073,2,0,10,2.3256638739899693
basic,68,6,0,0,1,22,"[0, 3, 7, 24, 10, 17, 18, 16, 29, 22]",10,0,[],1.968772459,41394,4526,1,0,10,1.9140385361381935
basic,68,6,0,1,1,22,"[0, 3, 7, 24, 10, 17, 18, 16, 29, 22]",10,0,[],1.968772459,43813,2419,1,0,10,1.9140385361381935
undo,69,9,0,0,0,0,[0],1,27,"[1, 3, 4, 5, 6, 7, 8, 9, 10, 11, 13, 14, 15, 16, 17, 18, 19, 20, 21, 22, 23, 24, 25, 26, 27, 28, 29]",300,141,-1,2,182,10,0.0
undo,69,9,0,0,0,9,"[0, 9]",2,26,"[1, 3, 4, 5, 6, 7, 8, 10, 11, 13, 14, 15, 16, 17, 18, 19, 20, 21, 22, 23, 24, 25, 26, 27, 28, 29]",225.5352432,15878,15737,2,101,9,1.0
undo,69,9,0,0,0,23,"[0, 9, 23]",3,22,"[1, 3, 4, 5, 7, 8, 10, 11, 13, 15, 16, 17, 18, 19, 20, 21, 22, 24, 25, 26, 27, 28]",203.1745635,16812,934,2,70,9,1.6262276606762436
undo,69,9,0,0,0,8,"[0, 9, 23, 8]",4,18,"[3, 4, 5, 7, 10, 11, 15, 16, 17, 18, 19, 20, 21, 22, 25, 26, 27, 28]",181.7036529,17677,865,1,36,9,1.8547307061753238
undo,69,9,0,0,0,28,"[0, 9, 23, 8, 28]",5,17,"[3, 4, 5, 7, 10, 11, 15, 16, 17, 18, 19, 20, 21, 22, 25, 26, 27]",170.8869991,20516,2839,1,23,9,1.7382749966569708
undo,69,9,0,0,0,20,"[0, 9, 23, 8, 28, 20]",6,6,"[10, 16, 17, 21, 22, 26]",106.6919837,24196,3680,4,5,8,1.5263273354780416
undo,69,9,0,0,0,21,"[0, 9, 23, 8, 28, 20, 21]",7,4,"[10, 17, 22, 26]",94.60893772,25085,889,4,0,8,1.7327798098315659
undo,69,9,0,0,1,26,"[0, 9, 23, 8, 28, 20, 21, 26]",8,0,[],40.70160984,26612,1527,1,0,8,2.219551945698002
undo,69,9,0,1,1,26,"[0, 9, 23, 8, 28, 20, 21, 26]",8,0,[],40.70160984,34808,8196,1,0,8,2.219551945698002
undo,70,4,0,0,0,0,[0],1,26,"[3, 4, 5, 6, 7, 8, 10, 11, 12, 13, 14, 15, 16, 17, 18, 19, 20, 21, 22, 23, 24, 25, 26, 27, 28, 29]",300,147,-1,4,489,10,0.0
undo,70,4,0,0,0,28,"[0, 28]",2,21,"[3, 4, 5, 6, 10, 11, 12, 13, 14, 15, 16, 17, 19, 20, 21, 22, 23, 24, 25, 26, 27]",225.9392142,24350,24203,2,216,10,1.0
undo,70,4,0,0,0,14,"[0, 28, 14]",3,13,"[3, 4, 5, 6, 11, 13, 16, 17, 20, 21, 22, 24, 25]",159.6972335,28121,3771,1,26,10,1.0273973946789214
undo,70,4,0,0,0,25,"[0, 28, 14, 25]",4,12,"[3, 4, 5, 6, 11, 13, 16, 17, 20, 21, 22, 24]",143.572718,29045,924,1,25,10,1.233547772313525
undo,70,4,0,0,0,11,"[0, 28, 14, 25, 11]",5,10,"[3, 4, 5, 6, 13, 16, 17, 20, 21, 22]",124.7844238,37115,8070,1,15,10,1.425978575879479
undo,70,4,0,0,0,16,"[0, 28, 14, 25, 11, 16]",6,9,"[3, 4, 5, 6, 13, 17, 20, 21, 22]",109.7844238,44934,7819,1,12,10,1.3799325158051412
undo,70,4,0,0,0,21,"[0, 28, 14, 25, 11, 16, 21]",7,4,"[5, 17, 20, 22]",65.58035157,46573,1639,3,3,9,1.5860540591673642
undo,70,4,0,0,0,22,"[0, 28, 14, 25, 11, 16, 21, 22]",8,3,"[5, 17, 20]",54.53499056,49515,2942,3,0,9,1.5471132483772176
undo,70,4,0,0,1,17,"[0, 28, 14, 25, 11, 16, 21, 22, 17]",9,0,[],3.938547993,54205,4690,1,0,9,1.8061595555316958
undo,70,4,0,1,1,17,"[0, 28, 14, 25, 11, 16, 21, 22, 17]",9,0,[],3.938547993,57447,3242,1,0,9,1.8061595555316958
undo,71,17,0,0,0,0,[0],1,28,"[1, 2, 3, 4, 5, 6, 7, 8, 9, 10, 11, 12, 13, 14, 15, 16, 17, 18, 19, 20, 22, 23, 24, 25, 26, 27, 28, 29]",300,173,-1,2,73,8,0.0
undo,71,17,0,0,0,9,"[0, 9]",2,25,"[1, 2, 3, 5, 6, 7, 8, 10, 11, 12, 14, 15, 16, 17, 18, 19, 20, 22, 23, 24, 25, 26, 27, 28, 29]",210.5293344,9134,8961,1,34,8,1.0
undo,71,17,0,0,0,16,"[0, 9, 16]",3,21,"[1, 2, 3, 5, 7, 8, 10, 11, 12, 14, 17, 18, 19, 20, 22, 23, 25, 26, 27, 28, 29]",197.1876704,9884,750,1,26,8,1.173103464220352
undo,71,17,0,0,0,2,"[0, 9, 16, 2]",4,18,"[1, 3, 5, 7, 8, 10, 11, 12, 14, 17, 18, 19, 23, 25, 26, 27, 28, 29]",181.0631549,10947,1063,1,23,8,1.14825089247282
undo,71,17,0,0,0,17,"[0, 9, 16, 2, 17]",5,7,"[7, 8, 12, 14, 26, 27, 29]",142.7356191,12810,1863,4,5,7,1.4896040699768547
undo,71,17,0,0,0,8,"[0, 9, 16, 2, 17, 8]",6,3,"[7, 12, 27]",104.5256727,13967,1157,3,0,7,1.4604726966175894
undo,71,17,0,0,1,27,"[0, 9, 16, 2, 17, 8, 27]",7,0,[],21.88790895,24395,10428,1,0,7,1.2949460667276491
undo,71,17,0,1,1,27,"[0, 9, 16, 2, 17, 8, 27]",7,0,[],21.88790895,26497,2102,1,0,7,1.2949460667276491
undo,72,10,0,0,0,0,[0],1,29,"[1, 2, 3, 4, 5, 6, 7, 8, 9, 10, 11, 12, 13, 14, 15, 16, 17, 18, 19, 20, 21, 22, 23, 24, 25, 26, 27, 28, 29]",300,167,-1,1,100,9,0.0
undo,72,10,0,0,0,13,"[0, 13]",2,25,"[1, 2, 3, 4, 6, 7, 8, 9, 10, 11, 12, 14, 17, 18, 19, 20, 21, 22, 23, 24, 25, 26, 27, 28, 29]",249.4628849,5062,4895,1,79,9,1.0
undo,72,10,0,0,0,11,"[0, 13, 11]",3,20,"[1, 2, 3, 6, 7, 8, 9, 10, 12, 14, 18, 19, 20, 21, 22, 24, 26, 27, 28, 29]",206.4512586,5990,928,1,54,9,1.0313137484914219
undo,72,10,0,0,0,19,"[0, 13, 11, 19]",4,11,"[2, 6, 8, 9, 10, 14, 18, 20, 24, 26, 27]",170.0919407,7160,1170,1,22,9,1.0879446220132545
undo,72,10,0,0,0,2,"[0, 13, 11, 19, 2]",5,4,"[14, 20, 26, 27]",126.1829439,8619,1459,1,4,9,1.06474052351343
undo,72,10,0,0,0,14,"[0, 13, 11, 19, 2, 14]",6,3,"[20, 26, 27]",114.0174188,10086,1467,1,3,9,1.1628909195912238
undo,72,10,0,0,0,26,"[0, 13, 11, 19, 2, 14, 26]",7,2,"[20, 27]",79.34754716,10919,833,1,1,9,1.6660727647633602
undo,72,10,0,0,0,20,"[0, 13, 11, 19, 2, 14, 26, 20]",8,1,[27],47.56704999,12221,1302,1,0,9,2.085581809637999
undo,72,10,0,0,1,27,"[0, 13, 11, 19, 2, 14, 26, 20, 27]",9,0,[],2.312215998,13926,1705,1,0,9,1.9116357409137932
undo,72,10,0,1,1,27,"[0, 13, 11, 19, 2, 14, 26, 20, 27]",9,0,[],2.312215998,15948,2022,1,0,9,1.9116357409137932
undo,73,23,0,0,0,0,[0],1,28,"[1, 2, 3, 4, 5, 6, 7, 8, 9, 10, 11, 12, 13, 14, 15, 16, 17, 18, 19, 20, 21, 22, 23, 25, 26, 27, 28, 29]",300,163,-1,76,2626,10,0.0
undo,73,23,0,0,0,27,"[0, 27]",2,11,"[2, 6, 7, 9, 10, 12, 13, 14, 18, 22, 29]",156.8217894,4928,4765,6,455,9,1.0
undo,73,23,1,0,0,0,[0],1,28,"[1, 2, 3, 4, 5, 6, 7, 8, 9, 10, 11, 12, 13, 14, 15, 16, 17, 18, 19, 20, 21, 22, 23, 25, 26, 27, 28, 29]",300,14831,9903,76,2626,10,0.0
undo,73,23,0,0,0,13,"[0, 13]",2,19,"[1, 2, 3, 5, 6, 7, 8, 9, 10, 12, 14, 17, 18, 19, 21, 22, 23, 27, 29]",189.3202819,18468,3637,9,168,10,1.0
undo,73,23,0,0,0,12,"[0, 13, 12]",3,16,"[1, 2, 3, 6, 7, 8, 9, 10, 14, 17, 18, 21, 22, 23, 27, 29]",177.2372359,19292,824,9,96,10,1.0014195490503164
undo,73,23,0,0,0,6,"[0, 13, 12, 6]",4,9,"[2, 7, 9, 10, 14, 18, 22, 27, 29]",147.5555918,20185,893,2,17,10,1.0146513975411646
undo,73,23,0,0,0,2,"[0, 13, 12, 6, 2]",5,8,"[7, 9, 10, 14, 18, 22, 27, 29]",129.1165028,21239,1054,2,8,10,1.252271865214601
undo,73,23,0,0,0,9,"[0, 13, 12, 6, 2, 9]",6,7,"[7, 10, 14, 18, 22, 27, 29]",116.078098,25619,4380,1,4,10,1.4077625583396691
undo,73,23,0,0,0,14,"[0, 13, 12, 6, 2, 9, 14]",7,5,"[7, 10, 22, 27, 29]",105.6377915,26617,998,1,3,10,1.3795313352500915
undo,73,23,0,0,0,29,"[0, 13, 12, 6, 2, 9, 14, 29]",8,2,"[7, 10]",58.20362662,28195,1578,1,1,10,1.5679920543199335
undo,73,23,0,0,0,7,"[0, 13, 12, 6, 2, 9, 14, 29, 7]",9,1,[10],34.12043747,29672,1477,1,0,10,1.5808251397817217
undo,73,23,0,0,1,10,"[0, 13, 12, 6, 2, 9, 14, 29, 7, 10]",10,0,[],6.661377032,31055,1383,1,0,10,1.5347739273486019
undo,73,23,0,1,1,10,"[0, 13, 12, 6, 2, 9, 14, 29, 7, 10]",10,0,[],6.661377032,33497,2442,1,0,10,1.5347739273486019
