condition,trial_id,map_id,undoIndicator,submit,checkEnd,currentChoice,chosen_all,n_city_all,n_within_reach,cities_reach,currentBudget,time_all,rt_all,n_opt_paths_all,n_subopt_paths_all,mas_all,tortuosity_all
undo,0,21,0,0,0,0,[0],1,29,"[1, 2, 3, 4, 5, 6, 7, 8, 9, 10, 11, 12, 13, 14, 15, 16, 17, 18, 19, 20, 21, 22, 23, 24, 25, 26, 27, 28, 29]",300,152,-1,84,830,9,0.0
undo,0,21,0,0,0,25,"[0, 25]",2,26,"[1, 2, 3, 4, 5, 6, 7, 8, 9, 10, 11, 12, 13, 14, 15, 16, 17, 18, 20, 21, 22, 23, 24, 26, 27, 29]",240.1836143,7957,7805,30,238,9,1.0
undo,0,21,0,0,0,21,"[0, 25, 21]",3,18,"[1, 3, 4, 6, 8, 9, 11, 12, 14, 15, 16, 17, 18, 20, 22, 23, 24, 29]",190.8480288,11628,3671,15,84,9,1.2142997420204755
undo,0,21,0,0,0,14,"[0, 25, 21, 14]",4,14,"[1, 4, 6, 8, 9, 15, 16, 17, 18, 20, 22, 23, 24, 29]",165.2355318,12422,794,5,37,9,1.1765448423019491
undo,0,21,0,0,0,4,"[0, 25, 21, 14, 4]",5,10,"[8, 9, 15, 16, 17, 18, 22, 23, 24, 29]",151.0933962,13199,777,3,20,9,1.1641858298437302
undo,0,21,0,0,0,16,"[0, 25, 21, 14, 4, 16]",6,5,"[8, 15, 17, 23, 24]",106.4951899,16756,3557,1,5,9,1.1855407976594248
undo,0,21,0,0,0,8,"[0, 25, 21, 14, 4, 16, 8]",7,3,"[15, 23, 24]",87.8941147,17443,687,1,2,9,1.1707127593616282
undo,0,21,0,0,0,15,"[0, 25, 21, 14, 4, 16, 8, 15]",8,1,[24],62.8941147,18458,1015,1,0,9,1.4084531679038648
undo,0,21,0,0,1,24,"[0, 25, 21, 14, 4, 16, 8, 15, 24]",9,0,[],17.18853517,19627,1169,1,0,9,1.4220252128555146
undo,0,21,0,1,1,24,"[0, 25, 21, 14, 4, 16, 8, 15, 24]",9,0,[],17.18853517,20283,656,1,0,9,1.4220252128555146
undo,1,31,0,0,0,0,[0],1,27,"[1, 3, 4, 5, 6, 7, 8, 10, 11, 12, 13, 14, 15, 16, 17, 18, 19, 20, 21, 22, 23, 24, 25, 26, 27, 28, 29]",300,148,-1,2,87,10,0.0
undo,1,31,0,0,0,14,"[0, 14]",2,25,"[1, 3, 5, 6, 7, 8, 10, 11, 12, 13, 15, 16, 17, 18, 19, 20, 21, 22, 23, 24, 25, 26, 27, 28, 29]",263.861378,12967,12819,2,59,10,1.0
undo,1,31,0,0,0,27,"[0, 14, 27]",3,22,"[1, 3, 5, 6, 7, 8, 10, 11, 12, 13, 15, 16, 17, 18, 19, 20, 21, 22, 24, 25, 28, 29]",235.6833724,13891,924,1,39,10,1.5881859159302467
undo,1,31,0,0,0,8,"[0, 14, 27, 8]",4,20,"[1, 3, 5, 6, 7, 10, 11, 12, 13, 16, 17, 18, 19, 20, 21, 22, 24, 25, 28, 29]",224.6380114,14580,689,1,36,10,2.1665048452331277
undo,1,31,0,0,0,18,"[0, 14, 27, 8, 18]",5,15,"[1, 5, 6, 7, 11, 12, 13, 16, 17, 19, 20, 22, 25, 28, 29]",188.7911147,16372,1792,1,26,10,1.7273375741920205
undo,1,31,0,0,0,11,"[0, 14, 27, 8, 18, 11]",6,11,"[1, 5, 7, 12, 16, 17, 19, 20, 22, 25, 28]",153.9055876,17232,860,13,17,9,2.386348208737804
undo,1,31,0,0,0,5,"[0, 14, 27, 8, 18, 11, 5]",7,5,"[16, 17, 20, 25, 28]",110.2249283,18312,1080,3,3,9,2.163249612867222
undo,1,31,0,0,0,28,"[0, 14, 27, 8, 18, 11, 5, 28]",8,2,"[16, 17]",90.00117988,19188,876,2,0,9,1.9564635733184719
undo,1,31,0,0,1,17,"[0, 14, 27, 8, 18, 11, 5, 28, 17]",9,0,[],0.956247404,23935,4747,1,0,9,3.3035946495935673
undo,1,31,0,1,1,17,"[0, 14, 27, 8, 18, 11, 5, 28, 17]",9,0,[],0.956247404,24653,718,1,0,9,3.3035946495935673
undo,2,44,0,0,0,0,[0],1,29,"[1, 2, 3, 4, 5, 6, 7, 8, 9, 10, 11, 12, 13, 14, 15, 16, 17, 18, 19, 20, 21, 22, 23, 24, 25, 26, 27, 28, 29]",300,130,-1,13,126,7,0.0
undo,2,44,0,0,0,11,"[0, 11]",2,18,"[4, 5, 6, 7, 8, 9, 12, 14, 16, 17, 19, 20, 22, 23, 24, 25, 26, 28]",152.7790776,3357,3227,5,34,7,1.0
undo,2,44,0,0,0,24,"[0, 11, 24]",3,13,"[4, 5, 7, 8, 9, 12, 14, 17, 20, 22, 23, 25, 28]",125.8532535,4072,715,5,23,7,1.1588941745226709
undo,2,44,0,0,0,9,"[0, 11, 24, 9]",4,7,"[4, 7, 8, 12, 14, 20, 23]",93.09657483,4881,809,2,8,7,1.3039383713641313
undo,2,44,0,0,0,4,"[0, 11, 24, 9, 4]",5,5,"[7, 12, 14, 20, 23]",73.39885923,5602,721,2,3,7,1.2901330701441578
undo,2,44,0,0,0,7,"[0, 11, 24, 9, 4, 7]",6,1,[23],42.38273439,12300,6698,1,0,7,1.2468141312360979
undo,2,44,0,0,1,23,"[0, 11, 24, 9, 4, 7, 23]",7,0,[],23.27776121,15358,3058,1,0,7,1.2635191782769477
undo,2,44,0,1,1,23,"[0, 11, 24, 9, 4, 7, 23]",7,0,[],23.27776121,15970,612,1,0,7,1.2635191782769477
undo,3,5,0,0,0,0,[0],1,29,"[1, 2, 3, 4, 5, 6, 7, 8, 9, 10, 11, 12, 13, 14, 15, 16, 17, 18, 19, 20, 21, 22, 23, 24, 25, 26, 27, 28, 29]",300,144,-1,5,139,9,0.0
undo,3,5,0,0,0,12,"[0, 12]",2,22,"[2, 4, 5, 6, 8, 9, 10, 13, 14, 15, 16, 17, 18, 19, 21, 22, 23, 24, 25, 26, 27, 28]",228.3062067,5834,5690,1,27,9,1.0
undo,3,5,0,0,0,25,"[0, 12, 25]",3,21,"[2, 4, 5, 6, 8, 9, 10, 13, 14, 15, 16, 17, 18, 19, 21, 22, 23, 24, 26, 27, 28]",200.5213187,6592,758,1,20,9,1.584023303445617
undo,3,5,0,0,0,23,"[0, 12, 25, 23]",4,19,"[2, 4, 5, 6, 8, 9, 10, 13, 14, 15, 16, 17, 18, 19, 21, 22, 24, 26, 27]",182.0822298,7319,727,1,14,9,2.3508446989254357
undo,3,5,0,0,0,24,"[0, 12, 25, 23, 24]",5,15,"[2, 4, 5, 6, 8, 9, 13, 14, 15, 17, 18, 19, 22, 26, 27]",158.995437,8129,810,1,12,9,1.9469752046288753
undo,3,5,0,0,0,17,"[0, 12, 25, 23, 24, 17]",6,7,"[4, 5, 6, 8, 15, 18, 19]",124.0097257,9036,907,1,8,9,1.6482276497563642
undo,3,5,0,0,0,5,"[0, 12, 25, 23, 24, 17, 5]",7,4,"[4, 6, 15, 18]",80.96323916,14809,5773,1,3,9,1.4654649104389412
undo,3,5,0,0,0,4,"[0, 12, 25, 23, 24, 17, 5, 4]",8,1,[6],15.16050365,16005,1196,1,0,9,1.6255060355828674
undo,3,5,0,0,1,6,"[0, 12, 25, 23, 24, 17, 5, 4, 6]",9,0,[],3.118909076,17173,1168,1,0,9,1.7777310833772453
undo,3,5,0,1,1,6,"[0, 12, 25, 23, 24, 17, 5, 4, 6]",9,0,[],3.118909076,17746,573,1,0,9,1.7777310833772453
undo,4,41,0,0,0,0,[0],1,29,"[1, 2, 3, 4, 5, 6, 7, 8, 9, 10, 11, 12, 13, 14, 15, 16, 17, 18, 19, 20, 21, 22, 23, 24, 25, 26, 27, 28, 29]",300,147,-1,1,143,10,0.0
undo,4,41,0,0,0,28,"[0, 28]",2,27,"[1, 2, 3, 5, 6, 7, 8, 9, 10, 11, 12, 13, 14, 15, 16, 17, 18, 19, 20, 21, 22, 23, 24, 25, 26, 27, 29]",259.8004975,4510,4363,37,249,9,1.0
undo,4,41,0,0,0,5,"[0, 28, 5]",3,26,"[1, 2, 3, 6, 7, 8, 9, 10, 11, 12, 13, 14, 15, 16, 17, 18, 19, 20, 21, 22, 23, 24, 25, 26, 27, 29]",246.199027,5336,826,30,182,9,1.714241539747437
undo,4,41,0,0,0,3,"[0, 28, 5, 3]",4,25,"[1, 2, 6, 7, 8, 9, 10, 11, 12, 13, 14, 15, 16, 17, 18, 19, 20, 21, 22, 23, 24, 25, 26, 27, 29]",211.3708775,6253,917,20,93,9,2.2367972660995847
undo,4,41,0,0,0,21,"[0, 28, 5, 3, 21]",5,19,"[1, 2, 6, 9, 10, 11, 12, 13, 14, 15, 17, 18, 19, 20, 22, 24, 25, 26, 27]",179.2305601,7044,791,12,46,9,2.470864770481327
undo,4,41,0,0,0,9,"[0, 28, 5, 3, 21, 9]",6,13,"[1, 2, 10, 12, 13, 14, 15, 17, 19, 22, 24, 25, 26]",129.8645799,8036,992,3,17,9,2.0674559404382
undo,4,41,0,0,0,2,"[0, 28, 5, 3, 21, 9, 2]",7,9,"[1, 10, 12, 14, 15, 17, 19, 22, 24]",117.7815339,8853,817,2,7,9,2.0139863201149533
undo,4,41,0,0,0,14,"[0, 28, 5, 3, 21, 9, 2, 14]",8,1,[15],50.00248114,13737,4884,1,0,9,1.579859755323825
undo,4,41,0,0,1,15,"[0, 28, 5, 3, 21, 9, 2, 14, 15]",9,0,[],21.14074176,14511,774,1,0,9,1.5263756122583938
undo,4,41,0,1,1,15,"[0, 28, 5, 3, 21, 9, 2, 14, 15]",9,0,[],21.14074176,14931,420,1,0,9,1.5263756122583938
undo,5,33,0,0,0,0,[0],1,23,"[1, 2, 5, 7, 8, 11, 12, 13, 14, 15, 16, 17, 18, 19, 20, 21, 23, 24, 25, 26, 27, 28, 29]",300,146,-1,5,108,9,0.0
undo,5,33,0,0,0,21,"[0, 21]",2,17,"[2, 5, 7, 8, 11, 13, 14, 16, 17, 18, 19, 20, 24, 26, 27, 28, 29]",174.4611614,6831,6685,21,129,8,1.0
undo,5,33,0,0,0,13,"[0, 21, 13]",3,15,"[2, 5, 7, 8, 11, 14, 16, 17, 18, 19, 20, 24, 26, 28, 29]",148.0604038,8803,1972,17,72,8,1.0001005298764474
undo,5,33,0,0,0,17,"[0, 21, 13, 17]",4,10,"[2, 7, 11, 14, 16, 19, 20, 24, 26, 29]",125.2568953,9480,677,6,21,8,1.0965005103980894
undo,5,33,0,0,0,29,"[0, 21, 13, 17, 29]",5,7,"[7, 11, 14, 19, 20, 24, 26]",73.77874462,10300,820,5,3,8,1.075477449032161
undo,5,33,0,0,0,26,"[0, 21, 13, 17, 29, 26]",6,2,"[7, 14]",45.88609325,11090,790,2,0,8,1.1231999599010887
undo,5,33,0,0,0,14,"[0, 21, 13, 17, 29, 26, 14]",7,1,[7],33.23698261,11695,605,1,0,8,1.2296360569757379
undo,5,33,0,0,1,7,"[0, 21, 13, 17, 29, 26, 14, 7]",8,0,[],18.37091387,12480,785,1,0,8,1.3215761464415763
undo,5,33,0,1,1,7,"[0, 21, 13, 17, 29, 26, 14, 7]",8,0,[],18.37091387,13047,567,1,0,8,1.3215761464415763
undo,6,15,0,0,0,0,[0],1,25,"[1, 2, 3, 4, 7, 8, 9, 10, 11, 12, 13, 14, 15, 16, 18, 20, 21, 22, 23, 24, 25, 26, 27, 28, 29]",300,131,-1,4,65,9,0.0
undo,6,15,0,0,0,7,"[0, 7]",2,23,"[1, 3, 4, 8, 9, 10, 11, 12, 13, 14, 15, 16, 18, 20, 21, 22, 23, 24, 25, 26, 27, 28, 29]",215.1884442,10470,10339,30,107,8,1.0
undo,6,15,0,0,0,16,"[0, 7, 16]",3,14,"[3, 4, 9, 10, 11, 12, 13, 14, 15, 18, 21, 22, 25, 27]",171.5306843,11341,871,11,27,8,1.1253230463291073
undo,6,15,0,0,0,11,"[0, 7, 16, 11]",4,10,"[3, 4, 12, 13, 14, 15, 18, 21, 22, 27]",145.5114606,12462,1121,6,10,8,1.2441772230587118
undo,6,15,0,0,0,3,"[0, 7, 16, 11, 3]",5,8,"[4, 12, 13, 14, 15, 18, 21, 22]",134.1097064,13036,574,6,4,8,1.253153736954923
undo,6,15,0,0,0,22,"[0, 7, 16, 11, 3, 22]",6,5,"[4, 13, 14, 15, 18]",84.38043933,21989,8953,2,3,8,1.249784727890499
undo,6,15,0,0,0,15,"[0, 7, 16, 11, 3, 22, 15]",7,1,[13],58.76794238,23493,1504,1,0,8,1.2283958862490272
undo,6,15,0,0,1,13,"[0, 7, 16, 11, 3, 22, 15, 13]",8,0,[],43.50360486,24036,543,1,0,8,1.2803073001953094
undo,6,15,0,1,1,13,"[0, 7, 16, 11, 3, 22, 15, 13]",8,0,[],43.50360486,24616,580,1,0,8,1.2803073001953094
undo,7,25,0,0,0,0,[0],1,28,"[1, 2, 3, 4, 5, 7, 8, 9, 10, 11, 12, 13, 14, 15, 16, 17, 18, 19, 20, 21, 22, 23, 24, 25, 26, 27, 28, 29]",300,148,-1,5,94,10,0.0
undo,7,25,0,0,0,23,"[0, 23]",2,23,"[1, 2, 3, 5, 7, 8, 9, 11, 12, 13, 14, 16, 17, 19, 20, 21, 22, 24, 25, 26, 27, 28, 29]",259.7756293,1687,1539,3,33,10,1.0
undo,7,25,0,0,0,19,"[0, 23, 19]",3,21,"[1, 2, 3, 5, 7, 8, 9, 11, 12, 13, 14, 16, 17, 20, 21, 22, 24, 25, 27, 28, 29]",223.9287326,2384,697,3,24,10,1.583101227007039
undo,7,25,0,0,0,7,"[0, 23, 19, 7]",4,11,"[1, 3, 5, 8, 9, 11, 13, 22, 24, 28, 29]",139.7800547,4151,1767,2,13,9,1.3670564177338305
undo,7,25,0,0,0,24,"[0, 23, 19, 7, 24]",5,8,"[3, 8, 9, 11, 13, 22, 28, 29]",115.0212179,4970,819,2,9,9,1.3161499871212108
undo,7,25,0,0,0,9,"[0, 23, 19, 7, 24, 9]",6,4,"[3, 8, 13, 28]",96.99346149,5596,626,2,7,9,1.3004158717060423
undo,7,25,0,0,0,3,"[0, 23, 19, 7, 24, 9, 3]",7,3,"[8, 13, 28]",66.72796959,6454,858,2,1,9,1.259881196478442
undo,7,25,0,0,0,28,"[0, 23, 19, 7, 24, 9, 3, 28]",8,1,[13],35.4230179,7886,1432,1,0,9,1.2226679495679829
undo,7,25,0,0,1,13,"[0, 23, 19, 7, 24, 9, 3, 28, 13]",9,0,[],1.188532368,9341,1455,1,0,9,1.482501797134197
undo,7,25,0,1,1,13,"[0, 23, 19, 7, 24, 9, 3, 28, 13]",9,0,[],1.188532368,9764,423,1,0,9,1.482501797134197
undo,8,17,0,0,0,0,[0],1,28,"[1, 2, 3, 4, 5, 6, 7, 8, 9, 10, 11, 12, 13, 14, 15, 16, 17, 18, 19, 20, 22, 23, 24, 25, 26, 27, 28, 29]",300,150,-1,2,73,8,0.0
undo,8,17,0,0,0,16,"[0, 16]",2,23,"[1, 2, 3, 5, 7, 8, 9, 10, 11, 12, 14, 17, 18, 19, 20, 22, 23, 24, 25, 26, 27, 28, 29]",212.3586855,10927,10777,1,29,8,1.0
undo,8,17,0,0,0,2,"[0, 16, 2]",3,21,"[1, 3, 5, 7, 8, 9, 10, 11, 12, 14, 17, 18, 19, 20, 23, 24, 25, 26, 27, 28, 29]",196.23417,11687,760,13,69,7,1.0017855005780958
undo,8,17,0,0,0,7,"[0, 16, 2, 7]",4,11,"[3, 8, 9, 10, 11, 12, 17, 23, 25, 26, 27]",112.6339308,13028,1341,1,8,7,1.0188658027554265
undo,8,17,0,0,0,10,"[0, 16, 2, 7, 10]",5,2,"[3, 11]",38.60690872,15098,2070,2,0,6,1.4418519840204969
undo,8,17,0,0,1,3,"[0, 16, 2, 7, 10, 3]",6,0,[],11.97985481,16577,1479,1,0,6,1.520429858213987
undo,8,17,0,1,1,3,"[0, 16, 2, 7, 10, 3]",6,0,[],11.97985481,17282,705,1,0,6,1.520429858213987
undo,9,37,0,0,0,0,[0],1,29,"[1, 2, 3, 4, 5, 6, 7, 8, 9, 10, 11, 12, 13, 14, 15, 16, 17, 18, 19, 20, 21, 22, 23, 24, 25, 26, 27, 28, 29]",300,147,-1,6,168,10,0.0
undo,9,37,0,0,0,18,"[0, 18]",2,19,"[1, 2, 4, 6, 7, 9, 10, 12, 14, 15, 17, 19, 20, 21, 22, 23, 26, 28, 29]",202.4090168,2269,2122,6,89,10,1.0
undo,9,37,0,0,0,22,"[0, 18, 22]",3,9,"[1, 2, 4, 7, 15, 19, 20, 21, 26]",136.9720242,3006,737,15,58,9,1.001057447339584
undo,9,37,0,0,0,4,"[0, 18, 22, 4]",4,8,"[1, 2, 7, 15, 19, 20, 21, 26]",111.9720242,3905,899,8,28,9,1.1568597805027683
undo,9,37,0,0,0,2,"[0, 18, 22, 4, 2]",5,7,"[1, 7, 15, 19, 20, 21, 26]",100.57027,4585,680,7,12,9,1.3192232340552885
undo,9,37,0,0,0,1,"[0, 18, 22, 4, 2, 1]",6,6,"[7, 15, 19, 20, 21, 26]",83.36561943,5336,751,7,4,9,1.3683384389764814
undo,9,37,0,0,0,20,"[0, 18, 22, 4, 2, 1, 20]",7,4,"[15, 19, 21, 26]",49.13113389,6123,787,3,2,9,1.6736124378078914
undo,9,37,0,0,0,21,"[0, 18, 22, 4, 2, 1, 20, 21]",8,2,"[15, 26]",34.70892879,6824,701,2,0,9,1.7094220750755582
undo,9,37,0,0,1,26,"[0, 18, 22, 4, 2, 1, 20, 21, 26]",9,0,[],4.976791295,7830,1006,1,0,9,1.6848569144891061
undo,9,37,0,1,1,26,"[0, 18, 22, 4, 2, 1, 20, 21, 26]",9,0,[],4.976791295,8499,669,1,0,9,1.6848569144891061
undo,10,16,0,0,0,0,[0],1,29,"[1, 2, 3, 4, 5, 6, 7, 8, 9, 10, 11, 12, 13, 14, 15, 16, 17, 18, 19, 20, 21, 22, 23, 24, 25, 26, 27, 28, 29]",300,181,-1,13,161,9,0.0
undo,10,16,0,0,0,17,"[0, 17]",2,27,"[1, 2, 3, 4, 5, 7, 8, 9, 10, 11, 12, 13, 14, 15, 16, 18, 19, 20, 21, 22, 23, 24, 25, 26, 27, 28, 29]",241.3058776,5923,5742,2,58,9,1.0
undo,10,16,0,0,0,16,"[0, 17, 16]",3,26,"[1, 2, 3, 4, 5, 7, 8, 9, 10, 11, 12, 13, 14, 15, 18, 19, 20, 21, 22, 23, 24, 25, 26, 27, 28, 29]",212.9862731,6872,949,2,52,9,1.0529535521792848
undo,10,16,0,0,0,8,"[0, 17, 16, 8]",4,19,"[2, 3, 4, 5, 9, 12, 13, 14, 15, 19, 20, 21, 22, 23, 25, 26, 27, 28, 29]",164.6127266,7903,1031,2,38,9,1.0915134501573105
undo,10,16,0,0,0,20,"[0, 17, 16, 8, 20]",5,10,"[3, 4, 5, 9, 12, 13, 15, 19, 21, 25]",106.8372993,9014,1111,1,15,9,1.067523143001942
undo,10,16,0,0,0,25,"[0, 17, 16, 8, 20, 25]",6,7,"[3, 4, 5, 9, 12, 13, 15]",94.18818869,9661,647,1,9,9,1.1170093326933646
undo,10,16,0,0,0,9,"[0, 17, 16, 8, 20, 25, 9]",7,5,"[3, 4, 5, 13, 15]",81.38194021,10478,817,1,4,9,1.1095076562662525
undo,10,16,0,0,0,15,"[0, 17, 16, 8, 20, 25, 9, 15]",8,1,[5],42.48463953,11860,1382,1,0,9,1.213831159678775
undo,10,16,0,0,1,5,"[0, 17, 16, 8, 20, 25, 9, 15, 5]",9,0,[],13.0567616,12556,696,1,0,9,1.5171779607523481
undo,10,16,0,1,1,5,"[0, 17, 16, 8, 20, 25, 9, 15, 5]",9,0,[],13.0567616,13315,759,1,0,9,1.5171779607523481
undo,11,14,0,0,0,0,[0],1,29,"[1, 2, 3, 4, 5, 6, 7, 8, 9, 10, 11, 12, 13, 14, 15, 16, 17, 18, 19, 20, 21, 22, 23, 24, 25, 26, 27, 28, 29]",300,132,-1,8,157,10,0.0
undo,11,14,0,0,0,15,"[0, 15]",2,20,"[1, 2, 3, 4, 7, 8, 9, 13, 17, 18, 19, 20, 21, 22, 23, 25, 26, 27, 28, 29]",216.7053423,8195,8063,8,102,10,1.0
undo,11,14,0,0,0,18,"[0, 15, 18]",3,13,"[1, 2, 4, 7, 8, 13, 17, 19, 20, 23, 25, 26, 28]",153.6418822,9103,908,26,101,9,1.2185936334127205
undo,11,14,0,0,0,8,"[0, 15, 18, 8]",4,10,"[1, 2, 4, 7, 17, 19, 23, 25, 26, 28]",140.0404117,9610,507,26,60,9,1.2207454945880838
undo,11,14,0,0,0,19,"[0, 15, 18, 8, 19]",5,9,"[1, 2, 4, 7, 17, 23, 25, 26, 28]",119.4248836,10411,801,13,29,9,1.2211897843897934
undo,11,14,0,0,0,23,"[0, 15, 18, 8, 19, 23]",6,5,"[1, 4, 7, 25, 26]",75.15299633,16145,5734,1,7,9,1.1961808566274612
undo,11,14,0,0,0,26,"[0, 15, 18, 8, 19, 23, 26]",7,4,"[1, 4, 7, 25]",64.3363425,18329,2184,1,3,9,1.1878293038203818
undo,11,14,0,0,1,7,"[0, 15, 18, 8, 19, 23, 26, 7]",8,0,[],19.23645337,20331,2002,1,0,8,1.6076473913639207
undo,11,14,0,1,1,7,"[0, 15, 18, 8, 19, 23, 26, 7]",8,0,[],19.23645337,21132,801,1,0,8,1.6076473913639207
undo,12,3,0,0,0,0,[0],1,29,"[1, 2, 3, 4, 5, 6, 7, 8, 9, 10, 11, 12, 13, 14, 15, 16, 17, 18, 19, 20, 21, 22, 23, 24, 25, 26, 27, 28, 29]",300,146,-1,34,427,10,0.0
undo,12,3,0,0,0,17,"[0, 17]",2,16,"[3, 4, 7, 8, 10, 12, 14, 15, 16, 19, 20, 21, 22, 24, 26, 27]",197.6965299,6406,6260,2,27,9,1.0
undo,12,3,0,0,0,20,"[0, 17, 20]",3,13,"[3, 4, 7, 8, 10, 14, 15, 16, 19, 21, 22, 24, 27]",185.0474192,7119,713,2,24,9,1.0153332121237257
undo,12,3,0,0,0,3,"[0, 17, 20, 3]",4,10,"[4, 7, 8, 10, 14, 15, 16, 19, 21, 24]",164.6513412,7816,697,2,22,9,1.0819240770773468
undo,12,3,0,0,0,19,"[0, 17, 20, 3, 19]",5,6,"[4, 8, 10, 14, 21, 24]",127.3150318,8656,840,2,11,9,1.1701070532957258
undo,12,3,0,0,0,21,"[0, 17, 20, 3, 19, 21]",6,5,"[4, 8, 10, 14, 24]",115.1084762,9298,642,2,6,9,1.202395500952127
undo,12,3,0,0,0,14,"[0, 17, 20, 3, 19, 21, 14]",7,4,"[4, 8, 10, 24]",88.20122806,11367,2069,2,2,9,1.6456130302761207
undo,12,3,0,0,0,24,"[0, 17, 20, 3, 19, 21, 14, 24]",8,1,[8],17.08864127,12508,1141,1,0,9,4.806859660680286
undo,12,3,0,0,1,8,"[0, 17, 20, 3, 19, 21, 14, 24, 8]",9,0,[],4.923116212,13083,575,1,0,9,4.915218144486606
undo,12,3,0,1,1,8,"[0, 17, 20, 3, 19, 21, 14, 24, 8]",9,0,[],4.923116212,13694,611,1,0,9,4.915218144486606
undo,13,12,0,0,0,0,[0],1,29,"[1, 2, 3, 4, 5, 6, 7, 8, 9, 10, 11, 12, 13, 14, 15, 16, 17, 18, 19, 20, 21, 22, 23, 24, 25, 26, 27, 28, 29]",300,145,-1,2,32,9,0.0
undo,13,12,0,0,0,18,"[0, 18]",2,12,"[1, 2, 3, 5, 6, 7, 9, 11, 15, 17, 20, 21]",149.9166898,3240,3095,1,6,7,1.0
undo,13,12,0,0,0,21,"[0, 18, 21]",3,7,"[1, 3, 5, 9, 11, 15, 17]",133.6378692,3816,576,1,4,7,1.0169396745301669
undo,13,12,0,0,0,15,"[0, 18, 21, 15]",4,4,"[1, 5, 11, 17]",78.56518995,4754,938,1,3,7,1.1718752316940058
undo,13,12,0,0,0,17,"[0, 18, 21, 15, 17]",5,2,"[1, 11]",62.07276745,5358,604,1,1,7,1.219114137966991
undo,13,12,0,0,0,11,"[0, 18, 21, 15, 17, 11]",6,1,[1],18.65618076,6144,786,1,0,7,1.1797449530218118
undo,13,12,0,0,1,1,"[0, 18, 21, 15, 17, 11, 1]",7,0,[],2.103235402,8262,2118,1,0,7,1.2259852812575018
undo,13,12,0,1,1,1,"[0, 18, 21, 15, 17, 11, 1]",7,0,[],2.103235402,8695,433,1,0,7,1.2259852812575018
undo,14,29,0,0,0,0,[0],1,29,"[1, 2, 3, 4, 5, 6, 7, 8, 9, 10, 11, 12, 13, 14, 15, 16, 17, 18, 19, 20, 21, 22, 23, 24, 25, 26, 27, 28, 29]",300,132,-1,1,78,9,0.0
undo,14,29,0,0,0,6,"[0, 6]",2,28,"[1, 2, 3, 4, 5, 7, 8, 9, 10, 11, 12, 13, 14, 15, 16, 17, 18, 19, 20, 21, 22, 23, 24, 25, 26, 27, 28, 29]",228.4108947,5152,5020,1,25,9,1.0
undo,14,29,0,0,0,28,"[0, 6, 28]",3,24,"[1, 3, 4, 5, 7, 9, 10, 11, 12, 13, 14, 15, 16, 17, 18, 20, 21, 22, 23, 24, 25, 26, 27, 29]",187.1798384,5909,757,1,22,9,1.162106788166845
undo,14,29,0,0,0,27,"[0, 6, 28, 27]",4,19,"[1, 3, 4, 5, 7, 9, 10, 11, 12, 13, 14, 15, 16, 21, 22, 23, 25, 26, 29]",166.6615539,6474,565,1,21,9,1.2307173895439045
undo,14,29,0,0,0,22,"[0, 6, 28, 27, 22]",5,13,"[1, 3, 4, 5, 7, 9, 12, 13, 14, 15, 21, 26, 29]",133.4200136,7308,834,1,19,9,1.4241767805149903
undo,14,29,0,0,0,12,"[0, 6, 28, 27, 22, 12]",6,8,"[4, 5, 7, 9, 13, 14, 21, 26]",95.4726817,8185,877,1,6,9,1.3248355326460857
undo,14,29,0,0,0,7,"[0, 6, 28, 27, 22, 12, 7]",7,4,"[4, 5, 9, 21]",81.87121119,8903,718,1,3,9,1.3264091962339806
undo,14,29,0,0,0,9,"[0, 6, 28, 27, 22, 12, 7, 9]",8,1,[4],52.80232748,9589,686,1,0,9,1.309391257644539
undo,14,29,0,0,1,4,"[0, 6, 28, 27, 22, 12, 7, 9, 4]",9,0,[],11.76575843,10464,875,1,0,9,1.6396807789841599
undo,14,29,0,1,1,4,"[0, 6, 28, 27, 22, 12, 7, 9, 4]",9,0,[],11.76575843,11064,600,1,0,9,1.6396807789841599
undo,15,38,0,0,0,0,[0],1,29,"[1, 2, 3, 4, 5, 6, 7, 8, 9, 10, 11, 12, 13, 14, 15, 16, 17, 18, 19, 20, 21, 22, 23, 24, 25, 26, 27, 28, 29]",300,146,-1,33,506,9,0.0
undo,15,38,0,0,0,19,"[0, 19]",2,23,"[3, 4, 5, 6, 7, 8, 9, 11, 13, 14, 15, 16, 17, 18, 20, 22, 23, 24, 25, 26, 27, 28, 29]",219.5015528,9653,9507,6,61,9,1.0
undo,15,38,0,0,0,17,"[0, 19, 17]",3,21,"[3, 4, 5, 6, 7, 9, 11, 13, 14, 15, 16, 18, 20, 22, 23, 24, 25, 26, 27, 28, 29]",198.1239945,10404,751,6,53,9,1.571793785769489
undo,15,38,0,0,0,20,"[0, 19, 17, 20]",4,17,"[3, 4, 5, 6, 7, 11, 13, 14, 15, 16, 18, 22, 24, 25, 26, 27, 28]",174.3542658,11336,932,6,44,9,2.333182710277297
undo,15,38,0,0,0,4,"[0, 19, 17, 20, 4]",5,10,"[5, 11, 13, 14, 15, 16, 24, 26, 27, 28]",140.4131403,12096,760,5,22,9,2.276099229646013
undo,15,38,0,0,0,15,"[0, 19, 17, 20, 4, 15]",6,8,"[5, 11, 13, 14, 16, 24, 26, 28]",114.4131403,12751,655,5,6,9,2.5292671156176403
undo,15,38,0,0,0,11,"[0, 19, 17, 20, 4, 15, 11]",7,2,"[16, 28]",78.01259089,13626,875,2,0,9,2.778100109749787
undo,15,38,0,0,0,28,"[0, 19, 17, 20, 4, 15, 11, 28]",8,1,[16],50.99407872,14371,745,1,0,9,2.3316428595723258
undo,15,38,0,0,1,16,"[0, 19, 17, 20, 4, 15, 11, 28, 16]",9,0,[],21.99407872,15068,697,1,0,9,2.5408012360364265
undo,15,38,0,1,1,16,"[0, 19, 17, 20, 4, 15, 11, 28, 16]",9,0,[],21.99407872,15646,578,1,0,9,2.5408012360364265
undo,16,11,0,0,0,0,[0],1,25,"[1, 2, 3, 4, 5, 6, 8, 9, 10, 11, 12, 13, 14, 15, 16, 17, 18, 19, 20, 22, 23, 25, 26, 27, 28]",300,130,-1,6,374,12,0.0
undo,16,11,0,0,0,27,"[0, 27]",2,21,"[1, 2, 4, 5, 6, 8, 9, 11, 12, 13, 14, 15, 16, 17, 18, 19, 20, 22, 23, 25, 28]",217.9939027,2956,2826,276,2000,10,1.0
undo,16,11,0,0,0,5,"[0, 27, 5]",3,14,"[2, 6, 8, 11, 12, 14, 15, 16, 17, 18, 19, 22, 25, 28]",136.7781406,4528,1572,52,322,10,1.0032508907384046
undo,16,11,0,0,0,2,"[0, 27, 5, 2]",4,10,"[6, 8, 11, 12, 14, 15, 17, 19, 22, 28]",119.7781406,5230,702,17,98,10,1.0097136145716556
undo,16,11,0,0,0,22,"[0, 27, 5, 2, 22]",5,6,"[8, 11, 15, 17, 19, 28]",109.728265,5918,688,12,36,10,1.009218072577422
undo,16,11,0,0,0,28,"[0, 27, 5, 2, 22, 28]",6,5,"[8, 11, 15, 17, 19]",91.34348872,6809,891,12,10,10,1.2074795048423828
undo,16,11,0,0,0,11,"[0, 27, 5, 2, 22, 28, 11]",7,3,"[8, 15, 17]",71.92700088,7635,826,6,0,10,1.3155527975526133
undo,16,11,0,0,0,15,"[0, 27, 5, 2, 22, 28, 11, 15]",8,2,"[8, 17]",53.8162306,8494,859,2,0,10,1.569355226067338
undo,16,11,0,0,0,17,"[0, 27, 5, 2, 22, 28, 11, 15, 17]",9,1,[8],41.16711996,9184,690,1,0,10,1.7598315833685405
undo,16,11,0,0,1,8,"[0, 27, 5, 2, 22, 28, 11, 15, 17, 8]",10,0,[],26.8492989,9867,683,1,0,10,1.881115738012174
undo,16,11,0,1,1,8,"[0, 27, 5, 2, 22, 28, 11, 15, 17, 8]",10,0,[],26.8492989,10432,565,1,0,10,1.881115738012174
undo,17,35,0,0,0,0,[0],1,29,"[1, 2, 3, 4, 5, 6, 7, 8, 9, 10, 11, 12, 13, 14, 15, 16, 17, 18, 19, 20, 21, 22, 23, 24, 25, 26, 27, 28, 29]",300,148,-1,5,236,11,0.0
undo,17,35,0,0,0,27,"[0, 27]",2,27,"[1, 2, 4, 5, 6, 7, 8, 9, 10, 11, 12, 13, 14, 15, 16, 17, 18, 19, 20, 21, 22, 23, 24, 25, 26, 28, 29]",278.7867966,3752,3604,5,144,11,1.0
undo,17,35,0,0,0,17,"[0, 27, 17]",3,24,"[1, 2, 4, 5, 6, 7, 8, 9, 10, 11, 12, 13, 15, 16, 18, 19, 20, 21, 23, 24, 25, 26, 28, 29]",230.2790652,7024,3272,2,49,11,1.757918918843928
undo,17,35,0,0,0,9,"[0, 27, 17, 9]",4,11,"[1, 5, 6, 15, 18, 19, 23, 24, 25, 26, 28]",157.4779663,7963,939,1,23,9,1.2678270633368705
undo,17,35,0,0,0,18,"[0, 27, 17, 9, 18]",5,8,"[1, 5, 6, 15, 19, 23, 24, 25]",137.4529819,9451,1488,1,11,9,1.2636665710464263
undo,17,35,0,0,0,25,"[0, 27, 17, 9, 18, 25]",6,2,"[6, 23]",103.6151333,10133,682,1,1,8,1.2126913221637872
undo,17,35,0,0,0,6,"[0, 27, 17, 9, 18, 25, 6]",7,1,[23],79.594309,10678,545,1,0,8,1.457500499551033
undo,17,35,0,0,1,23,"[0, 27, 17, 9, 18, 25, 6, 23]",8,0,[],33.94346016,12420,1742,1,0,8,2.5024065273521408
undo,17,35,0,1,1,23,"[0, 27, 17, 9, 18, 25, 6, 23]",8,0,[],33.94346016,12948,528,1,0,8,2.5024065273521408
undo,18,42,0,0,0,0,[0],1,29,"[1, 2, 3, 4, 5, 6, 7, 8, 9, 10, 11, 12, 13, 14, 15, 16, 17, 18, 19, 20, 21, 22, 23, 24, 25, 26, 27, 28, 29]",300,132,-1,16,302,9,0.0
undo,18,42,0,0,0,4,"[0, 4]",2,28,"[1, 2, 3, 5, 6, 7, 8, 9, 10, 11, 12, 13, 14, 15, 16, 17, 18, 19, 20, 21, 22, 23, 24, 25, 26, 27, 28, 29]",209.5290102,3209,3077,4,80,9,1.0
undo,18,42,0,0,0,22,"[0, 4, 22]",3,24,"[1, 2, 3, 5, 6, 7, 8, 9, 10, 11, 13, 15, 17, 18, 19, 20, 21, 23, 24, 25, 26, 27, 28, 29]",198.3486703,3740,531,3,53,9,1.1473032812120834
undo,18,42,0,0,0,8,"[0, 4, 22, 8]",4,21,"[1, 2, 3, 5, 6, 7, 10, 11, 15, 17, 18, 19, 20, 21, 23, 24, 25, 26, 27, 28, 29]",176.2127267,4518,778,2,36,9,1.1513227322639639
undo,18,42,0,0,0,1,"[0, 4, 22, 8, 1]",5,12,"[2, 5, 6, 7, 10, 15, 18, 19, 24, 26, 27, 28]",127.1209758,5286,768,2,24,9,1.1101621876186907
undo,18,42,0,0,0,7,"[0, 4, 22, 8, 1, 7]",6,5,"[2, 19, 26, 27, 28]",97.12097583,6308,1022,2,10,9,1.1711274205343067
undo,18,42,0,0,0,19,"[0, 4, 22, 8, 1, 7, 19]",7,4,"[2, 26, 27, 28]",50.59141533,7421,1113,4,0,8,1.153421596096177
undo,18,42,0,0,1,26,"[0, 4, 22, 8, 1, 7, 19, 26]",8,0,[],15.70588825,8118,697,1,0,8,1.4358288472222223
undo,18,42,0,1,1,26,"[0, 4, 22, 8, 1, 7, 19, 26]",8,0,[],15.70588825,9383,1265,1,0,8,1.4358288472222223
undo,19,10,0,0,0,0,[0],1,29,"[1, 2, 3, 4, 5, 6, 7, 8, 9, 10, 11, 12, 13, 14, 15, 16, 17, 18, 19, 20, 21, 22, 23, 24, 25, 26, 27, 28, 29]",300,147,-1,1,100,9,0.0
undo,19,10,0,0,0,13,"[0, 13]",2,25,"[1, 2, 3, 4, 6, 7, 8, 9, 10, 11, 12, 14, 17, 18, 19, 20, 21, 22, 23, 24, 25, 26, 27, 28, 29]",249.4628849,2878,2731,1,79,9,1.0
undo,19,10,0,0,0,19,"[0, 13, 19]",3,12,"[2, 6, 8, 9, 10, 11, 14, 18, 20, 24, 26, 27]",180.5861835,3752,874,11,79,8,1.0000581961988606
undo,19,10,0,0,0,2,"[0, 13, 19, 2]",4,5,"[11, 14, 20, 26, 27]",136.6771867,4693,941,3,9,8,1.000456581399483
undo,19,10,0,0,0,14,"[0, 13, 19, 2, 14]",5,4,"[11, 20, 26, 27]",124.5116616,5317,624,3,6,8,1.0972737011325653
undo,19,10,0,0,0,26,"[0, 13, 19, 2, 14, 26]",6,3,"[11, 20, 27]",89.84178999,6076,759,3,1,8,1.5868342521575007
undo,19,10,0,0,0,20,"[0, 13, 19, 2, 14, 26, 20]",7,2,"[11, 27]",58.06129282,7923,1847,2,0,8,1.9988791745370547
undo,19,10,0,0,1,27,"[0, 13, 19, 2, 14, 26, 20, 27]",8,0,[],12.80645883,8831,908,1,0,8,1.8442457748164782
undo,19,10,0,1,1,27,"[0, 13, 19, 2, 14, 26, 20, 27]",8,0,[],12.80645883,9217,386,1,0,8,1.8442457748164782
undo,20,39,0,0,0,0,[0],1,28,"[1, 2, 3, 4, 5, 6, 7, 9, 10, 11, 12, 13, 14, 15, 16, 17, 18, 19, 20, 21, 22, 23, 24, 25, 26, 27, 28, 29]",300,129,-1,1,30,10,0.0
undo,20,39,0,0,0,29,"[0, 29]",2,26,"[1, 2, 3, 4, 5, 6, 7, 9, 10, 12, 13, 14, 15, 16, 17, 18, 19, 20, 21, 22, 23, 24, 25, 26, 27, 28]",243.0614366,2416,2287,8,104,9,1.0
undo,20,39,0,0,0,12,"[0, 29, 12]",3,18,"[1, 2, 4, 5, 7, 9, 10, 13, 14, 15, 16, 18, 19, 22, 23, 24, 26, 28]",182.5221931,3308,892,5,54,9,1.0026200331524904
undo,20,39,0,0,0,10,"[0, 29, 12, 10]",4,16,"[1, 2, 4, 5, 7, 9, 13, 14, 15, 16, 18, 19, 22, 23, 24, 26]",147.0116313,4772,1464,5,34,9,1.2874817019928908
undo,20,39,0,0,0,7,"[0, 29, 12, 10, 7]",5,10,"[1, 2, 5, 13, 16, 18, 19, 22, 24, 26]",113.5900814,5471,699,4,12,9,1.2250826263866774
undo,20,39,0,0,0,26,"[0, 29, 12, 10, 7, 26]",6,5,"[1, 16, 18, 19, 22]",94.90853971,6072,601,3,4,9,1.2697275353190085
undo,20,39,0,0,0,22,"[0, 29, 12, 10, 7, 26, 22]",7,2,"[16, 19]",77.18849457,8086,2014,2,0,9,1.438961743955176
undo,20,39,0,0,0,16,"[0, 29, 12, 10, 7, 26, 22, 16]",8,1,[19],42.18849457,9303,1217,1,0,9,1.3580882130477205
undo,20,39,0,0,1,19,"[0, 29, 12, 10, 7, 26, 22, 16, 19]",9,0,[],24.72424537,9918,615,1,0,9,1.3646589157842668
undo,20,39,0,1,1,19,"[0, 29, 12, 10, 7, 26, 22, 16, 19]",9,0,[],24.72424537,10379,461,1,0,9,1.3646589157842668
undo,21,19,0,0,0,0,[0],1,29,"[1, 2, 3, 4, 5, 6, 7, 8, 9, 10, 11, 12, 13, 14, 15, 16, 17, 18, 19, 20, 21, 22, 23, 24, 25, 26, 27, 28, 29]",300,132,-1,12,149,8,0.0
undo,21,19,0,0,0,28,"[0, 28]",2,10,"[4, 6, 9, 10, 11, 14, 20, 22, 24, 27]",136.1219966,7069,6937,2,14,7,1.0
undo,21,19,0,0,0,4,"[0, 28, 4]",3,9,"[6, 9, 10, 11, 14, 20, 22, 24, 27]",124.9416567,7870,801,2,10,7,1.0622089009735736
undo,21,19,0,0,0,11,"[0, 28, 4, 11]",4,4,"[14, 20, 22, 24]",66.80388929,9374,1504,4,1,6,1.0635812936430165
undo,21,19,0,0,0,20,"[0, 28, 4, 11, 20]",5,1,[22],19.00221568,12468,3094,1,0,6,1.2429150819497368
undo,21,19,0,0,1,22,"[0, 28, 4, 11, 20, 22]",6,0,[],5.849269244,13479,1011,1,0,6,1.3807458982465621
undo,21,19,0,1,1,22,"[0, 28, 4, 11, 20, 22]",6,0,[],5.849269244,14197,718,1,0,6,1.3807458982465621
undo,22,9,0,0,0,0,[0],1,27,"[1, 3, 4, 5, 6, 7, 8, 9, 10, 11, 13, 14, 15, 16, 17, 18, 19, 20, 21, 22, 23, 24, 25, 26, 27, 28, 29]",300,164,-1,2,182,10,0.0
undo,22,9,0,0,0,8,"[0, 8]",2,25,"[1, 3, 4, 5, 6, 7, 9, 10, 11, 13, 14, 15, 16, 17, 18, 19, 20, 21, 22, 23, 24, 25, 26, 27, 28]",236.2191251,3188,3024,2,102,9,1.0
undo,22,9,0,0,0,28,"[0, 8, 28]",3,23,"[1, 3, 4, 5, 6, 7, 9, 10, 11, 13, 15, 16, 17, 18, 19, 20, 21, 22, 23, 24, 25, 26, 27]",225.4024713,3901,713,2,52,9,1.0043219354187498
undo,22,9,0,0,0,26,"[0, 8, 28, 26]",4,22,"[1, 3, 4, 5, 6, 7, 9, 10, 11, 13, 15, 16, 17, 18, 19, 20, 21, 22, 23, 24, 25, 27]",180.6252449,4807,906,2,14,9,1.0218284416881065
undo,22,9,0,0,0,18,"[0, 8, 28, 26, 18]",5,13,"[1, 3, 5, 6, 9, 13, 15, 16, 19, 20, 21, 23, 24]",119.7483199,5636,829,2,6,9,1.0343247703783052
undo,22,9,0,0,0,5,"[0, 8, 28, 26, 18, 5]",6,3,"[1, 13, 24]",55.85778854,6754,1118,2,4,9,1.0965846847367935
undo,22,9,0,0,0,13,"[0, 8, 28, 26, 18, 5, 13]",7,2,"[1, 24]",40.59345102,7922,1168,2,0,9,1.1139896497149246
undo,22,9,0,0,0,24,"[0, 8, 28, 26, 18, 5, 13, 24]",8,1,[1],23.10059533,8707,785,1,0,9,1.1088313254366502
undo,22,9,0,0,1,1,"[0, 8, 28, 26, 18, 5, 13, 24, 1]",9,0,[],2.100595335,9337,630,1,0,9,1.2171433313097024
undo,22,9,0,1,1,1,"[0, 8, 28, 26, 18, 5, 13, 24, 1]",9,0,[],2.100595335,9783,446,1,0,9,1.2171433313097024
basic,23,1,0,0,0,0,[0],1,26,"[1, 2, 4, 5, 7, 8, 9, 10, 11, 12, 13, 14, 15, 16, 17, 18, 19, 20, 21, 22, 23, 24, 25, 26, 28, 29]",300,167,-1,6,74,7,0.0
basic,23,1,0,0,0,20,"[0, 20]",2,13,"[1, 4, 5, 8, 11, 13, 14, 15, 17, 18, 19, 28, 29]",129.961769,6743,6576,2,11,6,1.0
basic,23,1,0,0,0,18,"[0, 20, 18]",3,7,"[1, 4, 5, 11, 13, 17, 29]",98.3389924,7912,1169,4,4,5,1.0011597295821082
basic,23,1,0,0,0,4,"[0, 20, 18, 4]",4,2,"[13, 29]",59.39030821,10301,2389,2,0,5,1.0194959836807065
basic,23,1,0,0,1,13,"[0, 20, 18, 4, 13]",5,0,[],15.00562617,11240,939,1,0,5,1.0170978463621287
basic,23,1,0,1,1,13,"[0, 20, 18, 4, 13]",5,0,[],15.00562617,12168,928,1,0,5,1.0170978463621287
basic,24,10,0,0,0,0,[0],1,29,"[1, 2, 3, 4, 5, 6, 7, 8, 9, 10, 11, 12, 13, 14, 15, 16, 17, 18, 19, 20, 21, 22, 23, 24, 25, 26, 27, 28, 29]",300,163,-1,1,100,9,0.0
basic,24,10,0,0,0,13,"[0, 13]",2,25,"[1, 2, 3, 4, 6, 7, 8, 9, 10, 11, 12, 14, 17, 18, 19, 20, 21, 22, 23, 24, 25, 26, 27, 28, 29]",249.4628849,2882,2719,1,79,9,1.0
basic,24,10,0,0,0,19,"[0, 13, 19]",3,12,"[2, 6, 8, 9, 10, 11, 14, 18, 20, 24, 26, 27]",180.5861835,4272,1390,11,79,8,1.0000581961988606
basic,24,10,0,0,0,2,"[0, 13, 19, 2]",4,5,"[11, 14, 20, 26, 27]",136.6771867,5219,947,3,9,8,1.000456581399483
basic,24,10,0,0,0,14,"[0, 13, 19, 2, 14]",5,4,"[11, 20, 26, 27]",124.5116616,5918,699,3,6,8,1.0972737011325653
basic,24,10,0,0,0,26,"[0, 13, 19, 2, 14, 26]",6,3,"[11, 20, 27]",89.84178999,6784,866,3,1,8,1.5868342521575007
basic,24,10,0,0,0,20,"[0, 13, 19, 2, 14, 26, 20]",7,2,"[11, 27]",58.06129282,7519,735,2,0,8,1.9988791745370547
basic,24,10,0,0,1,27,"[0, 13, 19, 2, 14, 26, 20, 27]",8,0,[],12.80645883,8469,950,1,0,8,1.8442457748164782
basic,24,10,0,1,1,27,"[0, 13, 19, 2, 14, 26, 20, 27]",8,0,[],12.80645883,8848,379,1,0,8,1.8442457748164782
basic,25,30,0,0,0,0,[0],1,19,"[3, 4, 5, 7, 9, 11, 16, 17, 18, 19, 20, 21, 22, 24, 25, 26, 27, 28, 29]",300,164,-1,5,41,8,0.0
basic,25,30,0,0,0,27,"[0, 27]",2,10,"[3, 5, 7, 9, 18, 19, 20, 24, 25, 29]",90.59608409,3085,2921,7,22,6,1.0
basic,25,30,0,0,0,3,"[0, 27, 3]",3,8,"[5, 7, 18, 19, 20, 24, 25, 29]",71.49111091,4745,1660,5,9,6,1.0022223300201003
basic,25,30,0,0,0,5,"[0, 27, 3, 5]",4,4,"[7, 18, 24, 29]",46.65162621,6707,1962,1,3,6,1.047699458031665
basic,25,30,0,0,0,18,"[0, 27, 3, 5, 18]",5,1,[29],33.6132214,7346,639,1,0,6,1.0906504953306948
basic,25,30,0,0,1,29,"[0, 27, 3, 5, 18, 29]",6,0,[],14.30001349,8794,1448,1,0,6,1.1734964103241567
basic,25,30,0,1,1,29,"[0, 27, 3, 5, 18, 29]",6,0,[],14.30001349,9182,388,1,0,6,1.1734964103241567
basic,26,41,0,0,0,0,[0],1,29,"[1, 2, 3, 4, 5, 6, 7, 8, 9, 10, 11, 12, 13, 14, 15, 16, 17, 18, 19, 20, 21, 22, 23, 24, 25, 26, 27, 28, 29]",300,147,-1,1,143,10,0.0
basic,26,41,0,0,0,28,"[0, 28]",2,27,"[1, 2, 3, 5, 6, 7, 8, 9, 10, 11, 12, 13, 14, 15, 16, 17, 18, 19, 20, 21, 22, 23, 24, 25, 26, 27, 29]",259.8004975,5188,5041,37,249,9,1.0
basic,26,41,0,0,0,5,"[0, 28, 5]",3,26,"[1, 2, 3, 6, 7, 8, 9, 10, 11, 12, 13, 14, 15, 16, 17, 18, 19, 20, 21, 22, 23, 24, 25, 26, 27, 29]",246.199027,5808,620,30,182,9,1.714241539747437
basic,26,41,0,0,0,3,"[0, 28, 5, 3]",4,25,"[1, 2, 6, 7, 8, 9, 10, 11, 12, 13, 14, 15, 16, 17, 18, 19, 20, 21, 22, 23, 24, 25, 26, 27, 29]",211.3708775,6602,794,20,93,9,2.2367972660995847
basic,26,41,0,0,0,21,"[0, 28, 5, 3, 21]",5,19,"[1, 2, 6, 9, 10, 11, 12, 13, 14, 15, 17, 18, 19, 20, 22, 24, 25, 26, 27]",179.2305601,7280,678,12,46,9,2.470864770481327
basic,26,41,0,0,0,9,"[0, 28, 5, 3, 21, 9]",6,13,"[1, 2, 10, 12, 13, 14, 15, 17, 19, 22, 24, 25, 26]",129.8645799,8052,772,3,17,9,2.0674559404382
basic,26,41,0,0,0,2,"[0, 28, 5, 3, 21, 9, 2]",7,9,"[1, 10, 12, 14, 15, 17, 19, 22, 24]",117.7815339,8989,937,2,7,9,2.0139863201149533
basic,26,41,0,0,0,17,"[0, 28, 5, 3, 21, 9, 2, 17]",8,1,[10],85.22389276,10306,1317,1,0,9,3.388293326704014
basic,26,41,0,0,1,10,"[0, 28, 5, 3, 21, 9, 2, 17, 10]",9,0,[],35.97960375,13675,3369,1,0,9,3.1208433501016275
basic,26,41,0,1,1,10,"[0, 28, 5, 3, 21, 9, 2, 17, 10]",9,0,[],35.97960375,14049,374,1,0,9,3.1208433501016275
basic,27,43,0,0,0,0,[0],1,23,"[1, 2, 3, 4, 5, 6, 7, 9, 10, 11, 12, 14, 15, 16, 17, 19, 20, 21, 22, 23, 25, 27, 29]",300,145,-1,16,556,12,0.0
basic,27,43,0,0,0,25,"[0, 25]",2,19,"[1, 2, 3, 4, 5, 6, 7, 9, 11, 12, 14, 15, 16, 19, 20, 21, 22, 23, 29]",220.6904798,4090,3945,8,323,10,1.0
basic,27,43,0,0,0,15,"[0, 25, 15]",3,18,"[1, 2, 3, 4, 5, 6, 7, 9, 11, 12, 14, 16, 19, 20, 21, 22, 23, 29]",198.0189117,4802,712,8,141,10,1.233441666901354
basic,27,43,0,0,0,12,"[0, 25, 15, 12]",4,15,"[1, 2, 3, 4, 6, 7, 9, 11, 14, 16, 19, 20, 22, 23, 29]",178.7057038,6900,2098,8,95,10,1.226948769754925
basic,27,43,0,0,0,3,"[0, 25, 15, 12, 3]",5,14,"[1, 2, 4, 6, 7, 9, 11, 14, 16, 19, 20, 22, 23, 29]",165.7057038,7506,606,8,83,10,1.2055123857330492
basic,27,43,0,0,0,22,"[0, 25, 15, 12, 3, 22]",6,12,"[1, 4, 6, 7, 9, 11, 14, 16, 19, 20, 23, 29]",130.9925938,8225,719,5,39,10,1.417031808359187
basic,27,43,0,0,0,19,"[0, 25, 15, 12, 3, 22, 19]",7,8,"[1, 4, 6, 7, 11, 14, 16, 23]",110.3770657,9804,1579,3,10,10,1.3649357481232487
basic,27,43,0,0,0,1,"[0, 25, 15, 12, 3, 22, 19, 1]",8,5,"[4, 6, 7, 11, 14]",82.1990601,10452,648,3,3,10,1.513017373431623
basic,27,43,0,0,0,11,"[0, 25, 15, 12, 3, 22, 19, 1, 11]",9,1,[6],24.39767603,12806,2354,1,0,10,3.0285969667032964
basic,27,43,0,0,1,6,"[0, 25, 15, 12, 3, 22, 19, 1, 11, 6]",10,0,[],3.782147906,13679,873,1,0,10,2.685796000468286
basic,27,43,0,1,1,6,"[0, 25, 15, 12, 3, 22, 19, 1, 11, 6]",10,0,[],3.782147906,14479,800,1,0,10,2.685796000468286
basic,28,45,0,0,0,0,[0],1,24,"[1, 2, 3, 4, 5, 6, 7, 9, 10, 11, 12, 14, 15, 16, 17, 19, 20, 21, 22, 23, 24, 25, 27, 29]",300,149,-1,6,248,10,0.0
basic,28,45,0,0,0,17,"[0, 17]",2,22,"[1, 2, 3, 4, 5, 6, 7, 9, 10, 11, 12, 14, 15, 16, 19, 20, 21, 22, 23, 24, 25, 29]",235.867325,3296,3147,1,34,10,1.0
basic,28,45,0,0,0,24,"[0, 17, 24]",3,20,"[1, 2, 3, 4, 5, 6, 7, 9, 10, 11, 12, 14, 15, 16, 19, 20, 21, 22, 23, 29]",193.8078433,4072,776,1,33,10,1.0309432256229287
basic,28,45,0,0,0,7,"[0, 17, 24, 7]",4,18,"[1, 2, 3, 4, 5, 6, 9, 10, 12, 14, 15, 16, 19, 20, 21, 22, 23, 29]",159.3985423,5208,1136,1,32,10,1.059763151913087
basic,28,45,0,0,0,2,"[0, 17, 24, 7, 2]",5,12,"[3, 4, 6, 10, 12, 14, 16, 19, 20, 22, 23, 29]",121.3853866,5921,713,1,23,10,1.0656581932115423
basic,28,45,0,0,0,3,"[0, 17, 24, 7, 2, 3]",6,8,"[6, 10, 12, 14, 16, 20, 22, 29]",96.06740884,6591,670,1,13,10,1.1368250049574795
basic,28,45,0,0,0,29,"[0, 17, 24, 7, 2, 3, 29]",7,5,"[6, 10, 12, 20, 22]",76.06740884,7940,1349,1,5,10,1.390376182346372
basic,28,45,0,0,0,6,"[0, 17, 24, 7, 2, 3, 29, 6]",8,3,"[10, 12, 22]",47.90715316,8636,696,3,0,9,1.4636537385038035
basic,28,45,0,0,1,12,"[0, 17, 24, 7, 2, 3, 29, 6, 12]",9,0,[],27.78254136,9559,923,1,0,9,1.432723466526316
basic,28,45,0,1,1,12,"[0, 17, 24, 7, 2, 3, 29, 6, 12]",9,0,[],27.78254136,11482,1923,1,0,9,1.432723466526316
basic,29,40,0,0,0,0,[0],1,29,"[1, 2, 3, 4, 5, 6, 7, 8, 9, 10, 11, 12, 13, 14, 15, 16, 17, 18, 19, 20, 21, 22, 23, 24, 25, 26, 27, 28, 29]",300,163,-1,8,191,9,0.0
basic,29,40,0,0,0,1,"[0, 1]",2,18,"[2, 5, 6, 7, 8, 9, 10, 11, 13, 15, 17, 18, 19, 21, 22, 23, 27, 29]",247.8463808,3736,3573,4,80,9,1.0
basic,29,40,0,0,0,6,"[0, 1, 6]",3,17,"[2, 5, 7, 8, 9, 10, 11, 13, 15, 17, 18, 19, 21, 22, 23, 27, 29]",227.7466295,4339,603,4,74,9,1.0459427008232034
basic,29,40,0,0,0,9,"[0, 1, 6, 9]",4,10,"[2, 5, 8, 11, 18, 19, 21, 22, 23, 27]",159.146338,5370,1031,17,39,8,1.142098432552584
basic,29,40,0,0,0,18,"[0, 1, 6, 9, 18]",5,9,"[2, 5, 8, 11, 19, 21, 22, 23, 27]",142.5933926,5986,616,13,14,8,1.3288108654802917
basic,29,40,0,0,0,5,"[0, 1, 6, 9, 18, 5]",6,7,"[2, 8, 19, 21, 22, 23, 27]",111.0180858,7194,1208,5,5,8,1.5366414787972102
basic,29,40,0,0,0,23,"[0, 1, 6, 9, 18, 5, 23]",7,3,"[2, 19, 21]",82.71614241,7807,613,3,0,8,2.2908821040631264
basic,29,40,0,0,1,19,"[0, 1, 6, 9, 18, 5, 23, 19]",8,0,[],50.76305179,9762,1955,1,0,8,2.4294131203959415
basic,29,40,0,1,1,19,"[0, 1, 6, 9, 18, 5, 23, 19]",8,0,[],50.76305179,10247,485,1,0,8,2.4294131203959415
basic,30,21,0,0,0,0,[0],1,29,"[1, 2, 3, 4, 5, 6, 7, 8, 9, 10, 11, 12, 13, 14, 15, 16, 17, 18, 19, 20, 21, 22, 23, 24, 25, 26, 27, 28, 29]",300,163,-1,84,830,9,0.0
basic,30,21,0,0,0,21,"[0, 21]",2,22,"[1, 3, 4, 6, 8, 9, 10, 11, 12, 14, 15, 16, 17, 18, 20, 22, 23, 24, 25, 26, 27, 29]",210.1111798,6127,5964,1,69,9,1.0
basic,30,21,0,0,0,14,"[0, 21, 14]",3,15,"[1, 4, 6, 8, 9, 15, 16, 17, 18, 20, 22, 23, 24, 25, 29]",184.4986828,6901,774,35,96,8,1.0083702391721483
basic,30,21,0,0,0,23,"[0, 21, 14, 23]",4,13,"[4, 6, 8, 9, 15, 16, 17, 18, 20, 22, 24, 25, 29]",155.4297991,12057,5156,15,30,8,1.4600071597439013
basic,30,21,0,0,0,4,"[0, 21, 14, 23, 4]",5,8,"[8, 15, 16, 17, 18, 24, 25, 29]",119.3050154,12901,844,7,2,8,1.412714649497305
basic,30,21,0,0,0,16,"[0, 21, 14, 23, 4, 16]",6,3,"[8, 15, 24]",74.70680915,13669,768,3,1,8,1.380297828511427
basic,30,21,0,0,0,8,"[0, 21, 14, 23, 4, 16, 8]",7,1,[15],56.10573391,14286,617,1,0,8,1.3461678766850467
basic,30,21,0,0,1,15,"[0, 21, 14, 23, 4, 16, 8, 15]",8,0,[],31.10573391,14877,591,1,0,8,1.5972820768512792
basic,30,21,0,1,1,15,"[0, 21, 14, 23, 4, 16, 8, 15]",8,0,[],31.10573391,15347,470,1,0,8,1.5972820768512792
basic,31,15,0,0,0,0,[0],1,25,"[1, 2, 3, 4, 7, 8, 9, 10, 11, 12, 13, 14, 15, 16, 18, 20, 21, 22, 23, 24, 25, 26, 27, 28, 29]",300,149,-1,4,65,9,0.0
basic,31,15,0,0,0,7,"[0, 7]",2,23,"[1, 3, 4, 8, 9, 10, 11, 12, 13, 14, 15, 16, 18, 20, 21, 22, 23, 24, 25, 26, 27, 28, 29]",215.1884442,3470,3321,30,107,8,1.0
basic,31,15,0,0,0,11,"[0, 7, 11]",3,18,"[3, 4, 8, 9, 10, 12, 13, 14, 15, 16, 18, 20, 21, 22, 23, 25, 27, 29]",173.7035072,4460,990,12,34,8,1.0171318876095128
basic,31,15,0,0,0,3,"[0, 7, 11, 3]",4,13,"[4, 10, 12, 13, 14, 15, 16, 18, 20, 21, 22, 25, 27]",162.3017529,5138,678,7,21,8,1.0401878806820521
basic,31,15,0,0,0,16,"[0, 7, 11, 3, 16]",5,9,"[4, 10, 12, 13, 14, 15, 18, 21, 22]",137.2218805,8720,3582,5,6,8,1.4258499651326737
basic,31,15,0,0,0,22,"[0, 7, 11, 3, 16, 22]",6,4,"[4, 13, 14, 15]",78.36612462,9497,777,2,2,8,1.284645195326425
basic,31,15,0,0,0,13,"[0, 7, 11, 3, 16, 22, 13]",7,1,[15],50.20586894,10159,662,1,0,8,1.2468528041787974
basic,31,15,0,0,1,15,"[0, 7, 11, 3, 16, 22, 13, 15]",8,0,[],34.94153142,10887,728,1,0,8,1.349724143762162
basic,31,15,0,1,1,15,"[0, 7, 11, 3, 16, 22, 13, 15]",8,0,[],34.94153142,11531,644,1,0,8,1.349724143762162
basic,32,2,0,0,0,0,[0],1,23,"[1, 2, 4, 5, 6, 7, 8, 9, 12, 13, 15, 16, 17, 18, 19, 20, 22, 23, 25, 26, 27, 28, 29]",300,130,-1,70,620,10,0.0
basic,32,2,0,0,0,19,"[0, 19]",2,22,"[1, 2, 4, 5, 6, 7, 8, 9, 12, 13, 15, 16, 17, 18, 20, 22, 23, 25, 26, 27, 28, 29]",210.306076,2019,1889,67,431,10,1.0
basic,32,2,0,0,0,12,"[0, 19, 12]",3,17,"[1, 4, 5, 6, 7, 13, 15, 16, 17, 18, 20, 22, 25, 26, 27, 28, 29]",174.2921898,3441,1422,66,298,10,1.1107635036313153
basic,32,2,0,0,0,5,"[0, 19, 12, 5]",4,11,"[1, 6, 7, 13, 15, 16, 18, 22, 25, 26, 29]",144.7625437,4202,761,38,136,10,1.0968174771581647
basic,32,2,0,0,0,22,"[0, 19, 12, 5, 22]",5,8,"[1, 6, 7, 13, 15, 18, 26, 29]",131.9562952,5159,957,20,63,10,1.0889910507461968
basic,32,2,0,0,0,13,"[0, 19, 12, 5, 22, 13]",6,7,"[1, 6, 7, 15, 18, 26, 29]",117.0902265,5821,662,19,20,10,1.236526217328057
basic,32,2,0,0,0,18,"[0, 19, 12, 5, 22, 13, 18]",7,4,"[7, 15, 26, 29]",81.91921567,6606,785,10,3,10,1.2128708213409936
basic,32,2,0,0,0,7,"[0, 19, 12, 5, 22, 13, 18, 7]",8,3,"[15, 26, 29]",71.62358553,7343,737,5,0,10,1.2019811287894737
basic,32,2,0,0,0,26,"[0, 19, 12, 5, 22, 13, 18, 7, 26]",9,2,"[15, 29]",48.82007703,8046,703,2,0,10,1.1883593342191134
basic,32,2,0,0,1,15,"[0, 19, 12, 5, 22, 13, 18, 7, 26, 15]",10,0,[],24.61264015,9363,1317,1,0,10,1.4619750353663825
basic,32,2,0,1,1,15,"[0, 19, 12, 5, 22, 13, 18, 7, 26, 15]",10,0,[],24.61264015,9964,601,1,0,10,1.4619750353663825
basic,33,9,0,0,0,0,[0],1,27,"[1, 3, 4, 5, 6, 7, 8, 9, 10, 11, 13, 14, 15, 16, 17, 18, 19, 20, 21, 22, 23, 24, 25, 26, 27, 28, 29]",300,132,-1,2,182,10,0.0
basic,33,9,0,0,0,23,"[0, 23]",2,26,"[1, 3, 4, 5, 6, 7, 8, 9, 10, 11, 13, 14, 15, 16, 17, 18, 19, 20, 21, 22, 24, 25, 26, 27, 28, 29]",240.4600974,5817,5685,7,160,9,1.0
basic,33,9,0,0,0,8,"[0, 23, 8]",3,23,"[1, 3, 4, 5, 6, 7, 9, 10, 11, 13, 15, 16, 17, 18, 19, 20, 21, 22, 24, 25, 26, 27, 28]",218.9891869,6379,562,3,53,9,1.2701427074648883
basic,33,9,0,0,0,28,"[0, 23, 8, 28]",4,22,"[1, 3, 4, 5, 6, 7, 9, 10, 11, 13, 15, 16, 17, 18, 19, 20, 21, 22, 24, 25, 26, 27]",208.172533,7074,695,3,39,9,1.2362921532284137
basic,33,9,0,0,0,26,"[0, 23, 8, 28, 26]",5,19,"[1, 3, 5, 6, 7, 9, 10, 13, 15, 16, 17, 18, 19, 20, 21, 22, 24, 25, 27]",163.3953067,7877,803,2,15,9,1.169313903639755
basic,33,9,0,0,0,18,"[0, 23, 8, 28, 26, 18]",6,8,"[1, 5, 13, 15, 16, 19, 21, 24]",102.5183817,8668,791,2,5,9,1.1331940395161044
basic,33,9,0,0,0,5,"[0, 23, 8, 28, 26, 18, 5]",7,3,"[1, 13, 24]",38.62785028,9536,868,2,2,9,1.1739743598031722
basic,33,9,0,0,0,13,"[0, 23, 8, 28, 26, 18, 5, 13]",8,2,"[1, 24]",23.36351276,10329,793,2,0,9,1.187981509065966
basic,33,9,0,0,1,1,"[0, 23, 8, 28, 26, 18, 5, 13, 1]",9,0,[],4.154140044,10985,656,1,0,9,1.2087530552333994
basic,33,9,0,1,1,1,"[0, 23, 8, 28, 26, 18, 5, 13, 1]",9,0,[],4.154140044,11648,663,1,0,9,1.2087530552333994
basic,34,44,0,0,0,0,[0],1,29,"[1, 2, 3, 4, 5, 6, 7, 8, 9, 10, 11, 12, 13, 14, 15, 16, 17, 18, 19, 20, 21, 22, 23, 24, 25, 26, 27, 28, 29]",300,146,-1,13,126,7,0.0
basic,34,44,0,0,0,11,"[0, 11]",2,18,"[4, 5, 6, 7, 8, 9, 12, 14, 16, 17, 19, 20, 22, 23, 24, 25, 26, 28]",152.7790776,2693,2547,5,34,7,1.0
basic,34,44,0,0,0,24,"[0, 11, 24]",3,13,"[4, 5, 7, 8, 9, 12, 14, 17, 20, 22, 23, 25, 28]",125.8532535,3371,678,5,23,7,1.1588941745226709
basic,34,44,0,0,0,9,"[0, 11, 24, 9]",4,7,"[4, 7, 8, 12, 14, 20, 23]",93.09657483,4026,655,2,8,7,1.3039383713641313
basic,34,44,0,0,0,4,"[0, 11, 24, 9, 4]",5,5,"[7, 12, 14, 20, 23]",73.39885923,5402,1376,2,3,7,1.2901330701441578
basic,34,44,0,0,0,7,"[0, 11, 24, 9, 4, 7]",6,1,[23],42.38273439,6237,835,1,0,7,1.2468141312360979
basic,34,44,0,0,1,23,"[0, 11, 24, 9, 4, 7, 23]",7,0,[],23.27776121,7093,856,1,0,7,1.2635191782769477
basic,34,44,0,1,1,23,"[0, 11, 24, 9, 4, 7, 23]",7,0,[],23.27776121,7931,838,1,0,7,1.2635191782769477
basic,35,16,0,0,0,0,[0],1,29,"[1, 2, 3, 4, 5, 6, 7, 8, 9, 10, 11, 12, 13, 14, 15, 16, 17, 18, 19, 20, 21, 22, 23, 24, 25, 26, 27, 28, 29]",300,146,-1,13,161,9,0.0
basic,35,16,0,0,0,28,"[0, 28]",2,27,"[1, 2, 3, 4, 5, 7, 8, 9, 10, 11, 12, 13, 14, 15, 16, 17, 18, 19, 20, 21, 22, 23, 24, 25, 26, 27, 29]",284.3475242,5162,5016,11,92,9,1.0
basic,35,16,0,0,0,16,"[0, 28, 16]",3,26,"[1, 2, 3, 4, 5, 7, 8, 9, 10, 11, 12, 13, 14, 15, 17, 18, 19, 20, 21, 22, 23, 24, 25, 26, 27, 29]",198.8372909,6185,1023,20,64,8,1.2241704578099695
basic,35,16,0,0,0,8,"[0, 28, 16, 8]",4,15,"[2, 3, 4, 5, 9, 12, 13, 14, 15, 17, 19, 20, 21, 25, 29]",150.4637444,7092,907,10,28,8,1.205584765647267
basic,35,16,0,0,0,20,"[0, 28, 16, 8, 20]",5,6,"[4, 5, 9, 12, 15, 25]",92.68831706,8086,994,7,4,8,1.1457181875751794
basic,35,16,0,0,0,25,"[0, 28, 16, 8, 20, 25]",6,4,"[5, 9, 12, 15]",80.03920642,8705,619,4,1,8,1.1938005777784082
basic,35,16,0,0,0,9,"[0, 28, 16, 8, 20, 25, 9]",7,2,"[5, 15]",67.23295794,9341,636,2,0,8,1.1813151005918494
basic,35,16,0,0,1,15,"[0, 28, 16, 8, 20, 25, 9, 15]",8,0,[],28.33565727,11255,1914,1,0,8,1.2805241736938786
basic,35,16,0,1,1,15,"[0, 28, 16, 8, 20, 25, 9, 15]",8,0,[],28.33565727,11881,626,1,0,8,1.2805241736938786
basic,36,17,0,0,0,0,[0],1,28,"[1, 2, 3, 4, 5, 6, 7, 8, 9, 10, 11, 12, 13, 14, 15, 16, 17, 18, 19, 20, 22, 23, 24, 25, 26, 27, 28, 29]",300,131,-1,2,73,8,0.0
basic,36,17,0,0,0,16,"[0, 16]",2,23,"[1, 2, 3, 5, 7, 8, 9, 10, 11, 12, 14, 17, 18, 19, 20, 22, 23, 24, 25, 26, 27, 28, 29]",212.3586855,4886,4755,1,29,8,1.0
basic,36,17,0,0,0,9,"[0, 16, 9]",3,22,"[1, 2, 3, 5, 7, 8, 10, 11, 12, 14, 17, 18, 19, 20, 22, 23, 24, 25, 26, 27, 28, 29]",199.0170215,8388,3502,1,16,8,1.1286713677732607
basic,36,17,0,0,0,10,"[0, 16, 9, 10]",4,6,"[3, 5, 7, 11, 23, 28]",94.09323962,11762,3374,1,5,7,1.1357877498725297
basic,36,17,0,0,0,3,"[0, 16, 9, 10, 3]",5,3,"[5, 11, 28]",67.46618571,12310,548,3,0,6,1.2275230055789081
basic,36,17,0,0,1,28,"[0, 16, 9, 10, 3, 28]",6,0,[],33.46618571,14987,2677,1,0,6,1.284310166210558
basic,36,17,0,1,1,28,"[0, 16, 9, 10, 3, 28]",6,0,[],33.46618571,15631,644,1,0,6,1.284310166210558
basic,37,19,0,0,0,0,[0],1,29,"[1, 2, 3, 4, 5, 6, 7, 8, 9, 10, 11, 12, 13, 14, 15, 16, 17, 18, 19, 20, 21, 22, 23, 24, 25, 26, 27, 28, 29]",300,131,-1,12,149,8,0.0
basic,37,19,0,0,0,12,"[0, 12]",2,15,"[1, 2, 3, 5, 8, 9, 13, 16, 17, 18, 19, 21, 23, 25, 29]",180.3964883,8367,8236,9,58,7,1.0
basic,37,19,0,0,0,25,"[0, 12, 25]",3,11,"[1, 2, 3, 8, 13, 16, 17, 18, 19, 23, 29]",163.2792456,8976,609,3,32,7,1.002593021312995
basic,37,19,0,0,0,17,"[0, 12, 25, 17]",4,10,"[1, 2, 3, 8, 13, 16, 18, 19, 23, 29]",152.2338846,9590,614,3,14,7,1.0661324787663027
basic,37,19,0,0,0,2,"[0, 12, 25, 17, 2]",5,3,"[3, 8, 23]",84.20447915,10727,1137,3,0,6,1.0481687538232383
basic,37,19,0,0,1,8,"[0, 12, 25, 17, 2, 8]",6,0,[],18.71402183,11783,1056,1,0,6,1.2908324139249414
basic,37,19,0,1,1,8,"[0, 12, 25, 17, 2, 8]",6,0,[],18.71402183,12216,433,1,0,6,1.2908324139249414
basic,38,38,0,0,0,0,[0],1,29,"[1, 2, 3, 4, 5, 6, 7, 8, 9, 10, 11, 12, 13, 14, 15, 16, 17, 18, 19, 20, 21, 22, 23, 24, 25, 26, 27, 28, 29]",300,148,-1,33,506,9,0.0
basic,38,38,0,0,0,17,"[0, 17]",2,26,"[1, 3, 4, 5, 6, 7, 8, 9, 10, 11, 12, 13, 14, 15, 16, 18, 19, 20, 22, 23, 24, 25, 26, 27, 28, 29]",235.1848783,7498,7350,11,115,9,1.0
basic,38,38,0,0,0,20,"[0, 17, 20]",3,24,"[1, 3, 4, 5, 6, 7, 9, 10, 11, 12, 13, 14, 15, 16, 18, 19, 22, 23, 24, 25, 26, 27, 28, 29]",211.4151497,8093,595,7,70,9,1.6449793733822013
basic,38,38,0,0,0,4,"[0, 17, 20, 4]",4,17,"[3, 5, 7, 10, 11, 12, 13, 14, 15, 16, 18, 19, 22, 24, 26, 27, 28]",177.4740242,9411,1318,4,40,9,1.7475203137292266
basic,38,38,0,0,0,15,"[0, 17, 20, 4, 15]",5,12,"[5, 10, 11, 12, 13, 14, 16, 19, 24, 26, 27, 28]",151.4740242,10017,606,3,20,9,2.0241835387118274
basic,38,38,0,0,0,11,"[0, 17, 20, 4, 15, 11]",6,8,"[5, 10, 12, 13, 14, 16, 26, 28]",115.0734747,10842,825,2,7,9,2.3142952219285746
basic,38,38,0,0,0,28,"[0, 17, 20, 4, 15, 11, 28]",7,4,"[10, 12, 14, 16]",88.05496254,11521,679,2,2,9,1.9846119749887663
basic,38,38,0,0,0,14,"[0, 17, 20, 4, 15, 11, 28, 14]",8,1,[12],32.61129744,13214,1693,1,0,9,1.7265262770891336
basic,38,38,0,0,1,12,"[0, 17, 20, 4, 15, 11, 28, 14, 12]",9,0,[],17.84647438,13811,597,1,0,9,1.6635011222913068
basic,38,38,0,1,1,12,"[0, 17, 20, 4, 15, 11, 28, 14, 12]",9,0,[],17.84647438,14416,605,1,0,9,1.6635011222913068
basic,39,8,0,0,0,0,[0],1,29,"[1, 2, 3, 4, 5, 6, 7, 8, 9, 10, 11, 12, 13, 14, 15, 16, 17, 18, 19, 20, 21, 22, 23, 24, 25, 26, 27, 28, 29]",300,149,-1,10,149,9,0.0
basic,39,8,0,0,0,25,"[0, 25]",2,22,"[1, 2, 3, 4, 5, 6, 7, 11, 12, 14, 15, 16, 17, 18, 19, 20, 21, 22, 23, 24, 28, 29]",230.992754,6387,6238,26,209,8,1.0
basic,39,8,0,0,0,1,"[0, 25, 1]",3,18,"[3, 4, 5, 6, 11, 12, 14, 15, 16, 17, 18, 20, 21, 22, 23, 24, 28, 29]",205.992754,7034,647,14,91,8,1.008733440965848
basic,39,8,0,0,0,23,"[0, 25, 1, 23]",4,16,"[3, 4, 5, 6, 11, 14, 15, 16, 17, 18, 20, 21, 22, 24, 28, 29]",182.9710251,7686,652,9,47,8,1.0070385748869022
basic,39,8,0,0,0,18,"[0, 25, 1, 23, 18]",5,11,"[3, 4, 5, 11, 14, 15, 16, 17, 21, 24, 28]",141.2097991,8339,653,4,20,8,1.2012681423254592
basic,39,8,0,0,0,17,"[0, 25, 1, 23, 18, 17]",6,4,"[11, 14, 15, 24]",65.38763875,16739,8400,2,3,8,2.147982153177456
basic,39,8,0,0,0,11,"[0, 25, 1, 23, 18, 17, 11]",7,2,"[15, 24]",40.20828213,17435,696,2,0,8,1.9843573901096914
basic,39,8,0,0,1,15,"[0, 25, 1, 23, 18, 17, 11, 15]",8,0,[],2.4723576,18275,840,1,0,8,1.7643838267477747
basic,39,8,0,1,1,15,"[0, 25, 1, 23, 18, 17, 11, 15]",8,0,[],2.4723576,18781,506,1,0,8,1.7643838267477747
basic,40,24,0,0,0,0,[0],1,29,"[1, 2, 3, 4, 5, 6, 7, 8, 9, 10, 11, 12, 13, 14, 15, 16, 17, 18, 19, 20, 21, 22, 23, 24, 25, 26, 27, 28, 29]",300,147,-1,4,76,10,0.0
basic,40,24,0,0,0,16,"[0, 16]",2,28,"[1, 2, 3, 4, 5, 6, 7, 8, 9, 10, 11, 12, 13, 14, 15, 17, 18, 19, 20, 21, 22, 23, 24, 25, 26, 27, 28, 29]",210.3562607,3024,2877,13,110,9,1.0
basic,40,24,0,0,0,22,"[0, 16, 22]",3,27,"[1, 2, 3, 4, 5, 6, 7, 8, 9, 10, 11, 12, 13, 14, 15, 17, 18, 19, 20, 21, 23, 24, 25, 26, 27, 28, 29]",192.3285043,3776,752,7,54,9,1.0217425143037777
basic,40,24,0,0,0,15,"[0, 16, 22, 15]",4,24,"[2, 3, 4, 5, 6, 7, 8, 9, 10, 11, 12, 13, 14, 17, 18, 19, 21, 23, 24, 25, 26, 27, 28, 29]",171.1153009,4495,719,3,24,9,1.077448994301009
basic,40,24,0,0,0,28,"[0, 16, 22, 15, 28]",5,12,"[3, 4, 6, 8, 9, 11, 13, 21, 23, 25, 26, 27]",125.8383752,5331,836,2,10,9,1.0579370080485104
basic,40,24,0,0,0,23,"[0, 16, 22, 15, 28, 23]",6,7,"[3, 4, 8, 9, 11, 13, 27]",106.8120776,5954,623,2,4,9,1.0965087965469686
basic,40,24,0,0,0,11,"[0, 16, 22, 15, 28, 23, 11]",7,2,"[9, 27]",79.88625355,7080,1126,2,0,9,1.0958394317987046
basic,40,24,0,0,0,27,"[0, 16, 22, 15, 28, 23, 11, 27]",8,1,[9],52.083376,7791,711,1,0,9,1.085465547106356
basic,40,24,0,0,1,9,"[0, 16, 22, 15, 28, 23, 11, 27, 9]",9,0,[],12.52329511,8643,852,1,0,9,1.3543056893413161
basic,40,24,0,1,1,9,"[0, 16, 22, 15, 28, 23, 11, 27, 9]",9,0,[],12.52329511,9031,388,1,0,9,1.3543056893413161
basic,41,42,0,0,0,0,[0],1,29,"[1, 2, 3, 4, 5, 6, 7, 8, 9, 10, 11, 12, 13, 14, 15, 16, 17, 18, 19, 20, 21, 22, 23, 24, 25, 26, 27, 28, 29]",300,141,-1,16,302,9,0.0
basic,41,42,0,0,0,4,"[0, 4]",2,28,"[1, 2, 3, 5, 6, 7, 8, 9, 10, 11, 12, 13, 14, 15, 16, 17, 18, 19, 20, 21, 22, 23, 24, 25, 26, 27, 28, 29]",209.5290102,2236,2095,4,80,9,1.0
basic,41,42,0,0,0,22,"[0, 4, 22]",3,24,"[1, 2, 3, 5, 6, 7, 8, 9, 10, 11, 13, 15, 17, 18, 19, 20, 21, 23, 24, 25, 26, 27, 28, 29]",198.3486703,2768,532,3,53,9,1.1473032812120834
basic,41,42,0,0,0,8,"[0, 4, 22, 8]",4,21,"[1, 2, 3, 5, 6, 7, 10, 11, 15, 17, 18, 19, 20, 21, 23, 24, 25, 26, 27, 28, 29]",176.2127267,3453,685,2,36,9,1.1513227322639639
basic,41,42,0,0,0,1,"[0, 4, 22, 8, 1]",5,12,"[2, 5, 6, 7, 10, 15, 18, 19, 24, 26, 27, 28]",127.1209758,4204,751,2,24,9,1.1101621876186907
basic,41,42,0,0,0,7,"[0, 4, 22, 8, 1, 7]",6,5,"[2, 19, 26, 27, 28]",97.12097583,4820,616,2,10,9,1.1711274205343067
basic,41,42,0,0,0,26,"[0, 4, 22, 8, 1, 7, 26]",7,3,"[2, 19, 27]",70.55031532,5419,599,2,1,9,1.1588367913131314
basic,41,42,0,0,0,27,"[0, 4, 22, 8, 1, 7, 26, 27]",8,1,[19],52.52255894,7403,1984,1,0,9,1.160587570992885
basic,41,42,0,0,1,19,"[0, 4, 22, 8, 1, 7, 26, 27, 19]",9,0,[],11.51036563,8622,1219,1,0,9,1.3341568614108437
basic,41,42,0,1,1,19,"[0, 4, 22, 8, 1, 7, 26, 27, 19]",9,0,[],11.51036563,9081,459,1,0,9,1.3341568614108437
basic,42,12,0,0,0,0,[0],1,29,"[1, 2, 3, 4, 5, 6, 7, 8, 9, 10, 11, 12, 13, 14, 15, 16, 17, 18, 19, 20, 21, 22, 23, 24, 25, 26, 27, 28, 29]",300,180,-1,2,32,9,0.0
basic,42,12,0,0,0,18,"[0, 18]",2,12,"[1, 2, 3, 5, 6, 7, 9, 11, 15, 17, 20, 21]",149.9166898,4755,4575,1,6,7,1.0
basic,42,12,0,0,0,21,"[0, 18, 21]",3,7,"[1, 3, 5, 9, 11, 15, 17]",133.6378692,5387,632,1,4,7,1.0169396745301669
basic,42,12,0,0,0,15,"[0, 18, 21, 15]",4,4,"[1, 5, 11, 17]",78.56518995,6186,799,1,3,7,1.1718752316940058
basic,42,12,0,0,0,17,"[0, 18, 21, 15, 17]",5,2,"[1, 11]",62.07276745,6702,516,1,1,7,1.219114137966991
basic,42,12,0,0,0,11,"[0, 18, 21, 15, 17, 11]",6,1,[1],18.65618076,8200,1498,1,0,7,1.1797449530218118
basic,42,12,0,0,1,1,"[0, 18, 21, 15, 17, 11, 1]",7,0,[],2.103235402,8754,554,1,0,7,1.2259852812575018
basic,42,12,0,1,1,1,"[0, 18, 21, 15, 17, 11, 1]",7,0,[],2.103235402,9231,477,1,0,7,1.2259852812575018
basic,43,33,0,0,0,0,[0],1,23,"[1, 2, 5, 7, 8, 11, 12, 13, 14, 15, 16, 17, 18, 19, 20, 21, 23, 24, 25, 26, 27, 28, 29]",300,164,-1,5,108,9,0.0
basic,43,33,0,0,0,21,"[0, 21]",2,17,"[2, 5, 7, 8, 11, 13, 14, 16, 17, 18, 19, 20, 24, 26, 27, 28, 29]",174.4611614,1623,1459,21,129,8,1.0
basic,43,33,0,0,0,13,"[0, 21, 13]",3,15,"[2, 5, 7, 8, 11, 14, 16, 17, 18, 19, 20, 24, 26, 28, 29]",148.0604038,2459,836,17,72,8,1.0001005298764474
basic,43,33,0,0,0,19,"[0, 21, 13, 19]",4,11,"[7, 11, 14, 16, 17, 18, 20, 24, 26, 28, 29]",122.5653063,3834,1375,10,27,8,1.0588446738393702
basic,43,33,0,0,0,24,"[0, 21, 13, 19, 24]",5,7,"[7, 14, 16, 18, 26, 28, 29]",80.51771417,4519,685,3,5,8,1.078006777679028
basic,43,33,0,0,0,7,"[0, 21, 13, 19, 24, 7]",6,3,"[14, 26, 29]",51.31155044,5737,1218,3,1,8,1.1669985062633954
basic,43,33,0,0,0,14,"[0, 21, 13, 19, 24, 7, 14]",7,2,"[26, 29]",36.44548169,6236,499,2,0,8,1.2148465775488593
basic,43,33,0,0,1,26,"[0, 21, 13, 19, 24, 7, 14, 26]",8,0,[],23.79637105,6835,599,1,0,8,1.2208379656544521
basic,43,33,0,1,1,26,"[0, 21, 13, 19, 24, 7, 14, 26]",8,0,[],23.79637105,8031,1196,1,0,8,1.2208379656544521
basic,44,22,0,0,0,0,[0],1,29,"[1, 2, 3, 4, 5, 6, 7, 8, 9, 10, 11, 12, 13, 14, 15, 16, 17, 18, 19, 20, 21, 22, 23, 24, 25, 26, 27, 28, 29]",300,146,-1,31,704,9,0.0
basic,44,22,0,0,0,16,"[0, 16]",2,21,"[1, 3, 6, 7, 8, 9, 11, 13, 14, 15, 17, 18, 19, 20, 21, 22, 24, 25, 27, 28, 29]",218.605897,4792,4646,17,147,9,1.0
basic,44,22,0,0,0,6,"[0, 16, 6]",3,16,"[1, 3, 7, 9, 13, 14, 15, 17, 19, 20, 21, 22, 24, 25, 28, 29]",184.1675463,5423,631,5,77,9,1.3071109638102874
basic,44,22,0,0,0,9,"[0, 16, 6, 9]",4,15,"[1, 3, 7, 13, 14, 15, 17, 19, 20, 21, 22, 24, 25, 28, 29]",157.5404924,8327,2904,4,33,9,1.5907585082674378
basic,44,22,0,0,0,19,"[0, 16, 6, 9, 19]",5,12,"[3, 7, 13, 14, 15, 17, 20, 21, 24, 25, 28, 29]",137.1444143,8899,572,3,17,9,2.0453047636701496
basic,44,22,0,0,0,29,"[0, 16, 6, 9, 19, 29]",6,10,"[3, 7, 13, 14, 15, 17, 20, 21, 24, 28]",122.111118,9668,769,3,10,9,2.310050419546042
basic,44,22,0,0,0,7,"[0, 16, 6, 9, 19, 29, 7]",7,3,"[14, 17, 24]",71.0327468,10705,1037,1,2,9,1.8205864950786186
basic,44,22,0,0,0,14,"[0, 16, 6, 9, 19, 29, 7, 14]",8,1,[17],57.99434199,11319,614,1,0,9,1.868170892050648
basic,44,22,0,0,1,17,"[0, 16, 6, 9, 19, 29, 7, 14, 17]",9,0,[],8.416120968,12351,1032,1,0,9,1.8451350155307067
basic,44,22,0,1,1,17,"[0, 16, 6, 9, 19, 29, 7, 14, 17]",9,0,[],8.416120968,12913,562,1,0,9,1.8451350155307067
basic,45,36,0,0,0,0,[0],1,24,"[2, 4, 5, 6, 7, 8, 9, 10, 12, 13, 14, 15, 16, 17, 18, 19, 20, 22, 23, 25, 26, 27, 28, 29]",300,137,-1,2,200,10,0.0
basic,45,36,0,0,0,12,"[0, 12]",2,23,"[2, 4, 5, 6, 7, 8, 9, 10, 13, 14, 15, 16, 17, 18, 19, 20, 22, 23, 25, 26, 27, 28, 29]",277.7963967,2720,2583,90,804,9,1.0
basic,45,36,0,0,0,13,"[0, 12, 13]",3,18,"[2, 4, 7, 8, 9, 10, 16, 17, 18, 19, 20, 22, 23, 25, 26, 27, 28, 29]",198.6193798,3480,760,15,125,9,1.033635478646562
basic,45,36,0,0,0,25,"[0, 12, 13, 25]",4,12,"[2, 4, 8, 9, 10, 16, 17, 18, 19, 23, 27, 29]",178.0281195,4235,755,13,50,9,1.0653480204572918
basic,45,36,0,0,0,2,"[0, 12, 13, 25, 2]",5,9,"[4, 8, 9, 10, 16, 17, 18, 19, 27]",153.0281195,5779,1544,13,13,9,1.3014517483013393
basic,45,36,0,0,0,19,"[0, 12, 13, 25, 2, 19]",6,5,"[9, 10, 16, 17, 18]",115.9066972,6392,613,5,2,9,2.3884063284404666
basic,45,36,0,0,0,9,"[0, 12, 13, 25, 2, 19, 9]",7,3,"[16, 17, 18]",100.7739512,6919,527,2,1,9,2.8846088544693567
basic,45,36,0,0,0,17,"[0, 12, 13, 25, 2, 19, 9, 17]",8,1,[16],74.52514171,7570,651,1,0,9,2.3856100497832267
basic,45,36,0,0,1,16,"[0, 12, 13, 25, 2, 19, 9, 17, 16]",9,0,[],46.20553719,8175,605,1,0,9,2.3777330471152243
basic,45,36,0,1,1,16,"[0, 12, 13, 25, 2, 19, 9, 17, 16]",9,0,[],46.20553719,8616,441,1,0,9,2.3777330471152243
basic,46,14,0,0,0,0,[0],1,29,"[1, 2, 3, 4, 5, 6, 7, 8, 9, 10, 11, 12, 13, 14, 15, 16, 17, 18, 19, 20, 21, 22, 23, 24, 25, 26, 27, 28, 29]",300,150,-1,8,157,10,0.0
basic,46,14,0,0,0,18,"[0, 18]",2,17,"[1, 2, 3, 4, 7, 8, 9, 13, 15, 17, 19, 20, 22, 23, 25, 26, 28]",179.8958785,3261,3111,18,136,9,1.0
basic,46,14,0,0,0,8,"[0, 18, 8]",3,13,"[1, 2, 4, 7, 13, 15, 17, 19, 20, 23, 25, 26, 28]",166.294408,3853,592,18,99,9,1.0203858410107731
basic,46,14,0,0,0,1,"[0, 18, 8, 1]",4,10,"[2, 4, 7, 15, 17, 19, 23, 25, 26, 28]",142.6935606,5045,1192,11,42,9,1.0173392374431458
basic,46,14,0,0,0,19,"[0, 18, 8, 1, 19]",5,9,"[2, 4, 7, 15, 17, 23, 25, 26, 28]",127.4620143,5654,609,11,22,9,1.1668364376922102
basic,46,14,0,0,0,25,"[0, 18, 8, 1, 19, 25]",6,5,"[2, 4, 7, 23, 26]",91.61511768,6394,740,5,7,9,1.273103293863789
basic,46,14,0,0,0,7,"[0, 18, 8, 1, 19, 25, 7]",7,4,"[2, 4, 23, 26]",71.91740208,7016,622,2,2,9,1.3059971565497175
basic,46,14,0,0,0,23,"[0, 18, 8, 1, 19, 25, 7, 23]",8,1,[26],34.80945145,7704,688,1,0,9,1.4108075818506876
basic,46,14,0,0,1,26,"[0, 18, 8, 1, 19, 25, 7, 23, 26]",9,0,[],23.99279762,8291,587,1,0,9,1.3911752305399343
basic,46,14,0,1,1,26,"[0, 18, 8, 1, 19, 25, 7, 23, 26]",9,0,[],23.99279762,9483,1192,1,0,9,1.3911752305399343
basic,47,23,0,0,0,0,[0],1,28,"[1, 2, 3, 4, 5, 6, 7, 8, 9, 10, 11, 12, 13, 14, 15, 16, 17, 18, 19, 20, 21, 22, 23, 25, 26, 27, 28, 29]",300,130,-1,76,2626,10,0.0
basic,47,23,0,0,0,13,"[0, 13]",2,19,"[1, 2, 3, 5, 6, 7, 8, 9, 10, 12, 14, 17, 18, 19, 21, 22, 23, 27, 29]",189.3202819,5923,5793,9,168,10,1.0
basic,47,23,0,0,0,12,"[0, 13, 12]",3,16,"[1, 2, 3, 6, 7, 8, 9, 10, 14, 17, 18, 21, 22, 23, 27, 29]",177.2372359,6471,548,9,96,10,1.0014195490503164
basic,47,23,0,0,0,2,"[0, 13, 12, 2]",4,12,"[1, 3, 6, 7, 9, 10, 14, 18, 21, 22, 27, 29]",163.3447919,7028,557,4,30,10,1.0014394317924602
basic,47,23,0,0,0,9,"[0, 13, 12, 2, 9]",5,10,"[1, 6, 7, 10, 14, 18, 21, 22, 27, 29]",150.3063871,7652,624,1,8,10,1.1457747074799831
basic,47,23,0,0,0,14,"[0, 13, 12, 2, 9, 14]",6,8,"[1, 6, 7, 10, 18, 22, 27, 29]",139.8660806,8213,561,1,6,10,1.1365880299138118
basic,47,23,0,0,0,29,"[0, 13, 12, 2, 9, 14, 29]",7,5,"[1, 6, 7, 10, 22]",92.43191571,10767,2554,1,3,10,1.3460297288480787
basic,47,23,0,0,0,7,"[0, 13, 12, 2, 9, 14, 29, 7]",8,2,"[1, 10]",68.34872655,11436,669,1,1,10,1.3773159292410473
basic,47,23,0,0,0,10,"[0, 13, 12, 2, 9, 14, 29, 7, 10]",9,1,[1],40.88966612,12122,686,1,0,10,1.3556884556214648
basic,47,23,0,0,1,1,"[0, 13, 12, 2, 9, 14, 29, 7, 10, 1]",10,0,[],12.23656855,12822,700,1,0,10,1.3259861306330887
basic,47,23,0,1,1,1,"[0, 13, 12, 2, 9, 14, 29, 7, 10, 1]",10,0,[],12.23656855,13533,711,1,0,10,1.3259861306330887
basic,48,25,0,0,0,0,[0],1,28,"[1, 2, 3, 4, 5, 7, 8, 9, 10, 11, 12, 13, 14, 15, 16, 17, 18, 19, 20, 21, 22, 23, 24, 25, 26, 27, 28, 29]",300,136,-1,5,94,10,0.0
basic,48,25,0,0,0,23,"[0, 23]",2,23,"[1, 2, 3, 5, 7, 8, 9, 11, 12, 13, 14, 16, 17, 19, 20, 21, 22, 24, 25, 26, 27, 28, 29]",259.7756293,7769,7633,3,33,10,1.0
basic,48,25,0,0,0,7,"[0, 23, 7]",3,16,"[1, 3, 5, 8, 9, 11, 13, 17, 19, 21, 22, 24, 26, 27, 28, 29]",181.9424744,8769,1000,1,21,9,1.0073109045884563
basic,48,25,0,0,0,24,"[0, 23, 7, 24]",4,10,"[3, 5, 8, 9, 11, 13, 19, 22, 28, 29]",157.1836376,9403,634,1,17,9,1.0161584555781231
basic,48,25,0,0,0,9,"[0, 23, 7, 24, 9]",5,8,"[3, 8, 11, 13, 19, 22, 28, 29]",139.1558812,9976,573,1,16,9,1.0303325523073676
basic,48,25,0,0,0,3,"[0, 23, 7, 24, 9, 3]",6,4,"[8, 11, 13, 28]",108.8903893,11253,1277,1,5,9,1.0321657704271587
basic,48,25,0,0,0,8,"[0, 23, 7, 24, 9, 3, 8]",7,2,"[13, 28]",69.68579774,13202,1949,2,0,8,1.1517293849793737
basic,48,25,0,0,1,28,"[0, 23, 7, 24, 9, 3, 8, 28]",8,0,[],29.07791673,14041,839,1,0,8,1.251990046205978
basic,48,25,0,1,1,28,"[0, 23, 7, 24, 9, 3, 8, 28]",8,0,[],29.07791673,15065,1024,1,0,8,1.251990046205978
basic,49,35,0,0,0,0,[0],1,29,"[1, 2, 3, 4, 5, 6, 7, 8, 9, 10, 11, 12, 13, 14, 15, 16, 17, 18, 19, 20, 21, 22, 23, 24, 25, 26, 27, 28, 29]",300,146,-1,5,236,11,0.0
basic,49,35,0,0,0,24,"[0, 24]",2,27,"[1, 2, 4, 5, 6, 7, 8, 9, 10, 11, 12, 13, 14, 15, 16, 17, 18, 19, 20, 21, 22, 23, 25, 26, 27, 28, 29]",268.9838752,4283,4137,49,512,10,1.0
basic,49,35,0,0,0,17,"[0, 24, 17]",3,26,"[1, 2, 4, 5, 6, 7, 8, 9, 10, 11, 12, 13, 14, 15, 16, 18, 19, 20, 21, 22, 23, 25, 26, 27, 28, 29]",257.2791753,4820,537,33,238,10,1.0771477201815276
basic,49,35,0,0,0,1,"[0, 24, 17, 1]",4,25,"[2, 4, 5, 6, 7, 8, 9, 10, 11, 12, 13, 14, 15, 16, 18, 19, 20, 21, 22, 23, 25, 26, 27, 28, 29]",241.4677869,6407,1587,26,151,10,1.2244804141479215
basic,49,35,0,0,0,15,"[0, 24, 17, 1, 15]",5,23,"[2, 4, 5, 6, 7, 8, 9, 10, 11, 12, 14, 16, 18, 19, 20, 21, 22, 23, 25, 26, 27, 28, 29]",218.6204676,7020,613,26,78,10,1.4642196672428094
basic,49,35,0,0,0,23,"[0, 24, 17, 1, 15, 23]",6,11,"[4, 5, 6, 9, 18, 19, 25, 26, 27, 28, 29]",158.1804147,8427,1407,15,12,10,1.3338903684702363
basic,49,35,0,0,0,6,"[0, 24, 17, 1, 15, 23, 6]",7,4,"[5, 9, 18, 25]",112.5295658,9123,696,4,2,10,1.2397059724630664
basic,49,35,0,0,0,25,"[0, 24, 17, 1, 15, 23, 6, 25]",8,2,"[9, 18]",88.50874155,9835,712,2,0,10,1.305974427386027
basic,49,35,0,0,0,18,"[0, 24, 17, 1, 15, 23, 6, 25, 18]",9,1,[9],54.67089291,11135,1300,1,0,10,1.9072277988119046
basic,49,35,0,0,1,9,"[0, 24, 17, 1, 15, 23, 6, 25, 18, 9]",10,0,[],34.64590852,11675,540,1,0,10,2.3604988633102257
basic,49,35,0,1,1,9,"[0, 24, 17, 1, 15, 23, 6, 25, 18, 9]",10,0,[],34.64590852,12081,406,1,0,10,2.3604988633102257
basic,50,6,0,0,0,0,[0],1,29,"[1, 2, 3, 4, 5, 6, 7, 8, 9, 10, 11, 12, 13, 14, 15, 16, 17, 18, 19, 20, 21, 22, 23, 24, 25, 26, 27, 28, 29]",300,132,-1,180,4304,10,0.0
basic,50,6,0,0,0,26,"[0, 26]",2,25,"[1, 2, 3, 4, 5, 6, 7, 8, 9, 10, 11, 12, 13, 14, 15, 16, 17, 18, 20, 21, 22, 23, 24, 27, 29]",250.2606795,3789,3657,45,776,10,1.0
basic,50,6,0,0,0,7,"[0, 26, 7]",3,24,"[1, 2, 3, 4, 5, 6, 8, 9, 10, 11, 12, 13, 14, 15, 16, 17, 18, 20, 21, 22, 23, 24, 27, 29]",226.1774904,4859,1070,25,520,10,1.5373018630243536
basic,50,6,0,0,0,3,"[0, 26, 7, 3]",4,22,"[1, 2, 4, 6, 8, 9, 10, 11, 12, 13, 14, 15, 16, 17, 18, 20, 21, 22, 23, 24, 27, 29]",190.0388684,5424,565,20,235,10,3.2798655773210936
basic,50,6,0,0,0,18,"[0, 26, 7, 3, 18]",5,17,"[1, 2, 6, 8, 10, 11, 13, 14, 16, 17, 20, 21, 22, 23, 24, 27, 29]",161.0388684,6259,835,12,95,10,2.2817335351582497
basic,50,6,0,0,0,17,"[0, 26, 7, 3, 18, 17]",6,14,"[1, 2, 6, 8, 10, 13, 14, 16, 21, 22, 23, 24, 27, 29]",147.1104801,10430,4171,7,40,10,2.166304221519952
basic,50,6,0,0,0,10,"[0, 26, 7, 3, 18, 17, 10]",7,10,"[2, 6, 8, 13, 16, 22, 23, 24, 27, 29]",127.3873972,11247,817,6,14,10,2.0465180096074933
basic,50,6,0,0,0,24,"[0, 26, 7, 3, 18, 17, 10, 24]",8,7,"[2, 6, 16, 22, 23, 27, 29]",113.9709893,11877,630,6,3,10,1.9120419940880518
basic,50,6,0,0,0,16,"[0, 26, 7, 3, 18, 17, 10, 24, 16]",9,1,[29],57.93528641,13039,1162,1,0,10,3.3536105264950167
basic,50,6,0,1,0,16,"[0, 26, 7, 3, 18, 17, 10, 24, 16]",9,1,[29],57.93528641,13482,443,1,0,10,3.3536105264950167
basic,51,39,0,0,0,0,[0],1,28,"[1, 2, 3, 4, 5, 6, 7, 9, 10, 11, 12, 13, 14, 15, 16, 17, 18, 19, 20, 21, 22, 23, 24, 25, 26, 27, 28, 29]",300,131,-1,1,30,10,0.0
basic,51,39,0,0,0,29,"[0, 29]",2,26,"[1, 2, 3, 4, 5, 6, 7, 9, 10, 12, 13, 14, 15, 16, 17, 18, 19, 20, 21, 22, 23, 24, 25, 26, 27, 28]",243.0614366,3228,3097,8,104,9,1.0
basic,51,39,0,0,0,10,"[0, 29, 10]",3,19,"[1, 2, 4, 5, 7, 9, 12, 13, 14, 15, 16, 17, 18, 19, 22, 23, 24, 26, 28]",178.4239862,4576,1348,3,48,9,1.0231293692376968
basic,51,39,0,0,0,7,"[0, 29, 10, 7]",4,14,"[1, 2, 4, 5, 9, 12, 13, 15, 16, 18, 19, 22, 24, 26]",145.0024362,5919,1343,2,20,9,1.0186411966151707
basic,51,39,0,0,0,26,"[0, 29, 10, 7, 26]",5,9,"[1, 2, 5, 12, 13, 16, 18, 19, 22]",126.3208945,6613,694,1,9,9,1.0752526811750318
basic,51,39,0,0,0,22,"[0, 29, 10, 7, 26, 22]",6,6,"[1, 5, 12, 16, 18, 19]",108.6008494,7193,580,1,3,9,1.2360944063790367
basic,51,39,0,0,0,16,"[0, 29, 10, 7, 26, 22, 16]",7,2,"[18, 19]",73.6008494,7931,738,1,1,9,1.1926155792040818
basic,51,39,0,0,0,19,"[0, 29, 10, 7, 26, 22, 16, 19]",8,1,[18],56.1366002,8512,581,1,0,9,1.2089345217410772
basic,51,39,0,0,1,18,"[0, 29, 10, 7, 26, 22, 16, 19, 18]",9,0,[],12.96253391,9185,673,1,0,9,1.2243548998729528
basic,51,39,0,1,1,18,"[0, 29, 10, 7, 26, 22, 16, 19, 18]",9,0,[],12.96253391,9683,498,1,0,9,1.2243548998729528
basic,52,18,0,0,0,0,[0],1,28,"[1, 2, 3, 4, 5, 6, 7, 8, 9, 10, 11, 12, 13, 14, 16, 17, 18, 19, 20, 21, 22, 23, 24, 25, 26, 27, 28, 29]",300,138,-1,3,136,10,0.0
basic,52,18,0,0,0,7,"[0, 7]",2,20,"[1, 3, 4, 5, 8, 9, 12, 13, 14, 16, 18, 19, 20, 21, 23, 24, 25, 26, 27, 28]",240.3342644,6053,5915,24,182,9,1.0
basic,52,18,0,0,0,25,"[0, 7, 25]",3,17,"[1, 3, 5, 8, 9, 12, 13, 14, 16, 18, 19, 20, 23, 24, 26, 27, 28]",212.5313869,6837,784,18,95,9,1.4576077868641448
basic,52,18,0,0,0,8,"[0, 7, 25, 8]",4,12,"[1, 3, 5, 9, 12, 13, 14, 16, 23, 26, 27, 28]",175.4773723,8447,1610,10,47,9,1.316392165590884
basic,52,18,0,0,0,13,"[0, 7, 25, 8, 13]",5,10,"[3, 5, 9, 12, 14, 16, 23, 26, 27, 28]",154.3823492,9019,572,5,17,9,1.5490362923230319
basic,52,18,0,0,0,14,"[0, 7, 25, 8, 13, 14]",6,9,"[3, 5, 9, 12, 16, 23, 26, 27, 28]",135.4086832,9526,507,4,8,9,1.4681031032500589
basic,52,18,0,0,0,3,"[0, 7, 25, 8, 13, 14, 3]",7,3,"[5, 12, 27]",105.3254653,10188,662,3,1,9,1.5907840564661788
basic,52,18,0,0,0,5,"[0, 7, 25, 8, 13, 14, 3, 5]",8,1,[12],47.14471245,11203,1015,1,0,9,1.4147203267137747
basic,52,18,0,0,1,12,"[0, 7, 25, 8, 13, 14, 3, 5, 12]",9,0,[],35.7429582,11835,632,1,0,9,1.4242610400714528
basic,52,18,0,1,1,12,"[0, 7, 25, 8, 13, 14, 3, 5, 12]",9,0,[],35.7429582,12532,697,1,0,9,1.4242610400714528
basic,53,34,0,0,0,0,[0],1,25,"[1, 3, 4, 5, 6, 7, 8, 9, 10, 11, 12, 13, 15, 18, 19, 20, 21, 22, 23, 24, 25, 26, 27, 28, 29]",300,151,-1,12,367,10,0.0
basic,53,34,0,0,0,13,"[0, 13]",2,24,"[1, 3, 4, 5, 6, 7, 8, 9, 10, 11, 12, 15, 18, 19, 20, 21, 22, 23, 24, 25, 26, 27, 28, 29]",279.9750156,2513,2362,12,331,10,1.0
basic,53,34,0,0,0,1,"[0, 13, 1]",3,16,"[3, 5, 7, 8, 9, 10, 11, 12, 19, 21, 22, 23, 24, 25, 27, 29]",211.8574701,3239,726,3,92,10,1.0010381285747127
basic,53,34,0,0,0,8,"[0, 13, 1, 8]",4,14,"[3, 5, 7, 9, 10, 11, 12, 19, 22, 23, 24, 25, 27, 29]",201.0871405,3887,648,2,54,10,1.1636807
basic,53,34,0,0,0,25,"[0, 13, 1, 8, 25]",5,12,"[3, 5, 7, 9, 10, 11, 12, 22, 23, 24, 27, 29]",183.999133,4452,565,2,28,10,1.1396208815936457
basic,53,34,0,0,0,24,"[0, 13, 1, 8, 25, 24]",6,11,"[3, 5, 7, 9, 10, 11, 12, 22, 23, 27, 29]",166.5062774,5153,701,2,23,10,1.374180768736554
basic,53,34,0,0,0,12,"[0, 13, 1, 8, 25, 24, 12]",7,7,"[7, 9, 10, 11, 22, 23, 27]",115.4670767,8852,3699,1,8,10,1.4994254760835948
basic,53,34,0,0,0,7,"[0, 13, 1, 8, 25, 24, 12, 7]",8,5,"[9, 11, 22, 23, 27]",100.4337804,9488,636,1,4,10,1.758992610425009
basic,53,34,0,0,0,23,"[0, 13, 1, 8, 25, 24, 12, 7, 23]",9,1,[27],72.27352467,10094,606,1,0,10,2.399781305190153
basic,53,34,0,0,1,27,"[0, 13, 1, 8, 25, 24, 12, 7, 23, 27]",10,0,[],18.60789321,10896,802,1,0,10,4.766619878750327
basic,53,34,0,1,1,27,"[0, 13, 1, 8, 25, 24, 12, 7, 23, 27]",10,0,[],18.60789321,11296,400,1,0,10,4.766619878750327
basic,54,13,0,0,0,0,[0],1,29,"[1, 2, 3, 4, 5, 6, 7, 8, 9, 10, 11, 12, 13, 14, 15, 16, 17, 18, 19, 20, 21, 22, 23, 24, 25, 26, 27, 28, 29]",300,146,-1,60,2676,11,0.0
basic,54,13,0,0,0,28,"[0, 28]",2,24,"[1, 2, 3, 4, 6, 7, 8, 9, 10, 11, 12, 13, 15, 16, 17, 19, 20, 21, 22, 23, 24, 26, 27, 29]",226.3182519,1649,1503,12,378,10,1.0
basic,54,13,0,0,0,2,"[0, 28, 2]",3,20,"[1, 3, 4, 6, 7, 9, 11, 12, 13, 15, 16, 17, 19, 20, 21, 23, 24, 26, 27, 29]",188.6751915,2416,767,9,174,10,1.0158286399660754
basic,54,13,0,0,0,29,"[0, 28, 2, 29]",4,19,"[1, 3, 4, 6, 7, 9, 11, 12, 13, 15, 16, 17, 19, 20, 21, 23, 24, 26, 27]",176.9704916,3545,1129,9,132,10,1.1053279759370194
basic,54,13,0,0,0,7,"[0, 28, 2, 29, 7]",5,18,"[1, 3, 4, 6, 9, 11, 12, 13, 15, 16, 17, 19, 20, 21, 23, 24, 26, 27]",161.706154,4191,646,6,72,10,1.313811244316471
basic,54,13,0,0,0,26,"[0, 28, 2, 29, 7, 26]",6,17,"[1, 3, 4, 6, 9, 11, 12, 13, 15, 16, 17, 19, 20, 21, 23, 24, 27]",151.2658475,4690,499,6,39,10,1.554636901089982
basic,54,13,0,0,0,6,"[0, 28, 2, 29, 7, 26, 6]",7,13,"[1, 3, 4, 11, 13, 15, 16, 17, 19, 20, 23, 24, 27]",131.1660963,6088,1398,4,17,10,1.554967005613632
basic,54,13,0,0,0,11,"[0, 28, 2, 29, 7, 26, 6, 11]",8,6,"[1, 13, 15, 16, 17, 23]",112.0611231,6678,590,3,4,10,1.4733168623367165
basic,54,13,0,0,0,13,"[0, 28, 2, 29, 7, 26, 6, 11, 13]",9,2,"[15, 17]",55.98082354,7855,1177,2,0,10,1.3447287374536006
basic,54,13,0,0,1,15,"[0, 28, 2, 29, 7, 26, 6, 11, 13, 15]",10,0,[],16.16876507,10824,2969,1,0,10,1.3473372715243728
basic,54,13,0,1,1,15,"[0, 28, 2, 29, 7, 26, 6, 11, 13, 15]",10,0,[],16.16876507,11229,405,1,0,10,1.3473372715243728
basic,55,3,0,0,0,0,[0],1,29,"[1, 2, 3, 4, 5, 6, 7, 8, 9, 10, 11, 12, 13, 14, 15, 16, 17, 18, 19, 20, 21, 22, 23, 24, 25, 26, 27, 28, 29]",300,167,-1,34,427,10,0.0
basic,55,3,0,0,0,17,"[0, 17]",2,16,"[3, 4, 7, 8, 10, 12, 14, 15, 16, 19, 20, 21, 22, 24, 26, 27]",197.6965299,3570,3403,2,27,9,1.0
basic,55,3,0,0,0,20,"[0, 17, 20]",3,13,"[3, 4, 7, 8, 10, 14, 15, 16, 19, 21, 22, 24, 27]",185.0474192,4188,618,2,24,9,1.0153332121237257
basic,55,3,0,0,0,3,"[0, 17, 20, 3]",4,10,"[4, 7, 8, 10, 14, 15, 16, 19, 21, 24]",164.6513412,4858,670,2,22,9,1.0819240770773468
basic,55,3,0,0,0,19,"[0, 17, 20, 3, 19]",5,6,"[4, 8, 10, 14, 21, 24]",127.3150318,5627,769,2,11,9,1.1701070532957258
basic,55,3,0,0,0,21,"[0, 17, 20, 3, 19, 21]",6,5,"[4, 8, 10, 14, 24]",115.1084762,6356,729,2,6,9,1.202395500952127
basic,55,3,0,0,0,14,"[0, 17, 20, 3, 19, 21, 14]",7,4,"[4, 8, 10, 24]",88.20122806,7037,681,2,2,9,1.6456130302761207
basic,55,3,0,0,0,8,"[0, 17, 20, 3, 19, 21, 14, 8]",8,1,[24],12.74925658,9055,2018,1,0,9,4.784854875618247
basic,55,3,0,0,1,24,"[0, 17, 20, 3, 19, 21, 14, 8, 24]",9,0,[],0.583731524,9692,637,1,0,9,5.087289492898272
basic,55,3,0,1,1,24,"[0, 17, 20, 3, 19, 21, 14, 8, 24]",9,0,[],0.583731524,10165,473,1,0,9,5.087289492898272
basic,56,29,0,0,0,0,[0],1,29,"[1, 2, 3, 4, 5, 6, 7, 8, 9, 10, 11, 12, 13, 14, 15, 16, 17, 18, 19, 20, 21, 22, 23, 24, 25, 26, 27, 28, 29]",300,147,-1,1,78,9,0.0
basic,56,29,0,0,0,14,"[0, 14]",2,22,"[1, 3, 4, 5, 6, 7, 9, 10, 11, 12, 13, 15, 16, 17, 21, 22, 23, 25, 26, 27, 28, 29]",209.490332,5953,5806,21,110,8,1.0
basic,56,29,0,0,0,13,"[0, 14, 13]",3,18,"[1, 4, 5, 6, 7, 9, 10, 12, 15, 16, 17, 21, 22, 25, 26, 27, 28, 29]",191.4625756,6747,794,20,75,8,1.0027006502223275
basic,56,29,0,0,0,5,"[0, 14, 13, 5]",4,15,"[1, 4, 6, 7, 9, 12, 15, 17, 21, 22, 25, 26, 27, 28, 29]",165.7526554,8023,1276,19,49,8,1.0803937325657265
basic,56,29,0,0,0,7,"[0, 14, 13, 5, 7]",5,8,"[4, 9, 12, 21, 22, 26, 27, 28]",102.2231347,8947,924,3,12,8,1.2026521321069321
basic,56,29,0,0,0,12,"[0, 14, 13, 5, 7, 12]",6,7,"[4, 9, 21, 22, 26, 27, 28]",88.62166416,9437,490,3,4,8,1.3692133279803023
basic,56,29,0,0,0,22,"[0, 14, 13, 5, 7, 12, 22]",7,1,[27],50.67433224,10805,1368,1,0,8,2.1316115728184912
basic,56,29,0,0,1,27,"[0, 14, 13, 5, 7, 12, 22, 27]",8,0,[],17.43279196,11564,759,1,0,8,2.6081028152142105
basic,56,29,0,1,1,27,"[0, 14, 13, 5, 7, 12, 22, 27]",8,0,[],17.43279196,12099,535,1,0,8,2.6081028152142105
basic,57,7,0,0,0,0,[0],1,29,"[1, 2, 3, 4, 5, 6, 7, 8, 9, 10, 11, 12, 13, 14, 15, 16, 17, 18, 19, 20, 21, 22, 23, 24, 25, 26, 27, 28, 29]",300,146,-1,3,79,9,0.0
basic,57,7,0,0,0,6,"[0, 6]",2,22,"[2, 4, 5, 7, 8, 9, 10, 11, 13, 14, 15, 16, 18, 19, 20, 21, 22, 23, 24, 25, 27, 28]",231.1160396,1622,1476,1,24,9,1.0
basic,57,7,0,0,0,25,"[0, 6, 25]",3,14,"[2, 4, 5, 7, 13, 14, 15, 16, 18, 19, 20, 21, 23, 28]",163.9371739,2326,704,1,15,9,1.1491202566384209
basic,57,7,0,0,0,18,"[0, 6, 25, 18]",4,10,"[2, 4, 7, 13, 14, 15, 16, 19, 20, 23]",135.6175694,2972,646,3,17,8,1.1481527050479303
basic,57,7,0,0,0,20,"[0, 6, 25, 18, 20]",5,7,"[2, 4, 7, 13, 15, 16, 19]",122.8113209,3669,697,2,7,8,1.1819409572824942
basic,57,7,0,0,0,7,"[0, 6, 25, 18, 20, 7]",6,3,"[2, 4, 19]",82.31440742,4437,768,1,2,8,1.1899474510501942
basic,57,7,0,0,0,19,"[0, 6, 25, 18, 20, 7, 19]",7,1,[2],52.90352508,5068,631,1,0,8,1.3062191275015858
basic,57,7,0,0,1,2,"[0, 6, 25, 18, 20, 7, 19, 2]",8,0,[],22.75389822,5737,669,1,0,8,1.3209685930735187
basic,57,7,0,1,1,2,"[0, 6, 25, 18, 20, 7, 19, 2]",8,0,[],22.75389822,6114,377,1,0,8,1.3209685930735187
basic,58,11,0,0,0,0,[0],1,25,"[1, 2, 3, 4, 5, 6, 8, 9, 10, 11, 12, 13, 14, 15, 16, 17, 18, 19, 20, 22, 23, 25, 26, 27, 28]",300,147,-1,6,374,12,0.0
basic,58,11,0,0,0,17,"[0, 17]",2,18,"[1, 2, 4, 5, 6, 8, 10, 11, 12, 15, 18, 19, 22, 23, 25, 26, 27, 28]",152.9217895,2035,1888,218,762,9,1.0
basic,58,11,0,0,0,15,"[0, 17, 15]",3,16,"[1, 2, 4, 5, 6, 8, 11, 12, 18, 19, 22, 23, 25, 26, 27, 28]",140.2726789,2787,752,97,260,9,1.0182186531831565
basic,58,11,0,0,0,8,"[0, 17, 15, 8]",4,13,"[1, 2, 4, 5, 6, 11, 12, 18, 19, 22, 25, 27, 28]",126.8190548,3636,849,64,49,9,1.192650797627932
basic,58,11,0,0,0,11,"[0, 17, 15, 8, 11]",5,8,"[2, 5, 6, 12, 19, 22, 27, 28]",98.65879914,4463,827,24,0,9,1.1613605340218829
basic,58,11,0,0,0,28,"[0, 17, 15, 8, 11, 28]",6,4,"[2, 5, 19, 22]",79.24231131,5412,949,6,0,9,1.2775081064776734
basic,58,11,0,0,0,2,"[0, 17, 15, 8, 11, 28, 2]",7,2,"[5, 22]",68.61216549,6091,679,2,0,9,1.2963768520024503
basic,58,11,0,0,0,22,"[0, 17, 15, 8, 11, 28, 2, 22]",8,1,[5],58.56228987,7824,1733,1,0,9,1.2806069197030494
basic,58,11,0,0,1,5,"[0, 17, 15, 8, 11, 28, 2, 22, 5]",9,0,[],31.99162936,9021,1197,1,0,9,1.6473261458871022
basic,58,11,0,1,1,5,"[0, 17, 15, 8, 11, 28, 2, 22, 5]",9,0,[],31.99162936,10030,1009,1,0,9,1.6473261458871022
basic,59,26,0,0,0,0,[0],1,29,"[1, 2, 3, 4, 5, 6, 7, 8, 9, 10, 11, 12, 13, 14, 15, 16, 17, 18, 19, 20, 21, 22, 23, 24, 25, 26, 27, 28, 29]",300,133,-1,9,226,9,0.0
basic,59,26,0,0,0,21,"[0, 21]",2,25,"[2, 3, 4, 5, 6, 7, 8, 10, 11, 12, 13, 14, 15, 16, 17, 18, 19, 22, 23, 24, 25, 26, 27, 28, 29]",211.1349337,2720,2587,7,90,9,1.0
basic,59,26,0,0,0,13,"[0, 21, 13]",3,21,"[3, 4, 5, 6, 7, 8, 10, 11, 12, 14, 15, 16, 17, 18, 19, 22, 23, 24, 25, 26, 29]",188.9989901,3393,673,6,45,9,1.0103952279992225
basic,59,26,0,0,0,16,"[0, 21, 13, 16]",4,8,"[4, 5, 6, 10, 14, 17, 23, 29]",119.9700107,5702,2309,3,23,9,1.608180021563306
basic,59,26,0,0,0,29,"[0, 21, 13, 16, 29]",5,6,"[4, 6, 10, 14, 17, 23]",95.76257383,6805,1103,3,20,9,1.6714963205667543
basic,59,26,0,0,0,4,"[0, 21, 13, 16, 29, 4]",6,4,"[6, 10, 14, 17]",71.76257383,7606,801,3,6,9,1.8831111863826637
basic,59,26,0,0,0,17,"[0, 21, 13, 16, 29, 4, 17]",7,3,"[6, 10, 14]",50.66755072,8146,540,3,1,9,1.7547748416418751
basic,59,26,0,0,0,14,"[0, 21, 13, 16, 29, 4, 17, 14]",8,1,[6],28.19534567,9320,1174,1,0,9,1.6866342470680415
basic,59,26,0,0,1,6,"[0, 21, 13, 16, 29, 4, 17, 14, 6]",9,0,[],7.171549626,10035,715,1,0,9,1.823211641041882
basic,59,26,0,1,1,6,"[0, 21, 13, 16, 29, 4, 17, 14, 6]",9,0,[],7.171549626,10464,429,1,0,9,1.823211641041882
basic,60,27,0,0,0,0,[0],1,26,"[1, 3, 5, 6, 7, 8, 9, 10, 11, 12, 13, 14, 15, 16, 17, 18, 19, 21, 22, 23, 24, 25, 26, 27, 28, 29]",300,163,-1,13,578,11,0.0
basic,60,27,0,0,0,15,"[0, 15]",2,24,"[1, 3, 5, 6, 7, 8, 9, 10, 11, 12, 13, 14, 16, 17, 18, 19, 21, 22, 23, 24, 25, 26, 27, 29]",263.7508621,1867,1704,6,219,11,1.0
basic,60,27,0,0,0,24,"[0, 15, 24]",3,20,"[1, 5, 6, 7, 8, 9, 10, 12, 13, 14, 16, 17, 18, 19, 21, 23, 25, 26, 27, 29]",246.5462115,2462,595,6,130,11,1.130933077698322
basic,60,27,0,0,0,17,"[0, 15, 24, 17]",4,15,"[1, 6, 8, 10, 12, 13, 14, 16, 18, 19, 23, 25, 26, 27, 29]",229.9932662,3085,623,4,60,11,1.1285538435963374
basic,60,27,0,0,0,12,"[0, 15, 24, 17, 12]",5,14,"[1, 6, 8, 10, 13, 14, 16, 18, 19, 23, 25, 26, 27, 29]",218.8129263,3784,699,2,32,11,1.2561880288755216
basic,60,27,0,0,0,10,"[0, 15, 24, 17, 12, 10]",6,11,"[1, 8, 13, 14, 18, 19, 23, 25, 26, 27, 29]",207.7675653,4606,822,2,28,11,1.2228289337766665
basic,60,27,0,0,0,13,"[0, 15, 24, 17, 12, 10, 13]",7,9,"[1, 8, 14, 18, 19, 23, 26, 27, 29]",167.9178476,5325,719,2,18,11,1.3421291994761178
basic,60,27,0,0,0,19,"[0, 15, 24, 17, 12, 10, 13, 19]",8,5,"[1, 8, 14, 23, 29]",131.6825057,6200,875,2,6,11,1.294749956153846
basic,60,27,0,0,0,8,"[0, 15, 24, 17, 12, 10, 13, 19, 8]",9,3,"[14, 23, 29]",116.816437,6900,700,2,1,11,1.3554286578836865
basic,60,27,0,0,0,29,"[0, 15, 24, 17, 12, 10, 13, 19, 8, 29]",10,1,[14],57.61339652,10683,3783,1,0,11,1.248354519573802
basic,60,27,0,0,1,14,"[0, 15, 24, 17, 12, 10, 13, 19, 8, 29, 14]",11,0,[],13.31892734,11387,704,1,0,11,1.562811097555156
basic,60,27,0,1,1,14,"[0, 15, 24, 17, 12, 10, 13, 19, 8, 29, 14]",11,0,[],13.31892734,11846,459,1,0,11,1.562811097555156
basic,61,4,0,0,0,0,[0],1,26,"[3, 4, 5, 6, 7, 8, 10, 11, 12, 13, 14, 15, 16, 17, 18, 19, 20, 21, 22, 23, 24, 25, 26, 27, 28, 29]",300,147,-1,4,489,10,0.0
basic,61,4,0,0,0,28,"[0, 28]",2,21,"[3, 4, 5, 6, 10, 11, 12, 13, 14, 15, 16, 17, 19, 20, 21, 22, 23, 24, 25, 26, 27]",225.9392142,2353,2206,2,216,10,1.0
basic,61,4,0,0,0,25,"[0, 28, 25]",3,15,"[3, 4, 5, 6, 11, 12, 13, 14, 16, 17, 20, 21, 22, 23, 24]",171.9021898,4119,1766,69,420,9,1.0101483986051152
basic,61,4,0,0,0,11,"[0, 28, 25, 11]",4,13,"[3, 4, 5, 6, 12, 13, 14, 16, 17, 20, 21, 22, 24]",153.1138956,4887,768,28,131,9,1.1954213347431635
basic,61,4,0,0,0,16,"[0, 28, 25, 11, 16]",5,12,"[3, 4, 5, 6, 12, 13, 14, 17, 20, 21, 22, 24]",138.1138956,5607,720,25,53,9,1.1744143344165616
basic,61,4,0,0,0,17,"[0, 28, 25, 11, 16, 17]",6,8,"[3, 5, 13, 14, 20, 21, 22, 24]",112.037086,6535,928,12,11,9,1.1466910362874783
basic,61,4,0,0,0,21,"[0, 28, 25, 11, 16, 17, 21]",7,3,"[5, 20, 22]",62.78264454,7325,790,2,2,9,1.6049829954617874
basic,61,4,0,0,0,22,"[0, 28, 25, 11, 16, 17, 21, 22]",8,2,"[5, 20]",51.73728352,7931,606,2,0,9,1.5647465951280919
basic,61,4,0,0,1,20,"[0, 28, 25, 11, 16, 17, 21, 22, 20]",9,0,[],21.5048506,8668,737,1,0,9,1.5241086549747453
basic,61,4,0,1,1,20,"[0, 28, 25, 11, 16, 17, 21, 22, 20]",9,0,[],21.5048506,9364,696,1,0,9,1.5241086549747453
basic,62,32,0,0,0,0,[0],1,29,"[1, 2, 3, 4, 5, 6, 7, 8, 9, 10, 11, 12, 13, 14, 15, 16, 17, 18, 19, 20, 21, 22, 23, 24, 25, 26, 27, 28, 29]",300,163,-1,17,359,10,0.0
basic,62,32,0,0,0,19,"[0, 19]",2,28,"[1, 2, 3, 4, 5, 6, 7, 8, 9, 10, 11, 12, 13, 14, 15, 16, 17, 18, 20, 21, 22, 23, 24, 25, 26, 27, 28, 29]",283.5075775,3258,3095,16,294,10,1.0
basic,62,32,0,0,0,13,"[0, 19, 13]",3,24,"[2, 3, 4, 5, 6, 8, 9, 10, 11, 12, 14, 15, 16, 17, 18, 20, 21, 22, 23, 24, 25, 26, 27, 28]",260.3127505,4118,860,14,227,10,1.0172874229878615
basic,62,32,0,0,0,17,"[0, 19, 13, 17]",4,12,"[2, 5, 8, 9, 12, 15, 16, 20, 22, 25, 27, 28]",174.7090123,5778,1660,2,32,10,1.1087263887351317
basic,62,32,0,0,0,2,"[0, 19, 13, 17, 2]",5,8,"[8, 9, 12, 15, 16, 20, 22, 28]",134.8969538,7784,2006,1,9,10,1.138316897592222
basic,62,32,0,0,0,15,"[0, 19, 13, 17, 2, 15]",6,4,"[12, 16, 22, 28]",58.68015773,8685,901,1,5,9,2.8263716524658444
basic,62,32,0,0,0,28,"[0, 19, 13, 17, 2, 15, 28]",7,3,"[12, 16, 22]",47.27840348,9221,536,1,2,9,2.6116300314452463
basic,62,32,0,0,0,12,"[0, 19, 13, 17, 2, 15, 28, 12]",8,1,[16],28.30473752,9787,566,1,0,9,2.41318685221259
basic,62,32,0,0,1,16,"[0, 19, 13, 17, 2, 15, 28, 12, 16]",9,0,[],12.65226167,10466,679,1,0,9,2.4470418532503557
basic,62,32,0,1,1,16,"[0, 19, 13, 17, 2, 15, 28, 12, 16]",9,0,[],12.65226167,11247,781,1,0,9,2.4470418532503557
basic,63,20,0,0,0,0,[0],1,21,"[1, 2, 3, 4, 5, 6, 7, 8, 9, 12, 17, 18, 20, 21, 22, 23, 25, 26, 27, 28, 29]",300,164,-1,1,9,9,0.0
basic,63,20,0,0,0,1,"[0, 1]",2,14,"[3, 4, 5, 6, 8, 9, 12, 20, 21, 23, 26, 27, 28, 29]",197.3501096,2701,2537,1,9,8,1.0
basic,63,20,0,0,0,5,"[0, 1, 5]",3,12,"[4, 6, 8, 9, 12, 20, 21, 23, 26, 27, 28, 29]",160.675868,3731,1030,1,8,8,1.1088946720668915
basic,63,20,0,0,0,21,"[0, 1, 5, 21]",4,8,"[4, 6, 8, 9, 20, 23, 27, 28]",115.675868,4474,743,1,6,8,1.0805828994591202
basic,63,20,0,0,0,8,"[0, 1, 5, 21, 8]",5,5,"[6, 9, 23, 27, 28]",98.21161876,5194,720,1,5,8,1.0976815296746363
basic,63,20,0,0,0,23,"[0, 1, 5, 21, 8, 23]",6,3,"[6, 9, 27]",53.52381281,6020,826,1,2,8,1.0820667611140062
basic,63,20,0,0,0,9,"[0, 1, 5, 21, 8, 23, 9]",7,1,[6],34.3144401,6567,547,1,0,8,1.0771429624373048
basic,63,20,0,0,1,6,"[0, 1, 5, 21, 8, 23, 9, 6]",8,0,[],11.29271124,7304,737,1,0,8,1.0892675954154076
basic,63,20,0,1,1,6,"[0, 1, 5, 21, 8, 23, 9, 6]",8,0,[],11.29271124,7680,376,1,0,8,1.0892675954154076
basic,64,28,0,0,0,0,[0],1,27,"[1, 2, 3, 4, 5, 6, 7, 8, 9, 10, 11, 12, 13, 14, 15, 16, 17, 18, 19, 20, 22, 23, 25, 26, 27, 28, 29]",300,160,-1,2,96,9,0.0
basic,64,28,0,0,0,14,"[0, 14]",2,14,"[1, 2, 3, 5, 7, 10, 11, 12, 13, 17, 18, 19, 20, 26]",147.8914861,2261,2101,1,26,8,1.0
basic,64,28,0,0,0,18,"[0, 14, 18]",3,11,"[1, 2, 3, 5, 7, 11, 12, 13, 17, 19, 26]",122.3963885,3020,759,1,23,8,1.0675599824559303
basic,64,28,0,0,0,13,"[0, 14, 18, 13]",4,7,"[2, 7, 11, 12, 17, 19, 26]",97.9832773,3601,581,1,9,8,1.0602397944415018
basic,64,28,0,0,0,12,"[0, 14, 18, 13, 12]",5,4,"[2, 7, 17, 19]",80.77862677,4200,599,1,3,8,1.0640685934245377
basic,64,28,0,0,0,7,"[0, 14, 18, 13, 12, 7]",6,2,"[2, 19]",67.62568033,4810,610,1,1,8,1.186262804928269
basic,64,28,0,0,0,19,"[0, 14, 18, 13, 12, 7, 19]",7,1,[2],39.89483108,5440,630,1,0,8,1.424576333867947
basic,64,28,0,0,1,2,"[0, 14, 18, 13, 12, 7, 19, 2]",8,0,[],2.531747699,9842,4402,1,0,8,1.4824387893309579
basic,64,28,0,1,1,2,"[0, 14, 18, 13, 12, 7, 19, 2]",8,0,[],2.531747699,10160,318,1,0,8,1.4824387893309579
basic,65,37,0,0,0,0,[0],1,29,"[1, 2, 3, 4, 5, 6, 7, 8, 9, 10, 11, 12, 13, 14, 15, 16, 17, 18, 19, 20, 21, 22, 23, 24, 25, 26, 27, 28, 29]",300,133,-1,6,168,10,0.0
basic,65,37,0,0,0,22,"[0, 22]",2,10,"[1, 2, 4, 7, 15, 18, 19, 20, 21, 26]",137.1442356,2877,2744,15,58,8,1.0
basic,65,37,0,0,0,4,"[0, 22, 4]",3,9,"[1, 2, 7, 15, 18, 19, 20, 21, 26]",112.1442356,3579,702,8,28,8,1.1558002336903517
basic,65,37,0,0,0,2,"[0, 22, 4, 2]",4,8,"[1, 7, 15, 18, 19, 20, 21, 26]",100.7424813,4143,564,7,12,8,1.3180840601310855
basic,65,37,0,0,0,1,"[0, 22, 4, 2, 1]",5,7,"[7, 15, 18, 19, 20, 21, 26]",83.53783081,4740,597,7,4,8,1.3672506917303464
basic,65,37,0,0,0,20,"[0, 22, 4, 2, 1, 20]",6,4,"[15, 19, 21, 26]",49.30334527,5337,597,3,2,8,1.6724635702263173
basic,65,37,0,0,0,21,"[0, 22, 4, 2, 1, 20, 21]",7,2,"[15, 26]",34.88114017,5902,565,2,0,8,1.708312418677367
basic,65,37,0,0,1,15,"[0, 22, 4, 2, 1, 20, 21, 15]",8,0,[],19.88114017,7471,1569,1,0,8,1.6834357928898975
basic,65,37,0,1,1,15,"[0, 22, 4, 2, 1, 20, 21, 15]",8,0,[],19.88114017,10698,3227,1,0,8,1.6834357928898975
basic,66,0,0,0,0,0,[0],1,27,"[2, 3, 4, 5, 6, 7, 8, 9, 10, 11, 12, 13, 14, 15, 16, 17, 19, 20, 21, 22, 23, 24, 25, 26, 27, 28, 29]",300,146,-1,104,1136,9,0.0
basic,66,0,0,0,0,5,"[0, 5]",2,24,"[2, 3, 4, 7, 8, 9, 11, 12, 13, 14, 15, 16, 17, 19, 20, 21, 22, 23, 24, 25, 26, 27, 28, 29]",164.5156836,5634,5488,5,112,9,1.0
basic,66,0,0,0,0,4,"[0, 5, 4]",3,20,"[2, 3, 7, 8, 9, 11, 12, 13, 14, 15, 17, 19, 20, 21, 22, 23, 24, 25, 26, 28]",139.4358112,6450,816,4,61,9,1.0257023158632692
basic,66,0,0,0,0,24,"[0, 5, 4, 24]",4,17,"[2, 3, 7, 8, 9, 11, 12, 14, 15, 17, 19, 20, 22, 23, 25, 26, 28]",128.0340569,7168,718,34,99,8,1.030771580363297
basic,66,0,0,0,0,7,"[0, 5, 4, 24, 7]",5,11,"[3, 8, 9, 11, 12, 15, 17, 19, 22, 23, 26]",86.03405691,8284,1116,2,24,8,1.0436866391395396
basic,66,0,0,0,0,19,"[0, 5, 4, 24, 7, 19]",6,3,"[3, 8, 22]",40.03405691,9761,1477,3,0,7,1.047220151499513
basic,66,0,0,0,1,22,"[0, 5, 4, 24, 7, 19, 22]",7,0,[],4.256969266,10644,883,1,0,7,1.075998476421746
basic,66,0,0,1,1,22,"[0, 5, 4, 24, 7, 19, 22]",7,0,[],4.256969266,11297,653,1,0,7,1.075998476421746
basic,67,5,0,0,0,0,[0],1,29,"[1, 2, 3, 4, 5, 6, 7, 8, 9, 10, 11, 12, 13, 14, 15, 16, 17, 18, 19, 20, 21, 22, 23, 24, 25, 26, 27, 28, 29]",300,158,-1,5,139,9,0.0
basic,67,5,0,0,0,12,"[0, 12]",2,22,"[2, 4, 5, 6, 8, 9, 10, 13, 14, 15, 16, 17, 18, 19, 21, 22, 23, 24, 25, 26, 27, 28]",228.3062067,7936,7778,1,27,9,1.0
basic,67,5,0,0,0,25,"[0, 12, 25]",3,21,"[2, 4, 5, 6, 8, 9, 10, 13, 14, 15, 16, 17, 18, 19, 21, 22, 23, 24, 26, 27, 28]",200.5213187,8520,584,1,20,9,1.584023303445617
basic,67,5,0,0,0,23,"[0, 12, 25, 23]",4,19,"[2, 4, 5, 6, 8, 9, 10, 13, 14, 15, 16, 17, 18, 19, 21, 22, 24, 26, 27]",182.0822298,9092,572,1,14,9,2.3508446989254357
basic,67,5,0,0,0,24,"[0, 12, 25, 23, 24]",5,15,"[2, 4, 5, 6, 8, 9, 13, 14, 15, 17, 18, 19, 22, 26, 27]",158.995437,9669,577,1,12,9,1.9469752046288753
basic,67,5,0,0,0,17,"[0, 12, 25, 23, 24, 17]",6,7,"[4, 5, 6, 8, 15, 18, 19]",124.0097257,10925,1256,1,8,9,1.6482276497563642
basic,67,5,0,0,0,5,"[0, 12, 25, 23, 24, 17, 5]",7,4,"[4, 6, 15, 18]",80.96323916,11539,614,1,3,9,1.4654649104389412
basic,67,5,0,0,1,15,"[0, 12, 25, 23, 24, 17, 5, 15]",8,0,[],40.93824697,12340,801,1,0,8,1.4660376450939663
basic,67,5,0,1,1,15,"[0, 12, 25, 23, 24, 17, 5, 15]",8,0,[],40.93824697,12798,458,1,0,8,1.4660376450939663
basic,68,31,0,0,0,0,[0],1,27,"[1, 3, 4, 5, 6, 7, 8, 10, 11, 12, 13, 14, 15, 16, 17, 18, 19, 20, 21, 22, 23, 24, 25, 26, 27, 28, 29]",300,146,-1,2,87,10,0.0
basic,68,31,0,0,0,14,"[0, 14]",2,25,"[1, 3, 5, 6, 7, 8, 10, 11, 12, 13, 15, 16, 17, 18, 19, 20, 21, 22, 23, 24, 25, 26, 27, 28, 29]",263.861378,3055,2909,2,59,10,1.0
basic,68,31,0,0,0,27,"[0, 14, 27]",3,22,"[1, 3, 5, 6, 7, 8, 10, 11, 12, 13, 15, 16, 17, 18, 19, 20, 21, 22, 24, 25, 28, 29]",235.6833724,3660,605,1,39,10,1.5881859159302467
basic,68,31,0,0,0,8,"[0, 14, 27, 8]",4,20,"[1, 3, 5, 6, 7, 10, 11, 12, 13, 16, 17, 18, 19, 20, 21, 22, 24, 25, 28, 29]",224.6380114,4201,541,1,36,10,2.1665048452331277
basic,68,31,0,0,0,18,"[0, 14, 27, 8, 18]",5,15,"[1, 5, 6, 7, 11, 12, 13, 16, 17, 19, 20, 22, 25, 28, 29]",188.7911147,6638,2437,1,26,10,1.7273375741920205
basic,68,31,0,0,0,11,"[0, 14, 27, 8, 18, 11]",6,11,"[1, 5, 7, 12, 16, 17, 19, 20, 22, 25, 28]",153.9055876,7318,680,13,17,9,2.386348208737804
basic,68,31,0,0,0,5,"[0, 14, 27, 8, 18, 11, 5]",7,5,"[16, 17, 20, 25, 28]",110.2249283,8019,701,3,3,9,2.163249612867222
basic,68,31,0,0,0,28,"[0, 14, 27, 8, 18, 11, 5, 28]",8,2,"[16, 17]",90.00117988,8635,616,2,0,9,1.9564635733184719
basic,68,31,0,0,1,16,"[0, 14, 27, 8, 18, 11, 5, 28, 16]",9,0,[],56.38570725,9328,693,1,0,9,1.824071502589619
basic,68,31,0,1,1,16,"[0, 14, 27, 8, 18, 11, 5, 28, 16]",9,0,[],56.38570725,10013,685,1,0,9,1.824071502589619
undo,69,8,0,0,0,0,[0],1,29,"[1, 2, 3, 4, 5, 6, 7, 8, 9, 10, 11, 12, 13, 14, 15, 16, 17, 18, 19, 20, 21, 22, 23, 24, 25, 26, 27, 28, 29]",300,149,-1,10,149,9,0.0
undo,69,8,0,0,0,5,"[0, 5]",2,28,"[1, 2, 3, 4, 6, 7, 8, 9, 10, 11, 12, 13, 14, 15, 16, 17, 18, 19, 20, 21, 22, 23, 24, 25, 26, 27, 28, 29]",254.5137383,8733,8584,10,100,9,1.0
undo,69,8,0,0,0,25,"[0, 5, 25]",3,20,"[1, 2, 3, 4, 6, 11, 12, 14, 15, 16, 17, 18, 19, 20, 21, 22, 23, 24, 28, 29]",215.3091468,14556,5823,4,42,9,1.2272747879909065
undo,69,8,0,0,0,1,"[0, 5, 25, 1]",4,17,"[3, 4, 6, 11, 12, 14, 15, 16, 17, 18, 20, 21, 22, 23, 24, 28, 29]",190.3091468,15930,1374,3,24,9,1.1770245007593956
undo,69,8,0,0,0,23,"[0, 5, 25, 1, 23]",5,15,"[3, 4, 6, 11, 14, 15, 16, 17, 18, 20, 21, 22, 24, 28, 29]",167.2874179,16658,728,1,14,9,1.141996583852372
undo,69,8,0,0,0,18,"[0, 5, 25, 1, 23, 18]",6,9,"[3, 4, 11, 14, 15, 16, 17, 24, 28]",125.5261919,25375,8717,1,7,9,1.3199166330970717
undo,69,8,0,0,0,28,"[0, 5, 25, 1, 23, 18, 28]",7,1,[16],59.906073,27455,2080,1,0,8,1.425373059246715
undo,69,8,0,0,1,16,"[0, 5, 25, 1, 23, 18, 28, 16]",8,0,[],37.54539323,28541,1086,1,0,8,1.4175143337764708
undo,69,8,0,1,1,16,"[0, 5, 25, 1, 23, 18, 28, 16]",8,0,[],37.54539323,29150,609,1,0,8,1.4175143337764708
undo,70,0,0,0,0,0,[0],1,27,"[2, 3, 4, 5, 6, 7, 8, 9, 10, 11, 12, 13, 14, 15, 16, 17, 19, 20, 21, 22, 23, 24, 25, 26, 27, 28, 29]",300,145,-1,104,1136,9,0.0
undo,70,0,0,0,0,5,"[0, 5]",2,24,"[2, 3, 4, 7, 8, 9, 11, 12, 13, 14, 15, 16, 17, 19, 20, 21, 22, 23, 24, 25, 26, 27, 28, 29]",164.5156836,3216,3071,5,112,9,1.0
undo,70,0,0,0,0,4,"[0, 5, 4]",3,20,"[2, 3, 7, 8, 9, 11, 12, 13, 14, 15, 17, 19, 20, 21, 22, 23, 24, 25, 26, 28]",139.4358112,4533,1317,4,61,9,1.0257023158632692
undo,70,0,0,0,0,24,"[0, 5, 4, 24]",4,17,"[2, 3, 7, 8, 9, 11, 12, 14, 15, 17, 19, 20, 22, 23, 25, 26, 28]",128.0340569,5078,545,34,99,8,1.030771580363297
undo,70,0,0,0,0,15,"[0, 5, 4, 24, 15]",5,13,"[2, 3, 7, 8, 9, 11, 12, 17, 19, 23, 25, 26, 28]",104.6888218,7369,2291,15,27,8,1.0332334014589941
undo,70,0,0,0,0,7,"[0, 5, 4, 24, 15, 7]",6,8,"[3, 8, 9, 12, 17, 19, 23, 26]",73.62437271,8006,637,5,6,8,1.1042188033168694
undo,70,0,0,0,0,8,"[0, 5, 4, 24, 15, 7, 8]",7,2,"[3, 19]",54.51939954,8636,630,2,0,8,1.1034647138289617
undo,70,0,0,0,1,3,"[0, 5, 4, 24, 15, 7, 8, 3]",8,0,[],24.10558689,9340,704,1,0,8,1.2728091551258456
undo,70,0,0,1,1,3,"[0, 5, 4, 24, 15, 7, 8, 3]",8,0,[],24.10558689,10846,1506,1,0,8,1.2728091551258456
undo,71,7,0,0,0,0,[0],1,29,"[1, 2, 3, 4, 5, 6, 7, 8, 9, 10, 11, 12, 13, 14, 15, 16, 17, 18, 19, 20, 21, 22, 23, 24, 25, 26, 27, 28, 29]",300,131,-1,3,79,9,0.0
undo,71,7,0,0,0,4,"[0, 4]",2,13,"[2, 6, 7, 13, 14, 15, 16, 18, 19, 20, 21, 23, 25]",159.5720825,6105,5974,14,54,7,1.0
undo,71,7,0,0,0,20,"[0, 4, 20]",3,10,"[2, 6, 7, 13, 15, 16, 18, 19, 23, 25]",139.9251998,6745,640,4,20,7,1.0677824539705143
undo,71,7,1,0,0,4,"[0, 4]",2,13,"[2, 6, 7, 13, 14, 15, 16, 18, 19, 20, 21, 23, 25]",159.5720825,9396,2651,14,54,7,1.0
undo,71,7,0,0,0,25,"[0, 4, 25]",3,10,"[2, 6, 7, 13, 15, 16, 18, 19, 20, 23]",134.8334488,12812,3416,8,16,7,1.3949161217887336
undo,71,7,0,0,0,18,"[0, 4, 25, 18]",4,7,"[2, 6, 7, 13, 16, 19, 20]",106.5138443,14472,1660,4,6,7,1.3514318546417696
undo,71,7,0,0,0,20,"[0, 4, 25, 18, 20]",5,4,"[2, 7, 13, 19]",93.7075958,16509,2037,3,2,7,1.376077991769708
undo,71,7,0,0,0,7,"[0, 4, 25, 18, 20, 7]",6,1,[19],53.21068234,17785,1276,1,0,7,1.3490388409054246
undo,71,7,0,0,1,19,"[0, 4, 25, 18, 20, 7, 19]",7,0,[],23.7998,18440,655,1,0,7,1.4600693286966926
undo,71,7,0,1,1,19,"[0, 4, 25, 18, 20, 7, 19]",7,0,[],23.7998,18981,541,1,0,7,1.4600693286966926
undo,72,24,0,0,0,0,[0],1,29,"[1, 2, 3, 4, 5, 6, 7, 8, 9, 10, 11, 12, 13, 14, 15, 16, 17, 18, 19, 20, 21, 22, 23, 24, 25, 26, 27, 28, 29]",300,146,-1,4,76,10,0.0
undo,72,24,0,0,0,16,"[0, 16]",2,28,"[1, 2, 3, 4, 5, 6, 7, 8, 9, 10, 11, 12, 13, 14, 15, 17, 18, 19, 20, 21, 22, 23, 24, 25, 26, 27, 28, 29]",210.3562607,1491,1345,13,110,9,1.0
undo,72,24,0,0,0,22,"[0, 16, 22]",3,27,"[1, 2, 3, 4, 5, 6, 7, 8, 9, 10, 11, 12, 13, 14, 15, 17, 18, 19, 20, 21, 23, 24, 25, 26, 27, 28, 29]",192.3285043,2506,1015,7,54,9,1.0217425143037777
undo,72,24,0,0,0,15,"[0, 16, 22, 15]",4,24,"[2, 3, 4, 5, 6, 7, 8, 9, 10, 11, 12, 13, 14, 17, 18, 19, 21, 23, 24, 25, 26, 27, 28, 29]",171.1153009,3193,687,3,24,9,1.077448994301009
undo,72,24,0,0,0,28,"[0, 16, 22, 15, 28]",5,12,"[3, 4, 6, 8, 9, 11, 13, 21, 23, 25, 26, 27]",125.8383752,3986,793,2,10,9,1.0579370080485104
undo,72,24,0,0,0,23,"[0, 16, 22, 15, 28, 23]",6,7,"[3, 4, 8, 9, 11, 13, 27]",106.8120776,4600,614,2,4,9,1.0965087965469686
undo,72,24,0,0,0,11,"[0, 16, 22, 15, 28, 23, 11]",7,2,"[9, 27]",79.88625355,5453,853,2,0,9,1.0958394317987046
undo,72,24,0,0,0,27,"[0, 16, 22, 15, 28, 23, 11, 27]",8,1,[9],52.083376,6145,692,1,0,9,1.085465547106356
undo,72,24,0,0,1,9,"[0, 16, 22, 15, 28, 23, 11, 27, 9]",9,0,[],12.52329511,6996,851,1,0,9,1.3543056893413161
undo,72,24,0,1,1,9,"[0, 16, 22, 15, 28, 23, 11, 27, 9]",9,0,[],12.52329511,7597,601,1,0,9,1.3543056893413161
undo,73,2,0,0,0,0,[0],1,23,"[1, 2, 4, 5, 6, 7, 8, 9, 12, 13, 15, 16, 17, 18, 19, 20, 22, 23, 25, 26, 27, 28, 29]",300,132,-1,70,620,10,0.0
undo,73,2,0,0,0,19,"[0, 19]",2,22,"[1, 2, 4, 5, 6, 7, 8, 9, 12, 13, 15, 16, 17, 18, 20, 22, 23, 25, 26, 27, 28, 29]",210.306076,1353,1221,67,431,10,1.0
undo,73,2,0,0,0,12,"[0, 19, 12]",3,17,"[1, 4, 5, 6, 7, 13, 15, 16, 17, 18, 20, 22, 25, 26, 27, 28, 29]",174.2921898,2121,768,66,298,10,1.1107635036313153
undo,73,2,0,0,0,5,"[0, 19, 12, 5]",4,11,"[1, 6, 7, 13, 15, 16, 18, 22, 25, 26, 29]",144.7625437,2741,620,38,136,10,1.0968174771581647
undo,73,2,0,0,0,22,"[0, 19, 12, 5, 22]",5,8,"[1, 6, 7, 13, 15, 18, 26, 29]",131.9562952,3313,572,20,63,10,1.0889910507461968
undo,73,2,0,0,0,13,"[0, 19, 12, 5, 22, 13]",6,7,"[1, 6, 7, 15, 18, 26, 29]",117.0902265,4027,714,19,20,10,1.236526217328057
undo,73,2,0,0,0,18,"[0, 19, 12, 5, 22, 13, 18]",7,4,"[7, 15, 26, 29]",81.91921567,4745,718,10,3,10,1.2128708213409936
undo,73,2,0,0,0,7,"[0, 19, 12, 5, 22, 13, 18, 7]",8,3,"[15, 26, 29]",71.62358553,5418,673,5,0,10,1.2019811287894737
undo,73,2,0,0,0,26,"[0, 19, 12, 5, 22, 13, 18, 7, 26]",9,2,"[15, 29]",48.82007703,6611,1193,2,0,10,1.1883593342191134
undo,73,2,0,0,1,15,"[0, 19, 12, 5, 22, 13, 18, 7, 26, 15]",10,0,[],24.61264015,7297,686,1,0,10,1.4619750353663825
undo,73,2,0,1,1,15,"[0, 19, 12, 5, 22, 13, 18, 7, 26, 15]",10,0,[],24.61264015,8132,835,1,0,10,1.4619750353663825
undo,74,23,0,0,0,0,[0],1,28,"[1, 2, 3, 4, 5, 6, 7, 8, 9, 10, 11, 12, 13, 14, 15, 16, 17, 18, 19, 20, 21, 22, 23, 25, 26, 27, 28, 29]",300,146,-1,76,2626,10,0.0
undo,74,23,0,0,0,13,"[0, 13]",2,19,"[1, 2, 3, 5, 6, 7, 8, 9, 10, 12, 14, 17, 18, 19, 21, 22, 23, 27, 29]",189.3202819,2700,2554,9,168,10,1.0
undo,74,23,0,0,0,12,"[0, 13, 12]",3,16,"[1, 2, 3, 6, 7, 8, 9, 10, 14, 17, 18, 21, 22, 23, 27, 29]",177.2372359,3261,561,9,96,10,1.0014195490503164
undo,74,23,0,0,0,2,"[0, 13, 12, 2]",4,12,"[1, 3, 6, 7, 9, 10, 14, 18, 21, 22, 27, 29]",163.3447919,4012,751,4,30,10,1.0014394317924602
undo,74,23,0,0,0,9,"[0, 13, 12, 2, 9]",5,10,"[1, 6, 7, 10, 14, 18, 21, 22, 27, 29]",150.3063871,4552,540,1,8,10,1.1457747074799831
undo,74,23,0,0,0,14,"[0, 13, 12, 2, 9, 14]",6,8,"[1, 6, 7, 10, 18, 22, 27, 29]",139.8660806,5076,524,1,6,10,1.1365880299138118
undo,74,23,0,0,0,29,"[0, 13, 12, 2, 9, 14, 29]",7,5,"[1, 6, 7, 10, 22]",92.43191571,5903,827,1,3,10,1.3460297288480787
undo,74,23,0,0,0,7,"[0, 13, 12, 2, 9, 14, 29, 7]",8,2,"[1, 10]",68.34872655,6441,538,1,1,10,1.3773159292410473
undo,74,23,0,0,0,10,"[0, 13, 12, 2, 9, 14, 29, 7, 10]",9,1,[1],40.88966612,7055,614,1,0,10,1.3556884556214648
undo,74,23,0,0,1,1,"[0, 13, 12, 2, 9, 14, 29, 7, 10, 1]",10,0,[],12.23656855,7922,867,1,0,10,1.3259861306330887
undo,74,23,0,1,1,1,"[0, 13, 12, 2, 9, 14, 29, 7, 10, 1]",10,0,[],12.23656855,8446,524,1,0,10,1.3259861306330887
undo,75,45,0,0,0,0,[0],1,24,"[1, 2, 3, 4, 5, 6, 7, 9, 10, 11, 12, 14, 15, 16, 17, 19, 20, 21, 22, 23, 24, 25, 27, 29]",300,131,-1,6,248,10,0.0
undo,75,45,0,0,0,15,"[0, 15]",2,23,"[1, 2, 3, 4, 5, 6, 7, 9, 10, 11, 12, 14, 16, 17, 19, 20, 21, 22, 23, 24, 25, 27, 29]",253.9022777,1673,1542,5,207,10,1.0
undo,75,45,0,0,0,20,"[0, 15, 20]",3,21,"[1, 2, 3, 4, 5, 6, 7, 9, 10, 11, 12, 14, 16, 17, 19, 21, 22, 23, 24, 25, 29]",200.6669511,2556,883,32,328,9,1.0781160190446337
undo,75,45,0,0,0,10,"[0, 15, 20, 10]",4,15,"[2, 3, 6, 7, 9, 12, 14, 16, 17, 19, 22, 23, 24, 25, 29]",144.5866515,4110,1554,14,96,9,1.0561833297877257
undo,75,45,0,0,0,29,"[0, 15, 20, 10, 29]",5,13,"[2, 3, 6, 7, 9, 12, 14, 16, 17, 19, 22, 23, 24]",123.0459923,5526,1416,6,36,9,1.0986906211477991
undo,75,45,0,0,0,3,"[0, 15, 20, 10, 29, 3]",6,8,"[2, 6, 7, 12, 14, 16, 22, 24]",103.0459923,6793,1267,4,10,9,1.0979227964807268
undo,75,45,0,0,0,2,"[0, 15, 20, 10, 29, 3, 2]",7,5,"[6, 7, 12, 22, 24]",77.72801449,7806,1013,2,3,9,1.3261286855050163
undo,75,45,0,0,0,7,"[0, 15, 20, 10, 29, 3, 2, 7]",8,1,[24],39.71485888,8846,1040,1,0,9,1.9618616055747609
undo,75,45,0,0,1,24,"[0, 15, 20, 10, 29, 3, 2, 7, 24]",9,0,[],5.305557809,10435,1589,1,0,9,2.860976255184572
undo,75,45,0,1,1,24,"[0, 15, 20, 10, 29, 3, 2, 7, 24]",9,0,[],5.305557809,10815,380,1,0,9,2.860976255184572
undo,76,26,0,0,0,0,[0],1,29,"[1, 2, 3, 4, 5, 6, 7, 8, 9, 10, 11, 12, 13, 14, 15, 16, 17, 18, 19, 20, 21, 22, 23, 24, 25, 26, 27, 28, 29]",300,147,-1,9,226,9,0.0
undo,76,26,0,0,0,21,"[0, 21]",2,25,"[2, 3, 4, 5, 6, 7, 8, 10, 11, 12, 13, 14, 15, 16, 17, 18, 19, 22, 23, 24, 25, 26, 27, 28, 29]",211.1349337,3180,3033,7,90,9,1.0
undo,76,26,0,0,0,13,"[0, 21, 13]",3,21,"[3, 4, 5, 6, 7, 8, 10, 11, 12, 14, 15, 16, 17, 18, 19, 22, 23, 24, 25, 26, 29]",188.9989901,3770,590,6,45,9,1.0103952279992225
undo,76,26,0,0,0,16,"[0, 21, 13, 16]",4,8,"[4, 5, 6, 10, 14, 17, 23, 29]",119.9700107,4612,842,3,23,9,1.608180021563306
undo,76,26,0,0,0,29,"[0, 21, 13, 16, 29]",5,6,"[4, 6, 10, 14, 17, 23]",95.76257383,5724,1112,3,20,9,1.6714963205667543
undo,76,26,0,0,0,4,"[0, 21, 13, 16, 29, 4]",6,4,"[6, 10, 14, 17]",71.76257383,6427,703,3,6,9,1.8831111863826637
undo,76,26,0,0,0,17,"[0, 21, 13, 16, 29, 4, 17]",7,3,"[6, 10, 14]",50.66755072,6942,515,3,1,9,1.7547748416418751
undo,76,26,0,0,0,14,"[0, 21, 13, 16, 29, 4, 17, 14]",8,1,[6],28.19534567,8170,1228,1,0,9,1.6866342470680415
undo,76,26,0,0,1,6,"[0, 21, 13, 16, 29, 4, 17, 14, 6]",9,0,[],7.171549626,8752,582,1,0,9,1.823211641041882
undo,76,26,0,1,1,6,"[0, 21, 13, 16, 29, 4, 17, 14, 6]",9,0,[],7.171549626,9181,429,1,0,9,1.823211641041882
undo,77,6,0,0,0,0,[0],1,29,"[1, 2, 3, 4, 5, 6, 7, 8, 9, 10, 11, 12, 13, 14, 15, 16, 17, 18, 19, 20, 21, 22, 23, 24, 25, 26, 27, 28, 29]",300,145,-1,180,4304,10,0.0
undo,77,6,0,0,0,3,"[0, 3]",2,28,"[1, 2, 4, 5, 6, 7, 8, 9, 10, 11, 12, 13, 14, 15, 16, 17, 18, 19, 20, 21, 22, 23, 24, 25, 26, 27, 28, 29]",266.4738908,5527,5382,90,1607,10,1.0
undo,77,6,0,0,0,10,"[0, 3, 10]",3,27,"[1, 2, 4, 5, 6, 7, 8, 9, 11, 12, 13, 14, 15, 16, 17, 18, 19, 20, 21, 22, 23, 24, 25, 26, 27, 28, 29]",215.2293789,6942,1415,8,136,10,1.0050517746249001
undo,77,6,0,0,0,17,"[0, 3, 10, 17]",4,24,"[1, 2, 4, 5, 6, 7, 8, 9, 11, 12, 13, 14, 15, 16, 18, 19, 20, 21, 22, 23, 24, 26, 27, 29]",195.5062959,7583,641,35,231,9,1.4805799145824037
undo,77,6,0,0,0,18,"[0, 3, 10, 17, 18]",5,22,"[1, 2, 4, 5, 6, 7, 8, 9, 11, 12, 13, 14, 15, 16, 20, 21, 22, 23, 24, 26, 27, 29]",181.5779077,8176,593,26,100,9,1.9444837286033987
undo,77,6,0,0,0,16,"[0, 3, 10, 17, 18, 16]",6,16,"[1, 2, 6, 7, 11, 13, 14, 15, 20, 21, 22, 23, 24, 26, 27, 29]",158.2326726,8717,541,22,31,9,1.964071484978908
undo,77,6,0,0,0,29,"[0, 3, 10, 17, 18, 16, 29]",7,10,"[6, 7, 13, 14, 20, 21, 22, 23, 24, 27]",121.5448,9405,688,13,4,9,1.6755064284794257
undo,77,6,0,0,0,23,"[0, 3, 10, 17, 18, 16, 29, 23]",8,5,"[6, 14, 22, 24, 27]",74.02638247,10249,844,5,0,9,1.6838402312760832
undo,77,6,0,0,1,22,"[0, 3, 10, 17, 18, 16, 29, 23, 22]",9,0,[],33.02638247,13787,3538,1,0,9,1.7145780202322638
undo,77,6,0,1,1,22,"[0, 3, 10, 17, 18, 16, 29, 23, 22]",9,0,[],33.02638247,15464,1677,1,0,9,1.7145780202322638
undo,78,36,0,0,0,0,[0],1,24,"[2, 4, 5, 6, 7, 8, 9, 10, 12, 13, 14, 15, 16, 17, 18, 19, 20, 22, 23, 25, 26, 27, 28, 29]",300,133,-1,2,200,10,0.0
undo,78,36,0,0,0,16,"[0, 16]",2,12,"[2, 8, 9, 10, 12, 13, 17, 18, 19, 23, 25, 27]",193.262003,4095,3962,20,112,8,1.0
undo,78,36,0,0,0,17,"[0, 16, 17]",3,10,"[2, 9, 10, 12, 13, 18, 19, 23, 25, 27]",164.9423985,4708,613,14,64,8,1.4289609665642613
undo,78,36,0,0,0,9,"[0, 16, 17, 9]",4,8,"[2, 10, 12, 13, 18, 19, 23, 25]",138.693589,5411,703,6,21,8,2.335567583937715
undo,78,36,0,0,0,19,"[0, 16, 17, 9, 19]",5,6,"[2, 10, 12, 13, 18, 25]",123.5608431,5895,484,6,5,8,2.2891022786553017
undo,78,36,0,0,0,2,"[0, 16, 17, 9, 19, 2]",6,3,"[10, 13, 25]",86.43942067,6555,660,2,1,8,1.891101810711848
undo,78,36,0,0,0,25,"[0, 16, 17, 9, 19, 2, 25]",7,1,[13],61.43942067,7179,624,1,0,8,2.0836773189568087
undo,78,36,0,0,1,13,"[0, 16, 17, 9, 19, 2, 25, 13]",8,0,[],40.84816038,12462,5283,1,0,8,2.642206520923964
undo,78,36,0,1,1,13,"[0, 16, 17, 9, 19, 2, 25, 13]",8,0,[],40.84816038,12848,386,1,0,8,2.642206520923964
undo,79,40,0,0,0,0,[0],1,29,"[1, 2, 3, 4, 5, 6, 7, 8, 9, 10, 11, 12, 13, 14, 15, 16, 17, 18, 19, 20, 21, 22, 23, 24, 25, 26, 27, 28, 29]",300,163,-1,8,191,9,0.0
undo,79,40,0,0,0,1,"[0, 1]",2,18,"[2, 5, 6, 7, 8, 9, 10, 11, 13, 15, 17, 18, 19, 21, 22, 23, 27, 29]",247.8463808,8192,8029,4,80,9,1.0
undo,79,40,0,0,0,6,"[0, 1, 6]",3,17,"[2, 5, 7, 8, 9, 10, 11, 13, 15, 17, 18, 19, 21, 22, 23, 27, 29]",227.7466295,9352,1160,4,74,9,1.0459427008232034
undo,79,40,0,0,0,21,"[0, 1, 6, 21]",4,8,"[2, 5, 9, 17, 18, 19, 22, 23]",175.7754837,11227,1875,4,25,9,1.0308822257404064
undo,79,40,0,0,0,9,"[0, 1, 6, 21, 9]",5,6,"[2, 5, 18, 19, 22, 23]",130.0699041,11872,645,4,12,9,1.377861912961129
undo,79,40,0,0,0,18,"[0, 1, 6, 21, 9, 18]",6,5,"[2, 5, 19, 22, 23]",113.5169588,12436,564,4,4,9,1.5742712168661408
undo,79,40,0,0,0,5,"[0, 1, 6, 21, 9, 18, 5]",7,3,"[19, 22, 23]",81.94165198,13502,1066,2,1,9,1.7730665063055515
undo,79,40,0,0,0,23,"[0, 1, 6, 21, 9, 18, 5, 23]",8,1,[19],53.63970859,14187,685,1,0,9,2.597442759912231
undo,79,40,0,0,1,19,"[0, 1, 6, 21, 9, 18, 5, 23, 19]",9,0,[],21.68661797,15350,1163,1,0,9,2.7128328554069565
undo,79,40,0,1,1,19,"[0, 1, 6, 21, 9, 18, 5, 23, 19]",9,0,[],21.68661797,15714,364,1,0,9,2.7128328554069565
undo,80,1,0,0,0,0,[0],1,26,"[1, 2, 4, 5, 7, 8, 9, 10, 11, 12, 13, 14, 15, 16, 17, 18, 19, 20, 21, 22, 23, 24, 25, 26, 28, 29]",300,165,-1,6,74,7,0.0
undo,80,1,0,0,0,20,"[0, 20]",2,13,"[1, 4, 5, 8, 11, 13, 14, 15, 17, 18, 19, 28, 29]",129.961769,2258,2093,2,11,6,1.0
undo,80,1,1,0,0,0,[0],1,26,"[1, 2, 4, 5, 7, 8, 9, 10, 11, 12, 13, 14, 15, 16, 17, 18, 19, 20, 21, 22, 23, 24, 25, 26, 28, 29]",300,4347,2089,6,74,7,0.0
undo,80,1,0,0,0,20,"[0, 20]",2,13,"[1, 4, 5, 8, 11, 13, 14, 15, 17, 18, 19, 28, 29]",129.961769,10568,6221,2,11,6,1.0
undo,80,1,0,0,0,18,"[0, 20, 18]",3,7,"[1, 4, 5, 11, 13, 17, 29]",98.3389924,11613,1045,4,4,5,1.0011597295821082
undo,80,1,0,0,0,4,"[0, 20, 18, 4]",4,2,"[13, 29]",59.39030821,12325,712,2,0,5,1.0194959836807065
