condition,trial_id,map_id,undoIndicator,submit,checkEnd,currentChoice,chosen_all,n_city_all,n_within_reach,cities_reach,currentBudget,time_all,rt_all,n_opt_paths_all,n_subopt_paths_all,mas_all,tortuosity_all
basic,0,41,0,0,0,0,[0],1,29,"[1, 2, 3, 4, 5, 6, 7, 8, 9, 10, 11, 12, 13, 14, 15, 16, 17, 18, 19, 20, 21, 22, 23, 24, 25, 26, 27, 28, 29]",300,190,-1,1,143,10,0.0
basic,0,41,0,0,0,13,"[0, 13]",2,23,"[1, 2, 3, 5, 6, 7, 9, 10, 11, 12, 14, 15, 17, 18, 19, 20, 21, 22, 24, 25, 26, 27, 28]",258.2747079,6340,6150,1,55,10,1.0
basic,0,41,0,0,0,28,"[0, 13, 28]",3,22,"[1, 2, 3, 5, 6, 7, 9, 10, 11, 12, 14, 15, 17, 18, 19, 20, 21, 22, 24, 25, 26, 27]",223.7928286,8033,1693,1,39,10,1.895724242592676
basic,0,41,0,0,0,5,"[0, 13, 28, 5]",4,19,"[1, 2, 3, 6, 9, 10, 11, 12, 14, 15, 17, 18, 19, 20, 21, 22, 24, 25, 27]",210.1913581,8762,729,1,34,10,2.861541269398273
basic,0,41,0,0,0,3,"[0, 13, 28, 5, 3]",5,16,"[1, 2, 6, 9, 10, 12, 14, 17, 18, 19, 20, 21, 22, 24, 25, 27]",175.3632086,10190,1428,1,22,10,3.1455488489005883
basic,0,41,0,0,0,22,"[0, 13, 28, 5, 3, 22]",6,10,"[2, 6, 9, 10, 12, 17, 18, 20, 21, 25]",145.3965604,11746,1556,1,7,10,2.241807041008432
basic,0,41,0,0,0,21,"[0, 13, 28, 5, 3, 22, 21]",7,4,"[2, 9, 12, 17]",94.39656044,13396,1650,1,5,10,4.206513633906409
basic,0,41,0,0,0,9,"[0, 13, 28, 5, 3, 22, 21, 9]",8,2,"[2, 17]",45.03058025,16217,2821,1,1,10,3.098343902653451
basic,0,41,0,0,0,2,"[0, 13, 28, 5, 3, 22, 21, 9, 2]",9,1,[17],32.94753428,17330,1113,1,0,10,2.9516218867624824
basic,0,41,0,0,1,17,"[0, 13, 28, 5, 3, 22, 21, 9, 2, 17]",10,0,[],0.389893085,21099,3769,1,0,10,4.726628762010198
basic,0,41,0,1,1,17,"[0, 13, 28, 5, 3, 22, 21, 9, 2, 17]",10,0,[],0.389893085,22656,1557,1,0,10,4.726628762010198
basic,1,1,0,0,0,0,[0],1,26,"[1, 2, 4, 5, 7, 8, 9, 10, 11, 12, 13, 14, 15, 16, 17, 18, 19, 20, 21, 22, 23, 24, 25, 26, 28, 29]",300,174,-1,6,74,7,0.0
basic,1,1,0,0,0,14,"[0, 14]",2,19,"[1, 4, 5, 8, 9, 13, 15, 17, 18, 19, 20, 21, 22, 23, 24, 25, 26, 28, 29]",200.1901808,7145,6971,5,42,7,1.0
basic,1,1,0,0,0,17,"[0, 14, 17]",3,15,"[1, 4, 5, 8, 9, 13, 15, 18, 19, 20, 22, 23, 25, 28, 29]",147.8356204,8223,1078,5,27,7,1.0028844724416826
basic,1,1,0,0,0,1,"[0, 14, 17, 1]",4,12,"[4, 5, 8, 9, 15, 18, 20, 22, 23, 25, 28, 29]",123.4840291,9261,1038,5,15,7,1.0264985578353567
basic,1,1,0,0,0,28,"[0, 14, 17, 1, 28]",5,5,"[9, 15, 22, 23, 29]",88.59850198,11582,2321,5,3,7,1.0339861575999345
basic,1,1,0,0,0,15,"[0, 14, 17, 1, 28, 15]",6,3,"[22, 23, 29]",53.37067208,16061,4479,3,0,7,1.055553419196412
basic,1,1,0,0,1,23,"[0, 14, 17, 1, 28, 15, 23]",7,0,[],22.48378165,16917,856,1,0,7,1.1542953231038533
basic,1,1,0,1,1,23,"[0, 14, 17, 1, 28, 15, 23]",7,0,[],22.48378165,19424,2507,1,0,7,1.1542953231038533
basic,2,7,0,0,0,0,[0],1,29,"[1, 2, 3, 4, 5, 6, 7, 8, 9, 10, 11, 12, 13, 14, 15, 16, 17, 18, 19, 20, 21, 22, 23, 24, 25, 26, 27, 28, 29]",300,168,-1,3,79,9,0.0
basic,2,7,0,0,0,15,"[0, 15]",2,19,"[2, 4, 5, 6, 7, 8, 9, 10, 13, 14, 16, 18, 19, 20, 21, 23, 25, 27, 28]",230.9348134,4581,4413,2,38,9,1.0
basic,2,7,0,0,0,6,"[0, 15, 6]",3,18,"[2, 4, 5, 7, 8, 9, 10, 13, 14, 16, 18, 19, 20, 21, 23, 25, 27, 28]",205.854941,6074,1493,2,36,9,1.366719602896943
basic,2,7,0,0,0,25,"[0, 15, 6, 25]",4,11,"[2, 4, 7, 13, 14, 16, 18, 19, 20, 21, 23]",138.6760753,7085,1011,2,28,9,1.3624631728355765
basic,2,7,0,0,0,4,"[0, 15, 6, 25, 4]",5,7,"[2, 7, 13, 16, 18, 19, 20]",113.9374415,10090,3005,2,12,9,1.3249684384385587
basic,2,7,0,0,0,20,"[0, 15, 6, 25, 4, 20]",6,5,"[2, 7, 13, 18, 19]",94.29055881,11630,1540,1,6,9,1.3721893242679268
basic,2,7,0,0,0,18,"[0, 15, 6, 25, 4, 20, 18]",7,3,"[7, 13, 19]",81.48431034,12684,1054,1,2,9,1.5262542308371432
basic,2,7,0,0,0,7,"[0, 15, 6, 25, 4, 20, 18, 7]",8,1,[19],40.25325408,14163,1479,1,0,9,1.41986878673423
basic,2,7,0,0,1,19,"[0, 15, 6, 25, 4, 20, 18, 7, 19]",9,0,[],10.84237174,15738,1575,1,0,9,1.5285658163212987
basic,2,7,0,1,1,19,"[0, 15, 6, 25, 4, 20, 18, 7, 19]",9,0,[],10.84237174,17345,1607,1,0,9,1.5285658163212987
basic,3,4,0,0,0,0,[0],1,26,"[3, 4, 5, 6, 7, 8, 10, 11, 12, 13, 14, 15, 16, 17, 18, 19, 20, 21, 22, 23, 24, 25, 26, 27, 28, 29]",300,159,-1,4,489,10,0.0
basic,3,4,0,0,0,28,"[0, 28]",2,21,"[3, 4, 5, 6, 10, 11, 12, 13, 14, 15, 16, 17, 19, 20, 21, 22, 23, 24, 25, 26, 27]",225.9392142,2785,2626,2,216,10,1.0
basic,3,4,0,0,0,11,"[0, 28, 11]",3,16,"[3, 4, 5, 6, 12, 13, 14, 16, 17, 20, 21, 22, 23, 24, 25, 26]",177.0618165,4930,2145,1,99,10,1.0005230107421244
basic,3,4,0,0,0,16,"[0, 28, 11, 16]",4,13,"[3, 4, 5, 6, 12, 13, 14, 17, 20, 21, 22, 24, 25]",162.0618165,6046,1116,38,165,9,1.0006824277240565
basic,3,4,0,0,0,17,"[0, 28, 11, 16, 17]",5,12,"[3, 4, 5, 6, 12, 13, 14, 20, 21, 22, 24, 25]",135.9850069,7195,1149,9,39,9,1.000593778858539
basic,3,4,0,0,0,3,"[0, 28, 11, 16, 17, 3]",6,6,"[5, 14, 20, 21, 22, 25]",111.4697056,9219,2024,2,7,9,1.0809398822985845
basic,3,4,0,0,0,25,"[0, 28, 11, 16, 17, 3, 25]",7,2,"[14, 21]",63.8356841,10699,1480,2,0,8,1.8623347670158499
basic,3,4,0,0,1,14,"[0, 28, 11, 16, 17, 3, 25, 14]",8,0,[],47.7111686,12099,1400,1,0,8,1.8474396090183274
basic,3,4,0,1,1,14,"[0, 28, 11, 16, 17, 3, 25, 14]",8,0,[],47.7111686,14078,1979,1,0,8,1.8474396090183274
basic,4,14,0,0,0,0,[0],1,29,"[1, 2, 3, 4, 5, 6, 7, 8, 9, 10, 11, 12, 13, 14, 15, 16, 17, 18, 19, 20, 21, 22, 23, 24, 25, 26, 27, 28, 29]",300,189,-1,8,157,10,0.0
basic,4,14,0,0,0,15,"[0, 15]",2,20,"[1, 2, 3, 4, 7, 8, 9, 13, 17, 18, 19, 20, 21, 22, 23, 25, 26, 27, 28, 29]",216.7053423,5891,5702,8,102,10,1.0
basic,4,14,0,0,0,28,"[0, 15, 28]",3,17,"[1, 2, 3, 4, 7, 8, 9, 13, 17, 18, 19, 20, 22, 23, 25, 26, 27]",197.4959696,6874,983,8,48,10,1.0446007867311968
basic,4,14,0,0,0,17,"[0, 15, 28, 17]",4,14,"[1, 2, 3, 4, 7, 8, 13, 18, 19, 20, 22, 23, 25, 26]",184.0423455,7738,864,8,39,10,1.0729463354689972
basic,4,14,0,0,0,18,"[0, 15, 28, 17, 18]",5,9,"[1, 2, 4, 7, 8, 19, 23, 25, 26]",119.412631,9549,1811,8,27,10,1.5035901079219378
basic,4,14,0,0,0,8,"[0, 15, 28, 17, 18, 8]",6,8,"[1, 2, 4, 7, 19, 23, 25, 26]",105.8111605,11105,1556,8,18,10,1.4819689987843856
basic,4,14,0,0,0,1,"[0, 15, 28, 17, 18, 8, 1]",7,5,"[7, 19, 23, 25, 26]",82.21031307,12769,1664,4,6,10,1.4084991998385268
basic,4,14,0,0,0,19,"[0, 15, 28, 17, 18, 8, 1, 19]",8,4,"[7, 23, 25, 26]",66.97876686,14009,1240,4,1,10,1.5758713333797987
basic,4,14,0,0,0,25,"[0, 15, 28, 17, 18, 8, 1, 19, 25]",9,2,"[7, 23]",31.1318702,16403,2394,2,0,10,1.6426186864061416
basic,4,14,0,0,1,7,"[0, 15, 28, 17, 18, 8, 1, 19, 25, 7]",10,0,[],11.4341546,17751,1348,1,0,10,1.652323224159132
basic,4,14,0,1,1,7,"[0, 15, 28, 17, 18, 8, 1, 19, 25, 7]",10,0,[],11.4341546,19247,1496,1,0,10,1.652323224159132
basic,5,21,0,0,0,0,[0],1,29,"[1, 2, 3, 4, 5, 6, 7, 8, 9, 10, 11, 12, 13, 14, 15, 16, 17, 18, 19, 20, 21, 22, 23, 24, 25, 26, 27, 28, 29]",300,190,-1,84,830,9,0.0
basic,5,21,0,0,0,21,"[0, 21]",2,22,"[1, 3, 4, 6, 8, 9, 10, 11, 12, 14, 15, 16, 17, 18, 20, 22, 23, 24, 25, 26, 27, 29]",210.1111798,3616,3426,1,69,9,1.0
basic,5,21,0,0,0,14,"[0, 21, 14]",3,15,"[1, 4, 6, 8, 9, 15, 16, 17, 18, 20, 22, 23, 24, 25, 29]",184.4986828,5005,1389,35,96,8,1.0083702391721483
basic,5,21,0,0,0,4,"[0, 21, 14, 4]",4,13,"[1, 8, 9, 15, 16, 17, 18, 20, 22, 23, 24, 25, 29]",170.3565472,6145,1140,20,39,8,1.0135821167776475
basic,5,21,0,0,0,16,"[0, 21, 14, 4, 16]",5,7,"[8, 15, 17, 23, 24, 25, 29]",125.758341,8618,2473,4,6,8,1.0675217597413178
basic,5,21,0,0,0,8,"[0, 21, 14, 4, 16, 8]",6,3,"[15, 23, 24]",107.1572657,9869,1251,3,1,8,1.0643903127717425
basic,5,21,0,0,0,15,"[0, 21, 14, 4, 16, 8, 15]",7,2,"[23, 24]",82.15726573,11184,1315,2,0,8,1.29402645910376
basic,5,21,0,0,1,23,"[0, 21, 14, 4, 16, 8, 15, 23]",8,0,[],10.28933129,14669,3485,1,0,8,2.9257734162199216
basic,5,21,0,1,1,23,"[0, 21, 14, 4, 16, 8, 15, 23]",8,0,[],10.28933129,16177,1508,1,0,8,2.9257734162199216
basic,6,11,0,0,0,0,[0],1,25,"[1, 2, 3, 4, 5, 6, 8, 9, 10, 11, 12, 13, 14, 15, 16, 17, 18, 19, 20, 22, 23, 25, 26, 27, 28]",300,171,-1,6,374,12,0.0
basic,6,11,0,0,0,17,"[0, 17]",2,18,"[1, 2, 4, 5, 6, 8, 10, 11, 12, 15, 18, 19, 22, 23, 25, 26, 27, 28]",152.9217895,3719,3548,218,762,9,1.0
basic,6,11,0,0,0,8,"[0, 17, 8]",3,15,"[1, 2, 4, 5, 6, 11, 12, 15, 18, 19, 22, 23, 25, 27, 28]",138.6039684,5855,2136,95,263,9,1.1114912532636003
basic,6,11,0,0,0,15,"[0, 17, 8, 15]",4,11,"[2, 5, 6, 11, 12, 18, 19, 22, 25, 27, 28]",125.1503444,6799,944,62,51,9,1.1146194627724886
basic,6,11,0,0,0,11,"[0, 17, 8, 15, 11]",5,9,"[2, 5, 6, 12, 19, 22, 25, 27, 28]",107.0395741,7465,666,24,2,9,1.1130192047684102
basic,6,11,0,0,0,5,"[0, 17, 8, 15, 11, 5]",6,3,"[2, 22, 28]",71.81174422,10035,2570,6,0,9,1.4025699235927704
basic,6,11,0,0,0,28,"[0, 17, 8, 15, 11, 5, 28]",7,2,"[2, 22]",53.9232004,11315,1280,2,0,9,1.4240278930738877
basic,6,11,0,0,0,2,"[0, 17, 8, 15, 11, 5, 28, 2]",8,1,[22],43.29305459,12185,870,1,0,9,1.4382300715269383
basic,6,11,0,0,1,22,"[0, 17, 8, 15, 11, 5, 28, 2, 22]",9,0,[],33.24317897,13223,1038,1,0,9,1.41490171814945
basic,6,11,0,1,1,22,"[0, 17, 8, 15, 11, 5, 28, 2, 22]",9,0,[],33.24317897,15115,1892,1,0,9,1.41490171814945
basic,7,35,0,0,0,0,[0],1,29,"[1, 2, 3, 4, 5, 6, 7, 8, 9, 10, 11, 12, 13, 14, 15, 16, 17, 18, 19, 20, 21, 22, 23, 24, 25, 26, 27, 28, 29]",300,162,-1,5,236,11,0.0
basic,7,35,0,0,0,27,"[0, 27]",2,27,"[1, 2, 4, 5, 6, 7, 8, 9, 10, 11, 12, 13, 14, 15, 16, 17, 18, 19, 20, 21, 22, 23, 24, 25, 26, 28, 29]",278.7867966,11257,11095,5,144,11,1.0
basic,7,35,0,0,0,24,"[0, 27, 24]",3,25,"[1, 2, 4, 5, 6, 7, 8, 9, 10, 11, 12, 13, 15, 16, 17, 18, 19, 20, 21, 22, 23, 25, 26, 28, 29]",234.6053525,12331,1074,3,80,11,2.1084080567904624
basic,7,35,0,0,0,17,"[0, 27, 24, 17]",4,20,"[1, 2, 4, 5, 6, 7, 8, 9, 10, 15, 16, 18, 19, 20, 21, 23, 25, 26, 28, 29]",222.9006526,12951,620,3,50,11,1.9439555968916868
basic,7,35,0,0,0,1,"[0, 27, 24, 17, 1]",5,18,"[2, 4, 5, 6, 8, 9, 10, 15, 16, 18, 19, 20, 21, 23, 25, 26, 28, 29]",207.0892643,14314,1363,3,39,11,1.9436711872547336
basic,7,35,0,0,0,15,"[0, 27, 24, 17, 1, 15]",6,16,"[2, 4, 5, 6, 8, 9, 10, 16, 18, 19, 20, 23, 25, 26, 28, 29]",184.241945,15401,1087,3,24,11,2.082774572108194
basic,7,35,0,0,0,23,"[0, 27, 24, 17, 1, 15, 23]",7,7,"[5, 6, 9, 18, 19, 25, 26]",123.801892,18464,3063,3,14,11,1.657239080954205
basic,7,35,0,0,0,9,"[0, 27, 24, 17, 1, 15, 23, 9]",8,4,"[6, 18, 19, 25]",86.15883157,20007,1543,2,2,11,1.9022575917054987
basic,7,35,0,0,0,18,"[0, 27, 24, 17, 1, 15, 23, 9, 18]",9,2,"[6, 25]",66.13384718,20889,882,2,0,11,1.8181129550839106
basic,7,35,0,0,0,25,"[0, 27, 24, 17, 1, 15, 23, 9, 18, 25]",10,1,[6],32.29599855,22170,1281,1,0,11,1.6530923432245144
basic,7,35,0,0,1,6,"[0, 27, 24, 17, 1, 15, 23, 9, 18, 25, 6]",11,0,[],8.275174247,24299,2129,1,0,11,1.9291202388527962
basic,7,35,0,1,1,6,"[0, 27, 24, 17, 1, 15, 23, 9, 18, 25, 6]",11,0,[],8.275174247,25346,1047,1,0,11,1.9291202388527962
basic,8,27,0,0,0,0,[0],1,26,"[1, 3, 5, 6, 7, 8, 9, 10, 11, 12, 13, 14, 15, 16, 17, 18, 19, 21, 22, 23, 24, 25, 26, 27, 28, 29]",300,198,-1,13,578,11,0.0
basic,8,27,0,0,0,15,"[0, 15]",2,24,"[1, 3, 5, 6, 7, 8, 9, 10, 11, 12, 13, 14, 16, 17, 18, 19, 21, 22, 23, 24, 25, 26, 27, 29]",263.7508621,4585,4387,6,219,11,1.0
basic,8,27,0,0,0,24,"[0, 15, 24]",3,20,"[1, 5, 6, 7, 8, 9, 10, 12, 13, 14, 16, 17, 18, 19, 21, 23, 25, 26, 27, 29]",246.5462115,5635,1050,6,130,11,1.130933077698322
basic,8,27,0,0,0,17,"[0, 15, 24, 17]",4,15,"[1, 6, 8, 10, 12, 13, 14, 16, 18, 19, 23, 25, 26, 27, 29]",229.9932662,7001,1366,4,60,11,1.1285538435963374
basic,8,27,0,0,0,12,"[0, 15, 24, 17, 12]",5,14,"[1, 6, 8, 10, 13, 14, 16, 18, 19, 23, 25, 26, 27, 29]",218.8129263,8297,1296,2,32,11,1.2561880288755216
basic,8,27,0,0,0,10,"[0, 15, 24, 17, 12, 10]",6,11,"[1, 8, 13, 14, 18, 19, 23, 25, 26, 27, 29]",207.7675653,10305,2008,2,28,11,1.2228289337766665
basic,8,27,0,0,0,13,"[0, 15, 24, 17, 12, 10, 13]",7,9,"[1, 8, 14, 18, 19, 23, 26, 27, 29]",167.9178476,11937,1632,2,18,11,1.3421291994761178
basic,8,27,0,0,0,19,"[0, 15, 24, 17, 12, 10, 13, 19]",8,5,"[1, 8, 14, 23, 29]",131.6825057,14964,3027,2,6,11,1.294749956153846
basic,8,27,0,0,0,8,"[0, 15, 24, 17, 12, 10, 13, 19, 8]",9,3,"[14, 23, 29]",116.816437,15922,958,2,1,11,1.3554286578836865
basic,8,27,0,0,0,29,"[0, 15, 24, 17, 12, 10, 13, 19, 8, 29]",10,1,[14],57.61339652,20426,4504,1,0,11,1.248354519573802
basic,8,27,0,0,1,14,"[0, 15, 24, 17, 12, 10, 13, 19, 8, 29, 14]",11,0,[],13.31892734,22565,2139,1,0,11,1.562811097555156
basic,8,27,0,1,1,14,"[0, 15, 24, 17, 12, 10, 13, 19, 8, 29, 14]",11,0,[],13.31892734,24212,1647,1,0,11,1.562811097555156
basic,9,37,0,0,0,0,[0],1,29,"[1, 2, 3, 4, 5, 6, 7, 8, 9, 10, 11, 12, 13, 14, 15, 16, 17, 18, 19, 20, 21, 22, 23, 24, 25, 26, 27, 28, 29]",300,191,-1,6,168,10,0.0
basic,9,37,0,0,0,19,"[0, 19]",2,19,"[1, 2, 4, 5, 6, 7, 9, 10, 11, 15, 17, 18, 20, 21, 22, 25, 26, 28, 29]",185.6627795,4689,4498,25,244,9,1.0
basic,9,37,0,0,0,21,"[0, 19, 21]",3,14,"[1, 2, 4, 7, 10, 11, 15, 17, 18, 20, 22, 25, 26, 29]",144.5531699,7022,2333,10,75,9,1.001632816594558
basic,9,37,0,0,0,15,"[0, 19, 21, 15]",4,9,"[1, 2, 4, 7, 18, 20, 22, 26, 29]",129.5531699,7946,924,5,32,9,1.0243376499143988
basic,9,37,0,0,0,20,"[0, 19, 21, 15, 20]",5,8,"[1, 2, 4, 7, 18, 22, 26, 29]",112.5531699,9500,1554,5,14,9,1.250507291508492
basic,9,37,0,0,0,1,"[0, 19, 21, 15, 20, 1]",6,6,"[2, 4, 7, 18, 22, 26]",78.31868434,12006,2506,4,4,9,1.4002166443864243
basic,9,37,0,0,0,2,"[0, 19, 21, 15, 20, 1, 2]",7,4,"[4, 7, 18, 22]",61.11403381,15088,3082,2,2,9,1.5802253600182588
basic,9,37,0,0,0,4,"[0, 19, 21, 15, 20, 1, 2, 4]",8,1,[22],49.71227956,17192,2104,1,0,9,1.5399187067712754
basic,9,37,0,0,1,22,"[0, 19, 21, 15, 20, 1, 2, 4, 22]",9,0,[],24.71227956,18379,1187,1,0,9,1.6903775033413582
basic,9,37,0,1,1,22,"[0, 19, 21, 15, 20, 1, 2, 4, 22]",9,0,[],24.71227956,19645,1266,1,0,9,1.6903775033413582
basic,10,8,0,0,0,0,[0],1,29,"[1, 2, 3, 4, 5, 6, 7, 8, 9, 10, 11, 12, 13, 14, 15, 16, 17, 18, 19, 20, 21, 22, 23, 24, 25, 26, 27, 28, 29]",300,198,-1,10,149,9,0.0
basic,10,8,0,0,0,5,"[0, 5]",2,28,"[1, 2, 3, 4, 6, 7, 8, 9, 10, 11, 12, 13, 14, 15, 16, 17, 18, 19, 20, 21, 22, 23, 24, 25, 26, 27, 28, 29]",254.5137383,4773,4575,10,100,9,1.0
basic,10,8,0,0,0,14,"[0, 5, 14]",3,20,"[1, 2, 3, 4, 6, 7, 11, 15, 16, 17, 18, 19, 20, 21, 22, 23, 24, 25, 28, 29]",214.5512559,5704,931,4,36,9,1.0001019035932595
basic,10,8,0,0,0,25,"[0, 5, 14, 25]",4,16,"[1, 3, 4, 6, 11, 15, 16, 17, 18, 20, 21, 22, 23, 24, 28, 29]",169.4513668,6848,1144,9,37,8,1.8918105093907904
basic,10,8,0,0,0,1,"[0, 5, 14, 25, 1]",5,12,"[3, 4, 6, 11, 16, 17, 18, 20, 21, 22, 23, 28]",144.4513668,8352,1504,6,17,8,1.669095890814316
basic,10,8,0,0,0,23,"[0, 5, 14, 25, 1, 23]",6,7,"[3, 4, 6, 17, 18, 21, 28]",121.4296379,9319,967,4,5,8,1.5366044444966092
basic,10,8,0,0,0,4,"[0, 5, 14, 25, 1, 23, 4]",7,1,[18],72.0940524,10581,1262,1,0,8,1.396515030942015
basic,10,8,0,0,1,18,"[0, 5, 14, 25, 1, 23, 4, 18]",8,0,[],29.08242606,11902,1321,1,0,8,2.0495260345137836
basic,10,8,0,1,1,18,"[0, 5, 14, 25, 1, 23, 4, 18]",8,0,[],29.08242606,13397,1495,1,0,8,2.0495260345137836
basic,11,39,0,0,0,0,[0],1,28,"[1, 2, 3, 4, 5, 6, 7, 9, 10, 11, 12, 13, 14, 15, 16, 17, 18, 19, 20, 21, 22, 23, 24, 25, 26, 27, 28, 29]",300,165,-1,1,30,10,0.0
basic,11,39,0,0,0,29,"[0, 29]",2,26,"[1, 2, 3, 4, 5, 6, 7, 9, 10, 12, 13, 14, 15, 16, 17, 18, 19, 20, 21, 22, 23, 24, 25, 26, 27, 28]",243.0614366,5118,4953,8,104,9,1.0
basic,11,39,0,0,0,12,"[0, 29, 12]",3,18,"[1, 2, 4, 5, 7, 9, 10, 13, 14, 15, 16, 18, 19, 22, 23, 24, 26, 28]",182.5221931,6552,1434,5,54,9,1.0026200331524904
basic,11,39,0,0,0,10,"[0, 29, 12, 10]",4,16,"[1, 2, 4, 5, 7, 9, 13, 14, 15, 16, 18, 19, 22, 23, 24, 26]",147.0116313,7654,1102,5,34,9,1.2874817019928908
basic,11,39,0,0,0,7,"[0, 29, 12, 10, 7]",5,10,"[1, 2, 5, 13, 16, 18, 19, 22, 24, 26]",113.5900814,8606,952,4,12,9,1.2250826263866774
basic,11,39,0,0,0,26,"[0, 29, 12, 10, 7, 26]",6,5,"[1, 16, 18, 19, 22]",94.90853971,9469,863,3,4,9,1.2697275353190085
basic,11,39,0,0,0,22,"[0, 29, 12, 10, 7, 26, 22]",7,2,"[16, 19]",77.18849457,10415,946,2,0,9,1.438961743955176
basic,11,39,0,0,0,16,"[0, 29, 12, 10, 7, 26, 22, 16]",8,1,[19],42.18849457,12006,1591,1,0,9,1.3580882130477205
basic,11,39,0,0,1,19,"[0, 29, 12, 10, 7, 26, 22, 16, 19]",9,0,[],24.72424537,13358,1352,1,0,9,1.3646589157842668
basic,11,39,0,1,1,19,"[0, 29, 12, 10, 7, 26, 22, 16, 19]",9,0,[],24.72424537,15327,1969,1,0,9,1.3646589157842668
basic,12,18,0,0,0,0,[0],1,28,"[1, 2, 3, 4, 5, 6, 7, 8, 9, 10, 11, 12, 13, 14, 16, 17, 18, 19, 20, 21, 22, 23, 24, 25, 26, 27, 28, 29]",300,192,-1,3,136,10,0.0
basic,12,18,0,0,0,28,"[0, 28]",2,16,"[1, 3, 5, 7, 8, 9, 12, 13, 14, 16, 20, 23, 24, 25, 26, 27]",236.4311397,3091,2899,2,19,10,1.0
basic,12,18,0,0,0,7,"[0, 28, 7]",3,15,"[1, 3, 5, 8, 9, 12, 13, 14, 16, 20, 23, 24, 25, 26, 27]",214.4084242,4162,1071,2,17,10,1.4345180696367563
basic,12,18,0,0,0,25,"[0, 28, 7, 25]",4,13,"[1, 3, 5, 8, 9, 12, 13, 14, 16, 20, 23, 26, 27]",186.6055466,5606,1444,2,15,10,1.8896451241781882
basic,12,18,0,0,0,13,"[0, 28, 7, 25, 13]",5,10,"[3, 5, 8, 9, 12, 14, 16, 23, 26, 27]",141.3286209,7789,2183,5,21,9,1.6878978848273398
basic,12,18,0,0,0,14,"[0, 28, 7, 25, 13, 14]",6,8,"[3, 5, 8, 9, 12, 23, 26, 27]",122.354955,8578,789,3,7,9,1.584538278883837
basic,12,18,0,0,0,8,"[0, 28, 7, 25, 13, 14, 8]",7,3,"[3, 5, 23]",88.75435972,9835,1257,1,2,9,2.2331853335907565
basic,12,18,0,0,0,3,"[0, 28, 7, 25, 13, 14, 8, 3]",8,1,[5],60.68302202,10828,993,1,0,9,1.9555800330994786
basic,12,18,0,0,1,5,"[0, 28, 7, 25, 13, 14, 8, 3, 5]",9,0,[],2.502269193,13607,2779,1,0,9,1.6644939127114788
basic,12,18,0,1,1,5,"[0, 28, 7, 25, 13, 14, 8, 3, 5]",9,0,[],2.502269193,15367,1760,1,0,9,1.6644939127114788
basic,13,10,0,0,0,0,[0],1,29,"[1, 2, 3, 4, 5, 6, 7, 8, 9, 10, 11, 12, 13, 14, 15, 16, 17, 18, 19, 20, 21, 22, 23, 24, 25, 26, 27, 28, 29]",300,164,-1,1,100,9,0.0
basic,13,10,0,0,0,13,"[0, 13]",2,25,"[1, 2, 3, 4, 6, 7, 8, 9, 10, 11, 12, 14, 17, 18, 19, 20, 21, 22, 23, 24, 25, 26, 27, 28, 29]",249.4628849,4472,4308,1,79,9,1.0
basic,13,10,0,0,0,11,"[0, 13, 11]",3,20,"[1, 2, 3, 6, 7, 8, 9, 10, 12, 14, 18, 19, 20, 21, 22, 24, 26, 27, 28, 29]",206.4512586,5853,1381,1,54,9,1.0313137484914219
basic,13,10,0,0,0,19,"[0, 13, 11, 19]",4,11,"[2, 6, 8, 9, 10, 14, 18, 20, 24, 26, 27]",170.0919407,6962,1109,1,22,9,1.0879446220132545
basic,13,10,0,0,0,2,"[0, 13, 11, 19, 2]",5,4,"[14, 20, 26, 27]",126.1829439,8288,1326,1,4,9,1.06474052351343
basic,13,10,0,0,0,14,"[0, 13, 11, 19, 2, 14]",6,3,"[20, 26, 27]",114.0174188,9114,826,1,3,9,1.1628909195912238
basic,13,10,0,0,0,26,"[0, 13, 11, 19, 2, 14, 26]",7,2,"[20, 27]",79.34754716,9864,750,1,1,9,1.6660727647633602
basic,13,10,0,0,0,20,"[0, 13, 11, 19, 2, 14, 26, 20]",8,1,[27],47.56704999,10640,776,1,0,9,2.085581809637999
basic,13,10,0,0,1,27,"[0, 13, 11, 19, 2, 14, 26, 20, 27]",9,0,[],2.312215998,12320,1680,1,0,9,1.9116357409137932
basic,13,10,0,1,1,27,"[0, 13, 11, 19, 2, 14, 26, 20, 27]",9,0,[],2.312215998,13913,1593,1,0,9,1.9116357409137932
basic,14,15,0,0,0,0,[0],1,25,"[1, 2, 3, 4, 7, 8, 9, 10, 11, 12, 13, 14, 15, 16, 18, 20, 21, 22, 23, 24, 25, 26, 27, 28, 29]",300,185,-1,4,65,9,0.0
basic,14,15,0,0,0,16,"[0, 16]",2,16,"[3, 4, 7, 9, 10, 11, 12, 13, 14, 15, 18, 20, 21, 22, 25, 27]",185.8378346,8118,7933,22,104,7,1.0
basic,14,15,0,0,0,11,"[0, 16, 11]",3,13,"[3, 4, 7, 10, 12, 13, 14, 15, 18, 21, 22, 25, 27]",159.818611,10364,2246,10,29,7,1.1289542380807378
basic,14,15,0,0,0,3,"[0, 16, 11, 3]",4,12,"[4, 7, 10, 12, 13, 14, 15, 18, 21, 22, 25, 27]",148.4168567,11738,1374,10,12,7,1.14507593159006
basic,14,15,0,0,0,22,"[0, 16, 11, 3, 22]",5,6,"[4, 10, 13, 14, 15, 18]",98.68758969,14252,2514,4,4,7,1.1668569176120651
basic,14,15,0,0,0,15,"[0, 16, 11, 3, 22, 15]",6,2,"[13, 14]",73.07509274,15364,1112,2,0,7,1.1555413708932987
basic,14,15,0,0,1,13,"[0, 16, 11, 3, 22, 15, 13]",7,0,[],57.81075522,16453,1089,1,0,7,1.2088928499419171
basic,14,15,0,1,1,13,"[0, 16, 11, 3, 22, 15, 13]",7,0,[],57.81075522,27097,10644,1,0,7,1.2088928499419171
basic,15,17,0,0,0,0,[0],1,28,"[1, 2, 3, 4, 5, 6, 7, 8, 9, 10, 11, 12, 13, 14, 15, 16, 17, 18, 19, 20, 22, 23, 24, 25, 26, 27, 28, 29]",300,194,-1,2,73,8,0.0
basic,15,17,0,0,0,9,"[0, 9]",2,25,"[1, 2, 3, 5, 6, 7, 8, 10, 11, 12, 14, 15, 16, 17, 18, 19, 20, 22, 23, 24, 25, 26, 27, 28, 29]",210.5293344,5102,4908,1,34,8,1.0
basic,15,17,0,0,0,16,"[0, 9, 16]",3,21,"[1, 2, 3, 5, 7, 8, 10, 11, 12, 14, 17, 18, 19, 20, 22, 23, 25, 26, 27, 28, 29]",197.1876704,6381,1279,1,26,8,1.173103464220352
basic,15,17,0,0,0,2,"[0, 9, 16, 2]",4,18,"[1, 3, 5, 7, 8, 10, 11, 12, 14, 17, 18, 19, 23, 25, 26, 27, 28, 29]",181.0631549,7500,1119,1,23,8,1.14825089247282
basic,15,17,0,0,0,17,"[0, 9, 16, 2, 17]",5,7,"[7, 8, 12, 14, 26, 27, 29]",142.7356191,9507,2007,4,5,7,1.4896040699768547
basic,15,17,0,0,0,8,"[0, 9, 16, 2, 17, 8]",6,3,"[7, 12, 27]",104.5256727,11084,1577,3,0,7,1.4604726966175894
basic,15,17,0,0,1,27,"[0, 9, 16, 2, 17, 8, 27]",7,0,[],21.88790895,13150,2066,1,0,7,1.2949460667276491
basic,15,17,0,1,1,27,"[0, 9, 16, 2, 17, 8, 27]",7,0,[],21.88790895,14279,1129,1,0,7,1.2949460667276491
basic,16,13,0,0,0,0,[0],1,29,"[1, 2, 3, 4, 5, 6, 7, 8, 9, 10, 11, 12, 13, 14, 15, 16, 17, 18, 19, 20, 21, 22, 23, 24, 25, 26, 27, 28, 29]",300,216,-1,60,2676,11,0.0
basic,16,13,0,0,0,24,"[0, 24]",2,28,"[1, 2, 3, 4, 5, 6, 7, 8, 9, 10, 11, 12, 13, 14, 15, 16, 17, 18, 19, 20, 21, 22, 23, 25, 26, 27, 28, 29]",288.8196601,7306,7090,16,1444,11,1.0
basic,16,13,0,0,0,28,"[0, 24, 28]",3,23,"[1, 2, 3, 4, 6, 7, 8, 9, 10, 11, 12, 13, 15, 16, 17, 19, 20, 21, 22, 23, 26, 27, 29]",222.5324064,8709,1403,8,243,11,1.0513810491680837
basic,16,13,0,0,0,2,"[0, 24, 28, 2]",4,19,"[1, 3, 4, 6, 7, 9, 11, 12, 13, 15, 16, 17, 19, 20, 21, 23, 26, 27, 29]",184.889346,10372,1663,7,110,11,1.050374132001543
basic,16,13,0,0,0,29,"[0, 24, 28, 2, 29]",5,18,"[1, 3, 4, 6, 7, 9, 11, 12, 13, 15, 16, 17, 19, 20, 21, 23, 26, 27]",173.1846461,12384,2012,7,85,11,1.1393409619120594
basic,16,13,0,0,0,7,"[0, 24, 28, 2, 29, 7]",6,17,"[1, 3, 4, 6, 9, 11, 12, 13, 15, 16, 17, 19, 20, 21, 23, 26, 27]",157.9203086,13827,1443,5,45,11,1.349777315111579
basic,16,13,0,0,0,26,"[0, 24, 28, 2, 29, 7, 26]",7,16,"[1, 3, 4, 6, 9, 11, 12, 13, 15, 16, 17, 19, 20, 21, 23, 27]",147.480002,14600,773,5,25,11,1.5942082773824946
basic,16,13,0,0,0,6,"[0, 24, 28, 2, 29, 7, 26, 6]",8,12,"[1, 3, 4, 11, 13, 15, 16, 17, 19, 20, 23, 27]",127.3802508,16011,1411,4,12,11,1.5898347940840756
basic,16,13,0,0,0,11,"[0, 24, 28, 2, 29, 7, 26, 6, 11]",9,6,"[1, 13, 15, 16, 17, 23]",108.2752776,16982,971,3,4,11,1.5029953945561012
basic,16,13,0,0,0,17,"[0, 24, 28, 2, 29, 7, 26, 6, 11, 17]",10,1,[13],36.68617231,24189,7207,1,0,11,1.324993060397683
basic,16,13,0,0,1,13,"[0, 24, 28, 2, 29, 7, 26, 6, 11, 17, 13]",11,0,[],3.309533775,27472,3283,1,0,11,1.6349870606446535
basic,16,13,0,1,1,13,"[0, 24, 28, 2, 29, 7, 26, 6, 11, 17, 13]",11,0,[],3.309533775,30800,3328,1,0,11,1.6349870606446535
basic,17,20,0,0,0,0,[0],1,21,"[1, 2, 3, 4, 5, 6, 7, 8, 9, 12, 17, 18, 20, 21, 22, 23, 25, 26, 27, 28, 29]",300,184,-1,1,9,9,0.0
basic,17,20,0,0,0,12,"[0, 12]",2,20,"[1, 2, 3, 4, 5, 6, 7, 8, 9, 17, 18, 20, 21, 22, 23, 25, 26, 27, 28, 29]",271.5570747,6300,6116,1,8,9,1.0
basic,17,20,0,0,0,1,"[0, 12, 1]",3,12,"[3, 4, 5, 6, 8, 9, 20, 21, 23, 27, 28, 29]",189.5692707,7178,878,1,6,9,1.0757997779162911
basic,17,20,0,0,0,5,"[0, 12, 1, 5]",4,10,"[4, 6, 8, 9, 20, 21, 23, 27, 28, 29]",152.8950291,8438,1260,1,5,9,1.1708231454516806
basic,17,20,0,0,0,21,"[0, 12, 1, 5, 21]",5,8,"[4, 6, 8, 9, 20, 23, 27, 28]",107.8950291,9862,1424,1,4,9,1.126197336199212
basic,17,20,0,0,0,8,"[0, 12, 1, 5, 21, 8]",6,5,"[6, 9, 23, 27, 28]",90.43077988,11000,1138,1,3,9,1.140007470699913
basic,17,20,0,0,0,23,"[0, 12, 1, 5, 21, 8, 23]",7,2,"[6, 9]",45.74297394,12130,1130,1,1,9,1.1162257896627588
basic,17,20,0,0,0,9,"[0, 12, 1, 5, 21, 8, 23, 9]",8,1,[6],26.53360123,13271,1141,1,0,9,1.1086880559449597
basic,17,20,0,0,1,6,"[0, 12, 1, 5, 21, 8, 23, 9, 6]",9,0,[],3.511872362,14622,1351,1,0,9,1.1186240265999328
basic,17,20,0,1,1,6,"[0, 12, 1, 5, 21, 8, 23, 9, 6]",9,0,[],3.511872362,15945,1323,1,0,9,1.1186240265999328
basic,18,19,0,0,0,0,[0],1,29,"[1, 2, 3, 4, 5, 6, 7, 8, 9, 10, 11, 12, 13, 14, 15, 16, 17, 18, 19, 20, 21, 22, 23, 24, 25, 26, 27, 28, 29]",300,185,-1,12,149,8,0.0
basic,18,19,0,0,0,29,"[0, 29]",2,28,"[1, 2, 3, 4, 5, 6, 7, 8, 9, 10, 11, 12, 13, 14, 15, 16, 17, 18, 19, 20, 21, 22, 23, 24, 25, 26, 27, 28]",265.0715016,3784,3599,12,120,8,1.0
basic,18,19,0,0,0,28,"[0, 29, 28]",3,10,"[4, 6, 9, 10, 11, 14, 20, 22, 24, 27]",122.5092345,5055,1271,4,21,7,1.0830664385224933
basic,18,19,0,0,0,4,"[0, 29, 28, 4]",4,9,"[6, 9, 10, 11, 14, 20, 22, 24, 27]",111.3288946,5984,929,4,13,7,1.1448076323272462
basic,18,19,0,0,0,14,"[0, 29, 28, 4, 14]",5,5,"[6, 11, 20, 22, 24]",61.31889562,8080,2096,4,2,7,1.141348753748624
basic,18,19,0,0,0,11,"[0, 29, 28, 4, 14, 11]",6,2,"[20, 22]",50.5022418,9001,921,2,0,7,1.1379312786111968
basic,18,19,0,0,1,20,"[0, 29, 28, 4, 14, 11, 20]",7,0,[],2.700568184,11085,2084,1,0,7,1.315020858806442
basic,18,19,0,1,1,20,"[0, 29, 28, 4, 14, 11, 20]",7,0,[],2.700568184,12512,1427,1,0,7,1.315020858806442
basic,19,9,0,0,0,0,[0],1,27,"[1, 3, 4, 5, 6, 7, 8, 9, 10, 11, 13, 14, 15, 16, 17, 18, 19, 20, 21, 22, 23, 24, 25, 26, 27, 28, 29]",300,164,-1,2,182,10,0.0
basic,19,9,0,0,0,9,"[0, 9]",2,26,"[1, 3, 4, 5, 6, 7, 8, 10, 11, 13, 14, 15, 16, 17, 18, 19, 20, 21, 22, 23, 24, 25, 26, 27, 28, 29]",225.5352432,6406,6242,2,101,9,1.0
basic,19,9,0,0,0,23,"[0, 9, 23]",3,22,"[1, 3, 4, 5, 7, 8, 10, 11, 13, 15, 16, 17, 18, 19, 20, 21, 22, 24, 25, 26, 27, 28]",203.1745635,7820,1414,2,70,9,1.6262276606762436
basic,19,9,0,0,0,8,"[0, 9, 23, 8]",4,18,"[3, 4, 5, 7, 10, 11, 15, 16, 17, 18, 19, 20, 21, 22, 25, 26, 27, 28]",181.7036529,8652,832,1,36,9,1.8547307061753238
basic,19,9,0,0,0,28,"[0, 9, 23, 8, 28]",5,17,"[3, 4, 5, 7, 10, 11, 15, 16, 17, 18, 19, 20, 21, 22, 25, 26, 27]",170.8869991,9548,896,1,23,9,1.7382749966569708
basic,19,9,0,0,0,26,"[0, 9, 23, 8, 28, 26]",6,10,"[3, 5, 10, 15, 16, 18, 19, 20, 21, 25]",126.1097727,10815,1267,4,7,8,1.4884719959249546
basic,19,9,0,0,0,21,"[0, 9, 23, 8, 28, 26, 21]",7,1,[20],72.20244484,11885,1070,1,0,8,1.9218119811471304
basic,19,9,0,0,1,20,"[0, 9, 23, 8, 28, 26, 21, 20]",8,0,[],60.11939886,12781,896,1,0,8,1.8940565724013747
basic,19,9,0,1,1,20,"[0, 9, 23, 8, 28, 26, 21, 20]",8,0,[],60.11939886,13827,1046,1,0,8,1.8940565724013747
basic,20,44,0,0,0,0,[0],1,29,"[1, 2, 3, 4, 5, 6, 7, 8, 9, 10, 11, 12, 13, 14, 15, 16, 17, 18, 19, 20, 21, 22, 23, 24, 25, 26, 27, 28, 29]",300,169,-1,13,126,7,0.0
basic,20,44,0,0,0,9,"[0, 9]",2,17,"[2, 4, 5, 7, 8, 10, 11, 12, 13, 14, 20, 22, 23, 24, 25, 26, 28]",141.32423,8953,8784,3,26,7,1.0
basic,20,44,0,0,0,4,"[0, 9, 4]",3,15,"[2, 5, 7, 8, 10, 11, 12, 14, 20, 22, 23, 24, 25, 26, 28]",121.6265143,10696,1743,3,21,7,1.0155532843148096
basic,20,44,0,0,0,7,"[0, 9, 4, 7]",4,10,"[2, 5, 11, 12, 14, 23, 24, 25, 26, 28]",90.61038951,12012,1316,3,9,7,1.0134022837125412
basic,20,44,0,0,0,23,"[0, 9, 4, 7, 23]",5,7,"[5, 12, 14, 24, 25, 26, 28]",71.50541634,15178,3166,3,4,7,1.043310757564056
basic,20,44,0,0,0,28,"[0, 9, 4, 7, 23, 28]",6,1,[26],19.5342705,16585,1407,1,0,7,1.0580072524850708
basic,20,44,0,0,1,26,"[0, 9, 4, 7, 23, 28, 26]",7,0,[],6.534270496,17819,1234,1,0,7,1.055488728885845
basic,20,44,0,1,1,26,"[0, 9, 4, 7, 23, 28, 26]",7,0,[],6.534270496,19076,1257,1,0,7,1.055488728885845
basic,21,32,0,0,0,0,[0],1,29,"[1, 2, 3, 4, 5, 6, 7, 8, 9, 10, 11, 12, 13, 14, 15, 16, 17, 18, 19, 20, 21, 22, 23, 24, 25, 26, 27, 28, 29]",300,203,-1,17,359,10,0.0
basic,21,32,0,0,0,19,"[0, 19]",2,28,"[1, 2, 3, 4, 5, 6, 7, 8, 9, 10, 11, 12, 13, 14, 15, 16, 17, 18, 20, 21, 22, 23, 24, 25, 26, 27, 28, 29]",283.5075775,2136,1933,16,294,10,1.0
basic,21,32,0,0,0,13,"[0, 19, 13]",3,24,"[2, 3, 4, 5, 6, 8, 9, 10, 11, 12, 14, 15, 16, 17, 18, 20, 21, 22, 23, 24, 25, 26, 27, 28]",260.3127505,3220,1084,14,227,10,1.0172874229878615
basic,21,32,0,0,0,15,"[0, 19, 13, 15]",4,18,"[2, 3, 5, 8, 9, 10, 11, 12, 16, 17, 20, 22, 23, 24, 25, 26, 27, 28]",177.4393531,4174,954,9,116,10,1.435447391509833
basic,21,32,0,0,0,28,"[0, 19, 13, 15, 28]",5,17,"[2, 3, 5, 8, 9, 10, 11, 12, 16, 17, 20, 22, 23, 24, 25, 26, 27]",166.0375988,5615,1441,9,70,10,1.3843701324937985
basic,21,32,0,0,0,12,"[0, 19, 13, 15, 28, 12]",6,14,"[2, 3, 5, 8, 9, 10, 11, 16, 17, 20, 22, 24, 26, 27]",147.0639329,7330,1715,6,35,10,1.358372254952329
basic,21,32,0,0,0,16,"[0, 19, 13, 15, 28, 12, 16]",7,13,"[2, 3, 5, 8, 9, 10, 11, 17, 20, 22, 24, 26, 27]",131.411457,8031,701,5,15,10,1.4356932930709845
basic,21,32,0,0,0,22,"[0, 19, 13, 15, 28, 12, 16, 22]",8,6,"[2, 8, 9, 17, 20, 27]",97.57360838,9352,1321,3,5,10,1.4335226411545752
basic,21,32,0,0,0,9,"[0, 19, 13, 15, 28, 12, 16, 22, 9]",9,3,"[2, 8, 20]",75.37000507,10472,1120,3,0,10,1.4837166378374758
basic,21,32,0,0,1,8,"[0, 19, 13, 15, 28, 12, 16, 22, 9, 8]",10,0,[],30.24794838,12231,1759,1,0,10,1.3767698817641267
basic,21,32,0,1,1,8,"[0, 19, 13, 15, 28, 12, 16, 22, 9, 8]",10,0,[],30.24794838,13580,1349,1,0,10,1.3767698817641267
basic,22,3,0,0,0,0,[0],1,29,"[1, 2, 3, 4, 5, 6, 7, 8, 9, 10, 11, 12, 13, 14, 15, 16, 17, 18, 19, 20, 21, 22, 23, 24, 25, 26, 27, 28, 29]",300,184,-1,34,427,10,0.0
basic,22,3,0,0,0,17,"[0, 17]",2,16,"[3, 4, 7, 8, 10, 12, 14, 15, 16, 19, 20, 21, 22, 24, 26, 27]",197.6965299,3318,3134,2,27,9,1.0
basic,22,3,0,0,0,20,"[0, 17, 20]",3,13,"[3, 4, 7, 8, 10, 14, 15, 16, 19, 21, 22, 24, 27]",185.0474192,4951,1633,2,24,9,1.0153332121237257
basic,22,3,0,0,0,3,"[0, 17, 20, 3]",4,10,"[4, 7, 8, 10, 14, 15, 16, 19, 21, 24]",164.6513412,6502,1551,2,22,9,1.0819240770773468
basic,22,3,0,0,0,19,"[0, 17, 20, 3, 19]",5,6,"[4, 8, 10, 14, 21, 24]",127.3150318,7573,1071,2,11,9,1.1701070532957258
basic,22,3,0,0,0,21,"[0, 17, 20, 3, 19, 21]",6,5,"[4, 8, 10, 14, 24]",115.1084762,8488,915,2,6,9,1.202395500952127
basic,22,3,0,0,0,14,"[0, 17, 20, 3, 19, 21, 14]",7,4,"[4, 8, 10, 24]",88.20122806,9901,1413,2,2,9,1.6456130302761207
basic,22,3,0,0,0,24,"[0, 17, 20, 3, 19, 21, 14, 24]",8,1,[8],17.08864127,11317,1416,1,0,9,4.806859660680286
basic,22,3,0,0,1,8,"[0, 17, 20, 3, 19, 21, 14, 24, 8]",9,0,[],4.923116212,12933,1616,1,0,9,4.915218144486606
basic,22,3,0,1,1,8,"[0, 17, 20, 3, 19, 21, 14, 24, 8]",9,0,[],4.923116212,14077,1144,1,0,9,4.915218144486606
undo,23,15,0,0,0,0,[0],1,25,"[1, 2, 3, 4, 7, 8, 9, 10, 11, 12, 13, 14, 15, 16, 18, 20, 21, 22, 23, 24, 25, 26, 27, 28, 29]",300,158,-1,4,65,9,0.0
undo,23,15,0,0,0,16,"[0, 16]",2,16,"[3, 4, 7, 9, 10, 11, 12, 13, 14, 15, 18, 20, 21, 22, 25, 27]",185.8378346,3008,2850,22,104,7,1.0
undo,23,15,0,0,0,7,"[0, 16, 7]",3,11,"[3, 4, 9, 11, 12, 13, 14, 15, 21, 22, 27]",142.1800747,4231,1223,3,18,7,1.8608304467569274
undo,23,15,0,0,0,11,"[0, 16, 7, 11]",4,7,"[3, 4, 12, 13, 14, 15, 22]",100.6951377,5136,905,3,7,7,1.6051065734816115
undo,23,15,0,0,0,3,"[0, 16, 7, 11, 3]",5,6,"[4, 12, 13, 14, 15, 22]",89.29338346,8128,2992,3,4,7,1.5917012272876523
undo,23,15,0,0,0,22,"[0, 16, 7, 11, 3, 22]",6,2,"[13, 15]",39.56411642,8912,784,2,0,7,1.509551308246583
undo,23,15,0,0,1,13,"[0, 16, 7, 11, 3, 22, 13]",7,0,[],11.40386074,10320,1408,1,0,7,1.4405338667667644
undo,23,15,0,1,1,13,"[0, 16, 7, 11, 3, 22, 13]",7,0,[],11.40386074,13431,3111,1,0,7,1.4405338667667644
undo,24,12,0,0,0,0,[0],1,29,"[1, 2, 3, 4, 5, 6, 7, 8, 9, 10, 11, 12, 13, 14, 15, 16, 17, 18, 19, 20, 21, 22, 23, 24, 25, 26, 27, 28, 29]",300,164,-1,2,32,9,0.0
undo,24,12,0,0,0,22,"[0, 22]",2,22,"[2, 4, 5, 6, 7, 9, 10, 12, 13, 14, 15, 16, 17, 18, 19, 21, 23, 24, 25, 27, 28, 29]",211.9943184,2885,2721,6,42,8,1.0
undo,24,12,0,0,0,16,"[0, 22, 16]",3,12,"[2, 4, 5, 6, 7, 12, 14, 19, 23, 24, 25, 27]",190.9943184,3780,895,6,24,8,1.2017164145167045
undo,24,12,0,0,0,4,"[0, 22, 16, 4]",4,9,"[2, 6, 7, 12, 14, 19, 24, 25, 27]",156.7890556,4689,909,6,14,8,1.146531713305579
undo,24,12,0,0,0,12,"[0, 22, 16, 4, 12]",5,4,"[14, 19, 24, 27]",114.5990094,5652,963,4,3,8,1.1221389456954312
undo,24,12,0,0,0,27,"[0, 22, 16, 4, 12, 27]",6,3,"[14, 19, 24]",90.24741807,6592,940,2,1,8,1.2262878338287035
undo,24,12,0,0,0,14,"[0, 22, 16, 4, 12, 27, 14]",7,1,[24],61.59432051,7690,1098,1,0,8,1.2804562106751427
undo,24,12,0,0,1,24,"[0, 22, 16, 4, 12, 27, 14, 24]",8,0,[],44.38966997,8654,964,1,0,8,1.4322660007679802
undo,24,12,0,1,1,24,"[0, 22, 16, 4, 12, 27, 14, 24]",8,0,[],44.38966997,9761,1107,1,0,8,1.4322660007679802
undo,25,3,0,0,0,0,[0],1,29,"[1, 2, 3, 4, 5, 6, 7, 8, 9, 10, 11, 12, 13, 14, 15, 16, 17, 18, 19, 20, 21, 22, 23, 24, 25, 26, 27, 28, 29]",300,178,-1,34,427,10,0.0
undo,25,3,0,0,0,17,"[0, 17]",2,16,"[3, 4, 7, 8, 10, 12, 14, 15, 16, 19, 20, 21, 22, 24, 26, 27]",197.6965299,4469,4291,2,27,9,1.0
undo,25,3,0,0,0,20,"[0, 17, 20]",3,13,"[3, 4, 7, 8, 10, 14, 15, 16, 19, 21, 22, 24, 27]",185.0474192,5214,745,2,24,9,1.0153332121237257
undo,25,3,0,0,0,3,"[0, 17, 20, 3]",4,10,"[4, 7, 8, 10, 14, 15, 16, 19, 21, 24]",164.6513412,8563,3349,2,22,9,1.0819240770773468
undo,25,3,0,0,0,19,"[0, 17, 20, 3, 19]",5,6,"[4, 8, 10, 14, 21, 24]",127.3150318,11563,3000,2,11,9,1.1701070532957258
undo,25,3,0,0,0,21,"[0, 17, 20, 3, 19, 21]",6,5,"[4, 8, 10, 14, 24]",115.1084762,12469,906,2,6,9,1.202395500952127
undo,25,3,0,0,0,10,"[0, 17, 20, 3, 19, 21, 10]",7,2,"[4, 14]",65.77289062,13625,1156,2,0,8,1.4875535837212719
undo,25,3,0,0,1,4,"[0, 17, 20, 3, 19, 21, 10, 4]",8,0,[],11.94910406,17287,3662,1,0,8,2.5138355714752043
undo,25,3,0,1,1,4,"[0, 17, 20, 3, 19, 21, 10, 4]",8,0,[],11.94910406,18429,1142,1,0,8,2.5138355714752043
undo,26,39,0,0,0,0,[0],1,28,"[1, 2, 3, 4, 5, 6, 7, 9, 10, 11, 12, 13, 14, 15, 16, 17, 18, 19, 20, 21, 22, 23, 24, 25, 26, 27, 28, 29]",300,194,-1,1,30,10,0.0
undo,26,39,0,0,0,14,"[0, 14]",2,26,"[1, 2, 3, 4, 5, 6, 7, 9, 10, 12, 13, 15, 16, 17, 18, 19, 20, 21, 22, 23, 24, 25, 26, 27, 28, 29]",286.9615952,5758,5564,1,22,10,1.0
undo,26,39,0,0,0,29,"[0, 14, 29]",3,23,"[1, 2, 3, 4, 5, 6, 7, 9, 10, 12, 13, 15, 16, 17, 18, 19, 21, 22, 23, 24, 25, 26, 28]",218.9321898,9969,4211,1,21,10,1.4237768813412561
undo,26,39,0,0,0,10,"[0, 14, 29, 10]",4,16,"[1, 2, 4, 5, 7, 9, 12, 13, 15, 16, 18, 19, 22, 23, 24, 26]",154.2947393,11646,1677,10,55,9,1.2261903217179273
undo,26,39,0,0,0,7,"[0, 14, 29, 10, 7]",5,13,"[1, 2, 5, 9, 12, 13, 15, 16, 18, 19, 22, 24, 26]",120.8731894,12838,1192,7,19,9,1.1772181718345374
undo,26,39,0,0,0,26,"[0, 14, 29, 10, 7, 26]",6,6,"[1, 12, 16, 18, 19, 22]",102.1916477,13817,979,5,7,9,1.2246375898647768
undo,26,39,0,0,0,22,"[0, 14, 29, 10, 7, 26, 22]",7,4,"[12, 16, 18, 19]",84.47160256,14712,895,3,2,9,1.3919259602577456
undo,26,39,0,0,0,16,"[0, 14, 29, 10, 7, 26, 22, 16]",8,2,"[18, 19]",49.47160256,16070,1358,2,0,9,1.3197225741710712
undo,26,39,0,0,1,19,"[0, 14, 29, 10, 7, 26, 22, 16, 19]",9,0,[],32.00735337,16934,864,1,0,9,1.3285534538986796
undo,26,39,0,1,1,19,"[0, 14, 29, 10, 7, 26, 22, 16, 19]",9,0,[],32.00735337,18246,1312,1,0,9,1.3285534538986796
undo,27,14,0,0,0,0,[0],1,29,"[1, 2, 3, 4, 5, 6, 7, 8, 9, 10, 11, 12, 13, 14, 15, 16, 17, 18, 19, 20, 21, 22, 23, 24, 25, 26, 27, 28, 29]",300,200,-1,8,157,10,0.0
undo,27,14,0,0,0,15,"[0, 15]",2,20,"[1, 2, 3, 4, 7, 8, 9, 13, 17, 18, 19, 20, 21, 22, 23, 25, 26, 27, 28, 29]",216.7053423,2573,2373,8,102,10,1.0
undo,27,14,0,0,0,28,"[0, 15, 28]",3,17,"[1, 2, 3, 4, 7, 8, 9, 13, 17, 18, 19, 20, 22, 23, 25, 26, 27]",197.4959696,3554,981,8,48,10,1.0446007867311968
undo,27,14,0,0,0,17,"[0, 15, 28, 17]",4,14,"[1, 2, 3, 4, 7, 8, 13, 18, 19, 20, 22, 23, 25, 26]",184.0423455,4536,982,8,39,10,1.0729463354689972
undo,27,14,0,0,0,18,"[0, 15, 28, 17, 18]",5,9,"[1, 2, 4, 7, 8, 19, 23, 25, 26]",119.412631,5831,1295,8,27,10,1.5035901079219378
undo,27,14,0,0,0,8,"[0, 15, 28, 17, 18, 8]",6,8,"[1, 2, 4, 7, 19, 23, 25, 26]",105.8111605,7492,1661,8,18,10,1.4819689987843856
undo,27,14,0,0,0,1,"[0, 15, 28, 17, 18, 8, 1]",7,5,"[7, 19, 23, 25, 26]",82.21031307,8856,1364,4,6,10,1.4084991998385268
undo,27,14,0,0,0,19,"[0, 15, 28, 17, 18, 8, 1, 19]",8,4,"[7, 23, 25, 26]",66.97876686,10637,1781,4,1,10,1.5758713333797987
undo,27,14,0,0,0,25,"[0, 15, 28, 17, 18, 8, 1, 19, 25]",9,2,"[7, 23]",31.1318702,12871,2234,2,0,10,1.6426186864061416
undo,27,14,0,0,1,7,"[0, 15, 28, 17, 18, 8, 1, 19, 25, 7]",10,0,[],11.4341546,15324,2453,1,0,10,1.652323224159132
undo,27,14,0,1,1,7,"[0, 15, 28, 17, 18, 8, 1, 19, 25, 7]",10,0,[],11.4341546,17146,1822,1,0,10,1.652323224159132
undo,28,40,0,0,0,0,[0],1,29,"[1, 2, 3, 4, 5, 6, 7, 8, 9, 10, 11, 12, 13, 14, 15, 16, 17, 18, 19, 20, 21, 22, 23, 24, 25, 26, 27, 28, 29]",300,175,-1,8,191,9,0.0
undo,28,40,0,0,0,1,"[0, 1]",2,18,"[2, 5, 6, 7, 8, 9, 10, 11, 13, 15, 17, 18, 19, 21, 22, 23, 27, 29]",247.8463808,4667,4492,4,80,9,1.0
undo,28,40,0,0,0,6,"[0, 1, 6]",3,17,"[2, 5, 7, 8, 9, 10, 11, 13, 15, 17, 18, 19, 21, 22, 23, 27, 29]",227.7466295,5571,904,4,74,9,1.0459427008232034
undo,28,40,0,0,0,21,"[0, 1, 6, 21]",4,8,"[2, 5, 9, 17, 18, 19, 22, 23]",175.7754837,6734,1163,4,25,9,1.0308822257404064
undo,28,40,0,0,0,9,"[0, 1, 6, 21, 9]",5,6,"[2, 5, 18, 19, 22, 23]",130.0699041,7920,1186,4,12,9,1.377861912961129
undo,28,40,0,0,0,18,"[0, 1, 6, 21, 9, 18]",6,5,"[2, 5, 19, 22, 23]",113.5169588,8888,968,4,4,9,1.5742712168661408
undo,28,40,0,0,0,5,"[0, 1, 6, 21, 9, 18, 5]",7,3,"[19, 22, 23]",81.94165198,9959,1071,2,1,9,1.7730665063055515
undo,28,40,0,0,0,23,"[0, 1, 6, 21, 9, 18, 5, 23]",8,1,[19],53.63970859,11375,1416,1,0,9,2.597442759912231
undo,28,40,0,0,1,19,"[0, 1, 6, 21, 9, 18, 5, 23, 19]",9,0,[],21.68661797,12739,1364,1,0,9,2.7128328554069565
undo,28,40,0,1,1,19,"[0, 1, 6, 21, 9, 18, 5, 23, 19]",9,0,[],21.68661797,13932,1193,1,0,9,2.7128328554069565
undo,29,19,0,0,0,0,[0],1,29,"[1, 2, 3, 4, 5, 6, 7, 8, 9, 10, 11, 12, 13, 14, 15, 16, 17, 18, 19, 20, 21, 22, 23, 24, 25, 26, 27, 28, 29]",300,179,-1,12,149,8,0.0
undo,29,19,0,0,0,28,"[0, 28]",2,10,"[4, 6, 9, 10, 11, 14, 20, 22, 24, 27]",136.1219966,6314,6135,2,14,7,1.0
undo,29,19,0,0,0,4,"[0, 28, 4]",3,9,"[6, 9, 10, 11, 14, 20, 22, 24, 27]",124.9416567,7146,832,2,10,7,1.0622089009735736
undo,29,19,0,0,0,14,"[0, 28, 4, 14]",4,5,"[6, 11, 20, 22, 24]",74.93165771,8640,1494,2,3,7,1.0762539106237072
undo,29,19,0,0,0,11,"[0, 28, 4, 14, 11]",5,3,"[20, 22, 24]",64.11500388,9522,882,2,1,7,1.0758449982739315
undo,29,19,0,0,0,20,"[0, 28, 4, 14, 11, 20]",6,1,[22],16.31333027,11502,1980,1,0,7,1.254808614269969
undo,29,19,0,0,1,22,"[0, 28, 4, 14, 11, 20, 22]",7,0,[],3.160383832,12376,874,1,0,7,1.3933675480175218
undo,29,19,0,1,1,22,"[0, 28, 4, 14, 11, 20, 22]",7,0,[],3.160383832,13610,1234,1,0,7,1.3933675480175218
undo,30,21,0,0,0,0,[0],1,29,"[1, 2, 3, 4, 5, 6, 7, 8, 9, 10, 11, 12, 13, 14, 15, 16, 17, 18, 19, 20, 21, 22, 23, 24, 25, 26, 27, 28, 29]",300,205,-1,84,830,9,0.0
undo,30,21,0,0,0,25,"[0, 25]",2,26,"[1, 2, 3, 4, 5, 6, 7, 8, 9, 10, 11, 12, 13, 14, 15, 16, 17, 18, 20, 21, 22, 23, 24, 26, 27, 29]",240.1836143,2488,2283,30,238,9,1.0
undo,30,21,0,0,0,23,"[0, 25, 23]",3,21,"[1, 2, 4, 6, 7, 8, 9, 10, 11, 12, 14, 15, 16, 17, 18, 20, 21, 22, 24, 27, 29]",196.8592562,3537,1049,14,80,9,1.0416131642057598
undo,30,21,0,0,0,21,"[0, 25, 23, 21]",4,14,"[1, 4, 6, 8, 9, 14, 15, 16, 17, 18, 20, 22, 24, 29]",167.2450705,5202,1665,10,25,9,1.4768792067751173
undo,30,21,0,0,0,14,"[0, 25, 23, 21, 14]",5,10,"[4, 8, 9, 15, 16, 17, 18, 22, 24, 29]",141.6325735,6468,1266,8,13,9,1.3826076066332742
undo,30,21,0,0,0,4,"[0, 25, 23, 21, 14, 4]",6,7,"[8, 15, 16, 17, 18, 24, 29]",127.4904379,7368,900,8,3,9,1.3487191473328533
undo,30,21,0,0,0,16,"[0, 25, 23, 21, 14, 4, 16]",7,3,"[8, 15, 24]",82.89223163,9354,1986,4,1,9,1.3301484172843694
undo,30,21,0,0,0,8,"[0, 25, 23, 21, 14, 4, 16, 8]",8,2,"[15, 24]",64.2911564,10531,1177,2,0,9,1.3009886562393016
undo,30,21,0,0,1,15,"[0, 25, 23, 21, 14, 4, 16, 8, 15]",9,0,[],39.2911564,11623,1092,1,0,9,1.5486591410600183
undo,30,21,0,1,1,15,"[0, 25, 23, 21, 14, 4, 16, 8, 15]",9,0,[],39.2911564,13730,2107,1,0,9,1.5486591410600183
undo,31,29,0,0,0,0,[0],1,29,"[1, 2, 3, 4, 5, 6, 7, 8, 9, 10, 11, 12, 13, 14, 15, 16, 17, 18, 19, 20, 21, 22, 23, 24, 25, 26, 27, 28, 29]",300,156,-1,1,78,9,0.0
undo,31,29,0,0,0,14,"[0, 14]",2,22,"[1, 3, 4, 5, 6, 7, 9, 10, 11, 12, 13, 15, 16, 17, 21, 22, 23, 25, 26, 27, 28, 29]",209.490332,6675,6519,21,110,8,1.0
undo,31,29,0,0,0,13,"[0, 14, 13]",3,18,"[1, 4, 5, 6, 7, 9, 10, 12, 15, 16, 17, 21, 22, 25, 26, 27, 28, 29]",191.4625756,7475,800,20,75,8,1.0027006502223275
undo,31,29,0,0,0,5,"[0, 14, 13, 5]",4,15,"[1, 4, 6, 7, 9, 12, 15, 17, 21, 22, 25, 26, 27, 28, 29]",165.7526554,8988,1513,19,49,8,1.0803937325657265
undo,31,29,0,0,0,22,"[0, 14, 13, 5, 22]",5,9,"[4, 6, 7, 9, 12, 26, 27, 28, 29]",111.4111427,11373,2385,7,11,8,1.6123417790752979
undo,31,29,0,0,0,12,"[0, 14, 13, 5, 22, 12]",6,4,"[4, 7, 9, 27]",73.46381077,12949,1576,3,2,8,1.4673990517096682
undo,31,29,0,0,0,7,"[0, 14, 13, 5, 22, 12, 7]",7,2,"[4, 9]",59.86234026,14356,1407,2,0,8,1.4602419147831445
undo,31,29,0,0,1,9,"[0, 14, 13, 5, 22, 12, 7, 9]",8,0,[],30.79345655,16268,1912,1,0,8,1.4259709280459159
undo,31,29,0,1,1,9,"[0, 14, 13, 5, 22, 12, 7, 9]",8,0,[],30.79345655,18295,2027,1,0,8,1.4259709280459159
undo,32,36,0,0,0,0,[0],1,24,"[2, 4, 5, 6, 7, 8, 9, 10, 12, 13, 14, 15, 16, 17, 18, 19, 20, 22, 23, 25, 26, 27, 28, 29]",300,152,-1,2,200,10,0.0
undo,32,36,0,0,0,12,"[0, 12]",2,23,"[2, 4, 5, 6, 7, 8, 9, 10, 13, 14, 15, 16, 17, 18, 19, 20, 22, 23, 25, 26, 27, 28, 29]",277.7963967,4984,4832,90,804,9,1.0
undo,32,36,0,0,0,16,"[0, 12, 16]",3,10,"[2, 9, 10, 13, 17, 18, 19, 23, 25, 27]",171.6267212,9321,4337,4,38,9,1.202695220335868
undo,32,36,0,0,0,17,"[0, 12, 16, 17]",4,7,"[2, 9, 10, 13, 18, 19, 25]",143.3071167,10672,1351,4,23,9,1.6578705047868705
undo,32,36,0,0,0,9,"[0, 12, 16, 17, 9]",5,5,"[2, 13, 18, 19, 25]",117.0583072,12002,1330,3,6,9,2.6488264465469484
undo,32,36,0,0,0,19,"[0, 12, 16, 17, 9, 19]",6,4,"[2, 13, 18, 25]",101.9255612,14133,2131,3,3,9,2.5697960541572393
undo,32,36,0,0,0,2,"[0, 12, 16, 17, 9, 19, 2]",7,2,"[13, 25]",64.80413882,15730,1597,2,0,9,2.082684549483941
undo,32,36,0,0,0,25,"[0, 12, 16, 17, 9, 19, 2, 25]",8,1,[13],39.80413882,18115,2385,1,0,9,2.272647961997219
undo,32,36,0,0,1,13,"[0, 12, 16, 17, 9, 19, 2, 25, 13]",9,0,[],19.21287854,19104,989,1,0,9,2.86279103556024
undo,32,36,0,1,1,13,"[0, 12, 16, 17, 9, 19, 2, 25, 13]",9,0,[],19.21287854,20292,1188,1,0,9,2.86279103556024
undo,33,23,0,0,0,0,[0],1,28,"[1, 2, 3, 4, 5, 6, 7, 8, 9, 10, 11, 12, 13, 14, 15, 16, 17, 18, 19, 20, 21, 22, 23, 25, 26, 27, 28, 29]",300,163,-1,76,2626,10,0.0
undo,33,23,0,0,0,18,"[0, 18]",2,14,"[2, 5, 6, 7, 9, 10, 12, 13, 14, 19, 21, 22, 27, 29]",203.8958898,4103,3940,73,787,9,1.0
undo,33,23,0,0,0,27,"[0, 18, 27]",3,9,"[2, 6, 7, 9, 12, 13, 14, 22, 29]",128.5832083,5785,1682,51,277,9,1.1972268052690318
undo,33,23,0,0,0,13,"[0, 18, 27, 13]",4,7,"[2, 6, 9, 12, 14, 22, 29]",83.48331912,7639,1854,5,41,9,1.9562453228589431
undo,33,23,0,0,0,12,"[0, 18, 27, 13, 12]",5,6,"[2, 6, 9, 14, 22, 29]",71.40027314,8574,935,5,15,9,1.8647693139158203
undo,33,23,0,0,0,2,"[0, 18, 27, 13, 12, 2]",6,3,"[6, 9, 14]",57.50782915,9472,898,2,4,9,1.7770359810395266
undo,33,23,0,0,0,9,"[0, 18, 27, 13, 12, 2, 9]",7,2,"[6, 14]",44.46942434,11896,2424,1,1,9,1.9558648155189804
undo,33,23,0,0,0,14,"[0, 18, 27, 13, 12, 2, 9, 14]",8,1,[6],34.02911783,12672,776,1,0,9,1.8877906824032864
undo,33,23,0,0,1,6,"[0, 18, 27, 13, 12, 2, 9, 14, 6]",9,0,[],5.167378454,14036,1364,1,0,9,1.962369988014911
undo,33,23,0,1,1,6,"[0, 18, 27, 13, 12, 2, 9, 14, 6]",9,0,[],5.167378454,15894,1858,1,0,9,1.962369988014911
undo,34,13,0,0,0,0,[0],1,29,"[1, 2, 3, 4, 5, 6, 7, 8, 9, 10, 11, 12, 13, 14, 15, 16, 17, 18, 19, 20, 21, 22, 23, 24, 25, 26, 27, 28, 29]",300,153,-1,60,2676,11,0.0
undo,34,13,0,0,0,24,"[0, 24]",2,28,"[1, 2, 3, 4, 5, 6, 7, 8, 9, 10, 11, 12, 13, 14, 15, 16, 17, 18, 19, 20, 21, 22, 23, 25, 26, 27, 28, 29]",288.8196601,3168,3015,16,1444,11,1.0
undo,34,13,0,0,0,28,"[0, 24, 28]",3,23,"[1, 2, 3, 4, 6, 7, 8, 9, 10, 11, 12, 13, 15, 16, 17, 19, 20, 21, 22, 23, 26, 27, 29]",222.5324064,4418,1250,8,243,11,1.0513810491680837
undo,34,13,0,0,0,2,"[0, 24, 28, 2]",4,19,"[1, 3, 4, 6, 7, 9, 11, 12, 13, 15, 16, 17, 19, 20, 21, 23, 26, 27, 29]",184.889346,5555,1137,7,110,11,1.050374132001543
undo,34,13,0,0,0,29,"[0, 24, 28, 2, 29]",5,18,"[1, 3, 4, 6, 7, 9, 11, 12, 13, 15, 16, 17, 19, 20, 21, 23, 26, 27]",173.1846461,8182,2627,7,85,11,1.1393409619120594
undo,34,13,0,0,0,7,"[0, 24, 28, 2, 29, 7]",6,17,"[1, 3, 4, 6, 9, 11, 12, 13, 15, 16, 17, 19, 20, 21, 23, 26, 27]",157.9203086,9318,1136,5,45,11,1.349777315111579
undo,34,13,0,0,0,26,"[0, 24, 28, 2, 29, 7, 26]",7,16,"[1, 3, 4, 6, 9, 11, 12, 13, 15, 16, 17, 19, 20, 21, 23, 27]",147.480002,10202,884,5,25,11,1.5942082773824946
undo,34,13,0,0,0,6,"[0, 24, 28, 2, 29, 7, 26, 6]",8,12,"[1, 3, 4, 11, 13, 15, 16, 17, 19, 20, 23, 27]",127.3802508,11602,1400,4,12,11,1.5898347940840756
undo,34,13,0,0,0,11,"[0, 24, 28, 2, 29, 7, 26, 6, 11]",9,6,"[1, 13, 15, 16, 17, 23]",108.2752776,12473,871,3,4,11,1.5029953945561012
undo,34,13,0,0,0,17,"[0, 24, 28, 2, 29, 7, 26, 6, 11, 17]",10,1,[13],36.68617231,13841,1368,1,0,11,1.324993060397683
undo,34,13,0,0,1,13,"[0, 24, 28, 2, 29, 7, 26, 6, 11, 17, 13]",11,0,[],3.309533775,17202,3361,1,0,11,1.6349870606446535
undo,34,13,0,1,1,13,"[0, 24, 28, 2, 29, 7, 26, 6, 11, 17, 13]",11,0,[],3.309533775,18480,1278,1,0,11,1.6349870606446535
undo,35,41,0,0,0,0,[0],1,29,"[1, 2, 3, 4, 5, 6, 7, 8, 9, 10, 11, 12, 13, 14, 15, 16, 17, 18, 19, 20, 21, 22, 23, 24, 25, 26, 27, 28, 29]",300,173,-1,1,143,10,0.0
undo,35,41,0,0,0,28,"[0, 28]",2,27,"[1, 2, 3, 5, 6, 7, 8, 9, 10, 11, 12, 13, 14, 15, 16, 17, 18, 19, 20, 21, 22, 23, 24, 25, 26, 27, 29]",259.8004975,2520,2347,37,249,9,1.0
undo,35,41,0,0,0,5,"[0, 28, 5]",3,26,"[1, 2, 3, 6, 7, 8, 9, 10, 11, 12, 13, 14, 15, 16, 17, 18, 19, 20, 21, 22, 23, 24, 25, 26, 27, 29]",246.199027,4902,2382,30,182,9,1.714241539747437
undo,35,41,0,0,0,3,"[0, 28, 5, 3]",4,25,"[1, 2, 6, 7, 8, 9, 10, 11, 12, 13, 14, 15, 16, 17, 18, 19, 20, 21, 22, 23, 24, 25, 26, 27, 29]",211.3708775,9173,4271,20,93,9,2.2367972660995847
undo,35,41,0,0,0,21,"[0, 28, 5, 3, 21]",5,19,"[1, 2, 6, 9, 10, 11, 12, 13, 14, 15, 17, 18, 19, 20, 22, 24, 25, 26, 27]",179.2305601,11313,2140,12,46,9,2.470864770481327
undo,35,41,0,0,0,9,"[0, 28, 5, 3, 21, 9]",6,13,"[1, 2, 10, 12, 13, 14, 15, 17, 19, 22, 24, 25, 26]",129.8645799,12644,1331,3,17,9,2.0674559404382
undo,35,41,0,0,0,2,"[0, 28, 5, 3, 21, 9, 2]",7,9,"[1, 10, 12, 14, 15, 17, 19, 22, 24]",117.7815339,13453,809,2,7,9,2.0139863201149533
undo,35,41,0,0,0,17,"[0, 28, 5, 3, 21, 9, 2, 17]",8,1,[10],85.22389276,14740,1287,1,0,9,3.388293326704014
undo,35,41,0,0,1,10,"[0, 28, 5, 3, 21, 9, 2, 17, 10]",9,0,[],35.97960375,17290,2550,1,0,9,3.1208433501016275
undo,35,41,0,1,1,10,"[0, 28, 5, 3, 21, 9, 2, 17, 10]",9,0,[],35.97960375,19567,2277,1,0,9,3.1208433501016275
undo,36,24,0,0,0,0,[0],1,29,"[1, 2, 3, 4, 5, 6, 7, 8, 9, 10, 11, 12, 13, 14, 15, 16, 17, 18, 19, 20, 21, 22, 23, 24, 25, 26, 27, 28, 29]",300,180,-1,4,76,10,0.0
undo,36,24,0,0,0,14,"[0, 14]",2,27,"[1, 2, 3, 4, 5, 6, 8, 9, 10, 11, 12, 13, 15, 16, 17, 18, 19, 20, 21, 22, 23, 24, 25, 26, 27, 28, 29]",278.0455016,2703,2523,4,54,10,1.0
undo,36,24,0,0,0,16,"[0, 14, 16]",3,25,"[2, 3, 4, 5, 6, 8, 9, 10, 11, 12, 13, 15, 17, 18, 19, 20, 21, 22, 23, 24, 25, 26, 27, 28, 29]",188.9949542,5892,3189,4,31,10,1.238291113657358
undo,36,24,0,0,0,22,"[0, 14, 16, 22]",4,20,"[2, 3, 4, 6, 8, 9, 10, 11, 13, 15, 17, 20, 21, 23, 24, 25, 26, 27, 28, 29]",170.9671978,7144,1252,2,14,10,1.2244494133788653
undo,36,24,0,0,0,8,"[0, 14, 16, 22, 8]",5,15,"[2, 3, 4, 6, 9, 10, 11, 13, 15, 23, 24, 26, 27, 28, 29]",157.5507899,8225,1081,2,10,10,1.2936570860700658
undo,36,24,0,0,0,15,"[0, 14, 16, 22, 8, 15]",6,11,"[3, 4, 6, 9, 10, 11, 23, 26, 27, 28, 29]",126.6638995,9203,978,2,8,10,1.4490533667994079
undo,36,24,0,0,0,28,"[0, 14, 16, 22, 8, 15, 28]",7,5,"[4, 9, 11, 23, 27]",81.3869738,10519,1316,2,5,10,1.3279550596984244
undo,36,24,0,0,0,23,"[0, 14, 16, 22, 8, 15, 28, 23]",8,3,"[9, 11, 27]",62.36067621,11852,1333,2,2,10,1.3488090026750466
undo,36,24,0,0,0,11,"[0, 14, 16, 22, 8, 15, 28, 23, 11]",9,2,"[9, 27]",35.43485217,12819,967,2,0,10,1.31714136871331
undo,36,24,0,0,1,27,"[0, 14, 16, 22, 8, 15, 28, 23, 11, 27]",10,0,[],7.631974625,14137,1318,1,0,10,1.2800893038140084
undo,36,24,0,1,1,27,"[0, 14, 16, 22, 8, 15, 28, 23, 11, 27]",10,0,[],7.631974625,15481,1344,1,0,10,1.2800893038140084
undo,37,27,0,0,0,0,[0],1,26,"[1, 3, 5, 6, 7, 8, 9, 10, 11, 12, 13, 14, 15, 16, 17, 18, 19, 21, 22, 23, 24, 25, 26, 27, 28, 29]",300,164,-1,13,578,11,0.0
undo,37,27,0,0,0,15,"[0, 15]",2,24,"[1, 3, 5, 6, 7, 8, 9, 10, 11, 12, 13, 14, 16, 17, 18, 19, 21, 22, 23, 24, 25, 26, 27, 29]",263.7508621,4028,3864,6,219,11,1.0
undo,37,27,0,0,0,24,"[0, 15, 24]",3,20,"[1, 5, 6, 7, 8, 9, 10, 12, 13, 14, 16, 17, 18, 19, 21, 23, 25, 26, 27, 29]",246.5462115,5674,1646,6,130,11,1.130933077698322
undo,37,27,0,0,0,17,"[0, 15, 24, 17]",4,15,"[1, 6, 8, 10, 12, 13, 14, 16, 18, 19, 23, 25, 26, 27, 29]",229.9932662,6803,1129,4,60,11,1.1285538435963374
undo,37,27,0,0,0,12,"[0, 15, 24, 17, 12]",5,14,"[1, 6, 8, 10, 13, 14, 16, 18, 19, 23, 25, 26, 27, 29]",218.8129263,7525,722,2,32,11,1.2561880288755216
undo,37,27,0,0,0,10,"[0, 15, 24, 17, 12, 10]",6,11,"[1, 8, 13, 14, 18, 19, 23, 25, 26, 27, 29]",207.7675653,8491,966,2,28,11,1.2228289337766665
undo,37,27,0,0,0,13,"[0, 15, 24, 17, 12, 10, 13]",7,9,"[1, 8, 14, 18, 19, 23, 26, 27, 29]",167.9178476,9484,993,2,18,11,1.3421291994761178
undo,37,27,0,0,0,19,"[0, 15, 24, 17, 12, 10, 13, 19]",8,5,"[1, 8, 14, 23, 29]",131.6825057,10868,1384,2,6,11,1.294749956153846
undo,37,27,0,0,0,8,"[0, 15, 24, 17, 12, 10, 13, 19, 8]",9,3,"[14, 23, 29]",116.816437,11690,822,2,1,11,1.3554286578836865
undo,37,27,0,0,0,14,"[0, 15, 24, 17, 12, 10, 13, 19, 8, 14]",10,1,[29],59.25777126,12924,1234,1,0,11,1.312380420632942
undo,37,27,0,0,1,29,"[0, 15, 24, 17, 12, 10, 13, 19, 8, 14, 29]",11,0,[],14.96330208,14322,1398,1,0,11,1.4680136813839417
undo,37,27,0,1,1,29,"[0, 15, 24, 17, 12, 10, 13, 19, 8, 14, 29]",11,0,[],14.96330208,16200,1878,1,0,11,1.4680136813839417
undo,38,30,0,0,0,0,[0],1,19,"[3, 4, 5, 7, 9, 11, 16, 17, 18, 19, 20, 21, 22, 24, 25, 26, 27, 28, 29]",300,170,-1,5,41,8,0.0
undo,38,30,0,0,0,5,"[0, 5]",2,6,"[3, 7, 18, 24, 27, 29]",58.18602191,12053,11883,3,7,5,1.0
undo,38,30,0,0,0,18,"[0, 5, 18]",3,4,"[3, 7, 27, 29]",45.1476171,13452,1399,3,2,5,1.0434259504427708
undo,38,30,0,0,0,3,"[0, 5, 18, 3]",4,2,"[27, 29]",26.89932951,14984,1532,2,0,5,1.1977984375073374
undo,38,30,0,0,1,27,"[0, 5, 18, 3, 27]",5,0,[],7.794356334,16285,1301,1,0,5,1.3954163292075092
undo,38,30,0,1,1,27,"[0, 5, 18, 3, 27]",5,0,[],7.794356334,18197,1912,1,0,5,1.3954163292075092
undo,39,4,0,0,0,0,[0],1,26,"[3, 4, 5, 6, 7, 8, 10, 11, 12, 13, 14, 15, 16, 17, 18, 19, 20, 21, 22, 23, 24, 25, 26, 27, 28, 29]",300,178,-1,4,489,10,0.0
undo,39,4,0,0,0,28,"[0, 28]",2,21,"[3, 4, 5, 6, 10, 11, 12, 13, 14, 15, 16, 17, 19, 20, 21, 22, 23, 24, 25, 26, 27]",225.9392142,4023,3845,2,216,10,1.0
undo,39,4,0,0,0,14,"[0, 28, 14]",3,13,"[3, 4, 5, 6, 11, 13, 16, 17, 20, 21, 22, 24, 25]",159.6972335,5504,1481,1,26,10,1.0273973946789214
undo,39,4,0,0,0,25,"[0, 28, 14, 25]",4,12,"[3, 4, 5, 6, 11, 13, 16, 17, 20, 21, 22, 24]",143.572718,6416,912,1,25,10,1.233547772313525
undo,39,4,0,0,0,11,"[0, 28, 14, 25, 11]",5,10,"[3, 4, 5, 6, 13, 16, 17, 20, 21, 22]",124.7844238,7286,870,1,15,10,1.425978575879479
undo,39,4,0,0,0,16,"[0, 28, 14, 25, 11, 16]",6,9,"[3, 4, 5, 6, 13, 17, 20, 21, 22]",109.7844238,9120,1834,1,12,10,1.3799325158051412
undo,39,4,0,0,0,3,"[0, 28, 14, 25, 11, 16, 3]",7,2,"[17, 20]",68.15510719,10925,1805,1,1,9,1.3292844629725955
undo,39,4,0,0,0,17,"[0, 28, 14, 25, 11, 16, 3, 17]",8,1,[20],43.63980585,12053,1128,1,0,9,1.5639571149270572
undo,39,4,0,0,1,20,"[0, 28, 14, 25, 11, 16, 3, 17, 20]",9,0,[],3.415435124,13464,1411,1,0,9,1.6231058358944275
undo,39,4,0,1,1,20,"[0, 28, 14, 25, 11, 16, 3, 17, 20]",9,0,[],3.415435124,15876,2412,1,0,9,1.6231058358944275
undo,40,44,0,0,0,0,[0],1,29,"[1, 2, 3, 4, 5, 6, 7, 8, 9, 10, 11, 12, 13, 14, 15, 16, 17, 18, 19, 20, 21, 22, 23, 24, 25, 26, 27, 28, 29]",300,178,-1,13,126,7,0.0
undo,40,44,0,0,0,8,"[0, 8]",2,17,"[1, 4, 5, 7, 9, 10, 11, 12, 13, 14, 15, 20, 21, 23, 24, 25, 27]",145.7923478,5539,5361,1,10,7,1.0
undo,40,44,0,0,0,20,"[0, 8, 20]",3,16,"[1, 4, 5, 7, 9, 10, 11, 12, 13, 14, 15, 21, 23, 24, 25, 27]",133.7093018,6533,994,1,9,7,1.0890794433668698
undo,40,44,0,0,0,9,"[0, 8, 20, 9]",4,7,"[4, 7, 11, 12, 14, 23, 24]",76.43801756,7656,1123,1,6,7,1.40892325509949
undo,40,44,0,0,0,24,"[0, 8, 20, 9, 24]",5,2,"[4, 11]",43.68133886,9202,1546,2,0,6,1.70572353022166
undo,40,44,0,0,1,11,"[0, 8, 20, 9, 24, 11]",6,0,[],16.75551482,10307,1105,1,0,6,1.9239417911005514
undo,40,44,0,1,1,11,"[0, 8, 20, 9, 24, 11]",6,0,[],16.75551482,12332,2025,1,0,6,1.9239417911005514
undo,41,18,0,0,0,0,[0],1,28,"[1, 2, 3, 4, 5, 6, 7, 8, 9, 10, 11, 12, 13, 14, 16, 17, 18, 19, 20, 21, 22, 23, 24, 25, 26, 27, 28, 29]",300,170,-1,3,136,10,0.0
undo,41,18,0,0,0,25,"[0, 25]",2,22,"[1, 2, 3, 4, 5, 7, 8, 9, 10, 12, 13, 14, 16, 18, 19, 20, 21, 23, 24, 26, 27, 28]",239.9916672,16239,16069,7,151,9,1.0
undo,41,18,0,0,0,13,"[0, 25, 13]",3,19,"[1, 2, 3, 5, 7, 8, 9, 10, 12, 14, 16, 18, 19, 20, 21, 23, 26, 27, 28]",194.7147416,19395,3156,1,33,9,1.1199925655455523
undo,41,18,0,0,0,8,"[0, 25, 13, 8]",4,12,"[1, 3, 5, 7, 9, 12, 14, 16, 23, 26, 27, 28]",173.6197184,20428,1033,15,34,8,1.336030371798922
undo,41,18,0,0,0,14,"[0, 25, 13, 8, 14]",5,10,"[3, 5, 7, 9, 12, 16, 23, 26, 27, 28]",140.0191232,21834,1406,7,11,8,1.4269794194315928
undo,41,18,0,0,0,3,"[0, 25, 13, 8, 14, 3]",6,5,"[5, 7, 12, 27, 28]",109.9359053,22710,876,5,2,8,1.5531098200459086
undo,41,18,0,0,0,5,"[0, 25, 13, 8, 14, 3, 5]",7,2,"[12, 27]",51.75515247,23795,1085,2,0,8,1.3889250060994138
undo,41,18,0,0,1,12,"[0, 25, 13, 8, 14, 3, 5, 12]",8,0,[],40.35339822,25245,1450,1,0,8,1.3994122411393808
undo,41,18,0,1,1,12,"[0, 25, 13, 8, 14, 3, 5, 12]",8,0,[],40.35339822,26654,1409,1,0,8,1.3994122411393808
undo,42,7,0,0,0,0,[0],1,29,"[1, 2, 3, 4, 5, 6, 7, 8, 9, 10, 11, 12, 13, 14, 15, 16, 17, 18, 19, 20, 21, 22, 23, 24, 25, 26, 27, 28, 29]",300,201,-1,3,79,9,0.0
undo,42,7,0,0,0,15,"[0, 15]",2,19,"[2, 4, 5, 6, 7, 8, 9, 10, 13, 14, 16, 18, 19, 20, 21, 23, 25, 27, 28]",230.9348134,4731,4530,2,38,9,1.0
undo,42,7,0,0,0,6,"[0, 15, 6]",3,18,"[2, 4, 5, 7, 8, 9, 10, 13, 14, 16, 18, 19, 20, 21, 23, 25, 27, 28]",205.854941,7072,2341,2,36,9,1.366719602896943
undo,42,7,0,0,0,25,"[0, 15, 6, 25]",4,11,"[2, 4, 7, 13, 14, 16, 18, 19, 20, 21, 23]",138.6760753,8653,1581,2,28,9,1.3624631728355765
undo,42,7,0,0,0,4,"[0, 15, 6, 25, 4]",5,7,"[2, 7, 13, 16, 18, 19, 20]",113.9374415,10161,1508,2,12,9,1.3249684384385587
undo,42,7,0,0,0,20,"[0, 15, 6, 25, 4, 20]",6,5,"[2, 7, 13, 18, 19]",94.29055881,11286,1125,1,6,9,1.3721893242679268
undo,42,7,0,0,0,18,"[0, 15, 6, 25, 4, 20, 18]",7,3,"[7, 13, 19]",81.48431034,12281,995,1,2,9,1.5262542308371432
undo,42,7,0,0,0,7,"[0, 15, 6, 25, 4, 20, 18, 7]",8,1,[19],40.25325408,13791,1510,1,0,9,1.41986878673423
undo,42,7,0,0,1,19,"[0, 15, 6, 25, 4, 20, 18, 7, 19]",9,0,[],10.84237174,15231,1440,1,0,9,1.5285658163212987
undo,42,7,0,1,1,19,"[0, 15, 6, 25, 4, 20, 18, 7, 19]",9,0,[],10.84237174,16863,1632,1,0,9,1.5285658163212987
undo,43,31,0,0,0,0,[0],1,27,"[1, 3, 4, 5, 6, 7, 8, 10, 11, 12, 13, 14, 15, 16, 17, 18, 19, 20, 21, 22, 23, 24, 25, 26, 27, 28, 29]",300,198,-1,2,87,10,0.0
undo,43,31,0,0,0,14,"[0, 14]",2,25,"[1, 3, 5, 6, 7, 8, 10, 11, 12, 13, 15, 16, 17, 18, 19, 20, 21, 22, 23, 24, 25, 26, 27, 28, 29]",263.861378,3519,3321,2,59,10,1.0
undo,43,31,0,0,0,27,"[0, 14, 27]",3,22,"[1, 3, 5, 6, 7, 8, 10, 11, 12, 13, 15, 16, 17, 18, 19, 20, 21, 22, 24, 25, 28, 29]",235.6833724,5364,1845,1,39,10,1.5881859159302467
undo,43,31,0,0,0,8,"[0, 14, 27, 8]",4,20,"[1, 3, 5, 6, 7, 10, 11, 12, 13, 16, 17, 18, 19, 20, 21, 22, 24, 25, 28, 29]",224.6380114,6773,1409,1,36,10,2.1665048452331277
undo,43,31,0,0,0,18,"[0, 14, 27, 8, 18]",5,15,"[1, 5, 6, 7, 11, 12, 13, 16, 17, 19, 20, 22, 25, 28, 29]",188.7911147,9189,2416,1,26,10,1.7273375741920205
undo,43,31,0,0,0,17,"[0, 14, 27, 8, 18, 17]",6,13,"[1, 5, 6, 7, 11, 12, 13, 16, 19, 20, 22, 25, 28]",159.584951,10691,1502,1,13,10,1.551192427769927
undo,43,31,0,0,0,11,"[0, 14, 27, 8, 18, 17, 11]",7,7,"[5, 12, 16, 19, 22, 25, 28]",118.4753414,11891,1200,1,4,10,2.9650760544203494
undo,43,31,0,0,0,5,"[0, 14, 27, 8, 18, 17, 11, 5]",8,2,"[16, 28]",74.79468207,13214,1323,1,1,10,2.56711965625205
undo,43,31,0,0,0,28,"[0, 14, 27, 8, 18, 17, 11, 5, 28]",9,1,[16],54.57093365,14235,1021,1,0,10,2.2865510762058148
undo,43,31,0,0,1,16,"[0, 14, 27, 8, 18, 17, 11, 5, 28, 16]",10,0,[],20.95546102,15647,1412,1,0,10,2.089356850786318
undo,43,31,0,1,1,16,"[0, 14, 27, 8, 18, 17, 11, 5, 28, 16]",10,0,[],20.95546102,17513,1866,1,0,10,2.089356850786318
undo,44,34,0,0,0,0,[0],1,25,"[1, 3, 4, 5, 6, 7, 8, 9, 10, 11, 12, 13, 15, 18, 19, 20, 21, 22, 23, 24, 25, 26, 27, 28, 29]",300,188,-1,12,367,10,0.0
undo,44,34,0,0,0,13,"[0, 13]",2,24,"[1, 3, 4, 5, 6, 7, 8, 9, 10, 11, 12, 15, 18, 19, 20, 21, 22, 23, 24, 25, 26, 27, 28, 29]",279.9750156,2268,2080,12,331,10,1.0
undo,44,34,0,0,0,1,"[0, 13, 1]",3,16,"[3, 5, 7, 8, 9, 10, 11, 12, 19, 21, 22, 23, 24, 25, 27, 29]",211.8574701,3815,1547,3,92,10,1.0010381285747127
undo,44,34,0,0,0,8,"[0, 13, 1, 8]",4,14,"[3, 5, 7, 9, 10, 11, 12, 19, 22, 23, 24, 25, 27, 29]",201.0871405,4423,608,2,54,10,1.1636807
undo,44,34,0,0,0,25,"[0, 13, 1, 8, 25]",5,12,"[3, 5, 7, 9, 10, 11, 12, 22, 23, 24, 27, 29]",183.999133,7847,3424,2,28,10,1.1396208815936457
undo,44,34,0,0,0,24,"[0, 13, 1, 8, 25, 24]",6,11,"[3, 5, 7, 9, 10, 11, 12, 22, 23, 27, 29]",166.5062774,8929,1082,2,23,10,1.374180768736554
undo,44,34,0,0,0,12,"[0, 13, 1, 8, 25, 24, 12]",7,7,"[7, 9, 10, 11, 22, 23, 27]",115.4670767,10472,1543,1,8,10,1.4994254760835948
undo,44,34,0,0,0,7,"[0, 13, 1, 8, 25, 24, 12, 7]",8,5,"[9, 11, 22, 23, 27]",100.4337804,11869,1397,1,4,10,1.758992610425009
undo,44,34,0,0,0,23,"[0, 13, 1, 8, 25, 24, 12, 7, 23]",9,1,[27],72.27352467,12886,1017,1,0,10,2.399781305190153
undo,44,34,0,0,1,27,"[0, 13, 1, 8, 25, 24, 12, 7, 23, 27]",10,0,[],18.60789321,13968,1082,1,0,10,4.766619878750327
undo,44,34,0,1,1,27,"[0, 13, 1, 8, 25, 24, 12, 7, 23, 27]",10,0,[],18.60789321,15396,1428,1,0,10,4.766619878750327
undo,45,43,0,0,0,0,[0],1,23,"[1, 2, 3, 4, 5, 6, 7, 9, 10, 11, 12, 14, 15, 16, 17, 19, 20, 21, 22, 23, 25, 27, 29]",300,195,-1,16,556,12,0.0
undo,45,43,0,0,0,29,"[0, 29]",2,22,"[1, 2, 3, 4, 5, 6, 7, 9, 10, 11, 12, 14, 15, 16, 17, 19, 20, 21, 22, 23, 25, 27]",277.909278,2587,2392,16,520,12,1.0
undo,45,43,0,0,0,20,"[0, 29, 20]",3,20,"[1, 2, 3, 4, 6, 7, 9, 10, 11, 12, 14, 15, 16, 17, 19, 21, 22, 23, 25, 27]",254.4785289,3903,1316,15,422,12,1.082311746871282
undo,45,43,0,0,0,16,"[0, 29, 20, 16]",4,19,"[1, 2, 3, 4, 6, 7, 9, 10, 11, 12, 14, 15, 17, 19, 21, 22, 23, 25, 27]",231.8511119,4770,867,15,389,12,1.215201926898219
undo,45,43,0,0,0,25,"[0, 29, 20, 16, 25]",5,14,"[1, 2, 3, 4, 6, 7, 9, 11, 12, 14, 15, 19, 22, 23]",175.7708124,8655,3885,53,282,11,1.566384303308987
undo,45,43,0,0,0,15,"[0, 29, 20, 16, 25, 15]",6,13,"[1, 2, 3, 4, 6, 7, 9, 11, 12, 14, 19, 22, 23]",153.0992443,10207,1552,27,108,11,1.776736412604812
undo,45,43,0,0,0,12,"[0, 29, 20, 16, 25, 15, 12]",7,10,"[1, 3, 6, 7, 9, 11, 14, 19, 22, 23]",133.7860364,12174,1967,21,41,11,1.6813323012225032
undo,45,43,0,0,0,3,"[0, 29, 20, 16, 25, 15, 12, 3]",8,9,"[1, 6, 7, 9, 11, 14, 19, 22, 23]",120.7860364,13119,945,20,12,11,1.608740348096123
undo,45,43,0,0,0,22,"[0, 29, 20, 16, 25, 15, 12, 3, 22]",9,6,"[1, 6, 7, 11, 14, 19]",86.07292644,16158,3039,9,2,11,1.793657891802588
undo,45,43,0,0,0,19,"[0, 29, 20, 16, 25, 15, 12, 3, 22, 19]",10,3,"[1, 6, 7]",65.45739831,17401,1243,3,0,11,1.6882745891803936
undo,45,43,0,0,1,1,"[0, 29, 20, 16, 25, 15, 12, 3, 22, 19, 1]",11,0,[],37.2793927,19606,2205,1,0,11,1.825064866046553
undo,45,43,0,1,1,1,"[0, 29, 20, 16, 25, 15, 12, 3, 22, 19, 1]",11,0,[],37.2793927,22464,2858,1,0,11,1.825064866046553
undo,46,42,0,0,0,0,[0],1,29,"[1, 2, 3, 4, 5, 6, 7, 8, 9, 10, 11, 12, 13, 14, 15, 16, 17, 18, 19, 20, 21, 22, 23, 24, 25, 26, 27, 28, 29]",300,252,-1,16,302,9,0.0
undo,46,42,0,0,0,5,"[0, 5]",2,28,"[1, 2, 3, 4, 6, 7, 8, 9, 10, 11, 12, 13, 14, 15, 16, 17, 18, 19, 20, 21, 22, 23, 24, 25, 26, 27, 28, 29]",191.2939744,5968,5716,1,22,9,1.0
undo,46,42,0,0,0,4,"[0, 5, 4]",3,23,"[1, 2, 3, 6, 7, 8, 9, 10, 11, 13, 15, 17, 18, 19, 20, 21, 22, 23, 24, 25, 26, 27, 29]",171.4445412,6839,871,1,14,9,1.420957801478707
undo,46,42,0,0,0,22,"[0, 5, 4, 22]",4,20,"[1, 2, 3, 6, 7, 8, 9, 11, 15, 17, 18, 19, 20, 21, 23, 24, 25, 26, 27, 29]",160.2642013,7809,970,1,11,9,1.5771494659680896
undo,46,42,0,0,0,8,"[0, 5, 4, 22, 8]",5,14,"[1, 2, 3, 6, 7, 11, 15, 18, 19, 24, 25, 26, 27, 29]",138.1282577,9671,1862,1,10,9,1.5055393955524201
undo,46,42,0,0,0,1,"[0, 5, 4, 22, 8, 1]",6,5,"[2, 7, 19, 26, 27]",89.03650682,11342,1671,1,7,9,1.3547259083637835
undo,46,42,0,0,0,7,"[0, 5, 4, 22, 8, 1, 7]",7,4,"[2, 19, 26, 27]",59.03650682,12775,1433,1,3,9,1.3909715672447451
undo,46,42,0,0,0,26,"[0, 5, 4, 22, 8, 1, 7, 26]",8,1,[27],32.46584631,14142,1367,1,0,9,1.3511825943939393
undo,46,42,0,0,1,27,"[0, 5, 4, 22, 8, 1, 7, 26, 27]",9,0,[],14.43808994,15535,1393,1,0,9,1.3391911688802078
undo,46,42,0,1,1,27,"[0, 5, 4, 22, 8, 1, 7, 26, 27]",9,0,[],14.43808994,16862,1327,1,0,9,1.3391911688802078
undo,47,0,0,0,0,0,[0],1,27,"[2, 3, 4, 5, 6, 7, 8, 9, 10, 11, 12, 13, 14, 15, 16, 17, 19, 20, 21, 22, 23, 24, 25, 26, 27, 28, 29]",300,380,-1,104,1136,9,0.0
undo,47,0,0,0,0,20,"[0, 20]",2,25,"[2, 3, 4, 5, 6, 7, 8, 9, 11, 12, 13, 14, 15, 16, 17, 19, 21, 22, 23, 24, 25, 26, 27, 28, 29]",215.4955622,3121,2741,36,372,9,1.0
undo,47,0,0,0,0,5,"[0, 20, 5]",3,22,"[2, 3, 4, 7, 8, 9, 11, 12, 13, 14, 15, 16, 17, 19, 21, 22, 23, 24, 25, 26, 28, 29]",153.2942761,6173,3052,33,251,9,1.0828244018179105
undo,47,0,0,0,0,26,"[0, 20, 5, 26]",4,16,"[3, 4, 7, 8, 9, 11, 12, 13, 14, 15, 17, 19, 21, 23, 24, 28]",117.8541858,7787,1614,6,51,9,1.1274542855134486
undo,47,0,0,0,0,4,"[0, 20, 5, 26, 4]",5,12,"[3, 7, 8, 9, 11, 12, 15, 17, 19, 23, 24, 28]",105.8125912,8606,819,5,27,9,1.240491272719259
undo,47,0,0,0,0,24,"[0, 20, 5, 26, 4, 24]",6,11,"[3, 7, 8, 9, 11, 12, 15, 17, 19, 23, 28]",94.41083696,9638,1032,5,18,9,1.2323106696136763
undo,47,0,0,0,0,15,"[0, 20, 5, 26, 4, 24, 15]",7,7,"[3, 7, 8, 9, 11, 12, 17]",71.0656019,10854,1216,4,5,9,1.2111066506270785
undo,47,0,0,0,0,7,"[0, 20, 5, 26, 4, 24, 15, 7]",8,2,"[3, 8]",40.00115277,11999,1145,2,0,9,1.268226705272871
undo,47,0,0,0,1,8,"[0, 20, 5, 26, 4, 24, 15, 7, 8]",9,0,[],20.89617959,13807,1808,1,0,9,1.2546051164131595
undo,47,0,0,1,1,8,"[0, 20, 5, 26, 4, 24, 15, 7, 8]",9,0,[],20.89617959,15269,1462,1,0,9,1.2546051164131595
undo,48,38,0,0,0,0,[0],1,29,"[1, 2, 3, 4, 5, 6, 7, 8, 9, 10, 11, 12, 13, 14, 15, 16, 17, 18, 19, 20, 21, 22, 23, 24, 25, 26, 27, 28, 29]",300,184,-1,33,506,9,0.0
undo,48,38,0,0,0,15,"[0, 15]",2,24,"[1, 2, 3, 4, 5, 6, 7, 10, 11, 12, 13, 14, 16, 17, 18, 19, 20, 21, 22, 24, 25, 26, 27, 28]",226.6242547,5019,4835,26,315,8,1.0
undo,48,38,0,0,0,4,"[0, 15, 4]",3,21,"[1, 3, 5, 6, 7, 10, 11, 12, 13, 14, 16, 17, 18, 19, 20, 22, 24, 25, 26, 27, 28]",200.6242547,7313,2294,13,104,8,1.4173413634934033
undo,48,38,0,0,0,20,"[0, 15, 4, 20]",4,16,"[3, 5, 6, 7, 11, 13, 14, 16, 17, 18, 19, 22, 24, 26, 27, 28]",166.6831292,8513,1200,6,33,8,2.4756321407912334
undo,48,38,0,0,0,17,"[0, 15, 4, 20, 17]",5,13,"[3, 5, 6, 11, 13, 16, 18, 19, 22, 24, 26, 27, 28]",142.9134005,10455,1942,5,14,8,2.4236103458312424
undo,48,38,0,0,0,19,"[0, 15, 4, 20, 17, 19]",6,7,"[3, 6, 13, 18, 22, 26, 27]",121.5358422,11235,780,4,4,8,2.216988824378052
undo,48,38,0,0,0,27,"[0, 15, 4, 20, 17, 19, 27]",7,2,"[3, 22]",55.67993891,17984,6749,2,0,8,1.684325175705508
undo,48,38,0,0,1,22,"[0, 15, 4, 20, 17, 19, 27, 22]",8,0,[],27.04429679,18791,807,1,0,8,1.5866032032177348
undo,48,38,0,1,1,22,"[0, 15, 4, 20, 17, 19, 27, 22]",8,0,[],27.04429679,19912,1121,1,0,8,1.5866032032177348
undo,49,9,0,0,0,0,[0],1,27,"[1, 3, 4, 5, 6, 7, 8, 9, 10, 11, 13, 14, 15, 16, 17, 18, 19, 20, 21, 22, 23, 24, 25, 26, 27, 28, 29]",300,183,-1,2,182,10,0.0
undo,49,9,0,0,0,25,"[0, 25]",2,24,"[1, 3, 4, 5, 6, 7, 8, 9, 10, 11, 13, 15, 16, 17, 18, 19, 20, 21, 22, 23, 24, 26, 27, 28]",275.9168108,3766,3583,2,104,10,1.0
undo,49,9,0,0,0,8,"[0, 25, 8]",3,23,"[1, 3, 4, 5, 6, 7, 9, 10, 11, 13, 15, 16, 17, 18, 19, 20, 21, 22, 23, 24, 26, 27, 28]",207.9168108,5170,1404,6,96,9,1.4437429617959179
undo,49,9,0,0,0,28,"[0, 25, 8, 28]",4,22,"[1, 3, 4, 5, 6, 7, 9, 10, 11, 13, 15, 16, 17, 18, 19, 20, 21, 22, 23, 24, 26, 27]",197.100157,6118,948,3,47,9,1.3853618380798385
undo,49,9,0,0,0,23,"[0, 25, 8, 28, 23]",5,16,"[3, 4, 5, 7, 9, 10, 11, 16, 17, 18, 19, 20, 21, 22, 26, 27]",172.080165,7502,1384,2,17,9,2.148472359596758
undo,49,9,0,0,0,9,"[0, 25, 8, 28, 23, 9]",6,13,"[3, 4, 5, 7, 10, 11, 18, 19, 20, 21, 22, 26, 27]",149.7194852,8588,1086,2,8,9,2.018142827958472
undo,49,9,0,0,0,26,"[0, 25, 8, 28, 23, 9, 26]",7,4,"[18, 19, 20, 21]",93.07144908,11323,2735,2,2,9,1.7712746597907922
undo,49,9,0,0,0,21,"[0, 25, 8, 28, 23, 9, 26, 21]",8,1,[20],39.16412119,13414,2091,1,0,9,2.200539495070579
undo,49,9,0,0,1,20,"[0, 25, 8, 28, 23, 9, 26, 21, 20]",9,0,[],27.08107522,14604,1190,1,0,9,2.154921576632978
undo,49,9,0,1,1,20,"[0, 25, 8, 28, 23, 9, 26, 21, 20]",9,0,[],27.08107522,16362,1758,1,0,9,2.154921576632978
undo,50,8,0,0,0,0,[0],1,29,"[1, 2, 3, 4, 5, 6, 7, 8, 9, 10, 11, 12, 13, 14, 15, 16, 17, 18, 19, 20, 21, 22, 23, 24, 25, 26, 27, 28, 29]",300,172,-1,10,149,9,0.0
undo,50,8,0,0,0,5,"[0, 5]",2,28,"[1, 2, 3, 4, 6, 7, 8, 9, 10, 11, 12, 13, 14, 15, 16, 17, 18, 19, 20, 21, 22, 23, 24, 25, 26, 27, 28, 29]",254.5137383,2849,2677,10,100,9,1.0
undo,50,8,0,0,0,14,"[0, 5, 14]",3,20,"[1, 2, 3, 4, 6, 7, 11, 15, 16, 17, 18, 19, 20, 21, 22, 23, 24, 25, 28, 29]",214.5512559,5120,2271,4,36,9,1.0001019035932595
undo,50,8,0,0,0,17,"[0, 5, 14, 17]",4,15,"[1, 4, 6, 7, 11, 15, 16, 18, 19, 20, 22, 23, 24, 25, 28]",177.5377449,6836,1716,4,16,9,1.121197267659591
undo,50,8,0,0,0,11,"[0, 5, 14, 17, 11]",5,11,"[1, 4, 15, 16, 18, 19, 22, 23, 24, 25, 28]",152.3583883,7973,1137,4,8,9,1.1277254166016362
undo,50,8,0,0,0,24,"[0, 5, 14, 17, 11, 24]",6,3,"[15, 16, 28]",115.1428001,9602,1629,2,2,9,1.1227411011978805
undo,50,8,0,0,0,15,"[0, 5, 14, 17, 11, 24, 15]",7,2,"[16, 28]",98.37974552,10480,878,2,0,9,1.1956385406066814
undo,50,8,0,0,0,16,"[0, 5, 14, 17, 11, 24, 15, 16]",8,1,[28],47.30137436,11664,1184,1,0,9,1.36482239111247
undo,50,8,0,0,1,28,"[0, 5, 14, 17, 11, 24, 15, 16, 28]",9,0,[],24.94069458,13181,1517,1,0,9,1.632953105226947
undo,50,8,0,1,1,28,"[0, 5, 14, 17, 11, 24, 15, 16, 28]",9,0,[],24.94069458,14763,1582,1,0,9,1.632953105226947
undo,51,17,0,0,0,0,[0],1,28,"[1, 2, 3, 4, 5, 6, 7, 8, 9, 10, 11, 12, 13, 14, 15, 16, 17, 18, 19, 20, 22, 23, 24, 25, 26, 27, 28, 29]",300,166,-1,2,73,8,0.0
undo,51,17,0,0,0,9,"[0, 9]",2,25,"[1, 2, 3, 5, 6, 7, 8, 10, 11, 12, 14, 15, 16, 17, 18, 19, 20, 22, 23, 24, 25, 26, 27, 28, 29]",210.5293344,3985,3819,1,34,8,1.0
undo,51,17,0,0,0,16,"[0, 9, 16]",3,21,"[1, 2, 3, 5, 7, 8, 10, 11, 12, 14, 17, 18, 19, 20, 22, 23, 25, 26, 27, 28, 29]",197.1876704,5389,1404,1,26,8,1.173103464220352
undo,51,17,0,0,0,2,"[0, 9, 16, 2]",4,18,"[1, 3, 5, 7, 8, 10, 11, 12, 14, 17, 18, 19, 23, 25, 26, 27, 28, 29]",181.0631549,6285,896,1,23,8,1.14825089247282
undo,51,17,0,0,0,17,"[0, 9, 16, 2, 17]",5,7,"[7, 8, 12, 14, 26, 27, 29]",142.7356191,7870,1585,4,5,7,1.4896040699768547
undo,51,17,0,0,0,8,"[0, 9, 16, 2, 17, 8]",6,3,"[7, 12, 27]",104.5256727,9093,1223,3,0,7,1.4604726966175894
undo,51,17,0,0,1,7,"[0, 9, 16, 2, 17, 8, 7]",7,0,[],33.81499459,10115,1022,1,0,7,1.4474701869793896
undo,51,17,0,1,1,7,"[0, 9, 16, 2, 17, 8, 7]",7,0,[],33.81499459,11443,1328,1,0,7,1.4474701869793896
undo,52,11,0,0,0,0,[0],1,25,"[1, 2, 3, 4, 5, 6, 8, 9, 10, 11, 12, 13, 14, 15, 16, 17, 18, 19, 20, 22, 23, 25, 26, 27, 28]",300,213,-1,6,374,12,0.0
undo,52,11,0,0,0,18,"[0, 18]",2,21,"[1, 2, 4, 5, 6, 8, 9, 11, 12, 13, 14, 15, 16, 17, 19, 20, 22, 23, 25, 27, 28]",236.8493864,3264,3051,157,1477,11,1.0
undo,52,11,0,0,0,27,"[0, 18, 27]",3,19,"[1, 2, 4, 5, 6, 8, 9, 11, 12, 14, 15, 16, 17, 19, 20, 22, 23, 25, 28]",212.9956655,4101,837,157,1315,11,1.060949579704323
undo,52,11,0,0,0,17,"[0, 18, 27, 17]",4,14,"[1, 2, 4, 5, 6, 8, 11, 12, 15, 19, 22, 23, 25, 28]",135.9177828,5891,1790,46,349,11,1.1156120043677304
undo,52,11,0,0,0,8,"[0, 18, 27, 17, 8]",5,11,"[1, 2, 5, 6, 11, 12, 15, 19, 22, 25, 28]",121.5999617,6585,694,26,143,11,1.2285932943120847
undo,52,11,0,0,0,15,"[0, 18, 27, 17, 8, 15]",6,9,"[2, 5, 6, 11, 12, 19, 22, 25, 28]",108.1463377,7268,683,24,54,11,1.223015425852291
undo,52,11,0,0,0,11,"[0, 18, 27, 17, 8, 15, 11]",7,6,"[2, 5, 12, 19, 22, 28]",90.03556742,7923,655,22,2,11,1.2111003833550413
undo,52,11,0,0,0,5,"[0, 18, 27, 17, 8, 15, 11, 5]",8,3,"[2, 22, 28]",54.80773752,10506,2583,5,1,11,1.5070858562662883
undo,52,11,0,0,0,28,"[0, 18, 27, 17, 8, 15, 11, 5, 28]",9,2,"[2, 22]",36.9191937,11771,1265,2,0,11,1.5224287982960607
undo,52,11,0,0,0,2,"[0, 18, 27, 17, 8, 15, 11, 5, 28, 2]",10,1,[22],26.28904788,13036,1265,1,0,11,1.5334969671993883
undo,52,11,0,0,1,22,"[0, 18, 27, 17, 8, 15, 11, 5, 28, 2, 22]",11,0,[],16.23917226,14037,1001,1,0,11,1.5050924702228456
undo,52,11,0,1,1,22,"[0, 18, 27, 17, 8, 15, 11, 5, 28, 2, 22]",11,0,[],16.23917226,16980,2943,1,0,11,1.5050924702228456
undo,53,1,0,0,0,0,[0],1,26,"[1, 2, 4, 5, 7, 8, 9, 10, 11, 12, 13, 14, 15, 16, 17, 18, 19, 20, 21, 22, 23, 24, 25, 26, 28, 29]",300,190,-1,6,74,7,0.0
undo,53,1,0,0,0,8,"[0, 8]",2,23,"[1, 4, 5, 7, 9, 10, 11, 12, 13, 14, 15, 16, 17, 18, 19, 20, 21, 23, 24, 25, 26, 28, 29]",202,5269,5079,1,16,7,1.0
undo,53,1,0,0,0,20,"[0, 8, 20]",3,12,"[1, 4, 5, 11, 13, 14, 15, 17, 18, 19, 28, 29]",125.9408125,6435,1166,1,7,7,1.02364736730791
undo,53,1,0,0,0,5,"[0, 8, 20, 5]",4,7,"[1, 4, 11, 13, 17, 18, 29]",104.469902,7799,1364,1,3,7,1.0439599203945713
undo,53,1,0,0,0,18,"[0, 8, 20, 5, 18]",5,2,"[4, 29]",81.64447755,9102,1303,1,1,7,1.0840407791793756
undo,53,1,0,0,0,4,"[0, 8, 20, 5, 18, 4]",6,1,[29],42.69579336,10334,1232,1,0,7,1.0902329133216275
undo,53,1,0,0,1,29,"[0, 8, 20, 5, 18, 4, 29]",7,0,[],6.640280603,13334,3000,1,0,7,1.2859729622882756
undo,53,1,0,1,1,29,"[0, 8, 20, 5, 18, 4, 29]",7,0,[],6.640280603,15230,1896,1,0,7,1.2859729622882756
undo,54,35,0,0,0,0,[0],1,29,"[1, 2, 3, 4, 5, 6, 7, 8, 9, 10, 11, 12, 13, 14, 15, 16, 17, 18, 19, 20, 21, 22, 23, 24, 25, 26, 27, 28, 29]",300,229,-1,5,236,11,0.0
undo,54,35,0,0,0,24,"[0, 24]",2,27,"[1, 2, 4, 5, 6, 7, 8, 9, 10, 11, 12, 13, 14, 15, 16, 17, 18, 19, 20, 21, 22, 23, 25, 26, 27, 28, 29]",268.9838752,3658,3429,49,512,10,1.0
undo,54,35,0,0,0,17,"[0, 24, 17]",3,26,"[1, 2, 4, 5, 6, 7, 8, 9, 10, 11, 12, 13, 14, 15, 16, 18, 19, 20, 21, 22, 23, 25, 26, 27, 28, 29]",257.2791753,4754,1096,33,238,10,1.0771477201815276
undo,54,35,0,0,0,1,"[0, 24, 17, 1]",4,25,"[2, 4, 5, 6, 7, 8, 9, 10, 11, 12, 13, 14, 15, 16, 18, 19, 20, 21, 22, 23, 25, 26, 27, 28, 29]",241.4677869,6868,2114,26,151,10,1.2244804141479215
undo,54,35,0,0,0,15,"[0, 24, 17, 1, 15]",5,23,"[2, 4, 5, 6, 7, 8, 9, 10, 11, 12, 14, 16, 18, 19, 20, 21, 22, 23, 25, 26, 27, 28, 29]",218.6204676,7809,941,26,78,10,1.4642196672428094
undo,54,35,0,0,0,5,"[0, 24, 17, 1, 15, 5]",6,13,"[4, 6, 9, 11, 18, 19, 20, 23, 25, 26, 27, 28, 29]",162.2999563,9105,1296,7,20,10,1.2337505118614283
undo,54,35,0,0,0,23,"[0, 24, 17, 1, 15, 5, 23]",7,4,"[6, 9, 18, 25]",107.8481427,10421,1316,6,6,10,1.8072927740829974
undo,54,35,0,0,0,9,"[0, 24, 17, 1, 15, 5, 23, 9]",8,3,"[6, 18, 25]",70.20508226,11770,1349,2,2,10,2.044176666334238
undo,54,35,0,0,0,18,"[0, 24, 17, 1, 15, 5, 23, 9, 18]",9,2,"[6, 25]",50.18009787,14257,2487,2,0,10,1.942139959218181
undo,54,35,0,0,1,6,"[0, 24, 17, 1, 15, 5, 23, 9, 18, 6]",10,0,[],16.56462524,16188,1931,1,0,10,1.8743036916552862
undo,54,35,0,1,1,6,"[0, 24, 17, 1, 15, 5, 23, 9, 18, 6]",10,0,[],16.56462524,18029,1841,1,0,10,1.8743036916552862
undo,55,6,0,0,0,0,[0],1,29,"[1, 2, 3, 4, 5, 6, 7, 8, 9, 10, 11, 12, 13, 14, 15, 16, 17, 18, 19, 20, 21, 22, 23, 24, 25, 26, 27, 28, 29]",300,179,-1,180,4304,10,0.0
undo,55,6,0,0,0,26,"[0, 26]",2,25,"[1, 2, 3, 4, 5, 6, 7, 8, 9, 10, 11, 12, 13, 14, 15, 16, 17, 18, 20, 21, 22, 23, 24, 27, 29]",250.2606795,4321,4142,45,776,10,1.0
undo,55,6,0,0,0,7,"[0, 26, 7]",3,24,"[1, 2, 3, 4, 5, 6, 8, 9, 10, 11, 12, 13, 14, 15, 16, 17, 18, 20, 21, 22, 23, 24, 27, 29]",226.1774904,5449,1128,25,520,10,1.5373018630243536
undo,55,6,0,0,0,3,"[0, 26, 7, 3]",4,22,"[1, 2, 4, 6, 8, 9, 10, 11, 12, 13, 14, 15, 16, 17, 18, 20, 21, 22, 23, 24, 27, 29]",190.0388684,6421,972,20,235,10,3.2798655773210936
undo,55,6,0,0,0,16,"[0, 26, 7, 3, 16]",5,15,"[1, 2, 6, 10, 13, 14, 17, 18, 20, 21, 22, 23, 24, 27, 29]",143.8003563,9099,2678,3,39,10,2.164019536669599
undo,55,6,0,0,0,18,"[0, 26, 7, 3, 16, 18]",6,10,"[1, 2, 6, 10, 13, 17, 22, 23, 24, 29]",120.4551212,11005,1906,2,15,10,2.9481162560127245
undo,55,6,0,0,0,17,"[0, 26, 7, 3, 16, 18, 17]",7,8,"[2, 6, 10, 13, 22, 23, 24, 29]",106.526733,11633,628,2,8,10,2.7413386825172235
undo,55,6,0,0,0,10,"[0, 26, 7, 3, 16, 18, 17, 10]",8,4,"[6, 23, 24, 29]",86.80365003,12777,1144,2,3,10,2.5276843215308205
undo,55,6,0,0,0,24,"[0, 26, 7, 3, 16, 18, 17, 10, 24]",9,2,"[6, 23]",73.38724217,13270,493,2,0,10,2.329169561976636
undo,55,6,0,0,1,23,"[0, 26, 7, 3, 16, 18, 17, 10, 24, 23]",10,0,[],12.19900801,15725,2455,1,0,10,2.14454631567595
undo,55,6,0,1,1,23,"[0, 26, 7, 3, 16, 18, 17, 10, 24, 23]",10,0,[],12.19900801,18014,2289,1,0,10,2.14454631567595
undo,56,16,0,0,0,0,[0],1,29,"[1, 2, 3, 4, 5, 6, 7, 8, 9, 10, 11, 12, 13, 14, 15, 16, 17, 18, 19, 20, 21, 22, 23, 24, 25, 26, 27, 28, 29]",300,161,-1,13,161,9,0.0
undo,56,16,0,0,0,17,"[0, 17]",2,27,"[1, 2, 3, 4, 5, 7, 8, 9, 10, 11, 12, 13, 14, 15, 16, 18, 19, 20, 21, 22, 23, 24, 25, 26, 27, 28, 29]",241.3058776,5285,5124,2,58,9,1.0
undo,56,16,0,0,0,16,"[0, 17, 16]",3,26,"[1, 2, 3, 4, 5, 7, 8, 9, 10, 11, 12, 13, 14, 15, 18, 19, 20, 21, 22, 23, 24, 25, 26, 27, 28, 29]",212.9862731,6399,1114,2,52,9,1.0529535521792848
undo,56,16,0,0,0,8,"[0, 17, 16, 8]",4,19,"[2, 3, 4, 5, 9, 12, 13, 14, 15, 19, 20, 21, 22, 23, 25, 26, 27, 28, 29]",164.6127266,7268,869,2,38,9,1.0915134501573105
undo,56,16,0,0,0,20,"[0, 17, 16, 8, 20]",5,10,"[3, 4, 5, 9, 12, 13, 15, 19, 21, 25]",106.8372993,8653,1385,1,15,9,1.067523143001942
undo,56,16,0,0,0,25,"[0, 17, 16, 8, 20, 25]",6,7,"[3, 4, 5, 9, 12, 13, 15]",94.18818869,9388,735,1,9,9,1.1170093326933646
undo,56,16,0,0,0,9,"[0, 17, 16, 8, 20, 25, 9]",7,5,"[3, 4, 5, 13, 15]",81.38194021,10172,784,1,4,9,1.1095076562662525
undo,56,16,0,0,0,15,"[0, 17, 16, 8, 20, 25, 9, 15]",8,1,[5],42.48463953,11230,1058,1,0,9,1.213831159678775
undo,56,16,0,0,1,5,"[0, 17, 16, 8, 20, 25, 9, 15, 5]",9,0,[],13.0567616,13310,2080,1,0,9,1.5171779607523481
undo,56,16,0,1,1,5,"[0, 17, 16, 8, 20, 25, 9, 15, 5]",9,0,[],13.0567616,15078,1768,1,0,9,1.5171779607523481
undo,57,25,0,0,0,0,[0],1,28,"[1, 2, 3, 4, 5, 7, 8, 9, 10, 11, 12, 13, 14, 15, 16, 17, 18, 19, 20, 21, 22, 23, 24, 25, 26, 27, 28, 29]",300,158,-1,5,94,10,0.0
undo,57,25,0,0,0,23,"[0, 23]",2,23,"[1, 2, 3, 5, 7, 8, 9, 11, 12, 13, 14, 16, 17, 19, 20, 21, 22, 24, 25, 26, 27, 28, 29]",259.7756293,3856,3698,3,33,10,1.0
undo,57,25,0,0,0,7,"[0, 23, 7]",3,16,"[1, 3, 5, 8, 9, 11, 13, 17, 19, 21, 22, 24, 26, 27, 28, 29]",181.9424744,5735,1879,1,21,9,1.0073109045884563
undo,57,25,0,0,0,24,"[0, 23, 7, 24]",4,10,"[3, 5, 8, 9, 11, 13, 19, 22, 28, 29]",157.1836376,6667,932,1,17,9,1.0161584555781231
undo,57,25,0,0,0,9,"[0, 23, 7, 24, 9]",5,8,"[3, 8, 11, 13, 19, 22, 28, 29]",139.1558812,7596,929,1,16,9,1.0303325523073676
undo,57,25,0,0,0,3,"[0, 23, 7, 24, 9, 3]",6,4,"[8, 11, 13, 28]",108.8903893,8713,1117,1,5,9,1.0321657704271587
undo,57,25,0,0,0,13,"[0, 23, 7, 24, 9, 3, 13]",7,2,"[8, 28]",77.6493906,10567,1854,1,1,9,1.1031543757060376
undo,57,25,0,0,0,28,"[0, 23, 7, 24, 9, 3, 13, 28]",8,1,[8],43.41490506,12099,1532,1,0,9,1.1857356956374323
undo,57,25,0,0,1,8,"[0, 23, 7, 24, 9, 3, 13, 28, 8]",9,0,[],2.807024055,13240,1141,1,0,9,1.486169242046657
undo,57,25,0,1,1,8,"[0, 23, 7, 24, 9, 3, 13, 28, 8]",9,0,[],2.807024055,14728,1488,1,0,9,1.486169242046657
undo,58,2,0,0,0,0,[0],1,23,"[1, 2, 4, 5, 6, 7, 8, 9, 12, 13, 15, 16, 17, 18, 19, 20, 22, 23, 25, 26, 27, 28, 29]",300,176,-1,70,620,10,0.0
undo,58,2,0,0,0,19,"[0, 19]",2,22,"[1, 2, 4, 5, 6, 7, 8, 9, 12, 13, 15, 16, 17, 18, 20, 22, 23, 25, 26, 27, 28, 29]",210.306076,2605,2429,67,431,10,1.0
undo,58,2,0,0,0,12,"[0, 19, 12]",3,17,"[1, 4, 5, 6, 7, 13, 15, 16, 17, 18, 20, 22, 25, 26, 27, 28, 29]",174.2921898,4684,2079,66,298,10,1.1107635036313153
undo,58,2,0,0,0,5,"[0, 19, 12, 5]",4,11,"[1, 6, 7, 13, 15, 16, 18, 22, 25, 26, 29]",144.7625437,6163,1479,38,136,10,1.0968174771581647
undo,58,2,0,0,0,22,"[0, 19, 12, 5, 22]",5,8,"[1, 6, 7, 13, 15, 18, 26, 29]",131.9562952,6835,672,20,63,10,1.0889910507461968
undo,58,2,0,0,0,13,"[0, 19, 12, 5, 22, 13]",6,7,"[1, 6, 7, 15, 18, 26, 29]",117.0902265,7365,530,19,20,10,1.236526217328057
undo,58,2,0,0,0,18,"[0, 19, 12, 5, 22, 13, 18]",7,4,"[7, 15, 26, 29]",81.91921567,9306,1941,10,3,10,1.2128708213409936
undo,58,2,0,0,0,7,"[0, 19, 12, 5, 22, 13, 18, 7]",8,3,"[15, 26, 29]",71.62358553,9755,449,5,0,10,1.2019811287894737
undo,58,2,0,0,0,26,"[0, 19, 12, 5, 22, 13, 18, 7, 26]",9,2,"[15, 29]",48.82007703,10734,979,2,0,10,1.1883593342191134
undo,58,2,0,0,1,15,"[0, 19, 12, 5, 22, 13, 18, 7, 26, 15]",10,0,[],24.61264015,11534,800,1,0,10,1.4619750353663825
undo,58,2,0,1,1,15,"[0, 19, 12, 5, 22, 13, 18, 7, 26, 15]",10,0,[],24.61264015,14245,2711,1,0,10,1.4619750353663825
undo,59,33,0,0,0,0,[0],1,23,"[1, 2, 5, 7, 8, 11, 12, 13, 14, 15, 16, 17, 18, 19, 20, 21, 23, 24, 25, 26, 27, 28, 29]",300,160,-1,5,108,9,0.0
undo,59,33,0,0,0,21,"[0, 21]",2,17,"[2, 5, 7, 8, 11, 13, 14, 16, 17, 18, 19, 20, 24, 26, 27, 28, 29]",174.4611614,10567,10407,21,129,8,1.0
undo,59,33,0,0,0,17,"[0, 21, 17]",3,12,"[2, 7, 11, 13, 14, 16, 18, 19, 20, 24, 26, 29]",135.8218032,11691,1124,3,35,8,1.0302064673538902
undo,59,33,0,0,0,13,"[0, 21, 17, 13]",4,10,"[2, 7, 11, 14, 16, 19, 20, 24, 26, 29]",113.0182947,12954,1263,3,18,8,1.2307555582916028
undo,59,33,0,0,0,19,"[0, 21, 17, 13, 19]",5,6,"[7, 14, 16, 24, 26, 29]",87.52319715,14906,1952,3,6,8,1.267959080158969
undo,59,33,0,0,0,7,"[0, 21, 17, 13, 19, 7]",6,3,"[14, 24, 26]",41.90521823,17418,2512,2,1,8,1.2111387775864462
undo,59,33,0,0,0,14,"[0, 21, 17, 13, 19, 7, 14]",7,1,[26],27.03914949,18996,1578,1,0,8,1.2582047812090849
undo,59,33,0,0,1,26,"[0, 21, 17, 13, 19, 7, 14, 26]",8,0,[],14.39003885,19969,973,1,0,8,1.2624145644521343
undo,59,33,0,1,1,26,"[0, 21, 17, 13, 19, 7, 14, 26]",8,0,[],14.39003885,21346,1377,1,0,8,1.2624145644521343
undo,60,26,0,0,0,0,[0],1,29,"[1, 2, 3, 4, 5, 6, 7, 8, 9, 10, 11, 12, 13, 14, 15, 16, 17, 18, 19, 20, 21, 22, 23, 24, 25, 26, 27, 28, 29]",300,226,-1,9,226,9,0.0
undo,60,26,0,0,0,21,"[0, 21]",2,25,"[2, 3, 4, 5, 6, 7, 8, 10, 11, 12, 13, 14, 15, 16, 17, 18, 19, 22, 23, 24, 25, 26, 27, 28, 29]",211.1349337,3036,2810,7,90,9,1.0
undo,60,26,0,0,0,13,"[0, 21, 13]",3,21,"[3, 4, 5, 6, 7, 8, 10, 11, 12, 14, 15, 16, 17, 18, 19, 22, 23, 24, 25, 26, 29]",188.9989901,5556,2520,6,45,9,1.0103952279992225
undo,60,26,0,0,0,23,"[0, 21, 13, 23]",4,13,"[3, 4, 5, 6, 10, 11, 14, 16, 17, 18, 22, 26, 29]",150.9858345,7004,1448,3,17,9,1.1069410469330032
undo,60,26,0,0,0,16,"[0, 21, 13, 23, 16]",5,7,"[4, 5, 6, 10, 14, 17, 29]",97.75050789,8188,1184,3,13,9,1.8066634000662438
undo,60,26,0,0,0,29,"[0, 21, 13, 23, 16, 29]",6,5,"[4, 6, 10, 14, 17]",73.54307102,9458,1270,3,9,9,1.853342605492142
undo,60,26,0,0,0,4,"[0, 21, 13, 23, 16, 29, 4]",7,3,"[6, 14, 17]",49.54307102,10373,915,2,2,9,2.0664369230924997
undo,60,26,0,0,0,17,"[0, 21, 13, 23, 16, 29, 4, 17]",8,2,"[6, 14]",28.44804791,11749,1376,2,0,9,1.911153301956092
undo,60,26,0,0,1,6,"[0, 21, 13, 23, 16, 29, 4, 17, 6]",9,0,[],8.323436111,13170,1421,1,0,9,1.8160397530442216
undo,60,26,0,1,1,6,"[0, 21, 13, 23, 16, 29, 4, 17, 6]",9,0,[],8.323436111,14980,1810,1,0,9,1.8160397530442216
undo,61,5,0,0,0,0,[0],1,29,"[1, 2, 3, 4, 5, 6, 7, 8, 9, 10, 11, 12, 13, 14, 15, 16, 17, 18, 19, 20, 21, 22, 23, 24, 25, 26, 27, 28, 29]",300,207,-1,5,139,9,0.0
undo,61,5,0,0,0,12,"[0, 12]",2,22,"[2, 4, 5, 6, 8, 9, 10, 13, 14, 15, 16, 17, 18, 19, 21, 22, 23, 24, 25, 26, 27, 28]",228.3062067,3073,2866,1,27,9,1.0
undo,61,5,0,0,0,25,"[0, 12, 25]",3,21,"[2, 4, 5, 6, 8, 9, 10, 13, 14, 15, 16, 17, 18, 19, 21, 22, 23, 24, 26, 27, 28]",200.5213187,4386,1313,1,20,9,1.584023303445617
undo,61,5,0,0,0,23,"[0, 12, 25, 23]",4,19,"[2, 4, 5, 6, 8, 9, 10, 13, 14, 15, 16, 17, 18, 19, 21, 22, 24, 26, 27]",182.0822298,5506,1120,1,14,9,2.3508446989254357
undo,61,5,0,0,0,24,"[0, 12, 25, 23, 24]",5,15,"[2, 4, 5, 6, 8, 9, 13, 14, 15, 17, 18, 19, 22, 26, 27]",158.995437,6570,1064,1,12,9,1.9469752046288753
undo,61,5,0,0,0,17,"[0, 12, 25, 23, 24, 17]",6,7,"[4, 5, 6, 8, 15, 18, 19]",124.0097257,7722,1152,1,8,9,1.6482276497563642
undo,61,5,0,0,0,5,"[0, 12, 25, 23, 24, 17, 5]",7,4,"[4, 6, 15, 18]",80.96323916,8857,1135,1,3,9,1.4654649104389412
undo,61,5,0,0,1,15,"[0, 12, 25, 23, 24, 17, 5, 15]",8,0,[],40.93824697,10073,1216,1,0,8,1.4660376450939663
undo,61,5,0,1,1,15,"[0, 12, 25, 23, 24, 17, 5, 15]",8,0,[],40.93824697,11863,1790,1,0,8,1.4660376450939663
undo,62,20,0,0,0,0,[0],1,21,"[1, 2, 3, 4, 5, 6, 7, 8, 9, 12, 17, 18, 20, 21, 22, 23, 25, 26, 27, 28, 29]",300,165,-1,1,9,9,0.0
undo,62,20,0,0,0,3,"[0, 3]",2,8,"[4, 7, 17, 18, 20, 22, 25, 29]",133.1797374,3006,2841,10,7,5,1.0
undo,62,20,0,0,0,18,"[0, 3, 18]",3,3,"[7, 17, 25]",83.01999263,3873,867,3,0,5,1.1774147841734959
undo,62,20,0,0,0,17,"[0, 3, 18, 17]",4,1,[25],40.00836629,5467,1594,1,0,5,1.276294867023032
undo,62,20,0,0,1,25,"[0, 3, 18, 17, 25]",5,0,[],15.92517713,6455,988,1,0,5,1.248333870689515
undo,62,20,0,1,1,25,"[0, 3, 18, 17, 25]",5,0,[],15.92517713,8029,1574,1,0,5,1.248333870689515
undo,63,22,0,0,0,0,[0],1,29,"[1, 2, 3, 4, 5, 6, 7, 8, 9, 10, 11, 12, 13, 14, 15, 16, 17, 18, 19, 20, 21, 22, 23, 24, 25, 26, 27, 28, 29]",300,195,-1,31,704,9,0.0
undo,63,22,0,0,0,16,"[0, 16]",2,21,"[1, 3, 6, 7, 8, 9, 11, 13, 14, 15, 17, 18, 19, 20, 21, 22, 24, 25, 27, 28, 29]",218.605897,4124,3929,17,147,9,1.0
undo,63,22,0,0,0,28,"[0, 16, 28]",3,13,"[6, 7, 9, 13, 14, 17, 19, 20, 21, 22, 24, 25, 29]",184.1675463,4853,729,12,61,9,1.047282311284478
undo,63,22,0,0,0,6,"[0, 16, 28, 6]",4,12,"[7, 9, 13, 14, 17, 19, 20, 21, 22, 24, 25, 29]",154.1675463,5821,968,12,43,9,1.645645870580622
undo,63,22,0,0,0,9,"[0, 16, 28, 6, 9]",5,8,"[7, 14, 17, 19, 20, 21, 24, 29]",127.5404924,6855,1034,8,17,9,1.925750226630103
undo,63,22,0,0,0,19,"[0, 16, 28, 6, 9, 19]",6,6,"[7, 14, 17, 21, 24, 29]",107.1444143,8057,1202,3,7,9,2.4220750331476455
undo,63,22,0,0,0,29,"[0, 16, 28, 6, 9, 19, 29]",7,4,"[7, 14, 17, 24]",92.11111796,9129,1072,2,2,9,2.6996279574991067
undo,63,22,0,0,0,14,"[0, 16, 28, 6, 9, 19, 29, 14]",8,1,[7],33.86165444,10257,1128,1,0,9,2.0544639927929462
undo,63,22,0,0,1,7,"[0, 16, 28, 6, 9, 19, 29, 14, 7]",9,0,[],20.82324963,11035,778,1,0,9,2.219817088951114
undo,63,22,0,1,1,7,"[0, 16, 28, 6, 9, 19, 29, 14, 7]",9,0,[],20.82324963,13732,2697,1,0,9,2.219817088951114
undo,64,45,0,0,0,0,[0],1,24,"[1, 2, 3, 4, 5, 6, 7, 9, 10, 11, 12, 14, 15, 16, 17, 19, 20, 21, 22, 23, 24, 25, 27, 29]",300,170,-1,6,248,10,0.0
undo,64,45,0,0,0,15,"[0, 15]",2,23,"[1, 2, 3, 4, 5, 6, 7, 9, 10, 11, 12, 14, 16, 17, 19, 20, 21, 22, 23, 24, 25, 27, 29]",253.9022777,4705,4535,5,207,10,1.0
undo,64,45,0,0,0,23,"[0, 15, 23]",3,22,"[1, 2, 3, 4, 5, 6, 7, 9, 10, 11, 12, 14, 16, 17, 19, 20, 21, 22, 24, 25, 27, 29]",230.3014303,5490,785,5,163,10,1.0006068457769497
undo,64,45,0,0,0,20,"[0, 15, 23, 20]",4,19,"[1, 2, 3, 5, 6, 7, 9, 10, 11, 12, 14, 16, 17, 19, 21, 22, 24, 25, 29]",188.8647316,7289,1799,5,137,10,1.2062119754673604
undo,64,45,0,0,0,10,"[0, 15, 23, 20, 10]",5,12,"[2, 3, 6, 7, 9, 12, 14, 17, 22, 24, 25, 29]",132.784432,8304,1015,1,54,10,1.1363907740691004
undo,64,45,0,0,0,6,"[0, 15, 23, 20, 10, 6]",6,7,"[2, 3, 7, 12, 22, 24, 29]",106.5356225,10731,2427,20,9,9,1.12325622461992
undo,64,45,0,0,0,12,"[0, 15, 23, 20, 10, 6, 12]",7,4,"[2, 3, 22, 29]",86.4110107,11800,1069,6,1,9,1.1241525752631578
undo,64,45,0,0,0,22,"[0, 15, 23, 20, 10, 6, 12, 22]",8,2,"[3, 29]",54.83570389,13171,1371,2,0,9,1.1537558546242075
undo,64,45,0,0,1,3,"[0, 15, 23, 20, 10, 6, 12, 22, 3]",9,0,[],11.37307626,14938,1767,1,0,9,1.6089547146201597
undo,64,45,0,1,1,3,"[0, 15, 23, 20, 10, 6, 12, 22, 3]",9,0,[],11.37307626,17532,2594,1,0,9,1.6089547146201597
undo,65,37,0,0,0,0,[0],1,29,"[1, 2, 3, 4, 5, 6, 7, 8, 9, 10, 11, 12, 13, 14, 15, 16, 17, 18, 19, 20, 21, 22, 23, 24, 25, 26, 27, 28, 29]",300,207,-1,6,168,10,0.0
undo,65,37,0,0,0,19,"[0, 19]",2,19,"[1, 2, 4, 5, 6, 7, 9, 10, 11, 15, 17, 18, 20, 21, 22, 25, 26, 28, 29]",185.6627795,3268,3061,25,244,9,1.0
undo,65,37,0,0,0,21,"[0, 19, 21]",3,14,"[1, 2, 4, 7, 10, 11, 15, 17, 18, 20, 22, 25, 26, 29]",144.5531699,4073,805,10,75,9,1.001632816594558
undo,65,37,0,0,0,15,"[0, 19, 21, 15]",4,9,"[1, 2, 4, 7, 18, 20, 22, 26, 29]",129.5531699,4852,779,5,32,9,1.0243376499143988
undo,65,37,0,0,0,20,"[0, 19, 21, 15, 20]",5,8,"[1, 2, 4, 7, 18, 22, 26, 29]",112.5531699,5423,571,5,14,9,1.250507291508492
undo,65,37,0,0,0,1,"[0, 19, 21, 15, 20, 1]",6,6,"[2, 4, 7, 18, 22, 26]",78.31868434,6321,898,4,4,9,1.4002166443864243
undo,65,37,0,0,0,4,"[0, 19, 21, 15, 20, 1, 4]",7,2,"[2, 22]",60.5986392,6952,631,2,0,9,1.472939356650523
undo,65,37,0,0,0,2,"[0, 19, 21, 15, 20, 1, 4, 2]",8,1,[22],49.19688495,7499,547,1,0,9,1.6590570350137948
undo,65,37,0,0,1,22,"[0, 19, 21, 15, 20, 1, 4, 2, 22]",9,0,[],21.53825157,9072,1573,1,0,9,1.7098673138592275
undo,65,37,0,1,1,22,"[0, 19, 21, 15, 20, 1, 4, 2, 22]",9,0,[],21.53825157,10613,1541,1,0,9,1.7098673138592275
undo,66,32,0,0,0,0,[0],1,29,"[1, 2, 3, 4, 5, 6, 7, 8, 9, 10, 11, 12, 13, 14, 15, 16, 17, 18, 19, 20, 21, 22, 23, 24, 25, 26, 27, 28, 29]",300,163,-1,17,359,10,0.0
undo,66,32,0,0,0,19,"[0, 19]",2,28,"[1, 2, 3, 4, 5, 6, 7, 8, 9, 10, 11, 12, 13, 14, 15, 16, 17, 18, 20, 21, 22, 23, 24, 25, 26, 27, 28, 29]",283.5075775,3370,3207,16,294,10,1.0
undo,66,32,0,0,0,15,"[0, 19, 15]",3,21,"[2, 3, 5, 7, 8, 9, 10, 11, 12, 13, 14, 16, 17, 20, 22, 23, 24, 25, 26, 27, 28]",197.7987681,4386,1016,2,52,10,1.19699508325577
undo,66,32,0,0,0,28,"[0, 19, 15, 28]",4,19,"[2, 3, 5, 7, 8, 9, 10, 11, 12, 13, 16, 17, 20, 22, 23, 24, 25, 26, 27]",186.3970139,5287,901,2,41,10,1.1739755297768444
undo,66,32,0,0,0,12,"[0, 19, 15, 28, 12]",5,17,"[2, 3, 5, 7, 8, 9, 10, 11, 13, 16, 17, 20, 22, 23, 24, 26, 27]",167.4233479,6389,1102,2,25,10,1.177540715424265
undo,66,32,0,0,0,16,"[0, 19, 15, 28, 12, 16]",6,16,"[2, 3, 5, 7, 8, 9, 10, 11, 13, 17, 20, 22, 23, 24, 26, 27]",151.7708721,6948,559,2,17,10,1.2623133279216439
undo,66,32,0,0,0,22,"[0, 19, 15, 28, 12, 16, 22]",7,10,"[2, 3, 5, 8, 9, 10, 11, 17, 20, 27]",117.9330235,7791,843,2,7,10,1.2893434049314008
undo,66,32,0,0,0,9,"[0, 19, 15, 28, 12, 16, 22, 9]",8,4,"[2, 8, 17, 20]",95.72942015,8683,892,2,2,10,1.3492394817468627
undo,66,32,0,0,0,2,"[0, 19, 15, 28, 12, 16, 22, 9, 2]",9,1,[17],44.64126105,10039,1356,1,0,10,1.760592394779365
undo,66,32,0,0,1,17,"[0, 19, 15, 28, 12, 16, 22, 9, 2, 17]",10,0,[],4.829202579,11754,1715,1,0,10,2.6120286725511583
undo,66,32,0,1,1,17,"[0, 19, 15, 28, 12, 16, 22, 9, 2, 17]",10,0,[],4.829202579,14895,3141,1,0,10,2.6120286725511583
undo,67,10,0,0,0,0,[0],1,29,"[1, 2, 3, 4, 5, 6, 7, 8, 9, 10, 11, 12, 13, 14, 15, 16, 17, 18, 19, 20, 21, 22, 23, 24, 25, 26, 27, 28, 29]",300,205,-1,1,100,9,0.0
undo,67,10,0,0,0,13,"[0, 13]",2,25,"[1, 2, 3, 4, 6, 7, 8, 9, 10, 11, 12, 14, 17, 18, 19, 20, 21, 22, 23, 24, 25, 26, 27, 28, 29]",249.4628849,8173,7968,1,79,9,1.0
undo,67,10,0,0,0,11,"[0, 13, 11]",3,20,"[1, 2, 3, 6, 7, 8, 9, 10, 12, 14, 18, 19, 20, 21, 22, 24, 26, 27, 28, 29]",206.4512586,8973,800,1,54,9,1.0313137484914219
undo,67,10,0,0,0,19,"[0, 13, 11, 19]",4,11,"[2, 6, 8, 9, 10, 14, 18, 20, 24, 26, 27]",170.0919407,9741,768,1,22,9,1.0879446220132545
undo,67,10,0,0,0,2,"[0, 13, 11, 19, 2]",5,4,"[14, 20, 26, 27]",126.1829439,11140,1399,1,4,9,1.06474052351343
undo,67,10,0,0,0,14,"[0, 13, 11, 19, 2, 14]",6,3,"[20, 26, 27]",114.0174188,12926,1786,1,3,9,1.1628909195912238
undo,67,10,0,0,0,26,"[0, 13, 11, 19, 2, 14, 26]",7,2,"[20, 27]",79.34754716,14302,1376,1,1,9,1.6660727647633602
undo,67,10,0,0,0,20,"[0, 13, 11, 19, 2, 14, 26, 20]",8,1,[27],47.56704999,15240,938,1,0,9,2.085581809637999
undo,67,10,0,0,1,27,"[0, 13, 11, 19, 2, 14, 26, 20, 27]",9,0,[],2.312215998,17621,2381,1,0,9,1.9116357409137932
undo,67,10,0,1,1,27,"[0, 13, 11, 19, 2, 14, 26, 20, 27]",9,0,[],2.312215998,18867,1246,1,0,9,1.9116357409137932
undo,68,28,0,0,0,0,[0],1,27,"[1, 2, 3, 4, 5, 6, 7, 8, 9, 10, 11, 12, 13, 14, 15, 16, 17, 18, 19, 20, 22, 23, 25, 26, 27, 28, 29]",300,215,-1,2,96,9,0.0
undo,68,28,0,0,0,14,"[0, 14]",2,14,"[1, 2, 3, 5, 7, 10, 11, 12, 13, 17, 18, 19, 20, 26]",147.8914861,2868,2653,1,26,8,1.0
undo,68,28,0,0,0,18,"[0, 14, 18]",3,11,"[1, 2, 3, 5, 7, 11, 12, 13, 17, 19, 26]",122.3963885,4117,1249,1,23,8,1.0675599824559303
undo,68,28,0,0,0,13,"[0, 14, 18, 13]",4,7,"[2, 7, 11, 12, 17, 19, 26]",97.9832773,5702,1585,1,9,8,1.0602397944415018
undo,68,28,0,0,0,12,"[0, 14, 18, 13, 12]",5,4,"[2, 7, 17, 19]",80.77862677,7205,1503,1,3,8,1.0640685934245377
undo,68,28,0,0,0,7,"[0, 14, 18, 13, 12, 7]",6,2,"[2, 19]",67.62568033,7837,632,1,1,8,1.186262804928269
undo,68,28,0,0,0,19,"[0, 14, 18, 13, 12, 7, 19]",7,1,[2],39.89483108,9566,1729,1,0,8,1.424576333867947
undo,68,28,0,0,1,2,"[0, 14, 18, 13, 12, 7, 19, 2]",8,0,[],2.531747699,11902,2336,1,0,8,1.4824387893309579
undo,68,28,0,1,1,2,"[0, 14, 18, 13, 12, 7, 19, 2]",8,0,[],2.531747699,13229,1327,1,0,8,1.4824387893309579
basic,69,33,0,0,0,0,[0],1,23,"[1, 2, 5, 7, 8, 11, 12, 13, 14, 15, 16, 17, 18, 19, 20, 21, 23, 24, 25, 26, 27, 28, 29]",300,183,-1,5,108,9,0.0
basic,69,33,0,0,0,8,"[0, 8]",2,22,"[1, 2, 5, 7, 11, 12, 13, 14, 15, 16, 17, 18, 19, 20, 21, 23, 24, 25, 26, 27, 28, 29]",265.8679037,3811,3628,5,87,9,1.0
basic,69,33,0,0,0,21,"[0, 8, 21]",3,16,"[2, 5, 7, 11, 13, 14, 16, 17, 18, 19, 20, 24, 26, 27, 28, 29]",166.0430571,4911,1100,5,80,9,1.0670557763739492
basic,69,33,0,0,0,13,"[0, 8, 21, 13]",4,12,"[2, 7, 11, 14, 16, 17, 18, 19, 20, 24, 26, 29]",139.6422995,5828,917,4,54,9,1.0555103820910288
basic,69,33,0,0,0,19,"[0, 8, 21, 13, 19]",5,10,"[7, 11, 14, 16, 17, 18, 20, 24, 26, 29]",114.1472019,7546,1718,3,19,9,1.1090798607799486
basic,69,33,0,0,0,24,"[0, 8, 21, 13, 19, 24]",6,6,"[7, 14, 16, 18, 26, 29]",72.09960985,8972,1426,2,3,9,1.1193530461391534
basic,69,33,0,0,0,7,"[0, 8, 21, 13, 19, 24, 7]",7,2,"[14, 26]",42.89344611,10022,1050,2,0,9,1.2065014071663551
basic,69,33,0,0,0,14,"[0, 8, 21, 13, 19, 24, 7, 14]",8,1,[26],28.02737737,10857,835,1,0,9,1.2536495746979057
basic,69,33,0,0,1,26,"[0, 8, 21, 13, 19, 24, 7, 14, 26]",9,0,[],15.37826672,11702,845,1,0,9,1.2580465331304596
basic,69,33,0,1,1,26,"[0, 8, 21, 13, 19, 24, 7, 14, 26]",9,0,[],15.37826672,13835,2133,1,0,9,1.2580465331304596
basic,70,25,0,0,0,0,[0],1,28,"[1, 2, 3, 4, 5, 7, 8, 9, 10, 11, 12, 13, 14, 15, 16, 17, 18, 19, 20, 21, 22, 23, 24, 25, 26, 27, 28, 29]",300,217,-1,5,94,10,0.0
basic,70,25,0,0,0,23,"[0, 23]",2,23,"[1, 2, 3, 5, 7, 8, 9, 11, 12, 13, 14, 16, 17, 19, 20, 21, 22, 24, 25, 26, 27, 28, 29]",259.7756293,2750,2533,3,33,10,1.0
basic,70,25,0,0,0,19,"[0, 23, 19]",3,21,"[1, 2, 3, 5, 7, 8, 9, 11, 12, 13, 14, 16, 17, 20, 21, 22, 24, 25, 27, 28, 29]",223.9287326,3675,925,3,24,10,1.583101227007039
basic,70,25,0,0,0,29,"[0, 23, 19, 29]",4,19,"[1, 2, 3, 5, 7, 8, 9, 11, 12, 13, 14, 16, 17, 20, 21, 22, 24, 25, 28]",207.649912,4617,942,3,17,10,1.474631541426484
basic,70,25,0,0,0,22,"[0, 23, 19, 29, 22]",5,18,"[1, 2, 3, 5, 7, 8, 9, 11, 12, 13, 14, 16, 17, 20, 21, 24, 25, 28]",191.5253965,7190,2573,3,14,10,1.4020377754906637
basic,70,25,0,0,0,7,"[0, 23, 19, 29, 22, 7]",6,7,"[3, 8, 9, 11, 13, 24, 28]",115.8814939,9324,2134,3,11,10,1.5709678649326715
basic,70,25,0,0,0,24,"[0, 23, 19, 29, 22, 7, 24]",7,5,"[3, 8, 9, 13, 28]",91.12265712,10790,1466,3,7,10,1.486191600033379
basic,70,25,0,0,0,9,"[0, 23, 19, 29, 22, 7, 24, 9]",8,4,"[3, 8, 13, 28]",73.09490075,11676,886,3,3,10,1.453504870342882
basic,70,25,0,0,0,3,"[0, 23, 19, 29, 22, 7, 24, 9, 3]",9,3,"[8, 13, 28]",42.82940885,13692,2016,3,0,10,1.388955167525479
basic,70,25,0,0,1,13,"[0, 23, 19, 29, 22, 7, 24, 9, 3, 13]",10,0,[],11.58841014,15430,1738,1,0,10,1.4309045890044414
basic,70,25,0,1,1,13,"[0, 23, 19, 29, 22, 7, 24, 9, 3, 13]",10,0,[],11.58841014,16731,1301,1,0,10,1.4309045890044414
basic,71,40,0,0,0,0,[0],1,29,"[1, 2, 3, 4, 5, 6, 7, 8, 9, 10, 11, 12, 13, 14, 15, 16, 17, 18, 19, 20, 21, 22, 23, 24, 25, 26, 27, 28, 29]",300,167,-1,8,191,9,0.0
basic,71,40,0,0,0,1,"[0, 1]",2,18,"[2, 5, 6, 7, 8, 9, 10, 11, 13, 15, 17, 18, 19, 21, 22, 23, 27, 29]",247.8463808,4091,3924,4,80,9,1.0
basic,71,40,0,0,0,6,"[0, 1, 6]",3,17,"[2, 5, 7, 8, 9, 10, 11, 13, 15, 17, 18, 19, 21, 22, 23, 27, 29]",227.7466295,5084,993,4,74,9,1.0459427008232034
basic,71,40,0,0,0,9,"[0, 1, 6, 9]",4,10,"[2, 5, 8, 11, 18, 19, 21, 22, 23, 27]",159.146338,7111,2027,17,39,8,1.142098432552584
basic,71,40,0,0,0,18,"[0, 1, 6, 9, 18]",5,9,"[2, 5, 8, 11, 19, 21, 22, 23, 27]",142.5933926,8491,1380,13,14,8,1.3288108654802917
basic,71,40,0,0,0,23,"[0, 1, 6, 9, 18, 23]",6,6,"[2, 5, 8, 19, 21, 22]",108.5933926,9327,836,6,4,8,2.0180513009829646
basic,71,40,0,0,0,5,"[0, 1, 6, 9, 18, 23, 5]",7,2,"[19, 22]",80.29144922,10143,816,2,0,8,1.786484562843798
basic,71,40,0,0,1,19,"[0, 1, 6, 9, 18, 23, 5, 19]",8,0,[],42.21258369,11121,978,1,0,8,2.512757983735243
basic,71,40,0,1,1,19,"[0, 1, 6, 9, 18, 23, 5, 19]",8,0,[],42.21258369,13531,2410,1,0,8,2.512757983735243
basic,72,36,0,0,0,0,[0],1,24,"[2, 4, 5, 6, 7, 8, 9, 10, 12, 13, 14, 15, 16, 17, 18, 19, 20, 22, 23, 25, 26, 27, 28, 29]",300,161,-1,2,200,10,0.0
basic,72,36,0,0,0,12,"[0, 12]",2,23,"[2, 4, 5, 6, 7, 8, 9, 10, 13, 14, 15, 16, 17, 18, 19, 20, 22, 23, 25, 26, 27, 28, 29]",277.7963967,3053,2892,90,804,9,1.0
basic,72,36,0,0,0,18,"[0, 12, 18]",3,15,"[2, 4, 6, 7, 9, 10, 13, 16, 17, 19, 23, 25, 26, 28, 29]",235.217059,4890,1837,11,123,9,3.1762450029512506
basic,72,36,0,0,0,9,"[0, 12, 18, 9]",4,8,"[2, 10, 13, 16, 17, 19, 23, 25]",155.9075387,6303,1413,7,57,9,2.0863255193377257
basic,72,36,0,0,0,19,"[0, 12, 18, 9, 19]",5,7,"[2, 10, 13, 16, 17, 23, 25]",140.7747928,7336,1033,4,23,9,2.065770382407005
basic,72,36,0,0,0,16,"[0, 12, 18, 9, 19, 16]",6,2,"[2, 17]",86.18541653,9361,2025,1,1,8,2.00317215530584
basic,72,36,0,0,0,17,"[0, 12, 18, 9, 19, 16, 17]",7,1,[2],57.86581202,11090,1729,1,0,8,2.5618721156850497
basic,72,36,0,0,1,2,"[0, 12, 18, 9, 19, 16, 17, 2]",8,0,[],16.63475576,13106,2016,1,0,8,2.509229597317318
basic,72,36,0,1,1,2,"[0, 12, 18, 9, 19, 16, 17, 2]",8,0,[],16.63475576,14815,1709,1,0,8,2.509229597317318
basic,73,34,0,0,0,0,[0],1,25,"[1, 3, 4, 5, 6, 7, 8, 9, 10, 11, 12, 13, 15, 18, 19, 20, 21, 22, 23, 24, 25, 26, 27, 28, 29]",300,201,-1,12,367,10,0.0
basic,73,34,0,0,0,13,"[0, 13]",2,24,"[1, 3, 4, 5, 6, 7, 8, 9, 10, 11, 12, 15, 18, 19, 20, 21, 22, 23, 24, 25, 26, 27, 28, 29]",279.9750156,3319,3118,12,331,10,1.0
basic,73,34,0,0,0,1,"[0, 13, 1]",3,16,"[3, 5, 7, 8, 9, 10, 11, 12, 19, 21, 22, 23, 24, 25, 27, 29]",211.8574701,4469,1150,3,92,10,1.0010381285747127
basic,73,34,0,0,0,8,"[0, 13, 1, 8]",4,14,"[3, 5, 7, 9, 10, 11, 12, 19, 22, 23, 24, 25, 27, 29]",201.0871405,5152,683,2,54,10,1.1636807
basic,73,34,0,0,0,25,"[0, 13, 1, 8, 25]",5,12,"[3, 5, 7, 9, 10, 11, 12, 22, 23, 24, 27, 29]",183.999133,5806,654,2,28,10,1.1396208815936457
basic,73,34,0,0,0,24,"[0, 13, 1, 8, 25, 24]",6,11,"[3, 5, 7, 9, 10, 11, 12, 22, 23, 27, 29]",166.5062774,6486,680,2,23,10,1.374180768736554
basic,73,34,0,0,0,23,"[0, 13, 1, 8, 25, 24, 23]",7,6,"[5, 7, 11, 12, 27, 29]",99.97808784,8686,2200,4,3,9,2.1078306540088096
basic,73,34,0,0,0,7,"[0, 13, 1, 8, 25, 24, 23, 7]",8,2,"[11, 12]",71.81783216,9865,1179,2,0,9,2.011215865419536
basic,73,34,0,0,1,12,"[0, 13, 1, 8, 25, 24, 23, 7, 12]",9,0,[],56.78453578,10486,621,1,0,9,1.9762514824310813
basic,73,34,0,1,1,12,"[0, 13, 1, 8, 25, 24, 23, 7, 12]",9,0,[],56.78453578,12398,1912,1,0,9,1.9762514824310813
basic,74,45,0,0,0,0,[0],1,24,"[1, 2, 3, 4, 5, 6, 7, 9, 10, 11, 12, 14, 15, 16, 17, 19, 20, 21, 22, 23, 24, 25, 27, 29]",300,163,-1,6,248,10,0.0
basic,74,45,0,0,0,15,"[0, 15]",2,23,"[1, 2, 3, 4, 5, 6, 7, 9, 10, 11, 12, 14, 16, 17, 19, 20, 21, 22, 23, 24, 25, 27, 29]",253.9022777,2798,2635,5,207,10,1.0
basic,74,45,0,0,0,23,"[0, 15, 23]",3,22,"[1, 2, 3, 4, 5, 6, 7, 9, 10, 11, 12, 14, 16, 17, 19, 20, 21, 22, 24, 25, 27, 29]",230.3014303,3486,688,5,163,10,1.0006068457769497
basic,74,45,0,0,0,20,"[0, 15, 23, 20]",4,19,"[1, 2, 3, 5, 6, 7, 9, 10, 11, 12, 14, 16, 17, 19, 21, 22, 24, 25, 29]",188.8647316,4648,1162,5,137,10,1.2062119754673604
basic,74,45,0,0,0,10,"[0, 15, 23, 20, 10]",5,12,"[2, 3, 6, 7, 9, 12, 14, 17, 22, 24, 25, 29]",132.784432,6326,1678,1,54,10,1.1363907740691004
basic,74,45,0,0,0,29,"[0, 15, 23, 20, 10, 29]",6,8,"[2, 3, 6, 7, 12, 14, 22, 24]",111.2437728,8071,1745,1,21,10,1.1719694806770014
basic,74,45,0,0,0,3,"[0, 15, 23, 20, 10, 29, 3]",7,5,"[2, 6, 7, 12, 22]",91.24377276,9720,1649,1,7,10,1.1637144299354454
basic,74,45,0,0,0,2,"[0, 15, 23, 20, 10, 29, 3, 2]",8,2,"[6, 7]",65.92579496,10799,1079,2,0,9,1.3965435955776868
basic,74,45,0,0,1,7,"[0, 15, 23, 20, 10, 29, 3, 2, 7]",9,0,[],27.91263934,12239,1440,1,0,9,2.050819128376323
basic,74,45,0,1,1,7,"[0, 15, 23, 20, 10, 29, 3, 2, 7]",9,0,[],27.91263934,14880,2641,1,0,9,2.050819128376323
basic,75,30,0,0,0,0,[0],1,19,"[3, 4, 5, 7, 9, 11, 16, 17, 18, 19, 20, 21, 22, 24, 25, 26, 27, 28, 29]",300,164,-1,5,41,8,0.0
basic,75,30,0,0,0,26,"[0, 26]",2,15,"[3, 5, 9, 11, 16, 17, 18, 19, 20, 21, 22, 25, 27, 28, 29]",208.2939479,7357,7193,5,27,6,1.0
basic,75,30,0,0,0,17,"[0, 26, 17]",3,2,"[11, 22]",106.3282674,9370,2013,1,1,5,1.0269053349018842
basic,75,30,0,0,0,22,"[0, 26, 17, 22]",4,1,[11],87.09288329,10269,899,1,0,5,1.0667647841987975
basic,75,30,0,0,1,11,"[0, 26, 17, 22, 11]",5,0,[],11.29050866,11436,1167,1,0,5,1.620200194141416
basic,75,30,0,1,1,11,"[0, 26, 17, 22, 11]",5,0,[],11.29050866,12747,1311,1,0,5,1.620200194141416
basic,76,29,0,0,0,0,[0],1,29,"[1, 2, 3, 4, 5, 6, 7, 8, 9, 10, 11, 12, 13, 14, 15, 16, 17, 18, 19, 20, 21, 22, 23, 24, 25, 26, 27, 28, 29]",300,188,-1,1,78,9,0.0
basic,76,29,0,0,0,25,"[0, 25]",2,18,"[1, 2, 4, 5, 6, 7, 9, 10, 12, 13, 14, 15, 16, 17, 22, 26, 27, 28]",223.3449284,2572,2384,13,101,8,1.0
basic,76,29,0,0,0,17,"[0, 25, 17]",3,13,"[1, 4, 5, 6, 7, 9, 10, 12, 13, 14, 22, 27, 28]",188.41643,3772,1200,2,22,8,1.014228463693056
basic,76,29,0,0,0,1,"[0, 25, 17, 1]",4,11,"[4, 5, 6, 7, 10, 12, 13, 14, 22, 27, 28]",149.5191293,5022,1250,2,18,8,1.7553639368828857
basic,76,29,0,0,0,14,"[0, 25, 17, 1, 14]",5,8,"[4, 5, 7, 12, 13, 22, 27, 28]",106.5656662,7132,2110,2,9,8,2.137167642879409
basic,76,29,0,0,0,13,"[0, 25, 17, 1, 14, 13]",6,4,"[4, 5, 12, 22]",88.53790978,7969,837,2,3,8,1.9535489858276616
basic,76,29,0,0,0,5,"[0, 25, 17, 1, 14, 13, 5]",7,2,"[4, 22]",62.82798951,8566,597,2,0,8,1.9087092890879327
basic,76,29,0,0,1,4,"[0, 25, 17, 1, 14, 13, 5, 4]",8,0,[],10.93386653,9966,1400,1,0,8,1.6444131700810427
basic,76,29,0,1,1,4,"[0, 25, 17, 1, 14, 13, 5, 4]",8,0,[],10.93386653,11661,1695,1,0,8,1.6444131700810427
basic,77,5,0,0,0,0,[0],1,29,"[1, 2, 3, 4, 5, 6, 7, 8, 9, 10, 11, 12, 13, 14, 15, 16, 17, 18, 19, 20, 21, 22, 23, 24, 25, 26, 27, 28, 29]",300,215,-1,5,139,9,0.0
basic,77,5,0,0,0,12,"[0, 12]",2,22,"[2, 4, 5, 6, 8, 9, 10, 13, 14, 15, 16, 17, 18, 19, 21, 22, 23, 24, 25, 26, 27, 28]",228.3062067,4177,3962,1,27,9,1.0
basic,77,5,0,0,0,25,"[0, 12, 25]",3,21,"[2, 4, 5, 6, 8, 9, 10, 13, 14, 15, 16, 17, 18, 19, 21, 22, 23, 24, 26, 27, 28]",200.5213187,5592,1415,1,20,9,1.584023303445617
basic,77,5,0,0,0,23,"[0, 12, 25, 23]",4,19,"[2, 4, 5, 6, 8, 9, 10, 13, 14, 15, 16, 17, 18, 19, 21, 22, 24, 26, 27]",182.0822298,6332,740,1,14,9,2.3508446989254357
basic,77,5,0,0,0,24,"[0, 12, 25, 23, 24]",5,15,"[2, 4, 5, 6, 8, 9, 13, 14, 15, 17, 18, 19, 22, 26, 27]",158.995437,7348,1016,1,12,9,1.9469752046288753
basic,77,5,0,0,0,17,"[0, 12, 25, 23, 24, 17]",6,7,"[4, 5, 6, 8, 15, 18, 19]",124.0097257,8425,1077,1,8,9,1.6482276497563642
basic,77,5,0,0,0,5,"[0, 12, 25, 23, 24, 17, 5]",7,4,"[4, 6, 15, 18]",80.96323916,9921,1496,1,3,9,1.4654649104389412
basic,77,5,0,0,1,15,"[0, 12, 25, 23, 24, 17, 5, 15]",8,0,[],40.93824697,11066,1145,1,0,8,1.4660376450939663
basic,77,5,0,1,1,15,"[0, 12, 25, 23, 24, 17, 5, 15]",8,0,[],40.93824697,12598,1532,1,0,8,1.4660376450939663
