condition,trial_id,map_id,undoIndicator,submit,checkEnd,currentChoice,chosen_all,n_city_all,n_within_reach,cities_reach,currentBudget,time_all,rt_all,n_opt_paths_all,n_subopt_paths_all,mas_all,tortuosity_all
undo,0,3,0,0,0,0,[0],1,29,"[1, 2, 3, 4, 5, 6, 7, 8, 9, 10, 11, 12, 13, 14, 15, 16, 17, 18, 19, 20, 21, 22, 23, 24, 25, 26, 27, 28, 29]",300,98,-1,34,427,10,0.0
undo,0,3,0,0,0,17,"[0, 17]",2,16,"[3, 4, 7, 8, 10, 12, 14, 15, 16, 19, 20, 21, 22, 24, 26, 27]",197.6965299,3453,3355,2,27,9,1.0
undo,0,3,0,0,0,20,"[0, 17, 20]",3,13,"[3, 4, 7, 8, 10, 14, 15, 16, 19, 21, 22, 24, 27]",185.0474192,3925,472,2,24,9,1.0153332121237257
undo,0,3,0,0,0,3,"[0, 17, 20, 3]",4,10,"[4, 7, 8, 10, 14, 15, 16, 19, 21, 24]",164.6513412,4452,527,2,22,9,1.0819240770773468
undo,0,3,0,0,0,19,"[0, 17, 20, 3, 19]",5,6,"[4, 8, 10, 14, 21, 24]",127.3150318,5729,1277,2,11,9,1.1701070532957258
undo,0,3,0,0,0,21,"[0, 17, 20, 3, 19, 21]",6,5,"[4, 8, 10, 14, 24]",115.1084762,6013,284,2,6,9,1.202395500952127
undo,0,3,0,0,0,14,"[0, 17, 20, 3, 19, 21, 14]",7,4,"[4, 8, 10, 24]",88.20122806,6926,913,2,2,9,1.6456130302761207
undo,0,3,0,0,0,24,"[0, 17, 20, 3, 19, 21, 14, 24]",8,1,[8],17.08864127,7736,810,1,0,9,4.806859660680286
undo,0,3,0,0,1,8,"[0, 17, 20, 3, 19, 21, 14, 24, 8]",9,0,[],4.923116212,8313,577,1,0,9,4.915218144486606
undo,0,3,0,1,1,8,"[0, 17, 20, 3, 19, 21, 14, 24, 8]",9,0,[],4.923116212,10181,1868,1,0,9,4.915218144486606
undo,1,13,0,0,0,0,[0],1,29,"[1, 2, 3, 4, 5, 6, 7, 8, 9, 10, 11, 12, 13, 14, 15, 16, 17, 18, 19, 20, 21, 22, 23, 24, 25, 26, 27, 28, 29]",300,99,-1,60,2676,11,0.0
undo,1,13,0,0,0,24,"[0, 24]",2,28,"[1, 2, 3, 4, 5, 6, 7, 8, 9, 10, 11, 12, 13, 14, 15, 16, 17, 18, 19, 20, 21, 22, 23, 25, 26, 27, 28, 29]",288.8196601,4250,4151,16,1444,11,1.0
undo,1,13,0,0,0,28,"[0, 24, 28]",3,23,"[1, 2, 3, 4, 6, 7, 8, 9, 10, 11, 12, 13, 15, 16, 17, 19, 20, 21, 22, 23, 26, 27, 29]",222.5324064,5997,1747,8,243,11,1.0513810491680837
undo,1,13,0,0,0,2,"[0, 24, 28, 2]",4,19,"[1, 3, 4, 6, 7, 9, 11, 12, 13, 15, 16, 17, 19, 20, 21, 23, 26, 27, 29]",184.889346,6702,705,7,110,11,1.050374132001543
undo,1,13,0,0,0,29,"[0, 24, 28, 2, 29]",5,18,"[1, 3, 4, 6, 7, 9, 11, 12, 13, 15, 16, 17, 19, 20, 21, 23, 26, 27]",173.1846461,7059,357,7,85,11,1.1393409619120594
undo,1,13,0,0,0,7,"[0, 24, 28, 2, 29, 7]",6,17,"[1, 3, 4, 6, 9, 11, 12, 13, 15, 16, 17, 19, 20, 21, 23, 26, 27]",157.9203086,7556,497,5,45,11,1.349777315111579
undo,1,13,0,0,0,26,"[0, 24, 28, 2, 29, 7, 26]",7,16,"[1, 3, 4, 6, 9, 11, 12, 13, 15, 16, 17, 19, 20, 21, 23, 27]",147.480002,8092,536,5,25,11,1.5942082773824946
undo,1,13,0,0,0,6,"[0, 24, 28, 2, 29, 7, 26, 6]",8,12,"[1, 3, 4, 11, 13, 15, 16, 17, 19, 20, 23, 27]",127.3802508,10690,2598,4,12,11,1.5898347940840756
undo,1,13,0,0,0,11,"[0, 24, 28, 2, 29, 7, 26, 6, 11]",9,6,"[1, 13, 15, 16, 17, 23]",108.2752776,11214,524,3,4,11,1.5029953945561012
undo,1,13,0,0,0,13,"[0, 24, 28, 2, 29, 7, 26, 6, 11, 13]",10,2,"[15, 17]",52.19497806,15167,3953,2,0,11,1.3655915863754327
undo,1,13,0,0,1,15,"[0, 24, 28, 2, 29, 7, 26, 6, 11, 13, 15]",11,0,[],12.38291958,15679,512,1,0,11,1.3653085520078876
undo,1,13,0,1,1,15,"[0, 24, 28, 2, 29, 7, 26, 6, 11, 13, 15]",11,0,[],12.38291958,16400,721,1,0,11,1.3653085520078876
undo,2,14,0,0,0,0,[0],1,29,"[1, 2, 3, 4, 5, 6, 7, 8, 9, 10, 11, 12, 13, 14, 15, 16, 17, 18, 19, 20, 21, 22, 23, 24, 25, 26, 27, 28, 29]",300,99,-1,8,157,10,0.0
undo,2,14,0,0,0,15,"[0, 15]",2,20,"[1, 2, 3, 4, 7, 8, 9, 13, 17, 18, 19, 20, 21, 22, 23, 25, 26, 27, 28, 29]",216.7053423,3536,3437,8,102,10,1.0
undo,2,14,0,0,0,28,"[0, 15, 28]",3,17,"[1, 2, 3, 4, 7, 8, 9, 13, 17, 18, 19, 20, 22, 23, 25, 26, 27]",197.4959696,3969,433,8,48,10,1.0446007867311968
undo,2,14,0,0,0,17,"[0, 15, 28, 17]",4,14,"[1, 2, 3, 4, 7, 8, 13, 18, 19, 20, 22, 23, 25, 26]",184.0423455,4324,355,8,39,10,1.0729463354689972
undo,2,14,0,0,0,18,"[0, 15, 28, 17, 18]",5,9,"[1, 2, 4, 7, 8, 19, 23, 25, 26]",119.412631,5088,764,8,27,10,1.5035901079219378
undo,2,14,0,0,0,8,"[0, 15, 28, 17, 18, 8]",6,8,"[1, 2, 4, 7, 19, 23, 25, 26]",105.8111605,5628,540,8,18,10,1.4819689987843856
undo,2,14,0,0,0,1,"[0, 15, 28, 17, 18, 8, 1]",7,5,"[7, 19, 23, 25, 26]",82.21031307,6399,771,4,6,10,1.4084991998385268
undo,2,14,0,0,0,19,"[0, 15, 28, 17, 18, 8, 1, 19]",8,4,"[7, 23, 25, 26]",66.97876686,6858,459,4,1,10,1.5758713333797987
undo,2,14,0,0,0,25,"[0, 15, 28, 17, 18, 8, 1, 19, 25]",9,2,"[7, 23]",31.1318702,7570,712,2,0,10,1.6426186864061416
undo,2,14,0,0,1,23,"[0, 15, 28, 17, 18, 8, 1, 19, 25, 23]",10,0,[],1.72098786,8170,600,1,0,10,1.586837442491671
undo,2,14,1,0,0,25,"[0, 15, 28, 17, 18, 8, 1, 19, 25]",9,2,"[7, 23]",31.1318702,14500,6330,2,0,10,1.6426186864061416
undo,2,14,1,0,0,19,"[0, 15, 28, 17, 18, 8, 1, 19]",8,4,"[7, 23, 25, 26]",66.97876686,14750,250,4,1,10,1.5758713333797987
undo,2,14,1,0,0,1,"[0, 15, 28, 17, 18, 8, 1]",7,5,"[7, 19, 23, 25, 26]",82.21031307,15000,250,4,6,10,1.4084991998385268
undo,2,14,1,0,0,8,"[0, 15, 28, 17, 18, 8]",6,8,"[1, 2, 4, 7, 19, 23, 25, 26]",105.8111605,15284,284,8,18,10,1.4819689987843856
undo,2,14,1,0,0,18,"[0, 15, 28, 17, 18]",5,9,"[1, 2, 4, 7, 8, 19, 23, 25, 26]",119.412631,15584,300,8,27,10,1.5035901079219378
undo,2,14,1,0,0,17,"[0, 15, 28, 17]",4,14,"[1, 2, 3, 4, 7, 8, 13, 18, 19, 20, 22, 23, 25, 26]",184.0423455,16000,416,8,39,10,1.0729463354689972
undo,2,14,1,0,0,28,"[0, 15, 28]",3,17,"[1, 2, 3, 4, 7, 8, 9, 13, 17, 18, 19, 20, 22, 23, 25, 26, 27]",197.4959696,16317,317,8,48,10,1.0446007867311968
undo,2,14,1,0,0,15,"[0, 15]",2,20,"[1, 2, 3, 4, 7, 8, 9, 13, 17, 18, 19, 20, 21, 22, 23, 25, 26, 27, 28, 29]",216.7053423,16817,500,8,102,10,1.0
undo,2,14,0,0,0,18,"[0, 15, 18]",3,13,"[1, 2, 4, 7, 8, 13, 17, 19, 20, 23, 25, 26, 28]",153.6418822,18718,1901,26,101,9,1.2185936334127205
undo,2,14,0,0,0,8,"[0, 15, 18, 8]",4,10,"[1, 2, 4, 7, 17, 19, 23, 25, 26, 28]",140.0404117,19654,936,26,60,9,1.2207454945880838
undo,2,14,0,0,0,1,"[0, 15, 18, 8, 1]",5,9,"[2, 4, 7, 17, 19, 23, 25, 26, 28]",116.4395643,20726,1072,13,25,9,1.1871302560279655
undo,2,14,0,0,0,19,"[0, 15, 18, 8, 1, 19]",6,7,"[2, 4, 7, 17, 23, 25, 26]",101.208018,21269,543,11,8,9,1.3443864386012363
undo,2,14,0,0,0,25,"[0, 15, 18, 8, 1, 19, 25]",7,4,"[4, 7, 23, 26]",65.36112139,24222,2953,5,1,9,1.4334990422586273
undo,2,14,0,0,0,23,"[0, 15, 18, 8, 1, 19, 25, 23]",8,1,[26],35.95023905,24978,756,1,0,9,1.4047386182161943
undo,2,14,0,0,1,26,"[0, 15, 18, 8, 1, 19, 25, 23, 26]",9,0,[],25.13358522,25478,500,1,0,9,1.3854252521381312
undo,2,14,1,0,0,23,"[0, 15, 18, 8, 1, 19, 25, 23]",8,1,[26],35.95023905,26651,1173,1,0,9,1.4047386182161943
undo,2,14,1,0,0,25,"[0, 15, 18, 8, 1, 19, 25]",7,4,"[4, 7, 23, 26]",65.36112139,26867,216,5,1,9,1.4334990422586273
undo,2,14,1,0,0,19,"[0, 15, 18, 8, 1, 19]",6,7,"[2, 4, 7, 17, 23, 25, 26]",101.208018,27084,217,11,8,9,1.3443864386012363
undo,2,14,1,0,0,1,"[0, 15, 18, 8, 1]",5,9,"[2, 4, 7, 17, 19, 23, 25, 26, 28]",116.4395643,27317,233,13,25,9,1.1871302560279655
undo,2,14,1,0,0,8,"[0, 15, 18, 8]",4,10,"[1, 2, 4, 7, 17, 19, 23, 25, 26, 28]",140.0404117,27551,234,26,60,9,1.2207454945880838
undo,2,14,1,0,0,18,"[0, 15, 18]",3,13,"[1, 2, 4, 7, 8, 13, 17, 19, 20, 23, 25, 26, 28]",153.6418822,27767,216,26,101,9,1.2185936334127205
undo,2,14,1,0,0,15,"[0, 15]",2,20,"[1, 2, 3, 4, 7, 8, 9, 13, 17, 18, 19, 20, 21, 22, 23, 25, 26, 27, 28, 29]",216.7053423,28017,250,8,102,10,1.0
undo,2,14,1,0,0,0,[0],1,29,"[1, 2, 3, 4, 5, 6, 7, 8, 9, 10, 11, 12, 13, 14, 15, 16, 17, 18, 19, 20, 21, 22, 23, 24, 25, 26, 27, 28, 29]",300,28267,250,8,157,10,0.0
undo,2,14,0,0,0,15,"[0, 15]",2,20,"[1, 2, 3, 4, 7, 8, 9, 13, 17, 18, 19, 20, 21, 22, 23, 25, 26, 27, 28, 29]",216.7053423,29991,1724,8,102,10,1.0
undo,2,14,0,0,0,28,"[0, 15, 28]",3,17,"[1, 2, 3, 4, 7, 8, 9, 13, 17, 18, 19, 20, 22, 23, 25, 26, 27]",197.4959696,30553,562,8,48,10,1.0446007867311968
undo,2,14,0,0,0,17,"[0, 15, 28, 17]",4,14,"[1, 2, 3, 4, 7, 8, 13, 18, 19, 20, 22, 23, 25, 26]",184.0423455,31677,1124,8,39,10,1.0729463354689972
undo,2,14,0,0,0,18,"[0, 15, 28, 17, 18]",5,9,"[1, 2, 4, 7, 8, 19, 23, 25, 26]",119.412631,32577,900,8,27,10,1.5035901079219378
undo,2,14,0,0,0,8,"[0, 15, 28, 17, 18, 8]",6,8,"[1, 2, 4, 7, 19, 23, 25, 26]",105.8111605,32916,339,8,18,10,1.4819689987843856
undo,2,14,0,0,0,1,"[0, 15, 28, 17, 18, 8, 1]",7,5,"[7, 19, 23, 25, 26]",82.21031307,33388,472,4,6,10,1.4084991998385268
undo,2,14,0,0,0,19,"[0, 15, 28, 17, 18, 8, 1, 19]",8,4,"[7, 23, 25, 26]",66.97876686,34750,1362,4,1,10,1.5758713333797987
undo,2,14,0,0,0,25,"[0, 15, 28, 17, 18, 8, 1, 19, 25]",9,2,"[7, 23]",31.1318702,37315,2565,2,0,10,1.6426186864061416
undo,2,14,0,0,1,23,"[0, 15, 28, 17, 18, 8, 1, 19, 25, 23]",10,0,[],1.72098786,38168,853,1,0,10,1.586837442491671
undo,2,14,0,1,1,23,"[0, 15, 28, 17, 18, 8, 1, 19, 25, 23]",10,0,[],1.72098786,45652,7484,1,0,10,1.586837442491671
undo,3,7,0,0,0,0,[0],1,29,"[1, 2, 3, 4, 5, 6, 7, 8, 9, 10, 11, 12, 13, 14, 15, 16, 17, 18, 19, 20, 21, 22, 23, 24, 25, 26, 27, 28, 29]",300,98,-1,3,79,9,0.0
undo,3,7,0,0,0,25,"[0, 25]",2,20,"[2, 3, 4, 5, 6, 7, 10, 13, 14, 15, 16, 18, 19, 20, 21, 22, 23, 24, 27, 28]",181.5939191,5846,5748,5,33,8,1.0
undo,3,7,0,0,0,4,"[0, 25, 4]",3,11,"[2, 6, 7, 13, 15, 16, 18, 19, 20, 21, 23]",156.8552853,6313,467,2,14,8,1.0193465608331511
undo,3,7,0,0,0,20,"[0, 25, 4, 20]",4,8,"[2, 6, 7, 13, 15, 16, 18, 19]",137.2084026,6705,392,1,9,8,1.085904909082323
undo,3,7,0,0,0,18,"[0, 25, 4, 20, 18]",5,7,"[2, 6, 7, 13, 15, 16, 19]",124.4021541,7139,434,1,5,8,1.2264883846453758
undo,3,7,0,0,0,7,"[0, 25, 4, 20, 18, 7]",6,2,"[2, 19]",83.17109789,7762,623,1,1,8,1.185264473968278
undo,3,7,0,0,0,19,"[0, 25, 4, 20, 18, 7, 19]",7,1,[2],53.76021555,8253,491,1,0,8,1.3016904288278204
undo,3,7,0,0,1,2,"[0, 25, 4, 20, 18, 7, 19, 2]",8,0,[],23.61058868,8795,542,1,0,8,1.3168868000947171
undo,3,7,0,1,1,2,"[0, 25, 4, 20, 18, 7, 19, 2]",8,0,[],23.61058868,9749,954,1,0,8,1.3168868000947171
undo,4,22,0,0,0,0,[0],1,29,"[1, 2, 3, 4, 5, 6, 7, 8, 9, 10, 11, 12, 13, 14, 15, 16, 17, 18, 19, 20, 21, 22, 23, 24, 25, 26, 27, 28, 29]",300,100,-1,31,704,9,0.0
undo,4,22,0,0,0,16,"[0, 16]",2,21,"[1, 3, 6, 7, 8, 9, 11, 13, 14, 15, 17, 18, 19, 20, 21, 22, 24, 25, 27, 28, 29]",218.605897,2883,2783,17,147,9,1.0
undo,4,22,0,0,0,28,"[0, 16, 28]",3,13,"[6, 7, 9, 13, 14, 17, 19, 20, 21, 22, 24, 25, 29]",184.1675463,3342,459,12,61,9,1.047282311284478
undo,4,22,0,0,0,6,"[0, 16, 28, 6]",4,12,"[7, 9, 13, 14, 17, 19, 20, 21, 22, 24, 25, 29]",154.1675463,3812,470,12,43,9,1.645645870580622
undo,4,22,0,0,0,9,"[0, 16, 28, 6, 9]",5,8,"[7, 14, 17, 19, 20, 21, 24, 29]",127.5404924,4275,463,8,17,9,1.925750226630103
undo,4,22,0,0,0,19,"[0, 16, 28, 6, 9, 19]",6,6,"[7, 14, 17, 21, 24, 29]",107.1444143,4773,498,3,7,9,2.4220750331476455
undo,4,22,0,0,0,29,"[0, 16, 28, 6, 9, 19, 29]",7,4,"[7, 14, 17, 24]",92.11111796,5043,270,2,2,9,2.6996279574991067
undo,4,22,0,0,0,7,"[0, 16, 28, 6, 9, 19, 29, 7]",8,1,[14],41.0327468,5770,727,1,0,9,2.059125386946491
undo,4,22,0,0,1,14,"[0, 16, 28, 6, 9, 19, 29, 7, 14]",9,0,[],27.99434199,6211,441,1,0,9,2.0997569104205307
undo,4,22,0,1,1,14,"[0, 16, 28, 6, 9, 19, 29, 7, 14]",9,0,[],27.99434199,7367,1156,1,0,9,2.0997569104205307
undo,5,17,0,0,0,0,[0],1,28,"[1, 2, 3, 4, 5, 6, 7, 8, 9, 10, 11, 12, 13, 14, 15, 16, 17, 18, 19, 20, 22, 23, 24, 25, 26, 27, 28, 29]",300,99,-1,2,73,8,0.0
undo,5,17,0,0,0,9,"[0, 9]",2,25,"[1, 2, 3, 5, 6, 7, 8, 10, 11, 12, 14, 15, 16, 17, 18, 19, 20, 22, 23, 24, 25, 26, 27, 28, 29]",210.5293344,1496,1397,1,34,8,1.0
undo,5,17,0,0,0,16,"[0, 9, 16]",3,21,"[1, 2, 3, 5, 7, 8, 10, 11, 12, 14, 17, 18, 19, 20, 22, 23, 25, 26, 27, 28, 29]",197.1876704,1828,332,1,26,8,1.173103464220352
undo,5,17,0,0,0,2,"[0, 9, 16, 2]",4,18,"[1, 3, 5, 7, 8, 10, 11, 12, 14, 17, 18, 19, 23, 25, 26, 27, 28, 29]",181.0631549,2296,468,1,23,8,1.14825089247282
undo,5,17,0,0,0,17,"[0, 9, 16, 2, 17]",5,7,"[7, 8, 12, 14, 26, 27, 29]",142.7356191,3228,932,4,5,7,1.4896040699768547
undo,5,17,0,0,0,8,"[0, 9, 16, 2, 17, 8]",6,3,"[7, 12, 27]",104.5256727,3937,709,3,0,7,1.4604726966175894
undo,5,17,0,0,1,27,"[0, 9, 16, 2, 17, 8, 27]",7,0,[],21.88790895,6253,2316,1,0,7,1.2949460667276491
undo,5,17,1,0,0,8,"[0, 9, 16, 2, 17, 8]",6,3,"[7, 12, 27]",104.5256727,11533,5280,3,0,7,1.4604726966175894
undo,5,17,1,0,0,17,"[0, 9, 16, 2, 17]",5,7,"[7, 8, 12, 14, 26, 27, 29]",142.7356191,12383,850,4,5,7,1.4896040699768547
undo,5,17,1,0,0,2,"[0, 9, 16, 2]",4,18,"[1, 3, 5, 7, 8, 10, 11, 12, 14, 17, 18, 19, 23, 25, 26, 27, 28, 29]",181.0631549,12600,217,1,23,8,1.14825089247282
undo,5,17,1,0,0,16,"[0, 9, 16]",3,21,"[1, 2, 3, 5, 7, 8, 10, 11, 12, 14, 17, 18, 19, 20, 22, 23, 25, 26, 27, 28, 29]",197.1876704,12817,217,1,26,8,1.173103464220352
undo,5,17,1,0,0,9,"[0, 9]",2,25,"[1, 2, 3, 5, 6, 7, 8, 10, 11, 12, 14, 15, 16, 17, 18, 19, 20, 22, 23, 24, 25, 26, 27, 28, 29]",210.5293344,13050,233,1,34,8,1.0
undo,5,17,0,0,0,16,"[0, 9, 16]",3,21,"[1, 2, 3, 5, 7, 8, 10, 11, 12, 14, 17, 18, 19, 20, 22, 23, 25, 26, 27, 28, 29]",197.1876704,14594,1544,1,26,8,1.173103464220352
undo,5,17,0,0,0,2,"[0, 9, 16, 2]",4,18,"[1, 3, 5, 7, 8, 10, 11, 12, 14, 17, 18, 19, 23, 25, 26, 27, 28, 29]",181.0631549,15372,778,1,23,8,1.14825089247282
undo,5,17,0,0,0,10,"[0, 9, 16, 2, 10]",5,4,"[3, 11, 23, 28]",71.04042993,16460,1088,3,2,7,1.2629477265421833
undo,5,17,0,0,0,11,"[0, 9, 16, 2, 10, 11]",6,1,[3],49.08593153,17191,731,1,0,7,1.2370659942349713
undo,5,17,0,0,1,3,"[0, 9, 16, 2, 10, 11, 3]",7,0,[],22.91342687,17726,535,1,0,7,1.4627126127553682
undo,5,17,1,0,0,11,"[0, 9, 16, 2, 10, 11]",6,1,[3],49.08593153,18700,974,1,0,7,1.2370659942349713
undo,5,17,1,0,0,10,"[0, 9, 16, 2, 10]",5,4,"[3, 11, 23, 28]",71.04042993,18967,267,3,2,7,1.2629477265421833
undo,5,17,1,0,0,2,"[0, 9, 16, 2]",4,18,"[1, 3, 5, 7, 8, 10, 11, 12, 14, 17, 18, 19, 23, 25, 26, 27, 28, 29]",181.0631549,19200,233,1,23,8,1.14825089247282
undo,5,17,1,0,0,16,"[0, 9, 16]",3,21,"[1, 2, 3, 5, 7, 8, 10, 11, 12, 14, 17, 18, 19, 20, 22, 23, 25, 26, 27, 28, 29]",197.1876704,19484,284,1,26,8,1.173103464220352
undo,5,17,0,0,0,2,"[0, 9, 16, 2]",4,18,"[1, 3, 5, 7, 8, 10, 11, 12, 14, 17, 18, 19, 23, 25, 26, 27, 28, 29]",181.0631549,22138,2654,1,23,8,1.14825089247282
undo,5,17,0,0,0,10,"[0, 9, 16, 2, 10]",5,4,"[3, 11, 23, 28]",71.04042993,23199,1061,3,2,7,1.2629477265421833
undo,5,17,0,0,0,11,"[0, 9, 16, 2, 10, 11]",6,1,[3],49.08593153,23650,451,1,0,7,1.2370659942349713
undo,5,17,1,0,0,10,"[0, 9, 16, 2, 10]",5,4,"[3, 11, 23, 28]",71.04042993,26284,2634,3,2,7,1.2629477265421833
undo,5,17,0,0,0,3,"[0, 9, 16, 2, 10, 3]",6,2,"[11, 28]",44.41337602,28716,2432,2,0,7,1.349216507765288
undo,5,17,0,0,1,28,"[0, 9, 16, 2, 10, 3, 28]",7,0,[],10.41337602,29452,736,1,0,7,1.3953915984988103
undo,5,17,1,0,0,3,"[0, 9, 16, 2, 10, 3]",6,2,"[11, 28]",44.41337602,30001,549,2,0,7,1.349216507765288
undo,5,17,1,0,0,10,"[0, 9, 16, 2, 10]",5,4,"[3, 11, 23, 28]",71.04042993,30401,400,3,2,7,1.2629477265421833
undo,5,17,1,0,0,2,"[0, 9, 16, 2]",4,18,"[1, 3, 5, 7, 8, 10, 11, 12, 14, 17, 18, 19, 23, 25, 26, 27, 28, 29]",181.0631549,32718,2317,1,23,8,1.14825089247282
undo,5,17,1,0,0,16,"[0, 9, 16]",3,21,"[1, 2, 3, 5, 7, 8, 10, 11, 12, 14, 17, 18, 19, 20, 22, 23, 25, 26, 27, 28, 29]",197.1876704,33451,733,1,26,8,1.173103464220352
undo,5,17,1,0,0,9,"[0, 9]",2,25,"[1, 2, 3, 5, 6, 7, 8, 10, 11, 12, 14, 15, 16, 17, 18, 19, 20, 22, 23, 24, 25, 26, 27, 28, 29]",210.5293344,34218,767,1,34,8,1.0
undo,5,17,0,0,0,10,"[0, 9, 10]",3,8,"[3, 5, 6, 7, 11, 23, 24, 28]",105.6055526,36532,2314,4,9,6,1.0722854926797516
undo,5,17,0,0,0,11,"[0, 9, 10, 11]",4,6,"[3, 5, 6, 23, 24, 28]",83.65105416,37383,851,2,5,6,1.0666517243103375
undo,5,17,0,0,0,3,"[0, 9, 10, 11, 3]",5,2,"[5, 28]",57.4785495,37742,359,2,0,6,1.2802467492484548
undo,5,17,0,0,1,28,"[0, 9, 10, 11, 3, 28]",6,0,[],23.4785495,39157,1415,1,0,6,1.3324362276451462
undo,5,17,1,0,0,3,"[0, 9, 10, 11, 3]",5,2,"[5, 28]",57.4785495,40068,911,2,0,6,1.2802467492484548
undo,5,17,1,0,0,11,"[0, 9, 10, 11]",4,6,"[3, 5, 6, 23, 24, 28]",83.65105416,40301,233,2,5,6,1.0666517243103375
undo,5,17,1,0,0,10,"[0, 9, 10]",3,8,"[3, 5, 6, 7, 11, 23, 24, 28]",105.6055526,40618,317,4,9,6,1.0722854926797516
undo,5,17,1,0,0,9,"[0, 9]",2,25,"[1, 2, 3, 5, 6, 7, 8, 10, 11, 12, 14, 15, 16, 17, 18, 19, 20, 22, 23, 24, 25, 26, 27, 28, 29]",210.5293344,41651,1033,1,34,8,1.0
undo,5,17,0,0,0,16,"[0, 9, 16]",3,21,"[1, 2, 3, 5, 7, 8, 10, 11, 12, 14, 17, 18, 19, 20, 22, 23, 25, 26, 27, 28, 29]",197.1876704,44155,2504,1,26,8,1.173103464220352
undo,5,17,0,0,0,2,"[0, 9, 16, 2]",4,18,"[1, 3, 5, 7, 8, 10, 11, 12, 14, 17, 18, 19, 23, 25, 26, 27, 28, 29]",181.0631549,44529,374,1,23,8,1.14825089247282
undo,5,17,0,0,0,8,"[0, 9, 16, 2, 8]",5,9,"[3, 7, 10, 11, 12, 14, 17, 26, 27]",145.9490551,45885,1356,1,9,8,1.1509808066472915
undo,5,17,0,0,0,10,"[0, 9, 16, 2, 8, 10]",6,1,[11],25.35054767,49070,3185,1,0,7,1.5149744616928704
undo,5,17,0,0,1,11,"[0, 9, 16, 2, 8, 10, 11]",7,0,[],3.39604927,49978,908,1,0,7,1.462327973242751
undo,5,17,0,1,1,11,"[0, 9, 16, 2, 8, 10, 11]",7,0,[],3.39604927,50719,741,1,0,7,1.462327973242751
undo,6,18,0,0,0,0,[0],1,28,"[1, 2, 3, 4, 5, 6, 7, 8, 9, 10, 11, 12, 13, 14, 16, 17, 18, 19, 20, 21, 22, 23, 24, 25, 26, 27, 28, 29]",300,98,-1,3,136,10,0.0
undo,6,18,0,0,0,26,"[0, 26]",2,27,"[1, 2, 3, 4, 5, 6, 7, 8, 9, 10, 11, 12, 13, 14, 16, 17, 18, 19, 20, 21, 22, 23, 24, 25, 27, 28, 29]",258.0238163,3510,3412,1,61,10,1.0
undo,6,18,0,0,0,23,"[0, 26, 23]",3,24,"[1, 2, 3, 4, 5, 6, 7, 8, 9, 10, 12, 13, 14, 16, 17, 18, 19, 20, 21, 24, 25, 27, 28, 29]",239.422741,3979,469,1,60,10,1.576763070488403
undo,6,18,0,0,0,8,"[0, 26, 23, 8]",4,11,"[3, 5, 7, 9, 12, 13, 14, 16, 25, 27, 28]",153.8190028,5283,1304,4,34,9,1.5453538286707948
undo,6,18,0,0,0,3,"[0, 26, 23, 8, 3]",5,9,"[5, 7, 9, 12, 13, 14, 25, 27, 28]",125.7476651,5782,499,1,7,9,1.4239039358080208
undo,6,18,0,0,0,13,"[0, 26, 23, 8, 3, 13]",6,4,"[7, 9, 14, 25]",91.03455519,9589,3807,2,2,8,2.2229108633039116
undo,6,18,0,0,0,14,"[0, 26, 23, 8, 3, 13, 14]",7,1,[25],72.06088923,9922,333,1,0,8,2.033145626267302
undo,6,18,1,0,0,13,"[0, 26, 23, 8, 3, 13]",6,4,"[7, 9, 14, 25]",91.03455519,11816,1894,2,2,8,2.2229108633039116
undo,6,18,1,0,0,3,"[0, 26, 23, 8, 3]",5,9,"[5, 7, 9, 12, 13, 14, 25, 27, 28]",125.7476651,12082,266,1,7,9,1.4239039358080208
undo,6,18,0,0,0,5,"[0, 26, 23, 8, 3, 5]",6,2,"[12, 27]",67.56691228,13117,1035,1,1,8,1.3004585230724388
undo,6,18,0,0,0,12,"[0, 26, 23, 8, 3, 5, 12]",7,1,[27],56.16515803,13483,366,1,0,8,1.314191906729543
undo,6,18,0,0,1,27,"[0, 26, 23, 8, 3, 5, 12, 27]",8,0,[],15.44661188,14156,673,1,0,8,1.443243904235415
undo,6,18,0,1,1,27,"[0, 26, 23, 8, 3, 5, 12, 27]",8,0,[],15.44661188,15032,876,1,0,8,1.443243904235415
undo,7,5,0,0,0,0,[0],1,29,"[1, 2, 3, 4, 5, 6, 7, 8, 9, 10, 11, 12, 13, 14, 15, 16, 17, 18, 19, 20, 21, 22, 23, 24, 25, 26, 27, 28, 29]",300,99,-1,5,139,9,0.0
undo,7,5,0,0,0,12,"[0, 12]",2,22,"[2, 4, 5, 6, 8, 9, 10, 13, 14, 15, 16, 17, 18, 19, 21, 22, 23, 24, 25, 26, 27, 28]",228.3062067,1503,1404,1,27,9,1.0
undo,7,5,0,0,0,25,"[0, 12, 25]",3,21,"[2, 4, 5, 6, 8, 9, 10, 13, 14, 15, 16, 17, 18, 19, 21, 22, 23, 24, 26, 27, 28]",200.5213187,2481,978,1,20,9,1.584023303445617
undo,7,5,0,0,0,23,"[0, 12, 25, 23]",4,19,"[2, 4, 5, 6, 8, 9, 10, 13, 14, 15, 16, 17, 18, 19, 21, 22, 24, 26, 27]",182.0822298,2875,394,1,14,9,2.3508446989254357
undo,7,5,0,0,0,24,"[0, 12, 25, 23, 24]",5,15,"[2, 4, 5, 6, 8, 9, 13, 14, 15, 17, 18, 19, 22, 26, 27]",158.995437,3282,407,1,12,9,1.9469752046288753
undo,7,5,0,0,0,17,"[0, 12, 25, 23, 24, 17]",6,7,"[4, 5, 6, 8, 15, 18, 19]",124.0097257,4514,1232,1,8,9,1.6482276497563642
undo,7,5,0,0,0,4,"[0, 12, 25, 23, 24, 17, 4]",7,2,"[6, 18]",41.93049564,6165,1651,2,0,8,1.4727365492235016
undo,7,5,0,0,1,6,"[0, 12, 25, 23, 24, 17, 4, 6]",8,0,[],29.88890107,6521,356,1,0,8,1.6174317301197607
undo,7,5,0,1,1,6,"[0, 12, 25, 23, 24, 17, 4, 6]",8,0,[],29.88890107,7850,1329,1,0,8,1.6174317301197607
undo,8,23,0,0,0,0,[0],1,28,"[1, 2, 3, 4, 5, 6, 7, 8, 9, 10, 11, 12, 13, 14, 15, 16, 17, 18, 19, 20, 21, 22, 23, 25, 26, 27, 28, 29]",300,116,-1,76,2626,10,0.0
undo,8,23,0,0,0,22,"[0, 22]",2,24,"[1, 2, 3, 5, 6, 7, 8, 9, 10, 11, 12, 13, 14, 15, 17, 18, 19, 20, 21, 23, 25, 26, 27, 29]",210.5013967,3384,3268,15,1362,10,1.0
undo,8,23,0,0,0,13,"[0, 22, 13]",3,14,"[1, 2, 5, 6, 7, 8, 9, 10, 12, 14, 18, 21, 27, 29]",168.3113504,3962,578,14,522,10,1.1898173563652046
undo,8,23,0,0,0,27,"[0, 22, 13, 27]",4,7,"[2, 6, 9, 12, 14, 18, 29]",123.2114613,4930,968,59,60,9,1.2347447137291254
undo,8,23,0,0,0,12,"[0, 22, 13, 27, 12]",5,5,"[2, 6, 9, 14, 29]",82.4193052,5559,629,14,12,9,1.7748831485350247
undo,8,23,0,0,0,6,"[0, 22, 13, 27, 12, 6]",6,3,"[2, 9, 14]",52.73766104,6694,1135,3,3,9,1.6457479860849444
undo,8,23,0,0,0,2,"[0, 22, 13, 27, 12, 6, 2]",7,2,"[9, 14]",34.29857212,7158,464,2,0,9,1.9471185230487569
undo,8,23,0,0,0,9,"[0, 22, 13, 27, 12, 6, 2, 9]",8,1,[14],21.26016731,7829,671,1,0,9,2.1335115378420006
undo,8,23,0,0,1,14,"[0, 22, 13, 27, 12, 6, 2, 9, 14]",9,0,[],10.8198608,8439,610,1,0,9,2.0525238246527917
undo,8,23,0,1,1,14,"[0, 22, 13, 27, 12, 6, 2, 9, 14]",9,0,[],10.8198608,9450,1011,1,0,9,2.0525238246527917
undo,9,42,0,0,0,0,[0],1,29,"[1, 2, 3, 4, 5, 6, 7, 8, 9, 10, 11, 12, 13, 14, 15, 16, 17, 18, 19, 20, 21, 22, 23, 24, 25, 26, 27, 28, 29]",300,99,-1,16,302,9,0.0
undo,9,42,0,0,0,5,"[0, 5]",2,28,"[1, 2, 3, 4, 6, 7, 8, 9, 10, 11, 12, 13, 14, 15, 16, 17, 18, 19, 20, 21, 22, 23, 24, 25, 26, 27, 28, 29]",191.2939744,3087,2988,1,22,9,1.0
undo,9,42,0,0,0,4,"[0, 5, 4]",3,23,"[1, 2, 3, 6, 7, 8, 9, 10, 11, 13, 15, 17, 18, 19, 20, 21, 22, 23, 24, 25, 26, 27, 29]",171.4445412,3602,515,1,14,9,1.420957801478707
undo,9,42,0,0,0,22,"[0, 5, 4, 22]",4,20,"[1, 2, 3, 6, 7, 8, 9, 11, 15, 17, 18, 19, 20, 21, 23, 24, 25, 26, 27, 29]",160.2642013,4004,402,1,11,9,1.5771494659680896
undo,9,42,0,0,0,8,"[0, 5, 4, 22, 8]",5,14,"[1, 2, 3, 6, 7, 11, 15, 18, 19, 24, 25, 26, 27, 29]",138.1282577,4681,677,1,10,9,1.5055393955524201
undo,9,42,0,0,0,1,"[0, 5, 4, 22, 8, 1]",6,5,"[2, 7, 19, 26, 27]",89.03650682,5285,604,1,7,9,1.3547259083637835
undo,9,42,0,0,0,7,"[0, 5, 4, 22, 8, 1, 7]",7,4,"[2, 19, 26, 27]",59.03650682,5919,634,1,3,9,1.3909715672447451
undo,9,42,0,0,1,2,"[0, 5, 4, 22, 8, 1, 7, 2]",8,0,[],19.81916372,6819,900,1,0,8,1.4622930129805476
undo,9,42,1,0,0,7,"[0, 5, 4, 22, 8, 1, 7]",7,4,"[2, 19, 26, 27]",59.03650682,9150,2331,1,3,9,1.3909715672447451
undo,9,42,0,0,0,26,"[0, 5, 4, 22, 8, 1, 7, 26]",8,1,[27],32.46584631,10741,1591,1,0,9,1.3511825943939393
undo,9,42,0,0,1,27,"[0, 5, 4, 22, 8, 1, 7, 26, 27]",9,0,[],14.43808994,11109,368,1,0,9,1.3391911688802078
undo,9,42,0,1,1,27,"[0, 5, 4, 22, 8, 1, 7, 26, 27]",9,0,[],14.43808994,12033,924,1,0,9,1.3391911688802078
undo,10,30,0,0,0,0,[0],1,19,"[3, 4, 5, 7, 9, 11, 16, 17, 18, 19, 20, 21, 22, 24, 25, 26, 27, 28, 29]",300,99,-1,5,41,8,0.0
undo,10,30,0,0,0,27,"[0, 27]",2,10,"[3, 5, 7, 9, 18, 19, 20, 24, 25, 29]",90.59608409,4586,4487,7,22,6,1.0
undo,10,30,0,0,0,3,"[0, 27, 3]",3,8,"[5, 7, 18, 19, 20, 24, 25, 29]",71.49111091,5480,894,5,9,6,1.0022223300201003
undo,10,30,0,0,0,5,"[0, 27, 3, 5]",4,4,"[7, 18, 24, 29]",46.65162621,5867,387,1,3,6,1.047699458031665
undo,10,30,0,0,0,18,"[0, 27, 3, 5, 18]",5,1,[29],33.6132214,6217,350,1,0,6,1.0906504953306948
undo,10,30,0,0,1,29,"[0, 27, 3, 5, 18, 29]",6,0,[],14.30001349,6801,584,1,0,6,1.1734964103241567
undo,10,30,0,1,1,29,"[0, 27, 3, 5, 18, 29]",6,0,[],14.30001349,7499,698,1,0,6,1.1734964103241567
undo,11,33,0,0,0,0,[0],1,23,"[1, 2, 5, 7, 8, 11, 12, 13, 14, 15, 16, 17, 18, 19, 20, 21, 23, 24, 25, 26, 27, 28, 29]",300,99,-1,5,108,9,0.0
undo,11,33,0,0,0,8,"[0, 8]",2,22,"[1, 2, 5, 7, 11, 12, 13, 14, 15, 16, 17, 18, 19, 20, 21, 23, 24, 25, 26, 27, 28, 29]",265.8679037,4199,4100,5,87,9,1.0
undo,11,33,0,0,0,21,"[0, 8, 21]",3,16,"[2, 5, 7, 11, 13, 14, 16, 17, 18, 19, 20, 24, 26, 27, 28, 29]",166.0430571,5121,922,5,80,9,1.0670557763739492
undo,11,33,0,0,0,13,"[0, 8, 21, 13]",4,12,"[2, 7, 11, 14, 16, 17, 18, 19, 20, 24, 26, 29]",139.6422995,5570,449,4,54,9,1.0555103820910288
undo,11,33,0,0,0,19,"[0, 8, 21, 13, 19]",5,10,"[7, 11, 14, 16, 17, 18, 20, 24, 26, 29]",114.1472019,5956,386,3,19,9,1.1090798607799486
undo,11,33,0,0,0,24,"[0, 8, 21, 13, 19, 24]",6,6,"[7, 14, 16, 18, 26, 29]",72.09960985,6582,626,2,3,9,1.1193530461391534
undo,11,33,0,0,0,7,"[0, 8, 21, 13, 19, 24, 7]",7,2,"[14, 26]",42.89344611,7111,529,2,0,9,1.2065014071663551
undo,11,33,0,0,0,14,"[0, 8, 21, 13, 19, 24, 7, 14]",8,1,[26],28.02737737,7576,465,1,0,9,1.2536495746979057
undo,11,33,0,0,1,26,"[0, 8, 21, 13, 19, 24, 7, 14, 26]",9,0,[],15.37826672,8106,530,1,0,9,1.2580465331304596
undo,11,33,0,1,1,26,"[0, 8, 21, 13, 19, 24, 7, 14, 26]",9,0,[],15.37826672,8883,777,1,0,9,1.2580465331304596
undo,12,2,0,0,0,0,[0],1,23,"[1, 2, 4, 5, 6, 7, 8, 9, 12, 13, 15, 16, 17, 18, 19, 20, 22, 23, 25, 26, 27, 28, 29]",300,99,-1,70,620,10,0.0
undo,12,2,0,0,0,12,"[0, 12]",2,19,"[1, 2, 4, 5, 6, 7, 13, 15, 16, 17, 18, 19, 20, 22, 25, 26, 27, 28, 29]",186.8275652,2177,2078,3,169,10,1.0
undo,12,2,0,0,0,5,"[0, 12, 5]",3,14,"[1, 4, 6, 7, 13, 15, 16, 18, 19, 22, 25, 26, 28, 29]",157.2979191,2687,510,2,88,10,1.0082498134695237
undo,12,2,0,0,0,22,"[0, 12, 5, 22]",4,11,"[1, 6, 7, 13, 15, 18, 19, 25, 26, 28, 29]",144.4916706,2991,304,1,45,10,1.0077567572950326
undo,12,2,0,0,0,13,"[0, 12, 5, 22, 13]",5,9,"[1, 6, 7, 15, 18, 19, 25, 26, 29]",129.6256019,3375,384,1,39,10,1.151783231594989
undo,12,2,0,0,0,18,"[0, 12, 5, 22, 13, 18]",6,4,"[7, 15, 26, 29]",94.45459106,3916,541,1,14,10,1.1431544953850095
undo,12,2,0,0,0,7,"[0, 12, 5, 22, 13, 18, 7]",7,3,"[15, 26, 29]",84.15896092,4286,370,1,4,10,1.1360054688421053
undo,12,2,0,0,0,26,"[0, 12, 5, 22, 13, 18, 7, 26]",8,2,"[15, 29]",61.35545242,4817,531,1,1,10,1.1290531198668372
undo,12,2,0,0,0,15,"[0, 12, 5, 22, 13, 18, 7, 26, 15]",9,1,[29],37.14801554,5381,564,1,0,10,1.395427297339814
undo,12,2,0,0,1,29,"[0, 12, 5, 22, 13, 18, 7, 26, 15, 29]",10,0,[],8.687516603,5913,532,1,0,10,1.5868802136739162
undo,12,2,0,1,1,29,"[0, 12, 5, 22, 13, 18, 7, 26, 15, 29]",10,0,[],8.687516603,6850,937,1,0,10,1.5868802136739162
undo,13,29,0,0,0,0,[0],1,29,"[1, 2, 3, 4, 5, 6, 7, 8, 9, 10, 11, 12, 13, 14, 15, 16, 17, 18, 19, 20, 21, 22, 23, 24, 25, 26, 27, 28, 29]",300,99,-1,1,78,9,0.0
undo,13,29,0,0,0,14,"[0, 14]",2,22,"[1, 3, 4, 5, 6, 7, 9, 10, 11, 12, 13, 15, 16, 17, 21, 22, 23, 25, 26, 27, 28, 29]",209.490332,1667,1568,21,110,8,1.0
undo,13,29,0,0,0,13,"[0, 14, 13]",3,18,"[1, 4, 5, 6, 7, 9, 10, 12, 15, 16, 17, 21, 22, 25, 26, 27, 28, 29]",191.4625756,1966,299,20,75,8,1.0027006502223275
undo,13,29,0,0,0,5,"[0, 14, 13, 5]",4,15,"[1, 4, 6, 7, 9, 12, 15, 17, 21, 22, 25, 26, 27, 28, 29]",165.7526554,2305,339,19,49,8,1.0803937325657265
undo,13,29,0,0,0,22,"[0, 14, 13, 5, 22]",5,9,"[4, 6, 7, 9, 12, 26, 27, 28, 29]",111.4111427,2825,520,7,11,8,1.6123417790752979
undo,13,29,0,0,0,12,"[0, 14, 13, 5, 22, 12]",6,4,"[4, 7, 9, 27]",73.46381077,3364,539,3,2,8,1.4673990517096682
undo,13,29,0,0,0,7,"[0, 14, 13, 5, 22, 12, 7]",7,2,"[4, 9]",59.86234026,3755,391,2,0,8,1.4602419147831445
undo,13,29,0,0,1,9,"[0, 14, 13, 5, 22, 12, 7, 9]",8,0,[],30.79345655,4457,702,1,0,8,1.4259709280459159
undo,13,29,0,1,1,9,"[0, 14, 13, 5, 22, 12, 7, 9]",8,0,[],30.79345655,6383,1926,1,0,8,1.4259709280459159
undo,14,28,0,0,0,0,[0],1,27,"[1, 2, 3, 4, 5, 6, 7, 8, 9, 10, 11, 12, 13, 14, 15, 16, 17, 18, 19, 20, 22, 23, 25, 26, 27, 28, 29]",300,99,-1,2,96,9,0.0
undo,14,28,0,0,0,6,"[0, 6]",2,21,"[2, 3, 4, 5, 7, 8, 9, 10, 11, 12, 13, 14, 15, 16, 18, 19, 20, 22, 23, 26, 28]",262.3436592,5324,5225,5,54,7,1.0
undo,14,28,0,0,0,10,"[0, 6, 10]",3,10,"[3, 5, 11, 13, 14, 15, 18, 19, 20, 26]",187.0708222,6059,735,3,11,6,2.4186772484930654
undo,14,28,0,0,0,3,"[0, 6, 10, 3]",4,6,"[5, 14, 15, 18, 20, 26]",123.0005482,6756,697,2,4,6,3.618266672587524
undo,14,28,0,0,0,20,"[0, 6, 10, 3, 20]",5,1,[15],81.66049503,8091,1335,1,0,6,4.040553816922477
undo,14,28,0,0,1,15,"[0, 6, 10, 3, 20, 15]",6,0,[],29.16287604,9064,973,1,0,6,2.727531254804523
undo,14,28,1,0,0,20,"[0, 6, 10, 3, 20]",5,1,[15],81.66049503,10033,969,1,0,6,4.040553816922477
undo,14,28,1,0,0,3,"[0, 6, 10, 3]",4,6,"[5, 14, 15, 18, 20, 26]",123.0005482,10249,216,2,4,6,3.618266672587524
undo,14,28,1,0,0,10,"[0, 6, 10]",3,10,"[3, 5, 11, 13, 14, 15, 18, 19, 20, 26]",187.0708222,10466,217,3,11,6,2.4186772484930654
undo,14,28,1,0,0,6,"[0, 6]",2,21,"[2, 3, 4, 5, 7, 8, 9, 10, 11, 12, 13, 14, 15, 16, 18, 19, 20, 22, 23, 26, 28]",262.3436592,10733,267,5,54,7,1.0
undo,14,28,1,0,0,0,[0],1,27,"[1, 2, 3, 4, 5, 6, 7, 8, 9, 10, 11, 12, 13, 14, 15, 16, 17, 18, 19, 20, 22, 23, 25, 26, 27, 28, 29]",300,11133,400,2,96,9,0.0
undo,14,28,0,0,0,14,"[0, 14]",2,14,"[1, 2, 3, 5, 7, 10, 11, 12, 13, 17, 18, 19, 20, 26]",147.8914861,13084,1951,1,26,8,1.0
undo,14,28,0,0,0,18,"[0, 14, 18]",3,11,"[1, 2, 3, 5, 7, 11, 12, 13, 17, 19, 26]",122.3963885,13459,375,1,23,8,1.0675599824559303
undo,14,28,0,0,0,13,"[0, 14, 18, 13]",4,7,"[2, 7, 11, 12, 17, 19, 26]",97.9832773,13885,426,1,9,8,1.0602397944415018
undo,14,28,0,0,0,7,"[0, 14, 18, 13, 7]",5,4,"[2, 12, 19, 26]",81.70445671,14205,320,4,2,7,1.1143911420775103
undo,14,28,0,0,0,19,"[0, 14, 18, 13, 7, 19]",6,3,"[2, 12, 26]",53.97360746,15378,1173,3,0,7,1.3474679406589842
undo,14,28,0,0,1,2,"[0, 14, 18, 13, 7, 19, 2]",7,0,[],16.61052408,16387,1009,1,0,7,1.4122769349076085
undo,14,28,0,1,1,2,"[0, 14, 18, 13, 7, 19, 2]",7,0,[],16.61052408,16933,546,1,0,7,1.4122769349076085
undo,15,45,0,0,0,0,[0],1,24,"[1, 2, 3, 4, 5, 6, 7, 9, 10, 11, 12, 14, 15, 16, 17, 19, 20, 21, 22, 23, 24, 25, 27, 29]",300,99,-1,6,248,10,0.0
undo,15,45,0,0,0,15,"[0, 15]",2,23,"[1, 2, 3, 4, 5, 6, 7, 9, 10, 11, 12, 14, 16, 17, 19, 20, 21, 22, 23, 24, 25, 27, 29]",253.9022777,2015,1916,5,207,10,1.0
undo,15,45,0,0,0,23,"[0, 15, 23]",3,22,"[1, 2, 3, 4, 5, 6, 7, 9, 10, 11, 12, 14, 16, 17, 19, 20, 21, 22, 24, 25, 27, 29]",230.3014303,2384,369,5,163,10,1.0006068457769497
undo,15,45,0,0,0,20,"[0, 15, 23, 20]",4,19,"[1, 2, 3, 5, 6, 7, 9, 10, 11, 12, 14, 16, 17, 19, 21, 22, 24, 25, 29]",188.8647316,3053,669,5,137,10,1.2062119754673604
undo,15,45,0,0,0,2,"[0, 15, 23, 20, 2]",5,11,"[3, 6, 7, 10, 12, 14, 16, 19, 22, 24, 29]",109.8077901,4923,1870,7,34,9,1.1347329476958932
undo,15,45,0,0,0,3,"[0, 15, 23, 20, 2, 3]",6,6,"[6, 7, 10, 12, 22, 29]",84.48981225,5195,272,4,11,9,1.20136447472029
undo,15,45,0,0,0,29,"[0, 15, 23, 20, 2, 3, 29]",7,5,"[6, 7, 10, 12, 22]",64.48981225,5521,326,3,3,9,1.4622603795691385
undo,15,45,0,0,0,10,"[0, 15, 23, 20, 2, 3, 29, 10]",8,1,[6],42.94915303,5886,365,1,0,9,1.7469079850469198
undo,15,45,0,0,1,6,"[0, 15, 23, 20, 2, 3, 29, 10, 6]",9,0,[],16.70034353,6268,382,1,0,9,1.6448408057065311
undo,15,45,0,1,1,6,"[0, 15, 23, 20, 2, 3, 29, 10, 6]",9,0,[],16.70034353,7516,1248,1,0,9,1.6448408057065311
undo,16,36,0,0,0,0,[0],1,24,"[2, 4, 5, 6, 7, 8, 9, 10, 12, 13, 14, 15, 16, 17, 18, 19, 20, 22, 23, 25, 26, 27, 28, 29]",300,99,-1,2,200,10,0.0
undo,16,36,0,0,0,12,"[0, 12]",2,23,"[2, 4, 5, 6, 7, 8, 9, 10, 13, 14, 15, 16, 17, 18, 19, 20, 22, 23, 25, 26, 27, 28, 29]",277.7963967,2203,2104,90,804,9,1.0
undo,16,36,0,0,0,16,"[0, 12, 16]",3,10,"[2, 9, 10, 13, 17, 18, 19, 23, 25, 27]",171.6267212,3570,1367,4,38,9,1.202695220335868
undo,16,36,0,0,0,17,"[0, 12, 16, 17]",4,7,"[2, 9, 10, 13, 18, 19, 25]",143.3071167,4377,807,4,23,9,1.6578705047868705
undo,16,36,0,0,0,9,"[0, 12, 16, 17, 9]",5,5,"[2, 13, 18, 19, 25]",117.0583072,4749,372,3,6,9,2.6488264465469484
undo,16,36,0,0,0,19,"[0, 12, 16, 17, 9, 19]",6,4,"[2, 13, 18, 25]",101.9255612,5039,290,3,3,9,2.5697960541572393
undo,16,36,0,0,0,2,"[0, 12, 16, 17, 9, 19, 2]",7,2,"[13, 25]",64.80413882,5630,591,2,0,9,2.082684549483941
undo,16,36,0,0,0,25,"[0, 12, 16, 17, 9, 19, 2, 25]",8,1,[13],39.80413882,6078,448,1,0,9,2.272647961997219
undo,16,36,0,0,1,13,"[0, 12, 16, 17, 9, 19, 2, 25, 13]",9,0,[],19.21287854,6554,476,1,0,9,2.86279103556024
undo,16,36,0,1,1,13,"[0, 12, 16, 17, 9, 19, 2, 25, 13]",9,0,[],19.21287854,7266,712,1,0,9,2.86279103556024
undo,17,8,0,0,0,0,[0],1,29,"[1, 2, 3, 4, 5, 6, 7, 8, 9, 10, 11, 12, 13, 14, 15, 16, 17, 18, 19, 20, 21, 22, 23, 24, 25, 26, 27, 28, 29]",300,99,-1,10,149,9,0.0
undo,17,8,0,0,0,5,"[0, 5]",2,28,"[1, 2, 3, 4, 6, 7, 8, 9, 10, 11, 12, 13, 14, 15, 16, 17, 18, 19, 20, 21, 22, 23, 24, 25, 26, 27, 28, 29]",254.5137383,2647,2548,10,100,9,1.0
undo,17,8,0,0,0,14,"[0, 5, 14]",3,20,"[1, 2, 3, 4, 6, 7, 11, 15, 16, 17, 18, 19, 20, 21, 22, 23, 24, 25, 28, 29]",214.5512559,3205,558,4,36,9,1.0001019035932595
undo,17,8,0,0,0,17,"[0, 5, 14, 17]",4,15,"[1, 4, 6, 7, 11, 15, 16, 18, 19, 20, 22, 23, 24, 25, 28]",177.5377449,3656,451,4,16,9,1.121197267659591
undo,17,8,0,0,0,11,"[0, 5, 14, 17, 11]",5,11,"[1, 4, 15, 16, 18, 19, 22, 23, 24, 25, 28]",152.3583883,4311,655,4,8,9,1.1277254166016362
undo,17,8,0,0,0,24,"[0, 5, 14, 17, 11, 24]",6,3,"[15, 16, 28]",115.1428001,4844,533,2,2,9,1.1227411011978805
undo,17,8,0,0,0,15,"[0, 5, 14, 17, 11, 24, 15]",7,2,"[16, 28]",98.37974552,5155,311,2,0,9,1.1956385406066814
undo,17,8,0,0,0,16,"[0, 5, 14, 17, 11, 24, 15, 16]",8,1,[28],47.30137436,6056,901,1,0,9,1.36482239111247
undo,17,8,0,0,1,28,"[0, 5, 14, 17, 11, 24, 15, 16, 28]",9,0,[],24.94069458,6658,602,1,0,9,1.632953105226947
undo,17,8,0,1,1,28,"[0, 5, 14, 17, 11, 24, 15, 16, 28]",9,0,[],24.94069458,11783,5125,1,0,9,1.632953105226947
undo,18,9,0,0,0,0,[0],1,27,"[1, 3, 4, 5, 6, 7, 8, 9, 10, 11, 13, 14, 15, 16, 17, 18, 19, 20, 21, 22, 23, 24, 25, 26, 27, 28, 29]",300,100,-1,2,182,10,0.0
undo,18,9,0,0,0,9,"[0, 9]",2,26,"[1, 3, 4, 5, 6, 7, 8, 10, 11, 13, 14, 15, 16, 17, 18, 19, 20, 21, 22, 23, 24, 25, 26, 27, 28, 29]",225.5352432,3861,3761,2,101,9,1.0
undo,18,9,0,0,0,23,"[0, 9, 23]",3,22,"[1, 3, 4, 5, 7, 8, 10, 11, 13, 15, 16, 17, 18, 19, 20, 21, 22, 24, 25, 26, 27, 28]",203.1745635,4377,516,2,70,9,1.6262276606762436
undo,18,9,0,0,0,8,"[0, 9, 23, 8]",4,18,"[3, 4, 5, 7, 10, 11, 15, 16, 17, 18, 19, 20, 21, 22, 25, 26, 27, 28]",181.7036529,4773,396,1,36,9,1.8547307061753238
undo,18,9,0,0,0,28,"[0, 9, 23, 8, 28]",5,17,"[3, 4, 5, 7, 10, 11, 15, 16, 17, 18, 19, 20, 21, 22, 25, 26, 27]",170.8869991,4964,191,1,23,9,1.7382749966569708
undo,18,9,0,0,1,5,"[0, 9, 23, 8, 28, 5]",6,0,[],9.279449752,7256,2292,1,0,6,1.305795098003534
undo,18,9,1,0,0,28,"[0, 9, 23, 8, 28]",5,17,"[3, 4, 5, 7, 10, 11, 15, 16, 17, 18, 19, 20, 21, 22, 25, 26, 27]",170.8869991,9034,1778,1,23,9,1.7382749966569708
undo,18,9,1,0,0,8,"[0, 9, 23, 8]",4,18,"[3, 4, 5, 7, 10, 11, 15, 16, 17, 18, 19, 20, 21, 22, 25, 26, 27, 28]",181.7036529,9300,266,1,36,9,1.8547307061753238
undo,18,9,1,0,0,23,"[0, 9, 23]",3,22,"[1, 3, 4, 5, 7, 8, 10, 11, 13, 15, 16, 17, 18, 19, 20, 21, 22, 24, 25, 26, 27, 28]",203.1745635,9534,234,2,70,9,1.6262276606762436
undo,18,9,1,0,0,9,"[0, 9]",2,26,"[1, 3, 4, 5, 6, 7, 8, 10, 11, 13, 14, 15, 16, 17, 18, 19, 20, 21, 22, 23, 24, 25, 26, 27, 28, 29]",225.5352432,9750,216,2,101,9,1.0
undo,18,9,1,0,0,0,[0],1,27,"[1, 3, 4, 5, 6, 7, 8, 9, 10, 11, 13, 14, 15, 16, 17, 18, 19, 20, 21, 22, 23, 24, 25, 26, 27, 28, 29]",300,10017,267,2,182,10,0.0
undo,18,9,0,0,0,1,"[0, 1]",2,3,"[5, 13, 24]",55.24706335,11229,1212,1,4,5,1.0
undo,18,9,0,0,0,24,"[0, 1, 24]",3,2,"[5, 13]",34.24706335,11685,456,1,1,5,1.0641957910147413
undo,18,9,0,0,0,13,"[0, 1, 24, 13]",4,1,[5],16.75420766,12007,322,1,0,5,1.2163643602397645
undo,18,9,0,0,1,5,"[0, 1, 24, 13, 5]",5,0,[],1.489870141,12282,275,1,0,5,1.3407826310928708
undo,18,9,1,0,0,13,"[0, 1, 24, 13]",4,1,[5],16.75420766,12751,469,1,0,5,1.2163643602397645
undo,18,9,1,0,0,24,"[0, 1, 24]",3,2,"[5, 13]",34.24706335,12967,216,1,1,5,1.0641957910147413
undo,18,9,1,0,0,1,"[0, 1]",2,3,"[5, 13, 24]",55.24706335,13167,200,1,4,5,1.0
undo,18,9,1,0,0,0,[0],1,27,"[1, 3, 4, 5, 6, 7, 8, 9, 10, 11, 13, 14, 15, 16, 17, 18, 19, 20, 21, 22, 23, 24, 25, 26, 27, 28, 29]",300,13451,284,2,182,10,0.0
undo,18,9,0,0,0,9,"[0, 9]",2,26,"[1, 3, 4, 5, 6, 7, 8, 10, 11, 13, 14, 15, 16, 17, 18, 19, 20, 21, 22, 23, 24, 25, 26, 27, 28, 29]",225.5352432,15850,2399,2,101,9,1.0
undo,18,9,0,0,0,23,"[0, 9, 23]",3,22,"[1, 3, 4, 5, 7, 8, 10, 11, 13, 15, 16, 17, 18, 19, 20, 21, 22, 24, 25, 26, 27, 28]",203.1745635,16241,391,2,70,9,1.6262276606762436
undo,18,9,0,0,0,8,"[0, 9, 23, 8]",4,18,"[3, 4, 5, 7, 10, 11, 15, 16, 17, 18, 19, 20, 21, 22, 25, 26, 27, 28]",181.7036529,16645,404,1,36,9,1.8547307061753238
undo,18,9,0,0,0,21,"[0, 9, 23, 8, 21]",5,9,"[10, 16, 17, 18, 20, 22, 25, 26, 28]",122.0211597,17604,959,2,12,8,1.5015168509555294
undo,18,9,1,0,0,8,"[0, 9, 23, 8]",4,18,"[3, 4, 5, 7, 10, 11, 15, 16, 17, 18, 19, 20, 21, 22, 25, 26, 27, 28]",181.7036529,19484,1880,1,36,9,1.8547307061753238
undo,18,9,0,0,0,28,"[0, 9, 23, 8, 28]",5,17,"[3, 4, 5, 7, 10, 11, 15, 16, 17, 18, 19, 20, 21, 22, 25, 26, 27]",170.8869991,20209,725,1,23,9,1.7382749966569708
undo,18,9,0,0,0,21,"[0, 9, 23, 8, 28, 21]",6,8,"[10, 16, 17, 18, 20, 22, 25, 26]",117.8869991,21017,808,7,5,8,1.5363946588735553
undo,18,9,0,0,0,20,"[0, 9, 23, 8, 28, 21, 20]",7,5,"[10, 16, 17, 22, 26]",105.8039531,22088,1071,5,0,8,1.5333390745950446
undo,18,9,0,0,1,22,"[0, 9, 23, 8, 28, 21, 20, 22]",8,0,[],29.74476563,23157,1069,1,0,8,2.2739446324527752
undo,18,9,0,1,1,22,"[0, 9, 23, 8, 28, 21, 20, 22]",8,0,[],29.74476563,23768,611,1,0,8,2.2739446324527752
undo,19,24,0,0,0,0,[0],1,29,"[1, 2, 3, 4, 5, 6, 7, 8, 9, 10, 11, 12, 13, 14, 15, 16, 17, 18, 19, 20, 21, 22, 23, 24, 25, 26, 27, 28, 29]",300,99,-1,4,76,10,0.0
undo,19,24,0,0,0,29,"[0, 29]",2,27,"[2, 3, 4, 5, 6, 7, 8, 9, 10, 11, 12, 13, 14, 15, 16, 17, 18, 19, 20, 21, 22, 23, 24, 25, 26, 27, 28]",245.594118,2065,1966,5,65,9,1.0
undo,19,24,0,0,0,16,"[0, 29, 16]",3,21,"[2, 3, 4, 6, 8, 9, 10, 11, 13, 14, 15, 17, 18, 19, 22, 23, 24, 25, 26, 27, 28]",171.3782167,2607,542,5,51,9,1.4348105541987206
undo,19,24,0,0,0,22,"[0, 29, 16, 22]",4,16,"[2, 3, 4, 6, 8, 9, 10, 11, 14, 15, 17, 23, 24, 26, 27, 28]",153.3504603,3150,543,4,31,9,1.3916224386076739
undo,19,24,0,0,0,8,"[0, 29, 16, 22, 8]",5,13,"[3, 4, 6, 9, 10, 11, 14, 15, 23, 24, 26, 27, 28]",139.9340525,3394,244,2,13,9,1.4536440537404858
undo,19,24,0,0,0,15,"[0, 29, 16, 22, 8, 15]",6,8,"[3, 4, 6, 9, 11, 23, 26, 28]",109.047162,4014,620,1,3,9,1.5963255894510096
undo,19,24,0,0,0,28,"[0, 29, 16, 22, 8, 15, 28]",7,2,"[11, 23]",63.77023635,4660,646,1,1,9,1.4349671441965541
undo,19,24,0,0,0,23,"[0, 29, 16, 22, 8, 15, 28, 23]",8,1,[11],44.74393876,5005,345,1,0,9,1.4487992470982323
undo,19,24,0,0,1,11,"[0, 29, 16, 22, 8, 15, 28, 23, 11]",9,0,[],17.81811472,5432,427,1,0,9,1.4048465478250574
undo,19,24,0,1,1,11,"[0, 29, 16, 22, 8, 15, 28, 23, 11]",9,0,[],17.81811472,6166,734,1,0,9,1.4048465478250574
undo,20,15,0,0,0,0,[0],1,25,"[1, 2, 3, 4, 7, 8, 9, 10, 11, 12, 13, 14, 15, 16, 18, 20, 21, 22, 23, 24, 25, 26, 27, 28, 29]",300,100,-1,4,65,9,0.0
undo,20,15,0,0,0,7,"[0, 7]",2,23,"[1, 3, 4, 8, 9, 10, 11, 12, 13, 14, 15, 16, 18, 20, 21, 22, 23, 24, 25, 26, 27, 28, 29]",215.1884442,1720,1620,30,107,8,1.0
undo,20,15,0,0,0,11,"[0, 7, 11]",3,18,"[3, 4, 8, 9, 10, 12, 13, 14, 15, 16, 18, 20, 21, 22, 23, 25, 27, 29]",173.7035072,2367,647,12,34,8,1.0171318876095128
undo,20,15,0,0,0,3,"[0, 7, 11, 3]",4,13,"[4, 10, 12, 13, 14, 15, 16, 18, 20, 21, 22, 25, 27]",162.3017529,2585,218,7,21,8,1.0401878806820521
undo,20,15,0,0,0,16,"[0, 7, 11, 3, 16]",5,9,"[4, 10, 12, 13, 14, 15, 18, 21, 22]",137.2218805,3374,789,5,6,8,1.4258499651326737
undo,20,15,0,0,0,22,"[0, 7, 11, 3, 16, 22]",6,4,"[4, 13, 14, 15]",78.36612462,3985,611,2,2,8,1.284645195326425
undo,20,15,0,0,0,15,"[0, 7, 11, 3, 16, 22, 15]",7,1,[13],52.75362767,4538,553,1,0,8,1.2590218300860974
undo,20,15,0,0,1,13,"[0, 7, 11, 3, 16, 22, 15, 13]",8,0,[],37.48929015,4805,267,1,0,8,1.3103278820622872
undo,20,15,0,1,1,13,"[0, 7, 11, 3, 16, 22, 15, 13]",8,0,[],37.48929015,6167,1362,1,0,8,1.3103278820622872
undo,21,34,0,0,0,0,[0],1,25,"[1, 3, 4, 5, 6, 7, 8, 9, 10, 11, 12, 13, 15, 18, 19, 20, 21, 22, 23, 24, 25, 26, 27, 28, 29]",300,99,-1,12,367,10,0.0
undo,21,34,0,0,0,13,"[0, 13]",2,24,"[1, 3, 4, 5, 6, 7, 8, 9, 10, 11, 12, 15, 18, 19, 20, 21, 22, 23, 24, 25, 26, 27, 28, 29]",279.9750156,2129,2030,12,331,10,1.0
undo,21,34,0,0,0,1,"[0, 13, 1]",3,16,"[3, 5, 7, 8, 9, 10, 11, 12, 19, 21, 22, 23, 24, 25, 27, 29]",211.8574701,2651,522,3,92,10,1.0010381285747127
undo,21,34,0,0,0,8,"[0, 13, 1, 8]",4,14,"[3, 5, 7, 9, 10, 11, 12, 19, 22, 23, 24, 25, 27, 29]",201.0871405,3895,1244,2,54,10,1.1636807
undo,21,34,0,0,0,25,"[0, 13, 1, 8, 25]",5,12,"[3, 5, 7, 9, 10, 11, 12, 22, 23, 24, 27, 29]",183.999133,4584,689,2,28,10,1.1396208815936457
undo,21,34,0,0,0,24,"[0, 13, 1, 8, 25, 24]",6,11,"[3, 5, 7, 9, 10, 11, 12, 22, 23, 27, 29]",166.5062774,5179,595,2,23,10,1.374180768736554
undo,21,34,0,0,0,12,"[0, 13, 1, 8, 25, 24, 12]",7,7,"[7, 9, 10, 11, 22, 23, 27]",115.4670767,6813,1634,1,8,10,1.4994254760835948
undo,21,34,0,0,0,7,"[0, 13, 1, 8, 25, 24, 12, 7]",8,5,"[9, 11, 22, 23, 27]",100.4337804,7187,374,1,4,10,1.758992610425009
undo,21,34,0,0,0,23,"[0, 13, 1, 8, 25, 24, 12, 7, 23]",9,1,[27],72.27352467,7741,554,1,0,10,2.399781305190153
undo,21,34,0,0,1,27,"[0, 13, 1, 8, 25, 24, 12, 7, 23, 27]",10,0,[],18.60789321,8636,895,1,0,10,4.766619878750327
undo,21,34,0,1,1,27,"[0, 13, 1, 8, 25, 24, 12, 7, 23, 27]",10,0,[],18.60789321,9533,897,1,0,10,4.766619878750327
undo,22,11,0,0,0,0,[0],1,25,"[1, 2, 3, 4, 5, 6, 8, 9, 10, 11, 12, 13, 14, 15, 16, 17, 18, 19, 20, 22, 23, 25, 26, 27, 28]",300,99,-1,6,374,12,0.0
undo,22,11,0,0,0,8,"[0, 8]",2,19,"[1, 2, 4, 5, 6, 10, 11, 12, 14, 15, 17, 18, 19, 22, 23, 25, 26, 27, 28]",154.7932508,4410,4311,181,767,9,1.0
undo,22,11,0,0,0,17,"[0, 8, 17]",3,15,"[1, 2, 4, 5, 6, 11, 12, 15, 18, 19, 22, 23, 25, 27, 28]",140.4754298,4885,475,86,201,9,1.0846240899450907
undo,22,11,0,0,0,15,"[0, 8, 17, 15]",4,13,"[1, 2, 5, 6, 11, 12, 18, 19, 22, 23, 25, 27, 28]",127.8263191,5331,446,67,51,9,1.0975608447713743
undo,22,11,0,0,0,11,"[0, 8, 17, 15, 11]",5,9,"[2, 5, 6, 12, 19, 22, 25, 27, 28]",109.7155489,5860,529,25,3,9,1.0975838566653757
undo,22,11,0,0,0,28,"[0, 8, 17, 15, 11, 28]",6,4,"[2, 5, 19, 22]",90.29906103,6366,506,7,2,9,1.2135235291684319
undo,22,11,0,0,0,5,"[0, 8, 17, 15, 11, 28, 5]",7,2,"[2, 22]",72.41051721,6911,545,2,0,9,1.3988895370454302
undo,22,11,0,0,0,2,"[0, 8, 17, 15, 11, 28, 5, 2]",8,1,[22],55.41051721,7359,448,1,0,9,1.3703405989501332
undo,22,11,0,0,1,22,"[0, 8, 17, 15, 11, 28, 5, 2, 22]",9,0,[],45.36064159,7791,432,1,0,9,1.3506296271324352
undo,22,11,0,1,1,22,"[0, 8, 17, 15, 11, 28, 5, 2, 22]",9,0,[],45.36064159,9216,1425,1,0,9,1.3506296271324352
basic,23,41,0,0,0,0,[0],1,29,"[1, 2, 3, 4, 5, 6, 7, 8, 9, 10, 11, 12, 13, 14, 15, 16, 17, 18, 19, 20, 21, 22, 23, 24, 25, 26, 27, 28, 29]",300,116,-1,1,143,10,0.0
basic,23,41,0,0,0,28,"[0, 28]",2,27,"[1, 2, 3, 5, 6, 7, 8, 9, 10, 11, 12, 13, 14, 15, 16, 17, 18, 19, 20, 21, 22, 23, 24, 25, 26, 27, 29]",259.8004975,6155,6039,37,249,9,1.0
basic,23,41,0,0,0,5,"[0, 28, 5]",3,26,"[1, 2, 3, 6, 7, 8, 9, 10, 11, 12, 13, 14, 15, 16, 17, 18, 19, 20, 21, 22, 23, 24, 25, 26, 27, 29]",246.199027,6579,424,30,182,9,1.714241539747437
basic,23,41,0,0,0,3,"[0, 28, 5, 3]",4,25,"[1, 2, 6, 7, 8, 9, 10, 11, 12, 13, 14, 15, 16, 17, 18, 19, 20, 21, 22, 23, 24, 25, 26, 27, 29]",211.3708775,12656,6077,20,93,9,2.2367972660995847
basic,23,41,0,0,0,21,"[0, 28, 5, 3, 21]",5,19,"[1, 2, 6, 9, 10, 11, 12, 13, 14, 15, 17, 18, 19, 20, 22, 24, 25, 26, 27]",179.2305601,13352,696,12,46,9,2.470864770481327
basic,23,41,0,0,0,17,"[0, 28, 5, 3, 21, 17]",6,12,"[1, 2, 9, 10, 12, 13, 14, 15, 22, 24, 26, 27]",127.5681947,14047,695,7,14,9,2.7202724861599736
basic,23,41,0,0,0,9,"[0, 28, 5, 3, 21, 17, 9]",7,5,"[1, 2, 10, 12, 14]",96.55206986,14677,630,4,4,9,2.472263750197181
basic,23,41,0,0,0,2,"[0, 28, 5, 3, 21, 17, 9, 2]",8,4,"[1, 10, 12, 14]",84.46902389,15146,469,4,0,9,2.382175894337433
basic,23,41,0,0,1,1,"[0, 28, 5, 3, 21, 17, 9, 2, 1]",9,0,[],3.197872795,16506,1360,1,0,9,1.9432064694660056
basic,23,41,0,1,1,1,"[0, 28, 5, 3, 21, 17, 9, 2, 1]",9,0,[],3.197872795,17434,928,1,0,9,1.9432064694660056
basic,24,29,0,0,0,0,[0],1,29,"[1, 2, 3, 4, 5, 6, 7, 8, 9, 10, 11, 12, 13, 14, 15, 16, 17, 18, 19, 20, 21, 22, 23, 24, 25, 26, 27, 28, 29]",300,99,-1,1,78,9,0.0
basic,24,29,0,0,0,25,"[0, 25]",2,18,"[1, 2, 4, 5, 6, 7, 9, 10, 12, 13, 14, 15, 16, 17, 22, 26, 27, 28]",223.3449284,3835,3736,13,101,8,1.0
basic,24,29,0,0,0,17,"[0, 25, 17]",3,13,"[1, 4, 5, 6, 7, 9, 10, 12, 13, 14, 22, 27, 28]",188.41643,4267,432,2,22,8,1.014228463693056
basic,24,29,0,0,0,1,"[0, 25, 17, 1]",4,11,"[4, 5, 6, 7, 10, 12, 13, 14, 22, 27, 28]",149.5191293,4782,515,2,18,8,1.7553639368828857
basic,24,29,0,0,0,14,"[0, 25, 17, 1, 14]",5,8,"[4, 5, 7, 12, 13, 22, 27, 28]",106.5656662,5351,569,2,9,8,2.137167642879409
basic,24,29,0,0,0,13,"[0, 25, 17, 1, 14, 13]",6,4,"[4, 5, 12, 22]",88.53790978,5804,453,2,3,8,1.9535489858276616
basic,24,29,0,0,0,5,"[0, 25, 17, 1, 14, 13, 5]",7,2,"[4, 22]",62.82798951,6281,477,2,0,8,1.9087092890879327
basic,24,29,0,0,1,4,"[0, 25, 17, 1, 14, 13, 5, 4]",8,0,[],10.93386653,7446,1165,1,0,8,1.6444131700810427
basic,24,29,0,1,1,4,"[0, 25, 17, 1, 14, 13, 5, 4]",8,0,[],10.93386653,8400,954,1,0,8,1.6444131700810427
basic,25,40,0,0,0,0,[0],1,29,"[1, 2, 3, 4, 5, 6, 7, 8, 9, 10, 11, 12, 13, 14, 15, 16, 17, 18, 19, 20, 21, 22, 23, 24, 25, 26, 27, 28, 29]",300,99,-1,8,191,9,0.0
basic,25,40,0,0,0,1,"[0, 1]",2,18,"[2, 5, 6, 7, 8, 9, 10, 11, 13, 15, 17, 18, 19, 21, 22, 23, 27, 29]",247.8463808,2301,2202,4,80,9,1.0
basic,25,40,0,0,0,6,"[0, 1, 6]",3,17,"[2, 5, 7, 8, 9, 10, 11, 13, 15, 17, 18, 19, 21, 22, 23, 27, 29]",227.7466295,2747,446,4,74,9,1.0459427008232034
basic,25,40,0,0,0,21,"[0, 1, 6, 21]",4,8,"[2, 5, 9, 17, 18, 19, 22, 23]",175.7754837,3351,604,4,25,9,1.0308822257404064
basic,25,40,0,0,0,9,"[0, 1, 6, 21, 9]",5,6,"[2, 5, 18, 19, 22, 23]",130.0699041,4296,945,4,12,9,1.377861912961129
basic,25,40,0,0,0,18,"[0, 1, 6, 21, 9, 18]",6,5,"[2, 5, 19, 22, 23]",113.5169588,4685,389,4,4,9,1.5742712168661408
basic,25,40,0,0,0,5,"[0, 1, 6, 21, 9, 18, 5]",7,3,"[19, 22, 23]",81.94165198,5269,584,2,1,9,1.7730665063055515
basic,25,40,0,0,0,23,"[0, 1, 6, 21, 9, 18, 5, 23]",8,1,[19],53.63970859,5814,545,1,0,9,2.597442759912231
basic,25,40,0,0,1,19,"[0, 1, 6, 21, 9, 18, 5, 23, 19]",9,0,[],21.68661797,6468,654,1,0,9,2.7128328554069565
basic,25,40,0,1,1,19,"[0, 1, 6, 21, 9, 18, 5, 23, 19]",9,0,[],21.68661797,7200,732,1,0,9,2.7128328554069565
basic,26,43,0,0,0,0,[0],1,23,"[1, 2, 3, 4, 5, 6, 7, 9, 10, 11, 12, 14, 15, 16, 17, 19, 20, 21, 22, 23, 25, 27, 29]",300,99,-1,16,556,12,0.0
basic,26,43,0,0,0,29,"[0, 29]",2,22,"[1, 2, 3, 4, 5, 6, 7, 9, 10, 11, 12, 14, 15, 16, 17, 19, 20, 21, 22, 23, 25, 27]",277.909278,1801,1702,16,520,12,1.0
basic,26,43,0,0,0,20,"[0, 29, 20]",3,20,"[1, 2, 3, 4, 6, 7, 9, 10, 11, 12, 14, 15, 16, 17, 19, 21, 22, 23, 25, 27]",254.4785289,2467,666,15,422,12,1.082311746871282
basic,26,43,0,0,0,16,"[0, 29, 20, 16]",4,19,"[1, 2, 3, 4, 6, 7, 9, 10, 11, 12, 14, 15, 17, 19, 21, 22, 23, 25, 27]",231.8511119,3384,917,15,389,12,1.215201926898219
basic,26,43,0,0,0,25,"[0, 29, 20, 16, 25]",5,14,"[1, 2, 3, 4, 6, 7, 9, 11, 12, 14, 15, 19, 22, 23]",175.7708124,4284,900,53,282,11,1.566384303308987
basic,26,43,0,0,0,15,"[0, 29, 20, 16, 25, 15]",6,13,"[1, 2, 3, 4, 6, 7, 9, 11, 12, 14, 19, 22, 23]",153.0992443,4844,560,27,108,11,1.776736412604812
basic,26,43,0,0,0,12,"[0, 29, 20, 16, 25, 15, 12]",7,10,"[1, 3, 6, 7, 9, 11, 14, 19, 22, 23]",133.7860364,5294,450,21,41,11,1.6813323012225032
basic,26,43,0,0,0,3,"[0, 29, 20, 16, 25, 15, 12, 3]",8,9,"[1, 6, 7, 9, 11, 14, 19, 22, 23]",120.7860364,5734,440,20,12,11,1.608740348096123
basic,26,43,0,0,0,11,"[0, 29, 20, 16, 25, 15, 12, 3, 11]",9,3,"[6, 14, 22]",53.75619226,7027,1293,1,2,11,2.7059759092307694
basic,26,43,0,0,0,6,"[0, 29, 20, 16, 25, 15, 12, 3, 11, 6]",10,1,[14],33.14066413,7688,661,1,0,11,2.419603450300579
basic,26,43,0,0,1,14,"[0, 29, 20, 16, 25, 15, 12, 3, 11, 6, 14]",11,0,[],4.680165186,8424,736,1,0,11,2.3808374911788053
basic,26,43,0,1,1,14,"[0, 29, 20, 16, 25, 15, 12, 3, 11, 6, 14]",11,0,[],4.680165186,9267,843,1,0,11,2.3808374911788053
basic,27,28,0,0,0,0,[0],1,27,"[1, 2, 3, 4, 5, 6, 7, 8, 9, 10, 11, 12, 13, 14, 15, 16, 17, 18, 19, 20, 22, 23, 25, 26, 27, 28, 29]",300,99,-1,2,96,9,0.0
basic,27,28,0,0,0,3,"[0, 3]",2,26,"[1, 2, 4, 5, 6, 7, 8, 9, 10, 11, 12, 13, 14, 15, 16, 17, 18, 19, 20, 22, 23, 25, 26, 27, 28, 29]",251.0817008,4356,4257,1,64,9,1.0
basic,27,28,0,0,0,14,"[0, 3, 14]",3,13,"[1, 2, 5, 7, 10, 11, 12, 13, 17, 18, 19, 20, 26]",142.7396498,5386,1030,19,59,8,1.0338694802207566
basic,27,28,0,0,0,18,"[0, 3, 14, 18]",4,10,"[1, 2, 5, 7, 11, 12, 13, 17, 19, 26]",117.2445523,5923,537,18,18,8,1.098527225277385
basic,27,28,0,0,0,13,"[0, 3, 14, 18, 13]",5,7,"[2, 7, 11, 12, 17, 19, 26]",92.83144103,6308,385,8,6,8,1.0872780601597938
basic,27,28,0,0,0,12,"[0, 3, 14, 18, 13, 12]",6,3,"[2, 7, 19]",75.6267905,6753,445,3,1,8,1.0890748557820906
basic,27,28,0,0,0,7,"[0, 3, 14, 18, 13, 12, 7]",7,2,"[2, 19]",62.47384406,7126,373,2,0,8,1.2125627495730145
basic,27,28,0,0,1,19,"[0, 3, 14, 18, 13, 12, 7, 19]",8,0,[],34.74299481,7697,571,1,0,8,1.4527925513951803
basic,27,28,0,1,1,19,"[0, 3, 14, 18, 13, 12, 7, 19]",8,0,[],34.74299481,8750,1053,1,0,8,1.4527925513951803
basic,28,3,0,0,0,0,[0],1,29,"[1, 2, 3, 4, 5, 6, 7, 8, 9, 10, 11, 12, 13, 14, 15, 16, 17, 18, 19, 20, 21, 22, 23, 24, 25, 26, 27, 28, 29]",300,100,-1,34,427,10,0.0
basic,28,3,0,0,0,17,"[0, 17]",2,16,"[3, 4, 7, 8, 10, 12, 14, 15, 16, 19, 20, 21, 22, 24, 26, 27]",197.6965299,3814,3714,2,27,9,1.0
basic,28,3,0,0,0,20,"[0, 17, 20]",3,13,"[3, 4, 7, 8, 10, 14, 15, 16, 19, 21, 22, 24, 27]",185.0474192,4201,387,2,24,9,1.0153332121237257
basic,28,3,0,0,0,3,"[0, 17, 20, 3]",4,10,"[4, 7, 8, 10, 14, 15, 16, 19, 21, 24]",164.6513412,4798,597,2,22,9,1.0819240770773468
basic,28,3,0,0,0,19,"[0, 17, 20, 3, 19]",5,6,"[4, 8, 10, 14, 21, 24]",127.3150318,5563,765,2,11,9,1.1701070532957258
basic,28,3,0,0,0,21,"[0, 17, 20, 3, 19, 21]",6,5,"[4, 8, 10, 14, 24]",115.1084762,5871,308,2,6,9,1.202395500952127
basic,28,3,0,0,0,14,"[0, 17, 20, 3, 19, 21, 14]",7,4,"[4, 8, 10, 24]",88.20122806,6454,583,2,2,9,1.6456130302761207
basic,28,3,0,0,0,24,"[0, 17, 20, 3, 19, 21, 14, 24]",8,1,[8],17.08864127,7190,736,1,0,9,4.806859660680286
basic,28,3,0,0,1,8,"[0, 17, 20, 3, 19, 21, 14, 24, 8]",9,0,[],4.923116212,7650,460,1,0,9,4.915218144486606
basic,28,3,0,1,1,8,"[0, 17, 20, 3, 19, 21, 14, 24, 8]",9,0,[],4.923116212,8433,783,1,0,9,4.915218144486606
basic,29,12,0,0,0,0,[0],1,29,"[1, 2, 3, 4, 5, 6, 7, 8, 9, 10, 11, 12, 13, 14, 15, 16, 17, 18, 19, 20, 21, 22, 23, 24, 25, 26, 27, 28, 29]",300,99,-1,2,32,9,0.0
basic,29,12,0,0,0,16,"[0, 16]",2,16,"[2, 4, 5, 6, 7, 12, 13, 14, 18, 19, 22, 23, 24, 25, 27, 29]",209.2916762,9733,9634,3,38,8,1.0
basic,29,12,0,0,0,4,"[0, 16, 4]",3,11,"[2, 5, 6, 7, 12, 14, 19, 22, 24, 25, 27]",175.0864135,10158,425,1,16,8,1.00004499617691
basic,29,12,0,0,0,12,"[0, 16, 4, 12]",4,6,"[14, 19, 22, 24, 25, 27]",132.8963673,10704,546,1,8,8,1.0113942412768022
basic,29,12,0,0,0,27,"[0, 16, 4, 12, 27]",5,4,"[14, 19, 22, 24]",108.5447759,11934,1230,1,3,8,1.1193150037844588
basic,29,12,0,0,0,14,"[0, 16, 4, 12, 27, 14]",6,2,"[19, 24]",79.89167838,12413,479,1,1,8,1.1821826897854277
basic,29,12,0,0,0,24,"[0, 16, 4, 12, 27, 14, 24]",7,1,[19],62.68702784,12956,543,1,0,8,1.3297400833764192
basic,29,12,0,0,1,19,"[0, 16, 4, 12, 27, 14, 24, 19]",8,0,[],3.865263163,13718,762,1,0,8,2.27325645157102
basic,29,12,0,1,1,19,"[0, 16, 4, 12, 27, 14, 24, 19]",8,0,[],3.865263163,15450,1732,1,0,8,2.27325645157102
basic,30,22,0,0,0,0,[0],1,29,"[1, 2, 3, 4, 5, 6, 7, 8, 9, 10, 11, 12, 13, 14, 15, 16, 17, 18, 19, 20, 21, 22, 23, 24, 25, 26, 27, 28, 29]",300,100,-1,31,704,9,0.0
basic,30,22,0,0,0,16,"[0, 16]",2,21,"[1, 3, 6, 7, 8, 9, 11, 13, 14, 15, 17, 18, 19, 20, 21, 22, 24, 25, 27, 28, 29]",218.605897,3388,3288,17,147,9,1.0
basic,30,22,0,0,0,28,"[0, 16, 28]",3,13,"[6, 7, 9, 13, 14, 17, 19, 20, 21, 22, 24, 25, 29]",184.1675463,3834,446,12,61,9,1.047282311284478
basic,30,22,0,0,0,6,"[0, 16, 28, 6]",4,12,"[7, 9, 13, 14, 17, 19, 20, 21, 22, 24, 25, 29]",154.1675463,4229,395,12,43,9,1.645645870580622
basic,30,22,0,0,0,9,"[0, 16, 28, 6, 9]",5,8,"[7, 14, 17, 19, 20, 21, 24, 29]",127.5404924,5035,806,8,17,9,1.925750226630103
basic,30,22,0,0,0,14,"[0, 16, 28, 6, 9, 14]",6,5,"[7, 17, 19, 24, 29]",84.49400589,5534,499,2,4,9,1.6636058370259441
basic,30,22,0,0,0,7,"[0, 16, 28, 6, 9, 14, 7]",7,4,"[17, 19, 24, 29]",71.45560108,5770,236,2,2,9,1.8172242553661921
basic,30,22,0,0,0,19,"[0, 16, 28, 6, 9, 14, 7, 19]",8,1,[29],25.18465988,6406,636,1,0,9,3.451408325118739
basic,30,22,0,0,1,29,"[0, 16, 28, 6, 9, 14, 7, 19, 29]",9,0,[],10.1513635,7001,595,1,0,9,3.763950601205494
basic,30,22,0,1,1,29,"[0, 16, 28, 6, 9, 14, 7, 19, 29]",9,0,[],10.1513635,8200,1199,1,0,9,3.763950601205494
basic,31,15,0,0,0,0,[0],1,25,"[1, 2, 3, 4, 7, 8, 9, 10, 11, 12, 13, 14, 15, 16, 18, 20, 21, 22, 23, 24, 25, 26, 27, 28, 29]",300,100,-1,4,65,9,0.0
basic,31,15,0,0,0,16,"[0, 16]",2,16,"[3, 4, 7, 9, 10, 11, 12, 13, 14, 15, 18, 20, 21, 22, 25, 27]",185.8378346,4856,4756,22,104,7,1.0
basic,31,15,0,0,0,11,"[0, 16, 11]",3,13,"[3, 4, 7, 10, 12, 13, 14, 15, 18, 21, 22, 25, 27]",159.818611,5321,465,10,29,7,1.1289542380807378
basic,31,15,0,0,0,3,"[0, 16, 11, 3]",4,12,"[4, 7, 10, 12, 13, 14, 15, 18, 21, 22, 25, 27]",148.4168567,5577,256,10,12,7,1.14507593159006
basic,31,15,0,0,0,22,"[0, 16, 11, 3, 22]",5,6,"[4, 10, 13, 14, 15, 18]",98.68758969,6770,1193,4,4,7,1.1668569176120651
basic,31,15,0,0,0,15,"[0, 16, 11, 3, 22, 15]",6,2,"[13, 14]",73.07509274,7183,413,2,0,7,1.1555413708932987
basic,31,15,0,0,1,13,"[0, 16, 11, 3, 22, 15, 13]",7,0,[],57.81075522,7784,601,1,0,7,1.2088928499419171
basic,31,15,0,1,1,13,"[0, 16, 11, 3, 22, 15, 13]",7,0,[],57.81075522,10084,2300,1,0,7,1.2088928499419171
basic,32,33,0,0,0,0,[0],1,23,"[1, 2, 5, 7, 8, 11, 12, 13, 14, 15, 16, 17, 18, 19, 20, 21, 23, 24, 25, 26, 27, 28, 29]",300,99,-1,5,108,9,0.0
basic,32,33,0,0,0,29,"[0, 29]",2,10,"[7, 11, 13, 14, 17, 19, 20, 21, 24, 26]",89.65504522,5147,5048,1,8,6,1.0
basic,32,33,0,0,0,26,"[0, 29, 26]",3,4,"[7, 11, 14, 24]",61.76239386,5578,431,1,3,6,1.0530256808283844
basic,32,33,0,0,0,14,"[0, 29, 26, 14]",4,2,"[7, 24]",49.11328322,6106,528,1,1,6,1.1564547296971475
basic,32,33,0,0,0,7,"[0, 29, 26, 14, 7]",5,1,[24],34.24721447,6518,412,1,0,6,1.2470748211167804
basic,32,33,0,0,1,24,"[0, 29, 26, 14, 7, 24]",6,0,[],5.04105074,7208,690,1,0,6,1.4487171264730059
basic,32,33,0,1,1,24,"[0, 29, 26, 14, 7, 24]",6,0,[],5.04105074,8383,1175,1,0,6,1.4487171264730059
basic,33,34,0,0,0,0,[0],1,25,"[1, 3, 4, 5, 6, 7, 8, 9, 10, 11, 12, 13, 15, 18, 19, 20, 21, 22, 23, 24, 25, 26, 27, 28, 29]",300,99,-1,12,367,10,0.0
basic,33,34,0,0,0,13,"[0, 13]",2,24,"[1, 3, 4, 5, 6, 7, 8, 9, 10, 11, 12, 15, 18, 19, 20, 21, 22, 23, 24, 25, 26, 27, 28, 29]",279.9750156,1517,1418,12,331,10,1.0
basic,33,34,0,0,0,1,"[0, 13, 1]",3,16,"[3, 5, 7, 8, 9, 10, 11, 12, 19, 21, 22, 23, 24, 25, 27, 29]",211.8574701,2107,590,3,92,10,1.0010381285747127
basic,33,34,0,0,0,8,"[0, 13, 1, 8]",4,14,"[3, 5, 7, 9, 10, 11, 12, 19, 22, 23, 24, 25, 27, 29]",201.0871405,2574,467,2,54,10,1.1636807
basic,33,34,0,0,0,25,"[0, 13, 1, 8, 25]",5,12,"[3, 5, 7, 9, 10, 11, 12, 22, 23, 24, 27, 29]",183.999133,3031,457,2,28,10,1.1396208815936457
basic,33,34,0,0,0,24,"[0, 13, 1, 8, 25, 24]",6,11,"[3, 5, 7, 9, 10, 11, 12, 22, 23, 27, 29]",166.5062774,3522,491,2,23,10,1.374180768736554
basic,33,34,0,0,0,12,"[0, 13, 1, 8, 25, 24, 12]",7,7,"[7, 9, 10, 11, 22, 23, 27]",115.4670767,4430,908,1,8,10,1.4994254760835948
basic,33,34,0,0,0,7,"[0, 13, 1, 8, 25, 24, 12, 7]",8,5,"[9, 11, 22, 23, 27]",100.4337804,4927,497,1,4,10,1.758992610425009
basic,33,34,0,0,0,23,"[0, 13, 1, 8, 25, 24, 12, 7, 23]",9,1,[27],72.27352467,5434,507,1,0,10,2.399781305190153
basic,33,34,0,0,1,27,"[0, 13, 1, 8, 25, 24, 12, 7, 23, 27]",10,0,[],18.60789321,6464,1030,1,0,10,4.766619878750327
basic,33,34,0,1,1,27,"[0, 13, 1, 8, 25, 24, 12, 7, 23, 27]",10,0,[],18.60789321,7383,919,1,0,10,4.766619878750327
basic,34,35,0,0,0,0,[0],1,29,"[1, 2, 3, 4, 5, 6, 7, 8, 9, 10, 11, 12, 13, 14, 15, 16, 17, 18, 19, 20, 21, 22, 23, 24, 25, 26, 27, 28, 29]",300,99,-1,5,236,11,0.0
basic,34,35,0,0,0,24,"[0, 24]",2,27,"[1, 2, 4, 5, 6, 7, 8, 9, 10, 11, 12, 13, 14, 15, 16, 17, 18, 19, 20, 21, 22, 23, 25, 26, 27, 28, 29]",268.9838752,2032,1933,49,512,10,1.0
basic,34,35,0,0,0,17,"[0, 24, 17]",3,26,"[1, 2, 4, 5, 6, 7, 8, 9, 10, 11, 12, 13, 14, 15, 16, 18, 19, 20, 21, 22, 23, 25, 26, 27, 28, 29]",257.2791753,2422,390,33,238,10,1.0771477201815276
basic,34,35,0,0,0,1,"[0, 24, 17, 1]",4,25,"[2, 4, 5, 6, 7, 8, 9, 10, 11, 12, 13, 14, 15, 16, 18, 19, 20, 21, 22, 23, 25, 26, 27, 28, 29]",241.4677869,2853,431,26,151,10,1.2244804141479215
basic,34,35,0,0,0,15,"[0, 24, 17, 1, 15]",5,23,"[2, 4, 5, 6, 7, 8, 9, 10, 11, 12, 14, 16, 18, 19, 20, 21, 22, 23, 25, 26, 27, 28, 29]",218.6204676,3364,511,26,78,10,1.4642196672428094
basic,34,35,0,0,0,23,"[0, 24, 17, 1, 15, 23]",6,11,"[4, 5, 6, 9, 18, 19, 25, 26, 27, 28, 29]",158.1804147,4982,1618,15,12,10,1.3338903684702363
basic,34,35,0,0,0,9,"[0, 24, 17, 1, 15, 23, 9]",7,6,"[5, 6, 18, 19, 25, 27]",120.5373542,5410,428,6,1,10,1.5964380615155294
basic,34,35,0,0,0,18,"[0, 24, 17, 1, 15, 23, 9, 18]",8,3,"[5, 6, 25]",100.5123698,5871,461,2,1,10,1.5508488101942703
basic,34,35,0,0,0,25,"[0, 24, 17, 1, 15, 23, 9, 18, 25]",9,1,[6],66.67452121,6354,483,1,0,10,1.4408023801578587
basic,34,35,0,0,1,6,"[0, 24, 17, 1, 15, 23, 9, 18, 25, 6]",10,0,[],42.65369691,6900,546,1,0,10,1.701781671832088
basic,34,35,0,1,1,6,"[0, 24, 17, 1, 15, 23, 9, 18, 25, 6]",10,0,[],42.65369691,7783,883,1,0,10,1.701781671832088
basic,35,14,0,0,0,0,[0],1,29,"[1, 2, 3, 4, 5, 6, 7, 8, 9, 10, 11, 12, 13, 14, 15, 16, 17, 18, 19, 20, 21, 22, 23, 24, 25, 26, 27, 28, 29]",300,99,-1,8,157,10,0.0
basic,35,14,0,0,0,18,"[0, 18]",2,17,"[1, 2, 3, 4, 7, 8, 9, 13, 15, 17, 19, 20, 22, 23, 25, 26, 28]",179.8958785,3415,3316,18,136,9,1.0
basic,35,14,0,0,0,8,"[0, 18, 8]",3,13,"[1, 2, 4, 7, 13, 15, 17, 19, 20, 23, 25, 26, 28]",166.294408,3745,330,18,99,9,1.0203858410107731
basic,35,14,0,0,0,19,"[0, 18, 8, 19]",4,10,"[1, 2, 4, 7, 15, 17, 23, 25, 26, 28]",145.6788799,4257,512,7,52,9,1.0436397834807676
basic,35,14,0,0,0,1,"[0, 18, 8, 19, 1]",5,9,"[2, 4, 7, 15, 17, 23, 25, 26, 28]",130.4473337,4651,394,7,21,9,1.096538583531719
basic,35,14,0,0,0,26,"[0, 18, 8, 19, 1, 26]",6,4,"[4, 7, 23, 25]",75.70247088,5304,653,2,4,9,1.1305399427709442
basic,35,14,0,0,0,23,"[0, 18, 8, 19, 1, 26, 23]",7,3,"[4, 7, 25]",64.88581706,5610,306,2,1,9,1.2508020127641972
basic,35,14,0,0,0,25,"[0, 18, 8, 19, 1, 26, 23, 25]",8,1,[7],35.47493472,6111,501,1,0,9,1.6160852369336203
basic,35,14,0,0,1,7,"[0, 18, 8, 19, 1, 26, 23, 25, 7]",9,0,[],15.77721911,6553,442,1,0,9,1.6274549091166954
basic,35,14,0,1,1,7,"[0, 18, 8, 19, 1, 26, 23, 25, 7]",9,0,[],15.77721911,7550,997,1,0,9,1.6274549091166954
basic,36,30,0,0,0,0,[0],1,19,"[3, 4, 5, 7, 9, 11, 16, 17, 18, 19, 20, 21, 22, 24, 25, 26, 27, 28, 29]",300,100,-1,5,41,8,0.0
basic,36,30,0,0,0,5,"[0, 5]",2,6,"[3, 7, 18, 24, 27, 29]",58.18602191,6030,5930,3,7,5,1.0
basic,36,30,0,0,0,18,"[0, 5, 18]",3,4,"[3, 7, 27, 29]",45.1476171,6415,385,3,2,5,1.0434259504427708
basic,36,30,0,0,0,29,"[0, 5, 18, 29]",4,1,[3],25.83440918,6890,475,1,0,5,1.1261195374624577
basic,36,30,0,0,1,3,"[0, 5, 18, 29, 3]",5,0,[],7.233333945,7295,405,1,0,5,1.2840519744082868
basic,36,30,0,1,1,3,"[0, 5, 18, 29, 3]",5,0,[],7.233333945,8417,1122,1,0,5,1.2840519744082868
basic,37,27,0,0,0,0,[0],1,26,"[1, 3, 5, 6, 7, 8, 9, 10, 11, 12, 13, 14, 15, 16, 17, 18, 19, 21, 22, 23, 24, 25, 26, 27, 28, 29]",300,99,-1,13,578,11,0.0
basic,37,27,0,0,0,15,"[0, 15]",2,24,"[1, 3, 5, 6, 7, 8, 9, 10, 11, 12, 13, 14, 16, 17, 18, 19, 21, 22, 23, 24, 25, 26, 27, 29]",263.7508621,2862,2763,6,219,11,1.0
basic,37,27,0,0,0,24,"[0, 15, 24]",3,20,"[1, 5, 6, 7, 8, 9, 10, 12, 13, 14, 16, 17, 18, 19, 21, 23, 25, 26, 27, 29]",246.5462115,3482,620,6,130,11,1.130933077698322
basic,37,27,0,0,0,17,"[0, 15, 24, 17]",4,15,"[1, 6, 8, 10, 12, 13, 14, 16, 18, 19, 23, 25, 26, 27, 29]",229.9932662,4030,548,4,60,11,1.1285538435963374
basic,37,27,0,0,0,12,"[0, 15, 24, 17, 12]",5,14,"[1, 6, 8, 10, 13, 14, 16, 18, 19, 23, 25, 26, 27, 29]",218.8129263,4761,731,2,32,11,1.2561880288755216
basic,37,27,0,0,0,10,"[0, 15, 24, 17, 12, 10]",6,11,"[1, 8, 13, 14, 18, 19, 23, 25, 26, 27, 29]",207.7675653,5497,736,2,28,11,1.2228289337766665
basic,37,27,0,0,0,13,"[0, 15, 24, 17, 12, 10, 13]",7,9,"[1, 8, 14, 18, 19, 23, 26, 27, 29]",167.9178476,6108,611,2,18,11,1.3421291994761178
basic,37,27,0,0,0,19,"[0, 15, 24, 17, 12, 10, 13, 19]",8,5,"[1, 8, 14, 23, 29]",131.6825057,6859,751,2,6,11,1.294749956153846
basic,37,27,0,0,0,8,"[0, 15, 24, 17, 12, 10, 13, 19, 8]",9,3,"[14, 23, 29]",116.816437,7396,537,2,1,11,1.3554286578836865
basic,37,27,0,0,0,29,"[0, 15, 24, 17, 12, 10, 13, 19, 8, 29]",10,1,[14],57.61339652,9322,1926,1,0,11,1.248354519573802
basic,37,27,0,0,1,14,"[0, 15, 24, 17, 12, 10, 13, 19, 8, 29, 14]",11,0,[],13.31892734,10997,1675,1,0,11,1.562811097555156
basic,37,27,0,1,1,14,"[0, 15, 24, 17, 12, 10, 13, 19, 8, 29, 14]",11,0,[],13.31892734,11900,903,1,0,11,1.562811097555156
basic,38,23,0,0,0,0,[0],1,28,"[1, 2, 3, 4, 5, 6, 7, 8, 9, 10, 11, 12, 13, 14, 15, 16, 17, 18, 19, 20, 21, 22, 23, 25, 26, 27, 28, 29]",300,99,-1,76,2626,10,0.0
basic,38,23,0,0,0,13,"[0, 13]",2,19,"[1, 2, 3, 5, 6, 7, 8, 9, 10, 12, 14, 17, 18, 19, 21, 22, 23, 27, 29]",189.3202819,5850,5751,9,168,10,1.0
basic,38,23,0,0,0,12,"[0, 13, 12]",3,16,"[1, 2, 3, 6, 7, 8, 9, 10, 14, 17, 18, 21, 22, 23, 27, 29]",177.2372359,6257,407,9,96,10,1.0014195490503164
basic,38,23,0,0,0,2,"[0, 13, 12, 2]",4,12,"[1, 3, 6, 7, 9, 10, 14, 18, 21, 22, 27, 29]",163.3447919,8735,2478,4,30,10,1.0014394317924602
basic,38,23,0,0,0,14,"[0, 13, 12, 2, 14]",5,10,"[1, 3, 6, 7, 9, 10, 18, 22, 27, 29]",148.4787232,9607,872,1,8,10,1.0754577801718215
basic,38,23,0,0,0,9,"[0, 13, 12, 2, 14, 9]",6,8,"[1, 6, 7, 10, 18, 22, 27, 29]",138.0384167,9939,332,1,6,10,1.2396753751445624
basic,38,23,0,0,0,29,"[0, 13, 12, 2, 14, 9, 29]",7,5,"[1, 6, 7, 10, 22]",86.41477868,10859,920,1,3,10,1.3850494334073642
basic,38,23,0,0,0,7,"[0, 13, 12, 2, 14, 9, 29, 7]",8,2,"[1, 10]",62.33158952,11378,519,1,1,10,1.4130916819766952
basic,38,23,0,0,0,10,"[0, 13, 12, 2, 14, 9, 29, 7, 10]",9,1,[1],34.87252909,11860,482,1,0,10,1.3871706550587182
basic,38,23,0,0,1,1,"[0, 13, 12, 2, 14, 9, 29, 7, 10, 1]",10,0,[],6.219431521,12682,822,1,0,10,1.3537125175696414
basic,38,23,0,1,1,1,"[0, 13, 12, 2, 14, 9, 29, 7, 10, 1]",10,0,[],6.219431521,13850,1168,1,0,10,1.3537125175696414
basic,39,42,0,0,0,0,[0],1,29,"[1, 2, 3, 4, 5, 6, 7, 8, 9, 10, 11, 12, 13, 14, 15, 16, 17, 18, 19, 20, 21, 22, 23, 24, 25, 26, 27, 28, 29]",300,100,-1,16,302,9,0.0
basic,39,42,0,0,0,5,"[0, 5]",2,28,"[1, 2, 3, 4, 6, 7, 8, 9, 10, 11, 12, 13, 14, 15, 16, 17, 18, 19, 20, 21, 22, 23, 24, 25, 26, 27, 28, 29]",191.2939744,4901,4801,1,22,9,1.0
basic,39,42,0,0,0,4,"[0, 5, 4]",3,23,"[1, 2, 3, 6, 7, 8, 9, 10, 11, 13, 15, 17, 18, 19, 20, 21, 22, 23, 24, 25, 26, 27, 29]",171.4445412,5441,540,1,14,9,1.420957801478707
basic,39,42,0,0,0,22,"[0, 5, 4, 22]",4,20,"[1, 2, 3, 6, 7, 8, 9, 11, 15, 17, 18, 19, 20, 21, 23, 24, 25, 26, 27, 29]",160.2642013,5990,549,1,11,9,1.5771494659680896
basic,39,42,0,0,0,8,"[0, 5, 4, 22, 8]",5,14,"[1, 2, 3, 6, 7, 11, 15, 18, 19, 24, 25, 26, 27, 29]",138.1282577,6548,558,1,10,9,1.5055393955524201
basic,39,42,0,0,0,1,"[0, 5, 4, 22, 8, 1]",6,5,"[2, 7, 19, 26, 27]",89.03650682,7017,469,1,7,9,1.3547259083637835
basic,39,42,0,0,0,7,"[0, 5, 4, 22, 8, 1, 7]",7,4,"[2, 19, 26, 27]",59.03650682,7503,486,1,3,9,1.3909715672447451
basic,39,42,0,0,0,26,"[0, 5, 4, 22, 8, 1, 7, 26]",8,1,[27],32.46584631,8074,571,1,0,9,1.3511825943939393
basic,39,42,0,0,1,27,"[0, 5, 4, 22, 8, 1, 7, 26, 27]",9,0,[],14.43808994,8813,739,1,0,9,1.3391911688802078
basic,39,42,0,1,1,27,"[0, 5, 4, 22, 8, 1, 7, 26, 27]",9,0,[],14.43808994,10234,1421,1,0,9,1.3391911688802078
basic,40,18,0,0,0,0,[0],1,28,"[1, 2, 3, 4, 5, 6, 7, 8, 9, 10, 11, 12, 13, 14, 16, 17, 18, 19, 20, 21, 22, 23, 24, 25, 26, 27, 28, 29]",300,100,-1,3,136,10,0.0
basic,40,18,0,0,0,28,"[0, 28]",2,16,"[1, 3, 5, 7, 8, 9, 12, 13, 14, 16, 20, 23, 24, 25, 26, 27]",236.4311397,3995,3895,2,19,10,1.0
basic,40,18,0,0,0,7,"[0, 28, 7]",3,15,"[1, 3, 5, 8, 9, 12, 13, 14, 16, 20, 23, 24, 25, 26, 27]",214.4084242,4329,334,2,17,10,1.4345180696367563
basic,40,18,0,0,0,25,"[0, 28, 7, 25]",4,13,"[1, 3, 5, 8, 9, 12, 13, 14, 16, 20, 23, 26, 27]",186.6055466,4756,427,2,15,10,1.8896451241781882
basic,40,18,0,0,0,8,"[0, 28, 7, 25, 8]",5,10,"[3, 5, 9, 12, 13, 14, 16, 23, 26, 27]",149.551532,5419,663,2,10,10,1.590467437592877
basic,40,18,0,0,0,13,"[0, 28, 7, 25, 8, 13]",6,9,"[3, 5, 9, 12, 14, 16, 23, 26, 27]",128.4565089,5902,483,2,5,10,1.8248274983549797
basic,40,18,0,0,0,14,"[0, 28, 7, 25, 8, 13, 14]",7,7,"[3, 5, 9, 12, 23, 26, 27]",109.4828429,6317,415,2,3,10,1.6993534956692746
basic,40,18,0,0,0,3,"[0, 28, 7, 25, 8, 13, 14, 3]",8,3,"[5, 12, 27]",79.39962499,6855,538,2,1,10,1.802637206541468
basic,40,18,0,0,0,5,"[0, 28, 7, 25, 8, 13, 14, 3, 5]",9,1,[12],21.21887216,8025,1170,1,0,10,1.559774889743805
basic,40,18,0,0,1,12,"[0, 28, 7, 25, 8, 13, 14, 3, 5, 12]",10,0,[],9.817117911,8706,681,1,0,10,1.563993037384447
basic,40,18,0,1,1,12,"[0, 28, 7, 25, 8, 13, 14, 3, 5, 12]",10,0,[],9.817117911,9984,1278,1,0,10,1.563993037384447
basic,41,44,0,0,0,0,[0],1,29,"[1, 2, 3, 4, 5, 6, 7, 8, 9, 10, 11, 12, 13, 14, 15, 16, 17, 18, 19, 20, 21, 22, 23, 24, 25, 26, 27, 28, 29]",300,99,-1,13,126,7,0.0
basic,41,44,0,0,0,8,"[0, 8]",2,17,"[1, 4, 5, 7, 9, 10, 11, 12, 13, 14, 15, 20, 21, 23, 24, 25, 27]",145.7923478,4442,4343,1,10,7,1.0
basic,41,44,0,0,0,20,"[0, 8, 20]",3,16,"[1, 4, 5, 7, 9, 10, 11, 12, 13, 14, 15, 21, 23, 24, 25, 27]",133.7093018,4757,315,1,9,7,1.0890794433668698
basic,41,44,0,0,0,9,"[0, 8, 20, 9]",4,7,"[4, 7, 11, 12, 14, 23, 24]",76.43801756,5459,702,1,6,7,1.40892325509949
basic,41,44,0,0,0,4,"[0, 8, 20, 9, 4]",5,4,"[7, 12, 23, 24]",56.74030196,6023,564,1,3,7,1.3849770570803555
basic,41,44,0,0,0,7,"[0, 8, 20, 9, 4, 7]",6,1,[23],25.72417712,6465,442,1,0,7,1.3274380931474288
basic,41,44,0,0,1,23,"[0, 8, 20, 9, 4, 7, 23]",7,0,[],6.619203947,7328,863,1,0,7,1.3395824779823196
basic,41,44,0,1,1,23,"[0, 8, 20, 9, 4, 7, 23]",7,0,[],6.619203947,8583,1255,1,0,7,1.3395824779823196
basic,42,26,0,0,0,0,[0],1,29,"[1, 2, 3, 4, 5, 6, 7, 8, 9, 10, 11, 12, 13, 14, 15, 16, 17, 18, 19, 20, 21, 22, 23, 24, 25, 26, 27, 28, 29]",300,100,-1,9,226,9,0.0
basic,42,26,0,0,0,10,"[0, 10]",2,6,"[4, 6, 14, 16, 17, 29]",138.1822012,4214,4114,9,66,7,1.0
basic,42,26,0,0,0,6,"[0, 10, 6]",3,5,"[4, 14, 16, 17, 29]",108.9076389,4760,546,8,23,7,1.1897813099332413
basic,42,26,0,0,0,14,"[0, 10, 6, 14]",4,4,"[4, 16, 17, 29]",87.88384285,5053,293,4,6,7,1.3162481558218453
basic,42,26,0,0,0,17,"[0, 10, 6, 14, 17]",5,3,"[4, 16, 29]",65.41163779,5561,508,3,1,7,1.6510075497064465
basic,42,26,0,0,0,4,"[0, 10, 6, 14, 17, 4]",6,1,[29],44.31661468,5916,355,1,0,7,2.1095586782058087
basic,42,26,0,0,1,29,"[0, 10, 6, 14, 17, 4, 29]",7,0,[],20.31661468,6265,349,1,0,7,2.288952413143475
basic,42,26,0,1,1,29,"[0, 10, 6, 14, 17, 4, 29]",7,0,[],20.31661468,7517,1252,1,0,7,2.288952413143475
basic,43,17,0,0,0,0,[0],1,28,"[1, 2, 3, 4, 5, 6, 7, 8, 9, 10, 11, 12, 13, 14, 15, 16, 17, 18, 19, 20, 22, 23, 24, 25, 26, 27, 28, 29]",300,99,-1,2,73,8,0.0
basic,43,17,0,0,0,9,"[0, 9]",2,25,"[1, 2, 3, 5, 6, 7, 8, 10, 11, 12, 14, 15, 16, 17, 18, 19, 20, 22, 23, 24, 25, 26, 27, 28, 29]",210.5293344,1708,1609,1,34,8,1.0
basic,43,17,0,0,0,16,"[0, 9, 16]",3,21,"[1, 2, 3, 5, 7, 8, 10, 11, 12, 14, 17, 18, 19, 20, 22, 23, 25, 26, 27, 28, 29]",197.1876704,2140,432,1,26,8,1.173103464220352
basic,43,17,0,0,0,2,"[0, 9, 16, 2]",4,18,"[1, 3, 5, 7, 8, 10, 11, 12, 14, 17, 18, 19, 23, 25, 26, 27, 28, 29]",181.0631549,2490,350,1,23,8,1.14825089247282
basic,43,17,0,0,0,17,"[0, 9, 16, 2, 17]",5,7,"[7, 8, 12, 14, 26, 27, 29]",142.7356191,2963,473,4,5,7,1.4896040699768547
basic,43,17,0,0,0,8,"[0, 9, 16, 2, 17, 8]",6,3,"[7, 12, 27]",104.5256727,3495,532,3,0,7,1.4604726966175894
basic,43,17,0,0,1,7,"[0, 9, 16, 2, 17, 8, 7]",7,0,[],33.81499459,4228,733,1,0,7,1.4474701869793896
basic,43,17,0,1,1,7,"[0, 9, 16, 2, 17, 8, 7]",7,0,[],33.81499459,5049,821,1,0,7,1.4474701869793896
basic,44,1,0,0,0,0,[0],1,26,"[1, 2, 4, 5, 7, 8, 9, 10, 11, 12, 13, 14, 15, 16, 17, 18, 19, 20, 21, 22, 23, 24, 25, 26, 28, 29]",300,99,-1,6,74,7,0.0
basic,44,1,0,0,0,14,"[0, 14]",2,19,"[1, 4, 5, 8, 9, 13, 15, 17, 18, 19, 20, 21, 22, 23, 24, 25, 26, 28, 29]",200.1901808,2553,2454,5,42,7,1.0
basic,44,1,0,0,0,17,"[0, 14, 17]",3,15,"[1, 4, 5, 8, 9, 13, 15, 18, 19, 20, 22, 23, 25, 28, 29]",147.8356204,3093,540,5,27,7,1.0028844724416826
basic,44,1,0,0,0,1,"[0, 14, 17, 1]",4,12,"[4, 5, 8, 9, 15, 18, 20, 22, 23, 25, 28, 29]",123.4840291,3641,548,5,15,7,1.0264985578353567
basic,44,1,0,0,0,28,"[0, 14, 17, 1, 28]",5,5,"[9, 15, 22, 23, 29]",88.59850198,4189,548,5,3,7,1.0339861575999345
basic,44,1,0,0,0,23,"[0, 14, 17, 1, 28, 23]",6,2,"[15, 22]",51.70676849,4708,519,2,0,7,1.0327458250705703
basic,44,1,0,0,1,15,"[0, 14, 17, 1, 28, 23, 15]",7,0,[],20.81987807,8547,3839,1,0,7,1.1948681641401226
basic,44,1,0,1,1,15,"[0, 14, 17, 1, 28, 23, 15]",7,0,[],20.81987807,9266,719,1,0,7,1.1948681641401226
basic,45,9,0,0,0,0,[0],1,27,"[1, 3, 4, 5, 6, 7, 8, 9, 10, 11, 13, 14, 15, 16, 17, 18, 19, 20, 21, 22, 23, 24, 25, 26, 27, 28, 29]",300,99,-1,2,182,10,0.0
basic,45,9,0,0,0,8,"[0, 8]",2,25,"[1, 3, 4, 5, 6, 7, 9, 10, 11, 13, 14, 15, 16, 17, 18, 19, 20, 21, 22, 23, 24, 25, 26, 27, 28]",236.2191251,3203,3104,2,102,9,1.0
basic,45,9,0,0,0,23,"[0, 8, 23]",3,23,"[1, 3, 4, 5, 6, 7, 9, 10, 11, 13, 15, 16, 17, 18, 19, 20, 21, 22, 24, 25, 26, 27, 28]",214.7482146,5594,2391,30,187,8,1.431842876737407
basic,45,9,0,0,0,9,"[0, 8, 23, 9]",4,21,"[1, 3, 4, 5, 7, 10, 11, 13, 15, 16, 17, 18, 19, 20, 21, 22, 24, 25, 26, 27, 28]",192.3875348,6104,510,18,69,8,1.4451462661765562
basic,45,9,0,0,0,28,"[0, 8, 23, 9, 28]",5,14,"[3, 4, 7, 10, 16, 17, 18, 19, 20, 21, 22, 25, 26, 27]",151.5708715,6749,645,12,21,8,1.9983320118704992
basic,45,9,0,0,0,21,"[0, 8, 23, 9, 28, 21]",6,6,"[10, 16, 17, 20, 22, 26]",98.57087153,7391,642,4,5,8,1.6993549916449882
basic,45,9,0,0,0,20,"[0, 8, 23, 9, 28, 21, 20]",7,4,"[10, 17, 22, 26]",86.48782556,11606,4215,4,0,8,1.6858559440151266
basic,45,9,0,0,1,17,"[0, 8, 23, 9, 28, 21, 20, 17]",8,0,[],4.989359314,12637,1031,1,0,8,1.4288952431397515
basic,45,9,0,1,1,17,"[0, 8, 23, 9, 28, 21, 20, 17]",8,0,[],4.989359314,13666,1029,1,0,8,1.4288952431397515
basic,46,4,0,0,0,0,[0],1,26,"[3, 4, 5, 6, 7, 8, 10, 11, 12, 13, 14, 15, 16, 17, 18, 19, 20, 21, 22, 23, 24, 25, 26, 27, 28, 29]",300,116,-1,4,489,10,0.0
basic,46,4,0,0,0,28,"[0, 28]",2,21,"[3, 4, 5, 6, 10, 11, 12, 13, 14, 15, 16, 17, 19, 20, 21, 22, 23, 24, 25, 26, 27]",225.9392142,4191,4075,2,216,10,1.0
basic,46,4,0,0,0,14,"[0, 28, 14]",3,13,"[3, 4, 5, 6, 11, 13, 16, 17, 20, 21, 22, 24, 25]",159.6972335,4976,785,1,26,10,1.0273973946789214
basic,46,4,0,0,0,25,"[0, 28, 14, 25]",4,12,"[3, 4, 5, 6, 11, 13, 16, 17, 20, 21, 22, 24]",143.572718,5404,428,1,25,10,1.233547772313525
basic,46,4,0,0,0,11,"[0, 28, 14, 25, 11]",5,10,"[3, 4, 5, 6, 13, 16, 17, 20, 21, 22]",124.7844238,6001,597,1,15,10,1.425978575879479
basic,46,4,0,0,0,16,"[0, 28, 14, 25, 11, 16]",6,9,"[3, 4, 5, 6, 13, 17, 20, 21, 22]",109.7844238,6399,398,1,12,10,1.3799325158051412
basic,46,4,0,0,0,21,"[0, 28, 14, 25, 11, 16, 21]",7,4,"[5, 17, 20, 22]",65.58035157,10112,3713,3,3,9,1.5860540591673642
basic,46,4,0,0,0,22,"[0, 28, 14, 25, 11, 16, 21, 22]",8,3,"[5, 17, 20]",54.53499056,10569,457,3,0,9,1.5471132483772176
basic,46,4,0,0,1,20,"[0, 28, 14, 25, 11, 16, 21, 22, 20]",9,0,[],24.30255764,18029,7460,1,0,9,1.5087977616865345
basic,46,4,0,1,1,20,"[0, 28, 14, 25, 11, 16, 21, 22, 20]",9,0,[],24.30255764,19283,1254,1,0,9,1.5087977616865345
basic,47,25,0,0,0,0,[0],1,28,"[1, 2, 3, 4, 5, 7, 8, 9, 10, 11, 12, 13, 14, 15, 16, 17, 18, 19, 20, 21, 22, 23, 24, 25, 26, 27, 28, 29]",300,99,-1,5,94,10,0.0
basic,47,25,0,0,0,23,"[0, 23]",2,23,"[1, 2, 3, 5, 7, 8, 9, 11, 12, 13, 14, 16, 17, 19, 20, 21, 22, 24, 25, 26, 27, 28, 29]",259.7756293,6225,6126,3,33,10,1.0
basic,47,25,0,0,0,19,"[0, 23, 19]",3,21,"[1, 2, 3, 5, 7, 8, 9, 11, 12, 13, 14, 16, 17, 20, 21, 22, 24, 25, 27, 28, 29]",223.9287326,6785,560,3,24,10,1.583101227007039
basic,47,25,0,0,0,29,"[0, 23, 19, 29]",4,19,"[1, 2, 3, 5, 7, 8, 9, 11, 12, 13, 14, 16, 17, 20, 21, 22, 24, 25, 28]",207.649912,7164,379,3,17,10,1.474631541426484
basic,47,25,0,0,0,22,"[0, 23, 19, 29, 22]",5,18,"[1, 2, 3, 5, 7, 8, 9, 11, 12, 13, 14, 16, 17, 20, 21, 24, 25, 28]",191.5253965,7488,324,3,14,10,1.4020377754906637
basic,47,25,0,0,0,7,"[0, 23, 19, 29, 22, 7]",6,7,"[3, 8, 9, 11, 13, 24, 28]",115.8814939,8871,1383,3,11,10,1.5709678649326715
basic,47,25,0,0,0,24,"[0, 23, 19, 29, 22, 7, 24]",7,5,"[3, 8, 9, 13, 28]",91.12265712,9312,441,3,7,10,1.486191600033379
basic,47,25,0,0,0,9,"[0, 23, 19, 29, 22, 7, 24, 9]",8,4,"[3, 8, 13, 28]",73.09490075,9759,447,3,3,10,1.453504870342882
basic,47,25,0,0,0,3,"[0, 23, 19, 29, 22, 7, 24, 9, 3]",9,3,"[8, 13, 28]",42.82940885,10246,487,3,0,10,1.388955167525479
basic,47,25,0,0,1,13,"[0, 23, 19, 29, 22, 7, 24, 9, 3, 13]",10,0,[],11.58841014,14517,4271,1,0,10,1.4309045890044414
basic,47,25,0,1,1,13,"[0, 23, 19, 29, 22, 7, 24, 9, 3, 13]",10,0,[],11.58841014,15233,716,1,0,10,1.4309045890044414
basic,48,13,0,0,0,0,[0],1,29,"[1, 2, 3, 4, 5, 6, 7, 8, 9, 10, 11, 12, 13, 14, 15, 16, 17, 18, 19, 20, 21, 22, 23, 24, 25, 26, 27, 28, 29]",300,99,-1,60,2676,11,0.0
basic,48,13,0,0,0,28,"[0, 28]",2,24,"[1, 2, 3, 4, 6, 7, 8, 9, 10, 11, 12, 13, 15, 16, 17, 19, 20, 21, 22, 23, 24, 26, 27, 29]",226.3182519,1570,1471,12,378,10,1.0
basic,48,13,0,0,0,2,"[0, 28, 2]",3,20,"[1, 3, 4, 6, 7, 9, 11, 12, 13, 15, 16, 17, 19, 20, 21, 23, 24, 26, 27, 29]",188.6751915,2055,485,9,174,10,1.0158286399660754
basic,48,13,0,0,0,29,"[0, 28, 2, 29]",4,19,"[1, 3, 4, 6, 7, 9, 11, 12, 13, 15, 16, 17, 19, 20, 21, 23, 24, 26, 27]",176.9704916,2369,314,9,132,10,1.1053279759370194
basic,48,13,0,0,0,7,"[0, 28, 2, 29, 7]",5,18,"[1, 3, 4, 6, 9, 11, 12, 13, 15, 16, 17, 19, 20, 21, 23, 24, 26, 27]",161.706154,2724,355,6,72,10,1.313811244316471
basic,48,13,0,0,0,26,"[0, 28, 2, 29, 7, 26]",6,17,"[1, 3, 4, 6, 9, 11, 12, 13, 15, 16, 17, 19, 20, 21, 23, 24, 27]",151.2658475,3005,281,6,39,10,1.554636901089982
basic,48,13,0,0,0,6,"[0, 28, 2, 29, 7, 26, 6]",7,13,"[1, 3, 4, 11, 13, 15, 16, 17, 19, 20, 23, 24, 27]",131.1660963,3427,422,4,17,10,1.554967005613632
basic,48,13,0,0,0,11,"[0, 28, 2, 29, 7, 26, 6, 11]",8,6,"[1, 13, 15, 16, 17, 23]",112.0611231,3850,423,3,4,10,1.4733168623367165
basic,48,13,0,0,0,17,"[0, 28, 2, 29, 7, 26, 6, 11, 17]",9,1,[13],40.4720178,4924,1074,1,0,10,1.305942716380454
basic,48,13,0,0,1,13,"[0, 28, 2, 29, 7, 26, 6, 11, 17, 13]",10,0,[],7.09537926,5839,915,1,0,10,1.6141242116952677
basic,48,13,0,1,1,13,"[0, 28, 2, 29, 7, 26, 6, 11, 17, 13]",10,0,[],7.09537926,6549,710,1,0,10,1.6141242116952677
basic,49,39,0,0,0,0,[0],1,28,"[1, 2, 3, 4, 5, 6, 7, 9, 10, 11, 12, 13, 14, 15, 16, 17, 18, 19, 20, 21, 22, 23, 24, 25, 26, 27, 28, 29]",300,99,-1,1,30,10,0.0
basic,49,39,0,0,0,29,"[0, 29]",2,26,"[1, 2, 3, 4, 5, 6, 7, 9, 10, 12, 13, 14, 15, 16, 17, 18, 19, 20, 21, 22, 23, 24, 25, 26, 27, 28]",243.0614366,6199,6100,8,104,9,1.0
basic,49,39,0,0,0,12,"[0, 29, 12]",3,18,"[1, 2, 4, 5, 7, 9, 10, 13, 14, 15, 16, 18, 19, 22, 23, 24, 26, 28]",182.5221931,10432,4233,5,54,9,1.0026200331524904
basic,49,39,0,0,0,10,"[0, 29, 12, 10]",4,16,"[1, 2, 4, 5, 7, 9, 13, 14, 15, 16, 18, 19, 22, 23, 24, 26]",147.0116313,10896,464,5,34,9,1.2874817019928908
basic,49,39,0,0,0,7,"[0, 29, 12, 10, 7]",5,10,"[1, 2, 5, 13, 16, 18, 19, 22, 24, 26]",113.5900814,11387,491,4,12,9,1.2250826263866774
basic,49,39,0,0,0,26,"[0, 29, 12, 10, 7, 26]",6,5,"[1, 16, 18, 19, 22]",94.90853971,11855,468,3,4,9,1.2697275353190085
basic,49,39,0,0,0,22,"[0, 29, 12, 10, 7, 26, 22]",7,2,"[16, 19]",77.18849457,12307,452,2,0,9,1.438961743955176
basic,49,39,0,0,0,16,"[0, 29, 12, 10, 7, 26, 22, 16]",8,1,[19],42.18849457,12848,541,1,0,9,1.3580882130477205
basic,49,39,0,0,1,19,"[0, 29, 12, 10, 7, 26, 22, 16, 19]",9,0,[],24.72424537,13328,480,1,0,9,1.3646589157842668
basic,49,39,0,1,1,19,"[0, 29, 12, 10, 7, 26, 22, 16, 19]",9,0,[],24.72424537,14266,938,1,0,9,1.3646589157842668
basic,50,5,0,0,0,0,[0],1,29,"[1, 2, 3, 4, 5, 6, 7, 8, 9, 10, 11, 12, 13, 14, 15, 16, 17, 18, 19, 20, 21, 22, 23, 24, 25, 26, 27, 28, 29]",300,99,-1,5,139,9,0.0
basic,50,5,0,0,0,12,"[0, 12]",2,22,"[2, 4, 5, 6, 8, 9, 10, 13, 14, 15, 16, 17, 18, 19, 21, 22, 23, 24, 25, 26, 27, 28]",228.3062067,3080,2981,1,27,9,1.0
basic,50,5,0,0,0,25,"[0, 12, 25]",3,21,"[2, 4, 5, 6, 8, 9, 10, 13, 14, 15, 16, 17, 18, 19, 21, 22, 23, 24, 26, 27, 28]",200.5213187,3489,409,1,20,9,1.584023303445617
basic,50,5,0,0,0,23,"[0, 12, 25, 23]",4,19,"[2, 4, 5, 6, 8, 9, 10, 13, 14, 15, 16, 17, 18, 19, 21, 22, 24, 26, 27]",182.0822298,3909,420,1,14,9,2.3508446989254357
basic,50,5,0,0,0,24,"[0, 12, 25, 23, 24]",5,15,"[2, 4, 5, 6, 8, 9, 13, 14, 15, 17, 18, 19, 22, 26, 27]",158.995437,4346,437,1,12,9,1.9469752046288753
basic,50,5,0,0,0,17,"[0, 12, 25, 23, 24, 17]",6,7,"[4, 5, 6, 8, 15, 18, 19]",124.0097257,4850,504,1,8,9,1.6482276497563642
basic,50,5,0,0,0,5,"[0, 12, 25, 23, 24, 17, 5]",7,4,"[4, 6, 15, 18]",80.96323916,5939,1089,1,3,9,1.4654649104389412
basic,50,5,0,0,1,6,"[0, 12, 25, 23, 24, 17, 5, 6]",8,0,[],11.64513186,6617,678,1,0,8,1.7266758571257486
basic,50,5,0,1,1,6,"[0, 12, 25, 23, 24, 17, 5, 6]",8,0,[],11.64513186,8266,1649,1,0,8,1.7266758571257486
basic,51,21,0,0,0,0,[0],1,29,"[1, 2, 3, 4, 5, 6, 7, 8, 9, 10, 11, 12, 13, 14, 15, 16, 17, 18, 19, 20, 21, 22, 23, 24, 25, 26, 27, 28, 29]",300,99,-1,84,830,9,0.0
basic,51,21,0,0,0,25,"[0, 25]",2,26,"[1, 2, 3, 4, 5, 6, 7, 8, 9, 10, 11, 12, 13, 14, 15, 16, 17, 18, 20, 21, 22, 23, 24, 26, 27, 29]",240.1836143,2956,2857,30,238,9,1.0
basic,51,21,0,0,0,23,"[0, 25, 23]",3,21,"[1, 2, 4, 6, 7, 8, 9, 10, 11, 12, 14, 15, 16, 17, 18, 20, 21, 22, 24, 27, 29]",196.8592562,3401,445,14,80,9,1.0416131642057598
basic,51,21,0,0,0,21,"[0, 25, 23, 21]",4,14,"[1, 4, 6, 8, 9, 14, 15, 16, 17, 18, 20, 22, 24, 29]",167.2450705,3826,425,10,25,9,1.4768792067751173
basic,51,21,0,0,0,14,"[0, 25, 23, 21, 14]",5,10,"[4, 8, 9, 15, 16, 17, 18, 22, 24, 29]",141.6325735,4386,560,8,13,9,1.3826076066332742
basic,51,21,0,0,0,4,"[0, 25, 23, 21, 14, 4]",6,7,"[8, 15, 16, 17, 18, 24, 29]",127.4904379,4658,272,8,3,9,1.3487191473328533
basic,51,21,0,0,0,16,"[0, 25, 23, 21, 14, 4, 16]",7,3,"[8, 15, 24]",82.89223163,5657,999,4,1,9,1.3301484172843694
basic,51,21,0,0,0,8,"[0, 25, 23, 21, 14, 4, 16, 8]",8,2,"[15, 24]",64.2911564,6065,408,2,0,9,1.3009886562393016
basic,51,21,0,0,1,15,"[0, 25, 23, 21, 14, 4, 16, 8, 15]",9,0,[],39.2911564,6470,405,1,0,9,1.5486591410600183
basic,51,21,0,1,1,15,"[0, 25, 23, 21, 14, 4, 16, 8, 15]",9,0,[],39.2911564,7366,896,1,0,9,1.5486591410600183
basic,52,2,0,0,0,0,[0],1,23,"[1, 2, 4, 5, 6, 7, 8, 9, 12, 13, 15, 16, 17, 18, 19, 20, 22, 23, 25, 26, 27, 28, 29]",300,99,-1,70,620,10,0.0
basic,52,2,0,0,0,19,"[0, 19]",2,22,"[1, 2, 4, 5, 6, 7, 8, 9, 12, 13, 15, 16, 17, 18, 20, 22, 23, 25, 26, 27, 28, 29]",210.306076,1326,1227,67,431,10,1.0
basic,52,2,0,0,0,12,"[0, 19, 12]",3,17,"[1, 4, 5, 6, 7, 13, 15, 16, 17, 18, 20, 22, 25, 26, 27, 28, 29]",174.2921898,1751,425,66,298,10,1.1107635036313153
basic,52,2,0,0,0,5,"[0, 19, 12, 5]",4,11,"[1, 6, 7, 13, 15, 16, 18, 22, 25, 26, 29]",144.7625437,2201,450,38,136,10,1.0968174771581647
basic,52,2,0,0,0,22,"[0, 19, 12, 5, 22]",5,8,"[1, 6, 7, 13, 15, 18, 26, 29]",131.9562952,2665,464,20,63,10,1.0889910507461968
basic,52,2,0,0,0,13,"[0, 19, 12, 5, 22, 13]",6,7,"[1, 6, 7, 15, 18, 26, 29]",117.0902265,3174,509,19,20,10,1.236526217328057
basic,52,2,0,0,0,18,"[0, 19, 12, 5, 22, 13, 18]",7,4,"[7, 15, 26, 29]",81.91921567,3629,455,10,3,10,1.2128708213409936
basic,52,2,0,0,0,7,"[0, 19, 12, 5, 22, 13, 18, 7]",8,3,"[15, 26, 29]",71.62358553,4374,745,5,0,10,1.2019811287894737
basic,52,2,0,0,0,26,"[0, 19, 12, 5, 22, 13, 18, 7, 26]",9,2,"[15, 29]",48.82007703,7929,3555,2,0,10,1.1883593342191134
basic,52,2,0,0,1,15,"[0, 19, 12, 5, 22, 13, 18, 7, 26, 15]",10,0,[],24.61264015,8539,610,1,0,10,1.4619750353663825
basic,52,2,0,1,1,15,"[0, 19, 12, 5, 22, 13, 18, 7, 26, 15]",10,0,[],24.61264015,9617,1078,1,0,10,1.4619750353663825
basic,53,8,0,0,0,0,[0],1,29,"[1, 2, 3, 4, 5, 6, 7, 8, 9, 10, 11, 12, 13, 14, 15, 16, 17, 18, 19, 20, 21, 22, 23, 24, 25, 26, 27, 28, 29]",300,116,-1,10,149,9,0.0
basic,53,8,0,0,0,5,"[0, 5]",2,28,"[1, 2, 3, 4, 6, 7, 8, 9, 10, 11, 12, 13, 14, 15, 16, 17, 18, 19, 20, 21, 22, 23, 24, 25, 26, 27, 28, 29]",254.5137383,2699,2583,10,100,9,1.0
basic,53,8,0,0,0,14,"[0, 5, 14]",3,20,"[1, 2, 3, 4, 6, 7, 11, 15, 16, 17, 18, 19, 20, 21, 22, 23, 24, 25, 28, 29]",214.5512559,3768,1069,4,36,9,1.0001019035932595
basic,53,8,0,0,0,25,"[0, 5, 14, 25]",4,16,"[1, 3, 4, 6, 11, 15, 16, 17, 18, 20, 21, 22, 23, 24, 28, 29]",169.4513668,4325,557,9,37,8,1.8918105093907904
basic,53,8,0,0,0,1,"[0, 5, 14, 25, 1]",5,12,"[3, 4, 6, 11, 16, 17, 18, 20, 21, 22, 23, 28]",144.4513668,4770,445,6,17,8,1.669095890814316
basic,53,8,0,0,0,23,"[0, 5, 14, 25, 1, 23]",6,7,"[3, 4, 6, 17, 18, 21, 28]",121.4296379,5209,439,4,5,8,1.5366044444966092
basic,53,8,0,0,0,18,"[0, 5, 14, 25, 1, 23, 18]",7,3,"[4, 17, 28]",79.6684119,5732,523,3,0,8,1.6668365933940024
basic,53,8,0,0,1,28,"[0, 5, 14, 25, 1, 23, 18, 28]",8,0,[],14.04829303,6422,690,1,0,8,1.697618363169382
basic,53,8,0,1,1,28,"[0, 5, 14, 25, 1, 23, 18, 28]",8,0,[],14.04829303,8033,1611,1,0,8,1.697618363169382
basic,54,16,0,0,0,0,[0],1,29,"[1, 2, 3, 4, 5, 6, 7, 8, 9, 10, 11, 12, 13, 14, 15, 16, 17, 18, 19, 20, 21, 22, 23, 24, 25, 26, 27, 28, 29]",300,99,-1,13,161,9,0.0
basic,54,16,0,0,0,17,"[0, 17]",2,27,"[1, 2, 3, 4, 5, 7, 8, 9, 10, 11, 12, 13, 14, 15, 16, 18, 19, 20, 21, 22, 23, 24, 25, 26, 27, 28, 29]",241.3058776,14134,14035,2,58,9,1.0
basic,54,16,0,0,0,16,"[0, 17, 16]",3,26,"[1, 2, 3, 4, 5, 7, 8, 9, 10, 11, 12, 13, 14, 15, 18, 19, 20, 21, 22, 23, 24, 25, 26, 27, 28, 29]",212.9862731,14876,742,2,52,9,1.0529535521792848
basic,54,16,0,0,0,8,"[0, 17, 16, 8]",4,19,"[2, 3, 4, 5, 9, 12, 13, 14, 15, 19, 20, 21, 22, 23, 25, 26, 27, 28, 29]",164.6127266,16020,1144,2,38,9,1.0915134501573105
basic,54,16,0,0,0,20,"[0, 17, 16, 8, 20]",5,10,"[3, 4, 5, 9, 12, 13, 15, 19, 21, 25]",106.8372993,16694,674,1,15,9,1.067523143001942
basic,54,16,0,0,0,25,"[0, 17, 16, 8, 20, 25]",6,7,"[3, 4, 5, 9, 12, 13, 15]",94.18818869,17015,321,1,9,9,1.1170093326933646
basic,54,16,0,0,0,9,"[0, 17, 16, 8, 20, 25, 9]",7,5,"[3, 4, 5, 13, 15]",81.38194021,17472,457,1,4,9,1.1095076562662525
basic,54,16,0,0,0,15,"[0, 17, 16, 8, 20, 25, 9, 15]",8,1,[5],42.48463953,20651,3179,1,0,9,1.213831159678775
basic,54,16,0,0,1,5,"[0, 17, 16, 8, 20, 25, 9, 15, 5]",9,0,[],13.0567616,23875,3224,1,0,9,1.5171779607523481
basic,54,16,0,1,1,5,"[0, 17, 16, 8, 20, 25, 9, 15, 5]",9,0,[],13.0567616,25167,1292,1,0,9,1.5171779607523481
basic,55,6,0,0,0,0,[0],1,29,"[1, 2, 3, 4, 5, 6, 7, 8, 9, 10, 11, 12, 13, 14, 15, 16, 17, 18, 19, 20, 21, 22, 23, 24, 25, 26, 27, 28, 29]",300,99,-1,180,4304,10,0.0
basic,55,6,0,0,0,3,"[0, 3]",2,28,"[1, 2, 4, 5, 6, 7, 8, 9, 10, 11, 12, 13, 14, 15, 16, 17, 18, 19, 20, 21, 22, 23, 24, 25, 26, 27, 28, 29]",266.4738908,5977,5878,90,1607,10,1.0
basic,55,6,0,0,0,18,"[0, 3, 18]",3,27,"[1, 2, 4, 5, 6, 7, 8, 9, 10, 11, 12, 13, 14, 15, 16, 17, 19, 20, 21, 22, 23, 24, 25, 26, 27, 28, 29]",237.4738908,6668,691,34,516,10,1.0266750028725786
basic,55,6,0,0,0,17,"[0, 3, 18, 17]",4,26,"[1, 2, 4, 5, 6, 7, 8, 9, 10, 11, 12, 13, 14, 15, 16, 19, 20, 21, 22, 23, 24, 25, 26, 27, 28, 29]",223.5455025,7167,499,17,243,10,1.0832900829093166
basic,55,6,0,0,0,10,"[0, 3, 18, 17, 10]",5,22,"[1, 2, 4, 5, 6, 7, 8, 9, 11, 13, 14, 16, 19, 20, 21, 22, 23, 24, 26, 27, 28, 29]",203.8224196,7684,517,10,111,10,1.140294203414171
basic,55,6,0,0,0,24,"[0, 3, 18, 17, 10, 24]",6,19,"[1, 2, 4, 5, 6, 7, 8, 11, 13, 14, 16, 20, 21, 22, 23, 26, 27, 28, 29]",190.4060117,8166,482,10,80,10,1.1264281153820843
basic,55,6,0,0,0,16,"[0, 3, 18, 17, 10, 24, 16]",7,13,"[1, 2, 6, 7, 13, 14, 20, 21, 22, 23, 26, 27, 29]",134.3703088,8855,689,6,21,10,2.2946652061367843
basic,55,6,0,0,0,29,"[0, 3, 18, 17, 10, 24, 16, 29]",8,7,"[6, 14, 20, 21, 22, 23, 27]",97.68243615,12544,3689,5,5,10,1.8995488998077483
basic,55,6,0,0,0,22,"[0, 3, 18, 17, 10, 24, 16, 29, 22]",9,3,"[14, 23, 27]",47.35351802,13323,779,3,0,10,1.6225652141198474
basic,55,6,0,0,1,27,"[0, 3, 18, 17, 10, 24, 16, 29, 22, 27]",10,0,[],2.342408277,14168,845,1,0,10,1.583531500252726
basic,55,6,0,1,1,27,"[0, 3, 18, 17, 10, 24, 16, 29, 22, 27]",10,0,[],2.342408277,16534,2366,1,0,10,1.583531500252726
basic,56,11,0,0,0,0,[0],1,25,"[1, 2, 3, 4, 5, 6, 8, 9, 10, 11, 12, 13, 14, 15, 16, 17, 18, 19, 20, 22, 23, 25, 26, 27, 28]",300,99,-1,6,374,12,0.0
basic,56,11,0,0,0,18,"[0, 18]",2,21,"[1, 2, 4, 5, 6, 8, 9, 11, 12, 13, 14, 15, 16, 17, 19, 20, 22, 23, 25, 27, 28]",236.8493864,3317,3218,157,1477,11,1.0
basic,56,11,0,0,0,27,"[0, 18, 27]",3,19,"[1, 2, 4, 5, 6, 8, 9, 11, 12, 14, 15, 16, 17, 19, 20, 22, 23, 25, 28]",212.9956655,5643,2326,157,1315,11,1.060949579704323
basic,56,11,0,0,0,17,"[0, 18, 27, 17]",4,14,"[1, 2, 4, 5, 6, 8, 11, 12, 15, 19, 22, 23, 25, 28]",135.9177828,6621,978,46,349,11,1.1156120043677304
basic,56,11,0,0,0,8,"[0, 18, 27, 17, 8]",5,11,"[1, 2, 5, 6, 11, 12, 15, 19, 22, 25, 28]",121.5999617,7221,600,26,143,11,1.2285932943120847
basic,56,11,0,0,0,15,"[0, 18, 27, 17, 8, 15]",6,9,"[2, 5, 6, 11, 12, 19, 22, 25, 28]",108.1463377,7775,554,24,54,11,1.223015425852291
basic,56,11,0,0,0,11,"[0, 18, 27, 17, 8, 15, 11]",7,6,"[2, 5, 12, 19, 22, 28]",90.03556742,8389,614,22,2,11,1.2111003833550413
basic,56,11,0,0,0,22,"[0, 18, 27, 17, 8, 15, 11, 22]",8,3,"[2, 5, 28]",56.61401749,9957,1568,6,0,11,1.2909407283278533
basic,56,11,0,0,0,2,"[0, 18, 27, 17, 8, 15, 11, 22, 2]",9,2,"[5, 28]",46.56414187,10436,479,2,0,11,1.419903430285614
basic,56,11,0,0,0,28,"[0, 18, 27, 17, 8, 15, 11, 22, 2, 28]",10,1,[5],35.93399606,11026,590,1,0,11,1.5281300627867846
basic,56,11,0,0,1,5,"[0, 18, 27, 17, 8, 15, 11, 22, 2, 28, 5]",11,0,[],18.04545224,11745,719,1,0,11,1.7330469841955745
basic,56,11,0,1,1,5,"[0, 18, 27, 17, 8, 15, 11, 22, 2, 28, 5]",11,0,[],18.04545224,13633,1888,1,0,11,1.7330469841955745
basic,57,45,0,0,0,0,[0],1,24,"[1, 2, 3, 4, 5, 6, 7, 9, 10, 11, 12, 14, 15, 16, 17, 19, 20, 21, 22, 23, 24, 25, 27, 29]",300,99,-1,6,248,10,0.0
basic,57,45,0,0,0,15,"[0, 15]",2,23,"[1, 2, 3, 4, 5, 6, 7, 9, 10, 11, 12, 14, 16, 17, 19, 20, 21, 22, 23, 24, 25, 27, 29]",253.9022777,2941,2842,5,207,10,1.0
basic,57,45,0,0,0,23,"[0, 15, 23]",3,22,"[1, 2, 3, 4, 5, 6, 7, 9, 10, 11, 12, 14, 16, 17, 19, 20, 21, 22, 24, 25, 27, 29]",230.3014303,3305,364,5,163,10,1.0006068457769497
basic,57,45,0,0,0,20,"[0, 15, 23, 20]",4,19,"[1, 2, 3, 5, 6, 7, 9, 10, 11, 12, 14, 16, 17, 19, 21, 22, 24, 25, 29]",188.8647316,3939,634,5,137,10,1.2062119754673604
basic,57,45,0,0,0,10,"[0, 15, 23, 20, 10]",5,12,"[2, 3, 6, 7, 9, 12, 14, 17, 22, 24, 25, 29]",132.784432,4797,858,1,54,10,1.1363907740691004
basic,57,45,0,0,0,6,"[0, 15, 23, 20, 10, 6]",6,7,"[2, 3, 7, 12, 22, 24, 29]",106.5356225,5384,587,20,9,9,1.12325622461992
basic,57,45,0,0,0,12,"[0, 15, 23, 20, 10, 6, 12]",7,4,"[2, 3, 22, 29]",86.4110107,5768,384,6,1,9,1.1241525752631578
basic,57,45,0,0,0,22,"[0, 15, 23, 20, 10, 6, 12, 22]",8,2,"[3, 29]",54.83570389,6320,552,2,0,9,1.1537558546242075
basic,57,45,0,0,1,29,"[0, 15, 23, 20, 10, 6, 12, 22, 29]",9,0,[],0.347172984,8094,1774,1,0,9,1.860515932484885
basic,57,45,0,1,1,29,"[0, 15, 23, 20, 10, 6, 12, 22, 29]",9,0,[],0.347172984,8966,872,1,0,9,1.860515932484885
basic,58,10,0,0,0,0,[0],1,29,"[1, 2, 3, 4, 5, 6, 7, 8, 9, 10, 11, 12, 13, 14, 15, 16, 17, 18, 19, 20, 21, 22, 23, 24, 25, 26, 27, 28, 29]",300,99,-1,1,100,9,0.0
basic,58,10,0,0,0,13,"[0, 13]",2,25,"[1, 2, 3, 4, 6, 7, 8, 9, 10, 11, 12, 14, 17, 18, 19, 20, 21, 22, 23, 24, 25, 26, 27, 28, 29]",249.4628849,4186,4087,1,79,9,1.0
basic,58,10,0,0,0,11,"[0, 13, 11]",3,20,"[1, 2, 3, 6, 7, 8, 9, 10, 12, 14, 18, 19, 20, 21, 22, 24, 26, 27, 28, 29]",206.4512586,4908,722,1,54,9,1.0313137484914219
basic,58,10,0,0,0,19,"[0, 13, 11, 19]",4,11,"[2, 6, 8, 9, 10, 14, 18, 20, 24, 26, 27]",170.0919407,5441,533,1,22,9,1.0879446220132545
basic,58,10,0,0,0,2,"[0, 13, 11, 19, 2]",5,4,"[14, 20, 26, 27]",126.1829439,5910,469,1,4,9,1.06474052351343
basic,58,10,0,0,0,14,"[0, 13, 11, 19, 2, 14]",6,3,"[20, 26, 27]",114.0174188,6135,225,1,3,9,1.1628909195912238
basic,58,10,0,0,0,26,"[0, 13, 11, 19, 2, 14, 26]",7,2,"[20, 27]",79.34754716,6795,660,1,1,9,1.6660727647633602
basic,58,10,0,0,0,20,"[0, 13, 11, 19, 2, 14, 26, 20]",8,1,[27],47.56704999,7385,590,1,0,9,2.085581809637999
basic,58,10,0,1,0,20,"[0, 13, 11, 19, 2, 14, 26, 20]",8,1,[27],47.56704999,8966,1581,1,0,9,2.085581809637999
basic,59,7,0,0,0,0,[0],1,29,"[1, 2, 3, 4, 5, 6, 7, 8, 9, 10, 11, 12, 13, 14, 15, 16, 17, 18, 19, 20, 21, 22, 23, 24, 25, 26, 27, 28, 29]",300,99,-1,3,79,9,0.0
basic,59,7,0,0,0,25,"[0, 25]",2,20,"[2, 3, 4, 5, 6, 7, 10, 13, 14, 15, 16, 18, 19, 20, 21, 22, 23, 24, 27, 28]",181.5939191,2334,2235,5,33,8,1.0
basic,59,7,0,0,0,4,"[0, 25, 4]",3,11,"[2, 6, 7, 13, 15, 16, 18, 19, 20, 21, 23]",156.8552853,2725,391,2,14,8,1.0193465608331511
basic,59,7,0,0,0,20,"[0, 25, 4, 20]",4,8,"[2, 6, 7, 13, 15, 16, 18, 19]",137.2084026,3138,413,1,9,8,1.085904909082323
basic,59,7,0,0,0,18,"[0, 25, 4, 20, 18]",5,7,"[2, 6, 7, 13, 15, 16, 19]",124.4021541,3347,209,1,5,8,1.2264883846453758
basic,59,7,0,0,0,7,"[0, 25, 4, 20, 18, 7]",6,2,"[2, 19]",83.17109789,3954,607,1,1,8,1.185264473968278
basic,59,7,0,0,0,19,"[0, 25, 4, 20, 18, 7, 19]",7,1,[2],53.76021555,4482,528,1,0,8,1.3016904288278204
basic,59,7,0,0,1,2,"[0, 25, 4, 20, 18, 7, 19, 2]",8,0,[],23.61058868,4938,456,1,0,8,1.3168868000947171
basic,59,7,0,1,1,2,"[0, 25, 4, 20, 18, 7, 19, 2]",8,0,[],23.61058868,5850,912,1,0,8,1.3168868000947171
basic,60,36,0,0,0,0,[0],1,24,"[2, 4, 5, 6, 7, 8, 9, 10, 12, 13, 14, 15, 16, 17, 18, 19, 20, 22, 23, 25, 26, 27, 28, 29]",300,99,-1,2,200,10,0.0
basic,60,36,0,0,0,12,"[0, 12]",2,23,"[2, 4, 5, 6, 7, 8, 9, 10, 13, 14, 15, 16, 17, 18, 19, 20, 22, 23, 25, 26, 27, 28, 29]",277.7963967,1641,1542,90,804,9,1.0
basic,60,36,0,0,0,9,"[0, 12, 9]",3,14,"[2, 4, 8, 10, 13, 16, 17, 18, 19, 23, 25, 27, 28, 29]",215.4345494,3465,1824,32,191,9,1.224429481246385
basic,60,36,0,0,0,16,"[0, 12, 9, 16]",4,8,"[2, 10, 13, 17, 18, 19, 23, 25]",168.137615,4160,695,7,26,9,1.235383731443557
basic,60,36,0,0,0,17,"[0, 12, 9, 16, 17]",5,6,"[2, 10, 13, 18, 19, 25]",139.8180105,4541,381,7,14,9,1.6947865799475665
basic,60,36,0,0,0,19,"[0, 12, 9, 16, 17, 19]",6,5,"[2, 10, 13, 18, 25]",111.9253591,5481,940,6,1,9,2.440059772477113
basic,60,36,0,0,0,13,"[0, 12, 9, 16, 17, 19, 13]",7,2,"[2, 25]",68.50877245,6063,582,2,0,9,2.3601901953162883
basic,60,36,0,0,0,25,"[0, 12, 9, 16, 17, 19, 13, 25]",8,1,[2],47.91751216,6855,792,1,0,9,2.2017827249313693
basic,60,36,0,0,1,2,"[0, 12, 9, 16, 17, 19, 13, 25, 2]",9,0,[],22.91751216,7555,700,1,0,9,2.453595116264792
basic,60,36,0,1,1,2,"[0, 12, 9, 16, 17, 19, 13, 25, 2]",9,0,[],22.91751216,8466,911,1,0,9,2.453595116264792
basic,61,38,0,0,0,0,[0],1,29,"[1, 2, 3, 4, 5, 6, 7, 8, 9, 10, 11, 12, 13, 14, 15, 16, 17, 18, 19, 20, 21, 22, 23, 24, 25, 26, 27, 28, 29]",300,99,-1,33,506,9,0.0
basic,61,38,0,0,0,19,"[0, 19]",2,23,"[3, 4, 5, 6, 7, 8, 9, 11, 13, 14, 15, 16, 17, 18, 20, 22, 23, 24, 25, 26, 27, 28, 29]",219.5015528,2763,2664,6,61,9,1.0
basic,61,38,0,0,0,17,"[0, 19, 17]",3,21,"[3, 4, 5, 6, 7, 9, 11, 13, 14, 15, 16, 18, 20, 22, 23, 24, 25, 26, 27, 28, 29]",198.1239945,3145,382,6,53,9,1.571793785769489
basic,61,38,0,0,0,20,"[0, 19, 17, 20]",4,17,"[3, 4, 5, 6, 7, 11, 13, 14, 15, 16, 18, 22, 24, 25, 26, 27, 28]",174.3542658,3582,437,6,44,9,2.333182710277297
basic,61,38,0,0,0,4,"[0, 19, 17, 20, 4]",5,10,"[5, 11, 13, 14, 15, 16, 24, 26, 27, 28]",140.4131403,4231,649,5,22,9,2.276099229646013
basic,61,38,0,0,0,15,"[0, 19, 17, 20, 4, 15]",6,8,"[5, 11, 13, 14, 16, 24, 26, 28]",114.4131403,4800,569,5,6,9,2.5292671156176403
basic,61,38,0,0,0,11,"[0, 19, 17, 20, 4, 15, 11]",7,2,"[16, 28]",78.01259089,5442,642,2,0,9,2.778100109749787
basic,61,38,0,0,0,28,"[0, 19, 17, 20, 4, 15, 11, 28]",8,1,[16],50.99407872,5811,369,1,0,9,2.3316428595723258
basic,61,38,0,0,1,16,"[0, 19, 17, 20, 4, 15, 11, 28, 16]",9,0,[],21.99407872,7507,1696,1,0,9,2.5408012360364265
basic,61,38,0,1,1,16,"[0, 19, 17, 20, 4, 15, 11, 28, 16]",9,0,[],21.99407872,8416,909,1,0,9,2.5408012360364265
basic,62,20,0,0,0,0,[0],1,21,"[1, 2, 3, 4, 5, 6, 7, 8, 9, 12, 17, 18, 20, 21, 22, 23, 25, 26, 27, 28, 29]",300,99,-1,1,9,9,0.0
basic,62,20,0,0,0,12,"[0, 12]",2,20,"[1, 2, 3, 4, 5, 6, 7, 8, 9, 17, 18, 20, 21, 22, 23, 25, 26, 27, 28, 29]",271.5570747,5697,5598,1,8,9,1.0
basic,62,20,0,0,0,1,"[0, 12, 1]",3,12,"[3, 4, 5, 6, 8, 9, 20, 21, 23, 27, 28, 29]",189.5692707,6272,575,1,6,9,1.0757997779162911
basic,62,20,0,0,0,5,"[0, 12, 1, 5]",4,10,"[4, 6, 8, 9, 20, 21, 23, 27, 28, 29]",152.8950291,6730,458,1,5,9,1.1708231454516806
basic,62,20,0,0,0,21,"[0, 12, 1, 5, 21]",5,8,"[4, 6, 8, 9, 20, 23, 27, 28]",107.8950291,7326,596,1,4,9,1.126197336199212
basic,62,20,0,0,0,8,"[0, 12, 1, 5, 21, 8]",6,5,"[6, 9, 23, 27, 28]",90.43077988,9129,1803,1,3,9,1.140007470699913
basic,62,20,0,0,0,23,"[0, 12, 1, 5, 21, 8, 23]",7,2,"[6, 9]",45.74297394,9801,672,1,1,9,1.1162257896627588
basic,62,20,0,0,0,9,"[0, 12, 1, 5, 21, 8, 23, 9]",8,1,[6],26.53360123,10882,1081,1,0,9,1.1086880559449597
basic,62,20,0,0,1,6,"[0, 12, 1, 5, 21, 8, 23, 9, 6]",9,0,[],3.511872362,11614,732,1,0,9,1.1186240265999328
basic,62,20,0,1,1,6,"[0, 12, 1, 5, 21, 8, 23, 9, 6]",9,0,[],3.511872362,12383,769,1,0,9,1.1186240265999328
basic,63,31,0,0,0,0,[0],1,27,"[1, 3, 4, 5, 6, 7, 8, 10, 11, 12, 13, 14, 15, 16, 17, 18, 19, 20, 21, 22, 23, 24, 25, 26, 27, 28, 29]",300,100,-1,2,87,10,0.0
basic,63,31,0,0,0,14,"[0, 14]",2,25,"[1, 3, 5, 6, 7, 8, 10, 11, 12, 13, 15, 16, 17, 18, 19, 20, 21, 22, 23, 24, 25, 26, 27, 28, 29]",263.861378,2870,2770,2,59,10,1.0
basic,63,31,0,0,0,27,"[0, 14, 27]",3,22,"[1, 3, 5, 6, 7, 8, 10, 11, 12, 13, 15, 16, 17, 18, 19, 20, 21, 22, 24, 25, 28, 29]",235.6833724,3429,559,1,39,10,1.5881859159302467
basic,63,31,0,0,0,8,"[0, 14, 27, 8]",4,20,"[1, 3, 5, 6, 7, 10, 11, 12, 13, 16, 17, 18, 19, 20, 21, 22, 24, 25, 28, 29]",224.6380114,3757,328,1,36,10,2.1665048452331277
basic,63,31,0,0,0,18,"[0, 14, 27, 8, 18]",5,15,"[1, 5, 6, 7, 11, 12, 13, 16, 17, 19, 20, 22, 25, 28, 29]",188.7911147,4667,910,1,26,10,1.7273375741920205
basic,63,31,0,0,0,11,"[0, 14, 27, 8, 18, 11]",6,11,"[1, 5, 7, 12, 16, 17, 19, 20, 22, 25, 28]",153.9055876,6729,2062,13,17,9,2.386348208737804
basic,63,31,0,0,0,5,"[0, 14, 27, 8, 18, 11, 5]",7,5,"[16, 17, 20, 25, 28]",110.2249283,7206,477,3,3,9,2.163249612867222
basic,63,31,0,0,0,28,"[0, 14, 27, 8, 18, 11, 5, 28]",8,2,"[16, 17]",90.00117988,9440,2234,2,0,9,1.9564635733184719
basic,63,31,0,0,1,16,"[0, 14, 27, 8, 18, 11, 5, 28, 16]",9,0,[],56.38570725,9847,407,1,0,9,1.824071502589619
basic,63,31,0,1,1,16,"[0, 14, 27, 8, 18, 11, 5, 28, 16]",9,0,[],56.38570725,10633,786,1,0,9,1.824071502589619
basic,64,32,0,0,0,0,[0],1,29,"[1, 2, 3, 4, 5, 6, 7, 8, 9, 10, 11, 12, 13, 14, 15, 16, 17, 18, 19, 20, 21, 22, 23, 24, 25, 26, 27, 28, 29]",300,99,-1,17,359,10,0.0
basic,64,32,0,0,0,19,"[0, 19]",2,28,"[1, 2, 3, 4, 5, 6, 7, 8, 9, 10, 11, 12, 13, 14, 15, 16, 17, 18, 20, 21, 22, 23, 24, 25, 26, 27, 28, 29]",283.5075775,1956,1857,16,294,10,1.0
basic,64,32,0,0,0,13,"[0, 19, 13]",3,24,"[2, 3, 4, 5, 6, 8, 9, 10, 11, 12, 14, 15, 16, 17, 18, 20, 21, 22, 23, 24, 25, 26, 27, 28]",260.3127505,2439,483,14,227,10,1.0172874229878615
basic,64,32,0,0,0,15,"[0, 19, 13, 15]",4,18,"[2, 3, 5, 8, 9, 10, 11, 12, 16, 17, 20, 22, 23, 24, 25, 26, 27, 28]",177.4393531,3378,939,9,116,10,1.435447391509833
basic,64,32,0,0,0,28,"[0, 19, 13, 15, 28]",5,17,"[2, 3, 5, 8, 9, 10, 11, 12, 16, 17, 20, 22, 23, 24, 25, 26, 27]",166.0375988,3974,596,9,70,10,1.3843701324937985
basic,64,32,0,0,0,12,"[0, 19, 13, 15, 28, 12]",6,14,"[2, 3, 5, 8, 9, 10, 11, 16, 17, 20, 22, 24, 26, 27]",147.0639329,4318,344,6,35,10,1.358372254952329
basic,64,32,0,0,0,16,"[0, 19, 13, 15, 28, 12, 16]",7,13,"[2, 3, 5, 8, 9, 10, 11, 17, 20, 22, 24, 26, 27]",131.411457,4877,559,5,15,10,1.4356932930709845
basic,64,32,0,0,0,27,"[0, 19, 13, 15, 28, 12, 16, 27]",8,2,"[3, 11]",55.13564171,7728,2851,2,0,10,1.3380566026775955
basic,64,32,0,0,0,3,"[0, 19, 13, 15, 28, 12, 16, 27, 3]",9,1,[11],29.64054414,8381,653,1,0,10,1.3269345554887129
basic,64,32,0,0,1,11,"[0, 19, 13, 15, 28, 12, 16, 27, 3, 11]",10,0,[],14.02004479,8731,350,1,0,10,1.356452519014518
basic,64,32,0,1,1,11,"[0, 19, 13, 15, 28, 12, 16, 27, 3, 11]",10,0,[],14.02004479,9716,985,1,0,10,1.356452519014518
basic,65,0,0,0,0,0,[0],1,27,"[2, 3, 4, 5, 6, 7, 8, 9, 10, 11, 12, 13, 14, 15, 16, 17, 19, 20, 21, 22, 23, 24, 25, 26, 27, 28, 29]",300,99,-1,104,1136,9,0.0
basic,65,0,0,0,0,28,"[0, 28]",2,26,"[2, 3, 4, 5, 6, 7, 8, 9, 10, 11, 12, 13, 14, 15, 16, 17, 19, 20, 21, 22, 23, 24, 25, 26, 27, 29]",194.9190788,2491,2392,39,388,9,1.0
basic,65,0,0,0,0,5,"[0, 28, 5]",3,21,"[2, 3, 4, 7, 8, 9, 11, 12, 13, 14, 15, 16, 17, 19, 20, 21, 23, 24, 25, 26, 29]",151.2613189,3018,527,27,210,9,1.0978295127671733
basic,65,0,0,0,0,26,"[0, 28, 5, 26]",4,15,"[3, 4, 7, 8, 9, 11, 12, 13, 14, 15, 17, 19, 20, 23, 24]",115.8212286,5203,2185,5,35,9,1.1400379746718978
basic,65,0,0,0,0,4,"[0, 28, 5, 26, 4]",5,12,"[3, 7, 8, 9, 11, 12, 15, 17, 19, 20, 23, 24]",103.779634,5710,507,4,17,9,1.2534780347343448
basic,65,0,0,0,0,24,"[0, 28, 5, 26, 4, 24]",6,9,"[3, 7, 8, 9, 11, 12, 15, 17, 19]",92.37787977,6205,495,4,12,9,1.2444963062448124
basic,65,0,0,0,0,15,"[0, 28, 5, 26, 4, 24, 15]",7,6,"[3, 7, 8, 9, 11, 17]",69.03264471,6660,455,3,4,9,1.2218613820858855
basic,65,0,0,0,0,7,"[0, 28, 5, 26, 4, 24, 15, 7]",8,2,"[3, 8]",37.96819558,7213,553,2,0,9,1.2781430976973103
basic,65,0,0,0,1,8,"[0, 28, 5, 26, 4, 24, 15, 7, 8]",9,0,[],18.8632224,7715,502,1,0,9,1.263743502581705
basic,65,0,0,1,1,8,"[0, 28, 5, 26, 4, 24, 15, 7, 8]",9,0,[],18.8632224,8749,1034,1,0,9,1.263743502581705
basic,66,24,0,0,0,0,[0],1,29,"[1, 2, 3, 4, 5, 6, 7, 8, 9, 10, 11, 12, 13, 14, 15, 16, 17, 18, 19, 20, 21, 22, 23, 24, 25, 26, 27, 28, 29]",300,99,-1,4,76,10,0.0
basic,66,24,0,0,0,16,"[0, 16]",2,28,"[1, 2, 3, 4, 5, 6, 7, 8, 9, 10, 11, 12, 13, 14, 15, 17, 18, 19, 20, 21, 22, 23, 24, 25, 26, 27, 28, 29]",210.3562607,2924,2825,13,110,9,1.0
basic,66,24,0,0,0,22,"[0, 16, 22]",3,27,"[1, 2, 3, 4, 5, 6, 7, 8, 9, 10, 11, 12, 13, 14, 15, 17, 18, 19, 20, 21, 23, 24, 25, 26, 27, 28, 29]",192.3285043,3380,456,7,54,9,1.0217425143037777
basic,66,24,0,0,0,8,"[0, 16, 22, 8]",4,21,"[1, 2, 3, 4, 6, 9, 10, 11, 13, 14, 15, 17, 20, 21, 23, 24, 25, 26, 27, 28, 29]",178.9120964,3773,393,4,28,9,1.0996636936037951
basic,66,24,0,0,0,15,"[0, 16, 22, 8, 15]",5,16,"[3, 4, 6, 9, 10, 11, 13, 14, 17, 23, 24, 25, 26, 27, 28, 29]",148.025206,4385,612,3,17,9,1.2704773343758617
basic,66,24,0,0,0,28,"[0, 16, 22, 8, 15, 28]",6,8,"[3, 4, 9, 11, 13, 23, 26, 27]",102.7482803,5786,1401,3,5,9,1.1981967578189556
basic,66,24,0,0,0,23,"[0, 16, 22, 8, 15, 28, 23]",7,3,"[9, 11, 27]",83.72198273,6348,562,3,1,9,1.2275650852813986
basic,66,24,0,0,0,11,"[0, 16, 22, 8, 15, 28, 23, 11]",8,2,"[9, 27]",56.79615869,6827,479,2,0,9,1.2107937989822568
basic,66,24,0,0,1,27,"[0, 16, 22, 8, 15, 28, 23, 11, 27]",9,0,[],28.99328114,7787,960,1,0,9,1.1865620449755248
basic,66,24,0,1,1,27,"[0, 16, 22, 8, 15, 28, 23, 11, 27]",9,0,[],28.99328114,9266,1479,1,0,9,1.1865620449755248
basic,67,37,0,0,0,0,[0],1,29,"[1, 2, 3, 4, 5, 6, 7, 8, 9, 10, 11, 12, 13, 14, 15, 16, 17, 18, 19, 20, 21, 22, 23, 24, 25, 26, 27, 28, 29]",300,116,-1,6,168,10,0.0
basic,67,37,0,0,0,22,"[0, 22]",2,10,"[1, 2, 4, 7, 15, 18, 19, 20, 21, 26]",137.1442356,3555,3439,15,58,8,1.0
basic,67,37,0,0,0,4,"[0, 22, 4]",3,9,"[1, 2, 7, 15, 18, 19, 20, 21, 26]",112.1442356,4140,585,8,28,8,1.1558002336903517
basic,67,37,0,0,0,2,"[0, 22, 4, 2]",4,8,"[1, 7, 15, 18, 19, 20, 21, 26]",100.7424813,4605,465,7,12,8,1.3180840601310855
basic,67,37,0,0,0,1,"[0, 22, 4, 2, 1]",5,7,"[7, 15, 18, 19, 20, 21, 26]",83.53783081,5182,577,7,4,8,1.3672506917303464
basic,67,37,0,0,0,15,"[0, 22, 4, 2, 1, 15]",6,3,"[20, 21, 26]",43.5753484,5820,638,2,1,8,1.5410402460753214
basic,67,37,0,0,0,20,"[0, 22, 4, 2, 1, 15, 20]",7,1,[21],26.5753484,6304,484,1,0,8,1.8240880377734865
basic,67,37,0,0,1,21,"[0, 22, 4, 2, 1, 15, 20, 21]",8,0,[],12.1531433,6926,622,1,0,8,1.8547618992219714
basic,67,37,0,1,1,21,"[0, 22, 4, 2, 1, 15, 20, 21]",8,0,[],12.1531433,8299,1373,1,0,8,1.8547618992219714
