condition,trial_id,map_id,undoIndicator,submit,checkEnd,currentChoice,chosen_all,n_city_all,n_within_reach,cities_reach,currentBudget,time_all,rt_all,n_opt_paths_all,n_subopt_paths_all,mas_all,tortuosity_all
basic,0,6,0,0,0,0,[0],1,29,"[1, 2, 3, 4, 5, 6, 7, 8, 9, 10, 11, 12, 13, 14, 15, 16, 17, 18, 19, 20, 21, 22, 23, 24, 25, 26, 27, 28, 29]",300,174,-1,180,4304,10,0.0
basic,0,6,0,0,0,1,"[0, 1]",2,23,"[2, 3, 6, 7, 8, 9, 10, 12, 13, 14, 15, 16, 17, 18, 19, 20, 21, 22, 23, 24, 26, 27, 29]",250.6644145,19234,19060,7,266,10,1.0
basic,0,6,0,0,0,13,"[0, 1, 13]",3,22,"[2, 3, 6, 7, 8, 9, 10, 12, 14, 15, 16, 17, 18, 19, 20, 21, 22, 23, 24, 26, 27, 29]",233.6350281,20088,854,7,257,10,2.0046272874013185
basic,0,6,0,0,0,3,"[0, 1, 13, 3]",4,20,"[2, 6, 7, 8, 9, 10, 12, 14, 15, 16, 17, 18, 20, 21, 22, 23, 24, 26, 27, 29]",171.5061298,21155,1067,5,146,10,3.8326508251916236
basic,0,6,0,0,0,10,"[0, 1, 13, 3, 10]",5,11,"[2, 6, 7, 16, 17, 18, 22, 23, 24, 26, 29]",120.2616179,23616,2461,1,17,10,2.131002198093053
basic,0,6,0,0,0,24,"[0, 1, 13, 3, 10, 24]",6,10,"[2, 6, 7, 16, 17, 18, 22, 23, 26, 29]",106.8452101,24583,967,1,9,10,1.9852821248597579
basic,0,6,0,0,0,17,"[0, 1, 13, 3, 10, 24, 17]",7,5,"[7, 16, 18, 23, 29]",77.57064773,25700,1117,1,4,10,3.1516198437120573
basic,0,6,0,0,0,18,"[0, 1, 13, 3, 10, 24, 17, 18]",8,3,"[7, 16, 29]",63.64225945,26504,804,1,2,10,3.880980074770548
basic,0,6,0,0,0,16,"[0, 1, 13, 3, 10, 24, 17, 18, 16]",9,1,[29],40.29702439,27723,1219,1,0,10,3.5979743592159577
basic,0,6,0,0,1,29,"[0, 1, 13, 3, 10, 24, 17, 18, 16, 29]",10,0,[],3.609151736,28999,1276,1,0,10,2.7827979885640883
basic,0,6,0,1,1,29,"[0, 1, 13, 3, 10, 24, 17, 18, 16, 29]",10,0,[],3.609151736,31158,2159,1,0,10,2.7827979885640883
basic,1,1,0,0,0,0,[0],1,26,"[1, 2, 4, 5, 7, 8, 9, 10, 11, 12, 13, 14, 15, 16, 17, 18, 19, 20, 21, 22, 23, 24, 25, 26, 28, 29]",300,162,-1,6,74,7,0.0
basic,1,1,0,0,0,14,"[0, 14]",2,19,"[1, 4, 5, 8, 9, 13, 15, 17, 18, 19, 20, 21, 22, 23, 24, 25, 26, 28, 29]",200.1901808,5955,5793,5,42,7,1.0
basic,1,1,0,0,0,17,"[0, 14, 17]",3,15,"[1, 4, 5, 8, 9, 13, 15, 18, 19, 20, 22, 23, 25, 28, 29]",147.8356204,6791,836,5,27,7,1.0028844724416826
basic,1,1,0,0,0,1,"[0, 14, 17, 1]",4,12,"[4, 5, 8, 9, 15, 18, 20, 22, 23, 25, 28, 29]",123.4840291,7640,849,5,15,7,1.0264985578353567
basic,1,1,0,0,0,28,"[0, 14, 17, 1, 28]",5,5,"[9, 15, 22, 23, 29]",88.59850198,8388,748,5,3,7,1.0339861575999345
basic,1,1,0,0,0,23,"[0, 14, 17, 1, 28, 23]",6,2,"[15, 22]",51.70676849,9906,1518,2,0,7,1.0327458250705703
basic,1,1,0,0,1,15,"[0, 14, 17, 1, 28, 23, 15]",7,0,[],20.81987807,11027,1121,1,0,7,1.1948681641401226
basic,1,1,0,1,1,15,"[0, 14, 17, 1, 28, 23, 15]",7,0,[],20.81987807,12180,1153,1,0,7,1.1948681641401226
basic,2,31,0,0,0,0,[0],1,27,"[1, 3, 4, 5, 6, 7, 8, 10, 11, 12, 13, 14, 15, 16, 17, 18, 19, 20, 21, 22, 23, 24, 25, 26, 27, 28, 29]",300,195,-1,2,87,10,0.0
basic,2,31,0,0,0,14,"[0, 14]",2,25,"[1, 3, 5, 6, 7, 8, 10, 11, 12, 13, 15, 16, 17, 18, 19, 20, 21, 22, 23, 24, 25, 26, 27, 28, 29]",263.861378,4383,4188,2,59,10,1.0
basic,2,31,0,0,0,27,"[0, 14, 27]",3,22,"[1, 3, 5, 6, 7, 8, 10, 11, 12, 13, 15, 16, 17, 18, 19, 20, 21, 22, 24, 25, 28, 29]",235.6833724,5265,882,1,39,10,1.5881859159302467
basic,2,31,0,0,0,8,"[0, 14, 27, 8]",4,20,"[1, 3, 5, 6, 7, 10, 11, 12, 13, 16, 17, 18, 19, 20, 21, 22, 24, 25, 28, 29]",224.6380114,5839,574,1,36,10,2.1665048452331277
basic,2,31,0,0,0,18,"[0, 14, 27, 8, 18]",5,15,"[1, 5, 6, 7, 11, 12, 13, 16, 17, 19, 20, 22, 25, 28, 29]",188.7911147,7103,1264,1,26,10,1.7273375741920205
basic,2,31,0,0,0,17,"[0, 14, 27, 8, 18, 17]",6,13,"[1, 5, 6, 7, 11, 12, 13, 16, 19, 20, 22, 25, 28]",159.584951,7905,802,1,13,10,1.551192427769927
basic,2,31,0,0,0,11,"[0, 14, 27, 8, 18, 17, 11]",7,7,"[5, 12, 16, 19, 22, 25, 28]",118.4753414,8886,981,1,4,10,2.9650760544203494
basic,2,31,0,0,0,5,"[0, 14, 27, 8, 18, 17, 11, 5]",8,2,"[16, 28]",74.79468207,9828,942,1,1,10,2.56711965625205
basic,2,31,0,0,0,28,"[0, 14, 27, 8, 18, 17, 11, 5, 28]",9,1,[16],54.57093365,10809,981,1,0,10,2.2865510762058148
basic,2,31,0,0,1,16,"[0, 14, 27, 8, 18, 17, 11, 5, 28, 16]",10,0,[],20.95546102,11854,1045,1,0,10,2.089356850786318
basic,2,31,0,1,1,16,"[0, 14, 27, 8, 18, 17, 11, 5, 28, 16]",10,0,[],20.95546102,13351,1497,1,0,10,2.089356850786318
basic,3,22,0,0,0,0,[0],1,29,"[1, 2, 3, 4, 5, 6, 7, 8, 9, 10, 11, 12, 13, 14, 15, 16, 17, 18, 19, 20, 21, 22, 23, 24, 25, 26, 27, 28, 29]",300,193,-1,31,704,9,0.0
basic,3,22,0,0,0,16,"[0, 16]",2,21,"[1, 3, 6, 7, 8, 9, 11, 13, 14, 15, 17, 18, 19, 20, 21, 22, 24, 25, 27, 28, 29]",218.605897,5474,5281,17,147,9,1.0
basic,3,22,0,0,0,28,"[0, 16, 28]",3,13,"[6, 7, 9, 13, 14, 17, 19, 20, 21, 22, 24, 25, 29]",184.1675463,6236,762,12,61,9,1.047282311284478
basic,3,22,0,0,0,6,"[0, 16, 28, 6]",4,12,"[7, 9, 13, 14, 17, 19, 20, 21, 22, 24, 25, 29]",154.1675463,6837,601,12,43,9,1.645645870580622
basic,3,22,0,0,0,9,"[0, 16, 28, 6, 9]",5,8,"[7, 14, 17, 19, 20, 21, 24, 29]",127.5404924,7709,872,8,17,9,1.925750226630103
basic,3,22,0,0,0,19,"[0, 16, 28, 6, 9, 19]",6,6,"[7, 14, 17, 21, 24, 29]",107.1444143,8501,792,3,7,9,2.4220750331476455
basic,3,22,0,0,0,29,"[0, 16, 28, 6, 9, 19, 29]",7,4,"[7, 14, 17, 24]",92.11111796,9304,803,2,2,9,2.6996279574991067
basic,3,22,0,0,0,14,"[0, 16, 28, 6, 9, 19, 29, 14]",8,1,[7],33.86165444,10514,1210,1,0,9,2.0544639927929462
basic,3,22,0,0,1,7,"[0, 16, 28, 6, 9, 19, 29, 14, 7]",9,0,[],20.82324963,11202,688,1,0,9,2.219817088951114
basic,3,22,0,1,1,7,"[0, 16, 28, 6, 9, 19, 29, 14, 7]",9,0,[],20.82324963,14978,3776,1,0,9,2.219817088951114
basic,4,15,0,0,0,0,[0],1,25,"[1, 2, 3, 4, 7, 8, 9, 10, 11, 12, 13, 14, 15, 16, 18, 20, 21, 22, 23, 24, 25, 26, 27, 28, 29]",300,207,-1,4,65,9,0.0
basic,4,15,0,0,0,7,"[0, 7]",2,23,"[1, 3, 4, 8, 9, 10, 11, 12, 13, 14, 15, 16, 18, 20, 21, 22, 23, 24, 25, 26, 27, 28, 29]",215.1884442,36938,36731,30,107,8,1.0
basic,4,15,0,0,0,16,"[0, 7, 16]",3,14,"[3, 4, 9, 10, 11, 12, 13, 14, 15, 18, 21, 22, 25, 27]",171.5306843,37921,983,11,27,8,1.1253230463291073
basic,4,15,0,0,0,11,"[0, 7, 16, 11]",4,10,"[3, 4, 12, 13, 14, 15, 18, 21, 22, 27]",145.5114606,38806,885,6,10,8,1.2441772230587118
basic,4,15,0,0,0,3,"[0, 7, 16, 11, 3]",5,8,"[4, 12, 13, 14, 15, 18, 21, 22]",134.1097064,39677,871,6,4,8,1.253153736954923
basic,4,15,0,0,0,22,"[0, 7, 16, 11, 3, 22]",6,5,"[4, 13, 14, 15, 18]",84.38043933,40407,730,2,3,8,1.249784727890499
basic,4,15,0,0,0,15,"[0, 7, 16, 11, 3, 22, 15]",7,1,[13],58.76794238,41469,1062,1,0,8,1.2283958862490272
basic,4,15,0,0,1,13,"[0, 7, 16, 11, 3, 22, 15, 13]",8,0,[],43.50360486,42171,702,1,0,8,1.2803073001953094
basic,4,15,0,1,1,13,"[0, 7, 16, 11, 3, 22, 15, 13]",8,0,[],43.50360486,46079,3908,1,0,8,1.2803073001953094
basic,5,2,0,0,0,0,[0],1,23,"[1, 2, 4, 5, 6, 7, 8, 9, 12, 13, 15, 16, 17, 18, 19, 20, 22, 23, 25, 26, 27, 28, 29]",300,180,-1,70,620,10,0.0
basic,5,2,0,0,0,12,"[0, 12]",2,19,"[1, 2, 4, 5, 6, 7, 13, 15, 16, 17, 18, 19, 20, 22, 25, 26, 27, 28, 29]",186.8275652,2812,2632,3,169,10,1.0
basic,5,2,0,0,0,5,"[0, 12, 5]",3,14,"[1, 4, 6, 7, 13, 15, 16, 18, 19, 22, 25, 26, 28, 29]",157.2979191,3686,874,2,88,10,1.0082498134695237
basic,5,2,0,0,0,22,"[0, 12, 5, 22]",4,11,"[1, 6, 7, 13, 15, 18, 19, 25, 26, 28, 29]",144.4916706,4322,636,1,45,10,1.0077567572950326
basic,5,2,0,0,0,13,"[0, 12, 5, 22, 13]",5,9,"[1, 6, 7, 15, 18, 19, 25, 26, 29]",129.6256019,4927,605,1,39,10,1.151783231594989
basic,5,2,0,0,0,18,"[0, 12, 5, 22, 13, 18]",6,4,"[7, 15, 26, 29]",94.45459106,5924,997,1,14,10,1.1431544953850095
basic,5,2,0,0,0,7,"[0, 12, 5, 22, 13, 18, 7]",7,3,"[15, 26, 29]",84.15896092,6810,886,1,4,10,1.1360054688421053
basic,5,2,0,0,0,26,"[0, 12, 5, 22, 13, 18, 7, 26]",8,2,"[15, 29]",61.35545242,7688,878,1,1,10,1.1290531198668372
basic,5,2,0,0,0,15,"[0, 12, 5, 22, 13, 18, 7, 26, 15]",9,1,[29],37.14801554,9138,1450,1,0,10,1.395427297339814
basic,5,2,0,0,1,29,"[0, 12, 5, 22, 13, 18, 7, 26, 15, 29]",10,0,[],8.687516603,10242,1104,1,0,10,1.5868802136739162
basic,5,2,0,1,1,29,"[0, 12, 5, 22, 13, 18, 7, 26, 15, 29]",10,0,[],8.687516603,11298,1056,1,0,10,1.5868802136739162
basic,6,25,0,0,0,0,[0],1,28,"[1, 2, 3, 4, 5, 7, 8, 9, 10, 11, 12, 13, 14, 15, 16, 17, 18, 19, 20, 21, 22, 23, 24, 25, 26, 27, 28, 29]",300,179,-1,5,94,10,0.0
basic,6,25,0,0,0,23,"[0, 23]",2,23,"[1, 2, 3, 5, 7, 8, 9, 11, 12, 13, 14, 16, 17, 19, 20, 21, 22, 24, 25, 26, 27, 28, 29]",259.7756293,3587,3408,3,33,10,1.0
basic,6,25,0,0,0,19,"[0, 23, 19]",3,21,"[1, 2, 3, 5, 7, 8, 9, 11, 12, 13, 14, 16, 17, 20, 21, 22, 24, 25, 27, 28, 29]",223.9287326,4526,939,3,24,10,1.583101227007039
basic,6,25,0,0,0,29,"[0, 23, 19, 29]",4,19,"[1, 2, 3, 5, 7, 8, 9, 11, 12, 13, 14, 16, 17, 20, 21, 22, 24, 25, 28]",207.649912,5119,593,3,17,10,1.474631541426484
basic,6,25,0,0,0,22,"[0, 23, 19, 29, 22]",5,18,"[1, 2, 3, 5, 7, 8, 9, 11, 12, 13, 14, 16, 17, 20, 21, 24, 25, 28]",191.5253965,5936,817,3,14,10,1.4020377754906637
basic,6,25,0,0,0,7,"[0, 23, 19, 29, 22, 7]",6,7,"[3, 8, 9, 11, 13, 24, 28]",115.8814939,6900,964,3,11,10,1.5709678649326715
basic,6,25,0,0,0,24,"[0, 23, 19, 29, 22, 7, 24]",7,5,"[3, 8, 9, 13, 28]",91.12265712,7574,674,3,7,10,1.486191600033379
basic,6,25,0,0,0,9,"[0, 23, 19, 29, 22, 7, 24, 9]",8,4,"[3, 8, 13, 28]",73.09490075,8292,718,3,3,10,1.453504870342882
basic,6,25,0,0,0,3,"[0, 23, 19, 29, 22, 7, 24, 9, 3]",9,3,"[8, 13, 28]",42.82940885,9062,770,3,0,10,1.388955167525479
basic,6,25,0,0,1,28,"[0, 23, 19, 29, 22, 7, 24, 9, 3, 28]",10,0,[],11.52445716,10534,1472,1,0,10,1.3331084120212044
basic,6,25,0,1,1,28,"[0, 23, 19, 29, 22, 7, 24, 9, 3, 28]",10,0,[],11.52445716,11714,1180,1,0,10,1.3331084120212044
basic,7,10,0,0,0,0,[0],1,29,"[1, 2, 3, 4, 5, 6, 7, 8, 9, 10, 11, 12, 13, 14, 15, 16, 17, 18, 19, 20, 21, 22, 23, 24, 25, 26, 27, 28, 29]",300,186,-1,1,100,9,0.0
basic,7,10,0,0,0,13,"[0, 13]",2,25,"[1, 2, 3, 4, 6, 7, 8, 9, 10, 11, 12, 14, 17, 18, 19, 20, 21, 22, 23, 24, 25, 26, 27, 28, 29]",249.4628849,3822,3636,1,79,9,1.0
basic,7,10,0,0,0,11,"[0, 13, 11]",3,20,"[1, 2, 3, 6, 7, 8, 9, 10, 12, 14, 18, 19, 20, 21, 22, 24, 26, 27, 28, 29]",206.4512586,5378,1556,1,54,9,1.0313137484914219
basic,7,10,0,0,0,19,"[0, 13, 11, 19]",4,11,"[2, 6, 8, 9, 10, 14, 18, 20, 24, 26, 27]",170.0919407,6077,699,1,22,9,1.0879446220132545
basic,7,10,0,0,0,2,"[0, 13, 11, 19, 2]",5,4,"[14, 20, 26, 27]",126.1829439,7189,1112,1,4,9,1.06474052351343
basic,7,10,0,0,0,14,"[0, 13, 11, 19, 2, 14]",6,3,"[20, 26, 27]",114.0174188,8103,914,1,3,9,1.1628909195912238
basic,7,10,0,0,0,26,"[0, 13, 11, 19, 2, 14, 26]",7,2,"[20, 27]",79.34754716,9060,957,1,1,9,1.6660727647633602
basic,7,10,0,0,0,20,"[0, 13, 11, 19, 2, 14, 26, 20]",8,1,[27],47.56704999,10169,1109,1,0,9,2.085581809637999
basic,7,10,0,0,1,27,"[0, 13, 11, 19, 2, 14, 26, 20, 27]",9,0,[],2.312215998,11219,1050,1,0,9,1.9116357409137932
basic,7,10,0,1,1,27,"[0, 13, 11, 19, 2, 14, 26, 20, 27]",9,0,[],2.312215998,12297,1078,1,0,9,1.9116357409137932
basic,8,17,0,0,0,0,[0],1,28,"[1, 2, 3, 4, 5, 6, 7, 8, 9, 10, 11, 12, 13, 14, 15, 16, 17, 18, 19, 20, 22, 23, 24, 25, 26, 27, 28, 29]",300,199,-1,2,73,8,0.0
basic,8,17,0,0,0,9,"[0, 9]",2,25,"[1, 2, 3, 5, 6, 7, 8, 10, 11, 12, 14, 15, 16, 17, 18, 19, 20, 22, 23, 24, 25, 26, 27, 28, 29]",210.5293344,4553,4354,1,34,8,1.0
basic,8,17,0,0,0,16,"[0, 9, 16]",3,21,"[1, 2, 3, 5, 7, 8, 10, 11, 12, 14, 17, 18, 19, 20, 22, 23, 25, 26, 27, 28, 29]",197.1876704,5343,790,1,26,8,1.173103464220352
basic,8,17,0,0,0,2,"[0, 9, 16, 2]",4,18,"[1, 3, 5, 7, 8, 10, 11, 12, 14, 17, 18, 19, 23, 25, 26, 27, 28, 29]",181.0631549,5906,563,1,23,8,1.14825089247282
basic,8,17,0,0,0,17,"[0, 9, 16, 2, 17]",5,7,"[7, 8, 12, 14, 26, 27, 29]",142.7356191,6841,935,4,5,7,1.4896040699768547
basic,8,17,0,0,0,8,"[0, 9, 16, 2, 17, 8]",6,3,"[7, 12, 27]",104.5256727,7780,939,3,0,7,1.4604726966175894
basic,8,17,0,0,1,7,"[0, 9, 16, 2, 17, 8, 7]",7,0,[],33.81499459,8769,989,1,0,7,1.4474701869793896
basic,8,17,0,1,1,7,"[0, 9, 16, 2, 17, 8, 7]",7,0,[],33.81499459,9663,894,1,0,7,1.4474701869793896
basic,9,0,0,0,0,0,[0],1,27,"[2, 3, 4, 5, 6, 7, 8, 9, 10, 11, 12, 13, 14, 15, 16, 17, 19, 20, 21, 22, 23, 24, 25, 26, 27, 28, 29]",300,179,-1,104,1136,9,0.0
basic,9,0,0,0,0,5,"[0, 5]",2,24,"[2, 3, 4, 7, 8, 9, 11, 12, 13, 14, 15, 16, 17, 19, 20, 21, 22, 23, 24, 25, 26, 27, 28, 29]",164.5156836,9592,9413,5,112,9,1.0
basic,9,0,0,0,0,4,"[0, 5, 4]",3,20,"[2, 3, 7, 8, 9, 11, 12, 13, 14, 15, 17, 19, 20, 21, 22, 23, 24, 25, 26, 28]",139.4358112,10602,1010,4,61,9,1.0257023158632692
basic,9,0,0,0,0,26,"[0, 5, 4, 26]",4,18,"[3, 7, 8, 9, 11, 12, 13, 14, 15, 17, 19, 20, 21, 22, 23, 24, 25, 28]",127.3942166,11421,819,4,26,9,1.0684029773259323
basic,9,0,0,0,0,24,"[0, 5, 4, 26, 24]",5,12,"[3, 7, 8, 9, 11, 12, 15, 17, 19, 20, 23, 28]",110.2769738,12017,596,4,16,9,1.1372083333602885
basic,9,0,0,0,0,15,"[0, 5, 4, 26, 24, 15]",6,8,"[3, 7, 8, 9, 11, 12, 17, 19]",86.93173875,12925,908,4,7,9,1.1271717591548023
basic,9,0,0,0,0,7,"[0, 5, 4, 26, 24, 15, 7]",7,4,"[3, 8, 17, 19]",55.86728962,13957,1032,3,2,9,1.190834598819092
basic,9,0,0,0,0,8,"[0, 5, 4, 26, 24, 15, 7, 8]",8,2,"[3, 19]",36.76231644,14974,1017,2,0,9,1.1832849301094388
basic,9,0,0,0,1,3,"[0, 5, 4, 26, 24, 15, 7, 8, 3]",9,0,[],6.348503789,16170,1196,1,0,9,1.3547295451928671
basic,9,0,0,1,1,3,"[0, 5, 4, 26, 24, 15, 7, 8, 3]",9,0,[],6.348503789,18364,2194,1,0,9,1.3547295451928671
basic,10,42,0,0,0,0,[0],1,29,"[1, 2, 3, 4, 5, 6, 7, 8, 9, 10, 11, 12, 13, 14, 15, 16, 17, 18, 19, 20, 21, 22, 23, 24, 25, 26, 27, 28, 29]",300,185,-1,16,302,9,0.0
basic,10,42,0,0,0,4,"[0, 4]",2,28,"[1, 2, 3, 5, 6, 7, 8, 9, 10, 11, 12, 13, 14, 15, 16, 17, 18, 19, 20, 21, 22, 23, 24, 25, 26, 27, 28, 29]",209.5290102,8691,8506,4,80,9,1.0
basic,10,42,0,0,0,5,"[0, 4, 5]",3,26,"[1, 2, 3, 6, 7, 8, 9, 10, 11, 12, 13, 15, 16, 17, 18, 19, 20, 21, 22, 23, 24, 25, 26, 27, 28, 29]",189.6795769,9548,857,1,20,9,1.0148510397583586
basic,10,42,0,0,0,22,"[0, 4, 5, 22]",4,20,"[1, 2, 3, 6, 7, 8, 9, 11, 15, 17, 18, 19, 20, 21, 23, 24, 25, 26, 27, 29]",161.4483885,10773,1225,1,11,9,1.5637839560024156
basic,10,42,0,0,0,8,"[0, 4, 5, 22, 8]",5,14,"[1, 2, 3, 6, 7, 11, 15, 18, 19, 24, 25, 26, 27, 29]",139.3124449,11882,1109,1,10,9,1.4945254875288396
basic,10,42,0,0,0,1,"[0, 4, 5, 22, 8, 1]",6,5,"[2, 7, 19, 26, 27]",90.22069405,12854,972,1,7,9,1.3471215162642187
basic,10,42,0,0,0,7,"[0, 4, 5, 22, 8, 1, 7]",7,4,"[2, 19, 26, 27]",60.22069405,14292,1438,1,3,9,1.3841357982845324
basic,10,42,0,0,0,26,"[0, 4, 5, 22, 8, 1, 7, 26]",8,1,[27],33.65003354,15324,1032,1,0,9,1.345201850808081
basic,10,42,0,0,1,27,"[0, 4, 5, 22, 8, 1, 7, 26, 27]",9,0,[],15.62227716,16538,1214,1,0,9,1.333637721408899
basic,10,42,0,1,1,27,"[0, 4, 5, 22, 8, 1, 7, 26, 27]",9,0,[],15.62227716,17233,695,1,0,9,1.333637721408899
basic,11,41,0,0,0,0,[0],1,29,"[1, 2, 3, 4, 5, 6, 7, 8, 9, 10, 11, 12, 13, 14, 15, 16, 17, 18, 19, 20, 21, 22, 23, 24, 25, 26, 27, 28, 29]",300,170,-1,1,143,10,0.0
basic,11,41,0,0,0,13,"[0, 13]",2,23,"[1, 2, 3, 5, 6, 7, 9, 10, 11, 12, 14, 15, 17, 18, 19, 20, 21, 22, 24, 25, 26, 27, 28]",258.2747079,2672,2502,1,55,10,1.0
basic,11,41,0,0,0,28,"[0, 13, 28]",3,22,"[1, 2, 3, 5, 6, 7, 9, 10, 11, 12, 14, 15, 17, 18, 19, 20, 21, 22, 24, 25, 26, 27]",223.7928286,3604,932,1,39,10,1.895724242592676
basic,11,41,0,0,0,5,"[0, 13, 28, 5]",4,19,"[1, 2, 3, 6, 9, 10, 11, 12, 14, 15, 17, 18, 19, 20, 21, 22, 24, 25, 27]",210.1913581,4472,868,1,34,10,2.861541269398273
basic,11,41,0,0,0,22,"[0, 13, 28, 5, 22]",5,12,"[2, 3, 6, 9, 10, 11, 12, 17, 18, 20, 21, 25]",155.4464953,6584,2112,11,12,9,2.096079268852861
basic,11,41,0,0,0,3,"[0, 13, 28, 5, 22, 3]",6,8,"[2, 9, 10, 12, 17, 18, 20, 21]",125.4798472,7452,868,7,5,9,4.404491319005463
basic,11,41,0,0,0,21,"[0, 13, 28, 5, 22, 3, 21]",7,4,"[2, 9, 12, 17]",93.33952984,8774,1322,5,1,9,4.228139797553632
basic,11,41,0,0,0,9,"[0, 13, 28, 5, 22, 3, 21, 9]",8,2,"[2, 17]",43.97354965,10205,1431,2,0,9,3.111188754077749
basic,11,41,0,0,1,2,"[0, 13, 28, 5, 22, 3, 21, 9, 2]",9,0,[],31.89050368,10836,631,1,0,9,2.963304814480547
basic,11,41,0,1,1,2,"[0, 13, 28, 5, 22, 3, 21, 9, 2]",9,0,[],31.89050368,13696,2860,1,0,9,2.963304814480547
basic,12,8,0,0,0,0,[0],1,29,"[1, 2, 3, 4, 5, 6, 7, 8, 9, 10, 11, 12, 13, 14, 15, 16, 17, 18, 19, 20, 21, 22, 23, 24, 25, 26, 27, 28, 29]",300,175,-1,10,149,9,0.0
basic,12,8,0,0,0,5,"[0, 5]",2,28,"[1, 2, 3, 4, 6, 7, 8, 9, 10, 11, 12, 13, 14, 15, 16, 17, 18, 19, 20, 21, 22, 23, 24, 25, 26, 27, 28, 29]",254.5137383,17036,16861,10,100,9,1.0
basic,12,8,0,0,0,14,"[0, 5, 14]",3,20,"[1, 2, 3, 4, 6, 7, 11, 15, 16, 17, 18, 19, 20, 21, 22, 23, 24, 25, 28, 29]",214.5512559,17991,955,4,36,9,1.0001019035932595
basic,12,8,0,0,0,17,"[0, 5, 14, 17]",4,15,"[1, 4, 6, 7, 11, 15, 16, 18, 19, 20, 22, 23, 24, 25, 28]",177.5377449,18840,849,4,16,9,1.121197267659591
basic,12,8,0,0,0,11,"[0, 5, 14, 17, 11]",5,11,"[1, 4, 15, 16, 18, 19, 22, 23, 24, 25, 28]",152.3583883,19607,767,4,8,9,1.1277254166016362
basic,12,8,0,0,0,24,"[0, 5, 14, 17, 11, 24]",6,3,"[15, 16, 28]",115.1428001,20388,781,2,2,9,1.1227411011978805
basic,12,8,0,0,0,15,"[0, 5, 14, 17, 11, 24, 15]",7,2,"[16, 28]",98.37974552,21035,647,2,0,9,1.1956385406066814
basic,12,8,0,0,0,16,"[0, 5, 14, 17, 11, 24, 15, 16]",8,1,[28],47.30137436,21951,916,1,0,9,1.36482239111247
basic,12,8,0,0,1,28,"[0, 5, 14, 17, 11, 24, 15, 16, 28]",9,0,[],24.94069458,22758,807,1,0,9,1.632953105226947
basic,12,8,0,1,1,28,"[0, 5, 14, 17, 11, 24, 15, 16, 28]",9,0,[],24.94069458,23714,956,1,0,9,1.632953105226947
basic,13,11,0,0,0,0,[0],1,25,"[1, 2, 3, 4, 5, 6, 8, 9, 10, 11, 12, 13, 14, 15, 16, 17, 18, 19, 20, 22, 23, 25, 26, 27, 28]",300,180,-1,6,374,12,0.0
basic,13,11,0,0,0,18,"[0, 18]",2,21,"[1, 2, 4, 5, 6, 8, 9, 11, 12, 13, 14, 15, 16, 17, 19, 20, 22, 23, 25, 27, 28]",236.8493864,16465,16285,157,1477,11,1.0
basic,13,11,0,0,0,27,"[0, 18, 27]",3,19,"[1, 2, 4, 5, 6, 8, 9, 11, 12, 14, 15, 16, 17, 19, 20, 22, 23, 25, 28]",212.9956655,17459,994,157,1315,11,1.060949579704323
basic,13,11,0,0,0,8,"[0, 18, 27, 8]",4,14,"[1, 2, 4, 5, 6, 11, 12, 15, 17, 19, 22, 23, 25, 28]",142.7817068,19203,1744,68,433,11,1.0827202875589923
basic,13,11,0,0,0,17,"[0, 18, 27, 8, 17]",5,13,"[1, 2, 4, 5, 6, 11, 12, 15, 19, 22, 23, 25, 28]",128.4638857,20337,1134,42,137,11,1.1662918234607762
basic,13,11,0,0,0,15,"[0, 18, 27, 8, 17, 15]",6,9,"[2, 5, 6, 11, 12, 19, 22, 25, 28]",115.8147751,21472,1135,38,57,11,1.1741312027420885
basic,13,11,0,0,0,11,"[0, 18, 27, 8, 17, 15, 11]",7,7,"[2, 5, 6, 12, 19, 22, 28]",97.70400479,22541,1069,24,0,11,1.1668679039564056
basic,13,11,0,0,0,28,"[0, 18, 27, 8, 17, 15, 11, 28]",8,4,"[2, 5, 19, 22]",78.28751696,26271,3730,6,0,11,1.2830334294205898
basic,13,11,0,0,0,2,"[0, 18, 27, 8, 17, 15, 11, 28, 2]",9,2,"[5, 22]",67.65737114,27336,1065,2,0,11,1.3017261967352185
basic,13,11,0,0,0,22,"[0, 18, 27, 8, 17, 15, 11, 28, 2, 22]",10,1,[5],57.60749552,28401,1065,1,0,11,1.2856712331893108
basic,13,11,0,0,1,5,"[0, 18, 27, 8, 17, 15, 11, 28, 2, 22, 5]",11,0,[],31.03683501,29806,1405,1,0,11,1.653194834588669
basic,13,11,0,1,1,5,"[0, 18, 27, 8, 17, 15, 11, 28, 2, 22, 5]",11,0,[],31.03683501,31378,1572,1,0,11,1.653194834588669
basic,14,20,0,0,0,0,[0],1,21,"[1, 2, 3, 4, 5, 6, 7, 8, 9, 12, 17, 18, 20, 21, 22, 23, 25, 26, 27, 28, 29]",300,183,-1,1,9,9,0.0
basic,14,20,0,0,0,5,"[0, 5]",2,14,"[1, 3, 4, 6, 8, 9, 12, 20, 21, 23, 26, 27, 28, 29]",174.3576505,14355,14172,3,24,7,1.0
basic,14,20,0,0,0,21,"[0, 5, 21]",3,10,"[1, 4, 6, 8, 9, 20, 23, 26, 27, 28]",129.3576505,15874,1519,3,13,7,1.000374735486217
basic,14,20,0,0,0,8,"[0, 5, 21, 8]",4,6,"[1, 6, 9, 23, 27, 28]",111.8934013,16690,816,3,7,7,1.0232558372988163
basic,14,20,0,0,0,23,"[0, 5, 21, 8, 23]",5,4,"[6, 9, 27, 28]",67.20559531,17570,880,2,2,7,1.022001720978389
basic,14,20,0,0,0,9,"[0, 5, 21, 8, 23, 9]",6,1,[6],47.9962226,18405,835,1,0,7,1.0216742507052117
basic,14,20,0,0,1,6,"[0, 5, 21, 8, 23, 9, 6]",7,0,[],24.97449373,19237,832,1,0,7,1.037647415066349
basic,14,20,0,1,1,6,"[0, 5, 21, 8, 23, 9, 6]",7,0,[],24.97449373,20816,1579,1,0,7,1.037647415066349
basic,15,7,0,0,0,0,[0],1,29,"[1, 2, 3, 4, 5, 6, 7, 8, 9, 10, 11, 12, 13, 14, 15, 16, 17, 18, 19, 20, 21, 22, 23, 24, 25, 26, 27, 28, 29]",300,178,-1,3,79,9,0.0
basic,15,7,0,0,0,25,"[0, 25]",2,20,"[2, 3, 4, 5, 6, 7, 10, 13, 14, 15, 16, 18, 19, 20, 21, 22, 23, 24, 27, 28]",181.5939191,5773,5595,5,33,8,1.0
basic,15,7,0,0,0,4,"[0, 25, 4]",3,11,"[2, 6, 7, 13, 15, 16, 18, 19, 20, 21, 23]",156.8552853,6503,730,2,14,8,1.0193465608331511
basic,15,7,0,0,0,20,"[0, 25, 4, 20]",4,8,"[2, 6, 7, 13, 15, 16, 18, 19]",137.2084026,7051,548,1,9,8,1.085904909082323
basic,15,7,0,0,0,18,"[0, 25, 4, 20, 18]",5,7,"[2, 6, 7, 13, 15, 16, 19]",124.4021541,7738,687,1,5,8,1.2264883846453758
basic,15,7,0,0,0,7,"[0, 25, 4, 20, 18, 7]",6,2,"[2, 19]",83.17109789,9151,1413,1,1,8,1.185264473968278
basic,15,7,0,0,0,19,"[0, 25, 4, 20, 18, 7, 19]",7,1,[2],53.76021555,9888,737,1,0,8,1.3016904288278204
basic,15,7,0,0,1,2,"[0, 25, 4, 20, 18, 7, 19, 2]",8,0,[],23.61058868,10705,817,1,0,8,1.3168868000947171
basic,15,7,0,1,1,2,"[0, 25, 4, 20, 18, 7, 19, 2]",8,0,[],23.61058868,11649,944,1,0,8,1.3168868000947171
basic,16,36,0,0,0,0,[0],1,24,"[2, 4, 5, 6, 7, 8, 9, 10, 12, 13, 14, 15, 16, 17, 18, 19, 20, 22, 23, 25, 26, 27, 28, 29]",300,179,-1,2,200,10,0.0
basic,16,36,0,0,0,18,"[0, 18]",2,21,"[2, 4, 5, 6, 7, 8, 9, 10, 12, 13, 14, 16, 17, 19, 22, 23, 25, 26, 27, 28, 29]",279.6039219,3761,3582,2,110,10,1.0
basic,16,36,0,0,0,12,"[0, 18, 12]",3,19,"[2, 4, 5, 6, 7, 8, 9, 10, 13, 16, 17, 19, 22, 23, 25, 26, 27, 28, 29]",237.0245842,4908,1147,2,86,10,2.836270082716982
basic,16,36,0,0,0,9,"[0, 18, 12, 9]",4,9,"[2, 4, 10, 13, 16, 17, 19, 23, 25]",174.6627369,7370,2462,1,40,10,1.8147676024843966
basic,16,36,0,0,0,16,"[0, 18, 12, 9, 16]",5,5,"[2, 13, 17, 19, 25]",127.3658026,8580,1210,4,11,9,1.6173640341692257
basic,16,36,0,0,0,17,"[0, 18, 12, 9, 16, 17]",6,4,"[2, 13, 19, 25]",99.04619804,10205,1625,4,5,9,2.126167915720943
basic,16,36,0,0,0,19,"[0, 18, 12, 9, 16, 17, 19]",7,3,"[2, 13, 25]",71.15354668,11234,1029,3,0,9,2.9690287970141402
basic,16,36,0,0,0,2,"[0, 18, 12, 9, 16, 17, 19, 2]",8,1,[25],34.0321243,12211,977,1,0,9,2.355174034952613
basic,16,36,0,0,1,25,"[0, 18, 12, 9, 16, 17, 19, 2, 25]",9,0,[],9.032124296,13295,1084,1,0,9,2.541422245252009
basic,16,36,0,1,1,25,"[0, 18, 12, 9, 16, 17, 19, 2, 25]",9,0,[],9.032124296,14348,1053,1,0,9,2.541422245252009
basic,17,32,0,0,0,0,[0],1,29,"[1, 2, 3, 4, 5, 6, 7, 8, 9, 10, 11, 12, 13, 14, 15, 16, 17, 18, 19, 20, 21, 22, 23, 24, 25, 26, 27, 28, 29]",300,164,-1,17,359,10,0.0
basic,17,32,0,0,0,19,"[0, 19]",2,28,"[1, 2, 3, 4, 5, 6, 7, 8, 9, 10, 11, 12, 13, 14, 15, 16, 17, 18, 20, 21, 22, 23, 24, 25, 26, 27, 28, 29]",283.5075775,3162,2998,16,294,10,1.0
basic,17,32,0,0,0,13,"[0, 19, 13]",3,24,"[2, 3, 4, 5, 6, 8, 9, 10, 11, 12, 14, 15, 16, 17, 18, 20, 21, 22, 23, 24, 25, 26, 27, 28]",260.3127505,4039,877,14,227,10,1.0172874229878615
basic,17,32,0,0,0,15,"[0, 19, 13, 15]",4,18,"[2, 3, 5, 8, 9, 10, 11, 12, 16, 17, 20, 22, 23, 24, 25, 26, 27, 28]",177.4393531,4966,927,9,116,10,1.435447391509833
basic,17,32,0,0,0,28,"[0, 19, 13, 15, 28]",5,17,"[2, 3, 5, 8, 9, 10, 11, 12, 16, 17, 20, 22, 23, 24, 25, 26, 27]",166.0375988,5757,791,9,70,10,1.3843701324937985
basic,17,32,0,0,0,12,"[0, 19, 13, 15, 28, 12]",6,14,"[2, 3, 5, 8, 9, 10, 11, 16, 17, 20, 22, 24, 26, 27]",147.0639329,6864,1107,6,35,10,1.358372254952329
basic,17,32,0,0,0,16,"[0, 19, 13, 15, 28, 12, 16]",7,13,"[2, 3, 5, 8, 9, 10, 11, 17, 20, 22, 24, 26, 27]",131.411457,7745,881,5,15,10,1.4356932930709845
basic,17,32,0,0,0,22,"[0, 19, 13, 15, 28, 12, 16, 22]",8,6,"[2, 8, 9, 17, 20, 27]",97.57360838,8719,974,3,5,10,1.4335226411545752
basic,17,32,0,0,0,9,"[0, 19, 13, 15, 28, 12, 16, 22, 9]",9,3,"[2, 8, 20]",75.37000507,12323,3604,3,0,10,1.4837166378374758
basic,17,32,0,0,1,8,"[0, 19, 13, 15, 28, 12, 16, 22, 9, 8]",10,0,[],30.24794838,13304,981,1,0,10,1.3767698817641267
basic,17,32,0,1,1,8,"[0, 19, 13, 15, 28, 12, 16, 22, 9, 8]",10,0,[],30.24794838,14547,1243,1,0,10,1.3767698817641267
basic,18,37,0,0,0,0,[0],1,29,"[1, 2, 3, 4, 5, 6, 7, 8, 9, 10, 11, 12, 13, 14, 15, 16, 17, 18, 19, 20, 21, 22, 23, 24, 25, 26, 27, 28, 29]",300,171,-1,6,168,10,0.0
basic,18,37,0,0,0,18,"[0, 18]",2,19,"[1, 2, 4, 6, 7, 9, 10, 12, 14, 15, 17, 19, 20, 21, 22, 23, 26, 28, 29]",202.4090168,4886,4715,6,89,10,1.0
basic,18,37,0,0,0,22,"[0, 18, 22]",3,9,"[1, 2, 4, 7, 15, 19, 20, 21, 26]",136.9720242,6006,1120,15,58,9,1.001057447339584
basic,18,37,0,0,0,4,"[0, 18, 22, 4]",4,8,"[1, 2, 7, 15, 19, 20, 21, 26]",111.9720242,6882,876,8,28,9,1.1568597805027683
basic,18,37,0,0,0,2,"[0, 18, 22, 4, 2]",5,7,"[1, 7, 15, 19, 20, 21, 26]",100.57027,7615,733,7,12,9,1.3192232340552885
basic,18,37,0,0,0,1,"[0, 18, 22, 4, 2, 1]",6,6,"[7, 15, 19, 20, 21, 26]",83.36561943,8386,771,7,4,9,1.3683384389764814
basic,18,37,0,0,0,15,"[0, 18, 22, 4, 2, 1, 15]",7,3,"[20, 21, 26]",43.40313702,9703,1317,2,1,9,1.5420751881752959
basic,18,37,0,0,0,20,"[0, 18, 22, 4, 2, 1, 15, 20]",8,1,[21],26.40313702,10594,891,1,0,9,1.8252369053550608
basic,18,37,0,0,1,21,"[0, 18, 22, 4, 2, 1, 15, 20, 21]",9,0,[],11.98093192,11335,741,1,0,9,1.8558715556201628
basic,18,37,0,1,1,21,"[0, 18, 22, 4, 2, 1, 15, 20, 21]",9,0,[],11.98093192,12362,1027,1,0,9,1.8558715556201628
basic,19,5,0,0,0,0,[0],1,29,"[1, 2, 3, 4, 5, 6, 7, 8, 9, 10, 11, 12, 13, 14, 15, 16, 17, 18, 19, 20, 21, 22, 23, 24, 25, 26, 27, 28, 29]",300,172,-1,5,139,9,0.0
basic,19,5,0,0,0,23,"[0, 23]",2,27,"[1, 2, 3, 4, 5, 6, 7, 8, 9, 10, 11, 12, 13, 14, 15, 16, 17, 18, 19, 20, 21, 22, 24, 25, 26, 27, 28]",249.8402552,5000,4828,3,75,9,1.0
basic,19,5,0,0,0,25,"[0, 23, 25]",3,23,"[1, 2, 3, 4, 5, 6, 8, 9, 10, 12, 13, 14, 15, 16, 17, 18, 19, 21, 22, 24, 26, 27, 28]",231.4011663,5897,897,3,43,9,1.0923159590575564
basic,19,5,0,0,0,24,"[0, 23, 25, 24]",4,21,"[2, 3, 4, 5, 6, 8, 9, 10, 12, 13, 14, 15, 16, 17, 18, 19, 21, 22, 26, 27, 28]",206.5616816,10803,4906,3,25,9,1.2901858295679272
basic,19,5,0,0,0,17,"[0, 23, 25, 24, 17]",5,13,"[4, 5, 6, 8, 12, 13, 14, 15, 18, 19, 22, 26, 27]",171.5759702,12403,1600,3,14,9,1.2027484907982513
basic,19,5,0,0,0,5,"[0, 23, 25, 24, 17, 5]",6,7,"[4, 6, 8, 12, 15, 18, 19]",128.5294837,13616,1213,3,4,9,1.1472230681682432
basic,19,5,0,0,0,6,"[0, 23, 25, 24, 17, 5, 6]",7,2,"[4, 18]",59.2113764,14902,1286,1,1,9,1.441848045508982
basic,19,5,0,0,0,4,"[0, 23, 25, 24, 17, 5, 6, 4]",8,1,[18],47.16978182,15457,555,1,0,9,1.4428372851928168
basic,19,5,0,0,1,18,"[0, 23, 25, 24, 17, 5, 6, 4, 18]",9,0,[],8.751036398,16718,1261,1,0,9,1.4362408478210533
basic,19,5,0,1,1,18,"[0, 23, 25, 24, 17, 5, 6, 4, 18]",9,0,[],8.751036398,17693,975,1,0,9,1.4362408478210533
basic,20,24,0,0,0,0,[0],1,29,"[1, 2, 3, 4, 5, 6, 7, 8, 9, 10, 11, 12, 13, 14, 15, 16, 17, 18, 19, 20, 21, 22, 23, 24, 25, 26, 27, 28, 29]",300,166,-1,4,76,10,0.0
basic,20,24,0,0,0,16,"[0, 16]",2,28,"[1, 2, 3, 4, 5, 6, 7, 8, 9, 10, 11, 12, 13, 14, 15, 17, 18, 19, 20, 21, 22, 23, 24, 25, 26, 27, 28, 29]",210.3562607,2833,2667,13,110,9,1.0
basic,20,24,0,0,0,22,"[0, 16, 22]",3,27,"[1, 2, 3, 4, 5, 6, 7, 8, 9, 10, 11, 12, 13, 14, 15, 17, 18, 19, 20, 21, 23, 24, 25, 26, 27, 28, 29]",192.3285043,4167,1334,7,54,9,1.0217425143037777
basic,20,24,0,0,0,8,"[0, 16, 22, 8]",4,21,"[1, 2, 3, 4, 6, 9, 10, 11, 13, 14, 15, 17, 20, 21, 23, 24, 25, 26, 27, 28, 29]",178.9120964,5017,850,4,28,9,1.0996636936037951
basic,20,24,0,0,0,15,"[0, 16, 22, 8, 15]",5,16,"[3, 4, 6, 9, 10, 11, 13, 14, 17, 23, 24, 25, 26, 27, 28, 29]",148.025206,6022,1005,3,17,9,1.2704773343758617
basic,20,24,0,0,0,28,"[0, 16, 22, 8, 15, 28]",6,8,"[3, 4, 9, 11, 13, 23, 26, 27]",102.7482803,6989,967,3,5,9,1.1981967578189556
basic,20,24,0,0,0,23,"[0, 16, 22, 8, 15, 28, 23]",7,3,"[9, 11, 27]",83.72198273,7651,662,3,1,9,1.2275650852813986
basic,20,24,0,0,0,11,"[0, 16, 22, 8, 15, 28, 23, 11]",8,2,"[9, 27]",56.79615869,8641,990,2,0,9,1.2107937989822568
basic,20,24,0,0,1,27,"[0, 16, 22, 8, 15, 28, 23, 11, 27]",9,0,[],28.99328114,9543,902,1,0,9,1.1865620449755248
basic,20,24,0,1,1,27,"[0, 16, 22, 8, 15, 28, 23, 11, 27]",9,0,[],28.99328114,11593,2050,1,0,9,1.1865620449755248
basic,21,40,0,0,0,0,[0],1,29,"[1, 2, 3, 4, 5, 6, 7, 8, 9, 10, 11, 12, 13, 14, 15, 16, 17, 18, 19, 20, 21, 22, 23, 24, 25, 26, 27, 28, 29]",300,177,-1,8,191,9,0.0
basic,21,40,0,0,0,1,"[0, 1]",2,18,"[2, 5, 6, 7, 8, 9, 10, 11, 13, 15, 17, 18, 19, 21, 22, 23, 27, 29]",247.8463808,8071,7894,4,80,9,1.0
basic,21,40,0,0,0,6,"[0, 1, 6]",3,17,"[2, 5, 7, 8, 9, 10, 11, 13, 15, 17, 18, 19, 21, 22, 23, 27, 29]",227.7466295,8989,918,4,74,9,1.0459427008232034
basic,21,40,0,0,0,9,"[0, 1, 6, 9]",4,10,"[2, 5, 8, 11, 18, 19, 21, 22, 23, 27]",159.146338,10121,1132,17,39,8,1.142098432552584
basic,21,40,0,0,0,18,"[0, 1, 6, 9, 18]",5,9,"[2, 5, 8, 11, 19, 21, 22, 23, 27]",142.5933926,10820,699,13,14,8,1.3288108654802917
basic,21,40,0,0,0,5,"[0, 1, 6, 9, 18, 5]",6,7,"[2, 8, 19, 21, 22, 23, 27]",111.0180858,11894,1074,5,5,8,1.5366414787972102
basic,21,40,0,0,0,23,"[0, 1, 6, 9, 18, 5, 23]",7,3,"[2, 19, 21]",82.71614241,13894,2000,3,0,8,2.2908821040631264
basic,21,40,0,0,1,19,"[0, 1, 6, 9, 18, 5, 23, 19]",8,0,[],50.76305179,14939,1045,1,0,8,2.4294131203959415
basic,21,40,0,1,1,19,"[0, 1, 6, 9, 18, 5, 23, 19]",8,0,[],50.76305179,15812,873,1,0,8,2.4294131203959415
basic,22,13,0,0,0,0,[0],1,29,"[1, 2, 3, 4, 5, 6, 7, 8, 9, 10, 11, 12, 13, 14, 15, 16, 17, 18, 19, 20, 21, 22, 23, 24, 25, 26, 27, 28, 29]",300,188,-1,60,2676,11,0.0
basic,22,13,0,0,0,24,"[0, 24]",2,28,"[1, 2, 3, 4, 5, 6, 7, 8, 9, 10, 11, 12, 13, 14, 15, 16, 17, 18, 19, 20, 21, 22, 23, 25, 26, 27, 28, 29]",288.8196601,8078,7890,16,1444,11,1.0
basic,22,13,0,0,0,28,"[0, 24, 28]",3,23,"[1, 2, 3, 4, 6, 7, 8, 9, 10, 11, 12, 13, 15, 16, 17, 19, 20, 21, 22, 23, 26, 27, 29]",222.5324064,9105,1027,8,243,11,1.0513810491680837
basic,22,13,0,0,0,2,"[0, 24, 28, 2]",4,19,"[1, 3, 4, 6, 7, 9, 11, 12, 13, 15, 16, 17, 19, 20, 21, 23, 26, 27, 29]",184.889346,10010,905,7,110,11,1.050374132001543
basic,22,13,0,0,0,29,"[0, 24, 28, 2, 29]",5,18,"[1, 3, 4, 6, 7, 9, 11, 12, 13, 15, 16, 17, 19, 20, 21, 23, 26, 27]",173.1846461,10657,647,7,85,11,1.1393409619120594
basic,22,13,0,0,0,7,"[0, 24, 28, 2, 29, 7]",6,17,"[1, 3, 4, 6, 9, 11, 12, 13, 15, 16, 17, 19, 20, 21, 23, 26, 27]",157.9203086,11552,895,5,45,11,1.349777315111579
basic,22,13,0,0,0,26,"[0, 24, 28, 2, 29, 7, 26]",7,16,"[1, 3, 4, 6, 9, 11, 12, 13, 15, 16, 17, 19, 20, 21, 23, 27]",147.480002,12647,1095,5,25,11,1.5942082773824946
basic,22,13,0,0,0,6,"[0, 24, 28, 2, 29, 7, 26, 6]",8,12,"[1, 3, 4, 11, 13, 15, 16, 17, 19, 20, 23, 27]",127.3802508,13327,680,4,12,11,1.5898347940840756
basic,22,13,0,0,0,11,"[0, 24, 28, 2, 29, 7, 26, 6, 11]",9,6,"[1, 13, 15, 16, 17, 23]",108.2752776,14109,782,3,4,11,1.5029953945561012
basic,22,13,0,0,0,13,"[0, 24, 28, 2, 29, 7, 26, 6, 11, 13]",10,2,"[15, 17]",52.19497806,17802,3693,2,0,11,1.3655915863754327
basic,22,13,0,0,1,17,"[0, 24, 28, 2, 29, 7, 26, 6, 11, 13, 17]",11,0,[],18.81833952,20122,2320,1,0,11,1.4149038511024103
basic,22,13,0,1,1,17,"[0, 24, 28, 2, 29, 7, 26, 6, 11, 13, 17]",11,0,[],18.81833952,20932,810,1,0,11,1.4149038511024103
undo,23,10,0,0,0,0,[0],1,29,"[1, 2, 3, 4, 5, 6, 7, 8, 9, 10, 11, 12, 13, 14, 15, 16, 17, 18, 19, 20, 21, 22, 23, 24, 25, 26, 27, 28, 29]",300,212,-1,1,100,9,0.0
undo,23,10,0,0,0,13,"[0, 13]",2,25,"[1, 2, 3, 4, 6, 7, 8, 9, 10, 11, 12, 14, 17, 18, 19, 20, 21, 22, 23, 24, 25, 26, 27, 28, 29]",249.4628849,3767,3555,1,79,9,1.0
undo,23,10,0,0,0,11,"[0, 13, 11]",3,20,"[1, 2, 3, 6, 7, 8, 9, 10, 12, 14, 18, 19, 20, 21, 22, 24, 26, 27, 28, 29]",206.4512586,4639,872,1,54,9,1.0313137484914219
undo,23,10,0,0,0,19,"[0, 13, 11, 19]",4,11,"[2, 6, 8, 9, 10, 14, 18, 20, 24, 26, 27]",170.0919407,5521,882,1,22,9,1.0879446220132545
undo,23,10,0,0,0,2,"[0, 13, 11, 19, 2]",5,4,"[14, 20, 26, 27]",126.1829439,6442,921,1,4,9,1.06474052351343
undo,23,10,0,0,0,14,"[0, 13, 11, 19, 2, 14]",6,3,"[20, 26, 27]",114.0174188,7360,918,1,3,9,1.1628909195912238
undo,23,10,0,0,0,26,"[0, 13, 11, 19, 2, 14, 26]",7,2,"[20, 27]",79.34754716,8071,711,1,1,9,1.6660727647633602
undo,23,10,0,0,0,20,"[0, 13, 11, 19, 2, 14, 26, 20]",8,1,[27],47.56704999,8920,849,1,0,9,2.085581809637999
undo,23,10,0,0,1,27,"[0, 13, 11, 19, 2, 14, 26, 20, 27]",9,0,[],2.312215998,10046,1126,1,0,9,1.9116357409137932
undo,23,10,1,0,0,20,"[0, 13, 11, 19, 2, 14, 26, 20]",8,1,[27],47.56704999,11913,1867,1,0,9,2.085581809637999
undo,23,10,1,0,0,26,"[0, 13, 11, 19, 2, 14, 26]",7,2,"[20, 27]",79.34754716,12113,200,1,1,9,1.6660727647633602
undo,23,10,1,0,0,14,"[0, 13, 11, 19, 2, 14]",6,3,"[20, 26, 27]",114.0174188,12264,151,1,3,9,1.1628909195912238
undo,23,10,1,0,0,2,"[0, 13, 11, 19, 2]",5,4,"[14, 20, 26, 27]",126.1829439,12455,191,1,4,9,1.06474052351343
undo,23,10,1,0,0,19,"[0, 13, 11, 19]",4,11,"[2, 6, 8, 9, 10, 14, 18, 20, 24, 26, 27]",170.0919407,12681,226,1,22,9,1.0879446220132545
undo,23,10,1,0,0,11,"[0, 13, 11]",3,20,"[1, 2, 3, 6, 7, 8, 9, 10, 12, 14, 18, 19, 20, 21, 22, 24, 26, 27, 28, 29]",206.4512586,13047,366,1,54,9,1.0313137484914219
undo,23,10,1,0,0,13,"[0, 13]",2,25,"[1, 2, 3, 4, 6, 7, 8, 9, 10, 11, 12, 14, 17, 18, 19, 20, 21, 22, 23, 24, 25, 26, 27, 28, 29]",249.4628849,13364,317,1,79,9,1.0
undo,23,10,1,0,0,0,[0],1,29,"[1, 2, 3, 4, 5, 6, 7, 8, 9, 10, 11, 12, 13, 14, 15, 16, 17, 18, 19, 20, 21, 22, 23, 24, 25, 26, 27, 28, 29]",300,13713,349,1,100,9,0.0
undo,23,10,0,0,0,13,"[0, 13]",2,25,"[1, 2, 3, 4, 6, 7, 8, 9, 10, 11, 12, 14, 17, 18, 19, 20, 21, 22, 23, 24, 25, 26, 27, 28, 29]",249.4628849,21695,7982,1,79,9,1.0
undo,23,10,0,0,0,11,"[0, 13, 11]",3,20,"[1, 2, 3, 6, 7, 8, 9, 10, 12, 14, 18, 19, 20, 21, 22, 24, 26, 27, 28, 29]",206.4512586,22580,885,1,54,9,1.0313137484914219
undo,23,10,0,0,0,19,"[0, 13, 11, 19]",4,11,"[2, 6, 8, 9, 10, 14, 18, 20, 24, 26, 27]",170.0919407,23207,627,1,22,9,1.0879446220132545
undo,23,10,0,0,0,2,"[0, 13, 11, 19, 2]",5,4,"[14, 20, 26, 27]",126.1829439,24147,940,1,4,9,1.06474052351343
undo,23,10,0,0,0,14,"[0, 13, 11, 19, 2, 14]",6,3,"[20, 26, 27]",114.0174188,24720,573,1,3,9,1.1628909195912238
undo,23,10,0,0,0,26,"[0, 13, 11, 19, 2, 14, 26]",7,2,"[20, 27]",79.34754716,25473,753,1,1,9,1.6660727647633602
undo,23,10,0,0,0,20,"[0, 13, 11, 19, 2, 14, 26, 20]",8,1,[27],47.56704999,26321,848,1,0,9,2.085581809637999
undo,23,10,0,0,1,27,"[0, 13, 11, 19, 2, 14, 26, 20, 27]",9,0,[],2.312215998,27281,960,1,0,9,1.9116357409137932
undo,23,10,0,1,1,27,"[0, 13, 11, 19, 2, 14, 26, 20, 27]",9,0,[],2.312215998,29047,1766,1,0,9,1.9116357409137932
undo,24,25,0,0,0,0,[0],1,28,"[1, 2, 3, 4, 5, 7, 8, 9, 10, 11, 12, 13, 14, 15, 16, 17, 18, 19, 20, 21, 22, 23, 24, 25, 26, 27, 28, 29]",300,162,-1,5,94,10,0.0
undo,24,25,0,0,0,23,"[0, 23]",2,23,"[1, 2, 3, 5, 7, 8, 9, 11, 12, 13, 14, 16, 17, 19, 20, 21, 22, 24, 25, 26, 27, 28, 29]",259.7756293,4327,4165,3,33,10,1.0
undo,24,25,0,0,0,7,"[0, 23, 7]",3,16,"[1, 3, 5, 8, 9, 11, 13, 17, 19, 21, 22, 24, 26, 27, 28, 29]",181.9424744,5561,1234,1,21,9,1.0073109045884563
undo,24,25,0,0,0,24,"[0, 23, 7, 24]",4,10,"[3, 5, 8, 9, 11, 13, 19, 22, 28, 29]",157.1836376,6470,909,1,17,9,1.0161584555781231
undo,24,25,0,0,0,9,"[0, 23, 7, 24, 9]",5,8,"[3, 8, 11, 13, 19, 22, 28, 29]",139.1558812,7239,769,1,16,9,1.0303325523073676
undo,24,25,0,0,0,3,"[0, 23, 7, 24, 9, 3]",6,4,"[8, 11, 13, 28]",108.8903893,8105,866,1,5,9,1.0321657704271587
undo,24,25,0,0,0,13,"[0, 23, 7, 24, 9, 3, 13]",7,2,"[8, 28]",77.6493906,8985,880,1,1,9,1.1031543757060376
undo,24,25,0,0,0,28,"[0, 23, 7, 24, 9, 3, 13, 28]",8,1,[8],43.41490506,9717,732,1,0,9,1.1857356956374323
undo,24,25,0,0,1,8,"[0, 23, 7, 24, 9, 3, 13, 28, 8]",9,0,[],2.807024055,10604,887,1,0,9,1.486169242046657
undo,24,25,1,0,0,28,"[0, 23, 7, 24, 9, 3, 13, 28]",8,1,[8],43.41490506,11828,1224,1,0,9,1.1857356956374323
undo,24,25,1,0,0,13,"[0, 23, 7, 24, 9, 3, 13]",7,2,"[8, 28]",77.6493906,12029,201,1,1,9,1.1031543757060376
undo,24,25,1,0,0,3,"[0, 23, 7, 24, 9, 3]",6,4,"[8, 11, 13, 28]",108.8903893,12194,165,1,5,9,1.0321657704271587
undo,24,25,1,0,0,9,"[0, 23, 7, 24, 9]",5,8,"[3, 8, 11, 13, 19, 22, 28, 29]",139.1558812,12378,184,1,16,9,1.0303325523073676
undo,24,25,1,0,0,24,"[0, 23, 7, 24]",4,10,"[3, 5, 8, 9, 11, 13, 19, 22, 28, 29]",157.1836376,12545,167,1,17,9,1.0161584555781231
undo,24,25,1,0,0,7,"[0, 23, 7]",3,16,"[1, 3, 5, 8, 9, 11, 13, 17, 19, 21, 22, 24, 26, 27, 28, 29]",181.9424744,12744,199,1,21,9,1.0073109045884563
undo,24,25,1,0,0,23,"[0, 23]",2,23,"[1, 2, 3, 5, 7, 8, 9, 11, 12, 13, 14, 16, 17, 19, 20, 21, 22, 24, 25, 26, 27, 28, 29]",259.7756293,13161,417,3,33,10,1.0
undo,24,25,1,0,0,0,[0],1,28,"[1, 2, 3, 4, 5, 7, 8, 9, 10, 11, 12, 13, 14, 15, 16, 17, 18, 19, 20, 21, 22, 23, 24, 25, 26, 27, 28, 29]",300,13394,233,5,94,10,0.0
undo,24,25,0,0,0,19,"[0, 19]",2,27,"[1, 2, 3, 4, 5, 7, 8, 9, 10, 11, 12, 13, 14, 15, 16, 17, 18, 20, 21, 22, 23, 24, 25, 26, 27, 28, 29]",251.9479449,15518,2124,2,30,10,1.0
undo,24,25,0,0,0,29,"[0, 19, 29]",3,26,"[1, 2, 3, 4, 5, 7, 8, 9, 10, 11, 12, 13, 14, 15, 16, 17, 18, 20, 21, 22, 23, 24, 25, 26, 27, 28]",235.6691243,16192,674,2,22,10,1.0272252084351727
undo,24,25,0,0,0,22,"[0, 19, 29, 22]",4,24,"[1, 2, 3, 4, 5, 7, 8, 9, 11, 12, 13, 14, 15, 16, 17, 18, 20, 21, 23, 24, 25, 26, 27, 28]",219.5446088,17156,964,2,17,10,1.03988854593305
undo,24,25,0,0,0,7,"[0, 19, 29, 22, 7]",5,10,"[1, 3, 5, 8, 9, 11, 13, 23, 24, 28]",143.9007062,18137,981,2,14,10,1.3318974800137366
undo,24,25,0,0,0,24,"[0, 19, 29, 22, 7, 24]",6,7,"[3, 8, 9, 11, 13, 23, 28]",119.1418694,18872,735,2,9,10,1.2868309735722725
undo,24,25,0,0,0,9,"[0, 19, 29, 22, 7, 24, 9]",7,4,"[3, 8, 13, 28]",101.114113,19652,780,2,7,10,1.2740198715343065
undo,24,25,0,0,0,3,"[0, 19, 29, 22, 7, 24, 9, 3]",8,3,"[8, 13, 28]",70.84862112,20709,1057,2,1,10,1.2376259292234586
undo,24,25,0,0,0,28,"[0, 19, 29, 22, 7, 24, 9, 3, 28]",9,1,[13],39.54366943,21807,1098,1,0,10,1.203625519961748
undo,24,25,0,0,1,13,"[0, 19, 29, 22, 7, 24, 9, 3, 28, 13]",10,0,[],5.309183897,27052,5245,1,0,10,1.4620578920005771
undo,24,25,0,1,1,13,"[0, 19, 29, 22, 7, 24, 9, 3, 28, 13]",10,0,[],5.309183897,28729,1677,1,0,10,1.4620578920005771
undo,25,42,0,0,0,0,[0],1,29,"[1, 2, 3, 4, 5, 6, 7, 8, 9, 10, 11, 12, 13, 14, 15, 16, 17, 18, 19, 20, 21, 22, 23, 24, 25, 26, 27, 28, 29]",300,180,-1,16,302,9,0.0
undo,25,42,0,0,0,5,"[0, 5]",2,28,"[1, 2, 3, 4, 6, 7, 8, 9, 10, 11, 12, 13, 14, 15, 16, 17, 18, 19, 20, 21, 22, 23, 24, 25, 26, 27, 28, 29]",191.2939744,3384,3204,1,22,9,1.0
undo,25,42,0,0,0,4,"[0, 5, 4]",3,23,"[1, 2, 3, 6, 7, 8, 9, 10, 11, 13, 15, 17, 18, 19, 20, 21, 22, 23, 24, 25, 26, 27, 29]",171.4445412,4616,1232,1,14,9,1.420957801478707
undo,25,42,0,0,0,22,"[0, 5, 4, 22]",4,20,"[1, 2, 3, 6, 7, 8, 9, 11, 15, 17, 18, 19, 20, 21, 23, 24, 25, 26, 27, 29]",160.2642013,5474,858,1,11,9,1.5771494659680896
undo,25,42,0,0,0,8,"[0, 5, 4, 22, 8]",5,14,"[1, 2, 3, 6, 7, 11, 15, 18, 19, 24, 25, 26, 27, 29]",138.1282577,6355,881,1,10,9,1.5055393955524201
undo,25,42,0,0,0,1,"[0, 5, 4, 22, 8, 1]",6,5,"[2, 7, 19, 26, 27]",89.03650682,7601,1246,1,7,9,1.3547259083637835
undo,25,42,0,0,0,7,"[0, 5, 4, 22, 8, 1, 7]",7,4,"[2, 19, 26, 27]",59.03650682,9078,1477,1,3,9,1.3909715672447451
undo,25,42,0,0,0,26,"[0, 5, 4, 22, 8, 1, 7, 26]",8,1,[27],32.46584631,10306,1228,1,0,9,1.3511825943939393
undo,25,42,0,0,1,27,"[0, 5, 4, 22, 8, 1, 7, 26, 27]",9,0,[],14.43808994,11418,1112,1,0,9,1.3391911688802078
undo,25,42,1,0,0,26,"[0, 5, 4, 22, 8, 1, 7, 26]",8,1,[27],32.46584631,13926,2508,1,0,9,1.3511825943939393
undo,25,42,1,0,0,7,"[0, 5, 4, 22, 8, 1, 7]",7,4,"[2, 19, 26, 27]",59.03650682,14161,235,1,3,9,1.3909715672447451
undo,25,42,1,0,0,1,"[0, 5, 4, 22, 8, 1]",6,5,"[2, 7, 19, 26, 27]",89.03650682,14345,184,1,7,9,1.3547259083637835
undo,25,42,1,0,0,8,"[0, 5, 4, 22, 8]",5,14,"[1, 2, 3, 6, 7, 11, 15, 18, 19, 24, 25, 26, 27, 29]",138.1282577,14544,199,1,10,9,1.5055393955524201
undo,25,42,1,0,0,22,"[0, 5, 4, 22]",4,20,"[1, 2, 3, 6, 7, 8, 9, 11, 15, 17, 18, 19, 20, 21, 23, 24, 25, 26, 27, 29]",160.2642013,14710,166,1,11,9,1.5771494659680896
undo,25,42,1,0,0,4,"[0, 5, 4]",3,23,"[1, 2, 3, 6, 7, 8, 9, 10, 11, 13, 15, 17, 18, 19, 20, 21, 22, 23, 24, 25, 26, 27, 29]",171.4445412,15193,483,1,14,9,1.420957801478707
undo,25,42,1,0,0,5,"[0, 5]",2,28,"[1, 2, 3, 4, 6, 7, 8, 9, 10, 11, 12, 13, 14, 15, 16, 17, 18, 19, 20, 21, 22, 23, 24, 25, 26, 27, 28, 29]",191.2939744,15643,450,1,22,9,1.0
undo,25,42,1,0,0,0,[0],1,29,"[1, 2, 3, 4, 5, 6, 7, 8, 9, 10, 11, 12, 13, 14, 15, 16, 17, 18, 19, 20, 21, 22, 23, 24, 25, 26, 27, 28, 29]",300,16559,916,16,302,9,0.0
undo,25,42,0,0,0,4,"[0, 4]",2,28,"[1, 2, 3, 5, 6, 7, 8, 9, 10, 11, 12, 13, 14, 15, 16, 17, 18, 19, 20, 21, 22, 23, 24, 25, 26, 27, 28, 29]",209.5290102,17641,1082,4,80,9,1.0
undo,25,42,0,0,0,22,"[0, 4, 22]",3,24,"[1, 2, 3, 5, 6, 7, 8, 9, 10, 11, 13, 15, 17, 18, 19, 20, 21, 23, 24, 25, 26, 27, 28, 29]",198.3486703,18388,747,3,53,9,1.1473032812120834
undo,25,42,0,0,0,8,"[0, 4, 22, 8]",4,21,"[1, 2, 3, 5, 6, 7, 10, 11, 15, 17, 18, 19, 20, 21, 23, 24, 25, 26, 27, 28, 29]",176.2127267,19202,814,2,36,9,1.1513227322639639
undo,25,42,0,0,0,1,"[0, 4, 22, 8, 1]",5,12,"[2, 5, 6, 7, 10, 15, 18, 19, 24, 26, 27, 28]",127.1209758,20152,950,2,24,9,1.1101621876186907
undo,25,42,0,0,0,7,"[0, 4, 22, 8, 1, 7]",6,5,"[2, 19, 26, 27, 28]",97.12097583,23774,3622,2,10,9,1.1711274205343067
undo,25,42,0,0,0,26,"[0, 4, 22, 8, 1, 7, 26]",7,3,"[2, 19, 27]",70.55031532,24853,1079,2,1,9,1.1588367913131314
undo,25,42,0,0,0,27,"[0, 4, 22, 8, 1, 7, 26, 27]",8,1,[19],52.52255894,25820,967,1,0,9,1.160587570992885
undo,25,42,0,0,1,19,"[0, 4, 22, 8, 1, 7, 26, 27, 19]",9,0,[],11.51036563,26914,1094,1,0,9,1.3341568614108437
undo,25,42,1,0,0,27,"[0, 4, 22, 8, 1, 7, 26, 27]",8,1,[19],52.52255894,30561,3647,1,0,9,1.160587570992885
undo,25,42,1,0,0,26,"[0, 4, 22, 8, 1, 7, 26]",7,3,"[2, 19, 27]",70.55031532,30878,317,2,1,9,1.1588367913131314
undo,25,42,1,0,0,7,"[0, 4, 22, 8, 1, 7]",6,5,"[2, 19, 26, 27, 28]",97.12097583,31711,833,2,10,9,1.1711274205343067
undo,25,42,0,0,0,2,"[0, 4, 22, 8, 1, 7, 2]",7,3,"[19, 26, 28]",57.90363273,32624,913,3,0,8,1.2635261962495756
undo,25,42,0,0,1,28,"[0, 4, 22, 8, 1, 7, 2, 28]",8,0,[],14.63701742,33606,982,1,0,8,1.2259199264557934
undo,25,42,1,0,0,2,"[0, 4, 22, 8, 1, 7, 2]",7,3,"[19, 26, 28]",57.90363273,34328,722,3,0,8,1.2635261962495756
undo,25,42,1,0,0,7,"[0, 4, 22, 8, 1, 7]",6,5,"[2, 19, 26, 27, 28]",97.12097583,34961,633,2,10,9,1.1711274205343067
undo,25,42,0,0,0,19,"[0, 4, 22, 8, 1, 7, 19]",7,4,"[2, 26, 27, 28]",50.59141533,35891,930,4,0,8,1.153421596096177
undo,25,42,1,0,0,7,"[0, 4, 22, 8, 1, 7]",6,5,"[2, 19, 26, 27, 28]",97.12097583,36744,853,2,10,9,1.1711274205343067
undo,25,42,0,0,0,26,"[0, 4, 22, 8, 1, 7, 26]",7,3,"[2, 19, 27]",70.55031532,37735,991,2,1,9,1.1588367913131314
undo,25,42,0,0,0,27,"[0, 4, 22, 8, 1, 7, 26, 27]",8,1,[19],52.52255894,38558,823,1,0,9,1.160587570992885
undo,25,42,0,0,1,19,"[0, 4, 22, 8, 1, 7, 26, 27, 19]",9,0,[],11.51036563,39517,959,1,0,9,1.3341568614108437
undo,25,42,1,0,0,27,"[0, 4, 22, 8, 1, 7, 26, 27]",8,1,[19],52.52255894,41261,1744,1,0,9,1.160587570992885
undo,25,42,1,0,0,26,"[0, 4, 22, 8, 1, 7, 26]",7,3,"[2, 19, 27]",70.55031532,41477,216,2,1,9,1.1588367913131314
undo,25,42,1,0,0,7,"[0, 4, 22, 8, 1, 7]",6,5,"[2, 19, 26, 27, 28]",97.12097583,41627,150,2,10,9,1.1711274205343067
undo,25,42,1,0,0,1,"[0, 4, 22, 8, 1]",5,12,"[2, 5, 6, 7, 10, 15, 18, 19, 24, 26, 27, 28]",127.1209758,41777,150,2,24,9,1.1101621876186907
undo,25,42,1,0,0,8,"[0, 4, 22, 8]",4,21,"[1, 2, 3, 5, 6, 7, 10, 11, 15, 17, 18, 19, 20, 21, 23, 24, 25, 26, 27, 28, 29]",176.2127267,41927,150,2,36,9,1.1513227322639639
undo,25,42,1,0,0,22,"[0, 4, 22]",3,24,"[1, 2, 3, 5, 6, 7, 8, 9, 10, 11, 13, 15, 17, 18, 19, 20, 21, 23, 24, 25, 26, 27, 28, 29]",198.3486703,42093,166,3,53,9,1.1473032812120834
undo,25,42,1,0,0,4,"[0, 4]",2,28,"[1, 2, 3, 5, 6, 7, 8, 9, 10, 11, 12, 13, 14, 15, 16, 17, 18, 19, 20, 21, 22, 23, 24, 25, 26, 27, 28, 29]",209.5290102,42261,168,4,80,9,1.0
undo,25,42,1,0,0,0,[0],1,29,"[1, 2, 3, 4, 5, 6, 7, 8, 9, 10, 11, 12, 13, 14, 15, 16, 17, 18, 19, 20, 21, 22, 23, 24, 25, 26, 27, 28, 29]",300,42610,349,16,302,9,0.0
undo,25,42,0,0,0,17,"[0, 17]",2,16,"[1, 2, 3, 4, 5, 6, 7, 8, 9, 11, 15, 22, 23, 24, 25, 29]",208.8627409,47453,4843,24,72,7,1.0
undo,25,42,0,0,0,23,"[0, 17, 23]",3,15,"[1, 2, 3, 4, 5, 6, 7, 8, 9, 11, 15, 22, 24, 25, 29]",197.682401,49317,1864,24,42,7,1.2631802345679013
undo,25,42,0,0,0,11,"[0, 17, 23, 11]",4,13,"[1, 2, 3, 4, 5, 6, 7, 8, 15, 22, 24, 25, 29]",152.6712913,50286,969,8,15,7,1.6051012302383594
undo,25,42,0,0,0,24,"[0, 17, 23, 11, 24]",5,4,"[2, 3, 6, 15]",94.6626712,51140,854,1,3,7,1.5670496634014655
undo,25,42,0,0,0,15,"[0, 17, 23, 11, 24, 15]",6,1,[6],81.06120069,51720,580,1,0,7,1.513815800273451
undo,25,42,0,0,1,6,"[0, 17, 23, 11, 24, 15, 6]",7,0,[],31.66484455,52375,655,1,0,7,1.3940852414998803
undo,25,42,1,0,0,15,"[0, 17, 23, 11, 24, 15]",6,1,[6],81.06120069,53160,785,1,0,7,1.513815800273451
undo,25,42,1,0,0,24,"[0, 17, 23, 11, 24]",5,4,"[2, 3, 6, 15]",94.6626712,53361,201,1,3,7,1.5670496634014655
undo,25,42,1,0,0,11,"[0, 17, 23, 11]",4,13,"[1, 2, 3, 4, 5, 6, 7, 8, 15, 22, 24, 25, 29]",152.6712913,53527,166,8,15,7,1.6051012302383594
undo,25,42,1,0,0,23,"[0, 17, 23]",3,15,"[1, 2, 3, 4, 5, 6, 7, 8, 9, 11, 15, 22, 24, 25, 29]",197.682401,53695,168,24,42,7,1.2631802345679013
undo,25,42,1,0,0,17,"[0, 17]",2,16,"[1, 2, 3, 4, 5, 6, 7, 8, 9, 11, 15, 22, 23, 24, 25, 29]",208.8627409,53877,182,24,72,7,1.0
undo,25,42,1,0,0,0,[0],1,29,"[1, 2, 3, 4, 5, 6, 7, 8, 9, 10, 11, 12, 13, 14, 15, 16, 17, 18, 19, 20, 21, 22, 23, 24, 25, 26, 27, 28, 29]",300,54093,216,16,302,9,0.0
undo,25,42,0,0,0,5,"[0, 5]",2,28,"[1, 2, 3, 4, 6, 7, 8, 9, 10, 11, 12, 13, 14, 15, 16, 17, 18, 19, 20, 21, 22, 23, 24, 25, 26, 27, 28, 29]",191.2939744,56670,2577,1,22,9,1.0
undo,25,42,0,0,0,4,"[0, 5, 4]",3,23,"[1, 2, 3, 6, 7, 8, 9, 10, 11, 13, 15, 17, 18, 19, 20, 21, 22, 23, 24, 25, 26, 27, 29]",171.4445412,57422,752,1,14,9,1.420957801478707
undo,25,42,0,0,0,22,"[0, 5, 4, 22]",4,20,"[1, 2, 3, 6, 7, 8, 9, 11, 15, 17, 18, 19, 20, 21, 23, 24, 25, 26, 27, 29]",160.2642013,57970,548,1,11,9,1.5771494659680896
undo,25,42,0,0,0,8,"[0, 5, 4, 22, 8]",5,14,"[1, 2, 3, 6, 7, 11, 15, 18, 19, 24, 25, 26, 27, 29]",138.1282577,58671,701,1,10,9,1.5055393955524201
undo,25,42,0,0,0,1,"[0, 5, 4, 22, 8, 1]",6,5,"[2, 7, 19, 26, 27]",89.03650682,59401,730,1,7,9,1.3547259083637835
undo,25,42,0,0,0,27,"[0, 5, 4, 22, 8, 1, 27]",7,1,[26],30.82138851,61290,1889,1,0,8,1.262358902428909
undo,25,42,1,0,0,1,"[0, 5, 4, 22, 8, 1]",6,5,"[2, 7, 19, 26, 27]",89.03650682,63579,2289,1,7,9,1.3547259083637835
undo,25,42,0,0,0,7,"[0, 5, 4, 22, 8, 1, 7]",7,4,"[2, 19, 26, 27]",59.03650682,64570,991,1,3,9,1.3909715672447451
undo,25,42,0,0,0,26,"[0, 5, 4, 22, 8, 1, 7, 26]",8,1,[27],32.46584631,65481,911,1,0,9,1.3511825943939393
undo,25,42,0,0,1,27,"[0, 5, 4, 22, 8, 1, 7, 26, 27]",9,0,[],14.43808994,66286,805,1,0,9,1.3391911688802078
undo,25,42,0,1,1,27,"[0, 5, 4, 22, 8, 1, 7, 26, 27]",9,0,[],14.43808994,69445,3159,1,0,9,1.3391911688802078
undo,26,36,0,0,0,0,[0],1,24,"[2, 4, 5, 6, 7, 8, 9, 10, 12, 13, 14, 15, 16, 17, 18, 19, 20, 22, 23, 25, 26, 27, 28, 29]",300,207,-1,2,200,10,0.0
undo,26,36,0,0,0,12,"[0, 12]",2,23,"[2, 4, 5, 6, 7, 8, 9, 10, 13, 14, 15, 16, 17, 18, 19, 20, 22, 23, 25, 26, 27, 28, 29]",277.7963967,8252,8045,90,804,9,1.0
undo,26,36,0,0,0,9,"[0, 12, 9]",3,14,"[2, 4, 8, 10, 13, 16, 17, 18, 19, 23, 25, 27, 28, 29]",215.4345494,9799,1547,32,191,9,1.224429481246385
undo,26,36,0,0,0,17,"[0, 12, 9, 17]",4,11,"[2, 4, 8, 10, 13, 16, 18, 19, 23, 25, 27]",189.1857399,10706,907,8,54,9,1.1724571624470872
undo,26,36,0,0,0,19,"[0, 12, 9, 17, 19]",5,8,"[2, 4, 10, 13, 16, 18, 23, 25]",161.2930885,11301,595,3,14,9,1.7995682634090462
undo,26,36,0,0,0,13,"[0, 12, 9, 17, 19, 13]",6,6,"[2, 4, 10, 16, 18, 25]",117.8765018,12132,831,1,4,9,1.8568569502077603
undo,26,36,0,0,0,25,"[0, 12, 9, 17, 19, 13, 25]",7,3,"[2, 10, 16]",97.28524155,12850,718,1,2,9,1.7705865134397563
undo,26,36,0,0,0,2,"[0, 12, 9, 17, 19, 13, 25, 2]",8,1,[16],72.28524155,13634,784,1,0,9,2.0164385832892004
undo,26,36,1,0,0,25,"[0, 12, 9, 17, 19, 13, 25]",7,3,"[2, 10, 16]",97.28524155,17226,3592,1,2,9,1.7705865134397563
undo,26,36,1,0,0,13,"[0, 12, 9, 17, 19, 13]",6,6,"[2, 4, 10, 16, 18, 25]",117.8765018,18008,782,1,4,9,1.8568569502077603
undo,26,36,1,0,0,19,"[0, 12, 9, 17, 19]",5,8,"[2, 4, 10, 13, 16, 18, 23, 25]",161.2930885,19408,1400,3,14,9,1.7995682634090462
undo,26,36,1,0,0,17,"[0, 12, 9, 17]",4,11,"[2, 4, 8, 10, 13, 16, 18, 19, 23, 25, 27]",189.1857399,19928,520,8,54,9,1.1724571624470872
undo,26,36,1,0,0,9,"[0, 12, 9]",3,14,"[2, 4, 8, 10, 13, 16, 17, 18, 19, 23, 25, 27, 28, 29]",215.4345494,20707,779,32,191,9,1.224429481246385
undo,26,36,0,0,0,16,"[0, 12, 9, 16]",4,8,"[2, 10, 13, 17, 18, 19, 23, 25]",168.137615,21590,883,7,26,9,1.235383731443557
undo,26,36,0,0,0,17,"[0, 12, 9, 16, 17]",5,6,"[2, 10, 13, 18, 19, 25]",139.8180105,22189,599,7,14,9,1.6947865799475665
undo,26,36,0,0,0,19,"[0, 12, 9, 16, 17, 19]",6,5,"[2, 10, 13, 18, 25]",111.9253591,22923,734,6,1,9,2.440059772477113
undo,26,36,0,0,0,13,"[0, 12, 9, 16, 17, 19, 13]",7,2,"[2, 25]",68.50877245,23629,706,2,0,9,2.3601901953162883
undo,26,36,0,0,0,25,"[0, 12, 9, 16, 17, 19, 13, 25]",8,1,[2],47.91751216,24499,870,1,0,9,2.2017827249313693
undo,26,36,0,0,1,2,"[0, 12, 9, 16, 17, 19, 13, 25, 2]",9,0,[],22.91751216,25165,666,1,0,9,2.453595116264792
undo,26,36,1,0,0,25,"[0, 12, 9, 16, 17, 19, 13, 25]",8,1,[2],47.91751216,27324,2159,1,0,9,2.2017827249313693
undo,26,36,1,0,0,13,"[0, 12, 9, 16, 17, 19, 13]",7,2,"[2, 25]",68.50877245,28076,752,2,0,9,2.3601901953162883
undo,26,36,1,0,0,19,"[0, 12, 9, 16, 17, 19]",6,5,"[2, 10, 13, 18, 25]",111.9253591,28276,200,6,1,9,2.440059772477113
undo,26,36,1,0,0,17,"[0, 12, 9, 16, 17]",5,6,"[2, 10, 13, 18, 19, 25]",139.8180105,28474,198,7,14,9,1.6947865799475665
undo,26,36,1,0,0,16,"[0, 12, 9, 16]",4,8,"[2, 10, 13, 17, 18, 19, 23, 25]",168.137615,28675,201,7,26,9,1.235383731443557
undo,26,36,1,0,0,9,"[0, 12, 9]",3,14,"[2, 4, 8, 10, 13, 16, 17, 18, 19, 23, 25, 27, 28, 29]",215.4345494,28892,217,32,191,9,1.224429481246385
undo,26,36,1,0,0,12,"[0, 12]",2,23,"[2, 4, 5, 6, 7, 8, 9, 10, 13, 14, 15, 16, 17, 18, 19, 20, 22, 23, 25, 26, 27, 28, 29]",277.7963967,29241,349,90,804,9,1.0
undo,26,36,1,0,0,0,[0],1,24,"[2, 4, 5, 6, 7, 8, 9, 10, 12, 13, 14, 15, 16, 17, 18, 19, 20, 22, 23, 25, 26, 27, 28, 29]",300,29625,384,2,200,10,0.0
undo,26,36,0,0,0,23,"[0, 23]",2,19,"[2, 4, 5, 6, 7, 9, 10, 12, 13, 14, 16, 17, 18, 19, 22, 25, 26, 28, 29]",238.7056283,30617,992,8,97,8,1.0
undo,26,36,0,0,0,28,"[0, 23, 28]",3,7,"[4, 5, 6, 7, 14, 22, 26]",136.1727068,31684,1067,2,9,6,1.0590462005400634
undo,26,36,0,0,0,26,"[0, 23, 28, 26]",4,5,"[5, 6, 7, 14, 22]",89.21527925,32467,783,2,3,6,1.076259035514859
undo,26,36,0,0,0,7,"[0, 23, 28, 26, 7]",5,1,[22],49.05310799,33207,740,1,0,6,1.1808513707958819
undo,26,36,0,0,1,22,"[0, 23, 28, 26, 7, 22]",6,0,[],30.07944203,33745,538,1,0,6,1.2125414810798472
undo,26,36,1,0,0,7,"[0, 23, 28, 26, 7]",5,1,[22],49.05310799,33927,182,1,0,6,1.1808513707958819
undo,26,36,1,0,0,26,"[0, 23, 28, 26]",4,5,"[5, 6, 7, 14, 22]",89.21527925,34109,182,2,3,6,1.076259035514859
undo,26,36,1,0,0,28,"[0, 23, 28]",3,7,"[4, 5, 6, 7, 14, 22, 26]",136.1727068,34310,201,2,9,6,1.0590462005400634
undo,26,36,1,0,0,23,"[0, 23]",2,19,"[2, 4, 5, 6, 7, 9, 10, 12, 13, 14, 16, 17, 18, 19, 22, 25, 26, 28, 29]",238.7056283,34525,215,8,97,8,1.0
undo,26,36,1,0,0,0,[0],1,24,"[2, 4, 5, 6, 7, 8, 9, 10, 12, 13, 14, 15, 16, 17, 18, 19, 20, 22, 23, 25, 26, 27, 28, 29]",300,34960,435,2,200,10,0.0
undo,26,36,0,0,0,12,"[0, 12]",2,23,"[2, 4, 5, 6, 7, 8, 9, 10, 13, 14, 15, 16, 17, 18, 19, 20, 22, 23, 25, 26, 27, 28, 29]",277.7963967,36204,1244,90,804,9,1.0
undo,26,36,0,0,0,13,"[0, 12, 13]",3,18,"[2, 4, 7, 8, 9, 10, 16, 17, 18, 19, 20, 22, 23, 25, 26, 27, 28, 29]",198.6193798,38822,2618,15,125,9,1.033635478646562
undo,26,36,0,0,0,25,"[0, 12, 13, 25]",4,12,"[2, 4, 8, 9, 10, 16, 17, 18, 19, 23, 27, 29]",178.0281195,39637,815,13,50,9,1.0653480204572918
undo,26,36,0,0,0,2,"[0, 12, 13, 25, 2]",5,9,"[4, 8, 9, 10, 16, 17, 18, 19, 27]",153.0281195,41319,1682,13,13,9,1.3014517483013393
undo,26,36,0,0,0,19,"[0, 12, 13, 25, 2, 19]",6,5,"[9, 10, 16, 17, 18]",115.9066972,42216,897,5,2,9,2.3884063284404666
undo,26,36,0,0,0,9,"[0, 12, 13, 25, 2, 19, 9]",7,3,"[16, 17, 18]",100.7739512,42818,602,2,1,9,2.8846088544693567
undo,26,36,0,0,0,17,"[0, 12, 13, 25, 2, 19, 9, 17]",8,1,[16],74.52514171,43555,737,1,0,9,2.3856100497832267
undo,26,36,0,0,1,16,"[0, 12, 13, 25, 2, 19, 9, 17, 16]",9,0,[],46.20553719,44286,731,1,0,9,2.3777330471152243
undo,26,36,1,0,0,17,"[0, 12, 13, 25, 2, 19, 9, 17]",8,1,[16],74.52514171,48226,3940,1,0,9,2.3856100497832267
undo,26,36,1,0,0,9,"[0, 12, 13, 25, 2, 19, 9]",7,3,"[16, 17, 18]",100.7739512,48525,299,2,1,9,2.8846088544693567
undo,26,36,1,0,0,19,"[0, 12, 13, 25, 2, 19]",6,5,"[9, 10, 16, 17, 18]",115.9066972,48676,151,5,2,9,2.3884063284404666
undo,26,36,1,0,0,2,"[0, 12, 13, 25, 2]",5,9,"[4, 8, 9, 10, 16, 17, 18, 19, 27]",153.0281195,48826,150,13,13,9,1.3014517483013393
undo,26,36,1,0,0,25,"[0, 12, 13, 25]",4,12,"[2, 4, 8, 9, 10, 16, 17, 18, 19, 23, 27, 29]",178.0281195,49008,182,13,50,9,1.0653480204572918
undo,26,36,1,0,0,13,"[0, 12, 13]",3,18,"[2, 4, 7, 8, 9, 10, 16, 17, 18, 19, 20, 22, 23, 25, 26, 27, 28, 29]",198.6193798,49208,200,15,125,9,1.033635478646562
undo,26,36,1,0,0,12,"[0, 12]",2,23,"[2, 4, 5, 6, 7, 8, 9, 10, 13, 14, 15, 16, 17, 18, 19, 20, 22, 23, 25, 26, 27, 28, 29]",277.7963967,49561,353,90,804,9,1.0
undo,26,36,1,0,0,0,[0],1,24,"[2, 4, 5, 6, 7, 8, 9, 10, 12, 13, 14, 15, 16, 17, 18, 19, 20, 22, 23, 25, 26, 27, 28, 29]",300,50591,1030,2,200,10,0.0
undo,26,36,0,0,0,18,"[0, 18]",2,21,"[2, 4, 5, 6, 7, 8, 9, 10, 12, 13, 14, 16, 17, 19, 22, 23, 25, 26, 27, 28, 29]",279.6039219,52368,1777,2,110,10,1.0
undo,26,36,0,0,0,12,"[0, 18, 12]",3,19,"[2, 4, 5, 6, 7, 8, 9, 10, 13, 16, 17, 19, 22, 23, 25, 26, 27, 28, 29]",237.0245842,53651,1283,2,86,10,2.836270082716982
undo,26,36,0,0,0,13,"[0, 18, 12, 13]",4,12,"[2, 4, 8, 9, 10, 16, 17, 19, 23, 25, 27, 29]",157.8475674,54916,1265,1,14,10,1.4493282584127862
undo,26,36,0,0,0,25,"[0, 18, 12, 13, 25]",5,10,"[2, 4, 8, 9, 10, 16, 17, 19, 27, 29]",137.2563071,55533,617,1,11,10,1.421464278177825
undo,26,36,0,0,0,2,"[0, 18, 12, 13, 25, 2]",6,5,"[9, 10, 16, 17, 19]",112.2563071,56301,768,1,8,10,1.662490515369399
undo,26,36,0,0,0,19,"[0, 18, 12, 13, 25, 2, 19]",7,3,"[9, 16, 17]",75.1348847,57111,810,1,3,10,2.9173753540154053
undo,26,36,0,0,0,9,"[0, 18, 12, 13, 25, 2, 19, 9]",8,2,"[16, 17]",60.00213875,57652,541,1,1,10,3.4749469749834145
undo,26,36,0,0,0,17,"[0, 18, 12, 13, 25, 2, 19, 9, 17]",9,1,[16],33.75332925,58324,672,1,0,10,2.8169913855566038
undo,26,36,0,0,1,16,"[0, 18, 12, 13, 25, 2, 19, 9, 17, 16]",10,0,[],5.433724734,59701,1377,1,0,10,2.759713350365542
undo,26,36,0,1,1,16,"[0, 18, 12, 13, 25, 2, 19, 9, 17, 16]",10,0,[],5.433724734,60893,1192,1,0,10,2.759713350365542
undo,27,31,0,0,0,0,[0],1,27,"[1, 3, 4, 5, 6, 7, 8, 10, 11, 12, 13, 14, 15, 16, 17, 18, 19, 20, 21, 22, 23, 24, 25, 26, 27, 28, 29]",300,238,-1,2,87,10,0.0
undo,27,31,0,0,0,14,"[0, 14]",2,25,"[1, 3, 5, 6, 7, 8, 10, 11, 12, 13, 15, 16, 17, 18, 19, 20, 21, 22, 23, 24, 25, 26, 27, 28, 29]",263.861378,2650,2412,2,59,10,1.0
undo,27,31,0,0,0,27,"[0, 14, 27]",3,22,"[1, 3, 5, 6, 7, 8, 10, 11, 12, 13, 15, 16, 17, 18, 19, 20, 21, 22, 24, 25, 28, 29]",235.6833724,3483,833,1,39,10,1.5881859159302467
undo,27,31,0,0,0,8,"[0, 14, 27, 8]",4,20,"[1, 3, 5, 6, 7, 10, 11, 12, 13, 16, 17, 18, 19, 20, 21, 22, 24, 25, 28, 29]",224.6380114,4489,1006,1,36,10,2.1665048452331277
undo,27,31,0,0,0,18,"[0, 14, 27, 8, 18]",5,15,"[1, 5, 6, 7, 11, 12, 13, 16, 17, 19, 20, 22, 25, 28, 29]",188.7911147,5834,1345,1,26,10,1.7273375741920205
undo,27,31,0,0,0,17,"[0, 14, 27, 8, 18, 17]",6,13,"[1, 5, 6, 7, 11, 12, 13, 16, 19, 20, 22, 25, 28]",159.584951,6791,957,1,13,10,1.551192427769927
undo,27,31,0,0,0,11,"[0, 14, 27, 8, 18, 17, 11]",7,7,"[5, 12, 16, 19, 22, 25, 28]",118.4753414,7764,973,1,4,10,2.9650760544203494
undo,27,31,0,0,0,5,"[0, 14, 27, 8, 18, 17, 11, 5]",8,2,"[16, 28]",74.79468207,8635,871,1,1,10,2.56711965625205
undo,27,31,0,0,0,28,"[0, 14, 27, 8, 18, 17, 11, 5, 28]",9,1,[16],54.57093365,9701,1066,1,0,10,2.2865510762058148
undo,27,31,0,0,1,16,"[0, 14, 27, 8, 18, 17, 11, 5, 28, 16]",10,0,[],20.95546102,10820,1119,1,0,10,2.089356850786318
undo,27,31,0,1,1,16,"[0, 14, 27, 8, 18, 17, 11, 5, 28, 16]",10,0,[],20.95546102,16225,5405,1,0,10,2.089356850786318
undo,28,45,0,0,0,0,[0],1,24,"[1, 2, 3, 4, 5, 6, 7, 9, 10, 11, 12, 14, 15, 16, 17, 19, 20, 21, 22, 23, 24, 25, 27, 29]",300,189,-1,6,248,10,0.0
undo,28,45,0,0,0,15,"[0, 15]",2,23,"[1, 2, 3, 4, 5, 6, 7, 9, 10, 11, 12, 14, 16, 17, 19, 20, 21, 22, 23, 24, 25, 27, 29]",253.9022777,7290,7101,5,207,10,1.0
undo,28,45,0,0,0,23,"[0, 15, 23]",3,22,"[1, 2, 3, 4, 5, 6, 7, 9, 10, 11, 12, 14, 16, 17, 19, 20, 21, 22, 24, 25, 27, 29]",230.3014303,8104,814,5,163,10,1.0006068457769497
undo,28,45,0,0,0,20,"[0, 15, 23, 20]",4,19,"[1, 2, 3, 5, 6, 7, 9, 10, 11, 12, 14, 16, 17, 19, 21, 22, 24, 25, 29]",188.8647316,8801,697,5,137,10,1.2062119754673604
undo,28,45,0,0,0,7,"[0, 15, 23, 20, 7]",5,14,"[2, 3, 5, 6, 9, 10, 12, 14, 17, 19, 21, 22, 24, 29]",137.2410936,10402,1601,3,38,10,1.2267717168083891
undo,28,45,0,0,0,2,"[0, 15, 23, 20, 7, 2]",6,8,"[3, 6, 10, 12, 19, 22, 24, 29]",99.22793795,11135,733,3,20,10,1.1978549169009853
undo,28,45,0,0,0,3,"[0, 15, 23, 20, 7, 2, 3]",7,5,"[6, 10, 12, 22, 29]",73.90996014,11754,619,2,7,10,1.2603420042999722
undo,28,45,0,0,0,29,"[0, 15, 23, 20, 7, 2, 3, 29]",8,3,"[6, 10, 12]",53.90996014,12268,514,2,1,10,1.527949676112761
undo,28,45,0,0,0,10,"[0, 15, 23, 20, 7, 2, 3, 29, 10]",9,1,[6],32.36930092,12952,684,1,0,10,1.8188082660591487
undo,28,45,0,0,1,6,"[0, 15, 23, 20, 7, 2, 3, 29, 10, 6]",10,0,[],6.120491419,13801,849,1,0,10,1.7062675391073039
undo,28,45,1,0,0,10,"[0, 15, 23, 20, 7, 2, 3, 29, 10]",9,1,[6],32.36930092,16183,2382,1,0,10,1.8188082660591487
undo,28,45,1,0,0,29,"[0, 15, 23, 20, 7, 2, 3, 29]",8,3,"[6, 10, 12]",53.90996014,16629,446,2,1,10,1.527949676112761
undo,28,45,1,0,0,3,"[0, 15, 23, 20, 7, 2, 3]",7,5,"[6, 10, 12, 22, 29]",73.90996014,16862,233,2,7,10,1.2603420042999722
undo,28,45,1,0,0,2,"[0, 15, 23, 20, 7, 2]",6,8,"[3, 6, 10, 12, 19, 22, 24, 29]",99.22793795,17095,233,3,20,10,1.1978549169009853
undo,28,45,1,0,0,7,"[0, 15, 23, 20, 7]",5,14,"[2, 3, 5, 6, 9, 10, 12, 14, 17, 19, 21, 22, 24, 29]",137.2410936,17479,384,3,38,10,1.2267717168083891
undo,28,45,1,0,0,20,"[0, 15, 23, 20]",4,19,"[1, 2, 3, 5, 6, 7, 9, 10, 11, 12, 14, 16, 17, 19, 21, 22, 24, 25, 29]",188.8647316,18545,1066,5,137,10,1.2062119754673604
undo,28,45,0,0,0,10,"[0, 15, 23, 20, 10]",5,12,"[2, 3, 6, 7, 9, 12, 14, 17, 22, 24, 25, 29]",132.784432,19086,541,1,54,10,1.1363907740691004
undo,28,45,0,0,0,6,"[0, 15, 23, 20, 10, 6]",6,7,"[2, 3, 7, 12, 22, 24, 29]",106.5356225,19603,517,20,9,9,1.12325622461992
undo,28,45,0,0,0,12,"[0, 15, 23, 20, 10, 6, 12]",7,4,"[2, 3, 22, 29]",86.4110107,20352,749,6,1,9,1.1241525752631578
undo,28,45,0,0,0,22,"[0, 15, 23, 20, 10, 6, 12, 22]",8,2,"[3, 29]",54.83570389,21055,703,2,0,9,1.1537558546242075
undo,28,45,0,0,1,3,"[0, 15, 23, 20, 10, 6, 12, 22, 3]",9,0,[],11.37307626,22204,1149,1,0,9,1.6089547146201597
undo,28,45,1,0,0,22,"[0, 15, 23, 20, 10, 6, 12, 22]",8,2,"[3, 29]",54.83570389,22912,708,2,0,9,1.1537558546242075
undo,28,45,1,0,0,12,"[0, 15, 23, 20, 10, 6, 12]",7,4,"[2, 3, 22, 29]",86.4110107,23146,234,6,1,9,1.1241525752631578
undo,28,45,1,0,0,6,"[0, 15, 23, 20, 10, 6]",6,7,"[2, 3, 7, 12, 22, 24, 29]",106.5356225,23345,199,20,9,9,1.12325622461992
undo,28,45,1,0,0,10,"[0, 15, 23, 20, 10]",5,12,"[2, 3, 6, 7, 9, 12, 14, 17, 22, 24, 25, 29]",132.784432,23549,204,1,54,10,1.1363907740691004
undo,28,45,1,0,0,20,"[0, 15, 23, 20]",4,19,"[1, 2, 3, 5, 6, 7, 9, 10, 11, 12, 14, 16, 17, 19, 21, 22, 24, 25, 29]",188.8647316,23995,446,5,137,10,1.2062119754673604
undo,28,45,0,0,0,7,"[0, 15, 23, 20, 7]",5,14,"[2, 3, 5, 6, 9, 10, 12, 14, 17, 19, 21, 22, 24, 29]",137.2410936,24636,641,3,38,10,1.2267717168083891
undo,28,45,0,0,0,2,"[0, 15, 23, 20, 7, 2]",6,8,"[3, 6, 10, 12, 19, 22, 24, 29]",99.22793795,25571,935,3,20,10,1.1978549169009853
undo,28,45,0,0,0,3,"[0, 15, 23, 20, 7, 2, 3]",7,5,"[6, 10, 12, 22, 29]",73.90996014,26571,1000,2,7,10,1.2603420042999722
undo,28,45,0,0,0,29,"[0, 15, 23, 20, 7, 2, 3, 29]",8,3,"[6, 10, 12]",53.90996014,27154,583,2,1,10,1.527949676112761
undo,28,45,0,0,0,6,"[0, 15, 23, 20, 7, 2, 3, 29, 6]",9,1,[12],25.74970446,29725,2571,1,0,10,1.5923001203110776
undo,28,45,0,0,1,12,"[0, 15, 23, 20, 7, 2, 3, 29, 6, 12]",10,0,[],5.625092666,30930,1205,1,0,10,1.5493416175473684
undo,28,45,0,1,1,12,"[0, 15, 23, 20, 7, 2, 3, 29, 6, 12]",10,0,[],5.625092666,32111,1181,1,0,10,1.5493416175473684
undo,29,8,0,0,0,0,[0],1,29,"[1, 2, 3, 4, 5, 6, 7, 8, 9, 10, 11, 12, 13, 14, 15, 16, 17, 18, 19, 20, 21, 22, 23, 24, 25, 26, 27, 28, 29]",300,192,-1,10,149,9,0.0
undo,29,8,0,0,0,5,"[0, 5]",2,28,"[1, 2, 3, 4, 6, 7, 8, 9, 10, 11, 12, 13, 14, 15, 16, 17, 18, 19, 20, 21, 22, 23, 24, 25, 26, 27, 28, 29]",254.5137383,9626,9434,10,100,9,1.0
undo,29,8,0,0,0,25,"[0, 5, 25]",3,20,"[1, 2, 3, 4, 6, 11, 12, 14, 15, 16, 17, 18, 19, 20, 21, 22, 23, 24, 28, 29]",215.3091468,11218,1592,4,42,9,1.2272747879909065
undo,29,8,0,0,0,1,"[0, 5, 25, 1]",4,17,"[3, 4, 6, 11, 12, 14, 15, 16, 17, 18, 20, 21, 22, 23, 24, 28, 29]",190.3091468,12988,1770,3,24,9,1.1770245007593956
undo,29,8,0,0,0,23,"[0, 5, 25, 1, 23]",5,15,"[3, 4, 6, 11, 14, 15, 16, 17, 18, 20, 21, 22, 24, 28, 29]",167.2874179,13672,684,1,14,9,1.141996583852372
undo,29,8,0,0,0,14,"[0, 5, 25, 1, 23, 14]",6,5,"[11, 15, 17, 18, 28]",98.40345751,14788,1116,2,3,8,2.359509060380308
undo,29,8,0,0,0,17,"[0, 5, 25, 1, 23, 14, 17]",7,1,[11],61.38994646,15529,741,1,0,8,2.1845828320464817
undo,29,8,0,0,1,11,"[0, 5, 25, 1, 23, 14, 17, 11]",8,0,[],36.21058984,16290,761,1,0,8,2.014892814041164
undo,29,8,1,0,0,17,"[0, 5, 25, 1, 23, 14, 17]",7,1,[11],61.38994646,18246,1956,1,0,8,2.1845828320464817
undo,29,8,1,0,0,14,"[0, 5, 25, 1, 23, 14]",6,5,"[11, 15, 17, 18, 28]",98.40345751,18462,216,2,3,8,2.359509060380308
undo,29,8,1,0,0,23,"[0, 5, 25, 1, 23]",5,15,"[3, 4, 6, 11, 14, 15, 16, 17, 18, 20, 21, 22, 24, 28, 29]",167.2874179,18647,185,1,14,9,1.141996583852372
undo,29,8,1,0,0,1,"[0, 5, 25, 1]",4,17,"[3, 4, 6, 11, 12, 14, 15, 16, 17, 18, 20, 21, 22, 23, 24, 28, 29]",190.3091468,19496,849,3,24,9,1.1770245007593956
undo,29,8,0,0,0,14,"[0, 5, 25, 1, 14]",5,12,"[4, 6, 11, 15, 16, 17, 18, 20, 22, 23, 24, 28]",134.2288472,20420,924,2,7,9,1.9402045895737055
undo,29,8,0,0,0,17,"[0, 5, 25, 1, 14, 17]",6,6,"[11, 15, 16, 18, 24, 28]",97.21533615,21386,966,2,5,9,1.8565852053453542
undo,29,8,0,0,0,11,"[0, 5, 25, 1, 14, 17, 11]",7,4,"[15, 16, 24, 28]",72.03597953,22287,901,2,2,9,1.7412490760199053
undo,29,8,0,0,0,24,"[0, 5, 25, 1, 14, 17, 11, 24]",8,1,[15],34.8203914,23038,751,1,0,9,1.6105839855620734
undo,29,8,0,0,1,15,"[0, 5, 25, 1, 14, 17, 11, 24, 15]",9,0,[],18.05733678,23870,832,1,0,9,1.671962547892534
undo,29,8,0,1,1,15,"[0, 5, 25, 1, 14, 17, 11, 24, 15]",9,0,[],18.05733678,33864,9994,1,0,9,1.671962547892534
undo,30,18,0,0,0,0,[0],1,28,"[1, 2, 3, 4, 5, 6, 7, 8, 9, 10, 11, 12, 13, 14, 16, 17, 18, 19, 20, 21, 22, 23, 24, 25, 26, 27, 28, 29]",300,189,-1,3,136,10,0.0
undo,30,18,0,0,0,28,"[0, 28]",2,16,"[1, 3, 5, 7, 8, 9, 12, 13, 14, 16, 20, 23, 24, 25, 26, 27]",236.4311397,1453,1264,2,19,10,1.0
undo,30,18,0,0,0,7,"[0, 28, 7]",3,15,"[1, 3, 5, 8, 9, 12, 13, 14, 16, 20, 23, 24, 25, 26, 27]",214.4084242,2837,1384,2,17,10,1.4345180696367563
undo,30,18,0,0,0,25,"[0, 28, 7, 25]",4,13,"[1, 3, 5, 8, 9, 12, 13, 14, 16, 20, 23, 26, 27]",186.6055466,3401,564,2,15,10,1.8896451241781882
undo,30,18,0,0,0,8,"[0, 28, 7, 25, 8]",5,10,"[3, 5, 9, 12, 13, 14, 16, 23, 26, 27]",149.551532,4039,638,2,10,10,1.590467437592877
undo,30,18,0,0,0,3,"[0, 28, 7, 25, 8, 3]",6,6,"[5, 12, 13, 14, 23, 27]",121.4801943,4624,585,1,10,9,1.4587755974793148
undo,30,18,0,0,0,14,"[0, 28, 7, 25, 8, 3, 14]",7,4,"[5, 12, 13, 27]",91.39697637,5376,752,4,0,8,1.8606737724243565
undo,30,18,0,0,1,13,"[0, 28, 7, 25, 8, 3, 14, 13]",8,0,[],72.42331041,6202,826,1,0,8,2.4208916262893254
undo,30,18,1,0,0,14,"[0, 28, 7, 25, 8, 3, 14]",7,4,"[5, 12, 13, 27]",91.39697637,7697,1495,4,0,8,1.8606737724243565
undo,30,18,1,0,0,3,"[0, 28, 7, 25, 8, 3]",6,6,"[5, 12, 13, 14, 23, 27]",121.4801943,7946,249,1,10,9,1.4587755974793148
undo,30,18,1,0,0,8,"[0, 28, 7, 25, 8]",5,10,"[3, 5, 9, 12, 13, 14, 16, 23, 26, 27]",149.551532,8461,515,2,10,10,1.590467437592877
undo,30,18,1,0,0,25,"[0, 28, 7, 25]",4,13,"[1, 3, 5, 8, 9, 12, 13, 14, 16, 20, 23, 26, 27]",186.6055466,8945,484,2,15,10,1.8896451241781882
undo,30,18,1,0,0,7,"[0, 28, 7]",3,15,"[1, 3, 5, 8, 9, 12, 13, 14, 16, 20, 23, 24, 25, 26, 27]",214.4084242,10935,1990,2,17,10,1.4345180696367563
undo,30,18,1,0,0,28,"[0, 28]",2,16,"[1, 3, 5, 7, 8, 9, 12, 13, 14, 16, 20, 23, 24, 25, 26, 27]",236.4311397,11296,361,2,19,10,1.0
undo,30,18,1,0,0,0,[0],1,28,"[1, 2, 3, 4, 5, 6, 7, 8, 9, 10, 11, 12, 13, 14, 16, 17, 18, 19, 20, 21, 22, 23, 24, 25, 26, 27, 28, 29]",300,11611,315,3,136,10,0.0
undo,30,18,0,0,0,26,"[0, 26]",2,27,"[1, 2, 3, 4, 5, 6, 7, 8, 9, 10, 11, 12, 13, 14, 16, 17, 18, 19, 20, 21, 22, 23, 24, 25, 27, 28, 29]",258.0238163,12205,594,1,61,10,1.0
undo,30,18,0,0,0,23,"[0, 26, 23]",3,24,"[1, 2, 3, 4, 5, 6, 7, 8, 9, 10, 12, 13, 14, 16, 17, 18, 19, 20, 21, 24, 25, 27, 28, 29]",239.422741,12902,697,1,60,10,1.576763070488403
undo,30,18,0,0,0,14,"[0, 26, 23, 14]",4,11,"[3, 5, 7, 8, 9, 12, 13, 16, 25, 27, 28]",147.9405023,14133,1231,5,34,9,1.3563231936668922
undo,30,18,0,0,0,3,"[0, 26, 23, 14, 3]",5,8,"[5, 7, 8, 12, 13, 25, 27, 28]",117.8572844,15789,1656,1,11,9,1.4883802261268926
undo,30,18,0,0,0,8,"[0, 26, 23, 14, 3, 8]",6,5,"[5, 7, 13, 25, 28]",89.78594672,16622,833,1,5,9,2.222279901622223
undo,30,18,0,0,0,13,"[0, 26, 23, 14, 3, 8, 13]",7,1,[25],68.69092361,17406,784,1,0,8,2.460595622188341
undo,30,18,0,0,1,25,"[0, 26, 23, 14, 3, 8, 13, 25]",8,0,[],23.41399792,18273,867,1,0,8,4.6091265893117335
undo,30,18,1,0,0,13,"[0, 26, 23, 14, 3, 8, 13]",7,1,[25],68.69092361,22913,4640,1,0,8,2.460595622188341
undo,30,18,1,0,0,8,"[0, 26, 23, 14, 3, 8]",6,5,"[5, 7, 13, 25, 28]",89.78594672,23346,433,1,5,9,2.222279901622223
undo,30,18,1,0,0,3,"[0, 26, 23, 14, 3]",5,8,"[5, 7, 8, 12, 13, 25, 27, 28]",117.8572844,23848,502,1,11,9,1.4883802261268926
undo,30,18,1,0,0,14,"[0, 26, 23, 14]",4,11,"[3, 5, 7, 8, 9, 12, 13, 16, 25, 27, 28]",147.9405023,24630,782,5,34,9,1.3563231936668922
undo,30,18,0,0,0,13,"[0, 26, 23, 14, 13]",5,10,"[3, 5, 7, 8, 9, 12, 16, 25, 27, 28]",128.9668364,25540,910,4,16,9,1.8193987895815067
undo,30,18,0,0,0,25,"[0, 26, 23, 14, 13, 25]",6,4,"[3, 7, 8, 28]",83.68991067,26355,815,3,1,8,3.6046675419926917
undo,30,18,0,0,0,7,"[0, 26, 23, 14, 13, 25, 7]",7,1,[28],55.88703312,27102,747,1,0,8,4.091342620449793
undo,30,18,0,0,1,28,"[0, 26, 23, 14, 13, 25, 7, 28]",8,0,[],33.86431758,27970,868,1,0,8,4.186573129654827
undo,30,18,1,0,0,7,"[0, 26, 23, 14, 13, 25, 7]",7,1,[28],55.88703312,29465,1495,1,0,8,4.091342620449793
undo,30,18,1,0,0,25,"[0, 26, 23, 14, 13, 25]",6,4,"[3, 7, 8, 28]",83.68991067,29747,282,3,1,8,3.6046675419926917
undo,30,18,1,0,0,13,"[0, 26, 23, 14, 13]",5,10,"[3, 5, 7, 8, 9, 12, 16, 25, 27, 28]",128.9668364,30130,383,4,16,9,1.8193987895815067
undo,30,18,0,0,0,8,"[0, 26, 23, 14, 13, 8]",6,7,"[3, 5, 7, 12, 25, 27, 28]",107.8718133,30901,771,3,9,9,2.0310849877854182
undo,30,18,0,0,0,25,"[0, 26, 23, 14, 13, 8, 25]",7,3,"[3, 7, 28]",70.81779863,31593,692,1,2,9,3.8191729523098896
undo,30,18,0,0,0,7,"[0, 26, 23, 14, 13, 8, 25, 7]",8,1,[28],43.01492108,32242,649,1,0,9,4.307079708395413
undo,30,18,0,0,1,28,"[0, 26, 23, 14, 13, 8, 25, 7, 28]",9,0,[],20.99220553,33193,951,1,0,9,4.3890639716960305
undo,30,18,0,1,1,28,"[0, 26, 23, 14, 13, 8, 25, 7, 28]",9,0,[],20.99220553,34429,1236,1,0,9,4.3890639716960305
undo,31,35,0,0,0,0,[0],1,29,"[1, 2, 3, 4, 5, 6, 7, 8, 9, 10, 11, 12, 13, 14, 15, 16, 17, 18, 19, 20, 21, 22, 23, 24, 25, 26, 27, 28, 29]",300,158,-1,5,236,11,0.0
undo,31,35,0,0,0,27,"[0, 27]",2,27,"[1, 2, 4, 5, 6, 7, 8, 9, 10, 11, 12, 13, 14, 15, 16, 17, 18, 19, 20, 21, 22, 23, 24, 25, 26, 28, 29]",278.7867966,3366,3208,5,144,11,1.0
undo,31,35,0,0,0,17,"[0, 27, 17]",3,24,"[1, 2, 4, 5, 6, 7, 8, 9, 10, 11, 12, 13, 15, 16, 18, 19, 20, 21, 23, 24, 25, 26, 28, 29]",230.2790652,4085,719,2,49,11,1.757918918843928
undo,31,35,0,0,0,24,"[0, 27, 17, 24]",4,21,"[1, 2, 4, 5, 6, 7, 8, 9, 10, 12, 15, 16, 18, 19, 20, 21, 23, 25, 26, 28, 29]",218.5743653,4609,524,2,36,11,2.625267828391568
undo,31,35,0,0,0,1,"[0, 27, 17, 24, 1]",5,17,"[2, 4, 5, 6, 9, 10, 15, 16, 18, 19, 20, 21, 23, 25, 26, 28, 29]",201.4571225,5102,493,2,25,11,2.0614942962498013
undo,31,35,0,0,0,15,"[0, 27, 17, 24, 1, 15]",6,15,"[2, 4, 5, 6, 9, 10, 16, 18, 19, 20, 23, 25, 26, 28, 29]",178.6098032,6467,1365,2,14,11,2.184110774824693
undo,31,35,0,0,0,23,"[0, 27, 17, 24, 1, 15, 23]",7,6,"[5, 6, 9, 18, 19, 25]",118.1697503,7534,1067,2,10,11,1.7102124382771557
undo,31,35,0,0,0,6,"[0, 27, 17, 24, 1, 15, 23, 6]",8,3,"[9, 18, 25]",72.51890144,8550,1016,3,1,10,1.5042888107168604
undo,31,35,0,0,0,25,"[0, 27, 17, 24, 1, 15, 23, 6, 25]",9,1,[18],48.49807714,10683,2133,1,0,10,1.5530432893576327
undo,31,35,0,0,1,18,"[0, 27, 17, 24, 1, 15, 23, 6, 25, 18]",10,0,[],14.66022851,11485,802,1,0,10,2.218277116594728
undo,31,35,1,0,0,25,"[0, 27, 17, 24, 1, 15, 23, 6, 25]",9,1,[18],48.49807714,13392,1907,1,0,10,1.5530432893576327
undo,31,35,1,0,0,6,"[0, 27, 17, 24, 1, 15, 23, 6]",8,3,"[9, 18, 25]",72.51890144,13810,418,3,1,10,1.5042888107168604
undo,31,35,1,0,0,23,"[0, 27, 17, 24, 1, 15, 23]",7,6,"[5, 6, 9, 18, 19, 25]",118.1697503,14227,417,2,10,11,1.7102124382771557
undo,31,35,0,0,0,9,"[0, 27, 17, 24, 1, 15, 23, 9]",8,3,"[6, 18, 25]",80.52668983,15016,789,2,2,11,1.95235919029447
undo,31,35,0,0,0,18,"[0, 27, 17, 24, 1, 15, 23, 9, 18]",9,2,"[6, 25]",60.50170544,15518,502,2,0,11,1.8618981276661277
undo,31,35,0,0,0,25,"[0, 27, 17, 24, 1, 15, 23, 9, 18, 25]",10,1,[6],26.6638568,17034,1516,1,0,11,1.6878712421294642
undo,31,35,0,0,1,6,"[0, 27, 17, 24, 1, 15, 23, 9, 18, 25, 6]",11,0,[],2.643032506,17839,805,1,0,11,1.9663645103768457
undo,31,35,0,1,1,6,"[0, 27, 17, 24, 1, 15, 23, 9, 18, 25, 6]",11,0,[],2.643032506,18692,853,1,0,11,1.9663645103768457
undo,32,16,0,0,0,0,[0],1,29,"[1, 2, 3, 4, 5, 6, 7, 8, 9, 10, 11, 12, 13, 14, 15, 16, 17, 18, 19, 20, 21, 22, 23, 24, 25, 26, 27, 28, 29]",300,168,-1,13,161,9,0.0
undo,32,16,0,0,0,28,"[0, 28]",2,27,"[1, 2, 3, 4, 5, 7, 8, 9, 10, 11, 12, 13, 14, 15, 16, 17, 18, 19, 20, 21, 22, 23, 24, 25, 26, 27, 29]",284.3475242,3053,2885,11,92,9,1.0
undo,32,16,0,0,0,17,"[0, 28, 17]",3,26,"[1, 2, 3, 4, 5, 7, 8, 9, 10, 11, 12, 13, 14, 15, 16, 18, 19, 20, 21, 22, 23, 24, 25, 26, 27, 29]",219.1555001,3862,809,10,46,9,1.3773866384707543
undo,32,16,0,0,0,16,"[0, 28, 17, 16]",4,25,"[1, 2, 3, 4, 5, 7, 8, 9, 10, 11, 12, 13, 14, 15, 18, 19, 20, 21, 22, 23, 24, 25, 26, 27, 29]",190.8358956,4837,975,10,34,9,1.3209953830681203
undo,32,16,0,0,0,8,"[0, 28, 17, 16, 8]",5,12,"[3, 4, 5, 9, 12, 13, 15, 19, 20, 21, 25, 29]",142.4623491,5554,717,6,19,9,1.2700932705506198
undo,32,16,0,0,0,20,"[0, 28, 17, 16, 8, 20]",6,6,"[4, 5, 9, 12, 15, 25]",84.6869218,6472,918,4,4,9,1.1899382910703262
undo,32,16,0,0,0,25,"[0, 28, 17, 16, 8, 20, 25]",7,3,"[5, 9, 15]",72.03781116,7073,601,2,2,9,1.2372268181049477
undo,32,16,0,0,0,9,"[0, 28, 17, 16, 8, 20, 25, 9]",8,2,"[5, 15]",59.23156268,7836,763,2,0,9,1.221922950237529
undo,32,16,0,0,1,15,"[0, 28, 17, 16, 8, 20, 25, 9, 15]",9,0,[],20.334262,8602,766,1,0,9,1.318239760375411
undo,32,16,1,0,0,9,"[0, 28, 17, 16, 8, 20, 25, 9]",8,2,"[5, 15]",59.23156268,9796,1194,2,0,9,1.221922950237529
undo,32,16,1,0,0,25,"[0, 28, 17, 16, 8, 20, 25]",7,3,"[5, 9, 15]",72.03781116,10312,516,2,2,9,1.2372268181049477
undo,32,16,1,0,0,20,"[0, 28, 17, 16, 8, 20]",6,6,"[4, 5, 9, 12, 15, 25]",84.6869218,14146,3834,4,4,9,1.1899382910703262
undo,32,16,1,0,0,8,"[0, 28, 17, 16, 8]",5,12,"[3, 4, 5, 9, 12, 13, 15, 19, 20, 21, 25, 29]",142.4623491,14814,668,6,19,9,1.2700932705506198
undo,32,16,1,0,0,16,"[0, 28, 17, 16]",4,25,"[1, 2, 3, 4, 5, 7, 8, 9, 10, 11, 12, 13, 14, 15, 18, 19, 20, 21, 22, 23, 24, 25, 26, 27, 29]",190.8358956,15182,368,10,34,9,1.3209953830681203
undo,32,16,1,0,0,17,"[0, 28, 17]",3,26,"[1, 2, 3, 4, 5, 7, 8, 9, 10, 11, 12, 13, 14, 15, 16, 18, 19, 20, 21, 22, 23, 24, 25, 26, 27, 29]",219.1555001,15446,264,10,46,9,1.3773866384707543
undo,32,16,1,0,0,28,"[0, 28]",2,27,"[1, 2, 3, 4, 5, 7, 8, 9, 10, 11, 12, 13, 14, 15, 16, 17, 18, 19, 20, 21, 22, 23, 24, 25, 26, 27, 29]",284.3475242,15798,352,11,92,9,1.0
undo,32,16,0,0,0,21,"[0, 28, 21]",3,26,"[1, 2, 3, 4, 5, 7, 8, 9, 10, 11, 12, 13, 14, 15, 16, 17, 18, 19, 20, 22, 23, 24, 25, 26, 27, 29]",205.0380039,16774,976,1,25,9,1.1196822789757879
undo,32,16,0,0,0,8,"[0, 28, 21, 8]",4,17,"[2, 3, 4, 5, 9, 12, 13, 14, 15, 16, 17, 19, 20, 22, 25, 27, 29]",155.7835625,17952,1178,1,16,9,1.1626955570627597
undo,32,16,0,0,0,20,"[0, 28, 21, 8, 20]",5,8,"[3, 4, 5, 9, 12, 13, 15, 25]",98.0081352,19062,1110,1,7,9,1.1163179516060644
undo,32,16,0,0,0,25,"[0, 28, 21, 8, 20, 25]",6,6,"[3, 4, 5, 9, 12, 15]",85.35902455,19693,631,1,4,9,1.1649281507703637
undo,32,16,0,0,0,9,"[0, 28, 21, 8, 20, 25, 9]",7,2,"[5, 15]",72.55277608,20778,1085,1,1,9,1.1543165124516757
undo,32,16,0,0,0,15,"[0, 28, 21, 8, 20, 25, 9, 15]",8,1,[5],33.6554754,22256,1478,1,0,9,1.2554485393774149
undo,32,16,0,0,1,5,"[0, 28, 21, 8, 20, 25, 9, 15, 5]",9,0,[],4.227597463,23544,1288,1,0,9,1.5638611072701558
undo,32,16,0,1,1,5,"[0, 28, 21, 8, 20, 25, 9, 15, 5]",9,0,[],4.227597463,31346,7802,1,0,9,1.5638611072701558
undo,33,21,0,0,0,0,[0],1,29,"[1, 2, 3, 4, 5, 6, 7, 8, 9, 10, 11, 12, 13, 14, 15, 16, 17, 18, 19, 20, 21, 22, 23, 24, 25, 26, 27, 28, 29]",300,167,-1,84,830,9,0.0
undo,33,21,0,0,0,21,"[0, 21]",2,22,"[1, 3, 4, 6, 8, 9, 10, 11, 12, 14, 15, 16, 17, 18, 20, 22, 23, 24, 25, 26, 27, 29]",210.1111798,5469,5302,1,69,9,1.0
undo,33,21,0,0,0,14,"[0, 21, 14]",3,15,"[1, 4, 6, 8, 9, 15, 16, 17, 18, 20, 22, 23, 24, 25, 29]",184.4986828,6499,1030,35,96,8,1.0083702391721483
undo,33,21,0,0,0,4,"[0, 21, 14, 4]",4,13,"[1, 8, 9, 15, 16, 17, 18, 20, 22, 23, 24, 25, 29]",170.3565472,6940,441,20,39,8,1.0135821167776475
undo,33,21,0,0,0,16,"[0, 21, 14, 4, 16]",5,7,"[8, 15, 17, 23, 24, 25, 29]",125.758341,7772,832,4,6,8,1.0675217597413178
undo,33,21,0,0,0,8,"[0, 21, 14, 4, 16, 8]",6,3,"[15, 23, 24]",107.1572657,8367,595,3,1,8,1.0643903127717425
undo,33,21,0,0,0,15,"[0, 21, 14, 4, 16, 8, 15]",7,2,"[23, 24]",82.15726573,8849,482,2,0,8,1.29402645910376
undo,33,21,0,0,1,24,"[0, 21, 14, 4, 16, 8, 15, 24]",8,0,[],36.4516862,9607,758,1,0,8,1.3251667405154008
undo,33,21,1,0,0,15,"[0, 21, 14, 4, 16, 8, 15]",7,2,"[23, 24]",82.15726573,10977,1370,2,0,8,1.29402645910376
undo,33,21,1,0,0,8,"[0, 21, 14, 4, 16, 8]",6,3,"[15, 23, 24]",107.1572657,11159,182,3,1,8,1.0643903127717425
undo,33,21,1,0,0,16,"[0, 21, 14, 4, 16]",5,7,"[8, 15, 17, 23, 24, 25, 29]",125.758341,11342,183,4,6,8,1.0675217597413178
undo,33,21,1,0,0,4,"[0, 21, 14, 4]",4,13,"[1, 8, 9, 15, 16, 17, 18, 20, 22, 23, 24, 25, 29]",170.3565472,11642,300,20,39,8,1.0135821167776475
undo,33,21,1,0,0,14,"[0, 21, 14]",3,15,"[1, 4, 6, 8, 9, 15, 16, 17, 18, 20, 22, 23, 24, 25, 29]",184.4986828,11943,301,35,96,8,1.0083702391721483
undo,33,21,1,0,0,21,"[0, 21]",2,22,"[1, 3, 4, 6, 8, 9, 10, 11, 12, 14, 15, 16, 17, 18, 20, 22, 23, 24, 25, 26, 27, 29]",210.1111798,12258,315,1,69,9,1.0
undo,33,21,1,0,0,0,[0],1,29,"[1, 2, 3, 4, 5, 6, 7, 8, 9, 10, 11, 12, 13, 14, 15, 16, 17, 18, 19, 20, 21, 22, 23, 24, 25, 26, 27, 28, 29]",300,12893,635,84,830,9,0.0
undo,33,21,0,0,0,23,"[0, 23]",2,23,"[1, 2, 3, 4, 6, 7, 8, 9, 10, 11, 12, 14, 15, 16, 17, 18, 20, 21, 22, 24, 25, 27, 29]",200.9798,13919,1026,24,160,8,1.0
undo,33,21,1,0,0,0,[0],1,29,"[1, 2, 3, 4, 5, 6, 7, 8, 9, 10, 11, 12, 13, 14, 15, 16, 17, 18, 19, 20, 21, 22, 23, 24, 25, 26, 27, 28, 29]",300,15492,1573,84,830,9,0.0
undo,33,21,0,0,0,25,"[0, 25]",2,26,"[1, 2, 3, 4, 5, 6, 7, 8, 9, 10, 11, 12, 13, 14, 15, 16, 17, 18, 20, 21, 22, 23, 24, 26, 27, 29]",240.1836143,16435,943,30,238,9,1.0
undo,33,21,0,0,0,23,"[0, 25, 23]",3,21,"[1, 2, 4, 6, 7, 8, 9, 10, 11, 12, 14, 15, 16, 17, 18, 20, 21, 22, 24, 27, 29]",196.8592562,17348,913,14,80,9,1.0416131642057598
undo,33,21,0,0,0,21,"[0, 25, 23, 21]",4,14,"[1, 4, 6, 8, 9, 14, 15, 16, 17, 18, 20, 22, 24, 29]",167.2450705,18187,839,10,25,9,1.4768792067751173
undo,33,21,0,0,0,14,"[0, 25, 23, 21, 14]",5,10,"[4, 8, 9, 15, 16, 17, 18, 22, 24, 29]",141.6325735,18960,773,8,13,9,1.3826076066332742
undo,33,21,0,0,0,4,"[0, 25, 23, 21, 14, 4]",6,7,"[8, 15, 16, 17, 18, 24, 29]",127.4904379,19860,900,8,3,9,1.3487191473328533
undo,33,21,0,0,0,16,"[0, 25, 23, 21, 14, 4, 16]",7,3,"[8, 15, 24]",82.89223163,20755,895,4,1,9,1.3301484172843694
undo,33,21,0,0,0,8,"[0, 25, 23, 21, 14, 4, 16, 8]",8,2,"[15, 24]",64.2911564,21806,1051,2,0,9,1.3009886562393016
undo,33,21,0,0,1,15,"[0, 25, 23, 21, 14, 4, 16, 8, 15]",9,0,[],39.2911564,22803,997,1,0,9,1.5486591410600183
undo,33,21,1,0,0,8,"[0, 25, 23, 21, 14, 4, 16, 8]",8,2,"[15, 24]",64.2911564,25128,2325,2,0,9,1.3009886562393016
undo,33,21,0,0,1,24,"[0, 25, 23, 21, 14, 4, 16, 8, 24]",9,0,[],3.233806307,27601,2473,1,0,9,1.4921920156535446
undo,33,21,0,1,1,24,"[0, 25, 23, 21, 14, 4, 16, 8, 24]",9,0,[],3.233806307,35892,8291,1,0,9,1.4921920156535446
undo,34,30,0,0,0,0,[0],1,19,"[3, 4, 5, 7, 9, 11, 16, 17, 18, 19, 20, 21, 22, 24, 25, 26, 27, 28, 29]",300,175,-1,5,41,8,0.0
undo,34,30,0,0,0,25,"[0, 25]",2,12,"[3, 5, 7, 9, 11, 16, 18, 19, 20, 24, 27, 29]",121.1005869,4336,4161,7,37,7,1.0
undo,34,30,0,0,0,20,"[0, 25, 20]",3,9,"[3, 5, 7, 9, 11, 18, 19, 27, 29]",99.16887472,5088,752,5,16,7,1.0037291321296267
undo,34,30,0,0,0,27,"[0, 25, 20, 27]",4,4,"[3, 5, 18, 29]",65.11010199,5872,784,4,6,7,1.1217072851053165
undo,34,30,0,0,0,3,"[0, 25, 20, 27, 3]",5,3,"[5, 18, 29]",46.00512882,6521,649,4,0,7,1.1140018780928678
undo,34,30,0,0,0,18,"[0, 25, 20, 27, 3, 18]",6,2,"[5, 29]",27.75684122,7520,999,2,0,7,1.1146279013330882
undo,34,30,1,0,0,3,"[0, 25, 20, 27, 3]",5,3,"[5, 18, 29]",46.00512882,8231,711,4,0,7,1.1140018780928678
undo,34,30,0,0,0,5,"[0, 25, 20, 27, 3, 5]",6,1,[18],21.16564412,8694,463,1,0,7,1.1530944492196908
undo,34,30,0,0,1,18,"[0, 25, 20, 27, 3, 5, 18]",7,0,[],8.127239308,9177,483,1,0,7,1.194996135676334
undo,34,30,1,0,0,5,"[0, 25, 20, 27, 3, 5]",6,1,[18],21.16564412,10164,987,1,0,7,1.1530944492196908
undo,34,30,1,0,0,3,"[0, 25, 20, 27, 3]",5,3,"[5, 18, 29]",46.00512882,10580,416,4,0,7,1.1140018780928678
undo,34,30,1,0,0,27,"[0, 25, 20, 27]",4,4,"[3, 5, 18, 29]",65.11010199,11030,450,4,6,7,1.1217072851053165
undo,34,30,1,0,0,20,"[0, 25, 20]",3,9,"[3, 5, 7, 9, 11, 18, 19, 27, 29]",99.16887472,11548,518,5,16,7,1.0037291321296267
undo,34,30,1,0,0,25,"[0, 25]",2,12,"[3, 5, 7, 9, 11, 16, 18, 19, 20, 24, 27, 29]",121.1005869,12279,731,7,37,7,1.0
undo,34,30,1,0,0,0,[0],1,19,"[3, 4, 5, 7, 9, 11, 16, 17, 18, 19, 20, 21, 22, 24, 25, 26, 27, 28, 29]",300,12732,453,5,41,8,0.0
undo,34,30,0,0,0,27,"[0, 27]",2,10,"[3, 5, 7, 9, 18, 19, 20, 24, 25, 29]",90.59608409,14244,1512,7,22,6,1.0
undo,34,30,0,0,0,3,"[0, 27, 3]",3,8,"[5, 7, 18, 19, 20, 24, 25, 29]",71.49111091,14873,629,5,9,6,1.0022223300201003
undo,34,30,0,0,0,29,"[0, 27, 3, 29]",4,5,"[5, 7, 18, 19, 20]",52.89003567,15838,965,2,3,6,1.0149900937654948
undo,34,30,0,0,0,18,"[0, 27, 3, 29, 18]",5,1,[5],33.57682776,16576,738,1,0,6,1.0907994995031296
undo,34,30,0,0,1,5,"[0, 27, 3, 29, 18, 5]",6,0,[],20.53842295,17471,895,1,0,6,1.1556882660658163
undo,34,30,1,0,0,18,"[0, 27, 3, 29, 18]",5,1,[5],33.57682776,18396,925,1,0,6,1.0907994995031296
undo,34,30,1,0,0,29,"[0, 27, 3, 29]",4,5,"[5, 7, 18, 19, 20]",52.89003567,18814,418,2,3,6,1.0149900937654948
undo,34,30,0,0,1,7,"[0, 27, 3, 29, 7]",5,0,[],13.77482124,19804,990,1,0,5,1.018105096727625
undo,34,30,1,0,0,29,"[0, 27, 3, 29]",4,5,"[5, 7, 18, 19, 20]",52.89003567,20263,459,2,3,6,1.0149900937654948
undo,34,30,1,0,0,3,"[0, 27, 3]",3,8,"[5, 7, 18, 19, 20, 24, 25, 29]",71.49111091,20698,435,5,9,6,1.0022223300201003
undo,34,30,1,0,0,27,"[0, 27]",2,10,"[3, 5, 7, 9, 18, 19, 20, 24, 25, 29]",90.59608409,21063,365,7,22,6,1.0
undo,34,30,1,0,0,0,[0],1,19,"[3, 4, 5, 7, 9, 11, 16, 17, 18, 19, 20, 21, 22, 24, 25, 26, 27, 28, 29]",300,21647,584,5,41,8,0.0
undo,34,30,0,0,0,16,"[0, 16]",2,17,"[3, 5, 7, 9, 11, 17, 18, 19, 20, 21, 22, 24, 25, 26, 27, 28, 29]",219.3774225,25104,3457,5,34,8,1.0
undo,34,30,0,0,0,25,"[0, 16, 25]",3,10,"[3, 5, 7, 9, 11, 18, 19, 20, 27, 29]",115.0845656,26221,1117,5,28,8,1.0336279544884488
undo,34,30,0,0,0,20,"[0, 16, 25, 20]",4,8,"[3, 5, 7, 9, 18, 19, 27, 29]",93.15285342,26952,731,4,14,8,1.0337964627284246
undo,34,30,0,0,0,27,"[0, 16, 25, 20, 27]",5,4,"[3, 5, 18, 29]",59.09408069,27807,855,4,6,8,1.1504365534848
undo,34,30,0,0,0,3,"[0, 16, 25, 20, 27, 3]",6,3,"[5, 18, 29]",39.98910751,30073,2266,4,0,8,1.1403876826835333
undo,34,30,0,0,0,29,"[0, 16, 25, 20, 27, 3, 29]",7,1,[18],21.38803228,30954,881,1,0,8,1.1443827771455848
undo,34,30,0,0,1,18,"[0, 16, 25, 20, 27, 3, 29, 18]",8,0,[],2.074824359,32261,1307,1,0,8,1.2197761544023602
undo,34,30,0,1,1,18,"[0, 16, 25, 20, 27, 3, 29, 18]",8,0,[],2.074824359,34880,2619,1,0,8,1.2197761544023602
undo,35,34,0,0,0,0,[0],1,25,"[1, 3, 4, 5, 6, 7, 8, 9, 10, 11, 12, 13, 15, 18, 19, 20, 21, 22, 23, 24, 25, 26, 27, 28, 29]",300,215,-1,12,367,10,0.0
undo,35,34,0,0,0,13,"[0, 13]",2,24,"[1, 3, 4, 5, 6, 7, 8, 9, 10, 11, 12, 15, 18, 19, 20, 21, 22, 23, 24, 25, 26, 27, 28, 29]",279.9750156,2312,2097,12,331,10,1.0
undo,35,34,0,0,0,1,"[0, 13, 1]",3,16,"[3, 5, 7, 8, 9, 10, 11, 12, 19, 21, 22, 23, 24, 25, 27, 29]",211.8574701,3220,908,3,92,10,1.0010381285747127
undo,35,34,0,0,0,8,"[0, 13, 1, 8]",4,14,"[3, 5, 7, 9, 10, 11, 12, 19, 22, 23, 24, 25, 27, 29]",201.0871405,3704,484,2,54,10,1.1636807
undo,35,34,0,0,0,25,"[0, 13, 1, 8, 25]",5,12,"[3, 5, 7, 9, 10, 11, 12, 22, 23, 24, 27, 29]",183.999133,4288,584,2,28,10,1.1396208815936457
undo,35,34,0,0,0,24,"[0, 13, 1, 8, 25, 24]",6,11,"[3, 5, 7, 9, 10, 11, 12, 22, 23, 27, 29]",166.5062774,4765,477,2,23,10,1.374180768736554
undo,35,34,0,0,0,12,"[0, 13, 1, 8, 25, 24, 12]",7,7,"[7, 9, 10, 11, 22, 23, 27]",115.4670767,5673,908,1,8,10,1.4994254760835948
undo,35,34,0,0,0,7,"[0, 13, 1, 8, 25, 24, 12, 7]",8,5,"[9, 11, 22, 23, 27]",100.4337804,6187,514,1,4,10,1.758992610425009
undo,35,34,0,0,0,23,"[0, 13, 1, 8, 25, 24, 12, 7, 23]",9,1,[27],72.27352467,6995,808,1,0,10,2.399781305190153
undo,35,34,0,0,1,27,"[0, 13, 1, 8, 25, 24, 12, 7, 23, 27]",10,0,[],18.60789321,8950,1955,1,0,10,4.766619878750327
undo,35,34,0,1,1,27,"[0, 13, 1, 8, 25, 24, 12, 7, 23, 27]",10,0,[],18.60789321,12560,3610,1,0,10,4.766619878750327
undo,36,3,0,0,0,0,[0],1,29,"[1, 2, 3, 4, 5, 6, 7, 8, 9, 10, 11, 12, 13, 14, 15, 16, 17, 18, 19, 20, 21, 22, 23, 24, 25, 26, 27, 28, 29]",300,222,-1,34,427,10,0.0
undo,36,3,0,0,0,7,"[0, 7]",2,28,"[1, 2, 3, 4, 5, 6, 8, 9, 10, 11, 12, 13, 14, 15, 16, 17, 18, 19, 20, 21, 22, 23, 24, 25, 26, 27, 28, 29]",278.8103799,6965,6743,24,215,10,1.0
undo,36,3,0,0,0,8,"[0, 7, 8]",3,24,"[1, 2, 3, 4, 5, 6, 10, 11, 12, 13, 14, 15, 16, 17, 18, 19, 20, 21, 22, 24, 25, 26, 27, 28]",222.837172,8171,1206,16,114,10,1.2853332575451413
undo,36,3,0,0,0,24,"[0, 7, 8, 24]",4,21,"[1, 3, 4, 5, 6, 10, 11, 12, 14, 15, 16, 17, 18, 19, 20, 21, 22, 25, 26, 27, 28]",210.671647,8750,579,16,91,10,1.5177505014936548
undo,36,3,0,0,0,17,"[0, 7, 8, 24, 17]",5,9,"[3, 4, 10, 14, 15, 16, 19, 20, 21]",141.3174834,9549,799,7,26,10,1.5510961300062232
undo,36,3,0,0,0,20,"[0, 7, 8, 24, 17, 20]",6,7,"[3, 4, 10, 14, 16, 19, 21]",128.6683728,10320,771,7,14,10,1.5133082717474817
undo,36,3,0,0,0,3,"[0, 7, 8, 24, 17, 20, 3]",7,5,"[4, 10, 14, 19, 21]",108.2722947,10984,664,7,4,10,1.5325960555943097
undo,36,3,0,0,0,19,"[0, 7, 8, 24, 17, 20, 3, 19]",8,3,"[10, 14, 21]",70.93598532,11968,984,3,1,10,1.5521294182529992
undo,36,3,0,0,0,21,"[0, 7, 8, 24, 17, 20, 3, 19, 21]",9,2,"[10, 14]",58.72942971,12457,489,2,0,10,1.5690424431931145
undo,36,3,0,0,1,14,"[0, 7, 8, 24, 17, 20, 3, 19, 21, 14]",10,0,[],31.82218161,13437,980,1,0,10,2.0836613372745463
undo,36,3,1,0,0,21,"[0, 7, 8, 24, 17, 20, 3, 19, 21]",9,2,"[10, 14]",58.72942971,15410,1973,2,0,10,1.5690424431931145
undo,36,3,1,0,0,19,"[0, 7, 8, 24, 17, 20, 3, 19]",8,3,"[10, 14, 21]",70.93598532,16609,1199,3,1,10,1.5521294182529992
undo,36,3,1,0,0,3,"[0, 7, 8, 24, 17, 20, 3]",7,5,"[4, 10, 14, 19, 21]",108.2722947,16893,284,7,4,10,1.5325960555943097
undo,36,3,1,0,0,20,"[0, 7, 8, 24, 17, 20]",6,7,"[3, 4, 10, 14, 16, 19, 21]",128.6683728,17060,167,7,14,10,1.5133082717474817
undo,36,3,1,0,0,17,"[0, 7, 8, 24, 17]",5,9,"[3, 4, 10, 14, 15, 16, 19, 20, 21]",141.3174834,17442,382,7,26,10,1.5510961300062232
undo,36,3,1,0,0,24,"[0, 7, 8, 24]",4,21,"[1, 3, 4, 5, 6, 10, 11, 12, 14, 15, 16, 17, 18, 19, 20, 21, 22, 25, 26, 27, 28]",210.671647,17676,234,16,91,10,1.5177505014936548
undo,36,3,1,0,0,8,"[0, 7, 8]",3,24,"[1, 2, 3, 4, 5, 6, 10, 11, 12, 13, 14, 15, 16, 17, 18, 19, 20, 21, 22, 24, 25, 26, 27, 28]",222.837172,17892,216,16,114,10,1.2853332575451413
undo,36,3,1,0,0,7,"[0, 7]",2,28,"[1, 2, 3, 4, 5, 6, 8, 9, 10, 11, 12, 13, 14, 15, 16, 17, 18, 19, 20, 21, 22, 23, 24, 25, 26, 27, 28, 29]",278.8103799,18293,401,24,215,10,1.0
undo,36,3,1,0,0,0,[0],1,29,"[1, 2, 3, 4, 5, 6, 7, 8, 9, 10, 11, 12, 13, 14, 15, 16, 17, 18, 19, 20, 21, 22, 23, 24, 25, 26, 27, 28, 29]",300,18660,367,34,427,10,0.0
undo,36,3,0,0,0,8,"[0, 8]",2,28,"[1, 2, 3, 4, 5, 6, 7, 9, 10, 11, 12, 13, 14, 15, 16, 17, 18, 19, 20, 21, 22, 23, 24, 25, 26, 27, 28, 29]",239.9666759,20844,2184,1,54,10,1.0
undo,36,3,0,0,0,24,"[0, 8, 24]",3,23,"[1, 2, 3, 4, 5, 6, 7, 10, 11, 12, 14, 15, 16, 17, 18, 19, 20, 21, 22, 25, 26, 27, 28]",227.8011509,21736,892,1,50,10,1.2267083825981846
undo,36,3,0,0,0,4,"[0, 8, 24, 4]",4,15,"[3, 5, 6, 7, 10, 14, 15, 16, 17, 18, 19, 20, 21, 22, 28]",165.6239846,22757,1021,2,24,9,1.1727066717264518
undo,36,3,0,0,0,14,"[0, 8, 24, 4, 14]",5,6,"[3, 10, 17, 19, 20, 21]",104.9527394,23967,1210,2,12,9,1.5154588037646872
undo,36,3,0,0,0,21,"[0, 8, 24, 4, 14, 21]",6,4,"[3, 10, 19, 20]",78.04549129,24686,719,1,3,9,1.4434252971900903
undo,36,3,0,0,0,19,"[0, 8, 24, 4, 14, 21, 19]",7,3,"[3, 10, 20]",65.83893567,25370,684,1,2,9,1.5866668409866098
undo,36,3,0,0,0,3,"[0, 8, 24, 4, 14, 21, 19, 3]",8,1,[20],28.50262627,26130,760,1,0,9,2.1702434889717117
undo,36,3,0,0,1,20,"[0, 8, 24, 4, 14, 21, 19, 3, 20]",9,0,[],8.106548215,26703,573,1,0,9,2.5781858392060215
undo,36,3,1,0,0,3,"[0, 8, 24, 4, 14, 21, 19, 3]",8,1,[20],28.50262627,27610,907,1,0,9,2.1702434889717117
undo,36,3,1,0,0,19,"[0, 8, 24, 4, 14, 21, 19]",7,3,"[3, 10, 20]",65.83893567,27810,200,1,2,9,1.5866668409866098
undo,36,3,1,0,0,21,"[0, 8, 24, 4, 14, 21]",6,4,"[3, 10, 19, 20]",78.04549129,28076,266,1,3,9,1.4434252971900903
undo,36,3,1,0,0,14,"[0, 8, 24, 4, 14]",5,6,"[3, 10, 17, 19, 20, 21]",104.9527394,29593,1517,2,12,9,1.5154588037646872
undo,36,3,1,0,0,4,"[0, 8, 24, 4]",4,15,"[3, 5, 6, 7, 10, 14, 15, 16, 17, 18, 19, 20, 21, 22, 28]",165.6239846,29792,199,2,24,9,1.1727066717264518
undo,36,3,1,0,0,24,"[0, 8, 24]",3,23,"[1, 2, 3, 4, 5, 6, 7, 10, 11, 12, 14, 15, 16, 17, 18, 19, 20, 21, 22, 25, 26, 27, 28]",227.8011509,30028,236,1,50,10,1.2267083825981846
undo,36,3,0,0,0,14,"[0, 8, 24, 14]",4,10,"[3, 4, 7, 10, 16, 17, 19, 20, 21, 22]",156.6885641,31907,1879,11,34,9,1.1134869392511408
undo,36,3,0,0,0,21,"[0, 8, 24, 14, 21]",5,6,"[3, 4, 10, 17, 19, 20]",129.781316,32834,927,5,9,9,1.1069743794257796
undo,36,3,0,0,0,19,"[0, 8, 24, 14, 21, 19]",6,5,"[3, 4, 10, 17, 20]",117.5747604,33316,482,5,2,9,1.2361067774463228
undo,36,3,0,0,0,3,"[0, 8, 24, 14, 21, 19, 3]",7,2,"[17, 20]",80.23845095,34117,801,2,0,9,1.7566876040075643
undo,36,3,0,0,0,20,"[0, 8, 24, 14, 21, 19, 3, 20]",8,1,[17],59.8423729,35599,1482,1,0,9,2.1212226227760778
undo,36,3,0,0,1,17,"[0, 8, 24, 14, 21, 19, 3, 20, 17]",9,0,[],47.19326226,36568,969,1,0,9,2.4711452839916217
undo,36,3,1,0,0,20,"[0, 8, 24, 14, 21, 19, 3, 20]",8,1,[17],59.8423729,156280,119712,1,0,9,2.1212226227760778
undo,36,3,1,0,0,3,"[0, 8, 24, 14, 21, 19, 3]",7,2,"[17, 20]",80.23845095,156429,149,2,0,9,1.7566876040075643
undo,36,3,1,0,0,19,"[0, 8, 24, 14, 21, 19]",6,5,"[3, 4, 10, 17, 20]",117.5747604,156596,167,5,2,9,1.2361067774463228
undo,36,3,1,0,0,21,"[0, 8, 24, 14, 21]",5,6,"[3, 4, 10, 17, 19, 20]",129.781316,156711,115,5,9,9,1.1069743794257796
undo,36,3,1,0,0,14,"[0, 8, 24, 14]",4,10,"[3, 4, 7, 10, 16, 17, 19, 20, 21, 22]",156.6885641,156845,134,11,34,9,1.1134869392511408
undo,36,3,1,0,0,24,"[0, 8, 24]",3,23,"[1, 2, 3, 4, 5, 6, 7, 10, 11, 12, 14, 15, 16, 17, 18, 19, 20, 21, 22, 25, 26, 27, 28]",227.8011509,156980,135,1,50,10,1.2267083825981846
undo,36,3,1,0,0,8,"[0, 8]",2,28,"[1, 2, 3, 4, 5, 6, 7, 9, 10, 11, 12, 13, 14, 15, 16, 17, 18, 19, 20, 21, 22, 23, 24, 25, 26, 27, 28, 29]",239.9666759,157145,165,1,54,10,1.0
undo,36,3,1,0,0,0,[0],1,29,"[1, 2, 3, 4, 5, 6, 7, 8, 9, 10, 11, 12, 13, 14, 15, 16, 17, 18, 19, 20, 21, 22, 23, 24, 25, 26, 27, 28, 29]",300,157545,400,34,427,10,0.0
undo,36,3,0,0,0,7,"[0, 7]",2,28,"[1, 2, 3, 4, 5, 6, 8, 9, 10, 11, 12, 13, 14, 15, 16, 17, 18, 19, 20, 21, 22, 23, 24, 25, 26, 27, 28, 29]",278.8103799,158937,1392,24,215,10,1.0
undo,36,3,0,0,0,8,"[0, 7, 8]",3,24,"[1, 2, 3, 4, 5, 6, 10, 11, 12, 13, 14, 15, 16, 17, 18, 19, 20, 21, 22, 24, 25, 26, 27, 28]",222.837172,159973,1036,16,114,10,1.2853332575451413
undo,36,3,0,0,0,24,"[0, 7, 8, 24]",4,21,"[1, 3, 4, 5, 6, 10, 11, 12, 14, 15, 16, 17, 18, 19, 20, 21, 22, 25, 26, 27, 28]",210.671647,160504,531,16,91,10,1.5177505014936548
undo,36,3,0,0,0,10,"[0, 7, 8, 24, 10]",5,6,"[3, 4, 14, 19, 20, 21]",111.651447,164529,4025,8,6,8,1.1961833356757874
undo,36,3,1,0,0,24,"[0, 7, 8, 24]",4,21,"[1, 3, 4, 5, 6, 10, 11, 12, 14, 15, 16, 17, 18, 19, 20, 21, 22, 25, 26, 27, 28]",210.671647,166195,1666,16,91,10,1.5177505014936548
undo,36,3,0,0,0,14,"[0, 7, 8, 24, 14]",5,7,"[3, 4, 10, 17, 19, 20, 21]",139.5590602,167991,1796,4,18,10,1.2465780547557723
undo,36,3,0,0,0,21,"[0, 7, 8, 24, 14, 21]",6,6,"[3, 4, 10, 17, 19, 20]",112.6518121,169537,1546,2,7,10,1.2183717977583874
undo,36,3,0,0,0,19,"[0, 7, 8, 24, 14, 21, 19]",7,5,"[3, 4, 10, 17, 20]",100.4452565,170308,771,2,4,10,1.3521756718137403
undo,36,3,0,0,0,3,"[0, 7, 8, 24, 14, 21, 19, 3]",8,2,"[17, 20]",63.10894706,171052,744,2,0,10,1.8936141376820974
undo,36,3,0,0,0,20,"[0, 7, 8, 24, 14, 21, 19, 3, 20]",9,1,[17],42.712869,172311,1259,1,0,10,2.2725211329603123
undo,36,3,0,0,1,17,"[0, 7, 8, 24, 14, 21, 19, 3, 20, 17]",10,0,[],30.06375836,173183,872,1,0,10,2.638583435197603
undo,36,3,0,1,1,17,"[0, 7, 8, 24, 14, 21, 19, 3, 20, 17]",10,0,[],30.06375836,176878,3695,1,0,10,2.638583435197603
undo,37,41,0,0,0,0,[0],1,29,"[1, 2, 3, 4, 5, 6, 7, 8, 9, 10, 11, 12, 13, 14, 15, 16, 17, 18, 19, 20, 21, 22, 23, 24, 25, 26, 27, 28, 29]",300,161,-1,1,143,10,0.0
undo,37,41,0,0,0,13,"[0, 13]",2,23,"[1, 2, 3, 5, 6, 7, 9, 10, 11, 12, 14, 15, 17, 18, 19, 20, 21, 22, 24, 25, 26, 27, 28]",258.2747079,3673,3512,1,55,10,1.0
undo,37,41,0,0,0,28,"[0, 13, 28]",3,22,"[1, 2, 3, 5, 6, 7, 9, 10, 11, 12, 14, 15, 17, 18, 19, 20, 21, 22, 24, 25, 26, 27]",223.7928286,4450,777,1,39,10,1.895724242592676
undo,37,41,0,0,0,5,"[0, 13, 28, 5]",4,19,"[1, 2, 3, 6, 9, 10, 11, 12, 14, 15, 17, 18, 19, 20, 21, 22, 24, 25, 27]",210.1913581,5252,802,1,34,10,2.861541269398273
undo,37,41,0,0,0,3,"[0, 13, 28, 5, 3]",5,16,"[1, 2, 6, 9, 10, 12, 14, 17, 18, 19, 20, 21, 22, 24, 25, 27]",175.3632086,6535,1283,1,22,10,3.1455488489005883
undo,37,41,0,0,0,21,"[0, 13, 28, 5, 3, 21]",6,14,"[1, 2, 6, 9, 10, 12, 14, 17, 18, 19, 20, 22, 25, 27]",143.2228912,7483,948,13,11,9,3.207558429289677
undo,37,41,0,0,0,9,"[0, 13, 28, 5, 3, 21, 9]",7,6,"[1, 2, 10, 12, 14, 17]",93.85691102,8354,871,7,4,9,2.5050148501792275
undo,37,41,0,0,0,2,"[0, 13, 28, 5, 3, 21, 9, 2]",8,5,"[1, 10, 12, 14, 17]",81.77386505,9071,717,5,0,9,2.4119643847713177
undo,37,41,0,0,1,17,"[0, 13, 28, 5, 3, 21, 9, 2, 17]",9,0,[],49.21622385,10050,979,1,0,9,3.9563478735796007
undo,37,41,1,0,0,2,"[0, 13, 28, 5, 3, 21, 9, 2]",8,5,"[1, 10, 12, 14, 17]",81.77386505,14910,4860,5,0,9,2.4119643847713177
undo,37,41,1,0,0,9,"[0, 13, 28, 5, 3, 21, 9]",7,6,"[1, 2, 10, 12, 14, 17]",93.85691102,15109,199,7,4,9,2.5050148501792275
undo,37,41,1,0,0,21,"[0, 13, 28, 5, 3, 21]",6,14,"[1, 2, 6, 9, 10, 12, 14, 17, 18, 19, 20, 22, 25, 27]",143.2228912,15293,184,13,11,9,3.207558429289677
undo,37,41,1,0,0,3,"[0, 13, 28, 5, 3]",5,16,"[1, 2, 6, 9, 10, 12, 14, 17, 18, 19, 20, 21, 22, 24, 25, 27]",175.3632086,15460,167,1,22,10,3.1455488489005883
undo,37,41,1,0,0,5,"[0, 13, 28, 5]",4,19,"[1, 2, 3, 6, 9, 10, 11, 12, 14, 15, 17, 18, 19, 20, 21, 22, 24, 25, 27]",210.1913581,15677,217,1,34,10,2.861541269398273
undo,37,41,1,0,0,28,"[0, 13, 28]",3,22,"[1, 2, 3, 5, 6, 7, 9, 10, 11, 12, 14, 15, 17, 18, 19, 20, 21, 22, 24, 25, 26, 27]",223.7928286,16143,466,1,39,10,1.895724242592676
undo,37,41,1,0,0,13,"[0, 13]",2,23,"[1, 2, 3, 5, 6, 7, 9, 10, 11, 12, 14, 15, 17, 18, 19, 20, 21, 22, 24, 25, 26, 27, 28]",258.2747079,16627,484,1,55,10,1.0
undo,37,41,1,0,0,0,[0],1,29,"[1, 2, 3, 4, 5, 6, 7, 8, 9, 10, 11, 12, 13, 14, 15, 16, 17, 18, 19, 20, 21, 22, 23, 24, 25, 26, 27, 28, 29]",300,17260,633,1,143,10,0.0
undo,37,41,0,0,0,28,"[0, 28]",2,27,"[1, 2, 3, 5, 6, 7, 8, 9, 10, 11, 12, 13, 14, 15, 16, 17, 18, 19, 20, 21, 22, 23, 24, 25, 26, 27, 29]",259.8004975,17994,734,37,249,9,1.0
undo,37,41,0,0,0,5,"[0, 28, 5]",3,26,"[1, 2, 3, 6, 7, 8, 9, 10, 11, 12, 13, 14, 15, 16, 17, 18, 19, 20, 21, 22, 23, 24, 25, 26, 27, 29]",246.199027,18868,874,30,182,9,1.714241539747437
undo,37,41,0,0,0,22,"[0, 28, 5, 22]",4,22,"[1, 2, 3, 6, 7, 8, 9, 10, 11, 12, 13, 14, 16, 17, 18, 19, 20, 21, 23, 24, 25, 27]",191.4541642,20785,1917,7,30,9,1.5739547554580093
undo,37,41,0,0,0,3,"[0, 28, 5, 22, 3]",5,14,"[2, 6, 9, 10, 12, 13, 14, 17, 18, 19, 20, 21, 25, 27]",161.4875161,21407,622,7,17,9,3.49573973620446
undo,37,41,0,0,0,21,"[0, 28, 5, 22, 3, 21]",6,8,"[2, 9, 10, 12, 13, 14, 17, 25]",129.3471987,22185,778,7,6,9,3.491446139563656
undo,37,41,0,0,0,9,"[0, 28, 5, 22, 3, 21, 9]",7,5,"[2, 10, 12, 14, 17]",79.98121856,23081,896,3,3,9,2.6736298439721664
undo,37,41,0,0,0,2,"[0, 28, 5, 22, 3, 21, 9, 2]",8,2,"[14, 17]",67.89817258,24469,1388,2,0,9,2.565326749271553
undo,37,41,0,0,1,17,"[0, 28, 5, 22, 3, 21, 9, 2, 17]",9,0,[],35.34053139,25356,887,1,0,9,4.175249858394321
undo,37,41,0,1,1,17,"[0, 28, 5, 22, 3, 21, 9, 2, 17]",9,0,[],35.34053139,29860,4504,1,0,9,4.175249858394321
undo,38,1,0,0,0,0,[0],1,26,"[1, 2, 4, 5, 7, 8, 9, 10, 11, 12, 13, 14, 15, 16, 17, 18, 19, 20, 21, 22, 23, 24, 25, 26, 28, 29]",300,163,-1,6,74,7,0.0
undo,38,1,0,0,0,14,"[0, 14]",2,19,"[1, 4, 5, 8, 9, 13, 15, 17, 18, 19, 20, 21, 22, 23, 24, 25, 26, 28, 29]",200.1901808,3755,3592,5,42,7,1.0
undo,38,1,0,0,0,17,"[0, 14, 17]",3,15,"[1, 4, 5, 8, 9, 13, 15, 18, 19, 20, 22, 23, 25, 28, 29]",147.8356204,4538,783,5,27,7,1.0028844724416826
undo,38,1,0,0,0,1,"[0, 14, 17, 1]",4,12,"[4, 5, 8, 9, 15, 18, 20, 22, 23, 25, 28, 29]",123.4840291,5229,691,5,15,7,1.0264985578353567
undo,38,1,0,0,0,28,"[0, 14, 17, 1, 28]",5,5,"[9, 15, 22, 23, 29]",88.59850198,6225,996,5,3,7,1.0339861575999345
undo,38,1,0,0,0,23,"[0, 14, 17, 1, 28, 23]",6,2,"[15, 22]",51.70676849,7022,797,2,0,7,1.0327458250705703
undo,38,1,0,0,1,15,"[0, 14, 17, 1, 28, 23, 15]",7,0,[],20.81987807,7559,537,1,0,7,1.1948681641401226
undo,38,1,1,0,0,23,"[0, 14, 17, 1, 28, 23]",6,2,"[15, 22]",51.70676849,8746,1187,2,0,7,1.0327458250705703
undo,38,1,1,0,0,28,"[0, 14, 17, 1, 28]",5,5,"[9, 15, 22, 23, 29]",88.59850198,8947,201,5,3,7,1.0339861575999345
undo,38,1,1,0,0,1,"[0, 14, 17, 1]",4,12,"[4, 5, 8, 9, 15, 18, 20, 22, 23, 25, 28, 29]",123.4840291,9113,166,5,15,7,1.0264985578353567
undo,38,1,1,0,0,17,"[0, 14, 17]",3,15,"[1, 4, 5, 8, 9, 13, 15, 18, 19, 20, 22, 23, 25, 28, 29]",147.8356204,9281,168,5,27,7,1.0028844724416826
undo,38,1,1,0,0,14,"[0, 14]",2,19,"[1, 4, 5, 8, 9, 13, 15, 17, 18, 19, 20, 21, 22, 23, 24, 25, 26, 28, 29]",200.1901808,9665,384,5,42,7,1.0
undo,38,1,1,0,0,0,[0],1,26,"[1, 2, 4, 5, 7, 8, 9, 10, 11, 12, 13, 14, 15, 16, 17, 18, 19, 20, 21, 22, 23, 24, 25, 26, 28, 29]",300,10280,615,6,74,7,0.0
undo,38,1,0,0,0,8,"[0, 8]",2,23,"[1, 4, 5, 7, 9, 10, 11, 12, 13, 14, 15, 16, 17, 18, 19, 20, 21, 23, 24, 25, 26, 28, 29]",202,13654,3374,1,16,7,1.0
undo,38,1,0,0,0,20,"[0, 8, 20]",3,12,"[1, 4, 5, 11, 13, 14, 15, 17, 18, 19, 28, 29]",125.9408125,14438,784,1,7,7,1.02364736730791
undo,38,1,0,0,0,5,"[0, 8, 20, 5]",4,7,"[1, 4, 11, 13, 17, 18, 29]",104.469902,15179,741,1,3,7,1.0439599203945713
undo,38,1,0,0,0,18,"[0, 8, 20, 5, 18]",5,2,"[4, 29]",81.64447755,16404,1225,1,1,7,1.0840407791793756
undo,38,1,0,0,0,4,"[0, 8, 20, 5, 18, 4]",6,1,[29],42.69579336,17341,937,1,0,7,1.0902329133216275
undo,38,1,0,0,1,29,"[0, 8, 20, 5, 18, 4, 29]",7,0,[],6.640280603,18306,965,1,0,7,1.2859729622882756
undo,38,1,0,1,1,29,"[0, 8, 20, 5, 18, 4, 29]",7,0,[],6.640280603,20814,2508,1,0,7,1.2859729622882756
undo,39,38,0,0,0,0,[0],1,29,"[1, 2, 3, 4, 5, 6, 7, 8, 9, 10, 11, 12, 13, 14, 15, 16, 17, 18, 19, 20, 21, 22, 23, 24, 25, 26, 27, 28, 29]",300,170,-1,33,506,9,0.0
undo,39,38,0,0,0,19,"[0, 19]",2,23,"[3, 4, 5, 6, 7, 8, 9, 11, 13, 14, 15, 16, 17, 18, 20, 22, 23, 24, 25, 26, 27, 28, 29]",219.5015528,6210,6040,6,61,9,1.0
undo,39,38,0,0,0,17,"[0, 19, 17]",3,21,"[3, 4, 5, 6, 7, 9, 11, 13, 14, 15, 16, 18, 20, 22, 23, 24, 25, 26, 27, 28, 29]",198.1239945,6897,687,6,53,9,1.571793785769489
undo,39,38,0,0,0,20,"[0, 19, 17, 20]",4,17,"[3, 4, 5, 6, 7, 11, 13, 14, 15, 16, 18, 22, 24, 25, 26, 27, 28]",174.3542658,7762,865,6,44,9,2.333182710277297
undo,39,38,0,0,0,13,"[0, 19, 17, 20, 13]",5,9,"[4, 11, 15, 16, 18, 24, 26, 27, 28]",125.0998244,8929,1167,1,11,9,1.7893595974504246
undo,39,38,0,0,0,26,"[0, 19, 17, 20, 13, 26]",6,4,"[4, 15, 16, 24]",94.05147502,9973,1044,2,2,8,1.6358521629854983
undo,39,38,0,0,1,24,"[0, 19, 17, 20, 13, 26, 24]",7,0,[],63.24563142,10938,965,1,0,7,1.5254171174727325
undo,39,38,1,0,0,26,"[0, 19, 17, 20, 13, 26]",6,4,"[4, 15, 16, 24]",94.05147502,13330,2392,2,2,8,1.6358521629854983
undo,39,38,1,0,0,13,"[0, 19, 17, 20, 13]",5,9,"[4, 11, 15, 16, 18, 24, 26, 27, 28]",125.0998244,13497,167,1,11,9,1.7893595974504246
undo,39,38,1,0,0,20,"[0, 19, 17, 20]",4,17,"[3, 4, 5, 6, 7, 11, 13, 14, 15, 16, 18, 22, 24, 25, 26, 27, 28]",174.3542658,13647,150,6,44,9,2.333182710277297
undo,39,38,1,0,0,17,"[0, 19, 17]",3,21,"[3, 4, 5, 6, 7, 9, 11, 13, 14, 15, 16, 18, 20, 22, 23, 24, 25, 26, 27, 28, 29]",198.1239945,13798,151,6,53,9,1.571793785769489
undo,39,38,1,0,0,19,"[0, 19]",2,23,"[3, 4, 5, 6, 7, 8, 9, 11, 13, 14, 15, 16, 17, 18, 20, 22, 23, 24, 25, 26, 27, 28, 29]",219.5015528,13963,165,6,61,9,1.0
undo,39,38,1,0,0,0,[0],1,29,"[1, 2, 3, 4, 5, 6, 7, 8, 9, 10, 11, 12, 13, 14, 15, 16, 17, 18, 19, 20, 21, 22, 23, 24, 25, 26, 27, 28, 29]",300,14380,417,33,506,9,0.0
undo,39,38,0,0,0,11,"[0, 11]",2,23,"[1, 2, 3, 4, 5, 7, 10, 12, 13, 14, 15, 16, 17, 18, 19, 20, 21, 22, 24, 25, 26, 27, 28]",220.093805,15904,1524,2,40,9,1.0
undo,39,38,0,0,0,15,"[0, 11, 15]",3,19,"[1, 3, 4, 5, 7, 10, 12, 13, 14, 16, 17, 18, 19, 20, 22, 24, 26, 27, 28]",183.6932555,16692,788,11,93,8,1.5850843355177096
undo,39,38,0,0,0,4,"[0, 11, 15, 4]",4,15,"[3, 5, 12, 13, 14, 16, 17, 18, 19, 20, 22, 24, 26, 27, 28]",157.6932555,17395,703,8,37,8,2.02964249148567
undo,39,38,0,0,0,20,"[0, 11, 15, 4, 20]",5,10,"[3, 5, 13, 16, 17, 19, 24, 26, 27, 28]",123.7521301,19039,1644,5,11,8,3.2728407804065545
undo,39,38,0,0,0,17,"[0, 11, 15, 4, 20, 17]",6,5,"[3, 13, 19, 26, 27]",99.9824014,19738,699,4,3,8,3.0859711958770903
undo,39,38,0,0,0,19,"[0, 11, 15, 4, 20, 17, 19]",7,3,"[3, 13, 27]",78.60484308,20606,868,3,0,8,2.750303448679739
undo,39,38,0,0,1,13,"[0, 11, 15, 4, 20, 17, 19, 13]",8,0,[],1.910645123,22242,1636,1,0,8,3.049677029866661
undo,39,38,1,0,0,19,"[0, 11, 15, 4, 20, 17, 19]",7,3,"[3, 13, 27]",78.60484308,25499,3257,3,0,8,2.750303448679739
undo,39,38,1,0,0,17,"[0, 11, 15, 4, 20, 17]",6,5,"[3, 13, 19, 26, 27]",99.9824014,26999,1500,4,3,8,3.0859711958770903
undo,39,38,1,0,0,20,"[0, 11, 15, 4, 20]",5,10,"[3, 5, 13, 16, 17, 19, 24, 26, 27, 28]",123.7521301,27248,249,5,11,8,3.2728407804065545
undo,39,38,1,0,0,4,"[0, 11, 15, 4]",4,15,"[3, 5, 12, 13, 14, 16, 17, 18, 19, 20, 22, 24, 26, 27, 28]",157.6932555,27432,184,8,37,8,2.02964249148567
undo,39,38,1,0,0,15,"[0, 11, 15]",3,19,"[1, 3, 4, 5, 7, 10, 12, 13, 14, 16, 17, 18, 19, 20, 22, 24, 26, 27, 28]",183.6932555,27581,149,11,93,8,1.5850843355177096
