condition,trial_id,map_id,undoIndicator,submit,checkEnd,currentChoice,chosen_all,n_city_all,n_within_reach,cities_reach,currentBudget,time_all,rt_all,n_opt_paths_all,n_subopt_paths_all,mas_all,tortuosity_all
undo,0,24,0,0,0,0,[0],1,29,"[1, 2, 3, 4, 5, 6, 7, 8, 9, 10, 11, 12, 13, 14, 15, 16, 17, 18, 19, 20, 21, 22, 23, 24, 25, 26, 27, 28, 29]",300,118,-1,4,76,10,0.0
undo,0,24,0,0,0,16,"[0, 16]",2,28,"[1, 2, 3, 4, 5, 6, 7, 8, 9, 10, 11, 12, 13, 14, 15, 17, 18, 19, 20, 21, 22, 23, 24, 25, 26, 27, 28, 29]",210.3562607,7132,7014,13,110,9,1.0
undo,0,24,0,0,0,22,"[0, 16, 22]",3,27,"[1, 2, 3, 4, 5, 6, 7, 8, 9, 10, 11, 12, 13, 14, 15, 17, 18, 19, 20, 21, 23, 24, 25, 26, 27, 28, 29]",192.3285043,7706,574,7,54,9,1.0217425143037777
undo,0,24,0,0,0,8,"[0, 16, 22, 8]",4,21,"[1, 2, 3, 4, 6, 9, 10, 11, 13, 14, 15, 17, 20, 21, 23, 24, 25, 26, 27, 28, 29]",178.9120964,8506,800,4,28,9,1.0996636936037951
undo,0,24,0,0,0,15,"[0, 16, 22, 8, 15]",5,16,"[3, 4, 6, 9, 10, 11, 13, 14, 17, 23, 24, 25, 26, 27, 28, 29]",148.025206,9569,1063,3,17,9,1.2704773343758617
undo,0,24,0,0,0,28,"[0, 16, 22, 8, 15, 28]",6,8,"[3, 4, 9, 11, 13, 23, 26, 27]",102.7482803,10150,581,3,5,9,1.1981967578189556
undo,0,24,0,0,0,23,"[0, 16, 22, 8, 15, 28, 23]",7,3,"[9, 11, 27]",83.72198273,10580,430,3,1,9,1.2275650852813986
undo,0,24,0,0,0,11,"[0, 16, 22, 8, 15, 28, 23, 11]",8,2,"[9, 27]",56.79615869,11039,459,2,0,9,1.2107937989822568
undo,0,24,0,0,1,27,"[0, 16, 22, 8, 15, 28, 23, 11, 27]",9,0,[],28.99328114,12045,1006,1,0,9,1.1865620449755248
undo,0,24,1,0,0,11,"[0, 16, 22, 8, 15, 28, 23, 11]",8,2,"[9, 27]",56.79615869,13743,1698,2,0,9,1.2107937989822568
undo,0,24,0,0,1,9,"[0, 16, 22, 8, 15, 28, 23, 11, 9]",9,0,[],24.5471277,14694,951,1,0,9,1.2976612913524237
undo,0,24,1,0,0,11,"[0, 16, 22, 8, 15, 28, 23, 11]",8,2,"[9, 27]",56.79615869,15987,1293,2,0,9,1.2107937989822568
undo,0,24,1,0,0,23,"[0, 16, 22, 8, 15, 28, 23]",7,3,"[9, 11, 27]",83.72198273,19168,3181,3,1,9,1.2275650852813986
undo,0,24,1,0,0,28,"[0, 16, 22, 8, 15, 28]",6,8,"[3, 4, 9, 11, 13, 23, 26, 27]",102.7482803,19508,340,3,5,9,1.1981967578189556
undo,0,24,1,0,0,15,"[0, 16, 22, 8, 15]",5,16,"[3, 4, 6, 9, 10, 11, 13, 14, 17, 23, 24, 25, 26, 27, 28, 29]",148.025206,19806,298,3,17,9,1.2704773343758617
undo,0,24,1,0,0,8,"[0, 16, 22, 8]",4,21,"[1, 2, 3, 4, 6, 9, 10, 11, 13, 14, 15, 17, 20, 21, 23, 24, 25, 26, 27, 28, 29]",178.9120964,20105,299,4,28,9,1.0996636936037951
undo,0,24,0,0,0,28,"[0, 16, 22, 8, 28]",5,11,"[3, 4, 6, 9, 11, 13, 15, 23, 25, 26, 27]",116.8153976,20783,678,1,7,9,1.1127466823197207
undo,0,24,0,0,0,23,"[0, 16, 22, 8, 28, 23]",6,6,"[4, 9, 11, 13, 15, 27]",97.78910006,21192,409,1,5,9,1.1477220096751186
undo,0,24,0,0,0,11,"[0, 16, 22, 8, 28, 23, 11]",7,2,"[9, 27]",70.86327602,22005,813,1,1,9,1.1407604543567107
undo,0,24,0,0,1,9,"[0, 16, 22, 8, 28, 23, 11, 9]",8,0,[],38.61424503,22546,541,1,0,8,1.231390958109455
undo,0,24,1,0,0,11,"[0, 16, 22, 8, 28, 23, 11]",7,2,"[9, 27]",70.86327602,24910,2364,1,1,9,1.1407604543567107
undo,0,24,1,0,0,23,"[0, 16, 22, 8, 28, 23]",6,6,"[4, 9, 11, 13, 15, 27]",97.78910006,26056,1146,1,5,9,1.1477220096751186
undo,0,24,1,0,0,28,"[0, 16, 22, 8, 28]",5,11,"[3, 4, 6, 9, 11, 13, 15, 23, 25, 26, 27]",116.8153976,26355,299,1,7,9,1.1127466823197207
undo,0,24,1,0,0,8,"[0, 16, 22, 8]",4,21,"[1, 2, 3, 4, 6, 9, 10, 11, 13, 14, 15, 17, 20, 21, 23, 24, 25, 26, 27, 28, 29]",178.9120964,26681,326,4,28,9,1.0996636936037951
undo,0,24,0,0,0,15,"[0, 16, 22, 8, 15]",5,16,"[3, 4, 6, 9, 10, 11, 13, 14, 17, 23, 24, 25, 26, 27, 28, 29]",148.025206,27387,706,3,17,9,1.2704773343758617
undo,0,24,0,0,0,28,"[0, 16, 22, 8, 15, 28]",6,8,"[3, 4, 9, 11, 13, 23, 26, 27]",102.7482803,28345,958,3,5,9,1.1981967578189556
undo,0,24,0,0,0,23,"[0, 16, 22, 8, 15, 28, 23]",7,3,"[9, 11, 27]",83.72198273,28706,361,3,1,9,1.2275650852813986
undo,0,24,0,0,0,11,"[0, 16, 22, 8, 15, 28, 23, 11]",8,2,"[9, 27]",56.79615869,29360,654,2,0,9,1.2107937989822568
undo,0,24,0,0,1,27,"[0, 16, 22, 8, 15, 28, 23, 11, 27]",9,0,[],28.99328114,30762,1402,1,0,9,1.1865620449755248
undo,0,24,1,0,0,11,"[0, 16, 22, 8, 15, 28, 23, 11]",8,2,"[9, 27]",56.79615869,31355,593,2,0,9,1.2107937989822568
undo,0,24,0,0,1,9,"[0, 16, 22, 8, 15, 28, 23, 11, 9]",9,0,[],24.5471277,32040,685,1,0,9,1.2976612913524237
undo,0,24,0,1,1,9,"[0, 16, 22, 8, 15, 28, 23, 11, 9]",9,0,[],24.5471277,34196,2156,1,0,9,1.2976612913524237
undo,1,5,0,0,0,0,[0],1,29,"[1, 2, 3, 4, 5, 6, 7, 8, 9, 10, 11, 12, 13, 14, 15, 16, 17, 18, 19, 20, 21, 22, 23, 24, 25, 26, 27, 28, 29]",300,168,-1,5,139,9,0.0
undo,1,5,0,0,0,12,"[0, 12]",2,22,"[2, 4, 5, 6, 8, 9, 10, 13, 14, 15, 16, 17, 18, 19, 21, 22, 23, 24, 25, 26, 27, 28]",228.3062067,3874,3706,1,27,9,1.0
undo,1,5,0,0,0,25,"[0, 12, 25]",3,21,"[2, 4, 5, 6, 8, 9, 10, 13, 14, 15, 16, 17, 18, 19, 21, 22, 23, 24, 26, 27, 28]",200.5213187,4284,410,1,20,9,1.584023303445617
undo,1,5,0,0,0,23,"[0, 12, 25, 23]",4,19,"[2, 4, 5, 6, 8, 9, 10, 13, 14, 15, 16, 17, 18, 19, 21, 22, 24, 26, 27]",182.0822298,4612,328,1,14,9,2.3508446989254357
undo,1,5,0,0,0,24,"[0, 12, 25, 23, 24]",5,15,"[2, 4, 5, 6, 8, 9, 13, 14, 15, 17, 18, 19, 22, 26, 27]",158.995437,5492,880,1,12,9,1.9469752046288753
undo,1,5,0,0,0,17,"[0, 12, 25, 23, 24, 17]",6,7,"[4, 5, 6, 8, 15, 18, 19]",124.0097257,6353,861,1,8,9,1.6482276497563642
undo,1,5,0,0,0,5,"[0, 12, 25, 23, 24, 17, 5]",7,4,"[4, 6, 15, 18]",80.96323916,6854,501,1,3,9,1.4654649104389412
undo,1,5,0,0,0,4,"[0, 12, 25, 23, 24, 17, 5, 4]",8,1,[6],15.16050365,7624,770,1,0,9,1.6255060355828674
undo,1,5,0,0,1,6,"[0, 12, 25, 23, 24, 17, 5, 4, 6]",9,0,[],3.118909076,8089,465,1,0,9,1.7777310833772453
undo,1,5,0,1,1,6,"[0, 12, 25, 23, 24, 17, 5, 4, 6]",9,0,[],3.118909076,11294,3205,1,0,9,1.7777310833772453
undo,2,18,0,0,0,0,[0],1,28,"[1, 2, 3, 4, 5, 6, 7, 8, 9, 10, 11, 12, 13, 14, 16, 17, 18, 19, 20, 21, 22, 23, 24, 25, 26, 27, 28, 29]",300,121,-1,3,136,10,0.0
undo,2,18,0,0,0,28,"[0, 28]",2,16,"[1, 3, 5, 7, 8, 9, 12, 13, 14, 16, 20, 23, 24, 25, 26, 27]",236.4311397,4003,3882,2,19,10,1.0
undo,2,18,0,0,0,7,"[0, 28, 7]",3,15,"[1, 3, 5, 8, 9, 12, 13, 14, 16, 20, 23, 24, 25, 26, 27]",214.4084242,4653,650,2,17,10,1.4345180696367563
undo,2,18,0,0,0,25,"[0, 28, 7, 25]",4,13,"[1, 3, 5, 8, 9, 12, 13, 14, 16, 20, 23, 26, 27]",186.6055466,5001,348,2,15,10,1.8896451241781882
undo,2,18,0,0,0,8,"[0, 28, 7, 25, 8]",5,10,"[3, 5, 9, 12, 13, 14, 16, 23, 26, 27]",149.551532,5911,910,2,10,10,1.590467437592877
undo,2,18,0,0,0,13,"[0, 28, 7, 25, 8, 13]",6,9,"[3, 5, 9, 12, 14, 16, 23, 26, 27]",128.4565089,6514,603,2,5,10,1.8248274983549797
undo,2,18,0,0,0,14,"[0, 28, 7, 25, 8, 13, 14]",7,7,"[3, 5, 9, 12, 23, 26, 27]",109.4828429,7042,528,2,3,10,1.6993534956692746
undo,2,18,0,0,0,3,"[0, 28, 7, 25, 8, 13, 14, 3]",8,3,"[5, 12, 27]",79.39962499,8535,1493,2,1,10,1.802637206541468
undo,2,18,0,0,0,5,"[0, 28, 7, 25, 8, 13, 14, 3, 5]",9,1,[12],21.21887216,9145,610,1,0,10,1.559774889743805
undo,2,18,0,0,1,12,"[0, 28, 7, 25, 8, 13, 14, 3, 5, 12]",10,0,[],9.817117911,9611,466,1,0,10,1.563993037384447
undo,2,18,0,1,1,12,"[0, 28, 7, 25, 8, 13, 14, 3, 5, 12]",10,0,[],9.817117911,11983,2372,1,0,10,1.563993037384447
undo,3,17,0,0,0,0,[0],1,28,"[1, 2, 3, 4, 5, 6, 7, 8, 9, 10, 11, 12, 13, 14, 15, 16, 17, 18, 19, 20, 22, 23, 24, 25, 26, 27, 28, 29]",300,116,-1,2,73,8,0.0
undo,3,17,0,0,0,9,"[0, 9]",2,25,"[1, 2, 3, 5, 6, 7, 8, 10, 11, 12, 14, 15, 16, 17, 18, 19, 20, 22, 23, 24, 25, 26, 27, 28, 29]",210.5293344,8760,8644,1,34,8,1.0
undo,3,17,0,0,0,16,"[0, 9, 16]",3,21,"[1, 2, 3, 5, 7, 8, 10, 11, 12, 14, 17, 18, 19, 20, 22, 23, 25, 26, 27, 28, 29]",197.1876704,9200,440,1,26,8,1.173103464220352
undo,3,17,0,0,0,2,"[0, 9, 16, 2]",4,18,"[1, 3, 5, 7, 8, 10, 11, 12, 14, 17, 18, 19, 23, 25, 26, 27, 28, 29]",181.0631549,9934,734,1,23,8,1.14825089247282
undo,3,17,0,0,0,8,"[0, 9, 16, 2, 8]",5,9,"[3, 7, 10, 11, 12, 14, 17, 26, 27]",145.9490551,10822,888,1,9,8,1.1509808066472915
undo,3,17,0,0,0,7,"[0, 9, 16, 2, 8, 7]",6,3,"[10, 12, 27]",75.238377,11676,854,3,0,7,1.2222166608088694
undo,3,17,0,0,1,27,"[0, 9, 16, 2, 8, 7, 27]",7,0,[],21.63800387,12795,1119,1,0,7,1.2961096752539074
undo,3,17,1,0,0,7,"[0, 9, 16, 2, 8, 7]",6,3,"[10, 12, 27]",75.238377,17520,4725,3,0,7,1.2222166608088694
undo,3,17,1,0,0,8,"[0, 9, 16, 2, 8]",5,9,"[3, 7, 10, 11, 12, 14, 17, 26, 27]",145.9490551,17826,306,1,9,8,1.1509808066472915
undo,3,17,1,0,0,2,"[0, 9, 16, 2]",4,18,"[1, 3, 5, 7, 8, 10, 11, 12, 14, 17, 18, 19, 23, 25, 26, 27, 28, 29]",181.0631549,18666,840,1,23,8,1.14825089247282
undo,3,17,0,0,0,10,"[0, 9, 16, 2, 10]",5,4,"[3, 11, 23, 28]",71.04042993,19809,1143,3,2,7,1.2629477265421833
undo,3,17,0,0,0,3,"[0, 9, 16, 2, 10, 3]",6,2,"[11, 28]",44.41337602,20375,566,2,0,7,1.349216507765288
undo,3,17,0,0,1,11,"[0, 9, 16, 2, 10, 3, 11]",7,0,[],18.24087136,20878,503,1,0,7,1.389139472055928
undo,3,17,0,1,1,11,"[0, 9, 16, 2, 10, 3, 11]",7,0,[],18.24087136,27625,6747,1,0,7,1.389139472055928
undo,4,32,0,0,0,0,[0],1,29,"[1, 2, 3, 4, 5, 6, 7, 8, 9, 10, 11, 12, 13, 14, 15, 16, 17, 18, 19, 20, 21, 22, 23, 24, 25, 26, 27, 28, 29]",300,118,-1,17,359,10,0.0
undo,4,32,0,0,0,19,"[0, 19]",2,28,"[1, 2, 3, 4, 5, 6, 7, 8, 9, 10, 11, 12, 13, 14, 15, 16, 17, 18, 20, 21, 22, 23, 24, 25, 26, 27, 28, 29]",283.5075775,4136,4018,16,294,10,1.0
undo,4,32,0,0,0,13,"[0, 19, 13]",3,24,"[2, 3, 4, 5, 6, 8, 9, 10, 11, 12, 14, 15, 16, 17, 18, 20, 21, 22, 23, 24, 25, 26, 27, 28]",260.3127505,4719,583,14,227,10,1.0172874229878615
undo,4,32,0,0,0,15,"[0, 19, 13, 15]",4,18,"[2, 3, 5, 8, 9, 10, 11, 12, 16, 17, 20, 22, 23, 24, 25, 26, 27, 28]",177.4393531,5643,924,9,116,10,1.435447391509833
undo,4,32,0,0,0,28,"[0, 19, 13, 15, 28]",5,17,"[2, 3, 5, 8, 9, 10, 11, 12, 16, 17, 20, 22, 23, 24, 25, 26, 27]",166.0375988,6038,395,9,70,10,1.3843701324937985
undo,4,32,0,0,0,12,"[0, 19, 13, 15, 28, 12]",6,14,"[2, 3, 5, 8, 9, 10, 11, 16, 17, 20, 22, 24, 26, 27]",147.0639329,6885,847,6,35,10,1.358372254952329
undo,4,32,0,0,0,16,"[0, 19, 13, 15, 28, 12, 16]",7,13,"[2, 3, 5, 8, 9, 10, 11, 17, 20, 22, 24, 26, 27]",131.411457,7298,413,5,15,10,1.4356932930709845
undo,4,32,0,0,0,22,"[0, 19, 13, 15, 28, 12, 16, 22]",8,6,"[2, 8, 9, 17, 20, 27]",97.57360838,7830,532,3,5,10,1.4335226411545752
undo,4,32,0,0,0,9,"[0, 19, 13, 15, 28, 12, 16, 22, 9]",9,3,"[2, 8, 20]",75.37000507,8365,535,3,0,10,1.4837166378374758
undo,4,32,0,0,1,20,"[0, 19, 13, 15, 28, 12, 16, 22, 9, 20]",10,0,[],12.72018464,15805,7440,1,0,10,1.420264208067807
undo,4,32,1,0,0,9,"[0, 19, 13, 15, 28, 12, 16, 22, 9]",9,3,"[2, 8, 20]",75.37000507,16660,855,3,0,10,1.4837166378374758
undo,4,32,0,0,1,2,"[0, 19, 13, 15, 28, 12, 16, 22, 9, 2]",10,0,[],24.28184597,17463,803,1,0,10,1.9009621017233784
undo,4,32,1,0,0,9,"[0, 19, 13, 15, 28, 12, 16, 22, 9]",9,3,"[2, 8, 20]",75.37000507,18014,551,3,0,10,1.4837166378374758
undo,4,32,0,0,1,20,"[0, 19, 13, 15, 28, 12, 16, 22, 9, 20]",10,0,[],12.72018464,18470,456,1,0,10,1.420264208067807
undo,4,32,0,1,1,20,"[0, 19, 13, 15, 28, 12, 16, 22, 9, 20]",10,0,[],12.72018464,19958,1488,1,0,10,1.420264208067807
undo,5,6,0,0,0,0,[0],1,29,"[1, 2, 3, 4, 5, 6, 7, 8, 9, 10, 11, 12, 13, 14, 15, 16, 17, 18, 19, 20, 21, 22, 23, 24, 25, 26, 27, 28, 29]",300,120,-1,180,4304,10,0.0
undo,5,6,0,0,0,26,"[0, 26]",2,25,"[1, 2, 3, 4, 5, 6, 7, 8, 9, 10, 11, 12, 13, 14, 15, 16, 17, 18, 20, 21, 22, 23, 24, 27, 29]",250.2606795,4397,4277,45,776,10,1.0
undo,5,6,0,0,0,7,"[0, 26, 7]",3,24,"[1, 2, 3, 4, 5, 6, 8, 9, 10, 11, 12, 13, 14, 15, 16, 17, 18, 20, 21, 22, 23, 24, 27, 29]",226.1774904,4834,437,25,520,10,1.5373018630243536
undo,5,6,0,0,0,3,"[0, 26, 7, 3]",4,22,"[1, 2, 4, 6, 8, 9, 10, 11, 12, 13, 14, 15, 16, 17, 18, 20, 21, 22, 23, 24, 27, 29]",190.0388684,5322,488,20,235,10,3.2798655773210936
undo,5,6,0,0,0,16,"[0, 26, 7, 3, 16]",5,15,"[1, 2, 6, 10, 13, 14, 17, 18, 20, 21, 22, 23, 24, 27, 29]",143.8003563,9125,3803,3,39,10,2.164019536669599
undo,5,6,0,0,0,18,"[0, 26, 7, 3, 16, 18]",6,10,"[1, 2, 6, 10, 13, 17, 22, 23, 24, 29]",120.4551212,9632,507,2,15,10,2.9481162560127245
undo,5,6,0,0,0,17,"[0, 26, 7, 3, 16, 18, 17]",7,8,"[2, 6, 10, 13, 22, 23, 24, 29]",106.526733,10049,417,2,8,10,2.7413386825172235
undo,5,6,0,0,0,10,"[0, 26, 7, 3, 16, 18, 17, 10]",8,4,"[6, 23, 24, 29]",86.80365003,10454,405,2,3,10,2.5276843215308205
undo,5,6,0,0,0,24,"[0, 26, 7, 3, 16, 18, 17, 10, 24]",9,2,"[6, 23]",73.38724217,11076,622,2,0,10,2.329169561976636
undo,5,6,0,0,1,23,"[0, 26, 7, 3, 16, 18, 17, 10, 24, 23]",10,0,[],12.19900801,11757,681,1,0,10,2.14454631567595
undo,5,6,1,0,0,24,"[0, 26, 7, 3, 16, 18, 17, 10, 24]",9,2,"[6, 23]",73.38724217,20024,8267,2,0,10,2.329169561976636
undo,5,6,1,0,0,10,"[0, 26, 7, 3, 16, 18, 17, 10]",8,4,"[6, 23, 24, 29]",86.80365003,20253,229,2,3,10,2.5276843215308205
undo,5,6,1,0,0,17,"[0, 26, 7, 3, 16, 18, 17]",7,8,"[2, 6, 10, 13, 22, 23, 24, 29]",106.526733,20441,188,2,8,10,2.7413386825172235
undo,5,6,1,0,0,18,"[0, 26, 7, 3, 16, 18]",6,10,"[1, 2, 6, 10, 13, 17, 22, 23, 24, 29]",120.4551212,20622,181,2,15,10,2.9481162560127245
undo,5,6,1,0,0,16,"[0, 26, 7, 3, 16]",5,15,"[1, 2, 6, 10, 13, 14, 17, 18, 20, 21, 22, 23, 24, 27, 29]",143.8003563,20781,159,3,39,10,2.164019536669599
undo,5,6,1,0,0,3,"[0, 26, 7, 3]",4,22,"[1, 2, 4, 6, 8, 9, 10, 11, 12, 13, 14, 15, 16, 17, 18, 20, 21, 22, 23, 24, 27, 29]",190.0388684,20948,167,20,235,10,3.2798655773210936
undo,5,6,1,0,0,7,"[0, 26, 7]",3,24,"[1, 2, 3, 4, 5, 6, 8, 9, 10, 11, 12, 13, 14, 15, 16, 17, 18, 20, 21, 22, 23, 24, 27, 29]",226.1774904,21114,166,25,520,10,1.5373018630243536
undo,5,6,1,0,0,26,"[0, 26]",2,25,"[1, 2, 3, 4, 5, 6, 7, 8, 9, 10, 11, 12, 13, 14, 15, 16, 17, 18, 20, 21, 22, 23, 24, 27, 29]",250.2606795,21309,195,45,776,10,1.0
undo,5,6,1,0,0,0,[0],1,29,"[1, 2, 3, 4, 5, 6, 7, 8, 9, 10, 11, 12, 13, 14, 15, 16, 17, 18, 19, 20, 21, 22, 23, 24, 25, 26, 27, 28, 29]",300,21587,278,180,4304,10,0.0
undo,5,6,0,0,0,3,"[0, 3]",2,28,"[1, 2, 4, 5, 6, 7, 8, 9, 10, 11, 12, 13, 14, 15, 16, 17, 18, 19, 20, 21, 22, 23, 24, 25, 26, 27, 28, 29]",266.4738908,21917,330,90,1607,10,1.0
undo,5,6,0,0,0,16,"[0, 3, 16]",3,27,"[1, 2, 4, 5, 6, 7, 8, 9, 10, 11, 12, 13, 14, 15, 17, 18, 19, 20, 21, 22, 23, 24, 25, 26, 27, 28, 29]",220.2353787,23849,1932,16,190,10,1.1050742161728249
undo,5,6,0,0,0,18,"[0, 3, 16, 18]",4,24,"[1, 2, 4, 5, 6, 7, 8, 9, 10, 11, 12, 13, 14, 15, 17, 19, 20, 21, 22, 23, 24, 26, 27, 29]",196.8901436,25014,1165,10,97,10,1.6930577237270534
undo,5,6,0,0,0,17,"[0, 3, 16, 18, 17]",5,20,"[1, 2, 4, 5, 6, 7, 8, 9, 10, 11, 13, 14, 20, 21, 22, 23, 24, 26, 27, 29]",182.9617553,25481,467,8,58,10,1.6583245453234965
undo,5,6,0,0,0,10,"[0, 3, 16, 18, 17, 10]",6,17,"[1, 2, 4, 5, 6, 7, 8, 11, 13, 14, 21, 22, 23, 24, 26, 27, 29]",163.2386724,25864,383,6,33,10,1.6214605156931816
undo,5,6,0,0,0,24,"[0, 3, 16, 18, 17, 10, 24]",7,15,"[1, 2, 4, 5, 6, 7, 8, 11, 13, 14, 22, 23, 26, 27, 29]",149.8222646,26521,657,6,18,10,1.5435556829623227
undo,5,6,0,0,0,23,"[0, 3, 16, 18, 17, 10, 24, 23]",8,6,"[6, 11, 14, 22, 27, 29]",88.6340304,27073,552,3,4,10,1.5749914836315253
undo,5,6,0,0,0,22,"[0, 3, 16, 18, 17, 10, 24, 23, 22]",9,2,"[14, 27]",47.6340304,27598,525,2,0,10,1.6207636864423158
undo,5,6,0,0,1,14,"[0, 3, 16, 18, 17, 10, 24, 23, 22, 14]",10,0,[],13.22472933,28760,1162,1,0,10,1.7051539946832646
undo,5,6,1,0,0,22,"[0, 3, 16, 18, 17, 10, 24, 23, 22]",9,2,"[14, 27]",47.6340304,29303,543,2,0,10,1.6207636864423158
undo,5,6,0,0,1,14,"[0, 3, 16, 18, 17, 10, 24, 23, 22, 14]",10,0,[],13.22472933,32807,3504,1,0,10,1.7051539946832646
undo,5,6,0,1,1,14,"[0, 3, 16, 18, 17, 10, 24, 23, 22, 14]",10,0,[],13.22472933,34018,1211,1,0,10,1.7051539946832646
undo,6,7,0,0,0,0,[0],1,29,"[1, 2, 3, 4, 5, 6, 7, 8, 9, 10, 11, 12, 13, 14, 15, 16, 17, 18, 19, 20, 21, 22, 23, 24, 25, 26, 27, 28, 29]",300,116,-1,3,79,9,0.0
undo,6,7,0,0,0,15,"[0, 15]",2,19,"[2, 4, 5, 6, 7, 8, 9, 10, 13, 14, 16, 18, 19, 20, 21, 23, 25, 27, 28]",230.9348134,2997,2881,2,38,9,1.0
undo,6,7,0,0,0,6,"[0, 15, 6]",3,18,"[2, 4, 5, 7, 8, 9, 10, 13, 14, 16, 18, 19, 20, 21, 23, 25, 27, 28]",205.854941,3745,748,2,36,9,1.366719602896943
undo,6,7,0,0,0,25,"[0, 15, 6, 25]",4,11,"[2, 4, 7, 13, 14, 16, 18, 19, 20, 21, 23]",138.6760753,4488,743,2,28,9,1.3624631728355765
undo,6,7,0,0,0,4,"[0, 15, 6, 25, 4]",5,7,"[2, 7, 13, 16, 18, 19, 20]",113.9374415,5023,535,2,12,9,1.3249684384385587
undo,6,7,0,0,0,20,"[0, 15, 6, 25, 4, 20]",6,5,"[2, 7, 13, 18, 19]",94.29055881,5357,334,1,6,9,1.3721893242679268
undo,6,7,0,0,0,18,"[0, 15, 6, 25, 4, 20, 18]",7,3,"[7, 13, 19]",81.48431034,5648,291,1,2,9,1.5262542308371432
undo,6,7,0,0,0,7,"[0, 15, 6, 25, 4, 20, 18, 7]",8,1,[19],40.25325408,6134,486,1,0,9,1.41986878673423
undo,6,7,0,0,1,19,"[0, 15, 6, 25, 4, 20, 18, 7, 19]",9,0,[],10.84237174,6940,806,1,0,9,1.5285658163212987
undo,6,7,0,1,1,19,"[0, 15, 6, 25, 4, 20, 18, 7, 19]",9,0,[],10.84237174,8228,1288,1,0,9,1.5285658163212987
undo,7,33,0,0,0,0,[0],1,23,"[1, 2, 5, 7, 8, 11, 12, 13, 14, 15, 16, 17, 18, 19, 20, 21, 23, 24, 25, 26, 27, 28, 29]",300,115,-1,5,108,9,0.0
undo,7,33,0,0,0,21,"[0, 21]",2,17,"[2, 5, 7, 8, 11, 13, 14, 16, 17, 18, 19, 20, 24, 26, 27, 28, 29]",174.4611614,4954,4839,21,129,8,1.0
undo,7,33,0,0,0,13,"[0, 21, 13]",3,15,"[2, 5, 7, 8, 11, 14, 16, 17, 18, 19, 20, 24, 26, 28, 29]",148.0604038,5571,617,17,72,8,1.0001005298764474
undo,7,33,0,0,0,17,"[0, 21, 13, 17]",4,10,"[2, 7, 11, 14, 16, 19, 20, 24, 26, 29]",125.2568953,6363,792,6,21,8,1.0965005103980894
undo,7,33,0,0,0,29,"[0, 21, 13, 17, 29]",5,7,"[7, 11, 14, 19, 20, 24, 26]",73.77874462,8633,2270,5,3,8,1.075477449032161
undo,7,33,0,0,0,26,"[0, 21, 13, 17, 29, 26]",6,2,"[7, 14]",45.88609325,9050,417,2,0,8,1.1231999599010887
undo,7,33,0,0,0,14,"[0, 21, 13, 17, 29, 26, 14]",7,1,[7],33.23698261,9384,334,1,0,8,1.2296360569757379
undo,7,33,0,0,1,7,"[0, 21, 13, 17, 29, 26, 14, 7]",8,0,[],18.37091387,9973,589,1,0,8,1.3215761464415763
undo,7,33,1,0,0,14,"[0, 21, 13, 17, 29, 26, 14]",7,1,[7],33.23698261,11324,1351,1,0,8,1.2296360569757379
undo,7,33,1,0,0,26,"[0, 21, 13, 17, 29, 26]",6,2,"[7, 14]",45.88609325,11573,249,2,0,8,1.1231999599010887
undo,7,33,1,0,0,29,"[0, 21, 13, 17, 29]",5,7,"[7, 11, 14, 19, 20, 24, 26]",73.77874462,11865,292,5,3,8,1.075477449032161
undo,7,33,1,0,0,17,"[0, 21, 13, 17]",4,10,"[2, 7, 11, 14, 16, 19, 20, 24, 26, 29]",125.2568953,12462,597,6,21,8,1.0965005103980894
undo,7,33,0,0,0,7,"[0, 21, 13, 17, 7]",5,5,"[14, 19, 24, 26, 29]",54.59573201,13855,1393,4,3,7,1.151587115049735
undo,7,33,0,0,0,14,"[0, 21, 13, 17, 7, 14]",6,2,"[26, 29]",39.72966327,14230,375,2,0,7,1.1997082419282226
undo,7,33,0,0,1,26,"[0, 21, 13, 17, 7, 14, 26]",7,0,[],27.08055263,14709,479,1,0,7,1.2063216699265173
undo,7,33,1,0,0,14,"[0, 21, 13, 17, 7, 14]",6,2,"[26, 29]",39.72966327,16400,1691,2,0,7,1.1997082419282226
undo,7,33,1,0,0,7,"[0, 21, 13, 17, 7]",5,5,"[14, 19, 24, 26, 29]",54.59573201,16678,278,4,3,7,1.151587115049735
undo,7,33,1,0,0,17,"[0, 21, 13, 17]",4,10,"[2, 7, 11, 14, 16, 19, 20, 24, 26, 29]",125.2568953,16886,208,6,21,8,1.0965005103980894
undo,7,33,1,0,0,13,"[0, 21, 13]",3,15,"[2, 5, 7, 8, 11, 14, 16, 17, 18, 19, 20, 24, 26, 28, 29]",148.0604038,17095,209,17,72,8,1.0001005298764474
undo,7,33,0,0,0,19,"[0, 21, 13, 19]",4,11,"[7, 11, 14, 16, 17, 18, 20, 24, 26, 28, 29]",122.5653063,17753,658,10,27,8,1.0588446738393702
undo,7,33,0,0,0,7,"[0, 21, 13, 19, 7]",5,7,"[14, 16, 17, 18, 24, 26, 29]",76.94732734,18217,464,3,5,8,1.0466997412739754
undo,7,33,0,0,0,14,"[0, 21, 13, 19, 7, 14]",6,3,"[24, 26, 29]",62.0812586,18577,360,2,1,8,1.096679239566485
undo,7,33,0,0,0,26,"[0, 21, 13, 19, 7, 14, 26]",7,1,[29],49.43214796,18885,308,1,0,8,1.1075261679429118
undo,7,33,0,0,1,29,"[0, 21, 13, 19, 7, 14, 26, 29]",8,0,[],21.53949659,19455,570,1,0,8,1.3238278222819673
undo,7,33,0,1,1,29,"[0, 21, 13, 19, 7, 14, 26, 29]",8,0,[],21.53949659,23247,3792,1,0,8,1.3238278222819673
undo,8,22,0,0,0,0,[0],1,29,"[1, 2, 3, 4, 5, 6, 7, 8, 9, 10, 11, 12, 13, 14, 15, 16, 17, 18, 19, 20, 21, 22, 23, 24, 25, 26, 27, 28, 29]",300,117,-1,31,704,9,0.0
undo,8,22,0,0,0,16,"[0, 16]",2,21,"[1, 3, 6, 7, 8, 9, 11, 13, 14, 15, 17, 18, 19, 20, 21, 22, 24, 25, 27, 28, 29]",218.605897,3412,3295,17,147,9,1.0
undo,8,22,1,0,0,0,[0],1,29,"[1, 2, 3, 4, 5, 6, 7, 8, 9, 10, 11, 12, 13, 14, 15, 16, 17, 18, 19, 20, 21, 22, 23, 24, 25, 26, 27, 28, 29]",300,5367,1955,31,704,9,0.0
undo,8,22,0,0,0,6,"[0, 6]",2,19,"[1, 3, 7, 8, 9, 11, 13, 14, 15, 16, 17, 19, 20, 21, 22, 24, 25, 28, 29]",211.3828459,5711,344,1,73,9,1.0
undo,8,22,0,0,0,9,"[0, 6, 9]",3,17,"[1, 3, 7, 8, 13, 14, 15, 16, 17, 19, 20, 21, 22, 24, 25, 28, 29]",184.755792,6074,363,1,39,9,1.2868618423088127
undo,8,22,0,0,0,19,"[0, 6, 9, 19]",4,16,"[1, 3, 7, 8, 13, 14, 15, 16, 17, 20, 21, 22, 24, 25, 28, 29]",164.3597139,6474,400,1,29,9,1.7035075715300563
undo,8,22,0,0,0,29,"[0, 6, 9, 19, 29]",5,14,"[1, 3, 7, 8, 13, 14, 15, 16, 17, 20, 21, 24, 25, 28]",149.3264176,6803,329,1,21,9,1.9566347729231615
undo,8,22,0,0,0,13,"[0, 6, 9, 19, 29, 13]",6,2,"[8, 15]",56.26729657,7336,533,1,1,8,2.2021442374546685
undo,8,22,0,0,0,15,"[0, 6, 9, 19, 29, 13, 15]",7,1,[8],40.71094738,7649,313,1,0,8,2.0575904326297403
undo,8,22,0,0,1,8,"[0, 6, 9, 19, 29, 13, 15, 8]",8,0,[],13.50800636,8072,423,1,0,8,1.8846526095564362
undo,8,22,0,1,1,8,"[0, 6, 9, 19, 29, 13, 15, 8]",8,0,[],13.50800636,16527,8455,1,0,8,1.8846526095564362
undo,9,26,0,0,0,0,[0],1,29,"[1, 2, 3, 4, 5, 6, 7, 8, 9, 10, 11, 12, 13, 14, 15, 16, 17, 18, 19, 20, 21, 22, 23, 24, 25, 26, 27, 28, 29]",300,122,-1,9,226,9,0.0
undo,9,26,0,0,0,21,"[0, 21]",2,25,"[2, 3, 4, 5, 6, 7, 8, 10, 11, 12, 13, 14, 15, 16, 17, 18, 19, 22, 23, 24, 25, 26, 27, 28, 29]",211.1349337,3919,3797,7,90,9,1.0
undo,9,26,0,0,0,16,"[0, 21, 16]",3,12,"[4, 5, 6, 10, 11, 12, 13, 14, 17, 23, 26, 29]",151.2266705,4983,1064,1,34,9,1.3289691188319968
undo,9,26,0,0,0,29,"[0, 21, 16, 29]",4,8,"[4, 5, 6, 10, 13, 14, 17, 23]",127.0192337,5349,366,1,28,9,1.4156891800947415
undo,9,26,0,0,0,4,"[0, 21, 16, 29, 4]",5,5,"[6, 10, 14, 17, 23]",103.0192337,6188,839,1,12,9,1.6252228687746915
undo,9,26,0,0,0,17,"[0, 21, 16, 29, 4, 17]",6,3,"[6, 10, 14]",81.92421056,7002,814,1,4,9,1.534793846471065
undo,9,26,0,0,0,14,"[0, 21, 16, 29, 4, 17, 14]",7,2,"[6, 10]",59.45200551,9630,2628,1,1,9,1.4926767408397108
undo,9,26,0,0,0,6,"[0, 21, 16, 29, 4, 17, 14, 6]",8,1,[10],38.42820947,10196,566,1,0,9,1.6286010900012204
undo,9,26,0,0,1,10,"[0, 21, 16, 29, 4, 17, 14, 6, 10]",9,0,[],9.153647129,10863,667,1,0,9,1.797369356615424
undo,9,26,0,1,1,10,"[0, 21, 16, 29, 4, 17, 14, 6, 10]",9,0,[],9.153647129,12442,1579,1,0,9,1.797369356615424
undo,10,21,0,0,0,0,[0],1,29,"[1, 2, 3, 4, 5, 6, 7, 8, 9, 10, 11, 12, 13, 14, 15, 16, 17, 18, 19, 20, 21, 22, 23, 24, 25, 26, 27, 28, 29]",300,121,-1,84,830,9,0.0
undo,10,21,0,0,0,20,"[0, 20]",2,28,"[1, 2, 3, 4, 5, 6, 7, 8, 9, 10, 11, 12, 13, 14, 15, 16, 17, 18, 19, 21, 22, 23, 24, 25, 26, 27, 28, 29]",217.6228187,3048,2927,6,67,9,1.0
undo,10,21,0,0,0,22,"[0, 20, 22]",3,23,"[2, 4, 6, 7, 8, 9, 10, 11, 12, 13, 14, 15, 16, 17, 18, 19, 21, 23, 24, 25, 26, 27, 29]",189.3916303,4375,1327,6,47,9,1.3451865712078994
undo,10,21,0,0,0,18,"[0, 20, 22, 18]",4,20,"[2, 4, 6, 7, 8, 9, 10, 11, 12, 14, 15, 16, 17, 21, 23, 24, 25, 26, 27, 29]",162.9908727,5077,702,4,25,9,2.3191924394507706
undo,10,21,0,0,0,29,"[0, 20, 22, 18, 29]",5,16,"[2, 4, 6, 7, 8, 10, 12, 14, 15, 16, 17, 21, 23, 24, 25, 27]",134.3377751,6043,966,2,10,9,1.9554738681863184
undo,10,21,0,0,0,25,"[0, 20, 22, 18, 29, 25]",6,5,"[4, 14, 17, 21, 23]",89.11609892,6647,604,2,5,9,3.5255206171255487
undo,10,21,0,0,0,23,"[0, 20, 22, 18, 29, 25, 23]",7,3,"[4, 14, 21]",45.79174087,7167,520,1,2,9,2.5672363743380044
undo,10,21,0,0,1,21,"[0, 20, 22, 18, 29, 25, 23, 21]",8,0,[],16.17755508,7820,653,1,0,8,3.1574832580391976
undo,10,21,1,0,0,23,"[0, 20, 22, 18, 29, 25, 23]",7,3,"[4, 14, 21]",45.79174087,8670,850,1,2,9,2.5672363743380044
undo,10,21,1,0,0,25,"[0, 20, 22, 18, 29, 25]",6,5,"[4, 14, 17, 21, 23]",89.11609892,8906,236,2,5,9,3.5255206171255487
undo,10,21,1,0,0,29,"[0, 20, 22, 18, 29]",5,16,"[2, 4, 6, 7, 8, 10, 12, 14, 15, 16, 17, 21, 23, 24, 25, 27]",134.3377751,9156,250,2,10,9,1.9554738681863184
undo,10,21,1,0,0,18,"[0, 20, 22, 18]",4,20,"[2, 4, 6, 7, 8, 9, 10, 11, 12, 14, 15, 16, 17, 21, 23, 24, 25, 26, 27, 29]",162.9908727,9386,230,4,25,9,2.3191924394507706
undo,10,21,1,0,0,22,"[0, 20, 22]",3,23,"[2, 4, 6, 7, 8, 9, 10, 11, 12, 13, 14, 15, 16, 17, 18, 19, 21, 23, 24, 25, 26, 27, 29]",189.3916303,9622,236,6,47,9,1.3451865712078994
undo,10,21,1,0,0,20,"[0, 20]",2,28,"[1, 2, 3, 4, 5, 6, 7, 8, 9, 10, 11, 12, 13, 14, 15, 16, 17, 18, 19, 21, 22, 23, 24, 25, 26, 27, 28, 29]",217.6228187,9934,312,6,67,9,1.0
undo,10,21,1,0,0,0,[0],1,29,"[1, 2, 3, 4, 5, 6, 7, 8, 9, 10, 11, 12, 13, 14, 15, 16, 17, 18, 19, 20, 21, 22, 23, 24, 25, 26, 27, 28, 29]",300,10288,354,84,830,9,0.0
undo,10,21,0,0,0,25,"[0, 25]",2,26,"[1, 2, 3, 4, 5, 6, 7, 8, 9, 10, 11, 12, 13, 14, 15, 16, 17, 18, 20, 21, 22, 23, 24, 26, 27, 29]",240.1836143,11570,1282,30,238,9,1.0
undo,10,21,0,0,0,23,"[0, 25, 23]",3,21,"[1, 2, 4, 6, 7, 8, 9, 10, 11, 12, 14, 15, 16, 17, 18, 20, 21, 22, 24, 27, 29]",196.8592562,12063,493,14,80,9,1.0416131642057598
undo,10,21,0,0,0,21,"[0, 25, 23, 21]",4,14,"[1, 4, 6, 8, 9, 14, 15, 16, 17, 18, 20, 22, 24, 29]",167.2450705,12537,474,10,25,9,1.4768792067751173
undo,10,21,0,0,0,14,"[0, 25, 23, 21, 14]",5,10,"[4, 8, 9, 15, 16, 17, 18, 22, 24, 29]",141.6325735,12966,429,8,13,9,1.3826076066332742
undo,10,21,0,0,0,4,"[0, 25, 23, 21, 14, 4]",6,7,"[8, 15, 16, 17, 18, 24, 29]",127.4904379,13321,355,8,3,9,1.3487191473328533
undo,10,21,0,0,0,16,"[0, 25, 23, 21, 14, 4, 16]",7,3,"[8, 15, 24]",82.89223163,13953,632,4,1,9,1.3301484172843694
undo,10,21,0,0,0,8,"[0, 25, 23, 21, 14, 4, 16, 8]",8,2,"[15, 24]",64.2911564,14431,478,2,0,9,1.3009886562393016
undo,10,21,0,0,1,15,"[0, 25, 23, 21, 14, 4, 16, 8, 15]",9,0,[],39.2911564,15092,661,1,0,9,1.5486591410600183
undo,10,21,0,1,1,15,"[0, 25, 23, 21, 14, 4, 16, 8, 15]",9,0,[],39.2911564,17525,2433,1,0,9,1.5486591410600183
undo,11,14,0,0,0,0,[0],1,29,"[1, 2, 3, 4, 5, 6, 7, 8, 9, 10, 11, 12, 13, 14, 15, 16, 17, 18, 19, 20, 21, 22, 23, 24, 25, 26, 27, 28, 29]",300,125,-1,8,157,10,0.0
undo,11,14,0,0,0,15,"[0, 15]",2,20,"[1, 2, 3, 4, 7, 8, 9, 13, 17, 18, 19, 20, 21, 22, 23, 25, 26, 27, 28, 29]",216.7053423,2528,2403,8,102,10,1.0
undo,11,14,0,0,0,28,"[0, 15, 28]",3,17,"[1, 2, 3, 4, 7, 8, 9, 13, 17, 18, 19, 20, 22, 23, 25, 26, 27]",197.4959696,2956,428,8,48,10,1.0446007867311968
undo,11,14,0,0,0,17,"[0, 15, 28, 17]",4,14,"[1, 2, 3, 4, 7, 8, 13, 18, 19, 20, 22, 23, 25, 26]",184.0423455,3407,451,8,39,10,1.0729463354689972
undo,11,14,0,0,0,18,"[0, 15, 28, 17, 18]",5,9,"[1, 2, 4, 7, 8, 19, 23, 25, 26]",119.412631,4091,684,8,27,10,1.5035901079219378
undo,11,14,0,0,0,8,"[0, 15, 28, 17, 18, 8]",6,8,"[1, 2, 4, 7, 19, 23, 25, 26]",105.8111605,4429,338,8,18,10,1.4819689987843856
undo,11,14,0,0,0,1,"[0, 15, 28, 17, 18, 8, 1]",7,5,"[7, 19, 23, 25, 26]",82.21031307,5694,1265,4,6,10,1.4084991998385268
undo,11,14,0,0,0,19,"[0, 15, 28, 17, 18, 8, 1, 19]",8,4,"[7, 23, 25, 26]",66.97876686,6540,846,4,1,10,1.5758713333797987
undo,11,14,0,0,0,25,"[0, 15, 28, 17, 18, 8, 1, 19, 25]",9,2,"[7, 23]",31.1318702,9846,3306,2,0,10,1.6426186864061416
undo,11,14,0,0,1,23,"[0, 15, 28, 17, 18, 8, 1, 19, 25, 23]",10,0,[],1.72098786,11081,1235,1,0,10,1.586837442491671
undo,11,14,0,1,1,23,"[0, 15, 28, 17, 18, 8, 1, 19, 25, 23]",10,0,[],1.72098786,14265,3184,1,0,10,1.586837442491671
undo,12,31,0,0,0,0,[0],1,27,"[1, 3, 4, 5, 6, 7, 8, 10, 11, 12, 13, 14, 15, 16, 17, 18, 19, 20, 21, 22, 23, 24, 25, 26, 27, 28, 29]",300,169,-1,2,87,10,0.0
undo,12,31,0,0,0,27,"[0, 27]",2,26,"[1, 3, 4, 5, 6, 7, 8, 10, 11, 12, 13, 14, 15, 16, 17, 18, 19, 20, 21, 22, 23, 24, 25, 26, 28, 29]",259.5030865,4111,3942,14,191,9,1.0
undo,12,31,0,0,0,8,"[0, 27, 8]",3,23,"[1, 3, 5, 6, 7, 10, 11, 12, 13, 14, 15, 16, 17, 18, 19, 20, 21, 22, 24, 25, 26, 28, 29]",248.4577255,4528,417,9,131,9,1.481736210960148
undo,12,31,0,0,0,18,"[0, 27, 8, 18]",4,19,"[1, 3, 5, 6, 7, 10, 11, 12, 13, 14, 16, 17, 19, 20, 21, 22, 25, 28, 29]",212.6108289,5270,742,5,65,9,1.3573609555685873
undo,12,31,0,0,0,17,"[0, 27, 8, 18, 17]",5,14,"[1, 5, 6, 7, 11, 12, 13, 14, 16, 19, 20, 22, 25, 28]",183.4046651,8132,2862,4,35,9,1.288051401172667
undo,12,31,0,0,0,25,"[0, 27, 8, 18, 17, 25]",6,9,"[1, 5, 6, 11, 12, 16, 20, 22, 28]",122.9646122,9000,868,1,9,9,1.2272540714102327
undo,12,31,0,0,0,22,"[0, 27, 8, 18, 17, 25, 22]",7,2,"[1, 12]",73.31584584,9667,667,2,0,8,1.504953412490697
undo,12,31,1,0,0,25,"[0, 27, 8, 18, 17, 25]",6,9,"[1, 5, 6, 11, 12, 16, 20, 22, 28]",122.9646122,10773,1106,1,9,9,1.2272540714102327
undo,12,31,0,0,0,12,"[0, 27, 8, 18, 17, 25, 12]",7,4,"[1, 6, 20, 22]",92.3704951,11284,511,1,3,9,1.1965776935876866
undo,12,31,0,0,1,1,"[0, 27, 8, 18, 17, 25, 12, 1]",8,0,[],30.97016937,13478,2194,1,0,8,1.4335062706368247
undo,12,31,1,0,0,12,"[0, 27, 8, 18, 17, 25, 12]",7,4,"[1, 6, 20, 22]",92.3704951,14461,983,1,3,9,1.1965776935876866
undo,12,31,0,0,0,22,"[0, 27, 8, 18, 17, 25, 12, 22]",8,1,[1],41.88287286,14988,527,1,0,9,1.7136365475173718
undo,12,31,0,0,1,1,"[0, 27, 8, 18, 17, 25, 12, 22, 1]",9,0,[],3.764635752,15555,567,1,0,9,1.5784690167609159
undo,12,31,0,1,1,1,"[0, 27, 8, 18, 17, 25, 12, 22, 1]",9,0,[],3.764635752,17669,2114,1,0,9,1.5784690167609159
undo,13,20,0,0,0,0,[0],1,21,"[1, 2, 3, 4, 5, 6, 7, 8, 9, 12, 17, 18, 20, 21, 22, 23, 25, 26, 27, 28, 29]",300,113,-1,1,9,9,0.0
undo,13,20,0,0,0,12,"[0, 12]",2,20,"[1, 2, 3, 4, 5, 6, 7, 8, 9, 17, 18, 20, 21, 22, 23, 25, 26, 27, 28, 29]",271.5570747,2653,2540,1,8,9,1.0
undo,13,20,0,0,0,1,"[0, 12, 1]",3,12,"[3, 4, 5, 6, 8, 9, 20, 21, 23, 27, 28, 29]",189.5692707,3586,933,1,6,9,1.0757997779162911
undo,13,20,0,0,0,5,"[0, 12, 1, 5]",4,10,"[4, 6, 8, 9, 20, 21, 23, 27, 28, 29]",152.8950291,4161,575,1,5,9,1.1708231454516806
undo,13,20,0,0,0,21,"[0, 12, 1, 5, 21]",5,8,"[4, 6, 8, 9, 20, 23, 27, 28]",107.8950291,4756,595,1,4,9,1.126197336199212
undo,13,20,0,0,0,8,"[0, 12, 1, 5, 21, 8]",6,5,"[6, 9, 23, 27, 28]",90.43077988,5152,396,1,3,9,1.140007470699913
undo,13,20,0,0,0,23,"[0, 12, 1, 5, 21, 8, 23]",7,2,"[6, 9]",45.74297394,5749,597,1,1,9,1.1162257896627588
undo,13,20,0,0,0,9,"[0, 12, 1, 5, 21, 8, 23, 9]",8,1,[6],26.53360123,6187,438,1,0,9,1.1086880559449597
undo,13,20,0,0,1,6,"[0, 12, 1, 5, 21, 8, 23, 9, 6]",9,0,[],3.511872362,6805,618,1,0,9,1.1186240265999328
undo,13,20,0,1,1,6,"[0, 12, 1, 5, 21, 8, 23, 9, 6]",9,0,[],3.511872362,8309,1504,1,0,9,1.1186240265999328
undo,14,10,0,0,0,0,[0],1,29,"[1, 2, 3, 4, 5, 6, 7, 8, 9, 10, 11, 12, 13, 14, 15, 16, 17, 18, 19, 20, 21, 22, 23, 24, 25, 26, 27, 28, 29]",300,121,-1,1,100,9,0.0
undo,14,10,0,0,0,13,"[0, 13]",2,25,"[1, 2, 3, 4, 6, 7, 8, 9, 10, 11, 12, 14, 17, 18, 19, 20, 21, 22, 23, 24, 25, 26, 27, 28, 29]",249.4628849,5153,5032,1,79,9,1.0
undo,14,10,0,0,0,11,"[0, 13, 11]",3,20,"[1, 2, 3, 6, 7, 8, 9, 10, 12, 14, 18, 19, 20, 21, 22, 24, 26, 27, 28, 29]",206.4512586,5716,563,1,54,9,1.0313137484914219
undo,14,10,0,0,0,19,"[0, 13, 11, 19]",4,11,"[2, 6, 8, 9, 10, 14, 18, 20, 24, 26, 27]",170.0919407,6466,750,1,22,9,1.0879446220132545
undo,14,10,0,0,0,2,"[0, 13, 11, 19, 2]",5,4,"[14, 20, 26, 27]",126.1829439,7139,673,1,4,9,1.06474052351343
undo,14,10,0,0,0,14,"[0, 13, 11, 19, 2, 14]",6,3,"[20, 26, 27]",114.0174188,7501,362,1,3,9,1.1628909195912238
undo,14,10,0,0,0,26,"[0, 13, 11, 19, 2, 14, 26]",7,2,"[20, 27]",79.34754716,8015,514,1,1,9,1.6660727647633602
undo,14,10,0,0,0,20,"[0, 13, 11, 19, 2, 14, 26, 20]",8,1,[27],47.56704999,8507,492,1,0,9,2.085581809637999
undo,14,10,0,0,1,27,"[0, 13, 11, 19, 2, 14, 26, 20, 27]",9,0,[],2.312215998,9042,535,1,0,9,1.9116357409137932
undo,14,10,0,1,1,27,"[0, 13, 11, 19, 2, 14, 26, 20, 27]",9,0,[],2.312215998,9899,857,1,0,9,1.9116357409137932
undo,15,1,0,0,0,0,[0],1,26,"[1, 2, 4, 5, 7, 8, 9, 10, 11, 12, 13, 14, 15, 16, 17, 18, 19, 20, 21, 22, 23, 24, 25, 26, 28, 29]",300,121,-1,6,74,7,0.0
undo,15,1,0,0,0,14,"[0, 14]",2,19,"[1, 4, 5, 8, 9, 13, 15, 17, 18, 19, 20, 21, 22, 23, 24, 25, 26, 28, 29]",200.1901808,4585,4464,5,42,7,1.0
undo,15,1,0,0,0,17,"[0, 14, 17]",3,15,"[1, 4, 5, 8, 9, 13, 15, 18, 19, 20, 22, 23, 25, 28, 29]",147.8356204,5634,1049,5,27,7,1.0028844724416826
undo,15,1,0,0,0,1,"[0, 14, 17, 1]",4,12,"[4, 5, 8, 9, 15, 18, 20, 22, 23, 25, 28, 29]",123.4840291,6222,588,5,15,7,1.0264985578353567
undo,15,1,0,0,0,28,"[0, 14, 17, 1, 28]",5,5,"[9, 15, 22, 23, 29]",88.59850198,6647,425,5,3,7,1.0339861575999345
undo,15,1,0,0,0,15,"[0, 14, 17, 1, 28, 15]",6,3,"[22, 23, 29]",53.37067208,8279,1632,3,0,7,1.055553419196412
undo,15,1,1,0,0,28,"[0, 14, 17, 1, 28]",5,5,"[9, 15, 22, 23, 29]",88.59850198,9713,1434,5,3,7,1.0339861575999345
undo,15,1,0,0,0,23,"[0, 14, 17, 1, 28, 23]",6,2,"[15, 22]",51.70676849,10126,413,2,0,7,1.0327458250705703
undo,15,1,0,0,1,22,"[0, 14, 17, 1, 28, 23, 22]",7,0,[],3.696352956,11668,1542,1,0,7,1.0700788216594126
undo,15,1,0,1,1,22,"[0, 14, 17, 1, 28, 23, 22]",7,0,[],3.696352956,13220,1552,1,0,7,1.0700788216594126
undo,16,23,0,0,0,0,[0],1,28,"[1, 2, 3, 4, 5, 6, 7, 8, 9, 10, 11, 12, 13, 14, 15, 16, 17, 18, 19, 20, 21, 22, 23, 25, 26, 27, 28, 29]",300,122,-1,76,2626,10,0.0
undo,16,23,0,0,0,13,"[0, 13]",2,19,"[1, 2, 3, 5, 6, 7, 8, 9, 10, 12, 14, 17, 18, 19, 21, 22, 23, 27, 29]",189.3202819,4392,4270,9,168,10,1.0
undo,16,23,0,0,0,12,"[0, 13, 12]",3,16,"[1, 2, 3, 6, 7, 8, 9, 10, 14, 17, 18, 21, 22, 23, 27, 29]",177.2372359,6493,2101,9,96,10,1.0014195490503164
undo,16,23,0,0,0,2,"[0, 13, 12, 2]",4,12,"[1, 3, 6, 7, 9, 10, 14, 18, 21, 22, 27, 29]",163.3447919,7419,926,4,30,10,1.0014394317924602
undo,16,23,0,0,0,9,"[0, 13, 12, 2, 9]",5,10,"[1, 6, 7, 10, 14, 18, 21, 22, 27, 29]",150.3063871,7924,505,1,8,10,1.1457747074799831
undo,16,23,0,0,0,14,"[0, 13, 12, 2, 9, 14]",6,8,"[1, 6, 7, 10, 18, 22, 27, 29]",139.8660806,8278,354,1,6,10,1.1365880299138118
undo,16,23,0,0,0,29,"[0, 13, 12, 2, 9, 14, 29]",7,5,"[1, 6, 7, 10, 22]",92.43191571,8952,674,1,3,10,1.3460297288480787
undo,16,23,0,0,0,7,"[0, 13, 12, 2, 9, 14, 29, 7]",8,2,"[1, 10]",68.34872655,9862,910,1,1,10,1.3773159292410473
undo,16,23,0,0,0,10,"[0, 13, 12, 2, 9, 14, 29, 7, 10]",9,1,[1],40.88966612,10446,584,1,0,10,1.3556884556214648
undo,16,23,0,0,1,1,"[0, 13, 12, 2, 9, 14, 29, 7, 10, 1]",10,0,[],12.23656855,11558,1112,1,0,10,1.3259861306330887
undo,16,23,0,1,1,1,"[0, 13, 12, 2, 9, 14, 29, 7, 10, 1]",10,0,[],12.23656855,15802,4244,1,0,10,1.3259861306330887
undo,17,38,0,0,0,0,[0],1,29,"[1, 2, 3, 4, 5, 6, 7, 8, 9, 10, 11, 12, 13, 14, 15, 16, 17, 18, 19, 20, 21, 22, 23, 24, 25, 26, 27, 28, 29]",300,121,-1,33,506,9,0.0
undo,17,38,0,0,0,11,"[0, 11]",2,23,"[1, 2, 3, 4, 5, 7, 10, 12, 13, 14, 15, 16, 17, 18, 19, 20, 21, 22, 24, 25, 26, 27, 28]",220.093805,7240,7119,2,40,9,1.0
undo,17,38,0,0,0,28,"[0, 11, 28]",3,16,"[1, 4, 5, 7, 10, 12, 13, 14, 15, 16, 17, 19, 20, 21, 24, 26]",193.0752928,7751,511,2,20,9,1.0012220945316377
undo,17,38,0,0,0,16,"[0, 11, 28, 16]",4,13,"[1, 4, 5, 10, 12, 13, 14, 15, 17, 19, 20, 24, 26]",164.0752928,8167,416,2,16,9,1.2422672958602723
undo,17,38,0,0,0,15,"[0, 11, 28, 16, 15]",5,9,"[4, 5, 13, 14, 17, 19, 20, 24, 26]",122.4579887,9196,1029,2,14,9,2.4196280466601676
undo,17,38,0,0,0,4,"[0, 11, 28, 16, 15, 4]",6,6,"[13, 17, 19, 20, 24, 26]",96.45798873,9528,332,2,9,9,2.9030072771852855
undo,17,38,0,0,0,20,"[0, 11, 28, 16, 15, 4, 20]",7,3,"[13, 17, 19]",62.51686323,10195,667,1,2,9,4.409951139385221
undo,17,38,0,0,0,17,"[0, 11, 28, 16, 15, 4, 20, 17]",8,1,[19],38.74713459,10702,507,1,0,9,4.030739410625113
undo,17,38,0,0,1,19,"[0, 11, 28, 16, 15, 4, 20, 17, 19]",9,0,[],17.36957626,11650,948,1,0,9,3.511004666623391
undo,17,38,1,0,0,17,"[0, 11, 28, 16, 15, 4, 20, 17]",8,1,[19],38.74713459,12441,791,1,0,9,4.030739410625113
undo,17,38,1,0,0,20,"[0, 11, 28, 16, 15, 4, 20]",7,3,"[13, 17, 19]",62.51686323,12726,285,1,2,9,4.409951139385221
undo,17,38,1,0,0,4,"[0, 11, 28, 16, 15, 4]",6,6,"[13, 17, 19, 20, 24, 26]",96.45798873,12955,229,2,9,9,2.9030072771852855
undo,17,38,1,0,0,15,"[0, 11, 28, 16, 15]",5,9,"[4, 5, 13, 14, 17, 19, 20, 24, 26]",122.4579887,13199,244,2,14,9,2.4196280466601676
undo,17,38,1,0,0,16,"[0, 11, 28, 16]",4,13,"[1, 4, 5, 10, 12, 13, 14, 15, 17, 19, 20, 24, 26]",164.0752928,13428,229,2,16,9,1.2422672958602723
undo,17,38,1,0,0,28,"[0, 11, 28]",3,16,"[1, 4, 5, 7, 10, 12, 13, 14, 15, 16, 17, 19, 20, 21, 24, 26]",193.0752928,13678,250,2,20,9,1.0012220945316377
undo,17,38,1,0,0,11,"[0, 11]",2,23,"[1, 2, 3, 4, 5, 7, 10, 12, 13, 14, 15, 16, 17, 18, 19, 20, 21, 22, 24, 25, 26, 27, 28]",220.093805,13956,278,2,40,9,1.0
undo,17,38,1,0,0,0,[0],1,29,"[1, 2, 3, 4, 5, 6, 7, 8, 9, 10, 11, 12, 13, 14, 15, 16, 17, 18, 19, 20, 21, 22, 23, 24, 25, 26, 27, 28, 29]",300,14268,312,33,506,9,0.0
undo,17,38,0,0,0,19,"[0, 19]",2,23,"[3, 4, 5, 6, 7, 8, 9, 11, 13, 14, 15, 16, 17, 18, 20, 22, 23, 24, 25, 26, 27, 28, 29]",219.5015528,14723,455,6,61,9,1.0
undo,17,38,0,0,0,17,"[0, 19, 17]",3,21,"[3, 4, 5, 6, 7, 9, 11, 13, 14, 15, 16, 18, 20, 22, 23, 24, 25, 26, 27, 28, 29]",198.1239945,15167,444,6,53,9,1.571793785769489
undo,17,38,0,0,0,20,"[0, 19, 17, 20]",4,17,"[3, 4, 5, 6, 7, 11, 13, 14, 15, 16, 18, 22, 24, 25, 26, 27, 28]",174.3542658,15642,475,6,44,9,2.333182710277297
undo,17,38,0,0,0,4,"[0, 19, 17, 20, 4]",5,10,"[5, 11, 13, 14, 15, 16, 24, 26, 27, 28]",140.4131403,16758,1116,5,22,9,2.276099229646013
undo,17,38,0,0,0,13,"[0, 19, 17, 20, 4, 13]",6,7,"[11, 15, 16, 24, 26, 27, 28]",109.0125034,17663,905,8,3,8,1.9539449223642764
undo,17,38,0,0,0,26,"[0, 19, 17, 20, 4, 13, 26]",7,3,"[15, 16, 24]",77.96415401,18015,352,3,0,8,1.7636339903785625
undo,17,38,0,0,1,24,"[0, 19, 17, 20, 4, 13, 26, 24]",8,0,[],47.15831041,18461,446,1,0,8,1.6290683193074331
undo,17,38,1,0,0,26,"[0, 19, 17, 20, 4, 13, 26]",7,3,"[15, 16, 24]",77.96415401,19358,897,3,0,8,1.7636339903785625
undo,17,38,1,0,0,13,"[0, 19, 17, 20, 4, 13]",6,7,"[11, 15, 16, 24, 26, 27, 28]",109.0125034,19810,452,8,3,8,1.9539449223642764
undo,17,38,1,0,0,4,"[0, 19, 17, 20, 4]",5,10,"[5, 11, 13, 14, 15, 16, 24, 26, 27, 28]",140.4131403,20081,271,5,22,9,2.276099229646013
undo,17,38,0,0,0,15,"[0, 19, 17, 20, 4, 15]",6,8,"[5, 11, 13, 14, 16, 24, 26, 28]",114.4131403,20933,852,5,6,9,2.5292671156176403
undo,17,38,0,0,0,13,"[0, 19, 17, 20, 4, 15, 13]",7,2,"[24, 26]",62.93498963,21564,631,1,1,9,2.42535234781802
undo,17,38,0,0,0,26,"[0, 19, 17, 20, 4, 15, 13, 26]",8,1,[24],31.88664024,22426,862,1,0,9,2.129628359956924
undo,17,38,0,0,1,24,"[0, 19, 17, 20, 4, 15, 13, 26, 24]",9,0,[],1.08079664,23148,722,1,0,9,1.9259474377664159
undo,17,38,0,1,1,24,"[0, 19, 17, 20, 4, 15, 13, 26, 24]",9,0,[],1.08079664,24803,1655,1,0,9,1.9259474377664159
undo,18,30,0,0,0,0,[0],1,19,"[3, 4, 5, 7, 9, 11, 16, 17, 18, 19, 20, 21, 22, 24, 25, 26, 27, 28, 29]",300,114,-1,5,41,8,0.0
undo,18,30,0,0,0,25,"[0, 25]",2,12,"[3, 5, 7, 9, 11, 16, 18, 19, 20, 24, 27, 29]",121.1005869,4272,4158,7,37,7,1.0
undo,18,30,0,0,0,20,"[0, 25, 20]",3,9,"[3, 5, 7, 9, 11, 18, 19, 27, 29]",99.16887472,4827,555,5,16,7,1.0037291321296267
undo,18,30,0,0,0,27,"[0, 25, 20, 27]",4,4,"[3, 5, 18, 29]",65.11010199,5403,576,4,6,7,1.1217072851053165
undo,18,30,0,0,0,3,"[0, 25, 20, 27, 3]",5,3,"[5, 18, 29]",46.00512882,6146,743,4,0,7,1.1140018780928678
undo,18,30,0,0,0,29,"[0, 25, 20, 27, 3, 29]",6,1,[18],27.40405358,7489,1343,1,0,7,1.119672312555708
undo,18,30,0,0,1,18,"[0, 25, 20, 27, 3, 29, 18]",7,0,[],8.090845662,7968,479,1,0,7,1.1951451398733344
undo,18,30,1,0,0,29,"[0, 25, 20, 27, 3, 29]",6,1,[18],27.40405358,9024,1056,1,0,7,1.119672312555708
undo,18,30,1,0,0,3,"[0, 25, 20, 27, 3]",5,3,"[5, 18, 29]",46.00512882,9441,417,4,0,7,1.1140018780928678
undo,18,30,0,0,0,5,"[0, 25, 20, 27, 3, 5]",6,1,[18],21.16564412,9716,275,1,0,7,1.1530944492196908
undo,18,30,0,0,1,18,"[0, 25, 20, 27, 3, 5, 18]",7,0,[],8.127239308,10182,466,1,0,7,1.194996135676334
undo,18,30,1,0,0,5,"[0, 25, 20, 27, 3, 5]",6,1,[18],21.16564412,12149,1967,1,0,7,1.1530944492196908
undo,18,30,1,0,0,3,"[0, 25, 20, 27, 3]",5,3,"[5, 18, 29]",46.00512882,12406,257,4,0,7,1.1140018780928678
undo,18,30,1,0,0,27,"[0, 25, 20, 27]",4,4,"[3, 5, 18, 29]",65.11010199,12635,229,4,6,7,1.1217072851053165
undo,18,30,1,0,0,20,"[0, 25, 20]",3,9,"[3, 5, 7, 9, 11, 18, 19, 27, 29]",99.16887472,12927,292,5,16,7,1.0037291321296267
undo,18,30,1,0,0,25,"[0, 25]",2,12,"[3, 5, 7, 9, 11, 16, 18, 19, 20, 24, 27, 29]",121.1005869,13267,340,7,37,7,1.0
undo,18,30,0,0,0,27,"[0, 25, 27]",3,8,"[3, 5, 7, 18, 19, 20, 24, 29]",81.54050603,14039,772,2,17,7,1.0432445497342653
undo,18,30,0,0,0,3,"[0, 25, 27, 3]",4,5,"[5, 7, 18, 20, 29]",62.43553286,14507,468,2,6,7,1.0419393955972533
undo,18,30,0,0,0,29,"[0, 25, 27, 3, 29]",5,3,"[5, 7, 18]",43.83445762,16237,1730,1,2,7,1.0521853644580021
undo,18,30,0,0,0,18,"[0, 25, 27, 3, 29, 18]",6,1,[5],24.5212497,16682,445,1,0,7,1.1278751785159948
undo,18,30,1,0,0,29,"[0, 25, 27, 3, 29]",5,3,"[5, 7, 18]",43.83445762,17733,1051,1,2,7,1.0521853644580021
undo,18,30,1,0,0,3,"[0, 25, 27, 3]",4,5,"[5, 7, 18, 20, 29]",62.43553286,18011,278,2,6,7,1.0419393955972533
undo,18,30,0,0,0,5,"[0, 25, 27, 3, 5]",5,2,"[18, 29]",37.59604816,18612,601,1,1,7,1.0851479881849022
undo,18,30,0,0,0,18,"[0, 25, 27, 3, 5, 18]",6,1,[29],24.55764335,19050,438,1,0,7,1.1277261743026177
undo,18,30,0,0,1,29,"[0, 25, 27, 3, 5, 18, 29]",7,0,[],5.244435434,19648,598,1,0,7,1.210691681041309
undo,18,30,0,1,1,29,"[0, 25, 27, 3, 5, 18, 29]",7,0,[],5.244435434,21080,1432,1,0,7,1.210691681041309
undo,19,28,0,0,0,0,[0],1,27,"[1, 2, 3, 4, 5, 6, 7, 8, 9, 10, 11, 12, 13, 14, 15, 16, 17, 18, 19, 20, 22, 23, 25, 26, 27, 28, 29]",300,120,-1,2,96,9,0.0
undo,19,28,0,0,0,20,"[0, 20]",2,22,"[2, 3, 4, 5, 6, 7, 8, 9, 10, 11, 12, 13, 14, 15, 16, 18, 19, 22, 23, 26, 28, 29]",245.9629757,4222,4102,1,24,9,1.0
undo,19,28,0,0,0,28,"[0, 20, 28]",3,8,"[2, 4, 5, 8, 9, 19, 26, 29]",111.798897,5054,832,11,15,6,1.0188673683341003
undo,19,28,0,0,0,8,"[0, 20, 28, 8]",4,6,"[2, 4, 5, 9, 26, 29]",93.99440319,5451,397,6,4,6,1.021470705651404
undo,19,28,0,0,0,9,"[0, 20, 28, 8, 9]",5,3,"[2, 4, 26]",78.86165724,5943,492,3,0,6,1.0747034022913178
undo,19,28,0,0,1,4,"[0, 20, 28, 8, 9, 4]",6,0,[],55.83992837,6458,515,1,0,6,1.0683935598495367
undo,19,28,1,0,0,9,"[0, 20, 28, 8, 9]",5,3,"[2, 4, 26]",78.86165724,11045,4587,3,0,6,1.0747034022913178
undo,19,28,1,0,0,8,"[0, 20, 28, 8]",4,6,"[2, 4, 5, 9, 26, 29]",93.99440319,11351,306,6,4,6,1.021470705651404
undo,19,28,1,0,0,28,"[0, 20, 28]",3,8,"[2, 4, 5, 8, 9, 19, 26, 29]",111.798897,11614,263,11,15,6,1.0188673683341003
undo,19,28,1,0,0,20,"[0, 20]",2,22,"[2, 3, 4, 5, 6, 7, 8, 9, 10, 11, 12, 13, 14, 15, 16, 18, 19, 22, 23, 26, 28, 29]",245.9629757,11891,277,1,24,9,1.0
undo,19,28,0,0,0,5,"[0, 20, 5]",3,17,"[2, 3, 4, 7, 8, 9, 10, 11, 12, 13, 14, 15, 18, 19, 23, 26, 28]",156.7609577,12197,306,1,14,9,1.0988195556497768
undo,19,28,0,0,0,28,"[0, 20, 5, 28]",4,5,"[2, 4, 8, 9, 26]",89.85056991,12980,783,6,4,7,1.1376893832163637
undo,19,28,0,0,0,8,"[0, 20, 5, 28, 8]",5,4,"[2, 4, 9, 26]",72.04607609,13382,402,3,2,7,1.1303006283227894
undo,19,28,0,0,0,9,"[0, 20, 5, 28, 8, 9]",6,2,"[2, 4]",56.91333014,13764,382,2,0,7,1.1813693993073693
undo,19,28,0,0,1,4,"[0, 20, 5, 28, 8, 9, 4]",7,0,[],33.89160128,14167,403,1,0,7,1.1644348624092868
undo,19,28,1,0,0,9,"[0, 20, 5, 28, 8, 9]",6,2,"[2, 4]",56.91333014,15170,1003,2,0,7,1.1813693993073693
undo,19,28,1,0,0,8,"[0, 20, 5, 28, 8]",5,4,"[2, 4, 9, 26]",72.04607609,15656,486,3,2,7,1.1303006283227894
undo,19,28,1,0,0,28,"[0, 20, 5, 28]",4,5,"[2, 4, 8, 9, 26]",89.85056991,15941,285,6,4,7,1.1376893832163637
undo,19,28,1,0,0,5,"[0, 20, 5]",3,17,"[2, 3, 4, 7, 8, 9, 10, 11, 12, 13, 14, 15, 18, 19, 23, 26, 28]",156.7609577,16239,298,1,14,9,1.0988195556497768
undo,19,28,0,0,0,26,"[0, 20, 5, 26]",4,12,"[2, 3, 4, 7, 8, 9, 12, 13, 14, 18, 19, 28]",124.004279,16599,360,1,13,9,1.0951498185897672
undo,19,28,0,0,0,19,"[0, 20, 5, 26, 19]",5,6,"[2, 7, 12, 13, 14, 18]",83.00427903,17203,604,1,8,9,1.1884691485679475
undo,19,28,0,0,0,7,"[0, 20, 5, 26, 19, 7]",6,3,"[12, 13, 18]",55.27342979,17695,492,1,3,9,1.2493206135259067
undo,19,28,0,0,0,12,"[0, 20, 5, 26, 19, 7, 12]",7,2,"[13, 18]",42.12048335,18084,389,1,1,9,1.2517095870340706
undo,19,28,0,0,0,13,"[0, 20, 5, 26, 19, 7, 12, 13]",8,1,[18],24.91583281,18570,486,1,0,9,1.4437180099627334
undo,19,28,0,0,1,18,"[0, 20, 5, 26, 19, 7, 12, 13, 18]",9,0,[],0.502721582,19153,583,1,0,9,1.8002522955087483
undo,19,28,0,1,1,18,"[0, 20, 5, 26, 19, 7, 12, 13, 18]",9,0,[],0.502721582,20323,1170,1,0,9,1.8002522955087483
undo,20,44,0,0,0,0,[0],1,29,"[1, 2, 3, 4, 5, 6, 7, 8, 9, 10, 11, 12, 13, 14, 15, 16, 17, 18, 19, 20, 21, 22, 23, 24, 25, 26, 27, 28, 29]",300,116,-1,13,126,7,0.0
undo,20,44,0,0,0,11,"[0, 11]",2,18,"[4, 5, 6, 7, 8, 9, 12, 14, 16, 17, 19, 20, 22, 23, 24, 25, 26, 28]",152.7790776,3349,3233,5,34,7,1.0
undo,20,44,0,0,0,24,"[0, 11, 24]",3,13,"[4, 5, 7, 8, 9, 12, 14, 17, 20, 22, 23, 25, 28]",125.8532535,3948,599,5,23,7,1.1588941745226709
undo,20,44,0,0,0,9,"[0, 11, 24, 9]",4,7,"[4, 7, 8, 12, 14, 20, 23]",93.09657483,4432,484,2,8,7,1.3039383713641313
undo,20,44,0,0,0,4,"[0, 11, 24, 9, 4]",5,5,"[7, 12, 14, 20, 23]",73.39885923,4892,460,2,3,7,1.2901330701441578
undo,20,44,0,0,0,7,"[0, 11, 24, 9, 4, 7]",6,1,[23],42.38273439,5468,576,1,0,7,1.2468141312360979
undo,20,44,0,0,1,23,"[0, 11, 24, 9, 4, 7, 23]",7,0,[],23.27776121,6523,1055,1,0,7,1.2635191782769477
undo,20,44,0,1,1,23,"[0, 11, 24, 9, 4, 7, 23]",7,0,[],23.27776121,8671,2148,1,0,7,1.2635191782769477
undo,21,34,0,0,0,0,[0],1,25,"[1, 3, 4, 5, 6, 7, 8, 9, 10, 11, 12, 13, 15, 18, 19, 20, 21, 22, 23, 24, 25, 26, 27, 28, 29]",300,122,-1,12,367,10,0.0
undo,21,34,0,0,0,13,"[0, 13]",2,24,"[1, 3, 4, 5, 6, 7, 8, 9, 10, 11, 12, 15, 18, 19, 20, 21, 22, 23, 24, 25, 26, 27, 28, 29]",279.9750156,3594,3472,12,331,10,1.0
undo,21,34,0,0,0,1,"[0, 13, 1]",3,16,"[3, 5, 7, 8, 9, 10, 11, 12, 19, 21, 22, 23, 24, 25, 27, 29]",211.8574701,5121,1527,3,92,10,1.0010381285747127
undo,21,34,0,0,0,8,"[0, 13, 1, 8]",4,14,"[3, 5, 7, 9, 10, 11, 12, 19, 22, 23, 24, 25, 27, 29]",201.0871405,5632,511,2,54,10,1.1636807
undo,21,34,0,0,0,25,"[0, 13, 1, 8, 25]",5,12,"[3, 5, 7, 9, 10, 11, 12, 22, 23, 24, 27, 29]",183.999133,6320,688,2,28,10,1.1396208815936457
undo,21,34,0,0,0,24,"[0, 13, 1, 8, 25, 24]",6,11,"[3, 5, 7, 9, 10, 11, 12, 22, 23, 27, 29]",166.5062774,6857,537,2,23,10,1.374180768736554
undo,21,34,0,0,0,12,"[0, 13, 1, 8, 25, 24, 12]",7,7,"[7, 9, 10, 11, 22, 23, 27]",115.4670767,7904,1047,1,8,10,1.4994254760835948
undo,21,34,0,0,0,7,"[0, 13, 1, 8, 25, 24, 12, 7]",8,5,"[9, 11, 22, 23, 27]",100.4337804,11890,3986,1,4,10,1.758992610425009
undo,21,34,0,0,0,23,"[0, 13, 1, 8, 25, 24, 12, 7, 23]",9,1,[27],72.27352467,13626,1736,1,0,10,2.399781305190153
undo,21,34,0,0,1,27,"[0, 13, 1, 8, 25, 24, 12, 7, 23, 27]",10,0,[],18.60789321,15530,1904,1,0,10,4.766619878750327
undo,21,34,0,1,1,27,"[0, 13, 1, 8, 25, 24, 12, 7, 23, 27]",10,0,[],18.60789321,17171,1641,1,0,10,4.766619878750327
undo,22,16,0,0,0,0,[0],1,29,"[1, 2, 3, 4, 5, 6, 7, 8, 9, 10, 11, 12, 13, 14, 15, 16, 17, 18, 19, 20, 21, 22, 23, 24, 25, 26, 27, 28, 29]",300,161,-1,13,161,9,0.0
undo,22,16,0,0,0,17,"[0, 17]",2,27,"[1, 2, 3, 4, 5, 7, 8, 9, 10, 11, 12, 13, 14, 15, 16, 18, 19, 20, 21, 22, 23, 24, 25, 26, 27, 28, 29]",241.3058776,3089,2928,2,58,9,1.0
undo,22,16,0,0,0,16,"[0, 17, 16]",3,26,"[1, 2, 3, 4, 5, 7, 8, 9, 10, 11, 12, 13, 14, 15, 18, 19, 20, 21, 22, 23, 24, 25, 26, 27, 28, 29]",212.9862731,3630,541,2,52,9,1.0529535521792848
undo,22,16,0,0,0,8,"[0, 17, 16, 8]",4,19,"[2, 3, 4, 5, 9, 12, 13, 14, 15, 19, 20, 21, 22, 23, 25, 26, 27, 28, 29]",164.6127266,4303,673,2,38,9,1.0915134501573105
undo,22,16,0,0,0,20,"[0, 17, 16, 8, 20]",5,10,"[3, 4, 5, 9, 12, 13, 15, 19, 21, 25]",106.8372993,4916,613,1,15,9,1.067523143001942
undo,22,16,0,0,0,25,"[0, 17, 16, 8, 20, 25]",6,7,"[3, 4, 5, 9, 12, 13, 15]",94.18818869,5270,354,1,9,9,1.1170093326933646
undo,22,16,0,0,0,9,"[0, 17, 16, 8, 20, 25, 9]",7,5,"[3, 4, 5, 13, 15]",81.38194021,5715,445,1,4,9,1.1095076562662525
undo,22,16,0,0,0,15,"[0, 17, 16, 8, 20, 25, 9, 15]",8,1,[5],42.48463953,6922,1207,1,0,9,1.213831159678775
undo,22,16,0,0,1,5,"[0, 17, 16, 8, 20, 25, 9, 15, 5]",9,0,[],13.0567616,7438,516,1,0,9,1.5171779607523481
undo,22,16,1,0,0,15,"[0, 17, 16, 8, 20, 25, 9, 15]",8,1,[5],42.48463953,8210,772,1,0,9,1.213831159678775
undo,22,16,1,0,0,9,"[0, 17, 16, 8, 20, 25, 9]",7,5,"[3, 4, 5, 13, 15]",81.38194021,8550,340,1,4,9,1.1095076562662525
undo,22,16,0,0,1,5,"[0, 17, 16, 8, 20, 25, 9, 5]",8,0,[],29.37232572,8832,282,1,0,8,1.4309113721471163
undo,22,16,1,0,0,9,"[0, 17, 16, 8, 20, 25, 9]",7,5,"[3, 4, 5, 13, 15]",81.38194021,10036,1204,1,4,9,1.1095076562662525
undo,22,16,0,0,0,15,"[0, 17, 16, 8, 20, 25, 9, 15]",8,1,[5],42.48463953,10264,228,1,0,9,1.213831159678775
undo,22,16,0,0,1,5,"[0, 17, 16, 8, 20, 25, 9, 15, 5]",9,0,[],13.0567616,10846,582,1,0,9,1.5171779607523481
undo,22,16,0,1,1,5,"[0, 17, 16, 8, 20, 25, 9, 15, 5]",9,0,[],13.0567616,13453,2607,1,0,9,1.5171779607523481
basic,23,7,0,0,0,0,[0],1,29,"[1, 2, 3, 4, 5, 6, 7, 8, 9, 10, 11, 12, 13, 14, 15, 16, 17, 18, 19, 20, 21, 22, 23, 24, 25, 26, 27, 28, 29]",300,130,-1,3,79,9,0.0
basic,23,7,0,0,0,6,"[0, 6]",2,22,"[2, 4, 5, 7, 8, 9, 10, 11, 13, 14, 15, 16, 18, 19, 20, 21, 22, 23, 24, 25, 27, 28]",231.1160396,6329,6199,1,24,9,1.0
basic,23,7,0,0,0,25,"[0, 6, 25]",3,14,"[2, 4, 5, 7, 13, 14, 15, 16, 18, 19, 20, 21, 23, 28]",163.9371739,7509,1180,1,15,9,1.1491202566384209
basic,23,7,0,0,0,4,"[0, 6, 25, 4]",4,10,"[2, 7, 13, 15, 16, 18, 19, 20, 21, 23]",139.1985401,10266,2757,1,9,9,1.145081852791697
basic,23,7,0,0,0,20,"[0, 6, 25, 4, 20]",5,6,"[2, 7, 13, 16, 18, 19]",119.5516574,10865,599,1,4,9,1.2036846139155144
basic,23,7,0,0,0,18,"[0, 6, 25, 4, 20, 18]",6,5,"[2, 7, 13, 16, 19]",106.7454089,11469,604,1,3,9,1.3498144584217913
basic,23,7,0,0,0,7,"[0, 6, 25, 4, 20, 18, 7]",7,2,"[2, 19]",65.51435269,12192,723,1,1,9,1.2817825700699357
basic,23,7,0,0,0,19,"[0, 6, 25, 4, 20, 18, 7, 19]",8,1,[2],36.10347035,12732,540,1,0,9,1.3950287830764145
basic,23,7,0,0,1,2,"[0, 6, 25, 4, 20, 18, 7, 19, 2]",9,0,[],5.953843486,13808,1076,1,0,9,1.4010142439340676
basic,23,7,0,1,1,2,"[0, 6, 25, 4, 20, 18, 7, 19, 2]",9,0,[],5.953843486,16165,2357,1,0,9,1.4010142439340676
basic,24,28,0,0,0,0,[0],1,27,"[1, 2, 3, 4, 5, 6, 7, 8, 9, 10, 11, 12, 13, 14, 15, 16, 17, 18, 19, 20, 22, 23, 25, 26, 27, 28, 29]",300,136,-1,2,96,9,0.0
basic,24,28,0,0,0,3,"[0, 3]",2,26,"[1, 2, 4, 5, 6, 7, 8, 9, 10, 11, 12, 13, 14, 15, 16, 17, 18, 19, 20, 22, 23, 25, 26, 27, 28, 29]",251.0817008,3737,3601,1,64,9,1.0
basic,24,28,0,0,0,5,"[0, 3, 5]",3,20,"[2, 4, 6, 7, 8, 9, 10, 11, 12, 13, 14, 15, 18, 19, 20, 23, 25, 26, 28, 29]",166.9865166,5212,1475,1,34,9,1.0203769473612083
basic,24,28,0,0,0,18,"[0, 3, 5, 18]",4,8,"[2, 7, 11, 12, 13, 14, 19, 26]",83.72788341,8716,3504,1,9,8,1.2999930296604767
basic,24,28,0,0,0,13,"[0, 3, 5, 18, 13]",5,4,"[7, 12, 14, 19]",59.31477218,9307,591,1,3,8,1.2631828348583682
basic,24,28,0,0,0,12,"[0, 3, 5, 18, 13, 12]",6,2,"[7, 19]",42.11012165,10334,1027,1,1,8,1.2517598812156188
basic,24,28,0,0,0,7,"[0, 3, 5, 18, 13, 12, 7]",7,1,[19],28.95717521,10924,590,1,0,8,1.3836641761777977
basic,24,28,0,0,1,19,"[0, 3, 5, 18, 13, 12, 7, 19]",8,0,[],1.226325962,11710,786,1,0,8,1.6363608112233246
basic,24,28,0,1,1,19,"[0, 3, 5, 18, 13, 12, 7, 19]",8,0,[],1.226325962,13643,1933,1,0,8,1.6363608112233246
basic,25,11,0,0,0,0,[0],1,25,"[1, 2, 3, 4, 5, 6, 8, 9, 10, 11, 12, 13, 14, 15, 16, 17, 18, 19, 20, 22, 23, 25, 26, 27, 28]",300,127,-1,6,374,12,0.0
basic,25,11,0,0,0,18,"[0, 18]",2,21,"[1, 2, 4, 5, 6, 8, 9, 11, 12, 13, 14, 15, 16, 17, 19, 20, 22, 23, 25, 27, 28]",236.8493864,4645,4518,157,1477,11,1.0
basic,25,11,0,0,0,27,"[0, 18, 27]",3,19,"[1, 2, 4, 5, 6, 8, 9, 11, 12, 14, 15, 16, 17, 19, 20, 22, 23, 25, 28]",212.9956655,5188,543,157,1315,11,1.060949579704323
basic,25,11,0,0,0,17,"[0, 18, 27, 17]",4,14,"[1, 2, 4, 5, 6, 8, 11, 12, 15, 19, 22, 23, 25, 28]",135.9177828,7875,2687,46,349,11,1.1156120043677304
basic,25,11,0,0,0,8,"[0, 18, 27, 17, 8]",5,11,"[1, 2, 5, 6, 11, 12, 15, 19, 22, 25, 28]",121.5999617,8326,451,26,143,11,1.2285932943120847
basic,25,11,0,0,0,15,"[0, 18, 27, 17, 8, 15]",6,9,"[2, 5, 6, 11, 12, 19, 22, 25, 28]",108.1463377,8903,577,24,54,11,1.223015425852291
basic,25,11,0,0,0,11,"[0, 18, 27, 17, 8, 15, 11]",7,6,"[2, 5, 12, 19, 22, 28]",90.03556742,9376,473,22,2,11,1.2111003833550413
basic,25,11,0,0,0,28,"[0, 18, 27, 17, 8, 15, 11, 28]",8,3,"[2, 5, 22]",70.61907959,9923,547,6,0,11,1.3274100985292616
basic,25,11,0,0,0,2,"[0, 18, 27, 17, 8, 15, 11, 28, 2]",9,2,"[5, 22]",59.98893377,12374,2451,2,0,11,1.3446894956422268
basic,25,11,0,0,0,22,"[0, 18, 27, 17, 8, 15, 11, 28, 2, 22]",10,1,[5],49.93905815,13037,663,1,0,11,1.3263453016852544
basic,25,11,0,0,1,5,"[0, 18, 27, 17, 8, 15, 11, 28, 2, 22, 5]",11,0,[],23.36839764,14930,1893,1,0,11,1.7003292481427408
basic,25,11,0,1,1,5,"[0, 18, 27, 17, 8, 15, 11, 28, 2, 22, 5]",11,0,[],23.36839764,17607,2677,1,0,11,1.7003292481427408
basic,26,40,0,0,0,0,[0],1,29,"[1, 2, 3, 4, 5, 6, 7, 8, 9, 10, 11, 12, 13, 14, 15, 16, 17, 18, 19, 20, 21, 22, 23, 24, 25, 26, 27, 28, 29]",300,121,-1,8,191,9,0.0
basic,26,40,0,0,0,1,"[0, 1]",2,18,"[2, 5, 6, 7, 8, 9, 10, 11, 13, 15, 17, 18, 19, 21, 22, 23, 27, 29]",247.8463808,10417,10296,4,80,9,1.0
basic,26,40,0,0,0,6,"[0, 1, 6]",3,17,"[2, 5, 7, 8, 9, 10, 11, 13, 15, 17, 18, 19, 21, 22, 23, 27, 29]",227.7466295,10854,437,4,74,9,1.0459427008232034
basic,26,40,0,0,0,9,"[0, 1, 6, 9]",4,10,"[2, 5, 8, 11, 18, 19, 21, 22, 23, 27]",159.146338,11654,800,17,39,8,1.142098432552584
basic,26,40,0,0,0,18,"[0, 1, 6, 9, 18]",5,9,"[2, 5, 8, 11, 19, 21, 22, 23, 27]",142.5933926,12188,534,13,14,8,1.3288108654802917
basic,26,40,0,0,0,23,"[0, 1, 6, 9, 18, 23]",6,6,"[2, 5, 8, 19, 21, 22]",108.5933926,13170,982,6,4,8,2.0180513009829646
basic,26,40,0,0,0,5,"[0, 1, 6, 9, 18, 23, 5]",7,2,"[19, 22]",80.29144922,16591,3421,2,0,8,1.786484562843798
basic,26,40,0,0,1,22,"[0, 1, 6, 9, 18, 23, 5, 22]",8,0,[],17.68154585,18529,1938,1,0,8,1.5941038894571624
basic,26,40,0,1,1,22,"[0, 1, 6, 9, 18, 23, 5, 22]",8,0,[],17.68154585,20441,1912,1,0,8,1.5941038894571624
basic,27,16,0,0,0,0,[0],1,29,"[1, 2, 3, 4, 5, 6, 7, 8, 9, 10, 11, 12, 13, 14, 15, 16, 17, 18, 19, 20, 21, 22, 23, 24, 25, 26, 27, 28, 29]",300,119,-1,13,161,9,0.0
basic,27,16,0,0,0,17,"[0, 17]",2,27,"[1, 2, 3, 4, 5, 7, 8, 9, 10, 11, 12, 13, 14, 15, 16, 18, 19, 20, 21, 22, 23, 24, 25, 26, 27, 28, 29]",241.3058776,4409,4290,2,58,9,1.0
basic,27,16,0,0,0,16,"[0, 17, 16]",3,26,"[1, 2, 3, 4, 5, 7, 8, 9, 10, 11, 12, 13, 14, 15, 18, 19, 20, 21, 22, 23, 24, 25, 26, 27, 28, 29]",212.9862731,4992,583,2,52,9,1.0529535521792848
basic,27,16,0,0,0,8,"[0, 17, 16, 8]",4,19,"[2, 3, 4, 5, 9, 12, 13, 14, 15, 19, 20, 21, 22, 23, 25, 26, 27, 28, 29]",164.6127266,5493,501,2,38,9,1.0915134501573105
basic,27,16,0,0,0,20,"[0, 17, 16, 8, 20]",5,10,"[3, 4, 5, 9, 12, 13, 15, 19, 21, 25]",106.8372993,6255,762,1,15,9,1.067523143001942
basic,27,16,0,0,0,25,"[0, 17, 16, 8, 20, 25]",6,7,"[3, 4, 5, 9, 12, 13, 15]",94.18818869,6658,403,1,9,9,1.1170093326933646
basic,27,16,0,0,0,9,"[0, 17, 16, 8, 20, 25, 9]",7,5,"[3, 4, 5, 13, 15]",81.38194021,7047,389,1,4,9,1.1095076562662525
basic,27,16,0,0,0,15,"[0, 17, 16, 8, 20, 25, 9, 15]",8,1,[5],42.48463953,7617,570,1,0,9,1.213831159678775
basic,27,16,0,0,1,5,"[0, 17, 16, 8, 20, 25, 9, 15, 5]",9,0,[],13.0567616,10055,2438,1,0,9,1.5171779607523481
basic,27,16,0,1,1,5,"[0, 17, 16, 8, 20, 25, 9, 15, 5]",9,0,[],13.0567616,11800,1745,1,0,9,1.5171779607523481
basic,28,22,0,0,0,0,[0],1,29,"[1, 2, 3, 4, 5, 6, 7, 8, 9, 10, 11, 12, 13, 14, 15, 16, 17, 18, 19, 20, 21, 22, 23, 24, 25, 26, 27, 28, 29]",300,119,-1,31,704,9,0.0
basic,28,22,0,0,0,16,"[0, 16]",2,21,"[1, 3, 6, 7, 8, 9, 11, 13, 14, 15, 17, 18, 19, 20, 21, 22, 24, 25, 27, 28, 29]",218.605897,3745,3626,17,147,9,1.0
basic,28,22,0,0,0,6,"[0, 16, 6]",3,16,"[1, 3, 7, 9, 13, 14, 15, 17, 19, 20, 21, 22, 24, 25, 28, 29]",184.1675463,4311,566,5,77,9,1.3071109638102874
basic,28,22,0,0,0,9,"[0, 16, 6, 9]",4,15,"[1, 3, 7, 13, 14, 15, 17, 19, 20, 21, 22, 24, 25, 28, 29]",157.5404924,4922,611,4,33,9,1.5907585082674378
basic,28,22,0,0,0,19,"[0, 16, 6, 9, 19]",5,12,"[3, 7, 13, 14, 15, 17, 20, 21, 24, 25, 28, 29]",137.1444143,6512,1590,3,17,9,2.0453047636701496
basic,28,22,0,0,0,29,"[0, 16, 6, 9, 19, 29]",6,10,"[3, 7, 13, 14, 15, 17, 20, 21, 24, 28]",122.111118,7396,884,3,10,9,2.310050419546042
basic,28,22,0,0,0,24,"[0, 16, 6, 9, 19, 29, 24]",7,4,"[3, 17, 20, 21]",54.21413717,11180,3784,1,3,9,1.8323868996640549
basic,28,22,0,0,0,21,"[0, 16, 6, 9, 19, 29, 24, 21]",8,1,[3],27.01119616,11992,812,1,0,9,1.6923539112814867
basic,28,22,0,0,1,3,"[0, 16, 6, 9, 19, 29, 24, 21, 3]",9,0,[],1.991204149,12652,660,1,0,9,1.7487020618330784
basic,28,22,0,1,1,3,"[0, 16, 6, 9, 19, 29, 24, 21, 3]",9,0,[],1.991204149,14148,1496,1,0,9,1.7487020618330784
basic,29,37,0,0,0,0,[0],1,29,"[1, 2, 3, 4, 5, 6, 7, 8, 9, 10, 11, 12, 13, 14, 15, 16, 17, 18, 19, 20, 21, 22, 23, 24, 25, 26, 27, 28, 29]",300,121,-1,6,168,10,0.0
basic,29,37,0,0,0,19,"[0, 19]",2,19,"[1, 2, 4, 5, 6, 7, 9, 10, 11, 15, 17, 18, 20, 21, 22, 25, 26, 28, 29]",185.6627795,5711,5590,25,244,9,1.0
basic,29,37,0,0,0,21,"[0, 19, 21]",3,14,"[1, 2, 4, 7, 10, 11, 15, 17, 18, 20, 22, 25, 26, 29]",144.5531699,6897,1186,10,75,9,1.001632816594558
basic,29,37,0,0,0,15,"[0, 19, 21, 15]",4,9,"[1, 2, 4, 7, 18, 20, 22, 26, 29]",129.5531699,7375,478,5,32,9,1.0243376499143988
basic,29,37,0,0,0,20,"[0, 19, 21, 15, 20]",5,8,"[1, 2, 4, 7, 18, 22, 26, 29]",112.5531699,7875,500,5,14,9,1.250507291508492
basic,29,37,0,0,0,1,"[0, 19, 21, 15, 20, 1]",6,6,"[2, 4, 7, 18, 22, 26]",78.31868434,8458,583,4,4,9,1.4002166443864243
basic,29,37,0,0,0,4,"[0, 19, 21, 15, 20, 1, 4]",7,2,"[2, 22]",60.5986392,9605,1147,2,0,9,1.472939356650523
basic,29,37,0,0,0,2,"[0, 19, 21, 15, 20, 1, 4, 2]",8,1,[22],49.19688495,10807,1202,1,0,9,1.6590570350137948
basic,29,37,0,0,1,22,"[0, 19, 21, 15, 20, 1, 4, 2, 22]",9,0,[],21.53825157,12333,1526,1,0,9,1.7098673138592275
basic,29,37,0,1,1,22,"[0, 19, 21, 15, 20, 1, 4, 2, 22]",9,0,[],21.53825157,14045,1712,1,0,9,1.7098673138592275
basic,30,38,0,0,0,0,[0],1,29,"[1, 2, 3, 4, 5, 6, 7, 8, 9, 10, 11, 12, 13, 14, 15, 16, 17, 18, 19, 20, 21, 22, 23, 24, 25, 26, 27, 28, 29]",300,121,-1,33,506,9,0.0
basic,30,38,0,0,0,19,"[0, 19]",2,23,"[3, 4, 5, 6, 7, 8, 9, 11, 13, 14, 15, 16, 17, 18, 20, 22, 23, 24, 25, 26, 27, 28, 29]",219.5015528,2683,2562,6,61,9,1.0
basic,30,38,0,0,0,17,"[0, 19, 17]",3,21,"[3, 4, 5, 6, 7, 9, 11, 13, 14, 15, 16, 18, 20, 22, 23, 24, 25, 26, 27, 28, 29]",198.1239945,3375,692,6,53,9,1.571793785769489
basic,30,38,0,0,0,20,"[0, 19, 17, 20]",4,17,"[3, 4, 5, 6, 7, 11, 13, 14, 15, 16, 18, 22, 24, 25, 26, 27, 28]",174.3542658,3819,444,6,44,9,2.333182710277297
basic,30,38,0,0,0,4,"[0, 19, 17, 20, 4]",5,10,"[5, 11, 13, 14, 15, 16, 24, 26, 27, 28]",140.4131403,4670,851,5,22,9,2.276099229646013
basic,30,38,0,0,0,15,"[0, 19, 17, 20, 4, 15]",6,8,"[5, 11, 13, 14, 16, 24, 26, 28]",114.4131403,9729,5059,5,6,9,2.5292671156176403
basic,30,38,0,0,0,16,"[0, 19, 17, 20, 4, 15, 16]",7,2,"[11, 28]",72.79583625,16009,6280,2,0,9,2.0765047644693917
basic,30,38,0,0,0,28,"[0, 19, 17, 20, 4, 15, 16, 28]",8,1,[11],43.79583625,16542,533,1,0,9,2.3990457975039625
basic,30,38,0,0,1,11,"[0, 19, 17, 20, 4, 15, 16, 28, 11]",9,0,[],16.77732407,17209,667,1,0,9,3.5444395258240657
basic,30,38,0,1,1,11,"[0, 19, 17, 20, 4, 15, 16, 28, 11]",9,0,[],16.77732407,18685,1476,1,0,9,3.5444395258240657
basic,31,19,0,0,0,0,[0],1,29,"[1, 2, 3, 4, 5, 6, 7, 8, 9, 10, 11, 12, 13, 14, 15, 16, 17, 18, 19, 20, 21, 22, 23, 24, 25, 26, 27, 28, 29]",300,120,-1,12,149,8,0.0
basic,31,19,0,0,0,29,"[0, 29]",2,28,"[1, 2, 3, 4, 5, 6, 7, 8, 9, 10, 11, 12, 13, 14, 15, 16, 17, 18, 19, 20, 21, 22, 23, 24, 25, 26, 27, 28]",265.0715016,5869,5749,12,120,8,1.0
basic,31,19,0,0,0,9,"[0, 29, 9]",3,17,"[1, 4, 5, 6, 7, 10, 11, 12, 13, 14, 19, 20, 21, 22, 24, 27, 28]",181.7108394,6624,755,11,65,8,1.0375842971861238
basic,31,19,0,0,0,6,"[0, 29, 9, 6]",4,12,"[4, 7, 10, 11, 13, 14, 20, 21, 22, 24, 27, 28]",140.2741407,7500,876,11,34,8,1.0389786364356892
basic,31,19,0,0,0,28,"[0, 29, 9, 6, 28]",5,5,"[4, 11, 14, 22, 27]",89.18598161,9201,1701,2,4,8,1.2864082671854424
basic,31,19,0,0,0,4,"[0, 29, 9, 6, 28, 4]",6,4,"[11, 14, 22, 27]",78.00564173,9819,618,2,2,8,1.3470045407445053
basic,31,19,0,0,0,14,"[0, 29, 9, 6, 28, 4, 14]",7,1,[11],27.99564273,10870,1051,1,0,8,1.3006971582050546
basic,31,19,0,0,1,11,"[0, 29, 9, 6, 28, 4, 14, 11]",8,0,[],17.1789889,12711,1841,1,0,8,1.289914895833058
basic,31,19,0,1,1,11,"[0, 29, 9, 6, 28, 4, 14, 11]",8,0,[],17.1789889,14309,1598,1,0,8,1.289914895833058
basic,32,8,0,0,0,0,[0],1,29,"[1, 2, 3, 4, 5, 6, 7, 8, 9, 10, 11, 12, 13, 14, 15, 16, 17, 18, 19, 20, 21, 22, 23, 24, 25, 26, 27, 28, 29]",300,120,-1,10,149,9,0.0
basic,32,8,0,0,0,5,"[0, 5]",2,28,"[1, 2, 3, 4, 6, 7, 8, 9, 10, 11, 12, 13, 14, 15, 16, 17, 18, 19, 20, 21, 22, 23, 24, 25, 26, 27, 28, 29]",254.5137383,2793,2673,10,100,9,1.0
basic,32,8,0,0,0,25,"[0, 5, 25]",3,20,"[1, 2, 3, 4, 6, 11, 12, 14, 15, 16, 17, 18, 19, 20, 21, 22, 23, 24, 28, 29]",215.3091468,6158,3365,4,42,9,1.2272747879909065
basic,32,8,0,0,0,14,"[0, 5, 25, 14]",4,16,"[1, 3, 4, 6, 11, 15, 16, 17, 18, 19, 20, 21, 22, 23, 24, 28]",170.2092576,12513,6355,1,13,9,1.5190857385933465
basic,32,8,0,0,0,17,"[0, 5, 25, 14, 17]",5,9,"[1, 4, 11, 15, 16, 18, 23, 24, 28]",133.1957466,13631,1118,1,9,9,1.5271682935559303
basic,32,8,0,0,0,11,"[0, 5, 25, 14, 17, 11]",6,5,"[15, 16, 18, 24, 28]",108.01639,14063,432,1,6,9,1.4664212485560129
basic,32,8,0,0,0,24,"[0, 5, 25, 14, 17, 11, 24]",7,2,"[15, 16]",70.80080183,14625,562,1,1,9,1.3920548417170795
basic,32,8,0,0,0,15,"[0, 5, 25, 14, 17, 11, 24, 15]",8,1,[16],54.03774722,15124,499,1,0,9,1.4585932832823736
basic,32,8,0,0,1,16,"[0, 5, 25, 14, 17, 11, 24, 15, 16]",9,0,[],2.959376062,15945,821,1,0,9,1.6043130175078746
basic,32,8,0,1,1,16,"[0, 5, 25, 14, 17, 11, 24, 15, 16]",9,0,[],2.959376062,17252,1307,1,0,9,1.6043130175078746
basic,33,42,0,0,0,0,[0],1,29,"[1, 2, 3, 4, 5, 6, 7, 8, 9, 10, 11, 12, 13, 14, 15, 16, 17, 18, 19, 20, 21, 22, 23, 24, 25, 26, 27, 28, 29]",300,114,-1,16,302,9,0.0
basic,33,42,0,0,0,5,"[0, 5]",2,28,"[1, 2, 3, 4, 6, 7, 8, 9, 10, 11, 12, 13, 14, 15, 16, 17, 18, 19, 20, 21, 22, 23, 24, 25, 26, 27, 28, 29]",191.2939744,6375,6261,1,22,9,1.0
basic,33,42,0,0,0,4,"[0, 5, 4]",3,23,"[1, 2, 3, 6, 7, 8, 9, 10, 11, 13, 15, 17, 18, 19, 20, 21, 22, 23, 24, 25, 26, 27, 29]",171.4445412,6952,577,1,14,9,1.420957801478707
basic,33,42,0,0,0,22,"[0, 5, 4, 22]",4,20,"[1, 2, 3, 6, 7, 8, 9, 11, 15, 17, 18, 19, 20, 21, 23, 24, 25, 26, 27, 29]",160.2642013,7815,863,1,11,9,1.5771494659680896
basic,33,42,0,0,0,8,"[0, 5, 4, 22, 8]",5,14,"[1, 2, 3, 6, 7, 11, 15, 18, 19, 24, 25, 26, 27, 29]",138.1282577,8521,706,1,10,9,1.5055393955524201
basic,33,42,0,0,0,1,"[0, 5, 4, 22, 8, 1]",6,5,"[2, 7, 19, 26, 27]",89.03650682,9176,655,1,7,9,1.3547259083637835
basic,33,42,0,0,0,7,"[0, 5, 4, 22, 8, 1, 7]",7,4,"[2, 19, 26, 27]",59.03650682,9848,672,1,3,9,1.3909715672447451
basic,33,42,0,0,0,26,"[0, 5, 4, 22, 8, 1, 7, 26]",8,1,[27],32.46584631,12536,2688,1,0,9,1.3511825943939393
basic,33,42,0,0,1,27,"[0, 5, 4, 22, 8, 1, 7, 26, 27]",9,0,[],14.43808994,14066,1530,1,0,9,1.3391911688802078
basic,33,42,0,1,1,27,"[0, 5, 4, 22, 8, 1, 7, 26, 27]",9,0,[],14.43808994,15497,1431,1,0,9,1.3391911688802078
basic,34,32,0,0,0,0,[0],1,29,"[1, 2, 3, 4, 5, 6, 7, 8, 9, 10, 11, 12, 13, 14, 15, 16, 17, 18, 19, 20, 21, 22, 23, 24, 25, 26, 27, 28, 29]",300,169,-1,17,359,10,0.0
basic,34,32,0,0,0,15,"[0, 15]",2,24,"[2, 3, 4, 5, 6, 7, 8, 9, 10, 11, 12, 13, 14, 16, 17, 19, 20, 22, 23, 24, 25, 26, 27, 28]",214.6185032,3093,2924,11,153,9,1.0
basic,34,32,0,0,0,28,"[0, 15, 28]",3,21,"[2, 3, 5, 7, 8, 9, 10, 11, 12, 13, 14, 16, 17, 19, 20, 22, 23, 24, 25, 26, 27]",203.2167489,3549,456,11,119,9,1.000160051986942
basic,34,32,0,0,0,12,"[0, 15, 28, 12]",4,19,"[2, 3, 5, 7, 8, 9, 10, 11, 13, 16, 17, 19, 20, 22, 23, 24, 25, 26, 27]",184.243083,4008,459,8,71,9,1.0281484763748023
basic,34,32,0,0,0,16,"[0, 15, 28, 12, 16]",5,17,"[2, 3, 5, 7, 8, 9, 10, 11, 13, 17, 19, 20, 22, 23, 24, 26, 27]",168.5906071,4565,557,6,38,9,1.1190771370096
basic,34,32,0,0,0,22,"[0, 15, 28, 12, 16, 22]",6,10,"[2, 3, 5, 8, 9, 10, 11, 17, 20, 27]",134.7527585,5926,1361,4,16,9,1.1702311155319893
basic,34,32,0,0,0,27,"[0, 15, 28, 12, 16, 22, 27]",7,2,"[3, 11]",51.22432022,8847,2921,2,0,9,1.3594299441530053
basic,34,32,0,0,0,3,"[0, 15, 28, 12, 16, 22, 27, 3]",8,1,[11],25.72922265,9542,695,1,0,9,1.3461314710402597
basic,34,32,0,0,1,11,"[0, 15, 28, 12, 16, 22, 27, 3, 11]",9,0,[],10.1087233,10021,479,1,0,9,1.3750045950993266
basic,34,32,0,1,1,11,"[0, 15, 28, 12, 16, 22, 27, 3, 11]",9,0,[],10.1087233,11593,1572,1,0,9,1.3750045950993266
basic,35,13,0,0,0,0,[0],1,29,"[1, 2, 3, 4, 5, 6, 7, 8, 9, 10, 11, 12, 13, 14, 15, 16, 17, 18, 19, 20, 21, 22, 23, 24, 25, 26, 27, 28, 29]",300,131,-1,60,2676,11,0.0
basic,35,13,0,0,0,24,"[0, 24]",2,28,"[1, 2, 3, 4, 5, 6, 7, 8, 9, 10, 11, 12, 13, 14, 15, 16, 17, 18, 19, 20, 21, 22, 23, 25, 26, 27, 28, 29]",288.8196601,4517,4386,16,1444,11,1.0
basic,35,13,0,0,0,28,"[0, 24, 28]",3,23,"[1, 2, 3, 4, 6, 7, 8, 9, 10, 11, 12, 13, 15, 16, 17, 19, 20, 21, 22, 23, 26, 27, 29]",222.5324064,5309,792,8,243,11,1.0513810491680837
basic,35,13,0,0,0,2,"[0, 24, 28, 2]",4,19,"[1, 3, 4, 6, 7, 9, 11, 12, 13, 15, 16, 17, 19, 20, 21, 23, 26, 27, 29]",184.889346,6086,777,7,110,11,1.050374132001543
basic,35,13,0,0,0,29,"[0, 24, 28, 2, 29]",5,18,"[1, 3, 4, 6, 7, 9, 11, 12, 13, 15, 16, 17, 19, 20, 21, 23, 26, 27]",173.1846461,6770,684,7,85,11,1.1393409619120594
basic,35,13,0,0,0,7,"[0, 24, 28, 2, 29, 7]",6,17,"[1, 3, 4, 6, 9, 11, 12, 13, 15, 16, 17, 19, 20, 21, 23, 26, 27]",157.9203086,7330,560,5,45,11,1.349777315111579
basic,35,13,0,0,0,26,"[0, 24, 28, 2, 29, 7, 26]",7,16,"[1, 3, 4, 6, 9, 11, 12, 13, 15, 16, 17, 19, 20, 21, 23, 27]",147.480002,8851,1521,5,25,11,1.5942082773824946
basic,35,13,0,0,0,6,"[0, 24, 28, 2, 29, 7, 26, 6]",8,12,"[1, 3, 4, 11, 13, 15, 16, 17, 19, 20, 23, 27]",127.3802508,9976,1125,4,12,11,1.5898347940840756
basic,35,13,0,0,0,11,"[0, 24, 28, 2, 29, 7, 26, 6, 11]",9,6,"[1, 13, 15, 16, 17, 23]",108.2752776,10983,1007,3,4,11,1.5029953945561012
basic,35,13,0,0,0,13,"[0, 24, 28, 2, 29, 7, 26, 6, 11, 13]",10,2,"[15, 17]",52.19497806,12055,1072,2,0,11,1.3655915863754327
basic,35,13,0,0,1,15,"[0, 24, 28, 2, 29, 7, 26, 6, 11, 13, 15]",11,0,[],12.38291958,13101,1046,1,0,11,1.3653085520078876
basic,35,13,0,1,1,15,"[0, 24, 28, 2, 29, 7, 26, 6, 11, 13, 15]",11,0,[],12.38291958,15646,2545,1,0,11,1.3653085520078876
basic,36,44,0,0,0,0,[0],1,29,"[1, 2, 3, 4, 5, 6, 7, 8, 9, 10, 11, 12, 13, 14, 15, 16, 17, 18, 19, 20, 21, 22, 23, 24, 25, 26, 27, 28, 29]",300,121,-1,13,126,7,0.0
basic,36,44,0,0,0,11,"[0, 11]",2,18,"[4, 5, 6, 7, 8, 9, 12, 14, 16, 17, 19, 20, 22, 23, 24, 25, 26, 28]",152.7790776,3792,3671,5,34,7,1.0
basic,36,44,0,0,0,24,"[0, 11, 24]",3,13,"[4, 5, 7, 8, 9, 12, 14, 17, 20, 22, 23, 25, 28]",125.8532535,4292,500,5,23,7,1.1588941745226709
basic,36,44,0,0,0,9,"[0, 11, 24, 9]",4,7,"[4, 7, 8, 12, 14, 20, 23]",93.09657483,4878,586,2,8,7,1.3039383713641313
basic,36,44,0,0,0,4,"[0, 11, 24, 9, 4]",5,5,"[7, 12, 14, 20, 23]",73.39885923,6500,1622,2,3,7,1.2901330701441578
basic,36,44,0,0,0,7,"[0, 11, 24, 9, 4, 7]",6,1,[23],42.38273439,7097,597,1,0,7,1.2468141312360979
basic,36,44,0,0,1,23,"[0, 11, 24, 9, 4, 7, 23]",7,0,[],23.27776121,9253,2156,1,0,7,1.2635191782769477
basic,36,44,0,1,1,23,"[0, 11, 24, 9, 4, 7, 23]",7,0,[],23.27776121,10656,1403,1,0,7,1.2635191782769477
basic,37,36,0,0,0,0,[0],1,24,"[2, 4, 5, 6, 7, 8, 9, 10, 12, 13, 14, 15, 16, 17, 18, 19, 20, 22, 23, 25, 26, 27, 28, 29]",300,115,-1,2,200,10,0.0
basic,37,36,0,0,0,12,"[0, 12]",2,23,"[2, 4, 5, 6, 7, 8, 9, 10, 13, 14, 15, 16, 17, 18, 19, 20, 22, 23, 25, 26, 27, 28, 29]",277.7963967,2605,2490,90,804,9,1.0
basic,37,36,0,0,0,9,"[0, 12, 9]",3,14,"[2, 4, 8, 10, 13, 16, 17, 18, 19, 23, 25, 27, 28, 29]",215.4345494,3771,1166,32,191,9,1.224429481246385
basic,37,36,0,0,0,16,"[0, 12, 9, 16]",4,8,"[2, 10, 13, 17, 18, 19, 23, 25]",168.137615,4813,1042,7,26,9,1.235383731443557
basic,37,36,0,0,0,17,"[0, 12, 9, 16, 17]",5,6,"[2, 10, 13, 18, 19, 25]",139.8180105,5238,425,7,14,9,1.6947865799475665
basic,37,36,0,0,0,19,"[0, 12, 9, 16, 17, 19]",6,5,"[2, 10, 13, 18, 25]",111.9253591,5732,494,6,1,9,2.440059772477113
basic,37,36,0,0,0,2,"[0, 12, 9, 16, 17, 19, 2]",7,2,"[13, 25]",74.80393675,6397,665,2,0,9,1.994135267441798
basic,37,36,0,0,0,25,"[0, 12, 9, 16, 17, 19, 2, 25]",8,1,[13],49.80393675,6869,472,1,0,9,2.1853059870598197
basic,37,36,0,0,1,13,"[0, 12, 9, 16, 17, 19, 2, 25, 13]",9,0,[],29.21267647,7487,618,1,0,9,2.7608371719978186
basic,37,36,0,1,1,13,"[0, 12, 9, 16, 17, 19, 2, 25, 13]",9,0,[],29.21267647,12011,4524,1,0,9,2.7608371719978186
basic,38,0,0,0,0,0,[0],1,27,"[2, 3, 4, 5, 6, 7, 8, 9, 10, 11, 12, 13, 14, 15, 16, 17, 19, 20, 21, 22, 23, 24, 25, 26, 27, 28, 29]",300,115,-1,104,1136,9,0.0
basic,38,0,0,0,0,5,"[0, 5]",2,24,"[2, 3, 4, 7, 8, 9, 11, 12, 13, 14, 15, 16, 17, 19, 20, 21, 22, 23, 24, 25, 26, 27, 28, 29]",164.5156836,3681,3566,5,112,9,1.0
basic,38,0,0,0,0,4,"[0, 5, 4]",3,20,"[2, 3, 7, 8, 9, 11, 12, 13, 14, 15, 17, 19, 20, 21, 22, 23, 24, 25, 26, 28]",139.4358112,4327,646,4,61,9,1.0257023158632692
basic,38,0,0,0,0,26,"[0, 5, 4, 26]",4,18,"[3, 7, 8, 9, 11, 12, 13, 14, 15, 17, 19, 20, 21, 22, 23, 24, 25, 28]",127.3942166,5570,1243,4,26,9,1.0684029773259323
basic,38,0,0,0,0,24,"[0, 5, 4, 26, 24]",5,12,"[3, 7, 8, 9, 11, 12, 15, 17, 19, 20, 23, 28]",110.2769738,6209,639,4,16,9,1.1372083333602885
basic,38,0,0,0,0,15,"[0, 5, 4, 26, 24, 15]",6,8,"[3, 7, 8, 9, 11, 12, 17, 19]",86.93173875,6834,625,4,7,9,1.1271717591548023
basic,38,0,0,0,0,7,"[0, 5, 4, 26, 24, 15, 7]",7,4,"[3, 8, 17, 19]",55.86728962,8015,1181,3,2,9,1.190834598819092
basic,38,0,0,0,0,8,"[0, 5, 4, 26, 24, 15, 7, 8]",8,2,"[3, 19]",36.76231644,9788,1773,2,0,9,1.1832849301094388
basic,38,0,0,0,1,3,"[0, 5, 4, 26, 24, 15, 7, 8, 3]",9,0,[],6.348503789,10571,783,1,0,9,1.3547295451928671
basic,38,0,0,1,1,3,"[0, 5, 4, 26, 24, 15, 7, 8, 3]",9,0,[],6.348503789,11941,1370,1,0,9,1.3547295451928671
basic,39,34,0,0,0,0,[0],1,25,"[1, 3, 4, 5, 6, 7, 8, 9, 10, 11, 12, 13, 15, 18, 19, 20, 21, 22, 23, 24, 25, 26, 27, 28, 29]",300,130,-1,12,367,10,0.0
basic,39,34,0,0,0,13,"[0, 13]",2,24,"[1, 3, 4, 5, 6, 7, 8, 9, 10, 11, 12, 15, 18, 19, 20, 21, 22, 23, 24, 25, 26, 27, 28, 29]",279.9750156,2411,2281,12,331,10,1.0
basic,39,34,0,0,0,1,"[0, 13, 1]",3,16,"[3, 5, 7, 8, 9, 10, 11, 12, 19, 21, 22, 23, 24, 25, 27, 29]",211.8574701,3080,669,3,92,10,1.0010381285747127
basic,39,34,0,0,0,8,"[0, 13, 1, 8]",4,14,"[3, 5, 7, 9, 10, 11, 12, 19, 22, 23, 24, 25, 27, 29]",201.0871405,3523,443,2,54,10,1.1636807
basic,39,34,0,0,0,25,"[0, 13, 1, 8, 25]",5,12,"[3, 5, 7, 9, 10, 11, 12, 22, 23, 24, 27, 29]",183.999133,3960,437,2,28,10,1.1396208815936457
basic,39,34,0,0,0,24,"[0, 13, 1, 8, 25, 24]",6,11,"[3, 5, 7, 9, 10, 11, 12, 22, 23, 27, 29]",166.5062774,4390,430,2,23,10,1.374180768736554
basic,39,34,0,0,0,12,"[0, 13, 1, 8, 25, 24, 12]",7,7,"[7, 9, 10, 11, 22, 23, 27]",115.4670767,6453,2063,1,8,10,1.4994254760835948
basic,39,34,0,0,0,7,"[0, 13, 1, 8, 25, 24, 12, 7]",8,5,"[9, 11, 22, 23, 27]",100.4337804,9473,3020,1,4,10,1.758992610425009
basic,39,34,0,0,0,23,"[0, 13, 1, 8, 25, 24, 12, 7, 23]",9,1,[27],72.27352467,10002,529,1,0,10,2.399781305190153
basic,39,34,0,0,1,27,"[0, 13, 1, 8, 25, 24, 12, 7, 23, 27]",10,0,[],18.60789321,10844,842,1,0,10,4.766619878750327
basic,39,34,0,1,1,27,"[0, 13, 1, 8, 25, 24, 12, 7, 23, 27]",10,0,[],18.60789321,12463,1619,1,0,10,4.766619878750327
basic,40,33,0,0,0,0,[0],1,23,"[1, 2, 5, 7, 8, 11, 12, 13, 14, 15, 16, 17, 18, 19, 20, 21, 23, 24, 25, 26, 27, 28, 29]",300,122,-1,5,108,9,0.0
basic,40,33,0,0,0,8,"[0, 8]",2,22,"[1, 2, 5, 7, 11, 12, 13, 14, 15, 16, 17, 18, 19, 20, 21, 23, 24, 25, 26, 27, 28, 29]",265.8679037,2989,2867,5,87,9,1.0
basic,40,33,0,0,0,21,"[0, 8, 21]",3,16,"[2, 5, 7, 11, 13, 14, 16, 17, 18, 19, 20, 24, 26, 27, 28, 29]",166.0430571,3848,859,5,80,9,1.0670557763739492
basic,40,33,0,0,0,13,"[0, 8, 21, 13]",4,12,"[2, 7, 11, 14, 16, 17, 18, 19, 20, 24, 26, 29]",139.6422995,7119,3271,4,54,9,1.0555103820910288
basic,40,33,0,0,0,19,"[0, 8, 21, 13, 19]",5,10,"[7, 11, 14, 16, 17, 18, 20, 24, 26, 29]",114.1472019,8807,1688,3,19,9,1.1090798607799486
basic,40,33,0,0,0,7,"[0, 8, 21, 13, 19, 7]",6,5,"[14, 18, 24, 26, 29]",68.52922302,9425,618,1,4,9,1.086202642130009
basic,40,33,0,0,0,14,"[0, 8, 21, 13, 19, 7, 14]",7,3,"[24, 26, 29]",53.66315427,9849,424,1,2,9,1.1354822367616264
basic,40,33,0,0,0,26,"[0, 8, 21, 13, 19, 7, 14, 26]",8,1,[29],41.01404363,10232,383,1,0,9,1.144734735418919
basic,40,33,0,0,1,29,"[0, 8, 21, 13, 19, 7, 14, 26, 29]",9,0,[],13.12139227,11578,1346,1,0,9,1.3638482940300902
basic,40,33,0,1,1,29,"[0, 8, 21, 13, 19, 7, 14, 26, 29]",9,0,[],13.12139227,13033,1455,1,0,9,1.3638482940300902
basic,41,39,0,0,0,0,[0],1,28,"[1, 2, 3, 4, 5, 6, 7, 9, 10, 11, 12, 13, 14, 15, 16, 17, 18, 19, 20, 21, 22, 23, 24, 25, 26, 27, 28, 29]",300,121,-1,1,30,10,0.0
basic,41,39,0,0,0,29,"[0, 29]",2,26,"[1, 2, 3, 4, 5, 6, 7, 9, 10, 12, 13, 14, 15, 16, 17, 18, 19, 20, 21, 22, 23, 24, 25, 26, 27, 28]",243.0614366,4758,4637,8,104,9,1.0
basic,41,39,0,0,0,12,"[0, 29, 12]",3,18,"[1, 2, 4, 5, 7, 9, 10, 13, 14, 15, 16, 18, 19, 22, 23, 24, 26, 28]",182.5221931,5515,757,5,54,9,1.0026200331524904
basic,41,39,0,0,0,10,"[0, 29, 12, 10]",4,16,"[1, 2, 4, 5, 7, 9, 13, 14, 15, 16, 18, 19, 22, 23, 24, 26]",147.0116313,8801,3286,5,34,9,1.2874817019928908
basic,41,39,0,0,0,7,"[0, 29, 12, 10, 7]",5,10,"[1, 2, 5, 13, 16, 18, 19, 22, 24, 26]",113.5900814,10481,1680,4,12,9,1.2250826263866774
basic,41,39,0,0,0,26,"[0, 29, 12, 10, 7, 26]",6,5,"[1, 16, 18, 19, 22]",94.90853971,10938,457,3,4,9,1.2697275353190085
basic,41,39,0,0,0,22,"[0, 29, 12, 10, 7, 26, 22]",7,2,"[16, 19]",77.18849457,11761,823,2,0,9,1.438961743955176
basic,41,39,0,0,0,16,"[0, 29, 12, 10, 7, 26, 22, 16]",8,1,[19],42.18849457,12321,560,1,0,9,1.3580882130477205
basic,41,39,0,0,1,19,"[0, 29, 12, 10, 7, 26, 22, 16, 19]",9,0,[],24.72424537,13997,1676,1,0,9,1.3646589157842668
basic,41,39,0,1,1,19,"[0, 29, 12, 10, 7, 26, 22, 16, 19]",9,0,[],24.72424537,14858,861,1,0,9,1.3646589157842668
basic,42,23,0,0,0,0,[0],1,28,"[1, 2, 3, 4, 5, 6, 7, 8, 9, 10, 11, 12, 13, 14, 15, 16, 17, 18, 19, 20, 21, 22, 23, 25, 26, 27, 28, 29]",300,113,-1,76,2626,10,0.0
basic,42,23,0,0,0,13,"[0, 13]",2,19,"[1, 2, 3, 5, 6, 7, 8, 9, 10, 12, 14, 17, 18, 19, 21, 22, 23, 27, 29]",189.3202819,4326,4213,9,168,10,1.0
basic,42,23,0,0,0,12,"[0, 13, 12]",3,16,"[1, 2, 3, 6, 7, 8, 9, 10, 14, 17, 18, 21, 22, 23, 27, 29]",177.2372359,4826,500,9,96,10,1.0014195490503164
basic,42,23,0,0,0,2,"[0, 13, 12, 2]",4,12,"[1, 3, 6, 7, 9, 10, 14, 18, 21, 22, 27, 29]",163.3447919,5409,583,4,30,10,1.0014394317924602
basic,42,23,0,0,0,9,"[0, 13, 12, 2, 9]",5,10,"[1, 6, 7, 10, 14, 18, 21, 22, 27, 29]",150.3063871,8056,2647,1,8,10,1.1457747074799831
basic,42,23,0,0,0,14,"[0, 13, 12, 2, 9, 14]",6,8,"[1, 6, 7, 10, 18, 22, 27, 29]",139.8660806,8701,645,1,6,10,1.1365880299138118
basic,42,23,0,0,0,29,"[0, 13, 12, 2, 9, 14, 29]",7,5,"[1, 6, 7, 10, 22]",92.43191571,9437,736,1,3,10,1.3460297288480787
basic,42,23,0,0,0,7,"[0, 13, 12, 2, 9, 14, 29, 7]",8,2,"[1, 10]",68.34872655,9903,466,1,1,10,1.3773159292410473
basic,42,23,0,0,0,10,"[0, 13, 12, 2, 9, 14, 29, 7, 10]",9,1,[1],40.88966612,10423,520,1,0,10,1.3556884556214648
basic,42,23,0,0,1,1,"[0, 13, 12, 2, 9, 14, 29, 7, 10, 1]",10,0,[],12.23656855,11118,695,1,0,10,1.3259861306330887
basic,42,23,0,1,1,1,"[0, 13, 12, 2, 9, 14, 29, 7, 10, 1]",10,0,[],12.23656855,13885,2767,1,0,10,1.3259861306330887
basic,43,25,0,0,0,0,[0],1,28,"[1, 2, 3, 4, 5, 7, 8, 9, 10, 11, 12, 13, 14, 15, 16, 17, 18, 19, 20, 21, 22, 23, 24, 25, 26, 27, 28, 29]",300,114,-1,5,94,10,0.0
basic,43,25,0,0,0,19,"[0, 19]",2,27,"[1, 2, 3, 4, 5, 7, 8, 9, 10, 11, 12, 13, 14, 15, 16, 17, 18, 20, 21, 22, 23, 24, 25, 26, 27, 28, 29]",251.9479449,3306,3192,2,30,10,1.0
basic,43,25,0,0,0,29,"[0, 19, 29]",3,26,"[1, 2, 3, 4, 5, 7, 8, 9, 10, 11, 12, 13, 14, 15, 16, 17, 18, 20, 21, 22, 23, 24, 25, 26, 27, 28]",235.6691243,3675,369,2,22,10,1.0272252084351727
basic,43,25,0,0,0,22,"[0, 19, 29, 22]",4,24,"[1, 2, 3, 4, 5, 7, 8, 9, 11, 12, 13, 14, 15, 16, 17, 18, 20, 21, 23, 24, 25, 26, 27, 28]",219.5446088,4119,444,2,17,10,1.03988854593305
basic,43,25,0,0,0,7,"[0, 19, 29, 22, 7]",5,10,"[1, 3, 5, 8, 9, 11, 13, 23, 24, 28]",143.9007062,5049,930,2,14,10,1.3318974800137366
basic,43,25,0,0,0,24,"[0, 19, 29, 22, 7, 24]",6,7,"[3, 8, 9, 11, 13, 23, 28]",119.1418694,5493,444,2,9,10,1.2868309735722725
basic,43,25,0,0,0,9,"[0, 19, 29, 22, 7, 24, 9]",7,4,"[3, 8, 13, 28]",101.114113,5965,472,2,7,10,1.2740198715343065
basic,43,25,0,0,0,3,"[0, 19, 29, 22, 7, 24, 9, 3]",8,3,"[8, 13, 28]",70.84862112,7008,1043,2,1,10,1.2376259292234586
basic,43,25,0,0,0,13,"[0, 19, 29, 22, 7, 24, 9, 3, 13]",9,1,[28],39.60762242,8827,1819,1,0,10,1.291892077575191
basic,43,25,0,0,1,28,"[0, 19, 29, 22, 7, 24, 9, 3, 13, 28]",10,0,[],5.373136879,9382,555,1,0,10,1.3615350048994297
basic,43,25,0,1,1,28,"[0, 19, 29, 22, 7, 24, 9, 3, 13, 28]",10,0,[],5.373136879,11323,1941,1,0,10,1.3615350048994297
basic,44,12,0,0,0,0,[0],1,29,"[1, 2, 3, 4, 5, 6, 7, 8, 9, 10, 11, 12, 13, 14, 15, 16, 17, 18, 19, 20, 21, 22, 23, 24, 25, 26, 27, 28, 29]",300,115,-1,2,32,9,0.0
basic,44,12,0,0,0,22,"[0, 22]",2,22,"[2, 4, 5, 6, 7, 9, 10, 12, 13, 14, 15, 16, 17, 18, 19, 21, 23, 24, 25, 27, 28, 29]",211.9943184,5897,5782,6,42,8,1.0
basic,44,12,0,0,0,16,"[0, 22, 16]",3,12,"[2, 4, 5, 6, 7, 12, 14, 19, 23, 24, 25, 27]",190.9943184,6397,500,6,24,8,1.2017164145167045
basic,44,12,0,0,0,4,"[0, 22, 16, 4]",4,9,"[2, 6, 7, 12, 14, 19, 24, 25, 27]",156.7890556,6946,549,6,14,8,1.146531713305579
basic,44,12,0,0,0,12,"[0, 22, 16, 4, 12]",5,4,"[14, 19, 24, 27]",114.5990094,7433,487,4,3,8,1.1221389456954312
basic,44,12,0,0,0,27,"[0, 22, 16, 4, 12, 27]",6,3,"[14, 19, 24]",90.24741807,7794,361,2,1,8,1.2262878338287035
basic,44,12,0,0,0,14,"[0, 22, 16, 4, 12, 27, 14]",7,1,[24],61.59432051,8316,522,1,0,8,1.2804562106751427
basic,44,12,0,0,1,24,"[0, 22, 16, 4, 12, 27, 14, 24]",8,0,[],44.38966997,8754,438,1,0,8,1.4322660007679802
basic,44,12,0,1,1,24,"[0, 22, 16, 4, 12, 27, 14, 24]",8,0,[],44.38966997,11747,2993,1,0,8,1.4322660007679802
basic,45,41,0,0,0,0,[0],1,29,"[1, 2, 3, 4, 5, 6, 7, 8, 9, 10, 11, 12, 13, 14, 15, 16, 17, 18, 19, 20, 21, 22, 23, 24, 25, 26, 27, 28, 29]",300,136,-1,1,143,10,0.0
basic,45,41,0,0,0,28,"[0, 28]",2,27,"[1, 2, 3, 5, 6, 7, 8, 9, 10, 11, 12, 13, 14, 15, 16, 17, 18, 19, 20, 21, 22, 23, 24, 25, 26, 27, 29]",259.8004975,2717,2581,37,249,9,1.0
basic,45,41,0,0,0,5,"[0, 28, 5]",3,26,"[1, 2, 3, 6, 7, 8, 9, 10, 11, 12, 13, 14, 15, 16, 17, 18, 19, 20, 21, 22, 23, 24, 25, 26, 27, 29]",246.199027,3412,695,30,182,9,1.714241539747437
basic,45,41,0,0,0,3,"[0, 28, 5, 3]",4,25,"[1, 2, 6, 7, 8, 9, 10, 11, 12, 13, 14, 15, 16, 17, 18, 19, 20, 21, 22, 23, 24, 25, 26, 27, 29]",211.3708775,4231,819,20,93,9,2.2367972660995847
basic,45,41,0,0,0,21,"[0, 28, 5, 3, 21]",5,19,"[1, 2, 6, 9, 10, 11, 12, 13, 14, 15, 17, 18, 19, 20, 22, 24, 25, 26, 27]",179.2305601,4732,501,12,46,9,2.470864770481327
basic,45,41,0,0,0,9,"[0, 28, 5, 3, 21, 9]",6,13,"[1, 2, 10, 12, 13, 14, 15, 17, 19, 22, 24, 25, 26]",129.8645799,5544,812,3,17,9,2.0674559404382
basic,45,41,0,0,0,2,"[0, 28, 5, 3, 21, 9, 2]",7,9,"[1, 10, 12, 14, 15, 17, 19, 22, 24]",117.7815339,6829,1285,2,7,9,2.0139863201149533
basic,45,41,0,0,0,17,"[0, 28, 5, 3, 21, 9, 2, 17]",8,1,[10],85.22389276,7468,639,1,0,9,3.388293326704014
basic,45,41,0,0,1,10,"[0, 28, 5, 3, 21, 9, 2, 17, 10]",9,0,[],35.97960375,8440,972,1,0,9,3.1208433501016275
basic,45,41,0,1,1,10,"[0, 28, 5, 3, 21, 9, 2, 17, 10]",9,0,[],35.97960375,10017,1577,1,0,9,3.1208433501016275
basic,46,29,0,0,0,0,[0],1,29,"[1, 2, 3, 4, 5, 6, 7, 8, 9, 10, 11, 12, 13, 14, 15, 16, 17, 18, 19, 20, 21, 22, 23, 24, 25, 26, 27, 28, 29]",300,167,-1,1,78,9,0.0
basic,46,29,0,0,0,14,"[0, 14]",2,22,"[1, 3, 4, 5, 6, 7, 9, 10, 11, 12, 13, 15, 16, 17, 21, 22, 23, 25, 26, 27, 28, 29]",209.490332,4115,3948,21,110,8,1.0
basic,46,29,0,0,0,13,"[0, 14, 13]",3,18,"[1, 4, 5, 6, 7, 9, 10, 12, 15, 16, 17, 21, 22, 25, 26, 27, 28, 29]",191.4625756,4549,434,20,75,8,1.0027006502223275
basic,46,29,0,0,0,5,"[0, 14, 13, 5]",4,15,"[1, 4, 6, 7, 9, 12, 15, 17, 21, 22, 25, 26, 27, 28, 29]",165.7526554,5060,511,19,49,8,1.0803937325657265
basic,46,29,0,0,0,7,"[0, 14, 13, 5, 7]",5,8,"[4, 9, 12, 21, 22, 26, 27, 28]",102.2231347,6324,1264,3,12,8,1.2026521321069321
basic,46,29,0,0,0,12,"[0, 14, 13, 5, 7, 12]",6,7,"[4, 9, 21, 22, 26, 27, 28]",88.62166416,6652,328,3,4,8,1.3692133279803023
basic,46,29,0,0,0,22,"[0, 14, 13, 5, 7, 12, 22]",7,1,[27],50.67433224,7213,561,1,0,8,2.1316115728184912
basic,46,29,0,0,1,27,"[0, 14, 13, 5, 7, 12, 22, 27]",8,0,[],17.43279196,7701,488,1,0,8,2.6081028152142105
basic,46,29,0,1,1,27,"[0, 14, 13, 5, 7, 12, 22, 27]",8,0,[],17.43279196,13987,6286,1,0,8,2.6081028152142105
basic,47,26,0,0,0,0,[0],1,29,"[1, 2, 3, 4, 5, 6, 7, 8, 9, 10, 11, 12, 13, 14, 15, 16, 17, 18, 19, 20, 21, 22, 23, 24, 25, 26, 27, 28, 29]",300,136,-1,9,226,9,0.0
basic,47,26,0,0,0,4,"[0, 4]",2,13,"[5, 6, 10, 12, 13, 14, 16, 17, 19, 21, 23, 26, 29]",178.7976898,5917,5781,4,118,8,1.0
basic,47,26,0,0,0,6,"[0, 4, 6]",3,7,"[10, 14, 16, 17, 21, 23, 29]",139.1744643,7182,1265,12,32,7,1.0013336767330427
basic,47,26,0,0,0,17,"[0, 4, 6, 17]",4,6,"[10, 14, 16, 21, 23, 29]",119.0498525,8120,938,5,11,7,1.2735075893302776
basic,47,26,0,0,0,14,"[0, 4, 6, 17, 14]",5,3,"[10, 16, 29]",96.57764743,10314,2194,2,1,7,1.2623003359138674
basic,47,26,0,0,0,29,"[0, 4, 6, 17, 14, 29]",6,1,[16],55.34659117,10932,618,1,0,7,2.002264131222815
basic,47,26,0,0,1,16,"[0, 4, 6, 17, 14, 29, 16]",7,0,[],31.1391543,11629,697,1,0,7,2.4016923086900097
basic,47,26,0,1,1,16,"[0, 4, 6, 17, 14, 29, 16]",7,0,[],31.1391543,12463,834,1,0,7,2.4016923086900097
basic,48,45,0,0,0,0,[0],1,24,"[1, 2, 3, 4, 5, 6, 7, 9, 10, 11, 12, 14, 15, 16, 17, 19, 20, 21, 22, 23, 24, 25, 27, 29]",300,122,-1,6,248,10,0.0
basic,48,45,0,0,0,15,"[0, 15]",2,23,"[1, 2, 3, 4, 5, 6, 7, 9, 10, 11, 12, 14, 16, 17, 19, 20, 21, 22, 23, 24, 25, 27, 29]",253.9022777,3876,3754,5,207,10,1.0
basic,48,45,0,0,0,23,"[0, 15, 23]",3,22,"[1, 2, 3, 4, 5, 6, 7, 9, 10, 11, 12, 14, 16, 17, 19, 20, 21, 22, 24, 25, 27, 29]",230.3014303,5042,1166,5,163,10,1.0006068457769497
basic,48,45,0,0,0,20,"[0, 15, 23, 20]",4,19,"[1, 2, 3, 5, 6, 7, 9, 10, 11, 12, 14, 16, 17, 19, 21, 22, 24, 25, 29]",188.8647316,5697,655,5,137,10,1.2062119754673604
basic,48,45,0,0,0,7,"[0, 15, 23, 20, 7]",5,14,"[2, 3, 5, 6, 9, 10, 12, 14, 17, 19, 21, 22, 24, 29]",137.2410936,10744,5047,3,38,10,1.2267717168083891
basic,48,45,0,0,0,2,"[0, 15, 23, 20, 7, 2]",6,8,"[3, 6, 10, 12, 19, 22, 24, 29]",99.22793795,11516,772,3,20,10,1.1978549169009853
basic,48,45,0,0,0,3,"[0, 15, 23, 20, 7, 2, 3]",7,5,"[6, 10, 12, 22, 29]",73.90996014,11911,395,2,7,10,1.2603420042999722
basic,48,45,0,0,0,29,"[0, 15, 23, 20, 7, 2, 3, 29]",8,3,"[6, 10, 12]",53.90996014,12536,625,2,1,10,1.527949676112761
basic,48,45,0,0,0,10,"[0, 15, 23, 20, 7, 2, 3, 29, 10]",9,1,[6],32.36930092,13697,1161,1,0,10,1.8188082660591487
basic,48,45,0,0,1,6,"[0, 15, 23, 20, 7, 2, 3, 29, 10, 6]",10,0,[],6.120491419,14279,582,1,0,10,1.7062675391073039
basic,48,45,0,1,1,6,"[0, 15, 23, 20, 7, 2, 3, 29, 10, 6]",10,0,[],6.120491419,15539,1260,1,0,10,1.7062675391073039
basic,49,6,0,0,0,0,[0],1,29,"[1, 2, 3, 4, 5, 6, 7, 8, 9, 10, 11, 12, 13, 14, 15, 16, 17, 18, 19, 20, 21, 22, 23, 24, 25, 26, 27, 28, 29]",300,162,-1,180,4304,10,0.0
basic,49,6,0,0,0,7,"[0, 7]",2,26,"[1, 2, 3, 4, 5, 6, 8, 9, 10, 11, 12, 13, 14, 15, 16, 17, 18, 19, 20, 21, 22, 23, 24, 26, 27, 29]",251.9791712,6279,6117,16,572,10,1.0
basic,49,6,0,0,0,3,"[0, 7, 3]",3,25,"[1, 2, 4, 5, 6, 8, 9, 10, 11, 12, 13, 14, 15, 16, 17, 18, 19, 20, 21, 22, 23, 24, 26, 27, 29]",215.8405492,6757,478,4,222,10,2.5102659609695053
basic,49,6,0,0,0,18,"[0, 7, 3, 18]",4,24,"[1, 2, 4, 5, 6, 8, 9, 10, 11, 12, 13, 14, 15, 16, 17, 19, 20, 21, 22, 23, 24, 26, 27, 29]",186.8405492,7390,633,2,107,10,1.8580714674494638
basic,49,6,0,0,0,17,"[0, 7, 3, 18, 17]",5,19,"[1, 2, 4, 5, 6, 8, 10, 11, 13, 14, 16, 20, 21, 22, 23, 24, 26, 27, 29]",172.9121609,8015,625,1,58,10,1.80071807751277
basic,49,6,0,0,0,10,"[0, 7, 3, 18, 17, 10]",6,16,"[1, 2, 4, 5, 6, 8, 11, 13, 14, 16, 22, 23, 24, 26, 27, 29]",153.189078,8544,529,1,24,10,1.74060984543639
basic,49,6,0,0,0,24,"[0, 7, 3, 18, 17, 10, 24]",7,14,"[2, 4, 5, 6, 8, 11, 13, 14, 16, 22, 23, 26, 27, 29]",139.7726701,9571,1027,1,18,10,1.646847350403074
basic,49,6,0,0,0,16,"[0, 7, 3, 18, 17, 10, 24, 16]",8,2,"[23, 29]",83.73696722,10383,812,2,0,9,2.996149139073471
basic,49,6,0,0,1,29,"[0, 7, 3, 18, 17, 10, 24, 16, 29]",9,0,[],47.04909456,10979,596,1,0,9,2.374942664346073
basic,49,6,0,1,1,29,"[0, 7, 3, 18, 17, 10, 24, 16, 29]",9,0,[],47.04909456,14052,3073,1,0,9,2.374942664346073
basic,50,2,0,0,0,0,[0],1,23,"[1, 2, 4, 5, 6, 7, 8, 9, 12, 13, 15, 16, 17, 18, 19, 20, 22, 23, 25, 26, 27, 28, 29]",300,120,-1,70,620,10,0.0
basic,50,2,0,0,0,19,"[0, 19]",2,22,"[1, 2, 4, 5, 6, 7, 8, 9, 12, 13, 15, 16, 17, 18, 20, 22, 23, 25, 26, 27, 28, 29]",210.306076,2881,2761,67,431,10,1.0
basic,50,2,0,0,0,12,"[0, 19, 12]",3,17,"[1, 4, 5, 6, 7, 13, 15, 16, 17, 18, 20, 22, 25, 26, 27, 28, 29]",174.2921898,3485,604,66,298,10,1.1107635036313153
basic,50,2,0,0,0,5,"[0, 19, 12, 5]",4,11,"[1, 6, 7, 13, 15, 16, 18, 22, 25, 26, 29]",144.7625437,4104,619,38,136,10,1.0968174771581647
basic,50,2,0,0,0,22,"[0, 19, 12, 5, 22]",5,8,"[1, 6, 7, 13, 15, 18, 26, 29]",131.9562952,4703,599,20,63,10,1.0889910507461968
basic,50,2,0,0,0,13,"[0, 19, 12, 5, 22, 13]",6,7,"[1, 6, 7, 15, 18, 26, 29]",117.0902265,5162,459,19,20,10,1.236526217328057
basic,50,2,0,0,0,18,"[0, 19, 12, 5, 22, 13, 18]",7,4,"[7, 15, 26, 29]",81.91921567,5937,775,10,3,10,1.2128708213409936
basic,50,2,0,0,0,7,"[0, 19, 12, 5, 22, 13, 18, 7]",8,3,"[15, 26, 29]",71.62358553,6583,646,5,0,10,1.2019811287894737
basic,50,2,0,0,0,26,"[0, 19, 12, 5, 22, 13, 18, 7, 26]",9,2,"[15, 29]",48.82007703,9625,3042,2,0,10,1.1883593342191134
basic,50,2,0,0,1,15,"[0, 19, 12, 5, 22, 13, 18, 7, 26, 15]",10,0,[],24.61264015,10236,611,1,0,10,1.4619750353663825
basic,50,2,0,1,1,15,"[0, 19, 12, 5, 22, 13, 18, 7, 26, 15]",10,0,[],24.61264015,12204,1968,1,0,10,1.4619750353663825
basic,51,31,0,0,0,0,[0],1,27,"[1, 3, 4, 5, 6, 7, 8, 10, 11, 12, 13, 14, 15, 16, 17, 18, 19, 20, 21, 22, 23, 24, 25, 26, 27, 28, 29]",300,115,-1,2,87,10,0.0
basic,51,31,0,0,0,14,"[0, 14]",2,25,"[1, 3, 5, 6, 7, 8, 10, 11, 12, 13, 15, 16, 17, 18, 19, 20, 21, 22, 23, 24, 25, 26, 27, 28, 29]",263.861378,2494,2379,2,59,10,1.0
basic,51,31,0,0,0,27,"[0, 14, 27]",3,22,"[1, 3, 5, 6, 7, 8, 10, 11, 12, 13, 15, 16, 17, 18, 19, 20, 21, 22, 24, 25, 28, 29]",235.6833724,3321,827,1,39,10,1.5881859159302467
basic,51,31,0,0,0,8,"[0, 14, 27, 8]",4,20,"[1, 3, 5, 6, 7, 10, 11, 12, 13, 16, 17, 18, 19, 20, 21, 22, 24, 25, 28, 29]",224.6380114,3655,334,1,36,10,2.1665048452331277
basic,51,31,0,0,0,18,"[0, 14, 27, 8, 18]",5,15,"[1, 5, 6, 7, 11, 12, 13, 16, 17, 19, 20, 22, 25, 28, 29]",188.7911147,4223,568,1,26,10,1.7273375741920205
basic,51,31,0,0,0,17,"[0, 14, 27, 8, 18, 17]",6,13,"[1, 5, 6, 7, 11, 12, 13, 16, 19, 20, 22, 25, 28]",159.584951,4928,705,1,13,10,1.551192427769927
basic,51,31,0,0,0,11,"[0, 14, 27, 8, 18, 17, 11]",7,7,"[5, 12, 16, 19, 22, 25, 28]",118.4753414,5655,727,1,4,10,2.9650760544203494
basic,51,31,0,0,0,5,"[0, 14, 27, 8, 18, 17, 11, 5]",8,2,"[16, 28]",74.79468207,6655,1000,1,1,10,2.56711965625205
basic,51,31,0,0,0,28,"[0, 14, 27, 8, 18, 17, 11, 5, 28]",9,1,[16],54.57093365,7260,605,1,0,10,2.2865510762058148
basic,51,31,0,0,1,16,"[0, 14, 27, 8, 18, 17, 11, 5, 28, 16]",10,0,[],20.95546102,7841,581,1,0,10,2.089356850786318
basic,51,31,0,1,1,16,"[0, 14, 27, 8, 18, 17, 11, 5, 28, 16]",10,0,[],20.95546102,10060,2219,1,0,10,2.089356850786318
basic,52,17,0,0,0,0,[0],1,28,"[1, 2, 3, 4, 5, 6, 7, 8, 9, 10, 11, 12, 13, 14, 15, 16, 17, 18, 19, 20, 22, 23, 24, 25, 26, 27, 28, 29]",300,115,-1,2,73,8,0.0
basic,52,17,0,0,0,9,"[0, 9]",2,25,"[1, 2, 3, 5, 6, 7, 8, 10, 11, 12, 14, 15, 16, 17, 18, 19, 20, 22, 23, 24, 25, 26, 27, 28, 29]",210.5293344,2259,2144,1,34,8,1.0
basic,52,17,0,0,0,16,"[0, 9, 16]",3,21,"[1, 2, 3, 5, 7, 8, 10, 11, 12, 14, 17, 18, 19, 20, 22, 23, 25, 26, 27, 28, 29]",197.1876704,2905,646,1,26,8,1.173103464220352
basic,52,17,0,0,0,2,"[0, 9, 16, 2]",4,18,"[1, 3, 5, 7, 8, 10, 11, 12, 14, 17, 18, 19, 23, 25, 26, 27, 28, 29]",181.0631549,3315,410,1,23,8,1.14825089247282
basic,52,17,0,0,0,8,"[0, 9, 16, 2, 8]",5,9,"[3, 7, 10, 11, 12, 14, 17, 26, 27]",145.9490551,4202,887,1,9,8,1.1509808066472915
basic,52,17,0,0,0,7,"[0, 9, 16, 2, 8, 7]",6,3,"[10, 12, 27]",75.238377,5057,855,3,0,7,1.2222166608088694
basic,52,17,0,0,1,27,"[0, 9, 16, 2, 8, 7, 27]",7,0,[],21.63800387,6059,1002,1,0,7,1.2961096752539074
basic,52,17,0,1,1,27,"[0, 9, 16, 2, 8, 7, 27]",7,0,[],21.63800387,8351,2292,1,0,7,1.2961096752539074
basic,53,9,0,0,0,0,[0],1,27,"[1, 3, 4, 5, 6, 7, 8, 9, 10, 11, 13, 14, 15, 16, 17, 18, 19, 20, 21, 22, 23, 24, 25, 26, 27, 28, 29]",300,129,-1,2,182,10,0.0
basic,53,9,0,0,0,25,"[0, 25]",2,24,"[1, 3, 4, 5, 6, 7, 8, 9, 10, 11, 13, 15, 16, 17, 18, 19, 20, 21, 22, 23, 24, 26, 27, 28]",275.9168108,7010,6881,2,104,10,1.0
basic,53,9,0,0,0,10,"[0, 25, 10]",3,20,"[3, 4, 5, 7, 8, 9, 11, 13, 15, 16, 17, 18, 19, 20, 21, 22, 23, 26, 27, 28]",236.0670932,7482,472,2,76,10,1.1767014107208227
basic,53,9,0,0,0,23,"[0, 25, 10, 23]",4,17,"[3, 4, 5, 7, 8, 9, 11, 16, 17, 18, 19, 20, 21, 22, 26, 27, 28]",172.9085625,10400,2918,13,69,9,2.1345590432489923
basic,53,9,0,0,0,8,"[0, 25, 10, 23, 8]",5,14,"[3, 4, 7, 9, 11, 16, 18, 19, 20, 21, 22, 26, 27, 28]",151.4376519,11107,707,5,23,9,2.329261685228971
basic,53,9,0,0,0,28,"[0, 25, 10, 23, 8, 28]",6,11,"[4, 7, 9, 16, 18, 19, 20, 21, 22, 26, 27]",140.6209981,11647,540,4,11,9,2.145752418917821
basic,53,9,0,0,0,26,"[0, 25, 10, 23, 8, 28, 26]",7,5,"[9, 18, 19, 20, 21]",95.84377172,14588,2941,2,3,9,1.7475440299711555
basic,53,9,0,0,0,21,"[0, 25, 10, 23, 8, 28, 26, 21]",8,1,[20],41.93644383,19628,5040,1,0,9,2.1771508205897874
basic,53,9,0,0,1,20,"[0, 25, 10, 23, 8, 28, 26, 21, 20]",9,0,[],29.85339786,20088,460,1,0,9,2.133031786911947
basic,53,9,0,1,1,20,"[0, 25, 10, 23, 8, 28, 26, 21, 20]",9,0,[],29.85339786,21478,1390,1,0,9,2.133031786911947
basic,54,24,0,0,0,0,[0],1,29,"[1, 2, 3, 4, 5, 6, 7, 8, 9, 10, 11, 12, 13, 14, 15, 16, 17, 18, 19, 20, 21, 22, 23, 24, 25, 26, 27, 28, 29]",300,120,-1,4,76,10,0.0
basic,54,24,0,0,0,16,"[0, 16]",2,28,"[1, 2, 3, 4, 5, 6, 7, 8, 9, 10, 11, 12, 13, 14, 15, 17, 18, 19, 20, 21, 22, 23, 24, 25, 26, 27, 28, 29]",210.3562607,4103,3983,13,110,9,1.0
basic,54,24,0,0,0,22,"[0, 16, 22]",3,27,"[1, 2, 3, 4, 5, 6, 7, 8, 9, 10, 11, 12, 13, 14, 15, 17, 18, 19, 20, 21, 23, 24, 25, 26, 27, 28, 29]",192.3285043,4814,711,7,54,9,1.0217425143037777
basic,54,24,0,0,0,8,"[0, 16, 22, 8]",4,21,"[1, 2, 3, 4, 6, 9, 10, 11, 13, 14, 15, 17, 20, 21, 23, 24, 25, 26, 27, 28, 29]",178.9120964,5236,422,4,28,9,1.0996636936037951
basic,54,24,0,0,0,15,"[0, 16, 22, 8, 15]",5,16,"[3, 4, 6, 9, 10, 11, 13, 14, 17, 23, 24, 25, 26, 27, 28, 29]",148.025206,5834,598,3,17,9,1.2704773343758617
basic,54,24,0,0,0,28,"[0, 16, 22, 8, 15, 28]",6,8,"[3, 4, 9, 11, 13, 23, 26, 27]",102.7482803,6374,540,3,5,9,1.1981967578189556
basic,54,24,0,0,0,23,"[0, 16, 22, 8, 15, 28, 23]",7,3,"[9, 11, 27]",83.72198273,6819,445,3,1,9,1.2275650852813986
basic,54,24,0,0,0,11,"[0, 16, 22, 8, 15, 28, 23, 11]",8,2,"[9, 27]",56.79615869,7332,513,2,0,9,1.2107937989822568
basic,54,24,0,0,1,9,"[0, 16, 22, 8, 15, 28, 23, 11, 9]",9,0,[],24.5471277,7861,529,1,0,9,1.2976612913524237
basic,54,24,0,1,1,9,"[0, 16, 22, 8, 15, 28, 23, 11, 9]",9,0,[],24.5471277,10447,2586,1,0,9,1.2976612913524237
basic,55,21,0,0,0,0,[0],1,29,"[1, 2, 3, 4, 5, 6, 7, 8, 9, 10, 11, 12, 13, 14, 15, 16, 17, 18, 19, 20, 21, 22, 23, 24, 25, 26, 27, 28, 29]",300,121,-1,84,830,9,0.0
basic,55,21,0,0,0,20,"[0, 20]",2,28,"[1, 2, 3, 4, 5, 6, 7, 8, 9, 10, 11, 12, 13, 14, 15, 16, 17, 18, 19, 21, 22, 23, 24, 25, 26, 27, 28, 29]",217.6228187,5023,4902,6,67,9,1.0
basic,55,21,0,0,0,22,"[0, 20, 22]",3,23,"[2, 4, 6, 7, 8, 9, 10, 11, 12, 13, 14, 15, 16, 17, 18, 19, 21, 23, 24, 25, 26, 27, 29]",189.3916303,5493,470,6,47,9,1.3451865712078994
basic,55,21,0,0,0,18,"[0, 20, 22, 18]",4,20,"[2, 4, 6, 7, 8, 9, 10, 11, 12, 14, 15, 16, 17, 21, 23, 24, 25, 26, 27, 29]",162.9908727,5849,356,4,25,9,2.3191924394507706
basic,55,21,0,0,0,25,"[0, 20, 22, 18, 25]",5,9,"[4, 6, 14, 15, 16, 17, 21, 23, 29]",121.2296467,8300,2451,2,13,9,2.988651874620227
basic,55,21,0,0,0,23,"[0, 20, 22, 18, 25, 23]",6,6,"[4, 14, 15, 16, 21, 29]",77.90528862,8856,556,2,4,9,2.2429232769784115
basic,55,21,0,0,0,21,"[0, 20, 22, 18, 25, 23, 21]",7,2,"[4, 14]",48.29110283,9550,694,1,1,9,2.800224728307879
basic,55,21,0,0,0,14,"[0, 20, 22, 18, 25, 23, 21, 14]",8,1,[4],22.67860588,10841,1291,1,0,9,2.4211207914807917
basic,55,21,0,0,1,4,"[0, 20, 22, 18, 25, 23, 21, 14, 4]",9,0,[],8.536470258,11209,368,1,0,9,2.278728428308114
basic,55,21,0,1,1,4,"[0, 20, 22, 18, 25, 23, 21, 14, 4]",9,0,[],8.536470258,12588,1379,1,0,9,2.278728428308114
basic,56,4,0,0,0,0,[0],1,26,"[3, 4, 5, 6, 7, 8, 10, 11, 12, 13, 14, 15, 16, 17, 18, 19, 20, 21, 22, 23, 24, 25, 26, 27, 28, 29]",300,115,-1,4,489,10,0.0
basic,56,4,0,0,0,28,"[0, 28]",2,21,"[3, 4, 5, 6, 10, 11, 12, 13, 14, 15, 16, 17, 19, 20, 21, 22, 23, 24, 25, 26, 27]",225.9392142,3834,3719,2,216,10,1.0
basic,56,4,0,0,0,14,"[0, 28, 14]",3,13,"[3, 4, 5, 6, 11, 13, 16, 17, 20, 21, 22, 24, 25]",159.6972335,4523,689,1,26,10,1.0273973946789214
basic,56,4,0,0,0,25,"[0, 28, 14, 25]",4,12,"[3, 4, 5, 6, 11, 13, 16, 17, 20, 21, 22, 24]",143.572718,5440,917,1,25,10,1.233547772313525
basic,56,4,0,0,0,11,"[0, 28, 14, 25, 11]",5,10,"[3, 4, 5, 6, 13, 16, 17, 20, 21, 22]",124.7844238,5952,512,1,15,10,1.425978575879479
basic,56,4,0,0,0,16,"[0, 28, 14, 25, 11, 16]",6,9,"[3, 4, 5, 6, 13, 17, 20, 21, 22]",109.7844238,6584,632,1,12,10,1.3799325158051412
basic,56,4,0,0,0,21,"[0, 28, 14, 25, 11, 16, 21]",7,4,"[5, 17, 20, 22]",65.58035157,10904,4320,3,3,9,1.5860540591673642
basic,56,4,0,0,0,22,"[0, 28, 14, 25, 11, 16, 21, 22]",8,3,"[5, 17, 20]",54.53499056,11432,528,3,0,9,1.5471132483772176
basic,56,4,0,0,1,20,"[0, 28, 14, 25, 11, 16, 21, 22, 20]",9,0,[],24.30255764,12106,674,1,0,9,1.5087977616865345
basic,56,4,0,1,1,20,"[0, 28, 14, 25, 11, 16, 21, 22, 20]",9,0,[],24.30255764,14337,2231,1,0,9,1.5087977616865345
basic,57,18,0,0,0,0,[0],1,28,"[1, 2, 3, 4, 5, 6, 7, 8, 9, 10, 11, 12, 13, 14, 16, 17, 18, 19, 20, 21, 22, 23, 24, 25, 26, 27, 28, 29]",300,124,-1,3,136,10,0.0
basic,57,18,0,0,0,28,"[0, 28]",2,16,"[1, 3, 5, 7, 8, 9, 12, 13, 14, 16, 20, 23, 24, 25, 26, 27]",236.4311397,3622,3498,2,19,10,1.0
basic,57,18,0,0,0,7,"[0, 28, 7]",3,15,"[1, 3, 5, 8, 9, 12, 13, 14, 16, 20, 23, 24, 25, 26, 27]",214.4084242,4122,500,2,17,10,1.4345180696367563
basic,57,18,0,0,0,25,"[0, 28, 7, 25]",4,13,"[1, 3, 5, 8, 9, 12, 13, 14, 16, 20, 23, 26, 27]",186.6055466,4616,494,2,15,10,1.8896451241781882
basic,57,18,0,0,0,8,"[0, 28, 7, 25, 8]",5,10,"[3, 5, 9, 12, 13, 14, 16, 23, 26, 27]",149.551532,5109,493,2,10,10,1.590467437592877
basic,57,18,0,0,0,13,"[0, 28, 7, 25, 8, 13]",6,9,"[3, 5, 9, 12, 14, 16, 23, 26, 27]",128.4565089,7630,2521,2,5,10,1.8248274983549797
basic,57,18,0,0,0,14,"[0, 28, 7, 25, 8, 13, 14]",7,7,"[3, 5, 9, 12, 23, 26, 27]",109.4828429,7978,348,2,3,10,1.6993534956692746
basic,57,18,0,0,0,3,"[0, 28, 7, 25, 8, 13, 14, 3]",8,3,"[5, 12, 27]",79.39962499,8407,429,2,1,10,1.802637206541468
basic,57,18,0,0,0,5,"[0, 28, 7, 25, 8, 13, 14, 3, 5]",9,1,[12],21.21887216,9088,681,1,0,10,1.559774889743805
basic,57,18,0,0,1,12,"[0, 28, 7, 25, 8, 13, 14, 3, 5, 12]",10,0,[],9.817117911,9872,784,1,0,10,1.563993037384447
basic,57,18,0,1,1,12,"[0, 28, 7, 25, 8, 13, 14, 3, 5, 12]",10,0,[],9.817117911,11180,1308,1,0,10,1.563993037384447
basic,58,27,0,0,0,0,[0],1,26,"[1, 3, 5, 6, 7, 8, 9, 10, 11, 12, 13, 14, 15, 16, 17, 18, 19, 21, 22, 23, 24, 25, 26, 27, 28, 29]",300,114,-1,13,578,11,0.0
basic,58,27,0,0,0,15,"[0, 15]",2,24,"[1, 3, 5, 6, 7, 8, 9, 10, 11, 12, 13, 14, 16, 17, 18, 19, 21, 22, 23, 24, 25, 26, 27, 29]",263.7508621,2925,2811,6,219,11,1.0
basic,58,27,0,0,0,24,"[0, 15, 24]",3,20,"[1, 5, 6, 7, 8, 9, 10, 12, 13, 14, 16, 17, 18, 19, 21, 23, 25, 26, 27, 29]",246.5462115,3591,666,6,130,11,1.130933077698322
basic,58,27,0,0,0,17,"[0, 15, 24, 17]",4,15,"[1, 6, 8, 10, 12, 13, 14, 16, 18, 19, 23, 25, 26, 27, 29]",229.9932662,4022,431,4,60,11,1.1285538435963374
basic,58,27,0,0,0,12,"[0, 15, 24, 17, 12]",5,14,"[1, 6, 8, 10, 13, 14, 16, 18, 19, 23, 25, 26, 27, 29]",218.8129263,4466,444,2,32,11,1.2561880288755216
basic,58,27,0,0,0,10,"[0, 15, 24, 17, 12, 10]",6,11,"[1, 8, 13, 14, 18, 19, 23, 25, 26, 27, 29]",207.7675653,4875,409,2,28,11,1.2228289337766665
basic,58,27,0,0,0,13,"[0, 15, 24, 17, 12, 10, 13]",7,9,"[1, 8, 14, 18, 19, 23, 26, 27, 29]",167.9178476,5425,550,2,18,11,1.3421291994761178
basic,58,27,0,0,0,19,"[0, 15, 24, 17, 12, 10, 13, 19]",8,5,"[1, 8, 14, 23, 29]",131.6825057,14099,8674,2,6,11,1.294749956153846
basic,58,27,0,0,0,8,"[0, 15, 24, 17, 12, 10, 13, 19, 8]",9,3,"[14, 23, 29]",116.816437,14455,356,2,1,11,1.3554286578836865
basic,58,27,0,0,0,29,"[0, 15, 24, 17, 12, 10, 13, 19, 8, 29]",10,1,[14],57.61339652,15156,701,1,0,11,1.248354519573802
basic,58,27,0,0,1,14,"[0, 15, 24, 17, 12, 10, 13, 19, 8, 29, 14]",11,0,[],13.31892734,15925,769,1,0,11,1.562811097555156
basic,58,27,0,1,1,14,"[0, 15, 24, 17, 12, 10, 13, 19, 8, 29, 14]",11,0,[],13.31892734,17414,1489,1,0,11,1.562811097555156
basic,59,3,0,0,0,0,[0],1,29,"[1, 2, 3, 4, 5, 6, 7, 8, 9, 10, 11, 12, 13, 14, 15, 16, 17, 18, 19, 20, 21, 22, 23, 24, 25, 26, 27, 28, 29]",300,119,-1,34,427,10,0.0
basic,59,3,0,0,0,7,"[0, 7]",2,28,"[1, 2, 3, 4, 5, 6, 8, 9, 10, 11, 12, 13, 14, 15, 16, 17, 18, 19, 20, 21, 22, 23, 24, 25, 26, 27, 28, 29]",278.8103799,3395,3276,24,215,10,1.0
basic,59,3,0,0,0,8,"[0, 7, 8]",3,24,"[1, 2, 3, 4, 5, 6, 10, 11, 12, 13, 14, 15, 16, 17, 18, 19, 20, 21, 22, 24, 25, 26, 27, 28]",222.837172,4145,750,16,114,10,1.2853332575451413
basic,59,3,0,0,0,24,"[0, 7, 8, 24]",4,21,"[1, 3, 4, 5, 6, 10, 11, 12, 14, 15, 16, 17, 18, 19, 20, 21, 22, 25, 26, 27, 28]",210.671647,4597,452,16,91,10,1.5177505014936548
basic,59,3,0,0,0,14,"[0, 7, 8, 24, 14]",5,7,"[3, 4, 10, 17, 19, 20, 21]",139.5590602,5464,867,4,18,10,1.2465780547557723
basic,59,3,0,0,0,21,"[0, 7, 8, 24, 14, 21]",6,6,"[3, 4, 10, 17, 19, 20]",112.6518121,6006,542,2,7,10,1.2183717977583874
basic,59,3,0,0,0,19,"[0, 7, 8, 24, 14, 21, 19]",7,5,"[3, 4, 10, 17, 20]",100.4452565,6409,403,2,4,10,1.3521756718137403
basic,59,3,0,0,0,3,"[0, 7, 8, 24, 14, 21, 19, 3]",8,2,"[17, 20]",63.10894706,7043,634,2,0,10,1.8936141376820974
basic,59,3,0,0,0,20,"[0, 7, 8, 24, 14, 21, 19, 3, 20]",9,1,[17],42.712869,7480,437,1,0,10,2.2725211329603123
basic,59,3,0,0,1,17,"[0, 7, 8, 24, 14, 21, 19, 3, 20, 17]",10,0,[],30.06375836,8201,721,1,0,10,2.638583435197603
basic,59,3,0,1,1,17,"[0, 7, 8, 24, 14, 21, 19, 3, 20, 17]",10,0,[],30.06375836,11780,3579,1,0,10,2.638583435197603
basic,60,35,0,0,0,0,[0],1,29,"[1, 2, 3, 4, 5, 6, 7, 8, 9, 10, 11, 12, 13, 14, 15, 16, 17, 18, 19, 20, 21, 22, 23, 24, 25, 26, 27, 28, 29]",300,121,-1,5,236,11,0.0
basic,60,35,0,0,0,24,"[0, 24]",2,27,"[1, 2, 4, 5, 6, 7, 8, 9, 10, 11, 12, 13, 14, 15, 16, 17, 18, 19, 20, 21, 22, 23, 25, 26, 27, 28, 29]",268.9838752,2350,2229,49,512,10,1.0
basic,60,35,0,0,0,17,"[0, 24, 17]",3,26,"[1, 2, 4, 5, 6, 7, 8, 9, 10, 11, 12, 13, 14, 15, 16, 18, 19, 20, 21, 22, 23, 25, 26, 27, 28, 29]",257.2791753,2681,331,33,238,10,1.0771477201815276
basic,60,35,0,0,0,1,"[0, 24, 17, 1]",4,25,"[2, 4, 5, 6, 7, 8, 9, 10, 11, 12, 13, 14, 15, 16, 18, 19, 20, 21, 22, 23, 25, 26, 27, 28, 29]",241.4677869,3064,383,26,151,10,1.2244804141479215
basic,60,35,0,0,0,15,"[0, 24, 17, 1, 15]",5,23,"[2, 4, 5, 6, 7, 8, 9, 10, 11, 12, 14, 16, 18, 19, 20, 21, 22, 23, 25, 26, 27, 28, 29]",218.6204676,3591,527,26,78,10,1.4642196672428094
basic,60,35,0,0,0,9,"[0, 24, 17, 1, 15, 9]",6,8,"[5, 6, 18, 19, 23, 25, 27, 28]",136.3283052,4410,819,4,17,10,1.4559671847403095
basic,60,35,0,0,0,18,"[0, 24, 17, 1, 15, 9, 18]",7,5,"[5, 6, 19, 23, 25]",116.3033208,4911,501,2,5,10,1.428087426214553
basic,60,35,0,0,0,25,"[0, 24, 17, 1, 15, 9, 18, 25]",8,2,"[6, 23]",82.46547216,5751,840,1,1,10,1.343292070389275
basic,60,35,0,0,0,6,"[0, 24, 17, 1, 15, 9, 18, 25, 6]",9,1,[23],58.44464786,6278,527,1,0,10,1.5973591462902639
