condition,trial_id,map_id,undoIndicator,submit,checkEnd,currentChoice,chosen_all,n_city_all,n_within_reach,cities_reach,currentBudget,time_all,rt_all,n_opt_paths_all,n_subopt_paths_all,mas_all,tortuosity_all
basic,0,38,0,0,0,0,[0],1,29,"[1, 2, 3, 4, 5, 6, 7, 8, 9, 10, 11, 12, 13, 14, 15, 16, 17, 18, 19, 20, 21, 22, 23, 24, 25, 26, 27, 28, 29]",300,142,-1,33,506,9,0.0
basic,0,38,0,0,0,19,"[0, 19]",2,23,"[3, 4, 5, 6, 7, 8, 9, 11, 13, 14, 15, 16, 17, 18, 20, 22, 23, 24, 25, 26, 27, 28, 29]",219.5015528,29435,29293,6,61,9,1.0
basic,0,38,0,0,0,17,"[0, 19, 17]",3,21,"[3, 4, 5, 6, 7, 9, 11, 13, 14, 15, 16, 18, 20, 22, 23, 24, 25, 26, 27, 28, 29]",198.1239945,30367,932,6,53,9,1.571793785769489
basic,0,38,0,0,0,20,"[0, 19, 17, 20]",4,17,"[3, 4, 5, 6, 7, 11, 13, 14, 15, 16, 18, 22, 24, 25, 26, 27, 28]",174.3542658,31122,755,6,44,9,2.333182710277297
basic,0,38,0,0,0,4,"[0, 19, 17, 20, 4]",5,10,"[5, 11, 13, 14, 15, 16, 24, 26, 27, 28]",140.4131403,44588,13466,5,22,9,2.276099229646013
basic,0,38,0,0,0,15,"[0, 19, 17, 20, 4, 15]",6,8,"[5, 11, 13, 14, 16, 24, 26, 28]",114.4131403,45529,941,5,6,9,2.5292671156176403
basic,0,38,0,0,0,11,"[0, 19, 17, 20, 4, 15, 11]",7,2,"[16, 28]",78.01259089,46631,1102,2,0,9,2.778100109749787
basic,0,38,0,0,0,28,"[0, 19, 17, 20, 4, 15, 11, 28]",8,1,[16],50.99407872,52205,5574,1,0,9,2.3316428595723258
basic,0,38,0,0,1,16,"[0, 19, 17, 20, 4, 15, 11, 28, 16]",9,0,[],21.99407872,52822,617,1,0,9,2.5408012360364265
basic,0,38,0,1,1,16,"[0, 19, 17, 20, 4, 15, 11, 28, 16]",9,0,[],21.99407872,55314,2492,1,0,9,2.5408012360364265
basic,1,26,0,0,0,0,[0],1,29,"[1, 2, 3, 4, 5, 6, 7, 8, 9, 10, 11, 12, 13, 14, 15, 16, 17, 18, 19, 20, 21, 22, 23, 24, 25, 26, 27, 28, 29]",300,162,-1,9,226,9,0.0
basic,1,26,0,0,0,21,"[0, 21]",2,25,"[2, 3, 4, 5, 6, 7, 8, 10, 11, 12, 13, 14, 15, 16, 17, 18, 19, 22, 23, 24, 25, 26, 27, 28, 29]",211.1349337,19570,19408,7,90,9,1.0
basic,1,26,0,0,0,13,"[0, 21, 13]",3,21,"[3, 4, 5, 6, 7, 8, 10, 11, 12, 14, 15, 16, 17, 18, 19, 22, 23, 24, 25, 26, 29]",188.9989901,20105,535,6,45,9,1.0103952279992225
basic,1,26,0,0,0,23,"[0, 21, 13, 23]",4,13,"[3, 4, 5, 6, 10, 11, 14, 16, 17, 18, 22, 26, 29]",150.9858345,21184,1079,3,17,9,1.1069410469330032
basic,1,26,0,0,0,16,"[0, 21, 13, 23, 16]",5,7,"[4, 5, 6, 10, 14, 17, 29]",97.75050789,21956,772,3,13,9,1.8066634000662438
basic,1,26,0,0,0,29,"[0, 21, 13, 23, 16, 29]",6,5,"[4, 6, 10, 14, 17]",73.54307102,22432,476,3,9,9,1.853342605492142
basic,1,26,0,0,0,4,"[0, 21, 13, 23, 16, 29, 4]",7,3,"[6, 14, 17]",49.54307102,23137,705,2,2,9,2.0664369230924997
basic,1,26,0,0,0,17,"[0, 21, 13, 23, 16, 29, 4, 17]",8,2,"[6, 14]",28.44804791,24003,866,2,0,9,1.911153301956092
basic,1,26,0,0,1,14,"[0, 21, 13, 23, 16, 29, 4, 17, 14]",9,0,[],5.975842855,24442,439,1,0,9,1.8245133223656398
basic,1,26,0,1,1,14,"[0, 21, 13, 23, 16, 29, 4, 17, 14]",9,0,[],5.975842855,28322,3880,1,0,9,1.8245133223656398
basic,2,18,0,0,0,0,[0],1,28,"[1, 2, 3, 4, 5, 6, 7, 8, 9, 10, 11, 12, 13, 14, 16, 17, 18, 19, 20, 21, 22, 23, 24, 25, 26, 27, 28, 29]",300,161,-1,3,136,10,0.0
basic,2,18,0,0,0,28,"[0, 28]",2,16,"[1, 3, 5, 7, 8, 9, 12, 13, 14, 16, 20, 23, 24, 25, 26, 27]",236.4311397,4932,4771,2,19,10,1.0
basic,2,18,0,0,0,7,"[0, 28, 7]",3,15,"[1, 3, 5, 8, 9, 12, 13, 14, 16, 20, 23, 24, 25, 26, 27]",214.4084242,5466,534,2,17,10,1.4345180696367563
basic,2,18,0,0,0,25,"[0, 28, 7, 25]",4,13,"[1, 3, 5, 8, 9, 12, 13, 14, 16, 20, 23, 26, 27]",186.6055466,7098,1632,2,15,10,1.8896451241781882
basic,2,18,0,0,0,8,"[0, 28, 7, 25, 8]",5,10,"[3, 5, 9, 12, 13, 14, 16, 23, 26, 27]",149.551532,12211,5113,2,10,10,1.590467437592877
basic,2,18,0,0,0,13,"[0, 28, 7, 25, 8, 13]",6,9,"[3, 5, 9, 12, 14, 16, 23, 26, 27]",128.4565089,12709,498,2,5,10,1.8248274983549797
basic,2,18,0,0,0,14,"[0, 28, 7, 25, 8, 13, 14]",7,7,"[3, 5, 9, 12, 23, 26, 27]",109.4828429,13210,501,2,3,10,1.6993534956692746
basic,2,18,0,0,0,5,"[0, 28, 7, 25, 8, 13, 14, 5]",8,1,[12],27.4462657,14528,1318,1,0,9,1.5249327462045208
basic,2,18,0,0,1,12,"[0, 28, 7, 25, 8, 13, 14, 5, 12]",9,0,[],16.04451145,16557,2029,1,0,9,1.5304293755104785
basic,2,18,0,1,1,12,"[0, 28, 7, 25, 8, 13, 14, 5, 12]",9,0,[],16.04451145,18430,1873,1,0,9,1.5304293755104785
basic,3,1,0,0,0,0,[0],1,26,"[1, 2, 4, 5, 7, 8, 9, 10, 11, 12, 13, 14, 15, 16, 17, 18, 19, 20, 21, 22, 23, 24, 25, 26, 28, 29]",300,131,-1,6,74,7,0.0
basic,3,1,0,0,0,8,"[0, 8]",2,23,"[1, 4, 5, 7, 9, 10, 11, 12, 13, 14, 15, 16, 17, 18, 19, 20, 21, 23, 24, 25, 26, 28, 29]",202,12845,12714,1,16,7,1.0
basic,3,1,0,0,0,20,"[0, 8, 20]",3,12,"[1, 4, 5, 11, 13, 14, 15, 17, 18, 19, 28, 29]",125.9408125,13975,1130,1,7,7,1.02364736730791
basic,3,1,0,0,0,5,"[0, 8, 20, 5]",4,7,"[1, 4, 11, 13, 17, 18, 29]",104.469902,14878,903,1,3,7,1.0439599203945713
basic,3,1,0,0,0,18,"[0, 8, 20, 5, 18]",5,2,"[4, 29]",81.64447755,17165,2287,1,1,7,1.0840407791793756
basic,3,1,0,0,0,4,"[0, 8, 20, 5, 18, 4]",6,1,[29],42.69579336,17991,826,1,0,7,1.0902329133216275
basic,3,1,0,0,1,29,"[0, 8, 20, 5, 18, 4, 29]",7,0,[],6.640280603,19533,1542,1,0,7,1.2859729622882756
basic,3,1,0,1,1,29,"[0, 8, 20, 5, 18, 4, 29]",7,0,[],6.640280603,20763,1230,1,0,7,1.2859729622882756
basic,4,34,0,0,0,0,[0],1,25,"[1, 3, 4, 5, 6, 7, 8, 9, 10, 11, 12, 13, 15, 18, 19, 20, 21, 22, 23, 24, 25, 26, 27, 28, 29]",300,148,-1,12,367,10,0.0
basic,4,34,0,0,0,13,"[0, 13]",2,24,"[1, 3, 4, 5, 6, 7, 8, 9, 10, 11, 12, 15, 18, 19, 20, 21, 22, 23, 24, 25, 26, 27, 28, 29]",279.9750156,1987,1839,12,331,10,1.0
basic,4,34,0,0,0,1,"[0, 13, 1]",3,16,"[3, 5, 7, 8, 9, 10, 11, 12, 19, 21, 22, 23, 24, 25, 27, 29]",211.8574701,2790,803,3,92,10,1.0010381285747127
basic,4,34,0,0,0,8,"[0, 13, 1, 8]",4,14,"[3, 5, 7, 9, 10, 11, 12, 19, 22, 23, 24, 25, 27, 29]",201.0871405,3542,752,2,54,10,1.1636807
basic,4,34,0,0,0,25,"[0, 13, 1, 8, 25]",5,12,"[3, 5, 7, 9, 10, 11, 12, 22, 23, 24, 27, 29]",183.999133,4351,809,2,28,10,1.1396208815936457
basic,4,34,0,0,0,24,"[0, 13, 1, 8, 25, 24]",6,11,"[3, 5, 7, 9, 10, 11, 12, 22, 23, 27, 29]",166.5062774,5049,698,2,23,10,1.374180768736554
basic,4,34,0,0,0,12,"[0, 13, 1, 8, 25, 24, 12]",7,7,"[7, 9, 10, 11, 22, 23, 27]",115.4670767,11848,6799,1,8,10,1.4994254760835948
basic,4,34,0,0,0,7,"[0, 13, 1, 8, 25, 24, 12, 7]",8,5,"[9, 11, 22, 23, 27]",100.4337804,12344,496,1,4,10,1.758992610425009
basic,4,34,0,0,0,23,"[0, 13, 1, 8, 25, 24, 12, 7, 23]",9,1,[27],72.27352467,13065,721,1,0,10,2.399781305190153
basic,4,34,0,0,1,27,"[0, 13, 1, 8, 25, 24, 12, 7, 23, 27]",10,0,[],18.60789321,13960,895,1,0,10,4.766619878750327
basic,4,34,0,1,1,27,"[0, 13, 1, 8, 25, 24, 12, 7, 23, 27]",10,0,[],18.60789321,15052,1092,1,0,10,4.766619878750327
basic,5,8,0,0,0,0,[0],1,29,"[1, 2, 3, 4, 5, 6, 7, 8, 9, 10, 11, 12, 13, 14, 15, 16, 17, 18, 19, 20, 21, 22, 23, 24, 25, 26, 27, 28, 29]",300,146,-1,10,149,9,0.0
basic,5,8,0,0,0,5,"[0, 5]",2,28,"[1, 2, 3, 4, 6, 7, 8, 9, 10, 11, 12, 13, 14, 15, 16, 17, 18, 19, 20, 21, 22, 23, 24, 25, 26, 27, 28, 29]",254.5137383,6505,6359,10,100,9,1.0
basic,5,8,0,0,0,25,"[0, 5, 25]",3,20,"[1, 2, 3, 4, 6, 11, 12, 14, 15, 16, 17, 18, 19, 20, 21, 22, 23, 24, 28, 29]",215.3091468,7207,702,4,42,9,1.2272747879909065
basic,5,8,0,0,0,1,"[0, 5, 25, 1]",4,17,"[3, 4, 6, 11, 12, 14, 15, 16, 17, 18, 20, 21, 22, 23, 24, 28, 29]",190.3091468,7830,623,3,24,9,1.1770245007593956
basic,5,8,0,0,0,23,"[0, 5, 25, 1, 23]",5,15,"[3, 4, 6, 11, 14, 15, 16, 17, 18, 20, 21, 22, 24, 28, 29]",167.2874179,8279,449,1,14,9,1.141996583852372
basic,5,8,0,0,0,18,"[0, 5, 25, 1, 23, 18]",6,9,"[3, 4, 11, 14, 15, 16, 17, 24, 28]",125.5261919,9217,938,1,7,9,1.3199166330970717
basic,5,8,0,0,0,14,"[0, 5, 25, 1, 23, 18, 14]",7,2,"[11, 17]",68.03706246,16825,7608,1,1,9,2.714920831666598
basic,5,8,0,0,0,17,"[0, 5, 25, 1, 23, 18, 14, 17]",8,1,[11],31.02355141,17444,619,1,0,9,2.462600896722246
basic,5,8,0,0,1,11,"[0, 5, 25, 1, 23, 18, 14, 17, 11]",9,0,[],5.84419479,17974,530,1,0,9,2.246839316887767
basic,5,8,0,1,1,11,"[0, 5, 25, 1, 23, 18, 14, 17, 11]",9,0,[],5.84419479,18814,840,1,0,9,2.246839316887767
basic,6,14,0,0,0,0,[0],1,29,"[1, 2, 3, 4, 5, 6, 7, 8, 9, 10, 11, 12, 13, 14, 15, 16, 17, 18, 19, 20, 21, 22, 23, 24, 25, 26, 27, 28, 29]",300,164,-1,8,157,10,0.0
basic,6,14,0,0,0,15,"[0, 15]",2,20,"[1, 2, 3, 4, 7, 8, 9, 13, 17, 18, 19, 20, 21, 22, 23, 25, 26, 27, 28, 29]",216.7053423,3114,2950,8,102,10,1.0
basic,6,14,0,0,0,28,"[0, 15, 28]",3,17,"[1, 2, 3, 4, 7, 8, 9, 13, 17, 18, 19, 20, 22, 23, 25, 26, 27]",197.4959696,3583,469,8,48,10,1.0446007867311968
basic,6,14,0,0,0,17,"[0, 15, 28, 17]",4,14,"[1, 2, 3, 4, 7, 8, 13, 18, 19, 20, 22, 23, 25, 26]",184.0423455,3988,405,8,39,10,1.0729463354689972
basic,6,14,0,0,0,18,"[0, 15, 28, 17, 18]",5,9,"[1, 2, 4, 7, 8, 19, 23, 25, 26]",119.412631,4722,734,8,27,10,1.5035901079219378
basic,6,14,0,0,0,8,"[0, 15, 28, 17, 18, 8]",6,8,"[1, 2, 4, 7, 19, 23, 25, 26]",105.8111605,5314,592,8,18,10,1.4819689987843856
basic,6,14,0,0,0,1,"[0, 15, 28, 17, 18, 8, 1]",7,5,"[7, 19, 23, 25, 26]",82.21031307,6006,692,4,6,10,1.4084991998385268
basic,6,14,0,0,0,19,"[0, 15, 28, 17, 18, 8, 1, 19]",8,4,"[7, 23, 25, 26]",66.97876686,6481,475,4,1,10,1.5758713333797987
basic,6,14,0,0,0,26,"[0, 15, 28, 17, 18, 8, 1, 19, 26]",9,1,[23],13.75283333,7797,1316,1,0,10,1.4427883209195413
basic,6,14,0,0,1,23,"[0, 15, 28, 17, 18, 8, 1, 19, 26, 23]",10,0,[],2.936179503,8329,532,1,0,10,1.5803726510701064
basic,6,14,0,1,1,23,"[0, 15, 28, 17, 18, 8, 1, 19, 26, 23]",10,0,[],2.936179503,9456,1127,1,0,10,1.5803726510701064
basic,7,40,0,0,0,0,[0],1,29,"[1, 2, 3, 4, 5, 6, 7, 8, 9, 10, 11, 12, 13, 14, 15, 16, 17, 18, 19, 20, 21, 22, 23, 24, 25, 26, 27, 28, 29]",300,197,-1,8,191,9,0.0
basic,7,40,0,0,0,1,"[0, 1]",2,18,"[2, 5, 6, 7, 8, 9, 10, 11, 13, 15, 17, 18, 19, 21, 22, 23, 27, 29]",247.8463808,6464,6267,4,80,9,1.0
basic,7,40,0,0,0,6,"[0, 1, 6]",3,17,"[2, 5, 7, 8, 9, 10, 11, 13, 15, 17, 18, 19, 21, 22, 23, 27, 29]",227.7466295,6888,424,4,74,9,1.0459427008232034
basic,7,40,0,0,0,21,"[0, 1, 6, 21]",4,8,"[2, 5, 9, 17, 18, 19, 22, 23]",175.7754837,7606,718,4,25,9,1.0308822257404064
basic,7,40,0,0,0,9,"[0, 1, 6, 21, 9]",5,6,"[2, 5, 18, 19, 22, 23]",130.0699041,8132,526,4,12,9,1.377861912961129
basic,7,40,0,0,0,18,"[0, 1, 6, 21, 9, 18]",6,5,"[2, 5, 19, 22, 23]",113.5169588,8517,385,4,4,9,1.5742712168661408
basic,7,40,0,0,0,5,"[0, 1, 6, 21, 9, 18, 5]",7,3,"[19, 22, 23]",81.94165198,9063,546,2,1,9,1.7730665063055515
basic,7,40,0,0,0,23,"[0, 1, 6, 21, 9, 18, 5, 23]",8,1,[19],53.63970859,10684,1621,1,0,9,2.597442759912231
basic,7,40,0,0,1,19,"[0, 1, 6, 21, 9, 18, 5, 23, 19]",9,0,[],21.68661797,11527,843,1,0,9,2.7128328554069565
basic,7,40,0,1,1,19,"[0, 1, 6, 21, 9, 18, 5, 23, 19]",9,0,[],21.68661797,12953,1426,1,0,9,2.7128328554069565
basic,8,12,0,0,0,0,[0],1,29,"[1, 2, 3, 4, 5, 6, 7, 8, 9, 10, 11, 12, 13, 14, 15, 16, 17, 18, 19, 20, 21, 22, 23, 24, 25, 26, 27, 28, 29]",300,163,-1,2,32,9,0.0
basic,8,12,0,0,0,16,"[0, 16]",2,16,"[2, 4, 5, 6, 7, 12, 13, 14, 18, 19, 22, 23, 24, 25, 27, 29]",209.2916762,21916,21753,3,38,8,1.0
basic,8,12,0,0,0,4,"[0, 16, 4]",3,11,"[2, 5, 6, 7, 12, 14, 19, 22, 24, 25, 27]",175.0864135,22508,592,1,16,8,1.00004499617691
basic,8,12,0,0,0,12,"[0, 16, 4, 12]",4,6,"[14, 19, 22, 24, 25, 27]",132.8963673,23965,1457,1,8,8,1.0113942412768022
basic,8,12,0,0,0,27,"[0, 16, 4, 12, 27]",5,4,"[14, 19, 22, 24]",108.5447759,24575,610,1,3,8,1.1193150037844588
basic,8,12,0,0,0,14,"[0, 16, 4, 12, 27, 14]",6,2,"[19, 24]",79.89167838,25095,520,1,1,8,1.1821826897854277
basic,8,12,0,0,0,24,"[0, 16, 4, 12, 27, 14, 24]",7,1,[19],62.68702784,25699,604,1,0,8,1.3297400833764192
basic,8,12,0,0,1,19,"[0, 16, 4, 12, 27, 14, 24, 19]",8,0,[],3.865263163,26613,914,1,0,8,2.27325645157102
basic,8,12,0,1,1,19,"[0, 16, 4, 12, 27, 14, 24, 19]",8,0,[],3.865263163,27574,961,1,0,8,2.27325645157102
basic,9,30,0,0,0,0,[0],1,19,"[3, 4, 5, 7, 9, 11, 16, 17, 18, 19, 20, 21, 22, 24, 25, 26, 27, 28, 29]",300,146,-1,5,41,8,0.0
basic,9,30,0,0,0,27,"[0, 27]",2,10,"[3, 5, 7, 9, 18, 19, 20, 24, 25, 29]",90.59608409,5496,5350,7,22,6,1.0
basic,9,30,0,0,0,3,"[0, 27, 3]",3,8,"[5, 7, 18, 19, 20, 24, 25, 29]",71.49111091,6185,689,5,9,6,1.0022223300201003
basic,9,30,0,0,0,29,"[0, 27, 3, 29]",4,5,"[5, 7, 18, 19, 20]",52.89003567,6906,721,2,3,6,1.0149900937654948
basic,9,30,0,0,0,18,"[0, 27, 3, 29, 18]",5,1,[5],33.57682776,7394,488,1,0,6,1.0907994995031296
basic,9,30,0,0,1,5,"[0, 27, 3, 29, 18, 5]",6,0,[],20.53842295,7993,599,1,0,6,1.1556882660658163
basic,9,30,0,1,1,5,"[0, 27, 3, 29, 18, 5]",6,0,[],20.53842295,13535,5542,1,0,6,1.1556882660658163
basic,10,45,0,0,0,0,[0],1,24,"[1, 2, 3, 4, 5, 6, 7, 9, 10, 11, 12, 14, 15, 16, 17, 19, 20, 21, 22, 23, 24, 25, 27, 29]",300,148,-1,6,248,10,0.0
basic,10,45,0,0,0,15,"[0, 15]",2,23,"[1, 2, 3, 4, 5, 6, 7, 9, 10, 11, 12, 14, 16, 17, 19, 20, 21, 22, 23, 24, 25, 27, 29]",253.9022777,2920,2772,5,207,10,1.0
basic,10,45,0,0,0,23,"[0, 15, 23]",3,22,"[1, 2, 3, 4, 5, 6, 7, 9, 10, 11, 12, 14, 16, 17, 19, 20, 21, 22, 24, 25, 27, 29]",230.3014303,3403,483,5,163,10,1.0006068457769497
basic,10,45,0,0,0,20,"[0, 15, 23, 20]",4,19,"[1, 2, 3, 5, 6, 7, 9, 10, 11, 12, 14, 16, 17, 19, 21, 22, 24, 25, 29]",188.8647316,8766,5363,5,137,10,1.2062119754673604
basic,10,45,0,0,0,10,"[0, 15, 23, 20, 10]",5,12,"[2, 3, 6, 7, 9, 12, 14, 17, 22, 24, 25, 29]",132.784432,10066,1300,1,54,10,1.1363907740691004
basic,10,45,0,0,0,6,"[0, 15, 23, 20, 10, 6]",6,7,"[2, 3, 7, 12, 22, 24, 29]",106.5356225,14614,4548,20,9,9,1.12325622461992
basic,10,45,0,0,0,12,"[0, 15, 23, 20, 10, 6, 12]",7,4,"[2, 3, 22, 29]",86.4110107,15179,565,6,1,9,1.1241525752631578
basic,10,45,0,0,0,22,"[0, 15, 23, 20, 10, 6, 12, 22]",8,2,"[3, 29]",54.83570389,15778,599,2,0,9,1.1537558546242075
basic,10,45,0,0,1,3,"[0, 15, 23, 20, 10, 6, 12, 22, 3]",9,0,[],11.37307626,16756,978,1,0,9,1.6089547146201597
basic,10,45,0,1,1,3,"[0, 15, 23, 20, 10, 6, 12, 22, 3]",9,0,[],11.37307626,17683,927,1,0,9,1.6089547146201597
basic,11,5,0,0,0,0,[0],1,29,"[1, 2, 3, 4, 5, 6, 7, 8, 9, 10, 11, 12, 13, 14, 15, 16, 17, 18, 19, 20, 21, 22, 23, 24, 25, 26, 27, 28, 29]",300,180,-1,5,139,9,0.0
basic,11,5,0,0,0,12,"[0, 12]",2,22,"[2, 4, 5, 6, 8, 9, 10, 13, 14, 15, 16, 17, 18, 19, 21, 22, 23, 24, 25, 26, 27, 28]",228.3062067,6200,6020,1,27,9,1.0
basic,11,5,0,0,0,25,"[0, 12, 25]",3,21,"[2, 4, 5, 6, 8, 9, 10, 13, 14, 15, 16, 17, 18, 19, 21, 22, 23, 24, 26, 27, 28]",200.5213187,6800,600,1,20,9,1.584023303445617
basic,11,5,0,0,0,23,"[0, 12, 25, 23]",4,19,"[2, 4, 5, 6, 8, 9, 10, 13, 14, 15, 16, 17, 18, 19, 21, 22, 24, 26, 27]",182.0822298,7370,570,1,14,9,2.3508446989254357
basic,11,5,0,0,0,24,"[0, 12, 25, 23, 24]",5,15,"[2, 4, 5, 6, 8, 9, 13, 14, 15, 17, 18, 19, 22, 26, 27]",158.995437,7972,602,1,12,9,1.9469752046288753
basic,11,5,0,0,0,17,"[0, 12, 25, 23, 24, 17]",6,7,"[4, 5, 6, 8, 15, 18, 19]",124.0097257,8543,571,1,8,9,1.6482276497563642
basic,11,5,0,0,0,5,"[0, 12, 25, 23, 24, 17, 5]",7,4,"[4, 6, 15, 18]",80.96323916,9604,1061,1,3,9,1.4654649104389412
basic,11,5,0,0,1,6,"[0, 12, 25, 23, 24, 17, 5, 6]",8,0,[],11.64513186,10601,997,1,0,8,1.7266758571257486
basic,11,5,0,1,1,6,"[0, 12, 25, 23, 24, 17, 5, 6]",8,0,[],11.64513186,14435,3834,1,0,8,1.7266758571257486
basic,12,16,0,0,0,0,[0],1,29,"[1, 2, 3, 4, 5, 6, 7, 8, 9, 10, 11, 12, 13, 14, 15, 16, 17, 18, 19, 20, 21, 22, 23, 24, 25, 26, 27, 28, 29]",300,162,-1,13,161,9,0.0
basic,12,16,0,0,0,17,"[0, 17]",2,27,"[1, 2, 3, 4, 5, 7, 8, 9, 10, 11, 12, 13, 14, 15, 16, 18, 19, 20, 21, 22, 23, 24, 25, 26, 27, 28, 29]",241.3058776,2524,2362,2,58,9,1.0
basic,12,16,0,0,0,16,"[0, 17, 16]",3,26,"[1, 2, 3, 4, 5, 7, 8, 9, 10, 11, 12, 13, 14, 15, 18, 19, 20, 21, 22, 23, 24, 25, 26, 27, 28, 29]",212.9862731,3224,700,2,52,9,1.0529535521792848
basic,12,16,0,0,0,8,"[0, 17, 16, 8]",4,19,"[2, 3, 4, 5, 9, 12, 13, 14, 15, 19, 20, 21, 22, 23, 25, 26, 27, 28, 29]",164.6127266,4063,839,2,38,9,1.0915134501573105
basic,12,16,0,0,0,20,"[0, 17, 16, 8, 20]",5,10,"[3, 4, 5, 9, 12, 13, 15, 19, 21, 25]",106.8372993,6116,2053,1,15,9,1.067523143001942
basic,12,16,0,0,0,25,"[0, 17, 16, 8, 20, 25]",6,7,"[3, 4, 5, 9, 12, 13, 15]",94.18818869,6681,565,1,9,9,1.1170093326933646
basic,12,16,0,0,0,9,"[0, 17, 16, 8, 20, 25, 9]",7,5,"[3, 4, 5, 13, 15]",81.38194021,7151,470,1,4,9,1.1095076562662525
basic,12,16,0,0,0,15,"[0, 17, 16, 8, 20, 25, 9, 15]",8,1,[5],42.48463953,7903,752,1,0,9,1.213831159678775
basic,12,16,0,0,1,5,"[0, 17, 16, 8, 20, 25, 9, 15, 5]",9,0,[],13.0567616,8510,607,1,0,9,1.5171779607523481
basic,12,16,0,1,1,5,"[0, 17, 16, 8, 20, 25, 9, 15, 5]",9,0,[],13.0567616,9355,845,1,0,9,1.5171779607523481
basic,13,43,0,0,0,0,[0],1,23,"[1, 2, 3, 4, 5, 6, 7, 9, 10, 11, 12, 14, 15, 16, 17, 19, 20, 21, 22, 23, 25, 27, 29]",300,165,-1,16,556,12,0.0
basic,13,43,0,0,0,29,"[0, 29]",2,22,"[1, 2, 3, 4, 5, 6, 7, 9, 10, 11, 12, 14, 15, 16, 17, 19, 20, 21, 22, 23, 25, 27]",277.909278,1640,1475,16,520,12,1.0
basic,13,43,0,0,0,20,"[0, 29, 20]",3,20,"[1, 2, 3, 4, 6, 7, 9, 10, 11, 12, 14, 15, 16, 17, 19, 21, 22, 23, 25, 27]",254.4785289,3328,1688,15,422,12,1.082311746871282
basic,13,43,0,0,0,16,"[0, 29, 20, 16]",4,19,"[1, 2, 3, 4, 6, 7, 9, 10, 11, 12, 14, 15, 17, 19, 21, 22, 23, 25, 27]",231.8511119,3900,572,15,389,12,1.215201926898219
basic,13,43,0,0,0,25,"[0, 29, 20, 16, 25]",5,14,"[1, 2, 3, 4, 6, 7, 9, 11, 12, 14, 15, 19, 22, 23]",175.7708124,11053,7153,53,282,11,1.566384303308987
basic,13,43,0,0,0,15,"[0, 29, 20, 16, 25, 15]",6,13,"[1, 2, 3, 4, 6, 7, 9, 11, 12, 14, 19, 22, 23]",153.0992443,11651,598,27,108,11,1.776736412604812
basic,13,43,0,0,0,12,"[0, 29, 20, 16, 25, 15, 12]",7,10,"[1, 3, 6, 7, 9, 11, 14, 19, 22, 23]",133.7860364,12224,573,21,41,11,1.6813323012225032
basic,13,43,0,0,0,3,"[0, 29, 20, 16, 25, 15, 12, 3]",8,9,"[1, 6, 7, 9, 11, 14, 19, 22, 23]",120.7860364,12602,378,20,12,11,1.608740348096123
basic,13,43,0,0,0,22,"[0, 29, 20, 16, 25, 15, 12, 3, 22]",9,6,"[1, 6, 7, 11, 14, 19]",86.07292644,16099,3497,9,2,11,1.793657891802588
basic,13,43,0,0,0,19,"[0, 29, 20, 16, 25, 15, 12, 3, 22, 19]",10,3,"[1, 6, 7]",65.45739831,16517,418,3,0,11,1.6882745891803936
basic,13,43,0,0,1,1,"[0, 29, 20, 16, 25, 15, 12, 3, 22, 19, 1]",11,0,[],37.2793927,17389,872,1,0,11,1.825064866046553
basic,13,43,0,1,1,1,"[0, 29, 20, 16, 25, 15, 12, 3, 22, 19, 1]",11,0,[],37.2793927,20731,3342,1,0,11,1.825064866046553
basic,14,36,0,0,0,0,[0],1,24,"[2, 4, 5, 6, 7, 8, 9, 10, 12, 13, 14, 15, 16, 17, 18, 19, 20, 22, 23, 25, 26, 27, 28, 29]",300,147,-1,2,200,10,0.0
basic,14,36,0,0,0,16,"[0, 16]",2,12,"[2, 8, 9, 10, 12, 13, 17, 18, 19, 23, 25, 27]",193.262003,9581,9434,20,112,8,1.0
basic,14,36,0,0,0,17,"[0, 16, 17]",3,10,"[2, 9, 10, 12, 13, 18, 19, 23, 25, 27]",164.9423985,10164,583,14,64,8,1.4289609665642613
basic,14,36,0,0,0,9,"[0, 16, 17, 9]",4,8,"[2, 10, 12, 13, 18, 19, 23, 25]",138.693589,10763,599,6,21,8,2.335567583937715
basic,14,36,0,0,0,19,"[0, 16, 17, 9, 19]",5,6,"[2, 10, 12, 13, 18, 25]",123.5608431,11886,1123,6,5,8,2.2891022786553017
basic,14,36,0,0,0,2,"[0, 16, 17, 9, 19, 2]",6,3,"[10, 13, 25]",86.43942067,12843,957,2,1,8,1.891101810711848
basic,14,36,0,0,0,25,"[0, 16, 17, 9, 19, 2, 25]",7,1,[13],61.43942067,13526,683,1,0,8,2.0836773189568087
basic,14,36,0,0,1,13,"[0, 16, 17, 9, 19, 2, 25, 13]",8,0,[],40.84816038,13969,443,1,0,8,2.642206520923964
basic,14,36,0,1,1,13,"[0, 16, 17, 9, 19, 2, 25, 13]",8,0,[],40.84816038,15800,1831,1,0,8,2.642206520923964
basic,15,22,0,0,0,0,[0],1,29,"[1, 2, 3, 4, 5, 6, 7, 8, 9, 10, 11, 12, 13, 14, 15, 16, 17, 18, 19, 20, 21, 22, 23, 24, 25, 26, 27, 28, 29]",300,150,-1,31,704,9,0.0
basic,15,22,0,0,0,16,"[0, 16]",2,21,"[1, 3, 6, 7, 8, 9, 11, 13, 14, 15, 17, 18, 19, 20, 21, 22, 24, 25, 27, 28, 29]",218.605897,12750,12600,17,147,9,1.0
basic,15,22,0,0,0,28,"[0, 16, 28]",3,13,"[6, 7, 9, 13, 14, 17, 19, 20, 21, 22, 24, 25, 29]",184.1675463,13580,830,12,61,9,1.047282311284478
basic,15,22,0,0,0,6,"[0, 16, 28, 6]",4,12,"[7, 9, 13, 14, 17, 19, 20, 21, 22, 24, 25, 29]",154.1675463,14135,555,12,43,9,1.645645870580622
basic,15,22,0,0,0,29,"[0, 16, 28, 6, 29]",5,9,"[7, 9, 13, 14, 17, 19, 20, 21, 24]",96.29700112,21498,7363,2,4,9,2.64527042238385
basic,15,22,0,0,0,19,"[0, 16, 28, 6, 29, 19]",6,4,"[7, 9, 14, 24]",81.26370474,22034,536,2,2,9,2.747111096987313
basic,15,22,0,0,0,9,"[0, 16, 28, 6, 29, 19, 9]",7,2,"[7, 14]",60.86762669,22675,641,2,0,9,2.6702454883753064
basic,15,22,0,0,0,14,"[0, 16, 28, 6, 29, 19, 9, 14]",8,1,[7],17.82114019,23386,711,1,0,9,2.1782892870517085
basic,15,22,0,0,1,7,"[0, 16, 28, 6, 29, 19, 9, 14, 7]",9,0,[],4.782735376,23946,560,1,0,9,2.3473599721224465
basic,15,22,0,1,1,7,"[0, 16, 28, 6, 29, 19, 9, 14, 7]",9,0,[],4.782735376,25462,1516,1,0,9,2.3473599721224465
basic,16,33,0,0,0,0,[0],1,23,"[1, 2, 5, 7, 8, 11, 12, 13, 14, 15, 16, 17, 18, 19, 20, 21, 23, 24, 25, 26, 27, 28, 29]",300,178,-1,5,108,9,0.0
basic,16,33,0,0,0,8,"[0, 8]",2,22,"[1, 2, 5, 7, 11, 12, 13, 14, 15, 16, 17, 18, 19, 20, 21, 23, 24, 25, 26, 27, 28, 29]",265.8679037,2720,2542,5,87,9,1.0
basic,16,33,0,0,0,21,"[0, 8, 21]",3,16,"[2, 5, 7, 11, 13, 14, 16, 17, 18, 19, 20, 24, 26, 27, 28, 29]",166.0430571,3607,887,5,80,9,1.0670557763739492
basic,16,33,0,0,0,17,"[0, 8, 21, 17]",4,11,"[2, 7, 11, 13, 14, 16, 19, 20, 24, 26, 29]",127.4036989,10167,6560,1,18,9,1.0830294710276618
basic,16,33,0,0,0,13,"[0, 8, 21, 17, 13]",5,10,"[2, 7, 11, 14, 16, 19, 20, 24, 26, 29]",104.6001904,11300,1133,1,10,9,1.2861654105061844
basic,16,33,0,0,0,19,"[0, 8, 21, 17, 13, 19]",6,6,"[7, 14, 16, 24, 26, 29]",79.10509282,12601,1301,1,6,9,1.3181942666818214
basic,16,33,0,0,0,7,"[0, 8, 21, 17, 13, 19, 7]",7,3,"[14, 24, 26]",33.48711391,13413,812,1,2,9,1.25064167844248
basic,16,33,0,0,0,14,"[0, 8, 21, 17, 13, 19, 7, 14]",8,1,[26],18.62104516,13933,520,1,0,9,1.297007778404226
basic,16,33,0,0,1,26,"[0, 8, 21, 17, 13, 19, 7, 14, 26]",9,0,[],5.971934519,14598,665,1,0,9,1.2996231319325615
basic,16,33,0,1,1,26,"[0, 8, 21, 17, 13, 19, 7, 14, 26]",9,0,[],5.971934519,15866,1268,1,0,9,1.2996231319325615
basic,17,25,0,0,0,0,[0],1,28,"[1, 2, 3, 4, 5, 7, 8, 9, 10, 11, 12, 13, 14, 15, 16, 17, 18, 19, 20, 21, 22, 23, 24, 25, 26, 27, 28, 29]",300,131,-1,5,94,10,0.0
basic,17,25,0,0,0,23,"[0, 23]",2,23,"[1, 2, 3, 5, 7, 8, 9, 11, 12, 13, 14, 16, 17, 19, 20, 21, 22, 24, 25, 26, 27, 28, 29]",259.7756293,4024,3893,3,33,10,1.0
basic,17,25,0,0,0,19,"[0, 23, 19]",3,21,"[1, 2, 3, 5, 7, 8, 9, 11, 12, 13, 14, 16, 17, 20, 21, 22, 24, 25, 27, 28, 29]",223.9287326,4588,564,3,24,10,1.583101227007039
basic,17,25,0,0,0,29,"[0, 23, 19, 29]",4,19,"[1, 2, 3, 5, 7, 8, 9, 11, 12, 13, 14, 16, 17, 20, 21, 22, 24, 25, 28]",207.649912,5406,818,3,17,10,1.474631541426484
basic,17,25,0,0,0,22,"[0, 23, 19, 29, 22]",5,18,"[1, 2, 3, 5, 7, 8, 9, 11, 12, 13, 14, 16, 17, 20, 21, 24, 25, 28]",191.5253965,6007,601,3,14,10,1.4020377754906637
basic,17,25,0,0,0,7,"[0, 23, 19, 29, 22, 7]",6,7,"[3, 8, 9, 11, 13, 24, 28]",115.8814939,6820,813,3,11,10,1.5709678649326715
basic,17,25,0,0,0,24,"[0, 23, 19, 29, 22, 7, 24]",7,5,"[3, 8, 9, 13, 28]",91.12265712,7390,570,3,7,10,1.486191600033379
basic,17,25,0,0,0,9,"[0, 23, 19, 29, 22, 7, 24, 9]",8,4,"[3, 8, 13, 28]",73.09490075,7799,409,3,3,10,1.453504870342882
basic,17,25,0,0,0,3,"[0, 23, 19, 29, 22, 7, 24, 9, 3]",9,3,"[8, 13, 28]",42.82940885,11262,3463,3,0,10,1.388955167525479
basic,17,25,0,0,1,28,"[0, 23, 19, 29, 22, 7, 24, 9, 3, 28]",10,0,[],11.52445716,12893,1631,1,0,10,1.3331084120212044
basic,17,25,0,1,1,28,"[0, 23, 19, 29, 22, 7, 24, 9, 3, 28]",10,0,[],11.52445716,13886,993,1,0,10,1.3331084120212044
basic,18,23,0,0,0,0,[0],1,28,"[1, 2, 3, 4, 5, 6, 7, 8, 9, 10, 11, 12, 13, 14, 15, 16, 17, 18, 19, 20, 21, 22, 23, 25, 26, 27, 28, 29]",300,163,-1,76,2626,10,0.0
basic,18,23,0,0,0,22,"[0, 22]",2,24,"[1, 2, 3, 5, 6, 7, 8, 9, 10, 11, 12, 13, 14, 15, 17, 18, 19, 20, 21, 23, 25, 26, 27, 29]",210.5013967,11948,11785,15,1362,10,1.0
basic,18,23,0,0,0,13,"[0, 22, 13]",3,14,"[1, 2, 5, 6, 7, 8, 9, 10, 12, 14, 18, 21, 27, 29]",168.3113504,12593,645,14,522,10,1.1898173563652046
basic,18,23,0,0,0,12,"[0, 22, 13, 12]",4,11,"[1, 2, 6, 7, 9, 10, 14, 18, 21, 27, 29]",156.2283045,13163,570,12,166,10,1.1727968780218219
basic,18,23,0,0,0,6,"[0, 22, 13, 12, 6]",5,8,"[2, 7, 9, 10, 14, 18, 27, 29]",126.5466603,15094,1931,2,24,10,1.1544842845523764
basic,18,23,0,0,0,2,"[0, 22, 13, 12, 6, 2]",6,6,"[7, 9, 14, 18, 27, 29]",108.1075714,15646,552,2,8,10,1.4062299368922424
basic,18,23,0,0,0,9,"[0, 22, 13, 12, 6, 2, 9]",7,4,"[7, 14, 27, 29]",95.06916658,16242,596,1,3,10,1.5685676974894474
basic,18,23,0,0,0,14,"[0, 22, 13, 12, 6, 2, 9, 14]",8,3,"[7, 27, 29]",84.62886007,16810,568,1,2,10,1.528647150775544
basic,18,23,0,0,0,29,"[0, 22, 13, 12, 6, 2, 9, 14, 29]",9,1,[7],37.19469517,17804,994,1,0,10,1.7042299851162805
basic,18,23,0,0,1,7,"[0, 22, 13, 12, 6, 2, 9, 14, 29, 7]",10,0,[],13.11150601,18422,618,1,0,10,1.7057367602759512
basic,18,23,0,1,1,7,"[0, 22, 13, 12, 6, 2, 9, 14, 29, 7]",10,0,[],13.11150601,19581,1159,1,0,10,1.7057367602759512
basic,19,7,0,0,0,0,[0],1,29,"[1, 2, 3, 4, 5, 6, 7, 8, 9, 10, 11, 12, 13, 14, 15, 16, 17, 18, 19, 20, 21, 22, 23, 24, 25, 26, 27, 28, 29]",300,164,-1,3,79,9,0.0
basic,19,7,0,0,0,6,"[0, 6]",2,22,"[2, 4, 5, 7, 8, 9, 10, 11, 13, 14, 15, 16, 18, 19, 20, 21, 22, 23, 24, 25, 27, 28]",231.1160396,8082,7918,1,24,9,1.0
basic,19,7,0,0,0,25,"[0, 6, 25]",3,14,"[2, 4, 5, 7, 13, 14, 15, 16, 18, 19, 20, 21, 23, 28]",163.9371739,8729,647,1,15,9,1.1491202566384209
basic,19,7,0,0,0,4,"[0, 6, 25, 4]",4,10,"[2, 7, 13, 15, 16, 18, 19, 20, 21, 23]",139.1985401,9276,547,1,9,9,1.145081852791697
basic,19,7,0,0,0,20,"[0, 6, 25, 4, 20]",5,6,"[2, 7, 13, 16, 18, 19]",119.5516574,9659,383,1,4,9,1.2036846139155144
basic,19,7,0,0,0,18,"[0, 6, 25, 4, 20, 18]",6,5,"[2, 7, 13, 16, 19]",106.7454089,10054,395,1,3,9,1.3498144584217913
basic,19,7,0,0,0,7,"[0, 6, 25, 4, 20, 18, 7]",7,2,"[2, 19]",65.51435269,10804,750,1,1,9,1.2817825700699357
basic,19,7,0,0,0,19,"[0, 6, 25, 4, 20, 18, 7, 19]",8,1,[2],36.10347035,11413,609,1,0,9,1.3950287830764145
basic,19,7,0,0,1,2,"[0, 6, 25, 4, 20, 18, 7, 19, 2]",9,0,[],5.953843486,11964,551,1,0,9,1.4010142439340676
basic,19,7,0,1,1,2,"[0, 6, 25, 4, 20, 18, 7, 19, 2]",9,0,[],5.953843486,12953,989,1,0,9,1.4010142439340676
basic,20,41,0,0,0,0,[0],1,29,"[1, 2, 3, 4, 5, 6, 7, 8, 9, 10, 11, 12, 13, 14, 15, 16, 17, 18, 19, 20, 21, 22, 23, 24, 25, 26, 27, 28, 29]",300,148,-1,1,143,10,0.0
basic,20,41,0,0,0,13,"[0, 13]",2,23,"[1, 2, 3, 5, 6, 7, 9, 10, 11, 12, 14, 15, 17, 18, 19, 20, 21, 22, 24, 25, 26, 27, 28]",258.2747079,5052,4904,1,55,10,1.0
basic,20,41,0,0,0,28,"[0, 13, 28]",3,22,"[1, 2, 3, 5, 6, 7, 9, 10, 11, 12, 14, 15, 17, 18, 19, 20, 21, 22, 24, 25, 26, 27]",223.7928286,5799,747,1,39,10,1.895724242592676
basic,20,41,0,0,0,5,"[0, 13, 28, 5]",4,19,"[1, 2, 3, 6, 9, 10, 11, 12, 14, 15, 17, 18, 19, 20, 21, 22, 24, 25, 27]",210.1913581,6728,929,1,34,10,2.861541269398273
basic,20,41,0,0,0,22,"[0, 13, 28, 5, 22]",5,12,"[2, 3, 6, 9, 10, 11, 12, 17, 18, 20, 21, 25]",155.4464953,7746,1018,11,12,9,2.096079268852861
basic,20,41,0,0,0,3,"[0, 13, 28, 5, 22, 3]",6,8,"[2, 9, 10, 12, 17, 18, 20, 21]",125.4798472,8427,681,7,5,9,4.404491319005463
basic,20,41,0,0,0,21,"[0, 13, 28, 5, 22, 3, 21]",7,4,"[2, 9, 12, 17]",93.33952984,9015,588,5,1,9,4.228139797553632
basic,20,41,0,0,0,17,"[0, 13, 28, 5, 22, 3, 21, 17]",8,2,"[2, 9]",41.67716443,10982,1967,2,0,9,4.075283564568108
basic,20,41,0,0,1,9,"[0, 13, 28, 5, 22, 3, 21, 17, 9]",9,0,[],10.66103959,11576,594,1,0,9,3.515996564079767
basic,20,41,0,1,1,9,"[0, 13, 28, 5, 22, 3, 21, 17, 9]",9,0,[],10.66103959,13270,1694,1,0,9,3.515996564079767
basic,21,0,0,0,0,0,[0],1,27,"[2, 3, 4, 5, 6, 7, 8, 9, 10, 11, 12, 13, 14, 15, 16, 17, 19, 20, 21, 22, 23, 24, 25, 26, 27, 28, 29]",300,147,-1,104,1136,9,0.0
basic,21,0,0,0,0,20,"[0, 20]",2,25,"[2, 3, 4, 5, 6, 7, 8, 9, 11, 12, 13, 14, 15, 16, 17, 19, 21, 22, 23, 24, 25, 26, 27, 28, 29]",215.4955622,5102,4955,36,372,9,1.0
basic,21,0,0,0,0,5,"[0, 20, 5]",3,22,"[2, 3, 4, 7, 8, 9, 11, 12, 13, 14, 15, 16, 17, 19, 21, 22, 23, 24, 25, 26, 28, 29]",153.2942761,6035,933,33,251,9,1.0828244018179105
basic,21,0,0,0,0,4,"[0, 20, 5, 4]",4,19,"[2, 3, 7, 8, 9, 11, 12, 13, 14, 15, 17, 19, 21, 22, 23, 24, 25, 26, 28]",128.2144037,6744,709,21,127,9,1.0973859443611045
basic,21,0,0,0,0,26,"[0, 20, 5, 4, 26]",5,14,"[3, 7, 8, 9, 11, 12, 13, 14, 15, 17, 19, 23, 24, 28]",116.1728091,7227,483,9,63,9,1.1378617460104323
basic,21,0,0,0,0,24,"[0, 20, 5, 4, 26, 24]",6,11,"[3, 7, 8, 9, 11, 12, 15, 17, 19, 23, 28]",99.05556633,7868,641,9,24,9,1.204469953325506
basic,21,0,0,0,0,15,"[0, 20, 5, 4, 26, 24, 15]",7,8,"[3, 7, 8, 9, 11, 12, 17, 19]",75.71033127,8415,547,5,6,9,1.1865351459643638
basic,21,0,0,0,0,7,"[0, 20, 5, 4, 26, 24, 15, 7]",8,2,"[3, 8]",44.64588214,9176,761,2,0,9,1.2455705670301183
basic,21,0,0,0,1,8,"[0, 20, 5, 4, 26, 24, 15, 7, 8]",9,0,[],25.54090896,10618,1442,1,0,9,1.2337265013393985
basic,21,0,0,1,1,8,"[0, 20, 5, 4, 26, 24, 15, 7, 8]",9,0,[],25.54090896,12453,1835,1,0,9,1.2337265013393985
basic,22,31,0,0,0,0,[0],1,27,"[1, 3, 4, 5, 6, 7, 8, 10, 11, 12, 13, 14, 15, 16, 17, 18, 19, 20, 21, 22, 23, 24, 25, 26, 27, 28, 29]",300,147,-1,2,87,10,0.0
basic,22,31,0,0,0,14,"[0, 14]",2,25,"[1, 3, 5, 6, 7, 8, 10, 11, 12, 13, 15, 16, 17, 18, 19, 20, 21, 22, 23, 24, 25, 26, 27, 28, 29]",263.861378,4266,4119,2,59,10,1.0
basic,22,31,0,0,0,27,"[0, 14, 27]",3,22,"[1, 3, 5, 6, 7, 8, 10, 11, 12, 13, 15, 16, 17, 18, 19, 20, 21, 22, 24, 25, 28, 29]",235.6833724,4898,632,1,39,10,1.5881859159302467
basic,22,31,0,0,0,8,"[0, 14, 27, 8]",4,20,"[1, 3, 5, 6, 7, 10, 11, 12, 13, 16, 17, 18, 19, 20, 21, 22, 24, 25, 28, 29]",224.6380114,5269,371,1,36,10,2.1665048452331277
basic,22,31,0,0,0,18,"[0, 14, 27, 8, 18]",5,15,"[1, 5, 6, 7, 11, 12, 13, 16, 17, 19, 20, 22, 25, 28, 29]",188.7911147,7960,2691,1,26,10,1.7273375741920205
basic,22,31,0,0,0,17,"[0, 14, 27, 8, 18, 17]",6,13,"[1, 5, 6, 7, 11, 12, 13, 16, 19, 20, 22, 25, 28]",159.584951,18126,10166,1,13,10,1.551192427769927
basic,22,31,0,0,0,11,"[0, 14, 27, 8, 18, 17, 11]",7,7,"[5, 12, 16, 19, 22, 25, 28]",118.4753414,18768,642,1,4,10,2.9650760544203494
basic,22,31,0,0,0,5,"[0, 14, 27, 8, 18, 17, 11, 5]",8,2,"[16, 28]",74.79468207,19396,628,1,1,10,2.56711965625205
basic,22,31,0,0,0,28,"[0, 14, 27, 8, 18, 17, 11, 5, 28]",9,1,[16],54.57093365,19755,359,1,0,10,2.2865510762058148
basic,22,31,0,0,1,16,"[0, 14, 27, 8, 18, 17, 11, 5, 28, 16]",10,0,[],20.95546102,20435,680,1,0,10,2.089356850786318
basic,22,31,0,1,1,16,"[0, 14, 27, 8, 18, 17, 11, 5, 28, 16]",10,0,[],20.95546102,21579,1144,1,0,10,2.089356850786318
undo,23,29,0,0,0,0,[0],1,29,"[1, 2, 3, 4, 5, 6, 7, 8, 9, 10, 11, 12, 13, 14, 15, 16, 17, 18, 19, 20, 21, 22, 23, 24, 25, 26, 27, 28, 29]",300,149,-1,1,78,9,0.0
undo,23,29,0,0,0,6,"[0, 6]",2,28,"[1, 2, 3, 4, 5, 7, 8, 9, 10, 11, 12, 13, 14, 15, 16, 17, 18, 19, 20, 21, 22, 23, 24, 25, 26, 27, 28, 29]",228.4108947,10902,10753,1,25,9,1.0
undo,23,29,0,0,0,28,"[0, 6, 28]",3,24,"[1, 3, 4, 5, 7, 9, 10, 11, 12, 13, 14, 15, 16, 17, 18, 20, 21, 22, 23, 24, 25, 26, 27, 29]",187.1798384,11598,696,1,22,9,1.162106788166845
undo,23,29,0,0,0,27,"[0, 6, 28, 27]",4,19,"[1, 3, 4, 5, 7, 9, 10, 11, 12, 13, 14, 15, 16, 21, 22, 23, 25, 26, 29]",166.6615539,11979,381,1,21,9,1.2307173895439045
undo,23,29,0,0,0,22,"[0, 6, 28, 27, 22]",5,13,"[1, 3, 4, 5, 7, 9, 12, 13, 14, 15, 21, 26, 29]",133.4200136,12418,439,1,19,9,1.4241767805149903
undo,23,29,0,0,0,12,"[0, 6, 28, 27, 22, 12]",6,8,"[4, 5, 7, 9, 13, 14, 21, 26]",95.4726817,12995,577,1,6,9,1.3248355326460857
undo,23,29,0,0,0,7,"[0, 6, 28, 27, 22, 12, 7]",7,4,"[4, 5, 9, 21]",81.87121119,13374,379,1,3,9,1.3264091962339806
undo,23,29,0,0,0,9,"[0, 6, 28, 27, 22, 12, 7, 9]",8,1,[4],52.80232748,13904,530,1,0,9,1.309391257644539
undo,23,29,0,0,1,4,"[0, 6, 28, 27, 22, 12, 7, 9, 4]",9,0,[],11.76575843,14503,599,1,0,9,1.6396807789841599
undo,23,29,1,0,0,9,"[0, 6, 28, 27, 22, 12, 7, 9]",8,1,[4],52.80232748,17401,2898,1,0,9,1.309391257644539
undo,23,29,1,0,0,7,"[0, 6, 28, 27, 22, 12, 7]",7,4,"[4, 5, 9, 21]",81.87121119,17851,450,1,3,9,1.3264091962339806
undo,23,29,1,0,0,12,"[0, 6, 28, 27, 22, 12]",6,8,"[4, 5, 7, 9, 13, 14, 21, 26]",95.4726817,18001,150,1,6,9,1.3248355326460857
undo,23,29,1,0,0,22,"[0, 6, 28, 27, 22]",5,13,"[1, 3, 4, 5, 7, 9, 12, 13, 14, 15, 21, 26, 29]",133.4200136,18134,133,1,19,9,1.4241767805149903
undo,23,29,1,0,0,27,"[0, 6, 28, 27]",4,19,"[1, 3, 4, 5, 7, 9, 10, 11, 12, 13, 14, 15, 16, 21, 22, 23, 25, 26, 29]",166.6615539,18301,167,1,21,9,1.2307173895439045
undo,23,29,1,0,0,28,"[0, 6, 28]",3,24,"[1, 3, 4, 5, 7, 9, 10, 11, 12, 13, 14, 15, 16, 17, 18, 20, 21, 22, 23, 24, 25, 26, 27, 29]",187.1798384,18534,233,1,22,9,1.162106788166845
undo,23,29,1,0,0,6,"[0, 6]",2,28,"[1, 2, 3, 4, 5, 7, 8, 9, 10, 11, 12, 13, 14, 15, 16, 17, 18, 19, 20, 21, 22, 23, 24, 25, 26, 27, 28, 29]",228.4108947,18834,300,1,25,9,1.0
undo,23,29,1,0,0,0,[0],1,29,"[1, 2, 3, 4, 5, 6, 7, 8, 9, 10, 11, 12, 13, 14, 15, 16, 17, 18, 19, 20, 21, 22, 23, 24, 25, 26, 27, 28, 29]",300,19084,250,1,78,9,0.0
undo,23,29,0,0,0,14,"[0, 14]",2,22,"[1, 3, 4, 5, 6, 7, 9, 10, 11, 12, 13, 15, 16, 17, 21, 22, 23, 25, 26, 27, 28, 29]",209.490332,20170,1086,21,110,8,1.0
undo,23,29,0,0,0,13,"[0, 14, 13]",3,18,"[1, 4, 5, 6, 7, 9, 10, 12, 15, 16, 17, 21, 22, 25, 26, 27, 28, 29]",191.4625756,20520,350,20,75,8,1.0027006502223275
undo,23,29,0,0,0,5,"[0, 14, 13, 5]",4,15,"[1, 4, 6, 7, 9, 12, 15, 17, 21, 22, 25, 26, 27, 28, 29]",165.7526554,21384,864,19,49,8,1.0803937325657265
undo,23,29,0,0,0,4,"[0, 14, 13, 5, 4]",5,5,"[7, 9, 12, 21, 22]",113.8585324,21972,588,5,5,8,1.0589046774357636
undo,23,29,0,0,0,9,"[0, 14, 13, 5, 4, 9]",6,3,"[7, 12, 21]",72.82196333,22537,565,2,1,8,1.2033484462540056
undo,23,29,0,0,0,7,"[0, 14, 13, 5, 4, 9, 7]",7,1,[12],43.75307962,23054,517,1,0,8,1.5581999677939193
undo,23,29,0,0,1,12,"[0, 14, 13, 5, 4, 9, 7, 12]",8,0,[],30.15160911,23376,322,1,0,8,1.747955919287298
undo,23,29,1,0,0,7,"[0, 14, 13, 5, 4, 9, 7]",7,1,[12],43.75307962,24346,970,1,0,8,1.5581999677939193
undo,23,29,1,0,0,9,"[0, 14, 13, 5, 4, 9]",6,3,"[7, 12, 21]",72.82196333,24512,166,2,1,8,1.2033484462540056
undo,23,29,1,0,0,4,"[0, 14, 13, 5, 4]",5,5,"[7, 9, 12, 21, 22]",113.8585324,24662,150,5,5,8,1.0589046774357636
undo,23,29,1,0,0,5,"[0, 14, 13, 5]",4,15,"[1, 4, 6, 7, 9, 12, 15, 17, 21, 22, 25, 26, 27, 28, 29]",165.7526554,24812,150,19,49,8,1.0803937325657265
undo,23,29,1,0,0,13,"[0, 14, 13]",3,18,"[1, 4, 5, 6, 7, 9, 10, 12, 15, 16, 17, 21, 22, 25, 26, 27, 28, 29]",191.4625756,24979,167,20,75,8,1.0027006502223275
undo,23,29,1,0,0,14,"[0, 14]",2,22,"[1, 3, 4, 5, 6, 7, 9, 10, 11, 12, 13, 15, 16, 17, 21, 22, 23, 25, 26, 27, 28, 29]",209.490332,25211,232,21,110,8,1.0
undo,23,29,1,0,0,0,[0],1,29,"[1, 2, 3, 4, 5, 6, 7, 8, 9, 10, 11, 12, 13, 14, 15, 16, 17, 18, 19, 20, 21, 22, 23, 24, 25, 26, 27, 28, 29]",300,25412,201,1,78,9,0.0
undo,23,29,0,0,0,28,"[0, 28]",2,28,"[1, 2, 3, 4, 5, 6, 7, 8, 9, 10, 11, 12, 13, 14, 15, 16, 17, 18, 19, 20, 21, 22, 23, 24, 25, 26, 27, 29]",202.9175608,28197,2785,7,62,8,1.0
undo,23,29,0,0,0,27,"[0, 28, 27]",3,23,"[1, 3, 4, 5, 6, 7, 9, 10, 11, 12, 13, 14, 15, 16, 17, 18, 21, 22, 23, 24, 25, 26, 29]",182.3992763,28752,555,7,51,8,1.0854577949107957
undo,23,29,0,0,0,22,"[0, 28, 27, 22]",4,18,"[1, 3, 4, 5, 6, 7, 9, 11, 12, 13, 14, 15, 16, 21, 23, 25, 26, 29]",149.157736,29315,563,7,34,8,1.289627010733819
undo,23,29,0,0,0,12,"[0, 28, 27, 22, 12]",5,10,"[4, 5, 7, 9, 13, 14, 21, 23, 26, 29]",111.2104041,29904,589,5,8,8,1.2228936795394132
undo,23,29,0,0,0,7,"[0, 28, 27, 22, 12, 7]",6,5,"[4, 5, 9, 13, 21]",97.60893357,30280,376,4,2,8,1.2307104129303603
undo,23,29,0,0,0,5,"[0, 28, 27, 22, 12, 7, 5]",7,1,[13],34.07941287,31669,1389,1,0,8,2.1400716457482183
undo,23,29,0,0,1,13,"[0, 28, 27, 22, 12, 7, 5, 13]",8,0,[],8.369492607,32283,614,1,0,8,2.694168403240905
undo,23,29,1,0,0,5,"[0, 28, 27, 22, 12, 7, 5]",7,1,[13],34.07941287,34588,2305,1,0,8,2.1400716457482183
undo,23,29,1,0,0,7,"[0, 28, 27, 22, 12, 7]",6,5,"[4, 5, 9, 13, 21]",97.60893357,35537,949,4,2,8,1.2307104129303603
undo,23,29,1,0,0,12,"[0, 28, 27, 22, 12]",5,10,"[4, 5, 7, 9, 13, 14, 21, 23, 26, 29]",111.2104041,35753,216,5,8,8,1.2228936795394132
undo,23,29,1,0,0,22,"[0, 28, 27, 22]",4,18,"[1, 3, 4, 5, 6, 7, 9, 11, 12, 13, 14, 15, 16, 21, 23, 25, 26, 29]",149.157736,35937,184,7,34,8,1.289627010733819
undo,23,29,1,0,0,27,"[0, 28, 27]",3,23,"[1, 3, 4, 5, 6, 7, 9, 10, 11, 12, 13, 14, 15, 16, 17, 18, 21, 22, 23, 24, 25, 26, 29]",182.3992763,36087,150,7,51,8,1.0854577949107957
undo,23,29,1,0,0,28,"[0, 28]",2,28,"[1, 2, 3, 4, 5, 6, 7, 8, 9, 10, 11, 12, 13, 14, 15, 16, 17, 18, 19, 20, 21, 22, 23, 24, 25, 26, 27, 29]",202.9175608,36236,149,7,62,8,1.0
undo,23,29,1,0,0,0,[0],1,29,"[1, 2, 3, 4, 5, 6, 7, 8, 9, 10, 11, 12, 13, 14, 15, 16, 17, 18, 19, 20, 21, 22, 23, 24, 25, 26, 27, 28, 29]",300,36586,350,1,78,9,0.0
undo,23,29,0,0,0,6,"[0, 6]",2,28,"[1, 2, 3, 4, 5, 7, 8, 9, 10, 11, 12, 13, 14, 15, 16, 17, 18, 19, 20, 21, 22, 23, 24, 25, 26, 27, 28, 29]",228.4108947,38708,2122,1,25,9,1.0
undo,23,29,0,0,0,28,"[0, 6, 28]",3,24,"[1, 3, 4, 5, 7, 9, 10, 11, 12, 13, 14, 15, 16, 17, 18, 20, 21, 22, 23, 24, 25, 26, 27, 29]",187.1798384,39324,616,1,22,9,1.162106788166845
undo,23,29,0,0,0,27,"[0, 6, 28, 27]",4,19,"[1, 3, 4, 5, 7, 9, 10, 11, 12, 13, 14, 15, 16, 21, 22, 23, 25, 26, 29]",166.6615539,39727,403,1,21,9,1.2307173895439045
undo,23,29,0,0,0,22,"[0, 6, 28, 27, 22]",5,13,"[1, 3, 4, 5, 7, 9, 12, 13, 14, 15, 21, 26, 29]",133.4200136,40288,561,1,19,9,1.4241767805149903
undo,23,29,0,0,0,12,"[0, 6, 28, 27, 22, 12]",6,8,"[4, 5, 7, 9, 13, 14, 21, 26]",95.4726817,40858,570,1,6,9,1.3248355326460857
undo,23,29,0,0,0,7,"[0, 6, 28, 27, 22, 12, 7]",7,4,"[4, 5, 9, 21]",81.87121119,41168,310,1,3,9,1.3264091962339806
undo,23,29,0,0,0,9,"[0, 6, 28, 27, 22, 12, 7, 9]",8,1,[4],52.80232748,41659,491,1,0,9,1.309391257644539
undo,23,29,0,0,1,4,"[0, 6, 28, 27, 22, 12, 7, 9, 4]",9,0,[],11.76575843,42262,603,1,0,9,1.6396807789841599
undo,23,29,0,1,1,4,"[0, 6, 28, 27, 22, 12, 7, 9, 4]",9,0,[],11.76575843,43679,1417,1,0,9,1.6396807789841599
undo,24,40,0,0,0,0,[0],1,29,"[1, 2, 3, 4, 5, 6, 7, 8, 9, 10, 11, 12, 13, 14, 15, 16, 17, 18, 19, 20, 21, 22, 23, 24, 25, 26, 27, 28, 29]",300,162,-1,8,191,9,0.0
undo,24,40,0,0,0,1,"[0, 1]",2,18,"[2, 5, 6, 7, 8, 9, 10, 11, 13, 15, 17, 18, 19, 21, 22, 23, 27, 29]",247.8463808,9137,8975,4,80,9,1.0
undo,24,40,0,0,0,6,"[0, 1, 6]",3,17,"[2, 5, 7, 8, 9, 10, 11, 13, 15, 17, 18, 19, 21, 22, 23, 27, 29]",227.7466295,9533,396,4,74,9,1.0459427008232034
undo,24,40,0,0,0,21,"[0, 1, 6, 21]",4,8,"[2, 5, 9, 17, 18, 19, 22, 23]",175.7754837,10695,1162,4,25,9,1.0308822257404064
undo,24,40,0,0,0,9,"[0, 1, 6, 21, 9]",5,6,"[2, 5, 18, 19, 22, 23]",130.0699041,11313,618,4,12,9,1.377861912961129
undo,24,40,0,0,0,18,"[0, 1, 6, 21, 9, 18]",6,5,"[2, 5, 19, 22, 23]",113.5169588,12472,1159,4,4,9,1.5742712168661408
undo,24,40,0,0,0,5,"[0, 1, 6, 21, 9, 18, 5]",7,3,"[19, 22, 23]",81.94165198,13314,842,2,1,9,1.7730665063055515
undo,24,40,0,0,0,23,"[0, 1, 6, 21, 9, 18, 5, 23]",8,1,[19],53.63970859,13770,456,1,0,9,2.597442759912231
undo,24,40,0,0,1,19,"[0, 1, 6, 21, 9, 18, 5, 23, 19]",9,0,[],21.68661797,14388,618,1,0,9,2.7128328554069565
undo,24,40,0,1,1,19,"[0, 1, 6, 21, 9, 18, 5, 23, 19]",9,0,[],21.68661797,15482,1094,1,0,9,2.7128328554069565
undo,25,5,0,0,0,0,[0],1,29,"[1, 2, 3, 4, 5, 6, 7, 8, 9, 10, 11, 12, 13, 14, 15, 16, 17, 18, 19, 20, 21, 22, 23, 24, 25, 26, 27, 28, 29]",300,131,-1,5,139,9,0.0
undo,25,5,0,0,0,12,"[0, 12]",2,22,"[2, 4, 5, 6, 8, 9, 10, 13, 14, 15, 16, 17, 18, 19, 21, 22, 23, 24, 25, 26, 27, 28]",228.3062067,5018,4887,1,27,9,1.0
undo,25,5,0,0,0,25,"[0, 12, 25]",3,21,"[2, 4, 5, 6, 8, 9, 10, 13, 14, 15, 16, 17, 18, 19, 21, 22, 23, 24, 26, 27, 28]",200.5213187,5535,517,1,20,9,1.584023303445617
undo,25,5,0,0,0,23,"[0, 12, 25, 23]",4,19,"[2, 4, 5, 6, 8, 9, 10, 13, 14, 15, 16, 17, 18, 19, 21, 22, 24, 26, 27]",182.0822298,6014,479,1,14,9,2.3508446989254357
undo,25,5,0,0,0,24,"[0, 12, 25, 23, 24]",5,15,"[2, 4, 5, 6, 8, 9, 13, 14, 15, 17, 18, 19, 22, 26, 27]",158.995437,6545,531,1,12,9,1.9469752046288753
undo,25,5,0,0,0,17,"[0, 12, 25, 23, 24, 17]",6,7,"[4, 5, 6, 8, 15, 18, 19]",124.0097257,7146,601,1,8,9,1.6482276497563642
undo,25,5,0,0,0,5,"[0, 12, 25, 23, 24, 17, 5]",7,4,"[4, 6, 15, 18]",80.96323916,8614,1468,1,3,9,1.4654649104389412
undo,25,5,0,0,0,4,"[0, 12, 25, 23, 24, 17, 5, 4]",8,1,[6],15.16050365,9563,949,1,0,9,1.6255060355828674
undo,25,5,0,0,1,6,"[0, 12, 25, 23, 24, 17, 5, 4, 6]",9,0,[],3.118909076,10696,1133,1,0,9,1.7777310833772453
undo,25,5,0,1,1,6,"[0, 12, 25, 23, 24, 17, 5, 4, 6]",9,0,[],3.118909076,12604,1908,1,0,9,1.7777310833772453
undo,26,19,0,0,0,0,[0],1,29,"[1, 2, 3, 4, 5, 6, 7, 8, 9, 10, 11, 12, 13, 14, 15, 16, 17, 18, 19, 20, 21, 22, 23, 24, 25, 26, 27, 28, 29]",300,181,-1,12,149,8,0.0
undo,26,19,0,0,0,12,"[0, 12]",2,15,"[1, 2, 3, 5, 8, 9, 13, 16, 17, 18, 19, 21, 23, 25, 29]",180.3964883,26242,26061,9,58,7,1.0
undo,26,19,0,0,0,17,"[0, 12, 17]",3,11,"[1, 2, 3, 8, 13, 16, 18, 19, 23, 25, 29]",160.2718765,26741,499,6,25,7,1.0081383695928103
undo,26,19,0,0,0,25,"[0, 12, 17, 25]",4,10,"[1, 2, 3, 8, 13, 16, 18, 19, 23, 29]",149.2265155,27215,474,6,16,7,1.1056437189959143
undo,26,19,0,0,0,23,"[0, 12, 17, 25, 23]",5,6,"[1, 2, 3, 8, 18, 19]",79.58457415,32810,5595,3,4,7,1.2258550858033517
undo,26,19,0,0,0,3,"[0, 12, 17, 25, 23, 3]",6,2,"[8, 18]",57.65286195,33191,381,2,0,7,1.2025561392684052
undo,26,19,0,0,1,8,"[0, 12, 17, 25, 23, 3, 8]",7,0,[],34.32905437,33575,384,1,0,7,1.2191744156192352
undo,26,19,1,0,0,3,"[0, 12, 17, 25, 23, 3]",6,2,"[8, 18]",57.65286195,35169,1594,2,0,7,1.2025561392684052
undo,26,19,1,0,0,23,"[0, 12, 17, 25, 23]",5,6,"[1, 2, 3, 8, 18, 19]",79.58457415,35319,150,3,4,7,1.2258550858033517
undo,26,19,1,0,0,25,"[0, 12, 17, 25]",4,10,"[1, 2, 3, 8, 13, 16, 18, 19, 23, 29]",149.2265155,35452,133,6,16,7,1.1056437189959143
undo,26,19,1,0,0,17,"[0, 12, 17]",3,11,"[1, 2, 3, 8, 13, 16, 18, 19, 23, 25, 29]",160.2718765,35568,116,6,25,7,1.0081383695928103
undo,26,19,1,0,0,12,"[0, 12]",2,15,"[1, 2, 3, 5, 8, 9, 13, 16, 17, 18, 19, 21, 23, 25, 29]",180.3964883,35701,133,9,58,7,1.0
undo,26,19,1,0,0,0,[0],1,29,"[1, 2, 3, 4, 5, 6, 7, 8, 9, 10, 11, 12, 13, 14, 15, 16, 17, 18, 19, 20, 21, 22, 23, 24, 25, 26, 27, 28, 29]",300,35868,167,12,149,8,0.0
undo,26,19,0,0,0,29,"[0, 29]",2,28,"[1, 2, 3, 4, 5, 6, 7, 8, 9, 10, 11, 12, 13, 14, 15, 16, 17, 18, 19, 20, 21, 22, 23, 24, 25, 26, 27, 28]",265.0715016,36997,1129,12,120,8,1.0
undo,26,19,0,0,0,9,"[0, 29, 9]",3,17,"[1, 4, 5, 6, 7, 10, 11, 12, 13, 14, 19, 20, 21, 22, 24, 27, 28]",181.7108394,37652,655,11,65,8,1.0375842971861238
undo,26,19,0,0,0,6,"[0, 29, 9, 6]",4,12,"[4, 7, 10, 11, 13, 14, 20, 21, 22, 24, 27, 28]",140.2741407,38199,547,11,34,8,1.0389786364356892
undo,26,19,0,0,0,28,"[0, 29, 9, 6, 28]",5,5,"[4, 11, 14, 22, 27]",89.18598161,39889,1690,2,4,8,1.2864082671854424
undo,26,19,0,0,0,4,"[0, 29, 9, 6, 28, 4]",6,4,"[11, 14, 22, 27]",78.00564173,40334,445,2,2,8,1.3470045407445053
undo,26,19,0,0,0,14,"[0, 29, 9, 6, 28, 4, 14]",7,1,[11],27.99564273,41374,1040,1,0,8,1.3006971582050546
undo,26,19,0,0,1,11,"[0, 29, 9, 6, 28, 4, 14, 11]",8,0,[],17.1789889,41950,576,1,0,8,1.289914895833058
undo,26,19,1,0,0,14,"[0, 29, 9, 6, 28, 4, 14]",7,1,[11],27.99564273,44461,2511,1,0,8,1.3006971582050546
undo,26,19,1,0,0,4,"[0, 29, 9, 6, 28, 4]",6,4,"[11, 14, 22, 27]",78.00564173,44611,150,2,2,8,1.3470045407445053
undo,26,19,1,0,0,28,"[0, 29, 9, 6, 28]",5,5,"[4, 11, 14, 22, 27]",89.18598161,44744,133,2,4,8,1.2864082671854424
undo,26,19,1,0,0,6,"[0, 29, 9, 6]",4,12,"[4, 7, 10, 11, 13, 14, 20, 21, 22, 24, 27, 28]",140.2741407,44878,134,11,34,8,1.0389786364356892
undo,26,19,1,0,0,9,"[0, 29, 9]",3,17,"[1, 4, 5, 6, 7, 10, 11, 12, 13, 14, 19, 20, 21, 22, 24, 27, 28]",181.7108394,45027,149,11,65,8,1.0375842971861238
undo,26,19,1,0,0,29,"[0, 29]",2,28,"[1, 2, 3, 4, 5, 6, 7, 8, 9, 10, 11, 12, 13, 14, 15, 16, 17, 18, 19, 20, 21, 22, 23, 24, 25, 26, 27, 28]",265.0715016,45160,133,12,120,8,1.0
undo,26,19,1,0,0,0,[0],1,29,"[1, 2, 3, 4, 5, 6, 7, 8, 9, 10, 11, 12, 13, 14, 15, 16, 17, 18, 19, 20, 21, 22, 23, 24, 25, 26, 27, 28, 29]",300,45344,184,12,149,8,0.0
undo,26,19,0,0,0,29,"[0, 29]",2,28,"[1, 2, 3, 4, 5, 6, 7, 8, 9, 10, 11, 12, 13, 14, 15, 16, 17, 18, 19, 20, 21, 22, 23, 24, 25, 26, 27, 28]",265.0715016,46467,1123,12,120,8,1.0
undo,26,19,0,0,0,9,"[0, 29, 9]",3,17,"[1, 4, 5, 6, 7, 10, 11, 12, 13, 14, 19, 20, 21, 22, 24, 27, 28]",181.7108394,48201,1734,11,65,8,1.0375842971861238
undo,26,19,0,0,0,6,"[0, 29, 9, 6]",4,12,"[4, 7, 10, 11, 13, 14, 20, 21, 22, 24, 27, 28]",140.2741407,49301,1100,11,34,8,1.0389786364356892
undo,26,19,0,0,0,22,"[0, 29, 9, 6, 22]",5,7,"[4, 7, 10, 11, 14, 20, 24]",79.27414071,52421,3120,2,4,8,1.0360889604738772
undo,26,19,0,0,0,20,"[0, 29, 9, 6, 22, 20]",6,4,"[10, 11, 14, 24]",66.12119427,52742,321,2,2,8,1.0344974630090689
undo,26,19,0,0,1,24,"[0, 29, 9, 6, 22, 20, 24]",7,0,[],27.2882186,53394,652,1,0,7,1.0508519843483526
undo,26,19,1,0,0,20,"[0, 29, 9, 6, 22, 20]",6,4,"[10, 11, 14, 24]",66.12119427,54220,826,2,2,8,1.0344974630090689
undo,26,19,1,0,0,22,"[0, 29, 9, 6, 22]",5,7,"[4, 7, 10, 11, 14, 20, 24]",79.27414071,54386,166,2,4,8,1.0360889604738772
undo,26,19,1,0,0,6,"[0, 29, 9, 6]",4,12,"[4, 7, 10, 11, 13, 14, 20, 21, 22, 24, 27, 28]",140.2741407,54552,166,11,34,8,1.0389786364356892
undo,26,19,0,0,0,28,"[0, 29, 9, 6, 28]",5,5,"[4, 11, 14, 22, 27]",89.18598161,55967,1415,2,4,8,1.2864082671854424
undo,26,19,0,0,0,4,"[0, 29, 9, 6, 28, 4]",6,4,"[11, 14, 22, 27]",78.00564173,56494,527,2,2,8,1.3470045407445053
undo,26,19,0,0,0,14,"[0, 29, 9, 6, 28, 4, 14]",7,1,[11],27.99564273,57169,675,1,0,8,1.3006971582050546
undo,26,19,0,0,1,11,"[0, 29, 9, 6, 28, 4, 14, 11]",8,0,[],17.1789889,57465,296,1,0,8,1.289914895833058
undo,26,19,0,1,1,11,"[0, 29, 9, 6, 28, 4, 14, 11]",8,0,[],17.1789889,58299,834,1,0,8,1.289914895833058
undo,27,0,0,0,0,0,[0],1,27,"[2, 3, 4, 5, 6, 7, 8, 9, 10, 11, 12, 13, 14, 15, 16, 17, 19, 20, 21, 22, 23, 24, 25, 26, 27, 28, 29]",300,161,-1,104,1136,9,0.0
undo,27,0,0,0,0,20,"[0, 20]",2,25,"[2, 3, 4, 5, 6, 7, 8, 9, 11, 12, 13, 14, 15, 16, 17, 19, 21, 22, 23, 24, 25, 26, 27, 28, 29]",215.4955622,3284,3123,36,372,9,1.0
undo,27,0,0,0,0,5,"[0, 20, 5]",3,22,"[2, 3, 4, 7, 8, 9, 11, 12, 13, 14, 15, 16, 17, 19, 21, 22, 23, 24, 25, 26, 28, 29]",153.2942761,3950,666,33,251,9,1.0828244018179105
undo,27,0,0,0,0,4,"[0, 20, 5, 4]",4,19,"[2, 3, 7, 8, 9, 11, 12, 13, 14, 15, 17, 19, 21, 22, 23, 24, 25, 26, 28]",128.2144037,6794,2844,21,127,9,1.0973859443611045
undo,27,0,0,0,0,26,"[0, 20, 5, 4, 26]",5,14,"[3, 7, 8, 9, 11, 12, 13, 14, 15, 17, 19, 23, 24, 28]",116.1728091,7376,582,9,63,9,1.1378617460104323
undo,27,0,0,0,0,24,"[0, 20, 5, 4, 26, 24]",6,11,"[3, 7, 8, 9, 11, 12, 15, 17, 19, 23, 28]",99.05556633,7876,500,9,24,9,1.204469953325506
undo,27,0,0,0,0,15,"[0, 20, 5, 4, 26, 24, 15]",7,8,"[3, 7, 8, 9, 11, 12, 17, 19]",75.71033127,8557,681,5,6,9,1.1865351459643638
undo,27,0,0,0,0,7,"[0, 20, 5, 4, 26, 24, 15, 7]",8,2,"[3, 8]",44.64588214,10600,2043,2,0,9,1.2455705670301183
undo,27,0,0,0,1,8,"[0, 20, 5, 4, 26, 24, 15, 7, 8]",9,0,[],25.54090896,11041,441,1,0,9,1.2337265013393985
undo,27,0,1,0,0,7,"[0, 20, 5, 4, 26, 24, 15, 7]",8,2,"[3, 8]",44.64588214,13168,2127,2,0,9,1.2455705670301183
undo,27,0,1,0,0,15,"[0, 20, 5, 4, 26, 24, 15]",7,8,"[3, 7, 8, 9, 11, 12, 17, 19]",75.71033127,13318,150,5,6,9,1.1865351459643638
undo,27,0,1,0,0,24,"[0, 20, 5, 4, 26, 24]",6,11,"[3, 7, 8, 9, 11, 12, 15, 17, 19, 23, 28]",99.05556633,13501,183,9,24,9,1.204469953325506
undo,27,0,1,0,0,26,"[0, 20, 5, 4, 26]",5,14,"[3, 7, 8, 9, 11, 12, 13, 14, 15, 17, 19, 23, 24, 28]",116.1728091,13834,333,9,63,9,1.1378617460104323
undo,27,0,1,0,0,4,"[0, 20, 5, 4]",4,19,"[2, 3, 7, 8, 9, 11, 12, 13, 14, 15, 17, 19, 21, 22, 23, 24, 25, 26, 28]",128.2144037,14017,183,21,127,9,1.0973859443611045
undo,27,0,1,0,0,5,"[0, 20, 5]",3,22,"[2, 3, 4, 7, 8, 9, 11, 12, 13, 14, 15, 16, 17, 19, 21, 22, 23, 24, 25, 26, 28, 29]",153.2942761,14200,183,33,251,9,1.0828244018179105
undo,27,0,1,0,0,20,"[0, 20]",2,25,"[2, 3, 4, 5, 6, 7, 8, 9, 11, 12, 13, 14, 15, 16, 17, 19, 21, 22, 23, 24, 25, 26, 27, 28, 29]",215.4955622,14717,517,36,372,9,1.0
undo,27,0,1,0,0,0,[0],1,27,"[2, 3, 4, 5, 6, 7, 8, 9, 10, 11, 12, 13, 14, 15, 16, 17, 19, 20, 21, 22, 23, 24, 25, 26, 27, 28, 29]",300,15049,332,104,1136,9,0.0
undo,27,0,0,0,0,28,"[0, 28]",2,26,"[2, 3, 4, 5, 6, 7, 8, 9, 10, 11, 12, 13, 14, 15, 16, 17, 19, 20, 21, 22, 23, 24, 25, 26, 27, 29]",194.9190788,15795,746,39,388,9,1.0
undo,27,0,0,0,0,5,"[0, 28, 5]",3,21,"[2, 3, 4, 7, 8, 9, 11, 12, 13, 14, 15, 16, 17, 19, 20, 21, 23, 24, 25, 26, 29]",151.2613189,16454,659,27,210,9,1.0978295127671733
undo,27,0,0,0,0,4,"[0, 28, 5, 4]",4,16,"[3, 7, 8, 9, 11, 12, 13, 14, 15, 17, 19, 20, 21, 23, 24, 26]",126.1814465,16991,537,17,114,9,1.1103727063761901
undo,27,0,0,0,0,26,"[0, 28, 5, 4, 26]",5,14,"[3, 7, 8, 9, 11, 12, 13, 14, 15, 17, 19, 20, 23, 24]",114.1398519,17751,760,7,54,9,1.1504454351688815
undo,27,0,0,0,0,24,"[0, 28, 5, 4, 26, 24]",6,11,"[3, 7, 8, 9, 11, 12, 15, 17, 19, 20, 23]",97.02260914,18541,790,7,22,9,1.2166555899566422
undo,27,0,0,0,0,15,"[0, 28, 5, 4, 26, 24, 15]",7,7,"[3, 7, 8, 9, 11, 12, 17]",73.67737408,19158,617,4,5,9,1.1972898774231708
undo,27,0,0,0,0,7,"[0, 28, 5, 4, 26, 24, 15, 7]",8,2,"[3, 8]",42.61292495,19752,594,2,0,9,1.2554869594545575
undo,27,0,0,0,1,3,"[0, 28, 5, 4, 26, 24, 15, 7, 3]",9,0,[],18.52973579,21294,1542,1,0,9,1.2985327435367093
undo,27,0,0,1,1,3,"[0, 28, 5, 4, 26, 24, 15, 7, 3]",9,0,[],18.52973579,22560,1266,1,0,9,1.2985327435367093
undo,28,43,0,0,0,0,[0],1,23,"[1, 2, 3, 4, 5, 6, 7, 9, 10, 11, 12, 14, 15, 16, 17, 19, 20, 21, 22, 23, 25, 27, 29]",300,164,-1,16,556,12,0.0
undo,28,43,0,0,0,29,"[0, 29]",2,22,"[1, 2, 3, 4, 5, 6, 7, 9, 10, 11, 12, 14, 15, 16, 17, 19, 20, 21, 22, 23, 25, 27]",277.909278,2675,2511,16,520,12,1.0
undo,28,43,0,0,0,20,"[0, 29, 20]",3,20,"[1, 2, 3, 4, 6, 7, 9, 10, 11, 12, 14, 15, 16, 17, 19, 21, 22, 23, 25, 27]",254.4785289,3319,644,15,422,12,1.082311746871282
undo,28,43,0,0,0,16,"[0, 29, 20, 16]",4,19,"[1, 2, 3, 4, 6, 7, 9, 10, 11, 12, 14, 15, 17, 19, 21, 22, 23, 25, 27]",231.8511119,3951,632,15,389,12,1.215201926898219
undo,28,43,0,0,0,11,"[0, 29, 20, 16, 11]",5,17,"[1, 2, 3, 4, 6, 7, 9, 10, 12, 14, 15, 17, 19, 21, 22, 23, 25]",196.7227758,4515,564,12,188,12,1.1349145516483516
undo,28,43,0,0,0,6,"[0, 29, 20, 16, 11, 6]",6,15,"[1, 2, 3, 4, 7, 10, 12, 14, 15, 17, 19, 21, 22, 23, 25]",176.1072477,5000,485,10,100,12,1.123330873754209
undo,28,43,0,0,0,1,"[0, 29, 20, 16, 11, 6, 1]",7,10,"[2, 3, 4, 7, 12, 14, 15, 19, 22, 25]",127.8371741,8728,3728,7,36,12,1.1959789832191803
undo,28,43,0,0,0,19,"[0, 29, 20, 16, 11, 6, 1, 19]",8,8,"[3, 4, 7, 12, 14, 15, 22, 25]",99.65916852,9234,506,4,16,12,1.442084860173939
undo,28,43,0,0,0,22,"[0, 29, 20, 16, 11, 6, 1, 19, 22]",9,6,"[3, 7, 12, 14, 15, 25]",79.04364039,9699,465,3,7,12,1.852594491960324
undo,28,43,0,0,0,3,"[0, 29, 20, 16, 11, 6, 1, 19, 22, 3]",10,3,"[12, 15, 25]",44.33053048,10198,499,2,2,12,2.295054375959106
undo,28,43,0,0,0,12,"[0, 29, 20, 16, 11, 6, 1, 19, 22, 3, 12]",11,2,"[15, 25]",31.33053048,10496,298,2,0,12,2.717717859995072
undo,28,43,0,0,1,15,"[0, 29, 20, 16, 11, 6, 1, 19, 22, 3, 12, 15]",12,0,[],12.01732256,11161,665,1,0,12,3.483095146576392
undo,28,43,0,1,1,15,"[0, 29, 20, 16, 11, 6, 1, 19, 22, 3, 12, 15]",12,0,[],12.01732256,12420,1259,1,0,12,3.483095146576392
undo,29,44,0,0,0,0,[0],1,29,"[1, 2, 3, 4, 5, 6, 7, 8, 9, 10, 11, 12, 13, 14, 15, 16, 17, 18, 19, 20, 21, 22, 23, 24, 25, 26, 27, 28, 29]",300,164,-1,13,126,7,0.0
undo,29,44,0,0,0,11,"[0, 11]",2,18,"[4, 5, 6, 7, 8, 9, 12, 14, 16, 17, 19, 20, 22, 23, 24, 25, 26, 28]",152.7790776,9114,8950,5,34,7,1.0
undo,29,44,0,0,0,24,"[0, 11, 24]",3,13,"[4, 5, 7, 8, 9, 12, 14, 17, 20, 22, 23, 25, 28]",125.8532535,9640,526,5,23,7,1.1588941745226709
undo,29,44,0,0,0,9,"[0, 11, 24, 9]",4,7,"[4, 7, 8, 12, 14, 20, 23]",93.09657483,10179,539,2,8,7,1.3039383713641313
undo,29,44,0,0,0,4,"[0, 11, 24, 9, 4]",5,5,"[7, 12, 14, 20, 23]",73.39885923,10534,355,2,3,7,1.2901330701441578
undo,29,44,0,0,0,7,"[0, 11, 24, 9, 4, 7]",6,1,[23],42.38273439,11628,1094,1,0,7,1.2468141312360979
undo,29,44,0,0,1,23,"[0, 11, 24, 9, 4, 7, 23]",7,0,[],23.27776121,11919,291,1,0,7,1.2635191782769477
undo,29,44,1,0,0,7,"[0, 11, 24, 9, 4, 7]",6,1,[23],42.38273439,13587,1668,1,0,7,1.2468141312360979
undo,29,44,1,0,0,4,"[0, 11, 24, 9, 4]",5,5,"[7, 12, 14, 20, 23]",73.39885923,13736,149,2,3,7,1.2901330701441578
undo,29,44,1,0,0,9,"[0, 11, 24, 9]",4,7,"[4, 7, 8, 12, 14, 20, 23]",93.09657483,13887,151,2,8,7,1.3039383713641313
undo,29,44,1,0,0,24,"[0, 11, 24]",3,13,"[4, 5, 7, 8, 9, 12, 14, 17, 20, 22, 23, 25, 28]",125.8532535,14020,133,5,23,7,1.1588941745226709
undo,29,44,1,0,0,11,"[0, 11]",2,18,"[4, 5, 6, 7, 8, 9, 12, 14, 16, 17, 19, 20, 22, 23, 24, 25, 26, 28]",152.7790776,14253,233,5,34,7,1.0
undo,29,44,1,0,0,0,[0],1,29,"[1, 2, 3, 4, 5, 6, 7, 8, 9, 10, 11, 12, 13, 14, 15, 16, 17, 18, 19, 20, 21, 22, 23, 24, 25, 26, 27, 28, 29]",300,15935,1682,13,126,7,0.0
undo,29,44,0,0,0,8,"[0, 8]",2,17,"[1, 4, 5, 7, 9, 10, 11, 12, 13, 14, 15, 20, 21, 23, 24, 25, 27]",145.7923478,17554,1619,1,10,7,1.0
undo,29,44,0,0,0,20,"[0, 8, 20]",3,16,"[1, 4, 5, 7, 9, 10, 11, 12, 13, 14, 15, 21, 23, 24, 25, 27]",133.7093018,17894,340,1,9,7,1.0890794433668698
undo,29,44,0,0,0,9,"[0, 8, 20, 9]",4,7,"[4, 7, 11, 12, 14, 23, 24]",76.43801756,18945,1051,1,6,7,1.40892325509949
undo,29,44,0,0,0,4,"[0, 8, 20, 9, 4]",5,4,"[7, 12, 23, 24]",56.74030196,19301,356,1,3,7,1.3849770570803555
undo,29,44,0,0,0,7,"[0, 8, 20, 9, 4, 7]",6,1,[23],25.72417712,19997,696,1,0,7,1.3274380931474288
undo,29,44,0,0,1,23,"[0, 8, 20, 9, 4, 7, 23]",7,0,[],6.619203947,20636,639,1,0,7,1.3395824779823196
undo,29,44,1,0,0,7,"[0, 8, 20, 9, 4, 7]",6,1,[23],25.72417712,21247,611,1,0,7,1.3274380931474288
undo,29,44,1,0,0,4,"[0, 8, 20, 9, 4]",5,4,"[7, 12, 23, 24]",56.74030196,21396,149,1,3,7,1.3849770570803555
undo,29,44,1,0,0,9,"[0, 8, 20, 9]",4,7,"[4, 7, 11, 12, 14, 23, 24]",76.43801756,21547,151,1,6,7,1.40892325509949
undo,29,44,1,0,0,20,"[0, 8, 20]",3,16,"[1, 4, 5, 7, 9, 10, 11, 12, 13, 14, 15, 21, 23, 24, 25, 27]",133.7093018,21680,133,1,9,7,1.0890794433668698
undo,29,44,1,0,0,8,"[0, 8]",2,17,"[1, 4, 5, 7, 9, 10, 11, 12, 13, 14, 15, 20, 21, 23, 24, 25, 27]",145.7923478,21863,183,1,10,7,1.0
undo,29,44,1,0,0,0,[0],1,29,"[1, 2, 3, 4, 5, 6, 7, 8, 9, 10, 11, 12, 13, 14, 15, 16, 17, 18, 19, 20, 21, 22, 23, 24, 25, 26, 27, 28, 29]",300,22612,749,13,126,7,0.0
undo,29,44,0,0,0,9,"[0, 9]",2,17,"[2, 4, 5, 7, 8, 10, 11, 12, 13, 14, 20, 22, 23, 24, 25, 26, 28]",141.32423,23568,956,3,26,7,1.0
undo,29,44,0,0,0,4,"[0, 9, 4]",3,15,"[2, 5, 7, 8, 10, 11, 12, 14, 20, 22, 23, 24, 25, 26, 28]",121.6265143,24072,504,3,21,7,1.0155532843148096
undo,29,44,0,0,0,7,"[0, 9, 4, 7]",4,10,"[2, 5, 11, 12, 14, 23, 24, 25, 26, 28]",90.61038951,25237,1165,3,9,7,1.0134022837125412
undo,29,44,0,0,0,23,"[0, 9, 4, 7, 23]",5,7,"[5, 12, 14, 24, 25, 26, 28]",71.50541634,25683,446,3,4,7,1.043310757564056
undo,29,44,0,0,0,28,"[0, 9, 4, 7, 23, 28]",6,1,[26],19.5342705,26501,818,1,0,7,1.0580072524850708
undo,29,44,0,0,1,26,"[0, 9, 4, 7, 23, 28, 26]",7,0,[],6.534270496,26884,383,1,0,7,1.055488728885845
undo,29,44,1,0,0,28,"[0, 9, 4, 7, 23, 28]",6,1,[26],19.5342705,27775,891,1,0,7,1.0580072524850708
undo,29,44,1,0,0,23,"[0, 9, 4, 7, 23]",5,7,"[5, 12, 14, 24, 25, 26, 28]",71.50541634,27942,167,3,4,7,1.043310757564056
undo,29,44,1,0,0,7,"[0, 9, 4, 7]",4,10,"[2, 5, 11, 12, 14, 23, 24, 25, 26, 28]",90.61038951,28124,182,3,9,7,1.0134022837125412
undo,29,44,1,0,0,4,"[0, 9, 4]",3,15,"[2, 5, 7, 8, 10, 11, 12, 14, 20, 22, 23, 24, 25, 26, 28]",121.6265143,29457,1333,3,21,7,1.0155532843148096
undo,29,44,0,0,0,24,"[0, 9, 4, 24]",4,5,"[7, 11, 14, 20, 23]",86.97106745,30050,593,3,2,6,1.4176434179720834
undo,29,44,0,0,0,11,"[0, 9, 4, 24, 11]",5,1,[14],60.04524341,30514,464,1,0,6,1.6298957555465912
undo,29,44,0,0,1,14,"[0, 9, 4, 24, 11, 14]",6,0,[],27.84275904,30903,389,1,0,6,1.5217619331476957
undo,29,44,1,0,0,11,"[0, 9, 4, 24, 11]",5,1,[14],60.04524341,31505,602,1,0,6,1.6298957555465912
undo,29,44,1,0,0,24,"[0, 9, 4, 24]",4,5,"[7, 11, 14, 20, 23]",86.97106745,31671,166,3,2,6,1.4176434179720834
undo,29,44,1,0,0,4,"[0, 9, 4]",3,15,"[2, 5, 7, 8, 10, 11, 12, 14, 20, 22, 23, 24, 25, 26, 28]",121.6265143,31838,167,3,21,7,1.0155532843148096
undo,29,44,0,0,0,7,"[0, 9, 4, 7]",4,10,"[2, 5, 11, 12, 14, 23, 24, 25, 26, 28]",90.61038951,32933,1095,3,9,7,1.0134022837125412
undo,29,44,0,0,0,23,"[0, 9, 4, 7, 23]",5,7,"[5, 12, 14, 24, 25, 26, 28]",71.50541634,33492,559,3,4,7,1.043310757564056
undo,29,44,0,0,0,5,"[0, 9, 4, 7, 23, 5]",6,1,[25],24.08179353,34173,681,1,0,7,1.0875233835918032
undo,29,44,0,0,1,25,"[0, 9, 4, 7, 23, 5, 25]",7,0,[],13.64148702,34650,477,1,0,7,1.1344779809947538
undo,29,44,0,1,1,25,"[0, 9, 4, 7, 23, 5, 25]",7,0,[],13.64148702,36684,2034,1,0,7,1.1344779809947538
undo,30,20,0,0,0,0,[0],1,21,"[1, 2, 3, 4, 5, 6, 7, 8, 9, 12, 17, 18, 20, 21, 22, 23, 25, 26, 27, 28, 29]",300,178,-1,1,9,9,0.0
undo,30,20,0,0,0,12,"[0, 12]",2,20,"[1, 2, 3, 4, 5, 6, 7, 8, 9, 17, 18, 20, 21, 22, 23, 25, 26, 27, 28, 29]",271.5570747,2518,2340,1,8,9,1.0
undo,30,20,0,0,0,5,"[0, 12, 5]",3,13,"[1, 3, 4, 6, 8, 9, 20, 21, 23, 26, 27, 28, 29]",171.4321527,7996,5478,2,19,8,1.0232843285905395
undo,30,20,0,0,0,21,"[0, 12, 5, 21]",4,10,"[1, 4, 6, 8, 9, 20, 23, 26, 27, 28]",126.4321527,8515,519,2,12,8,1.017525191374897
undo,30,20,0,0,0,8,"[0, 12, 5, 21, 8]",5,6,"[1, 6, 9, 23, 27, 28]",108.9679035,8860,345,2,6,8,1.0391698601004782
undo,30,20,0,0,0,23,"[0, 12, 5, 21, 8, 23]",6,3,"[6, 9, 27]",64.28009758,9490,630,2,1,8,1.0348450868606567
undo,30,20,0,0,0,9,"[0, 12, 5, 21, 8, 23, 9]",7,1,[6],45.07072487,9857,367,1,0,8,1.0335348098288684
undo,30,20,0,0,1,6,"[0, 12, 5, 21, 8, 23, 9, 6]",8,0,[],22.048996,10230,373,1,0,8,1.0486850646228845
undo,30,20,0,1,1,6,"[0, 12, 5, 21, 8, 23, 9, 6]",8,0,[],22.048996,11318,1088,1,0,8,1.0486850646228845
undo,31,12,0,0,0,0,[0],1,29,"[1, 2, 3, 4, 5, 6, 7, 8, 9, 10, 11, 12, 13, 14, 15, 16, 17, 18, 19, 20, 21, 22, 23, 24, 25, 26, 27, 28, 29]",300,165,-1,2,32,9,0.0
undo,31,12,0,0,0,22,"[0, 22]",2,22,"[2, 4, 5, 6, 7, 9, 10, 12, 13, 14, 15, 16, 17, 18, 19, 21, 23, 24, 25, 27, 28, 29]",211.9943184,8001,7836,6,42,8,1.0
undo,31,12,0,0,0,16,"[0, 22, 16]",3,12,"[2, 4, 5, 6, 7, 12, 14, 19, 23, 24, 25, 27]",190.9943184,8388,387,6,24,8,1.2017164145167045
undo,31,12,0,0,0,4,"[0, 22, 16, 4]",4,9,"[2, 6, 7, 12, 14, 19, 24, 25, 27]",156.7890556,8909,521,6,14,8,1.146531713305579
undo,31,12,0,0,0,12,"[0, 22, 16, 4, 12]",5,4,"[14, 19, 24, 27]",114.5990094,9403,494,4,3,8,1.1221389456954312
undo,31,12,0,0,0,27,"[0, 22, 16, 4, 12, 27]",6,3,"[14, 19, 24]",90.24741807,9927,524,2,1,8,1.2262878338287035
undo,31,12,0,0,0,14,"[0, 22, 16, 4, 12, 27, 14]",7,1,[24],61.59432051,10331,404,1,0,8,1.2804562106751427
undo,31,12,0,0,1,24,"[0, 22, 16, 4, 12, 27, 14, 24]",8,0,[],44.38966997,11401,1070,1,0,8,1.4322660007679802
undo,31,12,1,0,0,14,"[0, 22, 16, 4, 12, 27, 14]",7,1,[24],61.59432051,12321,920,1,0,8,1.2804562106751427
undo,31,12,1,0,0,27,"[0, 22, 16, 4, 12, 27]",6,3,"[14, 19, 24]",90.24741807,12472,151,2,1,8,1.2262878338287035
undo,31,12,1,0,0,12,"[0, 22, 16, 4, 12]",5,4,"[14, 19, 24, 27]",114.5990094,12621,149,4,3,8,1.1221389456954312
undo,31,12,1,0,0,4,"[0, 22, 16, 4]",4,9,"[2, 6, 7, 12, 14, 19, 24, 25, 27]",156.7890556,12755,134,6,14,8,1.146531713305579
undo,31,12,1,0,0,16,"[0, 22, 16]",3,12,"[2, 4, 5, 6, 7, 12, 14, 19, 23, 24, 25, 27]",190.9943184,12888,133,6,24,8,1.2017164145167045
undo,31,12,1,0,0,22,"[0, 22]",2,22,"[2, 4, 5, 6, 7, 9, 10, 12, 13, 14, 15, 16, 17, 18, 19, 21, 23, 24, 25, 27, 28, 29]",211.9943184,13004,116,6,42,8,1.0
undo,31,12,1,0,0,0,[0],1,29,"[1, 2, 3, 4, 5, 6, 7, 8, 9, 10, 11, 12, 13, 14, 15, 16, 17, 18, 19, 20, 21, 22, 23, 24, 25, 26, 27, 28, 29]",300,15319,2315,2,32,9,0.0
undo,31,12,0,0,0,6,"[0, 6]",2,28,"[1, 2, 3, 4, 5, 7, 8, 9, 10, 11, 12, 13, 14, 15, 16, 17, 18, 19, 20, 21, 22, 23, 24, 25, 26, 27, 28, 29]",283.5987805,17607,2288,2,18,9,1.0
undo,31,12,0,0,0,9,"[0, 6, 9]",3,8,"[3, 5, 15, 17, 18, 21, 23, 28]",165.4082564,18297,690,2,6,7,1.0066610065144597
undo,31,12,0,0,0,21,"[0, 6, 9, 21]",4,5,"[3, 5, 15, 17, 18]",96.05409284,18927,630,1,3,7,1.2466820631095812
undo,31,12,0,0,0,18,"[0, 6, 9, 21, 18]",5,2,"[15, 17]",79.77527224,19211,284,1,1,7,1.4673498836706853
undo,31,12,0,0,0,15,"[0, 6, 9, 21, 18, 15]",6,1,[17],26.01655202,19818,607,1,0,7,1.4499726421034995
undo,31,12,0,0,1,17,"[0, 6, 9, 21, 18, 15, 17]",7,0,[],9.524129519,20052,234,1,0,7,1.4883678368647324
undo,31,12,1,0,0,15,"[0, 6, 9, 21, 18, 15]",6,1,[17],26.01655202,20865,813,1,0,7,1.4499726421034995
undo,31,12,1,0,0,18,"[0, 6, 9, 21, 18]",5,2,"[15, 17]",79.77527224,20998,133,1,1,7,1.4673498836706853
undo,31,12,1,0,0,21,"[0, 6, 9, 21]",4,5,"[3, 5, 15, 17, 18]",96.05409284,21147,149,1,3,7,1.2466820631095812
undo,31,12,1,0,0,9,"[0, 6, 9]",3,8,"[3, 5, 15, 17, 18, 21, 23, 28]",165.4082564,21281,134,2,6,7,1.0066610065144597
undo,31,12,1,0,0,6,"[0, 6]",2,28,"[1, 2, 3, 4, 5, 7, 8, 9, 10, 11, 12, 13, 14, 15, 16, 17, 18, 19, 20, 21, 22, 23, 24, 25, 26, 27, 28, 29]",283.5987805,21447,166,2,18,9,1.0
undo,31,12,1,0,0,0,[0],1,29,"[1, 2, 3, 4, 5, 6, 7, 8, 9, 10, 11, 12, 13, 14, 15, 16, 17, 18, 19, 20, 21, 22, 23, 24, 25, 26, 27, 28, 29]",300,22030,583,2,32,9,0.0
undo,31,12,0,0,0,22,"[0, 22]",2,22,"[2, 4, 5, 6, 7, 9, 10, 12, 13, 14, 15, 16, 17, 18, 19, 21, 23, 24, 25, 27, 28, 29]",211.9943184,23389,1359,6,42,8,1.0
undo,31,12,0,0,0,16,"[0, 22, 16]",3,12,"[2, 4, 5, 6, 7, 12, 14, 19, 23, 24, 25, 27]",190.9943184,24172,783,6,24,8,1.2017164145167045
undo,31,12,0,0,0,4,"[0, 22, 16, 4]",4,9,"[2, 6, 7, 12, 14, 19, 24, 25, 27]",156.7890556,24989,817,6,14,8,1.146531713305579
undo,31,12,0,0,0,12,"[0, 22, 16, 4, 12]",5,4,"[14, 19, 24, 27]",114.5990094,25620,631,4,3,8,1.1221389456954312
undo,31,12,0,0,0,14,"[0, 22, 16, 4, 12, 14]",6,2,"[24, 27]",61.79749426,26414,794,1,1,8,1.2793649820995894
undo,31,12,1,0,0,12,"[0, 22, 16, 4, 12]",5,4,"[14, 19, 24, 27]",114.5990094,27176,762,4,3,8,1.1221389456954312
undo,31,12,0,0,0,27,"[0, 22, 16, 4, 12, 27]",6,3,"[14, 19, 24]",90.24741807,27437,261,2,1,8,1.2262878338287035
undo,31,12,0,0,0,14,"[0, 22, 16, 4, 12, 27, 14]",7,1,[24],61.59432051,28329,892,1,0,8,1.2804562106751427
undo,31,12,0,0,1,24,"[0, 22, 16, 4, 12, 27, 14, 24]",8,0,[],44.38966997,28938,609,1,0,8,1.4322660007679802
undo,31,12,0,1,1,24,"[0, 22, 16, 4, 12, 27, 14, 24]",8,0,[],44.38966997,29474,536,1,0,8,1.4322660007679802
undo,32,39,0,0,0,0,[0],1,28,"[1, 2, 3, 4, 5, 6, 7, 9, 10, 11, 12, 13, 14, 15, 16, 17, 18, 19, 20, 21, 22, 23, 24, 25, 26, 27, 28, 29]",300,146,-1,1,30,10,0.0
undo,32,39,0,0,0,29,"[0, 29]",2,26,"[1, 2, 3, 4, 5, 6, 7, 9, 10, 12, 13, 14, 15, 16, 17, 18, 19, 20, 21, 22, 23, 24, 25, 26, 27, 28]",243.0614366,3050,2904,8,104,9,1.0
undo,32,39,0,0,0,12,"[0, 29, 12]",3,18,"[1, 2, 4, 5, 7, 9, 10, 13, 14, 15, 16, 18, 19, 22, 23, 24, 26, 28]",182.5221931,3691,641,5,54,9,1.0026200331524904
undo,32,39,0,0,0,10,"[0, 29, 12, 10]",4,16,"[1, 2, 4, 5, 7, 9, 13, 14, 15, 16, 18, 19, 22, 23, 24, 26]",147.0116313,4227,536,5,34,9,1.2874817019928908
undo,32,39,0,0,0,7,"[0, 29, 12, 10, 7]",5,10,"[1, 2, 5, 13, 16, 18, 19, 22, 24, 26]",113.5900814,4762,535,4,12,9,1.2250826263866774
undo,32,39,0,0,0,26,"[0, 29, 12, 10, 7, 26]",6,5,"[1, 16, 18, 19, 22]",94.90853971,5283,521,3,4,9,1.2697275353190085
undo,32,39,0,0,0,22,"[0, 29, 12, 10, 7, 26, 22]",7,2,"[16, 19]",77.18849457,5697,414,2,0,9,1.438961743955176
undo,32,39,0,0,0,16,"[0, 29, 12, 10, 7, 26, 22, 16]",8,1,[19],42.18849457,6305,608,1,0,9,1.3580882130477205
undo,32,39,0,0,1,19,"[0, 29, 12, 10, 7, 26, 22, 16, 19]",9,0,[],24.72424537,6679,374,1,0,9,1.3646589157842668
undo,32,39,0,1,1,19,"[0, 29, 12, 10, 7, 26, 22, 16, 19]",9,0,[],24.72424537,7906,1227,1,0,9,1.3646589157842668
undo,33,36,0,0,0,0,[0],1,24,"[2, 4, 5, 6, 7, 8, 9, 10, 12, 13, 14, 15, 16, 17, 18, 19, 20, 22, 23, 25, 26, 27, 28, 29]",300,147,-1,2,200,10,0.0
undo,33,36,0,0,0,12,"[0, 12]",2,23,"[2, 4, 5, 6, 7, 8, 9, 10, 13, 14, 15, 16, 17, 18, 19, 20, 22, 23, 25, 26, 27, 28, 29]",277.7963967,2893,2746,90,804,9,1.0
undo,33,36,0,0,0,16,"[0, 12, 16]",3,10,"[2, 9, 10, 13, 17, 18, 19, 23, 25, 27]",171.6267212,6032,3139,4,38,9,1.202695220335868
undo,33,36,0,0,0,17,"[0, 12, 16, 17]",4,7,"[2, 9, 10, 13, 18, 19, 25]",143.3071167,6514,482,4,23,9,1.6578705047868705
undo,33,36,0,0,0,9,"[0, 12, 16, 17, 9]",5,5,"[2, 13, 18, 19, 25]",117.0583072,6917,403,3,6,9,2.6488264465469484
undo,33,36,0,0,0,19,"[0, 12, 16, 17, 9, 19]",6,4,"[2, 13, 18, 25]",101.9255612,7217,300,3,3,9,2.5697960541572393
undo,33,36,0,0,0,2,"[0, 12, 16, 17, 9, 19, 2]",7,2,"[13, 25]",64.80413882,8217,1000,2,0,9,2.082684549483941
undo,33,36,0,0,0,25,"[0, 12, 16, 17, 9, 19, 2, 25]",8,1,[13],39.80413882,8611,394,1,0,9,2.272647961997219
undo,33,36,0,0,1,13,"[0, 12, 16, 17, 9, 19, 2, 25, 13]",9,0,[],19.21287854,9163,552,1,0,9,2.86279103556024
undo,33,36,0,1,1,13,"[0, 12, 16, 17, 9, 19, 2, 25, 13]",9,0,[],19.21287854,14385,5222,1,0,9,2.86279103556024
undo,34,10,0,0,0,0,[0],1,29,"[1, 2, 3, 4, 5, 6, 7, 8, 9, 10, 11, 12, 13, 14, 15, 16, 17, 18, 19, 20, 21, 22, 23, 24, 25, 26, 27, 28, 29]",300,131,-1,1,100,9,0.0
undo,34,10,0,0,0,13,"[0, 13]",2,25,"[1, 2, 3, 4, 6, 7, 8, 9, 10, 11, 12, 14, 17, 18, 19, 20, 21, 22, 23, 24, 25, 26, 27, 28, 29]",249.4628849,5736,5605,1,79,9,1.0
undo,34,10,0,0,0,11,"[0, 13, 11]",3,20,"[1, 2, 3, 6, 7, 8, 9, 10, 12, 14, 18, 19, 20, 21, 22, 24, 26, 27, 28, 29]",206.4512586,6799,1063,1,54,9,1.0313137484914219
undo,34,10,0,0,0,19,"[0, 13, 11, 19]",4,11,"[2, 6, 8, 9, 10, 14, 18, 20, 24, 26, 27]",170.0919407,7312,513,1,22,9,1.0879446220132545
undo,34,10,0,0,0,2,"[0, 13, 11, 19, 2]",5,4,"[14, 20, 26, 27]",126.1829439,7950,638,1,4,9,1.06474052351343
undo,34,10,0,0,0,14,"[0, 13, 11, 19, 2, 14]",6,3,"[20, 26, 27]",114.0174188,8429,479,1,3,9,1.1628909195912238
undo,34,10,0,0,0,26,"[0, 13, 11, 19, 2, 14, 26]",7,2,"[20, 27]",79.34754716,8979,550,1,1,9,1.6660727647633602
undo,34,10,0,0,0,20,"[0, 13, 11, 19, 2, 14, 26, 20]",8,1,[27],47.56704999,10135,1156,1,0,9,2.085581809637999
undo,34,10,0,0,1,27,"[0, 13, 11, 19, 2, 14, 26, 20, 27]",9,0,[],2.312215998,10739,604,1,0,9,1.9116357409137932
undo,34,10,0,1,1,27,"[0, 13, 11, 19, 2, 14, 26, 20, 27]",9,0,[],2.312215998,11971,1232,1,0,9,1.9116357409137932
undo,35,6,0,0,0,0,[0],1,29,"[1, 2, 3, 4, 5, 6, 7, 8, 9, 10, 11, 12, 13, 14, 15, 16, 17, 18, 19, 20, 21, 22, 23, 24, 25, 26, 27, 28, 29]",300,213,-1,180,4304,10,0.0
undo,35,6,0,0,0,26,"[0, 26]",2,25,"[1, 2, 3, 4, 5, 6, 7, 8, 9, 10, 11, 12, 13, 14, 15, 16, 17, 18, 20, 21, 22, 23, 24, 27, 29]",250.2606795,8280,8067,45,776,10,1.0
undo,35,6,0,0,0,7,"[0, 26, 7]",3,24,"[1, 2, 3, 4, 5, 6, 8, 9, 10, 11, 12, 13, 14, 15, 16, 17, 18, 20, 21, 22, 23, 24, 27, 29]",226.1774904,8960,680,25,520,10,1.5373018630243536
undo,35,6,0,0,0,3,"[0, 26, 7, 3]",4,22,"[1, 2, 4, 6, 8, 9, 10, 11, 12, 13, 14, 15, 16, 17, 18, 20, 21, 22, 23, 24, 27, 29]",190.0388684,9430,470,20,235,10,3.2798655773210936
undo,35,6,0,0,0,18,"[0, 26, 7, 3, 18]",5,17,"[1, 2, 6, 8, 10, 11, 13, 14, 16, 17, 20, 21, 22, 23, 24, 27, 29]",161.0388684,12908,3478,12,95,10,2.2817335351582497
undo,35,6,0,0,0,17,"[0, 26, 7, 3, 18, 17]",6,14,"[1, 2, 6, 8, 10, 13, 14, 16, 21, 22, 23, 24, 27, 29]",147.1104801,13224,316,7,40,10,2.166304221519952
undo,35,6,0,0,0,10,"[0, 26, 7, 3, 18, 17, 10]",7,10,"[2, 6, 8, 13, 16, 22, 23, 24, 27, 29]",127.3873972,13624,400,6,14,10,2.0465180096074933
undo,35,6,0,0,0,24,"[0, 26, 7, 3, 18, 17, 10, 24]",8,7,"[2, 6, 16, 22, 23, 27, 29]",113.9709893,14061,437,6,3,10,1.9120419940880518
undo,35,6,0,0,0,23,"[0, 26, 7, 3, 18, 17, 10, 24, 23]",9,3,"[6, 22, 29]",52.78275515,15060,999,3,0,10,1.8421369153343572
undo,35,6,0,0,1,6,"[0, 26, 7, 3, 18, 17, 10, 24, 23, 6]",10,0,[],17.42741609,17196,2136,1,0,10,1.754466325858843
undo,35,6,1,0,0,23,"[0, 26, 7, 3, 18, 17, 10, 24, 23]",9,3,"[6, 22, 29]",52.78275515,18199,1003,3,0,10,1.8421369153343572
undo,35,6,1,0,0,24,"[0, 26, 7, 3, 18, 17, 10, 24]",8,7,"[2, 6, 16, 22, 23, 27, 29]",113.9709893,18366,167,6,3,10,1.9120419940880518
undo,35,6,1,0,0,10,"[0, 26, 7, 3, 18, 17, 10]",7,10,"[2, 6, 8, 13, 16, 22, 23, 24, 27, 29]",127.3873972,18499,133,6,14,10,2.0465180096074933
undo,35,6,1,0,0,17,"[0, 26, 7, 3, 18, 17]",6,14,"[1, 2, 6, 8, 10, 13, 14, 16, 21, 22, 23, 24, 27, 29]",147.1104801,18632,133,7,40,10,2.166304221519952
undo,35,6,1,0,0,18,"[0, 26, 7, 3, 18]",5,17,"[1, 2, 6, 8, 10, 11, 13, 14, 16, 17, 20, 21, 22, 23, 24, 27, 29]",161.0388684,18782,150,12,95,10,2.2817335351582497
undo,35,6,1,0,0,3,"[0, 26, 7, 3]",4,22,"[1, 2, 4, 6, 8, 9, 10, 11, 12, 13, 14, 15, 16, 17, 18, 20, 21, 22, 23, 24, 27, 29]",190.0388684,18915,133,20,235,10,3.2798655773210936
undo,35,6,1,0,0,7,"[0, 26, 7]",3,24,"[1, 2, 3, 4, 5, 6, 8, 9, 10, 11, 12, 13, 14, 15, 16, 17, 18, 20, 21, 22, 23, 24, 27, 29]",226.1774904,19098,183,25,520,10,1.5373018630243536
undo,35,6,1,0,0,26,"[0, 26]",2,25,"[1, 2, 3, 4, 5, 6, 7, 8, 9, 10, 11, 12, 13, 14, 15, 16, 17, 18, 20, 21, 22, 23, 24, 27, 29]",250.2606795,19348,250,45,776,10,1.0
undo,35,6,1,0,0,0,[0],1,29,"[1, 2, 3, 4, 5, 6, 7, 8, 9, 10, 11, 12, 13, 14, 15, 16, 17, 18, 19, 20, 21, 22, 23, 24, 25, 26, 27, 28, 29]",300,19565,217,180,4304,10,0.0
undo,35,6,0,0,0,3,"[0, 3]",2,28,"[1, 2, 4, 5, 6, 7, 8, 9, 10, 11, 12, 13, 14, 15, 16, 17, 18, 19, 20, 21, 22, 23, 24, 25, 26, 27, 28, 29]",266.4738908,20154,589,90,1607,10,1.0
undo,35,6,0,0,0,18,"[0, 3, 18]",3,27,"[1, 2, 4, 5, 6, 7, 8, 9, 10, 11, 12, 13, 14, 15, 16, 17, 19, 20, 21, 22, 23, 24, 25, 26, 27, 28, 29]",237.4738908,20717,563,34,516,10,1.0266750028725786
undo,35,6,0,0,0,17,"[0, 3, 18, 17]",4,26,"[1, 2, 4, 5, 6, 7, 8, 9, 10, 11, 12, 13, 14, 15, 16, 19, 20, 21, 22, 23, 24, 25, 26, 27, 28, 29]",223.5455025,21734,1017,17,243,10,1.0832900829093166
undo,35,6,0,0,0,10,"[0, 3, 18, 17, 10]",5,22,"[1, 2, 4, 5, 6, 7, 8, 9, 11, 13, 14, 16, 19, 20, 21, 22, 23, 24, 26, 27, 28, 29]",203.8224196,22159,425,10,111,10,1.140294203414171
undo,35,6,0,0,0,24,"[0, 3, 18, 17, 10, 24]",6,19,"[1, 2, 4, 5, 6, 7, 8, 11, 13, 14, 16, 20, 21, 22, 23, 26, 27, 28, 29]",190.4060117,22508,349,10,80,10,1.1264281153820843
undo,35,6,0,0,0,16,"[0, 3, 18, 17, 10, 24, 16]",7,13,"[1, 2, 6, 7, 13, 14, 20, 21, 22, 23, 26, 27, 29]",134.3703088,23897,1389,6,21,10,2.2946652061367843
undo,35,6,0,0,0,29,"[0, 3, 18, 17, 10, 24, 16, 29]",8,7,"[6, 14, 20, 21, 22, 23, 27]",97.68243615,24714,817,5,5,10,1.8995488998077483
undo,35,6,0,0,0,23,"[0, 3, 18, 17, 10, 24, 16, 29, 23]",9,2,"[6, 22]",50.16401866,25332,618,2,0,10,1.8616504050291767
undo,35,6,0,0,1,6,"[0, 3, 18, 17, 10, 24, 16, 29, 23, 6]",10,0,[],14.8086796,25898,566,1,0,10,1.7707258119152334
undo,35,6,1,0,0,23,"[0, 3, 18, 17, 10, 24, 16, 29, 23]",9,2,"[6, 22]",50.16401866,27225,1327,2,0,10,1.8616504050291767
undo,35,6,1,0,0,29,"[0, 3, 18, 17, 10, 24, 16, 29]",8,7,"[6, 14, 20, 21, 22, 23, 27]",97.68243615,27375,150,5,5,10,1.8995488998077483
undo,35,6,0,0,0,22,"[0, 3, 18, 17, 10, 24, 16, 29, 22]",9,3,"[14, 23, 27]",47.35351802,28593,1218,3,0,10,1.6225652141198474
undo,35,6,1,0,0,29,"[0, 3, 18, 17, 10, 24, 16, 29]",8,7,"[6, 14, 20, 21, 22, 23, 27]",97.68243615,30472,1879,5,5,10,1.8995488998077483
undo,35,6,1,0,0,16,"[0, 3, 18, 17, 10, 24, 16]",7,13,"[1, 2, 6, 7, 13, 14, 20, 21, 22, 23, 26, 27, 29]",134.3703088,31305,833,6,21,10,2.2946652061367843
undo,35,6,0,0,0,29,"[0, 3, 18, 17, 10, 24, 16, 29]",8,7,"[6, 14, 20, 21, 22, 23, 27]",97.68243615,35605,4300,5,5,10,1.8995488998077483
undo,35,6,0,0,0,22,"[0, 3, 18, 17, 10, 24, 16, 29, 22]",9,3,"[14, 23, 27]",47.35351802,36179,574,3,0,10,1.6225652141198474
undo,35,6,0,0,1,14,"[0, 3, 18, 17, 10, 24, 16, 29, 22, 14]",10,0,[],12.94421695,36988,809,1,0,10,1.706821909786954
undo,35,6,1,0,0,22,"[0, 3, 18, 17, 10, 24, 16, 29, 22]",9,3,"[14, 23, 27]",47.35351802,38366,1378,3,0,10,1.6225652141198474
undo,35,6,1,0,0,29,"[0, 3, 18, 17, 10, 24, 16, 29]",8,7,"[6, 14, 20, 21, 22, 23, 27]",97.68243615,38516,150,5,5,10,1.8995488998077483
undo,35,6,1,0,0,16,"[0, 3, 18, 17, 10, 24, 16]",7,13,"[1, 2, 6, 7, 13, 14, 20, 21, 22, 23, 26, 27, 29]",134.3703088,38666,150,6,21,10,2.2946652061367843
undo,35,6,0,0,0,29,"[0, 3, 18, 17, 10, 24, 16, 29]",8,7,"[6, 14, 20, 21, 22, 23, 27]",97.68243615,42728,4062,5,5,10,1.8995488998077483
undo,35,6,0,0,0,23,"[0, 3, 18, 17, 10, 24, 16, 29, 23]",9,2,"[6, 22]",50.16401866,43221,493,2,0,10,1.8616504050291767
undo,35,6,0,0,1,6,"[0, 3, 18, 17, 10, 24, 16, 29, 23, 6]",10,0,[],14.8086796,43815,594,1,0,10,1.7707258119152334
undo,35,6,0,1,1,6,"[0, 3, 18, 17, 10, 24, 16, 29, 23, 6]",10,0,[],14.8086796,44378,563,1,0,10,1.7707258119152334
undo,36,26,0,0,0,0,[0],1,29,"[1, 2, 3, 4, 5, 6, 7, 8, 9, 10, 11, 12, 13, 14, 15, 16, 17, 18, 19, 20, 21, 22, 23, 24, 25, 26, 27, 28, 29]",300,145,-1,9,226,9,0.0
undo,36,26,0,0,0,21,"[0, 21]",2,25,"[2, 3, 4, 5, 6, 7, 8, 10, 11, 12, 13, 14, 15, 16, 17, 18, 19, 22, 23, 24, 25, 26, 27, 28, 29]",211.1349337,5146,5001,7,90,9,1.0
undo,36,26,0,0,0,13,"[0, 21, 13]",3,21,"[3, 4, 5, 6, 7, 8, 10, 11, 12, 14, 15, 16, 17, 18, 19, 22, 23, 24, 25, 26, 29]",188.9989901,5569,423,6,45,9,1.0103952279992225
undo,36,26,0,0,0,23,"[0, 21, 13, 23]",4,13,"[3, 4, 5, 6, 10, 11, 14, 16, 17, 18, 22, 26, 29]",150.9858345,6108,539,3,17,9,1.1069410469330032
undo,36,26,0,0,0,16,"[0, 21, 13, 23, 16]",5,7,"[4, 5, 6, 10, 14, 17, 29]",97.75050789,6748,640,3,13,9,1.8066634000662438
undo,36,26,0,0,0,29,"[0, 21, 13, 23, 16, 29]",6,5,"[4, 6, 10, 14, 17]",73.54307102,7152,404,3,9,9,1.853342605492142
undo,36,26,0,0,0,4,"[0, 21, 13, 23, 16, 29, 4]",7,3,"[6, 14, 17]",49.54307102,7535,383,2,2,9,2.0664369230924997
undo,36,26,0,0,0,17,"[0, 21, 13, 23, 16, 29, 4, 17]",8,2,"[6, 14]",28.44804791,7933,398,2,0,9,1.911153301956092
undo,36,26,0,0,1,14,"[0, 21, 13, 23, 16, 29, 4, 17, 14]",9,0,[],5.975842855,8408,475,1,0,9,1.8245133223656398
undo,36,26,1,0,0,17,"[0, 21, 13, 23, 16, 29, 4, 17]",8,2,"[6, 14]",28.44804791,10285,1877,2,0,9,1.911153301956092
undo,36,26,1,0,0,4,"[0, 21, 13, 23, 16, 29, 4]",7,3,"[6, 14, 17]",49.54307102,10435,150,2,2,9,2.0664369230924997
undo,36,26,1,0,0,29,"[0, 21, 13, 23, 16, 29]",6,5,"[4, 6, 10, 14, 17]",73.54307102,10585,150,3,9,9,1.853342605492142
undo,36,26,1,0,0,16,"[0, 21, 13, 23, 16]",5,7,"[4, 5, 6, 10, 14, 17, 29]",97.75050789,10969,384,3,13,9,1.8066634000662438
undo,36,26,1,0,0,23,"[0, 21, 13, 23]",4,13,"[3, 4, 5, 6, 10, 11, 14, 16, 17, 18, 22, 26, 29]",150.9858345,11218,249,3,17,9,1.1069410469330032
undo,36,26,1,0,0,13,"[0, 21, 13]",3,21,"[3, 4, 5, 6, 7, 8, 10, 11, 12, 14, 15, 16, 17, 18, 19, 22, 23, 24, 25, 26, 29]",188.9989901,11468,250,6,45,9,1.0103952279992225
undo,36,26,1,0,0,21,"[0, 21]",2,25,"[2, 3, 4, 5, 6, 7, 8, 10, 11, 12, 13, 14, 15, 16, 17, 18, 19, 22, 23, 24, 25, 26, 27, 28, 29]",211.1349337,12051,583,7,90,9,1.0
undo,36,26,0,0,0,16,"[0, 21, 16]",3,12,"[4, 5, 6, 10, 11, 12, 13, 14, 17, 23, 26, 29]",151.2266705,12586,535,1,34,9,1.3289691188319968
undo,36,26,0,0,0,29,"[0, 21, 16, 29]",4,8,"[4, 5, 6, 10, 13, 14, 17, 23]",127.0192337,12965,379,1,28,9,1.4156891800947415
undo,36,26,0,0,0,4,"[0, 21, 16, 29, 4]",5,5,"[6, 10, 14, 17, 23]",103.0192337,13480,515,1,12,9,1.6252228687746915
undo,36,26,0,0,0,17,"[0, 21, 16, 29, 4, 17]",6,3,"[6, 10, 14]",81.92421056,13914,434,1,4,9,1.534793846471065
undo,36,26,0,0,0,14,"[0, 21, 16, 29, 4, 17, 14]",7,2,"[6, 10]",59.45200551,14314,400,1,1,9,1.4926767408397108
undo,36,26,0,0,0,6,"[0, 21, 16, 29, 4, 17, 14, 6]",8,1,[10],38.42820947,15302,988,1,0,9,1.6286010900012204
undo,36,26,0,0,1,10,"[0, 21, 16, 29, 4, 17, 14, 6, 10]",9,0,[],9.153647129,15951,649,1,0,9,1.797369356615424
undo,36,26,0,1,1,10,"[0, 21, 16, 29, 4, 17, 14, 6, 10]",9,0,[],9.153647129,17297,1346,1,0,9,1.797369356615424
undo,37,7,0,0,0,0,[0],1,29,"[1, 2, 3, 4, 5, 6, 7, 8, 9, 10, 11, 12, 13, 14, 15, 16, 17, 18, 19, 20, 21, 22, 23, 24, 25, 26, 27, 28, 29]",300,147,-1,3,79,9,0.0
undo,37,7,0,0,0,25,"[0, 25]",2,20,"[2, 3, 4, 5, 6, 7, 10, 13, 14, 15, 16, 18, 19, 20, 21, 22, 23, 24, 27, 28]",181.5939191,6837,6690,5,33,8,1.0
undo,37,7,0,0,0,4,"[0, 25, 4]",3,11,"[2, 6, 7, 13, 15, 16, 18, 19, 20, 21, 23]",156.8552853,7635,798,2,14,8,1.0193465608331511
undo,37,7,0,0,0,20,"[0, 25, 4, 20]",4,8,"[2, 6, 7, 13, 15, 16, 18, 19]",137.2084026,8035,400,1,9,8,1.085904909082323
undo,37,7,0,0,0,18,"[0, 25, 4, 20, 18]",5,7,"[2, 6, 7, 13, 15, 16, 19]",124.4021541,8395,360,1,5,8,1.2264883846453758
undo,37,7,0,0,0,7,"[0, 25, 4, 20, 18, 7]",6,2,"[2, 19]",83.17109789,9095,700,1,1,8,1.185264473968278
undo,37,7,0,0,0,19,"[0, 25, 4, 20, 18, 7, 19]",7,1,[2],53.76021555,9566,471,1,0,8,1.3016904288278204
undo,37,7,0,0,1,2,"[0, 25, 4, 20, 18, 7, 19, 2]",8,0,[],23.61058868,9979,413,1,0,8,1.3168868000947171
undo,37,7,1,0,0,19,"[0, 25, 4, 20, 18, 7, 19]",7,1,[2],53.76021555,11105,1126,1,0,8,1.3016904288278204
undo,37,7,1,0,0,7,"[0, 25, 4, 20, 18, 7]",6,2,"[2, 19]",83.17109789,11504,399,1,1,8,1.185264473968278
undo,37,7,1,0,0,18,"[0, 25, 4, 20, 18]",5,7,"[2, 6, 7, 13, 15, 16, 19]",124.4021541,11704,200,1,5,8,1.2264883846453758
undo,37,7,1,0,0,20,"[0, 25, 4, 20]",4,8,"[2, 6, 7, 13, 15, 16, 18, 19]",137.2084026,11920,216,1,9,8,1.085904909082323
undo,37,7,1,0,0,4,"[0, 25, 4]",3,11,"[2, 6, 7, 13, 15, 16, 18, 19, 20, 21, 23]",156.8552853,12087,167,2,14,8,1.0193465608331511
undo,37,7,1,0,0,25,"[0, 25]",2,20,"[2, 3, 4, 5, 6, 7, 10, 13, 14, 15, 16, 18, 19, 20, 21, 22, 23, 24, 27, 28]",181.5939191,12254,167,5,33,8,1.0
undo,37,7,1,0,0,0,[0],1,29,"[1, 2, 3, 4, 5, 6, 7, 8, 9, 10, 11, 12, 13, 14, 15, 16, 17, 18, 19, 20, 21, 22, 23, 24, 25, 26, 27, 28, 29]",300,12520,266,3,79,9,0.0
undo,37,7,0,0,0,6,"[0, 6]",2,22,"[2, 4, 5, 7, 8, 9, 10, 11, 13, 14, 15, 16, 18, 19, 20, 21, 22, 23, 24, 25, 27, 28]",231.1160396,12951,431,1,24,9,1.0
undo,37,7,0,0,0,25,"[0, 6, 25]",3,14,"[2, 4, 5, 7, 13, 14, 15, 16, 18, 19, 20, 21, 23, 28]",163.9371739,13749,798,1,15,9,1.1491202566384209
undo,37,7,0,0,0,4,"[0, 6, 25, 4]",4,10,"[2, 7, 13, 15, 16, 18, 19, 20, 21, 23]",139.1985401,14758,1009,1,9,9,1.145081852791697
undo,37,7,0,0,0,20,"[0, 6, 25, 4, 20]",5,6,"[2, 7, 13, 16, 18, 19]",119.5516574,15155,397,1,4,9,1.2036846139155144
undo,37,7,0,0,0,18,"[0, 6, 25, 4, 20, 18]",6,5,"[2, 7, 13, 16, 19]",106.7454089,15506,351,1,3,9,1.3498144584217913
undo,37,7,0,0,0,7,"[0, 6, 25, 4, 20, 18, 7]",7,2,"[2, 19]",65.51435269,16055,549,1,1,9,1.2817825700699357
undo,37,7,0,0,0,19,"[0, 6, 25, 4, 20, 18, 7, 19]",8,1,[2],36.10347035,16505,450,1,0,9,1.3950287830764145
undo,37,7,0,0,1,2,"[0, 6, 25, 4, 20, 18, 7, 19, 2]",9,0,[],5.953843486,17165,660,1,0,9,1.4010142439340676
undo,37,7,0,1,1,2,"[0, 6, 25, 4, 20, 18, 7, 19, 2]",9,0,[],5.953843486,18382,1217,1,0,9,1.4010142439340676
undo,38,11,0,0,0,0,[0],1,25,"[1, 2, 3, 4, 5, 6, 8, 9, 10, 11, 12, 13, 14, 15, 16, 17, 18, 19, 20, 22, 23, 25, 26, 27, 28]",300,146,-1,6,374,12,0.0
undo,38,11,0,0,0,18,"[0, 18]",2,21,"[1, 2, 4, 5, 6, 8, 9, 11, 12, 13, 14, 15, 16, 17, 19, 20, 22, 23, 25, 27, 28]",236.8493864,3132,2986,157,1477,11,1.0
undo,38,11,0,0,0,27,"[0, 18, 27]",3,19,"[1, 2, 4, 5, 6, 8, 9, 11, 12, 14, 15, 16, 17, 19, 20, 22, 23, 25, 28]",212.9956655,3593,461,157,1315,11,1.060949579704323
undo,38,11,0,0,0,17,"[0, 18, 27, 17]",4,14,"[1, 2, 4, 5, 6, 8, 11, 12, 15, 19, 22, 23, 25, 28]",135.9177828,12714,9121,46,349,11,1.1156120043677304
undo,38,11,0,0,0,8,"[0, 18, 27, 17, 8]",5,11,"[1, 2, 5, 6, 11, 12, 15, 19, 22, 25, 28]",121.5999617,13243,529,26,143,11,1.2285932943120847
undo,38,11,0,0,0,15,"[0, 18, 27, 17, 8, 15]",6,9,"[2, 5, 6, 11, 12, 19, 22, 25, 28]",108.1463377,14789,1546,24,54,11,1.223015425852291
undo,38,11,0,0,0,11,"[0, 18, 27, 17, 8, 15, 11]",7,6,"[2, 5, 12, 19, 22, 28]",90.03556742,15274,485,22,2,11,1.2111003833550413
undo,38,11,0,0,0,28,"[0, 18, 27, 17, 8, 15, 11, 28]",8,3,"[2, 5, 22]",70.61907959,15755,481,6,0,11,1.3274100985292616
undo,38,11,0,0,0,22,"[0, 18, 27, 17, 8, 15, 11, 28, 22]",9,2,"[2, 5]",52.23430327,16680,925,2,0,11,1.3141711190295955
undo,38,11,0,0,0,2,"[0, 18, 27, 17, 8, 15, 11, 28, 22, 2]",10,1,[5],42.18442765,17024,344,1,0,11,1.4444412809691538
undo,38,11,0,0,1,5,"[0, 18, 27, 17, 8, 15, 11, 28, 22, 2, 5]",11,0,[],25.18442765,17597,573,1,0,11,1.6891669336596347
undo,38,11,1,0,0,2,"[0, 18, 27, 17, 8, 15, 11, 28, 22, 2]",10,1,[5],42.18442765,20047,2450,1,0,11,1.4444412809691538
undo,38,11,1,0,0,22,"[0, 18, 27, 17, 8, 15, 11, 28, 22]",9,2,"[2, 5]",52.23430327,20197,150,2,0,11,1.3141711190295955
undo,38,11,1,0,0,28,"[0, 18, 27, 17, 8, 15, 11, 28]",8,3,"[2, 5, 22]",70.61907959,20330,133,6,0,11,1.3274100985292616
undo,38,11,1,0,0,11,"[0, 18, 27, 17, 8, 15, 11]",7,6,"[2, 5, 12, 19, 22, 28]",90.03556742,20463,133,22,2,11,1.2111003833550413
undo,38,11,1,0,0,15,"[0, 18, 27, 17, 8, 15]",6,9,"[2, 5, 6, 11, 12, 19, 22, 25, 28]",108.1463377,20580,117,24,54,11,1.223015425852291
undo,38,11,1,0,0,8,"[0, 18, 27, 17, 8]",5,11,"[1, 2, 5, 6, 11, 12, 15, 19, 22, 25, 28]",121.5999617,20763,183,26,143,11,1.2285932943120847
undo,38,11,1,0,0,17,"[0, 18, 27, 17]",4,14,"[1, 2, 4, 5, 6, 8, 11, 12, 15, 19, 22, 23, 25, 28]",135.9177828,20896,133,46,349,11,1.1156120043677304
undo,38,11,1,0,0,27,"[0, 18, 27]",3,19,"[1, 2, 4, 5, 6, 8, 9, 11, 12, 14, 15, 16, 17, 19, 20, 22, 23, 25, 28]",212.9956655,21079,183,157,1315,11,1.060949579704323
undo,38,11,1,0,0,18,"[0, 18]",2,21,"[1, 2, 4, 5, 6, 8, 9, 11, 12, 13, 14, 15, 16, 17, 19, 20, 22, 23, 25, 27, 28]",236.8493864,21345,266,157,1477,11,1.0
undo,38,11,1,0,0,0,[0],1,25,"[1, 2, 3, 4, 5, 6, 8, 9, 10, 11, 12, 13, 14, 15, 16, 17, 18, 19, 20, 22, 23, 25, 26, 27, 28]",300,21629,284,6,374,12,0.0
undo,38,11,0,0,0,1,"[0, 1]",2,24,"[2, 3, 4, 5, 6, 8, 9, 10, 11, 12, 13, 14, 15, 16, 17, 18, 19, 20, 22, 23, 25, 26, 27, 28]",264.6446609,22117,488,6,217,12,1.0
undo,38,11,0,0,0,18,"[0, 1, 18]",3,19,"[2, 4, 5, 6, 8, 9, 11, 12, 14, 15, 16, 17, 19, 20, 22, 23, 25, 27, 28]",212.3187591,22699,582,6,161,12,1.3884463804898786
undo,38,11,0,0,0,27,"[0, 1, 18, 27]",4,18,"[2, 4, 5, 6, 8, 9, 11, 12, 14, 15, 16, 17, 19, 20, 22, 23, 25, 28]",188.4650382,23139,440,6,155,12,1.3600813284083875
undo,38,11,0,0,0,17,"[0, 1, 18, 27, 17]",5,11,"[2, 5, 6, 8, 11, 12, 15, 19, 22, 25, 28]",111.3871556,24123,984,2,45,12,1.282398281674261
undo,38,11,0,0,0,8,"[0, 1, 18, 27, 17, 8]",6,7,"[2, 5, 11, 12, 15, 22, 28]",97.0693345,24538,415,2,21,12,1.3975291553712
undo,38,11,0,0,0,15,"[0, 1, 18, 27, 17, 8, 15]",7,6,"[2, 5, 11, 12, 22, 28]",83.61571045,24914,376,2,18,12,1.3793915678186077
undo,38,11,0,0,0,11,"[0, 1, 18, 27, 17, 8, 15, 11]",8,4,"[2, 5, 22, 28]",65.50494017,25267,353,2,14,12,1.3525960247899067
undo,38,11,0,0,0,28,"[0, 1, 18, 27, 17, 8, 15, 11, 28]",9,3,"[2, 5, 22]",46.08845233,25712,445,2,4,12,1.4693669896690256
undo,38,11,0,0,0,22,"[0, 1, 18, 27, 17, 8, 15, 11, 28, 22]",10,2,"[2, 5]",27.70367602,26413,701,1,1,12,1.4442837306182805
undo,38,11,0,0,0,2,"[0, 1, 18, 27, 17, 8, 15, 11, 28, 22, 2]",11,1,[5],17.6538004,26711,298,1,0,12,1.5818769305111617
undo,38,11,0,0,1,5,"[0, 1, 18, 27, 17, 8, 15, 11, 28, 22, 2, 5]",12,0,[],0.653800401,27314,603,1,0,12,1.8399455960789832
undo,38,11,0,1,1,5,"[0, 1, 18, 27, 17, 8, 15, 11, 28, 22, 2, 5]",12,0,[],0.653800401,28356,1042,1,0,12,1.8399455960789832
undo,39,22,0,0,0,0,[0],1,29,"[1, 2, 3, 4, 5, 6, 7, 8, 9, 10, 11, 12, 13, 14, 15, 16, 17, 18, 19, 20, 21, 22, 23, 24, 25, 26, 27, 28, 29]",300,146,-1,31,704,9,0.0
undo,39,22,0,0,0,16,"[0, 16]",2,21,"[1, 3, 6, 7, 8, 9, 11, 13, 14, 15, 17, 18, 19, 20, 21, 22, 24, 25, 27, 28, 29]",218.605897,10314,10168,17,147,9,1.0
undo,39,22,0,0,0,28,"[0, 16, 28]",3,13,"[6, 7, 9, 13, 14, 17, 19, 20, 21, 22, 24, 25, 29]",184.1675463,11540,1226,12,61,9,1.047282311284478
undo,39,22,0,0,0,6,"[0, 16, 28, 6]",4,12,"[7, 9, 13, 14, 17, 19, 20, 21, 22, 24, 25, 29]",154.1675463,12023,483,12,43,9,1.645645870580622
undo,39,22,0,0,0,9,"[0, 16, 28, 6, 9]",5,8,"[7, 14, 17, 19, 20, 21, 24, 29]",127.5404924,12424,401,8,17,9,1.925750226630103
undo,39,22,0,0,0,19,"[0, 16, 28, 6, 9, 19]",6,6,"[7, 14, 17, 21, 24, 29]",107.1444143,13557,1133,3,7,9,2.4220750331476455
undo,39,22,0,0,0,29,"[0, 16, 28, 6, 9, 19, 29]",7,4,"[7, 14, 17, 24]",92.11111796,13889,332,2,2,9,2.6996279574991067
undo,39,22,0,0,0,14,"[0, 16, 28, 6, 9, 19, 29, 14]",8,1,[7],33.86165444,14631,742,1,0,9,2.0544639927929462
undo,39,22,0,0,1,7,"[0, 16, 28, 6, 9, 19, 29, 14, 7]",9,0,[],20.82324963,14954,323,1,0,9,2.219817088951114
undo,39,22,1,0,0,14,"[0, 16, 28, 6, 9, 19, 29, 14]",8,1,[7],33.86165444,17099,2145,1,0,9,2.0544639927929462
undo,39,22,1,0,0,29,"[0, 16, 28, 6, 9, 19, 29]",7,4,"[7, 14, 17, 24]",92.11111796,17232,133,2,2,9,2.6996279574991067
undo,39,22,1,0,0,19,"[0, 16, 28, 6, 9, 19]",6,6,"[7, 14, 17, 21, 24, 29]",107.1444143,17399,167,3,7,9,2.4220750331476455
undo,39,22,0,0,0,29,"[0, 16, 28, 6, 9, 19, 29]",7,4,"[7, 14, 17, 24]",92.11111796,18747,1348,2,2,9,2.6996279574991067
undo,39,22,0,0,0,14,"[0, 16, 28, 6, 9, 19, 29, 14]",8,1,[7],33.86165444,24284,5537,1,0,9,2.0544639927929462
undo,39,22,0,0,1,7,"[0, 16, 28, 6, 9, 19, 29, 14, 7]",9,0,[],20.82324963,24525,241,1,0,9,2.219817088951114
undo,39,22,0,1,1,7,"[0, 16, 28, 6, 9, 19, 29, 14, 7]",9,0,[],20.82324963,25342,817,1,0,9,2.219817088951114
undo,40,34,0,0,0,0,[0],1,25,"[1, 3, 4, 5, 6, 7, 8, 9, 10, 11, 12, 13, 15, 18, 19, 20, 21, 22, 23, 24, 25, 26, 27, 28, 29]",300,147,-1,12,367,10,0.0
undo,40,34,0,0,0,13,"[0, 13]",2,24,"[1, 3, 4, 5, 6, 7, 8, 9, 10, 11, 12, 15, 18, 19, 20, 21, 22, 23, 24, 25, 26, 27, 28, 29]",279.9750156,2228,2081,12,331,10,1.0
undo,40,34,0,0,0,1,"[0, 13, 1]",3,16,"[3, 5, 7, 8, 9, 10, 11, 12, 19, 21, 22, 23, 24, 25, 27, 29]",211.8574701,2896,668,3,92,10,1.0010381285747127
undo,40,34,0,0,0,8,"[0, 13, 1, 8]",4,14,"[3, 5, 7, 9, 10, 11, 12, 19, 22, 23, 24, 25, 27, 29]",201.0871405,3232,336,2,54,10,1.1636807
undo,40,34,0,0,0,25,"[0, 13, 1, 8, 25]",5,12,"[3, 5, 7, 9, 10, 11, 12, 22, 23, 24, 27, 29]",183.999133,3732,500,2,28,10,1.1396208815936457
undo,40,34,0,0,0,24,"[0, 13, 1, 8, 25, 24]",6,11,"[3, 5, 7, 9, 10, 11, 12, 22, 23, 27, 29]",166.5062774,4146,414,2,23,10,1.374180768736554
undo,40,34,0,0,0,12,"[0, 13, 1, 8, 25, 24, 12]",7,7,"[7, 9, 10, 11, 22, 23, 27]",115.4670767,9571,5425,1,8,10,1.4994254760835948
undo,40,34,0,0,0,7,"[0, 13, 1, 8, 25, 24, 12, 7]",8,5,"[9, 11, 22, 23, 27]",100.4337804,10344,773,1,4,10,1.758992610425009
undo,40,34,0,0,0,23,"[0, 13, 1, 8, 25, 24, 12, 7, 23]",9,1,[27],72.27352467,10817,473,1,0,10,2.399781305190153
undo,40,34,0,0,1,27,"[0, 13, 1, 8, 25, 24, 12, 7, 23, 27]",10,0,[],18.60789321,11427,610,1,0,10,4.766619878750327
undo,40,34,0,1,1,27,"[0, 13, 1, 8, 25, 24, 12, 7, 23, 27]",10,0,[],18.60789321,12653,1226,1,0,10,4.766619878750327
undo,41,1,0,0,0,0,[0],1,26,"[1, 2, 4, 5, 7, 8, 9, 10, 11, 12, 13, 14, 15, 16, 17, 18, 19, 20, 21, 22, 23, 24, 25, 26, 28, 29]",300,197,-1,6,74,7,0.0
undo,41,1,0,0,0,8,"[0, 8]",2,23,"[1, 4, 5, 7, 9, 10, 11, 12, 13, 14, 15, 16, 17, 18, 19, 20, 21, 23, 24, 25, 26, 28, 29]",202,5842,5645,1,16,7,1.0
undo,41,1,0,0,0,20,"[0, 8, 20]",3,12,"[1, 4, 5, 11, 13, 14, 15, 17, 18, 19, 28, 29]",125.9408125,6525,683,1,7,7,1.02364736730791
undo,41,1,0,0,0,5,"[0, 8, 20, 5]",4,7,"[1, 4, 11, 13, 17, 18, 29]",104.469902,6873,348,1,3,7,1.0439599203945713
undo,41,1,0,0,0,18,"[0, 8, 20, 5, 18]",5,2,"[4, 29]",81.64447755,7220,347,1,1,7,1.0840407791793756
undo,41,1,0,0,0,4,"[0, 8, 20, 5, 18, 4]",6,1,[29],42.69579336,9126,1906,1,0,7,1.0902329133216275
undo,41,1,1,0,0,18,"[0, 8, 20, 5, 18]",5,2,"[4, 29]",81.64447755,11988,2862,1,1,7,1.0840407791793756
undo,41,1,1,0,0,5,"[0, 8, 20, 5]",4,7,"[1, 4, 11, 13, 17, 18, 29]",104.469902,12154,166,1,3,7,1.0439599203945713
undo,41,1,1,0,0,20,"[0, 8, 20]",3,12,"[1, 4, 5, 11, 13, 14, 15, 17, 18, 19, 28, 29]",125.9408125,12322,168,1,7,7,1.02364736730791
undo,41,1,1,0,0,8,"[0, 8]",2,23,"[1, 4, 5, 7, 9, 10, 11, 12, 13, 14, 15, 16, 17, 18, 19, 20, 21, 23, 24, 25, 26, 28, 29]",202,12454,132,1,16,7,1.0
undo,41,1,1,0,0,0,[0],1,26,"[1, 2, 4, 5, 7, 8, 9, 10, 11, 12, 13, 14, 15, 16, 17, 18, 19, 20, 21, 22, 23, 24, 25, 26, 28, 29]",300,12587,133,6,74,7,0.0
undo,41,1,0,0,0,14,"[0, 14]",2,19,"[1, 4, 5, 8, 9, 13, 15, 17, 18, 19, 20, 21, 22, 23, 24, 25, 26, 28, 29]",200.1901808,14257,1670,5,42,7,1.0
undo,41,1,0,0,0,17,"[0, 14, 17]",3,15,"[1, 4, 5, 8, 9, 13, 15, 18, 19, 20, 22, 23, 25, 28, 29]",147.8356204,14996,739,5,27,7,1.0028844724416826
undo,41,1,0,0,0,1,"[0, 14, 17, 1]",4,12,"[4, 5, 8, 9, 15, 18, 20, 22, 23, 25, 28, 29]",123.4840291,16697,1701,5,15,7,1.0264985578353567
undo,41,1,0,0,0,28,"[0, 14, 17, 1, 28]",5,5,"[9, 15, 22, 23, 29]",88.59850198,17898,1201,5,3,7,1.0339861575999345
undo,41,1,0,0,0,15,"[0, 14, 17, 1, 28, 15]",6,3,"[22, 23, 29]",53.37067208,18569,671,3,0,7,1.055553419196412
undo,41,1,0,0,1,22,"[0, 14, 17, 1, 28, 15, 22]",7,0,[],10.09250206,19142,573,1,0,7,1.0469795997475408
undo,41,1,1,0,0,15,"[0, 14, 17, 1, 28, 15]",6,3,"[22, 23, 29]",53.37067208,19866,724,3,0,7,1.055553419196412
undo,41,1,1,0,0,28,"[0, 14, 17, 1, 28]",5,5,"[9, 15, 22, 23, 29]",88.59850198,20281,415,5,3,7,1.0339861575999345
undo,41,1,0,0,0,23,"[0, 14, 17, 1, 28, 23]",6,2,"[15, 22]",51.70676849,20613,332,2,0,7,1.0327458250705703
undo,41,1,0,0,1,15,"[0, 14, 17, 1, 28, 23, 15]",7,0,[],20.81987807,21050,437,1,0,7,1.1948681641401226
undo,41,1,1,0,0,23,"[0, 14, 17, 1, 28, 23]",6,2,"[15, 22]",51.70676849,22246,1196,2,0,7,1.0327458250705703
undo,41,1,1,0,0,28,"[0, 14, 17, 1, 28]",5,5,"[9, 15, 22, 23, 29]",88.59850198,22512,266,5,3,7,1.0339861575999345
undo,41,1,1,0,0,1,"[0, 14, 17, 1]",4,12,"[4, 5, 8, 9, 15, 18, 20, 22, 23, 25, 28, 29]",123.4840291,22746,234,5,15,7,1.0264985578353567
undo,41,1,1,0,0,17,"[0, 14, 17]",3,15,"[1, 4, 5, 8, 9, 13, 15, 18, 19, 20, 22, 23, 25, 28, 29]",147.8356204,22996,250,5,27,7,1.0028844724416826
undo,41,1,0,0,0,20,"[0, 14, 17, 20]",4,5,"[4, 5, 8, 18, 29]",79.42509489,24209,1213,3,3,6,1.2972077151057804
undo,41,1,0,0,0,5,"[0, 14, 17, 20, 5]",5,1,[18],57.95418433,24648,439,1,0,6,1.2923132195161702
undo,41,1,0,0,1,18,"[0, 14, 17, 20, 5, 18]",6,0,[],35.12875991,25070,422,1,0,6,1.3149712096478787
undo,41,1,1,0,0,5,"[0, 14, 17, 20, 5]",5,1,[18],57.95418433,27125,2055,1,0,6,1.2923132195161702
undo,41,1,1,0,0,20,"[0, 14, 17, 20]",4,5,"[4, 5, 8, 18, 29]",79.42509489,27309,184,3,3,6,1.2972077151057804
undo,41,1,1,0,0,17,"[0, 14, 17]",3,15,"[1, 4, 5, 8, 9, 13, 15, 18, 19, 20, 22, 23, 25, 28, 29]",147.8356204,27458,149,5,27,7,1.0028844724416826
undo,41,1,0,0,0,1,"[0, 14, 17, 1]",4,12,"[4, 5, 8, 9, 15, 18, 20, 22, 23, 25, 28, 29]",123.4840291,28322,864,5,15,7,1.0264985578353567
undo,41,1,0,0,0,28,"[0, 14, 17, 1, 28]",5,5,"[9, 15, 22, 23, 29]",88.59850198,29494,1172,5,3,7,1.0339861575999345
undo,41,1,0,0,0,23,"[0, 14, 17, 1, 28, 23]",6,2,"[15, 22]",51.70676849,30066,572,2,0,7,1.0327458250705703
undo,41,1,0,0,1,15,"[0, 14, 17, 1, 28, 23, 15]",7,0,[],20.81987807,30460,394,1,0,7,1.1948681641401226
undo,41,1,0,1,1,15,"[0, 14, 17, 1, 28, 23, 15]",7,0,[],20.81987807,31306,846,1,0,7,1.1948681641401226
undo,42,27,0,0,0,0,[0],1,26,"[1, 3, 5, 6, 7, 8, 9, 10, 11, 12, 13, 14, 15, 16, 17, 18, 19, 21, 22, 23, 24, 25, 26, 27, 28, 29]",300,145,-1,13,578,11,0.0
undo,42,27,0,0,0,17,"[0, 17]",2,20,"[1, 6, 7, 8, 9, 10, 12, 13, 14, 15, 16, 18, 19, 21, 23, 24, 25, 26, 27, 29]",237.9677503,2489,2344,13,326,10,1.0
undo,42,27,1,0,0,0,[0],1,26,"[1, 3, 5, 6, 7, 8, 9, 10, 11, 12, 13, 14, 15, 16, 17, 18, 19, 21, 22, 23, 24, 25, 26, 27, 28, 29]",300,3942,1453,13,578,11,0.0
undo,42,27,0,0,0,15,"[0, 15]",2,24,"[1, 3, 5, 6, 7, 8, 9, 10, 11, 12, 13, 14, 16, 17, 18, 19, 21, 22, 23, 24, 25, 26, 27, 29]",263.7508621,4802,860,6,219,11,1.0
undo,42,27,0,0,0,24,"[0, 15, 24]",3,20,"[1, 5, 6, 7, 8, 9, 10, 12, 13, 14, 16, 17, 18, 19, 21, 23, 25, 26, 27, 29]",246.5462115,5744,942,6,130,11,1.130933077698322
undo,42,27,0,0,0,17,"[0, 15, 24, 17]",4,15,"[1, 6, 8, 10, 12, 13, 14, 16, 18, 19, 23, 25, 26, 27, 29]",229.9932662,6211,467,4,60,11,1.1285538435963374
undo,42,27,0,0,0,12,"[0, 15, 24, 17, 12]",5,14,"[1, 6, 8, 10, 13, 14, 16, 18, 19, 23, 25, 26, 27, 29]",218.8129263,6561,350,2,32,11,1.2561880288755216
undo,42,27,0,0,0,10,"[0, 15, 24, 17, 12, 10]",6,11,"[1, 8, 13, 14, 18, 19, 23, 25, 26, 27, 29]",207.7675653,6910,349,2,28,11,1.2228289337766665
undo,42,27,0,0,0,13,"[0, 15, 24, 17, 12, 10, 13]",7,9,"[1, 8, 14, 18, 19, 23, 26, 27, 29]",167.9178476,7699,789,2,18,11,1.3421291994761178
undo,42,27,0,0,0,19,"[0, 15, 24, 17, 12, 10, 13, 19]",8,5,"[1, 8, 14, 23, 29]",131.6825057,8375,676,2,6,11,1.294749956153846
undo,42,27,0,0,0,8,"[0, 15, 24, 17, 12, 10, 13, 19, 8]",9,3,"[14, 23, 29]",116.816437,9456,1081,2,1,11,1.3554286578836865
undo,42,27,0,0,0,29,"[0, 15, 24, 17, 12, 10, 13, 19, 8, 29]",10,1,[14],57.61339652,12063,2607,1,0,11,1.248354519573802
undo,42,27,0,0,1,14,"[0, 15, 24, 17, 12, 10, 13, 19, 8, 29, 14]",11,0,[],13.31892734,12755,692,1,0,11,1.562811097555156
undo,42,27,0,1,1,14,"[0, 15, 24, 17, 12, 10, 13, 19, 8, 29, 14]",11,0,[],13.31892734,19046,6291,1,0,11,1.562811097555156
undo,43,17,0,0,0,0,[0],1,28,"[1, 2, 3, 4, 5, 6, 7, 8, 9, 10, 11, 12, 13, 14, 15, 16, 17, 18, 19, 20, 22, 23, 24, 25, 26, 27, 28, 29]",300,147,-1,2,73,8,0.0
undo,43,17,0,0,0,9,"[0, 9]",2,25,"[1, 2, 3, 5, 6, 7, 8, 10, 11, 12, 14, 15, 16, 17, 18, 19, 20, 22, 23, 24, 25, 26, 27, 28, 29]",210.5293344,19805,19658,1,34,8,1.0
undo,43,17,0,0,0,16,"[0, 9, 16]",3,21,"[1, 2, 3, 5, 7, 8, 10, 11, 12, 14, 17, 18, 19, 20, 22, 23, 25, 26, 27, 28, 29]",197.1876704,20205,400,1,26,8,1.173103464220352
undo,43,17,0,0,0,2,"[0, 9, 16, 2]",4,18,"[1, 3, 5, 7, 8, 10, 11, 12, 14, 17, 18, 19, 23, 25, 26, 27, 28, 29]",181.0631549,21159,954,1,23,8,1.14825089247282
undo,43,17,0,0,0,17,"[0, 9, 16, 2, 17]",5,7,"[7, 8, 12, 14, 26, 27, 29]",142.7356191,21705,546,4,5,7,1.4896040699768547
undo,43,17,0,0,0,8,"[0, 9, 16, 2, 17, 8]",6,3,"[7, 12, 27]",104.5256727,22254,549,3,0,7,1.4604726966175894
undo,43,17,0,0,1,27,"[0, 9, 16, 2, 17, 8, 27]",7,0,[],21.88790895,24415,2161,1,0,7,1.2949460667276491
undo,43,17,1,0,0,8,"[0, 9, 16, 2, 17, 8]",6,3,"[7, 12, 27]",104.5256727,26725,2310,3,0,7,1.4604726966175894
undo,43,17,1,0,0,17,"[0, 9, 16, 2, 17]",5,7,"[7, 8, 12, 14, 26, 27, 29]",142.7356191,26892,167,4,5,7,1.4896040699768547
undo,43,17,0,0,0,8,"[0, 9, 16, 2, 17, 8]",6,3,"[7, 12, 27]",104.5256727,28061,1169,3,0,7,1.4604726966175894
undo,43,17,0,0,1,7,"[0, 9, 16, 2, 17, 8, 7]",7,0,[],33.81499459,29056,995,1,0,7,1.4474701869793896
undo,43,17,1,0,0,8,"[0, 9, 16, 2, 17, 8]",6,3,"[7, 12, 27]",104.5256727,29823,767,3,0,7,1.4604726966175894
undo,43,17,1,0,0,17,"[0, 9, 16, 2, 17]",5,7,"[7, 8, 12, 14, 26, 27, 29]",142.7356191,30023,200,4,5,7,1.4896040699768547
undo,43,17,1,0,0,2,"[0, 9, 16, 2]",4,18,"[1, 3, 5, 7, 8, 10, 11, 12, 14, 17, 18, 19, 23, 25, 26, 27, 28, 29]",181.0631549,30272,249,1,23,8,1.14825089247282
undo,43,17,1,0,0,16,"[0, 9, 16]",3,21,"[1, 2, 3, 5, 7, 8, 10, 11, 12, 14, 17, 18, 19, 20, 22, 23, 25, 26, 27, 28, 29]",197.1876704,30905,633,1,26,8,1.173103464220352
undo,43,17,1,0,0,9,"[0, 9]",2,25,"[1, 2, 3, 5, 6, 7, 8, 10, 11, 12, 14, 15, 16, 17, 18, 19, 20, 22, 23, 24, 25, 26, 27, 28, 29]",210.5293344,31305,400,1,34,8,1.0
undo,43,17,0,0,0,16,"[0, 9, 16]",3,21,"[1, 2, 3, 5, 7, 8, 10, 11, 12, 14, 17, 18, 19, 20, 22, 23, 25, 26, 27, 28, 29]",197.1876704,32430,1125,1,26,8,1.173103464220352
undo,43,17,0,0,0,2,"[0, 9, 16, 2]",4,18,"[1, 3, 5, 7, 8, 10, 11, 12, 14, 17, 18, 19, 23, 25, 26, 27, 28, 29]",181.0631549,32757,327,1,23,8,1.14825089247282
undo,43,17,0,0,0,10,"[0, 9, 16, 2, 10]",5,4,"[3, 11, 23, 28]",71.04042993,33489,732,3,2,7,1.2629477265421833
undo,43,17,0,0,0,11,"[0, 9, 16, 2, 10, 11]",6,1,[3],49.08593153,33876,387,1,0,7,1.2370659942349713
undo,43,17,0,0,1,3,"[0, 9, 16, 2, 10, 11, 3]",7,0,[],22.91342687,34260,384,1,0,7,1.4627126127553682
undo,43,17,1,0,0,11,"[0, 9, 16, 2, 10, 11]",6,1,[3],49.08593153,36034,1774,1,0,7,1.2370659942349713
undo,43,17,1,0,0,10,"[0, 9, 16, 2, 10]",5,4,"[3, 11, 23, 28]",71.04042993,36301,267,3,2,7,1.2629477265421833
undo,43,17,0,0,0,3,"[0, 9, 16, 2, 10, 3]",6,2,"[11, 28]",44.41337602,36974,673,2,0,7,1.349216507765288
undo,43,17,0,0,1,28,"[0, 9, 16, 2, 10, 3, 28]",7,0,[],10.41337602,37669,695,1,0,7,1.3953915984988103
undo,43,17,1,0,0,3,"[0, 9, 16, 2, 10, 3]",6,2,"[11, 28]",44.41337602,38299,630,2,0,7,1.349216507765288
undo,43,17,1,0,0,10,"[0, 9, 16, 2, 10]",5,4,"[3, 11, 23, 28]",71.04042993,38499,200,3,2,7,1.2629477265421833
undo,43,17,1,0,0,2,"[0, 9, 16, 2]",4,18,"[1, 3, 5, 7, 8, 10, 11, 12, 14, 17, 18, 19, 23, 25, 26, 27, 28, 29]",181.0631549,38716,217,1,23,8,1.14825089247282
undo,43,17,0,0,0,8,"[0, 9, 16, 2, 8]",5,9,"[3, 7, 10, 11, 12, 14, 17, 26, 27]",145.9490551,40730,2014,1,9,8,1.1509808066472915
undo,43,17,0,0,0,27,"[0, 9, 16, 2, 8, 27]",6,3,"[7, 12, 26]",63.31129136,41443,713,1,2,8,1.1020704318716983
undo,43,17,0,0,0,12,"[0, 9, 16, 2, 8, 27, 12]",7,1,[26],40.31129136,41906,463,1,0,8,1.094321365620665
undo,43,17,0,0,1,26,"[0, 9, 16, 2, 8, 27, 12, 26]",8,0,[],5.197191627,43304,1398,1,0,8,1.2018360298670372
undo,43,17,0,1,1,26,"[0, 9, 16, 2, 8, 27, 12, 26]",8,0,[],5.197191627,46875,3571,1,0,8,1.2018360298670372
undo,44,38,0,0,0,0,[0],1,29,"[1, 2, 3, 4, 5, 6, 7, 8, 9, 10, 11, 12, 13, 14, 15, 16, 17, 18, 19, 20, 21, 22, 23, 24, 25, 26, 27, 28, 29]",300,166,-1,33,506,9,0.0
undo,44,38,0,0,0,11,"[0, 11]",2,23,"[1, 2, 3, 4, 5, 7, 10, 12, 13, 14, 15, 16, 17, 18, 19, 20, 21, 22, 24, 25, 26, 27, 28]",220.093805,11126,10960,2,40,9,1.0
undo,44,38,0,0,0,28,"[0, 11, 28]",3,16,"[1, 4, 5, 7, 10, 12, 13, 14, 15, 16, 17, 19, 20, 21, 24, 26]",193.0752928,11534,408,2,20,9,1.0012220945316377
undo,44,38,0,0,0,16,"[0, 11, 28, 16]",4,13,"[1, 4, 5, 10, 12, 13, 14, 15, 17, 19, 20, 24, 26]",164.0752928,12361,827,2,16,9,1.2422672958602723
undo,44,38,0,0,0,15,"[0, 11, 28, 16, 15]",5,9,"[4, 5, 13, 14, 17, 19, 20, 24, 26]",122.4579887,12941,580,2,14,9,2.4196280466601676
undo,44,38,0,0,0,4,"[0, 11, 28, 16, 15, 4]",6,6,"[13, 17, 19, 20, 24, 26]",96.45798873,13395,454,2,9,9,2.9030072771852855
undo,44,38,0,0,0,20,"[0, 11, 28, 16, 15, 4, 20]",7,3,"[13, 17, 19]",62.51686323,13824,429,1,2,9,4.409951139385221
undo,44,38,0,0,0,17,"[0, 11, 28, 16, 15, 4, 20, 17]",8,1,[19],38.74713459,14285,461,1,0,9,4.030739410625113
undo,44,38,0,0,1,19,"[0, 11, 28, 16, 15, 4, 20, 17, 19]",9,0,[],17.36957626,14628,343,1,0,9,3.511004666623391
undo,44,38,1,0,0,17,"[0, 11, 28, 16, 15, 4, 20, 17]",8,1,[19],38.74713459,16619,1991,1,0,9,4.030739410625113
undo,44,38,1,0,0,20,"[0, 11, 28, 16, 15, 4, 20]",7,3,"[13, 17, 19]",62.51686323,16802,183,1,2,9,4.409951139385221
undo,44,38,1,0,0,4,"[0, 11, 28, 16, 15, 4]",6,6,"[13, 17, 19, 20, 24, 26]",96.45798873,16952,150,2,9,9,2.9030072771852855
undo,44,38,1,0,0,15,"[0, 11, 28, 16, 15]",5,9,"[4, 5, 13, 14, 17, 19, 20, 24, 26]",122.4579887,17069,117,2,14,9,2.4196280466601676
undo,44,38,1,0,0,16,"[0, 11, 28, 16]",4,13,"[1, 4, 5, 10, 12, 13, 14, 15, 17, 19, 20, 24, 26]",164.0752928,17218,149,2,16,9,1.2422672958602723
undo,44,38,1,0,0,28,"[0, 11, 28]",3,16,"[1, 4, 5, 7, 10, 12, 13, 14, 15, 16, 17, 19, 20, 21, 24, 26]",193.0752928,17352,134,2,20,9,1.0012220945316377
undo,44,38,1,0,0,11,"[0, 11]",2,23,"[1, 2, 3, 4, 5, 7, 10, 12, 13, 14, 15, 16, 17, 18, 19, 20, 21, 22, 24, 25, 26, 27, 28]",220.093805,17669,317,2,40,9,1.0
undo,44,38,1,0,0,0,[0],1,29,"[1, 2, 3, 4, 5, 6, 7, 8, 9, 10, 11, 12, 13, 14, 15, 16, 17, 18, 19, 20, 21, 22, 23, 24, 25, 26, 27, 28, 29]",300,17885,216,33,506,9,0.0
undo,44,38,0,0,0,19,"[0, 19]",2,23,"[3, 4, 5, 6, 7, 8, 9, 11, 13, 14, 15, 16, 17, 18, 20, 22, 23, 24, 25, 26, 27, 28, 29]",219.5015528,18488,603,6,61,9,1.0
undo,44,38,0,0,0,17,"[0, 19, 17]",3,21,"[3, 4, 5, 6, 7, 9, 11, 13, 14, 15, 16, 18, 20, 22, 23, 24, 25, 26, 27, 28, 29]",198.1239945,18847,359,6,53,9,1.571793785769489
undo,44,38,0,0,0,24,"[0, 19, 17, 24]",4,2,"[13, 26]",75.34777529,20074,1227,1,1,6,1.4474425587427726
undo,44,38,0,0,0,26,"[0, 19, 17, 24, 26]",5,1,[13],44.54193169,20737,663,1,0,6,2.0291071938368717
undo,44,38,0,0,1,13,"[0, 19, 17, 24, 26, 13]",6,0,[],13.49358229,21130,393,1,0,6,2.9311749202184836
undo,44,38,1,0,0,26,"[0, 19, 17, 24, 26]",5,1,[13],44.54193169,22298,1168,1,0,6,2.0291071938368717
undo,44,38,1,0,0,24,"[0, 19, 17, 24]",4,2,"[13, 26]",75.34777529,22431,133,1,1,6,1.4474425587427726
undo,44,38,1,0,0,17,"[0, 19, 17]",3,21,"[3, 4, 5, 6, 7, 9, 11, 13, 14, 15, 16, 18, 20, 22, 23, 24, 25, 26, 27, 28, 29]",198.1239945,22597,166,6,53,9,1.571793785769489
undo,44,38,1,0,0,19,"[0, 19]",2,23,"[3, 4, 5, 6, 7, 8, 9, 11, 13, 14, 15, 16, 17, 18, 20, 22, 23, 24, 25, 26, 27, 28, 29]",219.5015528,22731,134,6,61,9,1.0
undo,44,38,0,0,0,17,"[0, 19, 17]",3,21,"[3, 4, 5, 6, 7, 9, 11, 13, 14, 15, 16, 18, 20, 22, 23, 24, 25, 26, 27, 28, 29]",198.1239945,24217,1486,6,53,9,1.571793785769489
