condition,trial_id,map_id,undoIndicator,submit,checkEnd,currentChoice,chosen_all,n_city_all,n_within_reach,cities_reach,currentBudget,time_all,rt_all,n_opt_paths_all,n_subopt_paths_all,mas_all,tortuosity_all
undo,0,14,0,0,0,0,[0],1,29,"[1, 2, 3, 4, 5, 6, 7, 8, 9, 10, 11, 12, 13, 14, 15, 16, 17, 18, 19, 20, 21, 22, 23, 24, 25, 26, 27, 28, 29]",300,272,-1,8,157,10,0.0
undo,0,14,0,0,0,15,"[0, 15]",2,20,"[1, 2, 3, 4, 7, 8, 9, 13, 17, 18, 19, 20, 21, 22, 23, 25, 26, 27, 28, 29]",216.7053423,8806,8534,8,102,10,1.0
undo,0,14,0,0,0,28,"[0, 15, 28]",3,17,"[1, 2, 3, 4, 7, 8, 9, 13, 17, 18, 19, 20, 22, 23, 25, 26, 27]",197.4959696,10200,1394,8,48,10,1.0446007867311968
undo,0,14,0,0,0,17,"[0, 15, 28, 17]",4,14,"[1, 2, 3, 4, 7, 8, 13, 18, 19, 20, 22, 23, 25, 26]",184.0423455,11086,886,8,39,10,1.0729463354689972
undo,0,14,0,0,0,18,"[0, 15, 28, 17, 18]",5,9,"[1, 2, 4, 7, 8, 19, 23, 25, 26]",119.412631,12395,1309,8,27,10,1.5035901079219378
undo,0,14,0,0,0,8,"[0, 15, 28, 17, 18, 8]",6,8,"[1, 2, 4, 7, 19, 23, 25, 26]",105.8111605,13249,854,8,18,10,1.4819689987843856
undo,0,14,0,0,0,19,"[0, 15, 28, 17, 18, 8, 19]",7,5,"[1, 7, 23, 25, 26]",85.19563238,14965,1716,4,9,10,1.4526746797093781
undo,0,14,0,0,0,25,"[0, 15, 28, 17, 18, 8, 19, 25]",8,4,"[1, 7, 23, 26]",49.34873573,22485,7520,1,3,10,1.5313248571613565
undo,0,14,0,0,0,23,"[0, 15, 28, 17, 18, 8, 19, 25, 23]",9,1,[26],19.93785339,26614,4129,1,0,10,1.4899241394052571
undo,0,14,0,0,1,26,"[0, 15, 28, 17, 18, 8, 19, 25, 23, 26]",10,0,[],9.12119956,28667,2053,1,0,10,1.4661334152583665
undo,0,14,0,1,1,26,"[0, 15, 28, 17, 18, 8, 19, 25, 23, 26]",10,0,[],9.12119956,37823,9156,1,0,10,1.4661334152583665
undo,1,27,0,0,0,0,[0],1,26,"[1, 3, 5, 6, 7, 8, 9, 10, 11, 12, 13, 14, 15, 16, 17, 18, 19, 21, 22, 23, 24, 25, 26, 27, 28, 29]",300,163,-1,13,578,11,0.0
undo,1,27,0,0,0,15,"[0, 15]",2,24,"[1, 3, 5, 6, 7, 8, 9, 10, 11, 12, 13, 14, 16, 17, 18, 19, 21, 22, 23, 24, 25, 26, 27, 29]",263.7508621,16719,16556,6,219,11,1.0
undo,1,27,0,0,0,24,"[0, 15, 24]",3,20,"[1, 5, 6, 7, 8, 9, 10, 12, 13, 14, 16, 17, 18, 19, 21, 23, 25, 26, 27, 29]",246.5462115,17985,1266,6,130,11,1.130933077698322
undo,1,27,0,0,0,17,"[0, 15, 24, 17]",4,15,"[1, 6, 8, 10, 12, 13, 14, 16, 18, 19, 23, 25, 26, 27, 29]",229.9932662,19185,1200,4,60,11,1.1285538435963374
undo,1,27,0,0,0,12,"[0, 15, 24, 17, 12]",5,14,"[1, 6, 8, 10, 13, 14, 16, 18, 19, 23, 25, 26, 27, 29]",218.8129263,19732,547,2,32,11,1.2561880288755216
undo,1,27,0,0,0,10,"[0, 15, 24, 17, 12, 10]",6,11,"[1, 8, 13, 14, 18, 19, 23, 25, 26, 27, 29]",207.7675653,20721,989,2,28,11,1.2228289337766665
undo,1,27,0,0,0,13,"[0, 15, 24, 17, 12, 10, 13]",7,9,"[1, 8, 14, 18, 19, 23, 26, 27, 29]",167.9178476,22986,2265,2,18,11,1.3421291994761178
undo,1,27,0,0,0,19,"[0, 15, 24, 17, 12, 10, 13, 19]",8,5,"[1, 8, 14, 23, 29]",131.6825057,25202,2216,2,6,11,1.294749956153846
undo,1,27,0,0,0,8,"[0, 15, 24, 17, 12, 10, 13, 19, 8]",9,3,"[14, 23, 29]",116.816437,26302,1100,2,1,11,1.3554286578836865
undo,1,27,0,0,0,29,"[0, 15, 24, 17, 12, 10, 13, 19, 8, 29]",10,1,[14],57.61339652,29875,3573,1,0,11,1.248354519573802
undo,1,27,0,0,1,14,"[0, 15, 24, 17, 12, 10, 13, 19, 8, 29, 14]",11,0,[],13.31892734,33039,3164,1,0,11,1.562811097555156
undo,1,27,0,1,1,14,"[0, 15, 24, 17, 12, 10, 13, 19, 8, 29, 14]",11,0,[],13.31892734,37175,4136,1,0,11,1.562811097555156
undo,2,22,0,0,0,0,[0],1,29,"[1, 2, 3, 4, 5, 6, 7, 8, 9, 10, 11, 12, 13, 14, 15, 16, 17, 18, 19, 20, 21, 22, 23, 24, 25, 26, 27, 28, 29]",300,162,-1,31,704,9,0.0
undo,2,22,0,0,0,16,"[0, 16]",2,21,"[1, 3, 6, 7, 8, 9, 11, 13, 14, 15, 17, 18, 19, 20, 21, 22, 24, 25, 27, 28, 29]",218.605897,6314,6152,17,147,9,1.0
undo,2,22,0,0,0,28,"[0, 16, 28]",3,13,"[6, 7, 9, 13, 14, 17, 19, 20, 21, 22, 24, 25, 29]",184.1675463,7321,1007,12,61,9,1.047282311284478
undo,2,22,0,0,0,6,"[0, 16, 28, 6]",4,12,"[7, 9, 13, 14, 17, 19, 20, 21, 22, 24, 25, 29]",154.1675463,8652,1331,12,43,9,1.645645870580622
undo,2,22,0,0,0,29,"[0, 16, 28, 6, 29]",5,9,"[7, 9, 13, 14, 17, 19, 20, 21, 24]",96.29700112,15349,6697,2,4,9,2.64527042238385
undo,2,22,0,0,0,19,"[0, 16, 28, 6, 29, 19]",6,4,"[7, 9, 14, 24]",81.26370474,16164,815,2,2,9,2.747111096987313
undo,2,22,0,0,0,9,"[0, 16, 28, 6, 29, 19, 9]",7,2,"[7, 14]",60.86762669,17169,1005,2,0,9,2.6702454883753064
undo,2,22,0,0,0,14,"[0, 16, 28, 6, 29, 19, 9, 14]",8,1,[7],17.82114019,19157,1988,1,0,9,2.1782892870517085
undo,2,22,0,0,1,7,"[0, 16, 28, 6, 29, 19, 9, 14, 7]",9,0,[],4.782735376,20623,1466,1,0,9,2.3473599721224465
undo,2,22,1,0,0,14,"[0, 16, 28, 6, 29, 19, 9, 14]",8,1,[7],17.82114019,31877,11254,1,0,9,2.1782892870517085
undo,2,22,1,0,0,9,"[0, 16, 28, 6, 29, 19, 9]",7,2,"[7, 14]",60.86762669,32093,216,2,0,9,2.6702454883753064
undo,2,22,1,0,0,19,"[0, 16, 28, 6, 29, 19]",6,4,"[7, 9, 14, 24]",81.26370474,32277,184,2,2,9,2.747111096987313
undo,2,22,1,0,0,29,"[0, 16, 28, 6, 29]",5,9,"[7, 9, 13, 14, 17, 19, 20, 21, 24]",96.29700112,32509,232,2,4,9,2.64527042238385
undo,2,22,1,0,0,6,"[0, 16, 28, 6]",4,12,"[7, 9, 13, 14, 17, 19, 20, 21, 22, 24, 25, 29]",154.1675463,32993,484,12,43,9,1.645645870580622
undo,2,22,1,0,0,28,"[0, 16, 28]",3,13,"[6, 7, 9, 13, 14, 17, 19, 20, 21, 22, 24, 25, 29]",184.1675463,33343,350,12,61,9,1.047282311284478
undo,2,22,1,0,0,16,"[0, 16]",2,21,"[1, 3, 6, 7, 8, 9, 11, 13, 14, 15, 17, 18, 19, 20, 21, 22, 24, 25, 27, 28, 29]",218.605897,33726,383,17,147,9,1.0
undo,2,22,1,0,0,0,[0],1,29,"[1, 2, 3, 4, 5, 6, 7, 8, 9, 10, 11, 12, 13, 14, 15, 16, 17, 18, 19, 20, 21, 22, 23, 24, 25, 26, 27, 28, 29]",300,34143,417,31,704,9,0.0
undo,2,22,0,0,0,13,"[0, 13]",2,22,"[1, 3, 5, 6, 7, 8, 9, 10, 12, 14, 15, 16, 17, 19, 20, 21, 23, 24, 25, 26, 28, 29]",189.3202819,38075,3932,2,52,8,1.0
undo,2,22,0,0,0,15,"[0, 13, 15]",3,17,"[1, 3, 5, 6, 7, 8, 9, 10, 14, 17, 19, 20, 21, 23, 24, 26, 29]",173.7639327,38935,860,2,40,8,1.001747361505262
undo,2,22,0,0,0,8,"[0, 13, 15, 8]",4,12,"[1, 3, 5, 10, 17, 19, 20, 21, 23, 24, 26, 29]",146.5609917,39941,1006,1,14,8,1.009379786590907
undo,2,22,0,0,0,23,"[0, 13, 15, 8, 23]",5,7,"[1, 3, 5, 10, 20, 21, 24]",113.3194514,41389,1448,4,5,7,1.0105022544955353
undo,2,22,0,0,0,20,"[0, 13, 15, 8, 23, 20]",6,2,"[3, 24]",42.91348576,42836,1447,2,0,7,1.7719572736852243
undo,2,22,0,0,1,24,"[0, 13, 15, 8, 23, 20, 24]",7,0,[],5.257144989,43759,923,1,0,7,2.1973718914227853
undo,2,22,1,0,0,20,"[0, 13, 15, 8, 23, 20]",6,2,"[3, 24]",42.91348576,46143,2384,2,0,7,1.7719572736852243
undo,2,22,1,0,0,23,"[0, 13, 15, 8, 23]",5,7,"[1, 3, 5, 10, 20, 21, 24]",113.3194514,46309,166,4,5,7,1.0105022544955353
undo,2,22,1,0,0,8,"[0, 13, 15, 8]",4,12,"[1, 3, 5, 10, 17, 19, 20, 21, 23, 24, 26, 29]",146.5609917,46476,167,1,14,8,1.009379786590907
undo,2,22,1,0,0,15,"[0, 13, 15]",3,17,"[1, 3, 5, 6, 7, 8, 9, 10, 14, 17, 19, 20, 21, 23, 24, 26, 29]",173.7639327,46659,183,2,40,8,1.001747361505262
undo,2,22,1,0,0,13,"[0, 13]",2,22,"[1, 3, 5, 6, 7, 8, 9, 10, 12, 14, 15, 16, 17, 19, 20, 21, 23, 24, 25, 26, 28, 29]",189.3202819,46826,167,2,52,8,1.0
undo,2,22,1,0,0,0,[0],1,29,"[1, 2, 3, 4, 5, 6, 7, 8, 9, 10, 11, 12, 13, 14, 15, 16, 17, 18, 19, 20, 21, 22, 23, 24, 25, 26, 27, 28, 29]",300,47259,433,31,704,9,0.0
undo,2,22,0,0,0,16,"[0, 16]",2,21,"[1, 3, 6, 7, 8, 9, 11, 13, 14, 15, 17, 18, 19, 20, 21, 22, 24, 25, 27, 28, 29]",218.605897,49903,2644,17,147,9,1.0
undo,2,22,0,0,0,28,"[0, 16, 28]",3,13,"[6, 7, 9, 13, 14, 17, 19, 20, 21, 22, 24, 25, 29]",184.1675463,50736,833,12,61,9,1.047282311284478
undo,2,22,0,0,0,6,"[0, 16, 28, 6]",4,12,"[7, 9, 13, 14, 17, 19, 20, 21, 22, 24, 25, 29]",154.1675463,51989,1253,12,43,9,1.645645870580622
undo,2,22,0,0,0,9,"[0, 16, 28, 6, 9]",5,8,"[7, 14, 17, 19, 20, 21, 24, 29]",127.5404924,53336,1347,8,17,9,1.925750226630103
undo,2,22,0,0,0,19,"[0, 16, 28, 6, 9, 19]",6,6,"[7, 14, 17, 21, 24, 29]",107.1444143,54425,1089,3,7,9,2.4220750331476455
undo,2,22,0,0,0,29,"[0, 16, 28, 6, 9, 19, 29]",7,4,"[7, 14, 17, 24]",92.11111796,55489,1064,2,2,9,2.6996279574991067
undo,2,22,0,0,0,14,"[0, 16, 28, 6, 9, 19, 29, 14]",8,1,[7],33.86165444,57260,1771,1,0,9,2.0544639927929462
undo,2,22,0,0,1,7,"[0, 16, 28, 6, 9, 19, 29, 14, 7]",9,0,[],20.82324963,58603,1343,1,0,9,2.219817088951114
undo,2,22,0,1,1,7,"[0, 16, 28, 6, 9, 19, 29, 14, 7]",9,0,[],20.82324963,60876,2273,1,0,9,2.219817088951114
undo,3,7,0,0,0,0,[0],1,29,"[1, 2, 3, 4, 5, 6, 7, 8, 9, 10, 11, 12, 13, 14, 15, 16, 17, 18, 19, 20, 21, 22, 23, 24, 25, 26, 27, 28, 29]",300,173,-1,3,79,9,0.0
undo,3,7,0,0,0,15,"[0, 15]",2,19,"[2, 4, 5, 6, 7, 8, 9, 10, 13, 14, 16, 18, 19, 20, 21, 23, 25, 27, 28]",230.9348134,10286,10113,2,38,9,1.0
undo,3,7,0,0,0,6,"[0, 15, 6]",3,18,"[2, 4, 5, 7, 8, 9, 10, 13, 14, 16, 18, 19, 20, 21, 23, 25, 27, 28]",205.854941,11066,780,2,36,9,1.366719602896943
undo,3,7,0,0,0,25,"[0, 15, 6, 25]",4,11,"[2, 4, 7, 13, 14, 16, 18, 19, 20, 21, 23]",138.6760753,13729,2663,2,28,9,1.3624631728355765
undo,3,7,0,0,0,4,"[0, 15, 6, 25, 4]",5,7,"[2, 7, 13, 16, 18, 19, 20]",113.9374415,14602,873,2,12,9,1.3249684384385587
undo,3,7,0,0,0,20,"[0, 15, 6, 25, 4, 20]",6,5,"[2, 7, 13, 18, 19]",94.29055881,15948,1346,1,6,9,1.3721893242679268
undo,3,7,0,0,0,18,"[0, 15, 6, 25, 4, 20, 18]",7,3,"[7, 13, 19]",81.48431034,16720,772,1,2,9,1.5262542308371432
undo,3,7,0,0,0,7,"[0, 15, 6, 25, 4, 20, 18, 7]",8,1,[19],40.25325408,18801,2081,1,0,9,1.41986878673423
undo,3,7,0,0,1,19,"[0, 15, 6, 25, 4, 20, 18, 7, 19]",9,0,[],10.84237174,19866,1065,1,0,9,1.5285658163212987
undo,3,7,0,1,1,19,"[0, 15, 6, 25, 4, 20, 18, 7, 19]",9,0,[],10.84237174,26158,6292,1,0,9,1.5285658163212987
undo,4,43,0,0,0,0,[0],1,23,"[1, 2, 3, 4, 5, 6, 7, 9, 10, 11, 12, 14, 15, 16, 17, 19, 20, 21, 22, 23, 25, 27, 29]",300,172,-1,16,556,12,0.0
undo,4,43,0,0,0,25,"[0, 25]",2,19,"[1, 2, 3, 4, 5, 6, 7, 9, 11, 12, 14, 15, 16, 19, 20, 21, 22, 23, 29]",220.6904798,13504,13332,8,323,10,1.0
undo,4,43,0,0,0,15,"[0, 25, 15]",3,18,"[1, 2, 3, 4, 5, 6, 7, 9, 11, 12, 14, 16, 19, 20, 21, 22, 23, 29]",198.0189117,14656,1152,8,141,10,1.233441666901354
undo,4,43,0,0,0,12,"[0, 25, 15, 12]",4,15,"[1, 2, 3, 4, 6, 7, 9, 11, 14, 16, 19, 20, 22, 23, 29]",178.7057038,15633,977,8,95,10,1.226948769754925
undo,4,43,0,0,0,3,"[0, 25, 15, 12, 3]",5,14,"[1, 2, 4, 6, 7, 9, 11, 14, 16, 19, 20, 22, 23, 29]",165.7057038,17150,1517,8,83,10,1.2055123857330492
undo,4,43,0,0,0,22,"[0, 25, 15, 12, 3, 22]",6,12,"[1, 4, 6, 7, 9, 11, 14, 16, 19, 20, 23, 29]",130.9925938,18267,1117,5,39,10,1.417031808359187
undo,4,43,0,0,0,19,"[0, 25, 15, 12, 3, 22, 19]",7,8,"[1, 4, 6, 7, 11, 14, 16, 23]",110.3770657,19417,1150,3,10,10,1.3649357481232487
undo,4,43,0,0,0,1,"[0, 25, 15, 12, 3, 22, 19, 1]",8,5,"[4, 6, 7, 11, 14]",82.1990601,21534,2117,3,3,10,1.513017373431623
undo,4,43,0,0,0,6,"[0, 25, 15, 12, 3, 22, 19, 1, 6]",9,2,"[11, 14]",33.92898656,24199,2665,2,0,10,2.4124557608058166
undo,4,43,0,0,1,11,"[0, 25, 15, 12, 3, 22, 19, 1, 6, 11]",10,0,[],13.31345843,25937,1738,1,0,10,3.1504015557142853
undo,4,43,1,0,0,6,"[0, 25, 15, 12, 3, 22, 19, 1, 6]",9,2,"[11, 14]",33.92898656,32057,6120,2,0,10,2.4124557608058166
undo,4,43,1,0,0,1,"[0, 25, 15, 12, 3, 22, 19, 1]",8,5,"[4, 6, 7, 11, 14]",82.1990601,32257,200,3,3,10,1.513017373431623
undo,4,43,1,0,0,19,"[0, 25, 15, 12, 3, 22, 19]",7,8,"[1, 4, 6, 7, 11, 14, 16, 23]",110.3770657,32475,218,3,10,10,1.3649357481232487
undo,4,43,1,0,0,22,"[0, 25, 15, 12, 3, 22]",6,12,"[1, 4, 6, 7, 9, 11, 14, 16, 19, 20, 23, 29]",130.9925938,32657,182,5,39,10,1.417031808359187
undo,4,43,1,0,0,3,"[0, 25, 15, 12, 3]",5,14,"[1, 2, 4, 6, 7, 9, 11, 14, 16, 19, 20, 22, 23, 29]",165.7057038,32857,200,8,83,10,1.2055123857330492
undo,4,43,1,0,0,12,"[0, 25, 15, 12]",4,15,"[1, 2, 3, 4, 6, 7, 9, 11, 14, 16, 19, 20, 22, 23, 29]",178.7057038,33125,268,8,95,10,1.226948769754925
undo,4,43,1,0,0,15,"[0, 25, 15]",3,18,"[1, 2, 3, 4, 5, 6, 7, 9, 11, 12, 14, 16, 19, 20, 21, 22, 23, 29]",198.0189117,33442,317,8,141,10,1.233441666901354
undo,4,43,1,0,0,25,"[0, 25]",2,19,"[1, 2, 3, 4, 5, 6, 7, 9, 11, 12, 14, 15, 16, 19, 20, 21, 22, 23, 29]",220.6904798,33827,385,8,323,10,1.0
undo,4,43,1,0,0,0,[0],1,23,"[1, 2, 3, 4, 5, 6, 7, 9, 10, 11, 12, 14, 15, 16, 17, 19, 20, 21, 22, 23, 25, 27, 29]",300,34225,398,16,556,12,0.0
undo,4,43,0,0,0,29,"[0, 29]",2,22,"[1, 2, 3, 4, 5, 6, 7, 9, 10, 11, 12, 14, 15, 16, 17, 19, 20, 21, 22, 23, 25, 27]",277.909278,37217,2992,16,520,12,1.0
undo,4,43,0,0,0,20,"[0, 29, 20]",3,20,"[1, 2, 3, 4, 6, 7, 9, 10, 11, 12, 14, 15, 16, 17, 19, 21, 22, 23, 25, 27]",254.4785289,42084,4867,15,422,12,1.082311746871282
undo,4,43,0,0,0,16,"[0, 29, 20, 16]",4,19,"[1, 2, 3, 4, 6, 7, 9, 10, 11, 12, 14, 15, 17, 19, 21, 22, 23, 25, 27]",231.8511119,44217,2133,15,389,12,1.215201926898219
undo,4,43,0,0,0,15,"[0, 29, 20, 16, 15]",5,14,"[1, 2, 3, 4, 6, 7, 9, 11, 12, 14, 19, 22, 23, 25]",188.5267539,48599,4382,3,109,12,1.3482474915350444
undo,4,43,0,0,0,25,"[0, 29, 20, 16, 15, 25]",6,12,"[1, 3, 4, 6, 7, 9, 11, 12, 14, 19, 22, 23]",165.8551858,49838,1239,2,43,12,1.691408721191545
undo,4,43,0,0,0,12,"[0, 29, 20, 16, 15, 25, 12]",7,11,"[1, 3, 4, 6, 7, 9, 11, 14, 19, 22, 23]",141.6684126,51417,1579,2,32,12,1.6015983641428178
undo,4,43,0,0,0,3,"[0, 29, 20, 16, 15, 25, 12, 3]",8,10,"[1, 4, 6, 7, 9, 11, 14, 19, 22, 23]",128.6684126,53234,1817,2,24,12,1.5379830456120627
undo,4,43,0,0,0,22,"[0, 29, 20, 16, 15, 25, 12, 3, 22]",9,6,"[1, 6, 7, 11, 14, 19]",93.95530264,54652,1418,1,11,12,1.7275686117408873
undo,4,43,0,0,0,11,"[0, 29, 20, 16, 15, 25, 12, 3, 22, 11]",10,2,"[6, 14]",47.89013141,58815,4163,2,0,11,2.7704381163736262
undo,4,43,0,0,1,6,"[0, 29, 20, 16, 15, 25, 12, 3, 22, 11, 6]",11,0,[],27.27460328,60066,1251,1,0,11,2.472790800955036
undo,4,43,0,1,1,6,"[0, 29, 20, 16, 15, 25, 12, 3, 22, 11, 6]",11,0,[],27.27460328,65844,5778,1,0,11,2.472790800955036
undo,5,20,0,0,0,0,[0],1,21,"[1, 2, 3, 4, 5, 6, 7, 8, 9, 12, 17, 18, 20, 21, 22, 23, 25, 26, 27, 28, 29]",300,275,-1,1,9,9,0.0
undo,5,20,0,0,0,12,"[0, 12]",2,20,"[1, 2, 3, 4, 5, 6, 7, 8, 9, 17, 18, 20, 21, 22, 23, 25, 26, 27, 28, 29]",271.5570747,6184,5909,1,8,9,1.0
undo,5,20,0,0,0,1,"[0, 12, 1]",3,12,"[3, 4, 5, 6, 8, 9, 20, 21, 23, 27, 28, 29]",189.5692707,8090,1906,1,6,9,1.0757997779162911
undo,5,20,0,0,0,5,"[0, 12, 1, 5]",4,10,"[4, 6, 8, 9, 20, 21, 23, 27, 28, 29]",152.8950291,9350,1260,1,5,9,1.1708231454516806
undo,5,20,0,0,0,21,"[0, 12, 1, 5, 21]",5,8,"[4, 6, 8, 9, 20, 23, 27, 28]",107.8950291,19986,10636,1,4,9,1.126197336199212
undo,5,20,0,0,0,8,"[0, 12, 1, 5, 21, 8]",6,5,"[6, 9, 23, 27, 28]",90.43077988,21518,1532,1,3,9,1.140007470699913
undo,5,20,0,0,0,23,"[0, 12, 1, 5, 21, 8, 23]",7,2,"[6, 9]",45.74297394,23450,1932,1,1,9,1.1162257896627588
undo,5,20,0,0,0,9,"[0, 12, 1, 5, 21, 8, 23, 9]",8,1,[6],26.53360123,26634,3184,1,0,9,1.1086880559449597
undo,5,20,0,0,1,6,"[0, 12, 1, 5, 21, 8, 23, 9, 6]",9,0,[],3.511872362,27666,1032,1,0,9,1.1186240265999328
undo,5,20,0,1,1,6,"[0, 12, 1, 5, 21, 8, 23, 9, 6]",9,0,[],3.511872362,30708,3042,1,0,9,1.1186240265999328
undo,6,31,0,0,0,0,[0],1,27,"[1, 3, 4, 5, 6, 7, 8, 10, 11, 12, 13, 14, 15, 16, 17, 18, 19, 20, 21, 22, 23, 24, 25, 26, 27, 28, 29]",300,157,-1,2,87,10,0.0
undo,6,31,0,0,0,14,"[0, 14]",2,25,"[1, 3, 5, 6, 7, 8, 10, 11, 12, 13, 15, 16, 17, 18, 19, 20, 21, 22, 23, 24, 25, 26, 27, 28, 29]",263.861378,7636,7479,2,59,10,1.0
undo,6,31,0,0,0,27,"[0, 14, 27]",3,22,"[1, 3, 5, 6, 7, 8, 10, 11, 12, 13, 15, 16, 17, 18, 19, 20, 21, 22, 24, 25, 28, 29]",235.6833724,9439,1803,1,39,10,1.5881859159302467
undo,6,31,0,0,0,8,"[0, 14, 27, 8]",4,20,"[1, 3, 5, 6, 7, 10, 11, 12, 13, 16, 17, 18, 19, 20, 21, 22, 24, 25, 28, 29]",224.6380114,12485,3046,1,36,10,2.1665048452331277
undo,6,31,0,0,0,18,"[0, 14, 27, 8, 18]",5,15,"[1, 5, 6, 7, 11, 12, 13, 16, 17, 19, 20, 22, 25, 28, 29]",188.7911147,14671,2186,1,26,10,1.7273375741920205
undo,6,31,0,0,0,17,"[0, 14, 27, 8, 18, 17]",6,13,"[1, 5, 6, 7, 11, 12, 13, 16, 19, 20, 22, 25, 28]",159.584951,15816,1145,1,13,10,1.551192427769927
undo,6,31,0,0,0,11,"[0, 14, 27, 8, 18, 17, 11]",7,7,"[5, 12, 16, 19, 22, 25, 28]",118.4753414,17483,1667,1,4,10,2.9650760544203494
undo,6,31,0,0,0,5,"[0, 14, 27, 8, 18, 17, 11, 5]",8,2,"[16, 28]",74.79468207,18883,1400,1,1,10,2.56711965625205
undo,6,31,0,0,0,28,"[0, 14, 27, 8, 18, 17, 11, 5, 28]",9,1,[16],54.57093365,19833,950,1,0,10,2.2865510762058148
undo,6,31,0,0,1,16,"[0, 14, 27, 8, 18, 17, 11, 5, 28, 16]",10,0,[],20.95546102,22051,2218,1,0,10,2.089356850786318
undo,6,31,0,1,1,16,"[0, 14, 27, 8, 18, 17, 11, 5, 28, 16]",10,0,[],20.95546102,25557,3506,1,0,10,2.089356850786318
undo,7,41,0,0,0,0,[0],1,29,"[1, 2, 3, 4, 5, 6, 7, 8, 9, 10, 11, 12, 13, 14, 15, 16, 17, 18, 19, 20, 21, 22, 23, 24, 25, 26, 27, 28, 29]",300,159,-1,1,143,10,0.0
undo,7,41,0,0,0,5,"[0, 5]",2,27,"[1, 2, 3, 6, 7, 8, 9, 10, 11, 12, 13, 14, 15, 16, 17, 18, 19, 20, 21, 22, 23, 24, 25, 26, 27, 28, 29]",268.6152903,21891,21732,38,328,9,1.0
undo,7,41,0,0,0,28,"[0, 5, 28]",3,25,"[1, 2, 3, 6, 7, 8, 9, 10, 11, 12, 13, 14, 15, 16, 17, 18, 19, 20, 21, 22, 23, 24, 25, 26, 27]",255.0138198,23352,1461,28,163,9,1.1190730586122064
undo,7,41,0,0,0,13,"[0, 5, 28, 13]",4,18,"[1, 2, 3, 6, 9, 10, 12, 14, 15, 17, 18, 20, 21, 22, 24, 25, 26, 27]",220.5319405,26669,3317,7,37,9,1.904553701589307
undo,7,41,0,0,0,3,"[0, 5, 28, 13, 3]",5,12,"[2, 6, 9, 10, 12, 17, 18, 20, 21, 22, 25, 27]",148.7475411,30173,3504,6,10,9,3.817267699546047
undo,7,41,0,0,0,21,"[0, 5, 28, 13, 3, 21]",6,7,"[2, 9, 10, 12, 17, 22, 25]",116.6072238,33352,3179,5,2,9,3.7520978009714723
undo,7,41,0,0,0,9,"[0, 5, 28, 13, 3, 21, 9]",7,2,"[2, 17]",67.24124357,34669,1317,2,0,9,2.82844379722557
undo,7,41,0,0,0,2,"[0, 5, 28, 13, 3, 21, 9, 2]",8,1,[17],55.1581976,35773,1104,1,0,9,2.706136491980318
undo,7,41,0,0,1,17,"[0, 5, 28, 13, 3, 21, 9, 2, 17]",9,0,[],22.60055641,38491,2718,1,0,9,4.376234841136715
undo,7,41,1,0,0,2,"[0, 5, 28, 13, 3, 21, 9, 2]",8,1,[17],55.1581976,42209,3718,1,0,9,2.706136491980318
undo,7,41,1,0,0,9,"[0, 5, 28, 13, 3, 21, 9]",7,2,"[2, 17]",67.24124357,42409,200,2,0,9,2.82844379722557
undo,7,41,1,0,0,21,"[0, 5, 28, 13, 3, 21]",6,7,"[2, 9, 10, 12, 17, 22, 25]",116.6072238,42592,183,5,2,9,3.7520978009714723
undo,7,41,1,0,0,3,"[0, 5, 28, 13, 3]",5,12,"[2, 6, 9, 10, 12, 17, 18, 20, 21, 22, 25, 27]",148.7475411,42793,201,6,10,9,3.817267699546047
undo,7,41,1,0,0,13,"[0, 5, 28, 13]",4,18,"[1, 2, 3, 6, 9, 10, 12, 14, 15, 17, 18, 20, 21, 22, 24, 25, 26, 27]",220.5319405,43126,333,7,37,9,1.904553701589307
undo,7,41,1,0,0,28,"[0, 5, 28]",3,25,"[1, 2, 3, 6, 7, 8, 9, 10, 11, 12, 13, 14, 15, 16, 17, 18, 19, 20, 21, 22, 23, 24, 25, 26, 27]",255.0138198,43493,367,28,163,9,1.1190730586122064
undo,7,41,1,0,0,5,"[0, 5]",2,27,"[1, 2, 3, 6, 7, 8, 9, 10, 11, 12, 13, 14, 15, 16, 17, 18, 19, 20, 21, 22, 23, 24, 25, 26, 27, 28, 29]",268.6152903,43909,416,38,328,9,1.0
undo,7,41,1,0,0,0,[0],1,29,"[1, 2, 3, 4, 5, 6, 7, 8, 9, 10, 11, 12, 13, 14, 15, 16, 17, 18, 19, 20, 21, 22, 23, 24, 25, 26, 27, 28, 29]",300,44345,436,1,143,10,0.0
undo,7,41,0,0,0,13,"[0, 13]",2,23,"[1, 2, 3, 5, 6, 7, 9, 10, 11, 12, 14, 15, 17, 18, 19, 20, 21, 22, 24, 25, 26, 27, 28]",258.2747079,44952,607,1,55,10,1.0
undo,7,41,0,0,0,28,"[0, 13, 28]",3,22,"[1, 2, 3, 5, 6, 7, 9, 10, 11, 12, 14, 15, 17, 18, 19, 20, 21, 22, 24, 25, 26, 27]",223.7928286,46369,1417,1,39,10,1.895724242592676
undo,7,41,0,0,0,5,"[0, 13, 28, 5]",4,19,"[1, 2, 3, 6, 9, 10, 11, 12, 14, 15, 17, 18, 19, 20, 21, 22, 24, 25, 27]",210.1913581,47951,1582,1,34,10,2.861541269398273
undo,7,41,0,0,0,3,"[0, 13, 28, 5, 3]",5,16,"[1, 2, 6, 9, 10, 12, 14, 17, 18, 19, 20, 21, 22, 24, 25, 27]",175.3632086,52253,4302,1,22,10,3.1455488489005883
undo,7,41,0,0,0,21,"[0, 13, 28, 5, 3, 21]",6,14,"[1, 2, 6, 9, 10, 12, 14, 17, 18, 19, 20, 22, 25, 27]",143.2228912,54953,2700,13,11,9,3.207558429289677
undo,7,41,0,0,0,9,"[0, 13, 28, 5, 3, 21, 9]",7,6,"[1, 2, 10, 12, 14, 17]",93.85691102,56173,1220,7,4,9,2.5050148501792275
undo,7,41,0,0,0,2,"[0, 13, 28, 5, 3, 21, 9, 2]",8,5,"[1, 10, 12, 14, 17]",81.77386505,58321,2148,5,0,9,2.4119643847713177
undo,7,41,0,0,1,17,"[0, 13, 28, 5, 3, 21, 9, 2, 17]",9,0,[],49.21622385,59371,1050,1,0,9,3.9563478735796007
undo,7,41,0,1,1,17,"[0, 13, 28, 5, 3, 21, 9, 2, 17]",9,0,[],49.21622385,86577,27206,1,0,9,3.9563478735796007
undo,8,19,0,0,0,0,[0],1,29,"[1, 2, 3, 4, 5, 6, 7, 8, 9, 10, 11, 12, 13, 14, 15, 16, 17, 18, 19, 20, 21, 22, 23, 24, 25, 26, 27, 28, 29]",300,170,-1,12,149,8,0.0
undo,8,19,0,0,0,29,"[0, 29]",2,28,"[1, 2, 3, 4, 5, 6, 7, 8, 9, 10, 11, 12, 13, 14, 15, 16, 17, 18, 19, 20, 21, 22, 23, 24, 25, 26, 27, 28]",265.0715016,8850,8680,12,120,8,1.0
undo,8,19,0,0,0,9,"[0, 29, 9]",3,17,"[1, 4, 5, 6, 7, 10, 11, 12, 13, 14, 19, 20, 21, 22, 24, 27, 28]",181.7108394,10402,1552,11,65,8,1.0375842971861238
undo,8,19,0,0,0,6,"[0, 29, 9, 6]",4,12,"[4, 7, 10, 11, 13, 14, 20, 21, 22, 24, 27, 28]",140.2741407,11646,1244,11,34,8,1.0389786364356892
undo,8,19,0,0,0,14,"[0, 29, 9, 6, 14]",5,7,"[4, 10, 11, 20, 22, 24, 28]",80.59164747,14847,3201,3,6,8,1.0491884155331486
undo,8,19,0,0,0,11,"[0, 29, 9, 6, 14, 11]",6,5,"[4, 20, 22, 24, 28]",69.77499364,15432,585,3,2,8,1.050030420094996
undo,8,19,0,0,0,22,"[0, 29, 9, 6, 14, 11, 22]",7,1,[20],21.77499364,17798,2366,1,0,8,1.30599041972075
undo,8,19,0,0,1,20,"[0, 29, 9, 6, 14, 11, 22, 20]",8,0,[],8.622047201,21865,4067,1,0,8,1.2888288530741239
undo,8,19,0,1,1,20,"[0, 29, 9, 6, 14, 11, 22, 20]",8,0,[],8.622047201,31056,9191,1,0,8,1.2888288530741239
undo,9,6,0,0,0,0,[0],1,29,"[1, 2, 3, 4, 5, 6, 7, 8, 9, 10, 11, 12, 13, 14, 15, 16, 17, 18, 19, 20, 21, 22, 23, 24, 25, 26, 27, 28, 29]",300,161,-1,180,4304,10,0.0
undo,9,6,0,0,0,26,"[0, 26]",2,25,"[1, 2, 3, 4, 5, 6, 7, 8, 9, 10, 11, 12, 13, 14, 15, 16, 17, 18, 20, 21, 22, 23, 24, 27, 29]",250.2606795,8454,8293,45,776,10,1.0
undo,9,6,0,0,0,2,"[0, 26, 2]",3,20,"[1, 3, 4, 5, 6, 7, 8, 9, 10, 13, 14, 16, 17, 18, 21, 22, 23, 24, 27, 29]",220.4278118,9402,948,20,184,10,1.003152463832065
undo,9,6,0,0,0,7,"[0, 26, 2, 7]",4,18,"[1, 3, 4, 6, 8, 9, 10, 13, 14, 16, 17, 18, 21, 22, 23, 24, 27, 29]",179.3182022,10487,1085,20,157,10,2.5131135963314413
undo,9,6,0,0,0,3,"[0, 26, 2, 7, 3]",5,13,"[1, 6, 8, 10, 13, 16, 17, 18, 21, 22, 23, 24, 29]",143.1795802,11401,914,18,67,10,4.677560963942129
undo,9,6,0,0,0,16,"[0, 26, 2, 7, 3, 16]",6,9,"[6, 10, 13, 17, 18, 22, 23, 24, 29]",96.94106809,13690,2289,3,11,10,2.8132170172709676
undo,9,6,0,0,0,18,"[0, 26, 2, 7, 3, 16, 18]",7,4,"[10, 17, 24, 29]",73.59583303,14771,1081,2,4,10,3.7175429872148276
undo,9,6,0,0,0,17,"[0, 26, 2, 7, 3, 16, 18, 17]",8,2,"[10, 24]",59.66744475,16871,2100,2,0,10,3.4052918038285505
undo,9,6,0,0,0,10,"[0, 26, 2, 7, 3, 16, 18, 17, 10]",9,1,[24],39.94436183,18137,1266,1,0,10,3.0832542837647017
undo,9,6,0,0,1,24,"[0, 26, 2, 7, 3, 16, 18, 17, 10, 24]",10,0,[],26.52795396,19310,1173,1,0,10,2.8107983495160362
undo,9,6,0,1,1,24,"[0, 26, 2, 7, 3, 16, 18, 17, 10, 24]",10,0,[],26.52795396,29445,10135,1,0,10,2.8107983495160362
undo,10,10,0,0,0,0,[0],1,29,"[1, 2, 3, 4, 5, 6, 7, 8, 9, 10, 11, 12, 13, 14, 15, 16, 17, 18, 19, 20, 21, 22, 23, 24, 25, 26, 27, 28, 29]",300,186,-1,1,100,9,0.0
undo,10,10,0,0,0,13,"[0, 13]",2,25,"[1, 2, 3, 4, 6, 7, 8, 9, 10, 11, 12, 14, 17, 18, 19, 20, 21, 22, 23, 24, 25, 26, 27, 28, 29]",249.4628849,11129,10943,1,79,9,1.0
undo,10,10,0,0,0,11,"[0, 13, 11]",3,20,"[1, 2, 3, 6, 7, 8, 9, 10, 12, 14, 18, 19, 20, 21, 22, 24, 26, 27, 28, 29]",206.4512586,12207,1078,1,54,9,1.0313137484914219
undo,10,10,0,0,0,19,"[0, 13, 11, 19]",4,11,"[2, 6, 8, 9, 10, 14, 18, 20, 24, 26, 27]",170.0919407,13291,1084,1,22,9,1.0879446220132545
undo,10,10,0,0,0,2,"[0, 13, 11, 19, 2]",5,4,"[14, 20, 26, 27]",126.1829439,14676,1385,1,4,9,1.06474052351343
undo,10,10,0,0,0,14,"[0, 13, 11, 19, 2, 14]",6,3,"[20, 26, 27]",114.0174188,17073,2397,1,3,9,1.1628909195912238
undo,10,10,0,0,0,26,"[0, 13, 11, 19, 2, 14, 26]",7,2,"[20, 27]",79.34754716,18810,1737,1,1,9,1.6660727647633602
undo,10,10,0,0,0,20,"[0, 13, 11, 19, 2, 14, 26, 20]",8,1,[27],47.56704999,20506,1696,1,0,9,2.085581809637999
undo,10,10,0,0,1,27,"[0, 13, 11, 19, 2, 14, 26, 20, 27]",9,0,[],2.312215998,22692,2186,1,0,9,1.9116357409137932
undo,10,10,0,1,1,27,"[0, 13, 11, 19, 2, 14, 26, 20, 27]",9,0,[],2.312215998,42598,19906,1,0,9,1.9116357409137932
undo,11,13,0,0,0,0,[0],1,29,"[1, 2, 3, 4, 5, 6, 7, 8, 9, 10, 11, 12, 13, 14, 15, 16, 17, 18, 19, 20, 21, 22, 23, 24, 25, 26, 27, 28, 29]",300,157,-1,60,2676,11,0.0
undo,11,13,0,0,0,9,"[0, 9]",2,28,"[1, 2, 3, 4, 5, 6, 7, 8, 10, 11, 12, 13, 14, 15, 16, 17, 18, 19, 20, 21, 22, 23, 24, 25, 26, 27, 28, 29]",268.9516506,3766,3609,24,557,11,1.0
undo,11,13,0,0,0,21,"[0, 9, 21]",3,27,"[1, 2, 3, 4, 5, 6, 7, 8, 10, 11, 12, 13, 14, 15, 16, 17, 18, 19, 20, 22, 23, 24, 25, 26, 27, 28, 29]",245.6064155,5534,1768,23,375,11,1.8983491882127779
undo,11,13,0,0,0,24,"[0, 9, 21, 24]",4,24,"[1, 2, 3, 4, 5, 6, 7, 8, 10, 11, 12, 13, 14, 15, 16, 17, 19, 20, 22, 23, 26, 27, 28, 29]",207.1876701,6334,800,23,335,11,8.301387152261452
undo,11,13,0,0,0,23,"[0, 9, 21, 24, 23]",5,21,"[1, 2, 3, 4, 6, 7, 8, 10, 11, 12, 13, 15, 16, 17, 19, 20, 22, 26, 27, 28, 29]",161.4820906,7756,1422,9,132,11,2.4509726913097616
undo,11,13,0,0,0,16,"[0, 9, 21, 24, 23, 16]",6,12,"[2, 3, 4, 6, 7, 8, 11, 20, 26, 27, 28, 29]",121.1708019,8767,1011,7,30,10,1.9427630097398245
undo,11,13,0,0,0,3,"[0, 9, 21, 24, 23, 16, 3]",7,4,"[4, 8, 20, 27]",92.72787655,9933,1166,3,4,10,2.035408193679108
undo,11,13,0,0,0,20,"[0, 9, 21, 24, 23, 16, 3, 20]",8,3,"[4, 8, 27]",73.70157896,10684,751,2,1,10,2.056918414669503
undo,11,13,0,0,0,4,"[0, 9, 21, 24, 23, 16, 3, 20, 4]",9,1,[27],51.67886341,11534,850,1,0,10,1.9157821456342439
undo,11,13,0,0,1,27,"[0, 9, 21, 24, 23, 16, 3, 20, 4, 27]",10,0,[],29.65614787,12474,940,1,0,10,1.9119065184221016
undo,11,13,1,0,0,4,"[0, 9, 21, 24, 23, 16, 3, 20, 4]",9,1,[27],51.67886341,29558,17084,1,0,10,1.9157821456342439
undo,11,13,1,0,0,20,"[0, 9, 21, 24, 23, 16, 3, 20]",8,3,"[4, 8, 27]",73.70157896,29791,233,2,1,10,2.056918414669503
undo,11,13,1,0,0,3,"[0, 9, 21, 24, 23, 16, 3]",7,4,"[4, 8, 20, 27]",92.72787655,29991,200,3,4,10,2.035408193679108
undo,11,13,1,0,0,16,"[0, 9, 21, 24, 23, 16]",6,12,"[2, 3, 4, 6, 7, 8, 11, 20, 26, 27, 28, 29]",121.1708019,30176,185,7,30,10,1.9427630097398245
undo,11,13,1,0,0,23,"[0, 9, 21, 24, 23]",5,21,"[1, 2, 3, 4, 6, 7, 8, 10, 11, 12, 13, 15, 16, 17, 19, 20, 22, 26, 27, 28, 29]",161.4820906,30358,182,9,132,11,2.4509726913097616
undo,11,13,1,0,0,24,"[0, 9, 21, 24]",4,24,"[1, 2, 3, 4, 5, 6, 7, 8, 10, 11, 12, 13, 14, 15, 16, 17, 19, 20, 22, 23, 26, 27, 28, 29]",207.1876701,30558,200,23,335,11,8.301387152261452
undo,11,13,1,0,0,21,"[0, 9, 21]",3,27,"[1, 2, 3, 4, 5, 6, 7, 8, 10, 11, 12, 13, 14, 15, 16, 17, 18, 19, 20, 22, 23, 24, 25, 26, 27, 28, 29]",245.6064155,30777,219,23,375,11,1.8983491882127779
undo,11,13,1,0,0,9,"[0, 9]",2,28,"[1, 2, 3, 4, 5, 6, 7, 8, 10, 11, 12, 13, 14, 15, 16, 17, 18, 19, 20, 21, 22, 23, 24, 25, 26, 27, 28, 29]",268.9516506,31207,430,24,557,11,1.0
undo,11,13,0,0,0,21,"[0, 9, 21]",3,27,"[1, 2, 3, 4, 5, 6, 7, 8, 10, 11, 12, 13, 14, 15, 16, 17, 18, 19, 20, 22, 23, 24, 25, 26, 27, 28, 29]",245.6064155,33703,2496,23,375,11,1.8983491882127779
undo,11,13,0,0,0,24,"[0, 9, 21, 24]",4,24,"[1, 2, 3, 4, 5, 6, 7, 8, 10, 11, 12, 13, 14, 15, 16, 17, 19, 20, 22, 23, 26, 27, 28, 29]",207.1876701,35049,1346,23,335,11,8.301387152261452
undo,11,13,0,0,0,28,"[0, 9, 21, 24, 28]",5,14,"[1, 2, 3, 6, 7, 11, 12, 13, 16, 17, 19, 23, 26, 29]",140.9004164,36202,1153,14,141,11,2.1592807954160236
undo,11,13,0,0,0,2,"[0, 9, 21, 24, 28, 2]",6,9,"[1, 6, 7, 11, 13, 19, 23, 26, 29]",103.257356,37867,1665,9,44,11,1.7952585337512594
undo,11,13,0,0,0,29,"[0, 9, 21, 24, 28, 2, 29]",7,8,"[1, 6, 7, 11, 13, 19, 23, 26]",91.55265609,39184,1317,9,15,11,1.8727432445262708
undo,11,13,0,0,0,26,"[0, 9, 21, 24, 28, 2, 29, 26]",8,4,"[6, 7, 11, 23]",68.01545149,40216,1032,2,4,11,2.424807843621155
undo,11,13,0,0,0,7,"[0, 9, 21, 24, 28, 2, 29, 26, 7]",9,2,"[6, 11]",57.57514499,42160,1944,2,0,11,2.303070668914133
undo,11,13,0,0,0,6,"[0, 9, 21, 24, 28, 2, 29, 26, 7, 6]",10,1,[11],36.76649294,46318,4158,1,0,11,2.4243911280851527
undo,11,13,0,0,1,11,"[0, 9, 21, 24, 28, 2, 29, 26, 7, 6, 11]",11,0,[],17.66151976,47567,1249,1,0,11,2.2133475025789826
undo,11,13,0,1,1,11,"[0, 9, 21, 24, 28, 2, 29, 26, 7, 6, 11]",11,0,[],17.66151976,54074,6507,1,0,11,2.2133475025789826
undo,12,44,0,0,0,0,[0],1,29,"[1, 2, 3, 4, 5, 6, 7, 8, 9, 10, 11, 12, 13, 14, 15, 16, 17, 18, 19, 20, 21, 22, 23, 24, 25, 26, 27, 28, 29]",300,161,-1,13,126,7,0.0
undo,12,44,0,0,0,11,"[0, 11]",2,18,"[4, 5, 6, 7, 8, 9, 12, 14, 16, 17, 19, 20, 22, 23, 24, 25, 26, 28]",152.7790776,13671,13510,5,34,7,1.0
undo,12,44,0,0,0,14,"[0, 11, 14]",3,14,"[4, 5, 6, 7, 9, 12, 16, 17, 19, 22, 23, 24, 26, 28]",120.5765932,14573,902,6,17,6,1.0032424984204007
undo,12,44,0,0,0,24,"[0, 11, 14, 24]",4,4,"[4, 7, 9, 23]",74.92574436,16357,1784,3,2,6,1.4978014171296756
undo,12,44,0,0,0,9,"[0, 11, 14, 24, 9]",5,1,[4],42.16906565,17150,793,1,0,6,1.6248916534242954
undo,12,44,0,0,1,4,"[0, 11, 14, 24, 9, 4]",6,0,[],22.47135004,18034,884,1,0,6,1.5800842308612977
undo,12,44,1,0,0,9,"[0, 11, 14, 24, 9]",5,1,[4],42.16906565,20242,2208,1,0,6,1.6248916534242954
undo,12,44,1,0,0,24,"[0, 11, 14, 24]",4,4,"[4, 7, 9, 23]",74.92574436,20442,200,3,2,6,1.4978014171296756
undo,12,44,1,0,0,14,"[0, 11, 14]",3,14,"[4, 5, 6, 7, 9, 12, 16, 17, 19, 22, 23, 24, 26, 28]",120.5765932,20642,200,6,17,6,1.0032424984204007
undo,12,44,1,0,0,11,"[0, 11]",2,18,"[4, 5, 6, 7, 8, 9, 12, 14, 16, 17, 19, 20, 22, 23, 24, 25, 26, 28]",152.7790776,20876,234,5,34,7,1.0
undo,12,44,1,0,0,0,[0],1,29,"[1, 2, 3, 4, 5, 6, 7, 8, 9, 10, 11, 12, 13, 14, 15, 16, 17, 18, 19, 20, 21, 22, 23, 24, 25, 26, 27, 28, 29]",300,21242,366,13,126,7,0.0
undo,12,44,0,0,0,8,"[0, 8]",2,17,"[1, 4, 5, 7, 9, 10, 11, 12, 13, 14, 15, 20, 21, 23, 24, 25, 27]",145.7923478,26332,5090,1,10,7,1.0
undo,12,44,0,0,0,20,"[0, 8, 20]",3,16,"[1, 4, 5, 7, 9, 10, 11, 12, 13, 14, 15, 21, 23, 24, 25, 27]",133.7093018,28124,1792,1,9,7,1.0890794433668698
undo,12,44,0,0,0,9,"[0, 8, 20, 9]",4,7,"[4, 7, 11, 12, 14, 23, 24]",76.43801756,30656,2532,1,6,7,1.40892325509949
undo,12,44,0,0,0,4,"[0, 8, 20, 9, 4]",5,4,"[7, 12, 23, 24]",56.74030196,32482,1826,1,3,7,1.3849770570803555
undo,12,44,0,0,0,7,"[0, 8, 20, 9, 4, 7]",6,1,[23],25.72417712,34116,1634,1,0,7,1.3274380931474288
undo,12,44,0,0,1,23,"[0, 8, 20, 9, 4, 7, 23]",7,0,[],6.619203947,35167,1051,1,0,7,1.3395824779823196
undo,12,44,0,1,1,23,"[0, 8, 20, 9, 4, 7, 23]",7,0,[],6.619203947,40759,5592,1,0,7,1.3395824779823196
undo,13,15,0,0,0,0,[0],1,25,"[1, 2, 3, 4, 7, 8, 9, 10, 11, 12, 13, 14, 15, 16, 18, 20, 21, 22, 23, 24, 25, 26, 27, 28, 29]",300,211,-1,4,65,9,0.0
undo,13,15,0,0,0,12,"[0, 12]",2,22,"[1, 2, 3, 4, 7, 8, 9, 10, 11, 13, 14, 15, 16, 18, 21, 22, 23, 24, 26, 27, 28, 29]",213.547701,7087,6876,4,35,9,1.0
undo,13,15,0,0,0,7,"[0, 12, 7]",3,16,"[1, 3, 4, 8, 9, 10, 11, 13, 14, 15, 16, 18, 21, 22, 24, 27]",180.3061607,7721,634,4,29,9,1.411291635294361
undo,13,15,0,0,0,16,"[0, 12, 7, 16]",4,10,"[3, 4, 10, 11, 13, 14, 15, 18, 21, 22]",136.6484008,9321,1600,2,11,9,1.4308733430458784
undo,13,15,0,0,0,11,"[0, 12, 7, 16, 11]",5,7,"[3, 4, 13, 14, 15, 21, 22]",110.6291772,10237,916,2,5,9,1.5251025438826007
undo,13,15,0,0,0,3,"[0, 12, 7, 16, 11, 3]",6,5,"[4, 13, 14, 15, 22]",99.22742292,12059,1822,2,3,9,1.5166583878170454
undo,13,15,0,0,0,22,"[0, 12, 7, 16, 11, 3, 22]",7,2,"[13, 15]",49.49815588,13254,1195,2,0,9,1.4519711389669923
undo,13,15,0,0,0,15,"[0, 12, 7, 16, 11, 3, 22, 15]",8,1,[13],23.88565893,15002,1748,1,0,9,1.4060225827822495
undo,13,15,0,0,1,13,"[0, 12, 7, 16, 11, 3, 22, 15, 13]",9,0,[],8.621321408,16019,1017,1,0,9,1.4544229719836068
undo,13,15,0,1,1,13,"[0, 12, 7, 16, 11, 3, 22, 15, 13]",9,0,[],8.621321408,22495,6476,1,0,9,1.4544229719836068
undo,14,37,0,0,0,0,[0],1,29,"[1, 2, 3, 4, 5, 6, 7, 8, 9, 10, 11, 12, 13, 14, 15, 16, 17, 18, 19, 20, 21, 22, 23, 24, 25, 26, 27, 28, 29]",300,180,-1,6,168,10,0.0
undo,14,37,0,0,0,9,"[0, 9]",2,28,"[1, 2, 3, 4, 5, 6, 7, 8, 10, 11, 12, 13, 14, 15, 16, 17, 18, 19, 20, 21, 22, 23, 24, 25, 26, 27, 28, 29]",275.7925631,4849,4669,45,289,9,1.0
undo,14,37,0,0,0,18,"[0, 9, 18]",3,15,"[1, 2, 4, 6, 7, 10, 15, 17, 19, 20, 21, 22, 26, 28, 29]",172.2068498,6024,1175,33,160,9,1.3094770236215172
undo,14,37,0,0,0,7,"[0, 9, 18, 7]",4,9,"[1, 2, 4, 15, 19, 20, 21, 22, 26]",145.0406944,7202,1178,17,59,9,1.293395038406712
undo,14,37,0,0,0,22,"[0, 9, 18, 7, 22]",5,7,"[1, 2, 4, 15, 19, 20, 21]",95.04069441,7887,685,6,17,9,1.2585327043140475
undo,14,37,0,0,0,4,"[0, 9, 18, 7, 22, 4]",6,5,"[1, 2, 15, 20, 21]",70.04069441,8753,866,4,7,9,1.4148462251829255
undo,14,37,0,0,0,2,"[0, 9, 18, 7, 22, 4, 2]",7,3,"[1, 15, 20]",58.63894016,11719,2966,2,2,9,1.5965980495342236
undo,14,37,0,0,0,1,"[0, 9, 18, 7, 22, 4, 2, 1]",8,2,"[15, 20]",41.43428963,14190,2471,2,0,9,1.6331913686535429
undo,14,37,0,0,1,20,"[0, 9, 18, 7, 22, 4, 2, 1, 20]",9,0,[],7.199804089,16070,1880,1,0,9,1.9533474092172471
undo,14,37,1,0,0,1,"[0, 9, 18, 7, 22, 4, 2, 1]",8,2,"[15, 20]",41.43428963,21392,5322,2,0,9,1.6331913686535429
undo,14,37,1,0,0,2,"[0, 9, 18, 7, 22, 4, 2]",7,3,"[1, 15, 20]",58.63894016,21559,167,2,2,9,1.5965980495342236
undo,14,37,1,0,0,4,"[0, 9, 18, 7, 22, 4]",6,5,"[1, 2, 15, 20, 21]",70.04069441,21759,200,4,7,9,1.4148462251829255
undo,14,37,1,0,0,22,"[0, 9, 18, 7, 22]",5,7,"[1, 2, 4, 15, 19, 20, 21]",95.04069441,21959,200,6,17,9,1.2585327043140475
undo,14,37,1,0,0,7,"[0, 9, 18, 7]",4,9,"[1, 2, 4, 15, 19, 20, 21, 22, 26]",145.0406944,22293,334,17,59,9,1.293395038406712
undo,14,37,1,0,0,18,"[0, 9, 18]",3,15,"[1, 2, 4, 6, 7, 10, 15, 17, 19, 20, 21, 22, 26, 28, 29]",172.2068498,22509,216,33,160,9,1.3094770236215172
undo,14,37,1,0,0,9,"[0, 9]",2,28,"[1, 2, 3, 4, 5, 6, 7, 8, 10, 11, 12, 13, 14, 15, 16, 17, 18, 19, 20, 21, 22, 23, 24, 25, 26, 27, 28, 29]",275.7925631,22742,233,45,289,9,1.0
undo,14,37,1,0,0,0,[0],1,29,"[1, 2, 3, 4, 5, 6, 7, 8, 9, 10, 11, 12, 13, 14, 15, 16, 17, 18, 19, 20, 21, 22, 23, 24, 25, 26, 27, 28, 29]",300,22942,200,6,168,10,0.0
undo,14,37,0,0,0,18,"[0, 18]",2,19,"[1, 2, 4, 6, 7, 9, 10, 12, 14, 15, 17, 19, 20, 21, 22, 23, 26, 28, 29]",202.4090168,24857,1915,6,89,10,1.0
undo,14,37,0,0,0,7,"[0, 18, 7]",3,12,"[1, 2, 4, 9, 15, 17, 19, 20, 21, 22, 26, 29]",175.2428614,25831,974,6,53,10,1.0413073512834488
undo,14,37,0,0,0,22,"[0, 18, 7, 22]",4,8,"[1, 2, 4, 15, 19, 20, 21, 26]",125.2428614,27066,1235,6,29,10,1.0730792320325544
undo,14,37,0,0,0,4,"[0, 18, 7, 22, 4]",5,7,"[1, 2, 15, 19, 20, 21, 26]",100.2428614,28437,1371,4,16,10,1.2290245562206235
undo,14,37,0,0,0,2,"[0, 18, 7, 22, 4, 2]",6,5,"[1, 15, 19, 20, 21]",88.84110714,29685,1248,4,7,10,1.3968113858365216
undo,14,37,0,0,0,1,"[0, 18, 7, 22, 4, 2, 1]",7,4,"[15, 19, 20, 21]",71.63645661,31275,1590,4,3,10,1.4424239294761476
undo,14,37,0,0,0,20,"[0, 18, 7, 22, 4, 2, 1, 20]",8,3,"[15, 19, 21]",37.40197107,32140,865,2,1,10,1.7518607796010042
undo,14,37,0,0,0,15,"[0, 18, 7, 22, 4, 2, 1, 20, 15]",9,1,[21],20.40197107,33254,1114,1,0,10,1.680305745239285
undo,14,37,0,0,1,21,"[0, 18, 7, 22, 4, 2, 1, 20, 15, 21]",10,0,[],5.401971073,34436,1182,1,0,10,1.8982635624510946
undo,14,37,0,1,1,21,"[0, 18, 7, 22, 4, 2, 1, 20, 15, 21]",10,0,[],5.401971073,47476,13040,1,0,10,1.8982635624510946
undo,15,9,0,0,0,0,[0],1,27,"[1, 3, 4, 5, 6, 7, 8, 9, 10, 11, 13, 14, 15, 16, 17, 18, 19, 20, 21, 22, 23, 24, 25, 26, 27, 28, 29]",300,169,-1,2,182,10,0.0
undo,15,9,0,0,0,7,"[0, 7]",2,19,"[3, 4, 5, 8, 9, 10, 11, 16, 17, 18, 19, 20, 21, 22, 23, 25, 26, 27, 28]",258.4067313,3767,3598,39,322,9,1.0
undo,15,9,0,0,0,4,"[0, 7, 4]",3,15,"[3, 8, 9, 10, 11, 18, 19, 20, 21, 22, 23, 25, 26, 27, 28]",243.4067313,5171,1404,32,159,9,1.002790151820037
undo,15,9,0,0,0,27,"[0, 7, 4, 27]",4,11,"[8, 9, 10, 11, 20, 21, 22, 23, 25, 26, 28]",181.165266,6369,1198,19,48,9,2.2170504989781823
undo,15,9,0,0,0,25,"[0, 7, 4, 27, 25]",5,10,"[8, 9, 10, 11, 20, 21, 22, 23, 26, 28]",145.2626199,8417,2048,17,30,9,6.425119990857526
undo,15,9,0,0,0,10,"[0, 7, 4, 27, 25, 10]",6,8,"[8, 9, 20, 21, 22, 23, 26, 28]",105.4129022,9784,1367,10,7,9,3.581425027421569
undo,15,9,0,0,0,28,"[0, 7, 4, 27, 25, 10, 28]",7,4,"[8, 9, 23, 26]",48.4129022,11356,1572,3,2,9,3.387169057637727
undo,15,9,0,0,0,8,"[0, 7, 4, 27, 25, 10, 28, 8]",8,1,[23],37.59624838,12584,1228,1,0,9,4.114144751518002
undo,15,9,1,0,0,28,"[0, 7, 4, 27, 25, 10, 28]",7,4,"[8, 9, 23, 26]",48.4129022,14425,1841,3,2,9,3.387169057637727
undo,15,9,1,0,0,10,"[0, 7, 4, 27, 25, 10]",6,8,"[8, 9, 20, 21, 22, 23, 26, 28]",105.4129022,14608,183,10,7,9,3.581425027421569
undo,15,9,1,0,0,25,"[0, 7, 4, 27, 25]",5,10,"[8, 9, 10, 11, 20, 21, 22, 23, 26, 28]",145.2626199,14776,168,17,30,9,6.425119990857526
undo,15,9,1,0,0,27,"[0, 7, 4, 27]",4,11,"[8, 9, 10, 11, 20, 21, 22, 23, 25, 26, 28]",181.165266,15042,266,19,48,9,2.2170504989781823
undo,15,9,1,0,0,4,"[0, 7, 4]",3,15,"[3, 8, 9, 10, 11, 18, 19, 20, 21, 22, 23, 25, 26, 27, 28]",243.4067313,15325,283,32,159,9,1.002790151820037
undo,15,9,1,0,0,7,"[0, 7]",2,19,"[3, 4, 5, 8, 9, 10, 11, 16, 17, 18, 19, 20, 21, 22, 23, 25, 26, 27, 28]",258.4067313,15942,617,39,322,9,1.0
undo,15,9,1,0,0,0,[0],1,27,"[1, 3, 4, 5, 6, 7, 8, 9, 10, 11, 13, 14, 15, 16, 17, 18, 19, 20, 21, 22, 23, 24, 25, 26, 27, 28, 29]",300,17859,1917,2,182,10,0.0
undo,15,9,0,0,0,25,"[0, 25]",2,24,"[1, 3, 4, 5, 6, 7, 8, 9, 10, 11, 13, 15, 16, 17, 18, 19, 20, 21, 22, 23, 24, 26, 27, 28]",275.9168108,19333,1474,2,104,10,1.0
undo,15,9,0,0,0,10,"[0, 25, 10]",3,20,"[3, 4, 5, 7, 8, 9, 11, 13, 15, 16, 17, 18, 19, 20, 21, 22, 23, 26, 27, 28]",236.0670932,20386,1053,2,76,10,1.1767014107208227
undo,15,9,0,0,0,26,"[0, 25, 10, 26]",4,15,"[3, 5, 8, 9, 13, 15, 16, 17, 18, 19, 20, 21, 22, 23, 28]",136.4277435,26384,5998,17,20,8,1.4001518480418
undo,15,9,0,0,0,28,"[0, 25, 10, 26, 28]",5,5,"[8, 9, 20, 21, 23]",91.65051714,27452,1068,6,4,8,2.8050521178920884
undo,15,9,0,0,0,8,"[0, 25, 10, 26, 28, 8]",6,4,"[9, 20, 21, 23]",80.83386331,28134,682,3,1,8,3.4362359737882495
undo,15,9,0,0,0,23,"[0, 25, 10, 26, 28, 8, 23]",7,1,[9],59.36295276,29016,882,1,0,8,4.041609690085353
undo,15,9,0,0,1,9,"[0, 25, 10, 26, 28, 8, 23, 9]",8,0,[],37.00227299,29951,935,1,0,8,3.5318416179301755
undo,15,9,1,0,0,23,"[0, 25, 10, 26, 28, 8, 23]",7,1,[9],59.36295276,35108,5157,1,0,8,4.041609690085353
undo,15,9,1,0,0,8,"[0, 25, 10, 26, 28, 8]",6,4,"[9, 20, 21, 23]",80.83386331,35276,168,3,1,8,3.4362359737882495
undo,15,9,1,0,0,28,"[0, 25, 10, 26, 28]",5,5,"[8, 9, 20, 21, 23]",91.65051714,35458,182,6,4,8,2.8050521178920884
undo,15,9,1,0,0,26,"[0, 25, 10, 26]",4,15,"[3, 5, 8, 9, 13, 15, 16, 17, 18, 19, 20, 21, 22, 23, 28]",136.4277435,35641,183,17,20,8,1.4001518480418
undo,15,9,1,0,0,10,"[0, 25, 10]",3,20,"[3, 4, 5, 7, 8, 9, 11, 13, 15, 16, 17, 18, 19, 20, 21, 22, 23, 26, 27, 28]",236.0670932,35825,184,2,76,10,1.1767014107208227
undo,15,9,1,0,0,25,"[0, 25]",2,24,"[1, 3, 4, 5, 6, 7, 8, 9, 10, 11, 13, 15, 16, 17, 18, 19, 20, 21, 22, 23, 24, 26, 27, 28]",275.9168108,36041,216,2,104,10,1.0
undo,15,9,1,0,0,0,[0],1,27,"[1, 3, 4, 5, 6, 7, 8, 9, 10, 11, 13, 14, 15, 16, 17, 18, 19, 20, 21, 22, 23, 24, 25, 26, 27, 28, 29]",300,36811,770,2,182,10,0.0
undo,15,9,0,0,0,27,"[0, 27]",2,18,"[3, 4, 7, 8, 9, 10, 11, 16, 17, 18, 19, 20, 21, 22, 23, 25, 26, 28]",246.3996269,38085,1274,6,149,9,1.0
undo,15,9,0,0,0,25,"[0, 27, 25]",3,16,"[3, 4, 7, 8, 9, 10, 11, 17, 18, 19, 20, 21, 22, 23, 26, 28]",210.4969807,39001,916,6,109,9,3.7164105930635247
undo,15,9,0,0,0,10,"[0, 27, 25, 10]",4,13,"[4, 7, 8, 9, 11, 17, 18, 20, 21, 22, 23, 26, 28]",170.647263,39917,916,5,56,9,2.380770024811378
undo,15,9,0,0,0,26,"[0, 27, 25, 10, 26]",5,7,"[8, 9, 18, 20, 21, 23, 28]",71.00791338,42133,2216,4,4,7,1.9601349283088292
undo,15,9,0,0,0,28,"[0, 27, 25, 10, 26, 28]",6,2,"[8, 23]",26.23068702,43750,1617,2,0,7,3.685812801870138
undo,15,9,0,0,1,8,"[0, 27, 25, 10, 26, 28, 8]",7,0,[],15.4140332,44285,535,1,0,7,4.461932630298026
undo,15,9,1,0,0,28,"[0, 27, 25, 10, 26, 28]",6,2,"[8, 23]",26.23068702,46841,2556,2,0,7,3.685812801870138
undo,15,9,1,0,0,26,"[0, 27, 25, 10, 26]",5,7,"[8, 9, 18, 20, 21, 23, 28]",71.00791338,46994,153,4,4,7,1.9601349283088292
undo,15,9,1,0,0,10,"[0, 27, 25, 10]",4,13,"[4, 7, 8, 9, 11, 17, 18, 20, 21, 22, 23, 26, 28]",170.647263,47159,165,5,56,9,2.380770024811378
undo,15,9,1,0,0,25,"[0, 27, 25]",3,16,"[3, 4, 7, 8, 9, 10, 11, 17, 18, 19, 20, 21, 22, 23, 26, 28]",210.4969807,47325,166,6,109,9,3.7164105930635247
undo,15,9,1,0,0,27,"[0, 27]",2,18,"[3, 4, 7, 8, 9, 10, 11, 16, 17, 18, 19, 20, 21, 22, 23, 25, 26, 28]",246.3996269,48394,1069,6,149,9,1.0
undo,15,9,0,0,0,25,"[0, 27, 25]",3,16,"[3, 4, 7, 8, 9, 10, 11, 17, 18, 19, 20, 21, 22, 23, 26, 28]",210.4969807,49801,1407,6,109,9,3.7164105930635247
undo,15,9,0,0,0,10,"[0, 27, 25, 10]",4,13,"[4, 7, 8, 9, 11, 17, 18, 20, 21, 22, 23, 26, 28]",170.647263,50651,850,5,56,9,2.380770024811378
undo,15,9,0,0,0,28,"[0, 27, 25, 10, 28]",5,8,"[8, 9, 18, 20, 21, 22, 23, 26]",113.647263,51867,1216,1,14,9,2.5089053854195744
undo,15,9,0,0,0,8,"[0, 27, 25, 10, 28, 8]",6,6,"[9, 20, 21, 22, 23, 26]",102.8306092,52836,969,1,6,9,3.0913560088673475
undo,15,9,0,0,0,23,"[0, 27, 25, 10, 28, 8, 23]",7,3,"[9, 21, 26]",81.35969865,54134,1298,1,2,9,3.6721642436794952
undo,15,9,0,0,0,9,"[0, 27, 25, 10, 28, 8, 23, 9]",8,1,[26],58.99901888,55449,1315,1,0,9,3.236443541769683
undo,15,9,0,0,1,26,"[0, 27, 25, 10, 28, 8, 23, 9, 26]",9,0,[],2.350982727,59201,3752,1,0,9,2.5478270613856613
undo,15,9,0,1,1,26,"[0, 27, 25, 10, 28, 8, 23, 9, 26]",9,0,[],2.350982727,62308,3107,1,0,9,2.5478270613856613
undo,16,33,0,0,0,0,[0],1,23,"[1, 2, 5, 7, 8, 11, 12, 13, 14, 15, 16, 17, 18, 19, 20, 21, 23, 24, 25, 26, 27, 28, 29]",300,157,-1,5,108,9,0.0
undo,16,33,0,0,0,8,"[0, 8]",2,22,"[1, 2, 5, 7, 11, 12, 13, 14, 15, 16, 17, 18, 19, 20, 21, 23, 24, 25, 26, 27, 28, 29]",265.8679037,3534,3377,5,87,9,1.0
undo,16,33,0,0,0,21,"[0, 8, 21]",3,16,"[2, 5, 7, 11, 13, 14, 16, 17, 18, 19, 20, 24, 26, 27, 28, 29]",166.0430571,5834,2300,5,80,9,1.0670557763739492
undo,16,33,0,0,0,17,"[0, 8, 21, 17]",4,11,"[2, 7, 11, 13, 14, 16, 19, 20, 24, 26, 29]",127.4036989,7502,1668,1,18,9,1.0830294710276618
undo,16,33,0,0,0,13,"[0, 8, 21, 17, 13]",5,10,"[2, 7, 11, 14, 16, 19, 20, 24, 26, 29]",104.6001904,9923,2421,1,10,9,1.2861654105061844
undo,16,33,0,0,0,19,"[0, 8, 21, 17, 13, 19]",6,6,"[7, 14, 16, 24, 26, 29]",79.10509282,11169,1246,1,6,9,1.3181942666818214
undo,16,33,0,0,0,24,"[0, 8, 21, 17, 13, 19, 24]",7,1,[7],37.05750074,11955,786,1,0,8,1.2914654832859356
undo,16,33,0,0,1,7,"[0, 8, 21, 17, 13, 19, 24, 7]",8,0,[],7.851337003,13809,1854,1,0,8,1.370940443464748
undo,16,33,1,0,0,24,"[0, 8, 21, 17, 13, 19, 24]",7,1,[7],37.05750074,17641,3832,1,0,8,1.2914654832859356
undo,16,33,1,0,0,19,"[0, 8, 21, 17, 13, 19]",6,6,"[7, 14, 16, 24, 26, 29]",79.10509282,17891,250,1,6,9,1.3181942666818214
undo,16,33,1,0,0,13,"[0, 8, 21, 17, 13]",5,10,"[2, 7, 11, 14, 16, 19, 20, 24, 26, 29]",104.6001904,18125,234,1,10,9,1.2861654105061844
undo,16,33,1,0,0,17,"[0, 8, 21, 17]",4,11,"[2, 7, 11, 13, 14, 16, 19, 20, 24, 26, 29]",127.4036989,18408,283,1,18,9,1.0830294710276618
undo,16,33,1,0,0,21,"[0, 8, 21]",3,16,"[2, 5, 7, 11, 13, 14, 16, 17, 18, 19, 20, 24, 26, 27, 28, 29]",166.0430571,18791,383,5,80,9,1.0670557763739492
undo,16,33,0,0,0,17,"[0, 8, 21, 17]",4,11,"[2, 7, 11, 13, 14, 16, 19, 20, 24, 26, 29]",127.4036989,22551,3760,1,18,9,1.0830294710276618
undo,16,33,0,0,0,13,"[0, 8, 21, 17, 13]",5,10,"[2, 7, 11, 14, 16, 19, 20, 24, 26, 29]",104.6001904,23818,1267,1,10,9,1.2861654105061844
undo,16,33,0,0,0,19,"[0, 8, 21, 17, 13, 19]",6,6,"[7, 14, 16, 24, 26, 29]",79.10509282,26317,2499,1,6,9,1.3181942666818214
undo,16,33,0,0,0,7,"[0, 8, 21, 17, 13, 19, 7]",7,3,"[14, 24, 26]",33.48711391,28399,2082,1,2,9,1.25064167844248
undo,16,33,0,0,0,14,"[0, 8, 21, 17, 13, 19, 7, 14]",8,1,[26],18.62104516,29184,785,1,0,9,1.297007778404226
undo,16,33,0,0,1,26,"[0, 8, 21, 17, 13, 19, 7, 14, 26]",9,0,[],5.971934519,30800,1616,1,0,9,1.2996231319325615
undo,16,33,0,1,1,26,"[0, 8, 21, 17, 13, 19, 7, 14, 26]",9,0,[],5.971934519,37725,6925,1,0,9,1.2996231319325615
undo,17,42,0,0,0,0,[0],1,29,"[1, 2, 3, 4, 5, 6, 7, 8, 9, 10, 11, 12, 13, 14, 15, 16, 17, 18, 19, 20, 21, 22, 23, 24, 25, 26, 27, 28, 29]",300,185,-1,16,302,9,0.0
undo,17,42,0,0,0,25,"[0, 25]",2,27,"[1, 2, 3, 4, 5, 6, 7, 8, 9, 10, 11, 12, 13, 15, 16, 17, 18, 19, 20, 21, 22, 23, 24, 26, 27, 28, 29]",270.2678625,4734,4549,3,59,9,1.0
undo,17,42,0,0,0,29,"[0, 25, 29]",3,22,"[1, 2, 3, 4, 5, 6, 7, 8, 9, 11, 13, 15, 16, 17, 18, 20, 21, 22, 23, 24, 26, 27]",247.0730355,5517,783,1,23,9,1.0472889958702385
undo,17,42,0,0,0,5,"[0, 25, 29, 5]",4,11,"[1, 3, 4, 7, 8, 18, 20, 21, 22, 26, 27]",127.921871,7896,2379,3,16,8,1.5829677155700008
undo,17,42,0,0,0,4,"[0, 25, 29, 5, 4]",5,5,"[1, 3, 7, 8, 22]",108.0724378,8831,935,2,7,8,2.121426576300934
undo,17,42,0,0,0,22,"[0, 25, 29, 5, 4, 22]",6,4,"[1, 3, 7, 8]",96.89209787,9336,505,2,3,8,2.292408404706306
undo,17,42,0,0,0,8,"[0, 25, 29, 5, 4, 22, 8]",7,2,"[1, 7]",74.75615425,10434,1098,2,0,8,2.094951710310698
undo,17,42,0,0,1,1,"[0, 25, 29, 5, 4, 22, 8, 1]",8,0,[],25.66440342,11715,1281,1,0,8,1.761677030803899
undo,17,42,1,0,0,8,"[0, 25, 29, 5, 4, 22, 8]",7,2,"[1, 7]",74.75615425,14041,2326,2,0,8,2.094951710310698
undo,17,42,1,0,0,22,"[0, 25, 29, 5, 4, 22]",6,4,"[1, 3, 7, 8]",96.89209787,14275,234,2,3,8,2.292408404706306
undo,17,42,1,0,0,4,"[0, 25, 29, 5, 4]",5,5,"[1, 3, 7, 8, 22]",108.0724378,14491,216,2,7,8,2.121426576300934
undo,17,42,1,0,0,5,"[0, 25, 29, 5]",4,11,"[1, 3, 4, 7, 8, 18, 20, 21, 22, 26, 27]",127.921871,14708,217,3,16,8,1.5829677155700008
undo,17,42,1,0,0,29,"[0, 25, 29]",3,22,"[1, 2, 3, 4, 5, 6, 7, 8, 9, 11, 13, 15, 16, 17, 18, 20, 21, 22, 23, 24, 26, 27]",247.0730355,14941,233,1,23,9,1.0472889958702385
undo,17,42,1,0,0,25,"[0, 25]",2,27,"[1, 2, 3, 4, 5, 6, 7, 8, 9, 10, 11, 12, 13, 15, 16, 17, 18, 19, 20, 21, 22, 23, 24, 26, 27, 28, 29]",270.2678625,15375,434,3,59,9,1.0
undo,17,42,1,0,0,0,[0],1,29,"[1, 2, 3, 4, 5, 6, 7, 8, 9, 10, 11, 12, 13, 14, 15, 16, 17, 18, 19, 20, 21, 22, 23, 24, 25, 26, 27, 28, 29]",300,15791,416,16,302,9,0.0
undo,17,42,0,0,0,5,"[0, 5]",2,28,"[1, 2, 3, 4, 6, 7, 8, 9, 10, 11, 12, 13, 14, 15, 16, 17, 18, 19, 20, 21, 22, 23, 24, 25, 26, 27, 28, 29]",191.2939744,18157,2366,1,22,9,1.0
undo,17,42,0,0,0,4,"[0, 5, 4]",3,23,"[1, 2, 3, 6, 7, 8, 9, 10, 11, 13, 15, 17, 18, 19, 20, 21, 22, 23, 24, 25, 26, 27, 29]",171.4445412,19037,880,1,14,9,1.420957801478707
undo,17,42,0,0,0,22,"[0, 5, 4, 22]",4,20,"[1, 2, 3, 6, 7, 8, 9, 11, 15, 17, 18, 19, 20, 21, 23, 24, 25, 26, 27, 29]",160.2642013,19670,633,1,11,9,1.5771494659680896
undo,17,42,0,0,0,8,"[0, 5, 4, 22, 8]",5,14,"[1, 2, 3, 6, 7, 11, 15, 18, 19, 24, 25, 26, 27, 29]",138.1282577,20605,935,1,10,9,1.5055393955524201
undo,17,42,0,0,0,1,"[0, 5, 4, 22, 8, 1]",6,5,"[2, 7, 19, 26, 27]",89.03650682,21867,1262,1,7,9,1.3547259083637835
undo,17,42,0,0,0,7,"[0, 5, 4, 22, 8, 1, 7]",7,4,"[2, 19, 26, 27]",59.03650682,24101,2234,1,3,9,1.3909715672447451
undo,17,42,0,0,0,26,"[0, 5, 4, 22, 8, 1, 7, 26]",8,1,[27],32.46584631,25463,1362,1,0,9,1.3511825943939393
undo,17,42,0,0,1,27,"[0, 5, 4, 22, 8, 1, 7, 26, 27]",9,0,[],14.43808994,27401,1938,1,0,9,1.3391911688802078
undo,17,42,0,1,1,27,"[0, 5, 4, 22, 8, 1, 7, 26, 27]",9,0,[],14.43808994,31041,3640,1,0,9,1.3391911688802078
undo,18,3,0,0,0,0,[0],1,29,"[1, 2, 3, 4, 5, 6, 7, 8, 9, 10, 11, 12, 13, 14, 15, 16, 17, 18, 19, 20, 21, 22, 23, 24, 25, 26, 27, 28, 29]",300,167,-1,34,427,10,0.0
undo,18,3,0,0,0,7,"[0, 7]",2,28,"[1, 2, 3, 4, 5, 6, 8, 9, 10, 11, 12, 13, 14, 15, 16, 17, 18, 19, 20, 21, 22, 23, 24, 25, 26, 27, 28, 29]",278.8103799,4855,4688,24,215,10,1.0
undo,18,3,0,0,0,8,"[0, 7, 8]",3,24,"[1, 2, 3, 4, 5, 6, 10, 11, 12, 13, 14, 15, 16, 17, 18, 19, 20, 21, 22, 24, 25, 26, 27, 28]",222.837172,8958,4103,16,114,10,1.2853332575451413
undo,18,3,0,0,0,24,"[0, 7, 8, 24]",4,21,"[1, 3, 4, 5, 6, 10, 11, 12, 14, 15, 16, 17, 18, 19, 20, 21, 22, 25, 26, 27, 28]",210.671647,10039,1081,16,91,10,1.5177505014936548
undo,18,3,0,0,0,17,"[0, 7, 8, 24, 17]",5,9,"[3, 4, 10, 14, 15, 16, 19, 20, 21]",141.3174834,11510,1471,7,26,10,1.5510961300062232
undo,18,3,0,0,0,20,"[0, 7, 8, 24, 17, 20]",6,7,"[3, 4, 10, 14, 16, 19, 21]",128.6683728,13003,1493,7,14,10,1.5133082717474817
undo,18,3,0,0,0,3,"[0, 7, 8, 24, 17, 20, 3]",7,5,"[4, 10, 14, 19, 21]",108.2722947,14135,1132,7,4,10,1.5325960555943097
undo,18,3,0,0,0,19,"[0, 7, 8, 24, 17, 20, 3, 19]",8,3,"[10, 14, 21]",70.93598532,15583,1448,3,1,10,1.5521294182529992
undo,18,3,0,0,0,21,"[0, 7, 8, 24, 17, 20, 3, 19, 21]",9,2,"[10, 14]",58.72942971,16759,1176,2,0,10,1.5690424431931145
undo,18,3,0,0,1,14,"[0, 7, 8, 24, 17, 20, 3, 19, 21, 14]",10,0,[],31.82218161,19350,2591,1,0,10,2.0836613372745463
undo,18,3,1,0,0,21,"[0, 7, 8, 24, 17, 20, 3, 19, 21]",9,2,"[10, 14]",58.72942971,28893,9543,2,0,10,1.5690424431931145
undo,18,3,1,0,0,19,"[0, 7, 8, 24, 17, 20, 3, 19]",8,3,"[10, 14, 21]",70.93598532,29094,201,3,1,10,1.5521294182529992
undo,18,3,1,0,0,3,"[0, 7, 8, 24, 17, 20, 3]",7,5,"[4, 10, 14, 19, 21]",108.2722947,29277,183,7,4,10,1.5325960555943097
undo,18,3,1,0,0,20,"[0, 7, 8, 24, 17, 20]",6,7,"[3, 4, 10, 14, 16, 19, 21]",128.6683728,29443,166,7,14,10,1.5133082717474817
undo,18,3,1,0,0,17,"[0, 7, 8, 24, 17]",5,9,"[3, 4, 10, 14, 15, 16, 19, 20, 21]",141.3174834,29610,167,7,26,10,1.5510961300062232
undo,18,3,1,0,0,24,"[0, 7, 8, 24]",4,21,"[1, 3, 4, 5, 6, 10, 11, 12, 14, 15, 16, 17, 18, 19, 20, 21, 22, 25, 26, 27, 28]",210.671647,29960,350,16,91,10,1.5177505014936548
undo,18,3,1,0,0,8,"[0, 7, 8]",3,24,"[1, 2, 3, 4, 5, 6, 10, 11, 12, 13, 14, 15, 16, 17, 18, 19, 20, 21, 22, 24, 25, 26, 27, 28]",222.837172,30176,216,16,114,10,1.2853332575451413
undo,18,3,1,0,0,7,"[0, 7]",2,28,"[1, 2, 3, 4, 5, 6, 8, 9, 10, 11, 12, 13, 14, 15, 16, 17, 18, 19, 20, 21, 22, 23, 24, 25, 26, 27, 28, 29]",278.8103799,30660,484,24,215,10,1.0
undo,18,3,1,0,0,0,[0],1,29,"[1, 2, 3, 4, 5, 6, 7, 8, 9, 10, 11, 12, 13, 14, 15, 16, 17, 18, 19, 20, 21, 22, 23, 24, 25, 26, 27, 28, 29]",300,31477,817,34,427,10,0.0
undo,18,3,0,0,0,15,"[0, 15]",2,28,"[1, 2, 3, 4, 5, 6, 7, 8, 9, 10, 11, 12, 13, 14, 16, 17, 18, 19, 20, 21, 22, 23, 24, 25, 26, 27, 28, 29]",268.1723391,37309,5832,8,84,10,1.0
undo,18,3,0,0,0,7,"[0, 15, 7]",3,27,"[1, 2, 3, 4, 5, 6, 8, 9, 10, 11, 12, 13, 14, 16, 17, 18, 19, 20, 21, 22, 23, 24, 25, 26, 27, 28, 29]",238.1057463,38542,1233,8,69,10,2.9209704282891646
undo,18,3,0,0,0,8,"[0, 15, 7, 8]",4,18,"[3, 4, 5, 6, 10, 11, 14, 16, 17, 18, 19, 20, 21, 22, 24, 26, 27, 28]",182.1325384,40070,1528,6,40,10,1.9633672365780177
undo,18,3,0,0,0,24,"[0, 15, 7, 8, 24]",5,14,"[3, 4, 5, 10, 14, 16, 17, 18, 19, 20, 21, 22, 26, 27]",169.9670134,41101,1031,6,34,10,2.209350379748608
undo,18,3,0,0,0,17,"[0, 15, 7, 8, 24, 17]",6,5,"[3, 14, 19, 20, 21]",100.6128498,42570,1469,3,7,10,1.9489773900408984
undo,18,3,0,0,0,20,"[0, 15, 7, 8, 24, 17, 20]",7,4,"[3, 14, 19, 21]",87.9637392,43226,656,3,4,10,1.872837097405716
undo,18,3,0,0,0,3,"[0, 15, 7, 8, 24, 17, 20, 3]",8,3,"[14, 19, 21]",67.56766115,45869,2643,3,1,10,1.8579729265349425
undo,18,3,0,0,0,19,"[0, 15, 7, 8, 24, 17, 20, 3, 19]",9,2,"[14, 21]",30.23135174,47589,1720,2,0,10,1.8279425324472436
undo,18,3,0,0,1,21,"[0, 15, 7, 8, 24, 17, 20, 3, 19, 21]",10,0,[],18.02479613,49854,2265,1,0,10,1.8337547852117746
undo,18,3,0,1,1,21,"[0, 15, 7, 8, 24, 17, 20, 3, 19, 21]",10,0,[],18.02479613,55278,5424,1,0,10,1.8337547852117746
undo,19,11,0,0,0,0,[0],1,25,"[1, 2, 3, 4, 5, 6, 8, 9, 10, 11, 12, 13, 14, 15, 16, 17, 18, 19, 20, 22, 23, 25, 26, 27, 28]",300,179,-1,6,374,12,0.0
undo,19,11,0,0,0,1,"[0, 1]",2,24,"[2, 3, 4, 5, 6, 8, 9, 10, 11, 12, 13, 14, 15, 16, 17, 18, 19, 20, 22, 23, 25, 26, 27, 28]",264.6446609,3872,3693,6,217,12,1.0
undo,19,11,0,0,0,18,"[0, 1, 18]",3,19,"[2, 4, 5, 6, 8, 9, 11, 12, 14, 15, 16, 17, 19, 20, 22, 23, 25, 27, 28]",212.3187591,6933,3061,6,161,12,1.3884463804898786
undo,19,11,0,0,0,27,"[0, 1, 18, 27]",4,18,"[2, 4, 5, 6, 8, 9, 11, 12, 14, 15, 16, 17, 19, 20, 22, 23, 25, 28]",188.4650382,7801,868,6,155,12,1.3600813284083875
undo,19,11,0,0,0,8,"[0, 1, 18, 27, 8]",5,11,"[2, 5, 6, 11, 12, 15, 17, 19, 22, 25, 28]",118.2510795,10103,2302,4,75,12,1.2516561493067806
undo,19,11,0,0,0,17,"[0, 1, 18, 27, 8, 17]",6,10,"[2, 5, 6, 11, 12, 15, 19, 22, 25, 28]",103.9332585,13840,3737,4,40,12,1.3330781007673067
undo,19,11,0,0,0,15,"[0, 1, 18, 27, 8, 17, 15]",7,7,"[2, 5, 11, 12, 19, 22, 28]",91.28414782,16140,2300,4,35,12,1.3305073448996472
undo,19,11,0,0,0,11,"[0, 1, 18, 27, 8, 17, 15, 11]",8,5,"[2, 5, 19, 22, 28]",73.17337754,17352,1212,4,17,12,1.308363545391271
undo,19,11,0,0,0,5,"[0, 1, 18, 27, 8, 17, 15, 11, 5]",9,3,"[2, 22, 28]",37.94554764,22751,5399,5,0,11,1.610730105137712
undo,19,11,0,0,0,28,"[0, 1, 18, 27, 8, 17, 15, 11, 5, 28]",10,2,"[2, 22]",20.05700382,23913,1162,2,0,11,1.6200090202692834
undo,19,11,0,0,1,2,"[0, 1, 18, 27, 8, 17, 15, 11, 5, 28, 2]",11,0,[],9.426858002,25118,1205,1,0,11,1.6279693178231827
undo,19,11,1,0,0,28,"[0, 1, 18, 27, 8, 17, 15, 11, 5, 28]",10,2,"[2, 22]",20.05700382,38925,13807,2,0,11,1.6200090202692834
undo,19,11,1,0,0,5,"[0, 1, 18, 27, 8, 17, 15, 11, 5]",9,3,"[2, 22, 28]",37.94554764,39125,200,5,0,11,1.610730105137712
undo,19,11,1,0,0,11,"[0, 1, 18, 27, 8, 17, 15, 11]",8,5,"[2, 5, 19, 22, 28]",73.17337754,39309,184,4,17,12,1.308363545391271
undo,19,11,1,0,0,15,"[0, 1, 18, 27, 8, 17, 15]",7,7,"[2, 5, 11, 12, 19, 22, 28]",91.28414782,39492,183,4,35,12,1.3305073448996472
undo,19,11,1,0,0,17,"[0, 1, 18, 27, 8, 17]",6,10,"[2, 5, 6, 11, 12, 15, 19, 22, 25, 28]",103.9332585,39675,183,4,40,12,1.3330781007673067
undo,19,11,1,0,0,8,"[0, 1, 18, 27, 8]",5,11,"[2, 5, 6, 11, 12, 15, 17, 19, 22, 25, 28]",118.2510795,39892,217,4,75,12,1.2516561493067806
undo,19,11,1,0,0,27,"[0, 1, 18, 27]",4,18,"[2, 4, 5, 6, 8, 9, 11, 12, 14, 15, 16, 17, 19, 20, 22, 23, 25, 28]",188.4650382,40542,650,6,155,12,1.3600813284083875
undo,19,11,0,0,0,17,"[0, 1, 18, 27, 17]",5,11,"[2, 5, 6, 8, 11, 12, 15, 19, 22, 25, 28]",111.3871556,43135,2593,2,45,12,1.282398281674261
undo,19,11,0,0,0,8,"[0, 1, 18, 27, 17, 8]",6,7,"[2, 5, 11, 12, 15, 22, 28]",97.0693345,44616,1481,2,21,12,1.3975291553712
undo,19,11,0,0,0,15,"[0, 1, 18, 27, 17, 8, 15]",7,6,"[2, 5, 11, 12, 22, 28]",83.61571045,45500,884,2,18,12,1.3793915678186077
undo,19,11,0,0,0,11,"[0, 1, 18, 27, 17, 8, 15, 11]",8,4,"[2, 5, 22, 28]",65.50494017,46497,997,2,14,12,1.3525960247899067
undo,19,11,0,0,0,5,"[0, 1, 18, 27, 17, 8, 15, 11, 5]",9,3,"[2, 22, 28]",30.27711026,48637,2140,3,1,11,1.6578645187532492
undo,19,11,0,0,0,28,"[0, 1, 18, 27, 17, 8, 15, 11, 5, 28]",10,1,[2],12.38856644,49604,967,1,0,11,1.6643856894358244
undo,19,11,0,0,1,2,"[0, 1, 18, 27, 17, 8, 15, 11, 5, 28, 2]",11,0,[],1.758420632,50835,1231,1,0,11,1.6709326167301912
undo,19,11,0,1,1,2,"[0, 1, 18, 27, 17, 8, 15, 11, 5, 28, 2]",11,0,[],1.758420632,63775,12940,1,0,11,1.6709326167301912
undo,20,23,0,0,0,0,[0],1,28,"[1, 2, 3, 4, 5, 6, 7, 8, 9, 10, 11, 12, 13, 14, 15, 16, 17, 18, 19, 20, 21, 22, 23, 25, 26, 27, 28, 29]",300,158,-1,76,2626,10,0.0
undo,20,23,0,0,0,22,"[0, 22]",2,24,"[1, 2, 3, 5, 6, 7, 8, 9, 10, 11, 12, 13, 14, 15, 17, 18, 19, 20, 21, 23, 25, 26, 27, 29]",210.5013967,9653,9495,15,1362,10,1.0
undo,20,23,0,0,0,13,"[0, 22, 13]",3,14,"[1, 2, 5, 6, 7, 8, 9, 10, 12, 14, 18, 21, 27, 29]",168.3113504,10918,1265,14,522,10,1.1898173563652046
undo,20,23,0,0,0,27,"[0, 22, 13, 27]",4,7,"[2, 6, 9, 12, 14, 18, 29]",123.2114613,12436,1518,59,60,9,1.2347447137291254
undo,20,23,0,0,0,6,"[0, 22, 13, 27, 6]",5,5,"[2, 9, 12, 14, 29]",94.90951791,16472,4036,25,4,9,1.3650572476361236
undo,20,23,0,0,0,2,"[0, 22, 13, 27, 6, 2]",6,4,"[9, 12, 14, 29]",76.47042899,17819,1347,7,2,9,1.6380738772667878
undo,20,23,0,0,0,12,"[0, 22, 13, 27, 6, 2, 12]",7,2,"[9, 14]",62.577985,18619,800,2,0,9,1.9367358574807247
undo,20,23,0,0,0,9,"[0, 22, 13, 27, 6, 2, 12, 9]",8,1,[14],48.26016394,19571,952,1,0,9,1.926849993362044
undo,20,23,0,0,1,14,"[0, 22, 13, 27, 6, 2, 12, 9, 14]",9,0,[],37.81985743,20639,1068,1,0,9,1.860885019505484
undo,20,23,1,0,0,9,"[0, 22, 13, 27, 6, 2, 12, 9]",8,1,[14],48.26016394,27976,7337,1,0,9,1.926849993362044
undo,20,23,1,0,0,12,"[0, 22, 13, 27, 6, 2, 12]",7,2,"[9, 14]",62.577985,28160,184,2,0,9,1.9367358574807247
undo,20,23,1,0,0,2,"[0, 22, 13, 27, 6, 2]",6,4,"[9, 12, 14, 29]",76.47042899,28343,183,7,2,9,1.6380738772667878
undo,20,23,1,0,0,6,"[0, 22, 13, 27, 6]",5,5,"[2, 9, 12, 14, 29]",94.90951791,28525,182,25,4,9,1.3650572476361236
undo,20,23,1,0,0,27,"[0, 22, 13, 27]",4,7,"[2, 6, 9, 12, 14, 18, 29]",123.2114613,28693,168,59,60,9,1.2347447137291254
undo,20,23,1,0,0,13,"[0, 22, 13]",3,14,"[1, 2, 5, 6, 7, 8, 9, 10, 12, 14, 18, 21, 27, 29]",168.3113504,28860,167,14,522,10,1.1898173563652046
undo,20,23,1,0,0,22,"[0, 22]",2,24,"[1, 2, 3, 5, 6, 7, 8, 9, 10, 11, 12, 13, 14, 15, 17, 18, 19, 20, 21, 23, 25, 26, 27, 29]",210.5013967,29043,183,15,1362,10,1.0
undo,20,23,1,0,0,0,[0],1,28,"[1, 2, 3, 4, 5, 6, 7, 8, 9, 10, 11, 12, 13, 14, 15, 16, 17, 18, 19, 20, 21, 22, 23, 25, 26, 27, 28, 29]",300,29393,350,76,2626,10,0.0
undo,20,23,0,0,0,18,"[0, 18]",2,14,"[2, 5, 6, 7, 9, 10, 12, 13, 14, 19, 21, 22, 27, 29]",203.8958898,32536,3143,73,787,9,1.0
undo,20,23,0,0,0,27,"[0, 18, 27]",3,9,"[2, 6, 7, 9, 12, 13, 14, 22, 29]",128.5832083,34318,1782,51,277,9,1.1972268052690318
undo,20,23,0,0,0,13,"[0, 18, 27, 13]",4,7,"[2, 6, 9, 12, 14, 22, 29]",83.48331912,36110,1792,5,41,9,1.9562453228589431
undo,20,23,1,0,0,27,"[0, 18, 27]",3,9,"[2, 6, 7, 9, 12, 13, 14, 22, 29]",128.5832083,38176,2066,51,277,9,1.1972268052690318
undo,20,23,0,0,0,6,"[0, 18, 27, 6]",4,8,"[2, 7, 9, 12, 13, 14, 22, 29]",100.2812649,40156,1980,43,68,9,1.3293035545030156
undo,20,23,0,0,0,2,"[0, 18, 27, 6, 2]",5,6,"[9, 12, 13, 14, 22, 29]",81.84217594,44589,4433,16,17,9,1.5987085337271232
undo,20,23,0,0,0,14,"[0, 18, 27, 6, 2, 14]",6,5,"[9, 12, 13, 22, 29]",66.97610719,46652,2063,5,3,9,1.653941702320971
undo,20,23,0,0,0,9,"[0, 18, 27, 6, 2, 14, 9]",7,4,"[12, 13, 22, 29]",56.53580068,47524,872,2,2,9,1.8635071754469044
undo,20,23,0,0,0,12,"[0, 18, 27, 6, 2, 14, 9, 12]",8,1,[13],42.21797962,48724,1200,1,0,9,2.1028196660017944
undo,20,23,0,0,1,13,"[0, 18, 27, 6, 2, 14, 9, 12, 13]",9,0,[],30.13493365,49986,1262,1,0,9,2.43825220165275
undo,20,23,0,1,1,13,"[0, 18, 27, 6, 2, 14, 9, 12, 13]",9,0,[],30.13493365,55360,5374,1,0,9,2.43825220165275
undo,21,16,0,0,0,0,[0],1,29,"[1, 2, 3, 4, 5, 6, 7, 8, 9, 10, 11, 12, 13, 14, 15, 16, 17, 18, 19, 20, 21, 22, 23, 24, 25, 26, 27, 28, 29]",300,172,-1,13,161,9,0.0
undo,21,16,0,0,0,28,"[0, 28]",2,27,"[1, 2, 3, 4, 5, 7, 8, 9, 10, 11, 12, 13, 14, 15, 16, 17, 18, 19, 20, 21, 22, 23, 24, 25, 26, 27, 29]",284.3475242,6403,6231,11,92,9,1.0
undo,21,16,0,0,0,17,"[0, 28, 17]",3,26,"[1, 2, 3, 4, 5, 7, 8, 9, 10, 11, 12, 13, 14, 15, 16, 18, 19, 20, 21, 22, 23, 24, 25, 26, 27, 29]",219.1555001,8159,1756,10,46,9,1.3773866384707543
undo,21,16,0,0,0,16,"[0, 28, 17, 16]",4,25,"[1, 2, 3, 4, 5, 7, 8, 9, 10, 11, 12, 13, 14, 15, 18, 19, 20, 21, 22, 23, 24, 25, 26, 27, 29]",190.8358956,9321,1162,10,34,9,1.3209953830681203
undo,21,16,0,0,0,21,"[0, 28, 17, 16, 21]",5,13,"[3, 5, 7, 8, 9, 10, 12, 15, 20, 22, 25, 26, 29]",146.1816685,10394,1073,4,7,9,1.8136482702070456
undo,21,16,0,0,0,8,"[0, 28, 17, 16, 21, 8]",6,6,"[5, 9, 12, 15, 20, 25]",96.92722704,11851,1457,4,2,9,1.637204572335983
undo,21,16,0,0,0,20,"[0, 28, 17, 16, 21, 8, 20]",7,2,"[9, 25]",39.15179974,14488,2637,2,0,9,1.441590377328759
undo,21,16,0,0,0,25,"[0, 28, 17, 16, 21, 8, 20, 25]",8,1,[9],26.5026891,15344,856,1,0,9,1.484361110265371
undo,21,16,0,0,1,9,"[0, 28, 17, 16, 21, 8, 20, 25, 9]",9,0,[],13.69644062,16224,880,1,0,9,1.4530180692918209
undo,21,16,0,1,1,9,"[0, 28, 17, 16, 21, 8, 20, 25, 9]",9,0,[],13.69644062,29529,13305,1,0,9,1.4530180692918209
undo,22,39,0,0,0,0,[0],1,28,"[1, 2, 3, 4, 5, 6, 7, 9, 10, 11, 12, 13, 14, 15, 16, 17, 18, 19, 20, 21, 22, 23, 24, 25, 26, 27, 28, 29]",300,231,-1,1,30,10,0.0
undo,22,39,0,0,0,14,"[0, 14]",2,26,"[1, 2, 3, 4, 5, 6, 7, 9, 10, 12, 13, 15, 16, 17, 18, 19, 20, 21, 22, 23, 24, 25, 26, 27, 28, 29]",286.9615952,9092,8861,1,22,10,1.0
undo,22,39,0,0,0,29,"[0, 14, 29]",3,23,"[1, 2, 3, 4, 5, 6, 7, 9, 10, 12, 13, 15, 16, 17, 18, 19, 21, 22, 23, 24, 25, 26, 28]",218.9321898,11271,2179,1,21,10,1.4237768813412561
undo,22,39,0,0,0,12,"[0, 14, 29, 12]",4,16,"[1, 2, 4, 5, 7, 9, 10, 13, 15, 16, 18, 19, 22, 23, 24, 26]",158.3929463,13391,2120,1,11,10,1.2085522586932163
undo,22,39,0,0,0,10,"[0, 14, 29, 12, 10]",5,11,"[1, 4, 5, 7, 15, 16, 18, 19, 22, 23, 26]",122.8823845,14405,1014,1,8,10,1.4905426536315662
undo,22,39,0,0,0,7,"[0, 14, 29, 12, 10, 7]",6,6,"[1, 16, 18, 19, 22, 26]",89.46083457,16871,2466,1,6,10,1.3836596018032035
undo,22,39,0,0,0,26,"[0, 14, 29, 12, 10, 7, 26]",7,3,"[16, 19, 22]",70.77929288,17754,883,1,4,10,1.4191124441944845
undo,22,39,0,0,0,22,"[0, 14, 29, 12, 10, 7, 26, 22]",8,2,"[16, 19]",53.05924773,18770,1016,1,1,10,1.594793297833885
undo,22,39,0,0,0,16,"[0, 14, 29, 12, 10, 7, 26, 22, 16]",9,1,[19],18.05924773,21210,2440,1,0,10,1.48519520801471
undo,22,39,0,0,1,19,"[0, 14, 29, 12, 10, 7, 26, 22, 16, 19]",10,0,[],0.594998533,24574,3364,1,0,10,1.484277847976571
undo,22,39,0,1,1,19,"[0, 14, 29, 12, 10, 7, 26, 22, 16, 19]",10,0,[],0.594998533,35114,10540,1,0,10,1.484277847976571
basic,23,37,0,0,0,0,[0],1,29,"[1, 2, 3, 4, 5, 6, 7, 8, 9, 10, 11, 12, 13, 14, 15, 16, 17, 18, 19, 20, 21, 22, 23, 24, 25, 26, 27, 28, 29]",300,280,-1,6,168,10,0.0
basic,23,37,0,0,0,19,"[0, 19]",2,19,"[1, 2, 4, 5, 6, 7, 9, 10, 11, 15, 17, 18, 20, 21, 22, 25, 26, 28, 29]",185.6627795,5537,5257,25,244,9,1.0
basic,23,37,0,0,0,21,"[0, 19, 21]",3,14,"[1, 2, 4, 7, 10, 11, 15, 17, 18, 20, 22, 25, 26, 29]",144.5531699,10224,4687,10,75,9,1.001632816594558
basic,23,37,0,0,0,15,"[0, 19, 21, 15]",4,9,"[1, 2, 4, 7, 18, 20, 22, 26, 29]",129.5531699,12525,2301,5,32,9,1.0243376499143988
basic,23,37,0,0,0,20,"[0, 19, 21, 15, 20]",5,8,"[1, 2, 4, 7, 18, 22, 26, 29]",112.5531699,13349,824,5,14,9,1.250507291508492
basic,23,37,0,0,0,1,"[0, 19, 21, 15, 20, 1]",6,6,"[2, 4, 7, 18, 22, 26]",78.31868434,14729,1380,4,4,9,1.4002166443864243
basic,23,37,0,0,0,2,"[0, 19, 21, 15, 20, 1, 2]",7,4,"[4, 7, 18, 22]",61.11403381,15817,1088,2,2,9,1.5802253600182588
basic,23,37,0,0,0,4,"[0, 19, 21, 15, 20, 1, 2, 4]",8,1,[22],49.71227956,16776,959,1,0,9,1.5399187067712754
basic,23,37,0,0,1,22,"[0, 19, 21, 15, 20, 1, 2, 4, 22]",9,0,[],24.71227956,18424,1648,1,0,9,1.6903775033413582
basic,23,37,0,1,1,22,"[0, 19, 21, 15, 20, 1, 2, 4, 22]",9,0,[],24.71227956,25465,7041,1,0,9,1.6903775033413582
basic,24,5,0,0,0,0,[0],1,29,"[1, 2, 3, 4, 5, 6, 7, 8, 9, 10, 11, 12, 13, 14, 15, 16, 17, 18, 19, 20, 21, 22, 23, 24, 25, 26, 27, 28, 29]",300,180,-1,5,139,9,0.0
basic,24,5,0,0,0,12,"[0, 12]",2,22,"[2, 4, 5, 6, 8, 9, 10, 13, 14, 15, 16, 17, 18, 19, 21, 22, 23, 24, 25, 26, 27, 28]",228.3062067,8017,7837,1,27,9,1.0
basic,24,5,0,0,0,25,"[0, 12, 25]",3,21,"[2, 4, 5, 6, 8, 9, 10, 13, 14, 15, 16, 17, 18, 19, 21, 22, 23, 24, 26, 27, 28]",200.5213187,9218,1201,1,20,9,1.584023303445617
basic,24,5,0,0,0,23,"[0, 12, 25, 23]",4,19,"[2, 4, 5, 6, 8, 9, 10, 13, 14, 15, 16, 17, 18, 19, 21, 22, 24, 26, 27]",182.0822298,12125,2907,1,14,9,2.3508446989254357
basic,24,5,0,0,0,24,"[0, 12, 25, 23, 24]",5,15,"[2, 4, 5, 6, 8, 9, 13, 14, 15, 17, 18, 19, 22, 26, 27]",158.995437,13238,1113,1,12,9,1.9469752046288753
basic,24,5,0,0,0,17,"[0, 12, 25, 23, 24, 17]",6,7,"[4, 5, 6, 8, 15, 18, 19]",124.0097257,14503,1265,1,8,9,1.6482276497563642
basic,24,5,0,0,0,5,"[0, 12, 25, 23, 24, 17, 5]",7,4,"[4, 6, 15, 18]",80.96323916,29780,15277,1,3,9,1.4654649104389412
basic,24,5,0,0,0,4,"[0, 12, 25, 23, 24, 17, 5, 4]",8,1,[6],15.16050365,32144,2364,1,0,9,1.6255060355828674
basic,24,5,0,0,1,6,"[0, 12, 25, 23, 24, 17, 5, 4, 6]",9,0,[],3.118909076,33588,1444,1,0,9,1.7777310833772453
basic,24,5,0,1,1,6,"[0, 12, 25, 23, 24, 17, 5, 4, 6]",9,0,[],3.118909076,38323,4735,1,0,9,1.7777310833772453
basic,25,39,0,0,0,0,[0],1,28,"[1, 2, 3, 4, 5, 6, 7, 9, 10, 11, 12, 13, 14, 15, 16, 17, 18, 19, 20, 21, 22, 23, 24, 25, 26, 27, 28, 29]",300,156,-1,1,30,10,0.0
basic,25,39,0,0,0,29,"[0, 29]",2,26,"[1, 2, 3, 4, 5, 6, 7, 9, 10, 12, 13, 14, 15, 16, 17, 18, 19, 20, 21, 22, 23, 24, 25, 26, 27, 28]",243.0614366,5737,5581,8,104,9,1.0
basic,25,39,0,0,0,12,"[0, 29, 12]",3,18,"[1, 2, 4, 5, 7, 9, 10, 13, 14, 15, 16, 18, 19, 22, 23, 24, 26, 28]",182.5221931,7063,1326,5,54,9,1.0026200331524904
basic,25,39,0,0,0,10,"[0, 29, 12, 10]",4,16,"[1, 2, 4, 5, 7, 9, 13, 14, 15, 16, 18, 19, 22, 23, 24, 26]",147.0116313,8070,1007,5,34,9,1.2874817019928908
basic,25,39,0,0,0,7,"[0, 29, 12, 10, 7]",5,10,"[1, 2, 5, 13, 16, 18, 19, 22, 24, 26]",113.5900814,10773,2703,4,12,9,1.2250826263866774
basic,25,39,0,0,0,26,"[0, 29, 12, 10, 7, 26]",6,5,"[1, 16, 18, 19, 22]",94.90853971,11713,940,3,4,9,1.2697275353190085
basic,25,39,0,0,0,22,"[0, 29, 12, 10, 7, 26, 22]",7,2,"[16, 19]",77.18849457,13183,1470,2,0,9,1.438961743955176
basic,25,39,0,0,0,16,"[0, 29, 12, 10, 7, 26, 22, 16]",8,1,[19],42.18849457,17340,4157,1,0,9,1.3580882130477205
basic,25,39,0,0,1,19,"[0, 29, 12, 10, 7, 26, 22, 16, 19]",9,0,[],24.72424537,20287,2947,1,0,9,1.3646589157842668
basic,25,39,0,1,1,19,"[0, 29, 12, 10, 7, 26, 22, 16, 19]",9,0,[],24.72424537,32157,11870,1,0,9,1.3646589157842668
basic,26,28,0,0,0,0,[0],1,27,"[1, 2, 3, 4, 5, 6, 7, 8, 9, 10, 11, 12, 13, 14, 15, 16, 17, 18, 19, 20, 22, 23, 25, 26, 27, 28, 29]",300,172,-1,2,96,9,0.0
basic,26,28,0,0,0,3,"[0, 3]",2,26,"[1, 2, 4, 5, 6, 7, 8, 9, 10, 11, 12, 13, 14, 15, 16, 17, 18, 19, 20, 22, 23, 25, 26, 27, 28, 29]",251.0817008,6083,5911,1,64,9,1.0
basic,26,28,0,0,0,5,"[0, 3, 5]",3,20,"[2, 4, 6, 7, 8, 9, 10, 11, 12, 13, 14, 15, 18, 19, 20, 23, 25, 26, 28, 29]",166.9865166,7320,1237,1,34,9,1.0203769473612083
basic,26,28,0,0,0,26,"[0, 3, 5, 26]",4,13,"[2, 4, 7, 8, 9, 12, 13, 14, 18, 19, 20, 25, 28]",134.2298379,8132,812,1,28,9,1.0315203228799597
basic,26,28,0,0,0,2,"[0, 3, 5, 26, 2]",5,10,"[4, 7, 8, 9, 12, 13, 18, 19, 25, 28]",93.86896575,11081,2949,7,13,8,1.027257996419408
basic,26,28,0,0,0,19,"[0, 3, 5, 26, 2, 19]",6,4,"[7, 12, 13, 18]",56.50588236,12849,1768,4,1,8,1.3335988625919608
basic,26,28,0,0,0,7,"[0, 3, 5, 26, 2, 19, 7]",7,2,"[12, 13]",28.77503312,13915,1066,2,0,8,1.3845940052005818
basic,26,28,0,0,1,12,"[0, 3, 5, 26, 2, 19, 7, 12]",8,0,[],15.62208668,14919,1004,1,0,8,1.380328942242059
basic,26,28,0,1,1,12,"[0, 3, 5, 26, 2, 19, 7, 12]",8,0,[],15.62208668,23289,8370,1,0,8,1.380328942242059
basic,27,41,0,0,0,0,[0],1,29,"[1, 2, 3, 4, 5, 6, 7, 8, 9, 10, 11, 12, 13, 14, 15, 16, 17, 18, 19, 20, 21, 22, 23, 24, 25, 26, 27, 28, 29]",300,182,-1,1,143,10,0.0
basic,27,41,0,0,0,13,"[0, 13]",2,23,"[1, 2, 3, 5, 6, 7, 9, 10, 11, 12, 14, 15, 17, 18, 19, 20, 21, 22, 24, 25, 26, 27, 28]",258.2747079,10824,10642,1,55,10,1.0
basic,27,41,0,0,0,28,"[0, 13, 28]",3,22,"[1, 2, 3, 5, 6, 7, 9, 10, 11, 12, 14, 15, 17, 18, 19, 20, 21, 22, 24, 25, 26, 27]",223.7928286,11960,1136,1,39,10,1.895724242592676
basic,27,41,0,0,0,5,"[0, 13, 28, 5]",4,19,"[1, 2, 3, 6, 9, 10, 11, 12, 14, 15, 17, 18, 19, 20, 21, 22, 24, 25, 27]",210.1913581,12705,745,1,34,10,2.861541269398273
basic,27,41,0,0,0,22,"[0, 13, 28, 5, 22]",5,12,"[2, 3, 6, 9, 10, 11, 12, 17, 18, 20, 21, 25]",155.4464953,14289,1584,11,12,9,2.096079268852861
basic,27,41,0,0,0,3,"[0, 13, 28, 5, 22, 3]",6,8,"[2, 9, 10, 12, 17, 18, 20, 21]",125.4798472,16039,1750,7,5,9,4.404491319005463
basic,27,41,0,0,0,21,"[0, 13, 28, 5, 22, 3, 21]",7,4,"[2, 9, 12, 17]",93.33952984,17549,1510,5,1,9,4.228139797553632
basic,27,41,0,0,0,17,"[0, 13, 28, 5, 22, 3, 21, 17]",8,2,"[2, 9]",41.67716443,18558,1009,2,0,9,4.075283564568108
basic,27,41,0,0,1,9,"[0, 13, 28, 5, 22, 3, 21, 17, 9]",9,0,[],10.66103959,19617,1059,1,0,9,3.515996564079767
basic,27,41,0,1,1,9,"[0, 13, 28, 5, 22, 3, 21, 17, 9]",9,0,[],10.66103959,30883,11266,1,0,9,3.515996564079767
basic,28,38,0,0,0,0,[0],1,29,"[1, 2, 3, 4, 5, 6, 7, 8, 9, 10, 11, 12, 13, 14, 15, 16, 17, 18, 19, 20, 21, 22, 23, 24, 25, 26, 27, 28, 29]",300,157,-1,33,506,9,0.0
basic,28,38,0,0,0,19,"[0, 19]",2,23,"[3, 4, 5, 6, 7, 8, 9, 11, 13, 14, 15, 16, 17, 18, 20, 22, 23, 24, 25, 26, 27, 28, 29]",219.5015528,18421,18264,6,61,9,1.0
basic,28,38,0,0,0,17,"[0, 19, 17]",3,21,"[3, 4, 5, 6, 7, 9, 11, 13, 14, 15, 16, 18, 20, 22, 23, 24, 25, 26, 27, 28, 29]",198.1239945,19597,1176,6,53,9,1.571793785769489
basic,28,38,0,0,0,20,"[0, 19, 17, 20]",4,17,"[3, 4, 5, 6, 7, 11, 13, 14, 15, 16, 18, 22, 24, 25, 26, 27, 28]",174.3542658,20700,1103,6,44,9,2.333182710277297
basic,28,38,0,0,0,11,"[0, 19, 17, 20, 11]",5,7,"[4, 5, 13, 14, 15, 16, 28]",89.6370893,23585,2885,9,3,7,2.6326232989789347
basic,28,38,0,0,0,15,"[0, 19, 17, 20, 11, 15]",6,3,"[4, 13, 16]",53.23653985,26735,3150,3,0,7,3.3630112934844765
basic,28,38,0,0,1,4,"[0, 19, 17, 20, 11, 15, 4]",7,0,[],27.23653985,28568,1833,1,0,7,3.890274567029381
basic,28,38,0,1,1,4,"[0, 19, 17, 20, 11, 15, 4]",7,0,[],27.23653985,35257,6689,1,0,7,3.890274567029381
basic,29,45,0,0,0,0,[0],1,24,"[1, 2, 3, 4, 5, 6, 7, 9, 10, 11, 12, 14, 15, 16, 17, 19, 20, 21, 22, 23, 24, 25, 27, 29]",300,163,-1,6,248,10,0.0
basic,29,45,0,0,0,15,"[0, 15]",2,23,"[1, 2, 3, 4, 5, 6, 7, 9, 10, 11, 12, 14, 16, 17, 19, 20, 21, 22, 23, 24, 25, 27, 29]",253.9022777,4139,3976,5,207,10,1.0
basic,29,45,0,0,0,23,"[0, 15, 23]",3,22,"[1, 2, 3, 4, 5, 6, 7, 9, 10, 11, 12, 14, 16, 17, 19, 20, 21, 22, 24, 25, 27, 29]",230.3014303,5518,1379,5,163,10,1.0006068457769497
basic,29,45,0,0,0,20,"[0, 15, 23, 20]",4,19,"[1, 2, 3, 5, 6, 7, 9, 10, 11, 12, 14, 16, 17, 19, 21, 22, 24, 25, 29]",188.8647316,7023,1505,5,137,10,1.2062119754673604
basic,29,45,0,0,0,10,"[0, 15, 23, 20, 10]",5,12,"[2, 3, 6, 7, 9, 12, 14, 17, 22, 24, 25, 29]",132.784432,11357,4334,1,54,10,1.1363907740691004
basic,29,45,0,0,0,29,"[0, 15, 23, 20, 10, 29]",6,8,"[2, 3, 6, 7, 12, 14, 22, 24]",111.2437728,12902,1545,1,21,10,1.1719694806770014
basic,29,45,0,0,0,2,"[0, 15, 23, 20, 10, 29, 2]",7,6,"[3, 6, 7, 12, 22, 24]",81.5621286,17296,4394,5,3,9,1.3032534288994477
basic,29,45,0,0,0,3,"[0, 15, 23, 20, 10, 29, 2, 3]",8,3,"[6, 12, 22]",56.2441508,18668,1372,3,0,9,1.3588202988986362
basic,29,45,0,0,1,6,"[0, 15, 23, 20, 10, 29, 2, 3, 6]",9,0,[],20.00880894,20635,1967,1,0,9,1.625631820498274
basic,29,45,0,1,1,6,"[0, 15, 23, 20, 10, 29, 2, 3, 6]",9,0,[],20.00880894,27311,6676,1,0,9,1.625631820498274
basic,30,3,0,0,0,0,[0],1,29,"[1, 2, 3, 4, 5, 6, 7, 8, 9, 10, 11, 12, 13, 14, 15, 16, 17, 18, 19, 20, 21, 22, 23, 24, 25, 26, 27, 28, 29]",300,194,-1,34,427,10,0.0
basic,30,3,0,0,0,8,"[0, 8]",2,28,"[1, 2, 3, 4, 5, 6, 7, 9, 10, 11, 12, 13, 14, 15, 16, 17, 18, 19, 20, 21, 22, 23, 24, 25, 26, 27, 28, 29]",239.9666759,6287,6093,1,54,10,1.0
basic,30,3,0,0,0,24,"[0, 8, 24]",3,23,"[1, 2, 3, 4, 5, 6, 7, 10, 11, 12, 14, 15, 16, 17, 18, 19, 20, 21, 22, 25, 26, 27, 28]",227.8011509,7286,999,1,50,10,1.2267083825981846
basic,30,3,0,0,0,14,"[0, 8, 24, 14]",4,10,"[3, 4, 7, 10, 16, 17, 19, 20, 21, 22]",156.6885641,12535,5249,11,34,9,1.1134869392511408
basic,30,3,0,0,0,21,"[0, 8, 24, 14, 21]",5,6,"[3, 4, 10, 17, 19, 20]",129.781316,13867,1332,5,9,9,1.1069743794257796
basic,30,3,0,0,0,19,"[0, 8, 24, 14, 21, 19]",6,5,"[3, 4, 10, 17, 20]",117.5747604,15180,1313,5,2,9,1.2361067774463228
basic,30,3,0,0,0,3,"[0, 8, 24, 14, 21, 19, 3]",7,2,"[17, 20]",80.23845095,16368,1188,2,0,9,1.7566876040075643
basic,30,3,0,0,0,20,"[0, 8, 24, 14, 21, 19, 3, 20]",8,1,[17],59.8423729,18642,2274,1,0,9,2.1212226227760778
basic,30,3,0,0,1,17,"[0, 8, 24, 14, 21, 19, 3, 20, 17]",9,0,[],47.19326226,24502,5860,1,0,9,2.4711452839916217
basic,30,3,0,1,1,17,"[0, 8, 24, 14, 21, 19, 3, 20, 17]",9,0,[],47.19326226,27158,2656,1,0,9,2.4711452839916217
basic,31,9,0,0,0,0,[0],1,27,"[1, 3, 4, 5, 6, 7, 8, 9, 10, 11, 13, 14, 15, 16, 17, 18, 19, 20, 21, 22, 23, 24, 25, 26, 27, 28, 29]",300,190,-1,2,182,10,0.0
basic,31,9,0,0,0,25,"[0, 25]",2,24,"[1, 3, 4, 5, 6, 7, 8, 9, 10, 11, 13, 15, 16, 17, 18, 19, 20, 21, 22, 23, 24, 26, 27, 28]",275.9168108,7368,7178,2,104,10,1.0
basic,31,9,0,0,0,10,"[0, 25, 10]",3,20,"[3, 4, 5, 7, 8, 9, 11, 13, 15, 16, 17, 18, 19, 20, 21, 22, 23, 26, 27, 28]",236.0670932,8269,901,2,76,10,1.1767014107208227
basic,31,9,0,0,0,8,"[0, 25, 10, 8]",4,19,"[3, 4, 5, 7, 9, 11, 13, 15, 16, 17, 18, 19, 20, 21, 22, 23, 26, 27, 28]",187.6935467,10416,2147,1,29,10,1.7608170712242983
basic,31,9,0,0,0,28,"[0, 25, 10, 8, 28]",5,18,"[3, 4, 5, 7, 9, 11, 13, 15, 16, 17, 18, 19, 20, 21, 22, 23, 26, 27]",176.8768928,15442,5026,1,15,10,1.6576318206889098
basic,31,9,0,0,0,23,"[0, 25, 10, 8, 28, 23]",6,12,"[3, 4, 7, 9, 11, 18, 19, 20, 21, 22, 26, 27]",151.8569008,18071,2629,1,7,10,2.488131366775142
basic,31,9,0,0,0,9,"[0, 25, 10, 8, 28, 23, 9]",7,10,"[3, 4, 7, 11, 18, 19, 20, 21, 26, 27]",129.4962211,19755,1684,1,5,10,2.289724512754012
basic,31,9,0,0,0,26,"[0, 25, 10, 8, 28, 23, 9, 26]",8,3,"[18, 20, 21]",72.8481849,21684,1929,1,2,10,1.944382504121744
basic,31,9,0,0,0,21,"[0, 25, 10, 8, 28, 23, 9, 26, 21]",9,1,[20],18.94085701,23889,2205,1,0,10,2.3711528775176802
basic,31,9,0,0,1,20,"[0, 25, 10, 8, 28, 23, 9, 26, 21, 20]",10,0,[],6.85781104,25501,1612,1,0,10,2.3146010432238726
basic,31,9,0,1,1,20,"[0, 25, 10, 8, 28, 23, 9, 26, 21, 20]",10,0,[],6.85781104,30059,4558,1,0,10,2.3146010432238726
basic,32,25,0,0,0,0,[0],1,28,"[1, 2, 3, 4, 5, 7, 8, 9, 10, 11, 12, 13, 14, 15, 16, 17, 18, 19, 20, 21, 22, 23, 24, 25, 26, 27, 28, 29]",300,209,-1,5,94,10,0.0
basic,32,25,0,0,0,23,"[0, 23]",2,23,"[1, 2, 3, 5, 7, 8, 9, 11, 12, 13, 14, 16, 17, 19, 20, 21, 22, 24, 25, 26, 27, 28, 29]",259.7756293,4367,4158,3,33,10,1.0
basic,32,25,0,0,0,7,"[0, 23, 7]",3,16,"[1, 3, 5, 8, 9, 11, 13, 17, 19, 21, 22, 24, 26, 27, 28, 29]",181.9424744,8567,4200,1,21,9,1.0073109045884563
basic,32,25,0,0,0,24,"[0, 23, 7, 24]",4,10,"[3, 5, 8, 9, 11, 13, 19, 22, 28, 29]",157.1836376,9567,1000,1,17,9,1.0161584555781231
basic,32,25,0,0,0,9,"[0, 23, 7, 24, 9]",5,8,"[3, 8, 11, 13, 19, 22, 28, 29]",139.1558812,10402,835,1,16,9,1.0303325523073676
basic,32,25,0,0,0,8,"[0, 23, 7, 24, 9, 8]",6,3,"[3, 13, 28]",88.9065031,13338,2936,4,1,8,1.055612641218378
basic,32,25,0,0,0,3,"[0, 23, 7, 24, 9, 8, 3]",7,2,"[13, 28]",49.70191153,14532,1194,2,0,8,1.351837400410144
basic,32,25,0,0,1,13,"[0, 23, 7, 24, 9, 8, 3, 13]",8,0,[],18.46091283,17136,2604,1,0,8,1.3968078467693603
basic,32,25,0,1,1,13,"[0, 23, 7, 24, 9, 8, 3, 13]",8,0,[],18.46091283,21176,4040,1,0,8,1.3968078467693603
basic,33,22,0,0,0,0,[0],1,29,"[1, 2, 3, 4, 5, 6, 7, 8, 9, 10, 11, 12, 13, 14, 15, 16, 17, 18, 19, 20, 21, 22, 23, 24, 25, 26, 27, 28, 29]",300,223,-1,31,704,9,0.0
basic,33,22,0,0,0,16,"[0, 16]",2,21,"[1, 3, 6, 7, 8, 9, 11, 13, 14, 15, 17, 18, 19, 20, 21, 22, 24, 25, 27, 28, 29]",218.605897,3466,3243,17,147,9,1.0
basic,33,22,0,0,0,28,"[0, 16, 28]",3,13,"[6, 7, 9, 13, 14, 17, 19, 20, 21, 22, 24, 25, 29]",184.1675463,4418,952,12,61,9,1.047282311284478
basic,33,22,0,0,0,6,"[0, 16, 28, 6]",4,12,"[7, 9, 13, 14, 17, 19, 20, 21, 22, 24, 25, 29]",154.1675463,5250,832,12,43,9,1.645645870580622
basic,33,22,0,0,0,9,"[0, 16, 28, 6, 9]",5,8,"[7, 14, 17, 19, 20, 21, 24, 29]",127.5404924,6435,1185,8,17,9,1.925750226630103
basic,33,22,0,0,0,19,"[0, 16, 28, 6, 9, 19]",6,6,"[7, 14, 17, 21, 24, 29]",107.1444143,9651,3216,3,7,9,2.4220750331476455
basic,33,22,0,0,0,29,"[0, 16, 28, 6, 9, 19, 29]",7,4,"[7, 14, 17, 24]",92.11111796,10255,604,2,2,9,2.6996279574991067
basic,33,22,0,0,0,14,"[0, 16, 28, 6, 9, 19, 29, 14]",8,1,[7],33.86165444,12471,2216,1,0,9,2.0544639927929462
basic,33,22,0,0,1,7,"[0, 16, 28, 6, 9, 19, 29, 14, 7]",9,0,[],20.82324963,14541,2070,1,0,9,2.219817088951114
basic,33,22,0,1,1,7,"[0, 16, 28, 6, 9, 19, 29, 14, 7]",9,0,[],20.82324963,17123,2582,1,0,9,2.219817088951114
basic,34,34,0,0,0,0,[0],1,25,"[1, 3, 4, 5, 6, 7, 8, 9, 10, 11, 12, 13, 15, 18, 19, 20, 21, 22, 23, 24, 25, 26, 27, 28, 29]",300,211,-1,12,367,10,0.0
basic,34,34,0,0,0,13,"[0, 13]",2,24,"[1, 3, 4, 5, 6, 7, 8, 9, 10, 11, 12, 15, 18, 19, 20, 21, 22, 23, 24, 25, 26, 27, 28, 29]",279.9750156,5601,5390,12,331,10,1.0
basic,34,34,0,0,0,1,"[0, 13, 1]",3,16,"[3, 5, 7, 8, 9, 10, 11, 12, 19, 21, 22, 23, 24, 25, 27, 29]",211.8574701,6614,1013,3,92,10,1.0010381285747127
basic,34,34,0,0,0,8,"[0, 13, 1, 8]",4,14,"[3, 5, 7, 9, 10, 11, 12, 19, 22, 23, 24, 25, 27, 29]",201.0871405,7251,637,2,54,10,1.1636807
basic,34,34,0,0,0,25,"[0, 13, 1, 8, 25]",5,12,"[3, 5, 7, 9, 10, 11, 12, 22, 23, 24, 27, 29]",183.999133,7949,698,2,28,10,1.1396208815936457
basic,34,34,0,0,0,24,"[0, 13, 1, 8, 25, 24]",6,11,"[3, 5, 7, 9, 10, 11, 12, 22, 23, 27, 29]",166.5062774,9002,1053,2,23,10,1.374180768736554
basic,34,34,0,0,0,12,"[0, 13, 1, 8, 25, 24, 12]",7,7,"[7, 9, 10, 11, 22, 23, 27]",115.4670767,10498,1496,1,8,10,1.4994254760835948
basic,34,34,0,0,0,7,"[0, 13, 1, 8, 25, 24, 12, 7]",8,5,"[9, 11, 22, 23, 27]",100.4337804,11254,756,1,4,10,1.758992610425009
basic,34,34,0,0,0,23,"[0, 13, 1, 8, 25, 24, 12, 7, 23]",9,1,[27],72.27352467,11967,713,1,0,10,2.399781305190153
basic,34,34,0,0,1,27,"[0, 13, 1, 8, 25, 24, 12, 7, 23, 27]",10,0,[],18.60789321,13984,2017,1,0,10,4.766619878750327
basic,34,34,0,1,1,27,"[0, 13, 1, 8, 25, 24, 12, 7, 23, 27]",10,0,[],18.60789321,19982,5998,1,0,10,4.766619878750327
basic,35,8,0,0,0,0,[0],1,29,"[1, 2, 3, 4, 5, 6, 7, 8, 9, 10, 11, 12, 13, 14, 15, 16, 17, 18, 19, 20, 21, 22, 23, 24, 25, 26, 27, 28, 29]",300,239,-1,10,149,9,0.0
basic,35,8,0,0,0,5,"[0, 5]",2,28,"[1, 2, 3, 4, 6, 7, 8, 9, 10, 11, 12, 13, 14, 15, 16, 17, 18, 19, 20, 21, 22, 23, 24, 25, 26, 27, 28, 29]",254.5137383,6876,6637,10,100,9,1.0
basic,35,8,0,0,0,25,"[0, 5, 25]",3,20,"[1, 2, 3, 4, 6, 11, 12, 14, 15, 16, 17, 18, 19, 20, 21, 22, 23, 24, 28, 29]",215.3091468,8199,1323,4,42,9,1.2272747879909065
basic,35,8,0,0,0,1,"[0, 5, 25, 1]",4,17,"[3, 4, 6, 11, 12, 14, 15, 16, 17, 18, 20, 21, 22, 23, 24, 28, 29]",190.3091468,8950,751,3,24,9,1.1770245007593956
basic,35,8,0,0,0,23,"[0, 5, 25, 1, 23]",5,15,"[3, 4, 6, 11, 14, 15, 16, 17, 18, 20, 21, 22, 24, 28, 29]",167.2874179,9633,683,1,14,9,1.141996583852372
basic,35,8,0,0,0,4,"[0, 5, 25, 1, 23, 4]",6,6,"[3, 14, 16, 18, 21, 28]",117.9518324,11667,2034,3,4,8,1.115517190692443
basic,35,8,0,0,0,18,"[0, 5, 25, 1, 23, 4, 18]",7,2,"[14, 28]",74.94020603,14235,2568,2,0,8,1.702606074443807
basic,35,8,0,0,1,14,"[0, 5, 25, 1, 23, 4, 18, 14]",8,0,[],17.45107663,15268,1033,1,0,8,3.306985013025639
basic,35,8,0,1,1,14,"[0, 5, 25, 1, 23, 4, 18, 14]",8,0,[],17.45107663,24207,8939,1,0,8,3.306985013025639
basic,36,21,0,0,0,0,[0],1,29,"[1, 2, 3, 4, 5, 6, 7, 8, 9, 10, 11, 12, 13, 14, 15, 16, 17, 18, 19, 20, 21, 22, 23, 24, 25, 26, 27, 28, 29]",300,180,-1,84,830,9,0.0
basic,36,21,0,0,0,20,"[0, 20]",2,28,"[1, 2, 3, 4, 5, 6, 7, 8, 9, 10, 11, 12, 13, 14, 15, 16, 17, 18, 19, 21, 22, 23, 24, 25, 26, 27, 28, 29]",217.6228187,5236,5056,6,67,9,1.0
basic,36,21,0,0,0,22,"[0, 20, 22]",3,23,"[2, 4, 6, 7, 8, 9, 10, 11, 12, 13, 14, 15, 16, 17, 18, 19, 21, 23, 24, 25, 26, 27, 29]",189.3916303,6156,920,6,47,9,1.3451865712078994
basic,36,21,0,0,0,18,"[0, 20, 22, 18]",4,20,"[2, 4, 6, 7, 8, 9, 10, 11, 12, 14, 15, 16, 17, 21, 23, 24, 25, 26, 27, 29]",162.9908727,7490,1334,4,25,9,2.3191924394507706
basic,36,21,0,0,0,29,"[0, 20, 22, 18, 29]",5,16,"[2, 4, 6, 7, 8, 10, 12, 14, 15, 16, 17, 21, 23, 24, 25, 27]",134.3377751,8765,1275,2,10,9,1.9554738681863184
basic,36,21,0,0,0,25,"[0, 20, 22, 18, 29, 25]",6,5,"[4, 14, 17, 21, 23]",89.11609892,9659,894,2,5,9,3.5255206171255487
basic,36,21,0,0,0,23,"[0, 20, 22, 18, 29, 25, 23]",7,3,"[4, 14, 21]",45.79174087,10635,976,1,2,9,2.5672363743380044
basic,36,21,0,0,1,4,"[0, 20, 22, 18, 29, 25, 23, 4]",8,0,[],9.666957138,13073,2438,1,0,8,2.2698900237448894
basic,36,21,0,1,1,4,"[0, 20, 22, 18, 29, 25, 23, 4]",8,0,[],9.666957138,15825,2752,1,0,8,2.2698900237448894
basic,37,10,0,0,0,0,[0],1,29,"[1, 2, 3, 4, 5, 6, 7, 8, 9, 10, 11, 12, 13, 14, 15, 16, 17, 18, 19, 20, 21, 22, 23, 24, 25, 26, 27, 28, 29]",300,178,-1,1,100,9,0.0
basic,37,10,0,0,0,13,"[0, 13]",2,25,"[1, 2, 3, 4, 6, 7, 8, 9, 10, 11, 12, 14, 17, 18, 19, 20, 21, 22, 23, 24, 25, 26, 27, 28, 29]",249.4628849,5184,5006,1,79,9,1.0
basic,37,10,0,0,0,11,"[0, 13, 11]",3,20,"[1, 2, 3, 6, 7, 8, 9, 10, 12, 14, 18, 19, 20, 21, 22, 24, 26, 27, 28, 29]",206.4512586,6730,1546,1,54,9,1.0313137484914219
basic,37,10,0,0,0,20,"[0, 13, 11, 20]",4,15,"[1, 2, 3, 6, 8, 9, 10, 12, 14, 18, 19, 21, 24, 26, 27]",168.3723931,7775,1045,15,34,8,1.0874972644654597
basic,37,10,0,0,0,26,"[0, 13, 11, 20, 26]",5,8,"[2, 6, 9, 10, 14, 18, 19, 27]",136.5918959,11455,3680,6,9,8,1.2338398611867702
basic,37,10,0,0,0,14,"[0, 13, 11, 20, 26, 14]",6,3,"[2, 19, 27]",101.9220243,12631,1176,2,1,8,1.2385196389162765
basic,37,10,0,0,0,2,"[0, 13, 11, 20, 26, 14, 2]",7,1,[19],89.75649919,13784,1153,1,0,8,1.2878757708849242
basic,37,10,0,0,1,19,"[0, 13, 11, 20, 26, 14, 2, 19]",8,0,[],45.84750239,15380,1596,1,0,8,2.1284579604680154
basic,37,10,0,1,1,19,"[0, 13, 11, 20, 26, 14, 2, 19]",8,0,[],45.84750239,17574,2194,1,0,8,2.1284579604680154
basic,38,42,0,0,0,0,[0],1,29,"[1, 2, 3, 4, 5, 6, 7, 8, 9, 10, 11, 12, 13, 14, 15, 16, 17, 18, 19, 20, 21, 22, 23, 24, 25, 26, 27, 28, 29]",300,230,-1,16,302,9,0.0
basic,38,42,0,0,0,5,"[0, 5]",2,28,"[1, 2, 3, 4, 6, 7, 8, 9, 10, 11, 12, 13, 14, 15, 16, 17, 18, 19, 20, 21, 22, 23, 24, 25, 26, 27, 28, 29]",191.2939744,4649,4419,1,22,9,1.0
basic,38,42,0,0,0,4,"[0, 5, 4]",3,23,"[1, 2, 3, 6, 7, 8, 9, 10, 11, 13, 15, 17, 18, 19, 20, 21, 22, 23, 24, 25, 26, 27, 29]",171.4445412,5893,1244,1,14,9,1.420957801478707
basic,38,42,0,0,0,22,"[0, 5, 4, 22]",4,20,"[1, 2, 3, 6, 7, 8, 9, 11, 15, 17, 18, 19, 20, 21, 23, 24, 25, 26, 27, 29]",160.2642013,7384,1491,1,11,9,1.5771494659680896
basic,38,42,0,0,0,8,"[0, 5, 4, 22, 8]",5,14,"[1, 2, 3, 6, 7, 11, 15, 18, 19, 24, 25, 26, 27, 29]",138.1282577,8451,1067,1,10,9,1.5055393955524201
basic,38,42,0,0,0,1,"[0, 5, 4, 22, 8, 1]",6,5,"[2, 7, 19, 26, 27]",89.03650682,10084,1633,1,7,9,1.3547259083637835
basic,38,42,0,0,0,7,"[0, 5, 4, 22, 8, 1, 7]",7,4,"[2, 19, 26, 27]",59.03650682,11451,1367,1,3,9,1.3909715672447451
basic,38,42,0,0,0,26,"[0, 5, 4, 22, 8, 1, 7, 26]",8,1,[27],32.46584631,12538,1087,1,0,9,1.3511825943939393
basic,38,42,0,0,1,27,"[0, 5, 4, 22, 8, 1, 7, 26, 27]",9,0,[],14.43808994,14018,1480,1,0,9,1.3391911688802078
basic,38,42,0,1,1,27,"[0, 5, 4, 22, 8, 1, 7, 26, 27]",9,0,[],14.43808994,16808,2790,1,0,9,1.3391911688802078
basic,39,2,0,0,0,0,[0],1,23,"[1, 2, 4, 5, 6, 7, 8, 9, 12, 13, 15, 16, 17, 18, 19, 20, 22, 23, 25, 26, 27, 28, 29]",300,176,-1,70,620,10,0.0
basic,39,2,0,0,0,19,"[0, 19]",2,22,"[1, 2, 4, 5, 6, 7, 8, 9, 12, 13, 15, 16, 17, 18, 20, 22, 23, 25, 26, 27, 28, 29]",210.306076,4068,3892,67,431,10,1.0
basic,39,2,0,0,0,12,"[0, 19, 12]",3,17,"[1, 4, 5, 6, 7, 13, 15, 16, 17, 18, 20, 22, 25, 26, 27, 28, 29]",174.2921898,5033,965,66,298,10,1.1107635036313153
basic,39,2,0,0,0,5,"[0, 19, 12, 5]",4,11,"[1, 6, 7, 13, 15, 16, 18, 22, 25, 26, 29]",144.7625437,6259,1226,38,136,10,1.0968174771581647
basic,39,2,0,0,0,22,"[0, 19, 12, 5, 22]",5,8,"[1, 6, 7, 13, 15, 18, 26, 29]",131.9562952,7266,1007,20,63,10,1.0889910507461968
basic,39,2,0,0,0,13,"[0, 19, 12, 5, 22, 13]",6,7,"[1, 6, 7, 15, 18, 26, 29]",117.0902265,8152,886,19,20,10,1.236526217328057
basic,39,2,0,0,0,18,"[0, 19, 12, 5, 22, 13, 18]",7,4,"[7, 15, 26, 29]",81.91921567,9920,1768,10,3,10,1.2128708213409936
basic,39,2,0,0,0,7,"[0, 19, 12, 5, 22, 13, 18, 7]",8,3,"[15, 26, 29]",71.62358553,10752,832,5,0,10,1.2019811287894737
basic,39,2,0,0,0,15,"[0, 19, 12, 5, 22, 13, 18, 7, 15]",9,2,"[26, 29]",56.85876247,11617,865,2,0,10,1.2907869828541363
basic,39,2,0,0,1,29,"[0, 19, 12, 5, 22, 13, 18, 7, 15, 29]",10,0,[],28.39826353,15301,3684,1,0,10,1.4795089334237532
basic,39,2,0,1,1,29,"[0, 19, 12, 5, 22, 13, 18, 7, 15, 29]",10,0,[],28.39826353,17923,2622,1,0,10,1.4795089334237532
basic,40,23,0,0,0,0,[0],1,28,"[1, 2, 3, 4, 5, 6, 7, 8, 9, 10, 11, 12, 13, 14, 15, 16, 17, 18, 19, 20, 21, 22, 23, 25, 26, 27, 28, 29]",300,180,-1,76,2626,10,0.0
basic,40,23,0,0,0,22,"[0, 22]",2,24,"[1, 2, 3, 5, 6, 7, 8, 9, 10, 11, 12, 13, 14, 15, 17, 18, 19, 20, 21, 23, 25, 26, 27, 29]",210.5013967,5026,4846,15,1362,10,1.0
basic,40,23,0,0,0,13,"[0, 22, 13]",3,14,"[1, 2, 5, 6, 7, 8, 9, 10, 12, 14, 18, 21, 27, 29]",168.3113504,8776,3750,14,522,10,1.1898173563652046
basic,40,23,0,0,0,12,"[0, 22, 13, 12]",4,11,"[1, 2, 6, 7, 9, 10, 14, 18, 21, 27, 29]",156.2283045,10118,1342,12,166,10,1.1727968780218219
basic,40,23,0,0,0,6,"[0, 22, 13, 12, 6]",5,8,"[2, 7, 9, 10, 14, 18, 27, 29]",126.5466603,14149,4031,2,24,10,1.1544842845523764
basic,40,23,0,0,0,2,"[0, 22, 13, 12, 6, 2]",6,6,"[7, 9, 14, 18, 27, 29]",108.1075714,18189,4040,2,8,10,1.4062299368922424
basic,40,23,0,0,0,9,"[0, 22, 13, 12, 6, 2, 9]",7,4,"[7, 14, 27, 29]",95.06916658,19149,960,1,3,10,1.5685676974894474
basic,40,23,0,0,0,14,"[0, 22, 13, 12, 6, 2, 9, 14]",8,3,"[7, 27, 29]",84.62886007,21168,2019,1,2,10,1.528647150775544
basic,40,23,0,0,0,29,"[0, 22, 13, 12, 6, 2, 9, 14, 29]",9,1,[7],37.19469517,23777,2609,1,0,10,1.7042299851162805
basic,40,23,0,0,1,7,"[0, 22, 13, 12, 6, 2, 9, 14, 29, 7]",10,0,[],13.11150601,25035,1258,1,0,10,1.7057367602759512
basic,40,23,0,1,1,7,"[0, 22, 13, 12, 6, 2, 9, 14, 29, 7]",10,0,[],13.11150601,28500,3465,1,0,10,1.7057367602759512
basic,41,11,0,0,0,0,[0],1,25,"[1, 2, 3, 4, 5, 6, 8, 9, 10, 11, 12, 13, 14, 15, 16, 17, 18, 19, 20, 22, 23, 25, 26, 27, 28]",300,175,-1,6,374,12,0.0
basic,41,11,0,0,0,18,"[0, 18]",2,21,"[1, 2, 4, 5, 6, 8, 9, 11, 12, 13, 14, 15, 16, 17, 19, 20, 22, 23, 25, 27, 28]",236.8493864,11486,11311,157,1477,11,1.0
basic,41,11,0,0,0,27,"[0, 18, 27]",3,19,"[1, 2, 4, 5, 6, 8, 9, 11, 12, 14, 15, 16, 17, 19, 20, 22, 23, 25, 28]",212.9956655,13602,2116,157,1315,11,1.060949579704323
basic,41,11,0,0,0,17,"[0, 18, 27, 17]",4,14,"[1, 2, 4, 5, 6, 8, 11, 12, 15, 19, 22, 23, 25, 28]",135.9177828,15551,1949,46,349,11,1.1156120043677304
basic,41,11,0,0,0,8,"[0, 18, 27, 17, 8]",5,11,"[1, 2, 5, 6, 11, 12, 15, 19, 22, 25, 28]",121.5999617,16832,1281,26,143,11,1.2285932943120847
basic,41,11,0,0,0,15,"[0, 18, 27, 17, 8, 15]",6,9,"[2, 5, 6, 11, 12, 19, 22, 25, 28]",108.1463377,18671,1839,24,54,11,1.223015425852291
basic,41,11,0,0,0,11,"[0, 18, 27, 17, 8, 15, 11]",7,6,"[2, 5, 12, 19, 22, 28]",90.03556742,19936,1265,22,2,11,1.2111003833550413
basic,41,11,0,0,0,5,"[0, 18, 27, 17, 8, 15, 11, 5]",8,3,"[2, 22, 28]",54.80773752,22284,2348,5,1,11,1.5070858562662883
basic,41,11,0,0,0,28,"[0, 18, 27, 17, 8, 15, 11, 5, 28]",9,2,"[2, 22]",36.9191937,24588,2304,2,0,11,1.5224287982960607
basic,41,11,0,0,0,2,"[0, 18, 27, 17, 8, 15, 11, 5, 28, 2]",10,1,[22],26.28904788,26103,1515,1,0,11,1.5334969671993883
basic,41,11,0,0,1,22,"[0, 18, 27, 17, 8, 15, 11, 5, 28, 2, 22]",11,0,[],16.23917226,27483,1380,1,0,11,1.5050924702228456
basic,41,11,0,1,1,22,"[0, 18, 27, 17, 8, 15, 11, 5, 28, 2, 22]",11,0,[],16.23917226,31876,4393,1,0,11,1.5050924702228456
basic,42,20,0,0,0,0,[0],1,21,"[1, 2, 3, 4, 5, 6, 7, 8, 9, 12, 17, 18, 20, 21, 22, 23, 25, 26, 27, 28, 29]",300,156,-1,1,9,9,0.0
basic,42,20,0,0,0,12,"[0, 12]",2,20,"[1, 2, 3, 4, 5, 6, 7, 8, 9, 17, 18, 20, 21, 22, 23, 25, 26, 27, 28, 29]",271.5570747,7368,7212,1,8,9,1.0
basic,42,20,0,0,0,1,"[0, 12, 1]",3,12,"[3, 4, 5, 6, 8, 9, 20, 21, 23, 27, 28, 29]",189.5692707,9301,1933,1,6,9,1.0757997779162911
basic,42,20,0,0,0,5,"[0, 12, 1, 5]",4,10,"[4, 6, 8, 9, 20, 21, 23, 27, 28, 29]",152.8950291,10467,1166,1,5,9,1.1708231454516806
basic,42,20,0,0,0,21,"[0, 12, 1, 5, 21]",5,8,"[4, 6, 8, 9, 20, 23, 27, 28]",107.8950291,11984,1517,1,4,9,1.126197336199212
basic,42,20,0,0,0,8,"[0, 12, 1, 5, 21, 8]",6,5,"[6, 9, 23, 27, 28]",90.43077988,13347,1363,1,3,9,1.140007470699913
basic,42,20,0,0,0,23,"[0, 12, 1, 5, 21, 8, 23]",7,2,"[6, 9]",45.74297394,15171,1824,1,1,9,1.1162257896627588
basic,42,20,0,0,0,9,"[0, 12, 1, 5, 21, 8, 23, 9]",8,1,[6],26.53360123,17918,2747,1,0,9,1.1086880559449597
basic,42,20,0,0,1,6,"[0, 12, 1, 5, 21, 8, 23, 9, 6]",9,0,[],3.511872362,19093,1175,1,0,9,1.1186240265999328
basic,42,20,0,1,1,6,"[0, 12, 1, 5, 21, 8, 23, 9, 6]",9,0,[],3.511872362,21343,2250,1,0,9,1.1186240265999328
basic,43,36,0,0,0,0,[0],1,24,"[2, 4, 5, 6, 7, 8, 9, 10, 12, 13, 14, 15, 16, 17, 18, 19, 20, 22, 23, 25, 26, 27, 28, 29]",300,160,-1,2,200,10,0.0
basic,43,36,0,0,0,18,"[0, 18]",2,21,"[2, 4, 5, 6, 7, 8, 9, 10, 12, 13, 14, 16, 17, 19, 22, 23, 25, 26, 27, 28, 29]",279.6039219,4959,4799,2,110,10,1.0
basic,43,36,0,0,0,12,"[0, 18, 12]",3,19,"[2, 4, 5, 6, 7, 8, 9, 10, 13, 16, 17, 19, 22, 23, 25, 26, 27, 28, 29]",237.0245842,7133,2174,2,86,10,2.836270082716982
basic,43,36,0,0,0,13,"[0, 18, 12, 13]",4,12,"[2, 4, 8, 9, 10, 16, 17, 19, 23, 25, 27, 29]",157.8475674,15766,8633,1,14,10,1.4493282584127862
basic,43,36,0,0,0,25,"[0, 18, 12, 13, 25]",5,10,"[2, 4, 8, 9, 10, 16, 17, 19, 27, 29]",137.2563071,17167,1401,1,11,10,1.421464278177825
basic,43,36,0,0,0,2,"[0, 18, 12, 13, 25, 2]",6,5,"[9, 10, 16, 17, 19]",112.2563071,18013,846,1,8,10,1.662490515369399
basic,43,36,0,0,0,19,"[0, 18, 12, 13, 25, 2, 19]",7,3,"[9, 16, 17]",75.1348847,19201,1188,1,3,10,2.9173753540154053
basic,43,36,0,0,0,9,"[0, 18, 12, 13, 25, 2, 19, 9]",8,2,"[16, 17]",60.00213875,20116,915,1,1,10,3.4749469749834145
basic,43,36,0,0,0,17,"[0, 18, 12, 13, 25, 2, 19, 9, 17]",9,1,[16],33.75332925,21297,1181,1,0,10,2.8169913855566038
basic,43,36,0,0,1,16,"[0, 18, 12, 13, 25, 2, 19, 9, 17, 16]",10,0,[],5.433724734,23072,1775,1,0,10,2.759713350365542
basic,43,36,0,1,1,16,"[0, 18, 12, 13, 25, 2, 19, 9, 17, 16]",10,0,[],5.433724734,27023,3951,1,0,10,2.759713350365542
basic,44,0,0,0,0,0,[0],1,27,"[2, 3, 4, 5, 6, 7, 8, 9, 10, 11, 12, 13, 14, 15, 16, 17, 19, 20, 21, 22, 23, 24, 25, 26, 27, 28, 29]",300,178,-1,104,1136,9,0.0
basic,44,0,0,0,0,20,"[0, 20]",2,25,"[2, 3, 4, 5, 6, 7, 8, 9, 11, 12, 13, 14, 15, 16, 17, 19, 21, 22, 23, 24, 25, 26, 27, 28, 29]",215.4955622,11122,10944,36,372,9,1.0
basic,44,0,0,0,0,28,"[0, 20, 28]",3,19,"[3, 4, 5, 7, 8, 9, 11, 12, 13, 14, 15, 16, 17, 19, 21, 23, 24, 26, 29]",156.2925218,13451,2329,3,83,9,1.3675886789005969
basic,44,0,0,0,0,5,"[0, 20, 28, 5]",4,12,"[3, 4, 7, 8, 9, 11, 12, 15, 17, 21, 24, 26]",112.6347619,15099,1648,2,50,9,1.3829293532227536
basic,44,0,0,0,0,4,"[0, 20, 28, 5, 4]",5,10,"[3, 7, 8, 9, 11, 12, 15, 17, 24, 26]",87.55488947,18701,3602,2,26,9,1.3571235497342058
basic,44,0,0,0,0,26,"[0, 20, 28, 5, 4, 26]",6,9,"[3, 7, 8, 9, 11, 12, 15, 17, 24]",75.51329489,19959,1258,1,12,9,1.3895378207217857
basic,44,0,0,0,0,24,"[0, 20, 28, 5, 4, 26, 24]",7,6,"[7, 8, 9, 11, 12, 15]",58.39605212,21303,1344,1,5,9,1.4481849062023913
basic,44,0,0,0,0,15,"[0, 20, 28, 5, 4, 26, 24, 15]",8,1,[7],35.05081706,22300,997,1,0,9,1.4016317346800864
basic,44,0,0,0,1,7,"[0, 20, 28, 5, 4, 26, 24, 15, 7]",9,0,[],3.986367929,23453,1153,1,0,9,1.4439002223158441
basic,44,0,0,1,1,7,"[0, 20, 28, 5, 4, 26, 24, 15, 7]",9,0,[],3.986367929,26858,3405,1,0,9,1.4439002223158441
basic,45,27,0,0,0,0,[0],1,26,"[1, 3, 5, 6, 7, 8, 9, 10, 11, 12, 13, 14, 15, 16, 17, 18, 19, 21, 22, 23, 24, 25, 26, 27, 28, 29]",300,170,-1,13,578,11,0.0
basic,45,27,0,0,0,26,"[0, 26]",2,23,"[1, 5, 6, 7, 8, 9, 10, 11, 12, 13, 14, 15, 16, 17, 18, 19, 21, 22, 23, 24, 25, 27, 29]",275.8132268,4206,4036,7,249,11,1.0
basic,45,27,0,0,0,15,"[0, 26, 15]",3,18,"[1, 6, 7, 8, 10, 12, 13, 14, 16, 17, 18, 19, 21, 23, 24, 25, 27, 29]",216.0386502,5437,1231,6,105,11,2.316230250316108
basic,45,27,0,0,0,24,"[0, 26, 15, 24]",4,14,"[1, 8, 10, 12, 13, 14, 16, 17, 18, 19, 23, 25, 27, 29]",198.8339997,6250,813,6,63,11,2.140390406148825
basic,45,27,0,0,0,17,"[0, 26, 15, 24, 17]",5,11,"[1, 8, 10, 12, 13, 14, 18, 19, 23, 27, 29]",182.2810543,7017,767,4,33,11,1.897705569486853
basic,45,27,0,0,0,12,"[0, 26, 15, 24, 17, 12]",6,10,"[1, 8, 10, 13, 14, 18, 19, 23, 27, 29]",171.1007144,7689,672,2,17,11,1.994427587076918
basic,45,27,0,0,0,10,"[0, 26, 15, 24, 17, 12, 10]",7,9,"[1, 8, 13, 14, 18, 19, 23, 27, 29]",160.0553534,11124,3435,2,14,11,1.8554032921959762
basic,45,27,0,0,0,23,"[0, 26, 15, 24, 17, 12, 10, 23]",8,5,"[1, 8, 13, 19, 27]",85.4229208,25101,13977,1,4,10,2.821185530789535
basic,45,27,0,0,1,13,"[0, 26, 15, 24, 17, 12, 10, 23, 13]",9,0,[],25.80748655,26468,1367,1,0,9,2.7861582499392483
basic,45,27,0,1,1,13,"[0, 26, 15, 24, 17, 12, 10, 23, 13]",9,0,[],25.80748655,29375,2907,1,0,9,2.7861582499392483
basic,46,7,0,0,0,0,[0],1,29,"[1, 2, 3, 4, 5, 6, 7, 8, 9, 10, 11, 12, 13, 14, 15, 16, 17, 18, 19, 20, 21, 22, 23, 24, 25, 26, 27, 28, 29]",300,251,-1,3,79,9,0.0
basic,46,7,0,0,0,15,"[0, 15]",2,19,"[2, 4, 5, 6, 7, 8, 9, 10, 13, 14, 16, 18, 19, 20, 21, 23, 25, 27, 28]",230.9348134,6291,6040,2,38,9,1.0
basic,46,7,0,0,0,6,"[0, 15, 6]",3,18,"[2, 4, 5, 7, 8, 9, 10, 13, 14, 16, 18, 19, 20, 21, 23, 25, 27, 28]",205.854941,9042,2751,2,36,9,1.366719602896943
basic,46,7,0,0,0,25,"[0, 15, 6, 25]",4,11,"[2, 4, 7, 13, 14, 16, 18, 19, 20, 21, 23]",138.6760753,12123,3081,2,28,9,1.3624631728355765
basic,46,7,0,0,0,4,"[0, 15, 6, 25, 4]",5,7,"[2, 7, 13, 16, 18, 19, 20]",113.9374415,13209,1086,2,12,9,1.3249684384385587
basic,46,7,0,0,0,20,"[0, 15, 6, 25, 4, 20]",6,5,"[2, 7, 13, 18, 19]",94.29055881,14309,1100,1,6,9,1.3721893242679268
basic,46,7,0,0,0,18,"[0, 15, 6, 25, 4, 20, 18]",7,3,"[7, 13, 19]",81.48431034,15457,1148,1,2,9,1.5262542308371432
basic,46,7,0,0,0,7,"[0, 15, 6, 25, 4, 20, 18, 7]",8,1,[19],40.25325408,17128,1671,1,0,9,1.41986878673423
basic,46,7,0,0,1,19,"[0, 15, 6, 25, 4, 20, 18, 7, 19]",9,0,[],10.84237174,18309,1181,1,0,9,1.5285658163212987
basic,46,7,0,1,1,19,"[0, 15, 6, 25, 4, 20, 18, 7, 19]",9,0,[],10.84237174,24048,5739,1,0,9,1.5285658163212987
basic,47,44,0,0,0,0,[0],1,29,"[1, 2, 3, 4, 5, 6, 7, 8, 9, 10, 11, 12, 13, 14, 15, 16, 17, 18, 19, 20, 21, 22, 23, 24, 25, 26, 27, 28, 29]",300,160,-1,13,126,7,0.0
basic,47,44,0,0,0,8,"[0, 8]",2,17,"[1, 4, 5, 7, 9, 10, 11, 12, 13, 14, 15, 20, 21, 23, 24, 25, 27]",145.7923478,7951,7791,1,10,7,1.0
basic,47,44,0,0,0,20,"[0, 8, 20]",3,16,"[1, 4, 5, 7, 9, 10, 11, 12, 13, 14, 15, 21, 23, 24, 25, 27]",133.7093018,9570,1619,1,9,7,1.0890794433668698
basic,47,44,0,0,0,9,"[0, 8, 20, 9]",4,7,"[4, 7, 11, 12, 14, 23, 24]",76.43801756,10449,879,1,6,7,1.40892325509949
basic,47,44,0,0,0,4,"[0, 8, 20, 9, 4]",5,4,"[7, 12, 23, 24]",56.74030196,11584,1135,1,3,7,1.3849770570803555
basic,47,44,0,0,0,7,"[0, 8, 20, 9, 4, 7]",6,1,[23],25.72417712,12502,918,1,0,7,1.3274380931474288
basic,47,44,0,0,1,23,"[0, 8, 20, 9, 4, 7, 23]",7,0,[],6.619203947,14118,1616,1,0,7,1.3395824779823196
basic,47,44,0,1,1,23,"[0, 8, 20, 9, 4, 7, 23]",7,0,[],6.619203947,31943,17825,1,0,7,1.3395824779823196
basic,48,19,0,0,0,0,[0],1,29,"[1, 2, 3, 4, 5, 6, 7, 8, 9, 10, 11, 12, 13, 14, 15, 16, 17, 18, 19, 20, 21, 22, 23, 24, 25, 26, 27, 28, 29]",300,171,-1,12,149,8,0.0
basic,48,19,0,0,0,29,"[0, 29]",2,28,"[1, 2, 3, 4, 5, 6, 7, 8, 9, 10, 11, 12, 13, 14, 15, 16, 17, 18, 19, 20, 21, 22, 23, 24, 25, 26, 27, 28]",265.0715016,19434,19263,12,120,8,1.0
basic,48,19,0,0,0,12,"[0, 29, 12]",3,10,"[1, 2, 3, 8, 13, 16, 17, 19, 23, 25]",151.2251139,21619,2185,1,15,8,1.2439006517653588
basic,48,19,0,0,0,17,"[0, 29, 12, 17]",4,9,"[1, 2, 3, 8, 13, 16, 19, 23, 25]",131.1005021,22609,990,1,7,8,1.2186098272331718
basic,48,19,0,0,0,23,"[0, 29, 12, 17, 23]",5,3,"[3, 8, 19]",52.38582746,27085,4476,1,2,7,1.3771227288407482
basic,48,19,0,0,0,3,"[0, 29, 12, 17, 23, 3]",6,1,[8],30.45411526,29185,2100,1,0,7,1.3375196468866284
basic,48,19,0,0,1,8,"[0, 29, 12, 17, 23, 3, 8]",7,0,[],7.13030768,31151,1966,1,0,7,1.3439905336283846
basic,48,19,0,1,1,8,"[0, 29, 12, 17, 23, 3, 8]",7,0,[],7.13030768,36426,5275,1,0,7,1.3439905336283846
basic,49,1,0,0,0,0,[0],1,26,"[1, 2, 4, 5, 7, 8, 9, 10, 11, 12, 13, 14, 15, 16, 17, 18, 19, 20, 21, 22, 23, 24, 25, 26, 28, 29]",300,161,-1,6,74,7,0.0
basic,49,1,0,0,0,24,"[0, 24]",2,8,"[5, 7, 8, 14, 16, 19, 20, 26]",185.4137879,6873,6712,9,13,5,1.0
basic,49,1,0,0,0,26,"[0, 24, 26]",3,6,"[5, 8, 14, 16, 19, 20]",152.1722476,7702,829,7,4,5,1.502125301442057
basic,49,1,0,0,0,19,"[0, 24, 26, 19]",4,4,"[5, 8, 16, 20]",113.5458318,9297,1595,4,0,5,1.5438989781695114
basic,49,1,0,0,1,8,"[0, 24, 26, 19, 8]",5,0,[],60.39510274,11435,2138,1,0,5,2.44494793122449
basic,49,1,0,1,1,8,"[0, 24, 26, 19, 8]",5,0,[],60.39510274,14892,3457,1,0,5,2.44494793122449
basic,50,43,0,0,0,0,[0],1,23,"[1, 2, 3, 4, 5, 6, 7, 9, 10, 11, 12, 14, 15, 16, 17, 19, 20, 21, 22, 23, 25, 27, 29]",300,193,-1,16,556,12,0.0
basic,50,43,0,0,0,29,"[0, 29]",2,22,"[1, 2, 3, 4, 5, 6, 7, 9, 10, 11, 12, 14, 15, 16, 17, 19, 20, 21, 22, 23, 25, 27]",277.909278,6224,6031,16,520,12,1.0
basic,50,43,0,0,0,20,"[0, 29, 20]",3,20,"[1, 2, 3, 4, 6, 7, 9, 10, 11, 12, 14, 15, 16, 17, 19, 21, 22, 23, 25, 27]",254.4785289,7107,883,15,422,12,1.082311746871282
basic,50,43,0,0,0,16,"[0, 29, 20, 16]",4,19,"[1, 2, 3, 4, 6, 7, 9, 10, 11, 12, 14, 15, 17, 19, 21, 22, 23, 25, 27]",231.8511119,8842,1735,15,389,12,1.215201926898219
basic,50,43,0,0,0,25,"[0, 29, 20, 16, 25]",5,14,"[1, 2, 3, 4, 6, 7, 9, 11, 12, 14, 15, 19, 22, 23]",175.7708124,9974,1132,53,282,11,1.566384303308987
basic,50,43,0,0,0,15,"[0, 29, 20, 16, 25, 15]",6,13,"[1, 2, 3, 4, 6, 7, 9, 11, 12, 14, 19, 22, 23]",153.0992443,11043,1069,27,108,11,1.776736412604812
basic,50,43,0,0,0,12,"[0, 29, 20, 16, 25, 15, 12]",7,10,"[1, 3, 6, 7, 9, 11, 14, 19, 22, 23]",133.7860364,11760,717,21,41,11,1.6813323012225032
basic,50,43,0,0,0,3,"[0, 29, 20, 16, 25, 15, 12, 3]",8,9,"[1, 6, 7, 9, 11, 14, 19, 22, 23]",120.7860364,12477,717,20,12,11,1.608740348096123
basic,50,43,0,0,0,22,"[0, 29, 20, 16, 25, 15, 12, 3, 22]",9,6,"[1, 6, 7, 11, 14, 19]",86.07292644,13745,1268,9,2,11,1.793657891802588
basic,50,43,0,0,0,19,"[0, 29, 20, 16, 25, 15, 12, 3, 22, 19]",10,3,"[1, 6, 7]",65.45739831,22610,8865,3,0,11,1.6882745891803936
basic,50,43,0,0,1,1,"[0, 29, 20, 16, 25, 15, 12, 3, 22, 19, 1]",11,0,[],37.2793927,25359,2749,1,0,11,1.825064866046553
basic,50,43,0,1,1,1,"[0, 29, 20, 16, 25, 15, 12, 3, 22, 19, 1]",11,0,[],37.2793927,31400,6041,1,0,11,1.825064866046553
basic,51,14,0,0,0,0,[0],1,29,"[1, 2, 3, 4, 5, 6, 7, 8, 9, 10, 11, 12, 13, 14, 15, 16, 17, 18, 19, 20, 21, 22, 23, 24, 25, 26, 27, 28, 29]",300,174,-1,8,157,10,0.0
basic,51,14,0,0,0,20,"[0, 20]",2,21,"[1, 2, 3, 7, 8, 9, 10, 11, 13, 15, 17, 18, 19, 21, 22, 23, 25, 26, 27, 28, 29]",236.0468922,3387,3213,2,25,9,1.0
basic,51,14,0,0,0,15,"[0, 20, 15]",3,14,"[1, 2, 3, 7, 8, 13, 17, 18, 19, 22, 23, 25, 26, 28]",152.3092065,6818,3431,2,12,9,1.7731124371314526
basic,51,14,0,0,0,28,"[0, 20, 15, 28]",4,7,"[1, 8, 13, 17, 18, 19, 22]",133.0998338,7740,922,2,7,9,1.7008506322897476
basic,51,14,0,0,0,17,"[0, 20, 15, 28, 17]",5,5,"[1, 8, 13, 18, 19]",119.6462098,10270,2530,2,5,9,1.6687983136381423
basic,51,14,0,0,0,18,"[0, 20, 15, 28, 17, 18]",6,3,"[1, 8, 19]",55.01649523,11700,1430,2,3,9,2.0397593498148745
basic,51,14,0,0,0,8,"[0, 20, 15, 28, 17, 18, 8]",7,2,"[1, 19]",41.41502472,13182,1482,2,0,9,1.973413703398679
basic,51,14,0,0,0,1,"[0, 20, 15, 28, 17, 18, 8, 1]",8,1,[19],17.81417728,16918,3736,1,0,9,1.8249647681189047
basic,51,14,0,0,1,19,"[0, 20, 15, 28, 17, 18, 8, 1, 19]",9,0,[],2.582631066,18001,1083,1,0,9,2.0113682321419293
basic,51,14,0,1,1,19,"[0, 20, 15, 28, 17, 18, 8, 1, 19]",9,0,[],2.582631066,36840,18839,1,0,9,2.0113682321419293
basic,52,31,0,0,0,0,[0],1,27,"[1, 3, 4, 5, 6, 7, 8, 10, 11, 12, 13, 14, 15, 16, 17, 18, 19, 20, 21, 22, 23, 24, 25, 26, 27, 28, 29]",300,175,-1,2,87,10,0.0
basic,52,31,0,0,0,14,"[0, 14]",2,25,"[1, 3, 5, 6, 7, 8, 10, 11, 12, 13, 15, 16, 17, 18, 19, 20, 21, 22, 23, 24, 25, 26, 27, 28, 29]",263.861378,4418,4243,2,59,10,1.0
basic,52,31,0,0,0,27,"[0, 14, 27]",3,22,"[1, 3, 5, 6, 7, 8, 10, 11, 12, 13, 15, 16, 17, 18, 19, 20, 21, 22, 24, 25, 28, 29]",235.6833724,5702,1284,1,39,10,1.5881859159302467
basic,52,31,0,0,0,8,"[0, 14, 27, 8]",4,20,"[1, 3, 5, 6, 7, 10, 11, 12, 13, 16, 17, 18, 19, 20, 21, 22, 24, 25, 28, 29]",224.6380114,6417,715,1,36,10,2.1665048452331277
basic,52,31,0,0,0,18,"[0, 14, 27, 8, 18]",5,15,"[1, 5, 6, 7, 11, 12, 13, 16, 17, 19, 20, 22, 25, 28, 29]",188.7911147,7831,1414,1,26,10,1.7273375741920205
basic,52,31,0,0,0,17,"[0, 14, 27, 8, 18, 17]",6,13,"[1, 5, 6, 7, 11, 12, 13, 16, 19, 20, 22, 25, 28]",159.584951,8752,921,1,13,10,1.551192427769927
basic,52,31,0,0,0,11,"[0, 14, 27, 8, 18, 17, 11]",7,7,"[5, 12, 16, 19, 22, 25, 28]",118.4753414,9647,895,1,4,10,2.9650760544203494
basic,52,31,0,0,0,5,"[0, 14, 27, 8, 18, 17, 11, 5]",8,2,"[16, 28]",74.79468207,10801,1154,1,1,10,2.56711965625205
basic,52,31,0,0,0,28,"[0, 14, 27, 8, 18, 17, 11, 5, 28]",9,1,[16],54.57093365,11436,635,1,0,10,2.2865510762058148
basic,52,31,0,0,1,16,"[0, 14, 27, 8, 18, 17, 11, 5, 28, 16]",10,0,[],20.95546102,12618,1182,1,0,10,2.089356850786318
basic,52,31,0,1,1,16,"[0, 14, 27, 8, 18, 17, 11, 5, 28, 16]",10,0,[],20.95546102,18741,6123,1,0,10,2.089356850786318
