condition,trial_id,map_id,undoIndicator,submit,checkEnd,currentChoice,chosen_all,n_city_all,n_within_reach,cities_reach,currentBudget,time_all,rt_all,n_opt_paths_all,n_subopt_paths_all,mas_all,tortuosity_all
undo,0,41,0,0,0,0,[0],1,29,"[1, 2, 3, 4, 5, 6, 7, 8, 9, 10, 11, 12, 13, 14, 15, 16, 17, 18, 19, 20, 21, 22, 23, 24, 25, 26, 27, 28, 29]",300,470,-1,1,143,10,0.0
undo,0,41,0,0,0,13,"[0, 13]",2,23,"[1, 2, 3, 5, 6, 7, 9, 10, 11, 12, 14, 15, 17, 18, 19, 20, 21, 22, 24, 25, 26, 27, 28]",258.2747079,18186,17716,1,55,10,1.0
undo,0,41,0,0,0,28,"[0, 13, 28]",3,22,"[1, 2, 3, 5, 6, 7, 9, 10, 11, 12, 14, 15, 17, 18, 19, 20, 21, 22, 24, 25, 26, 27]",223.7928286,18919,733,1,39,10,1.895724242592676
undo,0,41,0,0,0,5,"[0, 13, 28, 5]",4,19,"[1, 2, 3, 6, 9, 10, 11, 12, 14, 15, 17, 18, 19, 20, 21, 22, 24, 25, 27]",210.1913581,20515,1596,1,34,10,2.861541269398273
undo,0,41,0,0,0,3,"[0, 13, 28, 5, 3]",5,16,"[1, 2, 6, 9, 10, 12, 14, 17, 18, 19, 20, 21, 22, 24, 25, 27]",175.3632086,21090,575,1,22,10,3.1455488489005883
undo,0,41,0,0,0,21,"[0, 13, 28, 5, 3, 21]",6,14,"[1, 2, 6, 9, 10, 12, 14, 17, 18, 19, 20, 22, 25, 27]",143.2228912,21818,728,13,11,9,3.207558429289677
undo,0,41,0,0,0,17,"[0, 13, 28, 5, 3, 21, 17]",7,3,"[2, 9, 10]",91.5605258,23831,2013,2,1,9,3.2883270328778007
undo,0,41,0,0,0,9,"[0, 13, 28, 5, 3, 21, 17, 9]",8,1,[2],60.54440096,24271,440,1,0,9,2.9098226601812454
undo,0,41,0,0,1,2,"[0, 13, 28, 5, 3, 21, 17, 9, 2]",9,0,[],48.46135498,24707,436,1,0,9,2.780153959656953
undo,0,41,1,0,0,9,"[0, 13, 28, 5, 3, 21, 17, 9]",8,1,[2],60.54440096,26280,1573,1,0,9,2.9098226601812454
undo,0,41,1,0,0,17,"[0, 13, 28, 5, 3, 21, 17]",7,3,"[2, 9, 10]",91.5605258,26431,151,2,1,9,3.2883270328778007
undo,0,41,1,0,0,21,"[0, 13, 28, 5, 3, 21]",6,14,"[1, 2, 6, 9, 10, 12, 14, 17, 18, 19, 20, 22, 25, 27]",143.2228912,28606,2175,13,11,9,3.207558429289677
undo,0,41,1,0,0,3,"[0, 13, 28, 5, 3]",5,16,"[1, 2, 6, 9, 10, 12, 14, 17, 18, 19, 20, 21, 22, 24, 25, 27]",175.3632086,28895,289,1,22,10,3.1455488489005883
undo,0,41,1,0,0,5,"[0, 13, 28, 5]",4,19,"[1, 2, 3, 6, 9, 10, 11, 12, 14, 15, 17, 18, 19, 20, 21, 22, 24, 25, 27]",210.1913581,29037,142,1,34,10,2.861541269398273
undo,0,41,1,0,0,28,"[0, 13, 28]",3,22,"[1, 2, 3, 5, 6, 7, 9, 10, 11, 12, 14, 15, 17, 18, 19, 20, 21, 22, 24, 25, 26, 27]",223.7928286,29321,284,1,39,10,1.895724242592676
undo,0,41,1,0,0,13,"[0, 13]",2,23,"[1, 2, 3, 5, 6, 7, 9, 10, 11, 12, 14, 15, 17, 18, 19, 20, 21, 22, 24, 25, 26, 27, 28]",258.2747079,29463,142,1,55,10,1.0
undo,0,41,1,0,0,0,[0],1,29,"[1, 2, 3, 4, 5, 6, 7, 8, 9, 10, 11, 12, 13, 14, 15, 16, 17, 18, 19, 20, 21, 22, 23, 24, 25, 26, 27, 28, 29]",300,30203,740,1,143,10,0.0
undo,0,41,0,0,0,28,"[0, 28]",2,27,"[1, 2, 3, 5, 6, 7, 8, 9, 10, 11, 12, 13, 14, 15, 16, 17, 18, 19, 20, 21, 22, 23, 24, 25, 26, 27, 29]",259.8004975,30781,578,37,249,9,1.0
undo,0,41,0,0,0,5,"[0, 28, 5]",3,26,"[1, 2, 3, 6, 7, 8, 9, 10, 11, 12, 13, 14, 15, 16, 17, 18, 19, 20, 21, 22, 23, 24, 25, 26, 27, 29]",246.199027,31070,289,30,182,9,1.714241539747437
undo,0,41,0,0,0,3,"[0, 28, 5, 3]",4,25,"[1, 2, 6, 7, 8, 9, 10, 11, 12, 13, 14, 15, 16, 17, 18, 19, 20, 21, 22, 23, 24, 25, 26, 27, 29]",211.3708775,31646,576,20,93,9,2.2367972660995847
undo,0,41,0,0,0,21,"[0, 28, 5, 3, 21]",5,19,"[1, 2, 6, 9, 10, 11, 12, 13, 14, 15, 17, 18, 19, 20, 22, 24, 25, 26, 27]",179.2305601,32940,1294,12,46,9,2.470864770481327
undo,0,41,1,0,0,3,"[0, 28, 5, 3]",4,25,"[1, 2, 6, 7, 8, 9, 10, 11, 12, 13, 14, 15, 16, 17, 18, 19, 20, 21, 22, 23, 24, 25, 26, 27, 29]",211.3708775,33657,717,20,93,9,2.2367972660995847
undo,0,41,1,0,0,5,"[0, 28, 5]",3,26,"[1, 2, 3, 6, 7, 8, 9, 10, 11, 12, 13, 14, 15, 16, 17, 18, 19, 20, 21, 22, 23, 24, 25, 26, 27, 29]",246.199027,34521,864,30,182,9,1.714241539747437
undo,0,41,0,0,0,22,"[0, 28, 5, 22]",4,22,"[1, 2, 3, 6, 7, 8, 9, 10, 11, 12, 13, 14, 16, 17, 18, 19, 20, 21, 23, 24, 25, 27]",191.4541642,35091,570,7,30,9,1.5739547554580093
undo,0,41,0,0,0,3,"[0, 28, 5, 22, 3]",5,14,"[2, 6, 9, 10, 12, 13, 14, 17, 18, 19, 20, 21, 25, 27]",161.4875161,35955,864,7,17,9,3.49573973620446
undo,0,41,0,0,0,21,"[0, 28, 5, 22, 3, 21]",6,8,"[2, 9, 10, 12, 13, 14, 17, 25]",129.3471987,36823,868,7,6,9,3.491446139563656
undo,0,41,0,0,0,17,"[0, 28, 5, 22, 3, 21, 17]",7,3,"[2, 9, 10]",77.68483333,37559,736,2,1,9,3.50722901785028
undo,0,41,0,0,0,9,"[0, 28, 5, 22, 3, 21, 17, 9]",8,1,[2],46.6687085,38135,576,1,0,9,3.0784376539741842
undo,0,41,0,0,1,2,"[0, 28, 5, 22, 3, 21, 17, 9, 2]",9,0,[],34.58566252,38567,432,1,0,9,2.9335163240466624
undo,0,41,1,0,0,9,"[0, 28, 5, 22, 3, 21, 17, 9]",8,1,[2],46.6687085,39702,1135,1,0,9,3.0784376539741842
undo,0,41,1,0,0,17,"[0, 28, 5, 22, 3, 21, 17]",7,3,"[2, 9, 10]",77.68483333,40138,436,2,1,9,3.50722901785028
undo,0,41,1,0,0,21,"[0, 28, 5, 22, 3, 21]",6,8,"[2, 9, 10, 12, 13, 14, 17, 25]",129.3471987,40421,283,7,6,9,3.491446139563656
undo,0,41,1,0,0,3,"[0, 28, 5, 22, 3]",5,14,"[2, 6, 9, 10, 12, 13, 14, 17, 18, 19, 20, 21, 25, 27]",161.4875161,40990,569,7,17,9,3.49573973620446
undo,0,41,1,0,0,22,"[0, 28, 5, 22]",4,22,"[1, 2, 3, 6, 7, 8, 9, 10, 11, 12, 13, 14, 16, 17, 18, 19, 20, 21, 23, 24, 25, 27]",191.4541642,41434,444,7,30,9,1.5739547554580093
undo,0,41,1,0,0,5,"[0, 28, 5]",3,26,"[1, 2, 3, 6, 7, 8, 9, 10, 11, 12, 13, 14, 15, 16, 17, 18, 19, 20, 21, 22, 23, 24, 25, 26, 27, 29]",246.199027,42162,728,30,182,9,1.714241539747437
undo,0,41,0,0,0,3,"[0, 28, 5, 3]",4,25,"[1, 2, 6, 7, 8, 9, 10, 11, 12, 13, 14, 15, 16, 17, 18, 19, 20, 21, 22, 23, 24, 25, 26, 27, 29]",211.3708775,42741,579,20,93,9,2.2367972660995847
undo,0,41,0,0,0,21,"[0, 28, 5, 3, 21]",5,19,"[1, 2, 6, 9, 10, 11, 12, 13, 14, 15, 17, 18, 19, 20, 22, 24, 25, 26, 27]",179.2305601,43178,437,12,46,9,2.470864770481327
undo,0,41,0,0,0,17,"[0, 28, 5, 3, 21, 17]",6,12,"[1, 2, 9, 10, 12, 13, 14, 15, 22, 24, 26, 27]",127.5681947,43900,722,7,14,9,2.7202724861599736
undo,0,41,0,0,0,9,"[0, 28, 5, 3, 21, 17, 9]",7,5,"[1, 2, 10, 12, 14]",96.55206986,44620,720,4,4,9,2.472263750197181
undo,0,41,0,0,0,2,"[0, 28, 5, 3, 21, 17, 9, 2]",8,4,"[1, 10, 12, 14]",84.46902389,45049,429,4,0,9,2.382175894337433
undo,0,41,0,0,1,14,"[0, 28, 5, 3, 21, 17, 9, 2, 14]",9,0,[],16.68997108,46350,1301,1,0,9,1.7903782205974206
undo,0,41,1,0,0,2,"[0, 28, 5, 3, 21, 17, 9, 2]",8,4,"[1, 10, 12, 14]",84.46902389,48918,2568,4,0,9,2.382175894337433
undo,0,41,1,0,0,9,"[0, 28, 5, 3, 21, 17, 9]",7,5,"[1, 2, 10, 12, 14]",96.55206986,49060,142,4,4,9,2.472263750197181
undo,0,41,1,0,0,17,"[0, 28, 5, 3, 21, 17]",6,12,"[1, 2, 9, 10, 12, 13, 14, 15, 22, 24, 26, 27]",127.5681947,49490,430,7,14,9,2.7202724861599736
undo,0,41,1,0,0,21,"[0, 28, 5, 3, 21]",5,19,"[1, 2, 6, 9, 10, 11, 12, 13, 14, 15, 17, 18, 19, 20, 22, 24, 25, 26, 27]",179.2305601,49784,294,12,46,9,2.470864770481327
undo,0,41,1,0,0,3,"[0, 28, 5, 3]",4,25,"[1, 2, 6, 7, 8, 9, 10, 11, 12, 13, 14, 15, 16, 17, 18, 19, 20, 21, 22, 23, 24, 25, 26, 27, 29]",211.3708775,49927,143,20,93,9,2.2367972660995847
undo,0,41,1,0,0,5,"[0, 28, 5]",3,26,"[1, 2, 3, 6, 7, 8, 9, 10, 11, 12, 13, 14, 15, 16, 17, 18, 19, 20, 21, 22, 23, 24, 25, 26, 27, 29]",246.199027,50206,279,30,182,9,1.714241539747437
undo,0,41,1,0,0,28,"[0, 28]",2,27,"[1, 2, 3, 5, 6, 7, 8, 9, 10, 11, 12, 13, 14, 15, 16, 17, 18, 19, 20, 21, 22, 23, 24, 25, 26, 27, 29]",259.8004975,50490,284,37,249,9,1.0
undo,0,41,1,0,0,0,[0],1,29,"[1, 2, 3, 4, 5, 6, 7, 8, 9, 10, 11, 12, 13, 14, 15, 16, 17, 18, 19, 20, 21, 22, 23, 24, 25, 26, 27, 28, 29]",300,51203,713,1,143,10,0.0
undo,0,41,0,0,0,28,"[0, 28]",2,27,"[1, 2, 3, 5, 6, 7, 8, 9, 10, 11, 12, 13, 14, 15, 16, 17, 18, 19, 20, 21, 22, 23, 24, 25, 26, 27, 29]",259.8004975,53188,1985,37,249,9,1.0
undo,0,41,0,0,0,5,"[0, 28, 5]",3,26,"[1, 2, 3, 6, 7, 8, 9, 10, 11, 12, 13, 14, 15, 16, 17, 18, 19, 20, 21, 22, 23, 24, 25, 26, 27, 29]",246.199027,53482,294,30,182,9,1.714241539747437
undo,0,41,0,0,0,3,"[0, 28, 5, 3]",4,25,"[1, 2, 6, 7, 8, 9, 10, 11, 12, 13, 14, 15, 16, 17, 18, 19, 20, 21, 22, 23, 24, 25, 26, 27, 29]",211.3708775,53927,445,20,93,9,2.2367972660995847
undo,0,41,0,0,0,21,"[0, 28, 5, 3, 21]",5,19,"[1, 2, 6, 9, 10, 11, 12, 13, 14, 15, 17, 18, 19, 20, 22, 24, 25, 26, 27]",179.2305601,54641,714,12,46,9,2.470864770481327
undo,0,41,0,0,0,17,"[0, 28, 5, 3, 21, 17]",6,12,"[1, 2, 9, 10, 12, 13, 14, 15, 22, 24, 26, 27]",127.5681947,55521,880,7,14,9,2.7202724861599736
undo,0,41,0,0,0,10,"[0, 28, 5, 3, 21, 17, 10]",7,4,"[2, 9, 24, 27]",78.32390569,56106,585,4,0,8,2.6203140917521623
undo,0,41,0,0,1,24,"[0, 28, 5, 3, 21, 17, 10, 24]",8,0,[],29.07961668,56687,581,1,0,8,2.0989600995004793
undo,0,41,1,0,0,10,"[0, 28, 5, 3, 21, 17, 10]",7,4,"[2, 9, 24, 27]",78.32390569,57983,1296,4,0,8,2.6203140917521623
undo,0,41,1,0,0,17,"[0, 28, 5, 3, 21, 17]",6,12,"[1, 2, 9, 10, 12, 13, 14, 15, 22, 24, 26, 27]",127.5681947,58413,430,7,14,9,2.7202724861599736
undo,0,41,1,0,0,21,"[0, 28, 5, 3, 21]",5,19,"[1, 2, 6, 9, 10, 11, 12, 13, 14, 15, 17, 18, 19, 20, 22, 24, 25, 26, 27]",179.2305601,58557,144,12,46,9,2.470864770481327
undo,0,41,1,0,0,3,"[0, 28, 5, 3]",4,25,"[1, 2, 6, 7, 8, 9, 10, 11, 12, 13, 14, 15, 16, 17, 18, 19, 20, 21, 22, 23, 24, 25, 26, 27, 29]",211.3708775,58851,294,20,93,9,2.2367972660995847
undo,0,41,1,0,0,5,"[0, 28, 5]",3,26,"[1, 2, 3, 6, 7, 8, 9, 10, 11, 12, 13, 14, 15, 16, 17, 18, 19, 20, 21, 22, 23, 24, 25, 26, 27, 29]",246.199027,59583,732,30,182,9,1.714241539747437
undo,0,41,1,0,0,28,"[0, 28]",2,27,"[1, 2, 3, 5, 6, 7, 8, 9, 10, 11, 12, 13, 14, 15, 16, 17, 18, 19, 20, 21, 22, 23, 24, 25, 26, 27, 29]",259.8004975,59873,290,37,249,9,1.0
undo,0,41,1,0,0,0,[0],1,29,"[1, 2, 3, 4, 5, 6, 7, 8, 9, 10, 11, 12, 13, 14, 15, 16, 17, 18, 19, 20, 21, 22, 23, 24, 25, 26, 27, 28, 29]",300,60154,281,1,143,10,0.0
undo,0,41,0,0,0,13,"[0, 13]",2,23,"[1, 2, 3, 5, 6, 7, 9, 10, 11, 12, 14, 15, 17, 18, 19, 20, 21, 22, 24, 25, 26, 27, 28]",258.2747079,60861,707,1,55,10,1.0
undo,0,41,0,0,0,28,"[0, 13, 28]",3,22,"[1, 2, 3, 5, 6, 7, 9, 10, 11, 12, 14, 15, 17, 18, 19, 20, 21, 22, 24, 25, 26, 27]",223.7928286,61297,436,1,39,10,1.895724242592676
undo,0,41,0,0,0,5,"[0, 13, 28, 5]",4,19,"[1, 2, 3, 6, 9, 10, 11, 12, 14, 15, 17, 18, 19, 20, 21, 22, 24, 25, 27]",210.1913581,61736,439,1,34,10,2.861541269398273
undo,0,41,0,0,0,3,"[0, 13, 28, 5, 3]",5,16,"[1, 2, 6, 9, 10, 12, 14, 17, 18, 19, 20, 21, 22, 24, 25, 27]",175.3632086,62029,293,1,22,10,3.1455488489005883
undo,0,41,0,0,0,21,"[0, 13, 28, 5, 3, 21]",6,14,"[1, 2, 6, 9, 10, 12, 14, 17, 18, 19, 20, 22, 25, 27]",143.2228912,62606,577,13,11,9,3.207558429289677
undo,0,41,0,0,0,9,"[0, 13, 28, 5, 3, 21, 9]",7,6,"[1, 2, 10, 12, 14, 17]",93.85691102,65211,2605,7,4,9,2.5050148501792275
undo,0,41,0,0,0,2,"[0, 13, 28, 5, 3, 21, 9, 2]",8,5,"[1, 10, 12, 14, 17]",81.77386505,65500,289,5,0,9,2.4119643847713177
undo,0,41,0,0,1,1,"[0, 13, 28, 5, 3, 21, 9, 2, 1]",9,0,[],0.502713952,67233,1733,1,0,9,1.9608520643587226
undo,0,41,0,1,1,1,"[0, 13, 28, 5, 3, 21, 9, 2, 1]",9,0,[],0.502713952,69087,1854,1,0,9,1.9608520643587226
undo,1,39,0,0,0,0,[0],1,28,"[1, 2, 3, 4, 5, 6, 7, 9, 10, 11, 12, 13, 14, 15, 16, 17, 18, 19, 20, 21, 22, 23, 24, 25, 26, 27, 28, 29]",300,9,-1,1,30,10,0.0
undo,1,39,0,0,0,29,"[0, 29]",2,26,"[1, 2, 3, 4, 5, 6, 7, 9, 10, 12, 13, 14, 15, 16, 17, 18, 19, 20, 21, 22, 23, 24, 25, 26, 27, 28]",243.0614366,8727,8718,8,104,9,1.0
undo,1,39,0,0,0,12,"[0, 29, 12]",3,18,"[1, 2, 4, 5, 7, 9, 10, 13, 14, 15, 16, 18, 19, 22, 23, 24, 26, 28]",182.5221931,9479,752,5,54,9,1.0026200331524904
undo,1,39,0,0,0,10,"[0, 29, 12, 10]",4,16,"[1, 2, 4, 5, 7, 9, 13, 14, 15, 16, 18, 19, 22, 23, 24, 26]",147.0116313,10344,865,5,34,9,1.2874817019928908
undo,1,39,0,0,0,7,"[0, 29, 12, 10, 7]",5,10,"[1, 2, 5, 13, 16, 18, 19, 22, 24, 26]",113.5900814,10781,437,4,12,9,1.2250826263866774
undo,1,39,0,0,0,26,"[0, 29, 12, 10, 7, 26]",6,5,"[1, 16, 18, 19, 22]",94.90853971,11071,290,3,4,9,1.2697275353190085
undo,1,39,0,0,0,22,"[0, 29, 12, 10, 7, 26, 22]",7,2,"[16, 19]",77.18849457,11505,434,2,0,9,1.438961743955176
undo,1,39,0,0,0,16,"[0, 29, 12, 10, 7, 26, 22, 16]",8,1,[19],42.18849457,12086,581,1,0,9,1.3580882130477205
undo,1,39,0,0,1,19,"[0, 29, 12, 10, 7, 26, 22, 16, 19]",9,0,[],24.72424537,12514,428,1,0,9,1.3646589157842668
undo,1,39,0,1,1,19,"[0, 29, 12, 10, 7, 26, 22, 16, 19]",9,0,[],24.72424537,16825,4311,1,0,9,1.3646589157842668
undo,2,20,0,0,0,0,[0],1,21,"[1, 2, 3, 4, 5, 6, 7, 8, 9, 12, 17, 18, 20, 21, 22, 23, 25, 26, 27, 28, 29]",300,11,-1,1,9,9,0.0
undo,2,20,0,0,0,12,"[0, 12]",2,20,"[1, 2, 3, 4, 5, 6, 7, 8, 9, 17, 18, 20, 21, 22, 23, 25, 26, 27, 28, 29]",271.5570747,7318,7307,1,8,9,1.0
undo,2,20,0,0,0,5,"[0, 12, 5]",3,13,"[1, 3, 4, 6, 8, 9, 20, 21, 23, 26, 27, 28, 29]",171.4321527,10480,3162,2,19,8,1.0232843285905395
undo,2,20,0,0,0,21,"[0, 12, 5, 21]",4,10,"[1, 4, 6, 8, 9, 20, 23, 26, 27, 28]",126.4321527,13063,2583,2,12,8,1.017525191374897
undo,2,20,0,0,0,8,"[0, 12, 5, 21, 8]",5,6,"[1, 6, 9, 23, 27, 28]",108.9679035,13493,430,2,6,8,1.0391698601004782
undo,2,20,0,0,0,27,"[0, 12, 5, 21, 8, 27]",6,2,"[9, 23]",68.7435328,13794,301,2,0,7,1.215457006812467
undo,2,20,0,0,1,23,"[0, 12, 5, 21, 8, 27, 23]",7,0,[],16.73391831,14654,860,1,0,7,1.2435798161364517
undo,2,20,1,0,0,27,"[0, 12, 5, 21, 8, 27]",6,2,"[9, 23]",68.7435328,15230,576,2,0,7,1.215457006812467
undo,2,20,1,0,0,8,"[0, 12, 5, 21, 8]",5,6,"[1, 6, 9, 23, 27, 28]",108.9679035,15373,143,2,6,8,1.0391698601004782
undo,2,20,0,0,0,23,"[0, 12, 5, 21, 8, 23]",6,3,"[6, 9, 27]",64.28009758,16081,708,2,1,8,1.0348450868606567
undo,2,20,0,0,0,9,"[0, 12, 5, 21, 8, 23, 9]",7,1,[6],45.07072487,16646,565,1,0,8,1.0335348098288684
undo,2,20,0,0,1,6,"[0, 12, 5, 21, 8, 23, 9, 6]",8,0,[],22.048996,17784,1138,1,0,8,1.0486850646228845
undo,2,20,1,0,0,9,"[0, 12, 5, 21, 8, 23, 9]",7,1,[6],45.07072487,20044,2260,1,0,8,1.0335348098288684
undo,2,20,1,0,0,23,"[0, 12, 5, 21, 8, 23]",6,3,"[6, 9, 27]",64.28009758,20476,432,2,1,8,1.0348450868606567
undo,2,20,1,0,0,8,"[0, 12, 5, 21, 8]",5,6,"[1, 6, 9, 23, 27, 28]",108.9679035,20616,140,2,6,8,1.0391698601004782
undo,2,20,1,0,0,21,"[0, 12, 5, 21]",4,10,"[1, 4, 6, 8, 9, 20, 23, 26, 27, 28]",126.4321527,20897,281,2,12,8,1.017525191374897
undo,2,20,1,0,0,5,"[0, 12, 5]",3,13,"[1, 3, 4, 6, 8, 9, 20, 21, 23, 26, 27, 28, 29]",171.4321527,21467,570,2,19,8,1.0232843285905395
undo,2,20,1,0,0,12,"[0, 12]",2,20,"[1, 2, 3, 4, 5, 6, 7, 8, 9, 17, 18, 20, 21, 22, 23, 25, 26, 27, 28, 29]",271.5570747,22190,723,1,8,9,1.0
undo,2,20,1,0,0,0,[0],1,21,"[1, 2, 3, 4, 5, 6, 7, 8, 9, 12, 17, 18, 20, 21, 22, 23, 25, 26, 27, 28, 29]",300,22912,722,1,9,9,0.0
undo,2,20,0,0,0,1,"[0, 1]",2,14,"[3, 4, 5, 6, 8, 9, 12, 20, 21, 23, 26, 27, 28, 29]",197.3501096,23638,726,1,9,8,1.0
undo,2,20,0,0,0,5,"[0, 1, 5]",3,12,"[4, 6, 8, 9, 12, 20, 21, 23, 26, 27, 28, 29]",160.675868,25789,2151,1,8,8,1.1088946720668915
undo,2,20,0,0,0,21,"[0, 1, 5, 21]",4,8,"[4, 6, 8, 9, 20, 23, 27, 28]",115.675868,26513,724,1,6,8,1.0805828994591202
undo,2,20,0,0,0,8,"[0, 1, 5, 21, 8]",5,5,"[6, 9, 23, 27, 28]",98.21161876,26802,289,1,5,8,1.0976815296746363
undo,2,20,0,0,0,23,"[0, 1, 5, 21, 8, 23]",6,3,"[6, 9, 27]",53.52381281,27668,866,1,2,8,1.0820667611140062
undo,2,20,0,0,0,9,"[0, 1, 5, 21, 8, 23, 9]",7,1,[6],34.3144401,28101,433,1,0,8,1.0771429624373048
undo,2,20,0,0,1,6,"[0, 1, 5, 21, 8, 23, 9, 6]",8,0,[],11.29271124,29381,1280,1,0,8,1.0892675954154076
undo,2,20,0,1,1,6,"[0, 1, 5, 21, 8, 23, 9, 6]",8,0,[],11.29271124,35703,6322,1,0,8,1.0892675954154076
undo,3,22,0,0,0,0,[0],1,29,"[1, 2, 3, 4, 5, 6, 7, 8, 9, 10, 11, 12, 13, 14, 15, 16, 17, 18, 19, 20, 21, 22, 23, 24, 25, 26, 27, 28, 29]",300,11,-1,31,704,9,0.0
undo,3,22,0,0,0,16,"[0, 16]",2,21,"[1, 3, 6, 7, 8, 9, 11, 13, 14, 15, 17, 18, 19, 20, 21, 22, 24, 25, 27, 28, 29]",218.605897,6384,6373,17,147,9,1.0
undo,3,22,0,0,0,28,"[0, 16, 28]",3,13,"[6, 7, 9, 13, 14, 17, 19, 20, 21, 22, 24, 25, 29]",184.1675463,7398,1014,12,61,9,1.047282311284478
undo,3,22,0,0,0,6,"[0, 16, 28, 6]",4,12,"[7, 9, 13, 14, 17, 19, 20, 21, 22, 24, 25, 29]",154.1675463,7688,290,12,43,9,1.645645870580622
undo,3,22,0,0,0,9,"[0, 16, 28, 6, 9]",5,8,"[7, 14, 17, 19, 20, 21, 24, 29]",127.5404924,8680,992,8,17,9,1.925750226630103
undo,3,22,0,0,0,19,"[0, 16, 28, 6, 9, 19]",6,6,"[7, 14, 17, 21, 24, 29]",107.1444143,8969,289,3,7,9,2.4220750331476455
undo,3,22,1,0,0,9,"[0, 16, 28, 6, 9]",5,8,"[7, 14, 17, 19, 20, 21, 24, 29]",127.5404924,10416,1447,8,17,9,1.925750226630103
undo,3,22,1,0,0,6,"[0, 16, 28, 6]",4,12,"[7, 9, 13, 14, 17, 19, 20, 21, 22, 24, 25, 29]",154.1675463,10698,282,12,43,9,1.645645870580622
undo,3,22,0,0,0,9,"[0, 16, 28, 6, 9]",5,8,"[7, 14, 17, 19, 20, 21, 24, 29]",127.5404924,12266,1568,8,17,9,1.925750226630103
undo,3,22,0,0,0,14,"[0, 16, 28, 6, 9, 14]",6,5,"[7, 17, 19, 24, 29]",84.49400589,13129,863,2,4,9,1.6636058370259441
undo,3,22,0,0,0,7,"[0, 16, 28, 6, 9, 14, 7]",7,4,"[17, 19, 24, 29]",71.45560108,13417,288,2,2,9,1.8172242553661921
undo,3,22,0,0,0,19,"[0, 16, 28, 6, 9, 14, 7, 19]",8,1,[29],25.18465988,14720,1303,1,0,9,3.451408325118739
undo,3,22,0,0,1,29,"[0, 16, 28, 6, 9, 14, 7, 19, 29]",9,0,[],10.1513635,15155,435,1,0,9,3.763950601205494
undo,3,22,1,0,0,19,"[0, 16, 28, 6, 9, 14, 7, 19]",8,1,[29],25.18465988,16145,990,1,0,9,3.451408325118739
undo,3,22,1,0,0,7,"[0, 16, 28, 6, 9, 14, 7]",7,4,"[17, 19, 24, 29]",71.45560108,16287,142,2,2,9,1.8172242553661921
undo,3,22,1,0,0,14,"[0, 16, 28, 6, 9, 14]",6,5,"[7, 17, 19, 24, 29]",84.49400589,16583,296,2,4,9,1.6636058370259441
undo,3,22,0,0,0,7,"[0, 16, 28, 6, 9, 14, 7]",7,4,"[17, 19, 24, 29]",71.45560108,17720,1137,2,2,9,1.8172242553661921
undo,3,22,0,0,0,19,"[0, 16, 28, 6, 9, 14, 7, 19]",8,1,[29],25.18465988,18156,436,1,0,9,3.451408325118739
undo,3,22,0,0,1,29,"[0, 16, 28, 6, 9, 14, 7, 19, 29]",9,0,[],10.1513635,18727,571,1,0,9,3.763950601205494
undo,3,22,1,0,0,19,"[0, 16, 28, 6, 9, 14, 7, 19]",8,1,[29],25.18465988,19730,1003,1,0,9,3.451408325118739
undo,3,22,1,0,0,7,"[0, 16, 28, 6, 9, 14, 7]",7,4,"[17, 19, 24, 29]",71.45560108,19876,146,2,2,9,1.8172242553661921
undo,3,22,1,0,0,14,"[0, 16, 28, 6, 9, 14]",6,5,"[7, 17, 19, 24, 29]",84.49400589,20306,430,2,4,9,1.6636058370259441
undo,3,22,1,0,0,9,"[0, 16, 28, 6, 9]",5,8,"[7, 14, 17, 19, 20, 21, 24, 29]",127.5404924,20737,431,8,17,9,1.925750226630103
undo,3,22,1,0,0,6,"[0, 16, 28, 6]",4,12,"[7, 9, 13, 14, 17, 19, 20, 21, 22, 24, 25, 29]",154.1675463,20878,141,12,43,9,1.645645870580622
undo,3,22,1,0,0,28,"[0, 16, 28]",3,13,"[6, 7, 9, 13, 14, 17, 19, 20, 21, 22, 24, 25, 29]",184.1675463,21164,286,12,61,9,1.047282311284478
undo,3,22,1,0,0,16,"[0, 16]",2,21,"[1, 3, 6, 7, 8, 9, 11, 13, 14, 15, 17, 18, 19, 20, 21, 22, 24, 25, 27, 28, 29]",218.605897,21307,143,17,147,9,1.0
undo,3,22,1,0,0,0,[0],1,29,"[1, 2, 3, 4, 5, 6, 7, 8, 9, 10, 11, 12, 13, 14, 15, 16, 17, 18, 19, 20, 21, 22, 23, 24, 25, 26, 27, 28, 29]",300,21449,142,31,704,9,0.0
undo,3,22,0,0,0,29,"[0, 29]",2,22,"[1, 3, 5, 6, 7, 8, 9, 11, 13, 14, 15, 16, 17, 19, 20, 21, 22, 23, 24, 25, 27, 28]",222.9935068,22730,1281,11,235,9,1.0
undo,3,22,0,0,0,24,"[0, 29, 24]",3,16,"[1, 3, 6, 7, 8, 9, 13, 14, 15, 16, 17, 19, 20, 21, 23, 28]",155.096526,23168,438,1,34,8,1.0802868172164146
undo,3,22,0,0,0,21,"[0, 29, 24, 21]",4,12,"[1, 3, 7, 8, 9, 13, 14, 15, 17, 19, 20, 23]",127.893585,23605,437,1,13,8,1.0669483894020666
undo,3,22,0,0,0,1,"[0, 29, 24, 21, 1]",5,3,"[3, 17, 20]",88.06896946,24474,869,1,2,7,1.0793438677146463
undo,3,22,0,0,0,3,"[0, 29, 24, 21, 1, 3]",6,1,[20],61.38564133,24917,443,1,0,7,1.4001782054709326
undo,3,22,0,0,1,20,"[0, 29, 24, 21, 1, 3, 20]",7,0,[],29.13661034,25499,582,1,0,7,1.8669137698720861
undo,3,22,1,0,0,3,"[0, 29, 24, 21, 1, 3]",6,1,[20],61.38564133,26349,850,1,0,7,1.4001782054709326
undo,3,22,1,0,0,1,"[0, 29, 24, 21, 1]",5,3,"[3, 17, 20]",88.06896946,26492,143,1,2,7,1.0793438677146463
undo,3,22,1,0,0,21,"[0, 29, 24, 21]",4,12,"[1, 3, 7, 8, 9, 13, 14, 15, 17, 19, 20, 23]",127.893585,26929,437,1,13,8,1.0669483894020666
undo,3,22,1,0,0,24,"[0, 29, 24]",3,16,"[1, 3, 6, 7, 8, 9, 13, 14, 15, 16, 17, 19, 20, 21, 23, 28]",155.096526,27076,147,1,34,8,1.0802868172164146
undo,3,22,1,0,0,29,"[0, 29]",2,22,"[1, 3, 5, 6, 7, 8, 9, 11, 13, 14, 15, 16, 17, 19, 20, 21, 22, 23, 24, 25, 27, 28]",222.9935068,27370,294,11,235,9,1.0
undo,3,22,1,0,0,0,[0],1,29,"[1, 2, 3, 4, 5, 6, 7, 8, 9, 10, 11, 12, 13, 14, 15, 16, 17, 18, 19, 20, 21, 22, 23, 24, 25, 26, 27, 28, 29]",300,27516,146,31,704,9,0.0
undo,3,22,0,0,0,16,"[0, 16]",2,21,"[1, 3, 6, 7, 8, 9, 11, 13, 14, 15, 17, 18, 19, 20, 21, 22, 24, 25, 27, 28, 29]",218.605897,28540,1024,17,147,9,1.0
undo,3,22,0,0,0,28,"[0, 16, 28]",3,13,"[6, 7, 9, 13, 14, 17, 19, 20, 21, 22, 24, 25, 29]",184.1675463,29117,577,12,61,9,1.047282311284478
undo,3,22,0,0,0,6,"[0, 16, 28, 6]",4,12,"[7, 9, 13, 14, 17, 19, 20, 21, 22, 24, 25, 29]",154.1675463,29550,433,12,43,9,1.645645870580622
undo,3,22,0,0,0,9,"[0, 16, 28, 6, 9]",5,8,"[7, 14, 17, 19, 20, 21, 24, 29]",127.5404924,30117,567,8,17,9,1.925750226630103
undo,3,22,0,0,0,14,"[0, 16, 28, 6, 9, 14]",6,5,"[7, 17, 19, 24, 29]",84.49400589,30555,438,2,4,9,1.6636058370259441
undo,3,22,0,0,0,7,"[0, 16, 28, 6, 9, 14, 7]",7,4,"[17, 19, 24, 29]",71.45560108,30841,286,2,2,9,1.8172242553661921
undo,3,22,0,0,0,19,"[0, 16, 28, 6, 9, 14, 7, 19]",8,1,[29],25.18465988,31721,880,1,0,9,3.451408325118739
undo,3,22,0,0,1,29,"[0, 16, 28, 6, 9, 14, 7, 19, 29]",9,0,[],10.1513635,32579,858,1,0,9,3.763950601205494
undo,3,22,0,1,1,29,"[0, 16, 28, 6, 9, 14, 7, 19, 29]",9,0,[],10.1513635,34297,1718,1,0,9,3.763950601205494
undo,4,15,0,0,0,0,[0],1,25,"[1, 2, 3, 4, 7, 8, 9, 10, 11, 12, 13, 14, 15, 16, 18, 20, 21, 22, 23, 24, 25, 26, 27, 28, 29]",300,10,-1,4,65,9,0.0
undo,4,15,0,0,0,12,"[0, 12]",2,22,"[1, 2, 3, 4, 7, 8, 9, 10, 11, 13, 14, 15, 16, 18, 21, 22, 23, 24, 26, 27, 28, 29]",213.547701,4997,4987,4,35,9,1.0
undo,4,15,0,0,0,7,"[0, 12, 7]",3,16,"[1, 3, 4, 8, 9, 10, 11, 13, 14, 15, 16, 18, 21, 22, 24, 27]",180.3061607,6017,1020,4,29,9,1.411291635294361
undo,4,15,0,0,0,16,"[0, 12, 7, 16]",4,10,"[3, 4, 10, 11, 13, 14, 15, 18, 21, 22]",136.6484008,6633,616,2,11,9,1.4308733430458784
undo,4,15,0,0,0,11,"[0, 12, 7, 16, 11]",5,7,"[3, 4, 13, 14, 15, 21, 22]",110.6291772,7068,435,2,5,9,1.5251025438826007
undo,4,15,0,0,0,3,"[0, 12, 7, 16, 11, 3]",6,5,"[4, 13, 14, 15, 22]",99.22742292,7498,430,2,3,9,1.5166583878170454
undo,4,15,0,0,0,22,"[0, 12, 7, 16, 11, 3, 22]",7,2,"[13, 15]",49.49815588,7930,432,2,0,9,1.4519711389669923
undo,4,15,0,0,0,13,"[0, 12, 7, 16, 11, 3, 22, 13]",8,1,[15],21.3379002,9367,1437,1,0,9,1.390947894090134
undo,4,15,0,0,1,15,"[0, 12, 7, 16, 11, 3, 22, 13, 15]",9,0,[],6.073562677,9799,432,1,0,9,1.4967248964735906
undo,4,15,0,1,1,15,"[0, 12, 7, 16, 11, 3, 22, 13, 15]",9,0,[],6.073562677,11375,1576,1,0,9,1.4967248964735906
undo,5,5,0,0,0,0,[0],1,29,"[1, 2, 3, 4, 5, 6, 7, 8, 9, 10, 11, 12, 13, 14, 15, 16, 17, 18, 19, 20, 21, 22, 23, 24, 25, 26, 27, 28, 29]",300,12,-1,5,139,9,0.0
undo,5,5,0,0,0,12,"[0, 12]",2,22,"[2, 4, 5, 6, 8, 9, 10, 13, 14, 15, 16, 17, 18, 19, 21, 22, 23, 24, 25, 26, 27, 28]",228.3062067,1895,1883,1,27,9,1.0
undo,5,5,0,0,0,25,"[0, 12, 25]",3,21,"[2, 4, 5, 6, 8, 9, 10, 13, 14, 15, 16, 17, 18, 19, 21, 22, 23, 24, 26, 27, 28]",200.5213187,2327,432,1,20,9,1.584023303445617
undo,5,5,0,0,0,23,"[0, 12, 25, 23]",4,19,"[2, 4, 5, 6, 8, 9, 10, 13, 14, 15, 16, 17, 18, 19, 21, 22, 24, 26, 27]",182.0822298,2612,285,1,14,9,2.3508446989254357
undo,5,5,0,0,0,24,"[0, 12, 25, 23, 24]",5,15,"[2, 4, 5, 6, 8, 9, 13, 14, 15, 17, 18, 19, 22, 26, 27]",158.995437,3058,446,1,12,9,1.9469752046288753
undo,5,5,0,0,0,17,"[0, 12, 25, 23, 24, 17]",6,7,"[4, 5, 6, 8, 15, 18, 19]",124.0097257,4069,1011,1,8,9,1.6482276497563642
undo,5,5,0,0,0,5,"[0, 12, 25, 23, 24, 17, 5]",7,4,"[4, 6, 15, 18]",80.96323916,4659,590,1,3,9,1.4654649104389412
undo,5,5,0,0,1,15,"[0, 12, 25, 23, 24, 17, 5, 15]",8,0,[],40.93824697,5515,856,1,0,8,1.4660376450939663
undo,5,5,1,0,0,5,"[0, 12, 25, 23, 24, 17, 5]",7,4,"[4, 6, 15, 18]",80.96323916,7097,1582,1,3,9,1.4654649104389412
undo,5,5,1,0,0,17,"[0, 12, 25, 23, 24, 17]",6,7,"[4, 5, 6, 8, 15, 18, 19]",124.0097257,7237,140,1,8,9,1.6482276497563642
undo,5,5,1,0,0,24,"[0, 12, 25, 23, 24]",5,15,"[2, 4, 5, 6, 8, 9, 13, 14, 15, 17, 18, 19, 22, 26, 27]",158.995437,7672,435,1,12,9,1.9469752046288753
undo,5,5,1,0,0,23,"[0, 12, 25, 23]",4,19,"[2, 4, 5, 6, 8, 9, 10, 13, 14, 15, 16, 17, 18, 19, 21, 22, 24, 26, 27]",182.0822298,7813,141,1,14,9,2.3508446989254357
undo,5,5,0,0,0,8,"[0, 12, 25, 23, 8]",5,9,"[4, 5, 6, 9, 13, 17, 19, 24, 27]",116.4773519,9971,2158,8,3,7,2.000016697247297
undo,5,5,0,0,0,19,"[0, 12, 25, 23, 8, 19]",6,1,[27],76.11647978,10405,434,1,0,7,1.7369931043644335
undo,5,5,0,0,1,27,"[0, 12, 25, 23, 8, 19, 27]",7,0,[],16.11647978,11413,1008,1,0,7,2.4140418435587967
undo,5,5,1,0,0,19,"[0, 12, 25, 23, 8, 19]",6,1,[27],76.11647978,12121,708,1,0,7,1.7369931043644335
undo,5,5,1,0,0,8,"[0, 12, 25, 23, 8]",5,9,"[4, 5, 6, 9, 13, 17, 19, 24, 27]",116.4773519,12550,429,8,3,7,2.000016697247297
undo,5,5,1,0,0,23,"[0, 12, 25, 23]",4,19,"[2, 4, 5, 6, 8, 9, 10, 13, 14, 15, 16, 17, 18, 19, 21, 22, 24, 26, 27]",182.0822298,12692,142,1,14,9,2.3508446989254357
undo,5,5,1,0,0,25,"[0, 12, 25]",3,21,"[2, 4, 5, 6, 8, 9, 10, 13, 14, 15, 16, 17, 18, 19, 21, 22, 23, 24, 26, 27, 28]",200.5213187,13713,1021,1,20,9,1.584023303445617
undo,5,5,1,0,0,12,"[0, 12]",2,22,"[2, 4, 5, 6, 8, 9, 10, 13, 14, 15, 16, 17, 18, 19, 21, 22, 23, 24, 25, 26, 27, 28]",228.3062067,13995,282,1,27,9,1.0
undo,5,5,1,0,0,0,[0],1,29,"[1, 2, 3, 4, 5, 6, 7, 8, 9, 10, 11, 12, 13, 14, 15, 16, 17, 18, 19, 20, 21, 22, 23, 24, 25, 26, 27, 28, 29]",300,14136,141,5,139,9,0.0
undo,5,5,0,0,0,12,"[0, 12]",2,22,"[2, 4, 5, 6, 8, 9, 10, 13, 14, 15, 16, 17, 18, 19, 21, 22, 23, 24, 25, 26, 27, 28]",228.3062067,17030,2894,1,27,9,1.0
undo,5,5,0,0,0,25,"[0, 12, 25]",3,21,"[2, 4, 5, 6, 8, 9, 10, 13, 14, 15, 16, 17, 18, 19, 21, 22, 23, 24, 26, 27, 28]",200.5213187,17467,437,1,20,9,1.584023303445617
undo,5,5,0,0,0,23,"[0, 12, 25, 23]",4,19,"[2, 4, 5, 6, 8, 9, 10, 13, 14, 15, 16, 17, 18, 19, 21, 22, 24, 26, 27]",182.0822298,17756,289,1,14,9,2.3508446989254357
undo,5,5,0,0,0,24,"[0, 12, 25, 23, 24]",5,15,"[2, 4, 5, 6, 8, 9, 13, 14, 15, 17, 18, 19, 22, 26, 27]",158.995437,18190,434,1,12,9,1.9469752046288753
undo,5,5,0,0,0,17,"[0, 12, 25, 23, 24, 17]",6,7,"[4, 5, 6, 8, 15, 18, 19]",124.0097257,18635,445,1,8,9,1.6482276497563642
undo,5,5,0,0,0,5,"[0, 12, 25, 23, 24, 17, 5]",7,4,"[4, 6, 15, 18]",80.96323916,19369,734,1,3,9,1.4654649104389412
undo,5,5,0,0,1,15,"[0, 12, 25, 23, 24, 17, 5, 15]",8,0,[],40.93824697,19663,294,1,0,8,1.4660376450939663
undo,5,5,1,0,0,5,"[0, 12, 25, 23, 24, 17, 5]",7,4,"[4, 6, 15, 18]",80.96323916,22648,2985,1,3,9,1.4654649104389412
undo,5,5,0,0,0,4,"[0, 12, 25, 23, 24, 17, 5, 4]",8,1,[6],15.16050365,23837,1189,1,0,9,1.6255060355828674
undo,5,5,0,0,1,6,"[0, 12, 25, 23, 24, 17, 5, 4, 6]",9,0,[],3.118909076,24425,588,1,0,9,1.7777310833772453
undo,5,5,0,1,1,6,"[0, 12, 25, 23, 24, 17, 5, 4, 6]",9,0,[],3.118909076,26139,1714,1,0,9,1.7777310833772453
undo,6,7,0,0,0,0,[0],1,29,"[1, 2, 3, 4, 5, 6, 7, 8, 9, 10, 11, 12, 13, 14, 15, 16, 17, 18, 19, 20, 21, 22, 23, 24, 25, 26, 27, 28, 29]",300,11,-1,3,79,9,0.0
undo,6,7,0,0,0,6,"[0, 6]",2,22,"[2, 4, 5, 7, 8, 9, 10, 11, 13, 14, 15, 16, 18, 19, 20, 21, 22, 23, 24, 25, 27, 28]",231.1160396,4893,4882,1,24,9,1.0
undo,6,7,0,0,0,4,"[0, 6, 4]",3,11,"[2, 7, 13, 15, 16, 18, 19, 20, 21, 23, 25]",148.6236157,5625,732,4,34,8,1.0779650303607222
undo,6,7,0,0,0,25,"[0, 6, 4, 25]",4,9,"[2, 7, 13, 15, 16, 18, 19, 20, 23]",123.884982,6062,437,2,11,8,1.4873815316264414
undo,6,7,0,0,0,18,"[0, 6, 4, 25, 18]",5,6,"[2, 7, 13, 16, 19, 20]",95.56537744,7204,1142,1,6,8,1.4279029945047947
undo,6,7,0,0,0,20,"[0, 6, 4, 25, 18, 20]",6,3,"[7, 13, 19]",82.75912896,7491,287,1,2,8,1.4491099791595008
undo,6,7,0,0,0,7,"[0, 6, 4, 25, 18, 20, 7]",7,1,[19],42.2622155,8074,583,1,0,8,1.408887083753089
undo,6,7,0,0,1,19,"[0, 6, 4, 25, 18, 20, 7, 19]",8,0,[],12.85133316,9218,1144,1,0,8,1.5179459002174112
undo,6,7,1,0,0,7,"[0, 6, 4, 25, 18, 20, 7]",7,1,[19],42.2622155,10363,1145,1,0,8,1.408887083753089
undo,6,7,1,0,0,20,"[0, 6, 4, 25, 18, 20]",6,3,"[7, 13, 19]",82.75912896,10512,149,1,2,8,1.4491099791595008
undo,6,7,1,0,0,18,"[0, 6, 4, 25, 18]",5,6,"[2, 7, 13, 16, 19, 20]",95.56537744,10659,147,1,6,8,1.4279029945047947
undo,6,7,1,0,0,25,"[0, 6, 4, 25]",4,9,"[2, 7, 13, 15, 16, 18, 19, 20, 23]",123.884982,11530,871,2,11,8,1.4873815316264414
undo,6,7,0,0,0,20,"[0, 6, 4, 25, 20]",5,4,"[7, 13, 18, 19]",92.10448479,12115,585,1,3,8,1.3867715788059323
undo,6,7,0,0,0,18,"[0, 6, 4, 25, 20, 18]",6,2,"[7, 19]",79.29823632,13431,1316,1,1,8,1.5415231789256745
undo,6,7,0,0,0,7,"[0, 6, 4, 25, 20, 18, 7]",7,1,[19],38.06718006,14581,1150,1,0,8,1.431818650650695
undo,6,7,0,0,1,19,"[0, 6, 4, 25, 20, 18, 7, 19]",8,0,[],8.65629772,14871,290,1,0,8,1.540121997768172
undo,6,7,1,0,0,7,"[0, 6, 4, 25, 20, 18, 7]",7,1,[19],38.06718006,16012,1141,1,0,8,1.431818650650695
undo,6,7,1,0,0,18,"[0, 6, 4, 25, 20, 18]",6,2,"[7, 19]",79.29823632,16581,569,1,1,8,1.5415231789256745
undo,6,7,1,0,0,20,"[0, 6, 4, 25, 20]",5,4,"[7, 13, 18, 19]",92.10448479,16731,150,1,3,8,1.3867715788059323
undo,6,7,1,0,0,25,"[0, 6, 4, 25]",4,9,"[2, 7, 13, 15, 16, 18, 19, 20, 23]",123.884982,16872,141,2,11,8,1.4873815316264414
undo,6,7,1,0,0,4,"[0, 6, 4]",3,11,"[2, 7, 13, 15, 16, 18, 19, 20, 21, 23, 25]",148.6236157,17589,717,4,34,8,1.0779650303607222
undo,6,7,1,0,0,6,"[0, 6]",2,22,"[2, 4, 5, 7, 8, 9, 10, 11, 13, 14, 15, 16, 18, 19, 20, 21, 22, 23, 24, 25, 27, 28]",231.1160396,18016,427,1,24,9,1.0
undo,6,7,1,0,0,0,[0],1,29,"[1, 2, 3, 4, 5, 6, 7, 8, 9, 10, 11, 12, 13, 14, 15, 16, 17, 18, 19, 20, 21, 22, 23, 24, 25, 26, 27, 28, 29]",300,18157,141,3,79,9,0.0
undo,6,7,0,0,0,23,"[0, 23]",2,28,"[1, 2, 3, 4, 5, 6, 7, 8, 9, 10, 11, 12, 13, 14, 15, 16, 17, 18, 19, 20, 21, 22, 24, 25, 26, 27, 28, 29]",253.7290588,19331,1174,6,103,8,1.0
undo,6,7,0,0,0,10,"[0, 23, 10]",3,12,"[1, 5, 11, 12, 14, 16, 17, 22, 24, 26, 27, 29]",156.7960923,20211,880,1,12,7,1.0266370410966699
undo,6,7,0,0,0,11,"[0, 23, 10, 11]",4,6,"[5, 12, 14, 17, 26, 29]",115.0109274,21507,1296,4,2,6,1.0223511862658814
undo,6,7,0,0,0,5,"[0, 23, 10, 11, 5]",5,1,[14],41.51262813,22229,722,1,0,6,1.6360943346697987
undo,6,7,0,0,1,14,"[0, 23, 10, 11, 5, 14]",6,0,[],26.51262813,22520,291,1,0,6,1.8041854050322972
undo,6,7,1,0,0,5,"[0, 23, 10, 11, 5]",5,1,[14],41.51262813,23097,577,1,0,6,1.6360943346697987
undo,6,7,1,0,0,11,"[0, 23, 10, 11]",4,6,"[5, 12, 14, 17, 26, 29]",115.0109274,23241,144,4,2,6,1.0223511862658814
undo,6,7,1,0,0,10,"[0, 23, 10]",3,12,"[1, 5, 11, 12, 14, 16, 17, 22, 24, 26, 27, 29]",156.7960923,24096,855,1,12,7,1.0266370410966699
undo,6,7,0,0,0,5,"[0, 23, 10, 5]",4,7,"[1, 11, 14, 16, 22, 24, 29]",97.33181728,25090,994,1,5,7,1.2827870977495097
undo,6,7,0,0,0,14,"[0, 23, 10, 5, 14]",5,4,"[1, 16, 22, 24]",82.33181728,25387,297,1,3,7,1.4359484158924918
undo,6,7,0,0,0,22,"[0, 23, 10, 5, 14, 22]",6,1,[24],22.33181728,26266,879,1,0,7,1.3335568399719164
undo,6,7,0,0,1,24,"[0, 23, 10, 5, 14, 22, 24]",7,0,[],0.128213966,27417,1151,1,0,7,1.3654678456563636
undo,6,7,1,0,0,22,"[0, 23, 10, 5, 14, 22]",6,1,[24],22.33181728,28273,856,1,0,7,1.3335568399719164
undo,6,7,1,0,0,14,"[0, 23, 10, 5, 14]",5,4,"[1, 16, 22, 24]",82.33181728,28417,144,1,3,7,1.4359484158924918
undo,6,7,1,0,0,5,"[0, 23, 10, 5]",4,7,"[1, 11, 14, 16, 22, 24, 29]",97.33181728,28842,425,1,5,7,1.2827870977495097
undo,6,7,1,0,0,10,"[0, 23, 10]",3,12,"[1, 5, 11, 12, 14, 16, 17, 22, 24, 26, 27, 29]",156.7960923,28994,152,1,12,7,1.0266370410966699
undo,6,7,1,0,0,23,"[0, 23]",2,28,"[1, 2, 3, 4, 5, 6, 7, 8, 9, 10, 11, 12, 13, 14, 15, 16, 17, 18, 19, 20, 21, 22, 24, 25, 26, 27, 28, 29]",253.7290588,29292,298,6,103,8,1.0
undo,6,7,1,0,0,0,[0],1,29,"[1, 2, 3, 4, 5, 6, 7, 8, 9, 10, 11, 12, 13, 14, 15, 16, 17, 18, 19, 20, 21, 22, 23, 24, 25, 26, 27, 28, 29]",300,29587,295,3,79,9,0.0
undo,6,7,0,0,0,25,"[0, 25]",2,20,"[2, 3, 4, 5, 6, 7, 10, 13, 14, 15, 16, 18, 19, 20, 21, 22, 23, 24, 27, 28]",181.5939191,30447,860,5,33,8,1.0
undo,6,7,0,0,0,4,"[0, 25, 4]",3,11,"[2, 6, 7, 13, 15, 16, 18, 19, 20, 21, 23]",156.8552853,31163,716,2,14,8,1.0193465608331511
undo,6,7,0,0,0,20,"[0, 25, 4, 20]",4,8,"[2, 6, 7, 13, 15, 16, 18, 19]",137.2084026,31592,429,1,9,8,1.085904909082323
undo,6,7,0,0,0,18,"[0, 25, 4, 20, 18]",5,7,"[2, 6, 7, 13, 15, 16, 19]",124.4021541,31880,288,1,5,8,1.2264883846453758
undo,6,7,0,0,0,7,"[0, 25, 4, 20, 18, 7]",6,2,"[2, 19]",83.17109789,32463,583,1,1,8,1.185264473968278
undo,6,7,0,0,0,19,"[0, 25, 4, 20, 18, 7, 19]",7,1,[2],53.76021555,32901,438,1,0,8,1.3016904288278204
undo,6,7,0,0,1,2,"[0, 25, 4, 20, 18, 7, 19, 2]",8,0,[],23.61058868,33616,715,1,0,8,1.3168868000947171
undo,6,7,0,1,1,2,"[0, 25, 4, 20, 18, 7, 19, 2]",8,0,[],23.61058868,37179,3563,1,0,8,1.3168868000947171
undo,7,16,0,0,0,0,[0],1,29,"[1, 2, 3, 4, 5, 6, 7, 8, 9, 10, 11, 12, 13, 14, 15, 16, 17, 18, 19, 20, 21, 22, 23, 24, 25, 26, 27, 28, 29]",300,10,-1,13,161,9,0.0
undo,7,16,0,0,0,17,"[0, 17]",2,27,"[1, 2, 3, 4, 5, 7, 8, 9, 10, 11, 12, 13, 14, 15, 16, 18, 19, 20, 21, 22, 23, 24, 25, 26, 27, 28, 29]",241.3058776,4516,4506,2,58,9,1.0
undo,7,16,0,0,0,16,"[0, 17, 16]",3,26,"[1, 2, 3, 4, 5, 7, 8, 9, 10, 11, 12, 13, 14, 15, 18, 19, 20, 21, 22, 23, 24, 25, 26, 27, 28, 29]",212.9862731,4949,433,2,52,9,1.0529535521792848
undo,7,16,0,0,0,21,"[0, 17, 16, 21]",4,19,"[3, 5, 7, 8, 9, 10, 12, 14, 15, 19, 20, 22, 23, 24, 25, 26, 27, 28, 29]",168.332046,5384,435,9,18,8,1.5524765786046826
undo,7,16,0,0,0,8,"[0, 17, 16, 21, 8]",5,7,"[3, 5, 9, 12, 15, 20, 25]",119.0776046,5970,586,9,6,8,1.458624751458944
undo,7,16,0,0,0,20,"[0, 17, 16, 21, 8, 20]",6,3,"[9, 15, 25]",61.30217727,6549,579,4,1,8,1.3191752290945782
undo,7,16,0,0,0,25,"[0, 17, 16, 21, 8, 20, 25]",7,2,"[9, 15]",48.65306663,7696,1147,2,0,8,1.3641436248537882
undo,7,16,0,0,1,9,"[0, 17, 16, 21, 8, 20, 25, 9]",8,0,[],35.84681815,8124,428,1,0,8,1.3406027753205443
undo,7,16,1,0,0,25,"[0, 17, 16, 21, 8, 20, 25]",7,2,"[9, 15]",48.65306663,10119,1995,2,0,8,1.3641436248537882
undo,7,16,1,0,0,20,"[0, 17, 16, 21, 8, 20]",6,3,"[9, 15, 25]",61.30217727,10553,434,4,1,8,1.3191752290945782
undo,7,16,1,0,0,8,"[0, 17, 16, 21, 8]",5,7,"[3, 5, 9, 12, 15, 20, 25]",119.0776046,10838,285,9,6,8,1.458624751458944
undo,7,16,1,0,0,21,"[0, 17, 16, 21]",4,19,"[3, 5, 7, 8, 9, 10, 12, 14, 15, 19, 20, 22, 23, 24, 25, 26, 27, 28, 29]",168.332046,10980,142,9,18,8,1.5524765786046826
undo,7,16,1,0,0,16,"[0, 17, 16]",3,26,"[1, 2, 3, 4, 5, 7, 8, 9, 10, 11, 12, 13, 14, 15, 18, 19, 20, 21, 22, 23, 24, 25, 26, 27, 28, 29]",212.9862731,11261,281,2,52,9,1.0529535521792848
undo,7,16,1,0,0,17,"[0, 17]",2,27,"[1, 2, 3, 4, 5, 7, 8, 9, 10, 11, 12, 13, 14, 15, 16, 18, 19, 20, 21, 22, 23, 24, 25, 26, 27, 28, 29]",241.3058776,11832,571,2,58,9,1.0
undo,7,16,1,0,0,0,[0],1,29,"[1, 2, 3, 4, 5, 6, 7, 8, 9, 10, 11, 12, 13, 14, 15, 16, 17, 18, 19, 20, 21, 22, 23, 24, 25, 26, 27, 28, 29]",300,12421,589,13,161,9,0.0
undo,7,16,0,0,0,11,"[0, 11]",2,8,"[1, 14, 16, 17, 18, 23, 27, 28]",164.8519331,13274,853,6,20,6,1.0
undo,7,16,0,0,0,23,"[0, 11, 23]",3,7,"[1, 14, 16, 17, 18, 27, 28]",127.9737552,13712,438,4,7,6,1.592767324400406
undo,7,16,0,0,0,14,"[0, 11, 23, 14]",4,4,"[1, 17, 18, 27]",103.8076633,14435,723,3,2,6,1.6996066862042911
undo,7,16,0,0,0,1,"[0, 11, 23, 14, 1]",5,1,[27],64.85897909,14878,443,1,0,6,1.524833674209499
undo,7,16,0,0,1,27,"[0, 11, 23, 14, 1, 27]",6,0,[],32.60994809,15309,431,1,0,6,1.7838693267193266
undo,7,16,1,0,0,1,"[0, 11, 23, 14, 1]",5,1,[27],64.85897909,16475,1166,1,0,6,1.524833674209499
undo,7,16,1,0,0,14,"[0, 11, 23, 14]",4,4,"[1, 17, 18, 27]",103.8076633,16620,145,3,2,6,1.6996066862042911
undo,7,16,1,0,0,23,"[0, 11, 23]",3,7,"[1, 14, 16, 17, 18, 27, 28]",127.9737552,16907,287,4,7,6,1.592767324400406
undo,7,16,1,0,0,11,"[0, 11]",2,8,"[1, 14, 16, 17, 18, 23, 27, 28]",164.8519331,17053,146,6,20,6,1.0
undo,7,16,1,0,0,0,[0],1,29,"[1, 2, 3, 4, 5, 6, 7, 8, 9, 10, 11, 12, 13, 14, 15, 16, 17, 18, 19, 20, 21, 22, 23, 24, 25, 26, 27, 28, 29]",300,17347,294,13,161,9,0.0
undo,7,16,0,0,0,17,"[0, 17]",2,27,"[1, 2, 3, 4, 5, 7, 8, 9, 10, 11, 12, 13, 14, 15, 16, 18, 19, 20, 21, 22, 23, 24, 25, 26, 27, 28, 29]",241.3058776,19697,2350,2,58,9,1.0
undo,7,16,0,0,0,16,"[0, 17, 16]",3,26,"[1, 2, 3, 4, 5, 7, 8, 9, 10, 11, 12, 13, 14, 15, 18, 19, 20, 21, 22, 23, 24, 25, 26, 27, 28, 29]",212.9862731,20138,441,2,52,9,1.0529535521792848
undo,7,16,0,0,0,21,"[0, 17, 16, 21]",4,19,"[3, 5, 7, 8, 9, 10, 12, 14, 15, 19, 20, 22, 23, 24, 25, 26, 27, 28, 29]",168.332046,20571,433,9,18,8,1.5524765786046826
undo,7,16,0,0,0,8,"[0, 17, 16, 21, 8]",5,7,"[3, 5, 9, 12, 15, 20, 25]",119.0776046,22452,1881,9,6,8,1.458624751458944
undo,7,16,0,0,0,20,"[0, 17, 16, 21, 8, 20]",6,3,"[9, 15, 25]",61.30217727,23453,1001,4,1,8,1.3191752290945782
undo,7,16,0,0,0,25,"[0, 17, 16, 21, 8, 20, 25]",7,2,"[9, 15]",48.65306663,23880,427,2,0,8,1.3641436248537882
undo,7,16,0,0,1,9,"[0, 17, 16, 21, 8, 20, 25, 9]",8,0,[],35.84681815,24321,441,1,0,8,1.3406027753205443
undo,7,16,1,0,0,25,"[0, 17, 16, 21, 8, 20, 25]",7,2,"[9, 15]",48.65306663,27657,3336,2,0,8,1.3641436248537882
undo,7,16,1,0,0,20,"[0, 17, 16, 21, 8, 20]",6,3,"[9, 15, 25]",61.30217727,28103,446,4,1,8,1.3191752290945782
undo,7,16,1,0,0,8,"[0, 17, 16, 21, 8]",5,7,"[3, 5, 9, 12, 15, 20, 25]",119.0776046,28546,443,9,6,8,1.458624751458944
undo,7,16,1,0,0,21,"[0, 17, 16, 21]",4,19,"[3, 5, 7, 8, 9, 10, 12, 14, 15, 19, 20, 22, 23, 24, 25, 26, 27, 28, 29]",168.332046,29181,635,9,18,8,1.5524765786046826
undo,7,16,1,0,0,16,"[0, 17, 16]",3,26,"[1, 2, 3, 4, 5, 7, 8, 9, 10, 11, 12, 13, 14, 15, 18, 19, 20, 21, 22, 23, 24, 25, 26, 27, 28, 29]",212.9862731,29340,159,2,52,9,1.0529535521792848
undo,7,16,1,0,0,17,"[0, 17]",2,27,"[1, 2, 3, 4, 5, 7, 8, 9, 10, 11, 12, 13, 14, 15, 16, 18, 19, 20, 21, 22, 23, 24, 25, 26, 27, 28, 29]",241.3058776,29954,614,2,58,9,1.0
undo,7,16,1,0,0,0,[0],1,29,"[1, 2, 3, 4, 5, 6, 7, 8, 9, 10, 11, 12, 13, 14, 15, 16, 17, 18, 19, 20, 21, 22, 23, 24, 25, 26, 27, 28, 29]",300,30573,619,13,161,9,0.0
undo,7,16,0,0,0,28,"[0, 28]",2,27,"[1, 2, 3, 4, 5, 7, 8, 9, 10, 11, 12, 13, 14, 15, 16, 17, 18, 19, 20, 21, 22, 23, 24, 25, 26, 27, 29]",284.3475242,31294,721,11,92,9,1.0
undo,7,16,0,0,0,17,"[0, 28, 17]",3,26,"[1, 2, 3, 4, 5, 7, 8, 9, 10, 11, 12, 13, 14, 15, 16, 18, 19, 20, 21, 22, 23, 24, 25, 26, 27, 29]",219.1555001,32459,1165,10,46,9,1.3773866384707543
undo,7,16,0,0,0,16,"[0, 28, 17, 16]",4,25,"[1, 2, 3, 4, 5, 7, 8, 9, 10, 11, 12, 13, 14, 15, 18, 19, 20, 21, 22, 23, 24, 25, 26, 27, 29]",190.8358956,33611,1152,10,34,9,1.3209953830681203
undo,7,16,0,0,0,21,"[0, 28, 17, 16, 21]",5,13,"[3, 5, 7, 8, 9, 10, 12, 15, 20, 22, 25, 26, 29]",146.1816685,34044,433,4,7,9,1.8136482702070456
undo,7,16,0,0,0,8,"[0, 28, 17, 16, 21, 8]",6,6,"[5, 9, 12, 15, 20, 25]",96.92722704,34620,576,4,2,9,1.637204572335983
undo,7,16,0,0,0,20,"[0, 28, 17, 16, 21, 8, 20]",7,2,"[9, 25]",39.15179974,35352,732,2,0,9,1.441590377328759
undo,7,16,0,0,0,25,"[0, 28, 17, 16, 21, 8, 20, 25]",8,1,[9],26.5026891,35639,287,1,0,9,1.484361110265371
undo,7,16,0,0,1,9,"[0, 28, 17, 16, 21, 8, 20, 25, 9]",9,0,[],13.69644062,35935,296,1,0,9,1.4530180692918209
undo,7,16,0,1,1,9,"[0, 28, 17, 16, 21, 8, 20, 25, 9]",9,0,[],13.69644062,40399,4464,1,0,9,1.4530180692918209
undo,8,42,0,0,0,0,[0],1,29,"[1, 2, 3, 4, 5, 6, 7, 8, 9, 10, 11, 12, 13, 14, 15, 16, 17, 18, 19, 20, 21, 22, 23, 24, 25, 26, 27, 28, 29]",300,11,-1,16,302,9,0.0
undo,8,42,0,0,0,4,"[0, 4]",2,28,"[1, 2, 3, 5, 6, 7, 8, 9, 10, 11, 12, 13, 14, 15, 16, 17, 18, 19, 20, 21, 22, 23, 24, 25, 26, 27, 28, 29]",209.5290102,14226,14215,4,80,9,1.0
undo,8,42,0,0,0,22,"[0, 4, 22]",3,24,"[1, 2, 3, 5, 6, 7, 8, 9, 10, 11, 13, 15, 17, 18, 19, 20, 21, 23, 24, 25, 26, 27, 28, 29]",198.3486703,14657,431,3,53,9,1.1473032812120834
undo,8,42,0,0,0,8,"[0, 4, 22, 8]",4,21,"[1, 2, 3, 5, 6, 7, 10, 11, 15, 17, 18, 19, 20, 21, 23, 24, 25, 26, 27, 28, 29]",176.2127267,15812,1155,2,36,9,1.1513227322639639
undo,8,42,0,0,0,1,"[0, 4, 22, 8, 1]",5,12,"[2, 5, 6, 7, 10, 15, 18, 19, 24, 26, 27, 28]",127.1209758,16399,587,2,24,9,1.1101621876186907
undo,8,42,0,0,0,7,"[0, 4, 22, 8, 1, 7]",6,5,"[2, 19, 26, 27, 28]",97.12097583,16830,431,2,10,9,1.1711274205343067
undo,8,42,0,0,0,26,"[0, 4, 22, 8, 1, 7, 26]",7,3,"[2, 19, 27]",70.55031532,17978,1148,2,1,9,1.1588367913131314
undo,8,42,0,0,0,27,"[0, 4, 22, 8, 1, 7, 26, 27]",8,1,[19],52.52255894,18265,287,1,0,9,1.160587570992885
undo,8,42,0,0,1,19,"[0, 4, 22, 8, 1, 7, 26, 27, 19]",9,0,[],11.51036563,18989,724,1,0,9,1.3341568614108437
undo,8,42,1,0,0,27,"[0, 4, 22, 8, 1, 7, 26, 27]",8,1,[19],52.52255894,20616,1627,1,0,9,1.160587570992885
undo,8,42,1,0,0,26,"[0, 4, 22, 8, 1, 7, 26]",7,3,"[2, 19, 27]",70.55031532,21509,893,2,1,9,1.1588367913131314
undo,8,42,1,0,0,7,"[0, 4, 22, 8, 1, 7]",6,5,"[2, 19, 26, 27, 28]",97.12097583,21650,141,2,10,9,1.1711274205343067
undo,8,42,1,0,0,1,"[0, 4, 22, 8, 1]",5,12,"[2, 5, 6, 7, 10, 15, 18, 19, 24, 26, 27, 28]",127.1209758,21943,293,2,24,9,1.1101621876186907
undo,8,42,1,0,0,8,"[0, 4, 22, 8]",4,21,"[1, 2, 3, 5, 6, 7, 10, 11, 15, 17, 18, 19, 20, 21, 23, 24, 25, 26, 27, 28, 29]",176.2127267,22092,149,2,36,9,1.1513227322639639
undo,8,42,1,0,0,22,"[0, 4, 22]",3,24,"[1, 2, 3, 5, 6, 7, 8, 9, 10, 11, 13, 15, 17, 18, 19, 20, 21, 23, 24, 25, 26, 27, 28, 29]",198.3486703,22393,301,3,53,9,1.1473032812120834
undo,8,42,1,0,0,4,"[0, 4]",2,28,"[1, 2, 3, 5, 6, 7, 8, 9, 10, 11, 12, 13, 14, 15, 16, 17, 18, 19, 20, 21, 22, 23, 24, 25, 26, 27, 28, 29]",209.5290102,22544,151,4,80,9,1.0
undo,8,42,1,0,0,0,[0],1,29,"[1, 2, 3, 4, 5, 6, 7, 8, 9, 10, 11, 12, 13, 14, 15, 16, 17, 18, 19, 20, 21, 22, 23, 24, 25, 26, 27, 28, 29]",300,23274,730,16,302,9,0.0
undo,8,42,0,0,0,5,"[0, 5]",2,28,"[1, 2, 3, 4, 6, 7, 8, 9, 10, 11, 12, 13, 14, 15, 16, 17, 18, 19, 20, 21, 22, 23, 24, 25, 26, 27, 28, 29]",191.2939744,23698,424,1,22,9,1.0
undo,8,42,0,0,0,4,"[0, 5, 4]",3,23,"[1, 2, 3, 6, 7, 8, 9, 10, 11, 13, 15, 17, 18, 19, 20, 21, 22, 23, 24, 25, 26, 27, 29]",171.4445412,24131,433,1,14,9,1.420957801478707
undo,8,42,0,0,0,22,"[0, 5, 4, 22]",4,20,"[1, 2, 3, 6, 7, 8, 9, 11, 15, 17, 18, 19, 20, 21, 23, 24, 25, 26, 27, 29]",160.2642013,26020,1889,1,11,9,1.5771494659680896
undo,8,42,0,0,0,8,"[0, 5, 4, 22, 8]",5,14,"[1, 2, 3, 6, 7, 11, 15, 18, 19, 24, 25, 26, 27, 29]",138.1282577,27317,1297,1,10,9,1.5055393955524201
undo,8,42,0,0,0,1,"[0, 5, 4, 22, 8, 1]",6,5,"[2, 7, 19, 26, 27]",89.03650682,29039,1722,1,7,9,1.3547259083637835
undo,8,42,0,0,0,7,"[0, 5, 4, 22, 8, 1, 7]",7,4,"[2, 19, 26, 27]",59.03650682,30050,1011,1,3,9,1.3909715672447451
undo,8,42,0,0,0,26,"[0, 5, 4, 22, 8, 1, 7, 26]",8,1,[27],32.46584631,30482,432,1,0,9,1.3511825943939393
undo,8,42,0,0,1,27,"[0, 5, 4, 22, 8, 1, 7, 26, 27]",9,0,[],14.43808994,31200,718,1,0,9,1.3391911688802078
undo,8,42,0,1,1,27,"[0, 5, 4, 22, 8, 1, 7, 26, 27]",9,0,[],14.43808994,35097,3897,1,0,9,1.3391911688802078
undo,9,1,0,0,0,0,[0],1,26,"[1, 2, 4, 5, 7, 8, 9, 10, 11, 12, 13, 14, 15, 16, 17, 18, 19, 20, 21, 22, 23, 24, 25, 26, 28, 29]",300,10,-1,6,74,7,0.0
undo,9,1,0,0,0,8,"[0, 8]",2,23,"[1, 4, 5, 7, 9, 10, 11, 12, 13, 14, 15, 16, 17, 18, 19, 20, 21, 23, 24, 25, 26, 28, 29]",202,6042,6032,1,16,7,1.0
undo,9,1,0,0,0,20,"[0, 8, 20]",3,12,"[1, 4, 5, 11, 13, 14, 15, 17, 18, 19, 28, 29]",125.9408125,9573,3531,1,7,7,1.02364736730791
undo,9,1,0,0,0,5,"[0, 8, 20, 5]",4,7,"[1, 4, 11, 13, 17, 18, 29]",104.469902,10162,589,1,3,7,1.0439599203945713
undo,9,1,0,0,0,18,"[0, 8, 20, 5, 18]",5,2,"[4, 29]",81.64447755,10602,440,1,1,7,1.0840407791793756
undo,9,1,0,0,0,4,"[0, 8, 20, 5, 18, 4]",6,1,[29],42.69579336,11177,575,1,0,7,1.0902329133216275
undo,9,1,0,0,1,29,"[0, 8, 20, 5, 18, 4, 29]",7,0,[],6.640280603,13069,1892,1,0,7,1.2859729622882756
undo,9,1,1,0,0,4,"[0, 8, 20, 5, 18, 4]",6,1,[29],42.69579336,15513,2444,1,0,7,1.0902329133216275
undo,9,1,1,0,0,18,"[0, 8, 20, 5, 18]",5,2,"[4, 29]",81.64447755,15798,285,1,1,7,1.0840407791793756
undo,9,1,1,0,0,5,"[0, 8, 20, 5]",4,7,"[1, 4, 11, 13, 17, 18, 29]",104.469902,15943,145,1,3,7,1.0439599203945713
undo,9,1,1,0,0,20,"[0, 8, 20]",3,12,"[1, 4, 5, 11, 13, 14, 15, 17, 18, 19, 28, 29]",125.9408125,16242,299,1,7,7,1.02364736730791
undo,9,1,1,0,0,8,"[0, 8]",2,23,"[1, 4, 5, 7, 9, 10, 11, 12, 13, 14, 15, 16, 17, 18, 19, 20, 21, 23, 24, 25, 26, 28, 29]",202,16393,151,1,16,7,1.0
undo,9,1,0,0,0,14,"[0, 8, 14]",3,12,"[1, 5, 9, 15, 17, 18, 19, 20, 25, 26, 28, 29]",138.1094686,17410,1017,2,11,6,1.6219900283216735
undo,9,1,0,0,0,17,"[0, 8, 14, 17]",4,6,"[1, 15, 18, 20, 28, 29]",85.75490817,18139,729,1,5,6,1.4120458181998161
undo,9,1,0,0,0,1,"[0, 8, 14, 17, 1]",5,1,[28],61.40331685,18570,431,1,0,6,1.3875183639701723
undo,9,1,0,0,1,28,"[0, 8, 14, 17, 1, 28]",6,0,[],26.51778976,19288,718,1,0,6,1.3376292144876023
undo,9,1,1,0,0,1,"[0, 8, 14, 17, 1]",5,1,[28],61.40331685,20429,1141,1,0,6,1.3875183639701723
undo,9,1,1,0,0,17,"[0, 8, 14, 17]",4,6,"[1, 15, 18, 20, 28, 29]",85.75490817,20577,148,1,5,6,1.4120458181998161
undo,9,1,1,0,0,14,"[0, 8, 14]",3,12,"[1, 5, 9, 15, 17, 18, 19, 20, 25, 26, 28, 29]",138.1094686,20868,291,2,11,6,1.6219900283216735
undo,9,1,1,0,0,8,"[0, 8]",2,23,"[1, 4, 5, 7, 9, 10, 11, 12, 13, 14, 15, 16, 17, 18, 19, 20, 21, 23, 24, 25, 26, 28, 29]",202,21012,144,1,16,7,1.0
undo,9,1,1,0,0,0,[0],1,26,"[1, 2, 4, 5, 7, 8, 9, 10, 11, 12, 13, 14, 15, 16, 17, 18, 19, 20, 21, 22, 23, 24, 25, 26, 28, 29]",300,21883,871,6,74,7,0.0
undo,9,1,0,0,0,14,"[0, 14]",2,19,"[1, 4, 5, 8, 9, 13, 15, 17, 18, 19, 20, 21, 22, 23, 24, 25, 26, 28, 29]",200.1901808,22878,995,5,42,7,1.0
undo,9,1,0,0,0,17,"[0, 14, 17]",3,15,"[1, 4, 5, 8, 9, 13, 15, 18, 19, 20, 22, 23, 25, 28, 29]",147.8356204,23464,586,5,27,7,1.0028844724416826
undo,9,1,0,0,0,1,"[0, 14, 17, 1]",4,12,"[4, 5, 8, 9, 15, 18, 20, 22, 23, 25, 28, 29]",123.4840291,24777,1313,5,15,7,1.0264985578353567
undo,9,1,0,0,0,28,"[0, 14, 17, 1, 28]",5,5,"[9, 15, 22, 23, 29]",88.59850198,25356,579,5,3,7,1.0339861575999345
undo,9,1,0,0,0,23,"[0, 14, 17, 1, 28, 23]",6,2,"[15, 22]",51.70676849,26518,1162,2,0,7,1.0327458250705703
undo,9,1,0,0,1,15,"[0, 14, 17, 1, 28, 23, 15]",7,0,[],20.81987807,27246,728,1,0,7,1.1948681641401226
undo,9,1,1,0,0,23,"[0, 14, 17, 1, 28, 23]",6,2,"[15, 22]",51.70676849,28815,1569,2,0,7,1.0327458250705703
undo,9,1,1,0,0,28,"[0, 14, 17, 1, 28]",5,5,"[9, 15, 22, 23, 29]",88.59850198,29248,433,5,3,7,1.0339861575999345
undo,9,1,1,0,0,1,"[0, 14, 17, 1]",4,12,"[4, 5, 8, 9, 15, 18, 20, 22, 23, 25, 28, 29]",123.4840291,29689,441,5,15,7,1.0264985578353567
undo,9,1,0,0,0,29,"[0, 14, 17, 1, 29]",5,1,[4],49.65991377,30849,1160,1,0,6,1.0973919082361505
undo,9,1,0,0,1,4,"[0, 14, 17, 1, 29, 4]",6,0,[],13.60440101,31280,431,1,0,6,1.2134970987327045
undo,9,1,1,0,0,29,"[0, 14, 17, 1, 29]",5,1,[4],49.65991377,33151,1871,1,0,6,1.0973919082361505
undo,9,1,1,0,0,1,"[0, 14, 17, 1]",4,12,"[4, 5, 8, 9, 15, 18, 20, 22, 23, 25, 28, 29]",123.4840291,33438,287,5,15,7,1.0264985578353567
undo,9,1,1,0,0,17,"[0, 14, 17]",3,15,"[1, 4, 5, 8, 9, 13, 15, 18, 19, 20, 22, 23, 25, 28, 29]",147.8356204,34011,573,5,27,7,1.0028844724416826
undo,9,1,0,0,0,20,"[0, 14, 17, 20]",4,5,"[4, 5, 8, 18, 29]",79.42509489,34731,720,3,3,6,1.2972077151057804
undo,9,1,0,0,0,5,"[0, 14, 17, 20, 5]",5,1,[18],57.95418433,35163,432,1,0,6,1.2923132195161702
undo,9,1,0,0,1,18,"[0, 14, 17, 20, 5, 18]",6,0,[],35.12875991,36171,1008,1,0,6,1.3149712096478787
undo,9,1,1,0,0,5,"[0, 14, 17, 20, 5]",5,1,[18],57.95418433,37443,1272,1,0,6,1.2923132195161702
undo,9,1,1,0,0,20,"[0, 14, 17, 20]",4,5,"[4, 5, 8, 18, 29]",79.42509489,39323,1880,3,3,6,1.2972077151057804
undo,9,1,0,0,0,18,"[0, 14, 17, 20, 18]",5,2,"[4, 5]",47.80231829,40473,1150,2,0,6,1.2520524707624152
undo,9,1,0,0,1,4,"[0, 14, 17, 20, 18, 4]",6,0,[],8.853634097,40912,439,1,0,6,1.2336267441812092
undo,9,1,1,0,0,18,"[0, 14, 17, 20, 18]",5,2,"[4, 5]",47.80231829,41763,851,2,0,6,1.2520524707624152
undo,9,1,1,0,0,20,"[0, 14, 17, 20]",4,5,"[4, 5, 8, 18, 29]",79.42509489,41911,148,3,3,6,1.2972077151057804
undo,9,1,1,0,0,17,"[0, 14, 17]",3,15,"[1, 4, 5, 8, 9, 13, 15, 18, 19, 20, 22, 23, 25, 28, 29]",147.8356204,42199,288,5,27,7,1.0028844724416826
undo,9,1,0,0,0,29,"[0, 14, 17, 29]",4,4,"[4, 13, 15, 18]",65.95155601,43207,1008,4,0,5,1.0259757933210643
undo,9,1,0,0,1,4,"[0, 14, 17, 29, 4]",5,0,[],29.89604325,43782,575,1,0,5,1.1444671951254166
undo,9,1,1,0,0,29,"[0, 14, 17, 29]",4,4,"[4, 13, 15, 18]",65.95155601,44782,1000,4,0,5,1.0259757933210643
undo,9,1,1,0,0,17,"[0, 14, 17]",3,15,"[1, 4, 5, 8, 9, 13, 15, 18, 19, 20, 22, 23, 25, 28, 29]",147.8356204,45066,284,5,27,7,1.0028844724416826
undo,9,1,1,0,0,14,"[0, 14]",2,19,"[1, 4, 5, 8, 9, 13, 15, 17, 18, 19, 20, 21, 22, 23, 24, 25, 26, 28, 29]",200.1901808,45211,145,5,42,7,1.0
undo,9,1,1,0,0,0,[0],1,26,"[1, 2, 4, 5, 7, 8, 9, 10, 11, 12, 13, 14, 15, 16, 17, 18, 19, 20, 21, 22, 23, 24, 25, 26, 28, 29]",300,45504,293,6,74,7,0.0
undo,9,1,0,0,0,14,"[0, 14]",2,19,"[1, 4, 5, 8, 9, 13, 15, 17, 18, 19, 20, 21, 22, 23, 24, 25, 26, 28, 29]",200.1901808,47119,1615,5,42,7,1.0
undo,9,1,0,0,0,17,"[0, 14, 17]",3,15,"[1, 4, 5, 8, 9, 13, 15, 18, 19, 20, 22, 23, 25, 28, 29]",147.8356204,47557,438,5,27,7,1.0028844724416826
undo,9,1,0,0,0,1,"[0, 14, 17, 1]",4,12,"[4, 5, 8, 9, 15, 18, 20, 22, 23, 25, 28, 29]",123.4840291,48130,573,5,15,7,1.0264985578353567
undo,9,1,0,0,0,28,"[0, 14, 17, 1, 28]",5,5,"[9, 15, 22, 23, 29]",88.59850198,48567,437,5,3,7,1.0339861575999345
undo,9,1,0,0,0,15,"[0, 14, 17, 1, 28, 15]",6,3,"[22, 23, 29]",53.37067208,49580,1013,3,0,7,1.055553419196412
undo,9,1,0,0,1,23,"[0, 14, 17, 1, 28, 15, 23]",7,0,[],22.48378165,50011,431,1,0,7,1.1542953231038533
undo,9,1,1,0,0,15,"[0, 14, 17, 1, 28, 15]",6,3,"[22, 23, 29]",53.37067208,50741,730,3,0,7,1.055553419196412
undo,9,1,1,0,0,28,"[0, 14, 17, 1, 28]",5,5,"[9, 15, 22, 23, 29]",88.59850198,51613,872,5,3,7,1.0339861575999345
undo,9,1,0,0,0,23,"[0, 14, 17, 1, 28, 23]",6,2,"[15, 22]",51.70676849,52038,425,2,0,7,1.0327458250705703
undo,9,1,0,0,1,22,"[0, 14, 17, 1, 28, 23, 22]",7,0,[],3.696352956,52903,865,1,0,7,1.0700788216594126
undo,9,1,0,1,1,22,"[0, 14, 17, 1, 28, 23, 22]",7,0,[],3.696352956,55781,2878,1,0,7,1.0700788216594126
undo,10,12,0,0,0,0,[0],1,29,"[1, 2, 3, 4, 5, 6, 7, 8, 9, 10, 11, 12, 13, 14, 15, 16, 17, 18, 19, 20, 21, 22, 23, 24, 25, 26, 27, 28, 29]",300,10,-1,2,32,9,0.0
undo,10,12,0,0,0,6,"[0, 6]",2,28,"[1, 2, 3, 4, 5, 7, 8, 9, 10, 11, 12, 13, 14, 15, 16, 17, 18, 19, 20, 21, 22, 23, 24, 25, 26, 27, 28, 29]",283.5987805,12082,12072,2,18,9,1.0
undo,10,12,0,0,0,25,"[0, 6, 25]",3,13,"[2, 4, 5, 7, 12, 14, 16, 19, 22, 23, 24, 27, 28]",193.4599986,13233,1151,3,21,8,1.4358021344876182
undo,10,12,0,0,0,16,"[0, 6, 25, 16]",4,7,"[4, 12, 14, 19, 22, 24, 27]",136.7325802,14376,1143,2,13,8,1.7999166231482893
undo,10,12,0,0,0,4,"[0, 6, 25, 16, 4]",5,6,"[12, 14, 19, 22, 24, 27]",102.5273175,14665,289,1,6,8,1.5809454643731382
undo,10,12,0,0,0,12,"[0, 6, 25, 16, 4, 12]",6,2,"[14, 27]",60.33727126,15393,728,1,1,8,1.4505579548440326
undo,10,12,0,0,0,27,"[0, 6, 25, 16, 4, 12, 27]",7,1,[14],35.98567994,15823,430,1,0,8,1.543521160345868
undo,10,12,0,0,1,14,"[0, 6, 25, 16, 4, 12, 27, 14]",8,0,[],7.332582372,16542,719,1,0,8,1.5718912962379625
undo,10,12,1,0,0,27,"[0, 6, 25, 16, 4, 12, 27]",7,1,[14],35.98567994,17827,1285,1,0,8,1.543521160345868
undo,10,12,1,0,0,12,"[0, 6, 25, 16, 4, 12]",6,2,"[14, 27]",60.33727126,17967,140,1,1,8,1.4505579548440326
undo,10,12,1,0,0,4,"[0, 6, 25, 16, 4]",5,6,"[12, 14, 19, 22, 24, 27]",102.5273175,18107,140,1,6,8,1.5809454643731382
undo,10,12,1,0,0,16,"[0, 6, 25, 16]",4,7,"[4, 12, 14, 19, 22, 24, 27]",136.7325802,18255,148,2,13,8,1.7999166231482893
undo,10,12,1,0,0,25,"[0, 6, 25]",3,13,"[2, 4, 5, 7, 12, 14, 16, 19, 22, 23, 24, 27, 28]",193.4599986,18996,741,3,21,8,1.4358021344876182
undo,10,12,1,0,0,6,"[0, 6]",2,28,"[1, 2, 3, 4, 5, 7, 8, 9, 10, 11, 12, 13, 14, 15, 16, 17, 18, 19, 20, 21, 22, 23, 24, 25, 26, 27, 28, 29]",283.5987805,19287,291,2,18,9,1.0
undo,10,12,1,0,0,0,[0],1,29,"[1, 2, 3, 4, 5, 6, 7, 8, 9, 10, 11, 12, 13, 14, 15, 16, 17, 18, 19, 20, 21, 22, 23, 24, 25, 26, 27, 28, 29]",300,20150,863,2,32,9,0.0
undo,10,12,0,0,0,25,"[0, 25]",2,16,"[2, 4, 5, 6, 7, 9, 12, 14, 16, 18, 19, 22, 23, 24, 27, 28]",225.7975742,20719,569,5,34,8,1.0
undo,10,12,0,0,0,16,"[0, 25, 16]",3,11,"[2, 4, 5, 6, 7, 12, 14, 19, 22, 24, 27]",169.0701557,21306,587,4,22,8,1.4434159828731936
undo,10,12,0,0,0,22,"[0, 25, 16, 22]",4,10,"[2, 4, 5, 6, 7, 12, 14, 19, 24, 27]",148.0701557,21873,567,2,13,8,1.726364042386772
undo,10,12,0,0,0,4,"[0, 25, 16, 22, 4]",5,5,"[12, 14, 19, 24, 27]",103.4719495,22313,440,2,5,8,1.5733828402319396
undo,10,12,0,0,0,12,"[0, 25, 16, 22, 4, 12]",6,2,"[14, 27]",61.28190329,22888,575,1,1,8,1.4448405722842959
undo,10,12,0,0,0,27,"[0, 25, 16, 22, 4, 12, 27]",7,1,[14],36.93031196,23326,438,1,0,8,1.537998507213724
undo,10,12,0,0,1,14,"[0, 25, 16, 22, 4, 12, 27, 14]",8,0,[],8.2772144,23616,290,1,0,8,1.5668177596106356
undo,10,12,1,0,0,27,"[0, 25, 16, 22, 4, 12, 27]",7,1,[14],36.93031196,24618,1002,1,0,8,1.537998507213724
undo,10,12,1,0,0,12,"[0, 25, 16, 22, 4, 12]",6,2,"[14, 27]",61.28190329,25048,430,1,1,8,1.4448405722842959
undo,10,12,1,0,0,4,"[0, 25, 16, 22, 4]",5,5,"[12, 14, 19, 24, 27]",103.4719495,26329,1281,2,5,8,1.5733828402319396
undo,10,12,1,0,0,22,"[0, 25, 16, 22]",4,10,"[2, 4, 5, 6, 7, 12, 14, 19, 24, 27]",148.0701557,26612,283,2,13,8,1.726364042386772
undo,10,12,1,0,0,16,"[0, 25, 16]",3,11,"[2, 4, 5, 6, 7, 12, 14, 19, 22, 24, 27]",169.0701557,26754,142,4,22,8,1.4434159828731936
undo,10,12,0,0,0,4,"[0, 25, 16, 4]",4,6,"[12, 14, 19, 22, 24, 27]",134.864893,27489,735,2,7,8,1.3220542462647857
undo,10,12,0,0,0,12,"[0, 25, 16, 4, 12]",5,5,"[14, 19, 22, 24, 27]",92.67484678,27924,435,2,3,8,1.2548348749245275
undo,10,12,0,0,0,27,"[0, 25, 16, 4, 12, 27]",6,2,"[14, 24]",68.32325545,28503,579,2,0,8,1.3544642483472162
undo,10,12,0,0,0,14,"[0, 25, 16, 4, 12, 27, 14]",7,1,[24],39.67015789,28932,429,1,0,8,1.3982089850666115
undo,10,12,0,0,1,24,"[0, 25, 16, 4, 12, 27, 14, 24]",8,0,[],22.46550735,29950,1018,1,0,8,1.5551140590301356
undo,10,12,1,0,0,14,"[0, 25, 16, 4, 12, 27, 14]",7,1,[24],39.67015789,30960,1010,1,0,8,1.3982089850666115
undo,10,12,1,0,0,27,"[0, 25, 16, 4, 12, 27]",6,2,"[14, 24]",68.32325545,31383,423,2,0,8,1.3544642483472162
undo,10,12,0,0,0,14,"[0, 25, 16, 4, 12, 27, 14]",7,1,[24],39.67015789,32807,1424,1,0,8,1.3982089850666115
undo,10,12,0,0,1,24,"[0, 25, 16, 4, 12, 27, 14, 24]",8,0,[],22.46550735,33237,430,1,0,8,1.5551140590301356
undo,10,12,0,1,1,24,"[0, 25, 16, 4, 12, 27, 14, 24]",8,0,[],22.46550735,35105,1868,1,0,8,1.5551140590301356
undo,11,32,0,0,0,0,[0],1,29,"[1, 2, 3, 4, 5, 6, 7, 8, 9, 10, 11, 12, 13, 14, 15, 16, 17, 18, 19, 20, 21, 22, 23, 24, 25, 26, 27, 28, 29]",300,10,-1,17,359,10,0.0
undo,11,32,0,0,0,19,"[0, 19]",2,28,"[1, 2, 3, 4, 5, 6, 7, 8, 9, 10, 11, 12, 13, 14, 15, 16, 17, 18, 20, 21, 22, 23, 24, 25, 26, 27, 28, 29]",283.5075775,4857,4847,16,294,10,1.0
undo,11,32,0,0,0,13,"[0, 19, 13]",3,24,"[2, 3, 4, 5, 6, 8, 9, 10, 11, 12, 14, 15, 16, 17, 18, 20, 21, 22, 23, 24, 25, 26, 27, 28]",260.3127505,5288,431,14,227,10,1.0172874229878615
undo,11,32,0,0,0,15,"[0, 19, 13, 15]",4,18,"[2, 3, 5, 8, 9, 10, 11, 12, 16, 17, 20, 22, 23, 24, 25, 26, 27, 28]",177.4393531,6585,1297,9,116,10,1.435447391509833
undo,11,32,0,0,0,28,"[0, 19, 13, 15, 28]",5,17,"[2, 3, 5, 8, 9, 10, 11, 12, 16, 17, 20, 22, 23, 24, 25, 26, 27]",166.0375988,6872,287,9,70,10,1.3843701324937985
undo,11,32,0,0,0,12,"[0, 19, 13, 15, 28, 12]",6,14,"[2, 3, 5, 8, 9, 10, 11, 16, 17, 20, 22, 24, 26, 27]",147.0639329,7308,436,6,35,10,1.358372254952329
undo,11,32,0,0,0,16,"[0, 19, 13, 15, 28, 12, 16]",7,13,"[2, 3, 5, 8, 9, 10, 11, 17, 20, 22, 24, 26, 27]",131.411457,8033,725,5,15,10,1.4356932930709845
undo,11,32,0,0,0,22,"[0, 19, 13, 15, 28, 12, 16, 22]",8,6,"[2, 8, 9, 17, 20, 27]",97.57360838,8609,576,3,5,10,1.4335226411545752
undo,11,32,0,0,0,9,"[0, 19, 13, 15, 28, 12, 16, 22, 9]",9,3,"[2, 8, 20]",75.37000507,9039,430,3,0,10,1.4837166378374758
undo,11,32,0,0,1,2,"[0, 19, 13, 15, 28, 12, 16, 22, 9, 2]",10,0,[],24.28184597,13689,4650,1,0,10,1.9009621017233784
undo,11,32,1,0,0,9,"[0, 19, 13, 15, 28, 12, 16, 22, 9]",9,3,"[2, 8, 20]",75.37000507,19025,5336,3,0,10,1.4837166378374758
undo,11,32,1,0,0,22,"[0, 19, 13, 15, 28, 12, 16, 22]",8,6,"[2, 8, 9, 17, 20, 27]",97.57360838,19745,720,3,5,10,1.4335226411545752
undo,11,32,1,0,0,16,"[0, 19, 13, 15, 28, 12, 16]",7,13,"[2, 3, 5, 8, 9, 10, 11, 17, 20, 22, 24, 26, 27]",131.411457,19888,143,5,15,10,1.4356932930709845
undo,11,32,1,0,0,12,"[0, 19, 13, 15, 28, 12]",6,14,"[2, 3, 5, 8, 9, 10, 11, 16, 17, 20, 22, 24, 26, 27]",147.0639329,20174,286,6,35,10,1.358372254952329
undo,11,32,1,0,0,28,"[0, 19, 13, 15, 28]",5,17,"[2, 3, 5, 8, 9, 10, 11, 12, 16, 17, 20, 22, 23, 24, 25, 26, 27]",166.0375988,20455,281,9,70,10,1.3843701324937985
undo,11,32,1,0,0,15,"[0, 19, 13, 15]",4,18,"[2, 3, 5, 8, 9, 10, 11, 12, 16, 17, 20, 22, 23, 24, 25, 26, 27, 28]",177.4393531,21025,570,9,116,10,1.435447391509833
undo,11,32,1,0,0,13,"[0, 19, 13]",3,24,"[2, 3, 4, 5, 6, 8, 9, 10, 11, 12, 14, 15, 16, 17, 18, 20, 21, 22, 23, 24, 25, 26, 27, 28]",260.3127505,21312,287,14,227,10,1.0172874229878615
undo,11,32,0,0,0,15,"[0, 19, 13, 15]",4,18,"[2, 3, 5, 8, 9, 10, 11, 12, 16, 17, 20, 22, 23, 24, 25, 26, 27, 28]",177.4393531,23193,1881,9,116,10,1.435447391509833
undo,11,32,0,0,0,28,"[0, 19, 13, 15, 28]",5,17,"[2, 3, 5, 8, 9, 10, 11, 12, 16, 17, 20, 22, 23, 24, 25, 26, 27]",166.0375988,23628,435,9,70,10,1.3843701324937985
undo,11,32,0,0,0,12,"[0, 19, 13, 15, 28, 12]",6,14,"[2, 3, 5, 8, 9, 10, 11, 16, 17, 20, 22, 24, 26, 27]",147.0639329,23921,293,6,35,10,1.358372254952329
undo,11,32,0,0,0,16,"[0, 19, 13, 15, 28, 12, 16]",7,13,"[2, 3, 5, 8, 9, 10, 11, 17, 20, 22, 24, 26, 27]",131.411457,24380,459,5,15,10,1.4356932930709845
undo,11,32,0,0,0,22,"[0, 19, 13, 15, 28, 12, 16, 22]",8,6,"[2, 8, 9, 17, 20, 27]",97.57360838,24816,436,3,5,10,1.4335226411545752
undo,11,32,0,0,0,9,"[0, 19, 13, 15, 28, 12, 16, 22, 9]",9,3,"[2, 8, 20]",75.37000507,25254,438,3,0,10,1.4837166378374758
undo,11,32,0,0,1,2,"[0, 19, 13, 15, 28, 12, 16, 22, 9, 2]",10,0,[],24.28184597,25834,580,1,0,10,1.9009621017233784
undo,11,32,1,0,0,9,"[0, 19, 13, 15, 28, 12, 16, 22, 9]",9,3,"[2, 8, 20]",75.37000507,26254,420,3,0,10,1.4837166378374758
undo,11,32,1,0,0,22,"[0, 19, 13, 15, 28, 12, 16, 22]",8,6,"[2, 8, 9, 17, 20, 27]",97.57360838,26396,142,3,5,10,1.4335226411545752
undo,11,32,1,0,0,16,"[0, 19, 13, 15, 28, 12, 16]",7,13,"[2, 3, 5, 8, 9, 10, 11, 17, 20, 22, 24, 26, 27]",131.411457,26824,428,5,15,10,1.4356932930709845
undo,11,32,1,0,0,12,"[0, 19, 13, 15, 28, 12]",6,14,"[2, 3, 5, 8, 9, 10, 11, 16, 17, 20, 22, 24, 26, 27]",147.0639329,26966,142,6,35,10,1.358372254952329
undo,11,32,1,0,0,28,"[0, 19, 13, 15, 28]",5,17,"[2, 3, 5, 8, 9, 10, 11, 12, 16, 17, 20, 22, 23, 24, 25, 26, 27]",166.0375988,27112,146,9,70,10,1.3843701324937985
undo,11,32,0,0,0,12,"[0, 19, 13, 15, 28, 12]",6,14,"[2, 3, 5, 8, 9, 10, 11, 16, 17, 20, 22, 24, 26, 27]",147.0639329,28266,1154,6,35,10,1.358372254952329
undo,11,32,0,0,0,16,"[0, 19, 13, 15, 28, 12, 16]",7,13,"[2, 3, 5, 8, 9, 10, 11, 17, 20, 22, 24, 26, 27]",131.411457,28559,293,5,15,10,1.4356932930709845
undo,11,32,0,0,0,27,"[0, 19, 13, 15, 28, 12, 16, 27]",8,2,"[3, 11]",55.13564171,31849,3290,2,0,10,1.3380566026775955
undo,11,32,0,0,0,3,"[0, 19, 13, 15, 28, 12, 16, 27, 3]",9,1,[11],29.64054414,32281,432,1,0,10,1.3269345554887129
undo,11,32,0,0,1,11,"[0, 19, 13, 15, 28, 12, 16, 27, 3, 11]",10,0,[],14.02004479,32716,435,1,0,10,1.356452519014518
undo,11,32,0,1,1,11,"[0, 19, 13, 15, 28, 12, 16, 27, 3, 11]",10,0,[],14.02004479,38489,5773,1,0,10,1.356452519014518
undo,12,10,0,0,0,0,[0],1,29,"[1, 2, 3, 4, 5, 6, 7, 8, 9, 10, 11, 12, 13, 14, 15, 16, 17, 18, 19, 20, 21, 22, 23, 24, 25, 26, 27, 28, 29]",300,10,-1,1,100,9,0.0
undo,12,10,0,0,0,13,"[0, 13]",2,25,"[1, 2, 3, 4, 6, 7, 8, 9, 10, 11, 12, 14, 17, 18, 19, 20, 21, 22, 23, 24, 25, 26, 27, 28, 29]",249.4628849,7133,7123,1,79,9,1.0
undo,12,10,0,0,0,11,"[0, 13, 11]",3,20,"[1, 2, 3, 6, 7, 8, 9, 10, 12, 14, 18, 19, 20, 21, 22, 24, 26, 27, 28, 29]",206.4512586,7714,581,1,54,9,1.0313137484914219
undo,12,10,0,0,0,26,"[0, 13, 11, 26]",4,11,"[2, 6, 8, 9, 10, 14, 18, 19, 20, 24, 27]",164.6900326,11730,4016,12,30,8,1.0216802423203832
undo,12,10,0,0,0,19,"[0, 13, 11, 26, 19]",5,8,"[2, 8, 10, 14, 18, 20, 24, 27]",136.370428,12164,434,4,8,8,1.3703531083366018
undo,12,10,0,0,0,14,"[0, 13, 11, 26, 19, 14]",6,3,"[2, 20, 27]",95.13937178,13169,1005,1,2,8,1.2809294440461911
undo,12,10,0,0,0,2,"[0, 13, 11, 26, 19, 14, 2]",7,1,[20],82.97384672,13316,147,1,0,8,1.3294238508245744
undo,12,10,0,0,1,20,"[0, 13, 11, 26, 19, 14, 2, 20]",8,0,[],7.079182877,14202,886,1,0,8,2.420089484482223
undo,12,10,1,0,0,2,"[0, 13, 11, 26, 19, 14, 2]",7,1,[20],82.97384672,17373,3171,1,0,8,1.3294238508245744
undo,12,10,1,0,0,14,"[0, 13, 11, 26, 19, 14]",6,3,"[2, 20, 27]",95.13937178,17513,140,1,2,8,1.2809294440461911
undo,12,10,1,0,0,19,"[0, 13, 11, 26, 19]",5,8,"[2, 8, 10, 14, 18, 20, 24, 27]",136.370428,17655,142,4,8,8,1.3703531083366018
undo,12,10,1,0,0,26,"[0, 13, 11, 26]",4,11,"[2, 6, 8, 9, 10, 14, 18, 19, 20, 24, 27]",164.6900326,18659,1004,12,30,8,1.0216802423203832
undo,12,10,1,0,0,11,"[0, 13, 11]",3,20,"[1, 2, 3, 6, 7, 8, 9, 10, 12, 14, 18, 19, 20, 21, 22, 24, 26, 27, 28, 29]",206.4512586,18799,140,1,54,9,1.0313137484914219
undo,12,10,0,0,0,26,"[0, 13, 11, 26]",4,11,"[2, 6, 8, 9, 10, 14, 18, 19, 20, 24, 27]",164.6900326,20528,1729,12,30,8,1.0216802423203832
undo,12,10,0,0,0,20,"[0, 13, 11, 26, 20]",5,8,"[2, 6, 9, 10, 14, 18, 19, 27]",132.9095354,20969,441,6,8,8,1.3804886942054004
undo,12,10,0,0,0,27,"[0, 13, 11, 26, 20, 27]",6,4,"[6, 9, 10, 18]",87.6547014,21407,438,2,2,8,1.3635993279994467
undo,12,10,0,0,0,9,"[0, 13, 11, 26, 20, 27, 9]",7,1,[6],27.11545792,22144,737,1,0,8,1.2670395013189537
undo,12,10,0,0,1,6,"[0, 13, 11, 26, 20, 27, 9, 6]",8,0,[],15.45355413,22866,722,1,0,8,1.340575591823047
undo,12,10,0,1,1,6,"[0, 13, 11, 26, 20, 27, 9, 6]",8,0,[],15.45355413,27480,4614,1,0,8,1.340575591823047
undo,13,25,0,0,0,0,[0],1,28,"[1, 2, 3, 4, 5, 7, 8, 9, 10, 11, 12, 13, 14, 15, 16, 17, 18, 19, 20, 21, 22, 23, 24, 25, 26, 27, 28, 29]",300,10,-1,5,94,10,0.0
undo,13,25,0,0,0,23,"[0, 23]",2,23,"[1, 2, 3, 5, 7, 8, 9, 11, 12, 13, 14, 16, 17, 19, 20, 21, 22, 24, 25, 26, 27, 28, 29]",259.7756293,14226,14216,3,33,10,1.0
undo,13,25,0,0,0,19,"[0, 23, 19]",3,21,"[1, 2, 3, 5, 7, 8, 9, 11, 12, 13, 14, 16, 17, 20, 21, 22, 24, 25, 27, 28, 29]",223.9287326,15959,1733,3,24,10,1.583101227007039
undo,13,25,0,0,0,29,"[0, 23, 19, 29]",4,19,"[1, 2, 3, 5, 7, 8, 9, 11, 12, 13, 14, 16, 17, 20, 21, 22, 24, 25, 28]",207.649912,16388,429,3,17,10,1.474631541426484
undo,13,25,0,0,0,22,"[0, 23, 19, 29, 22]",5,18,"[1, 2, 3, 5, 7, 8, 9, 11, 12, 13, 14, 16, 17, 20, 21, 24, 25, 28]",191.5253965,16677,289,3,14,10,1.4020377754906637
undo,13,25,0,0,0,7,"[0, 23, 19, 29, 22, 7]",6,7,"[3, 8, 9, 11, 13, 24, 28]",115.8814939,17835,1158,3,11,10,1.5709678649326715
undo,13,25,0,0,0,24,"[0, 23, 19, 29, 22, 7, 24]",7,5,"[3, 8, 9, 13, 28]",91.12265712,18267,432,3,7,10,1.486191600033379
undo,13,25,0,0,0,9,"[0, 23, 19, 29, 22, 7, 24, 9]",8,4,"[3, 8, 13, 28]",73.09490075,18701,434,3,3,10,1.453504870342882
undo,13,25,0,0,0,3,"[0, 23, 19, 29, 22, 7, 24, 9, 3]",9,3,"[8, 13, 28]",42.82940885,19999,1298,3,0,10,1.388955167525479
undo,13,25,0,0,1,28,"[0, 23, 19, 29, 22, 7, 24, 9, 3, 28]",10,0,[],11.52445716,20437,438,1,0,10,1.3331084120212044
undo,13,25,0,1,1,28,"[0, 23, 19, 29, 22, 7, 24, 9, 3, 28]",10,0,[],11.52445716,25158,4721,1,0,10,1.3331084120212044
undo,14,35,0,0,0,0,[0],1,29,"[1, 2, 3, 4, 5, 6, 7, 8, 9, 10, 11, 12, 13, 14, 15, 16, 17, 18, 19, 20, 21, 22, 23, 24, 25, 26, 27, 28, 29]",300,9,-1,5,236,11,0.0
undo,14,35,0,0,0,24,"[0, 24]",2,27,"[1, 2, 4, 5, 6, 7, 8, 9, 10, 11, 12, 13, 14, 15, 16, 17, 18, 19, 20, 21, 22, 23, 25, 26, 27, 28, 29]",268.9838752,4545,4536,49,512,10,1.0
undo,14,35,0,0,0,17,"[0, 24, 17]",3,26,"[1, 2, 4, 5, 6, 7, 8, 9, 10, 11, 12, 13, 14, 15, 16, 18, 19, 20, 21, 22, 23, 25, 26, 27, 28, 29]",257.2791753,4688,143,33,238,10,1.0771477201815276
undo,14,35,0,0,0,1,"[0, 24, 17, 1]",4,25,"[2, 4, 5, 6, 7, 8, 9, 10, 11, 12, 13, 14, 15, 16, 18, 19, 20, 21, 22, 23, 25, 26, 27, 28, 29]",241.4677869,7138,2450,26,151,10,1.2244804141479215
undo,14,35,0,0,0,15,"[0, 24, 17, 1, 15]",5,23,"[2, 4, 5, 6, 7, 8, 9, 10, 11, 12, 14, 16, 18, 19, 20, 21, 22, 23, 25, 26, 27, 28, 29]",218.6204676,8142,1004,26,78,10,1.4642196672428094
undo,14,35,0,0,0,23,"[0, 24, 17, 1, 15, 23]",6,11,"[4, 5, 6, 9, 18, 19, 25, 26, 27, 28, 29]",158.1804147,8860,718,15,12,10,1.3338903684702363
undo,14,35,0,0,0,9,"[0, 24, 17, 1, 15, 23, 9]",7,6,"[5, 6, 18, 19, 25, 27]",120.5373542,10584,1724,6,1,10,1.5964380615155294
undo,14,35,0,0,0,18,"[0, 24, 17, 1, 15, 23, 9, 18]",8,3,"[5, 6, 25]",100.5123698,11161,577,2,1,10,1.5508488101942703
undo,14,35,0,0,0,25,"[0, 24, 17, 1, 15, 23, 9, 18, 25]",9,1,[6],66.67452121,11893,732,1,0,10,1.4408023801578587
undo,14,35,0,0,1,6,"[0, 24, 17, 1, 15, 23, 9, 18, 25, 6]",10,0,[],42.65369691,12760,867,1,0,10,1.701781671832088
undo,14,35,1,0,0,25,"[0, 24, 17, 1, 15, 23, 9, 18, 25]",9,1,[6],66.67452121,13759,999,1,0,10,1.4408023801578587
undo,14,35,1,0,0,18,"[0, 24, 17, 1, 15, 23, 9, 18]",8,3,"[5, 6, 25]",100.5123698,14182,423,2,1,10,1.5508488101942703
undo,14,35,1,0,0,9,"[0, 24, 17, 1, 15, 23, 9]",7,6,"[5, 6, 18, 19, 25, 27]",120.5373542,14331,149,6,1,10,1.5964380615155294
undo,14,35,1,0,0,23,"[0, 24, 17, 1, 15, 23]",6,11,"[4, 5, 6, 9, 18, 19, 25, 26, 27, 28, 29]",158.1804147,14482,151,15,12,10,1.3338903684702363
undo,14,35,1,0,0,15,"[0, 24, 17, 1, 15]",5,23,"[2, 4, 5, 6, 7, 8, 9, 10, 11, 12, 14, 16, 18, 19, 20, 21, 22, 23, 25, 26, 27, 28, 29]",218.6204676,15059,577,26,78,10,1.4642196672428094
undo,14,35,1,0,0,1,"[0, 24, 17, 1]",4,25,"[2, 4, 5, 6, 7, 8, 9, 10, 11, 12, 13, 14, 15, 16, 18, 19, 20, 21, 22, 23, 25, 26, 27, 28, 29]",241.4677869,15204,145,26,151,10,1.2244804141479215
undo,14,35,1,0,0,17,"[0, 24, 17]",3,26,"[1, 2, 4, 5, 6, 7, 8, 9, 10, 11, 12, 13, 14, 15, 16, 18, 19, 20, 21, 22, 23, 25, 26, 27, 28, 29]",257.2791753,15635,431,33,238,10,1.0771477201815276
undo,14,35,1,0,0,24,"[0, 24]",2,27,"[1, 2, 4, 5, 6, 7, 8, 9, 10, 11, 12, 13, 14, 15, 16, 17, 18, 19, 20, 21, 22, 23, 25, 26, 27, 28, 29]",268.9838752,15918,283,49,512,10,1.0
undo,14,35,1,0,0,0,[0],1,29,"[1, 2, 3, 4, 5, 6, 7, 8, 9, 10, 11, 12, 13, 14, 15, 16, 17, 18, 19, 20, 21, 22, 23, 24, 25, 26, 27, 28, 29]",300,16346,428,5,236,11,0.0
undo,14,35,0,0,0,27,"[0, 27]",2,27,"[1, 2, 4, 5, 6, 7, 8, 9, 10, 11, 12, 13, 14, 15, 16, 17, 18, 19, 20, 21, 22, 23, 24, 25, 26, 28, 29]",278.7867966,16910,564,5,144,11,1.0
undo,14,35,0,0,0,19,"[0, 27, 19]",3,16,"[1, 2, 5, 6, 9, 10, 15, 16, 17, 18, 21, 23, 24, 25, 26, 28]",208.2672957,17928,1018,68,203,8,1.114637522985262
undo,14,35,0,0,0,28,"[0, 27, 19, 28]",4,12,"[1, 2, 5, 9, 10, 15, 16, 17, 18, 21, 23, 24]",159.3489965,18360,432,20,15,8,2.412144809912406
undo,14,35,0,0,0,2,"[0, 27, 19, 28, 2]",5,3,"[17, 21, 24]",113.8078063,18797,437,3,0,6,2.29989627722558
undo,14,35,0,0,1,21,"[0, 27, 19, 28, 2, 21]",6,0,[],33.90161133,19684,887,1,0,6,2.0334193625052874
undo,14,35,1,0,0,2,"[0, 27, 19, 28, 2]",5,3,"[17, 21, 24]",113.8078063,19968,284,3,0,6,2.29989627722558
undo,14,35,1,0,0,28,"[0, 27, 19, 28]",4,12,"[1, 2, 5, 9, 10, 15, 16, 17, 18, 21, 23, 24]",159.3489965,20411,443,20,15,8,2.412144809912406
undo,14,35,1,0,0,19,"[0, 27, 19]",3,16,"[1, 2, 5, 6, 9, 10, 15, 16, 17, 18, 21, 23, 24, 25, 26, 28]",208.2672957,20562,151,68,203,8,1.114637522985262
undo,14,35,1,0,0,27,"[0, 27]",2,27,"[1, 2, 4, 5, 6, 7, 8, 9, 10, 11, 12, 13, 14, 15, 16, 17, 18, 19, 20, 21, 22, 23, 24, 25, 26, 28, 29]",278.7867966,20704,142,5,144,11,1.0
undo,14,35,1,0,0,0,[0],1,29,"[1, 2, 3, 4, 5, 6, 7, 8, 9, 10, 11, 12, 13, 14, 15, 16, 17, 18, 19, 20, 21, 22, 23, 24, 25, 26, 27, 28, 29]",300,20856,152,5,236,11,0.0
undo,14,35,0,0,0,24,"[0, 24]",2,27,"[1, 2, 4, 5, 6, 7, 8, 9, 10, 11, 12, 13, 14, 15, 16, 17, 18, 19, 20, 21, 22, 23, 25, 26, 27, 28, 29]",268.9838752,21727,871,49,512,10,1.0
undo,14,35,0,0,0,17,"[0, 24, 17]",3,26,"[1, 2, 4, 5, 6, 7, 8, 9, 10, 11, 12, 13, 14, 15, 16, 18, 19, 20, 21, 22, 23, 25, 26, 27, 28, 29]",257.2791753,22159,432,33,238,10,1.0771477201815276
undo,14,35,0,0,0,1,"[0, 24, 17, 1]",4,25,"[2, 4, 5, 6, 7, 8, 9, 10, 11, 12, 13, 14, 15, 16, 18, 19, 20, 21, 22, 23, 25, 26, 27, 28, 29]",241.4677869,22449,290,26,151,10,1.2244804141479215
undo,14,35,0,0,0,23,"[0, 24, 17, 1, 23]",5,14,"[2, 4, 5, 6, 9, 15, 18, 19, 20, 25, 26, 27, 28, 29]",182.9442874,23460,1011,25,33,9,1.1009726708851126
undo,14,35,0,0,0,9,"[0, 24, 17, 1, 23, 9]",6,8,"[5, 6, 15, 18, 19, 25, 27, 28]",145.3012269,23897,437,7,6,9,1.376147155000847
undo,14,35,0,0,0,25,"[0, 24, 17, 1, 23, 9, 25]",7,2,"[6, 18]",92.34841777,24905,1008,2,0,9,1.2822641379418522
undo,14,35,1,0,0,9,"[0, 24, 17, 1, 23, 9]",6,8,"[5, 6, 15, 18, 19, 25, 27, 28]",145.3012269,26349,1444,7,6,9,1.376147155000847
undo,14,35,0,0,0,18,"[0, 24, 17, 1, 23, 9, 18]",7,5,"[5, 6, 15, 19, 25]",125.2762426,26918,569,3,3,9,1.3583304940000351
undo,14,35,0,0,0,25,"[0, 24, 17, 1, 23, 9, 18, 25]",8,1,[6],91.43839392,27354,436,1,0,9,1.2878836036593553
undo,14,35,0,0,1,6,"[0, 24, 17, 1, 23, 9, 18, 25, 6]",9,0,[],67.41756962,28218,864,1,0,9,1.5380229381901187
undo,14,35,1,0,0,25,"[0, 24, 17, 1, 23, 9, 18, 25]",8,1,[6],91.43839392,29233,1015,1,0,9,1.2878836036593553
undo,14,35,1,0,0,18,"[0, 24, 17, 1, 23, 9, 18]",7,5,"[5, 6, 15, 19, 25]",125.2762426,29661,428,3,3,9,1.3583304940000351
undo,14,35,1,0,0,9,"[0, 24, 17, 1, 23, 9]",6,8,"[5, 6, 15, 18, 19, 25, 27, 28]",145.3012269,29809,148,7,6,9,1.376147155000847
undo,14,35,1,0,0,23,"[0, 24, 17, 1, 23]",5,14,"[2, 4, 5, 6, 9, 15, 18, 19, 20, 25, 26, 27, 28, 29]",182.9442874,30230,421,25,33,9,1.1009726708851126
undo,14,35,1,0,0,1,"[0, 24, 17, 1]",4,25,"[2, 4, 5, 6, 7, 8, 9, 10, 11, 12, 13, 14, 15, 16, 18, 19, 20, 21, 22, 23, 25, 26, 27, 28, 29]",241.4677869,31236,1006,26,151,10,1.2244804141479215
undo,14,35,1,0,0,17,"[0, 24, 17]",3,26,"[1, 2, 4, 5, 6, 7, 8, 9, 10, 11, 12, 13, 14, 15, 16, 18, 19, 20, 21, 22, 23, 25, 26, 27, 28, 29]",257.2791753,31523,287,33,238,10,1.0771477201815276
undo,14,35,0,0,0,15,"[0, 24, 17, 15]",4,24,"[1, 2, 4, 5, 6, 7, 8, 9, 10, 11, 12, 14, 16, 18, 19, 20, 21, 22, 23, 25, 26, 27, 28, 29]",220.0770248,32519,996,7,78,10,1.4380125899125875
undo,14,35,0,0,0,1,"[0, 24, 17, 15, 1]",5,17,"[2, 4, 5, 6, 9, 10, 16, 18, 19, 20, 21, 23, 25, 26, 27, 28, 29]",197.2297055,32952,433,7,48,10,2.1499308860314366
undo,14,35,0,0,0,23,"[0, 24, 17, 15, 1, 23]",6,11,"[4, 5, 6, 9, 18, 19, 25, 26, 27, 28, 29]",138.7062059,34095,1143,5,17,10,1.5170558987948997
undo,14,35,0,0,0,9,"[0, 24, 17, 15, 1, 23, 9]",7,5,"[5, 6, 18, 19, 25]",101.0631455,34819,724,2,4,10,1.7696739337940646
undo,14,35,0,0,0,18,"[0, 24, 17, 15, 1, 23, 9, 18]",8,2,"[6, 25]",81.03816106,35249,430,2,0,10,1.702244430181458
undo,14,35,0,0,0,25,"[0, 24, 17, 15, 1, 23, 9, 18, 25]",9,1,[6],47.20031243,36119,870,1,0,10,1.561057084047992
undo,14,35,0,0,1,6,"[0, 24, 17, 15, 1, 23, 9, 18, 25, 6]",10,0,[],23.17948813,36693,574,1,0,10,1.8305608739317794
undo,14,35,0,1,1,6,"[0, 24, 17, 15, 1, 23, 9, 18, 25, 6]",10,0,[],23.17948813,37990,1297,1,0,10,1.8305608739317794
undo,15,19,0,0,0,0,[0],1,29,"[1, 2, 3, 4, 5, 6, 7, 8, 9, 10, 11, 12, 13, 14, 15, 16, 17, 18, 19, 20, 21, 22, 23, 24, 25, 26, 27, 28, 29]",300,10,-1,12,149,8,0.0
undo,15,19,0,0,0,29,"[0, 29]",2,28,"[1, 2, 3, 4, 5, 6, 7, 8, 9, 10, 11, 12, 13, 14, 15, 16, 17, 18, 19, 20, 21, 22, 23, 24, 25, 26, 27, 28]",265.0715016,4409,4399,12,120,8,1.0
undo,15,19,0,0,0,9,"[0, 29, 9]",3,17,"[1, 4, 5, 6, 7, 10, 11, 12, 13, 14, 19, 20, 21, 22, 24, 27, 28]",181.7108394,5195,786,11,65,8,1.0375842971861238
undo,15,19,0,0,0,6,"[0, 29, 9, 6]",4,12,"[4, 7, 10, 11, 13, 14, 20, 21, 22, 24, 27, 28]",140.2741407,5786,591,11,34,8,1.0389786364356892
undo,15,19,0,0,0,28,"[0, 29, 9, 6, 28]",5,5,"[4, 11, 14, 22, 27]",89.18598161,6371,585,2,4,8,1.2864082671854424
undo,15,19,0,0,0,4,"[0, 29, 9, 6, 28, 4]",6,4,"[11, 14, 22, 27]",78.00564173,6800,429,2,2,8,1.3470045407445053
undo,15,19,0,0,0,11,"[0, 29, 9, 6, 28, 4, 11]",7,1,[14],19.86787431,7671,871,1,0,8,1.2776511912021429
undo,15,19,0,0,1,14,"[0, 29, 9, 6, 28, 4, 11, 14]",8,0,[],9.051220485,8099,428,1,0,8,1.39128745765915
undo,15,19,1,0,0,11,"[0, 29, 9, 6, 28, 4, 11]",7,1,[14],19.86787431,9684,1585,1,0,8,1.2776511912021429
undo,15,19,1,0,0,4,"[0, 29, 9, 6, 28, 4]",6,4,"[11, 14, 22, 27]",78.00564173,9826,142,2,2,8,1.3470045407445053
undo,15,19,1,0,0,28,"[0, 29, 9, 6, 28]",5,5,"[4, 11, 14, 22, 27]",89.18598161,9969,143,2,4,8,1.2864082671854424
undo,15,19,1,0,0,6,"[0, 29, 9, 6]",4,12,"[4, 7, 10, 11, 13, 14, 20, 21, 22, 24, 27, 28]",140.2741407,10410,441,11,34,8,1.0389786364356892
undo,15,19,1,0,0,9,"[0, 29, 9]",3,17,"[1, 4, 5, 6, 7, 10, 11, 12, 13, 14, 19, 20, 21, 22, 24, 27, 28]",181.7108394,10558,148,11,65,8,1.0375842971861238
undo,15,19,1,0,0,29,"[0, 29]",2,28,"[1, 2, 3, 4, 5, 6, 7, 8, 9, 10, 11, 12, 13, 14, 15, 16, 17, 18, 19, 20, 21, 22, 23, 24, 25, 26, 27, 28]",265.0715016,10842,284,12,120,8,1.0
undo,15,19,0,0,0,9,"[0, 29, 9]",3,17,"[1, 4, 5, 6, 7, 10, 11, 12, 13, 14, 19, 20, 21, 22, 24, 27, 28]",181.7108394,11990,1148,11,65,8,1.0375842971861238
undo,15,19,1,0,0,29,"[0, 29]",2,28,"[1, 2, 3, 4, 5, 6, 7, 8, 9, 10, 11, 12, 13, 14, 15, 16, 17, 18, 19, 20, 21, 22, 23, 24, 25, 26, 27, 28]",265.0715016,12423,433,12,120,8,1.0
undo,15,19,1,0,0,0,[0],1,29,"[1, 2, 3, 4, 5, 6, 7, 8, 9, 10, 11, 12, 13, 14, 15, 16, 17, 18, 19, 20, 21, 22, 23, 24, 25, 26, 27, 28, 29]",300,12703,280,12,149,8,0.0
undo,15,19,0,0,0,9,"[0, 9]",2,21,"[1, 4, 5, 6, 7, 10, 11, 12, 13, 14, 15, 19, 20, 21, 22, 23, 24, 25, 27, 28, 29]",185.9956141,13270,567,13,76,7,1.0
undo,15,19,0,0,0,6,"[0, 9, 6]",3,13,"[4, 7, 10, 11, 13, 14, 20, 21, 22, 24, 27, 28, 29]",144.5589154,13705,435,13,38,7,1.0111071984935167
undo,15,19,0,0,0,28,"[0, 9, 6, 28]",4,5,"[4, 11, 14, 22, 27]",93.47075631,14570,865,2,4,7,1.2602621425624105
undo,15,19,0,0,0,4,"[0, 9, 6, 28, 4]",5,4,"[11, 14, 22, 27]",82.29041642,15000,430,2,2,7,1.3210056324457753
undo,15,19,0,0,0,11,"[0, 9, 6, 28, 4, 11]",6,1,[14],24.15264901,15731,731,1,0,7,1.258108814596805
undo,15,19,0,0,1,14,"[0, 9, 6, 28, 4, 11, 14]",7,0,[],13.33599518,16019,288,1,0,7,1.3707981010721035
undo,15,19,1,0,0,11,"[0, 9, 6, 28, 4, 11]",6,1,[14],24.15264901,17311,1292,1,0,7,1.258108814596805
undo,15,19,1,0,0,4,"[0, 9, 6, 28, 4]",5,4,"[11, 14, 22, 27]",82.29041642,17453,142,2,2,7,1.3210056324457753
undo,15,19,1,0,0,28,"[0, 9, 6, 28]",4,5,"[4, 11, 14, 22, 27]",93.47075631,17598,145,2,4,7,1.2602621425624105
undo,15,19,1,0,0,6,"[0, 9, 6]",3,13,"[4, 7, 10, 11, 13, 14, 20, 21, 22, 24, 27, 28, 29]",144.5589154,18048,450,13,38,7,1.0111071984935167
undo,15,19,1,0,0,9,"[0, 9]",2,21,"[1, 4, 5, 6, 7, 10, 11, 12, 13, 14, 15, 19, 20, 21, 22, 23, 24, 25, 27, 28, 29]",185.9956141,18343,295,13,76,7,1.0
undo,15,19,1,0,0,0,[0],1,29,"[1, 2, 3, 4, 5, 6, 7, 8, 9, 10, 11, 12, 13, 14, 15, 16, 17, 18, 19, 20, 21, 22, 23, 24, 25, 26, 27, 28, 29]",300,18912,569,12,149,8,0.0
undo,15,19,0,0,0,29,"[0, 29]",2,28,"[1, 2, 3, 4, 5, 6, 7, 8, 9, 10, 11, 12, 13, 14, 15, 16, 17, 18, 19, 20, 21, 22, 23, 24, 25, 26, 27, 28]",265.0715016,19481,569,12,120,8,1.0
undo,15,19,0,0,0,9,"[0, 29, 9]",3,17,"[1, 4, 5, 6, 7, 10, 11, 12, 13, 14, 19, 20, 21, 22, 24, 27, 28]",181.7108394,20062,581,11,65,8,1.0375842971861238
undo,15,19,0,0,0,6,"[0, 29, 9, 6]",4,12,"[4, 7, 10, 11, 13, 14, 20, 21, 22, 24, 27, 28]",140.2741407,20354,292,11,34,8,1.0389786364356892
undo,15,19,0,0,0,11,"[0, 29, 9, 6, 11]",5,6,"[4, 14, 20, 22, 24, 28]",69.78300652,21666,1312,2,6,8,1.0499938742484538
undo,15,19,0,0,0,14,"[0, 29, 9, 6, 11, 14]",6,5,"[4, 20, 22, 24, 28]",58.96635269,21953,287,2,3,8,1.152598374652928
undo,15,19,0,0,1,24,"[0, 29, 9, 6, 11, 14, 24]",7,0,[],2.045354807,22960,1007,1,0,7,1.1481213922607356
undo,15,19,1,0,0,14,"[0, 29, 9, 6, 11, 14]",6,5,"[4, 20, 22, 24, 28]",58.96635269,23391,431,2,3,8,1.152598374652928
undo,15,19,1,0,0,11,"[0, 29, 9, 6, 11]",5,6,"[4, 14, 20, 22, 24, 28]",69.78300652,23684,293,2,6,8,1.0499938742484538
undo,15,19,1,0,0,6,"[0, 29, 9, 6]",4,12,"[4, 7, 10, 11, 13, 14, 20, 21, 22, 24, 27, 28]",140.2741407,23830,146,11,34,8,1.0389786364356892
undo,15,19,0,0,0,28,"[0, 29, 9, 6, 28]",5,5,"[4, 11, 14, 22, 27]",89.18598161,24982,1152,2,4,8,1.2864082671854424
undo,15,19,0,0,0,4,"[0, 29, 9, 6, 28, 4]",6,4,"[11, 14, 22, 27]",78.00564173,25266,284,2,2,8,1.3470045407445053
undo,15,19,0,0,0,11,"[0, 29, 9, 6, 28, 4, 11]",7,1,[14],19.86787431,25982,716,1,0,8,1.2776511912021429
undo,15,19,0,0,1,14,"[0, 29, 9, 6, 28, 4, 11, 14]",8,0,[],9.051220485,26843,861,1,0,8,1.39128745765915
undo,15,19,0,1,1,14,"[0, 29, 9, 6, 28, 4, 11, 14]",8,0,[],9.051220485,27705,862,1,0,8,1.39128745765915
undo,16,36,0,0,0,0,[0],1,24,"[2, 4, 5, 6, 7, 8, 9, 10, 12, 13, 14, 15, 16, 17, 18, 19, 20, 22, 23, 25, 26, 27, 28, 29]",300,10,-1,2,200,10,0.0
undo,16,36,0,0,0,12,"[0, 12]",2,23,"[2, 4, 5, 6, 7, 8, 9, 10, 13, 14, 15, 16, 17, 18, 19, 20, 22, 23, 25, 26, 27, 28, 29]",277.7963967,2837,2827,90,804,9,1.0
undo,16,36,0,0,0,9,"[0, 12, 9]",3,14,"[2, 4, 8, 10, 13, 16, 17, 18, 19, 23, 25, 27, 28, 29]",215.4345494,4281,1444,32,191,9,1.224429481246385
undo,16,36,0,0,0,16,"[0, 12, 9, 16]",4,8,"[2, 10, 13, 17, 18, 19, 23, 25]",168.137615,4998,717,7,26,9,1.235383731443557
undo,16,36,0,0,0,17,"[0, 12, 9, 16, 17]",5,6,"[2, 10, 13, 18, 19, 25]",139.8180105,5428,430,7,14,9,1.6947865799475665
undo,16,36,0,0,0,19,"[0, 12, 9, 16, 17, 19]",6,5,"[2, 10, 13, 18, 25]",111.9253591,5873,445,6,1,9,2.440059772477113
undo,16,36,0,0,0,2,"[0, 12, 9, 16, 17, 19, 2]",7,2,"[13, 25]",74.80393675,6448,575,2,0,9,1.994135267441798
undo,16,36,0,0,0,25,"[0, 12, 9, 16, 17, 19, 2, 25]",8,1,[13],49.80393675,6880,432,1,0,9,2.1853059870598197
undo,16,36,0,0,1,13,"[0, 12, 9, 16, 17, 19, 2, 25, 13]",9,0,[],29.21267647,7315,435,1,0,9,2.7608371719978186
undo,16,36,1,0,0,25,"[0, 12, 9, 16, 17, 19, 2, 25]",8,1,[13],49.80393675,9311,1996,1,0,9,2.1853059870598197
undo,16,36,1,0,0,2,"[0, 12, 9, 16, 17, 19, 2]",7,2,"[13, 25]",74.80393675,9453,142,2,0,9,1.994135267441798
undo,16,36,1,0,0,19,"[0, 12, 9, 16, 17, 19]",6,5,"[2, 10, 13, 18, 25]",111.9253591,9594,141,6,1,9,2.440059772477113
undo,16,36,1,0,0,17,"[0, 12, 9, 16, 17]",5,6,"[2, 10, 13, 18, 19, 25]",139.8180105,10166,572,7,14,9,1.6947865799475665
undo,16,36,1,0,0,16,"[0, 12, 9, 16]",4,8,"[2, 10, 13, 17, 18, 19, 23, 25]",168.137615,10310,144,7,26,9,1.235383731443557
undo,16,36,1,0,0,9,"[0, 12, 9]",3,14,"[2, 4, 8, 10, 13, 16, 17, 18, 19, 23, 25, 27, 28, 29]",215.4345494,10455,145,32,191,9,1.224429481246385
undo,16,36,1,0,0,12,"[0, 12]",2,23,"[2, 4, 5, 6, 7, 8, 9, 10, 13, 14, 15, 16, 17, 18, 19, 20, 22, 23, 25, 26, 27, 28, 29]",277.7963967,10599,144,90,804,9,1.0
undo,16,36,1,0,0,0,[0],1,24,"[2, 4, 5, 6, 7, 8, 9, 10, 12, 13, 14, 15, 16, 17, 18, 19, 20, 22, 23, 25, 26, 27, 28, 29]",300,10740,141,2,200,10,0.0
undo,16,36,0,0,0,18,"[0, 18]",2,21,"[2, 4, 5, 6, 7, 8, 9, 10, 12, 13, 14, 16, 17, 19, 22, 23, 25, 26, 27, 28, 29]",279.6039219,11616,876,2,110,10,1.0
undo,16,36,0,0,0,12,"[0, 18, 12]",3,19,"[2, 4, 5, 6, 7, 8, 9, 10, 13, 16, 17, 19, 22, 23, 25, 26, 27, 28, 29]",237.0245842,12487,871,2,86,10,2.836270082716982
undo,16,36,0,0,0,9,"[0, 18, 12, 9]",4,9,"[2, 4, 10, 13, 16, 17, 19, 23, 25]",174.6627369,13066,579,1,40,10,1.8147676024843966
undo,16,36,0,0,0,16,"[0, 18, 12, 9, 16]",5,5,"[2, 13, 17, 19, 25]",127.3658026,13506,440,4,11,9,1.6173640341692257
undo,16,36,0,0,0,19,"[0, 18, 12, 9, 16, 19]",6,4,"[2, 13, 17, 25]",72.77642631,14239,733,4,0,8,2.947973734610267
undo,16,36,0,0,0,17,"[0, 18, 12, 9, 16, 19, 17]",7,1,[2],44.88377494,14670,431,1,0,8,2.699227022389874
undo,16,36,0,0,1,2,"[0, 18, 12, 9, 16, 19, 17, 2]",8,0,[],3.652718687,15698,1028,1,0,8,2.624186926485932
undo,16,36,1,0,0,17,"[0, 18, 12, 9, 16, 19, 17]",7,1,[2],44.88377494,16990,1292,1,0,8,2.699227022389874
undo,16,36,1,0,0,19,"[0, 18, 12, 9, 16, 19]",6,4,"[2, 13, 17, 25]",72.77642631,17575,585,4,0,8,2.947973734610267
undo,16,36,1,0,0,16,"[0, 18, 12, 9, 16]",5,5,"[2, 13, 17, 19, 25]",127.3658026,18146,571,4,11,9,1.6173640341692257
undo,16,36,1,0,0,9,"[0, 18, 12, 9]",4,9,"[2, 4, 10, 13, 16, 17, 19, 23, 25]",174.6627369,18870,724,1,40,10,1.8147676024843966
undo,16,36,0,0,0,17,"[0, 18, 12, 9, 17]",5,6,"[2, 10, 13, 16, 19, 25]",148.4139274,23970,5100,13,24,9,1.603838498643679
undo,16,36,0,0,0,2,"[0, 18, 12, 9, 17, 2]",6,5,"[10, 13, 16, 19, 25]",107.1828712,24848,878,4,4,9,1.7074163338285961
undo,16,36,1,0,0,17,"[0, 18, 12, 9, 17]",5,6,"[2, 10, 13, 16, 19, 25]",148.4139274,25431,583,13,24,9,1.603838498643679
undo,16,36,0,0,0,19,"[0, 18, 12, 9, 17, 19]",6,5,"[2, 10, 13, 16, 25]",120.5212761,25869,438,6,4,9,2.328537287686596
undo,16,36,0,0,0,2,"[0, 18, 12, 9, 17, 19, 2]",7,4,"[10, 13, 16, 25]",83.39985368,26601,732,2,2,9,1.918017502065573
undo,16,36,0,0,0,25,"[0, 18, 12, 9, 17, 19, 2, 25]",8,1,[13],58.39985368,27035,434,1,0,9,2.1102260338128023
undo,16,36,0,0,1,13,"[0, 18, 12, 9, 17, 19, 2, 25, 13]",9,0,[],37.8085934,27478,443,1,0,9,2.6731967068594273
undo,16,36,1,0,0,25,"[0, 18, 12, 9, 17, 19, 2, 25]",8,1,[13],58.39985368,30630,3152,1,0,9,2.1102260338128023
undo,16,36,1,0,0,2,"[0, 18, 12, 9, 17, 19, 2]",7,4,"[10, 13, 16, 25]",83.39985368,30773,143,2,2,9,1.918017502065573
undo,16,36,1,0,0,19,"[0, 18, 12, 9, 17, 19]",6,5,"[2, 10, 13, 16, 25]",120.5212761,31054,281,6,4,9,2.328537287686596
undo,16,36,1,0,0,17,"[0, 18, 12, 9, 17]",5,6,"[2, 10, 13, 16, 19, 25]",148.4139274,31475,421,13,24,9,1.603838498643679
undo,16,36,1,0,0,9,"[0, 18, 12, 9]",4,9,"[2, 4, 10, 13, 16, 17, 19, 23, 25]",174.6627369,31758,283,1,40,10,1.8147676024843966
undo,16,36,1,0,0,12,"[0, 18, 12]",3,19,"[2, 4, 5, 6, 7, 8, 9, 10, 13, 16, 17, 19, 22, 23, 25, 26, 27, 28, 29]",237.0245842,31900,142,2,86,10,2.836270082716982
undo,16,36,1,0,0,18,"[0, 18]",2,21,"[2, 4, 5, 6, 7, 8, 9, 10, 12, 13, 14, 16, 17, 19, 22, 23, 25, 26, 27, 28, 29]",279.6039219,32620,720,2,110,10,1.0
undo,16,36,1,0,0,0,[0],1,24,"[2, 4, 5, 6, 7, 8, 9, 10, 12, 13, 14, 15, 16, 17, 18, 19, 20, 22, 23, 25, 26, 27, 28, 29]",300,33043,423,2,200,10,0.0
undo,16,36,0,0,0,9,"[0, 9]",2,16,"[2, 4, 8, 10, 12, 13, 16, 17, 18, 19, 23, 25, 26, 27, 28, 29]",230.9348134,34479,1436,81,367,8,1.0
undo,16,36,0,0,0,17,"[0, 9, 17]",3,13,"[2, 4, 8, 10, 12, 13, 16, 18, 19, 23, 25, 27, 29]",204.6860039,34915,436,22,90,8,1.0084584538853834
undo,16,36,1,0,0,9,"[0, 9]",2,16,"[2, 4, 8, 10, 12, 13, 16, 17, 18, 19, 23, 25, 26, 27, 28, 29]",230.9348134,35348,433,81,367,8,1.0
undo,16,36,0,0,0,12,"[0, 9, 12]",3,11,"[2, 4, 10, 13, 16, 17, 18, 19, 23, 25, 28]",168.5729661,36084,736,6,33,7,5.919175912940944
undo,16,36,1,0,0,9,"[0, 9]",2,16,"[2, 4, 8, 10, 12, 13, 16, 17, 18, 19, 23, 25, 26, 27, 28, 29]",230.9348134,36517,433,81,367,8,1.0
undo,16,36,1,0,0,0,[0],1,24,"[2, 4, 5, 6, 7, 8, 9, 10, 12, 13, 14, 15, 16, 17, 18, 19, 20, 22, 23, 25, 26, 27, 28, 29]",300,36804,287,2,200,10,0.0
undo,16,36,0,0,0,12,"[0, 12]",2,23,"[2, 4, 5, 6, 7, 8, 9, 10, 13, 14, 15, 16, 17, 18, 19, 20, 22, 23, 25, 26, 27, 28, 29]",277.7963967,37369,565,90,804,9,1.0
undo,16,36,0,0,0,9,"[0, 12, 9]",3,14,"[2, 4, 8, 10, 13, 16, 17, 18, 19, 23, 25, 27, 28, 29]",215.4345494,38235,866,32,191,9,1.224429481246385
undo,16,36,0,0,0,17,"[0, 12, 9, 17]",4,11,"[2, 4, 8, 10, 13, 16, 18, 19, 23, 25, 27]",189.1857399,44315,6080,8,54,9,1.1724571624470872
undo,16,36,0,0,0,19,"[0, 12, 9, 17, 19]",5,8,"[2, 4, 10, 13, 16, 18, 23, 25]",161.2930885,46188,1873,3,14,9,1.7995682634090462
undo,16,36,0,0,0,2,"[0, 12, 9, 17, 19, 2]",6,4,"[10, 13, 16, 25]",124.1716661,47062,874,2,3,9,1.5569787348204112
undo,16,36,0,0,0,25,"[0, 12, 9, 17, 19, 2, 25]",7,3,"[10, 13, 16]",99.17166613,47638,576,1,2,9,1.7541097756555504
undo,16,36,0,0,0,13,"[0, 12, 9, 17, 19, 2, 25, 13]",8,1,[10],78.58040585,48354,716,1,0,9,2.257503926583423
undo,16,36,0,0,1,10,"[0, 12, 9, 17, 19, 2, 25, 13, 10]",9,0,[],2.619889792,49796,1442,1,0,9,1.709815416525762
undo,16,36,1,0,0,13,"[0, 12, 9, 17, 19, 2, 25, 13]",8,1,[10],78.58040585,53535,3739,1,0,9,2.257503926583423
undo,16,36,1,0,0,25,"[0, 12, 9, 17, 19, 2, 25]",7,3,"[10, 13, 16]",99.17166613,53826,291,1,2,9,1.7541097756555504
undo,16,36,1,0,0,2,"[0, 12, 9, 17, 19, 2]",6,4,"[10, 13, 16, 25]",124.1716661,54537,711,2,3,9,1.5569787348204112
undo,16,36,1,0,0,19,"[0, 12, 9, 17, 19]",5,8,"[2, 4, 10, 13, 16, 18, 23, 25]",161.2930885,54969,432,3,14,9,1.7995682634090462
undo,16,36,1,0,0,17,"[0, 12, 9, 17]",4,11,"[2, 4, 8, 10, 13, 16, 18, 19, 23, 25, 27]",189.1857399,55547,578,8,54,9,1.1724571624470872
undo,16,36,1,0,0,9,"[0, 12, 9]",3,14,"[2, 4, 8, 10, 13, 16, 17, 18, 19, 23, 25, 27, 28, 29]",215.4345494,55987,440,32,191,9,1.224429481246385
undo,16,36,0,0,0,16,"[0, 12, 9, 16]",4,8,"[2, 10, 13, 17, 18, 19, 23, 25]",168.137615,57153,1166,7,26,9,1.235383731443557
undo,16,36,0,0,0,17,"[0, 12, 9, 16, 17]",5,6,"[2, 10, 13, 18, 19, 25]",139.8180105,58300,1147,7,14,9,1.6947865799475665
undo,16,36,0,0,0,19,"[0, 12, 9, 16, 17, 19]",6,5,"[2, 10, 13, 18, 25]",111.9253591,58876,576,6,1,9,2.440059772477113
undo,16,36,0,0,0,2,"[0, 12, 9, 16, 17, 19, 2]",7,2,"[13, 25]",74.80393675,59606,730,2,0,9,1.994135267441798
undo,16,36,0,0,0,25,"[0, 12, 9, 16, 17, 19, 2, 25]",8,1,[13],49.80393675,60037,431,1,0,9,2.1853059870598197
undo,16,36,0,0,1,13,"[0, 12, 9, 16, 17, 19, 2, 25, 13]",9,0,[],29.21267647,60754,717,1,0,9,2.7608371719978186
undo,16,36,0,1,1,13,"[0, 12, 9, 16, 17, 19, 2, 25, 13]",9,0,[],29.21267647,75798,15044,1,0,9,2.7608371719978186
undo,17,26,0,0,0,0,[0],1,29,"[1, 2, 3, 4, 5, 6, 7, 8, 9, 10, 11, 12, 13, 14, 15, 16, 17, 18, 19, 20, 21, 22, 23, 24, 25, 26, 27, 28, 29]",300,9,-1,9,226,9,0.0
undo,17,26,0,0,0,21,"[0, 21]",2,25,"[2, 3, 4, 5, 6, 7, 8, 10, 11, 12, 13, 14, 15, 16, 17, 18, 19, 22, 23, 24, 25, 26, 27, 28, 29]",211.1349337,5504,5495,7,90,9,1.0
undo,17,26,0,0,0,13,"[0, 21, 13]",3,21,"[3, 4, 5, 6, 7, 8, 10, 11, 12, 14, 15, 16, 17, 18, 19, 22, 23, 24, 25, 26, 29]",188.9989901,5935,431,6,45,9,1.0103952279992225
undo,17,26,0,0,0,5,"[0, 21, 13, 5]",4,12,"[3, 4, 11, 14, 16, 17, 18, 22, 23, 25, 26, 29]",150.7106107,6372,437,2,10,8,1.0086890649024711
undo,17,26,0,0,0,23,"[0, 21, 13, 5, 23]",5,8,"[3, 4, 11, 14, 16, 17, 22, 29]",118.0150452,6809,437,2,7,8,1.3518621918690494
undo,17,26,0,0,0,16,"[0, 21, 13, 5, 23, 16]",6,4,"[4, 14, 17, 29]",64.77971862,8108,1299,2,3,8,2.1011863559657242
undo,17,26,0,0,0,29,"[0, 21, 13, 5, 23, 16, 29]",7,2,"[4, 17]",40.57228175,8548,440,2,0,8,2.123178325538451
undo,17,26,0,0,1,4,"[0, 21, 13, 5, 23, 16, 29, 4]",8,0,[],16.57228175,9125,577,1,0,8,2.338467952972574
undo,17,26,1,0,0,29,"[0, 21, 13, 5, 23, 16, 29]",7,2,"[4, 17]",40.57228175,12133,3008,2,0,8,2.123178325538451
undo,17,26,1,0,0,16,"[0, 21, 13, 5, 23, 16]",6,4,"[4, 14, 17, 29]",64.77971862,12275,142,2,3,8,2.1011863559657242
undo,17,26,1,0,0,23,"[0, 21, 13, 5, 23]",5,8,"[3, 4, 11, 14, 16, 17, 22, 29]",118.0150452,12698,423,2,7,8,1.3518621918690494
undo,17,26,1,0,0,5,"[0, 21, 13, 5]",4,12,"[3, 4, 11, 14, 16, 17, 18, 22, 23, 25, 26, 29]",150.7106107,12845,147,2,10,8,1.0086890649024711
undo,17,26,1,0,0,13,"[0, 21, 13]",3,21,"[3, 4, 5, 6, 7, 8, 10, 11, 12, 14, 15, 16, 17, 18, 19, 22, 23, 24, 25, 26, 29]",188.9989901,13278,433,6,45,9,1.0103952279992225
undo,17,26,1,0,0,21,"[0, 21]",2,25,"[2, 3, 4, 5, 6, 7, 8, 10, 11, 12, 13, 14, 15, 16, 17, 18, 19, 22, 23, 24, 25, 26, 27, 28, 29]",211.1349337,13424,146,7,90,9,1.0
undo,17,26,1,0,0,0,[0],1,29,"[1, 2, 3, 4, 5, 6, 7, 8, 9, 10, 11, 12, 13, 14, 15, 16, 17, 18, 19, 20, 21, 22, 23, 24, 25, 26, 27, 28, 29]",300,13723,299,9,226,9,0.0
undo,17,26,0,0,0,21,"[0, 21]",2,25,"[2, 3, 4, 5, 6, 7, 8, 10, 11, 12, 13, 14, 15, 16, 17, 18, 19, 22, 23, 24, 25, 26, 27, 28, 29]",211.1349337,14298,575,7,90,9,1.0
undo,17,26,0,0,0,16,"[0, 21, 16]",3,12,"[4, 5, 6, 10, 11, 12, 13, 14, 17, 23, 26, 29]",151.2266705,14888,590,1,34,9,1.3289691188319968
undo,17,26,0,0,0,29,"[0, 21, 16, 29]",4,8,"[4, 5, 6, 10, 13, 14, 17, 23]",127.0192337,15177,289,1,28,9,1.4156891800947415
undo,17,26,0,0,0,4,"[0, 21, 16, 29, 4]",5,5,"[6, 10, 14, 17, 23]",103.0192337,15603,426,1,12,9,1.6252228687746915
undo,17,26,0,0,0,17,"[0, 21, 16, 29, 4, 17]",6,3,"[6, 10, 14]",81.92421056,16761,1158,1,4,9,1.534793846471065
undo,17,26,0,0,0,14,"[0, 21, 16, 29, 4, 17, 14]",7,2,"[6, 10]",59.45200551,17189,428,1,1,9,1.4926767408397108
undo,17,26,0,0,0,6,"[0, 21, 16, 29, 4, 17, 14, 6]",8,1,[10],38.42820947,17480,291,1,0,9,1.6286010900012204
undo,17,26,0,0,1,10,"[0, 21, 16, 29, 4, 17, 14, 6, 10]",9,0,[],9.153647129,17910,430,1,0,9,1.797369356615424
undo,17,26,0,1,1,10,"[0, 21, 16, 29, 4, 17, 14, 6, 10]",9,0,[],9.153647129,22093,4183,1,0,9,1.797369356615424
undo,18,37,0,0,0,0,[0],1,29,"[1, 2, 3, 4, 5, 6, 7, 8, 9, 10, 11, 12, 13, 14, 15, 16, 17, 18, 19, 20, 21, 22, 23, 24, 25, 26, 27, 28, 29]",300,10,-1,6,168,10,0.0
undo,18,37,0,0,0,18,"[0, 18]",2,19,"[1, 2, 4, 6, 7, 9, 10, 12, 14, 15, 17, 19, 20, 21, 22, 23, 26, 28, 29]",202.4090168,5552,5542,6,89,10,1.0
undo,18,37,0,0,0,7,"[0, 18, 7]",3,12,"[1, 2, 4, 9, 15, 17, 19, 20, 21, 22, 26, 29]",175.2428614,6143,591,6,53,10,1.0413073512834488
undo,18,37,0,0,0,22,"[0, 18, 7, 22]",4,8,"[1, 2, 4, 15, 19, 20, 21, 26]",125.2428614,7760,1617,6,29,10,1.0730792320325544
undo,18,37,0,0,0,4,"[0, 18, 7, 22, 4]",5,7,"[1, 2, 15, 19, 20, 21, 26]",100.2428614,8196,436,4,16,10,1.2290245562206235
undo,18,37,0,0,0,2,"[0, 18, 7, 22, 4, 2]",6,5,"[1, 15, 19, 20, 21]",88.84110714,8626,430,4,7,10,1.3968113858365216
undo,18,37,0,0,0,1,"[0, 18, 7, 22, 4, 2, 1]",7,4,"[15, 19, 20, 21]",71.63645661,8919,293,4,3,10,1.4424239294761476
undo,18,37,0,0,0,15,"[0, 18, 7, 22, 4, 2, 1, 15]",8,2,"[20, 21]",31.67397421,9928,1009,2,0,10,1.612564167414217
undo,18,37,0,0,0,21,"[0, 18, 7, 22, 4, 2, 1, 15, 21]",9,1,[20],16.67397421,10213,285,1,0,10,1.8256316004901285
undo,18,37,0,0,1,20,"[0, 18, 7, 22, 4, 2, 1, 15, 21, 20]",10,0,[],2.251769103,10500,287,1,0,10,1.9863570569415172
undo,18,37,0,1,1,20,"[0, 18, 7, 22, 4, 2, 1, 15, 21, 20]",10,0,[],2.251769103,15762,5262,1,0,10,1.9863570569415172
undo,19,27,0,0,0,0,[0],1,26,"[1, 3, 5, 6, 7, 8, 9, 10, 11, 12, 13, 14, 15, 16, 17, 18, 19, 21, 22, 23, 24, 25, 26, 27, 28, 29]",300,468,-1,13,578,11,0.0
undo,19,27,0,0,0,15,"[0, 15]",2,24,"[1, 3, 5, 6, 7, 8, 9, 10, 11, 12, 13, 14, 16, 17, 18, 19, 21, 22, 23, 24, 25, 26, 27, 29]",263.7508621,11150,10682,6,219,11,1.0
undo,19,27,0,0,0,24,"[0, 15, 24]",3,20,"[1, 5, 6, 7, 8, 9, 10, 12, 13, 14, 16, 17, 18, 19, 21, 23, 25, 26, 27, 29]",246.5462115,11728,578,6,130,11,1.130933077698322
undo,19,27,0,0,0,17,"[0, 15, 24, 17]",4,15,"[1, 6, 8, 10, 12, 13, 14, 16, 18, 19, 23, 25, 26, 27, 29]",229.9932662,12018,290,4,60,11,1.1285538435963374
undo,19,27,0,0,0,12,"[0, 15, 24, 17, 12]",5,14,"[1, 6, 8, 10, 13, 14, 16, 18, 19, 23, 25, 26, 27, 29]",218.8129263,13308,1290,2,32,11,1.2561880288755216
undo,19,27,0,0,0,10,"[0, 15, 24, 17, 12, 10]",6,11,"[1, 8, 13, 14, 18, 19, 23, 25, 26, 27, 29]",207.7675653,14309,1001,2,28,11,1.2228289337766665
undo,19,27,0,0,0,13,"[0, 15, 24, 17, 12, 10, 13]",7,9,"[1, 8, 14, 18, 19, 23, 26, 27, 29]",167.9178476,15333,1024,2,18,11,1.3421291994761178
undo,19,27,0,0,0,19,"[0, 15, 24, 17, 12, 10, 13, 19]",8,5,"[1, 8, 14, 23, 29]",131.6825057,16055,722,2,6,11,1.294749956153846
undo,19,27,0,0,0,8,"[0, 15, 24, 17, 12, 10, 13, 19, 8]",9,3,"[14, 23, 29]",116.816437,16345,290,2,1,11,1.3554286578836865
undo,19,27,0,0,0,14,"[0, 15, 24, 17, 12, 10, 13, 19, 8, 14]",10,1,[29],59.25777126,17347,1002,1,0,11,1.312380420632942
undo,19,27,0,0,1,29,"[0, 15, 24, 17, 12, 10, 13, 19, 8, 14, 29]",11,0,[],14.96330208,18638,1291,1,0,11,1.4680136813839417
undo,19,27,1,0,0,14,"[0, 15, 24, 17, 12, 10, 13, 19, 8, 14]",10,1,[29],59.25777126,20636,1998,1,0,11,1.312380420632942
undo,19,27,0,0,1,29,"[0, 15, 24, 17, 12, 10, 13, 19, 8, 14, 29]",11,0,[],14.96330208,22244,1608,1,0,11,1.4680136813839417
undo,19,27,1,0,0,14,"[0, 15, 24, 17, 12, 10, 13, 19, 8, 14]",10,1,[29],59.25777126,31827,9583,1,0,11,1.312380420632942
undo,19,27,1,0,0,8,"[0, 15, 24, 17, 12, 10, 13, 19, 8]",9,3,"[14, 23, 29]",116.816437,31973,146,2,1,11,1.3554286578836865
undo,19,27,1,0,0,19,"[0, 15, 24, 17, 12, 10, 13, 19]",8,5,"[1, 8, 14, 23, 29]",131.6825057,32685,712,2,6,11,1.294749956153846
undo,19,27,1,0,0,13,"[0, 15, 24, 17, 12, 10, 13]",7,9,"[1, 8, 14, 18, 19, 23, 26, 27, 29]",167.9178476,32832,147,2,18,11,1.3421291994761178
undo,19,27,1,0,0,10,"[0, 15, 24, 17, 12, 10]",6,11,"[1, 8, 13, 14, 18, 19, 23, 25, 26, 27, 29]",207.7675653,33410,578,2,28,11,1.2228289337766665
undo,19,27,1,0,0,12,"[0, 15, 24, 17, 12]",5,14,"[1, 6, 8, 10, 13, 14, 16, 18, 19, 23, 25, 26, 27, 29]",218.8129263,33558,148,2,32,11,1.2561880288755216
undo,19,27,1,0,0,17,"[0, 15, 24, 17]",4,15,"[1, 6, 8, 10, 12, 13, 14, 16, 18, 19, 23, 25, 26, 27, 29]",229.9932662,33995,437,4,60,11,1.1285538435963374
undo,19,27,1,0,0,24,"[0, 15, 24]",3,20,"[1, 5, 6, 7, 8, 9, 10, 12, 13, 14, 16, 17, 18, 19, 21, 23, 25, 26, 27, 29]",246.5462115,34424,429,6,130,11,1.130933077698322
undo,19,27,1,0,0,15,"[0, 15]",2,24,"[1, 3, 5, 6, 7, 8, 9, 10, 11, 12, 13, 14, 16, 17, 18, 19, 21, 22, 23, 24, 25, 26, 27, 29]",263.7508621,34710,286,6,219,11,1.0
undo,19,27,1,0,0,0,[0],1,26,"[1, 3, 5, 6, 7, 8, 9, 10, 11, 12, 13, 14, 15, 16, 17, 18, 19, 21, 22, 23, 24, 25, 26, 27, 28, 29]",300,35007,297,13,578,11,0.0
undo,19,27,0,0,0,26,"[0, 26]",2,23,"[1, 5, 6, 7, 8, 9, 10, 11, 12, 13, 14, 15, 16, 17, 18, 19, 21, 22, 23, 24, 25, 27, 29]",275.8132268,35736,729,7,249,11,1.0
undo,19,27,0,0,0,27,"[0, 26, 27]",3,21,"[1, 6, 7, 8, 9, 10, 11, 12, 13, 14, 15, 16, 17, 18, 19, 21, 22, 23, 24, 25, 29]",225.9935519,38069,2333,1,80,11,1.307240649445448
undo,19,27,0,0,0,18,"[0, 26, 27, 18]",4,18,"[1, 6, 7, 8, 10, 11, 12, 13, 14, 15, 16, 17, 19, 21, 22, 23, 24, 25]",188.5102223,38790,721,5,32,10,1.1895669400933468
undo,19,27,0,0,0,1,"[0, 26, 27, 18, 1]",5,13,"[6, 7, 8, 10, 12, 13, 15, 16, 17, 19, 23, 24, 25]",144.4988601,39224,434,5,23,10,2.136577204388219
undo,19,27,0,0,0,23,"[0, 26, 27, 18, 1, 23]",6,8,"[8, 10, 12, 13, 15, 17, 19, 24]",96.45721153,39953,729,8,13,9,2.676110476799327
undo,19,27,0,0,0,15,"[0, 26, 27, 18, 1, 23, 15]",7,3,"[12, 17, 24]",42.44795307,40388,435,2,2,9,7.105053022028715
undo,19,27,0,0,0,24,"[0, 26, 27, 18, 1, 23, 15, 24]",8,2,"[12, 17]",25.24330253,40817,429,2,0,9,5.813085399699478
undo,19,27,0,0,1,17,"[0, 26, 27, 18, 1, 23, 15, 24, 17]",9,0,[],8.690357175,41965,1148,1,0,9,4.696099921274001
undo,19,27,1,0,0,24,"[0, 26, 27, 18, 1, 23, 15, 24]",8,2,"[12, 17]",25.24330253,44258,2293,2,0,9,5.813085399699478
undo,19,27,1,0,0,15,"[0, 26, 27, 18, 1, 23, 15]",7,3,"[12, 17, 24]",42.44795307,44538,280,2,2,9,7.105053022028715
undo,19,27,1,0,0,23,"[0, 26, 27, 18, 1, 23]",6,8,"[8, 10, 12, 13, 15, 17, 19, 24]",96.45721153,44819,281,8,13,9,2.676110476799327
undo,19,27,1,0,0,1,"[0, 26, 27, 18, 1]",5,13,"[6, 7, 8, 10, 12, 13, 15, 16, 17, 19, 23, 24, 25]",144.4988601,45103,284,5,23,10,2.136577204388219
undo,19,27,1,0,0,18,"[0, 26, 27, 18]",4,18,"[1, 6, 7, 8, 10, 11, 12, 13, 14, 15, 16, 17, 19, 21, 22, 23, 24, 25]",188.5102223,45396,293,5,32,10,1.1895669400933468
undo,19,27,1,0,0,27,"[0, 26, 27]",3,21,"[1, 6, 7, 8, 9, 10, 11, 12, 13, 14, 15, 16, 17, 18, 19, 21, 22, 23, 24, 25, 29]",225.9935519,45539,143,1,80,11,1.307240649445448
undo,19,27,1,0,0,26,"[0, 26]",2,23,"[1, 5, 6, 7, 8, 9, 10, 11, 12, 13, 14, 15, 16, 17, 18, 19, 21, 22, 23, 24, 25, 27, 29]",275.8132268,45822,283,7,249,11,1.0
undo,19,27,1,0,0,0,[0],1,26,"[1, 3, 5, 6, 7, 8, 9, 10, 11, 12, 13, 14, 15, 16, 17, 18, 19, 21, 22, 23, 24, 25, 26, 27, 28, 29]",300,47390,1568,13,578,11,0.0
undo,19,27,0,0,0,27,"[0, 27]",2,24,"[1, 5, 6, 7, 8, 9, 10, 11, 12, 13, 14, 15, 16, 17, 18, 19, 21, 22, 23, 24, 25, 26, 28, 29]",243.3872806,53470,6080,20,305,10,1.0
undo,19,27,0,0,0,18,"[0, 27, 18]",3,21,"[1, 6, 7, 8, 9, 10, 11, 12, 13, 14, 15, 16, 17, 19, 21, 22, 23, 24, 25, 26, 28]",205.903951,53908,438,1,37,10,1.0039803773310747
undo,19,27,0,0,0,1,"[0, 27, 18, 1]",4,16,"[6, 7, 8, 10, 12, 13, 14, 15, 16, 17, 19, 21, 23, 24, 25, 26]",161.8925888,54924,1016,1,31,10,1.8975883181097521
undo,19,27,0,0,0,23,"[0, 27, 18, 1, 23]",5,10,"[8, 10, 12, 13, 14, 15, 17, 19, 24, 26]",113.8509402,55364,440,1,15,10,2.4474237231477605
undo,19,27,0,0,0,15,"[0, 27, 18, 1, 23, 15]",6,5,"[10, 12, 17, 24, 26]",59.84168172,56829,1465,1,8,10,6.625214613512323
undo,19,27,0,0,0,24,"[0, 27, 18, 1, 23, 15, 24]",7,3,"[10, 12, 17]",42.63703119,57540,711,1,4,10,5.445082613777142
undo,19,27,0,0,0,17,"[0, 27, 18, 1, 23, 15, 24, 17]",8,2,"[10, 12]",26.08408583,58399,859,1,1,10,4.41570176151766
undo,19,27,0,0,0,12,"[0, 27, 18, 1, 23, 15, 24, 17, 12]",9,1,[10],14.90374594,58826,427,1,0,10,4.411225643515542
undo,19,27,0,0,1,10,"[0, 27, 18, 1, 23, 15, 24, 17, 12, 10]",10,0,[],3.858384924,59252,426,1,0,10,3.926281861561712
undo,19,27,1,0,0,12,"[0, 27, 18, 1, 23, 15, 24, 17, 12]",9,1,[10],14.90374594,60114,862,1,0,10,4.411225643515542
undo,19,27,1,0,0,17,"[0, 27, 18, 1, 23, 15, 24, 17]",8,2,"[10, 12]",26.08408583,60256,142,1,1,10,4.41570176151766
undo,19,27,1,0,0,24,"[0, 27, 18, 1, 23, 15, 24]",7,3,"[10, 12, 17]",42.63703119,60966,710,1,4,10,5.445082613777142
undo,19,27,1,0,0,15,"[0, 27, 18, 1, 23, 15]",6,5,"[10, 12, 17, 24, 26]",59.84168172,61109,143,1,8,10,6.625214613512323
undo,19,27,1,0,0,23,"[0, 27, 18, 1, 23]",5,10,"[8, 10, 12, 13, 14, 15, 17, 19, 24, 26]",113.8509402,61252,143,1,15,10,2.4474237231477605
undo,19,27,1,0,0,1,"[0, 27, 18, 1]",4,16,"[6, 7, 8, 10, 12, 13, 14, 15, 16, 17, 19, 21, 23, 24, 25, 26]",161.8925888,61394,142,1,31,10,1.8975883181097521
undo,19,27,1,0,0,18,"[0, 27, 18]",3,21,"[1, 6, 7, 8, 9, 10, 11, 12, 13, 14, 15, 16, 17, 19, 21, 22, 23, 24, 25, 26, 28]",205.903951,61535,141,1,37,10,1.0039803773310747
undo,19,27,1,0,0,27,"[0, 27]",2,24,"[1, 5, 6, 7, 8, 9, 10, 11, 12, 13, 14, 15, 16, 17, 18, 19, 21, 22, 23, 24, 25, 26, 28, 29]",243.3872806,61676,141,20,305,10,1.0
undo,19,27,1,0,0,0,[0],1,26,"[1, 3, 5, 6, 7, 8, 9, 10, 11, 12, 13, 14, 15, 16, 17, 18, 19, 21, 22, 23, 24, 25, 26, 27, 28, 29]",300,61818,142,13,578,11,0.0
undo,19,27,0,0,0,15,"[0, 15]",2,24,"[1, 3, 5, 6, 7, 8, 9, 10, 11, 12, 13, 14, 16, 17, 18, 19, 21, 22, 23, 24, 25, 26, 27, 29]",263.7508621,64693,2875,6,219,11,1.0
undo,19,27,0,0,0,24,"[0, 15, 24]",3,20,"[1, 5, 6, 7, 8, 9, 10, 12, 13, 14, 16, 17, 18, 19, 21, 23, 25, 26, 27, 29]",246.5462115,67569,2876,6,130,11,1.130933077698322
undo,19,27,0,0,0,17,"[0, 15, 24, 17]",4,15,"[1, 6, 8, 10, 12, 13, 14, 16, 18, 19, 23, 25, 26, 27, 29]",229.9932662,67863,294,4,60,11,1.1285538435963374
undo,19,27,0,0,0,12,"[0, 15, 24, 17, 12]",5,14,"[1, 6, 8, 10, 13, 14, 16, 18, 19, 23, 25, 26, 27, 29]",218.8129263,68290,427,2,32,11,1.2561880288755216
undo,19,27,0,0,0,10,"[0, 15, 24, 17, 12, 10]",6,11,"[1, 8, 13, 14, 18, 19, 23, 25, 26, 27, 29]",207.7675653,68717,427,2,28,11,1.2228289337766665
undo,19,27,0,0,0,13,"[0, 15, 24, 17, 12, 10, 13]",7,9,"[1, 8, 14, 18, 19, 23, 26, 27, 29]",167.9178476,69580,863,2,18,11,1.3421291994761178
undo,19,27,0,0,0,19,"[0, 15, 24, 17, 12, 10, 13, 19]",8,5,"[1, 8, 14, 23, 29]",131.6825057,70443,863,2,6,11,1.294749956153846
undo,19,27,0,0,0,8,"[0, 15, 24, 17, 12, 10, 13, 19, 8]",9,3,"[14, 23, 29]",116.816437,71165,722,2,1,11,1.3554286578836865
undo,19,27,0,0,0,14,"[0, 15, 24, 17, 12, 10, 13, 19, 8, 14]",10,1,[29],59.25777126,72319,1154,1,0,11,1.312380420632942
undo,19,27,1,0,0,8,"[0, 15, 24, 17, 12, 10, 13, 19, 8]",9,3,"[14, 23, 29]",116.816437,76078,3759,2,1,11,1.3554286578836865
undo,19,27,0,0,1,23,"[0, 15, 24, 17, 12, 10, 13, 19, 8, 23]",10,0,[],45.97859399,76959,881,1,0,10,3.3397859539241304
undo,19,27,1,0,0,8,"[0, 15, 24, 17, 12, 10, 13, 19, 8]",9,3,"[14, 23, 29]",116.816437,78531,1572,2,1,11,1.3554286578836865
undo,19,27,0,0,1,23,"[0, 15, 24, 17, 12, 10, 13, 19, 8, 23]",10,0,[],45.97859399,79715,1184,1,0,10,3.3397859539241304
undo,19,27,1,0,0,8,"[0, 15, 24, 17, 12, 10, 13, 19, 8]",9,3,"[14, 23, 29]",116.816437,81453,1738,2,1,11,1.3554286578836865
undo,19,27,0,0,0,14,"[0, 15, 24, 17, 12, 10, 13, 19, 8, 14]",10,1,[29],59.25777126,82603,1150,1,0,11,1.312380420632942
undo,19,27,0,0,1,29,"[0, 15, 24, 17, 12, 10, 13, 19, 8, 14, 29]",11,0,[],14.96330208,83508,905,1,0,11,1.4680136813839417
undo,19,27,0,1,1,29,"[0, 15, 24, 17, 12, 10, 13, 19, 8, 14, 29]",11,0,[],14.96330208,84656,1148,1,0,11,1.4680136813839417
undo,20,2,0,0,0,0,[0],1,23,"[1, 2, 4, 5, 6, 7, 8, 9, 12, 13, 15, 16, 17, 18, 19, 20, 22, 23, 25, 26, 27, 28, 29]",300,10,-1,70,620,10,0.0
undo,20,2,0,0,0,19,"[0, 19]",2,22,"[1, 2, 4, 5, 6, 7, 8, 9, 12, 13, 15, 16, 17, 18, 20, 22, 23, 25, 26, 27, 28, 29]",210.306076,11556,11546,67,431,10,1.0
