condition,trial_id,map_id,undoIndicator,submit,checkEnd,currentChoice,chosen_all,n_city_all,n_within_reach,cities_reach,currentBudget,time_all,rt_all,n_opt_paths_all,n_subopt_paths_all,mas_all,tortuosity_all
undo,0,22,0,0,0,0,[0],1,29,"[1, 2, 3, 4, 5, 6, 7, 8, 9, 10, 11, 12, 13, 14, 15, 16, 17, 18, 19, 20, 21, 22, 23, 24, 25, 26, 27, 28, 29]",300,193,-1,31,704,9,0.0
undo,0,22,0,0,0,16,"[0, 16]",2,21,"[1, 3, 6, 7, 8, 9, 11, 13, 14, 15, 17, 18, 19, 20, 21, 22, 24, 25, 27, 28, 29]",218.605897,4923,4730,17,147,9,1.0
undo,0,22,0,0,0,6,"[0, 16, 6]",3,16,"[1, 3, 7, 9, 13, 14, 15, 17, 19, 20, 21, 22, 24, 25, 28, 29]",184.1675463,5909,986,5,77,9,1.3071109638102874
undo,0,22,0,0,0,9,"[0, 16, 6, 9]",4,15,"[1, 3, 7, 13, 14, 15, 17, 19, 20, 21, 22, 24, 25, 28, 29]",157.5404924,10724,4815,4,33,9,1.5907585082674378
undo,0,22,0,0,0,19,"[0, 16, 6, 9, 19]",5,12,"[3, 7, 13, 14, 15, 17, 20, 21, 24, 25, 28, 29]",137.1444143,11466,742,3,17,9,2.0453047636701496
undo,0,22,0,0,0,29,"[0, 16, 6, 9, 19, 29]",6,10,"[3, 7, 13, 14, 15, 17, 20, 21, 24, 28]",122.111118,13532,2066,3,10,9,2.310050419546042
undo,0,22,0,0,0,14,"[0, 16, 6, 9, 19, 29, 14]",7,2,"[7, 17]",63.86165444,16869,3337,1,1,9,1.8228779744230632
undo,0,22,0,0,0,7,"[0, 16, 6, 9, 19, 29, 14, 7]",8,1,[17],50.82324963,17682,813,1,0,9,1.981278197083242
undo,0,22,0,0,1,17,"[0, 16, 6, 9, 19, 29, 14, 7, 17]",9,0,[],9.205945539,19191,1509,1,0,9,1.840137026694984
undo,0,22,0,1,1,17,"[0, 16, 6, 9, 19, 29, 14, 7, 17]",9,0,[],9.205945539,23829,4638,1,0,9,1.840137026694984
undo,1,6,0,0,0,0,[0],1,29,"[1, 2, 3, 4, 5, 6, 7, 8, 9, 10, 11, 12, 13, 14, 15, 16, 17, 18, 19, 20, 21, 22, 23, 24, 25, 26, 27, 28, 29]",300,195,-1,180,4304,10,0.0
undo,1,6,0,0,0,24,"[0, 24]",2,25,"[1, 2, 3, 4, 5, 6, 7, 8, 10, 11, 13, 14, 16, 17, 18, 19, 20, 21, 22, 23, 25, 26, 27, 28, 29]",202.7066292,18984,18789,27,234,9,1.0
undo,1,6,0,0,0,10,"[0, 24, 10]",3,21,"[1, 2, 3, 4, 5, 6, 7, 8, 11, 13, 14, 16, 17, 18, 20, 21, 22, 23, 26, 27, 29]",189.2902213,19659,675,26,178,9,1.312589882047767
undo,1,6,0,0,0,17,"[0, 24, 10, 17]",4,20,"[1, 2, 3, 4, 5, 6, 7, 8, 11, 13, 14, 16, 18, 20, 21, 22, 23, 26, 27, 29]",169.5671384,20307,648,21,99,9,1.848113977294317
undo,1,6,0,0,0,18,"[0, 24, 10, 17, 18]",5,16,"[1, 2, 3, 6, 7, 8, 13, 14, 16, 20, 21, 22, 23, 26, 27, 29]",155.6387501,21562,1255,14,52,9,2.3704031572105486
undo,1,6,0,0,0,16,"[0, 24, 10, 17, 18, 16]",6,14,"[1, 2, 3, 6, 7, 13, 14, 20, 21, 22, 23, 26, 27, 29]",132.2935151,23470,1908,10,24,9,2.3234375005798116
undo,1,6,0,0,0,29,"[0, 24, 10, 17, 18, 16, 29]",7,7,"[3, 6, 14, 21, 22, 23, 27]",95.60564243,24297,827,5,5,9,1.919047806135419
undo,1,6,0,0,0,23,"[0, 24, 10, 17, 18, 16, 29, 23]",8,2,"[6, 22]",48.08722495,25953,1656,2,0,9,1.8771256133264236
undo,1,6,0,0,1,6,"[0, 24, 10, 17, 18, 16, 29, 23, 6]",9,0,[],12.73188589,27069,1116,1,0,9,1.783620426741387
undo,1,6,0,1,1,6,"[0, 24, 10, 17, 18, 16, 29, 23, 6]",9,0,[],12.73188589,29397,2328,1,0,9,1.783620426741387
undo,2,25,0,0,0,0,[0],1,28,"[1, 2, 3, 4, 5, 7, 8, 9, 10, 11, 12, 13, 14, 15, 16, 17, 18, 19, 20, 21, 22, 23, 24, 25, 26, 27, 28, 29]",300,245,-1,5,94,10,0.0
undo,2,25,0,0,0,23,"[0, 23]",2,23,"[1, 2, 3, 5, 7, 8, 9, 11, 12, 13, 14, 16, 17, 19, 20, 21, 22, 24, 25, 26, 27, 28, 29]",259.7756293,6700,6455,3,33,10,1.0
undo,2,25,0,0,0,7,"[0, 23, 7]",3,16,"[1, 3, 5, 8, 9, 11, 13, 17, 19, 21, 22, 24, 26, 27, 28, 29]",181.9424744,7786,1086,1,21,9,1.0073109045884563
undo,2,25,0,0,0,24,"[0, 23, 7, 24]",4,10,"[3, 5, 8, 9, 11, 13, 19, 22, 28, 29]",157.1836376,8534,748,1,17,9,1.0161584555781231
undo,2,25,0,0,0,9,"[0, 23, 7, 24, 9]",5,8,"[3, 8, 11, 13, 19, 22, 28, 29]",139.1558812,9134,600,1,16,9,1.0303325523073676
undo,2,25,0,0,0,8,"[0, 23, 7, 24, 9, 8]",6,3,"[3, 13, 28]",88.9065031,11177,2043,4,1,8,1.055612641218378
undo,2,25,0,0,0,3,"[0, 23, 7, 24, 9, 8, 3]",7,2,"[13, 28]",49.70191153,12486,1309,2,0,8,1.351837400410144
undo,2,25,0,0,1,28,"[0, 23, 7, 24, 9, 8, 3, 28]",8,0,[],18.39695985,13210,724,1,0,8,1.3013490779110028
undo,2,25,0,1,1,28,"[0, 23, 7, 24, 9, 8, 3, 28]",8,0,[],18.39695985,14913,1703,1,0,8,1.3013490779110028
undo,3,36,0,0,0,0,[0],1,24,"[2, 4, 5, 6, 7, 8, 9, 10, 12, 13, 14, 15, 16, 17, 18, 19, 20, 22, 23, 25, 26, 27, 28, 29]",300,198,-1,2,200,10,0.0
undo,3,36,0,0,0,16,"[0, 16]",2,12,"[2, 8, 9, 10, 12, 13, 17, 18, 19, 23, 25, 27]",193.262003,10873,10675,20,112,8,1.0
undo,3,36,0,0,0,17,"[0, 16, 17]",3,10,"[2, 9, 10, 12, 13, 18, 19, 23, 25, 27]",164.9423985,12433,1560,14,64,8,1.4289609665642613
undo,3,36,0,0,0,9,"[0, 16, 17, 9]",4,8,"[2, 10, 12, 13, 18, 19, 23, 25]",138.693589,13292,859,6,21,8,2.335567583937715
undo,3,36,0,0,0,19,"[0, 16, 17, 9, 19]",5,6,"[2, 10, 12, 13, 18, 25]",123.5608431,14294,1002,6,5,8,2.2891022786553017
undo,3,36,0,0,0,2,"[0, 16, 17, 9, 19, 2]",6,3,"[10, 13, 25]",86.43942067,15224,930,2,1,8,1.891101810711848
undo,3,36,0,0,0,25,"[0, 16, 17, 9, 19, 2, 25]",7,1,[13],61.43942067,15917,693,1,0,8,2.0836773189568087
undo,3,36,0,0,1,13,"[0, 16, 17, 9, 19, 2, 25, 13]",8,0,[],40.84816038,16562,645,1,0,8,2.642206520923964
undo,3,36,0,1,1,13,"[0, 16, 17, 9, 19, 2, 25, 13]",8,0,[],40.84816038,22517,5955,1,0,8,2.642206520923964
undo,4,16,0,0,0,0,[0],1,29,"[1, 2, 3, 4, 5, 6, 7, 8, 9, 10, 11, 12, 13, 14, 15, 16, 17, 18, 19, 20, 21, 22, 23, 24, 25, 26, 27, 28, 29]",300,254,-1,13,161,9,0.0
undo,4,16,0,0,0,28,"[0, 28]",2,27,"[1, 2, 3, 4, 5, 7, 8, 9, 10, 11, 12, 13, 14, 15, 16, 17, 18, 19, 20, 21, 22, 23, 24, 25, 26, 27, 29]",284.3475242,10302,10048,11,92,9,1.0
undo,4,16,0,0,0,17,"[0, 28, 17]",3,26,"[1, 2, 3, 4, 5, 7, 8, 9, 10, 11, 12, 13, 14, 15, 16, 18, 19, 20, 21, 22, 23, 24, 25, 26, 27, 29]",219.1555001,12205,1903,10,46,9,1.3773866384707543
undo,4,16,0,0,0,16,"[0, 28, 17, 16]",4,25,"[1, 2, 3, 4, 5, 7, 8, 9, 10, 11, 12, 13, 14, 15, 18, 19, 20, 21, 22, 23, 24, 25, 26, 27, 29]",190.8358956,13120,915,10,34,9,1.3209953830681203
undo,4,16,0,0,0,8,"[0, 28, 17, 16, 8]",5,12,"[3, 4, 5, 9, 12, 13, 15, 19, 20, 21, 25, 29]",142.4623491,16280,3160,6,19,9,1.2700932705506198
undo,4,16,0,0,0,20,"[0, 28, 17, 16, 8, 20]",6,6,"[4, 5, 9, 12, 15, 25]",84.6869218,18161,1881,4,4,9,1.1899382910703262
undo,4,16,0,0,0,25,"[0, 28, 17, 16, 8, 20, 25]",7,3,"[5, 9, 15]",72.03781116,18837,676,2,2,9,1.2372268181049477
undo,4,16,0,0,0,9,"[0, 28, 17, 16, 8, 20, 25, 9]",8,2,"[5, 15]",59.23156268,19336,499,2,0,9,1.221922950237529
undo,4,16,0,0,1,15,"[0, 28, 17, 16, 8, 20, 25, 9, 15]",9,0,[],20.334262,20586,1250,1,0,9,1.318239760375411
undo,4,16,0,1,1,15,"[0, 28, 17, 16, 8, 20, 25, 9, 15]",9,0,[],20.334262,23782,3196,1,0,9,1.318239760375411
undo,5,31,0,0,0,0,[0],1,27,"[1, 3, 4, 5, 6, 7, 8, 10, 11, 12, 13, 14, 15, 16, 17, 18, 19, 20, 21, 22, 23, 24, 25, 26, 27, 28, 29]",300,244,-1,2,87,10,0.0
undo,5,31,0,0,0,14,"[0, 14]",2,25,"[1, 3, 5, 6, 7, 8, 10, 11, 12, 13, 15, 16, 17, 18, 19, 20, 21, 22, 23, 24, 25, 26, 27, 28, 29]",263.861378,5052,4808,2,59,10,1.0
undo,5,31,0,0,0,27,"[0, 14, 27]",3,22,"[1, 3, 5, 6, 7, 8, 10, 11, 12, 13, 15, 16, 17, 18, 19, 20, 21, 22, 24, 25, 28, 29]",235.6833724,6316,1264,1,39,10,1.5881859159302467
undo,5,31,0,0,0,8,"[0, 14, 27, 8]",4,20,"[1, 3, 5, 6, 7, 10, 11, 12, 13, 16, 17, 18, 19, 20, 21, 22, 24, 25, 28, 29]",224.6380114,6900,584,1,36,10,2.1665048452331277
undo,5,31,0,0,0,18,"[0, 14, 27, 8, 18]",5,15,"[1, 5, 6, 7, 11, 12, 13, 16, 17, 19, 20, 22, 25, 28, 29]",188.7911147,8041,1141,1,26,10,1.7273375741920205
undo,5,31,0,0,0,17,"[0, 14, 27, 8, 18, 17]",6,13,"[1, 5, 6, 7, 11, 12, 13, 16, 19, 20, 22, 25, 28]",159.584951,11412,3371,1,13,10,1.551192427769927
undo,5,31,0,0,0,25,"[0, 14, 27, 8, 18, 17, 25]",7,7,"[1, 5, 11, 12, 20, 22, 28]",99.14489804,13289,1877,4,5,9,1.3923783527528582
undo,5,31,0,0,0,12,"[0, 14, 27, 8, 18, 17, 25, 12]",8,3,"[1, 20, 22]",68.55078096,13917,628,3,0,9,1.3338517222537312
undo,5,31,0,0,1,22,"[0, 14, 27, 8, 18, 17, 25, 12, 22]",9,0,[],18.06315871,14901,984,1,0,9,1.8717753474146654
undo,5,31,0,1,1,22,"[0, 14, 27, 8, 18, 17, 25, 12, 22]",9,0,[],18.06315871,17647,2746,1,0,9,1.8717753474146654
undo,6,20,0,0,0,0,[0],1,21,"[1, 2, 3, 4, 5, 6, 7, 8, 9, 12, 17, 18, 20, 21, 22, 23, 25, 26, 27, 28, 29]",300,204,-1,1,9,9,0.0
undo,6,20,0,0,0,12,"[0, 12]",2,20,"[1, 2, 3, 4, 5, 6, 7, 8, 9, 17, 18, 20, 21, 22, 23, 25, 26, 27, 28, 29]",271.5570747,3568,3364,1,8,9,1.0
undo,6,20,0,0,0,1,"[0, 12, 1]",3,12,"[3, 4, 5, 6, 8, 9, 20, 21, 23, 27, 28, 29]",189.5692707,5073,1505,1,6,9,1.0757997779162911
undo,6,20,0,0,0,5,"[0, 12, 1, 5]",4,10,"[4, 6, 8, 9, 20, 21, 23, 27, 28, 29]",152.8950291,6219,1146,1,5,9,1.1708231454516806
undo,6,20,0,0,0,21,"[0, 12, 1, 5, 21]",5,8,"[4, 6, 8, 9, 20, 23, 27, 28]",107.8950291,9142,2923,1,4,9,1.126197336199212
undo,6,20,0,0,0,8,"[0, 12, 1, 5, 21, 8]",6,5,"[6, 9, 23, 27, 28]",90.43077988,10105,963,1,3,9,1.140007470699913
undo,6,20,0,0,0,23,"[0, 12, 1, 5, 21, 8, 23]",7,2,"[6, 9]",45.74297394,13253,3148,1,1,9,1.1162257896627588
undo,6,20,0,0,0,9,"[0, 12, 1, 5, 21, 8, 23, 9]",8,1,[6],26.53360123,14335,1082,1,0,9,1.1086880559449597
undo,6,20,0,0,1,6,"[0, 12, 1, 5, 21, 8, 23, 9, 6]",9,0,[],3.511872362,15174,839,1,0,9,1.1186240265999328
undo,6,20,0,1,1,6,"[0, 12, 1, 5, 21, 8, 23, 9, 6]",9,0,[],3.511872362,17997,2823,1,0,9,1.1186240265999328
undo,7,3,0,0,0,0,[0],1,29,"[1, 2, 3, 4, 5, 6, 7, 8, 9, 10, 11, 12, 13, 14, 15, 16, 17, 18, 19, 20, 21, 22, 23, 24, 25, 26, 27, 28, 29]",300,245,-1,34,427,10,0.0
undo,7,3,0,0,0,17,"[0, 17]",2,16,"[3, 4, 7, 8, 10, 12, 14, 15, 16, 19, 20, 21, 22, 24, 26, 27]",197.6965299,4059,3814,2,27,9,1.0
undo,7,3,0,0,0,3,"[0, 17, 3]",3,11,"[4, 7, 8, 10, 14, 15, 16, 19, 20, 21, 24]",165.6965299,6501,2442,3,42,8,1.0735692486686654
undo,7,3,1,0,0,17,"[0, 17]",2,16,"[3, 4, 7, 8, 10, 12, 14, 15, 16, 19, 20, 21, 22, 24, 26, 27]",197.6965299,9148,2647,2,27,9,1.0
undo,7,3,0,0,0,20,"[0, 17, 20]",3,13,"[3, 4, 7, 8, 10, 14, 15, 16, 19, 21, 22, 24, 27]",185.0474192,11852,2704,2,24,9,1.0153332121237257
undo,7,3,0,0,0,3,"[0, 17, 20, 3]",4,10,"[4, 7, 8, 10, 14, 15, 16, 19, 21, 24]",164.6513412,12620,768,2,22,9,1.0819240770773468
undo,7,3,0,0,0,19,"[0, 17, 20, 3, 19]",5,6,"[4, 8, 10, 14, 21, 24]",127.3150318,14070,1450,2,11,9,1.1701070532957258
undo,7,3,0,0,0,21,"[0, 17, 20, 3, 19, 21]",6,5,"[4, 8, 10, 14, 24]",115.1084762,14852,782,2,6,9,1.202395500952127
undo,7,3,0,0,0,14,"[0, 17, 20, 3, 19, 21, 14]",7,4,"[4, 8, 10, 24]",88.20122806,26741,11889,2,2,9,1.6456130302761207
undo,7,3,0,0,1,10,"[0, 17, 20, 3, 19, 21, 14, 10]",8,0,[],42.74795535,30023,3282,1,0,8,1.6337827075255185
undo,7,3,0,1,1,10,"[0, 17, 20, 3, 19, 21, 14, 10]",8,0,[],42.74795535,32098,2075,1,0,8,1.6337827075255185
undo,8,39,0,0,0,0,[0],1,28,"[1, 2, 3, 4, 5, 6, 7, 9, 10, 11, 12, 13, 14, 15, 16, 17, 18, 19, 20, 21, 22, 23, 24, 25, 26, 27, 28, 29]",300,198,-1,1,30,10,0.0
undo,8,39,0,0,0,29,"[0, 29]",2,26,"[1, 2, 3, 4, 5, 6, 7, 9, 10, 12, 13, 14, 15, 16, 17, 18, 19, 20, 21, 22, 23, 24, 25, 26, 27, 28]",243.0614366,12384,12186,8,104,9,1.0
undo,8,39,0,0,0,12,"[0, 29, 12]",3,18,"[1, 2, 4, 5, 7, 9, 10, 13, 14, 15, 16, 18, 19, 22, 23, 24, 26, 28]",182.5221931,14723,2339,5,54,9,1.0026200331524904
undo,8,39,0,0,0,10,"[0, 29, 12, 10]",4,16,"[1, 2, 4, 5, 7, 9, 13, 14, 15, 16, 18, 19, 22, 23, 24, 26]",147.0116313,16109,1386,5,34,9,1.2874817019928908
undo,8,39,0,0,0,7,"[0, 29, 12, 10, 7]",5,10,"[1, 2, 5, 13, 16, 18, 19, 22, 24, 26]",113.5900814,16785,676,4,12,9,1.2250826263866774
undo,8,39,0,0,0,26,"[0, 29, 12, 10, 7, 26]",6,5,"[1, 16, 18, 19, 22]",94.90853971,17379,594,3,4,9,1.2697275353190085
undo,8,39,0,0,0,22,"[0, 29, 12, 10, 7, 26, 22]",7,2,"[16, 19]",77.18849457,18145,766,2,0,9,1.438961743955176
undo,8,39,0,0,0,16,"[0, 29, 12, 10, 7, 26, 22, 16]",8,1,[19],42.18849457,19310,1165,1,0,9,1.3580882130477205
undo,8,39,0,0,1,19,"[0, 29, 12, 10, 7, 26, 22, 16, 19]",9,0,[],24.72424537,24019,4709,1,0,9,1.3646589157842668
undo,8,39,0,1,1,19,"[0, 29, 12, 10, 7, 26, 22, 16, 19]",9,0,[],24.72424537,34665,10646,1,0,9,1.3646589157842668
undo,9,21,0,0,0,0,[0],1,29,"[1, 2, 3, 4, 5, 6, 7, 8, 9, 10, 11, 12, 13, 14, 15, 16, 17, 18, 19, 20, 21, 22, 23, 24, 25, 26, 27, 28, 29]",300,178,-1,84,830,9,0.0
undo,9,21,0,0,0,21,"[0, 21]",2,22,"[1, 3, 4, 6, 8, 9, 10, 11, 12, 14, 15, 16, 17, 18, 20, 22, 23, 24, 25, 26, 27, 29]",210.1111798,31346,31168,1,69,9,1.0
undo,9,21,0,0,0,14,"[0, 21, 14]",3,15,"[1, 4, 6, 8, 9, 15, 16, 17, 18, 20, 22, 23, 24, 25, 29]",184.4986828,32953,1607,35,96,8,1.0083702391721483
undo,9,21,0,0,0,4,"[0, 21, 14, 4]",4,13,"[1, 8, 9, 15, 16, 17, 18, 20, 22, 23, 24, 25, 29]",170.3565472,41123,8170,20,39,8,1.0135821167776475
undo,9,21,0,0,0,16,"[0, 21, 14, 4, 16]",5,7,"[8, 15, 17, 23, 24, 25, 29]",125.758341,45837,4714,4,6,8,1.0675217597413178
undo,9,21,0,0,0,8,"[0, 21, 14, 4, 16, 8]",6,3,"[15, 23, 24]",107.1572657,46972,1135,3,1,8,1.0643903127717425
undo,9,21,0,0,0,15,"[0, 21, 14, 4, 16, 8, 15]",7,2,"[23, 24]",82.15726573,47606,634,2,0,8,1.29402645910376
undo,9,21,0,0,1,23,"[0, 21, 14, 4, 16, 8, 15, 23]",8,0,[],10.28933129,50523,2917,1,0,8,2.9257734162199216
undo,9,21,0,1,1,23,"[0, 21, 14, 4, 16, 8, 15, 23]",8,0,[],10.28933129,52800,2277,1,0,8,2.9257734162199216
undo,10,7,0,0,0,0,[0],1,29,"[1, 2, 3, 4, 5, 6, 7, 8, 9, 10, 11, 12, 13, 14, 15, 16, 17, 18, 19, 20, 21, 22, 23, 24, 25, 26, 27, 28, 29]",300,193,-1,3,79,9,0.0
undo,10,7,0,0,0,25,"[0, 25]",2,20,"[2, 3, 4, 5, 6, 7, 10, 13, 14, 15, 16, 18, 19, 20, 21, 22, 23, 24, 27, 28]",181.5939191,8741,8548,5,33,8,1.0
undo,10,7,0,0,0,4,"[0, 25, 4]",3,11,"[2, 6, 7, 13, 15, 16, 18, 19, 20, 21, 23]",156.8552853,10048,1307,2,14,8,1.0193465608331511
undo,10,7,0,0,0,20,"[0, 25, 4, 20]",4,8,"[2, 6, 7, 13, 15, 16, 18, 19]",137.2084026,11139,1091,1,9,8,1.085904909082323
undo,10,7,0,0,0,18,"[0, 25, 4, 20, 18]",5,7,"[2, 6, 7, 13, 15, 16, 19]",124.4021541,11931,792,1,5,8,1.2264883846453758
undo,10,7,0,0,0,7,"[0, 25, 4, 20, 18, 7]",6,2,"[2, 19]",83.17109789,13259,1328,1,1,8,1.185264473968278
undo,10,7,0,0,0,19,"[0, 25, 4, 20, 18, 7, 19]",7,1,[2],53.76021555,14070,811,1,0,8,1.3016904288278204
undo,10,7,0,0,1,2,"[0, 25, 4, 20, 18, 7, 19, 2]",8,0,[],23.61058868,15115,1045,1,0,8,1.3168868000947171
undo,10,7,0,1,1,2,"[0, 25, 4, 20, 18, 7, 19, 2]",8,0,[],23.61058868,16494,1379,1,0,8,1.3168868000947171
undo,11,19,0,0,0,0,[0],1,29,"[1, 2, 3, 4, 5, 6, 7, 8, 9, 10, 11, 12, 13, 14, 15, 16, 17, 18, 19, 20, 21, 22, 23, 24, 25, 26, 27, 28, 29]",300,189,-1,12,149,8,0.0
undo,11,19,0,0,0,9,"[0, 9]",2,21,"[1, 4, 5, 6, 7, 10, 11, 12, 13, 14, 15, 19, 20, 21, 22, 23, 24, 25, 27, 28, 29]",185.9956141,16970,16781,13,76,7,1.0
undo,11,19,0,0,0,6,"[0, 9, 6]",3,13,"[4, 7, 10, 11, 13, 14, 20, 21, 22, 24, 27, 28, 29]",144.5589154,18293,1323,13,38,7,1.0111071984935167
undo,11,19,0,0,0,28,"[0, 9, 6, 28]",4,5,"[4, 11, 14, 22, 27]",93.47075631,20236,1943,2,4,7,1.2602621425624105
undo,11,19,0,0,0,4,"[0, 9, 6, 28, 4]",5,4,"[11, 14, 22, 27]",82.29041642,21020,784,2,2,7,1.3210056324457753
undo,11,19,0,0,0,14,"[0, 9, 6, 28, 4, 14]",6,1,[11],32.28041742,22452,1432,1,0,7,1.2802078016419174
undo,11,19,0,0,1,11,"[0, 9, 6, 28, 4, 14, 11]",7,0,[],21.4637636,23172,720,1,0,7,1.2703725192277202
undo,11,19,0,1,1,11,"[0, 9, 6, 28, 4, 14, 11]",7,0,[],21.4637636,26615,3443,1,0,7,1.2703725192277202
undo,12,37,0,0,0,0,[0],1,29,"[1, 2, 3, 4, 5, 6, 7, 8, 9, 10, 11, 12, 13, 14, 15, 16, 17, 18, 19, 20, 21, 22, 23, 24, 25, 26, 27, 28, 29]",300,218,-1,6,168,10,0.0
undo,12,37,0,0,0,22,"[0, 22]",2,10,"[1, 2, 4, 7, 15, 18, 19, 20, 21, 26]",137.1442356,18153,17935,15,58,8,1.0
undo,12,37,0,0,0,2,"[0, 22, 2]",3,9,"[1, 4, 7, 15, 18, 19, 20, 21, 26]",109.4856022,19402,1249,7,26,8,1.2602485095868692
undo,12,37,0,0,0,4,"[0, 22, 2, 4]",4,8,"[1, 7, 15, 18, 19, 20, 21, 26]",98.08384797,21627,2225,7,11,8,1.2423080891210097
undo,12,37,0,0,0,1,"[0, 22, 2, 4, 1]",5,7,"[7, 15, 18, 19, 20, 21, 26]",80.36380283,22742,1115,7,4,8,1.387298961446323
undo,12,37,0,0,0,15,"[0, 22, 2, 4, 1, 15]",6,3,"[20, 21, 26]",40.40132042,26889,4147,2,1,8,1.5601152641316165
undo,12,37,0,0,0,21,"[0, 22, 2, 4, 1, 15, 21]",7,1,[20],25.40132042,28213,1324,1,0,8,1.769396318238991
undo,12,37,0,0,1,20,"[0, 22, 2, 4, 1, 15, 21, 20]",8,0,[],10.97911532,30548,2335,1,0,8,1.9281346262178003
undo,12,37,0,1,1,20,"[0, 22, 2, 4, 1, 15, 21, 20]",8,0,[],10.97911532,34482,3934,1,0,8,1.9281346262178003
undo,13,45,0,0,0,0,[0],1,24,"[1, 2, 3, 4, 5, 6, 7, 9, 10, 11, 12, 14, 15, 16, 17, 19, 20, 21, 22, 23, 24, 25, 27, 29]",300,195,-1,6,248,10,0.0
undo,13,45,0,0,0,17,"[0, 17]",2,22,"[1, 2, 3, 4, 5, 6, 7, 9, 10, 11, 12, 14, 15, 16, 19, 20, 21, 22, 23, 24, 25, 29]",235.867325,5770,5575,1,34,10,1.0
undo,13,45,0,0,0,24,"[0, 17, 24]",3,20,"[1, 2, 3, 4, 5, 6, 7, 9, 10, 11, 12, 14, 15, 16, 19, 20, 21, 22, 23, 29]",193.8078433,6874,1104,1,33,10,1.0309432256229287
undo,13,45,0,0,0,7,"[0, 17, 24, 7]",4,18,"[1, 2, 3, 4, 5, 6, 9, 10, 12, 14, 15, 16, 19, 20, 21, 22, 23, 29]",159.3985423,8368,1494,1,32,10,1.059763151913087
undo,13,45,0,0,0,2,"[0, 17, 24, 7, 2]",5,12,"[3, 4, 6, 10, 12, 14, 16, 19, 20, 22, 23, 29]",121.3853866,9674,1306,1,23,10,1.0656581932115423
undo,13,45,0,0,0,3,"[0, 17, 24, 7, 2, 3]",6,8,"[6, 10, 12, 14, 16, 20, 22, 29]",96.06740884,11818,2144,1,13,10,1.1368250049574795
undo,13,45,0,0,0,29,"[0, 17, 24, 7, 2, 3, 29]",7,5,"[6, 10, 12, 20, 22]",76.06740884,12575,757,1,5,10,1.390376182346372
undo,13,45,0,0,0,10,"[0, 17, 24, 7, 2, 3, 29, 10]",8,2,"[6, 12]",54.52674961,13534,959,1,1,10,1.6682270697663164
undo,13,45,0,0,0,6,"[0, 17, 24, 7, 2, 3, 29, 10, 6]",9,1,[12],28.27794012,14402,868,1,0,10,1.5776211572942243
undo,13,45,0,0,1,12,"[0, 17, 24, 7, 2, 3, 29, 10, 6, 12]",10,0,[],8.15332832,14958,556,1,0,10,1.536035114105263
undo,13,45,0,1,1,12,"[0, 17, 24, 7, 2, 3, 29, 10, 6, 12]",10,0,[],8.15332832,16763,1805,1,0,10,1.536035114105263
undo,14,44,0,0,0,0,[0],1,29,"[1, 2, 3, 4, 5, 6, 7, 8, 9, 10, 11, 12, 13, 14, 15, 16, 17, 18, 19, 20, 21, 22, 23, 24, 25, 26, 27, 28, 29]",300,238,-1,13,126,7,0.0
undo,14,44,0,0,0,11,"[0, 11]",2,18,"[4, 5, 6, 7, 8, 9, 12, 14, 16, 17, 19, 20, 22, 23, 24, 25, 26, 28]",152.7790776,15655,15417,5,34,7,1.0
undo,14,44,0,0,0,24,"[0, 11, 24]",3,13,"[4, 5, 7, 8, 9, 12, 14, 17, 20, 22, 23, 25, 28]",125.8532535,16885,1230,5,23,7,1.1588941745226709
undo,14,44,0,0,0,9,"[0, 11, 24, 9]",4,7,"[4, 7, 8, 12, 14, 20, 23]",93.09657483,17454,569,2,8,7,1.3039383713641313
undo,14,44,0,0,0,4,"[0, 11, 24, 9, 4]",5,5,"[7, 12, 14, 20, 23]",73.39885923,18706,1252,2,3,7,1.2901330701441578
undo,14,44,0,0,0,7,"[0, 11, 24, 9, 4, 7]",6,1,[23],42.38273439,20162,1456,1,0,7,1.2468141312360979
undo,14,44,0,0,1,23,"[0, 11, 24, 9, 4, 7, 23]",7,0,[],23.27776121,22053,1891,1,0,7,1.2635191782769477
undo,14,44,0,1,1,23,"[0, 11, 24, 9, 4, 7, 23]",7,0,[],23.27776121,23181,1128,1,0,7,1.2635191782769477
undo,15,28,0,0,0,0,[0],1,27,"[1, 2, 3, 4, 5, 6, 7, 8, 9, 10, 11, 12, 13, 14, 15, 16, 17, 18, 19, 20, 22, 23, 25, 26, 27, 28, 29]",300,199,-1,2,96,9,0.0
undo,15,28,0,0,0,5,"[0, 5]",2,21,"[2, 3, 4, 6, 7, 8, 9, 10, 11, 12, 13, 14, 15, 18, 19, 20, 23, 25, 26, 28, 29]",169.6427984,13777,13578,4,42,8,1.0
undo,15,28,1,0,0,0,[0],1,27,"[1, 2, 3, 4, 5, 6, 7, 8, 9, 10, 11, 12, 13, 14, 15, 16, 17, 18, 19, 20, 22, 23, 25, 26, 27, 28, 29]",300,17832,4055,2,96,9,0.0
undo,15,28,0,0,0,3,"[0, 3]",2,26,"[1, 2, 4, 5, 6, 7, 8, 9, 10, 11, 12, 13, 14, 15, 16, 17, 18, 19, 20, 22, 23, 25, 26, 27, 28, 29]",251.0817008,20171,2339,1,64,9,1.0
undo,15,28,0,0,0,5,"[0, 3, 5]",3,20,"[2, 4, 6, 7, 8, 9, 10, 11, 12, 13, 14, 15, 18, 19, 20, 23, 25, 26, 28, 29]",166.9865166,21971,1800,1,34,9,1.0203769473612083
undo,15,28,0,0,0,28,"[0, 3, 5, 28]",4,6,"[2, 4, 8, 9, 19, 26]",100.0761288,26338,4367,8,4,7,1.0823311089558794
undo,15,28,0,0,0,8,"[0, 3, 5, 28, 8]",5,4,"[2, 4, 9, 26]",82.27163495,26912,574,4,2,7,1.0795975941035891
undo,15,28,0,0,0,9,"[0, 3, 5, 28, 8, 9]",6,3,"[2, 4, 26]",67.138889,27821,909,3,0,7,1.131674521612193
undo,15,28,0,0,1,2,"[0, 3, 5, 28, 8, 9, 2]",7,0,[],12.32100871,30637,2816,1,0,7,1.433653817726972
undo,15,28,0,1,1,2,"[0, 3, 5, 28, 8, 9, 2]",7,0,[],12.32100871,31349,712,1,0,7,1.433653817726972
undo,16,34,0,0,0,0,[0],1,25,"[1, 3, 4, 5, 6, 7, 8, 9, 10, 11, 12, 13, 15, 18, 19, 20, 21, 22, 23, 24, 25, 26, 27, 28, 29]",300,194,-1,12,367,10,0.0
undo,16,34,0,0,0,13,"[0, 13]",2,24,"[1, 3, 4, 5, 6, 7, 8, 9, 10, 11, 12, 15, 18, 19, 20, 21, 22, 23, 24, 25, 26, 27, 28, 29]",279.9750156,3693,3499,12,331,10,1.0
undo,16,34,0,0,0,1,"[0, 13, 1]",3,16,"[3, 5, 7, 8, 9, 10, 11, 12, 19, 21, 22, 23, 24, 25, 27, 29]",211.8574701,5102,1409,3,92,10,1.0010381285747127
undo,16,34,0,0,0,8,"[0, 13, 1, 8]",4,14,"[3, 5, 7, 9, 10, 11, 12, 19, 22, 23, 24, 25, 27, 29]",201.0871405,6802,1700,2,54,10,1.1636807
undo,16,34,0,0,0,25,"[0, 13, 1, 8, 25]",5,12,"[3, 5, 7, 9, 10, 11, 12, 22, 23, 24, 27, 29]",183.999133,7634,832,2,28,10,1.1396208815936457
undo,16,34,0,0,0,24,"[0, 13, 1, 8, 25, 24]",6,11,"[3, 5, 7, 9, 10, 11, 12, 22, 23, 27, 29]",166.5062774,8766,1132,2,23,10,1.374180768736554
undo,16,34,0,0,0,12,"[0, 13, 1, 8, 25, 24, 12]",7,7,"[7, 9, 10, 11, 22, 23, 27]",115.4670767,9634,868,1,8,10,1.4994254760835948
undo,16,34,0,0,0,7,"[0, 13, 1, 8, 25, 24, 12, 7]",8,5,"[9, 11, 22, 23, 27]",100.4337804,10509,875,1,4,10,1.758992610425009
undo,16,34,0,0,0,23,"[0, 13, 1, 8, 25, 24, 12, 7, 23]",9,1,[27],72.27352467,11201,692,1,0,10,2.399781305190153
undo,16,34,0,0,1,27,"[0, 13, 1, 8, 25, 24, 12, 7, 23, 27]",10,0,[],18.60789321,12457,1256,1,0,10,4.766619878750327
undo,16,34,0,1,1,27,"[0, 13, 1, 8, 25, 24, 12, 7, 23, 27]",10,0,[],18.60789321,14229,1772,1,0,10,4.766619878750327
undo,17,2,0,0,0,0,[0],1,23,"[1, 2, 4, 5, 6, 7, 8, 9, 12, 13, 15, 16, 17, 18, 19, 20, 22, 23, 25, 26, 27, 28, 29]",300,245,-1,70,620,10,0.0
undo,17,2,0,0,0,19,"[0, 19]",2,22,"[1, 2, 4, 5, 6, 7, 8, 9, 12, 13, 15, 16, 17, 18, 20, 22, 23, 25, 26, 27, 28, 29]",210.306076,3941,3696,67,431,10,1.0
undo,17,2,0,0,0,12,"[0, 19, 12]",3,17,"[1, 4, 5, 6, 7, 13, 15, 16, 17, 18, 20, 22, 25, 26, 27, 28, 29]",174.2921898,5760,1819,66,298,10,1.1107635036313153
undo,17,2,0,0,0,5,"[0, 19, 12, 5]",4,11,"[1, 6, 7, 13, 15, 16, 18, 22, 25, 26, 29]",144.7625437,7050,1290,38,136,10,1.0968174771581647
undo,17,2,0,0,0,22,"[0, 19, 12, 5, 22]",5,8,"[1, 6, 7, 13, 15, 18, 26, 29]",131.9562952,8673,1623,20,63,10,1.0889910507461968
undo,17,2,0,0,0,13,"[0, 19, 12, 5, 22, 13]",6,7,"[1, 6, 7, 15, 18, 26, 29]",117.0902265,10484,1811,19,20,10,1.236526217328057
undo,17,2,0,0,0,18,"[0, 19, 12, 5, 22, 13, 18]",7,4,"[7, 15, 26, 29]",81.91921567,11908,1424,10,3,10,1.2128708213409936
undo,17,2,0,0,0,7,"[0, 19, 12, 5, 22, 13, 18, 7]",8,3,"[15, 26, 29]",71.62358553,13090,1182,5,0,10,1.2019811287894737
undo,17,2,0,0,0,15,"[0, 19, 12, 5, 22, 13, 18, 7, 15]",9,2,"[26, 29]",56.85876247,14068,978,2,0,10,1.2907869828541363
undo,17,2,0,0,1,29,"[0, 19, 12, 5, 22, 13, 18, 7, 15, 29]",10,0,[],28.39826353,18008,3940,1,0,10,1.4795089334237532
undo,17,2,0,1,1,29,"[0, 19, 12, 5, 22, 13, 18, 7, 15, 29]",10,0,[],28.39826353,19830,1822,1,0,10,1.4795089334237532
undo,18,42,0,0,0,0,[0],1,29,"[1, 2, 3, 4, 5, 6, 7, 8, 9, 10, 11, 12, 13, 14, 15, 16, 17, 18, 19, 20, 21, 22, 23, 24, 25, 26, 27, 28, 29]",300,199,-1,16,302,9,0.0
undo,18,42,0,0,0,5,"[0, 5]",2,28,"[1, 2, 3, 4, 6, 7, 8, 9, 10, 11, 12, 13, 14, 15, 16, 17, 18, 19, 20, 21, 22, 23, 24, 25, 26, 27, 28, 29]",191.2939744,6958,6759,1,22,9,1.0
undo,18,42,0,0,0,4,"[0, 5, 4]",3,23,"[1, 2, 3, 6, 7, 8, 9, 10, 11, 13, 15, 17, 18, 19, 20, 21, 22, 23, 24, 25, 26, 27, 29]",171.4445412,9517,2559,1,14,9,1.420957801478707
undo,18,42,0,0,0,22,"[0, 5, 4, 22]",4,20,"[1, 2, 3, 6, 7, 8, 9, 11, 15, 17, 18, 19, 20, 21, 23, 24, 25, 26, 27, 29]",160.2642013,10205,688,1,11,9,1.5771494659680896
undo,18,42,0,0,0,8,"[0, 5, 4, 22, 8]",5,14,"[1, 2, 3, 6, 7, 11, 15, 18, 19, 24, 25, 26, 27, 29]",138.1282577,11469,1264,1,10,9,1.5055393955524201
undo,18,42,0,0,0,1,"[0, 5, 4, 22, 8, 1]",6,5,"[2, 7, 19, 26, 27]",89.03650682,13402,1933,1,7,9,1.3547259083637835
undo,18,42,0,0,0,7,"[0, 5, 4, 22, 8, 1, 7]",7,4,"[2, 19, 26, 27]",59.03650682,14295,893,1,3,9,1.3909715672447451
undo,18,42,0,0,0,26,"[0, 5, 4, 22, 8, 1, 7, 26]",8,1,[27],32.46584631,15090,795,1,0,9,1.3511825943939393
undo,18,42,0,0,1,27,"[0, 5, 4, 22, 8, 1, 7, 26, 27]",9,0,[],14.43808994,16144,1054,1,0,9,1.3391911688802078
undo,18,42,0,1,1,27,"[0, 5, 4, 22, 8, 1, 7, 26, 27]",9,0,[],14.43808994,17065,921,1,0,9,1.3391911688802078
undo,19,43,0,0,0,0,[0],1,23,"[1, 2, 3, 4, 5, 6, 7, 9, 10, 11, 12, 14, 15, 16, 17, 19, 20, 21, 22, 23, 25, 27, 29]",300,188,-1,16,556,12,0.0
undo,19,43,0,0,0,29,"[0, 29]",2,22,"[1, 2, 3, 4, 5, 6, 7, 9, 10, 11, 12, 14, 15, 16, 17, 19, 20, 21, 22, 23, 25, 27]",277.909278,3959,3771,16,520,12,1.0
undo,19,43,0,0,0,20,"[0, 29, 20]",3,20,"[1, 2, 3, 4, 6, 7, 9, 10, 11, 12, 14, 15, 16, 17, 19, 21, 22, 23, 25, 27]",254.4785289,5962,2003,15,422,12,1.082311746871282
undo,19,43,0,0,0,16,"[0, 29, 20, 16]",4,19,"[1, 2, 3, 4, 6, 7, 9, 10, 11, 12, 14, 15, 17, 19, 21, 22, 23, 25, 27]",231.8511119,8184,2222,15,389,12,1.215201926898219
undo,19,43,0,0,0,15,"[0, 29, 20, 16, 15]",5,14,"[1, 2, 3, 4, 6, 7, 9, 11, 12, 14, 19, 22, 23, 25]",188.5267539,9906,1722,3,109,12,1.3482474915350444
undo,19,43,0,0,0,25,"[0, 29, 20, 16, 15, 25]",6,12,"[1, 3, 4, 6, 7, 9, 11, 12, 14, 19, 22, 23]",165.8551858,11156,1250,2,43,12,1.691408721191545
undo,19,43,0,0,0,3,"[0, 29, 20, 16, 15, 25, 3]",7,11,"[1, 4, 6, 7, 9, 11, 12, 14, 19, 22, 23]",128.977008,12851,1695,11,36,11,1.5352128938825638
undo,19,43,1,0,0,25,"[0, 29, 20, 16, 15, 25]",6,12,"[1, 3, 4, 6, 7, 9, 11, 12, 14, 19, 22, 23]",165.8551858,14981,2130,2,43,12,1.691408721191545
undo,19,43,0,0,0,12,"[0, 29, 20, 16, 15, 25, 12]",7,11,"[1, 3, 4, 6, 7, 9, 11, 14, 19, 22, 23]",141.6684126,17909,2928,2,32,12,1.6015983641428178
undo,19,43,0,0,0,3,"[0, 29, 20, 16, 15, 25, 12, 3]",8,10,"[1, 4, 6, 7, 9, 11, 14, 19, 22, 23]",128.6684126,18619,710,2,24,12,1.5379830456120627
undo,19,43,0,0,0,22,"[0, 29, 20, 16, 15, 25, 12, 3, 22]",9,6,"[1, 6, 7, 11, 14, 19]",93.95530264,22429,3810,1,11,12,1.7275686117408873
undo,19,43,0,0,0,19,"[0, 29, 20, 16, 15, 25, 12, 3, 22, 19]",10,4,"[1, 6, 7, 11]",73.33977451,23380,951,1,3,12,1.6315360037595275
undo,19,43,0,0,0,1,"[0, 29, 20, 16, 15, 25, 12, 3, 22, 19, 1]",11,1,[7],45.1617689,26305,2925,1,0,12,1.7703076545303877
undo,19,43,0,0,1,7,"[0, 29, 20, 16, 15, 25, 12, 3, 22, 19, 1, 7]",12,0,[],6.951822553,30337,4032,1,0,12,1.6607094905815594
undo,19,43,0,1,1,7,"[0, 29, 20, 16, 15, 25, 12, 3, 22, 19, 1, 7]",12,0,[],6.951822553,32131,1794,1,0,12,1.6607094905815594
undo,20,5,0,0,0,0,[0],1,29,"[1, 2, 3, 4, 5, 6, 7, 8, 9, 10, 11, 12, 13, 14, 15, 16, 17, 18, 19, 20, 21, 22, 23, 24, 25, 26, 27, 28, 29]",300,195,-1,5,139,9,0.0
undo,20,5,0,0,0,12,"[0, 12]",2,22,"[2, 4, 5, 6, 8, 9, 10, 13, 14, 15, 16, 17, 18, 19, 21, 22, 23, 24, 25, 26, 27, 28]",228.3062067,13896,13701,1,27,9,1.0
undo,20,5,0,0,0,25,"[0, 12, 25]",3,21,"[2, 4, 5, 6, 8, 9, 10, 13, 14, 15, 16, 17, 18, 19, 21, 22, 23, 24, 26, 27, 28]",200.5213187,15063,1167,1,20,9,1.584023303445617
undo,20,5,0,0,0,23,"[0, 12, 25, 23]",4,19,"[2, 4, 5, 6, 8, 9, 10, 13, 14, 15, 16, 17, 18, 19, 21, 22, 24, 26, 27]",182.0822298,16103,1040,1,14,9,2.3508446989254357
undo,20,5,0,0,0,24,"[0, 12, 25, 23, 24]",5,15,"[2, 4, 5, 6, 8, 9, 13, 14, 15, 17, 18, 19, 22, 26, 27]",158.995437,17108,1005,1,12,9,1.9469752046288753
undo,20,5,0,0,0,17,"[0, 12, 25, 23, 24, 17]",6,7,"[4, 5, 6, 8, 15, 18, 19]",124.0097257,18211,1103,1,8,9,1.6482276497563642
undo,20,5,0,0,0,5,"[0, 12, 25, 23, 24, 17, 5]",7,4,"[4, 6, 15, 18]",80.96323916,19485,1274,1,3,9,1.4654649104389412
undo,20,5,0,0,0,4,"[0, 12, 25, 23, 24, 17, 5, 4]",8,1,[6],15.16050365,23222,3737,1,0,9,1.6255060355828674
undo,20,5,0,0,1,6,"[0, 12, 25, 23, 24, 17, 5, 4, 6]",9,0,[],3.118909076,24642,1420,1,0,9,1.7777310833772453
undo,20,5,0,1,1,6,"[0, 12, 25, 23, 24, 17, 5, 4, 6]",9,0,[],3.118909076,26131,1489,1,0,9,1.7777310833772453
undo,21,15,0,0,0,0,[0],1,25,"[1, 2, 3, 4, 7, 8, 9, 10, 11, 12, 13, 14, 15, 16, 18, 20, 21, 22, 23, 24, 25, 26, 27, 28, 29]",300,195,-1,4,65,9,0.0
undo,21,15,0,0,0,7,"[0, 7]",2,23,"[1, 3, 4, 8, 9, 10, 11, 12, 13, 14, 15, 16, 18, 20, 21, 22, 23, 24, 25, 26, 27, 28, 29]",215.1884442,6450,6255,30,107,8,1.0
undo,21,15,0,0,0,11,"[0, 7, 11]",3,18,"[3, 4, 8, 9, 10, 12, 13, 14, 15, 16, 18, 20, 21, 22, 23, 25, 27, 29]",173.7035072,8101,1651,12,34,8,1.0171318876095128
undo,21,15,0,0,0,3,"[0, 7, 11, 3]",4,13,"[4, 10, 12, 13, 14, 15, 16, 18, 20, 21, 22, 25, 27]",162.3017529,8804,703,7,21,8,1.0401878806820521
undo,21,15,0,0,0,16,"[0, 7, 11, 3, 16]",5,9,"[4, 10, 12, 13, 14, 15, 18, 21, 22]",137.2218805,9630,826,5,6,8,1.4258499651326737
undo,21,15,0,0,0,22,"[0, 7, 11, 3, 16, 22]",6,4,"[4, 13, 14, 15]",78.36612462,11105,1475,2,2,8,1.284645195326425
undo,21,15,0,0,0,13,"[0, 7, 11, 3, 16, 22, 13]",7,1,[15],50.20586894,11934,829,1,0,8,1.2468528041787974
undo,21,15,0,0,1,15,"[0, 7, 11, 3, 16, 22, 13, 15]",8,0,[],34.94153142,12442,508,1,0,8,1.349724143762162
undo,21,15,0,1,1,15,"[0, 7, 11, 3, 16, 22, 13, 15]",8,0,[],34.94153142,15330,2888,1,0,8,1.349724143762162
undo,22,23,0,0,0,0,[0],1,28,"[1, 2, 3, 4, 5, 6, 7, 8, 9, 10, 11, 12, 13, 14, 15, 16, 17, 18, 19, 20, 21, 22, 23, 25, 26, 27, 28, 29]",300,198,-1,76,2626,10,0.0
undo,22,23,0,0,0,13,"[0, 13]",2,19,"[1, 2, 3, 5, 6, 7, 8, 9, 10, 12, 14, 17, 18, 19, 21, 22, 23, 27, 29]",189.3202819,9057,8859,9,168,10,1.0
undo,22,23,0,0,0,12,"[0, 13, 12]",3,16,"[1, 2, 3, 6, 7, 8, 9, 10, 14, 17, 18, 21, 22, 23, 27, 29]",177.2372359,9821,764,9,96,10,1.0014195490503164
undo,22,23,0,0,0,2,"[0, 13, 12, 2]",4,12,"[1, 3, 6, 7, 9, 10, 14, 18, 21, 22, 27, 29]",163.3447919,11568,1747,4,30,10,1.0014394317924602
undo,22,23,0,0,0,6,"[0, 13, 12, 2, 6]",5,8,"[7, 9, 10, 14, 18, 22, 27, 29]",144.905703,12420,852,2,11,10,1.0322887343644427
undo,22,23,0,0,0,9,"[0, 13, 12, 2, 6, 9]",6,7,"[7, 10, 14, 18, 22, 27, 29]",113.76088,13843,1423,1,4,10,1.4254988513229307
undo,22,23,0,0,0,14,"[0, 13, 12, 2, 6, 9, 14]",7,5,"[7, 10, 22, 27, 29]",103.3205735,14670,827,1,3,10,1.3959783331838773
undo,22,23,0,0,0,29,"[0, 13, 12, 2, 6, 9, 14, 29]",8,2,"[7, 10]",55.8864086,15873,1203,1,1,10,1.5830186628364178
undo,22,23,0,0,0,7,"[0, 13, 12, 2, 6, 9, 14, 29, 7]",9,1,[10],31.80321944,16942,1069,1,0,10,1.5946024925098619
undo,22,23,0,0,1,10,"[0, 13, 12, 2, 6, 9, 14, 29, 7, 10]",10,0,[],4.344159007,18054,1112,1,0,10,1.5468978194319851
undo,22,23,0,1,1,10,"[0, 13, 12, 2, 6, 9, 14, 29, 7, 10]",10,0,[],4.344159007,19599,1545,1,0,10,1.5468978194319851
basic,23,10,0,0,0,0,[0],1,29,"[1, 2, 3, 4, 5, 6, 7, 8, 9, 10, 11, 12, 13, 14, 15, 16, 17, 18, 19, 20, 21, 22, 23, 24, 25, 26, 27, 28, 29]",300,205,-1,1,100,9,0.0
basic,23,10,0,0,0,13,"[0, 13]",2,25,"[1, 2, 3, 4, 6, 7, 8, 9, 10, 11, 12, 14, 17, 18, 19, 20, 21, 22, 23, 24, 25, 26, 27, 28, 29]",249.4628849,8189,7984,1,79,9,1.0
basic,23,10,0,0,0,11,"[0, 13, 11]",3,20,"[1, 2, 3, 6, 7, 8, 9, 10, 12, 14, 18, 19, 20, 21, 22, 24, 26, 27, 28, 29]",206.4512586,9123,934,1,54,9,1.0313137484914219
basic,23,10,0,0,0,19,"[0, 13, 11, 19]",4,11,"[2, 6, 8, 9, 10, 14, 18, 20, 24, 26, 27]",170.0919407,9828,705,1,22,9,1.0879446220132545
basic,23,10,0,0,0,2,"[0, 13, 11, 19, 2]",5,4,"[14, 20, 26, 27]",126.1829439,10766,938,1,4,9,1.06474052351343
basic,23,10,0,0,0,14,"[0, 13, 11, 19, 2, 14]",6,3,"[20, 26, 27]",114.0174188,12440,1674,1,3,9,1.1628909195912238
basic,23,10,0,0,0,26,"[0, 13, 11, 19, 2, 14, 26]",7,2,"[20, 27]",79.34754716,13395,955,1,1,9,1.6660727647633602
basic,23,10,0,0,0,20,"[0, 13, 11, 19, 2, 14, 26, 20]",8,1,[27],47.56704999,14539,1144,1,0,9,2.085581809637999
basic,23,10,0,0,1,27,"[0, 13, 11, 19, 2, 14, 26, 20, 27]",9,0,[],2.312215998,16373,1834,1,0,9,1.9116357409137932
basic,23,10,0,1,1,27,"[0, 13, 11, 19, 2, 14, 26, 20, 27]",9,0,[],2.312215998,19385,3012,1,0,9,1.9116357409137932
basic,24,42,0,0,0,0,[0],1,29,"[1, 2, 3, 4, 5, 6, 7, 8, 9, 10, 11, 12, 13, 14, 15, 16, 17, 18, 19, 20, 21, 22, 23, 24, 25, 26, 27, 28, 29]",300,199,-1,16,302,9,0.0
basic,24,42,0,0,0,5,"[0, 5]",2,28,"[1, 2, 3, 4, 6, 7, 8, 9, 10, 11, 12, 13, 14, 15, 16, 17, 18, 19, 20, 21, 22, 23, 24, 25, 26, 27, 28, 29]",191.2939744,6002,5803,1,22,9,1.0
basic,24,42,0,0,0,4,"[0, 5, 4]",3,23,"[1, 2, 3, 6, 7, 8, 9, 10, 11, 13, 15, 17, 18, 19, 20, 21, 22, 23, 24, 25, 26, 27, 29]",171.4445412,6926,924,1,14,9,1.420957801478707
basic,24,42,0,0,0,22,"[0, 5, 4, 22]",4,20,"[1, 2, 3, 6, 7, 8, 9, 11, 15, 17, 18, 19, 20, 21, 23, 24, 25, 26, 27, 29]",160.2642013,7852,926,1,11,9,1.5771494659680896
basic,24,42,0,0,0,8,"[0, 5, 4, 22, 8]",5,14,"[1, 2, 3, 6, 7, 11, 15, 18, 19, 24, 25, 26, 27, 29]",138.1282577,8634,782,1,10,9,1.5055393955524201
basic,24,42,0,0,0,1,"[0, 5, 4, 22, 8, 1]",6,5,"[2, 7, 19, 26, 27]",89.03650682,9837,1203,1,7,9,1.3547259083637835
basic,24,42,0,0,0,7,"[0, 5, 4, 22, 8, 1, 7]",7,4,"[2, 19, 26, 27]",59.03650682,10619,782,1,3,9,1.3909715672447451
basic,24,42,0,0,0,26,"[0, 5, 4, 22, 8, 1, 7, 26]",8,1,[27],32.46584631,11638,1019,1,0,9,1.3511825943939393
basic,24,42,0,0,1,27,"[0, 5, 4, 22, 8, 1, 7, 26, 27]",9,0,[],14.43808994,12552,914,1,0,9,1.3391911688802078
basic,24,42,0,1,1,27,"[0, 5, 4, 22, 8, 1, 7, 26, 27]",9,0,[],14.43808994,13397,845,1,0,9,1.3391911688802078
basic,25,27,0,0,0,0,[0],1,26,"[1, 3, 5, 6, 7, 8, 9, 10, 11, 12, 13, 14, 15, 16, 17, 18, 19, 21, 22, 23, 24, 25, 26, 27, 28, 29]",300,180,-1,13,578,11,0.0
basic,25,27,0,0,0,15,"[0, 15]",2,24,"[1, 3, 5, 6, 7, 8, 9, 10, 11, 12, 13, 14, 16, 17, 18, 19, 21, 22, 23, 24, 25, 26, 27, 29]",263.7508621,3119,2939,6,219,11,1.0
basic,25,27,0,0,0,24,"[0, 15, 24]",3,20,"[1, 5, 6, 7, 8, 9, 10, 12, 13, 14, 16, 17, 18, 19, 21, 23, 25, 26, 27, 29]",246.5462115,4293,1174,6,130,11,1.130933077698322
basic,25,27,0,0,0,17,"[0, 15, 24, 17]",4,15,"[1, 6, 8, 10, 12, 13, 14, 16, 18, 19, 23, 25, 26, 27, 29]",229.9932662,5919,1626,4,60,11,1.1285538435963374
basic,25,27,0,0,0,12,"[0, 15, 24, 17, 12]",5,14,"[1, 6, 8, 10, 13, 14, 16, 18, 19, 23, 25, 26, 27, 29]",218.8129263,6687,768,2,32,11,1.2561880288755216
basic,25,27,0,0,0,10,"[0, 15, 24, 17, 12, 10]",6,11,"[1, 8, 13, 14, 18, 19, 23, 25, 26, 27, 29]",207.7675653,8535,1848,2,28,11,1.2228289337766665
basic,25,27,0,0,0,13,"[0, 15, 24, 17, 12, 10, 13]",7,9,"[1, 8, 14, 18, 19, 23, 26, 27, 29]",167.9178476,11320,2785,2,18,11,1.3421291994761178
basic,25,27,0,0,0,19,"[0, 15, 24, 17, 12, 10, 13, 19]",8,5,"[1, 8, 14, 23, 29]",131.6825057,12504,1184,2,6,11,1.294749956153846
basic,25,27,0,0,0,29,"[0, 15, 24, 17, 12, 10, 13, 19, 29]",9,2,"[8, 14]",66.38319486,13953,1449,2,0,10,1.2031877602054644
basic,25,27,0,0,1,14,"[0, 15, 24, 17, 12, 10, 13, 19, 29, 14]",10,0,[],22.08872568,15229,1276,1,0,10,1.5150034831845784
basic,25,27,0,1,1,14,"[0, 15, 24, 17, 12, 10, 13, 19, 29, 14]",10,0,[],22.08872568,18399,3170,1,0,10,1.5150034831845784
basic,26,32,0,0,0,0,[0],1,29,"[1, 2, 3, 4, 5, 6, 7, 8, 9, 10, 11, 12, 13, 14, 15, 16, 17, 18, 19, 20, 21, 22, 23, 24, 25, 26, 27, 28, 29]",300,195,-1,17,359,10,0.0
basic,26,32,0,0,0,19,"[0, 19]",2,28,"[1, 2, 3, 4, 5, 6, 7, 8, 9, 10, 11, 12, 13, 14, 15, 16, 17, 18, 20, 21, 22, 23, 24, 25, 26, 27, 28, 29]",283.5075775,5821,5626,16,294,10,1.0
basic,26,32,0,0,0,13,"[0, 19, 13]",3,24,"[2, 3, 4, 5, 6, 8, 9, 10, 11, 12, 14, 15, 16, 17, 18, 20, 21, 22, 23, 24, 25, 26, 27, 28]",260.3127505,7084,1263,14,227,10,1.0172874229878615
basic,26,32,0,0,0,15,"[0, 19, 13, 15]",4,18,"[2, 3, 5, 8, 9, 10, 11, 12, 16, 17, 20, 22, 23, 24, 25, 26, 27, 28]",177.4393531,8834,1750,9,116,10,1.435447391509833
basic,26,32,0,0,0,28,"[0, 19, 13, 15, 28]",5,17,"[2, 3, 5, 8, 9, 10, 11, 12, 16, 17, 20, 22, 23, 24, 25, 26, 27]",166.0375988,9461,627,9,70,10,1.3843701324937985
basic,26,32,0,0,0,12,"[0, 19, 13, 15, 28, 12]",6,14,"[2, 3, 5, 8, 9, 10, 11, 16, 17, 20, 22, 24, 26, 27]",147.0639329,10062,601,6,35,10,1.358372254952329
basic,26,32,0,0,0,16,"[0, 19, 13, 15, 28, 12, 16]",7,13,"[2, 3, 5, 8, 9, 10, 11, 17, 20, 22, 24, 26, 27]",131.411457,11135,1073,5,15,10,1.4356932930709845
basic,26,32,0,0,0,22,"[0, 19, 13, 15, 28, 12, 16, 22]",8,6,"[2, 8, 9, 17, 20, 27]",97.57360838,12140,1005,3,5,10,1.4335226411545752
basic,26,32,0,0,0,9,"[0, 19, 13, 15, 28, 12, 16, 22, 9]",9,3,"[2, 8, 20]",75.37000507,13034,894,3,0,10,1.4837166378374758
basic,26,32,0,0,1,8,"[0, 19, 13, 15, 28, 12, 16, 22, 9, 8]",10,0,[],30.24794838,16737,3703,1,0,10,1.3767698817641267
basic,26,32,0,1,1,8,"[0, 19, 13, 15, 28, 12, 16, 22, 9, 8]",10,0,[],30.24794838,17947,1210,1,0,10,1.3767698817641267
basic,27,41,0,0,0,0,[0],1,29,"[1, 2, 3, 4, 5, 6, 7, 8, 9, 10, 11, 12, 13, 14, 15, 16, 17, 18, 19, 20, 21, 22, 23, 24, 25, 26, 27, 28, 29]",300,201,-1,1,143,10,0.0
basic,27,41,0,0,0,13,"[0, 13]",2,23,"[1, 2, 3, 5, 6, 7, 9, 10, 11, 12, 14, 15, 17, 18, 19, 20, 21, 22, 24, 25, 26, 27, 28]",258.2747079,5551,5350,1,55,10,1.0
basic,27,41,0,0,0,28,"[0, 13, 28]",3,22,"[1, 2, 3, 5, 6, 7, 9, 10, 11, 12, 14, 15, 17, 18, 19, 20, 21, 22, 24, 25, 26, 27]",223.7928286,6262,711,1,39,10,1.895724242592676
basic,27,41,0,0,0,5,"[0, 13, 28, 5]",4,19,"[1, 2, 3, 6, 9, 10, 11, 12, 14, 15, 17, 18, 19, 20, 21, 22, 24, 25, 27]",210.1913581,6834,572,1,34,10,2.861541269398273
basic,27,41,0,0,0,3,"[0, 13, 28, 5, 3]",5,16,"[1, 2, 6, 9, 10, 12, 14, 17, 18, 19, 20, 21, 22, 24, 25, 27]",175.3632086,8794,1960,1,22,10,3.1455488489005883
basic,27,41,0,0,0,21,"[0, 13, 28, 5, 3, 21]",6,14,"[1, 2, 6, 9, 10, 12, 14, 17, 18, 19, 20, 22, 25, 27]",143.2228912,9712,918,13,11,9,3.207558429289677
basic,27,41,0,0,0,9,"[0, 13, 28, 5, 3, 21, 9]",7,6,"[1, 2, 10, 12, 14, 17]",93.85691102,11721,2009,7,4,9,2.5050148501792275
basic,27,41,0,0,0,2,"[0, 13, 28, 5, 3, 21, 9, 2]",8,5,"[1, 10, 12, 14, 17]",81.77386505,13368,1647,5,0,9,2.4119643847713177
basic,27,41,0,0,1,17,"[0, 13, 28, 5, 3, 21, 9, 2, 17]",9,0,[],49.21622385,14119,751,1,0,9,3.9563478735796007
basic,27,41,0,1,1,17,"[0, 13, 28, 5, 3, 21, 9, 2, 17]",9,0,[],49.21622385,21081,6962,1,0,9,3.9563478735796007
basic,28,1,0,0,0,0,[0],1,26,"[1, 2, 4, 5, 7, 8, 9, 10, 11, 12, 13, 14, 15, 16, 17, 18, 19, 20, 21, 22, 23, 24, 25, 26, 28, 29]",300,180,-1,6,74,7,0.0
basic,28,1,0,0,0,14,"[0, 14]",2,19,"[1, 4, 5, 8, 9, 13, 15, 17, 18, 19, 20, 21, 22, 23, 24, 25, 26, 28, 29]",200.1901808,7642,7462,5,42,7,1.0
basic,28,1,0,0,0,17,"[0, 14, 17]",3,15,"[1, 4, 5, 8, 9, 13, 15, 18, 19, 20, 22, 23, 25, 28, 29]",147.8356204,9303,1661,5,27,7,1.0028844724416826
basic,28,1,0,0,0,1,"[0, 14, 17, 1]",4,12,"[4, 5, 8, 9, 15, 18, 20, 22, 23, 25, 28, 29]",123.4840291,11508,2205,5,15,7,1.0264985578353567
basic,28,1,0,0,0,28,"[0, 14, 17, 1, 28]",5,5,"[9, 15, 22, 23, 29]",88.59850198,13252,1744,5,3,7,1.0339861575999345
basic,28,1,0,0,0,23,"[0, 14, 17, 1, 28, 23]",6,2,"[15, 22]",51.70676849,14653,1401,2,0,7,1.0327458250705703
basic,28,1,0,0,1,15,"[0, 14, 17, 1, 28, 23, 15]",7,0,[],20.81987807,15636,983,1,0,7,1.1948681641401226
basic,28,1,0,1,1,15,"[0, 14, 17, 1, 28, 23, 15]",7,0,[],20.81987807,16881,1245,1,0,7,1.1948681641401226
basic,29,43,0,0,0,0,[0],1,23,"[1, 2, 3, 4, 5, 6, 7, 9, 10, 11, 12, 14, 15, 16, 17, 19, 20, 21, 22, 23, 25, 27, 29]",300,199,-1,16,556,12,0.0
basic,29,43,0,0,0,29,"[0, 29]",2,22,"[1, 2, 3, 4, 5, 6, 7, 9, 10, 11, 12, 14, 15, 16, 17, 19, 20, 21, 22, 23, 25, 27]",277.909278,5745,5546,16,520,12,1.0
basic,29,43,0,0,0,20,"[0, 29, 20]",3,20,"[1, 2, 3, 4, 6, 7, 9, 10, 11, 12, 14, 15, 16, 17, 19, 21, 22, 23, 25, 27]",254.4785289,8486,2741,15,422,12,1.082311746871282
basic,29,43,0,0,0,16,"[0, 29, 20, 16]",4,19,"[1, 2, 3, 4, 6, 7, 9, 10, 11, 12, 14, 15, 17, 19, 21, 22, 23, 25, 27]",231.8511119,9319,833,15,389,12,1.215201926898219
basic,29,43,0,0,0,15,"[0, 29, 20, 16, 15]",5,14,"[1, 2, 3, 4, 6, 7, 9, 11, 12, 14, 19, 22, 23, 25]",188.5267539,10712,1393,3,109,12,1.3482474915350444
basic,29,43,0,0,0,25,"[0, 29, 20, 16, 15, 25]",6,12,"[1, 3, 4, 6, 7, 9, 11, 12, 14, 19, 22, 23]",165.8551858,12135,1423,2,43,12,1.691408721191545
basic,29,43,0,0,0,12,"[0, 29, 20, 16, 15, 25, 12]",7,11,"[1, 3, 4, 6, 7, 9, 11, 14, 19, 22, 23]",141.6684126,13003,868,2,32,12,1.6015983641428178
basic,29,43,0,0,0,3,"[0, 29, 20, 16, 15, 25, 12, 3]",8,10,"[1, 4, 6, 7, 9, 11, 14, 19, 22, 23]",128.6684126,14013,1010,2,24,12,1.5379830456120627
basic,29,43,0,0,0,22,"[0, 29, 20, 16, 15, 25, 12, 3, 22]",9,6,"[1, 6, 7, 11, 14, 19]",93.95530264,14837,824,1,11,12,1.7275686117408873
basic,29,43,0,0,0,19,"[0, 29, 20, 16, 15, 25, 12, 3, 22, 19]",10,4,"[1, 6, 7, 11]",73.33977451,17402,2565,1,3,12,1.6315360037595275
basic,29,43,0,0,0,1,"[0, 29, 20, 16, 15, 25, 12, 3, 22, 19, 1]",11,1,[7],45.1617689,18904,1502,1,0,12,1.7703076545303877
basic,29,43,0,0,1,7,"[0, 29, 20, 16, 15, 25, 12, 3, 22, 19, 1, 7]",12,0,[],6.951822553,19869,965,1,0,12,1.6607094905815594
basic,29,43,0,1,1,7,"[0, 29, 20, 16, 15, 25, 12, 3, 22, 19, 1, 7]",12,0,[],6.951822553,21998,2129,1,0,12,1.6607094905815594
basic,30,14,0,0,0,0,[0],1,29,"[1, 2, 3, 4, 5, 6, 7, 8, 9, 10, 11, 12, 13, 14, 15, 16, 17, 18, 19, 20, 21, 22, 23, 24, 25, 26, 27, 28, 29]",300,179,-1,8,157,10,0.0
basic,30,14,0,0,0,28,"[0, 28]",2,18,"[1, 2, 3, 4, 7, 8, 9, 13, 15, 17, 18, 19, 20, 22, 23, 25, 26, 27]",201.8725319,4937,4758,30,170,9,1.0
basic,30,14,0,0,0,17,"[0, 28, 17]",3,16,"[1, 2, 3, 4, 7, 8, 9, 13, 15, 18, 19, 20, 22, 23, 25, 26]",188.4189078,7151,2214,18,87,9,1.032450375957012
basic,30,14,0,0,0,15,"[0, 28, 17, 15]",4,13,"[1, 2, 3, 7, 8, 13, 18, 19, 20, 22, 23, 25, 26]",163.2395512,9160,2009,9,38,9,1.6418873981807083
basic,30,14,0,0,0,18,"[0, 28, 17, 15, 18]",5,7,"[1, 7, 8, 19, 23, 25, 26]",100.1760911,10591,1431,9,20,9,1.6637556348048597
basic,30,14,0,0,0,8,"[0, 28, 17, 15, 18, 8]",6,6,"[1, 7, 19, 23, 25, 26]",86.5746206,11189,598,9,7,9,1.6287743242041242
basic,30,14,0,0,0,19,"[0, 28, 17, 15, 18, 8, 19]",7,5,"[1, 7, 23, 25, 26]",65.95909247,11757,568,6,1,9,1.5827671669436745
basic,30,14,0,0,0,1,"[0, 28, 17, 15, 18, 8, 19, 1]",8,2,"[23, 25]",50.72754626,12905,1148,2,0,9,1.6121059568234908
basic,30,14,0,0,1,25,"[0, 28, 17, 15, 18, 8, 19, 1, 25]",9,0,[],2.71713072,15275,2370,1,0,9,1.8162152449641589
basic,30,14,0,1,1,25,"[0, 28, 17, 15, 18, 8, 19, 1, 25]",9,0,[],2.71713072,16647,1372,1,0,9,1.8162152449641589
basic,31,30,0,0,0,0,[0],1,19,"[3, 4, 5, 7, 9, 11, 16, 17, 18, 19, 20, 21, 22, 24, 25, 26, 27, 28, 29]",300,198,-1,5,41,8,0.0
basic,31,30,0,0,0,25,"[0, 25]",2,12,"[3, 5, 7, 9, 11, 16, 18, 19, 20, 24, 27, 29]",121.1005869,16302,16104,7,37,7,1.0
basic,31,30,0,0,0,20,"[0, 25, 20]",3,9,"[3, 5, 7, 9, 11, 18, 19, 27, 29]",99.16887472,17218,916,5,16,7,1.0037291321296267
basic,31,30,0,0,0,27,"[0, 25, 20, 27]",4,4,"[3, 5, 18, 29]",65.11010199,18726,1508,4,6,7,1.1217072851053165
basic,31,30,0,0,0,3,"[0, 25, 20, 27, 3]",5,3,"[5, 18, 29]",46.00512882,19409,683,4,0,7,1.1140018780928678
basic,31,30,0,0,0,29,"[0, 25, 20, 27, 3, 29]",6,1,[18],27.40405358,19953,544,1,0,7,1.119672312555708
basic,31,30,0,0,1,18,"[0, 25, 20, 27, 3, 29, 18]",7,0,[],8.090845662,21386,1433,1,0,7,1.1951451398733344
basic,31,30,0,1,1,18,"[0, 25, 20, 27, 3, 29, 18]",7,0,[],8.090845662,23314,1928,1,0,7,1.1951451398733344
basic,32,29,0,0,0,0,[0],1,29,"[1, 2, 3, 4, 5, 6, 7, 8, 9, 10, 11, 12, 13, 14, 15, 16, 17, 18, 19, 20, 21, 22, 23, 24, 25, 26, 27, 28, 29]",300,182,-1,1,78,9,0.0
basic,32,29,0,0,0,6,"[0, 6]",2,28,"[1, 2, 3, 4, 5, 7, 8, 9, 10, 11, 12, 13, 14, 15, 16, 17, 18, 19, 20, 21, 22, 23, 24, 25, 26, 27, 28, 29]",228.4108947,8007,7825,1,25,9,1.0
basic,32,29,0,0,0,28,"[0, 6, 28]",3,24,"[1, 3, 4, 5, 7, 9, 10, 11, 12, 13, 14, 15, 16, 17, 18, 20, 21, 22, 23, 24, 25, 26, 27, 29]",187.1798384,9090,1083,1,22,9,1.162106788166845
basic,32,29,0,0,0,27,"[0, 6, 28, 27]",4,19,"[1, 3, 4, 5, 7, 9, 10, 11, 12, 13, 14, 15, 16, 21, 22, 23, 25, 26, 29]",166.6615539,10437,1347,1,21,9,1.2307173895439045
basic,32,29,0,0,0,22,"[0, 6, 28, 27, 22]",5,13,"[1, 3, 4, 5, 7, 9, 12, 13, 14, 15, 21, 26, 29]",133.4200136,12078,1641,1,19,9,1.4241767805149903
basic,32,29,0,0,0,5,"[0, 6, 28, 27, 22, 5]",6,6,"[4, 7, 9, 12, 13, 14]",79.07850094,15408,3330,4,2,8,1.7779286710260118
basic,32,29,0,0,0,13,"[0, 6, 28, 27, 22, 5, 13]",7,1,[14],53.36858068,16507,1099,1,0,8,2.2784535922470215
basic,32,29,0,0,1,14,"[0, 6, 28, 27, 22, 5, 13, 14]",8,0,[],35.3408243,20292,3785,1,0,8,2.9240984037611235
basic,32,29,0,1,1,14,"[0, 6, 28, 27, 22, 5, 13, 14]",8,0,[],35.3408243,21868,1576,1,0,8,2.9240984037611235
basic,33,6,0,0,0,0,[0],1,29,"[1, 2, 3, 4, 5, 6, 7, 8, 9, 10, 11, 12, 13, 14, 15, 16, 17, 18, 19, 20, 21, 22, 23, 24, 25, 26, 27, 28, 29]",300,179,-1,180,4304,10,0.0
basic,33,6,0,0,0,3,"[0, 3]",2,28,"[1, 2, 4, 5, 6, 7, 8, 9, 10, 11, 12, 13, 14, 15, 16, 17, 18, 19, 20, 21, 22, 23, 24, 25, 26, 27, 28, 29]",266.4738908,4254,4075,90,1607,10,1.0
basic,33,6,0,0,0,24,"[0, 3, 24]",3,24,"[1, 2, 4, 5, 6, 7, 8, 10, 11, 13, 14, 16, 17, 18, 19, 20, 21, 22, 23, 25, 26, 27, 28, 29]",202.520783,7942,3688,6,84,10,1.001910163116413
basic,33,6,0,0,0,10,"[0, 3, 24, 10]",4,20,"[1, 2, 4, 5, 6, 7, 8, 11, 13, 14, 16, 17, 18, 20, 21, 22, 23, 26, 27, 29]",189.1043751,9342,1400,6,66,10,1.314793299348402
basic,33,6,0,0,0,17,"[0, 3, 24, 10, 17]",5,19,"[1, 2, 4, 5, 6, 7, 8, 11, 13, 14, 16, 18, 20, 21, 22, 23, 26, 27, 29]",169.3812922,10729,1387,6,45,10,1.8507472474352449
basic,33,6,0,0,0,18,"[0, 3, 24, 10, 17, 18]",6,15,"[1, 2, 6, 7, 8, 13, 14, 16, 20, 21, 22, 23, 26, 27, 29]",155.4529039,11618,889,5,31,10,2.373454740786756
basic,33,6,0,0,0,16,"[0, 3, 24, 10, 17, 18, 16]",7,13,"[1, 2, 6, 7, 13, 14, 20, 21, 22, 23, 26, 27, 29]",132.1076688,12805,1187,5,19,10,2.3260122505247613
basic,33,6,0,0,0,29,"[0, 3, 24, 10, 17, 18, 16, 29]",8,6,"[6, 14, 21, 22, 23, 27]",95.41979617,18056,5251,5,4,10,1.920792706835084
basic,33,6,0,0,0,22,"[0, 3, 24, 10, 17, 18, 16, 29, 22]",9,3,"[14, 23, 27]",45.09087804,19840,1784,3,0,10,1.6370965105576718
basic,33,6,0,0,1,14,"[0, 3, 24, 10, 17, 18, 16, 29, 22, 14]",10,0,[],10.68157697,21330,1490,1,0,10,1.7202754742850823
basic,33,6,0,1,1,14,"[0, 3, 24, 10, 17, 18, 16, 29, 22, 14]",10,0,[],10.68157697,22383,1053,1,0,10,1.7202754742850823
basic,34,9,0,0,0,0,[0],1,27,"[1, 3, 4, 5, 6, 7, 8, 9, 10, 11, 13, 14, 15, 16, 17, 18, 19, 20, 21, 22, 23, 24, 25, 26, 27, 28, 29]",300,199,-1,2,182,10,0.0
basic,34,9,0,0,0,9,"[0, 9]",2,26,"[1, 3, 4, 5, 6, 7, 8, 10, 11, 13, 14, 15, 16, 17, 18, 19, 20, 21, 22, 23, 24, 25, 26, 27, 28, 29]",225.5352432,9629,9430,2,101,9,1.0
basic,34,9,0,0,0,23,"[0, 9, 23]",3,22,"[1, 3, 4, 5, 7, 8, 10, 11, 13, 15, 16, 17, 18, 19, 20, 21, 22, 24, 25, 26, 27, 28]",203.1745635,10953,1324,2,70,9,1.6262276606762436
basic,34,9,0,0,0,8,"[0, 9, 23, 8]",4,18,"[3, 4, 5, 7, 10, 11, 15, 16, 17, 18, 19, 20, 21, 22, 25, 26, 27, 28]",181.7036529,11538,585,1,36,9,1.8547307061753238
basic,34,9,0,0,0,28,"[0, 9, 23, 8, 28]",5,17,"[3, 4, 5, 7, 10, 11, 15, 16, 17, 18, 19, 20, 21, 22, 25, 26, 27]",170.8869991,13153,1615,1,23,9,1.7382749966569708
basic,34,9,0,0,0,26,"[0, 9, 23, 8, 28, 26]",6,10,"[3, 5, 10, 15, 16, 18, 19, 20, 21, 25]",126.1097727,23076,9923,4,7,8,1.4884719959249546
basic,34,9,0,0,0,21,"[0, 9, 23, 8, 28, 26, 21]",7,1,[20],72.20244484,25423,2347,1,0,8,1.9218119811471304
basic,34,9,0,0,1,20,"[0, 9, 23, 8, 28, 26, 21, 20]",8,0,[],60.11939886,28854,3431,1,0,8,1.8940565724013747
basic,34,9,0,1,1,20,"[0, 9, 23, 8, 28, 26, 21, 20]",8,0,[],60.11939886,30166,1312,1,0,8,1.8940565724013747
basic,35,13,0,0,0,0,[0],1,29,"[1, 2, 3, 4, 5, 6, 7, 8, 9, 10, 11, 12, 13, 14, 15, 16, 17, 18, 19, 20, 21, 22, 23, 24, 25, 26, 27, 28, 29]",300,198,-1,60,2676,11,0.0
basic,35,13,0,0,0,24,"[0, 24]",2,28,"[1, 2, 3, 4, 5, 6, 7, 8, 9, 10, 11, 12, 13, 14, 15, 16, 17, 18, 19, 20, 21, 22, 23, 25, 26, 27, 28, 29]",288.8196601,3584,3386,16,1444,11,1.0
basic,35,13,0,0,0,28,"[0, 24, 28]",3,23,"[1, 2, 3, 4, 6, 7, 8, 9, 10, 11, 12, 13, 15, 16, 17, 19, 20, 21, 22, 23, 26, 27, 29]",222.5324064,5400,1816,8,243,11,1.0513810491680837
basic,35,13,0,0,0,2,"[0, 24, 28, 2]",4,19,"[1, 3, 4, 6, 7, 9, 11, 12, 13, 15, 16, 17, 19, 20, 21, 23, 26, 27, 29]",184.889346,7272,1872,7,110,11,1.050374132001543
basic,35,13,0,0,0,29,"[0, 24, 28, 2, 29]",5,18,"[1, 3, 4, 6, 7, 9, 11, 12, 13, 15, 16, 17, 19, 20, 21, 23, 26, 27]",173.1846461,8284,1012,7,85,11,1.1393409619120594
basic,35,13,0,0,0,7,"[0, 24, 28, 2, 29, 7]",6,17,"[1, 3, 4, 6, 9, 11, 12, 13, 15, 16, 17, 19, 20, 21, 23, 26, 27]",157.9203086,9368,1084,5,45,11,1.349777315111579
basic,35,13,0,0,0,26,"[0, 24, 28, 2, 29, 7, 26]",7,16,"[1, 3, 4, 6, 9, 11, 12, 13, 15, 16, 17, 19, 20, 21, 23, 27]",147.480002,10161,793,5,25,11,1.5942082773824946
basic,35,13,0,0,0,6,"[0, 24, 28, 2, 29, 7, 26, 6]",8,12,"[1, 3, 4, 11, 13, 15, 16, 17, 19, 20, 23, 27]",127.3802508,11628,1467,4,12,11,1.5898347940840756
basic,35,13,0,0,0,11,"[0, 24, 28, 2, 29, 7, 26, 6, 11]",9,6,"[1, 13, 15, 16, 17, 23]",108.2752776,12856,1228,3,4,11,1.5029953945561012
basic,35,13,0,0,1,15,"[0, 24, 28, 2, 29, 7, 26, 6, 11, 15]",10,0,[],16.35139607,15452,2596,1,0,10,1.3464703283449284
basic,35,13,0,1,1,15,"[0, 24, 28, 2, 29, 7, 26, 6, 11, 15]",10,0,[],16.35139607,17298,1846,1,0,10,1.3464703283449284
basic,36,44,0,0,0,0,[0],1,29,"[1, 2, 3, 4, 5, 6, 7, 8, 9, 10, 11, 12, 13, 14, 15, 16, 17, 18, 19, 20, 21, 22, 23, 24, 25, 26, 27, 28, 29]",300,180,-1,13,126,7,0.0
basic,36,44,0,0,0,11,"[0, 11]",2,18,"[4, 5, 6, 7, 8, 9, 12, 14, 16, 17, 19, 20, 22, 23, 24, 25, 26, 28]",152.7790776,5770,5590,5,34,7,1.0
basic,36,44,0,0,0,24,"[0, 11, 24]",3,13,"[4, 5, 7, 8, 9, 12, 14, 17, 20, 22, 23, 25, 28]",125.8532535,6988,1218,5,23,7,1.1588941745226709
basic,36,44,0,0,0,9,"[0, 11, 24, 9]",4,7,"[4, 7, 8, 12, 14, 20, 23]",93.09657483,7937,949,2,8,7,1.3039383713641313
basic,36,44,0,0,0,4,"[0, 11, 24, 9, 4]",5,5,"[7, 12, 14, 20, 23]",73.39885923,8580,643,2,3,7,1.2901330701441578
basic,36,44,0,0,0,7,"[0, 11, 24, 9, 4, 7]",6,1,[23],42.38273439,9821,1241,1,0,7,1.2468141312360979
basic,36,44,0,0,1,23,"[0, 11, 24, 9, 4, 7, 23]",7,0,[],23.27776121,16698,6877,1,0,7,1.2635191782769477
basic,36,44,0,1,1,23,"[0, 11, 24, 9, 4, 7, 23]",7,0,[],23.27776121,17949,1251,1,0,7,1.2635191782769477
basic,37,17,0,0,0,0,[0],1,28,"[1, 2, 3, 4, 5, 6, 7, 8, 9, 10, 11, 12, 13, 14, 15, 16, 17, 18, 19, 20, 22, 23, 24, 25, 26, 27, 28, 29]",300,201,-1,2,73,8,0.0
basic,37,17,0,0,0,9,"[0, 9]",2,25,"[1, 2, 3, 5, 6, 7, 8, 10, 11, 12, 14, 15, 16, 17, 18, 19, 20, 22, 23, 24, 25, 26, 27, 28, 29]",210.5293344,7418,7217,1,34,8,1.0
basic,37,17,0,0,0,16,"[0, 9, 16]",3,21,"[1, 2, 3, 5, 7, 8, 10, 11, 12, 14, 17, 18, 19, 20, 22, 23, 25, 26, 27, 28, 29]",197.1876704,9191,1773,1,26,8,1.173103464220352
basic,37,17,0,0,0,2,"[0, 9, 16, 2]",4,18,"[1, 3, 5, 7, 8, 10, 11, 12, 14, 17, 18, 19, 23, 25, 26, 27, 28, 29]",181.0631549,9954,763,1,23,8,1.14825089247282
basic,37,17,0,0,0,17,"[0, 9, 16, 2, 17]",5,7,"[7, 8, 12, 14, 26, 27, 29]",142.7356191,12710,2756,4,5,7,1.4896040699768547
basic,37,17,0,0,0,8,"[0, 9, 16, 2, 17, 8]",6,3,"[7, 12, 27]",104.5256727,13605,895,3,0,7,1.4604726966175894
basic,37,17,0,0,1,7,"[0, 9, 16, 2, 17, 8, 7]",7,0,[],33.81499459,14385,780,1,0,7,1.4474701869793896
basic,37,17,0,1,1,7,"[0, 9, 16, 2, 17, 8, 7]",7,0,[],33.81499459,16530,2145,1,0,7,1.4474701869793896
basic,38,8,0,0,0,0,[0],1,29,"[1, 2, 3, 4, 5, 6, 7, 8, 9, 10, 11, 12, 13, 14, 15, 16, 17, 18, 19, 20, 21, 22, 23, 24, 25, 26, 27, 28, 29]",300,183,-1,10,149,9,0.0
basic,38,8,0,0,0,5,"[0, 5]",2,28,"[1, 2, 3, 4, 6, 7, 8, 9, 10, 11, 12, 13, 14, 15, 16, 17, 18, 19, 20, 21, 22, 23, 24, 25, 26, 27, 28, 29]",254.5137383,4535,4352,10,100,9,1.0
basic,38,8,0,0,0,14,"[0, 5, 14]",3,20,"[1, 2, 3, 4, 6, 7, 11, 15, 16, 17, 18, 19, 20, 21, 22, 23, 24, 25, 28, 29]",214.5512559,5828,1293,4,36,9,1.0001019035932595
basic,38,8,0,0,0,17,"[0, 5, 14, 17]",4,15,"[1, 4, 6, 7, 11, 15, 16, 18, 19, 20, 22, 23, 24, 25, 28]",177.5377449,6593,765,4,16,9,1.121197267659591
basic,38,8,0,0,0,11,"[0, 5, 14, 17, 11]",5,11,"[1, 4, 15, 16, 18, 19, 22, 23, 24, 25, 28]",152.3583883,7645,1052,4,8,9,1.1277254166016362
basic,38,8,0,0,0,24,"[0, 5, 14, 17, 11, 24]",6,3,"[15, 16, 28]",115.1428001,8442,797,2,2,9,1.1227411011978805
basic,38,8,0,0,0,15,"[0, 5, 14, 17, 11, 24, 15]",7,2,"[16, 28]",98.37974552,9118,676,2,0,9,1.1956385406066814
basic,38,8,0,0,0,16,"[0, 5, 14, 17, 11, 24, 15, 16]",8,1,[28],47.30137436,11419,2301,1,0,9,1.36482239111247
basic,38,8,0,0,1,28,"[0, 5, 14, 17, 11, 24, 15, 16, 28]",9,0,[],24.94069458,12270,851,1,0,9,1.632953105226947
basic,38,8,0,1,1,28,"[0, 5, 14, 17, 11, 24, 15, 16, 28]",9,0,[],24.94069458,13681,1411,1,0,9,1.632953105226947
basic,39,12,0,0,0,0,[0],1,29,"[1, 2, 3, 4, 5, 6, 7, 8, 9, 10, 11, 12, 13, 14, 15, 16, 17, 18, 19, 20, 21, 22, 23, 24, 25, 26, 27, 28, 29]",300,197,-1,2,32,9,0.0
basic,39,12,0,0,0,22,"[0, 22]",2,22,"[2, 4, 5, 6, 7, 9, 10, 12, 13, 14, 15, 16, 17, 18, 19, 21, 23, 24, 25, 27, 28, 29]",211.9943184,3284,3087,6,42,8,1.0
basic,39,12,0,0,0,16,"[0, 22, 16]",3,12,"[2, 4, 5, 6, 7, 12, 14, 19, 23, 24, 25, 27]",190.9943184,4135,851,6,24,8,1.2017164145167045
basic,39,12,0,0,0,4,"[0, 22, 16, 4]",4,9,"[2, 6, 7, 12, 14, 19, 24, 25, 27]",156.7890556,5543,1408,6,14,8,1.146531713305579
basic,39,12,0,0,0,12,"[0, 22, 16, 4, 12]",5,4,"[14, 19, 24, 27]",114.5990094,6323,780,4,3,8,1.1221389456954312
basic,39,12,0,0,0,27,"[0, 22, 16, 4, 12, 27]",6,3,"[14, 19, 24]",90.24741807,7686,1363,2,1,8,1.2262878338287035
basic,39,12,0,0,0,14,"[0, 22, 16, 4, 12, 27, 14]",7,1,[24],61.59432051,8295,609,1,0,8,1.2804562106751427
basic,39,12,0,0,1,24,"[0, 22, 16, 4, 12, 27, 14, 24]",8,0,[],44.38966997,10736,2441,1,0,8,1.4322660007679802
basic,39,12,0,1,1,24,"[0, 22, 16, 4, 12, 27, 14, 24]",8,0,[],44.38966997,12848,2112,1,0,8,1.4322660007679802
basic,40,39,0,0,0,0,[0],1,28,"[1, 2, 3, 4, 5, 6, 7, 9, 10, 11, 12, 13, 14, 15, 16, 17, 18, 19, 20, 21, 22, 23, 24, 25, 26, 27, 28, 29]",300,197,-1,1,30,10,0.0
basic,40,39,0,0,0,29,"[0, 29]",2,26,"[1, 2, 3, 4, 5, 6, 7, 9, 10, 12, 13, 14, 15, 16, 17, 18, 19, 20, 21, 22, 23, 24, 25, 26, 27, 28]",243.0614366,7969,7772,8,104,9,1.0
basic,40,39,0,0,0,10,"[0, 29, 10]",3,19,"[1, 2, 4, 5, 7, 9, 12, 13, 14, 15, 16, 17, 18, 19, 22, 23, 24, 26, 28]",178.4239862,9192,1223,3,48,9,1.0231293692376968
basic,40,39,0,0,0,7,"[0, 29, 10, 7]",4,14,"[1, 2, 4, 5, 9, 12, 13, 15, 16, 18, 19, 22, 24, 26]",145.0024362,10720,1528,2,20,9,1.0186411966151707
basic,40,39,0,0,0,26,"[0, 29, 10, 7, 26]",5,9,"[1, 2, 5, 12, 13, 16, 18, 19, 22]",126.3208945,12022,1302,1,9,9,1.0752526811750318
basic,40,39,0,0,0,22,"[0, 29, 10, 7, 26, 22]",6,6,"[1, 5, 12, 16, 18, 19]",108.6008494,13353,1331,1,3,9,1.2360944063790367
basic,40,39,0,0,0,16,"[0, 29, 10, 7, 26, 22, 16]",7,2,"[18, 19]",73.6008494,14821,1468,1,1,9,1.1926155792040818
basic,40,39,0,0,0,19,"[0, 29, 10, 7, 26, 22, 16, 19]",8,1,[18],56.1366002,15520,699,1,0,9,1.2089345217410772
basic,40,39,0,0,1,18,"[0, 29, 10, 7, 26, 22, 16, 19, 18]",9,0,[],12.96253391,17154,1634,1,0,9,1.2243548998729528
basic,40,39,0,1,1,18,"[0, 29, 10, 7, 26, 22, 16, 19, 18]",9,0,[],12.96253391,18299,1145,1,0,9,1.2243548998729528
basic,41,16,0,0,0,0,[0],1,29,"[1, 2, 3, 4, 5, 6, 7, 8, 9, 10, 11, 12, 13, 14, 15, 16, 17, 18, 19, 20, 21, 22, 23, 24, 25, 26, 27, 28, 29]",300,246,-1,13,161,9,0.0
basic,41,16,0,0,0,17,"[0, 17]",2,27,"[1, 2, 3, 4, 5, 7, 8, 9, 10, 11, 12, 13, 14, 15, 16, 18, 19, 20, 21, 22, 23, 24, 25, 26, 27, 28, 29]",241.3058776,5141,4895,2,58,9,1.0
basic,41,16,0,0,0,16,"[0, 17, 16]",3,26,"[1, 2, 3, 4, 5, 7, 8, 9, 10, 11, 12, 13, 14, 15, 18, 19, 20, 21, 22, 23, 24, 25, 26, 27, 28, 29]",212.9862731,6025,884,2,52,9,1.0529535521792848
basic,41,16,0,0,0,8,"[0, 17, 16, 8]",4,19,"[2, 3, 4, 5, 9, 12, 13, 14, 15, 19, 20, 21, 22, 23, 25, 26, 27, 28, 29]",164.6127266,6785,760,2,38,9,1.0915134501573105
basic,41,16,0,0,0,20,"[0, 17, 16, 8, 20]",5,10,"[3, 4, 5, 9, 12, 13, 15, 19, 21, 25]",106.8372993,7910,1125,1,15,9,1.067523143001942
basic,41,16,0,0,0,25,"[0, 17, 16, 8, 20, 25]",6,7,"[3, 4, 5, 9, 12, 13, 15]",94.18818869,8878,968,1,9,9,1.1170093326933646
basic,41,16,0,0,0,9,"[0, 17, 16, 8, 20, 25, 9]",7,5,"[3, 4, 5, 13, 15]",81.38194021,9435,557,1,4,9,1.1095076562662525
basic,41,16,0,0,0,15,"[0, 17, 16, 8, 20, 25, 9, 15]",8,1,[5],42.48463953,10721,1286,1,0,9,1.213831159678775
basic,41,16,0,0,1,5,"[0, 17, 16, 8, 20, 25, 9, 15, 5]",9,0,[],13.0567616,11602,881,1,0,9,1.5171779607523481
basic,41,16,0,1,1,5,"[0, 17, 16, 8, 20, 25, 9, 15, 5]",9,0,[],13.0567616,12930,1328,1,0,9,1.5171779607523481
basic,42,40,0,0,0,0,[0],1,29,"[1, 2, 3, 4, 5, 6, 7, 8, 9, 10, 11, 12, 13, 14, 15, 16, 17, 18, 19, 20, 21, 22, 23, 24, 25, 26, 27, 28, 29]",300,199,-1,8,191,9,0.0
basic,42,40,0,0,0,1,"[0, 1]",2,18,"[2, 5, 6, 7, 8, 9, 10, 11, 13, 15, 17, 18, 19, 21, 22, 23, 27, 29]",247.8463808,7451,7252,4,80,9,1.0
basic,42,40,0,0,0,6,"[0, 1, 6]",3,17,"[2, 5, 7, 8, 9, 10, 11, 13, 15, 17, 18, 19, 21, 22, 23, 27, 29]",227.7466295,8025,574,4,74,9,1.0459427008232034
basic,42,40,0,0,0,21,"[0, 1, 6, 21]",4,8,"[2, 5, 9, 17, 18, 19, 22, 23]",175.7754837,9028,1003,4,25,9,1.0308822257404064
basic,42,40,0,0,0,9,"[0, 1, 6, 21, 9]",5,6,"[2, 5, 18, 19, 22, 23]",130.0699041,9921,893,4,12,9,1.377861912961129
basic,42,40,0,0,0,18,"[0, 1, 6, 21, 9, 18]",6,5,"[2, 5, 19, 22, 23]",113.5169588,10509,588,4,4,9,1.5742712168661408
basic,42,40,0,0,0,5,"[0, 1, 6, 21, 9, 18, 5]",7,3,"[19, 22, 23]",81.94165198,11737,1228,2,1,9,1.7730665063055515
basic,42,40,0,0,0,23,"[0, 1, 6, 21, 9, 18, 5, 23]",8,1,[19],53.63970859,12676,939,1,0,9,2.597442759912231
basic,42,40,0,0,1,19,"[0, 1, 6, 21, 9, 18, 5, 23, 19]",9,0,[],21.68661797,14454,1778,1,0,9,2.7128328554069565
basic,42,40,0,1,1,19,"[0, 1, 6, 21, 9, 18, 5, 23, 19]",9,0,[],21.68661797,15465,1011,1,0,9,2.7128328554069565
basic,43,21,0,0,0,0,[0],1,29,"[1, 2, 3, 4, 5, 6, 7, 8, 9, 10, 11, 12, 13, 14, 15, 16, 17, 18, 19, 20, 21, 22, 23, 24, 25, 26, 27, 28, 29]",300,196,-1,84,830,9,0.0
basic,43,21,0,0,0,18,"[0, 18]",2,28,"[1, 2, 3, 4, 5, 6, 7, 8, 9, 10, 11, 12, 13, 14, 15, 16, 17, 19, 20, 21, 22, 23, 24, 25, 26, 27, 28, 29]",240.923778,5843,5647,44,305,9,1.0
basic,43,21,0,0,0,25,"[0, 18, 25]",3,23,"[1, 2, 3, 4, 6, 7, 8, 9, 10, 11, 12, 14, 15, 16, 17, 20, 21, 22, 23, 24, 26, 27, 29]",199.162552,6842,999,16,84,9,1.6857830307656476
basic,43,21,0,0,0,21,"[0, 18, 25, 21]",4,14,"[1, 4, 6, 8, 9, 14, 15, 16, 17, 20, 22, 23, 24, 29]",149.8269665,8002,1160,7,35,9,1.670653070509846
basic,43,21,0,0,0,14,"[0, 18, 25, 21, 14]",5,8,"[4, 8, 15, 16, 17, 23, 24, 29]",124.2144695,9196,1194,5,14,9,1.53467425073909
basic,43,21,0,0,0,4,"[0, 18, 25, 21, 14, 4]",6,6,"[8, 15, 16, 23, 24, 29]",110.0723339,11941,2745,5,6,9,1.4848978616548867
basic,43,21,0,0,0,16,"[0, 18, 25, 21, 14, 4, 16]",7,3,"[8, 15, 23]",65.47412766,13556,1615,2,1,9,1.4368634537924392
basic,43,21,0,0,0,8,"[0, 18, 25, 21, 14, 4, 16, 8]",8,1,[15],46.87305243,14330,774,1,0,9,1.3971274151083675
basic,43,21,0,0,1,15,"[0, 18, 25, 21, 14, 4, 16, 8, 15]",9,0,[],21.87305243,15722,1392,1,0,9,1.652125926308243
basic,43,21,0,1,1,15,"[0, 18, 25, 21, 14, 4, 16, 8, 15]",9,0,[],21.87305243,17764,2042,1,0,9,1.652125926308243
basic,44,28,0,0,0,0,[0],1,27,"[1, 2, 3, 4, 5, 6, 7, 8, 9, 10, 11, 12, 13, 14, 15, 16, 17, 18, 19, 20, 22, 23, 25, 26, 27, 28, 29]",300,181,-1,2,96,9,0.0
basic,44,28,0,0,0,3,"[0, 3]",2,26,"[1, 2, 4, 5, 6, 7, 8, 9, 10, 11, 12, 13, 14, 15, 16, 17, 18, 19, 20, 22, 23, 25, 26, 27, 28, 29]",251.0817008,50707,50526,1,64,9,1.0
basic,44,28,0,0,0,5,"[0, 3, 5]",3,20,"[2, 4, 6, 7, 8, 9, 10, 11, 12, 13, 14, 15, 18, 19, 20, 23, 25, 26, 28, 29]",166.9865166,52227,1520,1,34,9,1.0203769473612083
basic,44,28,0,0,0,26,"[0, 3, 5, 26]",4,13,"[2, 4, 7, 8, 9, 12, 13, 14, 18, 19, 20, 25, 28]",134.2298379,53105,878,1,28,9,1.0315203228799597
basic,44,28,0,0,0,19,"[0, 3, 5, 26, 19]",5,7,"[2, 7, 9, 12, 13, 14, 18]",93.22983789,53822,717,1,17,9,1.1324645362297356
basic,44,28,0,0,0,7,"[0, 3, 5, 26, 19, 7]",6,5,"[2, 12, 13, 14, 18]",65.49898864,54388,566,1,6,9,1.1971194919020265
basic,44,28,0,0,0,12,"[0, 3, 5, 26, 19, 7, 12]",7,2,"[13, 18]",52.3460422,55158,770,1,1,9,1.2020762147848982
basic,44,28,0,0,0,13,"[0, 3, 5, 26, 19, 7, 12, 13]",8,1,[18],35.14139167,55726,568,1,0,9,1.39005144078531
basic,44,28,0,0,1,18,"[0, 3, 5, 26, 19, 7, 12, 13, 18]",9,0,[],10.72828044,56695,969,1,0,9,1.738787343626007
basic,44,28,0,1,1,18,"[0, 3, 5, 26, 19, 7, 12, 13, 18]",9,0,[],10.72828044,59167,2472,1,0,9,1.738787343626007
basic,45,20,0,0,0,0,[0],1,21,"[1, 2, 3, 4, 5, 6, 7, 8, 9, 12, 17, 18, 20, 21, 22, 23, 25, 26, 27, 28, 29]",300,198,-1,1,9,9,0.0
basic,45,20,0,0,0,1,"[0, 1]",2,14,"[3, 4, 5, 6, 8, 9, 12, 20, 21, 23, 26, 27, 28, 29]",197.3501096,4422,4224,1,9,8,1.0
basic,45,20,0,0,0,5,"[0, 1, 5]",3,12,"[4, 6, 8, 9, 12, 20, 21, 23, 26, 27, 28, 29]",160.675868,5271,849,1,8,8,1.1088946720668915
basic,45,20,0,0,0,21,"[0, 1, 5, 21]",4,8,"[4, 6, 8, 9, 20, 23, 27, 28]",115.675868,6278,1007,1,6,8,1.0805828994591202
basic,45,20,0,0,0,8,"[0, 1, 5, 21, 8]",5,5,"[6, 9, 23, 27, 28]",98.21161876,8653,2375,1,5,8,1.0976815296746363
basic,45,20,0,0,0,23,"[0, 1, 5, 21, 8, 23]",6,3,"[6, 9, 27]",53.52381281,9470,817,1,2,8,1.0820667611140062
basic,45,20,0,0,0,9,"[0, 1, 5, 21, 8, 23, 9]",7,1,[6],34.3144401,10056,586,1,0,8,1.0771429624373048
basic,45,20,0,0,1,6,"[0, 1, 5, 21, 8, 23, 9, 6]",8,0,[],11.29271124,11076,1020,1,0,8,1.0892675954154076
basic,45,20,0,1,1,6,"[0, 1, 5, 21, 8, 23, 9, 6]",8,0,[],11.29271124,12365,1289,1,0,8,1.0892675954154076
basic,46,35,0,0,0,0,[0],1,29,"[1, 2, 3, 4, 5, 6, 7, 8, 9, 10, 11, 12, 13, 14, 15, 16, 17, 18, 19, 20, 21, 22, 23, 24, 25, 26, 27, 28, 29]",300,215,-1,5,236,11,0.0
basic,46,35,0,0,0,24,"[0, 24]",2,27,"[1, 2, 4, 5, 6, 7, 8, 9, 10, 11, 12, 13, 14, 15, 16, 17, 18, 19, 20, 21, 22, 23, 25, 26, 27, 28, 29]",268.9838752,3426,3211,49,512,10,1.0
basic,46,35,0,0,0,17,"[0, 24, 17]",3,26,"[1, 2, 4, 5, 6, 7, 8, 9, 10, 11, 12, 13, 14, 15, 16, 18, 19, 20, 21, 22, 23, 25, 26, 27, 28, 29]",257.2791753,4406,980,33,238,10,1.0771477201815276
basic,46,35,0,0,0,1,"[0, 24, 17, 1]",4,25,"[2, 4, 5, 6, 7, 8, 9, 10, 11, 12, 13, 14, 15, 16, 18, 19, 20, 21, 22, 23, 25, 26, 27, 28, 29]",241.4677869,5262,856,26,151,10,1.2244804141479215
basic,46,35,0,0,0,9,"[0, 24, 17, 1, 9]",5,13,"[2, 4, 5, 6, 15, 18, 19, 23, 25, 26, 27, 28, 29]",171.9408138,8170,2908,23,25,9,1.1391705391673446
basic,46,35,0,0,0,18,"[0, 24, 17, 1, 9, 18]",6,9,"[4, 5, 6, 15, 19, 23, 25, 27, 28]",151.9158294,8721,551,11,8,9,1.1512300765384265
basic,46,35,0,0,0,25,"[0, 24, 17, 1, 9, 18, 25]",7,3,"[5, 6, 23]",118.0779807,9380,659,4,1,9,1.1233821517043756
basic,46,35,0,0,0,6,"[0, 24, 17, 1, 9, 18, 25, 6]",8,2,"[5, 23]",94.05715644,10289,909,2,0,9,1.3618604674216885
basic,46,35,0,0,1,23,"[0, 24, 17, 1, 9, 18, 25, 6, 23]",9,0,[],48.4063076,11278,989,1,0,9,2.3663755774656274
basic,46,35,0,1,1,23,"[0, 24, 17, 1, 9, 18, 25, 6, 23]",9,0,[],48.4063076,12633,1355,1,0,9,2.3663755774656274
basic,47,23,0,0,0,0,[0],1,28,"[1, 2, 3, 4, 5, 6, 7, 8, 9, 10, 11, 12, 13, 14, 15, 16, 17, 18, 19, 20, 21, 22, 23, 25, 26, 27, 28, 29]",300,204,-1,76,2626,10,0.0
basic,47,23,0,0,0,27,"[0, 27]",2,11,"[2, 6, 7, 9, 10, 12, 13, 14, 18, 22, 29]",156.8217894,4953,4749,6,455,9,1.0
basic,47,23,0,0,0,6,"[0, 27, 6]",3,10,"[2, 7, 9, 10, 12, 13, 14, 18, 22, 29]",128.519846,6505,1552,6,168,9,1.1413510010705277
basic,47,23,0,0,0,13,"[0, 27, 6, 13]",4,7,"[2, 9, 12, 14, 18, 22, 29]",88.15897383,9218,2713,25,7,8,1.9140004130415318
basic,47,23,0,0,0,12,"[0, 27, 6, 13, 12]",5,5,"[2, 9, 14, 22, 29]",76.07592786,10918,1700,7,5,8,1.826628334641329
basic,47,23,0,0,0,2,"[0, 27, 6, 13, 12, 2]",6,4,"[9, 14, 22, 29]",62.18348387,11906,988,2,2,8,1.742771754515294
basic,47,23,0,0,0,9,"[0, 27, 6, 13, 12, 2, 9]",7,1,[14],49.14507906,12806,900,1,0,8,1.9200767360191275
basic,47,23,0,0,1,14,"[0, 27, 6, 13, 12, 2, 9, 14]",8,0,[],38.70477255,13778,972,1,0,8,1.8546041270084397
basic,47,23,0,1,1,14,"[0, 27, 6, 13, 12, 2, 9, 14]",8,0,[],38.70477255,15302,1524,1,0,8,1.8546041270084397
basic,48,31,0,0,0,0,[0],1,27,"[1, 3, 4, 5, 6, 7, 8, 10, 11, 12, 13, 14, 15, 16, 17, 18, 19, 20, 21, 22, 23, 24, 25, 26, 27, 28, 29]",300,197,-1,2,87,10,0.0
basic,48,31,0,0,0,14,"[0, 14]",2,25,"[1, 3, 5, 6, 7, 8, 10, 11, 12, 13, 15, 16, 17, 18, 19, 20, 21, 22, 23, 24, 25, 26, 27, 28, 29]",263.861378,5158,4961,2,59,10,1.0
basic,48,31,0,0,0,27,"[0, 14, 27]",3,22,"[1, 3, 5, 6, 7, 8, 10, 11, 12, 13, 15, 16, 17, 18, 19, 20, 21, 22, 24, 25, 28, 29]",235.6833724,6393,1235,1,39,10,1.5881859159302467
basic,48,31,0,0,0,8,"[0, 14, 27, 8]",4,20,"[1, 3, 5, 6, 7, 10, 11, 12, 13, 16, 17, 18, 19, 20, 21, 22, 24, 25, 28, 29]",224.6380114,7269,876,1,36,10,2.1665048452331277
basic,48,31,0,0,0,18,"[0, 14, 27, 8, 18]",5,15,"[1, 5, 6, 7, 11, 12, 13, 16, 17, 19, 20, 22, 25, 28, 29]",188.7911147,8969,1700,1,26,10,1.7273375741920205
basic,48,31,0,0,0,11,"[0, 14, 27, 8, 18, 11]",6,11,"[1, 5, 7, 12, 16, 17, 19, 20, 22, 25, 28]",153.9055876,9623,654,13,17,9,2.386348208737804
basic,48,31,0,0,0,5,"[0, 14, 27, 8, 18, 11, 5]",7,5,"[16, 17, 20, 25, 28]",110.2249283,10268,645,3,3,9,2.163249612867222
basic,48,31,0,0,0,28,"[0, 14, 27, 8, 18, 11, 5, 28]",8,2,"[16, 17]",90.00117988,10895,627,2,0,9,1.9564635733184719
basic,48,31,0,0,1,16,"[0, 14, 27, 8, 18, 11, 5, 28, 16]",9,0,[],56.38570725,11539,644,1,0,9,1.824071502589619
basic,48,31,0,1,1,16,"[0, 14, 27, 8, 18, 11, 5, 28, 16]",9,0,[],56.38570725,13848,2309,1,0,9,1.824071502589619
basic,49,5,0,0,0,0,[0],1,29,"[1, 2, 3, 4, 5, 6, 7, 8, 9, 10, 11, 12, 13, 14, 15, 16, 17, 18, 19, 20, 21, 22, 23, 24, 25, 26, 27, 28, 29]",300,178,-1,5,139,9,0.0
basic,49,5,0,0,0,12,"[0, 12]",2,22,"[2, 4, 5, 6, 8, 9, 10, 13, 14, 15, 16, 17, 18, 19, 21, 22, 23, 24, 25, 26, 27, 28]",228.3062067,3193,3015,1,27,9,1.0
basic,49,5,0,0,0,25,"[0, 12, 25]",3,21,"[2, 4, 5, 6, 8, 9, 10, 13, 14, 15, 16, 17, 18, 19, 21, 22, 23, 24, 26, 27, 28]",200.5213187,3800,607,1,20,9,1.584023303445617
basic,49,5,0,0,0,23,"[0, 12, 25, 23]",4,19,"[2, 4, 5, 6, 8, 9, 10, 13, 14, 15, 16, 17, 18, 19, 21, 22, 24, 26, 27]",182.0822298,4271,471,1,14,9,2.3508446989254357
basic,49,5,0,0,0,24,"[0, 12, 25, 23, 24]",5,15,"[2, 4, 5, 6, 8, 9, 13, 14, 15, 17, 18, 19, 22, 26, 27]",158.995437,5261,990,1,12,9,1.9469752046288753
basic,49,5,0,0,0,17,"[0, 12, 25, 23, 24, 17]",6,7,"[4, 5, 6, 8, 15, 18, 19]",124.0097257,7880,2619,1,8,9,1.6482276497563642
basic,49,5,0,0,0,5,"[0, 12, 25, 23, 24, 17, 5]",7,4,"[4, 6, 15, 18]",80.96323916,12451,4571,1,3,9,1.4654649104389412
basic,49,5,0,0,0,4,"[0, 12, 25, 23, 24, 17, 5, 4]",8,1,[6],15.16050365,13607,1156,1,0,9,1.6255060355828674
basic,49,5,0,0,1,6,"[0, 12, 25, 23, 24, 17, 5, 4, 6]",9,0,[],3.118909076,14186,579,1,0,9,1.7777310833772453
basic,49,5,0,1,1,6,"[0, 12, 25, 23, 24, 17, 5, 4, 6]",9,0,[],3.118909076,15797,1611,1,0,9,1.7777310833772453
basic,50,18,0,0,0,0,[0],1,28,"[1, 2, 3, 4, 5, 6, 7, 8, 9, 10, 11, 12, 13, 14, 16, 17, 18, 19, 20, 21, 22, 23, 24, 25, 26, 27, 28, 29]",300,196,-1,3,136,10,0.0
basic,50,18,0,0,0,28,"[0, 28]",2,16,"[1, 3, 5, 7, 8, 9, 12, 13, 14, 16, 20, 23, 24, 25, 26, 27]",236.4311397,10806,10610,2,19,10,1.0
basic,50,18,0,0,0,25,"[0, 28, 25]",3,14,"[1, 3, 5, 7, 8, 9, 12, 13, 14, 16, 20, 23, 26, 27]",186.9134661,13089,2283,2,31,9,1.8845138451396812
basic,50,18,0,0,0,13,"[0, 28, 25, 13]",4,11,"[3, 5, 7, 8, 9, 12, 14, 16, 23, 26, 27]",141.6365404,17807,4718,6,24,8,1.684622330813156
basic,50,18,0,0,0,8,"[0, 28, 25, 13, 8]",5,9,"[3, 5, 7, 9, 12, 14, 23, 26, 27]",120.5415173,19103,1296,2,10,8,1.897147089155967
basic,50,18,0,0,0,14,"[0, 28, 25, 13, 8, 14]",6,4,"[3, 5, 12, 27]",86.94092205,20493,1390,4,0,7,1.9004203842300824
basic,50,18,0,0,1,3,"[0, 28, 25, 13, 8, 14, 3]",7,0,[],56.85770414,22814,2321,1,0,7,1.9868386396953366
basic,50,18,0,1,1,3,"[0, 28, 25, 13, 8, 14, 3]",7,0,[],56.85770414,27865,5051,1,0,7,1.9868386396953366
basic,51,22,0,0,0,0,[0],1,29,"[1, 2, 3, 4, 5, 6, 7, 8, 9, 10, 11, 12, 13, 14, 15, 16, 17, 18, 19, 20, 21, 22, 23, 24, 25, 26, 27, 28, 29]",300,195,-1,31,704,9,0.0
basic,51,22,0,0,0,6,"[0, 6]",2,19,"[1, 3, 7, 8, 9, 11, 13, 14, 15, 16, 17, 19, 20, 21, 22, 24, 25, 28, 29]",211.3828459,5000,4805,1,73,9,1.0
basic,51,22,0,0,0,9,"[0, 6, 9]",3,17,"[1, 3, 7, 8, 13, 14, 15, 16, 17, 19, 20, 21, 22, 24, 25, 28, 29]",184.755792,5717,717,1,39,9,1.2868618423088127
basic,51,22,0,0,0,19,"[0, 6, 9, 19]",4,16,"[1, 3, 7, 8, 13, 14, 15, 16, 17, 20, 21, 22, 24, 25, 28, 29]",164.3597139,7905,2188,1,29,9,1.7035075715300563
basic,51,22,0,0,0,29,"[0, 6, 9, 19, 29]",5,14,"[1, 3, 7, 8, 13, 14, 15, 16, 17, 20, 21, 24, 25, 28]",149.3264176,9851,1946,1,21,9,1.9566347729231615
basic,51,22,0,0,0,14,"[0, 6, 9, 19, 29, 14]",6,4,"[7, 17, 24, 28]",91.07695404,10656,805,2,3,8,1.612788545319481
basic,51,22,0,0,0,7,"[0, 6, 9, 19, 29, 14, 7]",7,2,"[17, 24]",78.03854923,11885,1229,2,0,8,1.7648812834687035
basic,51,22,0,0,1,17,"[0, 6, 9, 19, 29, 14, 7, 17]",8,0,[],36.42124514,17187,5302,1,0,8,1.6679193361331097
basic,51,22,0,1,1,17,"[0, 6, 9, 19, 29, 14, 7, 17]",8,0,[],36.42124514,18480,1293,1,0,8,1.6679193361331097
basic,52,7,0,0,0,0,[0],1,29,"[1, 2, 3, 4, 5, 6, 7, 8, 9, 10, 11, 12, 13, 14, 15, 16, 17, 18, 19, 20, 21, 22, 23, 24, 25, 26, 27, 28, 29]",300,190,-1,3,79,9,0.0
basic,52,7,0,0,0,6,"[0, 6]",2,22,"[2, 4, 5, 7, 8, 9, 10, 11, 13, 14, 15, 16, 18, 19, 20, 21, 22, 23, 24, 25, 27, 28]",231.1160396,5234,5044,1,24,9,1.0
basic,52,7,0,0,0,25,"[0, 6, 25]",3,14,"[2, 4, 5, 7, 13, 14, 15, 16, 18, 19, 20, 21, 23, 28]",163.9371739,6654,1420,1,15,9,1.1491202566384209
basic,52,7,0,0,0,4,"[0, 6, 25, 4]",4,10,"[2, 7, 13, 15, 16, 18, 19, 20, 21, 23]",139.1985401,8574,1920,1,9,9,1.145081852791697
basic,52,7,0,0,0,18,"[0, 6, 25, 4, 18]",5,6,"[2, 7, 13, 16, 19, 20]",111.7394797,10271,1697,5,6,8,1.3149326533694397
basic,52,7,0,0,0,20,"[0, 6, 25, 4, 18, 20]",6,4,"[2, 7, 13, 19]",98.93323121,11359,1088,4,2,8,1.341220276534871
basic,52,7,0,0,0,7,"[0, 6, 25, 4, 18, 20, 7]",7,2,"[2, 19]",58.43631775,12408,1049,2,0,8,1.3204736452829264
basic,52,7,0,0,1,19,"[0, 6, 25, 4, 18, 20, 7, 19]",8,0,[],29.02543541,13701,1293,1,0,8,1.4324451995863865
basic,52,7,0,1,1,19,"[0, 6, 25, 4, 18, 20, 7, 19]",8,0,[],29.02543541,16264,2563,1,0,8,1.4324451995863865
basic,53,34,0,0,0,0,[0],1,25,"[1, 3, 4, 5, 6, 7, 8, 9, 10, 11, 12, 13, 15, 18, 19, 20, 21, 22, 23, 24, 25, 26, 27, 28, 29]",300,199,-1,12,367,10,0.0
basic,53,34,0,0,0,13,"[0, 13]",2,24,"[1, 3, 4, 5, 6, 7, 8, 9, 10, 11, 12, 15, 18, 19, 20, 21, 22, 23, 24, 25, 26, 27, 28, 29]",279.9750156,3895,3696,12,331,10,1.0
basic,53,34,0,0,0,1,"[0, 13, 1]",3,16,"[3, 5, 7, 8, 9, 10, 11, 12, 19, 21, 22, 23, 24, 25, 27, 29]",211.8574701,5010,1115,3,92,10,1.0010381285747127
basic,53,34,0,0,0,8,"[0, 13, 1, 8]",4,14,"[3, 5, 7, 9, 10, 11, 12, 19, 22, 23, 24, 25, 27, 29]",201.0871405,5844,834,2,54,10,1.1636807
basic,53,34,0,0,0,25,"[0, 13, 1, 8, 25]",5,12,"[3, 5, 7, 9, 10, 11, 12, 22, 23, 24, 27, 29]",183.999133,6868,1024,2,28,10,1.1396208815936457
basic,53,34,0,0,0,24,"[0, 13, 1, 8, 25, 24]",6,11,"[3, 5, 7, 9, 10, 11, 12, 22, 23, 27, 29]",166.5062774,8074,1206,2,23,10,1.374180768736554
basic,53,34,0,0,0,12,"[0, 13, 1, 8, 25, 24, 12]",7,7,"[7, 9, 10, 11, 22, 23, 27]",115.4670767,12387,4313,1,8,10,1.4994254760835948
basic,53,34,0,0,0,7,"[0, 13, 1, 8, 25, 24, 12, 7]",8,5,"[9, 11, 22, 23, 27]",100.4337804,13968,1581,1,4,10,1.758992610425009
basic,53,34,0,0,0,23,"[0, 13, 1, 8, 25, 24, 12, 7, 23]",9,1,[27],72.27352467,15672,1704,1,0,10,2.399781305190153
basic,53,34,0,0,1,27,"[0, 13, 1, 8, 25, 24, 12, 7, 23, 27]",10,0,[],18.60789321,16918,1246,1,0,10,4.766619878750327
basic,53,34,0,1,1,27,"[0, 13, 1, 8, 25, 24, 12, 7, 23, 27]",10,0,[],18.60789321,18164,1246,1,0,10,4.766619878750327
basic,54,25,0,0,0,0,[0],1,28,"[1, 2, 3, 4, 5, 7, 8, 9, 10, 11, 12, 13, 14, 15, 16, 17, 18, 19, 20, 21, 22, 23, 24, 25, 26, 27, 28, 29]",300,182,-1,5,94,10,0.0
basic,54,25,0,0,0,23,"[0, 23]",2,23,"[1, 2, 3, 5, 7, 8, 9, 11, 12, 13, 14, 16, 17, 19, 20, 21, 22, 24, 25, 26, 27, 28, 29]",259.7756293,6511,6329,3,33,10,1.0
basic,54,25,0,0,0,19,"[0, 23, 19]",3,21,"[1, 2, 3, 5, 7, 8, 9, 11, 12, 13, 14, 16, 17, 20, 21, 22, 24, 25, 27, 28, 29]",223.9287326,7929,1418,3,24,10,1.583101227007039
basic,54,25,0,0,0,29,"[0, 23, 19, 29]",4,19,"[1, 2, 3, 5, 7, 8, 9, 11, 12, 13, 14, 16, 17, 20, 21, 22, 24, 25, 28]",207.649912,8486,557,3,17,10,1.474631541426484
basic,54,25,0,0,0,22,"[0, 23, 19, 29, 22]",5,18,"[1, 2, 3, 5, 7, 8, 9, 11, 12, 13, 14, 16, 17, 20, 21, 24, 25, 28]",191.5253965,9327,841,3,14,10,1.4020377754906637
basic,54,25,0,0,0,7,"[0, 23, 19, 29, 22, 7]",6,7,"[3, 8, 9, 11, 13, 24, 28]",115.8814939,11110,1783,3,11,10,1.5709678649326715
basic,54,25,0,0,0,24,"[0, 23, 19, 29, 22, 7, 24]",7,5,"[3, 8, 9, 13, 28]",91.12265712,11919,809,3,7,10,1.486191600033379
basic,54,25,0,0,0,9,"[0, 23, 19, 29, 22, 7, 24, 9]",8,4,"[3, 8, 13, 28]",73.09490075,12903,984,3,3,10,1.453504870342882
basic,54,25,0,0,0,3,"[0, 23, 19, 29, 22, 7, 24, 9, 3]",9,3,"[8, 13, 28]",42.82940885,13925,1022,3,0,10,1.388955167525479
basic,54,25,0,0,1,13,"[0, 23, 19, 29, 22, 7, 24, 9, 3, 13]",10,0,[],11.58841014,15156,1231,1,0,10,1.4309045890044414
basic,54,25,0,1,1,13,"[0, 23, 19, 29, 22, 7, 24, 9, 3, 13]",10,0,[],11.58841014,16715,1559,1,0,10,1.4309045890044414
basic,55,33,0,0,0,0,[0],1,23,"[1, 2, 5, 7, 8, 11, 12, 13, 14, 15, 16, 17, 18, 19, 20, 21, 23, 24, 25, 26, 27, 28, 29]",300,196,-1,5,108,9,0.0
basic,55,33,0,0,0,21,"[0, 21]",2,17,"[2, 5, 7, 8, 11, 13, 14, 16, 17, 18, 19, 20, 24, 26, 27, 28, 29]",174.4611614,5547,5351,21,129,8,1.0
basic,55,33,0,0,0,17,"[0, 21, 17]",3,12,"[2, 7, 11, 13, 14, 16, 18, 19, 20, 24, 26, 29]",135.8218032,7495,1948,3,35,8,1.0302064673538902
basic,55,33,0,0,0,13,"[0, 21, 17, 13]",4,10,"[2, 7, 11, 14, 16, 19, 20, 24, 26, 29]",113.0182947,8319,824,3,18,8,1.2307555582916028
basic,55,33,0,0,0,19,"[0, 21, 17, 13, 19]",5,6,"[7, 14, 16, 24, 26, 29]",87.52319715,9579,1260,3,6,8,1.267959080158969
basic,55,33,0,0,0,7,"[0, 21, 17, 13, 19, 7]",6,3,"[14, 24, 26]",41.90521823,11253,1674,2,1,8,1.2111387775864462
basic,55,33,0,0,0,14,"[0, 21, 17, 13, 19, 7, 14]",7,1,[26],27.03914949,12652,1399,1,0,8,1.2582047812090849
basic,55,33,0,0,1,26,"[0, 21, 17, 13, 19, 7, 14, 26]",8,0,[],14.39003885,13485,833,1,0,8,1.2624145644521343
basic,55,33,0,1,1,26,"[0, 21, 17, 13, 19, 7, 14, 26]",8,0,[],14.39003885,14848,1363,1,0,8,1.2624145644521343
basic,56,11,0,0,0,0,[0],1,25,"[1, 2, 3, 4, 5, 6, 8, 9, 10, 11, 12, 13, 14, 15, 16, 17, 18, 19, 20, 22, 23, 25, 26, 27, 28]",300,198,-1,6,374,12,0.0
basic,56,11,0,0,0,18,"[0, 18]",2,21,"[1, 2, 4, 5, 6, 8, 9, 11, 12, 13, 14, 15, 16, 17, 19, 20, 22, 23, 25, 27, 28]",236.8493864,6619,6421,157,1477,11,1.0
basic,56,11,0,0,0,27,"[0, 18, 27]",3,19,"[1, 2, 4, 5, 6, 8, 9, 11, 12, 14, 15, 16, 17, 19, 20, 22, 23, 25, 28]",212.9956655,7343,724,157,1315,11,1.060949579704323
basic,56,11,0,0,0,17,"[0, 18, 27, 17]",4,14,"[1, 2, 4, 5, 6, 8, 11, 12, 15, 19, 22, 23, 25, 28]",135.9177828,8903,1560,46,349,11,1.1156120043677304
basic,56,11,0,0,0,8,"[0, 18, 27, 17, 8]",5,11,"[1, 2, 5, 6, 11, 12, 15, 19, 22, 25, 28]",121.5999617,9871,968,26,143,11,1.2285932943120847
basic,56,11,0,0,0,15,"[0, 18, 27, 17, 8, 15]",6,9,"[2, 5, 6, 11, 12, 19, 22, 25, 28]",108.1463377,10486,615,24,54,11,1.223015425852291
basic,56,11,0,0,0,11,"[0, 18, 27, 17, 8, 15, 11]",7,6,"[2, 5, 12, 19, 22, 28]",90.03556742,11185,699,22,2,11,1.2111003833550413
basic,56,11,0,0,0,28,"[0, 18, 27, 17, 8, 15, 11, 28]",8,3,"[2, 5, 22]",70.61907959,12305,1120,6,0,11,1.3274100985292616
basic,56,11,0,0,0,5,"[0, 18, 27, 17, 8, 15, 11, 28, 5]",9,2,"[2, 22]",52.73053577,13460,1155,2,0,11,1.5198534752211967
basic,56,11,0,0,0,2,"[0, 18, 27, 17, 8, 15, 11, 28, 5, 2]",10,1,[22],35.73053577,14192,732,1,0,11,1.4805999496229154
basic,56,11,0,0,1,22,"[0, 18, 27, 17, 8, 15, 11, 28, 5, 2, 22]",11,0,[],25.68066014,14926,734,1,0,11,1.4550139853626707
basic,56,11,0,1,1,22,"[0, 18, 27, 17, 8, 15, 11, 28, 5, 2, 22]",11,0,[],25.68066014,16132,1206,1,0,11,1.4550139853626707
basic,57,38,0,0,0,0,[0],1,29,"[1, 2, 3, 4, 5, 6, 7, 8, 9, 10, 11, 12, 13, 14, 15, 16, 17, 18, 19, 20, 21, 22, 23, 24, 25, 26, 27, 28, 29]",300,182,-1,33,506,9,0.0
basic,57,38,0,0,0,19,"[0, 19]",2,23,"[3, 4, 5, 6, 7, 8, 9, 11, 13, 14, 15, 16, 17, 18, 20, 22, 23, 24, 25, 26, 27, 28, 29]",219.5015528,4162,3980,6,61,9,1.0
basic,57,38,0,0,0,17,"[0, 19, 17]",3,21,"[3, 4, 5, 6, 7, 9, 11, 13, 14, 15, 16, 18, 20, 22, 23, 24, 25, 26, 27, 28, 29]",198.1239945,5588,1426,6,53,9,1.571793785769489
basic,57,38,0,0,0,20,"[0, 19, 17, 20]",4,17,"[3, 4, 5, 6, 7, 11, 13, 14, 15, 16, 18, 22, 24, 25, 26, 27, 28]",174.3542658,7153,1565,6,44,9,2.333182710277297
basic,57,38,0,0,0,11,"[0, 19, 17, 20, 11]",5,7,"[4, 5, 13, 14, 15, 16, 28]",89.6370893,10913,3760,9,3,7,2.6326232989789347
basic,57,38,0,0,0,15,"[0, 19, 17, 20, 11, 15]",6,3,"[4, 13, 16]",53.23653985,11935,1022,3,0,7,3.3630112934844765
basic,57,38,0,0,1,4,"[0, 19, 17, 20, 11, 15, 4]",7,0,[],27.23653985,12535,600,1,0,7,3.890274567029381
basic,57,38,0,1,1,4,"[0, 19, 17, 20, 11, 15, 4]",7,0,[],27.23653985,14297,1762,1,0,7,3.890274567029381
basic,58,26,0,0,0,0,[0],1,29,"[1, 2, 3, 4, 5, 6, 7, 8, 9, 10, 11, 12, 13, 14, 15, 16, 17, 18, 19, 20, 21, 22, 23, 24, 25, 26, 27, 28, 29]",300,202,-1,9,226,9,0.0
basic,58,26,0,0,0,21,"[0, 21]",2,25,"[2, 3, 4, 5, 6, 7, 8, 10, 11, 12, 13, 14, 15, 16, 17, 18, 19, 22, 23, 24, 25, 26, 27, 28, 29]",211.1349337,7388,7186,7,90,9,1.0
basic,58,26,0,0,0,16,"[0, 21, 16]",3,12,"[4, 5, 6, 10, 11, 12, 13, 14, 17, 23, 26, 29]",151.2266705,8753,1365,1,34,9,1.3289691188319968
basic,58,26,0,0,0,29,"[0, 21, 16, 29]",4,8,"[4, 5, 6, 10, 13, 14, 17, 23]",127.0192337,9771,1018,1,28,9,1.4156891800947415
basic,58,26,0,0,0,4,"[0, 21, 16, 29, 4]",5,5,"[6, 10, 14, 17, 23]",103.0192337,10305,534,1,12,9,1.6252228687746915
basic,58,26,0,0,0,17,"[0, 21, 16, 29, 4, 17]",6,3,"[6, 10, 14]",81.92421056,10945,640,1,4,9,1.534793846471065
basic,58,26,0,0,0,14,"[0, 21, 16, 29, 4, 17, 14]",7,2,"[6, 10]",59.45200551,11812,867,1,1,9,1.4926767408397108
basic,58,26,0,0,0,6,"[0, 21, 16, 29, 4, 17, 14, 6]",8,1,[10],38.42820947,12644,832,1,0,9,1.6286010900012204
basic,58,26,0,0,1,10,"[0, 21, 16, 29, 4, 17, 14, 6, 10]",9,0,[],9.153647129,13100,456,1,0,9,1.797369356615424
basic,58,26,0,1,1,10,"[0, 21, 16, 29, 4, 17, 14, 6, 10]",9,0,[],9.153647129,15834,2734,1,0,9,1.797369356615424
basic,59,3,0,0,0,0,[0],1,29,"[1, 2, 3, 4, 5, 6, 7, 8, 9, 10, 11, 12, 13, 14, 15, 16, 17, 18, 19, 20, 21, 22, 23, 24, 25, 26, 27, 28, 29]",300,196,-1,34,427,10,0.0
basic,59,3,0,0,0,24,"[0, 24]",2,27,"[1, 2, 3, 4, 5, 6, 7, 8, 9, 10, 11, 12, 13, 14, 15, 16, 17, 18, 19, 20, 21, 22, 25, 26, 27, 28, 29]",241.1442441,7153,6957,1,40,10,1.0
basic,59,3,0,0,0,8,"[0, 24, 8]",3,25,"[1, 2, 3, 4, 5, 6, 7, 10, 11, 12, 13, 14, 15, 16, 17, 18, 19, 20, 21, 22, 25, 26, 27, 28, 29]",228.9787191,8456,1303,1,35,10,1.1830309580440148
basic,59,3,0,0,0,14,"[0, 24, 8, 14]",4,10,"[3, 4, 7, 10, 16, 17, 19, 20, 21, 22]",153.5267476,11536,3080,10,29,9,1.138053306582185
basic,59,3,0,0,0,21,"[0, 24, 8, 14, 21]",5,6,"[3, 4, 10, 17, 19, 20]",126.6194995,12135,599,5,7,9,1.1275364574286015
basic,59,3,0,0,0,19,"[0, 24, 8, 14, 21, 19]",6,5,"[3, 4, 10, 17, 20]",114.4129439,14955,2820,5,2,9,1.257531130859597
basic,59,3,0,0,0,3,"[0, 24, 8, 14, 21, 19, 3]",7,2,"[17, 20]",77.07663447,15985,1030,2,0,9,1.7819619244725113
basic,59,3,0,0,0,20,"[0, 24, 8, 14, 21, 19, 3, 20]",8,1,[17],56.68055641,16969,984,1,0,9,2.1491497669132142
basic,59,3,0,0,1,17,"[0, 24, 8, 14, 21, 19, 3, 20, 17]",9,0,[],44.03144577,18421,1452,1,0,9,2.502051532685618
basic,59,3,0,1,1,17,"[0, 24, 8, 14, 21, 19, 3, 20, 17]",9,0,[],44.03144577,21414,2993,1,0,9,2.502051532685618
basic,60,4,0,0,0,0,[0],1,26,"[3, 4, 5, 6, 7, 8, 10, 11, 12, 13, 14, 15, 16, 17, 18, 19, 20, 21, 22, 23, 24, 25, 26, 27, 28, 29]",300,201,-1,4,489,10,0.0
basic,60,4,0,0,0,28,"[0, 28]",2,21,"[3, 4, 5, 6, 10, 11, 12, 13, 14, 15, 16, 17, 19, 20, 21, 22, 23, 24, 25, 26, 27]",225.9392142,4295,4094,2,216,10,1.0
basic,60,4,0,0,0,14,"[0, 28, 14]",3,13,"[3, 4, 5, 6, 11, 13, 16, 17, 20, 21, 22, 24, 25]",159.6972335,5507,1212,1,26,10,1.0273973946789214
basic,60,4,0,0,0,25,"[0, 28, 14, 25]",4,12,"[3, 4, 5, 6, 11, 13, 16, 17, 20, 21, 22, 24]",143.572718,6685,1178,1,25,10,1.233547772313525
basic,60,4,0,0,0,11,"[0, 28, 14, 25, 11]",5,10,"[3, 4, 5, 6, 13, 16, 17, 20, 21, 22]",124.7844238,8436,1751,1,15,10,1.425978575879479
basic,60,4,0,0,0,16,"[0, 28, 14, 25, 11, 16]",6,9,"[3, 4, 5, 6, 13, 17, 20, 21, 22]",109.7844238,9322,886,1,12,10,1.3799325158051412
basic,60,4,0,0,0,17,"[0, 28, 14, 25, 11, 16, 17]",7,5,"[3, 5, 20, 21, 22]",83.70761416,9937,615,1,5,10,1.3195184878861832
basic,60,4,0,0,0,21,"[0, 28, 14, 25, 11, 16, 17, 21]",8,1,[22],34.45317274,11454,1517,1,0,9,1.7966566629354186
basic,60,4,0,0,1,22,"[0, 28, 14, 25, 11, 16, 17, 21, 22]",9,0,[],23.40781172,12047,593,1,0,9,1.7433011729935863
basic,60,4,0,1,1,22,"[0, 28, 14, 25, 11, 16, 17, 21, 22]",9,0,[],23.40781172,61284,49237,1,0,9,1.7433011729935863
basic,61,37,0,0,0,0,[0],1,29,"[1, 2, 3, 4, 5, 6, 7, 8, 9, 10, 11, 12, 13, 14, 15, 16, 17, 18, 19, 20, 21, 22, 23, 24, 25, 26, 27, 28, 29]",300,197,-1,6,168,10,0.0
basic,61,37,0,0,0,19,"[0, 19]",2,19,"[1, 2, 4, 5, 6, 7, 9, 10, 11, 15, 17, 18, 20, 21, 22, 25, 26, 28, 29]",185.6627795,30585,30388,25,244,9,1.0
basic,61,37,0,0,0,21,"[0, 19, 21]",3,14,"[1, 2, 4, 7, 10, 11, 15, 17, 18, 20, 22, 25, 26, 29]",144.5531699,31724,1139,10,75,9,1.001632816594558
basic,61,37,0,0,0,20,"[0, 19, 21, 20]",4,9,"[1, 2, 4, 7, 15, 18, 22, 26, 29]",130.1309648,32603,879,4,34,9,1.1332411810100422
basic,61,37,0,0,0,15,"[0, 19, 21, 20, 15]",5,8,"[1, 2, 4, 7, 18, 22, 26, 29]",113.1309648,33535,932,4,11,9,1.1230304972303446
basic,61,37,0,0,0,1,"[0, 19, 21, 20, 15, 1]",6,5,"[2, 4, 7, 18, 22]",73.16848237,35874,2339,4,3,9,1.4327471194915349
basic,61,37,0,0,0,2,"[0, 19, 21, 20, 15, 1, 2]",7,3,"[4, 7, 22]",55.96383184,36462,588,2,1,9,1.6142938316493505
basic,61,37,0,0,0,4,"[0, 19, 21, 20, 15, 1, 2, 4]",8,1,[22],44.56207759,37386,924,1,0,9,1.5716058080933497
basic,61,37,0,0,1,22,"[0, 19, 21, 20, 15, 1, 2, 4, 22]",9,0,[],19.56207759,38211,825,1,0,9,1.722001818199419
basic,61,37,0,1,1,22,"[0, 19, 21, 20, 15, 1, 2, 4, 22]",9,0,[],19.56207759,39948,1737,1,0,9,1.722001818199419
basic,62,45,0,0,0,0,[0],1,24,"[1, 2, 3, 4, 5, 6, 7, 9, 10, 11, 12, 14, 15, 16, 17, 19, 20, 21, 22, 23, 24, 25, 27, 29]",300,199,-1,6,248,10,0.0
basic,62,45,0,0,0,17,"[0, 17]",2,22,"[1, 2, 3, 4, 5, 6, 7, 9, 10, 11, 12, 14, 15, 16, 19, 20, 21, 22, 23, 24, 25, 29]",235.867325,8605,8406,1,34,10,1.0
basic,62,45,0,0,0,24,"[0, 17, 24]",3,20,"[1, 2, 3, 4, 5, 6, 7, 9, 10, 11, 12, 14, 15, 16, 19, 20, 21, 22, 23, 29]",193.8078433,10529,1924,1,33,10,1.0309432256229287
basic,62,45,0,0,0,7,"[0, 17, 24, 7]",4,18,"[1, 2, 3, 4, 5, 6, 9, 10, 12, 14, 15, 16, 19, 20, 21, 22, 23, 29]",159.3985423,12270,1741,1,32,10,1.059763151913087
basic,62,45,0,0,0,2,"[0, 17, 24, 7, 2]",5,12,"[3, 4, 6, 10, 12, 14, 16, 19, 20, 22, 23, 29]",121.3853866,14310,2040,1,23,10,1.0656581932115423
basic,62,45,0,0,0,3,"[0, 17, 24, 7, 2, 3]",6,8,"[6, 10, 12, 14, 16, 20, 22, 29]",96.06740884,15155,845,1,13,10,1.1368250049574795
basic,62,45,0,0,0,29,"[0, 17, 24, 7, 2, 3, 29]",7,5,"[6, 10, 12, 20, 22]",76.06740884,16129,974,1,5,10,1.390376182346372
basic,62,45,0,0,0,10,"[0, 17, 24, 7, 2, 3, 29, 10]",8,2,"[6, 12]",54.52674961,16913,784,1,1,10,1.6682270697663164
basic,62,45,0,0,0,6,"[0, 17, 24, 7, 2, 3, 29, 10, 6]",9,1,[12],28.27794012,18102,1189,1,0,10,1.5776211572942243
basic,62,45,0,0,1,12,"[0, 17, 24, 7, 2, 3, 29, 10, 6, 12]",10,0,[],8.15332832,19502,1400,1,0,10,1.536035114105263
basic,62,45,0,1,1,12,"[0, 17, 24, 7, 2, 3, 29, 10, 6, 12]",10,0,[],8.15332832,30683,11181,1,0,10,1.536035114105263
basic,63,24,0,0,0,0,[0],1,29,"[1, 2, 3, 4, 5, 6, 7, 8, 9, 10, 11, 12, 13, 14, 15, 16, 17, 18, 19, 20, 21, 22, 23, 24, 25, 26, 27, 28, 29]",300,180,-1,4,76,10,0.0
basic,63,24,0,0,0,16,"[0, 16]",2,28,"[1, 2, 3, 4, 5, 6, 7, 8, 9, 10, 11, 12, 13, 14, 15, 17, 18, 19, 20, 21, 22, 23, 24, 25, 26, 27, 28, 29]",210.3562607,4673,4493,13,110,9,1.0
basic,63,24,0,0,0,22,"[0, 16, 22]",3,27,"[1, 2, 3, 4, 5, 6, 7, 8, 9, 10, 11, 12, 13, 14, 15, 17, 18, 19, 20, 21, 23, 24, 25, 26, 27, 28, 29]",192.3285043,5206,533,7,54,9,1.0217425143037777
basic,63,24,0,0,0,8,"[0, 16, 22, 8]",4,21,"[1, 2, 3, 4, 6, 9, 10, 11, 13, 14, 15, 17, 20, 21, 23, 24, 25, 26, 27, 28, 29]",178.9120964,6367,1161,4,28,9,1.0996636936037951
basic,63,24,0,0,0,15,"[0, 16, 22, 8, 15]",5,16,"[3, 4, 6, 9, 10, 11, 13, 14, 17, 23, 24, 25, 26, 27, 28, 29]",148.025206,7209,842,3,17,9,1.2704773343758617
basic,63,24,0,0,0,28,"[0, 16, 22, 8, 15, 28]",6,8,"[3, 4, 9, 11, 13, 23, 26, 27]",102.7482803,8167,958,3,5,9,1.1981967578189556
basic,63,24,0,0,0,23,"[0, 16, 22, 8, 15, 28, 23]",7,3,"[9, 11, 27]",83.72198273,10389,2222,3,1,9,1.2275650852813986
basic,63,24,0,0,0,11,"[0, 16, 22, 8, 15, 28, 23, 11]",8,2,"[9, 27]",56.79615869,11401,1012,2,0,9,1.2107937989822568
basic,63,24,0,0,1,9,"[0, 16, 22, 8, 15, 28, 23, 11, 9]",9,0,[],24.5471277,13956,2555,1,0,9,1.2976612913524237
basic,63,24,0,1,1,9,"[0, 16, 22, 8, 15, 28, 23, 11, 9]",9,0,[],24.5471277,15413,1457,1,0,9,1.2976612913524237
basic,64,2,0,0,0,0,[0],1,23,"[1, 2, 4, 5, 6, 7, 8, 9, 12, 13, 15, 16, 17, 18, 19, 20, 22, 23, 25, 26, 27, 28, 29]",300,197,-1,70,620,10,0.0
basic,64,2,0,0,0,19,"[0, 19]",2,22,"[1, 2, 4, 5, 6, 7, 8, 9, 12, 13, 15, 16, 17, 18, 20, 22, 23, 25, 26, 27, 28, 29]",210.306076,5397,5200,67,431,10,1.0
basic,64,2,0,0,0,12,"[0, 19, 12]",3,17,"[1, 4, 5, 6, 7, 13, 15, 16, 17, 18, 20, 22, 25, 26, 27, 28, 29]",174.2921898,7045,1648,66,298,10,1.1107635036313153
basic,64,2,0,0,0,5,"[0, 19, 12, 5]",4,11,"[1, 6, 7, 13, 15, 16, 18, 22, 25, 26, 29]",144.7625437,8802,1757,38,136,10,1.0968174771581647
basic,64,2,0,0,0,22,"[0, 19, 12, 5, 22]",5,8,"[1, 6, 7, 13, 15, 18, 26, 29]",131.9562952,9621,819,20,63,10,1.0889910507461968
basic,64,2,0,0,0,13,"[0, 19, 12, 5, 22, 13]",6,7,"[1, 6, 7, 15, 18, 26, 29]",117.0902265,10760,1139,19,20,10,1.236526217328057
basic,64,2,0,0,0,18,"[0, 19, 12, 5, 22, 13, 18]",7,4,"[7, 15, 26, 29]",81.91921567,11913,1153,10,3,10,1.2128708213409936
basic,64,2,0,0,0,7,"[0, 19, 12, 5, 22, 13, 18, 7]",8,3,"[15, 26, 29]",71.62358553,14610,2697,5,0,10,1.2019811287894737
basic,64,2,0,0,0,15,"[0, 19, 12, 5, 22, 13, 18, 7, 15]",9,2,"[26, 29]",56.85876247,15548,938,2,0,10,1.2907869828541363
basic,64,2,0,0,1,29,"[0, 19, 12, 5, 22, 13, 18, 7, 15, 29]",10,0,[],28.39826353,19694,4146,1,0,10,1.4795089334237532
basic,64,2,0,1,1,29,"[0, 19, 12, 5, 22, 13, 18, 7, 15, 29]",10,0,[],28.39826353,21532,1838,1,0,10,1.4795089334237532
basic,65,15,0,0,0,0,[0],1,25,"[1, 2, 3, 4, 7, 8, 9, 10, 11, 12, 13, 14, 15, 16, 18, 20, 21, 22, 23, 24, 25, 26, 27, 28, 29]",300,183,-1,4,65,9,0.0
basic,65,15,0,0,0,12,"[0, 12]",2,22,"[1, 2, 3, 4, 7, 8, 9, 10, 11, 13, 14, 15, 16, 18, 21, 22, 23, 24, 26, 27, 28, 29]",213.547701,8278,8095,4,35,9,1.0
basic,65,15,0,0,0,7,"[0, 12, 7]",3,16,"[1, 3, 4, 8, 9, 10, 11, 13, 14, 15, 16, 18, 21, 22, 24, 27]",180.3061607,9097,819,4,29,9,1.411291635294361
basic,65,15,0,0,0,16,"[0, 12, 7, 16]",4,10,"[3, 4, 10, 11, 13, 14, 15, 18, 21, 22]",136.6484008,10805,1708,2,11,9,1.4308733430458784
basic,65,15,0,0,0,11,"[0, 12, 7, 16, 11]",5,7,"[3, 4, 13, 14, 15, 21, 22]",110.6291772,11702,897,2,5,9,1.5251025438826007
basic,65,15,0,0,0,22,"[0, 12, 7, 16, 11, 22]",6,2,"[13, 15]",49.49817031,13225,1523,2,0,8,1.451971055327115
basic,65,15,0,0,0,15,"[0, 12, 7, 16, 11, 22, 15]",7,1,[13],23.88567336,14520,1295,1,0,8,1.406022509302162
basic,65,15,0,0,1,13,"[0, 12, 7, 16, 11, 22, 15, 13]",8,0,[],8.621335834,15429,909,1,0,8,1.454422899975916
basic,65,15,0,1,1,13,"[0, 12, 7, 16, 11, 22, 15, 13]",8,0,[],8.621335834,17081,1652,1,0,8,1.454422899975916
basic,66,36,0,0,0,0,[0],1,24,"[2, 4, 5, 6, 7, 8, 9, 10, 12, 13, 14, 15, 16, 17, 18, 19, 20, 22, 23, 25, 26, 27, 28, 29]",300,201,-1,2,200,10,0.0
basic,66,36,0,0,0,12,"[0, 12]",2,23,"[2, 4, 5, 6, 7, 8, 9, 10, 13, 14, 15, 16, 17, 18, 19, 20, 22, 23, 25, 26, 27, 28, 29]",277.7963967,3336,3135,90,804,9,1.0
basic,66,36,0,0,0,9,"[0, 12, 9]",3,14,"[2, 4, 8, 10, 13, 16, 17, 18, 19, 23, 25, 27, 28, 29]",215.4345494,5335,1999,32,191,9,1.224429481246385
basic,66,36,0,0,0,16,"[0, 12, 9, 16]",4,8,"[2, 10, 13, 17, 18, 19, 23, 25]",168.137615,6684,1349,7,26,9,1.235383731443557
basic,66,36,0,0,0,17,"[0, 12, 9, 16, 17]",5,6,"[2, 10, 13, 18, 19, 25]",139.8180105,7572,888,7,14,9,1.6947865799475665
basic,66,36,0,0,0,19,"[0, 12, 9, 16, 17, 19]",6,5,"[2, 10, 13, 18, 25]",111.9253591,8440,868,6,1,9,2.440059772477113
basic,66,36,0,0,0,2,"[0, 12, 9, 16, 17, 19, 2]",7,2,"[13, 25]",74.80393675,9254,814,2,0,9,1.994135267441798
basic,66,36,0,0,0,25,"[0, 12, 9, 16, 17, 19, 2, 25]",8,1,[13],49.80393675,10219,965,1,0,9,2.1853059870598197
basic,66,36,0,0,1,13,"[0, 12, 9, 16, 17, 19, 2, 25, 13]",9,0,[],29.21267647,11107,888,1,0,9,2.7608371719978186
basic,66,36,0,1,1,13,"[0, 12, 9, 16, 17, 19, 2, 25, 13]",9,0,[],29.21267647,12681,1574,1,0,9,2.7608371719978186
basic,67,19,0,0,0,0,[0],1,29,"[1, 2, 3, 4, 5, 6, 7, 8, 9, 10, 11, 12, 13, 14, 15, 16, 17, 18, 19, 20, 21, 22, 23, 24, 25, 26, 27, 28, 29]",300,202,-1,12,149,8,0.0
basic,67,19,0,0,0,28,"[0, 28]",2,10,"[4, 6, 9, 10, 11, 14, 20, 22, 24, 27]",136.1219966,19446,19244,2,14,7,1.0
basic,67,19,0,0,0,4,"[0, 28, 4]",3,9,"[6, 9, 10, 11, 14, 20, 22, 24, 27]",124.9416567,20405,959,2,10,7,1.0622089009735736
basic,67,19,0,0,0,14,"[0, 28, 4, 14]",4,5,"[6, 11, 20, 22, 24]",74.93165771,21686,1281,2,3,7,1.0762539106237072
basic,67,19,0,0,0,11,"[0, 28, 4, 14, 11]",5,3,"[20, 22, 24]",64.11500388,24681,2995,2,1,7,1.0758449982739315
basic,67,19,0,0,0,20,"[0, 28, 4, 14, 11, 20]",6,1,[22],16.31333027,25643,962,1,0,7,1.254808614269969
basic,67,19,0,0,1,22,"[0, 28, 4, 14, 11, 20, 22]",7,0,[],3.160383832,26148,505,1,0,7,1.3933675480175218
basic,67,19,0,1,1,22,"[0, 28, 4, 14, 11, 20, 22]",7,0,[],3.160383832,28166,2018,1,0,7,1.3933675480175218
basic,68,0,0,0,0,0,[0],1,27,"[2, 3, 4, 5, 6, 7, 8, 9, 10, 11, 12, 13, 14, 15, 16, 17, 19, 20, 21, 22, 23, 24, 25, 26, 27, 28, 29]",300,179,-1,104,1136,9,0.0
basic,68,0,0,0,0,28,"[0, 28]",2,26,"[2, 3, 4, 5, 6, 7, 8, 9, 10, 11, 12, 13, 14, 15, 16, 17, 19, 20, 21, 22, 23, 24, 25, 26, 27, 29]",194.9190788,6137,5958,39,388,9,1.0
basic,68,0,0,0,0,5,"[0, 28, 5]",3,21,"[2, 3, 4, 7, 8, 9, 11, 12, 13, 14, 15, 16, 17, 19, 20, 21, 23, 24, 25, 26, 29]",151.2613189,6909,772,27,210,9,1.0978295127671733
basic,68,0,0,0,0,26,"[0, 28, 5, 26]",4,15,"[3, 4, 7, 8, 9, 11, 12, 13, 14, 15, 17, 19, 20, 23, 24]",115.8212286,7951,1042,5,35,9,1.1400379746718978
basic,68,0,0,0,0,4,"[0, 28, 5, 26, 4]",5,12,"[3, 7, 8, 9, 11, 12, 15, 17, 19, 20, 23, 24]",103.779634,8702,751,4,17,9,1.2534780347343448
basic,68,0,0,0,0,24,"[0, 28, 5, 26, 4, 24]",6,9,"[3, 7, 8, 9, 11, 12, 15, 17, 19]",92.37787977,9287,585,4,12,9,1.2444963062448124
basic,68,0,0,0,0,15,"[0, 28, 5, 26, 4, 24, 15]",7,6,"[3, 7, 8, 9, 11, 17]",69.03264471,10001,714,3,4,9,1.2218613820858855
basic,68,0,0,0,0,7,"[0, 28, 5, 26, 4, 24, 15, 7]",8,2,"[3, 8]",37.96819558,10643,642,2,0,9,1.2781430976973103
basic,68,0,0,0,1,8,"[0, 28, 5, 26, 4, 24, 15, 7, 8]",9,0,[],18.8632224,11310,667,1,0,9,1.263743502581705
basic,68,0,0,1,1,8,"[0, 28, 5, 26, 4, 24, 15, 7, 8]",9,0,[],18.8632224,13947,2637,1,0,9,1.263743502581705
undo,69,12,0,0,0,0,[0],1,29,"[1, 2, 3, 4, 5, 6, 7, 8, 9, 10, 11, 12, 13, 14, 15, 16, 17, 18, 19, 20, 21, 22, 23, 24, 25, 26, 27, 28, 29]",300,249,-1,2,32,9,0.0
undo,69,12,0,0,0,22,"[0, 22]",2,22,"[2, 4, 5, 6, 7, 9, 10, 12, 13, 14, 15, 16, 17, 18, 19, 21, 23, 24, 25, 27, 28, 29]",211.9943184,11777,11528,6,42,8,1.0
undo,69,12,0,0,0,16,"[0, 22, 16]",3,12,"[2, 4, 5, 6, 7, 12, 14, 19, 23, 24, 25, 27]",190.9943184,12949,1172,6,24,8,1.2017164145167045
undo,69,12,0,0,0,4,"[0, 22, 16, 4]",4,9,"[2, 6, 7, 12, 14, 19, 24, 25, 27]",156.7890556,13738,789,6,14,8,1.146531713305579
undo,69,12,0,0,0,12,"[0, 22, 16, 4, 12]",5,4,"[14, 19, 24, 27]",114.5990094,14627,889,4,3,8,1.1221389456954312
undo,69,12,0,0,0,27,"[0, 22, 16, 4, 12, 27]",6,3,"[14, 19, 24]",90.24741807,15555,928,2,1,8,1.2262878338287035
undo,69,12,0,0,0,14,"[0, 22, 16, 4, 12, 27, 14]",7,1,[24],61.59432051,16962,1407,1,0,8,1.2804562106751427
undo,69,12,0,0,1,24,"[0, 22, 16, 4, 12, 27, 14, 24]",8,0,[],44.38966997,17534,572,1,0,8,1.4322660007679802
undo,69,12,0,1,1,24,"[0, 22, 16, 4, 12, 27, 14, 24]",8,0,[],44.38966997,19784,2250,1,0,8,1.4322660007679802
undo,70,27,0,0,0,0,[0],1,26,"[1, 3, 5, 6, 7, 8, 9, 10, 11, 12, 13, 14, 15, 16, 17, 18, 19, 21, 22, 23, 24, 25, 26, 27, 28, 29]",300,179,-1,13,578,11,0.0
undo,70,27,0,0,0,15,"[0, 15]",2,24,"[1, 3, 5, 6, 7, 8, 9, 10, 11, 12, 13, 14, 16, 17, 18, 19, 21, 22, 23, 24, 25, 26, 27, 29]",263.7508621,2558,2379,6,219,11,1.0
undo,70,27,0,0,0,24,"[0, 15, 24]",3,20,"[1, 5, 6, 7, 8, 9, 10, 12, 13, 14, 16, 17, 18, 19, 21, 23, 25, 26, 27, 29]",246.5462115,3835,1277,6,130,11,1.130933077698322
undo,70,27,0,0,0,17,"[0, 15, 24, 17]",4,15,"[1, 6, 8, 10, 12, 13, 14, 16, 18, 19, 23, 25, 26, 27, 29]",229.9932662,4887,1052,4,60,11,1.1285538435963374
undo,70,27,0,0,0,12,"[0, 15, 24, 17, 12]",5,14,"[1, 6, 8, 10, 13, 14, 16, 18, 19, 23, 25, 26, 27, 29]",218.8129263,5918,1031,2,32,11,1.2561880288755216
undo,70,27,0,0,0,10,"[0, 15, 24, 17, 12, 10]",6,11,"[1, 8, 13, 14, 18, 19, 23, 25, 26, 27, 29]",207.7675653,6850,932,2,28,11,1.2228289337766665
undo,70,27,0,0,0,13,"[0, 15, 24, 17, 12, 10, 13]",7,9,"[1, 8, 14, 18, 19, 23, 26, 27, 29]",167.9178476,10134,3284,2,18,11,1.3421291994761178
undo,70,27,0,0,0,19,"[0, 15, 24, 17, 12, 10, 13, 19]",8,5,"[1, 8, 14, 23, 29]",131.6825057,11634,1500,2,6,11,1.294749956153846
undo,70,27,0,0,0,8,"[0, 15, 24, 17, 12, 10, 13, 19, 8]",9,3,"[14, 23, 29]",116.816437,12291,657,2,1,11,1.3554286578836865
undo,70,27,0,0,0,29,"[0, 15, 24, 17, 12, 10, 13, 19, 8, 29]",10,1,[14],57.61339652,15577,3286,1,0,11,1.248354519573802
undo,70,27,0,0,1,14,"[0, 15, 24, 17, 12, 10, 13, 19, 8, 29, 14]",11,0,[],13.31892734,16671,1094,1,0,11,1.562811097555156
undo,70,27,0,1,1,14,"[0, 15, 24, 17, 12, 10, 13, 19, 8, 29, 14]",11,0,[],13.31892734,17864,1193,1,0,11,1.562811097555156
undo,71,38,0,0,0,0,[0],1,29,"[1, 2, 3, 4, 5, 6, 7, 8, 9, 10, 11, 12, 13, 14, 15, 16, 17, 18, 19, 20, 21, 22, 23, 24, 25, 26, 27, 28, 29]",300,246,-1,33,506,9,0.0
undo,71,38,0,0,0,19,"[0, 19]",2,23,"[3, 4, 5, 6, 7, 8, 9, 11, 13, 14, 15, 16, 17, 18, 20, 22, 23, 24, 25, 26, 27, 28, 29]",219.5015528,6535,6289,6,61,9,1.0
undo,71,38,0,0,0,17,"[0, 19, 17]",3,21,"[3, 4, 5, 6, 7, 9, 11, 13, 14, 15, 16, 18, 20, 22, 23, 24, 25, 26, 27, 28, 29]",198.1239945,8588,2053,6,53,9,1.571793785769489
undo,71,38,0,0,0,20,"[0, 19, 17, 20]",4,17,"[3, 4, 5, 6, 7, 11, 13, 14, 15, 16, 18, 22, 24, 25, 26, 27, 28]",174.3542658,9810,1222,6,44,9,2.333182710277297
undo,71,38,0,0,0,4,"[0, 19, 17, 20, 4]",5,10,"[5, 11, 13, 14, 15, 16, 24, 26, 27, 28]",140.4131403,11301,1491,5,22,9,2.276099229646013
undo,71,38,0,0,0,15,"[0, 19, 17, 20, 4, 15]",6,8,"[5, 11, 13, 14, 16, 24, 26, 28]",114.4131403,12079,778,5,6,9,2.5292671156176403
undo,71,38,0,0,0,16,"[0, 19, 17, 20, 4, 15, 16]",7,2,"[11, 28]",72.79583625,13210,1131,2,0,9,2.0765047644693917
undo,71,38,0,0,0,28,"[0, 19, 17, 20, 4, 15, 16, 28]",8,1,[11],43.79583625,14636,1426,1,0,9,2.3990457975039625
undo,71,38,0,0,1,11,"[0, 19, 17, 20, 4, 15, 16, 28, 11]",9,0,[],16.77732407,16219,1583,1,0,9,3.5444395258240657
undo,71,38,0,1,1,11,"[0, 19, 17, 20, 4, 15, 16, 28, 11]",9,0,[],16.77732407,17531,1312,1,0,9,3.5444395258240657
undo,72,0,0,0,0,0,[0],1,27,"[2, 3, 4, 5, 6, 7, 8, 9, 10, 11, 12, 13, 14, 15, 16, 17, 19, 20, 21, 22, 23, 24, 25, 26, 27, 28, 29]",300,179,-1,104,1136,9,0.0
undo,72,0,0,0,0,20,"[0, 20]",2,25,"[2, 3, 4, 5, 6, 7, 8, 9, 11, 12, 13, 14, 15, 16, 17, 19, 21, 22, 23, 24, 25, 26, 27, 28, 29]",215.4955622,2074,1895,36,372,9,1.0
undo,72,0,0,0,0,5,"[0, 20, 5]",3,22,"[2, 3, 4, 7, 8, 9, 11, 12, 13, 14, 15, 16, 17, 19, 21, 22, 23, 24, 25, 26, 28, 29]",153.2942761,3652,1578,33,251,9,1.0828244018179105
undo,72,0,0,0,0,4,"[0, 20, 5, 4]",4,19,"[2, 3, 7, 8, 9, 11, 12, 13, 14, 15, 17, 19, 21, 22, 23, 24, 25, 26, 28]",128.2144037,5068,1416,21,127,9,1.0973859443611045
undo,72,0,0,0,0,26,"[0, 20, 5, 4, 26]",5,14,"[3, 7, 8, 9, 11, 12, 13, 14, 15, 17, 19, 23, 24, 28]",116.1728091,5702,634,9,63,9,1.1378617460104323
undo,72,0,0,0,0,24,"[0, 20, 5, 4, 26, 24]",6,11,"[3, 7, 8, 9, 11, 12, 15, 17, 19, 23, 28]",99.05556633,6745,1043,9,24,9,1.204469953325506
undo,72,0,0,0,0,15,"[0, 20, 5, 4, 26, 24, 15]",7,8,"[3, 7, 8, 9, 11, 12, 17, 19]",75.71033127,7952,1207,5,6,9,1.1865351459643638
undo,72,0,0,0,0,8,"[0, 20, 5, 4, 26, 24, 15, 8]",8,3,"[3, 7, 19]",36.59511684,9296,1344,3,0,9,1.1840365123461638
undo,72,0,0,0,1,7,"[0, 20, 5, 4, 26, 24, 15, 8, 7]",9,0,[],17.49014367,10291,995,1,0,9,1.3780312802062573
undo,72,0,0,1,1,7,"[0, 20, 5, 4, 26, 24, 15, 8, 7]",9,0,[],17.49014367,12565,2274,1,0,9,1.3780312802062573
undo,73,1,0,0,0,0,[0],1,26,"[1, 2, 4, 5, 7, 8, 9, 10, 11, 12, 13, 14, 15, 16, 17, 18, 19, 20, 21, 22, 23, 24, 25, 26, 28, 29]",300,196,-1,6,74,7,0.0
undo,73,1,0,0,0,14,"[0, 14]",2,19,"[1, 4, 5, 8, 9, 13, 15, 17, 18, 19, 20, 21, 22, 23, 24, 25, 26, 28, 29]",200.1901808,5595,5399,5,42,7,1.0
undo,73,1,0,0,0,17,"[0, 14, 17]",3,15,"[1, 4, 5, 8, 9, 13, 15, 18, 19, 20, 22, 23, 25, 28, 29]",147.8356204,7547,1952,5,27,7,1.0028844724416826
undo,73,1,0,0,0,1,"[0, 14, 17, 1]",4,12,"[4, 5, 8, 9, 15, 18, 20, 22, 23, 25, 28, 29]",123.4840291,9045,1498,5,15,7,1.0264985578353567
undo,73,1,0,0,0,28,"[0, 14, 17, 1, 28]",5,5,"[9, 15, 22, 23, 29]",88.59850198,11351,2306,5,3,7,1.0339861575999345
undo,73,1,0,0,0,15,"[0, 14, 17, 1, 28, 15]",6,3,"[22, 23, 29]",53.37067208,12344,993,3,0,7,1.055553419196412
undo,73,1,0,0,1,29,"[0, 14, 17, 1, 28, 15, 29]",7,0,[],2.380476941,13671,1327,1,0,7,1.3046462564448444
undo,73,1,0,1,1,29,"[0, 14, 17, 1, 28, 15, 29]",7,0,[],2.380476941,15031,1360,1,0,7,1.3046462564448444
undo,74,41,0,0,0,0,[0],1,29,"[1, 2, 3, 4, 5, 6, 7, 8, 9, 10, 11, 12, 13, 14, 15, 16, 17, 18, 19, 20, 21, 22, 23, 24, 25, 26, 27, 28, 29]",300,194,-1,1,143,10,0.0
undo,74,41,0,0,0,13,"[0, 13]",2,23,"[1, 2, 3, 5, 6, 7, 9, 10, 11, 12, 14, 15, 17, 18, 19, 20, 21, 22, 24, 25, 26, 27, 28]",258.2747079,3524,3330,1,55,10,1.0
undo,74,41,0,0,0,28,"[0, 13, 28]",3,22,"[1, 2, 3, 5, 6, 7, 9, 10, 11, 12, 14, 15, 17, 18, 19, 20, 21, 22, 24, 25, 26, 27]",223.7928286,4784,1260,1,39,10,1.895724242592676
undo,74,41,0,0,0,5,"[0, 13, 28, 5]",4,19,"[1, 2, 3, 6, 9, 10, 11, 12, 14, 15, 17, 18, 19, 20, 21, 22, 24, 25, 27]",210.1913581,5932,1148,1,34,10,2.861541269398273
undo,74,41,0,0,0,3,"[0, 13, 28, 5, 3]",5,16,"[1, 2, 6, 9, 10, 12, 14, 17, 18, 19, 20, 21, 22, 24, 25, 27]",175.3632086,7315,1383,1,22,10,3.1455488489005883
undo,74,41,0,0,0,21,"[0, 13, 28, 5, 3, 21]",6,14,"[1, 2, 6, 9, 10, 12, 14, 17, 18, 19, 20, 22, 25, 27]",143.2228912,8366,1051,13,11,9,3.207558429289677
undo,74,41,0,0,0,9,"[0, 13, 28, 5, 3, 21, 9]",7,6,"[1, 2, 10, 12, 14, 17]",93.85691102,9733,1367,7,4,9,2.5050148501792275
undo,74,41,0,0,0,2,"[0, 13, 28, 5, 3, 21, 9, 2]",8,5,"[1, 10, 12, 14, 17]",81.77386505,10775,1042,5,0,9,2.4119643847713177
undo,74,41,0,0,1,17,"[0, 13, 28, 5, 3, 21, 9, 2, 17]",9,0,[],49.21622385,12609,1834,1,0,9,3.9563478735796007
undo,74,41,0,1,1,17,"[0, 13, 28, 5, 3, 21, 9, 2, 17]",9,0,[],49.21622385,15896,3287,1,0,9,3.9563478735796007
undo,75,29,0,0,0,0,[0],1,29,"[1, 2, 3, 4, 5, 6, 7, 8, 9, 10, 11, 12, 13, 14, 15, 16, 17, 18, 19, 20, 21, 22, 23, 24, 25, 26, 27, 28, 29]",300,196,-1,1,78,9,0.0
undo,75,29,0,0,0,25,"[0, 25]",2,18,"[1, 2, 4, 5, 6, 7, 9, 10, 12, 13, 14, 15, 16, 17, 22, 26, 27, 28]",223.3449284,5235,5039,13,101,8,1.0
undo,75,29,0,0,0,17,"[0, 25, 17]",3,13,"[1, 4, 5, 6, 7, 9, 10, 12, 13, 14, 22, 27, 28]",188.41643,6240,1005,2,22,8,1.014228463693056
undo,75,29,0,0,0,1,"[0, 25, 17, 1]",4,11,"[4, 5, 6, 7, 10, 12, 13, 14, 22, 27, 28]",149.5191293,7501,1261,2,18,8,1.7553639368828857
undo,75,29,0,0,0,14,"[0, 25, 17, 1, 14]",5,8,"[4, 5, 7, 12, 13, 22, 27, 28]",106.5656662,8276,775,2,9,8,2.137167642879409
undo,75,29,0,0,0,13,"[0, 25, 17, 1, 14, 13]",6,4,"[4, 5, 12, 22]",88.53790978,9485,1209,2,3,8,1.9535489858276616
undo,75,29,0,0,0,5,"[0, 25, 17, 1, 14, 13, 5]",7,2,"[4, 22]",62.82798951,10220,735,2,0,8,1.9087092890879327
undo,75,29,0,0,1,22,"[0, 25, 17, 1, 14, 13, 5, 22]",8,0,[],8.486476834,13135,2915,1,0,8,2.492296943176698
undo,75,29,0,1,1,22,"[0, 25, 17, 1, 14, 13, 5, 22]",8,0,[],8.486476834,14397,1262,1,0,8,2.492296943176698
undo,76,26,0,0,0,0,[0],1,29,"[1, 2, 3, 4, 5, 6, 7, 8, 9, 10, 11, 12, 13, 14, 15, 16, 17, 18, 19, 20, 21, 22, 23, 24, 25, 26, 27, 28, 29]",300,187,-1,9,226,9,0.0
undo,76,26,0,0,0,21,"[0, 21]",2,25,"[2, 3, 4, 5, 6, 7, 8, 10, 11, 12, 13, 14, 15, 16, 17, 18, 19, 22, 23, 24, 25, 26, 27, 28, 29]",211.1349337,10451,10264,7,90,9,1.0
undo,76,26,0,0,0,16,"[0, 21, 16]",3,12,"[4, 5, 6, 10, 11, 12, 13, 14, 17, 23, 26, 29]",151.2266705,14288,3837,1,34,9,1.3289691188319968
undo,76,26,0,0,0,29,"[0, 21, 16, 29]",4,8,"[4, 5, 6, 10, 13, 14, 17, 23]",127.0192337,15160,872,1,28,9,1.4156891800947415
undo,76,26,0,0,0,4,"[0, 21, 16, 29, 4]",5,5,"[6, 10, 14, 17, 23]",103.0192337,15819,659,1,12,9,1.6252228687746915
undo,76,26,0,0,0,17,"[0, 21, 16, 29, 4, 17]",6,3,"[6, 10, 14]",81.92421056,16989,1170,1,4,9,1.534793846471065
undo,76,26,0,0,0,10,"[0, 21, 16, 29, 4, 17, 10]",7,1,[6],41.4272971,18406,1417,1,0,8,1.597924980189855
