condition,trial_id,map_id,undoIndicator,submit,checkEnd,currentChoice,chosen_all,n_city_all,n_within_reach,cities_reach,currentBudget,time_all,rt_all,n_opt_paths_all,n_subopt_paths_all,mas_all,tortuosity_all
undo,0,7,0,0,0,0,[0],1,29,"[1, 2, 3, 4, 5, 6, 7, 8, 9, 10, 11, 12, 13, 14, 15, 16, 17, 18, 19, 20, 21, 22, 23, 24, 25, 26, 27, 28, 29]",300,265,-1,3,79,9,0.0
undo,0,7,0,0,0,25,"[0, 25]",2,20,"[2, 3, 4, 5, 6, 7, 10, 13, 14, 15, 16, 18, 19, 20, 21, 22, 23, 24, 27, 28]",181.5939191,14160,13895,5,33,8,1.0
undo,0,7,0,0,0,4,"[0, 25, 4]",3,11,"[2, 6, 7, 13, 15, 16, 18, 19, 20, 21, 23]",156.8552853,14948,788,2,14,8,1.0193465608331511
undo,0,7,0,0,0,20,"[0, 25, 4, 20]",4,8,"[2, 6, 7, 13, 15, 16, 18, 19]",137.2084026,15813,865,1,9,8,1.085904909082323
undo,0,7,0,0,0,18,"[0, 25, 4, 20, 18]",5,7,"[2, 6, 7, 13, 15, 16, 19]",124.4021541,16544,731,1,5,8,1.2264883846453758
undo,0,7,0,0,0,7,"[0, 25, 4, 20, 18, 7]",6,2,"[2, 19]",83.17109789,17514,970,1,1,8,1.185264473968278
undo,0,7,0,0,0,19,"[0, 25, 4, 20, 18, 7, 19]",7,1,[2],53.76021555,18465,951,1,0,8,1.3016904288278204
undo,0,7,0,0,1,2,"[0, 25, 4, 20, 18, 7, 19, 2]",8,0,[],23.61058868,19812,1347,1,0,8,1.3168868000947171
undo,0,7,0,1,1,2,"[0, 25, 4, 20, 18, 7, 19, 2]",8,0,[],23.61058868,23086,3274,1,0,8,1.3168868000947171
undo,1,8,0,0,0,0,[0],1,29,"[1, 2, 3, 4, 5, 6, 7, 8, 9, 10, 11, 12, 13, 14, 15, 16, 17, 18, 19, 20, 21, 22, 23, 24, 25, 26, 27, 28, 29]",300,231,-1,10,149,9,0.0
undo,1,8,0,0,0,5,"[0, 5]",2,28,"[1, 2, 3, 4, 6, 7, 8, 9, 10, 11, 12, 13, 14, 15, 16, 17, 18, 19, 20, 21, 22, 23, 24, 25, 26, 27, 28, 29]",254.5137383,7877,7646,10,100,9,1.0
undo,1,8,0,0,0,25,"[0, 5, 25]",3,20,"[1, 2, 3, 4, 6, 11, 12, 14, 15, 16, 17, 18, 19, 20, 21, 22, 23, 24, 28, 29]",215.3091468,12251,4374,4,42,9,1.2272747879909065
undo,1,8,0,0,0,1,"[0, 5, 25, 1]",4,17,"[3, 4, 6, 11, 12, 14, 15, 16, 17, 18, 20, 21, 22, 23, 24, 28, 29]",190.3091468,12969,718,3,24,9,1.1770245007593956
undo,1,8,0,0,0,23,"[0, 5, 25, 1, 23]",5,15,"[3, 4, 6, 11, 14, 15, 16, 17, 18, 20, 21, 22, 24, 28, 29]",167.2874179,13572,603,1,14,9,1.141996583852372
undo,1,8,0,0,0,18,"[0, 5, 25, 1, 23, 18]",6,9,"[3, 4, 11, 14, 15, 16, 17, 24, 28]",125.5261919,14369,797,1,7,9,1.3199166330970717
undo,1,8,0,0,0,28,"[0, 5, 25, 1, 23, 18, 28]",7,1,[16],59.906073,15204,835,1,0,8,1.425373059246715
undo,1,8,0,0,1,16,"[0, 5, 25, 1, 23, 18, 28, 16]",8,0,[],37.54539323,15921,717,1,0,8,1.4175143337764708
undo,1,8,0,1,1,16,"[0, 5, 25, 1, 23, 18, 28, 16]",8,0,[],37.54539323,17635,1714,1,0,8,1.4175143337764708
undo,2,5,0,0,0,0,[0],1,29,"[1, 2, 3, 4, 5, 6, 7, 8, 9, 10, 11, 12, 13, 14, 15, 16, 17, 18, 19, 20, 21, 22, 23, 24, 25, 26, 27, 28, 29]",300,221,-1,5,139,9,0.0
undo,2,5,0,0,0,12,"[0, 12]",2,22,"[2, 4, 5, 6, 8, 9, 10, 13, 14, 15, 16, 17, 18, 19, 21, 22, 23, 24, 25, 26, 27, 28]",228.3062067,5940,5719,1,27,9,1.0
undo,2,5,0,0,0,25,"[0, 12, 25]",3,21,"[2, 4, 5, 6, 8, 9, 10, 13, 14, 15, 16, 17, 18, 19, 21, 22, 23, 24, 26, 27, 28]",200.5213187,7107,1167,1,20,9,1.584023303445617
undo,2,5,0,0,0,23,"[0, 12, 25, 23]",4,19,"[2, 4, 5, 6, 8, 9, 10, 13, 14, 15, 16, 17, 18, 19, 21, 22, 24, 26, 27]",182.0822298,7677,570,1,14,9,2.3508446989254357
undo,2,5,0,0,0,24,"[0, 12, 25, 23, 24]",5,15,"[2, 4, 5, 6, 8, 9, 13, 14, 15, 17, 18, 19, 22, 26, 27]",158.995437,8438,761,1,12,9,1.9469752046288753
undo,2,5,0,0,0,17,"[0, 12, 25, 23, 24, 17]",6,7,"[4, 5, 6, 8, 15, 18, 19]",124.0097257,9117,679,1,8,9,1.6482276497563642
undo,2,5,0,0,0,4,"[0, 12, 25, 23, 24, 17, 4]",7,2,"[6, 18]",41.93049564,23068,13951,2,0,8,1.4727365492235016
undo,2,5,0,0,1,6,"[0, 12, 25, 23, 24, 17, 4, 6]",8,0,[],29.88890107,23722,654,1,0,8,1.6174317301197607
undo,2,5,0,1,1,6,"[0, 12, 25, 23, 24, 17, 4, 6]",8,0,[],29.88890107,24709,987,1,0,8,1.6174317301197607
undo,3,2,0,0,0,0,[0],1,23,"[1, 2, 4, 5, 6, 7, 8, 9, 12, 13, 15, 16, 17, 18, 19, 20, 22, 23, 25, 26, 27, 28, 29]",300,248,-1,70,620,10,0.0
undo,3,2,0,0,0,19,"[0, 19]",2,22,"[1, 2, 4, 5, 6, 7, 8, 9, 12, 13, 15, 16, 17, 18, 20, 22, 23, 25, 26, 27, 28, 29]",210.306076,4852,4604,67,431,10,1.0
undo,3,2,0,0,0,12,"[0, 19, 12]",3,17,"[1, 4, 5, 6, 7, 13, 15, 16, 17, 18, 20, 22, 25, 26, 27, 28, 29]",174.2921898,5458,606,66,298,10,1.1107635036313153
undo,3,2,0,0,0,5,"[0, 19, 12, 5]",4,11,"[1, 6, 7, 13, 15, 16, 18, 22, 25, 26, 29]",144.7625437,6071,613,38,136,10,1.0968174771581647
undo,3,2,0,0,0,22,"[0, 19, 12, 5, 22]",5,8,"[1, 6, 7, 13, 15, 18, 26, 29]",131.9562952,6804,733,20,63,10,1.0889910507461968
undo,3,2,0,0,0,13,"[0, 19, 12, 5, 22, 13]",6,7,"[1, 6, 7, 15, 18, 26, 29]",117.0902265,7332,528,19,20,10,1.236526217328057
undo,3,2,0,0,0,18,"[0, 19, 12, 5, 22, 13, 18]",7,4,"[7, 15, 26, 29]",81.91921567,8189,857,10,3,10,1.2128708213409936
undo,3,2,0,0,0,7,"[0, 19, 12, 5, 22, 13, 18, 7]",8,3,"[15, 26, 29]",71.62358553,8786,597,5,0,10,1.2019811287894737
undo,3,2,0,0,0,26,"[0, 19, 12, 5, 22, 13, 18, 7, 26]",9,2,"[15, 29]",48.82007703,11777,2991,2,0,10,1.1883593342191134
undo,3,2,0,0,1,15,"[0, 19, 12, 5, 22, 13, 18, 7, 26, 15]",10,0,[],24.61264015,13195,1418,1,0,10,1.4619750353663825
undo,3,2,0,1,1,15,"[0, 19, 12, 5, 22, 13, 18, 7, 26, 15]",10,0,[],24.61264015,14700,1505,1,0,10,1.4619750353663825
undo,4,31,0,0,0,0,[0],1,27,"[1, 3, 4, 5, 6, 7, 8, 10, 11, 12, 13, 14, 15, 16, 17, 18, 19, 20, 21, 22, 23, 24, 25, 26, 27, 28, 29]",300,232,-1,2,87,10,0.0
undo,4,31,0,0,0,27,"[0, 27]",2,26,"[1, 3, 4, 5, 6, 7, 8, 10, 11, 12, 13, 14, 15, 16, 17, 18, 19, 20, 21, 22, 23, 24, 25, 26, 28, 29]",259.5030865,18298,18066,14,191,9,1.0
undo,4,31,0,0,0,8,"[0, 27, 8]",3,23,"[1, 3, 5, 6, 7, 10, 11, 12, 13, 14, 15, 16, 17, 18, 19, 20, 21, 22, 24, 25, 26, 28, 29]",248.4577255,20356,2058,9,131,9,1.481736210960148
undo,4,31,0,0,0,18,"[0, 27, 8, 18]",4,19,"[1, 3, 5, 6, 7, 10, 11, 12, 13, 14, 16, 17, 19, 20, 21, 22, 25, 28, 29]",212.6108289,21564,1208,5,65,9,1.3573609555685873
undo,4,31,0,0,0,17,"[0, 27, 8, 18, 17]",5,14,"[1, 5, 6, 7, 11, 12, 13, 14, 16, 19, 20, 22, 25, 28]",183.4046651,23081,1517,4,35,9,1.288051401172667
undo,4,31,0,0,0,11,"[0, 27, 8, 18, 17, 11]",6,11,"[1, 5, 7, 12, 14, 16, 19, 20, 22, 25, 28]",142.2950555,24075,994,3,7,9,2.5759979840041423
undo,4,31,0,0,0,5,"[0, 27, 8, 18, 17, 11, 5]",7,3,"[16, 25, 28]",98.61439621,25711,1636,2,1,9,2.29559828660968
undo,4,31,0,0,0,28,"[0, 27, 8, 18, 17, 11, 5, 28]",8,1,[16],78.3906478,26425,714,1,0,9,2.0646336243139256
undo,4,31,0,0,1,16,"[0, 27, 8, 18, 17, 11, 5, 28, 16]",9,0,[],44.77517517,27265,840,1,0,9,1.911005813618587
undo,4,31,0,1,1,16,"[0, 27, 8, 18, 17, 11, 5, 28, 16]",9,0,[],44.77517517,31407,4142,1,0,9,1.911005813618587
undo,5,16,0,0,0,0,[0],1,29,"[1, 2, 3, 4, 5, 6, 7, 8, 9, 10, 11, 12, 13, 14, 15, 16, 17, 18, 19, 20, 21, 22, 23, 24, 25, 26, 27, 28, 29]",300,231,-1,13,161,9,0.0
undo,5,16,0,0,0,28,"[0, 28]",2,27,"[1, 2, 3, 4, 5, 7, 8, 9, 10, 11, 12, 13, 14, 15, 16, 17, 18, 19, 20, 21, 22, 23, 24, 25, 26, 27, 29]",284.3475242,5096,4865,11,92,9,1.0
undo,5,16,0,0,0,17,"[0, 28, 17]",3,26,"[1, 2, 3, 4, 5, 7, 8, 9, 10, 11, 12, 13, 14, 15, 16, 18, 19, 20, 21, 22, 23, 24, 25, 26, 27, 29]",219.1555001,7358,2262,10,46,9,1.3773866384707543
undo,5,16,0,0,0,16,"[0, 28, 17, 16]",4,25,"[1, 2, 3, 4, 5, 7, 8, 9, 10, 11, 12, 13, 14, 15, 18, 19, 20, 21, 22, 23, 24, 25, 26, 27, 29]",190.8358956,8285,927,10,34,9,1.3209953830681203
undo,5,16,0,0,0,8,"[0, 28, 17, 16, 8]",5,12,"[3, 4, 5, 9, 12, 13, 15, 19, 20, 21, 25, 29]",142.4623491,9891,1606,6,19,9,1.2700932705506198
undo,5,16,0,0,0,20,"[0, 28, 17, 16, 8, 20]",6,6,"[4, 5, 9, 12, 15, 25]",84.6869218,10700,809,4,4,9,1.1899382910703262
undo,5,16,0,0,0,25,"[0, 28, 17, 16, 8, 20, 25]",7,3,"[5, 9, 15]",72.03781116,11282,582,2,2,9,1.2372268181049477
undo,5,16,0,0,0,9,"[0, 28, 17, 16, 8, 20, 25, 9]",8,2,"[5, 15]",59.23156268,12790,1508,2,0,9,1.221922950237529
undo,5,16,0,0,1,15,"[0, 28, 17, 16, 8, 20, 25, 9, 15]",9,0,[],20.334262,14195,1405,1,0,9,1.318239760375411
undo,5,16,0,1,1,15,"[0, 28, 17, 16, 8, 20, 25, 9, 15]",9,0,[],20.334262,15633,1438,1,0,9,1.318239760375411
undo,6,39,0,0,0,0,[0],1,28,"[1, 2, 3, 4, 5, 6, 7, 9, 10, 11, 12, 13, 14, 15, 16, 17, 18, 19, 20, 21, 22, 23, 24, 25, 26, 27, 28, 29]",300,212,-1,1,30,10,0.0
undo,6,39,0,0,0,14,"[0, 14]",2,26,"[1, 2, 3, 4, 5, 6, 7, 9, 10, 12, 13, 15, 16, 17, 18, 19, 20, 21, 22, 23, 24, 25, 26, 27, 28, 29]",286.9615952,6178,5966,1,22,10,1.0
undo,6,39,0,0,0,29,"[0, 14, 29]",3,23,"[1, 2, 3, 4, 5, 6, 7, 9, 10, 12, 13, 15, 16, 17, 18, 19, 21, 22, 23, 24, 25, 26, 28]",218.9321898,7525,1347,1,21,10,1.4237768813412561
undo,6,39,0,0,0,10,"[0, 14, 29, 10]",4,16,"[1, 2, 4, 5, 7, 9, 12, 13, 15, 16, 18, 19, 22, 23, 24, 26]",154.2947393,13306,5781,10,55,9,1.2261903217179273
undo,6,39,0,0,0,7,"[0, 14, 29, 10, 7]",5,13,"[1, 2, 5, 9, 12, 13, 15, 16, 18, 19, 22, 24, 26]",120.8731894,13957,651,7,19,9,1.1772181718345374
undo,6,39,0,0,0,26,"[0, 14, 29, 10, 7, 26]",6,6,"[1, 12, 16, 18, 19, 22]",102.1916477,15245,1288,5,7,9,1.2246375898647768
undo,6,39,0,0,0,22,"[0, 14, 29, 10, 7, 26, 22]",7,4,"[12, 16, 18, 19]",84.47160256,16237,992,3,2,9,1.3919259602577456
undo,6,39,0,0,0,16,"[0, 14, 29, 10, 7, 26, 22, 16]",8,2,"[18, 19]",49.47160256,17120,883,2,0,9,1.3197225741710712
undo,6,39,0,0,1,19,"[0, 14, 29, 10, 7, 26, 22, 16, 19]",9,0,[],32.00735337,18482,1362,1,0,9,1.3285534538986796
undo,6,39,0,1,1,19,"[0, 14, 29, 10, 7, 26, 22, 16, 19]",9,0,[],32.00735337,20029,1547,1,0,9,1.3285534538986796
undo,7,32,0,0,0,0,[0],1,29,"[1, 2, 3, 4, 5, 6, 7, 8, 9, 10, 11, 12, 13, 14, 15, 16, 17, 18, 19, 20, 21, 22, 23, 24, 25, 26, 27, 28, 29]",300,222,-1,17,359,10,0.0
undo,7,32,0,0,0,19,"[0, 19]",2,28,"[1, 2, 3, 4, 5, 6, 7, 8, 9, 10, 11, 12, 13, 14, 15, 16, 17, 18, 20, 21, 22, 23, 24, 25, 26, 27, 28, 29]",283.5075775,8083,7861,16,294,10,1.0
undo,7,32,0,0,0,15,"[0, 19, 15]",3,21,"[2, 3, 5, 7, 8, 9, 10, 11, 12, 13, 14, 16, 17, 20, 22, 23, 24, 25, 26, 27, 28]",197.7987681,9158,1075,2,52,10,1.19699508325577
undo,7,32,0,0,0,28,"[0, 19, 15, 28]",4,19,"[2, 3, 5, 7, 8, 9, 10, 11, 12, 13, 16, 17, 20, 22, 23, 24, 25, 26, 27]",186.3970139,9699,541,2,41,10,1.1739755297768444
undo,7,32,0,0,0,12,"[0, 19, 15, 28, 12]",5,17,"[2, 3, 5, 7, 8, 9, 10, 11, 13, 16, 17, 20, 22, 23, 24, 26, 27]",167.4233479,10250,551,2,25,10,1.177540715424265
undo,7,32,0,0,0,16,"[0, 19, 15, 28, 12, 16]",6,16,"[2, 3, 5, 7, 8, 9, 10, 11, 13, 17, 20, 22, 23, 24, 26, 27]",151.7708721,10997,747,2,17,10,1.2623133279216439
undo,7,32,0,0,0,22,"[0, 19, 15, 28, 12, 16, 22]",7,10,"[2, 3, 5, 8, 9, 10, 11, 17, 20, 27]",117.9330235,13084,2087,2,7,10,1.2893434049314008
undo,7,32,0,0,0,9,"[0, 19, 15, 28, 12, 16, 22, 9]",8,4,"[2, 8, 17, 20]",95.72942015,24705,11621,2,2,10,1.3492394817468627
undo,7,32,0,0,0,8,"[0, 19, 15, 28, 12, 16, 22, 9, 8]",9,1,[20],50.60736346,26265,1560,1,0,10,1.2728587925837391
undo,7,32,0,0,1,20,"[0, 19, 15, 28, 12, 16, 22, 9, 8, 20]",10,0,[],0.278445332,27454,1189,1,0,10,1.4817741230721702
undo,7,32,0,1,1,20,"[0, 19, 15, 28, 12, 16, 22, 9, 8, 20]",10,0,[],0.278445332,30418,2964,1,0,10,1.4817741230721702
undo,8,14,0,0,0,0,[0],1,29,"[1, 2, 3, 4, 5, 6, 7, 8, 9, 10, 11, 12, 13, 14, 15, 16, 17, 18, 19, 20, 21, 22, 23, 24, 25, 26, 27, 28, 29]",300,218,-1,8,157,10,0.0
undo,8,14,0,0,0,15,"[0, 15]",2,20,"[1, 2, 3, 4, 7, 8, 9, 13, 17, 18, 19, 20, 21, 22, 23, 25, 26, 27, 28, 29]",216.7053423,4874,4656,8,102,10,1.0
undo,8,14,0,0,0,18,"[0, 15, 18]",3,13,"[1, 2, 4, 7, 8, 13, 17, 19, 20, 23, 25, 26, 28]",153.6418822,6717,1843,26,101,9,1.2185936334127205
undo,8,14,0,0,0,8,"[0, 15, 18, 8]",4,10,"[1, 2, 4, 7, 17, 19, 23, 25, 26, 28]",140.0404117,7098,381,26,60,9,1.2207454945880838
undo,8,14,0,0,0,1,"[0, 15, 18, 8, 1]",5,9,"[2, 4, 7, 17, 19, 23, 25, 26, 28]",116.4395643,7974,876,13,25,9,1.1871302560279655
undo,8,14,0,0,0,19,"[0, 15, 18, 8, 1, 19]",6,7,"[2, 4, 7, 17, 23, 25, 26]",101.208018,8548,574,11,8,9,1.3443864386012363
undo,8,14,0,0,0,26,"[0, 15, 18, 8, 1, 19, 26]",7,3,"[7, 23, 25]",47.98208451,11259,2711,2,2,9,1.2702606260227056
undo,8,14,0,0,0,23,"[0, 15, 18, 8, 1, 19, 26, 23]",8,2,"[7, 25]",37.16543069,12396,1137,2,0,9,1.3982738268105899
undo,8,14,0,0,1,25,"[0, 15, 18, 8, 1, 19, 26, 23, 25]",9,0,[],7.754548349,13695,1299,1,0,9,1.7854397256239447
undo,8,14,0,1,1,25,"[0, 15, 18, 8, 1, 19, 26, 23, 25]",9,0,[],7.754548349,15345,1650,1,0,9,1.7854397256239447
undo,9,13,0,0,0,0,[0],1,29,"[1, 2, 3, 4, 5, 6, 7, 8, 9, 10, 11, 12, 13, 14, 15, 16, 17, 18, 19, 20, 21, 22, 23, 24, 25, 26, 27, 28, 29]",300,217,-1,60,2676,11,0.0
undo,9,13,0,0,0,24,"[0, 24]",2,28,"[1, 2, 3, 4, 5, 6, 7, 8, 9, 10, 11, 12, 13, 14, 15, 16, 17, 18, 19, 20, 21, 22, 23, 25, 26, 27, 28, 29]",288.8196601,4236,4019,16,1444,11,1.0
undo,9,13,0,0,0,28,"[0, 24, 28]",3,23,"[1, 2, 3, 4, 6, 7, 8, 9, 10, 11, 12, 13, 15, 16, 17, 19, 20, 21, 22, 23, 26, 27, 29]",222.5324064,6351,2115,8,243,11,1.0513810491680837
undo,9,13,0,0,0,2,"[0, 24, 28, 2]",4,19,"[1, 3, 4, 6, 7, 9, 11, 12, 13, 15, 16, 17, 19, 20, 21, 23, 26, 27, 29]",184.889346,8223,1872,7,110,11,1.050374132001543
undo,9,13,0,0,0,29,"[0, 24, 28, 2, 29]",5,18,"[1, 3, 4, 6, 7, 9, 11, 12, 13, 15, 16, 17, 19, 20, 21, 23, 26, 27]",173.1846461,9000,777,7,85,11,1.1393409619120594
undo,9,13,0,0,0,11,"[0, 24, 28, 2, 29, 11]",6,12,"[1, 3, 6, 7, 13, 15, 16, 17, 19, 23, 26, 27]",133.6245652,17981,8981,7,27,10,1.304273695856288
undo,9,13,0,0,0,6,"[0, 24, 28, 2, 29, 11, 6]",7,9,"[1, 3, 7, 13, 15, 16, 17, 23, 26]",114.519592,18947,966,4,13,10,1.7082819759960022
undo,9,13,0,0,0,7,"[0, 24, 28, 2, 29, 11, 6, 7]",8,5,"[1, 13, 16, 23, 26]",93.71093996,21260,2313,2,4,10,1.9597754672324865
undo,9,13,0,0,0,26,"[0, 24, 28, 2, 29, 11, 6, 7, 26]",9,2,"[16, 23]",83.27063346,21946,686,2,0,10,2.265353754397064
undo,9,13,0,0,1,23,"[0, 24, 28, 2, 29, 11, 6, 7, 26, 23]",10,0,[],23.73073087,23548,1602,1,0,10,4.888381849096381
undo,9,13,0,1,1,23,"[0, 24, 28, 2, 29, 11, 6, 7, 26, 23]",10,0,[],23.73073087,24525,977,1,0,10,4.888381849096381
undo,10,24,0,0,0,0,[0],1,29,"[1, 2, 3, 4, 5, 6, 7, 8, 9, 10, 11, 12, 13, 14, 15, 16, 17, 18, 19, 20, 21, 22, 23, 24, 25, 26, 27, 28, 29]",300,175,-1,4,76,10,0.0
undo,10,24,0,0,0,14,"[0, 14]",2,27,"[1, 2, 3, 4, 5, 6, 8, 9, 10, 11, 12, 13, 15, 16, 17, 18, 19, 20, 21, 22, 23, 24, 25, 26, 27, 28, 29]",278.0455016,2515,2340,4,54,10,1.0
undo,10,24,0,0,0,16,"[0, 14, 16]",3,25,"[2, 3, 4, 5, 6, 8, 9, 10, 11, 12, 13, 15, 17, 18, 19, 20, 21, 22, 23, 24, 25, 26, 27, 28, 29]",188.9949542,4441,1926,4,31,10,1.238291113657358
undo,10,24,0,0,0,8,"[0, 14, 16, 8]",4,17,"[2, 3, 4, 6, 9, 10, 11, 13, 15, 20, 22, 23, 24, 26, 27, 28, 29]",159.9949542,6217,1776,2,13,10,1.2714603293172921
undo,10,24,0,0,0,22,"[0, 14, 16, 8, 22]",5,13,"[3, 4, 6, 9, 10, 11, 15, 23, 24, 26, 27, 28, 29]",146.5785463,6804,587,2,10,10,1.4558841300797367
undo,10,24,0,0,0,15,"[0, 14, 16, 8, 22, 15]",6,11,"[3, 4, 6, 9, 10, 11, 23, 26, 27, 28, 29]",125.3653429,7486,682,2,8,10,1.459909027032803
undo,10,24,0,0,0,28,"[0, 14, 16, 8, 22, 15, 28]",7,5,"[4, 9, 11, 23, 27]",80.08841717,8468,982,2,5,10,1.3358430839259279
undo,10,24,0,0,0,23,"[0, 14, 16, 8, 22, 15, 28, 23]",8,3,"[9, 11, 27]",61.06211957,9314,846,2,2,10,1.3561794364003306
undo,10,24,0,0,0,11,"[0, 14, 16, 8, 22, 15, 28, 23, 11]",9,2,"[9, 27]",34.13629554,10097,783,2,0,10,1.323606251450204
undo,10,24,0,0,1,27,"[0, 14, 16, 8, 22, 15, 28, 23, 11, 27]",10,0,[],6.33341799,10944,847,1,0,10,1.2857748381905127
undo,10,24,0,1,1,27,"[0, 14, 16, 8, 22, 15, 28, 23, 11, 27]",10,0,[],6.33341799,12548,1604,1,0,10,1.2857748381905127
undo,11,33,0,0,0,0,[0],1,23,"[1, 2, 5, 7, 8, 11, 12, 13, 14, 15, 16, 17, 18, 19, 20, 21, 23, 24, 25, 26, 27, 28, 29]",300,234,-1,5,108,9,0.0
undo,11,33,0,0,0,8,"[0, 8]",2,22,"[1, 2, 5, 7, 11, 12, 13, 14, 15, 16, 17, 18, 19, 20, 21, 23, 24, 25, 26, 27, 28, 29]",265.8679037,5026,4792,5,87,9,1.0
undo,11,33,0,0,0,21,"[0, 8, 21]",3,16,"[2, 5, 7, 11, 13, 14, 16, 17, 18, 19, 20, 24, 26, 27, 28, 29]",166.0430571,6289,1263,5,80,9,1.0670557763739492
undo,11,33,0,0,0,13,"[0, 8, 21, 13]",4,12,"[2, 7, 11, 14, 16, 17, 18, 19, 20, 24, 26, 29]",139.6422995,9065,2776,4,54,9,1.0555103820910288
undo,11,33,0,0,0,19,"[0, 8, 21, 13, 19]",5,10,"[7, 11, 14, 16, 17, 18, 20, 24, 26, 29]",114.1472019,9776,711,3,19,9,1.1090798607799486
undo,11,33,0,0,0,24,"[0, 8, 21, 13, 19, 24]",6,6,"[7, 14, 16, 18, 26, 29]",72.09960985,12152,2376,2,3,9,1.1193530461391534
undo,11,33,0,0,0,7,"[0, 8, 21, 13, 19, 24, 7]",7,2,"[14, 26]",42.89344611,13156,1004,2,0,9,1.2065014071663551
undo,11,33,0,0,0,14,"[0, 8, 21, 13, 19, 24, 7, 14]",8,1,[26],28.02737737,13696,540,1,0,9,1.2536495746979057
undo,11,33,0,0,1,26,"[0, 8, 21, 13, 19, 24, 7, 14, 26]",9,0,[],15.37826672,14765,1069,1,0,9,1.2580465331304596
undo,11,33,0,1,1,26,"[0, 8, 21, 13, 19, 24, 7, 14, 26]",9,0,[],15.37826672,15732,967,1,0,9,1.2580465331304596
undo,12,6,0,0,0,0,[0],1,29,"[1, 2, 3, 4, 5, 6, 7, 8, 9, 10, 11, 12, 13, 14, 15, 16, 17, 18, 19, 20, 21, 22, 23, 24, 25, 26, 27, 28, 29]",300,221,-1,180,4304,10,0.0
undo,12,6,0,0,0,3,"[0, 3]",2,28,"[1, 2, 4, 5, 6, 7, 8, 9, 10, 11, 12, 13, 14, 15, 16, 17, 18, 19, 20, 21, 22, 23, 24, 25, 26, 27, 28, 29]",266.4738908,9274,9053,90,1607,10,1.0
undo,12,6,0,0,0,18,"[0, 3, 18]",3,27,"[1, 2, 4, 5, 6, 7, 8, 9, 10, 11, 12, 13, 14, 15, 16, 17, 19, 20, 21, 22, 23, 24, 25, 26, 27, 28, 29]",237.4738908,12156,2882,34,516,10,1.0266750028725786
undo,12,6,0,0,0,17,"[0, 3, 18, 17]",4,26,"[1, 2, 4, 5, 6, 7, 8, 9, 10, 11, 12, 13, 14, 15, 16, 19, 20, 21, 22, 23, 24, 25, 26, 27, 28, 29]",223.5455025,18777,6621,17,243,10,1.0832900829093166
undo,12,6,0,0,0,10,"[0, 3, 18, 17, 10]",5,22,"[1, 2, 4, 5, 6, 7, 8, 9, 11, 13, 14, 16, 19, 20, 21, 22, 23, 24, 26, 27, 28, 29]",203.8224196,19462,685,10,111,10,1.140294203414171
undo,12,6,0,0,0,24,"[0, 3, 18, 17, 10, 24]",6,19,"[1, 2, 4, 5, 6, 7, 8, 11, 13, 14, 16, 20, 21, 22, 23, 26, 27, 28, 29]",190.4060117,20004,542,10,80,10,1.1264281153820843
undo,12,6,0,0,0,23,"[0, 3, 18, 17, 10, 24, 23]",7,9,"[5, 6, 7, 11, 14, 16, 22, 27, 29]",129.2177775,21252,1248,3,18,10,1.2725820835879924
undo,12,6,0,0,0,6,"[0, 3, 18, 17, 10, 24, 23, 6]",8,5,"[5, 11, 22, 27, 29]",93.86243848,22357,1105,2,4,10,1.2798885340436483
undo,12,6,0,0,0,27,"[0, 3, 18, 17, 10, 24, 23, 6, 27]",9,2,"[11, 22]",47.8515702,23180,823,2,0,10,1.341423811891677
undo,12,6,0,0,1,11,"[0, 3, 18, 17, 10, 24, 23, 6, 27, 11]",10,0,[],4.561848558,24683,1503,1,0,10,1.344498925249562
undo,12,6,0,1,1,11,"[0, 3, 18, 17, 10, 24, 23, 6, 27, 11]",10,0,[],4.561848558,27689,3006,1,0,10,1.344498925249562
undo,13,38,0,0,0,0,[0],1,29,"[1, 2, 3, 4, 5, 6, 7, 8, 9, 10, 11, 12, 13, 14, 15, 16, 17, 18, 19, 20, 21, 22, 23, 24, 25, 26, 27, 28, 29]",300,233,-1,33,506,9,0.0
undo,13,38,0,0,0,19,"[0, 19]",2,23,"[3, 4, 5, 6, 7, 8, 9, 11, 13, 14, 15, 16, 17, 18, 20, 22, 23, 24, 25, 26, 27, 28, 29]",219.5015528,15491,15258,6,61,9,1.0
undo,13,38,0,0,0,17,"[0, 19, 17]",3,21,"[3, 4, 5, 6, 7, 9, 11, 13, 14, 15, 16, 18, 20, 22, 23, 24, 25, 26, 27, 28, 29]",198.1239945,16422,931,6,53,9,1.571793785769489
undo,13,38,0,0,0,20,"[0, 19, 17, 20]",4,17,"[3, 4, 5, 6, 7, 11, 13, 14, 15, 16, 18, 22, 24, 25, 26, 27, 28]",174.3542658,17220,798,6,44,9,2.333182710277297
undo,13,38,0,0,0,4,"[0, 19, 17, 20, 4]",5,10,"[5, 11, 13, 14, 15, 16, 24, 26, 27, 28]",140.4131403,19293,2073,5,22,9,2.276099229646013
undo,13,38,0,0,0,15,"[0, 19, 17, 20, 4, 15]",6,8,"[5, 11, 13, 14, 16, 24, 26, 28]",114.4131403,20054,761,5,6,9,2.5292671156176403
undo,13,38,0,0,0,11,"[0, 19, 17, 20, 4, 15, 11]",7,2,"[16, 28]",78.01259089,20992,938,2,0,9,2.778100109749787
undo,13,38,0,0,0,28,"[0, 19, 17, 20, 4, 15, 11, 28]",8,1,[16],50.99407872,24909,3917,1,0,9,2.3316428595723258
undo,13,38,0,0,1,16,"[0, 19, 17, 20, 4, 15, 11, 28, 16]",9,0,[],21.99407872,28215,3306,1,0,9,2.5408012360364265
undo,13,38,0,1,1,16,"[0, 19, 17, 20, 4, 15, 11, 28, 16]",9,0,[],21.99407872,29661,1446,1,0,9,2.5408012360364265
undo,14,22,0,0,0,0,[0],1,29,"[1, 2, 3, 4, 5, 6, 7, 8, 9, 10, 11, 12, 13, 14, 15, 16, 17, 18, 19, 20, 21, 22, 23, 24, 25, 26, 27, 28, 29]",300,207,-1,31,704,9,0.0
undo,14,22,0,0,0,16,"[0, 16]",2,21,"[1, 3, 6, 7, 8, 9, 11, 13, 14, 15, 17, 18, 19, 20, 21, 22, 24, 25, 27, 28, 29]",218.605897,8033,7826,17,147,9,1.0
undo,14,22,0,0,0,28,"[0, 16, 28]",3,13,"[6, 7, 9, 13, 14, 17, 19, 20, 21, 22, 24, 25, 29]",184.1675463,8910,877,12,61,9,1.047282311284478
undo,14,22,0,0,0,6,"[0, 16, 28, 6]",4,12,"[7, 9, 13, 14, 17, 19, 20, 21, 22, 24, 25, 29]",154.1675463,9544,634,12,43,9,1.645645870580622
undo,14,22,0,0,0,9,"[0, 16, 28, 6, 9]",5,8,"[7, 14, 17, 19, 20, 21, 24, 29]",127.5404924,10066,522,8,17,9,1.925750226630103
undo,14,22,0,0,0,19,"[0, 16, 28, 6, 9, 19]",6,6,"[7, 14, 17, 21, 24, 29]",107.1444143,10670,604,3,7,9,2.4220750331476455
undo,14,22,0,0,0,29,"[0, 16, 28, 6, 9, 19, 29]",7,4,"[7, 14, 17, 24]",92.11111796,11212,542,2,2,9,2.6996279574991067
undo,14,22,0,0,0,14,"[0, 16, 28, 6, 9, 19, 29, 14]",8,1,[7],33.86165444,11909,697,1,0,9,2.0544639927929462
undo,14,22,0,0,1,7,"[0, 16, 28, 6, 9, 19, 29, 14, 7]",9,0,[],20.82324963,12514,605,1,0,9,2.219817088951114
undo,14,22,0,1,1,7,"[0, 16, 28, 6, 9, 19, 29, 14, 7]",9,0,[],20.82324963,13611,1097,1,0,9,2.219817088951114
undo,15,21,0,0,0,0,[0],1,29,"[1, 2, 3, 4, 5, 6, 7, 8, 9, 10, 11, 12, 13, 14, 15, 16, 17, 18, 19, 20, 21, 22, 23, 24, 25, 26, 27, 28, 29]",300,232,-1,84,830,9,0.0
undo,15,21,0,0,0,20,"[0, 20]",2,28,"[1, 2, 3, 4, 5, 6, 7, 8, 9, 10, 11, 12, 13, 14, 15, 16, 17, 18, 19, 21, 22, 23, 24, 25, 26, 27, 28, 29]",217.6228187,10684,10452,6,67,9,1.0
undo,15,21,0,0,0,22,"[0, 20, 22]",3,23,"[2, 4, 6, 7, 8, 9, 10, 11, 12, 13, 14, 15, 16, 17, 18, 19, 21, 23, 24, 25, 26, 27, 29]",189.3916303,11763,1079,6,47,9,1.3451865712078994
undo,15,21,0,0,0,18,"[0, 20, 22, 18]",4,20,"[2, 4, 6, 7, 8, 9, 10, 11, 12, 14, 15, 16, 17, 21, 23, 24, 25, 26, 27, 29]",162.9908727,12394,631,4,25,9,2.3191924394507706
undo,15,21,0,0,0,29,"[0, 20, 22, 18, 29]",5,16,"[2, 4, 6, 7, 8, 10, 12, 14, 15, 16, 17, 21, 23, 24, 25, 27]",134.3377751,13706,1312,2,10,9,1.9554738681863184
undo,15,21,0,0,0,25,"[0, 20, 22, 18, 29, 25]",6,5,"[4, 14, 17, 21, 23]",89.11609892,14618,912,2,5,9,3.5255206171255487
undo,15,21,0,0,0,21,"[0, 20, 22, 18, 29, 25, 21]",7,3,"[4, 14, 23]",39.78051339,16211,1593,1,2,9,2.8949037931733077
undo,15,21,0,0,0,14,"[0, 20, 22, 18, 29, 25, 21, 14]",8,1,[4],14.16801644,18034,1823,1,0,9,2.4954214602277003
undo,15,21,0,0,1,4,"[0, 20, 22, 18, 29, 25, 21, 14, 4]",9,0,[],0.025880812,19186,1152,1,0,9,2.345266159905017
undo,15,21,0,1,1,4,"[0, 20, 22, 18, 29, 25, 21, 14, 4]",9,0,[],0.025880812,20284,1098,1,0,9,2.345266159905017
undo,16,44,0,0,0,0,[0],1,29,"[1, 2, 3, 4, 5, 6, 7, 8, 9, 10, 11, 12, 13, 14, 15, 16, 17, 18, 19, 20, 21, 22, 23, 24, 25, 26, 27, 28, 29]",300,215,-1,13,126,7,0.0
undo,16,44,0,0,0,8,"[0, 8]",2,17,"[1, 4, 5, 7, 9, 10, 11, 12, 13, 14, 15, 20, 21, 23, 24, 25, 27]",145.7923478,2569,2354,1,10,7,1.0
undo,16,44,0,0,0,20,"[0, 8, 20]",3,16,"[1, 4, 5, 7, 9, 10, 11, 12, 13, 14, 15, 21, 23, 24, 25, 27]",133.7093018,4062,1493,1,9,7,1.0890794433668698
undo,16,44,0,0,0,9,"[0, 8, 20, 9]",4,7,"[4, 7, 11, 12, 14, 23, 24]",76.43801756,5058,996,1,6,7,1.40892325509949
undo,16,44,0,0,0,4,"[0, 8, 20, 9, 4]",5,4,"[7, 12, 23, 24]",56.74030196,6007,949,1,3,7,1.3849770570803555
undo,16,44,0,0,0,7,"[0, 8, 20, 9, 4, 7]",6,1,[23],25.72417712,7210,1203,1,0,7,1.3274380931474288
undo,16,44,0,0,1,23,"[0, 8, 20, 9, 4, 7, 23]",7,0,[],6.619203947,8091,881,1,0,7,1.3395824779823196
undo,16,44,0,1,1,23,"[0, 8, 20, 9, 4, 7, 23]",7,0,[],6.619203947,9247,1156,1,0,7,1.3395824779823196
undo,17,10,0,0,0,0,[0],1,29,"[1, 2, 3, 4, 5, 6, 7, 8, 9, 10, 11, 12, 13, 14, 15, 16, 17, 18, 19, 20, 21, 22, 23, 24, 25, 26, 27, 28, 29]",300,219,-1,1,100,9,0.0
undo,17,10,0,0,0,13,"[0, 13]",2,25,"[1, 2, 3, 4, 6, 7, 8, 9, 10, 11, 12, 14, 17, 18, 19, 20, 21, 22, 23, 24, 25, 26, 27, 28, 29]",249.4628849,4351,4132,1,79,9,1.0
undo,17,10,0,0,0,11,"[0, 13, 11]",3,20,"[1, 2, 3, 6, 7, 8, 9, 10, 12, 14, 18, 19, 20, 21, 22, 24, 26, 27, 28, 29]",206.4512586,5201,850,1,54,9,1.0313137484914219
undo,17,10,0,0,0,19,"[0, 13, 11, 19]",4,11,"[2, 6, 8, 9, 10, 14, 18, 20, 24, 26, 27]",170.0919407,6168,967,1,22,9,1.0879446220132545
undo,17,10,0,0,0,2,"[0, 13, 11, 19, 2]",5,4,"[14, 20, 26, 27]",126.1829439,7052,884,1,4,9,1.06474052351343
undo,17,10,0,0,0,14,"[0, 13, 11, 19, 2, 14]",6,3,"[20, 26, 27]",114.0174188,8049,997,1,3,9,1.1628909195912238
undo,17,10,0,0,0,26,"[0, 13, 11, 19, 2, 14, 26]",7,2,"[20, 27]",79.34754716,8822,773,1,1,9,1.6660727647633602
undo,17,10,0,0,0,20,"[0, 13, 11, 19, 2, 14, 26, 20]",8,1,[27],47.56704999,9599,777,1,0,9,2.085581809637999
undo,17,10,0,0,1,27,"[0, 13, 11, 19, 2, 14, 26, 20, 27]",9,0,[],2.312215998,11015,1416,1,0,9,1.9116357409137932
undo,17,10,0,1,1,27,"[0, 13, 11, 19, 2, 14, 26, 20, 27]",9,0,[],2.312215998,12000,985,1,0,9,1.9116357409137932
undo,18,15,0,0,0,0,[0],1,25,"[1, 2, 3, 4, 7, 8, 9, 10, 11, 12, 13, 14, 15, 16, 18, 20, 21, 22, 23, 24, 25, 26, 27, 28, 29]",300,222,-1,4,65,9,0.0
undo,18,15,0,0,0,12,"[0, 12]",2,22,"[1, 2, 3, 4, 7, 8, 9, 10, 11, 13, 14, 15, 16, 18, 21, 22, 23, 24, 26, 27, 28, 29]",213.547701,75892,75670,4,35,9,1.0
undo,18,15,0,0,0,7,"[0, 12, 7]",3,16,"[1, 3, 4, 8, 9, 10, 11, 13, 14, 15, 16, 18, 21, 22, 24, 27]",180.3061607,77624,1732,4,29,9,1.411291635294361
undo,18,15,0,0,0,16,"[0, 12, 7, 16]",4,10,"[3, 4, 10, 11, 13, 14, 15, 18, 21, 22]",136.6484008,78531,907,2,11,9,1.4308733430458784
undo,18,15,0,0,0,11,"[0, 12, 7, 16, 11]",5,7,"[3, 4, 13, 14, 15, 21, 22]",110.6291772,79618,1087,2,5,9,1.5251025438826007
undo,18,15,0,0,0,3,"[0, 12, 7, 16, 11, 3]",6,5,"[4, 13, 14, 15, 22]",99.22742292,80293,675,2,3,9,1.5166583878170454
undo,18,15,0,0,0,22,"[0, 12, 7, 16, 11, 3, 22]",7,2,"[13, 15]",49.49815588,81359,1066,2,0,9,1.4519711389669923
undo,18,15,0,0,0,15,"[0, 12, 7, 16, 11, 3, 22, 15]",8,1,[13],23.88565893,82330,971,1,0,9,1.4060225827822495
undo,18,15,0,0,1,13,"[0, 12, 7, 16, 11, 3, 22, 15, 13]",9,0,[],8.621321408,83391,1061,1,0,9,1.4544229719836068
undo,18,15,0,1,1,13,"[0, 12, 7, 16, 11, 3, 22, 15, 13]",9,0,[],8.621321408,84479,1088,1,0,9,1.4544229719836068
undo,19,30,0,0,0,0,[0],1,19,"[3, 4, 5, 7, 9, 11, 16, 17, 18, 19, 20, 21, 22, 24, 25, 26, 27, 28, 29]",300,235,-1,5,41,8,0.0
undo,19,30,0,0,0,25,"[0, 25]",2,12,"[3, 5, 7, 9, 11, 16, 18, 19, 20, 24, 27, 29]",121.1005869,5927,5692,7,37,7,1.0
undo,19,30,0,0,0,20,"[0, 25, 20]",3,9,"[3, 5, 7, 9, 11, 18, 19, 27, 29]",99.16887472,6654,727,5,16,7,1.0037291321296267
undo,19,30,0,0,0,27,"[0, 25, 20, 27]",4,4,"[3, 5, 18, 29]",65.11010199,7311,657,4,6,7,1.1217072851053165
undo,19,30,0,0,0,3,"[0, 25, 20, 27, 3]",5,3,"[5, 18, 29]",46.00512882,7929,618,4,0,7,1.1140018780928678
undo,19,30,0,0,0,29,"[0, 25, 20, 27, 3, 29]",6,1,[18],27.40405358,9456,1527,1,0,7,1.119672312555708
undo,19,30,0,0,1,18,"[0, 25, 20, 27, 3, 29, 18]",7,0,[],8.090845662,10216,760,1,0,7,1.1951451398733344
undo,19,30,0,1,1,18,"[0, 25, 20, 27, 3, 29, 18]",7,0,[],8.090845662,11684,1468,1,0,7,1.1951451398733344
undo,20,12,0,0,0,0,[0],1,29,"[1, 2, 3, 4, 5, 6, 7, 8, 9, 10, 11, 12, 13, 14, 15, 16, 17, 18, 19, 20, 21, 22, 23, 24, 25, 26, 27, 28, 29]",300,215,-1,2,32,9,0.0
undo,20,12,0,0,0,22,"[0, 22]",2,22,"[2, 4, 5, 6, 7, 9, 10, 12, 13, 14, 15, 16, 17, 18, 19, 21, 23, 24, 25, 27, 28, 29]",211.9943184,30496,30281,6,42,8,1.0
undo,20,12,0,0,0,16,"[0, 22, 16]",3,12,"[2, 4, 5, 6, 7, 12, 14, 19, 23, 24, 25, 27]",190.9943184,31146,650,6,24,8,1.2017164145167045
undo,20,12,0,0,0,4,"[0, 22, 16, 4]",4,9,"[2, 6, 7, 12, 14, 19, 24, 25, 27]",156.7890556,32754,1608,6,14,8,1.146531713305579
undo,20,12,0,0,0,12,"[0, 22, 16, 4, 12]",5,4,"[14, 19, 24, 27]",114.5990094,34205,1451,4,3,8,1.1221389456954312
undo,20,12,0,0,0,27,"[0, 22, 16, 4, 12, 27]",6,3,"[14, 19, 24]",90.24741807,35000,795,2,1,8,1.2262878338287035
undo,20,12,0,0,0,14,"[0, 22, 16, 4, 12, 27, 14]",7,1,[24],61.59432051,36440,1440,1,0,8,1.2804562106751427
undo,20,12,0,0,1,24,"[0, 22, 16, 4, 12, 27, 14, 24]",8,0,[],44.38966997,37350,910,1,0,8,1.4322660007679802
undo,20,12,0,1,1,24,"[0, 22, 16, 4, 12, 27, 14, 24]",8,0,[],44.38966997,39085,1735,1,0,8,1.4322660007679802
undo,21,42,0,0,0,0,[0],1,29,"[1, 2, 3, 4, 5, 6, 7, 8, 9, 10, 11, 12, 13, 14, 15, 16, 17, 18, 19, 20, 21, 22, 23, 24, 25, 26, 27, 28, 29]",300,264,-1,16,302,9,0.0
undo,21,42,0,0,0,22,"[0, 22]",2,27,"[1, 2, 3, 4, 5, 6, 7, 8, 9, 10, 11, 12, 13, 15, 16, 17, 18, 19, 20, 21, 23, 24, 25, 26, 27, 28, 29]",211.3997743,17578,17314,5,83,9,1.0
undo,21,42,0,0,0,4,"[0, 22, 4]",3,26,"[1, 2, 3, 5, 6, 7, 8, 9, 10, 11, 12, 13, 15, 16, 17, 18, 19, 20, 21, 23, 24, 25, 26, 27, 28, 29]",200.2194344,18287,709,4,51,9,1.1029012260448476
undo,21,42,0,0,0,5,"[0, 22, 4, 5]",4,24,"[1, 2, 3, 6, 7, 8, 9, 10, 11, 12, 13, 15, 17, 18, 19, 20, 21, 23, 24, 25, 26, 27, 28, 29]",180.3700011,20053,1766,3,22,9,1.1004909640339868
undo,21,42,0,0,0,8,"[0, 22, 4, 5, 8]",5,16,"[1, 2, 3, 6, 7, 11, 15, 18, 19, 23, 24, 25, 26, 27, 28, 29]",145.8881218,21549,1496,3,12,9,1.4333663223483832
undo,21,42,0,0,0,1,"[0, 22, 4, 5, 8, 1]",6,6,"[2, 7, 18, 19, 26, 27]",96.796371,23336,1787,3,7,9,1.3048950637395882
undo,21,42,0,0,0,7,"[0, 22, 4, 5, 8, 1, 7]",7,4,"[2, 19, 26, 27]",66.796371,24308,972,3,2,9,1.3461774355793397
undo,21,42,0,0,0,26,"[0, 22, 4, 5, 8, 1, 7, 26]",8,2,"[19, 27]",40.22571049,25293,985,2,0,9,1.3119913611616163
undo,21,42,0,0,1,27,"[0, 22, 4, 5, 8, 1, 7, 26, 27]",9,0,[],22.19795412,26579,1286,1,0,9,1.3027999653776734
undo,21,42,1,0,0,26,"[0, 22, 4, 5, 8, 1, 7, 26]",8,2,"[19, 27]",40.22571049,27710,1131,2,0,9,1.3119913611616163
undo,21,42,1,0,0,7,"[0, 22, 4, 5, 8, 1, 7]",7,4,"[2, 19, 26, 27]",66.796371,27908,198,3,2,9,1.3461774355793397
undo,21,42,0,0,1,2,"[0, 22, 4, 5, 8, 1, 7, 2]",8,0,[],27.5790279,29079,1171,1,0,8,1.4217934723169163
undo,21,42,1,0,0,7,"[0, 22, 4, 5, 8, 1, 7]",7,4,"[2, 19, 26, 27]",66.796371,30518,1439,3,2,9,1.3461774355793397
undo,21,42,1,0,0,1,"[0, 22, 4, 5, 8, 1]",6,6,"[2, 7, 18, 19, 26, 27]",96.796371,31062,544,3,7,9,1.3048950637395882
undo,21,42,1,0,0,8,"[0, 22, 4, 5, 8]",5,16,"[1, 2, 3, 6, 7, 11, 15, 18, 19, 23, 24, 25, 26, 27, 28, 29]",145.8881218,33247,2185,3,12,9,1.4333663223483832
undo,21,42,1,0,0,5,"[0, 22, 4, 5]",4,24,"[1, 2, 3, 6, 7, 8, 9, 10, 11, 12, 13, 15, 17, 18, 19, 20, 21, 23, 24, 25, 26, 27, 28, 29]",180.3700011,33647,400,3,22,9,1.1004909640339868
undo,21,42,1,0,0,4,"[0, 22, 4]",3,26,"[1, 2, 3, 5, 6, 7, 8, 9, 10, 11, 12, 13, 15, 16, 17, 18, 19, 20, 21, 23, 24, 25, 26, 27, 28, 29]",200.2194344,33850,203,4,51,9,1.1029012260448476
undo,21,42,1,0,0,22,"[0, 22]",2,27,"[1, 2, 3, 4, 5, 6, 7, 8, 9, 10, 11, 12, 13, 15, 16, 17, 18, 19, 20, 21, 23, 24, 25, 26, 27, 28, 29]",211.3997743,34067,217,5,83,9,1.0
undo,21,42,1,0,0,0,[0],1,29,"[1, 2, 3, 4, 5, 6, 7, 8, 9, 10, 11, 12, 13, 14, 15, 16, 17, 18, 19, 20, 21, 22, 23, 24, 25, 26, 27, 28, 29]",300,34345,278,16,302,9,0.0
undo,21,42,0,0,0,3,"[0, 3]",2,25,"[1, 2, 4, 5, 6, 7, 8, 9, 10, 11, 13, 15, 17, 18, 19, 20, 21, 22, 23, 24, 25, 26, 27, 28, 29]",255.7959278,37728,3383,3,45,9,1.0
undo,21,42,0,0,0,23,"[0, 3, 23]",3,15,"[1, 2, 4, 5, 6, 7, 8, 9, 11, 15, 17, 22, 24, 25, 29]",202.4573864,38863,1135,1,24,8,1.2042297975308642
undo,21,42,0,0,0,17,"[0, 3, 23, 17]",4,11,"[4, 5, 6, 8, 9, 11, 15, 22, 24, 25, 29]",191.2770465,39328,465,1,14,8,1.192958341617778
undo,21,42,0,0,0,11,"[0, 3, 23, 17, 11]",5,7,"[4, 6, 8, 15, 22, 24, 25]",140.0813435,40203,875,1,7,8,1.7422648616902974
undo,21,42,0,0,0,24,"[0, 3, 23, 17, 11, 24]",6,2,"[6, 15]",82.0727235,40989,786,1,1,8,1.6631309430247303
undo,21,42,0,0,0,15,"[0, 3, 23, 17, 11, 24, 15]",7,1,[6],68.47125299,41680,691,1,0,8,1.6008668931493675
undo,21,42,0,0,1,6,"[0, 3, 23, 17, 11, 24, 15, 6]",8,0,[],19.07489685,42790,1110,1,0,8,1.4594939660868298
undo,21,42,1,0,0,15,"[0, 3, 23, 17, 11, 24, 15]",7,1,[6],68.47125299,43897,1107,1,0,8,1.6008668931493675
undo,21,42,1,0,0,24,"[0, 3, 23, 17, 11, 24]",6,2,"[6, 15]",82.0727235,44118,221,1,1,8,1.6631309430247303
undo,21,42,1,0,0,11,"[0, 3, 23, 17, 11]",5,7,"[4, 6, 8, 15, 22, 24, 25]",140.0813435,44361,243,1,7,8,1.7422648616902974
undo,21,42,1,0,0,17,"[0, 3, 23, 17]",4,11,"[4, 5, 6, 8, 9, 11, 15, 22, 24, 25, 29]",191.2770465,44524,163,1,14,8,1.192958341617778
undo,21,42,1,0,0,23,"[0, 3, 23]",3,15,"[1, 2, 4, 5, 6, 7, 8, 9, 11, 15, 17, 22, 24, 25, 29]",202.4573864,44724,200,1,24,8,1.2042297975308642
undo,21,42,1,0,0,3,"[0, 3]",2,25,"[1, 2, 4, 5, 6, 7, 8, 9, 10, 11, 13, 15, 17, 18, 19, 20, 21, 22, 23, 24, 25, 26, 27, 28, 29]",255.7959278,44924,200,3,45,9,1.0
undo,21,42,1,0,0,0,[0],1,29,"[1, 2, 3, 4, 5, 6, 7, 8, 9, 10, 11, 12, 13, 14, 15, 16, 17, 18, 19, 20, 21, 22, 23, 24, 25, 26, 27, 28, 29]",300,45135,211,16,302,9,0.0
undo,21,42,0,0,0,25,"[0, 25]",2,27,"[1, 2, 3, 4, 5, 6, 7, 8, 9, 10, 11, 12, 13, 15, 16, 17, 18, 19, 20, 21, 22, 23, 24, 26, 27, 28, 29]",270.2678625,46302,1167,3,59,9,1.0
undo,21,42,0,0,0,22,"[0, 25, 22]",3,22,"[1, 2, 3, 4, 5, 6, 7, 8, 9, 10, 11, 15, 17, 18, 19, 20, 21, 23, 24, 26, 27, 29]",165.2250141,47265,963,1,15,9,1.5211584934966402
undo,21,42,0,0,0,4,"[0, 25, 22, 4]",4,18,"[1, 2, 3, 5, 7, 8, 9, 11, 15, 18, 19, 20, 21, 23, 24, 26, 27, 29]",154.0446742,48009,744,1,11,9,1.613283175983472
undo,21,42,0,0,0,5,"[0, 25, 22, 4, 5]",5,12,"[1, 2, 3, 7, 8, 18, 20, 21, 24, 26, 27, 29]",134.195241,49074,1065,5,8,8,1.525258219101537
undo,21,42,0,0,0,8,"[0, 25, 22, 4, 5, 8]",6,5,"[1, 3, 7, 24, 26]",99.71336168,49980,906,3,3,8,1.8628292999692944
undo,21,42,0,0,0,1,"[0, 25, 22, 4, 5, 8, 1]",7,2,"[7, 26]",50.62161084,51568,1588,2,0,8,1.6014115034245475
undo,21,42,0,0,1,7,"[0, 25, 22, 4, 5, 8, 1, 7]",8,0,[],20.62161084,52860,1292,1,0,8,1.6127231170819196
undo,21,42,1,0,0,1,"[0, 25, 22, 4, 5, 8, 1]",7,2,"[7, 26]",50.62161084,54019,1159,2,0,8,1.6014115034245475
undo,21,42,1,0,0,8,"[0, 25, 22, 4, 5, 8]",6,5,"[1, 3, 7, 24, 26]",99.71336168,54231,212,3,3,8,1.8628292999692944
undo,21,42,1,0,0,5,"[0, 25, 22, 4, 5]",5,12,"[1, 2, 3, 7, 8, 18, 20, 21, 24, 26, 27, 29]",134.195241,54361,130,5,8,8,1.525258219101537
undo,21,42,1,0,0,4,"[0, 25, 22, 4]",4,18,"[1, 2, 3, 5, 7, 8, 9, 11, 15, 18, 19, 20, 21, 23, 24, 26, 27, 29]",154.0446742,54558,197,1,11,9,1.613283175983472
undo,21,42,1,0,0,22,"[0, 25, 22]",3,22,"[1, 2, 3, 4, 5, 6, 7, 8, 9, 10, 11, 15, 17, 18, 19, 20, 21, 23, 24, 26, 27, 29]",165.2250141,54770,212,1,15,9,1.5211584934966402
undo,21,42,1,0,0,25,"[0, 25]",2,27,"[1, 2, 3, 4, 5, 6, 7, 8, 9, 10, 11, 12, 13, 15, 16, 17, 18, 19, 20, 21, 22, 23, 24, 26, 27, 28, 29]",270.2678625,55002,232,3,59,9,1.0
undo,21,42,1,0,0,0,[0],1,29,"[1, 2, 3, 4, 5, 6, 7, 8, 9, 10, 11, 12, 13, 14, 15, 16, 17, 18, 19, 20, 21, 22, 23, 24, 25, 26, 27, 28, 29]",300,55292,290,16,302,9,0.0
undo,21,42,0,0,0,22,"[0, 22]",2,27,"[1, 2, 3, 4, 5, 6, 7, 8, 9, 10, 11, 12, 13, 15, 16, 17, 18, 19, 20, 21, 23, 24, 25, 26, 27, 28, 29]",211.3997743,56399,1107,5,83,9,1.0
undo,21,42,0,0,0,4,"[0, 22, 4]",3,26,"[1, 2, 3, 5, 6, 7, 8, 9, 10, 11, 12, 13, 15, 16, 17, 18, 19, 20, 21, 23, 24, 25, 26, 27, 28, 29]",200.2194344,56931,532,4,51,9,1.1029012260448476
undo,21,42,1,0,0,22,"[0, 22]",2,27,"[1, 2, 3, 4, 5, 6, 7, 8, 9, 10, 11, 12, 13, 15, 16, 17, 18, 19, 20, 21, 23, 24, 25, 26, 27, 28, 29]",211.3997743,60203,3272,5,83,9,1.0
undo,21,42,0,0,0,8,"[0, 22, 8]",3,24,"[1, 2, 3, 4, 5, 6, 7, 9, 10, 11, 13, 15, 17, 18, 19, 20, 21, 23, 24, 25, 26, 27, 28, 29]",189.2638306,60656,453,19,88,8,1.029936807841886
undo,21,42,0,0,0,1,"[0, 22, 8, 1]",4,14,"[2, 3, 4, 5, 6, 7, 10, 15, 18, 19, 24, 26, 27, 28]",140.1720798,61400,744,13,34,8,1.0263530486295833
undo,21,42,0,0,0,7,"[0, 22, 8, 1, 7]",5,10,"[2, 4, 5, 6, 15, 19, 24, 26, 27, 28]",110.1720798,62799,1399,12,8,8,1.0957893919232085
undo,21,42,0,0,0,26,"[0, 22, 8, 1, 7, 26]",6,4,"[2, 19, 27, 28]",83.6014193,63564,765,6,1,8,1.0929221247474747
undo,21,42,0,0,0,27,"[0, 22, 8, 1, 7, 26, 27]",7,2,"[2, 19]",65.57366292,64896,1332,2,0,8,1.099382198082748
undo,21,42,0,0,1,19,"[0, 22, 8, 1, 7, 26, 27, 19]",8,0,[],24.56146961,65706,810,1,0,8,1.2738003776781508
undo,21,42,1,0,0,27,"[0, 22, 8, 1, 7, 26, 27]",7,2,"[2, 19]",65.57366292,66604,898,2,0,8,1.099382198082748
undo,21,42,1,0,0,26,"[0, 22, 8, 1, 7, 26]",6,4,"[2, 19, 27, 28]",83.6014193,66782,178,6,1,8,1.0929221247474747
undo,21,42,1,0,0,7,"[0, 22, 8, 1, 7]",5,10,"[2, 4, 5, 6, 15, 19, 24, 26, 27, 28]",110.1720798,66969,187,12,8,8,1.0957893919232085
undo,21,42,1,0,0,1,"[0, 22, 8, 1]",4,14,"[2, 3, 4, 5, 6, 7, 10, 15, 18, 19, 24, 26, 27, 28]",140.1720798,67130,161,13,34,8,1.0263530486295833
undo,21,42,1,0,0,8,"[0, 22, 8]",3,24,"[1, 2, 3, 4, 5, 6, 7, 9, 10, 11, 13, 15, 17, 18, 19, 20, 21, 23, 24, 25, 26, 27, 28, 29]",189.2638306,67349,219,19,88,8,1.029936807841886
undo,21,42,1,0,0,22,"[0, 22]",2,27,"[1, 2, 3, 4, 5, 6, 7, 8, 9, 10, 11, 12, 13, 15, 16, 17, 18, 19, 20, 21, 23, 24, 25, 26, 27, 28, 29]",211.3997743,67616,267,5,83,9,1.0
undo,21,42,0,0,0,4,"[0, 22, 4]",3,26,"[1, 2, 3, 5, 6, 7, 8, 9, 10, 11, 12, 13, 15, 16, 17, 18, 19, 20, 21, 23, 24, 25, 26, 27, 28, 29]",200.2194344,68547,931,4,51,9,1.1029012260448476
undo,21,42,0,0,0,5,"[0, 22, 4, 5]",4,24,"[1, 2, 3, 6, 7, 8, 9, 10, 11, 12, 13, 15, 17, 18, 19, 20, 21, 23, 24, 25, 26, 27, 28, 29]",180.3700011,70375,1828,3,22,9,1.1004909640339868
undo,21,42,0,0,0,8,"[0, 22, 4, 5, 8]",5,16,"[1, 2, 3, 6, 7, 11, 15, 18, 19, 23, 24, 25, 26, 27, 28, 29]",145.8881218,71001,626,3,12,9,1.4333663223483832
undo,21,42,0,0,0,1,"[0, 22, 4, 5, 8, 1]",6,6,"[2, 7, 18, 19, 26, 27]",96.796371,72550,1549,3,7,9,1.3048950637395882
undo,21,42,0,0,0,7,"[0, 22, 4, 5, 8, 1, 7]",7,4,"[2, 19, 26, 27]",66.796371,73288,738,3,2,9,1.3461774355793397
undo,21,42,0,0,0,26,"[0, 22, 4, 5, 8, 1, 7, 26]",8,2,"[19, 27]",40.22571049,74041,753,2,0,9,1.3119913611616163
undo,21,42,0,0,1,27,"[0, 22, 4, 5, 8, 1, 7, 26, 27]",9,0,[],22.19795412,75243,1202,1,0,9,1.3027999653776734
undo,21,42,0,1,1,27,"[0, 22, 4, 5, 8, 1, 7, 26, 27]",9,0,[],22.19795412,77454,2211,1,0,9,1.3027999653776734
undo,22,25,0,0,0,0,[0],1,28,"[1, 2, 3, 4, 5, 7, 8, 9, 10, 11, 12, 13, 14, 15, 16, 17, 18, 19, 20, 21, 22, 23, 24, 25, 26, 27, 28, 29]",300,217,-1,5,94,10,0.0
undo,22,25,0,0,0,23,"[0, 23]",2,23,"[1, 2, 3, 5, 7, 8, 9, 11, 12, 13, 14, 16, 17, 19, 20, 21, 22, 24, 25, 26, 27, 28, 29]",259.7756293,97437,97220,3,33,10,1.0
undo,22,25,0,0,0,19,"[0, 23, 19]",3,21,"[1, 2, 3, 5, 7, 8, 9, 11, 12, 13, 14, 16, 17, 20, 21, 22, 24, 25, 27, 28, 29]",223.9287326,98114,677,3,24,10,1.583101227007039
undo,22,25,0,0,0,29,"[0, 23, 19, 29]",4,19,"[1, 2, 3, 5, 7, 8, 9, 11, 12, 13, 14, 16, 17, 20, 21, 22, 24, 25, 28]",207.649912,98690,576,3,17,10,1.474631541426484
undo,22,25,0,0,0,22,"[0, 23, 19, 29, 22]",5,18,"[1, 2, 3, 5, 7, 8, 9, 11, 12, 13, 14, 16, 17, 20, 21, 24, 25, 28]",191.5253965,99143,453,3,14,10,1.4020377754906637
undo,22,25,0,0,0,7,"[0, 23, 19, 29, 22, 7]",6,7,"[3, 8, 9, 11, 13, 24, 28]",115.8814939,100608,1465,3,11,10,1.5709678649326715
undo,22,25,0,0,0,24,"[0, 23, 19, 29, 22, 7, 24]",7,5,"[3, 8, 9, 13, 28]",91.12265712,101265,657,3,7,10,1.486191600033379
undo,22,25,0,0,0,9,"[0, 23, 19, 29, 22, 7, 24, 9]",8,4,"[3, 8, 13, 28]",73.09490075,102811,1546,3,3,10,1.453504870342882
undo,22,25,0,0,0,3,"[0, 23, 19, 29, 22, 7, 24, 9, 3]",9,3,"[8, 13, 28]",42.82940885,103706,895,3,0,10,1.388955167525479
undo,22,25,0,0,1,28,"[0, 23, 19, 29, 22, 7, 24, 9, 3, 28]",10,0,[],11.52445716,104624,918,1,0,10,1.3331084120212044
undo,22,25,1,0,0,3,"[0, 23, 19, 29, 22, 7, 24, 9, 3]",9,3,"[8, 13, 28]",42.82940885,107134,2510,3,0,10,1.388955167525479
undo,22,25,1,0,0,9,"[0, 23, 19, 29, 22, 7, 24, 9]",8,4,"[3, 8, 13, 28]",73.09490075,107438,304,3,3,10,1.453504870342882
undo,22,25,1,0,0,24,"[0, 23, 19, 29, 22, 7, 24]",7,5,"[3, 8, 9, 13, 28]",91.12265712,107909,471,3,7,10,1.486191600033379
undo,22,25,1,0,0,7,"[0, 23, 19, 29, 22, 7]",6,7,"[3, 8, 9, 11, 13, 24, 28]",115.8814939,108193,284,3,11,10,1.5709678649326715
undo,22,25,1,0,0,22,"[0, 23, 19, 29, 22]",5,18,"[1, 2, 3, 5, 7, 8, 9, 11, 12, 13, 14, 16, 17, 20, 21, 24, 25, 28]",191.5253965,108927,734,3,14,10,1.4020377754906637
undo,22,25,1,0,0,29,"[0, 23, 19, 29]",4,19,"[1, 2, 3, 5, 7, 8, 9, 11, 12, 13, 14, 16, 17, 20, 21, 22, 24, 25, 28]",207.649912,112485,3558,3,17,10,1.474631541426484
undo,22,25,1,0,0,19,"[0, 23, 19]",3,21,"[1, 2, 3, 5, 7, 8, 9, 11, 12, 13, 14, 16, 17, 20, 21, 22, 24, 25, 27, 28, 29]",223.9287326,112809,324,3,24,10,1.583101227007039
undo,22,25,1,0,0,23,"[0, 23]",2,23,"[1, 2, 3, 5, 7, 8, 9, 11, 12, 13, 14, 16, 17, 19, 20, 21, 22, 24, 25, 26, 27, 28, 29]",259.7756293,113093,284,3,33,10,1.0
undo,22,25,1,0,0,0,[0],1,28,"[1, 2, 3, 4, 5, 7, 8, 9, 10, 11, 12, 13, 14, 15, 16, 17, 18, 19, 20, 21, 22, 23, 24, 25, 26, 27, 28, 29]",300,113437,344,5,94,10,0.0
undo,22,25,0,0,0,23,"[0, 23]",2,23,"[1, 2, 3, 5, 7, 8, 9, 11, 12, 13, 14, 16, 17, 19, 20, 21, 22, 24, 25, 26, 27, 28, 29]",259.7756293,114450,1013,3,33,10,1.0
undo,22,25,0,0,0,7,"[0, 23, 7]",3,16,"[1, 3, 5, 8, 9, 11, 13, 17, 19, 21, 22, 24, 26, 27, 28, 29]",181.9424744,116221,1771,1,21,9,1.0073109045884563
undo,22,25,0,0,0,24,"[0, 23, 7, 24]",4,10,"[3, 5, 8, 9, 11, 13, 19, 22, 28, 29]",157.1836376,117081,860,1,17,9,1.0161584555781231
undo,22,25,0,0,0,9,"[0, 23, 7, 24, 9]",5,8,"[3, 8, 11, 13, 19, 22, 28, 29]",139.1558812,117878,797,1,16,9,1.0303325523073676
undo,22,25,0,0,0,3,"[0, 23, 7, 24, 9, 3]",6,4,"[8, 11, 13, 28]",108.8903893,118497,619,1,5,9,1.0321657704271587
undo,22,25,0,0,0,13,"[0, 23, 7, 24, 9, 3, 13]",7,2,"[8, 28]",77.6493906,119172,675,1,1,9,1.1031543757060376
undo,22,25,0,0,0,28,"[0, 23, 7, 24, 9, 3, 13, 28]",8,1,[8],43.41490506,120453,1281,1,0,9,1.1857356956374323
undo,22,25,0,0,1,8,"[0, 23, 7, 24, 9, 3, 13, 28, 8]",9,0,[],2.807024055,121356,903,1,0,9,1.486169242046657
undo,22,25,1,0,0,28,"[0, 23, 7, 24, 9, 3, 13, 28]",8,1,[8],43.41490506,121936,580,1,0,9,1.1857356956374323
undo,22,25,1,0,0,13,"[0, 23, 7, 24, 9, 3, 13]",7,2,"[8, 28]",77.6493906,122224,288,1,1,9,1.1031543757060376
undo,22,25,1,0,0,3,"[0, 23, 7, 24, 9, 3]",6,4,"[8, 11, 13, 28]",108.8903893,122426,202,1,5,9,1.0321657704271587
undo,22,25,1,0,0,9,"[0, 23, 7, 24, 9]",5,8,"[3, 8, 11, 13, 19, 22, 28, 29]",139.1558812,122653,227,1,16,9,1.0303325523073676
undo,22,25,1,0,0,24,"[0, 23, 7, 24]",4,10,"[3, 5, 8, 9, 11, 13, 19, 22, 28, 29]",157.1836376,122807,154,1,17,9,1.0161584555781231
undo,22,25,1,0,0,7,"[0, 23, 7]",3,16,"[1, 3, 5, 8, 9, 11, 13, 17, 19, 21, 22, 24, 26, 27, 28, 29]",181.9424744,123028,221,1,21,9,1.0073109045884563
undo,22,25,1,0,0,23,"[0, 23]",2,23,"[1, 2, 3, 5, 7, 8, 9, 11, 12, 13, 14, 16, 17, 19, 20, 21, 22, 24, 25, 26, 27, 28, 29]",259.7756293,123245,217,3,33,10,1.0
undo,22,25,1,0,0,0,[0],1,28,"[1, 2, 3, 4, 5, 7, 8, 9, 10, 11, 12, 13, 14, 15, 16, 17, 18, 19, 20, 21, 22, 23, 24, 25, 26, 27, 28, 29]",300,123539,294,5,94,10,0.0
undo,22,25,0,0,0,19,"[0, 19]",2,27,"[1, 2, 3, 4, 5, 7, 8, 9, 10, 11, 12, 13, 14, 15, 16, 17, 18, 20, 21, 22, 23, 24, 25, 26, 27, 28, 29]",251.9479449,125973,2434,2,30,10,1.0
undo,22,25,0,0,0,23,"[0, 19, 23]",3,17,"[1, 3, 5, 7, 8, 9, 11, 12, 13, 17, 20, 21, 22, 24, 25, 28, 29]",216.1010482,126642,669,1,23,9,2.085774128807378
undo,22,25,0,0,0,7,"[0, 19, 23, 7]",4,10,"[3, 5, 8, 9, 11, 13, 22, 24, 28, 29]",138.2678933,127581,939,13,26,8,1.379958743612476
undo,22,25,0,0,0,24,"[0, 19, 23, 7, 24]",5,8,"[3, 8, 9, 11, 13, 22, 28, 29]",113.5090565,129305,1724,9,11,8,1.3269092276381005
undo,22,25,0,0,0,9,"[0, 19, 23, 7, 24, 9]",6,4,"[3, 8, 13, 28]",95.48130016,129909,604,9,0,8,1.3101024493332711
undo,22,25,0,0,0,3,"[0, 19, 23, 7, 24, 9, 3]",7,3,"[8, 13, 28]",65.21580826,131131,1222,3,0,8,1.2680482434337084
undo,22,25,0,0,1,13,"[0, 19, 23, 7, 24, 9, 3, 13]",8,0,[],33.97480956,131972,841,1,0,8,1.31983831154689
undo,22,25,1,0,0,3,"[0, 19, 23, 7, 24, 9, 3]",7,3,"[8, 13, 28]",65.21580826,134147,2175,3,0,8,1.2680482434337084
undo,22,25,1,0,0,9,"[0, 19, 23, 7, 24, 9]",6,4,"[3, 8, 13, 28]",95.48130016,134359,212,9,0,8,1.3101024493332711
undo,22,25,1,0,0,24,"[0, 19, 23, 7, 24]",5,8,"[3, 8, 9, 11, 13, 22, 28, 29]",113.5090565,134521,162,9,11,8,1.3269092276381005
undo,22,25,1,0,0,7,"[0, 19, 23, 7]",4,10,"[3, 5, 8, 9, 11, 13, 22, 24, 28, 29]",138.2678933,134873,352,13,26,8,1.379958743612476
undo,22,25,1,0,0,23,"[0, 19, 23]",3,17,"[1, 3, 5, 7, 8, 9, 11, 12, 13, 17, 20, 21, 22, 24, 25, 28, 29]",216.1010482,135143,270,1,23,9,2.085774128807378
undo,22,25,1,0,0,19,"[0, 19]",2,27,"[1, 2, 3, 4, 5, 7, 8, 9, 10, 11, 12, 13, 14, 15, 16, 17, 18, 20, 21, 22, 23, 24, 25, 26, 27, 28, 29]",251.9479449,135474,331,2,30,10,1.0
undo,22,25,1,0,0,0,[0],1,28,"[1, 2, 3, 4, 5, 7, 8, 9, 10, 11, 12, 13, 14, 15, 16, 17, 18, 19, 20, 21, 22, 23, 24, 25, 26, 27, 28, 29]",300,135978,504,5,94,10,0.0
undo,22,25,0,0,0,23,"[0, 23]",2,23,"[1, 2, 3, 5, 7, 8, 9, 11, 12, 13, 14, 16, 17, 19, 20, 21, 22, 24, 25, 26, 27, 28, 29]",259.7756293,137363,1385,3,33,10,1.0
undo,22,25,0,0,0,19,"[0, 23, 19]",3,21,"[1, 2, 3, 5, 7, 8, 9, 11, 12, 13, 14, 16, 17, 20, 21, 22, 24, 25, 27, 28, 29]",223.9287326,139107,1744,3,24,10,1.583101227007039
undo,22,25,0,0,0,29,"[0, 23, 19, 29]",4,19,"[1, 2, 3, 5, 7, 8, 9, 11, 12, 13, 14, 16, 17, 20, 21, 22, 24, 25, 28]",207.649912,139892,785,3,17,10,1.474631541426484
undo,22,25,0,0,0,22,"[0, 23, 19, 29, 22]",5,18,"[1, 2, 3, 5, 7, 8, 9, 11, 12, 13, 14, 16, 17, 20, 21, 24, 25, 28]",191.5253965,140341,449,3,14,10,1.4020377754906637
undo,22,25,0,0,0,7,"[0, 23, 19, 29, 22, 7]",6,7,"[3, 8, 9, 11, 13, 24, 28]",115.8814939,141355,1014,3,11,10,1.5709678649326715
undo,22,25,0,0,0,24,"[0, 23, 19, 29, 22, 7, 24]",7,5,"[3, 8, 9, 13, 28]",91.12265712,141901,546,3,7,10,1.486191600033379
undo,22,25,0,0,0,9,"[0, 23, 19, 29, 22, 7, 24, 9]",8,4,"[3, 8, 13, 28]",73.09490075,142569,668,3,3,10,1.453504870342882
undo,22,25,0,0,0,3,"[0, 23, 19, 29, 22, 7, 24, 9, 3]",9,3,"[8, 13, 28]",42.82940885,143191,622,3,0,10,1.388955167525479
undo,22,25,0,0,1,28,"[0, 23, 19, 29, 22, 7, 24, 9, 3, 28]",10,0,[],11.52445716,144491,1300,1,0,10,1.3331084120212044
undo,22,25,0,1,1,28,"[0, 23, 19, 29, 22, 7, 24, 9, 3, 28]",10,0,[],11.52445716,144974,483,1,0,10,1.3331084120212044
basic,23,37,0,0,0,0,[0],1,29,"[1, 2, 3, 4, 5, 6, 7, 8, 9, 10, 11, 12, 13, 14, 15, 16, 17, 18, 19, 20, 21, 22, 23, 24, 25, 26, 27, 28, 29]",300,264,-1,6,168,10,0.0
basic,23,37,0,0,0,19,"[0, 19]",2,19,"[1, 2, 4, 5, 6, 7, 9, 10, 11, 15, 17, 18, 20, 21, 22, 25, 26, 28, 29]",185.6627795,13988,13724,25,244,9,1.0
basic,23,37,0,0,0,21,"[0, 19, 21]",3,14,"[1, 2, 4, 7, 10, 11, 15, 17, 18, 20, 22, 25, 26, 29]",144.5531699,14646,658,10,75,9,1.001632816594558
basic,23,37,0,0,0,15,"[0, 19, 21, 15]",4,9,"[1, 2, 4, 7, 18, 20, 22, 26, 29]",129.5531699,15243,597,5,32,9,1.0243376499143988
basic,23,37,0,0,0,20,"[0, 19, 21, 15, 20]",5,8,"[1, 2, 4, 7, 18, 22, 26, 29]",112.5531699,16359,1116,5,14,9,1.250507291508492
basic,23,37,0,0,0,1,"[0, 19, 21, 15, 20, 1]",6,6,"[2, 4, 7, 18, 22, 26]",78.31868434,17086,727,4,4,9,1.4002166443864243
basic,23,37,0,0,0,2,"[0, 19, 21, 15, 20, 1, 2]",7,4,"[4, 7, 18, 22]",61.11403381,17731,645,2,2,9,1.5802253600182588
basic,23,37,0,0,0,4,"[0, 19, 21, 15, 20, 1, 2, 4]",8,1,[22],49.71227956,18349,618,1,0,9,1.5399187067712754
basic,23,37,0,0,1,22,"[0, 19, 21, 15, 20, 1, 2, 4, 22]",9,0,[],24.71227956,19862,1513,1,0,9,1.6903775033413582
basic,23,37,0,1,1,22,"[0, 19, 21, 15, 20, 1, 2, 4, 22]",9,0,[],24.71227956,21400,1538,1,0,9,1.6903775033413582
basic,24,38,0,0,0,0,[0],1,29,"[1, 2, 3, 4, 5, 6, 7, 8, 9, 10, 11, 12, 13, 14, 15, 16, 17, 18, 19, 20, 21, 22, 23, 24, 25, 26, 27, 28, 29]",300,218,-1,33,506,9,0.0
basic,24,38,0,0,0,19,"[0, 19]",2,23,"[3, 4, 5, 6, 7, 8, 9, 11, 13, 14, 15, 16, 17, 18, 20, 22, 23, 24, 25, 26, 27, 28, 29]",219.5015528,9173,8955,6,61,9,1.0
basic,24,38,0,0,0,17,"[0, 19, 17]",3,21,"[3, 4, 5, 6, 7, 9, 11, 13, 14, 15, 16, 18, 20, 22, 23, 24, 25, 26, 27, 28, 29]",198.1239945,9979,806,6,53,9,1.571793785769489
basic,24,38,0,0,0,20,"[0, 19, 17, 20]",4,17,"[3, 4, 5, 6, 7, 11, 13, 14, 15, 16, 18, 22, 24, 25, 26, 27, 28]",174.3542658,10835,856,6,44,9,2.333182710277297
basic,24,38,0,0,0,4,"[0, 19, 17, 20, 4]",5,10,"[5, 11, 13, 14, 15, 16, 24, 26, 27, 28]",140.4131403,17840,7005,5,22,9,2.276099229646013
basic,24,38,0,0,0,15,"[0, 19, 17, 20, 4, 15]",6,8,"[5, 11, 13, 14, 16, 24, 26, 28]",114.4131403,18691,851,5,6,9,2.5292671156176403
basic,24,38,0,0,0,11,"[0, 19, 17, 20, 4, 15, 11]",7,2,"[16, 28]",78.01259089,19625,934,2,0,9,2.778100109749787
basic,24,38,0,0,0,28,"[0, 19, 17, 20, 4, 15, 11, 28]",8,1,[16],50.99407872,20742,1117,1,0,9,2.3316428595723258
basic,24,38,0,0,1,16,"[0, 19, 17, 20, 4, 15, 11, 28, 16]",9,0,[],21.99407872,22600,1858,1,0,9,2.5408012360364265
basic,24,38,0,1,1,16,"[0, 19, 17, 20, 4, 15, 11, 28, 16]",9,0,[],21.99407872,23776,1176,1,0,9,2.5408012360364265
basic,25,39,0,0,0,0,[0],1,28,"[1, 2, 3, 4, 5, 6, 7, 9, 10, 11, 12, 13, 14, 15, 16, 17, 18, 19, 20, 21, 22, 23, 24, 25, 26, 27, 28, 29]",300,219,-1,1,30,10,0.0
basic,25,39,0,0,0,14,"[0, 14]",2,26,"[1, 2, 3, 4, 5, 6, 7, 9, 10, 12, 13, 15, 16, 17, 18, 19, 20, 21, 22, 23, 24, 25, 26, 27, 28, 29]",286.9615952,3453,3234,1,22,10,1.0
basic,25,39,0,0,0,29,"[0, 14, 29]",3,23,"[1, 2, 3, 4, 5, 6, 7, 9, 10, 12, 13, 15, 16, 17, 18, 19, 21, 22, 23, 24, 25, 26, 28]",218.9321898,5387,1934,1,21,10,1.4237768813412561
basic,25,39,0,0,0,12,"[0, 14, 29, 12]",4,16,"[1, 2, 4, 5, 7, 9, 10, 13, 15, 16, 18, 19, 22, 23, 24, 26]",158.3929463,7500,2113,1,11,10,1.2085522586932163
basic,25,39,0,0,0,10,"[0, 14, 29, 12, 10]",5,11,"[1, 4, 5, 7, 15, 16, 18, 19, 22, 23, 26]",122.8823845,9361,1861,1,8,10,1.4905426536315662
basic,25,39,0,0,0,7,"[0, 14, 29, 12, 10, 7]",6,6,"[1, 16, 18, 19, 22, 26]",89.46083457,10272,911,1,6,10,1.3836596018032035
basic,25,39,0,0,0,26,"[0, 14, 29, 12, 10, 7, 26]",7,3,"[16, 19, 22]",70.77929288,12177,1905,1,4,10,1.4191124441944845
basic,25,39,0,0,0,22,"[0, 14, 29, 12, 10, 7, 26, 22]",8,2,"[16, 19]",53.05924773,13771,1594,1,1,10,1.594793297833885
basic,25,39,0,0,0,16,"[0, 14, 29, 12, 10, 7, 26, 22, 16]",9,1,[19],18.05924773,15433,1662,1,0,10,1.48519520801471
basic,25,39,0,0,1,19,"[0, 14, 29, 12, 10, 7, 26, 22, 16, 19]",10,0,[],0.594998533,17268,1835,1,0,10,1.484277847976571
basic,25,39,0,1,1,19,"[0, 14, 29, 12, 10, 7, 26, 22, 16, 19]",10,0,[],0.594998533,18565,1297,1,0,10,1.484277847976571
basic,26,6,0,0,0,0,[0],1,29,"[1, 2, 3, 4, 5, 6, 7, 8, 9, 10, 11, 12, 13, 14, 15, 16, 17, 18, 19, 20, 21, 22, 23, 24, 25, 26, 27, 28, 29]",300,227,-1,180,4304,10,0.0
basic,26,6,0,0,0,26,"[0, 26]",2,25,"[1, 2, 3, 4, 5, 6, 7, 8, 9, 10, 11, 12, 13, 14, 15, 16, 17, 18, 20, 21, 22, 23, 24, 27, 29]",250.2606795,18139,17912,45,776,10,1.0
basic,26,6,0,0,0,7,"[0, 26, 7]",3,24,"[1, 2, 3, 4, 5, 6, 8, 9, 10, 11, 12, 13, 14, 15, 16, 17, 18, 20, 21, 22, 23, 24, 27, 29]",226.1774904,20540,2401,25,520,10,1.5373018630243536
basic,26,6,0,0,0,3,"[0, 26, 7, 3]",4,22,"[1, 2, 4, 6, 8, 9, 10, 11, 12, 13, 14, 15, 16, 17, 18, 20, 21, 22, 23, 24, 27, 29]",190.0388684,21493,953,20,235,10,3.2798655773210936
basic,26,6,0,0,0,24,"[0, 26, 7, 3, 24]",5,13,"[2, 4, 6, 8, 10, 13, 16, 17, 18, 22, 23, 27, 29]",126.0857606,28616,7123,1,17,10,1.78752404182238
basic,26,6,0,0,0,10,"[0, 26, 7, 3, 24, 10]",6,8,"[2, 6, 16, 17, 18, 22, 23, 29]",112.6693527,29607,991,1,10,10,2.2210171055417245
basic,26,6,0,0,0,17,"[0, 26, 7, 3, 24, 10, 17]",7,5,"[6, 16, 18, 23, 29]",92.94626977,30579,972,1,4,10,2.933761386470952
basic,26,6,0,0,0,18,"[0, 26, 7, 3, 24, 10, 17, 18]",8,3,"[16, 23, 29]",79.01788149,31607,1028,1,2,10,3.628513273236627
basic,26,6,0,0,0,16,"[0, 26, 7, 3, 24, 10, 17, 18, 16]",9,1,[29],55.67264643,34291,2684,1,0,10,3.38495757060591
basic,26,6,0,0,1,29,"[0, 26, 7, 3, 24, 10, 17, 18, 16, 29]",10,0,[],18.98477378,36305,2014,1,0,10,2.6384370869115052
basic,26,6,0,1,1,29,"[0, 26, 7, 3, 24, 10, 17, 18, 16, 29]",10,0,[],18.98477378,37580,1275,1,0,10,2.6384370869115052
basic,27,44,0,0,0,0,[0],1,29,"[1, 2, 3, 4, 5, 6, 7, 8, 9, 10, 11, 12, 13, 14, 15, 16, 17, 18, 19, 20, 21, 22, 23, 24, 25, 26, 27, 28, 29]",300,208,-1,13,126,7,0.0
basic,27,44,0,0,0,8,"[0, 8]",2,17,"[1, 4, 5, 7, 9, 10, 11, 12, 13, 14, 15, 20, 21, 23, 24, 25, 27]",145.7923478,5149,4941,1,10,7,1.0
basic,27,44,0,0,0,20,"[0, 8, 20]",3,16,"[1, 4, 5, 7, 9, 10, 11, 12, 13, 14, 15, 21, 23, 24, 25, 27]",133.7093018,6183,1034,1,9,7,1.0890794433668698
basic,27,44,0,0,0,9,"[0, 8, 20, 9]",4,7,"[4, 7, 11, 12, 14, 23, 24]",76.43801756,11914,5731,1,6,7,1.40892325509949
basic,27,44,0,0,0,4,"[0, 8, 20, 9, 4]",5,4,"[7, 12, 23, 24]",56.74030196,12756,842,1,3,7,1.3849770570803555
basic,27,44,0,0,0,7,"[0, 8, 20, 9, 4, 7]",6,1,[23],25.72417712,15102,2346,1,0,7,1.3274380931474288
basic,27,44,0,0,1,23,"[0, 8, 20, 9, 4, 7, 23]",7,0,[],6.619203947,16436,1334,1,0,7,1.3395824779823196
basic,27,44,0,1,1,23,"[0, 8, 20, 9, 4, 7, 23]",7,0,[],6.619203947,18955,2519,1,0,7,1.3395824779823196
basic,28,34,0,0,0,0,[0],1,25,"[1, 3, 4, 5, 6, 7, 8, 9, 10, 11, 12, 13, 15, 18, 19, 20, 21, 22, 23, 24, 25, 26, 27, 28, 29]",300,220,-1,12,367,10,0.0
basic,28,34,0,0,0,13,"[0, 13]",2,24,"[1, 3, 4, 5, 6, 7, 8, 9, 10, 11, 12, 15, 18, 19, 20, 21, 22, 23, 24, 25, 26, 27, 28, 29]",279.9750156,2144,1924,12,331,10,1.0
basic,28,34,0,0,0,1,"[0, 13, 1]",3,16,"[3, 5, 7, 8, 9, 10, 11, 12, 19, 21, 22, 23, 24, 25, 27, 29]",211.8574701,3299,1155,3,92,10,1.0010381285747127
basic,28,34,0,0,0,8,"[0, 13, 1, 8]",4,14,"[3, 5, 7, 9, 10, 11, 12, 19, 22, 23, 24, 25, 27, 29]",201.0871405,3934,635,2,54,10,1.1636807
basic,28,34,0,0,0,25,"[0, 13, 1, 8, 25]",5,12,"[3, 5, 7, 9, 10, 11, 12, 22, 23, 24, 27, 29]",183.999133,5599,1665,2,28,10,1.1396208815936457
basic,28,34,0,0,0,24,"[0, 13, 1, 8, 25, 24]",6,11,"[3, 5, 7, 9, 10, 11, 12, 22, 23, 27, 29]",166.5062774,7024,1425,2,23,10,1.374180768736554
basic,28,34,0,0,0,23,"[0, 13, 1, 8, 25, 24, 23]",7,6,"[5, 7, 11, 12, 27, 29]",99.97808784,11350,4326,4,3,9,2.1078306540088096
basic,28,34,0,0,0,7,"[0, 13, 1, 8, 25, 24, 23, 7]",8,2,"[11, 12]",71.81783216,12313,963,2,0,9,2.011215865419536
basic,28,34,0,0,1,12,"[0, 13, 1, 8, 25, 24, 23, 7, 12]",9,0,[],56.78453578,13178,865,1,0,9,1.9762514824310813
basic,28,34,0,1,1,12,"[0, 13, 1, 8, 25, 24, 23, 7, 12]",9,0,[],56.78453578,15062,1884,1,0,9,1.9762514824310813
basic,29,9,0,0,0,0,[0],1,27,"[1, 3, 4, 5, 6, 7, 8, 9, 10, 11, 13, 14, 15, 16, 17, 18, 19, 20, 21, 22, 23, 24, 25, 26, 27, 28, 29]",300,265,-1,2,182,10,0.0
basic,29,9,0,0,0,8,"[0, 8]",2,25,"[1, 3, 4, 5, 6, 7, 9, 10, 11, 13, 14, 15, 16, 17, 18, 19, 20, 21, 22, 23, 24, 25, 26, 27, 28]",236.2191251,40932,40667,2,102,9,1.0
basic,29,9,0,0,0,26,"[0, 8, 26]",3,23,"[1, 3, 4, 5, 6, 7, 9, 10, 11, 13, 15, 16, 17, 18, 19, 20, 21, 22, 23, 24, 25, 27, 28]",180.7574266,50248,9316,6,37,8,1.020696987886023
basic,29,9,0,0,0,18,"[0, 8, 26, 18]",4,14,"[1, 3, 5, 6, 9, 13, 15, 16, 19, 20, 21, 23, 24, 28]",119.8805016,51119,871,2,6,8,1.0335662819890439
basic,29,9,0,0,0,5,"[0, 8, 26, 18, 5]",5,3,"[1, 13, 24]",55.98997023,52339,1220,2,4,8,1.0959909798793261
basic,29,9,0,0,0,13,"[0, 8, 26, 18, 5, 13]",6,2,"[1, 24]",40.7256327,53427,1088,2,0,8,1.113422011681186
basic,29,9,0,0,0,24,"[0, 8, 26, 18, 5, 13, 24]",7,1,[1],23.23277702,54277,850,1,0,8,1.108302009749981
basic,29,9,0,0,1,1,"[0, 8, 26, 18, 5, 13, 24, 1]",8,0,[],2.23277702,55143,866,1,0,8,1.216603269618072
basic,29,9,0,1,1,1,"[0, 8, 26, 18, 5, 13, 24, 1]",8,0,[],2.23277702,58271,3128,1,0,8,1.216603269618072
basic,30,3,0,0,0,0,[0],1,29,"[1, 2, 3, 4, 5, 6, 7, 8, 9, 10, 11, 12, 13, 14, 15, 16, 17, 18, 19, 20, 21, 22, 23, 24, 25, 26, 27, 28, 29]",300,217,-1,34,427,10,0.0
basic,30,3,0,0,0,7,"[0, 7]",2,28,"[1, 2, 3, 4, 5, 6, 8, 9, 10, 11, 12, 13, 14, 15, 16, 17, 18, 19, 20, 21, 22, 23, 24, 25, 26, 27, 28, 29]",278.8103799,13683,13466,24,215,10,1.0
basic,30,3,0,0,0,24,"[0, 7, 24]",3,23,"[1, 2, 3, 4, 5, 6, 8, 10, 11, 12, 14, 15, 16, 17, 18, 19, 20, 21, 22, 25, 26, 27, 28]",219.6411311,14544,861,8,84,10,1.3653527628841189
basic,30,3,0,0,0,8,"[0, 7, 24, 8]",4,21,"[1, 3, 4, 5, 6, 10, 11, 12, 14, 15, 16, 17, 18, 19, 20, 21, 22, 25, 26, 27, 28]",207.4756061,15500,956,8,60,10,1.5412172375781357
basic,30,3,0,0,0,14,"[0, 7, 24, 8, 14]",5,7,"[3, 4, 10, 17, 19, 20, 21]",132.0236346,17408,1908,3,14,10,1.3051260550225026
basic,30,3,0,0,0,21,"[0, 7, 24, 8, 14, 21]",6,6,"[3, 4, 10, 17, 19, 20]",105.1163865,18163,755,2,5,10,1.267376542015893
basic,30,3,0,0,0,19,"[0, 7, 24, 8, 14, 21, 19]",7,5,"[3, 4, 10, 17, 20]",92.90983088,19649,1486,2,3,10,1.4032354412855994
basic,30,3,0,0,0,3,"[0, 7, 24, 8, 14, 21, 19, 3]",8,2,"[17, 20]",55.57352148,20790,1141,2,0,10,1.9538493733933988
basic,30,3,0,0,0,20,"[0, 7, 24, 8, 14, 21, 19, 3, 20]",9,1,[17],35.17744342,21753,963,1,0,10,2.3390787326732947
basic,30,3,0,0,1,17,"[0, 7, 24, 8, 14, 21, 19, 3, 20, 17]",10,0,[],22.52833278,23068,1315,1,0,10,2.7122410107486066
basic,30,3,0,1,1,17,"[0, 7, 24, 8, 14, 21, 19, 3, 20, 17]",10,0,[],22.52833278,23869,801,1,0,10,2.7122410107486066
basic,31,20,0,0,0,0,[0],1,21,"[1, 2, 3, 4, 5, 6, 7, 8, 9, 12, 17, 18, 20, 21, 22, 23, 25, 26, 27, 28, 29]",300,202,-1,1,9,9,0.0
basic,31,20,0,0,0,12,"[0, 12]",2,20,"[1, 2, 3, 4, 5, 6, 7, 8, 9, 17, 18, 20, 21, 22, 23, 25, 26, 27, 28, 29]",271.5570747,7863,7661,1,8,9,1.0
basic,31,20,0,0,0,1,"[0, 12, 1]",3,12,"[3, 4, 5, 6, 8, 9, 20, 21, 23, 27, 28, 29]",189.5692707,8780,917,1,6,9,1.0757997779162911
basic,31,20,0,0,0,5,"[0, 12, 1, 5]",4,10,"[4, 6, 8, 9, 20, 21, 23, 27, 28, 29]",152.8950291,10294,1514,1,5,9,1.1708231454516806
basic,31,20,0,0,0,21,"[0, 12, 1, 5, 21]",5,8,"[4, 6, 8, 9, 20, 23, 27, 28]",107.8950291,11077,783,1,4,9,1.126197336199212
basic,31,20,0,0,0,8,"[0, 12, 1, 5, 21, 8]",6,5,"[6, 9, 23, 27, 28]",90.43077988,13414,2337,1,3,9,1.140007470699913
basic,31,20,0,0,0,23,"[0, 12, 1, 5, 21, 8, 23]",7,2,"[6, 9]",45.74297394,15179,1765,1,1,9,1.1162257896627588
basic,31,20,0,0,0,9,"[0, 12, 1, 5, 21, 8, 23, 9]",8,1,[6],26.53360123,15812,633,1,0,9,1.1086880559449597
basic,31,20,0,0,1,6,"[0, 12, 1, 5, 21, 8, 23, 9, 6]",9,0,[],3.511872362,16662,850,1,0,9,1.1186240265999328
basic,31,20,0,1,1,6,"[0, 12, 1, 5, 21, 8, 23, 9, 6]",9,0,[],3.511872362,18183,1521,1,0,9,1.1186240265999328
basic,32,4,0,0,0,0,[0],1,26,"[3, 4, 5, 6, 7, 8, 10, 11, 12, 13, 14, 15, 16, 17, 18, 19, 20, 21, 22, 23, 24, 25, 26, 27, 28, 29]",300,199,-1,4,489,10,0.0
basic,32,4,0,0,0,28,"[0, 28]",2,21,"[3, 4, 5, 6, 10, 11, 12, 13, 14, 15, 16, 17, 19, 20, 21, 22, 23, 24, 25, 26, 27]",225.9392142,4350,4151,2,216,10,1.0
basic,32,4,0,0,0,14,"[0, 28, 14]",3,13,"[3, 4, 5, 6, 11, 13, 16, 17, 20, 21, 22, 24, 25]",159.6972335,5454,1104,1,26,10,1.0273973946789214
basic,32,4,0,0,0,11,"[0, 28, 14, 11]",4,11,"[3, 4, 5, 6, 13, 16, 17, 20, 21, 22, 25]",125.2153542,6800,1346,1,35,9,1.4224714817533626
basic,32,4,0,0,0,16,"[0, 28, 14, 11, 16]",5,10,"[3, 4, 5, 6, 13, 17, 20, 21, 22, 25]",110.2153542,7431,631,1,19,9,1.3768063003663824
basic,32,4,0,0,0,21,"[0, 28, 14, 11, 16, 21]",6,5,"[5, 17, 20, 22, 25]",66.011282,11404,3973,3,4,8,1.5831384377068862
basic,32,4,0,0,0,22,"[0, 28, 14, 11, 16, 21, 22]",7,3,"[5, 17, 20]",54.96592098,11950,546,3,0,8,1.5443971864691202
basic,32,4,0,0,1,20,"[0, 28, 14, 11, 16, 21, 22, 20]",8,0,[],24.73348807,12916,966,1,0,8,1.5064394269023558
basic,32,4,0,1,1,20,"[0, 28, 14, 11, 16, 21, 22, 20]",8,0,[],24.73348807,16520,3604,1,0,8,1.5064394269023558
basic,33,16,0,0,0,0,[0],1,29,"[1, 2, 3, 4, 5, 6, 7, 8, 9, 10, 11, 12, 13, 14, 15, 16, 17, 18, 19, 20, 21, 22, 23, 24, 25, 26, 27, 28, 29]",300,221,-1,13,161,9,0.0
basic,33,16,0,0,0,28,"[0, 28]",2,27,"[1, 2, 3, 4, 5, 7, 8, 9, 10, 11, 12, 13, 14, 15, 16, 17, 18, 19, 20, 21, 22, 23, 24, 25, 26, 27, 29]",284.3475242,14560,14339,11,92,9,1.0
basic,33,16,0,0,0,17,"[0, 28, 17]",3,26,"[1, 2, 3, 4, 5, 7, 8, 9, 10, 11, 12, 13, 14, 15, 16, 18, 19, 20, 21, 22, 23, 24, 25, 26, 27, 29]",219.1555001,18183,3623,10,46,9,1.3773866384707543
basic,33,16,0,0,0,16,"[0, 28, 17, 16]",4,25,"[1, 2, 3, 4, 5, 7, 8, 9, 10, 11, 12, 13, 14, 15, 18, 19, 20, 21, 22, 23, 24, 25, 26, 27, 29]",190.8358956,18903,720,10,34,9,1.3209953830681203
basic,33,16,0,0,0,8,"[0, 28, 17, 16, 8]",5,12,"[3, 4, 5, 9, 12, 13, 15, 19, 20, 21, 25, 29]",142.4623491,20601,1698,6,19,9,1.2700932705506198
basic,33,16,0,0,0,20,"[0, 28, 17, 16, 8, 20]",6,6,"[4, 5, 9, 12, 15, 25]",84.6869218,22714,2113,4,4,9,1.1899382910703262
basic,33,16,0,0,0,25,"[0, 28, 17, 16, 8, 20, 25]",7,3,"[5, 9, 15]",72.03781116,23417,703,2,2,9,1.2372268181049477
basic,33,16,0,0,0,9,"[0, 28, 17, 16, 8, 20, 25, 9]",8,2,"[5, 15]",59.23156268,24078,661,2,0,9,1.221922950237529
basic,33,16,0,0,1,15,"[0, 28, 17, 16, 8, 20, 25, 9, 15]",9,0,[],20.334262,25567,1489,1,0,9,1.318239760375411
basic,33,16,0,1,1,15,"[0, 28, 17, 16, 8, 20, 25, 9, 15]",9,0,[],20.334262,27220,1653,1,0,9,1.318239760375411
basic,34,28,0,0,0,0,[0],1,27,"[1, 2, 3, 4, 5, 6, 7, 8, 9, 10, 11, 12, 13, 14, 15, 16, 17, 18, 19, 20, 22, 23, 25, 26, 27, 28, 29]",300,206,-1,2,96,9,0.0
basic,34,28,0,0,0,3,"[0, 3]",2,26,"[1, 2, 4, 5, 6, 7, 8, 9, 10, 11, 12, 13, 14, 15, 16, 17, 18, 19, 20, 22, 23, 25, 26, 27, 28, 29]",251.0817008,4475,4269,1,64,9,1.0
basic,34,28,0,0,0,5,"[0, 3, 5]",3,20,"[2, 4, 6, 7, 8, 9, 10, 11, 12, 13, 14, 15, 18, 19, 20, 23, 25, 26, 28, 29]",166.9865166,8347,3872,1,34,9,1.0203769473612083
basic,34,28,0,0,0,26,"[0, 3, 5, 26]",4,13,"[2, 4, 7, 8, 9, 12, 13, 14, 18, 19, 20, 25, 28]",134.2298379,10235,1888,1,28,9,1.0315203228799597
basic,34,28,0,0,0,19,"[0, 3, 5, 26, 19]",5,7,"[2, 7, 9, 12, 13, 14, 18]",93.22983789,12579,2344,1,17,9,1.1324645362297356
basic,34,28,0,0,0,7,"[0, 3, 5, 26, 19, 7]",6,5,"[2, 12, 13, 14, 18]",65.49898864,22431,9852,1,6,9,1.1971194919020265
basic,34,28,0,0,0,12,"[0, 3, 5, 26, 19, 7, 12]",7,2,"[13, 18]",52.3460422,24053,1622,1,1,9,1.2020762147848982
basic,34,28,0,0,0,13,"[0, 3, 5, 26, 19, 7, 12, 13]",8,1,[18],35.14139167,25218,1165,1,0,9,1.39005144078531
basic,34,28,0,0,1,18,"[0, 3, 5, 26, 19, 7, 12, 13, 18]",9,0,[],10.72828044,26110,892,1,0,9,1.738787343626007
basic,34,28,0,1,1,18,"[0, 3, 5, 26, 19, 7, 12, 13, 18]",9,0,[],10.72828044,31160,5050,1,0,9,1.738787343626007
basic,35,23,0,0,0,0,[0],1,28,"[1, 2, 3, 4, 5, 6, 7, 8, 9, 10, 11, 12, 13, 14, 15, 16, 17, 18, 19, 20, 21, 22, 23, 25, 26, 27, 28, 29]",300,222,-1,76,2626,10,0.0
basic,35,23,0,0,0,22,"[0, 22]",2,24,"[1, 2, 3, 5, 6, 7, 8, 9, 10, 11, 12, 13, 14, 15, 17, 18, 19, 20, 21, 23, 25, 26, 27, 29]",210.5013967,4922,4700,15,1362,10,1.0
basic,35,23,0,0,0,13,"[0, 22, 13]",3,14,"[1, 2, 5, 6, 7, 8, 9, 10, 12, 14, 18, 21, 27, 29]",168.3113504,5985,1063,14,522,10,1.1898173563652046
basic,35,23,0,0,0,12,"[0, 22, 13, 12]",4,11,"[1, 2, 6, 7, 9, 10, 14, 18, 21, 27, 29]",156.2283045,6664,679,12,166,10,1.1727968780218219
basic,35,23,0,0,0,9,"[0, 22, 13, 12, 9]",5,10,"[1, 2, 6, 7, 10, 14, 18, 21, 27, 29]",141.9104834,7437,773,5,49,10,1.2100380646101494
basic,35,23,0,0,0,14,"[0, 22, 13, 12, 9, 14]",6,8,"[1, 2, 6, 7, 10, 18, 27, 29]",131.4701769,8230,793,2,19,10,1.1961799245073135
basic,35,23,0,0,0,2,"[0, 22, 13, 12, 9, 14, 2]",7,6,"[6, 7, 10, 18, 27, 29]",116.6041081,10338,2108,1,8,10,1.343965446549325
basic,35,23,0,0,0,6,"[0, 22, 13, 12, 9, 14, 2, 6]",8,3,"[18, 27, 29]",98.16501923,11395,1057,3,0,9,1.3433890277057379
basic,35,23,0,0,1,27,"[0, 22, 13, 12, 9, 14, 2, 6, 27]",9,0,[],69.86307584,12913,1518,1,0,9,1.607346000085698
basic,35,23,0,1,1,27,"[0, 22, 13, 12, 9, 14, 2, 6, 27]",9,0,[],69.86307584,15865,2952,1,0,9,1.607346000085698
basic,36,32,0,0,0,0,[0],1,29,"[1, 2, 3, 4, 5, 6, 7, 8, 9, 10, 11, 12, 13, 14, 15, 16, 17, 18, 19, 20, 21, 22, 23, 24, 25, 26, 27, 28, 29]",300,208,-1,17,359,10,0.0
basic,36,32,0,0,0,19,"[0, 19]",2,28,"[1, 2, 3, 4, 5, 6, 7, 8, 9, 10, 11, 12, 13, 14, 15, 16, 17, 18, 20, 21, 22, 23, 24, 25, 26, 27, 28, 29]",283.5075775,57572,57364,16,294,10,1.0
basic,36,32,0,0,0,13,"[0, 19, 13]",3,24,"[2, 3, 4, 5, 6, 8, 9, 10, 11, 12, 14, 15, 16, 17, 18, 20, 21, 22, 23, 24, 25, 26, 27, 28]",260.3127505,59943,2371,14,227,10,1.0172874229878615
basic,36,32,0,0,0,15,"[0, 19, 13, 15]",4,18,"[2, 3, 5, 8, 9, 10, 11, 12, 16, 17, 20, 22, 23, 24, 25, 26, 27, 28]",177.4393531,61609,1666,9,116,10,1.435447391509833
basic,36,32,0,0,0,28,"[0, 19, 13, 15, 28]",5,17,"[2, 3, 5, 8, 9, 10, 11, 12, 16, 17, 20, 22, 23, 24, 25, 26, 27]",166.0375988,62194,585,9,70,10,1.3843701324937985
basic,36,32,0,0,0,12,"[0, 19, 13, 15, 28, 12]",6,14,"[2, 3, 5, 8, 9, 10, 11, 16, 17, 20, 22, 24, 26, 27]",147.0639329,63029,835,6,35,10,1.358372254952329
basic,36,32,0,0,0,16,"[0, 19, 13, 15, 28, 12, 16]",7,13,"[2, 3, 5, 8, 9, 10, 11, 17, 20, 22, 24, 26, 27]",131.411457,63985,956,5,15,10,1.4356932930709845
basic,36,32,0,0,0,22,"[0, 19, 13, 15, 28, 12, 16, 22]",8,6,"[2, 8, 9, 17, 20, 27]",97.57360838,65963,1978,3,5,10,1.4335226411545752
basic,36,32,0,0,0,9,"[0, 19, 13, 15, 28, 12, 16, 22, 9]",9,3,"[2, 8, 20]",75.37000507,66733,770,3,0,10,1.4837166378374758
basic,36,32,0,0,1,8,"[0, 19, 13, 15, 28, 12, 16, 22, 9, 8]",10,0,[],30.24794838,67881,1148,1,0,10,1.3767698817641267
basic,36,32,0,1,1,8,"[0, 19, 13, 15, 28, 12, 16, 22, 9, 8]",10,0,[],30.24794838,71715,3834,1,0,10,1.3767698817641267
basic,37,40,0,0,0,0,[0],1,29,"[1, 2, 3, 4, 5, 6, 7, 8, 9, 10, 11, 12, 13, 14, 15, 16, 17, 18, 19, 20, 21, 22, 23, 24, 25, 26, 27, 28, 29]",300,200,-1,8,191,9,0.0
basic,37,40,0,0,0,2,"[0, 2]",2,28,"[1, 3, 4, 5, 6, 7, 8, 9, 10, 11, 12, 13, 14, 15, 16, 17, 18, 19, 20, 21, 22, 23, 24, 25, 26, 27, 28, 29]",263.7646581,11947,11747,4,79,9,1.0
basic,37,40,0,0,0,1,"[0, 2, 1]",3,13,"[5, 6, 8, 9, 10, 13, 17, 18, 19, 21, 22, 23, 27]",197.9695215,12779,832,3,32,9,1.9563451201211088
basic,37,40,0,0,0,6,"[0, 2, 1, 6]",4,10,"[5, 8, 9, 13, 17, 18, 19, 21, 22, 23]",177.8697703,14048,1269,3,29,9,1.767962123020631
basic,37,40,0,0,0,21,"[0, 2, 1, 6, 21]",5,5,"[5, 9, 18, 19, 23]",125.8986245,14979,931,2,8,9,1.4447873803466464
basic,37,40,0,0,0,9,"[0, 2, 1, 6, 21, 9]",6,4,"[5, 18, 19, 23]",80.19304493,15927,948,2,4,9,1.782283650173066
basic,37,40,0,0,0,18,"[0, 2, 1, 6, 21, 9, 18]",7,3,"[5, 19, 23]",63.64009957,17846,1919,2,1,9,1.995326683187404
basic,37,40,0,0,0,5,"[0, 2, 1, 6, 21, 9, 18, 5]",8,1,[23],32.06479276,18897,1051,1,0,9,2.1786230434695777
basic,37,40,0,0,1,23,"[0, 2, 1, 6, 21, 9, 18, 5, 23]",9,0,[],3.762849365,20113,1216,1,0,9,3.123307890772679
basic,37,40,0,1,1,23,"[0, 2, 1, 6, 21, 9, 18, 5, 23]",9,0,[],3.762849365,20884,771,1,0,9,3.123307890772679
basic,38,2,0,0,0,0,[0],1,23,"[1, 2, 4, 5, 6, 7, 8, 9, 12, 13, 15, 16, 17, 18, 19, 20, 22, 23, 25, 26, 27, 28, 29]",300,199,-1,70,620,10,0.0
basic,38,2,0,0,0,19,"[0, 19]",2,22,"[1, 2, 4, 5, 6, 7, 8, 9, 12, 13, 15, 16, 17, 18, 20, 22, 23, 25, 26, 27, 28, 29]",210.306076,4018,3819,67,431,10,1.0
basic,38,2,0,0,0,12,"[0, 19, 12]",3,17,"[1, 4, 5, 6, 7, 13, 15, 16, 17, 18, 20, 22, 25, 26, 27, 28, 29]",174.2921898,4693,675,66,298,10,1.1107635036313153
basic,38,2,0,0,0,5,"[0, 19, 12, 5]",4,11,"[1, 6, 7, 13, 15, 16, 18, 22, 25, 26, 29]",144.7625437,5435,742,38,136,10,1.0968174771581647
basic,38,2,0,0,0,22,"[0, 19, 12, 5, 22]",5,8,"[1, 6, 7, 13, 15, 18, 26, 29]",131.9562952,7573,2138,20,63,10,1.0889910507461968
basic,38,2,0,0,0,13,"[0, 19, 12, 5, 22, 13]",6,7,"[1, 6, 7, 15, 18, 26, 29]",117.0902265,8914,1341,19,20,10,1.236526217328057
basic,38,2,0,0,0,18,"[0, 19, 12, 5, 22, 13, 18]",7,4,"[7, 15, 26, 29]",81.91921567,10084,1170,10,3,10,1.2128708213409936
basic,38,2,0,0,0,7,"[0, 19, 12, 5, 22, 13, 18, 7]",8,3,"[15, 26, 29]",71.62358553,10774,690,5,0,10,1.2019811287894737
basic,38,2,0,0,0,26,"[0, 19, 12, 5, 22, 13, 18, 7, 26]",9,2,"[15, 29]",48.82007703,12180,1406,2,0,10,1.1883593342191134
basic,38,2,0,0,1,15,"[0, 19, 12, 5, 22, 13, 18, 7, 26, 15]",10,0,[],24.61264015,13062,882,1,0,10,1.4619750353663825
basic,38,2,0,1,1,15,"[0, 19, 12, 5, 22, 13, 18, 7, 26, 15]",10,0,[],24.61264015,17855,4793,1,0,10,1.4619750353663825
basic,39,22,0,0,0,0,[0],1,29,"[1, 2, 3, 4, 5, 6, 7, 8, 9, 10, 11, 12, 13, 14, 15, 16, 17, 18, 19, 20, 21, 22, 23, 24, 25, 26, 27, 28, 29]",300,201,-1,31,704,9,0.0
basic,39,22,0,0,0,16,"[0, 16]",2,21,"[1, 3, 6, 7, 8, 9, 11, 13, 14, 15, 17, 18, 19, 20, 21, 22, 24, 25, 27, 28, 29]",218.605897,6863,6662,17,147,9,1.0
basic,39,22,0,0,0,28,"[0, 16, 28]",3,13,"[6, 7, 9, 13, 14, 17, 19, 20, 21, 22, 24, 25, 29]",184.1675463,7862,999,12,61,9,1.047282311284478
basic,39,22,0,0,0,6,"[0, 16, 28, 6]",4,12,"[7, 9, 13, 14, 17, 19, 20, 21, 22, 24, 25, 29]",154.1675463,9459,1597,12,43,9,1.645645870580622
basic,39,22,0,0,0,9,"[0, 16, 28, 6, 9]",5,8,"[7, 14, 17, 19, 20, 21, 24, 29]",127.5404924,10426,967,8,17,9,1.925750226630103
basic,39,22,0,0,0,19,"[0, 16, 28, 6, 9, 19]",6,6,"[7, 14, 17, 21, 24, 29]",107.1444143,11272,846,3,7,9,2.4220750331476455
basic,39,22,0,0,0,29,"[0, 16, 28, 6, 9, 19, 29]",7,4,"[7, 14, 17, 24]",92.11111796,12374,1102,2,2,9,2.6996279574991067
basic,39,22,0,0,0,7,"[0, 16, 28, 6, 9, 19, 29, 7]",8,1,[14],41.0327468,13474,1100,1,0,9,2.059125386946491
basic,39,22,0,0,1,14,"[0, 16, 28, 6, 9, 19, 29, 7, 14]",9,0,[],27.99434199,14202,728,1,0,9,2.0997569104205307
basic,39,22,0,1,1,14,"[0, 16, 28, 6, 9, 19, 29, 7, 14]",9,0,[],27.99434199,15807,1605,1,0,9,2.0997569104205307
basic,40,15,0,0,0,0,[0],1,25,"[1, 2, 3, 4, 7, 8, 9, 10, 11, 12, 13, 14, 15, 16, 18, 20, 21, 22, 23, 24, 25, 26, 27, 28, 29]",300,219,-1,4,65,9,0.0
basic,40,15,0,0,0,21,"[0, 21]",2,17,"[1, 3, 4, 7, 8, 9, 11, 12, 13, 14, 15, 16, 22, 23, 24, 26, 27]",204.9158268,84213,83994,21,65,7,1.0
basic,40,15,0,0,0,12,"[0, 21, 12]",3,14,"[1, 3, 4, 7, 8, 9, 11, 13, 14, 15, 16, 22, 24, 27]",161.0866128,85766,1553,20,39,7,1.6068212046294776
basic,40,15,0,0,0,7,"[0, 21, 12, 7]",4,10,"[3, 4, 9, 11, 13, 14, 15, 16, 22, 27]",127.8450725,86560,794,13,11,7,2.0298522511797907
basic,40,15,0,0,0,11,"[0, 21, 12, 7, 11]",5,6,"[3, 4, 14, 15, 16, 22]",86.36013546,87344,784,6,4,7,1.7205538639328775
basic,40,15,0,0,0,3,"[0, 21, 12, 7, 11, 3]",6,4,"[14, 15, 16, 22]",74.95838121,89174,1830,4,0,7,1.6999894293819835
basic,40,15,0,0,1,22,"[0, 21, 12, 7, 11, 3, 22]",7,0,[],25.22911417,93474,4300,1,0,7,1.592640555022971
basic,40,15,0,1,1,22,"[0, 21, 12, 7, 11, 3, 22]",7,0,[],25.22911417,95187,1713,1,0,7,1.592640555022971
basic,41,1,0,0,0,0,[0],1,26,"[1, 2, 4, 5, 7, 8, 9, 10, 11, 12, 13, 14, 15, 16, 17, 18, 19, 20, 21, 22, 23, 24, 25, 26, 28, 29]",300,211,-1,6,74,7,0.0
basic,41,1,0,0,0,14,"[0, 14]",2,19,"[1, 4, 5, 8, 9, 13, 15, 17, 18, 19, 20, 21, 22, 23, 24, 25, 26, 28, 29]",200.1901808,9611,9400,5,42,7,1.0
basic,41,1,0,0,0,17,"[0, 14, 17]",3,15,"[1, 4, 5, 8, 9, 13, 15, 18, 19, 20, 22, 23, 25, 28, 29]",147.8356204,11771,2160,5,27,7,1.0028844724416826
basic,41,1,0,0,0,1,"[0, 14, 17, 1]",4,12,"[4, 5, 8, 9, 15, 18, 20, 22, 23, 25, 28, 29]",123.4840291,13380,1609,5,15,7,1.0264985578353567
basic,41,1,0,0,0,28,"[0, 14, 17, 1, 28]",5,5,"[9, 15, 22, 23, 29]",88.59850198,15027,1647,5,3,7,1.0339861575999345
basic,41,1,0,0,0,23,"[0, 14, 17, 1, 28, 23]",6,2,"[15, 22]",51.70676849,15623,596,2,0,7,1.0327458250705703
basic,41,1,0,0,1,15,"[0, 14, 17, 1, 28, 23, 15]",7,0,[],20.81987807,17428,1805,1,0,7,1.1948681641401226
basic,41,1,0,1,1,15,"[0, 14, 17, 1, 28, 23, 15]",7,0,[],20.81987807,20043,2615,1,0,7,1.1948681641401226
basic,42,14,0,0,0,0,[0],1,29,"[1, 2, 3, 4, 5, 6, 7, 8, 9, 10, 11, 12, 13, 14, 15, 16, 17, 18, 19, 20, 21, 22, 23, 24, 25, 26, 27, 28, 29]",300,219,-1,8,157,10,0.0
basic,42,14,0,0,0,15,"[0, 15]",2,20,"[1, 2, 3, 4, 7, 8, 9, 13, 17, 18, 19, 20, 21, 22, 23, 25, 26, 27, 28, 29]",216.7053423,2424,2205,8,102,10,1.0
basic,42,14,0,0,0,28,"[0, 15, 28]",3,17,"[1, 2, 3, 4, 7, 8, 9, 13, 17, 18, 19, 20, 22, 23, 25, 26, 27]",197.4959696,3607,1183,8,48,10,1.0446007867311968
basic,42,14,0,0,0,17,"[0, 15, 28, 17]",4,14,"[1, 2, 3, 4, 7, 8, 13, 18, 19, 20, 22, 23, 25, 26]",184.0423455,5654,2047,8,39,10,1.0729463354689972
basic,42,14,0,0,0,18,"[0, 15, 28, 17, 18]",5,9,"[1, 2, 4, 7, 8, 19, 23, 25, 26]",119.412631,7175,1521,8,27,10,1.5035901079219378
basic,42,14,0,0,0,8,"[0, 15, 28, 17, 18, 8]",6,8,"[1, 2, 4, 7, 19, 23, 25, 26]",105.8111605,8700,1525,8,18,10,1.4819689987843856
basic,42,14,0,0,0,19,"[0, 15, 28, 17, 18, 8, 19]",7,5,"[1, 7, 23, 25, 26]",85.19563238,9674,974,4,9,10,1.4526746797093781
basic,42,14,0,0,0,1,"[0, 15, 28, 17, 18, 8, 19, 1]",8,4,"[7, 23, 25, 26]",69.96408617,10617,943,3,1,10,1.4876985459270997
basic,42,14,0,0,0,23,"[0, 15, 28, 17, 18, 8, 19, 1, 23]",9,1,[26],21.96408617,12401,1784,1,0,10,1.4791446279021185
basic,42,14,0,0,1,26,"[0, 15, 28, 17, 18, 8, 19, 1, 23, 26]",10,0,[],11.14743235,13291,890,1,0,10,1.4559204757247275
basic,42,14,0,1,1,26,"[0, 15, 28, 17, 18, 8, 19, 1, 23, 26]",10,0,[],11.14743235,41401,28110,1,0,10,1.4559204757247275
basic,43,19,0,0,0,0,[0],1,29,"[1, 2, 3, 4, 5, 6, 7, 8, 9, 10, 11, 12, 13, 14, 15, 16, 17, 18, 19, 20, 21, 22, 23, 24, 25, 26, 27, 28, 29]",300,236,-1,12,149,8,0.0
basic,43,19,0,0,0,9,"[0, 9]",2,21,"[1, 4, 5, 6, 7, 10, 11, 12, 13, 14, 15, 19, 20, 21, 22, 23, 24, 25, 27, 28, 29]",185.9956141,80545,80309,13,76,7,1.0
basic,43,19,0,0,0,6,"[0, 9, 6]",3,13,"[4, 7, 10, 11, 13, 14, 20, 21, 22, 24, 27, 28, 29]",144.5589154,81248,703,13,38,7,1.0111071984935167
basic,43,19,0,0,0,4,"[0, 9, 6, 4]",4,7,"[10, 11, 14, 20, 22, 27, 28]",103.5101639,82135,887,2,8,7,1.1922496747189233
basic,43,19,0,0,0,28,"[0, 9, 6, 4, 28]",5,4,"[11, 14, 22, 27]",92.32982402,82681,546,2,2,7,1.2672242257358344
basic,43,19,0,0,0,14,"[0, 9, 6, 4, 28, 14]",6,1,[11],34.74510382,83599,918,1,0,7,1.2684219220754205
basic,43,19,0,0,1,11,"[0, 9, 6, 4, 28, 14, 11]",7,0,[],23.92845,84678,1079,1,0,7,1.2591313611236885
basic,43,19,0,1,1,11,"[0, 9, 6, 4, 28, 14, 11]",7,0,[],23.92845,85539,861,1,0,7,1.2591313611236885
basic,44,29,0,0,0,0,[0],1,29,"[1, 2, 3, 4, 5, 6, 7, 8, 9, 10, 11, 12, 13, 14, 15, 16, 17, 18, 19, 20, 21, 22, 23, 24, 25, 26, 27, 28, 29]",300,217,-1,1,78,9,0.0
basic,44,29,0,0,0,6,"[0, 6]",2,28,"[1, 2, 3, 4, 5, 7, 8, 9, 10, 11, 12, 13, 14, 15, 16, 17, 18, 19, 20, 21, 22, 23, 24, 25, 26, 27, 28, 29]",228.4108947,54517,54300,1,25,9,1.0
basic,44,29,0,0,0,28,"[0, 6, 28]",3,24,"[1, 3, 4, 5, 7, 9, 10, 11, 12, 13, 14, 15, 16, 17, 18, 20, 21, 22, 23, 24, 25, 26, 27, 29]",187.1798384,55367,850,1,22,9,1.162106788166845
basic,44,29,0,0,0,27,"[0, 6, 28, 27]",4,19,"[1, 3, 4, 5, 7, 9, 10, 11, 12, 13, 14, 15, 16, 21, 22, 23, 25, 26, 29]",166.6615539,57959,2592,1,21,9,1.2307173895439045
basic,44,29,0,0,0,22,"[0, 6, 28, 27, 22]",5,13,"[1, 3, 4, 5, 7, 9, 12, 13, 14, 15, 21, 26, 29]",133.4200136,61011,3052,1,19,9,1.4241767805149903
basic,44,29,0,0,0,12,"[0, 6, 28, 27, 22, 12]",6,8,"[4, 5, 7, 9, 13, 14, 21, 26]",95.4726817,61903,892,1,6,9,1.3248355326460857
basic,44,29,0,0,0,7,"[0, 6, 28, 27, 22, 12, 7]",7,4,"[4, 5, 9, 21]",81.87121119,63000,1097,1,3,9,1.3264091962339806
basic,44,29,0,0,0,9,"[0, 6, 28, 27, 22, 12, 7, 9]",8,1,[4],52.80232748,64134,1134,1,0,9,1.309391257644539
basic,44,29,0,0,1,4,"[0, 6, 28, 27, 22, 12, 7, 9, 4]",9,0,[],11.76575843,65262,1128,1,0,9,1.6396807789841599
basic,44,29,0,1,1,4,"[0, 6, 28, 27, 22, 12, 7, 9, 4]",9,0,[],11.76575843,66269,1007,1,0,9,1.6396807789841599
basic,45,35,0,0,0,0,[0],1,29,"[1, 2, 3, 4, 5, 6, 7, 8, 9, 10, 11, 12, 13, 14, 15, 16, 17, 18, 19, 20, 21, 22, 23, 24, 25, 26, 27, 28, 29]",300,218,-1,5,236,11,0.0
basic,45,35,0,0,0,24,"[0, 24]",2,27,"[1, 2, 4, 5, 6, 7, 8, 9, 10, 11, 12, 13, 14, 15, 16, 17, 18, 19, 20, 21, 22, 23, 25, 26, 27, 28, 29]",268.9838752,2323,2105,49,512,10,1.0
basic,45,35,0,0,0,17,"[0, 24, 17]",3,26,"[1, 2, 4, 5, 6, 7, 8, 9, 10, 11, 12, 13, 14, 15, 16, 18, 19, 20, 21, 22, 23, 25, 26, 27, 28, 29]",257.2791753,3072,749,33,238,10,1.0771477201815276
basic,45,35,0,0,0,1,"[0, 24, 17, 1]",4,25,"[2, 4, 5, 6, 7, 8, 9, 10, 11, 12, 13, 14, 15, 16, 18, 19, 20, 21, 22, 23, 25, 26, 27, 28, 29]",241.4677869,5313,2241,26,151,10,1.2244804141479215
basic,45,35,0,0,0,15,"[0, 24, 17, 1, 15]",5,23,"[2, 4, 5, 6, 7, 8, 9, 10, 11, 12, 14, 16, 18, 19, 20, 21, 22, 23, 25, 26, 27, 28, 29]",218.6204676,5961,648,26,78,10,1.4642196672428094
basic,45,35,0,0,0,23,"[0, 24, 17, 1, 15, 23]",6,11,"[4, 5, 6, 9, 18, 19, 25, 26, 27, 28, 29]",158.1804147,7715,1754,15,12,10,1.3338903684702363
basic,45,35,0,0,0,9,"[0, 24, 17, 1, 15, 23, 9]",7,6,"[5, 6, 18, 19, 25, 27]",120.5373542,8731,1016,6,1,10,1.5964380615155294
basic,45,35,0,0,0,18,"[0, 24, 17, 1, 15, 23, 9, 18]",8,3,"[5, 6, 25]",100.5123698,9377,646,2,1,10,1.5508488101942703
basic,45,35,0,0,0,6,"[0, 24, 17, 1, 15, 23, 9, 18, 6]",9,1,[25],66.89689722,10136,759,1,0,10,1.541466044761729
basic,45,35,0,0,1,25,"[0, 24, 17, 1, 15, 23, 9, 18, 6, 25]",10,0,[],42.87607292,11084,948,1,0,10,1.5877595882523792
basic,45,35,0,1,1,25,"[0, 24, 17, 1, 15, 23, 9, 18, 6, 25]",10,0,[],42.87607292,18398,7314,1,0,10,1.5877595882523792
basic,46,21,0,0,0,0,[0],1,29,"[1, 2, 3, 4, 5, 6, 7, 8, 9, 10, 11, 12, 13, 14, 15, 16, 17, 18, 19, 20, 21, 22, 23, 24, 25, 26, 27, 28, 29]",300,265,-1,84,830,9,0.0
basic,46,21,0,0,0,20,"[0, 20]",2,28,"[1, 2, 3, 4, 5, 6, 7, 8, 9, 10, 11, 12, 13, 14, 15, 16, 17, 18, 19, 21, 22, 23, 24, 25, 26, 27, 28, 29]",217.6228187,29238,28973,6,67,9,1.0
basic,46,21,0,0,0,22,"[0, 20, 22]",3,23,"[2, 4, 6, 7, 8, 9, 10, 11, 12, 13, 14, 15, 16, 17, 18, 19, 21, 23, 24, 25, 26, 27, 29]",189.3916303,30222,984,6,47,9,1.3451865712078994
basic,46,21,0,0,0,18,"[0, 20, 22, 18]",4,20,"[2, 4, 6, 7, 8, 9, 10, 11, 12, 14, 15, 16, 17, 21, 23, 24, 25, 26, 27, 29]",162.9908727,31003,781,4,25,9,2.3191924394507706
basic,46,21,0,0,0,29,"[0, 20, 22, 18, 29]",5,16,"[2, 4, 6, 7, 8, 10, 12, 14, 15, 16, 17, 21, 23, 24, 25, 27]",134.3377751,32042,1039,2,10,9,1.9554738681863184
basic,46,21,0,0,0,25,"[0, 20, 22, 18, 29, 25]",6,5,"[4, 14, 17, 21, 23]",89.11609892,32902,860,2,5,9,3.5255206171255487
basic,46,21,0,0,0,23,"[0, 20, 22, 18, 29, 25, 23]",7,3,"[4, 14, 21]",45.79174087,33707,805,1,2,9,2.5672363743380044
basic,46,21,0,0,1,4,"[0, 20, 22, 18, 29, 25, 23, 4]",8,0,[],9.666957138,34785,1078,1,0,8,2.2698900237448894
basic,46,21,0,1,1,4,"[0, 20, 22, 18, 29, 25, 23, 4]",8,0,[],9.666957138,36853,2068,1,0,8,2.2698900237448894
basic,47,5,0,0,0,0,[0],1,29,"[1, 2, 3, 4, 5, 6, 7, 8, 9, 10, 11, 12, 13, 14, 15, 16, 17, 18, 19, 20, 21, 22, 23, 24, 25, 26, 27, 28, 29]",300,225,-1,5,139,9,0.0
basic,47,5,0,0,0,12,"[0, 12]",2,22,"[2, 4, 5, 6, 8, 9, 10, 13, 14, 15, 16, 17, 18, 19, 21, 22, 23, 24, 25, 26, 27, 28]",228.3062067,4316,4091,1,27,9,1.0
basic,47,5,0,0,0,25,"[0, 12, 25]",3,21,"[2, 4, 5, 6, 8, 9, 10, 13, 14, 15, 16, 17, 18, 19, 21, 22, 23, 24, 26, 27, 28]",200.5213187,5627,1311,1,20,9,1.584023303445617
basic,47,5,0,0,0,23,"[0, 12, 25, 23]",4,19,"[2, 4, 5, 6, 8, 9, 10, 13, 14, 15, 16, 17, 18, 19, 21, 22, 24, 26, 27]",182.0822298,7061,1434,1,14,9,2.3508446989254357
basic,47,5,0,0,0,24,"[0, 12, 25, 23, 24]",5,15,"[2, 4, 5, 6, 8, 9, 13, 14, 15, 17, 18, 19, 22, 26, 27]",158.995437,7711,650,1,12,9,1.9469752046288753
basic,47,5,0,0,0,17,"[0, 12, 25, 23, 24, 17]",6,7,"[4, 5, 6, 8, 15, 18, 19]",124.0097257,9213,1502,1,8,9,1.6482276497563642
basic,47,5,0,0,0,5,"[0, 12, 25, 23, 24, 17, 5]",7,4,"[4, 6, 15, 18]",80.96323916,10870,1657,1,3,9,1.4654649104389412
basic,47,5,0,0,0,4,"[0, 12, 25, 23, 24, 17, 5, 4]",8,1,[6],15.16050365,12189,1319,1,0,9,1.6255060355828674
basic,47,5,0,0,1,6,"[0, 12, 25, 23, 24, 17, 5, 4, 6]",9,0,[],3.118909076,12963,774,1,0,9,1.7777310833772453
basic,47,5,0,1,1,6,"[0, 12, 25, 23, 24, 17, 5, 4, 6]",9,0,[],3.118909076,14540,1577,1,0,9,1.7777310833772453
basic,48,26,0,0,0,0,[0],1,29,"[1, 2, 3, 4, 5, 6, 7, 8, 9, 10, 11, 12, 13, 14, 15, 16, 17, 18, 19, 20, 21, 22, 23, 24, 25, 26, 27, 28, 29]",300,218,-1,9,226,9,0.0
basic,48,26,0,0,0,10,"[0, 10]",2,6,"[4, 6, 14, 16, 17, 29]",138.1822012,3272,3054,9,66,7,1.0
basic,48,26,0,0,0,6,"[0, 10, 6]",3,5,"[4, 14, 16, 17, 29]",108.9076389,4025,753,8,23,7,1.1897813099332413
basic,48,26,0,0,0,14,"[0, 10, 6, 14]",4,4,"[4, 16, 17, 29]",87.88384285,4611,586,4,6,7,1.3162481558218453
basic,48,26,0,0,0,17,"[0, 10, 6, 14, 17]",5,3,"[4, 16, 29]",65.41163779,6205,1594,3,1,7,1.6510075497064465
basic,48,26,0,0,0,4,"[0, 10, 6, 14, 17, 4]",6,1,[29],44.31661468,6812,607,1,0,7,2.1095586782058087
basic,48,26,0,0,1,29,"[0, 10, 6, 14, 17, 4, 29]",7,0,[],20.31661468,7820,1008,1,0,7,2.288952413143475
basic,48,26,0,1,1,29,"[0, 10, 6, 14, 17, 4, 29]",7,0,[],20.31661468,9328,1508,1,0,7,2.288952413143475
basic,49,11,0,0,0,0,[0],1,25,"[1, 2, 3, 4, 5, 6, 8, 9, 10, 11, 12, 13, 14, 15, 16, 17, 18, 19, 20, 22, 23, 25, 26, 27, 28]",300,208,-1,6,374,12,0.0
basic,49,11,0,0,0,1,"[0, 1]",2,24,"[2, 3, 4, 5, 6, 8, 9, 10, 11, 12, 13, 14, 15, 16, 17, 18, 19, 20, 22, 23, 25, 26, 27, 28]",264.6446609,4823,4615,6,217,12,1.0
basic,49,11,0,0,0,27,"[0, 1, 27]",3,19,"[2, 4, 5, 6, 8, 9, 11, 12, 14, 15, 16, 17, 18, 19, 20, 22, 23, 25, 28]",202.7980766,6481,1658,56,618,11,1.1853011734453505
basic,49,11,0,0,0,8,"[0, 1, 27, 8]",4,14,"[2, 4, 5, 6, 11, 12, 15, 17, 18, 19, 22, 23, 25, 28]",132.5841178,7482,1001,30,228,11,1.1529483524346413
basic,49,11,0,0,0,17,"[0, 1, 27, 8, 17]",5,12,"[2, 5, 6, 11, 12, 15, 18, 19, 22, 23, 25, 28]",118.2662968,8056,574,21,89,11,1.2356262875275323
basic,49,11,0,0,0,15,"[0, 1, 27, 8, 17, 15]",6,9,"[2, 5, 6, 11, 12, 19, 22, 25, 28]",105.6171861,8638,582,21,51,11,1.2391380861342836
basic,49,11,0,0,0,11,"[0, 1, 27, 8, 17, 15, 11]",7,6,"[2, 5, 12, 19, 22, 28]",87.50641585,9409,771,20,4,11,1.2256888372105434
basic,49,11,0,0,0,28,"[0, 1, 27, 8, 17, 15, 11, 28]",8,3,"[2, 5, 22]",68.08992801,10301,892,6,0,11,1.3420461081067039
basic,49,11,0,0,0,5,"[0, 1, 27, 8, 17, 15, 11, 28, 5]",9,2,"[2, 22]",50.20138419,11348,1047,2,0,11,1.5353990252153875
basic,49,11,0,0,0,2,"[0, 1, 27, 8, 17, 15, 11, 28, 5, 2]",10,1,[22],33.20138419,12124,776,1,0,11,1.4947698111044436
basic,49,11,0,0,1,22,"[0, 1, 27, 8, 17, 15, 11, 28, 5, 2, 22]",11,0,[],23.15150857,12758,634,1,0,11,1.4684288284697227
basic,49,11,0,1,1,22,"[0, 1, 27, 8, 17, 15, 11, 28, 5, 2, 22]",11,0,[],23.15150857,55480,42722,1,0,11,1.4684288284697227
basic,50,13,0,0,0,0,[0],1,29,"[1, 2, 3, 4, 5, 6, 7, 8, 9, 10, 11, 12, 13, 14, 15, 16, 17, 18, 19, 20, 21, 22, 23, 24, 25, 26, 27, 28, 29]",300,220,-1,60,2676,11,0.0
basic,50,13,0,0,0,24,"[0, 24]",2,28,"[1, 2, 3, 4, 5, 6, 7, 8, 9, 10, 11, 12, 13, 14, 15, 16, 17, 18, 19, 20, 21, 22, 23, 25, 26, 27, 28, 29]",288.8196601,18986,18766,16,1444,11,1.0
basic,50,13,0,0,0,28,"[0, 24, 28]",3,23,"[1, 2, 3, 4, 6, 7, 8, 9, 10, 11, 12, 13, 15, 16, 17, 19, 20, 21, 22, 23, 26, 27, 29]",222.5324064,19836,850,8,243,11,1.0513810491680837
basic,50,13,0,0,0,2,"[0, 24, 28, 2]",4,19,"[1, 3, 4, 6, 7, 9, 11, 12, 13, 15, 16, 17, 19, 20, 21, 23, 26, 27, 29]",184.889346,21702,1866,7,110,11,1.050374132001543
basic,50,13,0,0,0,29,"[0, 24, 28, 2, 29]",5,18,"[1, 3, 4, 6, 7, 9, 11, 12, 13, 15, 16, 17, 19, 20, 21, 23, 26, 27]",173.1846461,22416,714,7,85,11,1.1393409619120594
basic,50,13,0,0,0,7,"[0, 24, 28, 2, 29, 7]",6,17,"[1, 3, 4, 6, 9, 11, 12, 13, 15, 16, 17, 19, 20, 21, 23, 26, 27]",157.9203086,23551,1135,5,45,11,1.349777315111579
basic,50,13,0,0,0,26,"[0, 24, 28, 2, 29, 7, 26]",7,16,"[1, 3, 4, 6, 9, 11, 12, 13, 15, 16, 17, 19, 20, 21, 23, 27]",147.480002,24197,646,5,25,11,1.5942082773824946
basic,50,13,0,0,0,6,"[0, 24, 28, 2, 29, 7, 26, 6]",8,12,"[1, 3, 4, 11, 13, 15, 16, 17, 19, 20, 23, 27]",127.3802508,24924,727,4,12,11,1.5898347940840756
basic,50,13,0,0,0,11,"[0, 24, 28, 2, 29, 7, 26, 6, 11]",9,6,"[1, 13, 15, 16, 17, 23]",108.2752776,26027,1103,3,4,11,1.5029953945561012
basic,50,13,0,0,0,17,"[0, 24, 28, 2, 29, 7, 26, 6, 11, 17]",10,1,[13],36.68617231,27570,1543,1,0,11,1.324993060397683
basic,50,13,0,0,1,13,"[0, 24, 28, 2, 29, 7, 26, 6, 11, 17, 13]",11,0,[],3.309533775,28780,1210,1,0,11,1.6349870606446535
basic,50,13,0,1,1,13,"[0, 24, 28, 2, 29, 7, 26, 6, 11, 17, 13]",11,0,[],3.309533775,29993,1213,1,0,11,1.6349870606446535
basic,51,18,0,0,0,0,[0],1,28,"[1, 2, 3, 4, 5, 6, 7, 8, 9, 10, 11, 12, 13, 14, 16, 17, 18, 19, 20, 21, 22, 23, 24, 25, 26, 27, 28, 29]",300,249,-1,3,136,10,0.0
basic,51,18,0,0,0,28,"[0, 28]",2,16,"[1, 3, 5, 7, 8, 9, 12, 13, 14, 16, 20, 23, 24, 25, 26, 27]",236.4311397,8731,8482,2,19,10,1.0
basic,51,18,0,0,0,7,"[0, 28, 7]",3,15,"[1, 3, 5, 8, 9, 12, 13, 14, 16, 20, 23, 24, 25, 26, 27]",214.4084242,9267,536,2,17,10,1.4345180696367563
basic,51,18,0,0,0,25,"[0, 28, 7, 25]",4,13,"[1, 3, 5, 8, 9, 12, 13, 14, 16, 20, 23, 26, 27]",186.6055466,9911,644,2,15,10,1.8896451241781882
basic,51,18,0,0,0,8,"[0, 28, 7, 25, 8]",5,10,"[3, 5, 9, 12, 13, 14, 16, 23, 26, 27]",149.551532,10669,758,2,10,10,1.590467437592877
basic,51,18,0,0,0,13,"[0, 28, 7, 25, 8, 13]",6,9,"[3, 5, 9, 12, 14, 16, 23, 26, 27]",128.4565089,11309,640,2,5,10,1.8248274983549797
basic,51,18,0,0,0,14,"[0, 28, 7, 25, 8, 13, 14]",7,7,"[3, 5, 9, 12, 23, 26, 27]",109.4828429,11825,516,2,3,10,1.6993534956692746
basic,51,18,0,0,0,3,"[0, 28, 7, 25, 8, 13, 14, 3]",8,3,"[5, 12, 27]",79.39962499,12524,699,2,1,10,1.802637206541468
basic,51,18,0,0,0,5,"[0, 28, 7, 25, 8, 13, 14, 3, 5]",9,1,[12],21.21887216,13739,1215,1,0,10,1.559774889743805
basic,51,18,0,0,1,12,"[0, 28, 7, 25, 8, 13, 14, 3, 5, 12]",10,0,[],9.817117911,15057,1318,1,0,10,1.563993037384447
basic,51,18,0,1,1,12,"[0, 28, 7, 25, 8, 13, 14, 3, 5, 12]",10,0,[],9.817117911,16466,1409,1,0,10,1.563993037384447
basic,52,25,0,0,0,0,[0],1,28,"[1, 2, 3, 4, 5, 7, 8, 9, 10, 11, 12, 13, 14, 15, 16, 17, 18, 19, 20, 21, 22, 23, 24, 25, 26, 27, 28, 29]",300,207,-1,5,94,10,0.0
basic,52,25,0,0,0,23,"[0, 23]",2,23,"[1, 2, 3, 5, 7, 8, 9, 11, 12, 13, 14, 16, 17, 19, 20, 21, 22, 24, 25, 26, 27, 28, 29]",259.7756293,6247,6040,3,33,10,1.0
basic,52,25,0,0,0,19,"[0, 23, 19]",3,21,"[1, 2, 3, 5, 7, 8, 9, 11, 12, 13, 14, 16, 17, 20, 21, 22, 24, 25, 27, 28, 29]",223.9287326,6945,698,3,24,10,1.583101227007039
basic,52,25,0,0,0,29,"[0, 23, 19, 29]",4,19,"[1, 2, 3, 5, 7, 8, 9, 11, 12, 13, 14, 16, 17, 20, 21, 22, 24, 25, 28]",207.649912,7660,715,3,17,10,1.474631541426484
basic,52,25,0,0,0,22,"[0, 23, 19, 29, 22]",5,18,"[1, 2, 3, 5, 7, 8, 9, 11, 12, 13, 14, 16, 17, 20, 21, 24, 25, 28]",191.5253965,8091,431,3,14,10,1.4020377754906637
basic,52,25,0,0,0,7,"[0, 23, 19, 29, 22, 7]",6,7,"[3, 8, 9, 11, 13, 24, 28]",115.8814939,9036,945,3,11,10,1.5709678649326715
basic,52,25,0,0,0,24,"[0, 23, 19, 29, 22, 7, 24]",7,5,"[3, 8, 9, 13, 28]",91.12265712,9706,670,3,7,10,1.486191600033379
basic,52,25,0,0,0,9,"[0, 23, 19, 29, 22, 7, 24, 9]",8,4,"[3, 8, 13, 28]",73.09490075,10457,751,3,3,10,1.453504870342882
basic,52,25,0,0,0,3,"[0, 23, 19, 29, 22, 7, 24, 9, 3]",9,3,"[8, 13, 28]",42.82940885,15289,4832,3,0,10,1.388955167525479
basic,52,25,0,0,1,28,"[0, 23, 19, 29, 22, 7, 24, 9, 3, 28]",10,0,[],11.52445716,16170,881,1,0,10,1.3331084120212044
basic,52,25,0,1,1,28,"[0, 23, 19, 29, 22, 7, 24, 9, 3, 28]",10,0,[],11.52445716,17735,1565,1,0,10,1.3331084120212044
basic,53,27,0,0,0,0,[0],1,26,"[1, 3, 5, 6, 7, 8, 9, 10, 11, 12, 13, 14, 15, 16, 17, 18, 19, 21, 22, 23, 24, 25, 26, 27, 28, 29]",300,201,-1,13,578,11,0.0
basic,53,27,0,0,0,26,"[0, 26]",2,23,"[1, 5, 6, 7, 8, 9, 10, 11, 12, 13, 14, 15, 16, 17, 18, 19, 21, 22, 23, 24, 25, 27, 29]",275.8132268,2326,2125,7,249,11,1.0
basic,53,27,0,0,0,15,"[0, 26, 15]",3,18,"[1, 6, 7, 8, 10, 12, 13, 14, 16, 17, 18, 19, 21, 23, 24, 25, 27, 29]",216.0386502,3126,800,6,105,11,2.316230250316108
basic,53,27,0,0,0,24,"[0, 26, 15, 24]",4,14,"[1, 8, 10, 12, 13, 14, 16, 17, 18, 19, 23, 25, 27, 29]",198.8339997,3799,673,6,63,11,2.140390406148825
basic,53,27,0,0,0,17,"[0, 26, 15, 24, 17]",5,11,"[1, 8, 10, 12, 13, 14, 18, 19, 23, 27, 29]",182.2810543,4363,564,4,33,11,1.897705569486853
basic,53,27,0,0,0,12,"[0, 26, 15, 24, 17, 12]",6,10,"[1, 8, 10, 13, 14, 18, 19, 23, 27, 29]",171.1007144,4925,562,2,17,11,1.994427587076918
basic,53,27,0,0,0,10,"[0, 26, 15, 24, 17, 12, 10]",7,9,"[1, 8, 13, 14, 18, 19, 23, 27, 29]",160.0553534,5453,528,2,14,11,1.8554032921959762
basic,53,27,0,0,0,13,"[0, 26, 15, 24, 17, 12, 10, 13]",8,7,"[1, 8, 14, 19, 23, 27, 29]",120.2056357,7403,1950,2,8,11,1.8269483184790714
basic,53,27,0,0,0,19,"[0, 26, 15, 24, 17, 12, 10, 13, 19]",9,4,"[8, 14, 23, 29]",83.97029387,8726,1323,2,3,11,1.6617669702307691
basic,53,27,0,0,0,8,"[0, 26, 15, 24, 17, 12, 10, 13, 19, 8]",10,2,"[14, 29]",69.10422512,9785,1059,2,0,11,1.708465241811091
basic,53,27,0,0,1,14,"[0, 26, 15, 24, 17, 12, 10, 13, 19, 8, 14]",11,0,[],11.5455594,11741,1956,1,0,11,1.572478422540951
basic,53,27,0,1,1,14,"[0, 26, 15, 24, 17, 12, 10, 13, 19, 8, 14]",11,0,[],11.5455594,13331,1590,1,0,11,1.572478422540951
basic,54,43,0,0,0,0,[0],1,23,"[1, 2, 3, 4, 5, 6, 7, 9, 10, 11, 12, 14, 15, 16, 17, 19, 20, 21, 22, 23, 25, 27, 29]",300,207,-1,16,556,12,0.0
basic,54,43,0,0,0,29,"[0, 29]",2,22,"[1, 2, 3, 4, 5, 6, 7, 9, 10, 11, 12, 14, 15, 16, 17, 19, 20, 21, 22, 23, 25, 27]",277.909278,4536,4329,16,520,12,1.0
basic,54,43,0,0,0,20,"[0, 29, 20]",3,20,"[1, 2, 3, 4, 6, 7, 9, 10, 11, 12, 14, 15, 16, 17, 19, 21, 22, 23, 25, 27]",254.4785289,5578,1042,15,422,12,1.082311746871282
basic,54,43,0,0,0,16,"[0, 29, 20, 16]",4,19,"[1, 2, 3, 4, 6, 7, 9, 10, 11, 12, 14, 15, 17, 19, 21, 22, 23, 25, 27]",231.8511119,6823,1245,15,389,12,1.215201926898219
basic,54,43,0,0,0,25,"[0, 29, 20, 16, 25]",5,14,"[1, 2, 3, 4, 6, 7, 9, 11, 12, 14, 15, 19, 22, 23]",175.7708124,8522,1699,53,282,11,1.566384303308987
basic,54,43,0,0,0,15,"[0, 29, 20, 16, 25, 15]",6,13,"[1, 2, 3, 4, 6, 7, 9, 11, 12, 14, 19, 22, 23]",153.0992443,9369,847,27,108,11,1.776736412604812
basic,54,43,0,0,0,12,"[0, 29, 20, 16, 25, 15, 12]",7,10,"[1, 3, 6, 7, 9, 11, 14, 19, 22, 23]",133.7860364,10282,913,21,41,11,1.6813323012225032
basic,54,43,0,0,0,3,"[0, 29, 20, 16, 25, 15, 12, 3]",8,9,"[1, 6, 7, 9, 11, 14, 19, 22, 23]",120.7860364,10958,676,20,12,11,1.608740348096123
basic,54,43,0,0,0,22,"[0, 29, 20, 16, 25, 15, 12, 3, 22]",9,6,"[1, 6, 7, 11, 14, 19]",86.07292644,13876,2918,9,2,11,1.793657891802588
basic,54,43,0,0,0,19,"[0, 29, 20, 16, 25, 15, 12, 3, 22, 19]",10,3,"[1, 6, 7]",65.45739831,14885,1009,3,0,11,1.6882745891803936
basic,54,43,0,0,1,1,"[0, 29, 20, 16, 25, 15, 12, 3, 22, 19, 1]",11,0,[],37.2793927,15604,719,1,0,11,1.825064866046553
basic,54,43,0,1,1,1,"[0, 29, 20, 16, 25, 15, 12, 3, 22, 19, 1]",11,0,[],37.2793927,22163,6559,1,0,11,1.825064866046553
basic,55,17,0,0,0,0,[0],1,28,"[1, 2, 3, 4, 5, 6, 7, 8, 9, 10, 11, 12, 13, 14, 15, 16, 17, 18, 19, 20, 22, 23, 24, 25, 26, 27, 28, 29]",300,210,-1,2,73,8,0.0
basic,55,17,0,0,0,9,"[0, 9]",2,25,"[1, 2, 3, 5, 6, 7, 8, 10, 11, 12, 14, 15, 16, 17, 18, 19, 20, 22, 23, 24, 25, 26, 27, 28, 29]",210.5293344,4992,4782,1,34,8,1.0
basic,55,17,0,0,0,16,"[0, 9, 16]",3,21,"[1, 2, 3, 5, 7, 8, 10, 11, 12, 14, 17, 18, 19, 20, 22, 23, 25, 26, 27, 28, 29]",197.1876704,5936,944,1,26,8,1.173103464220352
basic,55,17,0,0,0,2,"[0, 9, 16, 2]",4,18,"[1, 3, 5, 7, 8, 10, 11, 12, 14, 17, 18, 19, 23, 25, 26, 27, 28, 29]",181.0631549,7179,1243,1,23,8,1.14825089247282
basic,55,17,0,0,0,17,"[0, 9, 16, 2, 17]",5,7,"[7, 8, 12, 14, 26, 27, 29]",142.7356191,7942,763,4,5,7,1.4896040699768547
basic,55,17,0,0,0,8,"[0, 9, 16, 2, 17, 8]",6,3,"[7, 12, 27]",104.5256727,8727,785,3,0,7,1.4604726966175894
basic,55,17,0,0,1,27,"[0, 9, 16, 2, 17, 8, 27]",7,0,[],21.88790895,9758,1031,1,0,7,1.2949460667276491
basic,55,17,0,1,1,27,"[0, 9, 16, 2, 17, 8, 27]",7,0,[],21.88790895,10974,1216,1,0,7,1.2949460667276491
basic,56,0,0,0,0,0,[0],1,27,"[2, 3, 4, 5, 6, 7, 8, 9, 10, 11, 12, 13, 14, 15, 16, 17, 19, 20, 21, 22, 23, 24, 25, 26, 27, 28, 29]",300,222,-1,104,1136,9,0.0
basic,56,0,0,0,0,20,"[0, 20]",2,25,"[2, 3, 4, 5, 6, 7, 8, 9, 11, 12, 13, 14, 15, 16, 17, 19, 21, 22, 23, 24, 25, 26, 27, 28, 29]",215.4955622,2690,2468,36,372,9,1.0
basic,56,0,0,0,0,5,"[0, 20, 5]",3,22,"[2, 3, 4, 7, 8, 9, 11, 12, 13, 14, 15, 16, 17, 19, 21, 22, 23, 24, 25, 26, 28, 29]",153.2942761,3884,1194,33,251,9,1.0828244018179105
basic,56,0,0,0,0,4,"[0, 20, 5, 4]",4,19,"[2, 3, 7, 8, 9, 11, 12, 13, 14, 15, 17, 19, 21, 22, 23, 24, 25, 26, 28]",128.2144037,4966,1082,21,127,9,1.0973859443611045
basic,56,0,0,0,0,26,"[0, 20, 5, 4, 26]",5,14,"[3, 7, 8, 9, 11, 12, 13, 14, 15, 17, 19, 23, 24, 28]",116.1728091,5540,574,9,63,9,1.1378617460104323
basic,56,0,0,0,0,24,"[0, 20, 5, 4, 26, 24]",6,11,"[3, 7, 8, 9, 11, 12, 15, 17, 19, 23, 28]",99.05556633,6004,464,9,24,9,1.204469953325506
basic,56,0,0,0,0,15,"[0, 20, 5, 4, 26, 24, 15]",7,8,"[3, 7, 8, 9, 11, 12, 17, 19]",75.71033127,6868,864,5,6,9,1.1865351459643638
basic,56,0,0,0,0,7,"[0, 20, 5, 4, 26, 24, 15, 7]",8,2,"[3, 8]",44.64588214,7505,637,2,0,9,1.2455705670301183
basic,56,0,0,0,1,8,"[0, 20, 5, 4, 26, 24, 15, 7, 8]",9,0,[],25.54090896,8244,739,1,0,9,1.2337265013393985
basic,56,0,0,1,1,8,"[0, 20, 5, 4, 26, 24, 15, 7, 8]",9,0,[],25.54090896,10043,1799,1,0,9,1.2337265013393985
basic,57,36,0,0,0,0,[0],1,24,"[2, 4, 5, 6, 7, 8, 9, 10, 12, 13, 14, 15, 16, 17, 18, 19, 20, 22, 23, 25, 26, 27, 28, 29]",300,207,-1,2,200,10,0.0
basic,57,36,0,0,0,18,"[0, 18]",2,21,"[2, 4, 5, 6, 7, 8, 9, 10, 12, 13, 14, 16, 17, 19, 22, 23, 25, 26, 27, 28, 29]",279.6039219,2749,2542,2,110,10,1.0
basic,57,36,0,0,0,9,"[0, 18, 9]",3,14,"[2, 4, 8, 10, 12, 13, 16, 17, 19, 23, 25, 27, 28, 29]",200.2944017,6284,3535,15,121,9,1.443644811653489
basic,57,36,0,0,0,19,"[0, 18, 9, 19]",4,12,"[2, 4, 8, 10, 12, 13, 16, 17, 23, 25, 27, 29]",185.1616558,7225,941,8,45,9,1.489900087961834
basic,57,36,0,0,0,13,"[0, 18, 9, 19, 13]",5,9,"[2, 4, 10, 12, 16, 17, 23, 25, 29]",141.7450691,9368,2143,2,9,9,1.6135027673563205
basic,57,36,0,0,0,25,"[0, 18, 9, 19, 13, 25]",6,6,"[2, 4, 10, 12, 16, 17]",121.1538088,10022,654,2,4,9,1.5621095204910476
basic,57,36,0,0,0,2,"[0, 18, 9, 19, 13, 25, 2]",7,3,"[10, 16, 17]",96.15380879,10725,703,2,1,9,1.8050798631158809
basic,57,36,0,0,0,17,"[0, 18, 9, 19, 13, 25, 2, 17]",8,1,[16],54.92275253,12469,1744,1,0,9,2.593010808263464
basic,57,36,0,0,1,16,"[0, 18, 9, 19, 13, 25, 2, 17, 16]",9,0,[],26.60314801,13765,1296,1,0,9,2.5613826352096396
basic,57,36,0,1,1,16,"[0, 18, 9, 19, 13, 25, 2, 17, 16]",9,0,[],26.60314801,15492,1727,1,0,9,2.5613826352096396
basic,58,31,0,0,0,0,[0],1,27,"[1, 3, 4, 5, 6, 7, 8, 10, 11, 12, 13, 14, 15, 16, 17, 18, 19, 20, 21, 22, 23, 24, 25, 26, 27, 28, 29]",300,215,-1,2,87,10,0.0
basic,58,31,0,0,0,14,"[0, 14]",2,25,"[1, 3, 5, 6, 7, 8, 10, 11, 12, 13, 15, 16, 17, 18, 19, 20, 21, 22, 23, 24, 25, 26, 27, 28, 29]",263.861378,4067,3852,2,59,10,1.0
basic,58,31,0,0,0,27,"[0, 14, 27]",3,22,"[1, 3, 5, 6, 7, 8, 10, 11, 12, 13, 15, 16, 17, 18, 19, 20, 21, 22, 24, 25, 28, 29]",235.6833724,4824,757,1,39,10,1.5881859159302467
basic,58,31,0,0,0,8,"[0, 14, 27, 8]",4,20,"[1, 3, 5, 6, 7, 10, 11, 12, 13, 16, 17, 18, 19, 20, 21, 22, 24, 25, 28, 29]",224.6380114,5416,592,1,36,10,2.1665048452331277
basic,58,31,0,0,0,18,"[0, 14, 27, 8, 18]",5,15,"[1, 5, 6, 7, 11, 12, 13, 16, 17, 19, 20, 22, 25, 28, 29]",188.7911147,6260,844,1,26,10,1.7273375741920205
basic,58,31,0,0,0,17,"[0, 14, 27, 8, 18, 17]",6,13,"[1, 5, 6, 7, 11, 12, 13, 16, 19, 20, 22, 25, 28]",159.584951,8346,2086,1,13,10,1.551192427769927
basic,58,31,0,0,0,11,"[0, 14, 27, 8, 18, 17, 11]",7,7,"[5, 12, 16, 19, 22, 25, 28]",118.4753414,9361,1015,1,4,10,2.9650760544203494
basic,58,31,0,0,0,5,"[0, 14, 27, 8, 18, 17, 11, 5]",8,2,"[16, 28]",74.79468207,10191,830,1,1,10,2.56711965625205
basic,58,31,0,0,0,28,"[0, 14, 27, 8, 18, 17, 11, 5, 28]",9,1,[16],54.57093365,10920,729,1,0,10,2.2865510762058148
basic,58,31,0,0,1,16,"[0, 14, 27, 8, 18, 17, 11, 5, 28, 16]",10,0,[],20.95546102,11851,931,1,0,10,2.089356850786318
basic,58,31,0,1,1,16,"[0, 14, 27, 8, 18, 17, 11, 5, 28, 16]",10,0,[],20.95546102,12860,1009,1,0,10,2.089356850786318
basic,59,24,0,0,0,0,[0],1,29,"[1, 2, 3, 4, 5, 6, 7, 8, 9, 10, 11, 12, 13, 14, 15, 16, 17, 18, 19, 20, 21, 22, 23, 24, 25, 26, 27, 28, 29]",300,196,-1,4,76,10,0.0
basic,59,24,0,0,0,14,"[0, 14]",2,27,"[1, 2, 3, 4, 5, 6, 8, 9, 10, 11, 12, 13, 15, 16, 17, 18, 19, 20, 21, 22, 23, 24, 25, 26, 27, 28, 29]",278.0455016,3757,3561,4,54,10,1.0
basic,59,24,0,0,0,16,"[0, 14, 16]",3,25,"[2, 3, 4, 5, 6, 8, 9, 10, 11, 12, 13, 15, 17, 18, 19, 20, 21, 22, 23, 24, 25, 26, 27, 28, 29]",188.9949542,8022,4265,4,31,10,1.238291113657358
basic,59,24,0,0,0,22,"[0, 14, 16, 22]",4,20,"[2, 3, 4, 6, 8, 9, 10, 11, 13, 15, 17, 20, 21, 23, 24, 25, 26, 27, 28, 29]",170.9671978,9037,1015,2,14,10,1.2244494133788653
basic,59,24,0,0,0,8,"[0, 14, 16, 22, 8]",5,15,"[2, 3, 4, 6, 9, 10, 11, 13, 15, 23, 24, 26, 27, 28, 29]",157.5507899,10473,1436,2,10,10,1.2936570860700658
basic,59,24,0,0,0,15,"[0, 14, 16, 22, 8, 15]",6,11,"[3, 4, 6, 9, 10, 11, 23, 26, 27, 28, 29]",126.6638995,11929,1456,2,8,10,1.4490533667994079
basic,59,24,0,0,0,28,"[0, 14, 16, 22, 8, 15, 28]",7,5,"[4, 9, 11, 23, 27]",81.3869738,13000,1071,2,5,10,1.3279550596984244
basic,59,24,0,0,0,23,"[0, 14, 16, 22, 8, 15, 28, 23]",8,3,"[9, 11, 27]",62.36067621,13609,609,2,2,10,1.3488090026750466
basic,59,24,0,0,0,11,"[0, 14, 16, 22, 8, 15, 28, 23, 11]",9,2,"[9, 27]",35.43485217,14347,738,2,0,10,1.31714136871331
basic,59,24,0,0,1,27,"[0, 14, 16, 22, 8, 15, 28, 23, 11, 27]",10,0,[],7.631974625,15066,719,1,0,10,1.2800893038140084
basic,59,24,0,1,1,27,"[0, 14, 16, 22, 8, 15, 28, 23, 11, 27]",10,0,[],7.631974625,16206,1140,1,0,10,1.2800893038140084
basic,60,30,0,0,0,0,[0],1,19,"[3, 4, 5, 7, 9, 11, 16, 17, 18, 19, 20, 21, 22, 24, 25, 26, 27, 28, 29]",300,224,-1,5,41,8,0.0
basic,60,30,0,0,0,16,"[0, 16]",2,17,"[3, 5, 7, 9, 11, 17, 18, 19, 20, 21, 22, 24, 25, 26, 27, 28, 29]",219.3774225,5233,5009,5,34,8,1.0
basic,60,30,0,0,0,25,"[0, 16, 25]",3,10,"[3, 5, 7, 9, 11, 18, 19, 20, 27, 29]",115.0845656,6223,990,5,28,8,1.0336279544884488
basic,60,30,0,0,0,20,"[0, 16, 25, 20]",4,8,"[3, 5, 7, 9, 18, 19, 27, 29]",93.15285342,7310,1087,4,14,8,1.0337964627284246
basic,60,30,0,0,0,27,"[0, 16, 25, 20, 27]",5,4,"[3, 5, 18, 29]",59.09408069,8133,823,4,6,8,1.1504365534848
basic,60,30,0,0,0,3,"[0, 16, 25, 20, 27, 3]",6,3,"[5, 18, 29]",39.98910751,9122,989,4,0,8,1.1403876826835333
basic,60,30,0,0,0,29,"[0, 16, 25, 20, 27, 3, 29]",7,1,[18],21.38803228,10057,935,1,0,8,1.1443827771455848
basic,60,30,0,0,1,18,"[0, 16, 25, 20, 27, 3, 29, 18]",8,0,[],2.074824359,11043,986,1,0,8,1.2197761544023602
basic,60,30,0,1,1,18,"[0, 16, 25, 20, 27, 3, 29, 18]",8,0,[],2.074824359,12366,1323,1,0,8,1.2197761544023602
basic,61,10,0,0,0,0,[0],1,29,"[1, 2, 3, 4, 5, 6, 7, 8, 9, 10, 11, 12, 13, 14, 15, 16, 17, 18, 19, 20, 21, 22, 23, 24, 25, 26, 27, 28, 29]",300,207,-1,1,100,9,0.0
basic,61,10,0,0,0,13,"[0, 13]",2,25,"[1, 2, 3, 4, 6, 7, 8, 9, 10, 11, 12, 14, 17, 18, 19, 20, 21, 22, 23, 24, 25, 26, 27, 28, 29]",249.4628849,3675,3468,1,79,9,1.0
basic,61,10,0,0,0,11,"[0, 13, 11]",3,20,"[1, 2, 3, 6, 7, 8, 9, 10, 12, 14, 18, 19, 20, 21, 22, 24, 26, 27, 28, 29]",206.4512586,4432,757,1,54,9,1.0313137484914219
basic,61,10,0,0,0,19,"[0, 13, 11, 19]",4,11,"[2, 6, 8, 9, 10, 14, 18, 20, 24, 26, 27]",170.0919407,5193,761,1,22,9,1.0879446220132545
basic,61,10,0,0,0,2,"[0, 13, 11, 19, 2]",5,4,"[14, 20, 26, 27]",126.1829439,6032,839,1,4,9,1.06474052351343
basic,61,10,0,0,0,14,"[0, 13, 11, 19, 2, 14]",6,3,"[20, 26, 27]",114.0174188,6590,558,1,3,9,1.1628909195912238
basic,61,10,0,0,0,26,"[0, 13, 11, 19, 2, 14, 26]",7,2,"[20, 27]",79.34754716,7339,749,1,1,9,1.6660727647633602
basic,61,10,0,0,0,20,"[0, 13, 11, 19, 2, 14, 26, 20]",8,1,[27],47.56704999,8086,747,1,0,9,2.085581809637999
basic,61,10,0,0,1,27,"[0, 13, 11, 19, 2, 14, 26, 20, 27]",9,0,[],2.312215998,9041,955,1,0,9,1.9116357409137932
basic,61,10,0,1,1,27,"[0, 13, 11, 19, 2, 14, 26, 20, 27]",9,0,[],2.312215998,9850,809,1,0,9,1.9116357409137932
basic,62,41,0,0,0,0,[0],1,29,"[1, 2, 3, 4, 5, 6, 7, 8, 9, 10, 11, 12, 13, 14, 15, 16, 17, 18, 19, 20, 21, 22, 23, 24, 25, 26, 27, 28, 29]",300,220,-1,1,143,10,0.0
basic,62,41,0,0,0,13,"[0, 13]",2,23,"[1, 2, 3, 5, 6, 7, 9, 10, 11, 12, 14, 15, 17, 18, 19, 20, 21, 22, 24, 25, 26, 27, 28]",258.2747079,9064,8844,1,55,10,1.0
basic,62,41,0,0,0,28,"[0, 13, 28]",3,22,"[1, 2, 3, 5, 6, 7, 9, 10, 11, 12, 14, 15, 17, 18, 19, 20, 21, 22, 24, 25, 26, 27]",223.7928286,9762,698,1,39,10,1.895724242592676
basic,62,41,0,0,0,5,"[0, 13, 28, 5]",4,19,"[1, 2, 3, 6, 9, 10, 11, 12, 14, 15, 17, 18, 19, 20, 21, 22, 24, 25, 27]",210.1913581,10361,599,1,34,10,2.861541269398273
basic,62,41,0,0,0,3,"[0, 13, 28, 5, 3]",5,16,"[1, 2, 6, 9, 10, 12, 14, 17, 18, 19, 20, 21, 22, 24, 25, 27]",175.3632086,11030,669,1,22,10,3.1455488489005883
basic,62,41,0,0,0,21,"[0, 13, 28, 5, 3, 21]",6,14,"[1, 2, 6, 9, 10, 12, 14, 17, 18, 19, 20, 22, 25, 27]",143.2228912,11916,886,13,11,9,3.207558429289677
basic,62,41,0,0,0,17,"[0, 13, 28, 5, 3, 21, 17]",7,3,"[2, 9, 10]",91.5605258,12751,835,2,1,9,3.2883270328778007
basic,62,41,0,0,0,9,"[0, 13, 28, 5, 3, 21, 17, 9]",8,1,[2],60.54440096,14029,1278,1,0,9,2.9098226601812454
basic,62,41,0,0,1,2,"[0, 13, 28, 5, 3, 21, 17, 9, 2]",9,0,[],48.46135498,14550,521,1,0,9,2.780153959656953
basic,62,41,0,1,1,2,"[0, 13, 28, 5, 3, 21, 17, 9, 2]",9,0,[],48.46135498,16043,1493,1,0,9,2.780153959656953
basic,63,7,0,0,0,0,[0],1,29,"[1, 2, 3, 4, 5, 6, 7, 8, 9, 10, 11, 12, 13, 14, 15, 16, 17, 18, 19, 20, 21, 22, 23, 24, 25, 26, 27, 28, 29]",300,209,-1,3,79,9,0.0
basic,63,7,0,0,0,15,"[0, 15]",2,19,"[2, 4, 5, 6, 7, 8, 9, 10, 13, 14, 16, 18, 19, 20, 21, 23, 25, 27, 28]",230.9348134,3352,3143,2,38,9,1.0
basic,63,7,0,0,0,6,"[0, 15, 6]",3,18,"[2, 4, 5, 7, 8, 9, 10, 13, 14, 16, 18, 19, 20, 21, 23, 25, 27, 28]",205.854941,4038,686,2,36,9,1.366719602896943
