condition,trial_id,map_id,undoIndicator,submit,checkEnd,currentChoice,chosen_all,n_city_all,n_within_reach,cities_reach,currentBudget,time_all,rt_all,n_opt_paths_all,n_subopt_paths_all,mas_all,tortuosity_all
basic,0,38,0,0,0,0,[0],1,29,"[1, 2, 3, 4, 5, 6, 7, 8, 9, 10, 11, 12, 13, 14, 15, 16, 17, 18, 19, 20, 21, 22, 23, 24, 25, 26, 27, 28, 29]",300,144,-1,33,506,9,0.0
basic,0,38,0,0,0,19,"[0, 19]",2,23,"[3, 4, 5, 6, 7, 8, 9, 11, 13, 14, 15, 16, 17, 18, 20, 22, 23, 24, 25, 26, 27, 28, 29]",219.5015528,3736,3592,6,61,9,1.0
basic,0,38,0,0,0,17,"[0, 19, 17]",3,21,"[3, 4, 5, 6, 7, 9, 11, 13, 14, 15, 16, 18, 20, 22, 23, 24, 25, 26, 27, 28, 29]",198.1239945,4924,1188,6,53,9,1.571793785769489
basic,0,38,0,0,0,20,"[0, 19, 17, 20]",4,17,"[3, 4, 5, 6, 7, 11, 13, 14, 15, 16, 18, 22, 24, 25, 26, 27, 28]",174.3542658,6126,1202,6,44,9,2.333182710277297
basic,0,38,0,0,0,4,"[0, 19, 17, 20, 4]",5,10,"[5, 11, 13, 14, 15, 16, 24, 26, 27, 28]",140.4131403,7703,1577,5,22,9,2.276099229646013
basic,0,38,0,0,0,15,"[0, 19, 17, 20, 4, 15]",6,8,"[5, 11, 13, 14, 16, 24, 26, 28]",114.4131403,8874,1171,5,6,9,2.5292671156176403
basic,0,38,0,0,0,11,"[0, 19, 17, 20, 4, 15, 11]",7,2,"[16, 28]",78.01259089,10460,1586,2,0,9,2.778100109749787
basic,0,38,0,0,0,28,"[0, 19, 17, 20, 4, 15, 11, 28]",8,1,[16],50.99407872,11704,1244,1,0,9,2.3316428595723258
basic,0,38,0,0,1,16,"[0, 19, 17, 20, 4, 15, 11, 28, 16]",9,0,[],21.99407872,12952,1248,1,0,9,2.5408012360364265
basic,0,38,0,1,1,16,"[0, 19, 17, 20, 4, 15, 11, 28, 16]",9,0,[],21.99407872,14511,1559,1,0,9,2.5408012360364265
basic,1,31,0,0,0,0,[0],1,27,"[1, 3, 4, 5, 6, 7, 8, 10, 11, 12, 13, 14, 15, 16, 17, 18, 19, 20, 21, 22, 23, 24, 25, 26, 27, 28, 29]",300,147,-1,2,87,10,0.0
basic,1,31,0,0,0,14,"[0, 14]",2,25,"[1, 3, 5, 6, 7, 8, 10, 11, 12, 13, 15, 16, 17, 18, 19, 20, 21, 22, 23, 24, 25, 26, 27, 28, 29]",263.861378,3659,3512,2,59,10,1.0
basic,1,31,0,0,0,27,"[0, 14, 27]",3,22,"[1, 3, 5, 6, 7, 8, 10, 11, 12, 13, 15, 16, 17, 18, 19, 20, 21, 22, 24, 25, 28, 29]",235.6833724,8974,5315,1,39,10,1.5881859159302467
basic,1,31,0,0,0,8,"[0, 14, 27, 8]",4,20,"[1, 3, 5, 6, 7, 10, 11, 12, 13, 16, 17, 18, 19, 20, 21, 22, 24, 25, 28, 29]",224.6380114,9861,887,1,36,10,2.1665048452331277
basic,1,31,0,0,0,18,"[0, 14, 27, 8, 18]",5,15,"[1, 5, 6, 7, 11, 12, 13, 16, 17, 19, 20, 22, 25, 28, 29]",188.7911147,11162,1301,1,26,10,1.7273375741920205
basic,1,31,0,0,0,17,"[0, 14, 27, 8, 18, 17]",6,13,"[1, 5, 6, 7, 11, 12, 13, 16, 19, 20, 22, 25, 28]",159.584951,14074,2912,1,13,10,1.551192427769927
basic,1,31,0,0,0,11,"[0, 14, 27, 8, 18, 17, 11]",7,7,"[5, 12, 16, 19, 22, 25, 28]",118.4753414,16311,2237,1,4,10,2.9650760544203494
basic,1,31,0,0,0,5,"[0, 14, 27, 8, 18, 17, 11, 5]",8,2,"[16, 28]",74.79468207,17758,1447,1,1,10,2.56711965625205
basic,1,31,0,0,0,28,"[0, 14, 27, 8, 18, 17, 11, 5, 28]",9,1,[16],54.57093365,19193,1435,1,0,10,2.2865510762058148
basic,1,31,0,0,1,16,"[0, 14, 27, 8, 18, 17, 11, 5, 28, 16]",10,0,[],20.95546102,22654,3461,1,0,10,2.089356850786318
basic,1,31,0,1,1,16,"[0, 14, 27, 8, 18, 17, 11, 5, 28, 16]",10,0,[],20.95546102,24347,1693,1,0,10,2.089356850786318
basic,2,13,0,0,0,0,[0],1,29,"[1, 2, 3, 4, 5, 6, 7, 8, 9, 10, 11, 12, 13, 14, 15, 16, 17, 18, 19, 20, 21, 22, 23, 24, 25, 26, 27, 28, 29]",300,147,-1,60,2676,11,0.0
basic,2,13,0,0,0,24,"[0, 24]",2,28,"[1, 2, 3, 4, 5, 6, 7, 8, 9, 10, 11, 12, 13, 14, 15, 16, 17, 18, 19, 20, 21, 22, 23, 25, 26, 27, 28, 29]",288.8196601,4480,4333,16,1444,11,1.0
basic,2,13,0,0,0,28,"[0, 24, 28]",3,23,"[1, 2, 3, 4, 6, 7, 8, 9, 10, 11, 12, 13, 15, 16, 17, 19, 20, 21, 22, 23, 26, 27, 29]",222.5324064,7254,2774,8,243,11,1.0513810491680837
basic,2,13,0,0,0,2,"[0, 24, 28, 2]",4,19,"[1, 3, 4, 6, 7, 9, 11, 12, 13, 15, 16, 17, 19, 20, 21, 23, 26, 27, 29]",184.889346,8676,1422,7,110,11,1.050374132001543
basic,2,13,0,0,0,29,"[0, 24, 28, 2, 29]",5,18,"[1, 3, 4, 6, 7, 9, 11, 12, 13, 15, 16, 17, 19, 20, 21, 23, 26, 27]",173.1846461,9689,1013,7,85,11,1.1393409619120594
basic,2,13,0,0,0,7,"[0, 24, 28, 2, 29, 7]",6,17,"[1, 3, 4, 6, 9, 11, 12, 13, 15, 16, 17, 19, 20, 21, 23, 26, 27]",157.9203086,12485,2796,5,45,11,1.349777315111579
basic,2,13,0,0,0,26,"[0, 24, 28, 2, 29, 7, 26]",7,16,"[1, 3, 4, 6, 9, 11, 12, 13, 15, 16, 17, 19, 20, 21, 23, 27]",147.480002,14107,1622,5,25,11,1.5942082773824946
basic,2,13,0,0,0,6,"[0, 24, 28, 2, 29, 7, 26, 6]",8,12,"[1, 3, 4, 11, 13, 15, 16, 17, 19, 20, 23, 27]",127.3802508,15360,1253,4,12,11,1.5898347940840756
basic,2,13,0,0,0,16,"[0, 24, 28, 2, 29, 7, 26, 6, 16]",9,3,"[3, 20, 23]",53.82754861,19454,4094,1,2,11,2.6743660300373904
basic,2,13,0,0,0,3,"[0, 24, 28, 2, 29, 7, 26, 6, 16, 3]",10,1,[20],25.3846233,21439,1985,1,0,11,2.696717621944423
basic,2,13,0,0,1,20,"[0, 24, 28, 2, 29, 7, 26, 6, 16, 3, 20]",11,0,[],6.358325711,22835,1396,1,0,11,2.6690286409584245
basic,2,13,0,1,1,20,"[0, 24, 28, 2, 29, 7, 26, 6, 16, 3, 20]",11,0,[],6.358325711,24830,1995,1,0,11,2.6690286409584245
basic,3,8,0,0,0,0,[0],1,29,"[1, 2, 3, 4, 5, 6, 7, 8, 9, 10, 11, 12, 13, 14, 15, 16, 17, 18, 19, 20, 21, 22, 23, 24, 25, 26, 27, 28, 29]",300,145,-1,10,149,9,0.0
basic,3,8,0,0,0,5,"[0, 5]",2,28,"[1, 2, 3, 4, 6, 7, 8, 9, 10, 11, 12, 13, 14, 15, 16, 17, 18, 19, 20, 21, 22, 23, 24, 25, 26, 27, 28, 29]",254.5137383,3024,2879,10,100,9,1.0
basic,3,8,0,0,0,25,"[0, 5, 25]",3,20,"[1, 2, 3, 4, 6, 11, 12, 14, 15, 16, 17, 18, 19, 20, 21, 22, 23, 24, 28, 29]",215.3091468,7376,4352,4,42,9,1.2272747879909065
basic,3,8,0,0,0,14,"[0, 5, 25, 14]",4,16,"[1, 3, 4, 6, 11, 15, 16, 17, 18, 19, 20, 21, 22, 23, 24, 28]",170.2092576,10625,3249,1,13,9,1.5190857385933465
basic,3,8,0,0,0,17,"[0, 5, 25, 14, 17]",5,9,"[1, 4, 11, 15, 16, 18, 23, 24, 28]",133.1957466,11822,1197,1,9,9,1.5271682935559303
basic,3,8,0,0,0,11,"[0, 5, 25, 14, 17, 11]",6,5,"[15, 16, 18, 24, 28]",108.01639,13538,1716,1,6,9,1.4664212485560129
basic,3,8,0,0,0,24,"[0, 5, 25, 14, 17, 11, 24]",7,2,"[15, 16]",70.80080183,14726,1188,1,1,9,1.3920548417170795
basic,3,8,0,0,0,15,"[0, 5, 25, 14, 17, 11, 24, 15]",8,1,[16],54.03774722,15908,1182,1,0,9,1.4585932832823736
basic,3,8,0,0,1,16,"[0, 5, 25, 14, 17, 11, 24, 15, 16]",9,0,[],2.959376062,18671,2763,1,0,9,1.6043130175078746
basic,3,8,0,1,1,16,"[0, 5, 25, 14, 17, 11, 24, 15, 16]",9,0,[],2.959376062,19396,725,1,0,9,1.6043130175078746
basic,4,40,0,0,0,0,[0],1,29,"[1, 2, 3, 4, 5, 6, 7, 8, 9, 10, 11, 12, 13, 14, 15, 16, 17, 18, 19, 20, 21, 22, 23, 24, 25, 26, 27, 28, 29]",300,147,-1,8,191,9,0.0
basic,4,40,0,0,0,1,"[0, 1]",2,18,"[2, 5, 6, 7, 8, 9, 10, 11, 13, 15, 17, 18, 19, 21, 22, 23, 27, 29]",247.8463808,3980,3833,4,80,9,1.0
basic,4,40,0,0,0,6,"[0, 1, 6]",3,17,"[2, 5, 7, 8, 9, 10, 11, 13, 15, 17, 18, 19, 21, 22, 23, 27, 29]",227.7466295,5612,1632,4,74,9,1.0459427008232034
basic,4,40,0,0,0,9,"[0, 1, 6, 9]",4,10,"[2, 5, 8, 11, 18, 19, 21, 22, 23, 27]",159.146338,7357,1745,17,39,8,1.142098432552584
basic,4,40,0,0,0,18,"[0, 1, 6, 9, 18]",5,9,"[2, 5, 8, 11, 19, 21, 22, 23, 27]",142.5933926,8441,1084,13,14,8,1.3288108654802917
basic,4,40,0,0,0,23,"[0, 1, 6, 9, 18, 23]",6,6,"[2, 5, 8, 19, 21, 22]",108.5933926,10043,1602,6,4,8,2.0180513009829646
basic,4,40,0,0,0,19,"[0, 1, 6, 9, 18, 23, 19]",7,4,"[2, 5, 8, 22]",76.640302,11854,1811,4,0,8,2.1771771191471494
basic,4,40,0,0,1,8,"[0, 1, 6, 9, 18, 23, 19, 8]",8,0,[],2.579516152,13896,2042,1,0,8,1.8473678327361283
basic,4,40,0,1,1,8,"[0, 1, 6, 9, 18, 23, 19, 8]",8,0,[],2.579516152,15181,1285,1,0,8,1.8473678327361283
basic,5,35,0,0,0,0,[0],1,29,"[1, 2, 3, 4, 5, 6, 7, 8, 9, 10, 11, 12, 13, 14, 15, 16, 17, 18, 19, 20, 21, 22, 23, 24, 25, 26, 27, 28, 29]",300,147,-1,5,236,11,0.0
basic,5,35,0,0,0,27,"[0, 27]",2,27,"[1, 2, 4, 5, 6, 7, 8, 9, 10, 11, 12, 13, 14, 15, 16, 17, 18, 19, 20, 21, 22, 23, 24, 25, 26, 28, 29]",278.7867966,3112,2965,5,144,11,1.0
basic,5,35,0,0,0,24,"[0, 27, 24]",3,25,"[1, 2, 4, 5, 6, 7, 8, 9, 10, 11, 12, 13, 15, 16, 17, 18, 19, 20, 21, 22, 23, 25, 26, 28, 29]",234.6053525,6359,3247,3,80,11,2.1084080567904624
basic,5,35,0,0,0,17,"[0, 27, 24, 17]",4,20,"[1, 2, 4, 5, 6, 7, 8, 9, 10, 15, 16, 18, 19, 20, 21, 23, 25, 26, 28, 29]",222.9006526,7339,980,3,50,11,1.9439555968916868
basic,5,35,0,0,0,1,"[0, 27, 24, 17, 1]",5,18,"[2, 4, 5, 6, 8, 9, 10, 15, 16, 18, 19, 20, 21, 23, 25, 26, 28, 29]",207.0892643,8362,1023,3,39,11,1.9436711872547336
basic,5,35,0,0,0,23,"[0, 27, 24, 17, 1, 23]",6,11,"[4, 5, 6, 9, 15, 18, 19, 25, 26, 28, 29]",148.5657647,10205,1843,11,15,10,1.4243213833690815
basic,5,35,0,0,0,9,"[0, 27, 24, 17, 1, 23, 9]",7,6,"[5, 6, 15, 18, 19, 25]",110.9227043,11571,1366,4,3,10,1.6819666849239467
basic,5,35,0,0,0,18,"[0, 27, 24, 17, 1, 23, 9, 18]",8,3,"[5, 6, 25]",90.89771989,13474,1903,2,1,10,1.6255946395893497
basic,5,35,0,0,0,25,"[0, 27, 24, 17, 1, 23, 9, 18, 25]",9,1,[6],57.05987126,15656,2182,1,0,10,1.5001735667260112
basic,5,35,0,0,1,6,"[0, 27, 24, 17, 1, 23, 9, 18, 25, 6]",10,0,[],33.03904696,19753,4097,1,0,10,1.7653615051909883
basic,5,35,0,1,1,6,"[0, 27, 24, 17, 1, 23, 9, 18, 25, 6]",10,0,[],33.03904696,21380,1627,1,0,10,1.7653615051909883
basic,6,45,0,0,0,0,[0],1,24,"[1, 2, 3, 4, 5, 6, 7, 9, 10, 11, 12, 14, 15, 16, 17, 19, 20, 21, 22, 23, 24, 25, 27, 29]",300,148,-1,6,248,10,0.0
basic,6,45,0,0,0,15,"[0, 15]",2,23,"[1, 2, 3, 4, 5, 6, 7, 9, 10, 11, 12, 14, 16, 17, 19, 20, 21, 22, 23, 24, 25, 27, 29]",253.9022777,2706,2558,5,207,10,1.0
basic,6,45,0,0,0,23,"[0, 15, 23]",3,22,"[1, 2, 3, 4, 5, 6, 7, 9, 10, 11, 12, 14, 16, 17, 19, 20, 21, 22, 24, 25, 27, 29]",230.3014303,4023,1317,5,163,10,1.0006068457769497
basic,6,45,0,0,0,20,"[0, 15, 23, 20]",4,19,"[1, 2, 3, 5, 6, 7, 9, 10, 11, 12, 14, 16, 17, 19, 21, 22, 24, 25, 29]",188.8647316,5809,1786,5,137,10,1.2062119754673604
basic,6,45,0,0,0,7,"[0, 15, 23, 20, 7]",5,14,"[2, 3, 5, 6, 9, 10, 12, 14, 17, 19, 21, 22, 24, 29]",137.2410936,7289,1480,3,38,10,1.2267717168083891
basic,6,45,0,0,0,2,"[0, 15, 23, 20, 7, 2]",6,8,"[3, 6, 10, 12, 19, 22, 24, 29]",99.22793795,8605,1316,3,20,10,1.1978549169009853
basic,6,45,0,0,0,3,"[0, 15, 23, 20, 7, 2, 3]",7,5,"[6, 10, 12, 22, 29]",73.90996014,10055,1450,2,7,10,1.2603420042999722
basic,6,45,0,0,0,29,"[0, 15, 23, 20, 7, 2, 3, 29]",8,3,"[6, 10, 12]",53.90996014,11342,1287,2,1,10,1.527949676112761
basic,6,45,0,0,0,10,"[0, 15, 23, 20, 7, 2, 3, 29, 10]",9,1,[6],32.36930092,12591,1249,1,0,10,1.8188082660591487
basic,6,45,0,0,1,6,"[0, 15, 23, 20, 7, 2, 3, 29, 10, 6]",10,0,[],6.120491419,13763,1172,1,0,10,1.7062675391073039
basic,6,45,0,1,1,6,"[0, 15, 23, 20, 7, 2, 3, 29, 10, 6]",10,0,[],6.120491419,15647,1884,1,0,10,1.7062675391073039
basic,7,29,0,0,0,0,[0],1,29,"[1, 2, 3, 4, 5, 6, 7, 8, 9, 10, 11, 12, 13, 14, 15, 16, 17, 18, 19, 20, 21, 22, 23, 24, 25, 26, 27, 28, 29]",300,132,-1,1,78,9,0.0
basic,7,29,0,0,0,14,"[0, 14]",2,22,"[1, 3, 4, 5, 6, 7, 9, 10, 11, 12, 13, 15, 16, 17, 21, 22, 23, 25, 26, 27, 28, 29]",209.490332,7216,7084,21,110,8,1.0
basic,7,29,0,0,0,13,"[0, 14, 13]",3,18,"[1, 4, 5, 6, 7, 9, 10, 12, 15, 16, 17, 21, 22, 25, 26, 27, 28, 29]",191.4625756,8212,996,20,75,8,1.0027006502223275
basic,7,29,0,0,0,5,"[0, 14, 13, 5]",4,15,"[1, 4, 6, 7, 9, 12, 15, 17, 21, 22, 25, 26, 27, 28, 29]",165.7526554,9486,1274,19,49,8,1.0803937325657265
basic,7,29,0,0,0,9,"[0, 14, 13, 5, 9]",5,5,"[4, 7, 12, 21, 22]",90.32719547,11695,2209,1,4,8,1.1106242806359021
basic,7,29,0,0,0,7,"[0, 14, 13, 5, 9, 7]",6,3,"[4, 12, 22]",61.25831177,13095,1400,1,2,8,1.4517532166216307
basic,7,29,0,0,0,12,"[0, 14, 13, 5, 9, 7, 12]",7,1,[22],47.65684126,14309,1214,1,0,8,1.634564936839069
basic,7,29,0,0,1,22,"[0, 14, 13, 5, 9, 7, 12, 22]",8,0,[],9.709509336,15470,1161,1,0,8,2.481840618087434
basic,7,29,0,1,1,22,"[0, 14, 13, 5, 9, 7, 12, 22]",8,0,[],9.709509336,16866,1396,1,0,8,2.481840618087434
basic,8,41,0,0,0,0,[0],1,29,"[1, 2, 3, 4, 5, 6, 7, 8, 9, 10, 11, 12, 13, 14, 15, 16, 17, 18, 19, 20, 21, 22, 23, 24, 25, 26, 27, 28, 29]",300,146,-1,1,143,10,0.0
basic,8,41,0,0,0,13,"[0, 13]",2,23,"[1, 2, 3, 5, 6, 7, 9, 10, 11, 12, 14, 15, 17, 18, 19, 20, 21, 22, 24, 25, 26, 27, 28]",258.2747079,2909,2763,1,55,10,1.0
basic,8,41,0,0,0,28,"[0, 13, 28]",3,22,"[1, 2, 3, 5, 6, 7, 9, 10, 11, 12, 14, 15, 17, 18, 19, 20, 21, 22, 24, 25, 26, 27]",223.7928286,5042,2133,1,39,10,1.895724242592676
basic,8,41,0,0,0,5,"[0, 13, 28, 5]",4,19,"[1, 2, 3, 6, 9, 10, 11, 12, 14, 15, 17, 18, 19, 20, 21, 22, 24, 25, 27]",210.1913581,7059,2017,1,34,10,2.861541269398273
basic,8,41,0,0,0,22,"[0, 13, 28, 5, 22]",5,12,"[2, 3, 6, 9, 10, 11, 12, 17, 18, 20, 21, 25]",155.4464953,9423,2364,11,12,9,2.096079268852861
basic,8,41,0,0,0,3,"[0, 13, 28, 5, 22, 3]",6,8,"[2, 9, 10, 12, 17, 18, 20, 21]",125.4798472,10555,1132,7,5,9,4.404491319005463
basic,8,41,0,0,0,21,"[0, 13, 28, 5, 22, 3, 21]",7,4,"[2, 9, 12, 17]",93.33952984,11783,1228,5,1,9,4.228139797553632
basic,8,41,0,0,0,9,"[0, 13, 28, 5, 22, 3, 21, 9]",8,2,"[2, 17]",43.97354965,13060,1277,2,0,9,3.111188754077749
basic,8,41,0,0,1,2,"[0, 13, 28, 5, 22, 3, 21, 9, 2]",9,0,[],31.89050368,15588,2528,1,0,9,2.963304814480547
basic,8,41,0,1,1,2,"[0, 13, 28, 5, 22, 3, 21, 9, 2]",9,0,[],31.89050368,17980,2392,1,0,9,2.963304814480547
basic,9,39,0,0,0,0,[0],1,28,"[1, 2, 3, 4, 5, 6, 7, 9, 10, 11, 12, 13, 14, 15, 16, 17, 18, 19, 20, 21, 22, 23, 24, 25, 26, 27, 28, 29]",300,182,-1,1,30,10,0.0
basic,9,39,0,0,0,14,"[0, 14]",2,26,"[1, 2, 3, 4, 5, 6, 7, 9, 10, 12, 13, 15, 16, 17, 18, 19, 20, 21, 22, 23, 24, 25, 26, 27, 28, 29]",286.9615952,4303,4121,1,22,10,1.0
basic,9,39,0,0,0,29,"[0, 14, 29]",3,23,"[1, 2, 3, 4, 5, 6, 7, 9, 10, 12, 13, 15, 16, 17, 18, 19, 21, 22, 23, 24, 25, 26, 28]",218.9321898,5661,1358,1,21,10,1.4237768813412561
basic,9,39,0,0,0,12,"[0, 14, 29, 12]",4,16,"[1, 2, 4, 5, 7, 9, 10, 13, 15, 16, 18, 19, 22, 23, 24, 26]",158.3929463,6805,1144,1,11,10,1.2085522586932163
basic,9,39,0,0,0,10,"[0, 14, 29, 12, 10]",5,11,"[1, 4, 5, 7, 15, 16, 18, 19, 22, 23, 26]",122.8823845,8080,1275,1,8,10,1.4905426536315662
basic,9,39,0,0,0,7,"[0, 14, 29, 12, 10, 7]",6,6,"[1, 16, 18, 19, 22, 26]",89.46083457,10404,2324,1,6,10,1.3836596018032035
basic,9,39,0,0,0,26,"[0, 14, 29, 12, 10, 7, 26]",7,3,"[16, 19, 22]",70.77929288,11522,1118,1,4,10,1.4191124441944845
basic,9,39,0,0,0,22,"[0, 14, 29, 12, 10, 7, 26, 22]",8,2,"[16, 19]",53.05924773,12738,1216,1,1,10,1.594793297833885
basic,9,39,0,0,0,16,"[0, 14, 29, 12, 10, 7, 26, 22, 16]",9,1,[19],18.05924773,13710,972,1,0,10,1.48519520801471
basic,9,39,0,0,1,19,"[0, 14, 29, 12, 10, 7, 26, 22, 16, 19]",10,0,[],0.594998533,14908,1198,1,0,10,1.484277847976571
basic,9,39,0,1,1,19,"[0, 14, 29, 12, 10, 7, 26, 22, 16, 19]",10,0,[],0.594998533,16229,1321,1,0,10,1.484277847976571
basic,10,34,0,0,0,0,[0],1,25,"[1, 3, 4, 5, 6, 7, 8, 9, 10, 11, 12, 13, 15, 18, 19, 20, 21, 22, 23, 24, 25, 26, 27, 28, 29]",300,313,-1,12,367,10,0.0
basic,10,34,0,0,0,13,"[0, 13]",2,24,"[1, 3, 4, 5, 6, 7, 8, 9, 10, 11, 12, 15, 18, 19, 20, 21, 22, 23, 24, 25, 26, 27, 28, 29]",279.9750156,2222,1909,12,331,10,1.0
basic,10,34,0,0,0,1,"[0, 13, 1]",3,16,"[3, 5, 7, 8, 9, 10, 11, 12, 19, 21, 22, 23, 24, 25, 27, 29]",211.8574701,3589,1367,3,92,10,1.0010381285747127
basic,10,34,0,0,0,8,"[0, 13, 1, 8]",4,14,"[3, 5, 7, 9, 10, 11, 12, 19, 22, 23, 24, 25, 27, 29]",201.0871405,4466,877,2,54,10,1.1636807
basic,10,34,0,0,0,25,"[0, 13, 1, 8, 25]",5,12,"[3, 5, 7, 9, 10, 11, 12, 22, 23, 24, 27, 29]",183.999133,5494,1028,2,28,10,1.1396208815936457
basic,10,34,0,0,0,24,"[0, 13, 1, 8, 25, 24]",6,11,"[3, 5, 7, 9, 10, 11, 12, 22, 23, 27, 29]",166.5062774,6926,1432,2,23,10,1.374180768736554
basic,10,34,0,0,0,12,"[0, 13, 1, 8, 25, 24, 12]",7,7,"[7, 9, 10, 11, 22, 23, 27]",115.4670767,9846,2920,1,8,10,1.4994254760835948
basic,10,34,0,0,0,7,"[0, 13, 1, 8, 25, 24, 12, 7]",8,5,"[9, 11, 22, 23, 27]",100.4337804,10958,1112,1,4,10,1.758992610425009
basic,10,34,0,0,0,23,"[0, 13, 1, 8, 25, 24, 12, 7, 23]",9,1,[27],72.27352467,13016,2058,1,0,10,2.399781305190153
basic,10,34,0,0,1,27,"[0, 13, 1, 8, 25, 24, 12, 7, 23, 27]",10,0,[],18.60789321,14357,1341,1,0,10,4.766619878750327
basic,10,34,0,1,1,27,"[0, 13, 1, 8, 25, 24, 12, 7, 23, 27]",10,0,[],18.60789321,15197,840,1,0,10,4.766619878750327
basic,11,10,0,0,0,0,[0],1,29,"[1, 2, 3, 4, 5, 6, 7, 8, 9, 10, 11, 12, 13, 14, 15, 16, 17, 18, 19, 20, 21, 22, 23, 24, 25, 26, 27, 28, 29]",300,147,-1,1,100,9,0.0
basic,11,10,0,0,0,13,"[0, 13]",2,25,"[1, 2, 3, 4, 6, 7, 8, 9, 10, 11, 12, 14, 17, 18, 19, 20, 21, 22, 23, 24, 25, 26, 27, 28, 29]",249.4628849,4009,3862,1,79,9,1.0
basic,11,10,0,0,0,11,"[0, 13, 11]",3,20,"[1, 2, 3, 6, 7, 8, 9, 10, 12, 14, 18, 19, 20, 21, 22, 24, 26, 27, 28, 29]",206.4512586,5274,1265,1,54,9,1.0313137484914219
basic,11,10,0,0,0,19,"[0, 13, 11, 19]",4,11,"[2, 6, 8, 9, 10, 14, 18, 20, 24, 26, 27]",170.0919407,7860,2586,1,22,9,1.0879446220132545
basic,11,10,0,0,0,2,"[0, 13, 11, 19, 2]",5,4,"[14, 20, 26, 27]",126.1829439,9293,1433,1,4,9,1.06474052351343
basic,11,10,0,0,0,14,"[0, 13, 11, 19, 2, 14]",6,3,"[20, 26, 27]",114.0174188,10522,1229,1,3,9,1.1628909195912238
basic,11,10,0,0,0,26,"[0, 13, 11, 19, 2, 14, 26]",7,2,"[20, 27]",79.34754716,12507,1985,1,1,9,1.6660727647633602
basic,11,10,0,0,0,20,"[0, 13, 11, 19, 2, 14, 26, 20]",8,1,[27],47.56704999,13746,1239,1,0,9,2.085581809637999
basic,11,10,0,0,1,27,"[0, 13, 11, 19, 2, 14, 26, 20, 27]",9,0,[],2.312215998,15024,1278,1,0,9,1.9116357409137932
basic,11,10,0,1,1,27,"[0, 13, 11, 19, 2, 14, 26, 20, 27]",9,0,[],2.312215998,16164,1140,1,0,9,1.9116357409137932
basic,12,26,0,0,0,0,[0],1,29,"[1, 2, 3, 4, 5, 6, 7, 8, 9, 10, 11, 12, 13, 14, 15, 16, 17, 18, 19, 20, 21, 22, 23, 24, 25, 26, 27, 28, 29]",300,145,-1,9,226,9,0.0
basic,12,26,0,0,0,4,"[0, 4]",2,13,"[5, 6, 10, 12, 13, 14, 16, 17, 19, 21, 23, 26, 29]",178.7976898,3186,3041,4,118,8,1.0
basic,12,26,0,0,0,10,"[0, 4, 10]",3,5,"[6, 14, 16, 17, 29]",128.5881289,4719,1533,1,11,8,1.0592893513500627
basic,12,26,0,0,0,6,"[0, 4, 10, 6]",4,4,"[14, 16, 17, 29]",99.31356661,6074,1355,1,7,8,1.249516025811376
basic,12,26,0,0,0,14,"[0, 4, 10, 6, 14]",5,3,"[16, 17, 29]",78.28977057,7453,1379,1,3,8,1.3757824228717679
basic,12,26,0,0,0,17,"[0, 4, 10, 6, 14, 17]",6,2,"[16, 29]",55.81756552,8822,1369,1,1,8,1.7185295938563587
basic,12,26,0,0,0,29,"[0, 4, 10, 6, 14, 17, 29]",7,1,[16],25.40375286,10273,1451,1,0,8,2.2473188452438926
basic,12,26,0,0,1,16,"[0, 4, 10, 6, 14, 17, 29, 16]",8,0,[],1.196315991,11287,1014,1,0,8,2.669167047452515
basic,12,26,0,1,1,16,"[0, 4, 10, 6, 14, 17, 29, 16]",8,0,[],1.196315991,12862,1575,1,0,8,2.669167047452515
basic,13,27,0,0,0,0,[0],1,26,"[1, 3, 5, 6, 7, 8, 9, 10, 11, 12, 13, 14, 15, 16, 17, 18, 19, 21, 22, 23, 24, 25, 26, 27, 28, 29]",300,130,-1,13,578,11,0.0
basic,13,27,0,0,0,26,"[0, 26]",2,23,"[1, 5, 6, 7, 8, 9, 10, 11, 12, 13, 14, 15, 16, 17, 18, 19, 21, 22, 23, 24, 25, 27, 29]",275.8132268,2888,2758,7,249,11,1.0
basic,13,27,0,0,0,15,"[0, 26, 15]",3,18,"[1, 6, 7, 8, 10, 12, 13, 14, 16, 17, 18, 19, 21, 23, 24, 25, 27, 29]",216.0386502,4250,1362,6,105,11,2.316230250316108
basic,13,27,0,0,0,24,"[0, 26, 15, 24]",4,14,"[1, 8, 10, 12, 13, 14, 16, 17, 18, 19, 23, 25, 27, 29]",198.8339997,5188,938,6,63,11,2.140390406148825
basic,13,27,0,0,0,17,"[0, 26, 15, 24, 17]",5,11,"[1, 8, 10, 12, 13, 14, 18, 19, 23, 27, 29]",182.2810543,6174,986,4,33,11,1.897705569486853
basic,13,27,0,0,0,12,"[0, 26, 15, 24, 17, 12]",6,10,"[1, 8, 10, 13, 14, 18, 19, 23, 27, 29]",171.1007144,7391,1217,2,17,11,1.994427587076918
basic,13,27,0,0,0,10,"[0, 26, 15, 24, 17, 12, 10]",7,9,"[1, 8, 13, 14, 18, 19, 23, 27, 29]",160.0553534,8391,1000,2,14,11,1.8554032921959762
basic,13,27,0,0,0,13,"[0, 26, 15, 24, 17, 12, 10, 13]",8,7,"[1, 8, 14, 19, 23, 27, 29]",120.2056357,9822,1431,2,8,11,1.8269483184790714
basic,13,27,0,0,0,19,"[0, 26, 15, 24, 17, 12, 10, 13, 19]",9,4,"[8, 14, 23, 29]",83.97029387,10956,1134,2,3,11,1.6617669702307691
basic,13,27,0,0,0,8,"[0, 26, 15, 24, 17, 12, 10, 13, 19, 8]",10,2,"[14, 29]",69.10422512,12229,1273,2,0,11,1.708465241811091
basic,13,27,0,0,1,14,"[0, 26, 15, 24, 17, 12, 10, 13, 19, 8, 14]",11,0,[],11.5455594,15573,3344,1,0,11,1.572478422540951
basic,13,27,0,1,1,14,"[0, 26, 15, 24, 17, 12, 10, 13, 19, 8, 14]",11,0,[],11.5455594,17214,1641,1,0,11,1.572478422540951
basic,14,25,0,0,0,0,[0],1,28,"[1, 2, 3, 4, 5, 7, 8, 9, 10, 11, 12, 13, 14, 15, 16, 17, 18, 19, 20, 21, 22, 23, 24, 25, 26, 27, 28, 29]",300,146,-1,5,94,10,0.0
basic,14,25,0,0,0,23,"[0, 23]",2,23,"[1, 2, 3, 5, 7, 8, 9, 11, 12, 13, 14, 16, 17, 19, 20, 21, 22, 24, 25, 26, 27, 28, 29]",259.7756293,4073,3927,3,33,10,1.0
basic,14,25,0,0,0,19,"[0, 23, 19]",3,21,"[1, 2, 3, 5, 7, 8, 9, 11, 12, 13, 14, 16, 17, 20, 21, 22, 24, 25, 27, 28, 29]",223.9287326,5328,1255,3,24,10,1.583101227007039
basic,14,25,0,0,0,29,"[0, 23, 19, 29]",4,19,"[1, 2, 3, 5, 7, 8, 9, 11, 12, 13, 14, 16, 17, 20, 21, 22, 24, 25, 28]",207.649912,7238,1910,3,17,10,1.474631541426484
basic,14,25,0,0,0,22,"[0, 23, 19, 29, 22]",5,18,"[1, 2, 3, 5, 7, 8, 9, 11, 12, 13, 14, 16, 17, 20, 21, 24, 25, 28]",191.5253965,11486,4248,3,14,10,1.4020377754906637
basic,14,25,0,0,0,7,"[0, 23, 19, 29, 22, 7]",6,7,"[3, 8, 9, 11, 13, 24, 28]",115.8814939,12605,1119,3,11,10,1.5709678649326715
basic,14,25,0,0,0,24,"[0, 23, 19, 29, 22, 7, 24]",7,5,"[3, 8, 9, 13, 28]",91.12265712,14788,2183,3,7,10,1.486191600033379
basic,14,25,0,0,0,9,"[0, 23, 19, 29, 22, 7, 24, 9]",8,4,"[3, 8, 13, 28]",73.09490075,16770,1982,3,3,10,1.453504870342882
basic,14,25,0,0,0,3,"[0, 23, 19, 29, 22, 7, 24, 9, 3]",9,3,"[8, 13, 28]",42.82940885,18785,2015,3,0,10,1.388955167525479
basic,14,25,0,0,1,28,"[0, 23, 19, 29, 22, 7, 24, 9, 3, 28]",10,0,[],11.52445716,20739,1954,1,0,10,1.3331084120212044
basic,14,25,0,1,1,28,"[0, 23, 19, 29, 22, 7, 24, 9, 3, 28]",10,0,[],11.52445716,22029,1290,1,0,10,1.3331084120212044
basic,15,32,0,0,0,0,[0],1,29,"[1, 2, 3, 4, 5, 6, 7, 8, 9, 10, 11, 12, 13, 14, 15, 16, 17, 18, 19, 20, 21, 22, 23, 24, 25, 26, 27, 28, 29]",300,179,-1,17,359,10,0.0
basic,15,32,0,0,0,19,"[0, 19]",2,28,"[1, 2, 3, 4, 5, 6, 7, 8, 9, 10, 11, 12, 13, 14, 15, 16, 17, 18, 20, 21, 22, 23, 24, 25, 26, 27, 28, 29]",283.5075775,4104,3925,16,294,10,1.0
basic,15,32,0,0,0,13,"[0, 19, 13]",3,24,"[2, 3, 4, 5, 6, 8, 9, 10, 11, 12, 14, 15, 16, 17, 18, 20, 21, 22, 23, 24, 25, 26, 27, 28]",260.3127505,5388,1284,14,227,10,1.0172874229878615
basic,15,32,0,0,0,15,"[0, 19, 13, 15]",4,18,"[2, 3, 5, 8, 9, 10, 11, 12, 16, 17, 20, 22, 23, 24, 25, 26, 27, 28]",177.4393531,6762,1374,9,116,10,1.435447391509833
basic,15,32,0,0,0,28,"[0, 19, 13, 15, 28]",5,17,"[2, 3, 5, 8, 9, 10, 11, 12, 16, 17, 20, 22, 23, 24, 25, 26, 27]",166.0375988,7759,997,9,70,10,1.3843701324937985
basic,15,32,0,0,0,12,"[0, 19, 13, 15, 28, 12]",6,14,"[2, 3, 5, 8, 9, 10, 11, 16, 17, 20, 22, 24, 26, 27]",147.0639329,9037,1278,6,35,10,1.358372254952329
basic,15,32,0,0,0,16,"[0, 19, 13, 15, 28, 12, 16]",7,13,"[2, 3, 5, 8, 9, 10, 11, 17, 20, 22, 24, 26, 27]",131.411457,10341,1304,5,15,10,1.4356932930709845
basic,15,32,0,0,0,27,"[0, 19, 13, 15, 28, 12, 16, 27]",8,2,"[3, 11]",55.13564171,14553,4212,2,0,10,1.3380566026775955
basic,15,32,0,0,0,3,"[0, 19, 13, 15, 28, 12, 16, 27, 3]",9,1,[11],29.64054414,15823,1270,1,0,10,1.3269345554887129
basic,15,32,0,0,1,11,"[0, 19, 13, 15, 28, 12, 16, 27, 3, 11]",10,0,[],14.02004479,17104,1281,1,0,10,1.356452519014518
basic,15,32,0,1,1,11,"[0, 19, 13, 15, 28, 12, 16, 27, 3, 11]",10,0,[],14.02004479,18212,1108,1,0,10,1.356452519014518
basic,16,4,0,0,0,0,[0],1,26,"[3, 4, 5, 6, 7, 8, 10, 11, 12, 13, 14, 15, 16, 17, 18, 19, 20, 21, 22, 23, 24, 25, 26, 27, 28, 29]",300,180,-1,4,489,10,0.0
basic,16,4,0,0,0,28,"[0, 28]",2,21,"[3, 4, 5, 6, 10, 11, 12, 13, 14, 15, 16, 17, 19, 20, 21, 22, 23, 24, 25, 26, 27]",225.9392142,2813,2633,2,216,10,1.0
basic,16,4,0,0,0,14,"[0, 28, 14]",3,13,"[3, 4, 5, 6, 11, 13, 16, 17, 20, 21, 22, 24, 25]",159.6972335,5492,2679,1,26,10,1.0273973946789214
basic,16,4,0,0,0,25,"[0, 28, 14, 25]",4,12,"[3, 4, 5, 6, 11, 13, 16, 17, 20, 21, 22, 24]",143.572718,8895,3403,1,25,10,1.233547772313525
basic,16,4,0,0,0,11,"[0, 28, 14, 25, 11]",5,10,"[3, 4, 5, 6, 13, 16, 17, 20, 21, 22]",124.7844238,9996,1101,1,15,10,1.425978575879479
basic,16,4,0,0,0,16,"[0, 28, 14, 25, 11, 16]",6,9,"[3, 4, 5, 6, 13, 17, 20, 21, 22]",109.7844238,11108,1112,1,12,10,1.3799325158051412
basic,16,4,0,0,0,3,"[0, 28, 14, 25, 11, 16, 3]",7,2,"[17, 20]",68.15510719,12356,1248,1,1,9,1.3292844629725955
basic,16,4,0,0,0,17,"[0, 28, 14, 25, 11, 16, 3, 17]",8,1,[20],43.63980585,14539,2183,1,0,9,1.5639571149270572
basic,16,4,0,0,1,20,"[0, 28, 14, 25, 11, 16, 3, 17, 20]",9,0,[],3.415435124,15837,1298,1,0,9,1.6231058358944275
basic,16,4,0,1,1,20,"[0, 28, 14, 25, 11, 16, 3, 17, 20]",9,0,[],3.415435124,16830,993,1,0,9,1.6231058358944275
basic,17,36,0,0,0,0,[0],1,24,"[2, 4, 5, 6, 7, 8, 9, 10, 12, 13, 14, 15, 16, 17, 18, 19, 20, 22, 23, 25, 26, 27, 28, 29]",300,146,-1,2,200,10,0.0
basic,17,36,0,0,0,18,"[0, 18]",2,21,"[2, 4, 5, 6, 7, 8, 9, 10, 12, 13, 14, 16, 17, 19, 22, 23, 25, 26, 27, 28, 29]",279.6039219,4204,4058,2,110,10,1.0
basic,17,36,0,0,0,12,"[0, 18, 12]",3,19,"[2, 4, 5, 6, 7, 8, 9, 10, 13, 16, 17, 19, 22, 23, 25, 26, 27, 28, 29]",237.0245842,5606,1402,2,86,10,2.836270082716982
basic,17,36,0,0,0,9,"[0, 18, 12, 9]",4,9,"[2, 4, 10, 13, 16, 17, 19, 23, 25]",174.6627369,6945,1339,1,40,10,1.8147676024843966
basic,17,36,0,0,0,16,"[0, 18, 12, 9, 16]",5,5,"[2, 13, 17, 19, 25]",127.3658026,8409,1464,4,11,9,1.6173640341692257
basic,17,36,0,0,0,17,"[0, 18, 12, 9, 16, 17]",6,4,"[2, 13, 19, 25]",99.04619804,9503,1094,4,5,9,2.126167915720943
basic,17,36,0,0,0,19,"[0, 18, 12, 9, 16, 17, 19]",7,3,"[2, 13, 25]",71.15354668,10757,1254,3,0,9,2.9690287970141402
basic,17,36,0,0,0,2,"[0, 18, 12, 9, 16, 17, 19, 2]",8,1,[25],34.0321243,12093,1336,1,0,9,2.355174034952613
basic,17,36,0,0,1,25,"[0, 18, 12, 9, 16, 17, 19, 2, 25]",9,0,[],9.032124296,13243,1150,1,0,9,2.541422245252009
basic,17,36,0,1,1,25,"[0, 18, 12, 9, 16, 17, 19, 2, 25]",9,0,[],9.032124296,14480,1237,1,0,9,2.541422245252009
basic,18,22,0,0,0,0,[0],1,29,"[1, 2, 3, 4, 5, 6, 7, 8, 9, 10, 11, 12, 13, 14, 15, 16, 17, 18, 19, 20, 21, 22, 23, 24, 25, 26, 27, 28, 29]",300,147,-1,31,704,9,0.0
basic,18,22,0,0,0,16,"[0, 16]",2,21,"[1, 3, 6, 7, 8, 9, 11, 13, 14, 15, 17, 18, 19, 20, 21, 22, 24, 25, 27, 28, 29]",218.605897,2628,2481,17,147,9,1.0
basic,18,22,0,0,0,28,"[0, 16, 28]",3,13,"[6, 7, 9, 13, 14, 17, 19, 20, 21, 22, 24, 25, 29]",184.1675463,3905,1277,12,61,9,1.047282311284478
basic,18,22,0,0,0,6,"[0, 16, 28, 6]",4,12,"[7, 9, 13, 14, 17, 19, 20, 21, 22, 24, 25, 29]",154.1675463,5723,1818,12,43,9,1.645645870580622
basic,18,22,0,0,0,9,"[0, 16, 28, 6, 9]",5,8,"[7, 14, 17, 19, 20, 21, 24, 29]",127.5404924,7767,2044,8,17,9,1.925750226630103
basic,18,22,0,0,0,19,"[0, 16, 28, 6, 9, 19]",6,6,"[7, 14, 17, 21, 24, 29]",107.1444143,12593,4826,3,7,9,2.4220750331476455
basic,18,22,0,0,0,29,"[0, 16, 28, 6, 9, 19, 29]",7,4,"[7, 14, 17, 24]",92.11111796,15706,3113,2,2,9,2.6996279574991067
basic,18,22,0,0,0,14,"[0, 16, 28, 6, 9, 19, 29, 14]",8,1,[7],33.86165444,17490,1784,1,0,9,2.0544639927929462
basic,18,22,0,0,1,7,"[0, 16, 28, 6, 9, 19, 29, 14, 7]",9,0,[],20.82324963,18953,1463,1,0,9,2.219817088951114
basic,18,22,0,1,1,7,"[0, 16, 28, 6, 9, 19, 29, 14, 7]",9,0,[],20.82324963,20163,1210,1,0,9,2.219817088951114
basic,19,43,0,0,0,0,[0],1,23,"[1, 2, 3, 4, 5, 6, 7, 9, 10, 11, 12, 14, 15, 16, 17, 19, 20, 21, 22, 23, 25, 27, 29]",300,164,-1,16,556,12,0.0
basic,19,43,0,0,0,29,"[0, 29]",2,22,"[1, 2, 3, 4, 5, 6, 7, 9, 10, 11, 12, 14, 15, 16, 17, 19, 20, 21, 22, 23, 25, 27]",277.909278,1955,1791,16,520,12,1.0
basic,19,43,0,0,0,20,"[0, 29, 20]",3,20,"[1, 2, 3, 4, 6, 7, 9, 10, 11, 12, 14, 15, 16, 17, 19, 21, 22, 23, 25, 27]",254.4785289,2972,1017,15,422,12,1.082311746871282
basic,19,43,0,0,0,16,"[0, 29, 20, 16]",4,19,"[1, 2, 3, 4, 6, 7, 9, 10, 11, 12, 14, 15, 17, 19, 21, 22, 23, 25, 27]",231.8511119,4061,1089,15,389,12,1.215201926898219
basic,19,43,0,0,0,11,"[0, 29, 20, 16, 11]",5,17,"[1, 2, 3, 4, 6, 7, 9, 10, 12, 14, 15, 17, 19, 21, 22, 23, 25]",196.7227758,5246,1185,12,188,12,1.1349145516483516
basic,19,43,0,0,0,15,"[0, 29, 20, 16, 11, 15]",6,12,"[1, 2, 3, 4, 6, 7, 12, 14, 19, 22, 23, 25]",147.9682888,6427,1181,1,32,12,1.8387943334430294
basic,19,43,0,0,0,25,"[0, 29, 20, 16, 11, 15, 25]",7,9,"[1, 3, 6, 7, 12, 14, 19, 22, 23]",125.2967207,7793,1366,1,12,12,2.202803380742111
basic,19,43,0,0,0,12,"[0, 29, 20, 16, 11, 15, 25, 12]",8,6,"[1, 3, 6, 7, 19, 22]",101.1099475,9057,1264,1,8,12,2.011866286185413
basic,19,43,0,0,0,3,"[0, 29, 20, 16, 11, 15, 25, 12, 3]",9,5,"[1, 6, 7, 19, 22]",88.10994748,10111,1054,1,5,12,1.9020620380337963
basic,19,43,0,0,0,22,"[0, 29, 20, 16, 11, 15, 25, 12, 3, 22]",10,3,"[1, 6, 19]",53.39683757,11210,1099,1,2,12,2.067628472989826
basic,19,43,0,0,0,19,"[0, 29, 20, 16, 11, 15, 25, 12, 3, 22, 19]",11,1,[1],32.78130944,12352,1142,1,0,12,1.923482223595295
basic,19,43,0,0,1,1,"[0, 29, 20, 16, 11, 15, 25, 12, 3, 22, 19, 1]",12,0,[],4.603303833,13437,1085,1,0,12,2.0520587907480077
basic,19,43,0,1,1,1,"[0, 29, 20, 16, 11, 15, 25, 12, 3, 22, 19, 1]",12,0,[],4.603303833,15012,1575,1,0,12,2.0520587907480077
basic,20,1,0,0,0,0,[0],1,26,"[1, 2, 4, 5, 7, 8, 9, 10, 11, 12, 13, 14, 15, 16, 17, 18, 19, 20, 21, 22, 23, 24, 25, 26, 28, 29]",300,130,-1,6,74,7,0.0
basic,20,1,0,0,0,14,"[0, 14]",2,19,"[1, 4, 5, 8, 9, 13, 15, 17, 18, 19, 20, 21, 22, 23, 24, 25, 26, 28, 29]",200.1901808,4736,4606,5,42,7,1.0
basic,20,1,0,0,0,17,"[0, 14, 17]",3,15,"[1, 4, 5, 8, 9, 13, 15, 18, 19, 20, 22, 23, 25, 28, 29]",147.8356204,5948,1212,5,27,7,1.0028844724416826
basic,20,1,0,0,0,1,"[0, 14, 17, 1]",4,12,"[4, 5, 8, 9, 15, 18, 20, 22, 23, 25, 28, 29]",123.4840291,6939,991,5,15,7,1.0264985578353567
basic,20,1,0,0,0,28,"[0, 14, 17, 1, 28]",5,5,"[9, 15, 22, 23, 29]",88.59850198,8306,1367,5,3,7,1.0339861575999345
basic,20,1,0,0,0,23,"[0, 14, 17, 1, 28, 23]",6,2,"[15, 22]",51.70676849,9809,1503,2,0,7,1.0327458250705703
basic,20,1,0,0,1,15,"[0, 14, 17, 1, 28, 23, 15]",7,0,[],20.81987807,10822,1013,1,0,7,1.1948681641401226
basic,20,1,0,1,1,15,"[0, 14, 17, 1, 28, 23, 15]",7,0,[],20.81987807,11747,925,1,0,7,1.1948681641401226
basic,21,42,0,0,0,0,[0],1,29,"[1, 2, 3, 4, 5, 6, 7, 8, 9, 10, 11, 12, 13, 14, 15, 16, 17, 18, 19, 20, 21, 22, 23, 24, 25, 26, 27, 28, 29]",300,146,-1,16,302,9,0.0
basic,21,42,0,0,0,5,"[0, 5]",2,28,"[1, 2, 3, 4, 6, 7, 8, 9, 10, 11, 12, 13, 14, 15, 16, 17, 18, 19, 20, 21, 22, 23, 24, 25, 26, 27, 28, 29]",191.2939744,4787,4641,1,22,9,1.0
basic,21,42,0,0,0,4,"[0, 5, 4]",3,23,"[1, 2, 3, 6, 7, 8, 9, 10, 11, 13, 15, 17, 18, 19, 20, 21, 22, 23, 24, 25, 26, 27, 29]",171.4445412,5980,1193,1,14,9,1.420957801478707
basic,21,42,0,0,0,22,"[0, 5, 4, 22]",4,20,"[1, 2, 3, 6, 7, 8, 9, 11, 15, 17, 18, 19, 20, 21, 23, 24, 25, 26, 27, 29]",160.2642013,7338,1358,1,11,9,1.5771494659680896
basic,21,42,0,0,0,8,"[0, 5, 4, 22, 8]",5,14,"[1, 2, 3, 6, 7, 11, 15, 18, 19, 24, 25, 26, 27, 29]",138.1282577,8503,1165,1,10,9,1.5055393955524201
basic,21,42,0,0,0,1,"[0, 5, 4, 22, 8, 1]",6,5,"[2, 7, 19, 26, 27]",89.03650682,9588,1085,1,7,9,1.3547259083637835
basic,21,42,0,0,0,7,"[0, 5, 4, 22, 8, 1, 7]",7,4,"[2, 19, 26, 27]",59.03650682,10959,1371,1,3,9,1.3909715672447451
basic,21,42,0,0,0,26,"[0, 5, 4, 22, 8, 1, 7, 26]",8,1,[27],32.46584631,12049,1090,1,0,9,1.3511825943939393
basic,21,42,0,0,1,27,"[0, 5, 4, 22, 8, 1, 7, 26, 27]",9,0,[],14.43808994,13212,1163,1,0,9,1.3391911688802078
basic,21,42,0,1,1,27,"[0, 5, 4, 22, 8, 1, 7, 26, 27]",9,0,[],14.43808994,14013,801,1,0,9,1.3391911688802078
basic,22,24,0,0,0,0,[0],1,29,"[1, 2, 3, 4, 5, 6, 7, 8, 9, 10, 11, 12, 13, 14, 15, 16, 17, 18, 19, 20, 21, 22, 23, 24, 25, 26, 27, 28, 29]",300,165,-1,4,76,10,0.0
basic,22,24,0,0,0,16,"[0, 16]",2,28,"[1, 2, 3, 4, 5, 6, 7, 8, 9, 10, 11, 12, 13, 14, 15, 17, 18, 19, 20, 21, 22, 23, 24, 25, 26, 27, 28, 29]",210.3562607,2909,2744,13,110,9,1.0
basic,22,24,0,0,0,8,"[0, 16, 8]",3,22,"[1, 2, 3, 4, 6, 9, 10, 11, 13, 14, 15, 17, 20, 21, 22, 23, 24, 25, 26, 27, 28, 29]",181.3562607,4254,1345,3,31,9,1.0774669368510212
basic,22,24,0,0,0,22,"[0, 16, 8, 22]",4,18,"[2, 3, 4, 6, 9, 10, 11, 13, 14, 15, 17, 23, 24, 25, 26, 27, 28, 29]",167.9398528,5474,1220,3,23,9,1.2531772310046492
basic,22,24,0,0,0,15,"[0, 16, 8, 22, 15]",5,16,"[3, 4, 6, 9, 10, 11, 13, 14, 17, 23, 24, 25, 26, 27, 28, 29]",146.7266494,6430,956,3,16,9,1.2813329946092564
basic,22,24,0,0,0,28,"[0, 16, 8, 22, 15, 28]",6,8,"[3, 4, 9, 11, 13, 23, 26, 27]",101.4497237,7859,1429,3,5,9,1.2060847818642253
basic,22,24,0,0,0,23,"[0, 16, 8, 22, 15, 28, 23]",7,3,"[9, 11, 27]",82.42342609,8623,764,3,1,9,1.2349355190066822
basic,22,24,0,0,0,11,"[0, 16, 8, 22, 15, 28, 23, 11]",8,2,"[9, 27]",55.49760206,9648,1025,2,0,9,1.2172586817191506
basic,22,24,0,0,1,27,"[0, 16, 8, 22, 15, 28, 23, 11, 27]",9,0,[],27.69472451,12249,2601,1,0,9,1.192247579330137
basic,22,24,0,1,1,27,"[0, 16, 8, 22, 15, 28, 23, 11, 27]",9,0,[],27.69472451,13581,1332,1,0,9,1.192247579330137
undo,23,11,0,0,0,0,[0],1,25,"[1, 2, 3, 4, 5, 6, 8, 9, 10, 11, 12, 13, 14, 15, 16, 17, 18, 19, 20, 22, 23, 25, 26, 27, 28]",300,132,-1,6,374,12,0.0
undo,23,11,0,0,0,18,"[0, 18]",2,21,"[1, 2, 4, 5, 6, 8, 9, 11, 12, 13, 14, 15, 16, 17, 19, 20, 22, 23, 25, 27, 28]",236.8493864,3189,3057,157,1477,11,1.0
undo,23,11,0,0,0,27,"[0, 18, 27]",3,19,"[1, 2, 4, 5, 6, 8, 9, 11, 12, 14, 15, 16, 17, 19, 20, 22, 23, 25, 28]",212.9956655,4439,1250,157,1315,11,1.060949579704323
undo,23,11,0,0,0,17,"[0, 18, 27, 17]",4,14,"[1, 2, 4, 5, 6, 8, 11, 12, 15, 19, 22, 23, 25, 28]",135.9177828,6196,1757,46,349,11,1.1156120043677304
undo,23,11,0,0,0,8,"[0, 18, 27, 17, 8]",5,11,"[1, 2, 5, 6, 11, 12, 15, 19, 22, 25, 28]",121.5999617,7660,1464,26,143,11,1.2285932943120847
undo,23,11,0,0,0,15,"[0, 18, 27, 17, 8, 15]",6,9,"[2, 5, 6, 11, 12, 19, 22, 25, 28]",108.1463377,9847,2187,24,54,11,1.223015425852291
undo,23,11,0,0,0,11,"[0, 18, 27, 17, 8, 15, 11]",7,6,"[2, 5, 12, 19, 22, 28]",90.03556742,10732,885,22,2,11,1.2111003833550413
undo,23,11,0,0,0,5,"[0, 18, 27, 17, 8, 15, 11, 5]",8,3,"[2, 22, 28]",54.80773752,12373,1641,5,1,11,1.5070858562662883
undo,23,11,0,0,0,28,"[0, 18, 27, 17, 8, 15, 11, 5, 28]",9,2,"[2, 22]",36.9191937,13773,1400,2,0,11,1.5224287982960607
undo,23,11,0,0,0,2,"[0, 18, 27, 17, 8, 15, 11, 5, 28, 2]",10,1,[22],26.28904788,15023,1250,1,0,11,1.5334969671993883
undo,23,11,0,0,1,22,"[0, 18, 27, 17, 8, 15, 11, 5, 28, 2, 22]",11,0,[],16.23917226,15879,856,1,0,11,1.5050924702228456
undo,23,11,0,1,1,22,"[0, 18, 27, 17, 8, 15, 11, 5, 28, 2, 22]",11,0,[],16.23917226,17132,1253,1,0,11,1.5050924702228456
undo,24,27,0,0,0,0,[0],1,26,"[1, 3, 5, 6, 7, 8, 9, 10, 11, 12, 13, 14, 15, 16, 17, 18, 19, 21, 22, 23, 24, 25, 26, 27, 28, 29]",300,164,-1,13,578,11,0.0
undo,24,27,0,0,0,15,"[0, 15]",2,24,"[1, 3, 5, 6, 7, 8, 9, 10, 11, 12, 13, 14, 16, 17, 18, 19, 21, 22, 23, 24, 25, 26, 27, 29]",263.7508621,2938,2774,6,219,11,1.0
undo,24,27,0,0,0,24,"[0, 15, 24]",3,20,"[1, 5, 6, 7, 8, 9, 10, 12, 13, 14, 16, 17, 18, 19, 21, 23, 25, 26, 27, 29]",246.5462115,4276,1338,6,130,11,1.130933077698322
undo,24,27,0,0,0,17,"[0, 15, 24, 17]",4,15,"[1, 6, 8, 10, 12, 13, 14, 16, 18, 19, 23, 25, 26, 27, 29]",229.9932662,8108,3832,4,60,11,1.1285538435963374
undo,24,27,0,0,0,12,"[0, 15, 24, 17, 12]",5,14,"[1, 6, 8, 10, 13, 14, 16, 18, 19, 23, 25, 26, 27, 29]",218.8129263,8979,871,2,32,11,1.2561880288755216
undo,24,27,0,0,0,10,"[0, 15, 24, 17, 12, 10]",6,11,"[1, 8, 13, 14, 18, 19, 23, 25, 26, 27, 29]",207.7675653,9991,1012,2,28,11,1.2228289337766665
undo,24,27,0,0,0,13,"[0, 15, 24, 17, 12, 10, 13]",7,9,"[1, 8, 14, 18, 19, 23, 26, 27, 29]",167.9178476,11070,1079,2,18,11,1.3421291994761178
undo,24,27,0,0,0,19,"[0, 15, 24, 17, 12, 10, 13, 19]",8,5,"[1, 8, 14, 23, 29]",131.6825057,16125,5055,2,6,11,1.294749956153846
undo,24,27,0,0,0,8,"[0, 15, 24, 17, 12, 10, 13, 19, 8]",9,3,"[14, 23, 29]",116.816437,17045,920,2,1,11,1.3554286578836865
undo,24,27,0,0,0,29,"[0, 15, 24, 17, 12, 10, 13, 19, 8, 29]",10,1,[14],57.61339652,18372,1327,1,0,11,1.248354519573802
undo,24,27,0,0,1,14,"[0, 15, 24, 17, 12, 10, 13, 19, 8, 29, 14]",11,0,[],13.31892734,19688,1316,1,0,11,1.562811097555156
undo,24,27,0,1,1,14,"[0, 15, 24, 17, 12, 10, 13, 19, 8, 29, 14]",11,0,[],13.31892734,20997,1309,1,0,11,1.562811097555156
undo,25,23,0,0,0,0,[0],1,28,"[1, 2, 3, 4, 5, 6, 7, 8, 9, 10, 11, 12, 13, 14, 15, 16, 17, 18, 19, 20, 21, 22, 23, 25, 26, 27, 28, 29]",300,147,-1,76,2626,10,0.0
undo,25,23,0,0,0,22,"[0, 22]",2,24,"[1, 2, 3, 5, 6, 7, 8, 9, 10, 11, 12, 13, 14, 15, 17, 18, 19, 20, 21, 23, 25, 26, 27, 29]",210.5013967,7770,7623,15,1362,10,1.0
undo,25,23,0,0,0,13,"[0, 22, 13]",3,14,"[1, 2, 5, 6, 7, 8, 9, 10, 12, 14, 18, 21, 27, 29]",168.3113504,8975,1205,14,522,10,1.1898173563652046
undo,25,23,0,0,0,12,"[0, 22, 13, 12]",4,11,"[1, 2, 6, 7, 9, 10, 14, 18, 21, 27, 29]",156.2283045,11005,2030,12,166,10,1.1727968780218219
undo,25,23,0,0,0,6,"[0, 22, 13, 12, 6]",5,8,"[2, 7, 9, 10, 14, 18, 27, 29]",126.5466603,11953,948,2,24,10,1.1544842845523764
undo,25,23,0,0,0,2,"[0, 22, 13, 12, 6, 2]",6,6,"[7, 9, 14, 18, 27, 29]",108.1075714,13046,1093,2,8,10,1.4062299368922424
undo,25,23,0,0,0,9,"[0, 22, 13, 12, 6, 2, 9]",7,4,"[7, 14, 27, 29]",95.06916658,14056,1010,1,3,10,1.5685676974894474
undo,25,23,0,0,0,14,"[0, 22, 13, 12, 6, 2, 9, 14]",8,3,"[7, 27, 29]",84.62886007,15106,1050,1,2,10,1.528647150775544
undo,25,23,0,0,0,29,"[0, 22, 13, 12, 6, 2, 9, 14, 29]",9,1,[7],37.19469517,17277,2171,1,0,10,1.7042299851162805
undo,25,23,0,0,1,7,"[0, 22, 13, 12, 6, 2, 9, 14, 29, 7]",10,0,[],13.11150601,18975,1698,1,0,10,1.7057367602759512
undo,25,23,0,1,1,7,"[0, 22, 13, 12, 6, 2, 9, 14, 29, 7]",10,0,[],13.11150601,20163,1188,1,0,10,1.7057367602759512
undo,26,21,0,0,0,0,[0],1,29,"[1, 2, 3, 4, 5, 6, 7, 8, 9, 10, 11, 12, 13, 14, 15, 16, 17, 18, 19, 20, 21, 22, 23, 24, 25, 26, 27, 28, 29]",300,147,-1,84,830,9,0.0
undo,26,21,0,0,0,21,"[0, 21]",2,22,"[1, 3, 4, 6, 8, 9, 10, 11, 12, 14, 15, 16, 17, 18, 20, 22, 23, 24, 25, 26, 27, 29]",210.1111798,2822,2675,1,69,9,1.0
undo,26,21,0,0,0,14,"[0, 21, 14]",3,15,"[1, 4, 6, 8, 9, 15, 16, 17, 18, 20, 22, 23, 24, 25, 29]",184.4986828,4708,1886,35,96,8,1.0083702391721483
undo,26,21,0,0,0,4,"[0, 21, 14, 4]",4,13,"[1, 8, 9, 15, 16, 17, 18, 20, 22, 23, 24, 25, 29]",170.3565472,9304,4596,20,39,8,1.0135821167776475
undo,26,21,0,0,0,23,"[0, 21, 14, 4, 23]",5,10,"[8, 15, 16, 17, 18, 20, 22, 24, 25, 29]",134.2317635,10373,1069,14,14,8,1.6740850510094318
undo,26,21,0,0,0,25,"[0, 21, 14, 4, 23, 25]",6,5,"[17, 18, 20, 22, 29]",90.90740543,11359,986,5,3,8,3.4955738644324623
undo,26,21,0,0,0,29,"[0, 21, 14, 4, 23, 25, 29]",7,2,"[18, 22]",45.68572921,13144,1785,2,0,8,3.001920993979745
undo,26,21,0,0,1,22,"[0, 21, 14, 4, 23, 25, 29, 22]",8,0,[],15.42023731,14339,1195,1,0,8,3.4609756589524965
undo,26,21,1,0,0,29,"[0, 21, 14, 4, 23, 25, 29]",7,2,"[18, 22]",45.68572921,16465,2126,2,0,8,3.001920993979745
undo,26,21,1,0,0,25,"[0, 21, 14, 4, 23, 25]",6,5,"[17, 18, 20, 22, 29]",90.90740543,16648,183,5,3,8,3.4955738644324623
undo,26,21,1,0,0,23,"[0, 21, 14, 4, 23]",5,10,"[8, 15, 16, 17, 18, 20, 22, 24, 25, 29]",134.2317635,16898,250,14,14,8,1.6740850510094318
undo,26,21,1,0,0,4,"[0, 21, 14, 4]",4,13,"[1, 8, 9, 15, 16, 17, 18, 20, 22, 23, 24, 25, 29]",170.3565472,17582,684,20,39,8,1.0135821167776475
undo,26,21,0,0,0,16,"[0, 21, 14, 4, 16]",5,7,"[8, 15, 17, 23, 24, 25, 29]",125.758341,19040,1458,4,6,8,1.0675217597413178
undo,26,21,0,0,0,8,"[0, 21, 14, 4, 16, 8]",6,3,"[15, 23, 24]",107.1572657,20427,1387,3,1,8,1.0643903127717425
undo,26,21,0,0,0,15,"[0, 21, 14, 4, 16, 8, 15]",7,2,"[23, 24]",82.15726573,22094,1667,2,0,8,1.29402645910376
undo,26,21,0,0,1,23,"[0, 21, 14, 4, 16, 8, 15, 23]",8,0,[],10.28933129,24677,2583,1,0,8,2.9257734162199216
undo,26,21,0,1,1,23,"[0, 21, 14, 4, 16, 8, 15, 23]",8,0,[],10.28933129,25148,471,1,0,8,2.9257734162199216
undo,27,32,0,0,0,0,[0],1,29,"[1, 2, 3, 4, 5, 6, 7, 8, 9, 10, 11, 12, 13, 14, 15, 16, 17, 18, 19, 20, 21, 22, 23, 24, 25, 26, 27, 28, 29]",300,147,-1,17,359,10,0.0
undo,27,32,0,0,0,19,"[0, 19]",2,28,"[1, 2, 3, 4, 5, 6, 7, 8, 9, 10, 11, 12, 13, 14, 15, 16, 17, 18, 20, 21, 22, 23, 24, 25, 26, 27, 28, 29]",283.5075775,2294,2147,16,294,10,1.0
undo,27,32,0,0,0,13,"[0, 19, 13]",3,24,"[2, 3, 4, 5, 6, 8, 9, 10, 11, 12, 14, 15, 16, 17, 18, 20, 21, 22, 23, 24, 25, 26, 27, 28]",260.3127505,6021,3727,14,227,10,1.0172874229878615
undo,27,32,0,0,0,15,"[0, 19, 13, 15]",4,18,"[2, 3, 5, 8, 9, 10, 11, 12, 16, 17, 20, 22, 23, 24, 25, 26, 27, 28]",177.4393531,7625,1604,9,116,10,1.435447391509833
undo,27,32,0,0,0,28,"[0, 19, 13, 15, 28]",5,17,"[2, 3, 5, 8, 9, 10, 11, 12, 16, 17, 20, 22, 23, 24, 25, 26, 27]",166.0375988,8473,848,9,70,10,1.3843701324937985
undo,27,32,0,0,0,12,"[0, 19, 13, 15, 28, 12]",6,14,"[2, 3, 5, 8, 9, 10, 11, 16, 17, 20, 22, 24, 26, 27]",147.0639329,9470,997,6,35,10,1.358372254952329
undo,27,32,0,0,0,16,"[0, 19, 13, 15, 28, 12, 16]",7,13,"[2, 3, 5, 8, 9, 10, 11, 17, 20, 22, 24, 26, 27]",131.411457,11305,1835,5,15,10,1.4356932930709845
undo,27,32,0,0,0,22,"[0, 19, 13, 15, 28, 12, 16, 22]",8,6,"[2, 8, 9, 17, 20, 27]",97.57360838,12690,1385,3,5,10,1.4335226411545752
undo,27,32,0,0,0,9,"[0, 19, 13, 15, 28, 12, 16, 22, 9]",9,3,"[2, 8, 20]",75.37000507,13855,1165,3,0,10,1.4837166378374758
undo,27,32,0,0,1,8,"[0, 19, 13, 15, 28, 12, 16, 22, 9, 8]",10,0,[],30.24794838,16907,3052,1,0,10,1.3767698817641267
undo,27,32,1,0,0,9,"[0, 19, 13, 15, 28, 12, 16, 22, 9]",9,3,"[2, 8, 20]",75.37000507,18682,1775,3,0,10,1.4837166378374758
undo,27,32,1,0,0,22,"[0, 19, 13, 15, 28, 12, 16, 22]",8,6,"[2, 8, 9, 17, 20, 27]",97.57360838,18897,215,3,5,10,1.4335226411545752
undo,27,32,1,0,0,16,"[0, 19, 13, 15, 28, 12, 16]",7,13,"[2, 3, 5, 8, 9, 10, 11, 17, 20, 22, 24, 26, 27]",131.411457,20631,1734,5,15,10,1.4356932930709845
undo,27,32,0,0,0,27,"[0, 19, 13, 15, 28, 12, 16, 27]",8,2,"[3, 11]",55.13564171,21871,1240,2,0,10,1.3380566026775955
undo,27,32,0,0,0,3,"[0, 19, 13, 15, 28, 12, 16, 27, 3]",9,1,[11],29.64054414,23690,1819,1,0,10,1.3269345554887129
undo,27,32,0,0,1,11,"[0, 19, 13, 15, 28, 12, 16, 27, 3, 11]",10,0,[],14.02004479,24940,1250,1,0,10,1.356452519014518
undo,27,32,0,1,1,11,"[0, 19, 13, 15, 28, 12, 16, 27, 3, 11]",10,0,[],14.02004479,25380,440,1,0,10,1.356452519014518
undo,28,20,0,0,0,0,[0],1,21,"[1, 2, 3, 4, 5, 6, 7, 8, 9, 12, 17, 18, 20, 21, 22, 23, 25, 26, 27, 28, 29]",300,214,-1,1,9,9,0.0
undo,28,20,0,0,0,1,"[0, 1]",2,14,"[3, 4, 5, 6, 8, 9, 12, 20, 21, 23, 26, 27, 28, 29]",197.3501096,2909,2695,1,9,8,1.0
undo,28,20,0,0,0,5,"[0, 1, 5]",3,12,"[4, 6, 8, 9, 12, 20, 21, 23, 26, 27, 28, 29]",160.675868,3946,1037,1,8,8,1.1088946720668915
undo,28,20,0,0,0,21,"[0, 1, 5, 21]",4,8,"[4, 6, 8, 9, 20, 23, 27, 28]",115.675868,5190,1244,1,6,8,1.0805828994591202
undo,28,20,0,0,0,8,"[0, 1, 5, 21, 8]",5,5,"[6, 9, 23, 27, 28]",98.21161876,6326,1136,1,5,8,1.0976815296746363
undo,28,20,0,0,0,23,"[0, 1, 5, 21, 8, 23]",6,3,"[6, 9, 27]",53.52381281,8192,1866,1,2,8,1.0820667611140062
undo,28,20,0,0,0,9,"[0, 1, 5, 21, 8, 23, 9]",7,1,[6],34.3144401,9318,1126,1,0,8,1.0771429624373048
undo,28,20,0,0,1,6,"[0, 1, 5, 21, 8, 23, 9, 6]",8,0,[],11.29271124,11080,1762,1,0,8,1.0892675954154076
undo,28,20,0,1,1,6,"[0, 1, 5, 21, 8, 23, 9, 6]",8,0,[],11.29271124,11697,617,1,0,8,1.0892675954154076
undo,29,40,0,0,0,0,[0],1,29,"[1, 2, 3, 4, 5, 6, 7, 8, 9, 10, 11, 12, 13, 14, 15, 16, 17, 18, 19, 20, 21, 22, 23, 24, 25, 26, 27, 28, 29]",300,131,-1,8,191,9,0.0
undo,29,40,0,0,0,1,"[0, 1]",2,18,"[2, 5, 6, 7, 8, 9, 10, 11, 13, 15, 17, 18, 19, 21, 22, 23, 27, 29]",247.8463808,2589,2458,4,80,9,1.0
undo,29,40,0,0,0,6,"[0, 1, 6]",3,17,"[2, 5, 7, 8, 9, 10, 11, 13, 15, 17, 18, 19, 21, 22, 23, 27, 29]",227.7466295,3480,891,4,74,9,1.0459427008232034
undo,29,40,0,0,0,9,"[0, 1, 6, 9]",4,10,"[2, 5, 8, 11, 18, 19, 21, 22, 23, 27]",159.146338,5556,2076,17,39,8,1.142098432552584
undo,29,40,0,0,0,18,"[0, 1, 6, 9, 18]",5,9,"[2, 5, 8, 11, 19, 21, 22, 23, 27]",142.5933926,8259,2703,13,14,8,1.3288108654802917
undo,29,40,0,0,0,23,"[0, 1, 6, 9, 18, 23]",6,6,"[2, 5, 8, 19, 21, 22]",108.5933926,11273,3014,6,4,8,2.0180513009829646
undo,29,40,0,0,0,19,"[0, 1, 6, 9, 18, 23, 19]",7,4,"[2, 5, 8, 22]",76.640302,12521,1248,4,0,8,2.1771771191471494
undo,29,40,0,0,1,5,"[0, 1, 6, 9, 18, 23, 19, 5]",8,0,[],38.56143647,15047,2526,1,0,8,2.1257978181562813
undo,29,40,0,1,1,5,"[0, 1, 6, 9, 18, 23, 19, 5]",8,0,[],38.56143647,21914,6867,1,0,8,2.1257978181562813
undo,30,24,0,0,0,0,[0],1,29,"[1, 2, 3, 4, 5, 6, 7, 8, 9, 10, 11, 12, 13, 14, 15, 16, 17, 18, 19, 20, 21, 22, 23, 24, 25, 26, 27, 28, 29]",300,146,-1,4,76,10,0.0
undo,30,24,0,0,0,14,"[0, 14]",2,27,"[1, 2, 3, 4, 5, 6, 8, 9, 10, 11, 12, 13, 15, 16, 17, 18, 19, 20, 21, 22, 23, 24, 25, 26, 27, 28, 29]",278.0455016,6838,6692,4,54,10,1.0
undo,30,24,0,0,0,16,"[0, 14, 16]",3,25,"[2, 3, 4, 5, 6, 8, 9, 10, 11, 12, 13, 15, 17, 18, 19, 20, 21, 22, 23, 24, 25, 26, 27, 28, 29]",188.9949542,9227,2389,4,31,10,1.238291113657358
undo,30,24,0,0,0,8,"[0, 14, 16, 8]",4,17,"[2, 3, 4, 6, 9, 10, 11, 13, 15, 20, 22, 23, 24, 26, 27, 28, 29]",159.9949542,10590,1363,2,13,10,1.2714603293172921
undo,30,24,0,0,0,22,"[0, 14, 16, 8, 22]",5,13,"[3, 4, 6, 9, 10, 11, 15, 23, 24, 26, 27, 28, 29]",146.5785463,12605,2015,2,10,10,1.4558841300797367
undo,30,24,0,0,0,15,"[0, 14, 16, 8, 22, 15]",6,11,"[3, 4, 6, 9, 10, 11, 23, 26, 27, 28, 29]",125.3653429,13538,933,2,8,10,1.459909027032803
undo,30,24,0,0,0,28,"[0, 14, 16, 8, 22, 15, 28]",7,5,"[4, 9, 11, 23, 27]",80.08841717,14907,1369,2,5,10,1.3358430839259279
undo,30,24,0,0,0,23,"[0, 14, 16, 8, 22, 15, 28, 23]",8,3,"[9, 11, 27]",61.06211957,16107,1200,2,2,10,1.3561794364003306
undo,30,24,0,0,0,11,"[0, 14, 16, 8, 22, 15, 28, 23, 11]",9,2,"[9, 27]",34.13629554,17137,1030,2,0,10,1.323606251450204
undo,30,24,0,0,1,27,"[0, 14, 16, 8, 22, 15, 28, 23, 11, 27]",10,0,[],6.33341799,18188,1051,1,0,10,1.2857748381905127
undo,30,24,0,1,1,27,"[0, 14, 16, 8, 22, 15, 28, 23, 11, 27]",10,0,[],6.33341799,18913,725,1,0,10,1.2857748381905127
undo,31,44,0,0,0,0,[0],1,29,"[1, 2, 3, 4, 5, 6, 7, 8, 9, 10, 11, 12, 13, 14, 15, 16, 17, 18, 19, 20, 21, 22, 23, 24, 25, 26, 27, 28, 29]",300,150,-1,13,126,7,0.0
undo,31,44,0,0,0,8,"[0, 8]",2,17,"[1, 4, 5, 7, 9, 10, 11, 12, 13, 14, 15, 20, 21, 23, 24, 25, 27]",145.7923478,3669,3519,1,10,7,1.0
undo,31,44,0,0,0,20,"[0, 8, 20]",3,16,"[1, 4, 5, 7, 9, 10, 11, 12, 13, 14, 15, 21, 23, 24, 25, 27]",133.7093018,6304,2635,1,9,7,1.0890794433668698
undo,31,44,0,0,0,9,"[0, 8, 20, 9]",4,7,"[4, 7, 11, 12, 14, 23, 24]",76.43801756,8028,1724,1,6,7,1.40892325509949
undo,31,44,0,0,0,4,"[0, 8, 20, 9, 4]",5,4,"[7, 12, 23, 24]",56.74030196,9271,1243,1,3,7,1.3849770570803555
undo,31,44,0,0,0,7,"[0, 8, 20, 9, 4, 7]",6,1,[23],25.72417712,10065,794,1,0,7,1.3274380931474288
undo,31,44,0,0,1,23,"[0, 8, 20, 9, 4, 7, 23]",7,0,[],6.619203947,11283,1218,1,0,7,1.3395824779823196
undo,31,44,0,1,1,23,"[0, 8, 20, 9, 4, 7, 23]",7,0,[],6.619203947,13097,1814,1,0,7,1.3395824779823196
undo,32,28,0,0,0,0,[0],1,27,"[1, 2, 3, 4, 5, 6, 7, 8, 9, 10, 11, 12, 13, 14, 15, 16, 17, 18, 19, 20, 22, 23, 25, 26, 27, 28, 29]",300,180,-1,2,96,9,0.0
undo,32,28,0,0,0,3,"[0, 3]",2,26,"[1, 2, 4, 5, 6, 7, 8, 9, 10, 11, 12, 13, 14, 15, 16, 17, 18, 19, 20, 22, 23, 25, 26, 27, 28, 29]",251.0817008,5426,5246,1,64,9,1.0
undo,32,28,0,0,0,19,"[0, 3, 19]",3,16,"[2, 4, 5, 7, 8, 9, 11, 12, 13, 14, 17, 18, 25, 26, 27, 28]",117.395501,6707,1281,1,25,8,1.0001110274483707
undo,32,28,0,0,0,7,"[0, 3, 19, 7]",4,8,"[2, 11, 12, 13, 14, 17, 18, 26]",89.66465178,8095,1388,1,8,8,1.073754623614866
undo,32,28,0,0,0,12,"[0, 3, 19, 7, 12]",5,5,"[2, 13, 14, 17, 18]",76.51170534,9042,947,1,3,8,1.08477960812797
undo,32,28,0,0,0,13,"[0, 3, 19, 7, 12, 13]",6,2,"[14, 18]",59.30705481,10255,1213,1,1,8,1.2632233377567077
undo,32,28,0,0,0,18,"[0, 3, 19, 7, 12, 13, 18]",7,1,[14],34.89394358,11577,1322,1,0,8,1.5935296278628661
undo,32,28,0,0,1,14,"[0, 3, 19, 7, 12, 13, 18, 14]",8,0,[],9.39884601,12708,1131,1,0,8,1.910485787708702
undo,32,28,0,1,1,14,"[0, 3, 19, 7, 12, 13, 18, 14]",8,0,[],9.39884601,13347,639,1,0,8,1.910485787708702
undo,33,0,0,0,0,0,[0],1,27,"[2, 3, 4, 5, 6, 7, 8, 9, 10, 11, 12, 13, 14, 15, 16, 17, 19, 20, 21, 22, 23, 24, 25, 26, 27, 28, 29]",300,147,-1,104,1136,9,0.0
undo,33,0,0,0,0,5,"[0, 5]",2,24,"[2, 3, 4, 7, 8, 9, 11, 12, 13, 14, 15, 16, 17, 19, 20, 21, 22, 23, 24, 25, 26, 27, 28, 29]",164.5156836,3524,3377,5,112,9,1.0
undo,33,0,0,0,0,26,"[0, 5, 26]",3,19,"[3, 4, 7, 8, 9, 11, 12, 13, 14, 15, 17, 19, 20, 21, 22, 23, 24, 25, 28]",129.0755933,4897,1373,1,27,9,1.0579955168289483
undo,33,0,0,0,0,4,"[0, 5, 26, 4]",4,15,"[3, 7, 8, 9, 11, 12, 14, 15, 17, 19, 20, 21, 23, 24, 28]",117.0339987,5990,1093,1,18,9,1.168807644221424
undo,33,0,0,0,0,24,"[0, 5, 26, 4, 24]",5,12,"[3, 7, 8, 9, 11, 12, 15, 17, 19, 20, 23, 28]",105.6322444,6995,1005,1,16,9,1.1650490498282802
undo,33,0,0,0,0,15,"[0, 5, 26, 4, 24, 15]",6,8,"[3, 7, 8, 9, 11, 12, 17, 19]",82.28700938,8290,1295,1,8,9,1.151743263817517
undo,33,0,0,0,0,8,"[0, 5, 26, 4, 24, 15, 8]",7,3,"[3, 7, 19]",43.17179495,9705,1415,3,0,8,1.154473556189965
undo,33,0,0,0,1,7,"[0, 5, 26, 4, 24, 15, 8, 7]",8,0,[],24.06682178,11771,2066,1,0,8,1.345951450237984
undo,33,0,1,0,0,8,"[0, 5, 26, 4, 24, 15, 8]",7,3,"[3, 7, 19]",43.17179495,14882,3111,3,0,8,1.154473556189965
undo,33,0,1,0,0,15,"[0, 5, 26, 4, 24, 15]",6,8,"[3, 7, 8, 9, 11, 12, 17, 19]",82.28700938,15248,366,1,8,9,1.151743263817517
undo,33,0,0,0,0,7,"[0, 5, 26, 4, 24, 15, 7]",7,4,"[3, 8, 17, 19]",51.22256025,16958,1710,1,3,9,1.2134907370618446
undo,33,0,0,0,1,3,"[0, 5, 26, 4, 24, 15, 7, 3]",8,0,[],27.13937109,20176,3218,1,0,8,1.2588131185228986
undo,33,0,0,1,1,3,"[0, 5, 26, 4, 24, 15, 7, 3]",8,0,[],27.13937109,21314,1138,1,0,8,1.2588131185228986
undo,34,26,0,0,0,0,[0],1,29,"[1, 2, 3, 4, 5, 6, 7, 8, 9, 10, 11, 12, 13, 14, 15, 16, 17, 18, 19, 20, 21, 22, 23, 24, 25, 26, 27, 28, 29]",300,147,-1,9,226,9,0.0
undo,34,26,0,0,0,10,"[0, 10]",2,6,"[4, 6, 14, 16, 17, 29]",138.1822012,2787,2640,9,66,7,1.0
undo,34,26,0,0,0,6,"[0, 10, 6]",3,5,"[4, 14, 16, 17, 29]",108.9076389,4080,1293,8,23,7,1.1897813099332413
undo,34,26,0,0,0,14,"[0, 10, 6, 14]",4,4,"[4, 16, 17, 29]",87.88384285,5327,1247,4,6,7,1.3162481558218453
undo,34,26,0,0,0,17,"[0, 10, 6, 14, 17]",5,3,"[4, 16, 29]",65.41163779,6424,1097,3,1,7,1.6510075497064465
undo,34,26,0,0,0,4,"[0, 10, 6, 14, 17, 4]",6,1,[29],44.31661468,7795,1371,1,0,7,2.1095586782058087
undo,34,26,0,0,1,29,"[0, 10, 6, 14, 17, 4, 29]",7,0,[],20.31661468,9861,2066,1,0,7,2.288952413143475
undo,34,26,0,1,1,29,"[0, 10, 6, 14, 17, 4, 29]",7,0,[],20.31661468,10613,752,1,0,7,2.288952413143475
undo,35,17,0,0,0,0,[0],1,28,"[1, 2, 3, 4, 5, 6, 7, 8, 9, 10, 11, 12, 13, 14, 15, 16, 17, 18, 19, 20, 22, 23, 24, 25, 26, 27, 28, 29]",300,134,-1,2,73,8,0.0
undo,35,17,0,0,0,9,"[0, 9]",2,25,"[1, 2, 3, 5, 6, 7, 8, 10, 11, 12, 14, 15, 16, 17, 18, 19, 20, 22, 23, 24, 25, 26, 27, 28, 29]",210.5293344,3423,3289,1,34,8,1.0
undo,35,17,0,0,0,16,"[0, 9, 16]",3,21,"[1, 2, 3, 5, 7, 8, 10, 11, 12, 14, 17, 18, 19, 20, 22, 23, 25, 26, 27, 28, 29]",197.1876704,4674,1251,1,26,8,1.173103464220352
undo,35,17,0,0,0,2,"[0, 9, 16, 2]",4,18,"[1, 3, 5, 7, 8, 10, 11, 12, 14, 17, 18, 19, 23, 25, 26, 27, 28, 29]",181.0631549,6831,2157,1,23,8,1.14825089247282
undo,35,17,0,0,0,17,"[0, 9, 16, 2, 17]",5,7,"[7, 8, 12, 14, 26, 27, 29]",142.7356191,7916,1085,4,5,7,1.4896040699768547
undo,35,17,0,0,0,8,"[0, 9, 16, 2, 17, 8]",6,3,"[7, 12, 27]",104.5256727,9088,1172,3,0,7,1.4604726966175894
undo,35,17,0,0,1,27,"[0, 9, 16, 2, 17, 8, 27]",7,0,[],21.88790895,11480,2392,1,0,7,1.2949460667276491
undo,35,17,0,1,1,27,"[0, 9, 16, 2, 17, 8, 27]",7,0,[],21.88790895,12914,1434,1,0,7,1.2949460667276491
undo,36,13,0,0,0,0,[0],1,29,"[1, 2, 3, 4, 5, 6, 7, 8, 9, 10, 11, 12, 13, 14, 15, 16, 17, 18, 19, 20, 21, 22, 23, 24, 25, 26, 27, 28, 29]",300,180,-1,60,2676,11,0.0
undo,36,13,0,0,0,24,"[0, 24]",2,28,"[1, 2, 3, 4, 5, 6, 7, 8, 9, 10, 11, 12, 13, 14, 15, 16, 17, 18, 19, 20, 21, 22, 23, 25, 26, 27, 28, 29]",288.8196601,2492,2312,16,1444,11,1.0
undo,36,13,0,0,0,28,"[0, 24, 28]",3,23,"[1, 2, 3, 4, 6, 7, 8, 9, 10, 11, 12, 13, 15, 16, 17, 19, 20, 21, 22, 23, 26, 27, 29]",222.5324064,4012,1520,8,243,11,1.0513810491680837
undo,36,13,0,0,0,2,"[0, 24, 28, 2]",4,19,"[1, 3, 4, 6, 7, 9, 11, 12, 13, 15, 16, 17, 19, 20, 21, 23, 26, 27, 29]",184.889346,6054,2042,7,110,11,1.050374132001543
undo,36,13,0,0,0,29,"[0, 24, 28, 2, 29]",5,18,"[1, 3, 4, 6, 7, 9, 11, 12, 13, 15, 16, 17, 19, 20, 21, 23, 26, 27]",173.1846461,7289,1235,7,85,11,1.1393409619120594
undo,36,13,0,0,0,7,"[0, 24, 28, 2, 29, 7]",6,17,"[1, 3, 4, 6, 9, 11, 12, 13, 15, 16, 17, 19, 20, 21, 23, 26, 27]",157.9203086,8236,947,5,45,11,1.349777315111579
undo,36,13,0,0,0,26,"[0, 24, 28, 2, 29, 7, 26]",7,16,"[1, 3, 4, 6, 9, 11, 12, 13, 15, 16, 17, 19, 20, 21, 23, 27]",147.480002,10338,2102,5,25,11,1.5942082773824946
undo,36,13,0,0,0,6,"[0, 24, 28, 2, 29, 7, 26, 6]",8,12,"[1, 3, 4, 11, 13, 15, 16, 17, 19, 20, 23, 27]",127.3802508,13078,2740,4,12,11,1.5898347940840756
undo,36,13,0,0,0,16,"[0, 24, 28, 2, 29, 7, 26, 6, 16]",9,3,"[3, 20, 23]",53.82754861,15954,2876,1,2,11,2.6743660300373904
undo,36,13,0,0,0,3,"[0, 24, 28, 2, 29, 7, 26, 6, 16, 3]",10,1,[20],25.3846233,17489,1535,1,0,11,2.696717621944423
undo,36,13,0,0,1,20,"[0, 24, 28, 2, 29, 7, 26, 6, 16, 3, 20]",11,0,[],6.358325711,18512,1023,1,0,11,2.6690286409584245
undo,36,13,0,1,1,20,"[0, 24, 28, 2, 29, 7, 26, 6, 16, 3, 20]",11,0,[],6.358325711,19363,851,1,0,11,2.6690286409584245
undo,37,38,0,0,0,0,[0],1,29,"[1, 2, 3, 4, 5, 6, 7, 8, 9, 10, 11, 12, 13, 14, 15, 16, 17, 18, 19, 20, 21, 22, 23, 24, 25, 26, 27, 28, 29]",300,145,-1,33,506,9,0.0
undo,37,38,0,0,0,19,"[0, 19]",2,23,"[3, 4, 5, 6, 7, 8, 9, 11, 13, 14, 15, 16, 17, 18, 20, 22, 23, 24, 25, 26, 27, 28, 29]",219.5015528,3101,2956,6,61,9,1.0
undo,37,38,0,0,0,17,"[0, 19, 17]",3,21,"[3, 4, 5, 6, 7, 9, 11, 13, 14, 15, 16, 18, 20, 22, 23, 24, 25, 26, 27, 28, 29]",198.1239945,5174,2073,6,53,9,1.571793785769489
undo,37,38,0,0,0,20,"[0, 19, 17, 20]",4,17,"[3, 4, 5, 6, 7, 11, 13, 14, 15, 16, 18, 22, 24, 25, 26, 27, 28]",174.3542658,6490,1316,6,44,9,2.333182710277297
undo,37,38,0,0,0,13,"[0, 19, 17, 20, 13]",5,9,"[4, 11, 15, 16, 18, 24, 26, 27, 28]",125.0998244,7723,1233,1,11,9,1.7893595974504246
undo,37,38,0,0,0,4,"[0, 19, 17, 20, 13, 4]",6,6,"[11, 15, 16, 24, 26, 28]",93.69918748,8935,1212,1,6,9,2.942354535547757
undo,37,38,0,0,0,15,"[0, 19, 17, 20, 13, 4, 15]",7,4,"[11, 16, 26, 28]",67.69918748,10837,1902,1,3,9,3.165907365359093
undo,37,38,0,0,1,16,"[0, 19, 17, 20, 13, 4, 15, 16]",8,0,[],26.08188338,12837,2000,1,0,8,2.5034412435406455
undo,37,38,0,1,1,16,"[0, 19, 17, 20, 13, 4, 15, 16]",8,0,[],26.08188338,15494,2657,1,0,8,2.5034412435406455
undo,38,36,0,0,0,0,[0],1,24,"[2, 4, 5, 6, 7, 8, 9, 10, 12, 13, 14, 15, 16, 17, 18, 19, 20, 22, 23, 25, 26, 27, 28, 29]",300,147,-1,2,200,10,0.0
undo,38,36,0,0,0,18,"[0, 18]",2,21,"[2, 4, 5, 6, 7, 8, 9, 10, 12, 13, 14, 16, 17, 19, 22, 23, 25, 26, 27, 28, 29]",279.6039219,3417,3270,2,110,10,1.0
undo,38,36,0,0,0,16,"[0, 18, 16]",3,9,"[2, 9, 10, 12, 13, 17, 19, 23, 25]",169.581197,4823,1406,4,33,9,1.2218591943452424
undo,38,36,0,0,0,17,"[0, 18, 16, 17]",4,7,"[2, 9, 10, 12, 13, 19, 25]",141.2615925,6108,1285,4,21,9,1.6795129314662942
undo,38,36,0,0,0,9,"[0, 18, 16, 17, 9]",5,5,"[2, 12, 13, 19, 25]",115.012783,7063,955,3,6,9,2.6784437443596194
undo,38,36,0,0,0,19,"[0, 18, 16, 17, 9, 19]",6,4,"[2, 12, 13, 25]",99.88003706,8391,1328,3,3,9,2.5963344600994773
undo,38,36,0,0,0,2,"[0, 18, 16, 17, 9, 19, 2]",7,2,"[13, 25]",62.75861467,9570,1179,2,0,9,2.100797884988348
undo,38,36,0,0,0,25,"[0, 18, 16, 17, 9, 19, 2, 25]",8,1,[13],37.75861467,10508,938,1,0,9,2.290514334927331
undo,38,36,0,0,1,13,"[0, 18, 16, 17, 9, 19, 2, 25, 13]",9,0,[],17.16735439,12941,2433,1,0,9,2.883646365994176
undo,38,36,0,1,1,13,"[0, 18, 16, 17, 9, 19, 2, 25, 13]",9,0,[],17.16735439,13330,389,1,0,9,2.883646365994176
undo,39,37,0,0,0,0,[0],1,29,"[1, 2, 3, 4, 5, 6, 7, 8, 9, 10, 11, 12, 13, 14, 15, 16, 17, 18, 19, 20, 21, 22, 23, 24, 25, 26, 27, 28, 29]",300,151,-1,6,168,10,0.0
undo,39,37,0,0,0,18,"[0, 18]",2,19,"[1, 2, 4, 6, 7, 9, 10, 12, 14, 15, 17, 19, 20, 21, 22, 23, 26, 28, 29]",202.4090168,4475,4324,6,89,10,1.0
undo,39,37,0,0,0,7,"[0, 18, 7]",3,12,"[1, 2, 4, 9, 15, 17, 19, 20, 21, 22, 26, 29]",175.2428614,5572,1097,6,53,10,1.0413073512834488
undo,39,37,0,0,0,22,"[0, 18, 7, 22]",4,8,"[1, 2, 4, 15, 19, 20, 21, 26]",125.2428614,6903,1331,6,29,10,1.0730792320325544
undo,39,37,0,0,0,4,"[0, 18, 7, 22, 4]",5,7,"[1, 2, 15, 19, 20, 21, 26]",100.2428614,8124,1221,4,16,10,1.2290245562206235
undo,39,37,0,0,0,2,"[0, 18, 7, 22, 4, 2]",6,5,"[1, 15, 19, 20, 21]",88.84110714,9557,1433,4,7,10,1.3968113858365216
undo,39,37,0,0,0,1,"[0, 18, 7, 22, 4, 2, 1]",7,4,"[15, 19, 20, 21]",71.63645661,10843,1286,4,3,10,1.4424239294761476
undo,39,37,0,0,0,15,"[0, 18, 7, 22, 4, 2, 1, 15]",8,2,"[20, 21]",31.67397421,13436,2593,2,0,10,1.612564167414217
undo,39,37,0,0,0,20,"[0, 18, 7, 22, 4, 2, 1, 15, 20]",9,1,[21],14.67397421,15562,2126,1,0,10,1.9034852470814607
undo,39,37,0,0,1,21,"[0, 18, 7, 22, 4, 2, 1, 15, 20, 21]",10,0,[],0.251769103,16986,1424,1,0,10,1.9314492588202221
undo,39,37,0,1,1,21,"[0, 18, 7, 22, 4, 2, 1, 15, 20, 21]",10,0,[],0.251769103,17864,878,1,0,10,1.9314492588202221
undo,40,33,0,0,0,0,[0],1,23,"[1, 2, 5, 7, 8, 11, 12, 13, 14, 15, 16, 17, 18, 19, 20, 21, 23, 24, 25, 26, 27, 28, 29]",300,148,-1,5,108,9,0.0
undo,40,33,0,0,0,8,"[0, 8]",2,22,"[1, 2, 5, 7, 11, 12, 13, 14, 15, 16, 17, 18, 19, 20, 21, 23, 24, 25, 26, 27, 28, 29]",265.8679037,2065,1917,5,87,9,1.0
undo,40,33,0,0,0,21,"[0, 8, 21]",3,16,"[2, 5, 7, 11, 13, 14, 16, 17, 18, 19, 20, 24, 26, 27, 28, 29]",166.0430571,3420,1355,5,80,9,1.0670557763739492
undo,40,33,0,0,0,13,"[0, 8, 21, 13]",4,12,"[2, 7, 11, 14, 16, 17, 18, 19, 20, 24, 26, 29]",139.6422995,5119,1699,4,54,9,1.0555103820910288
undo,40,33,0,0,0,19,"[0, 8, 21, 13, 19]",5,10,"[7, 11, 14, 16, 17, 18, 20, 24, 26, 29]",114.1472019,6260,1141,3,19,9,1.1090798607799486
undo,40,33,0,0,0,7,"[0, 8, 21, 13, 19, 7]",6,5,"[14, 18, 24, 26, 29]",68.52922302,8424,2164,1,4,9,1.086202642130009
undo,40,33,0,0,0,14,"[0, 8, 21, 13, 19, 7, 14]",7,3,"[24, 26, 29]",53.66315427,10644,2220,1,2,9,1.1354822367616264
undo,40,33,0,0,0,26,"[0, 8, 21, 13, 19, 7, 14, 26]",8,1,[29],41.01404363,12036,1392,1,0,9,1.144734735418919
undo,40,33,0,0,1,29,"[0, 8, 21, 13, 19, 7, 14, 26, 29]",9,0,[],13.12139227,14508,2472,1,0,9,1.3638482940300902
undo,40,33,0,1,1,29,"[0, 8, 21, 13, 19, 7, 14, 26, 29]",9,0,[],13.12139227,15463,955,1,0,9,1.3638482940300902
undo,41,8,0,0,0,0,[0],1,29,"[1, 2, 3, 4, 5, 6, 7, 8, 9, 10, 11, 12, 13, 14, 15, 16, 17, 18, 19, 20, 21, 22, 23, 24, 25, 26, 27, 28, 29]",300,147,-1,10,149,9,0.0
undo,41,8,0,0,0,5,"[0, 5]",2,28,"[1, 2, 3, 4, 6, 7, 8, 9, 10, 11, 12, 13, 14, 15, 16, 17, 18, 19, 20, 21, 22, 23, 24, 25, 26, 27, 28, 29]",254.5137383,1991,1844,10,100,9,1.0
undo,41,8,0,0,0,25,"[0, 5, 25]",3,20,"[1, 2, 3, 4, 6, 11, 12, 14, 15, 16, 17, 18, 19, 20, 21, 22, 23, 24, 28, 29]",215.3091468,3422,1431,4,42,9,1.2272747879909065
undo,41,8,0,0,0,14,"[0, 5, 25, 14]",4,16,"[1, 3, 4, 6, 11, 15, 16, 17, 18, 19, 20, 21, 22, 23, 24, 28]",170.2092576,5825,2403,1,13,9,1.5190857385933465
undo,41,8,0,0,0,17,"[0, 5, 25, 14, 17]",5,9,"[1, 4, 11, 15, 16, 18, 23, 24, 28]",133.1957466,7328,1503,1,9,9,1.5271682935559303
undo,41,8,0,0,0,11,"[0, 5, 25, 14, 17, 11]",6,5,"[15, 16, 18, 24, 28]",108.01639,8537,1209,1,6,9,1.4664212485560129
undo,41,8,0,0,0,24,"[0, 5, 25, 14, 17, 11, 24]",7,2,"[15, 16]",70.80080183,9475,938,1,1,9,1.3920548417170795
undo,41,8,0,0,0,15,"[0, 5, 25, 14, 17, 11, 24, 15]",8,1,[16],54.03774722,10639,1164,1,0,9,1.4585932832823736
undo,41,8,0,1,0,15,"[0, 5, 25, 14, 17, 11, 24, 15]",8,1,[16],54.03774722,12513,1874,1,0,9,1.4585932832823736
undo,42,9,0,0,0,0,[0],1,27,"[1, 3, 4, 5, 6, 7, 8, 9, 10, 11, 13, 14, 15, 16, 17, 18, 19, 20, 21, 22, 23, 24, 25, 26, 27, 28, 29]",300,147,-1,2,182,10,0.0
undo,42,9,0,0,0,27,"[0, 27]",2,18,"[3, 4, 7, 8, 9, 10, 11, 16, 17, 18, 19, 20, 21, 22, 23, 25, 26, 28]",246.3996269,5492,5345,6,149,9,1.0
undo,42,9,0,0,0,25,"[0, 27, 25]",3,16,"[3, 4, 7, 8, 9, 10, 11, 17, 18, 19, 20, 21, 22, 23, 26, 28]",210.4969807,6738,1246,6,109,9,3.7164105930635247
undo,42,9,0,0,0,9,"[0, 27, 25, 9]",4,11,"[3, 7, 8, 10, 18, 19, 20, 21, 23, 26, 28]",120.4469946,7777,1039,1,9,9,2.4112481286655725
undo,42,9,0,0,0,23,"[0, 27, 25, 9, 23]",5,7,"[7, 8, 10, 20, 21, 26, 28]",98.08631483,9268,1491,1,8,9,3.391233045383985
undo,42,9,0,0,0,8,"[0, 27, 25, 9, 23, 8]",6,5,"[10, 20, 21, 26, 28]",76.61540428,10850,1582,1,4,9,3.5023758478206197
undo,42,9,0,0,0,28,"[0, 27, 25, 9, 23, 8, 28]",7,4,"[10, 20, 21, 26]",65.79875045,12275,1425,1,3,9,3.153099791971334
undo,42,9,0,0,0,21,"[0, 27, 25, 9, 23, 8, 28, 21]",8,1,[20],12.79875045,14324,2049,1,0,9,2.422970703078624
undo,42,9,0,0,1,20,"[0, 27, 25, 9, 23, 8, 28, 21, 20]",9,0,[],0.715704478,15578,1254,1,0,9,2.363098075692772
undo,42,9,0,1,1,20,"[0, 27, 25, 9, 23, 8, 28, 21, 20]",9,0,[],0.715704478,16413,835,1,0,9,2.363098075692772
undo,43,3,0,0,0,0,[0],1,29,"[1, 2, 3, 4, 5, 6, 7, 8, 9, 10, 11, 12, 13, 14, 15, 16, 17, 18, 19, 20, 21, 22, 23, 24, 25, 26, 27, 28, 29]",300,134,-1,34,427,10,0.0
undo,43,3,0,0,0,17,"[0, 17]",2,16,"[3, 4, 7, 8, 10, 12, 14, 15, 16, 19, 20, 21, 22, 24, 26, 27]",197.6965299,4015,3881,2,27,9,1.0
undo,43,3,0,0,0,20,"[0, 17, 20]",3,13,"[3, 4, 7, 8, 10, 14, 15, 16, 19, 21, 22, 24, 27]",185.0474192,4909,894,2,24,9,1.0153332121237257
undo,43,3,0,0,0,3,"[0, 17, 20, 3]",4,10,"[4, 7, 8, 10, 14, 15, 16, 19, 21, 24]",164.6513412,5979,1070,2,22,9,1.0819240770773468
undo,43,3,0,0,0,19,"[0, 17, 20, 3, 19]",5,6,"[4, 8, 10, 14, 21, 24]",127.3150318,8275,2296,2,11,9,1.1701070532957258
undo,43,3,0,0,0,21,"[0, 17, 20, 3, 19, 21]",6,5,"[4, 8, 10, 14, 24]",115.1084762,11061,2786,2,6,9,1.202395500952127
undo,43,3,0,0,0,14,"[0, 17, 20, 3, 19, 21, 14]",7,4,"[4, 8, 10, 24]",88.20122806,14205,3144,2,2,9,1.6456130302761207
undo,43,3,0,0,0,24,"[0, 17, 20, 3, 19, 21, 14, 24]",8,1,[8],17.08864127,15584,1379,1,0,9,4.806859660680286
undo,43,3,0,0,1,8,"[0, 17, 20, 3, 19, 21, 14, 24, 8]",9,0,[],4.923116212,16592,1008,1,0,9,4.915218144486606
undo,43,3,0,1,1,8,"[0, 17, 20, 3, 19, 21, 14, 24, 8]",9,0,[],4.923116212,17416,824,1,0,9,4.915218144486606
undo,44,45,0,0,0,0,[0],1,24,"[1, 2, 3, 4, 5, 6, 7, 9, 10, 11, 12, 14, 15, 16, 17, 19, 20, 21, 22, 23, 24, 25, 27, 29]",300,180,-1,6,248,10,0.0
undo,44,45,0,0,0,15,"[0, 15]",2,23,"[1, 2, 3, 4, 5, 6, 7, 9, 10, 11, 12, 14, 16, 17, 19, 20, 21, 22, 23, 24, 25, 27, 29]",253.9022777,3320,3140,5,207,10,1.0
undo,44,45,0,0,0,23,"[0, 15, 23]",3,22,"[1, 2, 3, 4, 5, 6, 7, 9, 10, 11, 12, 14, 16, 17, 19, 20, 21, 22, 24, 25, 27, 29]",230.3014303,4603,1283,5,163,10,1.0006068457769497
undo,44,45,0,0,0,20,"[0, 15, 23, 20]",4,19,"[1, 2, 3, 5, 6, 7, 9, 10, 11, 12, 14, 16, 17, 19, 21, 22, 24, 25, 29]",188.8647316,5901,1298,5,137,10,1.2062119754673604
undo,44,45,0,0,0,2,"[0, 15, 23, 20, 2]",5,11,"[3, 6, 7, 10, 12, 14, 16, 19, 22, 24, 29]",109.8077901,7441,1540,7,34,9,1.1347329476958932
undo,44,45,0,0,0,3,"[0, 15, 23, 20, 2, 3]",6,6,"[6, 7, 10, 12, 22, 29]",84.48981225,8498,1057,4,11,9,1.20136447472029
undo,44,45,0,0,0,29,"[0, 15, 23, 20, 2, 3, 29]",7,5,"[6, 7, 10, 12, 22]",64.48981225,10657,2159,3,3,9,1.4622603795691385
undo,44,45,0,0,0,10,"[0, 15, 23, 20, 2, 3, 29, 10]",8,1,[6],42.94915303,12986,2329,1,0,9,1.7469079850469198
undo,44,45,0,0,1,6,"[0, 15, 23, 20, 2, 3, 29, 10, 6]",9,0,[],16.70034353,14506,1520,1,0,9,1.6448408057065311
undo,44,45,0,1,1,6,"[0, 15, 23, 20, 2, 3, 29, 10, 6]",9,0,[],16.70034353,17146,2640,1,0,9,1.6448408057065311
undo,45,15,0,0,0,0,[0],1,25,"[1, 2, 3, 4, 7, 8, 9, 10, 11, 12, 13, 14, 15, 16, 18, 20, 21, 22, 23, 24, 25, 26, 27, 28, 29]",300,149,-1,4,65,9,0.0
undo,45,15,0,0,0,12,"[0, 12]",2,22,"[1, 2, 3, 4, 7, 8, 9, 10, 11, 13, 14, 15, 16, 18, 21, 22, 23, 24, 26, 27, 28, 29]",213.547701,3260,3111,4,35,9,1.0
undo,45,15,0,0,0,7,"[0, 12, 7]",3,16,"[1, 3, 4, 8, 9, 10, 11, 13, 14, 15, 16, 18, 21, 22, 24, 27]",180.3061607,5158,1898,4,29,9,1.411291635294361
undo,45,15,0,0,0,16,"[0, 12, 7, 16]",4,10,"[3, 4, 10, 11, 13, 14, 15, 18, 21, 22]",136.6484008,6405,1247,2,11,9,1.4308733430458784
undo,45,15,0,0,0,11,"[0, 12, 7, 16, 11]",5,7,"[3, 4, 13, 14, 15, 21, 22]",110.6291772,7740,1335,2,5,9,1.5251025438826007
undo,45,15,0,0,0,3,"[0, 12, 7, 16, 11, 3]",6,5,"[4, 13, 14, 15, 22]",99.22742292,8822,1082,2,3,9,1.5166583878170454
undo,45,15,0,0,0,22,"[0, 12, 7, 16, 11, 3, 22]",7,2,"[13, 15]",49.49815588,9944,1122,2,0,9,1.4519711389669923
undo,45,15,0,0,0,13,"[0, 12, 7, 16, 11, 3, 22, 13]",8,1,[15],21.3379002,11168,1224,1,0,9,1.390947894090134
undo,45,15,0,0,1,15,"[0, 12, 7, 16, 11, 3, 22, 13, 15]",9,0,[],6.073562677,12591,1423,1,0,9,1.4967248964735906
undo,45,15,0,1,1,15,"[0, 12, 7, 16, 11, 3, 22, 13, 15]",9,0,[],6.073562677,13130,539,1,0,9,1.4967248964735906
undo,46,12,0,0,0,0,[0],1,29,"[1, 2, 3, 4, 5, 6, 7, 8, 9, 10, 11, 12, 13, 14, 15, 16, 17, 18, 19, 20, 21, 22, 23, 24, 25, 26, 27, 28, 29]",300,165,-1,2,32,9,0.0
undo,46,12,0,0,0,6,"[0, 6]",2,28,"[1, 2, 3, 4, 5, 7, 8, 9, 10, 11, 12, 13, 14, 15, 16, 17, 18, 19, 20, 21, 22, 23, 24, 25, 26, 27, 28, 29]",283.5987805,5088,4923,2,18,9,1.0
undo,46,12,0,0,0,22,"[0, 6, 22]",3,13,"[2, 4, 5, 7, 12, 13, 14, 16, 19, 23, 24, 25, 27]",182.0015365,6280,1192,2,9,9,1.3408050629015749
undo,46,12,0,0,0,16,"[0, 6, 22, 16]",4,10,"[2, 4, 5, 7, 12, 14, 19, 24, 25, 27]",161.0015365,7258,978,2,7,9,1.5323672374573825
undo,46,12,0,0,0,4,"[0, 6, 22, 16, 4]",5,6,"[12, 14, 19, 24, 25, 27]",126.7962737,9425,2167,2,5,9,1.38665076120851
undo,46,12,0,0,0,12,"[0, 6, 22, 16, 4, 12]",6,3,"[14, 24, 27]",84.6062275,10445,1020,2,3,9,1.3036701691846924
undo,46,12,0,0,0,27,"[0, 6, 22, 16, 4, 12, 27]",7,2,"[14, 24]",60.25463618,11693,1248,2,0,9,1.401636252408167
undo,46,12,0,0,0,14,"[0, 6, 22, 16, 4, 12, 27, 14]",8,1,[24],31.60153862,12808,1115,1,0,9,1.4415448388010776
undo,46,12,0,0,1,24,"[0, 6, 22, 16, 4, 12, 27, 14, 24]",9,0,[],14.39688808,14940,2132,1,0,9,1.6003250998053893
undo,46,12,0,1,1,24,"[0, 6, 22, 16, 4, 12, 27, 14, 24]",9,0,[],14.39688808,15782,842,1,0,9,1.6003250998053893
undo,47,43,0,0,0,0,[0],1,23,"[1, 2, 3, 4, 5, 6, 7, 9, 10, 11, 12, 14, 15, 16, 17, 19, 20, 21, 22, 23, 25, 27, 29]",300,130,-1,16,556,12,0.0
undo,47,43,0,0,0,29,"[0, 29]",2,22,"[1, 2, 3, 4, 5, 6, 7, 9, 10, 11, 12, 14, 15, 16, 17, 19, 20, 21, 22, 23, 25, 27]",277.909278,1888,1758,16,520,12,1.0
undo,47,43,0,0,0,20,"[0, 29, 20]",3,20,"[1, 2, 3, 4, 6, 7, 9, 10, 11, 12, 14, 15, 16, 17, 19, 21, 22, 23, 25, 27]",254.4785289,4224,2336,15,422,12,1.082311746871282
undo,47,43,0,0,0,16,"[0, 29, 20, 16]",4,19,"[1, 2, 3, 4, 6, 7, 9, 10, 11, 12, 14, 15, 17, 19, 21, 22, 23, 25, 27]",231.8511119,5335,1111,15,389,12,1.215201926898219
undo,47,43,0,0,0,11,"[0, 29, 20, 16, 11]",5,17,"[1, 2, 3, 4, 6, 7, 9, 10, 12, 14, 15, 17, 19, 21, 22, 23, 25]",196.7227758,6291,956,12,188,12,1.1349145516483516
undo,47,43,0,0,0,6,"[0, 29, 20, 16, 11, 6]",6,15,"[1, 2, 3, 4, 7, 10, 12, 14, 15, 17, 19, 21, 22, 23, 25]",176.1072477,8307,2016,10,100,12,1.123330873754209
undo,47,43,0,0,0,22,"[0, 29, 20, 16, 11, 6, 22]",7,10,"[1, 3, 4, 7, 12, 14, 15, 19, 23, 25]",127.0664483,9657,1350,2,36,12,1.449950324670612
undo,47,43,0,0,0,15,"[0, 29, 20, 16, 11, 6, 22, 15]",8,5,"[1, 3, 12, 19, 25]",84.95944179,12906,3249,6,3,11,2.6008742306188943
undo,47,43,0,0,0,25,"[0, 29, 20, 16, 11, 6, 22, 15, 25]",9,2,"[3, 12]",62.28787369,16155,3249,2,0,11,2.997271016189011
undo,47,43,0,0,0,12,"[0, 29, 20, 16, 11, 6, 22, 15, 25, 12]",10,1,[3],38.10110045,17304,1149,1,0,11,2.649230365071703
undo,47,43,0,0,1,3,"[0, 29, 20, 16, 11, 6, 22, 15, 25, 12, 3]",11,0,[],25.10110045,18637,1333,1,0,11,2.4676701662621348
undo,47,43,1,0,0,12,"[0, 29, 20, 16, 11, 6, 22, 15, 25, 12]",10,1,[3],38.10110045,20097,1460,1,0,11,2.649230365071703
undo,47,43,1,0,0,25,"[0, 29, 20, 16, 11, 6, 22, 15, 25]",9,2,"[3, 12]",62.28787369,20298,201,2,0,11,2.997271016189011
undo,47,43,1,0,0,15,"[0, 29, 20, 16, 11, 6, 22, 15]",8,5,"[1, 3, 12, 19, 25]",84.95944179,20663,365,6,3,11,2.6008742306188943
undo,47,43,1,0,0,22,"[0, 29, 20, 16, 11, 6, 22]",7,10,"[1, 3, 4, 7, 12, 14, 15, 19, 23, 25]",127.0664483,21664,1001,2,36,12,1.449950324670612
undo,47,43,0,0,0,19,"[0, 29, 20, 16, 11, 6, 22, 19]",8,9,"[1, 3, 4, 7, 12, 14, 15, 23, 25]",106.4509202,23056,1392,2,14,12,1.39319676182956
undo,47,43,0,0,0,3,"[0, 29, 20, 16, 11, 6, 22, 19, 3]",9,4,"[1, 12, 15, 25]",65.34131062,24437,1381,2,4,12,2.10644803593285
undo,47,43,0,0,0,12,"[0, 29, 20, 16, 11, 6, 22, 19, 3, 12]",10,2,"[15, 25]",52.34131062,25333,896,2,0,12,2.505183951542712
undo,47,43,0,0,0,25,"[0, 29, 20, 16, 11, 6, 22, 19, 3, 12, 25]",11,1,[15],28.15453738,26828,1495,1,0,12,3.427652340002407
undo,47,43,0,0,1,15,"[0, 29, 20, 16, 11, 6, 22, 19, 3, 12, 25, 15]",12,0,[],5.482969278,27907,1079,1,0,12,3.5621268939192223
undo,47,43,0,1,1,15,"[0, 29, 20, 16, 11, 6, 22, 19, 3, 12, 25, 15]",12,0,[],5.482969278,30280,2373,1,0,12,3.5621268939192223
undo,48,29,0,0,0,0,[0],1,29,"[1, 2, 3, 4, 5, 6, 7, 8, 9, 10, 11, 12, 13, 14, 15, 16, 17, 18, 19, 20, 21, 22, 23, 24, 25, 26, 27, 28, 29]",300,181,-1,1,78,9,0.0
undo,48,29,0,0,0,14,"[0, 14]",2,22,"[1, 3, 4, 5, 6, 7, 9, 10, 11, 12, 13, 15, 16, 17, 21, 22, 23, 25, 26, 27, 28, 29]",209.490332,2939,2758,21,110,8,1.0
undo,48,29,0,0,0,13,"[0, 14, 13]",3,18,"[1, 4, 5, 6, 7, 9, 10, 12, 15, 16, 17, 21, 22, 25, 26, 27, 28, 29]",191.4625756,3781,842,20,75,8,1.0027006502223275
undo,48,29,0,0,0,5,"[0, 14, 13, 5]",4,15,"[1, 4, 6, 7, 9, 12, 15, 17, 21, 22, 25, 26, 27, 28, 29]",165.7526554,4869,1088,19,49,8,1.0803937325657265
undo,48,29,0,0,0,9,"[0, 14, 13, 5, 9]",5,5,"[4, 7, 12, 21, 22]",90.32719547,5852,983,1,4,8,1.1106242806359021
undo,48,29,0,0,0,7,"[0, 14, 13, 5, 9, 7]",6,3,"[4, 12, 22]",61.25831177,7039,1187,1,2,8,1.4517532166216307
undo,48,29,0,0,0,12,"[0, 14, 13, 5, 9, 7, 12]",7,1,[22],47.65684126,10143,3104,1,0,8,1.634564936839069
undo,48,29,0,0,1,22,"[0, 14, 13, 5, 9, 7, 12, 22]",8,0,[],9.709509336,11325,1182,1,0,8,2.481840618087434
undo,48,29,0,1,1,22,"[0, 14, 13, 5, 9, 7, 12, 22]",8,0,[],9.709509336,13164,1839,1,0,8,2.481840618087434
undo,49,22,0,0,0,0,[0],1,29,"[1, 2, 3, 4, 5, 6, 7, 8, 9, 10, 11, 12, 13, 14, 15, 16, 17, 18, 19, 20, 21, 22, 23, 24, 25, 26, 27, 28, 29]",300,131,-1,31,704,9,0.0
undo,49,22,0,0,0,16,"[0, 16]",2,21,"[1, 3, 6, 7, 8, 9, 11, 13, 14, 15, 17, 18, 19, 20, 21, 22, 24, 25, 27, 28, 29]",218.605897,5223,5092,17,147,9,1.0
undo,49,22,0,0,0,28,"[0, 16, 28]",3,13,"[6, 7, 9, 13, 14, 17, 19, 20, 21, 22, 24, 25, 29]",184.1675463,6207,984,12,61,9,1.047282311284478
undo,49,22,0,0,0,6,"[0, 16, 28, 6]",4,12,"[7, 9, 13, 14, 17, 19, 20, 21, 22, 24, 25, 29]",154.1675463,7425,1218,12,43,9,1.645645870580622
undo,49,22,0,0,0,9,"[0, 16, 28, 6, 9]",5,8,"[7, 14, 17, 19, 20, 21, 24, 29]",127.5404924,8428,1003,8,17,9,1.925750226630103
undo,49,22,0,0,0,19,"[0, 16, 28, 6, 9, 19]",6,6,"[7, 14, 17, 21, 24, 29]",107.1444143,9240,812,3,7,9,2.4220750331476455
undo,49,22,0,0,0,29,"[0, 16, 28, 6, 9, 19, 29]",7,4,"[7, 14, 17, 24]",92.11111796,10258,1018,2,2,9,2.6996279574991067
undo,49,22,0,0,0,14,"[0, 16, 28, 6, 9, 19, 29, 14]",8,1,[7],33.86165444,11706,1448,1,0,9,2.0544639927929462
undo,49,22,0,0,1,7,"[0, 16, 28, 6, 9, 19, 29, 14, 7]",9,0,[],20.82324963,12655,949,1,0,9,2.219817088951114
undo,49,22,0,1,1,7,"[0, 16, 28, 6, 9, 19, 29, 14, 7]",9,0,[],20.82324963,13582,927,1,0,9,2.219817088951114
undo,50,14,0,0,0,0,[0],1,29,"[1, 2, 3, 4, 5, 6, 7, 8, 9, 10, 11, 12, 13, 14, 15, 16, 17, 18, 19, 20, 21, 22, 23, 24, 25, 26, 27, 28, 29]",300,147,-1,8,157,10,0.0
undo,50,14,0,0,0,15,"[0, 15]",2,20,"[1, 2, 3, 4, 7, 8, 9, 13, 17, 18, 19, 20, 21, 22, 23, 25, 26, 27, 28, 29]",216.7053423,3064,2917,8,102,10,1.0
undo,50,14,0,0,0,28,"[0, 15, 28]",3,17,"[1, 2, 3, 4, 7, 8, 9, 13, 17, 18, 19, 20, 22, 23, 25, 26, 27]",197.4959696,5196,2132,8,48,10,1.0446007867311968
undo,50,14,0,0,0,17,"[0, 15, 28, 17]",4,14,"[1, 2, 3, 4, 7, 8, 13, 18, 19, 20, 22, 23, 25, 26]",184.0423455,6506,1310,8,39,10,1.0729463354689972
undo,50,14,0,0,0,18,"[0, 15, 28, 17, 18]",5,9,"[1, 2, 4, 7, 8, 19, 23, 25, 26]",119.412631,7744,1238,8,27,10,1.5035901079219378
undo,50,14,0,0,0,8,"[0, 15, 28, 17, 18, 8]",6,8,"[1, 2, 4, 7, 19, 23, 25, 26]",105.8111605,8573,829,8,18,10,1.4819689987843856
undo,50,14,0,0,0,1,"[0, 15, 28, 17, 18, 8, 1]",7,5,"[7, 19, 23, 25, 26]",82.21031307,9636,1063,4,6,10,1.4084991998385268
undo,50,14,0,0,0,19,"[0, 15, 28, 17, 18, 8, 1, 19]",8,4,"[7, 23, 25, 26]",66.97876686,12411,2775,4,1,10,1.5758713333797987
undo,50,14,0,0,0,23,"[0, 15, 28, 17, 18, 8, 1, 19, 23]",9,1,[26],22.70687962,13572,1161,1,0,10,1.4751929839361517
undo,50,14,0,0,1,26,"[0, 15, 28, 17, 18, 8, 1, 19, 23, 26]",10,0,[],11.89022579,14588,1016,1,0,10,1.4521765305442214
undo,50,14,0,1,1,26,"[0, 15, 28, 17, 18, 8, 1, 19, 23, 26]",10,0,[],11.89022579,15597,1009,1,0,10,1.4521765305442214
undo,51,25,0,0,0,0,[0],1,28,"[1, 2, 3, 4, 5, 7, 8, 9, 10, 11, 12, 13, 14, 15, 16, 17, 18, 19, 20, 21, 22, 23, 24, 25, 26, 27, 28, 29]",300,164,-1,5,94,10,0.0
undo,51,25,0,0,0,19,"[0, 19]",2,27,"[1, 2, 3, 4, 5, 7, 8, 9, 10, 11, 12, 13, 14, 15, 16, 17, 18, 20, 21, 22, 23, 24, 25, 26, 27, 28, 29]",251.9479449,3838,3674,2,30,10,1.0
undo,51,25,0,0,0,29,"[0, 19, 29]",3,26,"[1, 2, 3, 4, 5, 7, 8, 9, 10, 11, 12, 13, 14, 15, 16, 17, 18, 20, 21, 22, 23, 24, 25, 26, 27, 28]",235.6691243,5840,2002,2,22,10,1.0272252084351727
undo,51,25,0,0,0,22,"[0, 19, 29, 22]",4,24,"[1, 2, 3, 4, 5, 7, 8, 9, 11, 12, 13, 14, 15, 16, 17, 18, 20, 21, 23, 24, 25, 26, 27, 28]",219.5446088,6908,1068,2,17,10,1.03988854593305
undo,51,25,0,0,0,7,"[0, 19, 29, 22, 7]",5,10,"[1, 3, 5, 8, 9, 11, 13, 23, 24, 28]",143.9007062,8310,1402,2,14,10,1.3318974800137366
undo,51,25,0,0,0,24,"[0, 19, 29, 22, 7, 24]",6,7,"[3, 8, 9, 11, 13, 23, 28]",119.1418694,9356,1046,2,9,10,1.2868309735722725
undo,51,25,0,0,0,9,"[0, 19, 29, 22, 7, 24, 9]",7,4,"[3, 8, 13, 28]",101.114113,10425,1069,2,7,10,1.2740198715343065
undo,51,25,0,0,0,3,"[0, 19, 29, 22, 7, 24, 9, 3]",8,3,"[8, 13, 28]",70.84862112,11825,1400,2,1,10,1.2376259292234586
undo,51,25,0,0,0,13,"[0, 19, 29, 22, 7, 24, 9, 3, 13]",9,1,[28],39.60762242,13240,1415,1,0,10,1.291892077575191
undo,51,25,0,0,1,28,"[0, 19, 29, 22, 7, 24, 9, 3, 13, 28]",10,0,[],5.373136879,16889,3649,1,0,10,1.3615350048994297
undo,51,25,0,1,1,28,"[0, 19, 29, 22, 7, 24, 9, 3, 13, 28]",10,0,[],5.373136879,17347,458,1,0,10,1.3615350048994297
undo,52,4,0,0,0,0,[0],1,26,"[3, 4, 5, 6, 7, 8, 10, 11, 12, 13, 14, 15, 16, 17, 18, 19, 20, 21, 22, 23, 24, 25, 26, 27, 28, 29]",300,131,-1,4,489,10,0.0
undo,52,4,0,0,0,13,"[0, 13]",2,23,"[3, 4, 5, 6, 7, 10, 11, 12, 14, 15, 16, 17, 19, 20, 21, 22, 23, 24, 25, 26, 27, 28, 29]",232.1030192,3139,3008,2,270,10,1.0
undo,52,4,0,0,0,28,"[0, 13, 28]",3,19,"[3, 4, 5, 6, 10, 11, 12, 14, 15, 16, 17, 19, 20, 21, 22, 23, 24, 25, 26]",200.5277124,4336,1197,2,221,10,1.3431168257921573
undo,52,4,0,0,0,14,"[0, 13, 28, 14]",4,11,"[3, 4, 5, 6, 11, 16, 17, 20, 21, 22, 25]",134.2857318,5638,1302,28,123,9,1.2134786195381546
undo,52,4,0,0,0,25,"[0, 13, 28, 14, 25]",5,10,"[3, 4, 5, 6, 11, 16, 17, 20, 21, 22]",118.1612163,6925,1287,22,51,9,1.4339367384350254
undo,52,4,0,0,0,11,"[0, 13, 28, 14, 25, 11]",6,9,"[3, 4, 5, 6, 16, 17, 20, 21, 22]",99.37292203,8244,1319,11,18,9,1.632788140935394
undo,52,4,0,0,0,16,"[0, 13, 28, 14, 25, 11, 16]",7,6,"[3, 5, 17, 20, 21, 22]",84.37292203,10028,1784,9,2,9,1.5642820747024264
undo,52,4,0,0,0,21,"[0, 13, 28, 14, 25, 11, 16, 21]",8,2,"[20, 22]",40.16884982,11825,1797,2,0,9,1.7579851057756917
undo,52,4,0,0,1,22,"[0, 13, 28, 14, 25, 11, 16, 21, 22]",9,0,[],29.12348881,13174,1349,1,0,9,1.7072764875626198
undo,52,4,1,0,0,21,"[0, 13, 28, 14, 25, 11, 16, 21]",8,2,"[20, 22]",40.16884982,15498,2324,2,0,9,1.7579851057756917
undo,52,4,1,0,0,16,"[0, 13, 28, 14, 25, 11, 16]",7,6,"[3, 5, 17, 20, 21, 22]",84.37292203,15898,400,9,2,9,1.5642820747024264
undo,52,4,0,0,0,17,"[0, 13, 28, 14, 25, 11, 16, 17]",8,4,"[3, 20, 21, 22]",58.29611241,17976,2078,4,0,9,1.4745445015567764
undo,52,4,0,0,1,21,"[0, 13, 28, 14, 25, 11, 16, 17, 21]",9,0,[],9.041670989,20212,2236,1,0,9,1.968587709550512
undo,52,4,1,0,0,17,"[0, 13, 28, 14, 25, 11, 16, 17]",8,4,"[3, 20, 21, 22]",58.29611241,21031,819,4,0,9,1.4745445015567764
undo,52,4,1,0,0,16,"[0, 13, 28, 14, 25, 11, 16]",7,6,"[3, 5, 17, 20, 21, 22]",84.37292203,21448,417,9,2,9,1.5642820747024264
undo,52,4,0,0,0,21,"[0, 13, 28, 14, 25, 11, 16, 21]",8,2,"[20, 22]",40.16884982,25803,4355,2,0,9,1.7579851057756917
undo,52,4,0,0,1,22,"[0, 13, 28, 14, 25, 11, 16, 21, 22]",9,0,[],29.12348881,28526,2723,1,0,9,1.7072764875626198
undo,52,4,0,1,1,22,"[0, 13, 28, 14, 25, 11, 16, 21, 22]",9,0,[],29.12348881,29981,1455,1,0,9,1.7072764875626198
undo,53,7,0,0,0,0,[0],1,29,"[1, 2, 3, 4, 5, 6, 7, 8, 9, 10, 11, 12, 13, 14, 15, 16, 17, 18, 19, 20, 21, 22, 23, 24, 25, 26, 27, 28, 29]",300,146,-1,3,79,9,0.0
undo,53,7,0,0,0,25,"[0, 25]",2,20,"[2, 3, 4, 5, 6, 7, 10, 13, 14, 15, 16, 18, 19, 20, 21, 22, 23, 24, 27, 28]",181.5939191,2176,2030,5,33,8,1.0
undo,53,7,0,0,0,4,"[0, 25, 4]",3,11,"[2, 6, 7, 13, 15, 16, 18, 19, 20, 21, 23]",156.8552853,3447,1271,2,14,8,1.0193465608331511
undo,53,7,0,0,0,20,"[0, 25, 4, 20]",4,8,"[2, 6, 7, 13, 15, 16, 18, 19]",137.2084026,4501,1054,1,9,8,1.085904909082323
undo,53,7,0,0,0,18,"[0, 25, 4, 20, 18]",5,7,"[2, 6, 7, 13, 15, 16, 19]",124.4021541,5673,1172,1,5,8,1.2264883846453758
undo,53,7,0,0,0,7,"[0, 25, 4, 20, 18, 7]",6,2,"[2, 19]",83.17109789,7830,2157,1,1,8,1.185264473968278
undo,53,7,0,0,0,19,"[0, 25, 4, 20, 18, 7, 19]",7,1,[2],53.76021555,8875,1045,1,0,8,1.3016904288278204
undo,53,7,0,0,1,2,"[0, 25, 4, 20, 18, 7, 19, 2]",8,0,[],23.61058868,11109,2234,1,0,8,1.3168868000947171
undo,53,7,0,1,1,2,"[0, 25, 4, 20, 18, 7, 19, 2]",8,0,[],23.61058868,11663,554,1,0,8,1.3168868000947171
undo,54,30,0,0,0,0,[0],1,19,"[3, 4, 5, 7, 9, 11, 16, 17, 18, 19, 20, 21, 22, 24, 25, 26, 27, 28, 29]",300,147,-1,5,41,8,0.0
undo,54,30,0,0,0,25,"[0, 25]",2,12,"[3, 5, 7, 9, 11, 16, 18, 19, 20, 24, 27, 29]",121.1005869,3038,2891,7,37,7,1.0
undo,54,30,0,0,0,20,"[0, 25, 20]",3,9,"[3, 5, 7, 9, 11, 18, 19, 27, 29]",99.16887472,4496,1458,5,16,7,1.0037291321296267
undo,54,30,0,0,0,27,"[0, 25, 20, 27]",4,4,"[3, 5, 18, 29]",65.11010199,5542,1046,4,6,7,1.1217072851053165
undo,54,30,0,0,0,3,"[0, 25, 20, 27, 3]",5,3,"[5, 18, 29]",46.00512882,6487,945,4,0,7,1.1140018780928678
undo,54,30,0,0,0,29,"[0, 25, 20, 27, 3, 29]",6,1,[18],27.40405358,8878,2391,1,0,7,1.119672312555708
undo,54,30,0,0,1,18,"[0, 25, 20, 27, 3, 29, 18]",7,0,[],8.090845662,10004,1126,1,0,7,1.1951451398733344
undo,54,30,0,1,1,18,"[0, 25, 20, 27, 3, 29, 18]",7,0,[],8.090845662,11613,1609,1,0,7,1.1951451398733344
undo,55,10,0,0,0,0,[0],1,29,"[1, 2, 3, 4, 5, 6, 7, 8, 9, 10, 11, 12, 13, 14, 15, 16, 17, 18, 19, 20, 21, 22, 23, 24, 25, 26, 27, 28, 29]",300,150,-1,1,100,9,0.0
undo,55,10,0,0,0,10,"[0, 10]",2,27,"[1, 2, 3, 4, 5, 6, 7, 8, 9, 11, 12, 13, 14, 15, 17, 18, 19, 20, 21, 22, 23, 24, 25, 26, 27, 28, 29]",211.2475352,5362,5212,5,73,8,1.0
undo,55,10,0,0,0,18,"[0, 10, 18]",3,24,"[1, 2, 3, 5, 6, 7, 8, 9, 11, 12, 13, 14, 15, 17, 19, 20, 21, 23, 24, 25, 26, 27, 28, 29]",197.7939112,6481,1119,5,49,8,1.0012508773359339
undo,55,10,0,0,0,20,"[0, 10, 18, 20]",4,9,"[2, 6, 9, 11, 13, 14, 19, 26, 27]",126.4496753,8030,1549,3,23,8,1.4338595664185272
undo,55,10,0,0,0,26,"[0, 10, 18, 20, 26]",5,6,"[2, 11, 13, 14, 19, 27]",94.66917811,9491,1461,3,6,8,1.550384261377175
undo,55,10,0,0,0,14,"[0, 10, 18, 20, 26, 14]",6,2,"[2, 19]",59.99930646,11473,1982,1,1,8,1.5006492834569933
undo,55,10,0,0,0,2,"[0, 10, 18, 20, 26, 14, 2]",7,1,[19],47.8337814,12746,1273,1,0,8,1.544679202540964
undo,55,10,0,0,1,19,"[0, 10, 18, 20, 26, 14, 2, 19]",8,0,[],3.9247846,13807,1061,1,0,8,2.4795493061903198
undo,55,10,0,1,1,19,"[0, 10, 18, 20, 26, 14, 2, 19]",8,0,[],3.9247846,14431,624,1,0,8,2.4795493061903198
undo,56,6,0,0,0,0,[0],1,29,"[1, 2, 3, 4, 5, 6, 7, 8, 9, 10, 11, 12, 13, 14, 15, 16, 17, 18, 19, 20, 21, 22, 23, 24, 25, 26, 27, 28, 29]",300,131,-1,180,4304,10,0.0
undo,56,6,0,0,0,26,"[0, 26]",2,25,"[1, 2, 3, 4, 5, 6, 7, 8, 9, 10, 11, 12, 13, 14, 15, 16, 17, 18, 20, 21, 22, 23, 24, 27, 29]",250.2606795,4073,3942,45,776,10,1.0
undo,56,6,0,0,0,2,"[0, 26, 2]",3,20,"[1, 3, 4, 5, 6, 7, 8, 9, 10, 13, 14, 16, 17, 18, 21, 22, 23, 24, 27, 29]",220.4278118,5240,1167,20,184,10,1.003152463832065
undo,56,6,0,0,0,7,"[0, 26, 2, 7]",4,18,"[1, 3, 4, 6, 8, 9, 10, 13, 14, 16, 17, 18, 21, 22, 23, 24, 27, 29]",179.3182022,6539,1299,20,157,10,2.5131135963314413
undo,56,6,0,0,0,3,"[0, 26, 2, 7, 3]",5,13,"[1, 6, 8, 10, 13, 16, 17, 18, 21, 22, 23, 24, 29]",143.1795802,8059,1520,18,67,10,4.677560963942129
undo,56,6,0,0,0,16,"[0, 26, 2, 7, 3, 16]",6,9,"[6, 10, 13, 17, 18, 22, 23, 24, 29]",96.94106809,9843,1784,3,11,10,2.8132170172709676
undo,56,6,0,0,0,18,"[0, 26, 2, 7, 3, 16, 18]",7,4,"[10, 17, 24, 29]",73.59583303,13111,3268,2,4,10,3.7175429872148276
undo,56,6,0,0,0,17,"[0, 26, 2, 7, 3, 16, 18, 17]",8,2,"[10, 24]",59.66744475,14347,1236,2,0,10,3.4052918038285505
undo,56,6,0,0,0,10,"[0, 26, 2, 7, 3, 16, 18, 17, 10]",9,1,[24],39.94436183,15289,942,1,0,10,3.0832542837647017
undo,56,6,0,0,1,24,"[0, 26, 2, 7, 3, 16, 18, 17, 10, 24]",10,0,[],26.52795396,16721,1432,1,0,10,2.8107983495160362
undo,56,6,0,1,1,24,"[0, 26, 2, 7, 3, 16, 18, 17, 10, 24]",10,0,[],26.52795396,17631,910,1,0,10,2.8107983495160362
undo,57,42,0,0,0,0,[0],1,29,"[1, 2, 3, 4, 5, 6, 7, 8, 9, 10, 11, 12, 13, 14, 15, 16, 17, 18, 19, 20, 21, 22, 23, 24, 25, 26, 27, 28, 29]",300,149,-1,16,302,9,0.0
undo,57,42,0,0,0,5,"[0, 5]",2,28,"[1, 2, 3, 4, 6, 7, 8, 9, 10, 11, 12, 13, 14, 15, 16, 17, 18, 19, 20, 21, 22, 23, 24, 25, 26, 27, 28, 29]",191.2939744,1739,1590,1,22,9,1.0
undo,57,42,0,0,0,4,"[0, 5, 4]",3,23,"[1, 2, 3, 6, 7, 8, 9, 10, 11, 13, 15, 17, 18, 19, 20, 21, 22, 23, 24, 25, 26, 27, 29]",171.4445412,4005,2266,1,14,9,1.420957801478707
undo,57,42,0,0,0,22,"[0, 5, 4, 22]",4,20,"[1, 2, 3, 6, 7, 8, 9, 11, 15, 17, 18, 19, 20, 21, 23, 24, 25, 26, 27, 29]",160.2642013,5946,1941,1,11,9,1.5771494659680896
undo,57,42,0,0,0,8,"[0, 5, 4, 22, 8]",5,14,"[1, 2, 3, 6, 7, 11, 15, 18, 19, 24, 25, 26, 27, 29]",138.1282577,7174,1228,1,10,9,1.5055393955524201
undo,57,42,0,0,0,1,"[0, 5, 4, 22, 8, 1]",6,5,"[2, 7, 19, 26, 27]",89.03650682,8561,1387,1,7,9,1.3547259083637835
undo,57,42,0,0,0,27,"[0, 5, 4, 22, 8, 1, 27]",7,1,[26],30.82138851,9841,1280,1,0,8,1.262358902428909
undo,57,42,0,0,1,26,"[0, 5, 4, 22, 8, 1, 27, 26]",8,0,[],12.79363213,11389,1548,1,0,8,1.4505372114646464
undo,57,42,0,1,1,26,"[0, 5, 4, 22, 8, 1, 27, 26]",8,0,[],12.79363213,12497,1108,1,0,8,1.4505372114646464
undo,58,34,0,0,0,0,[0],1,25,"[1, 3, 4, 5, 6, 7, 8, 9, 10, 11, 12, 13, 15, 18, 19, 20, 21, 22, 23, 24, 25, 26, 27, 28, 29]",300,181,-1,12,367,10,0.0
undo,58,34,0,0,0,13,"[0, 13]",2,24,"[1, 3, 4, 5, 6, 7, 8, 9, 10, 11, 12, 15, 18, 19, 20, 21, 22, 23, 24, 25, 26, 27, 28, 29]",279.9750156,4224,4043,12,331,10,1.0
undo,58,34,0,0,0,1,"[0, 13, 1]",3,16,"[3, 5, 7, 8, 9, 10, 11, 12, 19, 21, 22, 23, 24, 25, 27, 29]",211.8574701,5345,1121,3,92,10,1.0010381285747127
undo,58,34,0,0,0,8,"[0, 13, 1, 8]",4,14,"[3, 5, 7, 9, 10, 11, 12, 19, 22, 23, 24, 25, 27, 29]",201.0871405,6557,1212,2,54,10,1.1636807
undo,58,34,0,0,0,25,"[0, 13, 1, 8, 25]",5,12,"[3, 5, 7, 9, 10, 11, 12, 22, 23, 24, 27, 29]",183.999133,7596,1039,2,28,10,1.1396208815936457
undo,58,34,0,0,0,24,"[0, 13, 1, 8, 25, 24]",6,11,"[3, 5, 7, 9, 10, 11, 12, 22, 23, 27, 29]",166.5062774,8531,935,2,23,10,1.374180768736554
undo,58,34,0,0,0,12,"[0, 13, 1, 8, 25, 24, 12]",7,7,"[7, 9, 10, 11, 22, 23, 27]",115.4670767,10458,1927,1,8,10,1.4994254760835948
undo,58,34,0,0,0,7,"[0, 13, 1, 8, 25, 24, 12, 7]",8,5,"[9, 11, 22, 23, 27]",100.4337804,11471,1013,1,4,10,1.758992610425009
undo,58,34,0,0,0,23,"[0, 13, 1, 8, 25, 24, 12, 7, 23]",9,1,[27],72.27352467,12674,1203,1,0,10,2.399781305190153
undo,58,34,0,0,1,27,"[0, 13, 1, 8, 25, 24, 12, 7, 23, 27]",10,0,[],18.60789321,14274,1600,1,0,10,4.766619878750327
undo,58,34,0,1,1,27,"[0, 13, 1, 8, 25, 24, 12, 7, 23, 27]",10,0,[],18.60789321,14947,673,1,0,10,4.766619878750327
undo,59,1,0,0,0,0,[0],1,26,"[1, 2, 4, 5, 7, 8, 9, 10, 11, 12, 13, 14, 15, 16, 17, 18, 19, 20, 21, 22, 23, 24, 25, 26, 28, 29]",300,147,-1,6,74,7,0.0
undo,59,1,0,0,0,14,"[0, 14]",2,19,"[1, 4, 5, 8, 9, 13, 15, 17, 18, 19, 20, 21, 22, 23, 24, 25, 26, 28, 29]",200.1901808,4220,4073,5,42,7,1.0
undo,59,1,0,0,0,17,"[0, 14, 17]",3,15,"[1, 4, 5, 8, 9, 13, 15, 18, 19, 20, 22, 23, 25, 28, 29]",147.8356204,6588,2368,5,27,7,1.0028844724416826
undo,59,1,0,0,0,1,"[0, 14, 17, 1]",4,12,"[4, 5, 8, 9, 15, 18, 20, 22, 23, 25, 28, 29]",123.4840291,7540,952,5,15,7,1.0264985578353567
undo,59,1,0,0,0,28,"[0, 14, 17, 1, 28]",5,5,"[9, 15, 22, 23, 29]",88.59850198,8608,1068,5,3,7,1.0339861575999345
undo,59,1,0,0,0,23,"[0, 14, 17, 1, 28, 23]",6,2,"[15, 22]",51.70676849,10596,1988,2,0,7,1.0327458250705703
undo,59,1,0,0,1,15,"[0, 14, 17, 1, 28, 23, 15]",7,0,[],20.81987807,13362,2766,1,0,7,1.1948681641401226
undo,59,1,0,1,1,15,"[0, 14, 17, 1, 28, 23, 15]",7,0,[],20.81987807,14113,751,1,0,7,1.1948681641401226
undo,60,41,0,0,0,0,[0],1,29,"[1, 2, 3, 4, 5, 6, 7, 8, 9, 10, 11, 12, 13, 14, 15, 16, 17, 18, 19, 20, 21, 22, 23, 24, 25, 26, 27, 28, 29]",300,147,-1,1,143,10,0.0
undo,60,41,0,0,0,13,"[0, 13]",2,23,"[1, 2, 3, 5, 6, 7, 9, 10, 11, 12, 14, 15, 17, 18, 19, 20, 21, 22, 24, 25, 26, 27, 28]",258.2747079,1892,1745,1,55,10,1.0
undo,60,41,0,0,0,28,"[0, 13, 28]",3,22,"[1, 2, 3, 5, 6, 7, 9, 10, 11, 12, 14, 15, 17, 18, 19, 20, 21, 22, 24, 25, 26, 27]",223.7928286,3075,1183,1,39,10,1.895724242592676
undo,60,41,0,0,0,5,"[0, 13, 28, 5]",4,19,"[1, 2, 3, 6, 9, 10, 11, 12, 14, 15, 17, 18, 19, 20, 21, 22, 24, 25, 27]",210.1913581,4241,1166,1,34,10,2.861541269398273
undo,60,41,0,0,0,22,"[0, 13, 28, 5, 22]",5,12,"[2, 3, 6, 9, 10, 11, 12, 17, 18, 20, 21, 25]",155.4464953,5373,1132,11,12,9,2.096079268852861
undo,60,41,0,0,0,3,"[0, 13, 28, 5, 22, 3]",6,8,"[2, 9, 10, 12, 17, 18, 20, 21]",125.4798472,8656,3283,7,5,9,4.404491319005463
undo,60,41,0,0,0,21,"[0, 13, 28, 5, 22, 3, 21]",7,4,"[2, 9, 12, 17]",93.33952984,10578,1922,5,1,9,4.228139797553632
undo,60,41,0,0,0,9,"[0, 13, 28, 5, 22, 3, 21, 9]",8,2,"[2, 17]",43.97354965,11758,1180,2,0,9,3.111188754077749
undo,60,41,0,0,1,2,"[0, 13, 28, 5, 22, 3, 21, 9, 2]",9,0,[],31.89050368,12888,1130,1,0,9,2.963304814480547
undo,60,41,0,1,1,2,"[0, 13, 28, 5, 22, 3, 21, 9, 2]",9,0,[],31.89050368,17463,4575,1,0,9,2.963304814480547
undo,61,5,0,0,0,0,[0],1,29,"[1, 2, 3, 4, 5, 6, 7, 8, 9, 10, 11, 12, 13, 14, 15, 16, 17, 18, 19, 20, 21, 22, 23, 24, 25, 26, 27, 28, 29]",300,133,-1,5,139,9,0.0
undo,61,5,0,0,0,12,"[0, 12]",2,22,"[2, 4, 5, 6, 8, 9, 10, 13, 14, 15, 16, 17, 18, 19, 21, 22, 23, 24, 25, 26, 27, 28]",228.3062067,2296,2163,1,27,9,1.0
undo,61,5,0,0,0,25,"[0, 12, 25]",3,21,"[2, 4, 5, 6, 8, 9, 10, 13, 14, 15, 16, 17, 18, 19, 21, 22, 23, 24, 26, 27, 28]",200.5213187,4265,1969,1,20,9,1.584023303445617
undo,61,5,0,0,0,23,"[0, 12, 25, 23]",4,19,"[2, 4, 5, 6, 8, 9, 10, 13, 14, 15, 16, 17, 18, 19, 21, 22, 24, 26, 27]",182.0822298,5410,1145,1,14,9,2.3508446989254357
undo,61,5,0,0,0,24,"[0, 12, 25, 23, 24]",5,15,"[2, 4, 5, 6, 8, 9, 13, 14, 15, 17, 18, 19, 22, 26, 27]",158.995437,6373,963,1,12,9,1.9469752046288753
undo,61,5,0,0,0,17,"[0, 12, 25, 23, 24, 17]",6,7,"[4, 5, 6, 8, 15, 18, 19]",124.0097257,7506,1133,1,8,9,1.6482276497563642
undo,61,5,0,0,0,5,"[0, 12, 25, 23, 24, 17, 5]",7,4,"[4, 6, 15, 18]",80.96323916,8679,1173,1,3,9,1.4654649104389412
undo,61,5,0,0,0,4,"[0, 12, 25, 23, 24, 17, 5, 4]",8,1,[6],15.16050365,11010,2331,1,0,9,1.6255060355828674
undo,61,5,0,0,1,6,"[0, 12, 25, 23, 24, 17, 5, 4, 6]",9,0,[],3.118909076,12226,1216,1,0,9,1.7777310833772453
undo,61,5,0,1,1,6,"[0, 12, 25, 23, 24, 17, 5, 4, 6]",9,0,[],3.118909076,12932,706,1,0,9,1.7777310833772453
undo,62,2,0,0,0,0,[0],1,23,"[1, 2, 4, 5, 6, 7, 8, 9, 12, 13, 15, 16, 17, 18, 19, 20, 22, 23, 25, 26, 27, 28, 29]",300,147,-1,70,620,10,0.0
undo,62,2,0,0,0,19,"[0, 19]",2,22,"[1, 2, 4, 5, 6, 7, 8, 9, 12, 13, 15, 16, 17, 18, 20, 22, 23, 25, 26, 27, 28, 29]",210.306076,3755,3608,67,431,10,1.0
undo,62,2,0,0,0,12,"[0, 19, 12]",3,17,"[1, 4, 5, 6, 7, 13, 15, 16, 17, 18, 20, 22, 25, 26, 27, 28, 29]",174.2921898,4958,1203,66,298,10,1.1107635036313153
undo,62,2,0,0,0,5,"[0, 19, 12, 5]",4,11,"[1, 6, 7, 13, 15, 16, 18, 22, 25, 26, 29]",144.7625437,6343,1385,38,136,10,1.0968174771581647
undo,62,2,0,0,0,22,"[0, 19, 12, 5, 22]",5,8,"[1, 6, 7, 13, 15, 18, 26, 29]",131.9562952,7572,1229,20,63,10,1.0889910507461968
undo,62,2,0,0,0,13,"[0, 19, 12, 5, 22, 13]",6,7,"[1, 6, 7, 15, 18, 26, 29]",117.0902265,8555,983,19,20,10,1.236526217328057
undo,62,2,0,0,0,18,"[0, 19, 12, 5, 22, 13, 18]",7,4,"[7, 15, 26, 29]",81.91921567,9793,1238,10,3,10,1.2128708213409936
undo,62,2,0,0,0,7,"[0, 19, 12, 5, 22, 13, 18, 7]",8,3,"[15, 26, 29]",71.62358553,11040,1247,5,0,10,1.2019811287894737
undo,62,2,0,0,0,26,"[0, 19, 12, 5, 22, 13, 18, 7, 26]",9,2,"[15, 29]",48.82007703,13123,2083,2,0,10,1.1883593342191134
undo,62,2,0,0,1,15,"[0, 19, 12, 5, 22, 13, 18, 7, 26, 15]",10,0,[],24.61264015,14235,1112,1,0,10,1.4619750353663825
undo,62,2,0,1,1,15,"[0, 19, 12, 5, 22, 13, 18, 7, 26, 15]",10,0,[],24.61264015,16646,2411,1,0,10,1.4619750353663825
undo,63,19,0,0,0,0,[0],1,29,"[1, 2, 3, 4, 5, 6, 7, 8, 9, 10, 11, 12, 13, 14, 15, 16, 17, 18, 19, 20, 21, 22, 23, 24, 25, 26, 27, 28, 29]",300,147,-1,12,149,8,0.0
undo,63,19,0,0,0,9,"[0, 9]",2,21,"[1, 4, 5, 6, 7, 10, 11, 12, 13, 14, 15, 19, 20, 21, 22, 23, 24, 25, 27, 28, 29]",185.9956141,4378,4231,13,76,7,1.0
undo,63,19,0,0,0,6,"[0, 9, 6]",3,13,"[4, 7, 10, 11, 13, 14, 20, 21, 22, 24, 27, 28, 29]",144.5589154,5624,1246,13,38,7,1.0111071984935167
undo,63,19,0,0,0,28,"[0, 9, 6, 28]",4,5,"[4, 11, 14, 22, 27]",93.47075631,6910,1286,2,4,7,1.2602621425624105
undo,63,19,0,0,0,4,"[0, 9, 6, 28, 4]",5,4,"[11, 14, 22, 27]",82.29041642,8303,1393,2,2,7,1.3210056324457753
undo,63,19,0,0,0,14,"[0, 9, 6, 28, 4, 14]",6,1,[11],32.28041742,11786,3483,1,0,7,1.2802078016419174
undo,63,19,0,0,1,11,"[0, 9, 6, 28, 4, 14, 11]",7,0,[],21.4637636,13621,1835,1,0,7,1.2703725192277202
undo,63,19,0,1,1,11,"[0, 9, 6, 28, 4, 14, 11]",7,0,[],21.4637636,14096,475,1,0,7,1.2703725192277202
undo,64,18,0,0,0,0,[0],1,28,"[1, 2, 3, 4, 5, 6, 7, 8, 9, 10, 11, 12, 13, 14, 16, 17, 18, 19, 20, 21, 22, 23, 24, 25, 26, 27, 28, 29]",300,147,-1,3,136,10,0.0
undo,64,18,0,0,0,28,"[0, 28]",2,16,"[1, 3, 5, 7, 8, 9, 12, 13, 14, 16, 20, 23, 24, 25, 26, 27]",236.4311397,3196,3049,2,19,10,1.0
undo,64,18,0,0,0,7,"[0, 28, 7]",3,15,"[1, 3, 5, 8, 9, 12, 13, 14, 16, 20, 23, 24, 25, 26, 27]",214.4084242,4208,1012,2,17,10,1.4345180696367563
undo,64,18,0,0,0,25,"[0, 28, 7, 25]",4,13,"[1, 3, 5, 8, 9, 12, 13, 14, 16, 20, 23, 26, 27]",186.6055466,6089,1881,2,15,10,1.8896451241781882
undo,64,18,0,0,0,8,"[0, 28, 7, 25, 8]",5,10,"[3, 5, 9, 12, 13, 14, 16, 23, 26, 27]",149.551532,7854,1765,2,10,10,1.590467437592877
undo,64,18,0,0,0,3,"[0, 28, 7, 25, 8, 3]",6,6,"[5, 12, 13, 14, 23, 27]",121.4801943,9227,1373,1,10,9,1.4587755974793148
undo,64,18,0,0,0,14,"[0, 28, 7, 25, 8, 3, 14]",7,4,"[5, 12, 13, 27]",91.39697637,10456,1229,4,0,8,1.8606737724243565
undo,64,18,0,0,1,13,"[0, 28, 7, 25, 8, 3, 14, 13]",8,0,[],72.42331041,12806,2350,1,0,8,2.4208916262893254
undo,64,18,1,0,0,14,"[0, 28, 7, 25, 8, 3, 14]",7,4,"[5, 12, 13, 27]",91.39697637,15414,2608,4,0,8,1.8606737724243565
undo,64,18,1,0,0,3,"[0, 28, 7, 25, 8, 3]",6,6,"[5, 12, 13, 14, 23, 27]",121.4801943,15881,467,1,10,9,1.4587755974793148
undo,64,18,1,0,0,8,"[0, 28, 7, 25, 8]",5,10,"[3, 5, 9, 12, 13, 14, 16, 23, 26, 27]",149.551532,16348,467,2,10,10,1.590467437592877
undo,64,18,0,0,0,3,"[0, 28, 7, 25, 8, 3]",6,6,"[5, 12, 13, 14, 23, 27]",121.4801943,19244,2896,1,10,9,1.4587755974793148
undo,64,18,0,0,0,5,"[0, 28, 7, 25, 8, 3, 5]",7,2,"[12, 27]",63.29944145,22208,2964,1,1,9,1.324334937860345
undo,64,18,0,0,0,12,"[0, 28, 7, 25, 8, 3, 5, 12]",8,1,[27],51.8976872,23176,968,1,0,9,1.3371922112868397
undo,64,18,0,0,1,27,"[0, 28, 7, 25, 8, 3, 5, 12, 27]",9,0,[],11.17914106,24303,1127,1,0,9,1.4648883530615529
undo,64,18,0,1,1,27,"[0, 28, 7, 25, 8, 3, 5, 12, 27]",9,0,[],11.17914106,25463,1160,1,0,9,1.4648883530615529
undo,65,35,0,0,0,0,[0],1,29,"[1, 2, 3, 4, 5, 6, 7, 8, 9, 10, 11, 12, 13, 14, 15, 16, 17, 18, 19, 20, 21, 22, 23, 24, 25, 26, 27, 28, 29]",300,149,-1,5,236,11,0.0
undo,65,35,0,0,0,27,"[0, 27]",2,27,"[1, 2, 4, 5, 6, 7, 8, 9, 10, 11, 12, 13, 14, 15, 16, 17, 18, 19, 20, 21, 22, 23, 24, 25, 26, 28, 29]",278.7867966,3559,3410,5,144,11,1.0
undo,65,35,0,0,0,17,"[0, 27, 17]",3,24,"[1, 2, 4, 5, 6, 7, 8, 9, 10, 11, 12, 13, 15, 16, 18, 19, 20, 21, 23, 24, 25, 26, 28, 29]",230.2790652,4895,1336,2,49,11,1.757918918843928
undo,65,35,0,0,0,24,"[0, 27, 17, 24]",4,21,"[1, 2, 4, 5, 6, 7, 8, 9, 10, 12, 15, 16, 18, 19, 20, 21, 23, 25, 26, 28, 29]",218.5743653,5923,1028,2,36,11,2.625267828391568
undo,65,35,0,0,0,1,"[0, 27, 17, 24, 1]",5,17,"[2, 4, 5, 6, 9, 10, 15, 16, 18, 19, 20, 21, 23, 25, 26, 28, 29]",201.4571225,7453,1530,2,25,11,2.0614942962498013
undo,65,35,0,0,0,15,"[0, 27, 17, 24, 1, 15]",6,15,"[2, 4, 5, 6, 9, 10, 16, 18, 19, 20, 23, 25, 26, 28, 29]",178.6098032,8677,1224,2,14,11,2.184110774824693
undo,65,35,0,0,0,23,"[0, 27, 17, 24, 1, 15, 23]",7,6,"[5, 6, 9, 18, 19, 25]",118.1697503,10193,1516,2,10,11,1.7102124382771557
undo,65,35,0,0,0,9,"[0, 27, 17, 24, 1, 15, 23, 9]",8,3,"[6, 18, 25]",80.52668983,11427,1234,2,2,11,1.95235919029447
undo,65,35,0,0,0,18,"[0, 27, 17, 24, 1, 15, 23, 9, 18]",9,2,"[6, 25]",60.50170544,13475,2048,2,0,11,1.8618981276661277
undo,65,35,0,0,0,25,"[0, 27, 17, 24, 1, 15, 23, 9, 18, 25]",10,1,[6],26.6638568,14689,1214,1,0,11,1.6878712421294642
undo,65,35,0,0,1,6,"[0, 27, 17, 24, 1, 15, 23, 9, 18, 25, 6]",11,0,[],2.643032506,17080,2391,1,0,11,1.9663645103768457
undo,65,35,0,1,1,6,"[0, 27, 17, 24, 1, 15, 23, 9, 18, 25, 6]",11,0,[],2.643032506,17496,416,1,0,11,1.9663645103768457
undo,66,16,0,0,0,0,[0],1,29,"[1, 2, 3, 4, 5, 6, 7, 8, 9, 10, 11, 12, 13, 14, 15, 16, 17, 18, 19, 20, 21, 22, 23, 24, 25, 26, 27, 28, 29]",300,164,-1,13,161,9,0.0
undo,66,16,0,0,0,17,"[0, 17]",2,27,"[1, 2, 3, 4, 5, 7, 8, 9, 10, 11, 12, 13, 14, 15, 16, 18, 19, 20, 21, 22, 23, 24, 25, 26, 27, 28, 29]",241.3058776,6376,6212,2,58,9,1.0
undo,66,16,0,0,0,16,"[0, 17, 16]",3,26,"[1, 2, 3, 4, 5, 7, 8, 9, 10, 11, 12, 13, 14, 15, 18, 19, 20, 21, 22, 23, 24, 25, 26, 27, 28, 29]",212.9862731,7639,1263,2,52,9,1.0529535521792848
undo,66,16,0,0,0,8,"[0, 17, 16, 8]",4,19,"[2, 3, 4, 5, 9, 12, 13, 14, 15, 19, 20, 21, 22, 23, 25, 26, 27, 28, 29]",164.6127266,9456,1817,2,38,9,1.0915134501573105
undo,66,16,0,0,0,20,"[0, 17, 16, 8, 20]",5,10,"[3, 4, 5, 9, 12, 13, 15, 19, 21, 25]",106.8372993,10977,1521,1,15,9,1.067523143001942
undo,66,16,0,0,0,25,"[0, 17, 16, 8, 20, 25]",6,7,"[3, 4, 5, 9, 12, 13, 15]",94.18818869,11860,883,1,9,9,1.1170093326933646
undo,66,16,0,0,0,9,"[0, 17, 16, 8, 20, 25, 9]",7,5,"[3, 4, 5, 13, 15]",81.38194021,13040,1180,1,4,9,1.1095076562662525
undo,66,16,0,0,0,15,"[0, 17, 16, 8, 20, 25, 9, 15]",8,1,[5],42.48463953,14095,1055,1,0,9,1.213831159678775
undo,66,16,0,0,1,5,"[0, 17, 16, 8, 20, 25, 9, 15, 5]",9,0,[],13.0567616,15724,1629,1,0,9,1.5171779607523481
undo,66,16,0,1,1,5,"[0, 17, 16, 8, 20, 25, 9, 15, 5]",9,0,[],13.0567616,17247,1523,1,0,9,1.5171779607523481
undo,67,31,0,0,0,0,[0],1,27,"[1, 3, 4, 5, 6, 7, 8, 10, 11, 12, 13, 14, 15, 16, 17, 18, 19, 20, 21, 22, 23, 24, 25, 26, 27, 28, 29]",300,134,-1,2,87,10,0.0
undo,67,31,0,0,0,14,"[0, 14]",2,25,"[1, 3, 5, 6, 7, 8, 10, 11, 12, 13, 15, 16, 17, 18, 19, 20, 21, 22, 23, 24, 25, 26, 27, 28, 29]",263.861378,2757,2623,2,59,10,1.0
undo,67,31,0,0,0,27,"[0, 14, 27]",3,22,"[1, 3, 5, 6, 7, 8, 10, 11, 12, 13, 15, 16, 17, 18, 19, 20, 21, 22, 24, 25, 28, 29]",235.6833724,4190,1433,1,39,10,1.5881859159302467
undo,67,31,0,0,0,8,"[0, 14, 27, 8]",4,20,"[1, 3, 5, 6, 7, 10, 11, 12, 13, 16, 17, 18, 19, 20, 21, 22, 24, 25, 28, 29]",224.6380114,5179,989,1,36,10,2.1665048452331277
undo,67,31,0,0,0,18,"[0, 14, 27, 8, 18]",5,15,"[1, 5, 6, 7, 11, 12, 13, 16, 17, 19, 20, 22, 25, 28, 29]",188.7911147,6878,1699,1,26,10,1.7273375741920205
undo,67,31,0,0,0,17,"[0, 14, 27, 8, 18, 17]",6,13,"[1, 5, 6, 7, 11, 12, 13, 16, 19, 20, 22, 25, 28]",159.584951,10272,3394,1,13,10,1.551192427769927
undo,67,31,0,0,0,11,"[0, 14, 27, 8, 18, 17, 11]",7,7,"[5, 12, 16, 19, 22, 25, 28]",118.4753414,11642,1370,1,4,10,2.9650760544203494
undo,67,31,0,0,0,5,"[0, 14, 27, 8, 18, 17, 11, 5]",8,2,"[16, 28]",74.79468207,12732,1090,1,1,10,2.56711965625205
undo,67,31,0,0,0,28,"[0, 14, 27, 8, 18, 17, 11, 5, 28]",9,1,[16],54.57093365,13993,1261,1,0,10,2.2865510762058148
undo,67,31,0,0,1,16,"[0, 14, 27, 8, 18, 17, 11, 5, 28, 16]",10,0,[],20.95546102,16120,2127,1,0,10,2.089356850786318
undo,67,31,0,1,1,16,"[0, 14, 27, 8, 18, 17, 11, 5, 28, 16]",10,0,[],20.95546102,16614,494,1,0,10,2.089356850786318
undo,68,39,0,0,0,0,[0],1,28,"[1, 2, 3, 4, 5, 6, 7, 9, 10, 11, 12, 13, 14, 15, 16, 17, 18, 19, 20, 21, 22, 23, 24, 25, 26, 27, 28, 29]",300,150,-1,1,30,10,0.0
undo,68,39,0,0,0,14,"[0, 14]",2,26,"[1, 2, 3, 4, 5, 6, 7, 9, 10, 12, 13, 15, 16, 17, 18, 19, 20, 21, 22, 23, 24, 25, 26, 27, 28, 29]",286.9615952,2641,2491,1,22,10,1.0
undo,68,39,0,0,0,29,"[0, 14, 29]",3,23,"[1, 2, 3, 4, 5, 6, 7, 9, 10, 12, 13, 15, 16, 17, 18, 19, 21, 22, 23, 24, 25, 26, 28]",218.9321898,4528,1887,1,21,10,1.4237768813412561
undo,68,39,0,0,0,12,"[0, 14, 29, 12]",4,16,"[1, 2, 4, 5, 7, 9, 10, 13, 15, 16, 18, 19, 22, 23, 24, 26]",158.3929463,5971,1443,1,11,10,1.2085522586932163
undo,68,39,0,0,0,10,"[0, 14, 29, 12, 10]",5,11,"[1, 4, 5, 7, 15, 16, 18, 19, 22, 23, 26]",122.8823845,7190,1219,1,8,10,1.4905426536315662
undo,68,39,0,0,0,7,"[0, 14, 29, 12, 10, 7]",6,6,"[1, 16, 18, 19, 22, 26]",89.46083457,8904,1714,1,6,10,1.3836596018032035
undo,68,39,0,0,0,26,"[0, 14, 29, 12, 10, 7, 26]",7,3,"[16, 19, 22]",70.77929288,10077,1173,1,4,10,1.4191124441944845
undo,68,39,0,0,0,22,"[0, 14, 29, 12, 10, 7, 26, 22]",8,2,"[16, 19]",53.05924773,11753,1676,1,1,10,1.594793297833885
undo,68,39,0,0,0,16,"[0, 14, 29, 12, 10, 7, 26, 22, 16]",9,1,[19],18.05924773,14054,2301,1,0,10,1.48519520801471
undo,68,39,0,0,1,19,"[0, 14, 29, 12, 10, 7, 26, 22, 16, 19]",10,0,[],0.594998533,15344,1290,1,0,10,1.484277847976571
undo,68,39,0,1,1,19,"[0, 14, 29, 12, 10, 7, 26, 22, 16, 19]",10,0,[],0.594998533,16147,803,1,0,10,1.484277847976571
basic,69,21,0,0,0,0,[0],1,29,"[1, 2, 3, 4, 5, 6, 7, 8, 9, 10, 11, 12, 13, 14, 15, 16, 17, 18, 19, 20, 21, 22, 23, 24, 25, 26, 27, 28, 29]",300,181,-1,84,830,9,0.0
basic,69,21,0,0,0,21,"[0, 21]",2,22,"[1, 3, 4, 6, 8, 9, 10, 11, 12, 14, 15, 16, 17, 18, 20, 22, 23, 24, 25, 26, 27, 29]",210.1111798,2113,1932,1,69,9,1.0
basic,69,21,0,0,0,14,"[0, 21, 14]",3,15,"[1, 4, 6, 8, 9, 15, 16, 17, 18, 20, 22, 23, 24, 25, 29]",184.4986828,3759,1646,35,96,8,1.0083702391721483
basic,69,21,0,0,0,4,"[0, 21, 14, 4]",4,13,"[1, 8, 9, 15, 16, 17, 18, 20, 22, 23, 24, 25, 29]",170.3565472,5621,1862,20,39,8,1.0135821167776475
basic,69,21,0,0,0,16,"[0, 21, 14, 4, 16]",5,7,"[8, 15, 17, 23, 24, 25, 29]",125.758341,7558,1937,4,6,8,1.0675217597413178
basic,69,21,0,0,0,8,"[0, 21, 14, 4, 16, 8]",6,3,"[15, 23, 24]",107.1572657,12075,4517,3,1,8,1.0643903127717425
basic,69,21,0,0,0,15,"[0, 21, 14, 4, 16, 8, 15]",7,2,"[23, 24]",82.15726573,13537,1462,2,0,8,1.29402645910376
basic,69,21,0,0,1,24,"[0, 21, 14, 4, 16, 8, 15, 24]",8,0,[],36.4516862,14856,1319,1,0,8,1.3251667405154008
basic,69,21,0,1,1,24,"[0, 21, 14, 4, 16, 8, 15, 24]",8,0,[],36.4516862,16182,1326,1,0,8,1.3251667405154008
basic,70,7,0,0,0,0,[0],1,29,"[1, 2, 3, 4, 5, 6, 7, 8, 9, 10, 11, 12, 13, 14, 15, 16, 17, 18, 19, 20, 21, 22, 23, 24, 25, 26, 27, 28, 29]",300,147,-1,3,79,9,0.0
basic,70,7,0,0,0,15,"[0, 15]",2,19,"[2, 4, 5, 6, 7, 8, 9, 10, 13, 14, 16, 18, 19, 20, 21, 23, 25, 27, 28]",230.9348134,3054,2907,2,38,9,1.0
basic,70,7,0,0,0,6,"[0, 15, 6]",3,18,"[2, 4, 5, 7, 8, 9, 10, 13, 14, 16, 18, 19, 20, 21, 23, 25, 27, 28]",205.854941,5127,2073,2,36,9,1.366719602896943
basic,70,7,0,0,0,25,"[0, 15, 6, 25]",4,11,"[2, 4, 7, 13, 14, 16, 18, 19, 20, 21, 23]",138.6760753,6662,1535,2,28,9,1.3624631728355765
basic,70,7,0,0,0,4,"[0, 15, 6, 25, 4]",5,7,"[2, 7, 13, 16, 18, 19, 20]",113.9374415,8739,2077,2,12,9,1.3249684384385587
basic,70,7,0,0,0,20,"[0, 15, 6, 25, 4, 20]",6,5,"[2, 7, 13, 18, 19]",94.29055881,11111,2372,1,6,9,1.3721893242679268
basic,70,7,0,0,0,18,"[0, 15, 6, 25, 4, 20, 18]",7,3,"[7, 13, 19]",81.48431034,12446,1335,1,2,9,1.5262542308371432
basic,70,7,0,0,0,7,"[0, 15, 6, 25, 4, 20, 18, 7]",8,1,[19],40.25325408,13694,1248,1,0,9,1.41986878673423
basic,70,7,0,0,1,19,"[0, 15, 6, 25, 4, 20, 18, 7, 19]",9,0,[],10.84237174,14922,1228,1,0,9,1.5285658163212987
