condition,trial_id,map_id,undoIndicator,submit,checkEnd,currentChoice,chosen_all,n_city_all,n_within_reach,cities_reach,currentBudget,time_all,rt_all,n_opt_paths_all,n_subopt_paths_all,mas_all,tortuosity_all
basic,0,8,0,0,0,0,[0],1,29,"[1, 2, 3, 4, 5, 6, 7, 8, 9, 10, 11, 12, 13, 14, 15, 16, 17, 18, 19, 20, 21, 22, 23, 24, 25, 26, 27, 28, 29]",300,318,-1,10,149,9,0.0
basic,0,8,0,0,0,5,"[0, 5]",2,28,"[1, 2, 3, 4, 6, 7, 8, 9, 10, 11, 12, 13, 14, 15, 16, 17, 18, 19, 20, 21, 22, 23, 24, 25, 26, 27, 28, 29]",254.5137383,4298,3980,10,100,9,1.0
basic,0,8,0,0,0,25,"[0, 5, 25]",3,20,"[1, 2, 3, 4, 6, 11, 12, 14, 15, 16, 17, 18, 19, 20, 21, 22, 23, 24, 28, 29]",215.3091468,6127,1829,4,42,9,1.2272747879909065
basic,0,8,0,0,0,14,"[0, 5, 25, 14]",4,16,"[1, 3, 4, 6, 11, 15, 16, 17, 18, 19, 20, 21, 22, 23, 24, 28]",170.2092576,8977,2850,1,13,9,1.5190857385933465
basic,0,8,0,0,0,17,"[0, 5, 25, 14, 17]",5,9,"[1, 4, 11, 15, 16, 18, 23, 24, 28]",133.1957466,9871,894,1,9,9,1.5271682935559303
basic,0,8,0,0,0,11,"[0, 5, 25, 14, 17, 11]",6,5,"[15, 16, 18, 24, 28]",108.01639,10495,624,1,6,9,1.4664212485560129
basic,0,8,0,0,0,24,"[0, 5, 25, 14, 17, 11, 24]",7,2,"[15, 16]",70.80080183,12185,1690,1,1,9,1.3920548417170795
basic,0,8,0,0,0,15,"[0, 5, 25, 14, 17, 11, 24, 15]",8,1,[16],54.03774722,13434,1249,1,0,9,1.4585932832823736
basic,0,8,0,0,1,16,"[0, 5, 25, 14, 17, 11, 24, 15, 16]",9,0,[],2.959376062,14838,1404,1,0,9,1.6043130175078746
basic,0,8,0,1,1,16,"[0, 5, 25, 14, 17, 11, 24, 15, 16]",9,0,[],2.959376062,17076,2238,1,0,9,1.6043130175078746
basic,1,27,0,0,0,0,[0],1,26,"[1, 3, 5, 6, 7, 8, 9, 10, 11, 12, 13, 14, 15, 16, 17, 18, 19, 21, 22, 23, 24, 25, 26, 27, 28, 29]",300,115,-1,13,578,11,0.0
basic,1,27,0,0,0,15,"[0, 15]",2,24,"[1, 3, 5, 6, 7, 8, 9, 10, 11, 12, 13, 14, 16, 17, 18, 19, 21, 22, 23, 24, 25, 26, 27, 29]",263.7508621,2808,2693,6,219,11,1.0
basic,1,27,0,0,0,24,"[0, 15, 24]",3,20,"[1, 5, 6, 7, 8, 9, 10, 12, 13, 14, 16, 17, 18, 19, 21, 23, 25, 26, 27, 29]",246.5462115,3982,1174,6,130,11,1.130933077698322
basic,1,27,0,0,0,17,"[0, 15, 24, 17]",4,15,"[1, 6, 8, 10, 12, 13, 14, 16, 18, 19, 23, 25, 26, 27, 29]",229.9932662,4845,863,4,60,11,1.1285538435963374
basic,1,27,0,0,0,12,"[0, 15, 24, 17, 12]",5,14,"[1, 6, 8, 10, 13, 14, 16, 18, 19, 23, 25, 26, 27, 29]",218.8129263,5460,615,2,32,11,1.2561880288755216
basic,1,27,0,0,0,10,"[0, 15, 24, 17, 12, 10]",6,11,"[1, 8, 13, 14, 18, 19, 23, 25, 26, 27, 29]",207.7675653,6564,1104,2,28,11,1.2228289337766665
basic,1,27,0,0,0,13,"[0, 15, 24, 17, 12, 10, 13]",7,9,"[1, 8, 14, 18, 19, 23, 26, 27, 29]",167.9178476,8152,1588,2,18,11,1.3421291994761178
basic,1,27,0,0,0,19,"[0, 15, 24, 17, 12, 10, 13, 19]",8,5,"[1, 8, 14, 23, 29]",131.6825057,9058,906,2,6,11,1.294749956153846
basic,1,27,0,0,0,8,"[0, 15, 24, 17, 12, 10, 13, 19, 8]",9,3,"[14, 23, 29]",116.816437,9631,573,2,1,11,1.3554286578836865
basic,1,27,0,0,0,29,"[0, 15, 24, 17, 12, 10, 13, 19, 8, 29]",10,1,[14],57.61339652,12066,2435,1,0,11,1.248354519573802
basic,1,27,0,0,1,14,"[0, 15, 24, 17, 12, 10, 13, 19, 8, 29, 14]",11,0,[],13.31892734,13582,1516,1,0,11,1.562811097555156
basic,1,27,0,1,1,14,"[0, 15, 24, 17, 12, 10, 13, 19, 8, 29, 14]",11,0,[],13.31892734,15290,1708,1,0,11,1.562811097555156
basic,2,35,0,0,0,0,[0],1,29,"[1, 2, 3, 4, 5, 6, 7, 8, 9, 10, 11, 12, 13, 14, 15, 16, 17, 18, 19, 20, 21, 22, 23, 24, 25, 26, 27, 28, 29]",300,322,-1,5,236,11,0.0
basic,2,35,0,0,0,24,"[0, 24]",2,27,"[1, 2, 4, 5, 6, 7, 8, 9, 10, 11, 12, 13, 14, 15, 16, 17, 18, 19, 20, 21, 22, 23, 25, 26, 27, 28, 29]",268.9838752,3169,2847,49,512,10,1.0
basic,2,35,0,0,0,17,"[0, 24, 17]",3,26,"[1, 2, 4, 5, 6, 7, 8, 9, 10, 11, 12, 13, 14, 15, 16, 18, 19, 20, 21, 22, 23, 25, 26, 27, 28, 29]",257.2791753,8505,5336,33,238,10,1.0771477201815276
basic,2,35,0,0,0,1,"[0, 24, 17, 1]",4,25,"[2, 4, 5, 6, 7, 8, 9, 10, 11, 12, 13, 14, 15, 16, 18, 19, 20, 21, 22, 23, 25, 26, 27, 28, 29]",241.4677869,9603,1098,26,151,10,1.2244804141479215
basic,2,35,0,0,0,15,"[0, 24, 17, 1, 15]",5,23,"[2, 4, 5, 6, 7, 8, 9, 10, 11, 12, 14, 16, 18, 19, 20, 21, 22, 23, 25, 26, 27, 28, 29]",218.6204676,10606,1003,26,78,10,1.4642196672428094
basic,2,35,0,0,0,23,"[0, 24, 17, 1, 15, 23]",6,11,"[4, 5, 6, 9, 18, 19, 25, 26, 27, 28, 29]",158.1804147,14194,3588,15,12,10,1.3338903684702363
basic,2,35,0,0,0,9,"[0, 24, 17, 1, 15, 23, 9]",7,6,"[5, 6, 18, 19, 25, 27]",120.5373542,15126,932,6,1,10,1.5964380615155294
basic,2,35,0,0,0,18,"[0, 24, 17, 1, 15, 23, 9, 18]",8,3,"[5, 6, 25]",100.5123698,16093,967,2,1,10,1.5508488101942703
basic,2,35,0,0,0,25,"[0, 24, 17, 1, 15, 23, 9, 18, 25]",9,1,[6],66.67452121,17416,1323,1,0,10,1.4408023801578587
basic,2,35,0,0,1,6,"[0, 24, 17, 1, 15, 23, 9, 18, 25, 6]",10,0,[],42.65369691,18794,1378,1,0,10,1.701781671832088
basic,2,35,0,1,1,6,"[0, 24, 17, 1, 15, 23, 9, 18, 25, 6]",10,0,[],42.65369691,31780,12986,1,0,10,1.701781671832088
basic,3,45,0,0,0,0,[0],1,24,"[1, 2, 3, 4, 5, 6, 7, 9, 10, 11, 12, 14, 15, 16, 17, 19, 20, 21, 22, 23, 24, 25, 27, 29]",300,343,-1,6,248,10,0.0
basic,3,45,0,0,0,15,"[0, 15]",2,23,"[1, 2, 3, 4, 5, 6, 7, 9, 10, 11, 12, 14, 16, 17, 19, 20, 21, 22, 23, 24, 25, 27, 29]",253.9022777,8759,8416,5,207,10,1.0
basic,3,45,0,0,0,23,"[0, 15, 23]",3,22,"[1, 2, 3, 4, 5, 6, 7, 9, 10, 11, 12, 14, 16, 17, 19, 20, 21, 22, 24, 25, 27, 29]",230.3014303,10350,1591,5,163,10,1.0006068457769497
basic,3,45,0,0,0,20,"[0, 15, 23, 20]",4,19,"[1, 2, 3, 5, 6, 7, 9, 10, 11, 12, 14, 16, 17, 19, 21, 22, 24, 25, 29]",188.8647316,11883,1533,5,137,10,1.2062119754673604
basic,3,45,0,0,0,10,"[0, 15, 23, 20, 10]",5,12,"[2, 3, 6, 7, 9, 12, 14, 17, 22, 24, 25, 29]",132.784432,14168,2285,1,54,10,1.1363907740691004
basic,3,45,0,0,0,29,"[0, 15, 23, 20, 10, 29]",6,8,"[2, 3, 6, 7, 12, 14, 22, 24]",111.2437728,15092,924,1,21,10,1.1719694806770014
basic,3,45,0,0,0,3,"[0, 15, 23, 20, 10, 29, 3]",7,5,"[2, 6, 7, 12, 22]",91.24377276,15772,680,1,7,10,1.1637144299354454
basic,3,45,0,0,0,2,"[0, 15, 23, 20, 10, 29, 3, 2]",8,2,"[6, 7]",65.92579496,16766,994,2,0,9,1.3965435955776868
basic,3,45,0,0,1,7,"[0, 15, 23, 20, 10, 29, 3, 2, 7]",9,0,[],27.91263934,29224,12458,1,0,9,2.050819128376323
basic,3,45,0,1,1,7,"[0, 15, 23, 20, 10, 29, 3, 2, 7]",9,0,[],27.91263934,31100,1876,1,0,9,2.050819128376323
basic,4,21,0,0,0,0,[0],1,29,"[1, 2, 3, 4, 5, 6, 7, 8, 9, 10, 11, 12, 13, 14, 15, 16, 17, 18, 19, 20, 21, 22, 23, 24, 25, 26, 27, 28, 29]",300,109,-1,84,830,9,0.0
basic,4,21,0,0,0,18,"[0, 18]",2,28,"[1, 2, 3, 4, 5, 6, 7, 8, 9, 10, 11, 12, 13, 14, 15, 16, 17, 19, 20, 21, 22, 23, 24, 25, 26, 27, 28, 29]",240.923778,18440,18331,44,305,9,1.0
basic,4,21,0,0,0,29,"[0, 18, 29]",3,24,"[1, 2, 3, 4, 6, 7, 8, 9, 10, 11, 12, 13, 14, 15, 16, 17, 20, 21, 22, 23, 24, 25, 26, 27]",212.2706805,19294,854,11,87,9,1.035555280387994
basic,4,21,0,0,0,25,"[0, 18, 29, 25]",4,18,"[1, 4, 6, 8, 9, 10, 11, 12, 14, 15, 16, 17, 20, 21, 22, 23, 24, 26]",167.0490043,20955,1661,6,45,9,2.2226517719335437
basic,4,21,0,0,0,21,"[0, 18, 29, 25, 21]",5,9,"[4, 8, 9, 14, 15, 16, 17, 22, 23]",117.7134187,21996,1041,3,15,9,2.027911600797407
basic,4,21,0,0,0,23,"[0, 18, 29, 25, 21, 23]",6,6,"[4, 8, 14, 15, 16, 17]",88.09923294,23246,1250,1,4,9,2.139975147968579
basic,4,21,0,0,0,14,"[0, 18, 29, 25, 21, 23, 14]",7,2,"[4, 16]",59.03034924,24482,1236,1,1,9,2.1037563056474844
basic,4,21,0,0,0,4,"[0, 18, 29, 25, 21, 23, 14, 4]",8,1,[16],44.88821361,25303,821,1,0,9,1.9945221982247547
basic,4,21,0,0,1,16,"[0, 18, 29, 25, 21, 23, 14, 4, 16]",9,0,[],0.29000737,26569,1266,1,0,9,1.8362252780457913
basic,4,21,0,1,1,16,"[0, 18, 29, 25, 21, 23, 14, 4, 16]",9,0,[],0.29000737,28095,1526,1,0,9,1.8362252780457913
basic,5,42,0,0,0,0,[0],1,29,"[1, 2, 3, 4, 5, 6, 7, 8, 9, 10, 11, 12, 13, 14, 15, 16, 17, 18, 19, 20, 21, 22, 23, 24, 25, 26, 27, 28, 29]",300,300,-1,16,302,9,0.0
basic,5,42,0,0,0,3,"[0, 3]",2,25,"[1, 2, 4, 5, 6, 7, 8, 9, 10, 11, 13, 15, 17, 18, 19, 20, 21, 22, 23, 24, 25, 26, 27, 28, 29]",255.7959278,12708,12408,3,45,9,1.0
basic,5,42,0,0,0,23,"[0, 3, 23]",3,15,"[1, 2, 4, 5, 6, 7, 8, 9, 11, 15, 17, 22, 24, 25, 29]",202.4573864,13911,1203,1,24,8,1.2042297975308642
basic,5,42,0,0,0,17,"[0, 3, 23, 17]",4,11,"[4, 5, 6, 8, 9, 11, 15, 22, 24, 25, 29]",191.2770465,14510,599,1,14,8,1.192958341617778
basic,5,42,0,0,0,11,"[0, 3, 23, 17, 11]",5,7,"[4, 6, 8, 15, 22, 24, 25]",140.0813435,15658,1148,1,7,8,1.7422648616902974
basic,5,42,0,0,0,24,"[0, 3, 23, 17, 11, 24]",6,2,"[6, 15]",82.0727235,16857,1199,1,1,8,1.6631309430247303
basic,5,42,0,0,0,15,"[0, 3, 23, 17, 11, 24, 15]",7,1,[6],68.47125299,18778,1921,1,0,8,1.6008668931493675
basic,5,42,0,0,1,6,"[0, 3, 23, 17, 11, 24, 15, 6]",8,0,[],19.07489685,20584,1806,1,0,8,1.4594939660868298
basic,5,42,0,1,1,6,"[0, 3, 23, 17, 11, 24, 15, 6]",8,0,[],19.07489685,22153,1569,1,0,8,1.4594939660868298
basic,6,29,0,0,0,0,[0],1,29,"[1, 2, 3, 4, 5, 6, 7, 8, 9, 10, 11, 12, 13, 14, 15, 16, 17, 18, 19, 20, 21, 22, 23, 24, 25, 26, 27, 28, 29]",300,296,-1,1,78,9,0.0
basic,6,29,0,0,0,25,"[0, 25]",2,18,"[1, 2, 4, 5, 6, 7, 9, 10, 12, 13, 14, 15, 16, 17, 22, 26, 27, 28]",223.3449284,18918,18622,13,101,8,1.0
basic,6,29,0,0,0,17,"[0, 25, 17]",3,13,"[1, 4, 5, 6, 7, 9, 10, 12, 13, 14, 22, 27, 28]",188.41643,19937,1019,2,22,8,1.014228463693056
basic,6,29,0,0,0,1,"[0, 25, 17, 1]",4,11,"[4, 5, 6, 7, 10, 12, 13, 14, 22, 27, 28]",149.5191293,20882,945,2,18,8,1.7553639368828857
basic,6,29,0,0,0,14,"[0, 25, 17, 1, 14]",5,8,"[4, 5, 7, 12, 13, 22, 27, 28]",106.5656662,22126,1244,2,9,8,2.137167642879409
basic,6,29,0,0,0,13,"[0, 25, 17, 1, 14, 13]",6,4,"[4, 5, 12, 22]",88.53790978,23585,1459,2,3,8,1.9535489858276616
basic,6,29,0,0,0,5,"[0, 25, 17, 1, 14, 13, 5]",7,2,"[4, 22]",62.82798951,24710,1125,2,0,8,1.9087092890879327
basic,6,29,0,0,1,4,"[0, 25, 17, 1, 14, 13, 5, 4]",8,0,[],10.93386653,26257,1547,1,0,8,1.6444131700810427
basic,6,29,0,1,1,4,"[0, 25, 17, 1, 14, 13, 5, 4]",8,0,[],10.93386653,27510,1253,1,0,8,1.6444131700810427
basic,7,30,0,0,0,0,[0],1,19,"[3, 4, 5, 7, 9, 11, 16, 17, 18, 19, 20, 21, 22, 24, 25, 26, 27, 28, 29]",300,114,-1,5,41,8,0.0
basic,7,30,0,0,0,25,"[0, 25]",2,12,"[3, 5, 7, 9, 11, 16, 18, 19, 20, 24, 27, 29]",121.1005869,6412,6298,7,37,7,1.0
basic,7,30,0,0,0,20,"[0, 25, 20]",3,9,"[3, 5, 7, 9, 11, 18, 19, 27, 29]",99.16887472,7412,1000,5,16,7,1.0037291321296267
basic,7,30,0,0,0,27,"[0, 25, 20, 27]",4,4,"[3, 5, 18, 29]",65.11010199,8503,1091,4,6,7,1.1217072851053165
basic,7,30,0,0,0,3,"[0, 25, 20, 27, 3]",5,3,"[5, 18, 29]",46.00512882,9377,874,4,0,7,1.1140018780928678
basic,7,30,0,0,0,29,"[0, 25, 20, 27, 3, 29]",6,1,[18],27.40405358,10537,1160,1,0,7,1.119672312555708
basic,7,30,0,0,1,18,"[0, 25, 20, 27, 3, 29, 18]",7,0,[],8.090845662,12101,1564,1,0,7,1.1951451398733344
basic,7,30,0,1,1,18,"[0, 25, 20, 27, 3, 29, 18]",7,0,[],8.090845662,15816,3715,1,0,7,1.1951451398733344
basic,8,38,0,0,0,0,[0],1,29,"[1, 2, 3, 4, 5, 6, 7, 8, 9, 10, 11, 12, 13, 14, 15, 16, 17, 18, 19, 20, 21, 22, 23, 24, 25, 26, 27, 28, 29]",300,110,-1,33,506,9,0.0
basic,8,38,0,0,0,19,"[0, 19]",2,23,"[3, 4, 5, 6, 7, 8, 9, 11, 13, 14, 15, 16, 17, 18, 20, 22, 23, 24, 25, 26, 27, 28, 29]",219.5015528,3316,3206,6,61,9,1.0
basic,8,38,0,0,0,17,"[0, 19, 17]",3,21,"[3, 4, 5, 6, 7, 9, 11, 13, 14, 15, 16, 18, 20, 22, 23, 24, 25, 26, 27, 28, 29]",198.1239945,3952,636,6,53,9,1.571793785769489
basic,8,38,0,0,0,20,"[0, 19, 17, 20]",4,17,"[3, 4, 5, 6, 7, 11, 13, 14, 15, 16, 18, 22, 24, 25, 26, 27, 28]",174.3542658,4824,872,6,44,9,2.333182710277297
basic,8,38,0,0,0,4,"[0, 19, 17, 20, 4]",5,10,"[5, 11, 13, 14, 15, 16, 24, 26, 27, 28]",140.4131403,6875,2051,5,22,9,2.276099229646013
basic,8,38,0,0,0,15,"[0, 19, 17, 20, 4, 15]",6,8,"[5, 11, 13, 14, 16, 24, 26, 28]",114.4131403,8025,1150,5,6,9,2.5292671156176403
basic,8,38,0,0,0,16,"[0, 19, 17, 20, 4, 15, 16]",7,2,"[11, 28]",72.79583625,11868,3843,2,0,9,2.0765047644693917
basic,8,38,0,0,0,28,"[0, 19, 17, 20, 4, 15, 16, 28]",8,1,[11],43.79583625,16764,4896,1,0,9,2.3990457975039625
basic,8,38,0,0,1,11,"[0, 19, 17, 20, 4, 15, 16, 28, 11]",9,0,[],16.77732407,17934,1170,1,0,9,3.5444395258240657
basic,8,38,0,1,1,11,"[0, 19, 17, 20, 4, 15, 16, 28, 11]",9,0,[],16.77732407,19534,1600,1,0,9,3.5444395258240657
basic,9,19,0,0,0,0,[0],1,29,"[1, 2, 3, 4, 5, 6, 7, 8, 9, 10, 11, 12, 13, 14, 15, 16, 17, 18, 19, 20, 21, 22, 23, 24, 25, 26, 27, 28, 29]",300,112,-1,12,149,8,0.0
basic,9,19,0,0,0,9,"[0, 9]",2,21,"[1, 4, 5, 6, 7, 10, 11, 12, 13, 14, 15, 19, 20, 21, 22, 23, 24, 25, 27, 28, 29]",185.9956141,10341,10229,13,76,7,1.0
basic,9,19,0,0,0,6,"[0, 9, 6]",3,13,"[4, 7, 10, 11, 13, 14, 20, 21, 22, 24, 27, 28, 29]",144.5589154,11596,1255,13,38,7,1.0111071984935167
basic,9,19,0,0,0,28,"[0, 9, 6, 28]",4,5,"[4, 11, 14, 22, 27]",93.47075631,12194,598,2,4,7,1.2602621425624105
basic,9,19,0,0,0,4,"[0, 9, 6, 28, 4]",5,4,"[11, 14, 22, 27]",82.29041642,14194,2000,2,2,7,1.3210056324457753
basic,9,19,0,0,0,14,"[0, 9, 6, 28, 4, 14]",6,1,[11],32.28041742,15159,965,1,0,7,1.2802078016419174
basic,9,19,0,0,1,11,"[0, 9, 6, 28, 4, 14, 11]",7,0,[],21.4637636,15758,599,1,0,7,1.2703725192277202
basic,9,19,0,1,1,11,"[0, 9, 6, 28, 4, 14, 11]",7,0,[],21.4637636,19709,3951,1,0,7,1.2703725192277202
basic,10,43,0,0,0,0,[0],1,23,"[1, 2, 3, 4, 5, 6, 7, 9, 10, 11, 12, 14, 15, 16, 17, 19, 20, 21, 22, 23, 25, 27, 29]",300,159,-1,16,556,12,0.0
basic,10,43,0,0,0,29,"[0, 29]",2,22,"[1, 2, 3, 4, 5, 6, 7, 9, 10, 11, 12, 14, 15, 16, 17, 19, 20, 21, 22, 23, 25, 27]",277.909278,3777,3618,16,520,12,1.0
basic,10,43,0,0,0,20,"[0, 29, 20]",3,20,"[1, 2, 3, 4, 6, 7, 9, 10, 11, 12, 14, 15, 16, 17, 19, 21, 22, 23, 25, 27]",254.4785289,5072,1295,15,422,12,1.082311746871282
basic,10,43,0,0,0,16,"[0, 29, 20, 16]",4,19,"[1, 2, 3, 4, 6, 7, 9, 10, 11, 12, 14, 15, 17, 19, 21, 22, 23, 25, 27]",231.8511119,6170,1098,15,389,12,1.215201926898219
basic,10,43,0,0,0,25,"[0, 29, 20, 16, 25]",5,14,"[1, 2, 3, 4, 6, 7, 9, 11, 12, 14, 15, 19, 22, 23]",175.7708124,14515,8345,53,282,11,1.566384303308987
basic,10,43,0,0,0,15,"[0, 29, 20, 16, 25, 15]",6,13,"[1, 2, 3, 4, 6, 7, 9, 11, 12, 14, 19, 22, 23]",153.0992443,15381,866,27,108,11,1.776736412604812
basic,10,43,0,0,0,12,"[0, 29, 20, 16, 25, 15, 12]",7,10,"[1, 3, 6, 7, 9, 11, 14, 19, 22, 23]",133.7860364,16710,1329,21,41,11,1.6813323012225032
basic,10,43,0,0,0,3,"[0, 29, 20, 16, 25, 15, 12, 3]",8,9,"[1, 6, 7, 9, 11, 14, 19, 22, 23]",120.7860364,17425,715,20,12,11,1.608740348096123
basic,10,43,0,0,0,22,"[0, 29, 20, 16, 25, 15, 12, 3, 22]",9,6,"[1, 6, 7, 11, 14, 19]",86.07292644,19209,1784,9,2,11,1.793657891802588
basic,10,43,0,0,0,19,"[0, 29, 20, 16, 25, 15, 12, 3, 22, 19]",10,3,"[1, 6, 7]",65.45739831,20312,1103,3,0,11,1.6882745891803936
basic,10,43,0,0,1,1,"[0, 29, 20, 16, 25, 15, 12, 3, 22, 19, 1]",11,0,[],37.2793927,22028,1716,1,0,11,1.825064866046553
basic,10,43,0,1,1,1,"[0, 29, 20, 16, 25, 15, 12, 3, 22, 19, 1]",11,0,[],37.2793927,25280,3252,1,0,11,1.825064866046553
basic,11,39,0,0,0,0,[0],1,28,"[1, 2, 3, 4, 5, 6, 7, 9, 10, 11, 12, 13, 14, 15, 16, 17, 18, 19, 20, 21, 22, 23, 24, 25, 26, 27, 28, 29]",300,344,-1,1,30,10,0.0
basic,11,39,0,0,0,29,"[0, 29]",2,26,"[1, 2, 3, 4, 5, 6, 7, 9, 10, 12, 13, 14, 15, 16, 17, 18, 19, 20, 21, 22, 23, 24, 25, 26, 27, 28]",243.0614366,9173,8829,8,104,9,1.0
basic,11,39,0,0,0,12,"[0, 29, 12]",3,18,"[1, 2, 4, 5, 7, 9, 10, 13, 14, 15, 16, 18, 19, 22, 23, 24, 26, 28]",182.5221931,10920,1747,5,54,9,1.0026200331524904
basic,11,39,0,0,0,10,"[0, 29, 12, 10]",4,16,"[1, 2, 4, 5, 7, 9, 13, 14, 15, 16, 18, 19, 22, 23, 24, 26]",147.0116313,13423,2503,5,34,9,1.2874817019928908
basic,11,39,0,0,0,7,"[0, 29, 12, 10, 7]",5,10,"[1, 2, 5, 13, 16, 18, 19, 22, 24, 26]",113.5900814,14324,901,4,12,9,1.2250826263866774
basic,11,39,0,0,0,26,"[0, 29, 12, 10, 7, 26]",6,5,"[1, 16, 18, 19, 22]",94.90853971,15189,865,3,4,9,1.2697275353190085
basic,11,39,0,0,0,22,"[0, 29, 12, 10, 7, 26, 22]",7,2,"[16, 19]",77.18849457,16492,1303,2,0,9,1.438961743955176
basic,11,39,0,0,0,16,"[0, 29, 12, 10, 7, 26, 22, 16]",8,1,[19],42.18849457,17762,1270,1,0,9,1.3580882130477205
basic,11,39,0,0,1,19,"[0, 29, 12, 10, 7, 26, 22, 16, 19]",9,0,[],24.72424537,21193,3431,1,0,9,1.3646589157842668
basic,11,39,0,1,1,19,"[0, 29, 12, 10, 7, 26, 22, 16, 19]",9,0,[],24.72424537,23895,2702,1,0,9,1.3646589157842668
basic,12,24,0,0,0,0,[0],1,29,"[1, 2, 3, 4, 5, 6, 7, 8, 9, 10, 11, 12, 13, 14, 15, 16, 17, 18, 19, 20, 21, 22, 23, 24, 25, 26, 27, 28, 29]",300,116,-1,4,76,10,0.0
basic,12,24,0,0,0,8,"[0, 8]",2,25,"[1, 2, 3, 4, 6, 7, 9, 10, 11, 13, 14, 15, 16, 17, 19, 20, 21, 22, 23, 24, 25, 26, 27, 28, 29]",189.8864223,5746,5630,3,32,9,1.0
basic,12,24,0,0,0,22,"[0, 8, 22]",3,22,"[2, 3, 4, 6, 9, 10, 11, 13, 14, 15, 16, 17, 19, 20, 21, 23, 24, 25, 26, 27, 28, 29]",176.4700144,6950,1204,2,18,9,1.1722307492646213
basic,12,24,0,0,0,15,"[0, 8, 22, 15]",4,18,"[3, 4, 6, 9, 10, 11, 13, 14, 16, 17, 21, 23, 24, 25, 26, 27, 28, 29]",155.256811,8089,1139,7,29,8,1.2100226365813107
basic,12,24,0,0,0,28,"[0, 8, 22, 15, 28]",5,9,"[3, 4, 9, 11, 13, 16, 23, 26, 27]",109.9798853,9135,1046,4,9,8,1.154268696365267
basic,12,24,0,0,0,23,"[0, 8, 22, 15, 28, 23]",6,5,"[4, 9, 11, 16, 27]",90.95358769,10111,976,4,2,8,1.186519463208946
basic,12,24,0,0,0,11,"[0, 8, 22, 15, 28, 23, 11]",7,2,"[9, 27]",64.02776365,12105,1994,2,0,8,1.17479115036004
basic,12,24,0,0,1,9,"[0, 8, 22, 15, 28, 23, 11, 9]",8,0,[],31.77873266,15419,3314,1,0,8,1.2635931266148863
basic,12,24,0,1,1,9,"[0, 8, 22, 15, 28, 23, 11, 9]",8,0,[],31.77873266,17186,1767,1,0,8,1.2635931266148863
basic,13,22,0,0,0,0,[0],1,29,"[1, 2, 3, 4, 5, 6, 7, 8, 9, 10, 11, 12, 13, 14, 15, 16, 17, 18, 19, 20, 21, 22, 23, 24, 25, 26, 27, 28, 29]",300,129,-1,31,704,9,0.0
basic,13,22,0,0,0,16,"[0, 16]",2,21,"[1, 3, 6, 7, 8, 9, 11, 13, 14, 15, 17, 18, 19, 20, 21, 22, 24, 25, 27, 28, 29]",218.605897,9733,9604,17,147,9,1.0
basic,13,22,0,0,0,28,"[0, 16, 28]",3,13,"[6, 7, 9, 13, 14, 17, 19, 20, 21, 22, 24, 25, 29]",184.1675463,10745,1012,12,61,9,1.047282311284478
basic,13,22,0,0,0,6,"[0, 16, 28, 6]",4,12,"[7, 9, 13, 14, 17, 19, 20, 21, 22, 24, 25, 29]",154.1675463,11705,960,12,43,9,1.645645870580622
basic,13,22,0,0,0,9,"[0, 16, 28, 6, 9]",5,8,"[7, 14, 17, 19, 20, 21, 24, 29]",127.5404924,13761,2056,8,17,9,1.925750226630103
basic,13,22,0,0,0,19,"[0, 16, 28, 6, 9, 19]",6,6,"[7, 14, 17, 21, 24, 29]",107.1444143,15913,2152,3,7,9,2.4220750331476455
basic,13,22,0,0,0,29,"[0, 16, 28, 6, 9, 19, 29]",7,4,"[7, 14, 17, 24]",92.11111796,16483,570,2,2,9,2.6996279574991067
basic,13,22,0,0,0,14,"[0, 16, 28, 6, 9, 19, 29, 14]",8,1,[7],33.86165444,21929,5446,1,0,9,2.0544639927929462
basic,13,22,0,0,1,7,"[0, 16, 28, 6, 9, 19, 29, 14, 7]",9,0,[],20.82324963,23372,1443,1,0,9,2.219817088951114
basic,13,22,0,1,1,7,"[0, 16, 28, 6, 9, 19, 29, 14, 7]",9,0,[],20.82324963,25929,2557,1,0,9,2.219817088951114
basic,14,34,0,0,0,0,[0],1,25,"[1, 3, 4, 5, 6, 7, 8, 9, 10, 11, 12, 13, 15, 18, 19, 20, 21, 22, 23, 24, 25, 26, 27, 28, 29]",300,109,-1,12,367,10,0.0
basic,14,34,0,0,0,13,"[0, 13]",2,24,"[1, 3, 4, 5, 6, 7, 8, 9, 10, 11, 12, 15, 18, 19, 20, 21, 22, 23, 24, 25, 26, 27, 28, 29]",279.9750156,5274,5165,12,331,10,1.0
basic,14,34,0,0,0,1,"[0, 13, 1]",3,16,"[3, 5, 7, 8, 9, 10, 11, 12, 19, 21, 22, 23, 24, 25, 27, 29]",211.8574701,6753,1479,3,92,10,1.0010381285747127
basic,14,34,0,0,0,8,"[0, 13, 1, 8]",4,14,"[3, 5, 7, 9, 10, 11, 12, 19, 22, 23, 24, 25, 27, 29]",201.0871405,7244,491,2,54,10,1.1636807
basic,14,34,0,0,0,25,"[0, 13, 1, 8, 25]",5,12,"[3, 5, 7, 9, 10, 11, 12, 22, 23, 24, 27, 29]",183.999133,8443,1199,2,28,10,1.1396208815936457
basic,14,34,0,0,0,24,"[0, 13, 1, 8, 25, 24]",6,11,"[3, 5, 7, 9, 10, 11, 12, 22, 23, 27, 29]",166.5062774,9492,1049,2,23,10,1.374180768736554
basic,14,34,0,0,0,12,"[0, 13, 1, 8, 25, 24, 12]",7,7,"[7, 9, 10, 11, 22, 23, 27]",115.4670767,10821,1329,1,8,10,1.4994254760835948
basic,14,34,0,0,0,7,"[0, 13, 1, 8, 25, 24, 12, 7]",8,5,"[9, 11, 22, 23, 27]",100.4337804,11829,1008,1,4,10,1.758992610425009
basic,14,34,0,0,0,23,"[0, 13, 1, 8, 25, 24, 12, 7, 23]",9,1,[27],72.27352467,13563,1734,1,0,10,2.399781305190153
basic,14,34,0,0,1,27,"[0, 13, 1, 8, 25, 24, 12, 7, 23, 27]",10,0,[],18.60789321,17820,4257,1,0,10,4.766619878750327
basic,14,34,0,1,1,27,"[0, 13, 1, 8, 25, 24, 12, 7, 23, 27]",10,0,[],18.60789321,19339,1519,1,0,10,4.766619878750327
basic,15,37,0,0,0,0,[0],1,29,"[1, 2, 3, 4, 5, 6, 7, 8, 9, 10, 11, 12, 13, 14, 15, 16, 17, 18, 19, 20, 21, 22, 23, 24, 25, 26, 27, 28, 29]",300,110,-1,6,168,10,0.0
basic,15,37,0,0,0,18,"[0, 18]",2,19,"[1, 2, 4, 6, 7, 9, 10, 12, 14, 15, 17, 19, 20, 21, 22, 23, 26, 28, 29]",202.4090168,13415,13305,6,89,10,1.0
basic,15,37,0,0,0,7,"[0, 18, 7]",3,12,"[1, 2, 4, 9, 15, 17, 19, 20, 21, 22, 26, 29]",175.2428614,14811,1396,6,53,10,1.0413073512834488
basic,15,37,0,0,0,22,"[0, 18, 7, 22]",4,8,"[1, 2, 4, 15, 19, 20, 21, 26]",125.2428614,15606,795,6,29,10,1.0730792320325544
basic,15,37,0,0,0,4,"[0, 18, 7, 22, 4]",5,7,"[1, 2, 15, 19, 20, 21, 26]",100.2428614,16573,967,4,16,10,1.2290245562206235
basic,15,37,0,0,0,2,"[0, 18, 7, 22, 4, 2]",6,5,"[1, 15, 19, 20, 21]",88.84110714,17487,914,4,7,10,1.3968113858365216
basic,15,37,0,0,0,1,"[0, 18, 7, 22, 4, 2, 1]",7,4,"[15, 19, 20, 21]",71.63645661,18348,861,4,3,10,1.4424239294761476
basic,15,37,0,0,0,20,"[0, 18, 7, 22, 4, 2, 1, 20]",8,3,"[15, 19, 21]",37.40197107,19341,993,2,1,10,1.7518607796010042
basic,15,37,0,0,0,21,"[0, 18, 7, 22, 4, 2, 1, 20, 21]",9,1,[15],22.97976597,20122,781,1,0,10,1.7849997782949483
basic,15,37,0,0,1,15,"[0, 18, 7, 22, 4, 2, 1, 20, 21, 15]",10,0,[],7.979765971,20745,623,1,0,10,1.7549597142828803
basic,15,37,0,1,1,15,"[0, 18, 7, 22, 4, 2, 1, 20, 21, 15]",10,0,[],7.979765971,23985,3240,1,0,10,1.7549597142828803
basic,16,12,0,0,0,0,[0],1,29,"[1, 2, 3, 4, 5, 6, 7, 8, 9, 10, 11, 12, 13, 14, 15, 16, 17, 18, 19, 20, 21, 22, 23, 24, 25, 26, 27, 28, 29]",300,116,-1,2,32,9,0.0
basic,16,12,0,0,0,22,"[0, 22]",2,22,"[2, 4, 5, 6, 7, 9, 10, 12, 13, 14, 15, 16, 17, 18, 19, 21, 23, 24, 25, 27, 28, 29]",211.9943184,4908,4792,6,42,8,1.0
basic,16,12,0,0,0,16,"[0, 22, 16]",3,12,"[2, 4, 5, 6, 7, 12, 14, 19, 23, 24, 25, 27]",190.9943184,5840,932,6,24,8,1.2017164145167045
basic,16,12,0,0,0,4,"[0, 22, 16, 4]",4,9,"[2, 6, 7, 12, 14, 19, 24, 25, 27]",156.7890556,6767,927,6,14,8,1.146531713305579
basic,16,12,0,0,0,12,"[0, 22, 16, 4, 12]",5,4,"[14, 19, 24, 27]",114.5990094,7586,819,4,3,8,1.1221389456954312
basic,16,12,0,0,0,27,"[0, 22, 16, 4, 12, 27]",6,3,"[14, 19, 24]",90.24741807,8169,583,2,1,8,1.2262878338287035
basic,16,12,0,0,0,14,"[0, 22, 16, 4, 12, 27, 14]",7,1,[24],61.59432051,9776,1607,1,0,8,1.2804562106751427
basic,16,12,0,0,1,24,"[0, 22, 16, 4, 12, 27, 14, 24]",8,0,[],44.38966997,10404,628,1,0,8,1.4322660007679802
basic,16,12,0,1,1,24,"[0, 22, 16, 4, 12, 27, 14, 24]",8,0,[],44.38966997,13082,2678,1,0,8,1.4322660007679802
basic,17,4,0,0,0,0,[0],1,26,"[3, 4, 5, 6, 7, 8, 10, 11, 12, 13, 14, 15, 16, 17, 18, 19, 20, 21, 22, 23, 24, 25, 26, 27, 28, 29]",300,355,-1,4,489,10,0.0
basic,17,4,0,0,0,28,"[0, 28]",2,21,"[3, 4, 5, 6, 10, 11, 12, 13, 14, 15, 16, 17, 19, 20, 21, 22, 23, 24, 25, 26, 27]",225.9392142,13900,13545,2,216,10,1.0
basic,17,4,0,0,0,14,"[0, 28, 14]",3,13,"[3, 4, 5, 6, 11, 13, 16, 17, 20, 21, 22, 24, 25]",159.6972335,16503,2603,1,26,10,1.0273973946789214
basic,17,4,0,0,0,25,"[0, 28, 14, 25]",4,12,"[3, 4, 5, 6, 11, 13, 16, 17, 20, 21, 22, 24]",143.572718,17499,996,1,25,10,1.233547772313525
basic,17,4,0,0,0,11,"[0, 28, 14, 25, 11]",5,10,"[3, 4, 5, 6, 13, 16, 17, 20, 21, 22]",124.7844238,18166,667,1,15,10,1.425978575879479
basic,17,4,0,0,0,16,"[0, 28, 14, 25, 11, 16]",6,9,"[3, 4, 5, 6, 13, 17, 20, 21, 22]",109.7844238,18796,630,1,12,10,1.3799325158051412
basic,17,4,0,0,0,17,"[0, 28, 14, 25, 11, 16, 17]",7,5,"[3, 5, 20, 21, 22]",83.70761416,19566,770,1,5,10,1.3195184878861832
basic,17,4,0,0,0,21,"[0, 28, 14, 25, 11, 16, 17, 21]",8,1,[22],34.45317274,22703,3137,1,0,9,1.7966566629354186
basic,17,4,0,0,1,22,"[0, 28, 14, 25, 11, 16, 17, 21, 22]",9,0,[],23.40781172,23831,1128,1,0,9,1.7433011729935863
basic,17,4,0,1,1,22,"[0, 28, 14, 25, 11, 16, 17, 21, 22]",9,0,[],23.40781172,27178,3347,1,0,9,1.7433011729935863
basic,18,31,0,0,0,0,[0],1,27,"[1, 3, 4, 5, 6, 7, 8, 10, 11, 12, 13, 14, 15, 16, 17, 18, 19, 20, 21, 22, 23, 24, 25, 26, 27, 28, 29]",300,120,-1,2,87,10,0.0
basic,18,31,0,0,0,14,"[0, 14]",2,25,"[1, 3, 5, 6, 7, 8, 10, 11, 12, 13, 15, 16, 17, 18, 19, 20, 21, 22, 23, 24, 25, 26, 27, 28, 29]",263.861378,2802,2682,2,59,10,1.0
basic,18,31,0,0,0,27,"[0, 14, 27]",3,22,"[1, 3, 5, 6, 7, 8, 10, 11, 12, 13, 15, 16, 17, 18, 19, 20, 21, 22, 24, 25, 28, 29]",235.6833724,3897,1095,1,39,10,1.5881859159302467
basic,18,31,0,0,0,8,"[0, 14, 27, 8]",4,20,"[1, 3, 5, 6, 7, 10, 11, 12, 13, 16, 17, 18, 19, 20, 21, 22, 24, 25, 28, 29]",224.6380114,5068,1171,1,36,10,2.1665048452331277
basic,18,31,0,0,0,18,"[0, 14, 27, 8, 18]",5,15,"[1, 5, 6, 7, 11, 12, 13, 16, 17, 19, 20, 22, 25, 28, 29]",188.7911147,6233,1165,1,26,10,1.7273375741920205
basic,18,31,0,0,0,11,"[0, 14, 27, 8, 18, 11]",6,11,"[1, 5, 7, 12, 16, 17, 19, 20, 22, 25, 28]",153.9055876,11269,5036,13,17,9,2.386348208737804
basic,18,31,0,0,0,5,"[0, 14, 27, 8, 18, 11, 5]",7,5,"[16, 17, 20, 25, 28]",110.2249283,12477,1208,3,3,9,2.163249612867222
basic,18,31,0,0,0,28,"[0, 14, 27, 8, 18, 11, 5, 28]",8,2,"[16, 17]",90.00117988,13403,926,2,0,9,1.9564635733184719
basic,18,31,0,0,1,16,"[0, 14, 27, 8, 18, 11, 5, 28, 16]",9,0,[],56.38570725,14450,1047,1,0,9,1.824071502589619
basic,18,31,0,1,1,16,"[0, 14, 27, 8, 18, 11, 5, 28, 16]",9,0,[],56.38570725,17214,2764,1,0,9,1.824071502589619
basic,19,26,0,0,0,0,[0],1,29,"[1, 2, 3, 4, 5, 6, 7, 8, 9, 10, 11, 12, 13, 14, 15, 16, 17, 18, 19, 20, 21, 22, 23, 24, 25, 26, 27, 28, 29]",300,340,-1,9,226,9,0.0
basic,19,26,0,0,0,21,"[0, 21]",2,25,"[2, 3, 4, 5, 6, 7, 8, 10, 11, 12, 13, 14, 15, 16, 17, 18, 19, 22, 23, 24, 25, 26, 27, 28, 29]",211.1349337,21889,21549,7,90,9,1.0
basic,19,26,0,0,0,13,"[0, 21, 13]",3,21,"[3, 4, 5, 6, 7, 8, 10, 11, 12, 14, 15, 16, 17, 18, 19, 22, 23, 24, 25, 26, 29]",188.9989901,23038,1149,6,45,9,1.0103952279992225
basic,19,26,0,0,0,5,"[0, 21, 13, 5]",4,12,"[3, 4, 11, 14, 16, 17, 18, 22, 23, 25, 26, 29]",150.7106107,23810,772,2,10,8,1.0086890649024711
basic,19,26,0,0,0,23,"[0, 21, 13, 5, 23]",5,8,"[3, 4, 11, 14, 16, 17, 22, 29]",118.0150452,24462,652,2,7,8,1.3518621918690494
basic,19,26,0,0,0,16,"[0, 21, 13, 5, 23, 16]",6,4,"[4, 14, 17, 29]",64.77971862,25337,875,2,3,8,2.1011863559657242
basic,19,26,0,0,0,29,"[0, 21, 13, 5, 23, 16, 29]",7,2,"[4, 17]",40.57228175,26159,822,2,0,8,2.123178325538451
basic,19,26,0,0,1,4,"[0, 21, 13, 5, 23, 16, 29, 4]",8,0,[],16.57228175,27129,970,1,0,8,2.338467952972574
basic,19,26,0,1,1,4,"[0, 21, 13, 5, 23, 16, 29, 4]",8,0,[],16.57228175,30672,3543,1,0,8,2.338467952972574
basic,20,7,0,0,0,0,[0],1,29,"[1, 2, 3, 4, 5, 6, 7, 8, 9, 10, 11, 12, 13, 14, 15, 16, 17, 18, 19, 20, 21, 22, 23, 24, 25, 26, 27, 28, 29]",300,328,-1,3,79,9,0.0
basic,20,7,0,0,0,25,"[0, 25]",2,20,"[2, 3, 4, 5, 6, 7, 10, 13, 14, 15, 16, 18, 19, 20, 21, 22, 23, 24, 27, 28]",181.5939191,7435,7107,5,33,8,1.0
basic,20,7,0,0,0,4,"[0, 25, 4]",3,11,"[2, 6, 7, 13, 15, 16, 18, 19, 20, 21, 23]",156.8552853,9244,1809,2,14,8,1.0193465608331511
basic,20,7,0,0,0,20,"[0, 25, 4, 20]",4,8,"[2, 6, 7, 13, 15, 16, 18, 19]",137.2084026,10160,916,1,9,8,1.085904909082323
basic,20,7,0,0,0,18,"[0, 25, 4, 20, 18]",5,7,"[2, 6, 7, 13, 15, 16, 19]",124.4021541,10631,471,1,5,8,1.2264883846453758
basic,20,7,0,0,0,7,"[0, 25, 4, 20, 18, 7]",6,2,"[2, 19]",83.17109789,11514,883,1,1,8,1.185264473968278
basic,20,7,0,0,0,19,"[0, 25, 4, 20, 18, 7, 19]",7,1,[2],53.76021555,12797,1283,1,0,8,1.3016904288278204
basic,20,7,0,0,1,2,"[0, 25, 4, 20, 18, 7, 19, 2]",8,0,[],23.61058868,14233,1436,1,0,8,1.3168868000947171
basic,20,7,0,1,1,2,"[0, 25, 4, 20, 18, 7, 19, 2]",8,0,[],23.61058868,16215,1982,1,0,8,1.3168868000947171
basic,21,0,0,0,0,0,[0],1,27,"[2, 3, 4, 5, 6, 7, 8, 9, 10, 11, 12, 13, 14, 15, 16, 17, 19, 20, 21, 22, 23, 24, 25, 26, 27, 28, 29]",300,321,-1,104,1136,9,0.0
basic,21,0,0,0,0,5,"[0, 5]",2,24,"[2, 3, 4, 7, 8, 9, 11, 12, 13, 14, 15, 16, 17, 19, 20, 21, 22, 23, 24, 25, 26, 27, 28, 29]",164.5156836,5201,4880,5,112,9,1.0
basic,21,0,0,0,0,4,"[0, 5, 4]",3,20,"[2, 3, 7, 8, 9, 11, 12, 13, 14, 15, 17, 19, 20, 21, 22, 23, 24, 25, 26, 28]",139.4358112,5999,798,4,61,9,1.0257023158632692
basic,21,0,0,0,0,26,"[0, 5, 4, 26]",4,18,"[3, 7, 8, 9, 11, 12, 13, 14, 15, 17, 19, 20, 21, 22, 23, 24, 25, 28]",127.3942166,7401,1402,4,26,9,1.0684029773259323
basic,21,0,0,0,0,24,"[0, 5, 4, 26, 24]",5,12,"[3, 7, 8, 9, 11, 12, 15, 17, 19, 20, 23, 28]",110.2769738,7914,513,4,16,9,1.1372083333602885
basic,21,0,0,0,0,15,"[0, 5, 4, 26, 24, 15]",6,8,"[3, 7, 8, 9, 11, 12, 17, 19]",86.93173875,9200,1286,4,7,9,1.1271717591548023
basic,21,0,0,0,0,7,"[0, 5, 4, 26, 24, 15, 7]",7,4,"[3, 8, 17, 19]",55.86728962,10929,1729,3,2,9,1.190834598819092
basic,21,0,0,0,0,8,"[0, 5, 4, 26, 24, 15, 7, 8]",8,2,"[3, 19]",36.76231644,13430,2501,2,0,9,1.1832849301094388
basic,21,0,0,0,1,19,"[0, 5, 4, 26, 24, 15, 7, 8, 19]",9,0,[],0.915419783,15480,2050,1,0,9,1.2048016585679566
basic,21,0,0,1,1,19,"[0, 5, 4, 26, 24, 15, 7, 8, 19]",9,0,[],0.915419783,17995,2515,1,0,9,1.2048016585679566
basic,22,25,0,0,0,0,[0],1,28,"[1, 2, 3, 4, 5, 7, 8, 9, 10, 11, 12, 13, 14, 15, 16, 17, 18, 19, 20, 21, 22, 23, 24, 25, 26, 27, 28, 29]",300,358,-1,5,94,10,0.0
basic,22,25,0,0,0,23,"[0, 23]",2,23,"[1, 2, 3, 5, 7, 8, 9, 11, 12, 13, 14, 16, 17, 19, 20, 21, 22, 24, 25, 26, 27, 28, 29]",259.7756293,7640,7282,3,33,10,1.0
basic,22,25,0,0,0,19,"[0, 23, 19]",3,21,"[1, 2, 3, 5, 7, 8, 9, 11, 12, 13, 14, 16, 17, 20, 21, 22, 24, 25, 27, 28, 29]",223.9287326,8491,851,3,24,10,1.583101227007039
basic,22,25,0,0,0,29,"[0, 23, 19, 29]",4,19,"[1, 2, 3, 5, 7, 8, 9, 11, 12, 13, 14, 16, 17, 20, 21, 22, 24, 25, 28]",207.649912,9060,569,3,17,10,1.474631541426484
basic,22,25,0,0,0,7,"[0, 23, 19, 29, 7]",5,8,"[3, 8, 9, 11, 13, 22, 24, 28]",122.5029802,10953,1893,3,14,9,1.514470870601519
basic,22,25,0,0,0,24,"[0, 23, 19, 29, 7, 24]",6,5,"[3, 8, 9, 13, 28]",97.74414339,11850,897,3,7,9,1.4390787962293592
basic,22,25,0,0,0,9,"[0, 23, 19, 29, 7, 24, 9]",7,4,"[3, 8, 13, 28]",79.71638701,12719,869,3,3,9,1.41108906497037
basic,22,25,0,0,0,3,"[0, 23, 19, 29, 7, 24, 9, 3]",8,3,"[8, 13, 28]",49.45089511,15006,2287,3,0,9,1.3531931174543586
basic,22,25,0,0,1,28,"[0, 23, 19, 29, 7, 24, 9, 3, 28]",9,0,[],18.14594342,17282,2276,1,0,9,1.3025090795911942
basic,22,25,0,1,1,28,"[0, 23, 19, 29, 7, 24, 9, 3, 28]",9,0,[],18.14594342,18773,1491,1,0,9,1.3025090795911942
undo,23,6,0,0,0,0,[0],1,29,"[1, 2, 3, 4, 5, 6, 7, 8, 9, 10, 11, 12, 13, 14, 15, 16, 17, 18, 19, 20, 21, 22, 23, 24, 25, 26, 27, 28, 29]",300,125,-1,180,4304,10,0.0
undo,23,6,0,0,0,3,"[0, 3]",2,28,"[1, 2, 4, 5, 6, 7, 8, 9, 10, 11, 12, 13, 14, 15, 16, 17, 18, 19, 20, 21, 22, 23, 24, 25, 26, 27, 28, 29]",266.4738908,27573,27448,90,1607,10,1.0
undo,23,6,0,0,0,10,"[0, 3, 10]",3,27,"[1, 2, 4, 5, 6, 7, 8, 9, 11, 12, 13, 14, 15, 16, 17, 18, 19, 20, 21, 22, 23, 24, 25, 26, 27, 28, 29]",215.2293789,29980,2407,8,136,10,1.0050517746249001
undo,23,6,0,0,0,24,"[0, 3, 10, 24]",4,23,"[1, 2, 4, 5, 6, 7, 8, 11, 13, 14, 16, 17, 18, 19, 20, 21, 22, 23, 25, 26, 27, 28, 29]",201.812971,32425,2445,8,85,10,1.0091851911500884
undo,23,6,0,0,0,17,"[0, 3, 10, 24, 17]",5,19,"[1, 2, 4, 5, 6, 7, 8, 11, 13, 14, 16, 18, 20, 21, 22, 23, 26, 27, 29]",172.5384087,33189,764,8,53,10,1.8060138032707682
undo,23,6,0,0,0,18,"[0, 3, 10, 24, 17, 18]",6,15,"[1, 2, 6, 7, 8, 13, 14, 16, 20, 21, 22, 23, 26, 27, 29]",158.6100204,34221,1032,7,36,10,2.3216150751946008
undo,23,6,0,0,0,16,"[0, 3, 10, 24, 17, 18, 16]",7,13,"[1, 2, 6, 7, 13, 14, 20, 21, 22, 23, 26, 27, 29]",135.2647853,35799,1578,7,21,10,2.2822729587843544
undo,23,6,0,0,0,29,"[0, 3, 10, 24, 17, 18, 16, 29]",8,7,"[6, 14, 20, 21, 22, 23, 27]",98.57691268,37882,2083,6,4,10,1.8911507070056388
undo,23,6,0,0,0,23,"[0, 3, 10, 24, 17, 18, 16, 29, 23]",9,2,"[6, 22]",51.05849519,41257,3375,2,0,10,1.8549852217940308
undo,23,6,0,0,1,6,"[0, 3, 10, 24, 17, 18, 16, 29, 23, 6]",10,0,[],15.70315613,42755,1498,1,0,10,1.7651720921259988
undo,23,6,0,1,1,6,"[0, 3, 10, 24, 17, 18, 16, 29, 23, 6]",10,0,[],15.70315613,44216,1461,1,0,10,1.7651720921259988
undo,24,15,0,0,0,0,[0],1,25,"[1, 2, 3, 4, 7, 8, 9, 10, 11, 12, 13, 14, 15, 16, 18, 20, 21, 22, 23, 24, 25, 26, 27, 28, 29]",300,304,-1,4,65,9,0.0
undo,24,15,0,0,0,7,"[0, 7]",2,23,"[1, 3, 4, 8, 9, 10, 11, 12, 13, 14, 15, 16, 18, 20, 21, 22, 23, 24, 25, 26, 27, 28, 29]",215.1884442,9964,9660,30,107,8,1.0
undo,24,15,0,0,0,11,"[0, 7, 11]",3,18,"[3, 4, 8, 9, 10, 12, 13, 14, 15, 16, 18, 20, 21, 22, 23, 25, 27, 29]",173.7035072,11919,1955,12,34,8,1.0171318876095128
undo,24,15,0,0,0,3,"[0, 7, 11, 3]",4,13,"[4, 10, 12, 13, 14, 15, 16, 18, 20, 21, 22, 25, 27]",162.3017529,12502,583,7,21,8,1.0401878806820521
undo,24,15,0,0,0,16,"[0, 7, 11, 3, 16]",5,9,"[4, 10, 12, 13, 14, 15, 18, 21, 22]",137.2218805,14606,2104,5,6,8,1.4258499651326737
undo,24,15,0,0,0,22,"[0, 7, 11, 3, 16, 22]",6,4,"[4, 13, 14, 15]",78.36612462,16130,1524,2,2,8,1.284645195326425
undo,24,15,0,0,0,15,"[0, 7, 11, 3, 16, 22, 15]",7,1,[13],52.75362767,16976,846,1,0,8,1.2590218300860974
undo,24,15,0,0,1,13,"[0, 7, 11, 3, 16, 22, 15, 13]",8,0,[],37.48929015,18185,1209,1,0,8,1.3103278820622872
undo,24,15,0,1,1,13,"[0, 7, 11, 3, 16, 22, 15, 13]",8,0,[],37.48929015,20496,2311,1,0,8,1.3103278820622872
undo,25,1,0,0,0,0,[0],1,26,"[1, 2, 4, 5, 7, 8, 9, 10, 11, 12, 13, 14, 15, 16, 17, 18, 19, 20, 21, 22, 23, 24, 25, 26, 28, 29]",300,308,-1,6,74,7,0.0
undo,25,1,0,0,0,14,"[0, 14]",2,19,"[1, 4, 5, 8, 9, 13, 15, 17, 18, 19, 20, 21, 22, 23, 24, 25, 26, 28, 29]",200.1901808,3731,3423,5,42,7,1.0
undo,25,1,0,0,0,17,"[0, 14, 17]",3,15,"[1, 4, 5, 8, 9, 13, 15, 18, 19, 20, 22, 23, 25, 28, 29]",147.8356204,5865,2134,5,27,7,1.0028844724416826
undo,25,1,0,0,0,1,"[0, 14, 17, 1]",4,12,"[4, 5, 8, 9, 15, 18, 20, 22, 23, 25, 28, 29]",123.4840291,7403,1538,5,15,7,1.0264985578353567
undo,25,1,0,0,0,28,"[0, 14, 17, 1, 28]",5,5,"[9, 15, 22, 23, 29]",88.59850198,8427,1024,5,3,7,1.0339861575999345
undo,25,1,0,0,0,23,"[0, 14, 17, 1, 28, 23]",6,2,"[15, 22]",51.70676849,10432,2005,2,0,7,1.0327458250705703
undo,25,1,0,0,1,15,"[0, 14, 17, 1, 28, 23, 15]",7,0,[],20.81987807,11906,1474,1,0,7,1.1948681641401226
undo,25,1,0,1,1,15,"[0, 14, 17, 1, 28, 23, 15]",7,0,[],20.81987807,13957,2051,1,0,7,1.1948681641401226
undo,26,7,0,0,0,0,[0],1,29,"[1, 2, 3, 4, 5, 6, 7, 8, 9, 10, 11, 12, 13, 14, 15, 16, 17, 18, 19, 20, 21, 22, 23, 24, 25, 26, 27, 28, 29]",300,175,-1,3,79,9,0.0
undo,26,7,0,0,0,25,"[0, 25]",2,20,"[2, 3, 4, 5, 6, 7, 10, 13, 14, 15, 16, 18, 19, 20, 21, 22, 23, 24, 27, 28]",181.5939191,7195,7020,5,33,8,1.0
undo,26,7,0,0,0,4,"[0, 25, 4]",3,11,"[2, 6, 7, 13, 15, 16, 18, 19, 20, 21, 23]",156.8552853,8697,1502,2,14,8,1.0193465608331511
undo,26,7,0,0,0,18,"[0, 25, 4, 18]",4,9,"[2, 6, 7, 13, 15, 16, 19, 20, 23]",129.3962249,10052,1355,1,5,8,1.1916065795930246
undo,26,7,0,0,0,20,"[0, 25, 4, 18, 20]",5,6,"[2, 6, 7, 13, 16, 19]",116.5899764,11254,1202,1,3,8,1.2234405717683847
undo,26,7,0,0,0,7,"[0, 25, 4, 18, 20, 7]",6,2,"[2, 19]",76.09306295,12254,1000,1,1,8,1.2239555491812688
undo,26,7,0,0,0,19,"[0, 25, 4, 18, 20, 7, 19]",7,1,[2],46.68218061,12928,674,1,0,8,1.3391068453377923
undo,26,7,0,0,1,2,"[0, 25, 4, 18, 20, 7, 19, 2]",8,0,[],16.53255375,15511,2583,1,0,8,1.3506108516978905
undo,26,7,0,1,1,2,"[0, 25, 4, 18, 20, 7, 19, 2]",8,0,[],16.53255375,17039,1528,1,0,8,1.3506108516978905
undo,27,34,0,0,0,0,[0],1,25,"[1, 3, 4, 5, 6, 7, 8, 9, 10, 11, 12, 13, 15, 18, 19, 20, 21, 22, 23, 24, 25, 26, 27, 28, 29]",300,147,-1,12,367,10,0.0
undo,27,34,0,0,0,13,"[0, 13]",2,24,"[1, 3, 4, 5, 6, 7, 8, 9, 10, 11, 12, 15, 18, 19, 20, 21, 22, 23, 24, 25, 26, 27, 28, 29]",279.9750156,4555,4408,12,331,10,1.0
undo,27,34,0,0,0,1,"[0, 13, 1]",3,16,"[3, 5, 7, 8, 9, 10, 11, 12, 19, 21, 22, 23, 24, 25, 27, 29]",211.8574701,5482,927,3,92,10,1.0010381285747127
undo,27,34,0,0,0,8,"[0, 13, 1, 8]",4,14,"[3, 5, 7, 9, 10, 11, 12, 19, 22, 23, 24, 25, 27, 29]",201.0871405,6181,699,2,54,10,1.1636807
undo,27,34,0,0,0,25,"[0, 13, 1, 8, 25]",5,12,"[3, 5, 7, 9, 10, 11, 12, 22, 23, 24, 27, 29]",183.999133,7333,1152,2,28,10,1.1396208815936457
undo,27,34,0,0,0,24,"[0, 13, 1, 8, 25, 24]",6,11,"[3, 5, 7, 9, 10, 11, 12, 22, 23, 27, 29]",166.5062774,8131,798,2,23,10,1.374180768736554
undo,27,34,0,0,0,12,"[0, 13, 1, 8, 25, 24, 12]",7,7,"[7, 9, 10, 11, 22, 23, 27]",115.4670767,8750,619,1,8,10,1.4994254760835948
undo,27,34,0,0,0,7,"[0, 13, 1, 8, 25, 24, 12, 7]",8,5,"[9, 11, 22, 23, 27]",100.4337804,9211,461,1,4,10,1.758992610425009
undo,27,34,0,0,0,23,"[0, 13, 1, 8, 25, 24, 12, 7, 23]",9,1,[27],72.27352467,9785,574,1,0,10,2.399781305190153
undo,27,34,0,0,1,27,"[0, 13, 1, 8, 25, 24, 12, 7, 23, 27]",10,0,[],18.60789321,11086,1301,1,0,10,4.766619878750327
undo,27,34,0,1,1,27,"[0, 13, 1, 8, 25, 24, 12, 7, 23, 27]",10,0,[],18.60789321,13222,2136,1,0,10,4.766619878750327
undo,28,11,0,0,0,0,[0],1,25,"[1, 2, 3, 4, 5, 6, 8, 9, 10, 11, 12, 13, 14, 15, 16, 17, 18, 19, 20, 22, 23, 25, 26, 27, 28]",300,309,-1,6,374,12,0.0
undo,28,11,0,0,0,8,"[0, 8]",2,19,"[1, 2, 4, 5, 6, 10, 11, 12, 14, 15, 17, 18, 19, 22, 23, 25, 26, 27, 28]",154.7932508,3342,3033,181,767,9,1.0
undo,28,11,0,0,0,17,"[0, 8, 17]",3,15,"[1, 2, 4, 5, 6, 11, 12, 15, 18, 19, 22, 23, 25, 27, 28]",140.4754298,3862,520,86,201,9,1.0846240899450907
undo,28,11,0,0,0,15,"[0, 8, 17, 15]",4,13,"[1, 2, 5, 6, 11, 12, 18, 19, 22, 23, 25, 27, 28]",127.8263191,4361,499,67,51,9,1.0975608447713743
undo,28,11,0,0,0,11,"[0, 8, 17, 15, 11]",5,9,"[2, 5, 6, 12, 19, 22, 25, 27, 28]",109.7155489,4863,502,25,3,9,1.0975838566653757
undo,28,11,0,0,0,28,"[0, 8, 17, 15, 11, 28]",6,4,"[2, 5, 19, 22]",90.29906103,5892,1029,7,2,9,1.2135235291684319
undo,28,11,0,0,0,5,"[0, 8, 17, 15, 11, 28, 5]",7,2,"[2, 22]",72.41051721,7044,1152,2,0,9,1.3988895370454302
undo,28,11,0,0,0,2,"[0, 8, 17, 15, 11, 28, 5, 2]",8,1,[22],55.41051721,7657,613,1,0,9,1.3703405989501332
undo,28,11,0,0,1,22,"[0, 8, 17, 15, 11, 28, 5, 2, 22]",9,0,[],45.36064159,8290,633,1,0,9,1.3506296271324352
undo,28,11,0,1,1,22,"[0, 8, 17, 15, 11, 28, 5, 2, 22]",9,0,[],45.36064159,13545,5255,1,0,9,1.3506296271324352
undo,29,38,0,0,0,0,[0],1,29,"[1, 2, 3, 4, 5, 6, 7, 8, 9, 10, 11, 12, 13, 14, 15, 16, 17, 18, 19, 20, 21, 22, 23, 24, 25, 26, 27, 28, 29]",300,124,-1,33,506,9,0.0
undo,29,38,0,0,0,19,"[0, 19]",2,23,"[3, 4, 5, 6, 7, 8, 9, 11, 13, 14, 15, 16, 17, 18, 20, 22, 23, 24, 25, 26, 27, 28, 29]",219.5015528,2120,1996,6,61,9,1.0
undo,29,38,0,0,0,17,"[0, 19, 17]",3,21,"[3, 4, 5, 6, 7, 9, 11, 13, 14, 15, 16, 18, 20, 22, 23, 24, 25, 26, 27, 28, 29]",198.1239945,2820,700,6,53,9,1.571793785769489
undo,29,38,0,0,0,20,"[0, 19, 17, 20]",4,17,"[3, 4, 5, 6, 7, 11, 13, 14, 15, 16, 18, 22, 24, 25, 26, 27, 28]",174.3542658,3457,637,6,44,9,2.333182710277297
undo,29,38,0,0,0,4,"[0, 19, 17, 20, 4]",5,10,"[5, 11, 13, 14, 15, 16, 24, 26, 27, 28]",140.4131403,4254,797,5,22,9,2.276099229646013
undo,29,38,0,0,0,15,"[0, 19, 17, 20, 4, 15]",6,8,"[5, 11, 13, 14, 16, 24, 26, 28]",114.4131403,8446,4192,5,6,9,2.5292671156176403
undo,29,38,0,0,0,11,"[0, 19, 17, 20, 4, 15, 11]",7,2,"[16, 28]",78.01259089,9144,698,2,0,9,2.778100109749787
undo,29,38,0,0,0,28,"[0, 19, 17, 20, 4, 15, 11, 28]",8,1,[16],50.99407872,10438,1294,1,0,9,2.3316428595723258
undo,29,38,0,0,1,16,"[0, 19, 17, 20, 4, 15, 11, 28, 16]",9,0,[],21.99407872,14259,3821,1,0,9,2.5408012360364265
undo,29,38,1,0,0,28,"[0, 19, 17, 20, 4, 15, 11, 28]",8,1,[16],50.99407872,20381,6122,1,0,9,2.3316428595723258
undo,29,38,1,0,0,11,"[0, 19, 17, 20, 4, 15, 11]",7,2,"[16, 28]",78.01259089,20775,394,2,0,9,2.778100109749787
undo,29,38,1,0,0,15,"[0, 19, 17, 20, 4, 15]",6,8,"[5, 11, 13, 14, 16, 24, 26, 28]",114.4131403,21072,297,5,6,9,2.5292671156176403
undo,29,38,1,0,0,4,"[0, 19, 17, 20, 4]",5,10,"[5, 11, 13, 14, 15, 16, 24, 26, 27, 28]",140.4131403,21263,191,5,22,9,2.276099229646013
undo,29,38,1,0,0,20,"[0, 19, 17, 20]",4,17,"[3, 4, 5, 6, 7, 11, 13, 14, 15, 16, 18, 22, 24, 25, 26, 27, 28]",174.3542658,21485,222,6,44,9,2.333182710277297
undo,29,38,1,0,0,17,"[0, 19, 17]",3,21,"[3, 4, 5, 6, 7, 9, 11, 13, 14, 15, 16, 18, 20, 22, 23, 24, 25, 26, 27, 28, 29]",198.1239945,22767,1282,6,53,9,1.571793785769489
undo,29,38,0,0,0,13,"[0, 19, 17, 13]",4,12,"[4, 5, 11, 15, 16, 18, 20, 22, 24, 26, 27, 28]",136.406898,26432,3665,4,25,8,1.6736797784003268
undo,29,38,0,0,0,4,"[0, 19, 17, 13, 4]",5,8,"[5, 11, 15, 16, 20, 24, 26, 28]",105.0062611,27117,685,4,10,8,2.781087990141621
undo,29,38,0,0,0,15,"[0, 19, 17, 13, 4, 15]",6,5,"[11, 16, 20, 26, 28]",79.00626105,27565,448,4,3,8,3.011809120468804
undo,29,38,0,0,0,16,"[0, 19, 17, 13, 4, 15, 16]",7,2,"[11, 28]",37.38895696,28596,1031,2,0,8,2.4001016225867318
undo,29,38,0,0,1,28,"[0, 19, 17, 13, 4, 15, 16, 28]",8,0,[],8.388956957,30618,2022,1,0,8,2.7305889064344147
undo,29,38,1,0,0,16,"[0, 19, 17, 13, 4, 15, 16]",7,2,"[11, 28]",37.38895696,32361,1743,2,0,8,2.4001016225867318
undo,29,38,1,0,0,15,"[0, 19, 17, 13, 4, 15]",6,5,"[11, 16, 20, 26, 28]",79.00626105,32568,207,4,3,8,3.011809120468804
undo,29,38,1,0,0,4,"[0, 19, 17, 13, 4]",5,8,"[5, 11, 15, 16, 20, 24, 26, 28]",105.0062611,32784,216,4,10,8,2.781087990141621
undo,29,38,1,0,0,13,"[0, 19, 17, 13]",4,12,"[4, 5, 11, 15, 16, 18, 20, 22, 24, 26, 27, 28]",136.406898,33180,396,4,25,8,1.6736797784003268
undo,29,38,1,0,0,17,"[0, 19, 17]",3,21,"[3, 4, 5, 6, 7, 9, 11, 13, 14, 15, 16, 18, 20, 22, 23, 24, 25, 26, 27, 28, 29]",198.1239945,33607,427,6,53,9,1.571793785769489
undo,29,38,0,0,0,20,"[0, 19, 17, 20]",4,17,"[3, 4, 5, 6, 7, 11, 13, 14, 15, 16, 18, 22, 24, 25, 26, 27, 28]",174.3542658,38836,5229,6,44,9,2.333182710277297
undo,29,38,0,0,0,4,"[0, 19, 17, 20, 4]",5,10,"[5, 11, 13, 14, 15, 16, 24, 26, 27, 28]",140.4131403,39554,718,5,22,9,2.276099229646013
undo,29,38,0,0,0,15,"[0, 19, 17, 20, 4, 15]",6,8,"[5, 11, 13, 14, 16, 24, 26, 28]",114.4131403,40156,602,5,6,9,2.5292671156176403
undo,29,38,0,0,0,11,"[0, 19, 17, 20, 4, 15, 11]",7,2,"[16, 28]",78.01259089,41077,921,2,0,9,2.778100109749787
undo,29,38,0,0,0,28,"[0, 19, 17, 20, 4, 15, 11, 28]",8,1,[16],50.99407872,42471,1394,1,0,9,2.3316428595723258
undo,29,38,0,0,1,16,"[0, 19, 17, 20, 4, 15, 11, 28, 16]",9,0,[],21.99407872,43466,995,1,0,9,2.5408012360364265
undo,29,38,0,1,1,16,"[0, 19, 17, 20, 4, 15, 11, 28, 16]",9,0,[],21.99407872,44971,1505,1,0,9,2.5408012360364265
undo,30,25,0,0,0,0,[0],1,28,"[1, 2, 3, 4, 5, 7, 8, 9, 10, 11, 12, 13, 14, 15, 16, 17, 18, 19, 20, 21, 22, 23, 24, 25, 26, 27, 28, 29]",300,223,-1,5,94,10,0.0
undo,30,25,0,0,0,7,"[0, 7]",2,18,"[1, 3, 5, 8, 9, 11, 13, 17, 19, 20, 21, 22, 23, 24, 26, 27, 28, 29]",182.7993174,9974,9751,1,22,8,1.0
undo,30,25,0,0,0,24,"[0, 7, 24]",3,11,"[3, 5, 8, 9, 11, 13, 19, 22, 23, 28, 29]",158.0404806,10673,699,1,18,8,1.0100618974182514
undo,30,25,0,0,0,9,"[0, 7, 24, 9]",4,9,"[3, 8, 11, 13, 19, 22, 23, 28, 29]",140.0127242,11865,1192,1,17,8,1.0248438018220953
undo,30,25,0,0,0,3,"[0, 7, 24, 9, 3]",5,4,"[8, 11, 13, 28]",109.7472323,16450,4585,1,6,8,1.0275380386663606
undo,30,25,0,0,0,8,"[0, 7, 24, 9, 3, 8]",6,2,"[13, 28]",70.54264076,17878,1428,2,0,7,1.147444580678272
undo,30,25,0,0,1,28,"[0, 7, 24, 9, 3, 8, 28]",7,0,[],29.93475975,19484,1606,1,0,7,1.2480303876973287
undo,30,25,1,0,0,8,"[0, 7, 24, 9, 3, 8]",6,2,"[13, 28]",70.54264076,21741,2257,2,0,7,1.147444580678272
undo,30,25,1,0,0,3,"[0, 7, 24, 9, 3]",5,4,"[8, 11, 13, 28]",109.7472323,22200,459,1,6,8,1.0275380386663606
undo,30,25,1,0,0,9,"[0, 7, 24, 9]",4,9,"[3, 8, 11, 13, 19, 22, 23, 28, 29]",140.0127242,22549,349,1,17,8,1.0248438018220953
undo,30,25,1,0,0,24,"[0, 7, 24]",3,11,"[3, 5, 8, 9, 11, 13, 19, 22, 23, 28, 29]",158.0404806,22888,339,1,18,8,1.0100618974182514
undo,30,25,1,0,0,7,"[0, 7]",2,18,"[1, 3, 5, 8, 9, 11, 13, 17, 19, 20, 21, 22, 23, 24, 26, 27, 28, 29]",182.7993174,23208,320,1,22,8,1.0
undo,30,25,1,0,0,0,[0],1,28,"[1, 2, 3, 4, 5, 7, 8, 9, 10, 11, 12, 13, 14, 15, 16, 17, 18, 19, 20, 21, 22, 23, 24, 25, 26, 27, 28, 29]",300,23707,499,5,94,10,0.0
undo,30,25,0,0,0,23,"[0, 23]",2,23,"[1, 2, 3, 5, 7, 8, 9, 11, 12, 13, 14, 16, 17, 19, 20, 21, 22, 24, 25, 26, 27, 28, 29]",259.7756293,29173,5466,3,33,10,1.0
undo,30,25,0,0,0,7,"[0, 23, 7]",3,16,"[1, 3, 5, 8, 9, 11, 13, 17, 19, 21, 22, 24, 26, 27, 28, 29]",181.9424744,31607,2434,1,21,9,1.0073109045884563
undo,30,25,0,0,0,24,"[0, 23, 7, 24]",4,10,"[3, 5, 8, 9, 11, 13, 19, 22, 28, 29]",157.1836376,32632,1025,1,17,9,1.0161584555781231
undo,30,25,0,0,0,9,"[0, 23, 7, 24, 9]",5,8,"[3, 8, 11, 13, 19, 22, 28, 29]",139.1558812,33559,927,1,16,9,1.0303325523073676
undo,30,25,0,0,0,3,"[0, 23, 7, 24, 9, 3]",6,4,"[8, 11, 13, 28]",108.8903893,36983,3424,1,5,9,1.0321657704271587
undo,30,25,0,0,0,8,"[0, 23, 7, 24, 9, 3, 8]",7,2,"[13, 28]",69.68579774,37964,981,2,0,8,1.1517293849793737
undo,30,25,0,0,1,28,"[0, 23, 7, 24, 9, 3, 8, 28]",8,0,[],29.07791673,39489,1525,1,0,8,1.251990046205978
undo,30,25,1,0,0,8,"[0, 23, 7, 24, 9, 3, 8]",7,2,"[13, 28]",69.68579774,41228,1739,2,0,8,1.1517293849793737
undo,30,25,1,0,0,3,"[0, 23, 7, 24, 9, 3]",6,4,"[8, 11, 13, 28]",108.8903893,41777,549,1,5,9,1.0321657704271587
undo,30,25,0,0,0,13,"[0, 23, 7, 24, 9, 3, 13]",7,2,"[8, 28]",77.6493906,44352,2575,1,1,9,1.1031543757060376
undo,30,25,0,0,0,28,"[0, 23, 7, 24, 9, 3, 13, 28]",8,1,[8],43.41490506,45932,1580,1,0,9,1.1857356956374323
undo,30,25,0,0,1,8,"[0, 23, 7, 24, 9, 3, 13, 28, 8]",9,0,[],2.807024055,48080,2148,1,0,9,1.486169242046657
undo,30,25,0,1,1,8,"[0, 23, 7, 24, 9, 3, 13, 28, 8]",9,0,[],2.807024055,51151,3071,1,0,9,1.486169242046657
undo,31,35,0,0,0,0,[0],1,29,"[1, 2, 3, 4, 5, 6, 7, 8, 9, 10, 11, 12, 13, 14, 15, 16, 17, 18, 19, 20, 21, 22, 23, 24, 25, 26, 27, 28, 29]",300,133,-1,5,236,11,0.0
undo,31,35,0,0,0,24,"[0, 24]",2,27,"[1, 2, 4, 5, 6, 7, 8, 9, 10, 11, 12, 13, 14, 15, 16, 17, 18, 19, 20, 21, 22, 23, 25, 26, 27, 28, 29]",268.9838752,5448,5315,49,512,10,1.0
undo,31,35,0,0,0,17,"[0, 24, 17]",3,26,"[1, 2, 4, 5, 6, 7, 8, 9, 10, 11, 12, 13, 14, 15, 16, 18, 19, 20, 21, 22, 23, 25, 26, 27, 28, 29]",257.2791753,6315,867,33,238,10,1.0771477201815276
undo,31,35,0,0,0,1,"[0, 24, 17, 1]",4,25,"[2, 4, 5, 6, 7, 8, 9, 10, 11, 12, 13, 14, 15, 16, 18, 19, 20, 21, 22, 23, 25, 26, 27, 28, 29]",241.4677869,6976,661,26,151,10,1.2244804141479215
undo,31,35,0,0,0,9,"[0, 24, 17, 1, 9]",5,13,"[2, 4, 5, 6, 15, 18, 19, 23, 25, 26, 27, 28, 29]",171.9408138,9001,2025,23,25,9,1.1391705391673446
undo,31,35,0,0,0,18,"[0, 24, 17, 1, 9, 18]",6,9,"[4, 5, 6, 15, 19, 23, 25, 27, 28]",151.9158294,9916,915,11,8,9,1.1512300765384265
undo,31,35,0,0,0,25,"[0, 24, 17, 1, 9, 18, 25]",7,3,"[5, 6, 23]",118.0779807,11181,1265,4,1,9,1.1233821517043756
undo,31,35,0,0,0,6,"[0, 24, 17, 1, 9, 18, 25, 6]",8,2,"[5, 23]",94.05715644,12336,1155,2,0,9,1.3618604674216885
undo,31,35,0,0,1,23,"[0, 24, 17, 1, 9, 18, 25, 6, 23]",9,0,[],48.4063076,13503,1167,1,0,9,2.3663755774656274
undo,31,35,1,0,0,6,"[0, 24, 17, 1, 9, 18, 25, 6]",8,2,"[5, 23]",94.05715644,21143,7640,2,0,9,1.3618604674216885
undo,31,35,1,0,0,25,"[0, 24, 17, 1, 9, 18, 25]",7,3,"[5, 6, 23]",118.0779807,21359,216,4,1,9,1.1233821517043756
undo,31,35,1,0,0,18,"[0, 24, 17, 1, 9, 18]",6,9,"[4, 5, 6, 15, 19, 23, 25, 27, 28]",151.9158294,21578,219,11,8,9,1.1512300765384265
undo,31,35,1,0,0,9,"[0, 24, 17, 1, 9]",5,13,"[2, 4, 5, 6, 15, 18, 19, 23, 25, 26, 27, 28, 29]",171.9408138,21970,392,23,25,9,1.1391705391673446
undo,31,35,1,0,0,1,"[0, 24, 17, 1]",4,25,"[2, 4, 5, 6, 7, 8, 9, 10, 11, 12, 13, 14, 15, 16, 18, 19, 20, 21, 22, 23, 25, 26, 27, 28, 29]",241.4677869,22442,472,26,151,10,1.2244804141479215
undo,31,35,0,0,0,15,"[0, 24, 17, 1, 15]",5,23,"[2, 4, 5, 6, 7, 8, 9, 10, 11, 12, 14, 16, 18, 19, 20, 21, 22, 23, 25, 26, 27, 28, 29]",218.6204676,24994,2552,26,78,10,1.4642196672428094
undo,31,35,0,0,0,9,"[0, 24, 17, 1, 15, 9]",6,8,"[5, 6, 18, 19, 23, 25, 27, 28]",136.3283052,26230,1236,4,17,10,1.4559671847403095
undo,31,35,0,0,0,18,"[0, 24, 17, 1, 15, 9, 18]",7,5,"[5, 6, 19, 23, 25]",116.3033208,27026,796,2,5,10,1.428087426214553
undo,31,35,0,0,0,25,"[0, 24, 17, 1, 15, 9, 18, 25]",8,2,"[6, 23]",82.46547216,27965,939,1,1,10,1.343292070389275
undo,31,35,0,0,0,6,"[0, 24, 17, 1, 15, 9, 18, 25, 6]",9,1,[23],58.44464786,29074,1109,1,0,10,1.5973591462902639
undo,31,35,0,0,1,23,"[0, 24, 17, 1, 15, 9, 18, 25, 6, 23]",10,0,[],12.79379902,30371,1297,1,0,10,2.701330598603499
undo,31,35,0,1,1,23,"[0, 24, 17, 1, 15, 9, 18, 25, 6, 23]",10,0,[],12.79379902,33118,2747,1,0,10,2.701330598603499
undo,32,42,0,0,0,0,[0],1,29,"[1, 2, 3, 4, 5, 6, 7, 8, 9, 10, 11, 12, 13, 14, 15, 16, 17, 18, 19, 20, 21, 22, 23, 24, 25, 26, 27, 28, 29]",300,319,-1,16,302,9,0.0
undo,32,42,0,0,0,22,"[0, 22]",2,27,"[1, 2, 3, 4, 5, 6, 7, 8, 9, 10, 11, 12, 13, 15, 16, 17, 18, 19, 20, 21, 23, 24, 25, 26, 27, 28, 29]",211.3997743,6904,6585,5,83,9,1.0
undo,32,42,0,0,0,4,"[0, 22, 4]",3,26,"[1, 2, 3, 5, 6, 7, 8, 9, 10, 11, 12, 13, 15, 16, 17, 18, 19, 20, 21, 23, 24, 25, 26, 27, 28, 29]",200.2194344,9647,2743,4,51,9,1.1029012260448476
undo,32,42,0,0,0,5,"[0, 22, 4, 5]",4,24,"[1, 2, 3, 6, 7, 8, 9, 10, 11, 12, 13, 15, 17, 18, 19, 20, 21, 23, 24, 25, 26, 27, 28, 29]",180.3700011,10310,663,3,22,9,1.1004909640339868
undo,32,42,0,0,0,8,"[0, 22, 4, 5, 8]",5,16,"[1, 2, 3, 6, 7, 11, 15, 18, 19, 23, 24, 25, 26, 27, 28, 29]",145.8881218,11096,786,3,12,9,1.4333663223483832
undo,32,42,0,0,0,1,"[0, 22, 4, 5, 8, 1]",6,6,"[2, 7, 18, 19, 26, 27]",96.796371,11912,816,3,7,9,1.3048950637395882
undo,32,42,0,0,0,7,"[0, 22, 4, 5, 8, 1, 7]",7,4,"[2, 19, 26, 27]",66.796371,13045,1133,3,2,9,1.3461774355793397
undo,32,42,0,0,0,26,"[0, 22, 4, 5, 8, 1, 7, 26]",8,2,"[19, 27]",40.22571049,15139,2094,2,0,9,1.3119913611616163
undo,32,42,0,0,1,27,"[0, 22, 4, 5, 8, 1, 7, 26, 27]",9,0,[],22.19795412,16049,910,1,0,9,1.3027999653776734
undo,32,42,1,0,0,26,"[0, 22, 4, 5, 8, 1, 7, 26]",8,2,"[19, 27]",40.22571049,18641,2592,2,0,9,1.3119913611616163
undo,32,42,1,0,0,7,"[0, 22, 4, 5, 8, 1, 7]",7,4,"[2, 19, 26, 27]",66.796371,23081,4440,3,2,9,1.3461774355793397
undo,32,42,1,0,0,1,"[0, 22, 4, 5, 8, 1]",6,6,"[2, 7, 18, 19, 26, 27]",96.796371,23276,195,3,7,9,1.3048950637395882
undo,32,42,1,0,0,8,"[0, 22, 4, 5, 8]",5,16,"[1, 2, 3, 6, 7, 11, 15, 18, 19, 23, 24, 25, 26, 27, 28, 29]",145.8881218,23457,181,3,12,9,1.4333663223483832
undo,32,42,1,0,0,5,"[0, 22, 4, 5]",4,24,"[1, 2, 3, 6, 7, 8, 9, 10, 11, 12, 13, 15, 17, 18, 19, 20, 21, 23, 24, 25, 26, 27, 28, 29]",180.3700011,23631,174,3,22,9,1.1004909640339868
undo,32,42,1,0,0,4,"[0, 22, 4]",3,26,"[1, 2, 3, 5, 6, 7, 8, 9, 10, 11, 12, 13, 15, 16, 17, 18, 19, 20, 21, 23, 24, 25, 26, 27, 28, 29]",200.2194344,23824,193,4,51,9,1.1029012260448476
undo,32,42,1,0,0,22,"[0, 22]",2,27,"[1, 2, 3, 4, 5, 6, 7, 8, 9, 10, 11, 12, 13, 15, 16, 17, 18, 19, 20, 21, 23, 24, 25, 26, 27, 28, 29]",211.3997743,24316,492,5,83,9,1.0
undo,32,42,1,0,0,0,[0],1,29,"[1, 2, 3, 4, 5, 6, 7, 8, 9, 10, 11, 12, 13, 14, 15, 16, 17, 18, 19, 20, 21, 22, 23, 24, 25, 26, 27, 28, 29]",300,24672,356,16,302,9,0.0
undo,32,42,0,0,0,3,"[0, 3]",2,25,"[1, 2, 4, 5, 6, 7, 8, 9, 10, 11, 13, 15, 17, 18, 19, 20, 21, 22, 23, 24, 25, 26, 27, 28, 29]",255.7959278,26557,1885,3,45,9,1.0
undo,32,42,0,0,0,23,"[0, 3, 23]",3,15,"[1, 2, 4, 5, 6, 7, 8, 9, 11, 15, 17, 22, 24, 25, 29]",202.4573864,29862,3305,1,24,8,1.2042297975308642
undo,32,42,0,0,0,11,"[0, 3, 23, 11]",4,13,"[1, 2, 4, 5, 6, 7, 8, 15, 17, 22, 24, 25, 29]",157.4462766,30807,945,8,11,7,1.5530792255182428
undo,32,42,0,0,0,24,"[0, 3, 23, 11, 24]",5,4,"[2, 6, 8, 15]",99.43765659,31601,794,2,3,7,1.5306089475712006
undo,32,42,0,0,0,15,"[0, 3, 23, 11, 24, 15]",6,2,"[2, 6]",85.83618608,32350,749,2,0,7,1.4807999604486335
undo,32,42,0,0,1,6,"[0, 3, 23, 11, 24, 15, 6]",7,0,[],36.43982994,33457,1107,1,0,7,1.3692776956924249
undo,32,42,1,0,0,15,"[0, 3, 23, 11, 24, 15]",6,2,"[2, 6]",85.83618608,34089,632,2,0,7,1.4807999604486335
undo,32,42,1,0,0,24,"[0, 3, 23, 11, 24]",5,4,"[2, 6, 8, 15]",99.43765659,34282,193,2,3,7,1.5306089475712006
undo,32,42,1,0,0,11,"[0, 3, 23, 11]",4,13,"[1, 2, 4, 5, 6, 7, 8, 15, 17, 22, 24, 25, 29]",157.4462766,34457,175,8,11,7,1.5530792255182428
undo,32,42,1,0,0,23,"[0, 3, 23]",3,15,"[1, 2, 4, 5, 6, 7, 8, 9, 11, 15, 17, 22, 24, 25, 29]",202.4573864,34650,193,1,24,8,1.2042297975308642
undo,32,42,1,0,0,3,"[0, 3]",2,25,"[1, 2, 4, 5, 6, 7, 8, 9, 10, 11, 13, 15, 17, 18, 19, 20, 21, 22, 23, 24, 25, 26, 27, 28, 29]",255.7959278,34817,167,3,45,9,1.0
undo,32,42,1,0,0,0,[0],1,29,"[1, 2, 3, 4, 5, 6, 7, 8, 9, 10, 11, 12, 13, 14, 15, 16, 17, 18, 19, 20, 21, 22, 23, 24, 25, 26, 27, 28, 29]",300,35151,334,16,302,9,0.0
undo,32,42,0,0,0,22,"[0, 22]",2,27,"[1, 2, 3, 4, 5, 6, 7, 8, 9, 10, 11, 12, 13, 15, 16, 17, 18, 19, 20, 21, 23, 24, 25, 26, 27, 28, 29]",211.3997743,37949,2798,5,83,9,1.0
undo,32,42,0,0,0,4,"[0, 22, 4]",3,26,"[1, 2, 3, 5, 6, 7, 8, 9, 10, 11, 12, 13, 15, 16, 17, 18, 19, 20, 21, 23, 24, 25, 26, 27, 28, 29]",200.2194344,39231,1282,4,51,9,1.1029012260448476
undo,32,42,0,0,0,5,"[0, 22, 4, 5]",4,24,"[1, 2, 3, 6, 7, 8, 9, 10, 11, 12, 13, 15, 17, 18, 19, 20, 21, 23, 24, 25, 26, 27, 28, 29]",180.3700011,40293,1062,3,22,9,1.1004909640339868
undo,32,42,0,0,0,8,"[0, 22, 4, 5, 8]",5,16,"[1, 2, 3, 6, 7, 11, 15, 18, 19, 23, 24, 25, 26, 27, 28, 29]",145.8881218,41374,1081,3,12,9,1.4333663223483832
undo,32,42,0,0,0,1,"[0, 22, 4, 5, 8, 1]",6,6,"[2, 7, 18, 19, 26, 27]",96.796371,42863,1489,3,7,9,1.3048950637395882
undo,32,42,0,0,0,7,"[0, 22, 4, 5, 8, 1, 7]",7,4,"[2, 19, 26, 27]",66.796371,45584,2721,3,2,9,1.3461774355793397
undo,32,42,0,0,0,26,"[0, 22, 4, 5, 8, 1, 7, 26]",8,2,"[19, 27]",40.22571049,50502,4918,2,0,9,1.3119913611616163
undo,32,42,0,0,1,19,"[0, 22, 4, 5, 8, 1, 7, 26, 19]",9,0,[],5.340183408,52059,1557,1,0,9,1.3626916507651075
undo,32,42,0,1,1,19,"[0, 22, 4, 5, 8, 1, 7, 26, 19]",9,0,[],5.340183408,54393,2334,1,0,9,1.3626916507651075
undo,33,5,0,0,0,0,[0],1,29,"[1, 2, 3, 4, 5, 6, 7, 8, 9, 10, 11, 12, 13, 14, 15, 16, 17, 18, 19, 20, 21, 22, 23, 24, 25, 26, 27, 28, 29]",300,235,-1,5,139,9,0.0
undo,33,5,0,0,0,12,"[0, 12]",2,22,"[2, 4, 5, 6, 8, 9, 10, 13, 14, 15, 16, 17, 18, 19, 21, 22, 23, 24, 25, 26, 27, 28]",228.3062067,14901,14666,1,27,9,1.0
undo,33,5,0,0,0,25,"[0, 12, 25]",3,21,"[2, 4, 5, 6, 8, 9, 10, 13, 14, 15, 16, 17, 18, 19, 21, 22, 23, 24, 26, 27, 28]",200.5213187,15748,847,1,20,9,1.584023303445617
undo,33,5,0,0,0,23,"[0, 12, 25, 23]",4,19,"[2, 4, 5, 6, 8, 9, 10, 13, 14, 15, 16, 17, 18, 19, 21, 22, 24, 26, 27]",182.0822298,17340,1592,1,14,9,2.3508446989254357
undo,33,5,0,0,0,24,"[0, 12, 25, 23, 24]",5,15,"[2, 4, 5, 6, 8, 9, 13, 14, 15, 17, 18, 19, 22, 26, 27]",158.995437,18839,1499,1,12,9,1.9469752046288753
undo,33,5,0,0,0,17,"[0, 12, 25, 23, 24, 17]",6,7,"[4, 5, 6, 8, 15, 18, 19]",124.0097257,20027,1188,1,8,9,1.6482276497563642
undo,33,5,0,0,0,5,"[0, 12, 25, 23, 24, 17, 5]",7,4,"[4, 6, 15, 18]",80.96323916,21437,1410,1,3,9,1.4654649104389412
undo,33,5,1,0,0,17,"[0, 12, 25, 23, 24, 17]",6,7,"[4, 5, 6, 8, 15, 18, 19]",124.0097257,28632,7195,1,8,9,1.6482276497563642
undo,33,5,0,0,0,4,"[0, 12, 25, 23, 24, 17, 4]",7,2,"[6, 18]",41.93049564,33095,4463,2,0,8,1.4727365492235016
undo,33,5,0,0,1,6,"[0, 12, 25, 23, 24, 17, 4, 6]",8,0,[],29.88890107,33958,863,1,0,8,1.6174317301197607
undo,33,5,1,0,0,4,"[0, 12, 25, 23, 24, 17, 4]",7,2,"[6, 18]",41.93049564,35145,1187,2,0,8,1.4727365492235016
undo,33,5,1,0,0,17,"[0, 12, 25, 23, 24, 17]",6,7,"[4, 5, 6, 8, 15, 18, 19]",124.0097257,35354,209,1,8,9,1.6482276497563642
undo,33,5,1,0,0,24,"[0, 12, 25, 23, 24]",5,15,"[2, 4, 5, 6, 8, 9, 13, 14, 15, 17, 18, 19, 22, 26, 27]",158.995437,35592,238,1,12,9,1.9469752046288753
undo,33,5,0,0,0,8,"[0, 12, 25, 23, 24, 8]",6,6,"[4, 6, 13, 17, 19, 27]",102.3827176,37201,1609,2,4,8,2.1536190140917784
undo,33,5,0,0,0,19,"[0, 12, 25, 23, 24, 8, 19]",7,1,[27],62.02184547,37832,631,1,0,8,1.8463458721829435
undo,33,5,0,0,1,27,"[0, 12, 25, 23, 24, 8, 19, 27]",8,0,[],2.021845469,39100,1268,1,0,8,2.533897469450871
undo,33,5,0,1,1,27,"[0, 12, 25, 23, 24, 8, 19, 27]",8,0,[],2.021845469,48423,9323,1,0,8,2.533897469450871
undo,34,21,0,0,0,0,[0],1,29,"[1, 2, 3, 4, 5, 6, 7, 8, 9, 10, 11, 12, 13, 14, 15, 16, 17, 18, 19, 20, 21, 22, 23, 24, 25, 26, 27, 28, 29]",300,132,-1,84,830,9,0.0
undo,34,21,0,0,0,25,"[0, 25]",2,26,"[1, 2, 3, 4, 5, 6, 7, 8, 9, 10, 11, 12, 13, 14, 15, 16, 17, 18, 20, 21, 22, 23, 24, 26, 27, 29]",240.1836143,5874,5742,30,238,9,1.0
undo,34,21,0,0,0,18,"[0, 25, 18]",3,23,"[1, 2, 3, 4, 6, 7, 8, 9, 10, 11, 12, 14, 15, 16, 17, 20, 21, 22, 23, 24, 26, 27, 29]",198.4223882,7045,1171,1,22,9,1.7194331060017298
undo,34,21,0,0,0,29,"[0, 25, 18, 29]",4,19,"[2, 4, 6, 7, 8, 10, 11, 12, 14, 15, 16, 17, 20, 21, 22, 23, 24, 26, 27]",169.7692907,7772,727,11,44,8,1.5372409070640154
undo,34,21,0,0,0,22,"[0, 25, 18, 29, 22]",5,13,"[2, 4, 6, 7, 10, 11, 12, 14, 17, 20, 21, 23, 27]",139.5037988,9009,1237,2,11,8,1.9519077549890076
undo,34,21,0,0,0,20,"[0, 25, 18, 29, 22, 20]",6,6,"[6, 7, 10, 11, 12, 17]",111.2726104,9834,825,2,4,8,2.2910153832268065
undo,34,21,0,0,0,12,"[0, 25, 18, 29, 22, 20, 12]",7,1,[10],57.15237385,11557,1723,1,0,8,2.1874614020669414
undo,34,21,0,0,1,10,"[0, 25, 18, 29, 22, 20, 12, 10]",8,0,[],34.34886534,12909,1352,1,0,8,2.181796919371535
undo,34,21,1,0,0,12,"[0, 25, 18, 29, 22, 20, 12]",7,1,[10],57.15237385,17123,4214,1,0,8,2.1874614020669414
undo,34,21,1,0,0,20,"[0, 25, 18, 29, 22, 20]",6,6,"[6, 7, 10, 11, 12, 17]",111.2726104,18830,1707,2,4,8,2.2910153832268065
undo,34,21,1,0,0,22,"[0, 25, 18, 29, 22]",5,13,"[2, 4, 6, 7, 10, 11, 12, 14, 17, 20, 21, 23, 27]",139.5037988,20615,1785,2,11,8,1.9519077549890076
undo,34,21,1,0,0,29,"[0, 25, 18, 29]",4,19,"[2, 4, 6, 7, 8, 10, 11, 12, 14, 15, 16, 17, 20, 21, 22, 23, 24, 26, 27]",169.7692907,20844,229,11,44,8,1.5372409070640154
undo,34,21,1,0,0,18,"[0, 25, 18]",3,23,"[1, 2, 3, 4, 6, 7, 8, 9, 10, 11, 12, 14, 15, 16, 17, 20, 21, 22, 23, 24, 26, 27, 29]",198.4223882,21044,200,1,22,9,1.7194331060017298
undo,34,21,1,0,0,25,"[0, 25]",2,26,"[1, 2, 3, 4, 5, 6, 7, 8, 9, 10, 11, 12, 13, 14, 15, 16, 17, 18, 20, 21, 22, 23, 24, 26, 27, 29]",240.1836143,21219,175,30,238,9,1.0
undo,34,21,1,0,0,0,[0],1,29,"[1, 2, 3, 4, 5, 6, 7, 8, 9, 10, 11, 12, 13, 14, 15, 16, 17, 18, 19, 20, 21, 22, 23, 24, 25, 26, 27, 28, 29]",300,21615,396,84,830,9,0.0
undo,34,21,0,0,0,6,"[0, 6]",2,27,"[1, 2, 3, 4, 5, 7, 8, 9, 10, 11, 12, 14, 15, 16, 17, 18, 19, 20, 21, 22, 23, 24, 25, 26, 27, 28, 29]",256.1365756,22587,972,7,134,8,1.0
undo,34,21,0,0,0,18,"[0, 6, 18]",3,21,"[2, 4, 7, 8, 9, 10, 11, 12, 14, 15, 16, 17, 20, 21, 22, 23, 24, 25, 26, 27, 29]",162.5310202,26517,3930,3,34,8,2.326976493420601
undo,34,21,0,0,0,29,"[0, 6, 18, 29]",4,17,"[2, 4, 7, 8, 10, 12, 14, 15, 16, 17, 20, 21, 22, 23, 24, 25, 27]",133.8779226,27593,1076,1,11,8,1.960901958672927
undo,34,21,0,0,0,22,"[0, 6, 18, 29, 22]",5,5,"[12, 17, 20, 23, 25]",103.6124307,28246,653,1,4,7,2.388408053486758
undo,34,21,0,0,0,20,"[0, 6, 18, 29, 22, 20]",6,1,[12],75.38124232,29553,1307,1,0,7,2.726710893934679
undo,34,21,0,0,1,12,"[0, 6, 18, 29, 22, 20, 12]",7,0,[],21.26100581,31266,1713,1,0,7,2.510754585943423
undo,34,21,1,0,0,20,"[0, 6, 18, 29, 22, 20]",6,1,[12],75.38124232,32345,1079,1,0,7,2.726710893934679
undo,34,21,1,0,0,22,"[0, 6, 18, 29, 22]",5,5,"[12, 17, 20, 23, 25]",103.6124307,34249,1904,1,4,7,2.388408053486758
undo,34,21,1,0,0,29,"[0, 6, 18, 29]",4,17,"[2, 4, 7, 8, 10, 12, 14, 15, 16, 17, 20, 21, 22, 23, 24, 25, 27]",133.8779226,34622,373,1,11,8,1.960901958672927
undo,34,21,1,0,0,18,"[0, 6, 18]",3,21,"[2, 4, 7, 8, 9, 10, 11, 12, 14, 15, 16, 17, 20, 21, 22, 23, 24, 25, 26, 27, 29]",162.5310202,35165,543,3,34,8,2.326976493420601
undo,34,21,0,0,0,22,"[0, 6, 18, 22]",4,14,"[2, 4, 7, 10, 11, 12, 14, 17, 20, 21, 23, 25, 27, 29]",136.1302626,36125,960,7,18,7,1.9929357134159522
undo,34,21,0,0,0,20,"[0, 6, 18, 22, 20]",5,7,"[7, 10, 11, 12, 17, 25, 29]",107.8990742,37243,1118,3,4,7,2.331967697283889
undo,34,21,0,0,0,12,"[0, 6, 18, 22, 20, 12]",6,1,[10],53.77883771,38076,833,1,0,7,2.217848687344212
undo,34,21,1,0,0,20,"[0, 6, 18, 22, 20]",5,7,"[7, 10, 11, 12, 17, 25, 29]",107.8990742,39330,1254,3,4,7,2.331967697283889
undo,34,21,0,0,1,11,"[0, 6, 18, 22, 20, 11]",6,0,[],9.22790315,40621,1291,1,0,6,3.6780084242762854
undo,34,21,1,0,0,20,"[0, 6, 18, 22, 20]",5,7,"[7, 10, 11, 12, 17, 25, 29]",107.8990742,41730,1109,3,4,7,2.331967697283889
undo,34,21,1,0,0,22,"[0, 6, 18, 22]",4,14,"[2, 4, 7, 10, 11, 12, 14, 17, 20, 21, 23, 25, 27, 29]",136.1302626,41919,189,7,18,7,1.9929357134159522
undo,34,21,1,0,0,18,"[0, 6, 18]",3,21,"[2, 4, 7, 8, 9, 10, 11, 12, 14, 15, 16, 17, 20, 21, 22, 23, 24, 25, 26, 27, 29]",162.5310202,42099,180,3,34,8,2.326976493420601
undo,34,21,1,0,0,6,"[0, 6]",2,27,"[1, 2, 3, 4, 5, 7, 8, 9, 10, 11, 12, 14, 15, 16, 17, 18, 19, 20, 21, 22, 23, 24, 25, 26, 27, 28, 29]",256.1365756,42275,176,7,134,8,1.0
undo,34,21,1,0,0,0,[0],1,29,"[1, 2, 3, 4, 5, 6, 7, 8, 9, 10, 11, 12, 13, 14, 15, 16, 17, 18, 19, 20, 21, 22, 23, 24, 25, 26, 27, 28, 29]",300,42906,631,84,830,9,0.0
undo,34,21,0,0,0,25,"[0, 25]",2,26,"[1, 2, 3, 4, 5, 6, 7, 8, 9, 10, 11, 12, 13, 14, 15, 16, 17, 18, 20, 21, 22, 23, 24, 26, 27, 29]",240.1836143,44607,1701,30,238,9,1.0
undo,34,21,0,0,0,29,"[0, 25, 29]",3,23,"[1, 2, 4, 6, 7, 8, 9, 10, 11, 12, 13, 14, 15, 16, 17, 18, 20, 21, 22, 23, 24, 26, 27]",194.9619381,45328,721,17,102,8,1.239867358623088
undo,34,21,0,0,0,18,"[0, 25, 29, 18]",4,20,"[2, 4, 6, 7, 8, 9, 10, 11, 12, 14, 15, 16, 17, 20, 21, 22, 23, 24, 26, 27]",166.3088405,48252,2924,7,31,8,2.2630282554453367
undo,34,21,0,0,0,22,"[0, 25, 29, 18, 22]",5,13,"[2, 4, 6, 7, 10, 11, 12, 14, 17, 20, 21, 23, 27]",139.9080829,48834,582,2,11,8,1.946990970266948
undo,34,21,0,0,0,20,"[0, 25, 29, 18, 22, 20]",6,6,"[6, 7, 10, 11, 12, 17]",111.6768945,49921,1087,2,4,8,2.286107663715309
undo,34,21,0,0,0,12,"[0, 25, 29, 18, 22, 20, 12]",7,1,[10],57.556658,50789,868,1,0,8,2.1838197935916495
undo,34,21,0,0,1,10,"[0, 25, 29, 18, 22, 20, 12, 10]",8,0,[],34.7531495,51542,753,1,0,8,2.1784765272491082
undo,34,21,1,0,0,12,"[0, 25, 29, 18, 22, 20, 12]",7,1,[10],57.556658,54259,2717,1,0,8,2.1838197935916495
undo,34,21,1,0,0,20,"[0, 25, 29, 18, 22, 20]",6,6,"[6, 7, 10, 11, 12, 17]",111.6768945,54472,213,2,4,8,2.286107663715309
undo,34,21,1,0,0,22,"[0, 25, 29, 18, 22]",5,13,"[2, 4, 6, 7, 10, 11, 12, 14, 17, 20, 21, 23, 27]",139.9080829,54650,178,2,11,8,1.946990970266948
undo,34,21,1,0,0,18,"[0, 25, 29, 18]",4,20,"[2, 4, 6, 7, 8, 9, 10, 11, 12, 14, 15, 16, 17, 20, 21, 22, 23, 24, 26, 27]",166.3088405,54975,325,7,31,8,2.2630282554453367
undo,34,21,1,0,0,29,"[0, 25, 29]",3,23,"[1, 2, 4, 6, 7, 8, 9, 10, 11, 12, 13, 14, 15, 16, 17, 18, 20, 21, 22, 23, 24, 26, 27]",194.9619381,55406,431,17,102,8,1.239867358623088
undo,34,21,1,0,0,25,"[0, 25]",2,26,"[1, 2, 3, 4, 5, 6, 7, 8, 9, 10, 11, 12, 13, 14, 15, 16, 17, 18, 20, 21, 22, 23, 24, 26, 27, 29]",240.1836143,56720,1314,30,238,9,1.0
undo,34,21,0,0,0,21,"[0, 25, 21]",3,18,"[1, 3, 4, 6, 8, 9, 11, 12, 14, 15, 16, 17, 18, 20, 22, 23, 24, 29]",190.8480288,57259,539,15,84,9,1.2142997420204755
undo,34,21,0,0,0,23,"[0, 25, 21, 23]",4,14,"[1, 4, 6, 8, 9, 14, 15, 16, 17, 18, 20, 22, 24, 29]",161.233843,60399,3140,9,27,9,1.4013924134357778
undo,34,21,0,0,0,14,"[0, 25, 21, 23, 14]",5,9,"[4, 8, 15, 16, 17, 18, 22, 24, 29]",132.1649593,61316,917,7,9,9,1.4652634639575024
undo,34,21,0,0,0,4,"[0, 25, 21, 23, 14, 4]",6,7,"[8, 15, 16, 17, 18, 24, 29]",118.0228236,62152,836,7,2,9,1.422739117765393
undo,34,21,0,0,0,16,"[0, 25, 21, 23, 14, 4, 16]",7,3,"[8, 15, 24]",73.42461739,62819,667,3,1,9,1.3881533988257628
undo,34,21,0,0,0,8,"[0, 25, 21, 23, 14, 4, 16, 8]",8,1,[15],54.82354215,64507,1688,1,0,9,1.353244899801389
undo,34,21,0,0,1,15,"[0, 25, 21, 23, 14, 4, 16, 8, 15]",9,0,[],29.82354215,67932,3425,1,0,9,1.604898534974819
undo,34,21,0,1,1,15,"[0, 25, 21, 23, 14, 4, 16, 8, 15]",9,0,[],29.82354215,71372,3440,1,0,9,1.604898534974819
undo,35,20,0,0,0,0,[0],1,21,"[1, 2, 3, 4, 5, 6, 7, 8, 9, 12, 17, 18, 20, 21, 22, 23, 25, 26, 27, 28, 29]",300,194,-1,1,9,9,0.0
undo,35,20,0,0,0,12,"[0, 12]",2,20,"[1, 2, 3, 4, 5, 6, 7, 8, 9, 17, 18, 20, 21, 22, 23, 25, 26, 27, 28, 29]",271.5570747,3333,3139,1,8,9,1.0
undo,35,20,0,0,0,1,"[0, 12, 1]",3,12,"[3, 4, 5, 6, 8, 9, 20, 21, 23, 27, 28, 29]",189.5692707,7522,4189,1,6,9,1.0757997779162911
undo,35,20,0,0,0,5,"[0, 12, 1, 5]",4,10,"[4, 6, 8, 9, 20, 21, 23, 27, 28, 29]",152.8950291,8340,818,1,5,9,1.1708231454516806
undo,35,20,0,0,0,21,"[0, 12, 1, 5, 21]",5,8,"[4, 6, 8, 9, 20, 23, 27, 28]",107.8950291,10105,1765,1,4,9,1.126197336199212
undo,35,20,0,0,0,8,"[0, 12, 1, 5, 21, 8]",6,5,"[6, 9, 23, 27, 28]",90.43077988,11554,1449,1,3,9,1.140007470699913
undo,35,20,0,0,0,23,"[0, 12, 1, 5, 21, 8, 23]",7,2,"[6, 9]",45.74297394,12529,975,1,1,9,1.1162257896627588
undo,35,20,0,0,0,9,"[0, 12, 1, 5, 21, 8, 23, 9]",8,1,[6],26.53360123,13428,899,1,0,9,1.1086880559449597
undo,35,20,0,0,1,6,"[0, 12, 1, 5, 21, 8, 23, 9, 6]",9,0,[],3.511872362,14499,1071,1,0,9,1.1186240265999328
undo,35,20,0,1,1,6,"[0, 12, 1, 5, 21, 8, 23, 9, 6]",9,0,[],3.511872362,16475,1976,1,0,9,1.1186240265999328
undo,36,44,0,0,0,0,[0],1,29,"[1, 2, 3, 4, 5, 6, 7, 8, 9, 10, 11, 12, 13, 14, 15, 16, 17, 18, 19, 20, 21, 22, 23, 24, 25, 26, 27, 28, 29]",300,334,-1,13,126,7,0.0
undo,36,44,0,0,0,11,"[0, 11]",2,18,"[4, 5, 6, 7, 8, 9, 12, 14, 16, 17, 19, 20, 22, 23, 24, 25, 26, 28]",152.7790776,7263,6929,5,34,7,1.0
undo,36,44,0,0,0,24,"[0, 11, 24]",3,13,"[4, 5, 7, 8, 9, 12, 14, 17, 20, 22, 23, 25, 28]",125.8532535,8681,1418,5,23,7,1.1588941745226709
undo,36,44,0,0,0,9,"[0, 11, 24, 9]",4,7,"[4, 7, 8, 12, 14, 20, 23]",93.09657483,9605,924,2,8,7,1.3039383713641313
undo,36,44,0,0,0,4,"[0, 11, 24, 9, 4]",5,5,"[7, 12, 14, 20, 23]",73.39885923,10881,1276,2,3,7,1.2901330701441578
undo,36,44,0,0,0,7,"[0, 11, 24, 9, 4, 7]",6,1,[23],42.38273439,12818,1937,1,0,7,1.2468141312360979
undo,36,44,0,0,1,23,"[0, 11, 24, 9, 4, 7, 23]",7,0,[],23.27776121,14039,1221,1,0,7,1.2635191782769477
undo,36,44,1,0,0,7,"[0, 11, 24, 9, 4, 7]",6,1,[23],42.38273439,16071,2032,1,0,7,1.2468141312360979
undo,36,44,1,0,0,4,"[0, 11, 24, 9, 4]",5,5,"[7, 12, 14, 20, 23]",73.39885923,16267,196,2,3,7,1.2901330701441578
undo,36,44,1,0,0,9,"[0, 11, 24, 9]",4,7,"[4, 7, 8, 12, 14, 20, 23]",93.09657483,16670,403,2,8,7,1.3039383713641313
undo,36,44,1,0,0,24,"[0, 11, 24]",3,13,"[4, 5, 7, 8, 9, 12, 14, 17, 20, 22, 23, 25, 28]",125.8532535,17069,399,5,23,7,1.1588941745226709
undo,36,44,1,0,0,11,"[0, 11]",2,18,"[4, 5, 6, 7, 8, 9, 12, 14, 16, 17, 19, 20, 22, 23, 24, 25, 26, 28]",152.7790776,17873,804,5,34,7,1.0
undo,36,44,1,0,0,0,[0],1,29,"[1, 2, 3, 4, 5, 6, 7, 8, 9, 10, 11, 12, 13, 14, 15, 16, 17, 18, 19, 20, 21, 22, 23, 24, 25, 26, 27, 28, 29]",300,26139,8266,13,126,7,0.0
undo,36,44,0,0,0,11,"[0, 11]",2,18,"[4, 5, 6, 7, 8, 9, 12, 14, 16, 17, 19, 20, 22, 23, 24, 25, 26, 28]",152.7790776,39294,13155,5,34,7,1.0
undo,36,44,0,0,0,24,"[0, 11, 24]",3,13,"[4, 5, 7, 8, 9, 12, 14, 17, 20, 22, 23, 25, 28]",125.8532535,40245,951,5,23,7,1.1588941745226709
undo,36,44,0,0,0,9,"[0, 11, 24, 9]",4,7,"[4, 7, 8, 12, 14, 20, 23]",93.09657483,40784,539,2,8,7,1.3039383713641313
undo,36,44,0,0,0,4,"[0, 11, 24, 9, 4]",5,5,"[7, 12, 14, 20, 23]",73.39885923,41506,722,2,3,7,1.2901330701441578
undo,36,44,0,0,0,7,"[0, 11, 24, 9, 4, 7]",6,1,[23],42.38273439,43514,2008,1,0,7,1.2468141312360979
undo,36,44,0,0,1,23,"[0, 11, 24, 9, 4, 7, 23]",7,0,[],23.27776121,44067,553,1,0,7,1.2635191782769477
undo,36,44,1,0,0,7,"[0, 11, 24, 9, 4, 7]",6,1,[23],42.38273439,46820,2753,1,0,7,1.2468141312360979
undo,36,44,1,0,0,4,"[0, 11, 24, 9, 4]",5,5,"[7, 12, 14, 20, 23]",73.39885923,50638,3818,2,3,7,1.2901330701441578
undo,36,44,1,0,0,9,"[0, 11, 24, 9]",4,7,"[4, 7, 8, 12, 14, 20, 23]",93.09657483,51764,1126,2,8,7,1.3039383713641313
undo,36,44,0,0,0,4,"[0, 11, 24, 9, 4]",5,5,"[7, 12, 14, 20, 23]",73.39885923,56686,4922,2,3,7,1.2901330701441578
undo,36,44,0,0,0,7,"[0, 11, 24, 9, 4, 7]",6,1,[23],42.38273439,57683,997,1,0,7,1.2468141312360979
undo,36,44,0,0,1,23,"[0, 11, 24, 9, 4, 7, 23]",7,0,[],23.27776121,58097,414,1,0,7,1.2635191782769477
undo,36,44,0,1,1,23,"[0, 11, 24, 9, 4, 7, 23]",7,0,[],23.27776121,62090,3993,1,0,7,1.2635191782769477
undo,37,45,0,0,0,0,[0],1,24,"[1, 2, 3, 4, 5, 6, 7, 9, 10, 11, 12, 14, 15, 16, 17, 19, 20, 21, 22, 23, 24, 25, 27, 29]",300,126,-1,6,248,10,0.0
undo,37,45,0,0,0,17,"[0, 17]",2,22,"[1, 2, 3, 4, 5, 6, 7, 9, 10, 11, 12, 14, 15, 16, 19, 20, 21, 22, 23, 24, 25, 29]",235.867325,7952,7826,1,34,10,1.0
undo,37,45,0,0,0,24,"[0, 17, 24]",3,20,"[1, 2, 3, 4, 5, 6, 7, 9, 10, 11, 12, 14, 15, 16, 19, 20, 21, 22, 23, 29]",193.8078433,9202,1250,1,33,10,1.0309432256229287
undo,37,45,0,0,0,7,"[0, 17, 24, 7]",4,18,"[1, 2, 3, 4, 5, 6, 9, 10, 12, 14, 15, 16, 19, 20, 21, 22, 23, 29]",159.3985423,10190,988,1,32,10,1.059763151913087
undo,37,45,0,0,0,2,"[0, 17, 24, 7, 2]",5,12,"[3, 4, 6, 10, 12, 14, 16, 19, 20, 22, 23, 29]",121.3853866,11114,924,1,23,10,1.0656581932115423
undo,37,45,0,0,0,3,"[0, 17, 24, 7, 2, 3]",6,8,"[6, 10, 12, 14, 16, 20, 22, 29]",96.06740884,12456,1342,1,13,10,1.1368250049574795
undo,37,45,0,0,0,29,"[0, 17, 24, 7, 2, 3, 29]",7,5,"[6, 10, 12, 20, 22]",76.06740884,14055,1599,1,5,10,1.390376182346372
undo,37,45,0,0,0,10,"[0, 17, 24, 7, 2, 3, 29, 10]",8,2,"[6, 12]",54.52674961,15321,1266,1,1,10,1.6682270697663164
undo,37,45,0,0,0,6,"[0, 17, 24, 7, 2, 3, 29, 10, 6]",9,1,[12],28.27794012,16126,805,1,0,10,1.5776211572942243
undo,37,45,0,0,1,12,"[0, 17, 24, 7, 2, 3, 29, 10, 6, 12]",10,0,[],8.15332832,18520,2394,1,0,10,1.536035114105263
undo,37,45,0,1,1,12,"[0, 17, 24, 7, 2, 3, 29, 10, 6, 12]",10,0,[],8.15332832,21178,2658,1,0,10,1.536035114105263
undo,38,0,0,0,0,0,[0],1,27,"[2, 3, 4, 5, 6, 7, 8, 9, 10, 11, 12, 13, 14, 15, 16, 17, 19, 20, 21, 22, 23, 24, 25, 26, 27, 28, 29]",300,322,-1,104,1136,9,0.0
undo,38,0,0,0,0,20,"[0, 20]",2,25,"[2, 3, 4, 5, 6, 7, 8, 9, 11, 12, 13, 14, 15, 16, 17, 19, 21, 22, 23, 24, 25, 26, 27, 28, 29]",215.4955622,5649,5327,36,372,9,1.0
undo,38,0,0,0,0,5,"[0, 20, 5]",3,22,"[2, 3, 4, 7, 8, 9, 11, 12, 13, 14, 15, 16, 17, 19, 21, 22, 23, 24, 25, 26, 28, 29]",153.2942761,7529,1880,33,251,9,1.0828244018179105
undo,38,0,0,0,0,4,"[0, 20, 5, 4]",4,19,"[2, 3, 7, 8, 9, 11, 12, 13, 14, 15, 17, 19, 21, 22, 23, 24, 25, 26, 28]",128.2144037,8334,805,21,127,9,1.0973859443611045
undo,38,0,0,0,0,26,"[0, 20, 5, 4, 26]",5,14,"[3, 7, 8, 9, 11, 12, 13, 14, 15, 17, 19, 23, 24, 28]",116.1728091,9035,701,9,63,9,1.1378617460104323
undo,38,0,0,0,0,24,"[0, 20, 5, 4, 26, 24]",6,11,"[3, 7, 8, 9, 11, 12, 15, 17, 19, 23, 28]",99.05556633,9808,773,9,24,9,1.204469953325506
undo,38,0,0,0,0,15,"[0, 20, 5, 4, 26, 24, 15]",7,8,"[3, 7, 8, 9, 11, 12, 17, 19]",75.71033127,10928,1120,5,6,9,1.1865351459643638
undo,38,0,0,0,0,7,"[0, 20, 5, 4, 26, 24, 15, 7]",8,2,"[3, 8]",44.64588214,12219,1291,2,0,9,1.2455705670301183
undo,38,0,0,0,1,3,"[0, 20, 5, 4, 26, 24, 15, 7, 3]",9,0,[],20.56269298,14787,2568,1,0,9,1.289153914533821
undo,38,0,1,0,0,7,"[0, 20, 5, 4, 26, 24, 15, 7]",8,2,"[3, 8]",44.64588214,19563,4776,2,0,9,1.2455705670301183
undo,38,0,1,0,0,15,"[0, 20, 5, 4, 26, 24, 15]",7,8,"[3, 7, 8, 9, 11, 12, 17, 19]",75.71033127,19835,272,5,6,9,1.1865351459643638
undo,38,0,1,0,0,24,"[0, 20, 5, 4, 26, 24]",6,11,"[3, 7, 8, 9, 11, 12, 15, 17, 19, 23, 28]",99.05556633,20022,187,9,24,9,1.204469953325506
undo,38,0,1,0,0,26,"[0, 20, 5, 4, 26]",5,14,"[3, 7, 8, 9, 11, 12, 13, 14, 15, 17, 19, 23, 24, 28]",116.1728091,20217,195,9,63,9,1.1378617460104323
undo,38,0,0,0,0,12,"[0, 20, 5, 4, 26, 12]",6,9,"[3, 7, 13, 14, 15, 17, 23, 24, 28]",80.94497919,21756,1539,4,7,8,1.4040546223734804
undo,38,0,0,0,0,17,"[0, 20, 5, 4, 26, 12, 17]",7,3,"[3, 7, 23]",47.21072361,23560,1804,3,0,8,1.3324460187578389
undo,38,0,0,0,1,3,"[0, 20, 5, 4, 26, 12, 17, 3]",8,0,[],11.40569603,24391,831,1,0,8,1.3313987335572948
undo,38,0,1,0,0,17,"[0, 20, 5, 4, 26, 12, 17]",7,3,"[3, 7, 23]",47.21072361,25112,721,3,0,8,1.3324460187578389
undo,38,0,1,0,0,12,"[0, 20, 5, 4, 26, 12]",6,9,"[3, 7, 13, 14, 15, 17, 23, 24, 28]",80.94497919,25635,523,4,7,8,1.4040546223734804
undo,38,0,1,0,0,26,"[0, 20, 5, 4, 26]",5,14,"[3, 7, 8, 9, 11, 12, 13, 14, 15, 17, 19, 23, 24, 28]",116.1728091,26202,567,9,63,9,1.1378617460104323
undo,38,0,0,0,0,24,"[0, 20, 5, 4, 26, 24]",6,11,"[3, 7, 8, 9, 11, 12, 15, 17, 19, 23, 28]",99.05556633,30771,4569,9,24,9,1.204469953325506
undo,38,0,0,0,0,15,"[0, 20, 5, 4, 26, 24, 15]",7,8,"[3, 7, 8, 9, 11, 12, 17, 19]",75.71033127,31591,820,5,6,9,1.1865351459643638
undo,38,0,0,0,0,7,"[0, 20, 5, 4, 26, 24, 15, 7]",8,2,"[3, 8]",44.64588214,33596,2005,2,0,9,1.2455705670301183
undo,38,0,0,0,1,8,"[0, 20, 5, 4, 26, 24, 15, 7, 8]",9,0,[],25.54090896,35909,2313,1,0,9,1.2337265013393985
undo,38,0,0,1,1,8,"[0, 20, 5, 4, 26, 24, 15, 7, 8]",9,0,[],25.54090896,42021,6112,1,0,9,1.2337265013393985
undo,39,36,0,0,0,0,[0],1,24,"[2, 4, 5, 6, 7, 8, 9, 10, 12, 13, 14, 15, 16, 17, 18, 19, 20, 22, 23, 25, 26, 27, 28, 29]",300,333,-1,2,200,10,0.0
undo,39,36,0,0,0,9,"[0, 9]",2,16,"[2, 4, 8, 10, 12, 13, 16, 17, 18, 19, 23, 25, 26, 27, 28, 29]",230.9348134,5152,4819,81,367,8,1.0
undo,39,36,0,0,0,17,"[0, 9, 17]",3,13,"[2, 4, 8, 10, 12, 13, 16, 18, 19, 23, 25, 27, 29]",204.6860039,6283,1131,22,90,8,1.0084584538853834
undo,39,36,0,0,0,19,"[0, 9, 17, 19]",4,12,"[2, 4, 8, 10, 12, 13, 16, 18, 23, 25, 27, 29]",176.7933525,7163,880,8,25,8,1.5984695375617641
undo,39,36,0,0,0,2,"[0, 9, 17, 19, 2]",5,8,"[8, 10, 12, 13, 16, 18, 25, 27]",139.6719302,8821,1658,3,6,8,1.4197222355264698
undo,39,36,0,0,0,25,"[0, 9, 17, 19, 2, 25]",6,4,"[10, 12, 13, 16]",114.6719302,9630,809,2,3,8,1.618724672336267
undo,39,36,0,0,0,13,"[0, 9, 17, 19, 2, 25, 13]",7,2,"[10, 12]",94.08066987,10180,550,2,0,8,2.099469552875175
undo,39,36,1,0,0,25,"[0, 9, 17, 19, 2, 25]",6,4,"[10, 12, 13, 16]",114.6719302,13575,3395,2,3,8,1.618724672336267
undo,39,36,1,0,0,2,"[0, 9, 17, 19, 2]",5,8,"[8, 10, 12, 13, 16, 18, 25, 27]",139.6719302,14166,591,3,6,8,1.4197222355264698
undo,39,36,1,0,0,19,"[0, 9, 17, 19]",4,12,"[2, 4, 8, 10, 12, 13, 16, 18, 23, 25, 27, 29]",176.7933525,14462,296,8,25,8,1.5984695375617641
undo,39,36,1,0,0,17,"[0, 9, 17]",3,13,"[2, 4, 8, 10, 12, 13, 16, 18, 19, 23, 25, 27, 29]",204.6860039,14649,187,22,90,8,1.0084584538853834
undo,39,36,1,0,0,9,"[0, 9]",2,16,"[2, 4, 8, 10, 12, 13, 16, 17, 18, 19, 23, 25, 26, 27, 28, 29]",230.9348134,14846,197,81,367,8,1.0
undo,39,36,1,0,0,0,[0],1,24,"[2, 4, 5, 6, 7, 8, 9, 10, 12, 13, 14, 15, 16, 17, 18, 19, 20, 22, 23, 25, 26, 27, 28, 29]",300,15061,215,2,200,10,0.0
undo,39,36,0,0,0,18,"[0, 18]",2,21,"[2, 4, 5, 6, 7, 8, 9, 10, 12, 13, 14, 16, 17, 19, 22, 23, 25, 26, 27, 28, 29]",279.6039219,18516,3455,2,110,10,1.0
undo,39,36,0,0,0,16,"[0, 18, 16]",3,9,"[2, 9, 10, 12, 13, 17, 19, 23, 25]",169.581197,19999,1483,4,33,9,1.2218591943452424
undo,39,36,0,0,0,17,"[0, 18, 16, 17]",4,7,"[2, 9, 10, 12, 13, 19, 25]",141.2615925,21027,1028,4,21,9,1.6795129314662942
undo,39,36,0,0,0,9,"[0, 18, 16, 17, 9]",5,5,"[2, 12, 13, 19, 25]",115.012783,21892,865,3,6,9,2.6784437443596194
undo,39,36,0,0,0,19,"[0, 18, 16, 17, 9, 19]",6,4,"[2, 12, 13, 25]",99.88003706,22332,440,3,3,9,2.5963344600994773
undo,39,36,0,0,0,2,"[0, 18, 16, 17, 9, 19, 2]",7,2,"[13, 25]",62.75861467,23732,1400,2,0,9,2.100797884988348
undo,39,36,0,0,0,25,"[0, 18, 16, 17, 9, 19, 2, 25]",8,1,[13],37.75861467,24634,902,1,0,9,2.290514334927331
undo,39,36,0,0,1,13,"[0, 18, 16, 17, 9, 19, 2, 25, 13]",9,0,[],17.16735439,25134,500,1,0,9,2.883646365994176
undo,39,36,1,0,0,25,"[0, 18, 16, 17, 9, 19, 2, 25]",8,1,[13],37.75861467,31158,6024,1,0,9,2.290514334927331
undo,39,36,1,0,0,2,"[0, 18, 16, 17, 9, 19, 2]",7,2,"[13, 25]",62.75861467,31392,234,2,0,9,2.100797884988348
undo,39,36,1,0,0,19,"[0, 18, 16, 17, 9, 19]",6,4,"[2, 12, 13, 25]",99.88003706,31577,185,3,3,9,2.5963344600994773
undo,39,36,1,0,0,9,"[0, 18, 16, 17, 9]",5,5,"[2, 12, 13, 19, 25]",115.012783,31777,200,3,6,9,2.6784437443596194
undo,39,36,1,0,0,17,"[0, 18, 16, 17]",4,7,"[2, 9, 10, 12, 13, 19, 25]",141.2615925,31974,197,4,21,9,1.6795129314662942
undo,39,36,1,0,0,16,"[0, 18, 16]",3,9,"[2, 9, 10, 12, 13, 17, 19, 23, 25]",169.581197,32177,203,4,33,9,1.2218591943452424
undo,39,36,1,0,0,18,"[0, 18]",2,21,"[2, 4, 5, 6, 7, 8, 9, 10, 12, 13, 14, 16, 17, 19, 22, 23, 25, 26, 27, 28, 29]",279.6039219,32387,210,2,110,10,1.0
undo,39,36,1,0,0,0,[0],1,24,"[2, 4, 5, 6, 7, 8, 9, 10, 12, 13, 14, 15, 16, 17, 18, 19, 20, 22, 23, 25, 26, 27, 28, 29]",300,33363,976,2,200,10,0.0
undo,39,36,0,0,0,12,"[0, 12]",2,23,"[2, 4, 5, 6, 7, 8, 9, 10, 13, 14, 15, 16, 17, 18, 19, 20, 22, 23, 25, 26, 27, 28, 29]",277.7963967,34869,1506,90,804,9,1.0
undo,39,36,0,0,0,18,"[0, 12, 18]",3,15,"[2, 4, 6, 7, 9, 10, 13, 16, 17, 19, 23, 25, 26, 28, 29]",235.217059,35683,814,11,123,9,3.1762450029512506
undo,39,36,0,0,0,16,"[0, 12, 18, 16]",4,6,"[2, 9, 13, 17, 19, 25]",125.1943341,37351,1668,10,23,8,1.6377079469404239
undo,39,36,0,0,0,17,"[0, 12, 18, 16, 17]",5,5,"[2, 9, 13, 19, 25]",96.87472953,39897,2546,9,8,8,2.149142881264911
undo,39,36,0,0,0,9,"[0, 12, 18, 16, 17, 9]",6,4,"[2, 13, 19, 25]",70.62592004,40554,657,3,3,8,3.321124451464694
undo,39,36,0,0,0,19,"[0, 12, 18, 16, 17, 9, 19]",7,3,"[2, 13, 25]",55.49317409,41468,914,3,0,8,3.1722047541554317
undo,39,36,0,0,1,2,"[0, 12, 18, 16, 17, 9, 19, 2]",8,0,[],18.3717517,42407,939,1,0,8,2.4938483121679775
undo,39,36,1,0,0,19,"[0, 12, 18, 16, 17, 9, 19]",7,3,"[2, 13, 25]",55.49317409,43484,1077,3,0,8,3.1722047541554317
undo,39,36,1,0,0,9,"[0, 12, 18, 16, 17, 9]",6,4,"[2, 13, 19, 25]",70.62592004,44290,806,3,3,8,3.321124451464694
undo,39,36,1,0,0,17,"[0, 12, 18, 16, 17]",5,5,"[2, 9, 13, 19, 25]",96.87472953,44481,191,9,8,8,2.149142881264911
undo,39,36,1,0,0,16,"[0, 12, 18, 16]",4,6,"[2, 9, 13, 17, 19, 25]",125.1943341,44655,174,10,23,8,1.6377079469404239
undo,39,36,1,0,0,18,"[0, 12, 18]",3,15,"[2, 4, 6, 7, 9, 10, 13, 16, 17, 19, 23, 25, 26, 28, 29]",235.217059,44853,198,11,123,9,3.1762450029512506
undo,39,36,1,0,0,12,"[0, 12]",2,23,"[2, 4, 5, 6, 7, 8, 9, 10, 13, 14, 15, 16, 17, 18, 19, 20, 22, 23, 25, 26, 27, 28, 29]",277.7963967,45033,180,90,804,9,1.0
undo,39,36,1,0,0,0,[0],1,24,"[2, 4, 5, 6, 7, 8, 9, 10, 12, 13, 14, 15, 16, 17, 18, 19, 20, 22, 23, 25, 26, 27, 28, 29]",300,45742,709,2,200,10,0.0
undo,39,36,0,0,0,18,"[0, 18]",2,21,"[2, 4, 5, 6, 7, 8, 9, 10, 12, 13, 14, 16, 17, 19, 22, 23, 25, 26, 27, 28, 29]",279.6039219,48660,2918,2,110,10,1.0
undo,39,36,0,0,0,16,"[0, 18, 16]",3,9,"[2, 9, 10, 12, 13, 17, 19, 23, 25]",169.581197,51043,2383,4,33,9,1.2218591943452424
undo,39,36,0,0,0,17,"[0, 18, 16, 17]",4,7,"[2, 9, 10, 12, 13, 19, 25]",141.2615925,52298,1255,4,21,9,1.6795129314662942
undo,39,36,0,0,0,9,"[0, 18, 16, 17, 9]",5,5,"[2, 12, 13, 19, 25]",115.012783,53380,1082,3,6,9,2.6784437443596194
undo,39,36,0,0,0,19,"[0, 18, 16, 17, 9, 19]",6,4,"[2, 12, 13, 25]",99.88003706,53942,562,3,3,9,2.5963344600994773
undo,39,36,0,0,0,2,"[0, 18, 16, 17, 9, 19, 2]",7,2,"[13, 25]",62.75861467,54940,998,2,0,9,2.100797884988348
undo,39,36,0,0,0,25,"[0, 18, 16, 17, 9, 19, 2, 25]",8,1,[13],37.75861467,57222,2282,1,0,9,2.290514334927331
undo,39,36,0,0,1,13,"[0, 18, 16, 17, 9, 19, 2, 25, 13]",9,0,[],17.16735439,57986,764,1,0,9,2.883646365994176
undo,39,36,0,1,1,13,"[0, 18, 16, 17, 9, 19, 2, 25, 13]",9,0,[],17.16735439,59399,1413,1,0,9,2.883646365994176
undo,40,10,0,0,0,0,[0],1,29,"[1, 2, 3, 4, 5, 6, 7, 8, 9, 10, 11, 12, 13, 14, 15, 16, 17, 18, 19, 20, 21, 22, 23, 24, 25, 26, 27, 28, 29]",300,312,-1,1,100,9,0.0
undo,40,10,0,0,0,13,"[0, 13]",2,25,"[1, 2, 3, 4, 6, 7, 8, 9, 10, 11, 12, 14, 17, 18, 19, 20, 21, 22, 23, 24, 25, 26, 27, 28, 29]",249.4628849,7686,7374,1,79,9,1.0
undo,40,10,0,0,0,11,"[0, 13, 11]",3,20,"[1, 2, 3, 6, 7, 8, 9, 10, 12, 14, 18, 19, 20, 21, 22, 24, 26, 27, 28, 29]",206.4512586,10413,2727,1,54,9,1.0313137484914219
undo,40,10,0,0,0,20,"[0, 13, 11, 20]",4,15,"[1, 2, 3, 6, 8, 9, 10, 12, 14, 18, 19, 21, 24, 26, 27]",168.3723931,11303,890,15,34,8,1.0874972644654597
undo,40,10,0,0,0,27,"[0, 13, 11, 20, 27]",5,11,"[1, 2, 6, 9, 10, 12, 14, 18, 19, 21, 26]",123.1175591,12535,1232,1,10,8,1.1358705803065132
undo,40,10,1,0,0,20,"[0, 13, 11, 20]",4,15,"[1, 2, 3, 6, 8, 9, 10, 12, 14, 18, 19, 21, 24, 26, 27]",168.3723931,16150,3615,15,34,8,1.0874972644654597
undo,40,10,0,0,0,26,"[0, 13, 11, 20, 26]",5,8,"[2, 6, 9, 10, 14, 18, 19, 27]",136.5918959,17537,1387,6,9,8,1.2338398611867702
undo,40,10,0,0,0,19,"[0, 13, 11, 20, 26, 19]",6,4,"[2, 10, 14, 27]",108.2722914,18316,779,2,2,8,1.605667351096318
undo,40,10,0,0,0,2,"[0, 13, 11, 20, 26, 19, 2]",7,1,[14],64.36329458,19024,708,1,0,8,1.443425373304724
undo,40,10,0,0,1,14,"[0, 13, 11, 20, 26, 19, 2, 14]",8,0,[],52.19776952,19667,643,1,0,8,1.5494298542386484
undo,40,10,1,0,0,2,"[0, 13, 11, 20, 26, 19, 2]",7,1,[14],64.36329458,22317,2650,1,0,8,1.443425373304724
undo,40,10,1,0,0,19,"[0, 13, 11, 20, 26, 19]",6,4,"[2, 10, 14, 27]",108.2722914,24692,2375,2,2,8,1.605667351096318
undo,40,10,1,0,0,26,"[0, 13, 11, 20, 26]",5,8,"[2, 6, 9, 10, 14, 18, 19, 27]",136.5918959,26266,1574,6,9,8,1.2338398611867702
undo,40,10,1,0,0,20,"[0, 13, 11, 20]",4,15,"[1, 2, 3, 6, 8, 9, 10, 12, 14, 18, 19, 21, 24, 26, 27]",168.3723931,26466,200,15,34,8,1.0874972644654597
undo,40,10,1,0,0,11,"[0, 13, 11]",3,20,"[1, 2, 3, 6, 7, 8, 9, 10, 12, 14, 18, 19, 20, 21, 22, 24, 26, 27, 28, 29]",206.4512586,26657,191,1,54,9,1.0313137484914219
undo,40,10,1,0,0,13,"[0, 13]",2,25,"[1, 2, 3, 4, 6, 7, 8, 9, 10, 11, 12, 14, 17, 18, 19, 20, 21, 22, 23, 24, 25, 26, 27, 28, 29]",249.4628849,26942,285,1,79,9,1.0
undo,40,10,1,0,0,0,[0],1,29,"[1, 2, 3, 4, 5, 6, 7, 8, 9, 10, 11, 12, 13, 14, 15, 16, 17, 18, 19, 20, 21, 22, 23, 24, 25, 26, 27, 28, 29]",300,27261,319,1,100,9,0.0
undo,40,10,0,0,0,10,"[0, 10]",2,27,"[1, 2, 3, 4, 5, 6, 7, 8, 9, 11, 12, 13, 14, 15, 17, 18, 19, 20, 21, 22, 23, 24, 25, 26, 27, 28, 29]",211.2475352,29155,1894,5,73,8,1.0
undo,40,10,0,0,0,18,"[0, 10, 18]",3,24,"[1, 2, 3, 5, 6, 7, 8, 9, 11, 12, 13, 14, 15, 17, 19, 20, 21, 23, 24, 25, 26, 27, 28, 29]",197.7939112,29645,490,5,49,8,1.0012508773359339
undo,40,10,0,0,0,20,"[0, 10, 18, 20]",4,9,"[2, 6, 9, 11, 13, 14, 19, 26, 27]",126.4496753,30899,1254,3,23,8,1.4338595664185272
undo,40,10,0,0,0,19,"[0, 10, 18, 20, 19]",5,5,"[2, 11, 13, 14, 26]",74.52665533,32667,1768,5,2,7,1.8882778640744995
undo,40,10,0,0,0,26,"[0, 10, 18, 20, 19, 26]",6,3,"[2, 11, 14]",46.20705081,34074,1407,3,0,7,1.916305552429273
undo,40,10,0,0,1,14,"[0, 10, 18, 20, 19, 26, 14]",7,0,[],11.53717916,38017,3943,1,0,7,1.8036678103406494
undo,40,10,1,0,0,26,"[0, 10, 18, 20, 19, 26]",6,3,"[2, 11, 14]",46.20705081,40518,2501,3,0,7,1.916305552429273
undo,40,10,1,0,0,19,"[0, 10, 18, 20, 19]",5,5,"[2, 11, 13, 14, 26]",74.52665533,40865,347,5,2,7,1.8882778640744995
undo,40,10,1,0,0,20,"[0, 10, 18, 20]",4,9,"[2, 6, 9, 11, 13, 14, 19, 26, 27]",126.4496753,42112,1247,3,23,8,1.4338595664185272
undo,40,10,0,0,0,11,"[0, 10, 18, 20, 11]",5,6,"[2, 13, 14, 19, 26, 27]",88.37080974,44459,2347,7,3,7,2.3330735425291875
undo,40,10,0,0,0,19,"[0, 10, 18, 20, 11, 19]",6,3,"[2, 14, 26]",52.01149182,45551,1092,3,0,7,2.076836227477389
undo,40,10,0,0,1,26,"[0, 10, 18, 20, 11, 19, 26]",7,0,[],23.6918873,46836,1285,1,0,7,2.0863100107318755
undo,40,10,1,0,0,19,"[0, 10, 18, 20, 11, 19]",6,3,"[2, 14, 26]",52.01149182,47920,1084,3,0,7,2.076836227477389
undo,40,10,1,0,0,11,"[0, 10, 18, 20, 11]",5,6,"[2, 13, 14, 19, 26, 27]",88.37080974,48219,299,7,3,7,2.3330735425291875
undo,40,10,1,0,0,20,"[0, 10, 18, 20]",4,9,"[2, 6, 9, 11, 13, 14, 19, 26, 27]",126.4496753,48504,285,3,23,8,1.4338595664185272
undo,40,10,1,0,0,18,"[0, 10, 18]",3,24,"[1, 2, 3, 5, 6, 7, 8, 9, 11, 12, 13, 14, 15, 17, 19, 20, 21, 23, 24, 25, 26, 27, 28, 29]",197.7939112,49414,910,5,49,8,1.0012508773359339
undo,40,10,1,0,0,10,"[0, 10]",2,27,"[1, 2, 3, 4, 5, 6, 7, 8, 9, 11, 12, 13, 14, 15, 17, 18, 19, 20, 21, 22, 23, 24, 25, 26, 27, 28, 29]",211.2475352,49677,263,5,73,8,1.0
undo,40,10,1,0,0,0,[0],1,29,"[1, 2, 3, 4, 5, 6, 7, 8, 9, 10, 11, 12, 13, 14, 15, 16, 17, 18, 19, 20, 21, 22, 23, 24, 25, 26, 27, 28, 29]",300,50060,383,1,100,9,0.0
undo,40,10,0,0,0,13,"[0, 13]",2,25,"[1, 2, 3, 4, 6, 7, 8, 9, 10, 11, 12, 14, 17, 18, 19, 20, 21, 22, 23, 24, 25, 26, 27, 28, 29]",249.4628849,51309,1249,1,79,9,1.0
undo,40,10,0,0,0,11,"[0, 13, 11]",3,20,"[1, 2, 3, 6, 7, 8, 9, 10, 12, 14, 18, 19, 20, 21, 22, 24, 26, 27, 28, 29]",206.4512586,51987,678,1,54,9,1.0313137484914219
undo,40,10,0,0,0,20,"[0, 13, 11, 20]",4,15,"[1, 2, 3, 6, 8, 9, 10, 12, 14, 18, 19, 21, 24, 26, 27]",168.3723931,52878,891,15,34,8,1.0874972644654597
undo,40,10,0,0,0,26,"[0, 13, 11, 20, 26]",5,8,"[2, 6, 9, 10, 14, 18, 19, 27]",136.5918959,53847,969,6,9,8,1.2338398611867702
undo,40,10,0,0,0,19,"[0, 13, 11, 20, 26, 19]",6,4,"[2, 10, 14, 27]",108.2722914,54391,544,2,2,8,1.605667351096318
undo,40,10,0,0,0,14,"[0, 13, 11, 20, 26, 19, 14]",7,1,[2],67.04123512,55375,984,1,0,8,1.4566183057047435
undo,40,10,0,0,1,2,"[0, 13, 11, 20, 26, 19, 14, 2]",8,0,[],54.87571006,56149,774,1,0,8,1.5015428902812569
undo,40,10,1,0,0,14,"[0, 13, 11, 20, 26, 19, 14]",7,1,[2],67.04123512,60025,3876,1,0,8,1.4566183057047435
undo,40,10,1,0,0,19,"[0, 13, 11, 20, 26, 19]",6,4,"[2, 10, 14, 27]",108.2722914,61264,1239,2,2,8,1.605667351096318
undo,40,10,1,0,0,26,"[0, 13, 11, 20, 26]",5,8,"[2, 6, 9, 10, 14, 18, 19, 27]",136.5918959,61462,198,6,9,8,1.2338398611867702
undo,40,10,1,0,0,20,"[0, 13, 11, 20]",4,15,"[1, 2, 3, 6, 8, 9, 10, 12, 14, 18, 19, 21, 24, 26, 27]",168.3723931,61817,355,15,34,8,1.0874972644654597
undo,40,10,1,0,0,11,"[0, 13, 11]",3,20,"[1, 2, 3, 6, 7, 8, 9, 10, 12, 14, 18, 19, 20, 21, 22, 24, 26, 27, 28, 29]",206.4512586,62153,336,1,54,9,1.0313137484914219
undo,40,10,1,0,0,13,"[0, 13]",2,25,"[1, 2, 3, 4, 6, 7, 8, 9, 10, 11, 12, 14, 17, 18, 19, 20, 21, 22, 23, 24, 25, 26, 27, 28, 29]",249.4628849,62373,220,1,79,9,1.0
undo,40,10,1,0,0,0,[0],1,29,"[1, 2, 3, 4, 5, 6, 7, 8, 9, 10, 11, 12, 13, 14, 15, 16, 17, 18, 19, 20, 21, 22, 23, 24, 25, 26, 27, 28, 29]",300,62581,208,1,100,9,0.0
undo,40,10,0,0,0,29,"[0, 29]",2,22,"[3, 4, 7, 8, 10, 11, 12, 13, 15, 16, 17, 18, 19, 20, 21, 22, 23, 24, 25, 26, 27, 28]",219.9375244,63547,966,3,19,7,1.0
undo,40,10,0,0,0,7,"[0, 29, 7]",3,18,"[3, 4, 8, 10, 11, 12, 13, 15, 16, 17, 18, 20, 21, 22, 23, 25, 27, 28]",191.3368251,65718,2171,3,16,7,1.1306818684255975
undo,40,10,0,0,0,28,"[0, 29, 7, 28]",4,8,"[3, 10, 12, 15, 17, 18, 23, 25]",121.3011199,66837,1119,2,9,7,1.2100517791866654
undo,40,10,0,0,0,23,"[0, 29, 7, 28, 23]",5,4,"[3, 15, 17, 25]",74.03591073,67704,867,2,2,7,1.1685418500626352
undo,40,10,0,0,0,25,"[0, 29, 7, 28, 23, 25]",6,1,[15],48.71793293,68980,1276,1,0,7,1.1491210813070147
undo,40,10,0,0,1,15,"[0, 29, 7, 28, 23, 25, 15]",7,0,[],33.42087439,69798,818,1,0,7,1.1429485717660537
undo,40,10,1,0,0,25,"[0, 29, 7, 28, 23, 25]",6,1,[15],48.71793293,72976,3178,1,0,7,1.1491210813070147
undo,40,10,1,0,0,23,"[0, 29, 7, 28, 23]",5,4,"[3, 15, 17, 25]",74.03591073,73226,250,2,2,7,1.1685418500626352
undo,40,10,1,0,0,28,"[0, 29, 7, 28]",4,8,"[3, 10, 12, 15, 17, 18, 23, 25]",121.3011199,73414,188,2,9,7,1.2100517791866654
undo,40,10,1,0,0,7,"[0, 29, 7]",3,18,"[3, 4, 8, 10, 11, 12, 13, 15, 16, 17, 18, 20, 21, 22, 23, 25, 27, 28]",191.3368251,73596,182,3,16,7,1.1306818684255975
undo,40,10,1,0,0,29,"[0, 29]",2,22,"[3, 4, 7, 8, 10, 11, 12, 13, 15, 16, 17, 18, 19, 20, 21, 22, 23, 24, 25, 26, 27, 28]",219.9375244,74743,1147,3,19,7,1.0
undo,40,10,1,0,0,0,[0],1,29,"[1, 2, 3, 4, 5, 6, 7, 8, 9, 10, 11, 12, 13, 14, 15, 16, 17, 18, 19, 20, 21, 22, 23, 24, 25, 26, 27, 28, 29]",300,75303,560,1,100,9,0.0
undo,40,10,0,0,0,13,"[0, 13]",2,25,"[1, 2, 3, 4, 6, 7, 8, 9, 10, 11, 12, 14, 17, 18, 19, 20, 21, 22, 23, 24, 25, 26, 27, 28, 29]",249.4628849,81006,5703,1,79,9,1.0
undo,40,10,0,0,0,11,"[0, 13, 11]",3,20,"[1, 2, 3, 6, 7, 8, 9, 10, 12, 14, 18, 19, 20, 21, 22, 24, 26, 27, 28, 29]",206.4512586,81948,942,1,54,9,1.0313137484914219
undo,40,10,0,0,0,20,"[0, 13, 11, 20]",4,15,"[1, 2, 3, 6, 8, 9, 10, 12, 14, 18, 19, 21, 24, 26, 27]",168.3723931,82517,569,15,34,8,1.0874972644654597
undo,40,10,0,0,0,19,"[0, 13, 11, 20, 19]",5,6,"[2, 10, 14, 18, 26, 27]",116.4493731,83831,1314,4,3,8,1.5371865185196898
undo,40,10,0,0,0,26,"[0, 13, 11, 20, 19, 26]",6,3,"[2, 14, 27]",88.1297686,84671,840,2,1,8,1.599761152238868
undo,40,10,1,0,0,19,"[0, 13, 11, 20, 19]",5,6,"[2, 10, 14, 18, 26, 27]",116.4493731,88199,3528,4,3,8,1.5371865185196898
undo,40,10,1,0,0,20,"[0, 13, 11, 20]",4,15,"[1, 2, 3, 6, 8, 9, 10, 12, 14, 18, 19, 21, 24, 26, 27]",168.3723931,88500,301,15,34,8,1.0874972644654597
undo,40,10,0,0,0,26,"[0, 13, 11, 20, 26]",5,8,"[2, 6, 9, 10, 14, 18, 19, 27]",136.5918959,89849,1349,6,9,8,1.2338398611867702
undo,40,10,0,0,0,14,"[0, 13, 11, 20, 26, 14]",6,3,"[2, 19, 27]",101.9220243,90836,987,2,1,8,1.2385196389162765
undo,40,10,0,0,0,2,"[0, 13, 11, 20, 26, 14, 2]",7,1,[19],89.75649919,92487,1651,1,0,8,1.2878757708849242
undo,40,10,0,0,1,19,"[0, 13, 11, 20, 26, 14, 2, 19]",8,0,[],45.84750239,93975,1488,1,0,8,2.1284579604680154
undo,40,10,0,1,1,19,"[0, 13, 11, 20, 26, 14, 2, 19]",8,0,[],45.84750239,96251,2276,1,0,8,2.1284579604680154
undo,41,43,0,0,0,0,[0],1,23,"[1, 2, 3, 4, 5, 6, 7, 9, 10, 11, 12, 14, 15, 16, 17, 19, 20, 21, 22, 23, 25, 27, 29]",300,305,-1,16,556,12,0.0
undo,41,43,0,0,0,29,"[0, 29]",2,22,"[1, 2, 3, 4, 5, 6, 7, 9, 10, 11, 12, 14, 15, 16, 17, 19, 20, 21, 22, 23, 25, 27]",277.909278,4808,4503,16,520,12,1.0
undo,41,43,0,0,0,20,"[0, 29, 20]",3,20,"[1, 2, 3, 4, 6, 7, 9, 10, 11, 12, 14, 15, 16, 17, 19, 21, 22, 23, 25, 27]",254.4785289,7326,2518,15,422,12,1.082311746871282
undo,41,43,0,0,0,16,"[0, 29, 20, 16]",4,19,"[1, 2, 3, 4, 6, 7, 9, 10, 11, 12, 14, 15, 17, 19, 21, 22, 23, 25, 27]",231.8511119,7955,629,15,389,12,1.215201926898219
undo,41,43,0,0,0,11,"[0, 29, 20, 16, 11]",5,17,"[1, 2, 3, 4, 6, 7, 9, 10, 12, 14, 15, 17, 19, 21, 22, 23, 25]",196.7227758,9098,1143,12,188,12,1.1349145516483516
undo,41,43,0,0,0,6,"[0, 29, 20, 16, 11, 6]",6,15,"[1, 2, 3, 4, 7, 10, 12, 14, 15, 17, 19, 21, 22, 23, 25]",176.1072477,9903,805,10,100,12,1.123330873754209
undo,41,43,0,0,0,1,"[0, 29, 20, 16, 11, 6, 1]",7,10,"[2, 3, 4, 7, 12, 14, 15, 19, 22, 25]",127.8371741,13076,3173,7,36,12,1.1959789832191803
undo,41,43,0,0,0,19,"[0, 29, 20, 16, 11, 6, 1, 19]",8,8,"[3, 4, 7, 12, 14, 15, 22, 25]",99.65916852,13853,777,4,16,12,1.442084860173939
undo,41,43,0,0,0,22,"[0, 29, 20, 16, 11, 6, 1, 19, 22]",9,6,"[3, 7, 12, 14, 15, 25]",79.04364039,14341,488,3,7,12,1.852594491960324
undo,41,43,0,0,0,3,"[0, 29, 20, 16, 11, 6, 1, 19, 22, 3]",10,3,"[12, 15, 25]",44.33053048,15352,1011,2,2,12,2.295054375959106
undo,41,43,0,0,0,12,"[0, 29, 20, 16, 11, 6, 1, 19, 22, 3, 12]",11,2,"[15, 25]",31.33053048,16171,819,2,0,12,2.717717859995072
undo,41,43,0,0,1,15,"[0, 29, 20, 16, 11, 6, 1, 19, 22, 3, 12, 15]",12,0,[],12.01732256,17025,854,1,0,12,3.483095146576392
undo,41,43,0,1,1,15,"[0, 29, 20, 16, 11, 6, 1, 19, 22, 3, 12, 15]",12,0,[],12.01732256,20564,3539,1,0,12,3.483095146576392
undo,42,40,0,0,0,0,[0],1,29,"[1, 2, 3, 4, 5, 6, 7, 8, 9, 10, 11, 12, 13, 14, 15, 16, 17, 18, 19, 20, 21, 22, 23, 24, 25, 26, 27, 28, 29]",300,357,-1,8,191,9,0.0
undo,42,40,0,0,0,1,"[0, 1]",2,18,"[2, 5, 6, 7, 8, 9, 10, 11, 13, 15, 17, 18, 19, 21, 22, 23, 27, 29]",247.8463808,4752,4395,4,80,9,1.0
undo,42,40,0,0,0,6,"[0, 1, 6]",3,17,"[2, 5, 7, 8, 9, 10, 11, 13, 15, 17, 18, 19, 21, 22, 23, 27, 29]",227.7466295,5590,838,4,74,9,1.0459427008232034
undo,42,40,0,0,0,21,"[0, 1, 6, 21]",4,8,"[2, 5, 9, 17, 18, 19, 22, 23]",175.7754837,6303,713,4,25,9,1.0308822257404064
undo,42,40,0,0,0,9,"[0, 1, 6, 21, 9]",5,6,"[2, 5, 18, 19, 22, 23]",130.0699041,7186,883,4,12,9,1.377861912961129
undo,42,40,0,0,0,18,"[0, 1, 6, 21, 9, 18]",6,5,"[2, 5, 19, 22, 23]",113.5169588,8774,1588,4,4,9,1.5742712168661408
undo,42,40,0,0,0,23,"[0, 1, 6, 21, 9, 18, 23]",7,3,"[2, 5, 19]",79.51695879,9606,832,2,1,9,2.324611956726637
undo,42,40,0,0,0,19,"[0, 1, 6, 21, 9, 18, 23, 19]",8,1,[5],47.56386817,10358,752,1,0,9,2.460596854255639
undo,42,40,0,0,1,5,"[0, 1, 6, 21, 9, 18, 23, 19, 5]",9,0,[],9.485002643,11474,1116,1,0,9,2.3622228457215413
undo,42,40,0,1,1,5,"[0, 1, 6, 21, 9, 18, 23, 19, 5]",9,0,[],9.485002643,18698,7224,1,0,9,2.3622228457215413
undo,43,16,0,0,0,0,[0],1,29,"[1, 2, 3, 4, 5, 6, 7, 8, 9, 10, 11, 12, 13, 14, 15, 16, 17, 18, 19, 20, 21, 22, 23, 24, 25, 26, 27, 28, 29]",300,330,-1,13,161,9,0.0
undo,43,16,0,0,0,17,"[0, 17]",2,27,"[1, 2, 3, 4, 5, 7, 8, 9, 10, 11, 12, 13, 14, 15, 16, 18, 19, 20, 21, 22, 23, 24, 25, 26, 27, 28, 29]",241.3058776,4041,3711,2,58,9,1.0
undo,43,16,0,0,0,16,"[0, 17, 16]",3,26,"[1, 2, 3, 4, 5, 7, 8, 9, 10, 11, 12, 13, 14, 15, 18, 19, 20, 21, 22, 23, 24, 25, 26, 27, 28, 29]",212.9862731,4797,756,2,52,9,1.0529535521792848
undo,43,16,0,0,0,21,"[0, 17, 16, 21]",4,19,"[3, 5, 7, 8, 9, 10, 12, 14, 15, 19, 20, 22, 23, 24, 25, 26, 27, 28, 29]",168.332046,5593,796,9,18,8,1.5524765786046826
undo,43,16,0,0,0,8,"[0, 17, 16, 21, 8]",5,7,"[3, 5, 9, 12, 15, 20, 25]",119.0776046,6908,1315,9,6,8,1.458624751458944
undo,43,16,0,0,0,20,"[0, 17, 16, 21, 8, 20]",6,3,"[9, 15, 25]",61.30217727,7777,869,4,1,8,1.3191752290945782
undo,43,16,0,0,0,25,"[0, 17, 16, 21, 8, 20, 25]",7,2,"[9, 15]",48.65306663,8774,997,2,0,8,1.3641436248537882
undo,43,16,0,0,1,9,"[0, 17, 16, 21, 8, 20, 25, 9]",8,0,[],35.84681815,9881,1107,1,0,8,1.3406027753205443
undo,43,16,1,0,0,25,"[0, 17, 16, 21, 8, 20, 25]",7,2,"[9, 15]",48.65306663,12926,3045,2,0,8,1.3641436248537882
undo,43,16,1,0,0,20,"[0, 17, 16, 21, 8, 20]",6,3,"[9, 15, 25]",61.30217727,14994,2068,4,1,8,1.3191752290945782
undo,43,16,1,0,0,8,"[0, 17, 16, 21, 8]",5,7,"[3, 5, 9, 12, 15, 20, 25]",119.0776046,15496,502,9,6,8,1.458624751458944
undo,43,16,1,0,0,21,"[0, 17, 16, 21]",4,19,"[3, 5, 7, 8, 9, 10, 12, 14, 15, 19, 20, 22, 23, 24, 25, 26, 27, 28, 29]",168.332046,16947,1451,9,18,8,1.5524765786046826
undo,43,16,1,0,0,16,"[0, 17, 16]",3,26,"[1, 2, 3, 4, 5, 7, 8, 9, 10, 11, 12, 13, 14, 15, 18, 19, 20, 21, 22, 23, 24, 25, 26, 27, 28, 29]",212.9862731,17328,381,2,52,9,1.0529535521792848
undo,43,16,1,0,0,17,"[0, 17]",2,27,"[1, 2, 3, 4, 5, 7, 8, 9, 10, 11, 12, 13, 14, 15, 16, 18, 19, 20, 21, 22, 23, 24, 25, 26, 27, 28, 29]",241.3058776,17517,189,2,58,9,1.0
undo,43,16,1,0,0,0,[0],1,29,"[1, 2, 3, 4, 5, 6, 7, 8, 9, 10, 11, 12, 13, 14, 15, 16, 17, 18, 19, 20, 21, 22, 23, 24, 25, 26, 27, 28, 29]",300,17705,188,13,161,9,0.0
undo,43,16,0,0,0,28,"[0, 28]",2,27,"[1, 2, 3, 4, 5, 7, 8, 9, 10, 11, 12, 13, 14, 15, 16, 17, 18, 19, 20, 21, 22, 23, 24, 25, 26, 27, 29]",284.3475242,19336,1631,11,92,9,1.0
undo,43,16,0,0,0,17,"[0, 28, 17]",3,26,"[1, 2, 3, 4, 5, 7, 8, 9, 10, 11, 12, 13, 14, 15, 16, 18, 19, 20, 21, 22, 23, 24, 25, 26, 27, 29]",219.1555001,20821,1485,10,46,9,1.3773866384707543
undo,43,16,0,0,0,16,"[0, 28, 17, 16]",4,25,"[1, 2, 3, 4, 5, 7, 8, 9, 10, 11, 12, 13, 14, 15, 18, 19, 20, 21, 22, 23, 24, 25, 26, 27, 29]",190.8358956,21711,890,10,34,9,1.3209953830681203
undo,43,16,0,0,0,21,"[0, 28, 17, 16, 21]",5,13,"[3, 5, 7, 8, 9, 10, 12, 15, 20, 22, 25, 26, 29]",146.1816685,22467,756,4,7,9,1.8136482702070456
undo,43,16,0,0,0,8,"[0, 28, 17, 16, 21, 8]",6,6,"[5, 9, 12, 15, 20, 25]",96.92722704,23321,854,4,2,9,1.637204572335983
undo,43,16,0,0,0,20,"[0, 28, 17, 16, 21, 8, 20]",7,2,"[9, 25]",39.15179974,24836,1515,2,0,9,1.441590377328759
undo,43,16,0,0,0,25,"[0, 28, 17, 16, 21, 8, 20, 25]",8,1,[9],26.5026891,25279,443,1,0,9,1.484361110265371
undo,43,16,0,0,1,9,"[0, 28, 17, 16, 21, 8, 20, 25, 9]",9,0,[],13.69644062,25989,710,1,0,9,1.4530180692918209
undo,43,16,0,1,1,9,"[0, 28, 17, 16, 21, 8, 20, 25, 9]",9,0,[],13.69644062,30344,4355,1,0,9,1.4530180692918209
undo,44,24,0,0,0,0,[0],1,29,"[1, 2, 3, 4, 5, 6, 7, 8, 9, 10, 11, 12, 13, 14, 15, 16, 17, 18, 19, 20, 21, 22, 23, 24, 25, 26, 27, 28, 29]",300,332,-1,4,76,10,0.0
undo,44,24,0,0,0,16,"[0, 16]",2,28,"[1, 2, 3, 4, 5, 6, 7, 8, 9, 10, 11, 12, 13, 14, 15, 17, 18, 19, 20, 21, 22, 23, 24, 25, 26, 27, 28, 29]",210.3562607,6468,6136,13,110,9,1.0
undo,44,24,0,0,0,22,"[0, 16, 22]",3,27,"[1, 2, 3, 4, 5, 6, 7, 8, 9, 10, 11, 12, 13, 14, 15, 17, 18, 19, 20, 21, 23, 24, 25, 26, 27, 28, 29]",192.3285043,6956,488,7,54,9,1.0217425143037777
undo,44,24,0,0,0,8,"[0, 16, 22, 8]",4,21,"[1, 2, 3, 4, 6, 9, 10, 11, 13, 14, 15, 17, 20, 21, 23, 24, 25, 26, 27, 28, 29]",178.9120964,7590,634,4,28,9,1.0996636936037951
undo,44,24,0,0,0,15,"[0, 16, 22, 8, 15]",5,16,"[3, 4, 6, 9, 10, 11, 13, 14, 17, 23, 24, 25, 26, 27, 28, 29]",148.025206,8288,698,3,17,9,1.2704773343758617
undo,44,24,0,0,0,28,"[0, 16, 22, 8, 15, 28]",6,8,"[3, 4, 9, 11, 13, 23, 26, 27]",102.7482803,9589,1301,3,5,9,1.1981967578189556
undo,44,24,0,0,0,23,"[0, 16, 22, 8, 15, 28, 23]",7,3,"[9, 11, 27]",83.72198273,10729,1140,3,1,9,1.2275650852813986
undo,44,24,0,0,0,11,"[0, 16, 22, 8, 15, 28, 23, 11]",8,2,"[9, 27]",56.79615869,12246,1517,2,0,9,1.2107937989822568
undo,44,24,1,0,0,23,"[0, 16, 22, 8, 15, 28, 23]",7,3,"[9, 11, 27]",83.72198273,19660,7414,3,1,9,1.2275650852813986
undo,44,24,1,0,0,28,"[0, 16, 22, 8, 15, 28]",6,8,"[3, 4, 9, 11, 13, 23, 26, 27]",102.7482803,19993,333,3,5,9,1.1981967578189556
undo,44,24,1,0,0,15,"[0, 16, 22, 8, 15]",5,16,"[3, 4, 6, 9, 10, 11, 13, 14, 17, 23, 24, 25, 26, 27, 28, 29]",148.025206,20188,195,3,17,9,1.2704773343758617
undo,44,24,1,0,0,8,"[0, 16, 22, 8]",4,21,"[1, 2, 3, 4, 6, 9, 10, 11, 13, 14, 15, 17, 20, 21, 23, 24, 25, 26, 27, 28, 29]",178.9120964,20375,187,4,28,9,1.0996636936037951
undo,44,24,1,0,0,22,"[0, 16, 22]",3,27,"[1, 2, 3, 4, 5, 6, 7, 8, 9, 10, 11, 12, 13, 14, 15, 17, 18, 19, 20, 21, 23, 24, 25, 26, 27, 28, 29]",192.3285043,20708,333,7,54,9,1.0217425143037777
undo,44,24,1,0,0,16,"[0, 16]",2,28,"[1, 2, 3, 4, 5, 6, 7, 8, 9, 10, 11, 12, 13, 14, 15, 17, 18, 19, 20, 21, 22, 23, 24, 25, 26, 27, 28, 29]",210.3562607,21015,307,13,110,9,1.0
undo,44,24,1,0,0,0,[0],1,29,"[1, 2, 3, 4, 5, 6, 7, 8, 9, 10, 11, 12, 13, 14, 15, 16, 17, 18, 19, 20, 21, 22, 23, 24, 25, 26, 27, 28, 29]",300,21361,346,4,76,10,0.0
undo,44,24,0,0,0,14,"[0, 14]",2,27,"[1, 2, 3, 4, 5, 6, 8, 9, 10, 11, 12, 13, 15, 16, 17, 18, 19, 20, 21, 22, 23, 24, 25, 26, 27, 28, 29]",278.0455016,24400,3039,4,54,10,1.0
undo,44,24,0,0,0,16,"[0, 14, 16]",3,25,"[2, 3, 4, 5, 6, 8, 9, 10, 11, 12, 13, 15, 17, 18, 19, 20, 21, 22, 23, 24, 25, 26, 27, 28, 29]",188.9949542,25984,1584,4,31,10,1.238291113657358
undo,44,24,0,0,0,8,"[0, 14, 16, 8]",4,17,"[2, 3, 4, 6, 9, 10, 11, 13, 15, 20, 22, 23, 24, 26, 27, 28, 29]",159.9949542,27929,1945,2,13,10,1.2714603293172921
undo,44,24,0,0,0,22,"[0, 14, 16, 8, 22]",5,13,"[3, 4, 6, 9, 10, 11, 15, 23, 24, 26, 27, 28, 29]",146.5785463,29010,1081,2,10,10,1.4558841300797367
undo,44,24,0,0,0,15,"[0, 14, 16, 8, 22, 15]",6,11,"[3, 4, 6, 9, 10, 11, 23, 26, 27, 28, 29]",125.3653429,30105,1095,2,8,10,1.459909027032803
undo,44,24,0,0,0,28,"[0, 14, 16, 8, 22, 15, 28]",7,5,"[4, 9, 11, 23, 27]",80.08841717,31611,1506,2,5,10,1.3358430839259279
undo,44,24,0,0,0,23,"[0, 14, 16, 8, 22, 15, 28, 23]",8,3,"[9, 11, 27]",61.06211957,32549,938,2,2,10,1.3561794364003306
undo,44,24,0,0,0,11,"[0, 14, 16, 8, 22, 15, 28, 23, 11]",9,2,"[9, 27]",34.13629554,33787,1238,2,0,10,1.323606251450204
undo,44,24,0,0,1,27,"[0, 14, 16, 8, 22, 15, 28, 23, 11, 27]",10,0,[],6.33341799,35111,1324,1,0,10,1.2857748381905127
undo,44,24,0,1,1,27,"[0, 14, 16, 8, 22, 15, 28, 23, 11, 27]",10,0,[],6.33341799,37050,1939,1,0,10,1.2857748381905127
undo,45,41,0,0,0,0,[0],1,29,"[1, 2, 3, 4, 5, 6, 7, 8, 9, 10, 11, 12, 13, 14, 15, 16, 17, 18, 19, 20, 21, 22, 23, 24, 25, 26, 27, 28, 29]",300,316,-1,1,143,10,0.0
undo,45,41,0,0,0,13,"[0, 13]",2,23,"[1, 2, 3, 5, 6, 7, 9, 10, 11, 12, 14, 15, 17, 18, 19, 20, 21, 22, 24, 25, 26, 27, 28]",258.2747079,3884,3568,1,55,10,1.0
undo,45,41,0,0,0,28,"[0, 13, 28]",3,22,"[1, 2, 3, 5, 6, 7, 9, 10, 11, 12, 14, 15, 17, 18, 19, 20, 21, 22, 24, 25, 26, 27]",223.7928286,5570,1686,1,39,10,1.895724242592676
undo,45,41,0,0,0,5,"[0, 13, 28, 5]",4,19,"[1, 2, 3, 6, 9, 10, 11, 12, 14, 15, 17, 18, 19, 20, 21, 22, 24, 25, 27]",210.1913581,6277,707,1,34,10,2.861541269398273
undo,45,41,0,0,0,3,"[0, 13, 28, 5, 3]",5,16,"[1, 2, 6, 9, 10, 12, 14, 17, 18, 19, 20, 21, 22, 24, 25, 27]",175.3632086,7227,950,1,22,10,3.1455488489005883
undo,45,41,0,0,0,21,"[0, 13, 28, 5, 3, 21]",6,14,"[1, 2, 6, 9, 10, 12, 14, 17, 18, 19, 20, 22, 25, 27]",143.2228912,8058,831,13,11,9,3.207558429289677
undo,45,41,0,0,0,9,"[0, 13, 28, 5, 3, 21, 9]",7,6,"[1, 2, 10, 12, 14, 17]",93.85691102,9256,1198,7,4,9,2.5050148501792275
undo,45,41,0,0,0,2,"[0, 13, 28, 5, 3, 21, 9, 2]",8,5,"[1, 10, 12, 14, 17]",81.77386505,9893,637,5,0,9,2.4119643847713177
undo,45,41,0,0,1,17,"[0, 13, 28, 5, 3, 21, 9, 2, 17]",9,0,[],49.21622385,11063,1170,1,0,9,3.9563478735796007
