condition,trial_id,map_id,undoIndicator,submit,checkEnd,currentChoice,chosen_all,n_city_all,n_within_reach,cities_reach,currentBudget,time_all,rt_all,n_opt_paths_all,n_subopt_paths_all,mas_all,tortuosity_all
undo,0,3,0,0,0,0,[0],1,29,"[1, 2, 3, 4, 5, 6, 7, 8, 9, 10, 11, 12, 13, 14, 15, 16, 17, 18, 19, 20, 21, 22, 23, 24, 25, 26, 27, 28, 29]",300,165,-1,34,427,10,0.0
undo,0,3,0,0,0,8,"[0, 8]",2,28,"[1, 2, 3, 4, 5, 6, 7, 9, 10, 11, 12, 13, 14, 15, 16, 17, 18, 19, 20, 21, 22, 23, 24, 25, 26, 27, 28, 29]",239.9666759,4935,4770,1,54,10,1.0
undo,0,3,0,0,0,24,"[0, 8, 24]",3,23,"[1, 2, 3, 4, 5, 6, 7, 10, 11, 12, 14, 15, 16, 17, 18, 19, 20, 21, 22, 25, 26, 27, 28]",227.8011509,5494,559,1,50,10,1.2267083825981846
undo,0,3,0,0,0,17,"[0, 8, 24, 17]",4,11,"[3, 4, 7, 10, 14, 15, 16, 19, 20, 21, 27]",158.4469873,6353,859,1,18,10,1.3836579788002414
undo,0,3,0,0,0,20,"[0, 8, 24, 17, 20]",5,9,"[3, 4, 7, 10, 14, 15, 16, 19, 21]",145.7978767,6986,633,1,14,10,1.3620097615632467
undo,0,3,0,0,0,3,"[0, 8, 24, 17, 20, 3]",6,5,"[4, 10, 14, 19, 21]",125.4017986,8113,1127,1,11,10,1.3956695218398405
undo,0,3,0,0,0,19,"[0, 8, 24, 17, 20, 3, 19]",7,4,"[4, 10, 14, 21]",88.06548922,8982,869,1,4,10,1.4360605238855817
undo,0,3,0,0,0,21,"[0, 8, 24, 17, 20, 3, 19, 21]",8,2,"[10, 14]",75.85893361,9591,609,1,1,10,1.4576450248605066
undo,0,3,0,0,0,14,"[0, 8, 24, 17, 20, 3, 19, 21, 14]",9,1,[10],48.95168551,10530,939,1,0,10,1.9505702217699148
undo,0,3,0,0,1,10,"[0, 8, 24, 17, 20, 3, 19, 21, 14, 10]",10,0,[],3.498412803,14234,3704,1,0,10,1.8830527336542522
undo,0,3,1,0,0,14,"[0, 8, 24, 17, 20, 3, 19, 21, 14]",9,1,[10],48.95168551,25526,11292,1,0,10,1.9505702217699148
undo,0,3,1,0,0,21,"[0, 8, 24, 17, 20, 3, 19, 21]",8,2,"[10, 14]",75.85893361,26193,667,1,1,10,1.4576450248605066
undo,0,3,1,0,0,19,"[0, 8, 24, 17, 20, 3, 19]",7,4,"[4, 10, 14, 21]",88.06548922,26526,333,1,4,10,1.4360605238855817
undo,0,3,1,0,0,3,"[0, 8, 24, 17, 20, 3]",6,5,"[4, 10, 14, 19, 21]",125.4017986,26859,333,1,11,10,1.3956695218398405
undo,0,3,1,0,0,20,"[0, 8, 24, 17, 20]",5,9,"[3, 4, 7, 10, 14, 15, 16, 19, 21]",145.7978767,27159,300,1,14,10,1.3620097615632467
undo,0,3,1,0,0,17,"[0, 8, 24, 17]",4,11,"[3, 4, 7, 10, 14, 15, 16, 19, 20, 21, 27]",158.4469873,27892,733,1,18,10,1.3836579788002414
undo,0,3,1,0,0,24,"[0, 8, 24]",3,23,"[1, 2, 3, 4, 5, 6, 7, 10, 11, 12, 14, 15, 16, 17, 18, 19, 20, 21, 22, 25, 26, 27, 28]",227.8011509,28209,317,1,50,10,1.2267083825981846
undo,0,3,1,0,0,8,"[0, 8]",2,28,"[1, 2, 3, 4, 5, 6, 7, 9, 10, 11, 12, 13, 14, 15, 16, 17, 18, 19, 20, 21, 22, 23, 24, 25, 26, 27, 28, 29]",239.9666759,28976,767,1,54,10,1.0
undo,0,3,1,0,0,0,[0],1,29,"[1, 2, 3, 4, 5, 6, 7, 8, 9, 10, 11, 12, 13, 14, 15, 16, 17, 18, 19, 20, 21, 22, 23, 24, 25, 26, 27, 28, 29]",300,29542,566,34,427,10,0.0
undo,0,3,0,0,0,7,"[0, 7]",2,28,"[1, 2, 3, 4, 5, 6, 8, 9, 10, 11, 12, 13, 14, 15, 16, 17, 18, 19, 20, 21, 22, 23, 24, 25, 26, 27, 28, 29]",278.8103799,31337,1795,24,215,10,1.0
undo,0,3,0,0,0,8,"[0, 7, 8]",3,24,"[1, 2, 3, 4, 5, 6, 10, 11, 12, 13, 14, 15, 16, 17, 18, 19, 20, 21, 22, 24, 25, 26, 27, 28]",222.837172,32095,758,16,114,10,1.2853332575451413
undo,0,3,0,0,0,24,"[0, 7, 8, 24]",4,21,"[1, 3, 4, 5, 6, 10, 11, 12, 14, 15, 16, 17, 18, 19, 20, 21, 22, 25, 26, 27, 28]",210.671647,32540,445,16,91,10,1.5177505014936548
undo,0,3,0,0,0,17,"[0, 7, 8, 24, 17]",5,9,"[3, 4, 10, 14, 15, 16, 19, 20, 21]",141.3174834,33642,1102,7,26,10,1.5510961300062232
undo,0,3,0,0,0,20,"[0, 7, 8, 24, 17, 20]",6,7,"[3, 4, 10, 14, 16, 19, 21]",128.6683728,34132,490,7,14,10,1.5133082717474817
undo,0,3,0,0,0,3,"[0, 7, 8, 24, 17, 20, 3]",7,5,"[4, 10, 14, 19, 21]",108.2722947,34872,740,7,4,10,1.5325960555943097
undo,0,3,0,0,0,19,"[0, 7, 8, 24, 17, 20, 3, 19]",8,3,"[10, 14, 21]",70.93598532,35847,975,3,1,10,1.5521294182529992
undo,0,3,0,0,0,21,"[0, 7, 8, 24, 17, 20, 3, 19, 21]",9,2,"[10, 14]",58.72942971,36321,474,2,0,10,1.5690424431931145
undo,0,3,0,0,1,14,"[0, 7, 8, 24, 17, 20, 3, 19, 21, 14]",10,0,[],31.82218161,36975,654,1,0,10,2.0836613372745463
undo,0,3,0,1,1,14,"[0, 7, 8, 24, 17, 20, 3, 19, 21, 14]",10,0,[],31.82218161,38607,1632,1,0,10,2.0836613372745463
undo,1,21,0,0,0,0,[0],1,29,"[1, 2, 3, 4, 5, 6, 7, 8, 9, 10, 11, 12, 13, 14, 15, 16, 17, 18, 19, 20, 21, 22, 23, 24, 25, 26, 27, 28, 29]",300,147,-1,84,830,9,0.0
undo,1,21,0,0,0,25,"[0, 25]",2,26,"[1, 2, 3, 4, 5, 6, 7, 8, 9, 10, 11, 12, 13, 14, 15, 16, 17, 18, 20, 21, 22, 23, 24, 26, 27, 29]",240.1836143,5449,5302,30,238,9,1.0
undo,1,21,0,0,0,23,"[0, 25, 23]",3,21,"[1, 2, 4, 6, 7, 8, 9, 10, 11, 12, 14, 15, 16, 17, 18, 20, 21, 22, 24, 27, 29]",196.8592562,8694,3245,14,80,9,1.0416131642057598
undo,1,21,0,0,0,21,"[0, 25, 23, 21]",4,14,"[1, 4, 6, 8, 9, 14, 15, 16, 17, 18, 20, 22, 24, 29]",167.2450705,10314,1620,10,25,9,1.4768792067751173
undo,1,21,0,0,0,14,"[0, 25, 23, 21, 14]",5,10,"[4, 8, 9, 15, 16, 17, 18, 22, 24, 29]",141.6325735,13459,3145,8,13,9,1.3826076066332742
undo,1,21,0,0,0,4,"[0, 25, 23, 21, 14, 4]",6,7,"[8, 15, 16, 17, 18, 24, 29]",127.4904379,14090,631,8,3,9,1.3487191473328533
undo,1,21,0,0,0,16,"[0, 25, 23, 21, 14, 4, 16]",7,3,"[8, 15, 24]",82.89223163,16963,2873,4,1,9,1.3301484172843694
undo,1,21,0,0,0,8,"[0, 25, 23, 21, 14, 4, 16, 8]",8,2,"[15, 24]",64.2911564,17679,716,2,0,9,1.3009886562393016
undo,1,21,0,0,1,15,"[0, 25, 23, 21, 14, 4, 16, 8, 15]",9,0,[],39.2911564,18358,679,1,0,9,1.5486591410600183
undo,1,21,0,1,1,15,"[0, 25, 23, 21, 14, 4, 16, 8, 15]",9,0,[],39.2911564,21509,3151,1,0,9,1.5486591410600183
undo,2,17,0,0,0,0,[0],1,28,"[1, 2, 3, 4, 5, 6, 7, 8, 9, 10, 11, 12, 13, 14, 15, 16, 17, 18, 19, 20, 22, 23, 24, 25, 26, 27, 28, 29]",300,166,-1,2,73,8,0.0
undo,2,17,0,0,0,19,"[0, 19]",2,9,"[3, 4, 5, 10, 11, 18, 20, 22, 28]",138.1049723,9685,9519,1,8,6,1.0
undo,2,17,0,0,0,5,"[0, 19, 5]",3,5,"[3, 10, 11, 22, 28]",98.81120687,10703,1018,1,5,6,1.1200340368749155
undo,2,17,0,0,0,28,"[0, 19, 5, 28]",4,2,"[3, 11]",60.32744406,12302,1599,1,1,6,1.1548774814009009
undo,2,17,0,0,0,3,"[0, 19, 5, 28, 3]",5,1,[11],26.32744406,13268,966,1,0,6,1.444690353691831
undo,2,17,0,0,1,11,"[0, 19, 5, 28, 3, 11]",6,0,[],0.154939406,24583,11315,1,0,6,1.4783074152117983
undo,2,17,1,0,0,3,"[0, 19, 5, 28, 3]",5,1,[11],26.32744406,28375,3792,1,0,6,1.444690353691831
undo,2,17,1,0,0,28,"[0, 19, 5, 28]",4,2,"[3, 11]",60.32744406,28958,583,1,1,6,1.1548774814009009
undo,2,17,1,0,0,5,"[0, 19, 5]",3,5,"[3, 10, 11, 22, 28]",98.81120687,29224,266,1,5,6,1.1200340368749155
undo,2,17,1,0,0,19,"[0, 19]",2,9,"[3, 4, 5, 10, 11, 18, 20, 22, 28]",138.1049723,29474,250,1,8,6,1.0
undo,2,17,1,0,0,0,[0],1,28,"[1, 2, 3, 4, 5, 6, 7, 8, 9, 10, 11, 12, 13, 14, 15, 16, 17, 18, 19, 20, 22, 23, 24, 25, 26, 27, 28, 29]",300,29840,366,2,73,8,0.0
undo,2,17,0,0,0,9,"[0, 9]",2,25,"[1, 2, 3, 5, 6, 7, 8, 10, 11, 12, 14, 15, 16, 17, 18, 19, 20, 22, 23, 24, 25, 26, 27, 28, 29]",210.5293344,31366,1526,1,34,8,1.0
undo,2,17,0,0,0,16,"[0, 9, 16]",3,21,"[1, 2, 3, 5, 7, 8, 10, 11, 12, 14, 17, 18, 19, 20, 22, 23, 25, 26, 27, 28, 29]",197.1876704,32060,694,1,26,8,1.173103464220352
undo,2,17,0,0,0,2,"[0, 9, 16, 2]",4,18,"[1, 3, 5, 7, 8, 10, 11, 12, 14, 17, 18, 19, 23, 25, 26, 27, 28, 29]",181.0631549,32778,718,1,23,8,1.14825089247282
undo,2,17,0,0,0,17,"[0, 9, 16, 2, 17]",5,7,"[7, 8, 12, 14, 26, 27, 29]",142.7356191,33581,803,4,5,7,1.4896040699768547
undo,2,17,0,0,0,8,"[0, 9, 16, 2, 17, 8]",6,3,"[7, 12, 27]",104.5256727,34738,1157,3,0,7,1.4604726966175894
undo,2,17,0,0,1,7,"[0, 9, 16, 2, 17, 8, 7]",7,0,[],33.81499459,42712,7974,1,0,7,1.4474701869793896
undo,2,17,0,1,1,7,"[0, 9, 16, 2, 17, 8, 7]",7,0,[],33.81499459,44837,2125,1,0,7,1.4474701869793896
undo,3,2,0,0,0,0,[0],1,23,"[1, 2, 4, 5, 6, 7, 8, 9, 12, 13, 15, 16, 17, 18, 19, 20, 22, 23, 25, 26, 27, 28, 29]",300,163,-1,70,620,10,0.0
undo,3,2,0,0,0,19,"[0, 19]",2,22,"[1, 2, 4, 5, 6, 7, 8, 9, 12, 13, 15, 16, 17, 18, 20, 22, 23, 25, 26, 27, 28, 29]",210.306076,4152,3989,67,431,10,1.0
undo,3,2,0,0,0,12,"[0, 19, 12]",3,17,"[1, 4, 5, 6, 7, 13, 15, 16, 17, 18, 20, 22, 25, 26, 27, 28, 29]",174.2921898,5576,1424,66,298,10,1.1107635036313153
undo,3,2,0,0,0,5,"[0, 19, 12, 5]",4,11,"[1, 6, 7, 13, 15, 16, 18, 22, 25, 26, 29]",144.7625437,8250,2674,38,136,10,1.0968174771581647
undo,3,2,0,0,0,22,"[0, 19, 12, 5, 22]",5,8,"[1, 6, 7, 13, 15, 18, 26, 29]",131.9562952,9001,751,20,63,10,1.0889910507461968
undo,3,2,0,0,0,13,"[0, 19, 12, 5, 22, 13]",6,7,"[1, 6, 7, 15, 18, 26, 29]",117.0902265,9833,832,19,20,10,1.236526217328057
undo,3,2,0,0,0,18,"[0, 19, 12, 5, 22, 13, 18]",7,4,"[7, 15, 26, 29]",81.91921567,10883,1050,10,3,10,1.2128708213409936
undo,3,2,0,0,0,7,"[0, 19, 12, 5, 22, 13, 18, 7]",8,3,"[15, 26, 29]",71.62358553,11690,807,5,0,10,1.2019811287894737
undo,3,2,0,0,0,26,"[0, 19, 12, 5, 22, 13, 18, 7, 26]",9,2,"[15, 29]",48.82007703,12716,1026,2,0,10,1.1883593342191134
undo,3,2,0,0,1,15,"[0, 19, 12, 5, 22, 13, 18, 7, 26, 15]",10,0,[],24.61264015,13771,1055,1,0,10,1.4619750353663825
undo,3,2,0,1,1,15,"[0, 19, 12, 5, 22, 13, 18, 7, 26, 15]",10,0,[],24.61264015,16627,2856,1,0,10,1.4619750353663825
undo,4,36,0,0,0,0,[0],1,24,"[2, 4, 5, 6, 7, 8, 9, 10, 12, 13, 14, 15, 16, 17, 18, 19, 20, 22, 23, 25, 26, 27, 28, 29]",300,164,-1,2,200,10,0.0
undo,4,36,0,0,0,12,"[0, 12]",2,23,"[2, 4, 5, 6, 7, 8, 9, 10, 13, 14, 15, 16, 17, 18, 19, 20, 22, 23, 25, 26, 27, 28, 29]",277.7963967,3272,3108,90,804,9,1.0
undo,4,36,0,0,0,16,"[0, 12, 16]",3,10,"[2, 9, 10, 13, 17, 18, 19, 23, 25, 27]",171.6267212,5594,2322,4,38,9,1.202695220335868
undo,4,36,0,0,0,17,"[0, 12, 16, 17]",4,7,"[2, 9, 10, 13, 18, 19, 25]",143.3071167,6320,726,4,23,9,1.6578705047868705
undo,4,36,0,0,0,9,"[0, 12, 16, 17, 9]",5,5,"[2, 13, 18, 19, 25]",117.0583072,6958,638,3,6,9,2.6488264465469484
undo,4,36,0,0,0,19,"[0, 12, 16, 17, 9, 19]",6,4,"[2, 13, 18, 25]",101.9255612,7714,756,3,3,9,2.5697960541572393
undo,4,36,0,0,0,2,"[0, 12, 16, 17, 9, 19, 2]",7,2,"[13, 25]",64.80413882,8498,784,2,0,9,2.082684549483941
undo,4,36,0,0,0,25,"[0, 12, 16, 17, 9, 19, 2, 25]",8,1,[13],39.80413882,9181,683,1,0,9,2.272647961997219
undo,4,36,0,0,1,13,"[0, 12, 16, 17, 9, 19, 2, 25, 13]",9,0,[],19.21287854,10596,1415,1,0,9,2.86279103556024
undo,4,36,0,1,1,13,"[0, 12, 16, 17, 9, 19, 2, 25, 13]",9,0,[],19.21287854,13661,3065,1,0,9,2.86279103556024
undo,5,20,0,0,0,0,[0],1,21,"[1, 2, 3, 4, 5, 6, 7, 8, 9, 12, 17, 18, 20, 21, 22, 23, 25, 26, 27, 28, 29]",300,165,-1,1,9,9,0.0
undo,5,20,0,0,0,1,"[0, 1]",2,14,"[3, 4, 5, 6, 8, 9, 12, 20, 21, 23, 26, 27, 28, 29]",197.3501096,5375,5210,1,9,8,1.0
undo,5,20,0,0,0,5,"[0, 1, 5]",3,12,"[4, 6, 8, 9, 12, 20, 21, 23, 26, 27, 28, 29]",160.675868,6050,675,1,8,8,1.1088946720668915
undo,5,20,0,0,0,21,"[0, 1, 5, 21]",4,8,"[4, 6, 8, 9, 20, 23, 27, 28]",115.675868,7404,1354,1,6,8,1.0805828994591202
undo,5,20,0,0,0,8,"[0, 1, 5, 21, 8]",5,5,"[6, 9, 23, 27, 28]",98.21161876,8170,766,1,5,8,1.0976815296746363
undo,5,20,0,0,0,23,"[0, 1, 5, 21, 8, 23]",6,3,"[6, 9, 27]",53.52381281,9492,1322,1,2,8,1.0820667611140062
undo,5,20,0,0,0,9,"[0, 1, 5, 21, 8, 23, 9]",7,1,[6],34.3144401,10015,523,1,0,8,1.0771429624373048
undo,5,20,0,0,1,6,"[0, 1, 5, 21, 8, 23, 9, 6]",8,0,[],11.29271124,10922,907,1,0,8,1.0892675954154076
undo,5,20,0,1,1,6,"[0, 1, 5, 21, 8, 23, 9, 6]",8,0,[],11.29271124,11946,1024,1,0,8,1.0892675954154076
undo,6,14,0,0,0,0,[0],1,29,"[1, 2, 3, 4, 5, 6, 7, 8, 9, 10, 11, 12, 13, 14, 15, 16, 17, 18, 19, 20, 21, 22, 23, 24, 25, 26, 27, 28, 29]",300,182,-1,8,157,10,0.0
undo,6,14,0,0,0,18,"[0, 18]",2,17,"[1, 2, 3, 4, 7, 8, 9, 13, 15, 17, 19, 20, 22, 23, 25, 26, 28]",179.8958785,6077,5895,18,136,9,1.0
undo,6,14,0,0,0,8,"[0, 18, 8]",3,13,"[1, 2, 4, 7, 13, 15, 17, 19, 20, 23, 25, 26, 28]",166.294408,6831,754,18,99,9,1.0203858410107731
undo,6,14,0,0,0,19,"[0, 18, 8, 19]",4,10,"[1, 2, 4, 7, 15, 17, 23, 25, 26, 28]",145.6788799,7488,657,7,52,9,1.0436397834807676
undo,6,14,0,0,0,1,"[0, 18, 8, 19, 1]",5,9,"[2, 4, 7, 15, 17, 23, 25, 26, 28]",130.4473337,8288,800,7,21,9,1.096538583531719
undo,6,14,0,0,0,26,"[0, 18, 8, 19, 1, 26]",6,4,"[4, 7, 23, 25]",75.70247088,9379,1091,2,4,9,1.1305399427709442
undo,6,14,0,0,0,23,"[0, 18, 8, 19, 1, 26, 23]",7,3,"[4, 7, 25]",64.88581706,9856,477,2,1,9,1.2508020127641972
undo,6,14,0,0,0,25,"[0, 18, 8, 19, 1, 26, 23, 25]",8,1,[7],35.47493472,10801,945,1,0,9,1.6160852369336203
undo,6,14,0,0,1,7,"[0, 18, 8, 19, 1, 26, 23, 25, 7]",9,0,[],15.77721911,11691,890,1,0,9,1.6274549091166954
undo,6,14,0,1,1,7,"[0, 18, 8, 19, 1, 26, 23, 25, 7]",9,0,[],15.77721911,12945,1254,1,0,9,1.6274549091166954
undo,7,11,0,0,0,0,[0],1,25,"[1, 2, 3, 4, 5, 6, 8, 9, 10, 11, 12, 13, 14, 15, 16, 17, 18, 19, 20, 22, 23, 25, 26, 27, 28]",300,163,-1,6,374,12,0.0
undo,7,11,0,0,0,17,"[0, 17]",2,18,"[1, 2, 4, 5, 6, 8, 10, 11, 12, 15, 18, 19, 22, 23, 25, 26, 27, 28]",152.9217895,4271,4108,218,762,9,1.0
undo,7,11,0,0,0,8,"[0, 17, 8]",3,15,"[1, 2, 4, 5, 6, 11, 12, 15, 18, 19, 22, 23, 25, 27, 28]",138.6039684,4911,640,95,263,9,1.1114912532636003
undo,7,11,0,0,0,15,"[0, 17, 8, 15]",4,11,"[2, 5, 6, 11, 12, 18, 19, 22, 25, 27, 28]",125.1503444,5606,695,62,51,9,1.1146194627724886
undo,7,11,0,0,0,11,"[0, 17, 8, 15, 11]",5,9,"[2, 5, 6, 12, 19, 22, 25, 27, 28]",107.0395741,6380,774,24,2,9,1.1130192047684102
undo,7,11,0,0,0,5,"[0, 17, 8, 15, 11, 5]",6,3,"[2, 22, 28]",71.81174422,7768,1388,6,0,9,1.4025699235927704
undo,7,11,0,0,0,28,"[0, 17, 8, 15, 11, 5, 28]",7,2,"[2, 22]",53.9232004,8622,854,2,0,9,1.4240278930738877
undo,7,11,0,0,0,2,"[0, 17, 8, 15, 11, 5, 28, 2]",8,1,[22],43.29305459,9274,652,1,0,9,1.4382300715269383
undo,7,11,0,0,1,22,"[0, 17, 8, 15, 11, 5, 28, 2, 22]",9,0,[],33.24317897,9793,519,1,0,9,1.41490171814945
undo,7,11,0,1,1,22,"[0, 17, 8, 15, 11, 5, 28, 2, 22]",9,0,[],33.24317897,11743,1950,1,0,9,1.41490171814945
undo,8,42,0,0,0,0,[0],1,29,"[1, 2, 3, 4, 5, 6, 7, 8, 9, 10, 11, 12, 13, 14, 15, 16, 17, 18, 19, 20, 21, 22, 23, 24, 25, 26, 27, 28, 29]",300,165,-1,16,302,9,0.0
undo,8,42,0,0,0,5,"[0, 5]",2,28,"[1, 2, 3, 4, 6, 7, 8, 9, 10, 11, 12, 13, 14, 15, 16, 17, 18, 19, 20, 21, 22, 23, 24, 25, 26, 27, 28, 29]",191.2939744,6205,6040,1,22,9,1.0
undo,8,42,0,0,0,4,"[0, 5, 4]",3,23,"[1, 2, 3, 6, 7, 8, 9, 10, 11, 13, 15, 17, 18, 19, 20, 21, 22, 23, 24, 25, 26, 27, 29]",171.4445412,6866,661,1,14,9,1.420957801478707
undo,8,42,0,0,0,22,"[0, 5, 4, 22]",4,20,"[1, 2, 3, 6, 7, 8, 9, 11, 15, 17, 18, 19, 20, 21, 23, 24, 25, 26, 27, 29]",160.2642013,7364,498,1,11,9,1.5771494659680896
undo,8,42,0,0,0,8,"[0, 5, 4, 22, 8]",5,14,"[1, 2, 3, 6, 7, 11, 15, 18, 19, 24, 25, 26, 27, 29]",138.1282577,8218,854,1,10,9,1.5055393955524201
undo,8,42,0,0,0,1,"[0, 5, 4, 22, 8, 1]",6,5,"[2, 7, 19, 26, 27]",89.03650682,9241,1023,1,7,9,1.3547259083637835
undo,8,42,0,0,0,7,"[0, 5, 4, 22, 8, 1, 7]",7,4,"[2, 19, 26, 27]",59.03650682,10291,1050,1,3,9,1.3909715672447451
undo,8,42,0,0,1,27,"[0, 5, 4, 22, 8, 1, 7, 27]",8,0,[],14.75332717,15997,5706,1,0,8,1.337712810248871
undo,8,42,1,0,0,7,"[0, 5, 4, 22, 8, 1, 7]",7,4,"[2, 19, 26, 27]",59.03650682,18860,2863,1,3,9,1.3909715672447451
undo,8,42,0,0,0,26,"[0, 5, 4, 22, 8, 1, 7, 26]",8,1,[27],32.46584631,20317,1457,1,0,9,1.3511825943939393
undo,8,42,0,0,1,27,"[0, 5, 4, 22, 8, 1, 7, 26, 27]",9,0,[],14.43808994,21350,1033,1,0,9,1.3391911688802078
undo,8,42,0,1,1,27,"[0, 5, 4, 22, 8, 1, 7, 26, 27]",9,0,[],14.43808994,22359,1009,1,0,9,1.3391911688802078
undo,9,28,0,0,0,0,[0],1,27,"[1, 2, 3, 4, 5, 6, 7, 8, 9, 10, 11, 12, 13, 14, 15, 16, 17, 18, 19, 20, 22, 23, 25, 26, 27, 28, 29]",300,163,-1,2,96,9,0.0
undo,9,28,0,0,0,3,"[0, 3]",2,26,"[1, 2, 4, 5, 6, 7, 8, 9, 10, 11, 12, 13, 14, 15, 16, 17, 18, 19, 20, 22, 23, 25, 26, 27, 28, 29]",251.0817008,8198,8035,1,64,9,1.0
undo,9,28,0,0,0,5,"[0, 3, 5]",3,20,"[2, 4, 6, 7, 8, 9, 10, 11, 12, 13, 14, 15, 18, 19, 20, 23, 25, 26, 28, 29]",166.9865166,10709,2511,1,34,9,1.0203769473612083
undo,9,28,0,0,0,26,"[0, 3, 5, 26]",4,13,"[2, 4, 7, 8, 9, 12, 13, 14, 18, 19, 20, 25, 28]",134.2298379,13785,3076,1,28,9,1.0315203228799597
undo,9,28,0,0,0,19,"[0, 3, 5, 26, 19]",5,7,"[2, 7, 9, 12, 13, 14, 18]",93.22983789,15976,2191,1,17,9,1.1324645362297356
undo,9,28,0,0,0,7,"[0, 3, 5, 26, 19, 7]",6,5,"[2, 12, 13, 14, 18]",65.49898864,16710,734,1,6,9,1.1971194919020265
undo,9,28,0,0,0,12,"[0, 3, 5, 26, 19, 7, 12]",7,2,"[13, 18]",52.3460422,17811,1101,1,1,9,1.2020762147848982
undo,9,28,0,0,0,13,"[0, 3, 5, 26, 19, 7, 12, 13]",8,1,[18],35.14139167,18751,940,1,0,9,1.39005144078531
undo,9,28,0,0,1,18,"[0, 3, 5, 26, 19, 7, 12, 13, 18]",9,0,[],10.72828044,20180,1429,1,0,9,1.738787343626007
undo,9,28,0,1,1,18,"[0, 3, 5, 26, 19, 7, 12, 13, 18]",9,0,[],10.72828044,37738,17558,1,0,9,1.738787343626007
undo,10,31,0,0,0,0,[0],1,27,"[1, 3, 4, 5, 6, 7, 8, 10, 11, 12, 13, 14, 15, 16, 17, 18, 19, 20, 21, 22, 23, 24, 25, 26, 27, 28, 29]",300,164,-1,2,87,10,0.0
undo,10,31,0,0,0,14,"[0, 14]",2,25,"[1, 3, 5, 6, 7, 8, 10, 11, 12, 13, 15, 16, 17, 18, 19, 20, 21, 22, 23, 24, 25, 26, 27, 28, 29]",263.861378,4094,3930,2,59,10,1.0
undo,10,31,0,0,0,27,"[0, 14, 27]",3,22,"[1, 3, 5, 6, 7, 8, 10, 11, 12, 13, 15, 16, 17, 18, 19, 20, 21, 22, 24, 25, 28, 29]",235.6833724,5714,1620,1,39,10,1.5881859159302467
undo,10,31,0,0,0,8,"[0, 14, 27, 8]",4,20,"[1, 3, 5, 6, 7, 10, 11, 12, 13, 16, 17, 18, 19, 20, 21, 22, 24, 25, 28, 29]",224.6380114,6795,1081,1,36,10,2.1665048452331277
undo,10,31,0,0,0,18,"[0, 14, 27, 8, 18]",5,15,"[1, 5, 6, 7, 11, 12, 13, 16, 17, 19, 20, 22, 25, 28, 29]",188.7911147,10669,3874,1,26,10,1.7273375741920205
undo,10,31,0,0,0,11,"[0, 14, 27, 8, 18, 11]",6,11,"[1, 5, 7, 12, 16, 17, 19, 20, 22, 25, 28]",153.9055876,12061,1392,13,17,9,2.386348208737804
undo,10,31,0,0,0,5,"[0, 14, 27, 8, 18, 11, 5]",7,5,"[16, 17, 20, 25, 28]",110.2249283,12897,836,3,3,9,2.163249612867222
undo,10,31,0,0,0,28,"[0, 14, 27, 8, 18, 11, 5, 28]",8,2,"[16, 17]",90.00117988,13579,682,2,0,9,1.9564635733184719
undo,10,31,0,0,1,16,"[0, 14, 27, 8, 18, 11, 5, 28, 16]",9,0,[],56.38570725,14754,1175,1,0,9,1.824071502589619
undo,10,31,1,0,0,28,"[0, 14, 27, 8, 18, 11, 5, 28]",8,2,"[16, 17]",90.00117988,17577,2823,2,0,9,1.9564635733184719
undo,10,31,1,0,0,5,"[0, 14, 27, 8, 18, 11, 5]",7,5,"[16, 17, 20, 25, 28]",110.2249283,17877,300,3,3,9,2.163249612867222
undo,10,31,1,0,0,11,"[0, 14, 27, 8, 18, 11]",6,11,"[1, 5, 7, 12, 16, 17, 19, 20, 22, 25, 28]",153.9055876,18110,233,13,17,9,2.386348208737804
undo,10,31,0,0,0,17,"[0, 14, 27, 8, 18, 11, 17]",7,7,"[1, 5, 12, 20, 22, 25, 28]",112.7959781,20034,1924,7,3,9,2.0680793354233384
undo,10,31,0,0,0,25,"[0, 14, 27, 8, 18, 11, 17, 25]",8,2,"[12, 22]",52.35592511,21333,1299,2,0,9,1.7167313436380267
undo,10,31,0,0,1,12,"[0, 14, 27, 8, 18, 11, 17, 25, 12]",9,0,[],21.76180802,23198,1865,1,0,9,1.603498569183538
undo,10,31,0,1,1,12,"[0, 14, 27, 8, 18, 11, 17, 25, 12]",9,0,[],21.76180802,29024,5826,1,0,9,1.603498569183538
undo,11,37,0,0,0,0,[0],1,29,"[1, 2, 3, 4, 5, 6, 7, 8, 9, 10, 11, 12, 13, 14, 15, 16, 17, 18, 19, 20, 21, 22, 23, 24, 25, 26, 27, 28, 29]",300,164,-1,6,168,10,0.0
undo,11,37,0,0,0,18,"[0, 18]",2,19,"[1, 2, 4, 6, 7, 9, 10, 12, 14, 15, 17, 19, 20, 21, 22, 23, 26, 28, 29]",202.4090168,4803,4639,6,89,10,1.0
undo,11,37,0,0,0,7,"[0, 18, 7]",3,12,"[1, 2, 4, 9, 15, 17, 19, 20, 21, 22, 26, 29]",175.2428614,7038,2235,6,53,10,1.0413073512834488
undo,11,37,0,0,0,22,"[0, 18, 7, 22]",4,8,"[1, 2, 4, 15, 19, 20, 21, 26]",125.2428614,7976,938,6,29,10,1.0730792320325544
undo,11,37,0,0,0,4,"[0, 18, 7, 22, 4]",5,7,"[1, 2, 15, 19, 20, 21, 26]",100.2428614,8918,942,4,16,10,1.2290245562206235
undo,11,37,0,0,0,2,"[0, 18, 7, 22, 4, 2]",6,5,"[1, 15, 19, 20, 21]",88.84110714,9528,610,4,7,10,1.3968113858365216
undo,11,37,0,0,0,1,"[0, 18, 7, 22, 4, 2, 1]",7,4,"[15, 19, 20, 21]",71.63645661,10780,1252,4,3,10,1.4424239294761476
undo,11,37,0,0,0,15,"[0, 18, 7, 22, 4, 2, 1, 15]",8,2,"[20, 21]",31.67397421,12377,1597,2,0,10,1.612564167414217
undo,11,37,0,0,0,21,"[0, 18, 7, 22, 4, 2, 1, 15, 21]",9,1,[20],16.67397421,13298,921,1,0,10,1.8256316004901285
undo,11,37,0,0,1,20,"[0, 18, 7, 22, 4, 2, 1, 15, 21, 20]",10,0,[],2.251769103,13920,622,1,0,10,1.9863570569415172
undo,11,37,0,1,1,20,"[0, 18, 7, 22, 4, 2, 1, 15, 21, 20]",10,0,[],2.251769103,25542,11622,1,0,10,1.9863570569415172
undo,12,9,0,0,0,0,[0],1,27,"[1, 3, 4, 5, 6, 7, 8, 9, 10, 11, 13, 14, 15, 16, 17, 18, 19, 20, 21, 22, 23, 24, 25, 26, 27, 28, 29]",300,164,-1,2,182,10,0.0
undo,12,9,0,0,0,23,"[0, 23]",2,26,"[1, 3, 4, 5, 6, 7, 8, 9, 10, 11, 13, 14, 15, 16, 17, 18, 19, 20, 21, 22, 24, 25, 26, 27, 28, 29]",240.4600974,13302,13138,7,160,9,1.0
undo,12,9,0,0,0,8,"[0, 23, 8]",3,23,"[1, 3, 4, 5, 6, 7, 9, 10, 11, 13, 15, 16, 17, 18, 19, 20, 21, 22, 24, 25, 26, 27, 28]",218.9891869,14222,920,3,53,9,1.2701427074648883
undo,12,9,0,0,0,28,"[0, 23, 8, 28]",4,22,"[1, 3, 4, 5, 6, 7, 9, 10, 11, 13, 15, 16, 17, 18, 19, 20, 21, 22, 24, 25, 26, 27]",208.172533,14704,482,3,39,9,1.2362921532284137
undo,12,9,0,0,0,26,"[0, 23, 8, 28, 26]",5,19,"[1, 3, 5, 6, 7, 9, 10, 13, 15, 16, 17, 18, 19, 20, 21, 22, 24, 25, 27]",163.3953067,15601,897,2,15,9,1.169313903639755
undo,12,9,0,0,0,18,"[0, 23, 8, 28, 26, 18]",6,8,"[1, 5, 13, 15, 16, 19, 21, 24]",102.5183817,16819,1218,2,5,9,1.1331940395161044
undo,12,9,0,0,0,5,"[0, 23, 8, 28, 26, 18, 5]",7,3,"[1, 13, 24]",38.62785028,17851,1032,2,2,9,1.1739743598031722
undo,12,9,0,0,1,24,"[0, 23, 8, 28, 26, 18, 5, 24]",8,0,[],10.60999883,19213,1362,1,0,8,1.1588493624530003
undo,12,9,1,0,0,5,"[0, 23, 8, 28, 26, 18, 5]",7,3,"[1, 13, 24]",38.62785028,20760,1547,2,2,9,1.1739743598031722
undo,12,9,0,0,0,13,"[0, 23, 8, 28, 26, 18, 5, 13]",8,2,"[1, 24]",23.36351276,22107,1347,2,0,9,1.187981509065966
undo,12,9,0,0,1,1,"[0, 23, 8, 28, 26, 18, 5, 13, 1]",9,0,[],4.154140044,22973,866,1,0,9,1.2087530552333994
undo,12,9,0,1,1,1,"[0, 23, 8, 28, 26, 18, 5, 13, 1]",9,0,[],4.154140044,33007,10034,1,0,9,1.2087530552333994
undo,13,32,0,0,0,0,[0],1,29,"[1, 2, 3, 4, 5, 6, 7, 8, 9, 10, 11, 12, 13, 14, 15, 16, 17, 18, 19, 20, 21, 22, 23, 24, 25, 26, 27, 28, 29]",300,161,-1,17,359,10,0.0
undo,13,32,0,0,0,19,"[0, 19]",2,28,"[1, 2, 3, 4, 5, 6, 7, 8, 9, 10, 11, 12, 13, 14, 15, 16, 17, 18, 20, 21, 22, 23, 24, 25, 26, 27, 28, 29]",283.5075775,8521,8360,16,294,10,1.0
undo,13,32,0,0,0,13,"[0, 19, 13]",3,24,"[2, 3, 4, 5, 6, 8, 9, 10, 11, 12, 14, 15, 16, 17, 18, 20, 21, 22, 23, 24, 25, 26, 27, 28]",260.3127505,9168,647,14,227,10,1.0172874229878615
undo,13,32,0,0,0,15,"[0, 19, 13, 15]",4,18,"[2, 3, 5, 8, 9, 10, 11, 12, 16, 17, 20, 22, 23, 24, 25, 26, 27, 28]",177.4393531,10701,1533,9,116,10,1.435447391509833
undo,13,32,0,0,0,28,"[0, 19, 13, 15, 28]",5,17,"[2, 3, 5, 8, 9, 10, 11, 12, 16, 17, 20, 22, 23, 24, 25, 26, 27]",166.0375988,11391,690,9,70,10,1.3843701324937985
undo,13,32,0,0,0,12,"[0, 19, 13, 15, 28, 12]",6,14,"[2, 3, 5, 8, 9, 10, 11, 16, 17, 20, 22, 24, 26, 27]",147.0639329,12987,1596,6,35,10,1.358372254952329
undo,13,32,0,0,0,16,"[0, 19, 13, 15, 28, 12, 16]",7,13,"[2, 3, 5, 8, 9, 10, 11, 17, 20, 22, 24, 26, 27]",131.411457,13822,835,5,15,10,1.4356932930709845
undo,13,32,0,0,0,22,"[0, 19, 13, 15, 28, 12, 16, 22]",8,6,"[2, 8, 9, 17, 20, 27]",97.57360838,25448,11626,3,5,10,1.4335226411545752
undo,13,32,0,0,0,9,"[0, 19, 13, 15, 28, 12, 16, 22, 9]",9,3,"[2, 8, 20]",75.37000507,26013,565,3,0,10,1.4837166378374758
undo,13,32,1,0,0,22,"[0, 19, 13, 15, 28, 12, 16, 22]",8,6,"[2, 8, 9, 17, 20, 27]",97.57360838,34556,8543,3,5,10,1.4335226411545752
undo,13,32,1,0,0,16,"[0, 19, 13, 15, 28, 12, 16]",7,13,"[2, 3, 5, 8, 9, 10, 11, 17, 20, 22, 24, 26, 27]",131.411457,35090,534,5,15,10,1.4356932930709845
undo,13,32,0,0,0,27,"[0, 19, 13, 15, 28, 12, 16, 27]",8,2,"[3, 11]",55.13564171,36742,1652,2,0,10,1.3380566026775955
undo,13,32,0,0,0,3,"[0, 19, 13, 15, 28, 12, 16, 27, 3]",9,1,[11],29.64054414,37570,828,1,0,10,1.3269345554887129
undo,13,32,0,0,1,11,"[0, 19, 13, 15, 28, 12, 16, 27, 3, 11]",10,0,[],14.02004479,38269,699,1,0,10,1.356452519014518
undo,13,32,0,1,1,11,"[0, 19, 13, 15, 28, 12, 16, 27, 3, 11]",10,0,[],14.02004479,39421,1152,1,0,10,1.356452519014518
undo,14,25,0,0,0,0,[0],1,28,"[1, 2, 3, 4, 5, 7, 8, 9, 10, 11, 12, 13, 14, 15, 16, 17, 18, 19, 20, 21, 22, 23, 24, 25, 26, 27, 28, 29]",300,199,-1,5,94,10,0.0
undo,14,25,0,0,0,19,"[0, 19]",2,27,"[1, 2, 3, 4, 5, 7, 8, 9, 10, 11, 12, 13, 14, 15, 16, 17, 18, 20, 21, 22, 23, 24, 25, 26, 27, 28, 29]",251.9479449,12788,12589,2,30,10,1.0
undo,14,25,0,0,0,29,"[0, 19, 29]",3,26,"[1, 2, 3, 4, 5, 7, 8, 9, 10, 11, 12, 13, 14, 15, 16, 17, 18, 20, 21, 22, 23, 24, 25, 26, 27, 28]",235.6691243,13452,664,2,22,10,1.0272252084351727
undo,14,25,0,0,0,22,"[0, 19, 29, 22]",4,24,"[1, 2, 3, 4, 5, 7, 8, 9, 11, 12, 13, 14, 15, 16, 17, 18, 20, 21, 23, 24, 25, 26, 27, 28]",219.5446088,14343,891,2,17,10,1.03988854593305
undo,14,25,0,0,0,7,"[0, 19, 29, 22, 7]",5,10,"[1, 3, 5, 8, 9, 11, 13, 23, 24, 28]",143.9007062,15770,1427,2,14,10,1.3318974800137366
undo,14,25,0,0,0,24,"[0, 19, 29, 22, 7, 24]",6,7,"[3, 8, 9, 11, 13, 23, 28]",119.1418694,16665,895,2,9,10,1.2868309735722725
undo,14,25,0,0,0,9,"[0, 19, 29, 22, 7, 24, 9]",7,4,"[3, 8, 13, 28]",101.114113,17815,1150,2,7,10,1.2740198715343065
undo,14,25,0,0,0,3,"[0, 19, 29, 22, 7, 24, 9, 3]",8,3,"[8, 13, 28]",70.84862112,18714,899,2,1,10,1.2376259292234586
undo,14,25,0,0,0,28,"[0, 19, 29, 22, 7, 24, 9, 3, 28]",9,1,[13],39.54366943,19968,1254,1,0,10,1.203625519961748
undo,14,25,0,0,1,13,"[0, 19, 29, 22, 7, 24, 9, 3, 28, 13]",10,0,[],5.309183897,21119,1151,1,0,10,1.4620578920005771
undo,14,25,0,1,1,13,"[0, 19, 29, 22, 7, 24, 9, 3, 28, 13]",10,0,[],5.309183897,28626,7507,1,0,10,1.4620578920005771
undo,15,18,0,0,0,0,[0],1,28,"[1, 2, 3, 4, 5, 6, 7, 8, 9, 10, 11, 12, 13, 14, 16, 17, 18, 19, 20, 21, 22, 23, 24, 25, 26, 27, 28, 29]",300,164,-1,3,136,10,0.0
undo,15,18,0,0,0,28,"[0, 28]",2,16,"[1, 3, 5, 7, 8, 9, 12, 13, 14, 16, 20, 23, 24, 25, 26, 27]",236.4311397,3827,3663,2,19,10,1.0
undo,15,18,0,0,0,7,"[0, 28, 7]",3,15,"[1, 3, 5, 8, 9, 12, 13, 14, 16, 20, 23, 24, 25, 26, 27]",214.4084242,4719,892,2,17,10,1.4345180696367563
undo,15,18,0,0,0,25,"[0, 28, 7, 25]",4,13,"[1, 3, 5, 8, 9, 12, 13, 14, 16, 20, 23, 26, 27]",186.6055466,5915,1196,2,15,10,1.8896451241781882
undo,15,18,0,0,0,8,"[0, 28, 7, 25, 8]",5,10,"[3, 5, 9, 12, 13, 14, 16, 23, 26, 27]",149.551532,8360,2445,2,10,10,1.590467437592877
undo,15,18,0,0,0,13,"[0, 28, 7, 25, 8, 13]",6,9,"[3, 5, 9, 12, 14, 16, 23, 26, 27]",128.4565089,9856,1496,2,5,10,1.8248274983549797
undo,15,18,0,0,0,14,"[0, 28, 7, 25, 8, 13, 14]",7,7,"[3, 5, 9, 12, 23, 26, 27]",109.4828429,10581,725,2,3,10,1.6993534956692746
undo,15,18,0,0,0,3,"[0, 28, 7, 25, 8, 13, 14, 3]",8,3,"[5, 12, 27]",79.39962499,11708,1127,2,1,10,1.802637206541468
undo,15,18,0,0,0,5,"[0, 28, 7, 25, 8, 13, 14, 3, 5]",9,1,[12],21.21887216,12626,918,1,0,10,1.559774889743805
undo,15,18,0,0,1,12,"[0, 28, 7, 25, 8, 13, 14, 3, 5, 12]",10,0,[],9.817117911,13176,550,1,0,10,1.563993037384447
undo,15,18,0,1,1,12,"[0, 28, 7, 25, 8, 13, 14, 3, 5, 12]",10,0,[],9.817117911,14877,1701,1,0,10,1.563993037384447
undo,16,44,0,0,0,0,[0],1,29,"[1, 2, 3, 4, 5, 6, 7, 8, 9, 10, 11, 12, 13, 14, 15, 16, 17, 18, 19, 20, 21, 22, 23, 24, 25, 26, 27, 28, 29]",300,153,-1,13,126,7,0.0
undo,16,44,0,0,0,14,"[0, 14]",2,15,"[4, 5, 6, 7, 9, 11, 12, 16, 17, 19, 22, 23, 24, 26, 28]",121.156493,9385,9232,2,9,6,1.0
undo,16,44,0,0,0,11,"[0, 14, 11]",3,5,"[4, 7, 9, 23, 24]",88.95400861,11174,1789,2,3,6,1.4335325978948263
undo,16,44,0,0,0,24,"[0, 14, 11, 24]",4,3,"[4, 7, 9]",62.02818458,12009,835,2,1,6,1.5836307949102126
undo,16,44,0,0,0,9,"[0, 14, 11, 24, 9]",5,1,[4],29.27150587,13090,1081,1,0,6,1.7061741313740282
undo,16,44,0,0,1,4,"[0, 14, 11, 24, 9, 4]",6,0,[],9.573790265,14048,958,1,0,6,1.653515319219223
undo,16,44,1,0,0,9,"[0, 14, 11, 24, 9]",5,1,[4],29.27150587,15445,1397,1,0,6,1.7061741313740282
undo,16,44,1,0,0,24,"[0, 14, 11, 24]",4,3,"[4, 7, 9]",62.02818458,15711,266,2,1,6,1.5836307949102126
undo,16,44,1,0,0,11,"[0, 14, 11]",3,5,"[4, 7, 9, 23, 24]",88.95400861,16011,300,2,3,6,1.4335325978948263
undo,16,44,1,0,0,14,"[0, 14]",2,15,"[4, 5, 6, 7, 9, 11, 12, 16, 17, 19, 22, 23, 24, 26, 28]",121.156493,16278,267,2,9,6,1.0
undo,16,44,1,0,0,0,[0],1,29,"[1, 2, 3, 4, 5, 6, 7, 8, 9, 10, 11, 12, 13, 14, 15, 16, 17, 18, 19, 20, 21, 22, 23, 24, 25, 26, 27, 28, 29]",300,23093,6815,13,126,7,0.0
undo,16,44,0,0,0,11,"[0, 11]",2,18,"[4, 5, 6, 7, 8, 9, 12, 14, 16, 17, 19, 20, 22, 23, 24, 25, 26, 28]",152.7790776,24628,1535,5,34,7,1.0
undo,16,44,0,0,0,24,"[0, 11, 24]",3,13,"[4, 5, 7, 8, 9, 12, 14, 17, 20, 22, 23, 25, 28]",125.8532535,25311,683,5,23,7,1.1588941745226709
undo,16,44,0,0,0,9,"[0, 11, 24, 9]",4,7,"[4, 7, 8, 12, 14, 20, 23]",93.09657483,26080,769,2,8,7,1.3039383713641313
undo,16,44,0,0,0,4,"[0, 11, 24, 9, 4]",5,5,"[7, 12, 14, 20, 23]",73.39885923,27957,1877,2,3,7,1.2901330701441578
undo,16,44,0,0,0,7,"[0, 11, 24, 9, 4, 7]",6,1,[23],42.38273439,28644,687,1,0,7,1.2468141312360979
undo,16,44,0,0,1,23,"[0, 11, 24, 9, 4, 7, 23]",7,0,[],23.27776121,29944,1300,1,0,7,1.2635191782769477
undo,16,44,0,1,1,23,"[0, 11, 24, 9, 4, 7, 23]",7,0,[],23.27776121,37889,7945,1,0,7,1.2635191782769477
undo,17,41,0,0,0,0,[0],1,29,"[1, 2, 3, 4, 5, 6, 7, 8, 9, 10, 11, 12, 13, 14, 15, 16, 17, 18, 19, 20, 21, 22, 23, 24, 25, 26, 27, 28, 29]",300,165,-1,1,143,10,0.0
undo,17,41,0,0,0,28,"[0, 28]",2,27,"[1, 2, 3, 5, 6, 7, 8, 9, 10, 11, 12, 13, 14, 15, 16, 17, 18, 19, 20, 21, 22, 23, 24, 25, 26, 27, 29]",259.8004975,7951,7786,37,249,9,1.0
undo,17,41,0,0,0,5,"[0, 28, 5]",3,26,"[1, 2, 3, 6, 7, 8, 9, 10, 11, 12, 13, 14, 15, 16, 17, 18, 19, 20, 21, 22, 23, 24, 25, 26, 27, 29]",246.199027,8931,980,30,182,9,1.714241539747437
undo,17,41,0,0,0,3,"[0, 28, 5, 3]",4,25,"[1, 2, 6, 7, 8, 9, 10, 11, 12, 13, 14, 15, 16, 17, 18, 19, 20, 21, 22, 23, 24, 25, 26, 27, 29]",211.3708775,11553,2622,20,93,9,2.2367972660995847
undo,17,41,0,0,0,21,"[0, 28, 5, 3, 21]",5,19,"[1, 2, 6, 9, 10, 11, 12, 13, 14, 15, 17, 18, 19, 20, 22, 24, 25, 26, 27]",179.2305601,12716,1163,12,46,9,2.470864770481327
undo,17,41,0,0,0,9,"[0, 28, 5, 3, 21, 9]",6,13,"[1, 2, 10, 12, 13, 14, 15, 17, 19, 22, 24, 25, 26]",129.8645799,13550,834,3,17,9,2.0674559404382
undo,17,41,0,0,0,2,"[0, 28, 5, 3, 21, 9, 2]",7,9,"[1, 10, 12, 14, 15, 17, 19, 22, 24]",117.7815339,14234,684,2,7,9,2.0139863201149533
undo,17,41,0,0,0,17,"[0, 28, 5, 3, 21, 9, 2, 17]",8,1,[10],85.22389276,15301,1067,1,0,9,3.388293326704014
undo,17,41,0,0,1,10,"[0, 28, 5, 3, 21, 9, 2, 17, 10]",9,0,[],35.97960375,31122,15821,1,0,9,3.1208433501016275
undo,17,41,0,1,1,10,"[0, 28, 5, 3, 21, 9, 2, 17, 10]",9,0,[],35.97960375,32239,1117,1,0,9,3.1208433501016275
undo,18,23,0,0,0,0,[0],1,28,"[1, 2, 3, 4, 5, 6, 7, 8, 9, 10, 11, 12, 13, 14, 15, 16, 17, 18, 19, 20, 21, 22, 23, 25, 26, 27, 28, 29]",300,164,-1,76,2626,10,0.0
undo,18,23,0,0,0,22,"[0, 22]",2,24,"[1, 2, 3, 5, 6, 7, 8, 9, 10, 11, 12, 13, 14, 15, 17, 18, 19, 20, 21, 23, 25, 26, 27, 29]",210.5013967,7883,7719,15,1362,10,1.0
undo,18,23,0,0,0,13,"[0, 22, 13]",3,14,"[1, 2, 5, 6, 7, 8, 9, 10, 12, 14, 18, 21, 27, 29]",168.3113504,9680,1797,14,522,10,1.1898173563652046
undo,18,23,0,0,0,12,"[0, 22, 13, 12]",4,11,"[1, 2, 6, 7, 9, 10, 14, 18, 21, 27, 29]",156.2283045,11061,1381,12,166,10,1.1727968780218219
undo,18,23,0,0,0,9,"[0, 22, 13, 12, 9]",5,10,"[1, 2, 6, 7, 10, 14, 18, 21, 27, 29]",141.9104834,12470,1409,5,49,10,1.2100380646101494
undo,18,23,0,0,0,14,"[0, 22, 13, 12, 9, 14]",6,8,"[1, 2, 6, 7, 10, 18, 27, 29]",131.4701769,13112,642,2,19,10,1.1961799245073135
undo,18,23,0,0,0,2,"[0, 22, 13, 12, 9, 14, 2]",7,6,"[6, 7, 10, 18, 27, 29]",116.6041081,13668,556,1,8,10,1.343965446549325
undo,18,23,0,0,0,6,"[0, 22, 13, 12, 9, 14, 2, 6]",8,3,"[18, 27, 29]",98.16501923,14767,1099,3,0,9,1.3433890277057379
undo,18,23,0,0,1,27,"[0, 22, 13, 12, 9, 14, 2, 6, 27]",9,0,[],69.86307584,16564,1797,1,0,9,1.607346000085698
undo,18,23,1,0,0,6,"[0, 22, 13, 12, 9, 14, 2, 6]",8,3,"[18, 27, 29]",98.16501923,24425,7861,3,0,9,1.3433890277057379
undo,18,23,1,0,0,2,"[0, 22, 13, 12, 9, 14, 2]",7,6,"[6, 7, 10, 18, 27, 29]",116.6041081,24762,337,1,8,10,1.343965446549325
undo,18,23,1,0,0,14,"[0, 22, 13, 12, 9, 14]",6,8,"[1, 2, 6, 7, 10, 18, 27, 29]",131.4701769,25042,280,2,19,10,1.1961799245073135
undo,18,23,1,0,0,9,"[0, 22, 13, 12, 9]",5,10,"[1, 2, 6, 7, 10, 14, 18, 21, 27, 29]",141.9104834,25342,300,5,49,10,1.2100380646101494
undo,18,23,1,0,0,12,"[0, 22, 13, 12]",4,11,"[1, 2, 6, 7, 9, 10, 14, 18, 21, 27, 29]",156.2283045,25608,266,12,166,10,1.1727968780218219
undo,18,23,1,0,0,13,"[0, 22, 13]",3,14,"[1, 2, 5, 6, 7, 8, 9, 10, 12, 14, 18, 21, 27, 29]",168.3113504,25875,267,14,522,10,1.1898173563652046
undo,18,23,1,0,0,22,"[0, 22]",2,24,"[1, 2, 3, 5, 6, 7, 8, 9, 10, 11, 12, 13, 14, 15, 17, 18, 19, 20, 21, 23, 25, 26, 27, 29]",210.5013967,26142,267,15,1362,10,1.0
undo,18,23,1,0,0,0,[0],1,28,"[1, 2, 3, 4, 5, 6, 7, 8, 9, 10, 11, 12, 13, 14, 15, 16, 17, 18, 19, 20, 21, 22, 23, 25, 26, 27, 28, 29]",300,26776,634,76,2626,10,0.0
undo,18,23,0,0,0,18,"[0, 18]",2,14,"[2, 5, 6, 7, 9, 10, 12, 13, 14, 19, 21, 22, 27, 29]",203.8958898,28215,1439,73,787,9,1.0
undo,18,23,0,0,0,27,"[0, 18, 27]",3,9,"[2, 6, 7, 9, 12, 13, 14, 22, 29]",128.5832083,29115,900,51,277,9,1.1972268052690318
undo,18,23,0,0,0,6,"[0, 18, 27, 6]",4,8,"[2, 7, 9, 12, 13, 14, 22, 29]",100.2812649,31765,2650,43,68,9,1.3293035545030156
undo,18,23,0,0,0,14,"[0, 18, 27, 6, 14]",5,7,"[2, 7, 9, 12, 13, 22, 29]",71.41952548,32505,740,10,11,9,1.6224034994265621
undo,18,23,0,0,0,9,"[0, 18, 27, 6, 14, 9]",6,5,"[2, 12, 13, 22, 29]",60.97921897,33080,575,5,1,9,1.8294966642914483
undo,18,23,0,0,0,2,"[0, 18, 27, 6, 14, 9, 2]",7,2,"[12, 13]",47.94081416,33662,582,2,0,9,1.8471451718178584
undo,18,23,0,0,0,12,"[0, 18, 27, 6, 14, 9, 2, 12]",8,1,[13],34.04837017,34135,473,1,0,9,2.169462077251772
undo,18,23,0,0,1,13,"[0, 18, 27, 6, 14, 9, 2, 12, 13]",9,0,[],21.96532419,34679,544,1,0,9,2.512065268760345
undo,18,23,1,0,0,12,"[0, 18, 27, 6, 14, 9, 2, 12]",8,1,[13],34.04837017,35889,1210,1,0,9,2.169462077251772
undo,18,23,1,0,0,2,"[0, 18, 27, 6, 14, 9, 2]",7,2,"[12, 13]",47.94081416,37689,1800,2,0,9,1.8471451718178584
undo,18,23,1,0,0,9,"[0, 18, 27, 6, 14, 9]",6,5,"[2, 12, 13, 22, 29]",60.97921897,38039,350,5,1,9,1.8294966642914483
undo,18,23,1,0,0,14,"[0, 18, 27, 6, 14]",5,7,"[2, 7, 9, 12, 13, 22, 29]",71.41952548,38422,383,10,11,9,1.6224034994265621
undo,18,23,0,0,0,9,"[0, 18, 27, 6, 14, 9]",6,5,"[2, 12, 13, 22, 29]",60.97921897,43011,4589,5,1,9,1.8294966642914483
undo,18,23,1,0,0,14,"[0, 18, 27, 6, 14]",5,7,"[2, 7, 9, 12, 13, 22, 29]",71.41952548,43971,960,10,11,9,1.6224034994265621
undo,18,23,1,0,0,6,"[0, 18, 27, 6]",4,8,"[2, 7, 9, 12, 13, 14, 22, 29]",100.2812649,44271,300,43,68,9,1.3293035545030156
undo,18,23,1,0,0,27,"[0, 18, 27]",3,9,"[2, 6, 7, 9, 12, 13, 14, 22, 29]",128.5832083,44571,300,51,277,9,1.1972268052690318
undo,18,23,1,0,0,18,"[0, 18]",2,14,"[2, 5, 6, 7, 9, 10, 12, 13, 14, 19, 21, 22, 27, 29]",203.8958898,57085,12514,73,787,9,1.0
undo,18,23,1,0,0,0,[0],1,28,"[1, 2, 3, 4, 5, 6, 7, 8, 9, 10, 11, 12, 13, 14, 15, 16, 17, 18, 19, 20, 21, 22, 23, 25, 26, 27, 28, 29]",300,57501,416,76,2626,10,0.0
undo,18,23,0,0,0,13,"[0, 13]",2,19,"[1, 2, 3, 5, 6, 7, 8, 9, 10, 12, 14, 17, 18, 19, 21, 22, 23, 27, 29]",189.3202819,58632,1131,9,168,10,1.0
undo,18,23,0,0,0,12,"[0, 13, 12]",3,16,"[1, 2, 3, 6, 7, 8, 9, 10, 14, 17, 18, 21, 22, 23, 27, 29]",177.2372359,59195,563,9,96,10,1.0014195490503164
undo,18,23,0,0,0,2,"[0, 13, 12, 2]",4,12,"[1, 3, 6, 7, 9, 10, 14, 18, 21, 22, 27, 29]",163.3447919,61019,1824,4,30,10,1.0014394317924602
undo,18,23,0,0,0,9,"[0, 13, 12, 2, 9]",5,10,"[1, 6, 7, 10, 14, 18, 21, 22, 27, 29]",150.3063871,62158,1139,1,8,10,1.1457747074799831
undo,18,23,0,0,0,14,"[0, 13, 12, 2, 9, 14]",6,8,"[1, 6, 7, 10, 18, 22, 27, 29]",139.8660806,62773,615,1,6,10,1.1365880299138118
undo,18,23,0,0,0,29,"[0, 13, 12, 2, 9, 14, 29]",7,5,"[1, 6, 7, 10, 22]",92.43191571,65102,2329,1,3,10,1.3460297288480787
undo,18,23,0,0,0,7,"[0, 13, 12, 2, 9, 14, 29, 7]",8,2,"[1, 10]",68.34872655,66022,920,1,1,10,1.3773159292410473
undo,18,23,0,0,0,10,"[0, 13, 12, 2, 9, 14, 29, 7, 10]",9,1,[1],40.88966612,66815,793,1,0,10,1.3556884556214648
undo,18,23,0,0,1,1,"[0, 13, 12, 2, 9, 14, 29, 7, 10, 1]",10,0,[],12.23656855,68476,1661,1,0,10,1.3259861306330887
undo,18,23,0,1,1,1,"[0, 13, 12, 2, 9, 14, 29, 7, 10, 1]",10,0,[],12.23656855,69848,1372,1,0,10,1.3259861306330887
undo,19,26,0,0,0,0,[0],1,29,"[1, 2, 3, 4, 5, 6, 7, 8, 9, 10, 11, 12, 13, 14, 15, 16, 17, 18, 19, 20, 21, 22, 23, 24, 25, 26, 27, 28, 29]",300,167,-1,9,226,9,0.0
undo,19,26,0,0,0,21,"[0, 21]",2,25,"[2, 3, 4, 5, 6, 7, 8, 10, 11, 12, 13, 14, 15, 16, 17, 18, 19, 22, 23, 24, 25, 26, 27, 28, 29]",211.1349337,5827,5660,7,90,9,1.0
undo,19,26,0,0,0,13,"[0, 21, 13]",3,21,"[3, 4, 5, 6, 7, 8, 10, 11, 12, 14, 15, 16, 17, 18, 19, 22, 23, 24, 25, 26, 29]",188.9989901,8558,2731,6,45,9,1.0103952279992225
undo,19,26,0,0,0,5,"[0, 21, 13, 5]",4,12,"[3, 4, 11, 14, 16, 17, 18, 22, 23, 25, 26, 29]",150.7106107,10183,1625,2,10,8,1.0086890649024711
undo,19,26,0,0,0,23,"[0, 21, 13, 5, 23]",5,8,"[3, 4, 11, 14, 16, 17, 22, 29]",118.0150452,11318,1135,2,7,8,1.3518621918690494
undo,19,26,0,0,0,16,"[0, 21, 13, 5, 23, 16]",6,4,"[4, 14, 17, 29]",64.77971862,12458,1140,2,3,8,2.1011863559657242
undo,19,26,0,0,0,29,"[0, 21, 13, 5, 23, 16, 29]",7,2,"[4, 17]",40.57228175,13101,643,2,0,8,2.123178325538451
undo,19,26,0,0,1,4,"[0, 21, 13, 5, 23, 16, 29, 4]",8,0,[],16.57228175,14823,1722,1,0,8,2.338467952972574
undo,19,26,1,0,0,29,"[0, 21, 13, 5, 23, 16, 29]",7,2,"[4, 17]",40.57228175,16509,1686,2,0,8,2.123178325538451
undo,19,26,1,0,0,16,"[0, 21, 13, 5, 23, 16]",6,4,"[4, 14, 17, 29]",64.77971862,17626,1117,2,3,8,2.1011863559657242
undo,19,26,1,0,0,23,"[0, 21, 13, 5, 23]",5,8,"[3, 4, 11, 14, 16, 17, 22, 29]",118.0150452,17926,300,2,7,8,1.3518621918690494
undo,19,26,1,0,0,5,"[0, 21, 13, 5]",4,12,"[3, 4, 11, 14, 16, 17, 18, 22, 23, 25, 26, 29]",150.7106107,18192,266,2,10,8,1.0086890649024711
undo,19,26,1,0,0,13,"[0, 21, 13]",3,21,"[3, 4, 5, 6, 7, 8, 10, 11, 12, 14, 15, 16, 17, 18, 19, 22, 23, 24, 25, 26, 29]",188.9989901,18526,334,6,45,9,1.0103952279992225
undo,19,26,1,0,0,21,"[0, 21]",2,25,"[2, 3, 4, 5, 6, 7, 8, 10, 11, 12, 13, 14, 15, 16, 17, 18, 19, 22, 23, 24, 25, 26, 27, 28, 29]",211.1349337,18926,400,7,90,9,1.0
undo,19,26,0,0,0,13,"[0, 21, 13]",3,21,"[3, 4, 5, 6, 7, 8, 10, 11, 12, 14, 15, 16, 17, 18, 19, 22, 23, 24, 25, 26, 29]",188.9989901,21981,3055,6,45,9,1.0103952279992225
undo,19,26,0,0,0,23,"[0, 21, 13, 23]",4,13,"[3, 4, 5, 6, 10, 11, 14, 16, 17, 18, 22, 26, 29]",150.9858345,22771,790,3,17,9,1.1069410469330032
undo,19,26,0,0,0,16,"[0, 21, 13, 23, 16]",5,7,"[4, 5, 6, 10, 14, 17, 29]",97.75050789,23699,928,3,13,9,1.8066634000662438
undo,19,26,0,0,0,29,"[0, 21, 13, 23, 16, 29]",6,5,"[4, 6, 10, 14, 17]",73.54307102,24306,607,3,9,9,1.853342605492142
undo,19,26,0,0,0,4,"[0, 21, 13, 23, 16, 29, 4]",7,3,"[6, 14, 17]",49.54307102,25963,1657,2,2,9,2.0664369230924997
undo,19,26,0,0,0,17,"[0, 21, 13, 23, 16, 29, 4, 17]",8,2,"[6, 14]",28.44804791,27109,1146,2,0,9,1.911153301956092
undo,19,26,0,0,1,14,"[0, 21, 13, 23, 16, 29, 4, 17, 14]",9,0,[],5.975842855,27948,839,1,0,9,1.8245133223656398
undo,19,26,1,0,0,17,"[0, 21, 13, 23, 16, 29, 4, 17]",8,2,"[6, 14]",28.44804791,29423,1475,2,0,9,1.911153301956092
undo,19,26,1,0,0,4,"[0, 21, 13, 23, 16, 29, 4]",7,3,"[6, 14, 17]",49.54307102,30040,617,2,2,9,2.0664369230924997
undo,19,26,1,0,0,29,"[0, 21, 13, 23, 16, 29]",6,5,"[4, 6, 10, 14, 17]",73.54307102,30357,317,3,9,9,1.853342605492142
undo,19,26,1,0,0,16,"[0, 21, 13, 23, 16]",5,7,"[4, 5, 6, 10, 14, 17, 29]",97.75050789,30706,349,3,13,9,1.8066634000662438
undo,19,26,1,0,0,23,"[0, 21, 13, 23]",4,13,"[3, 4, 5, 6, 10, 11, 14, 16, 17, 18, 22, 26, 29]",150.9858345,31023,317,3,17,9,1.1069410469330032
undo,19,26,1,0,0,13,"[0, 21, 13]",3,21,"[3, 4, 5, 6, 7, 8, 10, 11, 12, 14, 15, 16, 17, 18, 19, 22, 23, 24, 25, 26, 29]",188.9989901,31356,333,6,45,9,1.0103952279992225
undo,19,26,0,0,0,16,"[0, 21, 13, 16]",4,8,"[4, 5, 6, 10, 14, 17, 23, 29]",119.9700107,33177,1821,3,23,9,1.608180021563306
undo,19,26,0,0,0,4,"[0, 21, 13, 16, 4]",5,5,"[6, 10, 14, 17, 29]",74.42882056,34395,1218,3,10,8,1.8611128702993958
undo,19,26,0,0,0,29,"[0, 21, 13, 16, 4, 29]",6,3,"[6, 14, 17]",50.42882056,34933,538,3,0,7,2.0425115806455487
undo,19,26,0,0,1,17,"[0, 21, 13, 16, 4, 29, 17]",7,0,[],20.01500791,35687,754,1,0,7,1.9705041264207463
undo,19,26,1,0,0,29,"[0, 21, 13, 16, 4, 29]",6,3,"[6, 14, 17]",50.42882056,37071,1384,3,0,7,2.0425115806455487
undo,19,26,1,0,0,4,"[0, 21, 13, 16, 4]",5,5,"[6, 10, 14, 17, 29]",74.42882056,37388,317,3,10,8,1.8611128702993958
undo,19,26,0,0,0,17,"[0, 21, 13, 16, 4, 17]",6,4,"[6, 10, 14, 29]",53.33379745,39225,1837,3,2,8,1.73601008520153
undo,19,26,0,0,0,6,"[0, 21, 13, 16, 4, 17, 6]",7,2,"[10, 14]",33.20918565,40844,1619,2,0,8,1.6610958321321365
undo,19,26,0,0,1,14,"[0, 21, 13, 16, 4, 17, 6, 14]",8,0,[],12.18538961,42311,1467,1,0,8,1.785981111644047
undo,19,26,1,0,0,6,"[0, 21, 13, 16, 4, 17, 6]",7,2,"[10, 14]",33.20918565,43536,1225,2,0,8,1.6610958321321365
undo,19,26,1,0,0,17,"[0, 21, 13, 16, 4, 17]",6,4,"[6, 10, 14, 29]",53.33379745,43736,200,3,2,8,1.73601008520153
undo,19,26,1,0,0,4,"[0, 21, 13, 16, 4]",5,5,"[6, 10, 14, 17, 29]",74.42882056,44003,267,3,10,8,1.8611128702993958
undo,19,26,1,0,0,16,"[0, 21, 13, 16]",4,8,"[4, 5, 6, 10, 14, 17, 23, 29]",119.9700107,44253,250,3,23,9,1.608180021563306
undo,19,26,0,0,0,29,"[0, 21, 13, 16, 29]",5,6,"[4, 6, 10, 14, 17, 23]",95.76257383,45651,1398,3,20,9,1.6714963205667543
undo,19,26,0,0,0,4,"[0, 21, 13, 16, 29, 4]",6,4,"[6, 10, 14, 17]",71.76257383,46541,890,3,6,9,1.8831111863826637
undo,19,26,0,0,0,17,"[0, 21, 13, 16, 29, 4, 17]",7,3,"[6, 10, 14]",50.66755072,47059,518,3,1,9,1.7547748416418751
undo,19,26,0,0,0,14,"[0, 21, 13, 16, 29, 4, 17, 14]",8,1,[6],28.19534567,47717,658,1,0,9,1.6866342470680415
undo,19,26,0,0,1,6,"[0, 21, 13, 16, 29, 4, 17, 14, 6]",9,0,[],7.171549626,48821,1104,1,0,9,1.823211641041882
undo,19,26,0,1,1,6,"[0, 21, 13, 16, 29, 4, 17, 14, 6]",9,0,[],7.171549626,49837,1016,1,0,9,1.823211641041882
undo,20,40,0,0,0,0,[0],1,29,"[1, 2, 3, 4, 5, 6, 7, 8, 9, 10, 11, 12, 13, 14, 15, 16, 17, 18, 19, 20, 21, 22, 23, 24, 25, 26, 27, 28, 29]",300,162,-1,8,191,9,0.0
undo,20,40,0,0,0,1,"[0, 1]",2,18,"[2, 5, 6, 7, 8, 9, 10, 11, 13, 15, 17, 18, 19, 21, 22, 23, 27, 29]",247.8463808,4106,3944,4,80,9,1.0
undo,20,40,0,0,0,6,"[0, 1, 6]",3,17,"[2, 5, 7, 8, 9, 10, 11, 13, 15, 17, 18, 19, 21, 22, 23, 27, 29]",227.7466295,4852,746,4,74,9,1.0459427008232034
undo,20,40,1,0,0,1,"[0, 1]",2,18,"[2, 5, 6, 7, 8, 9, 10, 11, 13, 15, 17, 18, 19, 21, 22, 23, 27, 29]",247.8463808,8210,3358,4,80,9,1.0
undo,20,40,1,0,0,0,[0],1,29,"[1, 2, 3, 4, 5, 6, 7, 8, 9, 10, 11, 12, 13, 14, 15, 16, 17, 18, 19, 20, 21, 22, 23, 24, 25, 26, 27, 28, 29]",300,8494,284,8,191,9,0.0
undo,20,40,0,0,0,1,"[0, 1]",2,18,"[2, 5, 6, 7, 8, 9, 10, 11, 13, 15, 17, 18, 19, 21, 22, 23, 27, 29]",247.8463808,10156,1662,4,80,9,1.0
undo,20,40,0,0,0,6,"[0, 1, 6]",3,17,"[2, 5, 7, 8, 9, 10, 11, 13, 15, 17, 18, 19, 21, 22, 23, 27, 29]",227.7466295,10732,576,4,74,9,1.0459427008232034
undo,20,40,0,0,0,21,"[0, 1, 6, 21]",4,8,"[2, 5, 9, 17, 18, 19, 22, 23]",175.7754837,12041,1309,4,25,9,1.0308822257404064
undo,20,40,0,0,0,9,"[0, 1, 6, 21, 9]",5,6,"[2, 5, 18, 19, 22, 23]",130.0699041,12950,909,4,12,9,1.377861912961129
undo,20,40,0,0,0,18,"[0, 1, 6, 21, 9, 18]",6,5,"[2, 5, 19, 22, 23]",113.5169588,13565,615,4,4,9,1.5742712168661408
undo,20,40,0,0,0,5,"[0, 1, 6, 21, 9, 18, 5]",7,3,"[19, 22, 23]",81.94165198,14468,903,2,1,9,1.7730665063055515
undo,20,40,0,0,0,23,"[0, 1, 6, 21, 9, 18, 5, 23]",8,1,[19],53.63970859,15426,958,1,0,9,2.597442759912231
undo,20,40,0,0,1,19,"[0, 1, 6, 21, 9, 18, 5, 23, 19]",9,0,[],21.68661797,16577,1151,1,0,9,2.7128328554069565
undo,20,40,0,1,1,19,"[0, 1, 6, 21, 9, 18, 5, 23, 19]",9,0,[],21.68661797,18875,2298,1,0,9,2.7128328554069565
undo,21,4,0,0,0,0,[0],1,26,"[3, 4, 5, 6, 7, 8, 10, 11, 12, 13, 14, 15, 16, 17, 18, 19, 20, 21, 22, 23, 24, 25, 26, 27, 28, 29]",300,165,-1,4,489,10,0.0
undo,21,4,0,0,0,13,"[0, 13]",2,23,"[3, 4, 5, 6, 7, 10, 11, 12, 14, 15, 16, 17, 19, 20, 21, 22, 23, 24, 25, 26, 27, 28, 29]",232.1030192,5508,5343,2,270,10,1.0
undo,21,4,0,0,0,28,"[0, 13, 28]",3,19,"[3, 4, 5, 6, 10, 11, 12, 14, 15, 16, 17, 19, 20, 21, 22, 23, 24, 25, 26]",200.5277124,6221,713,2,221,10,1.3431168257921573
undo,21,4,0,0,0,14,"[0, 13, 28, 14]",4,11,"[3, 4, 5, 6, 11, 16, 17, 20, 21, 22, 25]",134.2857318,9182,2961,28,123,9,1.2134786195381546
undo,21,4,0,0,0,25,"[0, 13, 28, 14, 25]",5,10,"[3, 4, 5, 6, 11, 16, 17, 20, 21, 22]",118.1612163,9997,815,22,51,9,1.4339367384350254
undo,21,4,0,0,0,11,"[0, 13, 28, 14, 25, 11]",6,9,"[3, 4, 5, 6, 16, 17, 20, 21, 22]",99.37292203,10703,706,11,18,9,1.632788140935394
undo,21,4,0,0,0,16,"[0, 13, 28, 14, 25, 11, 16]",7,6,"[3, 5, 17, 20, 21, 22]",84.37292203,11170,467,9,2,9,1.5642820747024264
undo,21,4,0,0,0,17,"[0, 13, 28, 14, 25, 11, 16, 17]",8,4,"[3, 20, 21, 22]",58.29611241,12793,1623,4,0,9,1.4745445015567764
undo,21,4,0,0,1,3,"[0, 13, 28, 14, 25, 11, 16, 17, 3]",9,0,[],33.78081107,13585,792,1,0,9,1.5263697522111268
undo,21,4,1,0,0,17,"[0, 13, 28, 14, 25, 11, 16, 17]",8,4,"[3, 20, 21, 22]",58.29611241,14661,1076,4,0,9,1.4745445015567764
undo,21,4,1,0,0,16,"[0, 13, 28, 14, 25, 11, 16]",7,6,"[3, 5, 17, 20, 21, 22]",84.37292203,14945,284,9,2,9,1.5642820747024264
undo,21,4,1,0,0,11,"[0, 13, 28, 14, 25, 11]",6,9,"[3, 4, 5, 6, 16, 17, 20, 21, 22]",99.37292203,15178,233,11,18,9,1.632788140935394
undo,21,4,1,0,0,25,"[0, 13, 28, 14, 25]",5,10,"[3, 4, 5, 6, 11, 16, 17, 20, 21, 22]",118.1612163,15461,283,22,51,9,1.4339367384350254
undo,21,4,1,0,0,14,"[0, 13, 28, 14]",4,11,"[3, 4, 5, 6, 11, 16, 17, 20, 21, 22, 25]",134.2857318,15728,267,28,123,9,1.2134786195381546
undo,21,4,1,0,0,28,"[0, 13, 28]",3,19,"[3, 4, 5, 6, 10, 11, 12, 14, 15, 16, 17, 19, 20, 21, 22, 23, 24, 25, 26]",200.5277124,15978,250,2,221,10,1.3431168257921573
undo,21,4,0,0,0,14,"[0, 13, 28, 14]",4,11,"[3, 4, 5, 6, 11, 16, 17, 20, 21, 22, 25]",134.2857318,19750,3772,28,123,9,1.2134786195381546
undo,21,4,0,0,0,25,"[0, 13, 28, 14, 25]",5,10,"[3, 4, 5, 6, 11, 16, 17, 20, 21, 22]",118.1612163,20385,635,22,51,9,1.4339367384350254
undo,21,4,0,0,0,11,"[0, 13, 28, 14, 25, 11]",6,9,"[3, 4, 5, 6, 16, 17, 20, 21, 22]",99.37292203,21008,623,11,18,9,1.632788140935394
undo,21,4,0,0,0,16,"[0, 13, 28, 14, 25, 11, 16]",7,6,"[3, 5, 17, 20, 21, 22]",84.37292203,21517,509,9,2,9,1.5642820747024264
undo,21,4,0,0,0,3,"[0, 13, 28, 14, 25, 11, 16, 3]",8,1,[17],42.74360544,22883,1366,1,0,9,1.474981502263249
undo,21,4,0,0,1,17,"[0, 13, 28, 14, 25, 11, 16, 3, 17]",9,0,[],18.2283041,23505,622,1,0,9,1.718983128597651
undo,21,4,1,0,0,3,"[0, 13, 28, 14, 25, 11, 16, 3]",8,1,[17],42.74360544,24276,771,1,0,9,1.474981502263249
undo,21,4,1,0,0,16,"[0, 13, 28, 14, 25, 11, 16]",7,6,"[3, 5, 17, 20, 21, 22]",84.37292203,24509,233,9,2,9,1.5642820747024264
undo,21,4,1,0,0,11,"[0, 13, 28, 14, 25, 11]",6,9,"[3, 4, 5, 6, 16, 17, 20, 21, 22]",99.37292203,24759,250,11,18,9,1.632788140935394
undo,21,4,0,0,0,21,"[0, 13, 28, 14, 25, 11, 21]",7,5,"[5, 16, 17, 20, 22]",52.50075545,25889,1130,2,4,9,1.6745489727009897
undo,21,4,0,0,0,22,"[0, 13, 28, 14, 25, 11, 21, 22]",8,2,"[5, 20]",41.45539444,26419,530,2,0,9,1.629551134277291
undo,21,4,0,0,1,20,"[0, 13, 28, 14, 25, 11, 21, 22, 20]",9,0,[],11.22296152,28298,1879,1,0,9,1.5803779155707733
undo,21,4,1,0,0,22,"[0, 13, 28, 14, 25, 11, 21, 22]",8,2,"[5, 20]",41.45539444,32191,3893,2,0,9,1.629551134277291
undo,21,4,1,0,0,21,"[0, 13, 28, 14, 25, 11, 21]",7,5,"[5, 16, 17, 20, 22]",52.50075545,34624,2433,2,4,9,1.6745489727009897
undo,21,4,1,0,0,11,"[0, 13, 28, 14, 25, 11]",6,9,"[3, 4, 5, 6, 16, 17, 20, 21, 22]",99.37292203,35174,550,11,18,9,1.632788140935394
undo,21,4,0,0,0,16,"[0, 13, 28, 14, 25, 11, 16]",7,6,"[3, 5, 17, 20, 21, 22]",84.37292203,36726,1552,9,2,9,1.5642820747024264
undo,21,4,0,0,0,21,"[0, 13, 28, 14, 25, 11, 16, 21]",8,2,"[20, 22]",40.16884982,38568,1842,2,0,9,1.7579851057756917
undo,21,4,0,0,1,22,"[0, 13, 28, 14, 25, 11, 16, 21, 22]",9,0,[],29.12348881,40462,1894,1,0,9,1.7072764875626198
undo,21,4,1,0,0,21,"[0, 13, 28, 14, 25, 11, 16, 21]",8,2,"[20, 22]",40.16884982,41839,1377,2,0,9,1.7579851057756917
undo,21,4,1,0,0,16,"[0, 13, 28, 14, 25, 11, 16]",7,6,"[3, 5, 17, 20, 21, 22]",84.37292203,42655,816,9,2,9,1.5642820747024264
undo,21,4,1,0,0,11,"[0, 13, 28, 14, 25, 11]",6,9,"[3, 4, 5, 6, 16, 17, 20, 21, 22]",99.37292203,43489,834,11,18,9,1.632788140935394
undo,21,4,1,0,0,25,"[0, 13, 28, 14, 25]",5,10,"[3, 4, 5, 6, 11, 16, 17, 20, 21, 22]",118.1612163,44838,1349,22,51,9,1.4339367384350254
undo,21,4,0,0,0,16,"[0, 13, 28, 14, 25, 16]",6,8,"[3, 4, 5, 11, 17, 20, 21, 22]",96.62055703,46230,1392,10,17,9,1.4754307297397888
undo,21,4,0,0,0,21,"[0, 13, 28, 14, 25, 16, 21]",7,5,"[5, 11, 17, 20, 22]",52.41648482,47973,1743,2,4,9,1.675119137257055
undo,21,4,0,0,0,22,"[0, 13, 28, 14, 25, 16, 21, 22]",8,2,"[5, 20]",41.37112381,48478,505,2,0,9,1.6300822739636343
undo,21,4,0,0,1,20,"[0, 13, 28, 14, 25, 16, 21, 22, 20]",9,0,[],11.13869089,49499,1021,1,0,9,1.580839099892367
undo,21,4,0,1,1,20,"[0, 13, 28, 14, 25, 16, 21, 22, 20]",9,0,[],11.13869089,51720,2221,1,0,9,1.580839099892367
undo,22,45,0,0,0,0,[0],1,24,"[1, 2, 3, 4, 5, 6, 7, 9, 10, 11, 12, 14, 15, 16, 17, 19, 20, 21, 22, 23, 24, 25, 27, 29]",300,165,-1,6,248,10,0.0
undo,22,45,0,0,0,15,"[0, 15]",2,23,"[1, 2, 3, 4, 5, 6, 7, 9, 10, 11, 12, 14, 16, 17, 19, 20, 21, 22, 23, 24, 25, 27, 29]",253.9022777,6142,5977,5,207,10,1.0
undo,22,45,1,0,0,0,[0],1,24,"[1, 2, 3, 4, 5, 6, 7, 9, 10, 11, 12, 14, 15, 16, 17, 19, 20, 21, 22, 23, 24, 25, 27, 29]",300,8811,2669,6,248,10,0.0
undo,22,45,0,0,0,17,"[0, 17]",2,22,"[1, 2, 3, 4, 5, 6, 7, 9, 10, 11, 12, 14, 15, 16, 19, 20, 21, 22, 23, 24, 25, 29]",235.867325,10819,2008,1,34,10,1.0
undo,22,45,0,0,0,24,"[0, 17, 24]",3,20,"[1, 2, 3, 4, 5, 6, 7, 9, 10, 11, 12, 14, 15, 16, 19, 20, 21, 22, 23, 29]",193.8078433,11772,953,1,33,10,1.0309432256229287
undo,22,45,0,0,0,7,"[0, 17, 24, 7]",4,18,"[1, 2, 3, 4, 5, 6, 9, 10, 12, 14, 15, 16, 19, 20, 21, 22, 23, 29]",159.3985423,13368,1596,1,32,10,1.059763151913087
undo,22,45,0,0,0,2,"[0, 17, 24, 7, 2]",5,12,"[3, 4, 6, 10, 12, 14, 16, 19, 20, 22, 23, 29]",121.3853866,14267,899,1,23,10,1.0656581932115423
undo,22,45,0,0,0,3,"[0, 17, 24, 7, 2, 3]",6,8,"[6, 10, 12, 14, 16, 20, 22, 29]",96.06740884,15022,755,1,13,10,1.1368250049574795
undo,22,45,0,0,0,29,"[0, 17, 24, 7, 2, 3, 29]",7,5,"[6, 10, 12, 20, 22]",76.06740884,15685,663,1,5,10,1.390376182346372
undo,22,45,0,0,0,10,"[0, 17, 24, 7, 2, 3, 29, 10]",8,2,"[6, 12]",54.52674961,16452,767,1,1,10,1.6682270697663164
undo,22,45,0,0,0,6,"[0, 17, 24, 7, 2, 3, 29, 10, 6]",9,1,[12],28.27794012,17190,738,1,0,10,1.5776211572942243
undo,22,45,0,0,1,12,"[0, 17, 24, 7, 2, 3, 29, 10, 6, 12]",10,0,[],8.15332832,18392,1202,1,0,10,1.536035114105263
undo,22,45,0,1,1,12,"[0, 17, 24, 7, 2, 3, 29, 10, 6, 12]",10,0,[],8.15332832,19242,850,1,0,10,1.536035114105263
basic,23,30,0,0,0,0,[0],1,19,"[3, 4, 5, 7, 9, 11, 16, 17, 18, 19, 20, 21, 22, 24, 25, 26, 27, 28, 29]",300,165,-1,5,41,8,0.0
basic,23,30,0,0,0,16,"[0, 16]",2,17,"[3, 5, 7, 9, 11, 17, 18, 19, 20, 21, 22, 24, 25, 26, 27, 28, 29]",219.3774225,6015,5850,5,34,8,1.0
basic,23,30,0,0,0,25,"[0, 16, 25]",3,10,"[3, 5, 7, 9, 11, 18, 19, 20, 27, 29]",115.0845656,11877,5862,5,28,8,1.0336279544884488
basic,23,30,0,0,0,20,"[0, 16, 25, 20]",4,8,"[3, 5, 7, 9, 18, 19, 27, 29]",93.15285342,12812,935,4,14,8,1.0337964627284246
basic,23,30,0,0,0,27,"[0, 16, 25, 20, 27]",5,4,"[3, 5, 18, 29]",59.09408069,13821,1009,4,6,8,1.1504365534848
basic,23,30,0,0,0,3,"[0, 16, 25, 20, 27, 3]",6,3,"[5, 18, 29]",39.98910751,15104,1283,4,0,8,1.1403876826835333
basic,23,30,0,0,0,29,"[0, 16, 25, 20, 27, 3, 29]",7,1,[18],21.38803228,16987,1883,1,0,8,1.1443827771455848
basic,23,30,0,0,1,18,"[0, 16, 25, 20, 27, 3, 29, 18]",8,0,[],2.074824359,17853,866,1,0,8,1.2197761544023602
basic,23,30,0,1,1,18,"[0, 16, 25, 20, 27, 3, 29, 18]",8,0,[],2.074824359,47038,29185,1,0,8,1.2197761544023602
basic,24,27,0,0,0,0,[0],1,26,"[1, 3, 5, 6, 7, 8, 9, 10, 11, 12, 13, 14, 15, 16, 17, 18, 19, 21, 22, 23, 24, 25, 26, 27, 28, 29]",300,164,-1,13,578,11,0.0
basic,24,27,0,0,0,15,"[0, 15]",2,24,"[1, 3, 5, 6, 7, 8, 9, 10, 11, 12, 13, 14, 16, 17, 18, 19, 21, 22, 23, 24, 25, 26, 27, 29]",263.7508621,3418,3254,6,219,11,1.0
basic,24,27,0,0,0,24,"[0, 15, 24]",3,20,"[1, 5, 6, 7, 8, 9, 10, 12, 13, 14, 16, 17, 18, 19, 21, 23, 25, 26, 27, 29]",246.5462115,4046,628,6,130,11,1.130933077698322
basic,24,27,0,0,0,17,"[0, 15, 24, 17]",4,15,"[1, 6, 8, 10, 12, 13, 14, 16, 18, 19, 23, 25, 26, 27, 29]",229.9932662,6640,2594,4,60,11,1.1285538435963374
basic,24,27,0,0,0,12,"[0, 15, 24, 17, 12]",5,14,"[1, 6, 8, 10, 13, 14, 16, 18, 19, 23, 25, 26, 27, 29]",218.8129263,8121,1481,2,32,11,1.2561880288755216
basic,24,27,0,0,0,10,"[0, 15, 24, 17, 12, 10]",6,11,"[1, 8, 13, 14, 18, 19, 23, 25, 26, 27, 29]",207.7675653,8708,587,2,28,11,1.2228289337766665
basic,24,27,0,0,0,13,"[0, 15, 24, 17, 12, 10, 13]",7,9,"[1, 8, 14, 18, 19, 23, 26, 27, 29]",167.9178476,10370,1662,2,18,11,1.3421291994761178
basic,24,27,0,0,0,19,"[0, 15, 24, 17, 12, 10, 13, 19]",8,5,"[1, 8, 14, 23, 29]",131.6825057,11419,1049,2,6,11,1.294749956153846
basic,24,27,0,0,0,8,"[0, 15, 24, 17, 12, 10, 13, 19, 8]",9,3,"[14, 23, 29]",116.816437,12347,928,2,1,11,1.3554286578836865
basic,24,27,0,0,0,29,"[0, 15, 24, 17, 12, 10, 13, 19, 8, 29]",10,1,[14],57.61339652,13975,1628,1,0,11,1.248354519573802
basic,24,27,0,0,1,14,"[0, 15, 24, 17, 12, 10, 13, 19, 8, 29, 14]",11,0,[],13.31892734,15017,1042,1,0,11,1.562811097555156
basic,24,27,0,1,1,14,"[0, 15, 24, 17, 12, 10, 13, 19, 8, 29, 14]",11,0,[],13.31892734,16178,1161,1,0,11,1.562811097555156
basic,25,9,0,0,0,0,[0],1,27,"[1, 3, 4, 5, 6, 7, 8, 9, 10, 11, 13, 14, 15, 16, 17, 18, 19, 20, 21, 22, 23, 24, 25, 26, 27, 28, 29]",300,165,-1,2,182,10,0.0
basic,25,9,0,0,0,25,"[0, 25]",2,24,"[1, 3, 4, 5, 6, 7, 8, 9, 10, 11, 13, 15, 16, 17, 18, 19, 20, 21, 22, 23, 24, 26, 27, 28]",275.9168108,18519,18354,2,104,10,1.0
basic,25,9,0,0,0,10,"[0, 25, 10]",3,20,"[3, 4, 5, 7, 8, 9, 11, 13, 15, 16, 17, 18, 19, 20, 21, 22, 23, 26, 27, 28]",236.0670932,20034,1515,2,76,10,1.1767014107208227
basic,25,9,0,0,0,20,"[0, 25, 10, 20]",4,13,"[8, 9, 15, 16, 17, 18, 19, 21, 22, 23, 26, 27, 28]",153.6049806,23734,3700,7,31,9,1.1559102626209
basic,25,9,0,0,0,21,"[0, 25, 10, 20, 21]",5,11,"[8, 9, 15, 16, 17, 18, 19, 22, 23, 26, 28]",141.5219347,24445,711,7,23,9,1.3369987418374067
basic,25,9,0,0,0,28,"[0, 25, 10, 20, 21, 28]",6,4,"[8, 9, 23, 26]",88.52193467,29748,5303,4,4,9,2.8471728698277694
basic,25,9,0,0,0,8,"[0, 25, 10, 20, 21, 28, 8]",7,3,"[9, 23, 26]",77.70528084,30415,667,2,1,9,3.4852880207547177
basic,25,9,0,0,0,23,"[0, 25, 10, 20, 21, 28, 8, 23]",8,1,[9],56.23437029,31270,855,1,0,9,4.094155669069095
basic,25,9,0,0,1,9,"[0, 25, 10, 20, 21, 28, 8, 23, 9]",9,0,[],33.87369051,32593,1323,1,0,9,3.573855889055686
basic,25,9,0,1,1,9,"[0, 25, 10, 20, 21, 28, 8, 23, 9]",9,0,[],33.87369051,42871,10278,1,0,9,3.573855889055686
basic,26,45,0,0,0,0,[0],1,24,"[1, 2, 3, 4, 5, 6, 7, 9, 10, 11, 12, 14, 15, 16, 17, 19, 20, 21, 22, 23, 24, 25, 27, 29]",300,166,-1,6,248,10,0.0
basic,26,45,0,0,0,17,"[0, 17]",2,22,"[1, 2, 3, 4, 5, 6, 7, 9, 10, 11, 12, 14, 15, 16, 19, 20, 21, 22, 23, 24, 25, 29]",235.867325,15383,15217,1,34,10,1.0
basic,26,45,0,0,0,24,"[0, 17, 24]",3,20,"[1, 2, 3, 4, 5, 6, 7, 9, 10, 11, 12, 14, 15, 16, 19, 20, 21, 22, 23, 29]",193.8078433,16071,688,1,33,10,1.0309432256229287
basic,26,45,0,0,0,7,"[0, 17, 24, 7]",4,18,"[1, 2, 3, 4, 5, 6, 9, 10, 12, 14, 15, 16, 19, 20, 21, 22, 23, 29]",159.3985423,16943,872,1,32,10,1.059763151913087
basic,26,45,0,0,0,2,"[0, 17, 24, 7, 2]",5,12,"[3, 4, 6, 10, 12, 14, 16, 19, 20, 22, 23, 29]",121.3853866,17719,776,1,23,10,1.0656581932115423
basic,26,45,0,0,0,3,"[0, 17, 24, 7, 2, 3]",6,8,"[6, 10, 12, 14, 16, 20, 22, 29]",96.06740884,18807,1088,1,13,10,1.1368250049574795
basic,26,45,0,0,0,29,"[0, 17, 24, 7, 2, 3, 29]",7,5,"[6, 10, 12, 20, 22]",76.06740884,19981,1174,1,5,10,1.390376182346372
basic,26,45,0,0,0,10,"[0, 17, 24, 7, 2, 3, 29, 10]",8,2,"[6, 12]",54.52674961,20722,741,1,1,10,1.6682270697663164
basic,26,45,0,0,0,6,"[0, 17, 24, 7, 2, 3, 29, 10, 6]",9,1,[12],28.27794012,21476,754,1,0,10,1.5776211572942243
basic,26,45,0,0,1,12,"[0, 17, 24, 7, 2, 3, 29, 10, 6, 12]",10,0,[],8.15332832,22454,978,1,0,10,1.536035114105263
basic,26,45,0,1,1,12,"[0, 17, 24, 7, 2, 3, 29, 10, 6, 12]",10,0,[],8.15332832,23827,1373,1,0,10,1.536035114105263
basic,27,21,0,0,0,0,[0],1,29,"[1, 2, 3, 4, 5, 6, 7, 8, 9, 10, 11, 12, 13, 14, 15, 16, 17, 18, 19, 20, 21, 22, 23, 24, 25, 26, 27, 28, 29]",300,167,-1,84,830,9,0.0
basic,27,21,0,0,0,22,"[0, 22]",2,28,"[1, 2, 3, 4, 5, 6, 7, 8, 9, 10, 11, 12, 13, 14, 15, 16, 17, 18, 19, 20, 21, 23, 24, 25, 26, 27, 28, 29]",217.7746998,5935,5768,2,74,9,1.0
basic,27,21,0,0,0,18,"[0, 22, 18]",3,23,"[1, 2, 3, 4, 6, 7, 8, 9, 10, 11, 12, 14, 15, 16, 17, 20, 21, 23, 24, 25, 26, 27, 29]",191.3739422,8553,2618,1,37,9,1.838744154799842
basic,27,21,0,0,0,25,"[0, 22, 18, 25]",4,15,"[4, 6, 8, 9, 11, 12, 14, 15, 16, 17, 20, 21, 23, 24, 29]",149.6127162,12272,3719,20,31,8,2.514148623366367
basic,27,21,0,0,0,21,"[0, 22, 18, 25, 21]",5,7,"[4, 8, 14, 15, 16, 23, 29]",100.2771306,16850,4578,6,5,8,2.221887759989525
basic,27,21,0,0,0,14,"[0, 22, 18, 25, 21, 14]",6,3,"[4, 16, 23]",74.66463367,18126,1276,3,1,8,1.9672630819151018
basic,27,21,0,0,0,4,"[0, 22, 18, 25, 21, 14, 4]",7,2,"[16, 23]",60.52249805,18732,606,2,0,8,1.8722897925401767
basic,27,21,0,0,1,16,"[0, 22, 18, 25, 21, 14, 4, 16]",8,0,[],15.92429181,20042,1310,1,0,8,1.740439121431631
basic,27,21,0,1,1,16,"[0, 22, 18, 25, 21, 14, 4, 16]",8,0,[],15.92429181,22976,2934,1,0,8,1.740439121431631
basic,28,12,0,0,0,0,[0],1,29,"[1, 2, 3, 4, 5, 6, 7, 8, 9, 10, 11, 12, 13, 14, 15, 16, 17, 18, 19, 20, 21, 22, 23, 24, 25, 26, 27, 28, 29]",300,164,-1,2,32,9,0.0
basic,28,12,0,0,0,22,"[0, 22]",2,22,"[2, 4, 5, 6, 7, 9, 10, 12, 13, 14, 15, 16, 17, 18, 19, 21, 23, 24, 25, 27, 28, 29]",211.9943184,4386,4222,6,42,8,1.0
basic,28,12,0,0,0,16,"[0, 22, 16]",3,12,"[2, 4, 5, 6, 7, 12, 14, 19, 23, 24, 25, 27]",190.9943184,6337,1951,6,24,8,1.2017164145167045
basic,28,12,0,0,0,4,"[0, 22, 16, 4]",4,9,"[2, 6, 7, 12, 14, 19, 24, 25, 27]",156.7890556,7436,1099,6,14,8,1.146531713305579
basic,28,12,0,0,0,12,"[0, 22, 16, 4, 12]",5,4,"[14, 19, 24, 27]",114.5990094,8235,799,4,3,8,1.1221389456954312
basic,28,12,0,0,0,27,"[0, 22, 16, 4, 12, 27]",6,3,"[14, 19, 24]",90.24741807,8860,625,2,1,8,1.2262878338287035
basic,28,12,0,0,0,14,"[0, 22, 16, 4, 12, 27, 14]",7,1,[24],61.59432051,10453,1593,1,0,8,1.2804562106751427
basic,28,12,0,0,1,24,"[0, 22, 16, 4, 12, 27, 14, 24]",8,0,[],44.38966997,11532,1079,1,0,8,1.4322660007679802
basic,28,12,0,1,1,24,"[0, 22, 16, 4, 12, 27, 14, 24]",8,0,[],44.38966997,12544,1012,1,0,8,1.4322660007679802
basic,29,7,0,0,0,0,[0],1,29,"[1, 2, 3, 4, 5, 6, 7, 8, 9, 10, 11, 12, 13, 14, 15, 16, 17, 18, 19, 20, 21, 22, 23, 24, 25, 26, 27, 28, 29]",300,164,-1,3,79,9,0.0
basic,29,7,0,0,0,15,"[0, 15]",2,19,"[2, 4, 5, 6, 7, 8, 9, 10, 13, 14, 16, 18, 19, 20, 21, 23, 25, 27, 28]",230.9348134,5704,5540,2,38,9,1.0
basic,29,7,0,0,0,6,"[0, 15, 6]",3,18,"[2, 4, 5, 7, 8, 9, 10, 13, 14, 16, 18, 19, 20, 21, 23, 25, 27, 28]",205.854941,7487,1783,2,36,9,1.366719602896943
basic,29,7,0,0,0,25,"[0, 15, 6, 25]",4,11,"[2, 4, 7, 13, 14, 16, 18, 19, 20, 21, 23]",138.6760753,8953,1466,2,28,9,1.3624631728355765
basic,29,7,0,0,0,4,"[0, 15, 6, 25, 4]",5,7,"[2, 7, 13, 16, 18, 19, 20]",113.9374415,9940,987,2,12,9,1.3249684384385587
basic,29,7,0,0,0,20,"[0, 15, 6, 25, 4, 20]",6,5,"[2, 7, 13, 18, 19]",94.29055881,10419,479,1,6,9,1.3721893242679268
basic,29,7,0,0,0,18,"[0, 15, 6, 25, 4, 20, 18]",7,3,"[7, 13, 19]",81.48431034,10948,529,1,2,9,1.5262542308371432
basic,29,7,0,0,0,7,"[0, 15, 6, 25, 4, 20, 18, 7]",8,1,[19],40.25325408,11702,754,1,0,9,1.41986878673423
basic,29,7,0,0,1,19,"[0, 15, 6, 25, 4, 20, 18, 7, 19]",9,0,[],10.84237174,12532,830,1,0,9,1.5285658163212987
basic,29,7,0,1,1,19,"[0, 15, 6, 25, 4, 20, 18, 7, 19]",9,0,[],10.84237174,13561,1029,1,0,9,1.5285658163212987
basic,30,11,0,0,0,0,[0],1,25,"[1, 2, 3, 4, 5, 6, 8, 9, 10, 11, 12, 13, 14, 15, 16, 17, 18, 19, 20, 22, 23, 25, 26, 27, 28]",300,170,-1,6,374,12,0.0
basic,30,11,0,0,0,18,"[0, 18]",2,21,"[1, 2, 4, 5, 6, 8, 9, 11, 12, 13, 14, 15, 16, 17, 19, 20, 22, 23, 25, 27, 28]",236.8493864,4304,4134,157,1477,11,1.0
basic,30,11,0,0,0,27,"[0, 18, 27]",3,19,"[1, 2, 4, 5, 6, 8, 9, 11, 12, 14, 15, 16, 17, 19, 20, 22, 23, 25, 28]",212.9956655,5446,1142,157,1315,11,1.060949579704323
basic,30,11,0,0,0,8,"[0, 18, 27, 8]",4,14,"[1, 2, 4, 5, 6, 11, 12, 15, 17, 19, 22, 23, 25, 28]",142.7817068,6867,1421,68,433,11,1.0827202875589923
basic,30,11,0,0,0,17,"[0, 18, 27, 8, 17]",5,13,"[1, 2, 4, 5, 6, 11, 12, 15, 19, 22, 23, 25, 28]",128.4638857,7488,621,42,137,11,1.1662918234607762
basic,30,11,0,0,0,15,"[0, 18, 27, 8, 17, 15]",6,9,"[2, 5, 6, 11, 12, 19, 22, 25, 28]",115.8147751,8209,721,38,57,11,1.1741312027420885
basic,30,11,0,0,0,11,"[0, 18, 27, 8, 17, 15, 11]",7,7,"[2, 5, 6, 12, 19, 22, 28]",97.70400479,9587,1378,24,0,11,1.1668679039564056
basic,30,11,0,0,0,5,"[0, 18, 27, 8, 17, 15, 11, 5]",8,3,"[2, 22, 28]",62.47617489,15884,6297,6,0,11,1.4599514427122162
basic,30,11,0,0,0,28,"[0, 18, 27, 8, 17, 15, 11, 5, 28]",9,2,"[2, 22]",44.58763107,16729,845,2,0,11,1.4780521291873887
basic,30,11,0,0,0,2,"[0, 18, 27, 8, 17, 15, 11, 5, 28, 2]",10,1,[22],33.95748525,17413,684,1,0,11,1.49053366829238
basic,30,11,0,0,1,22,"[0, 18, 27, 8, 17, 15, 11, 5, 28, 2, 22]",11,0,[],23.90760963,18110,697,1,0,11,1.4644184017269015
basic,30,11,0,1,1,22,"[0, 18, 27, 8, 17, 15, 11, 5, 28, 2, 22]",11,0,[],23.90760963,19360,1250,1,0,11,1.4644184017269015
basic,31,15,0,0,0,0,[0],1,25,"[1, 2, 3, 4, 7, 8, 9, 10, 11, 12, 13, 14, 15, 16, 18, 20, 21, 22, 23, 24, 25, 26, 27, 28, 29]",300,165,-1,4,65,9,0.0
basic,31,15,0,0,0,12,"[0, 12]",2,22,"[1, 2, 3, 4, 7, 8, 9, 10, 11, 13, 14, 15, 16, 18, 21, 22, 23, 24, 26, 27, 28, 29]",213.547701,5469,5304,4,35,9,1.0
basic,31,15,0,0,0,7,"[0, 12, 7]",3,16,"[1, 3, 4, 8, 9, 10, 11, 13, 14, 15, 16, 18, 21, 22, 24, 27]",180.3061607,8484,3015,4,29,9,1.411291635294361
basic,31,15,0,0,0,16,"[0, 12, 7, 16]",4,10,"[3, 4, 10, 11, 13, 14, 15, 18, 21, 22]",136.6484008,9671,1187,2,11,9,1.4308733430458784
basic,31,15,0,0,0,11,"[0, 12, 7, 16, 11]",5,7,"[3, 4, 13, 14, 15, 21, 22]",110.6291772,10844,1173,2,5,9,1.5251025438826007
basic,31,15,0,0,0,3,"[0, 12, 7, 16, 11, 3]",6,5,"[4, 13, 14, 15, 22]",99.22742292,11414,570,2,3,9,1.5166583878170454
basic,31,15,0,0,0,22,"[0, 12, 7, 16, 11, 3, 22]",7,2,"[13, 15]",49.49815588,12626,1212,2,0,9,1.4519711389669923
basic,31,15,0,0,0,15,"[0, 12, 7, 16, 11, 3, 22, 15]",8,1,[13],23.88565893,13270,644,1,0,9,1.4060225827822495
basic,31,15,0,0,1,13,"[0, 12, 7, 16, 11, 3, 22, 15, 13]",9,0,[],8.621321408,14111,841,1,0,9,1.4544229719836068
basic,31,15,0,1,1,13,"[0, 12, 7, 16, 11, 3, 22, 15, 13]",9,0,[],8.621321408,15095,984,1,0,9,1.4544229719836068
basic,32,8,0,0,0,0,[0],1,29,"[1, 2, 3, 4, 5, 6, 7, 8, 9, 10, 11, 12, 13, 14, 15, 16, 17, 18, 19, 20, 21, 22, 23, 24, 25, 26, 27, 28, 29]",300,164,-1,10,149,9,0.0
basic,32,8,0,0,0,5,"[0, 5]",2,28,"[1, 2, 3, 4, 6, 7, 8, 9, 10, 11, 12, 13, 14, 15, 16, 17, 18, 19, 20, 21, 22, 23, 24, 25, 26, 27, 28, 29]",254.5137383,24690,24526,10,100,9,1.0
basic,32,8,0,0,0,25,"[0, 5, 25]",3,20,"[1, 2, 3, 4, 6, 11, 12, 14, 15, 16, 17, 18, 19, 20, 21, 22, 23, 24, 28, 29]",215.3091468,26103,1413,4,42,9,1.2272747879909065
basic,32,8,0,0,0,1,"[0, 5, 25, 1]",4,17,"[3, 4, 6, 11, 12, 14, 15, 16, 17, 18, 20, 21, 22, 23, 24, 28, 29]",190.3091468,28637,2534,3,24,9,1.1770245007593956
basic,32,8,0,0,0,14,"[0, 5, 25, 1, 14]",5,12,"[4, 6, 11, 15, 16, 17, 18, 20, 22, 23, 24, 28]",134.2288472,30705,2068,2,7,9,1.9402045895737055
basic,32,8,0,0,0,17,"[0, 5, 25, 1, 14, 17]",6,6,"[11, 15, 16, 18, 24, 28]",97.21533615,31439,734,2,5,9,1.8565852053453542
basic,32,8,0,0,0,11,"[0, 5, 25, 1, 14, 17, 11]",7,4,"[15, 16, 24, 28]",72.03597953,32178,739,2,2,9,1.7412490760199053
basic,32,8,0,0,0,24,"[0, 5, 25, 1, 14, 17, 11, 24]",8,1,[15],34.8203914,32998,820,1,0,9,1.6105839855620734
basic,32,8,0,0,1,15,"[0, 5, 25, 1, 14, 17, 11, 24, 15]",9,0,[],18.05733678,33976,978,1,0,9,1.671962547892534
basic,32,8,0,1,1,15,"[0, 5, 25, 1, 14, 17, 11, 24, 15]",9,0,[],18.05733678,35089,1113,1,0,9,1.671962547892534
basic,33,32,0,0,0,0,[0],1,29,"[1, 2, 3, 4, 5, 6, 7, 8, 9, 10, 11, 12, 13, 14, 15, 16, 17, 18, 19, 20, 21, 22, 23, 24, 25, 26, 27, 28, 29]",300,169,-1,17,359,10,0.0
basic,33,32,0,0,0,15,"[0, 15]",2,24,"[2, 3, 4, 5, 6, 7, 8, 9, 10, 11, 12, 13, 14, 16, 17, 19, 20, 22, 23, 24, 25, 26, 27, 28]",214.6185032,11766,11597,11,153,9,1.0
basic,33,32,0,0,0,28,"[0, 15, 28]",3,21,"[2, 3, 5, 7, 8, 9, 10, 11, 12, 13, 14, 16, 17, 19, 20, 22, 23, 24, 25, 26, 27]",203.2167489,12388,622,11,119,9,1.000160051986942
basic,33,32,0,0,0,12,"[0, 15, 28, 12]",4,19,"[2, 3, 5, 7, 8, 9, 10, 11, 13, 16, 17, 19, 20, 22, 23, 24, 25, 26, 27]",184.243083,12948,560,8,71,9,1.0281484763748023
basic,33,32,0,0,0,16,"[0, 15, 28, 12, 16]",5,17,"[2, 3, 5, 7, 8, 9, 10, 11, 13, 17, 19, 20, 22, 23, 24, 26, 27]",168.5906071,13576,628,6,38,9,1.1190771370096
basic,33,32,0,0,0,22,"[0, 15, 28, 12, 16, 22]",6,10,"[2, 3, 5, 8, 9, 10, 11, 17, 20, 27]",134.7527585,14485,909,4,16,9,1.1702311155319893
basic,33,32,0,0,0,9,"[0, 15, 28, 12, 16, 22, 9]",7,6,"[2, 8, 10, 17, 20, 27]",112.5491552,15398,913,2,4,9,1.2381424719932013
basic,33,32,0,0,0,8,"[0, 15, 28, 12, 16, 22, 9, 8]",8,1,[20],67.42709849,22516,7118,1,0,9,1.187013645273504
basic,33,32,0,0,1,20,"[0, 15, 28, 12, 16, 22, 9, 8, 20]",9,0,[],17.09818036,24660,2144,1,0,9,1.3986201165175596
basic,33,32,0,1,1,20,"[0, 15, 28, 12, 16, 22, 9, 8, 20]",9,0,[],17.09818036,30324,5664,1,0,9,1.3986201165175596
basic,34,0,0,0,0,0,[0],1,27,"[2, 3, 4, 5, 6, 7, 8, 9, 10, 11, 12, 13, 14, 15, 16, 17, 19, 20, 21, 22, 23, 24, 25, 26, 27, 28, 29]",300,200,-1,104,1136,9,0.0
basic,34,0,0,0,0,28,"[0, 28]",2,26,"[2, 3, 4, 5, 6, 7, 8, 9, 10, 11, 12, 13, 14, 15, 16, 17, 19, 20, 21, 22, 23, 24, 25, 26, 27, 29]",194.9190788,7627,7427,39,388,9,1.0
basic,34,0,0,0,0,5,"[0, 28, 5]",3,21,"[2, 3, 4, 7, 8, 9, 11, 12, 13, 14, 15, 16, 17, 19, 20, 21, 23, 24, 25, 26, 29]",151.2613189,8453,826,27,210,9,1.0978295127671733
basic,34,0,0,0,0,26,"[0, 28, 5, 26]",4,15,"[3, 4, 7, 8, 9, 11, 12, 13, 14, 15, 17, 19, 20, 23, 24]",115.8212286,15776,7323,5,35,9,1.1400379746718978
basic,34,0,0,0,0,4,"[0, 28, 5, 26, 4]",5,12,"[3, 7, 8, 9, 11, 12, 15, 17, 19, 20, 23, 24]",103.779634,16518,742,4,17,9,1.2534780347343448
basic,34,0,0,0,0,24,"[0, 28, 5, 26, 4, 24]",6,9,"[3, 7, 8, 9, 11, 12, 15, 17, 19]",92.37787977,17129,611,4,12,9,1.2444963062448124
basic,34,0,0,0,0,15,"[0, 28, 5, 26, 4, 24, 15]",7,6,"[3, 7, 8, 9, 11, 17]",69.03264471,18005,876,3,4,9,1.2218613820858855
basic,34,0,0,0,0,7,"[0, 28, 5, 26, 4, 24, 15, 7]",8,2,"[3, 8]",37.96819558,18973,968,2,0,9,1.2781430976973103
basic,34,0,0,0,1,8,"[0, 28, 5, 26, 4, 24, 15, 7, 8]",9,0,[],18.8632224,22762,3789,1,0,9,1.263743502581705
basic,34,0,0,1,1,8,"[0, 28, 5, 26, 4, 24, 15, 7, 8]",9,0,[],18.8632224,23509,747,1,0,9,1.263743502581705
basic,35,19,0,0,0,0,[0],1,29,"[1, 2, 3, 4, 5, 6, 7, 8, 9, 10, 11, 12, 13, 14, 15, 16, 17, 18, 19, 20, 21, 22, 23, 24, 25, 26, 27, 28, 29]",300,169,-1,12,149,8,0.0
basic,35,19,0,0,0,29,"[0, 29]",2,28,"[1, 2, 3, 4, 5, 6, 7, 8, 9, 10, 11, 12, 13, 14, 15, 16, 17, 18, 19, 20, 21, 22, 23, 24, 25, 26, 27, 28]",265.0715016,18133,17964,12,120,8,1.0
basic,35,19,0,0,0,13,"[0, 29, 13]",3,16,"[1, 2, 3, 6, 7, 8, 9, 10, 12, 17, 18, 19, 21, 23, 25, 26]",155.7828929,28592,10459,13,26,7,1.0287584179832434
basic,35,19,0,0,0,1,"[0, 29, 13, 1]",4,10,"[2, 3, 8, 12, 17, 18, 19, 21, 23, 25]",121.7681902,31420,2828,10,8,7,1.332427648913806
basic,35,19,0,0,0,23,"[0, 29, 13, 1, 23]",5,3,"[3, 8, 19]",65.01433567,33592,2172,2,1,7,1.3068884384972357
basic,35,19,0,0,0,3,"[0, 29, 13, 1, 23, 3]",6,1,[8],43.08262347,34280,688,1,0,7,1.2748554446190374
basic,35,19,0,0,1,8,"[0, 29, 13, 1, 23, 3, 8]",7,0,[],19.75881589,36788,2508,1,0,7,1.2860378129025285
basic,35,19,0,1,1,8,"[0, 29, 13, 1, 23, 3, 8]",7,0,[],19.75881589,37822,1034,1,0,7,1.2860378129025285
basic,36,17,0,0,0,0,[0],1,28,"[1, 2, 3, 4, 5, 6, 7, 8, 9, 10, 11, 12, 13, 14, 15, 16, 17, 18, 19, 20, 22, 23, 24, 25, 26, 27, 28, 29]",300,167,-1,2,73,8,0.0
basic,36,17,0,0,0,9,"[0, 9]",2,25,"[1, 2, 3, 5, 6, 7, 8, 10, 11, 12, 14, 15, 16, 17, 18, 19, 20, 22, 23, 24, 25, 26, 27, 28, 29]",210.5293344,21736,21569,1,34,8,1.0
basic,36,17,0,0,0,16,"[0, 9, 16]",3,21,"[1, 2, 3, 5, 7, 8, 10, 11, 12, 14, 17, 18, 19, 20, 22, 23, 25, 26, 27, 28, 29]",197.1876704,22382,646,1,26,8,1.173103464220352
basic,36,17,0,0,0,2,"[0, 9, 16, 2]",4,18,"[1, 3, 5, 7, 8, 10, 11, 12, 14, 17, 18, 19, 23, 25, 26, 27, 28, 29]",181.0631549,22875,493,1,23,8,1.14825089247282
basic,36,17,0,0,0,10,"[0, 9, 16, 2, 10]",5,4,"[3, 11, 23, 28]",71.04042993,23927,1052,3,2,7,1.2629477265421833
basic,36,17,0,0,0,11,"[0, 9, 16, 2, 10, 11]",6,1,[3],49.08593153,24779,852,1,0,7,1.2370659942349713
basic,36,17,0,0,1,3,"[0, 9, 16, 2, 10, 11, 3]",7,0,[],22.91342687,25414,635,1,0,7,1.4627126127553682
basic,36,17,0,1,1,3,"[0, 9, 16, 2, 10, 11, 3]",7,0,[],22.91342687,27275,1861,1,0,7,1.4627126127553682
basic,37,29,0,0,0,0,[0],1,29,"[1, 2, 3, 4, 5, 6, 7, 8, 9, 10, 11, 12, 13, 14, 15, 16, 17, 18, 19, 20, 21, 22, 23, 24, 25, 26, 27, 28, 29]",300,164,-1,1,78,9,0.0
basic,37,29,0,0,0,28,"[0, 28]",2,28,"[1, 2, 3, 4, 5, 6, 7, 8, 9, 10, 11, 12, 13, 14, 15, 16, 17, 18, 19, 20, 21, 22, 23, 24, 25, 26, 27, 29]",202.9175608,9152,8988,7,62,8,1.0
basic,37,29,0,0,0,27,"[0, 28, 27]",3,23,"[1, 3, 4, 5, 6, 7, 9, 10, 11, 12, 13, 14, 15, 16, 17, 18, 21, 22, 23, 24, 25, 26, 29]",182.3992763,9965,813,7,51,8,1.0854577949107957
basic,37,29,0,0,0,22,"[0, 28, 27, 22]",4,18,"[1, 3, 4, 5, 6, 7, 9, 11, 12, 13, 14, 15, 16, 21, 23, 25, 26, 29]",149.157736,11787,1822,7,34,8,1.289627010733819
basic,37,29,0,0,0,12,"[0, 28, 27, 22, 12]",5,10,"[4, 5, 7, 9, 13, 14, 21, 23, 26, 29]",111.2104041,12847,1060,5,8,8,1.2228936795394132
basic,37,29,0,0,0,7,"[0, 28, 27, 22, 12, 7]",6,5,"[4, 5, 9, 13, 21]",97.60893357,13386,539,4,2,8,1.2307104129303603
basic,37,29,0,0,0,9,"[0, 28, 27, 22, 12, 7, 9]",7,2,"[4, 21]",68.54004986,14874,1488,2,0,8,1.2260294853044633
basic,37,29,0,0,1,4,"[0, 28, 27, 22, 12, 7, 9, 4]",8,0,[],27.5034808,15852,978,1,0,8,1.5501534531032373
basic,37,29,0,1,1,4,"[0, 28, 27, 22, 12, 7, 9, 4]",8,0,[],27.5034808,17394,1542,1,0,8,1.5501534531032373
basic,38,13,0,0,0,0,[0],1,29,"[1, 2, 3, 4, 5, 6, 7, 8, 9, 10, 11, 12, 13, 14, 15, 16, 17, 18, 19, 20, 21, 22, 23, 24, 25, 26, 27, 28, 29]",300,164,-1,60,2676,11,0.0
basic,38,13,0,0,0,24,"[0, 24]",2,28,"[1, 2, 3, 4, 5, 6, 7, 8, 9, 10, 11, 12, 13, 14, 15, 16, 17, 18, 19, 20, 21, 22, 23, 25, 26, 27, 28, 29]",288.8196601,8104,7940,16,1444,11,1.0
basic,38,13,0,0,0,28,"[0, 24, 28]",3,23,"[1, 2, 3, 4, 6, 7, 8, 9, 10, 11, 12, 13, 15, 16, 17, 19, 20, 21, 22, 23, 26, 27, 29]",222.5324064,9614,1510,8,243,11,1.0513810491680837
basic,38,13,0,0,0,2,"[0, 24, 28, 2]",4,19,"[1, 3, 4, 6, 7, 9, 11, 12, 13, 15, 16, 17, 19, 20, 21, 23, 26, 27, 29]",184.889346,10385,771,7,110,11,1.050374132001543
basic,38,13,0,0,0,29,"[0, 24, 28, 2, 29]",5,18,"[1, 3, 4, 6, 7, 9, 11, 12, 13, 15, 16, 17, 19, 20, 21, 23, 26, 27]",173.1846461,10884,499,7,85,11,1.1393409619120594
basic,38,13,0,0,0,7,"[0, 24, 28, 2, 29, 7]",6,17,"[1, 3, 4, 6, 9, 11, 12, 13, 15, 16, 17, 19, 20, 21, 23, 26, 27]",157.9203086,11435,551,5,45,11,1.349777315111579
basic,38,13,0,0,0,26,"[0, 24, 28, 2, 29, 7, 26]",7,16,"[1, 3, 4, 6, 9, 11, 12, 13, 15, 16, 17, 19, 20, 21, 23, 27]",147.480002,12033,598,5,25,11,1.5942082773824946
basic,38,13,0,0,0,6,"[0, 24, 28, 2, 29, 7, 26, 6]",8,12,"[1, 3, 4, 11, 13, 15, 16, 17, 19, 20, 23, 27]",127.3802508,13513,1480,4,12,11,1.5898347940840756
basic,38,13,0,0,0,11,"[0, 24, 28, 2, 29, 7, 26, 6, 11]",9,6,"[1, 13, 15, 16, 17, 23]",108.2752776,16051,2538,3,4,11,1.5029953945561012
basic,38,13,0,0,0,13,"[0, 24, 28, 2, 29, 7, 26, 6, 11, 13]",10,2,"[15, 17]",52.19497806,20482,4431,2,0,11,1.3655915863754327
basic,38,13,0,0,1,15,"[0, 24, 28, 2, 29, 7, 26, 6, 11, 13, 15]",11,0,[],12.38291958,23505,3023,1,0,11,1.3653085520078876
basic,38,13,0,1,1,15,"[0, 24, 28, 2, 29, 7, 26, 6, 11, 13, 15]",11,0,[],12.38291958,24175,670,1,0,11,1.3653085520078876
basic,39,16,0,0,0,0,[0],1,29,"[1, 2, 3, 4, 5, 6, 7, 8, 9, 10, 11, 12, 13, 14, 15, 16, 17, 18, 19, 20, 21, 22, 23, 24, 25, 26, 27, 28, 29]",300,197,-1,13,161,9,0.0
basic,39,16,0,0,0,17,"[0, 17]",2,27,"[1, 2, 3, 4, 5, 7, 8, 9, 10, 11, 12, 13, 14, 15, 16, 18, 19, 20, 21, 22, 23, 24, 25, 26, 27, 28, 29]",241.3058776,13625,13428,2,58,9,1.0
basic,39,16,0,0,0,16,"[0, 17, 16]",3,26,"[1, 2, 3, 4, 5, 7, 8, 9, 10, 11, 12, 13, 14, 15, 18, 19, 20, 21, 22, 23, 24, 25, 26, 27, 28, 29]",212.9862731,14192,567,2,52,9,1.0529535521792848
basic,39,16,0,0,0,8,"[0, 17, 16, 8]",4,19,"[2, 3, 4, 5, 9, 12, 13, 14, 15, 19, 20, 21, 22, 23, 25, 26, 27, 28, 29]",164.6127266,15068,876,2,38,9,1.0915134501573105
basic,39,16,0,0,0,20,"[0, 17, 16, 8, 20]",5,10,"[3, 4, 5, 9, 12, 13, 15, 19, 21, 25]",106.8372993,15984,916,1,15,9,1.067523143001942
basic,39,16,0,0,0,25,"[0, 17, 16, 8, 20, 25]",6,7,"[3, 4, 5, 9, 12, 13, 15]",94.18818869,16478,494,1,9,9,1.1170093326933646
basic,39,16,0,0,0,9,"[0, 17, 16, 8, 20, 25, 9]",7,5,"[3, 4, 5, 13, 15]",81.38194021,16983,505,1,4,9,1.1095076562662525
basic,39,16,0,0,0,15,"[0, 17, 16, 8, 20, 25, 9, 15]",8,1,[5],42.48463953,17841,858,1,0,9,1.213831159678775
basic,39,16,0,0,1,5,"[0, 17, 16, 8, 20, 25, 9, 15, 5]",9,0,[],13.0567616,19098,1257,1,0,9,1.5171779607523481
basic,39,16,0,1,1,5,"[0, 17, 16, 8, 20, 25, 9, 15, 5]",9,0,[],13.0567616,19876,778,1,0,9,1.5171779607523481
basic,40,34,0,0,0,0,[0],1,25,"[1, 3, 4, 5, 6, 7, 8, 9, 10, 11, 12, 13, 15, 18, 19, 20, 21, 22, 23, 24, 25, 26, 27, 28, 29]",300,181,-1,12,367,10,0.0
basic,40,34,0,0,0,13,"[0, 13]",2,24,"[1, 3, 4, 5, 6, 7, 8, 9, 10, 11, 12, 15, 18, 19, 20, 21, 22, 23, 24, 25, 26, 27, 28, 29]",279.9750156,6270,6089,12,331,10,1.0
basic,40,34,0,0,0,1,"[0, 13, 1]",3,16,"[3, 5, 7, 8, 9, 10, 11, 12, 19, 21, 22, 23, 24, 25, 27, 29]",211.8574701,7315,1045,3,92,10,1.0010381285747127
basic,40,34,0,0,0,8,"[0, 13, 1, 8]",4,14,"[3, 5, 7, 9, 10, 11, 12, 19, 22, 23, 24, 25, 27, 29]",201.0871405,7769,454,2,54,10,1.1636807
basic,40,34,0,0,0,25,"[0, 13, 1, 8, 25]",5,12,"[3, 5, 7, 9, 10, 11, 12, 22, 23, 24, 27, 29]",183.999133,8322,553,2,28,10,1.1396208815936457
basic,40,34,0,0,0,24,"[0, 13, 1, 8, 25, 24]",6,11,"[3, 5, 7, 9, 10, 11, 12, 22, 23, 27, 29]",166.5062774,9070,748,2,23,10,1.374180768736554
basic,40,34,0,0,0,12,"[0, 13, 1, 8, 25, 24, 12]",7,7,"[7, 9, 10, 11, 22, 23, 27]",115.4670767,11953,2883,1,8,10,1.4994254760835948
basic,40,34,0,0,0,7,"[0, 13, 1, 8, 25, 24, 12, 7]",8,5,"[9, 11, 22, 23, 27]",100.4337804,12819,866,1,4,10,1.758992610425009
basic,40,34,0,0,0,23,"[0, 13, 1, 8, 25, 24, 12, 7, 23]",9,1,[27],72.27352467,13528,709,1,0,10,2.399781305190153
basic,40,34,0,0,1,27,"[0, 13, 1, 8, 25, 24, 12, 7, 23, 27]",10,0,[],18.60789321,14734,1206,1,0,10,4.766619878750327
basic,40,34,0,1,1,27,"[0, 13, 1, 8, 25, 24, 12, 7, 23, 27]",10,0,[],18.60789321,15644,910,1,0,10,4.766619878750327
basic,41,36,0,0,0,0,[0],1,24,"[2, 4, 5, 6, 7, 8, 9, 10, 12, 13, 14, 15, 16, 17, 18, 19, 20, 22, 23, 25, 26, 27, 28, 29]",300,197,-1,2,200,10,0.0
basic,41,36,0,0,0,12,"[0, 12]",2,23,"[2, 4, 5, 6, 7, 8, 9, 10, 13, 14, 15, 16, 17, 18, 19, 20, 22, 23, 25, 26, 27, 28, 29]",277.7963967,9237,9040,90,804,9,1.0
basic,41,36,0,0,0,16,"[0, 12, 16]",3,10,"[2, 9, 10, 13, 17, 18, 19, 23, 25, 27]",171.6267212,10817,1580,4,38,9,1.202695220335868
basic,41,36,0,0,0,17,"[0, 12, 16, 17]",4,7,"[2, 9, 10, 13, 18, 19, 25]",143.3071167,11680,863,4,23,9,1.6578705047868705
basic,41,36,0,0,0,9,"[0, 12, 16, 17, 9]",5,5,"[2, 13, 18, 19, 25]",117.0583072,12556,876,3,6,9,2.6488264465469484
basic,41,36,0,0,0,19,"[0, 12, 16, 17, 9, 19]",6,4,"[2, 13, 18, 25]",101.9255612,13230,674,3,3,9,2.5697960541572393
basic,41,36,0,0,0,2,"[0, 12, 16, 17, 9, 19, 2]",7,2,"[13, 25]",64.80413882,14095,865,2,0,9,2.082684549483941
basic,41,36,0,0,0,25,"[0, 12, 16, 17, 9, 19, 2, 25]",8,1,[13],39.80413882,14951,856,1,0,9,2.272647961997219
basic,41,36,0,0,1,13,"[0, 12, 16, 17, 9, 19, 2, 25, 13]",9,0,[],19.21287854,16651,1700,1,0,9,2.86279103556024
basic,41,36,0,1,1,13,"[0, 12, 16, 17, 9, 19, 2, 25, 13]",9,0,[],19.21287854,17643,992,1,0,9,2.86279103556024
basic,42,24,0,0,0,0,[0],1,29,"[1, 2, 3, 4, 5, 6, 7, 8, 9, 10, 11, 12, 13, 14, 15, 16, 17, 18, 19, 20, 21, 22, 23, 24, 25, 26, 27, 28, 29]",300,168,-1,4,76,10,0.0
basic,42,24,0,0,0,16,"[0, 16]",2,28,"[1, 2, 3, 4, 5, 6, 7, 8, 9, 10, 11, 12, 13, 14, 15, 17, 18, 19, 20, 21, 22, 23, 24, 25, 26, 27, 28, 29]",210.3562607,5008,4840,13,110,9,1.0
basic,42,24,0,0,0,22,"[0, 16, 22]",3,27,"[1, 2, 3, 4, 5, 6, 7, 8, 9, 10, 11, 12, 13, 14, 15, 17, 18, 19, 20, 21, 23, 24, 25, 26, 27, 28, 29]",192.3285043,6782,1774,7,54,9,1.0217425143037777
basic,42,24,0,0,0,8,"[0, 16, 22, 8]",4,21,"[1, 2, 3, 4, 6, 9, 10, 11, 13, 14, 15, 17, 20, 21, 23, 24, 25, 26, 27, 28, 29]",178.9120964,8002,1220,4,28,9,1.0996636936037951
basic,42,24,0,0,0,15,"[0, 16, 22, 8, 15]",5,16,"[3, 4, 6, 9, 10, 11, 13, 14, 17, 23, 24, 25, 26, 27, 28, 29]",148.025206,9230,1228,3,17,9,1.2704773343758617
basic,42,24,0,0,0,28,"[0, 16, 22, 8, 15, 28]",6,8,"[3, 4, 9, 11, 13, 23, 26, 27]",102.7482803,10003,773,3,5,9,1.1981967578189556
basic,42,24,0,0,0,23,"[0, 16, 22, 8, 15, 28, 23]",7,3,"[9, 11, 27]",83.72198273,10603,600,3,1,9,1.2275650852813986
basic,42,24,0,0,0,11,"[0, 16, 22, 8, 15, 28, 23, 11]",8,2,"[9, 27]",56.79615869,13913,3310,2,0,9,1.2107937989822568
basic,42,24,0,0,1,9,"[0, 16, 22, 8, 15, 28, 23, 11, 9]",9,0,[],24.5471277,17929,4016,1,0,9,1.2976612913524237
basic,42,24,0,1,1,9,"[0, 16, 22, 8, 15, 28, 23, 11, 9]",9,0,[],24.5471277,19460,1531,1,0,9,1.2976612913524237
basic,43,6,0,0,0,0,[0],1,29,"[1, 2, 3, 4, 5, 6, 7, 8, 9, 10, 11, 12, 13, 14, 15, 16, 17, 18, 19, 20, 21, 22, 23, 24, 25, 26, 27, 28, 29]",300,164,-1,180,4304,10,0.0
basic,43,6,0,0,0,3,"[0, 3]",2,28,"[1, 2, 4, 5, 6, 7, 8, 9, 10, 11, 12, 13, 14, 15, 16, 17, 18, 19, 20, 21, 22, 23, 24, 25, 26, 27, 28, 29]",266.4738908,9727,9563,90,1607,10,1.0
basic,43,6,0,0,0,16,"[0, 3, 16]",3,27,"[1, 2, 4, 5, 6, 7, 8, 9, 10, 11, 12, 13, 14, 15, 17, 18, 19, 20, 21, 22, 23, 24, 25, 26, 27, 28, 29]",220.2353787,11589,1862,16,190,10,1.1050742161728249
basic,43,6,0,0,0,18,"[0, 3, 16, 18]",4,24,"[1, 2, 4, 5, 6, 7, 8, 9, 10, 11, 12, 13, 14, 15, 17, 19, 20, 21, 22, 23, 24, 26, 27, 29]",196.8901436,12202,613,10,97,10,1.6930577237270534
basic,43,6,0,0,0,17,"[0, 3, 16, 18, 17]",5,20,"[1, 2, 4, 5, 6, 7, 8, 9, 10, 11, 13, 14, 20, 21, 22, 23, 24, 26, 27, 29]",182.9617553,13233,1031,8,58,10,1.6583245453234965
basic,43,6,0,0,0,10,"[0, 3, 16, 18, 17, 10]",6,17,"[1, 2, 4, 5, 6, 7, 8, 11, 13, 14, 21, 22, 23, 24, 26, 27, 29]",163.2386724,14014,781,6,33,10,1.6214605156931816
basic,43,6,0,0,0,24,"[0, 3, 16, 18, 17, 10, 24]",7,15,"[1, 2, 4, 5, 6, 7, 8, 11, 13, 14, 22, 23, 26, 27, 29]",149.8222646,14675,661,6,18,10,1.5435556829623227
basic,43,6,0,0,0,7,"[0, 3, 16, 18, 17, 10, 24, 7]",8,2,"[2, 26]",78.88567316,18967,4292,2,0,10,4.604550406567428
basic,43,6,0,0,0,26,"[0, 3, 16, 18, 17, 10, 24, 7, 26]",9,1,[2],54.802484,19608,641,1,0,10,4.929651505560752
basic,43,6,0,0,1,2,"[0, 3, 16, 18, 17, 10, 24, 7, 26, 2]",10,0,[],24.96961622,20851,1243,1,0,10,3.4672592693333204
basic,43,6,0,1,1,2,"[0, 3, 16, 18, 17, 10, 24, 7, 26, 2]",10,0,[],24.96961622,21576,725,1,0,10,3.4672592693333204
basic,44,38,0,0,0,0,[0],1,29,"[1, 2, 3, 4, 5, 6, 7, 8, 9, 10, 11, 12, 13, 14, 15, 16, 17, 18, 19, 20, 21, 22, 23, 24, 25, 26, 27, 28, 29]",300,165,-1,33,506,9,0.0
basic,44,38,0,0,0,11,"[0, 11]",2,23,"[1, 2, 3, 4, 5, 7, 10, 12, 13, 14, 15, 16, 17, 18, 19, 20, 21, 22, 24, 25, 26, 27, 28]",220.093805,6970,6805,2,40,9,1.0
basic,44,38,0,0,0,28,"[0, 11, 28]",3,16,"[1, 4, 5, 7, 10, 12, 13, 14, 15, 16, 17, 19, 20, 21, 24, 26]",193.0752928,7818,848,2,20,9,1.0012220945316377
basic,44,38,0,0,0,16,"[0, 11, 28, 16]",4,13,"[1, 4, 5, 10, 12, 13, 14, 15, 17, 19, 20, 24, 26]",164.0752928,8904,1086,2,16,9,1.2422672958602723
basic,44,38,0,0,0,15,"[0, 11, 28, 16, 15]",5,9,"[4, 5, 13, 14, 17, 19, 20, 24, 26]",122.4579887,10329,1425,2,14,9,2.4196280466601676
basic,44,38,0,0,0,4,"[0, 11, 28, 16, 15, 4]",6,6,"[13, 17, 19, 20, 24, 26]",96.45798873,11298,969,2,9,9,2.9030072771852855
basic,44,38,0,0,0,13,"[0, 11, 28, 16, 15, 4, 13]",7,4,"[17, 20, 24, 26]",65.05735179,14267,2969,1,3,9,2.4036389956888207
basic,44,38,0,0,1,20,"[0, 11, 28, 16, 15, 4, 13, 20]",8,0,[],15.80291037,16101,1834,1,0,8,5.277407466777677
basic,44,38,0,1,1,20,"[0, 11, 28, 16, 15, 4, 13, 20]",8,0,[],15.80291037,17694,1593,1,0,8,5.277407466777677
basic,45,41,0,0,0,0,[0],1,29,"[1, 2, 3, 4, 5, 6, 7, 8, 9, 10, 11, 12, 13, 14, 15, 16, 17, 18, 19, 20, 21, 22, 23, 24, 25, 26, 27, 28, 29]",300,149,-1,1,143,10,0.0
basic,45,41,0,0,0,13,"[0, 13]",2,23,"[1, 2, 3, 5, 6, 7, 9, 10, 11, 12, 14, 15, 17, 18, 19, 20, 21, 22, 24, 25, 26, 27, 28]",258.2747079,5528,5379,1,55,10,1.0
basic,45,41,0,0,0,28,"[0, 13, 28]",3,22,"[1, 2, 3, 5, 6, 7, 9, 10, 11, 12, 14, 15, 17, 18, 19, 20, 21, 22, 24, 25, 26, 27]",223.7928286,6189,661,1,39,10,1.895724242592676
basic,45,41,0,0,0,5,"[0, 13, 28, 5]",4,19,"[1, 2, 3, 6, 9, 10, 11, 12, 14, 15, 17, 18, 19, 20, 21, 22, 24, 25, 27]",210.1913581,6562,373,1,34,10,2.861541269398273
basic,45,41,0,0,0,22,"[0, 13, 28, 5, 22]",5,12,"[2, 3, 6, 9, 10, 11, 12, 17, 18, 20, 21, 25]",155.4464953,7694,1132,11,12,9,2.096079268852861
basic,45,41,0,0,0,3,"[0, 13, 28, 5, 22, 3]",6,8,"[2, 9, 10, 12, 17, 18, 20, 21]",125.4798472,8718,1024,7,5,9,4.404491319005463
basic,45,41,0,0,0,21,"[0, 13, 28, 5, 22, 3, 21]",7,4,"[2, 9, 12, 17]",93.33952984,9826,1108,5,1,9,4.228139797553632
basic,45,41,0,0,0,9,"[0, 13, 28, 5, 22, 3, 21, 9]",8,2,"[2, 17]",43.97354965,12286,2460,2,0,9,3.111188754077749
basic,45,41,0,0,1,2,"[0, 13, 28, 5, 22, 3, 21, 9, 2]",9,0,[],31.89050368,12784,498,1,0,9,2.963304814480547
basic,45,41,0,1,1,2,"[0, 13, 28, 5, 22, 3, 21, 9, 2]",9,0,[],31.89050368,14378,1594,1,0,9,2.963304814480547
basic,46,35,0,0,0,0,[0],1,29,"[1, 2, 3, 4, 5, 6, 7, 8, 9, 10, 11, 12, 13, 14, 15, 16, 17, 18, 19, 20, 21, 22, 23, 24, 25, 26, 27, 28, 29]",300,166,-1,5,236,11,0.0
basic,46,35,0,0,0,27,"[0, 27]",2,27,"[1, 2, 4, 5, 6, 7, 8, 9, 10, 11, 12, 13, 14, 15, 16, 17, 18, 19, 20, 21, 22, 23, 24, 25, 26, 28, 29]",278.7867966,11795,11629,5,144,11,1.0
basic,46,35,0,0,0,24,"[0, 27, 24]",3,25,"[1, 2, 4, 5, 6, 7, 8, 9, 10, 11, 12, 13, 15, 16, 17, 18, 19, 20, 21, 22, 23, 25, 26, 28, 29]",234.6053525,13086,1291,3,80,11,2.1084080567904624
basic,46,35,0,0,0,17,"[0, 27, 24, 17]",4,20,"[1, 2, 4, 5, 6, 7, 8, 9, 10, 15, 16, 18, 19, 20, 21, 23, 25, 26, 28, 29]",222.9006526,13609,523,3,50,11,1.9439555968916868
basic,46,35,0,0,0,1,"[0, 27, 24, 17, 1]",5,18,"[2, 4, 5, 6, 8, 9, 10, 15, 16, 18, 19, 20, 21, 23, 25, 26, 28, 29]",207.0892643,14821,1212,3,39,11,1.9436711872547336
basic,46,35,0,0,0,15,"[0, 27, 24, 17, 1, 15]",6,16,"[2, 4, 5, 6, 8, 9, 10, 16, 18, 19, 20, 23, 25, 26, 28, 29]",184.241945,16788,1967,3,24,11,2.082774572108194
basic,46,35,0,0,0,23,"[0, 27, 24, 17, 1, 15, 23]",7,7,"[5, 6, 9, 18, 19, 25, 26]",123.801892,18718,1930,3,14,11,1.657239080954205
basic,46,35,0,0,0,9,"[0, 27, 24, 17, 1, 15, 23, 9]",8,4,"[6, 18, 19, 25]",86.15883157,19605,887,2,2,11,1.9022575917054987
basic,46,35,0,0,0,18,"[0, 27, 24, 17, 1, 15, 23, 9, 18]",9,2,"[6, 25]",66.13384718,20260,655,2,0,11,1.8181129550839106
basic,46,35,0,0,0,25,"[0, 27, 24, 17, 1, 15, 23, 9, 18, 25]",10,1,[6],32.29599855,21098,838,1,0,11,1.6530923432245144
basic,46,35,0,0,1,6,"[0, 27, 24, 17, 1, 15, 23, 9, 18, 25, 6]",11,0,[],8.275174247,22064,966,1,0,11,1.9291202388527962
basic,46,35,0,1,1,6,"[0, 27, 24, 17, 1, 15, 23, 9, 18, 25, 6]",11,0,[],8.275174247,22694,630,1,0,11,1.9291202388527962
basic,47,37,0,0,0,0,[0],1,29,"[1, 2, 3, 4, 5, 6, 7, 8, 9, 10, 11, 12, 13, 14, 15, 16, 17, 18, 19, 20, 21, 22, 23, 24, 25, 26, 27, 28, 29]",300,164,-1,6,168,10,0.0
basic,47,37,0,0,0,18,"[0, 18]",2,19,"[1, 2, 4, 6, 7, 9, 10, 12, 14, 15, 17, 19, 20, 21, 22, 23, 26, 28, 29]",202.4090168,7775,7611,6,89,10,1.0
basic,47,37,0,0,0,7,"[0, 18, 7]",3,12,"[1, 2, 4, 9, 15, 17, 19, 20, 21, 22, 26, 29]",175.2428614,8636,861,6,53,10,1.0413073512834488
basic,47,37,0,0,0,22,"[0, 18, 7, 22]",4,8,"[1, 2, 4, 15, 19, 20, 21, 26]",125.2428614,9653,1017,6,29,10,1.0730792320325544
basic,47,37,0,0,0,4,"[0, 18, 7, 22, 4]",5,7,"[1, 2, 15, 19, 20, 21, 26]",100.2428614,11038,1385,4,16,10,1.2290245562206235
basic,47,37,0,0,0,2,"[0, 18, 7, 22, 4, 2]",6,5,"[1, 15, 19, 20, 21]",88.84110714,12469,1431,4,7,10,1.3968113858365216
basic,47,37,0,0,0,1,"[0, 18, 7, 22, 4, 2, 1]",7,4,"[15, 19, 20, 21]",71.63645661,13646,1177,4,3,10,1.4424239294761476
basic,47,37,0,0,0,15,"[0, 18, 7, 22, 4, 2, 1, 15]",8,2,"[20, 21]",31.67397421,15322,1676,2,0,10,1.612564167414217
basic,47,37,0,0,0,21,"[0, 18, 7, 22, 4, 2, 1, 15, 21]",9,1,[20],16.67397421,16382,1060,1,0,10,1.8256316004901285
basic,47,37,0,0,1,20,"[0, 18, 7, 22, 4, 2, 1, 15, 21, 20]",10,0,[],2.251769103,17226,844,1,0,10,1.9863570569415172
basic,47,37,0,1,1,20,"[0, 18, 7, 22, 4, 2, 1, 15, 21, 20]",10,0,[],2.251769103,18010,784,1,0,10,1.9863570569415172
basic,48,33,0,0,0,0,[0],1,23,"[1, 2, 5, 7, 8, 11, 12, 13, 14, 15, 16, 17, 18, 19, 20, 21, 23, 24, 25, 26, 27, 28, 29]",300,165,-1,5,108,9,0.0
basic,48,33,0,0,0,21,"[0, 21]",2,17,"[2, 5, 7, 8, 11, 13, 14, 16, 17, 18, 19, 20, 24, 26, 27, 28, 29]",174.4611614,7698,7533,21,129,8,1.0
basic,48,33,0,0,0,13,"[0, 21, 13]",3,15,"[2, 5, 7, 8, 11, 14, 16, 17, 18, 19, 20, 24, 26, 28, 29]",148.0604038,9692,1994,17,72,8,1.0001005298764474
basic,48,33,0,0,0,19,"[0, 21, 13, 19]",4,11,"[7, 11, 14, 16, 17, 18, 20, 24, 26, 28, 29]",122.5653063,10368,676,10,27,8,1.0588446738393702
basic,48,33,0,0,0,24,"[0, 21, 13, 19, 24]",5,7,"[7, 14, 16, 18, 26, 28, 29]",80.51771417,11320,952,3,5,8,1.078006777679028
basic,48,33,0,0,0,7,"[0, 21, 13, 19, 24, 7]",6,3,"[14, 26, 29]",51.31155044,12063,743,3,1,8,1.1669985062633954
basic,48,33,0,0,0,14,"[0, 21, 13, 19, 24, 7, 14]",7,2,"[26, 29]",36.44548169,12694,631,2,0,8,1.2148465775488593
basic,48,33,0,0,1,26,"[0, 21, 13, 19, 24, 7, 14, 26]",8,0,[],23.79637105,13363,669,1,0,8,1.2208379656544521
basic,48,33,0,1,1,26,"[0, 21, 13, 19, 24, 7, 14, 26]",8,0,[],23.79637105,14994,1631,1,0,8,1.2208379656544521
basic,49,28,0,0,0,0,[0],1,27,"[1, 2, 3, 4, 5, 6, 7, 8, 9, 10, 11, 12, 13, 14, 15, 16, 17, 18, 19, 20, 22, 23, 25, 26, 27, 28, 29]",300,164,-1,2,96,9,0.0
basic,49,28,0,0,0,3,"[0, 3]",2,26,"[1, 2, 4, 5, 6, 7, 8, 9, 10, 11, 12, 13, 14, 15, 16, 17, 18, 19, 20, 22, 23, 25, 26, 27, 28, 29]",251.0817008,3685,3521,1,64,9,1.0
basic,49,28,0,0,0,5,"[0, 3, 5]",3,20,"[2, 4, 6, 7, 8, 9, 10, 11, 12, 13, 14, 15, 18, 19, 20, 23, 25, 26, 28, 29]",166.9865166,6147,2462,1,34,9,1.0203769473612083
basic,49,28,0,0,0,28,"[0, 3, 5, 28]",4,6,"[2, 4, 8, 9, 19, 26]",100.0761288,7898,1751,8,4,7,1.0823311089558794
basic,49,28,0,0,0,8,"[0, 3, 5, 28, 8]",5,4,"[2, 4, 9, 26]",82.27163495,8552,654,4,2,7,1.0795975941035891
basic,49,28,0,0,0,9,"[0, 3, 5, 28, 8, 9]",6,3,"[2, 4, 26]",67.138889,9308,756,3,0,7,1.131674521612193
basic,49,28,0,0,1,4,"[0, 3, 5, 28, 8, 9, 4]",7,0,[],44.11716013,13889,4581,1,0,7,1.1196899491715564
basic,49,28,0,1,1,4,"[0, 3, 5, 28, 8, 9, 4]",7,0,[],44.11716013,14577,688,1,0,7,1.1196899491715564
basic,50,39,0,0,0,0,[0],1,28,"[1, 2, 3, 4, 5, 6, 7, 9, 10, 11, 12, 13, 14, 15, 16, 17, 18, 19, 20, 21, 22, 23, 24, 25, 26, 27, 28, 29]",300,165,-1,1,30,10,0.0
basic,50,39,0,0,0,29,"[0, 29]",2,26,"[1, 2, 3, 4, 5, 6, 7, 9, 10, 12, 13, 14, 15, 16, 17, 18, 19, 20, 21, 22, 23, 24, 25, 26, 27, 28]",243.0614366,4670,4505,8,104,9,1.0
basic,50,39,0,0,0,12,"[0, 29, 12]",3,18,"[1, 2, 4, 5, 7, 9, 10, 13, 14, 15, 16, 18, 19, 22, 23, 24, 26, 28]",182.5221931,5566,896,5,54,9,1.0026200331524904
basic,50,39,0,0,0,10,"[0, 29, 12, 10]",4,16,"[1, 2, 4, 5, 7, 9, 13, 14, 15, 16, 18, 19, 22, 23, 24, 26]",147.0116313,6371,805,5,34,9,1.2874817019928908
basic,50,39,0,0,0,7,"[0, 29, 12, 10, 7]",5,10,"[1, 2, 5, 13, 16, 18, 19, 22, 24, 26]",113.5900814,7128,757,4,12,9,1.2250826263866774
basic,50,39,0,0,0,26,"[0, 29, 12, 10, 7, 26]",6,5,"[1, 16, 18, 19, 22]",94.90853971,7678,550,3,4,9,1.2697275353190085
basic,50,39,0,0,0,22,"[0, 29, 12, 10, 7, 26, 22]",7,2,"[16, 19]",77.18849457,8238,560,2,0,9,1.438961743955176
basic,50,39,0,0,0,16,"[0, 29, 12, 10, 7, 26, 22, 16]",8,1,[19],42.18849457,10705,2467,1,0,9,1.3580882130477205
basic,50,39,0,0,1,19,"[0, 29, 12, 10, 7, 26, 22, 16, 19]",9,0,[],24.72424537,11219,514,1,0,9,1.3646589157842668
basic,50,39,0,1,1,19,"[0, 29, 12, 10, 7, 26, 22, 16, 19]",9,0,[],24.72424537,12012,793,1,0,9,1.3646589157842668
basic,51,31,0,0,0,0,[0],1,27,"[1, 3, 4, 5, 6, 7, 8, 10, 11, 12, 13, 14, 15, 16, 17, 18, 19, 20, 21, 22, 23, 24, 25, 26, 27, 28, 29]",300,148,-1,2,87,10,0.0
basic,51,31,0,0,0,14,"[0, 14]",2,25,"[1, 3, 5, 6, 7, 8, 10, 11, 12, 13, 15, 16, 17, 18, 19, 20, 21, 22, 23, 24, 25, 26, 27, 28, 29]",263.861378,2588,2440,2,59,10,1.0
basic,51,31,0,0,0,27,"[0, 14, 27]",3,22,"[1, 3, 5, 6, 7, 8, 10, 11, 12, 13, 15, 16, 17, 18, 19, 20, 21, 22, 24, 25, 28, 29]",235.6833724,3739,1151,1,39,10,1.5881859159302467
basic,51,31,0,0,0,8,"[0, 14, 27, 8]",4,20,"[1, 3, 5, 6, 7, 10, 11, 12, 13, 16, 17, 18, 19, 20, 21, 22, 24, 25, 28, 29]",224.6380114,4339,600,1,36,10,2.1665048452331277
basic,51,31,0,0,0,18,"[0, 14, 27, 8, 18]",5,15,"[1, 5, 6, 7, 11, 12, 13, 16, 17, 19, 20, 22, 25, 28, 29]",188.7911147,6721,2382,1,26,10,1.7273375741920205
basic,51,31,0,0,0,11,"[0, 14, 27, 8, 18, 11]",6,11,"[1, 5, 7, 12, 16, 17, 19, 20, 22, 25, 28]",153.9055876,7736,1015,13,17,9,2.386348208737804
basic,51,31,0,0,0,5,"[0, 14, 27, 8, 18, 11, 5]",7,5,"[16, 17, 20, 25, 28]",110.2249283,9671,1935,3,3,9,2.163249612867222
basic,51,31,0,0,0,28,"[0, 14, 27, 8, 18, 11, 5, 28]",8,2,"[16, 17]",90.00117988,10194,523,2,0,9,1.9564635733184719
basic,51,31,0,0,1,16,"[0, 14, 27, 8, 18, 11, 5, 28, 16]",9,0,[],56.38570725,11030,836,1,0,9,1.824071502589619
basic,51,31,0,1,1,16,"[0, 14, 27, 8, 18, 11, 5, 28, 16]",9,0,[],56.38570725,12129,1099,1,0,9,1.824071502589619
basic,52,4,0,0,0,0,[0],1,26,"[3, 4, 5, 6, 7, 8, 10, 11, 12, 13, 14, 15, 16, 17, 18, 19, 20, 21, 22, 23, 24, 25, 26, 27, 28, 29]",300,150,-1,4,489,10,0.0
basic,52,4,0,0,0,28,"[0, 28]",2,21,"[3, 4, 5, 6, 10, 11, 12, 13, 14, 15, 16, 17, 19, 20, 21, 22, 23, 24, 25, 26, 27]",225.9392142,8955,8805,2,216,10,1.0
basic,52,4,0,0,0,14,"[0, 28, 14]",3,13,"[3, 4, 5, 6, 11, 13, 16, 17, 20, 21, 22, 24, 25]",159.6972335,11363,2408,1,26,10,1.0273973946789214
basic,52,4,0,0,0,25,"[0, 28, 14, 25]",4,12,"[3, 4, 5, 6, 11, 13, 16, 17, 20, 21, 22, 24]",143.572718,12177,814,1,25,10,1.233547772313525
basic,52,4,0,0,0,11,"[0, 28, 14, 25, 11]",5,10,"[3, 4, 5, 6, 13, 16, 17, 20, 21, 22]",124.7844238,13349,1172,1,15,10,1.425978575879479
basic,52,4,0,0,0,16,"[0, 28, 14, 25, 11, 16]",6,9,"[3, 4, 5, 6, 13, 17, 20, 21, 22]",109.7844238,14216,867,1,12,10,1.3799325158051412
basic,52,4,0,0,0,17,"[0, 28, 14, 25, 11, 16, 17]",7,5,"[3, 5, 20, 21, 22]",83.70761416,19018,4802,1,5,10,1.3195184878861832
basic,52,4,0,0,0,21,"[0, 28, 14, 25, 11, 16, 17, 21]",8,1,[22],34.45317274,19960,942,1,0,9,1.7966566629354186
basic,52,4,0,0,1,22,"[0, 28, 14, 25, 11, 16, 17, 21, 22]",9,0,[],23.40781172,20614,654,1,0,9,1.7433011729935863
basic,52,4,0,1,1,22,"[0, 28, 14, 25, 11, 16, 17, 21, 22]",9,0,[],23.40781172,21861,1247,1,0,9,1.7433011729935863
basic,53,26,0,0,0,0,[0],1,29,"[1, 2, 3, 4, 5, 6, 7, 8, 9, 10, 11, 12, 13, 14, 15, 16, 17, 18, 19, 20, 21, 22, 23, 24, 25, 26, 27, 28, 29]",300,171,-1,9,226,9,0.0
basic,53,26,0,0,0,12,"[0, 12]",2,26,"[1, 2, 3, 4, 5, 6, 8, 10, 11, 13, 14, 15, 16, 17, 18, 19, 20, 21, 22, 23, 24, 25, 26, 27, 28, 29]",279.8753882,4633,4462,2,80,9,1.0
basic,53,26,0,0,0,10,"[0, 12, 10]",3,6,"[4, 6, 14, 16, 17, 29]",112.9921955,9868,5235,10,32,7,1.1556689432007743
basic,53,26,0,0,0,6,"[0, 12, 10, 6]",4,5,"[4, 14, 16, 17, 29]",83.71763318,10611,743,7,10,7,1.346619593945461
basic,53,26,0,0,0,14,"[0, 12, 10, 6, 14]",5,4,"[4, 16, 17, 29]",62.69383714,11141,530,2,3,7,1.472560145471377
basic,53,26,0,0,0,17,"[0, 12, 10, 6, 14, 17]",6,2,"[4, 29]",40.22163209,11817,676,2,0,7,1.8282920884450673
basic,53,26,0,0,1,4,"[0, 12, 10, 6, 14, 17, 4]",7,0,[],19.12660898,12318,501,1,0,7,2.3173930475058775
basic,53,26,0,1,1,4,"[0, 12, 10, 6, 14, 17, 4]",7,0,[],19.12660898,13628,1310,1,0,7,2.3173930475058775
basic,54,14,0,0,0,0,[0],1,29,"[1, 2, 3, 4, 5, 6, 7, 8, 9, 10, 11, 12, 13, 14, 15, 16, 17, 18, 19, 20, 21, 22, 23, 24, 25, 26, 27, 28, 29]",300,164,-1,8,157,10,0.0
basic,54,14,0,0,0,15,"[0, 15]",2,20,"[1, 2, 3, 4, 7, 8, 9, 13, 17, 18, 19, 20, 21, 22, 23, 25, 26, 27, 28, 29]",216.7053423,3889,3725,8,102,10,1.0
basic,54,14,0,0,0,28,"[0, 15, 28]",3,17,"[1, 2, 3, 4, 7, 8, 9, 13, 17, 18, 19, 20, 22, 23, 25, 26, 27]",197.4959696,4515,626,8,48,10,1.0446007867311968
basic,54,14,0,0,0,17,"[0, 15, 28, 17]",4,14,"[1, 2, 3, 4, 7, 8, 13, 18, 19, 20, 22, 23, 25, 26]",184.0423455,5216,701,8,39,10,1.0729463354689972
basic,54,14,0,0,0,18,"[0, 15, 28, 17, 18]",5,9,"[1, 2, 4, 7, 8, 19, 23, 25, 26]",119.412631,6370,1154,8,27,10,1.5035901079219378
basic,54,14,0,0,0,8,"[0, 15, 28, 17, 18, 8]",6,8,"[1, 2, 4, 7, 19, 23, 25, 26]",105.8111605,7536,1166,8,18,10,1.4819689987843856
basic,54,14,0,0,0,1,"[0, 15, 28, 17, 18, 8, 1]",7,5,"[7, 19, 23, 25, 26]",82.21031307,9052,1516,4,6,10,1.4084991998385268
basic,54,14,0,0,0,19,"[0, 15, 28, 17, 18, 8, 1, 19]",8,4,"[7, 23, 25, 26]",66.97876686,11017,1965,4,1,10,1.5758713333797987
basic,54,14,0,0,0,26,"[0, 15, 28, 17, 18, 8, 1, 19, 26]",9,1,[23],13.75283333,16486,5469,1,0,10,1.4427883209195413
basic,54,14,0,0,1,23,"[0, 15, 28, 17, 18, 8, 1, 19, 26, 23]",10,0,[],2.936179503,17276,790,1,0,10,1.5803726510701064
basic,54,14,0,1,1,23,"[0, 15, 28, 17, 18, 8, 1, 19, 26, 23]",10,0,[],2.936179503,18260,984,1,0,10,1.5803726510701064
basic,55,43,0,0,0,0,[0],1,23,"[1, 2, 3, 4, 5, 6, 7, 9, 10, 11, 12, 14, 15, 16, 17, 19, 20, 21, 22, 23, 25, 27, 29]",300,158,-1,16,556,12,0.0
basic,55,43,0,0,0,29,"[0, 29]",2,22,"[1, 2, 3, 4, 5, 6, 7, 9, 10, 11, 12, 14, 15, 16, 17, 19, 20, 21, 22, 23, 25, 27]",277.909278,4485,4327,16,520,12,1.0
basic,55,43,0,0,0,20,"[0, 29, 20]",3,20,"[1, 2, 3, 4, 6, 7, 9, 10, 11, 12, 14, 15, 16, 17, 19, 21, 22, 23, 25, 27]",254.4785289,5354,869,15,422,12,1.082311746871282
basic,55,43,0,0,0,16,"[0, 29, 20, 16]",4,19,"[1, 2, 3, 4, 6, 7, 9, 10, 11, 12, 14, 15, 17, 19, 21, 22, 23, 25, 27]",231.8511119,6445,1091,15,389,12,1.215201926898219
basic,55,43,0,0,0,15,"[0, 29, 20, 16, 15]",5,14,"[1, 2, 3, 4, 6, 7, 9, 11, 12, 14, 19, 22, 23, 25]",188.5267539,14527,8082,3,109,12,1.3482474915350444
basic,55,43,0,0,0,12,"[0, 29, 20, 16, 15, 12]",6,13,"[1, 2, 3, 4, 6, 7, 9, 11, 14, 19, 22, 23, 25]",169.213546,15235,708,1,49,12,1.3229664037236823
basic,55,43,0,0,0,3,"[0, 29, 20, 16, 15, 12, 3]",7,11,"[1, 4, 6, 7, 9, 11, 14, 19, 22, 23, 25]",156.213546,15856,621,1,35,12,1.2907201281243643
basic,55,43,0,0,0,22,"[0, 29, 20, 16, 15, 12, 3, 22]",8,9,"[1, 4, 6, 7, 11, 14, 19, 23, 25]",121.5004361,17202,1346,1,18,12,1.4966181986440266
basic,55,43,0,0,0,11,"[0, 29, 20, 16, 15, 12, 3, 22, 11]",9,5,"[1, 6, 14, 19, 25]",75.43526484,20696,3494,3,3,11,2.4677443424175824
basic,55,43,0,0,0,6,"[0, 29, 20, 16, 15, 12, 3, 22, 11, 6]",10,2,"[1, 14]",54.81973671,23057,2361,2,0,11,2.2230401236218453
basic,55,43,0,0,1,14,"[0, 29, 20, 16, 15, 12, 3, 22, 11, 6, 14]",11,0,[],26.35923777,23974,917,1,0,11,2.206063084933855
basic,55,43,0,1,1,14,"[0, 29, 20, 16, 15, 12, 3, 22, 11, 6, 14]",11,0,[],26.35923777,24959,985,1,0,11,2.206063084933855
basic,56,23,0,0,0,0,[0],1,28,"[1, 2, 3, 4, 5, 6, 7, 8, 9, 10, 11, 12, 13, 14, 15, 16, 17, 18, 19, 20, 21, 22, 23, 25, 26, 27, 28, 29]",300,173,-1,76,2626,10,0.0
basic,56,23,0,0,0,22,"[0, 22]",2,24,"[1, 2, 3, 5, 6, 7, 8, 9, 10, 11, 12, 13, 14, 15, 17, 18, 19, 20, 21, 23, 25, 26, 27, 29]",210.5013967,5805,5632,15,1362,10,1.0
basic,56,23,0,0,0,13,"[0, 22, 13]",3,14,"[1, 2, 5, 6, 7, 8, 9, 10, 12, 14, 18, 21, 27, 29]",168.3113504,9969,4164,14,522,10,1.1898173563652046
basic,56,23,0,0,0,12,"[0, 22, 13, 12]",4,11,"[1, 2, 6, 7, 9, 10, 14, 18, 21, 27, 29]",156.2283045,10753,784,12,166,10,1.1727968780218219
basic,56,23,0,0,0,9,"[0, 22, 13, 12, 9]",5,10,"[1, 2, 6, 7, 10, 14, 18, 21, 27, 29]",141.9104834,14193,3440,5,49,10,1.2100380646101494
basic,56,23,0,0,0,14,"[0, 22, 13, 12, 9, 14]",6,8,"[1, 2, 6, 7, 10, 18, 27, 29]",131.4701769,14856,663,2,19,10,1.1961799245073135
basic,56,23,0,0,0,2,"[0, 22, 13, 12, 9, 14, 2]",7,6,"[6, 7, 10, 18, 27, 29]",116.6041081,15477,621,1,8,10,1.343965446549325
basic,56,23,0,0,0,6,"[0, 22, 13, 12, 9, 14, 2, 6]",8,3,"[18, 27, 29]",98.16501923,16393,916,3,0,9,1.3433890277057379
basic,56,23,0,0,1,27,"[0, 22, 13, 12, 9, 14, 2, 6, 27]",9,0,[],69.86307584,17301,908,1,0,9,1.607346000085698
basic,56,23,0,1,1,27,"[0, 22, 13, 12, 9, 14, 2, 6, 27]",9,0,[],69.86307584,19493,2192,1,0,9,1.607346000085698
basic,57,18,0,0,0,0,[0],1,28,"[1, 2, 3, 4, 5, 6, 7, 8, 9, 10, 11, 12, 13, 14, 16, 17, 18, 19, 20, 21, 22, 23, 24, 25, 26, 27, 28, 29]",300,164,-1,3,136,10,0.0
basic,57,18,0,0,0,26,"[0, 26]",2,27,"[1, 2, 3, 4, 5, 6, 7, 8, 9, 10, 11, 12, 13, 14, 16, 17, 18, 19, 20, 21, 22, 23, 24, 25, 27, 28, 29]",258.0238163,7602,7438,1,61,10,1.0
basic,57,18,0,0,0,23,"[0, 26, 23]",3,24,"[1, 2, 3, 4, 5, 6, 7, 8, 9, 10, 12, 13, 14, 16, 17, 18, 19, 20, 21, 24, 25, 27, 28, 29]",239.422741,8248,646,1,60,10,1.576763070488403
basic,57,18,0,0,0,28,"[0, 26, 23, 28]",4,8,"[1, 3, 7, 8, 9, 13, 14, 25]",149.3727549,9318,1070,7,25,9,2.3695130664004544
basic,57,18,0,0,0,7,"[0, 26, 23, 28, 7]",5,6,"[1, 3, 8, 13, 14, 25]",127.3500394,9931,613,7,17,9,2.8936199139679126
basic,57,18,0,0,0,25,"[0, 26, 23, 28, 7, 25]",6,4,"[3, 8, 13, 14]",99.54716183,10585,654,7,6,9,3.3404167216138276
basic,57,18,0,0,0,8,"[0, 26, 23, 28, 7, 25, 8]",7,3,"[3, 13, 14]",62.4931472,11468,883,4,0,9,2.510805996266872
basic,57,18,0,0,0,13,"[0, 26, 23, 28, 7, 25, 8, 13]",8,2,"[3, 14]",41.39812409,12069,601,2,0,9,2.750928124761419
basic,57,18,0,0,1,14,"[0, 26, 23, 28, 7, 25, 8, 13, 14]",9,0,[],22.42445813,12716,647,1,0,9,2.4758870779364446
basic,57,18,0,1,1,14,"[0, 26, 23, 28, 7, 25, 8, 13, 14]",9,0,[],22.42445813,13828,1112,1,0,9,2.4758870779364446
basic,58,44,0,0,0,0,[0],1,29,"[1, 2, 3, 4, 5, 6, 7, 8, 9, 10, 11, 12, 13, 14, 15, 16, 17, 18, 19, 20, 21, 22, 23, 24, 25, 26, 27, 28, 29]",300,166,-1,13,126,7,0.0
basic,58,44,0,0,0,11,"[0, 11]",2,18,"[4, 5, 6, 7, 8, 9, 12, 14, 16, 17, 19, 20, 22, 23, 24, 25, 26, 28]",152.7790776,13126,12960,5,34,7,1.0
basic,58,44,0,0,0,24,"[0, 11, 24]",3,13,"[4, 5, 7, 8, 9, 12, 14, 17, 20, 22, 23, 25, 28]",125.8532535,14825,1699,5,23,7,1.1588941745226709
basic,58,44,0,0,0,9,"[0, 11, 24, 9]",4,7,"[4, 7, 8, 12, 14, 20, 23]",93.09657483,16576,1751,2,8,7,1.3039383713641313
basic,58,44,0,0,0,4,"[0, 11, 24, 9, 4]",5,5,"[7, 12, 14, 20, 23]",73.39885923,17189,613,2,3,7,1.2901330701441578
basic,58,44,0,0,0,7,"[0, 11, 24, 9, 4, 7]",6,1,[23],42.38273439,17850,661,1,0,7,1.2468141312360979
basic,58,44,0,0,1,23,"[0, 11, 24, 9, 4, 7, 23]",7,0,[],23.27776121,18492,642,1,0,7,1.2635191782769477
basic,58,44,0,1,1,23,"[0, 11, 24, 9, 4, 7, 23]",7,0,[],23.27776121,19143,651,1,0,7,1.2635191782769477
basic,59,20,0,0,0,0,[0],1,21,"[1, 2, 3, 4, 5, 6, 7, 8, 9, 12, 17, 18, 20, 21, 22, 23, 25, 26, 27, 28, 29]",300,149,-1,1,9,9,0.0
basic,59,20,0,0,0,12,"[0, 12]",2,20,"[1, 2, 3, 4, 5, 6, 7, 8, 9, 17, 18, 20, 21, 22, 23, 25, 26, 27, 28, 29]",271.5570747,5860,5711,1,8,9,1.0
basic,59,20,0,0,0,1,"[0, 12, 1]",3,12,"[3, 4, 5, 6, 8, 9, 20, 21, 23, 27, 28, 29]",189.5692707,6907,1047,1,6,9,1.0757997779162911
basic,59,20,0,0,0,5,"[0, 12, 1, 5]",4,10,"[4, 6, 8, 9, 20, 21, 23, 27, 28, 29]",152.8950291,7933,1026,1,5,9,1.1708231454516806
basic,59,20,0,0,0,21,"[0, 12, 1, 5, 21]",5,8,"[4, 6, 8, 9, 20, 23, 27, 28]",107.8950291,17440,9507,1,4,9,1.126197336199212
basic,59,20,0,0,0,8,"[0, 12, 1, 5, 21, 8]",6,5,"[6, 9, 23, 27, 28]",90.43077988,17933,493,1,3,9,1.140007470699913
basic,59,20,0,0,0,23,"[0, 12, 1, 5, 21, 8, 23]",7,2,"[6, 9]",45.74297394,19434,1501,1,1,9,1.1162257896627588
basic,59,20,0,0,0,9,"[0, 12, 1, 5, 21, 8, 23, 9]",8,1,[6],26.53360123,20200,766,1,0,9,1.1086880559449597
basic,59,20,0,0,1,6,"[0, 12, 1, 5, 21, 8, 23, 9, 6]",9,0,[],3.511872362,20997,797,1,0,9,1.1186240265999328
basic,59,20,0,1,1,6,"[0, 12, 1, 5, 21, 8, 23, 9, 6]",9,0,[],3.511872362,21826,829,1,0,9,1.1186240265999328
