condition,trial_id,map_id,undoIndicator,submit,checkEnd,currentChoice,chosen_all,n_city_all,n_within_reach,cities_reach,currentBudget,time_all,rt_all,n_opt_paths_all,n_subopt_paths_all,mas_all,tortuosity_all
undo,0,38,0,0,0,0,[0],1,29,"[1, 2, 3, 4, 5, 6, 7, 8, 9, 10, 11, 12, 13, 14, 15, 16, 17, 18, 19, 20, 21, 22, 23, 24, 25, 26, 27, 28, 29]",300,133,-1,33,506,9,0.0
undo,0,38,0,0,0,11,"[0, 11]",2,23,"[1, 2, 3, 4, 5, 7, 10, 12, 13, 14, 15, 16, 17, 18, 19, 20, 21, 22, 24, 25, 26, 27, 28]",220.093805,5658,5525,2,40,9,1.0
undo,0,38,0,0,0,15,"[0, 11, 15]",3,19,"[1, 3, 4, 5, 7, 10, 12, 13, 14, 16, 17, 18, 19, 20, 22, 24, 26, 27, 28]",183.6932555,6215,557,11,93,8,1.5850843355177096
undo,0,38,0,0,0,4,"[0, 11, 15, 4]",4,15,"[3, 5, 12, 13, 14, 16, 17, 18, 19, 20, 22, 24, 26, 27, 28]",157.6932555,7360,1145,8,37,8,2.02964249148567
undo,0,38,0,0,0,20,"[0, 11, 15, 4, 20]",5,10,"[3, 5, 13, 16, 17, 19, 24, 26, 27, 28]",123.7521301,8794,1434,5,11,8,3.2728407804065545
undo,0,38,0,0,0,17,"[0, 11, 15, 4, 20, 17]",6,5,"[3, 13, 19, 26, 27]",99.9824014,9375,581,4,3,8,3.0859711958770903
undo,0,38,0,0,0,19,"[0, 11, 15, 4, 20, 17, 19]",7,3,"[3, 13, 27]",78.60484308,9823,448,3,0,8,2.750303448679739
undo,0,38,0,0,1,27,"[0, 11, 15, 4, 20, 17, 19, 27]",8,0,[],12.74893977,10813,990,1,0,8,1.9802884394141596
undo,0,38,0,1,1,27,"[0, 11, 15, 4, 20, 17, 19, 27]",8,0,[],12.74893977,11395,582,1,0,8,1.9802884394141596
undo,1,16,0,0,0,0,[0],1,29,"[1, 2, 3, 4, 5, 6, 7, 8, 9, 10, 11, 12, 13, 14, 15, 16, 17, 18, 19, 20, 21, 22, 23, 24, 25, 26, 27, 28, 29]",300,114,-1,13,161,9,0.0
undo,1,16,0,0,0,17,"[0, 17]",2,27,"[1, 2, 3, 4, 5, 7, 8, 9, 10, 11, 12, 13, 14, 15, 16, 18, 19, 20, 21, 22, 23, 24, 25, 26, 27, 28, 29]",241.3058776,1692,1578,2,58,9,1.0
undo,1,16,0,0,0,16,"[0, 17, 16]",3,26,"[1, 2, 3, 4, 5, 7, 8, 9, 10, 11, 12, 13, 14, 15, 18, 19, 20, 21, 22, 23, 24, 25, 26, 27, 28, 29]",212.9862731,2780,1088,2,52,9,1.0529535521792848
undo,1,16,0,0,0,21,"[0, 17, 16, 21]",4,19,"[3, 5, 7, 8, 9, 10, 12, 14, 15, 19, 20, 22, 23, 24, 25, 26, 27, 28, 29]",168.332046,3665,885,9,18,8,1.5524765786046826
undo,1,16,0,0,0,8,"[0, 17, 16, 21, 8]",5,7,"[3, 5, 9, 12, 15, 20, 25]",119.0776046,4362,697,9,6,8,1.458624751458944
undo,1,16,0,0,0,20,"[0, 17, 16, 21, 8, 20]",6,3,"[9, 15, 25]",61.30217727,4955,593,4,1,8,1.3191752290945782
undo,1,16,0,0,0,25,"[0, 17, 16, 21, 8, 20, 25]",7,2,"[9, 15]",48.65306663,5276,321,2,0,8,1.3641436248537882
undo,1,16,0,0,1,9,"[0, 17, 16, 21, 8, 20, 25, 9]",8,0,[],35.84681815,5643,367,1,0,8,1.3406027753205443
undo,1,16,0,1,1,9,"[0, 17, 16, 21, 8, 20, 25, 9]",8,0,[],35.84681815,7155,1512,1,0,8,1.3406027753205443
undo,2,4,0,0,0,0,[0],1,26,"[3, 4, 5, 6, 7, 8, 10, 11, 12, 13, 14, 15, 16, 17, 18, 19, 20, 21, 22, 23, 24, 25, 26, 27, 28, 29]",300,132,-1,4,489,10,0.0
undo,2,4,0,0,0,13,"[0, 13]",2,23,"[3, 4, 5, 6, 7, 10, 11, 12, 14, 15, 16, 17, 19, 20, 21, 22, 23, 24, 25, 26, 27, 28, 29]",232.1030192,1155,1023,2,270,10,1.0
undo,2,4,0,0,0,28,"[0, 13, 28]",3,19,"[3, 4, 5, 6, 10, 11, 12, 14, 15, 16, 17, 19, 20, 21, 22, 23, 24, 25, 26]",200.5277124,1629,474,2,221,10,1.3431168257921573
undo,2,4,0,0,0,14,"[0, 13, 28, 14]",4,11,"[3, 4, 5, 6, 11, 16, 17, 20, 21, 22, 25]",134.2857318,3292,1663,28,123,9,1.2134786195381546
undo,2,4,0,0,0,25,"[0, 13, 28, 14, 25]",5,10,"[3, 4, 5, 6, 11, 16, 17, 20, 21, 22]",118.1612163,3722,430,22,51,9,1.4339367384350254
undo,2,4,0,0,0,11,"[0, 13, 28, 14, 25, 11]",6,9,"[3, 4, 5, 6, 16, 17, 20, 21, 22]",99.37292203,4211,489,11,18,9,1.632788140935394
undo,2,4,0,0,0,16,"[0, 13, 28, 14, 25, 11, 16]",7,6,"[3, 5, 17, 20, 21, 22]",84.37292203,4611,400,9,2,9,1.5642820747024264
undo,2,4,0,0,0,17,"[0, 13, 28, 14, 25, 11, 16, 17]",8,4,"[3, 20, 21, 22]",58.29611241,5334,723,4,0,9,1.4745445015567764
undo,2,4,0,0,1,3,"[0, 13, 28, 14, 25, 11, 16, 17, 3]",9,0,[],33.78081107,5765,431,1,0,9,1.5263697522111268
undo,2,4,0,1,1,3,"[0, 13, 28, 14, 25, 11, 16, 17, 3]",9,0,[],33.78081107,6622,857,1,0,9,1.5263697522111268
undo,3,21,0,0,0,0,[0],1,29,"[1, 2, 3, 4, 5, 6, 7, 8, 9, 10, 11, 12, 13, 14, 15, 16, 17, 18, 19, 20, 21, 22, 23, 24, 25, 26, 27, 28, 29]",300,115,-1,84,830,9,0.0
undo,3,21,0,0,0,25,"[0, 25]",2,26,"[1, 2, 3, 4, 5, 6, 7, 8, 9, 10, 11, 12, 13, 14, 15, 16, 17, 18, 20, 21, 22, 23, 24, 26, 27, 29]",240.1836143,2850,2735,30,238,9,1.0
undo,3,21,0,0,0,23,"[0, 25, 23]",3,21,"[1, 2, 4, 6, 7, 8, 9, 10, 11, 12, 14, 15, 16, 17, 18, 20, 21, 22, 24, 27, 29]",196.8592562,3384,534,14,80,9,1.0416131642057598
undo,3,21,0,0,0,21,"[0, 25, 23, 21]",4,14,"[1, 4, 6, 8, 9, 14, 15, 16, 17, 18, 20, 22, 24, 29]",167.2450705,3871,487,10,25,9,1.4768792067751173
undo,3,21,0,0,0,14,"[0, 25, 23, 21, 14]",5,10,"[4, 8, 9, 15, 16, 17, 18, 22, 24, 29]",141.6325735,4378,507,8,13,9,1.3826076066332742
undo,3,21,0,0,0,4,"[0, 25, 23, 21, 14, 4]",6,7,"[8, 15, 16, 17, 18, 24, 29]",127.4904379,4748,370,8,3,9,1.3487191473328533
undo,3,21,0,0,0,16,"[0, 25, 23, 21, 14, 4, 16]",7,3,"[8, 15, 24]",82.89223163,5333,585,4,1,9,1.3301484172843694
undo,3,21,0,0,0,8,"[0, 25, 23, 21, 14, 4, 16, 8]",8,2,"[15, 24]",64.2911564,5724,391,2,0,9,1.3009886562393016
undo,3,21,0,0,1,15,"[0, 25, 23, 21, 14, 4, 16, 8, 15]",9,0,[],39.2911564,6649,925,1,0,9,1.5486591410600183
undo,3,21,0,1,1,15,"[0, 25, 23, 21, 14, 4, 16, 8, 15]",9,0,[],39.2911564,7473,824,1,0,9,1.5486591410600183
undo,4,44,0,0,0,0,[0],1,29,"[1, 2, 3, 4, 5, 6, 7, 8, 9, 10, 11, 12, 13, 14, 15, 16, 17, 18, 19, 20, 21, 22, 23, 24, 25, 26, 27, 28, 29]",300,132,-1,13,126,7,0.0
undo,4,44,0,0,0,11,"[0, 11]",2,18,"[4, 5, 6, 7, 8, 9, 12, 14, 16, 17, 19, 20, 22, 23, 24, 25, 26, 28]",152.7790776,3599,3467,5,34,7,1.0
undo,4,44,0,0,0,24,"[0, 11, 24]",3,13,"[4, 5, 7, 8, 9, 12, 14, 17, 20, 22, 23, 25, 28]",125.8532535,4026,427,5,23,7,1.1588941745226709
undo,4,44,0,0,0,9,"[0, 11, 24, 9]",4,7,"[4, 7, 8, 12, 14, 20, 23]",93.09657483,4535,509,2,8,7,1.3039383713641313
undo,4,44,0,0,0,4,"[0, 11, 24, 9, 4]",5,5,"[7, 12, 14, 20, 23]",73.39885923,4868,333,2,3,7,1.2901330701441578
undo,4,44,0,0,0,7,"[0, 11, 24, 9, 4, 7]",6,1,[23],42.38273439,5973,1105,1,0,7,1.2468141312360979
undo,4,44,0,0,1,23,"[0, 11, 24, 9, 4, 7, 23]",7,0,[],23.27776121,6344,371,1,0,7,1.2635191782769477
undo,4,44,0,1,1,23,"[0, 11, 24, 9, 4, 7, 23]",7,0,[],23.27776121,7089,745,1,0,7,1.2635191782769477
undo,5,0,0,0,0,0,[0],1,27,"[2, 3, 4, 5, 6, 7, 8, 9, 10, 11, 12, 13, 14, 15, 16, 17, 19, 20, 21, 22, 23, 24, 25, 26, 27, 28, 29]",300,133,-1,104,1136,9,0.0
undo,5,0,0,0,0,28,"[0, 28]",2,26,"[2, 3, 4, 5, 6, 7, 8, 9, 10, 11, 12, 13, 14, 15, 16, 17, 19, 20, 21, 22, 23, 24, 25, 26, 27, 29]",194.9190788,1621,1488,39,388,9,1.0
undo,5,0,0,0,0,5,"[0, 28, 5]",3,21,"[2, 3, 4, 7, 8, 9, 11, 12, 13, 14, 15, 16, 17, 19, 20, 21, 23, 24, 25, 26, 29]",151.2613189,2118,497,27,210,9,1.0978295127671733
undo,5,0,0,0,0,4,"[0, 28, 5, 4]",4,16,"[3, 7, 8, 9, 11, 12, 13, 14, 15, 17, 19, 20, 21, 23, 24, 26]",126.1814465,2689,571,17,114,9,1.1103727063761901
undo,5,0,0,0,0,26,"[0, 28, 5, 4, 26]",5,14,"[3, 7, 8, 9, 11, 12, 13, 14, 15, 17, 19, 20, 23, 24]",114.1398519,3378,689,7,54,9,1.1504454351688815
undo,5,0,0,0,0,24,"[0, 28, 5, 4, 26, 24]",6,11,"[3, 7, 8, 9, 11, 12, 15, 17, 19, 20, 23]",97.02260914,3839,461,7,22,9,1.2166555899566422
undo,5,0,0,0,0,15,"[0, 28, 5, 4, 26, 24, 15]",7,7,"[3, 7, 8, 9, 11, 12, 17]",73.67737408,4361,522,4,5,9,1.1972898774231708
undo,5,0,0,0,0,7,"[0, 28, 5, 4, 26, 24, 15, 7]",8,2,"[3, 8]",42.61292495,4918,557,2,0,9,1.2554869594545575
undo,5,0,0,0,1,3,"[0, 28, 5, 4, 26, 24, 15, 7, 3]",9,0,[],18.52973579,5544,626,1,0,9,1.2985327435367093
undo,5,0,0,1,1,3,"[0, 28, 5, 4, 26, 24, 15, 7, 3]",9,0,[],18.52973579,5972,428,1,0,9,1.2985327435367093
undo,6,17,0,0,0,0,[0],1,28,"[1, 2, 3, 4, 5, 6, 7, 8, 9, 10, 11, 12, 13, 14, 15, 16, 17, 18, 19, 20, 22, 23, 24, 25, 26, 27, 28, 29]",300,134,-1,2,73,8,0.0
undo,6,17,0,0,0,9,"[0, 9]",2,25,"[1, 2, 3, 5, 6, 7, 8, 10, 11, 12, 14, 15, 16, 17, 18, 19, 20, 22, 23, 24, 25, 26, 27, 28, 29]",210.5293344,2421,2287,1,34,8,1.0
undo,6,17,0,0,0,16,"[0, 9, 16]",3,21,"[1, 2, 3, 5, 7, 8, 10, 11, 12, 14, 17, 18, 19, 20, 22, 23, 25, 26, 27, 28, 29]",197.1876704,2792,371,1,26,8,1.173103464220352
undo,6,17,0,0,0,2,"[0, 9, 16, 2]",4,18,"[1, 3, 5, 7, 8, 10, 11, 12, 14, 17, 18, 19, 23, 25, 26, 27, 28, 29]",181.0631549,3158,366,1,23,8,1.14825089247282
undo,6,17,0,0,0,8,"[0, 9, 16, 2, 8]",5,9,"[3, 7, 10, 11, 12, 14, 17, 26, 27]",145.9490551,3658,500,1,9,8,1.1509808066472915
undo,6,17,0,0,0,7,"[0, 9, 16, 2, 8, 7]",6,3,"[10, 12, 27]",75.238377,4727,1069,3,0,7,1.2222166608088694
undo,6,17,0,0,1,27,"[0, 9, 16, 2, 8, 7, 27]",7,0,[],21.63800387,5633,906,1,0,7,1.2961096752539074
undo,6,17,0,1,1,27,"[0, 9, 16, 2, 8, 7, 27]",7,0,[],21.63800387,7140,1507,1,0,7,1.2961096752539074
undo,7,9,0,0,0,0,[0],1,27,"[1, 3, 4, 5, 6, 7, 8, 9, 10, 11, 13, 14, 15, 16, 17, 18, 19, 20, 21, 22, 23, 24, 25, 26, 27, 28, 29]",300,149,-1,2,182,10,0.0
undo,7,9,0,0,0,8,"[0, 8]",2,25,"[1, 3, 4, 5, 6, 7, 9, 10, 11, 13, 14, 15, 16, 17, 18, 19, 20, 21, 22, 23, 24, 25, 26, 27, 28]",236.2191251,3957,3808,2,102,9,1.0
undo,7,9,0,0,0,28,"[0, 8, 28]",3,23,"[1, 3, 4, 5, 6, 7, 9, 10, 11, 13, 15, 16, 17, 18, 19, 20, 21, 22, 23, 24, 25, 26, 27]",225.4024713,6323,2366,2,52,9,1.0043219354187498
undo,7,9,0,0,0,26,"[0, 8, 28, 26]",4,22,"[1, 3, 4, 5, 6, 7, 9, 10, 11, 13, 15, 16, 17, 18, 19, 20, 21, 22, 23, 24, 25, 27]",180.6252449,8499,2176,2,14,9,1.0218284416881065
undo,7,9,0,0,0,18,"[0, 8, 28, 26, 18]",5,13,"[1, 3, 5, 6, 9, 13, 15, 16, 19, 20, 21, 23, 24]",119.7483199,9121,622,2,6,9,1.0343247703783052
undo,7,9,0,0,0,5,"[0, 8, 28, 26, 18, 5]",6,3,"[1, 13, 24]",55.85778854,10185,1064,2,4,9,1.0965846847367935
undo,7,9,0,0,0,13,"[0, 8, 28, 26, 18, 5, 13]",7,2,"[1, 24]",40.59345102,10578,393,2,0,9,1.1139896497149246
undo,7,9,0,0,0,24,"[0, 8, 28, 26, 18, 5, 13, 24]",8,1,[1],23.10059533,10981,403,1,0,9,1.1088313254366502
undo,7,9,0,0,1,1,"[0, 8, 28, 26, 18, 5, 13, 24, 1]",9,0,[],2.100595335,11531,550,1,0,9,1.2171433313097024
undo,7,9,0,1,1,1,"[0, 8, 28, 26, 18, 5, 13, 24, 1]",9,0,[],2.100595335,12244,713,1,0,9,1.2171433313097024
undo,8,42,0,0,0,0,[0],1,29,"[1, 2, 3, 4, 5, 6, 7, 8, 9, 10, 11, 12, 13, 14, 15, 16, 17, 18, 19, 20, 21, 22, 23, 24, 25, 26, 27, 28, 29]",300,115,-1,16,302,9,0.0
undo,8,42,0,0,0,5,"[0, 5]",2,28,"[1, 2, 3, 4, 6, 7, 8, 9, 10, 11, 12, 13, 14, 15, 16, 17, 18, 19, 20, 21, 22, 23, 24, 25, 26, 27, 28, 29]",191.2939744,9169,9054,1,22,9,1.0
undo,8,42,0,0,0,4,"[0, 5, 4]",3,23,"[1, 2, 3, 6, 7, 8, 9, 10, 11, 13, 15, 17, 18, 19, 20, 21, 22, 23, 24, 25, 26, 27, 29]",171.4445412,9616,447,1,14,9,1.420957801478707
undo,8,42,0,0,0,22,"[0, 5, 4, 22]",4,20,"[1, 2, 3, 6, 7, 8, 9, 11, 15, 17, 18, 19, 20, 21, 23, 24, 25, 26, 27, 29]",160.2642013,9946,330,1,11,9,1.5771494659680896
undo,8,42,0,0,0,8,"[0, 5, 4, 22, 8]",5,14,"[1, 2, 3, 6, 7, 11, 15, 18, 19, 24, 25, 26, 27, 29]",138.1282577,10427,481,1,10,9,1.5055393955524201
undo,8,42,0,0,0,1,"[0, 5, 4, 22, 8, 1]",6,5,"[2, 7, 19, 26, 27]",89.03650682,11018,591,1,7,9,1.3547259083637835
undo,8,42,0,0,0,27,"[0, 5, 4, 22, 8, 1, 27]",7,1,[26],30.82138851,11556,538,1,0,8,1.262358902428909
undo,8,42,0,0,1,26,"[0, 5, 4, 22, 8, 1, 27, 26]",8,0,[],12.79363213,11902,346,1,0,8,1.4505372114646464
undo,8,42,0,1,1,26,"[0, 5, 4, 22, 8, 1, 27, 26]",8,0,[],12.79363213,12361,459,1,0,8,1.4505372114646464
undo,9,27,0,0,0,0,[0],1,26,"[1, 3, 5, 6, 7, 8, 9, 10, 11, 12, 13, 14, 15, 16, 17, 18, 19, 21, 22, 23, 24, 25, 26, 27, 28, 29]",300,116,-1,13,578,11,0.0
undo,9,27,0,0,0,15,"[0, 15]",2,24,"[1, 3, 5, 6, 7, 8, 9, 10, 11, 12, 13, 14, 16, 17, 18, 19, 21, 22, 23, 24, 25, 26, 27, 29]",263.7508621,1612,1496,6,219,11,1.0
undo,9,27,0,0,0,24,"[0, 15, 24]",3,20,"[1, 5, 6, 7, 8, 9, 10, 12, 13, 14, 16, 17, 18, 19, 21, 23, 25, 26, 27, 29]",246.5462115,2308,696,6,130,11,1.130933077698322
undo,9,27,0,0,0,17,"[0, 15, 24, 17]",4,15,"[1, 6, 8, 10, 12, 13, 14, 16, 18, 19, 23, 25, 26, 27, 29]",229.9932662,2729,421,4,60,11,1.1285538435963374
undo,9,27,0,0,0,12,"[0, 15, 24, 17, 12]",5,14,"[1, 6, 8, 10, 13, 14, 16, 18, 19, 23, 25, 26, 27, 29]",218.8129263,3009,280,2,32,11,1.2561880288755216
undo,9,27,0,0,0,10,"[0, 15, 24, 17, 12, 10]",6,11,"[1, 8, 13, 14, 18, 19, 23, 25, 26, 27, 29]",207.7675653,3326,317,2,28,11,1.2228289337766665
undo,9,27,0,0,0,13,"[0, 15, 24, 17, 12, 10, 13]",7,9,"[1, 8, 14, 18, 19, 23, 26, 27, 29]",167.9178476,3826,500,2,18,11,1.3421291994761178
undo,9,27,0,0,0,19,"[0, 15, 24, 17, 12, 10, 13, 19]",8,5,"[1, 8, 14, 23, 29]",131.6825057,4339,513,2,6,11,1.294749956153846
undo,9,27,0,0,0,8,"[0, 15, 24, 17, 12, 10, 13, 19, 8]",9,3,"[14, 23, 29]",116.816437,4679,340,2,1,11,1.3554286578836865
undo,9,27,0,0,0,29,"[0, 15, 24, 17, 12, 10, 13, 19, 8, 29]",10,1,[14],57.61339652,5325,646,1,0,11,1.248354519573802
undo,9,27,0,0,1,14,"[0, 15, 24, 17, 12, 10, 13, 19, 8, 29, 14]",11,0,[],13.31892734,5865,540,1,0,11,1.562811097555156
undo,9,27,0,1,1,14,"[0, 15, 24, 17, 12, 10, 13, 19, 8, 29, 14]",11,0,[],13.31892734,7272,1407,1,0,11,1.562811097555156
undo,10,30,0,0,0,0,[0],1,19,"[3, 4, 5, 7, 9, 11, 16, 17, 18, 19, 20, 21, 22, 24, 25, 26, 27, 28, 29]",300,115,-1,5,41,8,0.0
undo,10,30,0,0,0,16,"[0, 16]",2,17,"[3, 5, 7, 9, 11, 17, 18, 19, 20, 21, 22, 24, 25, 26, 27, 28, 29]",219.3774225,2292,2177,5,34,8,1.0
undo,10,30,0,0,0,25,"[0, 16, 25]",3,10,"[3, 5, 7, 9, 11, 18, 19, 20, 27, 29]",115.0845656,2904,612,5,28,8,1.0336279544884488
undo,10,30,0,0,0,27,"[0, 16, 25, 27]",4,7,"[3, 5, 7, 18, 19, 20, 29]",75.52448473,3475,571,1,12,8,1.0719738181137488
undo,10,30,0,0,0,3,"[0, 16, 25, 27, 3]",5,5,"[5, 7, 18, 20, 29]",56.41951155,3867,392,1,4,8,1.0683252001879187
undo,10,30,0,0,0,18,"[0, 16, 25, 27, 3, 18]",6,2,"[5, 29]",38.17122396,4268,401,2,0,7,1.071988954484303
undo,10,30,0,0,1,29,"[0, 16, 25, 27, 3, 18, 29]",7,0,[],18.85801605,4928,660,1,0,7,1.1547746746049952
undo,10,30,0,1,1,29,"[0, 16, 25, 27, 3, 18, 29]",7,0,[],18.85801605,7740,2812,1,0,7,1.1547746746049952
undo,11,37,0,0,0,0,[0],1,29,"[1, 2, 3, 4, 5, 6, 7, 8, 9, 10, 11, 12, 13, 14, 15, 16, 17, 18, 19, 20, 21, 22, 23, 24, 25, 26, 27, 28, 29]",300,114,-1,6,168,10,0.0
undo,11,37,0,0,0,19,"[0, 19]",2,19,"[1, 2, 4, 5, 6, 7, 9, 10, 11, 15, 17, 18, 20, 21, 22, 25, 26, 28, 29]",185.6627795,2113,1999,25,244,9,1.0
undo,11,37,0,0,0,21,"[0, 19, 21]",3,14,"[1, 2, 4, 7, 10, 11, 15, 17, 18, 20, 22, 25, 26, 29]",144.5531699,2605,492,10,75,9,1.001632816594558
undo,11,37,0,0,0,15,"[0, 19, 21, 15]",4,9,"[1, 2, 4, 7, 18, 20, 22, 26, 29]",129.5531699,2942,337,5,32,9,1.0243376499143988
undo,11,37,0,0,0,20,"[0, 19, 21, 15, 20]",5,8,"[1, 2, 4, 7, 18, 22, 26, 29]",112.5531699,3261,319,5,14,9,1.250507291508492
undo,11,37,0,0,0,1,"[0, 19, 21, 15, 20, 1]",6,6,"[2, 4, 7, 18, 22, 26]",78.31868434,4221,960,4,4,9,1.4002166443864243
undo,11,37,0,0,0,2,"[0, 19, 21, 15, 20, 1, 2]",7,4,"[4, 7, 18, 22]",61.11403381,5131,910,2,2,9,1.5802253600182588
undo,11,37,0,0,0,4,"[0, 19, 21, 15, 20, 1, 2, 4]",8,1,[22],49.71227956,5511,380,1,0,9,1.5399187067712754
undo,11,37,0,0,1,22,"[0, 19, 21, 15, 20, 1, 2, 4, 22]",9,0,[],24.71227956,5933,422,1,0,9,1.6903775033413582
undo,11,37,0,1,1,22,"[0, 19, 21, 15, 20, 1, 2, 4, 22]",9,0,[],24.71227956,6938,1005,1,0,9,1.6903775033413582
undo,12,29,0,0,0,0,[0],1,29,"[1, 2, 3, 4, 5, 6, 7, 8, 9, 10, 11, 12, 13, 14, 15, 16, 17, 18, 19, 20, 21, 22, 23, 24, 25, 26, 27, 28, 29]",300,116,-1,1,78,9,0.0
undo,12,29,0,0,0,14,"[0, 14]",2,22,"[1, 3, 4, 5, 6, 7, 9, 10, 11, 12, 13, 15, 16, 17, 21, 22, 23, 25, 26, 27, 28, 29]",209.490332,1854,1738,21,110,8,1.0
undo,12,29,0,0,0,13,"[0, 14, 13]",3,18,"[1, 4, 5, 6, 7, 9, 10, 12, 15, 16, 17, 21, 22, 25, 26, 27, 28, 29]",191.4625756,2175,321,20,75,8,1.0027006502223275
undo,12,29,0,0,0,5,"[0, 14, 13, 5]",4,15,"[1, 4, 6, 7, 9, 12, 15, 17, 21, 22, 25, 26, 27, 28, 29]",165.7526554,2571,396,19,49,8,1.0803937325657265
undo,12,29,0,0,0,4,"[0, 14, 13, 5, 4]",5,5,"[7, 9, 12, 21, 22]",113.8585324,3331,760,5,5,8,1.0589046774357636
undo,12,29,0,0,0,9,"[0, 14, 13, 5, 4, 9]",6,3,"[7, 12, 21]",72.82196333,3879,548,2,1,8,1.2033484462540056
undo,12,29,0,0,0,7,"[0, 14, 13, 5, 4, 9, 7]",7,1,[12],43.75307962,4278,399,1,0,8,1.5581999677939193
undo,12,29,0,0,1,12,"[0, 14, 13, 5, 4, 9, 7, 12]",8,0,[],30.15160911,4623,345,1,0,8,1.747955919287298
undo,12,29,0,1,1,12,"[0, 14, 13, 5, 4, 9, 7, 12]",8,0,[],30.15160911,4936,313,1,0,8,1.747955919287298
undo,13,2,0,0,0,0,[0],1,23,"[1, 2, 4, 5, 6, 7, 8, 9, 12, 13, 15, 16, 17, 18, 19, 20, 22, 23, 25, 26, 27, 28, 29]",300,116,-1,70,620,10,0.0
undo,13,2,0,0,0,19,"[0, 19]",2,22,"[1, 2, 4, 5, 6, 7, 8, 9, 12, 13, 15, 16, 17, 18, 20, 22, 23, 25, 26, 27, 28, 29]",210.306076,1615,1499,67,431,10,1.0
undo,13,2,0,0,0,12,"[0, 19, 12]",3,17,"[1, 4, 5, 6, 7, 13, 15, 16, 17, 18, 20, 22, 25, 26, 27, 28, 29]",174.2921898,2038,423,66,298,10,1.1107635036313153
undo,13,2,0,0,0,22,"[0, 19, 12, 22]",4,9,"[1, 5, 6, 7, 13, 15, 18, 26, 29]",132.1021436,2884,846,12,63,10,1.08804589423138
undo,13,2,0,0,0,5,"[0, 19, 12, 22, 5]",5,8,"[1, 6, 7, 13, 15, 18, 26, 29]",119.2958951,3229,345,9,26,10,1.2767499878735282
undo,13,2,0,0,0,13,"[0, 19, 12, 22, 5, 13]",6,7,"[1, 6, 7, 15, 18, 26, 29]",105.6944246,3672,443,9,16,10,1.3135653363821673
undo,13,2,0,0,0,18,"[0, 19, 12, 22, 5, 13, 18]",7,4,"[7, 15, 26, 29]",70.52341381,4308,636,6,3,10,1.2762493331353317
undo,13,2,0,0,0,7,"[0, 19, 12, 22, 5, 13, 18, 7]",8,3,"[15, 26, 29]",60.22778367,4614,306,3,1,10,1.2619590333157895
undo,13,2,0,0,0,15,"[0, 19, 12, 22, 5, 13, 18, 7, 15]",9,2,"[26, 29]",45.46296061,4941,327,2,0,10,1.3512849586376887
undo,13,2,0,0,1,26,"[0, 19, 12, 22, 5, 13, 18, 7, 15, 26]",10,0,[],21.25552374,5591,650,1,0,10,1.31877021184194
undo,13,2,0,1,1,26,"[0, 19, 12, 22, 5, 13, 18, 7, 15, 26]",10,0,[],21.25552374,6421,830,1,0,10,1.31877021184194
undo,14,14,0,0,0,0,[0],1,29,"[1, 2, 3, 4, 5, 6, 7, 8, 9, 10, 11, 12, 13, 14, 15, 16, 17, 18, 19, 20, 21, 22, 23, 24, 25, 26, 27, 28, 29]",300,115,-1,8,157,10,0.0
undo,14,14,0,0,0,18,"[0, 18]",2,17,"[1, 2, 3, 4, 7, 8, 9, 13, 15, 17, 19, 20, 22, 23, 25, 26, 28]",179.8958785,1315,1200,18,136,9,1.0
undo,14,14,0,0,0,8,"[0, 18, 8]",3,13,"[1, 2, 4, 7, 13, 15, 17, 19, 20, 23, 25, 26, 28]",166.294408,1666,351,18,99,9,1.0203858410107731
undo,14,14,0,0,0,1,"[0, 18, 8, 1]",4,10,"[2, 4, 7, 15, 17, 19, 23, 25, 26, 28]",142.6935606,2043,377,11,42,9,1.0173392374431458
undo,14,14,0,0,0,19,"[0, 18, 8, 1, 19]",5,9,"[2, 4, 7, 15, 17, 23, 25, 26, 28]",127.4620143,2450,407,11,22,9,1.1668364376922102
undo,14,14,0,0,0,26,"[0, 18, 8, 1, 19, 26]",6,4,"[4, 7, 23, 25]",74.23608081,3824,1374,2,4,9,1.1379310743287543
undo,14,14,0,0,0,23,"[0, 18, 8, 1, 19, 26, 23]",7,3,"[4, 7, 25]",63.41942699,4194,370,2,1,9,1.25860317400474
undo,14,14,0,0,0,25,"[0, 18, 8, 1, 19, 26, 23, 25]",8,1,[7],34.00854465,4628,434,1,0,9,1.6250439771619034
undo,14,14,0,0,1,7,"[0, 18, 8, 1, 19, 26, 23, 25, 7]",9,0,[],14.31082904,5014,386,1,0,9,1.6358514342320594
undo,14,14,0,1,1,7,"[0, 18, 8, 1, 19, 26, 23, 25, 7]",9,0,[],14.31082904,5688,674,1,0,9,1.6358514342320594
undo,15,19,0,0,0,0,[0],1,29,"[1, 2, 3, 4, 5, 6, 7, 8, 9, 10, 11, 12, 13, 14, 15, 16, 17, 18, 19, 20, 21, 22, 23, 24, 25, 26, 27, 28, 29]",300,115,-1,12,149,8,0.0
undo,15,19,0,0,0,29,"[0, 29]",2,28,"[1, 2, 3, 4, 5, 6, 7, 8, 9, 10, 11, 12, 13, 14, 15, 16, 17, 18, 19, 20, 21, 22, 23, 24, 25, 26, 27, 28]",265.0715016,1982,1867,12,120,8,1.0
undo,15,19,0,0,0,9,"[0, 29, 9]",3,17,"[1, 4, 5, 6, 7, 10, 11, 12, 13, 14, 19, 20, 21, 22, 24, 27, 28]",181.7108394,2583,601,11,65,8,1.0375842971861238
undo,15,19,0,0,0,6,"[0, 29, 9, 6]",4,12,"[4, 7, 10, 11, 13, 14, 20, 21, 22, 24, 27, 28]",140.2741407,3120,537,11,34,8,1.0389786364356892
undo,15,19,0,0,0,4,"[0, 29, 9, 6, 4]",5,7,"[10, 11, 14, 20, 22, 27, 28]",99.22538921,4290,1170,2,6,8,1.2182485830176533
undo,15,19,0,0,0,28,"[0, 29, 9, 6, 4, 28]",6,3,"[11, 14, 27]",88.04504932,4626,336,2,1,8,1.2933703503588658
undo,15,19,0,0,0,11,"[0, 29, 9, 6, 4, 28, 11]",7,1,[14],23.50823812,6180,1554,1,0,8,1.2610479003557273
undo,15,19,0,0,1,14,"[0, 29, 9, 6, 4, 28, 11, 14]",8,0,[],12.69158429,6485,305,1,0,8,1.3738796083749716
undo,15,19,0,1,1,14,"[0, 29, 9, 6, 4, 28, 11, 14]",8,0,[],12.69158429,6822,337,1,0,8,1.3738796083749716
undo,16,11,0,0,0,0,[0],1,25,"[1, 2, 3, 4, 5, 6, 8, 9, 10, 11, 12, 13, 14, 15, 16, 17, 18, 19, 20, 22, 23, 25, 26, 27, 28]",300,117,-1,6,374,12,0.0
undo,16,11,0,0,0,18,"[0, 18]",2,21,"[1, 2, 4, 5, 6, 8, 9, 11, 12, 13, 14, 15, 16, 17, 19, 20, 22, 23, 25, 27, 28]",236.8493864,2979,2862,157,1477,11,1.0
undo,16,11,0,0,0,27,"[0, 18, 27]",3,19,"[1, 2, 4, 5, 6, 8, 9, 11, 12, 14, 15, 16, 17, 19, 20, 22, 23, 25, 28]",212.9956655,3790,811,157,1315,11,1.060949579704323
undo,16,11,0,0,0,8,"[0, 18, 27, 8]",4,14,"[1, 2, 4, 5, 6, 11, 12, 15, 17, 19, 22, 23, 25, 28]",142.7817068,5346,1556,68,433,11,1.0827202875589923
undo,16,11,0,0,0,17,"[0, 18, 27, 8, 17]",5,13,"[1, 2, 4, 5, 6, 11, 12, 15, 19, 22, 23, 25, 28]",128.4638857,5696,350,42,137,11,1.1662918234607762
undo,16,11,0,0,0,15,"[0, 18, 27, 8, 17, 15]",6,9,"[2, 5, 6, 11, 12, 19, 22, 25, 28]",115.8147751,6066,370,38,57,11,1.1741312027420885
undo,16,11,0,0,0,11,"[0, 18, 27, 8, 17, 15, 11]",7,7,"[2, 5, 6, 12, 19, 22, 28]",97.70400479,6537,471,24,0,11,1.1668679039564056
undo,16,11,0,0,0,28,"[0, 18, 27, 8, 17, 15, 11, 28]",8,4,"[2, 5, 19, 22]",78.28751696,6966,429,6,0,11,1.2830334294205898
undo,16,11,0,0,0,5,"[0, 18, 27, 8, 17, 15, 11, 28, 5]",9,2,"[2, 22]",60.39897314,7702,736,2,0,11,1.472719061667125
undo,16,11,0,0,0,2,"[0, 18, 27, 8, 17, 15, 11, 28, 5, 2]",10,1,[22],43.39897314,8102,400,1,0,11,1.437636650715907
undo,16,11,0,0,1,22,"[0, 18, 27, 8, 17, 15, 11, 28, 5, 2, 22]",11,0,[],33.34909751,8381,279,1,0,11,1.414339916866727
undo,16,11,0,1,1,22,"[0, 18, 27, 8, 17, 15, 11, 28, 5, 2, 22]",11,0,[],33.34909751,9494,1113,1,0,11,1.414339916866727
undo,17,31,0,0,0,0,[0],1,27,"[1, 3, 4, 5, 6, 7, 8, 10, 11, 12, 13, 14, 15, 16, 17, 18, 19, 20, 21, 22, 23, 24, 25, 26, 27, 28, 29]",300,115,-1,2,87,10,0.0
undo,17,31,0,0,0,14,"[0, 14]",2,25,"[1, 3, 5, 6, 7, 8, 10, 11, 12, 13, 15, 16, 17, 18, 19, 20, 21, 22, 23, 24, 25, 26, 27, 28, 29]",263.861378,2737,2622,2,59,10,1.0
undo,17,31,0,0,0,27,"[0, 14, 27]",3,22,"[1, 3, 5, 6, 7, 8, 10, 11, 12, 13, 15, 16, 17, 18, 19, 20, 21, 22, 24, 25, 28, 29]",235.6833724,3176,439,1,39,10,1.5881859159302467
undo,17,31,0,0,0,8,"[0, 14, 27, 8]",4,20,"[1, 3, 5, 6, 7, 10, 11, 12, 13, 16, 17, 18, 19, 20, 21, 22, 24, 25, 28, 29]",224.6380114,3525,349,1,36,10,2.1665048452331277
undo,17,31,0,0,0,18,"[0, 14, 27, 8, 18]",5,15,"[1, 5, 6, 7, 11, 12, 13, 16, 17, 19, 20, 22, 25, 28, 29]",188.7911147,4093,568,1,26,10,1.7273375741920205
undo,17,31,0,0,0,17,"[0, 14, 27, 8, 18, 17]",6,13,"[1, 5, 6, 7, 11, 12, 13, 16, 19, 20, 22, 25, 28]",159.584951,4599,506,1,13,10,1.551192427769927
undo,17,31,0,0,0,11,"[0, 14, 27, 8, 18, 17, 11]",7,7,"[5, 12, 16, 19, 22, 25, 28]",118.4753414,5116,517,1,4,10,2.9650760544203494
undo,17,31,0,0,0,5,"[0, 14, 27, 8, 18, 17, 11, 5]",8,2,"[16, 28]",74.79468207,5730,614,1,1,10,2.56711965625205
undo,17,31,0,0,0,28,"[0, 14, 27, 8, 18, 17, 11, 5, 28]",9,1,[16],54.57093365,6271,541,1,0,10,2.2865510762058148
undo,17,31,0,0,1,16,"[0, 14, 27, 8, 18, 17, 11, 5, 28, 16]",10,0,[],20.95546102,6848,577,1,0,10,2.089356850786318
undo,17,31,0,1,1,16,"[0, 14, 27, 8, 18, 17, 11, 5, 28, 16]",10,0,[],20.95546102,7204,356,1,0,10,2.089356850786318
undo,18,41,0,0,0,0,[0],1,29,"[1, 2, 3, 4, 5, 6, 7, 8, 9, 10, 11, 12, 13, 14, 15, 16, 17, 18, 19, 20, 21, 22, 23, 24, 25, 26, 27, 28, 29]",300,116,-1,1,143,10,0.0
undo,18,41,0,0,0,5,"[0, 5]",2,27,"[1, 2, 3, 6, 7, 8, 9, 10, 11, 12, 13, 14, 15, 16, 17, 18, 19, 20, 21, 22, 23, 24, 25, 26, 27, 28, 29]",268.6152903,14608,14492,38,328,9,1.0
undo,18,41,0,0,0,3,"[0, 5, 3]",3,26,"[1, 2, 6, 7, 8, 9, 10, 11, 12, 13, 14, 15, 16, 17, 18, 19, 20, 21, 22, 23, 24, 25, 26, 27, 28, 29]",233.7871408,16297,1689,3,93,9,1.6710618164948743
undo,18,41,0,0,0,21,"[0, 5, 3, 21]",4,22,"[1, 2, 6, 9, 10, 11, 12, 13, 14, 15, 16, 17, 18, 19, 20, 22, 24, 25, 26, 27, 28, 29]",201.6468235,16768,471,2,57,9,2.012242493465285
undo,18,41,0,0,0,2,"[0, 5, 3, 21, 2]",5,15,"[1, 9, 10, 12, 13, 14, 15, 17, 19, 22, 24, 25, 26, 27, 28]",140.6468235,18293,1525,12,25,8,1.761265608293163
undo,18,41,0,0,0,17,"[0, 5, 3, 21, 2, 17]",6,10,"[1, 9, 10, 12, 13, 14, 22, 24, 27, 28]",108.0891823,19232,939,4,8,8,3.0275720669832387
undo,18,41,0,0,0,10,"[0, 5, 3, 21, 2, 17, 10]",7,1,[24],58.84489325,19951,719,1,0,8,2.8505650394189415
undo,18,41,0,0,1,24,"[0, 5, 3, 21, 2, 17, 10, 24]",8,0,[],9.600604242,20888,937,1,0,8,2.2498740668587165
undo,18,41,0,1,1,24,"[0, 5, 3, 21, 2, 17, 10, 24]",8,0,[],9.600604242,26125,5237,1,0,8,2.2498740668587165
undo,19,23,0,0,0,0,[0],1,28,"[1, 2, 3, 4, 5, 6, 7, 8, 9, 10, 11, 12, 13, 14, 15, 16, 17, 18, 19, 20, 21, 22, 23, 25, 26, 27, 28, 29]",300,148,-1,76,2626,10,0.0
undo,19,23,0,0,0,13,"[0, 13]",2,19,"[1, 2, 3, 5, 6, 7, 8, 9, 10, 12, 14, 17, 18, 19, 21, 22, 23, 27, 29]",189.3202819,3795,3647,9,168,10,1.0
undo,19,23,0,0,0,12,"[0, 13, 12]",3,16,"[1, 2, 3, 6, 7, 8, 9, 10, 14, 17, 18, 21, 22, 23, 27, 29]",177.2372359,4409,614,9,96,10,1.0014195490503164
undo,19,23,0,0,0,2,"[0, 13, 12, 2]",4,12,"[1, 3, 6, 7, 9, 10, 14, 18, 21, 22, 27, 29]",163.3447919,4841,432,4,30,10,1.0014394317924602
undo,19,23,0,0,0,9,"[0, 13, 12, 2, 9]",5,10,"[1, 6, 7, 10, 14, 18, 21, 22, 27, 29]",150.3063871,5419,578,1,8,10,1.1457747074799831
undo,19,23,0,0,0,14,"[0, 13, 12, 2, 9, 14]",6,8,"[1, 6, 7, 10, 18, 22, 27, 29]",139.8660806,5748,329,1,6,10,1.1365880299138118
undo,19,23,0,0,0,29,"[0, 13, 12, 2, 9, 14, 29]",7,5,"[1, 6, 7, 10, 22]",92.43191571,6564,816,1,3,10,1.3460297288480787
undo,19,23,0,0,0,7,"[0, 13, 12, 2, 9, 14, 29, 7]",8,2,"[1, 10]",68.34872655,6995,431,1,1,10,1.3773159292410473
undo,19,23,0,0,0,10,"[0, 13, 12, 2, 9, 14, 29, 7, 10]",9,1,[1],40.88966612,7475,480,1,0,10,1.3556884556214648
undo,19,23,0,0,1,1,"[0, 13, 12, 2, 9, 14, 29, 7, 10, 1]",10,0,[],12.23656855,8003,528,1,0,10,1.3259861306330887
undo,19,23,0,1,1,1,"[0, 13, 12, 2, 9, 14, 29, 7, 10, 1]",10,0,[],12.23656855,8507,504,1,0,10,1.3259861306330887
undo,20,45,0,0,0,0,[0],1,24,"[1, 2, 3, 4, 5, 6, 7, 9, 10, 11, 12, 14, 15, 16, 17, 19, 20, 21, 22, 23, 24, 25, 27, 29]",300,132,-1,6,248,10,0.0
undo,20,45,0,0,0,17,"[0, 17]",2,22,"[1, 2, 3, 4, 5, 6, 7, 9, 10, 11, 12, 14, 15, 16, 19, 20, 21, 22, 23, 24, 25, 29]",235.867325,1490,1358,1,34,10,1.0
undo,20,45,0,0,0,24,"[0, 17, 24]",3,20,"[1, 2, 3, 4, 5, 6, 7, 9, 10, 11, 12, 14, 15, 16, 19, 20, 21, 22, 23, 29]",193.8078433,2040,550,1,33,10,1.0309432256229287
undo,20,45,0,0,0,7,"[0, 17, 24, 7]",4,18,"[1, 2, 3, 4, 5, 6, 9, 10, 12, 14, 15, 16, 19, 20, 21, 22, 23, 29]",159.3985423,2611,571,1,32,10,1.059763151913087
undo,20,45,0,0,0,2,"[0, 17, 24, 7, 2]",5,12,"[3, 4, 6, 10, 12, 14, 16, 19, 20, 22, 23, 29]",121.3853866,3170,559,1,23,10,1.0656581932115423
undo,20,45,0,0,0,3,"[0, 17, 24, 7, 2, 3]",6,8,"[6, 10, 12, 14, 16, 20, 22, 29]",96.06740884,4089,919,1,13,10,1.1368250049574795
undo,20,45,0,0,0,29,"[0, 17, 24, 7, 2, 3, 29]",7,5,"[6, 10, 12, 20, 22]",76.06740884,4502,413,1,5,10,1.390376182346372
undo,20,45,0,0,0,10,"[0, 17, 24, 7, 2, 3, 29, 10]",8,2,"[6, 12]",54.52674961,5008,506,1,1,10,1.6682270697663164
undo,20,45,0,0,0,6,"[0, 17, 24, 7, 2, 3, 29, 10, 6]",9,1,[12],28.27794012,5582,574,1,0,10,1.5776211572942243
undo,20,45,0,0,1,12,"[0, 17, 24, 7, 2, 3, 29, 10, 6, 12]",10,0,[],8.15332832,6040,458,1,0,10,1.536035114105263
undo,20,45,0,1,1,12,"[0, 17, 24, 7, 2, 3, 29, 10, 6, 12]",10,0,[],8.15332832,6638,598,1,0,10,1.536035114105263
undo,21,22,0,0,0,0,[0],1,29,"[1, 2, 3, 4, 5, 6, 7, 8, 9, 10, 11, 12, 13, 14, 15, 16, 17, 18, 19, 20, 21, 22, 23, 24, 25, 26, 27, 28, 29]",300,148,-1,31,704,9,0.0
undo,21,22,0,0,0,16,"[0, 16]",2,21,"[1, 3, 6, 7, 8, 9, 11, 13, 14, 15, 17, 18, 19, 20, 21, 22, 24, 25, 27, 28, 29]",218.605897,1764,1616,17,147,9,1.0
undo,21,22,0,0,0,28,"[0, 16, 28]",3,13,"[6, 7, 9, 13, 14, 17, 19, 20, 21, 22, 24, 25, 29]",184.1675463,2236,472,12,61,9,1.047282311284478
undo,21,22,0,0,0,6,"[0, 16, 28, 6]",4,12,"[7, 9, 13, 14, 17, 19, 20, 21, 22, 24, 25, 29]",154.1675463,2709,473,12,43,9,1.645645870580622
undo,21,22,0,0,0,9,"[0, 16, 28, 6, 9]",5,8,"[7, 14, 17, 19, 20, 21, 24, 29]",127.5404924,3194,485,8,17,9,1.925750226630103
undo,21,22,0,0,0,19,"[0, 16, 28, 6, 9, 19]",6,6,"[7, 14, 17, 21, 24, 29]",107.1444143,3613,419,3,7,9,2.4220750331476455
undo,21,22,0,0,0,29,"[0, 16, 28, 6, 9, 19, 29]",7,4,"[7, 14, 17, 24]",92.11111796,3994,381,2,2,9,2.6996279574991067
undo,21,22,0,0,0,7,"[0, 16, 28, 6, 9, 19, 29, 7]",8,1,[14],41.0327468,6853,2859,1,0,9,2.059125386946491
undo,21,22,0,0,1,14,"[0, 16, 28, 6, 9, 19, 29, 7, 14]",9,0,[],27.99434199,7511,658,1,0,9,2.0997569104205307
undo,21,22,0,1,1,14,"[0, 16, 28, 6, 9, 19, 29, 7, 14]",9,0,[],27.99434199,7922,411,1,0,9,2.0997569104205307
undo,22,3,0,0,0,0,[0],1,29,"[1, 2, 3, 4, 5, 6, 7, 8, 9, 10, 11, 12, 13, 14, 15, 16, 17, 18, 19, 20, 21, 22, 23, 24, 25, 26, 27, 28, 29]",300,165,-1,34,427,10,0.0
undo,22,3,0,0,0,17,"[0, 17]",2,16,"[3, 4, 7, 8, 10, 12, 14, 15, 16, 19, 20, 21, 22, 24, 26, 27]",197.6965299,1798,1633,2,27,9,1.0
undo,22,3,0,0,0,20,"[0, 17, 20]",3,13,"[3, 4, 7, 8, 10, 14, 15, 16, 19, 21, 22, 24, 27]",185.0474192,2170,372,2,24,9,1.0153332121237257
undo,22,3,0,0,0,3,"[0, 17, 20, 3]",4,10,"[4, 7, 8, 10, 14, 15, 16, 19, 21, 24]",164.6513412,2543,373,2,22,9,1.0819240770773468
undo,22,3,0,0,0,21,"[0, 17, 20, 3, 21]",5,6,"[4, 8, 10, 14, 19, 24]",115.4070522,3114,571,7,11,8,1.2004537870665264
undo,22,3,1,0,0,3,"[0, 17, 20, 3]",4,10,"[4, 7, 8, 10, 14, 15, 16, 19, 21, 24]",164.6513412,4936,1822,2,22,9,1.0819240770773468
undo,22,3,0,0,0,19,"[0, 17, 20, 3, 19]",5,6,"[4, 8, 10, 14, 21, 24]",127.3150318,5569,633,2,11,9,1.1701070532957258
undo,22,3,0,0,0,21,"[0, 17, 20, 3, 19, 21]",6,5,"[4, 8, 10, 14, 24]",115.1084762,5984,415,2,6,9,1.202395500952127
undo,22,3,0,0,0,14,"[0, 17, 20, 3, 19, 21, 14]",7,4,"[4, 8, 10, 24]",88.20122806,6648,664,2,2,9,1.6456130302761207
undo,22,3,0,0,0,24,"[0, 17, 20, 3, 19, 21, 14, 24]",8,1,[8],17.08864127,7565,917,1,0,9,4.806859660680286
undo,22,3,0,0,1,8,"[0, 17, 20, 3, 19, 21, 14, 24, 8]",9,0,[],4.923116212,7920,355,1,0,9,4.915218144486606
undo,22,3,0,1,1,8,"[0, 17, 20, 3, 19, 21, 14, 24, 8]",9,0,[],4.923116212,8907,987,1,0,9,4.915218144486606
basic,23,8,0,0,0,0,[0],1,29,"[1, 2, 3, 4, 5, 6, 7, 8, 9, 10, 11, 12, 13, 14, 15, 16, 17, 18, 19, 20, 21, 22, 23, 24, 25, 26, 27, 28, 29]",300,117,-1,10,149,9,0.0
basic,23,8,0,0,0,5,"[0, 5]",2,28,"[1, 2, 3, 4, 6, 7, 8, 9, 10, 11, 12, 13, 14, 15, 16, 17, 18, 19, 20, 21, 22, 23, 24, 25, 26, 27, 28, 29]",254.5137383,2282,2165,10,100,9,1.0
basic,23,8,0,0,0,25,"[0, 5, 25]",3,20,"[1, 2, 3, 4, 6, 11, 12, 14, 15, 16, 17, 18, 19, 20, 21, 22, 23, 24, 28, 29]",215.3091468,2769,487,4,42,9,1.2272747879909065
basic,23,8,0,0,0,1,"[0, 5, 25, 1]",4,17,"[3, 4, 6, 11, 12, 14, 15, 16, 17, 18, 20, 21, 22, 23, 24, 28, 29]",190.3091468,3159,390,3,24,9,1.1770245007593956
basic,23,8,0,0,0,23,"[0, 5, 25, 1, 23]",5,15,"[3, 4, 6, 11, 14, 15, 16, 17, 18, 20, 21, 22, 24, 28, 29]",167.2874179,3515,356,1,14,9,1.141996583852372
basic,23,8,0,0,0,18,"[0, 5, 25, 1, 23, 18]",6,9,"[3, 4, 11, 14, 15, 16, 17, 24, 28]",125.5261919,4209,694,1,7,9,1.3199166330970717
basic,23,8,0,0,0,14,"[0, 5, 25, 1, 23, 18, 14]",7,2,"[11, 17]",68.03706246,4813,604,1,1,9,2.714920831666598
basic,23,8,0,0,0,17,"[0, 5, 25, 1, 23, 18, 14, 17]",8,1,[11],31.02355141,5271,458,1,0,9,2.462600896722246
basic,23,8,0,0,1,11,"[0, 5, 25, 1, 23, 18, 14, 17, 11]",9,0,[],5.84419479,5684,413,1,0,9,2.246839316887767
basic,23,8,0,1,1,11,"[0, 5, 25, 1, 23, 18, 14, 17, 11]",9,0,[],5.84419479,6190,506,1,0,9,2.246839316887767
basic,24,7,0,0,0,0,[0],1,29,"[1, 2, 3, 4, 5, 6, 7, 8, 9, 10, 11, 12, 13, 14, 15, 16, 17, 18, 19, 20, 21, 22, 23, 24, 25, 26, 27, 28, 29]",300,115,-1,3,79,9,0.0
basic,24,7,0,0,0,6,"[0, 6]",2,22,"[2, 4, 5, 7, 8, 9, 10, 11, 13, 14, 15, 16, 18, 19, 20, 21, 22, 23, 24, 25, 27, 28]",231.1160396,3373,3258,1,24,9,1.0
basic,24,7,0,0,0,25,"[0, 6, 25]",3,14,"[2, 4, 5, 7, 13, 14, 15, 16, 18, 19, 20, 21, 23, 28]",163.9371739,3995,622,1,15,9,1.1491202566384209
basic,24,7,0,0,0,4,"[0, 6, 25, 4]",4,10,"[2, 7, 13, 15, 16, 18, 19, 20, 21, 23]",139.1985401,4510,515,1,9,9,1.145081852791697
basic,24,7,0,0,0,20,"[0, 6, 25, 4, 20]",5,6,"[2, 7, 13, 16, 18, 19]",119.5516574,4876,366,1,4,9,1.2036846139155144
basic,24,7,0,0,0,18,"[0, 6, 25, 4, 20, 18]",6,5,"[2, 7, 13, 16, 19]",106.7454089,5227,351,1,3,9,1.3498144584217913
basic,24,7,0,0,0,7,"[0, 6, 25, 4, 20, 18, 7]",7,2,"[2, 19]",65.51435269,5847,620,1,1,9,1.2817825700699357
basic,24,7,0,0,0,19,"[0, 6, 25, 4, 20, 18, 7, 19]",8,1,[2],36.10347035,6266,419,1,0,9,1.3950287830764145
basic,24,7,0,0,1,2,"[0, 6, 25, 4, 20, 18, 7, 19, 2]",9,0,[],5.953843486,6650,384,1,0,9,1.4010142439340676
basic,24,7,0,1,1,2,"[0, 6, 25, 4, 20, 18, 7, 19, 2]",9,0,[],5.953843486,6988,338,1,0,9,1.4010142439340676
basic,25,45,0,0,0,0,[0],1,24,"[1, 2, 3, 4, 5, 6, 7, 9, 10, 11, 12, 14, 15, 16, 17, 19, 20, 21, 22, 23, 24, 25, 27, 29]",300,115,-1,6,248,10,0.0
basic,25,45,0,0,0,15,"[0, 15]",2,23,"[1, 2, 3, 4, 5, 6, 7, 9, 10, 11, 12, 14, 16, 17, 19, 20, 21, 22, 23, 24, 25, 27, 29]",253.9022777,1579,1464,5,207,10,1.0
basic,25,45,0,0,0,23,"[0, 15, 23]",3,22,"[1, 2, 3, 4, 5, 6, 7, 9, 10, 11, 12, 14, 16, 17, 19, 20, 21, 22, 24, 25, 27, 29]",230.3014303,1947,368,5,163,10,1.0006068457769497
basic,25,45,0,0,0,20,"[0, 15, 23, 20]",4,19,"[1, 2, 3, 5, 6, 7, 9, 10, 11, 12, 14, 16, 17, 19, 21, 22, 24, 25, 29]",188.8647316,3154,1207,5,137,10,1.2062119754673604
basic,25,45,0,0,0,24,"[0, 15, 23, 20, 24]",5,14,"[1, 2, 3, 5, 6, 7, 9, 10, 12, 17, 19, 21, 22, 29]",145.0355176,3758,604,1,23,10,1.5044386356496664
basic,25,45,0,0,0,7,"[0, 15, 23, 20, 24, 7]",6,9,"[2, 3, 6, 10, 12, 17, 19, 22, 29]",110.6262165,4452,694,1,22,10,1.4273775035809357
basic,25,45,0,0,0,2,"[0, 15, 23, 20, 24, 7, 2]",7,6,"[3, 6, 10, 12, 22, 29]",72.61306087,5493,1041,1,7,10,1.3566457419165387
basic,25,45,0,0,0,3,"[0, 15, 23, 20, 24, 7, 2, 3]",8,4,"[6, 10, 22, 29]",47.29508307,5960,467,1,3,10,1.4087069987569252
basic,25,45,0,0,0,29,"[0, 15, 23, 20, 24, 7, 2, 3, 29]",9,1,[10],27.29508307,6361,401,1,0,10,1.6931989191216303
basic,25,45,0,0,1,10,"[0, 15, 23, 20, 24, 7, 2, 3, 29, 10]",10,0,[],5.754423843,6977,616,1,0,10,1.9996819797033594
basic,25,45,0,1,1,10,"[0, 15, 23, 20, 24, 7, 2, 3, 29, 10]",10,0,[],5.754423843,7923,946,1,0,10,1.9996819797033594
basic,26,5,0,0,0,0,[0],1,29,"[1, 2, 3, 4, 5, 6, 7, 8, 9, 10, 11, 12, 13, 14, 15, 16, 17, 18, 19, 20, 21, 22, 23, 24, 25, 26, 27, 28, 29]",300,114,-1,5,139,9,0.0
basic,26,5,0,0,0,12,"[0, 12]",2,22,"[2, 4, 5, 6, 8, 9, 10, 13, 14, 15, 16, 17, 18, 19, 21, 22, 23, 24, 25, 26, 27, 28]",228.3062067,6268,6154,1,27,9,1.0
basic,26,5,0,0,0,25,"[0, 12, 25]",3,21,"[2, 4, 5, 6, 8, 9, 10, 13, 14, 15, 16, 17, 18, 19, 21, 22, 23, 24, 26, 27, 28]",200.5213187,6814,546,1,20,9,1.584023303445617
basic,26,5,0,0,0,23,"[0, 12, 25, 23]",4,19,"[2, 4, 5, 6, 8, 9, 10, 13, 14, 15, 16, 17, 18, 19, 21, 22, 24, 26, 27]",182.0822298,7234,420,1,14,9,2.3508446989254357
basic,26,5,0,0,0,24,"[0, 12, 25, 23, 24]",5,15,"[2, 4, 5, 6, 8, 9, 13, 14, 15, 17, 18, 19, 22, 26, 27]",158.995437,7778,544,1,12,9,1.9469752046288753
basic,26,5,0,0,0,17,"[0, 12, 25, 23, 24, 17]",6,7,"[4, 5, 6, 8, 15, 18, 19]",124.0097257,8293,515,1,8,9,1.6482276497563642
basic,26,5,0,0,0,5,"[0, 12, 25, 23, 24, 17, 5]",7,4,"[4, 6, 15, 18]",80.96323916,9027,734,1,3,9,1.4654649104389412
basic,26,5,0,0,1,15,"[0, 12, 25, 23, 24, 17, 5, 15]",8,0,[],40.93824697,9505,478,1,0,8,1.4660376450939663
basic,26,5,0,1,1,15,"[0, 12, 25, 23, 24, 17, 5, 15]",8,0,[],40.93824697,9940,435,1,0,8,1.4660376450939663
basic,27,30,0,0,0,0,[0],1,19,"[3, 4, 5, 7, 9, 11, 16, 17, 18, 19, 20, 21, 22, 24, 25, 26, 27, 28, 29]",300,131,-1,5,41,8,0.0
basic,27,30,0,0,0,16,"[0, 16]",2,17,"[3, 5, 7, 9, 11, 17, 18, 19, 20, 21, 22, 24, 25, 26, 27, 28, 29]",219.3774225,2119,1988,5,34,8,1.0
basic,27,30,0,0,0,25,"[0, 16, 25]",3,10,"[3, 5, 7, 9, 11, 18, 19, 20, 27, 29]",115.0845656,2793,674,5,28,8,1.0336279544884488
basic,27,30,0,0,0,20,"[0, 16, 25, 20]",4,8,"[3, 5, 7, 9, 18, 19, 27, 29]",93.15285342,3192,399,4,14,8,1.0337964627284246
basic,27,30,0,0,0,27,"[0, 16, 25, 20, 27]",5,4,"[3, 5, 18, 29]",59.09408069,3777,585,4,6,8,1.1504365534848
basic,27,30,0,0,0,3,"[0, 16, 25, 20, 27, 3]",6,3,"[5, 18, 29]",39.98910751,4160,383,4,0,8,1.1403876826835333
basic,27,30,0,0,0,29,"[0, 16, 25, 20, 27, 3, 29]",7,1,[18],21.38803228,4583,423,1,0,8,1.1443827771455848
basic,27,30,0,0,1,18,"[0, 16, 25, 20, 27, 3, 29, 18]",8,0,[],2.074824359,5058,475,1,0,8,1.2197761544023602
basic,27,30,0,1,1,18,"[0, 16, 25, 20, 27, 3, 29, 18]",8,0,[],2.074824359,6304,1246,1,0,8,1.2197761544023602
basic,28,35,0,0,0,0,[0],1,29,"[1, 2, 3, 4, 5, 6, 7, 8, 9, 10, 11, 12, 13, 14, 15, 16, 17, 18, 19, 20, 21, 22, 23, 24, 25, 26, 27, 28, 29]",300,131,-1,5,236,11,0.0
basic,28,35,0,0,0,24,"[0, 24]",2,27,"[1, 2, 4, 5, 6, 7, 8, 9, 10, 11, 12, 13, 14, 15, 16, 17, 18, 19, 20, 21, 22, 23, 25, 26, 27, 28, 29]",268.9838752,1339,1208,49,512,10,1.0
basic,28,35,0,0,0,17,"[0, 24, 17]",3,26,"[1, 2, 4, 5, 6, 7, 8, 9, 10, 11, 12, 13, 14, 15, 16, 18, 19, 20, 21, 22, 23, 25, 26, 27, 28, 29]",257.2791753,1699,360,33,238,10,1.0771477201815276
basic,28,35,0,0,0,1,"[0, 24, 17, 1]",4,25,"[2, 4, 5, 6, 7, 8, 9, 10, 11, 12, 13, 14, 15, 16, 18, 19, 20, 21, 22, 23, 25, 26, 27, 28, 29]",241.4677869,2019,320,26,151,10,1.2244804141479215
basic,28,35,0,0,0,23,"[0, 24, 17, 1, 23]",5,14,"[2, 4, 5, 6, 9, 15, 18, 19, 20, 25, 26, 27, 28, 29]",182.9442874,3142,1123,25,33,9,1.1009726708851126
basic,28,35,0,0,0,9,"[0, 24, 17, 1, 23, 9]",6,8,"[5, 6, 15, 18, 19, 25, 27, 28]",145.3012269,3689,547,7,6,9,1.376147155000847
basic,28,35,0,0,0,18,"[0, 24, 17, 1, 23, 9, 18]",7,5,"[5, 6, 15, 19, 25]",125.2762426,4062,373,3,3,9,1.3583304940000351
basic,28,35,0,0,0,25,"[0, 24, 17, 1, 23, 9, 18, 25]",8,1,[6],91.43839392,4564,502,1,0,9,1.2878836036593553
basic,28,35,0,0,1,6,"[0, 24, 17, 1, 23, 9, 18, 25, 6]",9,0,[],67.41756962,5074,510,1,0,9,1.5380229381901187
basic,28,35,0,1,1,6,"[0, 24, 17, 1, 23, 9, 18, 25, 6]",9,0,[],67.41756962,5904,830,1,0,9,1.5380229381901187
basic,29,17,0,0,0,0,[0],1,28,"[1, 2, 3, 4, 5, 6, 7, 8, 9, 10, 11, 12, 13, 14, 15, 16, 17, 18, 19, 20, 22, 23, 24, 25, 26, 27, 28, 29]",300,114,-1,2,73,8,0.0
basic,29,17,0,0,0,9,"[0, 9]",2,25,"[1, 2, 3, 5, 6, 7, 8, 10, 11, 12, 14, 15, 16, 17, 18, 19, 20, 22, 23, 24, 25, 26, 27, 28, 29]",210.5293344,6085,5971,1,34,8,1.0
basic,29,17,0,0,0,16,"[0, 9, 16]",3,21,"[1, 2, 3, 5, 7, 8, 10, 11, 12, 14, 17, 18, 19, 20, 22, 23, 25, 26, 27, 28, 29]",197.1876704,6592,507,1,26,8,1.173103464220352
basic,29,17,0,0,0,2,"[0, 9, 16, 2]",4,18,"[1, 3, 5, 7, 8, 10, 11, 12, 14, 17, 18, 19, 23, 25, 26, 27, 28, 29]",181.0631549,6947,355,1,23,8,1.14825089247282
basic,29,17,0,0,0,8,"[0, 9, 16, 2, 8]",5,9,"[3, 7, 10, 11, 12, 14, 17, 26, 27]",145.9490551,7481,534,1,9,8,1.1509808066472915
basic,29,17,0,0,0,7,"[0, 9, 16, 2, 8, 7]",6,3,"[10, 12, 27]",75.238377,8113,632,3,0,7,1.2222166608088694
basic,29,17,0,0,1,27,"[0, 9, 16, 2, 8, 7, 27]",7,0,[],21.63800387,9330,1217,1,0,7,1.2961096752539074
basic,29,17,0,1,1,27,"[0, 9, 16, 2, 8, 7, 27]",7,0,[],21.63800387,10809,1479,1,0,7,1.2961096752539074
basic,30,10,0,0,0,0,[0],1,29,"[1, 2, 3, 4, 5, 6, 7, 8, 9, 10, 11, 12, 13, 14, 15, 16, 17, 18, 19, 20, 21, 22, 23, 24, 25, 26, 27, 28, 29]",300,117,-1,1,100,9,0.0
basic,30,10,0,0,0,13,"[0, 13]",2,25,"[1, 2, 3, 4, 6, 7, 8, 9, 10, 11, 12, 14, 17, 18, 19, 20, 21, 22, 23, 24, 25, 26, 27, 28, 29]",249.4628849,2248,2131,1,79,9,1.0
basic,30,10,0,0,0,11,"[0, 13, 11]",3,20,"[1, 2, 3, 6, 7, 8, 9, 10, 12, 14, 18, 19, 20, 21, 22, 24, 26, 27, 28, 29]",206.4512586,2775,527,1,54,9,1.0313137484914219
basic,30,10,0,0,0,19,"[0, 13, 11, 19]",4,11,"[2, 6, 8, 9, 10, 14, 18, 20, 24, 26, 27]",170.0919407,3695,920,1,22,9,1.0879446220132545
basic,30,10,0,0,0,2,"[0, 13, 11, 19, 2]",5,4,"[14, 20, 26, 27]",126.1829439,4542,847,1,4,9,1.06474052351343
basic,30,10,0,0,0,14,"[0, 13, 11, 19, 2, 14]",6,3,"[20, 26, 27]",114.0174188,4857,315,1,3,9,1.1628909195912238
basic,30,10,0,0,0,26,"[0, 13, 11, 19, 2, 14, 26]",7,2,"[20, 27]",79.34754716,5337,480,1,1,9,1.6660727647633602
basic,30,10,0,0,0,20,"[0, 13, 11, 19, 2, 14, 26, 20]",8,1,[27],47.56704999,5780,443,1,0,9,2.085581809637999
basic,30,10,0,0,1,27,"[0, 13, 11, 19, 2, 14, 26, 20, 27]",9,0,[],2.312215998,6382,602,1,0,9,1.9116357409137932
basic,30,10,0,1,1,27,"[0, 13, 11, 19, 2, 14, 26, 20, 27]",9,0,[],2.312215998,7040,658,1,0,9,1.9116357409137932
basic,31,28,0,0,0,0,[0],1,27,"[1, 2, 3, 4, 5, 6, 7, 8, 9, 10, 11, 12, 13, 14, 15, 16, 17, 18, 19, 20, 22, 23, 25, 26, 27, 28, 29]",300,115,-1,2,96,9,0.0
basic,31,28,0,0,0,3,"[0, 3]",2,26,"[1, 2, 4, 5, 6, 7, 8, 9, 10, 11, 12, 13, 14, 15, 16, 17, 18, 19, 20, 22, 23, 25, 26, 27, 28, 29]",251.0817008,2616,2501,1,64,9,1.0
basic,31,28,0,0,0,5,"[0, 3, 5]",3,20,"[2, 4, 6, 7, 8, 9, 10, 11, 12, 13, 14, 15, 18, 19, 20, 23, 25, 26, 28, 29]",166.9865166,3226,610,1,34,9,1.0203769473612083
basic,31,28,0,0,0,26,"[0, 3, 5, 26]",4,13,"[2, 4, 7, 8, 9, 12, 13, 14, 18, 19, 20, 25, 28]",134.2298379,3752,526,1,28,9,1.0315203228799597
basic,31,28,0,0,0,19,"[0, 3, 5, 26, 19]",5,7,"[2, 7, 9, 12, 13, 14, 18]",93.22983789,4264,512,1,17,9,1.1324645362297356
basic,31,28,0,0,0,7,"[0, 3, 5, 26, 19, 7]",6,5,"[2, 12, 13, 14, 18]",65.49898864,5675,1411,1,6,9,1.1971194919020265
basic,31,28,0,0,0,12,"[0, 3, 5, 26, 19, 7, 12]",7,2,"[13, 18]",52.3460422,5985,310,1,1,9,1.2020762147848982
basic,31,28,0,0,0,13,"[0, 3, 5, 26, 19, 7, 12, 13]",8,1,[18],35.14139167,6352,367,1,0,9,1.39005144078531
basic,31,28,0,0,1,18,"[0, 3, 5, 26, 19, 7, 12, 13, 18]",9,0,[],10.72828044,7214,862,1,0,9,1.738787343626007
basic,31,28,0,1,1,18,"[0, 3, 5, 26, 19, 7, 12, 13, 18]",9,0,[],10.72828044,7940,726,1,0,9,1.738787343626007
basic,32,24,0,0,0,0,[0],1,29,"[1, 2, 3, 4, 5, 6, 7, 8, 9, 10, 11, 12, 13, 14, 15, 16, 17, 18, 19, 20, 21, 22, 23, 24, 25, 26, 27, 28, 29]",300,116,-1,4,76,10,0.0
basic,32,24,0,0,0,16,"[0, 16]",2,28,"[1, 2, 3, 4, 5, 6, 7, 8, 9, 10, 11, 12, 13, 14, 15, 17, 18, 19, 20, 21, 22, 23, 24, 25, 26, 27, 28, 29]",210.3562607,1000,884,13,110,9,1.0
basic,32,24,0,0,0,22,"[0, 16, 22]",3,27,"[1, 2, 3, 4, 5, 6, 7, 8, 9, 10, 11, 12, 13, 14, 15, 17, 18, 19, 20, 21, 23, 24, 25, 26, 27, 28, 29]",192.3285043,1447,447,7,54,9,1.0217425143037777
basic,32,24,0,0,0,8,"[0, 16, 22, 8]",4,21,"[1, 2, 3, 4, 6, 9, 10, 11, 13, 14, 15, 17, 20, 21, 23, 24, 25, 26, 27, 28, 29]",178.9120964,1769,322,4,28,9,1.0996636936037951
basic,32,24,0,0,0,15,"[0, 16, 22, 8, 15]",5,16,"[3, 4, 6, 9, 10, 11, 13, 14, 17, 23, 24, 25, 26, 27, 28, 29]",148.025206,2294,525,3,17,9,1.2704773343758617
basic,32,24,0,0,0,28,"[0, 16, 22, 8, 15, 28]",6,8,"[3, 4, 9, 11, 13, 23, 26, 27]",102.7482803,2831,537,3,5,9,1.1981967578189556
basic,32,24,0,0,0,23,"[0, 16, 22, 8, 15, 28, 23]",7,3,"[9, 11, 27]",83.72198273,3179,348,3,1,9,1.2275650852813986
basic,32,24,0,0,0,11,"[0, 16, 22, 8, 15, 28, 23, 11]",8,2,"[9, 27]",56.79615869,3543,364,2,0,9,1.2107937989822568
basic,32,24,0,0,1,9,"[0, 16, 22, 8, 15, 28, 23, 11, 9]",9,0,[],24.5471277,4116,573,1,0,9,1.2976612913524237
basic,32,24,0,1,1,9,"[0, 16, 22, 8, 15, 28, 23, 11, 9]",9,0,[],24.5471277,5588,1472,1,0,9,1.2976612913524237
basic,33,36,0,0,0,0,[0],1,24,"[2, 4, 5, 6, 7, 8, 9, 10, 12, 13, 14, 15, 16, 17, 18, 19, 20, 22, 23, 25, 26, 27, 28, 29]",300,116,-1,2,200,10,0.0
basic,33,36,0,0,0,12,"[0, 12]",2,23,"[2, 4, 5, 6, 7, 8, 9, 10, 13, 14, 15, 16, 17, 18, 19, 20, 22, 23, 25, 26, 27, 28, 29]",277.7963967,2897,2781,90,804,9,1.0
basic,33,36,0,0,0,9,"[0, 12, 9]",3,14,"[2, 4, 8, 10, 13, 16, 17, 18, 19, 23, 25, 27, 28, 29]",215.4345494,4373,1476,32,191,9,1.224429481246385
basic,33,36,0,0,0,17,"[0, 12, 9, 17]",4,11,"[2, 4, 8, 10, 13, 16, 18, 19, 23, 25, 27]",189.1857399,4914,541,8,54,9,1.1724571624470872
basic,33,36,0,0,0,19,"[0, 12, 9, 17, 19]",5,8,"[2, 4, 10, 13, 16, 18, 23, 25]",161.2930885,5524,610,3,14,9,1.7995682634090462
basic,33,36,0,0,0,13,"[0, 12, 9, 17, 19, 13]",6,6,"[2, 4, 10, 16, 18, 25]",117.8765018,6114,590,1,4,9,1.8568569502077603
basic,33,36,0,0,0,25,"[0, 12, 9, 17, 19, 13, 25]",7,3,"[2, 10, 16]",97.28524155,6454,340,1,2,9,1.7705865134397563
basic,33,36,0,0,0,2,"[0, 12, 9, 17, 19, 13, 25, 2]",8,1,[16],72.28524155,6929,475,1,0,9,2.0164385832892004
basic,33,36,0,1,0,2,"[0, 12, 9, 17, 19, 13, 25, 2]",8,1,[16],72.28524155,8775,1846,1,0,9,2.0164385832892004
basic,34,18,0,0,0,0,[0],1,28,"[1, 2, 3, 4, 5, 6, 7, 8, 9, 10, 11, 12, 13, 14, 16, 17, 18, 19, 20, 21, 22, 23, 24, 25, 26, 27, 28, 29]",300,116,-1,3,136,10,0.0
basic,34,18,0,0,0,28,"[0, 28]",2,16,"[1, 3, 5, 7, 8, 9, 12, 13, 14, 16, 20, 23, 24, 25, 26, 27]",236.4311397,3164,3048,2,19,10,1.0
basic,34,18,0,0,0,7,"[0, 28, 7]",3,15,"[1, 3, 5, 8, 9, 12, 13, 14, 16, 20, 23, 24, 25, 26, 27]",214.4084242,3628,464,2,17,10,1.4345180696367563
basic,34,18,0,0,0,25,"[0, 28, 7, 25]",4,13,"[1, 3, 5, 8, 9, 12, 13, 14, 16, 20, 23, 26, 27]",186.6055466,4441,813,2,15,10,1.8896451241781882
basic,34,18,0,0,0,8,"[0, 28, 7, 25, 8]",5,10,"[3, 5, 9, 12, 13, 14, 16, 23, 26, 27]",149.551532,5211,770,2,10,10,1.590467437592877
basic,34,18,0,0,0,13,"[0, 28, 7, 25, 8, 13]",6,9,"[3, 5, 9, 12, 14, 16, 23, 26, 27]",128.4565089,5751,540,2,5,10,1.8248274983549797
basic,34,18,0,0,0,14,"[0, 28, 7, 25, 8, 13, 14]",7,7,"[3, 5, 9, 12, 23, 26, 27]",109.4828429,6064,313,2,3,10,1.6993534956692746
basic,34,18,0,0,0,3,"[0, 28, 7, 25, 8, 13, 14, 3]",8,3,"[5, 12, 27]",79.39962499,6500,436,2,1,10,1.802637206541468
basic,34,18,0,0,0,5,"[0, 28, 7, 25, 8, 13, 14, 3, 5]",9,1,[12],21.21887216,7384,884,1,0,10,1.559774889743805
basic,34,18,0,0,1,12,"[0, 28, 7, 25, 8, 13, 14, 3, 5, 12]",10,0,[],9.817117911,7884,500,1,0,10,1.563993037384447
basic,34,18,0,1,1,12,"[0, 28, 7, 25, 8, 13, 14, 3, 5, 12]",10,0,[],9.817117911,8641,757,1,0,10,1.563993037384447
basic,35,12,0,0,0,0,[0],1,29,"[1, 2, 3, 4, 5, 6, 7, 8, 9, 10, 11, 12, 13, 14, 15, 16, 17, 18, 19, 20, 21, 22, 23, 24, 25, 26, 27, 28, 29]",300,115,-1,2,32,9,0.0
basic,35,12,0,0,0,22,"[0, 22]",2,22,"[2, 4, 5, 6, 7, 9, 10, 12, 13, 14, 15, 16, 17, 18, 19, 21, 23, 24, 25, 27, 28, 29]",211.9943184,2181,2066,6,42,8,1.0
basic,35,12,0,0,0,16,"[0, 22, 16]",3,12,"[2, 4, 5, 6, 7, 12, 14, 19, 23, 24, 25, 27]",190.9943184,3126,945,6,24,8,1.2017164145167045
basic,35,12,0,0,0,4,"[0, 22, 16, 4]",4,9,"[2, 6, 7, 12, 14, 19, 24, 25, 27]",156.7890556,3605,479,6,14,8,1.146531713305579
basic,35,12,0,0,0,12,"[0, 22, 16, 4, 12]",5,4,"[14, 19, 24, 27]",114.5990094,4070,465,4,3,8,1.1221389456954312
basic,35,12,0,0,0,27,"[0, 22, 16, 4, 12, 27]",6,3,"[14, 19, 24]",90.24741807,4439,369,2,1,8,1.2262878338287035
basic,35,12,0,0,0,14,"[0, 22, 16, 4, 12, 27, 14]",7,1,[24],61.59432051,4875,436,1,0,8,1.2804562106751427
basic,35,12,0,0,1,24,"[0, 22, 16, 4, 12, 27, 14, 24]",8,0,[],44.38966997,5253,378,1,0,8,1.4322660007679802
basic,35,12,0,1,1,24,"[0, 22, 16, 4, 12, 27, 14, 24]",8,0,[],44.38966997,6138,885,1,0,8,1.4322660007679802
basic,36,14,0,0,0,0,[0],1,29,"[1, 2, 3, 4, 5, 6, 7, 8, 9, 10, 11, 12, 13, 14, 15, 16, 17, 18, 19, 20, 21, 22, 23, 24, 25, 26, 27, 28, 29]",300,116,-1,8,157,10,0.0
basic,36,14,0,0,0,15,"[0, 15]",2,20,"[1, 2, 3, 4, 7, 8, 9, 13, 17, 18, 19, 20, 21, 22, 23, 25, 26, 27, 28, 29]",216.7053423,1316,1200,8,102,10,1.0
basic,36,14,0,0,0,28,"[0, 15, 28]",3,17,"[1, 2, 3, 4, 7, 8, 9, 13, 17, 18, 19, 20, 22, 23, 25, 26, 27]",197.4959696,1694,378,8,48,10,1.0446007867311968
basic,36,14,0,0,0,17,"[0, 15, 28, 17]",4,14,"[1, 2, 3, 4, 7, 8, 13, 18, 19, 20, 22, 23, 25, 26]",184.0423455,2096,402,8,39,10,1.0729463354689972
basic,36,14,0,0,0,18,"[0, 15, 28, 17, 18]",5,9,"[1, 2, 4, 7, 8, 19, 23, 25, 26]",119.412631,2672,576,8,27,10,1.5035901079219378
basic,36,14,0,0,0,8,"[0, 15, 28, 17, 18, 8]",6,8,"[1, 2, 4, 7, 19, 23, 25, 26]",105.8111605,3079,407,8,18,10,1.4819689987843856
basic,36,14,0,0,0,1,"[0, 15, 28, 17, 18, 8, 1]",7,5,"[7, 19, 23, 25, 26]",82.21031307,4000,921,4,6,10,1.4084991998385268
basic,36,14,0,0,0,19,"[0, 15, 28, 17, 18, 8, 1, 19]",8,4,"[7, 23, 25, 26]",66.97876686,4344,344,4,1,10,1.5758713333797987
basic,36,14,0,0,0,25,"[0, 15, 28, 17, 18, 8, 1, 19, 25]",9,2,"[7, 23]",31.1318702,4909,565,2,0,10,1.6426186864061416
basic,36,14,0,0,1,7,"[0, 15, 28, 17, 18, 8, 1, 19, 25, 7]",10,0,[],11.4341546,5435,526,1,0,10,1.652323224159132
basic,36,14,0,1,1,7,"[0, 15, 28, 17, 18, 8, 1, 19, 25, 7]",10,0,[],11.4341546,6222,787,1,0,10,1.652323224159132
basic,37,20,0,0,0,0,[0],1,21,"[1, 2, 3, 4, 5, 6, 7, 8, 9, 12, 17, 18, 20, 21, 22, 23, 25, 26, 27, 28, 29]",300,115,-1,1,9,9,0.0
basic,37,20,0,0,0,12,"[0, 12]",2,20,"[1, 2, 3, 4, 5, 6, 7, 8, 9, 17, 18, 20, 21, 22, 23, 25, 26, 27, 28, 29]",271.5570747,2236,2121,1,8,9,1.0
basic,37,20,0,0,0,1,"[0, 12, 1]",3,12,"[3, 4, 5, 6, 8, 9, 20, 21, 23, 27, 28, 29]",189.5692707,3797,1561,1,6,9,1.0757997779162911
basic,37,20,0,0,0,5,"[0, 12, 1, 5]",4,10,"[4, 6, 8, 9, 20, 21, 23, 27, 28, 29]",152.8950291,4352,555,1,5,9,1.1708231454516806
basic,37,20,0,0,0,21,"[0, 12, 1, 5, 21]",5,8,"[4, 6, 8, 9, 20, 23, 27, 28]",107.8950291,4834,482,1,4,9,1.126197336199212
basic,37,20,0,0,0,8,"[0, 12, 1, 5, 21, 8]",6,5,"[6, 9, 23, 27, 28]",90.43077988,5159,325,1,3,9,1.140007470699913
basic,37,20,0,0,0,23,"[0, 12, 1, 5, 21, 8, 23]",7,2,"[6, 9]",45.74297394,6598,1439,1,1,9,1.1162257896627588
basic,37,20,0,0,0,9,"[0, 12, 1, 5, 21, 8, 23, 9]",8,1,[6],26.53360123,6952,354,1,0,9,1.1086880559449597
basic,37,20,0,0,1,6,"[0, 12, 1, 5, 21, 8, 23, 9, 6]",9,0,[],3.511872362,7499,547,1,0,9,1.1186240265999328
basic,37,20,0,1,1,6,"[0, 12, 1, 5, 21, 8, 23, 9, 6]",9,0,[],3.511872362,7956,457,1,0,9,1.1186240265999328
basic,38,22,0,0,0,0,[0],1,29,"[1, 2, 3, 4, 5, 6, 7, 8, 9, 10, 11, 12, 13, 14, 15, 16, 17, 18, 19, 20, 21, 22, 23, 24, 25, 26, 27, 28, 29]",300,115,-1,31,704,9,0.0
basic,38,22,0,0,0,16,"[0, 16]",2,21,"[1, 3, 6, 7, 8, 9, 11, 13, 14, 15, 17, 18, 19, 20, 21, 22, 24, 25, 27, 28, 29]",218.605897,1090,975,17,147,9,1.0
basic,38,22,0,0,0,28,"[0, 16, 28]",3,13,"[6, 7, 9, 13, 14, 17, 19, 20, 21, 22, 24, 25, 29]",184.1675463,1565,475,12,61,9,1.047282311284478
basic,38,22,0,0,0,6,"[0, 16, 28, 6]",4,12,"[7, 9, 13, 14, 17, 19, 20, 21, 22, 24, 25, 29]",154.1675463,1998,433,12,43,9,1.645645870580622
basic,38,22,0,0,0,9,"[0, 16, 28, 6, 9]",5,8,"[7, 14, 17, 19, 20, 21, 24, 29]",127.5404924,2476,478,8,17,9,1.925750226630103
basic,38,22,0,0,0,19,"[0, 16, 28, 6, 9, 19]",6,6,"[7, 14, 17, 21, 24, 29]",107.1444143,2953,477,3,7,9,2.4220750331476455
basic,38,22,0,0,0,29,"[0, 16, 28, 6, 9, 19, 29]",7,4,"[7, 14, 17, 24]",92.11111796,3258,305,2,2,9,2.6996279574991067
basic,38,22,0,0,0,14,"[0, 16, 28, 6, 9, 19, 29, 14]",8,1,[7],33.86165444,5483,2225,1,0,9,2.0544639927929462
basic,38,22,0,0,1,7,"[0, 16, 28, 6, 9, 19, 29, 14, 7]",9,0,[],20.82324963,5877,394,1,0,9,2.219817088951114
basic,38,22,0,1,1,7,"[0, 16, 28, 6, 9, 19, 29, 14, 7]",9,0,[],20.82324963,6589,712,1,0,9,2.219817088951114
basic,39,3,0,0,0,0,[0],1,29,"[1, 2, 3, 4, 5, 6, 7, 8, 9, 10, 11, 12, 13, 14, 15, 16, 17, 18, 19, 20, 21, 22, 23, 24, 25, 26, 27, 28, 29]",300,115,-1,34,427,10,0.0
basic,39,3,0,0,0,8,"[0, 8]",2,28,"[1, 2, 3, 4, 5, 6, 7, 9, 10, 11, 12, 13, 14, 15, 16, 17, 18, 19, 20, 21, 22, 23, 24, 25, 26, 27, 28, 29]",239.9666759,1157,1042,1,54,10,1.0
basic,39,3,0,0,0,24,"[0, 8, 24]",3,23,"[1, 2, 3, 4, 5, 6, 7, 10, 11, 12, 14, 15, 16, 17, 18, 19, 20, 21, 22, 25, 26, 27, 28]",227.8011509,1457,300,1,50,10,1.2267083825981846
basic,39,3,0,0,0,17,"[0, 8, 24, 17]",4,11,"[3, 4, 7, 10, 14, 15, 16, 19, 20, 21, 27]",158.4469873,2741,1284,1,18,10,1.3836579788002414
basic,39,3,0,0,0,20,"[0, 8, 24, 17, 20]",5,9,"[3, 4, 7, 10, 14, 15, 16, 19, 21]",145.7978767,3266,525,1,14,10,1.3620097615632467
basic,39,3,0,0,0,3,"[0, 8, 24, 17, 20, 3]",6,5,"[4, 10, 14, 19, 21]",125.4017986,3732,466,1,11,10,1.3956695218398405
basic,39,3,0,0,0,19,"[0, 8, 24, 17, 20, 3, 19]",7,4,"[4, 10, 14, 21]",88.06548922,4390,658,1,4,10,1.4360605238855817
basic,39,3,0,0,0,21,"[0, 8, 24, 17, 20, 3, 19, 21]",8,2,"[10, 14]",75.85893361,4791,401,1,1,10,1.4576450248605066
basic,39,3,0,0,0,14,"[0, 8, 24, 17, 20, 3, 19, 21, 14]",9,1,[10],48.95168551,5274,483,1,0,10,1.9505702217699148
basic,39,3,0,0,1,10,"[0, 8, 24, 17, 20, 3, 19, 21, 14, 10]",10,0,[],3.498412803,6021,747,1,0,10,1.8830527336542522
basic,39,3,0,1,1,10,"[0, 8, 24, 17, 20, 3, 19, 21, 14, 10]",10,0,[],3.498412803,6387,366,1,0,10,1.8830527336542522
basic,40,11,0,0,0,0,[0],1,25,"[1, 2, 3, 4, 5, 6, 8, 9, 10, 11, 12, 13, 14, 15, 16, 17, 18, 19, 20, 22, 23, 25, 26, 27, 28]",300,166,-1,6,374,12,0.0
basic,40,11,0,0,0,18,"[0, 18]",2,21,"[1, 2, 4, 5, 6, 8, 9, 11, 12, 13, 14, 15, 16, 17, 19, 20, 22, 23, 25, 27, 28]",236.8493864,1877,1711,157,1477,11,1.0
basic,40,11,0,0,0,27,"[0, 18, 27]",3,19,"[1, 2, 4, 5, 6, 8, 9, 11, 12, 14, 15, 16, 17, 19, 20, 22, 23, 25, 28]",212.9956655,2364,487,157,1315,11,1.060949579704323
basic,40,11,0,0,0,8,"[0, 18, 27, 8]",4,14,"[1, 2, 4, 5, 6, 11, 12, 15, 17, 19, 22, 23, 25, 28]",142.7817068,3013,649,68,433,11,1.0827202875589923
basic,40,11,0,0,0,17,"[0, 18, 27, 8, 17]",5,13,"[1, 2, 4, 5, 6, 11, 12, 15, 19, 22, 23, 25, 28]",128.4638857,3399,386,42,137,11,1.1662918234607762
basic,40,11,0,0,0,15,"[0, 18, 27, 8, 17, 15]",6,9,"[2, 5, 6, 11, 12, 19, 22, 25, 28]",115.8147751,4057,658,38,57,11,1.1741312027420885
basic,40,11,0,0,0,11,"[0, 18, 27, 8, 17, 15, 11]",7,7,"[2, 5, 6, 12, 19, 22, 28]",97.70400479,4457,400,24,0,11,1.1668679039564056
basic,40,11,0,0,0,28,"[0, 18, 27, 8, 17, 15, 11, 28]",8,4,"[2, 5, 19, 22]",78.28751696,5485,1028,6,0,11,1.2830334294205898
basic,40,11,0,0,0,5,"[0, 18, 27, 8, 17, 15, 11, 28, 5]",9,2,"[2, 22]",60.39897314,6075,590,2,0,11,1.472719061667125
basic,40,11,0,0,0,2,"[0, 18, 27, 8, 17, 15, 11, 28, 5, 2]",10,1,[22],43.39897314,6487,412,1,0,11,1.437636650715907
basic,40,11,0,0,1,22,"[0, 18, 27, 8, 17, 15, 11, 28, 5, 2, 22]",11,0,[],33.34909751,6870,383,1,0,11,1.414339916866727
basic,40,11,0,1,1,22,"[0, 18, 27, 8, 17, 15, 11, 28, 5, 2, 22]",11,0,[],33.34909751,8124,1254,1,0,11,1.414339916866727
basic,41,41,0,0,0,0,[0],1,29,"[1, 2, 3, 4, 5, 6, 7, 8, 9, 10, 11, 12, 13, 14, 15, 16, 17, 18, 19, 20, 21, 22, 23, 24, 25, 26, 27, 28, 29]",300,147,-1,1,143,10,0.0
basic,41,41,0,0,0,13,"[0, 13]",2,23,"[1, 2, 3, 5, 6, 7, 9, 10, 11, 12, 14, 15, 17, 18, 19, 20, 21, 22, 24, 25, 26, 27, 28]",258.2747079,7942,7795,1,55,10,1.0
basic,41,41,0,0,0,28,"[0, 13, 28]",3,22,"[1, 2, 3, 5, 6, 7, 9, 10, 11, 12, 14, 15, 17, 18, 19, 20, 21, 22, 24, 25, 26, 27]",223.7928286,8469,527,1,39,10,1.895724242592676
basic,41,41,0,0,0,5,"[0, 13, 28, 5]",4,19,"[1, 2, 3, 6, 9, 10, 11, 12, 14, 15, 17, 18, 19, 20, 21, 22, 24, 25, 27]",210.1913581,8803,334,1,34,10,2.861541269398273
basic,41,41,0,0,0,3,"[0, 13, 28, 5, 3]",5,16,"[1, 2, 6, 9, 10, 12, 14, 17, 18, 19, 20, 21, 22, 24, 25, 27]",175.3632086,9515,712,1,22,10,3.1455488489005883
basic,41,41,0,0,0,21,"[0, 13, 28, 5, 3, 21]",6,14,"[1, 2, 6, 9, 10, 12, 14, 17, 18, 19, 20, 22, 25, 27]",143.2228912,10661,1146,13,11,9,3.207558429289677
basic,41,41,0,0,0,9,"[0, 13, 28, 5, 3, 21, 9]",7,6,"[1, 2, 10, 12, 14, 17]",93.85691102,11803,1142,7,4,9,2.5050148501792275
basic,41,41,0,0,0,2,"[0, 13, 28, 5, 3, 21, 9, 2]",8,5,"[1, 10, 12, 14, 17]",81.77386505,12108,305,5,0,9,2.4119643847713177
basic,41,41,0,0,1,17,"[0, 13, 28, 5, 3, 21, 9, 2, 17]",9,0,[],49.21622385,12714,606,1,0,9,3.9563478735796007
basic,41,41,0,1,1,17,"[0, 13, 28, 5, 3, 21, 9, 2, 17]",9,0,[],49.21622385,14863,2149,1,0,9,3.9563478735796007
basic,42,38,0,0,0,0,[0],1,29,"[1, 2, 3, 4, 5, 6, 7, 8, 9, 10, 11, 12, 13, 14, 15, 16, 17, 18, 19, 20, 21, 22, 23, 24, 25, 26, 27, 28, 29]",300,114,-1,33,506,9,0.0
basic,42,38,0,0,0,11,"[0, 11]",2,23,"[1, 2, 3, 4, 5, 7, 10, 12, 13, 14, 15, 16, 17, 18, 19, 20, 21, 22, 24, 25, 26, 27, 28]",220.093805,2786,2672,2,40,9,1.0
basic,42,38,0,0,0,28,"[0, 11, 28]",3,16,"[1, 4, 5, 7, 10, 12, 13, 14, 15, 16, 17, 19, 20, 21, 24, 26]",193.0752928,3288,502,2,20,9,1.0012220945316377
basic,42,38,0,0,0,16,"[0, 11, 28, 16]",4,13,"[1, 4, 5, 10, 12, 13, 14, 15, 17, 19, 20, 24, 26]",164.0752928,3815,527,2,16,9,1.2422672958602723
basic,42,38,0,0,0,15,"[0, 11, 28, 16, 15]",5,9,"[4, 5, 13, 14, 17, 19, 20, 24, 26]",122.4579887,5139,1324,2,14,9,2.4196280466601676
basic,42,38,0,0,0,4,"[0, 11, 28, 16, 15, 4]",6,6,"[13, 17, 19, 20, 24, 26]",96.45798873,5548,409,2,9,9,2.9030072771852855
basic,42,38,0,0,0,20,"[0, 11, 28, 16, 15, 4, 20]",7,3,"[13, 17, 19]",62.51686323,7807,2259,1,2,9,4.409951139385221
basic,42,38,0,0,0,17,"[0, 11, 28, 16, 15, 4, 20, 17]",8,1,[19],38.74713459,8475,668,1,0,9,4.030739410625113
basic,42,38,0,0,1,19,"[0, 11, 28, 16, 15, 4, 20, 17, 19]",9,0,[],17.36957626,8881,406,1,0,9,3.511004666623391
basic,42,38,0,1,1,19,"[0, 11, 28, 16, 15, 4, 20, 17, 19]",9,0,[],17.36957626,9356,475,1,0,9,3.511004666623391
basic,43,44,0,0,0,0,[0],1,29,"[1, 2, 3, 4, 5, 6, 7, 8, 9, 10, 11, 12, 13, 14, 15, 16, 17, 18, 19, 20, 21, 22, 23, 24, 25, 26, 27, 28, 29]",300,115,-1,13,126,7,0.0
basic,43,44,0,0,0,11,"[0, 11]",2,18,"[4, 5, 6, 7, 8, 9, 12, 14, 16, 17, 19, 20, 22, 23, 24, 25, 26, 28]",152.7790776,1687,1572,5,34,7,1.0
basic,43,44,0,0,0,24,"[0, 11, 24]",3,13,"[4, 5, 7, 8, 9, 12, 14, 17, 20, 22, 23, 25, 28]",125.8532535,2370,683,5,23,7,1.1588941745226709
basic,43,44,0,0,0,9,"[0, 11, 24, 9]",4,7,"[4, 7, 8, 12, 14, 20, 23]",93.09657483,2834,464,2,8,7,1.3039383713641313
basic,43,44,0,0,0,4,"[0, 11, 24, 9, 4]",5,5,"[7, 12, 14, 20, 23]",73.39885923,3327,493,2,3,7,1.2901330701441578
basic,43,44,0,0,0,7,"[0, 11, 24, 9, 4, 7]",6,1,[23],42.38273439,3834,507,1,0,7,1.2468141312360979
basic,43,44,0,0,1,23,"[0, 11, 24, 9, 4, 7, 23]",7,0,[],23.27776121,4271,437,1,0,7,1.2635191782769477
basic,43,44,0,1,1,23,"[0, 11, 24, 9, 4, 7, 23]",7,0,[],23.27776121,4703,432,1,0,7,1.2635191782769477
basic,44,40,0,0,0,0,[0],1,29,"[1, 2, 3, 4, 5, 6, 7, 8, 9, 10, 11, 12, 13, 14, 15, 16, 17, 18, 19, 20, 21, 22, 23, 24, 25, 26, 27, 28, 29]",300,116,-1,8,191,9,0.0
basic,44,40,0,0,0,1,"[0, 1]",2,18,"[2, 5, 6, 7, 8, 9, 10, 11, 13, 15, 17, 18, 19, 21, 22, 23, 27, 29]",247.8463808,1370,1254,4,80,9,1.0
basic,44,40,0,0,0,6,"[0, 1, 6]",3,17,"[2, 5, 7, 8, 9, 10, 11, 13, 15, 17, 18, 19, 21, 22, 23, 27, 29]",227.7466295,1747,377,4,74,9,1.0459427008232034
basic,44,40,0,0,0,21,"[0, 1, 6, 21]",4,8,"[2, 5, 9, 17, 18, 19, 22, 23]",175.7754837,2387,640,4,25,9,1.0308822257404064
basic,44,40,0,0,0,9,"[0, 1, 6, 21, 9]",5,6,"[2, 5, 18, 19, 22, 23]",130.0699041,2931,544,4,12,9,1.377861912961129
basic,44,40,0,0,0,18,"[0, 1, 6, 21, 9, 18]",6,5,"[2, 5, 19, 22, 23]",113.5169588,3310,379,4,4,9,1.5742712168661408
basic,44,40,0,0,0,5,"[0, 1, 6, 21, 9, 18, 5]",7,3,"[19, 22, 23]",81.94165198,4089,779,2,1,9,1.7730665063055515
basic,44,40,0,0,0,23,"[0, 1, 6, 21, 9, 18, 5, 23]",8,1,[19],53.63970859,4670,581,1,0,9,2.597442759912231
basic,44,40,0,0,1,19,"[0, 1, 6, 21, 9, 18, 5, 23, 19]",9,0,[],21.68661797,5124,454,1,0,9,2.7128328554069565
basic,44,40,0,1,1,19,"[0, 1, 6, 21, 9, 18, 5, 23, 19]",9,0,[],21.68661797,5637,513,1,0,9,2.7128328554069565
basic,45,4,0,0,0,0,[0],1,26,"[3, 4, 5, 6, 7, 8, 10, 11, 12, 13, 14, 15, 16, 17, 18, 19, 20, 21, 22, 23, 24, 25, 26, 27, 28, 29]",300,115,-1,4,489,10,0.0
basic,45,4,0,0,0,13,"[0, 13]",2,23,"[3, 4, 5, 6, 7, 10, 11, 12, 14, 15, 16, 17, 19, 20, 21, 22, 23, 24, 25, 26, 27, 28, 29]",232.1030192,2472,2357,2,270,10,1.0
basic,45,4,0,0,0,28,"[0, 13, 28]",3,19,"[3, 4, 5, 6, 10, 11, 12, 14, 15, 16, 17, 19, 20, 21, 22, 23, 24, 25, 26]",200.5277124,3076,604,2,221,10,1.3431168257921573
basic,45,4,0,0,0,14,"[0, 13, 28, 14]",4,11,"[3, 4, 5, 6, 11, 16, 17, 20, 21, 22, 25]",134.2857318,3725,649,28,123,9,1.2134786195381546
basic,45,4,0,0,0,25,"[0, 13, 28, 14, 25]",5,10,"[3, 4, 5, 6, 11, 16, 17, 20, 21, 22]",118.1612163,4160,435,22,51,9,1.4339367384350254
basic,45,4,0,0,0,11,"[0, 13, 28, 14, 25, 11]",6,9,"[3, 4, 5, 6, 16, 17, 20, 21, 22]",99.37292203,4585,425,11,18,9,1.632788140935394
basic,45,4,0,0,0,16,"[0, 13, 28, 14, 25, 11, 16]",7,6,"[3, 5, 17, 20, 21, 22]",84.37292203,4958,373,9,2,9,1.5642820747024264
basic,45,4,0,0,0,21,"[0, 13, 28, 14, 25, 11, 16, 21]",8,2,"[20, 22]",40.16884982,5535,577,2,0,9,1.7579851057756917
basic,45,4,0,0,1,22,"[0, 13, 28, 14, 25, 11, 16, 21, 22]",9,0,[],29.12348881,5876,341,1,0,9,1.7072764875626198
basic,45,4,0,1,1,22,"[0, 13, 28, 14, 25, 11, 16, 21, 22]",9,0,[],29.12348881,7273,1397,1,0,9,1.7072764875626198
basic,46,34,0,0,0,0,[0],1,25,"[1, 3, 4, 5, 6, 7, 8, 9, 10, 11, 12, 13, 15, 18, 19, 20, 21, 22, 23, 24, 25, 26, 27, 28, 29]",300,133,-1,12,367,10,0.0
basic,46,34,0,0,0,13,"[0, 13]",2,24,"[1, 3, 4, 5, 6, 7, 8, 9, 10, 11, 12, 15, 18, 19, 20, 21, 22, 23, 24, 25, 26, 27, 28, 29]",279.9750156,1541,1408,12,331,10,1.0
basic,46,34,0,0,0,1,"[0, 13, 1]",3,16,"[3, 5, 7, 8, 9, 10, 11, 12, 19, 21, 22, 23, 24, 25, 27, 29]",211.8574701,2217,676,3,92,10,1.0010381285747127
basic,46,34,0,0,0,8,"[0, 13, 1, 8]",4,14,"[3, 5, 7, 9, 10, 11, 12, 19, 22, 23, 24, 25, 27, 29]",201.0871405,2522,305,2,54,10,1.1636807
basic,46,34,0,0,0,25,"[0, 13, 1, 8, 25]",5,12,"[3, 5, 7, 9, 10, 11, 12, 22, 23, 24, 27, 29]",183.999133,2867,345,2,28,10,1.1396208815936457
basic,46,34,0,0,0,24,"[0, 13, 1, 8, 25, 24]",6,11,"[3, 5, 7, 9, 10, 11, 12, 22, 23, 27, 29]",166.5062774,3196,329,2,23,10,1.374180768736554
basic,46,34,0,0,0,12,"[0, 13, 1, 8, 25, 24, 12]",7,7,"[7, 9, 10, 11, 22, 23, 27]",115.4670767,3742,546,1,8,10,1.4994254760835948
basic,46,34,0,0,0,7,"[0, 13, 1, 8, 25, 24, 12, 7]",8,5,"[9, 11, 22, 23, 27]",100.4337804,4157,415,1,4,10,1.758992610425009
basic,46,34,0,0,0,23,"[0, 13, 1, 8, 25, 24, 12, 7, 23]",9,1,[27],72.27352467,4611,454,1,0,10,2.399781305190153
basic,46,34,0,0,1,27,"[0, 13, 1, 8, 25, 24, 12, 7, 23, 27]",10,0,[],18.60789321,5304,693,1,0,10,4.766619878750327
basic,46,34,0,1,1,27,"[0, 13, 1, 8, 25, 24, 12, 7, 23, 27]",10,0,[],18.60789321,5706,402,1,0,10,4.766619878750327
basic,47,15,0,0,0,0,[0],1,25,"[1, 2, 3, 4, 7, 8, 9, 10, 11, 12, 13, 14, 15, 16, 18, 20, 21, 22, 23, 24, 25, 26, 27, 28, 29]",300,115,-1,4,65,9,0.0
basic,47,15,0,0,0,21,"[0, 21]",2,17,"[1, 3, 4, 7, 8, 9, 11, 12, 13, 14, 15, 16, 22, 23, 24, 26, 27]",204.9158268,1815,1700,21,65,7,1.0
basic,47,15,0,0,0,12,"[0, 21, 12]",3,14,"[1, 3, 4, 7, 8, 9, 11, 13, 14, 15, 16, 22, 24, 27]",161.0866128,2210,395,20,39,7,1.6068212046294776
basic,47,15,0,0,0,7,"[0, 21, 12, 7]",4,10,"[3, 4, 9, 11, 13, 14, 15, 16, 22, 27]",127.8450725,2668,458,13,11,7,2.0298522511797907
basic,47,15,0,0,0,16,"[0, 21, 12, 7, 16]",5,5,"[3, 4, 11, 15, 22]",84.18731258,3458,790,3,3,7,1.8904046427013528
basic,47,15,0,0,0,11,"[0, 21, 12, 7, 16, 11]",6,1,[3],58.16808892,3883,425,1,0,7,1.9475991988988648
basic,47,15,0,0,1,3,"[0, 21, 12, 7, 16, 11, 3]",7,0,[],46.76633467,4242,359,1,0,7,1.912955285957019
basic,47,15,0,1,1,3,"[0, 21, 12, 7, 16, 11, 3]",7,0,[],46.76633467,5404,1162,1,0,7,1.912955285957019
basic,48,26,0,0,0,0,[0],1,29,"[1, 2, 3, 4, 5, 6, 7, 8, 9, 10, 11, 12, 13, 14, 15, 16, 17, 18, 19, 20, 21, 22, 23, 24, 25, 26, 27, 28, 29]",300,132,-1,9,226,9,0.0
basic,48,26,0,0,0,21,"[0, 21]",2,25,"[2, 3, 4, 5, 6, 7, 8, 10, 11, 12, 13, 14, 15, 16, 17, 18, 19, 22, 23, 24, 25, 26, 27, 28, 29]",211.1349337,5307,5175,7,90,9,1.0
basic,48,26,0,0,0,16,"[0, 21, 16]",3,12,"[4, 5, 6, 10, 11, 12, 13, 14, 17, 23, 26, 29]",151.2266705,5941,634,1,34,9,1.3289691188319968
basic,48,26,0,0,0,29,"[0, 21, 16, 29]",4,8,"[4, 5, 6, 10, 13, 14, 17, 23]",127.0192337,6361,420,1,28,9,1.4156891800947415
basic,48,26,0,0,0,4,"[0, 21, 16, 29, 4]",5,5,"[6, 10, 14, 17, 23]",103.0192337,6726,365,1,12,9,1.6252228687746915
basic,48,26,0,0,0,17,"[0, 21, 16, 29, 4, 17]",6,3,"[6, 10, 14]",81.92421056,7847,1121,1,4,9,1.534793846471065
basic,48,26,0,0,0,14,"[0, 21, 16, 29, 4, 17, 14]",7,2,"[6, 10]",59.45200551,8221,374,1,1,9,1.4926767408397108
basic,48,26,0,0,0,6,"[0, 21, 16, 29, 4, 17, 14, 6]",8,1,[10],38.42820947,9380,1159,1,0,9,1.6286010900012204
basic,48,26,0,0,1,10,"[0, 21, 16, 29, 4, 17, 14, 6, 10]",9,0,[],9.153647129,9751,371,1,0,9,1.797369356615424
basic,48,26,0,1,1,10,"[0, 21, 16, 29, 4, 17, 14, 6, 10]",9,0,[],9.153647129,10376,625,1,0,9,1.797369356615424
basic,49,31,0,0,0,0,[0],1,27,"[1, 3, 4, 5, 6, 7, 8, 10, 11, 12, 13, 14, 15, 16, 17, 18, 19, 20, 21, 22, 23, 24, 25, 26, 27, 28, 29]",300,116,-1,2,87,10,0.0
basic,49,31,0,0,0,14,"[0, 14]",2,25,"[1, 3, 5, 6, 7, 8, 10, 11, 12, 13, 15, 16, 17, 18, 19, 20, 21, 22, 23, 24, 25, 26, 27, 28, 29]",263.861378,2833,2717,2,59,10,1.0
basic,49,31,0,0,0,27,"[0, 14, 27]",3,22,"[1, 3, 5, 6, 7, 8, 10, 11, 12, 13, 15, 16, 17, 18, 19, 20, 21, 22, 24, 25, 28, 29]",235.6833724,3272,439,1,39,10,1.5881859159302467
basic,49,31,0,0,0,8,"[0, 14, 27, 8]",4,20,"[1, 3, 5, 6, 7, 10, 11, 12, 13, 16, 17, 18, 19, 20, 21, 22, 24, 25, 28, 29]",224.6380114,3543,271,1,36,10,2.1665048452331277
basic,49,31,0,0,0,18,"[0, 14, 27, 8, 18]",5,15,"[1, 5, 6, 7, 11, 12, 13, 16, 17, 19, 20, 22, 25, 28, 29]",188.7911147,4069,526,1,26,10,1.7273375741920205
basic,49,31,0,0,0,17,"[0, 14, 27, 8, 18, 17]",6,13,"[1, 5, 6, 7, 11, 12, 13, 16, 19, 20, 22, 25, 28]",159.584951,4907,838,1,13,10,1.551192427769927
basic,49,31,0,0,0,11,"[0, 14, 27, 8, 18, 17, 11]",7,7,"[5, 12, 16, 19, 22, 25, 28]",118.4753414,5344,437,1,4,10,2.9650760544203494
basic,49,31,0,0,0,5,"[0, 14, 27, 8, 18, 17, 11, 5]",8,2,"[16, 28]",74.79468207,5833,489,1,1,10,2.56711965625205
basic,49,31,0,0,0,28,"[0, 14, 27, 8, 18, 17, 11, 5, 28]",9,1,[16],54.57093365,6262,429,1,0,10,2.2865510762058148
basic,49,31,0,0,1,16,"[0, 14, 27, 8, 18, 17, 11, 5, 28, 16]",10,0,[],20.95546102,6764,502,1,0,10,2.089356850786318
basic,49,31,0,1,1,16,"[0, 14, 27, 8, 18, 17, 11, 5, 28, 16]",10,0,[],20.95546102,7290,526,1,0,10,2.089356850786318
basic,50,25,0,0,0,0,[0],1,28,"[1, 2, 3, 4, 5, 7, 8, 9, 10, 11, 12, 13, 14, 15, 16, 17, 18, 19, 20, 21, 22, 23, 24, 25, 26, 27, 28, 29]",300,116,-1,5,94,10,0.0
basic,50,25,0,0,0,23,"[0, 23]",2,23,"[1, 2, 3, 5, 7, 8, 9, 11, 12, 13, 14, 16, 17, 19, 20, 21, 22, 24, 25, 26, 27, 28, 29]",259.7756293,1901,1785,3,33,10,1.0
basic,50,25,0,0,0,19,"[0, 23, 19]",3,21,"[1, 2, 3, 5, 7, 8, 9, 11, 12, 13, 14, 16, 17, 20, 21, 22, 24, 25, 27, 28, 29]",223.9287326,2359,458,3,24,10,1.583101227007039
basic,50,25,0,0,0,29,"[0, 23, 19, 29]",4,19,"[1, 2, 3, 5, 7, 8, 9, 11, 12, 13, 14, 16, 17, 20, 21, 22, 24, 25, 28]",207.649912,2730,371,3,17,10,1.474631541426484
basic,50,25,0,0,0,22,"[0, 23, 19, 29, 22]",5,18,"[1, 2, 3, 5, 7, 8, 9, 11, 12, 13, 14, 16, 17, 20, 21, 24, 25, 28]",191.5253965,3100,370,3,14,10,1.4020377754906637
basic,50,25,0,0,0,7,"[0, 23, 19, 29, 22, 7]",6,7,"[3, 8, 9, 11, 13, 24, 28]",115.8814939,3776,676,3,11,10,1.5709678649326715
basic,50,25,0,0,0,24,"[0, 23, 19, 29, 22, 7, 24]",7,5,"[3, 8, 9, 13, 28]",91.12265712,4190,414,3,7,10,1.486191600033379
basic,50,25,0,0,0,9,"[0, 23, 19, 29, 22, 7, 24, 9]",8,4,"[3, 8, 13, 28]",73.09490075,4531,341,3,3,10,1.453504870342882
basic,50,25,0,0,0,3,"[0, 23, 19, 29, 22, 7, 24, 9, 3]",9,3,"[8, 13, 28]",42.82940885,4971,440,3,0,10,1.388955167525479
basic,50,25,0,0,1,28,"[0, 23, 19, 29, 22, 7, 24, 9, 3, 28]",10,0,[],11.52445716,6738,1767,1,0,10,1.3331084120212044
basic,50,25,0,1,1,28,"[0, 23, 19, 29, 22, 7, 24, 9, 3, 28]",10,0,[],11.52445716,7290,552,1,0,10,1.3331084120212044
basic,51,19,0,0,0,0,[0],1,29,"[1, 2, 3, 4, 5, 6, 7, 8, 9, 10, 11, 12, 13, 14, 15, 16, 17, 18, 19, 20, 21, 22, 23, 24, 25, 26, 27, 28, 29]",300,133,-1,12,149,8,0.0
basic,51,19,0,0,0,29,"[0, 29]",2,28,"[1, 2, 3, 4, 5, 6, 7, 8, 9, 10, 11, 12, 13, 14, 15, 16, 17, 18, 19, 20, 21, 22, 23, 24, 25, 26, 27, 28]",265.0715016,3134,3001,12,120,8,1.0
basic,51,19,0,0,0,9,"[0, 29, 9]",3,17,"[1, 4, 5, 6, 7, 10, 11, 12, 13, 14, 19, 20, 21, 22, 24, 27, 28]",181.7108394,3733,599,11,65,8,1.0375842971861238
basic,51,19,0,0,0,6,"[0, 29, 9, 6]",4,12,"[4, 7, 10, 11, 13, 14, 20, 21, 22, 24, 27, 28]",140.2741407,4273,540,11,34,8,1.0389786364356892
basic,51,19,0,0,0,28,"[0, 29, 9, 6, 28]",5,5,"[4, 11, 14, 22, 27]",89.18598161,5009,736,2,4,8,1.2864082671854424
basic,51,19,0,0,0,4,"[0, 29, 9, 6, 28, 4]",6,4,"[11, 14, 22, 27]",78.00564173,5337,328,2,2,8,1.3470045407445053
basic,51,19,0,0,0,14,"[0, 29, 9, 6, 28, 4, 14]",7,1,[11],27.99564273,5992,655,1,0,8,1.3006971582050546
basic,51,19,0,0,1,11,"[0, 29, 9, 6, 28, 4, 14, 11]",8,0,[],17.1789889,6361,369,1,0,8,1.289914895833058
basic,51,19,0,1,1,11,"[0, 29, 9, 6, 28, 4, 14, 11]",8,0,[],17.1789889,6706,345,1,0,8,1.289914895833058
basic,52,37,0,0,0,0,[0],1,29,"[1, 2, 3, 4, 5, 6, 7, 8, 9, 10, 11, 12, 13, 14, 15, 16, 17, 18, 19, 20, 21, 22, 23, 24, 25, 26, 27, 28, 29]",300,115,-1,6,168,10,0.0
basic,52,37,0,0,0,18,"[0, 18]",2,19,"[1, 2, 4, 6, 7, 9, 10, 12, 14, 15, 17, 19, 20, 21, 22, 23, 26, 28, 29]",202.4090168,1216,1101,6,89,10,1.0
basic,52,37,0,0,0,7,"[0, 18, 7]",3,12,"[1, 2, 4, 9, 15, 17, 19, 20, 21, 22, 26, 29]",175.2428614,1719,503,6,53,10,1.0413073512834488
basic,52,37,0,0,0,22,"[0, 18, 7, 22]",4,8,"[1, 2, 4, 15, 19, 20, 21, 26]",125.2428614,2231,512,6,29,10,1.0730792320325544
basic,52,37,0,0,0,4,"[0, 18, 7, 22, 4]",5,7,"[1, 2, 15, 19, 20, 21, 26]",100.2428614,2726,495,4,16,10,1.2290245562206235
basic,52,37,0,0,0,2,"[0, 18, 7, 22, 4, 2]",6,5,"[1, 15, 19, 20, 21]",88.84110714,3070,344,4,7,10,1.3968113858365216
basic,52,37,0,0,0,1,"[0, 18, 7, 22, 4, 2, 1]",7,4,"[15, 19, 20, 21]",71.63645661,3447,377,4,3,10,1.4424239294761476
basic,52,37,0,0,0,20,"[0, 18, 7, 22, 4, 2, 1, 20]",8,3,"[15, 19, 21]",37.40197107,3932,485,2,1,10,1.7518607796010042
basic,52,37,0,0,0,15,"[0, 18, 7, 22, 4, 2, 1, 20, 15]",9,1,[21],20.40197107,5413,1481,1,0,10,1.680305745239285
basic,52,37,0,0,1,21,"[0, 18, 7, 22, 4, 2, 1, 20, 15, 21]",10,0,[],5.401971073,5798,385,1,0,10,1.8982635624510946
basic,52,37,0,1,1,21,"[0, 18, 7, 22, 4, 2, 1, 20, 15, 21]",10,0,[],5.401971073,6822,1024,1,0,10,1.8982635624510946
basic,53,6,0,0,0,0,[0],1,29,"[1, 2, 3, 4, 5, 6, 7, 8, 9, 10, 11, 12, 13, 14, 15, 16, 17, 18, 19, 20, 21, 22, 23, 24, 25, 26, 27, 28, 29]",300,115,-1,180,4304,10,0.0
basic,53,6,0,0,0,3,"[0, 3]",2,28,"[1, 2, 4, 5, 6, 7, 8, 9, 10, 11, 12, 13, 14, 15, 16, 17, 18, 19, 20, 21, 22, 23, 24, 25, 26, 27, 28, 29]",266.4738908,2288,2173,90,1607,10,1.0
basic,53,6,0,0,0,18,"[0, 3, 18]",3,27,"[1, 2, 4, 5, 6, 7, 8, 9, 10, 11, 12, 13, 14, 15, 16, 17, 19, 20, 21, 22, 23, 24, 25, 26, 27, 28, 29]",237.4738908,2793,505,34,516,10,1.0266750028725786
basic,53,6,0,0,0,17,"[0, 3, 18, 17]",4,26,"[1, 2, 4, 5, 6, 7, 8, 9, 10, 11, 12, 13, 14, 15, 16, 19, 20, 21, 22, 23, 24, 25, 26, 27, 28, 29]",223.5455025,3540,747,17,243,10,1.0832900829093166
basic,53,6,0,0,0,10,"[0, 3, 18, 17, 10]",5,22,"[1, 2, 4, 5, 6, 7, 8, 9, 11, 13, 14, 16, 19, 20, 21, 22, 23, 24, 26, 27, 28, 29]",203.8224196,3894,354,10,111,10,1.140294203414171
basic,53,6,0,0,0,24,"[0, 3, 18, 17, 10, 24]",6,19,"[1, 2, 4, 5, 6, 7, 8, 11, 13, 14, 16, 20, 21, 22, 23, 26, 27, 28, 29]",190.4060117,4250,356,10,80,10,1.1264281153820843
basic,53,6,0,0,0,7,"[0, 3, 18, 17, 10, 24, 7]",7,7,"[1, 2, 8, 13, 16, 26, 29]",119.4694203,12649,8399,7,2,9,3.7594224039448885
basic,53,6,0,0,0,26,"[0, 3, 18, 17, 10, 24, 7, 26]",8,3,"[1, 2, 13]",95.38623114,13026,377,3,0,9,4.113722643581588
basic,53,6,0,0,1,2,"[0, 3, 18, 17, 10, 24, 7, 26, 2]",9,0,[],65.55336336,13430,404,1,0,9,2.9556271670125684
basic,53,6,0,1,1,2,"[0, 3, 18, 17, 10, 24, 7, 26, 2]",9,0,[],65.55336336,14796,1366,1,0,9,2.9556271670125684
basic,54,21,0,0,0,0,[0],1,29,"[1, 2, 3, 4, 5, 6, 7, 8, 9, 10, 11, 12, 13, 14, 15, 16, 17, 18, 19, 20, 21, 22, 23, 24, 25, 26, 27, 28, 29]",300,149,-1,84,830,9,0.0
basic,54,21,0,0,0,20,"[0, 20]",2,28,"[1, 2, 3, 4, 5, 6, 7, 8, 9, 10, 11, 12, 13, 14, 15, 16, 17, 18, 19, 21, 22, 23, 24, 25, 26, 27, 28, 29]",217.6228187,1728,1579,6,67,9,1.0
basic,54,21,0,0,0,22,"[0, 20, 22]",3,23,"[2, 4, 6, 7, 8, 9, 10, 11, 12, 13, 14, 15, 16, 17, 18, 19, 21, 23, 24, 25, 26, 27, 29]",189.3916303,2046,318,6,47,9,1.3451865712078994
basic,54,21,0,0,0,18,"[0, 20, 22, 18]",4,20,"[2, 4, 6, 7, 8, 9, 10, 11, 12, 14, 15, 16, 17, 21, 23, 24, 25, 26, 27, 29]",162.9908727,2480,434,4,25,9,2.3191924394507706
basic,54,21,0,0,0,29,"[0, 20, 22, 18, 29]",5,16,"[2, 4, 6, 7, 8, 10, 12, 14, 15, 16, 17, 21, 23, 24, 25, 27]",134.3377751,2841,361,2,10,9,1.9554738681863184
basic,54,21,0,0,0,25,"[0, 20, 22, 18, 29, 25]",6,5,"[4, 14, 17, 21, 23]",89.11609892,3879,1038,2,5,9,3.5255206171255487
basic,54,21,0,0,0,21,"[0, 20, 22, 18, 29, 25, 21]",7,3,"[4, 14, 23]",39.78051339,4378,499,1,2,9,2.8949037931733077
basic,54,21,0,0,0,14,"[0, 20, 22, 18, 29, 25, 21, 14]",8,1,[4],14.16801644,5590,1212,1,0,9,2.4954214602277003
basic,54,21,0,0,1,4,"[0, 20, 22, 18, 29, 25, 21, 14, 4]",9,0,[],0.025880812,5970,380,1,0,9,2.345266159905017
basic,54,21,0,1,1,4,"[0, 20, 22, 18, 29, 25, 21, 14, 4]",9,0,[],0.025880812,7106,1136,1,0,9,2.345266159905017
basic,55,2,0,0,0,0,[0],1,23,"[1, 2, 4, 5, 6, 7, 8, 9, 12, 13, 15, 16, 17, 18, 19, 20, 22, 23, 25, 26, 27, 28, 29]",300,116,-1,70,620,10,0.0
basic,55,2,0,0,0,19,"[0, 19]",2,22,"[1, 2, 4, 5, 6, 7, 8, 9, 12, 13, 15, 16, 17, 18, 20, 22, 23, 25, 26, 27, 28, 29]",210.306076,1229,1113,67,431,10,1.0
basic,55,2,0,0,0,12,"[0, 19, 12]",3,17,"[1, 4, 5, 6, 7, 13, 15, 16, 17, 18, 20, 22, 25, 26, 27, 28, 29]",174.2921898,1590,361,66,298,10,1.1107635036313153
basic,55,2,0,0,0,5,"[0, 19, 12, 5]",4,11,"[1, 6, 7, 13, 15, 16, 18, 22, 25, 26, 29]",144.7625437,2009,419,38,136,10,1.0968174771581647
basic,55,2,0,0,0,22,"[0, 19, 12, 5, 22]",5,8,"[1, 6, 7, 13, 15, 18, 26, 29]",131.9562952,2298,289,20,63,10,1.0889910507461968
basic,55,2,0,0,0,13,"[0, 19, 12, 5, 22, 13]",6,7,"[1, 6, 7, 15, 18, 26, 29]",117.0902265,2675,377,19,20,10,1.236526217328057
basic,55,2,0,0,0,7,"[0, 19, 12, 5, 22, 13, 7]",7,4,"[15, 18, 26, 29]",71.86855024,3471,796,6,5,10,1.2006918408421052
basic,55,2,0,0,0,18,"[0, 19, 12, 5, 22, 13, 7, 18]",8,3,"[15, 26, 29]",61.5729201,6735,3264,3,1,10,1.3260281006265018
basic,55,2,0,0,0,15,"[0, 19, 12, 5, 22, 13, 7, 18, 15]",9,2,"[26, 29]",43.68437628,7227,492,2,0,10,1.3607270982121784
basic,55,2,0,0,1,26,"[0, 19, 12, 5, 22, 13, 7, 18, 15, 26]",10,0,[],19.47693941,7830,603,1,0,10,1.3271848863320814
basic,55,2,0,1,1,26,"[0, 19, 12, 5, 22, 13, 7, 18, 15, 26]",10,0,[],19.47693941,9358,1528,1,0,10,1.3271848863320814
basic,56,16,0,0,0,0,[0],1,29,"[1, 2, 3, 4, 5, 6, 7, 8, 9, 10, 11, 12, 13, 14, 15, 16, 17, 18, 19, 20, 21, 22, 23, 24, 25, 26, 27, 28, 29]",300,132,-1,13,161,9,0.0
basic,56,16,0,0,0,17,"[0, 17]",2,27,"[1, 2, 3, 4, 5, 7, 8, 9, 10, 11, 12, 13, 14, 15, 16, 18, 19, 20, 21, 22, 23, 24, 25, 26, 27, 28, 29]",241.3058776,1732,1600,2,58,9,1.0
basic,56,16,0,0,0,16,"[0, 17, 16]",3,26,"[1, 2, 3, 4, 5, 7, 8, 9, 10, 11, 12, 13, 14, 15, 18, 19, 20, 21, 22, 23, 24, 25, 26, 27, 28, 29]",212.9862731,2248,516,2,52,9,1.0529535521792848
basic,56,16,0,0,0,8,"[0, 17, 16, 8]",4,19,"[2, 3, 4, 5, 9, 12, 13, 14, 15, 19, 20, 21, 22, 23, 25, 26, 27, 28, 29]",164.6127266,2923,675,2,38,9,1.0915134501573105
basic,56,16,0,0,0,20,"[0, 17, 16, 8, 20]",5,10,"[3, 4, 5, 9, 12, 13, 15, 19, 21, 25]",106.8372993,3600,677,1,15,9,1.067523143001942
basic,56,16,0,0,0,25,"[0, 17, 16, 8, 20, 25]",6,7,"[3, 4, 5, 9, 12, 13, 15]",94.18818869,4039,439,1,9,9,1.1170093326933646
basic,56,16,0,0,0,9,"[0, 17, 16, 8, 20, 25, 9]",7,5,"[3, 4, 5, 13, 15]",81.38194021,4456,417,1,4,9,1.1095076562662525
basic,56,16,0,0,0,15,"[0, 17, 16, 8, 20, 25, 9, 15]",8,1,[5],42.48463953,4979,523,1,0,9,1.213831159678775
basic,56,16,0,0,1,5,"[0, 17, 16, 8, 20, 25, 9, 15, 5]",9,0,[],13.0567616,5760,781,1,0,9,1.5171779607523481
basic,56,16,0,1,1,5,"[0, 17, 16, 8, 20, 25, 9, 15, 5]",9,0,[],13.0567616,6155,395,1,0,9,1.5171779607523481
basic,57,43,0,0,0,0,[0],1,23,"[1, 2, 3, 4, 5, 6, 7, 9, 10, 11, 12, 14, 15, 16, 17, 19, 20, 21, 22, 23, 25, 27, 29]",300,116,-1,16,556,12,0.0
basic,57,43,0,0,0,29,"[0, 29]",2,22,"[1, 2, 3, 4, 5, 6, 7, 9, 10, 11, 12, 14, 15, 16, 17, 19, 20, 21, 22, 23, 25, 27]",277.909278,1199,1083,16,520,12,1.0
basic,57,43,0,0,0,20,"[0, 29, 20]",3,20,"[1, 2, 3, 4, 6, 7, 9, 10, 11, 12, 14, 15, 16, 17, 19, 21, 22, 23, 25, 27]",254.4785289,1624,425,15,422,12,1.082311746871282
basic,57,43,0,0,0,16,"[0, 29, 20, 16]",4,19,"[1, 2, 3, 4, 6, 7, 9, 10, 11, 12, 14, 15, 17, 19, 21, 22, 23, 25, 27]",231.8511119,2093,469,15,389,12,1.215201926898219
basic,57,43,0,0,0,11,"[0, 29, 20, 16, 11]",5,17,"[1, 2, 3, 4, 6, 7, 9, 10, 12, 14, 15, 17, 19, 21, 22, 23, 25]",196.7227758,3402,1309,12,188,12,1.1349145516483516
basic,57,43,0,0,0,6,"[0, 29, 20, 16, 11, 6]",6,15,"[1, 2, 3, 4, 7, 10, 12, 14, 15, 17, 19, 21, 22, 23, 25]",176.1072477,3844,442,10,100,12,1.123330873754209
basic,57,43,0,0,0,1,"[0, 29, 20, 16, 11, 6, 1]",7,10,"[2, 3, 4, 7, 12, 14, 15, 19, 22, 25]",127.8371741,4747,903,7,36,12,1.1959789832191803
basic,57,43,0,0,0,19,"[0, 29, 20, 16, 11, 6, 1, 19]",8,8,"[3, 4, 7, 12, 14, 15, 22, 25]",99.65916852,5986,1239,4,16,12,1.442084860173939
basic,57,43,0,0,0,22,"[0, 29, 20, 16, 11, 6, 1, 19, 22]",9,6,"[3, 7, 12, 14, 15, 25]",79.04364039,6380,394,3,7,12,1.852594491960324
basic,57,43,0,0,0,3,"[0, 29, 20, 16, 11, 6, 1, 19, 22, 3]",10,3,"[12, 15, 25]",44.33053048,6996,616,2,2,12,2.295054375959106
basic,57,43,0,0,0,12,"[0, 29, 20, 16, 11, 6, 1, 19, 22, 3, 12]",11,2,"[15, 25]",31.33053048,7376,380,2,0,12,2.717717859995072
basic,57,43,0,0,1,15,"[0, 29, 20, 16, 11, 6, 1, 19, 22, 3, 12, 15]",12,0,[],12.01732256,7949,573,1,0,12,3.483095146576392
basic,57,43,0,1,1,15,"[0, 29, 20, 16, 11, 6, 1, 19, 22, 3, 12, 15]",12,0,[],12.01732256,9525,1576,1,0,12,3.483095146576392
basic,58,13,0,0,0,0,[0],1,29,"[1, 2, 3, 4, 5, 6, 7, 8, 9, 10, 11, 12, 13, 14, 15, 16, 17, 18, 19, 20, 21, 22, 23, 24, 25, 26, 27, 28, 29]",300,115,-1,60,2676,11,0.0
basic,58,13,0,0,0,24,"[0, 24]",2,28,"[1, 2, 3, 4, 5, 6, 7, 8, 9, 10, 11, 12, 13, 14, 15, 16, 17, 18, 19, 20, 21, 22, 23, 25, 26, 27, 28, 29]",288.8196601,2161,2046,16,1444,11,1.0
basic,58,13,0,0,0,28,"[0, 24, 28]",3,23,"[1, 2, 3, 4, 6, 7, 8, 9, 10, 11, 12, 13, 15, 16, 17, 19, 20, 21, 22, 23, 26, 27, 29]",222.5324064,2810,649,8,243,11,1.0513810491680837
basic,58,13,0,0,0,2,"[0, 24, 28, 2]",4,19,"[1, 3, 4, 6, 7, 9, 11, 12, 13, 15, 16, 17, 19, 20, 21, 23, 26, 27, 29]",184.889346,3415,605,7,110,11,1.050374132001543
basic,58,13,0,0,0,29,"[0, 24, 28, 2, 29]",5,18,"[1, 3, 4, 6, 7, 9, 11, 12, 13, 15, 16, 17, 19, 20, 21, 23, 26, 27]",173.1846461,3914,499,7,85,11,1.1393409619120594
basic,58,13,0,0,0,7,"[0, 24, 28, 2, 29, 7]",6,17,"[1, 3, 4, 6, 9, 11, 12, 13, 15, 16, 17, 19, 20, 21, 23, 26, 27]",157.9203086,4343,429,5,45,11,1.349777315111579
basic,58,13,0,0,0,26,"[0, 24, 28, 2, 29, 7, 26]",7,16,"[1, 3, 4, 6, 9, 11, 12, 13, 15, 16, 17, 19, 20, 21, 23, 27]",147.480002,4760,417,5,25,11,1.5942082773824946
basic,58,13,0,0,0,6,"[0, 24, 28, 2, 29, 7, 26, 6]",8,12,"[1, 3, 4, 11, 13, 15, 16, 17, 19, 20, 23, 27]",127.3802508,5578,818,4,12,11,1.5898347940840756
basic,58,13,0,0,0,16,"[0, 24, 28, 2, 29, 7, 26, 6, 16]",9,3,"[3, 20, 23]",53.82754861,6336,758,1,2,11,2.6743660300373904
basic,58,13,0,0,0,3,"[0, 24, 28, 2, 29, 7, 26, 6, 16, 3]",10,1,[20],25.3846233,6841,505,1,0,11,2.696717621944423
basic,58,13,0,0,1,20,"[0, 24, 28, 2, 29, 7, 26, 6, 16, 3, 20]",11,0,[],6.358325711,7262,421,1,0,11,2.6690286409584245
basic,58,13,0,1,1,20,"[0, 24, 28, 2, 29, 7, 26, 6, 16, 3, 20]",11,0,[],6.358325711,7973,711,1,0,11,2.6690286409584245
basic,59,27,0,0,0,0,[0],1,26,"[1, 3, 5, 6, 7, 8, 9, 10, 11, 12, 13, 14, 15, 16, 17, 18, 19, 21, 22, 23, 24, 25, 26, 27, 28, 29]",300,116,-1,13,578,11,0.0
basic,59,27,0,0,0,15,"[0, 15]",2,24,"[1, 3, 5, 6, 7, 8, 9, 10, 11, 12, 13, 14, 16, 17, 18, 19, 21, 22, 23, 24, 25, 26, 27, 29]",263.7508621,1366,1250,6,219,11,1.0
basic,59,27,0,0,0,24,"[0, 15, 24]",3,20,"[1, 5, 6, 7, 8, 9, 10, 12, 13, 14, 16, 17, 18, 19, 21, 23, 25, 26, 27, 29]",246.5462115,1793,427,6,130,11,1.130933077698322
basic,59,27,0,0,0,17,"[0, 15, 24, 17]",4,15,"[1, 6, 8, 10, 12, 13, 14, 16, 18, 19, 23, 25, 26, 27, 29]",229.9932662,2400,607,4,60,11,1.1285538435963374
basic,59,27,0,0,0,12,"[0, 15, 24, 17, 12]",5,14,"[1, 6, 8, 10, 13, 14, 16, 18, 19, 23, 25, 26, 27, 29]",218.8129263,2771,371,2,32,11,1.2561880288755216
basic,59,27,0,0,0,10,"[0, 15, 24, 17, 12, 10]",6,11,"[1, 8, 13, 14, 18, 19, 23, 25, 26, 27, 29]",207.7675653,3193,422,2,28,11,1.2228289337766665
basic,59,27,0,0,0,13,"[0, 15, 24, 17, 12, 10, 13]",7,9,"[1, 8, 14, 18, 19, 23, 26, 27, 29]",167.9178476,3895,702,2,18,11,1.3421291994761178
basic,59,27,0,0,0,19,"[0, 15, 24, 17, 12, 10, 13, 19]",8,5,"[1, 8, 14, 23, 29]",131.6825057,4434,539,2,6,11,1.294749956153846
basic,59,27,0,0,0,8,"[0, 15, 24, 17, 12, 10, 13, 19, 8]",9,3,"[14, 23, 29]",116.816437,4813,379,2,1,11,1.3554286578836865
basic,59,27,0,0,0,29,"[0, 15, 24, 17, 12, 10, 13, 19, 8, 29]",10,1,[14],57.61339652,5481,668,1,0,11,1.248354519573802
basic,59,27,0,0,1,14,"[0, 15, 24, 17, 12, 10, 13, 19, 8, 29, 14]",11,0,[],13.31892734,6250,769,1,0,11,1.562811097555156
basic,59,27,0,1,1,14,"[0, 15, 24, 17, 12, 10, 13, 19, 8, 29, 14]",11,0,[],13.31892734,6756,506,1,0,11,1.562811097555156
basic,60,42,0,0,0,0,[0],1,29,"[1, 2, 3, 4, 5, 6, 7, 8, 9, 10, 11, 12, 13, 14, 15, 16, 17, 18, 19, 20, 21, 22, 23, 24, 25, 26, 27, 28, 29]",300,116,-1,16,302,9,0.0
basic,60,42,0,0,0,4,"[0, 4]",2,28,"[1, 2, 3, 5, 6, 7, 8, 9, 10, 11, 12, 13, 14, 15, 16, 17, 18, 19, 20, 21, 22, 23, 24, 25, 26, 27, 28, 29]",209.5290102,3338,3222,4,80,9,1.0
basic,60,42,0,0,0,22,"[0, 4, 22]",3,24,"[1, 2, 3, 5, 6, 7, 8, 9, 10, 11, 13, 15, 17, 18, 19, 20, 21, 23, 24, 25, 26, 27, 28, 29]",198.3486703,3799,461,3,53,9,1.1473032812120834
basic,60,42,0,0,0,8,"[0, 4, 22, 8]",4,21,"[1, 2, 3, 5, 6, 7, 10, 11, 15, 17, 18, 19, 20, 21, 23, 24, 25, 26, 27, 28, 29]",176.2127267,4216,417,2,36,9,1.1513227322639639
basic,60,42,0,0,0,1,"[0, 4, 22, 8, 1]",5,12,"[2, 5, 6, 7, 10, 15, 18, 19, 24, 26, 27, 28]",127.1209758,4801,585,2,24,9,1.1101621876186907
basic,60,42,0,0,0,7,"[0, 4, 22, 8, 1, 7]",6,5,"[2, 19, 26, 27, 28]",97.12097583,5384,583,2,10,9,1.1711274205343067
basic,60,42,0,0,0,26,"[0, 4, 22, 8, 1, 7, 26]",7,3,"[2, 19, 27]",70.55031532,6099,715,2,1,9,1.1588367913131314
basic,60,42,0,0,0,27,"[0, 4, 22, 8, 1, 7, 26, 27]",8,1,[19],52.52255894,6541,442,1,0,9,1.160587570992885
basic,60,42,0,0,1,19,"[0, 4, 22, 8, 1, 7, 26, 27, 19]",9,0,[],11.51036563,7065,524,1,0,9,1.3341568614108437
basic,60,42,0,1,1,19,"[0, 4, 22, 8, 1, 7, 26, 27, 19]",9,0,[],11.51036563,7423,358,1,0,9,1.3341568614108437
basic,61,32,0,0,0,0,[0],1,29,"[1, 2, 3, 4, 5, 6, 7, 8, 9, 10, 11, 12, 13, 14, 15, 16, 17, 18, 19, 20, 21, 22, 23, 24, 25, 26, 27, 28, 29]",300,116,-1,17,359,10,0.0
basic,61,32,0,0,0,15,"[0, 15]",2,24,"[2, 3, 4, 5, 6, 7, 8, 9, 10, 11, 12, 13, 14, 16, 17, 19, 20, 22, 23, 24, 25, 26, 27, 28]",214.6185032,1864,1748,11,153,9,1.0
basic,61,32,0,0,0,28,"[0, 15, 28]",3,21,"[2, 3, 5, 7, 8, 9, 10, 11, 12, 13, 14, 16, 17, 19, 20, 22, 23, 24, 25, 26, 27]",203.2167489,2241,377,11,119,9,1.000160051986942
basic,61,32,0,0,0,12,"[0, 15, 28, 12]",4,19,"[2, 3, 5, 7, 8, 9, 10, 11, 13, 16, 17, 19, 20, 22, 23, 24, 25, 26, 27]",184.243083,2687,446,8,71,9,1.0281484763748023
basic,61,32,0,0,0,16,"[0, 15, 28, 12, 16]",5,17,"[2, 3, 5, 7, 8, 9, 10, 11, 13, 17, 19, 20, 22, 23, 24, 26, 27]",168.5906071,3100,413,6,38,9,1.1190771370096
basic,61,32,0,0,0,22,"[0, 15, 28, 12, 16, 22]",6,10,"[2, 3, 5, 8, 9, 10, 11, 17, 20, 27]",134.7527585,3658,558,4,16,9,1.1702311155319893
basic,61,32,0,0,0,9,"[0, 15, 28, 12, 16, 22, 9]",7,6,"[2, 8, 10, 17, 20, 27]",112.5491552,4206,548,2,4,9,1.2381424719932013
basic,61,32,0,0,0,8,"[0, 15, 28, 12, 16, 22, 9, 8]",8,1,[20],67.42709849,4845,639,1,0,9,1.187013645273504
basic,61,32,0,0,1,20,"[0, 15, 28, 12, 16, 22, 9, 8, 20]",9,0,[],17.09818036,5532,687,1,0,9,1.3986201165175596
basic,61,32,0,1,1,20,"[0, 15, 28, 12, 16, 22, 9, 8, 20]",9,0,[],17.09818036,5922,390,1,0,9,1.3986201165175596
basic,62,9,0,0,0,0,[0],1,27,"[1, 3, 4, 5, 6, 7, 8, 9, 10, 11, 13, 14, 15, 16, 17, 18, 19, 20, 21, 22, 23, 24, 25, 26, 27, 28, 29]",300,117,-1,2,182,10,0.0
basic,62,9,0,0,0,9,"[0, 9]",2,26,"[1, 3, 4, 5, 6, 7, 8, 10, 11, 13, 14, 15, 16, 17, 18, 19, 20, 21, 22, 23, 24, 25, 26, 27, 28, 29]",225.5352432,3410,3293,2,101,9,1.0
basic,62,9,0,0,0,23,"[0, 9, 23]",3,22,"[1, 3, 4, 5, 7, 8, 10, 11, 13, 15, 16, 17, 18, 19, 20, 21, 22, 24, 25, 26, 27, 28]",203.1745635,3846,436,2,70,9,1.6262276606762436
basic,62,9,0,0,0,8,"[0, 9, 23, 8]",4,18,"[3, 4, 5, 7, 10, 11, 15, 16, 17, 18, 19, 20, 21, 22, 25, 26, 27, 28]",181.7036529,4278,432,1,36,9,1.8547307061753238
basic,62,9,0,0,0,28,"[0, 9, 23, 8, 28]",5,17,"[3, 4, 5, 7, 10, 11, 15, 16, 17, 18, 19, 20, 21, 22, 25, 26, 27]",170.8869991,4697,419,1,23,9,1.7382749966569708
basic,62,9,0,0,0,21,"[0, 9, 23, 8, 28, 21]",6,8,"[10, 16, 17, 18, 20, 22, 25, 26]",117.8869991,5555,858,7,5,8,1.5363946588735553
basic,62,9,0,0,0,20,"[0, 9, 23, 8, 28, 21, 20]",7,5,"[10, 16, 17, 22, 26]",105.8039531,5947,392,5,0,8,1.5333390745950446
basic,62,9,0,0,1,26,"[0, 9, 23, 8, 28, 21, 20, 26]",8,0,[],40.75012924,6632,685,1,0,8,2.2191366275442426
basic,62,9,0,1,1,26,"[0, 9, 23, 8, 28, 21, 20, 26]",8,0,[],40.75012924,7423,791,1,0,8,2.2191366275442426
basic,63,39,0,0,0,0,[0],1,28,"[1, 2, 3, 4, 5, 6, 7, 9, 10, 11, 12, 13, 14, 15, 16, 17, 18, 19, 20, 21, 22, 23, 24, 25, 26, 27, 28, 29]",300,116,-1,1,30,10,0.0
basic,63,39,0,0,0,29,"[0, 29]",2,26,"[1, 2, 3, 4, 5, 6, 7, 9, 10, 12, 13, 14, 15, 16, 17, 18, 19, 20, 21, 22, 23, 24, 25, 26, 27, 28]",243.0614366,1181,1065,8,104,9,1.0
basic,63,39,0,0,0,12,"[0, 29, 12]",3,18,"[1, 2, 4, 5, 7, 9, 10, 13, 14, 15, 16, 18, 19, 22, 23, 24, 26, 28]",182.5221931,1753,572,5,54,9,1.0026200331524904
basic,63,39,0,0,0,10,"[0, 29, 12, 10]",4,16,"[1, 2, 4, 5, 7, 9, 13, 14, 15, 16, 18, 19, 22, 23, 24, 26]",147.0116313,2249,496,5,34,9,1.2874817019928908
basic,63,39,0,0,0,7,"[0, 29, 12, 10, 7]",5,10,"[1, 2, 5, 13, 16, 18, 19, 22, 24, 26]",113.5900814,2754,505,4,12,9,1.2250826263866774
basic,63,39,0,0,0,26,"[0, 29, 12, 10, 7, 26]",6,5,"[1, 16, 18, 19, 22]",94.90853971,3143,389,3,4,9,1.2697275353190085
basic,63,39,0,0,0,22,"[0, 29, 12, 10, 7, 26, 22]",7,2,"[16, 19]",77.18849457,3606,463,2,0,9,1.438961743955176
basic,63,39,0,0,0,16,"[0, 29, 12, 10, 7, 26, 22, 16]",8,1,[19],42.18849457,4132,526,1,0,9,1.3580882130477205
basic,63,39,0,0,1,19,"[0, 29, 12, 10, 7, 26, 22, 16, 19]",9,0,[],24.72424537,4695,563,1,0,9,1.3646589157842668
basic,63,39,0,1,1,19,"[0, 29, 12, 10, 7, 26, 22, 16, 19]",9,0,[],24.72424537,5305,610,1,0,9,1.3646589157842668
basic,64,0,0,0,0,0,[0],1,27,"[2, 3, 4, 5, 6, 7, 8, 9, 10, 11, 12, 13, 14, 15, 16, 17, 19, 20, 21, 22, 23, 24, 25, 26, 27, 28, 29]",300,115,-1,104,1136,9,0.0
basic,64,0,0,0,0,20,"[0, 20]",2,25,"[2, 3, 4, 5, 6, 7, 8, 9, 11, 12, 13, 14, 15, 16, 17, 19, 21, 22, 23, 24, 25, 26, 27, 28, 29]",215.4955622,1504,1389,36,372,9,1.0
basic,64,0,0,0,0,5,"[0, 20, 5]",3,22,"[2, 3, 4, 7, 8, 9, 11, 12, 13, 14, 15, 16, 17, 19, 21, 22, 23, 24, 25, 26, 28, 29]",153.2942761,2257,753,33,251,9,1.0828244018179105
basic,64,0,0,0,0,4,"[0, 20, 5, 4]",4,19,"[2, 3, 7, 8, 9, 11, 12, 13, 14, 15, 17, 19, 21, 22, 23, 24, 25, 26, 28]",128.2144037,2759,502,21,127,9,1.0973859443611045
basic,64,0,0,0,0,26,"[0, 20, 5, 4, 26]",5,14,"[3, 7, 8, 9, 11, 12, 13, 14, 15, 17, 19, 23, 24, 28]",116.1728091,3147,388,9,63,9,1.1378617460104323
basic,64,0,0,0,0,24,"[0, 20, 5, 4, 26, 24]",6,11,"[3, 7, 8, 9, 11, 12, 15, 17, 19, 23, 28]",99.05556633,3615,468,9,24,9,1.204469953325506
basic,64,0,0,0,0,15,"[0, 20, 5, 4, 26, 24, 15]",7,8,"[3, 7, 8, 9, 11, 12, 17, 19]",75.71033127,4068,453,5,6,9,1.1865351459643638
basic,64,0,0,0,0,7,"[0, 20, 5, 4, 26, 24, 15, 7]",8,2,"[3, 8]",44.64588214,4595,527,2,0,9,1.2455705670301183
basic,64,0,0,0,1,8,"[0, 20, 5, 4, 26, 24, 15, 7, 8]",9,0,[],25.54090896,5028,433,1,0,9,1.2337265013393985
basic,64,0,0,1,1,8,"[0, 20, 5, 4, 26, 24, 15, 7, 8]",9,0,[],25.54090896,5938,910,1,0,9,1.2337265013393985
basic,65,1,0,0,0,0,[0],1,26,"[1, 2, 4, 5, 7, 8, 9, 10, 11, 12, 13, 14, 15, 16, 17, 18, 19, 20, 21, 22, 23, 24, 25, 26, 28, 29]",300,115,-1,6,74,7,0.0
basic,65,1,0,0,0,14,"[0, 14]",2,19,"[1, 4, 5, 8, 9, 13, 15, 17, 18, 19, 20, 21, 22, 23, 24, 25, 26, 28, 29]",200.1901808,1893,1778,5,42,7,1.0
basic,65,1,0,0,0,17,"[0, 14, 17]",3,15,"[1, 4, 5, 8, 9, 13, 15, 18, 19, 20, 22, 23, 25, 28, 29]",147.8356204,3071,1178,5,27,7,1.0028844724416826
basic,65,1,0,0,0,1,"[0, 14, 17, 1]",4,12,"[4, 5, 8, 9, 15, 18, 20, 22, 23, 25, 28, 29]",123.4840291,3508,437,5,15,7,1.0264985578353567
basic,65,1,0,0,0,28,"[0, 14, 17, 1, 28]",5,5,"[9, 15, 22, 23, 29]",88.59850198,4667,1159,5,3,7,1.0339861575999345
basic,65,1,0,0,0,23,"[0, 14, 17, 1, 28, 23]",6,2,"[15, 22]",51.70676849,5172,505,2,0,7,1.0327458250705703
basic,65,1,0,0,1,15,"[0, 14, 17, 1, 28, 23, 15]",7,0,[],20.81987807,5793,621,1,0,7,1.1948681641401226
basic,65,1,0,1,1,15,"[0, 14, 17, 1, 28, 23, 15]",7,0,[],20.81987807,6438,645,1,0,7,1.1948681641401226
basic,66,23,0,0,0,0,[0],1,28,"[1, 2, 3, 4, 5, 6, 7, 8, 9, 10, 11, 12, 13, 14, 15, 16, 17, 18, 19, 20, 21, 22, 23, 25, 26, 27, 28, 29]",300,115,-1,76,2626,10,0.0
basic,66,23,0,0,0,27,"[0, 27]",2,11,"[2, 6, 7, 9, 10, 12, 13, 14, 18, 22, 29]",156.8217894,3310,3195,6,455,9,1.0
basic,66,23,0,0,0,6,"[0, 27, 6]",3,10,"[2, 7, 9, 10, 12, 13, 14, 18, 22, 29]",128.519846,3828,518,6,168,9,1.1413510010705277
basic,66,23,0,0,0,2,"[0, 27, 6, 2]",4,8,"[7, 9, 12, 13, 14, 18, 22, 29]",110.0807571,4240,412,3,50,9,1.3917699979429488
basic,66,23,0,0,0,13,"[0, 27, 6, 2, 13]",5,6,"[9, 12, 14, 18, 22, 29]",84.13851351,5043,803,10,5,8,1.9503255897659013
basic,66,23,0,0,0,12,"[0, 27, 6, 2, 13, 12]",6,4,"[9, 14, 22, 29]",72.05546754,5771,728,5,2,8,1.8594246600592663
basic,66,23,0,0,0,9,"[0, 27, 6, 2, 13, 12, 9]",7,3,"[14, 22, 29]",57.73764648,6270,499,3,0,8,1.8543080887707684
basic,66,23,0,0,1,14,"[0, 27, 6, 2, 13, 12, 9, 14]",8,0,[],47.29733997,6697,427,1,0,8,1.7936163655623198
basic,66,23,0,1,1,14,"[0, 27, 6, 2, 13, 12, 9, 14]",8,0,[],47.29733997,7906,1209,1,0,8,1.7936163655623198
basic,67,33,0,0,0,0,[0],1,23,"[1, 2, 5, 7, 8, 11, 12, 13, 14, 15, 16, 17, 18, 19, 20, 21, 23, 24, 25, 26, 27, 28, 29]",300,115,-1,5,108,9,0.0
basic,67,33,0,0,0,21,"[0, 21]",2,17,"[2, 5, 7, 8, 11, 13, 14, 16, 17, 18, 19, 20, 24, 26, 27, 28, 29]",174.4611614,1273,1158,21,129,8,1.0
basic,67,33,0,0,0,13,"[0, 21, 13]",3,15,"[2, 5, 7, 8, 11, 14, 16, 17, 18, 19, 20, 24, 26, 28, 29]",148.0604038,1822,549,17,72,8,1.0001005298764474
basic,67,33,0,0,0,17,"[0, 21, 13, 17]",4,10,"[2, 7, 11, 14, 16, 19, 20, 24, 26, 29]",125.2568953,2287,465,6,21,8,1.0965005103980894
basic,67,33,0,0,0,20,"[0, 21, 13, 17, 20]",5,3,"[2, 11, 29]",67.98561107,3001,714,1,2,7,1.122467780634258
basic,67,33,0,0,0,11,"[0, 21, 13, 17, 20, 11]",6,1,[29],48.88063789,3461,460,1,0,7,1.1309847261755839
basic,67,33,0,0,1,29,"[0, 21, 13, 17, 20, 11, 29]",7,0,[],11.66504976,4138,677,1,0,7,1.3707718853829052
basic,67,33,0,1,1,29,"[0, 21, 13, 17, 20, 11, 29]",7,0,[],11.66504976,4587,449,1,0,7,1.3707718853829052
basic,68,29,0,0,0,0,[0],1,29,"[1, 2, 3, 4, 5, 6, 7, 8, 9, 10, 11, 12, 13, 14, 15, 16, 17, 18, 19, 20, 21, 22, 23, 24, 25, 26, 27, 28, 29]",300,114,-1,1,78,9,0.0
basic,68,29,0,0,0,6,"[0, 6]",2,28,"[1, 2, 3, 4, 5, 7, 8, 9, 10, 11, 12, 13, 14, 15, 16, 17, 18, 19, 20, 21, 22, 23, 24, 25, 26, 27, 28, 29]",228.4108947,1427,1313,1,25,9,1.0
basic,68,29,0,0,0,28,"[0, 6, 28]",3,24,"[1, 3, 4, 5, 7, 9, 10, 11, 12, 13, 14, 15, 16, 17, 18, 20, 21, 22, 23, 24, 25, 26, 27, 29]",187.1798384,2435,1008,1,22,9,1.162106788166845
basic,68,29,0,0,0,27,"[0, 6, 28, 27]",4,19,"[1, 3, 4, 5, 7, 9, 10, 11, 12, 13, 14, 15, 16, 21, 22, 23, 25, 26, 29]",166.6615539,2873,438,1,21,9,1.2307173895439045
basic,68,29,0,0,0,22,"[0, 6, 28, 27, 22]",5,13,"[1, 3, 4, 5, 7, 9, 12, 13, 14, 15, 21, 26, 29]",133.4200136,3431,558,1,19,9,1.4241767805149903
basic,68,29,0,0,0,5,"[0, 6, 28, 27, 22, 5]",6,6,"[4, 7, 9, 12, 13, 14]",79.07850094,4022,591,4,2,8,1.7779286710260118
basic,68,29,0,0,0,13,"[0, 6, 28, 27, 22, 5, 13]",7,1,[14],53.36858068,4609,587,1,0,8,2.2784535922470215
basic,68,29,0,0,1,14,"[0, 6, 28, 27, 22, 5, 13, 14]",8,0,[],35.3408243,5057,448,1,0,8,2.9240984037611235
basic,68,29,0,1,1,14,"[0, 6, 28, 27, 22, 5, 13, 14]",8,0,[],35.3408243,5803,746,1,0,8,2.9240984037611235
undo,69,43,0,0,0,0,[0],1,23,"[1, 2, 3, 4, 5, 6, 7, 9, 10, 11, 12, 14, 15, 16, 17, 19, 20, 21, 22, 23, 25, 27, 29]",300,118,-1,16,556,12,0.0
undo,69,43,0,0,0,25,"[0, 25]",2,19,"[1, 2, 3, 4, 5, 6, 7, 9, 11, 12, 14, 15, 16, 19, 20, 21, 22, 23, 29]",220.6904798,1269,1151,8,323,10,1.0
undo,69,43,0,0,0,15,"[0, 25, 15]",3,18,"[1, 2, 3, 4, 5, 6, 7, 9, 11, 12, 14, 16, 19, 20, 21, 22, 23, 29]",198.0189117,1744,475,8,141,10,1.233441666901354
undo,69,43,0,0,0,12,"[0, 25, 15, 12]",4,15,"[1, 2, 3, 4, 6, 7, 9, 11, 14, 16, 19, 20, 22, 23, 29]",178.7057038,2748,1004,8,95,10,1.226948769754925
undo,69,43,0,0,0,3,"[0, 25, 15, 12, 3]",5,14,"[1, 2, 4, 6, 7, 9, 11, 14, 16, 19, 20, 22, 23, 29]",165.7057038,3309,561,8,83,10,1.2055123857330492
undo,69,43,0,0,0,22,"[0, 25, 15, 12, 3, 22]",6,12,"[1, 4, 6, 7, 9, 11, 14, 16, 19, 20, 23, 29]",130.9925938,3782,473,5,39,10,1.417031808359187
undo,69,43,0,0,0,19,"[0, 25, 15, 12, 3, 22, 19]",7,8,"[1, 4, 6, 7, 11, 14, 16, 23]",110.3770657,5780,1998,3,10,10,1.3649357481232487
undo,69,43,0,0,0,7,"[0, 25, 15, 12, 3, 22, 19, 7]",8,2,"[1, 4]",71.26185128,6392,612,2,0,9,1.2962633576046114
undo,69,43,0,0,1,1,"[0, 25, 15, 12, 3, 22, 19, 7, 1]",9,0,[],33.05190493,6975,583,1,0,9,1.854432335465723
undo,69,43,0,1,1,1,"[0, 25, 15, 12, 3, 22, 19, 7, 1]",9,0,[],33.05190493,7440,465,1,0,9,1.854432335465723
undo,70,12,0,0,0,0,[0],1,29,"[1, 2, 3, 4, 5, 6, 7, 8, 9, 10, 11, 12, 13, 14, 15, 16, 17, 18, 19, 20, 21, 22, 23, 24, 25, 26, 27, 28, 29]",300,115,-1,2,32,9,0.0
undo,70,12,0,0,0,22,"[0, 22]",2,22,"[2, 4, 5, 6, 7, 9, 10, 12, 13, 14, 15, 16, 17, 18, 19, 21, 23, 24, 25, 27, 28, 29]",211.9943184,2437,2322,6,42,8,1.0
undo,70,12,0,0,0,16,"[0, 22, 16]",3,12,"[2, 4, 5, 6, 7, 12, 14, 19, 23, 24, 25, 27]",190.9943184,2854,417,6,24,8,1.2017164145167045
undo,70,12,0,0,0,4,"[0, 22, 16, 4]",4,9,"[2, 6, 7, 12, 14, 19, 24, 25, 27]",156.7890556,3332,478,6,14,8,1.146531713305579
undo,70,12,0,0,0,12,"[0, 22, 16, 4, 12]",5,4,"[14, 19, 24, 27]",114.5990094,3844,512,4,3,8,1.1221389456954312
undo,70,12,0,0,0,27,"[0, 22, 16, 4, 12, 27]",6,3,"[14, 19, 24]",90.24741807,4338,494,2,1,8,1.2262878338287035
undo,70,12,0,0,0,14,"[0, 22, 16, 4, 12, 27, 14]",7,1,[24],61.59432051,5259,921,1,0,8,1.2804562106751427
undo,70,12,0,0,1,24,"[0, 22, 16, 4, 12, 27, 14, 24]",8,0,[],44.38966997,5658,399,1,0,8,1.4322660007679802
undo,70,12,0,1,1,24,"[0, 22, 16, 4, 12, 27, 14, 24]",8,0,[],44.38966997,6221,563,1,0,8,1.4322660007679802
undo,71,32,0,0,0,0,[0],1,29,"[1, 2, 3, 4, 5, 6, 7, 8, 9, 10, 11, 12, 13, 14, 15, 16, 17, 18, 19, 20, 21, 22, 23, 24, 25, 26, 27, 28, 29]",300,116,-1,17,359,10,0.0
undo,71,32,0,0,0,15,"[0, 15]",2,24,"[2, 3, 4, 5, 6, 7, 8, 9, 10, 11, 12, 13, 14, 16, 17, 19, 20, 22, 23, 24, 25, 26, 27, 28]",214.6185032,1169,1053,11,153,9,1.0
undo,71,32,0,0,0,28,"[0, 15, 28]",3,21,"[2, 3, 5, 7, 8, 9, 10, 11, 12, 13, 14, 16, 17, 19, 20, 22, 23, 24, 25, 26, 27]",203.2167489,1631,462,11,119,9,1.000160051986942
undo,71,32,0,0,0,12,"[0, 15, 28, 12]",4,19,"[2, 3, 5, 7, 8, 9, 10, 11, 13, 16, 17, 19, 20, 22, 23, 24, 25, 26, 27]",184.243083,2137,506,8,71,9,1.0281484763748023
undo,71,32,0,0,0,16,"[0, 15, 28, 12, 16]",5,17,"[2, 3, 5, 7, 8, 9, 10, 11, 13, 17, 19, 20, 22, 23, 24, 26, 27]",168.5906071,2697,560,6,38,9,1.1190771370096
undo,71,32,0,0,0,27,"[0, 15, 28, 12, 16, 27]",6,6,"[3, 7, 10, 11, 22, 24]",92.31479182,3647,950,2,3,9,1.1348918479781422
undo,71,32,0,0,0,3,"[0, 15, 28, 12, 16, 27, 3]",7,3,"[7, 11, 24]",66.81969425,4140,493,1,2,9,1.144457863975442
undo,71,32,0,0,0,11,"[0, 15, 28, 12, 16, 27, 3, 11]",8,1,[7],51.1991949,4568,428,1,0,9,1.18010536284934
undo,71,32,0,0,1,7,"[0, 15, 28, 12, 16, 27, 3, 11, 7]",9,0,[],6.995122688,5764,1196,1,0,9,1.1924074998895657
undo,71,32,0,1,1,7,"[0, 15, 28, 12, 16, 27, 3, 11, 7]",9,0,[],6.995122688,7223,1459,1,0,9,1.1924074998895657
undo,72,6,0,0,0,0,[0],1,29,"[1, 2, 3, 4, 5, 6, 7, 8, 9, 10, 11, 12, 13, 14, 15, 16, 17, 18, 19, 20, 21, 22, 23, 24, 25, 26, 27, 28, 29]",300,133,-1,180,4304,10,0.0
undo,72,6,0,0,0,3,"[0, 3]",2,28,"[1, 2, 4, 5, 6, 7, 8, 9, 10, 11, 12, 13, 14, 15, 16, 17, 18, 19, 20, 21, 22, 23, 24, 25, 26, 27, 28, 29]",266.4738908,1669,1536,90,1607,10,1.0
undo,72,6,0,0,0,18,"[0, 3, 18]",3,27,"[1, 2, 4, 5, 6, 7, 8, 9, 10, 11, 12, 13, 14, 15, 16, 17, 19, 20, 21, 22, 23, 24, 25, 26, 27, 28, 29]",237.4738908,2131,462,34,516,10,1.0266750028725786
undo,72,6,0,0,0,17,"[0, 3, 18, 17]",4,26,"[1, 2, 4, 5, 6, 7, 8, 9, 10, 11, 12, 13, 14, 15, 16, 19, 20, 21, 22, 23, 24, 25, 26, 27, 28, 29]",223.5455025,2547,416,17,243,10,1.0832900829093166
undo,72,6,0,0,0,10,"[0, 3, 18, 17, 10]",5,22,"[1, 2, 4, 5, 6, 7, 8, 9, 11, 13, 14, 16, 19, 20, 21, 22, 23, 24, 26, 27, 28, 29]",203.8224196,2961,414,10,111,10,1.140294203414171
undo,72,6,0,0,0,24,"[0, 3, 18, 17, 10, 24]",6,19,"[1, 2, 4, 5, 6, 7, 8, 11, 13, 14, 16, 20, 21, 22, 23, 26, 27, 28, 29]",190.4060117,3414,453,10,80,10,1.1264281153820843
undo,72,6,0,0,0,16,"[0, 3, 18, 17, 10, 24, 16]",7,13,"[1, 2, 6, 7, 13, 14, 20, 21, 22, 23, 26, 27, 29]",134.3703088,3981,567,6,21,10,2.2946652061367843
undo,72,6,0,0,0,29,"[0, 3, 18, 17, 10, 24, 16, 29]",8,7,"[6, 14, 20, 21, 22, 23, 27]",97.68243615,4589,608,5,5,10,1.8995488998077483
undo,72,6,0,0,0,23,"[0, 3, 18, 17, 10, 24, 16, 29, 23]",9,2,"[6, 22]",50.16401866,5275,686,2,0,10,1.8616504050291767
undo,72,6,0,0,1,6,"[0, 3, 18, 17, 10, 24, 16, 29, 23, 6]",10,0,[],14.8086796,5760,485,1,0,10,1.7707258119152334
undo,72,6,0,1,1,6,"[0, 3, 18, 17, 10, 24, 16, 29, 23, 6]",10,0,[],14.8086796,6121,361,1,0,10,1.7707258119152334
undo,73,10,0,0,0,0,[0],1,29,"[1, 2, 3, 4, 5, 6, 7, 8, 9, 10, 11, 12, 13, 14, 15, 16, 17, 18, 19, 20, 21, 22, 23, 24, 25, 26, 27, 28, 29]",300,115,-1,1,100,9,0.0
undo,73,10,0,0,0,13,"[0, 13]",2,25,"[1, 2, 3, 4, 6, 7, 8, 9, 10, 11, 12, 14, 17, 18, 19, 20, 21, 22, 23, 24, 25, 26, 27, 28, 29]",249.4628849,1691,1576,1,79,9,1.0
undo,73,10,0,0,0,11,"[0, 13, 11]",3,20,"[1, 2, 3, 6, 7, 8, 9, 10, 12, 14, 18, 19, 20, 21, 22, 24, 26, 27, 28, 29]",206.4512586,2149,458,1,54,9,1.0313137484914219
undo,73,10,0,0,0,19,"[0, 13, 11, 19]",4,11,"[2, 6, 8, 9, 10, 14, 18, 20, 24, 26, 27]",170.0919407,2825,676,1,22,9,1.0879446220132545
undo,73,10,0,0,0,2,"[0, 13, 11, 19, 2]",5,4,"[14, 20, 26, 27]",126.1829439,3420,595,1,4,9,1.06474052351343
undo,73,10,0,0,0,14,"[0, 13, 11, 19, 2, 14]",6,3,"[20, 26, 27]",114.0174188,3814,394,1,3,9,1.1628909195912238
undo,73,10,0,0,0,26,"[0, 13, 11, 19, 2, 14, 26]",7,2,"[20, 27]",79.34754716,4311,497,1,1,9,1.6660727647633602
undo,73,10,0,0,0,20,"[0, 13, 11, 19, 2, 14, 26, 20]",8,1,[27],47.56704999,4923,612,1,0,9,2.085581809637999
undo,73,10,0,0,1,27,"[0, 13, 11, 19, 2, 14, 26, 20, 27]",9,0,[],2.312215998,5500,577,1,0,9,1.9116357409137932
undo,73,10,0,1,1,27,"[0, 13, 11, 19, 2, 14, 26, 20, 27]",9,0,[],2.312215998,6488,988,1,0,9,1.9116357409137932
undo,74,24,0,0,0,0,[0],1,29,"[1, 2, 3, 4, 5, 6, 7, 8, 9, 10, 11, 12, 13, 14, 15, 16, 17, 18, 19, 20, 21, 22, 23, 24, 25, 26, 27, 28, 29]",300,149,-1,4,76,10,0.0
undo,74,24,0,0,0,29,"[0, 29]",2,27,"[2, 3, 4, 5, 6, 7, 8, 9, 10, 11, 12, 13, 14, 15, 16, 17, 18, 19, 20, 21, 22, 23, 24, 25, 26, 27, 28]",245.594118,1693,1544,5,65,9,1.0
undo,74,24,0,0,0,16,"[0, 29, 16]",3,21,"[2, 3, 4, 6, 8, 9, 10, 11, 13, 14, 15, 17, 18, 19, 22, 23, 24, 25, 26, 27, 28]",171.3782167,2320,627,5,51,9,1.4348105541987206
undo,74,24,0,0,0,8,"[0, 29, 16, 8]",4,14,"[3, 4, 6, 9, 10, 11, 14, 15, 22, 23, 24, 26, 27, 28]",142.3782167,2993,673,1,10,9,1.4314472978958652
undo,74,24,0,0,0,22,"[0, 29, 16, 8, 22]",5,13,"[3, 4, 6, 9, 10, 11, 14, 15, 23, 24, 26, 27, 28]",128.9618088,3309,316,1,5,9,1.6230571553085453
undo,74,24,0,0,0,15,"[0, 29, 16, 8, 22, 15]",6,8,"[3, 4, 6, 9, 11, 23, 26, 28]",107.7486054,3699,390,1,3,9,1.6071812496844045
undo,74,24,0,0,0,28,"[0, 29, 16, 8, 22, 15, 28]",7,2,"[11, 23]",62.47167971,4300,601,1,1,9,1.442855168484802
undo,74,24,0,0,0,23,"[0, 29, 16, 8, 22, 15, 28, 23]",8,1,[11],43.44538212,4663,363,1,0,9,1.4561696808235163
undo,74,24,0,0,1,11,"[0, 29, 16, 8, 22, 15, 28, 23, 11]",9,0,[],16.51955809,5214,551,1,0,9,1.4113114305619512
undo,74,24,0,1,1,11,"[0, 29, 16, 8, 22, 15, 28, 23, 11]",9,0,[],16.51955809,5787,573,1,0,9,1.4113114305619512
undo,75,13,0,0,0,0,[0],1,29,"[1, 2, 3, 4, 5, 6, 7, 8, 9, 10, 11, 12, 13, 14, 15, 16, 17, 18, 19, 20, 21, 22, 23, 24, 25, 26, 27, 28, 29]",300,115,-1,60,2676,11,0.0
undo,75,13,0,0,0,24,"[0, 24]",2,28,"[1, 2, 3, 4, 5, 6, 7, 8, 9, 10, 11, 12, 13, 14, 15, 16, 17, 18, 19, 20, 21, 22, 23, 25, 26, 27, 28, 29]",288.8196601,1824,1709,16,1444,11,1.0
undo,75,13,0,0,0,28,"[0, 24, 28]",3,23,"[1, 2, 3, 4, 6, 7, 8, 9, 10, 11, 12, 13, 15, 16, 17, 19, 20, 21, 22, 23, 26, 27, 29]",222.5324064,2958,1134,8,243,11,1.0513810491680837
undo,75,13,0,0,0,2,"[0, 24, 28, 2]",4,19,"[1, 3, 4, 6, 7, 9, 11, 12, 13, 15, 16, 17, 19, 20, 21, 23, 26, 27, 29]",184.889346,3512,554,7,110,11,1.050374132001543
