condition,trial_id,map_id,undoIndicator,submit,checkEnd,currentChoice,chosen_all,n_city_all,n_within_reach,cities_reach,currentBudget,time_all,rt_all,n_opt_paths_all,n_subopt_paths_all,mas_all,tortuosity_all
undo,0,27,0,0,0,0,[0],1,26,"[1, 3, 5, 6, 7, 8, 9, 10, 11, 12, 13, 14, 15, 16, 17, 18, 19, 21, 22, 23, 24, 25, 26, 27, 28, 29]",300,110,-1,13,578,11,0.0
undo,0,27,0,0,0,15,"[0, 15]",2,24,"[1, 3, 5, 6, 7, 8, 9, 10, 11, 12, 13, 14, 16, 17, 18, 19, 21, 22, 23, 24, 25, 26, 27, 29]",263.7508621,5880,5770,6,219,11,1.0
undo,0,27,0,0,0,24,"[0, 15, 24]",3,20,"[1, 5, 6, 7, 8, 9, 10, 12, 13, 14, 16, 17, 18, 19, 21, 23, 25, 26, 27, 29]",246.5462115,7191,1311,6,130,11,1.130933077698322
undo,0,27,0,0,0,17,"[0, 15, 24, 17]",4,15,"[1, 6, 8, 10, 12, 13, 14, 16, 18, 19, 23, 25, 26, 27, 29]",229.9932662,8454,1263,4,60,11,1.1285538435963374
undo,0,27,0,0,0,12,"[0, 15, 24, 17, 12]",5,14,"[1, 6, 8, 10, 13, 14, 16, 18, 19, 23, 25, 26, 27, 29]",218.8129263,12093,3639,2,32,11,1.2561880288755216
undo,0,27,0,0,0,10,"[0, 15, 24, 17, 12, 10]",6,11,"[1, 8, 13, 14, 18, 19, 23, 25, 26, 27, 29]",207.7675653,13870,1777,2,28,11,1.2228289337766665
undo,0,27,0,0,0,13,"[0, 15, 24, 17, 12, 10, 13]",7,9,"[1, 8, 14, 18, 19, 23, 26, 27, 29]",167.9178476,16527,2657,2,18,11,1.3421291994761178
undo,0,27,0,0,0,19,"[0, 15, 24, 17, 12, 10, 13, 19]",8,5,"[1, 8, 14, 23, 29]",131.6825057,18599,2072,2,6,11,1.294749956153846
undo,0,27,0,0,0,8,"[0, 15, 24, 17, 12, 10, 13, 19, 8]",9,3,"[14, 23, 29]",116.816437,21425,2826,2,1,11,1.3554286578836865
undo,0,27,0,0,0,14,"[0, 15, 24, 17, 12, 10, 13, 19, 8, 14]",10,1,[29],59.25777126,23408,1983,1,0,11,1.312380420632942
undo,0,27,0,0,1,29,"[0, 15, 24, 17, 12, 10, 13, 19, 8, 14, 29]",11,0,[],14.96330208,25173,1765,1,0,11,1.4680136813839417
undo,0,27,0,1,1,29,"[0, 15, 24, 17, 12, 10, 13, 19, 8, 14, 29]",11,0,[],14.96330208,29261,4088,1,0,11,1.4680136813839417
undo,1,28,0,0,0,0,[0],1,27,"[1, 2, 3, 4, 5, 6, 7, 8, 9, 10, 11, 12, 13, 14, 15, 16, 17, 18, 19, 20, 22, 23, 25, 26, 27, 28, 29]",300,146,-1,2,96,9,0.0
undo,1,28,0,0,0,3,"[0, 3]",2,26,"[1, 2, 4, 5, 6, 7, 8, 9, 10, 11, 12, 13, 14, 15, 16, 17, 18, 19, 20, 22, 23, 25, 26, 27, 28, 29]",251.0817008,8039,7893,1,64,9,1.0
undo,1,28,0,0,0,20,"[0, 3, 20]",3,20,"[2, 4, 5, 6, 7, 8, 9, 10, 11, 12, 13, 14, 15, 16, 18, 19, 22, 23, 26, 28]",209.7416475,9687,1648,2,29,8,1.6703057504555512
undo,1,28,0,0,0,15,"[0, 3, 20, 15]",4,10,"[5, 6, 8, 9, 10, 16, 22, 23, 26, 28]",157.2440286,11888,2201,1,6,7,1.4376587969564578
undo,1,28,0,0,0,23,"[0, 3, 20, 15, 23]",5,2,"[16, 22]",88.73855432,13030,1142,2,0,6,1.269324093812023
undo,1,28,0,0,1,16,"[0, 3, 20, 15, 23, 16]",6,0,[],48.42726558,14189,1159,1,0,6,1.2537020201649651
undo,1,28,1,0,0,23,"[0, 3, 20, 15, 23]",5,2,"[16, 22]",88.73855432,17527,3338,2,0,6,1.269324093812023
undo,1,28,1,0,0,15,"[0, 3, 20, 15]",4,10,"[5, 6, 8, 9, 10, 16, 22, 23, 26, 28]",157.2440286,17877,350,1,6,7,1.4376587969564578
undo,1,28,1,0,0,20,"[0, 3, 20]",3,20,"[2, 4, 5, 6, 7, 8, 9, 10, 11, 12, 13, 14, 15, 16, 18, 19, 22, 23, 26, 28]",209.7416475,18210,333,2,29,8,1.6703057504555512
undo,1,28,1,0,0,3,"[0, 3]",2,26,"[1, 2, 4, 5, 6, 7, 8, 9, 10, 11, 12, 13, 14, 15, 16, 17, 18, 19, 20, 22, 23, 25, 26, 27, 28, 29]",251.0817008,18526,316,1,64,9,1.0
undo,1,28,1,0,0,0,[0],1,27,"[1, 2, 3, 4, 5, 6, 7, 8, 9, 10, 11, 12, 13, 14, 15, 16, 17, 18, 19, 20, 22, 23, 25, 26, 27, 28, 29]",300,18942,416,2,96,9,0.0
undo,1,28,0,0,0,3,"[0, 3]",2,26,"[1, 2, 4, 5, 6, 7, 8, 9, 10, 11, 12, 13, 14, 15, 16, 17, 18, 19, 20, 22, 23, 25, 26, 27, 28, 29]",251.0817008,22040,3098,1,64,9,1.0
undo,1,28,0,0,0,5,"[0, 3, 5]",3,20,"[2, 4, 6, 7, 8, 9, 10, 11, 12, 13, 14, 15, 18, 19, 20, 23, 25, 26, 28, 29]",166.9865166,25198,3158,1,34,9,1.0203769473612083
undo,1,28,0,0,0,26,"[0, 3, 5, 26]",4,13,"[2, 4, 7, 8, 9, 12, 13, 14, 18, 19, 20, 25, 28]",134.2298379,27586,2388,1,28,9,1.0315203228799597
undo,1,28,0,0,0,2,"[0, 3, 5, 26, 2]",5,10,"[4, 7, 8, 9, 12, 13, 18, 19, 25, 28]",93.86896575,29648,2062,7,13,8,1.027257996419408
undo,1,28,0,0,0,19,"[0, 3, 5, 26, 2, 19]",6,4,"[7, 12, 13, 18]",56.50588236,31487,1839,4,1,8,1.3335988625919608
undo,1,28,0,0,0,7,"[0, 3, 5, 26, 2, 19, 7]",7,2,"[12, 13]",28.77503312,33464,1977,2,0,8,1.3845940052005818
undo,1,28,0,0,1,12,"[0, 3, 5, 26, 2, 19, 7, 12]",8,0,[],15.62208668,36045,2581,1,0,8,1.380328942242059
undo,1,28,1,0,0,7,"[0, 3, 5, 26, 2, 19, 7]",7,2,"[12, 13]",28.77503312,48726,12681,2,0,8,1.3845940052005818
undo,1,28,1,0,0,19,"[0, 3, 5, 26, 2, 19]",6,4,"[7, 12, 13, 18]",56.50588236,48925,199,4,1,8,1.3335988625919608
undo,1,28,1,0,0,2,"[0, 3, 5, 26, 2]",5,10,"[4, 7, 8, 9, 12, 13, 18, 19, 25, 28]",93.86896575,49158,233,7,13,8,1.027257996419408
undo,1,28,1,0,0,26,"[0, 3, 5, 26]",4,13,"[2, 4, 7, 8, 9, 12, 13, 14, 18, 19, 20, 25, 28]",134.2298379,49525,367,1,28,9,1.0315203228799597
undo,1,28,1,0,0,5,"[0, 3, 5]",3,20,"[2, 4, 6, 7, 8, 9, 10, 11, 12, 13, 14, 15, 18, 19, 20, 23, 25, 26, 28, 29]",166.9865166,49925,400,1,34,9,1.0203769473612083
undo,1,28,1,0,0,3,"[0, 3]",2,26,"[1, 2, 4, 5, 6, 7, 8, 9, 10, 11, 12, 13, 14, 15, 16, 17, 18, 19, 20, 22, 23, 25, 26, 27, 28, 29]",251.0817008,50341,416,1,64,9,1.0
undo,1,28,0,0,0,14,"[0, 3, 14]",3,13,"[1, 2, 5, 7, 10, 11, 12, 13, 17, 18, 19, 20, 26]",142.7396498,53776,3435,19,59,8,1.0338694802207566
undo,1,28,0,0,0,18,"[0, 3, 14, 18]",4,10,"[1, 2, 5, 7, 11, 12, 13, 17, 19, 26]",117.2445523,57414,3638,18,18,8,1.098527225277385
undo,1,28,0,0,0,13,"[0, 3, 14, 18, 13]",5,7,"[2, 7, 11, 12, 17, 19, 26]",92.83144103,58816,1402,8,6,8,1.0872780601597938
undo,1,28,0,0,0,12,"[0, 3, 14, 18, 13, 12]",6,3,"[2, 7, 19]",75.6267905,59861,1045,3,1,8,1.0890748557820906
undo,1,28,0,0,0,7,"[0, 3, 14, 18, 13, 12, 7]",7,2,"[2, 19]",62.47384406,60620,759,2,0,8,1.2125627495730145
undo,1,28,0,0,1,19,"[0, 3, 14, 18, 13, 12, 7, 19]",8,0,[],34.74299481,63958,3338,1,0,8,1.4527925513951803
undo,1,28,0,1,1,19,"[0, 3, 14, 18, 13, 12, 7, 19]",8,0,[],34.74299481,74863,10905,1,0,8,1.4527925513951803
undo,2,22,0,0,0,0,[0],1,29,"[1, 2, 3, 4, 5, 6, 7, 8, 9, 10, 11, 12, 13, 14, 15, 16, 17, 18, 19, 20, 21, 22, 23, 24, 25, 26, 27, 28, 29]",300,107,-1,31,704,9,0.0
undo,2,22,0,0,0,16,"[0, 16]",2,21,"[1, 3, 6, 7, 8, 9, 11, 13, 14, 15, 17, 18, 19, 20, 21, 22, 24, 25, 27, 28, 29]",218.605897,7720,7613,17,147,9,1.0
undo,2,22,0,0,0,28,"[0, 16, 28]",3,13,"[6, 7, 9, 13, 14, 17, 19, 20, 21, 22, 24, 25, 29]",184.1675463,9372,1652,12,61,9,1.047282311284478
undo,2,22,0,0,0,6,"[0, 16, 28, 6]",4,12,"[7, 9, 13, 14, 17, 19, 20, 21, 22, 24, 25, 29]",154.1675463,10086,714,12,43,9,1.645645870580622
undo,2,22,0,0,0,9,"[0, 16, 28, 6, 9]",5,8,"[7, 14, 17, 19, 20, 21, 24, 29]",127.5404924,12190,2104,8,17,9,1.925750226630103
undo,2,22,0,0,0,19,"[0, 16, 28, 6, 9, 19]",6,6,"[7, 14, 17, 21, 24, 29]",107.1444143,15502,3312,3,7,9,2.4220750331476455
undo,2,22,0,0,0,29,"[0, 16, 28, 6, 9, 19, 29]",7,4,"[7, 14, 17, 24]",92.11111796,16916,1414,2,2,9,2.6996279574991067
undo,2,22,0,0,0,14,"[0, 16, 28, 6, 9, 19, 29, 14]",8,1,[7],33.86165444,18235,1319,1,0,9,2.0544639927929462
undo,2,22,0,0,1,7,"[0, 16, 28, 6, 9, 19, 29, 14, 7]",9,0,[],20.82324963,20084,1849,1,0,9,2.219817088951114
undo,2,22,0,1,1,7,"[0, 16, 28, 6, 9, 19, 29, 14, 7]",9,0,[],20.82324963,24047,3963,1,0,9,2.219817088951114
undo,3,19,0,0,0,0,[0],1,29,"[1, 2, 3, 4, 5, 6, 7, 8, 9, 10, 11, 12, 13, 14, 15, 16, 17, 18, 19, 20, 21, 22, 23, 24, 25, 26, 27, 28, 29]",300,146,-1,12,149,8,0.0
undo,3,19,0,0,0,29,"[0, 29]",2,28,"[1, 2, 3, 4, 5, 6, 7, 8, 9, 10, 11, 12, 13, 14, 15, 16, 17, 18, 19, 20, 21, 22, 23, 24, 25, 26, 27, 28]",265.0715016,5305,5159,12,120,8,1.0
undo,3,19,0,0,0,9,"[0, 29, 9]",3,17,"[1, 4, 5, 6, 7, 10, 11, 12, 13, 14, 19, 20, 21, 22, 24, 27, 28]",181.7108394,7386,2081,11,65,8,1.0375842971861238
undo,3,19,0,0,0,6,"[0, 29, 9, 6]",4,12,"[4, 7, 10, 11, 13, 14, 20, 21, 22, 24, 27, 28]",140.2741407,14519,7133,11,34,8,1.0389786364356892
undo,3,19,0,0,0,14,"[0, 29, 9, 6, 14]",5,7,"[4, 10, 11, 20, 22, 24, 28]",80.59164747,17135,2616,3,6,8,1.0491884155331486
undo,3,19,0,0,0,11,"[0, 29, 9, 6, 14, 11]",6,5,"[4, 20, 22, 24, 28]",69.77499364,18450,1315,3,2,8,1.050030420094996
undo,3,19,0,0,0,22,"[0, 29, 9, 6, 14, 11, 22]",7,1,[20],21.77499364,26682,8232,1,0,8,1.30599041972075
undo,3,19,0,0,1,20,"[0, 29, 9, 6, 14, 11, 22, 20]",8,0,[],8.622047201,27850,1168,1,0,8,1.2888288530741239
undo,3,19,1,0,0,22,"[0, 29, 9, 6, 14, 11, 22]",7,1,[20],21.77499364,36639,8789,1,0,8,1.30599041972075
undo,3,19,1,0,0,11,"[0, 29, 9, 6, 14, 11]",6,5,"[4, 20, 22, 24, 28]",69.77499364,37420,781,3,2,8,1.050030420094996
undo,3,19,0,0,0,4,"[0, 29, 9, 6, 14, 11, 4]",7,1,[28],11.63722622,40273,2853,1,0,8,1.7497109777488966
undo,3,19,0,0,1,28,"[0, 29, 9, 6, 14, 11, 4, 28]",8,0,[],0.456886337,41529,1256,1,0,8,1.8278420986297665
undo,3,19,0,1,1,28,"[0, 29, 9, 6, 14, 11, 4, 28]",8,0,[],0.456886337,45678,4149,1,0,8,1.8278420986297665
undo,4,3,0,0,0,0,[0],1,29,"[1, 2, 3, 4, 5, 6, 7, 8, 9, 10, 11, 12, 13, 14, 15, 16, 17, 18, 19, 20, 21, 22, 23, 24, 25, 26, 27, 28, 29]",300,114,-1,34,427,10,0.0
undo,4,3,0,0,0,8,"[0, 8]",2,28,"[1, 2, 3, 4, 5, 6, 7, 9, 10, 11, 12, 13, 14, 15, 16, 17, 18, 19, 20, 21, 22, 23, 24, 25, 26, 27, 28, 29]",239.9666759,10172,10058,1,54,10,1.0
undo,4,3,0,0,0,24,"[0, 8, 24]",3,23,"[1, 2, 3, 4, 5, 6, 7, 10, 11, 12, 14, 15, 16, 17, 18, 19, 20, 21, 22, 25, 26, 27, 28]",227.8011509,11041,869,1,50,10,1.2267083825981846
undo,4,3,0,0,0,17,"[0, 8, 24, 17]",4,11,"[3, 4, 7, 10, 14, 15, 16, 19, 20, 21, 27]",158.4469873,12624,1583,1,18,10,1.3836579788002414
undo,4,3,0,0,0,20,"[0, 8, 24, 17, 20]",5,9,"[3, 4, 7, 10, 14, 15, 16, 19, 21]",145.7978767,13953,1329,1,14,10,1.3620097615632467
undo,4,3,0,0,0,3,"[0, 8, 24, 17, 20, 3]",6,5,"[4, 10, 14, 19, 21]",125.4017986,14562,609,1,11,10,1.3956695218398405
undo,4,3,0,0,0,19,"[0, 8, 24, 17, 20, 3, 19]",7,4,"[4, 10, 14, 21]",88.06548922,16160,1598,1,4,10,1.4360605238855817
undo,4,3,0,0,0,21,"[0, 8, 24, 17, 20, 3, 19, 21]",8,2,"[10, 14]",75.85893361,17272,1112,1,1,10,1.4576450248605066
undo,4,3,0,0,0,14,"[0, 8, 24, 17, 20, 3, 19, 21, 14]",9,1,[10],48.95168551,21014,3742,1,0,10,1.9505702217699148
undo,4,3,0,0,1,10,"[0, 8, 24, 17, 20, 3, 19, 21, 14, 10]",10,0,[],3.498412803,22450,1436,1,0,10,1.8830527336542522
undo,4,3,0,1,1,10,"[0, 8, 24, 17, 20, 3, 19, 21, 14, 10]",10,0,[],3.498412803,24637,2187,1,0,10,1.8830527336542522
undo,5,16,0,0,0,0,[0],1,29,"[1, 2, 3, 4, 5, 6, 7, 8, 9, 10, 11, 12, 13, 14, 15, 16, 17, 18, 19, 20, 21, 22, 23, 24, 25, 26, 27, 28, 29]",300,145,-1,13,161,9,0.0
undo,5,16,0,0,0,11,"[0, 11]",2,8,"[1, 14, 16, 17, 18, 23, 27, 28]",164.8519331,33109,32964,6,20,6,1.0
undo,5,16,0,0,0,23,"[0, 11, 23]",3,7,"[1, 14, 16, 17, 18, 27, 28]",127.9737552,34045,936,4,7,6,1.592767324400406
undo,5,16,0,0,0,14,"[0, 11, 23, 14]",4,4,"[1, 17, 18, 27]",103.8076633,37064,3019,3,2,6,1.6996066862042911
undo,5,16,0,0,0,1,"[0, 11, 23, 14, 1]",5,1,[27],64.85897909,38341,1277,1,0,6,1.524833674209499
undo,5,16,0,0,1,27,"[0, 11, 23, 14, 1, 27]",6,0,[],32.60994809,39598,1257,1,0,6,1.7838693267193266
undo,5,16,0,1,1,27,"[0, 11, 23, 14, 1, 27]",6,0,[],32.60994809,42814,3216,1,0,6,1.7838693267193266
undo,6,15,0,0,0,0,[0],1,25,"[1, 2, 3, 4, 7, 8, 9, 10, 11, 12, 13, 14, 15, 16, 18, 20, 21, 22, 23, 24, 25, 26, 27, 28, 29]",300,115,-1,4,65,9,0.0
undo,6,15,0,0,0,21,"[0, 21]",2,17,"[1, 3, 4, 7, 8, 9, 11, 12, 13, 14, 15, 16, 22, 23, 24, 26, 27]",204.9158268,5023,4908,21,65,7,1.0
undo,6,15,0,0,0,12,"[0, 21, 12]",3,14,"[1, 3, 4, 7, 8, 9, 11, 13, 14, 15, 16, 22, 24, 27]",161.0866128,6901,1878,20,39,7,1.6068212046294776
undo,6,15,0,0,0,7,"[0, 21, 12, 7]",4,10,"[3, 4, 9, 11, 13, 14, 15, 16, 22, 27]",127.8450725,8015,1114,13,11,7,2.0298522511797907
undo,6,15,0,0,0,16,"[0, 21, 12, 7, 16]",5,5,"[3, 4, 11, 15, 22]",84.18731258,8995,980,3,3,7,1.8904046427013528
undo,6,15,0,0,0,11,"[0, 21, 12, 7, 16, 11]",6,1,[3],58.16808892,10719,1724,1,0,7,1.9475991988988648
undo,6,15,0,0,1,3,"[0, 21, 12, 7, 16, 11, 3]",7,0,[],46.76633467,11574,855,1,0,7,1.912955285957019
undo,6,15,0,1,1,3,"[0, 21, 12, 7, 16, 11, 3]",7,0,[],46.76633467,24504,12930,1,0,7,1.912955285957019
undo,7,6,0,0,0,0,[0],1,29,"[1, 2, 3, 4, 5, 6, 7, 8, 9, 10, 11, 12, 13, 14, 15, 16, 17, 18, 19, 20, 21, 22, 23, 24, 25, 26, 27, 28, 29]",300,111,-1,180,4304,10,0.0
undo,7,6,0,0,0,3,"[0, 3]",2,28,"[1, 2, 4, 5, 6, 7, 8, 9, 10, 11, 12, 13, 14, 15, 16, 17, 18, 19, 20, 21, 22, 23, 24, 25, 26, 27, 28, 29]",266.4738908,15033,14922,90,1607,10,1.0
undo,7,6,0,0,0,16,"[0, 3, 16]",3,27,"[1, 2, 4, 5, 6, 7, 8, 9, 10, 11, 12, 13, 14, 15, 17, 18, 19, 20, 21, 22, 23, 24, 25, 26, 27, 28, 29]",220.2353787,23790,8757,16,190,10,1.1050742161728249
undo,7,6,0,0,0,18,"[0, 3, 16, 18]",4,24,"[1, 2, 4, 5, 6, 7, 8, 9, 10, 11, 12, 13, 14, 15, 17, 19, 20, 21, 22, 23, 24, 26, 27, 29]",196.8901436,24848,1058,10,97,10,1.6930577237270534
undo,7,6,0,0,0,17,"[0, 3, 16, 18, 17]",5,20,"[1, 2, 4, 5, 6, 7, 8, 9, 10, 11, 13, 14, 20, 21, 22, 23, 24, 26, 27, 29]",182.9617553,25744,896,8,58,10,1.6583245453234965
undo,7,6,0,0,0,10,"[0, 3, 16, 18, 17, 10]",6,17,"[1, 2, 4, 5, 6, 7, 8, 11, 13, 14, 21, 22, 23, 24, 26, 27, 29]",163.2386724,26986,1242,6,33,10,1.6214605156931816
undo,7,6,0,0,0,24,"[0, 3, 16, 18, 17, 10, 24]",7,15,"[1, 2, 4, 5, 6, 7, 8, 11, 13, 14, 22, 23, 26, 27, 29]",149.8222646,27808,822,6,18,10,1.5435556829623227
undo,7,6,0,0,0,23,"[0, 3, 16, 18, 17, 10, 24, 23]",8,6,"[6, 11, 14, 22, 27, 29]",88.6340304,31482,3674,3,4,10,1.5749914836315253
undo,7,6,0,0,0,22,"[0, 3, 16, 18, 17, 10, 24, 23, 22]",9,2,"[14, 27]",47.6340304,32977,1495,2,0,10,1.6207636864423158
undo,7,6,0,0,1,14,"[0, 3, 16, 18, 17, 10, 24, 23, 22, 14]",10,0,[],13.22472933,34197,1220,1,0,10,1.7051539946832646
undo,7,6,0,1,1,14,"[0, 3, 16, 18, 17, 10, 24, 23, 22, 14]",10,0,[],13.22472933,36554,2357,1,0,10,1.7051539946832646
undo,8,0,0,0,0,0,[0],1,27,"[2, 3, 4, 5, 6, 7, 8, 9, 10, 11, 12, 13, 14, 15, 16, 17, 19, 20, 21, 22, 23, 24, 25, 26, 27, 28, 29]",300,129,-1,104,1136,9,0.0
undo,8,0,0,0,0,28,"[0, 28]",2,26,"[2, 3, 4, 5, 6, 7, 8, 9, 10, 11, 12, 13, 14, 15, 16, 17, 19, 20, 21, 22, 23, 24, 25, 26, 27, 29]",194.9190788,13917,13788,39,388,9,1.0
undo,8,0,0,0,0,5,"[0, 28, 5]",3,21,"[2, 3, 4, 7, 8, 9, 11, 12, 13, 14, 15, 16, 17, 19, 20, 21, 23, 24, 25, 26, 29]",151.2613189,15067,1150,27,210,9,1.0978295127671733
undo,8,0,0,0,0,26,"[0, 28, 5, 26]",4,15,"[3, 4, 7, 8, 9, 11, 12, 13, 14, 15, 17, 19, 20, 23, 24]",115.8212286,20259,5192,5,35,9,1.1400379746718978
undo,8,0,0,0,0,4,"[0, 28, 5, 26, 4]",5,12,"[3, 7, 8, 9, 11, 12, 15, 17, 19, 20, 23, 24]",103.779634,21993,1734,4,17,9,1.2534780347343448
undo,8,0,0,0,0,24,"[0, 28, 5, 26, 4, 24]",6,9,"[3, 7, 8, 9, 11, 12, 15, 17, 19]",92.37787977,23193,1200,4,12,9,1.2444963062448124
undo,8,0,0,0,0,15,"[0, 28, 5, 26, 4, 24, 15]",7,6,"[3, 7, 8, 9, 11, 17]",69.03264471,24233,1040,3,4,9,1.2218613820858855
undo,8,0,0,0,0,7,"[0, 28, 5, 26, 4, 24, 15, 7]",8,2,"[3, 8]",37.96819558,27154,2921,2,0,9,1.2781430976973103
undo,8,0,0,0,1,3,"[0, 28, 5, 26, 4, 24, 15, 7, 3]",9,0,[],13.88500642,30424,3270,1,0,9,1.319960702148038
undo,8,0,0,1,1,3,"[0, 28, 5, 26, 4, 24, 15, 7, 3]",9,0,[],13.88500642,33109,2685,1,0,9,1.319960702148038
undo,9,8,0,0,0,0,[0],1,29,"[1, 2, 3, 4, 5, 6, 7, 8, 9, 10, 11, 12, 13, 14, 15, 16, 17, 18, 19, 20, 21, 22, 23, 24, 25, 26, 27, 28, 29]",300,144,-1,10,149,9,0.0
undo,9,8,0,0,0,5,"[0, 5]",2,28,"[1, 2, 3, 4, 6, 7, 8, 9, 10, 11, 12, 13, 14, 15, 16, 17, 18, 19, 20, 21, 22, 23, 24, 25, 26, 27, 28, 29]",254.5137383,4825,4681,10,100,9,1.0
undo,9,8,0,0,0,25,"[0, 5, 25]",3,20,"[1, 2, 3, 4, 6, 11, 12, 14, 15, 16, 17, 18, 19, 20, 21, 22, 23, 24, 28, 29]",215.3091468,5749,924,4,42,9,1.2272747879909065
undo,9,8,0,0,0,1,"[0, 5, 25, 1]",4,17,"[3, 4, 6, 11, 12, 14, 15, 16, 17, 18, 20, 21, 22, 23, 24, 28, 29]",190.3091468,8230,2481,3,24,9,1.1770245007593956
undo,9,8,0,0,0,23,"[0, 5, 25, 1, 23]",5,15,"[3, 4, 6, 11, 14, 15, 16, 17, 18, 20, 21, 22, 24, 28, 29]",167.2874179,9735,1505,1,14,9,1.141996583852372
undo,9,8,0,0,0,18,"[0, 5, 25, 1, 23, 18]",6,9,"[3, 4, 11, 14, 15, 16, 17, 24, 28]",125.5261919,11720,1985,1,7,9,1.3199166330970717
undo,9,8,0,0,0,28,"[0, 5, 25, 1, 23, 18, 28]",7,1,[16],59.906073,13001,1281,1,0,8,1.425373059246715
undo,9,8,0,0,1,16,"[0, 5, 25, 1, 23, 18, 28, 16]",8,0,[],37.54539323,14465,1464,1,0,8,1.4175143337764708
undo,9,8,1,0,0,28,"[0, 5, 25, 1, 23, 18, 28]",7,1,[16],59.906073,38002,23537,1,0,8,1.425373059246715
undo,9,8,1,0,0,18,"[0, 5, 25, 1, 23, 18]",6,9,"[3, 4, 11, 14, 15, 16, 17, 24, 28]",125.5261919,38369,367,1,7,9,1.3199166330970717
undo,9,8,1,0,0,23,"[0, 5, 25, 1, 23]",5,15,"[3, 4, 6, 11, 14, 15, 16, 17, 18, 20, 21, 22, 24, 28, 29]",167.2874179,38718,349,1,14,9,1.141996583852372
undo,9,8,1,0,0,1,"[0, 5, 25, 1]",4,17,"[3, 4, 6, 11, 12, 14, 15, 16, 17, 18, 20, 21, 22, 23, 24, 28, 29]",190.3091468,39067,349,3,24,9,1.1770245007593956
undo,9,8,1,0,0,25,"[0, 5, 25]",3,20,"[1, 2, 3, 4, 6, 11, 12, 14, 15, 16, 17, 18, 19, 20, 21, 22, 23, 24, 28, 29]",215.3091468,39367,300,4,42,9,1.2272747879909065
undo,9,8,1,0,0,5,"[0, 5]",2,28,"[1, 2, 3, 4, 6, 7, 8, 9, 10, 11, 12, 13, 14, 15, 16, 17, 18, 19, 20, 21, 22, 23, 24, 25, 26, 27, 28, 29]",254.5137383,39767,400,10,100,9,1.0
undo,9,8,0,0,0,14,"[0, 5, 14]",3,20,"[1, 2, 3, 4, 6, 7, 11, 15, 16, 17, 18, 19, 20, 21, 22, 23, 24, 25, 28, 29]",214.5512559,44189,4422,4,36,9,1.0001019035932595
undo,9,8,0,0,0,17,"[0, 5, 14, 17]",4,15,"[1, 4, 6, 7, 11, 15, 16, 18, 19, 20, 22, 23, 24, 25, 28]",177.5377449,45541,1352,4,16,9,1.121197267659591
undo,9,8,0,0,0,11,"[0, 5, 14, 17, 11]",5,11,"[1, 4, 15, 16, 18, 19, 22, 23, 24, 25, 28]",152.3583883,47231,1690,4,8,9,1.1277254166016362
undo,9,8,0,0,0,24,"[0, 5, 14, 17, 11, 24]",6,3,"[15, 16, 28]",115.1428001,48183,952,2,2,9,1.1227411011978805
undo,9,8,0,0,0,15,"[0, 5, 14, 17, 11, 24, 15]",7,2,"[16, 28]",98.37974552,48999,816,2,0,9,1.1956385406066814
undo,9,8,0,0,0,16,"[0, 5, 14, 17, 11, 24, 15, 16]",8,1,[28],47.30137436,51190,2191,1,0,9,1.36482239111247
undo,9,8,0,0,1,28,"[0, 5, 14, 17, 11, 24, 15, 16, 28]",9,0,[],24.94069458,52997,1807,1,0,9,1.632953105226947
undo,9,8,0,1,1,28,"[0, 5, 14, 17, 11, 24, 15, 16, 28]",9,0,[],24.94069458,57980,4983,1,0,9,1.632953105226947
undo,10,40,0,0,0,0,[0],1,29,"[1, 2, 3, 4, 5, 6, 7, 8, 9, 10, 11, 12, 13, 14, 15, 16, 17, 18, 19, 20, 21, 22, 23, 24, 25, 26, 27, 28, 29]",300,111,-1,8,191,9,0.0
undo,10,40,0,0,0,1,"[0, 1]",2,18,"[2, 5, 6, 7, 8, 9, 10, 11, 13, 15, 17, 18, 19, 21, 22, 23, 27, 29]",247.8463808,7342,7231,4,80,9,1.0
undo,10,40,0,0,0,6,"[0, 1, 6]",3,17,"[2, 5, 7, 8, 9, 10, 11, 13, 15, 17, 18, 19, 21, 22, 23, 27, 29]",227.7466295,8839,1497,4,74,9,1.0459427008232034
undo,10,40,0,0,0,9,"[0, 1, 6, 9]",4,10,"[2, 5, 8, 11, 18, 19, 21, 22, 23, 27]",159.146338,10670,1831,17,39,8,1.142098432552584
undo,10,40,0,0,0,18,"[0, 1, 6, 9, 18]",5,9,"[2, 5, 8, 11, 19, 21, 22, 23, 27]",142.5933926,11780,1110,13,14,8,1.3288108654802917
undo,10,40,0,0,0,5,"[0, 1, 6, 9, 18, 5]",6,7,"[2, 8, 19, 21, 22, 23, 27]",111.0180858,12757,977,5,5,8,1.5366414787972102
undo,10,40,0,0,0,23,"[0, 1, 6, 9, 18, 5, 23]",7,3,"[2, 19, 21]",82.71614241,13708,951,3,0,8,2.2908821040631264
undo,10,40,0,0,1,19,"[0, 1, 6, 9, 18, 5, 23, 19]",8,0,[],50.76305179,15243,1535,1,0,8,2.4294131203959415
undo,10,40,1,0,0,23,"[0, 1, 6, 9, 18, 5, 23]",7,3,"[2, 19, 21]",82.71614241,22785,7542,3,0,8,2.2908821040631264
undo,10,40,1,0,0,5,"[0, 1, 6, 9, 18, 5]",6,7,"[2, 8, 19, 21, 22, 23, 27]",111.0180858,23068,283,5,5,8,1.5366414787972102
undo,10,40,1,0,0,18,"[0, 1, 6, 9, 18]",5,9,"[2, 5, 8, 11, 19, 21, 22, 23, 27]",142.5933926,23285,217,13,14,8,1.3288108654802917
undo,10,40,1,0,0,9,"[0, 1, 6, 9]",4,10,"[2, 5, 8, 11, 18, 19, 21, 22, 23, 27]",159.146338,23817,532,17,39,8,1.142098432552584
undo,10,40,1,0,0,6,"[0, 1, 6]",3,17,"[2, 5, 7, 8, 9, 10, 11, 13, 15, 17, 18, 19, 21, 22, 23, 27, 29]",227.7466295,24417,600,4,74,9,1.0459427008232034
undo,10,40,0,0,0,21,"[0, 1, 6, 21]",4,8,"[2, 5, 9, 17, 18, 19, 22, 23]",175.7754837,26140,1723,4,25,9,1.0308822257404064
undo,10,40,0,0,0,9,"[0, 1, 6, 21, 9]",5,6,"[2, 5, 18, 19, 22, 23]",130.0699041,27155,1015,4,12,9,1.377861912961129
undo,10,40,0,0,0,18,"[0, 1, 6, 21, 9, 18]",6,5,"[2, 5, 19, 22, 23]",113.5169588,29140,1985,4,4,9,1.5742712168661408
undo,10,40,0,0,0,5,"[0, 1, 6, 21, 9, 18, 5]",7,3,"[19, 22, 23]",81.94165198,30258,1118,2,1,9,1.7730665063055515
undo,10,40,0,0,0,23,"[0, 1, 6, 21, 9, 18, 5, 23]",8,1,[19],53.63970859,31382,1124,1,0,9,2.597442759912231
undo,10,40,0,0,1,19,"[0, 1, 6, 21, 9, 18, 5, 23, 19]",9,0,[],21.68661797,32445,1063,1,0,9,2.7128328554069565
undo,10,40,0,1,1,19,"[0, 1, 6, 21, 9, 18, 5, 23, 19]",9,0,[],21.68661797,36903,4458,1,0,9,2.7128328554069565
undo,11,12,0,0,0,0,[0],1,29,"[1, 2, 3, 4, 5, 6, 7, 8, 9, 10, 11, 12, 13, 14, 15, 16, 17, 18, 19, 20, 21, 22, 23, 24, 25, 26, 27, 28, 29]",300,144,-1,2,32,9,0.0
undo,11,12,0,0,0,22,"[0, 22]",2,22,"[2, 4, 5, 6, 7, 9, 10, 12, 13, 14, 15, 16, 17, 18, 19, 21, 23, 24, 25, 27, 28, 29]",211.9943184,5085,4941,6,42,8,1.0
undo,11,12,0,0,0,16,"[0, 22, 16]",3,12,"[2, 4, 5, 6, 7, 12, 14, 19, 23, 24, 25, 27]",190.9943184,6073,988,6,24,8,1.2017164145167045
undo,11,12,0,0,0,4,"[0, 22, 16, 4]",4,9,"[2, 6, 7, 12, 14, 19, 24, 25, 27]",156.7890556,7041,968,6,14,8,1.146531713305579
undo,11,12,0,0,0,12,"[0, 22, 16, 4, 12]",5,4,"[14, 19, 24, 27]",114.5990094,8094,1053,4,3,8,1.1221389456954312
undo,11,12,0,0,0,27,"[0, 22, 16, 4, 12, 27]",6,3,"[14, 19, 24]",90.24741807,9856,1762,2,1,8,1.2262878338287035
undo,11,12,0,0,0,14,"[0, 22, 16, 4, 12, 27, 14]",7,1,[24],61.59432051,11072,1216,1,0,8,1.2804562106751427
undo,11,12,0,0,1,24,"[0, 22, 16, 4, 12, 27, 14, 24]",8,0,[],44.38966997,12512,1440,1,0,8,1.4322660007679802
undo,11,12,0,1,1,24,"[0, 22, 16, 4, 12, 27, 14, 24]",8,0,[],44.38966997,15577,3065,1,0,8,1.4322660007679802
undo,12,13,0,0,0,0,[0],1,29,"[1, 2, 3, 4, 5, 6, 7, 8, 9, 10, 11, 12, 13, 14, 15, 16, 17, 18, 19, 20, 21, 22, 23, 24, 25, 26, 27, 28, 29]",300,113,-1,60,2676,11,0.0
undo,12,13,0,0,0,24,"[0, 24]",2,28,"[1, 2, 3, 4, 5, 6, 7, 8, 9, 10, 11, 12, 13, 14, 15, 16, 17, 18, 19, 20, 21, 22, 23, 25, 26, 27, 28, 29]",288.8196601,4698,4585,16,1444,11,1.0
undo,12,13,0,0,0,28,"[0, 24, 28]",3,23,"[1, 2, 3, 4, 6, 7, 8, 9, 10, 11, 12, 13, 15, 16, 17, 19, 20, 21, 22, 23, 26, 27, 29]",222.5324064,5940,1242,8,243,11,1.0513810491680837
undo,12,13,0,0,0,2,"[0, 24, 28, 2]",4,19,"[1, 3, 4, 6, 7, 9, 11, 12, 13, 15, 16, 17, 19, 20, 21, 23, 26, 27, 29]",184.889346,7827,1887,7,110,11,1.050374132001543
undo,12,13,0,0,0,29,"[0, 24, 28, 2, 29]",5,18,"[1, 3, 4, 6, 7, 9, 11, 12, 13, 15, 16, 17, 19, 20, 21, 23, 26, 27]",173.1846461,9234,1407,7,85,11,1.1393409619120594
undo,12,13,0,0,0,7,"[0, 24, 28, 2, 29, 7]",6,17,"[1, 3, 4, 6, 9, 11, 12, 13, 15, 16, 17, 19, 20, 21, 23, 26, 27]",157.9203086,10421,1187,5,45,11,1.349777315111579
undo,12,13,0,0,0,26,"[0, 24, 28, 2, 29, 7, 26]",7,16,"[1, 3, 4, 6, 9, 11, 12, 13, 15, 16, 17, 19, 20, 21, 23, 27]",147.480002,11282,861,5,25,11,1.5942082773824946
undo,12,13,0,0,0,6,"[0, 24, 28, 2, 29, 7, 26, 6]",8,12,"[1, 3, 4, 11, 13, 15, 16, 17, 19, 20, 23, 27]",127.3802508,13244,1962,4,12,11,1.5898347940840756
undo,12,13,0,0,0,11,"[0, 24, 28, 2, 29, 7, 26, 6, 11]",9,6,"[1, 13, 15, 16, 17, 23]",108.2752776,14237,993,3,4,11,1.5029953945561012
undo,12,13,0,0,0,13,"[0, 24, 28, 2, 29, 7, 26, 6, 11, 13]",10,2,"[15, 17]",52.19497806,16316,2079,2,0,11,1.3655915863754327
undo,12,13,0,0,1,15,"[0, 24, 28, 2, 29, 7, 26, 6, 11, 13, 15]",11,0,[],12.38291958,18505,2189,1,0,11,1.3653085520078876
undo,12,13,0,1,1,15,"[0, 24, 28, 2, 29, 7, 26, 6, 11, 13, 15]",11,0,[],12.38291958,22722,4217,1,0,11,1.3653085520078876
undo,13,9,0,0,0,0,[0],1,27,"[1, 3, 4, 5, 6, 7, 8, 9, 10, 11, 13, 14, 15, 16, 17, 18, 19, 20, 21, 22, 23, 24, 25, 26, 27, 28, 29]",300,112,-1,2,182,10,0.0
undo,13,9,0,0,0,27,"[0, 27]",2,18,"[3, 4, 7, 8, 9, 10, 11, 16, 17, 18, 19, 20, 21, 22, 23, 25, 26, 28]",246.3996269,13628,13516,6,149,9,1.0
undo,13,9,0,0,0,25,"[0, 27, 25]",3,16,"[3, 4, 7, 8, 9, 10, 11, 17, 18, 19, 20, 21, 22, 23, 26, 28]",210.4969807,14782,1154,6,109,9,3.7164105930635247
undo,13,9,0,0,0,10,"[0, 27, 25, 10]",4,13,"[4, 7, 8, 9, 11, 17, 18, 20, 21, 22, 23, 26, 28]",170.647263,16220,1438,5,56,9,2.380770024811378
undo,13,9,0,0,0,28,"[0, 27, 25, 10, 28]",5,8,"[8, 9, 18, 20, 21, 22, 23, 26]",113.647263,17799,1579,1,14,9,2.5089053854195744
undo,13,9,0,0,0,8,"[0, 27, 25, 10, 28, 8]",6,6,"[9, 20, 21, 22, 23, 26]",102.8306092,18668,869,1,6,9,3.0913560088673475
undo,13,9,0,0,0,23,"[0, 27, 25, 10, 28, 8, 23]",7,3,"[9, 21, 26]",81.35969865,19559,891,1,2,9,3.6721642436794952
undo,13,9,0,0,0,9,"[0, 27, 25, 10, 28, 8, 23, 9]",8,1,[26],58.99901888,20468,909,1,0,9,3.236443541769683
undo,13,9,0,0,1,26,"[0, 27, 25, 10, 28, 8, 23, 9, 26]",9,0,[],2.350982727,22046,1578,1,0,9,2.5478270613856613
undo,13,9,0,1,1,26,"[0, 27, 25, 10, 28, 8, 23, 9, 26]",9,0,[],2.350982727,25518,3472,1,0,9,2.5478270613856613
undo,14,5,0,0,0,0,[0],1,29,"[1, 2, 3, 4, 5, 6, 7, 8, 9, 10, 11, 12, 13, 14, 15, 16, 17, 18, 19, 20, 21, 22, 23, 24, 25, 26, 27, 28, 29]",300,146,-1,5,139,9,0.0
undo,14,5,0,0,0,12,"[0, 12]",2,22,"[2, 4, 5, 6, 8, 9, 10, 13, 14, 15, 16, 17, 18, 19, 21, 22, 23, 24, 25, 26, 27, 28]",228.3062067,5100,4954,1,27,9,1.0
undo,14,5,0,0,0,25,"[0, 12, 25]",3,21,"[2, 4, 5, 6, 8, 9, 10, 13, 14, 15, 16, 17, 18, 19, 21, 22, 23, 24, 26, 27, 28]",200.5213187,6249,1149,1,20,9,1.584023303445617
undo,14,5,0,0,0,23,"[0, 12, 25, 23]",4,19,"[2, 4, 5, 6, 8, 9, 10, 13, 14, 15, 16, 17, 18, 19, 21, 22, 24, 26, 27]",182.0822298,7143,894,1,14,9,2.3508446989254357
undo,14,5,0,0,0,24,"[0, 12, 25, 23, 24]",5,15,"[2, 4, 5, 6, 8, 9, 13, 14, 15, 17, 18, 19, 22, 26, 27]",158.995437,8067,924,1,12,9,1.9469752046288753
undo,14,5,0,0,0,17,"[0, 12, 25, 23, 24, 17]",6,7,"[4, 5, 6, 8, 15, 18, 19]",124.0097257,9059,992,1,8,9,1.6482276497563642
undo,14,5,0,0,0,5,"[0, 12, 25, 23, 24, 17, 5]",7,4,"[4, 6, 15, 18]",80.96323916,10075,1016,1,3,9,1.4654649104389412
undo,14,5,0,0,1,15,"[0, 12, 25, 23, 24, 17, 5, 15]",8,0,[],40.93824697,11237,1162,1,0,8,1.4660376450939663
undo,14,5,0,1,1,15,"[0, 12, 25, 23, 24, 17, 5, 15]",8,0,[],40.93824697,15979,4742,1,0,8,1.4660376450939663
undo,15,7,0,0,0,0,[0],1,29,"[1, 2, 3, 4, 5, 6, 7, 8, 9, 10, 11, 12, 13, 14, 15, 16, 17, 18, 19, 20, 21, 22, 23, 24, 25, 26, 27, 28, 29]",300,113,-1,3,79,9,0.0
undo,15,7,0,0,0,15,"[0, 15]",2,19,"[2, 4, 5, 6, 7, 8, 9, 10, 13, 14, 16, 18, 19, 20, 21, 23, 25, 27, 28]",230.9348134,3783,3670,2,38,9,1.0
undo,15,7,0,0,0,6,"[0, 15, 6]",3,18,"[2, 4, 5, 7, 8, 9, 10, 13, 14, 16, 18, 19, 20, 21, 23, 25, 27, 28]",205.854941,4881,1098,2,36,9,1.366719602896943
undo,15,7,0,0,0,25,"[0, 15, 6, 25]",4,11,"[2, 4, 7, 13, 14, 16, 18, 19, 20, 21, 23]",138.6760753,5885,1004,2,28,9,1.3624631728355765
undo,15,7,0,0,0,4,"[0, 15, 6, 25, 4]",5,7,"[2, 7, 13, 16, 18, 19, 20]",113.9374415,6646,761,2,12,9,1.3249684384385587
undo,15,7,0,0,0,20,"[0, 15, 6, 25, 4, 20]",6,5,"[2, 7, 13, 18, 19]",94.29055881,7614,968,1,6,9,1.3721893242679268
undo,15,7,0,0,0,18,"[0, 15, 6, 25, 4, 20, 18]",7,3,"[7, 13, 19]",81.48431034,8227,613,1,2,9,1.5262542308371432
undo,15,7,0,0,0,7,"[0, 15, 6, 25, 4, 20, 18, 7]",8,1,[19],40.25325408,9438,1211,1,0,9,1.41986878673423
undo,15,7,0,0,1,19,"[0, 15, 6, 25, 4, 20, 18, 7, 19]",9,0,[],10.84237174,10395,957,1,0,9,1.5285658163212987
undo,15,7,0,1,1,19,"[0, 15, 6, 25, 4, 20, 18, 7, 19]",9,0,[],10.84237174,11368,973,1,0,9,1.5285658163212987
undo,16,10,0,0,0,0,[0],1,29,"[1, 2, 3, 4, 5, 6, 7, 8, 9, 10, 11, 12, 13, 14, 15, 16, 17, 18, 19, 20, 21, 22, 23, 24, 25, 26, 27, 28, 29]",300,146,-1,1,100,9,0.0
undo,16,10,0,0,0,13,"[0, 13]",2,25,"[1, 2, 3, 4, 6, 7, 8, 9, 10, 11, 12, 14, 17, 18, 19, 20, 21, 22, 23, 24, 25, 26, 27, 28, 29]",249.4628849,3201,3055,1,79,9,1.0
undo,16,10,0,0,0,11,"[0, 13, 11]",3,20,"[1, 2, 3, 6, 7, 8, 9, 10, 12, 14, 18, 19, 20, 21, 22, 24, 26, 27, 28, 29]",206.4512586,5417,2216,1,54,9,1.0313137484914219
undo,16,10,0,0,0,19,"[0, 13, 11, 19]",4,11,"[2, 6, 8, 9, 10, 14, 18, 20, 24, 26, 27]",170.0919407,6627,1210,1,22,9,1.0879446220132545
undo,16,10,0,0,0,2,"[0, 13, 11, 19, 2]",5,4,"[14, 20, 26, 27]",126.1829439,7709,1082,1,4,9,1.06474052351343
undo,16,10,0,0,0,14,"[0, 13, 11, 19, 2, 14]",6,3,"[20, 26, 27]",114.0174188,9231,1522,1,3,9,1.1628909195912238
undo,16,10,0,0,0,26,"[0, 13, 11, 19, 2, 14, 26]",7,2,"[20, 27]",79.34754716,10592,1361,1,1,9,1.6660727647633602
undo,16,10,0,0,0,20,"[0, 13, 11, 19, 2, 14, 26, 20]",8,1,[27],47.56704999,11539,947,1,0,9,2.085581809637999
undo,16,10,0,0,1,27,"[0, 13, 11, 19, 2, 14, 26, 20, 27]",9,0,[],2.312215998,15425,3886,1,0,9,1.9116357409137932
undo,16,10,0,1,1,27,"[0, 13, 11, 19, 2, 14, 26, 20, 27]",9,0,[],2.312215998,18675,3250,1,0,9,1.9116357409137932
undo,17,35,0,0,0,0,[0],1,29,"[1, 2, 3, 4, 5, 6, 7, 8, 9, 10, 11, 12, 13, 14, 15, 16, 17, 18, 19, 20, 21, 22, 23, 24, 25, 26, 27, 28, 29]",300,113,-1,5,236,11,0.0
undo,17,35,0,0,0,27,"[0, 27]",2,27,"[1, 2, 4, 5, 6, 7, 8, 9, 10, 11, 12, 13, 14, 15, 16, 17, 18, 19, 20, 21, 22, 23, 24, 25, 26, 28, 29]",278.7867966,12385,12272,5,144,11,1.0
undo,17,35,0,0,0,24,"[0, 27, 24]",3,25,"[1, 2, 4, 5, 6, 7, 8, 9, 10, 11, 12, 13, 15, 16, 17, 18, 19, 20, 21, 22, 23, 25, 26, 28, 29]",234.6053525,13586,1201,3,80,11,2.1084080567904624
undo,17,35,0,0,0,17,"[0, 27, 24, 17]",4,20,"[1, 2, 4, 5, 6, 7, 8, 9, 10, 15, 16, 18, 19, 20, 21, 23, 25, 26, 28, 29]",222.9006526,14301,715,3,50,11,1.9439555968916868
undo,17,35,0,0,0,1,"[0, 27, 24, 17, 1]",5,18,"[2, 4, 5, 6, 8, 9, 10, 15, 16, 18, 19, 20, 21, 23, 25, 26, 28, 29]",207.0892643,16801,2500,3,39,11,1.9436711872547336
undo,17,35,0,0,0,15,"[0, 27, 24, 17, 1, 15]",6,16,"[2, 4, 5, 6, 8, 9, 10, 16, 18, 19, 20, 23, 25, 26, 28, 29]",184.241945,18914,2113,3,24,11,2.082774572108194
undo,17,35,0,0,0,23,"[0, 27, 24, 17, 1, 15, 23]",7,7,"[5, 6, 9, 18, 19, 25, 26]",123.801892,20257,1343,3,14,11,1.657239080954205
undo,17,35,0,0,0,9,"[0, 27, 24, 17, 1, 15, 23, 9]",8,4,"[6, 18, 19, 25]",86.15883157,22029,1772,2,2,11,1.9022575917054987
undo,17,35,0,0,0,18,"[0, 27, 24, 17, 1, 15, 23, 9, 18]",9,2,"[6, 25]",66.13384718,22849,820,2,0,11,1.8181129550839106
undo,17,35,0,0,0,25,"[0, 27, 24, 17, 1, 15, 23, 9, 18, 25]",10,1,[6],32.29599855,24874,2025,1,0,11,1.6530923432245144
undo,17,35,0,0,1,6,"[0, 27, 24, 17, 1, 15, 23, 9, 18, 25, 6]",11,0,[],8.275174247,25912,1038,1,0,11,1.9291202388527962
undo,17,35,0,1,1,6,"[0, 27, 24, 17, 1, 15, 23, 9, 18, 25, 6]",11,0,[],8.275174247,28548,2636,1,0,11,1.9291202388527962
undo,18,32,0,0,0,0,[0],1,29,"[1, 2, 3, 4, 5, 6, 7, 8, 9, 10, 11, 12, 13, 14, 15, 16, 17, 18, 19, 20, 21, 22, 23, 24, 25, 26, 27, 28, 29]",300,111,-1,17,359,10,0.0
undo,18,32,0,0,0,19,"[0, 19]",2,28,"[1, 2, 3, 4, 5, 6, 7, 8, 9, 10, 11, 12, 13, 14, 15, 16, 17, 18, 20, 21, 22, 23, 24, 25, 26, 27, 28, 29]",283.5075775,3224,3113,16,294,10,1.0
undo,18,32,0,0,0,13,"[0, 19, 13]",3,24,"[2, 3, 4, 5, 6, 8, 9, 10, 11, 12, 14, 15, 16, 17, 18, 20, 21, 22, 23, 24, 25, 26, 27, 28]",260.3127505,3897,673,14,227,10,1.0172874229878615
undo,18,32,0,0,0,15,"[0, 19, 13, 15]",4,18,"[2, 3, 5, 8, 9, 10, 11, 12, 16, 17, 20, 22, 23, 24, 25, 26, 27, 28]",177.4393531,7480,3583,9,116,10,1.435447391509833
undo,18,32,0,0,0,28,"[0, 19, 13, 15, 28]",5,17,"[2, 3, 5, 8, 9, 10, 11, 12, 16, 17, 20, 22, 23, 24, 25, 26, 27]",166.0375988,9024,1544,9,70,10,1.3843701324937985
undo,18,32,0,0,0,12,"[0, 19, 13, 15, 28, 12]",6,14,"[2, 3, 5, 8, 9, 10, 11, 16, 17, 20, 22, 24, 26, 27]",147.0639329,10119,1095,6,35,10,1.358372254952329
undo,18,32,0,0,0,16,"[0, 19, 13, 15, 28, 12, 16]",7,13,"[2, 3, 5, 8, 9, 10, 11, 17, 20, 22, 24, 26, 27]",131.411457,10989,870,5,15,10,1.4356932930709845
undo,18,32,0,0,0,22,"[0, 19, 13, 15, 28, 12, 16, 22]",8,6,"[2, 8, 9, 17, 20, 27]",97.57360838,12618,1629,3,5,10,1.4335226411545752
undo,18,32,0,0,0,9,"[0, 19, 13, 15, 28, 12, 16, 22, 9]",9,3,"[2, 8, 20]",75.37000507,13937,1319,3,0,10,1.4837166378374758
undo,18,32,0,0,1,2,"[0, 19, 13, 15, 28, 12, 16, 22, 9, 2]",10,0,[],24.28184597,16096,2159,1,0,10,1.9009621017233784
undo,18,32,1,0,0,9,"[0, 19, 13, 15, 28, 12, 16, 22, 9]",9,3,"[2, 8, 20]",75.37000507,20255,4159,3,0,10,1.4837166378374758
undo,18,32,0,0,1,8,"[0, 19, 13, 15, 28, 12, 16, 22, 9, 8]",10,0,[],30.24794838,22758,2503,1,0,10,1.3767698817641267
undo,18,32,0,1,1,8,"[0, 19, 13, 15, 28, 12, 16, 22, 9, 8]",10,0,[],30.24794838,27198,4440,1,0,10,1.3767698817641267
undo,19,36,0,0,0,0,[0],1,24,"[2, 4, 5, 6, 7, 8, 9, 10, 12, 13, 14, 15, 16, 17, 18, 19, 20, 22, 23, 25, 26, 27, 28, 29]",300,161,-1,2,200,10,0.0
undo,19,36,0,0,0,12,"[0, 12]",2,23,"[2, 4, 5, 6, 7, 8, 9, 10, 13, 14, 15, 16, 17, 18, 19, 20, 22, 23, 25, 26, 27, 28, 29]",277.7963967,6733,6572,90,804,9,1.0
undo,19,36,0,0,0,9,"[0, 12, 9]",3,14,"[2, 4, 8, 10, 13, 16, 17, 18, 19, 23, 25, 27, 28, 29]",215.4345494,8790,2057,32,191,9,1.224429481246385
undo,19,36,0,0,0,17,"[0, 12, 9, 17]",4,11,"[2, 4, 8, 10, 13, 16, 18, 19, 23, 25, 27]",189.1857399,10506,1716,8,54,9,1.1724571624470872
undo,19,36,0,0,0,19,"[0, 12, 9, 17, 19]",5,8,"[2, 4, 10, 13, 16, 18, 23, 25]",161.2930885,11565,1059,3,14,9,1.7995682634090462
undo,19,36,0,0,0,2,"[0, 12, 9, 17, 19, 2]",6,4,"[10, 13, 16, 25]",124.1716661,13292,1727,2,3,9,1.5569787348204112
undo,19,36,0,0,0,25,"[0, 12, 9, 17, 19, 2, 25]",7,3,"[10, 13, 16]",99.17166613,14766,1474,1,2,9,1.7541097756555504
undo,19,36,0,0,0,13,"[0, 12, 9, 17, 19, 2, 25, 13]",8,1,[10],78.58040585,16469,1703,1,0,9,2.257503926583423
undo,19,36,0,0,1,10,"[0, 12, 9, 17, 19, 2, 25, 13, 10]",9,0,[],2.619889792,18740,2271,1,0,9,1.709815416525762
undo,19,36,0,1,1,10,"[0, 12, 9, 17, 19, 2, 25, 13, 10]",9,0,[],2.619889792,20439,1699,1,0,9,1.709815416525762
undo,20,23,0,0,0,0,[0],1,28,"[1, 2, 3, 4, 5, 6, 7, 8, 9, 10, 11, 12, 13, 14, 15, 16, 17, 18, 19, 20, 21, 22, 23, 25, 26, 27, 28, 29]",300,129,-1,76,2626,10,0.0
undo,20,23,0,0,0,13,"[0, 13]",2,19,"[1, 2, 3, 5, 6, 7, 8, 9, 10, 12, 14, 17, 18, 19, 21, 22, 23, 27, 29]",189.3202819,5043,4914,9,168,10,1.0
undo,20,23,0,0,0,12,"[0, 13, 12]",3,16,"[1, 2, 3, 6, 7, 8, 9, 10, 14, 17, 18, 21, 22, 23, 27, 29]",177.2372359,6128,1085,9,96,10,1.0014195490503164
undo,20,23,0,0,0,14,"[0, 13, 12, 14]",4,12,"[1, 2, 3, 6, 7, 9, 10, 18, 21, 22, 27, 29]",154.0424089,8662,2534,9,74,9,1.035968216733192
undo,20,23,1,0,0,12,"[0, 13, 12]",3,16,"[1, 2, 3, 6, 7, 8, 9, 10, 14, 17, 18, 21, 22, 23, 27, 29]",177.2372359,12716,4054,9,96,10,1.0014195490503164
undo,20,23,0,0,0,9,"[0, 13, 12, 9]",4,13,"[1, 2, 3, 6, 7, 10, 14, 17, 18, 21, 22, 27, 29]",162.9194149,16335,3619,3,30,10,1.049232924848041
undo,20,23,0,0,0,14,"[0, 13, 12, 9, 14]",5,11,"[1, 2, 3, 6, 7, 10, 18, 21, 22, 27, 29]",152.4791083,17369,1034,1,9,10,1.047064109194793
undo,20,23,0,0,0,2,"[0, 13, 12, 9, 14, 2]",6,7,"[6, 7, 10, 18, 22, 27, 29]",137.6130396,18952,1583,4,12,9,1.1900073741388617
undo,20,23,0,0,0,6,"[0, 13, 12, 9, 14, 2, 6]",7,5,"[7, 18, 22, 27, 29]",119.1739507,20012,1060,3,3,9,1.2035561408942026
undo,20,23,0,0,0,27,"[0, 13, 12, 9, 14, 2, 6, 27]",8,2,"[18, 22]",90.87200729,21967,1955,2,0,9,1.460613258021435
undo,20,23,0,0,1,18,"[0, 13, 12, 9, 14, 2, 6, 27, 18]",9,0,[],15.55932576,24225,2258,1,0,9,2.9597139353041295
undo,20,23,0,1,1,18,"[0, 13, 12, 9, 14, 2, 6, 27, 18]",9,0,[],15.55932576,29063,4838,1,0,9,2.9597139353041295
undo,21,31,0,0,0,0,[0],1,27,"[1, 3, 4, 5, 6, 7, 8, 10, 11, 12, 13, 14, 15, 16, 17, 18, 19, 20, 21, 22, 23, 24, 25, 26, 27, 28, 29]",300,115,-1,2,87,10,0.0
undo,21,31,0,0,0,14,"[0, 14]",2,25,"[1, 3, 5, 6, 7, 8, 10, 11, 12, 13, 15, 16, 17, 18, 19, 20, 21, 22, 23, 24, 25, 26, 27, 28, 29]",263.861378,17909,17794,2,59,10,1.0
undo,21,31,0,0,0,27,"[0, 14, 27]",3,22,"[1, 3, 5, 6, 7, 8, 10, 11, 12, 13, 15, 16, 17, 18, 19, 20, 21, 22, 24, 25, 28, 29]",235.6833724,19013,1104,1,39,10,1.5881859159302467
undo,21,31,0,0,0,8,"[0, 14, 27, 8]",4,20,"[1, 3, 5, 6, 7, 10, 11, 12, 13, 16, 17, 18, 19, 20, 21, 22, 24, 25, 28, 29]",224.6380114,20064,1051,1,36,10,2.1665048452331277
undo,21,31,0,0,0,18,"[0, 14, 27, 8, 18]",5,15,"[1, 5, 6, 7, 11, 12, 13, 16, 17, 19, 20, 22, 25, 28, 29]",188.7911147,24062,3998,1,26,10,1.7273375741920205
undo,21,31,0,0,0,11,"[0, 14, 27, 8, 18, 11]",6,11,"[1, 5, 7, 12, 16, 17, 19, 20, 22, 25, 28]",153.9055876,25063,1001,13,17,9,2.386348208737804
undo,21,31,0,0,0,5,"[0, 14, 27, 8, 18, 11, 5]",7,5,"[16, 17, 20, 25, 28]",110.2249283,26049,986,3,3,9,2.163249612867222
undo,21,31,0,0,0,28,"[0, 14, 27, 8, 18, 11, 5, 28]",8,2,"[16, 17]",90.00117988,26712,663,2,0,9,1.9564635733184719
undo,21,31,0,0,1,16,"[0, 14, 27, 8, 18, 11, 5, 28, 16]",9,0,[],56.38570725,27630,918,1,0,9,1.824071502589619
undo,21,31,1,0,0,28,"[0, 14, 27, 8, 18, 11, 5, 28]",8,2,"[16, 17]",90.00117988,31147,3517,2,0,9,1.9564635733184719
undo,21,31,1,0,0,5,"[0, 14, 27, 8, 18, 11, 5]",7,5,"[16, 17, 20, 25, 28]",110.2249283,31547,400,3,3,9,2.163249612867222
undo,21,31,1,0,0,11,"[0, 14, 27, 8, 18, 11]",6,11,"[1, 5, 7, 12, 16, 17, 19, 20, 22, 25, 28]",153.9055876,31947,400,13,17,9,2.386348208737804
undo,21,31,1,0,0,18,"[0, 14, 27, 8, 18]",5,15,"[1, 5, 6, 7, 11, 12, 13, 16, 17, 19, 20, 22, 25, 28, 29]",188.7911147,32563,616,1,26,10,1.7273375741920205
undo,21,31,0,0,0,17,"[0, 14, 27, 8, 18, 17]",6,13,"[1, 5, 6, 7, 11, 12, 13, 16, 19, 20, 22, 25, 28]",159.584951,34215,1652,1,13,10,1.551192427769927
undo,21,31,0,0,0,11,"[0, 14, 27, 8, 18, 17, 11]",7,7,"[5, 12, 16, 19, 22, 25, 28]",118.4753414,35584,1369,1,4,10,2.9650760544203494
undo,21,31,0,0,0,5,"[0, 14, 27, 8, 18, 17, 11, 5]",8,2,"[16, 28]",74.79468207,36881,1297,1,1,10,2.56711965625205
undo,21,31,0,0,0,28,"[0, 14, 27, 8, 18, 17, 11, 5, 28]",9,1,[16],54.57093365,43815,6934,1,0,10,2.2865510762058148
undo,21,31,0,0,1,16,"[0, 14, 27, 8, 18, 17, 11, 5, 28, 16]",10,0,[],20.95546102,44960,1145,1,0,10,2.089356850786318
undo,21,31,0,1,1,16,"[0, 14, 27, 8, 18, 17, 11, 5, 28, 16]",10,0,[],20.95546102,46731,1771,1,0,10,2.089356850786318
undo,22,41,0,0,0,0,[0],1,29,"[1, 2, 3, 4, 5, 6, 7, 8, 9, 10, 11, 12, 13, 14, 15, 16, 17, 18, 19, 20, 21, 22, 23, 24, 25, 26, 27, 28, 29]",300,111,-1,1,143,10,0.0
undo,22,41,0,0,0,13,"[0, 13]",2,23,"[1, 2, 3, 5, 6, 7, 9, 10, 11, 12, 14, 15, 17, 18, 19, 20, 21, 22, 24, 25, 26, 27, 28]",258.2747079,22858,22747,1,55,10,1.0
undo,22,41,0,0,0,28,"[0, 13, 28]",3,22,"[1, 2, 3, 5, 6, 7, 9, 10, 11, 12, 14, 15, 17, 18, 19, 20, 21, 22, 24, 25, 26, 27]",223.7928286,24986,2128,1,39,10,1.895724242592676
undo,22,41,0,0,0,5,"[0, 13, 28, 5]",4,19,"[1, 2, 3, 6, 9, 10, 11, 12, 14, 15, 17, 18, 19, 20, 21, 22, 24, 25, 27]",210.1913581,26262,1276,1,34,10,2.861541269398273
undo,22,41,0,0,0,3,"[0, 13, 28, 5, 3]",5,16,"[1, 2, 6, 9, 10, 12, 14, 17, 18, 19, 20, 21, 22, 24, 25, 27]",175.3632086,28376,2114,1,22,10,3.1455488489005883
undo,22,41,0,0,0,21,"[0, 13, 28, 5, 3, 21]",6,14,"[1, 2, 6, 9, 10, 12, 14, 17, 18, 19, 20, 22, 25, 27]",143.2228912,29312,936,13,11,9,3.207558429289677
undo,22,41,0,0,0,9,"[0, 13, 28, 5, 3, 21, 9]",7,6,"[1, 2, 10, 12, 14, 17]",93.85691102,30485,1173,7,4,9,2.5050148501792275
undo,22,41,0,0,0,2,"[0, 13, 28, 5, 3, 21, 9, 2]",8,5,"[1, 10, 12, 14, 17]",81.77386505,31376,891,5,0,9,2.4119643847713177
undo,22,41,0,0,1,17,"[0, 13, 28, 5, 3, 21, 9, 2, 17]",9,0,[],49.21622385,32432,1056,1,0,9,3.9563478735796007
undo,22,41,1,0,0,2,"[0, 13, 28, 5, 3, 21, 9, 2]",8,5,"[1, 10, 12, 14, 17]",81.77386505,47708,15276,5,0,9,2.4119643847713177
undo,22,41,1,0,0,9,"[0, 13, 28, 5, 3, 21, 9]",7,6,"[1, 2, 10, 12, 14, 17]",93.85691102,48175,467,7,4,9,2.5050148501792275
undo,22,41,1,0,0,21,"[0, 13, 28, 5, 3, 21]",6,14,"[1, 2, 6, 9, 10, 12, 14, 17, 18, 19, 20, 22, 25, 27]",143.2228912,48590,415,13,11,9,3.207558429289677
undo,22,41,1,0,0,3,"[0, 13, 28, 5, 3]",5,16,"[1, 2, 6, 9, 10, 12, 14, 17, 18, 19, 20, 21, 22, 24, 25, 27]",175.3632086,49090,500,1,22,10,3.1455488489005883
undo,22,41,0,0,0,22,"[0, 13, 28, 5, 3, 22]",6,10,"[2, 6, 9, 10, 12, 17, 18, 20, 21, 25]",145.3965604,50350,1260,1,7,10,2.241807041008432
undo,22,41,0,0,0,21,"[0, 13, 28, 5, 3, 22, 21]",7,4,"[2, 9, 12, 17]",94.39656044,51735,1385,1,5,10,4.206513633906409
undo,22,41,0,0,0,9,"[0, 13, 28, 5, 3, 22, 21, 9]",8,2,"[2, 17]",45.03058025,52824,1089,1,1,10,3.098343902653451
undo,22,41,0,0,0,2,"[0, 13, 28, 5, 3, 22, 21, 9, 2]",9,1,[17],32.94753428,53983,1159,1,0,10,2.9516218867624824
undo,22,41,0,0,1,17,"[0, 13, 28, 5, 3, 22, 21, 9, 2, 17]",10,0,[],0.389893085,55639,1656,1,0,10,4.726628762010198
undo,22,41,0,1,1,17,"[0, 13, 28, 5, 3, 22, 21, 9, 2, 17]",10,0,[],0.389893085,58013,2374,1,0,10,4.726628762010198
basic,23,21,0,0,0,0,[0],1,29,"[1, 2, 3, 4, 5, 6, 7, 8, 9, 10, 11, 12, 13, 14, 15, 16, 17, 18, 19, 20, 21, 22, 23, 24, 25, 26, 27, 28, 29]",300,166,-1,84,830,9,0.0
basic,23,21,0,0,0,21,"[0, 21]",2,22,"[1, 3, 4, 6, 8, 9, 10, 11, 12, 14, 15, 16, 17, 18, 20, 22, 23, 24, 25, 26, 27, 29]",210.1111798,10664,10498,1,69,9,1.0
basic,23,21,0,0,0,14,"[0, 21, 14]",3,15,"[1, 4, 6, 8, 9, 15, 16, 17, 18, 20, 22, 23, 24, 25, 29]",184.4986828,11706,1042,35,96,8,1.0083702391721483
basic,23,21,0,0,0,4,"[0, 21, 14, 4]",4,13,"[1, 8, 9, 15, 16, 17, 18, 20, 22, 23, 24, 25, 29]",170.3565472,12733,1027,20,39,8,1.0135821167776475
basic,23,21,0,0,0,23,"[0, 21, 14, 4, 23]",5,10,"[8, 15, 16, 17, 18, 20, 22, 24, 25, 29]",134.2317635,14790,2057,14,14,8,1.6740850510094318
basic,23,21,0,0,0,25,"[0, 21, 14, 4, 23, 25]",6,5,"[17, 18, 20, 22, 29]",90.90740543,18651,3861,5,3,8,3.4955738644324623
basic,23,21,0,0,0,18,"[0, 21, 14, 4, 23, 25, 18]",7,3,"[20, 22, 29]",49.14617939,21534,2883,3,0,8,4.246273920803611
basic,23,21,0,0,1,22,"[0, 21, 14, 4, 23, 25, 18, 22]",8,0,[],22.74542183,23598,2064,1,0,8,3.3718889119490822
basic,23,21,0,1,1,22,"[0, 21, 14, 4, 23, 25, 18, 22]",8,0,[],22.74542183,25637,2039,1,0,8,3.3718889119490822
basic,24,28,0,0,0,0,[0],1,27,"[1, 2, 3, 4, 5, 6, 7, 8, 9, 10, 11, 12, 13, 14, 15, 16, 17, 18, 19, 20, 22, 23, 25, 26, 27, 28, 29]",300,112,-1,2,96,9,0.0
basic,24,28,0,0,0,3,"[0, 3]",2,26,"[1, 2, 4, 5, 6, 7, 8, 9, 10, 11, 12, 13, 14, 15, 16, 17, 18, 19, 20, 22, 23, 25, 26, 27, 28, 29]",251.0817008,5245,5133,1,64,9,1.0
basic,24,28,0,0,0,20,"[0, 3, 20]",3,20,"[2, 4, 5, 6, 7, 8, 9, 10, 11, 12, 13, 14, 15, 16, 18, 19, 22, 23, 26, 28]",209.7416475,6484,1239,2,29,8,1.6703057504555512
basic,24,28,0,0,0,15,"[0, 3, 20, 15]",4,10,"[5, 6, 8, 9, 10, 16, 22, 23, 26, 28]",157.2440286,7894,1410,1,6,7,1.4376587969564578
basic,24,28,0,0,0,23,"[0, 3, 20, 15, 23]",5,2,"[16, 22]",88.73855432,8846,952,2,0,6,1.269324093812023
basic,24,28,0,0,1,16,"[0, 3, 20, 15, 23, 16]",6,0,[],48.42726558,10053,1207,1,0,6,1.2537020201649651
basic,24,28,0,1,1,16,"[0, 3, 20, 15, 23, 16]",6,0,[],48.42726558,14446,4393,1,0,6,1.2537020201649651
basic,25,20,0,0,0,0,[0],1,21,"[1, 2, 3, 4, 5, 6, 7, 8, 9, 12, 17, 18, 20, 21, 22, 23, 25, 26, 27, 28, 29]",300,114,-1,1,9,9,0.0
basic,25,20,0,0,0,1,"[0, 1]",2,14,"[3, 4, 5, 6, 8, 9, 12, 20, 21, 23, 26, 27, 28, 29]",197.3501096,4516,4402,1,9,8,1.0
basic,25,20,0,0,0,5,"[0, 1, 5]",3,12,"[4, 6, 8, 9, 12, 20, 21, 23, 26, 27, 28, 29]",160.675868,5766,1250,1,8,8,1.1088946720668915
basic,25,20,0,0,0,21,"[0, 1, 5, 21]",4,8,"[4, 6, 8, 9, 20, 23, 27, 28]",115.675868,6566,800,1,6,8,1.0805828994591202
basic,25,20,0,0,0,8,"[0, 1, 5, 21, 8]",5,5,"[6, 9, 23, 27, 28]",98.21161876,7484,918,1,5,8,1.0976815296746363
basic,25,20,0,0,0,23,"[0, 1, 5, 21, 8, 23]",6,3,"[6, 9, 27]",53.52381281,9573,2089,1,2,8,1.0820667611140062
basic,25,20,0,0,0,9,"[0, 1, 5, 21, 8, 23, 9]",7,1,[6],34.3144401,10749,1176,1,0,8,1.0771429624373048
basic,25,20,0,0,1,6,"[0, 1, 5, 21, 8, 23, 9, 6]",8,0,[],11.29271124,11823,1074,1,0,8,1.0892675954154076
basic,25,20,0,1,1,6,"[0, 1, 5, 21, 8, 23, 9, 6]",8,0,[],11.29271124,13683,1860,1,0,8,1.0892675954154076
basic,26,11,0,0,0,0,[0],1,25,"[1, 2, 3, 4, 5, 6, 8, 9, 10, 11, 12, 13, 14, 15, 16, 17, 18, 19, 20, 22, 23, 25, 26, 27, 28]",300,115,-1,6,374,12,0.0
basic,26,11,0,0,0,1,"[0, 1]",2,24,"[2, 3, 4, 5, 6, 8, 9, 10, 11, 12, 13, 14, 15, 16, 17, 18, 19, 20, 22, 23, 25, 26, 27, 28]",264.6446609,7962,7847,6,217,12,1.0
basic,26,11,0,0,0,18,"[0, 1, 18]",3,19,"[2, 4, 5, 6, 8, 9, 11, 12, 14, 15, 16, 17, 19, 20, 22, 23, 25, 27, 28]",212.3187591,10476,2514,6,161,12,1.3884463804898786
basic,26,11,0,0,0,27,"[0, 1, 18, 27]",4,18,"[2, 4, 5, 6, 8, 9, 11, 12, 14, 15, 16, 17, 19, 20, 22, 23, 25, 28]",188.4650382,11401,925,6,155,12,1.3600813284083875
basic,26,11,0,0,0,17,"[0, 1, 18, 27, 17]",5,11,"[2, 5, 6, 8, 11, 12, 15, 19, 22, 25, 28]",111.3871556,16520,5119,2,45,12,1.282398281674261
basic,26,11,0,0,0,8,"[0, 1, 18, 27, 17, 8]",6,7,"[2, 5, 11, 12, 15, 22, 28]",97.0693345,17714,1194,2,21,12,1.3975291553712
basic,26,11,0,0,0,15,"[0, 1, 18, 27, 17, 8, 15]",7,6,"[2, 5, 11, 12, 22, 28]",83.61571045,18866,1152,2,18,12,1.3793915678186077
basic,26,11,0,0,0,11,"[0, 1, 18, 27, 17, 8, 15, 11]",8,4,"[2, 5, 22, 28]",65.50494017,23175,4309,2,14,12,1.3525960247899067
basic,26,11,0,0,0,28,"[0, 1, 18, 27, 17, 8, 15, 11, 28]",9,3,"[2, 5, 22]",46.08845233,26014,2839,2,4,12,1.4693669896690256
basic,26,11,0,0,0,5,"[0, 1, 18, 27, 17, 8, 15, 11, 28, 5]",10,2,"[2, 22]",28.19990851,28572,2558,1,1,12,1.6706321377081579
basic,26,11,0,0,0,2,"[0, 1, 18, 27, 17, 8, 15, 11, 28, 5, 2]",11,1,[22],11.19990851,30034,1462,1,0,12,1.6180355992209499
basic,26,11,0,0,1,22,"[0, 1, 18, 27, 17, 8, 15, 11, 28, 5, 2, 22]",12,0,[],1.150032892,31002,968,1,0,12,1.5851265969407473
basic,26,11,0,1,1,22,"[0, 1, 18, 27, 17, 8, 15, 11, 28, 5, 2, 22]",12,0,[],1.150032892,35475,4473,1,0,12,1.5851265969407473
basic,27,32,0,0,0,0,[0],1,29,"[1, 2, 3, 4, 5, 6, 7, 8, 9, 10, 11, 12, 13, 14, 15, 16, 17, 18, 19, 20, 21, 22, 23, 24, 25, 26, 27, 28, 29]",300,112,-1,17,359,10,0.0
basic,27,32,0,0,0,19,"[0, 19]",2,28,"[1, 2, 3, 4, 5, 6, 7, 8, 9, 10, 11, 12, 13, 14, 15, 16, 17, 18, 20, 21, 22, 23, 24, 25, 26, 27, 28, 29]",283.5075775,6448,6336,16,294,10,1.0
basic,27,32,0,0,0,13,"[0, 19, 13]",3,24,"[2, 3, 4, 5, 6, 8, 9, 10, 11, 12, 14, 15, 16, 17, 18, 20, 21, 22, 23, 24, 25, 26, 27, 28]",260.3127505,7840,1392,14,227,10,1.0172874229878615
basic,27,32,0,0,0,15,"[0, 19, 13, 15]",4,18,"[2, 3, 5, 8, 9, 10, 11, 12, 16, 17, 20, 22, 23, 24, 25, 26, 27, 28]",177.4393531,9895,2055,9,116,10,1.435447391509833
basic,27,32,0,0,0,28,"[0, 19, 13, 15, 28]",5,17,"[2, 3, 5, 8, 9, 10, 11, 12, 16, 17, 20, 22, 23, 24, 25, 26, 27]",166.0375988,10678,783,9,70,10,1.3843701324937985
basic,27,32,0,0,0,12,"[0, 19, 13, 15, 28, 12]",6,14,"[2, 3, 5, 8, 9, 10, 11, 16, 17, 20, 22, 24, 26, 27]",147.0639329,12472,1794,6,35,10,1.358372254952329
basic,27,32,0,0,0,16,"[0, 19, 13, 15, 28, 12, 16]",7,13,"[2, 3, 5, 8, 9, 10, 11, 17, 20, 22, 24, 26, 27]",131.411457,13792,1320,5,15,10,1.4356932930709845
basic,27,32,0,0,0,22,"[0, 19, 13, 15, 28, 12, 16, 22]",8,6,"[2, 8, 9, 17, 20, 27]",97.57360838,15489,1697,3,5,10,1.4335226411545752
basic,27,32,0,0,0,9,"[0, 19, 13, 15, 28, 12, 16, 22, 9]",9,3,"[2, 8, 20]",75.37000507,16498,1009,3,0,10,1.4837166378374758
basic,27,32,0,0,1,8,"[0, 19, 13, 15, 28, 12, 16, 22, 9, 8]",10,0,[],30.24794838,17985,1487,1,0,10,1.3767698817641267
basic,27,32,0,1,1,8,"[0, 19, 13, 15, 28, 12, 16, 22, 9, 8]",10,0,[],30.24794838,20823,2838,1,0,10,1.3767698817641267
basic,28,3,0,0,0,0,[0],1,29,"[1, 2, 3, 4, 5, 6, 7, 8, 9, 10, 11, 12, 13, 14, 15, 16, 17, 18, 19, 20, 21, 22, 23, 24, 25, 26, 27, 28, 29]",300,145,-1,34,427,10,0.0
basic,28,3,0,0,0,8,"[0, 8]",2,28,"[1, 2, 3, 4, 5, 6, 7, 9, 10, 11, 12, 13, 14, 15, 16, 17, 18, 19, 20, 21, 22, 23, 24, 25, 26, 27, 28, 29]",239.9666759,7778,7633,1,54,10,1.0
basic,28,3,0,0,0,24,"[0, 8, 24]",3,23,"[1, 2, 3, 4, 5, 6, 7, 10, 11, 12, 14, 15, 16, 17, 18, 19, 20, 21, 22, 25, 26, 27, 28]",227.8011509,8644,866,1,50,10,1.2267083825981846
basic,28,3,0,0,0,17,"[0, 8, 24, 17]",4,11,"[3, 4, 7, 10, 14, 15, 16, 19, 20, 21, 27]",158.4469873,10146,1502,1,18,10,1.3836579788002414
basic,28,3,0,0,0,20,"[0, 8, 24, 17, 20]",5,9,"[3, 4, 7, 10, 14, 15, 16, 19, 21]",145.7978767,11947,1801,1,14,10,1.3620097615632467
basic,28,3,0,0,0,3,"[0, 8, 24, 17, 20, 3]",6,5,"[4, 10, 14, 19, 21]",125.4017986,14389,2442,1,11,10,1.3956695218398405
basic,28,3,0,0,0,19,"[0, 8, 24, 17, 20, 3, 19]",7,4,"[4, 10, 14, 21]",88.06548922,15644,1255,1,4,10,1.4360605238855817
basic,28,3,0,0,0,21,"[0, 8, 24, 17, 20, 3, 19, 21]",8,2,"[10, 14]",75.85893361,16573,929,1,1,10,1.4576450248605066
basic,28,3,0,0,0,14,"[0, 8, 24, 17, 20, 3, 19, 21, 14]",9,1,[10],48.95168551,17906,1333,1,0,10,1.9505702217699148
basic,28,3,0,0,1,10,"[0, 8, 24, 17, 20, 3, 19, 21, 14, 10]",10,0,[],3.498412803,20116,2210,1,0,10,1.8830527336542522
basic,28,3,0,1,1,10,"[0, 8, 24, 17, 20, 3, 19, 21, 14, 10]",10,0,[],3.498412803,30294,10178,1,0,10,1.8830527336542522
basic,29,37,0,0,0,0,[0],1,29,"[1, 2, 3, 4, 5, 6, 7, 8, 9, 10, 11, 12, 13, 14, 15, 16, 17, 18, 19, 20, 21, 22, 23, 24, 25, 26, 27, 28, 29]",300,113,-1,6,168,10,0.0
basic,29,37,0,0,0,23,"[0, 23]",2,16,"[3, 5, 6, 8, 9, 10, 12, 13, 14, 16, 17, 18, 24, 27, 28, 29]",200.2954364,6664,6551,1,17,7,1.0
basic,29,37,0,0,0,28,"[0, 23, 28]",3,10,"[3, 5, 6, 8, 9, 10, 12, 16, 17, 29]",145.2863463,7673,1009,1,12,7,2.1842713630689587
basic,29,37,0,0,0,6,"[0, 23, 28, 6]",4,5,"[3, 5, 10, 17, 29]",84.61510101,8922,1249,1,3,7,2.405071914067638
basic,29,37,0,0,0,10,"[0, 23, 28, 6, 10]",5,2,"[17, 29]",70.29727994,9994,1072,1,1,7,2.305689810351331
basic,29,37,0,0,0,17,"[0, 23, 28, 6, 10, 17]",6,1,[29],55.73706017,11040,1046,1,0,7,2.6758199590827183
basic,29,37,0,0,1,29,"[0, 23, 28, 6, 10, 17, 29]",7,0,[],2.276794547,12801,1761,1,0,7,2.2952772374472525
basic,29,37,0,1,1,29,"[0, 23, 28, 6, 10, 17, 29]",7,0,[],2.276794547,16711,3910,1,0,7,2.2952772374472525
basic,30,6,0,0,0,0,[0],1,29,"[1, 2, 3, 4, 5, 6, 7, 8, 9, 10, 11, 12, 13, 14, 15, 16, 17, 18, 19, 20, 21, 22, 23, 24, 25, 26, 27, 28, 29]",300,130,-1,180,4304,10,0.0
basic,30,6,0,0,0,26,"[0, 26]",2,25,"[1, 2, 3, 4, 5, 6, 7, 8, 9, 10, 11, 12, 13, 14, 15, 16, 17, 18, 20, 21, 22, 23, 24, 27, 29]",250.2606795,11557,11427,45,776,10,1.0
basic,30,6,0,0,0,2,"[0, 26, 2]",3,20,"[1, 3, 4, 5, 6, 7, 8, 9, 10, 13, 14, 16, 17, 18, 21, 22, 23, 24, 27, 29]",220.4278118,13104,1547,20,184,10,1.003152463832065
basic,30,6,0,0,0,7,"[0, 26, 2, 7]",4,18,"[1, 3, 4, 6, 8, 9, 10, 13, 14, 16, 17, 18, 21, 22, 23, 24, 27, 29]",179.3182022,14119,1015,20,157,10,2.5131135963314413
basic,30,6,0,0,0,3,"[0, 26, 2, 7, 3]",5,13,"[1, 6, 8, 10, 13, 16, 17, 18, 21, 22, 23, 24, 29]",143.1795802,14845,726,18,67,10,4.677560963942129
basic,30,6,0,0,0,16,"[0, 26, 2, 7, 3, 16]",6,9,"[6, 10, 13, 17, 18, 22, 23, 24, 29]",96.94106809,18848,4003,3,11,10,2.8132170172709676
basic,30,6,0,0,0,18,"[0, 26, 2, 7, 3, 16, 18]",7,4,"[10, 17, 24, 29]",73.59583303,20413,1565,2,4,10,3.7175429872148276
basic,30,6,0,0,0,17,"[0, 26, 2, 7, 3, 16, 18, 17]",8,2,"[10, 24]",59.66744475,21781,1368,2,0,10,3.4052918038285505
basic,30,6,0,0,0,10,"[0, 26, 2, 7, 3, 16, 18, 17, 10]",9,1,[24],39.94436183,22711,930,1,0,10,3.0832542837647017
basic,30,6,0,0,1,24,"[0, 26, 2, 7, 3, 16, 18, 17, 10, 24]",10,0,[],26.52795396,24862,2151,1,0,10,2.8107983495160362
basic,30,6,0,1,1,24,"[0, 26, 2, 7, 3, 16, 18, 17, 10, 24]",10,0,[],26.52795396,35490,10628,1,0,10,2.8107983495160362
basic,31,19,0,0,0,0,[0],1,29,"[1, 2, 3, 4, 5, 6, 7, 8, 9, 10, 11, 12, 13, 14, 15, 16, 17, 18, 19, 20, 21, 22, 23, 24, 25, 26, 27, 28, 29]",300,114,-1,12,149,8,0.0
basic,31,19,0,0,0,28,"[0, 28]",2,10,"[4, 6, 9, 10, 11, 14, 20, 22, 24, 27]",136.1219966,28022,27908,2,14,7,1.0
basic,31,19,0,0,0,4,"[0, 28, 4]",3,9,"[6, 9, 10, 11, 14, 20, 22, 24, 27]",124.9416567,28967,945,2,10,7,1.0622089009735736
basic,31,19,0,0,0,11,"[0, 28, 4, 11]",4,4,"[14, 20, 22, 24]",66.80388929,31088,2121,4,1,6,1.0635812936430165
basic,31,19,0,0,0,14,"[0, 28, 4, 11, 14]",5,2,"[20, 22]",55.98723547,31948,860,2,0,6,1.1668442100538934
basic,31,19,0,0,1,20,"[0, 28, 4, 11, 14, 20]",6,0,[],10.33638662,35673,3725,1,0,6,1.2812459522885806
basic,31,19,0,1,1,20,"[0, 28, 4, 11, 14, 20]",6,0,[],10.33638662,40552,4879,1,0,6,1.2812459522885806
basic,32,25,0,0,0,0,[0],1,28,"[1, 2, 3, 4, 5, 7, 8, 9, 10, 11, 12, 13, 14, 15, 16, 17, 18, 19, 20, 21, 22, 23, 24, 25, 26, 27, 28, 29]",300,116,-1,5,94,10,0.0
basic,32,25,0,0,0,23,"[0, 23]",2,23,"[1, 2, 3, 5, 7, 8, 9, 11, 12, 13, 14, 16, 17, 19, 20, 21, 22, 24, 25, 26, 27, 28, 29]",259.7756293,54058,53942,3,33,10,1.0
basic,32,25,0,0,0,19,"[0, 23, 19]",3,21,"[1, 2, 3, 5, 7, 8, 9, 11, 12, 13, 14, 16, 17, 20, 21, 22, 24, 25, 27, 28, 29]",223.9287326,56097,2039,3,24,10,1.583101227007039
basic,32,25,0,0,0,29,"[0, 23, 19, 29]",4,19,"[1, 2, 3, 5, 7, 8, 9, 11, 12, 13, 14, 16, 17, 20, 21, 22, 24, 25, 28]",207.649912,56875,778,3,17,10,1.474631541426484
basic,32,25,0,0,0,22,"[0, 23, 19, 29, 22]",5,18,"[1, 2, 3, 5, 7, 8, 9, 11, 12, 13, 14, 16, 17, 20, 21, 24, 25, 28]",191.5253965,57478,603,3,14,10,1.4020377754906637
basic,32,25,0,0,0,7,"[0, 23, 19, 29, 22, 7]",6,7,"[3, 8, 9, 11, 13, 24, 28]",115.8814939,58694,1216,3,11,10,1.5709678649326715
basic,32,25,0,0,0,24,"[0, 23, 19, 29, 22, 7, 24]",7,5,"[3, 8, 9, 13, 28]",91.12265712,59803,1109,3,7,10,1.486191600033379
basic,32,25,0,0,0,9,"[0, 23, 19, 29, 22, 7, 24, 9]",8,4,"[3, 8, 13, 28]",73.09490075,60512,709,3,3,10,1.453504870342882
basic,32,25,0,0,0,3,"[0, 23, 19, 29, 22, 7, 24, 9, 3]",9,3,"[8, 13, 28]",42.82940885,61862,1350,3,0,10,1.388955167525479
basic,32,25,0,0,1,28,"[0, 23, 19, 29, 22, 7, 24, 9, 3, 28]",10,0,[],11.52445716,63785,1923,1,0,10,1.3331084120212044
basic,32,25,0,1,1,28,"[0, 23, 19, 29, 22, 7, 24, 9, 3, 28]",10,0,[],11.52445716,65194,1409,1,0,10,1.3331084120212044
basic,33,43,0,0,0,0,[0],1,23,"[1, 2, 3, 4, 5, 6, 7, 9, 10, 11, 12, 14, 15, 16, 17, 19, 20, 21, 22, 23, 25, 27, 29]",300,115,-1,16,556,12,0.0
basic,33,43,0,0,0,29,"[0, 29]",2,22,"[1, 2, 3, 4, 5, 6, 7, 9, 10, 11, 12, 14, 15, 16, 17, 19, 20, 21, 22, 23, 25, 27]",277.909278,8094,7979,16,520,12,1.0
basic,33,43,0,0,0,20,"[0, 29, 20]",3,20,"[1, 2, 3, 4, 6, 7, 9, 10, 11, 12, 14, 15, 16, 17, 19, 21, 22, 23, 25, 27]",254.4785289,9308,1214,15,422,12,1.082311746871282
basic,33,43,0,0,0,16,"[0, 29, 20, 16]",4,19,"[1, 2, 3, 4, 6, 7, 9, 10, 11, 12, 14, 15, 17, 19, 21, 22, 23, 25, 27]",231.8511119,13396,4088,15,389,12,1.215201926898219
basic,33,43,0,0,0,25,"[0, 29, 20, 16, 25]",5,14,"[1, 2, 3, 4, 6, 7, 9, 11, 12, 14, 15, 19, 22, 23]",175.7708124,15102,1706,53,282,11,1.566384303308987
basic,33,43,0,0,0,15,"[0, 29, 20, 16, 25, 15]",6,13,"[1, 2, 3, 4, 6, 7, 9, 11, 12, 14, 19, 22, 23]",153.0992443,17068,1966,27,108,11,1.776736412604812
basic,33,43,0,0,0,12,"[0, 29, 20, 16, 25, 15, 12]",7,10,"[1, 3, 6, 7, 9, 11, 14, 19, 22, 23]",133.7860364,18299,1231,21,41,11,1.6813323012225032
basic,33,43,0,0,0,3,"[0, 29, 20, 16, 25, 15, 12, 3]",8,9,"[1, 6, 7, 9, 11, 14, 19, 22, 23]",120.7860364,19090,791,20,12,11,1.608740348096123
basic,33,43,0,0,0,22,"[0, 29, 20, 16, 25, 15, 12, 3, 22]",9,6,"[1, 6, 7, 11, 14, 19]",86.07292644,22084,2994,9,2,11,1.793657891802588
basic,33,43,0,0,0,19,"[0, 29, 20, 16, 25, 15, 12, 3, 22, 19]",10,3,"[1, 6, 7]",65.45739831,23096,1012,3,0,11,1.6882745891803936
basic,33,43,0,0,1,1,"[0, 29, 20, 16, 25, 15, 12, 3, 22, 19, 1]",11,0,[],37.2793927,24327,1231,1,0,11,1.825064866046553
basic,33,43,0,1,1,1,"[0, 29, 20, 16, 25, 15, 12, 3, 22, 19, 1]",11,0,[],37.2793927,31729,7402,1,0,11,1.825064866046553
basic,34,30,0,0,0,0,[0],1,19,"[3, 4, 5, 7, 9, 11, 16, 17, 18, 19, 20, 21, 22, 24, 25, 26, 27, 28, 29]",300,116,-1,5,41,8,0.0
basic,34,30,0,0,0,16,"[0, 16]",2,17,"[3, 5, 7, 9, 11, 17, 18, 19, 20, 21, 22, 24, 25, 26, 27, 28, 29]",219.3774225,26073,25957,5,34,8,1.0
basic,34,30,0,0,0,25,"[0, 16, 25]",3,10,"[3, 5, 7, 9, 11, 18, 19, 20, 27, 29]",115.0845656,37551,11478,5,28,8,1.0336279544884488
basic,34,30,0,0,0,20,"[0, 16, 25, 20]",4,8,"[3, 5, 7, 9, 18, 19, 27, 29]",93.15285342,38848,1297,4,14,8,1.0337964627284246
basic,34,30,0,0,0,27,"[0, 16, 25, 20, 27]",5,4,"[3, 5, 18, 29]",59.09408069,39832,984,4,6,8,1.1504365534848
basic,34,30,0,0,0,3,"[0, 16, 25, 20, 27, 3]",6,3,"[5, 18, 29]",39.98910751,40450,618,4,0,8,1.1403876826835333
basic,34,30,0,0,0,5,"[0, 16, 25, 20, 27, 3, 5]",7,1,[18],15.14962282,43463,3013,1,0,8,1.1779731652786363
basic,34,30,0,0,1,18,"[0, 16, 25, 20, 27, 3, 5, 18]",8,0,[],2.111218006,45188,1725,1,0,8,1.2196271502012654
basic,34,30,0,1,1,18,"[0, 16, 25, 20, 27, 3, 5, 18]",8,0,[],2.111218006,46431,1243,1,0,8,1.2196271502012654
basic,35,44,0,0,0,0,[0],1,29,"[1, 2, 3, 4, 5, 6, 7, 8, 9, 10, 11, 12, 13, 14, 15, 16, 17, 18, 19, 20, 21, 22, 23, 24, 25, 26, 27, 28, 29]",300,145,-1,13,126,7,0.0
basic,35,44,0,0,0,8,"[0, 8]",2,17,"[1, 4, 5, 7, 9, 10, 11, 12, 13, 14, 15, 20, 21, 23, 24, 25, 27]",145.7923478,21877,21732,1,10,7,1.0
basic,35,44,0,0,0,20,"[0, 8, 20]",3,16,"[1, 4, 5, 7, 9, 10, 11, 12, 13, 14, 15, 21, 23, 24, 25, 27]",133.7093018,22888,1011,1,9,7,1.0890794433668698
basic,35,44,0,0,0,9,"[0, 8, 20, 9]",4,7,"[4, 7, 11, 12, 14, 23, 24]",76.43801756,25709,2821,1,6,7,1.40892325509949
basic,35,44,0,0,0,4,"[0, 8, 20, 9, 4]",5,4,"[7, 12, 23, 24]",56.74030196,26604,895,1,3,7,1.3849770570803555
basic,35,44,0,0,0,7,"[0, 8, 20, 9, 4, 7]",6,1,[23],25.72417712,27612,1008,1,0,7,1.3274380931474288
basic,35,44,0,0,1,23,"[0, 8, 20, 9, 4, 7, 23]",7,0,[],6.619203947,28861,1249,1,0,7,1.3395824779823196
basic,35,44,0,1,1,23,"[0, 8, 20, 9, 4, 7, 23]",7,0,[],6.619203947,30261,1400,1,0,7,1.3395824779823196
basic,36,34,0,0,0,0,[0],1,25,"[1, 3, 4, 5, 6, 7, 8, 9, 10, 11, 12, 13, 15, 18, 19, 20, 21, 22, 23, 24, 25, 26, 27, 28, 29]",300,115,-1,12,367,10,0.0
basic,36,34,0,0,0,13,"[0, 13]",2,24,"[1, 3, 4, 5, 6, 7, 8, 9, 10, 11, 12, 15, 18, 19, 20, 21, 22, 23, 24, 25, 26, 27, 28, 29]",279.9750156,2552,2437,12,331,10,1.0
basic,36,34,0,0,0,1,"[0, 13, 1]",3,16,"[3, 5, 7, 8, 9, 10, 11, 12, 19, 21, 22, 23, 24, 25, 27, 29]",211.8574701,3784,1232,3,92,10,1.0010381285747127
basic,36,34,0,0,0,8,"[0, 13, 1, 8]",4,14,"[3, 5, 7, 9, 10, 11, 12, 19, 22, 23, 24, 25, 27, 29]",201.0871405,5761,1977,2,54,10,1.1636807
basic,36,34,0,0,0,25,"[0, 13, 1, 8, 25]",5,12,"[3, 5, 7, 9, 10, 11, 12, 22, 23, 24, 27, 29]",183.999133,6982,1221,2,28,10,1.1396208815936457
basic,36,34,0,0,0,24,"[0, 13, 1, 8, 25, 24]",6,11,"[3, 5, 7, 9, 10, 11, 12, 22, 23, 27, 29]",166.5062774,7896,914,2,23,10,1.374180768736554
basic,36,34,0,0,0,12,"[0, 13, 1, 8, 25, 24, 12]",7,7,"[7, 9, 10, 11, 22, 23, 27]",115.4670767,9710,1814,1,8,10,1.4994254760835948
basic,36,34,0,0,0,7,"[0, 13, 1, 8, 25, 24, 12, 7]",8,5,"[9, 11, 22, 23, 27]",100.4337804,10793,1083,1,4,10,1.758992610425009
basic,36,34,0,0,0,23,"[0, 13, 1, 8, 25, 24, 12, 7, 23]",9,1,[27],72.27352467,12295,1502,1,0,10,2.399781305190153
basic,36,34,0,0,1,27,"[0, 13, 1, 8, 25, 24, 12, 7, 23, 27]",10,0,[],18.60789321,15001,2706,1,0,10,4.766619878750327
basic,36,34,0,1,1,27,"[0, 13, 1, 8, 25, 24, 12, 7, 23, 27]",10,0,[],18.60789321,19161,4160,1,0,10,4.766619878750327
basic,37,17,0,0,0,0,[0],1,28,"[1, 2, 3, 4, 5, 6, 7, 8, 9, 10, 11, 12, 13, 14, 15, 16, 17, 18, 19, 20, 22, 23, 24, 25, 26, 27, 28, 29]",300,130,-1,2,73,8,0.0
basic,37,17,0,0,0,9,"[0, 9]",2,25,"[1, 2, 3, 5, 6, 7, 8, 10, 11, 12, 14, 15, 16, 17, 18, 19, 20, 22, 23, 24, 25, 26, 27, 28, 29]",210.5293344,5281,5151,1,34,8,1.0
basic,37,17,0,0,0,16,"[0, 9, 16]",3,21,"[1, 2, 3, 5, 7, 8, 10, 11, 12, 14, 17, 18, 19, 20, 22, 23, 25, 26, 27, 28, 29]",197.1876704,6432,1151,1,26,8,1.173103464220352
basic,37,17,0,0,0,2,"[0, 9, 16, 2]",4,18,"[1, 3, 5, 7, 8, 10, 11, 12, 14, 17, 18, 19, 23, 25, 26, 27, 28, 29]",181.0631549,7281,849,1,23,8,1.14825089247282
basic,37,17,0,0,0,17,"[0, 9, 16, 2, 17]",5,7,"[7, 8, 12, 14, 26, 27, 29]",142.7356191,8282,1001,4,5,7,1.4896040699768547
basic,37,17,0,0,0,8,"[0, 9, 16, 2, 17, 8]",6,3,"[7, 12, 27]",104.5256727,9450,1168,3,0,7,1.4604726966175894
basic,37,17,0,0,1,7,"[0, 9, 16, 2, 17, 8, 7]",7,0,[],33.81499459,11079,1629,1,0,7,1.4474701869793896
basic,37,17,0,1,1,7,"[0, 9, 16, 2, 17, 8, 7]",7,0,[],33.81499459,12649,1570,1,0,7,1.4474701869793896
basic,38,39,0,0,0,0,[0],1,28,"[1, 2, 3, 4, 5, 6, 7, 9, 10, 11, 12, 13, 14, 15, 16, 17, 18, 19, 20, 21, 22, 23, 24, 25, 26, 27, 28, 29]",300,113,-1,1,30,10,0.0
basic,38,39,0,0,0,29,"[0, 29]",2,26,"[1, 2, 3, 4, 5, 6, 7, 9, 10, 12, 13, 14, 15, 16, 17, 18, 19, 20, 21, 22, 23, 24, 25, 26, 27, 28]",243.0614366,5133,5020,8,104,9,1.0
basic,38,39,0,0,0,12,"[0, 29, 12]",3,18,"[1, 2, 4, 5, 7, 9, 10, 13, 14, 15, 16, 18, 19, 22, 23, 24, 26, 28]",182.5221931,6463,1330,5,54,9,1.0026200331524904
basic,38,39,0,0,0,10,"[0, 29, 12, 10]",4,16,"[1, 2, 4, 5, 7, 9, 13, 14, 15, 16, 18, 19, 22, 23, 24, 26]",147.0116313,9411,2948,5,34,9,1.2874817019928908
basic,38,39,0,0,0,7,"[0, 29, 12, 10, 7]",5,10,"[1, 2, 5, 13, 16, 18, 19, 22, 24, 26]",113.5900814,11396,1985,4,12,9,1.2250826263866774
basic,38,39,0,0,0,26,"[0, 29, 12, 10, 7, 26]",6,5,"[1, 16, 18, 19, 22]",94.90853971,13269,1873,3,4,9,1.2697275353190085
basic,38,39,0,0,0,22,"[0, 29, 12, 10, 7, 26, 22]",7,2,"[16, 19]",77.18849457,14163,894,2,0,9,1.438961743955176
basic,38,39,0,0,0,16,"[0, 29, 12, 10, 7, 26, 22, 16]",8,1,[19],42.18849457,15605,1442,1,0,9,1.3580882130477205
basic,38,39,0,0,1,19,"[0, 29, 12, 10, 7, 26, 22, 16, 19]",9,0,[],24.72424537,22669,7064,1,0,9,1.3646589157842668
basic,38,39,0,1,1,19,"[0, 29, 12, 10, 7, 26, 22, 16, 19]",9,0,[],24.72424537,24552,1883,1,0,9,1.3646589157842668
basic,39,13,0,0,0,0,[0],1,29,"[1, 2, 3, 4, 5, 6, 7, 8, 9, 10, 11, 12, 13, 14, 15, 16, 17, 18, 19, 20, 21, 22, 23, 24, 25, 26, 27, 28, 29]",300,116,-1,60,2676,11,0.0
basic,39,13,0,0,0,24,"[0, 24]",2,28,"[1, 2, 3, 4, 5, 6, 7, 8, 9, 10, 11, 12, 13, 14, 15, 16, 17, 18, 19, 20, 21, 22, 23, 25, 26, 27, 28, 29]",288.8196601,3722,3606,16,1444,11,1.0
basic,39,13,0,0,0,23,"[0, 24, 23]",3,27,"[1, 2, 3, 4, 5, 6, 7, 8, 9, 10, 11, 12, 13, 14, 15, 16, 17, 18, 19, 20, 21, 22, 25, 26, 27, 28, 29]",243.1140806,5602,1880,2,868,11,1.0065545717039834
basic,39,13,0,0,0,16,"[0, 24, 23, 16]",4,25,"[1, 2, 3, 4, 6, 7, 8, 9, 10, 11, 12, 13, 14, 15, 17, 18, 19, 20, 21, 22, 25, 26, 27, 28, 29]",202.8027918,6780,1178,1,145,11,1.055930143104189
basic,39,13,0,0,0,6,"[0, 24, 23, 16, 6]",5,15,"[1, 2, 3, 4, 7, 11, 13, 15, 17, 19, 20, 26, 27, 28, 29]",129.2500896,19915,13135,65,114,10,1.5726135039515996
basic,39,13,0,0,0,11,"[0, 24, 23, 16, 6, 11]",6,9,"[1, 2, 7, 13, 15, 17, 26, 28, 29]",110.1451165,21353,1438,26,16,10,1.4883370906082225
basic,39,13,0,0,0,26,"[0, 24, 23, 16, 6, 11, 26]",7,4,"[2, 7, 28, 29]",75.03101674,23578,2225,9,3,10,2.351477969908024
basic,39,13,0,0,0,7,"[0, 24, 23, 16, 6, 11, 26, 7]",8,3,"[2, 28, 29]",64.59071023,24396,818,4,1,10,2.236421799393592
basic,39,13,0,0,0,29,"[0, 24, 23, 16, 6, 11, 26, 7, 29]",9,2,"[2, 28]",49.32637271,25585,1189,2,0,10,2.2521147704857976
basic,39,13,0,0,1,2,"[0, 24, 23, 16, 6, 11, 26, 7, 29, 2]",10,0,[],37.6216728,28114,2529,1,0,10,2.394178106995351
basic,39,13,0,1,1,2,"[0, 24, 23, 16, 6, 11, 26, 7, 29, 2]",10,0,[],37.6216728,34461,6347,1,0,10,2.394178106995351
basic,40,15,0,0,0,0,[0],1,25,"[1, 2, 3, 4, 7, 8, 9, 10, 11, 12, 13, 14, 15, 16, 18, 20, 21, 22, 23, 24, 25, 26, 27, 28, 29]",300,112,-1,4,65,9,0.0
basic,40,15,0,0,0,7,"[0, 7]",2,23,"[1, 3, 4, 8, 9, 10, 11, 12, 13, 14, 15, 16, 18, 20, 21, 22, 23, 24, 25, 26, 27, 28, 29]",215.1884442,4456,4344,30,107,8,1.0
basic,40,15,0,0,0,11,"[0, 7, 11]",3,18,"[3, 4, 8, 9, 10, 12, 13, 14, 15, 16, 18, 20, 21, 22, 23, 25, 27, 29]",173.7035072,8393,3937,12,34,8,1.0171318876095128
basic,40,15,0,0,0,3,"[0, 7, 11, 3]",4,13,"[4, 10, 12, 13, 14, 15, 16, 18, 20, 21, 22, 25, 27]",162.3017529,9744,1351,7,21,8,1.0401878806820521
basic,40,15,0,0,0,16,"[0, 7, 11, 3, 16]",5,9,"[4, 10, 12, 13, 14, 15, 18, 21, 22]",137.2218805,19978,10234,5,6,8,1.4258499651326737
basic,40,15,0,0,0,22,"[0, 7, 11, 3, 16, 22]",6,4,"[4, 13, 14, 15]",78.36612462,21096,1118,2,2,8,1.284645195326425
basic,40,15,0,0,0,15,"[0, 7, 11, 3, 16, 22, 15]",7,1,[13],52.75362767,22161,1065,1,0,8,1.2590218300860974
basic,40,15,0,0,1,13,"[0, 7, 11, 3, 16, 22, 15, 13]",8,0,[],37.48929015,25056,2895,1,0,8,1.3103278820622872
basic,40,15,0,1,1,13,"[0, 7, 11, 3, 16, 22, 15, 13]",8,0,[],37.48929015,27814,2758,1,0,8,1.3103278820622872
basic,41,35,0,0,0,0,[0],1,29,"[1, 2, 3, 4, 5, 6, 7, 8, 9, 10, 11, 12, 13, 14, 15, 16, 17, 18, 19, 20, 21, 22, 23, 24, 25, 26, 27, 28, 29]",300,129,-1,5,236,11,0.0
basic,41,35,0,0,0,15,"[0, 15]",2,27,"[1, 2, 4, 5, 6, 7, 8, 9, 10, 11, 12, 13, 14, 16, 17, 18, 19, 20, 21, 22, 23, 24, 25, 26, 27, 28, 29]",244.4212271,8824,8695,9,149,10,1.0
basic,41,35,0,0,0,1,"[0, 15, 1]",3,23,"[2, 4, 5, 6, 7, 8, 9, 10, 11, 12, 16, 17, 18, 19, 20, 21, 23, 24, 25, 26, 27, 28, 29]",221.5739078,9830,1006,4,66,10,1.6406557820220038
basic,41,35,0,0,0,17,"[0, 15, 1, 17]",4,17,"[2, 4, 5, 6, 9, 10, 16, 18, 19, 21, 23, 24, 25, 26, 27, 28, 29]",205.7625195,11505,1675,2,30,10,2.3760704056873276
basic,41,35,0,0,0,24,"[0, 15, 1, 17, 24]",5,16,"[2, 4, 5, 6, 9, 10, 16, 18, 19, 21, 23, 25, 26, 27, 28, 29]",194.0578195,12374,869,2,21,10,3.4157129896624867
basic,41,35,0,0,0,27,"[0, 15, 1, 17, 24, 27]",6,11,"[2, 5, 9, 10, 16, 18, 19, 21, 23, 26, 28]",149.8763755,13494,1120,6,7,8,7.076895526683528
basic,41,35,0,0,0,19,"[0, 15, 1, 17, 24, 27, 19]",7,1,[28],79.35687463,23077,9583,1,0,8,2.681018820963108
basic,41,35,0,0,1,28,"[0, 15, 1, 17, 24, 27, 19, 28]",8,0,[],30.43857539,24024,947,1,0,8,4.622940292961407
basic,41,35,0,1,1,28,"[0, 15, 1, 17, 24, 27, 19, 28]",8,0,[],30.43857539,26233,2209,1,0,8,4.622940292961407
basic,42,8,0,0,0,0,[0],1,29,"[1, 2, 3, 4, 5, 6, 7, 8, 9, 10, 11, 12, 13, 14, 15, 16, 17, 18, 19, 20, 21, 22, 23, 24, 25, 26, 27, 28, 29]",300,115,-1,10,149,9,0.0
basic,42,8,0,0,0,5,"[0, 5]",2,28,"[1, 2, 3, 4, 6, 7, 8, 9, 10, 11, 12, 13, 14, 15, 16, 17, 18, 19, 20, 21, 22, 23, 24, 25, 26, 27, 28, 29]",254.5137383,3393,3278,10,100,9,1.0
basic,42,8,0,0,0,14,"[0, 5, 14]",3,20,"[1, 2, 3, 4, 6, 7, 11, 15, 16, 17, 18, 19, 20, 21, 22, 23, 24, 25, 28, 29]",214.5512559,4836,1443,4,36,9,1.0001019035932595
basic,42,8,0,0,0,17,"[0, 5, 14, 17]",4,15,"[1, 4, 6, 7, 11, 15, 16, 18, 19, 20, 22, 23, 24, 25, 28]",177.5377449,5817,981,4,16,9,1.121197267659591
basic,42,8,0,0,0,11,"[0, 5, 14, 17, 11]",5,11,"[1, 4, 15, 16, 18, 19, 22, 23, 24, 25, 28]",152.3583883,6491,674,4,8,9,1.1277254166016362
basic,42,8,0,0,0,24,"[0, 5, 14, 17, 11, 24]",6,3,"[15, 16, 28]",115.1428001,7779,1288,2,2,9,1.1227411011978805
basic,42,8,0,0,0,15,"[0, 5, 14, 17, 11, 24, 15]",7,2,"[16, 28]",98.37974552,8612,833,2,0,9,1.1956385406066814
basic,42,8,0,0,0,16,"[0, 5, 14, 17, 11, 24, 15, 16]",8,1,[28],47.30137436,9827,1215,1,0,9,1.36482239111247
basic,42,8,0,0,1,28,"[0, 5, 14, 17, 11, 24, 15, 16, 28]",9,0,[],24.94069458,10728,901,1,0,9,1.632953105226947
basic,42,8,0,1,1,28,"[0, 5, 14, 17, 11, 24, 15, 16, 28]",9,0,[],24.94069458,11852,1124,1,0,9,1.632953105226947
basic,43,27,0,0,0,0,[0],1,26,"[1, 3, 5, 6, 7, 8, 9, 10, 11, 12, 13, 14, 15, 16, 17, 18, 19, 21, 22, 23, 24, 25, 26, 27, 28, 29]",300,130,-1,13,578,11,0.0
basic,43,27,0,0,0,15,"[0, 15]",2,24,"[1, 3, 5, 6, 7, 8, 9, 10, 11, 12, 13, 14, 16, 17, 18, 19, 21, 22, 23, 24, 25, 26, 27, 29]",263.7508621,11643,11513,6,219,11,1.0
basic,43,27,0,0,0,24,"[0, 15, 24]",3,20,"[1, 5, 6, 7, 8, 9, 10, 12, 13, 14, 16, 17, 18, 19, 21, 23, 25, 26, 27, 29]",246.5462115,12956,1313,6,130,11,1.130933077698322
basic,43,27,0,0,0,17,"[0, 15, 24, 17]",4,15,"[1, 6, 8, 10, 12, 13, 14, 16, 18, 19, 23, 25, 26, 27, 29]",229.9932662,14489,1533,4,60,11,1.1285538435963374
basic,43,27,0,0,0,12,"[0, 15, 24, 17, 12]",5,14,"[1, 6, 8, 10, 13, 14, 16, 18, 19, 23, 25, 26, 27, 29]",218.8129263,15499,1010,2,32,11,1.2561880288755216
basic,43,27,0,0,0,10,"[0, 15, 24, 17, 12, 10]",6,11,"[1, 8, 13, 14, 18, 19, 23, 25, 26, 27, 29]",207.7675653,16386,887,2,28,11,1.2228289337766665
basic,43,27,0,0,0,13,"[0, 15, 24, 17, 12, 10, 13]",7,9,"[1, 8, 14, 18, 19, 23, 26, 27, 29]",167.9178476,17882,1496,2,18,11,1.3421291994761178
basic,43,27,0,0,0,19,"[0, 15, 24, 17, 12, 10, 13, 19]",8,5,"[1, 8, 14, 23, 29]",131.6825057,20002,2120,2,6,11,1.294749956153846
basic,43,27,0,0,0,8,"[0, 15, 24, 17, 12, 10, 13, 19, 8]",9,3,"[14, 23, 29]",116.816437,20987,985,2,1,11,1.3554286578836865
basic,43,27,0,0,0,29,"[0, 15, 24, 17, 12, 10, 13, 19, 8, 29]",10,1,[14],57.61339652,22924,1937,1,0,11,1.248354519573802
basic,43,27,0,0,1,14,"[0, 15, 24, 17, 12, 10, 13, 19, 8, 29, 14]",11,0,[],13.31892734,25499,2575,1,0,11,1.562811097555156
basic,43,27,0,1,1,14,"[0, 15, 24, 17, 12, 10, 13, 19, 8, 29, 14]",11,0,[],13.31892734,27549,2050,1,0,11,1.562811097555156
basic,44,36,0,0,0,0,[0],1,24,"[2, 4, 5, 6, 7, 8, 9, 10, 12, 13, 14, 15, 16, 17, 18, 19, 20, 22, 23, 25, 26, 27, 28, 29]",300,148,-1,2,200,10,0.0
basic,44,36,0,0,0,12,"[0, 12]",2,23,"[2, 4, 5, 6, 7, 8, 9, 10, 13, 14, 15, 16, 17, 18, 19, 20, 22, 23, 25, 26, 27, 28, 29]",277.7963967,14763,14615,90,804,9,1.0
basic,44,36,0,0,0,9,"[0, 12, 9]",3,14,"[2, 4, 8, 10, 13, 16, 17, 18, 19, 23, 25, 27, 28, 29]",215.4345494,16653,1890,32,191,9,1.224429481246385
basic,44,36,0,0,0,16,"[0, 12, 9, 16]",4,8,"[2, 10, 13, 17, 18, 19, 23, 25]",168.137615,21865,5212,7,26,9,1.235383731443557
basic,44,36,0,0,0,17,"[0, 12, 9, 16, 17]",5,6,"[2, 10, 13, 18, 19, 25]",139.8180105,22802,937,7,14,9,1.6947865799475665
basic,44,36,0,0,0,19,"[0, 12, 9, 16, 17, 19]",6,5,"[2, 10, 13, 18, 25]",111.9253591,24010,1208,6,1,9,2.440059772477113
basic,44,36,0,0,0,13,"[0, 12, 9, 16, 17, 19, 13]",7,2,"[2, 25]",68.50877245,25325,1315,2,0,9,2.3601901953162883
basic,44,36,0,0,0,25,"[0, 12, 9, 16, 17, 19, 13, 25]",8,1,[2],47.91751216,26340,1015,1,0,9,2.2017827249313693
basic,44,36,0,0,1,2,"[0, 12, 9, 16, 17, 19, 13, 25, 2]",9,0,[],22.91751216,28452,2112,1,0,9,2.453595116264792
basic,44,36,0,1,1,2,"[0, 12, 9, 16, 17, 19, 13, 25, 2]",9,0,[],22.91751216,30830,2378,1,0,9,2.453595116264792
basic,45,38,0,0,0,0,[0],1,29,"[1, 2, 3, 4, 5, 6, 7, 8, 9, 10, 11, 12, 13, 14, 15, 16, 17, 18, 19, 20, 21, 22, 23, 24, 25, 26, 27, 28, 29]",300,115,-1,33,506,9,0.0
basic,45,38,0,0,0,19,"[0, 19]",2,23,"[3, 4, 5, 6, 7, 8, 9, 11, 13, 14, 15, 16, 17, 18, 20, 22, 23, 24, 25, 26, 27, 28, 29]",219.5015528,6230,6115,6,61,9,1.0
basic,45,38,0,0,0,17,"[0, 19, 17]",3,21,"[3, 4, 5, 6, 7, 9, 11, 13, 14, 15, 16, 18, 20, 22, 23, 24, 25, 26, 27, 28, 29]",198.1239945,7667,1437,6,53,9,1.571793785769489
basic,45,38,0,0,0,20,"[0, 19, 17, 20]",4,17,"[3, 4, 5, 6, 7, 11, 13, 14, 15, 16, 18, 22, 24, 25, 26, 27, 28]",174.3542658,8796,1129,6,44,9,2.333182710277297
basic,45,38,0,0,0,13,"[0, 19, 17, 20, 13]",5,9,"[4, 11, 15, 16, 18, 24, 26, 27, 28]",125.0998244,14260,5464,1,11,9,1.7893595974504246
basic,45,38,0,0,0,4,"[0, 19, 17, 20, 13, 4]",6,6,"[11, 15, 16, 24, 26, 28]",93.69918748,15344,1084,1,6,9,2.942354535547757
basic,45,38,0,0,0,15,"[0, 19, 17, 20, 13, 4, 15]",7,4,"[11, 16, 26, 28]",67.69918748,16577,1233,1,3,9,3.165907365359093
basic,45,38,0,0,1,16,"[0, 19, 17, 20, 13, 4, 15, 16]",8,0,[],26.08188338,18180,1603,1,0,8,2.5034412435406455
basic,45,38,0,1,1,16,"[0, 19, 17, 20, 13, 4, 15, 16]",8,0,[],26.08188338,22391,4211,1,0,8,2.5034412435406455
basic,46,22,0,0,0,0,[0],1,29,"[1, 2, 3, 4, 5, 6, 7, 8, 9, 10, 11, 12, 13, 14, 15, 16, 17, 18, 19, 20, 21, 22, 23, 24, 25, 26, 27, 28, 29]",300,116,-1,31,704,9,0.0
basic,46,22,0,0,0,16,"[0, 16]",2,21,"[1, 3, 6, 7, 8, 9, 11, 13, 14, 15, 17, 18, 19, 20, 21, 22, 24, 25, 27, 28, 29]",218.605897,5116,5000,17,147,9,1.0
basic,46,22,0,0,0,28,"[0, 16, 28]",3,13,"[6, 7, 9, 13, 14, 17, 19, 20, 21, 22, 24, 25, 29]",184.1675463,6718,1602,12,61,9,1.047282311284478
basic,46,22,0,0,0,6,"[0, 16, 28, 6]",4,12,"[7, 9, 13, 14, 17, 19, 20, 21, 22, 24, 25, 29]",154.1675463,10224,3506,12,43,9,1.645645870580622
basic,46,22,0,0,0,9,"[0, 16, 28, 6, 9]",5,8,"[7, 14, 17, 19, 20, 21, 24, 29]",127.5404924,11224,1000,8,17,9,1.925750226630103
basic,46,22,0,0,0,19,"[0, 16, 28, 6, 9, 19]",6,6,"[7, 14, 17, 21, 24, 29]",107.1444143,12783,1559,3,7,9,2.4220750331476455
basic,46,22,0,0,0,29,"[0, 16, 28, 6, 9, 19, 29]",7,4,"[7, 14, 17, 24]",92.11111796,15386,2603,2,2,9,2.6996279574991067
basic,46,22,0,0,0,14,"[0, 16, 28, 6, 9, 19, 29, 14]",8,1,[7],33.86165444,16986,1600,1,0,9,2.0544639927929462
basic,46,22,0,0,1,7,"[0, 16, 28, 6, 9, 19, 29, 14, 7]",9,0,[],20.82324963,19304,2318,1,0,9,2.219817088951114
basic,46,22,0,1,1,7,"[0, 16, 28, 6, 9, 19, 29, 14, 7]",9,0,[],20.82324963,21659,2355,1,0,9,2.219817088951114
basic,47,9,0,0,0,0,[0],1,27,"[1, 3, 4, 5, 6, 7, 8, 9, 10, 11, 13, 14, 15, 16, 17, 18, 19, 20, 21, 22, 23, 24, 25, 26, 27, 28, 29]",300,129,-1,2,182,10,0.0
basic,47,9,0,0,0,25,"[0, 25]",2,24,"[1, 3, 4, 5, 6, 7, 8, 9, 10, 11, 13, 15, 16, 17, 18, 19, 20, 21, 22, 23, 24, 26, 27, 28]",275.9168108,8080,7951,2,104,10,1.0
basic,47,9,0,0,0,10,"[0, 25, 10]",3,20,"[3, 4, 5, 7, 8, 9, 11, 13, 15, 16, 17, 18, 19, 20, 21, 22, 23, 26, 27, 28]",236.0670932,9383,1303,2,76,10,1.1767014107208227
basic,47,9,0,0,0,8,"[0, 25, 10, 8]",4,19,"[3, 4, 5, 7, 9, 11, 13, 15, 16, 17, 18, 19, 20, 21, 22, 23, 26, 27, 28]",187.6935467,19800,10417,1,29,10,1.7608170712242983
basic,47,9,0,0,0,28,"[0, 25, 10, 8, 28]",5,18,"[3, 4, 5, 7, 9, 11, 13, 15, 16, 17, 18, 19, 20, 21, 22, 23, 26, 27]",176.8768928,20572,772,1,15,10,1.6576318206889098
basic,47,9,0,0,0,23,"[0, 25, 10, 8, 28, 23]",6,12,"[3, 4, 7, 9, 11, 18, 19, 20, 21, 22, 26, 27]",151.8569008,22226,1654,1,7,10,2.488131366775142
basic,47,9,0,0,0,9,"[0, 25, 10, 8, 28, 23, 9]",7,10,"[3, 4, 7, 11, 18, 19, 20, 21, 26, 27]",129.4962211,22929,703,1,5,10,2.289724512754012
basic,47,9,0,0,0,26,"[0, 25, 10, 8, 28, 23, 9, 26]",8,3,"[18, 20, 21]",72.8481849,25207,2278,1,2,10,1.944382504121744
basic,47,9,0,0,0,21,"[0, 25, 10, 8, 28, 23, 9, 26, 21]",9,1,[20],18.94085701,26446,1239,1,0,10,2.3711528775176802
basic,47,9,0,0,1,20,"[0, 25, 10, 8, 28, 23, 9, 26, 21, 20]",10,0,[],6.85781104,27808,1362,1,0,10,2.3146010432238726
basic,47,9,0,1,1,20,"[0, 25, 10, 8, 28, 23, 9, 26, 21, 20]",10,0,[],6.85781104,30279,2471,1,0,10,2.3146010432238726
basic,48,14,0,0,0,0,[0],1,29,"[1, 2, 3, 4, 5, 6, 7, 8, 9, 10, 11, 12, 13, 14, 15, 16, 17, 18, 19, 20, 21, 22, 23, 24, 25, 26, 27, 28, 29]",300,146,-1,8,157,10,0.0
basic,48,14,0,0,0,15,"[0, 15]",2,20,"[1, 2, 3, 4, 7, 8, 9, 13, 17, 18, 19, 20, 21, 22, 23, 25, 26, 27, 28, 29]",216.7053423,65837,65691,8,102,10,1.0
basic,48,14,0,0,0,28,"[0, 15, 28]",3,17,"[1, 2, 3, 4, 7, 8, 9, 13, 17, 18, 19, 20, 22, 23, 25, 26, 27]",197.4959696,67211,1374,8,48,10,1.0446007867311968
basic,48,14,0,0,0,17,"[0, 15, 28, 17]",4,14,"[1, 2, 3, 4, 7, 8, 13, 18, 19, 20, 22, 23, 25, 26]",184.0423455,68472,1261,8,39,10,1.0729463354689972
basic,48,14,0,0,0,18,"[0, 15, 28, 17, 18]",5,9,"[1, 2, 4, 7, 8, 19, 23, 25, 26]",119.412631,70274,1802,8,27,10,1.5035901079219378
basic,48,14,0,0,0,8,"[0, 15, 28, 17, 18, 8]",6,8,"[1, 2, 4, 7, 19, 23, 25, 26]",105.8111605,71438,1164,8,18,10,1.4819689987843856
basic,48,14,0,0,0,1,"[0, 15, 28, 17, 18, 8, 1]",7,5,"[7, 19, 23, 25, 26]",82.21031307,73172,1734,4,6,10,1.4084991998385268
basic,48,14,0,0,0,19,"[0, 15, 28, 17, 18, 8, 1, 19]",8,4,"[7, 23, 25, 26]",66.97876686,74644,1472,4,1,10,1.5758713333797987
basic,48,14,0,0,0,25,"[0, 15, 28, 17, 18, 8, 1, 19, 25]",9,2,"[7, 23]",31.1318702,78316,3672,2,0,10,1.6426186864061416
basic,48,14,0,0,1,23,"[0, 15, 28, 17, 18, 8, 1, 19, 25, 23]",10,0,[],1.72098786,81601,3285,1,0,10,1.586837442491671
basic,48,14,0,1,1,23,"[0, 15, 28, 17, 18, 8, 1, 19, 25, 23]",10,0,[],1.72098786,83818,2217,1,0,10,1.586837442491671
basic,49,45,0,0,0,0,[0],1,24,"[1, 2, 3, 4, 5, 6, 7, 9, 10, 11, 12, 14, 15, 16, 17, 19, 20, 21, 22, 23, 24, 25, 27, 29]",300,128,-1,6,248,10,0.0
basic,49,45,0,0,0,17,"[0, 17]",2,22,"[1, 2, 3, 4, 5, 6, 7, 9, 10, 11, 12, 14, 15, 16, 19, 20, 21, 22, 23, 24, 25, 29]",235.867325,54966,54838,1,34,10,1.0
basic,49,45,0,0,0,24,"[0, 17, 24]",3,20,"[1, 2, 3, 4, 5, 6, 7, 9, 10, 11, 12, 14, 15, 16, 19, 20, 21, 22, 23, 29]",193.8078433,55990,1024,1,33,10,1.0309432256229287
basic,49,45,0,0,0,7,"[0, 17, 24, 7]",4,18,"[1, 2, 3, 4, 5, 6, 9, 10, 12, 14, 15, 16, 19, 20, 21, 22, 23, 29]",159.3985423,57027,1037,1,32,10,1.059763151913087
basic,49,45,0,0,0,2,"[0, 17, 24, 7, 2]",5,12,"[3, 4, 6, 10, 12, 14, 16, 19, 20, 22, 23, 29]",121.3853866,58061,1034,1,23,10,1.0656581932115423
basic,49,45,0,0,0,3,"[0, 17, 24, 7, 2, 3]",6,8,"[6, 10, 12, 14, 16, 20, 22, 29]",96.06740884,60397,2336,1,13,10,1.1368250049574795
basic,49,45,0,0,0,29,"[0, 17, 24, 7, 2, 3, 29]",7,5,"[6, 10, 12, 20, 22]",76.06740884,61142,745,1,5,10,1.390376182346372
basic,49,45,0,0,0,10,"[0, 17, 24, 7, 2, 3, 29, 10]",8,2,"[6, 12]",54.52674961,62463,1321,1,1,10,1.6682270697663164
basic,49,45,0,0,0,6,"[0, 17, 24, 7, 2, 3, 29, 10, 6]",9,1,[12],28.27794012,63804,1341,1,0,10,1.5776211572942243
basic,49,45,0,0,1,12,"[0, 17, 24, 7, 2, 3, 29, 10, 6, 12]",10,0,[],8.15332832,64564,760,1,0,10,1.536035114105263
basic,49,45,0,1,1,12,"[0, 17, 24, 7, 2, 3, 29, 10, 6, 12]",10,0,[],8.15332832,65939,1375,1,0,10,1.536035114105263
basic,50,42,0,0,0,0,[0],1,29,"[1, 2, 3, 4, 5, 6, 7, 8, 9, 10, 11, 12, 13, 14, 15, 16, 17, 18, 19, 20, 21, 22, 23, 24, 25, 26, 27, 28, 29]",300,111,-1,16,302,9,0.0
basic,50,42,0,0,0,5,"[0, 5]",2,28,"[1, 2, 3, 4, 6, 7, 8, 9, 10, 11, 12, 13, 14, 15, 16, 17, 18, 19, 20, 21, 22, 23, 24, 25, 26, 27, 28, 29]",191.2939744,7508,7397,1,22,9,1.0
basic,50,42,0,0,0,4,"[0, 5, 4]",3,23,"[1, 2, 3, 6, 7, 8, 9, 10, 11, 13, 15, 17, 18, 19, 20, 21, 22, 23, 24, 25, 26, 27, 29]",171.4445412,8484,976,1,14,9,1.420957801478707
basic,50,42,0,0,0,22,"[0, 5, 4, 22]",4,20,"[1, 2, 3, 6, 7, 8, 9, 11, 15, 17, 18, 19, 20, 21, 23, 24, 25, 26, 27, 29]",160.2642013,9810,1326,1,11,9,1.5771494659680896
basic,50,42,0,0,0,8,"[0, 5, 4, 22, 8]",5,14,"[1, 2, 3, 6, 7, 11, 15, 18, 19, 24, 25, 26, 27, 29]",138.1282577,11178,1368,1,10,9,1.5055393955524201
basic,50,42,0,0,0,1,"[0, 5, 4, 22, 8, 1]",6,5,"[2, 7, 19, 26, 27]",89.03650682,13564,2386,1,7,9,1.3547259083637835
basic,50,42,0,0,0,7,"[0, 5, 4, 22, 8, 1, 7]",7,4,"[2, 19, 26, 27]",59.03650682,16115,2551,1,3,9,1.3909715672447451
basic,50,42,0,0,0,26,"[0, 5, 4, 22, 8, 1, 7, 26]",8,1,[27],32.46584631,17172,1057,1,0,9,1.3511825943939393
basic,50,42,0,0,1,27,"[0, 5, 4, 22, 8, 1, 7, 26, 27]",9,0,[],14.43808994,20019,2847,1,0,9,1.3391911688802078
basic,50,42,0,1,1,27,"[0, 5, 4, 22, 8, 1, 7, 26, 27]",9,0,[],14.43808994,21370,1351,1,0,9,1.3391911688802078
basic,51,1,0,0,0,0,[0],1,26,"[1, 2, 4, 5, 7, 8, 9, 10, 11, 12, 13, 14, 15, 16, 17, 18, 19, 20, 21, 22, 23, 24, 25, 26, 28, 29]",300,112,-1,6,74,7,0.0
basic,51,1,0,0,0,14,"[0, 14]",2,19,"[1, 4, 5, 8, 9, 13, 15, 17, 18, 19, 20, 21, 22, 23, 24, 25, 26, 28, 29]",200.1901808,6252,6140,5,42,7,1.0
basic,51,1,0,0,0,17,"[0, 14, 17]",3,15,"[1, 4, 5, 8, 9, 13, 15, 18, 19, 20, 22, 23, 25, 28, 29]",147.8356204,9222,2970,5,27,7,1.0028844724416826
basic,51,1,0,0,0,1,"[0, 14, 17, 1]",4,12,"[4, 5, 8, 9, 15, 18, 20, 22, 23, 25, 28, 29]",123.4840291,12228,3006,5,15,7,1.0264985578353567
basic,51,1,0,0,0,28,"[0, 14, 17, 1, 28]",5,5,"[9, 15, 22, 23, 29]",88.59850198,13374,1146,5,3,7,1.0339861575999345
basic,51,1,0,0,0,23,"[0, 14, 17, 1, 28, 23]",6,2,"[15, 22]",51.70676849,14188,814,2,0,7,1.0327458250705703
basic,51,1,0,0,1,22,"[0, 14, 17, 1, 28, 23, 22]",7,0,[],3.696352956,17732,3544,1,0,7,1.0700788216594126
basic,51,1,0,1,1,22,"[0, 14, 17, 1, 28, 23, 22]",7,0,[],3.696352956,20239,2507,1,0,7,1.0700788216594126
basic,52,18,0,0,0,0,[0],1,28,"[1, 2, 3, 4, 5, 6, 7, 8, 9, 10, 11, 12, 13, 14, 16, 17, 18, 19, 20, 21, 22, 23, 24, 25, 26, 27, 28, 29]",300,113,-1,3,136,10,0.0
basic,52,18,0,0,0,28,"[0, 28]",2,16,"[1, 3, 5, 7, 8, 9, 12, 13, 14, 16, 20, 23, 24, 25, 26, 27]",236.4311397,3010,2897,2,19,10,1.0
basic,52,18,0,0,0,7,"[0, 28, 7]",3,15,"[1, 3, 5, 8, 9, 12, 13, 14, 16, 20, 23, 24, 25, 26, 27]",214.4084242,3770,760,2,17,10,1.4345180696367563
basic,52,18,0,0,0,25,"[0, 28, 7, 25]",4,13,"[1, 3, 5, 8, 9, 12, 13, 14, 16, 20, 23, 26, 27]",186.6055466,4721,951,2,15,10,1.8896451241781882
basic,52,18,0,0,0,13,"[0, 28, 7, 25, 13]",5,10,"[3, 5, 8, 9, 12, 14, 16, 23, 26, 27]",141.3286209,5889,1168,5,21,9,1.6878978848273398
basic,52,18,0,0,0,14,"[0, 28, 7, 25, 13, 14]",6,8,"[3, 5, 8, 9, 12, 23, 26, 27]",122.354955,8392,2503,3,7,9,1.584538278883837
basic,52,18,0,0,0,8,"[0, 28, 7, 25, 13, 14, 8]",7,3,"[3, 5, 23]",88.75435972,9276,884,1,2,9,2.2331853335907565
basic,52,18,0,0,0,3,"[0, 28, 7, 25, 13, 14, 8, 3]",8,1,[5],60.68302202,10401,1125,1,0,9,1.9555800330994786
basic,52,18,0,0,1,5,"[0, 28, 7, 25, 13, 14, 8, 3, 5]",9,0,[],2.502269193,11711,1310,1,0,9,1.6644939127114788
basic,52,18,0,1,1,5,"[0, 28, 7, 25, 13, 14, 8, 3, 5]",9,0,[],2.502269193,13449,1738,1,0,9,1.6644939127114788
basic,53,41,0,0,0,0,[0],1,29,"[1, 2, 3, 4, 5, 6, 7, 8, 9, 10, 11, 12, 13, 14, 15, 16, 17, 18, 19, 20, 21, 22, 23, 24, 25, 26, 27, 28, 29]",300,115,-1,1,143,10,0.0
basic,53,41,0,0,0,13,"[0, 13]",2,23,"[1, 2, 3, 5, 6, 7, 9, 10, 11, 12, 14, 15, 17, 18, 19, 20, 21, 22, 24, 25, 26, 27, 28]",258.2747079,91618,91503,1,55,10,1.0
basic,53,41,0,0,0,28,"[0, 13, 28]",3,22,"[1, 2, 3, 5, 6, 7, 9, 10, 11, 12, 14, 15, 17, 18, 19, 20, 21, 22, 24, 25, 26, 27]",223.7928286,92929,1311,1,39,10,1.895724242592676
basic,53,41,0,0,0,5,"[0, 13, 28, 5]",4,19,"[1, 2, 3, 6, 9, 10, 11, 12, 14, 15, 17, 18, 19, 20, 21, 22, 24, 25, 27]",210.1913581,93503,574,1,34,10,2.861541269398273
basic,53,41,0,0,0,3,"[0, 13, 28, 5, 3]",5,16,"[1, 2, 6, 9, 10, 12, 14, 17, 18, 19, 20, 21, 22, 24, 25, 27]",175.3632086,95929,2426,1,22,10,3.1455488489005883
basic,53,41,0,0,0,21,"[0, 13, 28, 5, 3, 21]",6,14,"[1, 2, 6, 9, 10, 12, 14, 17, 18, 19, 20, 22, 25, 27]",143.2228912,96704,775,13,11,9,3.207558429289677
basic,53,41,0,0,0,9,"[0, 13, 28, 5, 3, 21, 9]",7,6,"[1, 2, 10, 12, 14, 17]",93.85691102,100210,3506,7,4,9,2.5050148501792275
basic,53,41,0,0,0,2,"[0, 13, 28, 5, 3, 21, 9, 2]",8,5,"[1, 10, 12, 14, 17]",81.77386505,101593,1383,5,0,9,2.4119643847713177
basic,53,41,0,0,1,17,"[0, 13, 28, 5, 3, 21, 9, 2, 17]",9,0,[],49.21622385,102560,967,1,0,9,3.9563478735796007
basic,53,41,0,1,1,17,"[0, 13, 28, 5, 3, 21, 9, 2, 17]",9,0,[],49.21622385,108561,6001,1,0,9,3.9563478735796007
basic,54,29,0,0,0,0,[0],1,29,"[1, 2, 3, 4, 5, 6, 7, 8, 9, 10, 11, 12, 13, 14, 15, 16, 17, 18, 19, 20, 21, 22, 23, 24, 25, 26, 27, 28, 29]",300,112,-1,1,78,9,0.0
basic,54,29,0,0,0,6,"[0, 6]",2,28,"[1, 2, 3, 4, 5, 7, 8, 9, 10, 11, 12, 13, 14, 15, 16, 17, 18, 19, 20, 21, 22, 23, 24, 25, 26, 27, 28, 29]",228.4108947,4273,4161,1,25,9,1.0
basic,54,29,0,0,0,28,"[0, 6, 28]",3,24,"[1, 3, 4, 5, 7, 9, 10, 11, 12, 13, 14, 15, 16, 17, 18, 20, 21, 22, 23, 24, 25, 26, 27, 29]",187.1798384,5666,1393,1,22,9,1.162106788166845
basic,54,29,0,0,0,27,"[0, 6, 28, 27]",4,19,"[1, 3, 4, 5, 7, 9, 10, 11, 12, 13, 14, 15, 16, 21, 22, 23, 25, 26, 29]",166.6615539,6351,685,1,21,9,1.2307173895439045
basic,54,29,0,0,0,22,"[0, 6, 28, 27, 22]",5,13,"[1, 3, 4, 5, 7, 9, 12, 13, 14, 15, 21, 26, 29]",133.4200136,8049,1698,1,19,9,1.4241767805149903
basic,54,29,0,0,0,12,"[0, 6, 28, 27, 22, 12]",6,8,"[4, 5, 7, 9, 13, 14, 21, 26]",95.4726817,22162,14113,1,6,9,1.3248355326460857
basic,54,29,0,0,0,7,"[0, 6, 28, 27, 22, 12, 7]",7,4,"[4, 5, 9, 21]",81.87121119,22944,782,1,3,9,1.3264091962339806
basic,54,29,0,0,0,9,"[0, 6, 28, 27, 22, 12, 7, 9]",8,1,[4],52.80232748,23711,767,1,0,9,1.309391257644539
basic,54,29,0,0,1,4,"[0, 6, 28, 27, 22, 12, 7, 9, 4]",9,0,[],11.76575843,26265,2554,1,0,9,1.6396807789841599
basic,54,29,0,1,1,4,"[0, 6, 28, 27, 22, 12, 7, 9, 4]",9,0,[],11.76575843,27715,1450,1,0,9,1.6396807789841599
basic,55,33,0,0,0,0,[0],1,23,"[1, 2, 5, 7, 8, 11, 12, 13, 14, 15, 16, 17, 18, 19, 20, 21, 23, 24, 25, 26, 27, 28, 29]",300,112,-1,5,108,9,0.0
basic,55,33,0,0,0,8,"[0, 8]",2,22,"[1, 2, 5, 7, 11, 12, 13, 14, 15, 16, 17, 18, 19, 20, 21, 23, 24, 25, 26, 27, 28, 29]",265.8679037,4113,4001,5,87,9,1.0
basic,55,33,0,0,0,21,"[0, 8, 21]",3,16,"[2, 5, 7, 11, 13, 14, 16, 17, 18, 19, 20, 24, 26, 27, 28, 29]",166.0430571,7187,3074,5,80,9,1.0670557763739492
basic,55,33,0,0,0,13,"[0, 8, 21, 13]",4,12,"[2, 7, 11, 14, 16, 17, 18, 19, 20, 24, 26, 29]",139.6422995,10745,3558,4,54,9,1.0555103820910288
basic,55,33,0,0,0,19,"[0, 8, 21, 13, 19]",5,10,"[7, 11, 14, 16, 17, 18, 20, 24, 26, 29]",114.1472019,11452,707,3,19,9,1.1090798607799486
basic,55,33,0,0,0,24,"[0, 8, 21, 13, 19, 24]",6,6,"[7, 14, 16, 18, 26, 29]",72.09960985,12241,789,2,3,9,1.1193530461391534
basic,55,33,0,0,0,7,"[0, 8, 21, 13, 19, 24, 7]",7,2,"[14, 26]",42.89344611,13793,1552,2,0,9,1.2065014071663551
basic,55,33,0,0,0,14,"[0, 8, 21, 13, 19, 24, 7, 14]",8,1,[26],28.02737737,14744,951,1,0,9,1.2536495746979057
basic,55,33,0,0,1,26,"[0, 8, 21, 13, 19, 24, 7, 14, 26]",9,0,[],15.37826672,15873,1129,1,0,9,1.2580465331304596
basic,55,33,0,1,1,26,"[0, 8, 21, 13, 19, 24, 7, 14, 26]",9,0,[],15.37826672,18109,2236,1,0,9,1.2580465331304596
basic,56,2,0,0,0,0,[0],1,23,"[1, 2, 4, 5, 6, 7, 8, 9, 12, 13, 15, 16, 17, 18, 19, 20, 22, 23, 25, 26, 27, 28, 29]",300,129,-1,70,620,10,0.0
basic,56,2,0,0,0,19,"[0, 19]",2,22,"[1, 2, 4, 5, 6, 7, 8, 9, 12, 13, 15, 16, 17, 18, 20, 22, 23, 25, 26, 27, 28, 29]",210.306076,2395,2266,67,431,10,1.0
basic,56,2,0,0,0,12,"[0, 19, 12]",3,17,"[1, 4, 5, 6, 7, 13, 15, 16, 17, 18, 20, 22, 25, 26, 27, 28, 29]",174.2921898,4465,2070,66,298,10,1.1107635036313153
basic,56,2,0,0,0,5,"[0, 19, 12, 5]",4,11,"[1, 6, 7, 13, 15, 16, 18, 22, 25, 26, 29]",144.7625437,6238,1773,38,136,10,1.0968174771581647
basic,56,2,0,0,0,22,"[0, 19, 12, 5, 22]",5,8,"[1, 6, 7, 13, 15, 18, 26, 29]",131.9562952,6917,679,20,63,10,1.0889910507461968
basic,56,2,0,0,0,13,"[0, 19, 12, 5, 22, 13]",6,7,"[1, 6, 7, 15, 18, 26, 29]",117.0902265,7952,1035,19,20,10,1.236526217328057
basic,56,2,0,0,0,18,"[0, 19, 12, 5, 22, 13, 18]",7,4,"[7, 15, 26, 29]",81.91921567,9343,1391,10,3,10,1.2128708213409936
basic,56,2,0,0,0,7,"[0, 19, 12, 5, 22, 13, 18, 7]",8,3,"[15, 26, 29]",71.62358553,10798,1455,5,0,10,1.2019811287894737
basic,56,2,0,0,0,15,"[0, 19, 12, 5, 22, 13, 18, 7, 15]",9,2,"[26, 29]",56.85876247,12289,1491,2,0,10,1.2907869828541363
basic,56,2,0,0,1,29,"[0, 19, 12, 5, 22, 13, 18, 7, 15, 29]",10,0,[],28.39826353,14007,1718,1,0,10,1.4795089334237532
basic,56,2,0,1,1,29,"[0, 19, 12, 5, 22, 13, 18, 7, 15, 29]",10,0,[],28.39826353,15745,1738,1,0,10,1.4795089334237532
basic,57,16,0,0,0,0,[0],1,29,"[1, 2, 3, 4, 5, 6, 7, 8, 9, 10, 11, 12, 13, 14, 15, 16, 17, 18, 19, 20, 21, 22, 23, 24, 25, 26, 27, 28, 29]",300,99,-1,13,161,9,0.0
basic,57,16,0,0,0,28,"[0, 28]",2,27,"[1, 2, 3, 4, 5, 7, 8, 9, 10, 11, 12, 13, 14, 15, 16, 17, 18, 19, 20, 21, 22, 23, 24, 25, 26, 27, 29]",284.3475242,14055,13956,11,92,9,1.0
basic,57,16,0,0,0,17,"[0, 28, 17]",3,26,"[1, 2, 3, 4, 5, 7, 8, 9, 10, 11, 12, 13, 14, 15, 16, 18, 19, 20, 21, 22, 23, 24, 25, 26, 27, 29]",219.1555001,16293,2238,10,46,9,1.3773866384707543
basic,57,16,0,0,0,16,"[0, 28, 17, 16]",4,25,"[1, 2, 3, 4, 5, 7, 8, 9, 10, 11, 12, 13, 14, 15, 18, 19, 20, 21, 22, 23, 24, 25, 26, 27, 29]",190.8358956,17574,1281,10,34,9,1.3209953830681203
basic,57,16,0,0,0,8,"[0, 28, 17, 16, 8]",5,12,"[3, 4, 5, 9, 12, 13, 15, 19, 20, 21, 25, 29]",142.4623491,18372,798,6,19,9,1.2700932705506198
basic,57,16,0,0,0,20,"[0, 28, 17, 16, 8, 20]",6,6,"[4, 5, 9, 12, 15, 25]",84.6869218,19646,1274,4,4,9,1.1899382910703262
basic,57,16,0,0,0,25,"[0, 28, 17, 16, 8, 20, 25]",7,3,"[5, 9, 15]",72.03781116,20605,959,2,2,9,1.2372268181049477
basic,57,16,0,0,0,9,"[0, 28, 17, 16, 8, 20, 25, 9]",8,2,"[5, 15]",59.23156268,21398,793,2,0,9,1.221922950237529
basic,57,16,0,0,1,15,"[0, 28, 17, 16, 8, 20, 25, 9, 15]",9,0,[],20.334262,22669,1271,1,0,9,1.318239760375411
basic,57,16,0,1,1,15,"[0, 28, 17, 16, 8, 20, 25, 9, 15]",9,0,[],20.334262,23989,1320,1,0,9,1.318239760375411
basic,58,23,0,0,0,0,[0],1,28,"[1, 2, 3, 4, 5, 6, 7, 8, 9, 10, 11, 12, 13, 14, 15, 16, 17, 18, 19, 20, 21, 22, 23, 25, 26, 27, 28, 29]",300,116,-1,76,2626,10,0.0
basic,58,23,0,0,0,22,"[0, 22]",2,24,"[1, 2, 3, 5, 6, 7, 8, 9, 10, 11, 12, 13, 14, 15, 17, 18, 19, 20, 21, 23, 25, 26, 27, 29]",210.5013967,3273,3157,15,1362,10,1.0
basic,58,23,0,0,0,13,"[0, 22, 13]",3,14,"[1, 2, 5, 6, 7, 8, 9, 10, 12, 14, 18, 21, 27, 29]",168.3113504,4120,847,14,522,10,1.1898173563652046
basic,58,23,0,0,0,12,"[0, 22, 13, 12]",4,11,"[1, 2, 6, 7, 9, 10, 14, 18, 21, 27, 29]",156.2283045,5728,1608,12,166,10,1.1727968780218219
basic,58,23,0,0,0,9,"[0, 22, 13, 12, 9]",5,10,"[1, 2, 6, 7, 10, 14, 18, 21, 27, 29]",141.9104834,9997,4269,5,49,10,1.2100380646101494
basic,58,23,0,0,0,14,"[0, 22, 13, 12, 9, 14]",6,8,"[1, 2, 6, 7, 10, 18, 27, 29]",131.4701769,11031,1034,2,19,10,1.1961799245073135
basic,58,23,0,0,0,2,"[0, 22, 13, 12, 9, 14, 2]",7,6,"[6, 7, 10, 18, 27, 29]",116.6041081,12512,1481,1,8,10,1.343965446549325
basic,58,23,0,0,0,6,"[0, 22, 13, 12, 9, 14, 2, 6]",8,3,"[18, 27, 29]",98.16501923,13383,871,3,0,9,1.3433890277057379
basic,58,23,0,0,1,27,"[0, 22, 13, 12, 9, 14, 2, 6, 27]",9,0,[],69.86307584,14369,986,1,0,9,1.607346000085698
basic,58,23,0,1,1,27,"[0, 22, 13, 12, 9, 14, 2, 6, 27]",9,0,[],69.86307584,22158,7789,1,0,9,1.607346000085698
basic,59,26,0,0,0,0,[0],1,29,"[1, 2, 3, 4, 5, 6, 7, 8, 9, 10, 11, 12, 13, 14, 15, 16, 17, 18, 19, 20, 21, 22, 23, 24, 25, 26, 27, 28, 29]",300,115,-1,9,226,9,0.0
basic,59,26,0,0,0,10,"[0, 10]",2,6,"[4, 6, 14, 16, 17, 29]",138.1822012,6006,5891,9,66,7,1.0
basic,59,26,0,0,0,6,"[0, 10, 6]",3,5,"[4, 14, 16, 17, 29]",108.9076389,6806,800,8,23,7,1.1897813099332413
basic,59,26,0,0,0,14,"[0, 10, 6, 14]",4,4,"[4, 16, 17, 29]",87.88384285,7542,736,4,6,7,1.3162481558218453
basic,59,26,0,0,0,17,"[0, 10, 6, 14, 17]",5,3,"[4, 16, 29]",65.41163779,8728,1186,3,1,7,1.6510075497064465
basic,59,26,0,0,0,4,"[0, 10, 6, 14, 17, 4]",6,1,[29],44.31661468,9481,753,1,0,7,2.1095586782058087
basic,59,26,0,0,1,29,"[0, 10, 6, 14, 17, 4, 29]",7,0,[],20.31661468,10375,894,1,0,7,2.288952413143475
basic,59,26,0,1,1,29,"[0, 10, 6, 14, 17, 4, 29]",7,0,[],20.31661468,12135,1760,1,0,7,2.288952413143475
basic,60,24,0,0,0,0,[0],1,29,"[1, 2, 3, 4, 5, 6, 7, 8, 9, 10, 11, 12, 13, 14, 15, 16, 17, 18, 19, 20, 21, 22, 23, 24, 25, 26, 27, 28, 29]",300,146,-1,4,76,10,0.0
basic,60,24,0,0,0,14,"[0, 14]",2,27,"[1, 2, 3, 4, 5, 6, 8, 9, 10, 11, 12, 13, 15, 16, 17, 18, 19, 20, 21, 22, 23, 24, 25, 26, 27, 28, 29]",278.0455016,3124,2978,4,54,10,1.0
basic,60,24,0,0,0,16,"[0, 14, 16]",3,25,"[2, 3, 4, 5, 6, 8, 9, 10, 11, 12, 13, 15, 17, 18, 19, 20, 21, 22, 23, 24, 25, 26, 27, 28, 29]",188.9949542,11091,7967,4,31,10,1.238291113657358
basic,60,24,0,0,0,8,"[0, 14, 16, 8]",4,17,"[2, 3, 4, 6, 9, 10, 11, 13, 15, 20, 22, 23, 24, 26, 27, 28, 29]",159.9949542,13427,2336,2,13,10,1.2714603293172921
basic,60,24,0,0,0,22,"[0, 14, 16, 8, 22]",5,13,"[3, 4, 6, 9, 10, 11, 15, 23, 24, 26, 27, 28, 29]",146.5785463,14939,1512,2,10,10,1.4558841300797367
basic,60,24,0,0,0,15,"[0, 14, 16, 8, 22, 15]",6,11,"[3, 4, 6, 9, 10, 11, 23, 26, 27, 28, 29]",125.3653429,15820,881,2,8,10,1.459909027032803
basic,60,24,0,0,0,28,"[0, 14, 16, 8, 22, 15, 28]",7,5,"[4, 9, 11, 23, 27]",80.08841717,17148,1328,2,5,10,1.3358430839259279
basic,60,24,0,0,0,23,"[0, 14, 16, 8, 22, 15, 28, 23]",8,3,"[9, 11, 27]",61.06211957,17831,683,2,2,10,1.3561794364003306
basic,60,24,0,0,0,11,"[0, 14, 16, 8, 22, 15, 28, 23, 11]",9,2,"[9, 27]",34.13629554,19132,1301,2,0,10,1.323606251450204
basic,60,24,0,0,1,27,"[0, 14, 16, 8, 22, 15, 28, 23, 11, 27]",10,0,[],6.33341799,20614,1482,1,0,10,1.2857748381905127
basic,60,24,0,1,1,27,"[0, 14, 16, 8, 22, 15, 28, 23, 11, 27]",10,0,[],6.33341799,21722,1108,1,0,10,1.2857748381905127
basic,61,10,0,0,0,0,[0],1,29,"[1, 2, 3, 4, 5, 6, 7, 8, 9, 10, 11, 12, 13, 14, 15, 16, 17, 18, 19, 20, 21, 22, 23, 24, 25, 26, 27, 28, 29]",300,112,-1,1,100,9,0.0
basic,61,10,0,0,0,13,"[0, 13]",2,25,"[1, 2, 3, 4, 6, 7, 8, 9, 10, 11, 12, 14, 17, 18, 19, 20, 21, 22, 23, 24, 25, 26, 27, 28, 29]",249.4628849,2286,2174,1,79,9,1.0
basic,61,10,0,0,0,11,"[0, 13, 11]",3,20,"[1, 2, 3, 6, 7, 8, 9, 10, 12, 14, 18, 19, 20, 21, 22, 24, 26, 27, 28, 29]",206.4512586,3235,949,1,54,9,1.0313137484914219
basic,61,10,0,0,0,19,"[0, 13, 11, 19]",4,11,"[2, 6, 8, 9, 10, 14, 18, 20, 24, 26, 27]",170.0919407,4749,1514,1,22,9,1.0879446220132545
basic,61,10,0,0,0,2,"[0, 13, 11, 19, 2]",5,4,"[14, 20, 26, 27]",126.1829439,6629,1880,1,4,9,1.06474052351343
basic,61,10,0,0,0,14,"[0, 13, 11, 19, 2, 14]",6,3,"[20, 26, 27]",114.0174188,7559,930,1,3,9,1.1628909195912238
basic,61,10,0,0,0,26,"[0, 13, 11, 19, 2, 14, 26]",7,2,"[20, 27]",79.34754716,8662,1103,1,1,9,1.6660727647633602
basic,61,10,0,0,0,20,"[0, 13, 11, 19, 2, 14, 26, 20]",8,1,[27],47.56704999,11374,2712,1,0,9,2.085581809637999
basic,61,10,0,0,1,27,"[0, 13, 11, 19, 2, 14, 26, 20, 27]",9,0,[],2.312215998,12757,1383,1,0,9,1.9116357409137932
basic,61,10,0,1,1,27,"[0, 13, 11, 19, 2, 14, 26, 20, 27]",9,0,[],2.312215998,14313,1556,1,0,9,1.9116357409137932
basic,62,5,0,0,0,0,[0],1,29,"[1, 2, 3, 4, 5, 6, 7, 8, 9, 10, 11, 12, 13, 14, 15, 16, 17, 18, 19, 20, 21, 22, 23, 24, 25, 26, 27, 28, 29]",300,114,-1,5,139,9,0.0
basic,62,5,0,0,0,12,"[0, 12]",2,22,"[2, 4, 5, 6, 8, 9, 10, 13, 14, 15, 16, 17, 18, 19, 21, 22, 23, 24, 25, 26, 27, 28]",228.3062067,109382,109268,1,27,9,1.0
basic,62,5,0,0,0,25,"[0, 12, 25]",3,21,"[2, 4, 5, 6, 8, 9, 10, 13, 14, 15, 16, 17, 18, 19, 21, 22, 23, 24, 26, 27, 28]",200.5213187,110984,1602,1,20,9,1.584023303445617
basic,62,5,0,0,0,23,"[0, 12, 25, 23]",4,19,"[2, 4, 5, 6, 8, 9, 10, 13, 14, 15, 16, 17, 18, 19, 21, 22, 24, 26, 27]",182.0822298,111703,719,1,14,9,2.3508446989254357
basic,62,5,0,0,0,24,"[0, 12, 25, 23, 24]",5,15,"[2, 4, 5, 6, 8, 9, 13, 14, 15, 17, 18, 19, 22, 26, 27]",158.995437,112611,908,1,12,9,1.9469752046288753
basic,62,5,0,0,0,17,"[0, 12, 25, 23, 24, 17]",6,7,"[4, 5, 6, 8, 15, 18, 19]",124.0097257,114108,1497,1,8,9,1.6482276497563642
basic,62,5,0,0,0,5,"[0, 12, 25, 23, 24, 17, 5]",7,4,"[4, 6, 15, 18]",80.96323916,114793,685,1,3,9,1.4654649104389412
basic,62,5,0,0,1,15,"[0, 12, 25, 23, 24, 17, 5, 15]",8,0,[],40.93824697,128257,13464,1,0,8,1.4660376450939663
basic,62,5,0,1,1,15,"[0, 12, 25, 23, 24, 17, 5, 15]",8,0,[],40.93824697,130101,1844,1,0,8,1.4660376450939663
basic,63,12,0,0,0,0,[0],1,29,"[1, 2, 3, 4, 5, 6, 7, 8, 9, 10, 11, 12, 13, 14, 15, 16, 17, 18, 19, 20, 21, 22, 23, 24, 25, 26, 27, 28, 29]",300,112,-1,2,32,9,0.0
basic,63,12,0,0,0,18,"[0, 18]",2,12,"[1, 2, 3, 5, 6, 7, 9, 11, 15, 17, 20, 21]",149.9166898,2989,2877,1,6,7,1.0
basic,63,12,0,0,0,21,"[0, 18, 21]",3,7,"[1, 3, 5, 9, 11, 15, 17]",133.6378692,3913,924,1,4,7,1.0169396745301669
basic,63,12,0,0,0,15,"[0, 18, 21, 15]",4,4,"[1, 5, 11, 17]",78.56518995,5293,1380,1,3,7,1.1718752316940058
basic,63,12,0,0,0,17,"[0, 18, 21, 15, 17]",5,2,"[1, 11]",62.07276745,6444,1151,1,1,7,1.219114137966991
basic,63,12,0,0,1,1,"[0, 18, 21, 15, 17, 1]",6,0,[],12.90977324,8982,2538,1,0,6,1.1815112959538385
basic,63,12,0,1,1,1,"[0, 18, 21, 15, 17, 1]",6,0,[],12.90977324,11217,2235,1,0,6,1.1815112959538385
basic,64,40,0,0,0,0,[0],1,29,"[1, 2, 3, 4, 5, 6, 7, 8, 9, 10, 11, 12, 13, 14, 15, 16, 17, 18, 19, 20, 21, 22, 23, 24, 25, 26, 27, 28, 29]",300,116,-1,8,191,9,0.0
basic,64,40,0,0,0,1,"[0, 1]",2,18,"[2, 5, 6, 7, 8, 9, 10, 11, 13, 15, 17, 18, 19, 21, 22, 23, 27, 29]",247.8463808,3723,3607,4,80,9,1.0
basic,64,40,0,0,0,6,"[0, 1, 6]",3,17,"[2, 5, 7, 8, 9, 10, 11, 13, 15, 17, 18, 19, 21, 22, 23, 27, 29]",227.7466295,4554,831,4,74,9,1.0459427008232034
basic,64,40,0,0,0,21,"[0, 1, 6, 21]",4,8,"[2, 5, 9, 17, 18, 19, 22, 23]",175.7754837,6666,2112,4,25,9,1.0308822257404064
basic,64,40,0,0,0,9,"[0, 1, 6, 21, 9]",5,6,"[2, 5, 18, 19, 22, 23]",130.0699041,8252,1586,4,12,9,1.377861912961129
basic,64,40,0,0,0,18,"[0, 1, 6, 21, 9, 18]",6,5,"[2, 5, 19, 22, 23]",113.5169588,9108,856,4,4,9,1.5742712168661408
basic,64,40,0,0,0,5,"[0, 1, 6, 21, 9, 18, 5]",7,3,"[19, 22, 23]",81.94165198,10409,1301,2,1,9,1.7730665063055515
basic,64,40,0,0,0,23,"[0, 1, 6, 21, 9, 18, 5, 23]",8,1,[19],53.63970859,11546,1137,1,0,9,2.597442759912231
basic,64,40,0,0,1,19,"[0, 1, 6, 21, 9, 18, 5, 23, 19]",9,0,[],21.68661797,12706,1160,1,0,9,2.7128328554069565
basic,64,40,0,1,1,19,"[0, 1, 6, 21, 9, 18, 5, 23, 19]",9,0,[],21.68661797,13801,1095,1,0,9,2.7128328554069565
basic,65,7,0,0,0,0,[0],1,29,"[1, 2, 3, 4, 5, 6, 7, 8, 9, 10, 11, 12, 13, 14, 15, 16, 17, 18, 19, 20, 21, 22, 23, 24, 25, 26, 27, 28, 29]",300,113,-1,3,79,9,0.0
basic,65,7,0,0,0,25,"[0, 25]",2,20,"[2, 3, 4, 5, 6, 7, 10, 13, 14, 15, 16, 18, 19, 20, 21, 22, 23, 24, 27, 28]",181.5939191,5164,5051,5,33,8,1.0
basic,65,7,0,0,0,4,"[0, 25, 4]",3,11,"[2, 6, 7, 13, 15, 16, 18, 19, 20, 21, 23]",156.8552853,7230,2066,2,14,8,1.0193465608331511
basic,65,7,0,0,0,20,"[0, 25, 4, 20]",4,8,"[2, 6, 7, 13, 15, 16, 18, 19]",137.2084026,8173,943,1,9,8,1.085904909082323
basic,65,7,0,0,0,18,"[0, 25, 4, 20, 18]",5,7,"[2, 6, 7, 13, 15, 16, 19]",124.4021541,8876,703,1,5,8,1.2264883846453758
basic,65,7,0,0,0,7,"[0, 25, 4, 20, 18, 7]",6,2,"[2, 19]",83.17109789,10229,1353,1,1,8,1.185264473968278
basic,65,7,0,0,0,19,"[0, 25, 4, 20, 18, 7, 19]",7,1,[2],53.76021555,11236,1007,1,0,8,1.3016904288278204
basic,65,7,0,0,1,2,"[0, 25, 4, 20, 18, 7, 19, 2]",8,0,[],23.61058868,12221,985,1,0,8,1.3168868000947171
basic,65,7,0,1,1,2,"[0, 25, 4, 20, 18, 7, 19, 2]",8,0,[],23.61058868,13515,1294,1,0,8,1.3168868000947171
basic,66,31,0,0,0,0,[0],1,27,"[1, 3, 4, 5, 6, 7, 8, 10, 11, 12, 13, 14, 15, 16, 17, 18, 19, 20, 21, 22, 23, 24, 25, 26, 27, 28, 29]",300,130,-1,2,87,10,0.0
basic,66,31,0,0,0,14,"[0, 14]",2,25,"[1, 3, 5, 6, 7, 8, 10, 11, 12, 13, 15, 16, 17, 18, 19, 20, 21, 22, 23, 24, 25, 26, 27, 28, 29]",263.861378,2598,2468,2,59,10,1.0
basic,66,31,0,0,0,27,"[0, 14, 27]",3,22,"[1, 3, 5, 6, 7, 8, 10, 11, 12, 13, 15, 16, 17, 18, 19, 20, 21, 22, 24, 25, 28, 29]",235.6833724,3896,1298,1,39,10,1.5881859159302467
basic,66,31,0,0,0,8,"[0, 14, 27, 8]",4,20,"[1, 3, 5, 6, 7, 10, 11, 12, 13, 16, 17, 18, 19, 20, 21, 22, 24, 25, 28, 29]",224.6380114,4486,590,1,36,10,2.1665048452331277
basic,66,31,0,0,0,18,"[0, 14, 27, 8, 18]",5,15,"[1, 5, 6, 7, 11, 12, 13, 16, 17, 19, 20, 22, 25, 28, 29]",188.7911147,7046,2560,1,26,10,1.7273375741920205
basic,66,31,0,0,0,11,"[0, 14, 27, 8, 18, 11]",6,11,"[1, 5, 7, 12, 16, 17, 19, 20, 22, 25, 28]",153.9055876,7958,912,13,17,9,2.386348208737804
basic,66,31,0,0,0,5,"[0, 14, 27, 8, 18, 11, 5]",7,5,"[16, 17, 20, 25, 28]",110.2249283,9102,1144,3,3,9,2.163249612867222
basic,66,31,0,0,0,28,"[0, 14, 27, 8, 18, 11, 5, 28]",8,2,"[16, 17]",90.00117988,9875,773,2,0,9,1.9564635733184719
basic,66,31,0,0,1,16,"[0, 14, 27, 8, 18, 11, 5, 28, 16]",9,0,[],56.38570725,16237,6362,1,0,9,1.824071502589619
basic,66,31,0,1,1,16,"[0, 14, 27, 8, 18, 11, 5, 28, 16]",9,0,[],56.38570725,17926,1689,1,0,9,1.824071502589619
basic,67,0,0,0,0,0,[0],1,27,"[2, 3, 4, 5, 6, 7, 8, 9, 10, 11, 12, 13, 14, 15, 16, 17, 19, 20, 21, 22, 23, 24, 25, 26, 27, 28, 29]",300,147,-1,104,1136,9,0.0
basic,67,0,0,0,0,20,"[0, 20]",2,25,"[2, 3, 4, 5, 6, 7, 8, 9, 11, 12, 13, 14, 15, 16, 17, 19, 21, 22, 23, 24, 25, 26, 27, 28, 29]",215.4955622,3508,3361,36,372,9,1.0
basic,67,0,0,0,0,5,"[0, 20, 5]",3,22,"[2, 3, 4, 7, 8, 9, 11, 12, 13, 14, 15, 16, 17, 19, 21, 22, 23, 24, 25, 26, 28, 29]",153.2942761,7997,4489,33,251,9,1.0828244018179105
basic,67,0,0,0,0,4,"[0, 20, 5, 4]",4,19,"[2, 3, 7, 8, 9, 11, 12, 13, 14, 15, 17, 19, 21, 22, 23, 24, 25, 26, 28]",128.2144037,10917,2920,21,127,9,1.0973859443611045
basic,67,0,0,0,0,26,"[0, 20, 5, 4, 26]",5,14,"[3, 7, 8, 9, 11, 12, 13, 14, 15, 17, 19, 23, 24, 28]",116.1728091,11941,1024,9,63,9,1.1378617460104323
basic,67,0,0,0,0,24,"[0, 20, 5, 4, 26, 24]",6,11,"[3, 7, 8, 9, 11, 12, 15, 17, 19, 23, 28]",99.05556633,12822,881,9,24,9,1.204469953325506
basic,67,0,0,0,0,15,"[0, 20, 5, 4, 26, 24, 15]",7,8,"[3, 7, 8, 9, 11, 12, 17, 19]",75.71033127,13923,1101,5,6,9,1.1865351459643638
basic,67,0,0,0,0,7,"[0, 20, 5, 4, 26, 24, 15, 7]",8,2,"[3, 8]",44.64588214,14990,1067,2,0,9,1.2455705670301183
basic,67,0,0,0,1,8,"[0, 20, 5, 4, 26, 24, 15, 7, 8]",9,0,[],25.54090896,16164,1174,1,0,9,1.2337265013393985
basic,67,0,0,1,1,8,"[0, 20, 5, 4, 26, 24, 15, 7, 8]",9,0,[],25.54090896,18327,2163,1,0,9,1.2337265013393985
basic,68,4,0,0,0,0,[0],1,26,"[3, 4, 5, 6, 7, 8, 10, 11, 12, 13, 14, 15, 16, 17, 18, 19, 20, 21, 22, 23, 24, 25, 26, 27, 28, 29]",300,98,-1,4,489,10,0.0
basic,68,4,0,0,0,28,"[0, 28]",2,21,"[3, 4, 5, 6, 10, 11, 12, 13, 14, 15, 16, 17, 19, 20, 21, 22, 23, 24, 25, 26, 27]",225.9392142,3676,3578,2,216,10,1.0
basic,68,4,0,0,0,14,"[0, 28, 14]",3,13,"[3, 4, 5, 6, 11, 13, 16, 17, 20, 21, 22, 24, 25]",159.6972335,6732,3056,1,26,10,1.0273973946789214
basic,68,4,0,0,0,25,"[0, 28, 14, 25]",4,12,"[3, 4, 5, 6, 11, 13, 16, 17, 20, 21, 22, 24]",143.572718,7643,911,1,25,10,1.233547772313525
basic,68,4,0,0,0,11,"[0, 28, 14, 25, 11]",5,10,"[3, 4, 5, 6, 13, 16, 17, 20, 21, 22]",124.7844238,8541,898,1,15,10,1.425978575879479
basic,68,4,0,0,0,16,"[0, 28, 14, 25, 11, 16]",6,9,"[3, 4, 5, 6, 13, 17, 20, 21, 22]",109.7844238,9545,1004,1,12,10,1.3799325158051412
basic,68,4,0,0,0,21,"[0, 28, 14, 25, 11, 16, 21]",7,4,"[5, 17, 20, 22]",65.58035157,13748,4203,3,3,9,1.5860540591673642
basic,68,4,0,0,0,22,"[0, 28, 14, 25, 11, 16, 21, 22]",8,3,"[5, 17, 20]",54.53499056,14722,974,3,0,9,1.5471132483772176
