condition,trial_id,map_id,undoIndicator,submit,checkEnd,currentChoice,chosen_all,n_city_all,n_within_reach,cities_reach,currentBudget,time_all,rt_all,n_opt_paths_all,n_subopt_paths_all,mas_all,tortuosity_all
basic,0,16,0,0,0,0,[0],1,29,"[1, 2, 3, 4, 5, 6, 7, 8, 9, 10, 11, 12, 13, 14, 15, 16, 17, 18, 19, 20, 21, 22, 23, 24, 25, 26, 27, 28, 29]",300,194,-1,13,161,9,0.0
basic,0,16,0,0,0,17,"[0, 17]",2,27,"[1, 2, 3, 4, 5, 7, 8, 9, 10, 11, 12, 13, 14, 15, 16, 18, 19, 20, 21, 22, 23, 24, 25, 26, 27, 28, 29]",241.3058776,10024,9830,2,58,9,1.0
basic,0,16,0,0,0,16,"[0, 17, 16]",3,26,"[1, 2, 3, 4, 5, 7, 8, 9, 10, 11, 12, 13, 14, 15, 18, 19, 20, 21, 22, 23, 24, 25, 26, 27, 28, 29]",212.9862731,11492,1468,2,52,9,1.0529535521792848
basic,0,16,0,0,0,8,"[0, 17, 16, 8]",4,19,"[2, 3, 4, 5, 9, 12, 13, 14, 15, 19, 20, 21, 22, 23, 25, 26, 27, 28, 29]",164.6127266,12925,1433,2,38,9,1.0915134501573105
basic,0,16,0,0,0,20,"[0, 17, 16, 8, 20]",5,10,"[3, 4, 5, 9, 12, 13, 15, 19, 21, 25]",106.8372993,15112,2187,1,15,9,1.067523143001942
basic,0,16,0,0,0,25,"[0, 17, 16, 8, 20, 25]",6,7,"[3, 4, 5, 9, 12, 13, 15]",94.18818869,16296,1184,1,9,9,1.1170093326933646
basic,0,16,0,0,0,9,"[0, 17, 16, 8, 20, 25, 9]",7,5,"[3, 4, 5, 13, 15]",81.38194021,17461,1165,1,4,9,1.1095076562662525
basic,0,16,0,0,0,15,"[0, 17, 16, 8, 20, 25, 9, 15]",8,1,[5],42.48463953,19063,1602,1,0,9,1.213831159678775
basic,0,16,0,0,1,5,"[0, 17, 16, 8, 20, 25, 9, 15, 5]",9,0,[],13.0567616,20014,951,1,0,9,1.5171779607523481
basic,0,16,0,1,1,5,"[0, 17, 16, 8, 20, 25, 9, 15, 5]",9,0,[],13.0567616,23838,3824,1,0,9,1.5171779607523481
basic,1,24,0,0,0,0,[0],1,29,"[1, 2, 3, 4, 5, 6, 7, 8, 9, 10, 11, 12, 13, 14, 15, 16, 17, 18, 19, 20, 21, 22, 23, 24, 25, 26, 27, 28, 29]",300,235,-1,4,76,10,0.0
basic,1,24,0,0,0,16,"[0, 16]",2,28,"[1, 2, 3, 4, 5, 6, 7, 8, 9, 10, 11, 12, 13, 14, 15, 17, 18, 19, 20, 21, 22, 23, 24, 25, 26, 27, 28, 29]",210.3562607,4492,4257,13,110,9,1.0
basic,1,24,0,0,0,8,"[0, 16, 8]",3,22,"[1, 2, 3, 4, 6, 9, 10, 11, 13, 14, 15, 17, 20, 21, 22, 23, 24, 25, 26, 27, 28, 29]",181.3562607,6269,1777,3,31,9,1.0774669368510212
basic,1,24,0,0,0,22,"[0, 16, 8, 22]",4,18,"[2, 3, 4, 6, 9, 10, 11, 13, 14, 15, 17, 23, 24, 25, 26, 27, 28, 29]",167.9398528,8145,1876,3,23,9,1.2531772310046492
basic,1,24,0,0,0,15,"[0, 16, 8, 22, 15]",5,16,"[3, 4, 6, 9, 10, 11, 13, 14, 17, 23, 24, 25, 26, 27, 28, 29]",146.7266494,10274,2129,3,16,9,1.2813329946092564
basic,1,24,0,0,0,28,"[0, 16, 8, 22, 15, 28]",6,8,"[3, 4, 9, 11, 13, 23, 26, 27]",101.4497237,11801,1527,3,5,9,1.2060847818642253
basic,1,24,0,0,0,23,"[0, 16, 8, 22, 15, 28, 23]",7,3,"[9, 11, 27]",82.42342609,13918,2117,3,1,9,1.2349355190066822
basic,1,24,0,0,0,11,"[0, 16, 8, 22, 15, 28, 23, 11]",8,2,"[9, 27]",55.49760206,15727,1809,2,0,9,1.2172586817191506
basic,1,24,0,0,1,27,"[0, 16, 8, 22, 15, 28, 23, 11, 27]",9,0,[],27.69472451,17010,1283,1,0,9,1.192247579330137
basic,1,24,0,1,1,27,"[0, 16, 8, 22, 15, 28, 23, 11, 27]",9,0,[],27.69472451,22089,5079,1,0,9,1.192247579330137
basic,2,34,0,0,0,0,[0],1,25,"[1, 3, 4, 5, 6, 7, 8, 9, 10, 11, 12, 13, 15, 18, 19, 20, 21, 22, 23, 24, 25, 26, 27, 28, 29]",300,380,-1,12,367,10,0.0
basic,2,34,0,0,0,13,"[0, 13]",2,24,"[1, 3, 4, 5, 6, 7, 8, 9, 10, 11, 12, 15, 18, 19, 20, 21, 22, 23, 24, 25, 26, 27, 28, 29]",279.9750156,2617,2237,12,331,10,1.0
basic,2,34,0,0,0,1,"[0, 13, 1]",3,16,"[3, 5, 7, 8, 9, 10, 11, 12, 19, 21, 22, 23, 24, 25, 27, 29]",211.8574701,4176,1559,3,92,10,1.0010381285747127
basic,2,34,0,0,0,8,"[0, 13, 1, 8]",4,14,"[3, 5, 7, 9, 10, 11, 12, 19, 22, 23, 24, 25, 27, 29]",201.0871405,5539,1363,2,54,10,1.1636807
basic,2,34,0,0,0,25,"[0, 13, 1, 8, 25]",5,12,"[3, 5, 7, 9, 10, 11, 12, 22, 23, 24, 27, 29]",183.999133,6961,1422,2,28,10,1.1396208815936457
basic,2,34,0,0,0,24,"[0, 13, 1, 8, 25, 24]",6,11,"[3, 5, 7, 9, 10, 11, 12, 22, 23, 27, 29]",166.5062774,8478,1517,2,23,10,1.374180768736554
basic,2,34,0,0,0,12,"[0, 13, 1, 8, 25, 24, 12]",7,7,"[7, 9, 10, 11, 22, 23, 27]",115.4670767,10376,1898,1,8,10,1.4994254760835948
basic,2,34,0,0,0,7,"[0, 13, 1, 8, 25, 24, 12, 7]",8,5,"[9, 11, 22, 23, 27]",100.4337804,11549,1173,1,4,10,1.758992610425009
basic,2,34,0,0,0,23,"[0, 13, 1, 8, 25, 24, 12, 7, 23]",9,1,[27],72.27352467,12650,1101,1,0,10,2.399781305190153
basic,2,34,0,0,1,27,"[0, 13, 1, 8, 25, 24, 12, 7, 23, 27]",10,0,[],18.60789321,14124,1474,1,0,10,4.766619878750327
basic,2,34,0,1,1,27,"[0, 13, 1, 8, 25, 24, 12, 7, 23, 27]",10,0,[],18.60789321,17559,3435,1,0,10,4.766619878750327
basic,3,18,0,0,0,0,[0],1,28,"[1, 2, 3, 4, 5, 6, 7, 8, 9, 10, 11, 12, 13, 14, 16, 17, 18, 19, 20, 21, 22, 23, 24, 25, 26, 27, 28, 29]",300,192,-1,3,136,10,0.0
basic,3,18,0,0,0,28,"[0, 28]",2,16,"[1, 3, 5, 7, 8, 9, 12, 13, 14, 16, 20, 23, 24, 25, 26, 27]",236.4311397,4283,4091,2,19,10,1.0
basic,3,18,0,0,0,7,"[0, 28, 7]",3,15,"[1, 3, 5, 8, 9, 12, 13, 14, 16, 20, 23, 24, 25, 26, 27]",214.4084242,6023,1740,2,17,10,1.4345180696367563
basic,3,18,0,0,0,25,"[0, 28, 7, 25]",4,13,"[1, 3, 5, 8, 9, 12, 13, 14, 16, 20, 23, 26, 27]",186.6055466,7200,1177,2,15,10,1.8896451241781882
basic,3,18,0,0,0,8,"[0, 28, 7, 25, 8]",5,10,"[3, 5, 9, 12, 13, 14, 16, 23, 26, 27]",149.551532,10227,3027,2,10,10,1.590467437592877
basic,3,18,0,0,0,13,"[0, 28, 7, 25, 8, 13]",6,9,"[3, 5, 9, 12, 14, 16, 23, 26, 27]",128.4565089,11191,964,2,5,10,1.8248274983549797
basic,3,18,0,0,0,14,"[0, 28, 7, 25, 8, 13, 14]",7,7,"[3, 5, 9, 12, 23, 26, 27]",109.4828429,13193,2002,2,3,10,1.6993534956692746
basic,3,18,0,0,0,3,"[0, 28, 7, 25, 8, 13, 14, 3]",8,3,"[5, 12, 27]",79.39962499,14643,1450,2,1,10,1.802637206541468
basic,3,18,0,0,0,5,"[0, 28, 7, 25, 8, 13, 14, 3, 5]",9,1,[12],21.21887216,16780,2137,1,0,10,1.559774889743805
basic,3,18,0,0,1,12,"[0, 28, 7, 25, 8, 13, 14, 3, 5, 12]",10,0,[],9.817117911,18332,1552,1,0,10,1.563993037384447
basic,3,18,0,1,1,12,"[0, 28, 7, 25, 8, 13, 14, 3, 5, 12]",10,0,[],9.817117911,22537,4205,1,0,10,1.563993037384447
basic,4,25,0,0,0,0,[0],1,28,"[1, 2, 3, 4, 5, 7, 8, 9, 10, 11, 12, 13, 14, 15, 16, 17, 18, 19, 20, 21, 22, 23, 24, 25, 26, 27, 28, 29]",300,361,-1,5,94,10,0.0
basic,4,25,0,0,0,23,"[0, 23]",2,23,"[1, 2, 3, 5, 7, 8, 9, 11, 12, 13, 14, 16, 17, 19, 20, 21, 22, 24, 25, 26, 27, 28, 29]",259.7756293,4674,4313,3,33,10,1.0
basic,4,25,0,0,0,19,"[0, 23, 19]",3,21,"[1, 2, 3, 5, 7, 8, 9, 11, 12, 13, 14, 16, 17, 20, 21, 22, 24, 25, 27, 28, 29]",223.9287326,7322,2648,3,24,10,1.583101227007039
basic,4,25,0,0,0,29,"[0, 23, 19, 29]",4,19,"[1, 2, 3, 5, 7, 8, 9, 11, 12, 13, 14, 16, 17, 20, 21, 22, 24, 25, 28]",207.649912,8943,1621,3,17,10,1.474631541426484
basic,4,25,0,0,0,22,"[0, 23, 19, 29, 22]",5,18,"[1, 2, 3, 5, 7, 8, 9, 11, 12, 13, 14, 16, 17, 20, 21, 24, 25, 28]",191.5253965,10242,1299,3,14,10,1.4020377754906637
basic,4,25,0,0,0,7,"[0, 23, 19, 29, 22, 7]",6,7,"[3, 8, 9, 11, 13, 24, 28]",115.8814939,12116,1874,3,11,10,1.5709678649326715
basic,4,25,0,0,0,24,"[0, 23, 19, 29, 22, 7, 24]",7,5,"[3, 8, 9, 13, 28]",91.12265712,13288,1172,3,7,10,1.486191600033379
basic,4,25,0,0,0,9,"[0, 23, 19, 29, 22, 7, 24, 9]",8,4,"[3, 8, 13, 28]",73.09490075,14540,1252,3,3,10,1.453504870342882
basic,4,25,0,0,0,3,"[0, 23, 19, 29, 22, 7, 24, 9, 3]",9,3,"[8, 13, 28]",42.82940885,17862,3322,3,0,10,1.388955167525479
basic,4,25,0,0,1,28,"[0, 23, 19, 29, 22, 7, 24, 9, 3, 28]",10,0,[],11.52445716,19341,1479,1,0,10,1.3331084120212044
basic,4,25,0,1,1,28,"[0, 23, 19, 29, 22, 7, 24, 9, 3, 28]",10,0,[],11.52445716,21988,2647,1,0,10,1.3331084120212044
basic,5,2,0,0,0,0,[0],1,23,"[1, 2, 4, 5, 6, 7, 8, 9, 12, 13, 15, 16, 17, 18, 19, 20, 22, 23, 25, 26, 27, 28, 29]",300,250,-1,70,620,10,0.0
basic,5,2,0,0,0,19,"[0, 19]",2,22,"[1, 2, 4, 5, 6, 7, 8, 9, 12, 13, 15, 16, 17, 18, 20, 22, 23, 25, 26, 27, 28, 29]",210.306076,3818,3568,67,431,10,1.0
basic,5,2,0,0,0,12,"[0, 19, 12]",3,17,"[1, 4, 5, 6, 7, 13, 15, 16, 17, 18, 20, 22, 25, 26, 27, 28, 29]",174.2921898,5335,1517,66,298,10,1.1107635036313153
basic,5,2,0,0,0,5,"[0, 19, 12, 5]",4,11,"[1, 6, 7, 13, 15, 16, 18, 22, 25, 26, 29]",144.7625437,6771,1436,38,136,10,1.0968174771581647
basic,5,2,0,0,0,22,"[0, 19, 12, 5, 22]",5,8,"[1, 6, 7, 13, 15, 18, 26, 29]",131.9562952,7916,1145,20,63,10,1.0889910507461968
basic,5,2,0,0,0,13,"[0, 19, 12, 5, 22, 13]",6,7,"[1, 6, 7, 15, 18, 26, 29]",117.0902265,9926,2010,19,20,10,1.236526217328057
basic,5,2,0,0,0,18,"[0, 19, 12, 5, 22, 13, 18]",7,4,"[7, 15, 26, 29]",81.91921567,11362,1436,10,3,10,1.2128708213409936
basic,5,2,0,0,0,7,"[0, 19, 12, 5, 22, 13, 18, 7]",8,3,"[15, 26, 29]",71.62358553,12979,1617,5,0,10,1.2019811287894737
basic,5,2,0,0,0,26,"[0, 19, 12, 5, 22, 13, 18, 7, 26]",9,2,"[15, 29]",48.82007703,15648,2669,2,0,10,1.1883593342191134
basic,5,2,0,0,1,15,"[0, 19, 12, 5, 22, 13, 18, 7, 26, 15]",10,0,[],24.61264015,17864,2216,1,0,10,1.4619750353663825
basic,5,2,0,1,1,15,"[0, 19, 12, 5, 22, 13, 18, 7, 26, 15]",10,0,[],24.61264015,24295,6431,1,0,10,1.4619750353663825
basic,6,40,0,0,0,0,[0],1,29,"[1, 2, 3, 4, 5, 6, 7, 8, 9, 10, 11, 12, 13, 14, 15, 16, 17, 18, 19, 20, 21, 22, 23, 24, 25, 26, 27, 28, 29]",300,252,-1,8,191,9,0.0
basic,6,40,0,0,0,1,"[0, 1]",2,18,"[2, 5, 6, 7, 8, 9, 10, 11, 13, 15, 17, 18, 19, 21, 22, 23, 27, 29]",247.8463808,3923,3671,4,80,9,1.0
basic,6,40,0,0,0,6,"[0, 1, 6]",3,17,"[2, 5, 7, 8, 9, 10, 11, 13, 15, 17, 18, 19, 21, 22, 23, 27, 29]",227.7466295,5224,1301,4,74,9,1.0459427008232034
basic,6,40,0,0,0,9,"[0, 1, 6, 9]",4,10,"[2, 5, 8, 11, 18, 19, 21, 22, 23, 27]",159.146338,7953,2729,17,39,8,1.142098432552584
basic,6,40,0,0,0,18,"[0, 1, 6, 9, 18]",5,9,"[2, 5, 8, 11, 19, 21, 22, 23, 27]",142.5933926,9010,1057,13,14,8,1.3288108654802917
basic,6,40,0,0,0,23,"[0, 1, 6, 9, 18, 23]",6,6,"[2, 5, 8, 19, 21, 22]",108.5933926,10468,1458,6,4,8,2.0180513009829646
basic,6,40,0,0,0,19,"[0, 1, 6, 9, 18, 23, 19]",7,4,"[2, 5, 8, 22]",76.640302,12357,1889,4,0,8,2.1771771191471494
basic,6,40,0,0,1,5,"[0, 1, 6, 9, 18, 23, 19, 5]",8,0,[],38.56143647,14529,2172,1,0,8,2.1257978181562813
basic,6,40,0,1,1,5,"[0, 1, 6, 9, 18, 23, 19, 5]",8,0,[],38.56143647,18173,3644,1,0,8,2.1257978181562813
basic,7,23,0,0,0,0,[0],1,28,"[1, 2, 3, 4, 5, 6, 7, 8, 9, 10, 11, 12, 13, 14, 15, 16, 17, 18, 19, 20, 21, 22, 23, 25, 26, 27, 28, 29]",300,194,-1,76,2626,10,0.0
basic,7,23,0,0,0,22,"[0, 22]",2,24,"[1, 2, 3, 5, 6, 7, 8, 9, 10, 11, 12, 13, 14, 15, 17, 18, 19, 20, 21, 23, 25, 26, 27, 29]",210.5013967,9608,9414,15,1362,10,1.0
basic,7,23,0,0,0,13,"[0, 22, 13]",3,14,"[1, 2, 5, 6, 7, 8, 9, 10, 12, 14, 18, 21, 27, 29]",168.3113504,11863,2255,14,522,10,1.1898173563652046
basic,7,23,0,0,0,12,"[0, 22, 13, 12]",4,11,"[1, 2, 6, 7, 9, 10, 14, 18, 21, 27, 29]",156.2283045,15124,3261,12,166,10,1.1727968780218219
basic,7,23,0,0,0,9,"[0, 22, 13, 12, 9]",5,10,"[1, 2, 6, 7, 10, 14, 18, 21, 27, 29]",141.9104834,17121,1997,5,49,10,1.2100380646101494
basic,7,23,0,0,0,14,"[0, 22, 13, 12, 9, 14]",6,8,"[1, 2, 6, 7, 10, 18, 27, 29]",131.4701769,18683,1562,2,19,10,1.1961799245073135
basic,7,23,0,0,0,2,"[0, 22, 13, 12, 9, 14, 2]",7,6,"[6, 7, 10, 18, 27, 29]",116.6041081,20098,1415,1,8,10,1.343965446549325
basic,7,23,0,0,0,6,"[0, 22, 13, 12, 9, 14, 2, 6]",8,3,"[18, 27, 29]",98.16501923,22073,1975,3,0,9,1.3433890277057379
basic,7,23,0,0,1,27,"[0, 22, 13, 12, 9, 14, 2, 6, 27]",9,0,[],69.86307584,23991,1918,1,0,9,1.607346000085698
basic,7,23,0,1,1,27,"[0, 22, 13, 12, 9, 14, 2, 6, 27]",9,0,[],69.86307584,40151,16160,1,0,9,1.607346000085698
basic,8,43,0,0,0,0,[0],1,23,"[1, 2, 3, 4, 5, 6, 7, 9, 10, 11, 12, 14, 15, 16, 17, 19, 20, 21, 22, 23, 25, 27, 29]",300,225,-1,16,556,12,0.0
basic,8,43,0,0,0,29,"[0, 29]",2,22,"[1, 2, 3, 4, 5, 6, 7, 9, 10, 11, 12, 14, 15, 16, 17, 19, 20, 21, 22, 23, 25, 27]",277.909278,4216,3991,16,520,12,1.0
basic,8,43,0,0,0,20,"[0, 29, 20]",3,20,"[1, 2, 3, 4, 6, 7, 9, 10, 11, 12, 14, 15, 16, 17, 19, 21, 22, 23, 25, 27]",254.4785289,5685,1469,15,422,12,1.082311746871282
basic,8,43,0,0,0,16,"[0, 29, 20, 16]",4,19,"[1, 2, 3, 4, 6, 7, 9, 10, 11, 12, 14, 15, 17, 19, 21, 22, 23, 25, 27]",231.8511119,6914,1229,15,389,12,1.215201926898219
basic,8,43,0,0,0,15,"[0, 29, 20, 16, 15]",5,14,"[1, 2, 3, 4, 6, 7, 9, 11, 12, 14, 19, 22, 23, 25]",188.5267539,9330,2416,3,109,12,1.3482474915350444
basic,8,43,0,0,0,25,"[0, 29, 20, 16, 15, 25]",6,12,"[1, 3, 4, 6, 7, 9, 11, 12, 14, 19, 22, 23]",165.8551858,10768,1438,2,43,12,1.691408721191545
basic,8,43,0,0,0,12,"[0, 29, 20, 16, 15, 25, 12]",7,11,"[1, 3, 4, 6, 7, 9, 11, 14, 19, 22, 23]",141.6684126,12583,1815,2,32,12,1.6015983641428178
basic,8,43,0,0,0,3,"[0, 29, 20, 16, 15, 25, 12, 3]",8,10,"[1, 4, 6, 7, 9, 11, 14, 19, 22, 23]",128.6684126,14194,1611,2,24,12,1.5379830456120627
basic,8,43,0,0,0,22,"[0, 29, 20, 16, 15, 25, 12, 3, 22]",9,6,"[1, 6, 7, 11, 14, 19]",93.95530264,16974,2780,1,11,12,1.7275686117408873
basic,8,43,0,0,0,19,"[0, 29, 20, 16, 15, 25, 12, 3, 22, 19]",10,4,"[1, 6, 7, 11]",73.33977451,19668,2694,1,3,12,1.6315360037595275
basic,8,43,0,0,0,1,"[0, 29, 20, 16, 15, 25, 12, 3, 22, 19, 1]",11,1,[7],45.1617689,23309,3641,1,0,12,1.7703076545303877
basic,8,43,0,0,1,7,"[0, 29, 20, 16, 15, 25, 12, 3, 22, 19, 1, 7]",12,0,[],6.951822553,25648,2339,1,0,12,1.6607094905815594
basic,8,43,0,1,1,7,"[0, 29, 20, 16, 15, 25, 12, 3, 22, 19, 1, 7]",12,0,[],6.951822553,30679,5031,1,0,12,1.6607094905815594
basic,9,31,0,0,0,0,[0],1,27,"[1, 3, 4, 5, 6, 7, 8, 10, 11, 12, 13, 14, 15, 16, 17, 18, 19, 20, 21, 22, 23, 24, 25, 26, 27, 28, 29]",300,218,-1,2,87,10,0.0
basic,9,31,0,0,0,14,"[0, 14]",2,25,"[1, 3, 5, 6, 7, 8, 10, 11, 12, 13, 15, 16, 17, 18, 19, 20, 21, 22, 23, 24, 25, 26, 27, 28, 29]",263.861378,4451,4233,2,59,10,1.0
basic,9,31,0,0,0,27,"[0, 14, 27]",3,22,"[1, 3, 5, 6, 7, 8, 10, 11, 12, 13, 15, 16, 17, 18, 19, 20, 21, 22, 24, 25, 28, 29]",235.6833724,6457,2006,1,39,10,1.5881859159302467
basic,9,31,0,0,0,8,"[0, 14, 27, 8]",4,20,"[1, 3, 5, 6, 7, 10, 11, 12, 13, 16, 17, 18, 19, 20, 21, 22, 24, 25, 28, 29]",224.6380114,8032,1575,1,36,10,2.1665048452331277
basic,9,31,0,0,0,18,"[0, 14, 27, 8, 18]",5,15,"[1, 5, 6, 7, 11, 12, 13, 16, 17, 19, 20, 22, 25, 28, 29]",188.7911147,14065,6033,1,26,10,1.7273375741920205
basic,9,31,0,0,0,17,"[0, 14, 27, 8, 18, 17]",6,13,"[1, 5, 6, 7, 11, 12, 13, 16, 19, 20, 22, 25, 28]",159.584951,15673,1608,1,13,10,1.551192427769927
basic,9,31,0,0,0,25,"[0, 14, 27, 8, 18, 17, 25]",7,7,"[1, 5, 11, 12, 20, 22, 28]",99.14489804,18182,2509,4,5,9,1.3923783527528582
basic,9,31,0,0,0,12,"[0, 14, 27, 8, 18, 17, 25, 12]",8,3,"[1, 20, 22]",68.55078096,20823,2641,3,0,9,1.3338517222537312
basic,9,31,0,0,1,22,"[0, 14, 27, 8, 18, 17, 25, 12, 22]",9,0,[],18.06315871,22665,1842,1,0,9,1.8717753474146654
basic,9,31,0,1,1,22,"[0, 14, 27, 8, 18, 17, 25, 12, 22]",9,0,[],18.06315871,25528,2863,1,0,9,1.8717753474146654
basic,10,14,0,0,0,0,[0],1,29,"[1, 2, 3, 4, 5, 6, 7, 8, 9, 10, 11, 12, 13, 14, 15, 16, 17, 18, 19, 20, 21, 22, 23, 24, 25, 26, 27, 28, 29]",300,194,-1,8,157,10,0.0
basic,10,14,0,0,0,15,"[0, 15]",2,20,"[1, 2, 3, 4, 7, 8, 9, 13, 17, 18, 19, 20, 21, 22, 23, 25, 26, 27, 28, 29]",216.7053423,5568,5374,8,102,10,1.0
basic,10,14,0,0,0,28,"[0, 15, 28]",3,17,"[1, 2, 3, 4, 7, 8, 9, 13, 17, 18, 19, 20, 22, 23, 25, 26, 27]",197.4959696,6944,1376,8,48,10,1.0446007867311968
basic,10,14,0,0,0,17,"[0, 15, 28, 17]",4,14,"[1, 2, 3, 4, 7, 8, 13, 18, 19, 20, 22, 23, 25, 26]",184.0423455,7976,1032,8,39,10,1.0729463354689972
basic,10,14,0,0,0,18,"[0, 15, 28, 17, 18]",5,9,"[1, 2, 4, 7, 8, 19, 23, 25, 26]",119.412631,9794,1818,8,27,10,1.5035901079219378
basic,10,14,0,0,0,8,"[0, 15, 28, 17, 18, 8]",6,8,"[1, 2, 4, 7, 19, 23, 25, 26]",105.8111605,11026,1232,8,18,10,1.4819689987843856
basic,10,14,0,0,0,1,"[0, 15, 28, 17, 18, 8, 1]",7,5,"[7, 19, 23, 25, 26]",82.21031307,12395,1369,4,6,10,1.4084991998385268
basic,10,14,0,0,0,19,"[0, 15, 28, 17, 18, 8, 1, 19]",8,4,"[7, 23, 25, 26]",66.97876686,13741,1346,4,1,10,1.5758713333797987
basic,10,14,0,0,0,25,"[0, 15, 28, 17, 18, 8, 1, 19, 25]",9,2,"[7, 23]",31.1318702,18370,4629,2,0,10,1.6426186864061416
basic,10,14,0,0,1,7,"[0, 15, 28, 17, 18, 8, 1, 19, 25, 7]",10,0,[],11.4341546,19850,1480,1,0,10,1.652323224159132
basic,10,14,0,1,1,7,"[0, 15, 28, 17, 18, 8, 1, 19, 25, 7]",10,0,[],11.4341546,23906,4056,1,0,10,1.652323224159132
basic,11,28,0,0,0,0,[0],1,27,"[1, 2, 3, 4, 5, 6, 7, 8, 9, 10, 11, 12, 13, 14, 15, 16, 17, 18, 19, 20, 22, 23, 25, 26, 27, 28, 29]",300,194,-1,2,96,9,0.0
basic,11,28,0,0,0,3,"[0, 3]",2,26,"[1, 2, 4, 5, 6, 7, 8, 9, 10, 11, 12, 13, 14, 15, 16, 17, 18, 19, 20, 22, 23, 25, 26, 27, 28, 29]",251.0817008,10773,10579,1,64,9,1.0
basic,11,28,0,0,0,5,"[0, 3, 5]",3,20,"[2, 4, 6, 7, 8, 9, 10, 11, 12, 13, 14, 15, 18, 19, 20, 23, 25, 26, 28, 29]",166.9865166,12579,1806,1,34,9,1.0203769473612083
basic,11,28,0,0,0,26,"[0, 3, 5, 26]",4,13,"[2, 4, 7, 8, 9, 12, 13, 14, 18, 19, 20, 25, 28]",134.2298379,15012,2433,1,28,9,1.0315203228799597
basic,11,28,0,0,0,19,"[0, 3, 5, 26, 19]",5,7,"[2, 7, 9, 12, 13, 14, 18]",93.22983789,17490,2478,1,17,9,1.1324645362297356
basic,11,28,0,0,0,7,"[0, 3, 5, 26, 19, 7]",6,5,"[2, 12, 13, 14, 18]",65.49898864,19364,1874,1,6,9,1.1971194919020265
basic,11,28,0,0,0,12,"[0, 3, 5, 26, 19, 7, 12]",7,2,"[13, 18]",52.3460422,20569,1205,1,1,9,1.2020762147848982
basic,11,28,0,0,0,13,"[0, 3, 5, 26, 19, 7, 12, 13]",8,1,[18],35.14139167,22567,1998,1,0,9,1.39005144078531
basic,11,28,0,0,1,18,"[0, 3, 5, 26, 19, 7, 12, 13, 18]",9,0,[],10.72828044,23983,1416,1,0,9,1.738787343626007
basic,11,28,0,1,1,18,"[0, 3, 5, 26, 19, 7, 12, 13, 18]",9,0,[],10.72828044,27424,3441,1,0,9,1.738787343626007
basic,12,30,0,0,0,0,[0],1,19,"[3, 4, 5, 7, 9, 11, 16, 17, 18, 19, 20, 21, 22, 24, 25, 26, 27, 28, 29]",300,295,-1,5,41,8,0.0
basic,12,30,0,0,0,16,"[0, 16]",2,17,"[3, 5, 7, 9, 11, 17, 18, 19, 20, 21, 22, 24, 25, 26, 27, 28, 29]",219.3774225,11188,10893,5,34,8,1.0
basic,12,30,0,0,0,25,"[0, 16, 25]",3,10,"[3, 5, 7, 9, 11, 18, 19, 20, 27, 29]",115.0845656,13047,1859,5,28,8,1.0336279544884488
basic,12,30,0,0,0,20,"[0, 16, 25, 20]",4,8,"[3, 5, 7, 9, 18, 19, 27, 29]",93.15285342,14895,1848,4,14,8,1.0337964627284246
basic,12,30,0,0,0,27,"[0, 16, 25, 20, 27]",5,4,"[3, 5, 18, 29]",59.09408069,16225,1330,4,6,8,1.1504365534848
basic,12,30,0,0,0,3,"[0, 16, 25, 20, 27, 3]",6,3,"[5, 18, 29]",39.98910751,18230,2005,4,0,8,1.1403876826835333
basic,12,30,0,0,0,29,"[0, 16, 25, 20, 27, 3, 29]",7,1,[18],21.38803228,19627,1397,1,0,8,1.1443827771455848
basic,12,30,0,0,1,18,"[0, 16, 25, 20, 27, 3, 29, 18]",8,0,[],2.074824359,21083,1456,1,0,8,1.2197761544023602
basic,12,30,0,1,1,18,"[0, 16, 25, 20, 27, 3, 29, 18]",8,0,[],2.074824359,23307,2224,1,0,8,1.2197761544023602
basic,13,10,0,0,0,0,[0],1,29,"[1, 2, 3, 4, 5, 6, 7, 8, 9, 10, 11, 12, 13, 14, 15, 16, 17, 18, 19, 20, 21, 22, 23, 24, 25, 26, 27, 28, 29]",300,206,-1,1,100,9,0.0
basic,13,10,0,0,0,13,"[0, 13]",2,25,"[1, 2, 3, 4, 6, 7, 8, 9, 10, 11, 12, 14, 17, 18, 19, 20, 21, 22, 23, 24, 25, 26, 27, 28, 29]",249.4628849,4028,3822,1,79,9,1.0
basic,13,10,0,0,0,19,"[0, 13, 19]",3,12,"[2, 6, 8, 9, 10, 11, 14, 18, 20, 24, 26, 27]",180.5861835,6590,2562,11,79,8,1.0000581961988606
basic,13,10,0,0,0,2,"[0, 13, 19, 2]",4,5,"[11, 14, 20, 26, 27]",136.6771867,8052,1462,3,9,8,1.000456581399483
basic,13,10,0,0,0,14,"[0, 13, 19, 2, 14]",5,4,"[11, 20, 26, 27]",124.5116616,9279,1227,3,6,8,1.0972737011325653
basic,13,10,0,0,0,26,"[0, 13, 19, 2, 14, 26]",6,3,"[11, 20, 27]",89.84178999,10860,1581,3,1,8,1.5868342521575007
basic,13,10,0,0,0,20,"[0, 13, 19, 2, 14, 26, 20]",7,2,"[11, 27]",58.06129282,12375,1515,2,0,8,1.9988791745370547
basic,13,10,0,0,1,11,"[0, 13, 19, 2, 14, 26, 20, 11]",8,0,[],19.98242729,14488,2113,1,0,8,3.0870107735625756
basic,13,10,0,1,1,11,"[0, 13, 19, 2, 14, 26, 20, 11]",8,0,[],19.98242729,18105,3617,1,0,8,3.0870107735625756
basic,14,1,0,0,0,0,[0],1,26,"[1, 2, 4, 5, 7, 8, 9, 10, 11, 12, 13, 14, 15, 16, 17, 18, 19, 20, 21, 22, 23, 24, 25, 26, 28, 29]",300,223,-1,6,74,7,0.0
basic,14,1,0,0,0,14,"[0, 14]",2,19,"[1, 4, 5, 8, 9, 13, 15, 17, 18, 19, 20, 21, 22, 23, 24, 25, 26, 28, 29]",200.1901808,7625,7402,5,42,7,1.0
basic,14,1,0,0,0,17,"[0, 14, 17]",3,15,"[1, 4, 5, 8, 9, 13, 15, 18, 19, 20, 22, 23, 25, 28, 29]",147.8356204,11837,4212,5,27,7,1.0028844724416826
basic,14,1,0,0,0,1,"[0, 14, 17, 1]",4,12,"[4, 5, 8, 9, 15, 18, 20, 22, 23, 25, 28, 29]",123.4840291,13408,1571,5,15,7,1.0264985578353567
basic,14,1,0,0,0,28,"[0, 14, 17, 1, 28]",5,5,"[9, 15, 22, 23, 29]",88.59850198,14735,1327,5,3,7,1.0339861575999345
basic,14,1,0,0,0,23,"[0, 14, 17, 1, 28, 23]",6,2,"[15, 22]",51.70676849,16361,1626,2,0,7,1.0327458250705703
basic,14,1,0,0,1,15,"[0, 14, 17, 1, 28, 23, 15]",7,0,[],20.81987807,18114,1753,1,0,7,1.1948681641401226
basic,14,1,0,1,1,15,"[0, 14, 17, 1, 28, 23, 15]",7,0,[],20.81987807,20403,2289,1,0,7,1.1948681641401226
basic,15,21,0,0,0,0,[0],1,29,"[1, 2, 3, 4, 5, 6, 7, 8, 9, 10, 11, 12, 13, 14, 15, 16, 17, 18, 19, 20, 21, 22, 23, 24, 25, 26, 27, 28, 29]",300,226,-1,84,830,9,0.0
basic,15,21,0,0,0,21,"[0, 21]",2,22,"[1, 3, 4, 6, 8, 9, 10, 11, 12, 14, 15, 16, 17, 18, 20, 22, 23, 24, 25, 26, 27, 29]",210.1111798,4361,4135,1,69,9,1.0
basic,15,21,0,0,0,14,"[0, 21, 14]",3,15,"[1, 4, 6, 8, 9, 15, 16, 17, 18, 20, 22, 23, 24, 25, 29]",184.4986828,5558,1197,35,96,8,1.0083702391721483
basic,15,21,0,0,0,4,"[0, 21, 14, 4]",4,13,"[1, 8, 9, 15, 16, 17, 18, 20, 22, 23, 24, 25, 29]",170.3565472,6641,1083,20,39,8,1.0135821167776475
basic,15,21,0,0,0,16,"[0, 21, 14, 4, 16]",5,7,"[8, 15, 17, 23, 24, 25, 29]",125.758341,8223,1582,4,6,8,1.0675217597413178
basic,15,21,0,0,0,8,"[0, 21, 14, 4, 16, 8]",6,3,"[15, 23, 24]",107.1572657,13030,4807,3,1,8,1.0643903127717425
basic,15,21,0,0,0,15,"[0, 21, 14, 4, 16, 8, 15]",7,2,"[23, 24]",82.15726573,14903,1873,2,0,8,1.29402645910376
basic,15,21,0,0,1,24,"[0, 21, 14, 4, 16, 8, 15, 24]",8,0,[],36.4516862,17664,2761,1,0,8,1.3251667405154008
basic,15,21,0,1,1,24,"[0, 21, 14, 4, 16, 8, 15, 24]",8,0,[],36.4516862,19753,2089,1,0,8,1.3251667405154008
basic,16,7,0,0,0,0,[0],1,29,"[1, 2, 3, 4, 5, 6, 7, 8, 9, 10, 11, 12, 13, 14, 15, 16, 17, 18, 19, 20, 21, 22, 23, 24, 25, 26, 27, 28, 29]",300,276,-1,3,79,9,0.0
basic,16,7,0,0,0,6,"[0, 6]",2,22,"[2, 4, 5, 7, 8, 9, 10, 11, 13, 14, 15, 16, 18, 19, 20, 21, 22, 23, 24, 25, 27, 28]",231.1160396,8302,8026,1,24,9,1.0
basic,16,7,0,0,0,25,"[0, 6, 25]",3,14,"[2, 4, 5, 7, 13, 14, 15, 16, 18, 19, 20, 21, 23, 28]",163.9371739,10818,2516,1,15,9,1.1491202566384209
basic,16,7,0,0,0,18,"[0, 6, 25, 18]",4,10,"[2, 4, 7, 13, 14, 15, 16, 19, 20, 23]",135.6175694,12020,1202,3,17,8,1.1481527050479303
basic,16,7,0,0,0,20,"[0, 6, 25, 18, 20]",5,7,"[2, 4, 7, 13, 15, 16, 19]",122.8113209,13331,1311,2,7,8,1.1819409572824942
basic,16,7,0,0,0,7,"[0, 6, 25, 18, 20, 7]",6,3,"[2, 4, 19]",82.31440742,14712,1381,1,2,8,1.1899474510501942
basic,16,7,0,0,0,19,"[0, 6, 25, 18, 20, 7, 19]",7,1,[2],52.90352508,16381,1669,1,0,8,1.3062191275015858
basic,16,7,0,0,1,2,"[0, 6, 25, 18, 20, 7, 19, 2]",8,0,[],22.75389822,17866,1485,1,0,8,1.3209685930735187
basic,16,7,0,1,1,2,"[0, 6, 25, 18, 20, 7, 19, 2]",8,0,[],22.75389822,19556,1690,1,0,8,1.3209685930735187
basic,17,12,0,0,0,0,[0],1,29,"[1, 2, 3, 4, 5, 6, 7, 8, 9, 10, 11, 12, 13, 14, 15, 16, 17, 18, 19, 20, 21, 22, 23, 24, 25, 26, 27, 28, 29]",300,229,-1,2,32,9,0.0
basic,17,12,0,0,0,22,"[0, 22]",2,22,"[2, 4, 5, 6, 7, 9, 10, 12, 13, 14, 15, 16, 17, 18, 19, 21, 23, 24, 25, 27, 28, 29]",211.9943184,3744,3515,6,42,8,1.0
basic,17,12,0,0,0,16,"[0, 22, 16]",3,12,"[2, 4, 5, 6, 7, 12, 14, 19, 23, 24, 25, 27]",190.9943184,5102,1358,6,24,8,1.2017164145167045
basic,17,12,0,0,0,4,"[0, 22, 16, 4]",4,9,"[2, 6, 7, 12, 14, 19, 24, 25, 27]",156.7890556,7317,2215,6,14,8,1.146531713305579
basic,17,12,0,0,0,12,"[0, 22, 16, 4, 12]",5,4,"[14, 19, 24, 27]",114.5990094,8562,1245,4,3,8,1.1221389456954312
basic,17,12,0,0,0,27,"[0, 22, 16, 4, 12, 27]",6,3,"[14, 19, 24]",90.24741807,9989,1427,2,1,8,1.2262878338287035
basic,17,12,0,0,0,14,"[0, 22, 16, 4, 12, 27, 14]",7,1,[24],61.59432051,11393,1404,1,0,8,1.2804562106751427
basic,17,12,0,0,1,24,"[0, 22, 16, 4, 12, 27, 14, 24]",8,0,[],44.38966997,14614,3221,1,0,8,1.4322660007679802
basic,17,12,0,1,1,24,"[0, 22, 16, 4, 12, 27, 14, 24]",8,0,[],44.38966997,17087,2473,1,0,8,1.4322660007679802
basic,18,29,0,0,0,0,[0],1,29,"[1, 2, 3, 4, 5, 6, 7, 8, 9, 10, 11, 12, 13, 14, 15, 16, 17, 18, 19, 20, 21, 22, 23, 24, 25, 26, 27, 28, 29]",300,196,-1,1,78,9,0.0
basic,18,29,0,0,0,25,"[0, 25]",2,18,"[1, 2, 4, 5, 6, 7, 9, 10, 12, 13, 14, 15, 16, 17, 22, 26, 27, 28]",223.3449284,4900,4704,13,101,8,1.0
basic,18,29,0,0,0,17,"[0, 25, 17]",3,13,"[1, 4, 5, 6, 7, 9, 10, 12, 13, 14, 22, 27, 28]",188.41643,6140,1240,2,22,8,1.014228463693056
basic,18,29,0,0,0,1,"[0, 25, 17, 1]",4,11,"[4, 5, 6, 7, 10, 12, 13, 14, 22, 27, 28]",149.5191293,7337,1197,2,18,8,1.7553639368828857
basic,18,29,0,0,0,14,"[0, 25, 17, 1, 14]",5,8,"[4, 5, 7, 12, 13, 22, 27, 28]",106.5656662,8705,1368,2,9,8,2.137167642879409
basic,18,29,0,0,0,13,"[0, 25, 17, 1, 14, 13]",6,4,"[4, 5, 12, 22]",88.53790978,11398,2693,2,3,8,1.9535489858276616
basic,18,29,0,0,0,5,"[0, 25, 17, 1, 14, 13, 5]",7,2,"[4, 22]",62.82798951,13095,1697,2,0,8,1.9087092890879327
basic,18,29,0,0,1,4,"[0, 25, 17, 1, 14, 13, 5, 4]",8,0,[],10.93386653,14861,1766,1,0,8,1.6444131700810427
basic,18,29,0,1,1,4,"[0, 25, 17, 1, 14, 13, 5, 4]",8,0,[],10.93386653,25007,10146,1,0,8,1.6444131700810427
basic,19,11,0,0,0,0,[0],1,25,"[1, 2, 3, 4, 5, 6, 8, 9, 10, 11, 12, 13, 14, 15, 16, 17, 18, 19, 20, 22, 23, 25, 26, 27, 28]",300,218,-1,6,374,12,0.0
basic,19,11,0,0,0,27,"[0, 27]",2,21,"[1, 2, 4, 5, 6, 8, 9, 11, 12, 13, 14, 15, 16, 17, 18, 19, 20, 22, 23, 25, 28]",217.9939027,7493,7275,276,2000,10,1.0
basic,19,11,0,0,0,17,"[0, 27, 17]",3,15,"[1, 2, 4, 5, 6, 8, 11, 12, 15, 18, 19, 22, 23, 25, 28]",140.91602,9095,1602,82,451,10,1.0816284715013953
basic,19,11,0,0,0,8,"[0, 27, 17, 8]",4,13,"[1, 2, 4, 5, 6, 11, 12, 15, 18, 19, 22, 25, 28]",126.5981989,10123,1028,40,179,10,1.1941717730735368
basic,19,11,0,0,0,15,"[0, 27, 17, 8, 15]",5,10,"[2, 5, 6, 11, 12, 18, 19, 22, 25, 28]",113.1445749,11860,1737,33,59,10,1.1911530098609295
basic,19,11,0,0,0,11,"[0, 27, 17, 8, 15, 11]",6,7,"[2, 5, 6, 12, 19, 22, 28]",95.03380459,12821,961,24,0,10,1.1822699434643233
basic,19,11,0,0,0,28,"[0, 27, 17, 8, 15, 11, 28]",7,3,"[2, 5, 22]",75.61731675,13897,1076,6,0,10,1.298485676789349
basic,19,11,0,0,0,22,"[0, 27, 17, 8, 15, 11, 28, 22]",8,2,"[2, 5]",57.23254044,15437,1540,2,0,10,1.2876600280207695
basic,19,11,0,0,0,2,"[0, 27, 17, 8, 15, 11, 28, 22, 2]",9,1,[5],47.18266482,17792,2355,1,0,10,1.416438084596588
basic,19,11,0,0,1,5,"[0, 27, 17, 8, 15, 11, 28, 22, 2, 5]",10,0,[],30.18266482,19593,1801,1,0,10,1.658445032124157
basic,19,11,0,1,1,5,"[0, 27, 17, 8, 15, 11, 28, 22, 2, 5]",10,0,[],30.18266482,27544,7951,1,0,10,1.658445032124157
basic,20,41,0,0,0,0,[0],1,29,"[1, 2, 3, 4, 5, 6, 7, 8, 9, 10, 11, 12, 13, 14, 15, 16, 17, 18, 19, 20, 21, 22, 23, 24, 25, 26, 27, 28, 29]",300,311,-1,1,143,10,0.0
basic,20,41,0,0,0,13,"[0, 13]",2,23,"[1, 2, 3, 5, 6, 7, 9, 10, 11, 12, 14, 15, 17, 18, 19, 20, 21, 22, 24, 25, 26, 27, 28]",258.2747079,3593,3282,1,55,10,1.0
basic,20,41,0,0,0,28,"[0, 13, 28]",3,22,"[1, 2, 3, 5, 6, 7, 9, 10, 11, 12, 14, 15, 17, 18, 19, 20, 21, 22, 24, 25, 26, 27]",223.7928286,4937,1344,1,39,10,1.895724242592676
basic,20,41,0,0,0,5,"[0, 13, 28, 5]",4,19,"[1, 2, 3, 6, 9, 10, 11, 12, 14, 15, 17, 18, 19, 20, 21, 22, 24, 25, 27]",210.1913581,5977,1040,1,34,10,2.861541269398273
basic,20,41,0,0,0,3,"[0, 13, 28, 5, 3]",5,16,"[1, 2, 6, 9, 10, 12, 14, 17, 18, 19, 20, 21, 22, 24, 25, 27]",175.3632086,8339,2362,1,22,10,3.1455488489005883
basic,20,41,0,0,0,21,"[0, 13, 28, 5, 3, 21]",6,14,"[1, 2, 6, 9, 10, 12, 14, 17, 18, 19, 20, 22, 25, 27]",143.2228912,9638,1299,13,11,9,3.207558429289677
basic,20,41,0,0,0,9,"[0, 13, 28, 5, 3, 21, 9]",7,6,"[1, 2, 10, 12, 14, 17]",93.85691102,11126,1488,7,4,9,2.5050148501792275
basic,20,41,0,0,0,2,"[0, 13, 28, 5, 3, 21, 9, 2]",8,5,"[1, 10, 12, 14, 17]",81.77386505,12528,1402,5,0,9,2.4119643847713177
basic,20,41,0,0,1,17,"[0, 13, 28, 5, 3, 21, 9, 2, 17]",9,0,[],49.21622385,15295,2767,1,0,9,3.9563478735796007
basic,20,41,0,1,1,17,"[0, 13, 28, 5, 3, 21, 9, 2, 17]",9,0,[],49.21622385,20205,4910,1,0,9,3.9563478735796007
basic,21,20,0,0,0,0,[0],1,21,"[1, 2, 3, 4, 5, 6, 7, 8, 9, 12, 17, 18, 20, 21, 22, 23, 25, 26, 27, 28, 29]",300,196,-1,1,9,9,0.0
basic,21,20,0,0,0,1,"[0, 1]",2,14,"[3, 4, 5, 6, 8, 9, 12, 20, 21, 23, 26, 27, 28, 29]",197.3501096,5828,5632,1,9,8,1.0
basic,21,20,0,0,0,5,"[0, 1, 5]",3,12,"[4, 6, 8, 9, 12, 20, 21, 23, 26, 27, 28, 29]",160.675868,7958,2130,1,8,8,1.1088946720668915
basic,21,20,0,0,0,21,"[0, 1, 5, 21]",4,8,"[4, 6, 8, 9, 20, 23, 27, 28]",115.675868,9293,1335,1,6,8,1.0805828994591202
basic,21,20,0,0,0,8,"[0, 1, 5, 21, 8]",5,5,"[6, 9, 23, 27, 28]",98.21161876,10227,934,1,5,8,1.0976815296746363
basic,21,20,0,0,0,23,"[0, 1, 5, 21, 8, 23]",6,3,"[6, 9, 27]",53.52381281,11491,1264,1,2,8,1.0820667611140062
basic,21,20,0,0,0,9,"[0, 1, 5, 21, 8, 23, 9]",7,1,[6],34.3144401,13276,1785,1,0,8,1.0771429624373048
basic,21,20,0,0,1,6,"[0, 1, 5, 21, 8, 23, 9, 6]",8,0,[],11.29271124,14729,1453,1,0,8,1.0892675954154076
basic,21,20,0,1,1,6,"[0, 1, 5, 21, 8, 23, 9, 6]",8,0,[],11.29271124,16968,2239,1,0,8,1.0892675954154076
basic,22,32,0,0,0,0,[0],1,29,"[1, 2, 3, 4, 5, 6, 7, 8, 9, 10, 11, 12, 13, 14, 15, 16, 17, 18, 19, 20, 21, 22, 23, 24, 25, 26, 27, 28, 29]",300,196,-1,17,359,10,0.0
basic,22,32,0,0,0,19,"[0, 19]",2,28,"[1, 2, 3, 4, 5, 6, 7, 8, 9, 10, 11, 12, 13, 14, 15, 16, 17, 18, 20, 21, 22, 23, 24, 25, 26, 27, 28, 29]",283.5075775,3023,2827,16,294,10,1.0
basic,22,32,0,0,0,13,"[0, 19, 13]",3,24,"[2, 3, 4, 5, 6, 8, 9, 10, 11, 12, 14, 15, 16, 17, 18, 20, 21, 22, 23, 24, 25, 26, 27, 28]",260.3127505,4543,1520,14,227,10,1.0172874229878615
basic,22,32,0,0,0,15,"[0, 19, 13, 15]",4,18,"[2, 3, 5, 8, 9, 10, 11, 12, 16, 17, 20, 22, 23, 24, 25, 26, 27, 28]",177.4393531,6694,2151,9,116,10,1.435447391509833
basic,22,32,0,0,0,28,"[0, 19, 13, 15, 28]",5,17,"[2, 3, 5, 8, 9, 10, 11, 12, 16, 17, 20, 22, 23, 24, 25, 26, 27]",166.0375988,7942,1248,9,70,10,1.3843701324937985
basic,22,32,0,0,0,12,"[0, 19, 13, 15, 28, 12]",6,14,"[2, 3, 5, 8, 9, 10, 11, 16, 17, 20, 22, 24, 26, 27]",147.0639329,9579,1637,6,35,10,1.358372254952329
basic,22,32,0,0,0,16,"[0, 19, 13, 15, 28, 12, 16]",7,13,"[2, 3, 5, 8, 9, 10, 11, 17, 20, 22, 24, 26, 27]",131.411457,10994,1415,5,15,10,1.4356932930709845
basic,22,32,0,0,0,22,"[0, 19, 13, 15, 28, 12, 16, 22]",8,6,"[2, 8, 9, 17, 20, 27]",97.57360838,12712,1718,3,5,10,1.4335226411545752
basic,22,32,0,0,0,9,"[0, 19, 13, 15, 28, 12, 16, 22, 9]",9,3,"[2, 8, 20]",75.37000507,15315,2603,3,0,10,1.4837166378374758
basic,22,32,0,0,1,8,"[0, 19, 13, 15, 28, 12, 16, 22, 9, 8]",10,0,[],30.24794838,17347,2032,1,0,10,1.3767698817641267
basic,22,32,0,1,1,8,"[0, 19, 13, 15, 28, 12, 16, 22, 9, 8]",10,0,[],30.24794838,23040,5693,1,0,10,1.3767698817641267
undo,23,27,0,0,0,0,[0],1,26,"[1, 3, 5, 6, 7, 8, 9, 10, 11, 12, 13, 14, 15, 16, 17, 18, 19, 21, 22, 23, 24, 25, 26, 27, 28, 29]",300,248,-1,13,578,11,0.0
undo,23,27,0,0,0,15,"[0, 15]",2,24,"[1, 3, 5, 6, 7, 8, 9, 10, 11, 12, 13, 14, 16, 17, 18, 19, 21, 22, 23, 24, 25, 26, 27, 29]",263.7508621,6007,5759,6,219,11,1.0
undo,23,27,0,0,0,24,"[0, 15, 24]",3,20,"[1, 5, 6, 7, 8, 9, 10, 12, 13, 14, 16, 17, 18, 19, 21, 23, 25, 26, 27, 29]",246.5462115,7747,1740,6,130,11,1.130933077698322
undo,23,27,0,0,0,17,"[0, 15, 24, 17]",4,15,"[1, 6, 8, 10, 12, 13, 14, 16, 18, 19, 23, 25, 26, 27, 29]",229.9932662,9150,1403,4,60,11,1.1285538435963374
undo,23,27,0,0,0,12,"[0, 15, 24, 17, 12]",5,14,"[1, 6, 8, 10, 13, 14, 16, 18, 19, 23, 25, 26, 27, 29]",218.8129263,10450,1300,2,32,11,1.2561880288755216
undo,23,27,0,0,0,10,"[0, 15, 24, 17, 12, 10]",6,11,"[1, 8, 13, 14, 18, 19, 23, 25, 26, 27, 29]",207.7675653,12510,2060,2,28,11,1.2228289337766665
undo,23,27,0,0,0,13,"[0, 15, 24, 17, 12, 10, 13]",7,9,"[1, 8, 14, 18, 19, 23, 26, 27, 29]",167.9178476,13799,1289,2,18,11,1.3421291994761178
undo,23,27,0,0,0,19,"[0, 15, 24, 17, 12, 10, 13, 19]",8,5,"[1, 8, 14, 23, 29]",131.6825057,15486,1687,2,6,11,1.294749956153846
undo,23,27,0,0,0,8,"[0, 15, 24, 17, 12, 10, 13, 19, 8]",9,3,"[14, 23, 29]",116.816437,16427,941,2,1,11,1.3554286578836865
undo,23,27,0,0,0,29,"[0, 15, 24, 17, 12, 10, 13, 19, 8, 29]",10,1,[14],57.61339652,17812,1385,1,0,11,1.248354519573802
undo,23,27,0,0,1,14,"[0, 15, 24, 17, 12, 10, 13, 19, 8, 29, 14]",11,0,[],13.31892734,19051,1239,1,0,11,1.562811097555156
undo,23,27,1,0,0,29,"[0, 15, 24, 17, 12, 10, 13, 19, 8, 29]",10,1,[14],57.61339652,33017,13966,1,0,11,1.248354519573802
undo,23,27,1,0,0,8,"[0, 15, 24, 17, 12, 10, 13, 19, 8]",9,3,"[14, 23, 29]",116.816437,34065,1048,2,1,11,1.3554286578836865
undo,23,27,1,0,0,19,"[0, 15, 24, 17, 12, 10, 13, 19]",8,5,"[1, 8, 14, 23, 29]",131.6825057,35632,1567,2,6,11,1.294749956153846
undo,23,27,0,0,0,8,"[0, 15, 24, 17, 12, 10, 13, 19, 8]",9,3,"[14, 23, 29]",116.816437,38595,2963,2,1,11,1.3554286578836865
undo,23,27,0,0,1,23,"[0, 15, 24, 17, 12, 10, 13, 19, 8, 23]",10,0,[],45.97859399,40412,1817,1,0,10,3.3397859539241304
undo,23,27,1,0,0,8,"[0, 15, 24, 17, 12, 10, 13, 19, 8]",9,3,"[14, 23, 29]",116.816437,47356,6944,2,1,11,1.3554286578836865
undo,23,27,1,0,0,19,"[0, 15, 24, 17, 12, 10, 13, 19]",8,5,"[1, 8, 14, 23, 29]",131.6825057,48757,1401,2,6,11,1.294749956153846
undo,23,27,0,0,0,8,"[0, 15, 24, 17, 12, 10, 13, 19, 8]",9,3,"[14, 23, 29]",116.816437,52696,3939,2,1,11,1.3554286578836865
undo,23,27,0,0,0,29,"[0, 15, 24, 17, 12, 10, 13, 19, 8, 29]",10,1,[14],57.61339652,54603,1907,1,0,11,1.248354519573802
undo,23,27,0,0,1,14,"[0, 15, 24, 17, 12, 10, 13, 19, 8, 29, 14]",11,0,[],13.31892734,56228,1625,1,0,11,1.562811097555156
undo,23,27,0,1,1,14,"[0, 15, 24, 17, 12, 10, 13, 19, 8, 29, 14]",11,0,[],13.31892734,79507,23279,1,0,11,1.562811097555156
undo,24,33,0,0,0,0,[0],1,23,"[1, 2, 5, 7, 8, 11, 12, 13, 14, 15, 16, 17, 18, 19, 20, 21, 23, 24, 25, 26, 27, 28, 29]",300,208,-1,5,108,9,0.0
undo,24,33,0,0,0,8,"[0, 8]",2,22,"[1, 2, 5, 7, 11, 12, 13, 14, 15, 16, 17, 18, 19, 20, 21, 23, 24, 25, 26, 27, 28, 29]",265.8679037,3236,3028,5,87,9,1.0
undo,24,33,0,0,0,21,"[0, 8, 21]",3,16,"[2, 5, 7, 11, 13, 14, 16, 17, 18, 19, 20, 24, 26, 27, 28, 29]",166.0430571,5237,2001,5,80,9,1.0670557763739492
undo,24,33,0,0,0,17,"[0, 8, 21, 17]",4,11,"[2, 7, 11, 13, 14, 16, 19, 20, 24, 26, 29]",127.4036989,8372,3135,1,18,9,1.0830294710276618
undo,24,33,0,0,0,13,"[0, 8, 21, 17, 13]",5,10,"[2, 7, 11, 14, 16, 19, 20, 24, 26, 29]",104.6001904,12158,3786,1,10,9,1.2861654105061844
undo,24,33,0,0,0,19,"[0, 8, 21, 17, 13, 19]",6,6,"[7, 14, 16, 24, 26, 29]",79.10509282,13878,1720,1,6,9,1.3181942666818214
undo,24,33,0,0,0,24,"[0, 8, 21, 17, 13, 19, 24]",7,1,[7],37.05750074,15721,1843,1,0,8,1.2914654832859356
undo,24,33,0,0,1,7,"[0, 8, 21, 17, 13, 19, 24, 7]",8,0,[],7.851337003,17707,1986,1,0,8,1.370940443464748
undo,24,33,0,1,1,7,"[0, 8, 21, 17, 13, 19, 24, 7]",8,0,[],7.851337003,19705,1998,1,0,8,1.370940443464748
undo,25,1,0,0,0,0,[0],1,26,"[1, 2, 4, 5, 7, 8, 9, 10, 11, 12, 13, 14, 15, 16, 17, 18, 19, 20, 21, 22, 23, 24, 25, 26, 28, 29]",300,180,-1,6,74,7,0.0
undo,25,1,0,0,0,8,"[0, 8]",2,23,"[1, 4, 5, 7, 9, 10, 11, 12, 13, 14, 15, 16, 17, 18, 19, 20, 21, 23, 24, 25, 26, 28, 29]",202,11515,11335,1,16,7,1.0
undo,25,1,0,0,0,20,"[0, 8, 20]",3,12,"[1, 4, 5, 11, 13, 14, 15, 17, 18, 19, 28, 29]",125.9408125,13696,2181,1,7,7,1.02364736730791
undo,25,1,0,0,0,5,"[0, 8, 20, 5]",4,7,"[1, 4, 11, 13, 17, 18, 29]",104.469902,14877,1181,1,3,7,1.0439599203945713
undo,25,1,0,0,0,18,"[0, 8, 20, 5, 18]",5,2,"[4, 29]",81.64447755,17464,2587,1,1,7,1.0840407791793756
undo,25,1,0,0,0,4,"[0, 8, 20, 5, 18, 4]",6,1,[29],42.69579336,19012,1548,1,0,7,1.0902329133216275
undo,25,1,0,0,1,29,"[0, 8, 20, 5, 18, 4, 29]",7,0,[],6.640280603,26842,7830,1,0,7,1.2859729622882756
undo,25,1,0,1,1,29,"[0, 8, 20, 5, 18, 4, 29]",7,0,[],6.640280603,30043,3201,1,0,7,1.2859729622882756
undo,26,7,0,0,0,0,[0],1,29,"[1, 2, 3, 4, 5, 6, 7, 8, 9, 10, 11, 12, 13, 14, 15, 16, 17, 18, 19, 20, 21, 22, 23, 24, 25, 26, 27, 28, 29]",300,192,-1,3,79,9,0.0
undo,26,7,0,0,0,25,"[0, 25]",2,20,"[2, 3, 4, 5, 6, 7, 10, 13, 14, 15, 16, 18, 19, 20, 21, 22, 23, 24, 27, 28]",181.5939191,5999,5807,5,33,8,1.0
undo,26,7,0,0,0,4,"[0, 25, 4]",3,11,"[2, 6, 7, 13, 15, 16, 18, 19, 20, 21, 23]",156.8552853,8173,2174,2,14,8,1.0193465608331511
undo,26,7,0,0,0,20,"[0, 25, 4, 20]",4,8,"[2, 6, 7, 13, 15, 16, 18, 19]",137.2084026,9575,1402,1,9,8,1.085904909082323
undo,26,7,0,0,0,18,"[0, 25, 4, 20, 18]",5,7,"[2, 6, 7, 13, 15, 16, 19]",124.4021541,10610,1035,1,5,8,1.2264883846453758
undo,26,7,0,0,0,7,"[0, 25, 4, 20, 18, 7]",6,2,"[2, 19]",83.17109789,13228,2618,1,1,8,1.185264473968278
undo,26,7,0,0,0,19,"[0, 25, 4, 20, 18, 7, 19]",7,1,[2],53.76021555,14738,1510,1,0,8,1.3016904288278204
undo,26,7,0,0,1,2,"[0, 25, 4, 20, 18, 7, 19, 2]",8,0,[],23.61058868,16078,1340,1,0,8,1.3168868000947171
undo,26,7,1,0,0,19,"[0, 25, 4, 20, 18, 7, 19]",7,1,[2],53.76021555,19903,3825,1,0,8,1.3016904288278204
undo,26,7,1,0,0,7,"[0, 25, 4, 20, 18, 7]",6,2,"[2, 19]",83.17109789,20254,351,1,1,8,1.185264473968278
undo,26,7,1,0,0,18,"[0, 25, 4, 20, 18]",5,7,"[2, 6, 7, 13, 15, 16, 19]",124.4021541,20502,248,1,5,8,1.2264883846453758
undo,26,7,1,0,0,20,"[0, 25, 4, 20]",4,8,"[2, 6, 7, 13, 15, 16, 18, 19]",137.2084026,20753,251,1,9,8,1.085904909082323
undo,26,7,1,0,0,4,"[0, 25, 4]",3,11,"[2, 6, 7, 13, 15, 16, 18, 19, 20, 21, 23]",156.8552853,21236,483,2,14,8,1.0193465608331511
undo,26,7,1,0,0,25,"[0, 25]",2,20,"[2, 3, 4, 5, 6, 7, 10, 13, 14, 15, 16, 18, 19, 20, 21, 22, 23, 24, 27, 28]",181.5939191,21659,423,5,33,8,1.0
undo,26,7,1,0,0,0,[0],1,29,"[1, 2, 3, 4, 5, 6, 7, 8, 9, 10, 11, 12, 13, 14, 15, 16, 17, 18, 19, 20, 21, 22, 23, 24, 25, 26, 27, 28, 29]",300,22108,449,3,79,9,0.0
undo,26,7,0,0,0,28,"[0, 28]",2,22,"[4, 5, 6, 7, 8, 9, 10, 11, 12, 13, 14, 15, 16, 17, 18, 19, 20, 21, 23, 25, 27, 29]",249.8801437,24811,2703,6,35,8,1.0
undo,26,7,0,0,0,15,"[0, 28, 15]",3,12,"[4, 6, 7, 8, 13, 16, 18, 20, 21, 23, 25, 27]",168.7259694,26524,1713,6,21,8,1.9007265029423266
undo,26,7,0,0,0,6,"[0, 28, 15, 6]",4,11,"[4, 7, 8, 13, 16, 18, 20, 21, 23, 25, 27]",143.646097,27736,1212,6,15,8,2.269815819219436
undo,26,7,0,0,0,25,"[0, 28, 15, 6, 25]",5,5,"[4, 7, 13, 18, 20]",76.46723126,29860,2124,5,3,8,1.8878487235949422
undo,26,7,0,0,0,4,"[0, 28, 15, 6, 25, 4]",6,2,"[18, 20]",51.72859751,31877,2017,2,0,8,1.7679632867465176
undo,26,7,0,0,0,20,"[0, 28, 15, 6, 25, 4, 20]",7,1,[18],32.0817148,33638,1761,1,0,8,1.7871547781224602
undo,26,7,0,0,1,18,"[0, 28, 15, 6, 25, 4, 20, 18]",8,0,[],19.27546633,35003,1365,1,0,8,1.960760840012359
undo,26,7,0,1,1,18,"[0, 28, 15, 6, 25, 4, 20, 18]",8,0,[],19.27546633,36745,1742,1,0,8,1.960760840012359
undo,27,23,0,0,0,0,[0],1,28,"[1, 2, 3, 4, 5, 6, 7, 8, 9, 10, 11, 12, 13, 14, 15, 16, 17, 18, 19, 20, 21, 22, 23, 25, 26, 27, 28, 29]",300,242,-1,76,2626,10,0.0
undo,27,23,0,0,0,22,"[0, 22]",2,24,"[1, 2, 3, 5, 6, 7, 8, 9, 10, 11, 12, 13, 14, 15, 17, 18, 19, 20, 21, 23, 25, 26, 27, 29]",210.5013967,4874,4632,15,1362,10,1.0
undo,27,23,0,0,0,13,"[0, 22, 13]",3,14,"[1, 2, 5, 6, 7, 8, 9, 10, 12, 14, 18, 21, 27, 29]",168.3113504,6934,2060,14,522,10,1.1898173563652046
undo,27,23,0,0,0,27,"[0, 22, 13, 27]",4,7,"[2, 6, 9, 12, 14, 18, 29]",123.2114613,8305,1371,59,60,9,1.2347447137291254
undo,27,23,0,0,0,6,"[0, 22, 13, 27, 6]",5,5,"[2, 9, 12, 14, 29]",94.90951791,9663,1358,25,4,9,1.3650572476361236
undo,27,23,0,0,0,2,"[0, 22, 13, 27, 6, 2]",6,4,"[9, 12, 14, 29]",76.47042899,11529,1866,7,2,9,1.6380738772667878
undo,27,23,0,0,0,12,"[0, 22, 13, 27, 6, 2, 12]",7,2,"[9, 14]",62.577985,12938,1409,2,0,9,1.9367358574807247
undo,27,23,0,0,0,9,"[0, 22, 13, 27, 6, 2, 12, 9]",8,1,[14],48.26016394,14281,1343,1,0,9,1.926849993362044
undo,27,23,0,0,1,14,"[0, 22, 13, 27, 6, 2, 12, 9, 14]",9,0,[],37.81985743,15638,1357,1,0,9,1.860885019505484
undo,27,23,0,1,1,14,"[0, 22, 13, 27, 6, 2, 12, 9, 14]",9,0,[],37.81985743,21256,5618,1,0,9,1.860885019505484
undo,28,24,0,0,0,0,[0],1,29,"[1, 2, 3, 4, 5, 6, 7, 8, 9, 10, 11, 12, 13, 14, 15, 16, 17, 18, 19, 20, 21, 22, 23, 24, 25, 26, 27, 28, 29]",300,237,-1,4,76,10,0.0
undo,28,24,0,0,0,14,"[0, 14]",2,27,"[1, 2, 3, 4, 5, 6, 8, 9, 10, 11, 12, 13, 15, 16, 17, 18, 19, 20, 21, 22, 23, 24, 25, 26, 27, 28, 29]",278.0455016,7577,7340,4,54,10,1.0
undo,28,24,0,0,0,10,"[0, 14, 10]",3,20,"[1, 2, 3, 4, 6, 8, 9, 11, 15, 16, 17, 19, 20, 22, 23, 24, 26, 27, 28, 29]",229.342319,9544,1967,10,99,9,1.0038790212375874
undo,28,24,0,0,0,24,"[0, 14, 10, 24]",4,14,"[1, 2, 4, 6, 8, 9, 11, 15, 16, 20, 22, 23, 28, 29]",176.0037775,10698,1154,4,26,9,1.0345598967195753
undo,28,24,0,0,0,6,"[0, 14, 10, 24, 6]",5,11,"[1, 8, 9, 11, 15, 16, 20, 22, 23, 28, 29]",138.6674681,12093,1395,4,19,9,1.4136213103786264
undo,28,24,0,0,0,8,"[0, 14, 10, 24, 6, 8]",6,5,"[15, 16, 22, 23, 28]",77.83984283,13747,1654,4,4,9,2.0175546172818692
undo,28,24,0,0,0,22,"[0, 14, 10, 24, 6, 8, 22]",7,3,"[15, 16, 28]",64.42343497,15348,1601,2,1,9,2.235490370965466
undo,28,24,0,0,0,15,"[0, 14, 10, 24, 6, 8, 22, 15]",8,1,[16],43.21023153,16493,1145,1,0,9,2.146708489966832
undo,28,24,0,0,1,16,"[0, 14, 10, 24, 6, 8, 22, 15, 16]",9,0,[],12.79641888,21894,5401,1,0,9,3.20383312081356
undo,28,24,0,1,1,16,"[0, 14, 10, 24, 6, 8, 22, 15, 16]",9,0,[],12.79641888,27260,5366,1,0,9,3.20383312081356
undo,29,44,0,0,0,0,[0],1,29,"[1, 2, 3, 4, 5, 6, 7, 8, 9, 10, 11, 12, 13, 14, 15, 16, 17, 18, 19, 20, 21, 22, 23, 24, 25, 26, 27, 28, 29]",300,213,-1,13,126,7,0.0
undo,29,44,0,0,0,11,"[0, 11]",2,18,"[4, 5, 6, 7, 8, 9, 12, 14, 16, 17, 19, 20, 22, 23, 24, 25, 26, 28]",152.7790776,12078,11865,5,34,7,1.0
undo,29,44,0,0,0,24,"[0, 11, 24]",3,13,"[4, 5, 7, 8, 9, 12, 14, 17, 20, 22, 23, 25, 28]",125.8532535,13921,1843,5,23,7,1.1588941745226709
undo,29,44,0,0,0,9,"[0, 11, 24, 9]",4,7,"[4, 7, 8, 12, 14, 20, 23]",93.09657483,15810,1889,2,8,7,1.3039383713641313
undo,29,44,0,0,0,4,"[0, 11, 24, 9, 4]",5,5,"[7, 12, 14, 20, 23]",73.39885923,17364,1554,2,3,7,1.2901330701441578
undo,29,44,0,0,0,7,"[0, 11, 24, 9, 4, 7]",6,1,[23],42.38273439,20597,3233,1,0,7,1.2468141312360979
undo,29,44,0,0,1,23,"[0, 11, 24, 9, 4, 7, 23]",7,0,[],23.27776121,25392,4795,1,0,7,1.2635191782769477
undo,29,44,0,1,1,23,"[0, 11, 24, 9, 4, 7, 23]",7,0,[],23.27776121,27722,2330,1,0,7,1.2635191782769477
undo,30,14,0,0,0,0,[0],1,29,"[1, 2, 3, 4, 5, 6, 7, 8, 9, 10, 11, 12, 13, 14, 15, 16, 17, 18, 19, 20, 21, 22, 23, 24, 25, 26, 27, 28, 29]",300,295,-1,8,157,10,0.0
undo,30,14,0,0,0,15,"[0, 15]",2,20,"[1, 2, 3, 4, 7, 8, 9, 13, 17, 18, 19, 20, 21, 22, 23, 25, 26, 27, 28, 29]",216.7053423,3528,3233,8,102,10,1.0
undo,30,14,0,0,0,28,"[0, 15, 28]",3,17,"[1, 2, 3, 4, 7, 8, 9, 13, 17, 18, 19, 20, 22, 23, 25, 26, 27]",197.4959696,4516,988,8,48,10,1.0446007867311968
undo,30,14,0,0,0,17,"[0, 15, 28, 17]",4,14,"[1, 2, 3, 4, 7, 8, 13, 18, 19, 20, 22, 23, 25, 26]",184.0423455,5960,1444,8,39,10,1.0729463354689972
undo,30,14,0,0,0,18,"[0, 15, 28, 17, 18]",5,9,"[1, 2, 4, 7, 8, 19, 23, 25, 26]",119.412631,7052,1092,8,27,10,1.5035901079219378
undo,30,14,0,0,0,8,"[0, 15, 28, 17, 18, 8]",6,8,"[1, 2, 4, 7, 19, 23, 25, 26]",105.8111605,8104,1052,8,18,10,1.4819689987843856
undo,30,14,0,0,0,1,"[0, 15, 28, 17, 18, 8, 1]",7,5,"[7, 19, 23, 25, 26]",82.21031307,10678,2574,4,6,10,1.4084991998385268
undo,30,14,0,0,0,19,"[0, 15, 28, 17, 18, 8, 1, 19]",8,4,"[7, 23, 25, 26]",66.97876686,11912,1234,4,1,10,1.5758713333797987
undo,30,14,0,0,0,25,"[0, 15, 28, 17, 18, 8, 1, 19, 25]",9,2,"[7, 23]",31.1318702,14512,2600,2,0,10,1.6426186864061416
undo,30,14,0,0,1,7,"[0, 15, 28, 17, 18, 8, 1, 19, 25, 7]",10,0,[],11.4341546,17132,2620,1,0,10,1.652323224159132
undo,30,14,0,1,1,7,"[0, 15, 28, 17, 18, 8, 1, 19, 25, 7]",10,0,[],11.4341546,19506,2374,1,0,10,1.652323224159132
undo,31,31,0,0,0,0,[0],1,27,"[1, 3, 4, 5, 6, 7, 8, 10, 11, 12, 13, 14, 15, 16, 17, 18, 19, 20, 21, 22, 23, 24, 25, 26, 27, 28, 29]",300,217,-1,2,87,10,0.0
undo,31,31,0,0,0,14,"[0, 14]",2,25,"[1, 3, 5, 6, 7, 8, 10, 11, 12, 13, 15, 16, 17, 18, 19, 20, 21, 22, 23, 24, 25, 26, 27, 28, 29]",263.861378,3902,3685,2,59,10,1.0
undo,31,31,0,0,0,27,"[0, 14, 27]",3,22,"[1, 3, 5, 6, 7, 8, 10, 11, 12, 13, 15, 16, 17, 18, 19, 20, 21, 22, 24, 25, 28, 29]",235.6833724,5492,1590,1,39,10,1.5881859159302467
undo,31,31,0,0,0,8,"[0, 14, 27, 8]",4,20,"[1, 3, 5, 6, 7, 10, 11, 12, 13, 16, 17, 18, 19, 20, 21, 22, 24, 25, 28, 29]",224.6380114,6835,1343,1,36,10,2.1665048452331277
undo,31,31,0,0,0,18,"[0, 14, 27, 8, 18]",5,15,"[1, 5, 6, 7, 11, 12, 13, 16, 17, 19, 20, 22, 25, 28, 29]",188.7911147,19757,12922,1,26,10,1.7273375741920205
undo,31,31,0,0,0,17,"[0, 14, 27, 8, 18, 17]",6,13,"[1, 5, 6, 7, 11, 12, 13, 16, 19, 20, 22, 25, 28]",159.584951,21526,1769,1,13,10,1.551192427769927
undo,31,31,0,0,0,25,"[0, 14, 27, 8, 18, 17, 25]",7,7,"[1, 5, 11, 12, 20, 22, 28]",99.14489804,23308,1782,4,5,9,1.3923783527528582
undo,31,31,1,0,0,17,"[0, 14, 27, 8, 18, 17]",6,13,"[1, 5, 6, 7, 11, 12, 13, 16, 19, 20, 22, 25, 28]",159.584951,26516,3208,1,13,10,1.551192427769927
undo,31,31,1,0,0,18,"[0, 14, 27, 8, 18]",5,15,"[1, 5, 6, 7, 11, 12, 13, 16, 17, 19, 20, 22, 25, 28, 29]",188.7911147,27144,628,1,26,10,1.7273375741920205
undo,31,31,0,0,0,11,"[0, 14, 27, 8, 18, 11]",6,11,"[1, 5, 7, 12, 16, 17, 19, 20, 22, 25, 28]",153.9055876,28870,1726,13,17,9,2.386348208737804
undo,31,31,0,0,0,5,"[0, 14, 27, 8, 18, 11, 5]",7,5,"[16, 17, 20, 25, 28]",110.2249283,30401,1531,3,3,9,2.163249612867222
undo,31,31,0,0,0,28,"[0, 14, 27, 8, 18, 11, 5, 28]",8,2,"[16, 17]",90.00117988,31414,1013,2,0,9,1.9564635733184719
undo,31,31,0,0,1,16,"[0, 14, 27, 8, 18, 11, 5, 28, 16]",9,0,[],56.38570725,33037,1623,1,0,9,1.824071502589619
undo,31,31,0,1,1,16,"[0, 14, 27, 8, 18, 11, 5, 28, 16]",9,0,[],56.38570725,35413,2376,1,0,9,1.824071502589619
undo,32,18,0,0,0,0,[0],1,28,"[1, 2, 3, 4, 5, 6, 7, 8, 9, 10, 11, 12, 13, 14, 16, 17, 18, 19, 20, 21, 22, 23, 24, 25, 26, 27, 28, 29]",300,194,-1,3,136,10,0.0
undo,32,18,0,0,0,28,"[0, 28]",2,16,"[1, 3, 5, 7, 8, 9, 12, 13, 14, 16, 20, 23, 24, 25, 26, 27]",236.4311397,3906,3712,2,19,10,1.0
undo,32,18,0,0,0,7,"[0, 28, 7]",3,15,"[1, 3, 5, 8, 9, 12, 13, 14, 16, 20, 23, 24, 25, 26, 27]",214.4084242,5233,1327,2,17,10,1.4345180696367563
undo,32,18,0,0,0,25,"[0, 28, 7, 25]",4,13,"[1, 3, 5, 8, 9, 12, 13, 14, 16, 20, 23, 26, 27]",186.6055466,6895,1662,2,15,10,1.8896451241781882
undo,32,18,0,0,0,8,"[0, 28, 7, 25, 8]",5,10,"[3, 5, 9, 12, 13, 14, 16, 23, 26, 27]",149.551532,8573,1678,2,10,10,1.590467437592877
undo,32,18,0,0,0,13,"[0, 28, 7, 25, 8, 13]",6,9,"[3, 5, 9, 12, 14, 16, 23, 26, 27]",128.4565089,10059,1486,2,5,10,1.8248274983549797
undo,32,18,0,0,0,14,"[0, 28, 7, 25, 8, 13, 14]",7,7,"[3, 5, 9, 12, 23, 26, 27]",109.4828429,11645,1586,2,3,10,1.6993534956692746
undo,32,18,0,0,0,3,"[0, 28, 7, 25, 8, 13, 14, 3]",8,3,"[5, 12, 27]",79.39962499,12900,1255,2,1,10,1.802637206541468
undo,32,18,0,0,0,5,"[0, 28, 7, 25, 8, 13, 14, 3, 5]",9,1,[12],21.21887216,14893,1993,1,0,10,1.559774889743805
undo,32,18,0,0,1,12,"[0, 28, 7, 25, 8, 13, 14, 3, 5, 12]",10,0,[],9.817117911,16729,1836,1,0,10,1.563993037384447
undo,32,18,0,1,1,12,"[0, 28, 7, 25, 8, 13, 14, 3, 5, 12]",10,0,[],9.817117911,20187,3458,1,0,10,1.563993037384447
undo,33,16,0,0,0,0,[0],1,29,"[1, 2, 3, 4, 5, 6, 7, 8, 9, 10, 11, 12, 13, 14, 15, 16, 17, 18, 19, 20, 21, 22, 23, 24, 25, 26, 27, 28, 29]",300,197,-1,13,161,9,0.0
undo,33,16,0,0,0,28,"[0, 28]",2,27,"[1, 2, 3, 4, 5, 7, 8, 9, 10, 11, 12, 13, 14, 15, 16, 17, 18, 19, 20, 21, 22, 23, 24, 25, 26, 27, 29]",284.3475242,6990,6793,11,92,9,1.0
undo,33,16,0,0,0,17,"[0, 28, 17]",3,26,"[1, 2, 3, 4, 5, 7, 8, 9, 10, 11, 12, 13, 14, 15, 16, 18, 19, 20, 21, 22, 23, 24, 25, 26, 27, 29]",219.1555001,10777,3787,10,46,9,1.3773866384707543
undo,33,16,0,0,0,16,"[0, 28, 17, 16]",4,25,"[1, 2, 3, 4, 5, 7, 8, 9, 10, 11, 12, 13, 14, 15, 18, 19, 20, 21, 22, 23, 24, 25, 26, 27, 29]",190.8358956,12094,1317,10,34,9,1.3209953830681203
undo,33,16,0,0,0,8,"[0, 28, 17, 16, 8]",5,12,"[3, 4, 5, 9, 12, 13, 15, 19, 20, 21, 25, 29]",142.4623491,13894,1800,6,19,9,1.2700932705506198
undo,33,16,0,0,0,20,"[0, 28, 17, 16, 8, 20]",6,6,"[4, 5, 9, 12, 15, 25]",84.6869218,15804,1910,4,4,9,1.1899382910703262
undo,33,16,0,0,0,25,"[0, 28, 17, 16, 8, 20, 25]",7,3,"[5, 9, 15]",72.03781116,17272,1468,2,2,9,1.2372268181049477
undo,33,16,0,0,0,9,"[0, 28, 17, 16, 8, 20, 25, 9]",8,2,"[5, 15]",59.23156268,19114,1842,2,0,9,1.221922950237529
undo,33,16,0,0,1,15,"[0, 28, 17, 16, 8, 20, 25, 9, 15]",9,0,[],20.334262,21714,2600,1,0,9,1.318239760375411
undo,33,16,0,1,1,15,"[0, 28, 17, 16, 8, 20, 25, 9, 15]",9,0,[],20.334262,28556,6842,1,0,9,1.318239760375411
undo,34,0,0,0,0,0,[0],1,27,"[2, 3, 4, 5, 6, 7, 8, 9, 10, 11, 12, 13, 14, 15, 16, 17, 19, 20, 21, 22, 23, 24, 25, 26, 27, 28, 29]",300,180,-1,104,1136,9,0.0
undo,34,0,0,0,0,28,"[0, 28]",2,26,"[2, 3, 4, 5, 6, 7, 8, 9, 10, 11, 12, 13, 14, 15, 16, 17, 19, 20, 21, 22, 23, 24, 25, 26, 27, 29]",194.9190788,3924,3744,39,388,9,1.0
undo,34,0,0,0,0,5,"[0, 28, 5]",3,21,"[2, 3, 4, 7, 8, 9, 11, 12, 13, 14, 15, 16, 17, 19, 20, 21, 23, 24, 25, 26, 29]",151.2613189,6055,2131,27,210,9,1.0978295127671733
undo,34,0,0,0,0,4,"[0, 28, 5, 4]",4,16,"[3, 7, 8, 9, 11, 12, 13, 14, 15, 17, 19, 20, 21, 23, 24, 26]",126.1814465,9145,3090,17,114,9,1.1103727063761901
undo,34,0,0,0,0,24,"[0, 28, 5, 4, 24]",5,12,"[3, 7, 8, 9, 11, 12, 15, 17, 19, 20, 23, 26]",114.7796922,10346,1201,10,46,9,1.1102188371994124
undo,34,0,0,0,0,15,"[0, 28, 5, 4, 24, 15]",6,9,"[3, 7, 8, 9, 11, 12, 17, 19, 26]",91.43445718,11659,1313,6,13,9,1.1033515194628531
undo,34,0,0,0,0,7,"[0, 28, 5, 4, 24, 15, 7]",7,5,"[3, 8, 17, 19, 26]",60.37000804,13176,1517,5,3,9,1.1688711639523348
undo,34,0,0,0,0,8,"[0, 28, 5, 4, 24, 15, 7, 8]",8,2,"[3, 19]",41.26503487,14390,1214,2,0,9,1.1630446712274667
undo,34,0,0,0,1,3,"[0, 28, 5, 4, 24, 15, 7, 8, 3]",9,0,[],10.85122222,16083,1693,1,0,9,1.3339567387509852
undo,34,0,0,1,1,3,"[0, 28, 5, 4, 24, 15, 7, 8, 3]",9,0,[],10.85122222,18473,2390,1,0,9,1.3339567387509852
undo,35,11,0,0,0,0,[0],1,25,"[1, 2, 3, 4, 5, 6, 8, 9, 10, 11, 12, 13, 14, 15, 16, 17, 18, 19, 20, 22, 23, 25, 26, 27, 28]",300,231,-1,6,374,12,0.0
undo,35,11,0,0,0,18,"[0, 18]",2,21,"[1, 2, 4, 5, 6, 8, 9, 11, 12, 13, 14, 15, 16, 17, 19, 20, 22, 23, 25, 27, 28]",236.8493864,5031,4800,157,1477,11,1.0
undo,35,11,0,0,0,27,"[0, 18, 27]",3,19,"[1, 2, 4, 5, 6, 8, 9, 11, 12, 14, 15, 16, 17, 19, 20, 22, 23, 25, 28]",212.9956655,6424,1393,157,1315,11,1.060949579704323
undo,35,11,0,0,0,8,"[0, 18, 27, 8]",4,14,"[1, 2, 4, 5, 6, 11, 12, 15, 17, 19, 22, 23, 25, 28]",142.7817068,8062,1638,68,433,11,1.0827202875589923
undo,35,11,0,0,0,17,"[0, 18, 27, 8, 17]",5,13,"[1, 2, 4, 5, 6, 11, 12, 15, 19, 22, 23, 25, 28]",128.4638857,9480,1418,42,137,11,1.1662918234607762
undo,35,11,0,0,0,15,"[0, 18, 27, 8, 17, 15]",6,9,"[2, 5, 6, 11, 12, 19, 22, 25, 28]",115.8147751,11015,1535,38,57,11,1.1741312027420885
undo,35,11,0,0,0,11,"[0, 18, 27, 8, 17, 15, 11]",7,7,"[2, 5, 6, 12, 19, 22, 28]",97.70400479,12605,1590,24,0,11,1.1668679039564056
undo,35,11,0,0,0,28,"[0, 18, 27, 8, 17, 15, 11, 28]",8,4,"[2, 5, 19, 22]",78.28751696,14151,1546,6,0,11,1.2830334294205898
undo,35,11,0,0,0,2,"[0, 18, 27, 8, 17, 15, 11, 28, 2]",9,2,"[5, 22]",67.65737114,16464,2313,2,0,11,1.3017261967352185
undo,35,11,0,0,0,22,"[0, 18, 27, 8, 17, 15, 11, 28, 2, 22]",10,1,[5],57.60749552,17557,1093,1,0,11,1.2856712331893108
undo,35,11,0,0,1,5,"[0, 18, 27, 8, 17, 15, 11, 28, 2, 22, 5]",11,0,[],31.03683501,18987,1430,1,0,11,1.653194834588669
undo,35,11,1,0,0,22,"[0, 18, 27, 8, 17, 15, 11, 28, 2, 22]",10,1,[5],57.60749552,28309,9322,1,0,11,1.2856712331893108
undo,35,11,1,0,0,2,"[0, 18, 27, 8, 17, 15, 11, 28, 2]",9,2,"[5, 22]",67.65737114,28643,334,2,0,11,1.3017261967352185
undo,35,11,1,0,0,28,"[0, 18, 27, 8, 17, 15, 11, 28]",8,4,"[2, 5, 19, 22]",78.28751696,28894,251,6,0,11,1.2830334294205898
undo,35,11,1,0,0,11,"[0, 18, 27, 8, 17, 15, 11]",7,7,"[2, 5, 6, 12, 19, 22, 28]",97.70400479,29093,199,24,0,11,1.1668679039564056
undo,35,11,1,0,0,15,"[0, 18, 27, 8, 17, 15]",6,9,"[2, 5, 6, 11, 12, 19, 22, 25, 28]",115.8147751,29293,200,38,57,11,1.1741312027420885
undo,35,11,1,0,0,17,"[0, 18, 27, 8, 17]",5,13,"[1, 2, 4, 5, 6, 11, 12, 15, 19, 22, 23, 25, 28]",128.4638857,29513,220,42,137,11,1.1662918234607762
undo,35,11,1,0,0,8,"[0, 18, 27, 8]",4,14,"[1, 2, 4, 5, 6, 11, 12, 15, 17, 19, 22, 23, 25, 28]",142.7817068,29743,230,68,433,11,1.0827202875589923
undo,35,11,1,0,0,27,"[0, 18, 27]",3,19,"[1, 2, 4, 5, 6, 8, 9, 11, 12, 14, 15, 16, 17, 19, 20, 22, 23, 25, 28]",212.9956655,29961,218,157,1315,11,1.060949579704323
undo,35,11,1,0,0,18,"[0, 18]",2,21,"[1, 2, 4, 5, 6, 8, 9, 11, 12, 13, 14, 15, 16, 17, 19, 20, 22, 23, 25, 27, 28]",236.8493864,30160,199,157,1477,11,1.0
undo,35,11,1,0,0,0,[0],1,25,"[1, 2, 3, 4, 5, 6, 8, 9, 10, 11, 12, 13, 14, 15, 16, 17, 18, 19, 20, 22, 23, 25, 26, 27, 28]",300,30361,201,6,374,12,0.0
undo,35,11,0,0,0,1,"[0, 1]",2,24,"[2, 3, 4, 5, 6, 8, 9, 10, 11, 12, 13, 14, 15, 16, 17, 18, 19, 20, 22, 23, 25, 26, 27, 28]",264.6446609,33434,3073,6,217,12,1.0
undo,35,11,0,0,0,18,"[0, 1, 18]",3,19,"[2, 4, 5, 6, 8, 9, 11, 12, 14, 15, 16, 17, 19, 20, 22, 23, 25, 27, 28]",212.3187591,34728,1294,6,161,12,1.3884463804898786
undo,35,11,0,0,0,27,"[0, 1, 18, 27]",4,18,"[2, 4, 5, 6, 8, 9, 11, 12, 14, 15, 16, 17, 19, 20, 22, 23, 25, 28]",188.4650382,36224,1496,6,155,12,1.3600813284083875
undo,35,11,0,0,0,8,"[0, 1, 18, 27, 8]",5,11,"[2, 5, 6, 11, 12, 15, 17, 19, 22, 25, 28]",118.2510795,39399,3175,4,75,12,1.2516561493067806
undo,35,11,0,0,0,17,"[0, 1, 18, 27, 8, 17]",6,10,"[2, 5, 6, 11, 12, 15, 19, 22, 25, 28]",103.9332585,40803,1404,4,40,12,1.3330781007673067
undo,35,11,0,0,0,15,"[0, 1, 18, 27, 8, 17, 15]",7,7,"[2, 5, 11, 12, 19, 22, 28]",91.28414782,42183,1380,4,35,12,1.3305073448996472
undo,35,11,0,0,0,11,"[0, 1, 18, 27, 8, 17, 15, 11]",8,5,"[2, 5, 19, 22, 28]",73.17337754,43710,1527,4,17,12,1.308363545391271
undo,35,11,0,0,0,28,"[0, 1, 18, 27, 8, 17, 15, 11, 28]",9,3,"[2, 5, 22]",53.7568897,44936,1226,3,3,12,1.4249903205603536
undo,35,11,0,0,0,22,"[0, 1, 18, 27, 8, 17, 15, 11, 28, 22]",10,2,"[2, 5]",35.37211339,46524,1588,1,1,12,1.4036096621223366
undo,35,11,0,0,0,2,"[0, 1, 18, 27, 8, 17, 15, 11, 28, 22, 2]",11,1,[5],25.32223777,48296,1772,1,0,12,1.5389136316041532
undo,35,11,0,0,1,5,"[0, 1, 18, 27, 8, 17, 15, 11, 28, 22, 2, 5]",12,0,[],8.322237772,49365,1069,1,0,12,1.792811182518765
undo,35,11,0,1,1,5,"[0, 1, 18, 27, 8, 17, 15, 11, 28, 22, 2, 5]",12,0,[],8.322237772,55024,5659,1,0,12,1.792811182518765
undo,36,36,0,0,0,0,[0],1,24,"[2, 4, 5, 6, 7, 8, 9, 10, 12, 13, 14, 15, 16, 17, 18, 19, 20, 22, 23, 25, 26, 27, 28, 29]",300,196,-1,2,200,10,0.0
undo,36,36,0,0,0,12,"[0, 12]",2,23,"[2, 4, 5, 6, 7, 8, 9, 10, 13, 14, 15, 16, 17, 18, 19, 20, 22, 23, 25, 26, 27, 28, 29]",277.7963967,3983,3787,90,804,9,1.0
undo,36,36,0,0,0,9,"[0, 12, 9]",3,14,"[2, 4, 8, 10, 13, 16, 17, 18, 19, 23, 25, 27, 28, 29]",215.4345494,5744,1761,32,191,9,1.224429481246385
undo,36,36,0,0,0,19,"[0, 12, 9, 19]",4,13,"[2, 4, 8, 10, 13, 16, 17, 18, 23, 25, 27, 28, 29]",200.3018034,8304,2560,14,61,9,1.293473472808712
undo,36,36,0,0,0,17,"[0, 12, 9, 19, 17]",5,8,"[2, 10, 13, 16, 18, 23, 25, 27]",172.4091521,9662,1358,5,15,9,1.3499598639024968
undo,36,36,0,0,0,2,"[0, 12, 9, 19, 17, 2]",6,6,"[10, 13, 16, 18, 25, 27]",131.1780958,11458,1796,2,3,9,1.4949360491624875
undo,36,36,0,0,0,13,"[0, 12, 9, 19, 17, 2, 13]",7,2,"[10, 25]",92.85056002,12795,1337,1,1,9,2.1120112514866483
undo,36,36,0,0,0,25,"[0, 12, 9, 19, 17, 2, 13, 25]",8,1,[10],72.25929973,14189,1394,1,0,9,1.989172448728475
undo,36,36,0,0,1,10,"[0, 12, 9, 19, 17, 2, 13, 25, 10]",9,0,[],9.187911609,15516,1327,1,0,9,1.6720519462286751
undo,36,36,0,1,1,10,"[0, 12, 9, 19, 17, 2, 13, 25, 10]",9,0,[],9.187911609,20342,4826,1,0,9,1.6720519462286751
undo,37,41,0,0,0,0,[0],1,29,"[1, 2, 3, 4, 5, 6, 7, 8, 9, 10, 11, 12, 13, 14, 15, 16, 17, 18, 19, 20, 21, 22, 23, 24, 25, 26, 27, 28, 29]",300,200,-1,1,143,10,0.0
undo,37,41,0,0,0,13,"[0, 13]",2,23,"[1, 2, 3, 5, 6, 7, 9, 10, 11, 12, 14, 15, 17, 18, 19, 20, 21, 22, 24, 25, 26, 27, 28]",258.2747079,4341,4141,1,55,10,1.0
undo,37,41,0,0,0,28,"[0, 13, 28]",3,22,"[1, 2, 3, 5, 6, 7, 9, 10, 11, 12, 14, 15, 17, 18, 19, 20, 21, 22, 24, 25, 26, 27]",223.7928286,5611,1270,1,39,10,1.895724242592676
undo,37,41,0,0,0,5,"[0, 13, 28, 5]",4,19,"[1, 2, 3, 6, 9, 10, 11, 12, 14, 15, 17, 18, 19, 20, 21, 22, 24, 25, 27]",210.1913581,6859,1248,1,34,10,2.861541269398273
undo,37,41,0,0,0,22,"[0, 13, 28, 5, 22]",5,12,"[2, 3, 6, 9, 10, 11, 12, 17, 18, 20, 21, 25]",155.4464953,9551,2692,11,12,9,2.096079268852861
undo,37,41,0,0,0,3,"[0, 13, 28, 5, 22, 3]",6,8,"[2, 9, 10, 12, 17, 18, 20, 21]",125.4798472,10889,1338,7,5,9,4.404491319005463
undo,37,41,0,0,0,21,"[0, 13, 28, 5, 22, 3, 21]",7,4,"[2, 9, 12, 17]",93.33952984,13996,3107,5,1,9,4.228139797553632
undo,37,41,0,0,0,9,"[0, 13, 28, 5, 22, 3, 21, 9]",8,2,"[2, 17]",43.97354965,16947,2951,2,0,9,3.111188754077749
undo,37,41,0,0,1,2,"[0, 13, 28, 5, 22, 3, 21, 9, 2]",9,0,[],31.89050368,18450,1503,1,0,9,2.963304814480547
undo,37,41,0,1,1,2,"[0, 13, 28, 5, 22, 3, 21, 9, 2]",9,0,[],31.89050368,21923,3473,1,0,9,2.963304814480547
undo,38,10,0,0,0,0,[0],1,29,"[1, 2, 3, 4, 5, 6, 7, 8, 9, 10, 11, 12, 13, 14, 15, 16, 17, 18, 19, 20, 21, 22, 23, 24, 25, 26, 27, 28, 29]",300,277,-1,1,100,9,0.0
undo,38,10,0,0,0,13,"[0, 13]",2,25,"[1, 2, 3, 4, 6, 7, 8, 9, 10, 11, 12, 14, 17, 18, 19, 20, 21, 22, 23, 24, 25, 26, 27, 28, 29]",249.4628849,4071,3794,1,79,9,1.0
undo,38,10,0,0,0,11,"[0, 13, 11]",3,20,"[1, 2, 3, 6, 7, 8, 9, 10, 12, 14, 18, 19, 20, 21, 22, 24, 26, 27, 28, 29]",206.4512586,5375,1304,1,54,9,1.0313137484914219
undo,38,10,0,0,0,19,"[0, 13, 11, 19]",4,11,"[2, 6, 8, 9, 10, 14, 18, 20, 24, 26, 27]",170.0919407,6695,1320,1,22,9,1.0879446220132545
undo,38,10,0,0,0,2,"[0, 13, 11, 19, 2]",5,4,"[14, 20, 26, 27]",126.1829439,8285,1590,1,4,9,1.06474052351343
undo,38,10,0,0,0,14,"[0, 13, 11, 19, 2, 14]",6,3,"[20, 26, 27]",114.0174188,11096,2811,1,3,9,1.1628909195912238
undo,38,10,0,0,0,26,"[0, 13, 11, 19, 2, 14, 26]",7,2,"[20, 27]",79.34754716,12877,1781,1,1,9,1.6660727647633602
undo,38,10,0,0,0,20,"[0, 13, 11, 19, 2, 14, 26, 20]",8,1,[27],47.56704999,14070,1193,1,0,9,2.085581809637999
undo,38,10,0,0,1,27,"[0, 13, 11, 19, 2, 14, 26, 20, 27]",9,0,[],2.312215998,18700,4630,1,0,9,1.9116357409137932
undo,38,10,0,1,1,27,"[0, 13, 11, 19, 2, 14, 26, 20, 27]",9,0,[],2.312215998,22173,3473,1,0,9,1.9116357409137932
undo,39,20,0,0,0,0,[0],1,21,"[1, 2, 3, 4, 5, 6, 7, 8, 9, 12, 17, 18, 20, 21, 22, 23, 25, 26, 27, 28, 29]",300,237,-1,1,9,9,0.0
undo,39,20,0,0,0,12,"[0, 12]",2,20,"[1, 2, 3, 4, 5, 6, 7, 8, 9, 17, 18, 20, 21, 22, 23, 25, 26, 27, 28, 29]",271.5570747,6246,6009,1,8,9,1.0
undo,39,20,0,0,0,1,"[0, 12, 1]",3,12,"[3, 4, 5, 6, 8, 9, 20, 21, 23, 27, 28, 29]",189.5692707,7992,1746,1,6,9,1.0757997779162911
undo,39,20,0,0,0,5,"[0, 12, 1, 5]",4,10,"[4, 6, 8, 9, 20, 21, 23, 27, 28, 29]",152.8950291,9864,1872,1,5,9,1.1708231454516806
undo,39,20,0,0,0,21,"[0, 12, 1, 5, 21]",5,8,"[4, 6, 8, 9, 20, 23, 27, 28]",107.8950291,11689,1825,1,4,9,1.126197336199212
undo,39,20,0,0,0,8,"[0, 12, 1, 5, 21, 8]",6,5,"[6, 9, 23, 27, 28]",90.43077988,13112,1423,1,3,9,1.140007470699913
undo,39,20,0,0,1,27,"[0, 12, 1, 5, 21, 8, 27]",7,0,[],50.20640916,14470,1358,1,0,7,1.3128859656095468
undo,39,20,1,0,0,8,"[0, 12, 1, 5, 21, 8]",6,5,"[6, 9, 23, 27, 28]",90.43077988,21441,6971,1,3,9,1.140007470699913
undo,39,20,0,0,0,23,"[0, 12, 1, 5, 21, 8, 23]",7,2,"[6, 9]",45.74297394,23448,2007,1,1,9,1.1162257896627588
undo,39,20,0,0,0,9,"[0, 12, 1, 5, 21, 8, 23, 9]",8,1,[6],26.53360123,24754,1306,1,0,9,1.1086880559449597
undo,39,20,0,0,1,6,"[0, 12, 1, 5, 21, 8, 23, 9, 6]",9,0,[],3.511872362,26521,1767,1,0,9,1.1186240265999328
undo,39,20,0,1,1,6,"[0, 12, 1, 5, 21, 8, 23, 9, 6]",9,0,[],3.511872362,33293,6772,1,0,9,1.1186240265999328
undo,40,39,0,0,0,0,[0],1,28,"[1, 2, 3, 4, 5, 6, 7, 9, 10, 11, 12, 13, 14, 15, 16, 17, 18, 19, 20, 21, 22, 23, 24, 25, 26, 27, 28, 29]",300,259,-1,1,30,10,0.0
undo,40,39,0,0,0,12,"[0, 12]",2,19,"[1, 2, 4, 5, 7, 9, 10, 13, 14, 15, 16, 18, 19, 22, 23, 24, 26, 28, 29]",182.8291845,7910,7651,6,54,8,1.0
undo,40,39,0,0,0,10,"[0, 12, 10]",3,17,"[1, 2, 4, 5, 7, 9, 13, 14, 15, 16, 18, 19, 22, 23, 24, 26, 29]",147.3186227,9133,1223,6,33,8,1.2848981996421716
undo,40,39,0,0,0,7,"[0, 12, 10, 7]",4,11,"[1, 2, 5, 13, 16, 18, 19, 22, 24, 26, 29]",113.8970728,10353,1220,4,12,8,1.2230650844371145
undo,40,39,0,0,0,26,"[0, 12, 10, 7, 26]",5,5,"[1, 16, 18, 19, 22]",95.21553109,11506,1153,3,4,8,1.267826942248286
undo,40,39,0,0,0,22,"[0, 12, 10, 7, 26, 22]",6,2,"[16, 19]",77.49548594,13521,2015,2,0,8,1.4369791316286633
undo,40,39,0,0,0,16,"[0, 12, 10, 7, 26, 22, 16]",7,1,[19],42.49548594,15134,1613,1,0,8,1.3564710572873173
undo,40,39,0,0,1,19,"[0, 12, 10, 7, 26, 22, 16, 19]",8,0,[],25.03123674,16329,1195,1,0,8,1.3631370290830482
undo,40,39,1,0,0,16,"[0, 12, 10, 7, 26, 22, 16]",7,1,[19],42.49548594,25439,9110,1,0,8,1.3564710572873173
undo,40,39,1,0,0,22,"[0, 12, 10, 7, 26, 22]",6,2,"[16, 19]",77.49548594,25806,367,2,0,8,1.4369791316286633
undo,40,39,1,0,0,26,"[0, 12, 10, 7, 26]",5,5,"[1, 16, 18, 19, 22]",95.21553109,26088,282,3,4,8,1.267826942248286
undo,40,39,1,0,0,7,"[0, 12, 10, 7]",4,11,"[1, 2, 5, 13, 16, 18, 19, 22, 24, 26, 29]",113.8970728,26438,350,4,12,8,1.2230650844371145
undo,40,39,1,0,0,10,"[0, 12, 10]",3,17,"[1, 2, 4, 5, 7, 9, 13, 14, 15, 16, 18, 19, 22, 23, 24, 26, 29]",147.3186227,26776,338,6,33,8,1.2848981996421716
undo,40,39,1,0,0,12,"[0, 12]",2,19,"[1, 2, 4, 5, 7, 9, 10, 13, 14, 15, 16, 18, 19, 22, 23, 24, 26, 28, 29]",182.8291845,27157,381,6,54,8,1.0
undo,40,39,1,0,0,0,[0],1,28,"[1, 2, 3, 4, 5, 6, 7, 9, 10, 11, 12, 13, 14, 15, 16, 17, 18, 19, 20, 21, 22, 23, 24, 25, 26, 27, 28, 29]",300,27606,449,1,30,10,0.0
undo,40,39,0,0,0,29,"[0, 29]",2,26,"[1, 2, 3, 4, 5, 6, 7, 9, 10, 12, 13, 14, 15, 16, 17, 18, 19, 20, 21, 22, 23, 24, 25, 26, 27, 28]",243.0614366,29749,2143,8,104,9,1.0
undo,40,39,0,0,0,12,"[0, 29, 12]",3,18,"[1, 2, 4, 5, 7, 9, 10, 13, 14, 15, 16, 18, 19, 22, 23, 24, 26, 28]",182.5221931,31503,1754,5,54,9,1.0026200331524904
undo,40,39,0,0,0,10,"[0, 29, 12, 10]",4,16,"[1, 2, 4, 5, 7, 9, 13, 14, 15, 16, 18, 19, 22, 23, 24, 26]",147.0116313,33350,1847,5,34,9,1.2874817019928908
undo,40,39,0,0,0,7,"[0, 29, 12, 10, 7]",5,10,"[1, 2, 5, 13, 16, 18, 19, 22, 24, 26]",113.5900814,34654,1304,4,12,9,1.2250826263866774
undo,40,39,0,0,0,26,"[0, 29, 12, 10, 7, 26]",6,5,"[1, 16, 18, 19, 22]",94.90853971,35870,1216,3,4,9,1.2697275353190085
undo,40,39,0,0,0,22,"[0, 29, 12, 10, 7, 26, 22]",7,2,"[16, 19]",77.18849457,37531,1661,2,0,9,1.438961743955176
undo,40,39,0,0,0,16,"[0, 29, 12, 10, 7, 26, 22, 16]",8,1,[19],42.18849457,39467,1936,1,0,9,1.3580882130477205
undo,40,39,0,0,1,19,"[0, 29, 12, 10, 7, 26, 22, 16, 19]",9,0,[],24.72424537,40650,1183,1,0,9,1.3646589157842668
undo,40,39,0,1,1,19,"[0, 29, 12, 10, 7, 26, 22, 16, 19]",9,0,[],24.72424537,48936,8286,1,0,9,1.3646589157842668
undo,41,42,0,0,0,0,[0],1,29,"[1, 2, 3, 4, 5, 6, 7, 8, 9, 10, 11, 12, 13, 14, 15, 16, 17, 18, 19, 20, 21, 22, 23, 24, 25, 26, 27, 28, 29]",300,195,-1,16,302,9,0.0
undo,41,42,0,0,0,5,"[0, 5]",2,28,"[1, 2, 3, 4, 6, 7, 8, 9, 10, 11, 12, 13, 14, 15, 16, 17, 18, 19, 20, 21, 22, 23, 24, 25, 26, 27, 28, 29]",191.2939744,3260,3065,1,22,9,1.0
undo,41,42,0,0,0,4,"[0, 5, 4]",3,23,"[1, 2, 3, 6, 7, 8, 9, 10, 11, 13, 15, 17, 18, 19, 20, 21, 22, 23, 24, 25, 26, 27, 29]",171.4445412,5458,2198,1,14,9,1.420957801478707
undo,41,42,0,0,0,22,"[0, 5, 4, 22]",4,20,"[1, 2, 3, 6, 7, 8, 9, 11, 15, 17, 18, 19, 20, 21, 23, 24, 25, 26, 27, 29]",160.2642013,7699,2241,1,11,9,1.5771494659680896
undo,41,42,1,0,0,4,"[0, 5, 4]",3,23,"[1, 2, 3, 6, 7, 8, 9, 10, 11, 13, 15, 17, 18, 19, 20, 21, 22, 23, 24, 25, 26, 27, 29]",171.4445412,9665,1966,1,14,9,1.420957801478707
undo,41,42,1,0,0,5,"[0, 5]",2,28,"[1, 2, 3, 4, 6, 7, 8, 9, 10, 11, 12, 13, 14, 15, 16, 17, 18, 19, 20, 21, 22, 23, 24, 25, 26, 27, 28, 29]",191.2939744,10065,400,1,22,9,1.0
undo,41,42,1,0,0,0,[0],1,29,"[1, 2, 3, 4, 5, 6, 7, 8, 9, 10, 11, 12, 13, 14, 15, 16, 17, 18, 19, 20, 21, 22, 23, 24, 25, 26, 27, 28, 29]",300,10568,503,16,302,9,0.0
undo,41,42,0,0,0,4,"[0, 4]",2,28,"[1, 2, 3, 5, 6, 7, 8, 9, 10, 11, 12, 13, 14, 15, 16, 17, 18, 19, 20, 21, 22, 23, 24, 25, 26, 27, 28, 29]",209.5290102,12077,1509,4,80,9,1.0
undo,41,42,0,0,0,22,"[0, 4, 22]",3,24,"[1, 2, 3, 5, 6, 7, 8, 9, 10, 11, 13, 15, 17, 18, 19, 20, 21, 23, 24, 25, 26, 27, 28, 29]",198.3486703,12965,888,3,53,9,1.1473032812120834
undo,41,42,0,0,0,8,"[0, 4, 22, 8]",4,21,"[1, 2, 3, 5, 6, 7, 10, 11, 15, 17, 18, 19, 20, 21, 23, 24, 25, 26, 27, 28, 29]",176.2127267,14362,1397,2,36,9,1.1513227322639639
undo,41,42,0,0,0,1,"[0, 4, 22, 8, 1]",5,12,"[2, 5, 6, 7, 10, 15, 18, 19, 24, 26, 27, 28]",127.1209758,17421,3059,2,24,9,1.1101621876186907
undo,41,42,0,0,0,7,"[0, 4, 22, 8, 1, 7]",6,5,"[2, 19, 26, 27, 28]",97.12097583,18813,1392,2,10,9,1.1711274205343067
undo,41,42,0,0,0,26,"[0, 4, 22, 8, 1, 7, 26]",7,3,"[2, 19, 27]",70.55031532,21394,2581,2,1,9,1.1588367913131314
undo,41,42,0,0,0,27,"[0, 4, 22, 8, 1, 7, 26, 27]",8,1,[19],52.52255894,22310,916,1,0,9,1.160587570992885
undo,41,42,0,0,1,19,"[0, 4, 22, 8, 1, 7, 26, 27, 19]",9,0,[],11.51036563,23983,1673,1,0,9,1.3341568614108437
undo,41,42,0,1,1,19,"[0, 4, 22, 8, 1, 7, 26, 27, 19]",9,0,[],11.51036563,26306,2323,1,0,9,1.3341568614108437
undo,42,5,0,0,0,0,[0],1,29,"[1, 2, 3, 4, 5, 6, 7, 8, 9, 10, 11, 12, 13, 14, 15, 16, 17, 18, 19, 20, 21, 22, 23, 24, 25, 26, 27, 28, 29]",300,193,-1,5,139,9,0.0
undo,42,5,0,0,0,12,"[0, 12]",2,22,"[2, 4, 5, 6, 8, 9, 10, 13, 14, 15, 16, 17, 18, 19, 21, 22, 23, 24, 25, 26, 27, 28]",228.3062067,2821,2628,1,27,9,1.0
undo,42,5,0,0,0,25,"[0, 12, 25]",3,21,"[2, 4, 5, 6, 8, 9, 10, 13, 14, 15, 16, 17, 18, 19, 21, 22, 23, 24, 26, 27, 28]",200.5213187,4054,1233,1,20,9,1.584023303445617
undo,42,5,0,0,0,23,"[0, 12, 25, 23]",4,19,"[2, 4, 5, 6, 8, 9, 10, 13, 14, 15, 16, 17, 18, 19, 21, 22, 24, 26, 27]",182.0822298,5540,1486,1,14,9,2.3508446989254357
undo,42,5,0,0,0,24,"[0, 12, 25, 23, 24]",5,15,"[2, 4, 5, 6, 8, 9, 13, 14, 15, 17, 18, 19, 22, 26, 27]",158.995437,6376,836,1,12,9,1.9469752046288753
undo,42,5,0,0,0,17,"[0, 12, 25, 23, 24, 17]",6,7,"[4, 5, 6, 8, 15, 18, 19]",124.0097257,8026,1650,1,8,9,1.6482276497563642
undo,42,5,0,0,0,5,"[0, 12, 25, 23, 24, 17, 5]",7,4,"[4, 6, 15, 18]",80.96323916,9582,1556,1,3,9,1.4654649104389412
undo,42,5,0,0,1,18,"[0, 12, 25, 23, 24, 17, 5, 18]",8,0,[],13.89610861,11378,1796,1,0,8,1.4108688678336447
undo,42,5,0,1,1,18,"[0, 12, 25, 23, 24, 17, 5, 18]",8,0,[],13.89610861,23520,12142,1,0,8,1.4108688678336447
undo,43,35,0,0,0,0,[0],1,29,"[1, 2, 3, 4, 5, 6, 7, 8, 9, 10, 11, 12, 13, 14, 15, 16, 17, 18, 19, 20, 21, 22, 23, 24, 25, 26, 27, 28, 29]",300,179,-1,5,236,11,0.0
undo,43,35,0,0,0,24,"[0, 24]",2,27,"[1, 2, 4, 5, 6, 7, 8, 9, 10, 11, 12, 13, 14, 15, 16, 17, 18, 19, 20, 21, 22, 23, 25, 26, 27, 28, 29]",268.9838752,3709,3530,49,512,10,1.0
undo,43,35,0,0,0,17,"[0, 24, 17]",3,26,"[1, 2, 4, 5, 6, 7, 8, 9, 10, 11, 12, 13, 14, 15, 16, 18, 19, 20, 21, 22, 23, 25, 26, 27, 28, 29]",257.2791753,5142,1433,33,238,10,1.0771477201815276
undo,43,35,0,0,0,1,"[0, 24, 17, 1]",4,25,"[2, 4, 5, 6, 7, 8, 9, 10, 11, 12, 13, 14, 15, 16, 18, 19, 20, 21, 22, 23, 25, 26, 27, 28, 29]",241.4677869,6469,1327,26,151,10,1.2244804141479215
undo,43,35,0,0,0,15,"[0, 24, 17, 1, 15]",5,23,"[2, 4, 5, 6, 7, 8, 9, 10, 11, 12, 14, 16, 18, 19, 20, 21, 22, 23, 25, 26, 27, 28, 29]",218.6204676,9129,2660,26,78,10,1.4642196672428094
undo,43,35,0,0,0,23,"[0, 24, 17, 1, 15, 23]",6,11,"[4, 5, 6, 9, 18, 19, 25, 26, 27, 28, 29]",158.1804147,10644,1515,15,12,10,1.3338903684702363
undo,43,35,0,0,0,6,"[0, 24, 17, 1, 15, 23, 6]",7,4,"[5, 9, 18, 25]",112.5295658,12044,1400,4,2,10,1.2397059724630664
undo,43,35,0,0,0,25,"[0, 24, 17, 1, 15, 23, 6, 25]",8,2,"[9, 18]",88.50874155,13328,1284,2,0,10,1.305974427386027
undo,43,35,0,0,0,18,"[0, 24, 17, 1, 15, 23, 6, 25, 18]",9,1,[9],54.67089291,14539,1211,1,0,10,1.9072277988119046
undo,43,35,0,0,1,9,"[0, 24, 17, 1, 15, 23, 6, 25, 18, 9]",10,0,[],34.64590852,15850,1311,1,0,10,2.3604988633102257
undo,43,35,1,0,0,18,"[0, 24, 17, 1, 15, 23, 6, 25, 18]",9,1,[9],54.67089291,23822,7972,1,0,10,1.9072277988119046
undo,43,35,1,0,0,25,"[0, 24, 17, 1, 15, 23, 6, 25]",8,2,"[9, 18]",88.50874155,24089,267,2,0,10,1.305974427386027
undo,43,35,1,0,0,6,"[0, 24, 17, 1, 15, 23, 6]",7,4,"[5, 9, 18, 25]",112.5295658,24279,190,4,2,10,1.2397059724630664
undo,43,35,1,0,0,23,"[0, 24, 17, 1, 15, 23]",6,11,"[4, 5, 6, 9, 18, 19, 25, 26, 27, 28, 29]",158.1804147,24461,182,15,12,10,1.3338903684702363
undo,43,35,1,0,0,15,"[0, 24, 17, 1, 15]",5,23,"[2, 4, 5, 6, 7, 8, 9, 10, 11, 12, 14, 16, 18, 19, 20, 21, 22, 23, 25, 26, 27, 28, 29]",218.6204676,24656,195,26,78,10,1.4642196672428094
undo,43,35,1,0,0,1,"[0, 24, 17, 1]",4,25,"[2, 4, 5, 6, 7, 8, 9, 10, 11, 12, 13, 14, 15, 16, 18, 19, 20, 21, 22, 23, 25, 26, 27, 28, 29]",241.4677869,24894,238,26,151,10,1.2244804141479215
undo,43,35,1,0,0,17,"[0, 24, 17]",3,26,"[1, 2, 4, 5, 6, 7, 8, 9, 10, 11, 12, 13, 14, 15, 16, 18, 19, 20, 21, 22, 23, 25, 26, 27, 28, 29]",257.2791753,25306,412,33,238,10,1.0771477201815276
undo,43,35,1,0,0,24,"[0, 24]",2,27,"[1, 2, 4, 5, 6, 7, 8, 9, 10, 11, 12, 13, 14, 15, 16, 17, 18, 19, 20, 21, 22, 23, 25, 26, 27, 28, 29]",268.9838752,25672,366,49,512,10,1.0
undo,43,35,1,0,0,0,[0],1,29,"[1, 2, 3, 4, 5, 6, 7, 8, 9, 10, 11, 12, 13, 14, 15, 16, 17, 18, 19, 20, 21, 22, 23, 24, 25, 26, 27, 28, 29]",300,26090,418,5,236,11,0.0
undo,43,35,0,0,0,17,"[0, 17]",2,27,"[1, 2, 4, 5, 6, 7, 8, 9, 10, 11, 12, 13, 14, 15, 16, 18, 19, 20, 21, 22, 23, 24, 25, 26, 27, 28, 29]",260.338936,34016,7926,26,321,10,1.0
undo,43,35,0,0,0,24,"[0, 17, 24]",3,26,"[1, 2, 4, 5, 6, 7, 8, 9, 10, 11, 12, 13, 14, 15, 16, 18, 19, 20, 21, 22, 23, 25, 26, 27, 28, 29]",248.6342361,35200,1184,21,180,10,1.656098695997355
undo,43,35,0,0,0,1,"[0, 17, 24, 1]",4,24,"[2, 4, 5, 6, 7, 8, 9, 10, 11, 12, 14, 15, 16, 18, 19, 20, 21, 22, 23, 25, 26, 27, 28, 29]",231.5169933,36650,1450,15,112,10,1.4326487239231158
undo,43,35,0,0,0,15,"[0, 17, 24, 1, 15]",5,20,"[2, 4, 5, 6, 8, 9, 10, 11, 12, 16, 18, 19, 20, 21, 23, 25, 26, 27, 28, 29]",208.669674,37990,1340,15,63,10,1.6432591291824301
undo,43,35,0,0,0,23,"[0, 17, 24, 1, 15, 23]",6,11,"[4, 5, 6, 9, 18, 19, 25, 26, 27, 28, 29]",148.229621,39850,1860,9,16,10,1.4274829977744787
undo,43,35,0,0,0,6,"[0, 17, 24, 1, 15, 23, 6]",7,4,"[5, 9, 18, 25]",102.5787722,41380,1530,2,3,10,1.3055086592136966
undo,43,35,0,0,0,25,"[0, 17, 24, 1, 15, 23, 6, 25]",8,2,"[9, 18]",78.55794789,43284,1904,2,0,10,1.3674213266451156
undo,43,35,0,0,0,18,"[0, 17, 24, 1, 15, 23, 6, 25, 18]",9,1,[9],44.72009926,44576,1292,1,0,10,1.9845868635174173
undo,43,35,0,0,1,9,"[0, 17, 24, 1, 15, 23, 6, 25, 18, 9]",10,0,[],24.69511486,45610,1034,1,0,10,2.4490177061607605
undo,43,35,0,1,1,9,"[0, 17, 24, 1, 15, 23, 6, 25, 18, 9]",10,0,[],24.69511486,48785,3175,1,0,10,2.4490177061607605
undo,44,19,0,0,0,0,[0],1,29,"[1, 2, 3, 4, 5, 6, 7, 8, 9, 10, 11, 12, 13, 14, 15, 16, 17, 18, 19, 20, 21, 22, 23, 24, 25, 26, 27, 28, 29]",300,267,-1,12,149,8,0.0
undo,44,19,0,0,0,29,"[0, 29]",2,28,"[1, 2, 3, 4, 5, 6, 7, 8, 9, 10, 11, 12, 13, 14, 15, 16, 17, 18, 19, 20, 21, 22, 23, 24, 25, 26, 27, 28]",265.0715016,8664,8397,12,120,8,1.0
undo,44,19,0,0,0,9,"[0, 29, 9]",3,17,"[1, 4, 5, 6, 7, 10, 11, 12, 13, 14, 19, 20, 21, 22, 24, 27, 28]",181.7108394,10401,1737,11,65,8,1.0375842971861238
undo,44,19,0,0,0,6,"[0, 29, 9, 6]",4,12,"[4, 7, 10, 11, 13, 14, 20, 21, 22, 24, 27, 28]",140.2741407,12166,1765,11,34,8,1.0389786364356892
undo,44,19,0,0,0,28,"[0, 29, 9, 6, 28]",5,5,"[4, 11, 14, 22, 27]",89.18598161,15736,3570,2,4,8,1.2864082671854424
undo,44,19,0,0,0,11,"[0, 29, 9, 6, 28, 11]",6,1,[14],24.64917041,17118,1382,1,0,7,1.2558442362068585
undo,44,19,0,0,1,14,"[0, 29, 9, 6, 28, 11, 14]",7,0,[],13.83251659,18178,1060,1,0,7,1.3684237862138533
undo,44,19,1,0,0,11,"[0, 29, 9, 6, 28, 11]",6,1,[14],24.64917041,23817,5639,1,0,7,1.2558442362068585
undo,44,19,1,0,0,28,"[0, 29, 9, 6, 28]",5,5,"[4, 11, 14, 22, 27]",89.18598161,24027,210,2,4,8,1.2864082671854424
undo,44,19,1,0,0,6,"[0, 29, 9, 6]",4,12,"[4, 7, 10, 11, 13, 14, 20, 21, 22, 24, 27, 28]",140.2741407,24227,200,11,34,8,1.0389786364356892
undo,44,19,1,0,0,9,"[0, 29, 9]",3,17,"[1, 4, 5, 6, 7, 10, 11, 12, 13, 14, 19, 20, 21, 22, 24, 27, 28]",181.7108394,24411,184,11,65,8,1.0375842971861238
undo,44,19,1,0,0,29,"[0, 29]",2,28,"[1, 2, 3, 4, 5, 6, 7, 8, 9, 10, 11, 12, 13, 14, 15, 16, 17, 18, 19, 20, 21, 22, 23, 24, 25, 26, 27, 28]",265.0715016,24596,185,12,120,8,1.0
undo,44,19,1,0,0,0,[0],1,29,"[1, 2, 3, 4, 5, 6, 7, 8, 9, 10, 11, 12, 13, 14, 15, 16, 17, 18, 19, 20, 21, 22, 23, 24, 25, 26, 27, 28, 29]",300,24766,170,12,149,8,0.0
undo,44,19,0,0,0,28,"[0, 28]",2,10,"[4, 6, 9, 10, 11, 14, 20, 22, 24, 27]",136.1219966,26653,1887,2,14,7,1.0
undo,44,19,0,0,0,4,"[0, 28, 4]",3,9,"[6, 9, 10, 11, 14, 20, 22, 24, 27]",124.9416567,28122,1469,2,10,7,1.0622089009735736
undo,44,19,0,0,0,14,"[0, 28, 4, 14]",4,5,"[6, 11, 20, 22, 24]",74.93165771,29324,1202,2,3,7,1.0762539106237072
undo,44,19,0,0,0,11,"[0, 28, 4, 14, 11]",5,3,"[20, 22, 24]",64.11500388,30499,1175,2,1,7,1.0758449982739315
undo,44,19,1,0,0,14,"[0, 28, 4, 14]",4,5,"[6, 11, 20, 22, 24]",74.93165771,36039,5540,2,3,7,1.0762539106237072
undo,44,19,1,0,0,4,"[0, 28, 4]",3,9,"[6, 9, 10, 11, 14, 20, 22, 24, 27]",124.9416567,36282,243,2,10,7,1.0622089009735736
undo,44,19,1,0,0,28,"[0, 28]",2,10,"[4, 6, 9, 10, 11, 14, 20, 22, 24, 27]",136.1219966,36482,200,2,14,7,1.0
undo,44,19,1,0,0,0,[0],1,29,"[1, 2, 3, 4, 5, 6, 7, 8, 9, 10, 11, 12, 13, 14, 15, 16, 17, 18, 19, 20, 21, 22, 23, 24, 25, 26, 27, 28, 29]",300,36698,216,12,149,8,0.0
undo,44,19,0,0,0,29,"[0, 29]",2,28,"[1, 2, 3, 4, 5, 6, 7, 8, 9, 10, 11, 12, 13, 14, 15, 16, 17, 18, 19, 20, 21, 22, 23, 24, 25, 26, 27, 28]",265.0715016,39812,3114,12,120,8,1.0
undo,44,19,0,0,0,9,"[0, 29, 9]",3,17,"[1, 4, 5, 6, 7, 10, 11, 12, 13, 14, 19, 20, 21, 22, 24, 27, 28]",181.7108394,41293,1481,11,65,8,1.0375842971861238
undo,44,19,0,0,0,6,"[0, 29, 9, 6]",4,12,"[4, 7, 10, 11, 13, 14, 20, 21, 22, 24, 27, 28]",140.2741407,42915,1622,11,34,8,1.0389786364356892
undo,44,19,0,0,0,22,"[0, 29, 9, 6, 22]",5,7,"[4, 7, 10, 11, 14, 20, 24]",79.27414071,44679,1764,2,4,8,1.0360889604738772
undo,44,19,0,0,0,20,"[0, 29, 9, 6, 22, 20]",6,4,"[10, 11, 14, 24]",66.12119427,45698,1019,2,2,8,1.0344974630090689
undo,44,19,0,0,1,24,"[0, 29, 9, 6, 22, 20, 24]",7,0,[],27.2882186,46908,1210,1,0,7,1.0508519843483526
undo,44,19,0,1,1,24,"[0, 29, 9, 6, 22, 20, 24]",7,0,[],27.2882186,49075,2167,1,0,7,1.0508519843483526
undo,45,30,0,0,0,0,[0],1,19,"[3, 4, 5, 7, 9, 11, 16, 17, 18, 19, 20, 21, 22, 24, 25, 26, 27, 28, 29]",300,245,-1,5,41,8,0.0
undo,45,30,0,0,0,25,"[0, 25]",2,12,"[3, 5, 7, 9, 11, 16, 18, 19, 20, 24, 27, 29]",121.1005869,6076,5831,7,37,7,1.0
undo,45,30,0,0,0,20,"[0, 25, 20]",3,9,"[3, 5, 7, 9, 11, 18, 19, 27, 29]",99.16887472,7950,1874,5,16,7,1.0037291321296267
undo,45,30,0,0,0,27,"[0, 25, 20, 27]",4,4,"[3, 5, 18, 29]",65.11010199,9260,1310,4,6,7,1.1217072851053165
undo,45,30,0,0,0,3,"[0, 25, 20, 27, 3]",5,3,"[5, 18, 29]",46.00512882,10088,828,4,0,7,1.1140018780928678
undo,45,30,0,0,0,29,"[0, 25, 20, 27, 3, 29]",6,1,[18],27.40405358,11061,973,1,0,7,1.119672312555708
undo,45,30,0,0,1,18,"[0, 25, 20, 27, 3, 29, 18]",7,0,[],8.090845662,12172,1111,1,0,7,1.1951451398733344
undo,45,30,0,1,1,18,"[0, 25, 20, 27, 3, 29, 18]",7,0,[],8.090845662,14385,2213,1,0,7,1.1951451398733344
undo,46,37,0,0,0,0,[0],1,29,"[1, 2, 3, 4, 5, 6, 7, 8, 9, 10, 11, 12, 13, 14, 15, 16, 17, 18, 19, 20, 21, 22, 23, 24, 25, 26, 27, 28, 29]",300,202,-1,6,168,10,0.0
undo,46,37,0,0,0,18,"[0, 18]",2,19,"[1, 2, 4, 6, 7, 9, 10, 12, 14, 15, 17, 19, 20, 21, 22, 23, 26, 28, 29]",202.4090168,7788,7586,6,89,10,1.0
undo,46,37,0,0,0,7,"[0, 18, 7]",3,12,"[1, 2, 4, 9, 15, 17, 19, 20, 21, 22, 26, 29]",175.2428614,8863,1075,6,53,10,1.0413073512834488
undo,46,37,0,0,0,22,"[0, 18, 7, 22]",4,8,"[1, 2, 4, 15, 19, 20, 21, 26]",125.2428614,12034,3171,6,29,10,1.0730792320325544
undo,46,37,0,0,0,4,"[0, 18, 7, 22, 4]",5,7,"[1, 2, 15, 19, 20, 21, 26]",100.2428614,13241,1207,4,16,10,1.2290245562206235
undo,46,37,0,0,0,2,"[0, 18, 7, 22, 4, 2]",6,5,"[1, 15, 19, 20, 21]",88.84110714,14468,1227,4,7,10,1.3968113858365216
undo,46,37,0,0,0,1,"[0, 18, 7, 22, 4, 2, 1]",7,4,"[15, 19, 20, 21]",71.63645661,15604,1136,4,3,10,1.4424239294761476
undo,46,37,0,0,0,15,"[0, 18, 7, 22, 4, 2, 1, 15]",8,2,"[20, 21]",31.67397421,17811,2207,2,0,10,1.612564167414217
undo,46,37,0,0,0,20,"[0, 18, 7, 22, 4, 2, 1, 15, 20]",9,1,[21],14.67397421,19387,1576,1,0,10,1.9034852470814607
undo,46,37,0,0,1,21,"[0, 18, 7, 22, 4, 2, 1, 15, 20, 21]",10,0,[],0.251769103,20731,1344,1,0,10,1.9314492588202221
undo,46,37,0,1,1,21,"[0, 18, 7, 22, 4, 2, 1, 15, 20, 21]",10,0,[],0.251769103,24540,3809,1,0,10,1.9314492588202221
undo,47,26,0,0,0,0,[0],1,29,"[1, 2, 3, 4, 5, 6, 7, 8, 9, 10, 11, 12, 13, 14, 15, 16, 17, 18, 19, 20, 21, 22, 23, 24, 25, 26, 27, 28, 29]",300,230,-1,9,226,9,0.0
undo,47,26,0,0,0,21,"[0, 21]",2,25,"[2, 3, 4, 5, 6, 7, 8, 10, 11, 12, 13, 14, 15, 16, 17, 18, 19, 22, 23, 24, 25, 26, 27, 28, 29]",211.1349337,3645,3415,7,90,9,1.0
undo,47,26,0,0,0,13,"[0, 21, 13]",3,21,"[3, 4, 5, 6, 7, 8, 10, 11, 12, 14, 15, 16, 17, 18, 19, 22, 23, 24, 25, 26, 29]",188.9989901,4937,1292,6,45,9,1.0103952279992225
undo,47,26,0,0,0,23,"[0, 21, 13, 23]",4,13,"[3, 4, 5, 6, 10, 11, 14, 16, 17, 18, 22, 26, 29]",150.9858345,8100,3163,3,17,9,1.1069410469330032
undo,47,26,0,0,0,16,"[0, 21, 13, 23, 16]",5,7,"[4, 5, 6, 10, 14, 17, 29]",97.75050789,9560,1460,3,13,9,1.8066634000662438
undo,47,26,0,0,0,29,"[0, 21, 13, 23, 16, 29]",6,5,"[4, 6, 10, 14, 17]",73.54307102,11385,1825,3,9,9,1.853342605492142
undo,47,26,0,0,0,4,"[0, 21, 13, 23, 16, 29, 4]",7,3,"[6, 14, 17]",49.54307102,12697,1312,2,2,9,2.0664369230924997
undo,47,26,0,0,0,17,"[0, 21, 13, 23, 16, 29, 4, 17]",8,2,"[6, 14]",28.44804791,14339,1642,2,0,9,1.911153301956092
undo,47,26,0,0,1,14,"[0, 21, 13, 23, 16, 29, 4, 17, 14]",9,0,[],5.975842855,15777,1438,1,0,9,1.8245133223656398
undo,47,26,0,1,1,14,"[0, 21, 13, 23, 16, 29, 4, 17, 14]",9,0,[],5.975842855,18150,2373,1,0,9,1.8245133223656398
undo,48,25,0,0,0,0,[0],1,28,"[1, 2, 3, 4, 5, 7, 8, 9, 10, 11, 12, 13, 14, 15, 16, 17, 18, 19, 20, 21, 22, 23, 24, 25, 26, 27, 28, 29]",300,241,-1,5,94,10,0.0
undo,48,25,0,0,0,23,"[0, 23]",2,23,"[1, 2, 3, 5, 7, 8, 9, 11, 12, 13, 14, 16, 17, 19, 20, 21, 22, 24, 25, 26, 27, 28, 29]",259.7756293,7762,7521,3,33,10,1.0
undo,48,25,0,0,0,7,"[0, 23, 7]",3,16,"[1, 3, 5, 8, 9, 11, 13, 17, 19, 21, 22, 24, 26, 27, 28, 29]",181.9424744,9183,1421,1,21,9,1.0073109045884563
undo,48,25,0,0,0,24,"[0, 23, 7, 24]",4,10,"[3, 5, 8, 9, 11, 13, 19, 22, 28, 29]",157.1836376,11304,2121,1,17,9,1.0161584555781231
undo,48,25,0,0,0,9,"[0, 23, 7, 24, 9]",5,8,"[3, 8, 11, 13, 19, 22, 28, 29]",139.1558812,13475,2171,1,16,9,1.0303325523073676
undo,48,25,0,0,0,8,"[0, 23, 7, 24, 9, 8]",6,3,"[3, 13, 28]",88.9065031,15097,1622,4,1,8,1.055612641218378
undo,48,25,0,0,0,3,"[0, 23, 7, 24, 9, 8, 3]",7,2,"[13, 28]",49.70191153,17309,2212,2,0,8,1.351837400410144
undo,48,25,0,0,1,28,"[0, 23, 7, 24, 9, 8, 3, 28]",8,0,[],18.39695985,18833,1524,1,0,8,1.3013490779110028
undo,48,25,1,0,0,3,"[0, 23, 7, 24, 9, 8, 3]",7,2,"[13, 28]",49.70191153,20955,2122,2,0,8,1.351837400410144
undo,48,25,1,0,0,8,"[0, 23, 7, 24, 9, 8]",6,3,"[3, 13, 28]",88.9065031,21273,318,4,1,8,1.055612641218378
undo,48,25,1,0,0,9,"[0, 23, 7, 24, 9]",5,8,"[3, 8, 11, 13, 19, 22, 28, 29]",139.1558812,21672,399,1,16,9,1.0303325523073676
undo,48,25,0,0,0,3,"[0, 23, 7, 24, 9, 3]",6,4,"[8, 11, 13, 28]",108.8903893,23116,1444,1,5,9,1.0321657704271587
undo,48,25,0,0,0,13,"[0, 23, 7, 24, 9, 3, 13]",7,2,"[8, 28]",77.6493906,24737,1621,1,1,9,1.1031543757060376
undo,48,25,0,0,0,28,"[0, 23, 7, 24, 9, 3, 13, 28]",8,1,[8],43.41490506,25830,1093,1,0,9,1.1857356956374323
undo,48,25,0,0,1,8,"[0, 23, 7, 24, 9, 3, 13, 28, 8]",9,0,[],2.807024055,27496,1666,1,0,9,1.486169242046657
undo,48,25,0,1,1,8,"[0, 23, 7, 24, 9, 3, 13, 28, 8]",9,0,[],2.807024055,30978,3482,1,0,9,1.486169242046657
undo,49,40,0,0,0,0,[0],1,29,"[1, 2, 3, 4, 5, 6, 7, 8, 9, 10, 11, 12, 13, 14, 15, 16, 17, 18, 19, 20, 21, 22, 23, 24, 25, 26, 27, 28, 29]",300,274,-1,8,191,9,0.0
undo,49,40,0,0,0,2,"[0, 2]",2,28,"[1, 3, 4, 5, 6, 7, 8, 9, 10, 11, 12, 13, 14, 15, 16, 17, 18, 19, 20, 21, 22, 23, 24, 25, 26, 27, 28, 29]",263.7646581,6410,6136,4,79,9,1.0
undo,49,40,0,0,0,19,"[0, 2, 19]",3,22,"[1, 5, 6, 7, 8, 9, 10, 11, 13, 14, 15, 17, 18, 20, 21, 22, 23, 24, 25, 26, 27, 29]",194.4249148,8170,1760,19,105,8,1.02908296307533
undo,49,40,0,0,0,23,"[0, 2, 19, 23]",4,15,"[1, 5, 6, 7, 8, 9, 10, 11, 13, 17, 18, 21, 22, 27, 29]",162.4718242,9705,1535,11,38,8,1.4499965171787688
undo,49,40,0,0,0,5,"[0, 2, 19, 23, 5]",5,10,"[1, 6, 7, 8, 9, 11, 18, 21, 22, 27]",134.1698808,11142,1437,4,12,8,1.3483906154476113
undo,49,40,0,0,0,18,"[0, 2, 19, 23, 5, 18]",6,5,"[1, 6, 9, 21, 22]",102.594574,12562,1420,3,3,8,1.6664768989460201
undo,49,40,0,0,0,9,"[0, 2, 19, 23, 5, 18, 9]",7,2,"[6, 21]",86.04162866,13746,1184,2,0,8,1.7348609689602368
undo,49,40,0,0,1,6,"[0, 2, 19, 23, 5, 18, 9, 6]",8,0,[],17.44133712,18159,4413,1,0,8,4.090330581792032
undo,49,40,1,0,0,9,"[0, 2, 19, 23, 5, 18, 9]",7,2,"[6, 21]",86.04162866,24724,6565,2,0,8,1.7348609689602368
undo,49,40,1,0,0,18,"[0, 2, 19, 23, 5, 18]",6,5,"[1, 6, 9, 21, 22]",102.594574,24991,267,3,3,8,1.6664768989460201
undo,49,40,1,0,0,5,"[0, 2, 19, 23, 5]",5,10,"[1, 6, 7, 8, 9, 11, 18, 21, 22, 27]",134.1698808,25192,201,4,12,8,1.3483906154476113
undo,49,40,1,0,0,23,"[0, 2, 19, 23]",4,15,"[1, 5, 6, 7, 8, 9, 10, 11, 13, 17, 18, 21, 22, 27, 29]",162.4718242,25378,186,11,38,8,1.4499965171787688
undo,49,40,1,0,0,19,"[0, 2, 19]",3,22,"[1, 5, 6, 7, 8, 9, 10, 11, 13, 14, 15, 17, 18, 20, 21, 22, 23, 24, 25, 26, 27, 29]",194.4249148,25613,235,19,105,8,1.02908296307533
undo,49,40,1,0,0,2,"[0, 2]",2,28,"[1, 3, 4, 5, 6, 7, 8, 9, 10, 11, 12, 13, 14, 15, 16, 17, 18, 19, 20, 21, 22, 23, 24, 25, 26, 27, 28, 29]",263.7646581,25957,344,4,79,9,1.0
undo,49,40,1,0,0,0,[0],1,29,"[1, 2, 3, 4, 5, 6, 7, 8, 9, 10, 11, 12, 13, 14, 15, 16, 17, 18, 19, 20, 21, 22, 23, 24, 25, 26, 27, 28, 29]",300,26199,242,8,191,9,0.0
undo,49,40,0,0,0,23,"[0, 23]",2,21,"[1, 2, 5, 6, 7, 8, 9, 10, 11, 13, 14, 15, 17, 18, 19, 20, 21, 22, 24, 27, 29]",205.1527544,32025,5826,1,27,8,1.0
undo,49,40,0,0,0,5,"[0, 23, 5]",3,18,"[1, 2, 6, 7, 8, 9, 10, 11, 13, 14, 17, 18, 19, 20, 21, 22, 27, 29]",176.850811,34056,2031,1,14,8,1.0013453017380705
undo,49,40,0,0,0,22,"[0, 23, 5, 22]",4,10,"[7, 8, 9, 11, 14, 18, 19, 20, 27, 29]",114.2409076,35212,1156,2,9,7,1.0488839370717857
undo,49,40,0,0,0,27,"[0, 23, 5, 22, 27]",5,3,"[7, 8, 29]",63.43736444,36442,1230,2,2,7,1.2686922752391219
undo,49,40,0,0,0,7,"[0, 23, 5, 22, 27, 7]",6,2,"[8, 29]",37.88349976,37467,1025,2,0,7,1.322186017814755
undo,49,40,0,0,1,29,"[0, 23, 5, 22, 27, 7, 29]",7,0,[],7.651066845,41229,3762,1,0,7,1.4371464372976817
undo,49,40,1,0,0,7,"[0, 23, 5, 22, 27, 7]",6,2,"[8, 29]",37.88349976,43866,2637,2,0,7,1.322186017814755
undo,49,40,1,0,0,27,"[0, 23, 5, 22, 27]",5,3,"[7, 8, 29]",63.43736444,44215,349,2,2,7,1.2686922752391219
undo,49,40,1,0,0,22,"[0, 23, 5, 22]",4,10,"[7, 8, 9, 11, 14, 18, 19, 20, 27, 29]",114.2409076,44639,424,2,9,7,1.0488839370717857
undo,49,40,1,0,0,5,"[0, 23, 5]",3,18,"[1, 2, 6, 7, 8, 9, 10, 11, 13, 14, 17, 18, 19, 20, 21, 22, 27, 29]",176.850811,45022,383,1,14,8,1.0013453017380705
undo,49,40,1,0,0,23,"[0, 23]",2,21,"[1, 2, 5, 6, 7, 8, 9, 10, 11, 13, 14, 15, 17, 18, 19, 20, 21, 22, 24, 27, 29]",205.1527544,45502,480,1,27,8,1.0
undo,49,40,1,0,0,0,[0],1,29,"[1, 2, 3, 4, 5, 6, 7, 8, 9, 10, 11, 12, 13, 14, 15, 16, 17, 18, 19, 20, 21, 22, 23, 24, 25, 26, 27, 28, 29]",300,45901,399,8,191,9,0.0
undo,49,40,0,0,0,1,"[0, 1]",2,18,"[2, 5, 6, 7, 8, 9, 10, 11, 13, 15, 17, 18, 19, 21, 22, 23, 27, 29]",247.8463808,47739,1838,4,80,9,1.0
undo,49,40,0,0,0,6,"[0, 1, 6]",3,17,"[2, 5, 7, 8, 9, 10, 11, 13, 15, 17, 18, 19, 21, 22, 23, 27, 29]",227.7466295,49154,1415,4,74,9,1.0459427008232034
undo,49,40,0,0,0,21,"[0, 1, 6, 21]",4,8,"[2, 5, 9, 17, 18, 19, 22, 23]",175.7754837,50410,1256,4,25,9,1.0308822257404064
undo,49,40,0,0,0,9,"[0, 1, 6, 21, 9]",5,6,"[2, 5, 18, 19, 22, 23]",130.0699041,51475,1065,4,12,9,1.377861912961129
undo,49,40,0,0,0,18,"[0, 1, 6, 21, 9, 18]",6,5,"[2, 5, 19, 22, 23]",113.5169588,52884,1409,4,4,9,1.5742712168661408
undo,49,40,0,0,0,23,"[0, 1, 6, 21, 9, 18, 23]",7,3,"[2, 5, 19]",79.51695879,54281,1397,2,1,9,2.324611956726637
undo,49,40,0,0,0,19,"[0, 1, 6, 21, 9, 18, 23, 19]",8,1,[5],47.56386817,55683,1402,1,0,9,2.460596854255639
undo,49,40,0,0,1,5,"[0, 1, 6, 21, 9, 18, 23, 19, 5]",9,0,[],9.485002643,57200,1517,1,0,9,2.3622228457215413
undo,49,40,0,1,1,5,"[0, 1, 6, 21, 9, 18, 23, 19, 5]",9,0,[],9.485002643,59022,1822,1,0,9,2.3622228457215413
undo,50,38,0,0,0,0,[0],1,29,"[1, 2, 3, 4, 5, 6, 7, 8, 9, 10, 11, 12, 13, 14, 15, 16, 17, 18, 19, 20, 21, 22, 23, 24, 25, 26, 27, 28, 29]",300,189,-1,33,506,9,0.0
undo,50,38,0,0,0,19,"[0, 19]",2,23,"[3, 4, 5, 6, 7, 8, 9, 11, 13, 14, 15, 16, 17, 18, 20, 22, 23, 24, 25, 26, 27, 28, 29]",219.5015528,3551,3362,6,61,9,1.0
undo,50,38,0,0,0,17,"[0, 19, 17]",3,21,"[3, 4, 5, 6, 7, 9, 11, 13, 14, 15, 16, 18, 20, 22, 23, 24, 25, 26, 27, 28, 29]",198.1239945,4951,1400,6,53,9,1.571793785769489
undo,50,38,0,0,0,20,"[0, 19, 17, 20]",4,17,"[3, 4, 5, 6, 7, 11, 13, 14, 15, 16, 18, 22, 24, 25, 26, 27, 28]",174.3542658,8133,3182,6,44,9,2.333182710277297
undo,50,38,0,0,0,4,"[0, 19, 17, 20, 4]",5,10,"[5, 11, 13, 14, 15, 16, 24, 26, 27, 28]",140.4131403,11921,3788,5,22,9,2.276099229646013
undo,50,38,0,0,0,15,"[0, 19, 17, 20, 4, 15]",6,8,"[5, 11, 13, 14, 16, 24, 26, 28]",114.4131403,13555,1634,5,6,9,2.5292671156176403
undo,50,38,0,0,0,11,"[0, 19, 17, 20, 4, 15, 11]",7,2,"[16, 28]",78.01259089,14835,1280,2,0,9,2.778100109749787
undo,50,38,0,0,0,28,"[0, 19, 17, 20, 4, 15, 11, 28]",8,1,[16],50.99407872,16009,1174,1,0,9,2.3316428595723258
undo,50,38,0,0,1,16,"[0, 19, 17, 20, 4, 15, 11, 28, 16]",9,0,[],21.99407872,17669,1660,1,0,9,2.5408012360364265
undo,50,38,1,0,0,28,"[0, 19, 17, 20, 4, 15, 11, 28]",8,1,[16],50.99407872,26883,9214,1,0,9,2.3316428595723258
undo,50,38,0,0,1,16,"[0, 19, 17, 20, 4, 15, 11, 28, 16]",9,0,[],21.99407872,31758,4875,1,0,9,2.5408012360364265
undo,50,38,0,1,1,16,"[0, 19, 17, 20, 4, 15, 11, 28, 16]",9,0,[],21.99407872,33310,1552,1,0,9,2.5408012360364265
undo,51,12,0,0,0,0,[0],1,29,"[1, 2, 3, 4, 5, 6, 7, 8, 9, 10, 11, 12, 13, 14, 15, 16, 17, 18, 19, 20, 21, 22, 23, 24, 25, 26, 27, 28, 29]",300,243,-1,2,32,9,0.0
undo,51,12,0,0,0,22,"[0, 22]",2,22,"[2, 4, 5, 6, 7, 9, 10, 12, 13, 14, 15, 16, 17, 18, 19, 21, 23, 24, 25, 27, 28, 29]",211.9943184,6293,6050,6,42,8,1.0
undo,51,12,0,0,0,16,"[0, 22, 16]",3,12,"[2, 4, 5, 6, 7, 12, 14, 19, 23, 24, 25, 27]",190.9943184,7623,1330,6,24,8,1.2017164145167045
undo,51,12,0,0,0,4,"[0, 22, 16, 4]",4,9,"[2, 6, 7, 12, 14, 19, 24, 25, 27]",156.7890556,10678,3055,6,14,8,1.146531713305579
undo,51,12,0,0,0,12,"[0, 22, 16, 4, 12]",5,4,"[14, 19, 24, 27]",114.5990094,12514,1836,4,3,8,1.1221389456954312
undo,51,12,0,0,0,27,"[0, 22, 16, 4, 12, 27]",6,3,"[14, 19, 24]",90.24741807,13781,1267,2,1,8,1.2262878338287035
undo,51,12,0,0,0,14,"[0, 22, 16, 4, 12, 27, 14]",7,1,[24],61.59432051,15147,1366,1,0,8,1.2804562106751427
undo,51,12,0,0,1,24,"[0, 22, 16, 4, 12, 27, 14, 24]",8,0,[],44.38966997,16307,1160,1,0,8,1.4322660007679802
undo,51,12,0,1,1,24,"[0, 22, 16, 4, 12, 27, 14, 24]",8,0,[],44.38966997,19678,3371,1,0,8,1.4322660007679802
undo,52,21,0,0,0,0,[0],1,29,"[1, 2, 3, 4, 5, 6, 7, 8, 9, 10, 11, 12, 13, 14, 15, 16, 17, 18, 19, 20, 21, 22, 23, 24, 25, 26, 27, 28, 29]",300,294,-1,84,830,9,0.0
undo,52,21,0,0,0,25,"[0, 25]",2,26,"[1, 2, 3, 4, 5, 6, 7, 8, 9, 10, 11, 12, 13, 14, 15, 16, 17, 18, 20, 21, 22, 23, 24, 26, 27, 29]",240.1836143,3290,2996,30,238,9,1.0
undo,52,21,0,0,0,21,"[0, 25, 21]",3,18,"[1, 3, 4, 6, 8, 9, 11, 12, 14, 15, 16, 17, 18, 20, 22, 23, 24, 29]",190.8480288,5323,2033,15,84,9,1.2142997420204755
undo,52,21,0,0,0,23,"[0, 25, 21, 23]",4,14,"[1, 4, 6, 8, 9, 14, 15, 16, 17, 18, 20, 22, 24, 29]",161.233843,7925,2602,9,27,9,1.4013924134357778
undo,52,21,0,0,0,14,"[0, 25, 21, 23, 14]",5,9,"[4, 8, 15, 16, 17, 18, 22, 24, 29]",132.1649593,8894,969,7,9,9,1.4652634639575024
undo,52,21,0,0,0,4,"[0, 25, 21, 23, 14, 4]",6,7,"[8, 15, 16, 17, 18, 24, 29]",118.0228236,10207,1313,7,2,9,1.422739117765393
undo,52,21,0,0,0,16,"[0, 25, 21, 23, 14, 4, 16]",7,3,"[8, 15, 24]",73.42461739,11728,1521,3,1,9,1.3881533988257628
undo,52,21,0,0,0,8,"[0, 25, 21, 23, 14, 4, 16, 8]",8,1,[15],54.82354215,12730,1002,1,0,9,1.353244899801389
undo,52,21,0,0,1,15,"[0, 25, 21, 23, 14, 4, 16, 8, 15]",9,0,[],29.82354215,14207,1477,1,0,9,1.604898534974819
undo,52,21,1,0,0,8,"[0, 25, 21, 23, 14, 4, 16, 8]",8,1,[15],54.82354215,17486,3279,1,0,9,1.353244899801389
undo,52,21,1,0,0,16,"[0, 25, 21, 23, 14, 4, 16]",7,3,"[8, 15, 24]",73.42461739,18036,550,3,1,9,1.3881533988257628
undo,52,21,1,0,0,4,"[0, 25, 21, 23, 14, 4]",6,7,"[8, 15, 16, 17, 18, 24, 29]",118.0228236,18401,365,7,2,9,1.422739117765393
undo,52,21,1,0,0,14,"[0, 25, 21, 23, 14]",5,9,"[4, 8, 15, 16, 17, 18, 22, 24, 29]",132.1649593,18768,367,7,9,9,1.4652634639575024
undo,52,21,1,0,0,23,"[0, 25, 21, 23]",4,14,"[1, 4, 6, 8, 9, 14, 15, 16, 17, 18, 20, 22, 24, 29]",161.233843,19136,368,9,27,9,1.4013924134357778
undo,52,21,1,0,0,21,"[0, 25, 21]",3,18,"[1, 3, 4, 6, 8, 9, 11, 12, 14, 15, 16, 17, 18, 20, 22, 23, 24, 29]",190.8480288,19538,402,15,84,9,1.2142997420204755
undo,52,21,1,0,0,25,"[0, 25]",2,26,"[1, 2, 3, 4, 5, 6, 7, 8, 9, 10, 11, 12, 13, 14, 15, 16, 17, 18, 20, 21, 22, 23, 24, 26, 27, 29]",240.1836143,19923,385,30,238,9,1.0
undo,52,21,0,0,0,21,"[0, 25, 21]",3,18,"[1, 3, 4, 6, 8, 9, 11, 12, 14, 15, 16, 17, 18, 20, 22, 23, 24, 29]",190.8480288,23115,3192,15,84,9,1.2142997420204755
undo,52,21,0,0,0,4,"[0, 25, 21, 4]",4,11,"[8, 9, 14, 15, 16, 17, 18, 22, 23, 24, 29]",151.1491623,28615,5500,1,20,9,1.1637498377402984
undo,52,21,0,0,0,16,"[0, 25, 21, 4, 16]",5,6,"[8, 14, 15, 17, 23, 24]",106.550956,30147,1532,1,9,8,1.1851991369707724
undo,52,21,0,0,0,8,"[0, 25, 21, 4, 16, 8]",6,4,"[14, 15, 23, 24]",87.94988079,31261,1114,1,3,8,1.1704049599198052
undo,52,21,0,0,0,15,"[0, 25, 21, 4, 16, 8, 15]",7,1,[24],62.94988079,32515,1254,1,0,8,1.408121906931482
undo,52,21,0,0,1,24,"[0, 25, 21, 4, 16, 8, 15, 24]",8,0,[],17.24430126,33940,1425,1,0,8,1.4217448112598792
undo,52,21,0,1,1,24,"[0, 25, 21, 4, 16, 8, 15, 24]",8,0,[],17.24430126,35764,1824,1,0,8,1.4217448112598792
undo,53,4,0,0,0,0,[0],1,26,"[3, 4, 5, 6, 7, 8, 10, 11, 12, 13, 14, 15, 16, 17, 18, 19, 20, 21, 22, 23, 24, 25, 26, 27, 28, 29]",300,219,-1,4,489,10,0.0
undo,53,4,0,0,0,28,"[0, 28]",2,21,"[3, 4, 5, 6, 10, 11, 12, 13, 14, 15, 16, 17, 19, 20, 21, 22, 23, 24, 25, 26, 27]",225.9392142,2918,2699,2,216,10,1.0
undo,53,4,0,0,0,11,"[0, 28, 11]",3,16,"[3, 4, 5, 6, 12, 13, 14, 16, 17, 20, 21, 22, 23, 24, 25, 26]",177.0618165,5758,2840,1,99,10,1.0005230107421244
undo,53,4,0,0,0,16,"[0, 28, 11, 16]",4,13,"[3, 4, 5, 6, 12, 13, 14, 17, 20, 21, 22, 24, 25]",162.0618165,6750,992,38,165,9,1.0006824277240565
undo,53,4,0,0,0,17,"[0, 28, 11, 16, 17]",5,12,"[3, 4, 5, 6, 12, 13, 14, 20, 21, 22, 24, 25]",135.9850069,10558,3808,9,39,9,1.000593778858539
undo,53,4,0,0,0,3,"[0, 28, 11, 16, 17, 3]",6,6,"[5, 14, 20, 21, 22, 25]",111.4697056,11923,1365,2,7,9,1.0809398822985845
undo,53,4,0,0,0,14,"[0, 28, 11, 16, 17, 3, 14]",7,1,[25],70.03300684,13849,1926,1,0,8,1.6839831140088701
undo,53,4,0,0,1,25,"[0, 28, 11, 16, 17, 3, 14, 25]",8,0,[],53.90849134,15465,1616,1,0,8,1.9406182119358029
undo,53,4,1,0,0,14,"[0, 28, 11, 16, 17, 3, 14]",7,1,[25],70.03300684,25227,9762,1,0,8,1.6839831140088701
undo,53,4,1,0,0,3,"[0, 28, 11, 16, 17, 3]",6,6,"[5, 14, 20, 21, 22, 25]",111.4697056,25705,478,2,7,9,1.0809398822985845
undo,53,4,1,0,0,17,"[0, 28, 11, 16, 17]",5,12,"[3, 4, 5, 6, 12, 13, 14, 20, 21, 22, 24, 25]",135.9850069,26155,450,9,39,9,1.000593778858539
undo,53,4,0,0,0,20,"[0, 28, 11, 16, 17, 20]",6,7,"[3, 5, 14, 21, 22, 24, 25]",95.76063617,29718,3563,4,4,9,1.117732149987094
undo,53,4,0,0,0,5,"[0, 28, 11, 16, 17, 20, 5]",7,3,"[21, 22, 24]",65.34682352,31323,1605,2,1,9,1.1885173342773478
undo,53,4,0,0,0,22,"[0, 28, 11, 16, 17, 20, 5, 22]",8,1,[21],26.14223195,33301,1978,1,0,9,1.72606670941723
undo,53,4,0,0,1,21,"[0, 28, 11, 16, 17, 20, 5, 22, 21]",9,0,[],15.09687094,34185,884,1,0,9,1.9276189830564898
undo,53,4,0,1,1,21,"[0, 28, 11, 16, 17, 20, 5, 22, 21]",9,0,[],15.09687094,39860,5675,1,0,9,1.9276189830564898
undo,54,13,0,0,0,0,[0],1,29,"[1, 2, 3, 4, 5, 6, 7, 8, 9, 10, 11, 12, 13, 14, 15, 16, 17, 18, 19, 20, 21, 22, 23, 24, 25, 26, 27, 28, 29]",300,295,-1,60,2676,11,0.0
undo,54,13,0,0,0,24,"[0, 24]",2,28,"[1, 2, 3, 4, 5, 6, 7, 8, 9, 10, 11, 12, 13, 14, 15, 16, 17, 18, 19, 20, 21, 22, 23, 25, 26, 27, 28, 29]",288.8196601,2839,2544,16,1444,11,1.0
undo,54,13,0,0,0,23,"[0, 24, 23]",3,27,"[1, 2, 3, 4, 5, 6, 7, 8, 9, 10, 11, 12, 13, 14, 15, 16, 17, 18, 19, 20, 21, 22, 25, 26, 27, 28, 29]",243.1140806,4223,1384,2,868,11,1.0065545717039834
undo,54,13,1,0,0,24,"[0, 24]",2,28,"[1, 2, 3, 4, 5, 6, 7, 8, 9, 10, 11, 12, 13, 14, 15, 16, 17, 18, 19, 20, 21, 22, 23, 25, 26, 27, 28, 29]",288.8196601,14486,10263,16,1444,11,1.0
undo,54,13,0,0,0,28,"[0, 24, 28]",3,23,"[1, 2, 3, 4, 6, 7, 8, 9, 10, 11, 12, 13, 15, 16, 17, 19, 20, 21, 22, 23, 26, 27, 29]",222.5324064,16570,2084,8,243,11,1.0513810491680837
undo,54,13,0,0,0,2,"[0, 24, 28, 2]",4,19,"[1, 3, 4, 6, 7, 9, 11, 12, 13, 15, 16, 17, 19, 20, 21, 23, 26, 27, 29]",184.889346,18386,1816,7,110,11,1.050374132001543
undo,54,13,0,0,0,29,"[0, 24, 28, 2, 29]",5,18,"[1, 3, 4, 6, 7, 9, 11, 12, 13, 15, 16, 17, 19, 20, 21, 23, 26, 27]",173.1846461,20539,2153,7,85,11,1.1393409619120594
undo,54,13,0,0,0,7,"[0, 24, 28, 2, 29, 7]",6,17,"[1, 3, 4, 6, 9, 11, 12, 13, 15, 16, 17, 19, 20, 21, 23, 26, 27]",157.9203086,21581,1042,5,45,11,1.349777315111579
undo,54,13,0,0,0,26,"[0, 24, 28, 2, 29, 7, 26]",7,16,"[1, 3, 4, 6, 9, 11, 12, 13, 15, 16, 17, 19, 20, 21, 23, 27]",147.480002,22785,1204,5,25,11,1.5942082773824946
undo,54,13,0,0,0,6,"[0, 24, 28, 2, 29, 7, 26, 6]",8,12,"[1, 3, 4, 11, 13, 15, 16, 17, 19, 20, 23, 27]",127.3802508,25033,2248,4,12,11,1.5898347940840756
undo,54,13,0,0,0,13,"[0, 24, 28, 2, 29, 7, 26, 6, 13]",9,2,"[15, 17]",53.5561355,28931,3898,2,0,10,1.3580905876739358
undo,54,13,0,0,1,15,"[0, 24, 28, 2, 29, 7, 26, 6, 13, 15]",10,0,[],13.74407703,30533,1602,1,0,10,1.3588471836343528
undo,54,13,1,0,0,13,"[0, 24, 28, 2, 29, 7, 26, 6, 13]",9,2,"[15, 17]",53.5561355,34749,4216,2,0,10,1.3580905876739358
undo,54,13,1,0,0,6,"[0, 24, 28, 2, 29, 7, 26, 6]",8,12,"[1, 3, 4, 11, 13, 15, 16, 17, 19, 20, 23, 27]",127.3802508,35449,700,4,12,11,1.5898347940840756
undo,54,13,0,0,0,11,"[0, 24, 28, 2, 29, 7, 26, 6, 11]",9,6,"[1, 13, 15, 16, 17, 23]",108.2752776,36957,1508,3,4,11,1.5029953945561012
undo,54,13,0,0,0,13,"[0, 24, 28, 2, 29, 7, 26, 6, 11, 13]",10,2,"[15, 17]",52.19497806,38507,1550,2,0,11,1.3655915863754327
undo,54,13,0,0,1,15,"[0, 24, 28, 2, 29, 7, 26, 6, 11, 13, 15]",11,0,[],12.38291958,40509,2002,1,0,11,1.3653085520078876
undo,54,13,0,1,1,15,"[0, 24, 28, 2, 29, 7, 26, 6, 11, 13, 15]",11,0,[],12.38291958,44348,3839,1,0,11,1.3653085520078876
undo,55,43,0,0,0,0,[0],1,23,"[1, 2, 3, 4, 5, 6, 7, 9, 10, 11, 12, 14, 15, 16, 17, 19, 20, 21, 22, 23, 25, 27, 29]",300,259,-1,16,556,12,0.0
undo,55,43,0,0,0,29,"[0, 29]",2,22,"[1, 2, 3, 4, 5, 6, 7, 9, 10, 11, 12, 14, 15, 16, 17, 19, 20, 21, 22, 23, 25, 27]",277.909278,2754,2495,16,520,12,1.0
undo,55,43,0,0,0,20,"[0, 29, 20]",3,20,"[1, 2, 3, 4, 6, 7, 9, 10, 11, 12, 14, 15, 16, 17, 19, 21, 22, 23, 25, 27]",254.4785289,4066,1312,15,422,12,1.082311746871282
undo,55,43,0,0,0,16,"[0, 29, 20, 16]",4,19,"[1, 2, 3, 4, 6, 7, 9, 10, 11, 12, 14, 15, 17, 19, 21, 22, 23, 25, 27]",231.8511119,5359,1293,15,389,12,1.215201926898219
undo,55,43,0,0,0,15,"[0, 29, 20, 16, 15]",5,14,"[1, 2, 3, 4, 6, 7, 9, 11, 12, 14, 19, 22, 23, 25]",188.5267539,8584,3225,3,109,12,1.3482474915350444
undo,55,43,0,0,0,25,"[0, 29, 20, 16, 15, 25]",6,12,"[1, 3, 4, 6, 7, 9, 11, 12, 14, 19, 22, 23]",165.8551858,10076,1492,2,43,12,1.691408721191545
undo,55,43,0,0,0,12,"[0, 29, 20, 16, 15, 25, 12]",7,11,"[1, 3, 4, 6, 7, 9, 11, 14, 19, 22, 23]",141.6684126,11396,1320,2,32,12,1.6015983641428178
undo,55,43,0,0,0,3,"[0, 29, 20, 16, 15, 25, 12, 3]",8,10,"[1, 4, 6, 7, 9, 11, 14, 19, 22, 23]",128.6684126,12412,1016,2,24,12,1.5379830456120627
undo,55,43,0,0,0,22,"[0, 29, 20, 16, 15, 25, 12, 3, 22]",9,6,"[1, 6, 7, 11, 14, 19]",93.95530264,13660,1248,1,11,12,1.7275686117408873
undo,55,43,0,0,0,19,"[0, 29, 20, 16, 15, 25, 12, 3, 22, 19]",10,4,"[1, 6, 7, 11]",73.33977451,15196,1536,1,3,12,1.6315360037595275
undo,55,43,0,0,0,1,"[0, 29, 20, 16, 15, 25, 12, 3, 22, 19, 1]",11,1,[7],45.1617689,16497,1301,1,0,12,1.7703076545303877
undo,55,43,0,0,1,7,"[0, 29, 20, 16, 15, 25, 12, 3, 22, 19, 1, 7]",12,0,[],6.951822553,18223,1726,1,0,12,1.6607094905815594
undo,55,43,0,1,1,7,"[0, 29, 20, 16, 15, 25, 12, 3, 22, 19, 1, 7]",12,0,[],6.951822553,23204,4981,1,0,12,1.6607094905815594
undo,56,9,0,0,0,0,[0],1,27,"[1, 3, 4, 5, 6, 7, 8, 9, 10, 11, 13, 14, 15, 16, 17, 18, 19, 20, 21, 22, 23, 24, 25, 26, 27, 28, 29]",300,257,-1,2,182,10,0.0
undo,56,9,0,0,0,8,"[0, 8]",2,25,"[1, 3, 4, 5, 6, 7, 9, 10, 11, 13, 14, 15, 16, 17, 18, 19, 20, 21, 22, 23, 24, 25, 26, 27, 28]",236.2191251,9499,9242,2,102,9,1.0
undo,56,9,0,0,0,28,"[0, 8, 28]",3,23,"[1, 3, 4, 5, 6, 7, 9, 10, 11, 13, 15, 16, 17, 18, 19, 20, 21, 22, 23, 24, 25, 26, 27]",225.4024713,10526,1027,2,52,9,1.0043219354187498
undo,56,9,0,0,0,23,"[0, 8, 28, 23]",4,21,"[1, 3, 4, 5, 7, 9, 10, 11, 13, 15, 16, 17, 18, 19, 20, 21, 22, 24, 25, 26, 27]",200.3824793,12411,1885,19,104,8,1.6731219967216804
undo,56,9,0,0,0,9,"[0, 8, 28, 23, 9]",5,19,"[1, 3, 4, 5, 7, 10, 11, 13, 15, 16, 18, 19, 20, 21, 22, 24, 25, 26, 27]",178.0217995,13912,1501,12,35,8,1.6380661913087589
undo,56,9,0,0,0,26,"[0, 8, 28, 23, 9, 26]",6,9,"[3, 5, 10, 15, 16, 18, 19, 20, 21]",121.3737634,15329,1417,3,6,8,1.529011463409394
undo,56,9,0,0,0,21,"[0, 8, 28, 23, 9, 26, 21]",7,1,[20],67.46643547,16728,1399,1,0,8,1.9617672806835904
undo,56,9,0,0,1,20,"[0, 8, 28, 23, 9, 26, 21, 20]",8,0,[],55.3833895,17610,882,1,0,8,1.9314512996641564
undo,56,9,1,0,0,21,"[0, 8, 28, 23, 9, 26, 21]",7,1,[20],67.46643547,21923,4313,1,0,8,1.9617672806835904
undo,56,9,1,0,0,26,"[0, 8, 28, 23, 9, 26]",6,9,"[3, 5, 10, 15, 16, 18, 19, 20, 21]",121.3737634,22192,269,3,6,8,1.529011463409394
undo,56,9,1,0,0,9,"[0, 8, 28, 23, 9]",5,19,"[1, 3, 4, 5, 7, 10, 11, 13, 15, 16, 18, 19, 20, 21, 22, 24, 25, 26, 27]",178.0217995,22423,231,12,35,8,1.6380661913087589
undo,56,9,1,0,0,23,"[0, 8, 28, 23]",4,21,"[1, 3, 4, 5, 7, 9, 10, 11, 13, 15, 16, 17, 18, 19, 20, 21, 22, 24, 25, 26, 27]",200.3824793,22642,219,19,104,8,1.6731219967216804
undo,56,9,1,0,0,28,"[0, 8, 28]",3,23,"[1, 3, 4, 5, 6, 7, 9, 10, 11, 13, 15, 16, 17, 18, 19, 20, 21, 22, 23, 24, 25, 26, 27]",225.4024713,23325,683,2,52,9,1.0043219354187498
undo,56,9,0,0,0,23,"[0, 8, 28, 23]",4,21,"[1, 3, 4, 5, 7, 9, 10, 11, 13, 15, 16, 17, 18, 19, 20, 21, 22, 24, 25, 26, 27]",200.3824793,27290,3965,19,104,8,1.6731219967216804
undo,56,9,0,0,0,9,"[0, 8, 28, 23, 9]",5,19,"[1, 3, 4, 5, 7, 10, 11, 13, 15, 16, 18, 19, 20, 21, 22, 24, 25, 26, 27]",178.0217995,28399,1109,12,35,8,1.6380661913087589
undo,56,9,0,0,0,26,"[0, 8, 28, 23, 9, 26]",6,9,"[3, 5, 10, 15, 16, 18, 19, 20, 21]",121.3737634,29553,1154,3,6,8,1.529011463409394
undo,56,9,0,0,0,18,"[0, 8, 28, 23, 9, 26, 18]",7,1,[19],60.49683834,32708,3155,1,0,8,1.3743231272597587
undo,56,9,0,0,1,19,"[0, 8, 28, 23, 9, 26, 18, 19]",8,0,[],4.176326981,36511,3803,1,0,8,1.7377957110303042
undo,56,9,0,1,1,19,"[0, 8, 28, 23, 9, 26, 18, 19]",8,0,[],4.176326981,38511,2000,1,0,8,1.7377957110303042
undo,57,45,0,0,0,0,[0],1,24,"[1, 2, 3, 4, 5, 6, 7, 9, 10, 11, 12, 14, 15, 16, 17, 19, 20, 21, 22, 23, 24, 25, 27, 29]",300,197,-1,6,248,10,0.0
undo,57,45,0,0,0,15,"[0, 15]",2,23,"[1, 2, 3, 4, 5, 6, 7, 9, 10, 11, 12, 14, 16, 17, 19, 20, 21, 22, 23, 24, 25, 27, 29]",253.9022777,6525,6328,5,207,10,1.0
undo,57,45,0,0,0,23,"[0, 15, 23]",3,22,"[1, 2, 3, 4, 5, 6, 7, 9, 10, 11, 12, 14, 16, 17, 19, 20, 21, 22, 24, 25, 27, 29]",230.3014303,7709,1184,5,163,10,1.0006068457769497
undo,57,45,0,0,0,20,"[0, 15, 23, 20]",4,19,"[1, 2, 3, 5, 6, 7, 9, 10, 11, 12, 14, 16, 17, 19, 21, 22, 24, 25, 29]",188.8647316,9262,1553,5,137,10,1.2062119754673604
